sub_n, computer_n, bw_cond, effect, set, distance, diag, block_n, trial_n, h1, w1, h2, w2, h3, w3, choice, rt 
test, 2, wb, practice, NA, 999, 999, 0, 1, 98, 77, 189, 85, 96, 65, 3, 2.50727
test, 2, wb, practice, NA, 999, 999, 0, 1, 98, 77, 189, 85, 96, 65, 2, 0.73638
test, 2, wb, practice, NA, 999, 999, 0, 2, 81, 168, 103, 138, 81, 175, 1, 1.56549
test, 2, wb, practice, NA, 999, 999, 0, 2, 81, 168, 103, 138, 81, 175, 3, 0.636083
test, 2, wb, practice, NA, 999, 999, 0, 3, 149, 113, 179, 139, 180, 171, 1, 1.31548
test, 2, wb, practice, NA, 999, 999, 0, 3, 149, 113, 179, 139, 180, 171, 3, 0.686089
test, 2, wb, attraction, a-b-db, 9, 3, 1, 1, 114, 186, 120, 195, 195, 120, 1, 1.4889
test, 2, wb, attraction, a-b-db, 9, 3, 1, 1, 114, 186, 120, 195, 195, 120, 2, 0.81947
test, 2, wb, attraction, a-b-db, 9, 2, 1, 2, 86, 157, 165, 90, 90, 165, 1, 1.46416
test, 2, wb, attraction, a-b-db, 9, 2, 1, 2, 86, 157, 165, 90, 90, 165, 2, 0.707353
test, 2, wb, filler, NA, 999, 999, 1, 3, 177, 135, 112, 140, 78, 141, 3, 1.63822
test, 2, wb, filler, NA, 999, 999, 1, 3, 177, 135, 112, 140, 78, 141, 1, 1.19591
test, 2, wb, attraction, a-b-da, 2, 1, 1, 4, 60, 135, 134, 59, 135, 60, 1, 1.26592
test, 2, wb, attraction, a-b-da, 2, 1, 1, 4, 60, 135, 134, 59, 135, 60, 2, 0.74135
test, 2, wb, attraction, a-b-da, 9, 3, 1, 5, 120, 195, 195, 120, 186, 114, 1, 1.27116
test, 2, wb, attraction, a-b-da, 9, 3, 1, 5, 120, 195, 195, 120, 186, 114, 2, 0.713477
test, 2, wb, filler, NA, 999, 999, 1, 6, 188, 149, 126, 75, 88, 152, 2, 1.06761
test, 2, wb, filler, NA, 999, 999, 1, 6, 188, 149, 126, 75, 88, 152, 1, 0.681082
test, 2, wb, attraction, a-b-da, 14, 3, 1, 7, 181, 111, 195, 120, 120, 195, 1, 1.25049
test, 2, wb, attraction, a-b-da, 14, 3, 1, 7, 181, 111, 195, 120, 120, 195, 3, 1.00052
test, 2, wb, catch, NA, 999, 999, 1, 8, 111, 84, 115, 140, 157, 158, 1, 0.931625
test, 2, wb, catch, NA, 999, 999, 1, 8, 111, 84, 115, 140, 157, 158, 3, 0.733316
test, 2, wb, filler, NA, 999, 999, 1, 9, 80, 184, 155, 162, 109, 126, 3, 1.54279
test, 2, wb, filler, NA, 999, 999, 1, 9, 80, 184, 155, 162, 109, 126, 2, 0.745824
test, 2, wb, filler, NA, 999, 999, 1, 10, 125, 136, 139, 183, 134, 182, 1, 1.5374
test, 2, wb, filler, NA, 999, 999, 1, 10, 125, 136, 139, 183, 134, 182, 3, 0.676085
test, 2, wb, attraction, a-b-db, 5, 1, 1, 11, 60, 135, 135, 60, 58, 132, 1, 1.16704
test, 2, wb, attraction, a-b-db, 5, 1, 1, 11, 60, 135, 135, 60, 58, 132, 2, 0.59785
test, 2, wb, attraction, a-b-da, 5, 1, 1, 12, 135, 60, 60, 135, 132, 58, 1, 1.19501
test, 2, wb, attraction, a-b-da, 5, 1, 1, 12, 135, 60, 60, 135, 132, 58, 2, 0.522709
test, 2, wb, attraction, a-b-db, 14, 2, 1, 13, 165, 90, 90, 165, 83, 153, 3, 1.14782
test, 2, wb, attraction, a-b-db, 14, 2, 1, 13, 165, 90, 90, 165, 83, 153, 2, 0.58854
test, 2, wb, filler, NA, 999, 999, 1, 14, 98, 124, 122, 171, 127, 84, 3, 1.72303
test, 2, wb, filler, NA, 999, 999, 1, 14, 98, 124, 122, 171, 127, 84, 2, 0.675367
test, 2, wb, attraction, a-b-db, 14, 1, 1, 15, 135, 60, 56, 125, 60, 135, 2, 2.23115
test, 2, wb, attraction, a-b-db, 14, 1, 1, 15, 135, 60, 56, 125, 60, 135, 1, 0.652196
test, 2, wb, attraction, a-b-db, 5, 3, 1, 16, 117, 190, 120, 195, 195, 120, 2, 2.3146
test, 2, wb, attraction, a-b-db, 5, 3, 1, 16, 117, 190, 120, 195, 195, 120, 3, 0.988055
test, 2, wb, filler, NA, 999, 999, 1, 17, 125, 82, 105, 176, 87, 103, 3, 1.38728
test, 2, wb, filler, NA, 999, 999, 1, 17, 125, 82, 105, 176, 87, 103, 2, 0.577302
test, 2, wb, catch, NA, 999, 999, 1, 18, 105, 150, 87, 108, 145, 170, 1, 1.08913
test, 2, wb, catch, NA, 999, 999, 1, 18, 105, 150, 87, 108, 145, 170, 2, 0.620695
test, 2, wb, attraction, a-b-da, 9, 2, 1, 19, 165, 90, 157, 86, 90, 165, 3, 1.26448
test, 2, wb, attraction, a-b-da, 9, 2, 1, 19, 165, 90, 157, 86, 90, 165, 2, 0.767045
test, 2, wb, attraction, a-b-db, 2, 2, 1, 20, 165, 90, 90, 165, 89, 163, 3, 1.17921
test, 2, wb, attraction, a-b-db, 2, 2, 1, 20, 165, 90, 90, 165, 89, 163, 2, 0.635702
test, 2, wb, catch, NA, 999, 999, 1, 21, 132, 183, 137, 118, 87, 108, 3, 1.21583
test, 2, wb, catch, NA, 999, 999, 1, 21, 132, 183, 137, 118, 87, 108, 1, 0.59749
test, 2, wb, filler, NA, 999, 999, 1, 22, 171, 97, 58, 138, 72, 128, 2, 1.44341
test, 2, wb, filler, NA, 999, 999, 1, 22, 171, 97, 58, 138, 72, 128, 1, 0.607066
test, 2, wb, attraction, a-b-db, 2, 1, 1, 23, 59, 134, 60, 135, 135, 60, 1, 1.31955
test, 2, wb, attraction, a-b-db, 2, 1, 1, 23, 59, 134, 60, 135, 135, 60, 2, 0.681798
test, 2, wb, attraction, a-b-db, 9, 1, 1, 24, 57, 129, 60, 135, 135, 60, 1, 2.73968
test, 2, wb, attraction, a-b-db, 9, 1, 1, 24, 57, 129, 60, 135, 135, 60, 2, 0.702007
test, 2, wb, attraction, a-b-da, 5, 2, 1, 25, 90, 165, 165, 90, 161, 88, 2, 2.11201
test, 2, wb, attraction, a-b-da, 5, 2, 1, 25, 90, 165, 165, 90, 161, 88, 3, 0.655889
test, 2, wb, attraction, a-b-da, 14, 1, 1, 26, 135, 60, 125, 56, 60, 135, 2, 2.61165
test, 2, wb, attraction, a-b-da, 14, 1, 1, 26, 135, 60, 125, 56, 60, 135, 1, 0.625754
test, 2, wb, attraction, a-b-db, 2, 3, 1, 27, 195, 120, 120, 195, 119, 193, 3, 1.67787
test, 2, wb, attraction, a-b-db, 2, 3, 1, 27, 195, 120, 120, 195, 119, 193, 2, 0.659088
test, 2, wb, attraction, a-b-da, 2, 3, 1, 28, 193, 119, 195, 120, 120, 195, 1, 2.08819
test, 2, wb, attraction, a-b-da, 2, 3, 1, 28, 193, 119, 195, 120, 120, 195, 2, 0.616408
test, 2, wb, filler, NA, 999, 999, 1, 29, 124, 176, 81, 187, 79, 81, 3, 1.0531
test, 2, wb, filler, NA, 999, 999, 1, 29, 124, 176, 81, 187, 79, 81, 1, 0.642563
test, 2, wb, attraction, a-b-db, 14, 3, 1, 30, 120, 195, 111, 181, 195, 120, 2, 1.15092
test, 2, wb, attraction, a-b-db, 14, 3, 1, 30, 120, 195, 111, 181, 195, 120, 1, 0.603512
test, 2, wb, filler, NA, 999, 999, 1, 31, 169, 78, 81, 149, 175, 152, 2, 2.94222
test, 2, wb, filler, NA, 999, 999, 1, 31, 169, 78, 81, 149, 175, 152, 3, 0.669985
test, 2, wb, attraction, a-b-da, 5, 3, 1, 32, 195, 120, 120, 195, 190, 117, 2, 1.36322
test, 2, wb, attraction, a-b-da, 5, 3, 1, 32, 195, 120, 120, 195, 190, 117, 1, 0.865735
test, 2, wb, attraction, a-b-da, 9, 1, 1, 33, 129, 57, 135, 60, 60, 135, 1, 1.86342
test, 2, wb, attraction, a-b-da, 9, 1, 1, 33, 129, 57, 135, 60, 60, 135, 2, 0.681855
test, 2, wb, attraction, a-b-da, 2, 2, 1, 34, 90, 165, 165, 90, 163, 89, 3, 1.9151
test, 2, wb, attraction, a-b-da, 2, 2, 1, 34, 90, 165, 165, 90, 163, 89, 2, 0.574241
test, 2, wb, filler, NA, 999, 999, 1, 35, 175, 92, 120, 68, 186, 183, 2, 0.924783
test, 2, wb, filler, NA, 999, 999, 1, 35, 175, 92, 120, 68, 186, 183, 3, 0.743498
test, 2, wb, attraction, a-b-db, 5, 2, 1, 36, 88, 161, 165, 90, 90, 165, 3, 1.26327
test, 2, wb, attraction, a-b-db, 5, 2, 1, 36, 88, 161, 165, 90, 90, 165, 2, 0.58835
test, 2, wb, attraction, a-b-da, 14, 2, 1, 37, 153, 83, 165, 90, 90, 165, 1, 1.15463
test, 2, wb, attraction, a-b-da, 14, 2, 1, 37, 153, 83, 165, 90, 90, 165, 2, 0.578593
test, 2, wb, attraction, a-b-db, 14, 2, 2, 1, 90, 165, 165, 90, 83, 153, 3, 1.17085
test, 2, wb, attraction, a-b-db, 14, 2, 2, 1, 90, 165, 165, 90, 83, 153, 1, 0.515785
test, 2, wb, filler, NA, 999, 999, 2, 2, 190, 145, 150, 153, 170, 79, 3, 1.84542
test, 2, wb, filler, NA, 999, 999, 2, 2, 190, 145, 150, 153, 170, 79, 1, 0.714028
test, 2, wb, attraction, a-b-da, 2, 1, 2, 3, 134, 59, 60, 135, 135, 60, 1, 1.21841
test, 2, wb, attraction, a-b-da, 2, 1, 2, 3, 134, 59, 60, 135, 135, 60, 2, 0.54534
test, 2, wb, attraction, a-b-da, 5, 2, 2, 4, 90, 165, 161, 88, 165, 90, 3, 1.21585
test, 2, wb, attraction, a-b-da, 5, 2, 2, 4, 90, 165, 161, 88, 165, 90, 2, 0.559016
test, 2, wb, attraction, a-b-da, 2, 3, 2, 5, 120, 195, 195, 120, 193, 119, 3, 1.09369
test, 2, wb, attraction, a-b-da, 2, 3, 2, 5, 120, 195, 195, 120, 193, 119, 2, 0.65165
test, 2, wb, attraction, a-b-db, 9, 2, 2, 6, 90, 165, 165, 90, 86, 157, 3, 1.24414
test, 2, wb, attraction, a-b-db, 9, 2, 2, 6, 90, 165, 165, 90, 86, 157, 2, 0.666423
test, 2, wb, attraction, a-b-db, 2, 2, 2, 7, 89, 163, 90, 165, 165, 90, 2, 2.02036
test, 2, wb, attraction, a-b-db, 2, 2, 2, 7, 89, 163, 90, 165, 165, 90, 1, 0.641968
test, 2, wb, attraction, a-b-db, 5, 2, 2, 8, 88, 161, 165, 90, 90, 165, 3, 1.01663
test, 2, wb, attraction, a-b-db, 5, 2, 2, 8, 88, 161, 165, 90, 90, 165, 2, 0.749291
test, 2, wb, attraction, a-b-da, 9, 1, 2, 9, 135, 60, 60, 135, 129, 57, 2, 1.68397
test, 2, wb, attraction, a-b-da, 9, 1, 2, 9, 135, 60, 60, 135, 129, 57, 1, 1.32811
test, 2, wb, attraction, a-b-da, 5, 1, 2, 10, 135, 60, 132, 58, 60, 135, 3, 1.53731
test, 2, wb, attraction, a-b-da, 5, 1, 2, 10, 135, 60, 132, 58, 60, 135, 1, 0.995536
test, 2, wb, filler, NA, 999, 999, 2, 11, 94, 176, 140, 186, 111, 67, 3, 1.33616
test, 2, wb, filler, NA, 999, 999, 2, 11, 94, 176, 140, 186, 111, 67, 2, 0.714124
test, 2, wb, attraction, a-b-da, 9, 3, 2, 12, 186, 114, 195, 120, 120, 195, 3, 1.13171
test, 2, wb, attraction, a-b-da, 9, 3, 2, 12, 186, 114, 195, 120, 120, 195, 1, 0.902288
test, 2, wb, attraction, a-b-db, 9, 1, 2, 13, 57, 129, 60, 135, 135, 60, 2, 1.29422
test, 2, wb, attraction, a-b-db, 9, 1, 2, 13, 57, 129, 60, 135, 135, 60, 1, 0.712822
test, 2, wb, filler, NA, 999, 999, 2, 14, 150, 76, 148, 164, 61, 98, 3, 1.13158
test, 2, wb, filler, NA, 999, 999, 2, 14, 150, 76, 148, 164, 61, 98, 2, 0.701748
test, 2, wb, attraction, a-b-db, 14, 1, 2, 15, 135, 60, 56, 125, 60, 135, 2, 1.76553
test, 2, wb, attraction, a-b-db, 14, 1, 2, 15, 135, 60, 56, 125, 60, 135, 1, 0.688107
test, 2, wb, filler, NA, 999, 999, 2, 16, 160, 148, 124, 191, 109, 122, 3, 1.07408
test, 2, wb, filler, NA, 999, 999, 2, 16, 160, 148, 124, 191, 109, 122, 1, 0.592078
test, 2, wb, attraction, a-b-da, 14, 1, 2, 17, 125, 56, 135, 60, 60, 135, 2, 2.21431
test, 2, wb, attraction, a-b-da, 14, 1, 2, 17, 125, 56, 135, 60, 60, 135, 1, 0.641623
test, 2, wb, filler, NA, 999, 999, 2, 18, 88, 143, 64, 162, 154, 139, 1, 2.29446
test, 2, wb, filler, NA, 999, 999, 2, 18, 88, 143, 64, 162, 154, 139, 3, 0.592549
test, 2, wb, attraction, a-b-db, 2, 3, 2, 19, 120, 195, 195, 120, 119, 193, 3, 1.36831
test, 2, wb, attraction, a-b-db, 2, 3, 2, 19, 120, 195, 195, 120, 119, 193, 1, 0.599598
test, 2, wb, filler, NA, 999, 999, 2, 20, 167, 176, 135, 68, 184, 78, 2, 1.19074
test, 2, wb, filler, NA, 999, 999, 2, 20, 167, 176, 135, 68, 184, 78, 1, 0.726538
test, 2, wb, filler, NA, 999, 999, 2, 21, 130, 187, 115, 137, 181, 60, 2, 1.72043
test, 2, wb, filler, NA, 999, 999, 2, 21, 130, 187, 115, 137, 181, 60, 1, 0.579212
test, 2, wb, filler, NA, 999, 999, 2, 22, 121, 140, 169, 93, 76, 164, 2, 3.51251
test, 2, wb, filler, NA, 999, 999, 2, 22, 121, 140, 169, 93, 76, 164, 1, 0.696442
test, 2, wb, attraction, a-b-da, 14, 2, 2, 23, 165, 90, 153, 83, 90, 165, 2, 1.26811
test, 2, wb, attraction, a-b-da, 14, 2, 2, 23, 165, 90, 153, 83, 90, 165, 3, 0.831031
test, 2, wb, attraction, a-b-db, 5, 3, 2, 24, 120, 195, 117, 190, 195, 120, 3, 1.03672
test, 2, wb, attraction, a-b-db, 5, 3, 2, 24, 120, 195, 117, 190, 195, 120, 1, 0.530588
test, 2, wb, attraction, a-b-db, 14, 3, 2, 25, 111, 181, 120, 195, 195, 120, 3, 1.20148
test, 2, wb, attraction, a-b-db, 14, 3, 2, 25, 111, 181, 120, 195, 195, 120, 2, 0.527642
test, 2, wb, attraction, a-b-db, 5, 1, 2, 26, 60, 135, 58, 132, 135, 60, 2, 1.05863
test, 2, wb, attraction, a-b-db, 5, 1, 2, 26, 60, 135, 58, 132, 135, 60, 3, 0.742239
test, 2, wb, attraction, a-b-db, 9, 3, 2, 27, 114, 186, 120, 195, 195, 120, 2, 1.00046
test, 2, wb, attraction, a-b-db, 9, 3, 2, 27, 114, 186, 120, 195, 195, 120, 1, 0.638387
test, 2, wb, attraction, a-b-da, 5, 3, 2, 28, 195, 120, 190, 117, 120, 195, 3, 1.0766
test, 2, wb, attraction, a-b-da, 5, 3, 2, 28, 195, 120, 190, 117, 120, 195, 2, 0.606908
test, 2, wb, catch, NA, 999, 999, 2, 29, 91, 104, 136, 179, 129, 126, 1, 1.17205
test, 2, wb, catch, NA, 999, 999, 2, 29, 91, 104, 136, 179, 129, 126, 2, 0.662025
test, 2, wb, attraction, a-b-da, 9, 2, 2, 30, 90, 165, 157, 86, 165, 90, 1, 0.961229
test, 2, wb, attraction, a-b-da, 9, 2, 2, 30, 90, 165, 157, 86, 165, 90, 2, 0.712223
test, 2, wb, attraction, a-b-db, 2, 1, 2, 31, 59, 134, 60, 135, 135, 60, 2, 1.38552
test, 2, wb, attraction, a-b-db, 2, 1, 2, 31, 59, 134, 60, 135, 135, 60, 1, 0.577265
test, 2, wb, catch, NA, 999, 999, 2, 32, 157, 158, 113, 82, 155, 100, 2, 1.33673
test, 2, wb, catch, NA, 999, 999, 2, 32, 157, 158, 113, 82, 155, 100, 1, 0.596759
test, 2, wb, catch, NA, 999, 999, 2, 33, 138, 117, 132, 63, 168, 147, 2, 2.12182
test, 2, wb, catch, NA, 999, 999, 2, 33, 138, 117, 132, 63, 168, 147, 3, 0.617756
test, 2, wb, filler, NA, 999, 999, 2, 34, 180, 164, 142, 178, 79, 95, 3, 1.5222
test, 2, wb, filler, NA, 999, 999, 2, 34, 180, 164, 142, 178, 79, 95, 1, 0.603005
test, 2, wb, attraction, a-b-da, 2, 2, 2, 35, 90, 165, 165, 90, 163, 89, 2, 1.13765
test, 2, wb, attraction, a-b-da, 2, 2, 2, 35, 90, 165, 165, 90, 163, 89, 3, 0.6746
test, 2, wb, filler, NA, 999, 999, 2, 36, 157, 88, 166, 99, 67, 107, 3, 1.02035
test, 2, wb, filler, NA, 999, 999, 2, 36, 157, 88, 166, 99, 67, 107, 2, 0.586252
test, 2, wb, attraction, a-b-da, 14, 3, 2, 37, 195, 120, 120, 195, 181, 111, 3, 1.13154
test, 2, wb, attraction, a-b-da, 14, 3, 2, 37, 195, 120, 120, 195, 181, 111, 1, 0.546634
test, 2, wb, attraction, a-b-da, 2, 1, 3, 1, 135, 60, 134, 59, 60, 135, 2, 1.29785
test, 2, wb, attraction, a-b-da, 2, 1, 3, 1, 135, 60, 134, 59, 60, 135, 1, 0.622095
test, 2, wb, attraction, a-b-db, 9, 1, 3, 2, 60, 135, 57, 129, 135, 60, 2, 1.23507
test, 2, wb, attraction, a-b-db, 9, 1, 3, 2, 60, 135, 57, 129, 135, 60, 1, 2.06419
test, 2, wb, attraction, a-b-da, 2, 2, 3, 3, 90, 165, 163, 89, 165, 90, 3, 1.10805
test, 2, wb, attraction, a-b-da, 2, 2, 3, 3, 90, 165, 163, 89, 165, 90, 2, 0.631041
test, 2, wb, attraction, a-b-da, 9, 3, 3, 4, 120, 195, 186, 114, 195, 120, 3, 0.97818
test, 2, wb, attraction, a-b-da, 9, 3, 3, 4, 120, 195, 186, 114, 195, 120, 1, 0.617494
test, 2, wb, attraction, a-b-db, 2, 2, 3, 5, 165, 90, 89, 163, 90, 165, 2, 0.920206
test, 2, wb, attraction, a-b-db, 2, 2, 3, 5, 165, 90, 89, 163, 90, 165, 1, 0.634959
test, 2, wb, attraction, a-b-db, 14, 3, 3, 6, 111, 181, 195, 120, 120, 195, 2, 0.959157
test, 2, wb, attraction, a-b-db, 14, 3, 3, 6, 111, 181, 195, 120, 120, 195, 1, 0.647414
test, 2, wb, attraction, a-b-da, 14, 2, 3, 7, 165, 90, 153, 83, 90, 165, 3, 1.02962
test, 2, wb, attraction, a-b-da, 14, 2, 3, 7, 165, 90, 153, 83, 90, 165, 1, 0.591738
test, 2, wb, attraction, a-b-da, 5, 1, 3, 8, 60, 135, 132, 58, 135, 60, 2, 1.03208
test, 2, wb, attraction, a-b-da, 5, 1, 3, 8, 60, 135, 132, 58, 135, 60, 3, 0.604491
test, 2, wb, attraction, a-b-da, 9, 1, 3, 9, 129, 57, 60, 135, 135, 60, 3, 0.96377
test, 2, wb, attraction, a-b-da, 9, 1, 3, 9, 129, 57, 60, 135, 135, 60, 2, 0.571043
test, 2, wb, attraction, a-b-da, 5, 3, 3, 10, 195, 120, 120, 195, 190, 117, 3, 1.46668
test, 2, wb, attraction, a-b-da, 5, 3, 3, 10, 195, 120, 120, 195, 190, 117, 2, 0.71812
test, 2, wb, attraction, a-b-db, 14, 1, 3, 11, 60, 135, 56, 125, 135, 60, 2, 1.22445
test, 2, wb, attraction, a-b-db, 14, 1, 3, 11, 60, 135, 56, 125, 135, 60, 1, 0.630405
test, 2, wb, attraction, a-b-da, 5, 2, 3, 12, 165, 90, 161, 88, 90, 165, 3, 1.18762
test, 2, wb, attraction, a-b-da, 5, 2, 3, 12, 165, 90, 161, 88, 90, 165, 2, 0.604412
test, 2, wb, attraction, a-b-da, 9, 2, 3, 13, 165, 90, 157, 86, 90, 165, 3, 1.08049
test, 2, wb, attraction, a-b-da, 9, 2, 3, 13, 165, 90, 157, 86, 90, 165, 1, 0.780207
test, 2, wb, attraction, a-b-db, 5, 3, 3, 14, 117, 190, 120, 195, 195, 120, 2, 1.36477
test, 2, wb, attraction, a-b-db, 5, 3, 3, 14, 117, 190, 120, 195, 195, 120, 1, 0.540055
test, 2, wb, attraction, a-b-da, 2, 3, 3, 15, 195, 120, 193, 119, 120, 195, 3, 0.915303
test, 2, wb, attraction, a-b-da, 2, 3, 3, 15, 195, 120, 193, 119, 120, 195, 2, 0.614161
test, 2, wb, catch, NA, 999, 999, 3, 16, 101, 154, 107, 88, 126, 189, 2, 1.50515
test, 2, wb, catch, NA, 999, 999, 3, 16, 101, 154, 107, 88, 126, 189, 3, 0.64829
test, 2, wb, filler, NA, 999, 999, 3, 17, 102, 127, 179, 195, 71, 145, 1, 4.24945
test, 2, wb, filler, NA, 999, 999, 3, 17, 102, 127, 179, 195, 71, 145, 2, 0.589068
test, 2, wb, attraction, a-b-db, 2, 1, 3, 18, 59, 134, 60, 135, 135, 60, 2, 2.17309
test, 2, wb, attraction, a-b-db, 2, 1, 3, 18, 59, 134, 60, 135, 135, 60, 3, 1.94743
test, 2, wb, attraction, a-b-db, 2, 3, 3, 19, 120, 195, 195, 120, 119, 193, 1, 1.28298
test, 2, wb, attraction, a-b-db, 2, 3, 3, 19, 120, 195, 195, 120, 119, 193, 3, 0.711056
test, 2, wb, filler, NA, 999, 999, 3, 20, 96, 56, 113, 140, 118, 84, 1, 1.14309
test, 2, wb, filler, NA, 999, 999, 3, 20, 96, 56, 113, 140, 118, 84, 2, 0.818579
test, 2, wb, filler, NA, 999, 999, 3, 21, 139, 176, 101, 121, 191, 160, 2, 1.00726
test, 2, wb, filler, NA, 999, 999, 3, 21, 139, 176, 101, 121, 191, 160, 3, 0.7034
test, 2, wb, attraction, a-b-da, 14, 1, 3, 22, 125, 56, 60, 135, 135, 60, 1, 1.36659
test, 2, wb, attraction, a-b-da, 14, 1, 3, 22, 125, 56, 60, 135, 135, 60, 2, 0.630797
test, 2, wb, catch, NA, 999, 999, 3, 23, 146, 169, 95, 100, 159, 96, 2, 1.01785
test, 2, wb, catch, NA, 999, 999, 3, 23, 146, 169, 95, 100, 159, 96, 1, 0.658043
test, 2, wb, filler, NA, 999, 999, 3, 24, 189, 164, 174, 131, 123, 103, 3, 1.06167
test, 2, wb, filler, NA, 999, 999, 3, 24, 189, 164, 174, 131, 123, 103, 1, 0.826823
test, 2, wb, attraction, a-b-db, 5, 1, 3, 25, 135, 60, 60, 135, 58, 132, 2, 1.42314
test, 2, wb, attraction, a-b-db, 5, 1, 3, 25, 135, 60, 60, 135, 58, 132, 1, 0.68511
test, 2, wb, filler, NA, 999, 999, 3, 26, 135, 80, 147, 128, 140, 132, 1, 1.29765
test, 2, wb, filler, NA, 999, 999, 3, 26, 135, 80, 147, 128, 140, 132, 3, 0.705118
test, 2, wb, filler, NA, 999, 999, 3, 27, 104, 88, 105, 137, 72, 161, 1, 1.02155
test, 2, wb, filler, NA, 999, 999, 3, 27, 104, 88, 105, 137, 72, 161, 2, 0.698968
test, 2, wb, filler, NA, 999, 999, 3, 28, 98, 140, 144, 188, 95, 100, 3, 1.41383
test, 2, wb, filler, NA, 999, 999, 3, 28, 98, 140, 144, 188, 95, 100, 2, 0.636524
test, 2, wb, catch, NA, 999, 999, 3, 29, 164, 151, 128, 67, 133, 122, 2, 2.12713
test, 2, wb, catch, NA, 999, 999, 3, 29, 164, 151, 128, 67, 133, 122, 1, 0.680775
test, 2, wb, attraction, a-b-da, 14, 3, 3, 30, 195, 120, 181, 111, 120, 195, 1, 1.18777
test, 2, wb, attraction, a-b-da, 14, 3, 3, 30, 195, 120, 181, 111, 120, 195, 3, 1.0911
test, 2, wb, attraction, a-b-db, 5, 2, 3, 31, 90, 165, 165, 90, 88, 161, 2, 1.02863
test, 2, wb, attraction, a-b-db, 5, 2, 3, 31, 90, 165, 165, 90, 88, 161, 3, 1.12204
test, 2, wb, filler, NA, 999, 999, 3, 32, 138, 156, 90, 123, 116, 159, 2, 1.10001
test, 2, wb, filler, NA, 999, 999, 3, 32, 138, 156, 90, 123, 116, 159, 1, 0.735452
test, 2, wb, attraction, a-b-db, 9, 2, 3, 33, 86, 157, 90, 165, 165, 90, 1, 1.66329
test, 2, wb, attraction, a-b-db, 9, 2, 3, 33, 86, 157, 90, 165, 165, 90, 3, 0.657507
test, 2, wb, filler, NA, 999, 999, 3, 34, 164, 178, 121, 120, 185, 141, 2, 1.03193
test, 2, wb, filler, NA, 999, 999, 3, 34, 164, 178, 121, 120, 185, 141, 1, 0.516748
test, 2, wb, attraction, a-b-db, 9, 3, 3, 35, 195, 120, 114, 186, 120, 195, 2, 1.967
test, 2, wb, attraction, a-b-db, 9, 3, 3, 35, 195, 120, 114, 186, 120, 195, 1, 0.621324
test, 2, wb, filler, NA, 999, 999, 3, 36, 98, 144, 127, 145, 143, 107, 1, 1.43491
test, 2, wb, filler, NA, 999, 999, 3, 36, 98, 144, 127, 145, 143, 107, 2, 0.615387
test, 2, wb, attraction, a-b-db, 14, 2, 3, 37, 90, 165, 83, 153, 165, 90, 2, 1.0123
test, 2, wb, attraction, a-b-db, 14, 2, 3, 37, 90, 165, 83, 153, 165, 90, 1, 0.564754
test, 2, wb, attraction, a-b-da, 2, 1, 4, 1, 134, 59, 135, 60, 60, 135, 2, 2.37193
test, 2, wb, attraction, a-b-da, 2, 1, 4, 1, 134, 59, 135, 60, 60, 135, 3, 0.691995
test, 2, wb, attraction, a-b-db, 9, 2, 4, 2, 165, 90, 86, 157, 90, 165, 2, 1.27742
test, 2, wb, attraction, a-b-db, 9, 2, 4, 2, 165, 90, 86, 157, 90, 165, 3, 0.520518
test, 2, wb, attraction, a-b-db, 2, 3, 4, 3, 119, 193, 195, 120, 120, 195, 1, 1.44907
test, 2, wb, attraction, a-b-db, 2, 3, 4, 3, 119, 193, 195, 120, 120, 195, 2, 0.807477
test, 2, wb, attraction, a-b-db, 14, 1, 4, 4, 60, 135, 56, 125, 135, 60, 2, 1.28368
test, 2, wb, attraction, a-b-db, 14, 1, 4, 4, 60, 135, 56, 125, 135, 60, 1, 0.599507
test, 2, wb, filler, NA, 999, 999, 4, 5, 163, 144, 81, 75, 163, 175, 2, 1.08725
test, 2, wb, filler, NA, 999, 999, 4, 5, 163, 144, 81, 75, 163, 175, 3, 0.761884
test, 2, wb, filler, NA, 999, 999, 4, 6, 60, 109, 62, 78, 156, 69, 2, 1.27399
test, 2, wb, filler, NA, 999, 999, 4, 6, 60, 109, 62, 78, 156, 69, 3, 0.620883
test, 2, wb, attraction, a-b-da, 14, 2, 4, 7, 90, 165, 153, 83, 165, 90, 2, 1.37268
test, 2, wb, attraction, a-b-da, 14, 2, 4, 7, 90, 165, 153, 83, 165, 90, 3, 0.699298
test, 2, wb, catch, NA, 999, 999, 4, 8, 152, 163, 148, 107, 135, 60, 3, 2.06915
test, 2, wb, catch, NA, 999, 999, 4, 8, 152, 163, 148, 107, 135, 60, 1, 0.696964
test, 2, wb, attraction, a-b-da, 9, 3, 4, 9, 186, 114, 195, 120, 120, 195, 2, 1.00235
test, 2, wb, attraction, a-b-da, 9, 3, 4, 9, 186, 114, 195, 120, 120, 195, 3, 0.815878
test, 2, wb, attraction, a-b-da, 9, 2, 4, 10, 90, 165, 157, 86, 165, 90, 2, 1.05347
test, 2, wb, attraction, a-b-da, 9, 2, 4, 10, 90, 165, 157, 86, 165, 90, 3, 0.613074
test, 2, wb, attraction, a-b-da, 14, 1, 4, 11, 60, 135, 135, 60, 125, 56, 1, 4.60192
test, 2, wb, attraction, a-b-da, 14, 1, 4, 11, 60, 135, 135, 60, 125, 56, 2, 1.34523
test, 2, wb, attraction, a-b-da, 14, 3, 4, 12, 120, 195, 181, 111, 195, 120, 2, 1.04967
test, 2, wb, attraction, a-b-da, 14, 3, 4, 12, 120, 195, 181, 111, 195, 120, 3, 0.636726
test, 2, wb, filler, NA, 999, 999, 4, 13, 185, 107, 146, 155, 149, 147, 3, 1.68792
test, 2, wb, filler, NA, 999, 999, 4, 13, 185, 107, 146, 155, 149, 147, 2, 0.772958
test, 2, wb, catch, NA, 999, 999, 4, 14, 178, 137, 125, 130, 135, 60, 3, 1.34704
test, 2, wb, catch, NA, 999, 999, 4, 14, 178, 137, 125, 130, 135, 60, 1, 0.755316
test, 2, wb, attraction, a-b-da, 5, 3, 4, 15, 195, 120, 120, 195, 190, 117, 3, 3.06791
test, 2, wb, attraction, a-b-da, 5, 3, 4, 15, 195, 120, 120, 195, 190, 117, 2, 0.984182
test, 2, wb, attraction, a-b-da, 2, 2, 4, 16, 163, 89, 165, 90, 90, 165, 3, 1.42271
test, 2, wb, attraction, a-b-da, 2, 2, 4, 16, 163, 89, 165, 90, 90, 165, 2, 0.780598
test, 2, wb, attraction, a-b-db, 2, 1, 4, 17, 135, 60, 60, 135, 59, 134, 3, 1.69139
test, 2, wb, attraction, a-b-db, 2, 1, 4, 17, 135, 60, 60, 135, 59, 134, 2, 0.58934
test, 2, wb, filler, NA, 999, 999, 4, 18, 145, 108, 182, 81, 173, 78, 3, 2.17256
test, 2, wb, filler, NA, 999, 999, 4, 18, 145, 108, 182, 81, 173, 78, 2, 0.628797
test, 2, wb, attraction, a-b-db, 9, 1, 4, 19, 60, 135, 135, 60, 57, 129, 3, 1.59401
test, 2, wb, attraction, a-b-db, 9, 1, 4, 19, 60, 135, 135, 60, 57, 129, 2, 0.591459
test, 2, wb, attraction, a-b-db, 5, 3, 4, 20, 195, 120, 120, 195, 117, 190, 3, 1.29404
test, 2, wb, attraction, a-b-db, 5, 3, 4, 20, 195, 120, 120, 195, 117, 190, 2, 0.665093
test, 2, wb, filler, NA, 999, 999, 4, 21, 137, 186, 173, 113, 89, 88, 3, 1.12298
test, 2, wb, filler, NA, 999, 999, 4, 21, 137, 186, 173, 113, 89, 88, 1, 0.568357
test, 2, wb, attraction, a-b-da, 2, 3, 4, 22, 193, 119, 195, 120, 120, 195, 3, 1.2135
test, 2, wb, attraction, a-b-da, 2, 3, 4, 22, 193, 119, 195, 120, 120, 195, 2, 0.676069
test, 2, wb, attraction, a-b-da, 9, 1, 4, 23, 135, 60, 129, 57, 60, 135, 3, 1.45446
test, 2, wb, attraction, a-b-da, 9, 1, 4, 23, 135, 60, 129, 57, 60, 135, 2, 0.69278
test, 2, wb, filler, NA, 999, 999, 4, 24, 101, 112, 190, 192, 178, 105, 1, 1.11177
test, 2, wb, filler, NA, 999, 999, 4, 24, 101, 112, 190, 192, 178, 105, 2, 0.513551
test, 2, wb, attraction, a-b-db, 2, 2, 4, 25, 165, 90, 90, 165, 89, 163, 3, 1.57168
test, 2, wb, attraction, a-b-db, 2, 2, 4, 25, 165, 90, 90, 165, 89, 163, 2, 1.03488
test, 2, wb, filler, NA, 999, 999, 4, 26, 182, 118, 186, 135, 98, 146, 3, 1.20836
test, 2, wb, filler, NA, 999, 999, 4, 26, 182, 118, 186, 135, 98, 146, 2, 0.677074
test, 2, wb, filler, NA, 999, 999, 4, 27, 175, 151, 92, 154, 158, 100, 2, 1.19307
test, 2, wb, filler, NA, 999, 999, 4, 27, 175, 151, 92, 154, 158, 100, 1, 0.680337
test, 2, wb, attraction, a-b-db, 14, 3, 4, 28, 120, 195, 195, 120, 111, 181, 3, 0.963517
test, 2, wb, attraction, a-b-db, 14, 3, 4, 28, 120, 195, 195, 120, 111, 181, 2, 0.548849
test, 2, wb, attraction, a-b-da, 5, 2, 4, 29, 90, 165, 161, 88, 165, 90, 1, 1.40578
test, 2, wb, attraction, a-b-da, 5, 2, 4, 29, 90, 165, 161, 88, 165, 90, 3, 1.01881
test, 2, wb, attraction, a-b-db, 9, 3, 4, 30, 195, 120, 114, 186, 120, 195, 3, 1.15201
test, 2, wb, attraction, a-b-db, 9, 3, 4, 30, 195, 120, 114, 186, 120, 195, 1, 0.761131
test, 2, wb, catch, NA, 999, 999, 4, 31, 188, 127, 137, 118, 92, 103, 3, 1.13682
test, 2, wb, catch, NA, 999, 999, 4, 31, 188, 127, 137, 118, 92, 103, 1, 0.929499
test, 2, wb, filler, NA, 999, 999, 4, 32, 70, 110, 87, 60, 69, 114, 2, 1.25071
test, 2, wb, filler, NA, 999, 999, 4, 32, 70, 110, 87, 60, 69, 114, 3, 0.63341
test, 2, wb, attraction, a-b-db, 14, 2, 4, 33, 165, 90, 83, 153, 90, 165, 3, 0.956278
test, 2, wb, attraction, a-b-db, 14, 2, 4, 33, 165, 90, 83, 153, 90, 165, 2, 1.07741
test, 2, wb, attraction, a-b-db, 5, 2, 4, 34, 90, 165, 165, 90, 88, 161, 1, 2.37693
test, 2, wb, attraction, a-b-db, 5, 2, 4, 34, 90, 165, 165, 90, 88, 161, 2, 0.586459
test, 2, wb, attraction, a-b-da, 5, 1, 4, 35, 60, 135, 132, 58, 135, 60, 2, 1.44725
test, 2, wb, attraction, a-b-da, 5, 1, 4, 35, 60, 135, 132, 58, 135, 60, 3, 0.612083
test, 2, wb, attraction, a-b-db, 5, 1, 4, 36, 58, 132, 60, 135, 135, 60, 2, 1.06528
test, 2, wb, attraction, a-b-db, 5, 1, 4, 36, 58, 132, 60, 135, 135, 60, 3, 0.74344
test, 2, wb, filler, NA, 999, 999, 4, 37, 172, 71, 111, 102, 96, 66, 3, 1.20744
test, 2, wb, filler, NA, 999, 999, 4, 37, 172, 71, 111, 102, 96, 66, 2, 0.70192
test, 2, wb, attraction, a-b-db, 14, 1, 5, 1, 60, 135, 135, 60, 56, 125, 3, 2.54963
test, 2, wb, attraction, a-b-db, 14, 1, 5, 1, 60, 135, 135, 60, 56, 125, 2, 0.765594
test, 2, wb, attraction, a-b-db, 14, 2, 5, 2, 83, 153, 165, 90, 90, 165, 1, 1.37292
test, 2, wb, attraction, a-b-db, 14, 2, 5, 2, 83, 153, 165, 90, 90, 165, 3, 0.805056
test, 2, wb, attraction, a-b-da, 2, 3, 5, 3, 193, 119, 195, 120, 120, 195, 3, 1.45157
test, 2, wb, attraction, a-b-da, 2, 3, 5, 3, 193, 119, 195, 120, 120, 195, 2, 0.728258
test, 2, wb, filler, NA, 999, 999, 5, 4, 178, 95, 72, 109, 102, 144, 2, 1.05842
test, 2, wb, filler, NA, 999, 999, 5, 4, 178, 95, 72, 109, 102, 144, 3, 1.0679
test, 2, wb, attraction, a-b-db, 2, 2, 5, 5, 165, 90, 89, 163, 90, 165, 3, 1.74509
test, 2, wb, attraction, a-b-db, 2, 2, 5, 5, 165, 90, 89, 163, 90, 165, 1, 0.657795
test, 2, wb, attraction, a-b-db, 14, 3, 5, 6, 120, 195, 111, 181, 195, 120, 2, 1.04541
test, 2, wb, attraction, a-b-db, 14, 3, 5, 6, 120, 195, 111, 181, 195, 120, 1, 0.731277
test, 2, wb, attraction, a-b-da, 9, 1, 5, 7, 129, 57, 135, 60, 60, 135, 1, 2.05106
test, 2, wb, attraction, a-b-da, 9, 1, 5, 7, 129, 57, 135, 60, 60, 135, 2, 0.711664
test, 2, wb, catch, NA, 999, 999, 5, 8, 72, 123, 138, 117, 134, 181, 1, 1.07322
test, 2, wb, catch, NA, 999, 999, 5, 8, 72, 123, 138, 117, 134, 181, 3, 0.685173
test, 2, wb, attraction, a-b-da, 14, 2, 5, 9, 153, 83, 165, 90, 90, 165, 3, 1.0646
test, 2, wb, attraction, a-b-da, 14, 2, 5, 9, 153, 83, 165, 90, 90, 165, 2, 1.34608
test, 2, wb, attraction, a-b-db, 9, 2, 5, 10, 165, 90, 86, 157, 90, 165, 2, 1.93294
test, 2, wb, attraction, a-b-db, 9, 2, 5, 10, 165, 90, 86, 157, 90, 165, 3, 0.724728
test, 2, wb, attraction, a-b-da, 5, 3, 5, 11, 190, 117, 195, 120, 120, 195, 1, 1.2704
test, 2, wb, attraction, a-b-da, 5, 3, 5, 11, 190, 117, 195, 120, 120, 195, 2, 0.651321
test, 2, wb, filler, NA, 999, 999, 5, 12, 72, 191, 88, 100, 126, 78, 2, 2.35971
test, 2, wb, filler, NA, 999, 999, 5, 12, 72, 191, 88, 100, 126, 78, 3, 0.703491
test, 2, wb, filler, NA, 999, 999, 5, 13, 114, 116, 93, 110, 89, 176, 1, 1.47389
test, 2, wb, filler, NA, 999, 999, 5, 13, 114, 116, 93, 110, 89, 176, 3, 0.996316
test, 2, wb, attraction, a-b-db, 9, 1, 5, 14, 135, 60, 57, 129, 60, 135, 2, 0.9961
test, 2, wb, attraction, a-b-db, 9, 1, 5, 14, 135, 60, 57, 129, 60, 135, 1, 0.908066
test, 2, wb, filler, NA, 999, 999, 5, 15, 169, 76, 189, 194, 124, 88, 3, 2.21182
test, 2, wb, filler, NA, 999, 999, 5, 15, 169, 76, 189, 194, 124, 88, 2, 0.672764
test, 2, wb, attraction, a-b-db, 2, 3, 5, 16, 120, 195, 195, 120, 119, 193, 1, 1.92511
test, 2, wb, attraction, a-b-db, 2, 3, 5, 16, 120, 195, 195, 120, 119, 193, 2, 0.639576
test, 2, wb, filler, NA, 999, 999, 5, 17, 60, 63, 139, 192, 138, 77, 1, 1.18662
test, 2, wb, filler, NA, 999, 999, 5, 17, 60, 63, 139, 192, 138, 77, 2, 0.562093
test, 2, wb, attraction, a-b-db, 2, 1, 5, 18, 60, 135, 59, 134, 135, 60, 2, 1.49955
test, 2, wb, attraction, a-b-db, 2, 1, 5, 18, 60, 135, 59, 134, 135, 60, 3, 0.685049
test, 2, wb, attraction, a-b-da, 5, 2, 5, 19, 90, 165, 165, 90, 161, 88, 2, 3.07242
test, 2, wb, attraction, a-b-da, 5, 2, 5, 19, 90, 165, 165, 90, 161, 88, 3, 0.709563
test, 2, wb, attraction, a-b-da, 14, 1, 5, 20, 135, 60, 125, 56, 60, 135, 2, 1.88494
test, 2, wb, attraction, a-b-da, 14, 1, 5, 20, 135, 60, 125, 56, 60, 135, 1, 0.632428
test, 2, wb, attraction, a-b-da, 9, 2, 5, 21, 90, 165, 157, 86, 165, 90, 2, 1.85298
test, 2, wb, attraction, a-b-da, 9, 2, 5, 21, 90, 165, 157, 86, 165, 90, 3, 0.577913
test, 2, wb, filler, NA, 999, 999, 5, 22, 174, 139, 142, 169, 162, 96, 3, 1.77578
test, 2, wb, filler, NA, 999, 999, 5, 22, 174, 139, 142, 169, 162, 96, 2, 0.658498
test, 2, wb, filler, NA, 999, 999, 5, 23, 154, 110, 119, 102, 99, 142, 2, 1.13255
test, 2, wb, filler, NA, 999, 999, 5, 23, 154, 110, 119, 102, 99, 142, 1, 0.542869
test, 2, wb, catch, NA, 999, 999, 5, 24, 74, 121, 150, 165, 146, 109, 1, 1.27828
test, 2, wb, catch, NA, 999, 999, 5, 24, 74, 121, 150, 165, 146, 109, 2, 0.626728
test, 2, wb, attraction, a-b-da, 9, 3, 5, 25, 186, 114, 195, 120, 120, 195, 1, 2.19307
test, 2, wb, attraction, a-b-da, 9, 3, 5, 25, 186, 114, 195, 120, 120, 195, 2, 0.717736
test, 2, wb, attraction, a-b-da, 2, 1, 5, 26, 60, 135, 134, 59, 135, 60, 2, 1.54347
test, 2, wb, attraction, a-b-da, 2, 1, 5, 26, 60, 135, 134, 59, 135, 60, 3, 0.600493
test, 2, wb, catch, NA, 999, 999, 5, 27, 107, 148, 89, 106, 189, 126, 2, 1.07219
test, 2, wb, catch, NA, 999, 999, 5, 27, 107, 148, 89, 106, 189, 126, 3, 0.564089
test, 2, wb, attraction, a-b-db, 5, 1, 5, 28, 60, 135, 135, 60, 58, 132, 1, 1.64904
test, 2, wb, attraction, a-b-db, 5, 1, 5, 28, 60, 135, 135, 60, 58, 132, 3, 2.41554
test, 2, wb, attraction, a-b-db, 9, 3, 5, 29, 114, 186, 195, 120, 120, 195, 1, 1.85261
test, 2, wb, attraction, a-b-db, 9, 3, 5, 29, 114, 186, 195, 120, 120, 195, 3, 0.575366
test, 2, wb, attraction, a-b-da, 14, 3, 5, 30, 195, 120, 181, 111, 120, 195, 2, 1.42372
test, 2, wb, attraction, a-b-da, 14, 3, 5, 30, 195, 120, 181, 111, 120, 195, 3, 0.726135
test, 2, wb, attraction, a-b-da, 2, 2, 5, 31, 163, 89, 90, 165, 165, 90, 2, 1.41581
test, 2, wb, attraction, a-b-da, 2, 2, 5, 31, 163, 89, 90, 165, 165, 90, 3, 0.573256
test, 2, wb, filler, NA, 999, 999, 5, 32, 133, 146, 132, 182, 157, 189, 1, 1.3315
test, 2, wb, filler, NA, 999, 999, 5, 32, 133, 146, 132, 182, 157, 189, 3, 0.687117
test, 2, wb, attraction, a-b-db, 5, 3, 5, 33, 120, 195, 195, 120, 117, 190, 3, 2.16004
test, 2, wb, attraction, a-b-db, 5, 3, 5, 33, 120, 195, 195, 120, 117, 190, 2, 0.750477
test, 2, wb, filler, NA, 999, 999, 5, 34, 90, 91, 159, 58, 161, 176, 1, 1.86417
test, 2, wb, filler, NA, 999, 999, 5, 34, 90, 91, 159, 58, 161, 176, 3, 0.604764
test, 2, wb, attraction, a-b-da, 5, 1, 5, 35, 135, 60, 132, 58, 60, 135, 2, 1.67289
test, 2, wb, attraction, a-b-da, 5, 1, 5, 35, 135, 60, 132, 58, 60, 135, 3, 0.750288
test, 2, wb, attraction, a-b-db, 5, 2, 5, 36, 165, 90, 88, 161, 90, 165, 2, 3.46937
test, 2, wb, attraction, a-b-db, 5, 2, 5, 36, 165, 90, 88, 161, 90, 165, 1, 0.68154
test, 2, wb, filler, NA, 999, 999, 5, 37, 81, 152, 148, 135, 89, 86, 3, 1.89143
test, 2, wb, filler, NA, 999, 999, 5, 37, 81, 152, 148, 135, 89, 86, 2, 0.623287
test, 2, wb, attraction, a-b-da, 9, 1, 6, 1, 129, 57, 60, 135, 135, 60, 1, 1.98847
test, 2, wb, attraction, a-b-da, 9, 1, 6, 1, 129, 57, 60, 135, 135, 60, 3, 0.651825
test, 2, wb, catch, NA, 999, 999, 6, 2, 63, 132, 144, 171, 145, 110, 1, 1.15955
test, 2, wb, catch, NA, 999, 999, 6, 2, 63, 132, 144, 171, 145, 110, 2, 0.57487
test, 2, wb, filler, NA, 999, 999, 6, 3, 178, 185, 167, 115, 58, 73, 3, 1.09616
test, 2, wb, filler, NA, 999, 999, 6, 3, 178, 185, 167, 115, 58, 73, 1, 0.601515
test, 2, wb, catch, NA, 999, 999, 6, 4, 195, 120, 70, 125, 126, 129, 2, 1.11402
test, 2, wb, catch, NA, 999, 999, 6, 4, 195, 120, 70, 125, 126, 129, 1, 0.684419
test, 2, wb, attraction, a-b-da, 9, 2, 6, 5, 90, 165, 165, 90, 157, 86, 1, 1.06954
test, 2, wb, attraction, a-b-da, 9, 2, 6, 5, 90, 165, 165, 90, 157, 86, 3, 0.657745
test, 2, wb, attraction, a-b-da, 14, 1, 6, 6, 125, 56, 135, 60, 60, 135, 1, 1.73218
test, 2, wb, attraction, a-b-da, 14, 1, 6, 6, 125, 56, 135, 60, 60, 135, 3, 0.646768
test, 2, wb, filler, NA, 999, 999, 6, 7, 73, 86, 146, 105, 143, 83, 1, 1.36282
test, 2, wb, filler, NA, 999, 999, 6, 7, 73, 86, 146, 105, 143, 83, 2, 0.681024
test, 2, wb, attraction, a-b-da, 14, 2, 6, 8, 165, 90, 90, 165, 153, 83, 3, 2.32595
test, 2, wb, attraction, a-b-da, 14, 2, 6, 8, 165, 90, 90, 165, 153, 83, 2, 0.719864
test, 2, wb, attraction, a-b-db, 5, 2, 6, 9, 165, 90, 88, 161, 90, 165, 2, 1.77642
test, 2, wb, attraction, a-b-db, 5, 2, 6, 9, 165, 90, 88, 161, 90, 165, 3, 0.614733
test, 2, wb, attraction, a-b-da, 5, 1, 6, 10, 60, 135, 132, 58, 135, 60, 1, 1.68394
test, 2, wb, attraction, a-b-da, 5, 1, 6, 10, 60, 135, 132, 58, 135, 60, 3, 0.655649
test, 2, wb, attraction, a-b-da, 2, 3, 6, 11, 193, 119, 195, 120, 120, 195, 3, 1.65244
test, 2, wb, attraction, a-b-da, 2, 3, 6, 11, 193, 119, 195, 120, 120, 195, 2, 0.753059
test, 2, wb, attraction, a-b-da, 2, 2, 6, 12, 90, 165, 163, 89, 165, 90, 2, 1.23334
test, 2, wb, attraction, a-b-da, 2, 2, 6, 12, 90, 165, 163, 89, 165, 90, 3, 0.719478
test, 2, wb, attraction, a-b-db, 2, 2, 6, 13, 165, 90, 90, 165, 89, 163, 3, 1.71841
test, 2, wb, attraction, a-b-db, 2, 2, 6, 13, 165, 90, 90, 165, 89, 163, 1, 0.64933
test, 2, wb, filler, NA, 999, 999, 6, 14, 96, 125, 87, 121, 90, 111, 3, 1.26942
test, 2, wb, filler, NA, 999, 999, 6, 14, 96, 125, 87, 121, 90, 111, 1, 0.602057
test, 2, wb, attraction, a-b-db, 14, 2, 6, 15, 90, 165, 83, 153, 165, 90, 2, 1.55391
test, 2, wb, attraction, a-b-db, 14, 2, 6, 15, 90, 165, 83, 153, 165, 90, 1, 0.614784
test, 2, wb, attraction, a-b-db, 9, 2, 6, 16, 86, 157, 90, 165, 165, 90, 1, 1.46074
test, 2, wb, attraction, a-b-db, 9, 2, 6, 16, 86, 157, 90, 165, 165, 90, 2, 0.579663
test, 2, wb, filler, NA, 999, 999, 6, 17, 66, 158, 153, 152, 121, 102, 3, 1.75293
test, 2, wb, filler, NA, 999, 999, 6, 17, 66, 158, 153, 152, 121, 102, 2, 0.666294
test, 2, wb, filler, NA, 999, 999, 6, 18, 93, 109, 73, 177, 63, 114, 3, 1.12429
test, 2, wb, filler, NA, 999, 999, 6, 18, 93, 109, 73, 177, 63, 114, 2, 0.703006
test, 2, wb, attraction, a-b-da, 5, 2, 6, 19, 90, 165, 165, 90, 161, 88, 3, 2.22401
test, 2, wb, attraction, a-b-da, 5, 2, 6, 19, 90, 165, 165, 90, 161, 88, 1, 0.805685
test, 2, wb, filler, NA, 999, 999, 6, 20, 170, 130, 126, 99, 91, 97, 3, 1.33216
test, 2, wb, filler, NA, 999, 999, 6, 20, 170, 130, 126, 99, 91, 97, 1, 0.685163
test, 2, wb, attraction, a-b-da, 5, 3, 6, 21, 195, 120, 190, 117, 120, 195, 3, 1.16813
test, 2, wb, attraction, a-b-da, 5, 3, 6, 21, 195, 120, 190, 117, 120, 195, 1, 0.784845
test, 2, wb, attraction, a-b-db, 5, 1, 6, 22, 58, 132, 135, 60, 60, 135, 1, 1.89358
test, 2, wb, attraction, a-b-db, 5, 1, 6, 22, 58, 132, 135, 60, 60, 135, 3, 0.599959
test, 2, wb, attraction, a-b-da, 9, 3, 6, 23, 186, 114, 120, 195, 195, 120, 2, 1.64747
test, 2, wb, attraction, a-b-da, 9, 3, 6, 23, 186, 114, 120, 195, 195, 120, 3, 0.737949
test, 2, wb, attraction, a-b-db, 2, 1, 6, 24, 60, 135, 59, 134, 135, 60, 2, 1.16307
test, 2, wb, attraction, a-b-db, 2, 1, 6, 24, 60, 135, 59, 134, 135, 60, 3, 0.589049
test, 2, wb, filler, NA, 999, 999, 6, 25, 115, 138, 97, 186, 125, 59, 3, 1.25095
test, 2, wb, filler, NA, 999, 999, 6, 25, 115, 138, 97, 186, 125, 59, 2, 0.61637
test, 2, wb, attraction, a-b-db, 14, 1, 6, 26, 56, 125, 60, 135, 135, 60, 1, 1.36364
test, 2, wb, attraction, a-b-db, 14, 1, 6, 26, 56, 125, 60, 135, 135, 60, 2, 0.581596
test, 2, wb, attraction, a-b-db, 5, 3, 6, 27, 117, 190, 120, 195, 195, 120, 3, 1.56298
test, 2, wb, attraction, a-b-db, 5, 3, 6, 27, 117, 190, 120, 195, 195, 120, 2, 0.59042
test, 2, wb, attraction, a-b-db, 9, 3, 6, 28, 195, 120, 114, 186, 120, 195, 2, 1.40109
test, 2, wb, attraction, a-b-db, 9, 3, 6, 28, 195, 120, 114, 186, 120, 195, 3, 0.592866
test, 2, wb, attraction, a-b-db, 9, 1, 6, 29, 57, 129, 135, 60, 60, 135, 1, 1.11018
test, 2, wb, attraction, a-b-db, 9, 1, 6, 29, 57, 129, 135, 60, 60, 135, 3, 0.514715
test, 2, wb, attraction, a-b-da, 14, 3, 6, 30, 120, 195, 181, 111, 195, 120, 3, 1.1942
test, 2, wb, attraction, a-b-da, 14, 3, 6, 30, 120, 195, 181, 111, 195, 120, 2, 0.803076
test, 2, wb, attraction, a-b-db, 2, 3, 6, 31, 119, 193, 120, 195, 195, 120, 3, 1.12852
test, 2, wb, attraction, a-b-db, 2, 3, 6, 31, 119, 193, 120, 195, 195, 120, 2, 0.610095
test, 2, wb, attraction, a-b-da, 2, 1, 6, 32, 134, 59, 60, 135, 135, 60, 2, 3.9283
test, 2, wb, attraction, a-b-da, 2, 1, 6, 32, 134, 59, 60, 135, 135, 60, 3, 3.10472
test, 2, wb, catch, NA, 999, 999, 6, 33, 126, 189, 75, 120, 156, 99, 2, 1.40965
test, 2, wb, catch, NA, 999, 999, 6, 33, 126, 189, 75, 120, 156, 99, 1, 0.712244
test, 2, wb, filler, NA, 999, 999, 6, 34, 190, 66, 132, 68, 110, 162, 2, 1.75302
test, 2, wb, filler, NA, 999, 999, 6, 34, 190, 66, 132, 68, 110, 162, 3, 1.91667
test, 2, wb, attraction, a-b-db, 14, 3, 6, 35, 111, 181, 120, 195, 195, 120, 1, 1.91616
test, 2, wb, attraction, a-b-db, 14, 3, 6, 35, 111, 181, 120, 195, 195, 120, 2, 0.756776
test, 2, wb, filler, NA, 999, 999, 6, 36, 189, 120, 179, 77, 57, 143, 3, 1.22138
test, 2, wb, filler, NA, 999, 999, 6, 36, 189, 120, 179, 77, 57, 143, 1, 0.677264
test, 2, wb, filler, NA, 999, 999, 6, 37, 88, 122, 166, 58, 74, 128, 2, 1.67866
test, 2, wb, filler, NA, 999, 999, 6, 37, 88, 122, 166, 58, 74, 128, 1, 0.70443
test, 2, wb, attraction, a-b-da, 5, 1, 7, 1, 60, 135, 135, 60, 132, 58, 1, 1.55604
test, 2, wb, attraction, a-b-da, 5, 1, 7, 1, 60, 135, 135, 60, 132, 58, 2, 0.826893
test, 2, wb, attraction, a-b-da, 9, 2, 7, 2, 157, 86, 165, 90, 90, 165, 1, 1.17777
test, 2, wb, attraction, a-b-da, 9, 2, 7, 2, 157, 86, 165, 90, 90, 165, 2, 0.737142
test, 2, wb, attraction, a-b-db, 14, 3, 7, 3, 120, 195, 111, 181, 195, 120, 2, 1.41762
test, 2, wb, attraction, a-b-db, 14, 3, 7, 3, 120, 195, 111, 181, 195, 120, 1, 0.720023
test, 2, wb, attraction, a-b-da, 14, 1, 7, 4, 125, 56, 135, 60, 60, 135, 1, 1.33712
test, 2, wb, attraction, a-b-da, 14, 1, 7, 4, 125, 56, 135, 60, 60, 135, 3, 0.706646
test, 2, wb, filler, NA, 999, 999, 7, 5, 118, 176, 133, 116, 115, 175, 2, 0.988832
test, 2, wb, filler, NA, 999, 999, 7, 5, 118, 176, 133, 116, 115, 175, 3, 1.08295
test, 2, wb, attraction, a-b-db, 9, 3, 7, 6, 195, 120, 120, 195, 114, 186, 3, 1.23108
test, 2, wb, attraction, a-b-db, 9, 3, 7, 6, 195, 120, 120, 195, 114, 186, 2, 0.603799
test, 2, wb, catch, NA, 999, 999, 7, 7, 140, 115, 184, 131, 69, 126, 3, 1.19265
test, 2, wb, catch, NA, 999, 999, 7, 7, 140, 115, 184, 131, 69, 126, 2, 0.576449
test, 2, wb, attraction, a-b-da, 2, 3, 7, 8, 120, 195, 193, 119, 195, 120, 2, 1.03903
test, 2, wb, attraction, a-b-da, 2, 3, 7, 8, 120, 195, 193, 119, 195, 120, 3, 0.525855
test, 2, wb, attraction, a-b-db, 14, 2, 7, 9, 83, 153, 90, 165, 165, 90, 1, 1.32844
test, 2, wb, attraction, a-b-db, 14, 2, 7, 9, 83, 153, 90, 165, 165, 90, 2, 0.598722
test, 2, wb, catch, NA, 999, 999, 7, 10, 127, 68, 90, 165, 120, 195, 1, 1.09487
test, 2, wb, catch, NA, 999, 999, 7, 10, 127, 68, 90, 165, 120, 195, 3, 0.592486
test, 2, wb, attraction, a-b-da, 14, 3, 7, 11, 181, 111, 195, 120, 120, 195, 1, 1.24739
test, 2, wb, attraction, a-b-da, 14, 3, 7, 11, 181, 111, 195, 120, 120, 195, 3, 0.563114
test, 2, wb, attraction, a-b-db, 14, 1, 7, 12, 60, 135, 135, 60, 56, 125, 3, 2.83577
test, 2, wb, attraction, a-b-db, 14, 1, 7, 12, 60, 135, 135, 60, 56, 125, 2, 0.617329
test, 2, wb, attraction, a-b-da, 9, 1, 7, 13, 129, 57, 135, 60, 60, 135, 3, 1.22973
test, 2, wb, attraction, a-b-da, 9, 1, 7, 13, 129, 57, 135, 60, 60, 135, 2, 0.6665
test, 2, wb, filler, NA, 999, 999, 7, 14, 156, 61, 113, 177, 182, 150, 1, 1.29369
test, 2, wb, filler, NA, 999, 999, 7, 14, 156, 61, 113, 177, 182, 150, 3, 0.723073
test, 2, wb, filler, NA, 999, 999, 7, 15, 142, 67, 109, 140, 193, 181, 1, 1.21166
test, 2, wb, filler, NA, 999, 999, 7, 15, 142, 67, 109, 140, 193, 181, 3, 0.624557
test, 2, wb, catch, NA, 999, 999, 7, 16, 120, 195, 82, 113, 97, 158, 2, 1.07131
test, 2, wb, catch, NA, 999, 999, 7, 16, 120, 195, 82, 113, 97, 158, 1, 0.684161
test, 2, wb, attraction, a-b-da, 14, 2, 7, 17, 153, 83, 90, 165, 165, 90, 1, 1.29296
test, 2, wb, attraction, a-b-da, 14, 2, 7, 17, 153, 83, 90, 165, 165, 90, 3, 0.751716
test, 2, wb, filler, NA, 999, 999, 7, 18, 142, 88, 92, 137, 148, 180, 2, 1.2566
test, 2, wb, filler, NA, 999, 999, 7, 18, 142, 88, 92, 137, 148, 180, 3, 0.687377
test, 2, wb, attraction, a-b-da, 5, 2, 7, 19, 165, 90, 161, 88, 90, 165, 3, 1.21624
test, 2, wb, attraction, a-b-da, 5, 2, 7, 19, 165, 90, 161, 88, 90, 165, 2, 0.605568
test, 2, wb, attraction, a-b-db, 2, 1, 7, 20, 59, 134, 60, 135, 135, 60, 1, 1.27646
test, 2, wb, attraction, a-b-db, 2, 1, 7, 20, 59, 134, 60, 135, 135, 60, 2, 0.833495
test, 2, wb, attraction, a-b-db, 2, 2, 7, 21, 165, 90, 89, 163, 90, 165, 3, 2.87802
test, 2, wb, attraction, a-b-db, 2, 2, 7, 21, 165, 90, 89, 163, 90, 165, 2, 0.62972
test, 2, wb, attraction, a-b-db, 2, 3, 7, 22, 119, 193, 120, 195, 195, 120, 1, 1.29294
test, 2, wb, attraction, a-b-db, 2, 3, 7, 22, 119, 193, 120, 195, 195, 120, 2, 0.64962
test, 2, wb, attraction, a-b-db, 9, 1, 7, 23, 57, 129, 135, 60, 60, 135, 1, 1.44608
test, 2, wb, attraction, a-b-db, 9, 1, 7, 23, 57, 129, 135, 60, 60, 135, 3, 0.737984
test, 2, wb, filler, NA, 999, 999, 7, 24, 132, 89, 83, 119, 128, 62, 3, 2.87369
test, 2, wb, filler, NA, 999, 999, 7, 24, 132, 89, 83, 119, 128, 62, 1, 0.694165
test, 2, wb, attraction, a-b-db, 5, 2, 7, 25, 90, 165, 165, 90, 88, 161, 3, 1.91967
test, 2, wb, attraction, a-b-db, 5, 2, 7, 25, 90, 165, 165, 90, 88, 161, 2, 0.641936
test, 2, wb, attraction, a-b-db, 9, 2, 7, 26, 165, 90, 90, 165, 86, 157, 3, 2.06923
test, 2, wb, attraction, a-b-db, 9, 2, 7, 26, 165, 90, 90, 165, 86, 157, 1, 0.713399
test, 2, wb, filler, NA, 999, 999, 7, 27, 160, 139, 75, 158, 105, 126, 3, 1.45997
test, 2, wb, filler, NA, 999, 999, 7, 27, 160, 139, 75, 158, 105, 126, 1, 0.74646
test, 2, wb, attraction, a-b-db, 5, 3, 7, 28, 120, 195, 195, 120, 117, 190, 1, 1.69073
test, 2, wb, attraction, a-b-db, 5, 3, 7, 28, 120, 195, 195, 120, 117, 190, 2, 0.596103
test, 2, wb, filler, NA, 999, 999, 7, 29, 187, 98, 124, 106, 66, 94, 3, 1.11524
test, 2, wb, filler, NA, 999, 999, 7, 29, 187, 98, 124, 106, 66, 94, 1, 0.623338
test, 2, wb, filler, NA, 999, 999, 7, 30, 73, 142, 60, 86, 58, 114, 2, 1.1384
test, 2, wb, filler, NA, 999, 999, 7, 30, 73, 142, 60, 86, 58, 114, 1, 0.659694
test, 2, wb, attraction, a-b-db, 5, 1, 7, 31, 58, 132, 135, 60, 60, 135, 1, 2.24781
test, 2, wb, attraction, a-b-db, 5, 1, 7, 31, 58, 132, 135, 60, 60, 135, 2, 0.709223
test, 2, wb, filler, NA, 999, 999, 7, 32, 145, 110, 72, 164, 78, 139, 3, 1.12617
test, 2, wb, filler, NA, 999, 999, 7, 32, 145, 110, 72, 164, 78, 139, 1, 0.607524
test, 2, wb, filler, NA, 999, 999, 7, 33, 105, 130, 59, 191, 181, 62, 2, 1.68525
test, 2, wb, filler, NA, 999, 999, 7, 33, 105, 130, 59, 191, 181, 62, 1, 1.241
test, 2, wb, attraction, a-b-da, 9, 3, 7, 34, 186, 114, 120, 195, 195, 120, 2, 1.28587
test, 2, wb, attraction, a-b-da, 9, 3, 7, 34, 186, 114, 120, 195, 195, 120, 3, 0.561866
test, 2, wb, attraction, a-b-da, 5, 3, 7, 35, 190, 117, 195, 120, 120, 195, 3, 1.24053
test, 2, wb, attraction, a-b-da, 5, 3, 7, 35, 190, 117, 195, 120, 120, 195, 2, 0.574966
test, 2, wb, attraction, a-b-da, 2, 2, 7, 36, 165, 90, 163, 89, 90, 165, 3, 1.25397
test, 2, wb, attraction, a-b-da, 2, 2, 7, 36, 165, 90, 163, 89, 90, 165, 2, 0.626172
test, 2, wb, attraction, a-b-da, 2, 1, 7, 37, 135, 60, 134, 59, 60, 135, 3, 1.50376
test, 2, wb, attraction, a-b-da, 2, 1, 7, 37, 135, 60, 134, 59, 60, 135, 2, 1.67342
test, 2, wb, filler, NA, 999, 999, 8, 1, 132, 139, 175, 123, 143, 69, 3, 1.65261
test, 2, wb, filler, NA, 999, 999, 8, 1, 132, 139, 175, 123, 143, 69, 2, 0.538256
test, 2, wb, catch, NA, 999, 999, 8, 2, 102, 93, 90, 165, 121, 194, 1, 1.09318
test, 2, wb, catch, NA, 999, 999, 8, 2, 102, 93, 90, 165, 121, 194, 3, 0.623271
test, 2, wb, filler, NA, 999, 999, 8, 3, 174, 131, 106, 101, 117, 94, 3, 1.07698
test, 2, wb, filler, NA, 999, 999, 8, 3, 174, 131, 106, 101, 117, 94, 1, 0.632979
test, 2, wb, attraction, a-b-da, 2, 2, 8, 4, 163, 89, 90, 165, 165, 90, 2, 1.95528
test, 2, wb, attraction, a-b-da, 2, 2, 8, 4, 163, 89, 90, 165, 165, 90, 3, 1.21962
test, 2, wb, filler, NA, 999, 999, 8, 5, 189, 97, 74, 122, 67, 188, 1, 1.49847
test, 2, wb, filler, NA, 999, 999, 8, 5, 189, 97, 74, 122, 67, 188, 3, 0.739533
test, 2, wb, filler, NA, 999, 999, 8, 6, 65, 138, 64, 188, 95, 111, 1, 1.39752
test, 2, wb, filler, NA, 999, 999, 8, 6, 65, 138, 64, 188, 95, 111, 3, 0.611549
test, 2, wb, attraction, a-b-da, 9, 3, 8, 7, 195, 120, 120, 195, 186, 114, 2, 1.35385
test, 2, wb, attraction, a-b-da, 9, 3, 8, 7, 195, 120, 120, 195, 186, 114, 1, 0.833692
test, 2, wb, filler, NA, 999, 999, 8, 8, 87, 140, 164, 105, 90, 154, 1, 1.07951
test, 2, wb, filler, NA, 999, 999, 8, 8, 87, 140, 164, 105, 90, 154, 2, 0.537894
test, 2, wb, attraction, a-b-db, 2, 2, 8, 9, 89, 163, 165, 90, 90, 165, 3, 1.6663
test, 2, wb, attraction, a-b-db, 2, 2, 8, 9, 89, 163, 165, 90, 90, 165, 2, 1.67952
test, 2, wb, filler, NA, 999, 999, 8, 10, 102, 169, 146, 59, 75, 74, 3, 1.08262
test, 2, wb, filler, NA, 999, 999, 8, 10, 102, 169, 146, 59, 75, 74, 1, 0.684799
test, 2, wb, catch, NA, 999, 999, 8, 11, 141, 114, 93, 102, 136, 179, 2, 1.05731
test, 2, wb, catch, NA, 999, 999, 8, 11, 141, 114, 93, 102, 136, 179, 3, 0.652096
test, 2, wb, attraction, a-b-db, 2, 3, 8, 12, 120, 195, 195, 120, 119, 193, 1, 2.09454
test, 2, wb, attraction, a-b-db, 2, 3, 8, 12, 120, 195, 195, 120, 119, 193, 3, 1.01266
test, 2, wb, attraction, a-b-da, 9, 2, 8, 13, 165, 90, 90, 165, 157, 86, 2, 1.66488
test, 2, wb, attraction, a-b-da, 9, 2, 8, 13, 165, 90, 90, 165, 157, 86, 3, 0.710649
test, 2, wb, attraction, a-b-da, 14, 2, 8, 14, 153, 83, 165, 90, 90, 165, 1, 1.03821
test, 2, wb, attraction, a-b-da, 14, 2, 8, 14, 153, 83, 165, 90, 90, 165, 3, 0.683903
test, 2, wb, attraction, a-b-da, 5, 1, 8, 15, 60, 135, 135, 60, 132, 58, 1, 1.16544
test, 2, wb, attraction, a-b-da, 5, 1, 8, 15, 60, 135, 135, 60, 132, 58, 2, 0.704728
test, 2, wb, attraction, a-b-db, 9, 1, 8, 16, 57, 129, 135, 60, 60, 135, 2, 1.58465
test, 2, wb, attraction, a-b-db, 9, 1, 8, 16, 57, 129, 135, 60, 60, 135, 3, 0.678892
test, 2, wb, attraction, a-b-da, 9, 1, 8, 17, 135, 60, 129, 57, 60, 135, 3, 1.3152
test, 2, wb, attraction, a-b-da, 9, 1, 8, 17, 135, 60, 129, 57, 60, 135, 1, 0.621461
test, 2, wb, attraction, a-b-da, 2, 3, 8, 18, 195, 120, 193, 119, 120, 195, 3, 1.2026
test, 2, wb, attraction, a-b-da, 2, 3, 8, 18, 195, 120, 193, 119, 120, 195, 2, 0.672729
test, 2, wb, attraction, a-b-da, 5, 2, 8, 19, 90, 165, 165, 90, 161, 88, 1, 1.3404
test, 2, wb, attraction, a-b-da, 5, 2, 8, 19, 90, 165, 165, 90, 161, 88, 2, 0.574617
test, 2, wb, attraction, a-b-da, 5, 3, 8, 20, 190, 117, 195, 120, 120, 195, 3, 1.23736
test, 2, wb, attraction, a-b-da, 5, 3, 8, 20, 190, 117, 195, 120, 120, 195, 2, 0.64899
test, 2, wb, attraction, a-b-db, 9, 2, 8, 21, 165, 90, 86, 157, 90, 165, 3, 1.29439
test, 2, wb, attraction, a-b-db, 9, 2, 8, 21, 165, 90, 86, 157, 90, 165, 1, 0.70448
test, 2, wb, attraction, a-b-db, 14, 1, 8, 22, 60, 135, 135, 60, 56, 125, 2, 1.22009
test, 2, wb, attraction, a-b-db, 14, 1, 8, 22, 60, 135, 135, 60, 56, 125, 1, 3.39325
test, 2, wb, attraction, a-b-db, 5, 1, 8, 23, 60, 135, 135, 60, 58, 132, 3, 1.63099
test, 2, wb, attraction, a-b-db, 5, 1, 8, 23, 60, 135, 135, 60, 58, 132, 2, 0.724511
test, 2, wb, filler, NA, 999, 999, 8, 24, 79, 115, 125, 71, 125, 182, 1, 1.0863
test, 2, wb, filler, NA, 999, 999, 8, 24, 79, 115, 125, 71, 125, 182, 3, 0.704684
test, 2, wb, filler, NA, 999, 999, 8, 25, 172, 57, 146, 131, 184, 123, 1, 1.28144
test, 2, wb, filler, NA, 999, 999, 8, 25, 172, 57, 146, 131, 184, 123, 3, 0.630204
test, 2, wb, attraction, a-b-da, 2, 1, 8, 26, 60, 135, 135, 60, 134, 59, 1, 1.37917
test, 2, wb, attraction, a-b-da, 2, 1, 8, 26, 60, 135, 135, 60, 134, 59, 3, 0.86662
test, 2, wb, catch, NA, 999, 999, 8, 27, 109, 86, 146, 109, 124, 191, 1, 1.19052
test, 2, wb, catch, NA, 999, 999, 8, 27, 109, 86, 146, 109, 124, 191, 3, 0.687125
test, 2, wb, filler, NA, 999, 999, 8, 28, 131, 135, 139, 75, 139, 65, 2, 1.46466
test, 2, wb, filler, NA, 999, 999, 8, 28, 131, 135, 139, 75, 139, 65, 1, 0.692726
test, 2, wb, attraction, a-b-db, 14, 2, 8, 29, 165, 90, 83, 153, 90, 165, 1, 1.11879
test, 2, wb, attraction, a-b-db, 14, 2, 8, 29, 165, 90, 83, 153, 90, 165, 3, 0.69527
test, 2, wb, filler, NA, 999, 999, 8, 30, 186, 148, 150, 86, 169, 111, 3, 1.52319
test, 2, wb, filler, NA, 999, 999, 8, 30, 186, 148, 150, 86, 169, 111, 1, 0.764393
test, 2, wb, attraction, a-b-db, 5, 2, 8, 31, 88, 161, 165, 90, 90, 165, 1, 1.24576
test, 2, wb, attraction, a-b-db, 5, 2, 8, 31, 88, 161, 165, 90, 90, 165, 2, 0.60197
test, 2, wb, attraction, a-b-db, 9, 3, 8, 32, 195, 120, 114, 186, 120, 195, 2, 1.33329
test, 2, wb, attraction, a-b-db, 9, 3, 8, 32, 195, 120, 114, 186, 120, 195, 1, 0.687921
test, 2, wb, attraction, a-b-da, 14, 3, 8, 33, 195, 120, 120, 195, 181, 111, 1, 1.39627
test, 2, wb, attraction, a-b-da, 14, 3, 8, 33, 195, 120, 120, 195, 181, 111, 2, 0.610115
test, 2, wb, attraction, a-b-db, 5, 3, 8, 34, 195, 120, 120, 195, 117, 190, 2, 1.13638
test, 2, wb, attraction, a-b-db, 5, 3, 8, 34, 195, 120, 120, 195, 117, 190, 1, 0.578157
test, 2, wb, attraction, a-b-db, 2, 1, 8, 35, 59, 134, 60, 135, 135, 60, 1, 1.12743
test, 2, wb, attraction, a-b-db, 2, 1, 8, 35, 59, 134, 60, 135, 135, 60, 3, 0.699399
test, 2, wb, attraction, a-b-db, 14, 3, 8, 36, 111, 181, 120, 195, 195, 120, 1, 1.49095
test, 2, wb, attraction, a-b-db, 14, 3, 8, 36, 111, 181, 120, 195, 195, 120, 3, 0.662826
test, 2, wb, attraction, a-b-da, 14, 1, 8, 37, 125, 56, 60, 135, 135, 60, 1, 2.65162
test, 2, wb, attraction, a-b-da, 14, 1, 8, 37, 125, 56, 60, 135, 135, 60, 2, 0.760892
