sub_n, computer_n, bw_cond, effect, set, distance, diag, block_n, trial_n, h1, w1, h2, w2, h3, w3, choice, rt 
119, 6, bw, practice, NA, 999, 999, 0, 1, 83, 188, 119, 118, 148, 109, 1, 2.88261
119, 6, bw, practice, NA, 999, 999, 0, 1, 83, 188, 119, 118, 148, 109, 2, 3.17239
119, 6, bw, practice, NA, 999, 999, 0, 2, 102, 164, 157, 82, 58, 132, 1, 3.13532
119, 6, bw, practice, NA, 999, 999, 0, 2, 102, 164, 157, 82, 58, 132, 3, 1.7635
119, 6, bw, practice, NA, 999, 999, 0, 3, 104, 102, 123, 61, 157, 169, 3, 2.64655
119, 6, bw, practice, NA, 999, 999, 0, 3, 104, 102, 123, 61, 157, 169, 2, 1.65785
119, 6, bw, catch, NA, 999, 999, 1, 1, 85, 110, 191, 124, 143, 112, 2, 1.7677
119, 6, bw, catch, NA, 999, 999, 1, 1, 85, 110, 191, 124, 143, 112, 1, 1.07186
119, 6, bw, attraction, a-b-da, 5, 2, 1, 2, 90, 165, 161, 88, 165, 90, 1, 2.32274
119, 6, bw, attraction, a-b-da, 5, 2, 1, 2, 90, 165, 161, 88, 165, 90, 2, 0.893829
119, 6, bw, filler, NA, 999, 999, 1, 3, 134, 90, 155, 144, 143, 59, 2, 3.01361
119, 6, bw, filler, NA, 999, 999, 1, 3, 134, 90, 155, 144, 143, 59, 3, 1.26743
119, 6, bw, filler, NA, 999, 999, 1, 4, 99, 169, 87, 102, 195, 154, 3, 1.28621
119, 6, bw, filler, NA, 999, 999, 1, 4, 99, 169, 87, 102, 195, 154, 2, 0.641779
119, 6, bw, attraction, a-b-db, 2, 1, 1, 5, 60, 135, 59, 134, 135, 60, 2, 1.74152
119, 6, bw, attraction, a-b-db, 2, 1, 1, 5, 60, 135, 59, 134, 135, 60, 1, 1.70234
119, 6, bw, attraction, a-b-db, 14, 3, 1, 6, 195, 120, 111, 181, 120, 195, 1, 1.75169
119, 6, bw, attraction, a-b-db, 14, 3, 1, 6, 195, 120, 111, 181, 120, 195, 2, 1.08055
119, 6, bw, attraction, a-b-da, 9, 2, 1, 7, 157, 86, 165, 90, 90, 165, 3, 2.76268
119, 6, bw, attraction, a-b-da, 9, 2, 1, 7, 157, 86, 165, 90, 90, 165, 1, 1.04249
119, 6, bw, attraction, a-b-da, 9, 1, 1, 8, 60, 135, 135, 60, 129, 57, 1, 1.59805
119, 6, bw, attraction, a-b-da, 9, 1, 1, 8, 60, 135, 135, 60, 129, 57, 3, 0.652921
119, 6, bw, attraction, a-b-db, 5, 2, 1, 9, 165, 90, 88, 161, 90, 165, 2, 5.29673
119, 6, bw, attraction, a-b-db, 5, 2, 1, 9, 165, 90, 88, 161, 90, 165, 3, 1.53851
119, 6, bw, attraction, a-b-db, 9, 1, 1, 10, 60, 135, 57, 129, 135, 60, 1, 2.59453
119, 6, bw, attraction, a-b-db, 9, 1, 1, 10, 60, 135, 57, 129, 135, 60, 2, 1.80893
119, 6, bw, attraction, a-b-da, 14, 1, 1, 11, 125, 56, 60, 135, 135, 60, 3, 2.31773
119, 6, bw, attraction, a-b-da, 14, 1, 1, 11, 125, 56, 60, 135, 135, 60, 1, 0.895548
119, 6, bw, attraction, a-b-db, 9, 2, 1, 12, 90, 165, 86, 157, 165, 90, 3, 4.74527
119, 6, bw, attraction, a-b-db, 9, 2, 1, 12, 90, 165, 86, 157, 165, 90, 2, 0.52103
119, 6, bw, attraction, a-b-db, 9, 3, 1, 13, 195, 120, 114, 186, 120, 195, 1, 1.10615
119, 6, bw, attraction, a-b-db, 9, 3, 1, 13, 195, 120, 114, 186, 120, 195, 2, 1.0685
119, 6, bw, filler, NA, 999, 999, 1, 14, 181, 104, 106, 121, 66, 57, 1, 1.63141
119, 6, bw, filler, NA, 999, 999, 1, 14, 181, 104, 106, 121, 66, 57, 3, 0.972961
119, 6, bw, attraction, a-b-db, 5, 1, 1, 15, 60, 135, 58, 132, 135, 60, 3, 4.81129
119, 6, bw, attraction, a-b-db, 5, 1, 1, 15, 60, 135, 58, 132, 135, 60, 2, 1.23233
119, 6, bw, attraction, a-b-db, 2, 2, 1, 16, 165, 90, 90, 165, 89, 163, 2, 4.06848
119, 6, bw, attraction, a-b-db, 2, 2, 1, 16, 165, 90, 90, 165, 89, 163, 1, 1.34408
119, 6, bw, attraction, a-b-db, 14, 1, 1, 17, 60, 135, 135, 60, 56, 125, 1, 3.11948
119, 6, bw, attraction, a-b-db, 14, 1, 1, 17, 60, 135, 135, 60, 56, 125, 3, 0.64115
119, 6, bw, filler, NA, 999, 999, 1, 18, 92, 190, 182, 140, 113, 174, 2, 1.78089
119, 6, bw, filler, NA, 999, 999, 1, 18, 92, 190, 182, 140, 113, 174, 1, 0.588348
119, 6, bw, filler, NA, 999, 999, 1, 19, 105, 178, 158, 188, 79, 56, 2, 1.41075
119, 6, bw, filler, NA, 999, 999, 1, 19, 105, 178, 158, 188, 79, 56, 3, 1.33688
119, 6, bw, catch, NA, 999, 999, 1, 20, 113, 142, 131, 184, 65, 130, 1, 1.48116
119, 6, bw, catch, NA, 999, 999, 1, 20, 113, 142, 131, 184, 65, 130, 3, 2.10061
119, 6, bw, filler, NA, 999, 999, 1, 21, 69, 114, 175, 167, 160, 82, 2, 1.20598
119, 6, bw, filler, NA, 999, 999, 1, 21, 69, 114, 175, 167, 160, 82, 1, 0.91604
119, 6, bw, attraction, a-b-da, 14, 2, 1, 22, 165, 90, 153, 83, 90, 165, 1, 3.16517
119, 6, bw, attraction, a-b-da, 14, 2, 1, 22, 165, 90, 153, 83, 90, 165, 2, 0.468779
119, 6, bw, filler, NA, 999, 999, 1, 23, 184, 113, 68, 83, 111, 173, 3, 1.65589
119, 6, bw, filler, NA, 999, 999, 1, 23, 184, 113, 68, 83, 111, 173, 2, 0.676012
119, 6, bw, attraction, a-b-db, 2, 3, 1, 24, 195, 120, 120, 195, 119, 193, 2, 4.20644
119, 6, bw, attraction, a-b-db, 2, 3, 1, 24, 195, 120, 120, 195, 119, 193, 1, 0.899694
119, 6, bw, attraction, a-b-da, 5, 1, 1, 25, 135, 60, 132, 58, 60, 135, 2, 1.15732
119, 6, bw, attraction, a-b-da, 5, 1, 1, 25, 135, 60, 132, 58, 60, 135, 1, 0.477626
119, 6, bw, attraction, a-b-db, 5, 3, 1, 26, 117, 190, 120, 195, 195, 120, 1, 2.69608
119, 6, bw, attraction, a-b-db, 5, 3, 1, 26, 117, 190, 120, 195, 195, 120, 3, 1.1226
119, 6, bw, attraction, a-b-da, 2, 2, 1, 27, 90, 165, 165, 90, 163, 89, 1, 4.07553
119, 6, bw, attraction, a-b-da, 2, 2, 1, 27, 90, 165, 165, 90, 163, 89, 2, 0.742197
119, 6, bw, filler, NA, 999, 999, 1, 28, 88, 152, 185, 189, 138, 72, 2, 0.701893
119, 6, bw, filler, NA, 999, 999, 1, 28, 88, 152, 185, 189, 138, 72, 3, 0.600974
119, 6, bw, filler, NA, 999, 999, 1, 29, 142, 150, 185, 190, 109, 149, 2, 0.758874
119, 6, bw, filler, NA, 999, 999, 1, 29, 142, 150, 185, 190, 109, 149, 3, 0.719157
119, 6, bw, filler, NA, 999, 999, 1, 30, 188, 153, 185, 70, 106, 116, 1, 0.944181
119, 6, bw, filler, NA, 999, 999, 1, 30, 188, 153, 185, 70, 106, 116, 3, 0.99328
119, 6, bw, attraction, a-b-db, 14, 2, 1, 31, 165, 90, 83, 153, 90, 165, 3, 3.03081
119, 6, bw, attraction, a-b-db, 14, 2, 1, 31, 165, 90, 83, 153, 90, 165, 1, 1.1079
119, 6, bw, catch, NA, 999, 999, 1, 32, 122, 193, 109, 86, 99, 156, 1, 1.02884
119, 6, bw, catch, NA, 999, 999, 1, 32, 122, 193, 109, 86, 99, 156, 2, 0.690441
119, 6, bw, attraction, a-b-da, 2, 3, 1, 33, 195, 120, 193, 119, 120, 195, 2, 1.38813
119, 6, bw, attraction, a-b-da, 2, 3, 1, 33, 195, 120, 193, 119, 120, 195, 1, 0.554982
119, 6, bw, attraction, a-b-da, 9, 3, 1, 34, 186, 114, 195, 120, 120, 195, 3, 1.74689
119, 6, bw, attraction, a-b-da, 9, 3, 1, 34, 186, 114, 195, 120, 120, 195, 1, 0.531694
119, 6, bw, attraction, a-b-da, 5, 3, 1, 35, 120, 195, 195, 120, 190, 117, 1, 2.92403
119, 6, bw, attraction, a-b-da, 5, 3, 1, 35, 120, 195, 195, 120, 190, 117, 2, 1.28509
119, 6, bw, attraction, a-b-da, 14, 3, 1, 36, 195, 120, 181, 111, 120, 195, 3, 2.27925
119, 6, bw, attraction, a-b-da, 14, 3, 1, 36, 195, 120, 181, 111, 120, 195, 2, 0.490474
119, 6, bw, attraction, a-b-da, 2, 1, 1, 37, 134, 59, 60, 135, 135, 60, 2, 1.6203
119, 6, bw, attraction, a-b-da, 2, 1, 1, 37, 134, 59, 60, 135, 135, 60, 1, 0.514441
119, 6, bw, attraction, a-b-da, 14, 2, 2, 1, 90, 165, 165, 90, 153, 83, 1, 2.22752
119, 6, bw, attraction, a-b-da, 14, 2, 2, 1, 90, 165, 165, 90, 153, 83, 2, 1.34492
119, 6, bw, filler, NA, 999, 999, 2, 2, 195, 168, 168, 74, 145, 134, 1, 1.04831
119, 6, bw, filler, NA, 999, 999, 2, 2, 195, 168, 168, 74, 145, 134, 2, 0.597456
119, 6, bw, filler, NA, 999, 999, 2, 3, 119, 101, 73, 153, 167, 191, 3, 0.955201
119, 6, bw, filler, NA, 999, 999, 2, 3, 119, 101, 73, 153, 167, 191, 1, 0.547457
119, 6, bw, attraction, a-b-da, 14, 3, 2, 4, 195, 120, 181, 111, 120, 195, 1, 0.931303
119, 6, bw, attraction, a-b-da, 14, 3, 2, 4, 195, 120, 181, 111, 120, 195, 2, 0.620912
119, 6, bw, catch, NA, 999, 999, 2, 5, 92, 103, 106, 149, 136, 179, 3, 0.985968
119, 6, bw, catch, NA, 999, 999, 2, 5, 92, 103, 106, 149, 136, 179, 1, 0.529607
119, 6, bw, attraction, a-b-da, 2, 3, 2, 6, 120, 195, 195, 120, 193, 119, 1, 1.09817
119, 6, bw, attraction, a-b-da, 2, 3, 2, 6, 120, 195, 195, 120, 193, 119, 3, 0.468983
119, 6, bw, attraction, a-b-da, 9, 2, 2, 7, 157, 86, 165, 90, 90, 165, 2, 0.760233
119, 6, bw, attraction, a-b-da, 9, 2, 2, 7, 157, 86, 165, 90, 90, 165, 1, 0.368553
119, 6, bw, attraction, a-b-da, 5, 3, 2, 8, 120, 195, 195, 120, 190, 117, 2, 1.59171
119, 6, bw, attraction, a-b-da, 5, 3, 2, 8, 120, 195, 195, 120, 190, 117, 3, 0.742581
119, 6, bw, attraction, a-b-db, 2, 2, 2, 9, 89, 163, 165, 90, 90, 165, 3, 1.14224
119, 6, bw, attraction, a-b-db, 2, 2, 2, 9, 89, 163, 165, 90, 90, 165, 2, 0.551265
119, 6, bw, filler, NA, 999, 999, 2, 10, 133, 111, 167, 150, 141, 135, 2, 0.87896
119, 6, bw, filler, NA, 999, 999, 2, 10, 133, 111, 167, 150, 141, 135, 1, 0.450781
119, 6, bw, attraction, a-b-da, 14, 1, 2, 11, 135, 60, 125, 56, 60, 135, 3, 1.78246
119, 6, bw, attraction, a-b-da, 14, 1, 2, 11, 135, 60, 125, 56, 60, 135, 2, 0.597911
119, 6, bw, attraction, a-b-da, 2, 2, 2, 12, 163, 89, 90, 165, 165, 90, 3, 1.37971
119, 6, bw, attraction, a-b-da, 2, 2, 2, 12, 163, 89, 90, 165, 165, 90, 2, 0.50729
119, 6, bw, attraction, a-b-db, 9, 3, 2, 13, 114, 186, 195, 120, 120, 195, 3, 4.55636
119, 6, bw, attraction, a-b-db, 9, 3, 2, 13, 114, 186, 195, 120, 120, 195, 1, 0.699476
119, 6, bw, attraction, a-b-db, 14, 3, 2, 14, 120, 195, 111, 181, 195, 120, 2, 1.57334
119, 6, bw, attraction, a-b-db, 14, 3, 2, 14, 120, 195, 111, 181, 195, 120, 3, 0.588719
119, 6, bw, attraction, a-b-db, 9, 2, 2, 15, 90, 165, 86, 157, 165, 90, 1, 1.06711
119, 6, bw, attraction, a-b-db, 9, 2, 2, 15, 90, 165, 86, 157, 165, 90, 3, 0.703485
119, 6, bw, attraction, a-b-db, 9, 1, 2, 16, 57, 129, 135, 60, 60, 135, 3, 7.56118
119, 6, bw, attraction, a-b-db, 9, 1, 2, 16, 57, 129, 135, 60, 60, 135, 1, 3.85539
119, 6, bw, filler, NA, 999, 999, 2, 17, 138, 84, 153, 129, 127, 89, 2, 1.21823
119, 6, bw, filler, NA, 999, 999, 2, 17, 138, 84, 153, 129, 127, 89, 3, 0.784558
119, 6, bw, attraction, a-b-da, 5, 1, 2, 18, 132, 58, 135, 60, 60, 135, 2, 1.47882
119, 6, bw, attraction, a-b-da, 5, 1, 2, 18, 132, 58, 135, 60, 60, 135, 1, 0.546351
119, 6, bw, attraction, a-b-db, 5, 1, 2, 19, 135, 60, 60, 135, 58, 132, 1, 1.0901
119, 6, bw, attraction, a-b-db, 5, 1, 2, 19, 135, 60, 60, 135, 58, 132, 2, 0.557138
119, 6, bw, catch, NA, 999, 999, 2, 20, 113, 82, 119, 136, 163, 152, 3, 1.06812
119, 6, bw, catch, NA, 999, 999, 2, 20, 113, 82, 119, 136, 163, 152, 1, 0.480419
119, 6, bw, attraction, a-b-db, 14, 1, 2, 21, 135, 60, 60, 135, 56, 125, 1, 1.19508
119, 6, bw, attraction, a-b-db, 14, 1, 2, 21, 135, 60, 60, 135, 56, 125, 3, 3.38603
119, 6, bw, filler, NA, 999, 999, 2, 22, 79, 146, 156, 97, 182, 99, 2, 1.20748
119, 6, bw, filler, NA, 999, 999, 2, 22, 79, 146, 156, 97, 182, 99, 1, 0.989747
119, 6, bw, attraction, a-b-da, 9, 1, 2, 23, 135, 60, 60, 135, 129, 57, 1, 2.56339
119, 6, bw, attraction, a-b-da, 9, 1, 2, 23, 135, 60, 60, 135, 129, 57, 2, 2.65935
119, 6, bw, attraction, a-b-da, 2, 1, 2, 24, 135, 60, 134, 59, 60, 135, 3, 5.27757
119, 6, bw, attraction, a-b-da, 2, 1, 2, 24, 135, 60, 134, 59, 60, 135, 2, 0.839955
119, 6, bw, attraction, a-b-db, 14, 2, 2, 25, 83, 153, 90, 165, 165, 90, 2, 1.25161
119, 6, bw, attraction, a-b-db, 14, 2, 2, 25, 83, 153, 90, 165, 165, 90, 1, 0.816501
119, 6, bw, filler, NA, 999, 999, 2, 26, 118, 163, 97, 190, 124, 80, 1, 2.03774
119, 6, bw, filler, NA, 999, 999, 2, 26, 118, 163, 97, 190, 124, 80, 3, 0.890271
119, 6, bw, attraction, a-b-db, 2, 1, 2, 27, 59, 134, 60, 135, 135, 60, 2, 2.71592
119, 6, bw, attraction, a-b-db, 2, 1, 2, 27, 59, 134, 60, 135, 135, 60, 3, 0.845715
119, 6, bw, attraction, a-b-db, 5, 2, 2, 28, 90, 165, 88, 161, 165, 90, 2, 1.10539
119, 6, bw, attraction, a-b-db, 5, 2, 2, 28, 90, 165, 88, 161, 165, 90, 3, 0.715824
119, 6, bw, attraction, a-b-db, 2, 3, 2, 29, 195, 120, 120, 195, 119, 193, 3, 3.48483
119, 6, bw, attraction, a-b-db, 2, 3, 2, 29, 195, 120, 120, 195, 119, 193, 2, 0.42355
119, 6, bw, filler, NA, 999, 999, 2, 30, 63, 119, 62, 134, 119, 113, 3, 1.35615
119, 6, bw, filler, NA, 999, 999, 2, 30, 63, 119, 62, 134, 119, 113, 2, 0.61222
119, 6, bw, filler, NA, 999, 999, 2, 31, 164, 173, 192, 109, 144, 133, 1, 1.07342
119, 6, bw, filler, NA, 999, 999, 2, 31, 164, 173, 192, 109, 144, 133, 3, 3.76505
119, 6, bw, attraction, a-b-db, 5, 3, 2, 32, 117, 190, 120, 195, 195, 120, 3, 2.6031
119, 6, bw, attraction, a-b-db, 5, 3, 2, 32, 117, 190, 120, 195, 195, 120, 1, 1.9056
119, 6, bw, catch, NA, 999, 999, 2, 33, 124, 71, 121, 134, 148, 167, 3, 2.73893
119, 6, bw, catch, NA, 999, 999, 2, 33, 124, 71, 121, 134, 148, 167, 1, 0.707376
119, 6, bw, filler, NA, 999, 999, 2, 34, 184, 183, 93, 195, 137, 123, 1, 0.996427
119, 6, bw, filler, NA, 999, 999, 2, 34, 184, 183, 93, 195, 137, 123, 3, 1.45951
119, 6, bw, attraction, a-b-da, 5, 2, 2, 35, 90, 165, 165, 90, 161, 88, 1, 1.69425
119, 6, bw, attraction, a-b-da, 5, 2, 2, 35, 90, 165, 165, 90, 161, 88, 2, 0.44097
119, 6, bw, filler, NA, 999, 999, 2, 36, 179, 67, 68, 67, 162, 124, 3, 1.4289
119, 6, bw, filler, NA, 999, 999, 2, 36, 179, 67, 68, 67, 162, 124, 2, 0.722285
119, 6, bw, attraction, a-b-da, 9, 3, 2, 37, 120, 195, 186, 114, 195, 120, 1, 1.21136
119, 6, bw, attraction, a-b-da, 9, 3, 2, 37, 120, 195, 186, 114, 195, 120, 2, 0.729656
119, 6, bw, filler, NA, 999, 999, 3, 1, 195, 144, 68, 173, 82, 167, 1, 0.929973
119, 6, bw, filler, NA, 999, 999, 3, 1, 195, 144, 68, 173, 82, 167, 2, 0.851729
119, 6, bw, attraction, a-b-db, 5, 2, 3, 2, 88, 161, 90, 165, 165, 90, 1, 5.27141
119, 6, bw, attraction, a-b-db, 5, 2, 3, 2, 88, 161, 90, 165, 165, 90, 2, 0.457712
119, 6, bw, catch, NA, 999, 999, 3, 3, 123, 192, 142, 113, 91, 104, 1, 2.09285
119, 6, bw, catch, NA, 999, 999, 3, 3, 123, 192, 142, 113, 91, 104, 3, 0.55154
119, 6, bw, filler, NA, 999, 999, 3, 4, 108, 70, 138, 190, 183, 108, 2, 1.62338
119, 6, bw, filler, NA, 999, 999, 3, 4, 108, 70, 138, 190, 183, 108, 1, 1.12473
119, 6, bw, attraction, a-b-da, 9, 2, 3, 5, 90, 165, 157, 86, 165, 90, 1, 1.61294
119, 6, bw, attraction, a-b-da, 9, 2, 3, 5, 90, 165, 157, 86, 165, 90, 2, 0.467247
119, 6, bw, attraction, a-b-da, 2, 2, 3, 6, 90, 165, 163, 89, 165, 90, 1, 5.31026
119, 6, bw, attraction, a-b-da, 2, 2, 3, 6, 90, 165, 163, 89, 165, 90, 3, 1.74323
119, 6, bw, attraction, a-b-db, 5, 3, 3, 7, 120, 195, 195, 120, 117, 190, 1, 3.46271
119, 6, bw, attraction, a-b-db, 5, 3, 3, 7, 120, 195, 195, 120, 117, 190, 2, 3.31415
119, 6, bw, attraction, a-b-db, 14, 1, 3, 8, 60, 135, 56, 125, 135, 60, 1, 2.69843
119, 6, bw, attraction, a-b-db, 14, 1, 3, 8, 60, 135, 56, 125, 135, 60, 2, 0.508935
119, 6, bw, attraction, a-b-db, 9, 3, 3, 9, 120, 195, 114, 186, 195, 120, 1, 3.08594
119, 6, bw, attraction, a-b-db, 9, 3, 3, 9, 120, 195, 114, 186, 195, 120, 2, 0.513008
119, 6, bw, filler, NA, 999, 999, 3, 10, 162, 154, 65, 188, 136, 81, 1, 2.48216
119, 6, bw, filler, NA, 999, 999, 3, 10, 162, 154, 65, 188, 136, 81, 2, 1.4613
119, 6, bw, attraction, a-b-db, 9, 1, 3, 11, 57, 129, 135, 60, 60, 135, 3, 6.28816
119, 6, bw, attraction, a-b-db, 9, 1, 3, 11, 57, 129, 135, 60, 60, 135, 2, 0.842182
119, 6, bw, filler, NA, 999, 999, 3, 12, 125, 73, 86, 69, 122, 112, 3, 0.925791
119, 6, bw, filler, NA, 999, 999, 3, 12, 125, 73, 86, 69, 122, 112, 2, 0.51949
119, 6, bw, attraction, a-b-db, 2, 2, 3, 13, 165, 90, 90, 165, 89, 163, 3, 5.46465
119, 6, bw, attraction, a-b-db, 2, 2, 3, 13, 165, 90, 90, 165, 89, 163, 2, 0.579468
119, 6, bw, catch, NA, 999, 999, 3, 14, 135, 180, 149, 106, 80, 115, 1, 0.745904
119, 6, bw, catch, NA, 999, 999, 3, 14, 135, 180, 149, 106, 80, 115, 3, 0.490984
119, 6, bw, attraction, a-b-db, 2, 3, 3, 15, 120, 195, 195, 120, 119, 193, 2, 1.30078
119, 6, bw, attraction, a-b-db, 2, 3, 3, 15, 120, 195, 195, 120, 119, 193, 1, 3.68774
119, 6, bw, attraction, a-b-da, 9, 1, 3, 16, 60, 135, 129, 57, 135, 60, 3, 1.25727
119, 6, bw, attraction, a-b-da, 9, 1, 3, 16, 60, 135, 129, 57, 135, 60, 2, 0.437478
119, 6, bw, attraction, a-b-db, 14, 3, 3, 17, 120, 195, 111, 181, 195, 120, 1, 0.513871
119, 6, bw, attraction, a-b-db, 14, 3, 3, 17, 120, 195, 111, 181, 195, 120, 2, 0.628484
119, 6, bw, filler, NA, 999, 999, 3, 18, 167, 74, 194, 56, 112, 91, 2, 4.93687
119, 6, bw, filler, NA, 999, 999, 3, 18, 167, 74, 194, 56, 112, 91, 3, 0.561235
119, 6, bw, attraction, a-b-da, 14, 2, 3, 19, 90, 165, 153, 83, 165, 90, 2, 1.67228
119, 6, bw, attraction, a-b-da, 14, 2, 3, 19, 90, 165, 153, 83, 165, 90, 3, 0.57976
119, 6, bw, attraction, a-b-da, 14, 1, 3, 20, 125, 56, 60, 135, 135, 60, 3, 0.786234
119, 6, bw, attraction, a-b-da, 14, 1, 3, 20, 125, 56, 60, 135, 135, 60, 1, 0.625924
119, 6, bw, attraction, a-b-da, 5, 1, 3, 21, 132, 58, 135, 60, 60, 135, 1, 1.04628
119, 6, bw, attraction, a-b-da, 5, 1, 3, 21, 132, 58, 135, 60, 60, 135, 2, 0.467427
119, 6, bw, filler, NA, 999, 999, 3, 22, 104, 191, 145, 77, 189, 182, 3, 1.43848
119, 6, bw, filler, NA, 999, 999, 3, 22, 104, 191, 145, 77, 189, 182, 2, 0.475309
119, 6, bw, attraction, a-b-da, 5, 2, 3, 23, 161, 88, 165, 90, 90, 165, 2, 1.75797
119, 6, bw, attraction, a-b-da, 5, 2, 3, 23, 161, 88, 165, 90, 90, 165, 3, 0.541869
119, 6, bw, filler, NA, 999, 999, 3, 24, 160, 144, 90, 89, 107, 189, 1, 2.11765
119, 6, bw, filler, NA, 999, 999, 3, 24, 160, 144, 90, 89, 107, 189, 2, 0.799596
119, 6, bw, attraction, a-b-da, 2, 3, 3, 25, 120, 195, 193, 119, 195, 120, 3, 1.10926
119, 6, bw, attraction, a-b-da, 2, 3, 3, 25, 120, 195, 193, 119, 195, 120, 1, 0.783568
119, 6, bw, filler, NA, 999, 999, 3, 26, 129, 100, 126, 84, 188, 185, 3, 4.5019
119, 6, bw, filler, NA, 999, 999, 3, 26, 129, 100, 126, 84, 188, 185, 2, 0.551905
119, 6, bw, attraction, a-b-db, 14, 2, 3, 27, 165, 90, 90, 165, 83, 153, 2, 2.79964
119, 6, bw, attraction, a-b-db, 14, 2, 3, 27, 165, 90, 90, 165, 83, 153, 3, 0.454034
119, 6, bw, attraction, a-b-da, 14, 3, 3, 28, 181, 111, 195, 120, 120, 195, 2, 0.961962
119, 6, bw, attraction, a-b-da, 14, 3, 3, 28, 181, 111, 195, 120, 120, 195, 1, 0.362262
119, 6, bw, attraction, a-b-da, 9, 3, 3, 29, 186, 114, 195, 120, 120, 195, 1, 1.88149
119, 6, bw, attraction, a-b-da, 9, 3, 3, 29, 186, 114, 195, 120, 120, 195, 3, 0.508972
119, 6, bw, attraction, a-b-db, 2, 1, 3, 30, 135, 60, 60, 135, 59, 134, 2, 1.81394
119, 6, bw, attraction, a-b-db, 2, 1, 3, 30, 135, 60, 60, 135, 59, 134, 3, 0.715877
119, 6, bw, attraction, a-b-db, 5, 1, 3, 31, 58, 132, 135, 60, 60, 135, 3, 2.85299
119, 6, bw, attraction, a-b-db, 5, 1, 3, 31, 58, 132, 135, 60, 60, 135, 1, 1.00952
119, 6, bw, attraction, a-b-da, 2, 1, 3, 32, 135, 60, 60, 135, 134, 59, 2, 3.8705
119, 6, bw, attraction, a-b-da, 2, 1, 3, 32, 135, 60, 60, 135, 134, 59, 1, 0.8098
119, 6, bw, attraction, a-b-da, 5, 3, 3, 33, 120, 195, 190, 117, 195, 120, 1, 5.20687
119, 6, bw, attraction, a-b-da, 5, 3, 3, 33, 120, 195, 190, 117, 195, 120, 3, 0.916042
119, 6, bw, filler, NA, 999, 999, 3, 34, 121, 156, 126, 130, 178, 64, 1, 2.94085
119, 6, bw, filler, NA, 999, 999, 3, 34, 121, 156, 126, 130, 178, 64, 3, 1.02124
119, 6, bw, filler, NA, 999, 999, 3, 35, 158, 103, 169, 161, 97, 150, 2, 1.12213
119, 6, bw, filler, NA, 999, 999, 3, 35, 158, 103, 169, 161, 97, 150, 3, 1.68386
119, 6, bw, catch, NA, 999, 999, 3, 36, 142, 113, 127, 188, 76, 119, 2, 1.20601
119, 6, bw, catch, NA, 999, 999, 3, 36, 142, 113, 127, 188, 76, 119, 3, 0.69216
119, 6, bw, attraction, a-b-db, 9, 2, 3, 37, 90, 165, 165, 90, 86, 157, 1, 7.0299
119, 6, bw, attraction, a-b-db, 9, 2, 3, 37, 90, 165, 165, 90, 86, 157, 2, 1.61767
119, 6, bw, attraction, a-b-da, 9, 3, 4, 1, 120, 195, 186, 114, 195, 120, 1, 0.958455
119, 6, bw, attraction, a-b-da, 9, 3, 4, 1, 120, 195, 186, 114, 195, 120, 2, 0.526716
119, 6, bw, filler, NA, 999, 999, 4, 2, 136, 65, 153, 195, 128, 127, 2, 0.631118
119, 6, bw, filler, NA, 999, 999, 4, 2, 136, 65, 153, 195, 128, 127, 1, 0.460884
119, 6, bw, filler, NA, 999, 999, 4, 3, 91, 85, 167, 144, 103, 60, 2, 1.0561
119, 6, bw, filler, NA, 999, 999, 4, 3, 91, 85, 167, 144, 103, 60, 3, 0.420359
119, 6, bw, filler, NA, 999, 999, 4, 4, 127, 104, 104, 124, 77, 134, 1, 0.69748
119, 6, bw, filler, NA, 999, 999, 4, 4, 127, 104, 104, 124, 77, 134, 3, 0.532641
119, 6, bw, attraction, a-b-da, 5, 2, 4, 5, 161, 88, 165, 90, 90, 165, 3, 1.51695
119, 6, bw, attraction, a-b-da, 5, 2, 4, 5, 161, 88, 165, 90, 90, 165, 2, 0.423422
119, 6, bw, attraction, a-b-db, 14, 1, 4, 6, 135, 60, 60, 135, 56, 125, 2, 0.923714
119, 6, bw, attraction, a-b-db, 14, 1, 4, 6, 135, 60, 60, 135, 56, 125, 1, 0.525402
119, 6, bw, attraction, a-b-db, 5, 2, 4, 7, 88, 161, 90, 165, 165, 90, 1, 0.893764
119, 6, bw, attraction, a-b-db, 5, 2, 4, 7, 88, 161, 90, 165, 165, 90, 3, 0.752943
119, 6, bw, catch, NA, 999, 999, 4, 8, 137, 118, 127, 68, 162, 153, 3, 0.568491
119, 6, bw, catch, NA, 999, 999, 4, 8, 137, 118, 127, 68, 162, 153, 2, 0.520948
119, 6, bw, attraction, a-b-db, 2, 1, 4, 9, 135, 60, 59, 134, 60, 135, 2, 0.730143
119, 6, bw, attraction, a-b-db, 2, 1, 4, 9, 135, 60, 59, 134, 60, 135, 1, 0.435839
119, 6, bw, filler, NA, 999, 999, 4, 10, 139, 145, 126, 167, 80, 153, 2, 1.33637
119, 6, bw, filler, NA, 999, 999, 4, 10, 139, 145, 126, 167, 80, 153, 3, 0.457186
119, 6, bw, filler, NA, 999, 999, 4, 11, 187, 170, 194, 152, 131, 190, 1, 0.660351
119, 6, bw, filler, NA, 999, 999, 4, 11, 187, 170, 194, 152, 131, 190, 3, 1.25689
119, 6, bw, catch, NA, 999, 999, 4, 12, 159, 156, 128, 67, 128, 127, 1, 0.69163
119, 6, bw, catch, NA, 999, 999, 4, 12, 159, 156, 128, 67, 128, 127, 2, 0.710698
119, 6, bw, attraction, a-b-db, 14, 3, 4, 13, 120, 195, 111, 181, 195, 120, 3, 5.32794
119, 6, bw, attraction, a-b-db, 14, 3, 4, 13, 120, 195, 111, 181, 195, 120, 2, 0.648136
119, 6, bw, attraction, a-b-da, 9, 1, 4, 14, 129, 57, 135, 60, 60, 135, 2, 0.99582
119, 6, bw, attraction, a-b-da, 9, 1, 4, 14, 129, 57, 135, 60, 60, 135, 1, 0.410882
119, 6, bw, attraction, a-b-da, 2, 3, 4, 15, 120, 195, 195, 120, 193, 119, 2, 1.95999
119, 6, bw, attraction, a-b-da, 2, 3, 4, 15, 120, 195, 195, 120, 193, 119, 3, 1.79212
119, 6, bw, attraction, a-b-db, 5, 3, 4, 16, 120, 195, 195, 120, 117, 190, 3, 1.06139
119, 6, bw, attraction, a-b-db, 5, 3, 4, 16, 120, 195, 195, 120, 117, 190, 2, 0.617752
119, 6, bw, attraction, a-b-da, 2, 2, 4, 17, 165, 90, 90, 165, 163, 89, 2, 1.21482
119, 6, bw, attraction, a-b-da, 2, 2, 4, 17, 165, 90, 90, 165, 163, 89, 1, 0.573044
119, 6, bw, filler, NA, 999, 999, 4, 18, 131, 195, 159, 195, 151, 171, 3, 1.45952
119, 6, bw, filler, NA, 999, 999, 4, 18, 131, 195, 159, 195, 151, 171, 1, 0.687628
119, 6, bw, attraction, a-b-db, 5, 1, 4, 19, 60, 135, 58, 132, 135, 60, 2, 1.29007
119, 6, bw, attraction, a-b-db, 5, 1, 4, 19, 60, 135, 58, 132, 135, 60, 3, 1.42109
119, 6, bw, attraction, a-b-da, 14, 1, 4, 20, 60, 135, 135, 60, 125, 56, 1, 0.633868
119, 6, bw, attraction, a-b-da, 14, 1, 4, 20, 60, 135, 135, 60, 125, 56, 3, 0.703615
119, 6, bw, attraction, a-b-da, 2, 1, 4, 21, 134, 59, 60, 135, 135, 60, 3, 1.01747
119, 6, bw, attraction, a-b-da, 2, 1, 4, 21, 134, 59, 60, 135, 135, 60, 2, 0.575682
119, 6, bw, attraction, a-b-da, 5, 3, 4, 22, 190, 117, 120, 195, 195, 120, 2, 1.70208
119, 6, bw, attraction, a-b-da, 5, 3, 4, 22, 190, 117, 120, 195, 195, 120, 3, 3.54488
119, 6, bw, attraction, a-b-db, 9, 3, 4, 23, 114, 186, 120, 195, 195, 120, 1, 1.64763
119, 6, bw, attraction, a-b-db, 9, 3, 4, 23, 114, 186, 120, 195, 195, 120, 3, 0.844403
119, 6, bw, attraction, a-b-db, 2, 2, 4, 24, 90, 165, 89, 163, 165, 90, 2, 0.92031
119, 6, bw, attraction, a-b-db, 2, 2, 4, 24, 90, 165, 89, 163, 165, 90, 3, 0.682606
119, 6, bw, filler, NA, 999, 999, 4, 25, 185, 168, 118, 119, 154, 161, 1, 4.64489
119, 6, bw, filler, NA, 999, 999, 4, 25, 185, 168, 118, 119, 154, 161, 2, 0.792717
119, 6, bw, attraction, a-b-db, 14, 2, 4, 26, 83, 153, 90, 165, 165, 90, 2, 2.66248
119, 6, bw, attraction, a-b-db, 14, 2, 4, 26, 83, 153, 90, 165, 165, 90, 1, 0.450207
119, 6, bw, attraction, a-b-db, 9, 2, 4, 27, 90, 165, 165, 90, 86, 157, 1, 0.830094
119, 6, bw, attraction, a-b-db, 9, 2, 4, 27, 90, 165, 165, 90, 86, 157, 2, 0.499857
119, 6, bw, filler, NA, 999, 999, 4, 28, 137, 174, 171, 59, 152, 72, 1, 0.965689
119, 6, bw, filler, NA, 999, 999, 4, 28, 137, 174, 171, 59, 152, 72, 3, 1.43799
119, 6, bw, catch, NA, 999, 999, 4, 29, 139, 116, 174, 141, 119, 76, 2, 0.986048
119, 6, bw, catch, NA, 999, 999, 4, 29, 139, 116, 174, 141, 119, 76, 3, 0.657709
119, 6, bw, attraction, a-b-da, 5, 1, 4, 30, 135, 60, 60, 135, 132, 58, 2, 2.18092
119, 6, bw, attraction, a-b-da, 5, 1, 4, 30, 135, 60, 60, 135, 132, 58, 1, 0.48415
119, 6, bw, attraction, a-b-da, 9, 2, 4, 31, 90, 165, 165, 90, 157, 86, 1, 1.11048
119, 6, bw, attraction, a-b-da, 9, 2, 4, 31, 90, 165, 165, 90, 157, 86, 2, 0.440751
119, 6, bw, filler, NA, 999, 999, 4, 32, 144, 62, 102, 92, 120, 194, 3, 0.724636
119, 6, bw, filler, NA, 999, 999, 4, 32, 144, 62, 102, 92, 120, 194, 2, 0.438497
119, 6, bw, attraction, a-b-db, 2, 3, 4, 33, 119, 193, 195, 120, 120, 195, 2, 0.818851
119, 6, bw, attraction, a-b-db, 2, 3, 4, 33, 119, 193, 195, 120, 120, 195, 1, 0.553262
119, 6, bw, attraction, a-b-da, 14, 2, 4, 34, 165, 90, 90, 165, 153, 83, 2, 0.680919
119, 6, bw, attraction, a-b-da, 14, 2, 4, 34, 165, 90, 90, 165, 153, 83, 3, 0.732751
119, 6, bw, attraction, a-b-da, 14, 3, 4, 35, 181, 111, 195, 120, 120, 195, 3, 0.845084
119, 6, bw, attraction, a-b-da, 14, 3, 4, 35, 181, 111, 195, 120, 120, 195, 2, 0.826176
119, 6, bw, filler, NA, 999, 999, 4, 36, 87, 150, 169, 64, 163, 57, 1, 0.702488
119, 6, bw, filler, NA, 999, 999, 4, 36, 87, 150, 169, 64, 163, 57, 3, 0.433583
119, 6, bw, attraction, a-b-db, 9, 1, 4, 37, 60, 135, 57, 129, 135, 60, 2, 1.38218
119, 6, bw, attraction, a-b-db, 9, 1, 4, 37, 60, 135, 57, 129, 135, 60, 1, 0.413584
119, 6, bw, attraction, a-b-da, 5, 2, 5, 1, 90, 165, 165, 90, 161, 88, 1, 2.87354
119, 6, bw, attraction, a-b-da, 5, 2, 5, 1, 90, 165, 165, 90, 161, 88, 3, 0.612457
119, 6, bw, filler, NA, 999, 999, 5, 2, 75, 172, 131, 191, 173, 112, 2, 0.689567
119, 6, bw, filler, NA, 999, 999, 5, 2, 75, 172, 131, 191, 173, 112, 1, 0.4047
119, 6, bw, catch, NA, 999, 999, 5, 3, 94, 101, 147, 168, 134, 121, 2, 0.690401
119, 6, bw, catch, NA, 999, 999, 5, 3, 94, 101, 147, 168, 134, 121, 1, 0.893573
119, 6, bw, attraction, a-b-da, 9, 3, 5, 4, 195, 120, 186, 114, 120, 195, 1, 0.839271
119, 6, bw, attraction, a-b-da, 9, 3, 5, 4, 195, 120, 186, 114, 120, 195, 2, 0.364284
119, 6, bw, attraction, a-b-da, 2, 2, 5, 5, 90, 165, 163, 89, 165, 90, 2, 1.50744
119, 6, bw, attraction, a-b-da, 2, 2, 5, 5, 90, 165, 163, 89, 165, 90, 1, 0.421615
119, 6, bw, attraction, a-b-db, 2, 1, 5, 6, 135, 60, 59, 134, 60, 135, 2, 1.11473
119, 6, bw, attraction, a-b-db, 2, 1, 5, 6, 135, 60, 59, 134, 60, 135, 1, 0.685073
119, 6, bw, catch, NA, 999, 999, 5, 7, 109, 86, 125, 130, 172, 143, 3, 0.759406
119, 6, bw, catch, NA, 999, 999, 5, 7, 109, 86, 125, 130, 172, 143, 1, 0.543835
119, 6, bw, filler, NA, 999, 999, 5, 8, 147, 81, 150, 97, 70, 177, 2, 0.647578
119, 6, bw, filler, NA, 999, 999, 5, 8, 147, 81, 150, 97, 70, 177, 1, 0.468768
119, 6, bw, attraction, a-b-da, 9, 1, 5, 9, 135, 60, 60, 135, 129, 57, 1, 0.791877
119, 6, bw, attraction, a-b-da, 9, 1, 5, 9, 135, 60, 60, 135, 129, 57, 3, 0.702995
119, 6, bw, attraction, a-b-db, 14, 2, 5, 10, 165, 90, 90, 165, 83, 153, 2, 0.528652
119, 6, bw, attraction, a-b-db, 14, 2, 5, 10, 165, 90, 90, 165, 83, 153, 1, 0.55444
119, 6, bw, attraction, a-b-db, 9, 3, 5, 11, 195, 120, 114, 186, 120, 195, 1, 1.0822
119, 6, bw, attraction, a-b-db, 9, 3, 5, 11, 195, 120, 114, 186, 120, 195, 2, 0.813819
119, 6, bw, attraction, a-b-da, 14, 3, 5, 12, 195, 120, 120, 195, 181, 111, 2, 1.00286
119, 6, bw, attraction, a-b-da, 14, 3, 5, 12, 195, 120, 120, 195, 181, 111, 3, 0.417941
119, 6, bw, filler, NA, 999, 999, 5, 13, 111, 194, 97, 109, 141, 60, 1, 0.639036
119, 6, bw, filler, NA, 999, 999, 5, 13, 111, 194, 97, 109, 141, 60, 3, 0.564024
119, 6, bw, filler, NA, 999, 999, 5, 14, 153, 106, 80, 157, 79, 112, 1, 1.76317
119, 6, bw, filler, NA, 999, 999, 5, 14, 153, 106, 80, 157, 79, 112, 3, 0.883263
119, 6, bw, attraction, a-b-db, 9, 2, 5, 15, 90, 165, 86, 157, 165, 90, 2, 0.749665
119, 6, bw, attraction, a-b-db, 9, 2, 5, 15, 90, 165, 86, 157, 165, 90, 1, 0.358689
119, 6, bw, filler, NA, 999, 999, 5, 16, 185, 87, 162, 143, 175, 141, 3, 0.677943
119, 6, bw, filler, NA, 999, 999, 5, 16, 185, 87, 162, 143, 175, 141, 1, 0.481655
119, 6, bw, attraction, a-b-da, 2, 1, 5, 17, 135, 60, 134, 59, 60, 135, 2, 1.02009
119, 6, bw, attraction, a-b-da, 2, 1, 5, 17, 135, 60, 134, 59, 60, 135, 1, 0.385763
119, 6, bw, attraction, a-b-db, 5, 2, 5, 18, 88, 161, 90, 165, 165, 90, 1, 0.936275
119, 6, bw, attraction, a-b-db, 5, 2, 5, 18, 88, 161, 90, 165, 165, 90, 3, 0.449907
119, 6, bw, attraction, a-b-da, 14, 2, 5, 19, 153, 83, 165, 90, 90, 165, 2, 0.589672
119, 6, bw, attraction, a-b-da, 14, 2, 5, 19, 153, 83, 165, 90, 90, 165, 1, 0.428832
119, 6, bw, catch, NA, 999, 999, 5, 20, 107, 88, 174, 141, 136, 119, 2, 0.529355
119, 6, bw, catch, NA, 999, 999, 5, 20, 107, 88, 174, 141, 136, 119, 1, 0.507133
119, 6, bw, filler, NA, 999, 999, 5, 21, 193, 130, 145, 101, 121, 71, 1, 0.684229
119, 6, bw, filler, NA, 999, 999, 5, 21, 193, 130, 145, 101, 121, 71, 3, 0.431941
119, 6, bw, attraction, a-b-db, 2, 2, 5, 22, 165, 90, 90, 165, 89, 163, 2, 1.54047
119, 6, bw, attraction, a-b-db, 2, 2, 5, 22, 165, 90, 90, 165, 89, 163, 1, 0.349253
119, 6, bw, attraction, a-b-db, 14, 1, 5, 23, 135, 60, 56, 125, 60, 135, 2, 0.861139
119, 6, bw, attraction, a-b-db, 14, 1, 5, 23, 135, 60, 56, 125, 60, 135, 1, 0.441455
119, 6, bw, attraction, a-b-da, 5, 3, 5, 24, 190, 117, 120, 195, 195, 120, 2, 0.973271
119, 6, bw, attraction, a-b-da, 5, 3, 5, 24, 190, 117, 120, 195, 195, 120, 1, 0.468889
119, 6, bw, attraction, a-b-da, 14, 1, 5, 25, 60, 135, 135, 60, 125, 56, 2, 0.624139
119, 6, bw, attraction, a-b-da, 14, 1, 5, 25, 60, 135, 135, 60, 125, 56, 1, 0.397858
119, 6, bw, filler, NA, 999, 999, 5, 26, 192, 175, 102, 123, 192, 141, 1, 1.27588
119, 6, bw, filler, NA, 999, 999, 5, 26, 192, 175, 102, 123, 192, 141, 2, 0.335293
119, 6, bw, attraction, a-b-da, 5, 1, 5, 27, 132, 58, 60, 135, 135, 60, 2, 0.83984
119, 6, bw, attraction, a-b-da, 5, 1, 5, 27, 132, 58, 60, 135, 135, 60, 1, 0.380868
119, 6, bw, attraction, a-b-db, 5, 1, 5, 28, 58, 132, 60, 135, 135, 60, 2, 0.731348
119, 6, bw, attraction, a-b-db, 5, 1, 5, 28, 58, 132, 60, 135, 135, 60, 1, 0.365077
119, 6, bw, attraction, a-b-da, 2, 3, 5, 29, 193, 119, 120, 195, 195, 120, 3, 3.24414
119, 6, bw, attraction, a-b-da, 2, 3, 5, 29, 193, 119, 120, 195, 195, 120, 1, 0.624519
119, 6, bw, attraction, a-b-da, 9, 2, 5, 30, 165, 90, 157, 86, 90, 165, 1, 1.11682
119, 6, bw, attraction, a-b-da, 9, 2, 5, 30, 165, 90, 157, 86, 90, 165, 3, 0.39134
119, 6, bw, attraction, a-b-db, 2, 3, 5, 31, 119, 193, 195, 120, 120, 195, 3, 0.796984
119, 6, bw, attraction, a-b-db, 2, 3, 5, 31, 119, 193, 195, 120, 120, 195, 2, 0.412051
119, 6, bw, filler, NA, 999, 999, 5, 32, 144, 100, 162, 112, 161, 61, 2, 1.93722
119, 6, bw, filler, NA, 999, 999, 5, 32, 144, 100, 162, 112, 161, 61, 3, 1.11389
119, 6, bw, attraction, a-b-db, 14, 3, 5, 33, 120, 195, 195, 120, 111, 181, 2, 0.818772
119, 6, bw, attraction, a-b-db, 14, 3, 5, 33, 120, 195, 195, 120, 111, 181, 1, 0.377133
119, 6, bw, filler, NA, 999, 999, 5, 34, 72, 85, 176, 93, 150, 94, 2, 0.911691
119, 6, bw, filler, NA, 999, 999, 5, 34, 72, 85, 176, 93, 150, 94, 1, 0.833993
119, 6, bw, attraction, a-b-db, 5, 3, 5, 35, 117, 190, 120, 195, 195, 120, 3, 0.750398
119, 6, bw, attraction, a-b-db, 5, 3, 5, 35, 117, 190, 120, 195, 195, 120, 2, 0.399416
119, 6, bw, attraction, a-b-db, 9, 1, 5, 36, 57, 129, 60, 135, 135, 60, 2, 0.813224
119, 6, bw, attraction, a-b-db, 9, 1, 5, 36, 57, 129, 60, 135, 135, 60, 1, 0.507676
119, 6, bw, filler, NA, 999, 999, 5, 37, 99, 88, 127, 181, 96, 145, 2, 1.20487
119, 6, bw, filler, NA, 999, 999, 5, 37, 99, 88, 127, 181, 96, 145, 1, 0.723074
119, 6, bw, attraction, a-b-db, 5, 3, 6, 1, 117, 190, 120, 195, 195, 120, 1, 0.875537
119, 6, bw, attraction, a-b-db, 5, 3, 6, 1, 117, 190, 120, 195, 195, 120, 3, 0.455091
119, 6, bw, catch, NA, 999, 999, 6, 2, 134, 121, 111, 84, 138, 177, 3, 0.938938
119, 6, bw, catch, NA, 999, 999, 6, 2, 134, 121, 111, 84, 138, 177, 2, 0.491871
119, 6, bw, attraction, a-b-da, 2, 3, 6, 3, 193, 119, 195, 120, 120, 195, 3, 1.32567
119, 6, bw, attraction, a-b-da, 2, 3, 6, 3, 193, 119, 195, 120, 120, 195, 2, 0.447224
119, 6, bw, attraction, a-b-db, 5, 1, 6, 4, 60, 135, 58, 132, 135, 60, 1, 0.939056
119, 6, bw, attraction, a-b-db, 5, 1, 6, 4, 60, 135, 58, 132, 135, 60, 2, 0.436059
119, 6, bw, attraction, a-b-da, 5, 2, 6, 5, 161, 88, 90, 165, 165, 90, 2, 0.648585
119, 6, bw, attraction, a-b-da, 5, 2, 6, 5, 161, 88, 90, 165, 165, 90, 3, 0.629638
119, 6, bw, attraction, a-b-da, 5, 1, 6, 6, 132, 58, 60, 135, 135, 60, 3, 0.706181
119, 6, bw, attraction, a-b-da, 5, 1, 6, 6, 132, 58, 60, 135, 135, 60, 2, 0.452393
119, 6, bw, attraction, a-b-da, 2, 2, 6, 7, 163, 89, 90, 165, 165, 90, 2, 0.720268
119, 6, bw, attraction, a-b-da, 2, 2, 6, 7, 163, 89, 90, 165, 165, 90, 1, 0.706754
119, 6, bw, attraction, a-b-db, 2, 2, 6, 8, 165, 90, 89, 163, 90, 165, 2, 0.555761
119, 6, bw, attraction, a-b-db, 2, 2, 6, 8, 165, 90, 89, 163, 90, 165, 1, 0.364143
119, 6, bw, catch, NA, 999, 999, 6, 9, 80, 115, 143, 112, 194, 121, 3, 1.32357
119, 6, bw, catch, NA, 999, 999, 6, 9, 80, 115, 143, 112, 194, 121, 1, 0.41293
119, 6, bw, attraction, a-b-da, 9, 2, 6, 10, 90, 165, 157, 86, 165, 90, 1, 0.714063
119, 6, bw, attraction, a-b-da, 9, 2, 6, 10, 90, 165, 157, 86, 165, 90, 3, 0.532517
119, 6, bw, filler, NA, 999, 999, 6, 11, 138, 185, 151, 183, 120, 137, 2, 0.964913
119, 6, bw, filler, NA, 999, 999, 6, 11, 138, 185, 151, 183, 120, 137, 3, 0.461398
119, 6, bw, attraction, a-b-da, 14, 2, 6, 12, 153, 83, 165, 90, 90, 165, 1, 2.42439
119, 6, bw, attraction, a-b-da, 14, 2, 6, 12, 153, 83, 165, 90, 90, 165, 2, 0.533629
119, 6, bw, attraction, a-b-db, 14, 1, 6, 13, 135, 60, 56, 125, 60, 135, 1, 1.52606
119, 6, bw, attraction, a-b-db, 14, 1, 6, 13, 135, 60, 56, 125, 60, 135, 2, 0.38361
119, 6, bw, filler, NA, 999, 999, 6, 14, 124, 137, 115, 185, 82, 116, 2, 0.478044
119, 6, bw, filler, NA, 999, 999, 6, 14, 124, 137, 115, 185, 82, 116, 3, 0.641865
119, 6, bw, attraction, a-b-db, 2, 3, 6, 15, 120, 195, 195, 120, 119, 193, 2, 0.709555
119, 6, bw, attraction, a-b-db, 2, 3, 6, 15, 120, 195, 195, 120, 119, 193, 1, 1.06398
119, 6, bw, attraction, a-b-db, 9, 1, 6, 16, 60, 135, 135, 60, 57, 129, 1, 0.578923
119, 6, bw, attraction, a-b-db, 9, 1, 6, 16, 60, 135, 135, 60, 57, 129, 2, 0.530807
119, 6, bw, attraction, a-b-da, 14, 3, 6, 17, 195, 120, 120, 195, 181, 111, 1, 0.587279
119, 6, bw, attraction, a-b-da, 14, 3, 6, 17, 195, 120, 120, 195, 181, 111, 2, 0.442309
119, 6, bw, attraction, a-b-db, 9, 2, 6, 18, 165, 90, 86, 157, 90, 165, 1, 0.806118
119, 6, bw, attraction, a-b-db, 9, 2, 6, 18, 165, 90, 86, 157, 90, 165, 2, 0.508527
119, 6, bw, attraction, a-b-db, 2, 1, 6, 19, 60, 135, 59, 134, 135, 60, 1, 0.701622
119, 6, bw, attraction, a-b-db, 2, 1, 6, 19, 60, 135, 59, 134, 135, 60, 3, 0.776664
119, 6, bw, attraction, a-b-db, 14, 2, 6, 20, 90, 165, 165, 90, 83, 153, 1, 0.64714
119, 6, bw, attraction, a-b-db, 14, 2, 6, 20, 90, 165, 165, 90, 83, 153, 2, 0.492372
119, 6, bw, attraction, a-b-da, 5, 3, 6, 21, 190, 117, 120, 195, 195, 120, 2, 0.886014
119, 6, bw, attraction, a-b-da, 5, 3, 6, 21, 190, 117, 120, 195, 195, 120, 3, 0.561753
119, 6, bw, filler, NA, 999, 999, 6, 22, 111, 142, 161, 74, 157, 78, 1, 0.808733
119, 6, bw, filler, NA, 999, 999, 6, 22, 111, 142, 161, 74, 157, 78, 2, 0.687161
119, 6, bw, attraction, a-b-da, 14, 1, 6, 23, 60, 135, 135, 60, 125, 56, 1, 0.849504
119, 6, bw, attraction, a-b-da, 14, 1, 6, 23, 60, 135, 135, 60, 125, 56, 3, 0.606585
119, 6, bw, filler, NA, 999, 999, 6, 24, 177, 85, 190, 167, 154, 134, 2, 0.579667
119, 6, bw, filler, NA, 999, 999, 6, 24, 177, 85, 190, 167, 154, 134, 1, 0.491395
119, 6, bw, attraction, a-b-db, 9, 3, 6, 25, 120, 195, 195, 120, 114, 186, 2, 0.565185
119, 6, bw, attraction, a-b-db, 9, 3, 6, 25, 120, 195, 195, 120, 114, 186, 3, 0.357726
119, 6, bw, attraction, a-b-da, 9, 1, 6, 26, 129, 57, 135, 60, 60, 135, 2, 0.628883
119, 6, bw, attraction, a-b-da, 9, 1, 6, 26, 129, 57, 135, 60, 60, 135, 1, 0.330685
119, 6, bw, attraction, a-b-db, 5, 2, 6, 27, 90, 165, 165, 90, 88, 161, 1, 0.539186
119, 6, bw, attraction, a-b-db, 5, 2, 6, 27, 90, 165, 165, 90, 88, 161, 2, 0.348296
119, 6, bw, catch, NA, 999, 999, 6, 28, 123, 72, 165, 90, 186, 129, 3, 1.00411
119, 6, bw, catch, NA, 999, 999, 6, 28, 123, 72, 165, 90, 186, 129, 1, 0.514505
119, 6, bw, attraction, a-b-db, 14, 3, 6, 29, 111, 181, 120, 195, 195, 120, 2, 0.507582
119, 6, bw, attraction, a-b-db, 14, 3, 6, 29, 111, 181, 120, 195, 195, 120, 3, 0.462054
119, 6, bw, attraction, a-b-da, 2, 1, 6, 30, 135, 60, 60, 135, 134, 59, 2, 0.553192
119, 6, bw, attraction, a-b-da, 2, 1, 6, 30, 135, 60, 60, 135, 134, 59, 1, 0.825614
119, 6, bw, filler, NA, 999, 999, 6, 31, 70, 124, 169, 82, 78, 183, 2, 1.01396
119, 6, bw, filler, NA, 999, 999, 6, 31, 70, 124, 169, 82, 78, 183, 1, 0.828367
119, 6, bw, filler, NA, 999, 999, 6, 32, 75, 97, 86, 168, 66, 62, 2, 0.496702
119, 6, bw, filler, NA, 999, 999, 6, 32, 75, 97, 86, 168, 66, 62, 3, 0.387842
119, 6, bw, attraction, a-b-da, 9, 3, 6, 33, 195, 120, 186, 114, 120, 195, 1, 1.01834
119, 6, bw, attraction, a-b-da, 9, 3, 6, 33, 195, 120, 186, 114, 120, 195, 2, 0.4167
119, 6, bw, filler, NA, 999, 999, 6, 34, 164, 173, 116, 118, 141, 97, 1, 0.621737
119, 6, bw, filler, NA, 999, 999, 6, 34, 164, 173, 116, 118, 141, 97, 2, 0.371501
119, 6, bw, filler, NA, 999, 999, 6, 35, 107, 98, 127, 67, 110, 125, 3, 0.754701
119, 6, bw, filler, NA, 999, 999, 6, 35, 107, 98, 127, 67, 110, 125, 2, 0.475213
119, 6, bw, filler, NA, 999, 999, 6, 36, 125, 97, 77, 81, 96, 176, 1, 0.573529
119, 6, bw, filler, NA, 999, 999, 6, 36, 125, 97, 77, 81, 96, 176, 2, 0.957392
119, 6, bw, filler, NA, 999, 999, 6, 37, 174, 86, 151, 58, 164, 62, 1, 0.796398
119, 6, bw, filler, NA, 999, 999, 6, 37, 174, 86, 151, 58, 164, 62, 2, 0.515372
119, 6, bw, attraction, a-b-da, 14, 3, 7, 1, 120, 195, 195, 120, 181, 111, 2, 0.892426
119, 6, bw, attraction, a-b-da, 14, 3, 7, 1, 120, 195, 195, 120, 181, 111, 1, 0.687515
119, 6, bw, attraction, a-b-db, 14, 3, 7, 2, 111, 181, 120, 195, 195, 120, 3, 0.761902
119, 6, bw, attraction, a-b-db, 14, 3, 7, 2, 111, 181, 120, 195, 195, 120, 1, 0.498273
119, 6, bw, filler, NA, 999, 999, 7, 3, 141, 79, 97, 178, 106, 112, 2, 1.84409
119, 6, bw, filler, NA, 999, 999, 7, 3, 141, 79, 97, 178, 106, 112, 3, 0.448902
119, 6, bw, attraction, a-b-da, 9, 3, 7, 4, 195, 120, 120, 195, 186, 114, 1, 0.940665
119, 6, bw, attraction, a-b-da, 9, 3, 7, 4, 195, 120, 120, 195, 186, 114, 2, 0.325597
119, 6, bw, attraction, a-b-da, 9, 1, 7, 5, 135, 60, 129, 57, 60, 135, 1, 0.942117
119, 6, bw, attraction, a-b-da, 9, 1, 7, 5, 135, 60, 129, 57, 60, 135, 2, 0.663173
119, 6, bw, attraction, a-b-da, 5, 3, 7, 6, 120, 195, 190, 117, 195, 120, 2, 0.78618
119, 6, bw, attraction, a-b-da, 5, 3, 7, 6, 120, 195, 190, 117, 195, 120, 3, 0.769927
119, 6, bw, filler, NA, 999, 999, 7, 7, 76, 125, 63, 194, 86, 194, 3, 1.633
119, 6, bw, filler, NA, 999, 999, 7, 7, 76, 125, 63, 194, 86, 194, 1, 0.646452
119, 6, bw, filler, NA, 999, 999, 7, 8, 123, 77, 109, 141, 174, 110, 3, 2.88226
119, 6, bw, filler, NA, 999, 999, 7, 8, 123, 77, 109, 141, 174, 110, 1, 0.733284
119, 6, bw, filler, NA, 999, 999, 7, 9, 97, 105, 140, 190, 139, 176, 2, 1.25364
119, 6, bw, filler, NA, 999, 999, 7, 9, 97, 105, 140, 190, 139, 176, 1, 0.578565
119, 6, bw, attraction, a-b-db, 9, 3, 7, 10, 114, 186, 195, 120, 120, 195, 1, 1.201
119, 6, bw, attraction, a-b-db, 9, 3, 7, 10, 114, 186, 195, 120, 120, 195, 2, 0.391954
119, 6, bw, attraction, a-b-db, 9, 2, 7, 11, 165, 90, 86, 157, 90, 165, 2, 0.917848
119, 6, bw, attraction, a-b-db, 9, 2, 7, 11, 165, 90, 86, 157, 90, 165, 1, 0.304136
119, 6, bw, attraction, a-b-db, 9, 1, 7, 12, 57, 129, 135, 60, 60, 135, 3, 0.593927
119, 6, bw, attraction, a-b-db, 9, 1, 7, 12, 57, 129, 135, 60, 60, 135, 2, 0.425005
119, 6, bw, attraction, a-b-db, 14, 2, 7, 13, 90, 165, 83, 153, 165, 90, 1, 0.725616
119, 6, bw, attraction, a-b-db, 14, 2, 7, 13, 90, 165, 83, 153, 165, 90, 2, 0.439306
119, 6, bw, filler, NA, 999, 999, 7, 14, 70, 143, 161, 56, 185, 116, 3, 1.57913
119, 6, bw, filler, NA, 999, 999, 7, 14, 70, 143, 161, 56, 185, 116, 2, 0.76256
119, 6, bw, attraction, a-b-db, 2, 2, 7, 15, 89, 163, 90, 165, 165, 90, 1, 1.0176
119, 6, bw, attraction, a-b-db, 2, 2, 7, 15, 89, 163, 90, 165, 165, 90, 2, 0.479965
119, 6, bw, attraction, a-b-db, 2, 1, 7, 16, 60, 135, 59, 134, 135, 60, 3, 1.7704
119, 6, bw, attraction, a-b-db, 2, 1, 7, 16, 60, 135, 59, 134, 135, 60, 2, 0.50593
119, 6, bw, filler, NA, 999, 999, 7, 17, 128, 136, 66, 137, 57, 142, 1, 0.850848
119, 6, bw, filler, NA, 999, 999, 7, 17, 128, 136, 66, 137, 57, 142, 2, 0.471952
119, 6, bw, attraction, a-b-da, 14, 1, 7, 18, 125, 56, 135, 60, 60, 135, 2, 0.771198
119, 6, bw, attraction, a-b-da, 14, 1, 7, 18, 125, 56, 135, 60, 60, 135, 1, 0.379163
119, 6, bw, attraction, a-b-da, 5, 1, 7, 19, 132, 58, 60, 135, 135, 60, 1, 0.7213
119, 6, bw, attraction, a-b-da, 5, 1, 7, 19, 132, 58, 60, 135, 135, 60, 2, 0.411062
119, 6, bw, catch, NA, 999, 999, 7, 20, 125, 70, 133, 122, 164, 151, 3, 0.784269
119, 6, bw, catch, NA, 999, 999, 7, 20, 125, 70, 133, 122, 164, 151, 1, 0.455956
119, 6, bw, catch, NA, 999, 999, 7, 21, 114, 141, 112, 83, 145, 170, 3, 0.923226
119, 6, bw, catch, NA, 999, 999, 7, 21, 114, 141, 112, 83, 145, 170, 2, 0.428716
119, 6, bw, attraction, a-b-da, 2, 1, 7, 22, 134, 59, 135, 60, 60, 135, 2, 1.42529
119, 6, bw, attraction, a-b-da, 2, 1, 7, 22, 134, 59, 135, 60, 60, 135, 1, 0.390694
119, 6, bw, filler, NA, 999, 999, 7, 23, 115, 153, 164, 114, 85, 64, 2, 1.16449
119, 6, bw, filler, NA, 999, 999, 7, 23, 115, 153, 164, 114, 85, 64, 3, 0.908987
119, 6, bw, filler, NA, 999, 999, 7, 24, 141, 83, 162, 165, 118, 132, 2, 0.653747
119, 6, bw, filler, NA, 999, 999, 7, 24, 141, 83, 162, 165, 118, 132, 1, 0.514928
119, 6, bw, attraction, a-b-da, 5, 2, 7, 25, 90, 165, 165, 90, 161, 88, 2, 0.828008
119, 6, bw, attraction, a-b-da, 5, 2, 7, 25, 90, 165, 165, 90, 161, 88, 3, 0.537758
119, 6, bw, attraction, a-b-db, 5, 2, 7, 26, 90, 165, 165, 90, 88, 161, 3, 0.618187
119, 6, bw, attraction, a-b-db, 5, 2, 7, 26, 90, 165, 165, 90, 88, 161, 1, 0.416754
119, 6, bw, attraction, a-b-da, 14, 2, 7, 27, 153, 83, 165, 90, 90, 165, 1, 0.655282
119, 6, bw, attraction, a-b-da, 14, 2, 7, 27, 153, 83, 165, 90, 90, 165, 2, 0.434299
119, 6, bw, attraction, a-b-da, 2, 2, 7, 28, 90, 165, 165, 90, 163, 89, 2, 0.534771
119, 6, bw, attraction, a-b-da, 2, 2, 7, 28, 90, 165, 165, 90, 163, 89, 1, 0.288484
119, 6, bw, attraction, a-b-db, 5, 1, 7, 29, 60, 135, 135, 60, 58, 132, 3, 0.578973
119, 6, bw, attraction, a-b-db, 5, 1, 7, 29, 60, 135, 135, 60, 58, 132, 2, 0.394759
119, 6, bw, attraction, a-b-db, 2, 3, 7, 30, 119, 193, 195, 120, 120, 195, 2, 0.552654
119, 6, bw, attraction, a-b-db, 2, 3, 7, 30, 119, 193, 195, 120, 120, 195, 3, 0.329874
119, 6, bw, attraction, a-b-da, 9, 2, 7, 31, 165, 90, 90, 165, 157, 86, 1, 0.498308
119, 6, bw, attraction, a-b-da, 9, 2, 7, 31, 165, 90, 90, 165, 157, 86, 2, 0.309418
119, 6, bw, attraction, a-b-db, 14, 1, 7, 32, 60, 135, 56, 125, 135, 60, 2, 0.486776
119, 6, bw, attraction, a-b-db, 14, 1, 7, 32, 60, 135, 56, 125, 135, 60, 1, 0.617732
119, 6, bw, attraction, a-b-da, 2, 3, 7, 33, 120, 195, 195, 120, 193, 119, 1, 0.614824
119, 6, bw, attraction, a-b-da, 2, 3, 7, 33, 120, 195, 195, 120, 193, 119, 3, 0.365239
119, 6, bw, catch, NA, 999, 999, 7, 34, 97, 158, 135, 180, 103, 92, 2, 1.02058
119, 6, bw, catch, NA, 999, 999, 7, 34, 97, 158, 135, 180, 103, 92, 3, 0.426771
119, 6, bw, attraction, a-b-db, 5, 3, 7, 35, 120, 195, 195, 120, 117, 190, 3, 0.703237
119, 6, bw, attraction, a-b-db, 5, 3, 7, 35, 120, 195, 195, 120, 117, 190, 2, 0.658336
119, 6, bw, filler, NA, 999, 999, 7, 36, 180, 62, 101, 91, 165, 108, 3, 1.30143
119, 6, bw, filler, NA, 999, 999, 7, 36, 180, 62, 101, 91, 165, 108, 2, 0.384327
119, 6, bw, filler, NA, 999, 999, 7, 37, 86, 157, 100, 69, 125, 159, 3, 0.806867
119, 6, bw, filler, NA, 999, 999, 7, 37, 86, 157, 100, 69, 125, 159, 2, 0.381209
119, 6, bw, attraction, a-b-db, 14, 1, 8, 1, 60, 135, 56, 125, 135, 60, 3, 0.979683
119, 6, bw, attraction, a-b-db, 14, 1, 8, 1, 60, 135, 56, 125, 135, 60, 1, 0.419373
119, 6, bw, attraction, a-b-db, 2, 3, 8, 2, 120, 195, 195, 120, 119, 193, 1, 0.592607
119, 6, bw, attraction, a-b-db, 2, 3, 8, 2, 120, 195, 195, 120, 119, 193, 2, 0.33566
119, 6, bw, attraction, a-b-da, 9, 3, 8, 3, 186, 114, 120, 195, 195, 120, 2, 1.03207
119, 6, bw, attraction, a-b-da, 9, 3, 8, 3, 186, 114, 120, 195, 195, 120, 3, 0.661816
119, 6, bw, attraction, a-b-da, 2, 2, 8, 4, 165, 90, 163, 89, 90, 165, 2, 0.496912
119, 6, bw, attraction, a-b-da, 2, 2, 8, 4, 165, 90, 163, 89, 90, 165, 1, 0.371947
119, 6, bw, attraction, a-b-da, 2, 1, 8, 5, 135, 60, 134, 59, 60, 135, 1, 0.555123
119, 6, bw, attraction, a-b-da, 2, 1, 8, 5, 135, 60, 134, 59, 60, 135, 2, 0.62762
119, 6, bw, attraction, a-b-db, 9, 2, 8, 6, 86, 157, 90, 165, 165, 90, 3, 0.487971
119, 6, bw, attraction, a-b-db, 9, 2, 8, 6, 86, 157, 90, 165, 165, 90, 2, 0.43519
119, 6, bw, attraction, a-b-db, 9, 3, 8, 7, 120, 195, 195, 120, 114, 186, 3, 0.407711
119, 6, bw, attraction, a-b-db, 9, 3, 8, 7, 120, 195, 195, 120, 114, 186, 2, 0.574171
119, 6, bw, attraction, a-b-db, 9, 1, 8, 8, 57, 129, 135, 60, 60, 135, 1, 0.476673
119, 6, bw, attraction, a-b-db, 9, 1, 8, 8, 57, 129, 135, 60, 60, 135, 2, 0.436843
119, 6, bw, attraction, a-b-db, 2, 2, 8, 9, 165, 90, 89, 163, 90, 165, 1, 0.612805
119, 6, bw, attraction, a-b-db, 2, 2, 8, 9, 165, 90, 89, 163, 90, 165, 2, 0.387352
119, 6, bw, filler, NA, 999, 999, 8, 10, 166, 104, 102, 110, 167, 175, 2, 0.561818
119, 6, bw, filler, NA, 999, 999, 8, 10, 166, 104, 102, 110, 167, 175, 1, 1.81828
119, 6, bw, attraction, a-b-db, 14, 2, 8, 11, 83, 153, 165, 90, 90, 165, 3, 0.870933
119, 6, bw, attraction, a-b-db, 14, 2, 8, 11, 83, 153, 165, 90, 90, 165, 2, 0.370659
119, 6, bw, attraction, a-b-da, 9, 2, 8, 12, 157, 86, 165, 90, 90, 165, 3, 0.697808
119, 6, bw, attraction, a-b-da, 9, 2, 8, 12, 157, 86, 165, 90, 90, 165, 2, 0.516956
119, 6, bw, catch, NA, 999, 999, 8, 13, 103, 92, 130, 185, 113, 142, 2, 0.653961
119, 6, bw, catch, NA, 999, 999, 8, 13, 103, 92, 130, 185, 113, 142, 1, 0.506411
119, 6, bw, attraction, a-b-db, 5, 2, 8, 14, 165, 90, 90, 165, 88, 161, 1, 0.739543
119, 6, bw, attraction, a-b-db, 5, 2, 8, 14, 165, 90, 90, 165, 88, 161, 2, 0.388601
119, 6, bw, attraction, a-b-db, 14, 3, 8, 15, 111, 181, 195, 120, 120, 195, 3, 0.971156
119, 6, bw, attraction, a-b-db, 14, 3, 8, 15, 111, 181, 195, 120, 120, 195, 1, 0.986784
119, 6, bw, filler, NA, 999, 999, 8, 16, 143, 188, 137, 194, 128, 174, 1, 2.21755
119, 6, bw, filler, NA, 999, 999, 8, 16, 143, 188, 137, 194, 128, 174, 2, 0.695045
119, 6, bw, filler, NA, 999, 999, 8, 17, 185, 56, 131, 61, 163, 188, 3, 0.864887
119, 6, bw, filler, NA, 999, 999, 8, 17, 185, 56, 131, 61, 163, 188, 2, 0.381192
119, 6, bw, filler, NA, 999, 999, 8, 18, 194, 194, 179, 127, 98, 136, 1, 0.731604
119, 6, bw, filler, NA, 999, 999, 8, 18, 194, 194, 179, 127, 98, 136, 3, 0.42147
119, 6, bw, attraction, a-b-da, 9, 1, 8, 19, 135, 60, 60, 135, 129, 57, 2, 0.6345
119, 6, bw, attraction, a-b-da, 9, 1, 8, 19, 135, 60, 60, 135, 129, 57, 1, 0.376324
119, 6, bw, attraction, a-b-db, 2, 1, 8, 20, 60, 135, 59, 134, 135, 60, 1, 1.39073
119, 6, bw, attraction, a-b-db, 2, 1, 8, 20, 60, 135, 59, 134, 135, 60, 2, 0.32567
119, 6, bw, attraction, a-b-da, 14, 1, 8, 21, 60, 135, 125, 56, 135, 60, 1, 0.622182
119, 6, bw, attraction, a-b-da, 14, 1, 8, 21, 60, 135, 125, 56, 135, 60, 3, 0.980115
119, 6, bw, catch, NA, 999, 999, 8, 22, 118, 77, 106, 149, 147, 168, 3, 0.698256
119, 6, bw, catch, NA, 999, 999, 8, 22, 118, 77, 106, 149, 147, 168, 1, 0.445292
119, 6, bw, attraction, a-b-db, 5, 3, 8, 23, 120, 195, 117, 190, 195, 120, 2, 0.489099
119, 6, bw, attraction, a-b-db, 5, 3, 8, 23, 120, 195, 117, 190, 195, 120, 1, 0.38829
119, 6, bw, attraction, a-b-da, 2, 3, 8, 24, 120, 195, 193, 119, 195, 120, 1, 0.63475
119, 6, bw, attraction, a-b-da, 2, 3, 8, 24, 120, 195, 193, 119, 195, 120, 2, 0.456652
119, 6, bw, filler, NA, 999, 999, 8, 25, 131, 110, 171, 105, 59, 62, 2, 0.923833
119, 6, bw, filler, NA, 999, 999, 8, 25, 131, 110, 171, 105, 59, 62, 3, 0.389352
119, 6, bw, attraction, a-b-da, 5, 2, 8, 26, 165, 90, 161, 88, 90, 165, 1, 1.02715
119, 6, bw, attraction, a-b-da, 5, 2, 8, 26, 165, 90, 161, 88, 90, 165, 2, 0.464852
119, 6, bw, filler, NA, 999, 999, 8, 27, 102, 158, 167, 178, 95, 93, 2, 0.540039
119, 6, bw, filler, NA, 999, 999, 8, 27, 102, 158, 167, 178, 95, 93, 3, 0.389053
119, 6, bw, attraction, a-b-da, 5, 3, 8, 28, 190, 117, 120, 195, 195, 120, 2, 0.5237
119, 6, bw, attraction, a-b-da, 5, 3, 8, 28, 190, 117, 120, 195, 195, 120, 1, 0.349377
119, 6, bw, attraction, a-b-da, 14, 2, 8, 29, 153, 83, 165, 90, 90, 165, 2, 0.82122
119, 6, bw, attraction, a-b-da, 14, 2, 8, 29, 153, 83, 165, 90, 90, 165, 1, 0.387018
119, 6, bw, attraction, a-b-da, 5, 1, 8, 30, 132, 58, 135, 60, 60, 135, 2, 0.593498
119, 6, bw, attraction, a-b-da, 5, 1, 8, 30, 132, 58, 135, 60, 60, 135, 1, 0.360649
119, 6, bw, filler, NA, 999, 999, 8, 31, 128, 188, 80, 96, 90, 183, 1, 0.887736
119, 6, bw, filler, NA, 999, 999, 8, 31, 128, 188, 80, 96, 90, 183, 2, 0.490897
119, 6, bw, attraction, a-b-db, 5, 1, 8, 32, 60, 135, 58, 132, 135, 60, 2, 0.652656
119, 6, bw, attraction, a-b-db, 5, 1, 8, 32, 60, 135, 58, 132, 135, 60, 3, 0.505644
119, 6, bw, catch, NA, 999, 999, 8, 33, 148, 167, 143, 112, 72, 123, 1, 0.723372
119, 6, bw, catch, NA, 999, 999, 8, 33, 148, 167, 143, 112, 72, 123, 3, 0.965274
119, 6, bw, filler, NA, 999, 999, 8, 34, 89, 123, 166, 119, 71, 157, 2, 0.500117
119, 6, bw, filler, NA, 999, 999, 8, 34, 89, 123, 166, 119, 71, 157, 1, 0.359317
119, 6, bw, attraction, a-b-da, 14, 3, 8, 35, 195, 120, 181, 111, 120, 195, 1, 0.494418
119, 6, bw, attraction, a-b-da, 14, 3, 8, 35, 195, 120, 181, 111, 120, 195, 2, 0.385563
119, 6, bw, filler, NA, 999, 999, 8, 36, 122, 85, 163, 150, 126, 106, 2, 0.728069
119, 6, bw, filler, NA, 999, 999, 8, 36, 122, 85, 163, 150, 126, 106, 3, 0.481791
119, 6, bw, filler, NA, 999, 999, 8, 37, 178, 167, 57, 114, 151, 192, 3, 1.23625
119, 6, bw, filler, NA, 999, 999, 8, 37, 178, 167, 57, 114, 151, 192, 2, 0.441994
