sub_n, computer_n, bw_cond, effect, set, distance, diag, block_n, trial_n, h1, w1, h2, w2, h3, w3, choice, rt 
193, 6, bw, practice, NA, 999, 999, 0, 1, 66, 123, 57, 121, 164, 74, 3, 4.91055
193, 6, bw, practice, NA, 999, 999, 0, 1, 66, 123, 57, 121, 164, 74, 2, 3.36563
193, 6, bw, practice, NA, 999, 999, 0, 2, 163, 114, 169, 165, 181, 172, 3, 3.90606
193, 6, bw, practice, NA, 999, 999, 0, 2, 163, 114, 169, 165, 181, 172, 1, 2.93058
193, 6, bw, practice, NA, 999, 999, 0, 3, 92, 156, 192, 127, 188, 172, 3, 2.52946
193, 6, bw, practice, NA, 999, 999, 0, 3, 92, 156, 192, 127, 188, 172, 1, 3.82267
193, 6, bw, attraction, a-b-db, 9, 2, 1, 1, 86, 157, 165, 90, 90, 165, 3, 4.69925
193, 6, bw, attraction, a-b-db, 9, 2, 1, 1, 86, 157, 165, 90, 90, 165, 1, 3.49327
193, 6, bw, attraction, a-b-db, 2, 3, 1, 2, 120, 195, 195, 120, 119, 193, 1, 3.1499
193, 6, bw, attraction, a-b-db, 2, 3, 1, 2, 120, 195, 195, 120, 119, 193, 3, 2.08623
193, 6, bw, attraction, a-b-da, 2, 2, 1, 3, 163, 89, 90, 165, 165, 90, 1, 3.75229
193, 6, bw, attraction, a-b-da, 2, 2, 1, 3, 163, 89, 90, 165, 165, 90, 2, 2.28835
193, 6, bw, filler, NA, 999, 999, 1, 4, 156, 80, 119, 182, 79, 105, 2, 1.4663
193, 6, bw, filler, NA, 999, 999, 1, 4, 156, 80, 119, 182, 79, 105, 3, 0.950472
193, 6, bw, attraction, a-b-da, 9, 3, 1, 5, 186, 114, 195, 120, 120, 195, 3, 1.39811
193, 6, bw, attraction, a-b-da, 9, 3, 1, 5, 186, 114, 195, 120, 120, 195, 1, 1.76487
193, 6, bw, attraction, a-b-da, 5, 1, 1, 6, 60, 135, 132, 58, 135, 60, 1, 2.76363
193, 6, bw, attraction, a-b-da, 5, 1, 1, 6, 60, 135, 132, 58, 135, 60, 2, 1.61945
193, 6, bw, attraction, a-b-db, 14, 3, 1, 7, 111, 181, 195, 120, 120, 195, 3, 1.90426
193, 6, bw, attraction, a-b-db, 14, 3, 1, 7, 111, 181, 195, 120, 120, 195, 1, 3.3703
193, 6, bw, attraction, a-b-db, 5, 2, 1, 8, 88, 161, 165, 90, 90, 165, 1, 3.30448
193, 6, bw, attraction, a-b-db, 5, 2, 1, 8, 88, 161, 165, 90, 90, 165, 2, 2.91409
193, 6, bw, attraction, a-b-da, 14, 2, 1, 9, 90, 165, 165, 90, 153, 83, 1, 1.76245
193, 6, bw, attraction, a-b-da, 14, 2, 1, 9, 90, 165, 165, 90, 153, 83, 2, 1.50658
193, 6, bw, attraction, a-b-da, 14, 1, 1, 10, 60, 135, 125, 56, 135, 60, 1, 2.69131
193, 6, bw, attraction, a-b-da, 14, 1, 1, 10, 60, 135, 125, 56, 135, 60, 2, 0.925778
193, 6, bw, catch, NA, 999, 999, 1, 11, 137, 118, 167, 148, 113, 82, 2, 1.07743
193, 6, bw, catch, NA, 999, 999, 1, 11, 137, 118, 167, 148, 113, 82, 3, 2.04912
193, 6, bw, catch, NA, 999, 999, 1, 12, 177, 138, 63, 132, 133, 122, 1, 1.26041
193, 6, bw, catch, NA, 999, 999, 1, 12, 177, 138, 63, 132, 133, 122, 2, 1.22469
193, 6, bw, attraction, a-b-db, 5, 3, 1, 13, 195, 120, 117, 190, 120, 195, 3, 2.66094
193, 6, bw, attraction, a-b-db, 5, 3, 1, 13, 195, 120, 117, 190, 120, 195, 2, 1.88067
193, 6, bw, attraction, a-b-db, 14, 2, 1, 14, 90, 165, 83, 153, 165, 90, 1, 2.29071
193, 6, bw, attraction, a-b-db, 14, 2, 1, 14, 90, 165, 83, 153, 165, 90, 2, 1.14135
193, 6, bw, attraction, a-b-db, 5, 1, 1, 15, 60, 135, 135, 60, 58, 132, 1, 2.16489
193, 6, bw, attraction, a-b-db, 5, 1, 1, 15, 60, 135, 135, 60, 58, 132, 2, 1.3009
193, 6, bw, filler, NA, 999, 999, 1, 16, 134, 110, 170, 103, 68, 90, 2, 2.26248
193, 6, bw, filler, NA, 999, 999, 1, 16, 134, 110, 170, 103, 68, 90, 3, 0.730307
193, 6, bw, attraction, a-b-da, 2, 3, 1, 17, 120, 195, 193, 119, 195, 120, 1, 4.57065
193, 6, bw, attraction, a-b-da, 2, 3, 1, 17, 120, 195, 193, 119, 195, 120, 2, 0.714014
193, 6, bw, attraction, a-b-da, 2, 1, 1, 18, 134, 59, 135, 60, 60, 135, 3, 3.75498
193, 6, bw, attraction, a-b-da, 2, 1, 1, 18, 134, 59, 135, 60, 60, 135, 2, 0.922466
193, 6, bw, filler, NA, 999, 999, 1, 19, 162, 182, 128, 156, 149, 143, 1, 1.00337
193, 6, bw, filler, NA, 999, 999, 1, 19, 162, 182, 128, 156, 149, 143, 2, 3.01842
193, 6, bw, filler, NA, 999, 999, 1, 20, 96, 102, 175, 156, 136, 92, 2, 1.06271
193, 6, bw, filler, NA, 999, 999, 1, 20, 96, 102, 175, 156, 136, 92, 1, 0.490979
193, 6, bw, attraction, a-b-da, 5, 2, 1, 21, 165, 90, 161, 88, 90, 165, 1, 1.07681
193, 6, bw, attraction, a-b-da, 5, 2, 1, 21, 165, 90, 161, 88, 90, 165, 2, 0.960522
193, 6, bw, attraction, a-b-db, 14, 1, 1, 22, 56, 125, 60, 135, 135, 60, 2, 0.983388
193, 6, bw, attraction, a-b-db, 14, 1, 1, 22, 56, 125, 60, 135, 135, 60, 1, 0.727037
193, 6, bw, attraction, a-b-da, 9, 1, 1, 23, 60, 135, 135, 60, 129, 57, 1, 1.39949
193, 6, bw, attraction, a-b-da, 9, 1, 1, 23, 60, 135, 135, 60, 129, 57, 2, 0.750259
193, 6, bw, filler, NA, 999, 999, 1, 24, 172, 59, 63, 153, 156, 116, 3, 1.28606
193, 6, bw, filler, NA, 999, 999, 1, 24, 172, 59, 63, 153, 156, 116, 2, 0.841663
193, 6, bw, filler, NA, 999, 999, 1, 25, 106, 150, 80, 95, 157, 194, 3, 0.733266
193, 6, bw, filler, NA, 999, 999, 1, 25, 106, 150, 80, 95, 157, 194, 2, 0.775074
193, 6, bw, filler, NA, 999, 999, 1, 26, 191, 121, 88, 166, 83, 120, 1, 0.669375
193, 6, bw, filler, NA, 999, 999, 1, 26, 191, 121, 88, 166, 83, 120, 3, 0.729987
193, 6, bw, catch, NA, 999, 999, 1, 27, 132, 63, 132, 123, 185, 130, 3, 1.22618
193, 6, bw, catch, NA, 999, 999, 1, 27, 132, 63, 132, 123, 185, 130, 1, 0.807755
193, 6, bw, filler, NA, 999, 999, 1, 28, 161, 132, 72, 94, 164, 68, 1, 0.876777
193, 6, bw, filler, NA, 999, 999, 1, 28, 161, 132, 72, 94, 164, 68, 2, 0.776566
193, 6, bw, attraction, a-b-da, 5, 3, 1, 29, 195, 120, 190, 117, 120, 195, 3, 2.89487
193, 6, bw, attraction, a-b-da, 5, 3, 1, 29, 195, 120, 190, 117, 120, 195, 2, 0.489239
193, 6, bw, attraction, a-b-db, 2, 2, 1, 30, 90, 165, 165, 90, 89, 163, 1, 1.33178
193, 6, bw, attraction, a-b-db, 2, 2, 1, 30, 90, 165, 165, 90, 89, 163, 2, 0.565241
193, 6, bw, attraction, a-b-da, 9, 2, 1, 31, 90, 165, 165, 90, 157, 86, 1, 0.74852
193, 6, bw, attraction, a-b-da, 9, 2, 1, 31, 90, 165, 165, 90, 157, 86, 2, 0.725499
193, 6, bw, attraction, a-b-da, 14, 3, 1, 32, 120, 195, 181, 111, 195, 120, 1, 0.877847
193, 6, bw, attraction, a-b-da, 14, 3, 1, 32, 120, 195, 181, 111, 195, 120, 2, 0.633497
193, 6, bw, attraction, a-b-db, 9, 3, 1, 33, 195, 120, 114, 186, 120, 195, 1, 1.31004
193, 6, bw, attraction, a-b-db, 9, 3, 1, 33, 195, 120, 114, 186, 120, 195, 2, 0.624202
193, 6, bw, attraction, a-b-db, 9, 1, 1, 34, 135, 60, 57, 129, 60, 135, 1, 0.884683
193, 6, bw, attraction, a-b-db, 9, 1, 1, 34, 135, 60, 57, 129, 60, 135, 2, 2.76035
193, 6, bw, filler, NA, 999, 999, 1, 35, 81, 190, 144, 68, 93, 159, 1, 0.694697
193, 6, bw, filler, NA, 999, 999, 1, 35, 81, 190, 144, 68, 93, 159, 2, 0.705777
193, 6, bw, filler, NA, 999, 999, 1, 36, 129, 116, 99, 97, 169, 135, 3, 0.771524
193, 6, bw, filler, NA, 999, 999, 1, 36, 129, 116, 99, 97, 169, 135, 2, 1.00328
193, 6, bw, attraction, a-b-db, 2, 1, 1, 37, 135, 60, 59, 134, 60, 135, 3, 1.81684
193, 6, bw, attraction, a-b-db, 2, 1, 1, 37, 135, 60, 59, 134, 60, 135, 2, 1.89492
193, 6, bw, filler, NA, 999, 999, 2, 1, 121, 161, 65, 112, 160, 184, 3, 0.856413
193, 6, bw, filler, NA, 999, 999, 2, 1, 121, 161, 65, 112, 160, 184, 2, 0.740685
193, 6, bw, attraction, a-b-da, 2, 3, 2, 2, 120, 195, 195, 120, 193, 119, 2, 1.54855
193, 6, bw, attraction, a-b-da, 2, 3, 2, 2, 120, 195, 195, 120, 193, 119, 1, 3.18924
193, 6, bw, attraction, a-b-da, 5, 1, 2, 3, 135, 60, 60, 135, 132, 58, 2, 1.48285
193, 6, bw, attraction, a-b-da, 5, 1, 2, 3, 135, 60, 60, 135, 132, 58, 3, 0.998382
193, 6, bw, filler, NA, 999, 999, 2, 4, 96, 78, 123, 106, 85, 65, 2, 1.18009
193, 6, bw, filler, NA, 999, 999, 2, 4, 96, 78, 123, 106, 85, 65, 3, 0.571547
193, 6, bw, attraction, a-b-db, 9, 1, 2, 5, 60, 135, 57, 129, 135, 60, 1, 2.76269
193, 6, bw, attraction, a-b-db, 9, 1, 2, 5, 60, 135, 57, 129, 135, 60, 2, 3.24255
193, 6, bw, attraction, a-b-da, 2, 1, 2, 6, 134, 59, 60, 135, 135, 60, 2, 1.44541
193, 6, bw, attraction, a-b-da, 2, 1, 2, 6, 134, 59, 60, 135, 135, 60, 1, 0.554224
193, 6, bw, filler, NA, 999, 999, 2, 7, 151, 66, 113, 183, 63, 56, 2, 0.761977
193, 6, bw, filler, NA, 999, 999, 2, 7, 151, 66, 113, 183, 63, 56, 3, 0.578467
193, 6, bw, attraction, a-b-da, 14, 1, 2, 8, 60, 135, 135, 60, 125, 56, 1, 2.51285
193, 6, bw, attraction, a-b-da, 14, 1, 2, 8, 60, 135, 135, 60, 125, 56, 2, 0.594736
193, 6, bw, attraction, a-b-db, 9, 2, 2, 9, 90, 165, 86, 157, 165, 90, 1, 1.97636
193, 6, bw, attraction, a-b-db, 9, 2, 2, 9, 90, 165, 86, 157, 165, 90, 3, 0.743737
193, 6, bw, attraction, a-b-db, 2, 3, 2, 10, 119, 193, 120, 195, 195, 120, 2, 1.78352
193, 6, bw, attraction, a-b-db, 2, 3, 2, 10, 119, 193, 120, 195, 195, 120, 3, 0.390911
193, 6, bw, attraction, a-b-db, 9, 3, 2, 11, 195, 120, 114, 186, 120, 195, 2, 1.7407
193, 6, bw, attraction, a-b-db, 9, 3, 2, 11, 195, 120, 114, 186, 120, 195, 1, 1.14145
193, 6, bw, attraction, a-b-da, 2, 2, 2, 12, 163, 89, 165, 90, 90, 165, 3, 2.74105
193, 6, bw, attraction, a-b-da, 2, 2, 2, 12, 163, 89, 165, 90, 90, 165, 2, 0.741494
193, 6, bw, attraction, a-b-db, 14, 1, 2, 13, 56, 125, 60, 135, 135, 60, 2, 1.58925
193, 6, bw, attraction, a-b-db, 14, 1, 2, 13, 56, 125, 60, 135, 135, 60, 3, 3.18804
193, 6, bw, attraction, a-b-db, 2, 2, 2, 14, 89, 163, 165, 90, 90, 165, 1, 1.51366
193, 6, bw, attraction, a-b-db, 2, 2, 2, 14, 89, 163, 165, 90, 90, 165, 2, 1.49985
193, 6, bw, filler, NA, 999, 999, 2, 15, 172, 112, 152, 78, 138, 141, 1, 1.65333
193, 6, bw, filler, NA, 999, 999, 2, 15, 172, 112, 152, 78, 138, 141, 2, 0.682069
193, 6, bw, attraction, a-b-db, 14, 2, 2, 16, 165, 90, 83, 153, 90, 165, 1, 1.87652
193, 6, bw, attraction, a-b-db, 14, 2, 2, 16, 165, 90, 83, 153, 90, 165, 2, 1.67994
193, 6, bw, attraction, a-b-db, 5, 3, 2, 17, 195, 120, 117, 190, 120, 195, 3, 2.68998
193, 6, bw, attraction, a-b-db, 5, 3, 2, 17, 195, 120, 117, 190, 120, 195, 2, 0.900317
193, 6, bw, attraction, a-b-db, 14, 3, 2, 18, 111, 181, 120, 195, 195, 120, 3, 1.39008
193, 6, bw, attraction, a-b-db, 14, 3, 2, 18, 111, 181, 120, 195, 195, 120, 2, 0.495118
193, 6, bw, attraction, a-b-da, 9, 3, 2, 19, 186, 114, 195, 120, 120, 195, 2, 1.18273
193, 6, bw, attraction, a-b-da, 9, 3, 2, 19, 186, 114, 195, 120, 120, 195, 1, 0.3903
193, 6, bw, attraction, a-b-db, 2, 1, 2, 20, 59, 134, 60, 135, 135, 60, 2, 1.86822
193, 6, bw, attraction, a-b-db, 2, 1, 2, 20, 59, 134, 60, 135, 135, 60, 3, 0.600248
193, 6, bw, filler, NA, 999, 999, 2, 21, 113, 62, 98, 119, 175, 62, 3, 2.68614
193, 6, bw, filler, NA, 999, 999, 2, 21, 113, 62, 98, 119, 175, 62, 2, 0.889129
193, 6, bw, attraction, a-b-db, 5, 2, 2, 22, 165, 90, 90, 165, 88, 161, 1, 0.707468
193, 6, bw, attraction, a-b-db, 5, 2, 2, 22, 165, 90, 90, 165, 88, 161, 2, 0.373779
193, 6, bw, attraction, a-b-da, 14, 2, 2, 23, 153, 83, 165, 90, 90, 165, 1, 0.72456
193, 6, bw, attraction, a-b-da, 14, 2, 2, 23, 153, 83, 165, 90, 90, 165, 2, 0.406051
193, 6, bw, filler, NA, 999, 999, 2, 24, 86, 91, 157, 77, 146, 159, 3, 1.08321
193, 6, bw, filler, NA, 999, 999, 2, 24, 86, 91, 157, 77, 146, 159, 2, 0.430887
193, 6, bw, attraction, a-b-da, 9, 2, 2, 25, 90, 165, 165, 90, 157, 86, 1, 0.899316
193, 6, bw, attraction, a-b-da, 9, 2, 2, 25, 90, 165, 165, 90, 157, 86, 2, 0.574339
193, 6, bw, filler, NA, 999, 999, 2, 26, 190, 143, 189, 158, 135, 189, 1, 0.700876
193, 6, bw, filler, NA, 999, 999, 2, 26, 190, 143, 189, 158, 135, 189, 2, 0.583848
193, 6, bw, filler, NA, 999, 999, 2, 27, 90, 183, 185, 73, 84, 171, 1, 0.678314
193, 6, bw, filler, NA, 999, 999, 2, 27, 90, 183, 185, 73, 84, 171, 2, 0.546207
193, 6, bw, filler, NA, 999, 999, 2, 28, 70, 108, 187, 71, 113, 166, 3, 1.36981
193, 6, bw, filler, NA, 999, 999, 2, 28, 70, 108, 187, 71, 113, 166, 2, 0.770038
193, 6, bw, catch, NA, 999, 999, 2, 29, 164, 151, 116, 79, 149, 106, 1, 0.74509
193, 6, bw, catch, NA, 999, 999, 2, 29, 164, 151, 116, 79, 149, 106, 2, 0.474154
193, 6, bw, attraction, a-b-da, 14, 3, 2, 30, 195, 120, 120, 195, 181, 111, 1, 0.692593
193, 6, bw, attraction, a-b-da, 14, 3, 2, 30, 195, 120, 120, 195, 181, 111, 3, 1.13572
193, 6, bw, attraction, a-b-da, 5, 3, 2, 31, 120, 195, 190, 117, 195, 120, 1, 0.999899
193, 6, bw, attraction, a-b-da, 5, 3, 2, 31, 120, 195, 190, 117, 195, 120, 2, 0.375031
193, 6, bw, attraction, a-b-da, 5, 2, 2, 32, 90, 165, 161, 88, 165, 90, 1, 0.861598
193, 6, bw, attraction, a-b-da, 5, 2, 2, 32, 90, 165, 161, 88, 165, 90, 2, 0.369791
193, 6, bw, catch, NA, 999, 999, 2, 33, 193, 122, 99, 96, 134, 121, 1, 0.888983
193, 6, bw, catch, NA, 999, 999, 2, 33, 193, 122, 99, 96, 134, 121, 2, 0.435967
193, 6, bw, filler, NA, 999, 999, 2, 34, 75, 131, 91, 77, 154, 171, 3, 0.840415
193, 6, bw, filler, NA, 999, 999, 2, 34, 75, 131, 91, 77, 154, 171, 2, 0.445428
193, 6, bw, attraction, a-b-db, 5, 1, 2, 35, 60, 135, 135, 60, 58, 132, 1, 0.641263
193, 6, bw, attraction, a-b-db, 5, 1, 2, 35, 60, 135, 135, 60, 58, 132, 2, 0.542392
193, 6, bw, attraction, a-b-da, 9, 1, 2, 36, 60, 135, 129, 57, 135, 60, 1, 0.822138
193, 6, bw, attraction, a-b-da, 9, 1, 2, 36, 60, 135, 129, 57, 135, 60, 2, 0.523904
193, 6, bw, catch, NA, 999, 999, 2, 37, 118, 137, 94, 101, 142, 173, 3, 0.868286
193, 6, bw, catch, NA, 999, 999, 2, 37, 118, 137, 94, 101, 142, 173, 2, 0.56074
193, 6, bw, attraction, a-b-db, 9, 2, 3, 1, 165, 90, 86, 157, 90, 165, 1, 0.951794
193, 6, bw, attraction, a-b-db, 9, 2, 3, 1, 165, 90, 86, 157, 90, 165, 2, 0.528831
193, 6, bw, attraction, a-b-da, 9, 1, 3, 2, 129, 57, 135, 60, 60, 135, 1, 0.529315
193, 6, bw, attraction, a-b-da, 9, 1, 3, 2, 129, 57, 135, 60, 60, 135, 2, 0.611099
193, 6, bw, filler, NA, 999, 999, 3, 3, 129, 58, 144, 119, 122, 103, 1, 1.55219
193, 6, bw, filler, NA, 999, 999, 3, 3, 129, 58, 144, 119, 122, 103, 2, 0.561083
193, 6, bw, attraction, a-b-db, 9, 1, 3, 4, 135, 60, 57, 129, 60, 135, 1, 0.712096
193, 6, bw, attraction, a-b-db, 9, 1, 3, 4, 135, 60, 57, 129, 60, 135, 2, 0.394671
193, 6, bw, attraction, a-b-da, 5, 2, 3, 5, 165, 90, 90, 165, 161, 88, 1, 0.696262
193, 6, bw, attraction, a-b-da, 5, 2, 3, 5, 165, 90, 90, 165, 161, 88, 2, 0.411561
193, 6, bw, filler, NA, 999, 999, 3, 6, 177, 105, 87, 85, 114, 183, 1, 0.536464
193, 6, bw, filler, NA, 999, 999, 3, 6, 177, 105, 87, 85, 114, 183, 2, 0.346373
193, 6, bw, catch, NA, 999, 999, 3, 7, 158, 97, 105, 90, 133, 182, 1, 0.46621
193, 6, bw, catch, NA, 999, 999, 3, 7, 158, 97, 105, 90, 133, 182, 2, 0.342755
193, 6, bw, attraction, a-b-db, 14, 3, 3, 8, 111, 181, 195, 120, 120, 195, 1, 1.00647
193, 6, bw, attraction, a-b-db, 14, 3, 3, 8, 111, 181, 195, 120, 120, 195, 2, 0.700871
193, 6, bw, catch, NA, 999, 999, 3, 9, 148, 107, 78, 117, 192, 123, 3, 0.75854
193, 6, bw, catch, NA, 999, 999, 3, 9, 148, 107, 78, 117, 192, 123, 2, 0.646906
193, 6, bw, attraction, a-b-da, 5, 1, 3, 10, 132, 58, 135, 60, 60, 135, 1, 0.898886
193, 6, bw, attraction, a-b-da, 5, 1, 3, 10, 132, 58, 135, 60, 60, 135, 2, 0.77394
193, 6, bw, filler, NA, 999, 999, 3, 11, 122, 72, 162, 164, 110, 192, 2, 2.17226
193, 6, bw, filler, NA, 999, 999, 3, 11, 122, 72, 162, 164, 110, 192, 1, 0.387382
193, 6, bw, attraction, a-b-db, 2, 3, 3, 12, 119, 193, 195, 120, 120, 195, 1, 1.74593
193, 6, bw, attraction, a-b-db, 2, 3, 3, 12, 119, 193, 195, 120, 120, 195, 2, 0.562691
193, 6, bw, attraction, a-b-db, 9, 3, 3, 13, 114, 186, 120, 195, 195, 120, 3, 2.00169
193, 6, bw, attraction, a-b-db, 9, 3, 3, 13, 114, 186, 120, 195, 195, 120, 2, 0.720385
193, 6, bw, attraction, a-b-da, 14, 1, 3, 14, 125, 56, 60, 135, 135, 60, 2, 1.08148
193, 6, bw, attraction, a-b-da, 14, 1, 3, 14, 125, 56, 60, 135, 135, 60, 3, 1.03712
193, 6, bw, filler, NA, 999, 999, 3, 15, 191, 92, 130, 83, 68, 61, 1, 0.513394
193, 6, bw, filler, NA, 999, 999, 3, 15, 191, 92, 130, 83, 68, 61, 3, 1.27601
193, 6, bw, filler, NA, 999, 999, 3, 16, 176, 57, 114, 141, 109, 126, 3, 1.77419
193, 6, bw, filler, NA, 999, 999, 3, 16, 176, 57, 114, 141, 109, 126, 1, 0.853494
193, 6, bw, attraction, a-b-da, 2, 1, 3, 17, 60, 135, 135, 60, 134, 59, 3, 1.23318
193, 6, bw, attraction, a-b-da, 2, 1, 3, 17, 60, 135, 135, 60, 134, 59, 2, 0.470939
193, 6, bw, attraction, a-b-db, 5, 2, 3, 18, 165, 90, 90, 165, 88, 161, 3, 0.985911
193, 6, bw, attraction, a-b-db, 5, 2, 3, 18, 165, 90, 90, 165, 88, 161, 2, 2.65765
193, 6, bw, attraction, a-b-db, 5, 3, 3, 19, 120, 195, 195, 120, 117, 190, 2, 3.55597
193, 6, bw, attraction, a-b-db, 5, 3, 3, 19, 120, 195, 195, 120, 117, 190, 3, 0.395583
193, 6, bw, attraction, a-b-da, 14, 2, 3, 20, 90, 165, 153, 83, 165, 90, 1, 1.45733
193, 6, bw, attraction, a-b-da, 14, 2, 3, 20, 90, 165, 153, 83, 165, 90, 2, 0.493592
193, 6, bw, filler, NA, 999, 999, 3, 21, 85, 111, 145, 74, 65, 166, 3, 0.951375
193, 6, bw, filler, NA, 999, 999, 3, 21, 85, 111, 145, 74, 65, 166, 2, 0.344349
193, 6, bw, catch, NA, 999, 999, 3, 22, 142, 173, 113, 142, 84, 111, 1, 0.680103
193, 6, bw, catch, NA, 999, 999, 3, 22, 142, 173, 113, 142, 84, 111, 3, 0.90791
193, 6, bw, attraction, a-b-da, 9, 3, 3, 23, 120, 195, 195, 120, 186, 114, 1, 0.877055
193, 6, bw, attraction, a-b-da, 9, 3, 3, 23, 120, 195, 195, 120, 186, 114, 2, 0.704566
193, 6, bw, attraction, a-b-db, 14, 1, 3, 24, 135, 60, 60, 135, 56, 125, 1, 1.11433
193, 6, bw, attraction, a-b-db, 14, 1, 3, 24, 135, 60, 60, 135, 56, 125, 2, 0.468557
193, 6, bw, filler, NA, 999, 999, 3, 25, 155, 132, 77, 83, 171, 79, 1, 0.799733
193, 6, bw, filler, NA, 999, 999, 3, 25, 155, 132, 77, 83, 171, 79, 2, 0.550884
193, 6, bw, filler, NA, 999, 999, 3, 26, 60, 127, 184, 172, 121, 120, 2, 2.31062
193, 6, bw, filler, NA, 999, 999, 3, 26, 60, 127, 184, 172, 121, 120, 1, 0.456549
193, 6, bw, attraction, a-b-db, 2, 2, 3, 27, 89, 163, 90, 165, 165, 90, 1, 0.931661
193, 6, bw, attraction, a-b-db, 2, 2, 3, 27, 89, 163, 90, 165, 165, 90, 2, 0.437244
193, 6, bw, attraction, a-b-da, 14, 3, 3, 28, 195, 120, 120, 195, 181, 111, 1, 1.45778
193, 6, bw, attraction, a-b-da, 14, 3, 3, 28, 195, 120, 120, 195, 181, 111, 2, 1.07811
193, 6, bw, attraction, a-b-da, 2, 2, 3, 29, 90, 165, 165, 90, 163, 89, 1, 0.952149
193, 6, bw, attraction, a-b-da, 2, 2, 3, 29, 90, 165, 165, 90, 163, 89, 2, 0.385255
193, 6, bw, attraction, a-b-db, 14, 2, 3, 30, 83, 153, 90, 165, 165, 90, 2, 1.23171
193, 6, bw, attraction, a-b-db, 14, 2, 3, 30, 83, 153, 90, 165, 165, 90, 3, 0.397286
193, 6, bw, attraction, a-b-db, 5, 1, 3, 31, 60, 135, 135, 60, 58, 132, 1, 0.859158
193, 6, bw, attraction, a-b-db, 5, 1, 3, 31, 60, 135, 135, 60, 58, 132, 2, 0.583463
193, 6, bw, filler, NA, 999, 999, 3, 32, 124, 71, 85, 79, 126, 174, 1, 0.773891
193, 6, bw, filler, NA, 999, 999, 3, 32, 124, 71, 85, 79, 126, 174, 2, 0.43765
193, 6, bw, attraction, a-b-da, 2, 3, 3, 33, 120, 195, 195, 120, 193, 119, 1, 0.802246
193, 6, bw, attraction, a-b-da, 2, 3, 3, 33, 120, 195, 195, 120, 193, 119, 2, 0.625348
193, 6, bw, attraction, a-b-da, 5, 3, 3, 34, 190, 117, 120, 195, 195, 120, 1, 1.28562
193, 6, bw, attraction, a-b-da, 5, 3, 3, 34, 190, 117, 120, 195, 195, 120, 2, 0.44918
193, 6, bw, attraction, a-b-db, 2, 1, 3, 35, 135, 60, 60, 135, 59, 134, 1, 0.661001
193, 6, bw, attraction, a-b-db, 2, 1, 3, 35, 135, 60, 60, 135, 59, 134, 2, 0.425477
193, 6, bw, attraction, a-b-da, 9, 2, 3, 36, 157, 86, 90, 165, 165, 90, 1, 0.509946
193, 6, bw, attraction, a-b-da, 9, 2, 3, 36, 157, 86, 90, 165, 165, 90, 2, 0.392419
193, 6, bw, filler, NA, 999, 999, 3, 37, 69, 116, 84, 155, 154, 61, 2, 0.662231
193, 6, bw, filler, NA, 999, 999, 3, 37, 69, 116, 84, 155, 154, 61, 1, 0.834601
193, 6, bw, attraction, a-b-da, 2, 3, 4, 1, 193, 119, 195, 120, 120, 195, 2, 0.703025
193, 6, bw, attraction, a-b-da, 2, 3, 4, 1, 193, 119, 195, 120, 120, 195, 1, 0.354046
193, 6, bw, attraction, a-b-da, 14, 3, 4, 2, 181, 111, 120, 195, 195, 120, 2, 0.529858
193, 6, bw, attraction, a-b-da, 14, 3, 4, 2, 181, 111, 120, 195, 195, 120, 1, 0.403656
193, 6, bw, attraction, a-b-da, 5, 1, 4, 3, 60, 135, 132, 58, 135, 60, 2, 0.537478
193, 6, bw, attraction, a-b-da, 5, 1, 4, 3, 60, 135, 132, 58, 135, 60, 1, 0.476286
193, 6, bw, filler, NA, 999, 999, 4, 4, 105, 89, 195, 154, 190, 147, 2, 0.789279
193, 6, bw, filler, NA, 999, 999, 4, 4, 105, 89, 195, 154, 190, 147, 1, 0.388151
193, 6, bw, filler, NA, 999, 999, 4, 5, 108, 117, 120, 174, 60, 132, 2, 0.714633
193, 6, bw, filler, NA, 999, 999, 4, 5, 108, 117, 120, 174, 60, 132, 3, 1.32506
193, 6, bw, filler, NA, 999, 999, 4, 6, 138, 140, 180, 61, 60, 179, 1, 0.709309
193, 6, bw, filler, NA, 999, 999, 4, 6, 138, 140, 180, 61, 60, 179, 3, 0.999672
193, 6, bw, filler, NA, 999, 999, 4, 7, 107, 163, 148, 153, 150, 59, 1, 0.757363
193, 6, bw, filler, NA, 999, 999, 4, 7, 107, 163, 148, 153, 150, 59, 3, 0.581832
193, 6, bw, attraction, a-b-da, 9, 1, 4, 8, 60, 135, 129, 57, 135, 60, 1, 0.556115
193, 6, bw, attraction, a-b-da, 9, 1, 4, 8, 60, 135, 129, 57, 135, 60, 3, 0.65269
193, 6, bw, attraction, a-b-da, 2, 2, 4, 9, 90, 165, 163, 89, 165, 90, 1, 0.880458
193, 6, bw, attraction, a-b-da, 2, 2, 4, 9, 90, 165, 163, 89, 165, 90, 2, 0.692035
193, 6, bw, attraction, a-b-da, 5, 2, 4, 10, 90, 165, 161, 88, 165, 90, 1, 0.581773
193, 6, bw, attraction, a-b-da, 5, 2, 4, 10, 90, 165, 161, 88, 165, 90, 3, 0.957666
193, 6, bw, filler, NA, 999, 999, 4, 11, 108, 170, 114, 99, 190, 73, 1, 0.78058
193, 6, bw, filler, NA, 999, 999, 4, 11, 108, 170, 114, 99, 190, 73, 2, 0.388263
193, 6, bw, attraction, a-b-db, 2, 3, 4, 12, 195, 120, 119, 193, 120, 195, 1, 1.81081
193, 6, bw, attraction, a-b-db, 2, 3, 4, 12, 195, 120, 119, 193, 120, 195, 2, 0.945064
193, 6, bw, filler, NA, 999, 999, 4, 13, 146, 179, 127, 101, 110, 188, 1, 0.728539
193, 6, bw, filler, NA, 999, 999, 4, 13, 146, 179, 127, 101, 110, 188, 2, 0.506186
193, 6, bw, attraction, a-b-da, 9, 2, 4, 14, 90, 165, 157, 86, 165, 90, 1, 1.88331
193, 6, bw, attraction, a-b-da, 9, 2, 4, 14, 90, 165, 157, 86, 165, 90, 2, 0.62273
193, 6, bw, catch, NA, 999, 999, 4, 15, 126, 189, 142, 113, 102, 93, 1, 0.779069
193, 6, bw, catch, NA, 999, 999, 4, 15, 126, 189, 142, 113, 102, 93, 3, 0.418892
193, 6, bw, catch, NA, 999, 999, 4, 16, 152, 103, 94, 101, 182, 133, 3, 1.08003
193, 6, bw, catch, NA, 999, 999, 4, 16, 152, 103, 94, 101, 182, 133, 2, 0.651601
193, 6, bw, attraction, a-b-db, 5, 2, 4, 17, 88, 161, 90, 165, 165, 90, 1, 1.65543
193, 6, bw, attraction, a-b-db, 5, 2, 4, 17, 88, 161, 90, 165, 165, 90, 3, 0.691685
193, 6, bw, attraction, a-b-db, 5, 1, 4, 18, 135, 60, 58, 132, 60, 135, 1, 1.38922
193, 6, bw, attraction, a-b-db, 5, 1, 4, 18, 135, 60, 58, 132, 60, 135, 2, 0.428098
193, 6, bw, attraction, a-b-da, 14, 2, 4, 19, 153, 83, 90, 165, 165, 90, 1, 0.848548
193, 6, bw, attraction, a-b-da, 14, 2, 4, 19, 153, 83, 90, 165, 165, 90, 2, 0.445562
193, 6, bw, attraction, a-b-db, 14, 3, 4, 20, 195, 120, 120, 195, 111, 181, 1, 0.737437
193, 6, bw, attraction, a-b-db, 14, 3, 4, 20, 195, 120, 120, 195, 111, 181, 2, 0.402508
193, 6, bw, attraction, a-b-db, 9, 1, 4, 21, 60, 135, 135, 60, 57, 129, 1, 1.03225
193, 6, bw, attraction, a-b-db, 9, 1, 4, 21, 60, 135, 135, 60, 57, 129, 2, 0.446005
193, 6, bw, catch, NA, 999, 999, 4, 22, 153, 102, 101, 94, 166, 149, 3, 1.09775
193, 6, bw, catch, NA, 999, 999, 4, 22, 153, 102, 101, 94, 166, 149, 2, 0.596678
193, 6, bw, attraction, a-b-da, 5, 3, 4, 23, 120, 195, 190, 117, 195, 120, 1, 1.16245
193, 6, bw, attraction, a-b-da, 5, 3, 4, 23, 120, 195, 190, 117, 195, 120, 2, 1.0908
193, 6, bw, filler, NA, 999, 999, 4, 24, 79, 124, 98, 191, 83, 101, 2, 1.09234
193, 6, bw, filler, NA, 999, 999, 4, 24, 79, 124, 98, 191, 83, 101, 1, 0.375311
193, 6, bw, attraction, a-b-da, 14, 1, 4, 25, 125, 56, 60, 135, 135, 60, 1, 0.765772
193, 6, bw, attraction, a-b-da, 14, 1, 4, 25, 125, 56, 60, 135, 135, 60, 2, 0.430192
193, 6, bw, attraction, a-b-da, 2, 1, 4, 26, 134, 59, 135, 60, 60, 135, 1, 0.634686
193, 6, bw, attraction, a-b-da, 2, 1, 4, 26, 134, 59, 135, 60, 60, 135, 2, 0.368506
193, 6, bw, attraction, a-b-db, 14, 1, 4, 27, 60, 135, 135, 60, 56, 125, 1, 0.92767
193, 6, bw, attraction, a-b-db, 14, 1, 4, 27, 60, 135, 135, 60, 56, 125, 2, 0.443487
193, 6, bw, attraction, a-b-db, 9, 3, 4, 28, 195, 120, 120, 195, 114, 186, 2, 0.949119
193, 6, bw, attraction, a-b-db, 9, 3, 4, 28, 195, 120, 120, 195, 114, 186, 1, 0.350041
193, 6, bw, attraction, a-b-db, 5, 3, 4, 29, 120, 195, 117, 190, 195, 120, 2, 0.605899
193, 6, bw, attraction, a-b-db, 5, 3, 4, 29, 120, 195, 117, 190, 195, 120, 1, 0.516354
193, 6, bw, filler, NA, 999, 999, 4, 30, 192, 188, 185, 139, 162, 104, 1, 0.757483
193, 6, bw, filler, NA, 999, 999, 4, 30, 192, 188, 185, 139, 162, 104, 3, 0.349904
193, 6, bw, filler, NA, 999, 999, 4, 31, 142, 81, 87, 181, 168, 112, 3, 0.909741
193, 6, bw, filler, NA, 999, 999, 4, 31, 142, 81, 87, 181, 168, 112, 1, 0.608153
193, 6, bw, attraction, a-b-db, 9, 2, 4, 32, 165, 90, 90, 165, 86, 157, 1, 0.853251
193, 6, bw, attraction, a-b-db, 9, 2, 4, 32, 165, 90, 90, 165, 86, 157, 3, 0.36947
193, 6, bw, filler, NA, 999, 999, 4, 33, 79, 157, 170, 91, 157, 139, 3, 2.05677
193, 6, bw, filler, NA, 999, 999, 4, 33, 79, 157, 170, 91, 157, 139, 1, 0.420664
193, 6, bw, attraction, a-b-db, 2, 1, 4, 34, 60, 135, 135, 60, 59, 134, 3, 0.577842
193, 6, bw, attraction, a-b-db, 2, 1, 4, 34, 60, 135, 135, 60, 59, 134, 2, 0.393711
193, 6, bw, attraction, a-b-db, 2, 2, 4, 35, 89, 163, 90, 165, 165, 90, 3, 0.631469
193, 6, bw, attraction, a-b-db, 2, 2, 4, 35, 89, 163, 90, 165, 165, 90, 2, 0.533278
193, 6, bw, attraction, a-b-db, 14, 2, 4, 36, 165, 90, 83, 153, 90, 165, 1, 0.565687
193, 6, bw, attraction, a-b-db, 14, 2, 4, 36, 165, 90, 83, 153, 90, 165, 3, 0.454143
193, 6, bw, attraction, a-b-da, 9, 3, 4, 37, 120, 195, 195, 120, 186, 114, 3, 0.81793
193, 6, bw, attraction, a-b-da, 9, 3, 4, 37, 120, 195, 195, 120, 186, 114, 1, 0.368332
193, 6, bw, filler, NA, 999, 999, 5, 1, 68, 137, 69, 86, 93, 132, 3, 3.0381
193, 6, bw, filler, NA, 999, 999, 5, 1, 68, 137, 69, 86, 93, 132, 2, 0.746477
193, 6, bw, attraction, a-b-da, 5, 3, 5, 2, 120, 195, 195, 120, 190, 117, 1, 1.06624
193, 6, bw, attraction, a-b-da, 5, 3, 5, 2, 120, 195, 195, 120, 190, 117, 2, 0.942444
193, 6, bw, filler, NA, 999, 999, 5, 3, 163, 91, 121, 125, 137, 178, 3, 1.33415
193, 6, bw, filler, NA, 999, 999, 5, 3, 163, 91, 121, 125, 137, 178, 1, 0.471695
193, 6, bw, filler, NA, 999, 999, 5, 4, 162, 124, 117, 92, 134, 66, 1, 0.898932
193, 6, bw, filler, NA, 999, 999, 5, 4, 162, 124, 117, 92, 134, 66, 3, 1.01394
193, 6, bw, filler, NA, 999, 999, 5, 5, 175, 172, 171, 171, 96, 153, 1, 0.882788
193, 6, bw, filler, NA, 999, 999, 5, 5, 175, 172, 171, 171, 96, 153, 3, 0.566535
193, 6, bw, attraction, a-b-db, 14, 2, 5, 6, 90, 165, 165, 90, 83, 153, 1, 0.917703
193, 6, bw, attraction, a-b-db, 14, 2, 5, 6, 90, 165, 165, 90, 83, 153, 2, 0.495945
193, 6, bw, attraction, a-b-db, 5, 2, 5, 7, 88, 161, 90, 165, 165, 90, 1, 1.45773
193, 6, bw, attraction, a-b-db, 5, 2, 5, 7, 88, 161, 90, 165, 165, 90, 2, 0.933806
193, 6, bw, attraction, a-b-da, 5, 1, 5, 8, 60, 135, 132, 58, 135, 60, 1, 1.54216
193, 6, bw, attraction, a-b-da, 5, 1, 5, 8, 60, 135, 132, 58, 135, 60, 2, 0.423014
193, 6, bw, filler, NA, 999, 999, 5, 9, 163, 159, 122, 158, 107, 151, 1, 0.763644
193, 6, bw, filler, NA, 999, 999, 5, 9, 163, 159, 122, 158, 107, 151, 2, 0.451937
193, 6, bw, attraction, a-b-db, 2, 3, 5, 10, 195, 120, 119, 193, 120, 195, 3, 1.5678
193, 6, bw, attraction, a-b-db, 2, 3, 5, 10, 195, 120, 119, 193, 120, 195, 2, 0.559923
193, 6, bw, filler, NA, 999, 999, 5, 11, 78, 75, 131, 78, 120, 183, 3, 0.839039
193, 6, bw, filler, NA, 999, 999, 5, 11, 78, 75, 131, 78, 120, 183, 1, 0.428074
193, 6, bw, attraction, a-b-da, 2, 3, 5, 12, 195, 120, 193, 119, 120, 195, 1, 0.744537
193, 6, bw, attraction, a-b-da, 2, 3, 5, 12, 195, 120, 193, 119, 120, 195, 2, 0.553643
193, 6, bw, attraction, a-b-da, 14, 3, 5, 13, 195, 120, 120, 195, 181, 111, 1, 0.553432
193, 6, bw, attraction, a-b-da, 14, 3, 5, 13, 195, 120, 120, 195, 181, 111, 2, 0.521844
193, 6, bw, attraction, a-b-da, 14, 1, 5, 14, 60, 135, 135, 60, 125, 56, 2, 1.48289
193, 6, bw, attraction, a-b-da, 14, 1, 5, 14, 60, 135, 135, 60, 125, 56, 1, 0.518572
193, 6, bw, filler, NA, 999, 999, 5, 15, 125, 125, 192, 148, 103, 145, 3, 0.695563
193, 6, bw, filler, NA, 999, 999, 5, 15, 125, 125, 192, 148, 103, 145, 2, 0.346571
193, 6, bw, filler, NA, 999, 999, 5, 16, 110, 120, 61, 183, 121, 73, 1, 0.65037
193, 6, bw, filler, NA, 999, 999, 5, 16, 110, 120, 61, 183, 121, 73, 2, 0.383538
193, 6, bw, attraction, a-b-da, 2, 1, 5, 17, 134, 59, 135, 60, 60, 135, 1, 0.998013
193, 6, bw, attraction, a-b-da, 2, 1, 5, 17, 134, 59, 135, 60, 60, 135, 2, 0.605048
193, 6, bw, filler, NA, 999, 999, 5, 18, 149, 172, 164, 69, 115, 172, 1, 0.658857
193, 6, bw, filler, NA, 999, 999, 5, 18, 149, 172, 164, 69, 115, 172, 2, 0.455342
193, 6, bw, attraction, a-b-db, 5, 1, 5, 19, 135, 60, 60, 135, 58, 132, 1, 0.731057
193, 6, bw, attraction, a-b-db, 5, 1, 5, 19, 135, 60, 60, 135, 58, 132, 2, 0.580823
193, 6, bw, attraction, a-b-db, 14, 1, 5, 20, 56, 125, 135, 60, 60, 135, 1, 0.635253
193, 6, bw, attraction, a-b-db, 14, 1, 5, 20, 56, 125, 135, 60, 60, 135, 2, 0.497102
193, 6, bw, attraction, a-b-db, 9, 1, 5, 21, 60, 135, 135, 60, 57, 129, 1, 0.458728
193, 6, bw, attraction, a-b-db, 9, 1, 5, 21, 60, 135, 135, 60, 57, 129, 2, 0.631352
193, 6, bw, catch, NA, 999, 999, 5, 22, 101, 94, 191, 124, 158, 97, 2, 0.883851
193, 6, bw, catch, NA, 999, 999, 5, 22, 101, 94, 191, 124, 158, 97, 1, 0.407336
193, 6, bw, attraction, a-b-da, 2, 2, 5, 23, 165, 90, 90, 165, 163, 89, 2, 0.596488
193, 6, bw, attraction, a-b-da, 2, 2, 5, 23, 165, 90, 90, 165, 163, 89, 1, 0.643588
193, 6, bw, catch, NA, 999, 999, 5, 24, 127, 68, 182, 133, 94, 161, 2, 1.23138
193, 6, bw, catch, NA, 999, 999, 5, 24, 127, 68, 182, 133, 94, 161, 1, 0.732989
193, 6, bw, attraction, a-b-db, 2, 2, 5, 25, 90, 165, 165, 90, 89, 163, 2, 0.86943
193, 6, bw, attraction, a-b-db, 2, 2, 5, 25, 90, 165, 165, 90, 89, 163, 1, 0.393067
193, 6, bw, filler, NA, 999, 999, 5, 26, 147, 72, 81, 172, 69, 160, 2, 0.470814
193, 6, bw, filler, NA, 999, 999, 5, 26, 147, 72, 81, 172, 69, 160, 1, 0.4427
193, 6, bw, attraction, a-b-db, 2, 1, 5, 27, 59, 134, 60, 135, 135, 60, 2, 0.43044
193, 6, bw, attraction, a-b-db, 2, 1, 5, 27, 59, 134, 60, 135, 135, 60, 1, 0.372409
193, 6, bw, attraction, a-b-db, 9, 2, 5, 28, 90, 165, 86, 157, 165, 90, 2, 0.4995
193, 6, bw, attraction, a-b-db, 9, 2, 5, 28, 90, 165, 86, 157, 165, 90, 1, 0.374662
193, 6, bw, attraction, a-b-da, 9, 1, 5, 29, 135, 60, 60, 135, 129, 57, 2, 0.621287
193, 6, bw, attraction, a-b-da, 9, 1, 5, 29, 135, 60, 60, 135, 129, 57, 1, 0.514987
193, 6, bw, attraction, a-b-da, 9, 3, 5, 30, 120, 195, 195, 120, 186, 114, 1, 0.692203
193, 6, bw, attraction, a-b-da, 9, 3, 5, 30, 120, 195, 195, 120, 186, 114, 2, 0.367269
193, 6, bw, attraction, a-b-da, 14, 2, 5, 31, 165, 90, 153, 83, 90, 165, 1, 0.478306
193, 6, bw, attraction, a-b-da, 14, 2, 5, 31, 165, 90, 153, 83, 90, 165, 2, 0.474096
193, 6, bw, attraction, a-b-da, 5, 2, 5, 32, 165, 90, 90, 165, 161, 88, 1, 0.404605
193, 6, bw, attraction, a-b-da, 5, 2, 5, 32, 165, 90, 90, 165, 161, 88, 2, 0.33109
193, 6, bw, attraction, a-b-db, 5, 3, 5, 33, 117, 190, 195, 120, 120, 195, 1, 0.395591
193, 6, bw, attraction, a-b-db, 5, 3, 5, 33, 117, 190, 195, 120, 120, 195, 2, 0.330777
193, 6, bw, attraction, a-b-db, 14, 3, 5, 34, 120, 195, 111, 181, 195, 120, 1, 0.411274
193, 6, bw, attraction, a-b-db, 14, 3, 5, 34, 120, 195, 111, 181, 195, 120, 2, 0.369921
193, 6, bw, catch, NA, 999, 999, 5, 35, 165, 90, 155, 160, 99, 96, 1, 0.464935
193, 6, bw, catch, NA, 999, 999, 5, 35, 165, 90, 155, 160, 99, 96, 2, 0.749465
193, 6, bw, attraction, a-b-db, 9, 3, 5, 36, 195, 120, 120, 195, 114, 186, 1, 1.10909
193, 6, bw, attraction, a-b-db, 9, 3, 5, 36, 195, 120, 120, 195, 114, 186, 2, 0.335405
193, 6, bw, attraction, a-b-da, 9, 2, 5, 37, 157, 86, 165, 90, 90, 165, 1, 0.671922
193, 6, bw, attraction, a-b-da, 9, 2, 5, 37, 157, 86, 165, 90, 90, 165, 2, 0.827676
193, 6, bw, attraction, a-b-db, 9, 2, 6, 1, 165, 90, 86, 157, 90, 165, 2, 1.50403
193, 6, bw, attraction, a-b-db, 9, 2, 6, 1, 165, 90, 86, 157, 90, 165, 1, 0.482994
193, 6, bw, attraction, a-b-db, 9, 3, 6, 2, 114, 186, 195, 120, 120, 195, 1, 0.589366
193, 6, bw, attraction, a-b-db, 9, 3, 6, 2, 114, 186, 195, 120, 120, 195, 2, 0.276412
193, 6, bw, catch, NA, 999, 999, 6, 3, 91, 104, 148, 167, 136, 119, 2, 0.590954
193, 6, bw, catch, NA, 999, 999, 6, 3, 91, 104, 148, 167, 136, 119, 1, 0.326068
193, 6, bw, attraction, a-b-da, 2, 1, 6, 4, 134, 59, 60, 135, 135, 60, 1, 0.710642
193, 6, bw, attraction, a-b-da, 2, 1, 6, 4, 134, 59, 60, 135, 135, 60, 2, 0.36897
193, 6, bw, attraction, a-b-db, 5, 1, 6, 5, 135, 60, 60, 135, 58, 132, 2, 0.712168
193, 6, bw, attraction, a-b-db, 5, 1, 6, 5, 135, 60, 60, 135, 58, 132, 1, 0.594565
193, 6, bw, filler, NA, 999, 999, 6, 6, 61, 176, 58, 112, 147, 158, 3, 0.92032
193, 6, bw, filler, NA, 999, 999, 6, 6, 61, 176, 58, 112, 147, 158, 2, 0.322832
193, 6, bw, attraction, a-b-da, 2, 2, 6, 7, 90, 165, 163, 89, 165, 90, 1, 0.667168
193, 6, bw, attraction, a-b-da, 2, 2, 6, 7, 90, 165, 163, 89, 165, 90, 2, 0.615702
193, 6, bw, attraction, a-b-db, 9, 1, 6, 8, 60, 135, 135, 60, 57, 129, 1, 0.548726
193, 6, bw, attraction, a-b-db, 9, 1, 6, 8, 60, 135, 135, 60, 57, 129, 2, 0.573961
193, 6, bw, filler, NA, 999, 999, 6, 9, 76, 154, 63, 134, 129, 181, 3, 1.31642
193, 6, bw, filler, NA, 999, 999, 6, 9, 76, 154, 63, 134, 129, 181, 2, 0.358496
193, 6, bw, attraction, a-b-db, 14, 3, 6, 10, 120, 195, 111, 181, 195, 120, 1, 1.08569
193, 6, bw, attraction, a-b-db, 14, 3, 6, 10, 120, 195, 111, 181, 195, 120, 2, 0.68942
193, 6, bw, attraction, a-b-db, 5, 2, 6, 11, 165, 90, 90, 165, 88, 161, 2, 1.27502
193, 6, bw, attraction, a-b-db, 5, 2, 6, 11, 165, 90, 90, 165, 88, 161, 1, 0.398586
193, 6, bw, attraction, a-b-db, 2, 1, 6, 12, 60, 135, 135, 60, 59, 134, 3, 0.612445
193, 6, bw, attraction, a-b-db, 2, 1, 6, 12, 60, 135, 135, 60, 59, 134, 2, 0.586826
193, 6, bw, attraction, a-b-da, 9, 1, 6, 13, 129, 57, 135, 60, 60, 135, 2, 1.00128
193, 6, bw, attraction, a-b-da, 9, 1, 6, 13, 129, 57, 135, 60, 60, 135, 1, 1.18428
193, 6, bw, filler, NA, 999, 999, 6, 14, 176, 103, 89, 116, 177, 93, 3, 1.03057
193, 6, bw, filler, NA, 999, 999, 6, 14, 176, 103, 89, 116, 177, 93, 2, 0.540302
193, 6, bw, attraction, a-b-da, 9, 3, 6, 15, 120, 195, 186, 114, 195, 120, 1, 0.604068
193, 6, bw, attraction, a-b-da, 9, 3, 6, 15, 120, 195, 186, 114, 195, 120, 2, 0.650377
193, 6, bw, attraction, a-b-da, 14, 2, 6, 16, 165, 90, 90, 165, 153, 83, 1, 0.678096
193, 6, bw, attraction, a-b-da, 14, 2, 6, 16, 165, 90, 90, 165, 153, 83, 2, 0.513929
193, 6, bw, attraction, a-b-db, 14, 2, 6, 17, 83, 153, 165, 90, 90, 165, 1, 0.715143
193, 6, bw, attraction, a-b-db, 14, 2, 6, 17, 83, 153, 165, 90, 90, 165, 2, 0.285485
193, 6, bw, attraction, a-b-da, 9, 2, 6, 18, 90, 165, 165, 90, 157, 86, 1, 0.456059
193, 6, bw, attraction, a-b-da, 9, 2, 6, 18, 90, 165, 165, 90, 157, 86, 2, 0.348428
193, 6, bw, attraction, a-b-db, 2, 2, 6, 19, 165, 90, 90, 165, 89, 163, 2, 0.764328
193, 6, bw, attraction, a-b-db, 2, 2, 6, 19, 165, 90, 90, 165, 89, 163, 1, 0.476731
193, 6, bw, attraction, a-b-db, 5, 3, 6, 20, 120, 195, 195, 120, 117, 190, 3, 0.655166
193, 6, bw, attraction, a-b-db, 5, 3, 6, 20, 120, 195, 195, 120, 117, 190, 2, 0.315594
193, 6, bw, attraction, a-b-da, 5, 3, 6, 21, 190, 117, 195, 120, 120, 195, 2, 0.86078
193, 6, bw, attraction, a-b-da, 5, 3, 6, 21, 190, 117, 195, 120, 120, 195, 1, 0.337137
193, 6, bw, attraction, a-b-da, 5, 2, 6, 22, 165, 90, 90, 165, 161, 88, 3, 0.465713
193, 6, bw, attraction, a-b-da, 5, 2, 6, 22, 165, 90, 90, 165, 161, 88, 2, 0.550149
193, 6, bw, attraction, a-b-da, 2, 3, 6, 23, 120, 195, 193, 119, 195, 120, 1, 0.725917
193, 6, bw, attraction, a-b-da, 2, 3, 6, 23, 120, 195, 193, 119, 195, 120, 2, 0.343668
193, 6, bw, filler, NA, 999, 999, 6, 24, 59, 61, 160, 160, 101, 113, 2, 1.40756
193, 6, bw, filler, NA, 999, 999, 6, 24, 59, 61, 160, 160, 101, 113, 1, 0.709679
193, 6, bw, filler, NA, 999, 999, 6, 25, 148, 126, 141, 64, 175, 144, 3, 0.694702
193, 6, bw, filler, NA, 999, 999, 6, 25, 148, 126, 141, 64, 175, 144, 2, 0.441902
193, 6, bw, filler, NA, 999, 999, 6, 26, 76, 81, 146, 149, 180, 65, 2, 0.701587
193, 6, bw, filler, NA, 999, 999, 6, 26, 76, 81, 146, 149, 180, 65, 1, 0.560673
193, 6, bw, catch, NA, 999, 999, 6, 27, 105, 150, 151, 164, 67, 128, 2, 0.559907
193, 6, bw, catch, NA, 999, 999, 6, 27, 105, 150, 151, 164, 67, 128, 3, 0.712304
193, 6, bw, filler, NA, 999, 999, 6, 28, 173, 152, 96, 115, 151, 114, 1, 0.513328
193, 6, bw, filler, NA, 999, 999, 6, 28, 173, 152, 96, 115, 151, 114, 2, 0.395872
193, 6, bw, filler, NA, 999, 999, 6, 29, 117, 166, 190, 72, 138, 95, 1, 0.617626
193, 6, bw, filler, NA, 999, 999, 6, 29, 117, 166, 190, 72, 138, 95, 2, 0.824084
193, 6, bw, filler, NA, 999, 999, 6, 30, 129, 184, 177, 81, 188, 68, 1, 0.820403
193, 6, bw, filler, NA, 999, 999, 6, 30, 129, 184, 177, 81, 188, 68, 3, 2.06684
193, 6, bw, attraction, a-b-da, 14, 3, 6, 31, 195, 120, 120, 195, 181, 111, 1, 1.74151
193, 6, bw, attraction, a-b-da, 14, 3, 6, 31, 195, 120, 120, 195, 181, 111, 3, 1.35026
193, 6, bw, attraction, a-b-db, 14, 1, 6, 32, 56, 125, 60, 135, 135, 60, 1, 0.99772
193, 6, bw, attraction, a-b-db, 14, 1, 6, 32, 56, 125, 60, 135, 135, 60, 3, 0.916716
193, 6, bw, catch, NA, 999, 999, 6, 33, 125, 70, 131, 124, 169, 146, 3, 1.42173
193, 6, bw, catch, NA, 999, 999, 6, 33, 125, 70, 131, 124, 169, 146, 1, 0.987194
193, 6, bw, attraction, a-b-db, 2, 3, 6, 34, 195, 120, 119, 193, 120, 195, 1, 0.849509
193, 6, bw, attraction, a-b-db, 2, 3, 6, 34, 195, 120, 119, 193, 120, 195, 3, 0.518573
193, 6, bw, attraction, a-b-da, 5, 1, 6, 35, 132, 58, 60, 135, 135, 60, 1, 0.919676
193, 6, bw, attraction, a-b-da, 5, 1, 6, 35, 132, 58, 60, 135, 135, 60, 2, 0.474072
193, 6, bw, filler, NA, 999, 999, 6, 36, 66, 61, 94, 64, 91, 60, 2, 1.05248
193, 6, bw, filler, NA, 999, 999, 6, 36, 66, 61, 94, 64, 91, 60, 1, 1.29749
193, 6, bw, attraction, a-b-da, 14, 1, 6, 37, 60, 135, 125, 56, 135, 60, 1, 1.08302
193, 6, bw, attraction, a-b-da, 14, 1, 6, 37, 60, 135, 125, 56, 135, 60, 2, 0.614681
193, 6, bw, attraction, a-b-db, 2, 2, 7, 1, 90, 165, 89, 163, 165, 90, 1, 0.731729
193, 6, bw, attraction, a-b-db, 2, 2, 7, 1, 90, 165, 89, 163, 165, 90, 2, 0.805472
193, 6, bw, filler, NA, 999, 999, 7, 2, 57, 95, 111, 187, 177, 164, 2, 0.867096
193, 6, bw, filler, NA, 999, 999, 7, 2, 57, 95, 111, 187, 177, 164, 3, 0.903581
193, 6, bw, attraction, a-b-db, 2, 3, 7, 3, 120, 195, 119, 193, 195, 120, 1, 1.36923
193, 6, bw, attraction, a-b-db, 2, 3, 7, 3, 120, 195, 119, 193, 195, 120, 3, 0.529542
193, 6, bw, filler, NA, 999, 999, 7, 4, 153, 145, 158, 68, 131, 60, 1, 0.865882
193, 6, bw, filler, NA, 999, 999, 7, 4, 153, 145, 158, 68, 131, 60, 3, 1.11833
193, 6, bw, attraction, a-b-da, 9, 2, 7, 5, 157, 86, 165, 90, 90, 165, 3, 2.59117
193, 6, bw, attraction, a-b-da, 9, 2, 7, 5, 157, 86, 165, 90, 90, 165, 2, 0.573632
193, 6, bw, attraction, a-b-da, 2, 2, 7, 6, 90, 165, 165, 90, 163, 89, 1, 1.75611
193, 6, bw, attraction, a-b-da, 2, 2, 7, 6, 90, 165, 165, 90, 163, 89, 2, 0.524189
193, 6, bw, filler, NA, 999, 999, 7, 7, 171, 140, 74, 99, 193, 78, 1, 0.516721
193, 6, bw, filler, NA, 999, 999, 7, 7, 171, 140, 74, 99, 193, 78, 2, 0.399055
193, 6, bw, attraction, a-b-da, 9, 1, 7, 8, 135, 60, 129, 57, 60, 135, 1, 0.804928
193, 6, bw, attraction, a-b-da, 9, 1, 7, 8, 135, 60, 129, 57, 60, 135, 2, 0.95535
193, 6, bw, attraction, a-b-da, 14, 1, 7, 9, 125, 56, 60, 135, 135, 60, 1, 1.99489
193, 6, bw, attraction, a-b-da, 14, 1, 7, 9, 125, 56, 60, 135, 135, 60, 2, 0.513661
193, 6, bw, attraction, a-b-da, 14, 2, 7, 10, 90, 165, 153, 83, 165, 90, 1, 0.922697
193, 6, bw, attraction, a-b-da, 14, 2, 7, 10, 90, 165, 153, 83, 165, 90, 2, 0.644549
193, 6, bw, filler, NA, 999, 999, 7, 11, 68, 101, 167, 162, 83, 190, 2, 1.36019
193, 6, bw, filler, NA, 999, 999, 7, 11, 68, 101, 167, 162, 83, 190, 1, 0.696381
193, 6, bw, attraction, a-b-da, 5, 3, 7, 12, 190, 117, 120, 195, 195, 120, 2, 1.79411
193, 6, bw, attraction, a-b-da, 5, 3, 7, 12, 190, 117, 120, 195, 195, 120, 1, 0.592845
193, 6, bw, attraction, a-b-da, 5, 1, 7, 13, 132, 58, 60, 135, 135, 60, 2, 0.75063
193, 6, bw, attraction, a-b-da, 5, 1, 7, 13, 132, 58, 60, 135, 135, 60, 1, 0.456444
193, 6, bw, attraction, a-b-db, 5, 2, 7, 14, 165, 90, 88, 161, 90, 165, 1, 1.5069
193, 6, bw, attraction, a-b-db, 5, 2, 7, 14, 165, 90, 88, 161, 90, 165, 2, 0.316988
193, 6, bw, filler, NA, 999, 999, 7, 15, 178, 91, 120, 125, 132, 130, 1, 1.07018
193, 6, bw, filler, NA, 999, 999, 7, 15, 178, 91, 120, 125, 132, 130, 2, 0.617857
193, 6, bw, attraction, a-b-db, 14, 3, 7, 16, 120, 195, 111, 181, 195, 120, 1, 0.63889
193, 6, bw, attraction, a-b-db, 14, 3, 7, 16, 120, 195, 111, 181, 195, 120, 2, 0.499988
193, 6, bw, catch, NA, 999, 999, 7, 17, 156, 99, 164, 151, 65, 130, 2, 0.749785
193, 6, bw, catch, NA, 999, 999, 7, 17, 156, 99, 164, 151, 65, 130, 3, 0.81485
193, 6, bw, filler, NA, 999, 999, 7, 18, 88, 93, 115, 112, 71, 66, 2, 0.763879
193, 6, bw, filler, NA, 999, 999, 7, 18, 88, 93, 115, 112, 71, 66, 3, 1.03629
193, 6, bw, attraction, a-b-db, 9, 2, 7, 19, 90, 165, 165, 90, 86, 157, 2, 0.840472
193, 6, bw, attraction, a-b-db, 9, 2, 7, 19, 90, 165, 165, 90, 86, 157, 1, 0.557531
193, 6, bw, attraction, a-b-da, 14, 3, 7, 20, 195, 120, 181, 111, 120, 195, 1, 1.09285
193, 6, bw, attraction, a-b-da, 14, 3, 7, 20, 195, 120, 181, 111, 120, 195, 2, 0.383571
193, 6, bw, attraction, a-b-db, 5, 1, 7, 21, 135, 60, 58, 132, 60, 135, 2, 0.758067
193, 6, bw, attraction, a-b-db, 5, 1, 7, 21, 135, 60, 58, 132, 60, 135, 1, 0.846662
193, 6, bw, attraction, a-b-db, 14, 2, 7, 22, 83, 153, 90, 165, 165, 90, 2, 0.682194
193, 6, bw, attraction, a-b-db, 14, 2, 7, 22, 83, 153, 90, 165, 165, 90, 1, 0.565952
193, 6, bw, filler, NA, 999, 999, 7, 23, 159, 70, 189, 162, 96, 147, 2, 0.541034
193, 6, bw, filler, NA, 999, 999, 7, 23, 159, 70, 189, 162, 96, 147, 1, 0.998242
193, 6, bw, attraction, a-b-da, 5, 2, 7, 24, 161, 88, 165, 90, 90, 165, 1, 1.16385
193, 6, bw, attraction, a-b-da, 5, 2, 7, 24, 161, 88, 165, 90, 90, 165, 2, 0.444257
193, 6, bw, filler, NA, 999, 999, 7, 25, 57, 111, 57, 160, 143, 134, 3, 1.04796
193, 6, bw, filler, NA, 999, 999, 7, 25, 57, 111, 57, 160, 143, 134, 1, 1.17291
193, 6, bw, catch, NA, 999, 999, 7, 26, 145, 110, 185, 130, 107, 88, 2, 1.66706
193, 6, bw, catch, NA, 999, 999, 7, 26, 145, 110, 185, 130, 107, 88, 3, 0.56725
193, 6, bw, filler, NA, 999, 999, 7, 27, 182, 167, 169, 128, 171, 164, 1, 1.16635
193, 6, bw, filler, NA, 999, 999, 7, 27, 182, 167, 169, 128, 171, 164, 2, 0.32668
193, 6, bw, attraction, a-b-db, 2, 1, 7, 28, 59, 134, 60, 135, 135, 60, 1, 0.94313
193, 6, bw, attraction, a-b-db, 2, 1, 7, 28, 59, 134, 60, 135, 135, 60, 2, 0.384072
193, 6, bw, attraction, a-b-da, 2, 1, 7, 29, 60, 135, 134, 59, 135, 60, 1, 0.670675
193, 6, bw, attraction, a-b-da, 2, 1, 7, 29, 60, 135, 134, 59, 135, 60, 2, 0.610341
193, 6, bw, filler, NA, 999, 999, 7, 30, 155, 124, 112, 85, 139, 111, 1, 0.591484
193, 6, bw, filler, NA, 999, 999, 7, 30, 155, 124, 112, 85, 139, 111, 2, 0.438555
193, 6, bw, attraction, a-b-db, 9, 3, 7, 31, 195, 120, 120, 195, 114, 186, 1, 0.707044
193, 6, bw, attraction, a-b-db, 9, 3, 7, 31, 195, 120, 120, 195, 114, 186, 2, 0.413453
193, 6, bw, attraction, a-b-da, 9, 3, 7, 32, 120, 195, 186, 114, 195, 120, 1, 0.746632
193, 6, bw, attraction, a-b-da, 9, 3, 7, 32, 120, 195, 186, 114, 195, 120, 2, 0.755659
193, 6, bw, attraction, a-b-db, 9, 1, 7, 33, 57, 129, 60, 135, 135, 60, 1, 0.643388
193, 6, bw, attraction, a-b-db, 9, 1, 7, 33, 57, 129, 60, 135, 135, 60, 2, 0.352614
193, 6, bw, attraction, a-b-da, 2, 3, 7, 34, 195, 120, 193, 119, 120, 195, 1, 1.1044
193, 6, bw, attraction, a-b-da, 2, 3, 7, 34, 195, 120, 193, 119, 120, 195, 2, 0.482618
193, 6, bw, catch, NA, 999, 999, 7, 35, 124, 131, 64, 131, 142, 173, 3, 1.06107
193, 6, bw, catch, NA, 999, 999, 7, 35, 124, 131, 64, 131, 142, 173, 2, 0.729405
193, 6, bw, attraction, a-b-db, 14, 1, 7, 36, 135, 60, 56, 125, 60, 135, 1, 1.18577
193, 6, bw, attraction, a-b-db, 14, 1, 7, 36, 135, 60, 56, 125, 60, 135, 2, 0.793364
193, 6, bw, attraction, a-b-db, 5, 3, 7, 37, 195, 120, 120, 195, 117, 190, 1, 2.00714
193, 6, bw, attraction, a-b-db, 5, 3, 7, 37, 195, 120, 120, 195, 117, 190, 2, 0.509144
193, 6, bw, attraction, a-b-db, 9, 2, 8, 1, 90, 165, 165, 90, 86, 157, 3, 0.686227
193, 6, bw, attraction, a-b-db, 9, 2, 8, 1, 90, 165, 165, 90, 86, 157, 2, 0.410521
193, 6, bw, attraction, a-b-da, 2, 3, 8, 2, 193, 119, 120, 195, 195, 120, 1, 0.759203
193, 6, bw, attraction, a-b-da, 2, 3, 8, 2, 193, 119, 120, 195, 195, 120, 2, 0.367465
193, 6, bw, filler, NA, 999, 999, 8, 3, 121, 110, 159, 75, 164, 105, 3, 0.542833
193, 6, bw, filler, NA, 999, 999, 8, 3, 121, 110, 159, 75, 164, 105, 2, 0.567788
193, 6, bw, filler, NA, 999, 999, 8, 4, 185, 136, 72, 165, 73, 183, 1, 0.646895
193, 6, bw, filler, NA, 999, 999, 8, 4, 185, 136, 72, 165, 73, 183, 2, 0.452011
193, 6, bw, attraction, a-b-da, 9, 2, 8, 5, 165, 90, 157, 86, 90, 165, 3, 0.599838
193, 6, bw, attraction, a-b-da, 9, 2, 8, 5, 165, 90, 157, 86, 90, 165, 2, 0.390947
193, 6, bw, attraction, a-b-da, 2, 2, 8, 6, 90, 165, 163, 89, 165, 90, 1, 0.532802
193, 6, bw, attraction, a-b-da, 2, 2, 8, 6, 90, 165, 163, 89, 165, 90, 2, 0.654564
193, 6, bw, attraction, a-b-db, 2, 3, 8, 7, 195, 120, 120, 195, 119, 193, 3, 0.730339
193, 6, bw, attraction, a-b-db, 2, 3, 8, 7, 195, 120, 120, 195, 119, 193, 2, 0.524066
193, 6, bw, attraction, a-b-da, 9, 3, 8, 8, 195, 120, 186, 114, 120, 195, 1, 1.0444
193, 6, bw, attraction, a-b-da, 9, 3, 8, 8, 195, 120, 186, 114, 120, 195, 2, 0.46545
193, 6, bw, attraction, a-b-da, 5, 2, 8, 9, 165, 90, 90, 165, 161, 88, 3, 1.1086
193, 6, bw, attraction, a-b-da, 5, 2, 8, 9, 165, 90, 90, 165, 161, 88, 2, 0.454904
193, 6, bw, attraction, a-b-db, 9, 1, 8, 10, 57, 129, 60, 135, 135, 60, 1, 0.578647
193, 6, bw, attraction, a-b-db, 9, 1, 8, 10, 57, 129, 60, 135, 135, 60, 2, 0.426493
193, 6, bw, filler, NA, 999, 999, 8, 11, 78, 60, 183, 121, 90, 112, 3, 0.454946
193, 6, bw, filler, NA, 999, 999, 8, 11, 78, 60, 183, 121, 90, 112, 2, 0.347442
193, 6, bw, attraction, a-b-da, 9, 1, 8, 12, 135, 60, 60, 135, 129, 57, 1, 1.09134
193, 6, bw, attraction, a-b-da, 9, 1, 8, 12, 135, 60, 60, 135, 129, 57, 2, 0.486324
193, 6, bw, attraction, a-b-da, 2, 1, 8, 13, 60, 135, 134, 59, 135, 60, 2, 1.10474
193, 6, bw, attraction, a-b-da, 2, 1, 8, 13, 60, 135, 134, 59, 135, 60, 1, 0.547022
193, 6, bw, filler, NA, 999, 999, 8, 14, 149, 165, 76, 168, 173, 112, 1, 1.09081
193, 6, bw, filler, NA, 999, 999, 8, 14, 149, 165, 76, 168, 173, 112, 2, 0.317717
193, 6, bw, attraction, a-b-da, 5, 3, 8, 15, 190, 117, 195, 120, 120, 195, 1, 1.21488
193, 6, bw, attraction, a-b-da, 5, 3, 8, 15, 190, 117, 195, 120, 120, 195, 2, 0.373273
193, 6, bw, filler, NA, 999, 999, 8, 16, 101, 90, 155, 105, 154, 98, 2, 1.58758
193, 6, bw, filler, NA, 999, 999, 8, 16, 101, 90, 155, 105, 154, 98, 1, 0.386394
193, 6, bw, attraction, a-b-db, 5, 3, 8, 17, 195, 120, 120, 195, 117, 190, 1, 0.952955
193, 6, bw, attraction, a-b-db, 5, 3, 8, 17, 195, 120, 120, 195, 117, 190, 2, 0.369298
193, 6, bw, attraction, a-b-db, 2, 2, 8, 18, 89, 163, 165, 90, 90, 165, 2, 2.06446
193, 6, bw, attraction, a-b-db, 2, 2, 8, 18, 89, 163, 165, 90, 90, 165, 1, 0.508439
193, 6, bw, filler, NA, 999, 999, 8, 19, 85, 70, 98, 144, 189, 163, 3, 0.989548
193, 6, bw, filler, NA, 999, 999, 8, 19, 85, 70, 98, 144, 189, 163, 1, 0.596552
193, 6, bw, attraction, a-b-da, 14, 1, 8, 20, 125, 56, 60, 135, 135, 60, 2, 1.50637
193, 6, bw, attraction, a-b-da, 14, 1, 8, 20, 125, 56, 60, 135, 135, 60, 1, 0.476597
193, 6, bw, filler, NA, 999, 999, 8, 21, 127, 193, 156, 70, 131, 165, 1, 0.862895
193, 6, bw, filler, NA, 999, 999, 8, 21, 127, 193, 156, 70, 131, 165, 2, 0.387281
193, 6, bw, attraction, a-b-da, 14, 2, 8, 22, 153, 83, 90, 165, 165, 90, 2, 1.28179
193, 6, bw, attraction, a-b-da, 14, 2, 8, 22, 153, 83, 90, 165, 165, 90, 1, 0.46933
193, 6, bw, attraction, a-b-db, 2, 1, 8, 23, 59, 134, 135, 60, 60, 135, 1, 0.872427
193, 6, bw, attraction, a-b-db, 2, 1, 8, 23, 59, 134, 135, 60, 60, 135, 2, 0.380309
193, 6, bw, attraction, a-b-db, 5, 1, 8, 24, 135, 60, 58, 132, 60, 135, 1, 1.01869
193, 6, bw, attraction, a-b-db, 5, 1, 8, 24, 135, 60, 58, 132, 60, 135, 2, 0.937015
193, 6, bw, filler, NA, 999, 999, 8, 25, 195, 117, 85, 66, 110, 69, 1, 2.32142
193, 6, bw, filler, NA, 999, 999, 8, 25, 195, 117, 85, 66, 110, 69, 2, 1.28253
193, 6, bw, attraction, a-b-da, 5, 1, 8, 26, 132, 58, 60, 135, 135, 60, 1, 0.772784
193, 6, bw, attraction, a-b-da, 5, 1, 8, 26, 132, 58, 60, 135, 135, 60, 2, 0.404485
193, 6, bw, attraction, a-b-db, 14, 3, 8, 27, 120, 195, 111, 181, 195, 120, 1, 0.898421
193, 6, bw, attraction, a-b-db, 14, 3, 8, 27, 120, 195, 111, 181, 195, 120, 2, 0.357523
193, 6, bw, attraction, a-b-db, 9, 3, 8, 28, 120, 195, 195, 120, 114, 186, 1, 1.20456
193, 6, bw, attraction, a-b-db, 9, 3, 8, 28, 120, 195, 195, 120, 114, 186, 2, 0.306917
193, 6, bw, filler, NA, 999, 999, 8, 29, 153, 99, 78, 113, 104, 101, 1, 1.02004
193, 6, bw, filler, NA, 999, 999, 8, 29, 153, 99, 78, 113, 104, 101, 2, 1.08167
193, 6, bw, attraction, a-b-db, 14, 2, 8, 30, 165, 90, 83, 153, 90, 165, 1, 1.74785
193, 6, bw, attraction, a-b-db, 14, 2, 8, 30, 165, 90, 83, 153, 90, 165, 2, 0.516607
193, 6, bw, attraction, a-b-da, 14, 3, 8, 31, 120, 195, 195, 120, 181, 111, 1, 0.669866
193, 6, bw, attraction, a-b-da, 14, 3, 8, 31, 120, 195, 195, 120, 181, 111, 2, 0.682272
193, 6, bw, catch, NA, 999, 999, 8, 32, 150, 105, 143, 172, 114, 81, 2, 0.908562
193, 6, bw, catch, NA, 999, 999, 8, 32, 150, 105, 143, 172, 114, 81, 3, 0.830991
193, 6, bw, catch, NA, 999, 999, 8, 33, 106, 89, 149, 106, 190, 125, 3, 0.995261
193, 6, bw, catch, NA, 999, 999, 8, 33, 106, 89, 149, 106, 190, 125, 1, 0.434371
193, 6, bw, filler, NA, 999, 999, 8, 34, 115, 120, 178, 149, 142, 142, 2, 1.7188
193, 6, bw, filler, NA, 999, 999, 8, 34, 115, 120, 178, 149, 142, 142, 1, 0.424904
193, 6, bw, attraction, a-b-db, 14, 1, 8, 35, 56, 125, 60, 135, 135, 60, 2, 2.08539
193, 6, bw, attraction, a-b-db, 14, 1, 8, 35, 56, 125, 60, 135, 135, 60, 1, 0.536663
193, 6, bw, attraction, a-b-db, 5, 2, 8, 36, 88, 161, 90, 165, 165, 90, 1, 1.20905
193, 6, bw, attraction, a-b-db, 5, 2, 8, 36, 88, 161, 90, 165, 165, 90, 2, 0.583379
193, 6, bw, catch, NA, 999, 999, 8, 37, 177, 138, 66, 129, 141, 114, 1, 0.741924
193, 6, bw, catch, NA, 999, 999, 8, 37, 177, 138, 66, 129, 141, 114, 2, 0.566898
