sub_n, computer_n, bw_cond, effect, set, distance, diag, block_n, trial_n, h1, w1, h2, w2, h3, w3, choice, rt 
113, 6, bw, practice, NA, 999, 999, 0, 1, 183, 158, 142, 167, 170, 143, 1, 4.35503
113, 6, bw, practice, NA, 999, 999, 0, 1, 183, 158, 142, 167, 170, 143, 3, 3.69932
113, 6, bw, practice, NA, 999, 999, 0, 2, 147, 64, 168, 121, 124, 90, 2, 2.51059
113, 6, bw, practice, NA, 999, 999, 0, 2, 147, 64, 168, 121, 124, 90, 1, 2.41723
113, 6, bw, practice, NA, 999, 999, 0, 3, 181, 175, 176, 172, 140, 182, 2, 3.01809
113, 6, bw, practice, NA, 999, 999, 0, 3, 181, 175, 176, 172, 140, 182, 3, 1.87302
113, 6, bw, filler, NA, 999, 999, 1, 1, 121, 195, 165, 114, 169, 123, 1, 4.33533
113, 6, bw, filler, NA, 999, 999, 1, 1, 121, 195, 165, 114, 169, 123, 2, 1.29608
113, 6, bw, catch, NA, 999, 999, 1, 2, 169, 146, 116, 139, 126, 69, 1, 1.62552
113, 6, bw, catch, NA, 999, 999, 1, 2, 169, 146, 116, 139, 126, 69, 3, 1.19906
113, 6, bw, attraction, a-b-db, 14, 2, 1, 3, 90, 165, 165, 90, 83, 153, 1, 3.19657
113, 6, bw, attraction, a-b-db, 14, 2, 1, 3, 90, 165, 165, 90, 83, 153, 3, 1.20297
113, 6, bw, attraction, a-b-da, 14, 3, 1, 4, 120, 195, 181, 111, 195, 120, 1, 2.40839
113, 6, bw, attraction, a-b-da, 14, 3, 1, 4, 120, 195, 181, 111, 195, 120, 2, 0.934346
113, 6, bw, attraction, a-b-db, 9, 2, 1, 5, 165, 90, 90, 165, 86, 157, 2, 3.50264
113, 6, bw, attraction, a-b-db, 9, 2, 1, 5, 165, 90, 90, 165, 86, 157, 3, 1.69683
113, 6, bw, attraction, a-b-da, 5, 3, 1, 6, 120, 195, 190, 117, 195, 120, 1, 1.88225
113, 6, bw, attraction, a-b-da, 5, 3, 1, 6, 120, 195, 190, 117, 195, 120, 2, 0.861631
113, 6, bw, attraction, a-b-db, 5, 2, 1, 7, 88, 161, 165, 90, 90, 165, 2, 3.48066
113, 6, bw, attraction, a-b-db, 5, 2, 1, 7, 88, 161, 165, 90, 90, 165, 1, 1.05955
113, 6, bw, filler, NA, 999, 999, 1, 8, 129, 56, 94, 140, 158, 170, 3, 1.22246
113, 6, bw, filler, NA, 999, 999, 1, 8, 129, 56, 94, 140, 158, 170, 1, 0.900083
113, 6, bw, filler, NA, 999, 999, 1, 9, 157, 97, 134, 106, 143, 94, 1, 2.21374
113, 6, bw, filler, NA, 999, 999, 1, 9, 157, 97, 134, 106, 143, 94, 3, 0.987767
113, 6, bw, attraction, a-b-da, 5, 2, 1, 10, 161, 88, 90, 165, 165, 90, 2, 1.88201
113, 6, bw, attraction, a-b-da, 5, 2, 1, 10, 161, 88, 90, 165, 165, 90, 1, 2.69333
113, 6, bw, filler, NA, 999, 999, 1, 11, 170, 99, 63, 97, 91, 70, 1, 1.82255
113, 6, bw, filler, NA, 999, 999, 1, 11, 170, 99, 63, 97, 91, 70, 3, 0.571867
113, 6, bw, attraction, a-b-da, 9, 1, 1, 12, 60, 135, 135, 60, 129, 57, 1, 2.25108
113, 6, bw, attraction, a-b-da, 9, 1, 1, 12, 60, 135, 135, 60, 129, 57, 3, 0.831626
113, 6, bw, attraction, a-b-db, 14, 1, 1, 13, 60, 135, 135, 60, 56, 125, 1, 3.25193
113, 6, bw, attraction, a-b-db, 14, 1, 1, 13, 60, 135, 135, 60, 56, 125, 3, 0.728209
113, 6, bw, attraction, a-b-db, 14, 3, 1, 14, 111, 181, 120, 195, 195, 120, 2, 1.52056
113, 6, bw, attraction, a-b-db, 14, 3, 1, 14, 111, 181, 120, 195, 195, 120, 1, 1.71419
113, 6, bw, filler, NA, 999, 999, 1, 15, 190, 138, 78, 76, 135, 84, 1, 1.50682
113, 6, bw, filler, NA, 999, 999, 1, 15, 190, 138, 78, 76, 135, 84, 2, 0.82103
113, 6, bw, attraction, a-b-da, 5, 1, 1, 16, 135, 60, 60, 135, 132, 58, 2, 2.08996
113, 6, bw, attraction, a-b-da, 5, 1, 1, 16, 135, 60, 60, 135, 132, 58, 3, 1.34068
113, 6, bw, attraction, a-b-da, 2, 1, 1, 17, 134, 59, 135, 60, 60, 135, 3, 2.72431
113, 6, bw, attraction, a-b-da, 2, 1, 1, 17, 134, 59, 135, 60, 60, 135, 1, 1.40533
113, 6, bw, catch, NA, 999, 999, 1, 18, 150, 105, 117, 78, 140, 175, 3, 1.23478
113, 6, bw, catch, NA, 999, 999, 1, 18, 150, 105, 117, 78, 140, 175, 2, 1.0324
113, 6, bw, filler, NA, 999, 999, 1, 19, 141, 182, 123, 177, 149, 61, 1, 0.96465
113, 6, bw, filler, NA, 999, 999, 1, 19, 141, 182, 123, 177, 149, 61, 3, 1.46915
113, 6, bw, filler, NA, 999, 999, 1, 20, 175, 173, 149, 142, 90, 74, 1, 0.991856
113, 6, bw, filler, NA, 999, 999, 1, 20, 175, 173, 149, 142, 90, 74, 3, 0.854891
113, 6, bw, attraction, a-b-db, 5, 3, 1, 21, 117, 190, 195, 120, 120, 195, 3, 1.44263
113, 6, bw, attraction, a-b-db, 5, 3, 1, 21, 117, 190, 195, 120, 120, 195, 1, 0.495385
113, 6, bw, attraction, a-b-db, 5, 1, 1, 22, 60, 135, 58, 132, 135, 60, 1, 2.81719
113, 6, bw, attraction, a-b-db, 5, 1, 1, 22, 60, 135, 58, 132, 135, 60, 3, 1.93501
113, 6, bw, attraction, a-b-db, 9, 3, 1, 23, 120, 195, 195, 120, 114, 186, 2, 1.45497
113, 6, bw, attraction, a-b-db, 9, 3, 1, 23, 120, 195, 195, 120, 114, 186, 3, 0.763215
113, 6, bw, attraction, a-b-db, 2, 2, 1, 24, 165, 90, 89, 163, 90, 165, 2, 3.37013
113, 6, bw, attraction, a-b-db, 2, 2, 1, 24, 165, 90, 89, 163, 90, 165, 3, 0.569849
113, 6, bw, attraction, a-b-db, 2, 1, 1, 25, 135, 60, 60, 135, 59, 134, 2, 3.12885
113, 6, bw, attraction, a-b-db, 2, 1, 1, 25, 135, 60, 60, 135, 59, 134, 3, 0.585852
113, 6, bw, filler, NA, 999, 999, 1, 26, 86, 132, 143, 172, 188, 137, 2, 1.89623
113, 6, bw, filler, NA, 999, 999, 1, 26, 86, 132, 143, 172, 188, 137, 1, 0.931051
113, 6, bw, attraction, a-b-da, 2, 3, 1, 27, 195, 120, 193, 119, 120, 195, 1, 2.86727
113, 6, bw, attraction, a-b-da, 2, 3, 1, 27, 195, 120, 193, 119, 120, 195, 2, 0.92711
113, 6, bw, filler, NA, 999, 999, 1, 28, 139, 116, 105, 166, 170, 152, 3, 1.3649
113, 6, bw, filler, NA, 999, 999, 1, 28, 139, 116, 105, 166, 170, 152, 1, 1.39155
113, 6, bw, filler, NA, 999, 999, 1, 29, 126, 86, 180, 112, 148, 79, 2, 1.581
113, 6, bw, filler, NA, 999, 999, 1, 29, 126, 86, 180, 112, 148, 79, 1, 0.892562
113, 6, bw, attraction, a-b-da, 9, 3, 1, 30, 120, 195, 186, 114, 195, 120, 1, 2.43826
113, 6, bw, attraction, a-b-da, 9, 3, 1, 30, 120, 195, 186, 114, 195, 120, 2, 0.642744
113, 6, bw, catch, NA, 999, 999, 1, 31, 160, 95, 88, 107, 155, 160, 3, 0.99848
113, 6, bw, catch, NA, 999, 999, 1, 31, 160, 95, 88, 107, 155, 160, 2, 0.885631
113, 6, bw, attraction, a-b-da, 9, 2, 1, 32, 165, 90, 157, 86, 90, 165, 3, 4.04779
113, 6, bw, attraction, a-b-da, 9, 2, 1, 32, 165, 90, 157, 86, 90, 165, 2, 0.883963
113, 6, bw, attraction, a-b-da, 14, 2, 1, 33, 90, 165, 165, 90, 153, 83, 2, 2.59032
113, 6, bw, attraction, a-b-da, 14, 2, 1, 33, 90, 165, 165, 90, 153, 83, 3, 1.14878
113, 6, bw, attraction, a-b-da, 14, 1, 1, 34, 125, 56, 60, 135, 135, 60, 2, 3.5003
113, 6, bw, attraction, a-b-da, 14, 1, 1, 34, 125, 56, 60, 135, 135, 60, 1, 0.542473
113, 6, bw, attraction, a-b-db, 9, 1, 1, 35, 57, 129, 135, 60, 60, 135, 3, 3.24619
113, 6, bw, attraction, a-b-db, 9, 1, 1, 35, 57, 129, 135, 60, 60, 135, 1, 0.602542
113, 6, bw, attraction, a-b-da, 2, 2, 1, 36, 163, 89, 165, 90, 90, 165, 3, 1.32844
113, 6, bw, attraction, a-b-da, 2, 2, 1, 36, 163, 89, 165, 90, 90, 165, 2, 0.609923
113, 6, bw, attraction, a-b-db, 2, 3, 1, 37, 119, 193, 195, 120, 120, 195, 1, 2.24693
113, 6, bw, attraction, a-b-db, 2, 3, 1, 37, 119, 193, 195, 120, 120, 195, 2, 0.651627
113, 6, bw, filler, NA, 999, 999, 2, 1, 98, 168, 146, 185, 138, 195, 2, 2.93521
113, 6, bw, filler, NA, 999, 999, 2, 1, 98, 168, 146, 185, 138, 195, 1, 0.94428
113, 6, bw, attraction, a-b-da, 9, 2, 2, 2, 165, 90, 90, 165, 157, 86, 2, 2.63994
113, 6, bw, attraction, a-b-da, 9, 2, 2, 2, 165, 90, 90, 165, 157, 86, 3, 2.41247
113, 6, bw, filler, NA, 999, 999, 2, 3, 172, 162, 106, 67, 125, 126, 1, 1.28911
113, 6, bw, filler, NA, 999, 999, 2, 3, 172, 162, 106, 67, 125, 126, 2, 0.515925
113, 6, bw, attraction, a-b-da, 14, 2, 2, 4, 153, 83, 90, 165, 165, 90, 2, 2.549
113, 6, bw, attraction, a-b-da, 14, 2, 2, 4, 153, 83, 90, 165, 165, 90, 1, 1.45344
113, 6, bw, attraction, a-b-da, 5, 3, 2, 5, 195, 120, 120, 195, 190, 117, 2, 2.48114
113, 6, bw, attraction, a-b-da, 5, 3, 2, 5, 195, 120, 120, 195, 190, 117, 3, 0.676172
113, 6, bw, attraction, a-b-da, 14, 1, 2, 6, 135, 60, 60, 135, 125, 56, 2, 2.60667
113, 6, bw, attraction, a-b-da, 14, 1, 2, 6, 135, 60, 60, 135, 125, 56, 3, 0.676395
113, 6, bw, attraction, a-b-db, 14, 3, 2, 7, 111, 181, 120, 195, 195, 120, 2, 1.44683
113, 6, bw, attraction, a-b-db, 14, 3, 2, 7, 111, 181, 120, 195, 195, 120, 1, 0.571711
113, 6, bw, attraction, a-b-da, 2, 1, 2, 8, 135, 60, 134, 59, 60, 135, 3, 3.21076
113, 6, bw, attraction, a-b-da, 2, 1, 2, 8, 135, 60, 134, 59, 60, 135, 2, 1.06451
113, 6, bw, attraction, a-b-db, 2, 3, 2, 9, 119, 193, 195, 120, 120, 195, 1, 3.31536
113, 6, bw, attraction, a-b-db, 2, 3, 2, 9, 119, 193, 195, 120, 120, 195, 2, 0.604986
113, 6, bw, attraction, a-b-da, 14, 3, 2, 10, 195, 120, 120, 195, 181, 111, 2, 2.5707
113, 6, bw, attraction, a-b-da, 14, 3, 2, 10, 195, 120, 120, 195, 181, 111, 3, 0.402493
113, 6, bw, attraction, a-b-db, 9, 3, 2, 11, 114, 186, 195, 120, 120, 195, 3, 1.88051
113, 6, bw, attraction, a-b-db, 9, 3, 2, 11, 114, 186, 195, 120, 120, 195, 1, 0.955899
113, 6, bw, filler, NA, 999, 999, 2, 12, 123, 115, 141, 180, 162, 83, 2, 0.803368
113, 6, bw, filler, NA, 999, 999, 2, 12, 123, 115, 141, 180, 162, 83, 3, 0.513787
113, 6, bw, filler, NA, 999, 999, 2, 13, 101, 76, 114, 124, 86, 184, 3, 4.13097
113, 6, bw, filler, NA, 999, 999, 2, 13, 101, 76, 114, 124, 86, 184, 1, 0.611603
113, 6, bw, catch, NA, 999, 999, 2, 14, 159, 96, 73, 122, 151, 164, 3, 1.4167
113, 6, bw, catch, NA, 999, 999, 2, 14, 159, 96, 73, 122, 151, 164, 2, 2.69489
113, 6, bw, attraction, a-b-db, 9, 1, 2, 15, 135, 60, 60, 135, 57, 129, 2, 1.66416
113, 6, bw, attraction, a-b-db, 9, 1, 2, 15, 135, 60, 60, 135, 57, 129, 3, 1.34007
113, 6, bw, attraction, a-b-db, 5, 3, 2, 16, 120, 195, 117, 190, 195, 120, 2, 1.78759
113, 6, bw, attraction, a-b-db, 5, 3, 2, 16, 120, 195, 117, 190, 195, 120, 1, 2.00235
113, 6, bw, catch, NA, 999, 999, 2, 17, 109, 146, 172, 143, 133, 62, 2, 1.56762
113, 6, bw, catch, NA, 999, 999, 2, 17, 109, 146, 172, 143, 133, 62, 3, 1.08778
113, 6, bw, filler, NA, 999, 999, 2, 18, 83, 61, 69, 62, 148, 95, 3, 2.05004
113, 6, bw, filler, NA, 999, 999, 2, 18, 83, 61, 69, 62, 148, 95, 2, 0.830795
113, 6, bw, attraction, a-b-db, 14, 2, 2, 19, 83, 153, 90, 165, 165, 90, 2, 1.32328
113, 6, bw, attraction, a-b-db, 14, 2, 2, 19, 83, 153, 90, 165, 165, 90, 1, 1.51679
113, 6, bw, attraction, a-b-db, 5, 1, 2, 20, 135, 60, 58, 132, 60, 135, 3, 4.46967
113, 6, bw, attraction, a-b-db, 5, 1, 2, 20, 135, 60, 58, 132, 60, 135, 1, 1.08067
113, 6, bw, attraction, a-b-da, 9, 1, 2, 21, 60, 135, 135, 60, 129, 57, 1, 4.59512
113, 6, bw, attraction, a-b-da, 9, 1, 2, 21, 60, 135, 135, 60, 129, 57, 2, 0.896894
113, 6, bw, attraction, a-b-db, 5, 2, 2, 22, 88, 161, 90, 165, 165, 90, 2, 1.46648
113, 6, bw, attraction, a-b-db, 5, 2, 2, 22, 88, 161, 90, 165, 165, 90, 3, 1.11871
113, 6, bw, filler, NA, 999, 999, 2, 23, 91, 72, 108, 100, 85, 76, 2, 0.703678
113, 6, bw, filler, NA, 999, 999, 2, 23, 91, 72, 108, 100, 85, 76, 1, 0.794194
113, 6, bw, attraction, a-b-da, 9, 3, 2, 24, 195, 120, 120, 195, 186, 114, 2, 1.10368
113, 6, bw, attraction, a-b-da, 9, 3, 2, 24, 195, 120, 120, 195, 186, 114, 3, 0.159747
113, 6, bw, attraction, a-b-da, 5, 2, 2, 25, 165, 90, 161, 88, 90, 165, 3, 2.60929
113, 6, bw, attraction, a-b-da, 5, 2, 2, 25, 165, 90, 161, 88, 90, 165, 2, 0.719126
113, 6, bw, catch, NA, 999, 999, 2, 26, 124, 191, 73, 122, 156, 99, 1, 0.936193
113, 6, bw, catch, NA, 999, 999, 2, 26, 124, 191, 73, 122, 156, 99, 2, 0.553788
113, 6, bw, filler, NA, 999, 999, 2, 27, 136, 81, 193, 159, 182, 60, 2, 0.849549
113, 6, bw, filler, NA, 999, 999, 2, 27, 136, 81, 193, 159, 182, 60, 1, 4.31082
113, 6, bw, attraction, a-b-db, 14, 1, 2, 28, 56, 125, 60, 135, 135, 60, 2, 4.20658
113, 6, bw, attraction, a-b-db, 14, 1, 2, 28, 56, 125, 60, 135, 135, 60, 3, 1.65184
113, 6, bw, filler, NA, 999, 999, 2, 29, 148, 142, 82, 146, 90, 99, 1, 0.895317
113, 6, bw, filler, NA, 999, 999, 2, 29, 148, 142, 82, 146, 90, 99, 2, 0.97034
113, 6, bw, attraction, a-b-db, 2, 1, 2, 30, 59, 134, 135, 60, 60, 135, 2, 2.12135
113, 6, bw, attraction, a-b-db, 2, 1, 2, 30, 59, 134, 135, 60, 60, 135, 1, 1.30662
113, 6, bw, attraction, a-b-da, 5, 1, 2, 31, 60, 135, 132, 58, 135, 60, 1, 1.55549
113, 6, bw, attraction, a-b-da, 5, 1, 2, 31, 60, 135, 132, 58, 135, 60, 2, 1.15563
113, 6, bw, attraction, a-b-db, 2, 2, 2, 32, 165, 90, 89, 163, 90, 165, 2, 2.41121
113, 6, bw, attraction, a-b-db, 2, 2, 2, 32, 165, 90, 89, 163, 90, 165, 3, 0.697088
113, 6, bw, attraction, a-b-db, 9, 2, 2, 33, 165, 90, 90, 165, 86, 157, 1, 2.31494
113, 6, bw, attraction, a-b-db, 9, 2, 2, 33, 165, 90, 90, 165, 86, 157, 3, 1.05267
113, 6, bw, filler, NA, 999, 999, 2, 34, 108, 188, 85, 158, 139, 134, 3, 2.04029
113, 6, bw, filler, NA, 999, 999, 2, 34, 108, 188, 85, 158, 139, 134, 2, 0.869023
113, 6, bw, attraction, a-b-da, 2, 3, 2, 35, 195, 120, 120, 195, 193, 119, 2, 1.44005
113, 6, bw, attraction, a-b-da, 2, 3, 2, 35, 195, 120, 120, 195, 193, 119, 3, 0.90895
113, 6, bw, filler, NA, 999, 999, 2, 36, 58, 126, 146, 195, 178, 70, 2, 1.06185
113, 6, bw, filler, NA, 999, 999, 2, 36, 58, 126, 146, 195, 178, 70, 1, 1.0822
113, 6, bw, attraction, a-b-da, 2, 2, 2, 37, 165, 90, 90, 165, 163, 89, 2, 3.9965
113, 6, bw, attraction, a-b-da, 2, 2, 2, 37, 165, 90, 90, 165, 163, 89, 1, 0.834475
113, 6, bw, filler, NA, 999, 999, 3, 1, 116, 100, 160, 177, 61, 174, 2, 0.750812
113, 6, bw, filler, NA, 999, 999, 3, 1, 116, 100, 160, 177, 61, 174, 3, 1.15192
113, 6, bw, attraction, a-b-db, 9, 1, 3, 2, 135, 60, 60, 135, 57, 129, 3, 1.67149
113, 6, bw, attraction, a-b-db, 9, 1, 3, 2, 135, 60, 60, 135, 57, 129, 1, 0.531053
113, 6, bw, filler, NA, 999, 999, 3, 3, 174, 155, 178, 168, 127, 62, 2, 0.995306
113, 6, bw, filler, NA, 999, 999, 3, 3, 174, 155, 178, 168, 127, 62, 3, 0.602416
113, 6, bw, attraction, a-b-db, 14, 2, 3, 4, 83, 153, 165, 90, 90, 165, 3, 1.67216
113, 6, bw, attraction, a-b-db, 14, 2, 3, 4, 83, 153, 165, 90, 90, 165, 1, 0.747677
113, 6, bw, attraction, a-b-da, 14, 1, 3, 5, 60, 135, 135, 60, 125, 56, 1, 1.6592
113, 6, bw, attraction, a-b-da, 14, 1, 3, 5, 60, 135, 135, 60, 125, 56, 3, 0.607366
113, 6, bw, catch, NA, 999, 999, 3, 6, 151, 104, 100, 95, 134, 181, 3, 1.29248
113, 6, bw, catch, NA, 999, 999, 3, 6, 151, 104, 100, 95, 134, 181, 2, 0.983413
113, 6, bw, attraction, a-b-da, 5, 1, 3, 7, 60, 135, 132, 58, 135, 60, 1, 1.78178
113, 6, bw, attraction, a-b-da, 5, 1, 3, 7, 60, 135, 132, 58, 135, 60, 2, 1.17483
113, 6, bw, catch, NA, 999, 999, 3, 8, 87, 108, 99, 156, 178, 137, 3, 0.931386
113, 6, bw, catch, NA, 999, 999, 3, 8, 87, 108, 99, 156, 178, 137, 1, 0.597029
113, 6, bw, attraction, a-b-db, 2, 1, 3, 9, 59, 134, 135, 60, 60, 135, 1, 3.25877
113, 6, bw, attraction, a-b-db, 2, 1, 3, 9, 59, 134, 135, 60, 60, 135, 3, 0.558713
113, 6, bw, filler, NA, 999, 999, 3, 10, 125, 133, 136, 90, 152, 100, 1, 1.25357
113, 6, bw, filler, NA, 999, 999, 3, 10, 125, 133, 136, 90, 152, 100, 2, 0.498482
113, 6, bw, filler, NA, 999, 999, 3, 11, 194, 119, 186, 138, 124, 147, 2, 1.30032
113, 6, bw, filler, NA, 999, 999, 3, 11, 194, 119, 186, 138, 124, 147, 3, 0.639285
113, 6, bw, filler, NA, 999, 999, 3, 12, 194, 166, 171, 143, 176, 125, 1, 1.30756
113, 6, bw, filler, NA, 999, 999, 3, 12, 194, 166, 171, 143, 176, 125, 3, 0.685814
113, 6, bw, attraction, a-b-da, 9, 1, 3, 13, 129, 57, 60, 135, 135, 60, 2, 1.86417
113, 6, bw, attraction, a-b-da, 9, 1, 3, 13, 129, 57, 60, 135, 135, 60, 1, 0.796233
113, 6, bw, attraction, a-b-da, 9, 2, 3, 14, 165, 90, 157, 86, 90, 165, 3, 1.80201
113, 6, bw, attraction, a-b-da, 9, 2, 3, 14, 165, 90, 157, 86, 90, 165, 2, 0.848723
113, 6, bw, catch, NA, 999, 999, 3, 15, 123, 192, 126, 69, 108, 147, 1, 0.660273
113, 6, bw, catch, NA, 999, 999, 3, 15, 123, 192, 126, 69, 108, 147, 2, 1.10475
113, 6, bw, attraction, a-b-db, 5, 2, 3, 16, 90, 165, 165, 90, 88, 161, 3, 1.69841
113, 6, bw, attraction, a-b-db, 5, 2, 3, 16, 90, 165, 165, 90, 88, 161, 1, 1.11719
113, 6, bw, attraction, a-b-db, 5, 1, 3, 17, 58, 132, 60, 135, 135, 60, 1, 4.29408
113, 6, bw, attraction, a-b-db, 5, 1, 3, 17, 58, 132, 60, 135, 135, 60, 3, 1.2882
113, 6, bw, attraction, a-b-da, 5, 2, 3, 18, 161, 88, 90, 165, 165, 90, 3, 2.61834
113, 6, bw, attraction, a-b-da, 5, 2, 3, 18, 161, 88, 90, 165, 165, 90, 2, 1.60805
113, 6, bw, filler, NA, 999, 999, 3, 19, 143, 96, 140, 186, 98, 97, 2, 0.676876
113, 6, bw, filler, NA, 999, 999, 3, 19, 143, 96, 140, 186, 98, 97, 3, 1.24068
113, 6, bw, attraction, a-b-da, 2, 1, 3, 20, 135, 60, 134, 59, 60, 135, 3, 4.9881
113, 6, bw, attraction, a-b-da, 2, 1, 3, 20, 135, 60, 134, 59, 60, 135, 1, 1.77788
113, 6, bw, attraction, a-b-da, 14, 3, 3, 21, 120, 195, 181, 111, 195, 120, 1, 1.16
113, 6, bw, attraction, a-b-da, 14, 3, 3, 21, 120, 195, 181, 111, 195, 120, 2, 0.648217
113, 6, bw, attraction, a-b-db, 2, 3, 3, 22, 195, 120, 120, 195, 119, 193, 2, 1.22798
113, 6, bw, attraction, a-b-db, 2, 3, 3, 22, 195, 120, 120, 195, 119, 193, 3, 1.25748
113, 6, bw, attraction, a-b-da, 2, 3, 3, 23, 193, 119, 120, 195, 195, 120, 2, 1.48441
113, 6, bw, attraction, a-b-da, 2, 3, 3, 23, 193, 119, 120, 195, 195, 120, 1, 0.495975
113, 6, bw, attraction, a-b-db, 14, 1, 3, 24, 60, 135, 56, 125, 135, 60, 1, 2.04164
113, 6, bw, attraction, a-b-db, 14, 1, 3, 24, 60, 135, 56, 125, 135, 60, 2, 0.982522
113, 6, bw, attraction, a-b-db, 14, 3, 3, 25, 111, 181, 195, 120, 120, 195, 2, 1.4528
113, 6, bw, attraction, a-b-db, 14, 3, 3, 25, 111, 181, 195, 120, 120, 195, 1, 0.865508
113, 6, bw, attraction, a-b-da, 9, 3, 3, 26, 120, 195, 195, 120, 186, 114, 1, 2.60453
113, 6, bw, attraction, a-b-da, 9, 3, 3, 26, 120, 195, 195, 120, 186, 114, 2, 0.506468
113, 6, bw, filler, NA, 999, 999, 3, 27, 192, 62, 180, 109, 107, 119, 2, 1.3394
113, 6, bw, filler, NA, 999, 999, 3, 27, 192, 62, 180, 109, 107, 119, 3, 1.57239
113, 6, bw, filler, NA, 999, 999, 3, 28, 117, 118, 185, 79, 173, 126, 3, 2.26726
113, 6, bw, filler, NA, 999, 999, 3, 28, 117, 118, 185, 79, 173, 126, 1, 0.911123
113, 6, bw, attraction, a-b-db, 2, 2, 3, 29, 165, 90, 90, 165, 89, 163, 2, 1.71218
113, 6, bw, attraction, a-b-db, 2, 2, 3, 29, 165, 90, 90, 165, 89, 163, 3, 1.18798
113, 6, bw, attraction, a-b-da, 2, 2, 3, 30, 90, 165, 165, 90, 163, 89, 1, 6.06444
113, 6, bw, attraction, a-b-da, 2, 2, 3, 30, 90, 165, 165, 90, 163, 89, 3, 0.667289
113, 6, bw, filler, NA, 999, 999, 3, 31, 153, 157, 156, 138, 174, 96, 1, 1.68619
113, 6, bw, filler, NA, 999, 999, 3, 31, 153, 157, 156, 138, 174, 96, 3, 0.953814
113, 6, bw, attraction, a-b-da, 5, 3, 3, 32, 190, 117, 195, 120, 120, 195, 2, 1.27333
113, 6, bw, attraction, a-b-da, 5, 3, 3, 32, 190, 117, 195, 120, 120, 195, 1, 1.44485
113, 6, bw, attraction, a-b-db, 9, 2, 3, 33, 86, 157, 90, 165, 165, 90, 2, 1.10429
113, 6, bw, attraction, a-b-db, 9, 2, 3, 33, 86, 157, 90, 165, 165, 90, 1, 0.514604
113, 6, bw, attraction, a-b-db, 9, 3, 3, 34, 114, 186, 120, 195, 195, 120, 3, 1.56379
113, 6, bw, attraction, a-b-db, 9, 3, 3, 34, 114, 186, 120, 195, 195, 120, 1, 0.827976
113, 6, bw, attraction, a-b-da, 14, 2, 3, 35, 165, 90, 153, 83, 90, 165, 1, 1.57632
113, 6, bw, attraction, a-b-da, 14, 2, 3, 35, 165, 90, 153, 83, 90, 165, 2, 0.431787
113, 6, bw, filler, NA, 999, 999, 3, 36, 157, 141, 88, 107, 194, 169, 3, 0.85226
113, 6, bw, filler, NA, 999, 999, 3, 36, 157, 141, 88, 107, 194, 169, 2, 0.593297
113, 6, bw, attraction, a-b-db, 5, 3, 3, 37, 195, 120, 117, 190, 120, 195, 1, 2.48703
113, 6, bw, attraction, a-b-db, 5, 3, 3, 37, 195, 120, 117, 190, 120, 195, 3, 0.570333
113, 6, bw, attraction, a-b-db, 14, 2, 4, 1, 165, 90, 83, 153, 90, 165, 1, 1.71334
113, 6, bw, attraction, a-b-db, 14, 2, 4, 1, 165, 90, 83, 153, 90, 165, 2, 0.723491
113, 6, bw, attraction, a-b-da, 2, 3, 4, 2, 193, 119, 120, 195, 195, 120, 2, 2.53179
113, 6, bw, attraction, a-b-da, 2, 3, 4, 2, 193, 119, 120, 195, 195, 120, 1, 0.628955
113, 6, bw, attraction, a-b-db, 9, 2, 4, 3, 165, 90, 90, 165, 86, 157, 2, 0.801402
113, 6, bw, attraction, a-b-db, 9, 2, 4, 3, 165, 90, 90, 165, 86, 157, 1, 0.576476
113, 6, bw, attraction, a-b-da, 2, 1, 4, 4, 134, 59, 135, 60, 60, 135, 3, 4.69492
113, 6, bw, attraction, a-b-da, 2, 1, 4, 4, 134, 59, 135, 60, 60, 135, 1, 0.392729
113, 6, bw, attraction, a-b-da, 5, 2, 4, 5, 165, 90, 161, 88, 90, 165, 3, 1.00649
113, 6, bw, attraction, a-b-da, 5, 2, 4, 5, 165, 90, 161, 88, 90, 165, 2, 0.556876
113, 6, bw, attraction, a-b-db, 5, 1, 4, 6, 58, 132, 135, 60, 60, 135, 1, 1.8201
113, 6, bw, attraction, a-b-db, 5, 1, 4, 6, 58, 132, 135, 60, 60, 135, 2, 0.370021
113, 6, bw, attraction, a-b-db, 2, 1, 4, 7, 60, 135, 135, 60, 59, 134, 3, 1.07321
113, 6, bw, attraction, a-b-db, 2, 1, 4, 7, 60, 135, 135, 60, 59, 134, 2, 0.572909
113, 6, bw, attraction, a-b-da, 9, 2, 4, 8, 157, 86, 165, 90, 90, 165, 2, 2.47532
113, 6, bw, attraction, a-b-da, 9, 2, 4, 8, 157, 86, 165, 90, 90, 165, 3, 0.598469
113, 6, bw, catch, NA, 999, 999, 4, 9, 147, 108, 74, 121, 146, 169, 3, 1.24429
113, 6, bw, catch, NA, 999, 999, 4, 9, 147, 108, 74, 121, 146, 169, 2, 0.433099
113, 6, bw, attraction, a-b-db, 9, 1, 4, 10, 60, 135, 57, 129, 135, 60, 1, 2.08562
113, 6, bw, attraction, a-b-db, 9, 1, 4, 10, 60, 135, 57, 129, 135, 60, 2, 0.74488
113, 6, bw, attraction, a-b-da, 5, 3, 4, 11, 120, 195, 190, 117, 195, 120, 1, 2.67263
113, 6, bw, attraction, a-b-da, 5, 3, 4, 11, 120, 195, 190, 117, 195, 120, 2, 0.411708
113, 6, bw, filler, NA, 999, 999, 4, 12, 102, 165, 157, 75, 92, 87, 1, 1.04094
113, 6, bw, filler, NA, 999, 999, 4, 12, 102, 165, 157, 75, 92, 87, 3, 0.877923
113, 6, bw, attraction, a-b-db, 2, 2, 4, 13, 89, 163, 90, 165, 165, 90, 2, 1.84826
113, 6, bw, attraction, a-b-db, 2, 2, 4, 13, 89, 163, 90, 165, 165, 90, 3, 0.548985
113, 6, bw, filler, NA, 999, 999, 4, 14, 121, 192, 165, 88, 131, 65, 1, 0.86873
113, 6, bw, filler, NA, 999, 999, 4, 14, 121, 192, 165, 88, 131, 65, 3, 0.8491
113, 6, bw, attraction, a-b-da, 2, 2, 4, 15, 163, 89, 90, 165, 165, 90, 2, 1.98086
113, 6, bw, attraction, a-b-da, 2, 2, 4, 15, 163, 89, 90, 165, 165, 90, 1, 1.14821
113, 6, bw, attraction, a-b-db, 5, 3, 4, 16, 195, 120, 117, 190, 120, 195, 2, 3.06771
113, 6, bw, attraction, a-b-db, 5, 3, 4, 16, 195, 120, 117, 190, 120, 195, 1, 0.727382
113, 6, bw, attraction, a-b-da, 9, 3, 4, 17, 120, 195, 186, 114, 195, 120, 1, 1.28776
113, 6, bw, attraction, a-b-da, 9, 3, 4, 17, 120, 195, 186, 114, 195, 120, 3, 0.562762
113, 6, bw, attraction, a-b-db, 5, 2, 4, 18, 165, 90, 90, 165, 88, 161, 2, 2.06576
113, 6, bw, attraction, a-b-db, 5, 2, 4, 18, 165, 90, 90, 165, 88, 161, 3, 1.22181
113, 6, bw, filler, NA, 999, 999, 4, 19, 73, 81, 149, 107, 72, 159, 2, 1.17863
113, 6, bw, filler, NA, 999, 999, 4, 19, 73, 81, 149, 107, 72, 159, 1, 0.618306
113, 6, bw, filler, NA, 999, 999, 4, 20, 130, 153, 94, 183, 173, 59, 1, 0.863328
113, 6, bw, filler, NA, 999, 999, 4, 20, 130, 153, 94, 183, 173, 59, 3, 0.875779
113, 6, bw, filler, NA, 999, 999, 4, 21, 163, 184, 78, 122, 97, 106, 1, 0.542038
113, 6, bw, filler, NA, 999, 999, 4, 21, 163, 184, 78, 122, 97, 106, 3, 2.7832
113, 6, bw, filler, NA, 999, 999, 4, 22, 60, 103, 169, 149, 127, 59, 2, 1.66893
113, 6, bw, filler, NA, 999, 999, 4, 22, 60, 103, 169, 149, 127, 59, 1, 3.00904
113, 6, bw, filler, NA, 999, 999, 4, 23, 193, 191, 125, 187, 58, 109, 1, 1.4054
113, 6, bw, filler, NA, 999, 999, 4, 23, 193, 191, 125, 187, 58, 109, 3, 0.931663
113, 6, bw, attraction, a-b-db, 14, 3, 4, 24, 195, 120, 120, 195, 111, 181, 2, 1.59594
113, 6, bw, attraction, a-b-db, 14, 3, 4, 24, 195, 120, 120, 195, 111, 181, 3, 0.874693
113, 6, bw, attraction, a-b-db, 2, 3, 4, 25, 120, 195, 195, 120, 119, 193, 2, 2.63703
113, 6, bw, attraction, a-b-db, 2, 3, 4, 25, 120, 195, 195, 120, 119, 193, 3, 0.729504
113, 6, bw, attraction, a-b-da, 9, 1, 4, 26, 60, 135, 135, 60, 129, 57, 3, 3.19383
113, 6, bw, attraction, a-b-da, 9, 1, 4, 26, 60, 135, 135, 60, 129, 57, 1, 1.08026
113, 6, bw, attraction, a-b-db, 9, 3, 4, 27, 120, 195, 114, 186, 195, 120, 1, 1.10653
113, 6, bw, attraction, a-b-db, 9, 3, 4, 27, 120, 195, 114, 186, 195, 120, 2, 1.25285
113, 6, bw, filler, NA, 999, 999, 4, 28, 95, 185, 155, 195, 91, 64, 2, 1.54434
113, 6, bw, filler, NA, 999, 999, 4, 28, 95, 185, 155, 195, 91, 64, 3, 1.0992
113, 6, bw, attraction, a-b-db, 14, 1, 4, 29, 135, 60, 60, 135, 56, 125, 2, 5.13082
113, 6, bw, attraction, a-b-db, 14, 1, 4, 29, 135, 60, 60, 135, 56, 125, 3, 1.02719
113, 6, bw, filler, NA, 999, 999, 4, 30, 62, 107, 82, 131, 68, 78, 2, 0.647372
113, 6, bw, filler, NA, 999, 999, 4, 30, 62, 107, 82, 131, 68, 78, 3, 0.740664
113, 6, bw, catch, NA, 999, 999, 4, 31, 164, 91, 134, 61, 147, 168, 3, 1.0042
113, 6, bw, catch, NA, 999, 999, 4, 31, 164, 91, 134, 61, 147, 168, 2, 0.402485
113, 6, bw, catch, NA, 999, 999, 4, 32, 178, 137, 96, 159, 118, 77, 1, 0.968366
113, 6, bw, catch, NA, 999, 999, 4, 32, 178, 137, 96, 159, 118, 77, 3, 0.568794
113, 6, bw, attraction, a-b-da, 14, 3, 4, 33, 181, 111, 195, 120, 120, 195, 2, 1.14379
113, 6, bw, attraction, a-b-da, 14, 3, 4, 33, 181, 111, 195, 120, 120, 195, 1, 0.640726
113, 6, bw, attraction, a-b-da, 5, 1, 4, 34, 135, 60, 132, 58, 60, 135, 3, 1.19648
113, 6, bw, attraction, a-b-da, 5, 1, 4, 34, 135, 60, 132, 58, 60, 135, 2, 0.555429
113, 6, bw, attraction, a-b-da, 14, 2, 4, 35, 165, 90, 90, 165, 153, 83, 1, 1.56319
113, 6, bw, attraction, a-b-da, 14, 2, 4, 35, 165, 90, 90, 165, 153, 83, 2, 0.651419
113, 6, bw, attraction, a-b-da, 14, 1, 4, 36, 125, 56, 135, 60, 60, 135, 3, 1.43106
113, 6, bw, attraction, a-b-da, 14, 1, 4, 36, 125, 56, 135, 60, 60, 135, 1, 0.6127
113, 6, bw, filler, NA, 999, 999, 4, 37, 128, 158, 144, 107, 136, 187, 3, 0.721668
113, 6, bw, filler, NA, 999, 999, 4, 37, 128, 158, 144, 107, 136, 187, 2, 0.57956
113, 6, bw, catch, NA, 999, 999, 5, 1, 162, 93, 77, 118, 166, 149, 3, 3.02444
113, 6, bw, catch, NA, 999, 999, 5, 1, 162, 93, 77, 118, 166, 149, 2, 0.573525
113, 6, bw, attraction, a-b-da, 9, 3, 5, 2, 195, 120, 186, 114, 120, 195, 3, 1.26792
113, 6, bw, attraction, a-b-da, 9, 3, 5, 2, 195, 120, 186, 114, 120, 195, 2, 0.440223
113, 6, bw, catch, NA, 999, 999, 5, 3, 116, 79, 121, 194, 110, 145, 2, 0.98795
113, 6, bw, catch, NA, 999, 999, 5, 3, 116, 79, 121, 194, 110, 145, 1, 0.65098
113, 6, bw, filler, NA, 999, 999, 5, 4, 190, 104, 67, 124, 179, 73, 1, 1.13471
113, 6, bw, filler, NA, 999, 999, 5, 4, 190, 104, 67, 124, 179, 73, 2, 0.424349
113, 6, bw, filler, NA, 999, 999, 5, 5, 62, 155, 91, 80, 80, 72, 1, 1.26086
113, 6, bw, filler, NA, 999, 999, 5, 5, 62, 155, 91, 80, 80, 72, 2, 0.60111
113, 6, bw, attraction, a-b-db, 5, 1, 5, 6, 58, 132, 60, 135, 135, 60, 2, 1.16686
113, 6, bw, attraction, a-b-db, 5, 1, 5, 6, 58, 132, 60, 135, 135, 60, 1, 0.679075
113, 6, bw, attraction, a-b-da, 14, 1, 5, 7, 60, 135, 125, 56, 135, 60, 1, 1.42556
113, 6, bw, attraction, a-b-da, 14, 1, 5, 7, 60, 135, 125, 56, 135, 60, 2, 1.05494
113, 6, bw, attraction, a-b-db, 14, 1, 5, 8, 60, 135, 135, 60, 56, 125, 1, 1.56266
113, 6, bw, attraction, a-b-db, 14, 1, 5, 8, 60, 135, 135, 60, 56, 125, 3, 0.922835
113, 6, bw, attraction, a-b-da, 2, 1, 5, 9, 60, 135, 135, 60, 134, 59, 3, 1.53124
113, 6, bw, attraction, a-b-da, 2, 1, 5, 9, 60, 135, 135, 60, 134, 59, 1, 0.692583
113, 6, bw, catch, NA, 999, 999, 5, 10, 99, 156, 117, 78, 156, 159, 3, 0.598361
113, 6, bw, catch, NA, 999, 999, 5, 10, 99, 156, 117, 78, 156, 159, 2, 0.557432
113, 6, bw, attraction, a-b-da, 5, 2, 5, 11, 161, 88, 90, 165, 165, 90, 2, 1.73259
113, 6, bw, attraction, a-b-da, 5, 2, 5, 11, 161, 88, 90, 165, 165, 90, 1, 0.509925
113, 6, bw, filler, NA, 999, 999, 5, 12, 163, 166, 61, 64, 70, 109, 1, 0.591225
113, 6, bw, filler, NA, 999, 999, 5, 12, 163, 166, 61, 64, 70, 109, 2, 0.582216
113, 6, bw, attraction, a-b-db, 2, 2, 5, 13, 165, 90, 89, 163, 90, 165, 2, 1.21267
113, 6, bw, attraction, a-b-db, 2, 2, 5, 13, 165, 90, 89, 163, 90, 165, 1, 0.619003
113, 6, bw, attraction, a-b-da, 9, 2, 5, 14, 157, 86, 90, 165, 165, 90, 2, 1.51202
113, 6, bw, attraction, a-b-da, 9, 2, 5, 14, 157, 86, 90, 165, 165, 90, 1, 0.386212
113, 6, bw, attraction, a-b-db, 2, 3, 5, 15, 119, 193, 195, 120, 120, 195, 3, 2.73664
113, 6, bw, attraction, a-b-db, 2, 3, 5, 15, 119, 193, 195, 120, 120, 195, 2, 0.601813
113, 6, bw, attraction, a-b-db, 9, 3, 5, 16, 114, 186, 120, 195, 195, 120, 2, 1.89554
113, 6, bw, attraction, a-b-db, 9, 3, 5, 16, 114, 186, 120, 195, 195, 120, 1, 0.786151
113, 6, bw, attraction, a-b-db, 5, 2, 5, 17, 88, 161, 90, 165, 165, 90, 2, 1.64858
113, 6, bw, attraction, a-b-db, 5, 2, 5, 17, 88, 161, 90, 165, 165, 90, 3, 0.65448
113, 6, bw, attraction, a-b-db, 2, 1, 5, 18, 59, 134, 60, 135, 135, 60, 2, 1.98506
113, 6, bw, attraction, a-b-db, 2, 1, 5, 18, 59, 134, 60, 135, 135, 60, 3, 1.28856
113, 6, bw, attraction, a-b-db, 9, 2, 5, 19, 165, 90, 86, 157, 90, 165, 2, 1.53869
113, 6, bw, attraction, a-b-db, 9, 2, 5, 19, 165, 90, 86, 157, 90, 165, 1, 1.04347
113, 6, bw, filler, NA, 999, 999, 5, 20, 190, 193, 184, 132, 146, 192, 1, 0.887259
113, 6, bw, filler, NA, 999, 999, 5, 20, 190, 193, 184, 132, 146, 192, 2, 0.506169
113, 6, bw, attraction, a-b-da, 9, 1, 5, 21, 60, 135, 129, 57, 135, 60, 1, 1.21122
113, 6, bw, attraction, a-b-da, 9, 1, 5, 21, 60, 135, 129, 57, 135, 60, 2, 0.505495
113, 6, bw, attraction, a-b-da, 14, 3, 5, 22, 120, 195, 195, 120, 181, 111, 1, 0.827215
113, 6, bw, attraction, a-b-da, 14, 3, 5, 22, 120, 195, 195, 120, 181, 111, 2, 1.02502
113, 6, bw, filler, NA, 999, 999, 5, 23, 149, 101, 183, 74, 190, 191, 3, 0.55728
113, 6, bw, filler, NA, 999, 999, 5, 23, 149, 101, 183, 74, 190, 191, 1, 1.82176
113, 6, bw, filler, NA, 999, 999, 5, 24, 85, 78, 90, 88, 150, 130, 3, 0.666457
113, 6, bw, filler, NA, 999, 999, 5, 24, 85, 78, 90, 88, 150, 130, 1, 0.854932
113, 6, bw, attraction, a-b-da, 14, 2, 5, 25, 90, 165, 165, 90, 153, 83, 1, 1.37852
113, 6, bw, attraction, a-b-da, 14, 2, 5, 25, 90, 165, 165, 90, 153, 83, 3, 0.594347
113, 6, bw, attraction, a-b-db, 5, 3, 5, 26, 117, 190, 120, 195, 195, 120, 2, 2.87985
113, 6, bw, attraction, a-b-db, 5, 3, 5, 26, 117, 190, 120, 195, 195, 120, 3, 0.515119
113, 6, bw, attraction, a-b-db, 14, 2, 5, 27, 90, 165, 165, 90, 83, 153, 1, 1.30009
113, 6, bw, attraction, a-b-db, 14, 2, 5, 27, 90, 165, 165, 90, 83, 153, 3, 0.638988
113, 6, bw, attraction, a-b-db, 14, 3, 5, 28, 111, 181, 195, 120, 120, 195, 3, 1.0994
113, 6, bw, attraction, a-b-db, 14, 3, 5, 28, 111, 181, 195, 120, 120, 195, 1, 1.00628
113, 6, bw, attraction, a-b-da, 5, 3, 5, 29, 120, 195, 190, 117, 195, 120, 1, 3.56334
113, 6, bw, attraction, a-b-da, 5, 3, 5, 29, 120, 195, 190, 117, 195, 120, 2, 1.0668
113, 6, bw, filler, NA, 999, 999, 5, 30, 111, 160, 124, 184, 167, 82, 2, 1.7019
113, 6, bw, filler, NA, 999, 999, 5, 30, 111, 160, 124, 184, 167, 82, 1, 0.504547
113, 6, bw, attraction, a-b-da, 5, 1, 5, 31, 132, 58, 60, 135, 135, 60, 3, 3.29828
113, 6, bw, attraction, a-b-da, 5, 1, 5, 31, 132, 58, 60, 135, 135, 60, 1, 0.844635
113, 6, bw, attraction, a-b-da, 2, 3, 5, 32, 120, 195, 195, 120, 193, 119, 3, 2.15226
113, 6, bw, attraction, a-b-da, 2, 3, 5, 32, 120, 195, 195, 120, 193, 119, 2, 1.03294
113, 6, bw, attraction, a-b-da, 2, 2, 5, 33, 163, 89, 90, 165, 165, 90, 2, 3.1333
113, 6, bw, attraction, a-b-da, 2, 2, 5, 33, 163, 89, 90, 165, 165, 90, 3, 1.76624
113, 6, bw, filler, NA, 999, 999, 5, 34, 97, 114, 93, 114, 130, 88, 2, 2.72491
113, 6, bw, filler, NA, 999, 999, 5, 34, 97, 114, 93, 114, 130, 88, 3, 0.806102
113, 6, bw, attraction, a-b-db, 9, 1, 5, 35, 135, 60, 60, 135, 57, 129, 1, 3.32372
113, 6, bw, attraction, a-b-db, 9, 1, 5, 35, 135, 60, 60, 135, 57, 129, 2, 0.53268
113, 6, bw, filler, NA, 999, 999, 5, 36, 99, 160, 98, 90, 189, 154, 3, 1.56515
113, 6, bw, filler, NA, 999, 999, 5, 36, 99, 160, 98, 90, 189, 154, 2, 1.68539
113, 6, bw, filler, NA, 999, 999, 5, 37, 154, 103, 126, 174, 78, 129, 2, 1.3674
113, 6, bw, filler, NA, 999, 999, 5, 37, 154, 103, 126, 174, 78, 129, 3, 0.623593
113, 6, bw, filler, NA, 999, 999, 6, 1, 92, 133, 123, 80, 129, 90, 3, 1.08395
113, 6, bw, filler, NA, 999, 999, 6, 1, 92, 133, 123, 80, 129, 90, 2, 0.743625
113, 6, bw, attraction, a-b-da, 14, 3, 6, 2, 181, 111, 120, 195, 195, 120, 3, 2.21546
113, 6, bw, attraction, a-b-da, 14, 3, 6, 2, 181, 111, 120, 195, 195, 120, 2, 0.493362
113, 6, bw, attraction, a-b-da, 5, 3, 6, 3, 120, 195, 195, 120, 190, 117, 2, 1.16704
113, 6, bw, attraction, a-b-da, 5, 3, 6, 3, 120, 195, 195, 120, 190, 117, 3, 2.23135
113, 6, bw, attraction, a-b-db, 2, 1, 6, 4, 59, 134, 60, 135, 135, 60, 3, 2.65131
113, 6, bw, attraction, a-b-db, 2, 1, 6, 4, 59, 134, 60, 135, 135, 60, 1, 1.36769
113, 6, bw, attraction, a-b-db, 14, 3, 6, 5, 195, 120, 111, 181, 120, 195, 1, 2.13462
113, 6, bw, attraction, a-b-db, 14, 3, 6, 5, 195, 120, 111, 181, 120, 195, 2, 0.528021
113, 6, bw, attraction, a-b-db, 9, 2, 6, 6, 165, 90, 86, 157, 90, 165, 3, 2.36839
113, 6, bw, attraction, a-b-db, 9, 2, 6, 6, 165, 90, 86, 157, 90, 165, 2, 0.58426
113, 6, bw, attraction, a-b-da, 14, 2, 6, 7, 153, 83, 90, 165, 165, 90, 3, 3.21469
113, 6, bw, attraction, a-b-da, 14, 2, 6, 7, 153, 83, 90, 165, 165, 90, 2, 0.6683
113, 6, bw, filler, NA, 999, 999, 6, 8, 152, 73, 160, 184, 190, 150, 2, 1.03934
113, 6, bw, filler, NA, 999, 999, 6, 8, 152, 73, 160, 184, 190, 150, 1, 0.54827
113, 6, bw, attraction, a-b-db, 2, 2, 6, 9, 89, 163, 165, 90, 90, 165, 2, 3.54827
113, 6, bw, attraction, a-b-db, 2, 2, 6, 9, 89, 163, 165, 90, 90, 165, 3, 1.33226
113, 6, bw, filler, NA, 999, 999, 6, 10, 72, 57, 64, 115, 161, 74, 3, 2.55653
113, 6, bw, filler, NA, 999, 999, 6, 10, 72, 57, 64, 115, 161, 74, 1, 0.788488
113, 6, bw, attraction, a-b-da, 2, 1, 6, 11, 134, 59, 135, 60, 60, 135, 3, 1.18685
113, 6, bw, attraction, a-b-da, 2, 1, 6, 11, 134, 59, 135, 60, 60, 135, 2, 0.449753
113, 6, bw, attraction, a-b-da, 9, 1, 6, 12, 135, 60, 60, 135, 129, 57, 1, 1.46136
113, 6, bw, attraction, a-b-da, 9, 1, 6, 12, 135, 60, 60, 135, 129, 57, 3, 0.585663
113, 6, bw, filler, NA, 999, 999, 6, 13, 83, 168, 163, 191, 89, 135, 2, 0.663977
113, 6, bw, filler, NA, 999, 999, 6, 13, 83, 168, 163, 191, 89, 135, 3, 0.756471
113, 6, bw, filler, NA, 999, 999, 6, 14, 131, 80, 100, 138, 102, 86, 2, 0.971447
113, 6, bw, filler, NA, 999, 999, 6, 14, 131, 80, 100, 138, 102, 86, 3, 0.643236
113, 6, bw, attraction, a-b-da, 2, 2, 6, 15, 163, 89, 90, 165, 165, 90, 3, 1.11094
113, 6, bw, attraction, a-b-da, 2, 2, 6, 15, 163, 89, 90, 165, 165, 90, 2, 0.809361
113, 6, bw, filler, NA, 999, 999, 6, 16, 104, 178, 116, 170, 189, 171, 3, 0.886369
113, 6, bw, filler, NA, 999, 999, 6, 16, 104, 178, 116, 170, 189, 171, 1, 0.442046
113, 6, bw, catch, NA, 999, 999, 6, 17, 127, 68, 111, 144, 193, 122, 3, 0.677713
113, 6, bw, catch, NA, 999, 999, 6, 17, 127, 68, 111, 144, 193, 122, 1, 0.481467
113, 6, bw, attraction, a-b-db, 5, 1, 6, 18, 135, 60, 58, 132, 60, 135, 3, 1.17999
113, 6, bw, attraction, a-b-db, 5, 1, 6, 18, 135, 60, 58, 132, 60, 135, 2, 0.555555
113, 6, bw, attraction, a-b-db, 9, 1, 6, 19, 60, 135, 57, 129, 135, 60, 1, 1.80327
113, 6, bw, attraction, a-b-db, 9, 1, 6, 19, 60, 135, 57, 129, 135, 60, 2, 0.674084
113, 6, bw, filler, NA, 999, 999, 6, 20, 111, 131, 129, 145, 73, 117, 2, 0.580502
113, 6, bw, filler, NA, 999, 999, 6, 20, 111, 131, 129, 145, 73, 117, 3, 0.676199
113, 6, bw, attraction, a-b-da, 9, 3, 6, 21, 195, 120, 120, 195, 186, 114, 1, 1.5906
113, 6, bw, attraction, a-b-da, 9, 3, 6, 21, 195, 120, 120, 195, 186, 114, 3, 0.645393
113, 6, bw, attraction, a-b-da, 14, 1, 6, 22, 60, 135, 125, 56, 135, 60, 1, 1.84134
113, 6, bw, attraction, a-b-da, 14, 1, 6, 22, 60, 135, 125, 56, 135, 60, 2, 0.613865
113, 6, bw, attraction, a-b-da, 9, 2, 6, 23, 90, 165, 165, 90, 157, 86, 2, 1.659
113, 6, bw, attraction, a-b-da, 9, 2, 6, 23, 90, 165, 165, 90, 157, 86, 3, 0.573143
113, 6, bw, catch, NA, 999, 999, 6, 24, 123, 72, 173, 142, 130, 125, 2, 0.909489
113, 6, bw, catch, NA, 999, 999, 6, 24, 123, 72, 173, 142, 130, 125, 1, 0.784009
113, 6, bw, attraction, a-b-db, 14, 1, 6, 25, 60, 135, 135, 60, 56, 125, 1, 0.982178
113, 6, bw, attraction, a-b-db, 14, 1, 6, 25, 60, 135, 135, 60, 56, 125, 3, 0.821972
113, 6, bw, filler, NA, 999, 999, 6, 26, 122, 187, 79, 109, 168, 123, 1, 1.33905
113, 6, bw, filler, NA, 999, 999, 6, 26, 122, 187, 79, 109, 168, 123, 2, 0.539778
113, 6, bw, attraction, a-b-db, 9, 3, 6, 27, 195, 120, 120, 195, 114, 186, 2, 1.43562
113, 6, bw, attraction, a-b-db, 9, 3, 6, 27, 195, 120, 120, 195, 114, 186, 3, 0.561241
113, 6, bw, attraction, a-b-da, 2, 3, 6, 28, 195, 120, 193, 119, 120, 195, 3, 1.06433
113, 6, bw, attraction, a-b-da, 2, 3, 6, 28, 195, 120, 193, 119, 120, 195, 2, 0.548689
113, 6, bw, attraction, a-b-db, 5, 2, 6, 29, 90, 165, 88, 161, 165, 90, 2, 1.23637
113, 6, bw, attraction, a-b-db, 5, 2, 6, 29, 90, 165, 88, 161, 165, 90, 3, 0.369928
113, 6, bw, attraction, a-b-db, 14, 2, 6, 30, 165, 90, 83, 153, 90, 165, 3, 1.32912
113, 6, bw, attraction, a-b-db, 14, 2, 6, 30, 165, 90, 83, 153, 90, 165, 2, 0.666637
113, 6, bw, filler, NA, 999, 999, 6, 31, 184, 93, 107, 78, 165, 192, 3, 0.717704
113, 6, bw, filler, NA, 999, 999, 6, 31, 184, 93, 107, 78, 165, 192, 2, 0.60007
113, 6, bw, attraction, a-b-db, 5, 3, 6, 32, 120, 195, 117, 190, 195, 120, 1, 0.981848
113, 6, bw, attraction, a-b-db, 5, 3, 6, 32, 120, 195, 117, 190, 195, 120, 2, 0.877517
113, 6, bw, attraction, a-b-da, 5, 1, 6, 33, 60, 135, 135, 60, 132, 58, 1, 0.82388
113, 6, bw, attraction, a-b-da, 5, 1, 6, 33, 60, 135, 135, 60, 132, 58, 3, 0.893577
113, 6, bw, attraction, a-b-da, 5, 2, 6, 34, 90, 165, 165, 90, 161, 88, 1, 1.39119
113, 6, bw, attraction, a-b-da, 5, 2, 6, 34, 90, 165, 165, 90, 161, 88, 2, 0.502157
113, 6, bw, filler, NA, 999, 999, 6, 35, 120, 180, 98, 116, 80, 95, 1, 0.535892
113, 6, bw, filler, NA, 999, 999, 6, 35, 120, 180, 98, 116, 80, 95, 3, 0.905779
113, 6, bw, attraction, a-b-db, 2, 3, 6, 36, 195, 120, 119, 193, 120, 195, 2, 0.731304
113, 6, bw, attraction, a-b-db, 2, 3, 6, 36, 195, 120, 119, 193, 120, 195, 3, 0.57312
113, 6, bw, catch, NA, 999, 999, 6, 37, 189, 126, 144, 111, 122, 73, 1, 0.395505
113, 6, bw, catch, NA, 999, 999, 6, 37, 189, 126, 144, 111, 122, 73, 3, 0.748933
113, 6, bw, attraction, a-b-db, 9, 3, 7, 1, 195, 120, 114, 186, 120, 195, 2, 1.23441
113, 6, bw, attraction, a-b-db, 9, 3, 7, 1, 195, 120, 114, 186, 120, 195, 1, 0.504052
113, 6, bw, attraction, a-b-db, 14, 1, 7, 2, 135, 60, 60, 135, 56, 125, 2, 0.857804
113, 6, bw, attraction, a-b-db, 14, 1, 7, 2, 135, 60, 60, 135, 56, 125, 3, 0.606174
113, 6, bw, filler, NA, 999, 999, 7, 3, 85, 175, 88, 128, 137, 134, 1, 0.467336
113, 6, bw, filler, NA, 999, 999, 7, 3, 85, 175, 88, 128, 137, 134, 2, 1.03175
113, 6, bw, catch, NA, 999, 999, 7, 4, 66, 129, 166, 149, 147, 108, 2, 0.572081
113, 6, bw, catch, NA, 999, 999, 7, 4, 66, 129, 166, 149, 147, 108, 1, 0.563832
113, 6, bw, attraction, a-b-db, 9, 1, 7, 5, 135, 60, 60, 135, 57, 129, 1, 0.898907
113, 6, bw, attraction, a-b-db, 9, 1, 7, 5, 135, 60, 60, 135, 57, 129, 2, 0.469897
113, 6, bw, attraction, a-b-db, 2, 1, 7, 6, 60, 135, 59, 134, 135, 60, 1, 1.04101
113, 6, bw, attraction, a-b-db, 2, 1, 7, 6, 60, 135, 59, 134, 135, 60, 2, 0.59015
113, 6, bw, attraction, a-b-da, 2, 2, 7, 7, 90, 165, 165, 90, 163, 89, 1, 0.579771
113, 6, bw, attraction, a-b-da, 2, 2, 7, 7, 90, 165, 165, 90, 163, 89, 3, 0.811602
113, 6, bw, attraction, a-b-db, 2, 3, 7, 8, 120, 195, 119, 193, 195, 120, 1, 0.632591
113, 6, bw, attraction, a-b-db, 2, 3, 7, 8, 120, 195, 119, 193, 195, 120, 2, 1.15037
113, 6, bw, filler, NA, 999, 999, 7, 9, 131, 75, 85, 189, 117, 133, 2, 0.89404
113, 6, bw, filler, NA, 999, 999, 7, 9, 131, 75, 85, 189, 117, 133, 1, 0.617027
113, 6, bw, attraction, a-b-da, 14, 3, 7, 10, 120, 195, 181, 111, 195, 120, 1, 1.43809
113, 6, bw, attraction, a-b-da, 14, 3, 7, 10, 120, 195, 181, 111, 195, 120, 2, 0.938883
113, 6, bw, attraction, a-b-da, 5, 2, 7, 11, 90, 165, 161, 88, 165, 90, 1, 0.867251
113, 6, bw, attraction, a-b-da, 5, 2, 7, 11, 90, 165, 161, 88, 165, 90, 2, 1.22371
113, 6, bw, filler, NA, 999, 999, 7, 12, 162, 163, 79, 74, 97, 163, 1, 1.32395
113, 6, bw, filler, NA, 999, 999, 7, 12, 162, 163, 79, 74, 97, 163, 2, 0.581373
113, 6, bw, attraction, a-b-da, 5, 1, 7, 13, 132, 58, 60, 135, 135, 60, 2, 0.891923
113, 6, bw, attraction, a-b-da, 5, 1, 7, 13, 132, 58, 60, 135, 135, 60, 1, 0.430952
113, 6, bw, attraction, a-b-db, 14, 3, 7, 14, 111, 181, 195, 120, 120, 195, 2, 2.73151
113, 6, bw, attraction, a-b-db, 14, 3, 7, 14, 111, 181, 195, 120, 120, 195, 1, 0.908444
113, 6, bw, attraction, a-b-da, 2, 1, 7, 15, 134, 59, 60, 135, 135, 60, 3, 3.1414
113, 6, bw, attraction, a-b-da, 2, 1, 7, 15, 134, 59, 60, 135, 135, 60, 2, 0.42982
113, 6, bw, filler, NA, 999, 999, 7, 16, 72, 149, 89, 170, 176, 104, 3, 1.12229
113, 6, bw, filler, NA, 999, 999, 7, 16, 72, 149, 89, 170, 176, 104, 1, 0.667805
113, 6, bw, attraction, a-b-db, 2, 2, 7, 17, 89, 163, 165, 90, 90, 165, 3, 0.950928
113, 6, bw, attraction, a-b-db, 2, 2, 7, 17, 89, 163, 165, 90, 90, 165, 1, 0.839937
113, 6, bw, attraction, a-b-db, 5, 3, 7, 18, 120, 195, 195, 120, 117, 190, 3, 3.67575
113, 6, bw, attraction, a-b-db, 5, 3, 7, 18, 120, 195, 195, 120, 117, 190, 2, 0.614785
113, 6, bw, filler, NA, 999, 999, 7, 19, 123, 180, 116, 173, 113, 69, 1, 1.37946
113, 6, bw, filler, NA, 999, 999, 7, 19, 123, 180, 116, 173, 113, 69, 3, 0.787226
113, 6, bw, attraction, a-b-db, 9, 2, 7, 20, 90, 165, 165, 90, 86, 157, 1, 1.93763
113, 6, bw, attraction, a-b-db, 9, 2, 7, 20, 90, 165, 165, 90, 86, 157, 3, 0.602247
113, 6, bw, filler, NA, 999, 999, 7, 21, 81, 121, 128, 174, 69, 118, 2, 0.623832
113, 6, bw, filler, NA, 999, 999, 7, 21, 81, 121, 128, 174, 69, 118, 3, 0.685692
113, 6, bw, attraction, a-b-da, 9, 3, 7, 22, 120, 195, 186, 114, 195, 120, 3, 1.26406
113, 6, bw, attraction, a-b-da, 9, 3, 7, 22, 120, 195, 186, 114, 195, 120, 2, 1.6203
113, 6, bw, attraction, a-b-db, 14, 2, 7, 23, 83, 153, 165, 90, 90, 165, 3, 2.9052
113, 6, bw, attraction, a-b-db, 14, 2, 7, 23, 83, 153, 165, 90, 90, 165, 2, 0.522866
113, 6, bw, attraction, a-b-db, 5, 2, 7, 24, 90, 165, 165, 90, 88, 161, 1, 2.79521
113, 6, bw, attraction, a-b-db, 5, 2, 7, 24, 90, 165, 165, 90, 88, 161, 2, 1.13765
113, 6, bw, attraction, a-b-da, 14, 1, 7, 25, 60, 135, 135, 60, 125, 56, 3, 2.57808
113, 6, bw, attraction, a-b-da, 14, 1, 7, 25, 60, 135, 135, 60, 125, 56, 1, 1.08909
113, 6, bw, attraction, a-b-da, 9, 1, 7, 26, 60, 135, 135, 60, 129, 57, 1, 2.99536
113, 6, bw, attraction, a-b-da, 9, 1, 7, 26, 60, 135, 135, 60, 129, 57, 2, 0.633779
113, 6, bw, attraction, a-b-da, 2, 3, 7, 27, 120, 195, 193, 119, 195, 120, 1, 1.77421
113, 6, bw, attraction, a-b-da, 2, 3, 7, 27, 120, 195, 193, 119, 195, 120, 2, 0.565569
113, 6, bw, attraction, a-b-db, 5, 1, 7, 28, 58, 132, 60, 135, 135, 60, 2, 2.22066
113, 6, bw, attraction, a-b-db, 5, 1, 7, 28, 58, 132, 60, 135, 135, 60, 1, 0.921964
113, 6, bw, attraction, a-b-da, 9, 2, 7, 29, 157, 86, 90, 165, 165, 90, 2, 0.962959
113, 6, bw, attraction, a-b-da, 9, 2, 7, 29, 157, 86, 90, 165, 165, 90, 1, 0.723287
113, 6, bw, filler, NA, 999, 999, 7, 30, 194, 126, 162, 157, 117, 82, 2, 0.811633
113, 6, bw, filler, NA, 999, 999, 7, 30, 194, 126, 162, 157, 117, 82, 3, 0.698081
113, 6, bw, filler, NA, 999, 999, 7, 31, 112, 105, 124, 110, 137, 141, 3, 1.01173
113, 6, bw, filler, NA, 999, 999, 7, 31, 112, 105, 124, 110, 137, 141, 1, 0.810045
113, 6, bw, attraction, a-b-da, 14, 2, 7, 32, 90, 165, 165, 90, 153, 83, 1, 1.23902
113, 6, bw, attraction, a-b-da, 14, 2, 7, 32, 90, 165, 165, 90, 153, 83, 2, 0.788041
113, 6, bw, filler, NA, 999, 999, 7, 33, 71, 154, 184, 163, 71, 141, 2, 1.38648
113, 6, bw, filler, NA, 999, 999, 7, 33, 71, 154, 184, 163, 71, 141, 1, 0.81004
113, 6, bw, catch, NA, 999, 999, 7, 34, 137, 178, 110, 85, 165, 90, 1, 1.03895
113, 6, bw, catch, NA, 999, 999, 7, 34, 137, 178, 110, 85, 165, 90, 2, 0.595886
113, 6, bw, catch, NA, 999, 999, 7, 35, 68, 127, 102, 153, 156, 159, 3, 0.777696
113, 6, bw, catch, NA, 999, 999, 7, 35, 68, 127, 102, 153, 156, 159, 1, 1.44139
113, 6, bw, attraction, a-b-da, 5, 3, 7, 36, 120, 195, 195, 120, 190, 117, 1, 0.940923
113, 6, bw, attraction, a-b-da, 5, 3, 7, 36, 120, 195, 195, 120, 190, 117, 2, 0.461952
113, 6, bw, filler, NA, 999, 999, 7, 37, 170, 142, 167, 111, 121, 92, 1, 0.625096
113, 6, bw, filler, NA, 999, 999, 7, 37, 170, 142, 167, 111, 121, 92, 3, 0.518845
113, 6, bw, attraction, a-b-db, 2, 2, 8, 1, 165, 90, 90, 165, 89, 163, 3, 1.15192
113, 6, bw, attraction, a-b-db, 2, 2, 8, 1, 165, 90, 90, 165, 89, 163, 1, 0.552859
113, 6, bw, filler, NA, 999, 999, 8, 2, 112, 181, 166, 75, 121, 165, 3, 0.608595
113, 6, bw, filler, NA, 999, 999, 8, 2, 112, 181, 166, 75, 121, 165, 2, 0.567081
113, 6, bw, filler, NA, 999, 999, 8, 3, 106, 121, 171, 128, 158, 151, 3, 1.66216
113, 6, bw, filler, NA, 999, 999, 8, 3, 106, 121, 171, 128, 158, 151, 1, 0.642431
113, 6, bw, attraction, a-b-db, 5, 2, 8, 4, 165, 90, 88, 161, 90, 165, 2, 1.15005
113, 6, bw, attraction, a-b-db, 5, 2, 8, 4, 165, 90, 88, 161, 90, 165, 1, 0.495055
113, 6, bw, filler, NA, 999, 999, 8, 5, 187, 189, 150, 188, 133, 124, 1, 1.09683
113, 6, bw, filler, NA, 999, 999, 8, 5, 187, 189, 150, 188, 133, 124, 3, 0.707731
113, 6, bw, attraction, a-b-db, 5, 3, 8, 6, 195, 120, 117, 190, 120, 195, 3, 0.87676
113, 6, bw, attraction, a-b-db, 5, 3, 8, 6, 195, 120, 117, 190, 120, 195, 1, 0.512571
113, 6, bw, attraction, a-b-da, 14, 2, 8, 7, 90, 165, 165, 90, 153, 83, 1, 0.889638
113, 6, bw, attraction, a-b-da, 14, 2, 8, 7, 90, 165, 165, 90, 153, 83, 3, 0.908692
113, 6, bw, catch, NA, 999, 999, 8, 8, 64, 131, 118, 137, 148, 167, 3, 0.813735
113, 6, bw, catch, NA, 999, 999, 8, 8, 64, 131, 118, 137, 148, 167, 1, 0.748044
113, 6, bw, attraction, a-b-da, 9, 2, 8, 9, 165, 90, 157, 86, 90, 165, 3, 0.69168
113, 6, bw, attraction, a-b-da, 9, 2, 8, 9, 165, 90, 157, 86, 90, 165, 1, 0.750914
113, 6, bw, filler, NA, 999, 999, 8, 10, 99, 71, 77, 184, 139, 123, 3, 0.974469
113, 6, bw, filler, NA, 999, 999, 8, 10, 99, 71, 77, 184, 139, 123, 1, 0.854274
113, 6, bw, attraction, a-b-db, 14, 3, 8, 11, 111, 181, 195, 120, 120, 195, 3, 0.585868
113, 6, bw, attraction, a-b-db, 14, 3, 8, 11, 111, 181, 195, 120, 120, 195, 1, 0.817604
113, 6, bw, attraction, a-b-db, 2, 1, 8, 12, 60, 135, 135, 60, 59, 134, 3, 1.40677
113, 6, bw, attraction, a-b-db, 2, 1, 8, 12, 60, 135, 135, 60, 59, 134, 2, 0.612844
113, 6, bw, attraction, a-b-db, 14, 1, 8, 13, 60, 135, 56, 125, 135, 60, 1, 1.53
113, 6, bw, attraction, a-b-db, 14, 1, 8, 13, 60, 135, 56, 125, 135, 60, 3, 0.571628
113, 6, bw, attraction, a-b-da, 5, 2, 8, 14, 161, 88, 165, 90, 90, 165, 3, 0.618582
113, 6, bw, attraction, a-b-da, 5, 2, 8, 14, 161, 88, 165, 90, 90, 165, 2, 0.409
113, 6, bw, filler, NA, 999, 999, 8, 15, 122, 131, 118, 143, 77, 95, 2, 1.34219
113, 6, bw, filler, NA, 999, 999, 8, 15, 122, 131, 118, 143, 77, 95, 3, 0.479055
113, 6, bw, attraction, a-b-db, 5, 1, 8, 16, 58, 132, 135, 60, 60, 135, 3, 1.00152
113, 6, bw, attraction, a-b-db, 5, 1, 8, 16, 58, 132, 135, 60, 60, 135, 2, 1.72852
113, 6, bw, attraction, a-b-da, 14, 1, 8, 17, 125, 56, 135, 60, 60, 135, 3, 7.51256
113, 6, bw, attraction, a-b-da, 14, 1, 8, 17, 125, 56, 135, 60, 60, 135, 1, 0.4489
113, 6, bw, attraction, a-b-da, 9, 1, 8, 18, 135, 60, 60, 135, 129, 57, 1, 2.14866
113, 6, bw, attraction, a-b-da, 9, 1, 8, 18, 135, 60, 60, 135, 129, 57, 2, 0.365222
113, 6, bw, attraction, a-b-db, 9, 3, 8, 19, 195, 120, 114, 186, 120, 195, 1, 0.876415
113, 6, bw, attraction, a-b-db, 9, 3, 8, 19, 195, 120, 114, 186, 120, 195, 2, 0.544071
113, 6, bw, attraction, a-b-db, 9, 2, 8, 20, 165, 90, 90, 165, 86, 157, 2, 1.09589
113, 6, bw, attraction, a-b-db, 9, 2, 8, 20, 165, 90, 90, 165, 86, 157, 3, 0.490863
113, 6, bw, attraction, a-b-db, 2, 3, 8, 21, 119, 193, 195, 120, 120, 195, 2, 2.1566
113, 6, bw, attraction, a-b-db, 2, 3, 8, 21, 119, 193, 195, 120, 120, 195, 1, 0.340598
113, 6, bw, attraction, a-b-da, 5, 3, 8, 22, 120, 195, 195, 120, 190, 117, 2, 0.636468
113, 6, bw, attraction, a-b-da, 5, 3, 8, 22, 120, 195, 195, 120, 190, 117, 3, 0.537669
113, 6, bw, filler, NA, 999, 999, 8, 23, 123, 160, 160, 59, 155, 66, 1, 1.34609
113, 6, bw, filler, NA, 999, 999, 8, 23, 123, 160, 160, 59, 155, 66, 2, 0.602915
113, 6, bw, attraction, a-b-db, 9, 1, 8, 24, 60, 135, 135, 60, 57, 129, 1, 1.61676
113, 6, bw, attraction, a-b-db, 9, 1, 8, 24, 60, 135, 135, 60, 57, 129, 3, 0.862818
113, 6, bw, attraction, a-b-da, 5, 1, 8, 25, 135, 60, 132, 58, 60, 135, 3, 1.7699
113, 6, bw, attraction, a-b-da, 5, 1, 8, 25, 135, 60, 132, 58, 60, 135, 2, 0.409892
113, 6, bw, attraction, a-b-da, 14, 3, 8, 26, 181, 111, 195, 120, 120, 195, 2, 0.847061
113, 6, bw, attraction, a-b-da, 14, 3, 8, 26, 181, 111, 195, 120, 120, 195, 3, 0.364086
113, 6, bw, catch, NA, 999, 999, 8, 27, 93, 102, 191, 124, 145, 110, 2, 0.899228
113, 6, bw, catch, NA, 999, 999, 8, 27, 93, 102, 191, 124, 145, 110, 1, 1.89429
113, 6, bw, attraction, a-b-da, 2, 1, 8, 28, 135, 60, 60, 135, 134, 59, 1, 1.39974
113, 6, bw, attraction, a-b-da, 2, 1, 8, 28, 135, 60, 60, 135, 134, 59, 2, 0.382549
113, 6, bw, attraction, a-b-da, 9, 3, 8, 29, 195, 120, 186, 114, 120, 195, 3, 0.92498
113, 6, bw, attraction, a-b-da, 9, 3, 8, 29, 195, 120, 186, 114, 120, 195, 2, 0.758752
113, 6, bw, attraction, a-b-db, 14, 2, 8, 30, 83, 153, 165, 90, 90, 165, 3, 0.933677
113, 6, bw, attraction, a-b-db, 14, 2, 8, 30, 83, 153, 165, 90, 90, 165, 1, 0.551418
113, 6, bw, filler, NA, 999, 999, 8, 31, 123, 143, 174, 185, 124, 131, 2, 0.903139
113, 6, bw, filler, NA, 999, 999, 8, 31, 123, 143, 174, 185, 124, 131, 3, 0.650166
113, 6, bw, catch, NA, 999, 999, 8, 32, 138, 117, 133, 182, 66, 129, 2, 0.694078
113, 6, bw, catch, NA, 999, 999, 8, 32, 138, 117, 133, 182, 66, 129, 3, 0.592966
113, 6, bw, filler, NA, 999, 999, 8, 33, 120, 101, 101, 182, 128, 163, 3, 1.22278
113, 6, bw, filler, NA, 999, 999, 8, 33, 120, 101, 101, 182, 128, 163, 1, 0.516352
113, 6, bw, filler, NA, 999, 999, 8, 34, 144, 71, 191, 184, 105, 147, 2, 0.453464
113, 6, bw, filler, NA, 999, 999, 8, 34, 144, 71, 191, 184, 105, 147, 1, 0.60264
113, 6, bw, filler, NA, 999, 999, 8, 35, 69, 141, 126, 150, 189, 131, 3, 0.848343
113, 6, bw, filler, NA, 999, 999, 8, 35, 69, 141, 126, 150, 189, 131, 1, 1.01342
113, 6, bw, attraction, a-b-da, 2, 3, 8, 36, 193, 119, 195, 120, 120, 195, 2, 1.90636
113, 6, bw, attraction, a-b-da, 2, 3, 8, 36, 193, 119, 195, 120, 120, 195, 1, 0.404381
113, 6, bw, attraction, a-b-da, 2, 2, 8, 37, 90, 165, 165, 90, 163, 89, 1, 3.24233
113, 6, bw, attraction, a-b-da, 2, 2, 8, 37, 90, 165, 165, 90, 163, 89, 2, 0.758529
