sub_n, computer_n, bw_cond, effect, set, distance, diag, block_n, trial_n, h1, w1, h2, w2, h3, w3, choice, rt 
170, 6, wb, practice, NA, 999, 999, 0, 1, 92, 112, 74, 190, 73, 83, 3, 2.29927
170, 6, wb, practice, NA, 999, 999, 0, 1, 92, 112, 74, 190, 73, 83, 2, 3.08462
170, 6, wb, practice, NA, 999, 999, 0, 2, 124, 190, 85, 59, 184, 81, 2, 1.89002
170, 6, wb, practice, NA, 999, 999, 0, 2, 124, 190, 85, 59, 184, 81, 1, 1.16481
170, 6, wb, practice, NA, 999, 999, 0, 3, 170, 111, 114, 106, 138, 72, 3, 4.07254
170, 6, wb, practice, NA, 999, 999, 0, 3, 170, 111, 114, 106, 138, 72, 1, 1.02955
170, 6, wb, filler, NA, 999, 999, 1, 1, 176, 99, 85, 170, 144, 191, 2, 2.89874
170, 6, wb, filler, NA, 999, 999, 1, 1, 176, 99, 85, 170, 144, 191, 3, 0.973149
170, 6, wb, filler, NA, 999, 999, 1, 2, 147, 91, 189, 76, 72, 192, 1, 3.73944
170, 6, wb, filler, NA, 999, 999, 1, 2, 147, 91, 189, 76, 72, 192, 3, 2.83559
170, 6, wb, attraction, a-b-db, 2, 3, 1, 3, 120, 195, 195, 120, 119, 193, 2, 9.42336
170, 6, wb, attraction, a-b-db, 2, 3, 1, 3, 120, 195, 195, 120, 119, 193, 1, 1.42635
170, 6, wb, attraction, a-b-db, 9, 1, 1, 4, 57, 129, 135, 60, 60, 135, 1, 5.51858
170, 6, wb, attraction, a-b-db, 9, 1, 1, 4, 57, 129, 135, 60, 60, 135, 2, 4.12749
170, 6, wb, attraction, a-b-db, 2, 1, 1, 5, 135, 60, 60, 135, 59, 134, 1, 8.91874
170, 6, wb, attraction, a-b-db, 2, 1, 1, 5, 135, 60, 60, 135, 59, 134, 3, 0.910699
170, 6, wb, filler, NA, 999, 999, 1, 6, 61, 177, 141, 92, 134, 92, 1, 4.18357
170, 6, wb, filler, NA, 999, 999, 1, 6, 61, 177, 141, 92, 134, 92, 2, 1.63825
170, 6, wb, attraction, a-b-db, 5, 2, 1, 7, 165, 90, 88, 161, 90, 165, 3, 16.8664
170, 6, wb, attraction, a-b-db, 5, 2, 1, 7, 165, 90, 88, 161, 90, 165, 2, 1.73771
170, 6, wb, attraction, a-b-db, 2, 2, 1, 8, 90, 165, 165, 90, 89, 163, 2, 2.48176
170, 6, wb, attraction, a-b-db, 2, 2, 1, 8, 90, 165, 165, 90, 89, 163, 1, 1.78097
170, 6, wb, filler, NA, 999, 999, 1, 9, 118, 149, 106, 81, 186, 170, 2, 2.48297
170, 6, wb, filler, NA, 999, 999, 1, 9, 118, 149, 106, 81, 186, 170, 3, 0.606361
170, 6, wb, attraction, a-b-da, 5, 1, 1, 10, 135, 60, 60, 135, 132, 58, 3, 6.08345
170, 6, wb, attraction, a-b-da, 5, 1, 1, 10, 135, 60, 60, 135, 132, 58, 1, 0.869369
170, 6, wb, filler, NA, 999, 999, 1, 11, 70, 190, 87, 120, 144, 137, 2, 2.84043
170, 6, wb, filler, NA, 999, 999, 1, 11, 70, 190, 87, 120, 144, 137, 3, 1.56479
170, 6, wb, filler, NA, 999, 999, 1, 12, 178, 108, 107, 118, 96, 56, 3, 1.05954
170, 6, wb, filler, NA, 999, 999, 1, 12, 178, 108, 107, 118, 96, 56, 1, 0.80788
170, 6, wb, catch, NA, 999, 999, 1, 13, 113, 82, 160, 155, 164, 91, 1, 1.46886
170, 6, wb, catch, NA, 999, 999, 1, 13, 113, 82, 160, 155, 164, 91, 2, 0.801218
170, 6, wb, attraction, a-b-db, 14, 1, 1, 14, 60, 135, 56, 125, 135, 60, 2, 5.46277
170, 6, wb, attraction, a-b-db, 14, 1, 1, 14, 60, 135, 56, 125, 135, 60, 1, 2.05772
170, 6, wb, filler, NA, 999, 999, 1, 15, 96, 77, 116, 148, 86, 108, 1, 1.19637
170, 6, wb, filler, NA, 999, 999, 1, 15, 96, 77, 116, 148, 86, 108, 2, 0.587208
170, 6, wb, attraction, a-b-da, 14, 3, 1, 16, 181, 111, 120, 195, 195, 120, 1, 4.0898
170, 6, wb, attraction, a-b-da, 14, 3, 1, 16, 181, 111, 120, 195, 195, 120, 2, 1.30786
170, 6, wb, attraction, a-b-da, 14, 2, 1, 17, 90, 165, 153, 83, 165, 90, 2, 13.0286
170, 6, wb, attraction, a-b-da, 14, 2, 1, 17, 90, 165, 153, 83, 165, 90, 1, 0.646521
170, 6, wb, attraction, a-b-da, 9, 2, 1, 18, 165, 90, 157, 86, 90, 165, 2, 8.37026
170, 6, wb, attraction, a-b-da, 9, 2, 1, 18, 165, 90, 157, 86, 90, 165, 1, 1.30421
170, 6, wb, attraction, a-b-da, 9, 3, 1, 19, 195, 120, 186, 114, 120, 195, 2, 4.35384
170, 6, wb, attraction, a-b-da, 9, 3, 1, 19, 195, 120, 186, 114, 120, 195, 3, 1.17776
170, 6, wb, attraction, a-b-db, 5, 1, 1, 20, 60, 135, 58, 132, 135, 60, 1, 3.13596
170, 6, wb, attraction, a-b-db, 5, 1, 1, 20, 60, 135, 58, 132, 135, 60, 3, 0.792987
170, 6, wb, filler, NA, 999, 999, 1, 21, 185, 133, 91, 77, 186, 187, 2, 1.49471
170, 6, wb, filler, NA, 999, 999, 1, 21, 185, 133, 91, 77, 186, 187, 3, 0.721609
170, 6, wb, attraction, a-b-da, 5, 3, 1, 22, 190, 117, 195, 120, 120, 195, 1, 5.8347
170, 6, wb, attraction, a-b-da, 5, 3, 1, 22, 190, 117, 195, 120, 120, 195, 3, 0.622718
170, 6, wb, attraction, a-b-db, 9, 3, 1, 23, 114, 186, 120, 195, 195, 120, 1, 2.84383
170, 6, wb, attraction, a-b-db, 9, 3, 1, 23, 114, 186, 120, 195, 195, 120, 2, 0.952171
170, 6, wb, attraction, a-b-db, 9, 2, 1, 24, 165, 90, 90, 165, 86, 157, 2, 2.67188
170, 6, wb, attraction, a-b-db, 9, 2, 1, 24, 165, 90, 90, 165, 86, 157, 1, 2.73103
170, 6, wb, attraction, a-b-da, 14, 1, 1, 25, 135, 60, 125, 56, 60, 135, 2, 5.55489
170, 6, wb, attraction, a-b-da, 14, 1, 1, 25, 135, 60, 125, 56, 60, 135, 3, 0.594296
170, 6, wb, attraction, a-b-db, 14, 2, 1, 26, 83, 153, 90, 165, 165, 90, 1, 3.75223
170, 6, wb, attraction, a-b-db, 14, 2, 1, 26, 83, 153, 90, 165, 165, 90, 2, 2.7603
170, 6, wb, filler, NA, 999, 999, 1, 27, 195, 148, 71, 192, 134, 69, 3, 1.19066
170, 6, wb, filler, NA, 999, 999, 1, 27, 195, 148, 71, 192, 134, 69, 1, 0.837546
170, 6, wb, attraction, a-b-da, 2, 1, 1, 28, 60, 135, 134, 59, 135, 60, 2, 7.53794
170, 6, wb, attraction, a-b-da, 2, 1, 1, 28, 60, 135, 134, 59, 135, 60, 3, 3.08164
170, 6, wb, attraction, a-b-da, 5, 2, 1, 29, 161, 88, 165, 90, 90, 165, 1, 12.6192
170, 6, wb, attraction, a-b-da, 5, 2, 1, 29, 161, 88, 165, 90, 90, 165, 3, 0.501832
170, 6, wb, attraction, a-b-da, 2, 3, 1, 30, 120, 195, 193, 119, 195, 120, 2, 5.38375
170, 6, wb, attraction, a-b-da, 2, 3, 1, 30, 120, 195, 193, 119, 195, 120, 1, 0.821989
170, 6, wb, attraction, a-b-db, 5, 3, 1, 31, 120, 195, 195, 120, 117, 190, 3, 10.1151
170, 6, wb, attraction, a-b-db, 5, 3, 1, 31, 120, 195, 195, 120, 117, 190, 1, 0.658519
170, 6, wb, attraction, a-b-db, 14, 3, 1, 32, 120, 195, 195, 120, 111, 181, 3, 2.26158
170, 6, wb, attraction, a-b-db, 14, 3, 1, 32, 120, 195, 195, 120, 111, 181, 1, 0.585391
170, 6, wb, catch, NA, 999, 999, 1, 33, 168, 147, 111, 84, 162, 93, 2, 1.27188
170, 6, wb, catch, NA, 999, 999, 1, 33, 168, 147, 111, 84, 162, 93, 1, 0.4035
170, 6, wb, attraction, a-b-da, 2, 2, 1, 34, 165, 90, 90, 165, 163, 89, 3, 6.64128
170, 6, wb, attraction, a-b-da, 2, 2, 1, 34, 165, 90, 90, 165, 163, 89, 2, 1.14058
170, 6, wb, attraction, a-b-da, 9, 1, 1, 35, 60, 135, 135, 60, 129, 57, 2, 7.23619
170, 6, wb, attraction, a-b-da, 9, 1, 1, 35, 60, 135, 135, 60, 129, 57, 1, 0.599847
170, 6, wb, catch, NA, 999, 999, 1, 36, 118, 137, 192, 123, 120, 75, 3, 1.46947
170, 6, wb, catch, NA, 999, 999, 1, 36, 118, 137, 192, 123, 120, 75, 2, 0.921683
170, 6, wb, filler, NA, 999, 999, 1, 37, 96, 83, 149, 59, 87, 190, 1, 1.83471
170, 6, wb, filler, NA, 999, 999, 1, 37, 96, 83, 149, 59, 87, 190, 3, 0.584133
170, 6, wb, attraction, a-b-db, 9, 3, 2, 1, 195, 120, 120, 195, 114, 186, 3, 17.1426
170, 6, wb, attraction, a-b-db, 9, 3, 2, 1, 195, 120, 120, 195, 114, 186, 2, 0.939158
170, 6, wb, attraction, a-b-db, 9, 1, 2, 2, 60, 135, 135, 60, 57, 129, 3, 2.78754
170, 6, wb, attraction, a-b-db, 9, 1, 2, 2, 60, 135, 135, 60, 57, 129, 2, 0.602733
170, 6, wb, attraction, a-b-da, 14, 1, 2, 3, 125, 56, 135, 60, 60, 135, 3, 10.6565
170, 6, wb, attraction, a-b-da, 14, 1, 2, 3, 125, 56, 135, 60, 60, 135, 1, 0.914342
170, 6, wb, attraction, a-b-da, 2, 2, 2, 4, 163, 89, 165, 90, 90, 165, 1, 4.16334
170, 6, wb, attraction, a-b-da, 2, 2, 2, 4, 163, 89, 165, 90, 90, 165, 2, 1.12265
170, 6, wb, attraction, a-b-db, 5, 3, 2, 5, 120, 195, 117, 190, 195, 120, 2, 18.7556
170, 6, wb, attraction, a-b-db, 5, 3, 2, 5, 120, 195, 117, 190, 195, 120, 1, 0.535019
170, 6, wb, attraction, a-b-da, 9, 3, 2, 6, 195, 120, 186, 114, 120, 195, 1, 3.1435
170, 6, wb, attraction, a-b-da, 9, 3, 2, 6, 195, 120, 186, 114, 120, 195, 3, 0.65573
170, 6, wb, attraction, a-b-db, 2, 3, 2, 7, 120, 195, 195, 120, 119, 193, 3, 4.52352
170, 6, wb, attraction, a-b-db, 2, 3, 2, 7, 120, 195, 195, 120, 119, 193, 1, 1.02009
170, 6, wb, attraction, a-b-db, 2, 2, 2, 8, 165, 90, 89, 163, 90, 165, 3, 2.85705
170, 6, wb, attraction, a-b-db, 2, 2, 2, 8, 165, 90, 89, 163, 90, 165, 1, 0.716735
170, 6, wb, attraction, a-b-da, 14, 3, 2, 9, 181, 111, 120, 195, 195, 120, 2, 2.894
170, 6, wb, attraction, a-b-da, 14, 3, 2, 9, 181, 111, 120, 195, 195, 120, 3, 0.872261
170, 6, wb, filler, NA, 999, 999, 2, 10, 152, 58, 67, 73, 126, 100, 2, 1.02727
170, 6, wb, filler, NA, 999, 999, 2, 10, 152, 58, 67, 73, 126, 100, 3, 1.40092
170, 6, wb, filler, NA, 999, 999, 2, 11, 132, 173, 132, 75, 195, 181, 2, 1.49441
170, 6, wb, filler, NA, 999, 999, 2, 11, 132, 173, 132, 75, 195, 181, 3, 0.497286
170, 6, wb, attraction, a-b-da, 5, 2, 2, 12, 161, 88, 90, 165, 165, 90, 1, 3.01095
170, 6, wb, attraction, a-b-da, 5, 2, 2, 12, 161, 88, 90, 165, 165, 90, 2, 0.512736
170, 6, wb, attraction, a-b-da, 5, 1, 2, 13, 132, 58, 135, 60, 60, 135, 3, 17.3139
170, 6, wb, attraction, a-b-da, 5, 1, 2, 13, 132, 58, 135, 60, 60, 135, 1, 1.93499
170, 6, wb, attraction, a-b-db, 5, 2, 2, 14, 90, 165, 88, 161, 165, 90, 2, 14.447
170, 6, wb, attraction, a-b-db, 5, 2, 2, 14, 90, 165, 88, 161, 165, 90, 3, 1.43183
170, 6, wb, attraction, a-b-da, 2, 3, 2, 15, 193, 119, 120, 195, 195, 120, 1, 4.71612
170, 6, wb, attraction, a-b-da, 2, 3, 2, 15, 193, 119, 120, 195, 195, 120, 2, 0.757163
170, 6, wb, catch, NA, 999, 999, 2, 16, 102, 153, 129, 66, 122, 193, 2, 1.35619
170, 6, wb, catch, NA, 999, 999, 2, 16, 102, 153, 129, 66, 122, 193, 3, 0.356411
170, 6, wb, attraction, a-b-db, 9, 2, 2, 17, 165, 90, 90, 165, 86, 157, 3, 4.1876
170, 6, wb, attraction, a-b-db, 9, 2, 2, 17, 165, 90, 90, 165, 86, 157, 2, 2.82628
170, 6, wb, attraction, a-b-da, 2, 1, 2, 18, 134, 59, 60, 135, 135, 60, 2, 2.09399
170, 6, wb, attraction, a-b-da, 2, 1, 2, 18, 134, 59, 60, 135, 135, 60, 1, 1.05661
170, 6, wb, attraction, a-b-db, 14, 3, 2, 19, 111, 181, 195, 120, 120, 195, 1, 17.0276
170, 6, wb, attraction, a-b-db, 14, 3, 2, 19, 111, 181, 195, 120, 120, 195, 3, 0.62823
170, 6, wb, attraction, a-b-db, 14, 1, 2, 20, 56, 125, 135, 60, 60, 135, 1, 1.61664
170, 6, wb, attraction, a-b-db, 14, 1, 2, 20, 56, 125, 135, 60, 60, 135, 2, 1.27877
170, 6, wb, attraction, a-b-da, 14, 2, 2, 21, 153, 83, 165, 90, 90, 165, 1, 1.71302
170, 6, wb, attraction, a-b-da, 14, 2, 2, 21, 153, 83, 165, 90, 90, 165, 3, 0.331149
170, 6, wb, attraction, a-b-da, 5, 3, 2, 22, 190, 117, 120, 195, 195, 120, 1, 1.37162
170, 6, wb, attraction, a-b-da, 5, 3, 2, 22, 190, 117, 120, 195, 195, 120, 3, 0.48312
170, 6, wb, attraction, a-b-da, 9, 2, 2, 23, 165, 90, 90, 165, 157, 86, 2, 1.30962
170, 6, wb, attraction, a-b-da, 9, 2, 2, 23, 165, 90, 90, 165, 157, 86, 1, 0.495916
170, 6, wb, catch, NA, 999, 999, 2, 24, 175, 140, 127, 128, 66, 129, 3, 0.825561
170, 6, wb, catch, NA, 999, 999, 2, 24, 175, 140, 127, 128, 66, 129, 1, 0.343333
170, 6, wb, filler, NA, 999, 999, 2, 25, 134, 145, 104, 173, 76, 159, 3, 1.03114
170, 6, wb, filler, NA, 999, 999, 2, 25, 134, 145, 104, 173, 76, 159, 2, 1.5248
170, 6, wb, attraction, a-b-db, 14, 2, 2, 26, 83, 153, 90, 165, 165, 90, 1, 1.30903
170, 6, wb, attraction, a-b-db, 14, 2, 2, 26, 83, 153, 90, 165, 165, 90, 3, 0.359287
170, 6, wb, filler, NA, 999, 999, 2, 27, 61, 157, 182, 184, 93, 163, 1, 0.742344
170, 6, wb, filler, NA, 999, 999, 2, 27, 61, 157, 182, 184, 93, 163, 2, 0.279441
170, 6, wb, attraction, a-b-db, 5, 1, 2, 28, 135, 60, 58, 132, 60, 135, 3, 4.18597
170, 6, wb, attraction, a-b-db, 5, 1, 2, 28, 135, 60, 58, 132, 60, 135, 1, 0.616619
170, 6, wb, filler, NA, 999, 999, 2, 29, 161, 113, 138, 147, 163, 193, 2, 0.869644
170, 6, wb, filler, NA, 999, 999, 2, 29, 161, 113, 138, 147, 163, 193, 3, 0.506071
170, 6, wb, filler, NA, 999, 999, 2, 30, 112, 127, 181, 102, 193, 81, 1, 1.0438
170, 6, wb, filler, NA, 999, 999, 2, 30, 112, 127, 181, 102, 193, 81, 2, 0.744867
170, 6, wb, filler, NA, 999, 999, 2, 31, 61, 96, 163, 105, 97, 68, 1, 3.32052
170, 6, wb, filler, NA, 999, 999, 2, 31, 61, 96, 163, 105, 97, 68, 2, 0.330103
170, 6, wb, catch, NA, 999, 999, 2, 32, 180, 135, 93, 162, 102, 93, 3, 1.01081
170, 6, wb, catch, NA, 999, 999, 2, 32, 180, 135, 93, 162, 102, 93, 1, 0.536911
170, 6, wb, filler, NA, 999, 999, 2, 33, 99, 137, 109, 93, 183, 163, 2, 2.54549
170, 6, wb, filler, NA, 999, 999, 2, 33, 99, 137, 109, 93, 183, 163, 3, 0.369879
170, 6, wb, filler, NA, 999, 999, 2, 34, 65, 102, 60, 159, 116, 143, 1, 0.665077
170, 6, wb, filler, NA, 999, 999, 2, 34, 65, 102, 60, 159, 116, 143, 3, 0.669602
170, 6, wb, attraction, a-b-db, 2, 1, 2, 35, 135, 60, 59, 134, 60, 135, 2, 3.0006
170, 6, wb, attraction, a-b-db, 2, 1, 2, 35, 135, 60, 59, 134, 60, 135, 1, 0.36691
170, 6, wb, attraction, a-b-da, 9, 1, 2, 36, 135, 60, 129, 57, 60, 135, 1, 1.42204
170, 6, wb, attraction, a-b-da, 9, 1, 2, 36, 135, 60, 129, 57, 60, 135, 2, 0.347742
170, 6, wb, filler, NA, 999, 999, 2, 37, 83, 144, 95, 155, 129, 159, 1, 1.04347
170, 6, wb, filler, NA, 999, 999, 2, 37, 83, 144, 95, 155, 129, 159, 3, 0.376465
170, 6, wb, attraction, a-b-db, 5, 2, 3, 1, 165, 90, 88, 161, 90, 165, 2, 14.8789
170, 6, wb, attraction, a-b-db, 5, 2, 3, 1, 165, 90, 88, 161, 90, 165, 1, 0.742215
170, 6, wb, catch, NA, 999, 999, 3, 2, 147, 168, 117, 78, 125, 130, 2, 0.917916
170, 6, wb, catch, NA, 999, 999, 3, 2, 147, 168, 117, 78, 125, 130, 1, 0.336276
170, 6, wb, attraction, a-b-da, 14, 1, 3, 3, 135, 60, 60, 135, 125, 56, 3, 10.7769
170, 6, wb, attraction, a-b-da, 14, 1, 3, 3, 135, 60, 60, 135, 125, 56, 1, 0.629388
170, 6, wb, attraction, a-b-db, 2, 3, 3, 4, 195, 120, 119, 193, 120, 195, 3, 0.977845
170, 6, wb, attraction, a-b-db, 2, 3, 3, 4, 195, 120, 119, 193, 120, 195, 1, 0.537489
170, 6, wb, attraction, a-b-db, 9, 2, 3, 5, 86, 157, 165, 90, 90, 165, 2, 0.921988
170, 6, wb, attraction, a-b-db, 9, 2, 3, 5, 86, 157, 165, 90, 90, 165, 1, 0.251578
170, 6, wb, attraction, a-b-da, 5, 2, 3, 6, 90, 165, 161, 88, 165, 90, 1, 8.47153
170, 6, wb, attraction, a-b-da, 5, 2, 3, 6, 90, 165, 161, 88, 165, 90, 3, 0.449458
170, 6, wb, attraction, a-b-db, 9, 1, 3, 7, 60, 135, 135, 60, 57, 129, 3, 1.28523
170, 6, wb, attraction, a-b-db, 9, 1, 3, 7, 60, 135, 135, 60, 57, 129, 1, 0.480788
170, 6, wb, attraction, a-b-da, 9, 3, 3, 8, 195, 120, 120, 195, 186, 114, 3, 1.25141
170, 6, wb, attraction, a-b-da, 9, 3, 3, 8, 195, 120, 120, 195, 186, 114, 1, 0.51218
170, 6, wb, filler, NA, 999, 999, 3, 9, 144, 81, 134, 170, 158, 78, 1, 0.817378
170, 6, wb, filler, NA, 999, 999, 3, 9, 144, 81, 134, 170, 158, 78, 2, 0.367694
170, 6, wb, attraction, a-b-da, 14, 3, 3, 10, 120, 195, 181, 111, 195, 120, 2, 3.05493
170, 6, wb, attraction, a-b-da, 14, 3, 3, 10, 120, 195, 181, 111, 195, 120, 1, 0.306611
170, 6, wb, filler, NA, 999, 999, 3, 11, 162, 84, 140, 134, 193, 167, 1, 1.25185
170, 6, wb, filler, NA, 999, 999, 3, 11, 162, 84, 140, 134, 193, 167, 3, 0.400662
170, 6, wb, filler, NA, 999, 999, 3, 12, 66, 117, 89, 111, 78, 72, 3, 1.38251
170, 6, wb, filler, NA, 999, 999, 3, 12, 66, 117, 89, 111, 78, 72, 2, 1.34208
170, 6, wb, attraction, a-b-db, 5, 3, 3, 13, 117, 190, 195, 120, 120, 195, 2, 6.14951
170, 6, wb, attraction, a-b-db, 5, 3, 3, 13, 117, 190, 195, 120, 120, 195, 3, 0.333101
170, 6, wb, attraction, a-b-db, 14, 2, 3, 14, 83, 153, 90, 165, 165, 90, 1, 0.78947
170, 6, wb, attraction, a-b-db, 14, 2, 3, 14, 83, 153, 90, 165, 165, 90, 3, 0.380458
170, 6, wb, filler, NA, 999, 999, 3, 15, 108, 193, 178, 91, 60, 138, 3, 1.15497
170, 6, wb, filler, NA, 999, 999, 3, 15, 108, 193, 178, 91, 60, 138, 1, 0.347247
170, 6, wb, attraction, a-b-db, 14, 1, 3, 16, 56, 125, 135, 60, 60, 135, 1, 2.63514
170, 6, wb, attraction, a-b-db, 14, 1, 3, 16, 56, 125, 135, 60, 60, 135, 3, 0.744363
170, 6, wb, filler, NA, 999, 999, 3, 17, 111, 191, 163, 71, 145, 105, 2, 1.96
170, 6, wb, filler, NA, 999, 999, 3, 17, 111, 191, 163, 71, 145, 105, 1, 0.920041
170, 6, wb, attraction, a-b-db, 9, 3, 3, 18, 195, 120, 114, 186, 120, 195, 2, 7.88903
170, 6, wb, attraction, a-b-db, 9, 3, 3, 18, 195, 120, 114, 186, 120, 195, 1, 0.370544
170, 6, wb, attraction, a-b-da, 5, 1, 3, 19, 135, 60, 60, 135, 132, 58, 1, 2.8017
170, 6, wb, attraction, a-b-da, 5, 1, 3, 19, 135, 60, 60, 135, 132, 58, 2, 0.520104
170, 6, wb, catch, NA, 999, 999, 3, 20, 62, 133, 141, 114, 146, 169, 1, 1.42522
170, 6, wb, catch, NA, 999, 999, 3, 20, 62, 133, 141, 114, 146, 169, 3, 0.646713
170, 6, wb, filler, NA, 999, 999, 3, 21, 60, 169, 81, 138, 108, 64, 3, 1.25038
170, 6, wb, filler, NA, 999, 999, 3, 21, 60, 169, 81, 138, 108, 64, 1, 1.49543
170, 6, wb, attraction, a-b-da, 2, 3, 3, 22, 193, 119, 195, 120, 120, 195, 3, 18.6809
170, 6, wb, attraction, a-b-da, 2, 3, 3, 22, 193, 119, 195, 120, 120, 195, 1, 0.990945
170, 6, wb, filler, NA, 999, 999, 3, 23, 186, 81, 86, 193, 83, 163, 3, 1.19669
170, 6, wb, filler, NA, 999, 999, 3, 23, 186, 81, 86, 193, 83, 163, 2, 1.2436
170, 6, wb, attraction, a-b-da, 2, 1, 3, 24, 135, 60, 134, 59, 60, 135, 1, 3.85509
170, 6, wb, attraction, a-b-da, 2, 1, 3, 24, 135, 60, 134, 59, 60, 135, 3, 1.34663
170, 6, wb, attraction, a-b-da, 9, 1, 3, 25, 60, 135, 135, 60, 129, 57, 3, 10.882
170, 6, wb, attraction, a-b-da, 9, 1, 3, 25, 60, 135, 135, 60, 129, 57, 1, 0.538687
170, 6, wb, filler, NA, 999, 999, 3, 26, 181, 61, 138, 111, 62, 125, 3, 1.05912
170, 6, wb, filler, NA, 999, 999, 3, 26, 181, 61, 138, 111, 62, 125, 2, 0.30333
170, 6, wb, attraction, a-b-da, 2, 2, 3, 27, 163, 89, 165, 90, 90, 165, 1, 5.92118
170, 6, wb, attraction, a-b-da, 2, 2, 3, 27, 163, 89, 165, 90, 90, 165, 3, 0.40997
170, 6, wb, attraction, a-b-db, 2, 2, 3, 28, 90, 165, 165, 90, 89, 163, 3, 4.07136
170, 6, wb, attraction, a-b-db, 2, 2, 3, 28, 90, 165, 165, 90, 89, 163, 2, 0.289826
170, 6, wb, filler, NA, 999, 999, 3, 29, 154, 88, 165, 81, 122, 162, 1, 2.48366
170, 6, wb, filler, NA, 999, 999, 3, 29, 154, 88, 165, 81, 122, 162, 3, 0.606939
170, 6, wb, attraction, a-b-db, 14, 3, 3, 30, 195, 120, 120, 195, 111, 181, 3, 3.98813
170, 6, wb, attraction, a-b-db, 14, 3, 3, 30, 195, 120, 120, 195, 111, 181, 1, 0.450076
170, 6, wb, attraction, a-b-da, 14, 2, 3, 31, 165, 90, 153, 83, 90, 165, 2, 3.85384
170, 6, wb, attraction, a-b-da, 14, 2, 3, 31, 165, 90, 153, 83, 90, 165, 3, 4.24214
170, 6, wb, catch, NA, 999, 999, 3, 32, 127, 188, 129, 66, 154, 101, 2, 1.21259
170, 6, wb, catch, NA, 999, 999, 3, 32, 127, 188, 129, 66, 154, 101, 1, 0.370853
170, 6, wb, attraction, a-b-da, 9, 2, 3, 33, 157, 86, 90, 165, 165, 90, 2, 23.634
170, 6, wb, attraction, a-b-da, 9, 2, 3, 33, 157, 86, 90, 165, 165, 90, 1, 0.984649
170, 6, wb, attraction, a-b-db, 2, 1, 3, 34, 59, 134, 60, 135, 135, 60, 1, 3.53486
170, 6, wb, attraction, a-b-db, 2, 1, 3, 34, 59, 134, 60, 135, 135, 60, 3, 0.519767
170, 6, wb, attraction, a-b-db, 5, 1, 3, 35, 58, 132, 135, 60, 60, 135, 1, 3.97696
170, 6, wb, attraction, a-b-db, 5, 1, 3, 35, 58, 132, 135, 60, 60, 135, 2, 0.447581
170, 6, wb, filler, NA, 999, 999, 3, 36, 94, 154, 98, 184, 135, 117, 1, 0.971484
170, 6, wb, filler, NA, 999, 999, 3, 36, 94, 154, 98, 184, 135, 117, 2, 0.859059
170, 6, wb, attraction, a-b-da, 5, 3, 3, 37, 120, 195, 195, 120, 190, 117, 1, 4.76623
170, 6, wb, attraction, a-b-da, 5, 3, 3, 37, 120, 195, 195, 120, 190, 117, 3, 0.365158
170, 6, wb, attraction, a-b-db, 14, 2, 4, 1, 165, 90, 90, 165, 83, 153, 3, 2.58039
170, 6, wb, attraction, a-b-db, 14, 2, 4, 1, 165, 90, 90, 165, 83, 153, 1, 0.419533
170, 6, wb, attraction, a-b-da, 14, 3, 4, 2, 181, 111, 120, 195, 195, 120, 1, 1.72866
170, 6, wb, attraction, a-b-da, 14, 3, 4, 2, 181, 111, 120, 195, 195, 120, 2, 2.64216
170, 6, wb, attraction, a-b-db, 5, 1, 4, 3, 60, 135, 58, 132, 135, 60, 3, 2.81329
170, 6, wb, attraction, a-b-db, 5, 1, 4, 3, 60, 135, 58, 132, 135, 60, 2, 0.65097
170, 6, wb, attraction, a-b-db, 2, 2, 4, 4, 89, 163, 165, 90, 90, 165, 1, 18.8868
170, 6, wb, attraction, a-b-db, 2, 2, 4, 4, 89, 163, 165, 90, 90, 165, 2, 1.34877
170, 6, wb, attraction, a-b-db, 5, 2, 4, 5, 88, 161, 165, 90, 90, 165, 1, 4.50035
170, 6, wb, attraction, a-b-db, 5, 2, 4, 5, 88, 161, 165, 90, 90, 165, 3, 0.462183
170, 6, wb, attraction, a-b-db, 2, 3, 4, 6, 120, 195, 119, 193, 195, 120, 1, 1.60927
170, 6, wb, attraction, a-b-db, 2, 3, 4, 6, 120, 195, 119, 193, 195, 120, 3, 0.59958
170, 6, wb, attraction, a-b-da, 2, 1, 4, 7, 135, 60, 134, 59, 60, 135, 3, 1.42124
170, 6, wb, attraction, a-b-da, 2, 1, 4, 7, 135, 60, 134, 59, 60, 135, 1, 0.418791
170, 6, wb, attraction, a-b-db, 9, 1, 4, 8, 60, 135, 57, 129, 135, 60, 2, 2.37594
170, 6, wb, attraction, a-b-db, 9, 1, 4, 8, 60, 135, 57, 129, 135, 60, 1, 0.551201
170, 6, wb, attraction, a-b-da, 9, 3, 4, 9, 195, 120, 120, 195, 186, 114, 3, 1.67888
170, 6, wb, attraction, a-b-da, 9, 3, 4, 9, 195, 120, 120, 195, 186, 114, 1, 0.75441
170, 6, wb, attraction, a-b-da, 5, 1, 4, 10, 60, 135, 132, 58, 135, 60, 1, 25.5941
170, 6, wb, attraction, a-b-da, 5, 1, 4, 10, 60, 135, 132, 58, 135, 60, 3, 0.506011
170, 6, wb, attraction, a-b-da, 2, 2, 4, 11, 165, 90, 90, 165, 163, 89, 1, 1.1478
170, 6, wb, attraction, a-b-da, 2, 2, 4, 11, 165, 90, 90, 165, 163, 89, 2, 0.66873
170, 6, wb, attraction, a-b-db, 14, 3, 4, 12, 120, 195, 111, 181, 195, 120, 2, 1.22388
170, 6, wb, attraction, a-b-db, 14, 3, 4, 12, 120, 195, 111, 181, 195, 120, 1, 0.349397
170, 6, wb, attraction, a-b-db, 9, 3, 4, 13, 114, 186, 120, 195, 195, 120, 1, 1.25339
170, 6, wb, attraction, a-b-db, 9, 3, 4, 13, 114, 186, 120, 195, 195, 120, 3, 0.490247
170, 6, wb, attraction, a-b-da, 2, 3, 4, 14, 120, 195, 193, 119, 195, 120, 2, 2.05201
170, 6, wb, attraction, a-b-da, 2, 3, 4, 14, 120, 195, 193, 119, 195, 120, 1, 0.32063
170, 6, wb, attraction, a-b-da, 9, 1, 4, 15, 60, 135, 129, 57, 135, 60, 3, 1.84181
170, 6, wb, attraction, a-b-da, 9, 1, 4, 15, 60, 135, 129, 57, 135, 60, 1, 0.342557
170, 6, wb, filler, NA, 999, 999, 4, 16, 194, 163, 78, 117, 117, 168, 2, 0.814406
170, 6, wb, filler, NA, 999, 999, 4, 16, 194, 163, 78, 117, 117, 168, 1, 0.284809
170, 6, wb, attraction, a-b-db, 14, 1, 4, 17, 56, 125, 60, 135, 135, 60, 3, 4.50337
170, 6, wb, attraction, a-b-db, 14, 1, 4, 17, 56, 125, 60, 135, 135, 60, 1, 0.777281
170, 6, wb, attraction, a-b-da, 14, 1, 4, 18, 125, 56, 60, 135, 135, 60, 2, 3.69561
170, 6, wb, attraction, a-b-da, 14, 1, 4, 18, 125, 56, 60, 135, 135, 60, 3, 2.04974
170, 6, wb, attraction, a-b-db, 5, 3, 4, 19, 195, 120, 117, 190, 120, 195, 2, 14.6052
170, 6, wb, attraction, a-b-db, 5, 3, 4, 19, 195, 120, 117, 190, 120, 195, 1, 0.319834
170, 6, wb, attraction, a-b-da, 5, 3, 4, 20, 190, 117, 120, 195, 195, 120, 1, 1.47293
170, 6, wb, attraction, a-b-da, 5, 3, 4, 20, 190, 117, 120, 195, 195, 120, 2, 0.380447
170, 6, wb, filler, NA, 999, 999, 4, 21, 183, 66, 139, 144, 157, 171, 1, 1.06689
170, 6, wb, filler, NA, 999, 999, 4, 21, 183, 66, 139, 144, 157, 171, 3, 0.943309
170, 6, wb, filler, NA, 999, 999, 4, 22, 58, 121, 88, 185, 73, 112, 1, 1.22281
170, 6, wb, filler, NA, 999, 999, 4, 22, 58, 121, 88, 185, 73, 112, 2, 0.348459
170, 6, wb, attraction, a-b-db, 9, 2, 4, 23, 165, 90, 90, 165, 86, 157, 3, 1.22034
170, 6, wb, attraction, a-b-db, 9, 2, 4, 23, 165, 90, 90, 165, 86, 157, 1, 0.354607
170, 6, wb, filler, NA, 999, 999, 4, 24, 189, 88, 147, 189, 87, 193, 3, 1.6504
170, 6, wb, filler, NA, 999, 999, 4, 24, 189, 88, 147, 189, 87, 193, 2, 0.247323
170, 6, wb, attraction, a-b-da, 5, 2, 4, 25, 161, 88, 165, 90, 90, 165, 1, 1.77903
170, 6, wb, attraction, a-b-da, 5, 2, 4, 25, 161, 88, 165, 90, 90, 165, 3, 0.642576
170, 6, wb, filler, NA, 999, 999, 4, 26, 182, 84, 173, 165, 85, 93, 3, 0.758232
170, 6, wb, filler, NA, 999, 999, 4, 26, 182, 84, 173, 165, 85, 93, 2, 0.334649
170, 6, wb, catch, NA, 999, 999, 4, 27, 165, 90, 169, 146, 64, 131, 3, 0.823219
170, 6, wb, catch, NA, 999, 999, 4, 27, 165, 90, 169, 146, 64, 131, 2, 0.260881
170, 6, wb, filler, NA, 999, 999, 4, 28, 194, 82, 184, 116, 132, 100, 3, 0.600188
170, 6, wb, filler, NA, 999, 999, 4, 28, 194, 82, 184, 116, 132, 100, 2, 0.247121
170, 6, wb, catch, NA, 999, 999, 4, 29, 148, 167, 106, 89, 98, 157, 2, 0.794998
170, 6, wb, catch, NA, 999, 999, 4, 29, 148, 167, 106, 89, 98, 157, 1, 0.282027
170, 6, wb, attraction, a-b-db, 2, 1, 4, 30, 135, 60, 59, 134, 60, 135, 1, 2.05253
170, 6, wb, attraction, a-b-db, 2, 1, 4, 30, 135, 60, 59, 134, 60, 135, 2, 0.385303
170, 6, wb, filler, NA, 999, 999, 4, 31, 183, 115, 148, 160, 80, 107, 3, 0.783767
170, 6, wb, filler, NA, 999, 999, 4, 31, 183, 115, 148, 160, 80, 107, 2, 2.17563
170, 6, wb, filler, NA, 999, 999, 4, 32, 73, 104, 127, 109, 97, 116, 1, 0.853597
170, 6, wb, filler, NA, 999, 999, 4, 32, 73, 104, 127, 109, 97, 116, 2, 0.298498
170, 6, wb, attraction, a-b-da, 9, 2, 4, 33, 90, 165, 165, 90, 157, 86, 1, 12.8363
170, 6, wb, attraction, a-b-da, 9, 2, 4, 33, 90, 165, 165, 90, 157, 86, 2, 0.302274
170, 6, wb, attraction, a-b-da, 14, 2, 4, 34, 153, 83, 90, 165, 165, 90, 1, 1.68811
170, 6, wb, attraction, a-b-da, 14, 2, 4, 34, 153, 83, 90, 165, 165, 90, 3, 0.554896
170, 6, wb, catch, NA, 999, 999, 4, 35, 121, 134, 80, 115, 192, 123, 2, 0.92266
170, 6, wb, catch, NA, 999, 999, 4, 35, 121, 134, 80, 115, 192, 123, 3, 0.324303
170, 6, wb, filler, NA, 999, 999, 4, 36, 155, 95, 163, 103, 144, 70, 3, 0.764892
170, 6, wb, filler, NA, 999, 999, 4, 36, 155, 95, 163, 103, 144, 70, 2, 0.269332
170, 6, wb, filler, NA, 999, 999, 4, 37, 139, 133, 156, 89, 185, 164, 2, 1.29657
170, 6, wb, filler, NA, 999, 999, 4, 37, 139, 133, 156, 89, 185, 164, 3, 0.459353
170, 6, wb, filler, NA, 999, 999, 5, 1, 106, 176, 107, 184, 121, 162, 1, 2.94101
170, 6, wb, filler, NA, 999, 999, 5, 1, 106, 176, 107, 184, 121, 162, 3, 0.765492
170, 6, wb, filler, NA, 999, 999, 5, 2, 113, 163, 147, 162, 118, 157, 3, 1.02051
170, 6, wb, filler, NA, 999, 999, 5, 2, 113, 163, 147, 162, 118, 157, 2, 0.658148
170, 6, wb, attraction, a-b-db, 5, 1, 5, 3, 58, 132, 60, 135, 135, 60, 2, 2.09329
170, 6, wb, attraction, a-b-db, 5, 1, 5, 3, 58, 132, 60, 135, 135, 60, 3, 0.599886
170, 6, wb, attraction, a-b-da, 9, 3, 5, 4, 120, 195, 195, 120, 186, 114, 3, 2.10969
170, 6, wb, attraction, a-b-da, 9, 3, 5, 4, 120, 195, 195, 120, 186, 114, 1, 0.327574
170, 6, wb, attraction, a-b-da, 5, 1, 5, 5, 132, 58, 60, 135, 135, 60, 1, 1.12013
170, 6, wb, attraction, a-b-da, 5, 1, 5, 5, 132, 58, 60, 135, 135, 60, 2, 0.746461
170, 6, wb, attraction, a-b-db, 5, 2, 5, 6, 90, 165, 88, 161, 165, 90, 2, 1.75409
170, 6, wb, attraction, a-b-db, 5, 2, 5, 6, 90, 165, 88, 161, 165, 90, 1, 0.314928
170, 6, wb, filler, NA, 999, 999, 5, 7, 107, 96, 150, 76, 116, 150, 1, 0.996162
170, 6, wb, filler, NA, 999, 999, 5, 7, 107, 96, 150, 76, 116, 150, 3, 0.315094
170, 6, wb, attraction, a-b-da, 2, 1, 5, 8, 135, 60, 134, 59, 60, 135, 3, 1.23625
170, 6, wb, attraction, a-b-da, 2, 1, 5, 8, 135, 60, 134, 59, 60, 135, 1, 0.577886
170, 6, wb, attraction, a-b-db, 9, 1, 5, 9, 135, 60, 60, 135, 57, 129, 3, 7.64823
170, 6, wb, attraction, a-b-db, 9, 1, 5, 9, 135, 60, 60, 135, 57, 129, 1, 0.395177
170, 6, wb, attraction, a-b-da, 14, 1, 5, 10, 125, 56, 135, 60, 60, 135, 1, 9.91301
170, 6, wb, attraction, a-b-da, 14, 1, 5, 10, 125, 56, 135, 60, 60, 135, 3, 0.47264
170, 6, wb, catch, NA, 999, 999, 5, 11, 122, 193, 73, 122, 122, 133, 2, 1.05908
170, 6, wb, catch, NA, 999, 999, 5, 11, 122, 193, 73, 122, 122, 133, 1, 0.359371
170, 6, wb, attraction, a-b-db, 9, 2, 5, 12, 90, 165, 86, 157, 165, 90, 2, 20.7666
170, 6, wb, attraction, a-b-db, 9, 2, 5, 12, 90, 165, 86, 157, 165, 90, 3, 1.7766
170, 6, wb, attraction, a-b-da, 2, 3, 5, 13, 195, 120, 193, 119, 120, 195, 1, 1.85483
170, 6, wb, attraction, a-b-da, 2, 3, 5, 13, 195, 120, 193, 119, 120, 195, 3, 0.3628
170, 6, wb, filler, NA, 999, 999, 5, 14, 56, 146, 184, 90, 77, 116, 1, 0.817951
170, 6, wb, filler, NA, 999, 999, 5, 14, 56, 146, 184, 90, 77, 116, 2, 0.304335
170, 6, wb, attraction, a-b-db, 9, 3, 5, 15, 120, 195, 195, 120, 114, 186, 1, 2.57817
170, 6, wb, attraction, a-b-db, 9, 3, 5, 15, 120, 195, 195, 120, 114, 186, 2, 0.289311
170, 6, wb, filler, NA, 999, 999, 5, 16, 79, 59, 177, 182, 111, 105, 1, 0.747116
170, 6, wb, filler, NA, 999, 999, 5, 16, 79, 59, 177, 182, 111, 105, 2, 0.276202
170, 6, wb, attraction, a-b-da, 9, 2, 5, 17, 165, 90, 157, 86, 90, 165, 2, 3.12676
170, 6, wb, attraction, a-b-da, 9, 2, 5, 17, 165, 90, 157, 86, 90, 165, 1, 0.271709
170, 6, wb, catch, NA, 999, 999, 5, 18, 82, 113, 102, 153, 141, 174, 1, 0.914844
170, 6, wb, catch, NA, 999, 999, 5, 18, 82, 113, 102, 153, 141, 174, 3, 0.381247
170, 6, wb, attraction, a-b-da, 2, 2, 5, 19, 163, 89, 90, 165, 165, 90, 1, 3.97178
170, 6, wb, attraction, a-b-da, 2, 2, 5, 19, 163, 89, 90, 165, 165, 90, 2, 0.490433
170, 6, wb, attraction, a-b-db, 14, 1, 5, 20, 60, 135, 56, 125, 135, 60, 2, 1.99639
170, 6, wb, attraction, a-b-db, 14, 1, 5, 20, 60, 135, 56, 125, 135, 60, 3, 0.86694
170, 6, wb, attraction, a-b-da, 9, 1, 5, 21, 135, 60, 129, 57, 60, 135, 2, 4.02206
170, 6, wb, attraction, a-b-da, 9, 1, 5, 21, 135, 60, 129, 57, 60, 135, 1, 0.330743
170, 6, wb, filler, NA, 999, 999, 5, 22, 178, 133, 86, 78, 175, 91, 2, 0.643091
170, 6, wb, filler, NA, 999, 999, 5, 22, 178, 133, 86, 78, 175, 91, 1, 0.296281
170, 6, wb, attraction, a-b-da, 14, 3, 5, 23, 195, 120, 181, 111, 120, 195, 2, 39.1703
170, 6, wb, attraction, a-b-da, 14, 3, 5, 23, 195, 120, 181, 111, 120, 195, 1, 0.374528
170, 6, wb, attraction, a-b-db, 14, 3, 5, 24, 195, 120, 111, 181, 120, 195, 3, 2.18107
170, 6, wb, attraction, a-b-db, 14, 3, 5, 24, 195, 120, 111, 181, 120, 195, 1, 0.468391
170, 6, wb, catch, NA, 999, 999, 5, 25, 110, 145, 130, 185, 109, 86, 3, 2.31942
170, 6, wb, catch, NA, 999, 999, 5, 25, 110, 145, 130, 185, 109, 86, 2, 0.369362
170, 6, wb, attraction, a-b-db, 5, 3, 5, 26, 117, 190, 120, 195, 195, 120, 2, 9.55251
170, 6, wb, attraction, a-b-db, 5, 3, 5, 26, 117, 190, 120, 195, 195, 120, 1, 0.382766
170, 6, wb, attraction, a-b-db, 2, 3, 5, 27, 119, 193, 120, 195, 195, 120, 1, 3.49329
170, 6, wb, attraction, a-b-db, 2, 3, 5, 27, 119, 193, 120, 195, 195, 120, 3, 0.415702
170, 6, wb, filler, NA, 999, 999, 5, 28, 115, 73, 128, 111, 150, 95, 1, 1.16472
170, 6, wb, filler, NA, 999, 999, 5, 28, 115, 73, 128, 111, 150, 95, 2, 0.805079
170, 6, wb, attraction, a-b-da, 5, 3, 5, 29, 195, 120, 120, 195, 190, 117, 2, 4.91486
170, 6, wb, attraction, a-b-da, 5, 3, 5, 29, 195, 120, 120, 195, 190, 117, 1, 0.315769
170, 6, wb, filler, NA, 999, 999, 5, 30, 162, 90, 88, 91, 59, 137, 2, 0.55688
170, 6, wb, filler, NA, 999, 999, 5, 30, 162, 90, 88, 91, 59, 137, 1, 0.293492
170, 6, wb, attraction, a-b-db, 2, 1, 5, 31, 59, 134, 135, 60, 60, 135, 1, 3.0154
170, 6, wb, attraction, a-b-db, 2, 1, 5, 31, 59, 134, 135, 60, 60, 135, 3, 0.380978
170, 6, wb, filler, NA, 999, 999, 5, 32, 76, 125, 187, 142, 119, 110, 1, 0.979476
170, 6, wb, filler, NA, 999, 999, 5, 32, 76, 125, 187, 142, 119, 110, 2, 0.26708
170, 6, wb, attraction, a-b-db, 14, 2, 5, 33, 165, 90, 83, 153, 90, 165, 2, 0.966322
170, 6, wb, attraction, a-b-db, 14, 2, 5, 33, 165, 90, 83, 153, 90, 165, 1, 0.342722
170, 6, wb, filler, NA, 999, 999, 5, 34, 173, 64, 65, 62, 65, 168, 2, 0.886428
170, 6, wb, filler, NA, 999, 999, 5, 34, 173, 64, 65, 62, 65, 168, 3, 0.345514
170, 6, wb, attraction, a-b-da, 5, 2, 5, 35, 90, 165, 165, 90, 161, 88, 3, 4.94543
170, 6, wb, attraction, a-b-da, 5, 2, 5, 35, 90, 165, 165, 90, 161, 88, 2, 0.505176
170, 6, wb, attraction, a-b-db, 2, 2, 5, 36, 89, 163, 165, 90, 90, 165, 3, 1.80292
170, 6, wb, attraction, a-b-db, 2, 2, 5, 36, 89, 163, 165, 90, 90, 165, 1, 0.617648
170, 6, wb, attraction, a-b-da, 14, 2, 5, 37, 165, 90, 153, 83, 90, 165, 3, 5.35088
170, 6, wb, attraction, a-b-da, 14, 2, 5, 37, 165, 90, 153, 83, 90, 165, 1, 0.806297
170, 6, wb, filler, NA, 999, 999, 6, 1, 128, 188, 85, 147, 148, 178, 2, 0.771343
170, 6, wb, filler, NA, 999, 999, 6, 1, 128, 188, 85, 147, 148, 178, 1, 1.21926
170, 6, wb, attraction, a-b-db, 14, 2, 6, 2, 90, 165, 165, 90, 83, 153, 3, 15.9682
170, 6, wb, attraction, a-b-db, 14, 2, 6, 2, 90, 165, 165, 90, 83, 153, 1, 0.411654
170, 6, wb, attraction, a-b-da, 2, 1, 6, 3, 134, 59, 60, 135, 135, 60, 2, 9.29691
170, 6, wb, attraction, a-b-da, 2, 1, 6, 3, 134, 59, 60, 135, 135, 60, 1, 0.521151
170, 6, wb, attraction, a-b-db, 14, 1, 6, 4, 135, 60, 56, 125, 60, 135, 2, 1.96227
170, 6, wb, attraction, a-b-db, 14, 1, 6, 4, 135, 60, 56, 125, 60, 135, 1, 0.642294
170, 6, wb, attraction, a-b-db, 9, 1, 6, 5, 60, 135, 135, 60, 57, 129, 3, 0.854068
170, 6, wb, attraction, a-b-db, 9, 1, 6, 5, 60, 135, 135, 60, 57, 129, 1, 0.539106
170, 6, wb, filler, NA, 999, 999, 6, 6, 65, 111, 195, 90, 120, 94, 1, 0.795558
170, 6, wb, filler, NA, 999, 999, 6, 6, 65, 111, 195, 90, 120, 94, 2, 0.322665
170, 6, wb, catch, NA, 999, 999, 6, 7, 122, 133, 171, 144, 111, 84, 3, 1.1072
170, 6, wb, catch, NA, 999, 999, 6, 7, 122, 133, 171, 144, 111, 84, 2, 0.509531
170, 6, wb, attraction, a-b-db, 2, 2, 6, 8, 165, 90, 89, 163, 90, 165, 2, 2.23055
170, 6, wb, attraction, a-b-db, 2, 2, 6, 8, 165, 90, 89, 163, 90, 165, 1, 0.507749
170, 6, wb, filler, NA, 999, 999, 6, 9, 168, 182, 191, 160, 61, 158, 3, 0.916932
170, 6, wb, filler, NA, 999, 999, 6, 9, 168, 182, 191, 160, 61, 158, 1, 0.807234
170, 6, wb, attraction, a-b-da, 9, 3, 6, 10, 186, 114, 120, 195, 195, 120, 3, 6.59641
170, 6, wb, attraction, a-b-da, 9, 3, 6, 10, 186, 114, 120, 195, 195, 120, 2, 1.19347
170, 6, wb, catch, NA, 999, 999, 6, 11, 121, 134, 148, 167, 108, 87, 3, 0.903115
170, 6, wb, catch, NA, 999, 999, 6, 11, 121, 134, 148, 167, 108, 87, 2, 0.578099
170, 6, wb, filler, NA, 999, 999, 6, 12, 122, 192, 168, 62, 94, 181, 2, 4.05655
170, 6, wb, filler, NA, 999, 999, 6, 12, 122, 192, 168, 62, 94, 181, 1, 0.267853
170, 6, wb, catch, NA, 999, 999, 6, 13, 112, 83, 181, 134, 142, 113, 1, 0.671065
170, 6, wb, catch, NA, 999, 999, 6, 13, 112, 83, 181, 134, 142, 113, 2, 0.378872
170, 6, wb, attraction, a-b-db, 14, 3, 6, 14, 195, 120, 111, 181, 120, 195, 2, 16.3454
170, 6, wb, attraction, a-b-db, 14, 3, 6, 14, 195, 120, 111, 181, 120, 195, 1, 0.325658
170, 6, wb, attraction, a-b-db, 5, 3, 6, 15, 120, 195, 195, 120, 117, 190, 3, 0.830076
170, 6, wb, attraction, a-b-db, 5, 3, 6, 15, 120, 195, 195, 120, 117, 190, 2, 0.339751
170, 6, wb, attraction, a-b-da, 9, 1, 6, 16, 60, 135, 135, 60, 129, 57, 3, 2.77967
170, 6, wb, attraction, a-b-da, 9, 1, 6, 16, 60, 135, 135, 60, 129, 57, 2, 0.802696
170, 6, wb, filler, NA, 999, 999, 6, 17, 142, 128, 153, 174, 162, 112, 1, 0.696387
170, 6, wb, filler, NA, 999, 999, 6, 17, 142, 128, 153, 174, 162, 112, 2, 0.371505
170, 6, wb, filler, NA, 999, 999, 6, 18, 87, 147, 82, 63, 156, 177, 2, 1.05069
170, 6, wb, filler, NA, 999, 999, 6, 18, 87, 147, 82, 63, 156, 177, 3, 0.279639
170, 6, wb, filler, NA, 999, 999, 6, 19, 119, 86, 181, 105, 154, 145, 1, 1.00214
170, 6, wb, filler, NA, 999, 999, 6, 19, 119, 86, 181, 105, 154, 145, 2, 0.393191
170, 6, wb, attraction, a-b-da, 5, 2, 6, 20, 161, 88, 165, 90, 90, 165, 1, 4.23895
170, 6, wb, attraction, a-b-da, 5, 2, 6, 20, 161, 88, 165, 90, 90, 165, 2, 0.298976
170, 6, wb, attraction, a-b-da, 14, 1, 6, 21, 135, 60, 125, 56, 60, 135, 2, 1.36479
170, 6, wb, attraction, a-b-da, 14, 1, 6, 21, 135, 60, 125, 56, 60, 135, 1, 0.325022
170, 6, wb, filler, NA, 999, 999, 6, 22, 85, 162, 158, 188, 108, 140, 1, 0.709527
170, 6, wb, filler, NA, 999, 999, 6, 22, 85, 162, 158, 188, 108, 140, 2, 0.343922
170, 6, wb, attraction, a-b-da, 5, 3, 6, 23, 120, 195, 195, 120, 190, 117, 3, 3.53591
170, 6, wb, attraction, a-b-da, 5, 3, 6, 23, 120, 195, 195, 120, 190, 117, 1, 0.400653
170, 6, wb, attraction, a-b-da, 2, 2, 6, 24, 165, 90, 90, 165, 163, 89, 3, 3.03052
170, 6, wb, attraction, a-b-da, 2, 2, 6, 24, 165, 90, 90, 165, 163, 89, 2, 0.79549
170, 6, wb, attraction, a-b-da, 2, 3, 6, 25, 195, 120, 193, 119, 120, 195, 3, 4.92119
170, 6, wb, attraction, a-b-da, 2, 3, 6, 25, 195, 120, 193, 119, 120, 195, 1, 0.698379
170, 6, wb, attraction, a-b-db, 9, 3, 6, 26, 195, 120, 120, 195, 114, 186, 3, 5.15608
170, 6, wb, attraction, a-b-db, 9, 3, 6, 26, 195, 120, 120, 195, 114, 186, 1, 0.795035
170, 6, wb, filler, NA, 999, 999, 6, 27, 90, 169, 154, 99, 56, 123, 3, 0.792755
170, 6, wb, filler, NA, 999, 999, 6, 27, 90, 169, 154, 99, 56, 123, 1, 0.623813
170, 6, wb, attraction, a-b-da, 14, 2, 6, 28, 153, 83, 90, 165, 165, 90, 1, 1.78032
170, 6, wb, attraction, a-b-da, 14, 2, 6, 28, 153, 83, 90, 165, 165, 90, 2, 0.555597
170, 6, wb, attraction, a-b-da, 9, 2, 6, 29, 157, 86, 165, 90, 90, 165, 1, 3.1474
170, 6, wb, attraction, a-b-da, 9, 2, 6, 29, 157, 86, 165, 90, 90, 165, 3, 0.603749
170, 6, wb, attraction, a-b-db, 9, 2, 6, 30, 90, 165, 86, 157, 165, 90, 2, 2.12139
170, 6, wb, attraction, a-b-db, 9, 2, 6, 30, 90, 165, 86, 157, 165, 90, 3, 1.15474
170, 6, wb, attraction, a-b-db, 2, 1, 6, 31, 135, 60, 59, 134, 60, 135, 2, 6.11437
170, 6, wb, attraction, a-b-db, 2, 1, 6, 31, 135, 60, 59, 134, 60, 135, 1, 0.315097
170, 6, wb, attraction, a-b-db, 5, 1, 6, 32, 135, 60, 60, 135, 58, 132, 3, 3.05226
170, 6, wb, attraction, a-b-db, 5, 1, 6, 32, 135, 60, 60, 135, 58, 132, 1, 0.600677
170, 6, wb, attraction, a-b-da, 5, 1, 6, 33, 135, 60, 60, 135, 132, 58, 1, 1.47031
170, 6, wb, attraction, a-b-da, 5, 1, 6, 33, 135, 60, 60, 135, 132, 58, 3, 0.906621
170, 6, wb, filler, NA, 999, 999, 6, 34, 122, 181, 121, 131, 73, 84, 3, 0.915535
170, 6, wb, filler, NA, 999, 999, 6, 34, 122, 181, 121, 131, 73, 84, 1, 0.573977
170, 6, wb, attraction, a-b-db, 2, 3, 6, 35, 195, 120, 120, 195, 119, 193, 3, 6.83628
170, 6, wb, attraction, a-b-db, 2, 3, 6, 35, 195, 120, 120, 195, 119, 193, 1, 0.536182
170, 6, wb, attraction, a-b-db, 5, 2, 6, 36, 88, 161, 165, 90, 90, 165, 1, 1.44852
170, 6, wb, attraction, a-b-db, 5, 2, 6, 36, 88, 161, 165, 90, 90, 165, 2, 0.53347
170, 6, wb, attraction, a-b-da, 14, 3, 6, 37, 181, 111, 195, 120, 120, 195, 1, 1.32591
170, 6, wb, attraction, a-b-da, 14, 3, 6, 37, 181, 111, 195, 120, 120, 195, 3, 0.615549
170, 6, wb, attraction, a-b-da, 5, 2, 7, 1, 161, 88, 165, 90, 90, 165, 1, 25.7886
170, 6, wb, attraction, a-b-da, 5, 2, 7, 1, 161, 88, 165, 90, 90, 165, 3, 1.34857
170, 6, wb, attraction, a-b-da, 14, 3, 7, 2, 181, 111, 120, 195, 195, 120, 1, 1.34796
170, 6, wb, attraction, a-b-da, 14, 3, 7, 2, 181, 111, 120, 195, 195, 120, 3, 0.420875
170, 6, wb, catch, NA, 999, 999, 7, 3, 187, 128, 130, 125, 96, 99, 3, 1.08198
170, 6, wb, catch, NA, 999, 999, 7, 3, 187, 128, 130, 125, 96, 99, 1, 0.645685
170, 6, wb, attraction, a-b-da, 5, 3, 7, 4, 195, 120, 190, 117, 120, 195, 2, 8.30546
170, 6, wb, attraction, a-b-da, 5, 3, 7, 4, 195, 120, 190, 117, 120, 195, 3, 0.32938
170, 6, wb, filler, NA, 999, 999, 7, 5, 157, 64, 162, 93, 132, 176, 1, 0.849859
170, 6, wb, filler, NA, 999, 999, 7, 5, 157, 64, 162, 93, 132, 176, 3, 0.334993
170, 6, wb, filler, NA, 999, 999, 7, 6, 120, 136, 117, 89, 106, 77, 3, 0.879554
170, 6, wb, filler, NA, 999, 999, 7, 6, 120, 136, 117, 89, 106, 77, 1, 0.659242
170, 6, wb, attraction, a-b-db, 9, 2, 7, 7, 86, 157, 90, 165, 165, 90, 1, 2.39042
170, 6, wb, attraction, a-b-db, 9, 2, 7, 7, 86, 157, 90, 165, 165, 90, 2, 1.56491
170, 6, wb, filler, NA, 999, 999, 7, 8, 180, 96, 101, 117, 150, 70, 2, 1.28368
170, 6, wb, filler, NA, 999, 999, 7, 8, 180, 96, 101, 117, 150, 70, 1, 0.903164
170, 6, wb, filler, NA, 999, 999, 7, 9, 112, 175, 144, 100, 127, 64, 3, 2.56081
170, 6, wb, filler, NA, 999, 999, 7, 9, 112, 175, 144, 100, 127, 64, 1, 0.504673
170, 6, wb, catch, NA, 999, 999, 7, 10, 92, 163, 120, 195, 99, 96, 3, 1.24238
170, 6, wb, catch, NA, 999, 999, 7, 10, 92, 163, 120, 195, 99, 96, 2, 0.367417
170, 6, wb, attraction, a-b-db, 5, 3, 7, 11, 117, 190, 120, 195, 195, 120, 2, 17.2705
170, 6, wb, attraction, a-b-db, 5, 3, 7, 11, 117, 190, 120, 195, 195, 120, 3, 0.405707
170, 6, wb, attraction, a-b-db, 2, 1, 7, 12, 59, 134, 135, 60, 60, 135, 3, 2.89157
170, 6, wb, attraction, a-b-db, 2, 1, 7, 12, 59, 134, 135, 60, 60, 135, 2, 0.605985
170, 6, wb, filler, NA, 999, 999, 7, 13, 154, 191, 112, 80, 173, 59, 2, 0.907695
170, 6, wb, filler, NA, 999, 999, 7, 13, 154, 191, 112, 80, 173, 59, 1, 0.310032
170, 6, wb, attraction, a-b-da, 14, 2, 7, 14, 90, 165, 153, 83, 165, 90, 3, 2.63131
170, 6, wb, attraction, a-b-da, 14, 2, 7, 14, 90, 165, 153, 83, 165, 90, 2, 0.348484
170, 6, wb, attraction, a-b-db, 2, 3, 7, 15, 120, 195, 119, 193, 195, 120, 2, 5.8923
170, 6, wb, attraction, a-b-db, 2, 3, 7, 15, 120, 195, 119, 193, 195, 120, 1, 2.58175
170, 6, wb, attraction, a-b-db, 2, 2, 7, 16, 90, 165, 89, 163, 165, 90, 2, 15.5955
170, 6, wb, attraction, a-b-db, 2, 2, 7, 16, 90, 165, 89, 163, 165, 90, 1, 1.06191
170, 6, wb, attraction, a-b-da, 2, 3, 7, 17, 195, 120, 193, 119, 120, 195, 2, 3.4009
170, 6, wb, attraction, a-b-da, 2, 3, 7, 17, 195, 120, 193, 119, 120, 195, 1, 0.415203
170, 6, wb, attraction, a-b-da, 9, 3, 7, 18, 195, 120, 186, 114, 120, 195, 3, 6.80445
170, 6, wb, attraction, a-b-da, 9, 3, 7, 18, 195, 120, 186, 114, 120, 195, 1, 0.537473
170, 6, wb, attraction, a-b-db, 14, 3, 7, 19, 120, 195, 111, 181, 195, 120, 2, 16.7299
170, 6, wb, attraction, a-b-db, 14, 3, 7, 19, 120, 195, 111, 181, 195, 120, 1, 0.55075
170, 6, wb, attraction, a-b-da, 14, 1, 7, 20, 125, 56, 135, 60, 60, 135, 1, 3.20644
170, 6, wb, attraction, a-b-da, 14, 1, 7, 20, 125, 56, 135, 60, 60, 135, 3, 0.460019
170, 6, wb, attraction, a-b-db, 14, 2, 7, 21, 83, 153, 90, 165, 165, 90, 1, 0.927124
170, 6, wb, attraction, a-b-db, 14, 2, 7, 21, 83, 153, 90, 165, 165, 90, 2, 0.672835
170, 6, wb, catch, NA, 999, 999, 7, 22, 160, 155, 127, 128, 100, 95, 3, 0.899292
170, 6, wb, catch, NA, 999, 999, 7, 22, 160, 155, 127, 128, 100, 95, 1, 0.646437
170, 6, wb, attraction, a-b-db, 14, 1, 7, 23, 60, 135, 135, 60, 56, 125, 3, 1.394
170, 6, wb, attraction, a-b-db, 14, 1, 7, 23, 60, 135, 135, 60, 56, 125, 2, 0.42505
170, 6, wb, attraction, a-b-db, 9, 1, 7, 24, 60, 135, 57, 129, 135, 60, 2, 2.95741
170, 6, wb, attraction, a-b-db, 9, 1, 7, 24, 60, 135, 57, 129, 135, 60, 3, 0.429096
170, 6, wb, attraction, a-b-da, 9, 1, 7, 25, 60, 135, 135, 60, 129, 57, 1, 5.92158
170, 6, wb, attraction, a-b-da, 9, 1, 7, 25, 60, 135, 135, 60, 129, 57, 2, 0.562433
170, 6, wb, attraction, a-b-db, 9, 3, 7, 26, 120, 195, 195, 120, 114, 186, 3, 1.52947
170, 6, wb, attraction, a-b-db, 9, 3, 7, 26, 120, 195, 195, 120, 114, 186, 2, 0.674962
170, 6, wb, filler, NA, 999, 999, 7, 27, 75, 97, 97, 160, 167, 108, 1, 0.861357
170, 6, wb, filler, NA, 999, 999, 7, 27, 75, 97, 97, 160, 167, 108, 2, 2.66579
170, 6, wb, attraction, a-b-da, 9, 2, 7, 28, 157, 86, 165, 90, 90, 165, 1, 13.9241
170, 6, wb, attraction, a-b-da, 9, 2, 7, 28, 157, 86, 165, 90, 90, 165, 3, 0.338533
170, 6, wb, attraction, a-b-db, 5, 1, 7, 29, 60, 135, 58, 132, 135, 60, 2, 0.666972
170, 6, wb, attraction, a-b-db, 5, 1, 7, 29, 60, 135, 58, 132, 135, 60, 1, 0.455524
170, 6, wb, filler, NA, 999, 999, 7, 30, 84, 168, 90, 146, 147, 138, 2, 0.963204
170, 6, wb, filler, NA, 999, 999, 7, 30, 84, 168, 90, 146, 147, 138, 3, 0.379588
170, 6, wb, attraction, a-b-da, 2, 1, 7, 31, 135, 60, 60, 135, 134, 59, 3, 2.17004
170, 6, wb, attraction, a-b-da, 2, 1, 7, 31, 135, 60, 60, 135, 134, 59, 1, 0.425994
170, 6, wb, filler, NA, 999, 999, 7, 32, 117, 117, 66, 154, 175, 153, 2, 1.09447
170, 6, wb, filler, NA, 999, 999, 7, 32, 117, 117, 66, 154, 175, 153, 3, 0.721595
170, 6, wb, filler, NA, 999, 999, 7, 33, 183, 154, 102, 138, 102, 69, 3, 0.626479
170, 6, wb, filler, NA, 999, 999, 7, 33, 183, 154, 102, 138, 102, 69, 1, 0.44026
170, 6, wb, attraction, a-b-da, 5, 1, 7, 34, 132, 58, 60, 135, 135, 60, 3, 5.06003
170, 6, wb, attraction, a-b-da, 5, 1, 7, 34, 132, 58, 60, 135, 135, 60, 2, 0.287057
170, 6, wb, attraction, a-b-da, 2, 2, 7, 35, 163, 89, 165, 90, 90, 165, 1, 10.594
170, 6, wb, attraction, a-b-da, 2, 2, 7, 35, 163, 89, 165, 90, 90, 165, 3, 0.36572
170, 6, wb, filler, NA, 999, 999, 7, 36, 66, 182, 112, 56, 191, 156, 2, 0.828787
170, 6, wb, filler, NA, 999, 999, 7, 36, 66, 182, 112, 56, 191, 156, 3, 0.290568
170, 6, wb, attraction, a-b-db, 5, 2, 7, 37, 90, 165, 88, 161, 165, 90, 2, 1.99646
170, 6, wb, attraction, a-b-db, 5, 2, 7, 37, 90, 165, 88, 161, 165, 90, 3, 0.707027
170, 6, wb, filler, NA, 999, 999, 8, 1, 178, 161, 189, 139, 99, 64, 3, 0.86809
170, 6, wb, filler, NA, 999, 999, 8, 1, 178, 161, 189, 139, 99, 64, 1, 0.384466
170, 6, wb, attraction, a-b-da, 5, 2, 8, 2, 165, 90, 90, 165, 161, 88, 1, 21.9429
170, 6, wb, attraction, a-b-da, 5, 2, 8, 2, 165, 90, 90, 165, 161, 88, 2, 0.370069
170, 6, wb, attraction, a-b-db, 9, 3, 8, 3, 195, 120, 114, 186, 120, 195, 2, 1.8492
170, 6, wb, attraction, a-b-db, 9, 3, 8, 3, 195, 120, 114, 186, 120, 195, 1, 0.390036
170, 6, wb, filler, NA, 999, 999, 8, 4, 166, 152, 194, 130, 125, 185, 3, 1.4038
170, 6, wb, filler, NA, 999, 999, 8, 4, 166, 152, 194, 130, 125, 185, 1, 0.402607
170, 6, wb, attraction, a-b-da, 9, 1, 8, 5, 135, 60, 129, 57, 60, 135, 3, 10.4645
170, 6, wb, attraction, a-b-da, 9, 1, 8, 5, 135, 60, 129, 57, 60, 135, 1, 1.44198
170, 6, wb, attraction, a-b-da, 2, 1, 8, 6, 134, 59, 60, 135, 135, 60, 2, 13.0213
170, 6, wb, attraction, a-b-da, 2, 1, 8, 6, 134, 59, 60, 135, 135, 60, 1, 0.37592
170, 6, wb, attraction, a-b-db, 5, 1, 8, 7, 135, 60, 60, 135, 58, 132, 2, 1.26235
170, 6, wb, attraction, a-b-db, 5, 1, 8, 7, 135, 60, 60, 135, 58, 132, 3, 0.258717
170, 6, wb, attraction, a-b-db, 14, 1, 8, 8, 56, 125, 135, 60, 60, 135, 1, 0.773837
170, 6, wb, attraction, a-b-db, 14, 1, 8, 8, 56, 125, 135, 60, 60, 135, 2, 0.99753
170, 6, wb, attraction, a-b-db, 9, 2, 8, 9, 90, 165, 165, 90, 86, 157, 3, 2.38717
170, 6, wb, attraction, a-b-db, 9, 2, 8, 9, 90, 165, 165, 90, 86, 157, 1, 1.02647
170, 6, wb, attraction, a-b-db, 14, 2, 8, 10, 90, 165, 165, 90, 83, 153, 3, 0.862715
170, 6, wb, attraction, a-b-db, 14, 2, 8, 10, 90, 165, 165, 90, 83, 153, 2, 0.571083
170, 6, wb, filler, NA, 999, 999, 8, 11, 110, 99, 190, 83, 117, 141, 1, 1.63418
170, 6, wb, filler, NA, 999, 999, 8, 11, 110, 99, 190, 83, 117, 141, 2, 1.02378
170, 6, wb, attraction, a-b-db, 2, 3, 8, 12, 119, 193, 120, 195, 195, 120, 1, 1.61198
170, 6, wb, attraction, a-b-db, 2, 3, 8, 12, 119, 193, 120, 195, 195, 120, 2, 0.410193
170, 6, wb, attraction, a-b-da, 5, 3, 8, 13, 195, 120, 120, 195, 190, 117, 1, 0.823269
170, 6, wb, attraction, a-b-da, 5, 3, 8, 13, 195, 120, 120, 195, 190, 117, 2, 1.51695
170, 6, wb, filler, NA, 999, 999, 8, 14, 140, 164, 190, 141, 133, 145, 3, 0.861869
170, 6, wb, filler, NA, 999, 999, 8, 14, 140, 164, 190, 141, 133, 145, 2, 0.362033
170, 6, wb, attraction, a-b-db, 2, 1, 8, 15, 60, 135, 59, 134, 135, 60, 3, 1.02519
170, 6, wb, attraction, a-b-db, 2, 1, 8, 15, 60, 135, 59, 134, 135, 60, 2, 0.446912
170, 6, wb, catch, NA, 999, 999, 8, 16, 151, 104, 139, 176, 99, 96, 3, 0.730781
170, 6, wb, catch, NA, 999, 999, 8, 16, 151, 104, 139, 176, 99, 96, 2, 0.500438
170, 6, wb, filler, NA, 999, 999, 8, 17, 156, 145, 165, 140, 82, 103, 3, 0.822214
170, 6, wb, filler, NA, 999, 999, 8, 17, 156, 145, 165, 140, 82, 103, 1, 1.20388
170, 6, wb, attraction, a-b-db, 9, 1, 8, 18, 60, 135, 57, 129, 135, 60, 1, 8.94546
170, 6, wb, attraction, a-b-db, 9, 1, 8, 18, 60, 135, 57, 129, 135, 60, 3, 0.495999
170, 6, wb, filler, NA, 999, 999, 8, 19, 167, 108, 156, 58, 78, 66, 3, 0.64178
170, 6, wb, filler, NA, 999, 999, 8, 19, 167, 108, 156, 58, 78, 66, 1, 0.310914
170, 6, wb, attraction, a-b-db, 5, 2, 8, 20, 90, 165, 165, 90, 88, 161, 1, 1.30408
170, 6, wb, attraction, a-b-db, 5, 2, 8, 20, 90, 165, 165, 90, 88, 161, 3, 0.434516
170, 6, wb, attraction, a-b-da, 9, 3, 8, 21, 120, 195, 186, 114, 195, 120, 2, 1.89475
170, 6, wb, attraction, a-b-da, 9, 3, 8, 21, 120, 195, 186, 114, 195, 120, 1, 0.249503
170, 6, wb, attraction, a-b-db, 14, 3, 8, 22, 120, 195, 195, 120, 111, 181, 3, 1.30942
170, 6, wb, attraction, a-b-db, 14, 3, 8, 22, 120, 195, 195, 120, 111, 181, 1, 0.279528
170, 6, wb, filler, NA, 999, 999, 8, 23, 165, 145, 162, 76, 174, 101, 2, 1.01818
170, 6, wb, filler, NA, 999, 999, 8, 23, 165, 145, 162, 76, 174, 101, 1, 0.312435
170, 6, wb, attraction, a-b-da, 2, 3, 8, 24, 193, 119, 120, 195, 195, 120, 1, 0.945652
170, 6, wb, attraction, a-b-da, 2, 3, 8, 24, 193, 119, 120, 195, 195, 120, 2, 0.250652
170, 6, wb, filler, NA, 999, 999, 8, 25, 117, 174, 60, 93, 168, 89, 2, 0.79855
170, 6, wb, filler, NA, 999, 999, 8, 25, 117, 174, 60, 93, 168, 89, 1, 0.269634
170, 6, wb, attraction, a-b-da, 9, 2, 8, 26, 165, 90, 157, 86, 90, 165, 2, 1.2007
170, 6, wb, attraction, a-b-da, 9, 2, 8, 26, 165, 90, 157, 86, 90, 165, 1, 0.559755
170, 6, wb, filler, NA, 999, 999, 8, 27, 68, 169, 131, 101, 62, 138, 3, 1.24679
170, 6, wb, filler, NA, 999, 999, 8, 27, 68, 169, 131, 101, 62, 138, 2, 0.299665
170, 6, wb, attraction, a-b-da, 2, 2, 8, 28, 90, 165, 163, 89, 165, 90, 2, 1.68545
170, 6, wb, attraction, a-b-da, 2, 2, 8, 28, 90, 165, 163, 89, 165, 90, 1, 0.305007
170, 6, wb, attraction, a-b-da, 5, 1, 8, 29, 60, 135, 132, 58, 135, 60, 1, 3.16275
170, 6, wb, attraction, a-b-da, 5, 1, 8, 29, 60, 135, 132, 58, 135, 60, 3, 0.578439
170, 6, wb, attraction, a-b-da, 14, 1, 8, 30, 60, 135, 135, 60, 125, 56, 2, 1.0409
170, 6, wb, attraction, a-b-da, 14, 1, 8, 30, 60, 135, 135, 60, 125, 56, 1, 0.237887
170, 6, wb, attraction, a-b-db, 5, 3, 8, 31, 117, 190, 120, 195, 195, 120, 2, 6.8505
170, 6, wb, attraction, a-b-db, 5, 3, 8, 31, 117, 190, 120, 195, 195, 120, 3, 0.309505
170, 6, wb, catch, NA, 999, 999, 8, 32, 106, 89, 126, 189, 133, 122, 1, 0.62278
170, 6, wb, catch, NA, 999, 999, 8, 32, 106, 89, 126, 189, 133, 122, 2, 0.556487
170, 6, wb, attraction, a-b-da, 14, 3, 8, 33, 181, 111, 120, 195, 195, 120, 2, 0.995693
170, 6, wb, attraction, a-b-da, 14, 3, 8, 33, 181, 111, 120, 195, 195, 120, 3, 0.906617
170, 6, wb, attraction, a-b-db, 2, 2, 8, 34, 89, 163, 90, 165, 165, 90, 1, 1.6276
170, 6, wb, attraction, a-b-db, 2, 2, 8, 34, 89, 163, 90, 165, 165, 90, 2, 0.417052
170, 6, wb, attraction, a-b-da, 14, 2, 8, 35, 90, 165, 153, 83, 165, 90, 2, 1.77419
170, 6, wb, attraction, a-b-da, 14, 2, 8, 35, 90, 165, 153, 83, 165, 90, 1, 0.621672
170, 6, wb, catch, NA, 999, 999, 8, 36, 120, 195, 60, 135, 137, 118, 2, 0.938777
170, 6, wb, catch, NA, 999, 999, 8, 36, 120, 195, 60, 135, 137, 118, 1, 0.259784
170, 6, wb, filler, NA, 999, 999, 8, 37, 91, 67, 131, 107, 95, 108, 1, 1.09486
170, 6, wb, filler, NA, 999, 999, 8, 37, 91, 67, 131, 107, 95, 108, 2, 0.305886
