sub_n, computer_n, bw_cond, effect, set, distance, diag, block_n, trial_n, h1, w1, h2, w2, h3, w3, choice, rt 
185, 6, bw, practice, NA, 999, 999, 0, 1, 133, 61, 153, 74, 153, 178, 3, 3.36293
185, 6, bw, practice, NA, 999, 999, 0, 1, 133, 61, 153, 74, 153, 178, 1, 4.28288
185, 6, bw, practice, NA, 999, 999, 0, 2, 114, 161, 111, 188, 144, 58, 2, 4.20884
185, 6, bw, practice, NA, 999, 999, 0, 2, 114, 161, 111, 188, 144, 58, 3, 3.08554
185, 6, bw, practice, NA, 999, 999, 0, 3, 67, 169, 63, 116, 63, 111, 1, 4.285
185, 6, bw, practice, NA, 999, 999, 0, 3, 67, 169, 63, 116, 63, 111, 3, 6.91844
185, 6, bw, attraction, a-b-db, 14, 3, 1, 1, 195, 120, 120, 195, 111, 181, 2, 13.9115
185, 6, bw, attraction, a-b-db, 14, 3, 1, 1, 195, 120, 120, 195, 111, 181, 3, 10.0618
185, 6, bw, filler, NA, 999, 999, 1, 2, 97, 130, 122, 89, 138, 137, 3, 3.30992
185, 6, bw, filler, NA, 999, 999, 1, 2, 97, 130, 122, 89, 138, 137, 2, 2.09547
185, 6, bw, attraction, a-b-da, 2, 1, 1, 3, 135, 60, 60, 135, 134, 59, 2, 3.43285
185, 6, bw, attraction, a-b-da, 2, 1, 1, 3, 135, 60, 60, 135, 134, 59, 3, 3.47771
185, 6, bw, attraction, a-b-db, 9, 1, 1, 4, 135, 60, 60, 135, 57, 129, 2, 5.37525
185, 6, bw, attraction, a-b-db, 9, 1, 1, 4, 135, 60, 60, 135, 57, 129, 3, 8.55753
185, 6, bw, attraction, a-b-db, 14, 2, 1, 5, 90, 165, 83, 153, 165, 90, 1, 6.34676
185, 6, bw, attraction, a-b-db, 14, 2, 1, 5, 90, 165, 83, 153, 165, 90, 2, 1.1461
185, 6, bw, filler, NA, 999, 999, 1, 6, 81, 168, 194, 84, 104, 187, 3, 3.65763
185, 6, bw, filler, NA, 999, 999, 1, 6, 81, 168, 194, 84, 104, 187, 1, 1.08521
185, 6, bw, attraction, a-b-da, 14, 3, 1, 7, 181, 111, 120, 195, 195, 120, 2, 4.15147
185, 6, bw, attraction, a-b-da, 14, 3, 1, 7, 181, 111, 120, 195, 195, 120, 1, 0.815471
185, 6, bw, attraction, a-b-da, 9, 2, 1, 8, 157, 86, 90, 165, 165, 90, 2, 2.98054
185, 6, bw, attraction, a-b-da, 9, 2, 1, 8, 157, 86, 90, 165, 165, 90, 1, 0.79556
185, 6, bw, filler, NA, 999, 999, 1, 9, 69, 148, 87, 188, 90, 91, 2, 3.38531
185, 6, bw, filler, NA, 999, 999, 1, 9, 69, 148, 87, 188, 90, 91, 3, 1.10418
185, 6, bw, attraction, a-b-db, 5, 1, 1, 10, 135, 60, 60, 135, 58, 132, 2, 6.44977
185, 6, bw, attraction, a-b-db, 5, 1, 1, 10, 135, 60, 60, 135, 58, 132, 1, 3.56515
185, 6, bw, attraction, a-b-da, 5, 1, 1, 11, 132, 58, 60, 135, 135, 60, 2, 9.10719
185, 6, bw, attraction, a-b-da, 5, 1, 1, 11, 132, 58, 60, 135, 135, 60, 1, 0.539021
185, 6, bw, filler, NA, 999, 999, 1, 12, 112, 150, 95, 92, 156, 173, 3, 1.40345
185, 6, bw, filler, NA, 999, 999, 1, 12, 112, 150, 95, 92, 156, 173, 2, 1.53767
185, 6, bw, attraction, a-b-da, 9, 1, 1, 13, 135, 60, 60, 135, 129, 57, 2, 5.52173
185, 6, bw, attraction, a-b-da, 9, 1, 1, 13, 135, 60, 60, 135, 129, 57, 3, 1.77066
185, 6, bw, filler, NA, 999, 999, 1, 14, 154, 177, 58, 76, 130, 153, 1, 1.57743
185, 6, bw, filler, NA, 999, 999, 1, 14, 154, 177, 58, 76, 130, 153, 2, 1.37681
185, 6, bw, catch, NA, 999, 999, 1, 15, 125, 130, 101, 94, 131, 184, 3, 1.51897
185, 6, bw, catch, NA, 999, 999, 1, 15, 125, 130, 101, 94, 131, 184, 2, 1.20116
185, 6, bw, attraction, a-b-da, 2, 3, 1, 16, 193, 119, 195, 120, 120, 195, 2, 2.63076
185, 6, bw, attraction, a-b-da, 2, 3, 1, 16, 193, 119, 195, 120, 120, 195, 1, 4.26787
185, 6, bw, attraction, a-b-db, 9, 3, 1, 17, 120, 195, 114, 186, 195, 120, 2, 2.34182
185, 6, bw, attraction, a-b-db, 9, 3, 1, 17, 120, 195, 114, 186, 195, 120, 3, 4.83049
185, 6, bw, filler, NA, 999, 999, 1, 18, 72, 73, 106, 92, 114, 94, 3, 4.04157
185, 6, bw, filler, NA, 999, 999, 1, 18, 72, 73, 106, 92, 114, 94, 1, 0.877517
185, 6, bw, filler, NA, 999, 999, 1, 19, 184, 125, 139, 148, 172, 66, 1, 5.03192
185, 6, bw, filler, NA, 999, 999, 1, 19, 184, 125, 139, 148, 172, 66, 3, 1.16429
185, 6, bw, filler, NA, 999, 999, 1, 20, 110, 164, 190, 191, 117, 168, 2, 1.66717
185, 6, bw, filler, NA, 999, 999, 1, 20, 110, 164, 190, 191, 117, 168, 1, 4.15152
185, 6, bw, catch, NA, 999, 999, 1, 21, 189, 126, 113, 82, 92, 163, 1, 2.03805
185, 6, bw, catch, NA, 999, 999, 1, 21, 189, 126, 113, 82, 92, 163, 2, 2.68263
185, 6, bw, attraction, a-b-db, 5, 2, 1, 22, 165, 90, 88, 161, 90, 165, 2, 8.7404
185, 6, bw, attraction, a-b-db, 5, 2, 1, 22, 165, 90, 88, 161, 90, 165, 3, 0.978993
185, 6, bw, attraction, a-b-da, 2, 2, 1, 23, 90, 165, 163, 89, 165, 90, 1, 7.14544
185, 6, bw, attraction, a-b-da, 2, 2, 1, 23, 90, 165, 163, 89, 165, 90, 2, 2.76853
185, 6, bw, attraction, a-b-db, 5, 3, 1, 24, 195, 120, 120, 195, 117, 190, 2, 2.86272
185, 6, bw, attraction, a-b-db, 5, 3, 1, 24, 195, 120, 120, 195, 117, 190, 1, 0.610473
185, 6, bw, attraction, a-b-db, 2, 2, 1, 25, 165, 90, 90, 165, 89, 163, 2, 2.63968
185, 6, bw, attraction, a-b-db, 2, 2, 1, 25, 165, 90, 90, 165, 89, 163, 3, 1.25206
185, 6, bw, attraction, a-b-da, 5, 3, 1, 26, 190, 117, 195, 120, 120, 195, 1, 1.99164
185, 6, bw, attraction, a-b-da, 5, 3, 1, 26, 190, 117, 195, 120, 120, 195, 3, 0.614394
185, 6, bw, attraction, a-b-da, 14, 2, 1, 27, 153, 83, 165, 90, 90, 165, 2, 1.05936
185, 6, bw, attraction, a-b-da, 14, 2, 1, 27, 153, 83, 165, 90, 90, 165, 3, 0.503682
185, 6, bw, attraction, a-b-db, 14, 1, 1, 28, 56, 125, 60, 135, 135, 60, 2, 2.76148
185, 6, bw, attraction, a-b-db, 14, 1, 1, 28, 56, 125, 60, 135, 135, 60, 1, 3.5293
185, 6, bw, filler, NA, 999, 999, 1, 29, 63, 95, 133, 163, 99, 121, 2, 1.07278
185, 6, bw, filler, NA, 999, 999, 1, 29, 63, 95, 133, 163, 99, 121, 1, 1.50046
185, 6, bw, attraction, a-b-da, 14, 1, 1, 30, 60, 135, 125, 56, 135, 60, 1, 2.39797
185, 6, bw, attraction, a-b-da, 14, 1, 1, 30, 60, 135, 125, 56, 135, 60, 2, 4.29245
185, 6, bw, attraction, a-b-db, 2, 3, 1, 31, 120, 195, 195, 120, 119, 193, 1, 4.00512
185, 6, bw, attraction, a-b-db, 2, 3, 1, 31, 120, 195, 195, 120, 119, 193, 3, 3.57859
185, 6, bw, attraction, a-b-da, 9, 3, 1, 32, 186, 114, 195, 120, 120, 195, 3, 2.93598
185, 6, bw, attraction, a-b-da, 9, 3, 1, 32, 186, 114, 195, 120, 120, 195, 1, 1.24892
185, 6, bw, attraction, a-b-db, 9, 2, 1, 33, 165, 90, 90, 165, 86, 157, 2, 2.04448
185, 6, bw, attraction, a-b-db, 9, 2, 1, 33, 165, 90, 90, 165, 86, 157, 3, 1.00922
185, 6, bw, catch, NA, 999, 999, 1, 34, 87, 108, 140, 115, 171, 144, 3, 2.01414
185, 6, bw, catch, NA, 999, 999, 1, 34, 87, 108, 140, 115, 171, 144, 1, 0.78016
185, 6, bw, attraction, a-b-db, 2, 1, 1, 35, 135, 60, 59, 134, 60, 135, 2, 2.37856
185, 6, bw, attraction, a-b-db, 2, 1, 1, 35, 135, 60, 59, 134, 60, 135, 3, 1.64174
185, 6, bw, filler, NA, 999, 999, 1, 36, 151, 90, 88, 189, 67, 194, 2, 0.877227
185, 6, bw, filler, NA, 999, 999, 1, 36, 151, 90, 88, 189, 67, 194, 1, 0.705039
185, 6, bw, attraction, a-b-da, 5, 2, 1, 37, 90, 165, 161, 88, 165, 90, 2, 1.79458
185, 6, bw, attraction, a-b-da, 5, 2, 1, 37, 90, 165, 161, 88, 165, 90, 3, 0.873344
185, 6, bw, filler, NA, 999, 999, 2, 1, 173, 115, 100, 178, 159, 68, 2, 0.819666
185, 6, bw, filler, NA, 999, 999, 2, 1, 173, 115, 100, 178, 159, 68, 3, 0.858117
185, 6, bw, filler, NA, 999, 999, 2, 2, 134, 181, 190, 104, 131, 129, 1, 1.02908
185, 6, bw, filler, NA, 999, 999, 2, 2, 134, 181, 190, 104, 131, 129, 3, 1.01077
185, 6, bw, attraction, a-b-da, 14, 3, 2, 3, 181, 111, 195, 120, 120, 195, 2, 1.91175
185, 6, bw, attraction, a-b-da, 14, 3, 2, 3, 181, 111, 195, 120, 120, 195, 1, 0.905735
185, 6, bw, catch, NA, 999, 999, 2, 4, 161, 94, 185, 130, 90, 105, 2, 0.955447
185, 6, bw, catch, NA, 999, 999, 2, 4, 161, 94, 185, 130, 90, 105, 3, 1.52381
185, 6, bw, attraction, a-b-da, 2, 3, 2, 5, 120, 195, 195, 120, 193, 119, 1, 2.08399
185, 6, bw, attraction, a-b-da, 2, 3, 2, 5, 120, 195, 195, 120, 193, 119, 3, 0.75918
185, 6, bw, attraction, a-b-db, 5, 3, 2, 6, 195, 120, 120, 195, 117, 190, 1, 1.45432
185, 6, bw, attraction, a-b-db, 5, 3, 2, 6, 195, 120, 120, 195, 117, 190, 3, 0.826467
185, 6, bw, filler, NA, 999, 999, 2, 7, 72, 134, 114, 127, 86, 118, 2, 1.43885
185, 6, bw, filler, NA, 999, 999, 2, 7, 72, 134, 114, 127, 86, 118, 3, 2.29184
185, 6, bw, filler, NA, 999, 999, 2, 8, 101, 162, 115, 72, 139, 78, 1, 1.63675
185, 6, bw, filler, NA, 999, 999, 2, 8, 101, 162, 115, 72, 139, 78, 2, 0.890347
185, 6, bw, attraction, a-b-db, 9, 3, 2, 9, 114, 186, 120, 195, 195, 120, 2, 1.49992
185, 6, bw, attraction, a-b-db, 9, 3, 2, 9, 114, 186, 120, 195, 195, 120, 1, 0.654797
185, 6, bw, attraction, a-b-db, 5, 1, 2, 10, 135, 60, 58, 132, 60, 135, 3, 3.4025
185, 6, bw, attraction, a-b-db, 5, 1, 2, 10, 135, 60, 58, 132, 60, 135, 1, 1.28082
185, 6, bw, attraction, a-b-da, 5, 2, 2, 11, 90, 165, 161, 88, 165, 90, 3, 1.78694
185, 6, bw, attraction, a-b-da, 5, 2, 2, 11, 90, 165, 161, 88, 165, 90, 2, 1.54641
185, 6, bw, filler, NA, 999, 999, 2, 12, 66, 156, 162, 195, 174, 168, 2, 1.10594
185, 6, bw, filler, NA, 999, 999, 2, 12, 66, 156, 162, 195, 174, 168, 1, 0.684167
185, 6, bw, attraction, a-b-db, 5, 2, 2, 13, 165, 90, 90, 165, 88, 161, 2, 1.54258
185, 6, bw, attraction, a-b-db, 5, 2, 2, 13, 165, 90, 90, 165, 88, 161, 3, 1.51139
185, 6, bw, attraction, a-b-da, 9, 2, 2, 14, 157, 86, 90, 165, 165, 90, 2, 3.91219
185, 6, bw, attraction, a-b-da, 9, 2, 2, 14, 157, 86, 90, 165, 165, 90, 1, 0.801559
185, 6, bw, attraction, a-b-db, 2, 3, 2, 15, 119, 193, 195, 120, 120, 195, 1, 2.74332
185, 6, bw, attraction, a-b-db, 2, 3, 2, 15, 119, 193, 195, 120, 120, 195, 2, 16.6879
185, 6, bw, attraction, a-b-da, 2, 2, 2, 16, 163, 89, 165, 90, 90, 165, 3, 10.3971
185, 6, bw, attraction, a-b-da, 2, 2, 2, 16, 163, 89, 165, 90, 90, 165, 2, 0.9372
185, 6, bw, filler, NA, 999, 999, 2, 17, 120, 57, 113, 188, 84, 139, 2, 2.72145
185, 6, bw, filler, NA, 999, 999, 2, 17, 120, 57, 113, 188, 84, 139, 1, 1.60265
185, 6, bw, filler, NA, 999, 999, 2, 18, 66, 117, 151, 156, 87, 171, 2, 6.72005
185, 6, bw, filler, NA, 999, 999, 2, 18, 66, 117, 151, 156, 87, 171, 1, 0.92059
185, 6, bw, filler, NA, 999, 999, 2, 19, 115, 91, 93, 110, 173, 122, 3, 7.47367
185, 6, bw, filler, NA, 999, 999, 2, 19, 115, 91, 93, 110, 173, 122, 1, 0.851254
185, 6, bw, attraction, a-b-da, 9, 3, 2, 20, 120, 195, 186, 114, 195, 120, 1, 3.70287
185, 6, bw, attraction, a-b-da, 9, 3, 2, 20, 120, 195, 186, 114, 195, 120, 2, 0.840995
185, 6, bw, attraction, a-b-da, 5, 3, 2, 21, 195, 120, 190, 117, 120, 195, 3, 2.54076
185, 6, bw, attraction, a-b-da, 5, 3, 2, 21, 195, 120, 190, 117, 120, 195, 2, 0.621322
185, 6, bw, attraction, a-b-da, 2, 1, 2, 22, 134, 59, 135, 60, 60, 135, 3, 3.29044
185, 6, bw, attraction, a-b-da, 2, 1, 2, 22, 134, 59, 135, 60, 60, 135, 2, 0.820594
185, 6, bw, attraction, a-b-db, 14, 3, 2, 23, 120, 195, 195, 120, 111, 181, 1, 3.32959
185, 6, bw, attraction, a-b-db, 14, 3, 2, 23, 120, 195, 195, 120, 111, 181, 2, 6.76262
185, 6, bw, catch, NA, 999, 999, 2, 24, 179, 136, 61, 134, 157, 98, 1, 1.25572
185, 6, bw, catch, NA, 999, 999, 2, 24, 179, 136, 61, 134, 157, 98, 2, 0.635898
185, 6, bw, attraction, a-b-db, 9, 1, 2, 25, 60, 135, 57, 129, 135, 60, 1, 2.97638
185, 6, bw, attraction, a-b-db, 9, 1, 2, 25, 60, 135, 57, 129, 135, 60, 3, 0.871443
185, 6, bw, attraction, a-b-da, 14, 2, 2, 26, 165, 90, 90, 165, 153, 83, 2, 2.97844
185, 6, bw, attraction, a-b-da, 14, 2, 2, 26, 165, 90, 90, 165, 153, 83, 3, 1.04153
185, 6, bw, attraction, a-b-da, 14, 1, 2, 27, 125, 56, 135, 60, 60, 135, 3, 3.16502
185, 6, bw, attraction, a-b-da, 14, 1, 2, 27, 125, 56, 135, 60, 60, 135, 2, 1.55676
185, 6, bw, attraction, a-b-db, 2, 2, 2, 28, 89, 163, 90, 165, 165, 90, 1, 6.45955
185, 6, bw, attraction, a-b-db, 2, 2, 2, 28, 89, 163, 90, 165, 165, 90, 3, 5.92631
185, 6, bw, filler, NA, 999, 999, 2, 29, 97, 109, 107, 108, 161, 98, 2, 3.98088
185, 6, bw, filler, NA, 999, 999, 2, 29, 97, 109, 107, 108, 161, 98, 1, 10.7796
185, 6, bw, filler, NA, 999, 999, 2, 30, 175, 183, 76, 180, 130, 160, 1, 3.12679
185, 6, bw, filler, NA, 999, 999, 2, 30, 175, 183, 76, 180, 130, 160, 2, 2.03984
185, 6, bw, attraction, a-b-db, 14, 1, 2, 31, 60, 135, 56, 125, 135, 60, 3, 11.4592
185, 6, bw, attraction, a-b-db, 14, 1, 2, 31, 60, 135, 56, 125, 135, 60, 1, 0.900185
185, 6, bw, catch, NA, 999, 999, 2, 32, 128, 127, 187, 128, 79, 116, 2, 5.6059
185, 6, bw, catch, NA, 999, 999, 2, 32, 128, 127, 187, 128, 79, 116, 3, 0.898807
185, 6, bw, attraction, a-b-da, 5, 1, 2, 33, 132, 58, 60, 135, 135, 60, 2, 6.8764
185, 6, bw, attraction, a-b-da, 5, 1, 2, 33, 132, 58, 60, 135, 135, 60, 3, 0.646215
185, 6, bw, attraction, a-b-db, 9, 2, 2, 34, 86, 157, 90, 165, 165, 90, 2, 1.65807
185, 6, bw, attraction, a-b-db, 9, 2, 2, 34, 86, 157, 90, 165, 165, 90, 3, 1.32619
185, 6, bw, attraction, a-b-da, 9, 1, 2, 35, 60, 135, 129, 57, 135, 60, 2, 1.17434
185, 6, bw, attraction, a-b-da, 9, 1, 2, 35, 60, 135, 129, 57, 135, 60, 3, 0.741933
185, 6, bw, attraction, a-b-db, 14, 2, 2, 36, 83, 153, 165, 90, 90, 165, 2, 0.805573
185, 6, bw, attraction, a-b-db, 14, 2, 2, 36, 83, 153, 165, 90, 90, 165, 3, 1.13997
185, 6, bw, attraction, a-b-db, 2, 1, 2, 37, 60, 135, 135, 60, 59, 134, 2, 0.643682
185, 6, bw, attraction, a-b-db, 2, 1, 2, 37, 60, 135, 135, 60, 59, 134, 3, 0.576677
185, 6, bw, catch, NA, 999, 999, 3, 1, 140, 175, 97, 98, 144, 111, 1, 1.55917
185, 6, bw, catch, NA, 999, 999, 3, 1, 140, 175, 97, 98, 144, 111, 2, 0.663292
185, 6, bw, filler, NA, 999, 999, 3, 2, 57, 60, 182, 77, 157, 76, 2, 1.41032
185, 6, bw, filler, NA, 999, 999, 3, 2, 57, 60, 182, 77, 157, 76, 1, 0.728484
185, 6, bw, filler, NA, 999, 999, 3, 3, 154, 74, 81, 193, 105, 79, 2, 1.19291
185, 6, bw, filler, NA, 999, 999, 3, 3, 154, 74, 81, 193, 105, 79, 3, 0.799843
185, 6, bw, attraction, a-b-da, 14, 3, 3, 4, 120, 195, 181, 111, 195, 120, 1, 1.74154
185, 6, bw, attraction, a-b-da, 14, 3, 3, 4, 120, 195, 181, 111, 195, 120, 2, 1.00623
185, 6, bw, attraction, a-b-da, 5, 2, 3, 5, 165, 90, 161, 88, 90, 165, 2, 1.26726
185, 6, bw, attraction, a-b-da, 5, 2, 3, 5, 165, 90, 161, 88, 90, 165, 3, 0.6395
185, 6, bw, attraction, a-b-da, 2, 2, 3, 6, 163, 89, 90, 165, 165, 90, 1, 0.715254
185, 6, bw, attraction, a-b-da, 2, 2, 3, 6, 163, 89, 90, 165, 165, 90, 2, 0.645673
185, 6, bw, attraction, a-b-db, 2, 1, 3, 7, 135, 60, 59, 134, 60, 135, 2, 5.46535
185, 6, bw, attraction, a-b-db, 2, 1, 3, 7, 135, 60, 59, 134, 60, 135, 1, 0.572268
185, 6, bw, attraction, a-b-da, 9, 2, 3, 8, 165, 90, 157, 86, 90, 165, 2, 2.16345
185, 6, bw, attraction, a-b-da, 9, 2, 3, 8, 165, 90, 157, 86, 90, 165, 1, 0.635355
185, 6, bw, attraction, a-b-db, 5, 2, 3, 9, 165, 90, 90, 165, 88, 161, 1, 8.85578
185, 6, bw, attraction, a-b-db, 5, 2, 3, 9, 165, 90, 90, 165, 88, 161, 2, 0.514288
185, 6, bw, attraction, a-b-db, 14, 3, 3, 10, 111, 181, 195, 120, 120, 195, 2, 8.76341
185, 6, bw, attraction, a-b-db, 14, 3, 3, 10, 111, 181, 195, 120, 120, 195, 1, 0.641337
185, 6, bw, attraction, a-b-db, 9, 3, 3, 11, 114, 186, 120, 195, 195, 120, 2, 3.51708
185, 6, bw, attraction, a-b-db, 9, 3, 3, 11, 114, 186, 120, 195, 195, 120, 3, 0.758655
185, 6, bw, attraction, a-b-da, 5, 3, 3, 12, 190, 117, 120, 195, 195, 120, 2, 0.821631
185, 6, bw, attraction, a-b-da, 5, 3, 3, 12, 190, 117, 120, 195, 195, 120, 3, 0.787393
185, 6, bw, filler, NA, 999, 999, 3, 13, 159, 59, 143, 120, 115, 107, 2, 1.43374
185, 6, bw, filler, NA, 999, 999, 3, 13, 159, 59, 143, 120, 115, 107, 1, 2.79135
185, 6, bw, filler, NA, 999, 999, 3, 14, 151, 85, 130, 151, 150, 175, 2, 1.72433
185, 6, bw, filler, NA, 999, 999, 3, 14, 151, 85, 130, 151, 150, 175, 1, 1.04574
185, 6, bw, catch, NA, 999, 999, 3, 15, 106, 89, 137, 178, 125, 130, 2, 2.05741
185, 6, bw, catch, NA, 999, 999, 3, 15, 106, 89, 137, 178, 125, 130, 1, 0.765322
185, 6, bw, attraction, a-b-da, 2, 1, 3, 16, 134, 59, 60, 135, 135, 60, 2, 0.99641
185, 6, bw, attraction, a-b-da, 2, 1, 3, 16, 134, 59, 60, 135, 135, 60, 1, 0.955371
185, 6, bw, attraction, a-b-da, 2, 3, 3, 17, 120, 195, 193, 119, 195, 120, 2, 0.755206
185, 6, bw, attraction, a-b-da, 2, 3, 3, 17, 120, 195, 193, 119, 195, 120, 1, 0.563562
185, 6, bw, attraction, a-b-da, 5, 1, 3, 18, 60, 135, 132, 58, 135, 60, 2, 0.810559
185, 6, bw, attraction, a-b-da, 5, 1, 3, 18, 60, 135, 132, 58, 135, 60, 1, 0.729132
185, 6, bw, filler, NA, 999, 999, 3, 19, 72, 105, 58, 124, 104, 92, 2, 0.609322
185, 6, bw, filler, NA, 999, 999, 3, 19, 72, 105, 58, 124, 104, 92, 1, 0.551772
185, 6, bw, attraction, a-b-da, 9, 1, 3, 20, 135, 60, 60, 135, 129, 57, 2, 0.815546
185, 6, bw, attraction, a-b-da, 9, 1, 3, 20, 135, 60, 60, 135, 129, 57, 1, 0.69387
185, 6, bw, filler, NA, 999, 999, 3, 21, 69, 152, 124, 158, 71, 83, 2, 0.879707
185, 6, bw, filler, NA, 999, 999, 3, 21, 69, 152, 124, 158, 71, 83, 3, 1.0834
185, 6, bw, attraction, a-b-db, 9, 1, 3, 22, 60, 135, 57, 129, 135, 60, 2, 1.06961
185, 6, bw, attraction, a-b-db, 9, 1, 3, 22, 60, 135, 57, 129, 135, 60, 3, 0.929929
185, 6, bw, attraction, a-b-db, 2, 3, 3, 23, 119, 193, 120, 195, 195, 120, 2, 0.738227
185, 6, bw, attraction, a-b-db, 2, 3, 3, 23, 119, 193, 120, 195, 195, 120, 3, 0.611367
185, 6, bw, attraction, a-b-db, 9, 2, 3, 24, 165, 90, 86, 157, 90, 165, 2, 0.600391
185, 6, bw, attraction, a-b-db, 9, 2, 3, 24, 165, 90, 86, 157, 90, 165, 3, 0.799554
185, 6, bw, attraction, a-b-db, 5, 3, 3, 25, 195, 120, 117, 190, 120, 195, 2, 0.92523
185, 6, bw, attraction, a-b-db, 5, 3, 3, 25, 195, 120, 117, 190, 120, 195, 3, 0.590884
185, 6, bw, attraction, a-b-db, 14, 2, 3, 26, 90, 165, 165, 90, 83, 153, 2, 0.564659
185, 6, bw, attraction, a-b-db, 14, 2, 3, 26, 90, 165, 165, 90, 83, 153, 1, 0.597137
185, 6, bw, filler, NA, 999, 999, 3, 27, 101, 74, 158, 173, 156, 81, 2, 0.538794
185, 6, bw, filler, NA, 999, 999, 3, 27, 101, 74, 158, 173, 156, 81, 1, 0.875996
185, 6, bw, attraction, a-b-da, 9, 3, 3, 28, 120, 195, 195, 120, 186, 114, 2, 0.854322
185, 6, bw, attraction, a-b-da, 9, 3, 3, 28, 120, 195, 195, 120, 186, 114, 3, 0.834695
185, 6, bw, catch, NA, 999, 999, 3, 29, 127, 68, 165, 90, 160, 155, 3, 1.63914
185, 6, bw, catch, NA, 999, 999, 3, 29, 127, 68, 165, 90, 160, 155, 1, 1.1399
185, 6, bw, filler, NA, 999, 999, 3, 30, 153, 195, 129, 131, 97, 123, 1, 2.08359
185, 6, bw, filler, NA, 999, 999, 3, 30, 153, 195, 129, 131, 97, 123, 3, 0.958783
185, 6, bw, filler, NA, 999, 999, 3, 31, 174, 93, 166, 185, 167, 185, 2, 1.47773
185, 6, bw, filler, NA, 999, 999, 3, 31, 174, 93, 166, 185, 167, 185, 1, 0.817232
185, 6, bw, filler, NA, 999, 999, 3, 32, 148, 118, 148, 71, 114, 191, 1, 1.40618
185, 6, bw, filler, NA, 999, 999, 3, 32, 148, 118, 148, 71, 114, 191, 2, 0.900474
185, 6, bw, attraction, a-b-da, 14, 2, 3, 33, 90, 165, 165, 90, 153, 83, 1, 1.81422
185, 6, bw, attraction, a-b-da, 14, 2, 3, 33, 90, 165, 165, 90, 153, 83, 3, 0.852145
185, 6, bw, attraction, a-b-db, 5, 1, 3, 34, 58, 132, 60, 135, 135, 60, 2, 1.66388
185, 6, bw, attraction, a-b-db, 5, 1, 3, 34, 58, 132, 60, 135, 135, 60, 3, 1.57199
185, 6, bw, attraction, a-b-da, 14, 1, 3, 35, 60, 135, 125, 56, 135, 60, 3, 1.08275
185, 6, bw, attraction, a-b-da, 14, 1, 3, 35, 60, 135, 125, 56, 135, 60, 2, 0.886472
185, 6, bw, attraction, a-b-db, 14, 1, 3, 36, 60, 135, 135, 60, 56, 125, 2, 1.48874
185, 6, bw, attraction, a-b-db, 14, 1, 3, 36, 60, 135, 135, 60, 56, 125, 3, 1.01161
185, 6, bw, attraction, a-b-db, 2, 2, 3, 37, 89, 163, 165, 90, 90, 165, 3, 1.16856
185, 6, bw, attraction, a-b-db, 2, 2, 3, 37, 89, 163, 165, 90, 90, 165, 2, 1.00888
185, 6, bw, attraction, a-b-da, 14, 3, 4, 1, 181, 111, 120, 195, 195, 120, 3, 0.813765
185, 6, bw, attraction, a-b-da, 14, 3, 4, 1, 181, 111, 120, 195, 195, 120, 2, 0.708226
185, 6, bw, attraction, a-b-db, 5, 2, 4, 2, 165, 90, 90, 165, 88, 161, 3, 0.645189
185, 6, bw, attraction, a-b-db, 5, 2, 4, 2, 165, 90, 90, 165, 88, 161, 2, 0.554306
185, 6, bw, catch, NA, 999, 999, 4, 3, 81, 114, 138, 177, 158, 97, 3, 0.730065
185, 6, bw, catch, NA, 999, 999, 4, 3, 81, 114, 138, 177, 158, 97, 1, 1.81988
185, 6, bw, attraction, a-b-da, 14, 2, 4, 4, 153, 83, 165, 90, 90, 165, 1, 0.824574
185, 6, bw, attraction, a-b-da, 14, 2, 4, 4, 153, 83, 165, 90, 90, 165, 2, 0.622282
185, 6, bw, filler, NA, 999, 999, 4, 5, 101, 156, 150, 152, 186, 140, 1, 0.859271
185, 6, bw, filler, NA, 999, 999, 4, 5, 101, 156, 150, 152, 186, 140, 2, 0.583816
185, 6, bw, attraction, a-b-da, 5, 2, 4, 6, 90, 165, 165, 90, 161, 88, 1, 15.9581
185, 6, bw, attraction, a-b-da, 5, 2, 4, 6, 90, 165, 165, 90, 161, 88, 2, 2.21051
185, 6, bw, attraction, a-b-db, 14, 1, 4, 7, 56, 125, 60, 135, 135, 60, 3, 5.95106
185, 6, bw, attraction, a-b-db, 14, 1, 4, 7, 56, 125, 60, 135, 135, 60, 2, 2.31055
185, 6, bw, filler, NA, 999, 999, 4, 8, 179, 183, 105, 170, 120, 77, 1, 1.30314
185, 6, bw, filler, NA, 999, 999, 4, 8, 179, 183, 105, 170, 120, 77, 3, 1.56198
185, 6, bw, catch, NA, 999, 999, 4, 9, 172, 143, 90, 165, 76, 119, 1, 0.664745
185, 6, bw, catch, NA, 999, 999, 4, 9, 172, 143, 90, 165, 76, 119, 3, 1.33321
185, 6, bw, filler, NA, 999, 999, 4, 10, 88, 62, 173, 130, 56, 94, 2, 1.30948
185, 6, bw, filler, NA, 999, 999, 4, 10, 88, 62, 173, 130, 56, 94, 3, 1.08766
185, 6, bw, catch, NA, 999, 999, 4, 11, 189, 126, 157, 98, 124, 71, 1, 0.761837
185, 6, bw, catch, NA, 999, 999, 4, 11, 189, 126, 157, 98, 124, 71, 3, 0.882252
185, 6, bw, attraction, a-b-db, 9, 3, 4, 12, 114, 186, 120, 195, 195, 120, 2, 0.876519
185, 6, bw, attraction, a-b-db, 9, 3, 4, 12, 114, 186, 120, 195, 195, 120, 3, 1.52029
185, 6, bw, attraction, a-b-db, 9, 1, 4, 13, 57, 129, 135, 60, 60, 135, 1, 1.23315
185, 6, bw, attraction, a-b-db, 9, 1, 4, 13, 57, 129, 135, 60, 60, 135, 2, 0.974681
185, 6, bw, filler, NA, 999, 999, 4, 14, 121, 189, 102, 79, 187, 169, 3, 1.46895
185, 6, bw, filler, NA, 999, 999, 4, 14, 121, 189, 102, 79, 187, 169, 2, 0.729136
185, 6, bw, attraction, a-b-da, 9, 3, 4, 15, 120, 195, 186, 114, 195, 120, 3, 0.961473
185, 6, bw, attraction, a-b-da, 9, 3, 4, 15, 120, 195, 186, 114, 195, 120, 2, 1.24191
185, 6, bw, attraction, a-b-da, 2, 2, 4, 16, 90, 165, 163, 89, 165, 90, 3, 0.813443
185, 6, bw, attraction, a-b-da, 2, 2, 4, 16, 90, 165, 163, 89, 165, 90, 2, 0.811838
185, 6, bw, attraction, a-b-db, 14, 2, 4, 17, 83, 153, 165, 90, 90, 165, 3, 0.688821
185, 6, bw, attraction, a-b-db, 14, 2, 4, 17, 83, 153, 165, 90, 90, 165, 2, 0.771948
185, 6, bw, attraction, a-b-db, 14, 3, 4, 18, 120, 195, 111, 181, 195, 120, 3, 0.562975
185, 6, bw, attraction, a-b-db, 14, 3, 4, 18, 120, 195, 111, 181, 195, 120, 2, 0.835429
185, 6, bw, filler, NA, 999, 999, 4, 19, 167, 95, 170, 133, 142, 166, 3, 0.799842
185, 6, bw, filler, NA, 999, 999, 4, 19, 167, 95, 170, 133, 142, 166, 1, 1.35099
185, 6, bw, attraction, a-b-da, 2, 1, 4, 20, 135, 60, 134, 59, 60, 135, 3, 0.998379
185, 6, bw, attraction, a-b-da, 2, 1, 4, 20, 135, 60, 134, 59, 60, 135, 2, 0.989319
185, 6, bw, attraction, a-b-db, 2, 3, 4, 21, 119, 193, 120, 195, 195, 120, 1, 4.19578
185, 6, bw, attraction, a-b-db, 2, 3, 4, 21, 119, 193, 120, 195, 195, 120, 3, 0.86573
185, 6, bw, attraction, a-b-da, 9, 2, 4, 22, 165, 90, 90, 165, 157, 86, 1, 0.860664
185, 6, bw, attraction, a-b-da, 9, 2, 4, 22, 165, 90, 90, 165, 157, 86, 2, 1.11308
185, 6, bw, attraction, a-b-db, 5, 3, 4, 23, 120, 195, 117, 190, 195, 120, 3, 0.665984
185, 6, bw, attraction, a-b-db, 5, 3, 4, 23, 120, 195, 117, 190, 195, 120, 2, 1.08638
185, 6, bw, attraction, a-b-db, 2, 1, 4, 24, 60, 135, 59, 134, 135, 60, 3, 1.08876
185, 6, bw, attraction, a-b-db, 2, 1, 4, 24, 60, 135, 59, 134, 135, 60, 2, 0.947713
185, 6, bw, attraction, a-b-db, 9, 2, 4, 25, 86, 157, 165, 90, 90, 165, 1, 1.00329
185, 6, bw, attraction, a-b-db, 9, 2, 4, 25, 86, 157, 165, 90, 90, 165, 2, 0.930237
185, 6, bw, attraction, a-b-da, 5, 1, 4, 26, 132, 58, 135, 60, 60, 135, 3, 1.93858
185, 6, bw, attraction, a-b-da, 5, 1, 4, 26, 132, 58, 135, 60, 60, 135, 2, 0.691206
185, 6, bw, filler, NA, 999, 999, 4, 27, 72, 87, 185, 130, 176, 70, 2, 2.30904
185, 6, bw, filler, NA, 999, 999, 4, 27, 72, 87, 185, 130, 176, 70, 1, 1.2389
185, 6, bw, attraction, a-b-db, 5, 1, 4, 28, 60, 135, 58, 132, 135, 60, 3, 1.38713
185, 6, bw, attraction, a-b-db, 5, 1, 4, 28, 60, 135, 58, 132, 135, 60, 2, 0.682697
185, 6, bw, attraction, a-b-db, 2, 2, 4, 29, 165, 90, 89, 163, 90, 165, 3, 0.869034
185, 6, bw, attraction, a-b-db, 2, 2, 4, 29, 165, 90, 89, 163, 90, 165, 2, 1.19339
185, 6, bw, attraction, a-b-da, 5, 3, 4, 30, 195, 120, 120, 195, 190, 117, 3, 1.207
185, 6, bw, attraction, a-b-da, 5, 3, 4, 30, 195, 120, 120, 195, 190, 117, 2, 0.725269
185, 6, bw, filler, NA, 999, 999, 4, 31, 89, 57, 165, 194, 139, 194, 2, 1.82962
185, 6, bw, filler, NA, 999, 999, 4, 31, 89, 57, 165, 194, 139, 194, 1, 1.95507
185, 6, bw, attraction, a-b-da, 14, 1, 4, 32, 125, 56, 60, 135, 135, 60, 2, 1.05842
185, 6, bw, attraction, a-b-da, 14, 1, 4, 32, 125, 56, 60, 135, 135, 60, 1, 0.958831
185, 6, bw, filler, NA, 999, 999, 4, 33, 71, 92, 167, 95, 79, 172, 2, 1.85369
185, 6, bw, filler, NA, 999, 999, 4, 33, 71, 92, 167, 95, 79, 172, 1, 0.818398
185, 6, bw, filler, NA, 999, 999, 4, 34, 131, 70, 71, 66, 64, 166, 3, 2.08739
185, 6, bw, filler, NA, 999, 999, 4, 34, 131, 70, 71, 66, 64, 166, 2, 0.842813
185, 6, bw, attraction, a-b-da, 9, 1, 4, 35, 129, 57, 135, 60, 60, 135, 3, 0.862485
185, 6, bw, attraction, a-b-da, 9, 1, 4, 35, 129, 57, 135, 60, 60, 135, 1, 0.818797
185, 6, bw, attraction, a-b-da, 2, 3, 4, 36, 120, 195, 195, 120, 193, 119, 1, 1.38376
185, 6, bw, attraction, a-b-da, 2, 3, 4, 36, 120, 195, 195, 120, 193, 119, 2, 0.639424
185, 6, bw, filler, NA, 999, 999, 4, 37, 181, 103, 164, 181, 88, 126, 2, 1.92308
185, 6, bw, filler, NA, 999, 999, 4, 37, 181, 103, 164, 181, 88, 126, 3, 0.788513
185, 6, bw, filler, NA, 999, 999, 5, 1, 190, 187, 161, 118, 140, 137, 1, 2.82479
185, 6, bw, filler, NA, 999, 999, 5, 1, 190, 187, 161, 118, 140, 137, 2, 0.685895
185, 6, bw, filler, NA, 999, 999, 5, 2, 81, 194, 82, 65, 82, 195, 1, 1.02425
185, 6, bw, filler, NA, 999, 999, 5, 2, 81, 194, 82, 65, 82, 195, 2, 0.629946
185, 6, bw, attraction, a-b-da, 9, 3, 5, 3, 195, 120, 186, 114, 120, 195, 2, 1.43438
185, 6, bw, attraction, a-b-da, 9, 3, 5, 3, 195, 120, 186, 114, 120, 195, 1, 0.695899
185, 6, bw, catch, NA, 999, 999, 5, 4, 148, 167, 118, 137, 87, 108, 1, 1.12152
185, 6, bw, catch, NA, 999, 999, 5, 4, 148, 167, 118, 137, 87, 108, 3, 0.667248
185, 6, bw, attraction, a-b-db, 9, 1, 5, 5, 60, 135, 57, 129, 135, 60, 2, 1.22222
185, 6, bw, attraction, a-b-db, 9, 1, 5, 5, 60, 135, 57, 129, 135, 60, 3, 0.691866
185, 6, bw, attraction, a-b-db, 5, 1, 5, 6, 60, 135, 58, 132, 135, 60, 2, 1.33362
185, 6, bw, attraction, a-b-db, 5, 1, 5, 6, 60, 135, 58, 132, 135, 60, 3, 0.735196
185, 6, bw, attraction, a-b-db, 2, 1, 5, 7, 135, 60, 59, 134, 60, 135, 2, 0.823523
185, 6, bw, attraction, a-b-db, 2, 1, 5, 7, 135, 60, 59, 134, 60, 135, 3, 0.629281
185, 6, bw, catch, NA, 999, 999, 5, 8, 103, 152, 90, 105, 133, 182, 3, 1.06566
185, 6, bw, catch, NA, 999, 999, 5, 8, 103, 152, 90, 105, 133, 182, 2, 0.742025
185, 6, bw, attraction, a-b-da, 2, 2, 5, 9, 90, 165, 163, 89, 165, 90, 1, 1.16556
185, 6, bw, attraction, a-b-da, 2, 2, 5, 9, 90, 165, 163, 89, 165, 90, 3, 0.717948
185, 6, bw, filler, NA, 999, 999, 5, 10, 187, 181, 149, 123, 186, 146, 1, 0.671022
185, 6, bw, filler, NA, 999, 999, 5, 10, 187, 181, 149, 123, 186, 146, 2, 0.746733
185, 6, bw, filler, NA, 999, 999, 5, 11, 102, 58, 152, 182, 179, 119, 2, 1.03464
185, 6, bw, filler, NA, 999, 999, 5, 11, 102, 58, 152, 182, 179, 119, 1, 0.608108
185, 6, bw, filler, NA, 999, 999, 5, 12, 65, 104, 120, 149, 169, 137, 3, 0.853169
185, 6, bw, filler, NA, 999, 999, 5, 12, 65, 104, 120, 149, 169, 137, 1, 0.770218
185, 6, bw, attraction, a-b-db, 5, 3, 5, 13, 117, 190, 195, 120, 120, 195, 1, 0.897331
185, 6, bw, attraction, a-b-db, 5, 3, 5, 13, 117, 190, 195, 120, 120, 195, 2, 0.46032
185, 6, bw, attraction, a-b-db, 9, 3, 5, 14, 120, 195, 195, 120, 114, 186, 1, 0.999474
185, 6, bw, attraction, a-b-db, 9, 3, 5, 14, 120, 195, 195, 120, 114, 186, 2, 0.630352
185, 6, bw, attraction, a-b-da, 2, 1, 5, 15, 135, 60, 60, 135, 134, 59, 1, 0.81876
185, 6, bw, attraction, a-b-da, 2, 1, 5, 15, 135, 60, 60, 135, 134, 59, 2, 0.55326
185, 6, bw, attraction, a-b-db, 9, 2, 5, 16, 165, 90, 90, 165, 86, 157, 1, 0.801065
185, 6, bw, attraction, a-b-db, 9, 2, 5, 16, 165, 90, 90, 165, 86, 157, 2, 0.640146
185, 6, bw, filler, NA, 999, 999, 5, 17, 98, 140, 60, 131, 191, 75, 1, 1.14773
185, 6, bw, filler, NA, 999, 999, 5, 17, 98, 140, 60, 131, 191, 75, 2, 1.88471
185, 6, bw, attraction, a-b-db, 14, 1, 5, 18, 135, 60, 56, 125, 60, 135, 2, 1.03883
185, 6, bw, attraction, a-b-db, 14, 1, 5, 18, 135, 60, 56, 125, 60, 135, 1, 0.467699
185, 6, bw, attraction, a-b-da, 5, 3, 5, 19, 195, 120, 190, 117, 120, 195, 2, 0.542825
185, 6, bw, attraction, a-b-da, 5, 3, 5, 19, 195, 120, 190, 117, 120, 195, 1, 0.655998
185, 6, bw, attraction, a-b-da, 9, 1, 5, 20, 60, 135, 135, 60, 129, 57, 2, 1.35509
185, 6, bw, attraction, a-b-da, 9, 1, 5, 20, 60, 135, 135, 60, 129, 57, 1, 0.867244
185, 6, bw, attraction, a-b-da, 5, 2, 5, 21, 90, 165, 161, 88, 165, 90, 2, 0.63827
185, 6, bw, attraction, a-b-da, 5, 2, 5, 21, 90, 165, 161, 88, 165, 90, 1, 0.483381
185, 6, bw, attraction, a-b-da, 14, 2, 5, 22, 90, 165, 165, 90, 153, 83, 2, 0.533833
185, 6, bw, attraction, a-b-da, 14, 2, 5, 22, 90, 165, 165, 90, 153, 83, 1, 0.535807
185, 6, bw, attraction, a-b-db, 2, 2, 5, 23, 165, 90, 90, 165, 89, 163, 2, 0.464033
185, 6, bw, attraction, a-b-db, 2, 2, 5, 23, 165, 90, 90, 165, 89, 163, 1, 0.588517
185, 6, bw, attraction, a-b-db, 2, 3, 5, 24, 120, 195, 119, 193, 195, 120, 2, 0.546975
185, 6, bw, attraction, a-b-db, 2, 3, 5, 24, 120, 195, 119, 193, 195, 120, 1, 0.492144
185, 6, bw, attraction, a-b-da, 9, 2, 5, 25, 90, 165, 165, 90, 157, 86, 2, 0.565907
185, 6, bw, attraction, a-b-da, 9, 2, 5, 25, 90, 165, 165, 90, 157, 86, 1, 0.886449
185, 6, bw, attraction, a-b-db, 5, 2, 5, 26, 88, 161, 165, 90, 90, 165, 2, 0.552794
185, 6, bw, attraction, a-b-db, 5, 2, 5, 26, 88, 161, 165, 90, 90, 165, 1, 0.537899
185, 6, bw, attraction, a-b-db, 14, 3, 5, 27, 120, 195, 111, 181, 195, 120, 2, 0.658334
185, 6, bw, attraction, a-b-db, 14, 3, 5, 27, 120, 195, 111, 181, 195, 120, 1, 0.550774
185, 6, bw, filler, NA, 999, 999, 5, 28, 147, 90, 116, 56, 94, 165, 1, 1.66253
185, 6, bw, filler, NA, 999, 999, 5, 28, 147, 90, 116, 56, 94, 165, 2, 0.538591
185, 6, bw, filler, NA, 999, 999, 5, 29, 156, 104, 146, 117, 195, 93, 2, 1.05907
185, 6, bw, filler, NA, 999, 999, 5, 29, 156, 104, 146, 117, 195, 93, 1, 0.583366
185, 6, bw, attraction, a-b-db, 14, 2, 5, 30, 90, 165, 165, 90, 83, 153, 2, 0.805741
185, 6, bw, attraction, a-b-db, 14, 2, 5, 30, 90, 165, 165, 90, 83, 153, 1, 0.660224
185, 6, bw, attraction, a-b-da, 14, 3, 5, 31, 120, 195, 181, 111, 195, 120, 2, 0.583225
185, 6, bw, attraction, a-b-da, 14, 3, 5, 31, 120, 195, 181, 111, 195, 120, 1, 0.535104
185, 6, bw, filler, NA, 999, 999, 5, 32, 133, 91, 61, 117, 146, 162, 3, 1.31951
185, 6, bw, filler, NA, 999, 999, 5, 32, 133, 91, 61, 117, 146, 162, 2, 1.02584
185, 6, bw, filler, NA, 999, 999, 5, 33, 126, 120, 100, 59, 169, 194, 3, 0.694008
185, 6, bw, filler, NA, 999, 999, 5, 33, 126, 120, 100, 59, 169, 194, 2, 1.29714
185, 6, bw, attraction, a-b-da, 2, 3, 5, 34, 195, 120, 193, 119, 120, 195, 3, 0.618774
185, 6, bw, attraction, a-b-da, 2, 3, 5, 34, 195, 120, 193, 119, 120, 195, 2, 0.673235
185, 6, bw, attraction, a-b-da, 5, 1, 5, 35, 60, 135, 135, 60, 132, 58, 3, 0.571455
185, 6, bw, attraction, a-b-da, 5, 1, 5, 35, 60, 135, 135, 60, 132, 58, 2, 0.699247
185, 6, bw, attraction, a-b-da, 14, 1, 5, 36, 135, 60, 60, 135, 125, 56, 3, 0.893082
185, 6, bw, attraction, a-b-da, 14, 1, 5, 36, 135, 60, 60, 135, 125, 56, 2, 0.46406
185, 6, bw, catch, NA, 999, 999, 5, 37, 127, 188, 113, 142, 119, 76, 1, 1.15515
185, 6, bw, catch, NA, 999, 999, 5, 37, 127, 188, 113, 142, 119, 76, 3, 0.763584
185, 6, bw, attraction, a-b-db, 9, 2, 6, 1, 90, 165, 86, 157, 165, 90, 1, 0.722437
185, 6, bw, attraction, a-b-db, 9, 2, 6, 1, 90, 165, 86, 157, 165, 90, 3, 0.684349
185, 6, bw, catch, NA, 999, 999, 6, 2, 132, 123, 139, 176, 79, 116, 2, 0.670612
185, 6, bw, catch, NA, 999, 999, 6, 2, 132, 123, 139, 176, 79, 116, 3, 0.714391
185, 6, bw, filler, NA, 999, 999, 6, 3, 116, 101, 157, 121, 188, 164, 3, 0.747461
185, 6, bw, filler, NA, 999, 999, 6, 3, 116, 101, 157, 121, 188, 164, 1, 0.780521
185, 6, bw, attraction, a-b-db, 14, 1, 6, 4, 60, 135, 56, 125, 135, 60, 2, 1.29886
185, 6, bw, attraction, a-b-db, 14, 1, 6, 4, 60, 135, 56, 125, 135, 60, 3, 0.461708
185, 6, bw, catch, NA, 999, 999, 6, 5, 95, 100, 155, 100, 186, 129, 3, 0.800857
185, 6, bw, catch, NA, 999, 999, 6, 5, 95, 100, 155, 100, 186, 129, 1, 0.51193
185, 6, bw, attraction, a-b-da, 2, 3, 6, 6, 193, 119, 195, 120, 120, 195, 1, 0.833031
185, 6, bw, attraction, a-b-da, 2, 3, 6, 6, 193, 119, 195, 120, 120, 195, 3, 0.670768
185, 6, bw, attraction, a-b-db, 2, 1, 6, 7, 60, 135, 59, 134, 135, 60, 2, 0.961873
185, 6, bw, attraction, a-b-db, 2, 1, 6, 7, 60, 135, 59, 134, 135, 60, 3, 0.570166
185, 6, bw, attraction, a-b-db, 9, 3, 6, 8, 114, 186, 120, 195, 195, 120, 2, 0.809257
185, 6, bw, attraction, a-b-db, 9, 3, 6, 8, 114, 186, 120, 195, 195, 120, 3, 0.58366
185, 6, bw, attraction, a-b-da, 5, 3, 6, 9, 120, 195, 190, 117, 195, 120, 1, 0.558118
185, 6, bw, attraction, a-b-da, 5, 3, 6, 9, 120, 195, 190, 117, 195, 120, 3, 0.574622
185, 6, bw, attraction, a-b-db, 2, 3, 6, 10, 120, 195, 195, 120, 119, 193, 1, 0.588972
185, 6, bw, attraction, a-b-db, 2, 3, 6, 10, 120, 195, 195, 120, 119, 193, 3, 0.516137
185, 6, bw, catch, NA, 999, 999, 6, 11, 103, 92, 192, 123, 151, 104, 2, 0.933272
185, 6, bw, catch, NA, 999, 999, 6, 11, 103, 92, 192, 123, 151, 104, 1, 0.542967
185, 6, bw, filler, NA, 999, 999, 6, 12, 56, 126, 168, 74, 78, 137, 2, 0.526695
185, 6, bw, filler, NA, 999, 999, 6, 12, 56, 126, 168, 74, 78, 137, 1, 0.816503
185, 6, bw, attraction, a-b-db, 5, 3, 6, 13, 117, 190, 195, 120, 120, 195, 2, 0.461499
185, 6, bw, attraction, a-b-db, 5, 3, 6, 13, 117, 190, 195, 120, 120, 195, 1, 0.641983
185, 6, bw, attraction, a-b-da, 2, 1, 6, 14, 60, 135, 135, 60, 134, 59, 2, 0.621838
185, 6, bw, attraction, a-b-da, 2, 1, 6, 14, 60, 135, 135, 60, 134, 59, 3, 0.491478
185, 6, bw, filler, NA, 999, 999, 6, 15, 56, 72, 141, 186, 64, 151, 2, 0.509229
185, 6, bw, filler, NA, 999, 999, 6, 15, 56, 72, 141, 186, 64, 151, 1, 0.463724
185, 6, bw, attraction, a-b-db, 14, 3, 6, 16, 195, 120, 120, 195, 111, 181, 1, 0.84286
185, 6, bw, attraction, a-b-db, 14, 3, 6, 16, 195, 120, 120, 195, 111, 181, 2, 0.472011
185, 6, bw, filler, NA, 999, 999, 6, 17, 66, 195, 106, 147, 108, 62, 2, 0.675094
185, 6, bw, filler, NA, 999, 999, 6, 17, 66, 195, 106, 147, 108, 62, 3, 0.558864
185, 6, bw, filler, NA, 999, 999, 6, 18, 119, 144, 111, 78, 99, 69, 1, 0.7579
185, 6, bw, filler, NA, 999, 999, 6, 18, 119, 144, 111, 78, 99, 69, 3, 1.17438
185, 6, bw, attraction, a-b-db, 14, 2, 6, 19, 83, 153, 90, 165, 165, 90, 2, 1.32463
185, 6, bw, attraction, a-b-db, 14, 2, 6, 19, 83, 153, 90, 165, 165, 90, 3, 0.662178
185, 6, bw, attraction, a-b-db, 9, 1, 6, 20, 135, 60, 57, 129, 60, 135, 1, 0.7852
185, 6, bw, attraction, a-b-db, 9, 1, 6, 20, 135, 60, 57, 129, 60, 135, 2, 0.408959
185, 6, bw, attraction, a-b-da, 2, 2, 6, 21, 163, 89, 165, 90, 90, 165, 1, 1.04602
185, 6, bw, attraction, a-b-da, 2, 2, 6, 21, 163, 89, 165, 90, 90, 165, 2, 0.435047
185, 6, bw, attraction, a-b-da, 5, 1, 6, 22, 60, 135, 135, 60, 132, 58, 1, 0.575481
185, 6, bw, attraction, a-b-da, 5, 1, 6, 22, 60, 135, 135, 60, 132, 58, 2, 0.447293
185, 6, bw, attraction, a-b-da, 14, 3, 6, 23, 120, 195, 195, 120, 181, 111, 1, 0.483123
185, 6, bw, attraction, a-b-da, 14, 3, 6, 23, 120, 195, 195, 120, 181, 111, 2, 0.43894
185, 6, bw, attraction, a-b-da, 14, 2, 6, 24, 153, 83, 90, 165, 165, 90, 1, 0.659378
185, 6, bw, attraction, a-b-da, 14, 2, 6, 24, 153, 83, 90, 165, 165, 90, 2, 0.431962
185, 6, bw, attraction, a-b-db, 5, 1, 6, 25, 135, 60, 58, 132, 60, 135, 1, 0.340221
185, 6, bw, attraction, a-b-db, 5, 1, 6, 25, 135, 60, 58, 132, 60, 135, 2, 1.27753
185, 6, bw, attraction, a-b-da, 14, 1, 6, 26, 60, 135, 135, 60, 125, 56, 1, 0.519675
185, 6, bw, attraction, a-b-da, 14, 1, 6, 26, 60, 135, 135, 60, 125, 56, 2, 0.746192
185, 6, bw, attraction, a-b-da, 9, 1, 6, 27, 135, 60, 60, 135, 129, 57, 1, 0.90586
185, 6, bw, attraction, a-b-da, 9, 1, 6, 27, 135, 60, 60, 135, 129, 57, 2, 0.468235
185, 6, bw, filler, NA, 999, 999, 6, 28, 146, 111, 187, 89, 112, 101, 1, 0.519358
185, 6, bw, filler, NA, 999, 999, 6, 28, 146, 111, 187, 89, 112, 101, 2, 1.48999
185, 6, bw, attraction, a-b-db, 2, 2, 6, 29, 90, 165, 89, 163, 165, 90, 2, 1.45934
185, 6, bw, attraction, a-b-db, 2, 2, 6, 29, 90, 165, 89, 163, 165, 90, 1, 0.511484
185, 6, bw, filler, NA, 999, 999, 6, 30, 124, 155, 194, 96, 110, 129, 2, 0.624616
185, 6, bw, filler, NA, 999, 999, 6, 30, 124, 155, 194, 96, 110, 129, 3, 1.91853
185, 6, bw, attraction, a-b-da, 9, 3, 6, 31, 120, 195, 195, 120, 186, 114, 2, 0.983133
185, 6, bw, attraction, a-b-da, 9, 3, 6, 31, 120, 195, 195, 120, 186, 114, 1, 0.502855
185, 6, bw, filler, NA, 999, 999, 6, 32, 109, 158, 100, 120, 92, 75, 2, 0.776555
185, 6, bw, filler, NA, 999, 999, 6, 32, 109, 158, 100, 120, 92, 75, 3, 1.00831
185, 6, bw, filler, NA, 999, 999, 6, 33, 148, 154, 57, 173, 152, 99, 1, 0.98121
185, 6, bw, filler, NA, 999, 999, 6, 33, 148, 154, 57, 173, 152, 99, 2, 0.620994
185, 6, bw, attraction, a-b-da, 5, 2, 6, 34, 165, 90, 90, 165, 161, 88, 2, 0.857959
185, 6, bw, attraction, a-b-da, 5, 2, 6, 34, 165, 90, 90, 165, 161, 88, 1, 0.454335
185, 6, bw, filler, NA, 999, 999, 6, 35, 150, 59, 108, 71, 180, 153, 3, 0.850094
185, 6, bw, filler, NA, 999, 999, 6, 35, 150, 59, 108, 71, 180, 153, 2, 0.639257
185, 6, bw, attraction, a-b-da, 9, 2, 6, 36, 157, 86, 90, 165, 165, 90, 2, 0.891626
185, 6, bw, attraction, a-b-da, 9, 2, 6, 36, 157, 86, 90, 165, 165, 90, 3, 0.454681
185, 6, bw, attraction, a-b-db, 5, 2, 6, 37, 90, 165, 165, 90, 88, 161, 1, 0.794492
185, 6, bw, attraction, a-b-db, 5, 2, 6, 37, 90, 165, 165, 90, 88, 161, 2, 0.657569
185, 6, bw, catch, NA, 999, 999, 7, 1, 77, 118, 109, 146, 132, 183, 3, 1.06058
185, 6, bw, catch, NA, 999, 999, 7, 1, 77, 118, 109, 146, 132, 183, 1, 0.664916
185, 6, bw, attraction, a-b-da, 2, 1, 7, 2, 60, 135, 135, 60, 134, 59, 3, 1.31596
185, 6, bw, attraction, a-b-da, 2, 1, 7, 2, 60, 135, 135, 60, 134, 59, 2, 0.838341
185, 6, bw, filler, NA, 999, 999, 7, 3, 81, 123, 162, 108, 107, 87, 2, 0.938501
185, 6, bw, filler, NA, 999, 999, 7, 3, 81, 123, 162, 108, 107, 87, 1, 1.05955
185, 6, bw, attraction, a-b-da, 2, 3, 7, 4, 120, 195, 195, 120, 193, 119, 2, 1.61443
185, 6, bw, attraction, a-b-da, 2, 3, 7, 4, 120, 195, 195, 120, 193, 119, 3, 0.772613
185, 6, bw, attraction, a-b-da, 14, 2, 7, 5, 153, 83, 165, 90, 90, 165, 2, 0.75503
185, 6, bw, attraction, a-b-da, 14, 2, 7, 5, 153, 83, 165, 90, 90, 165, 1, 0.571455
185, 6, bw, attraction, a-b-db, 9, 3, 7, 6, 120, 195, 114, 186, 195, 120, 2, 0.378445
185, 6, bw, attraction, a-b-db, 9, 3, 7, 6, 120, 195, 114, 186, 195, 120, 1, 0.930423
185, 6, bw, filler, NA, 999, 999, 7, 7, 84, 161, 136, 83, 124, 185, 3, 14.1227
185, 6, bw, filler, NA, 999, 999, 7, 7, 84, 161, 136, 83, 124, 185, 2, 0.696893
185, 6, bw, catch, NA, 999, 999, 7, 8, 177, 138, 65, 130, 101, 154, 1, 0.938577
185, 6, bw, catch, NA, 999, 999, 7, 8, 177, 138, 65, 130, 101, 154, 2, 1.3637
185, 6, bw, attraction, a-b-db, 5, 1, 7, 9, 58, 132, 60, 135, 135, 60, 2, 1.93849
185, 6, bw, attraction, a-b-db, 5, 1, 7, 9, 58, 132, 60, 135, 135, 60, 3, 0.859113
185, 6, bw, filler, NA, 999, 999, 7, 10, 173, 195, 189, 125, 105, 117, 1, 0.718259
185, 6, bw, filler, NA, 999, 999, 7, 10, 173, 195, 189, 125, 105, 117, 3, 1.00867
185, 6, bw, attraction, a-b-db, 2, 2, 7, 11, 89, 163, 90, 165, 165, 90, 2, 0.861567
185, 6, bw, attraction, a-b-db, 2, 2, 7, 11, 89, 163, 90, 165, 165, 90, 3, 1.51399
185, 6, bw, attraction, a-b-da, 5, 3, 7, 12, 195, 120, 190, 117, 120, 195, 1, 1.34686
185, 6, bw, attraction, a-b-da, 5, 3, 7, 12, 195, 120, 190, 117, 120, 195, 2, 0.683564
185, 6, bw, attraction, a-b-da, 5, 1, 7, 13, 135, 60, 132, 58, 60, 135, 1, 1.04603
185, 6, bw, attraction, a-b-da, 5, 1, 7, 13, 135, 60, 132, 58, 60, 135, 2, 1.45096
185, 6, bw, filler, NA, 999, 999, 7, 14, 107, 69, 58, 131, 101, 183, 3, 1.0304
185, 6, bw, filler, NA, 999, 999, 7, 14, 107, 69, 58, 131, 101, 183, 2, 0.844194
185, 6, bw, attraction, a-b-db, 9, 2, 7, 15, 90, 165, 86, 157, 165, 90, 1, 0.951838
185, 6, bw, attraction, a-b-db, 9, 2, 7, 15, 90, 165, 86, 157, 165, 90, 2, 0.992762
185, 6, bw, attraction, a-b-da, 14, 1, 7, 16, 125, 56, 135, 60, 60, 135, 3, 1.55035
185, 6, bw, attraction, a-b-da, 14, 1, 7, 16, 125, 56, 135, 60, 60, 135, 2, 0.911225
185, 6, bw, attraction, a-b-da, 9, 3, 7, 17, 120, 195, 195, 120, 186, 114, 2, 1.13622
185, 6, bw, attraction, a-b-da, 9, 3, 7, 17, 120, 195, 195, 120, 186, 114, 3, 0.945938
185, 6, bw, filler, NA, 999, 999, 7, 18, 65, 149, 178, 133, 116, 176, 2, 1.0895
185, 6, bw, filler, NA, 999, 999, 7, 18, 65, 149, 178, 133, 116, 176, 1, 0.972435
185, 6, bw, attraction, a-b-da, 9, 2, 7, 19, 90, 165, 157, 86, 165, 90, 1, 2.23542
185, 6, bw, attraction, a-b-da, 9, 2, 7, 19, 90, 165, 157, 86, 165, 90, 2, 1.11271
185, 6, bw, attraction, a-b-da, 5, 2, 7, 20, 165, 90, 90, 165, 161, 88, 2, 1.36161
185, 6, bw, attraction, a-b-da, 5, 2, 7, 20, 165, 90, 90, 165, 161, 88, 1, 0.71397
185, 6, bw, attraction, a-b-da, 14, 3, 7, 21, 195, 120, 181, 111, 120, 195, 1, 1.73893
185, 6, bw, attraction, a-b-da, 14, 3, 7, 21, 195, 120, 181, 111, 120, 195, 2, 1.16368
185, 6, bw, attraction, a-b-db, 5, 2, 7, 22, 165, 90, 90, 165, 88, 161, 2, 1.17851
185, 6, bw, attraction, a-b-db, 5, 2, 7, 22, 165, 90, 90, 165, 88, 161, 3, 1.01825
185, 6, bw, filler, NA, 999, 999, 7, 23, 89, 101, 119, 77, 101, 187, 3, 1.35911
185, 6, bw, filler, NA, 999, 999, 7, 23, 89, 101, 119, 77, 101, 187, 2, 0.84734
185, 6, bw, attraction, a-b-db, 2, 3, 7, 24, 195, 120, 120, 195, 119, 193, 1, 0.891014
185, 6, bw, attraction, a-b-db, 2, 3, 7, 24, 195, 120, 120, 195, 119, 193, 2, 1.23806
185, 6, bw, attraction, a-b-db, 9, 1, 7, 25, 57, 129, 60, 135, 135, 60, 1, 0.890286
185, 6, bw, attraction, a-b-db, 9, 1, 7, 25, 57, 129, 60, 135, 135, 60, 2, 0.661298
185, 6, bw, attraction, a-b-db, 2, 1, 7, 26, 135, 60, 59, 134, 60, 135, 1, 0.592356
185, 6, bw, attraction, a-b-db, 2, 1, 7, 26, 135, 60, 59, 134, 60, 135, 2, 0.91249
185, 6, bw, filler, NA, 999, 999, 7, 27, 60, 57, 118, 158, 176, 97, 2, 0.744377
185, 6, bw, filler, NA, 999, 999, 7, 27, 60, 57, 118, 158, 176, 97, 1, 0.817627
185, 6, bw, catch, NA, 999, 999, 7, 28, 88, 107, 143, 172, 147, 108, 2, 0.782612
185, 6, bw, catch, NA, 999, 999, 7, 28, 88, 107, 143, 172, 147, 108, 1, 1.37438
185, 6, bw, attraction, a-b-db, 5, 3, 7, 29, 117, 190, 195, 120, 120, 195, 2, 0.860449
185, 6, bw, attraction, a-b-db, 5, 3, 7, 29, 117, 190, 195, 120, 120, 195, 1, 0.688862
185, 6, bw, attraction, a-b-da, 2, 2, 7, 30, 165, 90, 90, 165, 163, 89, 2, 0.635221
185, 6, bw, attraction, a-b-da, 2, 2, 7, 30, 165, 90, 90, 165, 163, 89, 1, 0.833095
185, 6, bw, filler, NA, 999, 999, 7, 31, 132, 155, 133, 135, 122, 66, 2, 0.813361
185, 6, bw, filler, NA, 999, 999, 7, 31, 132, 155, 133, 135, 122, 66, 3, 0.915756
185, 6, bw, attraction, a-b-db, 14, 2, 7, 32, 90, 165, 83, 153, 165, 90, 2, 0.64474
185, 6, bw, attraction, a-b-db, 14, 2, 7, 32, 90, 165, 83, 153, 165, 90, 1, 0.569806
185, 6, bw, attraction, a-b-db, 14, 1, 7, 33, 56, 125, 60, 135, 135, 60, 2, 0.864928
185, 6, bw, attraction, a-b-db, 14, 1, 7, 33, 56, 125, 60, 135, 135, 60, 1, 0.893278
185, 6, bw, filler, NA, 999, 999, 7, 34, 133, 153, 168, 168, 68, 127, 2, 0.926973
185, 6, bw, filler, NA, 999, 999, 7, 34, 133, 153, 168, 168, 68, 127, 3, 1.24872
185, 6, bw, filler, NA, 999, 999, 7, 35, 87, 176, 177, 182, 105, 123, 2, 0.572302
185, 6, bw, filler, NA, 999, 999, 7, 35, 87, 176, 177, 182, 105, 123, 3, 0.844047
185, 6, bw, attraction, a-b-da, 9, 1, 7, 36, 129, 57, 60, 135, 135, 60, 2, 0.759649
185, 6, bw, attraction, a-b-da, 9, 1, 7, 36, 129, 57, 60, 135, 135, 60, 1, 1.21618
185, 6, bw, attraction, a-b-db, 14, 3, 7, 37, 120, 195, 111, 181, 195, 120, 2, 0.796908
185, 6, bw, attraction, a-b-db, 14, 3, 7, 37, 120, 195, 111, 181, 195, 120, 3, 0.580096
185, 6, bw, filler, NA, 999, 999, 8, 1, 125, 58, 161, 148, 120, 120, 2, 0.922458
185, 6, bw, filler, NA, 999, 999, 8, 1, 125, 58, 161, 148, 120, 120, 3, 1.22825
185, 6, bw, attraction, a-b-da, 5, 1, 8, 2, 60, 135, 132, 58, 135, 60, 2, 1.49642
185, 6, bw, attraction, a-b-da, 5, 1, 8, 2, 60, 135, 132, 58, 135, 60, 3, 0.955252
185, 6, bw, attraction, a-b-db, 9, 2, 8, 3, 86, 157, 165, 90, 90, 165, 2, 0.674858
185, 6, bw, attraction, a-b-db, 9, 2, 8, 3, 86, 157, 165, 90, 90, 165, 3, 0.974652
185, 6, bw, attraction, a-b-db, 5, 2, 8, 4, 88, 161, 90, 165, 165, 90, 2, 0.540875
185, 6, bw, attraction, a-b-db, 5, 2, 8, 4, 88, 161, 90, 165, 165, 90, 3, 0.782092
185, 6, bw, attraction, a-b-db, 2, 3, 8, 5, 119, 193, 195, 120, 120, 195, 2, 0.812449
185, 6, bw, attraction, a-b-db, 2, 3, 8, 5, 119, 193, 195, 120, 120, 195, 3, 0.714926
185, 6, bw, attraction, a-b-da, 14, 3, 8, 6, 120, 195, 181, 111, 195, 120, 2, 0.531854
185, 6, bw, attraction, a-b-da, 14, 3, 8, 6, 120, 195, 181, 111, 195, 120, 3, 0.725679
185, 6, bw, filler, NA, 999, 999, 8, 7, 142, 163, 172, 118, 113, 95, 2, 0.742044
185, 6, bw, filler, NA, 999, 999, 8, 7, 142, 163, 172, 118, 113, 95, 3, 0.895134
185, 6, bw, attraction, a-b-db, 2, 2, 8, 8, 90, 165, 165, 90, 89, 163, 2, 1.1848
185, 6, bw, attraction, a-b-db, 2, 2, 8, 8, 90, 165, 165, 90, 89, 163, 3, 0.664373
185, 6, bw, attraction, a-b-db, 14, 3, 8, 9, 195, 120, 111, 181, 120, 195, 2, 1.3155
185, 6, bw, attraction, a-b-db, 14, 3, 8, 9, 195, 120, 111, 181, 120, 195, 1, 0.917692
185, 6, bw, attraction, a-b-da, 14, 1, 8, 10, 135, 60, 125, 56, 60, 135, 2, 0.846693
185, 6, bw, attraction, a-b-da, 14, 1, 8, 10, 135, 60, 125, 56, 60, 135, 1, 0.843716
185, 6, bw, attraction, a-b-da, 14, 2, 8, 11, 165, 90, 90, 165, 153, 83, 2, 0.767387
185, 6, bw, attraction, a-b-da, 14, 2, 8, 11, 165, 90, 90, 165, 153, 83, 1, 0.871813
185, 6, bw, attraction, a-b-db, 5, 3, 8, 12, 117, 190, 195, 120, 120, 195, 2, 0.562791
185, 6, bw, attraction, a-b-db, 5, 3, 8, 12, 117, 190, 195, 120, 120, 195, 1, 0.507292
185, 6, bw, attraction, a-b-db, 14, 1, 8, 13, 60, 135, 135, 60, 56, 125, 2, 0.988394
185, 6, bw, attraction, a-b-db, 14, 1, 8, 13, 60, 135, 135, 60, 56, 125, 1, 2.07539
185, 6, bw, catch, NA, 999, 999, 8, 14, 138, 117, 122, 73, 146, 169, 3, 1.1654
185, 6, bw, catch, NA, 999, 999, 8, 14, 138, 117, 122, 73, 146, 169, 2, 0.885614
185, 6, bw, filler, NA, 999, 999, 8, 15, 71, 130, 144, 149, 143, 111, 2, 1.5519
185, 6, bw, filler, NA, 999, 999, 8, 15, 71, 130, 144, 149, 143, 111, 1, 0.768798
185, 6, bw, filler, NA, 999, 999, 8, 16, 116, 193, 126, 122, 193, 120, 2, 1.46383
185, 6, bw, filler, NA, 999, 999, 8, 16, 116, 193, 126, 122, 193, 120, 1, 1.228
185, 6, bw, filler, NA, 999, 999, 8, 17, 159, 151, 74, 62, 69, 122, 1, 1.32018
185, 6, bw, filler, NA, 999, 999, 8, 17, 159, 151, 74, 62, 69, 122, 2, 0.594383
185, 6, bw, attraction, a-b-db, 14, 2, 8, 18, 165, 90, 90, 165, 83, 153, 1, 1.17621
185, 6, bw, attraction, a-b-db, 14, 2, 8, 18, 165, 90, 90, 165, 83, 153, 2, 0.567858
185, 6, bw, attraction, a-b-db, 2, 1, 8, 19, 60, 135, 59, 134, 135, 60, 1, 0.686975
185, 6, bw, attraction, a-b-db, 2, 1, 8, 19, 60, 135, 59, 134, 135, 60, 2, 0.79465
185, 6, bw, attraction, a-b-da, 5, 3, 8, 20, 120, 195, 190, 117, 195, 120, 1, 0.784425
185, 6, bw, attraction, a-b-da, 5, 3, 8, 20, 120, 195, 190, 117, 195, 120, 2, 1.04015
185, 6, bw, filler, NA, 999, 999, 8, 21, 149, 115, 63, 134, 159, 175, 3, 1.32379
185, 6, bw, filler, NA, 999, 999, 8, 21, 149, 115, 63, 134, 159, 175, 2, 0.461239
185, 6, bw, attraction, a-b-da, 9, 3, 8, 22, 195, 120, 186, 114, 120, 195, 3, 0.696392
185, 6, bw, attraction, a-b-da, 9, 3, 8, 22, 195, 120, 186, 114, 120, 195, 2, 0.771588
185, 6, bw, filler, NA, 999, 999, 8, 23, 68, 130, 194, 166, 142, 123, 2, 1.01859
185, 6, bw, filler, NA, 999, 999, 8, 23, 68, 130, 194, 166, 142, 123, 1, 1.50482
185, 6, bw, filler, NA, 999, 999, 8, 24, 83, 127, 69, 182, 76, 153, 2, 0.842457
185, 6, bw, filler, NA, 999, 999, 8, 24, 83, 127, 69, 182, 76, 153, 1, 0.703417
185, 6, bw, filler, NA, 999, 999, 8, 25, 166, 169, 136, 128, 180, 119, 1, 0.985121
185, 6, bw, filler, NA, 999, 999, 8, 25, 166, 169, 136, 128, 180, 119, 2, 1.07274
185, 6, bw, attraction, a-b-da, 5, 2, 8, 26, 90, 165, 161, 88, 165, 90, 3, 0.875626
185, 6, bw, attraction, a-b-da, 5, 2, 8, 26, 90, 165, 161, 88, 165, 90, 2, 0.439402
185, 6, bw, attraction, a-b-da, 2, 1, 8, 27, 135, 60, 60, 135, 134, 59, 2, 6.41929
185, 6, bw, attraction, a-b-da, 2, 1, 8, 27, 135, 60, 60, 135, 134, 59, 3, 0.743804
185, 6, bw, catch, NA, 999, 999, 8, 28, 120, 75, 191, 124, 112, 143, 2, 0.487456
185, 6, bw, catch, NA, 999, 999, 8, 28, 120, 75, 191, 124, 112, 143, 1, 0.65062
185, 6, bw, attraction, a-b-da, 9, 2, 8, 29, 157, 86, 90, 165, 165, 90, 2, 0.718356
185, 6, bw, attraction, a-b-da, 9, 2, 8, 29, 157, 86, 90, 165, 165, 90, 1, 0.792767
185, 6, bw, catch, NA, 999, 999, 8, 30, 115, 140, 178, 137, 119, 76, 2, 0.494613
185, 6, bw, catch, NA, 999, 999, 8, 30, 115, 140, 178, 137, 119, 76, 3, 0.61773
185, 6, bw, attraction, a-b-da, 2, 3, 8, 31, 120, 195, 195, 120, 193, 119, 2, 0.454762
185, 6, bw, attraction, a-b-da, 2, 3, 8, 31, 120, 195, 195, 120, 193, 119, 3, 0.427293
185, 6, bw, attraction, a-b-db, 5, 1, 8, 32, 135, 60, 60, 135, 58, 132, 2, 0.647716
185, 6, bw, attraction, a-b-db, 5, 1, 8, 32, 135, 60, 60, 135, 58, 132, 3, 0.432342
185, 6, bw, attraction, a-b-db, 9, 3, 8, 33, 120, 195, 114, 186, 195, 120, 2, 0.473497
185, 6, bw, attraction, a-b-db, 9, 3, 8, 33, 120, 195, 114, 186, 195, 120, 1, 0.373107
185, 6, bw, filler, NA, 999, 999, 8, 34, 74, 189, 169, 66, 178, 71, 2, 0.643619
185, 6, bw, filler, NA, 999, 999, 8, 34, 74, 189, 169, 66, 178, 71, 3, 0.392797
185, 6, bw, attraction, a-b-da, 2, 2, 8, 35, 90, 165, 165, 90, 163, 89, 2, 0.438515
185, 6, bw, attraction, a-b-da, 2, 2, 8, 35, 90, 165, 165, 90, 163, 89, 1, 0.355669
185, 6, bw, attraction, a-b-db, 9, 1, 8, 36, 135, 60, 57, 129, 60, 135, 2, 0.563498
185, 6, bw, attraction, a-b-db, 9, 1, 8, 36, 135, 60, 57, 129, 60, 135, 3, 0.411958
185, 6, bw, attraction, a-b-da, 9, 1, 8, 37, 60, 135, 135, 60, 129, 57, 2, 0.625109
185, 6, bw, attraction, a-b-da, 9, 1, 8, 37, 60, 135, 135, 60, 129, 57, 3, 0.702943
