sub_n, computer_n, bw_cond, effect, set, distance, diag, block_n, trial_n, h1, w1, h2, w2, h3, w3, choice, rt 
132, 6, wb, practice, NA, 999, 999, 0, 1, 91, 77, 60, 84, 92, 137, 2, 4.18193
132, 6, wb, practice, NA, 999, 999, 0, 1, 91, 77, 60, 84, 92, 137, 3, 2.31303
132, 6, wb, practice, NA, 999, 999, 0, 2, 116, 115, 97, 69, 126, 79, 2, 2.53148
132, 6, wb, practice, NA, 999, 999, 0, 2, 116, 115, 97, 69, 126, 79, 1, 2.36579
132, 6, wb, practice, NA, 999, 999, 0, 3, 195, 176, 116, 154, 79, 154, 3, 2.1758
132, 6, wb, practice, NA, 999, 999, 0, 3, 195, 176, 116, 154, 79, 154, 1, 1.54326
132, 6, wb, filler, NA, 999, 999, 1, 1, 179, 102, 141, 79, 187, 96, 2, 2.15877
132, 6, wb, filler, NA, 999, 999, 1, 1, 179, 102, 141, 79, 187, 96, 3, 8.02278
132, 6, wb, attraction, a-b-db, 2, 1, 1, 2, 135, 60, 60, 135, 59, 134, 3, 11.0736
132, 6, wb, attraction, a-b-db, 2, 1, 1, 2, 135, 60, 60, 135, 59, 134, 2, 1.01866
132, 6, wb, attraction, a-b-db, 14, 2, 1, 3, 90, 165, 83, 153, 165, 90, 2, 5.55964
132, 6, wb, attraction, a-b-db, 14, 2, 1, 3, 90, 165, 83, 153, 165, 90, 1, 3.29458
132, 6, wb, attraction, a-b-db, 5, 2, 1, 4, 88, 161, 165, 90, 90, 165, 1, 5.57556
132, 6, wb, attraction, a-b-db, 5, 2, 1, 4, 88, 161, 165, 90, 90, 165, 3, 0.685771
132, 6, wb, attraction, a-b-da, 2, 3, 1, 5, 195, 120, 120, 195, 193, 119, 3, 2.74419
132, 6, wb, attraction, a-b-da, 2, 3, 1, 5, 195, 120, 120, 195, 193, 119, 2, 0.704552
132, 6, wb, attraction, a-b-db, 9, 3, 1, 6, 114, 186, 120, 195, 195, 120, 1, 4.4264
132, 6, wb, attraction, a-b-db, 9, 3, 1, 6, 114, 186, 120, 195, 195, 120, 2, 0.710844
132, 6, wb, catch, NA, 999, 999, 1, 7, 113, 82, 108, 147, 140, 175, 1, 1.36795
132, 6, wb, catch, NA, 999, 999, 1, 7, 113, 82, 108, 147, 140, 175, 3, 0.808077
132, 6, wb, attraction, a-b-db, 5, 1, 1, 8, 58, 132, 135, 60, 60, 135, 2, 3.81315
132, 6, wb, attraction, a-b-db, 5, 1, 1, 8, 58, 132, 135, 60, 60, 135, 3, 1.93864
132, 6, wb, attraction, a-b-da, 2, 2, 1, 9, 165, 90, 163, 89, 90, 165, 1, 7.41061
132, 6, wb, attraction, a-b-da, 2, 2, 1, 9, 165, 90, 163, 89, 90, 165, 3, 0.798939
132, 6, wb, attraction, a-b-da, 9, 2, 1, 10, 90, 165, 157, 86, 165, 90, 2, 2.67653
132, 6, wb, attraction, a-b-da, 9, 2, 1, 10, 90, 165, 157, 86, 165, 90, 3, 0.831732
132, 6, wb, filler, NA, 999, 999, 1, 11, 139, 61, 64, 150, 181, 178, 1, 1.26821
132, 6, wb, filler, NA, 999, 999, 1, 11, 139, 61, 64, 150, 181, 178, 3, 0.968422
132, 6, wb, attraction, a-b-db, 5, 3, 1, 12, 117, 190, 195, 120, 120, 195, 1, 4.15129
132, 6, wb, attraction, a-b-db, 5, 3, 1, 12, 117, 190, 195, 120, 120, 195, 3, 0.631296
132, 6, wb, filler, NA, 999, 999, 1, 13, 119, 147, 76, 161, 193, 164, 2, 2.40369
132, 6, wb, filler, NA, 999, 999, 1, 13, 119, 147, 76, 161, 193, 164, 3, 1.02628
132, 6, wb, attraction, a-b-db, 14, 1, 1, 14, 135, 60, 60, 135, 56, 125, 3, 2.16664
132, 6, wb, attraction, a-b-db, 14, 1, 1, 14, 135, 60, 60, 135, 56, 125, 2, 0.910467
132, 6, wb, attraction, a-b-da, 9, 3, 1, 15, 195, 120, 186, 114, 120, 195, 2, 6.28749
132, 6, wb, attraction, a-b-da, 9, 3, 1, 15, 195, 120, 186, 114, 120, 195, 3, 1.68162
132, 6, wb, filler, NA, 999, 999, 1, 16, 153, 105, 142, 100, 180, 142, 2, 1.61957
132, 6, wb, filler, NA, 999, 999, 1, 16, 153, 105, 142, 100, 180, 142, 3, 0.633662
132, 6, wb, attraction, a-b-da, 5, 2, 1, 17, 165, 90, 90, 165, 161, 88, 3, 2.58224
132, 6, wb, attraction, a-b-da, 5, 2, 1, 17, 165, 90, 90, 165, 161, 88, 2, 0.869402
132, 6, wb, filler, NA, 999, 999, 1, 18, 61, 169, 118, 94, 154, 88, 1, 3.33629
132, 6, wb, filler, NA, 999, 999, 1, 18, 61, 169, 118, 94, 154, 88, 3, 2.13724
132, 6, wb, attraction, a-b-db, 9, 1, 1, 19, 135, 60, 60, 135, 57, 129, 3, 1.64922
132, 6, wb, attraction, a-b-db, 9, 1, 1, 19, 135, 60, 60, 135, 57, 129, 2, 1.14209
132, 6, wb, attraction, a-b-db, 9, 2, 1, 20, 90, 165, 86, 157, 165, 90, 2, 4.35755
132, 6, wb, attraction, a-b-db, 9, 2, 1, 20, 90, 165, 86, 157, 165, 90, 3, 0.524957
132, 6, wb, attraction, a-b-da, 14, 2, 1, 21, 165, 90, 90, 165, 153, 83, 3, 1.23726
132, 6, wb, attraction, a-b-da, 14, 2, 1, 21, 165, 90, 90, 165, 153, 83, 2, 0.602274
132, 6, wb, catch, NA, 999, 999, 1, 22, 143, 172, 112, 83, 117, 138, 2, 1.096
132, 6, wb, catch, NA, 999, 999, 1, 22, 143, 172, 112, 83, 117, 138, 1, 0.71486
132, 6, wb, attraction, a-b-db, 2, 2, 1, 23, 165, 90, 90, 165, 89, 163, 3, 4.36412
132, 6, wb, attraction, a-b-db, 2, 2, 1, 23, 165, 90, 90, 165, 89, 163, 2, 0.595277
132, 6, wb, attraction, a-b-da, 5, 1, 1, 24, 60, 135, 135, 60, 132, 58, 3, 2.28099
132, 6, wb, attraction, a-b-da, 5, 1, 1, 24, 60, 135, 135, 60, 132, 58, 2, 0.372286
132, 6, wb, attraction, a-b-da, 14, 1, 1, 25, 125, 56, 60, 135, 135, 60, 1, 1.88345
132, 6, wb, attraction, a-b-da, 14, 1, 1, 25, 125, 56, 60, 135, 135, 60, 2, 1.25485
132, 6, wb, attraction, a-b-db, 2, 3, 1, 26, 120, 195, 119, 193, 195, 120, 2, 14.7944
132, 6, wb, attraction, a-b-db, 2, 3, 1, 26, 120, 195, 119, 193, 195, 120, 1, 2.29304
132, 6, wb, attraction, a-b-da, 5, 3, 1, 27, 195, 120, 190, 117, 120, 195, 2, 1.95039
132, 6, wb, attraction, a-b-da, 5, 3, 1, 27, 195, 120, 190, 117, 120, 195, 3, 0.494929
132, 6, wb, filler, NA, 999, 999, 1, 28, 184, 177, 137, 195, 100, 137, 3, 1.16875
132, 6, wb, filler, NA, 999, 999, 1, 28, 184, 177, 137, 195, 100, 137, 1, 0.60105
132, 6, wb, attraction, a-b-da, 14, 3, 1, 29, 120, 195, 181, 111, 195, 120, 2, 1.66283
132, 6, wb, attraction, a-b-da, 14, 3, 1, 29, 120, 195, 181, 111, 195, 120, 1, 0.506899
132, 6, wb, filler, NA, 999, 999, 1, 30, 131, 141, 60, 77, 141, 158, 2, 1.02001
132, 6, wb, filler, NA, 999, 999, 1, 30, 131, 141, 60, 77, 141, 158, 3, 0.522523
132, 6, wb, attraction, a-b-db, 14, 3, 1, 31, 120, 195, 111, 181, 195, 120, 2, 2.92275
132, 6, wb, attraction, a-b-db, 14, 3, 1, 31, 120, 195, 111, 181, 195, 120, 1, 0.819884
132, 6, wb, filler, NA, 999, 999, 1, 32, 195, 159, 173, 162, 83, 59, 3, 0.712845
132, 6, wb, filler, NA, 999, 999, 1, 32, 195, 159, 173, 162, 83, 59, 1, 1.29125
132, 6, wb, attraction, a-b-da, 9, 1, 1, 33, 129, 57, 135, 60, 60, 135, 1, 1.31677
132, 6, wb, attraction, a-b-da, 9, 1, 1, 33, 129, 57, 135, 60, 60, 135, 2, 0.671136
132, 6, wb, filler, NA, 999, 999, 1, 34, 103, 56, 59, 112, 164, 96, 1, 1.14623
132, 6, wb, filler, NA, 999, 999, 1, 34, 103, 56, 59, 112, 164, 96, 3, 1.2751
132, 6, wb, catch, NA, 999, 999, 1, 35, 121, 74, 121, 134, 169, 146, 1, 0.925246
132, 6, wb, catch, NA, 999, 999, 1, 35, 121, 74, 121, 134, 169, 146, 3, 0.63898
132, 6, wb, filler, NA, 999, 999, 1, 36, 58, 69, 186, 60, 126, 113, 1, 0.763486
132, 6, wb, filler, NA, 999, 999, 1, 36, 58, 69, 186, 60, 126, 113, 3, 0.731784
132, 6, wb, attraction, a-b-da, 2, 1, 1, 37, 135, 60, 134, 59, 60, 135, 2, 2.7961
132, 6, wb, attraction, a-b-da, 2, 1, 1, 37, 135, 60, 134, 59, 60, 135, 1, 0.59462
132, 6, wb, attraction, a-b-db, 14, 1, 2, 1, 60, 135, 56, 125, 135, 60, 2, 1.97626
132, 6, wb, attraction, a-b-db, 14, 1, 2, 1, 60, 135, 56, 125, 135, 60, 1, 0.575625
132, 6, wb, attraction, a-b-da, 14, 3, 2, 2, 195, 120, 120, 195, 181, 111, 3, 2.21414
132, 6, wb, attraction, a-b-da, 14, 3, 2, 2, 195, 120, 120, 195, 181, 111, 1, 3.55615
132, 6, wb, attraction, a-b-da, 9, 1, 2, 3, 60, 135, 135, 60, 129, 57, 3, 2.79516
132, 6, wb, attraction, a-b-da, 9, 1, 2, 3, 60, 135, 135, 60, 129, 57, 1, 0.465335
132, 6, wb, attraction, a-b-da, 2, 1, 2, 4, 134, 59, 60, 135, 135, 60, 1, 1.65244
132, 6, wb, attraction, a-b-da, 2, 1, 2, 4, 134, 59, 60, 135, 135, 60, 3, 0.673407
132, 6, wb, attraction, a-b-da, 5, 2, 2, 5, 90, 165, 161, 88, 165, 90, 2, 6.79557
132, 6, wb, attraction, a-b-da, 5, 2, 2, 5, 90, 165, 161, 88, 165, 90, 1, 1.15283
132, 6, wb, catch, NA, 999, 999, 2, 6, 152, 163, 114, 81, 110, 145, 2, 0.84832
132, 6, wb, catch, NA, 999, 999, 2, 6, 152, 163, 114, 81, 110, 145, 1, 0.661397
132, 6, wb, attraction, a-b-da, 5, 1, 2, 7, 135, 60, 60, 135, 132, 58, 3, 2.27257
132, 6, wb, attraction, a-b-da, 5, 1, 2, 7, 135, 60, 60, 135, 132, 58, 2, 0.635861
132, 6, wb, attraction, a-b-db, 14, 3, 2, 8, 111, 181, 195, 120, 120, 195, 1, 2.95215
132, 6, wb, attraction, a-b-db, 14, 3, 2, 8, 111, 181, 195, 120, 120, 195, 3, 1.55262
132, 6, wb, attraction, a-b-db, 2, 2, 2, 9, 89, 163, 90, 165, 165, 90, 3, 3.55205
132, 6, wb, attraction, a-b-db, 2, 2, 2, 9, 89, 163, 90, 165, 165, 90, 1, 1.22431
132, 6, wb, filler, NA, 999, 999, 2, 10, 149, 79, 149, 146, 78, 147, 1, 2.46044
132, 6, wb, filler, NA, 999, 999, 2, 10, 149, 79, 149, 146, 78, 147, 2, 1.61638
132, 6, wb, filler, NA, 999, 999, 2, 11, 165, 59, 111, 64, 78, 191, 2, 1.20507
132, 6, wb, filler, NA, 999, 999, 2, 11, 165, 59, 111, 64, 78, 191, 3, 0.843478
132, 6, wb, filler, NA, 999, 999, 2, 12, 125, 124, 72, 129, 149, 186, 2, 1.54303
132, 6, wb, filler, NA, 999, 999, 2, 12, 125, 124, 72, 129, 149, 186, 3, 0.735848
132, 6, wb, filler, NA, 999, 999, 2, 13, 86, 164, 82, 97, 121, 94, 2, 4.81627
132, 6, wb, filler, NA, 999, 999, 2, 13, 86, 164, 82, 97, 121, 94, 1, 2.40548
132, 6, wb, filler, NA, 999, 999, 2, 14, 190, 186, 163, 97, 138, 98, 3, 17.4826
132, 6, wb, filler, NA, 999, 999, 2, 14, 190, 186, 163, 97, 138, 98, 1, 0.537055
132, 6, wb, catch, NA, 999, 999, 2, 15, 130, 125, 147, 168, 135, 60, 3, 2.31362
132, 6, wb, catch, NA, 999, 999, 2, 15, 130, 125, 147, 168, 135, 60, 2, 0.587438
132, 6, wb, attraction, a-b-db, 9, 2, 2, 16, 86, 157, 165, 90, 90, 165, 1, 1.65783
132, 6, wb, attraction, a-b-db, 9, 2, 2, 16, 86, 157, 165, 90, 90, 165, 2, 0.485951
132, 6, wb, filler, NA, 999, 999, 2, 17, 124, 81, 180, 119, 84, 112, 3, 3.24862
132, 6, wb, filler, NA, 999, 999, 2, 17, 124, 81, 180, 119, 84, 112, 2, 0.836681
132, 6, wb, attraction, a-b-db, 2, 1, 2, 18, 135, 60, 60, 135, 59, 134, 1, 2.60906
132, 6, wb, attraction, a-b-db, 2, 1, 2, 18, 135, 60, 60, 135, 59, 134, 2, 0.566875
132, 6, wb, filler, NA, 999, 999, 2, 19, 93, 71, 84, 74, 106, 73, 2, 1.78196
132, 6, wb, filler, NA, 999, 999, 2, 19, 93, 71, 84, 74, 106, 73, 3, 0.941493
132, 6, wb, attraction, a-b-db, 14, 2, 2, 20, 165, 90, 90, 165, 83, 153, 3, 5.08521
132, 6, wb, attraction, a-b-db, 14, 2, 2, 20, 165, 90, 90, 165, 83, 153, 2, 0.559512
132, 6, wb, attraction, a-b-da, 2, 2, 2, 21, 165, 90, 163, 89, 90, 165, 2, 3.37455
132, 6, wb, attraction, a-b-da, 2, 2, 2, 21, 165, 90, 163, 89, 90, 165, 3, 0.517474
132, 6, wb, attraction, a-b-db, 2, 3, 2, 22, 195, 120, 120, 195, 119, 193, 2, 2.79855
132, 6, wb, attraction, a-b-db, 2, 3, 2, 22, 195, 120, 120, 195, 119, 193, 3, 0.773015
132, 6, wb, filler, NA, 999, 999, 2, 23, 173, 161, 160, 182, 122, 79, 3, 1.53943
132, 6, wb, filler, NA, 999, 999, 2, 23, 173, 161, 160, 182, 122, 79, 2, 0.700211
132, 6, wb, catch, NA, 999, 999, 2, 24, 127, 68, 90, 165, 166, 149, 1, 1.44598
132, 6, wb, catch, NA, 999, 999, 2, 24, 127, 68, 90, 165, 166, 149, 3, 0.842801
132, 6, wb, attraction, a-b-da, 5, 3, 2, 25, 120, 195, 190, 117, 195, 120, 2, 3.84638
132, 6, wb, attraction, a-b-da, 5, 3, 2, 25, 120, 195, 190, 117, 195, 120, 1, 1.13064
132, 6, wb, filler, NA, 999, 999, 2, 26, 152, 112, 120, 114, 136, 64, 3, 2.05895
132, 6, wb, filler, NA, 999, 999, 2, 26, 152, 112, 120, 114, 136, 64, 1, 0.77477
132, 6, wb, attraction, a-b-db, 5, 3, 2, 27, 117, 190, 195, 120, 120, 195, 1, 10.1492
132, 6, wb, attraction, a-b-db, 5, 3, 2, 27, 117, 190, 195, 120, 120, 195, 3, 1.33138
132, 6, wb, attraction, a-b-db, 5, 1, 2, 28, 60, 135, 135, 60, 58, 132, 3, 6.91559
132, 6, wb, attraction, a-b-db, 5, 1, 2, 28, 60, 135, 135, 60, 58, 132, 1, 0.940034
132, 6, wb, attraction, a-b-da, 9, 3, 2, 29, 195, 120, 120, 195, 186, 114, 3, 2.52371
132, 6, wb, attraction, a-b-da, 9, 3, 2, 29, 195, 120, 120, 195, 186, 114, 2, 0.500957
132, 6, wb, attraction, a-b-da, 2, 3, 2, 30, 195, 120, 193, 119, 120, 195, 1, 4.1107
132, 6, wb, attraction, a-b-da, 2, 3, 2, 30, 195, 120, 193, 119, 120, 195, 2, 0.952048
132, 6, wb, attraction, a-b-da, 9, 2, 2, 31, 90, 165, 165, 90, 157, 86, 3, 2.24755
132, 6, wb, attraction, a-b-da, 9, 2, 2, 31, 90, 165, 165, 90, 157, 86, 1, 0.956213
132, 6, wb, filler, NA, 999, 999, 2, 32, 74, 179, 70, 93, 97, 127, 2, 1.32325
132, 6, wb, filler, NA, 999, 999, 2, 32, 74, 179, 70, 93, 97, 127, 1, 1.92473
132, 6, wb, attraction, a-b-da, 14, 1, 2, 33, 125, 56, 60, 135, 135, 60, 1, 9.26884
132, 6, wb, attraction, a-b-da, 14, 1, 2, 33, 125, 56, 60, 135, 135, 60, 2, 0.662489
132, 6, wb, attraction, a-b-db, 9, 3, 2, 34, 114, 186, 195, 120, 120, 195, 1, 2.19367
132, 6, wb, attraction, a-b-db, 9, 3, 2, 34, 114, 186, 195, 120, 120, 195, 2, 1.75228
132, 6, wb, attraction, a-b-db, 5, 2, 2, 35, 165, 90, 88, 161, 90, 165, 1, 5.51948
132, 6, wb, attraction, a-b-db, 5, 2, 2, 35, 165, 90, 88, 161, 90, 165, 3, 1.67247
132, 6, wb, attraction, a-b-db, 9, 1, 2, 36, 135, 60, 57, 129, 60, 135, 2, 3.18724
132, 6, wb, attraction, a-b-db, 9, 1, 2, 36, 135, 60, 57, 129, 60, 135, 3, 0.713746
132, 6, wb, attraction, a-b-da, 14, 2, 2, 37, 90, 165, 153, 83, 165, 90, 2, 1.77065
132, 6, wb, attraction, a-b-da, 14, 2, 2, 37, 90, 165, 153, 83, 165, 90, 1, 0.538703
132, 6, wb, attraction, a-b-da, 2, 3, 3, 1, 193, 119, 120, 195, 195, 120, 1, 4.13909
132, 6, wb, attraction, a-b-da, 2, 3, 3, 1, 193, 119, 120, 195, 195, 120, 2, 0.987352
132, 6, wb, attraction, a-b-db, 5, 2, 3, 2, 165, 90, 90, 165, 88, 161, 1, 1.35343
132, 6, wb, attraction, a-b-db, 5, 2, 3, 2, 165, 90, 90, 165, 88, 161, 2, 0.530306
132, 6, wb, attraction, a-b-da, 9, 2, 3, 3, 157, 86, 165, 90, 90, 165, 1, 2.56276
132, 6, wb, attraction, a-b-da, 9, 2, 3, 3, 157, 86, 165, 90, 90, 165, 3, 0.466709
132, 6, wb, attraction, a-b-da, 14, 2, 3, 4, 90, 165, 165, 90, 153, 83, 3, 2.6617
132, 6, wb, attraction, a-b-da, 14, 2, 3, 4, 90, 165, 165, 90, 153, 83, 1, 0.81752
132, 6, wb, attraction, a-b-da, 14, 3, 3, 5, 181, 111, 195, 120, 120, 195, 1, 2.03861
132, 6, wb, attraction, a-b-da, 14, 3, 3, 5, 181, 111, 195, 120, 120, 195, 3, 1.61128
132, 6, wb, filler, NA, 999, 999, 3, 6, 66, 192, 117, 169, 146, 100, 1, 1.27213
132, 6, wb, filler, NA, 999, 999, 3, 6, 66, 192, 117, 169, 146, 100, 2, 0.443616
132, 6, wb, attraction, a-b-db, 9, 3, 3, 7, 114, 186, 120, 195, 195, 120, 1, 6.35937
132, 6, wb, attraction, a-b-db, 9, 3, 3, 7, 114, 186, 120, 195, 195, 120, 2, 0.662042
132, 6, wb, attraction, a-b-db, 9, 2, 3, 8, 90, 165, 165, 90, 86, 157, 3, 2.06505
132, 6, wb, attraction, a-b-db, 9, 2, 3, 8, 90, 165, 165, 90, 86, 157, 1, 0.901066
132, 6, wb, attraction, a-b-da, 5, 1, 3, 9, 132, 58, 60, 135, 135, 60, 1, 2.91875
132, 6, wb, attraction, a-b-da, 5, 1, 3, 9, 132, 58, 60, 135, 135, 60, 2, 0.584561
132, 6, wb, attraction, a-b-db, 14, 2, 3, 10, 90, 165, 165, 90, 83, 153, 3, 2.99902
132, 6, wb, attraction, a-b-db, 14, 2, 3, 10, 90, 165, 165, 90, 83, 153, 1, 0.5413
132, 6, wb, filler, NA, 999, 999, 3, 11, 95, 76, 120, 80, 75, 65, 3, 1.42111
132, 6, wb, filler, NA, 999, 999, 3, 11, 95, 76, 120, 80, 75, 65, 2, 1.47478
132, 6, wb, filler, NA, 999, 999, 3, 12, 170, 120, 64, 134, 194, 115, 2, 1.24466
132, 6, wb, filler, NA, 999, 999, 3, 12, 170, 120, 64, 134, 194, 115, 3, 0.665598
132, 6, wb, filler, NA, 999, 999, 3, 13, 95, 194, 192, 177, 160, 129, 1, 4.50873
132, 6, wb, filler, NA, 999, 999, 3, 13, 95, 194, 192, 177, 160, 129, 2, 0.845895
132, 6, wb, attraction, a-b-db, 9, 1, 3, 14, 135, 60, 60, 135, 57, 129, 3, 2.0577
132, 6, wb, attraction, a-b-db, 9, 1, 3, 14, 135, 60, 60, 135, 57, 129, 1, 1.5416
132, 6, wb, attraction, a-b-da, 2, 2, 3, 15, 90, 165, 165, 90, 163, 89, 2, 4.82108
132, 6, wb, attraction, a-b-da, 2, 2, 3, 15, 90, 165, 165, 90, 163, 89, 1, 1.1942
132, 6, wb, filler, NA, 999, 999, 3, 16, 168, 133, 89, 194, 62, 180, 3, 1.23173
132, 6, wb, filler, NA, 999, 999, 3, 16, 168, 133, 89, 194, 62, 180, 1, 0.613468
132, 6, wb, attraction, a-b-da, 5, 3, 3, 17, 190, 117, 120, 195, 195, 120, 1, 3.45047
132, 6, wb, attraction, a-b-da, 5, 3, 3, 17, 190, 117, 120, 195, 195, 120, 2, 1.30274
132, 6, wb, attraction, a-b-db, 2, 2, 3, 18, 90, 165, 89, 163, 165, 90, 2, 4.49624
132, 6, wb, attraction, a-b-db, 2, 2, 3, 18, 90, 165, 89, 163, 165, 90, 1, 1.06611
132, 6, wb, attraction, a-b-da, 9, 1, 3, 19, 60, 135, 129, 57, 135, 60, 2, 1.48513
132, 6, wb, attraction, a-b-da, 9, 1, 3, 19, 60, 135, 129, 57, 135, 60, 1, 4.03262
132, 6, wb, attraction, a-b-db, 14, 1, 3, 20, 135, 60, 60, 135, 56, 125, 3, 2.42794
132, 6, wb, attraction, a-b-db, 14, 1, 3, 20, 135, 60, 60, 135, 56, 125, 1, 0.801165
132, 6, wb, catch, NA, 999, 999, 3, 21, 139, 116, 157, 158, 69, 126, 3, 1.11082
132, 6, wb, catch, NA, 999, 999, 3, 21, 139, 116, 157, 158, 69, 126, 2, 0.577245
132, 6, wb, filler, NA, 999, 999, 3, 22, 169, 140, 179, 125, 81, 85, 3, 2.21565
132, 6, wb, filler, NA, 999, 999, 3, 22, 169, 140, 179, 125, 81, 85, 1, 0.725471
132, 6, wb, catch, NA, 999, 999, 3, 23, 153, 162, 129, 66, 146, 109, 2, 1.17386
132, 6, wb, catch, NA, 999, 999, 3, 23, 153, 162, 129, 66, 146, 109, 1, 0.813554
132, 6, wb, attraction, a-b-db, 2, 3, 3, 24, 120, 195, 119, 193, 195, 120, 1, 2.58666
132, 6, wb, attraction, a-b-db, 2, 3, 3, 24, 120, 195, 119, 193, 195, 120, 2, 0.833604
132, 6, wb, attraction, a-b-da, 2, 1, 3, 25, 134, 59, 135, 60, 60, 135, 3, 5.48598
132, 6, wb, attraction, a-b-da, 2, 1, 3, 25, 134, 59, 135, 60, 60, 135, 2, 0.936372
132, 6, wb, attraction, a-b-db, 5, 3, 3, 26, 120, 195, 195, 120, 117, 190, 1, 6.89654
132, 6, wb, attraction, a-b-db, 5, 3, 3, 26, 120, 195, 195, 120, 117, 190, 3, 0.697814
132, 6, wb, catch, NA, 999, 999, 3, 27, 127, 188, 91, 104, 118, 137, 2, 1.01156
132, 6, wb, catch, NA, 999, 999, 3, 27, 127, 188, 91, 104, 118, 137, 1, 0.785717
132, 6, wb, filler, NA, 999, 999, 3, 28, 189, 189, 157, 149, 112, 172, 3, 4.92836
132, 6, wb, filler, NA, 999, 999, 3, 28, 189, 189, 157, 149, 112, 172, 1, 0.768582
132, 6, wb, attraction, a-b-da, 14, 1, 3, 29, 125, 56, 60, 135, 135, 60, 1, 1.80759
132, 6, wb, attraction, a-b-da, 14, 1, 3, 29, 125, 56, 60, 135, 135, 60, 3, 0.773708
132, 6, wb, filler, NA, 999, 999, 3, 30, 73, 70, 161, 138, 114, 180, 1, 1.08413
132, 6, wb, filler, NA, 999, 999, 3, 30, 73, 70, 161, 138, 114, 180, 2, 0.799645
132, 6, wb, attraction, a-b-da, 9, 3, 3, 31, 120, 195, 195, 120, 186, 114, 3, 21.7733
132, 6, wb, attraction, a-b-da, 9, 3, 3, 31, 120, 195, 195, 120, 186, 114, 1, 0.967171
132, 6, wb, attraction, a-b-db, 2, 1, 3, 32, 60, 135, 59, 134, 135, 60, 3, 3.65425
132, 6, wb, attraction, a-b-db, 2, 1, 3, 32, 60, 135, 59, 134, 135, 60, 1, 2.01769
132, 6, wb, attraction, a-b-db, 14, 3, 3, 33, 195, 120, 111, 181, 120, 195, 2, 2.21434
132, 6, wb, attraction, a-b-db, 14, 3, 3, 33, 195, 120, 111, 181, 120, 195, 3, 0.572381
132, 6, wb, attraction, a-b-db, 5, 1, 3, 34, 60, 135, 135, 60, 58, 132, 2, 2.12345
132, 6, wb, attraction, a-b-db, 5, 1, 3, 34, 60, 135, 135, 60, 58, 132, 1, 0.660648
132, 6, wb, filler, NA, 999, 999, 3, 35, 126, 168, 183, 170, 135, 162, 1, 1.11979
132, 6, wb, filler, NA, 999, 999, 3, 35, 126, 168, 183, 170, 135, 162, 2, 0.970018
132, 6, wb, attraction, a-b-da, 5, 2, 3, 36, 90, 165, 165, 90, 161, 88, 2, 1.72898
132, 6, wb, attraction, a-b-da, 5, 2, 3, 36, 90, 165, 165, 90, 161, 88, 1, 0.506447
132, 6, wb, filler, NA, 999, 999, 3, 37, 89, 103, 72, 89, 137, 180, 2, 0.867505
132, 6, wb, filler, NA, 999, 999, 3, 37, 89, 103, 72, 89, 137, 180, 3, 0.431946
132, 6, wb, attraction, a-b-da, 2, 3, 4, 1, 193, 119, 195, 120, 120, 195, 2, 3.34833
132, 6, wb, attraction, a-b-da, 2, 3, 4, 1, 193, 119, 195, 120, 120, 195, 3, 0.396666
132, 6, wb, attraction, a-b-da, 5, 1, 4, 2, 132, 58, 135, 60, 60, 135, 3, 4.86656
132, 6, wb, attraction, a-b-da, 5, 1, 4, 2, 132, 58, 135, 60, 60, 135, 1, 0.685548
132, 6, wb, filler, NA, 999, 999, 4, 3, 130, 87, 172, 178, 120, 106, 1, 2.75995
132, 6, wb, filler, NA, 999, 999, 4, 3, 130, 87, 172, 178, 120, 106, 2, 0.615735
132, 6, wb, attraction, a-b-da, 14, 1, 4, 4, 125, 56, 135, 60, 60, 135, 2, 4.96483
132, 6, wb, attraction, a-b-da, 14, 1, 4, 4, 125, 56, 135, 60, 60, 135, 3, 0.771934
132, 6, wb, attraction, a-b-db, 2, 2, 4, 5, 90, 165, 89, 163, 165, 90, 2, 2.2669
132, 6, wb, attraction, a-b-db, 2, 2, 4, 5, 90, 165, 89, 163, 165, 90, 3, 0.710927
132, 6, wb, catch, NA, 999, 999, 4, 6, 90, 165, 148, 167, 132, 63, 3, 4.12002
132, 6, wb, catch, NA, 999, 999, 4, 6, 90, 165, 148, 167, 132, 63, 2, 0.601343
132, 6, wb, filler, NA, 999, 999, 4, 7, 75, 64, 173, 85, 83, 169, 1, 0.999112
132, 6, wb, filler, NA, 999, 999, 4, 7, 75, 64, 173, 85, 83, 169, 3, 0.790193
132, 6, wb, attraction, a-b-da, 14, 2, 4, 8, 90, 165, 153, 83, 165, 90, 2, 4.09176
132, 6, wb, attraction, a-b-da, 14, 2, 4, 8, 90, 165, 153, 83, 165, 90, 3, 0.565813
132, 6, wb, attraction, a-b-db, 14, 2, 4, 9, 90, 165, 165, 90, 83, 153, 3, 2.15689
132, 6, wb, attraction, a-b-db, 14, 2, 4, 9, 90, 165, 165, 90, 83, 153, 1, 0.436849
132, 6, wb, filler, NA, 999, 999, 4, 10, 144, 140, 122, 179, 136, 190, 2, 1.73741
132, 6, wb, filler, NA, 999, 999, 4, 10, 144, 140, 122, 179, 136, 190, 3, 0.37884
132, 6, wb, attraction, a-b-db, 9, 1, 4, 11, 135, 60, 57, 129, 60, 135, 2, 2.4572
132, 6, wb, attraction, a-b-db, 9, 1, 4, 11, 135, 60, 57, 129, 60, 135, 1, 1.46105
132, 6, wb, filler, NA, 999, 999, 4, 12, 93, 118, 129, 125, 91, 165, 1, 0.952149
132, 6, wb, filler, NA, 999, 999, 4, 12, 93, 118, 129, 125, 91, 165, 2, 0.600948
132, 6, wb, catch, NA, 999, 999, 4, 13, 111, 144, 145, 170, 110, 85, 3, 0.814641
132, 6, wb, catch, NA, 999, 999, 4, 13, 111, 144, 145, 170, 110, 85, 2, 0.669052
132, 6, wb, attraction, a-b-da, 14, 3, 4, 14, 181, 111, 120, 195, 195, 120, 1, 1.63215
132, 6, wb, attraction, a-b-da, 14, 3, 4, 14, 181, 111, 120, 195, 195, 120, 2, 0.445703
132, 6, wb, catch, NA, 999, 999, 4, 15, 117, 78, 178, 137, 138, 117, 1, 0.713603
132, 6, wb, catch, NA, 999, 999, 4, 15, 117, 78, 178, 137, 138, 117, 2, 0.387784
132, 6, wb, attraction, a-b-db, 2, 3, 4, 16, 120, 195, 119, 193, 195, 120, 3, 2.24232
132, 6, wb, attraction, a-b-db, 2, 3, 4, 16, 120, 195, 119, 193, 195, 120, 2, 0.486963
132, 6, wb, attraction, a-b-da, 9, 1, 4, 17, 60, 135, 135, 60, 129, 57, 3, 2.30534
132, 6, wb, attraction, a-b-da, 9, 1, 4, 17, 60, 135, 135, 60, 129, 57, 2, 0.435295
132, 6, wb, attraction, a-b-db, 5, 2, 4, 18, 88, 161, 165, 90, 90, 165, 1, 3.16787
132, 6, wb, attraction, a-b-db, 5, 2, 4, 18, 88, 161, 165, 90, 90, 165, 3, 0.559545
132, 6, wb, attraction, a-b-db, 14, 3, 4, 19, 195, 120, 120, 195, 111, 181, 3, 2.75065
132, 6, wb, attraction, a-b-db, 14, 3, 4, 19, 195, 120, 120, 195, 111, 181, 1, 0.486971
132, 6, wb, filler, NA, 999, 999, 4, 20, 63, 140, 113, 164, 75, 179, 1, 0.8094
132, 6, wb, filler, NA, 999, 999, 4, 20, 63, 140, 113, 164, 75, 179, 2, 0.279772
132, 6, wb, attraction, a-b-da, 5, 3, 4, 21, 195, 120, 120, 195, 190, 117, 3, 1.83434
132, 6, wb, attraction, a-b-da, 5, 3, 4, 21, 195, 120, 120, 195, 190, 117, 2, 0.391718
132, 6, wb, attraction, a-b-da, 9, 2, 4, 22, 90, 165, 157, 86, 165, 90, 2, 3.17361
132, 6, wb, attraction, a-b-da, 9, 2, 4, 22, 90, 165, 157, 86, 165, 90, 1, 0.892547
132, 6, wb, attraction, a-b-da, 2, 1, 4, 23, 135, 60, 60, 135, 134, 59, 1, 1.78226
132, 6, wb, attraction, a-b-da, 2, 1, 4, 23, 135, 60, 60, 135, 134, 59, 2, 0.469775
132, 6, wb, attraction, a-b-db, 14, 1, 4, 24, 60, 135, 135, 60, 56, 125, 2, 1.16073
132, 6, wb, attraction, a-b-db, 14, 1, 4, 24, 60, 135, 135, 60, 56, 125, 3, 0.305176
132, 6, wb, attraction, a-b-db, 5, 3, 4, 25, 195, 120, 120, 195, 117, 190, 3, 2.63488
132, 6, wb, attraction, a-b-db, 5, 3, 4, 25, 195, 120, 120, 195, 117, 190, 2, 0.48799
132, 6, wb, filler, NA, 999, 999, 4, 26, 194, 183, 154, 62, 117, 75, 3, 1.0345
132, 6, wb, filler, NA, 999, 999, 4, 26, 194, 183, 154, 62, 117, 75, 1, 0.480166
132, 6, wb, filler, NA, 999, 999, 4, 27, 179, 73, 164, 59, 137, 152, 2, 1.41851
132, 6, wb, filler, NA, 999, 999, 4, 27, 179, 73, 164, 59, 137, 152, 3, 0.728778
132, 6, wb, attraction, a-b-db, 9, 2, 4, 28, 90, 165, 165, 90, 86, 157, 3, 2.28937
132, 6, wb, attraction, a-b-db, 9, 2, 4, 28, 90, 165, 165, 90, 86, 157, 1, 0.507903
132, 6, wb, attraction, a-b-db, 2, 1, 4, 29, 135, 60, 59, 134, 60, 135, 2, 1.389
132, 6, wb, attraction, a-b-db, 2, 1, 4, 29, 135, 60, 59, 134, 60, 135, 1, 0.627699
132, 6, wb, attraction, a-b-db, 5, 1, 4, 30, 135, 60, 60, 135, 58, 132, 3, 1.25622
132, 6, wb, attraction, a-b-db, 5, 1, 4, 30, 135, 60, 60, 135, 58, 132, 2, 0.596486
132, 6, wb, attraction, a-b-db, 9, 3, 4, 31, 114, 186, 195, 120, 120, 195, 1, 1.35417
132, 6, wb, attraction, a-b-db, 9, 3, 4, 31, 114, 186, 195, 120, 120, 195, 3, 0.698502
132, 6, wb, attraction, a-b-da, 9, 3, 4, 32, 186, 114, 120, 195, 195, 120, 1, 2.14015
132, 6, wb, attraction, a-b-da, 9, 3, 4, 32, 186, 114, 120, 195, 195, 120, 2, 0.364732
132, 6, wb, filler, NA, 999, 999, 4, 33, 132, 64, 124, 159, 58, 120, 3, 1.08396
132, 6, wb, filler, NA, 999, 999, 4, 33, 132, 64, 124, 159, 58, 120, 2, 0.759609
132, 6, wb, attraction, a-b-da, 2, 2, 4, 34, 90, 165, 163, 89, 165, 90, 2, 4.22258
132, 6, wb, attraction, a-b-da, 2, 2, 4, 34, 90, 165, 163, 89, 165, 90, 3, 0.675238
132, 6, wb, filler, NA, 999, 999, 4, 35, 69, 104, 177, 64, 74, 133, 1, 1.01362
132, 6, wb, filler, NA, 999, 999, 4, 35, 69, 104, 177, 64, 74, 133, 2, 3.33197
132, 6, wb, filler, NA, 999, 999, 4, 36, 117, 99, 92, 95, 74, 113, 3, 3.31554
132, 6, wb, filler, NA, 999, 999, 4, 36, 117, 99, 92, 95, 74, 113, 1, 0.789201
132, 6, wb, attraction, a-b-da, 5, 2, 4, 37, 161, 88, 90, 165, 165, 90, 1, 3.60348
132, 6, wb, attraction, a-b-da, 5, 2, 4, 37, 161, 88, 90, 165, 165, 90, 2, 0.593729
132, 6, wb, attraction, a-b-da, 14, 2, 5, 1, 165, 90, 153, 83, 90, 165, 2, 126.238
132, 6, wb, attraction, a-b-da, 14, 2, 5, 1, 165, 90, 153, 83, 90, 165, 1, 0.469886
132, 6, wb, filler, NA, 999, 999, 5, 2, 62, 78, 156, 131, 59, 112, 1, 1.9771
132, 6, wb, filler, NA, 999, 999, 5, 2, 62, 78, 156, 131, 59, 112, 2, 0.70443
132, 6, wb, filler, NA, 999, 999, 5, 3, 189, 141, 66, 145, 83, 111, 3, 2.73815
132, 6, wb, filler, NA, 999, 999, 5, 3, 189, 141, 66, 145, 83, 111, 1, 0.578563
132, 6, wb, attraction, a-b-da, 9, 3, 5, 4, 195, 120, 120, 195, 186, 114, 3, 2.12097
132, 6, wb, attraction, a-b-da, 9, 3, 5, 4, 195, 120, 120, 195, 186, 114, 2, 0.410282
132, 6, wb, filler, NA, 999, 999, 5, 5, 181, 58, 57, 79, 172, 151, 2, 1.01538
132, 6, wb, filler, NA, 999, 999, 5, 5, 181, 58, 57, 79, 172, 151, 3, 0.365731
132, 6, wb, attraction, a-b-db, 5, 3, 5, 6, 195, 120, 117, 190, 120, 195, 2, 2.83688
132, 6, wb, attraction, a-b-db, 5, 3, 5, 6, 195, 120, 117, 190, 120, 195, 3, 0.474076
132, 6, wb, attraction, a-b-db, 14, 3, 5, 7, 120, 195, 195, 120, 111, 181, 3, 1.94039
132, 6, wb, attraction, a-b-db, 14, 3, 5, 7, 120, 195, 195, 120, 111, 181, 1, 0.613156
132, 6, wb, attraction, a-b-da, 2, 1, 5, 8, 60, 135, 134, 59, 135, 60, 3, 2.94619
132, 6, wb, attraction, a-b-da, 2, 1, 5, 8, 60, 135, 134, 59, 135, 60, 2, 0.434633
132, 6, wb, attraction, a-b-da, 5, 2, 5, 9, 90, 165, 165, 90, 161, 88, 3, 2.04703
132, 6, wb, attraction, a-b-da, 5, 2, 5, 9, 90, 165, 165, 90, 161, 88, 1, 0.483762
132, 6, wb, filler, NA, 999, 999, 5, 10, 118, 101, 158, 183, 143, 151, 1, 1.1743
132, 6, wb, filler, NA, 999, 999, 5, 10, 118, 101, 158, 183, 143, 151, 2, 0.501853
132, 6, wb, attraction, a-b-da, 14, 3, 5, 11, 195, 120, 181, 111, 120, 195, 2, 2.51165
132, 6, wb, attraction, a-b-da, 14, 3, 5, 11, 195, 120, 181, 111, 120, 195, 3, 0.345532
132, 6, wb, attraction, a-b-db, 2, 1, 5, 12, 135, 60, 60, 135, 59, 134, 3, 1.07332
132, 6, wb, attraction, a-b-db, 2, 1, 5, 12, 135, 60, 60, 135, 59, 134, 2, 0.708951
132, 6, wb, catch, NA, 999, 999, 5, 13, 127, 128, 107, 88, 123, 192, 2, 1.06202
132, 6, wb, catch, NA, 999, 999, 5, 13, 127, 128, 107, 88, 123, 192, 3, 0.610415
132, 6, wb, attraction, a-b-db, 2, 3, 5, 14, 119, 193, 120, 195, 195, 120, 3, 4.1194
132, 6, wb, attraction, a-b-db, 2, 3, 5, 14, 119, 193, 120, 195, 195, 120, 1, 0.592882
132, 6, wb, attraction, a-b-da, 5, 1, 5, 15, 60, 135, 135, 60, 132, 58, 1, 1.50244
132, 6, wb, attraction, a-b-da, 5, 1, 5, 15, 60, 135, 135, 60, 132, 58, 2, 0.401313
132, 6, wb, filler, NA, 999, 999, 5, 16, 140, 145, 120, 83, 144, 98, 2, 0.983197
132, 6, wb, filler, NA, 999, 999, 5, 16, 140, 145, 120, 83, 144, 98, 1, 0.302785
132, 6, wb, filler, NA, 999, 999, 5, 17, 83, 79, 122, 96, 67, 100, 1, 0.936771
132, 6, wb, filler, NA, 999, 999, 5, 17, 83, 79, 122, 96, 67, 100, 2, 1.91385
132, 6, wb, filler, NA, 999, 999, 5, 18, 57, 77, 63, 187, 59, 193, 1, 1.10637
132, 6, wb, filler, NA, 999, 999, 5, 18, 57, 77, 63, 187, 59, 193, 3, 1.40473
132, 6, wb, attraction, a-b-da, 9, 2, 5, 19, 165, 90, 157, 86, 90, 165, 2, 2.83415
132, 6, wb, attraction, a-b-da, 9, 2, 5, 19, 165, 90, 157, 86, 90, 165, 1, 0.559255
132, 6, wb, filler, NA, 999, 999, 5, 20, 59, 138, 124, 106, 148, 88, 1, 1.45434
132, 6, wb, filler, NA, 999, 999, 5, 20, 59, 138, 124, 106, 148, 88, 3, 0.658553
132, 6, wb, catch, NA, 999, 999, 5, 21, 179, 136, 120, 135, 132, 63, 3, 1.18954
132, 6, wb, catch, NA, 999, 999, 5, 21, 179, 136, 120, 135, 132, 63, 1, 0.612479
132, 6, wb, attraction, a-b-db, 14, 2, 5, 22, 83, 153, 90, 165, 165, 90, 1, 1.76159
132, 6, wb, attraction, a-b-db, 14, 2, 5, 22, 83, 153, 90, 165, 165, 90, 3, 0.481669
132, 6, wb, attraction, a-b-db, 9, 2, 5, 23, 86, 157, 90, 165, 165, 90, 1, 1.30015
132, 6, wb, attraction, a-b-db, 9, 2, 5, 23, 86, 157, 90, 165, 165, 90, 2, 0.423069
132, 6, wb, attraction, a-b-da, 2, 2, 5, 24, 165, 90, 90, 165, 163, 89, 1, 3.27552
132, 6, wb, attraction, a-b-da, 2, 2, 5, 24, 165, 90, 90, 165, 163, 89, 2, 0.486453
132, 6, wb, attraction, a-b-da, 9, 1, 5, 25, 60, 135, 129, 57, 135, 60, 2, 1.7849
132, 6, wb, attraction, a-b-da, 9, 1, 5, 25, 60, 135, 129, 57, 135, 60, 1, 0.464362
132, 6, wb, attraction, a-b-da, 2, 3, 5, 26, 193, 119, 195, 120, 120, 195, 2, 4.67545
132, 6, wb, attraction, a-b-da, 2, 3, 5, 26, 193, 119, 195, 120, 120, 195, 3, 0.421947
132, 6, wb, attraction, a-b-db, 9, 1, 5, 27, 135, 60, 60, 135, 57, 129, 1, 1.35513
132, 6, wb, attraction, a-b-db, 9, 1, 5, 27, 135, 60, 60, 135, 57, 129, 2, 0.907433
132, 6, wb, attraction, a-b-da, 14, 1, 5, 28, 125, 56, 60, 135, 135, 60, 1, 1.29234
132, 6, wb, attraction, a-b-da, 14, 1, 5, 28, 125, 56, 60, 135, 135, 60, 2, 1.09523
132, 6, wb, attraction, a-b-db, 5, 2, 5, 29, 90, 165, 165, 90, 88, 161, 2, 4.713
132, 6, wb, attraction, a-b-db, 5, 2, 5, 29, 90, 165, 165, 90, 88, 161, 1, 0.529967
132, 6, wb, catch, NA, 999, 999, 5, 30, 150, 105, 126, 69, 191, 124, 2, 0.754522
132, 6, wb, catch, NA, 999, 999, 5, 30, 150, 105, 126, 69, 191, 124, 3, 0.482867
132, 6, wb, attraction, a-b-db, 9, 3, 5, 31, 114, 186, 195, 120, 120, 195, 1, 2.17325
132, 6, wb, attraction, a-b-db, 9, 3, 5, 31, 114, 186, 195, 120, 120, 195, 3, 0.468555
132, 6, wb, filler, NA, 999, 999, 5, 32, 117, 109, 124, 147, 144, 138, 1, 1.01568
132, 6, wb, filler, NA, 999, 999, 5, 32, 117, 109, 124, 147, 144, 138, 3, 0.622048
132, 6, wb, filler, NA, 999, 999, 5, 33, 68, 188, 159, 116, 92, 184, 1, 2.69106
132, 6, wb, filler, NA, 999, 999, 5, 33, 68, 188, 159, 116, 92, 184, 2, 2.11763
132, 6, wb, attraction, a-b-db, 14, 1, 5, 34, 135, 60, 60, 135, 56, 125, 3, 1.83814
132, 6, wb, attraction, a-b-db, 14, 1, 5, 34, 135, 60, 60, 135, 56, 125, 2, 0.531134
132, 6, wb, attraction, a-b-da, 5, 3, 5, 35, 195, 120, 190, 117, 120, 195, 2, 3.30751
132, 6, wb, attraction, a-b-da, 5, 3, 5, 35, 195, 120, 190, 117, 120, 195, 3, 0.317009
132, 6, wb, attraction, a-b-db, 2, 2, 5, 36, 90, 165, 89, 163, 165, 90, 1, 1.20612
132, 6, wb, attraction, a-b-db, 2, 2, 5, 36, 90, 165, 89, 163, 165, 90, 2, 0.820518
132, 6, wb, attraction, a-b-db, 5, 1, 5, 37, 60, 135, 135, 60, 58, 132, 3, 1.30547
132, 6, wb, attraction, a-b-db, 5, 1, 5, 37, 60, 135, 135, 60, 58, 132, 1, 2.07574
132, 6, wb, catch, NA, 999, 999, 6, 1, 164, 91, 187, 128, 117, 78, 3, 0.853653
132, 6, wb, catch, NA, 999, 999, 6, 1, 164, 91, 187, 128, 117, 78, 2, 0.666675
132, 6, wb, attraction, a-b-db, 9, 2, 6, 2, 86, 157, 90, 165, 165, 90, 1, 3.77383
132, 6, wb, attraction, a-b-db, 9, 2, 6, 2, 86, 157, 90, 165, 165, 90, 2, 0.580588
132, 6, wb, attraction, a-b-db, 14, 3, 6, 3, 195, 120, 120, 195, 111, 181, 3, 2.14698
132, 6, wb, attraction, a-b-db, 14, 3, 6, 3, 195, 120, 120, 195, 111, 181, 1, 0.475678
132, 6, wb, filler, NA, 999, 999, 6, 4, 143, 132, 126, 75, 76, 184, 2, 0.614022
132, 6, wb, filler, NA, 999, 999, 6, 4, 143, 132, 126, 75, 76, 184, 1, 0.708475
132, 6, wb, attraction, a-b-db, 2, 2, 6, 5, 90, 165, 89, 163, 165, 90, 3, 1.58968
132, 6, wb, attraction, a-b-db, 2, 2, 6, 5, 90, 165, 89, 163, 165, 90, 2, 0.468358
132, 6, wb, filler, NA, 999, 999, 6, 6, 121, 114, 168, 88, 127, 129, 1, 4.75152
132, 6, wb, filler, NA, 999, 999, 6, 6, 121, 114, 168, 88, 127, 129, 3, 1.18332
132, 6, wb, attraction, a-b-db, 9, 3, 6, 7, 120, 195, 114, 186, 195, 120, 2, 6.2776
132, 6, wb, attraction, a-b-db, 9, 3, 6, 7, 120, 195, 114, 186, 195, 120, 1, 0.391696
132, 6, wb, attraction, a-b-da, 5, 1, 6, 8, 60, 135, 135, 60, 132, 58, 1, 1.54154
132, 6, wb, attraction, a-b-da, 5, 1, 6, 8, 60, 135, 135, 60, 132, 58, 2, 0.950268
132, 6, wb, attraction, a-b-db, 2, 3, 6, 9, 120, 195, 195, 120, 119, 193, 3, 3.50181
132, 6, wb, attraction, a-b-db, 2, 3, 6, 9, 120, 195, 195, 120, 119, 193, 1, 0.696127
132, 6, wb, filler, NA, 999, 999, 6, 10, 175, 119, 103, 163, 83, 117, 3, 0.857862
132, 6, wb, filler, NA, 999, 999, 6, 10, 175, 119, 103, 163, 83, 117, 1, 0.526154
132, 6, wb, filler, NA, 999, 999, 6, 11, 84, 93, 111, 105, 58, 105, 3, 1.75876
132, 6, wb, filler, NA, 999, 999, 6, 11, 84, 93, 111, 105, 58, 105, 2, 0.358854
132, 6, wb, attraction, a-b-da, 2, 3, 6, 12, 195, 120, 193, 119, 120, 195, 2, 1.92597
132, 6, wb, attraction, a-b-da, 2, 3, 6, 12, 195, 120, 193, 119, 120, 195, 1, 0.48723
132, 6, wb, filler, NA, 999, 999, 6, 13, 174, 158, 185, 103, 75, 58, 3, 1.57776
132, 6, wb, filler, NA, 999, 999, 6, 13, 174, 158, 185, 103, 75, 58, 1, 0.529178
132, 6, wb, attraction, a-b-da, 9, 2, 6, 14, 165, 90, 90, 165, 157, 86, 3, 1.46562
132, 6, wb, attraction, a-b-da, 9, 2, 6, 14, 165, 90, 90, 165, 157, 86, 2, 0.48584
132, 6, wb, catch, NA, 999, 999, 6, 15, 161, 94, 93, 102, 181, 134, 2, 0.936225
132, 6, wb, catch, NA, 999, 999, 6, 15, 161, 94, 93, 102, 181, 134, 3, 0.666002
132, 6, wb, catch, NA, 999, 999, 6, 16, 177, 138, 98, 97, 135, 120, 2, 0.94907
132, 6, wb, catch, NA, 999, 999, 6, 16, 177, 138, 98, 97, 135, 120, 1, 0.446043
132, 6, wb, filler, NA, 999, 999, 6, 17, 120, 116, 152, 97, 186, 128, 2, 2.91388
132, 6, wb, filler, NA, 999, 999, 6, 17, 120, 116, 152, 97, 186, 128, 3, 0.539606
132, 6, wb, filler, NA, 999, 999, 6, 18, 165, 105, 84, 144, 189, 137, 2, 1.21142
132, 6, wb, filler, NA, 999, 999, 6, 18, 165, 105, 84, 144, 189, 137, 3, 0.601616
132, 6, wb, attraction, a-b-db, 2, 1, 6, 19, 59, 134, 60, 135, 135, 60, 1, 1.58352
132, 6, wb, attraction, a-b-db, 2, 1, 6, 19, 59, 134, 60, 135, 135, 60, 2, 1.05484
132, 6, wb, attraction, a-b-da, 5, 2, 6, 20, 161, 88, 90, 165, 165, 90, 3, 3.55443
132, 6, wb, attraction, a-b-da, 5, 2, 6, 20, 161, 88, 90, 165, 165, 90, 1, 0.626
132, 6, wb, attraction, a-b-db, 14, 2, 6, 21, 83, 153, 165, 90, 90, 165, 1, 2.87848
132, 6, wb, attraction, a-b-db, 14, 2, 6, 21, 83, 153, 165, 90, 90, 165, 3, 0.577413
132, 6, wb, attraction, a-b-da, 14, 3, 6, 22, 195, 120, 181, 111, 120, 195, 2, 4.67982
132, 6, wb, attraction, a-b-da, 14, 3, 6, 22, 195, 120, 181, 111, 120, 195, 3, 0.450382
132, 6, wb, filler, NA, 999, 999, 6, 23, 117, 80, 76, 129, 185, 69, 1, 1.72639
132, 6, wb, filler, NA, 999, 999, 6, 23, 117, 80, 76, 129, 185, 69, 3, 0.647688
132, 6, wb, attraction, a-b-da, 2, 1, 6, 24, 134, 59, 60, 135, 135, 60, 1, 2.54735
132, 6, wb, attraction, a-b-da, 2, 1, 6, 24, 134, 59, 60, 135, 135, 60, 2, 0.403878
132, 6, wb, filler, NA, 999, 999, 6, 25, 172, 168, 142, 56, 181, 94, 2, 0.833667
132, 6, wb, filler, NA, 999, 999, 6, 25, 172, 168, 142, 56, 181, 94, 1, 0.519407
132, 6, wb, filler, NA, 999, 999, 6, 26, 108, 147, 93, 130, 115, 114, 2, 6.63305
132, 6, wb, filler, NA, 999, 999, 6, 26, 108, 147, 93, 130, 115, 114, 1, 0.628349
132, 6, wb, attraction, a-b-db, 5, 1, 6, 27, 60, 135, 58, 132, 135, 60, 3, 1.27285
132, 6, wb, attraction, a-b-db, 5, 1, 6, 27, 60, 135, 58, 132, 135, 60, 2, 0.924355
132, 6, wb, attraction, a-b-da, 14, 1, 6, 28, 125, 56, 135, 60, 60, 135, 1, 1.37263
132, 6, wb, attraction, a-b-da, 14, 1, 6, 28, 125, 56, 135, 60, 60, 135, 2, 0.404201
132, 6, wb, attraction, a-b-da, 2, 2, 6, 29, 163, 89, 90, 165, 165, 90, 1, 5.16212
132, 6, wb, attraction, a-b-da, 2, 2, 6, 29, 163, 89, 90, 165, 165, 90, 3, 0.417164
132, 6, wb, attraction, a-b-db, 5, 3, 6, 30, 195, 120, 120, 195, 117, 190, 3, 1.37431
132, 6, wb, attraction, a-b-db, 5, 3, 6, 30, 195, 120, 120, 195, 117, 190, 2, 0.349811
132, 6, wb, attraction, a-b-db, 9, 1, 6, 31, 60, 135, 57, 129, 135, 60, 2, 2.24575
132, 6, wb, attraction, a-b-db, 9, 1, 6, 31, 60, 135, 57, 129, 135, 60, 3, 0.490237
132, 6, wb, attraction, a-b-da, 14, 2, 6, 32, 165, 90, 153, 83, 90, 165, 2, 3.99603
132, 6, wb, attraction, a-b-da, 14, 2, 6, 32, 165, 90, 153, 83, 90, 165, 1, 0.474021
132, 6, wb, attraction, a-b-da, 5, 3, 6, 33, 120, 195, 195, 120, 190, 117, 3, 6.46055
132, 6, wb, attraction, a-b-da, 5, 3, 6, 33, 120, 195, 195, 120, 190, 117, 2, 0.351173
132, 6, wb, attraction, a-b-db, 14, 1, 6, 34, 56, 125, 60, 135, 135, 60, 1, 1.15905
132, 6, wb, attraction, a-b-db, 14, 1, 6, 34, 56, 125, 60, 135, 135, 60, 2, 0.543224
132, 6, wb, attraction, a-b-db, 5, 2, 6, 35, 90, 165, 88, 161, 165, 90, 1, 3.44695
132, 6, wb, attraction, a-b-db, 5, 2, 6, 35, 90, 165, 88, 161, 165, 90, 2, 0.427271
132, 6, wb, attraction, a-b-da, 9, 1, 6, 36, 129, 57, 135, 60, 60, 135, 1, 1.53576
132, 6, wb, attraction, a-b-da, 9, 1, 6, 36, 129, 57, 135, 60, 60, 135, 2, 0.417189
132, 6, wb, attraction, a-b-da, 9, 3, 6, 37, 186, 114, 195, 120, 120, 195, 1, 1.87043
132, 6, wb, attraction, a-b-da, 9, 3, 6, 37, 186, 114, 195, 120, 120, 195, 2, 0.377715
132, 6, wb, attraction, a-b-da, 14, 3, 7, 1, 120, 195, 181, 111, 195, 120, 2, 2.04021
132, 6, wb, attraction, a-b-da, 14, 3, 7, 1, 120, 195, 181, 111, 195, 120, 1, 0.316815
132, 6, wb, attraction, a-b-db, 5, 2, 7, 2, 90, 165, 165, 90, 88, 161, 2, 3.03812
132, 6, wb, attraction, a-b-db, 5, 2, 7, 2, 90, 165, 165, 90, 88, 161, 1, 0.626538
132, 6, wb, filler, NA, 999, 999, 7, 3, 111, 97, 59, 164, 184, 67, 2, 2.3988
132, 6, wb, filler, NA, 999, 999, 7, 3, 111, 97, 59, 164, 184, 67, 3, 0.573427
132, 6, wb, catch, NA, 999, 999, 7, 4, 156, 99, 162, 153, 132, 63, 3, 0.939949
132, 6, wb, catch, NA, 999, 999, 7, 4, 156, 99, 162, 153, 132, 63, 2, 0.356953
132, 6, wb, attraction, a-b-db, 5, 3, 7, 5, 195, 120, 120, 195, 117, 190, 1, 5.164
132, 6, wb, attraction, a-b-db, 5, 3, 7, 5, 195, 120, 120, 195, 117, 190, 2, 0.531053
132, 6, wb, filler, NA, 999, 999, 7, 6, 176, 156, 173, 56, 98, 117, 2, 2.28354
132, 6, wb, filler, NA, 999, 999, 7, 6, 176, 156, 173, 56, 98, 117, 1, 0.542772
132, 6, wb, attraction, a-b-db, 9, 1, 7, 7, 57, 129, 60, 135, 135, 60, 3, 2.89451
132, 6, wb, attraction, a-b-db, 9, 1, 7, 7, 57, 129, 60, 135, 135, 60, 2, 0.59292
132, 6, wb, attraction, a-b-da, 2, 3, 7, 8, 195, 120, 193, 119, 120, 195, 2, 1.7827
132, 6, wb, attraction, a-b-da, 2, 3, 7, 8, 195, 120, 193, 119, 120, 195, 3, 0.550096
132, 6, wb, attraction, a-b-db, 14, 2, 7, 9, 90, 165, 165, 90, 83, 153, 3, 2.99784
132, 6, wb, attraction, a-b-db, 14, 2, 7, 9, 90, 165, 165, 90, 83, 153, 2, 0.636262
132, 6, wb, filler, NA, 999, 999, 7, 10, 64, 148, 100, 94, 76, 150, 1, 1.93659
132, 6, wb, filler, NA, 999, 999, 7, 10, 64, 148, 100, 94, 76, 150, 3, 1.66599
132, 6, wb, attraction, a-b-db, 5, 1, 7, 11, 60, 135, 135, 60, 58, 132, 3, 2.34089
132, 6, wb, attraction, a-b-db, 5, 1, 7, 11, 60, 135, 135, 60, 58, 132, 1, 0.597353
132, 6, wb, attraction, a-b-da, 2, 1, 7, 12, 135, 60, 60, 135, 134, 59, 1, 2.80301
132, 6, wb, attraction, a-b-da, 2, 1, 7, 12, 135, 60, 60, 135, 134, 59, 2, 0.521529
132, 6, wb, attraction, a-b-db, 2, 1, 7, 13, 59, 134, 135, 60, 60, 135, 3, 2.56269
132, 6, wb, attraction, a-b-db, 2, 1, 7, 13, 59, 134, 135, 60, 60, 135, 2, 0.402456
132, 6, wb, attraction, a-b-da, 5, 3, 7, 14, 190, 117, 195, 120, 120, 195, 1, 2.89634
132, 6, wb, attraction, a-b-da, 5, 3, 7, 14, 190, 117, 195, 120, 120, 195, 3, 0.562728
132, 6, wb, filler, NA, 999, 999, 7, 15, 192, 114, 138, 89, 187, 82, 2, 2.15379
132, 6, wb, filler, NA, 999, 999, 7, 15, 192, 114, 138, 89, 187, 82, 1, 0.386413
132, 6, wb, attraction, a-b-da, 9, 1, 7, 16, 129, 57, 60, 135, 135, 60, 1, 2.24103
132, 6, wb, attraction, a-b-da, 9, 1, 7, 16, 129, 57, 60, 135, 135, 60, 3, 1.14964
132, 6, wb, filler, NA, 999, 999, 7, 17, 117, 120, 129, 140, 173, 129, 1, 1.35709
132, 6, wb, filler, NA, 999, 999, 7, 17, 117, 120, 129, 140, 173, 129, 3, 1.24545
132, 6, wb, filler, NA, 999, 999, 7, 18, 179, 148, 115, 125, 187, 110, 2, 2.32088
132, 6, wb, filler, NA, 999, 999, 7, 18, 179, 148, 115, 125, 187, 110, 1, 0.466858
132, 6, wb, filler, NA, 999, 999, 7, 19, 142, 170, 195, 105, 68, 160, 3, 0.733842
132, 6, wb, filler, NA, 999, 999, 7, 19, 142, 170, 195, 105, 68, 160, 1, 0.751665
132, 6, wb, attraction, a-b-da, 9, 3, 7, 20, 186, 114, 195, 120, 120, 195, 1, 1.72732
132, 6, wb, attraction, a-b-da, 9, 3, 7, 20, 186, 114, 195, 120, 120, 195, 2, 1.01676
132, 6, wb, attraction, a-b-db, 9, 3, 7, 21, 195, 120, 114, 186, 120, 195, 2, 3.58975
132, 6, wb, attraction, a-b-db, 9, 3, 7, 21, 195, 120, 114, 186, 120, 195, 1, 0.755931
132, 6, wb, attraction, a-b-da, 2, 2, 7, 22, 90, 165, 165, 90, 163, 89, 1, 2.05091
132, 6, wb, attraction, a-b-da, 2, 2, 7, 22, 90, 165, 165, 90, 163, 89, 2, 0.991724
132, 6, wb, attraction, a-b-da, 14, 1, 7, 23, 60, 135, 125, 56, 135, 60, 2, 1.67731
132, 6, wb, attraction, a-b-da, 14, 1, 7, 23, 60, 135, 125, 56, 135, 60, 1, 1.28068
132, 6, wb, attraction, a-b-db, 2, 2, 7, 24, 165, 90, 90, 165, 89, 163, 3, 1.85899
132, 6, wb, attraction, a-b-db, 2, 2, 7, 24, 165, 90, 90, 165, 89, 163, 2, 1.13494
132, 6, wb, filler, NA, 999, 999, 7, 25, 112, 163, 131, 105, 170, 129, 2, 1.51932
132, 6, wb, filler, NA, 999, 999, 7, 25, 112, 163, 131, 105, 170, 129, 3, 0.417487
132, 6, wb, attraction, a-b-db, 9, 2, 7, 26, 86, 157, 90, 165, 165, 90, 1, 0.974649
132, 6, wb, attraction, a-b-db, 9, 2, 7, 26, 86, 157, 90, 165, 165, 90, 2, 0.590254
132, 6, wb, attraction, a-b-da, 14, 2, 7, 27, 165, 90, 90, 165, 153, 83, 3, 3.23442
132, 6, wb, attraction, a-b-da, 14, 2, 7, 27, 165, 90, 90, 165, 153, 83, 2, 0.560899
132, 6, wb, attraction, a-b-da, 9, 2, 7, 28, 90, 165, 165, 90, 157, 86, 2, 2.11213
132, 6, wb, attraction, a-b-da, 9, 2, 7, 28, 90, 165, 165, 90, 157, 86, 1, 0.546053
132, 6, wb, catch, NA, 999, 999, 7, 29, 109, 146, 167, 148, 107, 88, 3, 0.777755
132, 6, wb, catch, NA, 999, 999, 7, 29, 109, 146, 167, 148, 107, 88, 2, 0.369505
132, 6, wb, attraction, a-b-db, 14, 1, 7, 30, 135, 60, 56, 125, 60, 135, 2, 1.3047
132, 6, wb, attraction, a-b-db, 14, 1, 7, 30, 135, 60, 56, 125, 60, 135, 1, 0.546903
132, 6, wb, attraction, a-b-db, 14, 3, 7, 31, 195, 120, 120, 195, 111, 181, 3, 0.866674
132, 6, wb, attraction, a-b-db, 14, 3, 7, 31, 195, 120, 120, 195, 111, 181, 2, 0.383068
132, 6, wb, filler, NA, 999, 999, 7, 32, 157, 58, 170, 75, 151, 193, 1, 0.925601
132, 6, wb, filler, NA, 999, 999, 7, 32, 157, 58, 170, 75, 151, 193, 3, 0.503227
132, 6, wb, attraction, a-b-db, 2, 3, 7, 33, 120, 195, 119, 193, 195, 120, 1, 1.87311
132, 6, wb, attraction, a-b-db, 2, 3, 7, 33, 120, 195, 119, 193, 195, 120, 2, 0.524538
132, 6, wb, attraction, a-b-da, 5, 1, 7, 34, 60, 135, 132, 58, 135, 60, 1, 1.30075
132, 6, wb, attraction, a-b-da, 5, 1, 7, 34, 60, 135, 132, 58, 135, 60, 2, 0.415775
132, 6, wb, filler, NA, 999, 999, 7, 35, 115, 96, 95, 79, 172, 85, 2, 1.1648
132, 6, wb, filler, NA, 999, 999, 7, 35, 115, 96, 95, 79, 172, 85, 3, 1.26126
132, 6, wb, attraction, a-b-da, 5, 2, 7, 36, 161, 88, 90, 165, 165, 90, 1, 0.935994
132, 6, wb, attraction, a-b-da, 5, 2, 7, 36, 161, 88, 90, 165, 165, 90, 2, 2.50588
132, 6, wb, catch, NA, 999, 999, 7, 37, 139, 116, 92, 103, 124, 191, 2, 0.955073
132, 6, wb, catch, NA, 999, 999, 7, 37, 139, 116, 92, 103, 124, 191, 3, 0.531333
132, 6, wb, attraction, a-b-db, 5, 3, 8, 1, 195, 120, 120, 195, 117, 190, 3, 1.79567
132, 6, wb, attraction, a-b-db, 5, 3, 8, 1, 195, 120, 120, 195, 117, 190, 2, 0.410513
132, 6, wb, filler, NA, 999, 999, 8, 2, 75, 85, 117, 194, 151, 67, 1, 1.4316
132, 6, wb, filler, NA, 999, 999, 8, 2, 75, 85, 117, 194, 151, 67, 2, 0.581072
132, 6, wb, filler, NA, 999, 999, 8, 3, 174, 94, 62, 126, 126, 83, 2, 1.61964
132, 6, wb, filler, NA, 999, 999, 8, 3, 174, 94, 62, 126, 126, 83, 1, 0.361603
132, 6, wb, attraction, a-b-da, 14, 3, 8, 4, 181, 111, 195, 120, 120, 195, 1, 1.75276
132, 6, wb, attraction, a-b-da, 14, 3, 8, 4, 181, 111, 195, 120, 120, 195, 3, 0.56957
132, 6, wb, filler, NA, 999, 999, 8, 5, 132, 92, 62, 57, 159, 107, 2, 0.856697
132, 6, wb, filler, NA, 999, 999, 8, 5, 132, 92, 62, 57, 159, 107, 3, 0.781035
132, 6, wb, catch, NA, 999, 999, 8, 6, 101, 154, 131, 184, 96, 99, 3, 1.3634
132, 6, wb, catch, NA, 999, 999, 8, 6, 101, 154, 131, 184, 96, 99, 2, 0.395626
132, 6, wb, attraction, a-b-da, 9, 3, 8, 7, 186, 114, 120, 195, 195, 120, 1, 1.61743
132, 6, wb, attraction, a-b-da, 9, 3, 8, 7, 186, 114, 120, 195, 195, 120, 2, 0.455642
132, 6, wb, attraction, a-b-da, 14, 2, 8, 8, 90, 165, 153, 83, 165, 90, 2, 1.05136
132, 6, wb, attraction, a-b-da, 14, 2, 8, 8, 90, 165, 153, 83, 165, 90, 1, 0.480353
132, 6, wb, attraction, a-b-da, 9, 1, 8, 9, 129, 57, 60, 135, 135, 60, 1, 0.898863
132, 6, wb, attraction, a-b-da, 9, 1, 8, 9, 129, 57, 60, 135, 135, 60, 2, 0.39792
132, 6, wb, attraction, a-b-da, 5, 2, 8, 10, 165, 90, 161, 88, 90, 165, 2, 1.5076
132, 6, wb, attraction, a-b-da, 5, 2, 8, 10, 165, 90, 161, 88, 90, 165, 1, 0.341918
132, 6, wb, attraction, a-b-db, 14, 1, 8, 11, 60, 135, 135, 60, 56, 125, 2, 0.661665
132, 6, wb, attraction, a-b-db, 14, 1, 8, 11, 60, 135, 135, 60, 56, 125, 1, 0.522093
132, 6, wb, attraction, a-b-db, 5, 1, 8, 12, 135, 60, 58, 132, 60, 135, 2, 2.1632
132, 6, wb, attraction, a-b-db, 5, 1, 8, 12, 135, 60, 58, 132, 60, 135, 3, 0.739154
132, 6, wb, attraction, a-b-da, 2, 3, 8, 13, 195, 120, 120, 195, 193, 119, 3, 3.96358
132, 6, wb, attraction, a-b-da, 2, 3, 8, 13, 195, 120, 120, 195, 193, 119, 1, 0.602996
132, 6, wb, attraction, a-b-da, 5, 3, 8, 14, 120, 195, 195, 120, 190, 117, 1, 9.46473
132, 6, wb, attraction, a-b-da, 5, 3, 8, 14, 120, 195, 195, 120, 190, 117, 2, 2.53051
132, 6, wb, catch, NA, 999, 999, 8, 15, 113, 142, 176, 139, 121, 74, 3, 0.802144
132, 6, wb, catch, NA, 999, 999, 8, 15, 113, 142, 176, 139, 121, 74, 2, 0.401248
132, 6, wb, filler, NA, 999, 999, 8, 16, 110, 76, 174, 79, 61, 194, 1, 1.19097
132, 6, wb, filler, NA, 999, 999, 8, 16, 110, 76, 174, 79, 61, 194, 2, 0.694114
132, 6, wb, attraction, a-b-da, 2, 2, 8, 17, 165, 90, 163, 89, 90, 165, 2, 1.27169
132, 6, wb, attraction, a-b-da, 2, 2, 8, 17, 165, 90, 163, 89, 90, 165, 1, 0.467291
132, 6, wb, filler, NA, 999, 999, 8, 18, 150, 70, 68, 193, 146, 56, 3, 1.07053
132, 6, wb, filler, NA, 999, 999, 8, 18, 150, 70, 68, 193, 146, 56, 2, 0.466101
132, 6, wb, filler, NA, 999, 999, 8, 19, 72, 80, 109, 57, 103, 176, 1, 1.19731
132, 6, wb, filler, NA, 999, 999, 8, 19, 72, 80, 109, 57, 103, 176, 3, 0.428058
132, 6, wb, attraction, a-b-da, 9, 2, 8, 20, 165, 90, 90, 165, 157, 86, 3, 3.10462
132, 6, wb, attraction, a-b-da, 9, 2, 8, 20, 165, 90, 90, 165, 157, 86, 2, 0.394272
132, 6, wb, attraction, a-b-db, 2, 2, 8, 21, 165, 90, 89, 163, 90, 165, 3, 1.27204
132, 6, wb, attraction, a-b-db, 2, 2, 8, 21, 165, 90, 89, 163, 90, 165, 2, 0.61168
132, 6, wb, attraction, a-b-db, 14, 2, 8, 22, 83, 153, 165, 90, 90, 165, 1, 1.8728
132, 6, wb, attraction, a-b-db, 14, 2, 8, 22, 83, 153, 165, 90, 90, 165, 2, 0.660179
132, 6, wb, attraction, a-b-da, 2, 1, 8, 23, 135, 60, 134, 59, 60, 135, 2, 2.40722
132, 6, wb, attraction, a-b-da, 2, 1, 8, 23, 135, 60, 134, 59, 60, 135, 1, 0.669163
132, 6, wb, filler, NA, 999, 999, 8, 24, 118, 182, 70, 182, 131, 106, 2, 1.76816
132, 6, wb, filler, NA, 999, 999, 8, 24, 118, 182, 70, 182, 131, 106, 1, 0.368246
132, 6, wb, filler, NA, 999, 999, 8, 25, 73, 166, 68, 124, 167, 81, 2, 1.15137
132, 6, wb, filler, NA, 999, 999, 8, 25, 73, 166, 68, 124, 167, 81, 3, 1.12046
132, 6, wb, attraction, a-b-db, 2, 3, 8, 26, 195, 120, 119, 193, 120, 195, 3, 2.32119
132, 6, wb, attraction, a-b-db, 2, 3, 8, 26, 195, 120, 119, 193, 120, 195, 2, 0.882499
132, 6, wb, attraction, a-b-db, 2, 1, 8, 27, 60, 135, 135, 60, 59, 134, 3, 1.43681
132, 6, wb, attraction, a-b-db, 2, 1, 8, 27, 60, 135, 135, 60, 59, 134, 1, 0.618423
132, 6, wb, catch, NA, 999, 999, 8, 28, 133, 62, 160, 95, 131, 184, 1, 0.919404
132, 6, wb, catch, NA, 999, 999, 8, 28, 133, 62, 160, 95, 131, 184, 3, 0.385905
132, 6, wb, filler, NA, 999, 999, 8, 29, 77, 125, 177, 91, 132, 173, 1, 1.36033
132, 6, wb, filler, NA, 999, 999, 8, 29, 77, 125, 177, 91, 132, 173, 3, 0.456458
132, 6, wb, attraction, a-b-db, 14, 3, 8, 30, 195, 120, 111, 181, 120, 195, 2, 3.4117
132, 6, wb, attraction, a-b-db, 14, 3, 8, 30, 195, 120, 111, 181, 120, 195, 1, 0.969339
132, 6, wb, attraction, a-b-db, 9, 3, 8, 31, 120, 195, 195, 120, 114, 186, 2, 1.47214
132, 6, wb, attraction, a-b-db, 9, 3, 8, 31, 120, 195, 195, 120, 114, 186, 1, 0.507756
132, 6, wb, attraction, a-b-da, 5, 1, 8, 32, 60, 135, 132, 58, 135, 60, 2, 1.91686
132, 6, wb, attraction, a-b-da, 5, 1, 8, 32, 60, 135, 132, 58, 135, 60, 1, 0.374825
132, 6, wb, attraction, a-b-da, 14, 1, 8, 33, 125, 56, 60, 135, 135, 60, 1, 1.67731
132, 6, wb, attraction, a-b-da, 14, 1, 8, 33, 125, 56, 60, 135, 135, 60, 2, 0.5368
132, 6, wb, filler, NA, 999, 999, 8, 34, 66, 171, 143, 152, 86, 68, 3, 0.953209
132, 6, wb, filler, NA, 999, 999, 8, 34, 66, 171, 143, 152, 86, 68, 2, 0.378227
132, 6, wb, attraction, a-b-db, 9, 1, 8, 35, 57, 129, 135, 60, 60, 135, 1, 1.84074
132, 6, wb, attraction, a-b-db, 9, 1, 8, 35, 57, 129, 135, 60, 60, 135, 2, 0.501598
132, 6, wb, attraction, a-b-db, 9, 2, 8, 36, 86, 157, 90, 165, 165, 90, 1, 2.20726
132, 6, wb, attraction, a-b-db, 9, 2, 8, 36, 86, 157, 90, 165, 165, 90, 2, 0.56524
132, 6, wb, attraction, a-b-db, 5, 2, 8, 37, 165, 90, 90, 165, 88, 161, 3, 3.00432
132, 6, wb, attraction, a-b-db, 5, 2, 8, 37, 165, 90, 90, 165, 88, 161, 1, 1.01003
