sub_n, computer_n, bw_cond, effect, set, distance, diag, block_n, trial_n, h1, w1, h2, w2, h3, w3, choice, rt 
13, 6, bw, practice, NA, 999, 999, 0, 1, 166, 77, 132, 140, 65, 92, 2, 4.46097
13, 6, bw, practice, NA, 999, 999, 0, 1, 166, 77, 132, 140, 65, 92, 3, 2.29513
13, 6, bw, practice, NA, 999, 999, 0, 2, 96, 94, 151, 114, 123, 131, 3, 8.74334
13, 6, bw, practice, NA, 999, 999, 0, 2, 96, 94, 151, 114, 123, 131, 1, 1.48552
13, 6, bw, practice, NA, 999, 999, 0, 3, 79, 159, 72, 186, 149, 168, 3, 3.58025
13, 6, bw, practice, NA, 999, 999, 0, 3, 79, 159, 72, 186, 149, 168, 1, 1.74083
13, 6, bw, filler, NA, 999, 999, 1, 1, 152, 92, 187, 175, 85, 185, 2, 3.32091
13, 6, bw, filler, NA, 999, 999, 1, 1, 152, 92, 187, 175, 85, 185, 1, 1.67499
13, 6, bw, filler, NA, 999, 999, 1, 2, 108, 153, 59, 145, 187, 85, 1, 2.6612
13, 6, bw, filler, NA, 999, 999, 1, 2, 108, 153, 59, 145, 187, 85, 2, 1.5599
13, 6, bw, catch, NA, 999, 999, 1, 3, 123, 132, 152, 163, 83, 112, 2, 2.28082
13, 6, bw, catch, NA, 999, 999, 1, 3, 123, 132, 152, 163, 83, 112, 3, 2.46059
13, 6, bw, attraction, a-b-db, 9, 3, 1, 4, 195, 120, 120, 195, 114, 186, 2, 6.86267
13, 6, bw, attraction, a-b-db, 9, 3, 1, 4, 195, 120, 120, 195, 114, 186, 3, 1.42457
13, 6, bw, attraction, a-b-db, 14, 3, 1, 5, 111, 181, 195, 120, 120, 195, 3, 10.5773
13, 6, bw, attraction, a-b-db, 14, 3, 1, 5, 111, 181, 195, 120, 120, 195, 1, 1.51448
13, 6, bw, filler, NA, 999, 999, 1, 6, 190, 92, 160, 155, 126, 91, 2, 2.82907
13, 6, bw, filler, NA, 999, 999, 1, 6, 190, 92, 160, 155, 126, 91, 3, 1.20917
13, 6, bw, filler, NA, 999, 999, 1, 7, 129, 104, 138, 67, 175, 82, 3, 3.23237
13, 6, bw, filler, NA, 999, 999, 1, 7, 129, 104, 138, 67, 175, 82, 2, 1.64555
13, 6, bw, attraction, a-b-da, 9, 3, 1, 8, 120, 195, 186, 114, 195, 120, 1, 11.8021
13, 6, bw, attraction, a-b-da, 9, 3, 1, 8, 120, 195, 186, 114, 195, 120, 2, 2.38057
13, 6, bw, attraction, a-b-db, 14, 1, 1, 9, 60, 135, 56, 125, 135, 60, 3, 4.80559
13, 6, bw, attraction, a-b-db, 14, 1, 1, 9, 60, 135, 56, 125, 135, 60, 2, 2.63247
13, 6, bw, attraction, a-b-da, 9, 2, 1, 10, 90, 165, 165, 90, 157, 86, 1, 9.50851
13, 6, bw, attraction, a-b-da, 9, 2, 1, 10, 90, 165, 165, 90, 157, 86, 2, 5.05163
13, 6, bw, filler, NA, 999, 999, 1, 11, 136, 81, 99, 147, 150, 103, 3, 4.68718
13, 6, bw, filler, NA, 999, 999, 1, 11, 136, 81, 99, 147, 150, 103, 1, 1.46706
13, 6, bw, attraction, a-b-db, 2, 3, 1, 12, 195, 120, 120, 195, 119, 193, 2, 8.24464
13, 6, bw, attraction, a-b-db, 2, 3, 1, 12, 195, 120, 120, 195, 119, 193, 1, 1.19122
13, 6, bw, attraction, a-b-db, 5, 2, 1, 13, 90, 165, 165, 90, 88, 161, 1, 12.99
13, 6, bw, attraction, a-b-db, 5, 2, 1, 13, 90, 165, 165, 90, 88, 161, 2, 1.25772
13, 6, bw, attraction, a-b-da, 2, 1, 1, 14, 134, 59, 135, 60, 60, 135, 3, 5.47825
13, 6, bw, attraction, a-b-da, 2, 1, 1, 14, 134, 59, 135, 60, 60, 135, 1, 1.68806
13, 6, bw, attraction, a-b-da, 2, 2, 1, 15, 165, 90, 90, 165, 163, 89, 2, 6.40291
13, 6, bw, attraction, a-b-da, 2, 2, 1, 15, 165, 90, 90, 165, 163, 89, 3, 0.976687
13, 6, bw, attraction, a-b-da, 2, 3, 1, 16, 195, 120, 120, 195, 193, 119, 2, 12.1109
13, 6, bw, attraction, a-b-da, 2, 3, 1, 16, 195, 120, 120, 195, 193, 119, 1, 0.870363
13, 6, bw, attraction, a-b-da, 5, 2, 1, 17, 165, 90, 90, 165, 161, 88, 2, 7.64296
13, 6, bw, attraction, a-b-da, 5, 2, 1, 17, 165, 90, 90, 165, 161, 88, 3, 1.03764
13, 6, bw, attraction, a-b-db, 2, 2, 1, 18, 165, 90, 89, 163, 90, 165, 2, 8.33555
13, 6, bw, attraction, a-b-db, 2, 2, 1, 18, 165, 90, 89, 163, 90, 165, 1, 0.985847
13, 6, bw, filler, NA, 999, 999, 1, 19, 65, 70, 122, 179, 130, 87, 2, 2.81635
13, 6, bw, filler, NA, 999, 999, 1, 19, 65, 70, 122, 179, 130, 87, 1, 1.08307
13, 6, bw, attraction, a-b-db, 5, 1, 1, 20, 135, 60, 60, 135, 58, 132, 1, 4.26207
13, 6, bw, attraction, a-b-db, 5, 1, 1, 20, 135, 60, 60, 135, 58, 132, 3, 1.39631
13, 6, bw, attraction, a-b-da, 14, 2, 1, 21, 165, 90, 153, 83, 90, 165, 1, 8.41591
13, 6, bw, attraction, a-b-da, 14, 2, 1, 21, 165, 90, 153, 83, 90, 165, 2, 2.19456
13, 6, bw, attraction, a-b-da, 5, 1, 1, 22, 60, 135, 132, 58, 135, 60, 3, 5.53878
13, 6, bw, attraction, a-b-da, 5, 1, 1, 22, 60, 135, 132, 58, 135, 60, 1, 2.38525
13, 6, bw, filler, NA, 999, 999, 1, 23, 60, 87, 129, 177, 155, 104, 2, 2.41671
13, 6, bw, filler, NA, 999, 999, 1, 23, 60, 87, 129, 177, 155, 104, 1, 0.980962
13, 6, bw, attraction, a-b-da, 5, 3, 1, 24, 190, 117, 120, 195, 195, 120, 2, 7.80643
13, 6, bw, attraction, a-b-da, 5, 3, 1, 24, 190, 117, 120, 195, 195, 120, 1, 1.72787
13, 6, bw, attraction, a-b-db, 14, 2, 1, 25, 90, 165, 165, 90, 83, 153, 1, 13.0518
13, 6, bw, attraction, a-b-db, 14, 2, 1, 25, 90, 165, 165, 90, 83, 153, 2, 1.07495
13, 6, bw, attraction, a-b-db, 9, 1, 1, 26, 57, 129, 60, 135, 135, 60, 3, 15.3024
13, 6, bw, attraction, a-b-db, 9, 1, 1, 26, 57, 129, 60, 135, 135, 60, 2, 0.815015
13, 6, bw, filler, NA, 999, 999, 1, 27, 58, 64, 160, 89, 154, 97, 3, 2.78492
13, 6, bw, filler, NA, 999, 999, 1, 27, 58, 64, 160, 89, 154, 97, 1, 1.28767
13, 6, bw, attraction, a-b-db, 9, 2, 1, 28, 90, 165, 86, 157, 165, 90, 3, 3.21096
13, 6, bw, attraction, a-b-db, 9, 2, 1, 28, 90, 165, 86, 157, 165, 90, 1, 2.13636
13, 6, bw, catch, NA, 999, 999, 1, 29, 139, 116, 159, 156, 131, 64, 2, 2.25631
13, 6, bw, catch, NA, 999, 999, 1, 29, 139, 116, 159, 156, 131, 64, 3, 1.18302
13, 6, bw, catch, NA, 999, 999, 1, 30, 162, 153, 118, 77, 146, 109, 1, 2.12403
13, 6, bw, catch, NA, 999, 999, 1, 30, 162, 153, 118, 77, 146, 109, 2, 0.821511
13, 6, bw, attraction, a-b-da, 14, 1, 1, 31, 125, 56, 60, 135, 135, 60, 3, 3.95591
13, 6, bw, attraction, a-b-da, 14, 1, 1, 31, 125, 56, 60, 135, 135, 60, 1, 1.42833
13, 6, bw, filler, NA, 999, 999, 1, 32, 69, 108, 127, 97, 159, 108, 3, 2.49507
13, 6, bw, filler, NA, 999, 999, 1, 32, 69, 108, 127, 97, 159, 108, 1, 1.00986
13, 6, bw, attraction, a-b-db, 5, 3, 1, 33, 117, 190, 195, 120, 120, 195, 3, 5.2537
13, 6, bw, attraction, a-b-db, 5, 3, 1, 33, 117, 190, 195, 120, 120, 195, 1, 1.17933
13, 6, bw, attraction, a-b-db, 2, 1, 1, 34, 59, 134, 60, 135, 135, 60, 3, 5.84969
13, 6, bw, attraction, a-b-db, 2, 1, 1, 34, 59, 134, 60, 135, 135, 60, 1, 1.18162
13, 6, bw, filler, NA, 999, 999, 1, 35, 64, 71, 179, 115, 70, 134, 2, 1.61934
13, 6, bw, filler, NA, 999, 999, 1, 35, 64, 71, 179, 115, 70, 134, 1, 1.8188
13, 6, bw, attraction, a-b-da, 14, 3, 1, 36, 181, 111, 120, 195, 195, 120, 2, 4.18301
13, 6, bw, attraction, a-b-da, 14, 3, 1, 36, 181, 111, 120, 195, 195, 120, 1, 0.80635
13, 6, bw, attraction, a-b-da, 9, 1, 1, 37, 129, 57, 135, 60, 60, 135, 3, 10.3535
13, 6, bw, attraction, a-b-da, 9, 1, 1, 37, 129, 57, 135, 60, 60, 135, 1, 2.73036
13, 6, bw, attraction, a-b-db, 14, 3, 2, 1, 195, 120, 120, 195, 111, 181, 2, 6.60196
13, 6, bw, attraction, a-b-db, 14, 3, 2, 1, 195, 120, 120, 195, 111, 181, 3, 1.32018
13, 6, bw, attraction, a-b-da, 14, 1, 2, 2, 135, 60, 125, 56, 60, 135, 3, 4.40834
13, 6, bw, attraction, a-b-da, 14, 1, 2, 2, 135, 60, 125, 56, 60, 135, 2, 1.74337
13, 6, bw, filler, NA, 999, 999, 2, 3, 181, 164, 123, 150, 110, 122, 1, 2.09238
13, 6, bw, filler, NA, 999, 999, 2, 3, 181, 164, 123, 150, 110, 122, 3, 0.761801
13, 6, bw, filler, NA, 999, 999, 2, 4, 170, 142, 175, 148, 67, 190, 2, 6.47982
13, 6, bw, filler, NA, 999, 999, 2, 4, 170, 142, 175, 148, 67, 190, 3, 1.01115
13, 6, bw, filler, NA, 999, 999, 2, 5, 182, 183, 118, 164, 150, 119, 1, 4.25804
13, 6, bw, filler, NA, 999, 999, 2, 5, 182, 183, 118, 164, 150, 119, 3, 0.891423
13, 6, bw, catch, NA, 999, 999, 2, 6, 80, 115, 103, 152, 180, 135, 3, 1.90987
13, 6, bw, catch, NA, 999, 999, 2, 6, 80, 115, 103, 152, 180, 135, 1, 0.822709
13, 6, bw, attraction, a-b-db, 14, 2, 2, 7, 165, 90, 90, 165, 83, 153, 2, 4.80396
13, 6, bw, attraction, a-b-db, 14, 2, 2, 7, 165, 90, 90, 165, 83, 153, 3, 0.76284
13, 6, bw, filler, NA, 999, 999, 2, 8, 150, 160, 91, 65, 148, 152, 1, 6.68364
13, 6, bw, filler, NA, 999, 999, 2, 8, 150, 160, 91, 65, 148, 152, 2, 0.877384
13, 6, bw, attraction, a-b-da, 9, 2, 2, 9, 165, 90, 157, 86, 90, 165, 3, 7.03981
13, 6, bw, attraction, a-b-da, 9, 2, 2, 9, 165, 90, 157, 86, 90, 165, 2, 1.40205
13, 6, bw, attraction, a-b-da, 2, 2, 2, 10, 165, 90, 163, 89, 90, 165, 3, 5.38589
13, 6, bw, attraction, a-b-da, 2, 2, 2, 10, 165, 90, 163, 89, 90, 165, 2, 1.22444
13, 6, bw, attraction, a-b-db, 14, 1, 2, 11, 60, 135, 56, 125, 135, 60, 3, 6.40318
13, 6, bw, attraction, a-b-db, 14, 1, 2, 11, 60, 135, 56, 125, 135, 60, 2, 0.771729
13, 6, bw, filler, NA, 999, 999, 2, 12, 145, 93, 74, 159, 138, 164, 3, 4.02531
13, 6, bw, filler, NA, 999, 999, 2, 12, 145, 93, 74, 159, 138, 164, 1, 3.19724
13, 6, bw, attraction, a-b-db, 9, 3, 2, 13, 114, 186, 120, 195, 195, 120, 3, 4.68563
13, 6, bw, attraction, a-b-db, 9, 3, 2, 13, 114, 186, 120, 195, 195, 120, 1, 1.72448
13, 6, bw, attraction, a-b-db, 5, 3, 2, 14, 195, 120, 117, 190, 120, 195, 1, 14.3906
13, 6, bw, attraction, a-b-db, 5, 3, 2, 14, 195, 120, 117, 190, 120, 195, 2, 1.50594
13, 6, bw, filler, NA, 999, 999, 2, 15, 193, 178, 91, 160, 139, 176, 1, 29.4442
13, 6, bw, filler, NA, 999, 999, 2, 15, 193, 178, 91, 160, 139, 176, 2, 1.07287
13, 6, bw, attraction, a-b-da, 5, 2, 2, 16, 90, 165, 165, 90, 161, 88, 1, 9.6767
13, 6, bw, attraction, a-b-da, 5, 2, 2, 16, 90, 165, 165, 90, 161, 88, 3, 1.87123
13, 6, bw, filler, NA, 999, 999, 2, 17, 123, 127, 170, 172, 125, 106, 2, 1.4394
13, 6, bw, filler, NA, 999, 999, 2, 17, 123, 127, 170, 172, 125, 106, 3, 0.836727
13, 6, bw, attraction, a-b-db, 5, 1, 2, 18, 58, 132, 60, 135, 135, 60, 3, 6.19479
13, 6, bw, attraction, a-b-db, 5, 1, 2, 18, 58, 132, 60, 135, 135, 60, 2, 0.791165
13, 6, bw, attraction, a-b-da, 2, 3, 2, 19, 120, 195, 193, 119, 195, 120, 3, 3.90098
13, 6, bw, attraction, a-b-da, 2, 3, 2, 19, 120, 195, 193, 119, 195, 120, 1, 0.721302
13, 6, bw, catch, NA, 999, 999, 2, 20, 179, 136, 67, 128, 134, 121, 1, 1.85665
13, 6, bw, catch, NA, 999, 999, 2, 20, 179, 136, 67, 128, 134, 121, 2, 0.701001
13, 6, bw, attraction, a-b-da, 14, 3, 2, 21, 181, 111, 195, 120, 120, 195, 3, 1.98418
13, 6, bw, attraction, a-b-da, 14, 3, 2, 21, 181, 111, 195, 120, 120, 195, 2, 0.543513
13, 6, bw, attraction, a-b-da, 9, 1, 2, 22, 129, 57, 60, 135, 135, 60, 3, 4.01745
13, 6, bw, attraction, a-b-da, 9, 1, 2, 22, 129, 57, 60, 135, 135, 60, 2, 1.76468
13, 6, bw, attraction, a-b-db, 2, 2, 2, 23, 89, 163, 90, 165, 165, 90, 2, 6.00188
13, 6, bw, attraction, a-b-db, 2, 2, 2, 23, 89, 163, 90, 165, 165, 90, 3, 0.752215
13, 6, bw, filler, NA, 999, 999, 2, 24, 195, 57, 72, 58, 152, 89, 3, 1.85561
13, 6, bw, filler, NA, 999, 999, 2, 24, 195, 57, 72, 58, 152, 89, 2, 0.867816
13, 6, bw, attraction, a-b-da, 14, 2, 2, 25, 165, 90, 153, 83, 90, 165, 3, 3.04906
13, 6, bw, attraction, a-b-da, 14, 2, 2, 25, 165, 90, 153, 83, 90, 165, 2, 1.34024
13, 6, bw, attraction, a-b-da, 9, 3, 2, 26, 186, 114, 120, 195, 195, 120, 3, 4.01192
13, 6, bw, attraction, a-b-da, 9, 3, 2, 26, 186, 114, 120, 195, 195, 120, 1, 0.722046
13, 6, bw, attraction, a-b-db, 9, 1, 2, 27, 57, 129, 60, 135, 135, 60, 2, 9.362
13, 6, bw, attraction, a-b-db, 9, 1, 2, 27, 57, 129, 60, 135, 135, 60, 3, 0.99336
13, 6, bw, attraction, a-b-db, 2, 3, 2, 28, 120, 195, 119, 193, 195, 120, 2, 3.83277
13, 6, bw, attraction, a-b-db, 2, 3, 2, 28, 120, 195, 119, 193, 195, 120, 3, 0.71624
13, 6, bw, attraction, a-b-da, 5, 1, 2, 29, 135, 60, 60, 135, 132, 58, 3, 3.42795
13, 6, bw, attraction, a-b-da, 5, 1, 2, 29, 135, 60, 60, 135, 132, 58, 2, 0.803795
13, 6, bw, filler, NA, 999, 999, 2, 30, 91, 74, 145, 96, 148, 77, 2, 2.02478
13, 6, bw, filler, NA, 999, 999, 2, 30, 91, 74, 145, 96, 148, 77, 1, 0.887481
13, 6, bw, attraction, a-b-da, 5, 3, 2, 31, 120, 195, 190, 117, 195, 120, 1, 6.25617
13, 6, bw, attraction, a-b-da, 5, 3, 2, 31, 120, 195, 190, 117, 195, 120, 3, 2.57414
13, 6, bw, attraction, a-b-da, 2, 1, 2, 32, 135, 60, 60, 135, 134, 59, 1, 3.69889
13, 6, bw, attraction, a-b-da, 2, 1, 2, 32, 135, 60, 60, 135, 134, 59, 3, 1.32627
13, 6, bw, filler, NA, 999, 999, 2, 33, 113, 143, 85, 172, 89, 174, 1, 5.60511
13, 6, bw, filler, NA, 999, 999, 2, 33, 113, 143, 85, 172, 89, 174, 2, 1.24377
13, 6, bw, catch, NA, 999, 999, 2, 34, 180, 135, 81, 114, 95, 160, 1, 2.79104
13, 6, bw, catch, NA, 999, 999, 2, 34, 180, 135, 81, 114, 95, 160, 2, 0.734658
13, 6, bw, attraction, a-b-db, 9, 2, 2, 35, 86, 157, 165, 90, 90, 165, 2, 8.29491
13, 6, bw, attraction, a-b-db, 9, 2, 2, 35, 86, 157, 165, 90, 90, 165, 1, 0.743311
13, 6, bw, attraction, a-b-db, 5, 2, 2, 36, 165, 90, 88, 161, 90, 165, 3, 7.3851
13, 6, bw, attraction, a-b-db, 5, 2, 2, 36, 165, 90, 88, 161, 90, 165, 2, 0.917747
13, 6, bw, attraction, a-b-db, 2, 1, 2, 37, 60, 135, 59, 134, 135, 60, 2, 3.48798
13, 6, bw, attraction, a-b-db, 2, 1, 2, 37, 60, 135, 59, 134, 135, 60, 1, 2.14023
13, 6, bw, attraction, a-b-db, 9, 2, 3, 1, 86, 157, 165, 90, 90, 165, 2, 6.162
13, 6, bw, attraction, a-b-db, 9, 2, 3, 1, 86, 157, 165, 90, 90, 165, 1, 1.10615
13, 6, bw, attraction, a-b-da, 9, 1, 3, 2, 60, 135, 135, 60, 129, 57, 3, 4.22695
13, 6, bw, attraction, a-b-da, 9, 1, 3, 2, 60, 135, 135, 60, 129, 57, 1, 0.68169
13, 6, bw, filler, NA, 999, 999, 3, 3, 98, 118, 161, 125, 103, 148, 2, 2.0435
13, 6, bw, filler, NA, 999, 999, 3, 3, 98, 118, 161, 125, 103, 148, 1, 1.07871
13, 6, bw, attraction, a-b-da, 5, 1, 3, 4, 135, 60, 60, 135, 132, 58, 3, 2.72089
13, 6, bw, attraction, a-b-da, 5, 1, 3, 4, 135, 60, 60, 135, 132, 58, 2, 0.724215
13, 6, bw, filler, NA, 999, 999, 3, 5, 140, 101, 72, 89, 63, 148, 1, 1.90358
13, 6, bw, filler, NA, 999, 999, 3, 5, 140, 101, 72, 89, 63, 148, 2, 0.671501
13, 6, bw, attraction, a-b-db, 9, 1, 3, 6, 135, 60, 57, 129, 60, 135, 1, 1.73024
13, 6, bw, attraction, a-b-db, 9, 1, 3, 6, 135, 60, 57, 129, 60, 135, 2, 0.74838
13, 6, bw, filler, NA, 999, 999, 3, 7, 97, 63, 118, 171, 84, 128, 2, 1.81028
13, 6, bw, filler, NA, 999, 999, 3, 7, 97, 63, 118, 171, 84, 128, 1, 1.20304
13, 6, bw, filler, NA, 999, 999, 3, 8, 83, 155, 103, 195, 195, 78, 2, 2.60076
13, 6, bw, filler, NA, 999, 999, 3, 8, 83, 155, 103, 195, 195, 78, 1, 0.878161
13, 6, bw, filler, NA, 999, 999, 3, 9, 171, 147, 181, 140, 157, 129, 1, 4.57703
13, 6, bw, filler, NA, 999, 999, 3, 9, 171, 147, 181, 140, 157, 129, 3, 0.906437
13, 6, bw, attraction, a-b-da, 2, 1, 3, 10, 60, 135, 135, 60, 134, 59, 3, 7.69865
13, 6, bw, attraction, a-b-da, 2, 1, 3, 10, 60, 135, 135, 60, 134, 59, 1, 0.796972
13, 6, bw, attraction, a-b-db, 2, 1, 3, 11, 60, 135, 59, 134, 135, 60, 3, 2.58483
13, 6, bw, attraction, a-b-db, 2, 1, 3, 11, 60, 135, 59, 134, 135, 60, 1, 0.769375
13, 6, bw, attraction, a-b-db, 14, 3, 3, 12, 111, 181, 120, 195, 195, 120, 3, 3.21765
13, 6, bw, attraction, a-b-db, 14, 3, 3, 12, 111, 181, 120, 195, 195, 120, 1, 0.757307
13, 6, bw, filler, NA, 999, 999, 3, 13, 150, 191, 134, 61, 179, 182, 3, 3.2933
13, 6, bw, filler, NA, 999, 999, 3, 13, 150, 191, 134, 61, 179, 182, 2, 0.897489
13, 6, bw, catch, NA, 999, 999, 3, 14, 143, 172, 149, 106, 64, 131, 1, 1.5885
13, 6, bw, catch, NA, 999, 999, 3, 14, 143, 172, 149, 106, 64, 131, 3, 1.09953
13, 6, bw, attraction, a-b-db, 9, 3, 3, 15, 195, 120, 114, 186, 120, 195, 3, 3.71483
13, 6, bw, attraction, a-b-db, 9, 3, 3, 15, 195, 120, 114, 186, 120, 195, 2, 1.66003
13, 6, bw, filler, NA, 999, 999, 3, 16, 186, 72, 166, 152, 146, 176, 2, 7.4888
13, 6, bw, filler, NA, 999, 999, 3, 16, 186, 72, 166, 152, 146, 176, 1, 1.09067
13, 6, bw, attraction, a-b-da, 2, 3, 3, 17, 193, 119, 120, 195, 195, 120, 2, 4.5809
13, 6, bw, attraction, a-b-da, 2, 3, 3, 17, 193, 119, 120, 195, 195, 120, 1, 0.818995
13, 6, bw, attraction, a-b-db, 5, 3, 3, 18, 120, 195, 117, 190, 195, 120, 2, 2.40838
13, 6, bw, attraction, a-b-db, 5, 3, 3, 18, 120, 195, 117, 190, 195, 120, 1, 0.695632
13, 6, bw, attraction, a-b-db, 14, 2, 3, 19, 83, 153, 90, 165, 165, 90, 2, 1.77583
13, 6, bw, attraction, a-b-db, 14, 2, 3, 19, 83, 153, 90, 165, 165, 90, 1, 0.569133
13, 6, bw, catch, NA, 999, 999, 3, 20, 68, 127, 194, 121, 97, 158, 2, 1.75097
13, 6, bw, catch, NA, 999, 999, 3, 20, 68, 127, 194, 121, 97, 158, 1, 0.59976
13, 6, bw, attraction, a-b-da, 5, 3, 3, 21, 195, 120, 190, 117, 120, 195, 2, 3.49436
13, 6, bw, attraction, a-b-da, 5, 3, 3, 21, 195, 120, 190, 117, 120, 195, 1, 0.80761
13, 6, bw, attraction, a-b-da, 2, 2, 3, 22, 90, 165, 163, 89, 165, 90, 1, 1.94155
13, 6, bw, attraction, a-b-da, 2, 2, 3, 22, 90, 165, 163, 89, 165, 90, 3, 0.720403
13, 6, bw, attraction, a-b-da, 14, 2, 3, 23, 90, 165, 165, 90, 153, 83, 1, 2.16962
13, 6, bw, attraction, a-b-da, 14, 2, 3, 23, 90, 165, 165, 90, 153, 83, 3, 0.785955
13, 6, bw, attraction, a-b-db, 5, 1, 3, 24, 60, 135, 58, 132, 135, 60, 3, 2.87972
13, 6, bw, attraction, a-b-db, 5, 1, 3, 24, 60, 135, 58, 132, 135, 60, 2, 0.858523
13, 6, bw, attraction, a-b-da, 9, 3, 3, 25, 195, 120, 186, 114, 120, 195, 3, 3.28659
13, 6, bw, attraction, a-b-da, 9, 3, 3, 25, 195, 120, 186, 114, 120, 195, 2, 0.767665
13, 6, bw, catch, NA, 999, 999, 3, 26, 161, 94, 107, 88, 184, 131, 3, 1.49842
13, 6, bw, catch, NA, 999, 999, 3, 26, 161, 94, 107, 88, 184, 131, 2, 0.716028
13, 6, bw, attraction, a-b-db, 2, 2, 3, 27, 90, 165, 165, 90, 89, 163, 2, 2.10665
13, 6, bw, attraction, a-b-db, 2, 2, 3, 27, 90, 165, 165, 90, 89, 163, 1, 0.73507
13, 6, bw, attraction, a-b-db, 14, 1, 3, 28, 60, 135, 56, 125, 135, 60, 3, 2.67832
13, 6, bw, attraction, a-b-db, 14, 1, 3, 28, 60, 135, 56, 125, 135, 60, 2, 0.730033
13, 6, bw, filler, NA, 999, 999, 3, 29, 179, 125, 67, 98, 193, 163, 3, 1.8278
13, 6, bw, filler, NA, 999, 999, 3, 29, 179, 125, 67, 98, 193, 163, 2, 0.585011
13, 6, bw, attraction, a-b-db, 2, 3, 3, 30, 195, 120, 120, 195, 119, 193, 2, 3.90228
13, 6, bw, attraction, a-b-db, 2, 3, 3, 30, 195, 120, 120, 195, 119, 193, 1, 0.705949
13, 6, bw, filler, NA, 999, 999, 3, 31, 104, 108, 151, 168, 159, 106, 2, 2.46075
13, 6, bw, filler, NA, 999, 999, 3, 31, 104, 108, 151, 168, 159, 106, 1, 0.672691
13, 6, bw, attraction, a-b-da, 5, 2, 3, 32, 161, 88, 165, 90, 90, 165, 3, 4.6493
13, 6, bw, attraction, a-b-da, 5, 2, 3, 32, 161, 88, 165, 90, 90, 165, 2, 0.757442
13, 6, bw, attraction, a-b-da, 14, 1, 3, 33, 60, 135, 125, 56, 135, 60, 1, 4.77244
13, 6, bw, attraction, a-b-da, 14, 1, 3, 33, 60, 135, 125, 56, 135, 60, 3, 0.790326
13, 6, bw, attraction, a-b-db, 5, 2, 3, 34, 165, 90, 88, 161, 90, 165, 1, 2.24318
13, 6, bw, attraction, a-b-db, 5, 2, 3, 34, 165, 90, 88, 161, 90, 165, 3, 2.08083
13, 6, bw, attraction, a-b-da, 14, 3, 3, 35, 195, 120, 120, 195, 181, 111, 2, 4.0758
13, 6, bw, attraction, a-b-da, 14, 3, 3, 35, 195, 120, 120, 195, 181, 111, 3, 0.663148
13, 6, bw, filler, NA, 999, 999, 3, 36, 99, 130, 57, 79, 110, 182, 3, 1.8746
13, 6, bw, filler, NA, 999, 999, 3, 36, 99, 130, 57, 79, 110, 182, 2, 0.829618
13, 6, bw, attraction, a-b-da, 9, 2, 3, 37, 90, 165, 165, 90, 157, 86, 2, 5.89129
13, 6, bw, attraction, a-b-da, 9, 2, 3, 37, 90, 165, 165, 90, 157, 86, 1, 0.732906
13, 6, bw, filler, NA, 999, 999, 4, 1, 194, 132, 137, 139, 80, 70, 1, 2.23822
13, 6, bw, filler, NA, 999, 999, 4, 1, 194, 132, 137, 139, 80, 70, 3, 0.733323
13, 6, bw, attraction, a-b-da, 2, 2, 4, 2, 165, 90, 90, 165, 163, 89, 3, 3.8914
13, 6, bw, attraction, a-b-da, 2, 2, 4, 2, 165, 90, 90, 165, 163, 89, 2, 0.742829
13, 6, bw, attraction, a-b-db, 5, 3, 4, 3, 117, 190, 120, 195, 195, 120, 2, 2.65529
13, 6, bw, attraction, a-b-db, 5, 3, 4, 3, 117, 190, 120, 195, 195, 120, 1, 0.610757
13, 6, bw, attraction, a-b-db, 2, 3, 4, 4, 195, 120, 120, 195, 119, 193, 2, 1.49653
13, 6, bw, attraction, a-b-db, 2, 3, 4, 4, 195, 120, 120, 195, 119, 193, 3, 0.628328
13, 6, bw, attraction, a-b-db, 5, 2, 4, 5, 90, 165, 165, 90, 88, 161, 2, 3.16949
13, 6, bw, attraction, a-b-db, 5, 2, 4, 5, 90, 165, 165, 90, 88, 161, 3, 0.68907
13, 6, bw, catch, NA, 999, 999, 4, 6, 122, 73, 127, 188, 143, 112, 2, 2.03531
13, 6, bw, catch, NA, 999, 999, 4, 6, 122, 73, 127, 188, 143, 112, 1, 0.727765
13, 6, bw, attraction, a-b-db, 2, 2, 4, 7, 89, 163, 90, 165, 165, 90, 2, 3.50592
13, 6, bw, attraction, a-b-db, 2, 2, 4, 7, 89, 163, 90, 165, 165, 90, 3, 0.739171
13, 6, bw, filler, NA, 999, 999, 4, 8, 131, 117, 188, 82, 148, 175, 3, 2.30861
13, 6, bw, filler, NA, 999, 999, 4, 8, 131, 117, 188, 82, 148, 175, 1, 0.789511
13, 6, bw, attraction, a-b-da, 2, 1, 4, 9, 60, 135, 134, 59, 135, 60, 2, 4.21115
13, 6, bw, attraction, a-b-da, 2, 1, 4, 9, 60, 135, 134, 59, 135, 60, 1, 0.729523
13, 6, bw, attraction, a-b-da, 14, 3, 4, 10, 181, 111, 195, 120, 120, 195, 3, 2.7162
13, 6, bw, attraction, a-b-da, 14, 3, 4, 10, 181, 111, 195, 120, 120, 195, 2, 0.558196
13, 6, bw, filler, NA, 999, 999, 4, 11, 190, 173, 96, 101, 138, 183, 1, 1.71655
13, 6, bw, filler, NA, 999, 999, 4, 11, 190, 173, 96, 101, 138, 183, 2, 0.927233
13, 6, bw, attraction, a-b-db, 5, 1, 4, 12, 60, 135, 135, 60, 58, 132, 2, 5.72167
13, 6, bw, attraction, a-b-db, 5, 1, 4, 12, 60, 135, 135, 60, 58, 132, 1, 0.705178
13, 6, bw, attraction, a-b-db, 14, 1, 4, 13, 135, 60, 56, 125, 60, 135, 1, 3.75477
13, 6, bw, attraction, a-b-db, 14, 1, 4, 13, 135, 60, 56, 125, 60, 135, 2, 0.698896
13, 6, bw, attraction, a-b-db, 2, 1, 4, 14, 135, 60, 59, 134, 60, 135, 1, 1.65437
13, 6, bw, attraction, a-b-db, 2, 1, 4, 14, 135, 60, 59, 134, 60, 135, 2, 0.985742
13, 6, bw, attraction, a-b-db, 9, 3, 4, 15, 120, 195, 114, 186, 195, 120, 3, 2.46402
13, 6, bw, attraction, a-b-db, 9, 3, 4, 15, 120, 195, 114, 186, 195, 120, 2, 0.986951
13, 6, bw, attraction, a-b-db, 9, 1, 4, 16, 57, 129, 135, 60, 60, 135, 1, 1.54682
13, 6, bw, attraction, a-b-db, 9, 1, 4, 16, 57, 129, 135, 60, 60, 135, 2, 0.777476
13, 6, bw, filler, NA, 999, 999, 4, 17, 166, 159, 192, 104, 74, 189, 1, 2.68958
13, 6, bw, filler, NA, 999, 999, 4, 17, 166, 159, 192, 104, 74, 189, 3, 0.846662
13, 6, bw, attraction, a-b-da, 14, 1, 4, 18, 60, 135, 125, 56, 135, 60, 1, 2.90394
13, 6, bw, attraction, a-b-da, 14, 1, 4, 18, 60, 135, 125, 56, 135, 60, 3, 0.924718
13, 6, bw, attraction, a-b-da, 14, 2, 4, 19, 153, 83, 90, 165, 165, 90, 1, 6.37422
13, 6, bw, attraction, a-b-da, 14, 2, 4, 19, 153, 83, 90, 165, 165, 90, 2, 0.579547
13, 6, bw, attraction, a-b-db, 14, 3, 4, 20, 111, 181, 195, 120, 120, 195, 1, 4.19449
13, 6, bw, attraction, a-b-db, 14, 3, 4, 20, 111, 181, 195, 120, 120, 195, 3, 1.50505
13, 6, bw, attraction, a-b-da, 5, 2, 4, 21, 90, 165, 165, 90, 161, 88, 3, 3.52426
13, 6, bw, attraction, a-b-da, 5, 2, 4, 21, 90, 165, 165, 90, 161, 88, 1, 0.738307
13, 6, bw, attraction, a-b-db, 14, 2, 4, 22, 165, 90, 90, 165, 83, 153, 2, 5.49315
13, 6, bw, attraction, a-b-db, 14, 2, 4, 22, 165, 90, 90, 165, 83, 153, 3, 0.648022
13, 6, bw, filler, NA, 999, 999, 4, 23, 122, 145, 120, 130, 168, 86, 1, 5.98633
13, 6, bw, filler, NA, 999, 999, 4, 23, 122, 145, 120, 130, 168, 86, 3, 0.695823
13, 6, bw, attraction, a-b-da, 5, 1, 4, 24, 135, 60, 60, 135, 132, 58, 3, 3.78007
13, 6, bw, attraction, a-b-da, 5, 1, 4, 24, 135, 60, 60, 135, 132, 58, 1, 1.44854
13, 6, bw, attraction, a-b-da, 2, 3, 4, 25, 195, 120, 193, 119, 120, 195, 1, 3.41343
13, 6, bw, attraction, a-b-da, 2, 3, 4, 25, 195, 120, 193, 119, 120, 195, 3, 0.73933
13, 6, bw, catch, NA, 999, 999, 4, 26, 96, 99, 192, 123, 130, 125, 2, 1.94706
13, 6, bw, catch, NA, 999, 999, 4, 26, 96, 99, 192, 123, 130, 125, 1, 0.650912
13, 6, bw, attraction, a-b-da, 9, 3, 4, 27, 186, 114, 195, 120, 120, 195, 3, 4.01648
13, 6, bw, attraction, a-b-da, 9, 3, 4, 27, 186, 114, 195, 120, 120, 195, 2, 0.748369
13, 6, bw, attraction, a-b-da, 9, 1, 4, 28, 129, 57, 135, 60, 60, 135, 2, 4.72525
13, 6, bw, attraction, a-b-da, 9, 1, 4, 28, 129, 57, 135, 60, 60, 135, 3, 0.78088
13, 6, bw, attraction, a-b-da, 5, 3, 4, 29, 120, 195, 190, 117, 195, 120, 1, 3.43692
13, 6, bw, attraction, a-b-da, 5, 3, 4, 29, 120, 195, 190, 117, 195, 120, 2, 0.648629
13, 6, bw, filler, NA, 999, 999, 4, 30, 157, 172, 194, 187, 89, 95, 2, 2.15835
13, 6, bw, filler, NA, 999, 999, 4, 30, 157, 172, 194, 187, 89, 95, 3, 0.782142
13, 6, bw, catch, NA, 999, 999, 4, 31, 75, 120, 165, 150, 159, 96, 2, 2.83561
13, 6, bw, catch, NA, 999, 999, 4, 31, 75, 120, 165, 150, 159, 96, 1, 0.561068
13, 6, bw, filler, NA, 999, 999, 4, 32, 83, 157, 63, 135, 104, 61, 1, 2.19331
13, 6, bw, filler, NA, 999, 999, 4, 32, 83, 157, 63, 135, 104, 61, 3, 0.648298
13, 6, bw, filler, NA, 999, 999, 4, 33, 58, 150, 158, 166, 161, 195, 3, 2.25236
13, 6, bw, filler, NA, 999, 999, 4, 33, 58, 150, 158, 166, 161, 195, 1, 0.800442
13, 6, bw, filler, NA, 999, 999, 4, 34, 59, 73, 167, 69, 156, 118, 3, 1.63651
13, 6, bw, filler, NA, 999, 999, 4, 34, 59, 73, 167, 69, 156, 118, 1, 0.700308
13, 6, bw, attraction, a-b-da, 9, 2, 4, 35, 157, 86, 90, 165, 165, 90, 3, 2.64605
13, 6, bw, attraction, a-b-da, 9, 2, 4, 35, 157, 86, 90, 165, 165, 90, 1, 0.6839
13, 6, bw, attraction, a-b-db, 9, 2, 4, 36, 90, 165, 86, 157, 165, 90, 1, 2.66924
13, 6, bw, attraction, a-b-db, 9, 2, 4, 36, 90, 165, 86, 157, 165, 90, 3, 0.631011
13, 6, bw, filler, NA, 999, 999, 4, 37, 188, 188, 117, 170, 76, 91, 1, 1.52504
13, 6, bw, filler, NA, 999, 999, 4, 37, 188, 188, 117, 170, 76, 91, 3, 0.783789
13, 6, bw, attraction, a-b-db, 2, 2, 5, 1, 89, 163, 165, 90, 90, 165, 3, 8.6662
13, 6, bw, attraction, a-b-db, 2, 2, 5, 1, 89, 163, 165, 90, 90, 165, 1, 0.830234
13, 6, bw, attraction, a-b-da, 2, 2, 5, 2, 90, 165, 165, 90, 163, 89, 1, 3.61095
13, 6, bw, attraction, a-b-da, 2, 2, 5, 2, 90, 165, 165, 90, 163, 89, 3, 1.05584
13, 6, bw, filler, NA, 999, 999, 5, 3, 59, 124, 160, 109, 160, 128, 3, 1.81273
13, 6, bw, filler, NA, 999, 999, 5, 3, 59, 124, 160, 109, 160, 128, 1, 0.874934
13, 6, bw, attraction, a-b-da, 5, 3, 5, 4, 190, 117, 195, 120, 120, 195, 3, 12.0773
13, 6, bw, attraction, a-b-da, 5, 3, 5, 4, 190, 117, 195, 120, 120, 195, 1, 0.958364
13, 6, bw, catch, NA, 999, 999, 5, 5, 80, 115, 176, 139, 126, 129, 2, 2.47867
13, 6, bw, catch, NA, 999, 999, 5, 5, 80, 115, 176, 139, 126, 129, 1, 0.760419
13, 6, bw, filler, NA, 999, 999, 5, 6, 61, 155, 131, 64, 165, 180, 3, 3.38363
13, 6, bw, filler, NA, 999, 999, 5, 6, 61, 155, 131, 64, 165, 180, 2, 0.887747
13, 6, bw, attraction, a-b-da, 9, 2, 5, 7, 157, 86, 165, 90, 90, 165, 3, 5.84231
13, 6, bw, attraction, a-b-da, 9, 2, 5, 7, 157, 86, 165, 90, 90, 165, 1, 0.765909
13, 6, bw, attraction, a-b-da, 5, 1, 5, 8, 60, 135, 135, 60, 132, 58, 1, 8.78889
13, 6, bw, attraction, a-b-da, 5, 1, 5, 8, 60, 135, 135, 60, 132, 58, 2, 1.58543
13, 6, bw, attraction, a-b-da, 14, 1, 5, 9, 60, 135, 125, 56, 135, 60, 1, 5.40023
13, 6, bw, attraction, a-b-da, 14, 1, 5, 9, 60, 135, 125, 56, 135, 60, 2, 2.07093
13, 6, bw, attraction, a-b-da, 2, 1, 5, 10, 135, 60, 60, 135, 134, 59, 1, 6.74493
13, 6, bw, attraction, a-b-da, 2, 1, 5, 10, 135, 60, 60, 135, 134, 59, 3, 0.624304
13, 6, bw, attraction, a-b-db, 5, 2, 5, 11, 88, 161, 165, 90, 90, 165, 1, 3.19043
13, 6, bw, attraction, a-b-db, 5, 2, 5, 11, 88, 161, 165, 90, 90, 165, 3, 0.556939
13, 6, bw, attraction, a-b-da, 9, 3, 5, 12, 186, 114, 120, 195, 195, 120, 3, 1.74801
13, 6, bw, attraction, a-b-da, 9, 3, 5, 12, 186, 114, 120, 195, 195, 120, 1, 0.773844
13, 6, bw, attraction, a-b-db, 5, 3, 5, 13, 195, 120, 117, 190, 120, 195, 1, 4.90996
13, 6, bw, attraction, a-b-db, 5, 3, 5, 13, 195, 120, 117, 190, 120, 195, 3, 0.623079
13, 6, bw, catch, NA, 999, 999, 5, 14, 158, 157, 159, 96, 124, 71, 1, 2.19552
13, 6, bw, catch, NA, 999, 999, 5, 14, 158, 157, 159, 96, 124, 71, 3, 0.904352
13, 6, bw, filler, NA, 999, 999, 5, 15, 126, 182, 188, 128, 129, 141, 1, 4.46675
13, 6, bw, filler, NA, 999, 999, 5, 15, 126, 182, 188, 128, 129, 141, 3, 0.709926
13, 6, bw, filler, NA, 999, 999, 5, 16, 141, 177, 183, 147, 159, 114, 2, 6.01623
13, 6, bw, filler, NA, 999, 999, 5, 16, 141, 177, 183, 147, 159, 114, 3, 0.596521
13, 6, bw, attraction, a-b-db, 2, 3, 5, 17, 119, 193, 195, 120, 120, 195, 2, 4.41045
13, 6, bw, attraction, a-b-db, 2, 3, 5, 17, 119, 193, 195, 120, 120, 195, 3, 0.650423
13, 6, bw, attraction, a-b-db, 9, 1, 5, 18, 135, 60, 57, 129, 60, 135, 1, 4.69476
13, 6, bw, attraction, a-b-db, 9, 1, 5, 18, 135, 60, 57, 129, 60, 135, 3, 0.567086
13, 6, bw, filler, NA, 999, 999, 5, 19, 125, 83, 138, 182, 97, 113, 2, 2.7103
13, 6, bw, filler, NA, 999, 999, 5, 19, 125, 83, 138, 182, 97, 113, 1, 1.2502
13, 6, bw, attraction, a-b-db, 14, 3, 5, 20, 195, 120, 111, 181, 120, 195, 2, 8.36475
13, 6, bw, attraction, a-b-db, 14, 3, 5, 20, 195, 120, 111, 181, 120, 195, 3, 1.01166
13, 6, bw, attraction, a-b-da, 2, 3, 5, 21, 120, 195, 193, 119, 195, 120, 1, 7.99353
13, 6, bw, attraction, a-b-da, 2, 3, 5, 21, 120, 195, 193, 119, 195, 120, 3, 3.3439
13, 6, bw, attraction, a-b-db, 9, 3, 5, 22, 195, 120, 114, 186, 120, 195, 2, 5.99652
13, 6, bw, attraction, a-b-db, 9, 3, 5, 22, 195, 120, 114, 186, 120, 195, 3, 1.99606
13, 6, bw, filler, NA, 999, 999, 5, 23, 78, 109, 174, 188, 90, 67, 2, 1.51515
13, 6, bw, filler, NA, 999, 999, 5, 23, 78, 109, 174, 188, 90, 67, 3, 0.94803
13, 6, bw, filler, NA, 999, 999, 5, 24, 157, 80, 119, 100, 185, 164, 3, 1.70838
13, 6, bw, filler, NA, 999, 999, 5, 24, 157, 80, 119, 100, 185, 164, 2, 0.846026
13, 6, bw, filler, NA, 999, 999, 5, 25, 155, 81, 91, 81, 192, 89, 3, 2.48236
13, 6, bw, filler, NA, 999, 999, 5, 25, 155, 81, 91, 81, 192, 89, 2, 0.781173
13, 6, bw, attraction, a-b-db, 9, 2, 5, 26, 165, 90, 90, 165, 86, 157, 1, 8.68525
13, 6, bw, attraction, a-b-db, 9, 2, 5, 26, 165, 90, 90, 165, 86, 157, 3, 0.747233
13, 6, bw, filler, NA, 999, 999, 5, 27, 58, 157, 107, 60, 71, 159, 3, 3.27637
13, 6, bw, filler, NA, 999, 999, 5, 27, 58, 157, 107, 60, 71, 159, 2, 0.714448
13, 6, bw, attraction, a-b-da, 9, 1, 5, 28, 135, 60, 60, 135, 129, 57, 1, 3.64875
13, 6, bw, attraction, a-b-da, 9, 1, 5, 28, 135, 60, 60, 135, 129, 57, 3, 0.879354
13, 6, bw, attraction, a-b-da, 5, 2, 5, 29, 90, 165, 165, 90, 161, 88, 3, 5.01687
13, 6, bw, attraction, a-b-da, 5, 2, 5, 29, 90, 165, 165, 90, 161, 88, 1, 0.71059
13, 6, bw, attraction, a-b-db, 5, 1, 5, 30, 60, 135, 135, 60, 58, 132, 1, 3.57632
13, 6, bw, attraction, a-b-db, 5, 1, 5, 30, 60, 135, 135, 60, 58, 132, 2, 0.601571
13, 6, bw, catch, NA, 999, 999, 5, 31, 122, 193, 123, 72, 108, 147, 1, 2.06043
13, 6, bw, catch, NA, 999, 999, 5, 31, 122, 193, 123, 72, 108, 147, 2, 0.786256
13, 6, bw, attraction, a-b-da, 14, 2, 5, 32, 153, 83, 90, 165, 165, 90, 3, 2.2819
13, 6, bw, attraction, a-b-da, 14, 2, 5, 32, 153, 83, 90, 165, 165, 90, 1, 1.15599
13, 6, bw, attraction, a-b-db, 14, 1, 5, 33, 135, 60, 60, 135, 56, 125, 2, 4.98599
13, 6, bw, attraction, a-b-db, 14, 1, 5, 33, 135, 60, 60, 135, 56, 125, 3, 0.559787
13, 6, bw, attraction, a-b-db, 14, 2, 5, 34, 83, 153, 90, 165, 165, 90, 2, 2.56403
13, 6, bw, attraction, a-b-db, 14, 2, 5, 34, 83, 153, 90, 165, 165, 90, 1, 0.679993
13, 6, bw, attraction, a-b-db, 2, 1, 5, 35, 59, 134, 60, 135, 135, 60, 3, 3.29895
13, 6, bw, attraction, a-b-db, 2, 1, 5, 35, 59, 134, 60, 135, 135, 60, 1, 0.758245
13, 6, bw, filler, NA, 999, 999, 5, 36, 160, 75, 171, 194, 96, 166, 2, 1.71211
13, 6, bw, filler, NA, 999, 999, 5, 36, 160, 75, 171, 194, 96, 166, 1, 2.54333
13, 6, bw, attraction, a-b-da, 14, 3, 5, 37, 181, 111, 195, 120, 120, 195, 2, 15.927
13, 6, bw, attraction, a-b-da, 14, 3, 5, 37, 181, 111, 195, 120, 120, 195, 3, 1.90944
13, 6, bw, attraction, a-b-da, 2, 3, 6, 1, 193, 119, 120, 195, 195, 120, 3, 6.06375
13, 6, bw, attraction, a-b-da, 2, 3, 6, 1, 193, 119, 120, 195, 195, 120, 1, 1.51278
13, 6, bw, attraction, a-b-db, 5, 1, 6, 2, 58, 132, 60, 135, 135, 60, 2, 2.53994
13, 6, bw, attraction, a-b-db, 5, 1, 6, 2, 58, 132, 60, 135, 135, 60, 1, 0.747992
13, 6, bw, attraction, a-b-db, 5, 2, 6, 3, 90, 165, 165, 90, 88, 161, 3, 4.12469
13, 6, bw, attraction, a-b-db, 5, 2, 6, 3, 90, 165, 165, 90, 88, 161, 2, 0.749382
13, 6, bw, filler, NA, 999, 999, 6, 4, 186, 79, 169, 96, 184, 69, 2, 6.37367
13, 6, bw, filler, NA, 999, 999, 6, 4, 186, 79, 169, 96, 184, 69, 3, 0.957267
13, 6, bw, attraction, a-b-da, 9, 1, 6, 5, 129, 57, 60, 135, 135, 60, 3, 2.62694
13, 6, bw, attraction, a-b-da, 9, 1, 6, 5, 129, 57, 60, 135, 135, 60, 1, 0.745969
13, 6, bw, attraction, a-b-db, 5, 3, 6, 6, 117, 190, 195, 120, 120, 195, 3, 5.93757
13, 6, bw, attraction, a-b-db, 5, 3, 6, 6, 117, 190, 195, 120, 120, 195, 1, 0.714947
13, 6, bw, attraction, a-b-da, 2, 1, 6, 7, 134, 59, 135, 60, 60, 135, 1, 3.41001
13, 6, bw, attraction, a-b-da, 2, 1, 6, 7, 134, 59, 135, 60, 60, 135, 3, 0.745718
13, 6, bw, attraction, a-b-db, 2, 2, 6, 8, 90, 165, 89, 163, 165, 90, 3, 7.66664
13, 6, bw, attraction, a-b-db, 2, 2, 6, 8, 90, 165, 89, 163, 165, 90, 2, 0.579751
13, 6, bw, filler, NA, 999, 999, 6, 9, 157, 192, 58, 139, 124, 163, 1, 3.66104
13, 6, bw, filler, NA, 999, 999, 6, 9, 157, 192, 58, 139, 124, 163, 2, 0.75894
13, 6, bw, attraction, a-b-da, 5, 1, 6, 10, 132, 58, 60, 135, 135, 60, 3, 4.82406
13, 6, bw, attraction, a-b-da, 5, 1, 6, 10, 132, 58, 60, 135, 135, 60, 1, 0.739139
13, 6, bw, attraction, a-b-db, 14, 3, 6, 11, 111, 181, 195, 120, 120, 195, 3, 5.24434
13, 6, bw, attraction, a-b-db, 14, 3, 6, 11, 111, 181, 195, 120, 120, 195, 1, 0.75294
13, 6, bw, attraction, a-b-da, 2, 2, 6, 12, 90, 165, 165, 90, 163, 89, 2, 5.72012
13, 6, bw, attraction, a-b-da, 2, 2, 6, 12, 90, 165, 165, 90, 163, 89, 1, 0.801197
13, 6, bw, filler, NA, 999, 999, 6, 13, 164, 90, 150, 179, 99, 186, 2, 2.09536
13, 6, bw, filler, NA, 999, 999, 6, 13, 164, 90, 150, 179, 99, 186, 1, 0.937121
13, 6, bw, attraction, a-b-db, 9, 1, 6, 14, 60, 135, 57, 129, 135, 60, 1, 7.61899
13, 6, bw, attraction, a-b-db, 9, 1, 6, 14, 60, 135, 57, 129, 135, 60, 2, 0.758756
13, 6, bw, attraction, a-b-da, 14, 1, 6, 15, 125, 56, 60, 135, 135, 60, 3, 3.48698
13, 6, bw, attraction, a-b-da, 14, 1, 6, 15, 125, 56, 60, 135, 135, 60, 1, 0.751758
13, 6, bw, attraction, a-b-db, 9, 3, 6, 16, 195, 120, 120, 195, 114, 186, 2, 5.31268
13, 6, bw, attraction, a-b-db, 9, 3, 6, 16, 195, 120, 120, 195, 114, 186, 3, 0.99334
13, 6, bw, attraction, a-b-db, 14, 1, 6, 17, 56, 125, 60, 135, 135, 60, 2, 2.20035
13, 6, bw, attraction, a-b-db, 14, 1, 6, 17, 56, 125, 60, 135, 135, 60, 1, 0.678064
13, 6, bw, attraction, a-b-da, 5, 2, 6, 18, 161, 88, 90, 165, 165, 90, 3, 2.92908
13, 6, bw, attraction, a-b-da, 5, 2, 6, 18, 161, 88, 90, 165, 165, 90, 1, 0.858817
13, 6, bw, attraction, a-b-da, 14, 3, 6, 19, 181, 111, 120, 195, 195, 120, 3, 3.07035
13, 6, bw, attraction, a-b-da, 14, 3, 6, 19, 181, 111, 120, 195, 195, 120, 1, 0.881194
13, 6, bw, attraction, a-b-db, 9, 2, 6, 20, 86, 157, 165, 90, 90, 165, 3, 2.30216
13, 6, bw, attraction, a-b-db, 9, 2, 6, 20, 86, 157, 165, 90, 90, 165, 1, 0.684989
13, 6, bw, attraction, a-b-da, 9, 3, 6, 21, 186, 114, 120, 195, 195, 120, 3, 2.64838
13, 6, bw, attraction, a-b-da, 9, 3, 6, 21, 186, 114, 120, 195, 195, 120, 1, 0.790977
13, 6, bw, attraction, a-b-db, 2, 1, 6, 22, 59, 134, 60, 135, 135, 60, 3, 4.5242
13, 6, bw, attraction, a-b-db, 2, 1, 6, 22, 59, 134, 60, 135, 135, 60, 1, 0.981066
13, 6, bw, filler, NA, 999, 999, 6, 23, 178, 86, 183, 89, 62, 125, 1, 3.29204
13, 6, bw, filler, NA, 999, 999, 6, 23, 178, 86, 183, 89, 62, 125, 3, 0.711795
13, 6, bw, attraction, a-b-db, 14, 2, 6, 24, 165, 90, 90, 165, 83, 153, 2, 7.83098
13, 6, bw, attraction, a-b-db, 14, 2, 6, 24, 165, 90, 90, 165, 83, 153, 3, 0.732805
13, 6, bw, filler, NA, 999, 999, 6, 25, 68, 108, 159, 86, 86, 173, 3, 2.27687
13, 6, bw, filler, NA, 999, 999, 6, 25, 68, 108, 159, 86, 86, 173, 1, 0.807119
13, 6, bw, catch, NA, 999, 999, 6, 26, 181, 134, 116, 79, 129, 126, 1, 2.84693
13, 6, bw, catch, NA, 999, 999, 6, 26, 181, 134, 116, 79, 129, 126, 2, 0.738241
13, 6, bw, filler, NA, 999, 999, 6, 27, 109, 57, 111, 129, 87, 69, 2, 2.58603
13, 6, bw, filler, NA, 999, 999, 6, 27, 109, 57, 111, 129, 87, 69, 3, 0.79484
13, 6, bw, catch, NA, 999, 999, 6, 28, 162, 93, 142, 173, 67, 128, 2, 2.2004
13, 6, bw, catch, NA, 999, 999, 6, 28, 162, 93, 142, 173, 67, 128, 3, 0.975946
13, 6, bw, filler, NA, 999, 999, 6, 29, 143, 61, 165, 179, 156, 142, 2, 2.21401
13, 6, bw, filler, NA, 999, 999, 6, 29, 143, 61, 165, 179, 156, 142, 1, 0.699165
13, 6, bw, attraction, a-b-db, 2, 3, 6, 30, 120, 195, 195, 120, 119, 193, 1, 7.35808
13, 6, bw, attraction, a-b-db, 2, 3, 6, 30, 120, 195, 195, 120, 119, 193, 2, 1.81289
13, 6, bw, filler, NA, 999, 999, 6, 31, 89, 193, 177, 64, 161, 121, 3, 3.45752
13, 6, bw, filler, NA, 999, 999, 6, 31, 89, 193, 177, 64, 161, 121, 2, 1.08786
13, 6, bw, attraction, a-b-da, 14, 2, 6, 32, 90, 165, 165, 90, 153, 83, 2, 9.21607
13, 6, bw, attraction, a-b-da, 14, 2, 6, 32, 90, 165, 165, 90, 153, 83, 3, 0.939012
13, 6, bw, attraction, a-b-da, 5, 3, 6, 33, 120, 195, 190, 117, 195, 120, 3, 4.45203
13, 6, bw, attraction, a-b-da, 5, 3, 6, 33, 120, 195, 190, 117, 195, 120, 1, 0.6144
13, 6, bw, attraction, a-b-da, 9, 2, 6, 34, 157, 86, 165, 90, 90, 165, 3, 8.48354
13, 6, bw, attraction, a-b-da, 9, 2, 6, 34, 157, 86, 165, 90, 90, 165, 1, 0.605653
13, 6, bw, filler, NA, 999, 999, 6, 35, 67, 159, 91, 125, 181, 112, 3, 2.48466
13, 6, bw, filler, NA, 999, 999, 6, 35, 67, 159, 91, 125, 181, 112, 2, 1.54317
13, 6, bw, catch, NA, 999, 999, 6, 36, 93, 102, 169, 146, 162, 93, 2, 2.29463
13, 6, bw, catch, NA, 999, 999, 6, 36, 93, 102, 169, 146, 162, 93, 1, 1.11731
13, 6, bw, filler, NA, 999, 999, 6, 37, 180, 127, 63, 124, 129, 135, 1, 3.892
13, 6, bw, filler, NA, 999, 999, 6, 37, 180, 127, 63, 124, 129, 135, 2, 0.752476
13, 6, bw, filler, NA, 999, 999, 7, 1, 189, 138, 160, 147, 75, 110, 1, 3.06234
13, 6, bw, filler, NA, 999, 999, 7, 1, 189, 138, 160, 147, 75, 110, 3, 0.768998
13, 6, bw, attraction, a-b-da, 2, 2, 7, 2, 165, 90, 90, 165, 163, 89, 1, 18.4965
13, 6, bw, attraction, a-b-da, 2, 2, 7, 2, 165, 90, 90, 165, 163, 89, 3, 1.27779
13, 6, bw, filler, NA, 999, 999, 7, 3, 154, 92, 177, 137, 131, 64, 2, 2.46762
13, 6, bw, filler, NA, 999, 999, 7, 3, 154, 92, 177, 137, 131, 64, 3, 0.758209
13, 6, bw, catch, NA, 999, 999, 7, 4, 120, 135, 131, 64, 177, 138, 3, 5.01433
13, 6, bw, catch, NA, 999, 999, 7, 4, 120, 135, 131, 64, 177, 138, 2, 0.748238
13, 6, bw, attraction, a-b-db, 5, 2, 7, 5, 165, 90, 88, 161, 90, 165, 3, 9.17846
13, 6, bw, attraction, a-b-db, 5, 2, 7, 5, 165, 90, 88, 161, 90, 165, 2, 1.32758
13, 6, bw, attraction, a-b-da, 14, 3, 7, 6, 120, 195, 195, 120, 181, 111, 2, 6.833
13, 6, bw, attraction, a-b-da, 14, 3, 7, 6, 120, 195, 195, 120, 181, 111, 3, 1.12458
13, 6, bw, attraction, a-b-db, 2, 3, 7, 7, 119, 193, 120, 195, 195, 120, 3, 9.6865
13, 6, bw, attraction, a-b-db, 2, 3, 7, 7, 119, 193, 120, 195, 195, 120, 2, 0.727252
13, 6, bw, catch, NA, 999, 999, 7, 8, 116, 79, 126, 189, 93, 162, 2, 2.23209
13, 6, bw, catch, NA, 999, 999, 7, 8, 116, 79, 126, 189, 93, 162, 1, 1.27065
13, 6, bw, filler, NA, 999, 999, 7, 9, 182, 128, 104, 93, 142, 114, 1, 2.92837
13, 6, bw, filler, NA, 999, 999, 7, 9, 182, 128, 104, 93, 142, 114, 2, 0.834128
13, 6, bw, attraction, a-b-da, 2, 3, 7, 10, 195, 120, 120, 195, 193, 119, 1, 16.2875
13, 6, bw, attraction, a-b-da, 2, 3, 7, 10, 195, 120, 120, 195, 193, 119, 3, 0.701661
13, 6, bw, attraction, a-b-db, 14, 1, 7, 11, 135, 60, 56, 125, 60, 135, 3, 4.64664
13, 6, bw, attraction, a-b-db, 14, 1, 7, 11, 135, 60, 56, 125, 60, 135, 2, 0.659385
13, 6, bw, attraction, a-b-da, 9, 3, 7, 12, 186, 114, 195, 120, 120, 195, 3, 3.15278
13, 6, bw, attraction, a-b-da, 9, 3, 7, 12, 186, 114, 195, 120, 120, 195, 2, 0.590577
13, 6, bw, filler, NA, 999, 999, 7, 13, 102, 59, 150, 117, 176, 101, 3, 2.57298
13, 6, bw, filler, NA, 999, 999, 7, 13, 102, 59, 150, 117, 176, 101, 1, 0.660011
13, 6, bw, attraction, a-b-db, 2, 1, 7, 14, 59, 134, 60, 135, 135, 60, 2, 4.69687
13, 6, bw, attraction, a-b-db, 2, 1, 7, 14, 59, 134, 60, 135, 135, 60, 1, 0.674503
13, 6, bw, attraction, a-b-da, 5, 1, 7, 15, 60, 135, 132, 58, 135, 60, 2, 3.23977
13, 6, bw, attraction, a-b-da, 5, 1, 7, 15, 60, 135, 132, 58, 135, 60, 3, 1.0827
13, 6, bw, filler, NA, 999, 999, 7, 16, 62, 194, 89, 143, 134, 132, 3, 5.5101
13, 6, bw, filler, NA, 999, 999, 7, 16, 62, 194, 89, 143, 134, 132, 1, 0.687034
13, 6, bw, attraction, a-b-da, 5, 3, 7, 17, 120, 195, 195, 120, 190, 117, 2, 17.5917
13, 6, bw, attraction, a-b-da, 5, 3, 7, 17, 120, 195, 195, 120, 190, 117, 3, 0.802153
13, 6, bw, attraction, a-b-da, 2, 1, 7, 18, 134, 59, 60, 135, 135, 60, 2, 1.27922
13, 6, bw, attraction, a-b-da, 2, 1, 7, 18, 134, 59, 60, 135, 135, 60, 3, 2.35615
13, 6, bw, attraction, a-b-db, 14, 2, 7, 19, 83, 153, 90, 165, 165, 90, 3, 1.86034
13, 6, bw, attraction, a-b-db, 14, 2, 7, 19, 83, 153, 90, 165, 165, 90, 2, 0.705208
13, 6, bw, filler, NA, 999, 999, 7, 20, 128, 136, 154, 100, 97, 179, 3, 1.42523
13, 6, bw, filler, NA, 999, 999, 7, 20, 128, 136, 154, 100, 97, 179, 2, 0.657167
13, 6, bw, attraction, a-b-db, 14, 3, 7, 21, 120, 195, 111, 181, 195, 120, 3, 3.24464
13, 6, bw, attraction, a-b-db, 14, 3, 7, 21, 120, 195, 111, 181, 195, 120, 1, 0.633735
13, 6, bw, attraction, a-b-db, 9, 1, 7, 22, 57, 129, 60, 135, 135, 60, 3, 3.20616
13, 6, bw, attraction, a-b-db, 9, 1, 7, 22, 57, 129, 60, 135, 135, 60, 2, 0.698918
13, 6, bw, filler, NA, 999, 999, 7, 23, 105, 99, 123, 140, 176, 165, 3, 1.43782
13, 6, bw, filler, NA, 999, 999, 7, 23, 105, 99, 123, 140, 176, 165, 1, 0.892524
13, 6, bw, catch, NA, 999, 999, 7, 24, 107, 148, 120, 75, 152, 163, 3, 2.07932
13, 6, bw, catch, NA, 999, 999, 7, 24, 107, 148, 120, 75, 152, 163, 2, 0.735938
13, 6, bw, attraction, a-b-da, 9, 1, 7, 25, 135, 60, 60, 135, 129, 57, 1, 3.72816
13, 6, bw, attraction, a-b-da, 9, 1, 7, 25, 135, 60, 60, 135, 129, 57, 3, 1.00354
13, 6, bw, filler, NA, 999, 999, 7, 26, 143, 188, 105, 56, 104, 110, 1, 1.64689
13, 6, bw, filler, NA, 999, 999, 7, 26, 143, 188, 105, 56, 104, 110, 2, 0.765633
13, 6, bw, attraction, a-b-db, 9, 3, 7, 27, 195, 120, 114, 186, 120, 195, 1, 5.22893
13, 6, bw, attraction, a-b-db, 9, 3, 7, 27, 195, 120, 114, 186, 120, 195, 2, 0.914033
13, 6, bw, attraction, a-b-db, 5, 1, 7, 28, 60, 135, 58, 132, 135, 60, 3, 3.01748
13, 6, bw, attraction, a-b-db, 5, 1, 7, 28, 60, 135, 58, 132, 135, 60, 1, 0.679566
13, 6, bw, filler, NA, 999, 999, 7, 29, 91, 119, 94, 85, 135, 195, 3, 1.41919
13, 6, bw, filler, NA, 999, 999, 7, 29, 91, 119, 94, 85, 135, 195, 2, 0.775565
13, 6, bw, attraction, a-b-db, 9, 2, 7, 30, 90, 165, 165, 90, 86, 157, 2, 3.99226
13, 6, bw, attraction, a-b-db, 9, 2, 7, 30, 90, 165, 165, 90, 86, 157, 3, 0.542203
13, 6, bw, attraction, a-b-da, 5, 2, 7, 31, 90, 165, 165, 90, 161, 88, 3, 4.23957
13, 6, bw, attraction, a-b-da, 5, 2, 7, 31, 90, 165, 165, 90, 161, 88, 1, 0.754797
13, 6, bw, attraction, a-b-db, 5, 3, 7, 32, 117, 190, 195, 120, 120, 195, 3, 3.82588
13, 6, bw, attraction, a-b-db, 5, 3, 7, 32, 117, 190, 195, 120, 120, 195, 1, 0.615708
13, 6, bw, filler, NA, 999, 999, 7, 33, 140, 61, 168, 178, 101, 59, 2, 1.55019
13, 6, bw, filler, NA, 999, 999, 7, 33, 140, 61, 168, 178, 101, 59, 3, 0.783491
13, 6, bw, attraction, a-b-da, 14, 1, 7, 34, 135, 60, 60, 135, 125, 56, 3, 7.93339
13, 6, bw, attraction, a-b-da, 14, 1, 7, 34, 135, 60, 60, 135, 125, 56, 2, 3.1317
13, 6, bw, attraction, a-b-da, 14, 2, 7, 35, 165, 90, 90, 165, 153, 83, 1, 3.24495
13, 6, bw, attraction, a-b-da, 14, 2, 7, 35, 165, 90, 90, 165, 153, 83, 3, 0.903898
13, 6, bw, attraction, a-b-db, 2, 2, 7, 36, 89, 163, 90, 165, 165, 90, 2, 3.37746
13, 6, bw, attraction, a-b-db, 2, 2, 7, 36, 89, 163, 90, 165, 165, 90, 3, 0.664854
13, 6, bw, attraction, a-b-da, 9, 2, 7, 37, 165, 90, 90, 165, 157, 86, 1, 2.70886
13, 6, bw, attraction, a-b-da, 9, 2, 7, 37, 165, 90, 90, 165, 157, 86, 3, 0.721117
13, 6, bw, filler, NA, 999, 999, 8, 1, 145, 159, 93, 168, 117, 85, 1, 2.09646
13, 6, bw, filler, NA, 999, 999, 8, 1, 145, 159, 93, 168, 117, 85, 3, 0.77252
13, 6, bw, attraction, a-b-da, 5, 3, 8, 2, 190, 117, 195, 120, 120, 195, 3, 4.0256
13, 6, bw, attraction, a-b-da, 5, 3, 8, 2, 190, 117, 195, 120, 120, 195, 1, 0.646728
13, 6, bw, attraction, a-b-da, 9, 1, 8, 3, 135, 60, 129, 57, 60, 135, 3, 2.99428
13, 6, bw, attraction, a-b-da, 9, 1, 8, 3, 135, 60, 129, 57, 60, 135, 2, 0.659728
13, 6, bw, attraction, a-b-da, 5, 1, 8, 4, 60, 135, 132, 58, 135, 60, 3, 1.8465
13, 6, bw, attraction, a-b-da, 5, 1, 8, 4, 60, 135, 132, 58, 135, 60, 1, 0.772421
13, 6, bw, filler, NA, 999, 999, 8, 5, 172, 66, 78, 162, 73, 90, 2, 1.80257
13, 6, bw, filler, NA, 999, 999, 8, 5, 172, 66, 78, 162, 73, 90, 3, 0.665827
13, 6, bw, filler, NA, 999, 999, 8, 6, 100, 60, 68, 150, 195, 85, 3, 1.67646
13, 6, bw, filler, NA, 999, 999, 8, 6, 100, 60, 68, 150, 195, 85, 1, 0.760029
13, 6, bw, attraction, a-b-da, 9, 3, 8, 7, 120, 195, 186, 114, 195, 120, 3, 2.47147
13, 6, bw, attraction, a-b-da, 9, 3, 8, 7, 120, 195, 186, 114, 195, 120, 1, 0.708516
13, 6, bw, filler, NA, 999, 999, 8, 8, 186, 102, 78, 99, 107, 98, 1, 1.97436
13, 6, bw, filler, NA, 999, 999, 8, 8, 186, 102, 78, 99, 107, 98, 2, 1.0697
13, 6, bw, catch, NA, 999, 999, 8, 9, 61, 134, 132, 123, 179, 136, 3, 1.40129
13, 6, bw, catch, NA, 999, 999, 8, 9, 61, 134, 132, 123, 179, 136, 1, 0.712573
13, 6, bw, filler, NA, 999, 999, 8, 10, 91, 136, 141, 154, 162, 76, 2, 1.92946
13, 6, bw, filler, NA, 999, 999, 8, 10, 91, 136, 141, 154, 162, 76, 1, 0.643986
13, 6, bw, attraction, a-b-db, 9, 1, 8, 11, 135, 60, 60, 135, 57, 129, 1, 4.36141
13, 6, bw, attraction, a-b-db, 9, 1, 8, 11, 135, 60, 60, 135, 57, 129, 2, 0.742149
13, 6, bw, attraction, a-b-db, 5, 1, 8, 12, 60, 135, 58, 132, 135, 60, 3, 1.81568
13, 6, bw, attraction, a-b-db, 5, 1, 8, 12, 60, 135, 58, 132, 135, 60, 1, 0.613156
13, 6, bw, catch, NA, 999, 999, 8, 13, 161, 94, 112, 83, 184, 131, 3, 1.22807
13, 6, bw, catch, NA, 999, 999, 8, 13, 161, 94, 112, 83, 184, 131, 2, 0.745003
13, 6, bw, attraction, a-b-db, 14, 1, 8, 14, 56, 125, 60, 135, 135, 60, 3, 7.72944
13, 6, bw, attraction, a-b-db, 14, 1, 8, 14, 56, 125, 60, 135, 135, 60, 1, 0.891099
13, 6, bw, attraction, a-b-da, 14, 3, 8, 15, 195, 120, 120, 195, 181, 111, 1, 2.14953
13, 6, bw, attraction, a-b-da, 14, 3, 8, 15, 195, 120, 120, 195, 181, 111, 3, 0.622663
13, 6, bw, attraction, a-b-db, 2, 3, 8, 16, 120, 195, 119, 193, 195, 120, 3, 3.0348
13, 6, bw, attraction, a-b-db, 2, 3, 8, 16, 120, 195, 119, 193, 195, 120, 1, 0.734569
13, 6, bw, attraction, a-b-db, 2, 1, 8, 17, 60, 135, 135, 60, 59, 134, 2, 2.32774
13, 6, bw, attraction, a-b-db, 2, 1, 8, 17, 60, 135, 135, 60, 59, 134, 3, 0.632968
13, 6, bw, filler, NA, 999, 999, 8, 18, 114, 195, 76, 87, 98, 116, 1, 1.54815
13, 6, bw, filler, NA, 999, 999, 8, 18, 114, 195, 76, 87, 98, 116, 2, 0.758717
13, 6, bw, attraction, a-b-da, 5, 2, 8, 19, 90, 165, 161, 88, 165, 90, 3, 4.63949
13, 6, bw, attraction, a-b-da, 5, 2, 8, 19, 90, 165, 161, 88, 165, 90, 1, 0.619342
13, 6, bw, attraction, a-b-db, 14, 3, 8, 20, 111, 181, 195, 120, 120, 195, 2, 1.59932
13, 6, bw, attraction, a-b-db, 14, 3, 8, 20, 111, 181, 195, 120, 120, 195, 1, 0.534299
13, 6, bw, attraction, a-b-da, 2, 1, 8, 21, 135, 60, 134, 59, 60, 135, 3, 3.98984
13, 6, bw, attraction, a-b-da, 2, 1, 8, 21, 135, 60, 134, 59, 60, 135, 2, 1.26901
13, 6, bw, attraction, a-b-db, 9, 2, 8, 22, 165, 90, 86, 157, 90, 165, 1, 2.96174
13, 6, bw, attraction, a-b-db, 9, 2, 8, 22, 165, 90, 86, 157, 90, 165, 2, 0.720049
13, 6, bw, attraction, a-b-db, 14, 2, 8, 23, 83, 153, 165, 90, 90, 165, 3, 2.52158
13, 6, bw, attraction, a-b-db, 14, 2, 8, 23, 83, 153, 165, 90, 90, 165, 1, 0.5391
13, 6, bw, filler, NA, 999, 999, 8, 24, 161, 179, 146, 65, 146, 66, 1, 1.60243
13, 6, bw, filler, NA, 999, 999, 8, 24, 161, 179, 146, 65, 146, 66, 3, 0.658331
13, 6, bw, attraction, a-b-da, 2, 3, 8, 25, 120, 195, 195, 120, 193, 119, 2, 2.14176
13, 6, bw, attraction, a-b-da, 2, 3, 8, 25, 120, 195, 195, 120, 193, 119, 1, 1.61531
13, 6, bw, attraction, a-b-db, 5, 2, 8, 26, 165, 90, 88, 161, 90, 165, 3, 3.54973
13, 6, bw, attraction, a-b-db, 5, 2, 8, 26, 165, 90, 88, 161, 90, 165, 2, 0.580004
13, 6, bw, attraction, a-b-db, 5, 3, 8, 27, 117, 190, 195, 120, 120, 195, 3, 1.63549
13, 6, bw, attraction, a-b-db, 5, 3, 8, 27, 117, 190, 195, 120, 120, 195, 1, 0.712114
13, 6, bw, filler, NA, 999, 999, 8, 28, 191, 190, 164, 63, 104, 145, 1, 1.37028
13, 6, bw, filler, NA, 999, 999, 8, 28, 191, 190, 164, 63, 104, 145, 2, 0.5634
13, 6, bw, attraction, a-b-db, 9, 3, 8, 29, 114, 186, 120, 195, 195, 120, 2, 4.47431
13, 6, bw, attraction, a-b-db, 9, 3, 8, 29, 114, 186, 120, 195, 195, 120, 1, 2.11028
13, 6, bw, attraction, a-b-da, 14, 2, 8, 30, 153, 83, 90, 165, 165, 90, 3, 2.59185
13, 6, bw, attraction, a-b-da, 14, 2, 8, 30, 153, 83, 90, 165, 165, 90, 1, 0.726257
13, 6, bw, filler, NA, 999, 999, 8, 31, 68, 68, 195, 90, 146, 61, 2, 1.83111
13, 6, bw, filler, NA, 999, 999, 8, 31, 68, 68, 195, 90, 146, 61, 1, 0.813133
13, 6, bw, attraction, a-b-da, 14, 1, 8, 32, 135, 60, 60, 135, 125, 56, 1, 3.19456
13, 6, bw, attraction, a-b-da, 14, 1, 8, 32, 135, 60, 60, 135, 125, 56, 3, 0.729773
13, 6, bw, attraction, a-b-da, 2, 2, 8, 33, 165, 90, 90, 165, 163, 89, 1, 2.04284
13, 6, bw, attraction, a-b-da, 2, 2, 8, 33, 165, 90, 90, 165, 163, 89, 3, 0.752248
13, 6, bw, attraction, a-b-da, 9, 2, 8, 34, 157, 86, 90, 165, 165, 90, 3, 1.688
13, 6, bw, attraction, a-b-da, 9, 2, 8, 34, 157, 86, 90, 165, 165, 90, 1, 0.737637
13, 6, bw, catch, NA, 999, 999, 8, 35, 96, 159, 140, 175, 103, 92, 2, 1.47632
13, 6, bw, catch, NA, 999, 999, 8, 35, 96, 159, 140, 175, 103, 92, 3, 0.639467
13, 6, bw, attraction, a-b-db, 2, 2, 8, 36, 89, 163, 165, 90, 90, 165, 1, 2.68197
13, 6, bw, attraction, a-b-db, 2, 2, 8, 36, 89, 163, 165, 90, 90, 165, 3, 0.693686
13, 6, bw, filler, NA, 999, 999, 8, 37, 113, 122, 176, 106, 69, 162, 2, 1.39468
13, 6, bw, filler, NA, 999, 999, 8, 37, 113, 122, 176, 106, 69, 162, 3, 1.35241
