sub_n, computer_n, bw_cond, effect, set, distance, diag, block_n, trial_n, h1, w1, h2, w2, h3, w3, choice, rt 
165, 6, bw, practice, NA, 999, 999, 0, 1, 125, 185, 83, 64, 120, 115, 1, 2.46962
165, 6, bw, practice, NA, 999, 999, 0, 1, 125, 185, 83, 64, 120, 115, 2, 1.70623
165, 6, bw, practice, NA, 999, 999, 0, 2, 99, 63, 145, 118, 121, 95, 2, 2.06354
165, 6, bw, practice, NA, 999, 999, 0, 2, 99, 63, 145, 118, 121, 95, 1, 1.27521
165, 6, bw, practice, NA, 999, 999, 0, 3, 132, 124, 61, 159, 82, 146, 1, 2.28998
165, 6, bw, practice, NA, 999, 999, 0, 3, 132, 124, 61, 159, 82, 146, 2, 2.27712
165, 6, bw, filler, NA, 999, 999, 1, 1, 136, 143, 69, 146, 161, 159, 3, 1.44314
165, 6, bw, filler, NA, 999, 999, 1, 1, 136, 143, 69, 146, 161, 159, 2, 1.10388
165, 6, bw, attraction, a-b-db, 5, 1, 1, 2, 58, 132, 60, 135, 135, 60, 2, 2.49749
165, 6, bw, attraction, a-b-db, 5, 1, 1, 2, 58, 132, 60, 135, 135, 60, 3, 3.12401
165, 6, bw, attraction, a-b-da, 9, 3, 1, 3, 120, 195, 186, 114, 195, 120, 1, 2.29961
165, 6, bw, attraction, a-b-da, 9, 3, 1, 3, 120, 195, 186, 114, 195, 120, 2, 1.64636
165, 6, bw, attraction, a-b-db, 5, 2, 1, 4, 88, 161, 165, 90, 90, 165, 3, 9.55384
165, 6, bw, attraction, a-b-db, 5, 2, 1, 4, 88, 161, 165, 90, 90, 165, 2, 1.50405
165, 6, bw, filler, NA, 999, 999, 1, 5, 180, 146, 162, 145, 66, 60, 2, 4.89753
165, 6, bw, filler, NA, 999, 999, 1, 5, 180, 146, 162, 145, 66, 60, 3, 0.747259
165, 6, bw, filler, NA, 999, 999, 1, 6, 130, 189, 152, 115, 171, 84, 1, 2.21099
165, 6, bw, filler, NA, 999, 999, 1, 6, 130, 189, 152, 115, 171, 84, 3, 1.433
165, 6, bw, filler, NA, 999, 999, 1, 7, 68, 136, 65, 194, 118, 120, 3, 4.66912
165, 6, bw, filler, NA, 999, 999, 1, 7, 68, 136, 65, 194, 118, 120, 1, 1.15224
165, 6, bw, attraction, a-b-db, 14, 3, 1, 8, 111, 181, 195, 120, 120, 195, 2, 4.89587
165, 6, bw, attraction, a-b-db, 14, 3, 1, 8, 111, 181, 195, 120, 120, 195, 1, 1.07364
165, 6, bw, attraction, a-b-da, 9, 2, 1, 9, 90, 165, 157, 86, 165, 90, 2, 13.0839
165, 6, bw, attraction, a-b-da, 9, 2, 1, 9, 90, 165, 157, 86, 165, 90, 1, 1.03588
165, 6, bw, attraction, a-b-da, 2, 2, 1, 10, 163, 89, 90, 165, 165, 90, 2, 23.992
165, 6, bw, attraction, a-b-da, 2, 2, 1, 10, 163, 89, 90, 165, 165, 90, 1, 0.656629
165, 6, bw, catch, NA, 999, 999, 1, 11, 101, 94, 115, 140, 128, 187, 3, 1.21097
165, 6, bw, catch, NA, 999, 999, 1, 11, 101, 94, 115, 140, 128, 187, 1, 0.377197
165, 6, bw, attraction, a-b-da, 9, 1, 1, 12, 135, 60, 60, 135, 129, 57, 1, 1.79969
165, 6, bw, attraction, a-b-da, 9, 1, 1, 12, 135, 60, 60, 135, 129, 57, 3, 0.44646
165, 6, bw, attraction, a-b-da, 5, 1, 1, 13, 60, 135, 135, 60, 132, 58, 3, 4.33023
165, 6, bw, attraction, a-b-da, 5, 1, 1, 13, 60, 135, 135, 60, 132, 58, 1, 0.442794
165, 6, bw, attraction, a-b-da, 5, 2, 1, 14, 161, 88, 165, 90, 90, 165, 1, 7.16659
165, 6, bw, attraction, a-b-da, 5, 2, 1, 14, 161, 88, 165, 90, 90, 165, 3, 0.885076
165, 6, bw, filler, NA, 999, 999, 1, 15, 121, 157, 60, 136, 151, 153, 3, 1.12734
165, 6, bw, filler, NA, 999, 999, 1, 15, 121, 157, 60, 136, 151, 153, 2, 0.465016
165, 6, bw, attraction, a-b-db, 5, 3, 1, 16, 117, 190, 120, 195, 195, 120, 2, 5.19608
165, 6, bw, attraction, a-b-db, 5, 3, 1, 16, 117, 190, 120, 195, 195, 120, 3, 0.297785
165, 6, bw, attraction, a-b-da, 2, 3, 1, 17, 193, 119, 195, 120, 120, 195, 2, 3.48368
165, 6, bw, attraction, a-b-da, 2, 3, 1, 17, 193, 119, 195, 120, 120, 195, 3, 0.358721
165, 6, bw, attraction, a-b-da, 5, 3, 1, 18, 120, 195, 190, 117, 195, 120, 3, 3.39771
165, 6, bw, attraction, a-b-da, 5, 3, 1, 18, 120, 195, 190, 117, 195, 120, 2, 0.259941
165, 6, bw, attraction, a-b-da, 14, 3, 1, 19, 181, 111, 195, 120, 120, 195, 3, 1.43114
165, 6, bw, attraction, a-b-da, 14, 3, 1, 19, 181, 111, 195, 120, 120, 195, 2, 0.692633
165, 6, bw, attraction, a-b-db, 9, 3, 1, 20, 120, 195, 114, 186, 195, 120, 3, 3.65435
165, 6, bw, attraction, a-b-db, 9, 3, 1, 20, 120, 195, 114, 186, 195, 120, 2, 0.449852
165, 6, bw, attraction, a-b-db, 9, 1, 1, 21, 135, 60, 57, 129, 60, 135, 1, 14.9257
165, 6, bw, attraction, a-b-db, 9, 1, 1, 21, 135, 60, 57, 129, 60, 135, 2, 0.322923
165, 6, bw, filler, NA, 999, 999, 1, 22, 143, 122, 110, 122, 135, 109, 1, 0.964168
165, 6, bw, filler, NA, 999, 999, 1, 22, 143, 122, 110, 122, 135, 109, 3, 0.387871
165, 6, bw, filler, NA, 999, 999, 1, 23, 186, 60, 127, 186, 175, 143, 2, 1.63433
165, 6, bw, filler, NA, 999, 999, 1, 23, 186, 60, 127, 186, 175, 143, 1, 0.447855
165, 6, bw, attraction, a-b-db, 2, 3, 1, 24, 120, 195, 195, 120, 119, 193, 1, 1.82763
165, 6, bw, attraction, a-b-db, 2, 3, 1, 24, 120, 195, 195, 120, 119, 193, 3, 0.385052
165, 6, bw, catch, NA, 999, 999, 1, 25, 96, 159, 132, 63, 166, 149, 3, 1.10346
165, 6, bw, catch, NA, 999, 999, 1, 25, 96, 159, 132, 63, 166, 149, 2, 0.345784
165, 6, bw, attraction, a-b-db, 9, 2, 1, 26, 86, 157, 90, 165, 165, 90, 2, 1.23359
165, 6, bw, attraction, a-b-db, 9, 2, 1, 26, 86, 157, 90, 165, 165, 90, 3, 0.527228
165, 6, bw, attraction, a-b-db, 14, 2, 1, 27, 83, 153, 90, 165, 165, 90, 1, 2.60767
165, 6, bw, attraction, a-b-db, 14, 2, 1, 27, 83, 153, 90, 165, 165, 90, 3, 1.38946
165, 6, bw, filler, NA, 999, 999, 1, 28, 104, 131, 84, 164, 62, 152, 1, 1.47558
165, 6, bw, filler, NA, 999, 999, 1, 28, 104, 131, 84, 164, 62, 152, 3, 0.391231
165, 6, bw, attraction, a-b-db, 14, 1, 1, 29, 135, 60, 60, 135, 56, 125, 1, 3.92499
165, 6, bw, attraction, a-b-db, 14, 1, 1, 29, 135, 60, 60, 135, 56, 125, 3, 0.38975
165, 6, bw, attraction, a-b-db, 2, 1, 1, 30, 135, 60, 59, 134, 60, 135, 2, 2.94749
165, 6, bw, attraction, a-b-db, 2, 1, 1, 30, 135, 60, 59, 134, 60, 135, 1, 0.475889
165, 6, bw, filler, NA, 999, 999, 1, 31, 119, 118, 71, 116, 121, 60, 1, 0.942329
165, 6, bw, filler, NA, 999, 999, 1, 31, 119, 118, 71, 116, 121, 60, 3, 1.40741
165, 6, bw, attraction, a-b-db, 2, 2, 1, 32, 165, 90, 89, 163, 90, 165, 2, 2.83638
165, 6, bw, attraction, a-b-db, 2, 2, 1, 32, 165, 90, 89, 163, 90, 165, 1, 0.777377
165, 6, bw, attraction, a-b-da, 14, 1, 1, 33, 135, 60, 125, 56, 60, 135, 1, 1.30372
165, 6, bw, attraction, a-b-da, 14, 1, 1, 33, 135, 60, 125, 56, 60, 135, 3, 0.482669
165, 6, bw, catch, NA, 999, 999, 1, 34, 174, 141, 62, 133, 94, 161, 1, 4.42901
165, 6, bw, catch, NA, 999, 999, 1, 34, 174, 141, 62, 133, 94, 161, 2, 0.321795
165, 6, bw, attraction, a-b-da, 14, 2, 1, 35, 153, 83, 165, 90, 90, 165, 2, 2.06697
165, 6, bw, attraction, a-b-da, 14, 2, 1, 35, 153, 83, 165, 90, 90, 165, 1, 0.59894
165, 6, bw, filler, NA, 999, 999, 1, 36, 182, 154, 80, 171, 143, 71, 1, 0.756478
165, 6, bw, filler, NA, 999, 999, 1, 36, 182, 154, 80, 171, 143, 71, 3, 0.372943
165, 6, bw, attraction, a-b-da, 2, 1, 1, 37, 134, 59, 60, 135, 135, 60, 2, 6.8434
165, 6, bw, attraction, a-b-da, 2, 1, 1, 37, 134, 59, 60, 135, 135, 60, 3, 0.422583
165, 6, bw, attraction, a-b-da, 14, 2, 2, 1, 153, 83, 90, 165, 165, 90, 2, 4.17907
165, 6, bw, attraction, a-b-da, 14, 2, 2, 1, 153, 83, 90, 165, 165, 90, 1, 0.56173
165, 6, bw, attraction, a-b-da, 5, 2, 2, 2, 161, 88, 165, 90, 90, 165, 1, 1.0329
165, 6, bw, attraction, a-b-da, 5, 2, 2, 2, 161, 88, 165, 90, 90, 165, 2, 0.51058
165, 6, bw, filler, NA, 999, 999, 2, 3, 175, 113, 142, 109, 135, 99, 1, 1.02366
165, 6, bw, filler, NA, 999, 999, 2, 3, 175, 113, 142, 109, 135, 99, 3, 0.541322
165, 6, bw, attraction, a-b-da, 2, 2, 2, 4, 90, 165, 163, 89, 165, 90, 1, 2.84515
165, 6, bw, attraction, a-b-da, 2, 2, 2, 4, 90, 165, 163, 89, 165, 90, 3, 0.569504
165, 6, bw, catch, NA, 999, 999, 2, 5, 92, 163, 134, 181, 62, 133, 2, 0.936573
165, 6, bw, catch, NA, 999, 999, 2, 5, 92, 163, 134, 181, 62, 133, 3, 0.40235
165, 6, bw, attraction, a-b-db, 5, 2, 2, 6, 165, 90, 90, 165, 88, 161, 3, 1.18418
165, 6, bw, attraction, a-b-db, 5, 2, 2, 6, 165, 90, 90, 165, 88, 161, 2, 0.423749
165, 6, bw, attraction, a-b-db, 5, 3, 2, 7, 120, 195, 195, 120, 117, 190, 2, 1.21207
165, 6, bw, attraction, a-b-db, 5, 3, 2, 7, 120, 195, 195, 120, 117, 190, 1, 0.426368
165, 6, bw, attraction, a-b-da, 5, 1, 2, 8, 60, 135, 132, 58, 135, 60, 1, 0.95084
165, 6, bw, attraction, a-b-da, 5, 1, 2, 8, 60, 135, 132, 58, 135, 60, 2, 0.415911
165, 6, bw, attraction, a-b-db, 2, 2, 2, 9, 89, 163, 90, 165, 165, 90, 2, 1.029
165, 6, bw, attraction, a-b-db, 2, 2, 2, 9, 89, 163, 90, 165, 165, 90, 3, 0.514681
165, 6, bw, attraction, a-b-da, 14, 3, 2, 10, 195, 120, 120, 195, 181, 111, 2, 1.01181
165, 6, bw, attraction, a-b-da, 14, 3, 2, 10, 195, 120, 120, 195, 181, 111, 3, 0.426103
165, 6, bw, filler, NA, 999, 999, 2, 11, 119, 125, 191, 162, 156, 140, 2, 0.878547
165, 6, bw, filler, NA, 999, 999, 2, 11, 119, 125, 191, 162, 156, 140, 1, 0.402385
165, 6, bw, attraction, a-b-db, 5, 1, 2, 12, 58, 132, 60, 135, 135, 60, 2, 1.45617
165, 6, bw, attraction, a-b-db, 5, 1, 2, 12, 58, 132, 60, 135, 135, 60, 3, 0.508287
165, 6, bw, attraction, a-b-da, 2, 3, 2, 13, 193, 119, 120, 195, 195, 120, 2, 6.87742
165, 6, bw, attraction, a-b-da, 2, 3, 2, 13, 193, 119, 120, 195, 195, 120, 1, 0.655163
165, 6, bw, catch, NA, 999, 999, 2, 14, 67, 128, 191, 124, 149, 106, 2, 0.826929
165, 6, bw, catch, NA, 999, 999, 2, 14, 67, 128, 191, 124, 149, 106, 1, 0.640632
165, 6, bw, filler, NA, 999, 999, 2, 15, 173, 178, 63, 154, 194, 78, 1, 0.636404
165, 6, bw, filler, NA, 999, 999, 2, 15, 173, 178, 63, 154, 194, 78, 2, 0.594229
165, 6, bw, attraction, a-b-db, 2, 3, 2, 16, 120, 195, 119, 193, 195, 120, 3, 1.79205
165, 6, bw, attraction, a-b-db, 2, 3, 2, 16, 120, 195, 119, 193, 195, 120, 2, 0.318782
165, 6, bw, attraction, a-b-db, 9, 1, 2, 17, 60, 135, 135, 60, 57, 129, 2, 0.863863
165, 6, bw, attraction, a-b-db, 9, 1, 2, 17, 60, 135, 135, 60, 57, 129, 3, 0.476215
165, 6, bw, attraction, a-b-da, 9, 1, 2, 18, 135, 60, 129, 57, 60, 135, 1, 0.878685
165, 6, bw, attraction, a-b-da, 9, 1, 2, 18, 135, 60, 129, 57, 60, 135, 2, 0.554341
165, 6, bw, filler, NA, 999, 999, 2, 19, 112, 119, 155, 112, 138, 98, 2, 0.754166
165, 6, bw, filler, NA, 999, 999, 2, 19, 112, 119, 155, 112, 138, 98, 3, 1.53878
165, 6, bw, attraction, a-b-da, 14, 1, 2, 20, 60, 135, 125, 56, 135, 60, 1, 0.890676
165, 6, bw, attraction, a-b-da, 14, 1, 2, 20, 60, 135, 125, 56, 135, 60, 2, 0.397865
165, 6, bw, filler, NA, 999, 999, 2, 21, 90, 147, 142, 134, 119, 93, 2, 1.16367
165, 6, bw, filler, NA, 999, 999, 2, 21, 90, 147, 142, 134, 119, 93, 3, 0.419916
165, 6, bw, catch, NA, 999, 999, 2, 22, 139, 116, 60, 135, 149, 166, 3, 2.64095
165, 6, bw, catch, NA, 999, 999, 2, 22, 139, 116, 60, 135, 149, 166, 2, 1.17337
165, 6, bw, attraction, a-b-db, 9, 2, 2, 23, 86, 157, 165, 90, 90, 165, 3, 1.55568
165, 6, bw, attraction, a-b-db, 9, 2, 2, 23, 86, 157, 165, 90, 90, 165, 2, 0.42782
165, 6, bw, filler, NA, 999, 999, 2, 24, 77, 150, 141, 102, 126, 77, 2, 1.15226
165, 6, bw, filler, NA, 999, 999, 2, 24, 77, 150, 141, 102, 126, 77, 3, 0.497195
165, 6, bw, attraction, a-b-da, 5, 3, 2, 25, 120, 195, 195, 120, 190, 117, 3, 4.2431
165, 6, bw, attraction, a-b-da, 5, 3, 2, 25, 120, 195, 195, 120, 190, 117, 2, 0.391175
165, 6, bw, attraction, a-b-da, 9, 2, 2, 26, 157, 86, 165, 90, 90, 165, 3, 1.43682
165, 6, bw, attraction, a-b-da, 9, 2, 2, 26, 157, 86, 165, 90, 90, 165, 1, 0.417642
165, 6, bw, attraction, a-b-db, 2, 1, 2, 27, 135, 60, 59, 134, 60, 135, 3, 3.39082
165, 6, bw, attraction, a-b-db, 2, 1, 2, 27, 135, 60, 59, 134, 60, 135, 1, 0.765102
165, 6, bw, filler, NA, 999, 999, 2, 28, 119, 83, 78, 57, 104, 164, 3, 0.916136
165, 6, bw, filler, NA, 999, 999, 2, 28, 119, 83, 78, 57, 104, 164, 2, 0.430458
165, 6, bw, attraction, a-b-db, 14, 3, 2, 29, 120, 195, 195, 120, 111, 181, 2, 0.626961
165, 6, bw, attraction, a-b-db, 14, 3, 2, 29, 120, 195, 195, 120, 111, 181, 3, 0.360683
165, 6, bw, filler, NA, 999, 999, 2, 30, 65, 180, 143, 155, 176, 63, 2, 0.799874
165, 6, bw, filler, NA, 999, 999, 2, 30, 65, 180, 143, 155, 176, 63, 3, 0.974932
165, 6, bw, attraction, a-b-db, 14, 2, 2, 31, 90, 165, 165, 90, 83, 153, 1, 0.757306
165, 6, bw, attraction, a-b-db, 14, 2, 2, 31, 90, 165, 165, 90, 83, 153, 2, 0.381657
165, 6, bw, attraction, a-b-db, 9, 3, 2, 32, 114, 186, 195, 120, 120, 195, 2, 1.74006
165, 6, bw, attraction, a-b-db, 9, 3, 2, 32, 114, 186, 195, 120, 120, 195, 3, 0.268842
165, 6, bw, filler, NA, 999, 999, 2, 33, 154, 65, 81, 57, 64, 81, 1, 7.89607
165, 6, bw, filler, NA, 999, 999, 2, 33, 154, 65, 81, 57, 64, 81, 2, 0.544939
165, 6, bw, filler, NA, 999, 999, 2, 34, 176, 84, 71, 129, 150, 187, 3, 0.936706
165, 6, bw, filler, NA, 999, 999, 2, 34, 176, 84, 71, 129, 150, 187, 2, 0.586399
165, 6, bw, attraction, a-b-da, 9, 3, 2, 35, 195, 120, 186, 114, 120, 195, 1, 5.27281
165, 6, bw, attraction, a-b-da, 9, 3, 2, 35, 195, 120, 186, 114, 120, 195, 2, 0.443084
165, 6, bw, attraction, a-b-da, 2, 1, 2, 36, 134, 59, 135, 60, 60, 135, 3, 2.31885
165, 6, bw, attraction, a-b-da, 2, 1, 2, 36, 134, 59, 135, 60, 60, 135, 1, 0.552812
165, 6, bw, attraction, a-b-db, 14, 1, 2, 37, 60, 135, 56, 125, 135, 60, 2, 1.74469
165, 6, bw, attraction, a-b-db, 14, 1, 2, 37, 60, 135, 56, 125, 135, 60, 3, 0.369509
165, 6, bw, attraction, a-b-da, 14, 2, 3, 1, 165, 90, 153, 83, 90, 165, 3, 0.984606
165, 6, bw, attraction, a-b-da, 14, 2, 3, 1, 165, 90, 153, 83, 90, 165, 2, 0.360321
165, 6, bw, attraction, a-b-da, 9, 1, 3, 2, 129, 57, 60, 135, 135, 60, 2, 0.799404
165, 6, bw, attraction, a-b-da, 9, 1, 3, 2, 129, 57, 60, 135, 135, 60, 1, 0.462355
165, 6, bw, attraction, a-b-da, 2, 2, 3, 3, 163, 89, 165, 90, 90, 165, 3, 0.873591
165, 6, bw, attraction, a-b-da, 2, 2, 3, 3, 163, 89, 165, 90, 90, 165, 2, 0.405248
165, 6, bw, attraction, a-b-db, 9, 1, 3, 4, 57, 129, 135, 60, 60, 135, 1, 0.851029
165, 6, bw, attraction, a-b-db, 9, 1, 3, 4, 57, 129, 135, 60, 60, 135, 2, 0.472101
165, 6, bw, filler, NA, 999, 999, 3, 5, 129, 138, 110, 78, 142, 163, 3, 0.779208
165, 6, bw, filler, NA, 999, 999, 3, 5, 129, 138, 110, 78, 142, 163, 2, 0.570959
165, 6, bw, attraction, a-b-db, 9, 3, 3, 6, 120, 195, 114, 186, 195, 120, 2, 1.05801
165, 6, bw, attraction, a-b-db, 9, 3, 3, 6, 120, 195, 114, 186, 195, 120, 3, 0.494428
165, 6, bw, attraction, a-b-da, 5, 1, 3, 7, 60, 135, 135, 60, 132, 58, 1, 0.736137
165, 6, bw, attraction, a-b-da, 5, 1, 3, 7, 60, 135, 135, 60, 132, 58, 2, 0.482086
165, 6, bw, attraction, a-b-db, 2, 3, 3, 8, 119, 193, 120, 195, 195, 120, 2, 0.860347
165, 6, bw, attraction, a-b-db, 2, 3, 3, 8, 119, 193, 120, 195, 195, 120, 1, 0.448721
165, 6, bw, filler, NA, 999, 999, 3, 9, 128, 179, 89, 110, 68, 56, 1, 0.788532
165, 6, bw, filler, NA, 999, 999, 3, 9, 128, 179, 89, 110, 68, 56, 3, 0.403569
165, 6, bw, filler, NA, 999, 999, 3, 10, 180, 149, 73, 130, 170, 125, 1, 0.953316
165, 6, bw, filler, NA, 999, 999, 3, 10, 180, 149, 73, 130, 170, 125, 2, 0.401708
165, 6, bw, attraction, a-b-db, 14, 1, 3, 11, 56, 125, 60, 135, 135, 60, 3, 1.65573
165, 6, bw, attraction, a-b-db, 14, 1, 3, 11, 56, 125, 60, 135, 135, 60, 2, 0.323915
165, 6, bw, filler, NA, 999, 999, 3, 12, 72, 118, 72, 177, 161, 99, 3, 1.13219
165, 6, bw, filler, NA, 999, 999, 3, 12, 72, 118, 72, 177, 161, 99, 1, 0.469932
165, 6, bw, filler, NA, 999, 999, 3, 13, 96, 160, 192, 64, 136, 179, 3, 0.69699
165, 6, bw, filler, NA, 999, 999, 3, 13, 96, 160, 192, 64, 136, 179, 2, 0.40398
165, 6, bw, filler, NA, 999, 999, 3, 14, 190, 103, 81, 75, 116, 107, 1, 0.78589
165, 6, bw, filler, NA, 999, 999, 3, 14, 190, 103, 81, 75, 116, 107, 2, 1.00963
165, 6, bw, attraction, a-b-db, 2, 1, 3, 15, 60, 135, 135, 60, 59, 134, 2, 4.86257
165, 6, bw, attraction, a-b-db, 2, 1, 3, 15, 60, 135, 135, 60, 59, 134, 1, 0.529688
165, 6, bw, filler, NA, 999, 999, 3, 16, 179, 88, 182, 134, 91, 102, 2, 1.74614
165, 6, bw, filler, NA, 999, 999, 3, 16, 179, 88, 182, 134, 91, 102, 3, 0.586863
165, 6, bw, attraction, a-b-da, 9, 2, 3, 17, 90, 165, 157, 86, 165, 90, 3, 3.04131
165, 6, bw, attraction, a-b-da, 9, 2, 3, 17, 90, 165, 157, 86, 165, 90, 1, 0.469645
165, 6, bw, attraction, a-b-da, 9, 3, 3, 18, 195, 120, 120, 195, 186, 114, 2, 0.832771
165, 6, bw, attraction, a-b-da, 9, 3, 3, 18, 195, 120, 120, 195, 186, 114, 3, 0.526479
165, 6, bw, attraction, a-b-da, 14, 3, 3, 19, 120, 195, 195, 120, 181, 111, 3, 2.97499
165, 6, bw, attraction, a-b-da, 14, 3, 3, 19, 120, 195, 195, 120, 181, 111, 2, 0.590003
165, 6, bw, attraction, a-b-db, 5, 1, 3, 20, 135, 60, 58, 132, 60, 135, 2, 1.15567
165, 6, bw, attraction, a-b-db, 5, 1, 3, 20, 135, 60, 58, 132, 60, 135, 3, 0.460025
165, 6, bw, filler, NA, 999, 999, 3, 21, 140, 114, 195, 58, 98, 123, 1, 0.62309
165, 6, bw, filler, NA, 999, 999, 3, 21, 140, 114, 195, 58, 98, 123, 2, 3.79689
165, 6, bw, catch, NA, 999, 999, 3, 22, 133, 182, 156, 99, 126, 69, 1, 1.28164
165, 6, bw, catch, NA, 999, 999, 3, 22, 133, 182, 156, 99, 126, 69, 3, 0.613185
165, 6, bw, attraction, a-b-db, 5, 2, 3, 23, 88, 161, 165, 90, 90, 165, 1, 3.71426
165, 6, bw, attraction, a-b-db, 5, 2, 3, 23, 88, 161, 165, 90, 90, 165, 2, 0.427738
165, 6, bw, attraction, a-b-db, 14, 2, 3, 24, 90, 165, 83, 153, 165, 90, 3, 3.35228
165, 6, bw, attraction, a-b-db, 14, 2, 3, 24, 90, 165, 83, 153, 165, 90, 2, 0.608491
165, 6, bw, attraction, a-b-da, 2, 3, 3, 25, 120, 195, 193, 119, 195, 120, 3, 1.22159
165, 6, bw, attraction, a-b-da, 2, 3, 3, 25, 120, 195, 193, 119, 195, 120, 2, 0.443241
165, 6, bw, catch, NA, 999, 999, 3, 26, 124, 191, 112, 143, 123, 72, 1, 1.27098
165, 6, bw, catch, NA, 999, 999, 3, 26, 124, 191, 112, 143, 123, 72, 3, 0.578549
165, 6, bw, attraction, a-b-db, 5, 3, 3, 27, 195, 120, 117, 190, 120, 195, 3, 1.91316
165, 6, bw, attraction, a-b-db, 5, 3, 3, 27, 195, 120, 117, 190, 120, 195, 1, 0.986998
165, 6, bw, filler, NA, 999, 999, 3, 28, 81, 178, 193, 102, 123, 115, 3, 0.921385
165, 6, bw, filler, NA, 999, 999, 3, 28, 81, 178, 193, 102, 123, 115, 2, 0.491013
165, 6, bw, catch, NA, 999, 999, 3, 29, 155, 100, 152, 163, 61, 134, 2, 0.940805
165, 6, bw, catch, NA, 999, 999, 3, 29, 155, 100, 152, 163, 61, 134, 3, 0.76578
165, 6, bw, attraction, a-b-db, 9, 2, 3, 30, 165, 90, 86, 157, 90, 165, 3, 1.4769
165, 6, bw, attraction, a-b-db, 9, 2, 3, 30, 165, 90, 86, 157, 90, 165, 2, 0.472432
165, 6, bw, attraction, a-b-da, 5, 3, 3, 31, 120, 195, 195, 120, 190, 117, 1, 1.16349
165, 6, bw, attraction, a-b-da, 5, 3, 3, 31, 120, 195, 195, 120, 190, 117, 3, 0.587922
165, 6, bw, attraction, a-b-db, 2, 2, 3, 32, 165, 90, 90, 165, 89, 163, 2, 0.898228
165, 6, bw, attraction, a-b-db, 2, 2, 3, 32, 165, 90, 90, 165, 89, 163, 3, 0.501405
165, 6, bw, attraction, a-b-db, 14, 3, 3, 33, 111, 181, 120, 195, 195, 120, 3, 0.871025
165, 6, bw, attraction, a-b-db, 14, 3, 3, 33, 111, 181, 120, 195, 195, 120, 1, 0.498847
165, 6, bw, filler, NA, 999, 999, 3, 34, 136, 75, 84, 102, 78, 142, 3, 1.45249
165, 6, bw, filler, NA, 999, 999, 3, 34, 136, 75, 84, 102, 78, 142, 2, 2.47335
165, 6, bw, attraction, a-b-da, 5, 2, 3, 35, 90, 165, 165, 90, 161, 88, 3, 3.71521
165, 6, bw, attraction, a-b-da, 5, 2, 3, 35, 90, 165, 165, 90, 161, 88, 1, 0.860642
165, 6, bw, attraction, a-b-da, 14, 1, 3, 36, 125, 56, 135, 60, 60, 135, 2, 0.911643
165, 6, bw, attraction, a-b-da, 14, 1, 3, 36, 125, 56, 135, 60, 60, 135, 3, 0.466135
165, 6, bw, attraction, a-b-da, 2, 1, 3, 37, 135, 60, 134, 59, 60, 135, 2, 0.749171
165, 6, bw, attraction, a-b-da, 2, 1, 3, 37, 135, 60, 134, 59, 60, 135, 3, 0.502215
165, 6, bw, attraction, a-b-da, 9, 3, 4, 1, 120, 195, 195, 120, 186, 114, 3, 0.951941
165, 6, bw, attraction, a-b-da, 9, 3, 4, 1, 120, 195, 195, 120, 186, 114, 2, 0.368983
165, 6, bw, filler, NA, 999, 999, 4, 2, 68, 83, 116, 164, 122, 88, 2, 1.60818
165, 6, bw, filler, NA, 999, 999, 4, 2, 68, 83, 116, 164, 122, 88, 1, 0.430272
165, 6, bw, attraction, a-b-db, 14, 3, 4, 3, 120, 195, 111, 181, 195, 120, 3, 0.986886
165, 6, bw, attraction, a-b-db, 14, 3, 4, 3, 120, 195, 111, 181, 195, 120, 2, 0.553847
165, 6, bw, attraction, a-b-da, 14, 1, 4, 4, 125, 56, 60, 135, 135, 60, 2, 1.49749
165, 6, bw, attraction, a-b-da, 14, 1, 4, 4, 125, 56, 60, 135, 135, 60, 1, 0.612354
165, 6, bw, catch, NA, 999, 999, 4, 5, 120, 75, 182, 133, 102, 153, 2, 1.02553
165, 6, bw, catch, NA, 999, 999, 4, 5, 120, 75, 182, 133, 102, 153, 1, 0.479132
165, 6, bw, attraction, a-b-db, 14, 1, 4, 6, 135, 60, 56, 125, 60, 135, 2, 1.97755
165, 6, bw, attraction, a-b-db, 14, 1, 4, 6, 135, 60, 56, 125, 60, 135, 1, 0.528898
165, 6, bw, filler, NA, 999, 999, 4, 7, 167, 176, 60, 125, 88, 70, 1, 1.66535
165, 6, bw, filler, NA, 999, 999, 4, 7, 167, 176, 60, 125, 88, 70, 3, 0.50161
165, 6, bw, filler, NA, 999, 999, 4, 8, 169, 104, 124, 158, 102, 182, 2, 3.55141
165, 6, bw, filler, NA, 999, 999, 4, 8, 169, 104, 124, 158, 102, 182, 1, 1.1035
165, 6, bw, filler, NA, 999, 999, 4, 9, 73, 94, 61, 188, 130, 57, 2, 1.74513
165, 6, bw, filler, NA, 999, 999, 4, 9, 73, 94, 61, 188, 130, 57, 1, 0.481773
165, 6, bw, catch, NA, 999, 999, 4, 10, 193, 122, 122, 133, 115, 80, 1, 1.89234
165, 6, bw, catch, NA, 999, 999, 4, 10, 193, 122, 122, 133, 115, 80, 3, 0.599057
165, 6, bw, attraction, a-b-da, 14, 2, 4, 11, 153, 83, 165, 90, 90, 165, 3, 3.31673
165, 6, bw, attraction, a-b-da, 14, 2, 4, 11, 153, 83, 165, 90, 90, 165, 1, 0.670346
165, 6, bw, attraction, a-b-da, 5, 3, 4, 12, 120, 195, 195, 120, 190, 117, 2, 1.6895
165, 6, bw, attraction, a-b-da, 5, 3, 4, 12, 120, 195, 195, 120, 190, 117, 3, 0.444158
165, 6, bw, attraction, a-b-da, 9, 2, 4, 13, 157, 86, 90, 165, 165, 90, 2, 3.10398
165, 6, bw, attraction, a-b-da, 9, 2, 4, 13, 157, 86, 90, 165, 165, 90, 1, 0.514339
165, 6, bw, attraction, a-b-da, 2, 2, 4, 14, 90, 165, 165, 90, 163, 89, 1, 1.53948
165, 6, bw, attraction, a-b-da, 2, 2, 4, 14, 90, 165, 165, 90, 163, 89, 2, 0.71639
165, 6, bw, attraction, a-b-da, 5, 2, 4, 15, 165, 90, 90, 165, 161, 88, 2, 1.12537
165, 6, bw, attraction, a-b-da, 5, 2, 4, 15, 165, 90, 90, 165, 161, 88, 1, 0.502988
165, 6, bw, catch, NA, 999, 999, 4, 16, 78, 117, 153, 102, 189, 126, 3, 0.896727
165, 6, bw, catch, NA, 999, 999, 4, 16, 78, 117, 153, 102, 189, 126, 1, 0.57973
165, 6, bw, attraction, a-b-da, 5, 1, 4, 17, 135, 60, 60, 135, 132, 58, 2, 3.5143
165, 6, bw, attraction, a-b-da, 5, 1, 4, 17, 135, 60, 60, 135, 132, 58, 3, 0.539734
165, 6, bw, attraction, a-b-db, 9, 3, 4, 18, 120, 195, 114, 186, 195, 120, 3, 1.2435
165, 6, bw, attraction, a-b-db, 9, 3, 4, 18, 120, 195, 114, 186, 195, 120, 1, 0.92837
165, 6, bw, attraction, a-b-db, 2, 1, 4, 19, 60, 135, 59, 134, 135, 60, 2, 1.23279
165, 6, bw, attraction, a-b-db, 2, 1, 4, 19, 60, 135, 59, 134, 135, 60, 3, 0.662383
165, 6, bw, attraction, a-b-da, 2, 1, 4, 20, 134, 59, 60, 135, 135, 60, 3, 2.90549
165, 6, bw, attraction, a-b-da, 2, 1, 4, 20, 134, 59, 60, 135, 135, 60, 2, 0.955188
165, 6, bw, attraction, a-b-db, 2, 2, 4, 21, 90, 165, 165, 90, 89, 163, 3, 1.2268
165, 6, bw, attraction, a-b-db, 2, 2, 4, 21, 90, 165, 165, 90, 89, 163, 1, 0.480398
165, 6, bw, attraction, a-b-db, 2, 3, 4, 22, 195, 120, 120, 195, 119, 193, 2, 2.87481
165, 6, bw, attraction, a-b-db, 2, 3, 4, 22, 195, 120, 120, 195, 119, 193, 1, 0.701839
165, 6, bw, attraction, a-b-db, 14, 2, 4, 23, 90, 165, 165, 90, 83, 153, 3, 0.97571
165, 6, bw, attraction, a-b-db, 14, 2, 4, 23, 90, 165, 165, 90, 83, 153, 1, 0.487293
165, 6, bw, filler, NA, 999, 999, 4, 24, 56, 79, 74, 176, 129, 179, 3, 0.793715
165, 6, bw, filler, NA, 999, 999, 4, 24, 56, 79, 74, 176, 129, 179, 1, 0.488821
165, 6, bw, attraction, a-b-db, 5, 1, 4, 25, 60, 135, 135, 60, 58, 132, 3, 0.875249
165, 6, bw, attraction, a-b-db, 5, 1, 4, 25, 60, 135, 135, 60, 58, 132, 2, 0.439025
165, 6, bw, attraction, a-b-db, 5, 3, 4, 26, 120, 195, 195, 120, 117, 190, 2, 1.27557
165, 6, bw, attraction, a-b-db, 5, 3, 4, 26, 120, 195, 195, 120, 117, 190, 1, 0.607184
165, 6, bw, attraction, a-b-db, 5, 2, 4, 27, 90, 165, 165, 90, 88, 161, 3, 2.55608
165, 6, bw, attraction, a-b-db, 5, 2, 4, 27, 90, 165, 165, 90, 88, 161, 1, 0.555953
165, 6, bw, filler, NA, 999, 999, 4, 28, 96, 188, 173, 131, 114, 121, 2, 0.739748
165, 6, bw, filler, NA, 999, 999, 4, 28, 96, 188, 173, 131, 114, 121, 3, 0.668821
165, 6, bw, attraction, a-b-da, 9, 1, 4, 29, 135, 60, 60, 135, 129, 57, 2, 0.975949
165, 6, bw, attraction, a-b-da, 9, 1, 4, 29, 135, 60, 60, 135, 129, 57, 3, 0.599631
165, 6, bw, filler, NA, 999, 999, 4, 30, 103, 73, 66, 129, 157, 170, 3, 0.96541
165, 6, bw, filler, NA, 999, 999, 4, 30, 103, 73, 66, 129, 157, 170, 1, 0.541521
165, 6, bw, filler, NA, 999, 999, 4, 31, 164, 89, 171, 141, 160, 90, 2, 0.781402
165, 6, bw, filler, NA, 999, 999, 4, 31, 164, 89, 171, 141, 160, 90, 3, 0.485152
165, 6, bw, filler, NA, 999, 999, 4, 32, 154, 106, 181, 106, 150, 190, 3, 0.903507
165, 6, bw, filler, NA, 999, 999, 4, 32, 154, 106, 181, 106, 150, 190, 1, 0.618751
165, 6, bw, attraction, a-b-db, 9, 1, 4, 33, 57, 129, 135, 60, 60, 135, 2, 0.879756
165, 6, bw, attraction, a-b-db, 9, 1, 4, 33, 57, 129, 135, 60, 60, 135, 3, 0.619366
165, 6, bw, filler, NA, 999, 999, 4, 34, 182, 85, 181, 108, 116, 142, 2, 1.32044
165, 6, bw, filler, NA, 999, 999, 4, 34, 182, 85, 181, 108, 116, 142, 1, 0.457939
165, 6, bw, attraction, a-b-db, 9, 2, 4, 35, 90, 165, 86, 157, 165, 90, 2, 4.27708
165, 6, bw, attraction, a-b-db, 9, 2, 4, 35, 90, 165, 86, 157, 165, 90, 3, 0.863923
165, 6, bw, attraction, a-b-da, 14, 3, 4, 36, 120, 195, 195, 120, 181, 111, 2, 0.778918
165, 6, bw, attraction, a-b-da, 14, 3, 4, 36, 120, 195, 195, 120, 181, 111, 1, 1.00252
165, 6, bw, attraction, a-b-da, 2, 3, 4, 37, 193, 119, 195, 120, 120, 195, 2, 1.31218
165, 6, bw, attraction, a-b-da, 2, 3, 4, 37, 193, 119, 195, 120, 120, 195, 1, 0.426499
165, 6, bw, attraction, a-b-db, 9, 3, 5, 1, 114, 186, 195, 120, 120, 195, 3, 3.55751
165, 6, bw, attraction, a-b-db, 9, 3, 5, 1, 114, 186, 195, 120, 120, 195, 2, 0.637008
165, 6, bw, attraction, a-b-da, 14, 2, 5, 2, 90, 165, 153, 83, 165, 90, 1, 1.08138
165, 6, bw, attraction, a-b-da, 14, 2, 5, 2, 90, 165, 153, 83, 165, 90, 3, 0.597135
165, 6, bw, filler, NA, 999, 999, 5, 3, 100, 140, 103, 108, 104, 128, 1, 1.25072
165, 6, bw, filler, NA, 999, 999, 5, 3, 100, 140, 103, 108, 104, 128, 2, 0.591667
165, 6, bw, attraction, a-b-db, 14, 3, 5, 4, 120, 195, 111, 181, 195, 120, 3, 2.29367
165, 6, bw, attraction, a-b-db, 14, 3, 5, 4, 120, 195, 111, 181, 195, 120, 2, 0.480024
165, 6, bw, filler, NA, 999, 999, 5, 5, 177, 96, 92, 144, 194, 95, 1, 1.02646
165, 6, bw, filler, NA, 999, 999, 5, 5, 177, 96, 92, 144, 194, 95, 2, 0.440193
165, 6, bw, attraction, a-b-da, 2, 1, 5, 6, 135, 60, 60, 135, 134, 59, 3, 2.47603
165, 6, bw, attraction, a-b-da, 2, 1, 5, 6, 135, 60, 60, 135, 134, 59, 2, 0.751233
165, 6, bw, filler, NA, 999, 999, 5, 7, 145, 63, 81, 82, 127, 113, 3, 0.870875
165, 6, bw, filler, NA, 999, 999, 5, 7, 145, 63, 81, 82, 127, 113, 2, 0.482526
165, 6, bw, filler, NA, 999, 999, 5, 8, 74, 164, 119, 81, 176, 194, 3, 0.549
165, 6, bw, filler, NA, 999, 999, 5, 8, 74, 164, 119, 81, 176, 194, 2, 0.758236
165, 6, bw, attraction, a-b-db, 2, 2, 5, 9, 90, 165, 165, 90, 89, 163, 1, 0.941161
165, 6, bw, attraction, a-b-db, 2, 2, 5, 9, 90, 165, 165, 90, 89, 163, 2, 0.446186
165, 6, bw, attraction, a-b-db, 14, 1, 5, 10, 60, 135, 135, 60, 56, 125, 1, 0.833943
165, 6, bw, attraction, a-b-db, 14, 1, 5, 10, 60, 135, 135, 60, 56, 125, 2, 0.431788
165, 6, bw, filler, NA, 999, 999, 5, 11, 107, 66, 164, 66, 120, 171, 3, 1.04424
165, 6, bw, filler, NA, 999, 999, 5, 11, 107, 66, 164, 66, 120, 171, 1, 0.433152
165, 6, bw, attraction, a-b-db, 9, 2, 5, 12, 86, 157, 165, 90, 90, 165, 3, 1.30964
165, 6, bw, attraction, a-b-db, 9, 2, 5, 12, 86, 157, 165, 90, 90, 165, 2, 0.359916
165, 6, bw, attraction, a-b-db, 2, 1, 5, 13, 135, 60, 60, 135, 59, 134, 2, 1.55909
165, 6, bw, attraction, a-b-db, 2, 1, 5, 13, 135, 60, 60, 135, 59, 134, 3, 0.487231
165, 6, bw, filler, NA, 999, 999, 5, 14, 135, 137, 143, 131, 61, 147, 2, 0.945789
165, 6, bw, filler, NA, 999, 999, 5, 14, 135, 137, 143, 131, 61, 147, 3, 0.538675
165, 6, bw, attraction, a-b-db, 5, 2, 5, 15, 165, 90, 88, 161, 90, 165, 3, 0.78704
165, 6, bw, attraction, a-b-db, 5, 2, 5, 15, 165, 90, 88, 161, 90, 165, 2, 0.378783
165, 6, bw, attraction, a-b-da, 5, 2, 5, 16, 165, 90, 90, 165, 161, 88, 2, 0.993317
165, 6, bw, attraction, a-b-da, 5, 2, 5, 16, 165, 90, 90, 165, 161, 88, 1, 0.592352
165, 6, bw, attraction, a-b-da, 5, 1, 5, 17, 132, 58, 135, 60, 60, 135, 3, 0.910068
165, 6, bw, attraction, a-b-da, 5, 1, 5, 17, 132, 58, 135, 60, 60, 135, 2, 0.52842
165, 6, bw, attraction, a-b-da, 2, 3, 5, 18, 193, 119, 195, 120, 120, 195, 3, 1.05702
165, 6, bw, attraction, a-b-da, 2, 3, 5, 18, 193, 119, 195, 120, 120, 195, 2, 0.63723
165, 6, bw, attraction, a-b-da, 5, 3, 5, 19, 190, 117, 120, 195, 195, 120, 2, 2.51366
165, 6, bw, attraction, a-b-da, 5, 3, 5, 19, 190, 117, 120, 195, 195, 120, 1, 0.467473
165, 6, bw, catch, NA, 999, 999, 5, 20, 156, 159, 161, 94, 65, 130, 1, 1.04656
165, 6, bw, catch, NA, 999, 999, 5, 20, 156, 159, 161, 94, 65, 130, 3, 0.419626
165, 6, bw, attraction, a-b-da, 14, 3, 5, 21, 181, 111, 195, 120, 120, 195, 3, 0.904685
165, 6, bw, attraction, a-b-da, 14, 3, 5, 21, 181, 111, 195, 120, 120, 195, 1, 0.515114
165, 6, bw, attraction, a-b-db, 9, 1, 5, 22, 60, 135, 57, 129, 135, 60, 1, 1.10819
165, 6, bw, attraction, a-b-db, 9, 1, 5, 22, 60, 135, 57, 129, 135, 60, 2, 0.710435
165, 6, bw, attraction, a-b-da, 9, 1, 5, 23, 135, 60, 60, 135, 129, 57, 1, 1.36759
165, 6, bw, attraction, a-b-da, 9, 1, 5, 23, 135, 60, 60, 135, 129, 57, 2, 0.399721
165, 6, bw, filler, NA, 999, 999, 5, 24, 175, 186, 105, 143, 187, 135, 3, 0.765512
165, 6, bw, filler, NA, 999, 999, 5, 24, 175, 186, 105, 143, 187, 135, 2, 0.325912
165, 6, bw, attraction, a-b-db, 5, 1, 5, 25, 135, 60, 58, 132, 60, 135, 3, 0.726432
165, 6, bw, attraction, a-b-db, 5, 1, 5, 25, 135, 60, 58, 132, 60, 135, 2, 0.368165
165, 6, bw, attraction, a-b-da, 9, 2, 5, 26, 157, 86, 90, 165, 165, 90, 2, 0.863364
165, 6, bw, attraction, a-b-da, 9, 2, 5, 26, 157, 86, 90, 165, 165, 90, 3, 0.427825
165, 6, bw, attraction, a-b-db, 14, 2, 5, 27, 90, 165, 83, 153, 165, 90, 3, 0.816227
165, 6, bw, attraction, a-b-db, 14, 2, 5, 27, 90, 165, 83, 153, 165, 90, 1, 0.510606
165, 6, bw, filler, NA, 999, 999, 5, 28, 71, 76, 79, 82, 96, 166, 3, 0.967694
165, 6, bw, filler, NA, 999, 999, 5, 28, 71, 76, 79, 82, 96, 166, 2, 0.472011
165, 6, bw, attraction, a-b-da, 2, 2, 5, 29, 165, 90, 163, 89, 90, 165, 3, 0.619164
165, 6, bw, attraction, a-b-da, 2, 2, 5, 29, 165, 90, 163, 89, 90, 165, 2, 0.313577
165, 6, bw, attraction, a-b-da, 9, 3, 5, 30, 186, 114, 195, 120, 120, 195, 1, 0.786806
165, 6, bw, attraction, a-b-da, 9, 3, 5, 30, 186, 114, 195, 120, 120, 195, 2, 0.39391
165, 6, bw, attraction, a-b-da, 14, 1, 5, 31, 60, 135, 125, 56, 135, 60, 3, 0.767626
165, 6, bw, attraction, a-b-da, 14, 1, 5, 31, 60, 135, 125, 56, 135, 60, 1, 0.392024
165, 6, bw, filler, NA, 999, 999, 5, 32, 96, 64, 113, 136, 64, 78, 2, 0.837895
165, 6, bw, filler, NA, 999, 999, 5, 32, 96, 64, 113, 136, 64, 78, 3, 0.66691
165, 6, bw, filler, NA, 999, 999, 5, 33, 179, 112, 157, 144, 84, 59, 2, 0.662089
165, 6, bw, filler, NA, 999, 999, 5, 33, 179, 112, 157, 144, 84, 59, 3, 0.442467
165, 6, bw, catch, NA, 999, 999, 5, 34, 80, 115, 132, 123, 151, 164, 3, 0.902268
165, 6, bw, catch, NA, 999, 999, 5, 34, 80, 115, 132, 123, 151, 164, 1, 0.377248
165, 6, bw, attraction, a-b-db, 2, 3, 5, 35, 195, 120, 119, 193, 120, 195, 3, 2.76781
165, 6, bw, attraction, a-b-db, 2, 3, 5, 35, 195, 120, 119, 193, 120, 195, 1, 0.503589
165, 6, bw, catch, NA, 999, 999, 5, 36, 98, 157, 178, 137, 134, 61, 2, 1.70532
165, 6, bw, catch, NA, 999, 999, 5, 36, 98, 157, 178, 137, 134, 61, 3, 0.707379
165, 6, bw, attraction, a-b-db, 5, 3, 5, 37, 117, 190, 195, 120, 120, 195, 3, 2.6046
165, 6, bw, attraction, a-b-db, 5, 3, 5, 37, 117, 190, 195, 120, 120, 195, 2, 0.754401
165, 6, bw, attraction, a-b-da, 5, 3, 6, 1, 120, 195, 190, 117, 195, 120, 3, 1.87402
165, 6, bw, attraction, a-b-da, 5, 3, 6, 1, 120, 195, 190, 117, 195, 120, 2, 0.389349
165, 6, bw, attraction, a-b-db, 5, 2, 6, 2, 90, 165, 88, 161, 165, 90, 3, 1.27597
165, 6, bw, attraction, a-b-db, 5, 2, 6, 2, 90, 165, 88, 161, 165, 90, 2, 0.983449
165, 6, bw, attraction, a-b-da, 9, 2, 6, 3, 165, 90, 157, 86, 90, 165, 3, 0.973832
165, 6, bw, attraction, a-b-da, 9, 2, 6, 3, 165, 90, 157, 86, 90, 165, 2, 1.0454
165, 6, bw, attraction, a-b-db, 9, 1, 6, 4, 60, 135, 57, 129, 135, 60, 3, 3.88918
165, 6, bw, attraction, a-b-db, 9, 1, 6, 4, 60, 135, 57, 129, 135, 60, 2, 0.403085
165, 6, bw, attraction, a-b-da, 14, 3, 6, 5, 120, 195, 195, 120, 181, 111, 3, 1.10498
165, 6, bw, attraction, a-b-da, 14, 3, 6, 5, 120, 195, 195, 120, 181, 111, 2, 0.483259
165, 6, bw, catch, NA, 999, 999, 6, 6, 155, 160, 158, 97, 80, 115, 1, 0.981742
165, 6, bw, catch, NA, 999, 999, 6, 6, 155, 160, 158, 97, 80, 115, 3, 0.533367
165, 6, bw, filler, NA, 999, 999, 6, 7, 113, 101, 69, 195, 69, 183, 1, 2.4538
165, 6, bw, filler, NA, 999, 999, 6, 7, 113, 101, 69, 195, 69, 183, 2, 0.673734
165, 6, bw, attraction, a-b-db, 2, 3, 6, 8, 195, 120, 120, 195, 119, 193, 3, 2.5401
165, 6, bw, attraction, a-b-db, 2, 3, 6, 8, 195, 120, 120, 195, 119, 193, 1, 1.40455
165, 6, bw, attraction, a-b-da, 9, 1, 6, 9, 129, 57, 60, 135, 135, 60, 3, 0.714077
165, 6, bw, attraction, a-b-da, 9, 1, 6, 9, 129, 57, 60, 135, 135, 60, 2, 0.404494
165, 6, bw, filler, NA, 999, 999, 6, 10, 185, 92, 96, 130, 57, 164, 1, 1.04244
165, 6, bw, filler, NA, 999, 999, 6, 10, 185, 92, 96, 130, 57, 164, 3, 0.599439
165, 6, bw, attraction, a-b-db, 14, 1, 6, 11, 60, 135, 135, 60, 56, 125, 2, 0.924968
165, 6, bw, attraction, a-b-db, 14, 1, 6, 11, 60, 135, 135, 60, 56, 125, 3, 0.5189
165, 6, bw, attraction, a-b-da, 5, 1, 6, 12, 135, 60, 60, 135, 132, 58, 1, 0.695773
165, 6, bw, attraction, a-b-da, 5, 1, 6, 12, 135, 60, 60, 135, 132, 58, 2, 0.41892
165, 6, bw, attraction, a-b-db, 5, 3, 6, 13, 117, 190, 120, 195, 195, 120, 3, 0.896107
165, 6, bw, attraction, a-b-db, 5, 3, 6, 13, 117, 190, 120, 195, 195, 120, 2, 0.475148
165, 6, bw, filler, NA, 999, 999, 6, 14, 72, 109, 106, 69, 136, 170, 3, 0.65357
165, 6, bw, filler, NA, 999, 999, 6, 14, 72, 109, 106, 69, 136, 170, 1, 0.426
165, 6, bw, filler, NA, 999, 999, 6, 15, 148, 59, 143, 101, 125, 164, 3, 0.830468
165, 6, bw, filler, NA, 999, 999, 6, 15, 148, 59, 143, 101, 125, 164, 1, 0.844218
165, 6, bw, catch, NA, 999, 999, 6, 16, 111, 144, 113, 82, 154, 161, 3, 0.607824
165, 6, bw, catch, NA, 999, 999, 6, 16, 111, 144, 113, 82, 154, 161, 2, 0.614256
165, 6, bw, attraction, a-b-db, 14, 2, 6, 17, 83, 153, 90, 165, 165, 90, 3, 0.707409
165, 6, bw, attraction, a-b-db, 14, 2, 6, 17, 83, 153, 90, 165, 165, 90, 2, 0.853813
165, 6, bw, attraction, a-b-da, 2, 1, 6, 18, 60, 135, 134, 59, 135, 60, 3, 0.73748
165, 6, bw, attraction, a-b-da, 2, 1, 6, 18, 60, 135, 134, 59, 135, 60, 1, 0.658582
165, 6, bw, attraction, a-b-db, 2, 1, 6, 19, 60, 135, 135, 60, 59, 134, 3, 0.949617
165, 6, bw, attraction, a-b-db, 2, 1, 6, 19, 60, 135, 135, 60, 59, 134, 2, 0.582673
165, 6, bw, attraction, a-b-da, 14, 2, 6, 20, 90, 165, 165, 90, 153, 83, 3, 1.55711
165, 6, bw, attraction, a-b-da, 14, 2, 6, 20, 90, 165, 165, 90, 153, 83, 1, 0.405219
165, 6, bw, attraction, a-b-da, 14, 1, 6, 21, 60, 135, 125, 56, 135, 60, 3, 0.739002
165, 6, bw, attraction, a-b-da, 14, 1, 6, 21, 60, 135, 125, 56, 135, 60, 2, 0.716138
165, 6, bw, attraction, a-b-db, 5, 1, 6, 22, 60, 135, 135, 60, 58, 132, 3, 0.693117
165, 6, bw, attraction, a-b-db, 5, 1, 6, 22, 60, 135, 135, 60, 58, 132, 2, 0.864271
165, 6, bw, filler, NA, 999, 999, 6, 23, 159, 79, 67, 56, 140, 102, 3, 0.699313
165, 6, bw, filler, NA, 999, 999, 6, 23, 159, 79, 67, 56, 140, 102, 2, 0.638361
165, 6, bw, attraction, a-b-db, 9, 2, 6, 24, 90, 165, 86, 157, 165, 90, 3, 1.10677
165, 6, bw, attraction, a-b-db, 9, 2, 6, 24, 90, 165, 86, 157, 165, 90, 2, 0.38104
165, 6, bw, attraction, a-b-db, 14, 3, 6, 25, 111, 181, 195, 120, 120, 195, 3, 0.499618
165, 6, bw, attraction, a-b-db, 14, 3, 6, 25, 111, 181, 195, 120, 120, 195, 2, 0.49507
165, 6, bw, filler, NA, 999, 999, 6, 26, 172, 103, 59, 189, 182, 170, 3, 0.904452
165, 6, bw, filler, NA, 999, 999, 6, 26, 172, 103, 59, 189, 182, 170, 2, 0.698842
165, 6, bw, filler, NA, 999, 999, 6, 27, 159, 162, 116, 128, 114, 97, 1, 0.564632
165, 6, bw, filler, NA, 999, 999, 6, 27, 159, 162, 116, 128, 114, 97, 3, 0.661104
165, 6, bw, filler, NA, 999, 999, 6, 28, 72, 60, 179, 178, 136, 129, 2, 0.632188
165, 6, bw, filler, NA, 999, 999, 6, 28, 72, 60, 179, 178, 136, 129, 1, 0.501984
165, 6, bw, attraction, a-b-da, 2, 2, 6, 29, 163, 89, 165, 90, 90, 165, 1, 0.911798
165, 6, bw, attraction, a-b-da, 2, 2, 6, 29, 163, 89, 165, 90, 90, 165, 3, 0.562038
165, 6, bw, filler, NA, 999, 999, 6, 30, 79, 82, 160, 108, 118, 66, 2, 0.921081
165, 6, bw, filler, NA, 999, 999, 6, 30, 79, 82, 160, 108, 118, 66, 1, 0.506762
165, 6, bw, attraction, a-b-da, 2, 3, 6, 31, 193, 119, 195, 120, 120, 195, 3, 1.21188
165, 6, bw, attraction, a-b-da, 2, 3, 6, 31, 193, 119, 195, 120, 120, 195, 2, 0.474137
165, 6, bw, attraction, a-b-db, 9, 3, 6, 32, 114, 186, 120, 195, 195, 120, 2, 6.20467
165, 6, bw, attraction, a-b-db, 9, 3, 6, 32, 114, 186, 120, 195, 195, 120, 3, 0.442
165, 6, bw, filler, NA, 999, 999, 6, 33, 70, 98, 156, 135, 72, 73, 2, 0.733789
165, 6, bw, filler, NA, 999, 999, 6, 33, 70, 98, 156, 135, 72, 73, 3, 0.743585
165, 6, bw, attraction, a-b-da, 9, 3, 6, 34, 186, 114, 120, 195, 195, 120, 2, 0.959166
165, 6, bw, attraction, a-b-da, 9, 3, 6, 34, 186, 114, 120, 195, 195, 120, 3, 0.535577
165, 6, bw, catch, NA, 999, 999, 6, 35, 141, 114, 122, 193, 110, 85, 2, 1.18408
165, 6, bw, catch, NA, 999, 999, 6, 35, 141, 114, 122, 193, 110, 85, 3, 0.559632
165, 6, bw, attraction, a-b-da, 5, 2, 6, 36, 90, 165, 165, 90, 161, 88, 3, 0.758751
165, 6, bw, attraction, a-b-da, 5, 2, 6, 36, 90, 165, 165, 90, 161, 88, 2, 1.16728
165, 6, bw, attraction, a-b-db, 2, 2, 6, 37, 89, 163, 90, 165, 165, 90, 2, 0.718022
165, 6, bw, attraction, a-b-db, 2, 2, 6, 37, 89, 163, 90, 165, 165, 90, 3, 0.424551
165, 6, bw, attraction, a-b-db, 2, 2, 7, 1, 89, 163, 165, 90, 90, 165, 3, 0.772938
165, 6, bw, attraction, a-b-db, 2, 2, 7, 1, 89, 163, 165, 90, 90, 165, 2, 0.564732
165, 6, bw, filler, NA, 999, 999, 7, 2, 97, 171, 119, 158, 150, 95, 2, 0.819838
165, 6, bw, filler, NA, 999, 999, 7, 2, 97, 171, 119, 158, 150, 95, 3, 0.45009
165, 6, bw, attraction, a-b-da, 2, 3, 7, 3, 195, 120, 120, 195, 193, 119, 2, 0.669902
165, 6, bw, attraction, a-b-da, 2, 3, 7, 3, 195, 120, 120, 195, 193, 119, 3, 0.450322
165, 6, bw, filler, NA, 999, 999, 7, 4, 150, 119, 171, 62, 95, 74, 1, 0.782147
165, 6, bw, filler, NA, 999, 999, 7, 4, 150, 119, 171, 62, 95, 74, 3, 0.573853
165, 6, bw, filler, NA, 999, 999, 7, 5, 139, 131, 99, 195, 173, 109, 2, 4.79638
165, 6, bw, filler, NA, 999, 999, 7, 5, 139, 131, 99, 195, 173, 109, 1, 0.51416
165, 6, bw, attraction, a-b-da, 9, 3, 7, 6, 120, 195, 195, 120, 186, 114, 3, 1.02739
165, 6, bw, attraction, a-b-da, 9, 3, 7, 6, 120, 195, 195, 120, 186, 114, 1, 0.440851
165, 6, bw, attraction, a-b-db, 14, 1, 7, 7, 56, 125, 135, 60, 60, 135, 3, 0.756723
165, 6, bw, attraction, a-b-db, 14, 1, 7, 7, 56, 125, 135, 60, 60, 135, 2, 0.5091
165, 6, bw, attraction, a-b-db, 2, 3, 7, 8, 195, 120, 119, 193, 120, 195, 2, 0.718171
165, 6, bw, attraction, a-b-db, 2, 3, 7, 8, 195, 120, 119, 193, 120, 195, 1, 0.408697
165, 6, bw, filler, NA, 999, 999, 7, 9, 104, 151, 65, 78, 128, 184, 3, 0.58184
165, 6, bw, filler, NA, 999, 999, 7, 9, 104, 151, 65, 78, 128, 184, 2, 0.485602
165, 6, bw, attraction, a-b-da, 14, 2, 7, 10, 165, 90, 153, 83, 90, 165, 2, 2.76002
165, 6, bw, attraction, a-b-da, 14, 2, 7, 10, 165, 90, 153, 83, 90, 165, 1, 0.271756
165, 6, bw, attraction, a-b-db, 14, 3, 7, 11, 195, 120, 111, 181, 120, 195, 1, 1.53115
165, 6, bw, attraction, a-b-db, 14, 3, 7, 11, 195, 120, 111, 181, 120, 195, 3, 0.180471
165, 6, bw, attraction, a-b-da, 5, 3, 7, 12, 120, 195, 195, 120, 190, 117, 3, 1.16306
165, 6, bw, attraction, a-b-da, 5, 3, 7, 12, 120, 195, 195, 120, 190, 117, 2, 0.235259
165, 6, bw, filler, NA, 999, 999, 7, 13, 179, 138, 88, 176, 67, 137, 1, 1.14388
165, 6, bw, filler, NA, 999, 999, 7, 13, 179, 138, 88, 176, 67, 137, 3, 0.184816
165, 6, bw, filler, NA, 999, 999, 7, 14, 127, 68, 65, 187, 172, 186, 3, 0.703327
165, 6, bw, filler, NA, 999, 999, 7, 14, 127, 68, 65, 187, 172, 186, 1, 0.466553
165, 6, bw, attraction, a-b-db, 5, 1, 7, 15, 135, 60, 60, 135, 58, 132, 3, 1.20555
165, 6, bw, attraction, a-b-db, 5, 1, 7, 15, 135, 60, 60, 135, 58, 132, 2, 0.259865
165, 6, bw, filler, NA, 999, 999, 7, 16, 104, 119, 167, 63, 139, 58, 1, 0.671047
165, 6, bw, filler, NA, 999, 999, 7, 16, 104, 119, 167, 63, 139, 58, 3, 1.01096
165, 6, bw, attraction, a-b-da, 9, 2, 7, 17, 90, 165, 157, 86, 165, 90, 3, 1.41578
165, 6, bw, attraction, a-b-da, 9, 2, 7, 17, 90, 165, 157, 86, 165, 90, 1, 0.206003
165, 6, bw, attraction, a-b-da, 14, 1, 7, 18, 135, 60, 60, 135, 125, 56, 2, 1.77187
165, 6, bw, attraction, a-b-da, 14, 1, 7, 18, 135, 60, 60, 135, 125, 56, 3, 0.323336
165, 6, bw, filler, NA, 999, 999, 7, 19, 110, 172, 186, 113, 143, 125, 1, 1.72372
165, 6, bw, filler, NA, 999, 999, 7, 19, 110, 172, 186, 113, 143, 125, 3, 0.525277
165, 6, bw, attraction, a-b-db, 5, 2, 7, 20, 90, 165, 165, 90, 88, 161, 2, 1.21364
165, 6, bw, attraction, a-b-db, 5, 2, 7, 20, 90, 165, 165, 90, 88, 161, 3, 0.395945
165, 6, bw, attraction, a-b-db, 14, 2, 7, 21, 165, 90, 90, 165, 83, 153, 1, 0.969708
165, 6, bw, attraction, a-b-db, 14, 2, 7, 21, 165, 90, 90, 165, 83, 153, 3, 0.290035
165, 6, bw, catch, NA, 999, 999, 7, 22, 146, 109, 150, 165, 123, 72, 2, 0.868003
165, 6, bw, catch, NA, 999, 999, 7, 22, 146, 109, 150, 165, 123, 72, 3, 0.320266
165, 6, bw, filler, NA, 999, 999, 7, 23, 147, 134, 165, 154, 70, 152, 2, 0.841495
165, 6, bw, filler, NA, 999, 999, 7, 23, 147, 134, 165, 154, 70, 152, 3, 0.254522
165, 6, bw, attraction, a-b-db, 9, 2, 7, 24, 86, 157, 165, 90, 90, 165, 2, 1.05834
165, 6, bw, attraction, a-b-db, 9, 2, 7, 24, 86, 157, 165, 90, 90, 165, 3, 0.230664
165, 6, bw, attraction, a-b-db, 5, 3, 7, 25, 120, 195, 195, 120, 117, 190, 2, 1.00323
165, 6, bw, attraction, a-b-db, 5, 3, 7, 25, 120, 195, 195, 120, 117, 190, 3, 0.258327
165, 6, bw, attraction, a-b-da, 2, 2, 7, 26, 90, 165, 165, 90, 163, 89, 2, 1.6135
165, 6, bw, attraction, a-b-da, 2, 2, 7, 26, 90, 165, 165, 90, 163, 89, 3, 0.219537
165, 6, bw, attraction, a-b-db, 2, 1, 7, 27, 59, 134, 60, 135, 135, 60, 2, 0.896688
165, 6, bw, attraction, a-b-db, 2, 1, 7, 27, 59, 134, 60, 135, 135, 60, 3, 0.315796
165, 6, bw, attraction, a-b-db, 9, 3, 7, 28, 114, 186, 195, 120, 120, 195, 3, 0.997002
165, 6, bw, attraction, a-b-db, 9, 3, 7, 28, 114, 186, 195, 120, 120, 195, 2, 0.252018
165, 6, bw, catch, NA, 999, 999, 7, 29, 147, 108, 101, 94, 139, 176, 3, 1.01581
165, 6, bw, catch, NA, 999, 999, 7, 29, 147, 108, 101, 94, 139, 176, 2, 0.470084
165, 6, bw, attraction, a-b-da, 2, 1, 7, 30, 60, 135, 134, 59, 135, 60, 1, 1.16123
165, 6, bw, attraction, a-b-da, 2, 1, 7, 30, 60, 135, 134, 59, 135, 60, 2, 0.897498
165, 6, bw, catch, NA, 999, 999, 7, 31, 154, 161, 128, 67, 107, 148, 1, 0.683178
165, 6, bw, catch, NA, 999, 999, 7, 31, 154, 161, 128, 67, 107, 148, 3, 0.190861
165, 6, bw, attraction, a-b-da, 9, 1, 7, 32, 129, 57, 60, 135, 135, 60, 2, 0.764815
165, 6, bw, attraction, a-b-da, 9, 1, 7, 32, 129, 57, 60, 135, 135, 60, 3, 0.229204
165, 6, bw, attraction, a-b-da, 5, 2, 7, 33, 165, 90, 161, 88, 90, 165, 3, 1.31372
165, 6, bw, attraction, a-b-da, 5, 2, 7, 33, 165, 90, 161, 88, 90, 165, 2, 0.203987
165, 6, bw, attraction, a-b-db, 9, 1, 7, 34, 57, 129, 135, 60, 60, 135, 2, 0.785918
165, 6, bw, attraction, a-b-db, 9, 1, 7, 34, 57, 129, 135, 60, 60, 135, 3, 0.36977
165, 6, bw, attraction, a-b-da, 14, 3, 7, 35, 181, 111, 195, 120, 120, 195, 3, 2.32088
165, 6, bw, attraction, a-b-da, 14, 3, 7, 35, 181, 111, 195, 120, 120, 195, 1, 0.64202
165, 6, bw, attraction, a-b-da, 5, 1, 7, 36, 60, 135, 135, 60, 132, 58, 2, 0.829688
165, 6, bw, attraction, a-b-da, 5, 1, 7, 36, 60, 135, 135, 60, 132, 58, 3, 0.547464
165, 6, bw, filler, NA, 999, 999, 7, 37, 88, 83, 123, 77, 118, 99, 3, 0.747305
165, 6, bw, filler, NA, 999, 999, 7, 37, 88, 83, 123, 77, 118, 99, 1, 0.292234
165, 6, bw, attraction, a-b-da, 14, 2, 8, 1, 165, 90, 153, 83, 90, 165, 2, 0.790161
165, 6, bw, attraction, a-b-da, 14, 2, 8, 1, 165, 90, 153, 83, 90, 165, 3, 0.205252
165, 6, bw, attraction, a-b-db, 14, 1, 8, 2, 135, 60, 56, 125, 60, 135, 1, 1.28317
165, 6, bw, attraction, a-b-db, 14, 1, 8, 2, 135, 60, 56, 125, 60, 135, 3, 0.462684
165, 6, bw, filler, NA, 999, 999, 8, 3, 160, 170, 97, 166, 81, 93, 1, 0.769804
165, 6, bw, filler, NA, 999, 999, 8, 3, 160, 170, 97, 166, 81, 93, 3, 0.466292
165, 6, bw, catch, NA, 999, 999, 8, 4, 96, 99, 181, 134, 146, 109, 2, 0.645352
165, 6, bw, catch, NA, 999, 999, 8, 4, 96, 99, 181, 134, 146, 109, 1, 0.210434
165, 6, bw, catch, NA, 999, 999, 8, 5, 93, 102, 131, 124, 134, 181, 3, 0.479548
165, 6, bw, catch, NA, 999, 999, 8, 5, 93, 102, 131, 124, 134, 181, 1, 0.379449
165, 6, bw, filler, NA, 999, 999, 8, 6, 76, 187, 182, 91, 164, 95, 3, 0.561918
165, 6, bw, filler, NA, 999, 999, 8, 6, 76, 187, 182, 91, 164, 95, 1, 0.202323
165, 6, bw, attraction, a-b-da, 2, 3, 8, 7, 193, 119, 195, 120, 120, 195, 2, 0.552202
165, 6, bw, attraction, a-b-da, 2, 3, 8, 7, 193, 119, 195, 120, 120, 195, 3, 0.217468
165, 6, bw, catch, NA, 999, 999, 8, 8, 109, 86, 105, 150, 192, 123, 3, 0.806616
165, 6, bw, catch, NA, 999, 999, 8, 8, 109, 86, 105, 150, 192, 123, 1, 0.237008
165, 6, bw, filler, NA, 999, 999, 8, 9, 114, 152, 92, 138, 80, 111, 1, 0.79351
165, 6, bw, filler, NA, 999, 999, 8, 9, 114, 152, 92, 138, 80, 111, 3, 0.42472
165, 6, bw, attraction, a-b-db, 9, 2, 8, 10, 165, 90, 86, 157, 90, 165, 1, 0.669046
165, 6, bw, attraction, a-b-db, 9, 2, 8, 10, 165, 90, 86, 157, 90, 165, 3, 0.361467
165, 6, bw, attraction, a-b-db, 2, 3, 8, 11, 119, 193, 120, 195, 195, 120, 2, 0.960631
165, 6, bw, attraction, a-b-db, 2, 3, 8, 11, 119, 193, 120, 195, 195, 120, 3, 0.233039
165, 6, bw, attraction, a-b-da, 5, 1, 8, 12, 60, 135, 135, 60, 132, 58, 1, 0.493556
165, 6, bw, attraction, a-b-da, 5, 1, 8, 12, 60, 135, 135, 60, 132, 58, 3, 0.176728
165, 6, bw, filler, NA, 999, 999, 8, 13, 126, 93, 74, 112, 175, 102, 3, 0.903196
165, 6, bw, filler, NA, 999, 999, 8, 13, 126, 93, 74, 112, 175, 102, 1, 0.45042
165, 6, bw, attraction, a-b-da, 9, 2, 8, 14, 165, 90, 157, 86, 90, 165, 3, 0.566065
165, 6, bw, attraction, a-b-da, 9, 2, 8, 14, 165, 90, 157, 86, 90, 165, 1, 0.710578
165, 6, bw, attraction, a-b-db, 5, 1, 8, 15, 60, 135, 58, 132, 135, 60, 1, 0.815556
165, 6, bw, attraction, a-b-db, 5, 1, 8, 15, 60, 135, 58, 132, 135, 60, 3, 0.293964
165, 6, bw, attraction, a-b-db, 2, 1, 8, 16, 135, 60, 59, 134, 60, 135, 1, 0.743845
165, 6, bw, attraction, a-b-db, 2, 1, 8, 16, 135, 60, 59, 134, 60, 135, 3, 0.288943
165, 6, bw, filler, NA, 999, 999, 8, 17, 121, 148, 104, 123, 115, 87, 1, 0.74743
165, 6, bw, filler, NA, 999, 999, 8, 17, 121, 148, 104, 123, 115, 87, 3, 0.412563
165, 6, bw, attraction, a-b-da, 9, 1, 8, 18, 60, 135, 129, 57, 135, 60, 1, 0.609618
165, 6, bw, attraction, a-b-da, 9, 1, 8, 18, 60, 135, 129, 57, 135, 60, 3, 0.456115
165, 6, bw, filler, NA, 999, 999, 8, 19, 171, 88, 123, 158, 165, 92, 2, 0.771227
165, 6, bw, filler, NA, 999, 999, 8, 19, 171, 88, 123, 158, 165, 92, 3, 0.315
165, 6, bw, attraction, a-b-db, 9, 1, 8, 20, 60, 135, 135, 60, 57, 129, 1, 0.636121
165, 6, bw, attraction, a-b-db, 9, 1, 8, 20, 60, 135, 135, 60, 57, 129, 3, 0.282021
165, 6, bw, attraction, a-b-db, 2, 2, 8, 21, 165, 90, 90, 165, 89, 163, 2, 0.732494
165, 6, bw, attraction, a-b-db, 2, 2, 8, 21, 165, 90, 90, 165, 89, 163, 3, 0.582319
165, 6, bw, attraction, a-b-da, 5, 3, 8, 22, 120, 195, 190, 117, 195, 120, 3, 0.980599
165, 6, bw, attraction, a-b-da, 5, 3, 8, 22, 120, 195, 190, 117, 195, 120, 1, 0.412285
165, 6, bw, attraction, a-b-da, 14, 1, 8, 23, 125, 56, 60, 135, 135, 60, 3, 0.697387
165, 6, bw, attraction, a-b-da, 14, 1, 8, 23, 125, 56, 60, 135, 135, 60, 1, 0.388446
165, 6, bw, attraction, a-b-da, 14, 3, 8, 24, 120, 195, 195, 120, 181, 111, 3, 0.546998
165, 6, bw, attraction, a-b-da, 14, 3, 8, 24, 120, 195, 195, 120, 181, 111, 1, 0.444208
165, 6, bw, filler, NA, 999, 999, 8, 25, 194, 91, 83, 93, 177, 164, 3, 0.663914
165, 6, bw, filler, NA, 999, 999, 8, 25, 194, 91, 83, 93, 177, 164, 2, 0.532345
165, 6, bw, filler, NA, 999, 999, 8, 26, 61, 93, 59, 96, 75, 106, 3, 0.716823
165, 6, bw, filler, NA, 999, 999, 8, 26, 61, 93, 59, 96, 75, 106, 2, 0.247221
165, 6, bw, attraction, a-b-da, 2, 1, 8, 27, 135, 60, 60, 135, 134, 59, 2, 0.707033
165, 6, bw, attraction, a-b-da, 2, 1, 8, 27, 135, 60, 60, 135, 134, 59, 3, 0.421541
165, 6, bw, attraction, a-b-db, 9, 3, 8, 28, 114, 186, 120, 195, 195, 120, 3, 0.642683
165, 6, bw, attraction, a-b-db, 9, 3, 8, 28, 114, 186, 120, 195, 195, 120, 2, 0.239741
165, 6, bw, attraction, a-b-db, 5, 2, 8, 29, 165, 90, 88, 161, 90, 165, 3, 0.675759
165, 6, bw, attraction, a-b-db, 5, 2, 8, 29, 165, 90, 88, 161, 90, 165, 2, 0.303357
165, 6, bw, attraction, a-b-db, 14, 2, 8, 30, 83, 153, 165, 90, 90, 165, 3, 0.593224
165, 6, bw, attraction, a-b-db, 14, 2, 8, 30, 83, 153, 165, 90, 90, 165, 2, 0.544353
165, 6, bw, filler, NA, 999, 999, 8, 31, 57, 100, 83, 150, 169, 68, 2, 1.14407
165, 6, bw, filler, NA, 999, 999, 8, 31, 57, 100, 83, 150, 169, 68, 1, 0.273015
165, 6, bw, attraction, a-b-db, 14, 3, 8, 32, 111, 181, 120, 195, 195, 120, 3, 0.579608
165, 6, bw, attraction, a-b-db, 14, 3, 8, 32, 111, 181, 120, 195, 195, 120, 2, 0.227391
165, 6, bw, filler, NA, 999, 999, 8, 33, 68, 192, 95, 189, 181, 112, 3, 0.551971
165, 6, bw, filler, NA, 999, 999, 8, 33, 68, 192, 95, 189, 181, 112, 2, 0.521113
165, 6, bw, attraction, a-b-da, 9, 3, 8, 34, 120, 195, 186, 114, 195, 120, 3, 0.618198
165, 6, bw, attraction, a-b-da, 9, 3, 8, 34, 120, 195, 186, 114, 195, 120, 1, 0.296558
165, 6, bw, attraction, a-b-db, 5, 3, 8, 35, 195, 120, 120, 195, 117, 190, 3, 0.682445
165, 6, bw, attraction, a-b-db, 5, 3, 8, 35, 195, 120, 120, 195, 117, 190, 2, 0.278279
165, 6, bw, attraction, a-b-da, 2, 2, 8, 36, 90, 165, 165, 90, 163, 89, 2, 0.768728
165, 6, bw, attraction, a-b-da, 2, 2, 8, 36, 90, 165, 165, 90, 163, 89, 1, 0.313146
165, 6, bw, attraction, a-b-da, 5, 2, 8, 37, 90, 165, 165, 90, 161, 88, 3, 0.524773
165, 6, bw, attraction, a-b-da, 5, 2, 8, 37, 90, 165, 165, 90, 161, 88, 2, 0.420173
