sub_n, computer_n, bw_cond, effect, set, distance, diag, block_n, trial_n, h1, w1, h2, w2, h3, w3, choice, rt 
124, 6, wb, practice, NA, 999, 999, 0, 1, 170, 148, 131, 101, 91, 153, 2, 5.20121
124, 6, wb, practice, NA, 999, 999, 0, 1, 170, 148, 131, 101, 91, 153, 1, 2.33378
124, 6, wb, practice, NA, 999, 999, 0, 2, 57, 139, 70, 165, 152, 113, 1, 3.13903
124, 6, wb, practice, NA, 999, 999, 0, 2, 57, 139, 70, 165, 152, 113, 3, 1.2043
124, 6, wb, practice, NA, 999, 999, 0, 3, 62, 124, 108, 126, 186, 85, 1, 2.53342
124, 6, wb, practice, NA, 999, 999, 0, 3, 62, 124, 108, 126, 186, 85, 3, 6.9597
124, 6, wb, filler, NA, 999, 999, 1, 1, 103, 167, 181, 65, 128, 115, 2, 6.63548
124, 6, wb, filler, NA, 999, 999, 1, 1, 103, 167, 181, 65, 128, 115, 1, 2.13539
124, 6, wb, attraction, a-b-da, 14, 2, 1, 2, 165, 90, 153, 83, 90, 165, 2, 3.40723
124, 6, wb, attraction, a-b-da, 14, 2, 1, 2, 165, 90, 153, 83, 90, 165, 3, 4.9329
124, 6, wb, attraction, a-b-da, 2, 3, 1, 3, 195, 120, 120, 195, 193, 119, 3, 2.54803
124, 6, wb, attraction, a-b-da, 2, 3, 1, 3, 195, 120, 120, 195, 193, 119, 1, 3.66047
124, 6, wb, attraction, a-b-da, 5, 1, 1, 4, 60, 135, 135, 60, 132, 58, 3, 2.59057
124, 6, wb, attraction, a-b-da, 5, 1, 1, 4, 60, 135, 135, 60, 132, 58, 1, 3.2692
124, 6, wb, attraction, a-b-db, 14, 2, 1, 5, 90, 165, 83, 153, 165, 90, 2, 5.27938
124, 6, wb, attraction, a-b-db, 14, 2, 1, 5, 90, 165, 83, 153, 165, 90, 3, 4.00969
124, 6, wb, filler, NA, 999, 999, 1, 6, 77, 184, 120, 115, 164, 73, 3, 4.88574
124, 6, wb, filler, NA, 999, 999, 1, 6, 77, 184, 120, 115, 164, 73, 1, 6.46422
124, 6, wb, attraction, a-b-db, 2, 2, 1, 7, 89, 163, 165, 90, 90, 165, 1, 3.02537
124, 6, wb, attraction, a-b-db, 2, 2, 1, 7, 89, 163, 165, 90, 90, 165, 3, 3.3267
124, 6, wb, attraction, a-b-db, 14, 1, 1, 8, 56, 125, 60, 135, 135, 60, 1, 3.26214
124, 6, wb, attraction, a-b-db, 14, 1, 1, 8, 56, 125, 60, 135, 135, 60, 2, 2.52969
124, 6, wb, catch, NA, 999, 999, 1, 9, 99, 96, 152, 163, 108, 147, 1, 3.67335
124, 6, wb, catch, NA, 999, 999, 1, 9, 99, 96, 152, 163, 108, 147, 2, 0.812227
124, 6, wb, attraction, a-b-da, 14, 3, 1, 10, 120, 195, 181, 111, 195, 120, 2, 2.48124
124, 6, wb, attraction, a-b-da, 14, 3, 1, 10, 120, 195, 181, 111, 195, 120, 1, 2.19641
124, 6, wb, attraction, a-b-db, 2, 1, 1, 11, 135, 60, 60, 135, 59, 134, 3, 3.9137
124, 6, wb, attraction, a-b-db, 2, 1, 1, 11, 135, 60, 60, 135, 59, 134, 2, 6.80313
124, 6, wb, filler, NA, 999, 999, 1, 12, 178, 121, 92, 139, 126, 181, 2, 2.33486
124, 6, wb, filler, NA, 999, 999, 1, 12, 178, 121, 92, 139, 126, 181, 3, 3.11226
124, 6, wb, filler, NA, 999, 999, 1, 13, 170, 169, 105, 160, 109, 137, 3, 1.73652
124, 6, wb, filler, NA, 999, 999, 1, 13, 170, 169, 105, 160, 109, 137, 1, 1.11403
124, 6, wb, attraction, a-b-db, 5, 3, 1, 14, 195, 120, 117, 190, 120, 195, 2, 4.78683
124, 6, wb, attraction, a-b-db, 5, 3, 1, 14, 195, 120, 117, 190, 120, 195, 1, 3.77735
124, 6, wb, attraction, a-b-db, 9, 1, 1, 15, 135, 60, 60, 135, 57, 129, 3, 2.4468
124, 6, wb, attraction, a-b-db, 9, 1, 1, 15, 135, 60, 60, 135, 57, 129, 2, 4.67529
124, 6, wb, attraction, a-b-db, 9, 2, 1, 16, 165, 90, 86, 157, 90, 165, 2, 3.48447
124, 6, wb, attraction, a-b-db, 9, 2, 1, 16, 165, 90, 86, 157, 90, 165, 3, 9.71134
124, 6, wb, attraction, a-b-db, 14, 3, 1, 17, 195, 120, 120, 195, 111, 181, 3, 3.58156
124, 6, wb, attraction, a-b-db, 14, 3, 1, 17, 195, 120, 120, 195, 111, 181, 2, 5.39651
124, 6, wb, filler, NA, 999, 999, 1, 18, 74, 152, 90, 58, 137, 104, 2, 1.44874
124, 6, wb, filler, NA, 999, 999, 1, 18, 74, 152, 90, 58, 137, 104, 3, 1.98963
124, 6, wb, attraction, a-b-da, 9, 3, 1, 19, 120, 195, 186, 114, 195, 120, 2, 3.57158
124, 6, wb, attraction, a-b-da, 9, 3, 1, 19, 120, 195, 186, 114, 195, 120, 1, 3.05039
124, 6, wb, filler, NA, 999, 999, 1, 20, 188, 148, 149, 78, 159, 117, 2, 1.58138
124, 6, wb, filler, NA, 999, 999, 1, 20, 188, 148, 149, 78, 159, 117, 1, 0.5408
124, 6, wb, attraction, a-b-db, 5, 1, 1, 21, 60, 135, 58, 132, 135, 60, 2, 3.02076
124, 6, wb, attraction, a-b-db, 5, 1, 1, 21, 60, 135, 58, 132, 135, 60, 3, 3.53836
124, 6, wb, catch, NA, 999, 999, 1, 22, 158, 97, 88, 107, 189, 126, 2, 1.38588
124, 6, wb, catch, NA, 999, 999, 1, 22, 158, 97, 88, 107, 189, 126, 3, 0.841466
124, 6, wb, attraction, a-b-db, 2, 3, 1, 23, 119, 193, 195, 120, 120, 195, 1, 7.24518
124, 6, wb, attraction, a-b-db, 2, 3, 1, 23, 119, 193, 195, 120, 120, 195, 3, 13.0961
124, 6, wb, attraction, a-b-da, 14, 1, 1, 24, 60, 135, 135, 60, 125, 56, 3, 3.60609
124, 6, wb, attraction, a-b-da, 14, 1, 1, 24, 60, 135, 135, 60, 125, 56, 2, 4.94758
124, 6, wb, attraction, a-b-da, 5, 2, 1, 25, 161, 88, 165, 90, 90, 165, 1, 2.02582
124, 6, wb, attraction, a-b-da, 5, 2, 1, 25, 161, 88, 165, 90, 90, 165, 3, 1.84728
124, 6, wb, attraction, a-b-db, 9, 3, 1, 26, 114, 186, 120, 195, 195, 120, 1, 7.96254
124, 6, wb, attraction, a-b-db, 9, 3, 1, 26, 114, 186, 120, 195, 195, 120, 2, 1.42473
124, 6, wb, filler, NA, 999, 999, 1, 27, 90, 190, 184, 121, 61, 69, 3, 0.932882
124, 6, wb, filler, NA, 999, 999, 1, 27, 90, 190, 184, 121, 61, 69, 2, 0.854604
124, 6, wb, filler, NA, 999, 999, 1, 28, 149, 94, 122, 171, 64, 186, 3, 3.61821
124, 6, wb, filler, NA, 999, 999, 1, 28, 149, 94, 122, 171, 64, 186, 2, 1.23977
124, 6, wb, filler, NA, 999, 999, 1, 29, 164, 159, 135, 100, 169, 145, 2, 1.87527
124, 6, wb, filler, NA, 999, 999, 1, 29, 164, 159, 135, 100, 169, 145, 1, 3.90274
124, 6, wb, attraction, a-b-da, 2, 1, 1, 30, 134, 59, 60, 135, 135, 60, 2, 3.95942
124, 6, wb, attraction, a-b-da, 2, 1, 1, 30, 134, 59, 60, 135, 135, 60, 3, 3.59877
124, 6, wb, filler, NA, 999, 999, 1, 31, 83, 125, 140, 65, 177, 108, 2, 2.45155
124, 6, wb, filler, NA, 999, 999, 1, 31, 83, 125, 140, 65, 177, 108, 3, 1.35218
124, 6, wb, attraction, a-b-da, 9, 1, 1, 32, 135, 60, 60, 135, 129, 57, 3, 4.15965
124, 6, wb, attraction, a-b-da, 9, 1, 1, 32, 135, 60, 60, 135, 129, 57, 2, 1.28709
124, 6, wb, attraction, a-b-da, 9, 2, 1, 33, 165, 90, 157, 86, 90, 165, 2, 6.89717
124, 6, wb, attraction, a-b-da, 9, 2, 1, 33, 165, 90, 157, 86, 90, 165, 3, 0.762345
124, 6, wb, catch, NA, 999, 999, 1, 34, 185, 130, 91, 164, 65, 130, 3, 1.58532
124, 6, wb, catch, NA, 999, 999, 1, 34, 185, 130, 91, 164, 65, 130, 1, 1.40888
124, 6, wb, attraction, a-b-da, 2, 2, 1, 35, 163, 89, 90, 165, 165, 90, 1, 6.01384
124, 6, wb, attraction, a-b-da, 2, 2, 1, 35, 163, 89, 90, 165, 165, 90, 3, 1.97855
124, 6, wb, attraction, a-b-da, 5, 3, 1, 36, 190, 117, 120, 195, 195, 120, 1, 4.23256
124, 6, wb, attraction, a-b-da, 5, 3, 1, 36, 190, 117, 120, 195, 195, 120, 2, 5.19714
124, 6, wb, attraction, a-b-db, 5, 2, 1, 37, 90, 165, 165, 90, 88, 161, 2, 4.8574
124, 6, wb, attraction, a-b-db, 5, 2, 1, 37, 90, 165, 165, 90, 88, 161, 1, 0.476698
124, 6, wb, filler, NA, 999, 999, 2, 1, 148, 92, 107, 136, 154, 87, 3, 3.88699
124, 6, wb, filler, NA, 999, 999, 2, 1, 148, 92, 107, 136, 154, 87, 1, 0.953946
124, 6, wb, attraction, a-b-da, 14, 1, 2, 2, 135, 60, 60, 135, 125, 56, 3, 2.85753
124, 6, wb, attraction, a-b-da, 14, 1, 2, 2, 135, 60, 60, 135, 125, 56, 2, 2.00521
124, 6, wb, filler, NA, 999, 999, 2, 3, 77, 170, 93, 155, 143, 97, 3, 8.01855
124, 6, wb, filler, NA, 999, 999, 2, 3, 77, 170, 93, 155, 143, 97, 2, 1.19061
124, 6, wb, attraction, a-b-db, 9, 3, 2, 4, 195, 120, 120, 195, 114, 186, 3, 2.32416
124, 6, wb, attraction, a-b-db, 9, 3, 2, 4, 195, 120, 120, 195, 114, 186, 2, 1.57354
124, 6, wb, filler, NA, 999, 999, 2, 5, 181, 65, 66, 82, 183, 177, 2, 1.16363
124, 6, wb, filler, NA, 999, 999, 2, 5, 181, 65, 66, 82, 183, 177, 3, 1.00388
124, 6, wb, attraction, a-b-db, 5, 1, 2, 6, 58, 132, 135, 60, 60, 135, 1, 6.95346
124, 6, wb, attraction, a-b-db, 5, 1, 2, 6, 58, 132, 135, 60, 60, 135, 3, 0.65654
124, 6, wb, filler, NA, 999, 999, 2, 7, 81, 152, 157, 110, 61, 117, 3, 1.16367
124, 6, wb, filler, NA, 999, 999, 2, 7, 81, 152, 157, 110, 61, 117, 2, 0.972031
124, 6, wb, attraction, a-b-da, 5, 3, 2, 8, 190, 117, 195, 120, 120, 195, 1, 8.62687
124, 6, wb, attraction, a-b-da, 5, 3, 2, 8, 190, 117, 195, 120, 120, 195, 2, 3.21421
124, 6, wb, attraction, a-b-db, 14, 2, 2, 9, 90, 165, 165, 90, 83, 153, 3, 3.02653
124, 6, wb, attraction, a-b-db, 14, 2, 2, 9, 90, 165, 165, 90, 83, 153, 2, 3.50352
124, 6, wb, attraction, a-b-db, 14, 3, 2, 10, 195, 120, 111, 181, 120, 195, 2, 3.77626
124, 6, wb, attraction, a-b-db, 14, 3, 2, 10, 195, 120, 111, 181, 120, 195, 3, 0.567149
124, 6, wb, attraction, a-b-da, 9, 3, 2, 11, 120, 195, 186, 114, 195, 120, 2, 2.07017
124, 6, wb, attraction, a-b-da, 9, 3, 2, 11, 120, 195, 186, 114, 195, 120, 3, 3.05023
124, 6, wb, attraction, a-b-da, 14, 2, 2, 12, 90, 165, 165, 90, 153, 83, 3, 2.42114
124, 6, wb, attraction, a-b-da, 14, 2, 2, 12, 90, 165, 165, 90, 153, 83, 2, 2.78656
124, 6, wb, attraction, a-b-db, 14, 1, 2, 13, 56, 125, 135, 60, 60, 135, 1, 1.45615
124, 6, wb, attraction, a-b-db, 14, 1, 2, 13, 56, 125, 135, 60, 60, 135, 3, 0.828454
124, 6, wb, attraction, a-b-db, 2, 3, 2, 14, 195, 120, 119, 193, 120, 195, 1, 3.28068
124, 6, wb, attraction, a-b-db, 2, 3, 2, 14, 195, 120, 119, 193, 120, 195, 3, 1.01163
124, 6, wb, attraction, a-b-da, 5, 1, 2, 15, 135, 60, 132, 58, 60, 135, 2, 2.4006
124, 6, wb, attraction, a-b-da, 5, 1, 2, 15, 135, 60, 132, 58, 60, 135, 3, 3.1032
124, 6, wb, filler, NA, 999, 999, 2, 16, 121, 79, 157, 126, 99, 96, 1, 3.78417
124, 6, wb, filler, NA, 999, 999, 2, 16, 121, 79, 157, 126, 99, 96, 2, 0.686831
124, 6, wb, attraction, a-b-db, 2, 2, 2, 17, 89, 163, 165, 90, 90, 165, 1, 6.36929
124, 6, wb, attraction, a-b-db, 2, 2, 2, 17, 89, 163, 165, 90, 90, 165, 2, 2.34393
124, 6, wb, attraction, a-b-da, 5, 2, 2, 18, 161, 88, 90, 165, 165, 90, 1, 3.34317
124, 6, wb, attraction, a-b-da, 5, 2, 2, 18, 161, 88, 90, 165, 165, 90, 3, 2.45546
124, 6, wb, attraction, a-b-da, 2, 2, 2, 19, 163, 89, 90, 165, 165, 90, 3, 3.6267
124, 6, wb, attraction, a-b-da, 2, 2, 2, 19, 163, 89, 90, 165, 165, 90, 2, 0.75146
124, 6, wb, attraction, a-b-da, 14, 3, 2, 20, 120, 195, 195, 120, 181, 111, 3, 2.52724
124, 6, wb, attraction, a-b-da, 14, 3, 2, 20, 120, 195, 195, 120, 181, 111, 1, 0.52833
124, 6, wb, attraction, a-b-da, 9, 2, 2, 21, 90, 165, 165, 90, 157, 86, 3, 7.45674
124, 6, wb, attraction, a-b-da, 9, 2, 2, 21, 90, 165, 165, 90, 157, 86, 2, 1.21113
124, 6, wb, attraction, a-b-db, 5, 2, 2, 22, 90, 165, 88, 161, 165, 90, 3, 2.41596
124, 6, wb, attraction, a-b-db, 5, 2, 2, 22, 90, 165, 88, 161, 165, 90, 1, 1.43818
124, 6, wb, catch, NA, 999, 999, 2, 23, 137, 118, 125, 190, 101, 94, 3, 2.02604
124, 6, wb, catch, NA, 999, 999, 2, 23, 137, 118, 125, 190, 101, 94, 2, 1.29539
124, 6, wb, attraction, a-b-db, 9, 2, 2, 24, 165, 90, 86, 157, 90, 165, 2, 3.46497
124, 6, wb, attraction, a-b-db, 9, 2, 2, 24, 165, 90, 86, 157, 90, 165, 1, 4.37251
124, 6, wb, filler, NA, 999, 999, 2, 25, 140, 175, 175, 172, 112, 99, 3, 1.89029
124, 6, wb, filler, NA, 999, 999, 2, 25, 140, 175, 175, 172, 112, 99, 2, 2.90922
124, 6, wb, filler, NA, 999, 999, 2, 26, 186, 101, 170, 124, 79, 106, 3, 0.861402
124, 6, wb, filler, NA, 999, 999, 2, 26, 186, 101, 170, 124, 79, 106, 2, 1.51382
124, 6, wb, filler, NA, 999, 999, 2, 27, 149, 57, 71, 178, 110, 122, 1, 1.34659
124, 6, wb, filler, NA, 999, 999, 2, 27, 149, 57, 71, 178, 110, 122, 2, 25.5876
124, 6, wb, filler, NA, 999, 999, 2, 28, 119, 137, 152, 188, 179, 120, 1, 6.87411
124, 6, wb, filler, NA, 999, 999, 2, 28, 119, 137, 152, 188, 179, 120, 2, 1.22793
124, 6, wb, catch, NA, 999, 999, 2, 29, 96, 159, 153, 162, 92, 103, 3, 1.50421
124, 6, wb, catch, NA, 999, 999, 2, 29, 96, 159, 153, 162, 92, 103, 2, 0.546306
124, 6, wb, attraction, a-b-da, 2, 3, 2, 30, 193, 119, 195, 120, 120, 195, 2, 2.69819
124, 6, wb, attraction, a-b-da, 2, 3, 2, 30, 193, 119, 195, 120, 120, 195, 3, 0.972711
124, 6, wb, attraction, a-b-da, 9, 1, 2, 31, 60, 135, 129, 57, 135, 60, 2, 2.4515
124, 6, wb, attraction, a-b-da, 9, 1, 2, 31, 60, 135, 129, 57, 135, 60, 1, 1.00807
124, 6, wb, attraction, a-b-db, 2, 1, 2, 32, 60, 135, 135, 60, 59, 134, 3, 3.93305
124, 6, wb, attraction, a-b-db, 2, 1, 2, 32, 60, 135, 135, 60, 59, 134, 1, 0.549789
124, 6, wb, attraction, a-b-db, 5, 3, 2, 33, 120, 195, 195, 120, 117, 190, 3, 2.77355
124, 6, wb, attraction, a-b-db, 5, 3, 2, 33, 120, 195, 195, 120, 117, 190, 1, 1.86867
124, 6, wb, attraction, a-b-db, 9, 1, 2, 34, 135, 60, 60, 135, 57, 129, 3, 5.4873
124, 6, wb, attraction, a-b-db, 9, 1, 2, 34, 135, 60, 60, 135, 57, 129, 2, 0.849635
124, 6, wb, filler, NA, 999, 999, 2, 35, 92, 136, 78, 165, 179, 174, 1, 12.0533
124, 6, wb, filler, NA, 999, 999, 2, 35, 92, 136, 78, 165, 179, 174, 3, 0.470827
124, 6, wb, attraction, a-b-da, 2, 1, 2, 36, 135, 60, 60, 135, 134, 59, 3, 6.91394
124, 6, wb, attraction, a-b-da, 2, 1, 2, 36, 135, 60, 60, 135, 134, 59, 2, 1.28257
124, 6, wb, catch, NA, 999, 999, 2, 37, 176, 139, 101, 94, 156, 99, 2, 2.00466
124, 6, wb, catch, NA, 999, 999, 2, 37, 176, 139, 101, 94, 156, 99, 1, 0.946736
124, 6, wb, attraction, a-b-da, 2, 3, 3, 1, 120, 195, 193, 119, 195, 120, 3, 2.83428
124, 6, wb, attraction, a-b-da, 2, 3, 3, 1, 120, 195, 193, 119, 195, 120, 1, 1.95147
124, 6, wb, attraction, a-b-db, 2, 2, 3, 2, 90, 165, 165, 90, 89, 163, 3, 3.85466
124, 6, wb, attraction, a-b-db, 2, 2, 3, 2, 90, 165, 165, 90, 89, 163, 2, 0.978877
124, 6, wb, attraction, a-b-da, 2, 2, 3, 3, 163, 89, 165, 90, 90, 165, 1, 3.56914
124, 6, wb, attraction, a-b-da, 2, 2, 3, 3, 163, 89, 165, 90, 90, 165, 3, 0.752618
124, 6, wb, attraction, a-b-da, 9, 1, 3, 4, 129, 57, 135, 60, 60, 135, 1, 3.90445
124, 6, wb, attraction, a-b-da, 9, 1, 3, 4, 129, 57, 135, 60, 60, 135, 3, 4.17851
124, 6, wb, catch, NA, 999, 999, 3, 5, 147, 108, 184, 131, 104, 91, 3, 1.23182
124, 6, wb, catch, NA, 999, 999, 3, 5, 147, 108, 184, 131, 104, 91, 2, 0.477365
124, 6, wb, attraction, a-b-db, 5, 2, 3, 6, 88, 161, 165, 90, 90, 165, 1, 3.04773
124, 6, wb, attraction, a-b-db, 5, 2, 3, 6, 88, 161, 165, 90, 90, 165, 3, 2.98011
124, 6, wb, attraction, a-b-db, 9, 1, 3, 7, 135, 60, 57, 129, 60, 135, 2, 5.73781
124, 6, wb, attraction, a-b-db, 9, 1, 3, 7, 135, 60, 57, 129, 60, 135, 3, 1.25795
124, 6, wb, attraction, a-b-da, 2, 1, 3, 8, 60, 135, 134, 59, 135, 60, 2, 3.73285
124, 6, wb, attraction, a-b-da, 2, 1, 3, 8, 60, 135, 134, 59, 135, 60, 3, 0.837794
124, 6, wb, attraction, a-b-da, 14, 3, 3, 9, 120, 195, 195, 120, 181, 111, 3, 3.81814
124, 6, wb, attraction, a-b-da, 14, 3, 3, 9, 120, 195, 195, 120, 181, 111, 1, 0.639483
124, 6, wb, filler, NA, 999, 999, 3, 10, 176, 65, 178, 189, 60, 180, 1, 3.35526
124, 6, wb, filler, NA, 999, 999, 3, 10, 176, 65, 178, 189, 60, 180, 2, 0.514814
124, 6, wb, filler, NA, 999, 999, 3, 11, 78, 178, 114, 72, 169, 153, 2, 1.09201
124, 6, wb, filler, NA, 999, 999, 3, 11, 78, 178, 114, 72, 169, 153, 3, 0.286862
124, 6, wb, filler, NA, 999, 999, 3, 12, 71, 144, 184, 181, 139, 88, 1, 3.32952
124, 6, wb, filler, NA, 999, 999, 3, 12, 71, 144, 184, 181, 139, 88, 2, 0.450347
124, 6, wb, attraction, a-b-db, 9, 2, 3, 13, 165, 90, 90, 165, 86, 157, 3, 1.65425
124, 6, wb, attraction, a-b-db, 9, 2, 3, 13, 165, 90, 90, 165, 86, 157, 1, 3.32223
124, 6, wb, catch, NA, 999, 999, 3, 14, 85, 110, 125, 130, 139, 176, 1, 0.874478
124, 6, wb, catch, NA, 999, 999, 3, 14, 85, 110, 125, 130, 139, 176, 3, 1.35027
124, 6, wb, attraction, a-b-da, 5, 3, 3, 15, 195, 120, 190, 117, 120, 195, 2, 4.02974
124, 6, wb, attraction, a-b-da, 5, 3, 3, 15, 195, 120, 190, 117, 120, 195, 3, 0.994504
124, 6, wb, attraction, a-b-db, 14, 2, 3, 16, 90, 165, 165, 90, 83, 153, 3, 1.03203
124, 6, wb, attraction, a-b-db, 14, 2, 3, 16, 90, 165, 165, 90, 83, 153, 1, 2.84577
124, 6, wb, attraction, a-b-db, 9, 3, 3, 17, 120, 195, 195, 120, 114, 186, 3, 1.65681
124, 6, wb, attraction, a-b-db, 9, 3, 3, 17, 120, 195, 195, 120, 114, 186, 1, 9.97293
124, 6, wb, attraction, a-b-da, 5, 1, 3, 18, 132, 58, 135, 60, 60, 135, 1, 2.54515
124, 6, wb, attraction, a-b-da, 5, 1, 3, 18, 132, 58, 135, 60, 60, 135, 3, 3.03366
124, 6, wb, attraction, a-b-db, 5, 3, 3, 19, 120, 195, 195, 120, 117, 190, 3, 9.22927
124, 6, wb, attraction, a-b-db, 5, 3, 3, 19, 120, 195, 195, 120, 117, 190, 1, 0.432369
124, 6, wb, attraction, a-b-db, 14, 3, 3, 20, 195, 120, 111, 181, 120, 195, 2, 2.79688
124, 6, wb, attraction, a-b-db, 14, 3, 3, 20, 195, 120, 111, 181, 120, 195, 3, 1.43523
124, 6, wb, filler, NA, 999, 999, 3, 21, 93, 192, 111, 148, 182, 108, 2, 4.83946
124, 6, wb, filler, NA, 999, 999, 3, 21, 93, 192, 111, 148, 182, 108, 3, 1.29132
124, 6, wb, attraction, a-b-db, 5, 1, 3, 22, 60, 135, 58, 132, 135, 60, 2, 3.54886
124, 6, wb, attraction, a-b-db, 5, 1, 3, 22, 60, 135, 58, 132, 135, 60, 1, 1.16498
124, 6, wb, filler, NA, 999, 999, 3, 23, 80, 98, 91, 86, 62, 175, 2, 3.49989
124, 6, wb, filler, NA, 999, 999, 3, 23, 80, 98, 91, 86, 62, 175, 3, 1.7581
124, 6, wb, attraction, a-b-da, 14, 2, 3, 24, 165, 90, 153, 83, 90, 165, 2, 1.86878
124, 6, wb, attraction, a-b-da, 14, 2, 3, 24, 165, 90, 153, 83, 90, 165, 3, 0.360847
124, 6, wb, attraction, a-b-db, 2, 1, 3, 25, 60, 135, 59, 134, 135, 60, 2, 2.23201
124, 6, wb, attraction, a-b-db, 2, 1, 3, 25, 60, 135, 59, 134, 135, 60, 1, 1.21325
124, 6, wb, filler, NA, 999, 999, 3, 26, 84, 171, 164, 157, 167, 145, 1, 1.24218
124, 6, wb, filler, NA, 999, 999, 3, 26, 84, 171, 164, 157, 167, 145, 2, 0.791152
124, 6, wb, filler, NA, 999, 999, 3, 27, 138, 86, 155, 61, 105, 61, 3, 0.948769
124, 6, wb, filler, NA, 999, 999, 3, 27, 138, 86, 155, 61, 105, 61, 1, 1.52582
124, 6, wb, filler, NA, 999, 999, 3, 28, 146, 185, 129, 100, 157, 176, 2, 1.82992
124, 6, wb, filler, NA, 999, 999, 3, 28, 146, 185, 129, 100, 157, 176, 1, 4.0115
124, 6, wb, attraction, a-b-da, 5, 2, 3, 29, 165, 90, 161, 88, 90, 165, 2, 5.24737
124, 6, wb, attraction, a-b-da, 5, 2, 3, 29, 165, 90, 161, 88, 90, 165, 3, 1.387
124, 6, wb, attraction, a-b-da, 9, 2, 3, 30, 157, 86, 90, 165, 165, 90, 1, 1.94523
124, 6, wb, attraction, a-b-da, 9, 2, 3, 30, 157, 86, 90, 165, 165, 90, 2, 6.47381
124, 6, wb, catch, NA, 999, 999, 3, 31, 104, 151, 138, 177, 117, 78, 3, 1.56308
124, 6, wb, catch, NA, 999, 999, 3, 31, 104, 151, 138, 177, 117, 78, 2, 0.291244
124, 6, wb, filler, NA, 999, 999, 3, 32, 68, 158, 133, 94, 146, 184, 1, 1.75713
124, 6, wb, filler, NA, 999, 999, 3, 32, 68, 158, 133, 94, 146, 184, 3, 1.38125
124, 6, wb, attraction, a-b-da, 14, 1, 3, 33, 125, 56, 135, 60, 60, 135, 1, 1.02751
124, 6, wb, attraction, a-b-da, 14, 1, 3, 33, 125, 56, 135, 60, 60, 135, 3, 5.793
124, 6, wb, attraction, a-b-db, 14, 1, 3, 34, 56, 125, 60, 135, 135, 60, 1, 1.70914
124, 6, wb, attraction, a-b-db, 14, 1, 3, 34, 56, 125, 60, 135, 135, 60, 2, 1.42328
124, 6, wb, filler, NA, 999, 999, 3, 35, 119, 107, 64, 171, 143, 181, 2, 3.7395
124, 6, wb, filler, NA, 999, 999, 3, 35, 119, 107, 64, 171, 143, 181, 3, 0.5236
124, 6, wb, attraction, a-b-da, 9, 3, 3, 36, 120, 195, 186, 114, 195, 120, 2, 2.61202
124, 6, wb, attraction, a-b-da, 9, 3, 3, 36, 120, 195, 186, 114, 195, 120, 1, 0.713862
124, 6, wb, attraction, a-b-db, 2, 3, 3, 37, 195, 120, 119, 193, 120, 195, 1, 3.54705
124, 6, wb, attraction, a-b-db, 2, 3, 3, 37, 195, 120, 119, 193, 120, 195, 2, 1.64324
124, 6, wb, attraction, a-b-da, 9, 1, 4, 1, 60, 135, 129, 57, 135, 60, 2, 1.11052
124, 6, wb, attraction, a-b-da, 9, 1, 4, 1, 60, 135, 129, 57, 135, 60, 3, 0.776819
124, 6, wb, catch, NA, 999, 999, 4, 2, 167, 148, 105, 90, 95, 160, 2, 1.79124
124, 6, wb, catch, NA, 999, 999, 4, 2, 167, 148, 105, 90, 95, 160, 1, 0.413918
124, 6, wb, attraction, a-b-da, 9, 2, 4, 3, 90, 165, 157, 86, 165, 90, 2, 6.92318
124, 6, wb, attraction, a-b-da, 9, 2, 4, 3, 90, 165, 157, 86, 165, 90, 1, 0.427643
124, 6, wb, attraction, a-b-da, 2, 1, 4, 4, 135, 60, 134, 59, 60, 135, 3, 1.952
124, 6, wb, attraction, a-b-da, 2, 1, 4, 4, 135, 60, 134, 59, 60, 135, 2, 1.80076
124, 6, wb, catch, NA, 999, 999, 4, 5, 167, 148, 62, 133, 163, 92, 2, 0.870114
124, 6, wb, catch, NA, 999, 999, 4, 5, 167, 148, 62, 133, 163, 92, 1, 0.369803
124, 6, wb, filler, NA, 999, 999, 4, 6, 103, 138, 74, 127, 152, 100, 2, 1.26491
124, 6, wb, filler, NA, 999, 999, 4, 6, 103, 138, 74, 127, 152, 100, 3, 5.0693
124, 6, wb, attraction, a-b-db, 2, 1, 4, 7, 135, 60, 60, 135, 59, 134, 1, 5.96686
124, 6, wb, attraction, a-b-db, 2, 1, 4, 7, 135, 60, 60, 135, 59, 134, 2, 1.40582
124, 6, wb, filler, NA, 999, 999, 4, 8, 114, 66, 170, 100, 165, 96, 1, 1.02713
124, 6, wb, filler, NA, 999, 999, 4, 8, 114, 66, 170, 100, 165, 96, 2, 1.06498
124, 6, wb, attraction, a-b-da, 14, 1, 4, 9, 135, 60, 60, 135, 125, 56, 3, 1.30787
124, 6, wb, attraction, a-b-da, 14, 1, 4, 9, 135, 60, 60, 135, 125, 56, 2, 0.726071
124, 6, wb, attraction, a-b-db, 14, 2, 4, 10, 165, 90, 90, 165, 83, 153, 3, 2.06252
124, 6, wb, attraction, a-b-db, 14, 2, 4, 10, 165, 90, 90, 165, 83, 153, 2, 0.658459
124, 6, wb, catch, NA, 999, 999, 4, 11, 105, 90, 178, 137, 158, 97, 1, 0.645427
124, 6, wb, catch, NA, 999, 999, 4, 11, 105, 90, 178, 137, 158, 97, 2, 0.39445
124, 6, wb, attraction, a-b-da, 5, 3, 4, 12, 190, 117, 120, 195, 195, 120, 1, 2.90443
124, 6, wb, attraction, a-b-da, 5, 3, 4, 12, 190, 117, 120, 195, 195, 120, 2, 0.72209
124, 6, wb, attraction, a-b-db, 9, 1, 4, 13, 135, 60, 60, 135, 57, 129, 3, 1.78717
124, 6, wb, attraction, a-b-db, 9, 1, 4, 13, 135, 60, 60, 135, 57, 129, 2, 0.489912
124, 6, wb, filler, NA, 999, 999, 4, 14, 118, 82, 69, 76, 131, 166, 2, 1.09172
124, 6, wb, filler, NA, 999, 999, 4, 14, 118, 82, 69, 76, 131, 166, 3, 0.36657
124, 6, wb, attraction, a-b-da, 2, 3, 4, 15, 195, 120, 120, 195, 193, 119, 3, 1.17391
124, 6, wb, attraction, a-b-da, 2, 3, 4, 15, 195, 120, 120, 195, 193, 119, 2, 2.31736
124, 6, wb, filler, NA, 999, 999, 4, 16, 188, 124, 61, 98, 68, 148, 2, 0.853976
124, 6, wb, filler, NA, 999, 999, 4, 16, 188, 124, 61, 98, 68, 148, 1, 0.28229
124, 6, wb, filler, NA, 999, 999, 4, 17, 76, 86, 126, 120, 86, 65, 3, 1.82086
124, 6, wb, filler, NA, 999, 999, 4, 17, 76, 86, 126, 120, 86, 65, 2, 0.338941
124, 6, wb, attraction, a-b-db, 5, 1, 4, 18, 135, 60, 60, 135, 58, 132, 3, 1.95537
124, 6, wb, attraction, a-b-db, 5, 1, 4, 18, 135, 60, 60, 135, 58, 132, 2, 0.779521
124, 6, wb, attraction, a-b-da, 5, 1, 4, 19, 132, 58, 135, 60, 60, 135, 1, 3.2979
124, 6, wb, attraction, a-b-da, 5, 1, 4, 19, 132, 58, 135, 60, 60, 135, 2, 1.20409
124, 6, wb, filler, NA, 999, 999, 4, 20, 185, 74, 158, 177, 71, 133, 3, 0.697662
124, 6, wb, filler, NA, 999, 999, 4, 20, 185, 74, 158, 177, 71, 133, 2, 0.308793
124, 6, wb, attraction, a-b-db, 9, 3, 4, 21, 120, 195, 195, 120, 114, 186, 3, 1.38186
124, 6, wb, attraction, a-b-db, 9, 3, 4, 21, 120, 195, 195, 120, 114, 186, 1, 1.03745
124, 6, wb, filler, NA, 999, 999, 4, 22, 159, 147, 86, 87, 173, 92, 2, 0.937711
124, 6, wb, filler, NA, 999, 999, 4, 22, 159, 147, 86, 87, 173, 92, 1, 0.554727
124, 6, wb, attraction, a-b-db, 5, 3, 4, 23, 195, 120, 120, 195, 117, 190, 3, 1.55458
124, 6, wb, attraction, a-b-db, 5, 3, 4, 23, 195, 120, 120, 195, 117, 190, 2, 0.706774
124, 6, wb, filler, NA, 999, 999, 4, 24, 140, 192, 94, 91, 161, 109, 2, 0.61983
124, 6, wb, filler, NA, 999, 999, 4, 24, 140, 192, 94, 91, 161, 109, 1, 0.42626
124, 6, wb, attraction, a-b-da, 14, 2, 4, 25, 153, 83, 90, 165, 165, 90, 1, 2.71866
124, 6, wb, attraction, a-b-da, 14, 2, 4, 25, 153, 83, 90, 165, 165, 90, 2, 0.256405
124, 6, wb, filler, NA, 999, 999, 4, 26, 102, 142, 121, 104, 187, 136, 2, 3.01166
124, 6, wb, filler, NA, 999, 999, 4, 26, 102, 142, 121, 104, 187, 136, 3, 0.273423
124, 6, wb, attraction, a-b-da, 5, 2, 4, 27, 90, 165, 161, 88, 165, 90, 2, 1.61182
124, 6, wb, attraction, a-b-da, 5, 2, 4, 27, 90, 165, 161, 88, 165, 90, 1, 0.546031
124, 6, wb, attraction, a-b-db, 14, 1, 4, 28, 60, 135, 135, 60, 56, 125, 3, 1.72978
124, 6, wb, attraction, a-b-db, 14, 1, 4, 28, 60, 135, 135, 60, 56, 125, 2, 1.10243
124, 6, wb, attraction, a-b-da, 14, 3, 4, 29, 195, 120, 120, 195, 181, 111, 3, 4.15676
124, 6, wb, attraction, a-b-da, 14, 3, 4, 29, 195, 120, 120, 195, 181, 111, 1, 1.99609
124, 6, wb, filler, NA, 999, 999, 4, 30, 80, 192, 89, 72, 64, 195, 2, 0.553538
124, 6, wb, filler, NA, 999, 999, 4, 30, 80, 192, 89, 72, 64, 195, 1, 0.666035
124, 6, wb, attraction, a-b-db, 2, 2, 4, 31, 165, 90, 90, 165, 89, 163, 2, 4.81304
124, 6, wb, attraction, a-b-db, 2, 2, 4, 31, 165, 90, 90, 165, 89, 163, 3, 0.338106
124, 6, wb, attraction, a-b-db, 5, 2, 4, 32, 90, 165, 88, 161, 165, 90, 2, 1.82664
124, 6, wb, attraction, a-b-db, 5, 2, 4, 32, 90, 165, 88, 161, 165, 90, 1, 0.360126
124, 6, wb, attraction, a-b-db, 2, 3, 4, 33, 119, 193, 120, 195, 195, 120, 3, 3.11126
124, 6, wb, attraction, a-b-db, 2, 3, 4, 33, 119, 193, 120, 195, 195, 120, 2, 1.75281
124, 6, wb, attraction, a-b-db, 14, 3, 4, 34, 195, 120, 120, 195, 111, 181, 3, 1.18425
124, 6, wb, attraction, a-b-db, 14, 3, 4, 34, 195, 120, 120, 195, 111, 181, 2, 2.29589
124, 6, wb, attraction, a-b-da, 9, 3, 4, 35, 195, 120, 186, 114, 120, 195, 2, 3.71331
124, 6, wb, attraction, a-b-da, 9, 3, 4, 35, 195, 120, 186, 114, 120, 195, 1, 0.99461
124, 6, wb, attraction, a-b-da, 2, 2, 4, 36, 165, 90, 163, 89, 90, 165, 1, 2.36823
124, 6, wb, attraction, a-b-da, 2, 2, 4, 36, 165, 90, 163, 89, 90, 165, 2, 0.944125
124, 6, wb, attraction, a-b-db, 9, 2, 4, 37, 165, 90, 90, 165, 86, 157, 3, 1.56771
124, 6, wb, attraction, a-b-db, 9, 2, 4, 37, 165, 90, 90, 165, 86, 157, 2, 1.37588
124, 6, wb, attraction, a-b-da, 14, 1, 5, 1, 125, 56, 60, 135, 135, 60, 1, 3.24465
124, 6, wb, attraction, a-b-da, 14, 1, 5, 1, 125, 56, 60, 135, 135, 60, 2, 0.80903
124, 6, wb, filler, NA, 999, 999, 5, 2, 84, 129, 113, 118, 139, 88, 1, 1.62202
124, 6, wb, filler, NA, 999, 999, 5, 2, 84, 129, 113, 118, 139, 88, 2, 0.619435
124, 6, wb, filler, NA, 999, 999, 5, 3, 124, 175, 95, 77, 97, 161, 2, 0.632641
124, 6, wb, filler, NA, 999, 999, 5, 3, 124, 175, 95, 77, 97, 161, 1, 0.574327
124, 6, wb, filler, NA, 999, 999, 5, 4, 68, 184, 107, 147, 114, 185, 1, 1.66085
124, 6, wb, filler, NA, 999, 999, 5, 4, 68, 184, 107, 147, 114, 185, 3, 0.296906
124, 6, wb, catch, NA, 999, 999, 5, 5, 106, 149, 177, 138, 111, 84, 3, 0.794767
124, 6, wb, catch, NA, 999, 999, 5, 5, 106, 149, 177, 138, 111, 84, 2, 0.265908
124, 6, wb, attraction, a-b-da, 2, 3, 5, 6, 195, 120, 193, 119, 120, 195, 2, 3.13313
124, 6, wb, attraction, a-b-da, 2, 3, 5, 6, 195, 120, 193, 119, 120, 195, 3, 0.317974
124, 6, wb, attraction, a-b-db, 9, 3, 5, 7, 195, 120, 114, 186, 120, 195, 2, 1.39122
124, 6, wb, attraction, a-b-db, 9, 3, 5, 7, 195, 120, 114, 186, 120, 195, 1, 2.18207
124, 6, wb, filler, NA, 999, 999, 5, 8, 166, 163, 129, 178, 79, 56, 3, 0.667957
124, 6, wb, filler, NA, 999, 999, 5, 8, 166, 163, 129, 178, 79, 56, 1, 0.584394
124, 6, wb, filler, NA, 999, 999, 5, 9, 137, 57, 159, 154, 167, 165, 1, 0.782748
124, 6, wb, filler, NA, 999, 999, 5, 9, 137, 57, 159, 154, 167, 165, 3, 1.15054
124, 6, wb, filler, NA, 999, 999, 5, 10, 86, 65, 174, 65, 62, 66, 3, 1.02214
124, 6, wb, filler, NA, 999, 999, 5, 10, 86, 65, 174, 65, 62, 66, 2, 0.459826
124, 6, wb, attraction, a-b-da, 5, 2, 5, 11, 161, 88, 90, 165, 165, 90, 1, 2.71096
124, 6, wb, attraction, a-b-da, 5, 2, 5, 11, 161, 88, 90, 165, 165, 90, 2, 1.01676
124, 6, wb, attraction, a-b-db, 5, 1, 5, 12, 58, 132, 60, 135, 135, 60, 3, 1.69371
124, 6, wb, attraction, a-b-db, 5, 1, 5, 12, 58, 132, 60, 135, 135, 60, 2, 0.704453
124, 6, wb, attraction, a-b-db, 9, 1, 5, 13, 57, 129, 135, 60, 60, 135, 2, 3.05816
124, 6, wb, attraction, a-b-db, 9, 1, 5, 13, 57, 129, 135, 60, 60, 135, 3, 0.725862
124, 6, wb, attraction, a-b-da, 2, 1, 5, 14, 134, 59, 135, 60, 60, 135, 2, 1.66216
124, 6, wb, attraction, a-b-da, 2, 1, 5, 14, 134, 59, 135, 60, 60, 135, 3, 0.458296
124, 6, wb, attraction, a-b-da, 9, 2, 5, 15, 165, 90, 157, 86, 90, 165, 2, 1.46142
124, 6, wb, attraction, a-b-da, 9, 2, 5, 15, 165, 90, 157, 86, 90, 165, 3, 0.505653
124, 6, wb, catch, NA, 999, 999, 5, 16, 128, 67, 121, 194, 110, 145, 1, 0.851414
124, 6, wb, catch, NA, 999, 999, 5, 16, 128, 67, 121, 194, 110, 145, 2, 0.304497
124, 6, wb, catch, NA, 999, 999, 5, 17, 165, 90, 74, 121, 192, 123, 2, 0.722355
124, 6, wb, catch, NA, 999, 999, 5, 17, 165, 90, 74, 121, 192, 123, 3, 0.252148
124, 6, wb, attraction, a-b-db, 2, 3, 5, 18, 120, 195, 195, 120, 119, 193, 2, 3.6
124, 6, wb, attraction, a-b-db, 2, 3, 5, 18, 120, 195, 195, 120, 119, 193, 3, 0.510195
124, 6, wb, attraction, a-b-db, 2, 2, 5, 19, 165, 90, 89, 163, 90, 165, 1, 3.62327
124, 6, wb, attraction, a-b-db, 2, 2, 5, 19, 165, 90, 89, 163, 90, 165, 3, 0.572165
124, 6, wb, filler, NA, 999, 999, 5, 20, 69, 187, 81, 154, 146, 191, 2, 5.92331
124, 6, wb, filler, NA, 999, 999, 5, 20, 69, 187, 81, 154, 146, 191, 3, 0.387228
124, 6, wb, attraction, a-b-da, 14, 3, 5, 21, 120, 195, 181, 111, 195, 120, 2, 5.64191
124, 6, wb, attraction, a-b-da, 14, 3, 5, 21, 120, 195, 181, 111, 195, 120, 3, 3.04543
124, 6, wb, filler, NA, 999, 999, 5, 22, 58, 56, 164, 102, 116, 151, 1, 0.864247
124, 6, wb, filler, NA, 999, 999, 5, 22, 58, 56, 164, 102, 116, 151, 2, 2.22082
124, 6, wb, attraction, a-b-da, 5, 1, 5, 23, 60, 135, 132, 58, 135, 60, 2, 5.85735
124, 6, wb, attraction, a-b-da, 5, 1, 5, 23, 60, 135, 132, 58, 135, 60, 3, 0.476093
124, 6, wb, attraction, a-b-da, 9, 3, 5, 24, 186, 114, 195, 120, 120, 195, 1, 2.84657
124, 6, wb, attraction, a-b-da, 9, 3, 5, 24, 186, 114, 195, 120, 120, 195, 3, 1.40292
124, 6, wb, attraction, a-b-db, 5, 2, 5, 25, 165, 90, 90, 165, 88, 161, 2, 1.29643
124, 6, wb, attraction, a-b-db, 5, 2, 5, 25, 165, 90, 90, 165, 88, 161, 3, 1.01932
124, 6, wb, attraction, a-b-db, 2, 1, 5, 26, 60, 135, 59, 134, 135, 60, 2, 1.62451
124, 6, wb, attraction, a-b-db, 2, 1, 5, 26, 60, 135, 59, 134, 135, 60, 1, 0.637769
124, 6, wb, attraction, a-b-db, 14, 1, 5, 27, 56, 125, 60, 135, 135, 60, 1, 1.52219
124, 6, wb, attraction, a-b-db, 14, 1, 5, 27, 56, 125, 60, 135, 135, 60, 3, 0.939794
124, 6, wb, attraction, a-b-da, 5, 3, 5, 28, 190, 117, 120, 195, 195, 120, 3, 3.20345
124, 6, wb, attraction, a-b-da, 5, 3, 5, 28, 190, 117, 120, 195, 195, 120, 2, 4.32965
124, 6, wb, attraction, a-b-db, 14, 3, 5, 29, 111, 181, 195, 120, 120, 195, 1, 0.984851
124, 6, wb, attraction, a-b-db, 14, 3, 5, 29, 111, 181, 195, 120, 120, 195, 3, 0.800567
124, 6, wb, attraction, a-b-db, 14, 2, 5, 30, 165, 90, 83, 153, 90, 165, 2, 1.89427
124, 6, wb, attraction, a-b-db, 14, 2, 5, 30, 165, 90, 83, 153, 90, 165, 3, 0.98509
124, 6, wb, attraction, a-b-da, 9, 1, 5, 31, 129, 57, 135, 60, 60, 135, 1, 1.25525
124, 6, wb, attraction, a-b-da, 9, 1, 5, 31, 129, 57, 135, 60, 60, 135, 2, 2.41161
124, 6, wb, filler, NA, 999, 999, 5, 32, 160, 80, 183, 59, 170, 140, 2, 1.13605
124, 6, wb, filler, NA, 999, 999, 5, 32, 160, 80, 183, 59, 170, 140, 3, 0.825732
124, 6, wb, attraction, a-b-db, 9, 2, 5, 33, 90, 165, 165, 90, 86, 157, 3, 4.34195
124, 6, wb, attraction, a-b-db, 9, 2, 5, 33, 90, 165, 165, 90, 86, 157, 1, 0.47791
124, 6, wb, attraction, a-b-da, 2, 2, 5, 34, 163, 89, 165, 90, 90, 165, 1, 8.05636
124, 6, wb, attraction, a-b-da, 2, 2, 5, 34, 163, 89, 165, 90, 90, 165, 2, 0.290592
124, 6, wb, filler, NA, 999, 999, 5, 35, 57, 163, 68, 130, 100, 65, 3, 2.1643
124, 6, wb, filler, NA, 999, 999, 5, 35, 57, 163, 68, 130, 100, 65, 2, 2.32442
124, 6, wb, attraction, a-b-db, 5, 3, 5, 36, 117, 190, 195, 120, 120, 195, 1, 2.33228
124, 6, wb, attraction, a-b-db, 5, 3, 5, 36, 117, 190, 195, 120, 120, 195, 2, 1.33346
124, 6, wb, attraction, a-b-da, 14, 2, 5, 37, 153, 83, 90, 165, 165, 90, 1, 1.58156
124, 6, wb, attraction, a-b-da, 14, 2, 5, 37, 153, 83, 90, 165, 165, 90, 2, 0.749098
124, 6, wb, attraction, a-b-da, 5, 3, 6, 1, 120, 195, 190, 117, 195, 120, 2, 2.0528
124, 6, wb, attraction, a-b-da, 5, 3, 6, 1, 120, 195, 190, 117, 195, 120, 1, 0.529496
124, 6, wb, attraction, a-b-db, 5, 3, 6, 2, 120, 195, 195, 120, 117, 190, 3, 3.41787
124, 6, wb, attraction, a-b-db, 5, 3, 6, 2, 120, 195, 195, 120, 117, 190, 1, 1.43142
124, 6, wb, attraction, a-b-da, 14, 2, 6, 3, 90, 165, 165, 90, 153, 83, 2, 1.60363
124, 6, wb, attraction, a-b-da, 14, 2, 6, 3, 90, 165, 165, 90, 153, 83, 1, 0.649803
124, 6, wb, filler, NA, 999, 999, 6, 4, 167, 161, 74, 130, 95, 130, 2, 0.621486
124, 6, wb, filler, NA, 999, 999, 6, 4, 167, 161, 74, 130, 95, 130, 1, 0.499322
124, 6, wb, catch, NA, 999, 999, 6, 5, 67, 128, 151, 164, 107, 148, 1, 0.79707
124, 6, wb, catch, NA, 999, 999, 6, 5, 67, 128, 151, 164, 107, 148, 2, 0.220251
124, 6, wb, attraction, a-b-da, 14, 1, 6, 6, 60, 135, 135, 60, 125, 56, 2, 1.56944
124, 6, wb, attraction, a-b-da, 14, 1, 6, 6, 60, 135, 135, 60, 125, 56, 1, 1.28948
124, 6, wb, attraction, a-b-db, 5, 1, 6, 7, 60, 135, 58, 132, 135, 60, 2, 1.74773
124, 6, wb, attraction, a-b-db, 5, 1, 6, 7, 60, 135, 58, 132, 135, 60, 3, 1.26067
124, 6, wb, attraction, a-b-da, 9, 2, 6, 8, 90, 165, 165, 90, 157, 86, 3, 2.43936
124, 6, wb, attraction, a-b-da, 9, 2, 6, 8, 90, 165, 165, 90, 157, 86, 1, 0.691968
124, 6, wb, filler, NA, 999, 999, 6, 9, 192, 98, 185, 115, 143, 107, 3, 1.13361
124, 6, wb, filler, NA, 999, 999, 6, 9, 192, 98, 185, 115, 143, 107, 2, 0.543235
124, 6, wb, attraction, a-b-db, 2, 3, 6, 10, 120, 195, 119, 193, 195, 120, 1, 2.48705
124, 6, wb, attraction, a-b-db, 2, 3, 6, 10, 120, 195, 119, 193, 195, 120, 3, 0.522331
124, 6, wb, attraction, a-b-da, 2, 3, 6, 11, 120, 195, 193, 119, 195, 120, 2, 1.57131
124, 6, wb, attraction, a-b-da, 2, 3, 6, 11, 120, 195, 193, 119, 195, 120, 1, 2.13083
124, 6, wb, catch, NA, 999, 999, 6, 12, 113, 82, 178, 137, 98, 157, 1, 0.762813
124, 6, wb, catch, NA, 999, 999, 6, 12, 113, 82, 178, 137, 98, 157, 2, 0.235228
124, 6, wb, attraction, a-b-da, 9, 3, 6, 13, 120, 195, 195, 120, 186, 114, 2, 1.74382
124, 6, wb, attraction, a-b-da, 9, 3, 6, 13, 120, 195, 195, 120, 186, 114, 1, 0.560583
124, 6, wb, attraction, a-b-db, 2, 1, 6, 14, 59, 134, 60, 135, 135, 60, 1, 3.13555
124, 6, wb, attraction, a-b-db, 2, 1, 6, 14, 59, 134, 60, 135, 135, 60, 3, 0.600712
124, 6, wb, filler, NA, 999, 999, 6, 15, 64, 136, 179, 151, 70, 126, 3, 1.07837
124, 6, wb, filler, NA, 999, 999, 6, 15, 64, 136, 179, 151, 70, 126, 2, 0.258036
124, 6, wb, attraction, a-b-da, 14, 3, 6, 16, 181, 111, 120, 195, 195, 120, 1, 4.74107
124, 6, wb, attraction, a-b-da, 14, 3, 6, 16, 181, 111, 120, 195, 195, 120, 3, 0.805066
124, 6, wb, attraction, a-b-da, 5, 2, 6, 17, 90, 165, 161, 88, 165, 90, 2, 3.28279
124, 6, wb, attraction, a-b-da, 5, 2, 6, 17, 90, 165, 161, 88, 165, 90, 3, 0.645637
124, 6, wb, attraction, a-b-db, 2, 2, 6, 18, 90, 165, 89, 163, 165, 90, 2, 1.97735
124, 6, wb, attraction, a-b-db, 2, 2, 6, 18, 90, 165, 89, 163, 165, 90, 1, 1.04076
124, 6, wb, attraction, a-b-da, 9, 1, 6, 19, 60, 135, 135, 60, 129, 57, 3, 2.26035
124, 6, wb, attraction, a-b-da, 9, 1, 6, 19, 60, 135, 135, 60, 129, 57, 1, 0.352225
124, 6, wb, attraction, a-b-db, 9, 1, 6, 20, 135, 60, 60, 135, 57, 129, 3, 2.04009
124, 6, wb, attraction, a-b-db, 9, 1, 6, 20, 135, 60, 60, 135, 57, 129, 2, 0.340867
124, 6, wb, attraction, a-b-db, 14, 1, 6, 21, 60, 135, 56, 125, 135, 60, 2, 3.04457
124, 6, wb, attraction, a-b-db, 14, 1, 6, 21, 60, 135, 56, 125, 135, 60, 3, 0.961003
124, 6, wb, attraction, a-b-db, 5, 2, 6, 22, 165, 90, 88, 161, 90, 165, 2, 2.73593
124, 6, wb, attraction, a-b-db, 5, 2, 6, 22, 165, 90, 88, 161, 90, 165, 3, 1.75322
124, 6, wb, filler, NA, 999, 999, 6, 23, 169, 115, 62, 194, 138, 134, 2, 2.51238
124, 6, wb, filler, NA, 999, 999, 6, 23, 169, 115, 62, 194, 138, 134, 3, 0.746334
124, 6, wb, filler, NA, 999, 999, 6, 24, 67, 138, 88, 127, 106, 70, 3, 2.53799
124, 6, wb, filler, NA, 999, 999, 6, 24, 67, 138, 88, 127, 106, 70, 2, 2.18653
124, 6, wb, catch, NA, 999, 999, 6, 25, 150, 165, 77, 118, 101, 154, 2, 1.27247
124, 6, wb, catch, NA, 999, 999, 6, 25, 150, 165, 77, 118, 101, 154, 1, 0.740052
124, 6, wb, filler, NA, 999, 999, 6, 26, 194, 86, 119, 94, 173, 174, 2, 1.25182
124, 6, wb, filler, NA, 999, 999, 6, 26, 194, 86, 119, 94, 173, 174, 3, 1.27266
124, 6, wb, attraction, a-b-da, 2, 2, 6, 27, 165, 90, 90, 165, 163, 89, 3, 4.05948
124, 6, wb, attraction, a-b-da, 2, 2, 6, 27, 165, 90, 90, 165, 163, 89, 2, 2.66287
124, 6, wb, attraction, a-b-db, 14, 3, 6, 28, 111, 181, 120, 195, 195, 120, 1, 5.32934
124, 6, wb, attraction, a-b-db, 14, 3, 6, 28, 111, 181, 120, 195, 195, 120, 3, 0.409703
124, 6, wb, filler, NA, 999, 999, 6, 29, 89, 134, 135, 61, 177, 145, 2, 0.694825
124, 6, wb, filler, NA, 999, 999, 6, 29, 89, 134, 135, 61, 177, 145, 3, 0.265863
124, 6, wb, attraction, a-b-da, 2, 1, 6, 30, 135, 60, 134, 59, 60, 135, 3, 1.46916
124, 6, wb, attraction, a-b-da, 2, 1, 6, 30, 135, 60, 134, 59, 60, 135, 1, 0.905342
124, 6, wb, attraction, a-b-db, 9, 2, 6, 31, 86, 157, 90, 165, 165, 90, 1, 1.1389
124, 6, wb, attraction, a-b-db, 9, 2, 6, 31, 86, 157, 90, 165, 165, 90, 2, 0.619889
124, 6, wb, attraction, a-b-db, 14, 2, 6, 32, 83, 153, 165, 90, 90, 165, 1, 1.41688
124, 6, wb, attraction, a-b-db, 14, 2, 6, 32, 83, 153, 165, 90, 90, 165, 3, 0.375171
124, 6, wb, filler, NA, 999, 999, 6, 33, 182, 110, 147, 156, 90, 116, 3, 0.805707
124, 6, wb, filler, NA, 999, 999, 6, 33, 182, 110, 147, 156, 90, 116, 2, 0.259942
124, 6, wb, attraction, a-b-db, 9, 3, 6, 34, 195, 120, 114, 186, 120, 195, 2, 2.00722
124, 6, wb, attraction, a-b-db, 9, 3, 6, 34, 195, 120, 114, 186, 120, 195, 1, 0.317203
124, 6, wb, attraction, a-b-da, 5, 1, 6, 35, 135, 60, 132, 58, 60, 135, 2, 2.00639
124, 6, wb, attraction, a-b-da, 5, 1, 6, 35, 135, 60, 132, 58, 60, 135, 1, 0.276348
124, 6, wb, filler, NA, 999, 999, 6, 36, 77, 152, 140, 56, 58, 150, 3, 1.62295
124, 6, wb, filler, NA, 999, 999, 6, 36, 77, 152, 140, 56, 58, 150, 1, 0.276316
124, 6, wb, filler, NA, 999, 999, 6, 37, 194, 188, 166, 102, 180, 58, 3, 1.20686
124, 6, wb, filler, NA, 999, 999, 6, 37, 194, 188, 166, 102, 180, 58, 1, 0.797219
124, 6, wb, attraction, a-b-da, 2, 3, 7, 1, 193, 119, 195, 120, 120, 195, 1, 3.50691
124, 6, wb, attraction, a-b-da, 2, 3, 7, 1, 193, 119, 195, 120, 120, 195, 3, 0.268363
124, 6, wb, attraction, a-b-db, 5, 2, 7, 2, 90, 165, 165, 90, 88, 161, 2, 2.65554
124, 6, wb, attraction, a-b-db, 5, 2, 7, 2, 90, 165, 165, 90, 88, 161, 1, 0.627416
124, 6, wb, attraction, a-b-db, 5, 3, 7, 3, 117, 190, 195, 120, 120, 195, 1, 3.59994
124, 6, wb, attraction, a-b-db, 5, 3, 7, 3, 117, 190, 195, 120, 120, 195, 3, 0.470016
124, 6, wb, attraction, a-b-db, 14, 2, 7, 4, 83, 153, 90, 165, 165, 90, 1, 1.19312
124, 6, wb, attraction, a-b-db, 14, 2, 7, 4, 83, 153, 90, 165, 165, 90, 3, 0.50406
124, 6, wb, attraction, a-b-da, 14, 1, 7, 5, 125, 56, 60, 135, 135, 60, 1, 2.40982
124, 6, wb, attraction, a-b-da, 14, 1, 7, 5, 125, 56, 60, 135, 135, 60, 2, 1.42376
124, 6, wb, catch, NA, 999, 999, 7, 6, 144, 171, 146, 109, 94, 101, 3, 0.683917
124, 6, wb, catch, NA, 999, 999, 7, 6, 144, 171, 146, 109, 94, 101, 1, 0.247595
124, 6, wb, attraction, a-b-db, 14, 1, 7, 7, 56, 125, 60, 135, 135, 60, 1, 0.707431
124, 6, wb, attraction, a-b-db, 14, 1, 7, 7, 56, 125, 60, 135, 135, 60, 2, 1.66185
124, 6, wb, catch, NA, 999, 999, 7, 8, 74, 121, 94, 161, 173, 142, 1, 0.792619
124, 6, wb, catch, NA, 999, 999, 7, 8, 74, 121, 94, 161, 173, 142, 3, 0.24772
124, 6, wb, attraction, a-b-db, 5, 1, 7, 9, 60, 135, 58, 132, 135, 60, 2, 1.39561
124, 6, wb, attraction, a-b-db, 5, 1, 7, 9, 60, 135, 58, 132, 135, 60, 3, 1.21843
124, 6, wb, filler, NA, 999, 999, 7, 10, 112, 112, 146, 133, 133, 114, 1, 2.06334
124, 6, wb, filler, NA, 999, 999, 7, 10, 112, 112, 146, 133, 133, 114, 2, 0.683315
124, 6, wb, attraction, a-b-da, 2, 1, 7, 11, 135, 60, 60, 135, 134, 59, 3, 2.54981
124, 6, wb, attraction, a-b-da, 2, 1, 7, 11, 135, 60, 60, 135, 134, 59, 2, 3.07036
124, 6, wb, filler, NA, 999, 999, 7, 12, 82, 65, 74, 124, 65, 180, 1, 1.28063
124, 6, wb, filler, NA, 999, 999, 7, 12, 82, 65, 74, 124, 65, 180, 3, 1.18017
124, 6, wb, filler, NA, 999, 999, 7, 13, 110, 178, 190, 121, 74, 58, 3, 2.11443
124, 6, wb, filler, NA, 999, 999, 7, 13, 110, 178, 190, 121, 74, 58, 2, 0.484489
124, 6, wb, attraction, a-b-db, 9, 1, 7, 14, 60, 135, 57, 129, 135, 60, 2, 1.19896
124, 6, wb, attraction, a-b-db, 9, 1, 7, 14, 60, 135, 57, 129, 135, 60, 1, 0.573743
124, 6, wb, attraction, a-b-da, 5, 1, 7, 15, 135, 60, 132, 58, 60, 135, 3, 1.18822
124, 6, wb, attraction, a-b-da, 5, 1, 7, 15, 135, 60, 132, 58, 60, 135, 2, 1.38712
124, 6, wb, catch, NA, 999, 999, 7, 16, 106, 149, 70, 125, 121, 194, 2, 0.809263
124, 6, wb, catch, NA, 999, 999, 7, 16, 106, 149, 70, 125, 121, 194, 3, 0.591806
124, 6, wb, attraction, a-b-da, 2, 2, 7, 17, 163, 89, 90, 165, 165, 90, 3, 2.18139
124, 6, wb, attraction, a-b-da, 2, 2, 7, 17, 163, 89, 90, 165, 165, 90, 2, 0.484868
124, 6, wb, attraction, a-b-da, 9, 3, 7, 18, 186, 114, 195, 120, 120, 195, 2, 1.38337
124, 6, wb, attraction, a-b-da, 9, 3, 7, 18, 186, 114, 195, 120, 120, 195, 1, 0.406815
124, 6, wb, filler, NA, 999, 999, 7, 19, 104, 165, 170, 180, 188, 119, 1, 0.771837
124, 6, wb, filler, NA, 999, 999, 7, 19, 104, 165, 170, 180, 188, 119, 2, 0.227674
124, 6, wb, filler, NA, 999, 999, 7, 20, 100, 187, 86, 189, 145, 185, 2, 0.84011
124, 6, wb, filler, NA, 999, 999, 7, 20, 100, 187, 86, 189, 145, 185, 3, 0.253167
124, 6, wb, attraction, a-b-db, 2, 2, 7, 21, 89, 163, 165, 90, 90, 165, 3, 1.36904
124, 6, wb, attraction, a-b-db, 2, 2, 7, 21, 89, 163, 165, 90, 90, 165, 1, 3.92132
124, 6, wb, attraction, a-b-da, 5, 2, 7, 22, 165, 90, 90, 165, 161, 88, 2, 1.72933
124, 6, wb, attraction, a-b-da, 5, 2, 7, 22, 165, 90, 90, 165, 161, 88, 3, 1.42686
124, 6, wb, filler, NA, 999, 999, 7, 23, 73, 118, 153, 164, 171, 155, 1, 0.646838
124, 6, wb, filler, NA, 999, 999, 7, 23, 73, 118, 153, 164, 171, 155, 2, 0.187961
124, 6, wb, attraction, a-b-db, 2, 3, 7, 24, 119, 193, 195, 120, 120, 195, 2, 3.58667
124, 6, wb, attraction, a-b-db, 2, 3, 7, 24, 119, 193, 195, 120, 120, 195, 3, 0.44135
124, 6, wb, filler, NA, 999, 999, 7, 25, 84, 167, 143, 154, 165, 134, 1, 0.58917
124, 6, wb, filler, NA, 999, 999, 7, 25, 84, 167, 143, 154, 165, 134, 2, 0.300326
124, 6, wb, attraction, a-b-da, 9, 1, 7, 26, 135, 60, 129, 57, 60, 135, 2, 1.33417
124, 6, wb, attraction, a-b-da, 9, 1, 7, 26, 135, 60, 129, 57, 60, 135, 3, 0.415758
124, 6, wb, attraction, a-b-db, 9, 2, 7, 27, 86, 157, 90, 165, 165, 90, 1, 1.26888
124, 6, wb, attraction, a-b-db, 9, 2, 7, 27, 86, 157, 90, 165, 165, 90, 2, 0.409162
124, 6, wb, attraction, a-b-da, 14, 2, 7, 28, 165, 90, 90, 165, 153, 83, 3, 1.50232
124, 6, wb, attraction, a-b-da, 14, 2, 7, 28, 165, 90, 90, 165, 153, 83, 2, 0.37708
124, 6, wb, filler, NA, 999, 999, 7, 29, 189, 172, 65, 134, 115, 190, 2, 0.831643
124, 6, wb, filler, NA, 999, 999, 7, 29, 189, 172, 65, 134, 115, 190, 1, 0.365309
124, 6, wb, attraction, a-b-db, 9, 3, 7, 30, 120, 195, 114, 186, 195, 120, 2, 1.75644
124, 6, wb, attraction, a-b-db, 9, 3, 7, 30, 120, 195, 114, 186, 195, 120, 1, 0.572631
124, 6, wb, filler, NA, 999, 999, 7, 31, 103, 126, 146, 161, 173, 151, 1, 0.667655
124, 6, wb, filler, NA, 999, 999, 7, 31, 103, 126, 146, 161, 173, 151, 2, 2.50416
124, 6, wb, filler, NA, 999, 999, 7, 32, 101, 168, 134, 155, 140, 94, 3, 2.82537
124, 6, wb, filler, NA, 999, 999, 7, 32, 101, 168, 134, 155, 140, 94, 2, 0.342355
124, 6, wb, attraction, a-b-da, 9, 2, 7, 33, 165, 90, 157, 86, 90, 165, 2, 3.83011
124, 6, wb, attraction, a-b-da, 9, 2, 7, 33, 165, 90, 157, 86, 90, 165, 3, 0.427001
124, 6, wb, attraction, a-b-db, 2, 1, 7, 34, 60, 135, 135, 60, 59, 134, 3, 1.1755
124, 6, wb, attraction, a-b-db, 2, 1, 7, 34, 60, 135, 135, 60, 59, 134, 2, 0.343172
124, 6, wb, attraction, a-b-da, 5, 3, 7, 35, 190, 117, 195, 120, 120, 195, 2, 3.22292
124, 6, wb, attraction, a-b-da, 5, 3, 7, 35, 190, 117, 195, 120, 120, 195, 3, 0.331871
124, 6, wb, attraction, a-b-db, 14, 3, 7, 36, 111, 181, 120, 195, 195, 120, 3, 5.94041
124, 6, wb, attraction, a-b-db, 14, 3, 7, 36, 111, 181, 120, 195, 195, 120, 2, 0.475845
124, 6, wb, attraction, a-b-da, 14, 3, 7, 37, 195, 120, 181, 111, 120, 195, 2, 4.99022
124, 6, wb, attraction, a-b-da, 14, 3, 7, 37, 195, 120, 181, 111, 120, 195, 3, 0.724057
124, 6, wb, filler, NA, 999, 999, 8, 1, 142, 59, 158, 79, 146, 180, 1, 1.0685
124, 6, wb, filler, NA, 999, 999, 8, 1, 142, 59, 158, 79, 146, 180, 3, 0.528795
124, 6, wb, attraction, a-b-da, 14, 1, 8, 2, 60, 135, 125, 56, 135, 60, 2, 1.36107
124, 6, wb, attraction, a-b-da, 14, 1, 8, 2, 60, 135, 125, 56, 135, 60, 3, 2.48951
124, 6, wb, attraction, a-b-da, 5, 1, 8, 3, 132, 58, 60, 135, 135, 60, 1, 5.65918
124, 6, wb, attraction, a-b-da, 5, 1, 8, 3, 132, 58, 60, 135, 135, 60, 2, 0.382029
124, 6, wb, catch, NA, 999, 999, 8, 4, 92, 163, 72, 123, 166, 149, 2, 1.18854
124, 6, wb, catch, NA, 999, 999, 8, 4, 92, 163, 72, 123, 166, 149, 3, 0.243463
124, 6, wb, filler, NA, 999, 999, 8, 5, 163, 181, 62, 167, 191, 113, 2, 0.991395
124, 6, wb, filler, NA, 999, 999, 8, 5, 163, 181, 62, 167, 191, 113, 1, 0.270266
124, 6, wb, filler, NA, 999, 999, 8, 6, 100, 99, 189, 64, 193, 125, 1, 2.20153
124, 6, wb, filler, NA, 999, 999, 8, 6, 100, 99, 189, 64, 193, 125, 3, 0.624154
124, 6, wb, attraction, a-b-da, 14, 3, 8, 7, 181, 111, 120, 195, 195, 120, 1, 3.62048
124, 6, wb, attraction, a-b-da, 14, 3, 8, 7, 181, 111, 120, 195, 195, 120, 2, 0.754074
124, 6, wb, attraction, a-b-da, 2, 3, 8, 8, 195, 120, 193, 119, 120, 195, 2, 4.75382
124, 6, wb, attraction, a-b-da, 2, 3, 8, 8, 195, 120, 193, 119, 120, 195, 1, 0.345682
124, 6, wb, attraction, a-b-db, 9, 2, 8, 9, 86, 157, 165, 90, 90, 165, 1, 3.03348
124, 6, wb, attraction, a-b-db, 9, 2, 8, 9, 86, 157, 165, 90, 90, 165, 3, 0.438547
124, 6, wb, attraction, a-b-db, 5, 1, 8, 10, 58, 132, 60, 135, 135, 60, 1, 1.46686
124, 6, wb, attraction, a-b-db, 5, 1, 8, 10, 58, 132, 60, 135, 135, 60, 3, 0.879211
124, 6, wb, filler, NA, 999, 999, 8, 11, 105, 171, 60, 90, 92, 123, 2, 0.769578
124, 6, wb, filler, NA, 999, 999, 8, 11, 105, 171, 60, 90, 92, 123, 1, 0.36184
124, 6, wb, attraction, a-b-da, 2, 1, 8, 12, 135, 60, 60, 135, 134, 59, 1, 2.38496
124, 6, wb, attraction, a-b-da, 2, 1, 8, 12, 135, 60, 60, 135, 134, 59, 3, 1.83219
124, 6, wb, attraction, a-b-db, 2, 2, 8, 13, 165, 90, 90, 165, 89, 163, 1, 2.46822
124, 6, wb, attraction, a-b-db, 2, 2, 8, 13, 165, 90, 90, 165, 89, 163, 3, 1.01615
124, 6, wb, filler, NA, 999, 999, 8, 14, 190, 158, 184, 142, 134, 111, 3, 0.909122
124, 6, wb, filler, NA, 999, 999, 8, 14, 190, 158, 184, 142, 134, 111, 1, 1.76739
124, 6, wb, attraction, a-b-da, 14, 2, 8, 15, 165, 90, 90, 165, 153, 83, 3, 1.4942
124, 6, wb, attraction, a-b-da, 14, 2, 8, 15, 165, 90, 90, 165, 153, 83, 2, 0.448982
124, 6, wb, attraction, a-b-db, 5, 3, 8, 16, 120, 195, 195, 120, 117, 190, 3, 1.44486
124, 6, wb, attraction, a-b-db, 5, 3, 8, 16, 120, 195, 195, 120, 117, 190, 1, 0.857818
124, 6, wb, attraction, a-b-da, 5, 2, 8, 17, 165, 90, 90, 165, 161, 88, 3, 1.7728
124, 6, wb, attraction, a-b-da, 5, 2, 8, 17, 165, 90, 90, 165, 161, 88, 2, 1.46012
124, 6, wb, attraction, a-b-da, 9, 2, 8, 18, 165, 90, 157, 86, 90, 165, 2, 1.55891
124, 6, wb, attraction, a-b-da, 9, 2, 8, 18, 165, 90, 157, 86, 90, 165, 3, 1.19105
124, 6, wb, attraction, a-b-da, 9, 3, 8, 19, 120, 195, 195, 120, 186, 114, 3, 1.53275
124, 6, wb, attraction, a-b-da, 9, 3, 8, 19, 120, 195, 195, 120, 186, 114, 1, 0.814271
124, 6, wb, attraction, a-b-da, 2, 2, 8, 20, 163, 89, 90, 165, 165, 90, 3, 1.54713
124, 6, wb, attraction, a-b-da, 2, 2, 8, 20, 163, 89, 90, 165, 165, 90, 2, 0.579936
124, 6, wb, catch, NA, 999, 999, 8, 21, 130, 65, 186, 129, 142, 113, 1, 0.86631
124, 6, wb, catch, NA, 999, 999, 8, 21, 130, 65, 186, 129, 142, 113, 2, 0.29473
124, 6, wb, attraction, a-b-db, 14, 3, 8, 22, 111, 181, 120, 195, 195, 120, 1, 2.35252
124, 6, wb, attraction, a-b-db, 14, 3, 8, 22, 111, 181, 120, 195, 195, 120, 2, 2.56123
124, 6, wb, attraction, a-b-db, 14, 1, 8, 23, 60, 135, 135, 60, 56, 125, 3, 7.62371
124, 6, wb, attraction, a-b-db, 14, 1, 8, 23, 60, 135, 135, 60, 56, 125, 2, 2.57932
124, 6, wb, attraction, a-b-da, 5, 3, 8, 24, 190, 117, 120, 195, 195, 120, 3, 3.77711
124, 6, wb, attraction, a-b-da, 5, 3, 8, 24, 190, 117, 120, 195, 195, 120, 2, 1.40786
124, 6, wb, filler, NA, 999, 999, 8, 25, 171, 169, 77, 102, 124, 169, 2, 1.44469
124, 6, wb, filler, NA, 999, 999, 8, 25, 171, 169, 77, 102, 124, 169, 1, 0.353477
124, 6, wb, attraction, a-b-db, 2, 3, 8, 26, 120, 195, 119, 193, 195, 120, 3, 1.46532
124, 6, wb, attraction, a-b-db, 2, 3, 8, 26, 120, 195, 119, 193, 195, 120, 2, 1.09359
124, 6, wb, attraction, a-b-db, 2, 1, 8, 27, 59, 134, 135, 60, 60, 135, 2, 1.6712
124, 6, wb, attraction, a-b-db, 2, 1, 8, 27, 59, 134, 135, 60, 60, 135, 3, 1.73855
124, 6, wb, attraction, a-b-db, 5, 2, 8, 28, 88, 161, 90, 165, 165, 90, 1, 2.16267
124, 6, wb, attraction, a-b-db, 5, 2, 8, 28, 88, 161, 90, 165, 165, 90, 2, 0.586618
124, 6, wb, catch, NA, 999, 999, 8, 29, 110, 85, 148, 167, 123, 132, 1, 0.729132
124, 6, wb, catch, NA, 999, 999, 8, 29, 110, 85, 148, 167, 123, 132, 2, 0.242831
124, 6, wb, attraction, a-b-db, 14, 2, 8, 30, 165, 90, 90, 165, 83, 153, 3, 1.3587
124, 6, wb, attraction, a-b-db, 14, 2, 8, 30, 165, 90, 90, 165, 83, 153, 1, 0.9429
124, 6, wb, attraction, a-b-da, 9, 1, 8, 31, 129, 57, 135, 60, 60, 135, 1, 2.3825
124, 6, wb, attraction, a-b-da, 9, 1, 8, 31, 129, 57, 135, 60, 60, 135, 2, 0.749695
124, 6, wb, filler, NA, 999, 999, 8, 32, 120, 77, 77, 97, 181, 157, 2, 0.78937
124, 6, wb, filler, NA, 999, 999, 8, 32, 120, 77, 77, 97, 181, 157, 3, 0.220512
124, 6, wb, attraction, a-b-db, 9, 1, 8, 33, 57, 129, 135, 60, 60, 135, 1, 1.58599
124, 6, wb, attraction, a-b-db, 9, 1, 8, 33, 57, 129, 135, 60, 60, 135, 3, 0.945296
124, 6, wb, filler, NA, 999, 999, 8, 34, 135, 86, 96, 169, 81, 79, 3, 0.712937
124, 6, wb, filler, NA, 999, 999, 8, 34, 135, 86, 96, 169, 81, 79, 2, 0.507324
124, 6, wb, attraction, a-b-db, 9, 3, 8, 35, 195, 120, 120, 195, 114, 186, 3, 2.42843
124, 6, wb, attraction, a-b-db, 9, 3, 8, 35, 195, 120, 120, 195, 114, 186, 2, 1.07358
124, 6, wb, filler, NA, 999, 999, 8, 36, 70, 185, 149, 102, 143, 75, 3, 1.79586
124, 6, wb, filler, NA, 999, 999, 8, 36, 70, 185, 149, 102, 143, 75, 2, 0.562622
124, 6, wb, filler, NA, 999, 999, 8, 37, 99, 126, 155, 142, 167, 178, 1, 0.625614
124, 6, wb, filler, NA, 999, 999, 8, 37, 99, 126, 155, 142, 167, 178, 3, 0.847517
