sub_n, computer_n, bw_cond, effect, set, distance, diag, block_n, trial_n, h1, w1, h2, w2, h3, w3, choice, rt 
181, 6, bw, practice, NA, 999, 999, 0, 1, 188, 94, 68, 71, 108, 124, 1, 4.71678
181, 6, bw, practice, NA, 999, 999, 0, 1, 188, 94, 68, 71, 108, 124, 2, 2.58324
181, 6, bw, practice, NA, 999, 999, 0, 2, 169, 168, 160, 183, 61, 75, 2, 7.56869
181, 6, bw, practice, NA, 999, 999, 0, 2, 169, 168, 160, 183, 61, 75, 3, 2.44123
181, 6, bw, practice, NA, 999, 999, 0, 3, 67, 83, 94, 146, 92, 181, 3, 2.75903
181, 6, bw, practice, NA, 999, 999, 0, 3, 67, 83, 94, 146, 92, 181, 1, 1.62325
181, 6, bw, filler, NA, 999, 999, 1, 1, 89, 120, 85, 96, 159, 149, 3, 2.75994
181, 6, bw, filler, NA, 999, 999, 1, 1, 89, 120, 85, 96, 159, 149, 2, 2.34378
181, 6, bw, attraction, a-b-da, 9, 3, 1, 2, 195, 120, 186, 114, 120, 195, 2, 4.51098
181, 6, bw, attraction, a-b-da, 9, 3, 1, 2, 195, 120, 186, 114, 120, 195, 1, 1.75213
181, 6, bw, filler, NA, 999, 999, 1, 3, 103, 176, 101, 94, 116, 124, 1, 2.62351
181, 6, bw, filler, NA, 999, 999, 1, 3, 103, 176, 101, 94, 116, 124, 2, 3.50869
181, 6, bw, attraction, a-b-db, 9, 2, 1, 4, 86, 157, 165, 90, 90, 165, 3, 4.83691
181, 6, bw, attraction, a-b-db, 9, 2, 1, 4, 86, 157, 165, 90, 90, 165, 1, 3.5534
181, 6, bw, catch, NA, 999, 999, 1, 5, 181, 134, 135, 120, 60, 135, 1, 2.35216
181, 6, bw, catch, NA, 999, 999, 1, 5, 181, 134, 135, 120, 60, 135, 3, 1.09678
181, 6, bw, filler, NA, 999, 999, 1, 6, 159, 170, 118, 73, 109, 60, 1, 1.01834
181, 6, bw, filler, NA, 999, 999, 1, 6, 159, 170, 118, 73, 109, 60, 3, 1.28069
181, 6, bw, attraction, a-b-db, 2, 2, 1, 7, 165, 90, 90, 165, 89, 163, 2, 1.49089
181, 6, bw, attraction, a-b-db, 2, 2, 1, 7, 165, 90, 90, 165, 89, 163, 1, 2.49374
181, 6, bw, attraction, a-b-db, 2, 3, 1, 8, 195, 120, 120, 195, 119, 193, 2, 1.25487
181, 6, bw, attraction, a-b-db, 2, 3, 1, 8, 195, 120, 120, 195, 119, 193, 3, 1.22713
181, 6, bw, catch, NA, 999, 999, 1, 9, 188, 127, 80, 115, 162, 93, 1, 1.25534
181, 6, bw, catch, NA, 999, 999, 1, 9, 188, 127, 80, 115, 162, 93, 2, 0.81978
181, 6, bw, attraction, a-b-db, 5, 1, 1, 10, 135, 60, 58, 132, 60, 135, 2, 1.67268
181, 6, bw, attraction, a-b-db, 5, 1, 1, 10, 135, 60, 58, 132, 60, 135, 1, 4.70008
181, 6, bw, attraction, a-b-db, 14, 1, 1, 11, 135, 60, 60, 135, 56, 125, 2, 1.84458
181, 6, bw, attraction, a-b-db, 14, 1, 1, 11, 135, 60, 60, 135, 56, 125, 3, 1.40927
181, 6, bw, filler, NA, 999, 999, 1, 12, 91, 107, 108, 134, 91, 136, 2, 1.50204
181, 6, bw, filler, NA, 999, 999, 1, 12, 91, 107, 108, 134, 91, 136, 3, 0.961068
181, 6, bw, attraction, a-b-db, 14, 3, 1, 13, 111, 181, 120, 195, 195, 120, 2, 1.24789
181, 6, bw, attraction, a-b-db, 14, 3, 1, 13, 111, 181, 120, 195, 195, 120, 1, 0.772778
181, 6, bw, filler, NA, 999, 999, 1, 14, 175, 76, 157, 188, 107, 172, 2, 0.635208
181, 6, bw, filler, NA, 999, 999, 1, 14, 175, 76, 157, 188, 107, 172, 1, 0.881083
181, 6, bw, attraction, a-b-da, 14, 3, 1, 15, 181, 111, 195, 120, 120, 195, 2, 0.891226
181, 6, bw, attraction, a-b-da, 14, 3, 1, 15, 181, 111, 195, 120, 120, 195, 1, 0.590304
181, 6, bw, attraction, a-b-db, 9, 3, 1, 16, 195, 120, 120, 195, 114, 186, 2, 0.620092
181, 6, bw, attraction, a-b-db, 9, 3, 1, 16, 195, 120, 120, 195, 114, 186, 1, 0.681837
181, 6, bw, attraction, a-b-db, 2, 1, 1, 17, 135, 60, 60, 135, 59, 134, 2, 0.676234
181, 6, bw, attraction, a-b-db, 2, 1, 1, 17, 135, 60, 60, 135, 59, 134, 1, 0.448029
181, 6, bw, filler, NA, 999, 999, 1, 18, 68, 107, 195, 81, 113, 90, 2, 0.587817
181, 6, bw, filler, NA, 999, 999, 1, 18, 68, 107, 195, 81, 113, 90, 1, 0.618918
181, 6, bw, attraction, a-b-da, 5, 3, 1, 19, 120, 195, 195, 120, 190, 117, 2, 0.656006
181, 6, bw, attraction, a-b-da, 5, 3, 1, 19, 120, 195, 195, 120, 190, 117, 1, 0.852432
181, 6, bw, attraction, a-b-da, 2, 2, 1, 20, 163, 89, 165, 90, 90, 165, 2, 0.864083
181, 6, bw, attraction, a-b-da, 2, 2, 1, 20, 163, 89, 165, 90, 90, 165, 1, 0.524435
181, 6, bw, attraction, a-b-db, 9, 1, 1, 21, 135, 60, 60, 135, 57, 129, 2, 0.692928
181, 6, bw, attraction, a-b-db, 9, 1, 1, 21, 135, 60, 60, 135, 57, 129, 3, 0.896028
181, 6, bw, filler, NA, 999, 999, 1, 22, 103, 56, 130, 125, 102, 84, 2, 0.617689
181, 6, bw, filler, NA, 999, 999, 1, 22, 103, 56, 130, 125, 102, 84, 3, 1.08825
181, 6, bw, attraction, a-b-da, 14, 1, 1, 23, 125, 56, 135, 60, 60, 135, 2, 0.834514
181, 6, bw, attraction, a-b-da, 14, 1, 1, 23, 125, 56, 135, 60, 60, 135, 3, 0.696054
181, 6, bw, attraction, a-b-da, 9, 2, 1, 24, 165, 90, 90, 165, 157, 86, 2, 0.561776
181, 6, bw, attraction, a-b-da, 9, 2, 1, 24, 165, 90, 90, 165, 157, 86, 1, 0.770427
181, 6, bw, catch, NA, 999, 999, 1, 25, 107, 148, 135, 180, 105, 90, 2, 0.673261
181, 6, bw, catch, NA, 999, 999, 1, 25, 107, 148, 135, 180, 105, 90, 3, 0.909138
181, 6, bw, attraction, a-b-db, 14, 2, 1, 26, 165, 90, 90, 165, 83, 153, 2, 0.614063
181, 6, bw, attraction, a-b-db, 14, 2, 1, 26, 165, 90, 90, 165, 83, 153, 1, 0.748523
181, 6, bw, attraction, a-b-da, 5, 2, 1, 27, 90, 165, 165, 90, 161, 88, 2, 0.75626
181, 6, bw, attraction, a-b-da, 5, 2, 1, 27, 90, 165, 165, 90, 161, 88, 3, 0.452648
181, 6, bw, attraction, a-b-da, 2, 1, 1, 28, 60, 135, 135, 60, 134, 59, 2, 0.768388
181, 6, bw, attraction, a-b-da, 2, 1, 1, 28, 60, 135, 135, 60, 134, 59, 1, 0.424799
181, 6, bw, attraction, a-b-da, 9, 1, 1, 29, 129, 57, 60, 135, 135, 60, 2, 1.05339
181, 6, bw, attraction, a-b-da, 9, 1, 1, 29, 129, 57, 60, 135, 135, 60, 3, 0.491279
181, 6, bw, attraction, a-b-da, 2, 3, 1, 30, 193, 119, 120, 195, 195, 120, 2, 0.508128
181, 6, bw, attraction, a-b-da, 2, 3, 1, 30, 193, 119, 120, 195, 195, 120, 1, 0.478597
181, 6, bw, filler, NA, 999, 999, 1, 31, 83, 147, 92, 122, 115, 67, 2, 0.545035
181, 6, bw, filler, NA, 999, 999, 1, 31, 83, 147, 92, 122, 115, 67, 3, 0.466204
181, 6, bw, attraction, a-b-db, 5, 2, 1, 32, 90, 165, 88, 161, 165, 90, 2, 0.669242
181, 6, bw, attraction, a-b-db, 5, 2, 1, 32, 90, 165, 88, 161, 165, 90, 1, 0.993732
181, 6, bw, attraction, a-b-da, 5, 1, 1, 33, 135, 60, 132, 58, 60, 135, 2, 0.631353
181, 6, bw, attraction, a-b-da, 5, 1, 1, 33, 135, 60, 132, 58, 60, 135, 3, 0.533102
181, 6, bw, attraction, a-b-db, 5, 3, 1, 34, 120, 195, 195, 120, 117, 190, 2, 0.693556
181, 6, bw, attraction, a-b-db, 5, 3, 1, 34, 120, 195, 195, 120, 117, 190, 1, 0.43261
181, 6, bw, attraction, a-b-da, 14, 2, 1, 35, 165, 90, 90, 165, 153, 83, 2, 0.581134
181, 6, bw, attraction, a-b-da, 14, 2, 1, 35, 165, 90, 90, 165, 153, 83, 3, 0.604938
181, 6, bw, filler, NA, 999, 999, 1, 36, 188, 110, 193, 180, 180, 140, 2, 0.97064
181, 6, bw, filler, NA, 999, 999, 1, 36, 188, 110, 193, 180, 180, 140, 1, 0.450464
181, 6, bw, filler, NA, 999, 999, 1, 37, 159, 116, 74, 115, 124, 126, 2, 0.510233
181, 6, bw, filler, NA, 999, 999, 1, 37, 159, 116, 74, 115, 124, 126, 3, 0.632595
181, 6, bw, attraction, a-b-db, 5, 3, 2, 1, 120, 195, 195, 120, 117, 190, 2, 0.333041
181, 6, bw, attraction, a-b-db, 5, 3, 2, 1, 120, 195, 195, 120, 117, 190, 1, 0.678955
181, 6, bw, attraction, a-b-db, 14, 1, 2, 2, 56, 125, 60, 135, 135, 60, 2, 0.641248
181, 6, bw, attraction, a-b-db, 14, 1, 2, 2, 56, 125, 60, 135, 135, 60, 3, 0.510409
181, 6, bw, attraction, a-b-db, 2, 3, 2, 3, 119, 193, 120, 195, 195, 120, 2, 0.527509
181, 6, bw, attraction, a-b-db, 2, 3, 2, 3, 119, 193, 120, 195, 195, 120, 1, 0.46533
181, 6, bw, filler, NA, 999, 999, 2, 4, 57, 71, 145, 122, 83, 166, 2, 0.756476
181, 6, bw, filler, NA, 999, 999, 2, 4, 57, 71, 145, 122, 83, 166, 3, 0.59687
181, 6, bw, filler, NA, 999, 999, 2, 5, 167, 107, 172, 154, 190, 80, 2, 0.394724
181, 6, bw, filler, NA, 999, 999, 2, 5, 167, 107, 172, 154, 190, 80, 1, 0.497855
181, 6, bw, attraction, a-b-db, 5, 1, 2, 6, 135, 60, 58, 132, 60, 135, 2, 0.275563
181, 6, bw, attraction, a-b-db, 5, 1, 2, 6, 135, 60, 58, 132, 60, 135, 3, 0.775508
181, 6, bw, catch, NA, 999, 999, 2, 7, 128, 127, 134, 181, 117, 78, 2, 0.357783
181, 6, bw, catch, NA, 999, 999, 2, 7, 128, 127, 134, 181, 117, 78, 1, 0.494324
181, 6, bw, attraction, a-b-db, 9, 2, 2, 8, 90, 165, 165, 90, 86, 157, 2, 0.504102
181, 6, bw, attraction, a-b-db, 9, 2, 2, 8, 90, 165, 165, 90, 86, 157, 3, 0.442612
181, 6, bw, attraction, a-b-db, 14, 2, 2, 9, 90, 165, 83, 153, 165, 90, 2, 0.358524
181, 6, bw, attraction, a-b-db, 14, 2, 2, 9, 90, 165, 83, 153, 165, 90, 1, 0.454934
181, 6, bw, filler, NA, 999, 999, 2, 10, 115, 57, 97, 141, 68, 188, 2, 0.498727
181, 6, bw, filler, NA, 999, 999, 2, 10, 115, 57, 97, 141, 68, 188, 3, 0.461958
181, 6, bw, attraction, a-b-da, 5, 3, 2, 11, 195, 120, 190, 117, 120, 195, 2, 0.577098
181, 6, bw, attraction, a-b-da, 5, 3, 2, 11, 195, 120, 190, 117, 120, 195, 1, 0.488824
181, 6, bw, filler, NA, 999, 999, 2, 12, 169, 178, 129, 132, 128, 62, 2, 0.699296
181, 6, bw, filler, NA, 999, 999, 2, 12, 169, 178, 129, 132, 128, 62, 3, 0.574397
181, 6, bw, attraction, a-b-da, 5, 2, 2, 13, 90, 165, 161, 88, 165, 90, 2, 0.596808
181, 6, bw, attraction, a-b-da, 5, 2, 2, 13, 90, 165, 161, 88, 165, 90, 1, 0.82004
181, 6, bw, catch, NA, 999, 999, 2, 14, 159, 156, 118, 137, 115, 80, 2, 0.600974
181, 6, bw, catch, NA, 999, 999, 2, 14, 159, 156, 118, 137, 115, 80, 3, 0.552104
181, 6, bw, filler, NA, 999, 999, 2, 15, 105, 73, 153, 172, 154, 71, 2, 0.359816
181, 6, bw, filler, NA, 999, 999, 2, 15, 105, 73, 153, 172, 154, 71, 3, 1.60838
181, 6, bw, attraction, a-b-db, 9, 3, 2, 16, 195, 120, 120, 195, 114, 186, 2, 0.733226
181, 6, bw, attraction, a-b-db, 9, 3, 2, 16, 195, 120, 120, 195, 114, 186, 1, 0.310833
181, 6, bw, attraction, a-b-db, 2, 2, 2, 17, 90, 165, 165, 90, 89, 163, 2, 0.488073
181, 6, bw, attraction, a-b-db, 2, 2, 2, 17, 90, 165, 165, 90, 89, 163, 1, 0.651386
181, 6, bw, attraction, a-b-da, 9, 2, 2, 18, 90, 165, 165, 90, 157, 86, 3, 0.559112
181, 6, bw, attraction, a-b-da, 9, 2, 2, 18, 90, 165, 165, 90, 157, 86, 2, 1.19942
181, 6, bw, attraction, a-b-da, 2, 1, 2, 19, 135, 60, 60, 135, 134, 59, 2, 19.333
181, 6, bw, attraction, a-b-da, 2, 1, 2, 19, 135, 60, 60, 135, 134, 59, 3, 0.616981
181, 6, bw, attraction, a-b-da, 14, 2, 2, 20, 90, 165, 153, 83, 165, 90, 2, 0.981936
181, 6, bw, attraction, a-b-da, 14, 2, 2, 20, 90, 165, 153, 83, 165, 90, 3, 0.981701
181, 6, bw, attraction, a-b-da, 2, 3, 2, 21, 195, 120, 120, 195, 193, 119, 2, 1.1081
181, 6, bw, attraction, a-b-da, 2, 3, 2, 21, 195, 120, 120, 195, 193, 119, 3, 0.470273
181, 6, bw, attraction, a-b-da, 9, 1, 2, 22, 135, 60, 129, 57, 60, 135, 2, 0.80939
181, 6, bw, attraction, a-b-da, 9, 1, 2, 22, 135, 60, 129, 57, 60, 135, 3, 0.783818
181, 6, bw, filler, NA, 999, 999, 2, 23, 61, 82, 79, 153, 85, 112, 2, 0.71806
181, 6, bw, filler, NA, 999, 999, 2, 23, 61, 82, 79, 153, 85, 112, 1, 0.736681
181, 6, bw, filler, NA, 999, 999, 2, 24, 101, 187, 88, 162, 97, 137, 2, 0.465028
181, 6, bw, filler, NA, 999, 999, 2, 24, 101, 187, 88, 162, 97, 137, 1, 0.917434
181, 6, bw, attraction, a-b-db, 5, 2, 2, 25, 165, 90, 90, 165, 88, 161, 2, 0.534411
181, 6, bw, attraction, a-b-db, 5, 2, 2, 25, 165, 90, 90, 165, 88, 161, 1, 0.536263
181, 6, bw, attraction, a-b-da, 5, 1, 2, 26, 60, 135, 132, 58, 135, 60, 2, 0.552699
181, 6, bw, attraction, a-b-da, 5, 1, 2, 26, 60, 135, 132, 58, 135, 60, 3, 0.457835
181, 6, bw, attraction, a-b-db, 9, 1, 2, 27, 135, 60, 60, 135, 57, 129, 2, 0.628917
181, 6, bw, attraction, a-b-db, 9, 1, 2, 27, 135, 60, 60, 135, 57, 129, 1, 0.818713
181, 6, bw, attraction, a-b-db, 2, 1, 2, 28, 59, 134, 60, 135, 135, 60, 2, 0.695751
181, 6, bw, attraction, a-b-db, 2, 1, 2, 28, 59, 134, 60, 135, 135, 60, 3, 0.514869
181, 6, bw, attraction, a-b-da, 14, 3, 2, 29, 120, 195, 181, 111, 195, 120, 2, 0.707989
181, 6, bw, attraction, a-b-da, 14, 3, 2, 29, 120, 195, 181, 111, 195, 120, 1, 0.446383
181, 6, bw, filler, NA, 999, 999, 2, 30, 116, 123, 180, 75, 144, 67, 2, 8.06627
181, 6, bw, filler, NA, 999, 999, 2, 30, 116, 123, 180, 75, 144, 67, 3, 0.676244
181, 6, bw, attraction, a-b-db, 14, 3, 2, 31, 120, 195, 195, 120, 111, 181, 2, 0.774635
181, 6, bw, attraction, a-b-db, 14, 3, 2, 31, 120, 195, 195, 120, 111, 181, 3, 0.542521
181, 6, bw, attraction, a-b-da, 14, 1, 2, 32, 60, 135, 125, 56, 135, 60, 2, 1.30219
181, 6, bw, attraction, a-b-da, 14, 1, 2, 32, 60, 135, 125, 56, 135, 60, 3, 0.713035
181, 6, bw, catch, NA, 999, 999, 2, 33, 92, 103, 139, 116, 186, 129, 2, 0.522329
181, 6, bw, catch, NA, 999, 999, 2, 33, 92, 103, 139, 116, 186, 129, 1, 0.595932
181, 6, bw, attraction, a-b-da, 9, 3, 2, 34, 186, 114, 120, 195, 195, 120, 2, 0.865644
181, 6, bw, attraction, a-b-da, 9, 3, 2, 34, 186, 114, 120, 195, 195, 120, 1, 0.453995
181, 6, bw, attraction, a-b-da, 2, 2, 2, 35, 90, 165, 163, 89, 165, 90, 2, 0.641852
181, 6, bw, attraction, a-b-da, 2, 2, 2, 35, 90, 165, 163, 89, 165, 90, 1, 0.494916
181, 6, bw, filler, NA, 999, 999, 2, 36, 133, 170, 105, 105, 146, 163, 2, 0.848702
181, 6, bw, filler, NA, 999, 999, 2, 36, 133, 170, 105, 105, 146, 163, 1, 0.565774
181, 6, bw, filler, NA, 999, 999, 2, 37, 141, 147, 142, 62, 68, 114, 2, 1.34882
181, 6, bw, filler, NA, 999, 999, 2, 37, 141, 147, 142, 62, 68, 114, 1, 0.965795
181, 6, bw, attraction, a-b-db, 14, 3, 3, 1, 120, 195, 195, 120, 111, 181, 1, 0.948689
181, 6, bw, attraction, a-b-db, 14, 3, 3, 1, 120, 195, 195, 120, 111, 181, 2, 0.501791
181, 6, bw, attraction, a-b-db, 2, 3, 3, 2, 119, 193, 120, 195, 195, 120, 1, 0.767525
181, 6, bw, attraction, a-b-db, 2, 3, 3, 2, 119, 193, 120, 195, 195, 120, 2, 0.879994
181, 6, bw, filler, NA, 999, 999, 3, 3, 152, 58, 58, 100, 72, 76, 2, 0.866418
181, 6, bw, filler, NA, 999, 999, 3, 3, 152, 58, 58, 100, 72, 76, 1, 0.8066
181, 6, bw, attraction, a-b-da, 14, 3, 3, 4, 120, 195, 195, 120, 181, 111, 2, 0.875737
181, 6, bw, attraction, a-b-da, 14, 3, 3, 4, 120, 195, 195, 120, 181, 111, 1, 0.663439
181, 6, bw, filler, NA, 999, 999, 3, 5, 180, 111, 88, 142, 188, 86, 1, 1.23456
181, 6, bw, filler, NA, 999, 999, 3, 5, 180, 111, 88, 142, 188, 86, 2, 0.496006
181, 6, bw, attraction, a-b-db, 5, 1, 3, 6, 58, 132, 135, 60, 60, 135, 1, 0.793753
181, 6, bw, attraction, a-b-db, 5, 1, 3, 6, 58, 132, 135, 60, 60, 135, 2, 0.680883
181, 6, bw, filler, NA, 999, 999, 3, 7, 129, 184, 79, 149, 86, 145, 1, 0.523315
181, 6, bw, filler, NA, 999, 999, 3, 7, 129, 184, 79, 149, 86, 145, 2, 0.72503
181, 6, bw, attraction, a-b-da, 9, 3, 3, 8, 195, 120, 186, 114, 120, 195, 1, 0.461454
181, 6, bw, attraction, a-b-da, 9, 3, 3, 8, 195, 120, 186, 114, 120, 195, 2, 0.666033
181, 6, bw, attraction, a-b-da, 9, 2, 3, 9, 90, 165, 165, 90, 157, 86, 1, 0.484981
181, 6, bw, attraction, a-b-da, 9, 2, 3, 9, 90, 165, 165, 90, 157, 86, 2, 0.840865
181, 6, bw, filler, NA, 999, 999, 3, 10, 74, 114, 118, 172, 122, 168, 2, 0.94851
181, 6, bw, filler, NA, 999, 999, 3, 10, 74, 114, 118, 172, 122, 168, 1, 0.661528
181, 6, bw, attraction, a-b-da, 2, 1, 3, 11, 135, 60, 60, 135, 134, 59, 3, 0.816578
181, 6, bw, attraction, a-b-da, 2, 1, 3, 11, 135, 60, 60, 135, 134, 59, 2, 0.638957
181, 6, bw, attraction, a-b-db, 9, 3, 3, 12, 120, 195, 195, 120, 114, 186, 1, 0.531385
181, 6, bw, attraction, a-b-db, 9, 3, 3, 12, 120, 195, 195, 120, 114, 186, 2, 0.581197
181, 6, bw, attraction, a-b-da, 5, 2, 3, 13, 161, 88, 90, 165, 165, 90, 2, 0.979608
181, 6, bw, attraction, a-b-da, 5, 2, 3, 13, 161, 88, 90, 165, 165, 90, 1, 0.395262
181, 6, bw, attraction, a-b-db, 2, 2, 3, 14, 89, 163, 90, 165, 165, 90, 2, 0.977128
181, 6, bw, attraction, a-b-db, 2, 2, 3, 14, 89, 163, 90, 165, 165, 90, 3, 0.936795
181, 6, bw, attraction, a-b-da, 14, 2, 3, 15, 153, 83, 90, 165, 165, 90, 2, 0.937071
181, 6, bw, attraction, a-b-da, 14, 2, 3, 15, 153, 83, 90, 165, 165, 90, 1, 0.426736
181, 6, bw, filler, NA, 999, 999, 3, 16, 63, 156, 136, 67, 136, 96, 2, 0.655259
181, 6, bw, filler, NA, 999, 999, 3, 16, 63, 156, 136, 67, 136, 96, 3, 1.09984
181, 6, bw, filler, NA, 999, 999, 3, 17, 165, 86, 184, 95, 86, 103, 2, 1.54129
181, 6, bw, filler, NA, 999, 999, 3, 17, 165, 86, 184, 95, 86, 103, 3, 0.470159
181, 6, bw, attraction, a-b-da, 2, 3, 3, 18, 193, 119, 195, 120, 120, 195, 2, 0.537178
181, 6, bw, attraction, a-b-da, 2, 3, 3, 18, 193, 119, 195, 120, 120, 195, 3, 0.763186
181, 6, bw, attraction, a-b-db, 5, 2, 3, 19, 90, 165, 88, 161, 165, 90, 1, 0.874236
181, 6, bw, attraction, a-b-db, 5, 2, 3, 19, 90, 165, 88, 161, 165, 90, 2, 0.373768
181, 6, bw, attraction, a-b-da, 14, 1, 3, 20, 135, 60, 125, 56, 60, 135, 2, 0.692206
181, 6, bw, attraction, a-b-da, 14, 1, 3, 20, 135, 60, 125, 56, 60, 135, 3, 0.615365
181, 6, bw, attraction, a-b-da, 9, 1, 3, 21, 135, 60, 129, 57, 60, 135, 2, 0.788403
181, 6, bw, attraction, a-b-da, 9, 1, 3, 21, 135, 60, 129, 57, 60, 135, 1, 0.651468
181, 6, bw, filler, NA, 999, 999, 3, 22, 86, 187, 123, 187, 117, 136, 2, 1.81519
181, 6, bw, filler, NA, 999, 999, 3, 22, 86, 187, 123, 187, 117, 136, 1, 0.749413
181, 6, bw, attraction, a-b-db, 14, 2, 3, 23, 165, 90, 83, 153, 90, 165, 2, 0.709049
181, 6, bw, attraction, a-b-db, 14, 2, 3, 23, 165, 90, 83, 153, 90, 165, 1, 0.919388
181, 6, bw, attraction, a-b-db, 9, 2, 3, 24, 165, 90, 90, 165, 86, 157, 2, 1.00841
181, 6, bw, attraction, a-b-db, 9, 2, 3, 24, 165, 90, 90, 165, 86, 157, 1, 0.702708
181, 6, bw, catch, NA, 999, 999, 3, 25, 168, 147, 151, 104, 79, 116, 1, 1.3365
181, 6, bw, catch, NA, 999, 999, 3, 25, 168, 147, 151, 104, 79, 116, 3, 0.634092
181, 6, bw, catch, NA, 999, 999, 3, 26, 60, 135, 120, 195, 136, 119, 2, 0.830465
181, 6, bw, catch, NA, 999, 999, 3, 26, 60, 135, 120, 195, 136, 119, 1, 1.46828
181, 6, bw, filler, NA, 999, 999, 3, 27, 188, 123, 193, 105, 95, 128, 1, 1.34301
181, 6, bw, filler, NA, 999, 999, 3, 27, 188, 123, 193, 105, 95, 128, 3, 0.687906
181, 6, bw, attraction, a-b-db, 9, 1, 3, 28, 57, 129, 135, 60, 60, 135, 1, 1.05023
181, 6, bw, attraction, a-b-db, 9, 1, 3, 28, 57, 129, 135, 60, 60, 135, 2, 0.807325
181, 6, bw, catch, NA, 999, 999, 3, 29, 124, 71, 152, 163, 147, 108, 2, 1.40423
181, 6, bw, catch, NA, 999, 999, 3, 29, 124, 71, 152, 163, 147, 108, 1, 0.450453
181, 6, bw, filler, NA, 999, 999, 3, 30, 91, 136, 156, 81, 135, 86, 2, 0.750247
181, 6, bw, filler, NA, 999, 999, 3, 30, 91, 136, 156, 81, 135, 86, 1, 0.57534
181, 6, bw, attraction, a-b-db, 14, 1, 3, 31, 60, 135, 135, 60, 56, 125, 2, 0.685778
181, 6, bw, attraction, a-b-db, 14, 1, 3, 31, 60, 135, 135, 60, 56, 125, 1, 0.481482
181, 6, bw, attraction, a-b-db, 2, 1, 3, 32, 60, 135, 59, 134, 135, 60, 2, 0.60396
181, 6, bw, attraction, a-b-db, 2, 1, 3, 32, 60, 135, 59, 134, 135, 60, 1, 0.546414
181, 6, bw, attraction, a-b-db, 5, 3, 3, 33, 120, 195, 195, 120, 117, 190, 2, 0.762202
181, 6, bw, attraction, a-b-db, 5, 3, 3, 33, 120, 195, 195, 120, 117, 190, 1, 0.482735
181, 6, bw, attraction, a-b-da, 5, 1, 3, 34, 132, 58, 60, 135, 135, 60, 2, 0.693077
181, 6, bw, attraction, a-b-da, 5, 1, 3, 34, 132, 58, 60, 135, 135, 60, 1, 0.640083
181, 6, bw, filler, NA, 999, 999, 3, 35, 119, 77, 79, 104, 144, 151, 3, 0.931911
181, 6, bw, filler, NA, 999, 999, 3, 35, 119, 77, 79, 104, 144, 151, 2, 0.501545
181, 6, bw, attraction, a-b-da, 2, 2, 3, 36, 163, 89, 90, 165, 165, 90, 2, 1.39931
181, 6, bw, attraction, a-b-da, 2, 2, 3, 36, 163, 89, 90, 165, 165, 90, 3, 0.446236
181, 6, bw, attraction, a-b-da, 5, 3, 3, 37, 190, 117, 195, 120, 120, 195, 2, 0.514058
181, 6, bw, attraction, a-b-da, 5, 3, 3, 37, 190, 117, 195, 120, 120, 195, 1, 0.452474
181, 6, bw, attraction, a-b-db, 14, 1, 4, 1, 60, 135, 135, 60, 56, 125, 2, 0.7186
181, 6, bw, attraction, a-b-db, 14, 1, 4, 1, 60, 135, 135, 60, 56, 125, 3, 0.602057
181, 6, bw, attraction, a-b-db, 2, 1, 4, 2, 59, 134, 135, 60, 60, 135, 2, 0.791776
181, 6, bw, attraction, a-b-db, 2, 1, 4, 2, 59, 134, 135, 60, 60, 135, 1, 0.598837
181, 6, bw, attraction, a-b-da, 2, 1, 4, 3, 135, 60, 134, 59, 60, 135, 3, 0.804597
181, 6, bw, attraction, a-b-da, 2, 1, 4, 3, 135, 60, 134, 59, 60, 135, 2, 0.57106
181, 6, bw, attraction, a-b-db, 2, 3, 4, 4, 120, 195, 195, 120, 119, 193, 2, 0.530061
181, 6, bw, attraction, a-b-db, 2, 3, 4, 4, 120, 195, 195, 120, 119, 193, 1, 0.403869
181, 6, bw, catch, NA, 999, 999, 4, 5, 126, 129, 158, 157, 126, 69, 2, 0.425844
181, 6, bw, catch, NA, 999, 999, 4, 5, 126, 129, 158, 157, 126, 69, 3, 0.735553
181, 6, bw, filler, NA, 999, 999, 4, 6, 132, 138, 167, 154, 86, 61, 2, 0.432024
181, 6, bw, filler, NA, 999, 999, 4, 6, 132, 138, 167, 154, 86, 61, 3, 1.36586
181, 6, bw, filler, NA, 999, 999, 4, 7, 110, 142, 100, 79, 84, 133, 1, 1.19673
181, 6, bw, filler, NA, 999, 999, 4, 7, 110, 142, 100, 79, 84, 133, 2, 0.57959
181, 6, bw, filler, NA, 999, 999, 4, 8, 179, 145, 84, 94, 173, 73, 1, 1.16194
181, 6, bw, filler, NA, 999, 999, 4, 8, 179, 145, 84, 94, 173, 73, 2, 0.594227
181, 6, bw, filler, NA, 999, 999, 4, 9, 97, 72, 121, 106, 94, 190, 3, 11.432
181, 6, bw, filler, NA, 999, 999, 4, 9, 97, 72, 121, 106, 94, 190, 2, 1.08241
181, 6, bw, attraction, a-b-db, 9, 2, 4, 10, 86, 157, 165, 90, 90, 165, 1, 1.80474
181, 6, bw, attraction, a-b-db, 9, 2, 4, 10, 86, 157, 165, 90, 90, 165, 2, 2.10674
181, 6, bw, attraction, a-b-da, 2, 2, 4, 11, 165, 90, 90, 165, 163, 89, 1, 1.14735
181, 6, bw, attraction, a-b-da, 2, 2, 4, 11, 165, 90, 90, 165, 163, 89, 2, 0.924373
181, 6, bw, attraction, a-b-db, 14, 2, 4, 12, 83, 153, 165, 90, 90, 165, 1, 0.540649
181, 6, bw, attraction, a-b-db, 14, 2, 4, 12, 83, 153, 165, 90, 90, 165, 2, 0.717785
181, 6, bw, attraction, a-b-da, 5, 1, 4, 13, 60, 135, 132, 58, 135, 60, 1, 0.822909
181, 6, bw, attraction, a-b-da, 5, 1, 4, 13, 60, 135, 132, 58, 135, 60, 2, 0.932652
181, 6, bw, attraction, a-b-db, 5, 2, 4, 14, 88, 161, 90, 165, 165, 90, 1, 0.700798
181, 6, bw, attraction, a-b-db, 5, 2, 4, 14, 88, 161, 90, 165, 165, 90, 2, 0.936017
181, 6, bw, filler, NA, 999, 999, 4, 15, 166, 83, 69, 82, 163, 119, 1, 1.19228
181, 6, bw, filler, NA, 999, 999, 4, 15, 166, 83, 69, 82, 163, 119, 2, 0.399136
181, 6, bw, attraction, a-b-db, 2, 2, 4, 16, 89, 163, 90, 165, 165, 90, 1, 0.628977
181, 6, bw, attraction, a-b-db, 2, 2, 4, 16, 89, 163, 90, 165, 165, 90, 2, 0.450761
181, 6, bw, filler, NA, 999, 999, 4, 17, 109, 94, 85, 160, 151, 100, 2, 1.01451
181, 6, bw, filler, NA, 999, 999, 4, 17, 109, 94, 85, 160, 151, 100, 1, 0.453004
181, 6, bw, attraction, a-b-da, 14, 3, 4, 18, 181, 111, 195, 120, 120, 195, 3, 0.848645
181, 6, bw, attraction, a-b-da, 14, 3, 4, 18, 181, 111, 195, 120, 120, 195, 2, 0.877828
181, 6, bw, attraction, a-b-da, 5, 2, 4, 19, 90, 165, 165, 90, 161, 88, 2, 1.41603
181, 6, bw, attraction, a-b-da, 5, 2, 4, 19, 90, 165, 165, 90, 161, 88, 1, 0.910237
181, 6, bw, attraction, a-b-da, 2, 3, 4, 20, 193, 119, 195, 120, 120, 195, 2, 0.79125
181, 6, bw, attraction, a-b-da, 2, 3, 4, 20, 193, 119, 195, 120, 120, 195, 1, 0.203433
181, 6, bw, attraction, a-b-da, 5, 3, 4, 21, 190, 117, 120, 195, 195, 120, 1, 0.908283
181, 6, bw, attraction, a-b-da, 5, 3, 4, 21, 190, 117, 120, 195, 195, 120, 2, 1.01457
181, 6, bw, attraction, a-b-da, 9, 3, 4, 22, 120, 195, 186, 114, 195, 120, 2, 0.675616
181, 6, bw, attraction, a-b-da, 9, 3, 4, 22, 120, 195, 186, 114, 195, 120, 1, 0.863443
181, 6, bw, catch, NA, 999, 999, 4, 23, 163, 92, 186, 129, 104, 91, 2, 1.15428
181, 6, bw, catch, NA, 999, 999, 4, 23, 163, 92, 186, 129, 104, 91, 3, 1.94662
181, 6, bw, attraction, a-b-da, 14, 1, 4, 24, 135, 60, 125, 56, 60, 135, 2, 1.22599
181, 6, bw, attraction, a-b-da, 14, 1, 4, 24, 135, 60, 125, 56, 60, 135, 3, 0.543379
181, 6, bw, filler, NA, 999, 999, 4, 25, 79, 143, 142, 159, 86, 57, 2, 2.76735
181, 6, bw, filler, NA, 999, 999, 4, 25, 79, 143, 142, 159, 86, 57, 3, 0.47115
181, 6, bw, filler, NA, 999, 999, 4, 26, 65, 93, 115, 119, 168, 66, 2, 0.778234
181, 6, bw, filler, NA, 999, 999, 4, 26, 65, 93, 115, 119, 168, 66, 3, 0.473924
181, 6, bw, attraction, a-b-db, 14, 3, 4, 27, 195, 120, 120, 195, 111, 181, 2, 0.372315
181, 6, bw, attraction, a-b-db, 14, 3, 4, 27, 195, 120, 120, 195, 111, 181, 3, 0.44417
181, 6, bw, attraction, a-b-db, 9, 3, 4, 28, 195, 120, 114, 186, 120, 195, 2, 0.472048
181, 6, bw, attraction, a-b-db, 9, 3, 4, 28, 195, 120, 114, 186, 120, 195, 3, 0.323825
181, 6, bw, attraction, a-b-db, 5, 3, 4, 29, 117, 190, 195, 120, 120, 195, 2, 0.684363
181, 6, bw, attraction, a-b-db, 5, 3, 4, 29, 117, 190, 195, 120, 120, 195, 3, 0.360331
181, 6, bw, attraction, a-b-da, 9, 2, 4, 30, 90, 165, 157, 86, 165, 90, 2, 0.60723
181, 6, bw, attraction, a-b-da, 9, 2, 4, 30, 90, 165, 157, 86, 165, 90, 3, 0.39771
181, 6, bw, attraction, a-b-da, 9, 1, 4, 31, 60, 135, 135, 60, 129, 57, 2, 0.603482
181, 6, bw, attraction, a-b-da, 9, 1, 4, 31, 60, 135, 135, 60, 129, 57, 3, 0.586633
181, 6, bw, attraction, a-b-da, 14, 2, 4, 32, 90, 165, 165, 90, 153, 83, 2, 0.681085
181, 6, bw, attraction, a-b-da, 14, 2, 4, 32, 90, 165, 165, 90, 153, 83, 3, 1.30085
181, 6, bw, catch, NA, 999, 999, 4, 33, 101, 154, 180, 135, 99, 96, 2, 0.246374
181, 6, bw, catch, NA, 999, 999, 4, 33, 101, 154, 180, 135, 99, 96, 3, 0.659708
181, 6, bw, filler, NA, 999, 999, 4, 34, 109, 82, 158, 65, 90, 189, 2, 0.542667
181, 6, bw, filler, NA, 999, 999, 4, 34, 109, 82, 158, 65, 90, 189, 3, 0.479784
181, 6, bw, filler, NA, 999, 999, 4, 35, 168, 178, 148, 92, 94, 94, 2, 0.51427
181, 6, bw, filler, NA, 999, 999, 4, 35, 168, 178, 148, 92, 94, 94, 3, 0.772856
181, 6, bw, attraction, a-b-db, 5, 1, 4, 36, 60, 135, 58, 132, 135, 60, 2, 0.643914
181, 6, bw, attraction, a-b-db, 5, 1, 4, 36, 60, 135, 58, 132, 135, 60, 3, 0.520933
181, 6, bw, attraction, a-b-db, 9, 1, 4, 37, 57, 129, 60, 135, 135, 60, 2, 0.362015
181, 6, bw, attraction, a-b-db, 9, 1, 4, 37, 57, 129, 60, 135, 135, 60, 1, 0.594587
181, 6, bw, attraction, a-b-db, 14, 2, 5, 1, 90, 165, 165, 90, 83, 153, 2, 5.70292
181, 6, bw, attraction, a-b-db, 14, 2, 5, 1, 90, 165, 165, 90, 83, 153, 3, 0.57648
181, 6, bw, filler, NA, 999, 999, 5, 2, 141, 57, 182, 172, 62, 174, 2, 0.286798
181, 6, bw, filler, NA, 999, 999, 5, 2, 141, 57, 182, 172, 62, 174, 1, 1.12275
181, 6, bw, attraction, a-b-da, 14, 2, 5, 3, 153, 83, 90, 165, 165, 90, 2, 0.539673
181, 6, bw, attraction, a-b-da, 14, 2, 5, 3, 153, 83, 90, 165, 165, 90, 3, 0.676814
181, 6, bw, filler, NA, 999, 999, 5, 4, 108, 168, 159, 138, 182, 168, 2, 0.43125
181, 6, bw, filler, NA, 999, 999, 5, 4, 108, 168, 159, 138, 182, 168, 1, 0.621014
181, 6, bw, catch, NA, 999, 999, 5, 5, 105, 90, 129, 186, 105, 150, 2, 0.754132
181, 6, bw, catch, NA, 999, 999, 5, 5, 105, 90, 129, 186, 105, 150, 3, 0.410549
181, 6, bw, attraction, a-b-db, 5, 2, 5, 6, 165, 90, 88, 161, 90, 165, 2, 0.391711
181, 6, bw, attraction, a-b-db, 5, 2, 5, 6, 165, 90, 88, 161, 90, 165, 1, 0.606843
181, 6, bw, attraction, a-b-da, 5, 2, 5, 7, 90, 165, 165, 90, 161, 88, 2, 0.571916
181, 6, bw, attraction, a-b-da, 5, 2, 5, 7, 90, 165, 165, 90, 161, 88, 3, 0.667746
181, 6, bw, attraction, a-b-da, 9, 2, 5, 8, 165, 90, 157, 86, 90, 165, 2, 0.50277
181, 6, bw, attraction, a-b-da, 9, 2, 5, 8, 165, 90, 157, 86, 90, 165, 1, 0.753902
181, 6, bw, attraction, a-b-db, 9, 3, 5, 9, 114, 186, 195, 120, 120, 195, 2, 1.84176
181, 6, bw, attraction, a-b-db, 9, 3, 5, 9, 114, 186, 195, 120, 120, 195, 3, 0.990371
181, 6, bw, attraction, a-b-da, 2, 2, 5, 10, 165, 90, 163, 89, 90, 165, 2, 0.515962
181, 6, bw, attraction, a-b-da, 2, 2, 5, 10, 165, 90, 163, 89, 90, 165, 3, 0.433598
181, 6, bw, filler, NA, 999, 999, 5, 11, 90, 149, 63, 152, 181, 102, 2, 1.05902
181, 6, bw, filler, NA, 999, 999, 5, 11, 90, 149, 63, 152, 181, 102, 1, 0.687355
181, 6, bw, attraction, a-b-db, 2, 1, 5, 12, 59, 134, 60, 135, 135, 60, 2, 0.841691
181, 6, bw, attraction, a-b-db, 2, 1, 5, 12, 59, 134, 60, 135, 135, 60, 3, 0.662748
181, 6, bw, attraction, a-b-da, 5, 1, 5, 13, 132, 58, 135, 60, 60, 135, 2, 0.633787
181, 6, bw, attraction, a-b-da, 5, 1, 5, 13, 132, 58, 135, 60, 60, 135, 3, 0.551679
181, 6, bw, filler, NA, 999, 999, 5, 14, 168, 171, 128, 128, 82, 118, 2, 0.783412
181, 6, bw, filler, NA, 999, 999, 5, 14, 168, 171, 128, 128, 82, 118, 3, 1.3432
181, 6, bw, filler, NA, 999, 999, 5, 15, 137, 107, 160, 87, 96, 100, 2, 0.486515
181, 6, bw, filler, NA, 999, 999, 5, 15, 137, 107, 160, 87, 96, 100, 3, 0.68242
181, 6, bw, attraction, a-b-da, 9, 3, 5, 16, 120, 195, 195, 120, 186, 114, 2, 0.452751
181, 6, bw, attraction, a-b-da, 9, 3, 5, 16, 120, 195, 195, 120, 186, 114, 3, 0.39401
181, 6, bw, attraction, a-b-db, 2, 2, 5, 17, 90, 165, 89, 163, 165, 90, 2, 0.855736
181, 6, bw, attraction, a-b-db, 2, 2, 5, 17, 90, 165, 89, 163, 165, 90, 3, 0.852174
181, 6, bw, attraction, a-b-db, 5, 1, 5, 18, 58, 132, 60, 135, 135, 60, 2, 0.479892
181, 6, bw, attraction, a-b-db, 5, 1, 5, 18, 58, 132, 60, 135, 135, 60, 3, 1.12468
181, 6, bw, attraction, a-b-da, 5, 3, 5, 19, 190, 117, 195, 120, 120, 195, 2, 0.483889
181, 6, bw, attraction, a-b-da, 5, 3, 5, 19, 190, 117, 195, 120, 120, 195, 3, 0.82376
181, 6, bw, catch, NA, 999, 999, 5, 20, 152, 163, 119, 76, 110, 145, 1, 1.11613
181, 6, bw, catch, NA, 999, 999, 5, 20, 152, 163, 119, 76, 110, 145, 2, 0.99039
181, 6, bw, filler, NA, 999, 999, 5, 21, 153, 103, 135, 99, 126, 139, 1, 0.899877
181, 6, bw, filler, NA, 999, 999, 5, 21, 153, 103, 135, 99, 126, 139, 2, 0.95101
181, 6, bw, catch, NA, 999, 999, 5, 22, 68, 127, 137, 178, 138, 117, 2, 0.918684
181, 6, bw, catch, NA, 999, 999, 5, 22, 68, 127, 137, 178, 138, 117, 1, 0.737043
181, 6, bw, attraction, a-b-db, 9, 1, 5, 23, 135, 60, 57, 129, 60, 135, 2, 1.69732
181, 6, bw, attraction, a-b-db, 9, 1, 5, 23, 135, 60, 57, 129, 60, 135, 3, 1.0682
181, 6, bw, attraction, a-b-da, 2, 3, 5, 24, 120, 195, 195, 120, 193, 119, 1, 1.10303
181, 6, bw, attraction, a-b-da, 2, 3, 5, 24, 120, 195, 195, 120, 193, 119, 2, 0.697479
181, 6, bw, attraction, a-b-da, 9, 1, 5, 25, 135, 60, 129, 57, 60, 135, 1, 0.731095
181, 6, bw, attraction, a-b-da, 9, 1, 5, 25, 135, 60, 129, 57, 60, 135, 2, 0.436963
181, 6, bw, attraction, a-b-db, 14, 1, 5, 26, 135, 60, 56, 125, 60, 135, 2, 1.80941
181, 6, bw, attraction, a-b-db, 14, 1, 5, 26, 135, 60, 56, 125, 60, 135, 1, 0.519529
181, 6, bw, filler, NA, 999, 999, 5, 27, 94, 109, 194, 130, 112, 148, 2, 1.42461
181, 6, bw, filler, NA, 999, 999, 5, 27, 94, 109, 194, 130, 112, 148, 1, 0.702153
181, 6, bw, filler, NA, 999, 999, 5, 28, 90, 169, 96, 138, 69, 190, 1, 1.2638
181, 6, bw, filler, NA, 999, 999, 5, 28, 90, 169, 96, 138, 69, 190, 2, 0.636063
181, 6, bw, attraction, a-b-da, 2, 1, 5, 29, 60, 135, 134, 59, 135, 60, 1, 0.864441
181, 6, bw, attraction, a-b-da, 2, 1, 5, 29, 60, 135, 134, 59, 135, 60, 2, 0.876856
181, 6, bw, attraction, a-b-da, 14, 3, 5, 30, 120, 195, 181, 111, 195, 120, 1, 1.04717
181, 6, bw, attraction, a-b-da, 14, 3, 5, 30, 120, 195, 181, 111, 195, 120, 2, 0.548176
181, 6, bw, attraction, a-b-db, 9, 2, 5, 31, 86, 157, 165, 90, 90, 165, 1, 1.1079
181, 6, bw, attraction, a-b-db, 9, 2, 5, 31, 86, 157, 165, 90, 90, 165, 2, 0.678187
181, 6, bw, attraction, a-b-db, 5, 3, 5, 32, 195, 120, 117, 190, 120, 195, 1, 0.704506
181, 6, bw, attraction, a-b-db, 5, 3, 5, 32, 195, 120, 117, 190, 120, 195, 2, 0.651014
181, 6, bw, attraction, a-b-da, 14, 1, 5, 33, 125, 56, 135, 60, 60, 135, 1, 0.398772
181, 6, bw, attraction, a-b-da, 14, 1, 5, 33, 125, 56, 135, 60, 60, 135, 2, 0.693931
181, 6, bw, attraction, a-b-db, 14, 3, 5, 34, 120, 195, 111, 181, 195, 120, 1, 0.735641
181, 6, bw, attraction, a-b-db, 14, 3, 5, 34, 120, 195, 111, 181, 195, 120, 2, 0.425374
181, 6, bw, attraction, a-b-db, 2, 3, 5, 35, 120, 195, 195, 120, 119, 193, 1, 0.581919
181, 6, bw, attraction, a-b-db, 2, 3, 5, 35, 120, 195, 195, 120, 119, 193, 2, 0.885746
181, 6, bw, filler, NA, 999, 999, 5, 36, 195, 163, 135, 118, 64, 114, 1, 0.720024
181, 6, bw, filler, NA, 999, 999, 5, 36, 195, 163, 135, 118, 64, 114, 2, 0.530495
181, 6, bw, filler, NA, 999, 999, 5, 37, 73, 107, 60, 81, 176, 110, 1, 0.72292
181, 6, bw, filler, NA, 999, 999, 5, 37, 73, 107, 60, 81, 176, 110, 2, 0.796618
181, 6, bw, filler, NA, 999, 999, 6, 1, 78, 106, 124, 161, 114, 181, 2, 0.690274
181, 6, bw, filler, NA, 999, 999, 6, 1, 78, 106, 124, 161, 114, 181, 1, 0.445573
181, 6, bw, attraction, a-b-db, 9, 2, 6, 2, 90, 165, 165, 90, 86, 157, 2, 1.45713
181, 6, bw, attraction, a-b-db, 9, 2, 6, 2, 90, 165, 165, 90, 86, 157, 1, 1.14942
181, 6, bw, filler, NA, 999, 999, 6, 3, 86, 95, 151, 165, 108, 195, 2, 1.91692
181, 6, bw, filler, NA, 999, 999, 6, 3, 86, 95, 151, 165, 108, 195, 1, 1.09502
181, 6, bw, catch, NA, 999, 999, 6, 4, 102, 93, 110, 145, 126, 189, 2, 0.48064
181, 6, bw, catch, NA, 999, 999, 6, 4, 102, 93, 110, 145, 126, 189, 3, 0.508438
181, 6, bw, attraction, a-b-da, 9, 2, 6, 5, 90, 165, 165, 90, 157, 86, 2, 0.541522
181, 6, bw, attraction, a-b-da, 9, 2, 6, 5, 90, 165, 165, 90, 157, 86, 1, 0.65473
181, 6, bw, attraction, a-b-da, 2, 2, 6, 6, 90, 165, 165, 90, 163, 89, 2, 0.594377
181, 6, bw, attraction, a-b-da, 2, 2, 6, 6, 90, 165, 165, 90, 163, 89, 3, 0.465517
181, 6, bw, filler, NA, 999, 999, 6, 7, 153, 70, 172, 102, 119, 103, 2, 0.340771
181, 6, bw, filler, NA, 999, 999, 6, 7, 153, 70, 172, 102, 119, 103, 1, 0.413814
181, 6, bw, filler, NA, 999, 999, 6, 8, 59, 90, 117, 109, 193, 59, 2, 1.80296
181, 6, bw, filler, NA, 999, 999, 6, 8, 59, 90, 117, 109, 193, 59, 3, 0.441764
181, 6, bw, catch, NA, 999, 999, 6, 9, 155, 160, 125, 70, 144, 111, 2, 0.453532
181, 6, bw, catch, NA, 999, 999, 6, 9, 155, 160, 125, 70, 144, 111, 1, 0.426675
181, 6, bw, filler, NA, 999, 999, 6, 10, 62, 88, 108, 75, 95, 73, 2, 0.599147
181, 6, bw, filler, NA, 999, 999, 6, 10, 62, 88, 108, 75, 95, 73, 3, 0.326285
181, 6, bw, attraction, a-b-da, 14, 2, 6, 11, 153, 83, 90, 165, 165, 90, 2, 0.502765
181, 6, bw, attraction, a-b-da, 14, 2, 6, 11, 153, 83, 90, 165, 165, 90, 1, 0.361909
181, 6, bw, attraction, a-b-da, 5, 3, 6, 12, 195, 120, 120, 195, 190, 117, 2, 0.513096
181, 6, bw, attraction, a-b-da, 5, 3, 6, 12, 195, 120, 120, 195, 190, 117, 3, 0.715604
181, 6, bw, attraction, a-b-db, 9, 1, 6, 13, 57, 129, 135, 60, 60, 135, 2, 1.54864
181, 6, bw, attraction, a-b-db, 9, 1, 6, 13, 57, 129, 135, 60, 60, 135, 1, 0.621409
181, 6, bw, attraction, a-b-da, 14, 1, 6, 14, 125, 56, 60, 135, 135, 60, 2, 1.1465
181, 6, bw, attraction, a-b-da, 14, 1, 6, 14, 125, 56, 60, 135, 135, 60, 3, 0.587562
181, 6, bw, attraction, a-b-db, 9, 3, 6, 15, 120, 195, 195, 120, 114, 186, 2, 0.313902
181, 6, bw, attraction, a-b-db, 9, 3, 6, 15, 120, 195, 195, 120, 114, 186, 1, 0.676411
181, 6, bw, attraction, a-b-db, 2, 2, 6, 16, 89, 163, 90, 165, 165, 90, 2, 0.798866
181, 6, bw, attraction, a-b-db, 2, 2, 6, 16, 89, 163, 90, 165, 165, 90, 3, 0.629925
181, 6, bw, filler, NA, 999, 999, 6, 17, 115, 116, 70, 162, 194, 114, 2, 0.402303
181, 6, bw, filler, NA, 999, 999, 6, 17, 115, 116, 70, 162, 194, 114, 1, 0.449504
181, 6, bw, attraction, a-b-db, 5, 3, 6, 18, 195, 120, 117, 190, 120, 195, 2, 0.429271
181, 6, bw, attraction, a-b-db, 5, 3, 6, 18, 195, 120, 117, 190, 120, 195, 3, 0.523102
181, 6, bw, filler, NA, 999, 999, 6, 19, 75, 75, 103, 194, 75, 171, 2, 0.299599
181, 6, bw, filler, NA, 999, 999, 6, 19, 75, 75, 103, 194, 75, 171, 1, 0.622828
181, 6, bw, attraction, a-b-da, 9, 3, 6, 20, 120, 195, 195, 120, 186, 114, 2, 1.28328
181, 6, bw, attraction, a-b-da, 9, 3, 6, 20, 120, 195, 195, 120, 186, 114, 3, 0.470881
181, 6, bw, filler, NA, 999, 999, 6, 21, 117, 68, 85, 185, 158, 92, 2, 0.332158
181, 6, bw, filler, NA, 999, 999, 6, 21, 117, 68, 85, 185, 158, 92, 1, 0.803763
181, 6, bw, catch, NA, 999, 999, 6, 22, 134, 181, 115, 140, 60, 135, 2, 0.265506
181, 6, bw, catch, NA, 999, 999, 6, 22, 134, 181, 115, 140, 60, 135, 3, 0.774093
181, 6, bw, attraction, a-b-da, 2, 1, 6, 23, 60, 135, 135, 60, 134, 59, 2, 0.676441
181, 6, bw, attraction, a-b-da, 2, 1, 6, 23, 60, 135, 135, 60, 134, 59, 1, 0.52011
181, 6, bw, attraction, a-b-db, 2, 3, 6, 24, 120, 195, 195, 120, 119, 193, 2, 0.641203
181, 6, bw, attraction, a-b-db, 2, 3, 6, 24, 120, 195, 195, 120, 119, 193, 3, 0.462364
181, 6, bw, attraction, a-b-db, 2, 1, 6, 25, 135, 60, 60, 135, 59, 134, 2, 0.761494
181, 6, bw, attraction, a-b-db, 2, 1, 6, 25, 135, 60, 60, 135, 59, 134, 1, 0.529888
181, 6, bw, attraction, a-b-da, 5, 2, 6, 26, 90, 165, 165, 90, 161, 88, 2, 0.5064
181, 6, bw, attraction, a-b-da, 5, 2, 6, 26, 90, 165, 165, 90, 161, 88, 3, 0.4609
181, 6, bw, attraction, a-b-da, 9, 1, 6, 27, 135, 60, 60, 135, 129, 57, 2, 1.27998
181, 6, bw, attraction, a-b-da, 9, 1, 6, 27, 135, 60, 60, 135, 129, 57, 1, 0.635576
181, 6, bw, attraction, a-b-da, 5, 1, 6, 28, 132, 58, 60, 135, 135, 60, 3, 1.3681
181, 6, bw, attraction, a-b-da, 5, 1, 6, 28, 132, 58, 60, 135, 135, 60, 2, 0.816238
181, 6, bw, filler, NA, 999, 999, 6, 29, 73, 133, 172, 143, 128, 128, 3, 0.397225
181, 6, bw, filler, NA, 999, 999, 6, 29, 73, 133, 172, 143, 128, 128, 2, 0.484346
181, 6, bw, attraction, a-b-db, 5, 2, 6, 30, 165, 90, 90, 165, 88, 161, 3, 0.806883
181, 6, bw, attraction, a-b-db, 5, 2, 6, 30, 165, 90, 90, 165, 88, 161, 2, 0.541227
181, 6, bw, attraction, a-b-da, 14, 3, 6, 31, 195, 120, 120, 195, 181, 111, 3, 0.765093
181, 6, bw, attraction, a-b-da, 14, 3, 6, 31, 195, 120, 120, 195, 181, 111, 2, 0.549446
181, 6, bw, attraction, a-b-db, 5, 1, 6, 32, 58, 132, 135, 60, 60, 135, 3, 0.669155
181, 6, bw, attraction, a-b-db, 5, 1, 6, 32, 58, 132, 135, 60, 60, 135, 2, 0.978814
181, 6, bw, attraction, a-b-db, 14, 2, 6, 33, 83, 153, 165, 90, 90, 165, 3, 0.623845
181, 6, bw, attraction, a-b-db, 14, 2, 6, 33, 83, 153, 165, 90, 90, 165, 2, 0.493812
181, 6, bw, attraction, a-b-da, 2, 3, 6, 34, 193, 119, 195, 120, 120, 195, 3, 0.447517
181, 6, bw, attraction, a-b-da, 2, 3, 6, 34, 193, 119, 195, 120, 120, 195, 2, 0.524729
181, 6, bw, attraction, a-b-db, 14, 3, 6, 35, 195, 120, 120, 195, 111, 181, 3, 0.477067
181, 6, bw, attraction, a-b-db, 14, 3, 6, 35, 195, 120, 120, 195, 111, 181, 2, 0.584841
181, 6, bw, attraction, a-b-db, 14, 1, 6, 36, 135, 60, 56, 125, 60, 135, 3, 0.527328
181, 6, bw, attraction, a-b-db, 14, 1, 6, 36, 135, 60, 56, 125, 60, 135, 2, 0.545075
181, 6, bw, filler, NA, 999, 999, 6, 37, 89, 92, 135, 173, 186, 109, 3, 0.449069
181, 6, bw, filler, NA, 999, 999, 6, 37, 89, 92, 135, 173, 186, 109, 2, 0.58207
181, 6, bw, attraction, a-b-db, 9, 1, 7, 1, 57, 129, 60, 135, 135, 60, 3, 0.892463
181, 6, bw, attraction, a-b-db, 9, 1, 7, 1, 57, 129, 60, 135, 135, 60, 2, 0.775567
181, 6, bw, attraction, a-b-db, 14, 3, 7, 2, 111, 181, 195, 120, 120, 195, 3, 0.645975
181, 6, bw, attraction, a-b-db, 14, 3, 7, 2, 111, 181, 195, 120, 120, 195, 2, 0.427126
181, 6, bw, attraction, a-b-db, 9, 3, 7, 3, 120, 195, 114, 186, 195, 120, 3, 0.495443
181, 6, bw, attraction, a-b-db, 9, 3, 7, 3, 120, 195, 114, 186, 195, 120, 2, 0.810557
181, 6, bw, attraction, a-b-db, 9, 2, 7, 4, 86, 157, 165, 90, 90, 165, 3, 0.943591
181, 6, bw, attraction, a-b-db, 9, 2, 7, 4, 86, 157, 165, 90, 90, 165, 2, 0.472626
181, 6, bw, attraction, a-b-db, 5, 3, 7, 5, 195, 120, 120, 195, 117, 190, 3, 0.347184
181, 6, bw, attraction, a-b-db, 5, 3, 7, 5, 195, 120, 120, 195, 117, 190, 2, 0.420225
181, 6, bw, filler, NA, 999, 999, 7, 6, 81, 194, 158, 179, 181, 155, 3, 0.409401
181, 6, bw, filler, NA, 999, 999, 7, 6, 81, 194, 158, 179, 181, 155, 2, 0.496086
181, 6, bw, catch, NA, 999, 999, 7, 7, 147, 168, 129, 66, 143, 112, 3, 0.953879
181, 6, bw, catch, NA, 999, 999, 7, 7, 147, 168, 129, 66, 143, 112, 2, 2.57078
181, 6, bw, attraction, a-b-db, 14, 2, 7, 8, 90, 165, 83, 153, 165, 90, 3, 1.85726
181, 6, bw, attraction, a-b-db, 14, 2, 7, 8, 90, 165, 83, 153, 165, 90, 2, 1.96544
181, 6, bw, attraction, a-b-db, 14, 1, 7, 9, 135, 60, 60, 135, 56, 125, 1, 1.0921
181, 6, bw, attraction, a-b-db, 14, 1, 7, 9, 135, 60, 60, 135, 56, 125, 2, 0.671085
181, 6, bw, attraction, a-b-db, 2, 3, 7, 10, 195, 120, 120, 195, 119, 193, 2, 0.610038
181, 6, bw, attraction, a-b-db, 2, 3, 7, 10, 195, 120, 120, 195, 119, 193, 3, 0.688396
181, 6, bw, filler, NA, 999, 999, 7, 11, 128, 133, 96, 99, 114, 140, 1, 0.650795
181, 6, bw, filler, NA, 999, 999, 7, 11, 128, 133, 96, 99, 114, 140, 2, 0.807938
181, 6, bw, attraction, a-b-db, 2, 2, 7, 12, 90, 165, 165, 90, 89, 163, 3, 0.892949
181, 6, bw, attraction, a-b-db, 2, 2, 7, 12, 90, 165, 165, 90, 89, 163, 2, 1.06397
181, 6, bw, attraction, a-b-da, 5, 1, 7, 13, 135, 60, 60, 135, 132, 58, 3, 0.554852
181, 6, bw, attraction, a-b-da, 5, 1, 7, 13, 135, 60, 60, 135, 132, 58, 2, 0.659334
181, 6, bw, attraction, a-b-da, 9, 2, 7, 14, 90, 165, 165, 90, 157, 86, 3, 0.398405
181, 6, bw, attraction, a-b-da, 9, 2, 7, 14, 90, 165, 165, 90, 157, 86, 2, 0.64159
181, 6, bw, filler, NA, 999, 999, 7, 15, 158, 195, 106, 195, 114, 79, 3, 0.625329
181, 6, bw, filler, NA, 999, 999, 7, 15, 158, 195, 106, 195, 114, 79, 2, 0.583124
181, 6, bw, catch, NA, 999, 999, 7, 16, 188, 127, 64, 131, 145, 110, 3, 0.461591
181, 6, bw, catch, NA, 999, 999, 7, 16, 188, 127, 64, 131, 145, 110, 2, 0.730071
181, 6, bw, attraction, a-b-da, 9, 1, 7, 17, 60, 135, 135, 60, 129, 57, 3, 0.490465
181, 6, bw, attraction, a-b-da, 9, 1, 7, 17, 60, 135, 135, 60, 129, 57, 2, 1.50966
181, 6, bw, attraction, a-b-da, 2, 2, 7, 18, 165, 90, 163, 89, 90, 165, 3, 0.478383
181, 6, bw, attraction, a-b-da, 2, 2, 7, 18, 165, 90, 163, 89, 90, 165, 2, 0.706254
181, 6, bw, attraction, a-b-db, 2, 1, 7, 19, 60, 135, 135, 60, 59, 134, 3, 0.403383
181, 6, bw, attraction, a-b-db, 2, 1, 7, 19, 60, 135, 135, 60, 59, 134, 2, 0.601801
181, 6, bw, catch, NA, 999, 999, 7, 20, 92, 163, 158, 157, 74, 121, 2, 1.19957
181, 6, bw, catch, NA, 999, 999, 7, 20, 92, 163, 158, 157, 74, 121, 3, 0.69444
181, 6, bw, attraction, a-b-da, 2, 3, 7, 21, 195, 120, 120, 195, 193, 119, 2, 0.424169
181, 6, bw, attraction, a-b-da, 2, 3, 7, 21, 195, 120, 120, 195, 193, 119, 3, 0.822057
181, 6, bw, filler, NA, 999, 999, 7, 22, 94, 166, 98, 173, 157, 106, 2, 0.707099
181, 6, bw, filler, NA, 999, 999, 7, 22, 94, 166, 98, 173, 157, 106, 1, 0.677587
181, 6, bw, filler, NA, 999, 999, 7, 23, 116, 117, 114, 181, 68, 159, 1, 0.647866
181, 6, bw, filler, NA, 999, 999, 7, 23, 116, 117, 114, 181, 68, 159, 3, 1.56499
181, 6, bw, attraction, a-b-db, 5, 1, 7, 24, 58, 132, 60, 135, 135, 60, 2, 0.611855
181, 6, bw, attraction, a-b-db, 5, 1, 7, 24, 58, 132, 60, 135, 135, 60, 1, 1.12217
181, 6, bw, filler, NA, 999, 999, 7, 25, 120, 160, 179, 57, 163, 174, 3, 1.90709
181, 6, bw, filler, NA, 999, 999, 7, 25, 120, 160, 179, 57, 163, 174, 1, 1.1572
181, 6, bw, attraction, a-b-da, 5, 3, 7, 26, 195, 120, 190, 117, 120, 195, 3, 0.516031
181, 6, bw, attraction, a-b-da, 5, 3, 7, 26, 195, 120, 190, 117, 120, 195, 1, 0.710725
181, 6, bw, attraction, a-b-da, 5, 2, 7, 27, 165, 90, 90, 165, 161, 88, 1, 0.727589
181, 6, bw, attraction, a-b-da, 5, 2, 7, 27, 165, 90, 90, 165, 161, 88, 3, 0.953405
181, 6, bw, filler, NA, 999, 999, 7, 28, 136, 180, 186, 144, 184, 188, 3, 0.497012
181, 6, bw, filler, NA, 999, 999, 7, 28, 136, 180, 186, 144, 184, 188, 1, 0.724171
181, 6, bw, filler, NA, 999, 999, 7, 29, 163, 102, 139, 57, 94, 62, 1, 1.26854
181, 6, bw, filler, NA, 999, 999, 7, 29, 163, 102, 139, 57, 94, 62, 3, 0.720847
181, 6, bw, attraction, a-b-da, 9, 3, 7, 30, 120, 195, 186, 114, 195, 120, 3, 1.18582
181, 6, bw, attraction, a-b-da, 9, 3, 7, 30, 120, 195, 186, 114, 195, 120, 1, 0.945509
181, 6, bw, attraction, a-b-da, 2, 1, 7, 31, 134, 59, 60, 135, 135, 60, 1, 1.50507
181, 6, bw, attraction, a-b-da, 2, 1, 7, 31, 134, 59, 60, 135, 135, 60, 3, 1.61925
181, 6, bw, attraction, a-b-da, 14, 3, 7, 32, 120, 195, 181, 111, 195, 120, 1, 0.784436
181, 6, bw, attraction, a-b-da, 14, 3, 7, 32, 120, 195, 181, 111, 195, 120, 3, 1.19109
181, 6, bw, filler, NA, 999, 999, 7, 33, 85, 192, 57, 193, 93, 164, 1, 1.26116
181, 6, bw, filler, NA, 999, 999, 7, 33, 85, 192, 57, 193, 93, 164, 3, 2.61708
181, 6, bw, filler, NA, 999, 999, 7, 34, 115, 94, 193, 169, 189, 157, 3, 1.83737
181, 6, bw, filler, NA, 999, 999, 7, 34, 115, 94, 193, 169, 189, 157, 1, 0.954049
181, 6, bw, attraction, a-b-da, 14, 2, 7, 35, 90, 165, 165, 90, 153, 83, 3, 0.513668
181, 6, bw, attraction, a-b-da, 14, 2, 7, 35, 90, 165, 165, 90, 153, 83, 1, 0.628218
181, 6, bw, attraction, a-b-da, 14, 1, 7, 36, 60, 135, 135, 60, 125, 56, 3, 0.600559
181, 6, bw, attraction, a-b-da, 14, 1, 7, 36, 60, 135, 135, 60, 125, 56, 1, 0.831823
181, 6, bw, attraction, a-b-db, 5, 2, 7, 37, 88, 161, 90, 165, 165, 90, 3, 0.444019
181, 6, bw, attraction, a-b-db, 5, 2, 7, 37, 88, 161, 90, 165, 165, 90, 1, 0.609328
181, 6, bw, attraction, a-b-db, 14, 3, 8, 1, 120, 195, 195, 120, 111, 181, 3, 0.534355
181, 6, bw, attraction, a-b-db, 14, 3, 8, 1, 120, 195, 195, 120, 111, 181, 1, 0.896114
181, 6, bw, catch, NA, 999, 999, 8, 2, 85, 110, 185, 130, 121, 134, 3, 0.801825
181, 6, bw, catch, NA, 999, 999, 8, 2, 85, 110, 185, 130, 121, 134, 1, 0.904955
181, 6, bw, catch, NA, 999, 999, 8, 3, 107, 88, 194, 121, 115, 140, 2, 1.32253
181, 6, bw, catch, NA, 999, 999, 8, 3, 107, 88, 194, 121, 115, 140, 1, 0.700216
181, 6, bw, filler, NA, 999, 999, 8, 4, 102, 63, 79, 168, 153, 66, 3, 0.997846
181, 6, bw, filler, NA, 999, 999, 8, 4, 102, 63, 79, 168, 153, 66, 2, 0.660793
181, 6, bw, catch, NA, 999, 999, 8, 5, 93, 162, 61, 134, 121, 194, 3, 8.16791
181, 6, bw, catch, NA, 999, 999, 8, 5, 93, 162, 61, 134, 121, 194, 2, 0.694003
181, 6, bw, attraction, a-b-da, 9, 3, 8, 6, 195, 120, 120, 195, 186, 114, 3, 0.679649
181, 6, bw, attraction, a-b-da, 9, 3, 8, 6, 195, 120, 120, 195, 186, 114, 2, 0.531428
181, 6, bw, attraction, a-b-da, 14, 2, 8, 7, 153, 83, 165, 90, 90, 165, 3, 0.795939
181, 6, bw, attraction, a-b-da, 14, 2, 8, 7, 153, 83, 165, 90, 90, 165, 2, 0.403333
181, 6, bw, filler, NA, 999, 999, 8, 8, 71, 110, 182, 109, 66, 187, 2, 0.760826
181, 6, bw, filler, NA, 999, 999, 8, 8, 71, 110, 182, 109, 66, 187, 3, 0.409317
181, 6, bw, filler, NA, 999, 999, 8, 9, 188, 157, 173, 179, 190, 65, 2, 0.438264
181, 6, bw, filler, NA, 999, 999, 8, 9, 188, 157, 173, 179, 190, 65, 3, 0.547631
181, 6, bw, attraction, a-b-db, 9, 2, 8, 10, 165, 90, 90, 165, 86, 157, 2, 0.267275
181, 6, bw, attraction, a-b-db, 9, 2, 8, 10, 165, 90, 90, 165, 86, 157, 1, 0.495738
181, 6, bw, attraction, a-b-da, 14, 1, 8, 11, 135, 60, 60, 135, 125, 56, 2, 0.801694
181, 6, bw, attraction, a-b-da, 14, 1, 8, 11, 135, 60, 60, 135, 125, 56, 3, 0.392619
181, 6, bw, attraction, a-b-db, 2, 2, 8, 12, 90, 165, 165, 90, 89, 163, 2, 0.49438
181, 6, bw, attraction, a-b-db, 2, 2, 8, 12, 90, 165, 165, 90, 89, 163, 1, 0.44963
181, 6, bw, filler, NA, 999, 999, 8, 13, 177, 174, 194, 129, 56, 167, 2, 0.309399
181, 6, bw, filler, NA, 999, 999, 8, 13, 177, 174, 194, 129, 56, 167, 3, 0.575935
181, 6, bw, filler, NA, 999, 999, 8, 14, 58, 164, 90, 179, 107, 109, 2, 0.422375
181, 6, bw, filler, NA, 999, 999, 8, 14, 58, 164, 90, 179, 107, 109, 1, 0.580213
181, 6, bw, attraction, a-b-da, 5, 2, 8, 15, 90, 165, 161, 88, 165, 90, 2, 0.498775
181, 6, bw, attraction, a-b-da, 5, 2, 8, 15, 90, 165, 161, 88, 165, 90, 3, 0.573827
181, 6, bw, attraction, a-b-db, 14, 1, 8, 16, 60, 135, 135, 60, 56, 125, 2, 0.364223
181, 6, bw, attraction, a-b-db, 14, 1, 8, 16, 60, 135, 135, 60, 56, 125, 1, 0.420745
181, 6, bw, attraction, a-b-da, 9, 2, 8, 17, 165, 90, 157, 86, 90, 165, 2, 0.393933
181, 6, bw, attraction, a-b-da, 9, 2, 8, 17, 165, 90, 157, 86, 90, 165, 3, 0.665049
181, 6, bw, attraction, a-b-da, 2, 3, 8, 18, 195, 120, 193, 119, 120, 195, 1, 0.852271
181, 6, bw, attraction, a-b-da, 2, 3, 8, 18, 195, 120, 193, 119, 120, 195, 2, 0.585183
181, 6, bw, attraction, a-b-db, 2, 1, 8, 19, 135, 60, 59, 134, 60, 135, 2, 0.751628
181, 6, bw, attraction, a-b-db, 2, 1, 8, 19, 135, 60, 59, 134, 60, 135, 3, 0.568724
181, 6, bw, attraction, a-b-db, 9, 3, 8, 20, 120, 195, 114, 186, 195, 120, 2, 0.351759
181, 6, bw, attraction, a-b-db, 9, 3, 8, 20, 120, 195, 114, 186, 195, 120, 1, 0.56105
181, 6, bw, filler, NA, 999, 999, 8, 21, 72, 168, 87, 125, 78, 124, 2, 0.46405
181, 6, bw, filler, NA, 999, 999, 8, 21, 72, 168, 87, 125, 78, 124, 3, 0.476521
181, 6, bw, attraction, a-b-da, 2, 2, 8, 22, 90, 165, 165, 90, 163, 89, 2, 0.67099
181, 6, bw, attraction, a-b-da, 2, 2, 8, 22, 90, 165, 165, 90, 163, 89, 1, 0.634795
181, 6, bw, attraction, a-b-db, 14, 2, 8, 23, 165, 90, 90, 165, 83, 153, 2, 0.727187
181, 6, bw, attraction, a-b-db, 14, 2, 8, 23, 165, 90, 90, 165, 83, 153, 3, 0.560991
181, 6, bw, filler, NA, 999, 999, 8, 24, 105, 102, 104, 121, 97, 88, 1, 0.488017
181, 6, bw, filler, NA, 999, 999, 8, 24, 105, 102, 104, 121, 97, 88, 2, 0.395238
181, 6, bw, attraction, a-b-da, 5, 1, 8, 25, 60, 135, 135, 60, 132, 58, 1, 0.657093
181, 6, bw, attraction, a-b-da, 5, 1, 8, 25, 60, 135, 135, 60, 132, 58, 2, 0.533396
181, 6, bw, filler, NA, 999, 999, 8, 26, 114, 67, 78, 79, 63, 65, 1, 0.533949
181, 6, bw, filler, NA, 999, 999, 8, 26, 114, 67, 78, 79, 63, 65, 2, 0.535855
181, 6, bw, attraction, a-b-da, 14, 3, 8, 27, 195, 120, 181, 111, 120, 195, 2, 0.792084
181, 6, bw, attraction, a-b-da, 14, 3, 8, 27, 195, 120, 181, 111, 120, 195, 1, 0.943254
181, 6, bw, attraction, a-b-db, 5, 3, 8, 28, 117, 190, 195, 120, 120, 195, 2, 0.590803
181, 6, bw, attraction, a-b-db, 5, 3, 8, 28, 117, 190, 195, 120, 120, 195, 3, 0.47798
181, 6, bw, attraction, a-b-da, 5, 3, 8, 29, 190, 117, 120, 195, 195, 120, 2, 0.784429
181, 6, bw, attraction, a-b-da, 5, 3, 8, 29, 190, 117, 120, 195, 195, 120, 3, 1.16833
181, 6, bw, filler, NA, 999, 999, 8, 30, 93, 66, 61, 81, 143, 125, 2, 0.487128
181, 6, bw, filler, NA, 999, 999, 8, 30, 93, 66, 61, 81, 143, 125, 1, 0.610286
181, 6, bw, attraction, a-b-db, 2, 3, 8, 31, 119, 193, 120, 195, 195, 120, 2, 0.463345
181, 6, bw, attraction, a-b-db, 2, 3, 8, 31, 119, 193, 120, 195, 195, 120, 3, 0.459764
181, 6, bw, attraction, a-b-db, 5, 2, 8, 32, 88, 161, 90, 165, 165, 90, 2, 0.342908
181, 6, bw, attraction, a-b-db, 5, 2, 8, 32, 88, 161, 90, 165, 165, 90, 1, 0.44023
181, 6, bw, attraction, a-b-da, 2, 1, 8, 33, 134, 59, 135, 60, 60, 135, 2, 0.53193
181, 6, bw, attraction, a-b-da, 2, 1, 8, 33, 134, 59, 135, 60, 60, 135, 3, 0.405792
181, 6, bw, attraction, a-b-db, 5, 1, 8, 34, 60, 135, 58, 132, 135, 60, 2, 0.827729
181, 6, bw, attraction, a-b-db, 5, 1, 8, 34, 60, 135, 58, 132, 135, 60, 3, 2.32944
181, 6, bw, attraction, a-b-db, 9, 1, 8, 35, 57, 129, 135, 60, 60, 135, 2, 0.521143
181, 6, bw, attraction, a-b-db, 9, 1, 8, 35, 57, 129, 135, 60, 60, 135, 1, 0.498967
181, 6, bw, attraction, a-b-da, 9, 1, 8, 36, 129, 57, 60, 135, 135, 60, 2, 0.700702
181, 6, bw, attraction, a-b-da, 9, 1, 8, 36, 129, 57, 60, 135, 135, 60, 3, 0.59182
181, 6, bw, filler, NA, 999, 999, 8, 37, 63, 125, 178, 88, 135, 146, 2, 0.653725
181, 6, bw, filler, NA, 999, 999, 8, 37, 63, 125, 178, 88, 135, 146, 3, 0.490008
