sub_n, computer_n, bw_cond, effect, set, distance, diag, block_n, trial_n, h1, w1, h2, w2, h3, w3, choice, rt 
106, 6, wb, practice, NA, 999, 999, 0, 1, 88, 187, 160, 185, 189, 161, 1, 4.02888
106, 6, wb, practice, NA, 999, 999, 0, 1, 88, 187, 160, 185, 189, 161, 3, 8.58633
106, 6, wb, practice, NA, 999, 999, 0, 2, 161, 75, 167, 182, 173, 110, 1, 3.09971
106, 6, wb, practice, NA, 999, 999, 0, 2, 161, 75, 167, 182, 173, 110, 2, 2.6946
106, 6, wb, practice, NA, 999, 999, 0, 3, 85, 167, 159, 72, 145, 89, 2, 4.34226
106, 6, wb, practice, NA, 999, 999, 0, 3, 85, 167, 159, 72, 145, 89, 1, 3.3745
106, 6, wb, attraction, a-b-db, 14, 1, 1, 1, 135, 60, 56, 125, 60, 135, 2, 2.57953
106, 6, wb, attraction, a-b-db, 14, 1, 1, 1, 135, 60, 56, 125, 60, 135, 3, 3.85078
106, 6, wb, filler, NA, 999, 999, 1, 2, 125, 66, 135, 184, 72, 60, 3, 2.05359
106, 6, wb, filler, NA, 999, 999, 1, 2, 125, 66, 135, 184, 72, 60, 2, 1.45017
106, 6, wb, attraction, a-b-db, 14, 3, 1, 3, 195, 120, 111, 181, 120, 195, 2, 4.34179
106, 6, wb, attraction, a-b-db, 14, 3, 1, 3, 195, 120, 111, 181, 120, 195, 1, 1.47757
106, 6, wb, filler, NA, 999, 999, 1, 4, 156, 142, 185, 150, 88, 82, 3, 1.52769
106, 6, wb, filler, NA, 999, 999, 1, 4, 156, 142, 185, 150, 88, 82, 2, 1.04123
106, 6, wb, filler, NA, 999, 999, 1, 5, 90, 98, 129, 102, 119, 185, 1, 1.54078
106, 6, wb, filler, NA, 999, 999, 1, 5, 90, 98, 129, 102, 119, 185, 3, 0.813691
106, 6, wb, attraction, a-b-db, 2, 3, 1, 6, 195, 120, 119, 193, 120, 195, 1, 8.20273
106, 6, wb, attraction, a-b-db, 2, 3, 1, 6, 195, 120, 119, 193, 120, 195, 2, 2.37538
106, 6, wb, attraction, a-b-da, 14, 2, 1, 7, 165, 90, 153, 83, 90, 165, 2, 3.50934
106, 6, wb, attraction, a-b-da, 14, 2, 1, 7, 165, 90, 153, 83, 90, 165, 3, 5.57493
106, 6, wb, catch, NA, 999, 999, 1, 8, 115, 140, 167, 148, 90, 105, 3, 1.43577
106, 6, wb, catch, NA, 999, 999, 1, 8, 115, 140, 167, 148, 90, 105, 2, 0.897233
106, 6, wb, attraction, a-b-da, 9, 1, 1, 9, 135, 60, 129, 57, 60, 135, 1, 2.17093
106, 6, wb, attraction, a-b-da, 9, 1, 1, 9, 135, 60, 129, 57, 60, 135, 3, 0.874146
106, 6, wb, attraction, a-b-da, 2, 2, 1, 10, 165, 90, 163, 89, 90, 165, 1, 2.48464
106, 6, wb, attraction, a-b-da, 2, 2, 1, 10, 165, 90, 163, 89, 90, 165, 3, 1.31178
106, 6, wb, catch, NA, 999, 999, 1, 11, 177, 138, 68, 127, 117, 138, 2, 1.18461
106, 6, wb, catch, NA, 999, 999, 1, 11, 177, 138, 68, 127, 117, 138, 1, 0.816282
106, 6, wb, attraction, a-b-db, 2, 2, 1, 12, 89, 163, 90, 165, 165, 90, 3, 2.4452
106, 6, wb, attraction, a-b-db, 2, 2, 1, 12, 89, 163, 90, 165, 165, 90, 1, 1.12976
106, 6, wb, attraction, a-b-da, 14, 3, 1, 13, 120, 195, 181, 111, 195, 120, 2, 3.45797
106, 6, wb, attraction, a-b-da, 14, 3, 1, 13, 120, 195, 181, 111, 195, 120, 1, 0.621543
106, 6, wb, attraction, a-b-db, 5, 1, 1, 14, 135, 60, 60, 135, 58, 132, 1, 2.7466
106, 6, wb, attraction, a-b-db, 5, 1, 1, 14, 135, 60, 60, 135, 58, 132, 2, 1.06725
106, 6, wb, attraction, a-b-da, 2, 1, 1, 15, 60, 135, 134, 59, 135, 60, 2, 3.22199
106, 6, wb, attraction, a-b-da, 2, 1, 1, 15, 60, 135, 134, 59, 135, 60, 1, 0.578958
106, 6, wb, attraction, a-b-da, 5, 1, 1, 16, 60, 135, 132, 58, 135, 60, 2, 1.82546
106, 6, wb, attraction, a-b-da, 5, 1, 1, 16, 60, 135, 132, 58, 135, 60, 1, 1.15886
106, 6, wb, attraction, a-b-db, 9, 3, 1, 17, 114, 186, 195, 120, 120, 195, 2, 3.24578
106, 6, wb, attraction, a-b-db, 9, 3, 1, 17, 114, 186, 195, 120, 120, 195, 3, 1.78604
106, 6, wb, filler, NA, 999, 999, 1, 18, 157, 56, 56, 79, 114, 148, 2, 1.32009
106, 6, wb, filler, NA, 999, 999, 1, 18, 157, 56, 56, 79, 114, 148, 3, 1.6743
106, 6, wb, filler, NA, 999, 999, 1, 19, 136, 167, 74, 83, 72, 114, 2, 3.33241
106, 6, wb, filler, NA, 999, 999, 1, 19, 136, 167, 74, 83, 72, 114, 1, 1.02935
106, 6, wb, attraction, a-b-da, 5, 2, 1, 20, 161, 88, 165, 90, 90, 165, 1, 1.55367
106, 6, wb, attraction, a-b-da, 5, 2, 1, 20, 161, 88, 165, 90, 90, 165, 3, 0.738574
106, 6, wb, attraction, a-b-db, 14, 2, 1, 21, 165, 90, 90, 165, 83, 153, 3, 2.30681
106, 6, wb, attraction, a-b-db, 14, 2, 1, 21, 165, 90, 90, 165, 83, 153, 2, 1.3648
106, 6, wb, attraction, a-b-da, 5, 3, 1, 22, 190, 117, 120, 195, 195, 120, 3, 2.11563
106, 6, wb, attraction, a-b-da, 5, 3, 1, 22, 190, 117, 120, 195, 195, 120, 2, 1.50162
106, 6, wb, attraction, a-b-db, 9, 2, 1, 23, 90, 165, 86, 157, 165, 90, 2, 3.17505
106, 6, wb, attraction, a-b-db, 9, 2, 1, 23, 90, 165, 86, 157, 165, 90, 3, 2.3181
106, 6, wb, attraction, a-b-db, 2, 1, 1, 24, 135, 60, 59, 134, 60, 135, 2, 1.89459
106, 6, wb, attraction, a-b-db, 2, 1, 1, 24, 135, 60, 59, 134, 60, 135, 1, 1.60124
106, 6, wb, attraction, a-b-db, 9, 1, 1, 25, 60, 135, 135, 60, 57, 129, 3, 2.23884
106, 6, wb, attraction, a-b-db, 9, 1, 1, 25, 60, 135, 135, 60, 57, 129, 1, 1.08332
106, 6, wb, attraction, a-b-db, 5, 2, 1, 26, 88, 161, 90, 165, 165, 90, 2, 2.82954
106, 6, wb, attraction, a-b-db, 5, 2, 1, 26, 88, 161, 90, 165, 165, 90, 3, 1.02675
106, 6, wb, catch, NA, 999, 999, 1, 27, 130, 65, 108, 147, 137, 178, 1, 0.966953
106, 6, wb, catch, NA, 999, 999, 1, 27, 130, 65, 108, 147, 137, 178, 3, 0.895329
106, 6, wb, attraction, a-b-db, 5, 3, 1, 28, 117, 190, 120, 195, 195, 120, 1, 4.66489
106, 6, wb, attraction, a-b-db, 5, 3, 1, 28, 117, 190, 120, 195, 195, 120, 2, 1.55611
106, 6, wb, filler, NA, 999, 999, 1, 29, 140, 191, 61, 145, 150, 189, 2, 1.13158
106, 6, wb, filler, NA, 999, 999, 1, 29, 140, 191, 61, 145, 150, 189, 3, 0.749215
106, 6, wb, filler, NA, 999, 999, 1, 30, 86, 89, 98, 176, 179, 191, 1, 1.42088
106, 6, wb, filler, NA, 999, 999, 1, 30, 86, 89, 98, 176, 179, 191, 3, 0.914573
106, 6, wb, attraction, a-b-da, 9, 3, 1, 31, 186, 114, 120, 195, 195, 120, 3, 2.10748
106, 6, wb, attraction, a-b-da, 9, 3, 1, 31, 186, 114, 120, 195, 195, 120, 2, 0.837423
106, 6, wb, attraction, a-b-da, 14, 1, 1, 32, 125, 56, 135, 60, 60, 135, 1, 2.13791
106, 6, wb, attraction, a-b-da, 14, 1, 1, 32, 125, 56, 135, 60, 60, 135, 3, 0.594376
106, 6, wb, filler, NA, 999, 999, 1, 33, 92, 78, 138, 135, 135, 173, 1, 0.808233
106, 6, wb, filler, NA, 999, 999, 1, 33, 92, 78, 138, 135, 135, 173, 3, 0.662654
106, 6, wb, attraction, a-b-da, 9, 2, 1, 34, 90, 165, 165, 90, 157, 86, 1, 3.14567
106, 6, wb, attraction, a-b-da, 9, 2, 1, 34, 90, 165, 165, 90, 157, 86, 2, 0.881894
106, 6, wb, attraction, a-b-da, 2, 3, 1, 35, 193, 119, 120, 195, 195, 120, 1, 1.98837
106, 6, wb, attraction, a-b-da, 2, 3, 1, 35, 193, 119, 120, 195, 195, 120, 2, 0.89105
106, 6, wb, filler, NA, 999, 999, 1, 36, 111, 56, 191, 146, 84, 141, 1, 0.836646
106, 6, wb, filler, NA, 999, 999, 1, 36, 111, 56, 191, 146, 84, 141, 2, 0.746297
106, 6, wb, filler, NA, 999, 999, 1, 37, 65, 86, 182, 125, 187, 88, 1, 0.745968
106, 6, wb, filler, NA, 999, 999, 1, 37, 65, 86, 182, 125, 187, 88, 2, 0.755086
106, 6, wb, attraction, a-b-db, 2, 3, 2, 1, 120, 195, 195, 120, 119, 193, 2, 2.23479
106, 6, wb, attraction, a-b-db, 2, 3, 2, 1, 120, 195, 195, 120, 119, 193, 1, 0.704097
106, 6, wb, attraction, a-b-db, 9, 2, 2, 2, 165, 90, 90, 165, 86, 157, 2, 2.20993
106, 6, wb, attraction, a-b-db, 9, 2, 2, 2, 165, 90, 90, 165, 86, 157, 1, 0.727771
106, 6, wb, attraction, a-b-db, 5, 3, 2, 3, 120, 195, 195, 120, 117, 190, 2, 2.94423
106, 6, wb, attraction, a-b-db, 5, 3, 2, 3, 120, 195, 195, 120, 117, 190, 1, 1.68067
106, 6, wb, attraction, a-b-db, 9, 1, 2, 4, 60, 135, 135, 60, 57, 129, 2, 5.65876
106, 6, wb, attraction, a-b-db, 9, 1, 2, 4, 60, 135, 135, 60, 57, 129, 1, 0.74157
106, 6, wb, attraction, a-b-da, 14, 3, 2, 5, 181, 111, 195, 120, 120, 195, 1, 2.74134
106, 6, wb, attraction, a-b-da, 14, 3, 2, 5, 181, 111, 195, 120, 120, 195, 3, 0.765678
106, 6, wb, attraction, a-b-da, 5, 1, 2, 6, 135, 60, 60, 135, 132, 58, 2, 2.11686
106, 6, wb, attraction, a-b-da, 5, 1, 2, 6, 135, 60, 60, 135, 132, 58, 3, 2.00679
106, 6, wb, attraction, a-b-da, 2, 3, 2, 7, 195, 120, 193, 119, 120, 195, 2, 1.83534
106, 6, wb, attraction, a-b-da, 2, 3, 2, 7, 195, 120, 193, 119, 120, 195, 3, 0.600701
106, 6, wb, catch, NA, 999, 999, 2, 8, 164, 91, 132, 63, 183, 132, 2, 0.95048
106, 6, wb, catch, NA, 999, 999, 2, 8, 164, 91, 132, 63, 183, 132, 3, 0.919643
106, 6, wb, filler, NA, 999, 999, 2, 9, 125, 61, 118, 124, 155, 73, 1, 1.60843
106, 6, wb, filler, NA, 999, 999, 2, 9, 125, 61, 118, 124, 155, 73, 2, 1.0706
106, 6, wb, attraction, a-b-db, 2, 1, 2, 10, 59, 134, 135, 60, 60, 135, 3, 1.26568
106, 6, wb, attraction, a-b-db, 2, 1, 2, 10, 59, 134, 135, 60, 60, 135, 2, 0.613806
106, 6, wb, filler, NA, 999, 999, 2, 11, 63, 162, 68, 167, 174, 182, 1, 1.65088
106, 6, wb, filler, NA, 999, 999, 2, 11, 63, 162, 68, 167, 174, 182, 3, 0.879685
106, 6, wb, attraction, a-b-db, 14, 1, 2, 12, 56, 125, 60, 135, 135, 60, 1, 1.42603
106, 6, wb, attraction, a-b-db, 14, 1, 2, 12, 56, 125, 60, 135, 135, 60, 2, 2.91153
106, 6, wb, attraction, a-b-db, 5, 1, 2, 13, 135, 60, 60, 135, 58, 132, 3, 2.04789
106, 6, wb, attraction, a-b-db, 5, 1, 2, 13, 135, 60, 60, 135, 58, 132, 1, 1.41266
106, 6, wb, attraction, a-b-da, 14, 2, 2, 14, 90, 165, 153, 83, 165, 90, 2, 3.00943
106, 6, wb, attraction, a-b-da, 14, 2, 2, 14, 90, 165, 153, 83, 165, 90, 1, 0.591053
106, 6, wb, filler, NA, 999, 999, 2, 15, 119, 73, 191, 192, 138, 112, 1, 1.48478
106, 6, wb, filler, NA, 999, 999, 2, 15, 119, 73, 191, 192, 138, 112, 2, 0.656355
106, 6, wb, attraction, a-b-db, 9, 3, 2, 16, 195, 120, 114, 186, 120, 195, 2, 3.3075
106, 6, wb, attraction, a-b-db, 9, 3, 2, 16, 195, 120, 114, 186, 120, 195, 3, 1.16495
106, 6, wb, attraction, a-b-da, 2, 1, 2, 17, 135, 60, 134, 59, 60, 135, 2, 3.18794
106, 6, wb, attraction, a-b-da, 2, 1, 2, 17, 135, 60, 134, 59, 60, 135, 3, 0.690892
106, 6, wb, catch, NA, 999, 999, 2, 18, 183, 132, 99, 156, 61, 134, 3, 1.16453
106, 6, wb, catch, NA, 999, 999, 2, 18, 183, 132, 99, 156, 61, 134, 1, 0.69291
106, 6, wb, attraction, a-b-db, 5, 2, 2, 19, 165, 90, 88, 161, 90, 165, 1, 1.96655
106, 6, wb, attraction, a-b-db, 5, 2, 2, 19, 165, 90, 88, 161, 90, 165, 3, 0.894662
106, 6, wb, attraction, a-b-db, 2, 2, 2, 20, 90, 165, 165, 90, 89, 163, 2, 1.14431
106, 6, wb, attraction, a-b-db, 2, 2, 2, 20, 90, 165, 165, 90, 89, 163, 1, 0.5212
106, 6, wb, attraction, a-b-da, 14, 1, 2, 21, 60, 135, 125, 56, 135, 60, 2, 0.938349
106, 6, wb, attraction, a-b-da, 14, 1, 2, 21, 60, 135, 125, 56, 135, 60, 1, 0.947354
106, 6, wb, filler, NA, 999, 999, 2, 22, 143, 175, 131, 153, 167, 73, 3, 1.60306
106, 6, wb, filler, NA, 999, 999, 2, 22, 143, 175, 131, 153, 167, 73, 1, 0.625835
106, 6, wb, filler, NA, 999, 999, 2, 23, 87, 113, 99, 94, 101, 116, 2, 2.00641
106, 6, wb, filler, NA, 999, 999, 2, 23, 87, 113, 99, 94, 101, 116, 3, 0.628285
106, 6, wb, attraction, a-b-db, 14, 2, 2, 24, 83, 153, 90, 165, 165, 90, 3, 3.22469
106, 6, wb, attraction, a-b-db, 14, 2, 2, 24, 83, 153, 90, 165, 165, 90, 2, 0.477684
106, 6, wb, attraction, a-b-da, 5, 3, 2, 25, 190, 117, 195, 120, 120, 195, 2, 2.86412
106, 6, wb, attraction, a-b-da, 5, 3, 2, 25, 190, 117, 195, 120, 120, 195, 3, 0.515853
106, 6, wb, attraction, a-b-da, 9, 1, 2, 26, 129, 57, 135, 60, 60, 135, 2, 3.36506
106, 6, wb, attraction, a-b-da, 9, 1, 2, 26, 129, 57, 135, 60, 60, 135, 3, 0.668578
106, 6, wb, attraction, a-b-da, 2, 2, 2, 27, 165, 90, 163, 89, 90, 165, 2, 2.11973
106, 6, wb, attraction, a-b-da, 2, 2, 2, 27, 165, 90, 163, 89, 90, 165, 3, 0.641562
106, 6, wb, filler, NA, 999, 999, 2, 28, 148, 127, 74, 68, 87, 159, 2, 0.781244
106, 6, wb, filler, NA, 999, 999, 2, 28, 148, 127, 74, 68, 87, 159, 1, 0.429023
106, 6, wb, catch, NA, 999, 999, 2, 29, 157, 158, 67, 128, 152, 103, 2, 1.03348
106, 6, wb, catch, NA, 999, 999, 2, 29, 157, 158, 67, 128, 152, 103, 1, 0.471153
106, 6, wb, filler, NA, 999, 999, 2, 30, 171, 92, 174, 166, 107, 138, 3, 1.01026
106, 6, wb, filler, NA, 999, 999, 2, 30, 171, 92, 174, 166, 107, 138, 2, 0.448715
106, 6, wb, filler, NA, 999, 999, 2, 31, 104, 84, 175, 89, 149, 115, 1, 2.96449
106, 6, wb, filler, NA, 999, 999, 2, 31, 104, 84, 175, 89, 149, 115, 3, 4.1882
106, 6, wb, attraction, a-b-da, 9, 3, 2, 32, 120, 195, 195, 120, 186, 114, 3, 1.9695
106, 6, wb, attraction, a-b-da, 9, 3, 2, 32, 120, 195, 195, 120, 186, 114, 1, 1.07342
106, 6, wb, attraction, a-b-da, 5, 2, 2, 33, 161, 88, 90, 165, 165, 90, 2, 3.6038
106, 6, wb, attraction, a-b-da, 5, 2, 2, 33, 161, 88, 90, 165, 165, 90, 3, 0.793985
106, 6, wb, filler, NA, 999, 999, 2, 34, 96, 77, 178, 119, 130, 101, 1, 0.823653
106, 6, wb, filler, NA, 999, 999, 2, 34, 96, 77, 178, 119, 130, 101, 2, 0.47749
106, 6, wb, filler, NA, 999, 999, 2, 35, 113, 161, 115, 168, 178, 143, 1, 1.58377
106, 6, wb, filler, NA, 999, 999, 2, 35, 113, 161, 115, 168, 178, 143, 3, 0.87125
106, 6, wb, attraction, a-b-db, 14, 3, 2, 36, 111, 181, 120, 195, 195, 120, 1, 3.01826
106, 6, wb, attraction, a-b-db, 14, 3, 2, 36, 111, 181, 120, 195, 195, 120, 3, 0.999923
106, 6, wb, attraction, a-b-da, 9, 2, 2, 37, 90, 165, 165, 90, 157, 86, 3, 1.33365
106, 6, wb, attraction, a-b-da, 9, 2, 2, 37, 90, 165, 165, 90, 157, 86, 1, 0.671173
106, 6, wb, attraction, a-b-db, 14, 1, 3, 1, 135, 60, 56, 125, 60, 135, 2, 1.28223
106, 6, wb, attraction, a-b-db, 14, 1, 3, 1, 135, 60, 56, 125, 60, 135, 1, 0.493824
106, 6, wb, attraction, a-b-da, 5, 1, 3, 2, 135, 60, 60, 135, 132, 58, 2, 1.1438
106, 6, wb, attraction, a-b-da, 5, 1, 3, 2, 135, 60, 60, 135, 132, 58, 3, 0.648491
106, 6, wb, filler, NA, 999, 999, 3, 3, 190, 108, 84, 148, 78, 108, 3, 0.956237
106, 6, wb, filler, NA, 999, 999, 3, 3, 190, 108, 84, 148, 78, 108, 1, 1.18061
106, 6, wb, filler, NA, 999, 999, 3, 4, 74, 60, 135, 86, 86, 191, 1, 0.890884
106, 6, wb, filler, NA, 999, 999, 3, 4, 74, 60, 135, 86, 86, 191, 3, 0.54989
106, 6, wb, attraction, a-b-db, 9, 2, 3, 5, 165, 90, 86, 157, 90, 165, 3, 1.39764
106, 6, wb, attraction, a-b-db, 9, 2, 3, 5, 165, 90, 86, 157, 90, 165, 1, 0.732565
106, 6, wb, attraction, a-b-db, 2, 3, 3, 6, 195, 120, 119, 193, 120, 195, 3, 0.748899
106, 6, wb, attraction, a-b-db, 2, 3, 3, 6, 195, 120, 119, 193, 120, 195, 1, 0.758038
106, 6, wb, attraction, a-b-da, 9, 1, 3, 7, 135, 60, 129, 57, 60, 135, 2, 1.141
106, 6, wb, attraction, a-b-da, 9, 1, 3, 7, 135, 60, 129, 57, 60, 135, 1, 0.853989
106, 6, wb, attraction, a-b-db, 2, 1, 3, 8, 60, 135, 135, 60, 59, 134, 2, 1.6257
106, 6, wb, attraction, a-b-db, 2, 1, 3, 8, 60, 135, 135, 60, 59, 134, 3, 0.815094
106, 6, wb, catch, NA, 999, 999, 3, 9, 120, 195, 135, 120, 115, 80, 3, 1.03611
106, 6, wb, catch, NA, 999, 999, 3, 9, 120, 195, 135, 120, 115, 80, 1, 0.489755
106, 6, wb, attraction, a-b-da, 2, 1, 3, 10, 135, 60, 134, 59, 60, 135, 2, 0.715575
106, 6, wb, attraction, a-b-da, 2, 1, 3, 10, 135, 60, 134, 59, 60, 135, 1, 0.629988
106, 6, wb, attraction, a-b-db, 5, 2, 3, 11, 88, 161, 90, 165, 165, 90, 2, 0.842427
106, 6, wb, attraction, a-b-db, 5, 2, 3, 11, 88, 161, 90, 165, 165, 90, 3, 0.751554
106, 6, wb, attraction, a-b-db, 9, 1, 3, 12, 57, 129, 135, 60, 60, 135, 2, 0.735247
106, 6, wb, attraction, a-b-db, 9, 1, 3, 12, 57, 129, 135, 60, 60, 135, 3, 0.513116
106, 6, wb, filler, NA, 999, 999, 3, 13, 96, 168, 126, 191, 97, 72, 3, 0.882143
106, 6, wb, filler, NA, 999, 999, 3, 13, 96, 168, 126, 191, 97, 72, 2, 0.653642
106, 6, wb, attraction, a-b-da, 9, 2, 3, 14, 157, 86, 165, 90, 90, 165, 3, 0.961461
106, 6, wb, attraction, a-b-da, 9, 2, 3, 14, 157, 86, 165, 90, 90, 165, 2, 1.29774
106, 6, wb, filler, NA, 999, 999, 3, 15, 117, 155, 180, 112, 83, 76, 3, 0.851244
106, 6, wb, filler, NA, 999, 999, 3, 15, 117, 155, 180, 112, 83, 76, 1, 4.47246
106, 6, wb, filler, NA, 999, 999, 3, 16, 155, 171, 109, 153, 125, 116, 3, 1.10616
106, 6, wb, filler, NA, 999, 999, 3, 16, 155, 171, 109, 153, 125, 116, 1, 0.564492
106, 6, wb, attraction, a-b-da, 5, 3, 3, 17, 120, 195, 195, 120, 190, 117, 3, 2.31565
106, 6, wb, attraction, a-b-da, 5, 3, 3, 17, 120, 195, 195, 120, 190, 117, 2, 0.717576
106, 6, wb, attraction, a-b-da, 14, 2, 3, 18, 165, 90, 90, 165, 153, 83, 3, 1.56654
106, 6, wb, attraction, a-b-da, 14, 2, 3, 18, 165, 90, 90, 165, 153, 83, 2, 0.966769
106, 6, wb, filler, NA, 999, 999, 3, 19, 132, 82, 107, 136, 145, 71, 1, 2.26174
106, 6, wb, filler, NA, 999, 999, 3, 19, 132, 82, 107, 136, 145, 71, 2, 0.8656
106, 6, wb, attraction, a-b-db, 14, 2, 3, 20, 83, 153, 165, 90, 90, 165, 1, 2.52462
106, 6, wb, attraction, a-b-db, 14, 2, 3, 20, 83, 153, 165, 90, 90, 165, 2, 1.78199
106, 6, wb, catch, NA, 999, 999, 3, 21, 66, 129, 95, 160, 195, 120, 1, 1.07583
106, 6, wb, catch, NA, 999, 999, 3, 21, 66, 129, 95, 160, 195, 120, 3, 0.991572
106, 6, wb, attraction, a-b-da, 14, 1, 3, 22, 60, 135, 125, 56, 135, 60, 3, 1.28523
106, 6, wb, attraction, a-b-da, 14, 1, 3, 22, 60, 135, 125, 56, 135, 60, 1, 0.760715
106, 6, wb, attraction, a-b-da, 2, 2, 3, 23, 90, 165, 163, 89, 165, 90, 2, 4.65586
106, 6, wb, attraction, a-b-da, 2, 2, 3, 23, 90, 165, 163, 89, 165, 90, 1, 0.538947
106, 6, wb, attraction, a-b-db, 5, 1, 3, 24, 60, 135, 58, 132, 135, 60, 3, 1.85942
106, 6, wb, attraction, a-b-db, 5, 1, 3, 24, 60, 135, 58, 132, 135, 60, 1, 1.29544
106, 6, wb, attraction, a-b-da, 2, 3, 3, 25, 193, 119, 195, 120, 120, 195, 3, 1.36094
106, 6, wb, attraction, a-b-da, 2, 3, 3, 25, 193, 119, 195, 120, 120, 195, 2, 0.665198
106, 6, wb, filler, NA, 999, 999, 3, 26, 73, 143, 74, 187, 84, 69, 3, 1.19621
106, 6, wb, filler, NA, 999, 999, 3, 26, 73, 143, 74, 187, 84, 69, 2, 0.787193
106, 6, wb, attraction, a-b-db, 5, 3, 3, 27, 117, 190, 120, 195, 195, 120, 1, 4.27366
106, 6, wb, attraction, a-b-db, 5, 3, 3, 27, 117, 190, 120, 195, 195, 120, 2, 0.4843
106, 6, wb, attraction, a-b-db, 9, 3, 3, 28, 114, 186, 120, 195, 195, 120, 1, 2.99876
106, 6, wb, attraction, a-b-db, 9, 3, 3, 28, 114, 186, 120, 195, 195, 120, 3, 0.981095
106, 6, wb, attraction, a-b-db, 14, 3, 3, 29, 111, 181, 120, 195, 195, 120, 1, 1.33126
106, 6, wb, attraction, a-b-db, 14, 3, 3, 29, 111, 181, 120, 195, 195, 120, 3, 1.33288
106, 6, wb, attraction, a-b-da, 5, 2, 3, 30, 90, 165, 165, 90, 161, 88, 3, 1.62109
106, 6, wb, attraction, a-b-da, 5, 2, 3, 30, 90, 165, 165, 90, 161, 88, 1, 0.994501
106, 6, wb, attraction, a-b-db, 2, 2, 3, 31, 165, 90, 90, 165, 89, 163, 1, 1.96013
106, 6, wb, attraction, a-b-db, 2, 2, 3, 31, 165, 90, 90, 165, 89, 163, 2, 0.664301
106, 6, wb, attraction, a-b-da, 14, 3, 3, 32, 181, 111, 120, 195, 195, 120, 3, 1.13133
106, 6, wb, attraction, a-b-da, 14, 3, 3, 32, 181, 111, 120, 195, 195, 120, 2, 0.781072
106, 6, wb, catch, NA, 999, 999, 3, 33, 195, 120, 67, 128, 119, 136, 2, 0.987231
106, 6, wb, catch, NA, 999, 999, 3, 33, 195, 120, 67, 128, 119, 136, 1, 0.906979
106, 6, wb, attraction, a-b-da, 9, 3, 3, 34, 195, 120, 120, 195, 186, 114, 2, 1.79589
106, 6, wb, attraction, a-b-da, 9, 3, 3, 34, 195, 120, 120, 195, 186, 114, 1, 1.99465
106, 6, wb, filler, NA, 999, 999, 3, 35, 72, 62, 176, 176, 152, 195, 1, 1.35193
106, 6, wb, filler, NA, 999, 999, 3, 35, 72, 62, 176, 176, 152, 195, 2, 1.54492
106, 6, wb, filler, NA, 999, 999, 3, 36, 108, 168, 128, 165, 172, 137, 1, 1.8243
106, 6, wb, filler, NA, 999, 999, 3, 36, 108, 168, 128, 165, 172, 137, 3, 1.68571
106, 6, wb, filler, NA, 999, 999, 3, 37, 135, 67, 136, 109, 144, 184, 1, 1.02382
106, 6, wb, filler, NA, 999, 999, 3, 37, 135, 67, 136, 109, 144, 184, 3, 1.3735
106, 6, wb, filler, NA, 999, 999, 4, 1, 121, 102, 121, 68, 114, 184, 2, 3.41972
106, 6, wb, filler, NA, 999, 999, 4, 1, 121, 102, 121, 68, 114, 184, 3, 0.817254
106, 6, wb, attraction, a-b-da, 5, 2, 4, 2, 161, 88, 165, 90, 90, 165, 3, 1.23024
106, 6, wb, attraction, a-b-da, 5, 2, 4, 2, 161, 88, 165, 90, 90, 165, 2, 0.539933
106, 6, wb, attraction, a-b-da, 9, 2, 4, 3, 165, 90, 90, 165, 157, 86, 3, 1.93952
106, 6, wb, attraction, a-b-da, 9, 2, 4, 3, 165, 90, 90, 165, 157, 86, 2, 0.660542
106, 6, wb, filler, NA, 999, 999, 4, 4, 144, 66, 188, 99, 190, 176, 1, 0.999305
106, 6, wb, filler, NA, 999, 999, 4, 4, 144, 66, 188, 99, 190, 176, 3, 0.606377
106, 6, wb, filler, NA, 999, 999, 4, 5, 95, 129, 105, 74, 105, 155, 2, 0.979402
106, 6, wb, filler, NA, 999, 999, 4, 5, 95, 129, 105, 74, 105, 155, 3, 0.555136
106, 6, wb, attraction, a-b-db, 5, 2, 4, 6, 88, 161, 165, 90, 90, 165, 1, 3.15491
106, 6, wb, attraction, a-b-db, 5, 2, 4, 6, 88, 161, 165, 90, 90, 165, 2, 2.37867
106, 6, wb, filler, NA, 999, 999, 4, 7, 129, 150, 156, 83, 146, 68, 3, 1.49636
106, 6, wb, filler, NA, 999, 999, 4, 7, 129, 150, 156, 83, 146, 68, 1, 0.787291
106, 6, wb, attraction, a-b-da, 5, 1, 4, 8, 132, 58, 60, 135, 135, 60, 2, 1.48162
106, 6, wb, attraction, a-b-da, 5, 1, 4, 8, 132, 58, 60, 135, 135, 60, 1, 1.16514
106, 6, wb, filler, NA, 999, 999, 4, 9, 169, 158, 161, 179, 64, 79, 3, 1.37207
106, 6, wb, filler, NA, 999, 999, 4, 9, 169, 158, 161, 179, 64, 79, 2, 0.651495
106, 6, wb, filler, NA, 999, 999, 4, 10, 80, 135, 130, 61, 179, 144, 2, 1.21526
106, 6, wb, filler, NA, 999, 999, 4, 10, 80, 135, 130, 61, 179, 144, 3, 0.685584
106, 6, wb, attraction, a-b-db, 2, 2, 4, 11, 89, 163, 90, 165, 165, 90, 3, 2.86395
106, 6, wb, attraction, a-b-db, 2, 2, 4, 11, 89, 163, 90, 165, 165, 90, 2, 0.907755
106, 6, wb, attraction, a-b-da, 2, 3, 4, 12, 193, 119, 195, 120, 120, 195, 1, 2.37266
106, 6, wb, attraction, a-b-da, 2, 3, 4, 12, 193, 119, 195, 120, 120, 195, 3, 0.804047
106, 6, wb, catch, NA, 999, 999, 4, 13, 73, 122, 171, 144, 139, 116, 1, 1.04169
106, 6, wb, catch, NA, 999, 999, 4, 13, 73, 122, 171, 144, 139, 116, 2, 0.494585
106, 6, wb, attraction, a-b-db, 2, 1, 4, 14, 60, 135, 59, 134, 135, 60, 1, 1.88036
106, 6, wb, attraction, a-b-db, 2, 1, 4, 14, 60, 135, 59, 134, 135, 60, 3, 0.77974
106, 6, wb, catch, NA, 999, 999, 4, 15, 167, 148, 109, 146, 104, 91, 3, 1.01808
106, 6, wb, catch, NA, 999, 999, 4, 15, 167, 148, 109, 146, 104, 91, 1, 0.584459
106, 6, wb, attraction, a-b-db, 5, 1, 4, 16, 60, 135, 58, 132, 135, 60, 1, 1.72682
106, 6, wb, attraction, a-b-db, 5, 1, 4, 16, 60, 135, 58, 132, 135, 60, 2, 1.29625
106, 6, wb, attraction, a-b-db, 9, 2, 4, 17, 86, 157, 90, 165, 165, 90, 3, 1.35388
106, 6, wb, attraction, a-b-db, 9, 2, 4, 17, 86, 157, 90, 165, 165, 90, 2, 0.498096
106, 6, wb, attraction, a-b-db, 5, 3, 4, 18, 117, 190, 195, 120, 120, 195, 3, 1.25994
106, 6, wb, attraction, a-b-db, 5, 3, 4, 18, 117, 190, 195, 120, 120, 195, 2, 0.992076
106, 6, wb, filler, NA, 999, 999, 4, 19, 190, 146, 132, 56, 128, 85, 2, 1.06168
106, 6, wb, filler, NA, 999, 999, 4, 19, 190, 146, 132, 56, 128, 85, 1, 0.529942
106, 6, wb, attraction, a-b-da, 14, 1, 4, 20, 135, 60, 125, 56, 60, 135, 1, 1.69837
106, 6, wb, attraction, a-b-da, 14, 1, 4, 20, 135, 60, 125, 56, 60, 135, 3, 0.589191
106, 6, wb, filler, NA, 999, 999, 4, 21, 69, 118, 157, 96, 91, 57, 3, 0.915673
106, 6, wb, filler, NA, 999, 999, 4, 21, 69, 118, 157, 96, 91, 57, 2, 0.462053
106, 6, wb, attraction, a-b-da, 2, 1, 4, 22, 60, 135, 134, 59, 135, 60, 1, 2.26525
106, 6, wb, attraction, a-b-da, 2, 1, 4, 22, 60, 135, 134, 59, 135, 60, 2, 0.437108
106, 6, wb, attraction, a-b-da, 9, 1, 4, 23, 129, 57, 135, 60, 60, 135, 3, 1.11355
106, 6, wb, attraction, a-b-da, 9, 1, 4, 23, 129, 57, 135, 60, 60, 135, 2, 1.61188
106, 6, wb, attraction, a-b-da, 14, 3, 4, 24, 181, 111, 120, 195, 195, 120, 1, 1.82467
106, 6, wb, attraction, a-b-da, 14, 3, 4, 24, 181, 111, 120, 195, 195, 120, 2, 0.518084
106, 6, wb, filler, NA, 999, 999, 4, 25, 176, 124, 132, 93, 129, 113, 2, 1.14326
106, 6, wb, filler, NA, 999, 999, 4, 25, 176, 124, 132, 93, 129, 113, 1, 0.416018
106, 6, wb, attraction, a-b-da, 5, 3, 4, 26, 120, 195, 190, 117, 195, 120, 3, 2.88514
106, 6, wb, attraction, a-b-da, 5, 3, 4, 26, 120, 195, 190, 117, 195, 120, 1, 0.664386
106, 6, wb, attraction, a-b-da, 9, 3, 4, 27, 120, 195, 195, 120, 186, 114, 3, 1.45933
106, 6, wb, attraction, a-b-da, 9, 3, 4, 27, 120, 195, 195, 120, 186, 114, 1, 0.943506
106, 6, wb, attraction, a-b-db, 14, 2, 4, 28, 165, 90, 90, 165, 83, 153, 3, 1.98323
106, 6, wb, attraction, a-b-db, 14, 2, 4, 28, 165, 90, 90, 165, 83, 153, 2, 1.8306
106, 6, wb, filler, NA, 999, 999, 4, 29, 76, 107, 115, 194, 164, 142, 1, 0.914604
106, 6, wb, filler, NA, 999, 999, 4, 29, 76, 107, 115, 194, 164, 142, 2, 1.68492
106, 6, wb, attraction, a-b-db, 9, 1, 4, 30, 135, 60, 60, 135, 57, 129, 3, 1.54306
106, 6, wb, attraction, a-b-db, 9, 1, 4, 30, 135, 60, 60, 135, 57, 129, 2, 0.663802
106, 6, wb, attraction, a-b-db, 14, 1, 4, 31, 56, 125, 135, 60, 60, 135, 1, 1.12297
106, 6, wb, attraction, a-b-db, 14, 1, 4, 31, 56, 125, 135, 60, 60, 135, 2, 0.996629
106, 6, wb, attraction, a-b-da, 2, 2, 4, 32, 90, 165, 163, 89, 165, 90, 3, 1.36215
106, 6, wb, attraction, a-b-da, 2, 2, 4, 32, 90, 165, 163, 89, 165, 90, 1, 0.770341
106, 6, wb, attraction, a-b-db, 9, 3, 4, 33, 114, 186, 195, 120, 120, 195, 2, 1.96139
106, 6, wb, attraction, a-b-db, 9, 3, 4, 33, 114, 186, 195, 120, 120, 195, 3, 1.00959
106, 6, wb, attraction, a-b-da, 14, 2, 4, 34, 90, 165, 165, 90, 153, 83, 1, 1.99838
106, 6, wb, attraction, a-b-da, 14, 2, 4, 34, 90, 165, 165, 90, 153, 83, 2, 0.653114
106, 6, wb, attraction, a-b-db, 14, 3, 4, 35, 195, 120, 120, 195, 111, 181, 3, 2.21686
106, 6, wb, attraction, a-b-db, 14, 3, 4, 35, 195, 120, 120, 195, 111, 181, 2, 1.71875
106, 6, wb, catch, NA, 999, 999, 4, 36, 107, 148, 129, 186, 65, 130, 3, 0.975518
106, 6, wb, catch, NA, 999, 999, 4, 36, 107, 148, 129, 186, 65, 130, 2, 0.511248
106, 6, wb, attraction, a-b-db, 2, 3, 4, 37, 119, 193, 120, 195, 195, 120, 3, 1.95231
106, 6, wb, attraction, a-b-db, 2, 3, 4, 37, 119, 193, 120, 195, 195, 120, 2, 1.04902
106, 6, wb, attraction, a-b-db, 14, 1, 5, 1, 60, 135, 56, 125, 135, 60, 3, 4.90726
106, 6, wb, attraction, a-b-db, 14, 1, 5, 1, 60, 135, 56, 125, 135, 60, 1, 0.572347
106, 6, wb, attraction, a-b-da, 14, 3, 5, 2, 181, 111, 195, 120, 120, 195, 1, 1.34755
106, 6, wb, attraction, a-b-da, 14, 3, 5, 2, 181, 111, 195, 120, 120, 195, 2, 0.636292
106, 6, wb, attraction, a-b-db, 5, 2, 5, 3, 90, 165, 88, 161, 165, 90, 3, 1.00873
106, 6, wb, attraction, a-b-db, 5, 2, 5, 3, 90, 165, 88, 161, 165, 90, 1, 0.974996
106, 6, wb, attraction, a-b-db, 14, 2, 5, 4, 165, 90, 83, 153, 90, 165, 1, 1.3813
106, 6, wb, attraction, a-b-db, 14, 2, 5, 4, 165, 90, 83, 153, 90, 165, 3, 0.501048
106, 6, wb, attraction, a-b-da, 2, 3, 5, 5, 193, 119, 195, 120, 120, 195, 1, 0.942673
106, 6, wb, attraction, a-b-da, 2, 3, 5, 5, 193, 119, 195, 120, 120, 195, 3, 0.903649
106, 6, wb, attraction, a-b-da, 9, 1, 5, 6, 60, 135, 129, 57, 135, 60, 1, 0.881302
106, 6, wb, attraction, a-b-da, 9, 1, 5, 6, 60, 135, 129, 57, 135, 60, 3, 0.957061
106, 6, wb, filler, NA, 999, 999, 5, 7, 166, 130, 86, 147, 61, 88, 3, 0.787953
106, 6, wb, filler, NA, 999, 999, 5, 7, 166, 130, 86, 147, 61, 88, 1, 0.491064
106, 6, wb, filler, NA, 999, 999, 5, 8, 158, 146, 172, 152, 100, 142, 3, 0.940977
106, 6, wb, filler, NA, 999, 999, 5, 8, 158, 146, 172, 152, 100, 142, 2, 0.470003
106, 6, wb, attraction, a-b-da, 2, 1, 5, 9, 135, 60, 60, 135, 134, 59, 2, 1.52898
106, 6, wb, attraction, a-b-da, 2, 1, 5, 9, 135, 60, 60, 135, 134, 59, 1, 0.482461
106, 6, wb, attraction, a-b-db, 14, 3, 5, 10, 195, 120, 120, 195, 111, 181, 3, 1.27696
106, 6, wb, attraction, a-b-db, 14, 3, 5, 10, 195, 120, 120, 195, 111, 181, 2, 1.34455
106, 6, wb, attraction, a-b-da, 2, 2, 5, 11, 163, 89, 90, 165, 165, 90, 1, 1.184
106, 6, wb, attraction, a-b-da, 2, 2, 5, 11, 163, 89, 90, 165, 165, 90, 3, 2.37582
106, 6, wb, attraction, a-b-db, 9, 1, 5, 12, 57, 129, 135, 60, 60, 135, 2, 1.20544
106, 6, wb, attraction, a-b-db, 9, 1, 5, 12, 57, 129, 135, 60, 60, 135, 3, 0.51591
106, 6, wb, attraction, a-b-da, 14, 2, 5, 13, 153, 83, 90, 165, 165, 90, 1, 0.9489
106, 6, wb, attraction, a-b-da, 14, 2, 5, 13, 153, 83, 90, 165, 165, 90, 2, 0.837872
106, 6, wb, filler, NA, 999, 999, 5, 14, 79, 101, 88, 117, 149, 69, 1, 0.722209
106, 6, wb, filler, NA, 999, 999, 5, 14, 79, 101, 88, 117, 149, 69, 2, 1.02011
106, 6, wb, catch, NA, 999, 999, 5, 15, 95, 100, 150, 105, 182, 133, 1, 0.816897
106, 6, wb, catch, NA, 999, 999, 5, 15, 95, 100, 150, 105, 182, 133, 3, 0.559428
106, 6, wb, filler, NA, 999, 999, 5, 16, 108, 73, 138, 147, 75, 150, 1, 0.894439
106, 6, wb, filler, NA, 999, 999, 5, 16, 108, 73, 138, 147, 75, 150, 2, 0.473498
106, 6, wb, catch, NA, 999, 999, 5, 17, 109, 86, 168, 147, 153, 102, 1, 0.747844
106, 6, wb, catch, NA, 999, 999, 5, 17, 109, 86, 168, 147, 153, 102, 2, 0.54112
106, 6, wb, attraction, a-b-da, 5, 3, 5, 18, 120, 195, 190, 117, 195, 120, 3, 3.37279
106, 6, wb, attraction, a-b-da, 5, 3, 5, 18, 120, 195, 190, 117, 195, 120, 1, 0.94766
106, 6, wb, filler, NA, 999, 999, 5, 19, 132, 128, 113, 168, 153, 180, 2, 3.46727
106, 6, wb, filler, NA, 999, 999, 5, 19, 132, 128, 113, 168, 153, 180, 3, 0.46287
106, 6, wb, attraction, a-b-da, 9, 2, 5, 20, 157, 86, 90, 165, 165, 90, 1, 1.35397
106, 6, wb, attraction, a-b-da, 9, 2, 5, 20, 157, 86, 90, 165, 165, 90, 2, 0.474958
106, 6, wb, attraction, a-b-db, 2, 1, 5, 21, 60, 135, 59, 134, 135, 60, 3, 1.41334
106, 6, wb, attraction, a-b-db, 2, 1, 5, 21, 60, 135, 59, 134, 135, 60, 2, 0.603572
106, 6, wb, attraction, a-b-db, 2, 2, 5, 22, 90, 165, 89, 163, 165, 90, 3, 2.12127
106, 6, wb, attraction, a-b-db, 2, 2, 5, 22, 90, 165, 89, 163, 165, 90, 2, 0.874637
106, 6, wb, filler, NA, 999, 999, 5, 23, 68, 149, 167, 113, 149, 168, 1, 0.860993
106, 6, wb, filler, NA, 999, 999, 5, 23, 68, 149, 167, 113, 149, 168, 3, 0.473317
106, 6, wb, attraction, a-b-db, 9, 2, 5, 24, 165, 90, 90, 165, 86, 157, 3, 1.35589
106, 6, wb, attraction, a-b-db, 9, 2, 5, 24, 165, 90, 90, 165, 86, 157, 1, 0.852014
106, 6, wb, attraction, a-b-da, 5, 2, 5, 25, 165, 90, 161, 88, 90, 165, 2, 1.4957
106, 6, wb, attraction, a-b-da, 5, 2, 5, 25, 165, 90, 161, 88, 90, 165, 3, 0.554507
106, 6, wb, filler, NA, 999, 999, 5, 26, 134, 87, 149, 114, 109, 72, 3, 0.706323
106, 6, wb, filler, NA, 999, 999, 5, 26, 134, 87, 149, 114, 109, 72, 2, 0.420796
106, 6, wb, filler, NA, 999, 999, 5, 27, 189, 165, 109, 154, 62, 68, 3, 0.817943
106, 6, wb, filler, NA, 999, 999, 5, 27, 189, 165, 109, 154, 62, 68, 1, 0.488252
106, 6, wb, attraction, a-b-da, 5, 1, 5, 28, 135, 60, 132, 58, 60, 135, 3, 0.858735
106, 6, wb, attraction, a-b-da, 5, 1, 5, 28, 135, 60, 132, 58, 60, 135, 2, 0.871081
106, 6, wb, attraction, a-b-db, 5, 3, 5, 29, 195, 120, 117, 190, 120, 195, 3, 3.46607
106, 6, wb, attraction, a-b-db, 5, 3, 5, 29, 195, 120, 117, 190, 120, 195, 1, 0.53359
106, 6, wb, filler, NA, 999, 999, 5, 30, 141, 106, 175, 111, 160, 159, 1, 0.902051
106, 6, wb, filler, NA, 999, 999, 5, 30, 141, 106, 175, 111, 160, 159, 3, 0.473107
106, 6, wb, attraction, a-b-db, 2, 3, 5, 31, 195, 120, 119, 193, 120, 195, 1, 1.61946
106, 6, wb, attraction, a-b-db, 2, 3, 5, 31, 195, 120, 119, 193, 120, 195, 2, 0.833764
106, 6, wb, attraction, a-b-db, 9, 3, 5, 32, 114, 186, 120, 195, 195, 120, 3, 1.15009
106, 6, wb, attraction, a-b-db, 9, 3, 5, 32, 114, 186, 120, 195, 195, 120, 2, 0.503018
106, 6, wb, attraction, a-b-db, 5, 1, 5, 33, 60, 135, 58, 132, 135, 60, 3, 1.73681
106, 6, wb, attraction, a-b-db, 5, 1, 5, 33, 60, 135, 58, 132, 135, 60, 2, 0.450196
106, 6, wb, catch, NA, 999, 999, 5, 34, 166, 149, 62, 133, 93, 162, 2, 1.26204
106, 6, wb, catch, NA, 999, 999, 5, 34, 166, 149, 62, 133, 93, 162, 1, 0.434259
106, 6, wb, attraction, a-b-da, 9, 3, 5, 35, 195, 120, 186, 114, 120, 195, 2, 2.11072
106, 6, wb, attraction, a-b-da, 9, 3, 5, 35, 195, 120, 186, 114, 120, 195, 3, 0.376752
106, 6, wb, filler, NA, 999, 999, 5, 36, 72, 81, 68, 75, 57, 71, 3, 1.79923
106, 6, wb, filler, NA, 999, 999, 5, 36, 72, 81, 68, 75, 57, 71, 1, 0.52597
106, 6, wb, attraction, a-b-da, 14, 1, 5, 37, 60, 135, 125, 56, 135, 60, 2, 2.25444
106, 6, wb, attraction, a-b-da, 14, 1, 5, 37, 60, 135, 125, 56, 135, 60, 1, 0.643086
106, 6, wb, attraction, a-b-da, 5, 2, 6, 1, 161, 88, 90, 165, 165, 90, 3, 1.51076
106, 6, wb, attraction, a-b-da, 5, 2, 6, 1, 161, 88, 90, 165, 165, 90, 2, 0.400863
106, 6, wb, filler, NA, 999, 999, 6, 2, 69, 185, 175, 57, 109, 63, 3, 1.19082
106, 6, wb, filler, NA, 999, 999, 6, 2, 69, 185, 175, 57, 109, 63, 1, 0.853622
106, 6, wb, filler, NA, 999, 999, 6, 3, 174, 109, 142, 93, 68, 126, 3, 1.66536
106, 6, wb, filler, NA, 999, 999, 6, 3, 174, 109, 142, 93, 68, 126, 1, 0.621417
106, 6, wb, filler, NA, 999, 999, 6, 4, 191, 147, 86, 60, 188, 135, 2, 1.01057
106, 6, wb, filler, NA, 999, 999, 6, 4, 191, 147, 86, 60, 188, 135, 1, 0.568851
106, 6, wb, attraction, a-b-db, 9, 1, 6, 5, 60, 135, 57, 129, 135, 60, 2, 2.15999
106, 6, wb, attraction, a-b-db, 9, 1, 6, 5, 60, 135, 57, 129, 135, 60, 3, 0.567902
106, 6, wb, filler, NA, 999, 999, 6, 6, 91, 143, 179, 181, 161, 180, 1, 1.07112
106, 6, wb, filler, NA, 999, 999, 6, 6, 91, 143, 179, 181, 161, 180, 2, 0.39462
106, 6, wb, attraction, a-b-da, 5, 3, 6, 7, 190, 117, 195, 120, 120, 195, 3, 1.57647
106, 6, wb, attraction, a-b-da, 5, 3, 6, 7, 190, 117, 195, 120, 120, 195, 2, 0.535939
106, 6, wb, attraction, a-b-da, 14, 2, 6, 8, 165, 90, 90, 165, 153, 83, 3, 0.968382
106, 6, wb, attraction, a-b-da, 14, 2, 6, 8, 165, 90, 90, 165, 153, 83, 2, 0.664743
106, 6, wb, filler, NA, 999, 999, 6, 9, 126, 152, 117, 165, 97, 137, 3, 0.995783
106, 6, wb, filler, NA, 999, 999, 6, 9, 126, 152, 117, 165, 97, 137, 2, 0.634886
106, 6, wb, attraction, a-b-db, 9, 2, 6, 10, 86, 157, 165, 90, 90, 165, 1, 1.09531
106, 6, wb, attraction, a-b-db, 9, 2, 6, 10, 86, 157, 165, 90, 90, 165, 3, 1.53024
106, 6, wb, attraction, a-b-db, 5, 1, 6, 11, 58, 132, 60, 135, 135, 60, 1, 3.65821
106, 6, wb, attraction, a-b-db, 5, 1, 6, 11, 58, 132, 60, 135, 135, 60, 2, 0.933826
106, 6, wb, catch, NA, 999, 999, 6, 12, 103, 152, 85, 110, 182, 133, 2, 0.75814
106, 6, wb, catch, NA, 999, 999, 6, 12, 103, 152, 85, 110, 182, 133, 3, 0.40654
106, 6, wb, attraction, a-b-db, 5, 2, 6, 13, 165, 90, 90, 165, 88, 161, 3, 3.6917
106, 6, wb, attraction, a-b-db, 5, 2, 6, 13, 165, 90, 90, 165, 88, 161, 1, 0.685817
106, 6, wb, attraction, a-b-db, 2, 2, 6, 14, 165, 90, 90, 165, 89, 163, 1, 2.22429
106, 6, wb, attraction, a-b-db, 2, 2, 6, 14, 165, 90, 90, 165, 89, 163, 3, 0.541635
106, 6, wb, attraction, a-b-da, 2, 2, 6, 15, 165, 90, 163, 89, 90, 165, 1, 2.0613
106, 6, wb, attraction, a-b-da, 2, 2, 6, 15, 165, 90, 163, 89, 90, 165, 3, 0.473268
106, 6, wb, attraction, a-b-da, 9, 1, 6, 16, 60, 135, 135, 60, 129, 57, 1, 1.26778
106, 6, wb, attraction, a-b-da, 9, 1, 6, 16, 60, 135, 135, 60, 129, 57, 2, 0.60794
106, 6, wb, attraction, a-b-da, 14, 1, 6, 17, 125, 56, 60, 135, 135, 60, 1, 2.78899
106, 6, wb, attraction, a-b-da, 14, 1, 6, 17, 125, 56, 60, 135, 135, 60, 2, 0.651412
106, 6, wb, catch, NA, 999, 999, 6, 18, 136, 119, 113, 82, 144, 171, 2, 0.911203
106, 6, wb, catch, NA, 999, 999, 6, 18, 136, 119, 113, 82, 144, 171, 3, 0.529557
106, 6, wb, attraction, a-b-da, 14, 3, 6, 19, 195, 120, 120, 195, 181, 111, 3, 1.00997
106, 6, wb, attraction, a-b-da, 14, 3, 6, 19, 195, 120, 120, 195, 181, 111, 2, 0.816347
106, 6, wb, filler, NA, 999, 999, 6, 20, 154, 112, 186, 93, 115, 148, 3, 2.76545
106, 6, wb, filler, NA, 999, 999, 6, 20, 154, 112, 186, 93, 115, 148, 2, 2.10115
106, 6, wb, attraction, a-b-da, 9, 3, 6, 21, 186, 114, 195, 120, 120, 195, 1, 2.23838
106, 6, wb, attraction, a-b-da, 9, 3, 6, 21, 186, 114, 195, 120, 120, 195, 3, 0.523113
106, 6, wb, attraction, a-b-da, 5, 1, 6, 22, 60, 135, 132, 58, 135, 60, 3, 1.04351
106, 6, wb, attraction, a-b-da, 5, 1, 6, 22, 60, 135, 132, 58, 135, 60, 1, 0.62445
106, 6, wb, attraction, a-b-db, 2, 3, 6, 23, 195, 120, 119, 193, 120, 195, 1, 1.58881
106, 6, wb, attraction, a-b-db, 2, 3, 6, 23, 195, 120, 119, 193, 120, 195, 2, 0.475629
106, 6, wb, attraction, a-b-db, 14, 2, 6, 24, 90, 165, 165, 90, 83, 153, 3, 1.35015
106, 6, wb, attraction, a-b-db, 14, 2, 6, 24, 90, 165, 165, 90, 83, 153, 1, 0.671135
106, 6, wb, attraction, a-b-da, 2, 1, 6, 25, 135, 60, 60, 135, 134, 59, 2, 1.2181
106, 6, wb, attraction, a-b-da, 2, 1, 6, 25, 135, 60, 60, 135, 134, 59, 3, 0.76834
106, 6, wb, filler, NA, 999, 999, 6, 26, 164, 117, 101, 183, 103, 119, 3, 0.783343
106, 6, wb, filler, NA, 999, 999, 6, 26, 164, 117, 101, 183, 103, 119, 1, 0.695145
106, 6, wb, filler, NA, 999, 999, 6, 27, 56, 65, 166, 87, 138, 62, 1, 1.60079
106, 6, wb, filler, NA, 999, 999, 6, 27, 56, 65, 166, 87, 138, 62, 2, 0.479604
106, 6, wb, catch, NA, 999, 999, 6, 28, 164, 151, 86, 109, 102, 153, 2, 1.01802
106, 6, wb, catch, NA, 999, 999, 6, 28, 164, 151, 86, 109, 102, 153, 1, 0.480473
106, 6, wb, attraction, a-b-db, 14, 1, 6, 29, 60, 135, 135, 60, 56, 125, 2, 0.818809
106, 6, wb, attraction, a-b-db, 14, 1, 6, 29, 60, 135, 135, 60, 56, 125, 1, 0.553191
106, 6, wb, attraction, a-b-db, 5, 3, 6, 30, 195, 120, 117, 190, 120, 195, 1, 1.69711
106, 6, wb, attraction, a-b-db, 5, 3, 6, 30, 195, 120, 117, 190, 120, 195, 3, 0.899802
106, 6, wb, attraction, a-b-db, 14, 3, 6, 31, 195, 120, 111, 181, 120, 195, 2, 1.43747
106, 6, wb, attraction, a-b-db, 14, 3, 6, 31, 195, 120, 111, 181, 120, 195, 3, 0.594329
106, 6, wb, filler, NA, 999, 999, 6, 32, 102, 123, 65, 167, 124, 154, 1, 1.73601
106, 6, wb, filler, NA, 999, 999, 6, 32, 102, 123, 65, 167, 124, 154, 3, 0.601639
106, 6, wb, attraction, a-b-da, 2, 3, 6, 33, 193, 119, 120, 195, 195, 120, 1, 3.05527
106, 6, wb, attraction, a-b-da, 2, 3, 6, 33, 193, 119, 120, 195, 195, 120, 2, 0.610941
106, 6, wb, filler, NA, 999, 999, 6, 34, 169, 129, 67, 188, 160, 82, 2, 1.9761
106, 6, wb, filler, NA, 999, 999, 6, 34, 169, 129, 67, 188, 160, 82, 1, 0.423276
106, 6, wb, attraction, a-b-db, 2, 1, 6, 35, 60, 135, 59, 134, 135, 60, 1, 2.37993
106, 6, wb, attraction, a-b-db, 2, 1, 6, 35, 60, 135, 59, 134, 135, 60, 3, 0.851155
106, 6, wb, attraction, a-b-da, 9, 2, 6, 36, 165, 90, 90, 165, 157, 86, 3, 1.39089
106, 6, wb, attraction, a-b-da, 9, 2, 6, 36, 165, 90, 90, 165, 157, 86, 2, 0.493645
106, 6, wb, attraction, a-b-db, 9, 3, 6, 37, 195, 120, 114, 186, 120, 195, 1, 2.31142
106, 6, wb, attraction, a-b-db, 9, 3, 6, 37, 195, 120, 114, 186, 120, 195, 3, 0.95329
106, 6, wb, attraction, a-b-db, 2, 3, 7, 1, 195, 120, 120, 195, 119, 193, 1, 1.85697
106, 6, wb, attraction, a-b-db, 2, 3, 7, 1, 195, 120, 120, 195, 119, 193, 3, 0.861056
106, 6, wb, attraction, a-b-da, 9, 3, 7, 2, 120, 195, 186, 114, 195, 120, 2, 1.83192
106, 6, wb, attraction, a-b-da, 9, 3, 7, 2, 120, 195, 186, 114, 195, 120, 1, 0.413411
106, 6, wb, attraction, a-b-db, 9, 3, 7, 3, 195, 120, 120, 195, 114, 186, 1, 3.76265
106, 6, wb, attraction, a-b-db, 9, 3, 7, 3, 195, 120, 120, 195, 114, 186, 2, 0.810045
106, 6, wb, filler, NA, 999, 999, 7, 4, 156, 193, 145, 143, 94, 64, 3, 0.830994
106, 6, wb, filler, NA, 999, 999, 7, 4, 156, 193, 145, 143, 94, 64, 1, 0.492781
106, 6, wb, filler, NA, 999, 999, 7, 5, 137, 118, 194, 123, 190, 103, 1, 0.870513
106, 6, wb, filler, NA, 999, 999, 7, 5, 137, 118, 194, 123, 190, 103, 2, 0.4902
106, 6, wb, attraction, a-b-db, 5, 1, 7, 6, 60, 135, 135, 60, 58, 132, 3, 1.53213
106, 6, wb, attraction, a-b-db, 5, 1, 7, 6, 60, 135, 135, 60, 58, 132, 2, 0.629499
106, 6, wb, attraction, a-b-db, 14, 3, 7, 7, 111, 181, 195, 120, 120, 195, 1, 1.07403
106, 6, wb, attraction, a-b-db, 14, 3, 7, 7, 111, 181, 195, 120, 120, 195, 3, 0.525585
106, 6, wb, attraction, a-b-db, 5, 2, 7, 8, 88, 161, 165, 90, 90, 165, 3, 1.72606
106, 6, wb, attraction, a-b-db, 5, 2, 7, 8, 88, 161, 165, 90, 90, 165, 2, 0.615681
106, 6, wb, attraction, a-b-da, 14, 3, 7, 9, 120, 195, 195, 120, 181, 111, 3, 1.54854
106, 6, wb, attraction, a-b-da, 14, 3, 7, 9, 120, 195, 195, 120, 181, 111, 1, 0.86933
106, 6, wb, attraction, a-b-da, 2, 1, 7, 10, 135, 60, 60, 135, 134, 59, 2, 0.904426
106, 6, wb, attraction, a-b-da, 2, 1, 7, 10, 135, 60, 60, 135, 134, 59, 1, 0.682783
106, 6, wb, attraction, a-b-da, 9, 1, 7, 11, 129, 57, 60, 135, 135, 60, 1, 2.23712
106, 6, wb, attraction, a-b-da, 9, 1, 7, 11, 129, 57, 60, 135, 135, 60, 2, 0.857673
106, 6, wb, attraction, a-b-da, 2, 3, 7, 12, 195, 120, 193, 119, 120, 195, 1, 2.89274
106, 6, wb, attraction, a-b-da, 2, 3, 7, 12, 195, 120, 193, 119, 120, 195, 3, 0.479071
106, 6, wb, filler, NA, 999, 999, 7, 13, 152, 116, 116, 125, 160, 108, 2, 0.897687
106, 6, wb, filler, NA, 999, 999, 7, 13, 152, 116, 116, 125, 160, 108, 1, 0.532608
106, 6, wb, filler, NA, 999, 999, 7, 14, 153, 186, 61, 115, 153, 75, 2, 1.09321
106, 6, wb, filler, NA, 999, 999, 7, 14, 153, 186, 61, 115, 153, 75, 1, 0.431985
106, 6, wb, catch, NA, 999, 999, 7, 15, 191, 124, 161, 94, 70, 125, 3, 0.852497
106, 6, wb, catch, NA, 999, 999, 7, 15, 191, 124, 161, 94, 70, 125, 1, 0.657578
106, 6, wb, attraction, a-b-da, 5, 2, 7, 16, 90, 165, 165, 90, 161, 88, 1, 1.15658
106, 6, wb, attraction, a-b-da, 5, 2, 7, 16, 90, 165, 165, 90, 161, 88, 3, 0.628904
106, 6, wb, filler, NA, 999, 999, 7, 17, 148, 88, 73, 96, 144, 97, 2, 1.01728
106, 6, wb, filler, NA, 999, 999, 7, 17, 148, 88, 73, 96, 144, 97, 3, 0.527632
106, 6, wb, filler, NA, 999, 999, 7, 18, 150, 92, 194, 109, 188, 138, 1, 0.672096
106, 6, wb, filler, NA, 999, 999, 7, 18, 150, 92, 194, 109, 188, 138, 3, 0.491824
106, 6, wb, attraction, a-b-db, 14, 2, 7, 19, 83, 153, 90, 165, 165, 90, 3, 1.94959
106, 6, wb, attraction, a-b-db, 14, 2, 7, 19, 83, 153, 90, 165, 165, 90, 2, 0.518396
106, 6, wb, attraction, a-b-da, 5, 3, 7, 20, 190, 117, 120, 195, 195, 120, 1, 1.40749
106, 6, wb, attraction, a-b-da, 5, 3, 7, 20, 190, 117, 120, 195, 195, 120, 2, 0.477668
106, 6, wb, filler, NA, 999, 999, 7, 21, 140, 151, 189, 162, 148, 93, 3, 1.56813
106, 6, wb, filler, NA, 999, 999, 7, 21, 140, 151, 189, 162, 148, 93, 2, 0.512267
106, 6, wb, catch, NA, 999, 999, 7, 22, 144, 171, 162, 93, 99, 96, 3, 0.73741
106, 6, wb, catch, NA, 999, 999, 7, 22, 144, 171, 162, 93, 99, 96, 1, 0.514494
106, 6, wb, catch, NA, 999, 999, 7, 23, 130, 65, 158, 157, 154, 101, 1, 0.955534
106, 6, wb, catch, NA, 999, 999, 7, 23, 130, 65, 158, 157, 154, 101, 2, 0.659823
106, 6, wb, attraction, a-b-da, 14, 2, 7, 24, 90, 165, 165, 90, 153, 83, 3, 1.63089
106, 6, wb, attraction, a-b-da, 14, 2, 7, 24, 90, 165, 165, 90, 153, 83, 1, 0.83636
106, 6, wb, attraction, a-b-da, 14, 1, 7, 25, 60, 135, 125, 56, 135, 60, 2, 1.15268
106, 6, wb, attraction, a-b-da, 14, 1, 7, 25, 60, 135, 125, 56, 135, 60, 1, 0.537649
106, 6, wb, attraction, a-b-db, 9, 1, 7, 26, 60, 135, 57, 129, 135, 60, 3, 1.66611
106, 6, wb, attraction, a-b-db, 9, 1, 7, 26, 60, 135, 57, 129, 135, 60, 1, 0.670256
106, 6, wb, filler, NA, 999, 999, 7, 27, 189, 86, 80, 65, 109, 119, 2, 0.55343
106, 6, wb, filler, NA, 999, 999, 7, 27, 189, 86, 80, 65, 109, 119, 3, 0.713798
106, 6, wb, filler, NA, 999, 999, 7, 28, 168, 77, 175, 81, 138, 123, 1, 1.53084
106, 6, wb, filler, NA, 999, 999, 7, 28, 168, 77, 175, 81, 138, 123, 3, 0.468332
106, 6, wb, attraction, a-b-db, 5, 3, 7, 29, 117, 190, 195, 120, 120, 195, 1, 1.5434
106, 6, wb, attraction, a-b-db, 5, 3, 7, 29, 117, 190, 195, 120, 120, 195, 2, 0.488345
106, 6, wb, attraction, a-b-da, 5, 1, 7, 30, 132, 58, 135, 60, 60, 135, 1, 1.69069
106, 6, wb, attraction, a-b-da, 5, 1, 7, 30, 132, 58, 135, 60, 60, 135, 3, 0.565538
106, 6, wb, attraction, a-b-db, 14, 1, 7, 31, 135, 60, 56, 125, 60, 135, 2, 1.56463
106, 6, wb, attraction, a-b-db, 14, 1, 7, 31, 135, 60, 56, 125, 60, 135, 3, 0.604845
106, 6, wb, filler, NA, 999, 999, 7, 32, 66, 191, 130, 163, 103, 119, 3, 2.53849
106, 6, wb, filler, NA, 999, 999, 7, 32, 66, 191, 130, 163, 103, 119, 2, 0.723074
106, 6, wb, attraction, a-b-da, 2, 2, 7, 33, 90, 165, 163, 89, 165, 90, 3, 1.34749
106, 6, wb, attraction, a-b-da, 2, 2, 7, 33, 90, 165, 163, 89, 165, 90, 1, 0.548326
106, 6, wb, attraction, a-b-da, 9, 2, 7, 34, 157, 86, 165, 90, 90, 165, 1, 1.50005
106, 6, wb, attraction, a-b-da, 9, 2, 7, 34, 157, 86, 165, 90, 90, 165, 2, 1.18296
106, 6, wb, attraction, a-b-db, 2, 1, 7, 35, 60, 135, 59, 134, 135, 60, 2, 4.97311
106, 6, wb, attraction, a-b-db, 2, 1, 7, 35, 60, 135, 59, 134, 135, 60, 1, 0.57962
106, 6, wb, attraction, a-b-db, 2, 2, 7, 36, 89, 163, 90, 165, 165, 90, 3, 1.39392
106, 6, wb, attraction, a-b-db, 2, 2, 7, 36, 89, 163, 90, 165, 165, 90, 2, 0.680811
106, 6, wb, attraction, a-b-db, 9, 2, 7, 37, 165, 90, 86, 157, 90, 165, 1, 2.71531
106, 6, wb, attraction, a-b-db, 9, 2, 7, 37, 165, 90, 86, 157, 90, 165, 3, 0.757125
106, 6, wb, filler, NA, 999, 999, 8, 1, 142, 106, 119, 107, 164, 166, 2, 1.55607
106, 6, wb, filler, NA, 999, 999, 8, 1, 142, 106, 119, 107, 164, 166, 3, 0.452181
106, 6, wb, attraction, a-b-da, 9, 2, 8, 2, 165, 90, 90, 165, 157, 86, 3, 2.88817
106, 6, wb, attraction, a-b-da, 9, 2, 8, 2, 165, 90, 90, 165, 157, 86, 1, 0.826413
106, 6, wb, filler, NA, 999, 999, 8, 3, 128, 108, 124, 190, 139, 92, 1, 1.47084
106, 6, wb, filler, NA, 999, 999, 8, 3, 128, 108, 124, 190, 139, 92, 2, 0.514253
106, 6, wb, attraction, a-b-da, 14, 1, 8, 4, 60, 135, 135, 60, 125, 56, 3, 1.60353
106, 6, wb, attraction, a-b-da, 14, 1, 8, 4, 60, 135, 135, 60, 125, 56, 1, 0.650274
106, 6, wb, attraction, a-b-db, 14, 1, 8, 5, 56, 125, 60, 135, 135, 60, 1, 0.909887
106, 6, wb, attraction, a-b-db, 14, 1, 8, 5, 56, 125, 60, 135, 135, 60, 2, 0.536331
106, 6, wb, attraction, a-b-db, 2, 3, 8, 6, 119, 193, 195, 120, 120, 195, 1, 1.51273
106, 6, wb, attraction, a-b-db, 2, 3, 8, 6, 119, 193, 195, 120, 120, 195, 2, 0.419021
106, 6, wb, filler, NA, 999, 999, 8, 7, 124, 179, 73, 72, 135, 81, 2, 1.12795
106, 6, wb, filler, NA, 999, 999, 8, 7, 124, 179, 73, 72, 135, 81, 1, 0.481671
106, 6, wb, attraction, a-b-da, 5, 2, 8, 8, 90, 165, 161, 88, 165, 90, 1, 1.5482
106, 6, wb, attraction, a-b-da, 5, 2, 8, 8, 90, 165, 161, 88, 165, 90, 2, 0.580992
106, 6, wb, attraction, a-b-da, 9, 3, 8, 9, 186, 114, 120, 195, 195, 120, 3, 1.33939
106, 6, wb, attraction, a-b-da, 9, 3, 8, 9, 186, 114, 120, 195, 195, 120, 2, 0.588368
106, 6, wb, filler, NA, 999, 999, 8, 10, 113, 98, 62, 61, 56, 104, 2, 1.0667
106, 6, wb, filler, NA, 999, 999, 8, 10, 113, 98, 62, 61, 56, 104, 1, 0.471014
106, 6, wb, attraction, a-b-db, 9, 2, 8, 11, 165, 90, 86, 157, 90, 165, 3, 1.3141
106, 6, wb, attraction, a-b-db, 9, 2, 8, 11, 165, 90, 86, 157, 90, 165, 2, 0.780365
106, 6, wb, attraction, a-b-da, 9, 1, 8, 12, 135, 60, 129, 57, 60, 135, 1, 3.09084
106, 6, wb, attraction, a-b-da, 9, 1, 8, 12, 135, 60, 129, 57, 60, 135, 3, 0.597044
106, 6, wb, attraction, a-b-db, 9, 1, 8, 13, 57, 129, 60, 135, 135, 60, 3, 2.28284
106, 6, wb, attraction, a-b-db, 9, 1, 8, 13, 57, 129, 60, 135, 135, 60, 2, 0.726081
106, 6, wb, attraction, a-b-db, 14, 2, 8, 14, 165, 90, 90, 165, 83, 153, 3, 1.8785
106, 6, wb, attraction, a-b-db, 14, 2, 8, 14, 165, 90, 90, 165, 83, 153, 2, 0.457849
106, 6, wb, attraction, a-b-da, 14, 2, 8, 15, 90, 165, 165, 90, 153, 83, 3, 3.4211
106, 6, wb, attraction, a-b-da, 14, 2, 8, 15, 90, 165, 165, 90, 153, 83, 2, 0.490541
106, 6, wb, attraction, a-b-db, 5, 2, 8, 16, 88, 161, 90, 165, 165, 90, 1, 1.57229
106, 6, wb, attraction, a-b-db, 5, 2, 8, 16, 88, 161, 90, 165, 165, 90, 2, 0.635775
106, 6, wb, attraction, a-b-da, 2, 3, 8, 17, 193, 119, 120, 195, 195, 120, 3, 3.25631
106, 6, wb, attraction, a-b-da, 2, 3, 8, 17, 193, 119, 120, 195, 195, 120, 2, 0.699996
106, 6, wb, attraction, a-b-da, 2, 1, 8, 18, 60, 135, 134, 59, 135, 60, 2, 3.46165
106, 6, wb, attraction, a-b-da, 2, 1, 8, 18, 60, 135, 134, 59, 135, 60, 1, 0.601272
106, 6, wb, catch, NA, 999, 999, 8, 19, 176, 139, 145, 110, 78, 117, 3, 0.974944
106, 6, wb, catch, NA, 999, 999, 8, 19, 176, 139, 145, 110, 78, 117, 1, 0.598559
106, 6, wb, attraction, a-b-da, 5, 1, 8, 20, 132, 58, 135, 60, 60, 135, 3, 1.44439
106, 6, wb, attraction, a-b-da, 5, 1, 8, 20, 132, 58, 135, 60, 60, 135, 2, 0.617194
106, 6, wb, filler, NA, 999, 999, 8, 21, 99, 154, 85, 187, 121, 84, 3, 0.878258
106, 6, wb, filler, NA, 999, 999, 8, 21, 99, 154, 85, 187, 121, 84, 2, 1.08198
106, 6, wb, filler, NA, 999, 999, 8, 22, 132, 66, 105, 119, 187, 134, 2, 1.65222
106, 6, wb, filler, NA, 999, 999, 8, 22, 132, 66, 105, 119, 187, 134, 3, 0.881061
106, 6, wb, filler, NA, 999, 999, 8, 23, 81, 133, 58, 97, 189, 69, 2, 1.58738
106, 6, wb, filler, NA, 999, 999, 8, 23, 81, 133, 58, 97, 189, 69, 3, 1.02692
106, 6, wb, attraction, a-b-da, 14, 3, 8, 24, 120, 195, 195, 120, 181, 111, 3, 1.2391
106, 6, wb, attraction, a-b-da, 14, 3, 8, 24, 120, 195, 195, 120, 181, 111, 1, 1.26804
106, 6, wb, catch, NA, 999, 999, 8, 25, 118, 137, 81, 114, 162, 153, 2, 1.90292
106, 6, wb, catch, NA, 999, 999, 8, 25, 118, 137, 81, 114, 162, 153, 3, 0.545739
106, 6, wb, catch, NA, 999, 999, 8, 26, 194, 121, 158, 97, 120, 75, 3, 0.86545
106, 6, wb, catch, NA, 999, 999, 8, 26, 194, 121, 158, 97, 120, 75, 1, 0.461768
106, 6, wb, attraction, a-b-db, 2, 1, 8, 27, 59, 134, 60, 135, 135, 60, 1, 1.44883
106, 6, wb, attraction, a-b-db, 2, 1, 8, 27, 59, 134, 60, 135, 135, 60, 2, 0.717711
106, 6, wb, filler, NA, 999, 999, 8, 28, 75, 121, 160, 130, 157, 177, 1, 0.838701
106, 6, wb, filler, NA, 999, 999, 8, 28, 75, 121, 160, 130, 157, 177, 3, 0.539933
106, 6, wb, attraction, a-b-da, 5, 3, 8, 29, 190, 117, 120, 195, 195, 120, 3, 1.15562
106, 6, wb, attraction, a-b-da, 5, 3, 8, 29, 190, 117, 120, 195, 195, 120, 2, 0.459825
106, 6, wb, filler, NA, 999, 999, 8, 30, 154, 156, 159, 109, 193, 64, 3, 2.11897
106, 6, wb, filler, NA, 999, 999, 8, 30, 154, 156, 159, 109, 193, 64, 1, 0.576974
106, 6, wb, attraction, a-b-db, 5, 3, 8, 31, 195, 120, 117, 190, 120, 195, 1, 1.37532
106, 6, wb, attraction, a-b-db, 5, 3, 8, 31, 195, 120, 117, 190, 120, 195, 2, 0.822993
106, 6, wb, attraction, a-b-db, 2, 2, 8, 32, 165, 90, 89, 163, 90, 165, 1, 1.35534
106, 6, wb, attraction, a-b-db, 2, 2, 8, 32, 165, 90, 89, 163, 90, 165, 2, 0.459527
106, 6, wb, attraction, a-b-db, 9, 3, 8, 33, 120, 195, 195, 120, 114, 186, 3, 1.19064
106, 6, wb, attraction, a-b-db, 9, 3, 8, 33, 120, 195, 195, 120, 114, 186, 1, 0.973617
106, 6, wb, attraction, a-b-db, 14, 3, 8, 34, 195, 120, 120, 195, 111, 181, 3, 2.09199
106, 6, wb, attraction, a-b-db, 14, 3, 8, 34, 195, 120, 120, 195, 111, 181, 2, 0.5025
106, 6, wb, attraction, a-b-da, 2, 2, 8, 35, 90, 165, 165, 90, 163, 89, 3, 1.45631
106, 6, wb, attraction, a-b-da, 2, 2, 8, 35, 90, 165, 165, 90, 163, 89, 2, 0.77246
106, 6, wb, attraction, a-b-db, 5, 1, 8, 36, 58, 132, 60, 135, 135, 60, 1, 1.24364
106, 6, wb, attraction, a-b-db, 5, 1, 8, 36, 58, 132, 60, 135, 135, 60, 2, 0.440597
106, 6, wb, filler, NA, 999, 999, 8, 37, 86, 177, 154, 185, 100, 141, 3, 1.42028
106, 6, wb, filler, NA, 999, 999, 8, 37, 86, 177, 154, 185, 100, 141, 2, 0.602478
