sub_n, computer_n, bw_cond, effect, set, distance, diag, block_n, trial_n, h1, w1, h2, w2, h3, w3, choice, rt 
197, 6, bw, practice, NA, 999, 999, 0, 1, 162, 81, 99, 145, 78, 89, 2, 1.74377
197, 6, bw, practice, NA, 999, 999, 0, 1, 162, 81, 99, 145, 78, 89, 1, 6.63127
197, 6, bw, practice, NA, 999, 999, 0, 2, 109, 190, 93, 134, 113, 138, 1, 3.75526
197, 6, bw, practice, NA, 999, 999, 0, 2, 109, 190, 93, 134, 113, 138, 3, 10.7416
197, 6, bw, practice, NA, 999, 999, 0, 3, 84, 83, 107, 136, 139, 107, 2, 5.3437
197, 6, bw, practice, NA, 999, 999, 0, 3, 84, 83, 107, 136, 139, 107, 3, 2.56833
197, 6, bw, filler, NA, 999, 999, 1, 1, 78, 89, 105, 106, 190, 135, 3, 1.1093
197, 6, bw, filler, NA, 999, 999, 1, 1, 78, 89, 105, 106, 190, 135, 2, 2.3594
197, 6, bw, attraction, a-b-da, 9, 1, 1, 2, 129, 57, 60, 135, 135, 60, 2, 2.19788
197, 6, bw, attraction, a-b-da, 9, 1, 1, 2, 129, 57, 60, 135, 135, 60, 3, 1.03652
197, 6, bw, attraction, a-b-da, 5, 3, 1, 3, 195, 120, 190, 117, 120, 195, 3, 2.62493
197, 6, bw, attraction, a-b-da, 5, 3, 1, 3, 195, 120, 190, 117, 120, 195, 2, 0.998007
197, 6, bw, attraction, a-b-da, 5, 1, 1, 4, 135, 60, 60, 135, 132, 58, 2, 1.19554
197, 6, bw, attraction, a-b-da, 5, 1, 1, 4, 135, 60, 60, 135, 132, 58, 3, 0.642535
197, 6, bw, attraction, a-b-db, 5, 2, 1, 5, 90, 165, 165, 90, 88, 161, 3, 1.91832
197, 6, bw, attraction, a-b-db, 5, 2, 1, 5, 90, 165, 165, 90, 88, 161, 2, 0.81654
197, 6, bw, attraction, a-b-db, 5, 3, 1, 6, 120, 195, 195, 120, 117, 190, 3, 1.79738
197, 6, bw, attraction, a-b-db, 5, 3, 1, 6, 120, 195, 195, 120, 117, 190, 2, 0.780297
197, 6, bw, attraction, a-b-db, 2, 1, 1, 7, 60, 135, 135, 60, 59, 134, 1, 1.51446
197, 6, bw, attraction, a-b-db, 2, 1, 1, 7, 60, 135, 135, 60, 59, 134, 3, 0.836671
197, 6, bw, attraction, a-b-da, 2, 2, 1, 8, 163, 89, 90, 165, 165, 90, 2, 0.881099
197, 6, bw, attraction, a-b-da, 2, 2, 1, 8, 163, 89, 90, 165, 165, 90, 3, 1.09268
197, 6, bw, filler, NA, 999, 999, 1, 9, 145, 87, 65, 173, 184, 141, 3, 0.862263
197, 6, bw, filler, NA, 999, 999, 1, 9, 145, 87, 65, 173, 184, 141, 2, 0.498599
197, 6, bw, filler, NA, 999, 999, 1, 10, 116, 189, 160, 141, 125, 164, 2, 0.828418
197, 6, bw, filler, NA, 999, 999, 1, 10, 116, 189, 160, 141, 125, 164, 3, 0.450091
197, 6, bw, attraction, a-b-db, 14, 1, 1, 11, 135, 60, 60, 135, 56, 125, 2, 1.20595
197, 6, bw, attraction, a-b-db, 14, 1, 1, 11, 135, 60, 60, 135, 56, 125, 1, 0.724243
197, 6, bw, attraction, a-b-da, 9, 3, 1, 12, 195, 120, 186, 114, 120, 195, 3, 1.41261
197, 6, bw, attraction, a-b-da, 9, 3, 1, 12, 195, 120, 186, 114, 120, 195, 2, 0.562896
197, 6, bw, filler, NA, 999, 999, 1, 13, 164, 170, 130, 114, 112, 67, 1, 0.777914
197, 6, bw, filler, NA, 999, 999, 1, 13, 164, 170, 130, 114, 112, 67, 2, 0.713643
197, 6, bw, filler, NA, 999, 999, 1, 14, 90, 163, 182, 151, 72, 107, 2, 1.0107
197, 6, bw, filler, NA, 999, 999, 1, 14, 90, 163, 182, 151, 72, 107, 3, 0.361088
197, 6, bw, attraction, a-b-da, 14, 2, 1, 15, 90, 165, 165, 90, 153, 83, 1, 2.16012
197, 6, bw, attraction, a-b-da, 14, 2, 1, 15, 90, 165, 165, 90, 153, 83, 3, 1.00013
197, 6, bw, attraction, a-b-da, 2, 3, 1, 16, 193, 119, 120, 195, 195, 120, 2, 1.03767
197, 6, bw, attraction, a-b-da, 2, 3, 1, 16, 193, 119, 120, 195, 195, 120, 3, 0.562724
197, 6, bw, catch, NA, 999, 999, 1, 17, 124, 191, 163, 92, 117, 78, 1, 1.03382
197, 6, bw, catch, NA, 999, 999, 1, 17, 124, 191, 163, 92, 117, 78, 3, 0.895499
197, 6, bw, attraction, a-b-da, 5, 2, 1, 18, 165, 90, 161, 88, 90, 165, 3, 0.817173
197, 6, bw, attraction, a-b-da, 5, 2, 1, 18, 165, 90, 161, 88, 90, 165, 1, 1.03954
197, 6, bw, attraction, a-b-da, 14, 3, 1, 19, 195, 120, 181, 111, 120, 195, 3, 0.79522
197, 6, bw, attraction, a-b-da, 14, 3, 1, 19, 195, 120, 181, 111, 120, 195, 2, 0.49818
197, 6, bw, attraction, a-b-db, 9, 3, 1, 20, 120, 195, 195, 120, 114, 186, 2, 0.787982
197, 6, bw, attraction, a-b-db, 9, 3, 1, 20, 120, 195, 195, 120, 114, 186, 3, 0.363071
197, 6, bw, filler, NA, 999, 999, 1, 21, 86, 128, 72, 154, 121, 142, 3, 0.69829
197, 6, bw, filler, NA, 999, 999, 1, 21, 86, 128, 72, 154, 121, 142, 1, 0.725386
197, 6, bw, attraction, a-b-db, 9, 1, 1, 22, 60, 135, 57, 129, 135, 60, 1, 0.781668
197, 6, bw, attraction, a-b-db, 9, 1, 1, 22, 60, 135, 57, 129, 135, 60, 3, 0.573357
197, 6, bw, filler, NA, 999, 999, 1, 23, 153, 175, 146, 154, 112, 57, 1, 0.891918
197, 6, bw, filler, NA, 999, 999, 1, 23, 153, 175, 146, 154, 112, 57, 3, 0.630887
197, 6, bw, attraction, a-b-db, 9, 2, 1, 24, 86, 157, 90, 165, 165, 90, 3, 1.49922
197, 6, bw, attraction, a-b-db, 9, 2, 1, 24, 86, 157, 90, 165, 165, 90, 1, 1.83011
197, 6, bw, attraction, a-b-da, 9, 2, 1, 25, 90, 165, 165, 90, 157, 86, 2, 1.11414
197, 6, bw, attraction, a-b-da, 9, 2, 1, 25, 90, 165, 165, 90, 157, 86, 3, 0.324387
197, 6, bw, attraction, a-b-da, 2, 1, 1, 26, 135, 60, 60, 135, 134, 59, 2, 0.844856
197, 6, bw, attraction, a-b-da, 2, 1, 1, 26, 135, 60, 60, 135, 134, 59, 3, 0.57798
197, 6, bw, filler, NA, 999, 999, 1, 27, 193, 70, 85, 115, 116, 86, 2, 1.18434
197, 6, bw, filler, NA, 999, 999, 1, 27, 193, 70, 85, 115, 116, 86, 1, 0.456055
197, 6, bw, filler, NA, 999, 999, 1, 28, 150, 75, 70, 84, 178, 69, 1, 1.53995
197, 6, bw, filler, NA, 999, 999, 1, 28, 150, 75, 70, 84, 178, 69, 3, 2.32463
197, 6, bw, catch, NA, 999, 999, 1, 29, 193, 122, 162, 93, 132, 63, 1, 0.604503
197, 6, bw, catch, NA, 999, 999, 1, 29, 193, 122, 162, 93, 132, 63, 3, 0.554967
197, 6, bw, attraction, a-b-db, 2, 3, 1, 30, 119, 193, 120, 195, 195, 120, 2, 1.00268
197, 6, bw, attraction, a-b-db, 2, 3, 1, 30, 119, 193, 120, 195, 195, 120, 3, 0.529731
197, 6, bw, attraction, a-b-db, 2, 2, 1, 31, 89, 163, 90, 165, 165, 90, 2, 0.786142
197, 6, bw, attraction, a-b-db, 2, 2, 1, 31, 89, 163, 90, 165, 165, 90, 3, 0.506006
197, 6, bw, attraction, a-b-db, 5, 1, 1, 32, 135, 60, 60, 135, 58, 132, 2, 0.675006
197, 6, bw, attraction, a-b-db, 5, 1, 1, 32, 135, 60, 60, 135, 58, 132, 1, 0.742774
197, 6, bw, attraction, a-b-db, 14, 2, 1, 33, 165, 90, 90, 165, 83, 153, 2, 0.718546
197, 6, bw, attraction, a-b-db, 14, 2, 1, 33, 165, 90, 90, 165, 83, 153, 1, 0.3849
197, 6, bw, attraction, a-b-da, 14, 1, 1, 34, 60, 135, 135, 60, 125, 56, 2, 0.607425
197, 6, bw, attraction, a-b-da, 14, 1, 1, 34, 60, 135, 135, 60, 125, 56, 3, 0.69399
197, 6, bw, attraction, a-b-db, 14, 3, 1, 35, 111, 181, 120, 195, 195, 120, 2, 0.47957
197, 6, bw, attraction, a-b-db, 14, 3, 1, 35, 111, 181, 120, 195, 195, 120, 1, 1.25132
197, 6, bw, catch, NA, 999, 999, 1, 36, 103, 92, 162, 93, 164, 151, 3, 0.614943
197, 6, bw, catch, NA, 999, 999, 1, 36, 103, 92, 162, 93, 164, 151, 2, 0.389509
197, 6, bw, filler, NA, 999, 999, 1, 37, 87, 180, 113, 109, 88, 163, 1, 0.65925
197, 6, bw, filler, NA, 999, 999, 1, 37, 87, 180, 113, 109, 88, 163, 2, 1.35164
197, 6, bw, attraction, a-b-db, 5, 1, 2, 1, 135, 60, 58, 132, 60, 135, 2, 0.799272
197, 6, bw, attraction, a-b-db, 5, 1, 2, 1, 135, 60, 58, 132, 60, 135, 1, 0.51026
197, 6, bw, filler, NA, 999, 999, 2, 2, 87, 188, 61, 169, 145, 120, 3, 1.0153
197, 6, bw, filler, NA, 999, 999, 2, 2, 87, 188, 61, 169, 145, 120, 2, 0.389765
197, 6, bw, attraction, a-b-da, 14, 3, 2, 3, 181, 111, 120, 195, 195, 120, 2, 0.587537
197, 6, bw, attraction, a-b-da, 14, 3, 2, 3, 181, 111, 120, 195, 195, 120, 1, 0.530592
197, 6, bw, attraction, a-b-db, 14, 2, 2, 4, 165, 90, 83, 153, 90, 165, 2, 0.571048
197, 6, bw, attraction, a-b-db, 14, 2, 2, 4, 165, 90, 83, 153, 90, 165, 1, 0.482754
197, 6, bw, filler, NA, 999, 999, 2, 5, 143, 187, 78, 178, 83, 157, 1, 0.637293
197, 6, bw, filler, NA, 999, 999, 2, 5, 143, 187, 78, 178, 83, 157, 3, 0.874337
197, 6, bw, filler, NA, 999, 999, 2, 6, 155, 154, 86, 61, 129, 59, 1, 0.468694
197, 6, bw, filler, NA, 999, 999, 2, 6, 155, 154, 86, 61, 129, 59, 2, 0.489197
197, 6, bw, attraction, a-b-da, 5, 3, 2, 7, 190, 117, 195, 120, 120, 195, 2, 0.675803
197, 6, bw, attraction, a-b-da, 5, 3, 2, 7, 190, 117, 195, 120, 120, 195, 1, 0.279572
197, 6, bw, catch, NA, 999, 999, 2, 8, 138, 117, 167, 148, 84, 111, 2, 0.505934
197, 6, bw, catch, NA, 999, 999, 2, 8, 138, 117, 167, 148, 84, 111, 3, 0.516443
197, 6, bw, attraction, a-b-db, 2, 3, 2, 9, 119, 193, 120, 195, 195, 120, 2, 0.54956
197, 6, bw, attraction, a-b-db, 2, 3, 2, 9, 119, 193, 120, 195, 195, 120, 1, 0.310727
197, 6, bw, attraction, a-b-db, 9, 3, 2, 10, 195, 120, 120, 195, 114, 186, 2, 0.471884
197, 6, bw, attraction, a-b-db, 9, 3, 2, 10, 195, 120, 120, 195, 114, 186, 1, 1.86772
197, 6, bw, attraction, a-b-db, 14, 1, 2, 11, 135, 60, 56, 125, 60, 135, 2, 0.790311
197, 6, bw, attraction, a-b-db, 14, 1, 2, 11, 135, 60, 56, 125, 60, 135, 1, 0.613446
197, 6, bw, attraction, a-b-da, 9, 2, 2, 12, 165, 90, 157, 86, 90, 165, 2, 0.602471
197, 6, bw, attraction, a-b-da, 9, 2, 2, 12, 165, 90, 157, 86, 90, 165, 3, 0.553718
197, 6, bw, attraction, a-b-da, 2, 3, 2, 13, 193, 119, 120, 195, 195, 120, 2, 0.505368
197, 6, bw, attraction, a-b-da, 2, 3, 2, 13, 193, 119, 120, 195, 195, 120, 3, 0.331835
197, 6, bw, filler, NA, 999, 999, 2, 14, 163, 108, 62, 93, 113, 191, 3, 0.636399
197, 6, bw, filler, NA, 999, 999, 2, 14, 163, 108, 62, 93, 113, 191, 2, 0.370146
197, 6, bw, attraction, a-b-db, 9, 1, 2, 15, 60, 135, 135, 60, 57, 129, 2, 1.73728
197, 6, bw, attraction, a-b-db, 9, 1, 2, 15, 60, 135, 135, 60, 57, 129, 3, 0.450747
197, 6, bw, attraction, a-b-db, 2, 2, 2, 16, 165, 90, 89, 163, 90, 165, 2, 0.95855
197, 6, bw, attraction, a-b-db, 2, 2, 2, 16, 165, 90, 89, 163, 90, 165, 1, 0.438858
197, 6, bw, filler, NA, 999, 999, 2, 17, 190, 66, 64, 131, 173, 168, 3, 0.555464
197, 6, bw, filler, NA, 999, 999, 2, 17, 190, 66, 64, 131, 173, 168, 2, 0.32381
197, 6, bw, attraction, a-b-db, 14, 3, 2, 18, 111, 181, 195, 120, 120, 195, 3, 0.516293
197, 6, bw, attraction, a-b-db, 14, 3, 2, 18, 111, 181, 195, 120, 120, 195, 1, 0.366843
197, 6, bw, catch, NA, 999, 999, 2, 19, 90, 105, 159, 96, 148, 167, 3, 0.662021
197, 6, bw, catch, NA, 999, 999, 2, 19, 90, 105, 159, 96, 148, 167, 1, 0.378434
197, 6, bw, attraction, a-b-db, 9, 2, 2, 20, 90, 165, 86, 157, 165, 90, 2, 0.704918
197, 6, bw, attraction, a-b-db, 9, 2, 2, 20, 90, 165, 86, 157, 165, 90, 3, 0.651345
197, 6, bw, filler, NA, 999, 999, 2, 21, 166, 174, 61, 103, 147, 156, 3, 0.583014
197, 6, bw, filler, NA, 999, 999, 2, 21, 166, 174, 61, 103, 147, 156, 2, 0.982846
197, 6, bw, filler, NA, 999, 999, 2, 22, 131, 142, 191, 183, 66, 149, 2, 0.501111
197, 6, bw, filler, NA, 999, 999, 2, 22, 131, 142, 191, 183, 66, 149, 3, 0.400278
197, 6, bw, attraction, a-b-da, 14, 1, 2, 23, 125, 56, 60, 135, 135, 60, 2, 0.614061
197, 6, bw, attraction, a-b-da, 14, 1, 2, 23, 125, 56, 60, 135, 135, 60, 3, 0.716749
197, 6, bw, attraction, a-b-da, 14, 2, 2, 24, 153, 83, 90, 165, 165, 90, 2, 0.797635
197, 6, bw, attraction, a-b-da, 14, 2, 2, 24, 153, 83, 90, 165, 165, 90, 1, 1.01268
197, 6, bw, attraction, a-b-da, 9, 3, 2, 25, 120, 195, 195, 120, 186, 114, 2, 0.633734
197, 6, bw, attraction, a-b-da, 9, 3, 2, 25, 120, 195, 195, 120, 186, 114, 3, 0.415472
197, 6, bw, filler, NA, 999, 999, 2, 26, 184, 166, 71, 90, 159, 63, 1, 0.708509
197, 6, bw, filler, NA, 999, 999, 2, 26, 184, 166, 71, 90, 159, 63, 2, 0.534957
197, 6, bw, attraction, a-b-da, 2, 1, 2, 27, 60, 135, 134, 59, 135, 60, 2, 0.567433
197, 6, bw, attraction, a-b-da, 2, 1, 2, 27, 60, 135, 134, 59, 135, 60, 3, 0.519886
197, 6, bw, filler, NA, 999, 999, 2, 28, 192, 71, 75, 130, 77, 154, 2, 0.537002
197, 6, bw, filler, NA, 999, 999, 2, 28, 192, 71, 75, 130, 77, 154, 1, 0.514822
197, 6, bw, attraction, a-b-db, 5, 2, 2, 29, 165, 90, 88, 161, 90, 165, 2, 0.571976
197, 6, bw, attraction, a-b-db, 5, 2, 2, 29, 165, 90, 88, 161, 90, 165, 1, 0.35567
197, 6, bw, attraction, a-b-da, 9, 1, 2, 30, 129, 57, 135, 60, 60, 135, 2, 1.36361
197, 6, bw, attraction, a-b-da, 9, 1, 2, 30, 129, 57, 135, 60, 60, 135, 1, 0.363683
197, 6, bw, catch, NA, 999, 999, 2, 31, 143, 112, 135, 60, 135, 180, 3, 1.13889
197, 6, bw, catch, NA, 999, 999, 2, 31, 143, 112, 135, 60, 135, 180, 2, 0.427876
197, 6, bw, attraction, a-b-da, 2, 2, 2, 32, 165, 90, 163, 89, 90, 165, 2, 1.89639
197, 6, bw, attraction, a-b-da, 2, 2, 2, 32, 165, 90, 163, 89, 90, 165, 3, 0.707112
197, 6, bw, attraction, a-b-da, 5, 1, 2, 33, 132, 58, 135, 60, 60, 135, 1, 0.948085
197, 6, bw, attraction, a-b-da, 5, 1, 2, 33, 132, 58, 135, 60, 60, 135, 3, 0.893066
197, 6, bw, attraction, a-b-db, 2, 1, 2, 34, 60, 135, 135, 60, 59, 134, 1, 1.19081
197, 6, bw, attraction, a-b-db, 2, 1, 2, 34, 60, 135, 135, 60, 59, 134, 3, 0.413749
197, 6, bw, filler, NA, 999, 999, 2, 35, 79, 188, 115, 119, 96, 168, 3, 0.954823
197, 6, bw, filler, NA, 999, 999, 2, 35, 79, 188, 115, 119, 96, 168, 2, 0.523181
197, 6, bw, attraction, a-b-da, 5, 2, 2, 36, 161, 88, 165, 90, 90, 165, 3, 1.26781
197, 6, bw, attraction, a-b-da, 5, 2, 2, 36, 161, 88, 165, 90, 90, 165, 2, 0.503847
197, 6, bw, attraction, a-b-db, 5, 3, 2, 37, 195, 120, 117, 190, 120, 195, 1, 1.39362
197, 6, bw, attraction, a-b-db, 5, 3, 2, 37, 195, 120, 117, 190, 120, 195, 2, 0.392502
197, 6, bw, filler, NA, 999, 999, 3, 1, 167, 168, 81, 189, 63, 157, 1, 0.574348
197, 6, bw, filler, NA, 999, 999, 3, 1, 167, 168, 81, 189, 63, 157, 3, 0.638139
197, 6, bw, filler, NA, 999, 999, 3, 2, 67, 158, 115, 152, 177, 93, 2, 1.49052
197, 6, bw, filler, NA, 999, 999, 3, 2, 67, 158, 115, 152, 177, 93, 1, 0.989458
197, 6, bw, attraction, a-b-da, 5, 3, 3, 3, 120, 195, 195, 120, 190, 117, 2, 1.10701
197, 6, bw, attraction, a-b-da, 5, 3, 3, 3, 120, 195, 195, 120, 190, 117, 1, 0.309369
197, 6, bw, filler, NA, 999, 999, 3, 4, 112, 110, 79, 189, 182, 185, 3, 0.774508
197, 6, bw, filler, NA, 999, 999, 3, 4, 112, 110, 79, 189, 182, 185, 1, 0.462191
197, 6, bw, attraction, a-b-db, 14, 2, 3, 5, 83, 153, 165, 90, 90, 165, 3, 1.00133
197, 6, bw, attraction, a-b-db, 14, 2, 3, 5, 83, 153, 165, 90, 90, 165, 1, 0.368305
197, 6, bw, attraction, a-b-da, 14, 1, 3, 6, 125, 56, 135, 60, 60, 135, 3, 0.71944
197, 6, bw, attraction, a-b-da, 14, 1, 3, 6, 125, 56, 135, 60, 60, 135, 1, 0.84191
197, 6, bw, attraction, a-b-da, 2, 1, 3, 7, 135, 60, 134, 59, 60, 135, 1, 0.853554
197, 6, bw, attraction, a-b-da, 2, 1, 3, 7, 135, 60, 134, 59, 60, 135, 3, 0.386659
197, 6, bw, attraction, a-b-db, 14, 3, 3, 8, 111, 181, 120, 195, 195, 120, 2, 1.57714
197, 6, bw, attraction, a-b-db, 14, 3, 3, 8, 111, 181, 120, 195, 195, 120, 3, 0.328589
197, 6, bw, attraction, a-b-db, 9, 3, 3, 9, 120, 195, 114, 186, 195, 120, 3, 0.913156
197, 6, bw, attraction, a-b-db, 9, 3, 3, 9, 120, 195, 114, 186, 195, 120, 2, 0.379496
197, 6, bw, catch, NA, 999, 999, 3, 10, 105, 90, 178, 137, 102, 153, 2, 0.729948
197, 6, bw, catch, NA, 999, 999, 3, 10, 105, 90, 178, 137, 102, 153, 1, 0.355653
197, 6, bw, filler, NA, 999, 999, 3, 11, 133, 170, 137, 155, 190, 148, 3, 0.67551
197, 6, bw, filler, NA, 999, 999, 3, 11, 133, 170, 137, 155, 190, 148, 2, 0.359293
197, 6, bw, attraction, a-b-db, 9, 2, 3, 12, 165, 90, 86, 157, 90, 165, 2, 1.19852
197, 6, bw, attraction, a-b-db, 9, 2, 3, 12, 165, 90, 86, 157, 90, 165, 1, 0.405394
197, 6, bw, attraction, a-b-db, 5, 1, 3, 13, 135, 60, 58, 132, 60, 135, 2, 1.28317
197, 6, bw, attraction, a-b-db, 5, 1, 3, 13, 135, 60, 58, 132, 60, 135, 1, 0.382752
197, 6, bw, attraction, a-b-da, 5, 1, 3, 14, 60, 135, 132, 58, 135, 60, 1, 1.28533
197, 6, bw, attraction, a-b-da, 5, 1, 3, 14, 60, 135, 132, 58, 135, 60, 2, 0.296909
197, 6, bw, attraction, a-b-da, 2, 3, 3, 15, 195, 120, 193, 119, 120, 195, 1, 0.618665
197, 6, bw, attraction, a-b-da, 2, 3, 3, 15, 195, 120, 193, 119, 120, 195, 2, 0.329266
197, 6, bw, catch, NA, 999, 999, 3, 16, 170, 145, 163, 92, 109, 86, 1, 0.713618
197, 6, bw, catch, NA, 999, 999, 3, 16, 170, 145, 163, 92, 109, 86, 3, 0.308071
197, 6, bw, attraction, a-b-da, 9, 3, 3, 17, 186, 114, 195, 120, 120, 195, 1, 0.573185
197, 6, bw, attraction, a-b-da, 9, 3, 3, 17, 186, 114, 195, 120, 120, 195, 3, 0.541119
197, 6, bw, attraction, a-b-da, 14, 3, 3, 18, 195, 120, 181, 111, 120, 195, 2, 0.57279
197, 6, bw, attraction, a-b-da, 14, 3, 3, 18, 195, 120, 181, 111, 120, 195, 1, 0.308576
197, 6, bw, catch, NA, 999, 999, 3, 19, 141, 114, 99, 96, 145, 170, 3, 0.861862
197, 6, bw, catch, NA, 999, 999, 3, 19, 141, 114, 99, 96, 145, 170, 2, 0.354135
197, 6, bw, filler, NA, 999, 999, 3, 20, 179, 179, 112, 95, 66, 103, 1, 0.513961
197, 6, bw, filler, NA, 999, 999, 3, 20, 179, 179, 112, 95, 66, 103, 3, 0.388469
197, 6, bw, attraction, a-b-da, 2, 2, 3, 21, 165, 90, 90, 165, 163, 89, 2, 0.81906
197, 6, bw, attraction, a-b-da, 2, 2, 3, 21, 165, 90, 90, 165, 163, 89, 3, 0.297332
197, 6, bw, attraction, a-b-db, 9, 1, 3, 22, 57, 129, 60, 135, 135, 60, 2, 0.7311
197, 6, bw, attraction, a-b-db, 9, 1, 3, 22, 57, 129, 60, 135, 135, 60, 3, 0.445043
197, 6, bw, attraction, a-b-db, 2, 3, 3, 23, 119, 193, 120, 195, 195, 120, 2, 0.440682
197, 6, bw, attraction, a-b-db, 2, 3, 3, 23, 119, 193, 120, 195, 195, 120, 3, 0.357888
197, 6, bw, attraction, a-b-db, 2, 2, 3, 24, 165, 90, 89, 163, 90, 165, 2, 0.493159
197, 6, bw, attraction, a-b-db, 2, 2, 3, 24, 165, 90, 89, 163, 90, 165, 3, 0.312153
197, 6, bw, filler, NA, 999, 999, 3, 25, 103, 188, 80, 182, 175, 145, 3, 0.625569
197, 6, bw, filler, NA, 999, 999, 3, 25, 103, 188, 80, 182, 175, 145, 2, 0.35914
197, 6, bw, filler, NA, 999, 999, 3, 26, 177, 138, 75, 91, 57, 159, 1, 0.470335
197, 6, bw, filler, NA, 999, 999, 3, 26, 177, 138, 75, 91, 57, 159, 3, 1.29889
197, 6, bw, filler, NA, 999, 999, 3, 27, 169, 123, 126, 150, 70, 190, 2, 0.652273
197, 6, bw, filler, NA, 999, 999, 3, 27, 169, 123, 126, 150, 70, 190, 3, 0.281575
197, 6, bw, attraction, a-b-da, 9, 2, 3, 28, 165, 90, 157, 86, 90, 165, 3, 1.52399
197, 6, bw, attraction, a-b-da, 9, 2, 3, 28, 165, 90, 157, 86, 90, 165, 2, 0.773451
197, 6, bw, attraction, a-b-db, 14, 1, 3, 29, 56, 125, 60, 135, 135, 60, 2, 1.23592
197, 6, bw, attraction, a-b-db, 14, 1, 3, 29, 56, 125, 60, 135, 135, 60, 3, 1.54543
197, 6, bw, attraction, a-b-da, 5, 2, 3, 30, 161, 88, 90, 165, 165, 90, 2, 0.576926
197, 6, bw, attraction, a-b-da, 5, 2, 3, 30, 161, 88, 90, 165, 165, 90, 3, 0.632737
197, 6, bw, attraction, a-b-db, 5, 3, 3, 31, 120, 195, 195, 120, 117, 190, 2, 0.469036
197, 6, bw, attraction, a-b-db, 5, 3, 3, 31, 120, 195, 195, 120, 117, 190, 3, 0.401541
197, 6, bw, attraction, a-b-db, 2, 1, 3, 32, 135, 60, 59, 134, 60, 135, 2, 0.679382
197, 6, bw, attraction, a-b-db, 2, 1, 3, 32, 135, 60, 59, 134, 60, 135, 1, 0.331226
197, 6, bw, attraction, a-b-da, 14, 2, 3, 33, 153, 83, 165, 90, 90, 165, 2, 0.467614
197, 6, bw, attraction, a-b-da, 14, 2, 3, 33, 153, 83, 165, 90, 90, 165, 3, 0.480196
197, 6, bw, filler, NA, 999, 999, 3, 34, 81, 134, 168, 137, 137, 66, 2, 0.530758
197, 6, bw, filler, NA, 999, 999, 3, 34, 81, 134, 168, 137, 137, 66, 3, 0.396407
197, 6, bw, attraction, a-b-db, 5, 2, 3, 35, 90, 165, 165, 90, 88, 161, 3, 0.706331
197, 6, bw, attraction, a-b-db, 5, 2, 3, 35, 90, 165, 165, 90, 88, 161, 2, 0.596681
197, 6, bw, filler, NA, 999, 999, 3, 36, 118, 131, 169, 138, 152, 73, 2, 0.626477
197, 6, bw, filler, NA, 999, 999, 3, 36, 118, 131, 169, 138, 152, 73, 3, 0.36023
197, 6, bw, attraction, a-b-da, 9, 1, 3, 37, 129, 57, 60, 135, 135, 60, 2, 1.24736
197, 6, bw, attraction, a-b-da, 9, 1, 3, 37, 129, 57, 60, 135, 135, 60, 3, 0.356296
197, 6, bw, attraction, a-b-db, 5, 3, 4, 1, 195, 120, 117, 190, 120, 195, 1, 0.795402
197, 6, bw, attraction, a-b-db, 5, 3, 4, 1, 195, 120, 117, 190, 120, 195, 2, 0.37849
197, 6, bw, attraction, a-b-da, 5, 3, 4, 2, 195, 120, 190, 117, 120, 195, 3, 1.033
197, 6, bw, attraction, a-b-da, 5, 3, 4, 2, 195, 120, 190, 117, 120, 195, 2, 0.310691
197, 6, bw, attraction, a-b-db, 14, 1, 4, 3, 135, 60, 60, 135, 56, 125, 1, 0.743818
197, 6, bw, attraction, a-b-db, 14, 1, 4, 3, 135, 60, 60, 135, 56, 125, 3, 0.761058
197, 6, bw, attraction, a-b-da, 2, 3, 4, 4, 195, 120, 193, 119, 120, 195, 1, 1.12792
197, 6, bw, attraction, a-b-da, 2, 3, 4, 4, 195, 120, 193, 119, 120, 195, 2, 0.473552
197, 6, bw, attraction, a-b-da, 9, 1, 4, 5, 129, 57, 60, 135, 135, 60, 2, 0.756019
197, 6, bw, attraction, a-b-da, 9, 1, 4, 5, 129, 57, 60, 135, 135, 60, 3, 0.332404
197, 6, bw, filler, NA, 999, 999, 4, 6, 79, 150, 65, 126, 188, 183, 3, 0.516858
197, 6, bw, filler, NA, 999, 999, 4, 6, 79, 150, 65, 126, 188, 183, 2, 0.295369
197, 6, bw, attraction, a-b-db, 14, 3, 4, 7, 120, 195, 111, 181, 195, 120, 2, 0.921231
197, 6, bw, attraction, a-b-db, 14, 3, 4, 7, 120, 195, 111, 181, 195, 120, 3, 0.362955
197, 6, bw, filler, NA, 999, 999, 4, 8, 151, 62, 176, 185, 140, 77, 2, 0.490013
197, 6, bw, filler, NA, 999, 999, 4, 8, 151, 62, 176, 185, 140, 77, 3, 0.549172
197, 6, bw, attraction, a-b-db, 14, 2, 4, 9, 83, 153, 90, 165, 165, 90, 2, 0.437067
197, 6, bw, attraction, a-b-db, 14, 2, 4, 9, 83, 153, 90, 165, 165, 90, 3, 0.370144
197, 6, bw, attraction, a-b-db, 2, 1, 4, 10, 60, 135, 59, 134, 135, 60, 2, 0.657304
197, 6, bw, attraction, a-b-db, 2, 1, 4, 10, 60, 135, 59, 134, 135, 60, 3, 0.381706
197, 6, bw, filler, NA, 999, 999, 4, 11, 164, 59, 118, 74, 188, 69, 2, 0.724187
197, 6, bw, filler, NA, 999, 999, 4, 11, 164, 59, 118, 74, 188, 69, 3, 0.766094
197, 6, bw, filler, NA, 999, 999, 4, 12, 123, 188, 162, 189, 59, 190, 2, 0.45314
197, 6, bw, filler, NA, 999, 999, 4, 12, 123, 188, 162, 189, 59, 190, 3, 0.514221
197, 6, bw, attraction, a-b-db, 9, 1, 4, 13, 60, 135, 57, 129, 135, 60, 2, 0.539326
197, 6, bw, attraction, a-b-db, 9, 1, 4, 13, 60, 135, 57, 129, 135, 60, 3, 0.356418
197, 6, bw, attraction, a-b-db, 9, 2, 4, 14, 165, 90, 90, 165, 86, 157, 2, 0.443592
197, 6, bw, attraction, a-b-db, 9, 2, 4, 14, 165, 90, 90, 165, 86, 157, 3, 0.808728
197, 6, bw, attraction, a-b-da, 14, 2, 4, 15, 90, 165, 165, 90, 153, 83, 2, 1.41387
197, 6, bw, attraction, a-b-da, 14, 2, 4, 15, 90, 165, 165, 90, 153, 83, 3, 0.292113
197, 6, bw, attraction, a-b-db, 9, 3, 4, 16, 120, 195, 195, 120, 114, 186, 2, 0.437847
197, 6, bw, attraction, a-b-db, 9, 3, 4, 16, 120, 195, 195, 120, 114, 186, 1, 0.298985
197, 6, bw, attraction, a-b-da, 2, 2, 4, 17, 165, 90, 163, 89, 90, 165, 3, 1.13287
197, 6, bw, attraction, a-b-da, 2, 2, 4, 17, 165, 90, 163, 89, 90, 165, 2, 0.366491
197, 6, bw, catch, NA, 999, 999, 4, 18, 165, 90, 63, 132, 150, 165, 3, 0.549615
197, 6, bw, catch, NA, 999, 999, 4, 18, 165, 90, 63, 132, 150, 165, 2, 0.382916
197, 6, bw, attraction, a-b-da, 9, 3, 4, 19, 186, 114, 195, 120, 120, 195, 2, 1.12526
197, 6, bw, attraction, a-b-da, 9, 3, 4, 19, 186, 114, 195, 120, 120, 195, 1, 0.327
197, 6, bw, catch, NA, 999, 999, 4, 20, 108, 147, 86, 109, 124, 191, 3, 0.51142
197, 6, bw, catch, NA, 999, 999, 4, 20, 108, 147, 86, 109, 124, 191, 2, 0.329838
197, 6, bw, filler, NA, 999, 999, 4, 21, 146, 162, 83, 57, 152, 97, 1, 0.506464
197, 6, bw, filler, NA, 999, 999, 4, 21, 146, 162, 83, 57, 152, 97, 2, 0.372859
197, 6, bw, attraction, a-b-da, 9, 2, 4, 22, 157, 86, 165, 90, 90, 165, 2, 0.635351
197, 6, bw, attraction, a-b-da, 9, 2, 4, 22, 157, 86, 165, 90, 90, 165, 3, 0.321102
197, 6, bw, catch, NA, 999, 999, 4, 23, 161, 94, 77, 118, 129, 186, 3, 0.546303
197, 6, bw, catch, NA, 999, 999, 4, 23, 161, 94, 77, 118, 129, 186, 2, 0.299392
197, 6, bw, filler, NA, 999, 999, 4, 24, 77, 140, 107, 95, 102, 152, 3, 0.541253
197, 6, bw, filler, NA, 999, 999, 4, 24, 77, 140, 107, 95, 102, 152, 2, 0.358401
197, 6, bw, attraction, a-b-da, 14, 3, 4, 25, 195, 120, 181, 111, 120, 195, 2, 0.805538
197, 6, bw, attraction, a-b-da, 14, 3, 4, 25, 195, 120, 181, 111, 120, 195, 1, 0.291909
197, 6, bw, filler, NA, 999, 999, 4, 26, 136, 132, 98, 193, 66, 62, 2, 0.469764
197, 6, bw, filler, NA, 999, 999, 4, 26, 136, 132, 98, 193, 66, 62, 3, 0.346272
197, 6, bw, attraction, a-b-da, 5, 1, 4, 27, 135, 60, 60, 135, 132, 58, 3, 1.2181
197, 6, bw, attraction, a-b-da, 5, 1, 4, 27, 135, 60, 60, 135, 132, 58, 2, 0.568525
197, 6, bw, attraction, a-b-da, 5, 2, 4, 28, 161, 88, 90, 165, 165, 90, 2, 0.487426
197, 6, bw, attraction, a-b-da, 5, 2, 4, 28, 161, 88, 90, 165, 165, 90, 3, 0.490626
197, 6, bw, attraction, a-b-db, 5, 2, 4, 29, 88, 161, 90, 165, 165, 90, 2, 0.39642
197, 6, bw, attraction, a-b-db, 5, 2, 4, 29, 88, 161, 90, 165, 165, 90, 3, 0.299666
197, 6, bw, filler, NA, 999, 999, 4, 30, 128, 180, 181, 114, 153, 141, 2, 0.437552
197, 6, bw, filler, NA, 999, 999, 4, 30, 128, 180, 181, 114, 153, 141, 3, 0.482728
197, 6, bw, attraction, a-b-db, 2, 2, 4, 31, 90, 165, 89, 163, 165, 90, 2, 0.461099
197, 6, bw, attraction, a-b-db, 2, 2, 4, 31, 90, 165, 89, 163, 165, 90, 3, 0.313535
197, 6, bw, attraction, a-b-db, 2, 3, 4, 32, 119, 193, 195, 120, 120, 195, 3, 0.466877
197, 6, bw, attraction, a-b-db, 2, 3, 4, 32, 119, 193, 195, 120, 120, 195, 2, 0.65525
197, 6, bw, filler, NA, 999, 999, 4, 33, 194, 71, 148, 153, 182, 108, 2, 0.458998
197, 6, bw, filler, NA, 999, 999, 4, 33, 194, 71, 148, 153, 182, 108, 1, 0.329531
197, 6, bw, filler, NA, 999, 999, 4, 34, 174, 163, 102, 169, 81, 170, 2, 0.455995
197, 6, bw, filler, NA, 999, 999, 4, 34, 174, 163, 102, 169, 81, 170, 1, 1.73256
197, 6, bw, attraction, a-b-da, 14, 1, 4, 35, 135, 60, 60, 135, 125, 56, 2, 1.62858
197, 6, bw, attraction, a-b-da, 14, 1, 4, 35, 135, 60, 60, 135, 125, 56, 3, 0.722169
197, 6, bw, attraction, a-b-da, 2, 1, 4, 36, 60, 135, 135, 60, 134, 59, 1, 0.811024
197, 6, bw, attraction, a-b-da, 2, 1, 4, 36, 60, 135, 135, 60, 134, 59, 2, 0.385437
197, 6, bw, attraction, a-b-db, 5, 1, 4, 37, 135, 60, 58, 132, 60, 135, 1, 1.39207
197, 6, bw, attraction, a-b-db, 5, 1, 4, 37, 135, 60, 58, 132, 60, 135, 2, 0.334779
197, 6, bw, attraction, a-b-db, 9, 1, 5, 1, 60, 135, 135, 60, 57, 129, 1, 1.93393
197, 6, bw, attraction, a-b-db, 9, 1, 5, 1, 60, 135, 135, 60, 57, 129, 2, 0.927335
197, 6, bw, filler, NA, 999, 999, 5, 2, 126, 77, 162, 106, 90, 143, 2, 0.583634
197, 6, bw, filler, NA, 999, 999, 5, 2, 126, 77, 162, 106, 90, 143, 1, 0.351657
197, 6, bw, filler, NA, 999, 999, 5, 3, 113, 139, 70, 185, 108, 107, 1, 0.711279
197, 6, bw, filler, NA, 999, 999, 5, 3, 113, 139, 70, 185, 108, 107, 3, 0.47365
197, 6, bw, attraction, a-b-db, 14, 3, 5, 4, 195, 120, 111, 181, 120, 195, 1, 0.692094
197, 6, bw, attraction, a-b-db, 14, 3, 5, 4, 195, 120, 111, 181, 120, 195, 2, 0.375337
197, 6, bw, attraction, a-b-da, 5, 1, 5, 5, 135, 60, 132, 58, 60, 135, 3, 1.07777
197, 6, bw, attraction, a-b-da, 5, 1, 5, 5, 135, 60, 132, 58, 60, 135, 2, 0.281385
197, 6, bw, filler, NA, 999, 999, 5, 6, 76, 84, 123, 85, 135, 82, 2, 0.795856
197, 6, bw, filler, NA, 999, 999, 5, 6, 76, 84, 123, 85, 135, 82, 1, 0.346937
197, 6, bw, attraction, a-b-da, 14, 3, 5, 7, 181, 111, 195, 120, 120, 195, 2, 0.546756
197, 6, bw, attraction, a-b-da, 14, 3, 5, 7, 181, 111, 195, 120, 120, 195, 3, 0.235874
197, 6, bw, attraction, a-b-db, 5, 2, 5, 8, 165, 90, 88, 161, 90, 165, 2, 0.464419
197, 6, bw, attraction, a-b-db, 5, 2, 5, 8, 165, 90, 88, 161, 90, 165, 1, 0.540869
197, 6, bw, attraction, a-b-db, 14, 2, 5, 9, 165, 90, 83, 153, 90, 165, 2, 0.780818
197, 6, bw, attraction, a-b-db, 14, 2, 5, 9, 165, 90, 83, 153, 90, 165, 1, 0.33239
197, 6, bw, attraction, a-b-db, 5, 3, 5, 10, 117, 190, 195, 120, 120, 195, 2, 0.437011
197, 6, bw, attraction, a-b-db, 5, 3, 5, 10, 117, 190, 195, 120, 120, 195, 3, 0.506769
197, 6, bw, attraction, a-b-da, 14, 2, 5, 11, 153, 83, 165, 90, 90, 165, 2, 0.435956
197, 6, bw, attraction, a-b-da, 14, 2, 5, 11, 153, 83, 165, 90, 90, 165, 3, 0.345731
197, 6, bw, attraction, a-b-da, 9, 1, 5, 12, 135, 60, 129, 57, 60, 135, 2, 0.441439
197, 6, bw, attraction, a-b-da, 9, 1, 5, 12, 135, 60, 129, 57, 60, 135, 1, 0.286736
197, 6, bw, filler, NA, 999, 999, 5, 13, 195, 131, 157, 101, 187, 106, 1, 0.721318
197, 6, bw, filler, NA, 999, 999, 5, 13, 195, 131, 157, 101, 187, 106, 2, 0.28292
197, 6, bw, attraction, a-b-db, 9, 3, 5, 14, 120, 195, 114, 186, 195, 120, 2, 0.541527
197, 6, bw, attraction, a-b-db, 9, 3, 5, 14, 120, 195, 114, 186, 195, 120, 3, 0.686687
197, 6, bw, filler, NA, 999, 999, 5, 15, 65, 129, 140, 61, 186, 59, 1, 1.30517
197, 6, bw, filler, NA, 999, 999, 5, 15, 65, 129, 140, 61, 186, 59, 2, 0.867342
197, 6, bw, attraction, a-b-da, 2, 1, 5, 16, 134, 59, 60, 135, 135, 60, 2, 0.966352
197, 6, bw, attraction, a-b-da, 2, 1, 5, 16, 134, 59, 60, 135, 135, 60, 3, 0.56659
197, 6, bw, attraction, a-b-db, 9, 2, 5, 17, 165, 90, 86, 157, 90, 165, 1, 0.669644
197, 6, bw, attraction, a-b-db, 9, 2, 5, 17, 165, 90, 86, 157, 90, 165, 2, 0.378126
197, 6, bw, attraction, a-b-da, 14, 1, 5, 18, 125, 56, 60, 135, 135, 60, 2, 0.648589
197, 6, bw, attraction, a-b-da, 14, 1, 5, 18, 125, 56, 60, 135, 135, 60, 3, 0.997703
197, 6, bw, attraction, a-b-db, 2, 2, 5, 19, 165, 90, 90, 165, 89, 163, 1, 0.635497
197, 6, bw, attraction, a-b-db, 2, 2, 5, 19, 165, 90, 90, 165, 89, 163, 2, 0.401129
197, 6, bw, attraction, a-b-da, 5, 3, 5, 20, 190, 117, 195, 120, 120, 195, 2, 0.582995
197, 6, bw, attraction, a-b-da, 5, 3, 5, 20, 190, 117, 195, 120, 120, 195, 3, 0.310829
197, 6, bw, attraction, a-b-db, 14, 1, 5, 21, 135, 60, 60, 135, 56, 125, 2, 0.440017
197, 6, bw, attraction, a-b-db, 14, 1, 5, 21, 135, 60, 60, 135, 56, 125, 1, 0.2851
197, 6, bw, attraction, a-b-da, 2, 2, 5, 22, 163, 89, 90, 165, 165, 90, 2, 0.519629
197, 6, bw, attraction, a-b-da, 2, 2, 5, 22, 163, 89, 90, 165, 165, 90, 3, 0.329375
197, 6, bw, attraction, a-b-da, 5, 2, 5, 23, 161, 88, 90, 165, 165, 90, 3, 0.921914
197, 6, bw, attraction, a-b-da, 5, 2, 5, 23, 161, 88, 90, 165, 165, 90, 2, 0.339589
197, 6, bw, attraction, a-b-da, 9, 2, 5, 24, 157, 86, 165, 90, 90, 165, 2, 0.699401
197, 6, bw, attraction, a-b-da, 9, 2, 5, 24, 157, 86, 165, 90, 90, 165, 3, 0.494484
197, 6, bw, filler, NA, 999, 999, 5, 25, 176, 176, 102, 100, 82, 74, 1, 0.424305
197, 6, bw, filler, NA, 999, 999, 5, 25, 176, 176, 102, 100, 82, 74, 3, 0.462192
197, 6, bw, filler, NA, 999, 999, 5, 26, 136, 162, 158, 60, 105, 160, 1, 0.521351
197, 6, bw, filler, NA, 999, 999, 5, 26, 136, 162, 158, 60, 105, 160, 2, 0.395072
197, 6, bw, filler, NA, 999, 999, 5, 27, 76, 99, 82, 95, 58, 106, 2, 0.608876
197, 6, bw, filler, NA, 999, 999, 5, 27, 76, 99, 82, 95, 58, 106, 3, 0.463376
197, 6, bw, filler, NA, 999, 999, 5, 28, 194, 193, 189, 127, 170, 62, 2, 0.498443
197, 6, bw, filler, NA, 999, 999, 5, 28, 194, 193, 189, 127, 170, 62, 3, 0.269724
197, 6, bw, filler, NA, 999, 999, 5, 29, 169, 187, 187, 68, 64, 167, 1, 0.488749
197, 6, bw, filler, NA, 999, 999, 5, 29, 169, 187, 187, 68, 64, 167, 3, 0.340029
197, 6, bw, catch, NA, 999, 999, 5, 30, 155, 100, 121, 194, 66, 129, 2, 0.435746
197, 6, bw, catch, NA, 999, 999, 5, 30, 155, 100, 121, 194, 66, 129, 3, 0.37762
197, 6, bw, attraction, a-b-db, 2, 1, 5, 31, 60, 135, 59, 134, 135, 60, 2, 0.5443
197, 6, bw, attraction, a-b-db, 2, 1, 5, 31, 60, 135, 59, 134, 135, 60, 3, 0.497459
197, 6, bw, attraction, a-b-da, 2, 3, 5, 32, 193, 119, 120, 195, 195, 120, 3, 0.835118
197, 6, bw, attraction, a-b-da, 2, 3, 5, 32, 193, 119, 120, 195, 195, 120, 2, 0.336926
197, 6, bw, attraction, a-b-da, 9, 3, 5, 33, 186, 114, 195, 120, 120, 195, 2, 0.55327
197, 6, bw, attraction, a-b-da, 9, 3, 5, 33, 186, 114, 195, 120, 120, 195, 1, 0.322431
197, 6, bw, attraction, a-b-db, 2, 3, 5, 34, 120, 195, 119, 193, 195, 120, 2, 0.435585
197, 6, bw, attraction, a-b-db, 2, 3, 5, 34, 120, 195, 119, 193, 195, 120, 3, 0.265435
197, 6, bw, catch, NA, 999, 999, 5, 35, 122, 193, 97, 98, 148, 107, 1, 0.676633
197, 6, bw, catch, NA, 999, 999, 5, 35, 122, 193, 97, 98, 148, 107, 2, 0.30442
197, 6, bw, attraction, a-b-db, 5, 1, 5, 36, 60, 135, 135, 60, 58, 132, 2, 0.674291
197, 6, bw, attraction, a-b-db, 5, 1, 5, 36, 60, 135, 135, 60, 58, 132, 3, 0.590021
197, 6, bw, catch, NA, 999, 999, 5, 37, 151, 164, 115, 80, 94, 161, 1, 0.459734
197, 6, bw, catch, NA, 999, 999, 5, 37, 151, 164, 115, 80, 94, 161, 2, 0.312263
197, 6, bw, attraction, a-b-db, 2, 1, 6, 1, 59, 134, 60, 135, 135, 60, 2, 0.857391
197, 6, bw, attraction, a-b-db, 2, 1, 6, 1, 59, 134, 60, 135, 135, 60, 3, 0.597785
197, 6, bw, attraction, a-b-da, 5, 1, 6, 2, 60, 135, 135, 60, 132, 58, 2, 0.539711
197, 6, bw, attraction, a-b-da, 5, 1, 6, 2, 60, 135, 135, 60, 132, 58, 3, 0.46066
197, 6, bw, filler, NA, 999, 999, 6, 3, 144, 83, 139, 63, 79, 109, 1, 0.495773
197, 6, bw, filler, NA, 999, 999, 6, 3, 144, 83, 139, 63, 79, 109, 3, 0.707069
197, 6, bw, catch, NA, 999, 999, 6, 4, 155, 160, 160, 95, 60, 135, 2, 0.387976
197, 6, bw, catch, NA, 999, 999, 6, 4, 155, 160, 160, 95, 60, 135, 3, 0.299156
197, 6, bw, attraction, a-b-db, 14, 2, 6, 5, 165, 90, 90, 165, 83, 153, 2, 0.436991
197, 6, bw, attraction, a-b-db, 14, 2, 6, 5, 165, 90, 90, 165, 83, 153, 3, 0.282202
197, 6, bw, attraction, a-b-db, 5, 3, 6, 6, 117, 190, 195, 120, 120, 195, 2, 0.900721
197, 6, bw, attraction, a-b-db, 5, 3, 6, 6, 117, 190, 195, 120, 120, 195, 3, 0.295754
197, 6, bw, filler, NA, 999, 999, 6, 7, 90, 122, 69, 160, 186, 193, 3, 0.593573
197, 6, bw, filler, NA, 999, 999, 6, 7, 90, 122, 69, 160, 186, 193, 2, 0.48072
197, 6, bw, filler, NA, 999, 999, 6, 8, 167, 127, 93, 156, 92, 90, 2, 0.77919
197, 6, bw, filler, NA, 999, 999, 6, 8, 167, 127, 93, 156, 92, 90, 3, 0.603009
197, 6, bw, attraction, a-b-da, 14, 1, 6, 9, 135, 60, 125, 56, 60, 135, 2, 0.728686
197, 6, bw, attraction, a-b-da, 14, 1, 6, 9, 135, 60, 125, 56, 60, 135, 3, 0.24249
197, 6, bw, attraction, a-b-db, 14, 3, 6, 10, 120, 195, 195, 120, 111, 181, 2, 0.398382
197, 6, bw, attraction, a-b-db, 14, 3, 6, 10, 120, 195, 195, 120, 111, 181, 3, 0.277496
197, 6, bw, filler, NA, 999, 999, 6, 11, 79, 99, 112, 94, 177, 183, 3, 0.711997
197, 6, bw, filler, NA, 999, 999, 6, 11, 79, 99, 112, 94, 177, 183, 2, 0.346425
197, 6, bw, filler, NA, 999, 999, 6, 12, 195, 80, 178, 57, 181, 83, 1, 1.13822
197, 6, bw, filler, NA, 999, 999, 6, 12, 195, 80, 178, 57, 181, 83, 2, 0.467219
197, 6, bw, catch, NA, 999, 999, 6, 13, 174, 141, 112, 143, 130, 65, 1, 0.774373
197, 6, bw, catch, NA, 999, 999, 6, 13, 174, 141, 112, 143, 130, 65, 3, 0.390058
197, 6, bw, attraction, a-b-da, 2, 2, 6, 14, 165, 90, 163, 89, 90, 165, 2, 0.49185
197, 6, bw, attraction, a-b-da, 2, 2, 6, 14, 165, 90, 163, 89, 90, 165, 3, 0.311108
197, 6, bw, filler, NA, 999, 999, 6, 15, 193, 190, 71, 122, 176, 101, 1, 0.408178
197, 6, bw, filler, NA, 999, 999, 6, 15, 193, 190, 71, 122, 176, 101, 2, 0.286678
197, 6, bw, attraction, a-b-da, 14, 2, 6, 16, 153, 83, 90, 165, 165, 90, 2, 0.769283
197, 6, bw, attraction, a-b-da, 14, 2, 6, 16, 153, 83, 90, 165, 165, 90, 3, 0.289637
197, 6, bw, attraction, a-b-db, 2, 2, 6, 17, 90, 165, 89, 163, 165, 90, 2, 0.955447
197, 6, bw, attraction, a-b-db, 2, 2, 6, 17, 90, 165, 89, 163, 165, 90, 1, 0.315803
197, 6, bw, attraction, a-b-da, 9, 3, 6, 18, 186, 114, 195, 120, 120, 195, 1, 0.837048
197, 6, bw, attraction, a-b-da, 9, 3, 6, 18, 186, 114, 195, 120, 120, 195, 2, 0.306767
197, 6, bw, catch, NA, 999, 999, 6, 19, 155, 100, 130, 185, 120, 75, 2, 0.531931
197, 6, bw, catch, NA, 999, 999, 6, 19, 155, 100, 130, 185, 120, 75, 3, 0.309687
197, 6, bw, attraction, a-b-db, 5, 1, 6, 20, 135, 60, 58, 132, 60, 135, 2, 0.974864
197, 6, bw, attraction, a-b-db, 5, 1, 6, 20, 135, 60, 58, 132, 60, 135, 3, 0.342557
197, 6, bw, filler, NA, 999, 999, 6, 21, 80, 172, 150, 56, 121, 170, 1, 1.22237
197, 6, bw, filler, NA, 999, 999, 6, 21, 80, 172, 150, 56, 121, 170, 2, 0.355974
197, 6, bw, filler, NA, 999, 999, 6, 22, 118, 56, 94, 106, 61, 159, 2, 0.771067
197, 6, bw, filler, NA, 999, 999, 6, 22, 118, 56, 94, 106, 61, 159, 1, 0.482871
197, 6, bw, attraction, a-b-db, 5, 2, 6, 23, 88, 161, 165, 90, 90, 165, 3, 0.637264
197, 6, bw, attraction, a-b-db, 5, 2, 6, 23, 88, 161, 165, 90, 90, 165, 2, 0.570335
197, 6, bw, filler, NA, 999, 999, 6, 24, 76, 160, 89, 65, 98, 87, 1, 0.577519
197, 6, bw, filler, NA, 999, 999, 6, 24, 76, 160, 89, 65, 98, 87, 2, 0.409306
197, 6, bw, attraction, a-b-db, 9, 3, 6, 25, 114, 186, 120, 195, 195, 120, 3, 0.73446
197, 6, bw, attraction, a-b-db, 9, 3, 6, 25, 114, 186, 120, 195, 195, 120, 2, 0.360266
197, 6, bw, attraction, a-b-da, 2, 3, 6, 26, 193, 119, 195, 120, 120, 195, 1, 0.439429
197, 6, bw, attraction, a-b-da, 2, 3, 6, 26, 193, 119, 195, 120, 120, 195, 2, 0.356508
197, 6, bw, filler, NA, 999, 999, 6, 27, 64, 57, 69, 126, 124, 85, 2, 0.867677
197, 6, bw, filler, NA, 999, 999, 6, 27, 64, 57, 69, 126, 124, 85, 1, 0.368021
197, 6, bw, attraction, a-b-da, 5, 2, 6, 28, 161, 88, 90, 165, 165, 90, 1, 1.04723
197, 6, bw, attraction, a-b-da, 5, 2, 6, 28, 161, 88, 90, 165, 165, 90, 2, 0.300206
197, 6, bw, attraction, a-b-da, 9, 1, 6, 29, 129, 57, 60, 135, 135, 60, 2, 0.902003
197, 6, bw, attraction, a-b-da, 9, 1, 6, 29, 129, 57, 60, 135, 135, 60, 1, 0.337092
197, 6, bw, attraction, a-b-da, 2, 1, 6, 30, 135, 60, 134, 59, 60, 135, 3, 0.9217
197, 6, bw, attraction, a-b-da, 2, 1, 6, 30, 135, 60, 134, 59, 60, 135, 2, 0.339189
197, 6, bw, attraction, a-b-db, 2, 3, 6, 31, 120, 195, 119, 193, 195, 120, 2, 0.787761
197, 6, bw, attraction, a-b-db, 2, 3, 6, 31, 120, 195, 119, 193, 195, 120, 3, 0.282809
197, 6, bw, attraction, a-b-db, 14, 1, 6, 32, 56, 125, 135, 60, 60, 135, 1, 0.941317
197, 6, bw, attraction, a-b-db, 14, 1, 6, 32, 56, 125, 135, 60, 60, 135, 2, 0.342336
197, 6, bw, attraction, a-b-da, 5, 3, 6, 33, 190, 117, 195, 120, 120, 195, 3, 0.878278
197, 6, bw, attraction, a-b-da, 5, 3, 6, 33, 190, 117, 195, 120, 120, 195, 2, 0.353832
197, 6, bw, attraction, a-b-da, 9, 2, 6, 34, 90, 165, 157, 86, 165, 90, 3, 0.473685
197, 6, bw, attraction, a-b-da, 9, 2, 6, 34, 90, 165, 157, 86, 165, 90, 2, 0.413461
197, 6, bw, attraction, a-b-db, 9, 2, 6, 35, 90, 165, 86, 157, 165, 90, 1, 0.810751
197, 6, bw, attraction, a-b-db, 9, 2, 6, 35, 90, 165, 86, 157, 165, 90, 2, 0.425053
197, 6, bw, attraction, a-b-db, 9, 1, 6, 36, 60, 135, 57, 129, 135, 60, 2, 0.773519
197, 6, bw, attraction, a-b-db, 9, 1, 6, 36, 60, 135, 57, 129, 135, 60, 3, 0.445275
197, 6, bw, attraction, a-b-da, 14, 3, 6, 37, 120, 195, 195, 120, 181, 111, 2, 0.489053
197, 6, bw, attraction, a-b-da, 14, 3, 6, 37, 120, 195, 195, 120, 181, 111, 3, 0.252239
197, 6, bw, filler, NA, 999, 999, 7, 1, 133, 76, 83, 119, 89, 175, 3, 0.672056
197, 6, bw, filler, NA, 999, 999, 7, 1, 133, 76, 83, 119, 89, 175, 2, 0.315876
197, 6, bw, attraction, a-b-da, 9, 1, 7, 2, 129, 57, 60, 135, 135, 60, 2, 1.69297
197, 6, bw, attraction, a-b-da, 9, 1, 7, 2, 129, 57, 60, 135, 135, 60, 1, 0.423759
197, 6, bw, attraction, a-b-db, 14, 3, 7, 3, 195, 120, 111, 181, 120, 195, 1, 0.972282
197, 6, bw, attraction, a-b-db, 14, 3, 7, 3, 195, 120, 111, 181, 120, 195, 2, 0.507955
197, 6, bw, attraction, a-b-db, 5, 2, 7, 4, 90, 165, 88, 161, 165, 90, 2, 0.437051
197, 6, bw, attraction, a-b-db, 5, 2, 7, 4, 90, 165, 88, 161, 165, 90, 3, 0.530948
197, 6, bw, attraction, a-b-da, 5, 3, 7, 5, 190, 117, 120, 195, 195, 120, 2, 0.387306
197, 6, bw, attraction, a-b-da, 5, 3, 7, 5, 190, 117, 120, 195, 195, 120, 3, 0.29846
197, 6, bw, attraction, a-b-da, 14, 2, 7, 6, 153, 83, 165, 90, 90, 165, 1, 0.628303
197, 6, bw, attraction, a-b-da, 14, 2, 7, 6, 153, 83, 165, 90, 90, 165, 3, 0.362064
197, 6, bw, attraction, a-b-db, 9, 2, 7, 7, 165, 90, 90, 165, 86, 157, 2, 0.473442
197, 6, bw, attraction, a-b-db, 9, 2, 7, 7, 165, 90, 90, 165, 86, 157, 3, 0.573123
197, 6, bw, attraction, a-b-db, 9, 1, 7, 8, 60, 135, 135, 60, 57, 129, 2, 0.507524
197, 6, bw, attraction, a-b-db, 9, 1, 7, 8, 60, 135, 135, 60, 57, 129, 3, 0.286043
197, 6, bw, filler, NA, 999, 999, 7, 9, 91, 82, 184, 183, 151, 151, 2, 0.464476
197, 6, bw, filler, NA, 999, 999, 7, 9, 91, 82, 184, 183, 151, 151, 1, 0.629076
197, 6, bw, attraction, a-b-db, 5, 1, 7, 10, 58, 132, 60, 135, 135, 60, 2, 0.505393
197, 6, bw, attraction, a-b-db, 5, 1, 7, 10, 58, 132, 60, 135, 135, 60, 3, 0.315905
197, 6, bw, filler, NA, 999, 999, 7, 11, 102, 75, 110, 78, 120, 78, 2, 0.453296
197, 6, bw, filler, NA, 999, 999, 7, 11, 102, 75, 110, 78, 120, 78, 1, 1.05822
197, 6, bw, attraction, a-b-da, 14, 3, 7, 12, 195, 120, 181, 111, 120, 195, 1, 0.693186
197, 6, bw, attraction, a-b-da, 14, 3, 7, 12, 195, 120, 181, 111, 120, 195, 2, 0.432314
197, 6, bw, attraction, a-b-db, 2, 1, 7, 13, 135, 60, 60, 135, 59, 134, 2, 0.58872
197, 6, bw, attraction, a-b-db, 2, 1, 7, 13, 135, 60, 60, 135, 59, 134, 1, 0.267898
197, 6, bw, attraction, a-b-da, 2, 1, 7, 14, 135, 60, 60, 135, 134, 59, 2, 0.519056
197, 6, bw, attraction, a-b-da, 2, 1, 7, 14, 135, 60, 60, 135, 134, 59, 1, 0.3057
197, 6, bw, filler, NA, 999, 999, 7, 15, 159, 164, 185, 153, 123, 143, 2, 0.483443
197, 6, bw, filler, NA, 999, 999, 7, 15, 159, 164, 185, 153, 123, 143, 3, 0.335327
197, 6, bw, catch, NA, 999, 999, 7, 16, 103, 152, 181, 134, 62, 133, 2, 0.407856
197, 6, bw, catch, NA, 999, 999, 7, 16, 103, 152, 181, 134, 62, 133, 3, 0.574378
197, 6, bw, filler, NA, 999, 999, 7, 17, 71, 135, 77, 72, 161, 179, 3, 0.756841
197, 6, bw, filler, NA, 999, 999, 7, 17, 71, 135, 77, 72, 161, 179, 2, 0.485118
197, 6, bw, attraction, a-b-db, 2, 3, 7, 18, 195, 120, 120, 195, 119, 193, 1, 1.63164
197, 6, bw, attraction, a-b-db, 2, 3, 7, 18, 195, 120, 120, 195, 119, 193, 2, 0.293121
197, 6, bw, attraction, a-b-da, 2, 3, 7, 19, 193, 119, 195, 120, 120, 195, 2, 1.11097
197, 6, bw, attraction, a-b-da, 2, 3, 7, 19, 193, 119, 195, 120, 120, 195, 3, 0.35325
197, 6, bw, filler, NA, 999, 999, 7, 20, 144, 109, 80, 65, 74, 63, 1, 0.664924
197, 6, bw, filler, NA, 999, 999, 7, 20, 144, 109, 80, 65, 74, 63, 2, 0.445564
197, 6, bw, attraction, a-b-db, 14, 2, 7, 21, 83, 153, 165, 90, 90, 165, 3, 0.689231
197, 6, bw, attraction, a-b-db, 14, 2, 7, 21, 83, 153, 165, 90, 90, 165, 2, 0.308306
197, 6, bw, filler, NA, 999, 999, 7, 22, 89, 107, 82, 87, 84, 148, 3, 0.477522
197, 6, bw, filler, NA, 999, 999, 7, 22, 89, 107, 82, 87, 84, 148, 2, 0.537403
197, 6, bw, catch, NA, 999, 999, 7, 23, 106, 89, 159, 96, 165, 150, 3, 0.489895
197, 6, bw, catch, NA, 999, 999, 7, 23, 106, 89, 159, 96, 165, 150, 1, 0.556957
197, 6, bw, catch, NA, 999, 999, 7, 24, 115, 140, 121, 74, 166, 149, 3, 0.484027
197, 6, bw, catch, NA, 999, 999, 7, 24, 115, 140, 121, 74, 166, 149, 2, 0.43183
197, 6, bw, filler, NA, 999, 999, 7, 25, 172, 186, 176, 153, 76, 189, 2, 0.676299
197, 6, bw, filler, NA, 999, 999, 7, 25, 172, 186, 176, 153, 76, 189, 3, 0.312044
197, 6, bw, filler, NA, 999, 999, 7, 26, 168, 147, 127, 123, 90, 92, 2, 0.457237
197, 6, bw, filler, NA, 999, 999, 7, 26, 168, 147, 127, 123, 90, 92, 1, 0.773769
197, 6, bw, attraction, a-b-db, 14, 1, 7, 27, 56, 125, 60, 135, 135, 60, 2, 0.716091
197, 6, bw, attraction, a-b-db, 14, 1, 7, 27, 56, 125, 60, 135, 135, 60, 3, 0.318638
197, 6, bw, attraction, a-b-da, 5, 2, 7, 28, 90, 165, 161, 88, 165, 90, 2, 0.47181
197, 6, bw, attraction, a-b-da, 5, 2, 7, 28, 90, 165, 161, 88, 165, 90, 3, 0.243577
197, 6, bw, attraction, a-b-da, 9, 2, 7, 29, 157, 86, 90, 165, 165, 90, 2, 0.495364
197, 6, bw, attraction, a-b-da, 9, 2, 7, 29, 157, 86, 90, 165, 165, 90, 3, 0.290563
197, 6, bw, attraction, a-b-da, 5, 1, 7, 30, 132, 58, 135, 60, 60, 135, 1, 0.900408
197, 6, bw, attraction, a-b-da, 5, 1, 7, 30, 132, 58, 135, 60, 60, 135, 3, 0.775407
197, 6, bw, attraction, a-b-db, 9, 3, 7, 31, 114, 186, 195, 120, 120, 195, 2, 0.42977
197, 6, bw, attraction, a-b-db, 9, 3, 7, 31, 114, 186, 195, 120, 120, 195, 3, 0.251703
197, 6, bw, filler, NA, 999, 999, 7, 32, 167, 72, 134, 184, 121, 91, 2, 0.383501
197, 6, bw, filler, NA, 999, 999, 7, 32, 167, 72, 134, 184, 121, 91, 3, 0.919316
197, 6, bw, attraction, a-b-da, 14, 1, 7, 33, 60, 135, 125, 56, 135, 60, 1, 0.680273
197, 6, bw, attraction, a-b-da, 14, 1, 7, 33, 60, 135, 125, 56, 135, 60, 2, 0.596121
197, 6, bw, attraction, a-b-da, 9, 3, 7, 34, 120, 195, 195, 120, 186, 114, 1, 0.857905
197, 6, bw, attraction, a-b-da, 9, 3, 7, 34, 120, 195, 195, 120, 186, 114, 3, 0.742258
197, 6, bw, attraction, a-b-da, 2, 2, 7, 35, 163, 89, 165, 90, 90, 165, 2, 0.509959
197, 6, bw, attraction, a-b-da, 2, 2, 7, 35, 163, 89, 165, 90, 90, 165, 1, 0.328478
197, 6, bw, attraction, a-b-db, 2, 2, 7, 36, 90, 165, 89, 163, 165, 90, 2, 0.432858
197, 6, bw, attraction, a-b-db, 2, 2, 7, 36, 90, 165, 89, 163, 165, 90, 3, 0.270714
197, 6, bw, attraction, a-b-db, 5, 3, 7, 37, 117, 190, 195, 120, 120, 195, 2, 0.394009
197, 6, bw, attraction, a-b-db, 5, 3, 7, 37, 117, 190, 195, 120, 120, 195, 3, 0.241131
197, 6, bw, attraction, a-b-db, 14, 1, 8, 1, 60, 135, 56, 125, 135, 60, 3, 0.82095
197, 6, bw, attraction, a-b-db, 14, 1, 8, 1, 60, 135, 56, 125, 135, 60, 2, 0.282665
197, 6, bw, catch, NA, 999, 999, 8, 2, 129, 186, 132, 63, 159, 96, 1, 0.701186
197, 6, bw, catch, NA, 999, 999, 8, 2, 129, 186, 132, 63, 159, 96, 2, 0.384368
197, 6, bw, attraction, a-b-da, 9, 1, 8, 3, 135, 60, 129, 57, 60, 135, 3, 0.702773
197, 6, bw, attraction, a-b-da, 9, 1, 8, 3, 135, 60, 129, 57, 60, 135, 2, 0.585788
197, 6, bw, attraction, a-b-db, 2, 1, 8, 4, 60, 135, 135, 60, 59, 134, 1, 0.568281
197, 6, bw, attraction, a-b-db, 2, 1, 8, 4, 60, 135, 135, 60, 59, 134, 2, 0.456711
197, 6, bw, attraction, a-b-db, 5, 1, 8, 5, 58, 132, 135, 60, 60, 135, 2, 1.46787
197, 6, bw, attraction, a-b-db, 5, 1, 8, 5, 58, 132, 135, 60, 60, 135, 3, 0.632124
197, 6, bw, filler, NA, 999, 999, 8, 6, 153, 145, 66, 154, 177, 117, 3, 1.81242
197, 6, bw, filler, NA, 999, 999, 8, 6, 153, 145, 66, 154, 177, 117, 2, 0.578574
197, 6, bw, attraction, a-b-da, 2, 1, 8, 7, 60, 135, 134, 59, 135, 60, 1, 0.672978
197, 6, bw, attraction, a-b-da, 2, 1, 8, 7, 60, 135, 134, 59, 135, 60, 2, 0.452714
197, 6, bw, attraction, a-b-da, 14, 1, 8, 8, 60, 135, 125, 56, 135, 60, 1, 0.704524
197, 6, bw, attraction, a-b-da, 14, 1, 8, 8, 60, 135, 125, 56, 135, 60, 3, 0.571019
197, 6, bw, filler, NA, 999, 999, 8, 9, 77, 75, 128, 74, 100, 132, 3, 0.610123
197, 6, bw, filler, NA, 999, 999, 8, 9, 77, 75, 128, 74, 100, 132, 1, 0.440543
197, 6, bw, attraction, a-b-da, 9, 3, 8, 10, 195, 120, 120, 195, 186, 114, 1, 0.812269
197, 6, bw, attraction, a-b-da, 9, 3, 8, 10, 195, 120, 120, 195, 186, 114, 2, 0.346836
197, 6, bw, attraction, a-b-da, 2, 2, 8, 11, 90, 165, 163, 89, 165, 90, 2, 0.778536
197, 6, bw, attraction, a-b-da, 2, 2, 8, 11, 90, 165, 163, 89, 165, 90, 3, 0.338227
197, 6, bw, filler, NA, 999, 999, 8, 12, 60, 156, 133, 142, 128, 104, 2, 0.514887
197, 6, bw, filler, NA, 999, 999, 8, 12, 60, 156, 133, 142, 128, 104, 3, 0.373273
197, 6, bw, attraction, a-b-db, 9, 2, 8, 13, 86, 157, 165, 90, 90, 165, 2, 0.571709
197, 6, bw, attraction, a-b-db, 9, 2, 8, 13, 86, 157, 165, 90, 90, 165, 1, 0.331473
197, 6, bw, filler, NA, 999, 999, 8, 14, 67, 81, 66, 172, 124, 58, 2, 0.556063
197, 6, bw, filler, NA, 999, 999, 8, 14, 67, 81, 66, 172, 124, 58, 1, 0.396581
197, 6, bw, catch, NA, 999, 999, 8, 15, 105, 150, 133, 182, 83, 112, 2, 0.474371
197, 6, bw, catch, NA, 999, 999, 8, 15, 105, 150, 133, 182, 83, 112, 3, 0.446147
197, 6, bw, attraction, a-b-db, 9, 3, 8, 16, 120, 195, 195, 120, 114, 186, 2, 0.482108
197, 6, bw, attraction, a-b-db, 9, 3, 8, 16, 120, 195, 195, 120, 114, 186, 3, 0.333806
197, 6, bw, filler, NA, 999, 999, 8, 17, 60, 141, 184, 161, 166, 73, 2, 0.902219
197, 6, bw, filler, NA, 999, 999, 8, 17, 60, 141, 184, 161, 166, 73, 1, 0.393395
197, 6, bw, filler, NA, 999, 999, 8, 18, 95, 177, 173, 83, 159, 153, 3, 0.607057
197, 6, bw, filler, NA, 999, 999, 8, 18, 95, 177, 173, 83, 159, 153, 2, 0.36551
197, 6, bw, attraction, a-b-da, 14, 3, 8, 19, 181, 111, 195, 120, 120, 195, 1, 0.604656
197, 6, bw, attraction, a-b-da, 14, 3, 8, 19, 181, 111, 195, 120, 120, 195, 2, 0.379148
197, 6, bw, attraction, a-b-db, 5, 3, 8, 20, 117, 190, 120, 195, 195, 120, 2, 0.921598
197, 6, bw, attraction, a-b-db, 5, 3, 8, 20, 117, 190, 120, 195, 195, 120, 3, 0.371431
197, 6, bw, attraction, a-b-da, 5, 3, 8, 21, 120, 195, 190, 117, 195, 120, 2, 0.59469
197, 6, bw, attraction, a-b-da, 5, 3, 8, 21, 120, 195, 190, 117, 195, 120, 3, 0.345688
197, 6, bw, attraction, a-b-da, 5, 2, 8, 22, 161, 88, 165, 90, 90, 165, 3, 0.913545
197, 6, bw, attraction, a-b-da, 5, 2, 8, 22, 161, 88, 165, 90, 90, 165, 1, 0.387747
197, 6, bw, attraction, a-b-db, 14, 2, 8, 23, 165, 90, 90, 165, 83, 153, 2, 0.522286
197, 6, bw, attraction, a-b-db, 14, 2, 8, 23, 165, 90, 90, 165, 83, 153, 1, 0.340075
197, 6, bw, attraction, a-b-db, 9, 1, 8, 24, 57, 129, 135, 60, 60, 135, 3, 0.748018
197, 6, bw, attraction, a-b-db, 9, 1, 8, 24, 57, 129, 135, 60, 60, 135, 2, 0.365031
197, 6, bw, attraction, a-b-db, 2, 2, 8, 25, 89, 163, 90, 165, 165, 90, 2, 0.668154
197, 6, bw, attraction, a-b-db, 2, 2, 8, 25, 89, 163, 90, 165, 165, 90, 3, 0.408625
197, 6, bw, attraction, a-b-db, 2, 3, 8, 26, 120, 195, 195, 120, 119, 193, 2, 0.437771
197, 6, bw, attraction, a-b-db, 2, 3, 8, 26, 120, 195, 195, 120, 119, 193, 1, 0.650932
197, 6, bw, filler, NA, 999, 999, 8, 27, 183, 91, 113, 138, 106, 153, 2, 0.822799
197, 6, bw, filler, NA, 999, 999, 8, 27, 183, 91, 113, 138, 106, 153, 1, 0.404338
197, 6, bw, catch, NA, 999, 999, 8, 28, 106, 89, 154, 101, 175, 140, 3, 0.57021
197, 6, bw, catch, NA, 999, 999, 8, 28, 106, 89, 154, 101, 175, 140, 1, 0.802663
197, 6, bw, attraction, a-b-da, 2, 3, 8, 29, 193, 119, 120, 195, 195, 120, 2, 0.808328
197, 6, bw, attraction, a-b-da, 2, 3, 8, 29, 193, 119, 120, 195, 195, 120, 1, 0.790758
197, 6, bw, filler, NA, 999, 999, 8, 30, 137, 82, 152, 92, 183, 92, 3, 0.572426
197, 6, bw, filler, NA, 999, 999, 8, 30, 137, 82, 152, 92, 183, 92, 1, 0.644248
197, 6, bw, attraction, a-b-db, 14, 3, 8, 31, 195, 120, 120, 195, 111, 181, 1, 0.87198
197, 6, bw, attraction, a-b-db, 14, 3, 8, 31, 195, 120, 120, 195, 111, 181, 2, 0.443747
197, 6, bw, attraction, a-b-da, 9, 2, 8, 32, 90, 165, 165, 90, 157, 86, 1, 0.623615
197, 6, bw, attraction, a-b-da, 9, 2, 8, 32, 90, 165, 165, 90, 157, 86, 2, 0.717239
197, 6, bw, attraction, a-b-da, 14, 2, 8, 33, 90, 165, 153, 83, 165, 90, 3, 0.542354
197, 6, bw, attraction, a-b-da, 14, 2, 8, 33, 90, 165, 153, 83, 165, 90, 2, 0.375451
197, 6, bw, attraction, a-b-da, 5, 1, 8, 34, 132, 58, 135, 60, 60, 135, 1, 0.662016
197, 6, bw, attraction, a-b-da, 5, 1, 8, 34, 132, 58, 135, 60, 60, 135, 3, 0.474448
197, 6, bw, filler, NA, 999, 999, 8, 35, 92, 93, 103, 139, 113, 65, 2, 0.484818
197, 6, bw, filler, NA, 999, 999, 8, 35, 92, 93, 103, 139, 113, 65, 1, 0.568665
197, 6, bw, attraction, a-b-db, 5, 2, 8, 36, 90, 165, 165, 90, 88, 161, 1, 0.687649
197, 6, bw, attraction, a-b-db, 5, 2, 8, 36, 90, 165, 165, 90, 88, 161, 2, 0.458883
197, 6, bw, filler, NA, 999, 999, 8, 37, 152, 76, 185, 113, 168, 138, 3, 0.789891
197, 6, bw, filler, NA, 999, 999, 8, 37, 152, 76, 185, 113, 168, 138, 1, 0.477007
