sub_n, computer_n, bw_cond, effect, set, distance, diag, block_n, trial_n, h1, w1, h2, w2, h3, w3, choice, rt 
174, 6, wb, practice, NA, 999, 999, 0, 1, 70, 86, 168, 163, 167, 97, 1, 4.75498
174, 6, wb, practice, NA, 999, 999, 0, 1, 70, 86, 168, 163, 167, 97, 2, 4.21865
174, 6, wb, practice, NA, 999, 999, 0, 2, 192, 116, 111, 156, 114, 111, 3, 3.00388
174, 6, wb, practice, NA, 999, 999, 0, 2, 192, 116, 111, 156, 114, 111, 1, 1.90602
174, 6, wb, practice, NA, 999, 999, 0, 3, 98, 126, 186, 58, 104, 155, 2, 5.25559
174, 6, wb, practice, NA, 999, 999, 0, 3, 98, 126, 186, 58, 104, 155, 3, 1.55752
174, 6, wb, attraction, a-b-db, 14, 1, 1, 1, 56, 125, 60, 135, 135, 60, 2, 5.40685
174, 6, wb, attraction, a-b-db, 14, 1, 1, 1, 56, 125, 60, 135, 135, 60, 3, 2.59581
174, 6, wb, filler, NA, 999, 999, 1, 2, 60, 176, 127, 186, 134, 72, 3, 2.04894
174, 6, wb, filler, NA, 999, 999, 1, 2, 60, 176, 127, 186, 134, 72, 2, 0.533568
174, 6, wb, attraction, a-b-db, 5, 1, 1, 3, 58, 132, 135, 60, 60, 135, 1, 2.87799
174, 6, wb, attraction, a-b-db, 5, 1, 1, 3, 58, 132, 135, 60, 60, 135, 3, 4.86514
174, 6, wb, filler, NA, 999, 999, 1, 4, 100, 78, 140, 118, 91, 138, 1, 1.55486
174, 6, wb, filler, NA, 999, 999, 1, 4, 100, 78, 140, 118, 91, 138, 2, 0.682985
174, 6, wb, attraction, a-b-db, 2, 3, 1, 5, 119, 193, 120, 195, 195, 120, 3, 4.16537
174, 6, wb, attraction, a-b-db, 2, 3, 1, 5, 119, 193, 120, 195, 195, 120, 2, 1.58069
174, 6, wb, filler, NA, 999, 999, 1, 6, 174, 77, 106, 108, 156, 161, 1, 6.12287
174, 6, wb, filler, NA, 999, 999, 1, 6, 174, 77, 106, 108, 156, 161, 3, 0.762893
174, 6, wb, filler, NA, 999, 999, 1, 7, 193, 186, 174, 127, 188, 104, 3, 2.35392
174, 6, wb, filler, NA, 999, 999, 1, 7, 193, 186, 174, 127, 188, 104, 1, 0.794642
174, 6, wb, attraction, a-b-da, 2, 3, 1, 8, 193, 119, 120, 195, 195, 120, 1, 5.46427
174, 6, wb, attraction, a-b-da, 2, 3, 1, 8, 193, 119, 120, 195, 195, 120, 2, 0.467182
174, 6, wb, catch, NA, 999, 999, 1, 9, 85, 110, 159, 156, 131, 124, 1, 1.27026
174, 6, wb, catch, NA, 999, 999, 1, 9, 85, 110, 159, 156, 131, 124, 2, 0.425798
174, 6, wb, attraction, a-b-db, 5, 2, 1, 10, 165, 90, 90, 165, 88, 161, 1, 14.8063
174, 6, wb, attraction, a-b-db, 5, 2, 1, 10, 165, 90, 90, 165, 88, 161, 3, 0.937006
174, 6, wb, attraction, a-b-da, 14, 3, 1, 11, 195, 120, 120, 195, 181, 111, 3, 3.59333
174, 6, wb, attraction, a-b-da, 14, 3, 1, 11, 195, 120, 120, 195, 181, 111, 1, 1.40755
174, 6, wb, catch, NA, 999, 999, 1, 12, 63, 132, 195, 120, 125, 130, 1, 0.964313
174, 6, wb, catch, NA, 999, 999, 1, 12, 63, 132, 195, 120, 125, 130, 2, 0.388662
174, 6, wb, filler, NA, 999, 999, 1, 13, 180, 140, 72, 134, 190, 94, 2, 1.25117
174, 6, wb, filler, NA, 999, 999, 1, 13, 180, 140, 72, 134, 190, 94, 1, 0.768036
174, 6, wb, attraction, a-b-db, 9, 2, 1, 14, 165, 90, 90, 165, 86, 157, 3, 4.63925
174, 6, wb, attraction, a-b-db, 9, 2, 1, 14, 165, 90, 90, 165, 86, 157, 1, 3.91502
174, 6, wb, attraction, a-b-da, 9, 3, 1, 15, 186, 114, 120, 195, 195, 120, 1, 9.07501
174, 6, wb, attraction, a-b-da, 9, 3, 1, 15, 186, 114, 120, 195, 195, 120, 3, 1.41217
174, 6, wb, attraction, a-b-db, 14, 3, 1, 16, 111, 181, 120, 195, 195, 120, 1, 2.089
174, 6, wb, attraction, a-b-db, 14, 3, 1, 16, 111, 181, 120, 195, 195, 120, 3, 0.71566
174, 6, wb, attraction, a-b-db, 9, 3, 1, 17, 120, 195, 114, 186, 195, 120, 2, 1.75665
174, 6, wb, attraction, a-b-db, 9, 3, 1, 17, 120, 195, 114, 186, 195, 120, 3, 2.14879
174, 6, wb, filler, NA, 999, 999, 1, 18, 80, 89, 67, 184, 79, 111, 1, 3.88413
174, 6, wb, filler, NA, 999, 999, 1, 18, 80, 89, 67, 184, 79, 111, 2, 1.64689
174, 6, wb, attraction, a-b-da, 14, 2, 1, 19, 90, 165, 165, 90, 153, 83, 3, 3.07419
174, 6, wb, attraction, a-b-da, 14, 2, 1, 19, 90, 165, 165, 90, 153, 83, 1, 0.749184
174, 6, wb, attraction, a-b-da, 5, 3, 1, 20, 120, 195, 195, 120, 190, 117, 1, 3.17298
174, 6, wb, attraction, a-b-da, 5, 3, 1, 20, 120, 195, 195, 120, 190, 117, 2, 1.85193
174, 6, wb, attraction, a-b-db, 14, 2, 1, 21, 165, 90, 90, 165, 83, 153, 3, 3.01545
174, 6, wb, attraction, a-b-db, 14, 2, 1, 21, 165, 90, 90, 165, 83, 153, 1, 0.548944
174, 6, wb, attraction, a-b-da, 14, 1, 1, 22, 135, 60, 125, 56, 60, 135, 3, 11.6288
174, 6, wb, attraction, a-b-da, 14, 1, 1, 22, 135, 60, 125, 56, 60, 135, 1, 0.591049
174, 6, wb, filler, NA, 999, 999, 1, 23, 101, 101, 80, 142, 164, 135, 1, 6.14095
174, 6, wb, filler, NA, 999, 999, 1, 23, 101, 101, 80, 142, 164, 135, 3, 0.476233
174, 6, wb, attraction, a-b-db, 9, 1, 1, 24, 57, 129, 60, 135, 135, 60, 2, 5.19873
174, 6, wb, attraction, a-b-db, 9, 1, 1, 24, 57, 129, 60, 135, 135, 60, 3, 0.436328
174, 6, wb, attraction, a-b-db, 2, 2, 1, 25, 89, 163, 165, 90, 90, 165, 3, 2.60878
174, 6, wb, attraction, a-b-db, 2, 2, 1, 25, 89, 163, 165, 90, 90, 165, 2, 0.358693
174, 6, wb, attraction, a-b-da, 9, 1, 1, 26, 129, 57, 135, 60, 60, 135, 3, 1.41381
174, 6, wb, attraction, a-b-da, 9, 1, 1, 26, 129, 57, 135, 60, 60, 135, 2, 0.71604
174, 6, wb, attraction, a-b-db, 2, 1, 1, 27, 135, 60, 59, 134, 60, 135, 3, 1.9491
174, 6, wb, attraction, a-b-db, 2, 1, 1, 27, 135, 60, 59, 134, 60, 135, 1, 2.11775
174, 6, wb, attraction, a-b-db, 5, 3, 1, 28, 117, 190, 195, 120, 120, 195, 3, 3.32636
174, 6, wb, attraction, a-b-db, 5, 3, 1, 28, 117, 190, 195, 120, 120, 195, 2, 0.615275
174, 6, wb, attraction, a-b-da, 5, 1, 1, 29, 135, 60, 60, 135, 132, 58, 2, 2.02036
174, 6, wb, attraction, a-b-da, 5, 1, 1, 29, 135, 60, 60, 135, 132, 58, 1, 1.92246
174, 6, wb, filler, NA, 999, 999, 1, 30, 88, 75, 68, 56, 142, 186, 2, 2.54711
174, 6, wb, filler, NA, 999, 999, 1, 30, 88, 75, 68, 56, 142, 186, 3, 0.715645
174, 6, wb, attraction, a-b-da, 5, 2, 1, 31, 90, 165, 165, 90, 161, 88, 3, 2.6927
174, 6, wb, attraction, a-b-da, 5, 2, 1, 31, 90, 165, 165, 90, 161, 88, 1, 0.5511
174, 6, wb, catch, NA, 999, 999, 1, 32, 121, 134, 62, 133, 160, 155, 2, 0.926886
174, 6, wb, catch, NA, 999, 999, 1, 32, 121, 134, 62, 133, 160, 155, 3, 0.672616
174, 6, wb, attraction, a-b-da, 9, 2, 1, 33, 157, 86, 165, 90, 90, 165, 1, 1.42775
174, 6, wb, attraction, a-b-da, 9, 2, 1, 33, 157, 86, 165, 90, 90, 165, 2, 2.26537
174, 6, wb, attraction, a-b-da, 2, 2, 1, 34, 165, 90, 90, 165, 163, 89, 1, 2.57974
174, 6, wb, attraction, a-b-da, 2, 2, 1, 34, 165, 90, 90, 165, 163, 89, 3, 2.59491
174, 6, wb, filler, NA, 999, 999, 1, 35, 109, 128, 120, 71, 156, 70, 2, 1.024
174, 6, wb, filler, NA, 999, 999, 1, 35, 109, 128, 120, 71, 156, 70, 1, 0.429714
174, 6, wb, attraction, a-b-da, 2, 1, 1, 36, 134, 59, 135, 60, 60, 135, 1, 3.79419
174, 6, wb, attraction, a-b-da, 2, 1, 1, 36, 134, 59, 135, 60, 60, 135, 2, 0.864295
174, 6, wb, filler, NA, 999, 999, 1, 37, 99, 85, 81, 82, 70, 72, 3, 2.90729
174, 6, wb, filler, NA, 999, 999, 1, 37, 99, 85, 81, 82, 70, 72, 1, 0.597051
174, 6, wb, attraction, a-b-da, 2, 3, 2, 1, 193, 119, 120, 195, 195, 120, 2, 4.93073
174, 6, wb, attraction, a-b-da, 2, 3, 2, 1, 193, 119, 120, 195, 195, 120, 3, 0.371173
174, 6, wb, attraction, a-b-db, 14, 1, 2, 2, 56, 125, 135, 60, 60, 135, 1, 1.27447
174, 6, wb, attraction, a-b-db, 14, 1, 2, 2, 56, 125, 135, 60, 60, 135, 2, 0.597929
174, 6, wb, attraction, a-b-db, 5, 1, 2, 3, 58, 132, 60, 135, 135, 60, 2, 2.14119
174, 6, wb, attraction, a-b-db, 5, 1, 2, 3, 58, 132, 60, 135, 135, 60, 3, 0.828397
174, 6, wb, filler, NA, 999, 999, 2, 4, 117, 135, 184, 183, 117, 167, 1, 1.36072
174, 6, wb, filler, NA, 999, 999, 2, 4, 117, 135, 184, 183, 117, 167, 2, 0.296884
174, 6, wb, attraction, a-b-db, 2, 1, 2, 5, 59, 134, 135, 60, 60, 135, 1, 0.994738
174, 6, wb, attraction, a-b-db, 2, 1, 2, 5, 59, 134, 135, 60, 60, 135, 2, 0.52967
174, 6, wb, attraction, a-b-db, 5, 3, 2, 6, 120, 195, 195, 120, 117, 190, 3, 1.81816
174, 6, wb, attraction, a-b-db, 5, 3, 2, 6, 120, 195, 195, 120, 117, 190, 2, 0.408223
174, 6, wb, attraction, a-b-db, 9, 2, 2, 7, 90, 165, 86, 157, 165, 90, 1, 1.13348
174, 6, wb, attraction, a-b-db, 9, 2, 2, 7, 90, 165, 86, 157, 165, 90, 3, 0.431094
174, 6, wb, attraction, a-b-db, 2, 2, 2, 8, 165, 90, 89, 163, 90, 165, 2, 1.6915
174, 6, wb, attraction, a-b-db, 2, 2, 2, 8, 165, 90, 89, 163, 90, 165, 1, 0.542276
174, 6, wb, filler, NA, 999, 999, 2, 9, 82, 70, 171, 73, 96, 150, 1, 4.51811
174, 6, wb, filler, NA, 999, 999, 2, 9, 82, 70, 171, 73, 96, 150, 3, 0.495343
174, 6, wb, filler, NA, 999, 999, 2, 10, 105, 172, 167, 141, 145, 115, 3, 2.37708
174, 6, wb, filler, NA, 999, 999, 2, 10, 105, 172, 167, 141, 145, 115, 2, 0.3362
174, 6, wb, catch, NA, 999, 999, 2, 11, 125, 70, 192, 123, 110, 145, 1, 0.736724
174, 6, wb, catch, NA, 999, 999, 2, 11, 125, 70, 192, 123, 110, 145, 2, 0.666505
174, 6, wb, filler, NA, 999, 999, 2, 12, 71, 126, 132, 167, 180, 153, 1, 0.797532
174, 6, wb, filler, NA, 999, 999, 2, 12, 71, 126, 132, 167, 180, 153, 3, 0.388671
174, 6, wb, attraction, a-b-da, 9, 2, 2, 13, 165, 90, 90, 165, 157, 86, 3, 1.61116
174, 6, wb, attraction, a-b-da, 9, 2, 2, 13, 165, 90, 90, 165, 157, 86, 1, 0.625321
174, 6, wb, attraction, a-b-db, 2, 3, 2, 14, 195, 120, 120, 195, 119, 193, 3, 1.46984
174, 6, wb, attraction, a-b-db, 2, 3, 2, 14, 195, 120, 120, 195, 119, 193, 1, 0.473844
174, 6, wb, filler, NA, 999, 999, 2, 15, 71, 133, 60, 123, 191, 138, 2, 0.716415
174, 6, wb, filler, NA, 999, 999, 2, 15, 71, 133, 60, 123, 191, 138, 3, 0.358751
174, 6, wb, catch, NA, 999, 999, 2, 16, 135, 180, 115, 80, 137, 118, 2, 0.685899
174, 6, wb, catch, NA, 999, 999, 2, 16, 135, 180, 115, 80, 137, 118, 1, 0.385655
174, 6, wb, attraction, a-b-da, 14, 2, 2, 17, 153, 83, 90, 165, 165, 90, 1, 0.824134
174, 6, wb, attraction, a-b-da, 14, 2, 2, 17, 153, 83, 90, 165, 165, 90, 2, 0.477864
174, 6, wb, filler, NA, 999, 999, 2, 18, 186, 142, 170, 192, 179, 75, 3, 1.64041
174, 6, wb, filler, NA, 999, 999, 2, 18, 186, 142, 170, 192, 179, 75, 2, 0.34925
174, 6, wb, attraction, a-b-da, 2, 2, 2, 19, 90, 165, 165, 90, 163, 89, 1, 28.389
174, 6, wb, attraction, a-b-da, 2, 2, 2, 19, 90, 165, 165, 90, 163, 89, 3, 0.572119
174, 6, wb, attraction, a-b-da, 14, 1, 2, 20, 125, 56, 60, 135, 135, 60, 1, 1.89909
174, 6, wb, attraction, a-b-da, 14, 1, 2, 20, 125, 56, 60, 135, 135, 60, 2, 0.365846
174, 6, wb, filler, NA, 999, 999, 2, 21, 136, 138, 186, 155, 184, 96, 1, 1.74903
174, 6, wb, filler, NA, 999, 999, 2, 21, 136, 138, 186, 155, 184, 96, 2, 0.277885
174, 6, wb, attraction, a-b-da, 5, 3, 2, 22, 195, 120, 120, 195, 190, 117, 2, 1.15231
174, 6, wb, attraction, a-b-da, 5, 3, 2, 22, 195, 120, 120, 195, 190, 117, 1, 1.28123
174, 6, wb, attraction, a-b-da, 9, 3, 2, 23, 195, 120, 186, 114, 120, 195, 3, 1.29149
174, 6, wb, attraction, a-b-da, 9, 3, 2, 23, 195, 120, 186, 114, 120, 195, 1, 0.486409
174, 6, wb, attraction, a-b-db, 5, 2, 2, 24, 90, 165, 165, 90, 88, 161, 3, 1.03281
174, 6, wb, attraction, a-b-db, 5, 2, 2, 24, 90, 165, 165, 90, 88, 161, 2, 0.662581
174, 6, wb, attraction, a-b-db, 9, 3, 2, 25, 195, 120, 114, 186, 120, 195, 2, 1.51349
174, 6, wb, attraction, a-b-db, 9, 3, 2, 25, 195, 120, 114, 186, 120, 195, 1, 0.3477
174, 6, wb, filler, NA, 999, 999, 2, 26, 93, 170, 125, 108, 83, 102, 3, 0.811531
174, 6, wb, filler, NA, 999, 999, 2, 26, 93, 170, 125, 108, 83, 102, 1, 0.321933
174, 6, wb, filler, NA, 999, 999, 2, 27, 139, 90, 149, 177, 184, 149, 1, 1.57915
174, 6, wb, filler, NA, 999, 999, 2, 27, 139, 90, 149, 177, 184, 149, 3, 0.322587
174, 6, wb, attraction, a-b-da, 14, 3, 2, 28, 195, 120, 181, 111, 120, 195, 2, 1.3798
174, 6, wb, attraction, a-b-da, 14, 3, 2, 28, 195, 120, 181, 111, 120, 195, 1, 0.315388
174, 6, wb, catch, NA, 999, 999, 2, 29, 125, 70, 168, 147, 110, 145, 1, 0.620471
174, 6, wb, catch, NA, 999, 999, 2, 29, 125, 70, 168, 147, 110, 145, 2, 0.634907
174, 6, wb, attraction, a-b-da, 2, 1, 2, 30, 135, 60, 60, 135, 134, 59, 2, 1.17547
174, 6, wb, attraction, a-b-da, 2, 1, 2, 30, 135, 60, 60, 135, 134, 59, 1, 0.518908
174, 6, wb, attraction, a-b-da, 5, 2, 2, 31, 161, 88, 165, 90, 90, 165, 1, 1.07209
174, 6, wb, attraction, a-b-da, 5, 2, 2, 31, 161, 88, 165, 90, 90, 165, 2, 1.32363
174, 6, wb, attraction, a-b-db, 14, 2, 2, 32, 83, 153, 165, 90, 90, 165, 1, 22.4439
174, 6, wb, attraction, a-b-db, 14, 2, 2, 32, 83, 153, 165, 90, 90, 165, 2, 0.474893
174, 6, wb, attraction, a-b-db, 14, 3, 2, 33, 111, 181, 195, 120, 120, 195, 1, 0.789354
174, 6, wb, attraction, a-b-db, 14, 3, 2, 33, 111, 181, 195, 120, 120, 195, 2, 0.460386
174, 6, wb, filler, NA, 999, 999, 2, 34, 103, 166, 170, 157, 75, 106, 3, 1.03943
174, 6, wb, filler, NA, 999, 999, 2, 34, 103, 166, 170, 157, 75, 106, 2, 0.300573
174, 6, wb, attraction, a-b-da, 9, 1, 2, 35, 60, 135, 135, 60, 129, 57, 1, 1.55834
174, 6, wb, attraction, a-b-da, 9, 1, 2, 35, 60, 135, 135, 60, 129, 57, 2, 0.358534
174, 6, wb, attraction, a-b-db, 9, 1, 2, 36, 135, 60, 60, 135, 57, 129, 2, 1.49373
174, 6, wb, attraction, a-b-db, 9, 1, 2, 36, 135, 60, 60, 135, 57, 129, 1, 0.488448
174, 6, wb, attraction, a-b-da, 5, 1, 2, 37, 132, 58, 135, 60, 60, 135, 2, 0.530979
174, 6, wb, attraction, a-b-da, 5, 1, 2, 37, 132, 58, 135, 60, 60, 135, 3, 0.404718
174, 6, wb, attraction, a-b-da, 2, 2, 3, 1, 163, 89, 90, 165, 165, 90, 2, 0.346506
174, 6, wb, attraction, a-b-da, 2, 2, 3, 1, 163, 89, 90, 165, 165, 90, 1, 0.315748
174, 6, wb, attraction, a-b-da, 9, 1, 3, 2, 60, 135, 129, 57, 135, 60, 1, 0.852911
174, 6, wb, attraction, a-b-da, 9, 1, 3, 2, 60, 135, 129, 57, 135, 60, 2, 0.369966
174, 6, wb, attraction, a-b-db, 2, 1, 3, 3, 59, 134, 60, 135, 135, 60, 2, 0.73711
174, 6, wb, attraction, a-b-db, 2, 1, 3, 3, 59, 134, 60, 135, 135, 60, 3, 0.787069
174, 6, wb, filler, NA, 999, 999, 3, 4, 186, 77, 135, 157, 106, 64, 3, 0.824554
174, 6, wb, filler, NA, 999, 999, 3, 4, 186, 77, 135, 157, 106, 64, 2, 0.238297
174, 6, wb, attraction, a-b-da, 5, 3, 3, 5, 120, 195, 190, 117, 195, 120, 3, 1.19481
174, 6, wb, attraction, a-b-da, 5, 3, 3, 5, 120, 195, 190, 117, 195, 120, 1, 0.425724
174, 6, wb, attraction, a-b-da, 9, 3, 3, 6, 120, 195, 195, 120, 186, 114, 1, 0.69428
174, 6, wb, attraction, a-b-da, 9, 3, 3, 6, 120, 195, 195, 120, 186, 114, 2, 0.977344
174, 6, wb, attraction, a-b-da, 5, 2, 3, 7, 90, 165, 161, 88, 165, 90, 2, 1.33564
174, 6, wb, attraction, a-b-da, 5, 2, 3, 7, 90, 165, 161, 88, 165, 90, 1, 0.353225
174, 6, wb, attraction, a-b-db, 5, 1, 3, 8, 135, 60, 58, 132, 60, 135, 1, 1.76901
174, 6, wb, attraction, a-b-db, 5, 1, 3, 8, 135, 60, 58, 132, 60, 135, 3, 0.393054
174, 6, wb, filler, NA, 999, 999, 3, 9, 191, 102, 113, 115, 109, 178, 2, 4.86295
174, 6, wb, filler, NA, 999, 999, 3, 9, 191, 102, 113, 115, 109, 178, 1, 0.626013
174, 6, wb, filler, NA, 999, 999, 3, 10, 74, 114, 89, 81, 113, 117, 1, 3.27846
174, 6, wb, filler, NA, 999, 999, 3, 10, 74, 114, 89, 81, 113, 117, 3, 0.313402
174, 6, wb, filler, NA, 999, 999, 3, 11, 158, 73, 148, 176, 177, 165, 1, 0.570529
174, 6, wb, filler, NA, 999, 999, 3, 11, 158, 73, 148, 176, 177, 165, 2, 0.386434
174, 6, wb, attraction, a-b-db, 14, 3, 3, 12, 120, 195, 111, 181, 195, 120, 3, 1.19292
174, 6, wb, attraction, a-b-db, 14, 3, 3, 12, 120, 195, 111, 181, 195, 120, 1, 0.535744
174, 6, wb, filler, NA, 999, 999, 3, 13, 57, 97, 154, 178, 180, 166, 1, 0.736161
174, 6, wb, filler, NA, 999, 999, 3, 13, 57, 97, 154, 178, 180, 166, 2, 0.362022
174, 6, wb, attraction, a-b-da, 2, 3, 3, 14, 193, 119, 195, 120, 120, 195, 1, 1.76925
174, 6, wb, attraction, a-b-da, 2, 3, 3, 14, 193, 119, 195, 120, 120, 195, 2, 0.305192
174, 6, wb, filler, NA, 999, 999, 3, 15, 67, 143, 73, 77, 102, 144, 2, 0.699017
174, 6, wb, filler, NA, 999, 999, 3, 15, 67, 143, 73, 77, 102, 144, 3, 0.878157
174, 6, wb, attraction, a-b-db, 9, 2, 3, 16, 90, 165, 86, 157, 165, 90, 2, 5.18464
174, 6, wb, attraction, a-b-db, 9, 2, 3, 16, 90, 165, 86, 157, 165, 90, 3, 1.04681
174, 6, wb, attraction, a-b-da, 2, 1, 3, 17, 60, 135, 134, 59, 135, 60, 2, 0.754491
174, 6, wb, attraction, a-b-da, 2, 1, 3, 17, 60, 135, 134, 59, 135, 60, 1, 1.61083
174, 6, wb, filler, NA, 999, 999, 3, 18, 69, 113, 109, 155, 143, 86, 1, 1.47965
174, 6, wb, filler, NA, 999, 999, 3, 18, 69, 113, 109, 155, 143, 86, 2, 0.643114
174, 6, wb, catch, NA, 999, 999, 3, 19, 115, 140, 152, 163, 123, 72, 3, 1.23085
174, 6, wb, catch, NA, 999, 999, 3, 19, 115, 140, 152, 163, 123, 72, 2, 0.572505
174, 6, wb, filler, NA, 999, 999, 3, 20, 128, 132, 118, 79, 79, 130, 2, 0.875633
174, 6, wb, filler, NA, 999, 999, 3, 20, 128, 132, 118, 79, 79, 130, 1, 0.287235
174, 6, wb, attraction, a-b-da, 14, 2, 3, 21, 165, 90, 90, 165, 153, 83, 3, 0.825916
174, 6, wb, attraction, a-b-da, 14, 2, 3, 21, 165, 90, 90, 165, 153, 83, 1, 1.40746
174, 6, wb, catch, NA, 999, 999, 3, 22, 188, 127, 130, 65, 137, 118, 2, 0.716304
174, 6, wb, catch, NA, 999, 999, 3, 22, 188, 127, 130, 65, 137, 118, 3, 0.726753
174, 6, wb, attraction, a-b-db, 5, 2, 3, 23, 88, 161, 90, 165, 165, 90, 2, 0.775198
174, 6, wb, attraction, a-b-db, 5, 2, 3, 23, 88, 161, 90, 165, 165, 90, 3, 0.415025
174, 6, wb, attraction, a-b-db, 14, 2, 3, 24, 83, 153, 165, 90, 90, 165, 1, 0.764111
174, 6, wb, attraction, a-b-db, 14, 2, 3, 24, 83, 153, 165, 90, 90, 165, 2, 0.57243
174, 6, wb, attraction, a-b-db, 5, 3, 3, 25, 120, 195, 117, 190, 195, 120, 2, 1.64351
174, 6, wb, attraction, a-b-db, 5, 3, 3, 25, 120, 195, 117, 190, 195, 120, 3, 0.464314
174, 6, wb, attraction, a-b-db, 9, 3, 3, 26, 195, 120, 114, 186, 120, 195, 1, 3.68361
174, 6, wb, attraction, a-b-db, 9, 3, 3, 26, 195, 120, 114, 186, 120, 195, 2, 0.566302
174, 6, wb, filler, NA, 999, 999, 3, 27, 92, 174, 89, 136, 104, 95, 3, 1.05338
174, 6, wb, filler, NA, 999, 999, 3, 27, 92, 174, 89, 136, 104, 95, 1, 0.762374
174, 6, wb, attraction, a-b-db, 14, 1, 3, 28, 60, 135, 135, 60, 56, 125, 1, 17.4014
174, 6, wb, attraction, a-b-db, 14, 1, 3, 28, 60, 135, 135, 60, 56, 125, 2, 0.595287
174, 6, wb, attraction, a-b-da, 14, 1, 3, 29, 60, 135, 125, 56, 135, 60, 2, 1.61702
174, 6, wb, attraction, a-b-da, 14, 1, 3, 29, 60, 135, 125, 56, 135, 60, 1, 0.38316
174, 6, wb, attraction, a-b-db, 9, 1, 3, 30, 57, 129, 135, 60, 60, 135, 2, 0.341756
174, 6, wb, attraction, a-b-db, 9, 1, 3, 30, 57, 129, 135, 60, 60, 135, 3, 0.790792
174, 6, wb, attraction, a-b-db, 2, 3, 3, 31, 195, 120, 120, 195, 119, 193, 1, 1.06855
174, 6, wb, attraction, a-b-db, 2, 3, 3, 31, 195, 120, 120, 195, 119, 193, 3, 0.760844
174, 6, wb, filler, NA, 999, 999, 3, 32, 57, 175, 177, 125, 139, 185, 1, 0.687947
174, 6, wb, filler, NA, 999, 999, 3, 32, 57, 175, 177, 125, 139, 185, 3, 0.354882
174, 6, wb, attraction, a-b-da, 5, 1, 3, 33, 132, 58, 135, 60, 60, 135, 3, 1.63478
174, 6, wb, attraction, a-b-da, 5, 1, 3, 33, 132, 58, 135, 60, 60, 135, 1, 0.808379
174, 6, wb, attraction, a-b-db, 2, 2, 3, 34, 90, 165, 165, 90, 89, 163, 2, 0.981388
174, 6, wb, attraction, a-b-db, 2, 2, 3, 34, 90, 165, 165, 90, 89, 163, 1, 0.356869
174, 6, wb, attraction, a-b-da, 14, 3, 3, 35, 195, 120, 181, 111, 120, 195, 2, 0.452033
174, 6, wb, attraction, a-b-da, 14, 3, 3, 35, 195, 120, 181, 111, 120, 195, 1, 0.953289
174, 6, wb, attraction, a-b-da, 9, 2, 3, 36, 90, 165, 165, 90, 157, 86, 1, 0.976911
174, 6, wb, attraction, a-b-da, 9, 2, 3, 36, 90, 165, 165, 90, 157, 86, 2, 0.344609
174, 6, wb, catch, NA, 999, 999, 3, 37, 193, 122, 100, 95, 92, 163, 2, 0.56052
174, 6, wb, catch, NA, 999, 999, 3, 37, 193, 122, 100, 95, 92, 163, 1, 0.419987
174, 6, wb, filler, NA, 999, 999, 4, 1, 95, 100, 135, 155, 125, 86, 2, 1.46194
174, 6, wb, filler, NA, 999, 999, 4, 1, 95, 100, 135, 155, 125, 86, 3, 2.48227
174, 6, wb, catch, NA, 999, 999, 4, 2, 174, 141, 98, 97, 125, 130, 2, 1.06802
174, 6, wb, catch, NA, 999, 999, 4, 2, 174, 141, 98, 97, 125, 130, 1, 0.704285
174, 6, wb, attraction, a-b-da, 5, 1, 4, 3, 135, 60, 60, 135, 132, 58, 2, 1.37013
174, 6, wb, attraction, a-b-da, 5, 1, 4, 3, 135, 60, 60, 135, 132, 58, 3, 0.634236
174, 6, wb, filler, NA, 999, 999, 4, 4, 189, 162, 133, 84, 87, 109, 3, 1.33474
174, 6, wb, filler, NA, 999, 999, 4, 4, 189, 162, 133, 84, 87, 109, 1, 0.384258
174, 6, wb, attraction, a-b-da, 9, 3, 4, 5, 120, 195, 186, 114, 195, 120, 2, 1.13472
174, 6, wb, attraction, a-b-da, 9, 3, 4, 5, 120, 195, 186, 114, 195, 120, 1, 0.344446
174, 6, wb, attraction, a-b-db, 9, 3, 4, 6, 120, 195, 114, 186, 195, 120, 3, 1.25615
174, 6, wb, attraction, a-b-db, 9, 3, 4, 6, 120, 195, 114, 186, 195, 120, 2, 0.340442
174, 6, wb, attraction, a-b-db, 2, 3, 4, 7, 120, 195, 119, 193, 195, 120, 2, 0.828229
174, 6, wb, attraction, a-b-db, 2, 3, 4, 7, 120, 195, 119, 193, 195, 120, 3, 0.473984
174, 6, wb, filler, NA, 999, 999, 4, 8, 96, 194, 108, 179, 63, 139, 3, 0.78038
174, 6, wb, filler, NA, 999, 999, 4, 8, 96, 194, 108, 179, 63, 139, 1, 0.524133
174, 6, wb, attraction, a-b-db, 9, 2, 4, 9, 86, 157, 90, 165, 165, 90, 1, 1.34856
174, 6, wb, attraction, a-b-db, 9, 2, 4, 9, 86, 157, 90, 165, 165, 90, 3, 1.27747
174, 6, wb, attraction, a-b-db, 14, 3, 4, 10, 111, 181, 195, 120, 120, 195, 2, 0.927667
174, 6, wb, attraction, a-b-db, 14, 3, 4, 10, 111, 181, 195, 120, 120, 195, 3, 0.305325
174, 6, wb, filler, NA, 999, 999, 4, 11, 141, 134, 165, 76, 145, 144, 2, 1.36316
174, 6, wb, filler, NA, 999, 999, 4, 11, 141, 134, 165, 76, 145, 144, 3, 1.00356
174, 6, wb, filler, NA, 999, 999, 4, 12, 72, 76, 190, 194, 106, 96, 1, 0.680997
174, 6, wb, filler, NA, 999, 999, 4, 12, 72, 76, 190, 194, 106, 96, 2, 0.260834
174, 6, wb, attraction, a-b-da, 9, 1, 4, 13, 60, 135, 129, 57, 135, 60, 3, 1.71202
174, 6, wb, attraction, a-b-da, 9, 1, 4, 13, 60, 135, 129, 57, 135, 60, 1, 0.314144
174, 6, wb, attraction, a-b-da, 2, 2, 4, 14, 163, 89, 90, 165, 165, 90, 2, 0.643277
174, 6, wb, attraction, a-b-da, 2, 2, 4, 14, 163, 89, 90, 165, 165, 90, 1, 0.360629
174, 6, wb, attraction, a-b-da, 5, 3, 4, 15, 120, 195, 190, 117, 195, 120, 2, 0.919567
174, 6, wb, attraction, a-b-da, 5, 3, 4, 15, 120, 195, 190, 117, 195, 120, 3, 0.393879
174, 6, wb, attraction, a-b-da, 14, 2, 4, 16, 153, 83, 90, 165, 165, 90, 2, 0.615919
174, 6, wb, attraction, a-b-da, 14, 2, 4, 16, 153, 83, 90, 165, 165, 90, 1, 0.350262
174, 6, wb, filler, NA, 999, 999, 4, 17, 127, 192, 173, 60, 134, 69, 3, 0.749981
174, 6, wb, filler, NA, 999, 999, 4, 17, 127, 192, 173, 60, 134, 69, 1, 0.575179
174, 6, wb, attraction, a-b-db, 9, 1, 4, 18, 135, 60, 57, 129, 60, 135, 2, 0.765461
174, 6, wb, attraction, a-b-db, 9, 1, 4, 18, 135, 60, 57, 129, 60, 135, 1, 0.469949
174, 6, wb, attraction, a-b-db, 14, 2, 4, 19, 83, 153, 165, 90, 90, 165, 1, 0.897058
174, 6, wb, attraction, a-b-db, 14, 2, 4, 19, 83, 153, 165, 90, 90, 165, 2, 0.604035
174, 6, wb, filler, NA, 999, 999, 4, 20, 155, 176, 68, 116, 68, 155, 2, 0.667372
174, 6, wb, filler, NA, 999, 999, 4, 20, 155, 176, 68, 116, 68, 155, 1, 0.49427
174, 6, wb, attraction, a-b-db, 5, 1, 4, 21, 58, 132, 60, 135, 135, 60, 1, 2.62403
174, 6, wb, attraction, a-b-db, 5, 1, 4, 21, 58, 132, 60, 135, 135, 60, 3, 1.39734
174, 6, wb, attraction, a-b-da, 5, 2, 4, 22, 161, 88, 90, 165, 165, 90, 1, 3.62669
174, 6, wb, attraction, a-b-da, 5, 2, 4, 22, 161, 88, 90, 165, 165, 90, 2, 0.319506
174, 6, wb, filler, NA, 999, 999, 4, 23, 131, 79, 111, 135, 68, 174, 1, 1.97688
174, 6, wb, filler, NA, 999, 999, 4, 23, 131, 79, 111, 135, 68, 174, 2, 0.280047
174, 6, wb, filler, NA, 999, 999, 4, 24, 191, 185, 125, 70, 175, 62, 2, 4.98663
174, 6, wb, filler, NA, 999, 999, 4, 24, 191, 185, 125, 70, 175, 62, 1, 0.849125
174, 6, wb, attraction, a-b-db, 5, 3, 4, 25, 120, 195, 195, 120, 117, 190, 3, 8.20469
174, 6, wb, attraction, a-b-db, 5, 3, 4, 25, 120, 195, 195, 120, 117, 190, 2, 0.497394
174, 6, wb, attraction, a-b-db, 5, 2, 4, 26, 88, 161, 165, 90, 90, 165, 1, 29.9072
174, 6, wb, attraction, a-b-db, 5, 2, 4, 26, 88, 161, 165, 90, 90, 165, 2, 0.885177
174, 6, wb, catch, NA, 999, 999, 4, 27, 81, 114, 135, 180, 96, 159, 2, 3.29566
174, 6, wb, catch, NA, 999, 999, 4, 27, 81, 114, 135, 180, 96, 159, 3, 1.07383
174, 6, wb, attraction, a-b-da, 14, 1, 4, 28, 60, 135, 125, 56, 135, 60, 1, 20.612
174, 6, wb, attraction, a-b-da, 14, 1, 4, 28, 60, 135, 125, 56, 135, 60, 2, 0.468248
174, 6, wb, catch, NA, 999, 999, 4, 29, 93, 162, 166, 149, 112, 83, 3, 24.4554
174, 6, wb, catch, NA, 999, 999, 4, 29, 93, 162, 166, 149, 112, 83, 2, 0.333024
174, 6, wb, attraction, a-b-da, 2, 3, 4, 30, 195, 120, 120, 195, 193, 119, 2, 11.3416
174, 6, wb, attraction, a-b-da, 2, 3, 4, 30, 195, 120, 120, 195, 193, 119, 1, 0.787289
174, 6, wb, attraction, a-b-db, 2, 2, 4, 31, 90, 165, 89, 163, 165, 90, 2, 6.85779
174, 6, wb, attraction, a-b-db, 2, 2, 4, 31, 90, 165, 89, 163, 165, 90, 3, 1.06823
174, 6, wb, attraction, a-b-da, 9, 2, 4, 32, 90, 165, 157, 86, 165, 90, 2, 12.7591
174, 6, wb, attraction, a-b-da, 9, 2, 4, 32, 90, 165, 157, 86, 165, 90, 1, 0.275766
174, 6, wb, filler, NA, 999, 999, 4, 33, 59, 102, 130, 193, 162, 69, 1, 5.51824
174, 6, wb, filler, NA, 999, 999, 4, 33, 59, 102, 130, 193, 162, 69, 2, 0.29535
174, 6, wb, attraction, a-b-da, 2, 1, 4, 34, 135, 60, 60, 135, 134, 59, 2, 0.697052
174, 6, wb, attraction, a-b-da, 2, 1, 4, 34, 135, 60, 60, 135, 134, 59, 1, 0.404152
174, 6, wb, attraction, a-b-db, 14, 1, 4, 35, 56, 125, 135, 60, 60, 135, 1, 1.16194
174, 6, wb, attraction, a-b-db, 14, 1, 4, 35, 56, 125, 135, 60, 60, 135, 2, 0.538277
174, 6, wb, attraction, a-b-db, 2, 1, 4, 36, 60, 135, 59, 134, 135, 60, 2, 0.610718
174, 6, wb, attraction, a-b-db, 2, 1, 4, 36, 60, 135, 59, 134, 135, 60, 3, 0.425165
174, 6, wb, attraction, a-b-da, 14, 3, 4, 37, 195, 120, 181, 111, 120, 195, 3, 1.16564
174, 6, wb, attraction, a-b-da, 14, 3, 4, 37, 195, 120, 181, 111, 120, 195, 1, 0.685923
174, 6, wb, attraction, a-b-da, 5, 2, 5, 1, 90, 165, 161, 88, 165, 90, 2, 43.7189
174, 6, wb, attraction, a-b-da, 5, 2, 5, 1, 90, 165, 161, 88, 165, 90, 1, 0.515892
174, 6, wb, filler, NA, 999, 999, 5, 2, 114, 110, 87, 139, 124, 146, 2, 0.716982
174, 6, wb, filler, NA, 999, 999, 5, 2, 114, 110, 87, 139, 124, 146, 3, 0.295397
174, 6, wb, attraction, a-b-db, 9, 2, 5, 3, 90, 165, 165, 90, 86, 157, 3, 1.40925
174, 6, wb, attraction, a-b-db, 9, 2, 5, 3, 90, 165, 165, 90, 86, 157, 1, 0.511468
174, 6, wb, attraction, a-b-da, 5, 1, 5, 4, 60, 135, 135, 60, 132, 58, 2, 0.784609
174, 6, wb, attraction, a-b-da, 5, 1, 5, 4, 60, 135, 135, 60, 132, 58, 1, 0.344366
174, 6, wb, attraction, a-b-da, 14, 3, 5, 5, 181, 111, 120, 195, 195, 120, 1, 1.29609
174, 6, wb, attraction, a-b-da, 14, 3, 5, 5, 181, 111, 120, 195, 195, 120, 2, 0.547038
174, 6, wb, attraction, a-b-db, 2, 3, 5, 6, 120, 195, 195, 120, 119, 193, 3, 0.850839
174, 6, wb, attraction, a-b-db, 2, 3, 5, 6, 120, 195, 195, 120, 119, 193, 1, 0.631965
174, 6, wb, filler, NA, 999, 999, 5, 7, 90, 57, 60, 124, 115, 102, 1, 0.812243
174, 6, wb, filler, NA, 999, 999, 5, 7, 90, 57, 60, 124, 115, 102, 3, 0.378834
174, 6, wb, filler, NA, 999, 999, 5, 8, 99, 195, 63, 159, 189, 171, 2, 1.00113
174, 6, wb, filler, NA, 999, 999, 5, 8, 99, 195, 63, 159, 189, 171, 3, 0.32026
174, 6, wb, attraction, a-b-da, 2, 1, 5, 9, 134, 59, 60, 135, 135, 60, 2, 0.785412
174, 6, wb, attraction, a-b-da, 2, 1, 5, 9, 134, 59, 60, 135, 135, 60, 1, 0.769108
174, 6, wb, attraction, a-b-da, 14, 2, 5, 10, 165, 90, 90, 165, 153, 83, 3, 1.0882
174, 6, wb, attraction, a-b-da, 14, 2, 5, 10, 165, 90, 90, 165, 153, 83, 2, 0.379059
174, 6, wb, attraction, a-b-db, 5, 2, 5, 11, 88, 161, 165, 90, 90, 165, 3, 0.865681
174, 6, wb, attraction, a-b-db, 5, 2, 5, 11, 88, 161, 165, 90, 90, 165, 2, 0.557945
174, 6, wb, attraction, a-b-db, 2, 2, 5, 12, 165, 90, 90, 165, 89, 163, 3, 0.613049
174, 6, wb, attraction, a-b-db, 2, 2, 5, 12, 165, 90, 90, 165, 89, 163, 1, 1.08349
174, 6, wb, attraction, a-b-da, 9, 2, 5, 13, 90, 165, 157, 86, 165, 90, 2, 0.549718
174, 6, wb, attraction, a-b-da, 9, 2, 5, 13, 90, 165, 157, 86, 165, 90, 1, 0.486821
174, 6, wb, attraction, a-b-da, 9, 1, 5, 14, 129, 57, 135, 60, 60, 135, 3, 1.09725
174, 6, wb, attraction, a-b-da, 9, 1, 5, 14, 129, 57, 135, 60, 60, 135, 2, 0.756271
174, 6, wb, attraction, a-b-db, 9, 1, 5, 15, 60, 135, 57, 129, 135, 60, 2, 0.811261
174, 6, wb, attraction, a-b-db, 9, 1, 5, 15, 60, 135, 57, 129, 135, 60, 3, 0.529771
174, 6, wb, attraction, a-b-da, 14, 1, 5, 16, 135, 60, 125, 56, 60, 135, 3, 5.57823
174, 6, wb, attraction, a-b-da, 14, 1, 5, 16, 135, 60, 125, 56, 60, 135, 1, 1.47242
174, 6, wb, filler, NA, 999, 999, 5, 17, 150, 161, 68, 66, 129, 194, 2, 0.419207
174, 6, wb, filler, NA, 999, 999, 5, 17, 150, 161, 68, 66, 129, 194, 1, 0.777671
174, 6, wb, filler, NA, 999, 999, 5, 18, 93, 103, 138, 186, 177, 72, 1, 0.680061
174, 6, wb, filler, NA, 999, 999, 5, 18, 93, 103, 138, 186, 177, 72, 2, 0.435835
174, 6, wb, attraction, a-b-db, 9, 3, 5, 19, 120, 195, 114, 186, 195, 120, 2, 1.02443
174, 6, wb, attraction, a-b-db, 9, 3, 5, 19, 120, 195, 114, 186, 195, 120, 3, 0.58997
174, 6, wb, attraction, a-b-da, 2, 2, 5, 20, 90, 165, 163, 89, 165, 90, 3, 0.675703
174, 6, wb, attraction, a-b-da, 2, 2, 5, 20, 90, 165, 163, 89, 165, 90, 2, 0.431515
174, 6, wb, filler, NA, 999, 999, 5, 21, 81, 92, 120, 67, 142, 123, 1, 0.476105
174, 6, wb, filler, NA, 999, 999, 5, 21, 81, 92, 120, 67, 142, 123, 3, 0.351788
174, 6, wb, catch, NA, 999, 999, 5, 22, 157, 98, 153, 162, 110, 85, 3, 0.535619
174, 6, wb, catch, NA, 999, 999, 5, 22, 157, 98, 153, 162, 110, 85, 2, 0.353437
174, 6, wb, attraction, a-b-db, 14, 2, 5, 23, 165, 90, 83, 153, 90, 165, 3, 0.625241
174, 6, wb, attraction, a-b-db, 14, 2, 5, 23, 165, 90, 83, 153, 90, 165, 1, 0.383039
174, 6, wb, catch, NA, 999, 999, 5, 24, 180, 135, 122, 133, 127, 68, 3, 0.469446
174, 6, wb, catch, NA, 999, 999, 5, 24, 180, 135, 122, 133, 127, 68, 1, 0.482102
174, 6, wb, attraction, a-b-db, 2, 1, 5, 25, 59, 134, 60, 135, 135, 60, 2, 0.716418
174, 6, wb, attraction, a-b-db, 2, 1, 5, 25, 59, 134, 60, 135, 135, 60, 3, 0.462893
174, 6, wb, attraction, a-b-db, 14, 1, 5, 26, 135, 60, 60, 135, 56, 125, 3, 0.745931
174, 6, wb, attraction, a-b-db, 14, 1, 5, 26, 135, 60, 60, 135, 56, 125, 1, 0.531065
174, 6, wb, filler, NA, 999, 999, 5, 27, 67, 60, 68, 162, 130, 157, 1, 0.58752
174, 6, wb, filler, NA, 999, 999, 5, 27, 67, 60, 68, 162, 130, 157, 3, 0.378627
174, 6, wb, attraction, a-b-da, 5, 3, 5, 28, 120, 195, 190, 117, 195, 120, 3, 0.841146
174, 6, wb, attraction, a-b-da, 5, 3, 5, 28, 120, 195, 190, 117, 195, 120, 1, 0.270191
174, 6, wb, filler, NA, 999, 999, 5, 29, 66, 157, 117, 64, 103, 145, 2, 0.657424
174, 6, wb, filler, NA, 999, 999, 5, 29, 66, 157, 117, 64, 103, 145, 3, 0.269785
174, 6, wb, filler, NA, 999, 999, 5, 30, 123, 72, 149, 80, 125, 98, 1, 0.696996
174, 6, wb, filler, NA, 999, 999, 5, 30, 123, 72, 149, 80, 125, 98, 3, 0.396314
174, 6, wb, attraction, a-b-da, 9, 3, 5, 31, 195, 120, 186, 114, 120, 195, 3, 0.889983
174, 6, wb, attraction, a-b-da, 9, 3, 5, 31, 195, 120, 186, 114, 120, 195, 1, 0.49292
174, 6, wb, attraction, a-b-da, 2, 3, 5, 32, 193, 119, 120, 195, 195, 120, 2, 1.2068
174, 6, wb, attraction, a-b-da, 2, 3, 5, 32, 193, 119, 120, 195, 195, 120, 1, 0.284896
174, 6, wb, catch, NA, 999, 999, 5, 33, 135, 60, 156, 159, 99, 156, 1, 0.631515
174, 6, wb, catch, NA, 999, 999, 5, 33, 135, 60, 156, 159, 99, 156, 2, 0.269251
174, 6, wb, attraction, a-b-db, 5, 1, 5, 34, 58, 132, 60, 135, 135, 60, 3, 0.712489
174, 6, wb, attraction, a-b-db, 5, 1, 5, 34, 58, 132, 60, 135, 135, 60, 1, 0.394891
174, 6, wb, filler, NA, 999, 999, 5, 35, 105, 139, 147, 181, 155, 144, 1, 0.680815
174, 6, wb, filler, NA, 999, 999, 5, 35, 105, 139, 147, 181, 155, 144, 2, 0.300494
174, 6, wb, attraction, a-b-db, 14, 3, 5, 36, 195, 120, 120, 195, 111, 181, 3, 0.838386
174, 6, wb, attraction, a-b-db, 14, 3, 5, 36, 195, 120, 120, 195, 111, 181, 1, 0.387285
174, 6, wb, attraction, a-b-db, 5, 3, 5, 37, 117, 190, 120, 195, 195, 120, 1, 1.51376
174, 6, wb, attraction, a-b-db, 5, 3, 5, 37, 117, 190, 120, 195, 195, 120, 2, 0.307961
174, 6, wb, attraction, a-b-db, 14, 1, 6, 1, 56, 125, 60, 135, 135, 60, 2, 1.54119
174, 6, wb, attraction, a-b-db, 14, 1, 6, 1, 56, 125, 60, 135, 135, 60, 3, 1.34199
174, 6, wb, attraction, a-b-da, 2, 2, 6, 2, 165, 90, 163, 89, 90, 165, 3, 0.84554
174, 6, wb, attraction, a-b-da, 2, 2, 6, 2, 165, 90, 163, 89, 90, 165, 1, 1.41063
174, 6, wb, attraction, a-b-db, 9, 3, 6, 3, 114, 186, 195, 120, 120, 195, 1, 1.36738
174, 6, wb, attraction, a-b-db, 9, 3, 6, 3, 114, 186, 195, 120, 120, 195, 2, 1.29563
174, 6, wb, attraction, a-b-db, 2, 3, 6, 4, 195, 120, 120, 195, 119, 193, 3, 1.52118
174, 6, wb, attraction, a-b-db, 2, 3, 6, 4, 195, 120, 120, 195, 119, 193, 1, 0.402714
174, 6, wb, catch, NA, 999, 999, 6, 5, 154, 161, 100, 95, 155, 100, 2, 0.528444
174, 6, wb, catch, NA, 999, 999, 6, 5, 154, 161, 100, 95, 155, 100, 1, 0.242359
174, 6, wb, attraction, a-b-db, 14, 2, 6, 6, 165, 90, 83, 153, 90, 165, 2, 0.502116
174, 6, wb, attraction, a-b-db, 14, 2, 6, 6, 165, 90, 83, 153, 90, 165, 1, 0.529323
174, 6, wb, attraction, a-b-db, 14, 3, 6, 7, 111, 181, 195, 120, 120, 195, 3, 0.729751
174, 6, wb, attraction, a-b-db, 14, 3, 6, 7, 111, 181, 195, 120, 120, 195, 2, 0.443474
174, 6, wb, filler, NA, 999, 999, 6, 8, 102, 92, 171, 74, 183, 188, 1, 0.935195
174, 6, wb, filler, NA, 999, 999, 6, 8, 102, 92, 171, 74, 183, 188, 3, 0.296975
174, 6, wb, filler, NA, 999, 999, 6, 9, 93, 94, 73, 176, 70, 111, 3, 0.618834
174, 6, wb, filler, NA, 999, 999, 6, 9, 93, 94, 73, 176, 70, 111, 1, 0.441351
174, 6, wb, attraction, a-b-da, 2, 3, 6, 10, 193, 119, 120, 195, 195, 120, 3, 0.773134
174, 6, wb, attraction, a-b-da, 2, 3, 6, 10, 193, 119, 120, 195, 195, 120, 1, 0.652766
174, 6, wb, filler, NA, 999, 999, 6, 11, 191, 73, 75, 102, 91, 194, 2, 0.840486
174, 6, wb, filler, NA, 999, 999, 6, 11, 191, 73, 75, 102, 91, 194, 3, 0.237629
174, 6, wb, attraction, a-b-da, 5, 3, 6, 12, 120, 195, 195, 120, 190, 117, 3, 0.626216
174, 6, wb, attraction, a-b-da, 5, 3, 6, 12, 120, 195, 195, 120, 190, 117, 2, 0.271911
174, 6, wb, catch, NA, 999, 999, 6, 13, 143, 112, 122, 193, 118, 77, 3, 0.700829
174, 6, wb, catch, NA, 999, 999, 6, 13, 143, 112, 122, 193, 118, 77, 2, 0.470281
174, 6, wb, filler, NA, 999, 999, 6, 14, 111, 94, 88, 96, 175, 179, 2, 0.897362
174, 6, wb, filler, NA, 999, 999, 6, 14, 111, 94, 88, 96, 175, 179, 3, 0.196277
174, 6, wb, attraction, a-b-db, 9, 2, 6, 15, 165, 90, 86, 157, 90, 165, 3, 0.946205
174, 6, wb, attraction, a-b-db, 9, 2, 6, 15, 165, 90, 86, 157, 90, 165, 1, 1.05923
174, 6, wb, attraction, a-b-da, 9, 2, 6, 16, 157, 86, 90, 165, 165, 90, 3, 0.878181
174, 6, wb, attraction, a-b-da, 9, 2, 6, 16, 157, 86, 90, 165, 165, 90, 2, 0.305793
174, 6, wb, filler, NA, 999, 999, 6, 17, 138, 154, 100, 164, 122, 133, 2, 1.2757
174, 6, wb, filler, NA, 999, 999, 6, 17, 138, 154, 100, 164, 122, 133, 3, 0.295335
174, 6, wb, filler, NA, 999, 999, 6, 18, 146, 117, 148, 81, 149, 172, 2, 1.04121
174, 6, wb, filler, NA, 999, 999, 6, 18, 146, 117, 148, 81, 149, 172, 3, 0.294082
174, 6, wb, attraction, a-b-da, 5, 2, 6, 19, 165, 90, 161, 88, 90, 165, 3, 0.943965
174, 6, wb, attraction, a-b-da, 5, 2, 6, 19, 165, 90, 161, 88, 90, 165, 1, 0.633003
174, 6, wb, attraction, a-b-da, 14, 2, 6, 20, 165, 90, 153, 83, 90, 165, 3, 0.861314
174, 6, wb, attraction, a-b-da, 14, 2, 6, 20, 165, 90, 153, 83, 90, 165, 1, 0.417709
174, 6, wb, attraction, a-b-db, 9, 1, 6, 21, 135, 60, 57, 129, 60, 135, 2, 0.790834
174, 6, wb, attraction, a-b-db, 9, 1, 6, 21, 135, 60, 57, 129, 60, 135, 1, 0.43006
174, 6, wb, attraction, a-b-db, 5, 2, 6, 22, 90, 165, 88, 161, 165, 90, 3, 0.978417
174, 6, wb, attraction, a-b-db, 5, 2, 6, 22, 90, 165, 88, 161, 165, 90, 1, 0.730041
174, 6, wb, filler, NA, 999, 999, 6, 23, 102, 169, 159, 182, 102, 173, 3, 0.714512
174, 6, wb, filler, NA, 999, 999, 6, 23, 102, 169, 159, 182, 102, 173, 2, 0.268881
174, 6, wb, attraction, a-b-da, 5, 1, 6, 24, 132, 58, 135, 60, 60, 135, 3, 0.664089
174, 6, wb, attraction, a-b-da, 5, 1, 6, 24, 132, 58, 135, 60, 60, 135, 2, 0.436596
174, 6, wb, attraction, a-b-db, 5, 1, 6, 25, 58, 132, 60, 135, 135, 60, 3, 0.952983
174, 6, wb, attraction, a-b-db, 5, 1, 6, 25, 58, 132, 60, 135, 135, 60, 1, 0.785989
174, 6, wb, attraction, a-b-db, 5, 3, 6, 26, 117, 190, 195, 120, 120, 195, 2, 1.14433
174, 6, wb, attraction, a-b-db, 5, 3, 6, 26, 117, 190, 195, 120, 120, 195, 3, 0.273276
174, 6, wb, attraction, a-b-da, 2, 1, 6, 27, 135, 60, 60, 135, 134, 59, 2, 0.851769
174, 6, wb, attraction, a-b-da, 2, 1, 6, 27, 135, 60, 60, 135, 134, 59, 3, 0.936913
174, 6, wb, attraction, a-b-da, 9, 3, 6, 28, 120, 195, 195, 120, 186, 114, 3, 0.633195
174, 6, wb, attraction, a-b-da, 9, 3, 6, 28, 120, 195, 195, 120, 186, 114, 1, 0.35902
174, 6, wb, filler, NA, 999, 999, 6, 29, 78, 159, 180, 63, 178, 64, 3, 0.814129
174, 6, wb, filler, NA, 999, 999, 6, 29, 78, 159, 180, 63, 178, 64, 1, 0.548467
174, 6, wb, attraction, a-b-db, 2, 2, 6, 30, 165, 90, 90, 165, 89, 163, 2, 0.580284
174, 6, wb, attraction, a-b-db, 2, 2, 6, 30, 165, 90, 90, 165, 89, 163, 1, 0.532158
174, 6, wb, filler, NA, 999, 999, 6, 31, 71, 152, 162, 134, 82, 94, 3, 0.620551
174, 6, wb, filler, NA, 999, 999, 6, 31, 71, 152, 162, 134, 82, 94, 2, 0.618949
174, 6, wb, attraction, a-b-da, 14, 3, 6, 32, 120, 195, 181, 111, 195, 120, 3, 0.783991
174, 6, wb, attraction, a-b-da, 14, 3, 6, 32, 120, 195, 181, 111, 195, 120, 1, 0.327808
174, 6, wb, attraction, a-b-db, 2, 1, 6, 33, 60, 135, 59, 134, 135, 60, 2, 0.696303
174, 6, wb, attraction, a-b-db, 2, 1, 6, 33, 60, 135, 59, 134, 135, 60, 3, 0.515448
174, 6, wb, catch, NA, 999, 999, 6, 34, 154, 161, 73, 122, 162, 93, 2, 0.540475
174, 6, wb, catch, NA, 999, 999, 6, 34, 154, 161, 73, 122, 162, 93, 1, 0.269528
174, 6, wb, filler, NA, 999, 999, 6, 35, 181, 115, 168, 123, 66, 79, 3, 0.600757
174, 6, wb, filler, NA, 999, 999, 6, 35, 181, 115, 168, 123, 66, 79, 2, 0.263935
174, 6, wb, attraction, a-b-da, 9, 1, 6, 36, 129, 57, 60, 135, 135, 60, 2, 1.08311
174, 6, wb, attraction, a-b-da, 9, 1, 6, 36, 129, 57, 60, 135, 135, 60, 3, 0.398762
174, 6, wb, attraction, a-b-da, 14, 1, 6, 37, 135, 60, 125, 56, 60, 135, 3, 0.71652
174, 6, wb, attraction, a-b-da, 14, 1, 6, 37, 135, 60, 125, 56, 60, 135, 1, 0.399014
174, 6, wb, attraction, a-b-db, 2, 1, 7, 1, 59, 134, 135, 60, 60, 135, 2, 0.572748
174, 6, wb, attraction, a-b-db, 2, 1, 7, 1, 59, 134, 135, 60, 60, 135, 3, 0.404648
174, 6, wb, attraction, a-b-db, 9, 1, 7, 2, 60, 135, 135, 60, 57, 129, 3, 0.642458
174, 6, wb, attraction, a-b-db, 9, 1, 7, 2, 60, 135, 135, 60, 57, 129, 1, 0.39949
174, 6, wb, attraction, a-b-db, 14, 2, 7, 3, 83, 153, 90, 165, 165, 90, 3, 0.861396
174, 6, wb, attraction, a-b-db, 14, 2, 7, 3, 83, 153, 90, 165, 165, 90, 1, 0.385677
174, 6, wb, filler, NA, 999, 999, 7, 4, 148, 68, 124, 92, 85, 153, 2, 0.640191
174, 6, wb, filler, NA, 999, 999, 7, 4, 148, 68, 124, 92, 85, 153, 3, 0.733304
174, 6, wb, catch, NA, 999, 999, 7, 5, 151, 104, 172, 143, 101, 94, 3, 0.589789
174, 6, wb, catch, NA, 999, 999, 7, 5, 151, 104, 172, 143, 101, 94, 2, 0.716741
174, 6, wb, attraction, a-b-db, 2, 3, 7, 6, 120, 195, 119, 193, 195, 120, 2, 0.76585
174, 6, wb, attraction, a-b-db, 2, 3, 7, 6, 120, 195, 119, 193, 195, 120, 3, 0.49429
174, 6, wb, filler, NA, 999, 999, 7, 7, 83, 132, 167, 152, 63, 59, 3, 0.95205
174, 6, wb, filler, NA, 999, 999, 7, 7, 83, 132, 167, 152, 63, 59, 2, 0.337042
174, 6, wb, attraction, a-b-db, 5, 3, 7, 8, 120, 195, 117, 190, 195, 120, 2, 0.529565
174, 6, wb, attraction, a-b-db, 5, 3, 7, 8, 120, 195, 117, 190, 195, 120, 3, 0.427492
174, 6, wb, attraction, a-b-da, 5, 2, 7, 9, 90, 165, 165, 90, 161, 88, 3, 1.44781
174, 6, wb, attraction, a-b-da, 5, 2, 7, 9, 90, 165, 165, 90, 161, 88, 1, 0.508765
174, 6, wb, attraction, a-b-da, 9, 2, 7, 10, 165, 90, 157, 86, 90, 165, 3, 0.789756
174, 6, wb, attraction, a-b-da, 9, 2, 7, 10, 165, 90, 157, 86, 90, 165, 1, 0.43686
174, 6, wb, filler, NA, 999, 999, 7, 11, 169, 96, 74, 119, 171, 112, 2, 0.489349
174, 6, wb, filler, NA, 999, 999, 7, 11, 169, 96, 74, 119, 171, 112, 3, 0.308538
174, 6, wb, attraction, a-b-da, 14, 1, 7, 12, 135, 60, 125, 56, 60, 135, 3, 0.893731
174, 6, wb, attraction, a-b-da, 14, 1, 7, 12, 135, 60, 125, 56, 60, 135, 1, 1.26466
174, 6, wb, catch, NA, 999, 999, 7, 13, 123, 132, 80, 115, 187, 128, 2, 0.507547
174, 6, wb, catch, NA, 999, 999, 7, 13, 123, 132, 80, 115, 187, 128, 3, 0.270032
174, 6, wb, filler, NA, 999, 999, 7, 14, 69, 68, 105, 69, 85, 85, 1, 0.977225
174, 6, wb, filler, NA, 999, 999, 7, 14, 69, 68, 105, 69, 85, 85, 2, 0.976966
174, 6, wb, attraction, a-b-da, 2, 3, 7, 15, 120, 195, 193, 119, 195, 120, 3, 1.83123
174, 6, wb, attraction, a-b-da, 2, 3, 7, 15, 120, 195, 193, 119, 195, 120, 2, 0.612618
174, 6, wb, filler, NA, 999, 999, 7, 16, 97, 163, 184, 176, 113, 86, 3, 2.47369
174, 6, wb, filler, NA, 999, 999, 7, 16, 97, 163, 184, 176, 113, 86, 2, 0.24489
174, 6, wb, attraction, a-b-da, 2, 2, 7, 17, 90, 165, 163, 89, 165, 90, 2, 0.61668
174, 6, wb, attraction, a-b-da, 2, 2, 7, 17, 90, 165, 163, 89, 165, 90, 3, 0.295181
174, 6, wb, attraction, a-b-da, 5, 1, 7, 18, 132, 58, 60, 135, 135, 60, 2, 0.561006
174, 6, wb, attraction, a-b-da, 5, 1, 7, 18, 132, 58, 60, 135, 135, 60, 3, 0.897529
174, 6, wb, filler, NA, 999, 999, 7, 19, 101, 171, 129, 145, 161, 89, 1, 1.03518
174, 6, wb, filler, NA, 999, 999, 7, 19, 101, 171, 129, 145, 161, 89, 2, 1.05686
174, 6, wb, attraction, a-b-db, 14, 1, 7, 20, 135, 60, 60, 135, 56, 125, 3, 0.819789
174, 6, wb, attraction, a-b-db, 14, 1, 7, 20, 135, 60, 60, 135, 56, 125, 1, 0.394279
174, 6, wb, catch, NA, 999, 999, 7, 21, 110, 85, 158, 97, 164, 151, 1, 0.927972
174, 6, wb, catch, NA, 999, 999, 7, 21, 110, 85, 158, 97, 164, 151, 3, 0.249671
174, 6, wb, attraction, a-b-db, 14, 3, 7, 22, 111, 181, 120, 195, 195, 120, 1, 0.997513
174, 6, wb, attraction, a-b-db, 14, 3, 7, 22, 111, 181, 120, 195, 195, 120, 2, 0.252493
174, 6, wb, attraction, a-b-da, 9, 3, 7, 23, 120, 195, 195, 120, 186, 114, 3, 1.21644
174, 6, wb, attraction, a-b-da, 9, 3, 7, 23, 120, 195, 195, 120, 186, 114, 2, 0.262763
174, 6, wb, attraction, a-b-db, 9, 3, 7, 24, 120, 195, 195, 120, 114, 186, 3, 0.793809
174, 6, wb, attraction, a-b-db, 9, 3, 7, 24, 120, 195, 195, 120, 114, 186, 2, 0.264903
174, 6, wb, filler, NA, 999, 999, 7, 25, 105, 123, 182, 156, 133, 62, 1, 1.03608
174, 6, wb, filler, NA, 999, 999, 7, 25, 105, 123, 182, 156, 133, 62, 2, 0.24986
174, 6, wb, filler, NA, 999, 999, 7, 26, 172, 126, 171, 84, 128, 117, 3, 1.05366
174, 6, wb, filler, NA, 999, 999, 7, 26, 172, 126, 171, 84, 128, 117, 1, 0.274512
174, 6, wb, attraction, a-b-db, 5, 2, 7, 27, 88, 161, 90, 165, 165, 90, 2, 0.65316
174, 6, wb, attraction, a-b-db, 5, 2, 7, 27, 88, 161, 90, 165, 165, 90, 3, 0.25022
174, 6, wb, attraction, a-b-db, 9, 2, 7, 28, 165, 90, 90, 165, 86, 157, 2, 0.734218
174, 6, wb, attraction, a-b-db, 9, 2, 7, 28, 165, 90, 90, 165, 86, 157, 1, 0.295826
174, 6, wb, attraction, a-b-da, 14, 2, 7, 29, 90, 165, 165, 90, 153, 83, 3, 0.689676
174, 6, wb, attraction, a-b-da, 14, 2, 7, 29, 90, 165, 165, 90, 153, 83, 2, 0.236712
174, 6, wb, attraction, a-b-da, 14, 3, 7, 30, 181, 111, 120, 195, 195, 120, 1, 1.31324
174, 6, wb, attraction, a-b-da, 14, 3, 7, 30, 181, 111, 120, 195, 195, 120, 2, 0.299596
174, 6, wb, attraction, a-b-da, 5, 3, 7, 31, 120, 195, 190, 117, 195, 120, 2, 3.04542
174, 6, wb, attraction, a-b-da, 5, 3, 7, 31, 120, 195, 190, 117, 195, 120, 1, 0.425723
174, 6, wb, attraction, a-b-da, 2, 1, 7, 32, 60, 135, 135, 60, 134, 59, 2, 1.84617
174, 6, wb, attraction, a-b-da, 2, 1, 7, 32, 60, 135, 135, 60, 134, 59, 3, 1.50797
174, 6, wb, filler, NA, 999, 999, 7, 33, 111, 110, 95, 125, 142, 59, 3, 2.2917
174, 6, wb, filler, NA, 999, 999, 7, 33, 111, 110, 95, 125, 142, 59, 1, 2.43837
174, 6, wb, filler, NA, 999, 999, 7, 34, 66, 181, 85, 155, 116, 123, 1, 3.57019
174, 6, wb, filler, NA, 999, 999, 7, 34, 66, 181, 85, 155, 116, 123, 3, 2.48971
174, 6, wb, attraction, a-b-db, 5, 1, 7, 35, 58, 132, 60, 135, 135, 60, 1, 1.73958
174, 6, wb, attraction, a-b-db, 5, 1, 7, 35, 58, 132, 60, 135, 135, 60, 3, 0.604351
174, 6, wb, attraction, a-b-db, 2, 2, 7, 36, 165, 90, 90, 165, 89, 163, 3, 3.67404
174, 6, wb, attraction, a-b-db, 2, 2, 7, 36, 165, 90, 90, 165, 89, 163, 1, 0.492893
174, 6, wb, attraction, a-b-da, 9, 1, 7, 37, 60, 135, 135, 60, 129, 57, 1, 3.11063
174, 6, wb, attraction, a-b-da, 9, 1, 7, 37, 60, 135, 135, 60, 129, 57, 2, 0.816273
174, 6, wb, attraction, a-b-db, 14, 2, 8, 1, 83, 153, 165, 90, 90, 165, 1, 2.48538
174, 6, wb, attraction, a-b-db, 14, 2, 8, 1, 83, 153, 165, 90, 90, 165, 3, 0.656587
174, 6, wb, attraction, a-b-da, 5, 2, 8, 2, 161, 88, 165, 90, 90, 165, 3, 4.70761
174, 6, wb, attraction, a-b-da, 5, 2, 8, 2, 161, 88, 165, 90, 90, 165, 2, 0.708802
174, 6, wb, filler, NA, 999, 999, 8, 3, 113, 142, 168, 60, 112, 190, 2, 3.83782
174, 6, wb, filler, NA, 999, 999, 8, 3, 113, 142, 168, 60, 112, 190, 3, 0.401889
174, 6, wb, attraction, a-b-db, 2, 1, 8, 4, 135, 60, 60, 135, 59, 134, 2, 1.9597
174, 6, wb, attraction, a-b-db, 2, 1, 8, 4, 135, 60, 60, 135, 59, 134, 1, 3.7279
174, 6, wb, catch, NA, 999, 999, 8, 5, 120, 195, 121, 134, 132, 63, 3, 1.31914
174, 6, wb, catch, NA, 999, 999, 8, 5, 120, 195, 121, 134, 132, 63, 1, 1.84943
174, 6, wb, catch, NA, 999, 999, 8, 6, 125, 130, 189, 126, 120, 75, 3, 1.68486
174, 6, wb, catch, NA, 999, 999, 8, 6, 125, 130, 189, 126, 120, 75, 2, 0.288303
174, 6, wb, attraction, a-b-da, 2, 1, 8, 7, 60, 135, 134, 59, 135, 60, 1, 2.27477
174, 6, wb, attraction, a-b-da, 2, 1, 8, 7, 60, 135, 134, 59, 135, 60, 3, 1.20605
174, 6, wb, attraction, a-b-db, 2, 3, 8, 8, 120, 195, 119, 193, 195, 120, 2, 3.77957
174, 6, wb, attraction, a-b-db, 2, 3, 8, 8, 120, 195, 119, 193, 195, 120, 3, 1.04243
174, 6, wb, filler, NA, 999, 999, 8, 9, 119, 184, 180, 96, 66, 88, 3, 0.862186
174, 6, wb, filler, NA, 999, 999, 8, 9, 119, 184, 180, 96, 66, 88, 1, 0.378407
174, 6, wb, filler, NA, 999, 999, 8, 10, 106, 166, 161, 77, 173, 184, 2, 1.83286
174, 6, wb, filler, NA, 999, 999, 8, 10, 106, 166, 161, 77, 173, 184, 3, 0.246454
174, 6, wb, filler, NA, 999, 999, 8, 11, 144, 191, 74, 144, 77, 70, 3, 0.754107
174, 6, wb, filler, NA, 999, 999, 8, 11, 144, 191, 74, 144, 77, 70, 1, 0.299217
174, 6, wb, filler, NA, 999, 999, 8, 12, 122, 78, 144, 59, 117, 160, 1, 3.43704
174, 6, wb, filler, NA, 999, 999, 8, 12, 122, 78, 144, 59, 117, 160, 3, 0.443497
174, 6, wb, attraction, a-b-da, 14, 1, 8, 13, 135, 60, 125, 56, 60, 135, 2, 4.84582
174, 6, wb, attraction, a-b-da, 14, 1, 8, 13, 135, 60, 125, 56, 60, 135, 1, 0.657585
174, 6, wb, filler, NA, 999, 999, 8, 14, 124, 119, 101, 106, 132, 78, 2, 3.31676
174, 6, wb, filler, NA, 999, 999, 8, 14, 124, 119, 101, 106, 132, 78, 1, 0.558235
174, 6, wb, attraction, a-b-da, 5, 3, 8, 15, 120, 195, 190, 117, 195, 120, 2, 2.22937
174, 6, wb, attraction, a-b-da, 5, 3, 8, 15, 120, 195, 190, 117, 195, 120, 3, 0.626721
174, 6, wb, attraction, a-b-db, 9, 2, 8, 16, 165, 90, 90, 165, 86, 157, 2, 2.47899
174, 6, wb, attraction, a-b-db, 9, 2, 8, 16, 165, 90, 90, 165, 86, 157, 1, 0.314167
174, 6, wb, catch, NA, 999, 999, 8, 17, 175, 140, 128, 67, 105, 150, 2, 1.17139
174, 6, wb, catch, NA, 999, 999, 8, 17, 175, 140, 128, 67, 105, 150, 1, 0.242934
174, 6, wb, attraction, a-b-da, 9, 2, 8, 18, 90, 165, 157, 86, 165, 90, 1, 0.887
174, 6, wb, attraction, a-b-da, 9, 2, 8, 18, 90, 165, 157, 86, 165, 90, 2, 0.233891
174, 6, wb, attraction, a-b-db, 14, 3, 8, 19, 195, 120, 120, 195, 111, 181, 1, 2.02241
174, 6, wb, attraction, a-b-db, 14, 3, 8, 19, 195, 120, 120, 195, 111, 181, 2, 0.339679
174, 6, wb, attraction, a-b-da, 9, 1, 8, 20, 129, 57, 60, 135, 135, 60, 2, 5.51559
174, 6, wb, attraction, a-b-da, 9, 1, 8, 20, 129, 57, 60, 135, 135, 60, 1, 0.40454
174, 6, wb, attraction, a-b-da, 2, 2, 8, 21, 163, 89, 90, 165, 165, 90, 2, 0.482334
174, 6, wb, attraction, a-b-da, 2, 2, 8, 21, 163, 89, 90, 165, 165, 90, 1, 0.334133
174, 6, wb, attraction, a-b-db, 5, 3, 8, 22, 120, 195, 117, 190, 195, 120, 2, 0.326682
174, 6, wb, attraction, a-b-db, 5, 3, 8, 22, 120, 195, 117, 190, 195, 120, 3, 0.272569
174, 6, wb, filler, NA, 999, 999, 8, 23, 107, 94, 194, 108, 96, 172, 1, 0.931045
174, 6, wb, filler, NA, 999, 999, 8, 23, 107, 94, 194, 108, 96, 172, 2, 0.180725
174, 6, wb, attraction, a-b-db, 5, 2, 8, 24, 90, 165, 165, 90, 88, 161, 2, 1.68345
174, 6, wb, attraction, a-b-db, 5, 2, 8, 24, 90, 165, 165, 90, 88, 161, 1, 0.838612
174, 6, wb, attraction, a-b-da, 5, 1, 8, 25, 132, 58, 135, 60, 60, 135, 3, 1.95518
174, 6, wb, attraction, a-b-da, 5, 1, 8, 25, 132, 58, 135, 60, 60, 135, 2, 0.389504
174, 6, wb, filler, NA, 999, 999, 8, 26, 155, 68, 72, 146, 123, 60, 3, 1.27294
174, 6, wb, filler, NA, 999, 999, 8, 26, 155, 68, 72, 146, 123, 60, 1, 0.516456
174, 6, wb, attraction, a-b-da, 2, 3, 8, 27, 195, 120, 193, 119, 120, 195, 3, 1.61359
174, 6, wb, attraction, a-b-da, 2, 3, 8, 27, 195, 120, 193, 119, 120, 195, 1, 0.363703
174, 6, wb, attraction, a-b-da, 9, 3, 8, 28, 120, 195, 186, 114, 195, 120, 1, 1.61908
174, 6, wb, attraction, a-b-da, 9, 3, 8, 28, 120, 195, 186, 114, 195, 120, 2, 0.337105
174, 6, wb, attraction, a-b-db, 14, 1, 8, 29, 56, 125, 60, 135, 135, 60, 1, 1.28166
174, 6, wb, attraction, a-b-db, 14, 1, 8, 29, 56, 125, 60, 135, 135, 60, 2, 0.517203
174, 6, wb, filler, NA, 999, 999, 8, 30, 144, 69, 63, 88, 162, 115, 2, 2.35021
174, 6, wb, filler, NA, 999, 999, 8, 30, 144, 69, 63, 88, 162, 115, 3, 0.390775
174, 6, wb, attraction, a-b-da, 14, 3, 8, 31, 120, 195, 195, 120, 181, 111, 3, 1.86054
174, 6, wb, attraction, a-b-da, 14, 3, 8, 31, 120, 195, 195, 120, 181, 111, 2, 0.248621
174, 6, wb, attraction, a-b-da, 14, 2, 8, 32, 90, 165, 165, 90, 153, 83, 1, 0.772655
174, 6, wb, attraction, a-b-da, 14, 2, 8, 32, 90, 165, 165, 90, 153, 83, 2, 0.508342
174, 6, wb, attraction, a-b-db, 2, 2, 8, 33, 89, 163, 90, 165, 165, 90, 2, 0.533384
174, 6, wb, attraction, a-b-db, 2, 2, 8, 33, 89, 163, 90, 165, 165, 90, 3, 0.271234
174, 6, wb, attraction, a-b-db, 9, 3, 8, 34, 195, 120, 120, 195, 114, 186, 2, 0.434348
174, 6, wb, attraction, a-b-db, 9, 3, 8, 34, 195, 120, 120, 195, 114, 186, 1, 0.248322
174, 6, wb, attraction, a-b-db, 5, 1, 8, 35, 60, 135, 58, 132, 135, 60, 3, 0.684064
174, 6, wb, attraction, a-b-db, 5, 1, 8, 35, 60, 135, 58, 132, 135, 60, 2, 0.383863
174, 6, wb, attraction, a-b-db, 9, 1, 8, 36, 60, 135, 57, 129, 135, 60, 2, 0.654274
174, 6, wb, attraction, a-b-db, 9, 1, 8, 36, 60, 135, 57, 129, 135, 60, 3, 0.250725
174, 6, wb, filler, NA, 999, 999, 8, 37, 138, 101, 152, 129, 177, 160, 1, 0.502601
174, 6, wb, filler, NA, 999, 999, 8, 37, 138, 101, 152, 129, 177, 160, 2, 0.177738
