sub_n, computer_n, bw_cond, effect, set, distance, diag, block_n, trial_n, h1, w1, h2, w2, h3, w3, choice, rt 
158, 6, wb, practice, NA, 999, 999, 0, 1, 175, 145, 132, 114, 92, 107, 3, 6.39355
158, 6, wb, practice, NA, 999, 999, 0, 1, 175, 145, 132, 114, 92, 107, 1, 3.28319
158, 6, wb, practice, NA, 999, 999, 0, 2, 169, 129, 165, 65, 114, 92, 2, 7.83683
158, 6, wb, practice, NA, 999, 999, 0, 2, 169, 129, 165, 65, 114, 92, 1, 2.42017
158, 6, wb, practice, NA, 999, 999, 0, 3, 182, 138, 164, 133, 80, 182, 3, 9.6147
158, 6, wb, practice, NA, 999, 999, 0, 3, 182, 138, 164, 133, 80, 182, 1, 1.4255
158, 6, wb, attraction, a-b-da, 2, 1, 1, 1, 60, 135, 135, 60, 134, 59, 2, 13.2958
158, 6, wb, attraction, a-b-da, 2, 1, 1, 1, 60, 135, 135, 60, 134, 59, 1, 1.6709
158, 6, wb, attraction, a-b-da, 14, 3, 1, 2, 181, 111, 195, 120, 120, 195, 1, 11.8097
158, 6, wb, attraction, a-b-da, 14, 3, 1, 2, 181, 111, 195, 120, 120, 195, 3, 1.07661
158, 6, wb, attraction, a-b-da, 2, 2, 1, 3, 90, 165, 165, 90, 163, 89, 2, 9.56696
158, 6, wb, attraction, a-b-da, 2, 2, 1, 3, 90, 165, 165, 90, 163, 89, 1, 41.0605
158, 6, wb, filler, NA, 999, 999, 1, 4, 72, 138, 141, 65, 65, 157, 2, 6.78766
158, 6, wb, filler, NA, 999, 999, 1, 4, 72, 138, 141, 65, 65, 157, 3, 1.12147
158, 6, wb, attraction, a-b-db, 14, 1, 1, 5, 135, 60, 60, 135, 56, 125, 3, 3.47438
158, 6, wb, attraction, a-b-db, 14, 1, 1, 5, 135, 60, 60, 135, 56, 125, 2, 6.02127
158, 6, wb, attraction, a-b-db, 14, 2, 1, 6, 90, 165, 83, 153, 165, 90, 2, 5.93663
158, 6, wb, attraction, a-b-db, 14, 2, 1, 6, 90, 165, 83, 153, 165, 90, 1, 0.984739
158, 6, wb, attraction, a-b-db, 9, 3, 1, 7, 120, 195, 114, 186, 195, 120, 2, 5.58307
158, 6, wb, attraction, a-b-db, 9, 3, 1, 7, 120, 195, 114, 186, 195, 120, 3, 0.565319
158, 6, wb, catch, NA, 999, 999, 1, 8, 106, 89, 135, 120, 132, 183, 1, 1.46032
158, 6, wb, catch, NA, 999, 999, 1, 8, 106, 89, 135, 120, 132, 183, 3, 1.22472
158, 6, wb, attraction, a-b-db, 2, 1, 1, 9, 60, 135, 135, 60, 59, 134, 1, 7.34887
158, 6, wb, attraction, a-b-db, 2, 1, 1, 9, 60, 135, 135, 60, 59, 134, 3, 5.67589
158, 6, wb, catch, NA, 999, 999, 1, 10, 118, 77, 149, 166, 158, 97, 1, 2.98076
158, 6, wb, catch, NA, 999, 999, 1, 10, 118, 77, 149, 166, 158, 97, 2, 0.891844
158, 6, wb, filler, NA, 999, 999, 1, 11, 185, 110, 172, 123, 115, 90, 3, 3.04538
158, 6, wb, filler, NA, 999, 999, 1, 11, 185, 110, 172, 123, 115, 90, 2, 1.43374
158, 6, wb, filler, NA, 999, 999, 1, 12, 149, 88, 159, 134, 101, 68, 3, 3.79792
158, 6, wb, filler, NA, 999, 999, 1, 12, 149, 88, 159, 134, 101, 68, 2, 0.67613
158, 6, wb, attraction, a-b-da, 14, 1, 1, 13, 125, 56, 60, 135, 135, 60, 1, 3.15839
158, 6, wb, attraction, a-b-da, 14, 1, 1, 13, 125, 56, 60, 135, 135, 60, 2, 0.965983
158, 6, wb, attraction, a-b-db, 9, 2, 1, 14, 165, 90, 86, 157, 90, 165, 1, 11.5251
158, 6, wb, attraction, a-b-db, 9, 2, 1, 14, 165, 90, 86, 157, 90, 165, 3, 1.00351
158, 6, wb, attraction, a-b-db, 5, 1, 1, 15, 60, 135, 135, 60, 58, 132, 2, 3.80905
158, 6, wb, attraction, a-b-db, 5, 1, 1, 15, 60, 135, 135, 60, 58, 132, 3, 1.47043
158, 6, wb, catch, NA, 999, 999, 1, 16, 93, 102, 151, 104, 143, 172, 1, 1.03334
158, 6, wb, catch, NA, 999, 999, 1, 16, 93, 102, 151, 104, 143, 172, 3, 1.86323
158, 6, wb, attraction, a-b-db, 5, 2, 1, 17, 88, 161, 165, 90, 90, 165, 2, 6.24189
158, 6, wb, attraction, a-b-db, 5, 2, 1, 17, 88, 161, 165, 90, 90, 165, 3, 0.372967
158, 6, wb, attraction, a-b-db, 14, 3, 1, 18, 195, 120, 111, 181, 120, 195, 3, 2.00356
158, 6, wb, attraction, a-b-db, 14, 3, 1, 18, 195, 120, 111, 181, 120, 195, 1, 2.0022
158, 6, wb, filler, NA, 999, 999, 1, 19, 59, 111, 173, 99, 79, 103, 1, 1.39949
158, 6, wb, filler, NA, 999, 999, 1, 19, 59, 111, 173, 99, 79, 103, 2, 1.07848
158, 6, wb, filler, NA, 999, 999, 1, 20, 165, 195, 106, 56, 139, 78, 2, 1.08062
158, 6, wb, filler, NA, 999, 999, 1, 20, 165, 195, 106, 56, 139, 78, 1, 0.964266
158, 6, wb, filler, NA, 999, 999, 1, 21, 71, 87, 167, 139, 138, 111, 1, 1.12333
158, 6, wb, filler, NA, 999, 999, 1, 21, 71, 87, 167, 139, 138, 111, 2, 0.868846
158, 6, wb, attraction, a-b-db, 2, 2, 1, 22, 89, 163, 165, 90, 90, 165, 2, 3.296
158, 6, wb, attraction, a-b-db, 2, 2, 1, 22, 89, 163, 165, 90, 90, 165, 3, 0.450104
158, 6, wb, filler, NA, 999, 999, 1, 23, 126, 142, 110, 66, 139, 82, 2, 1.28594
158, 6, wb, filler, NA, 999, 999, 1, 23, 126, 142, 110, 66, 139, 82, 1, 0.665424
158, 6, wb, attraction, a-b-db, 5, 3, 1, 24, 120, 195, 117, 190, 195, 120, 3, 4.94049
158, 6, wb, attraction, a-b-db, 5, 3, 1, 24, 120, 195, 117, 190, 195, 120, 1, 0.620264
158, 6, wb, attraction, a-b-da, 5, 1, 1, 25, 132, 58, 60, 135, 135, 60, 2, 1.57737
158, 6, wb, attraction, a-b-da, 5, 1, 1, 25, 132, 58, 60, 135, 135, 60, 1, 1.26483
158, 6, wb, attraction, a-b-da, 5, 2, 1, 26, 90, 165, 165, 90, 161, 88, 3, 2.49987
158, 6, wb, attraction, a-b-da, 5, 2, 1, 26, 90, 165, 165, 90, 161, 88, 1, 0.590318
158, 6, wb, attraction, a-b-da, 5, 3, 1, 27, 120, 195, 195, 120, 190, 117, 3, 2.18009
158, 6, wb, attraction, a-b-da, 5, 3, 1, 27, 120, 195, 195, 120, 190, 117, 1, 0.787384
158, 6, wb, filler, NA, 999, 999, 1, 28, 135, 181, 69, 58, 58, 94, 2, 2.41773
158, 6, wb, filler, NA, 999, 999, 1, 28, 135, 181, 69, 58, 58, 94, 1, 0.743727
158, 6, wb, attraction, a-b-da, 2, 3, 1, 29, 193, 119, 195, 120, 120, 195, 1, 6.74339
158, 6, wb, attraction, a-b-da, 2, 3, 1, 29, 193, 119, 195, 120, 120, 195, 3, 0.470596
158, 6, wb, attraction, a-b-db, 2, 3, 1, 30, 119, 193, 195, 120, 120, 195, 1, 2.48979
158, 6, wb, attraction, a-b-db, 2, 3, 1, 30, 119, 193, 195, 120, 120, 195, 3, 0.996112
158, 6, wb, attraction, a-b-da, 9, 3, 1, 31, 120, 195, 195, 120, 186, 114, 2, 2.69775
158, 6, wb, attraction, a-b-da, 9, 3, 1, 31, 120, 195, 195, 120, 186, 114, 1, 0.532328
158, 6, wb, attraction, a-b-da, 14, 2, 1, 32, 90, 165, 165, 90, 153, 83, 2, 1.68472
158, 6, wb, attraction, a-b-da, 14, 2, 1, 32, 90, 165, 165, 90, 153, 83, 1, 0.736204
158, 6, wb, attraction, a-b-da, 9, 2, 1, 33, 165, 90, 157, 86, 90, 165, 2, 1.66466
158, 6, wb, attraction, a-b-da, 9, 2, 1, 33, 165, 90, 157, 86, 90, 165, 3, 0.652708
158, 6, wb, attraction, a-b-db, 9, 1, 1, 34, 60, 135, 135, 60, 57, 129, 1, 1.91236
158, 6, wb, attraction, a-b-db, 9, 1, 1, 34, 60, 135, 135, 60, 57, 129, 3, 1.16239
158, 6, wb, filler, NA, 999, 999, 1, 35, 163, 66, 142, 156, 59, 105, 3, 0.961463
158, 6, wb, filler, NA, 999, 999, 1, 35, 163, 66, 142, 156, 59, 105, 2, 0.633722
158, 6, wb, attraction, a-b-da, 9, 1, 1, 36, 60, 135, 129, 57, 135, 60, 2, 2.91818
158, 6, wb, attraction, a-b-da, 9, 1, 1, 36, 60, 135, 129, 57, 135, 60, 1, 0.567851
158, 6, wb, filler, NA, 999, 999, 1, 37, 185, 59, 98, 88, 113, 136, 2, 1.17508
158, 6, wb, filler, NA, 999, 999, 1, 37, 185, 59, 98, 88, 113, 136, 3, 0.47855
158, 6, wb, attraction, a-b-da, 14, 2, 2, 1, 165, 90, 90, 165, 153, 83, 3, 3.20101
158, 6, wb, attraction, a-b-da, 14, 2, 2, 1, 165, 90, 90, 165, 153, 83, 2, 0.831308
158, 6, wb, attraction, a-b-da, 9, 1, 2, 2, 129, 57, 60, 135, 135, 60, 1, 1.47564
158, 6, wb, attraction, a-b-da, 9, 1, 2, 2, 129, 57, 60, 135, 135, 60, 2, 1.27915
158, 6, wb, attraction, a-b-da, 2, 1, 2, 3, 60, 135, 134, 59, 135, 60, 2, 1.0733
158, 6, wb, attraction, a-b-da, 2, 1, 2, 3, 60, 135, 134, 59, 135, 60, 1, 0.420896
158, 6, wb, attraction, a-b-db, 14, 2, 2, 4, 165, 90, 83, 153, 90, 165, 2, 3.44221
158, 6, wb, attraction, a-b-db, 14, 2, 2, 4, 165, 90, 83, 153, 90, 165, 3, 0.662442
158, 6, wb, filler, NA, 999, 999, 2, 5, 171, 161, 109, 120, 148, 145, 2, 2.02543
158, 6, wb, filler, NA, 999, 999, 2, 5, 171, 161, 109, 120, 148, 145, 1, 0.414897
158, 6, wb, filler, NA, 999, 999, 2, 6, 177, 135, 190, 57, 83, 134, 3, 1.63588
158, 6, wb, filler, NA, 999, 999, 2, 6, 177, 135, 190, 57, 83, 134, 1, 0.529334
158, 6, wb, attraction, a-b-db, 2, 3, 2, 7, 119, 193, 195, 120, 120, 195, 2, 7.19389
158, 6, wb, attraction, a-b-db, 2, 3, 2, 7, 119, 193, 195, 120, 120, 195, 3, 0.342949
158, 6, wb, filler, NA, 999, 999, 2, 8, 62, 162, 132, 174, 119, 59, 3, 1.91082
158, 6, wb, filler, NA, 999, 999, 2, 8, 62, 162, 132, 174, 119, 59, 2, 0.496722
158, 6, wb, attraction, a-b-da, 5, 2, 2, 9, 90, 165, 161, 88, 165, 90, 2, 7.08261
158, 6, wb, attraction, a-b-da, 5, 2, 2, 9, 90, 165, 161, 88, 165, 90, 1, 0.460373
158, 6, wb, filler, NA, 999, 999, 2, 10, 87, 125, 147, 170, 123, 94, 1, 2.27955
158, 6, wb, filler, NA, 999, 999, 2, 10, 87, 125, 147, 170, 123, 94, 2, 0.498826
158, 6, wb, attraction, a-b-db, 14, 3, 2, 11, 111, 181, 120, 195, 195, 120, 1, 4.91658
158, 6, wb, attraction, a-b-db, 14, 3, 2, 11, 111, 181, 120, 195, 195, 120, 2, 0.397722
158, 6, wb, attraction, a-b-da, 2, 3, 2, 12, 195, 120, 193, 119, 120, 195, 2, 1.48338
158, 6, wb, attraction, a-b-da, 2, 3, 2, 12, 195, 120, 193, 119, 120, 195, 3, 0.4389
158, 6, wb, attraction, a-b-da, 9, 3, 2, 13, 186, 114, 120, 195, 195, 120, 1, 0.691389
158, 6, wb, attraction, a-b-da, 9, 3, 2, 13, 186, 114, 120, 195, 195, 120, 2, 0.414477
158, 6, wb, attraction, a-b-db, 2, 2, 2, 14, 90, 165, 165, 90, 89, 163, 2, 2.0036
158, 6, wb, attraction, a-b-db, 2, 2, 2, 14, 90, 165, 165, 90, 89, 163, 1, 0.641577
158, 6, wb, attraction, a-b-da, 2, 2, 2, 15, 163, 89, 165, 90, 90, 165, 2, 0.87735
158, 6, wb, attraction, a-b-da, 2, 2, 2, 15, 163, 89, 165, 90, 90, 165, 3, 0.817041
158, 6, wb, attraction, a-b-db, 5, 1, 2, 16, 58, 132, 60, 135, 135, 60, 1, 1.19818
158, 6, wb, attraction, a-b-db, 5, 1, 2, 16, 58, 132, 60, 135, 135, 60, 2, 0.477014
158, 6, wb, filler, NA, 999, 999, 2, 17, 100, 143, 150, 157, 172, 137, 1, 1.99946
158, 6, wb, filler, NA, 999, 999, 2, 17, 100, 143, 150, 157, 172, 137, 2, 0.678125
158, 6, wb, filler, NA, 999, 999, 2, 18, 98, 158, 86, 146, 151, 71, 3, 2.91259
158, 6, wb, filler, NA, 999, 999, 2, 18, 98, 158, 86, 146, 151, 71, 1, 4.07434
158, 6, wb, filler, NA, 999, 999, 2, 19, 101, 101, 139, 173, 75, 57, 3, 0.931646
158, 6, wb, filler, NA, 999, 999, 2, 19, 101, 101, 139, 173, 75, 57, 2, 1.09337
158, 6, wb, attraction, a-b-db, 9, 1, 2, 20, 135, 60, 57, 129, 60, 135, 3, 3.44689
158, 6, wb, attraction, a-b-db, 9, 1, 2, 20, 135, 60, 57, 129, 60, 135, 2, 1.08317
158, 6, wb, attraction, a-b-db, 9, 3, 2, 21, 120, 195, 195, 120, 114, 186, 2, 14.1574
158, 6, wb, attraction, a-b-db, 9, 3, 2, 21, 120, 195, 195, 120, 114, 186, 3, 0.482234
158, 6, wb, catch, NA, 999, 999, 2, 22, 117, 78, 189, 126, 156, 99, 1, 1.18871
158, 6, wb, catch, NA, 999, 999, 2, 22, 117, 78, 189, 126, 156, 99, 2, 0.771701
158, 6, wb, filler, NA, 999, 999, 2, 23, 168, 182, 168, 137, 190, 81, 3, 0.986717
158, 6, wb, filler, NA, 999, 999, 2, 23, 168, 182, 168, 137, 190, 81, 1, 0.986429
158, 6, wb, attraction, a-b-db, 14, 1, 2, 24, 135, 60, 60, 135, 56, 125, 3, 1.24874
158, 6, wb, attraction, a-b-db, 14, 1, 2, 24, 135, 60, 60, 135, 56, 125, 2, 1.96559
158, 6, wb, filler, NA, 999, 999, 2, 25, 159, 136, 64, 162, 173, 165, 2, 1.93231
158, 6, wb, filler, NA, 999, 999, 2, 25, 159, 136, 64, 162, 173, 165, 3, 0.445595
158, 6, wb, catch, NA, 999, 999, 2, 26, 82, 113, 142, 173, 126, 129, 1, 1.29752
158, 6, wb, catch, NA, 999, 999, 2, 26, 82, 113, 142, 173, 126, 129, 2, 0.860302
158, 6, wb, attraction, a-b-da, 5, 1, 2, 27, 132, 58, 135, 60, 60, 135, 2, 2.06332
158, 6, wb, attraction, a-b-da, 5, 1, 2, 27, 132, 58, 135, 60, 60, 135, 1, 1.29944
158, 6, wb, attraction, a-b-da, 9, 2, 2, 28, 157, 86, 165, 90, 90, 165, 1, 1.38884
158, 6, wb, attraction, a-b-da, 9, 2, 2, 28, 157, 86, 165, 90, 90, 165, 3, 0.715781
158, 6, wb, attraction, a-b-da, 14, 1, 2, 29, 135, 60, 60, 135, 125, 56, 2, 0.876788
158, 6, wb, attraction, a-b-da, 14, 1, 2, 29, 135, 60, 60, 135, 125, 56, 1, 1.15269
158, 6, wb, catch, NA, 999, 999, 2, 30, 144, 171, 118, 137, 69, 126, 3, 1.46407
158, 6, wb, catch, NA, 999, 999, 2, 30, 144, 171, 118, 137, 69, 126, 1, 0.812297
158, 6, wb, attraction, a-b-db, 5, 2, 2, 31, 88, 161, 90, 165, 165, 90, 1, 1.55326
158, 6, wb, attraction, a-b-db, 5, 2, 2, 31, 88, 161, 90, 165, 165, 90, 3, 1.15417
158, 6, wb, filler, NA, 999, 999, 2, 32, 173, 85, 184, 73, 80, 76, 3, 1.01762
158, 6, wb, filler, NA, 999, 999, 2, 32, 173, 85, 184, 73, 80, 76, 1, 2.15195
158, 6, wb, attraction, a-b-db, 5, 3, 2, 33, 117, 190, 120, 195, 195, 120, 1, 4.74327
158, 6, wb, attraction, a-b-db, 5, 3, 2, 33, 117, 190, 120, 195, 195, 120, 3, 0.487117
158, 6, wb, attraction, a-b-da, 14, 3, 2, 34, 195, 120, 181, 111, 120, 195, 2, 1.44159
158, 6, wb, attraction, a-b-da, 14, 3, 2, 34, 195, 120, 181, 111, 120, 195, 3, 0.470436
158, 6, wb, attraction, a-b-db, 9, 2, 2, 35, 90, 165, 86, 157, 165, 90, 2, 0.833528
158, 6, wb, attraction, a-b-db, 9, 2, 2, 35, 90, 165, 86, 157, 165, 90, 3, 0.67929
158, 6, wb, attraction, a-b-da, 5, 3, 2, 36, 190, 117, 120, 195, 195, 120, 2, 1.08964
158, 6, wb, attraction, a-b-da, 5, 3, 2, 36, 190, 117, 120, 195, 195, 120, 3, 3.42078
158, 6, wb, attraction, a-b-db, 2, 1, 2, 37, 60, 135, 59, 134, 135, 60, 1, 1.50475
158, 6, wb, attraction, a-b-db, 2, 1, 2, 37, 60, 135, 59, 134, 135, 60, 3, 0.882963
158, 6, wb, filler, NA, 999, 999, 3, 1, 146, 148, 130, 123, 172, 88, 2, 2.26133
158, 6, wb, filler, NA, 999, 999, 3, 1, 146, 148, 130, 123, 172, 88, 1, 0.681312
158, 6, wb, attraction, a-b-db, 5, 1, 3, 2, 135, 60, 58, 132, 60, 135, 1, 4.86773
158, 6, wb, attraction, a-b-db, 5, 1, 3, 2, 135, 60, 58, 132, 60, 135, 2, 1.13492
158, 6, wb, filler, NA, 999, 999, 3, 3, 126, 115, 56, 133, 102, 110, 2, 1.20699
158, 6, wb, filler, NA, 999, 999, 3, 3, 126, 115, 56, 133, 102, 110, 1, 1.95739
158, 6, wb, catch, NA, 999, 999, 3, 4, 168, 147, 154, 101, 105, 90, 3, 1.81997
158, 6, wb, catch, NA, 999, 999, 3, 4, 168, 147, 154, 101, 105, 90, 1, 0.762036
158, 6, wb, attraction, a-b-db, 9, 1, 3, 5, 60, 135, 57, 129, 135, 60, 3, 1.72913
158, 6, wb, attraction, a-b-db, 9, 1, 3, 5, 60, 135, 57, 129, 135, 60, 2, 0.482637
158, 6, wb, attraction, a-b-db, 5, 2, 3, 6, 90, 165, 165, 90, 88, 161, 1, 1.50891
158, 6, wb, attraction, a-b-db, 5, 2, 3, 6, 90, 165, 165, 90, 88, 161, 3, 3.07917
158, 6, wb, attraction, a-b-db, 14, 2, 3, 7, 90, 165, 165, 90, 83, 153, 2, 3.4328
158, 6, wb, attraction, a-b-db, 14, 2, 3, 7, 90, 165, 165, 90, 83, 153, 1, 2.85383
158, 6, wb, attraction, a-b-da, 9, 3, 3, 8, 120, 195, 186, 114, 195, 120, 2, 4.42472
158, 6, wb, attraction, a-b-da, 9, 3, 3, 8, 120, 195, 186, 114, 195, 120, 1, 0.725266
158, 6, wb, attraction, a-b-da, 5, 1, 3, 9, 60, 135, 135, 60, 132, 58, 1, 5.10981
158, 6, wb, attraction, a-b-da, 5, 1, 3, 9, 60, 135, 135, 60, 132, 58, 3, 0.974814
158, 6, wb, filler, NA, 999, 999, 3, 10, 102, 73, 96, 114, 138, 188, 2, 1.15699
158, 6, wb, filler, NA, 999, 999, 3, 10, 102, 73, 96, 114, 138, 188, 3, 4.51738
158, 6, wb, attraction, a-b-da, 2, 1, 3, 11, 60, 135, 134, 59, 135, 60, 2, 3.9252
158, 6, wb, attraction, a-b-da, 2, 1, 3, 11, 60, 135, 134, 59, 135, 60, 1, 0.726028
158, 6, wb, filler, NA, 999, 999, 3, 12, 160, 170, 134, 167, 106, 183, 3, 1.69434
158, 6, wb, filler, NA, 999, 999, 3, 12, 160, 170, 134, 167, 106, 183, 1, 0.616999
158, 6, wb, attraction, a-b-db, 9, 2, 3, 13, 165, 90, 90, 165, 86, 157, 3, 31.2622
158, 6, wb, attraction, a-b-db, 9, 2, 3, 13, 165, 90, 90, 165, 86, 157, 2, 2.70576
158, 6, wb, attraction, a-b-da, 14, 3, 3, 14, 120, 195, 181, 111, 195, 120, 3, 8.52289
158, 6, wb, attraction, a-b-da, 14, 3, 3, 14, 120, 195, 181, 111, 195, 120, 1, 1.07477
158, 6, wb, attraction, a-b-da, 2, 3, 3, 15, 195, 120, 193, 119, 120, 195, 1, 6.221
158, 6, wb, attraction, a-b-da, 2, 3, 3, 15, 195, 120, 193, 119, 120, 195, 3, 0.561699
158, 6, wb, attraction, a-b-db, 5, 3, 3, 16, 120, 195, 195, 120, 117, 190, 3, 3.25681
158, 6, wb, attraction, a-b-db, 5, 3, 3, 16, 120, 195, 195, 120, 117, 190, 1, 0.636384
158, 6, wb, attraction, a-b-da, 9, 1, 3, 17, 129, 57, 60, 135, 135, 60, 3, 4.14487
158, 6, wb, attraction, a-b-da, 9, 1, 3, 17, 129, 57, 60, 135, 135, 60, 1, 1.47292
158, 6, wb, attraction, a-b-db, 2, 3, 3, 18, 119, 193, 120, 195, 195, 120, 1, 1.39506
158, 6, wb, attraction, a-b-db, 2, 3, 3, 18, 119, 193, 120, 195, 195, 120, 2, 11.9539
158, 6, wb, attraction, a-b-da, 5, 3, 3, 19, 120, 195, 190, 117, 195, 120, 1, 1.56632
158, 6, wb, attraction, a-b-da, 5, 3, 3, 19, 120, 195, 190, 117, 195, 120, 2, 0.854331
158, 6, wb, attraction, a-b-db, 14, 1, 3, 20, 60, 135, 135, 60, 56, 125, 3, 1.24198
158, 6, wb, attraction, a-b-db, 14, 1, 3, 20, 60, 135, 135, 60, 56, 125, 1, 3.14303
158, 6, wb, filler, NA, 999, 999, 3, 21, 110, 65, 151, 121, 88, 126, 1, 10.6778
158, 6, wb, filler, NA, 999, 999, 3, 21, 110, 65, 151, 121, 88, 126, 2, 0.470374
158, 6, wb, attraction, a-b-da, 9, 2, 3, 22, 90, 165, 157, 86, 165, 90, 2, 11.7617
158, 6, wb, attraction, a-b-da, 9, 2, 3, 22, 90, 165, 157, 86, 165, 90, 3, 0.542516
158, 6, wb, attraction, a-b-da, 5, 2, 3, 23, 90, 165, 161, 88, 165, 90, 2, 5.09428
158, 6, wb, attraction, a-b-da, 5, 2, 3, 23, 90, 165, 161, 88, 165, 90, 3, 0.704052
158, 6, wb, filler, NA, 999, 999, 3, 24, 162, 119, 66, 94, 150, 113, 2, 0.953809
158, 6, wb, filler, NA, 999, 999, 3, 24, 162, 119, 66, 94, 150, 113, 1, 0.538143
158, 6, wb, attraction, a-b-da, 2, 2, 3, 25, 90, 165, 163, 89, 165, 90, 1, 1.41856
158, 6, wb, attraction, a-b-da, 2, 2, 3, 25, 90, 165, 163, 89, 165, 90, 3, 1.27271
158, 6, wb, filler, NA, 999, 999, 3, 26, 179, 124, 154, 142, 125, 96, 3, 1.52289
158, 6, wb, filler, NA, 999, 999, 3, 26, 179, 124, 154, 142, 125, 96, 1, 0.5084
158, 6, wb, attraction, a-b-da, 14, 1, 3, 27, 125, 56, 60, 135, 135, 60, 1, 18.2536
158, 6, wb, attraction, a-b-da, 14, 1, 3, 27, 125, 56, 60, 135, 135, 60, 3, 0.725273
158, 6, wb, filler, NA, 999, 999, 3, 28, 139, 160, 189, 136, 153, 99, 3, 21.3974
158, 6, wb, filler, NA, 999, 999, 3, 28, 139, 160, 189, 136, 153, 99, 2, 0.510287
158, 6, wb, attraction, a-b-db, 14, 3, 3, 29, 120, 195, 111, 181, 195, 120, 1, 2.5112
158, 6, wb, attraction, a-b-db, 14, 3, 3, 29, 120, 195, 111, 181, 195, 120, 2, 0.633249
158, 6, wb, catch, NA, 999, 999, 3, 30, 104, 91, 151, 164, 114, 141, 1, 0.749623
158, 6, wb, catch, NA, 999, 999, 3, 30, 104, 91, 151, 164, 114, 141, 2, 0.494662
158, 6, wb, attraction, a-b-db, 9, 3, 3, 31, 195, 120, 120, 195, 114, 186, 1, 2.51237
158, 6, wb, attraction, a-b-db, 9, 3, 3, 31, 195, 120, 120, 195, 114, 186, 2, 0.578186
158, 6, wb, attraction, a-b-db, 2, 2, 3, 32, 165, 90, 90, 165, 89, 163, 2, 21.6567
158, 6, wb, attraction, a-b-db, 2, 2, 3, 32, 165, 90, 90, 165, 89, 163, 1, 0.735175
158, 6, wb, filler, NA, 999, 999, 3, 33, 180, 166, 67, 152, 189, 100, 2, 1.63159
158, 6, wb, filler, NA, 999, 999, 3, 33, 180, 166, 67, 152, 189, 100, 1, 0.508988
158, 6, wb, catch, NA, 999, 999, 3, 34, 179, 136, 61, 134, 159, 96, 2, 1.03008
158, 6, wb, catch, NA, 999, 999, 3, 34, 179, 136, 61, 134, 159, 96, 1, 0.587837
158, 6, wb, attraction, a-b-da, 14, 2, 3, 35, 165, 90, 90, 165, 153, 83, 3, 32.3943
158, 6, wb, attraction, a-b-da, 14, 2, 3, 35, 165, 90, 90, 165, 153, 83, 2, 1.20018
158, 6, wb, attraction, a-b-db, 2, 1, 3, 36, 60, 135, 135, 60, 59, 134, 2, 18.7656
158, 6, wb, attraction, a-b-db, 2, 1, 3, 36, 60, 135, 135, 60, 59, 134, 1, 0.456409
158, 6, wb, filler, NA, 999, 999, 3, 37, 138, 122, 172, 142, 171, 163, 1, 1.19558
158, 6, wb, filler, NA, 999, 999, 3, 37, 138, 122, 172, 142, 171, 163, 3, 0.55445
158, 6, wb, filler, NA, 999, 999, 4, 1, 92, 144, 85, 89, 187, 114, 2, 0.634371
158, 6, wb, filler, NA, 999, 999, 4, 1, 92, 144, 85, 89, 187, 114, 3, 0.59206
158, 6, wb, filler, NA, 999, 999, 4, 2, 122, 180, 112, 73, 138, 153, 2, 1.03774
158, 6, wb, filler, NA, 999, 999, 4, 2, 122, 180, 112, 73, 138, 153, 3, 0.714813
158, 6, wb, attraction, a-b-db, 2, 3, 4, 3, 119, 193, 120, 195, 195, 120, 1, 1.23574
158, 6, wb, attraction, a-b-db, 2, 3, 4, 3, 119, 193, 120, 195, 195, 120, 2, 1.04136
158, 6, wb, attraction, a-b-db, 9, 3, 4, 4, 195, 120, 114, 186, 120, 195, 1, 4.92503
158, 6, wb, attraction, a-b-db, 9, 3, 4, 4, 195, 120, 114, 186, 120, 195, 3, 0.437537
158, 6, wb, attraction, a-b-da, 5, 1, 4, 5, 135, 60, 60, 135, 132, 58, 1, 1.93793
158, 6, wb, attraction, a-b-da, 5, 1, 4, 5, 135, 60, 60, 135, 132, 58, 2, 0.33865
158, 6, wb, attraction, a-b-da, 2, 3, 4, 6, 120, 195, 193, 119, 195, 120, 2, 2.51513
158, 6, wb, attraction, a-b-da, 2, 3, 4, 6, 120, 195, 193, 119, 195, 120, 3, 0.917106
158, 6, wb, attraction, a-b-da, 9, 2, 4, 7, 90, 165, 157, 86, 165, 90, 2, 1.83803
158, 6, wb, attraction, a-b-da, 9, 2, 4, 7, 90, 165, 157, 86, 165, 90, 1, 0.338642
158, 6, wb, attraction, a-b-da, 9, 1, 4, 8, 135, 60, 60, 135, 129, 57, 2, 0.803154
158, 6, wb, attraction, a-b-da, 9, 1, 4, 8, 135, 60, 60, 135, 129, 57, 1, 0.434243
158, 6, wb, attraction, a-b-db, 14, 1, 4, 9, 56, 125, 60, 135, 135, 60, 1, 1.32684
158, 6, wb, attraction, a-b-db, 14, 1, 4, 9, 56, 125, 60, 135, 135, 60, 2, 0.608306
158, 6, wb, filler, NA, 999, 999, 4, 10, 122, 120, 129, 81, 176, 70, 2, 0.933411
158, 6, wb, filler, NA, 999, 999, 4, 10, 122, 120, 129, 81, 176, 70, 1, 0.463086
158, 6, wb, attraction, a-b-db, 9, 2, 4, 11, 86, 157, 165, 90, 90, 165, 1, 1.34624
158, 6, wb, attraction, a-b-db, 9, 2, 4, 11, 86, 157, 165, 90, 90, 165, 3, 0.571107
158, 6, wb, catch, NA, 999, 999, 4, 12, 103, 92, 141, 174, 139, 116, 1, 0.554168
158, 6, wb, catch, NA, 999, 999, 4, 12, 103, 92, 141, 174, 139, 116, 2, 0.32264
158, 6, wb, attraction, a-b-db, 5, 2, 4, 13, 165, 90, 88, 161, 90, 165, 2, 1.89123
158, 6, wb, attraction, a-b-db, 5, 2, 4, 13, 165, 90, 88, 161, 90, 165, 1, 0.685821
158, 6, wb, attraction, a-b-da, 5, 3, 4, 14, 195, 120, 120, 195, 190, 117, 1, 3.32032
158, 6, wb, attraction, a-b-da, 5, 3, 4, 14, 195, 120, 120, 195, 190, 117, 2, 0.42584
158, 6, wb, attraction, a-b-da, 14, 1, 4, 15, 60, 135, 125, 56, 135, 60, 1, 3.07838
158, 6, wb, attraction, a-b-da, 14, 1, 4, 15, 60, 135, 125, 56, 135, 60, 2, 1.04944
158, 6, wb, attraction, a-b-db, 14, 3, 4, 16, 111, 181, 195, 120, 120, 195, 1, 2.61295
158, 6, wb, attraction, a-b-db, 14, 3, 4, 16, 111, 181, 195, 120, 120, 195, 2, 0.666794
158, 6, wb, attraction, a-b-db, 2, 2, 4, 17, 90, 165, 89, 163, 165, 90, 1, 1.00581
158, 6, wb, attraction, a-b-db, 2, 2, 4, 17, 90, 165, 89, 163, 165, 90, 2, 0.484139
158, 6, wb, attraction, a-b-da, 9, 3, 4, 18, 186, 114, 195, 120, 120, 195, 3, 1.27861
158, 6, wb, attraction, a-b-da, 9, 3, 4, 18, 186, 114, 195, 120, 120, 195, 2, 0.322235
158, 6, wb, filler, NA, 999, 999, 4, 19, 159, 83, 121, 94, 77, 87, 3, 0.971384
158, 6, wb, filler, NA, 999, 999, 4, 19, 159, 83, 121, 94, 77, 87, 1, 1.299
158, 6, wb, attraction, a-b-db, 2, 1, 4, 20, 59, 134, 135, 60, 60, 135, 3, 1.42853
158, 6, wb, attraction, a-b-db, 2, 1, 4, 20, 59, 134, 135, 60, 60, 135, 2, 0.834307
158, 6, wb, attraction, a-b-da, 14, 3, 4, 21, 195, 120, 181, 111, 120, 195, 1, 1.44646
158, 6, wb, attraction, a-b-da, 14, 3, 4, 21, 195, 120, 181, 111, 120, 195, 2, 3.05936
158, 6, wb, attraction, a-b-db, 5, 3, 4, 22, 195, 120, 120, 195, 117, 190, 2, 14.6297
158, 6, wb, attraction, a-b-db, 5, 3, 4, 22, 195, 120, 120, 195, 117, 190, 1, 0.519041
158, 6, wb, filler, NA, 999, 999, 4, 23, 68, 105, 58, 179, 144, 180, 1, 1.66416
158, 6, wb, filler, NA, 999, 999, 4, 23, 68, 105, 58, 179, 144, 180, 3, 2.02837
158, 6, wb, filler, NA, 999, 999, 4, 24, 120, 157, 188, 78, 167, 80, 3, 1.97635
158, 6, wb, filler, NA, 999, 999, 4, 24, 120, 157, 188, 78, 167, 80, 1, 14.0796
158, 6, wb, attraction, a-b-da, 2, 2, 4, 25, 90, 165, 165, 90, 163, 89, 2, 0.749735
158, 6, wb, attraction, a-b-da, 2, 2, 4, 25, 90, 165, 165, 90, 163, 89, 1, 0.422944
158, 6, wb, catch, NA, 999, 999, 4, 26, 170, 145, 101, 154, 106, 89, 3, 1.36357
158, 6, wb, catch, NA, 999, 999, 4, 26, 170, 145, 101, 154, 106, 89, 1, 12.1236
158, 6, wb, filler, NA, 999, 999, 4, 27, 127, 128, 64, 188, 130, 65, 3, 12.889
158, 6, wb, filler, NA, 999, 999, 4, 27, 127, 128, 64, 188, 130, 65, 1, 0.752984
158, 6, wb, filler, NA, 999, 999, 4, 28, 67, 192, 187, 65, 112, 124, 2, 1.68071
158, 6, wb, filler, NA, 999, 999, 4, 28, 67, 192, 187, 65, 112, 124, 3, 0.540379
158, 6, wb, attraction, a-b-da, 2, 1, 4, 29, 135, 60, 60, 135, 134, 59, 2, 0.667941
158, 6, wb, attraction, a-b-da, 2, 1, 4, 29, 135, 60, 60, 135, 134, 59, 1, 0.944324
158, 6, wb, attraction, a-b-db, 14, 2, 4, 30, 90, 165, 83, 153, 165, 90, 2, 1.22409
158, 6, wb, attraction, a-b-db, 14, 2, 4, 30, 90, 165, 83, 153, 165, 90, 3, 0.429579
158, 6, wb, filler, NA, 999, 999, 4, 31, 140, 58, 142, 129, 119, 57, 3, 1.27402
158, 6, wb, filler, NA, 999, 999, 4, 31, 140, 58, 142, 129, 119, 57, 2, 0.629857
158, 6, wb, attraction, a-b-da, 5, 2, 4, 32, 165, 90, 90, 165, 161, 88, 2, 1.13821
158, 6, wb, attraction, a-b-da, 5, 2, 4, 32, 165, 90, 90, 165, 161, 88, 1, 1.47523
158, 6, wb, attraction, a-b-da, 14, 2, 4, 33, 165, 90, 153, 83, 90, 165, 2, 30.7491
158, 6, wb, attraction, a-b-da, 14, 2, 4, 33, 165, 90, 153, 83, 90, 165, 3, 0.780836
158, 6, wb, filler, NA, 999, 999, 4, 34, 149, 177, 78, 74, 83, 77, 2, 1.47528
158, 6, wb, filler, NA, 999, 999, 4, 34, 149, 177, 78, 74, 83, 77, 1, 0.438742
158, 6, wb, attraction, a-b-db, 9, 1, 4, 35, 135, 60, 60, 135, 57, 129, 3, 0.923155
158, 6, wb, attraction, a-b-db, 9, 1, 4, 35, 135, 60, 60, 135, 57, 129, 2, 0.877049
158, 6, wb, catch, NA, 999, 999, 4, 36, 126, 69, 158, 97, 181, 134, 1, 0.839166
158, 6, wb, catch, NA, 999, 999, 4, 36, 126, 69, 158, 97, 181, 134, 3, 0.292274
158, 6, wb, attraction, a-b-db, 5, 1, 4, 37, 60, 135, 58, 132, 135, 60, 2, 0.846149
158, 6, wb, attraction, a-b-db, 5, 1, 4, 37, 60, 135, 58, 132, 135, 60, 1, 1.17112
158, 6, wb, attraction, a-b-da, 2, 1, 5, 1, 134, 59, 60, 135, 135, 60, 1, 67.2002
158, 6, wb, attraction, a-b-da, 2, 1, 5, 1, 134, 59, 60, 135, 135, 60, 2, 0.562997
158, 6, wb, attraction, a-b-db, 9, 3, 5, 2, 120, 195, 195, 120, 114, 186, 3, 1.16207
158, 6, wb, attraction, a-b-db, 9, 3, 5, 2, 120, 195, 195, 120, 114, 186, 2, 0.45032
158, 6, wb, filler, NA, 999, 999, 5, 3, 180, 146, 103, 72, 176, 92, 2, 0.742106
158, 6, wb, filler, NA, 999, 999, 5, 3, 180, 146, 103, 72, 176, 92, 1, 0.911242
158, 6, wb, attraction, a-b-da, 14, 3, 5, 4, 120, 195, 181, 111, 195, 120, 2, 1.16019
158, 6, wb, attraction, a-b-da, 14, 3, 5, 4, 120, 195, 181, 111, 195, 120, 3, 0.480561
158, 6, wb, attraction, a-b-db, 2, 3, 5, 5, 119, 193, 195, 120, 120, 195, 1, 1.00309
158, 6, wb, attraction, a-b-db, 2, 3, 5, 5, 119, 193, 195, 120, 120, 195, 3, 0.353938
158, 6, wb, attraction, a-b-da, 2, 2, 5, 6, 165, 90, 163, 89, 90, 165, 3, 1.07385
158, 6, wb, attraction, a-b-da, 2, 2, 5, 6, 165, 90, 163, 89, 90, 165, 1, 0.653502
158, 6, wb, attraction, a-b-db, 2, 1, 5, 7, 59, 134, 135, 60, 60, 135, 1, 1.07322
158, 6, wb, attraction, a-b-db, 2, 1, 5, 7, 59, 134, 135, 60, 60, 135, 3, 0.548839
158, 6, wb, attraction, a-b-db, 14, 1, 5, 8, 56, 125, 135, 60, 60, 135, 2, 0.732538
158, 6, wb, attraction, a-b-db, 14, 1, 5, 8, 56, 125, 135, 60, 60, 135, 3, 0.590351
158, 6, wb, attraction, a-b-da, 2, 3, 5, 9, 193, 119, 120, 195, 195, 120, 2, 1.34818
158, 6, wb, attraction, a-b-da, 2, 3, 5, 9, 193, 119, 120, 195, 195, 120, 3, 0.684922
158, 6, wb, filler, NA, 999, 999, 5, 10, 99, 105, 92, 124, 182, 177, 1, 0.719378
158, 6, wb, filler, NA, 999, 999, 5, 10, 99, 105, 92, 124, 182, 177, 3, 1.12184
158, 6, wb, attraction, a-b-db, 14, 3, 5, 11, 111, 181, 195, 120, 120, 195, 1, 1.6107
158, 6, wb, attraction, a-b-db, 14, 3, 5, 11, 111, 181, 195, 120, 120, 195, 3, 0.520941
158, 6, wb, attraction, a-b-db, 9, 2, 5, 12, 165, 90, 90, 165, 86, 157, 3, 0.858001
158, 6, wb, attraction, a-b-db, 9, 2, 5, 12, 165, 90, 90, 165, 86, 157, 1, 0.998451
158, 6, wb, filler, NA, 999, 999, 5, 13, 185, 181, 80, 75, 136, 85, 2, 1.72391
158, 6, wb, filler, NA, 999, 999, 5, 13, 185, 181, 80, 75, 136, 85, 1, 0.453342
158, 6, wb, filler, NA, 999, 999, 5, 14, 131, 115, 193, 65, 98, 120, 3, 13.3693
158, 6, wb, filler, NA, 999, 999, 5, 14, 131, 115, 193, 65, 98, 120, 2, 1.34968
158, 6, wb, attraction, a-b-db, 5, 2, 5, 15, 90, 165, 165, 90, 88, 161, 3, 2.36511
158, 6, wb, attraction, a-b-db, 5, 2, 5, 15, 90, 165, 165, 90, 88, 161, 1, 0.661136
158, 6, wb, filler, NA, 999, 999, 5, 16, 101, 67, 99, 162, 177, 187, 1, 0.632189
158, 6, wb, filler, NA, 999, 999, 5, 16, 101, 67, 99, 162, 177, 187, 3, 0.38997
158, 6, wb, attraction, a-b-da, 5, 3, 5, 17, 190, 117, 195, 120, 120, 195, 2, 1.45185
158, 6, wb, attraction, a-b-da, 5, 3, 5, 17, 190, 117, 195, 120, 120, 195, 3, 0.840569
158, 6, wb, attraction, a-b-da, 5, 1, 5, 18, 135, 60, 132, 58, 60, 135, 3, 1.30828
158, 6, wb, attraction, a-b-da, 5, 1, 5, 18, 135, 60, 132, 58, 60, 135, 1, 0.782463
158, 6, wb, catch, NA, 999, 999, 5, 19, 167, 148, 89, 106, 125, 130, 2, 0.740775
158, 6, wb, catch, NA, 999, 999, 5, 19, 167, 148, 89, 106, 125, 130, 1, 1.12596
158, 6, wb, attraction, a-b-da, 9, 1, 5, 20, 129, 57, 60, 135, 135, 60, 2, 1.73422
158, 6, wb, attraction, a-b-da, 9, 1, 5, 20, 129, 57, 60, 135, 135, 60, 1, 10.1196
158, 6, wb, catch, NA, 999, 999, 5, 21, 120, 135, 121, 74, 148, 167, 2, 0.677745
158, 6, wb, catch, NA, 999, 999, 5, 21, 120, 135, 121, 74, 148, 167, 3, 0.513498
158, 6, wb, attraction, a-b-da, 14, 2, 5, 22, 153, 83, 90, 165, 165, 90, 2, 9.46663
158, 6, wb, attraction, a-b-da, 14, 2, 5, 22, 153, 83, 90, 165, 165, 90, 1, 32.9004
158, 6, wb, attraction, a-b-da, 14, 1, 5, 23, 125, 56, 60, 135, 135, 60, 2, 2.25993
158, 6, wb, attraction, a-b-da, 14, 1, 5, 23, 125, 56, 60, 135, 135, 60, 3, 0.519877
158, 6, wb, filler, NA, 999, 999, 5, 24, 112, 124, 138, 142, 99, 186, 1, 0.720985
158, 6, wb, filler, NA, 999, 999, 5, 24, 112, 124, 138, 142, 99, 186, 2, 0.602852
158, 6, wb, attraction, a-b-db, 14, 2, 5, 25, 165, 90, 90, 165, 83, 153, 3, 0.880479
158, 6, wb, attraction, a-b-db, 14, 2, 5, 25, 165, 90, 90, 165, 83, 153, 2, 0.468282
158, 6, wb, filler, NA, 999, 999, 5, 26, 193, 61, 178, 94, 71, 186, 2, 1.31937
158, 6, wb, filler, NA, 999, 999, 5, 26, 193, 61, 178, 94, 71, 186, 3, 0.369545
158, 6, wb, attraction, a-b-da, 5, 2, 5, 27, 165, 90, 161, 88, 90, 165, 3, 1.24872
158, 6, wb, attraction, a-b-da, 5, 2, 5, 27, 165, 90, 161, 88, 90, 165, 1, 0.437582
158, 6, wb, attraction, a-b-db, 9, 1, 5, 28, 135, 60, 57, 129, 60, 135, 2, 0.634035
158, 6, wb, attraction, a-b-db, 9, 1, 5, 28, 135, 60, 57, 129, 60, 135, 3, 0.847911
158, 6, wb, attraction, a-b-db, 2, 2, 5, 29, 165, 90, 89, 163, 90, 165, 2, 1.05147
158, 6, wb, attraction, a-b-db, 2, 2, 5, 29, 165, 90, 89, 163, 90, 165, 3, 0.400523
158, 6, wb, attraction, a-b-db, 5, 1, 5, 30, 58, 132, 60, 135, 135, 60, 2, 0.662365
158, 6, wb, attraction, a-b-db, 5, 1, 5, 30, 58, 132, 60, 135, 135, 60, 3, 1.10681
158, 6, wb, filler, NA, 999, 999, 5, 31, 93, 71, 179, 181, 106, 136, 1, 0.563772
158, 6, wb, filler, NA, 999, 999, 5, 31, 93, 71, 179, 181, 106, 136, 2, 0.292154
158, 6, wb, filler, NA, 999, 999, 5, 32, 135, 177, 102, 84, 94, 61, 3, 0.886017
158, 6, wb, filler, NA, 999, 999, 5, 32, 135, 177, 102, 84, 94, 61, 1, 0.537814
158, 6, wb, catch, NA, 999, 999, 5, 33, 81, 114, 171, 144, 159, 96, 1, 2.11416
158, 6, wb, catch, NA, 999, 999, 5, 33, 81, 114, 171, 144, 159, 96, 2, 0.4281
158, 6, wb, attraction, a-b-da, 9, 3, 5, 34, 120, 195, 186, 114, 195, 120, 2, 1.31275
158, 6, wb, attraction, a-b-da, 9, 3, 5, 34, 120, 195, 186, 114, 195, 120, 1, 0.570792
158, 6, wb, filler, NA, 999, 999, 5, 35, 160, 100, 174, 77, 167, 119, 2, 21.362
158, 6, wb, filler, NA, 999, 999, 5, 35, 160, 100, 174, 77, 167, 119, 3, 9.44418
158, 6, wb, attraction, a-b-db, 5, 3, 5, 36, 195, 120, 120, 195, 117, 190, 3, 1.9489
158, 6, wb, attraction, a-b-db, 5, 3, 5, 36, 195, 120, 120, 195, 117, 190, 2, 0.437525
158, 6, wb, attraction, a-b-da, 9, 2, 5, 37, 90, 165, 157, 86, 165, 90, 1, 0.882052
158, 6, wb, attraction, a-b-da, 9, 2, 5, 37, 90, 165, 157, 86, 165, 90, 2, 0.965701
158, 6, wb, filler, NA, 999, 999, 6, 1, 100, 81, 63, 71, 156, 124, 2, 5.78071
158, 6, wb, filler, NA, 999, 999, 6, 1, 100, 81, 63, 71, 156, 124, 3, 4.66693
158, 6, wb, filler, NA, 999, 999, 6, 2, 128, 81, 189, 181, 87, 137, 3, 0.908754
158, 6, wb, filler, NA, 999, 999, 6, 2, 128, 81, 189, 181, 87, 137, 2, 0.687065
158, 6, wb, attraction, a-b-db, 5, 2, 6, 3, 88, 161, 90, 165, 165, 90, 2, 16.1055
158, 6, wb, attraction, a-b-db, 5, 2, 6, 3, 88, 161, 90, 165, 165, 90, 3, 1.17576
158, 6, wb, attraction, a-b-db, 14, 2, 6, 4, 90, 165, 83, 153, 165, 90, 2, 7.47004
158, 6, wb, attraction, a-b-db, 14, 2, 6, 4, 90, 165, 83, 153, 165, 90, 1, 0.576253
158, 6, wb, attraction, a-b-db, 2, 1, 6, 5, 60, 135, 135, 60, 59, 134, 1, 0.774752
158, 6, wb, attraction, a-b-db, 2, 1, 6, 5, 60, 135, 135, 60, 59, 134, 3, 0.454519
158, 6, wb, attraction, a-b-db, 2, 2, 6, 6, 165, 90, 89, 163, 90, 165, 3, 1.45043
158, 6, wb, attraction, a-b-db, 2, 2, 6, 6, 165, 90, 89, 163, 90, 165, 1, 0.743106
158, 6, wb, attraction, a-b-da, 5, 1, 6, 7, 132, 58, 60, 135, 135, 60, 2, 0.766776
158, 6, wb, attraction, a-b-da, 5, 1, 6, 7, 132, 58, 60, 135, 135, 60, 1, 1.06343
158, 6, wb, filler, NA, 999, 999, 6, 8, 91, 146, 164, 81, 115, 179, 1, 1.5142
158, 6, wb, filler, NA, 999, 999, 6, 8, 91, 146, 164, 81, 115, 179, 3, 0.54835
158, 6, wb, attraction, a-b-db, 9, 3, 6, 9, 120, 195, 114, 186, 195, 120, 2, 1.55616
158, 6, wb, attraction, a-b-db, 9, 3, 6, 9, 120, 195, 114, 186, 195, 120, 3, 0.82035
158, 6, wb, filler, NA, 999, 999, 6, 10, 56, 66, 167, 68, 121, 141, 1, 0.961278
158, 6, wb, filler, NA, 999, 999, 6, 10, 56, 66, 167, 68, 121, 141, 3, 0.345613
158, 6, wb, filler, NA, 999, 999, 6, 11, 76, 191, 182, 151, 122, 156, 3, 1.37747
158, 6, wb, filler, NA, 999, 999, 6, 11, 76, 191, 182, 151, 122, 156, 2, 0.44104
158, 6, wb, attraction, a-b-da, 5, 2, 6, 12, 161, 88, 165, 90, 90, 165, 1, 1.65285
158, 6, wb, attraction, a-b-da, 5, 2, 6, 12, 161, 88, 165, 90, 90, 165, 3, 0.553658
158, 6, wb, filler, NA, 999, 999, 6, 13, 68, 144, 83, 184, 178, 195, 1, 0.913318
158, 6, wb, filler, NA, 999, 999, 6, 13, 68, 144, 83, 184, 178, 195, 3, 0.699847
158, 6, wb, attraction, a-b-da, 2, 2, 6, 14, 163, 89, 90, 165, 165, 90, 1, 4.07746
158, 6, wb, attraction, a-b-da, 2, 2, 6, 14, 163, 89, 90, 165, 165, 90, 2, 0.600212
158, 6, wb, attraction, a-b-da, 14, 1, 6, 15, 60, 135, 125, 56, 135, 60, 1, 0.805949
158, 6, wb, attraction, a-b-da, 14, 1, 6, 15, 60, 135, 125, 56, 135, 60, 3, 0.524246
158, 6, wb, attraction, a-b-db, 14, 1, 6, 16, 135, 60, 56, 125, 60, 135, 2, 0.796697
158, 6, wb, attraction, a-b-db, 14, 1, 6, 16, 135, 60, 56, 125, 60, 135, 1, 0.787898
158, 6, wb, catch, NA, 999, 999, 6, 17, 171, 144, 73, 122, 130, 125, 2, 11.4742
158, 6, wb, catch, NA, 999, 999, 6, 17, 171, 144, 73, 122, 130, 125, 1, 0.30652
158, 6, wb, filler, NA, 999, 999, 6, 18, 183, 100, 70, 165, 121, 122, 3, 8.83573
158, 6, wb, filler, NA, 999, 999, 6, 18, 183, 100, 70, 165, 121, 122, 1, 10.823
158, 6, wb, attraction, a-b-db, 5, 1, 6, 19, 58, 132, 135, 60, 60, 135, 1, 1.52882
158, 6, wb, attraction, a-b-db, 5, 1, 6, 19, 58, 132, 135, 60, 60, 135, 3, 0.522384
158, 6, wb, attraction, a-b-da, 2, 3, 6, 20, 195, 120, 193, 119, 120, 195, 3, 18.9156
158, 6, wb, attraction, a-b-da, 2, 3, 6, 20, 195, 120, 193, 119, 120, 195, 1, 0.776128
158, 6, wb, attraction, a-b-db, 2, 3, 6, 21, 195, 120, 120, 195, 119, 193, 3, 7.56653
158, 6, wb, attraction, a-b-db, 2, 3, 6, 21, 195, 120, 120, 195, 119, 193, 2, 0.65291
158, 6, wb, attraction, a-b-da, 9, 3, 6, 22, 195, 120, 186, 114, 120, 195, 2, 2.37649
158, 6, wb, attraction, a-b-da, 9, 3, 6, 22, 195, 120, 186, 114, 120, 195, 3, 0.767726
158, 6, wb, filler, NA, 999, 999, 6, 23, 174, 177, 177, 96, 127, 73, 3, 0.718708
158, 6, wb, filler, NA, 999, 999, 6, 23, 174, 177, 177, 96, 127, 73, 1, 0.353253
158, 6, wb, attraction, a-b-db, 9, 1, 6, 24, 57, 129, 135, 60, 60, 135, 1, 0.985074
158, 6, wb, attraction, a-b-db, 9, 1, 6, 24, 57, 129, 135, 60, 60, 135, 3, 0.824679
158, 6, wb, attraction, a-b-db, 5, 3, 6, 25, 195, 120, 117, 190, 120, 195, 1, 3.26911
158, 6, wb, attraction, a-b-db, 5, 3, 6, 25, 195, 120, 117, 190, 120, 195, 3, 0.424798
158, 6, wb, attraction, a-b-db, 9, 2, 6, 26, 90, 165, 86, 157, 165, 90, 2, 2.64519
158, 6, wb, attraction, a-b-db, 9, 2, 6, 26, 90, 165, 86, 157, 165, 90, 1, 0.313752
158, 6, wb, filler, NA, 999, 999, 6, 27, 103, 175, 148, 68, 180, 88, 2, 0.858841
158, 6, wb, filler, NA, 999, 999, 6, 27, 103, 175, 148, 68, 180, 88, 1, 0.423217
158, 6, wb, attraction, a-b-da, 2, 1, 6, 28, 135, 60, 134, 59, 60, 135, 2, 1.16372
158, 6, wb, attraction, a-b-da, 2, 1, 6, 28, 135, 60, 134, 59, 60, 135, 3, 0.827982
158, 6, wb, attraction, a-b-da, 14, 2, 6, 29, 153, 83, 165, 90, 90, 165, 2, 3.22432
158, 6, wb, attraction, a-b-da, 14, 2, 6, 29, 153, 83, 165, 90, 90, 165, 3, 0.733249
158, 6, wb, catch, NA, 999, 999, 6, 30, 87, 108, 102, 153, 163, 152, 1, 0.861607
158, 6, wb, catch, NA, 999, 999, 6, 30, 87, 108, 102, 153, 163, 152, 3, 0.345964
158, 6, wb, attraction, a-b-db, 14, 3, 6, 31, 195, 120, 111, 181, 120, 195, 1, 1.05782
158, 6, wb, attraction, a-b-db, 14, 3, 6, 31, 195, 120, 111, 181, 120, 195, 2, 0.78216
158, 6, wb, attraction, a-b-da, 9, 2, 6, 32, 165, 90, 157, 86, 90, 165, 2, 0.940419
158, 6, wb, attraction, a-b-da, 9, 2, 6, 32, 165, 90, 157, 86, 90, 165, 3, 1.31752
158, 6, wb, filler, NA, 999, 999, 6, 33, 67, 121, 174, 121, 91, 155, 1, 28.6784
158, 6, wb, filler, NA, 999, 999, 6, 33, 67, 121, 174, 121, 91, 155, 2, 0.778069
158, 6, wb, attraction, a-b-da, 14, 3, 6, 34, 195, 120, 120, 195, 181, 111, 3, 1.56041
158, 6, wb, attraction, a-b-da, 14, 3, 6, 34, 195, 120, 120, 195, 181, 111, 2, 7.3846
158, 6, wb, catch, NA, 999, 999, 6, 35, 150, 165, 157, 98, 133, 62, 3, 2.93289
158, 6, wb, catch, NA, 999, 999, 6, 35, 150, 165, 157, 98, 133, 62, 1, 0.461857
158, 6, wb, attraction, a-b-da, 9, 1, 6, 36, 60, 135, 135, 60, 129, 57, 3, 2.25703
158, 6, wb, attraction, a-b-da, 9, 1, 6, 36, 60, 135, 135, 60, 129, 57, 1, 0.404912
158, 6, wb, attraction, a-b-da, 5, 3, 6, 37, 190, 117, 120, 195, 195, 120, 1, 1.16289
158, 6, wb, attraction, a-b-da, 5, 3, 6, 37, 190, 117, 120, 195, 195, 120, 2, 0.427142
158, 6, wb, attraction, a-b-db, 5, 1, 7, 1, 58, 132, 135, 60, 60, 135, 2, 0.991621
158, 6, wb, attraction, a-b-db, 5, 1, 7, 1, 58, 132, 135, 60, 60, 135, 1, 0.414546
158, 6, wb, filler, NA, 999, 999, 7, 2, 105, 135, 97, 83, 142, 71, 2, 1.65968
158, 6, wb, filler, NA, 999, 999, 7, 2, 105, 135, 97, 83, 142, 71, 1, 0.343792
158, 6, wb, filler, NA, 999, 999, 7, 3, 73, 76, 169, 73, 91, 156, 1, 1.59959
158, 6, wb, filler, NA, 999, 999, 7, 3, 73, 76, 169, 73, 91, 156, 3, 0.358426
158, 6, wb, attraction, a-b-db, 9, 3, 7, 4, 195, 120, 120, 195, 114, 186, 3, 9.32568
158, 6, wb, attraction, a-b-db, 9, 3, 7, 4, 195, 120, 120, 195, 114, 186, 2, 0.716725
158, 6, wb, attraction, a-b-da, 5, 3, 7, 5, 120, 195, 190, 117, 195, 120, 1, 0.669762
158, 6, wb, attraction, a-b-da, 5, 3, 7, 5, 120, 195, 190, 117, 195, 120, 2, 0.562109
158, 6, wb, filler, NA, 999, 999, 7, 6, 192, 59, 58, 176, 132, 84, 3, 0.753244
158, 6, wb, filler, NA, 999, 999, 7, 6, 192, 59, 58, 176, 132, 84, 2, 14.0737
158, 6, wb, attraction, a-b-db, 5, 2, 7, 7, 88, 161, 90, 165, 165, 90, 2, 2.39251
158, 6, wb, attraction, a-b-db, 5, 2, 7, 7, 88, 161, 90, 165, 165, 90, 3, 0.447075
158, 6, wb, filler, NA, 999, 999, 7, 8, 175, 195, 59, 159, 89, 98, 3, 8.57085
158, 6, wb, filler, NA, 999, 999, 7, 8, 175, 195, 59, 159, 89, 98, 1, 0.624849
158, 6, wb, filler, NA, 999, 999, 7, 9, 108, 183, 159, 189, 149, 164, 1, 1.66935
158, 6, wb, filler, NA, 999, 999, 7, 9, 108, 183, 159, 189, 149, 164, 2, 11.7934
158, 6, wb, filler, NA, 999, 999, 7, 10, 94, 111, 88, 135, 180, 105, 1, 1.31571
158, 6, wb, filler, NA, 999, 999, 7, 10, 94, 111, 88, 135, 180, 105, 3, 1.55814
158, 6, wb, attraction, a-b-db, 2, 3, 7, 11, 119, 193, 120, 195, 195, 120, 1, 1.58882
158, 6, wb, attraction, a-b-db, 2, 3, 7, 11, 119, 193, 120, 195, 195, 120, 3, 7.41154
158, 6, wb, attraction, a-b-db, 2, 1, 7, 12, 135, 60, 59, 134, 60, 135, 2, 0.67842
158, 6, wb, attraction, a-b-db, 2, 1, 7, 12, 135, 60, 59, 134, 60, 135, 1, 0.674233
158, 6, wb, catch, NA, 999, 999, 7, 13, 79, 116, 164, 91, 186, 129, 1, 10.2928
158, 6, wb, catch, NA, 999, 999, 7, 13, 79, 116, 164, 91, 186, 129, 3, 0.284628
158, 6, wb, filler, NA, 999, 999, 7, 14, 91, 103, 111, 144, 79, 146, 1, 0.919119
158, 6, wb, filler, NA, 999, 999, 7, 14, 91, 103, 111, 144, 79, 146, 2, 0.281527
158, 6, wb, attraction, a-b-db, 14, 2, 7, 15, 165, 90, 83, 153, 90, 165, 3, 0.828125
158, 6, wb, attraction, a-b-db, 14, 2, 7, 15, 165, 90, 83, 153, 90, 165, 1, 0.569776
158, 6, wb, attraction, a-b-db, 9, 1, 7, 16, 135, 60, 60, 135, 57, 129, 3, 0.816961
158, 6, wb, attraction, a-b-db, 9, 1, 7, 16, 135, 60, 60, 135, 57, 129, 1, 0.831315
158, 6, wb, catch, NA, 999, 999, 7, 17, 116, 139, 86, 109, 195, 120, 2, 0.763573
158, 6, wb, catch, NA, 999, 999, 7, 17, 116, 139, 86, 109, 195, 120, 3, 0.38799
158, 6, wb, attraction, a-b-db, 2, 2, 7, 18, 90, 165, 89, 163, 165, 90, 2, 1.90653
158, 6, wb, attraction, a-b-db, 2, 2, 7, 18, 90, 165, 89, 163, 165, 90, 1, 0.340566
158, 6, wb, attraction, a-b-da, 9, 2, 7, 19, 157, 86, 165, 90, 90, 165, 2, 1.41246
158, 6, wb, attraction, a-b-da, 9, 2, 7, 19, 157, 86, 165, 90, 90, 165, 1, 0.450721
158, 6, wb, filler, NA, 999, 999, 7, 20, 67, 183, 151, 71, 162, 72, 2, 0.710387
158, 6, wb, filler, NA, 999, 999, 7, 20, 67, 183, 151, 71, 162, 72, 1, 1.06478
158, 6, wb, attraction, a-b-db, 5, 3, 7, 21, 195, 120, 120, 195, 117, 190, 3, 1.30779
158, 6, wb, attraction, a-b-db, 5, 3, 7, 21, 195, 120, 120, 195, 117, 190, 2, 0.486162
158, 6, wb, attraction, a-b-db, 9, 2, 7, 22, 90, 165, 86, 157, 165, 90, 2, 0.744504
158, 6, wb, attraction, a-b-db, 9, 2, 7, 22, 90, 165, 86, 157, 165, 90, 3, 0.441482
158, 6, wb, attraction, a-b-da, 14, 3, 7, 23, 120, 195, 181, 111, 195, 120, 3, 1.14944
158, 6, wb, attraction, a-b-da, 14, 3, 7, 23, 120, 195, 181, 111, 195, 120, 1, 0.438255
158, 6, wb, attraction, a-b-da, 9, 1, 7, 24, 129, 57, 135, 60, 60, 135, 2, 0.810857
158, 6, wb, attraction, a-b-da, 9, 1, 7, 24, 129, 57, 135, 60, 60, 135, 1, 0.385092
158, 6, wb, attraction, a-b-da, 2, 2, 7, 25, 90, 165, 163, 89, 165, 90, 2, 0.767581
158, 6, wb, attraction, a-b-da, 2, 2, 7, 25, 90, 165, 163, 89, 165, 90, 1, 0.512064
158, 6, wb, attraction, a-b-da, 2, 1, 7, 26, 135, 60, 60, 135, 134, 59, 2, 0.7291
158, 6, wb, attraction, a-b-da, 2, 1, 7, 26, 135, 60, 60, 135, 134, 59, 1, 1.05884
158, 6, wb, attraction, a-b-da, 2, 3, 7, 27, 120, 195, 195, 120, 193, 119, 1, 1.49393
158, 6, wb, attraction, a-b-da, 2, 3, 7, 27, 120, 195, 195, 120, 193, 119, 3, 0.648858
158, 6, wb, attraction, a-b-db, 14, 3, 7, 28, 120, 195, 111, 181, 195, 120, 2, 0.780528
158, 6, wb, attraction, a-b-db, 14, 3, 7, 28, 120, 195, 111, 181, 195, 120, 3, 0.596214
158, 6, wb, attraction, a-b-da, 5, 1, 7, 29, 60, 135, 132, 58, 135, 60, 2, 0.697892
158, 6, wb, attraction, a-b-da, 5, 1, 7, 29, 60, 135, 132, 58, 135, 60, 3, 2.41305
158, 6, wb, catch, NA, 999, 999, 7, 30, 85, 110, 142, 173, 162, 93, 1, 0.681385
158, 6, wb, catch, NA, 999, 999, 7, 30, 85, 110, 142, 173, 162, 93, 2, 0.221223
158, 6, wb, attraction, a-b-db, 14, 1, 7, 31, 60, 135, 135, 60, 56, 125, 2, 0.650538
158, 6, wb, attraction, a-b-db, 14, 1, 7, 31, 60, 135, 135, 60, 56, 125, 1, 0.391631
158, 6, wb, attraction, a-b-da, 14, 2, 7, 32, 90, 165, 153, 83, 165, 90, 2, 0.597383
158, 6, wb, attraction, a-b-da, 14, 2, 7, 32, 90, 165, 153, 83, 165, 90, 1, 0.348471
158, 6, wb, attraction, a-b-da, 9, 3, 7, 33, 186, 114, 195, 120, 120, 195, 1, 1.89225
158, 6, wb, attraction, a-b-da, 9, 3, 7, 33, 186, 114, 195, 120, 120, 195, 3, 1.0871
158, 6, wb, filler, NA, 999, 999, 7, 34, 161, 111, 191, 129, 186, 181, 1, 0.697361
158, 6, wb, filler, NA, 999, 999, 7, 34, 161, 111, 191, 129, 186, 181, 3, 0.476462
158, 6, wb, filler, NA, 999, 999, 7, 35, 192, 178, 97, 165, 185, 154, 2, 0.782837
158, 6, wb, filler, NA, 999, 999, 7, 35, 192, 178, 97, 165, 185, 154, 1, 0.910572
158, 6, wb, attraction, a-b-da, 14, 1, 7, 36, 125, 56, 60, 135, 135, 60, 2, 1.51965
158, 6, wb, attraction, a-b-da, 14, 1, 7, 36, 125, 56, 60, 135, 135, 60, 3, 0.497883
158, 6, wb, attraction, a-b-da, 5, 2, 7, 37, 165, 90, 90, 165, 161, 88, 2, 0.739493
158, 6, wb, attraction, a-b-da, 5, 2, 7, 37, 165, 90, 90, 165, 161, 88, 1, 1.27663
158, 6, wb, filler, NA, 999, 999, 8, 1, 124, 125, 136, 178, 101, 194, 1, 1.18289
158, 6, wb, filler, NA, 999, 999, 8, 1, 124, 125, 136, 178, 101, 194, 2, 0.382414
158, 6, wb, attraction, a-b-db, 14, 3, 8, 2, 195, 120, 120, 195, 111, 181, 2, 0.956944
158, 6, wb, attraction, a-b-db, 14, 3, 8, 2, 195, 120, 120, 195, 111, 181, 3, 1.38121
158, 6, wb, filler, NA, 999, 999, 8, 3, 103, 120, 118, 57, 100, 58, 3, 6.77155
158, 6, wb, filler, NA, 999, 999, 8, 3, 103, 120, 118, 57, 100, 58, 1, 0.642026
158, 6, wb, attraction, a-b-da, 2, 3, 8, 4, 120, 195, 195, 120, 193, 119, 1, 0.957736
158, 6, wb, attraction, a-b-da, 2, 3, 8, 4, 120, 195, 195, 120, 193, 119, 3, 0.494005
158, 6, wb, attraction, a-b-db, 2, 1, 8, 5, 135, 60, 60, 135, 59, 134, 1, 0.775723
158, 6, wb, attraction, a-b-db, 2, 1, 8, 5, 135, 60, 60, 135, 59, 134, 2, 0.855622
158, 6, wb, filler, NA, 999, 999, 8, 6, 118, 156, 165, 166, 127, 177, 2, 0.819172
158, 6, wb, filler, NA, 999, 999, 8, 6, 118, 156, 165, 166, 127, 177, 3, 3.36972
158, 6, wb, attraction, a-b-db, 5, 2, 8, 7, 90, 165, 165, 90, 88, 161, 2, 1.09583
158, 6, wb, attraction, a-b-db, 5, 2, 8, 7, 90, 165, 165, 90, 88, 161, 3, 0.826809
158, 6, wb, attraction, a-b-db, 2, 2, 8, 8, 90, 165, 165, 90, 89, 163, 2, 1.51126
158, 6, wb, attraction, a-b-db, 2, 2, 8, 8, 90, 165, 165, 90, 89, 163, 3, 3.33726
158, 6, wb, attraction, a-b-db, 9, 2, 8, 9, 86, 157, 90, 165, 165, 90, 2, 0.808836
158, 6, wb, attraction, a-b-db, 9, 2, 8, 9, 86, 157, 90, 165, 165, 90, 3, 0.639347
158, 6, wb, catch, NA, 999, 999, 8, 10, 170, 145, 128, 127, 135, 60, 3, 1.40996
158, 6, wb, catch, NA, 999, 999, 8, 10, 170, 145, 128, 127, 135, 60, 1, 0.457886
158, 6, wb, attraction, a-b-db, 9, 3, 8, 11, 195, 120, 120, 195, 114, 186, 3, 7.86097
158, 6, wb, attraction, a-b-db, 9, 3, 8, 11, 195, 120, 120, 195, 114, 186, 2, 0.599231
158, 6, wb, filler, NA, 999, 999, 8, 12, 59, 170, 87, 62, 93, 170, 2, 1.15697
158, 6, wb, filler, NA, 999, 999, 8, 12, 59, 170, 87, 62, 93, 170, 3, 0.301213
158, 6, wb, filler, NA, 999, 999, 8, 13, 84, 77, 183, 178, 151, 75, 2, 1.03909
158, 6, wb, filler, NA, 999, 999, 8, 13, 84, 77, 183, 178, 151, 75, 1, 0.804017
158, 6, wb, attraction, a-b-db, 5, 3, 8, 14, 195, 120, 120, 195, 117, 190, 3, 2.19378
158, 6, wb, attraction, a-b-db, 5, 3, 8, 14, 195, 120, 120, 195, 117, 190, 2, 0.360298
158, 6, wb, attraction, a-b-da, 14, 1, 8, 15, 60, 135, 135, 60, 125, 56, 2, 1.03953
158, 6, wb, attraction, a-b-da, 14, 1, 8, 15, 60, 135, 135, 60, 125, 56, 1, 0.60449
158, 6, wb, attraction, a-b-da, 5, 3, 8, 16, 195, 120, 120, 195, 190, 117, 2, 0.810215
158, 6, wb, attraction, a-b-da, 5, 3, 8, 16, 195, 120, 120, 195, 190, 117, 1, 0.832651
158, 6, wb, attraction, a-b-da, 9, 2, 8, 17, 90, 165, 165, 90, 157, 86, 3, 1.11695
158, 6, wb, attraction, a-b-da, 9, 2, 8, 17, 90, 165, 165, 90, 157, 86, 1, 0.583266
158, 6, wb, attraction, a-b-db, 2, 3, 8, 18, 120, 195, 119, 193, 195, 120, 3, 1.63774
158, 6, wb, attraction, a-b-db, 2, 3, 8, 18, 120, 195, 119, 193, 195, 120, 1, 0.378406
158, 6, wb, catch, NA, 999, 999, 8, 19, 141, 114, 177, 138, 118, 77, 3, 0.600987
158, 6, wb, catch, NA, 999, 999, 8, 19, 141, 114, 177, 138, 118, 77, 2, 0.392211
158, 6, wb, attraction, a-b-da, 2, 2, 8, 20, 163, 89, 165, 90, 90, 165, 3, 1.34193
158, 6, wb, attraction, a-b-da, 2, 2, 8, 20, 163, 89, 165, 90, 90, 165, 1, 0.438784
158, 6, wb, catch, NA, 999, 999, 8, 21, 178, 137, 78, 117, 113, 142, 2, 0.499295
158, 6, wb, catch, NA, 999, 999, 8, 21, 178, 137, 78, 117, 113, 142, 1, 0.358688
158, 6, wb, attraction, a-b-db, 14, 1, 8, 22, 135, 60, 60, 135, 56, 125, 3, 1.38952
158, 6, wb, attraction, a-b-db, 14, 1, 8, 22, 135, 60, 60, 135, 56, 125, 1, 0.876579
158, 6, wb, attraction, a-b-da, 5, 1, 8, 23, 135, 60, 132, 58, 60, 135, 3, 1.75894
158, 6, wb, attraction, a-b-da, 5, 1, 8, 23, 135, 60, 132, 58, 60, 135, 1, 0.966859
158, 6, wb, filler, NA, 999, 999, 8, 24, 111, 164, 150, 172, 170, 82, 3, 2.4939
158, 6, wb, filler, NA, 999, 999, 8, 24, 111, 164, 150, 172, 170, 82, 2, 0.392346
158, 6, wb, attraction, a-b-db, 9, 1, 8, 25, 57, 129, 60, 135, 135, 60, 2, 2.48615
158, 6, wb, attraction, a-b-db, 9, 1, 8, 25, 57, 129, 60, 135, 135, 60, 3, 0.50556
158, 6, wb, attraction, a-b-da, 14, 3, 8, 26, 195, 120, 181, 111, 120, 195, 2, 3.44322
158, 6, wb, attraction, a-b-da, 14, 3, 8, 26, 195, 120, 181, 111, 120, 195, 3, 0.655411
158, 6, wb, attraction, a-b-db, 14, 2, 8, 27, 90, 165, 83, 153, 165, 90, 3, 2.09917
158, 6, wb, attraction, a-b-db, 14, 2, 8, 27, 90, 165, 83, 153, 165, 90, 2, 2.61382
158, 6, wb, filler, NA, 999, 999, 8, 28, 146, 66, 110, 143, 150, 76, 1, 2.25032
158, 6, wb, filler, NA, 999, 999, 8, 28, 146, 66, 110, 143, 150, 76, 2, 0.574925
158, 6, wb, filler, NA, 999, 999, 8, 29, 187, 133, 155, 66, 65, 82, 3, 0.845243
158, 6, wb, filler, NA, 999, 999, 8, 29, 187, 133, 155, 66, 65, 82, 1, 0.362438
158, 6, wb, attraction, a-b-da, 9, 3, 8, 30, 195, 120, 120, 195, 186, 114, 1, 2.5615
158, 6, wb, attraction, a-b-da, 9, 3, 8, 30, 195, 120, 120, 195, 186, 114, 2, 0.401427
158, 6, wb, filler, NA, 999, 999, 8, 31, 194, 193, 93, 152, 152, 151, 2, 5.39116
158, 6, wb, filler, NA, 999, 999, 8, 31, 194, 193, 93, 152, 152, 151, 1, 0.436779
158, 6, wb, attraction, a-b-da, 14, 2, 8, 32, 90, 165, 165, 90, 153, 83, 3, 1.44133
158, 6, wb, attraction, a-b-da, 14, 2, 8, 32, 90, 165, 165, 90, 153, 83, 1, 1.38221
158, 6, wb, attraction, a-b-da, 2, 1, 8, 33, 134, 59, 60, 135, 135, 60, 3, 10.1322
158, 6, wb, attraction, a-b-da, 2, 1, 8, 33, 134, 59, 60, 135, 135, 60, 2, 10.2351
158, 6, wb, attraction, a-b-da, 9, 1, 8, 34, 135, 60, 129, 57, 60, 135, 3, 1.43642
158, 6, wb, attraction, a-b-da, 9, 1, 8, 34, 135, 60, 129, 57, 60, 135, 1, 0.785994
158, 6, wb, filler, NA, 999, 999, 8, 35, 88, 110, 93, 65, 101, 144, 2, 0.801481
158, 6, wb, filler, NA, 999, 999, 8, 35, 88, 110, 93, 65, 101, 144, 3, 0.431413
158, 6, wb, attraction, a-b-da, 5, 2, 8, 36, 161, 88, 165, 90, 90, 165, 2, 1.04389
158, 6, wb, attraction, a-b-da, 5, 2, 8, 36, 161, 88, 165, 90, 90, 165, 3, 0.440959
158, 6, wb, attraction, a-b-db, 5, 1, 8, 37, 58, 132, 60, 135, 135, 60, 1, 0.892622
158, 6, wb, attraction, a-b-db, 5, 1, 8, 37, 58, 132, 60, 135, 135, 60, 2, 0.98374
