sub_n, computer_n, bw_cond, effect, set, distance, diag, block_n, trial_n, h1, w1, h2, w2, h3, w3, choice, rt 
128, 6, wb, practice, NA, 999, 999, 0, 1, 96, 64, 177, 156, 126, 176, 1, 1.97201
128, 6, wb, practice, NA, 999, 999, 0, 1, 96, 64, 177, 156, 126, 176, 2, 3.99596
128, 6, wb, practice, NA, 999, 999, 0, 2, 166, 145, 113, 139, 88, 69, 3, 1.96712
128, 6, wb, practice, NA, 999, 999, 0, 2, 166, 145, 113, 139, 88, 69, 1, 1.36578
128, 6, wb, practice, NA, 999, 999, 0, 3, 82, 160, 103, 144, 56, 110, 3, 1.9231
128, 6, wb, practice, NA, 999, 999, 0, 3, 82, 160, 103, 144, 56, 110, 2, 1.27587
128, 6, wb, attraction, a-b-da, 2, 1, 1, 1, 134, 59, 60, 135, 135, 60, 1, 7.88684
128, 6, wb, attraction, a-b-da, 2, 1, 1, 1, 134, 59, 60, 135, 135, 60, 2, 2.5363
128, 6, wb, catch, NA, 999, 999, 1, 2, 83, 112, 145, 110, 122, 193, 1, 1.78412
128, 6, wb, catch, NA, 999, 999, 1, 2, 83, 112, 145, 110, 122, 193, 3, 1.06365
128, 6, wb, attraction, a-b-da, 14, 3, 1, 3, 195, 120, 120, 195, 181, 111, 3, 1.6505
128, 6, wb, attraction, a-b-da, 14, 3, 1, 3, 195, 120, 120, 195, 181, 111, 2, 1.84727
128, 6, wb, filler, NA, 999, 999, 1, 4, 140, 81, 71, 58, 76, 130, 2, 1.25876
128, 6, wb, filler, NA, 999, 999, 1, 4, 140, 81, 71, 58, 76, 130, 1, 2.70302
128, 6, wb, attraction, a-b-db, 9, 2, 1, 5, 86, 157, 90, 165, 165, 90, 1, 2.91998
128, 6, wb, attraction, a-b-db, 9, 2, 1, 5, 86, 157, 90, 165, 165, 90, 2, 1.66579
128, 6, wb, attraction, a-b-da, 5, 1, 1, 6, 135, 60, 60, 135, 132, 58, 1, 2.19647
128, 6, wb, attraction, a-b-da, 5, 1, 1, 6, 135, 60, 60, 135, 132, 58, 2, 0.923168
128, 6, wb, attraction, a-b-da, 14, 1, 1, 7, 125, 56, 60, 135, 135, 60, 1, 1.29945
128, 6, wb, attraction, a-b-da, 14, 1, 1, 7, 125, 56, 60, 135, 135, 60, 2, 0.702369
128, 6, wb, attraction, a-b-da, 9, 1, 1, 8, 129, 57, 135, 60, 60, 135, 1, 1.29609
128, 6, wb, attraction, a-b-da, 9, 1, 1, 8, 129, 57, 135, 60, 60, 135, 3, 0.730886
128, 6, wb, attraction, a-b-da, 9, 3, 1, 9, 120, 195, 186, 114, 195, 120, 2, 2.46734
128, 6, wb, attraction, a-b-da, 9, 3, 1, 9, 120, 195, 186, 114, 195, 120, 1, 0.663373
128, 6, wb, attraction, a-b-da, 9, 2, 1, 10, 157, 86, 165, 90, 90, 165, 1, 1.42623
128, 6, wb, attraction, a-b-da, 9, 2, 1, 10, 157, 86, 165, 90, 90, 165, 3, 0.879868
128, 6, wb, attraction, a-b-db, 5, 1, 1, 11, 135, 60, 60, 135, 58, 132, 1, 3.69019
128, 6, wb, attraction, a-b-db, 5, 1, 1, 11, 135, 60, 60, 135, 58, 132, 2, 0.64441
128, 6, wb, attraction, a-b-da, 5, 3, 1, 12, 120, 195, 190, 117, 195, 120, 3, 2.31201
128, 6, wb, attraction, a-b-da, 5, 3, 1, 12, 120, 195, 190, 117, 195, 120, 1, 0.433867
128, 6, wb, attraction, a-b-db, 2, 3, 1, 13, 195, 120, 120, 195, 119, 193, 1, 3.16639
128, 6, wb, attraction, a-b-db, 2, 3, 1, 13, 195, 120, 120, 195, 119, 193, 2, 0.734048
128, 6, wb, attraction, a-b-da, 2, 3, 1, 14, 195, 120, 193, 119, 120, 195, 2, 5.56647
128, 6, wb, attraction, a-b-da, 2, 3, 1, 14, 195, 120, 193, 119, 120, 195, 3, 0.629422
128, 6, wb, attraction, a-b-db, 9, 1, 1, 15, 135, 60, 60, 135, 57, 129, 1, 4.12971
128, 6, wb, attraction, a-b-db, 9, 1, 1, 15, 135, 60, 60, 135, 57, 129, 2, 0.498427
128, 6, wb, filler, NA, 999, 999, 1, 16, 110, 137, 118, 174, 111, 190, 1, 1.1002
128, 6, wb, filler, NA, 999, 999, 1, 16, 110, 137, 118, 174, 111, 190, 3, 0.519242
128, 6, wb, attraction, a-b-db, 14, 2, 1, 17, 90, 165, 83, 153, 165, 90, 2, 2.06432
128, 6, wb, attraction, a-b-db, 14, 2, 1, 17, 90, 165, 83, 153, 165, 90, 1, 0.892351
128, 6, wb, filler, NA, 999, 999, 1, 18, 126, 133, 179, 108, 193, 84, 3, 4.38189
128, 6, wb, filler, NA, 999, 999, 1, 18, 126, 133, 179, 108, 193, 84, 2, 0.780475
128, 6, wb, filler, NA, 999, 999, 1, 19, 79, 72, 103, 193, 88, 133, 1, 1.39497
128, 6, wb, filler, NA, 999, 999, 1, 19, 79, 72, 103, 193, 88, 133, 2, 0.593774
128, 6, wb, attraction, a-b-db, 5, 3, 1, 20, 117, 190, 120, 195, 195, 120, 1, 1.78354
128, 6, wb, attraction, a-b-db, 5, 3, 1, 20, 117, 190, 120, 195, 195, 120, 2, 1.14299
128, 6, wb, filler, NA, 999, 999, 1, 21, 188, 87, 106, 166, 127, 84, 3, 1.1665
128, 6, wb, filler, NA, 999, 999, 1, 21, 188, 87, 106, 166, 127, 84, 2, 0.726783
128, 6, wb, attraction, a-b-da, 2, 2, 1, 22, 165, 90, 90, 165, 163, 89, 1, 6.11917
128, 6, wb, attraction, a-b-da, 2, 2, 1, 22, 165, 90, 90, 165, 163, 89, 2, 0.631917
128, 6, wb, attraction, a-b-da, 5, 2, 1, 23, 165, 90, 90, 165, 161, 88, 3, 6.09233
128, 6, wb, attraction, a-b-da, 5, 2, 1, 23, 165, 90, 90, 165, 161, 88, 2, 0.621799
128, 6, wb, attraction, a-b-db, 9, 3, 1, 24, 114, 186, 120, 195, 195, 120, 1, 2.68292
128, 6, wb, attraction, a-b-db, 9, 3, 1, 24, 114, 186, 120, 195, 195, 120, 2, 0.597937
128, 6, wb, attraction, a-b-db, 14, 1, 1, 25, 56, 125, 135, 60, 60, 135, 2, 1.72377
128, 6, wb, attraction, a-b-db, 14, 1, 1, 25, 56, 125, 135, 60, 60, 135, 3, 0.573082
128, 6, wb, attraction, a-b-da, 14, 2, 1, 26, 165, 90, 90, 165, 153, 83, 3, 1.45956
128, 6, wb, attraction, a-b-da, 14, 2, 1, 26, 165, 90, 90, 165, 153, 83, 2, 0.807703
128, 6, wb, catch, NA, 999, 999, 1, 27, 96, 99, 127, 188, 103, 152, 1, 1.10891
128, 6, wb, catch, NA, 999, 999, 1, 27, 96, 99, 127, 188, 103, 152, 2, 0.503037
128, 6, wb, filler, NA, 999, 999, 1, 28, 132, 69, 89, 189, 140, 157, 1, 1.96078
128, 6, wb, filler, NA, 999, 999, 1, 28, 132, 69, 89, 189, 140, 157, 3, 0.992873
128, 6, wb, attraction, a-b-db, 2, 2, 1, 29, 89, 163, 90, 165, 165, 90, 1, 3.24645
128, 6, wb, attraction, a-b-db, 2, 2, 1, 29, 89, 163, 90, 165, 165, 90, 2, 0.97877
128, 6, wb, filler, NA, 999, 999, 1, 30, 95, 174, 60, 135, 71, 68, 3, 0.897035
128, 6, wb, filler, NA, 999, 999, 1, 30, 95, 174, 60, 135, 71, 68, 1, 0.876207
128, 6, wb, attraction, a-b-db, 14, 3, 1, 31, 195, 120, 120, 195, 111, 181, 1, 3.88645
128, 6, wb, attraction, a-b-db, 14, 3, 1, 31, 195, 120, 120, 195, 111, 181, 2, 0.409143
128, 6, wb, filler, NA, 999, 999, 1, 32, 146, 81, 89, 143, 114, 155, 1, 1.28627
128, 6, wb, filler, NA, 999, 999, 1, 32, 146, 81, 89, 143, 114, 155, 3, 0.641901
128, 6, wb, attraction, a-b-db, 2, 1, 1, 33, 59, 134, 135, 60, 60, 135, 2, 1.90959
128, 6, wb, attraction, a-b-db, 2, 1, 1, 33, 59, 134, 135, 60, 60, 135, 3, 0.471691
128, 6, wb, filler, NA, 999, 999, 1, 34, 77, 155, 146, 62, 106, 78, 2, 1.09081
128, 6, wb, filler, NA, 999, 999, 1, 34, 77, 155, 146, 62, 106, 78, 1, 0.709734
128, 6, wb, attraction, a-b-db, 5, 2, 1, 35, 165, 90, 90, 165, 88, 161, 1, 1.37487
128, 6, wb, attraction, a-b-db, 5, 2, 1, 35, 165, 90, 90, 165, 88, 161, 2, 0.518461
128, 6, wb, catch, NA, 999, 999, 1, 36, 155, 160, 113, 82, 102, 153, 2, 1.04754
128, 6, wb, catch, NA, 999, 999, 1, 36, 155, 160, 113, 82, 102, 153, 1, 1.1245
128, 6, wb, filler, NA, 999, 999, 1, 37, 72, 95, 57, 154, 164, 83, 1, 1.67672
128, 6, wb, filler, NA, 999, 999, 1, 37, 72, 95, 57, 154, 164, 83, 3, 0.824254
128, 6, wb, catch, NA, 999, 999, 2, 1, 109, 86, 134, 121, 178, 137, 1, 1.85252
128, 6, wb, catch, NA, 999, 999, 2, 1, 109, 86, 134, 121, 178, 137, 3, 0.497231
128, 6, wb, attraction, a-b-da, 9, 1, 2, 2, 129, 57, 60, 135, 135, 60, 3, 3.9151
128, 6, wb, attraction, a-b-da, 9, 1, 2, 2, 129, 57, 60, 135, 135, 60, 2, 0.716616
128, 6, wb, attraction, a-b-da, 2, 1, 2, 3, 135, 60, 60, 135, 134, 59, 3, 2.36557
128, 6, wb, attraction, a-b-da, 2, 1, 2, 3, 135, 60, 60, 135, 134, 59, 2, 0.557455
128, 6, wb, attraction, a-b-da, 14, 3, 2, 4, 120, 195, 195, 120, 181, 111, 3, 2.49264
128, 6, wb, attraction, a-b-da, 14, 3, 2, 4, 120, 195, 195, 120, 181, 111, 1, 0.471039
128, 6, wb, filler, NA, 999, 999, 2, 5, 188, 182, 70, 191, 140, 68, 3, 1.21813
128, 6, wb, filler, NA, 999, 999, 2, 5, 188, 182, 70, 191, 140, 68, 1, 0.600573
128, 6, wb, attraction, a-b-da, 2, 2, 2, 6, 163, 89, 165, 90, 90, 165, 1, 3.19035
128, 6, wb, attraction, a-b-da, 2, 2, 2, 6, 163, 89, 165, 90, 90, 165, 3, 0.436518
128, 6, wb, attraction, a-b-db, 5, 1, 2, 7, 60, 135, 135, 60, 58, 132, 2, 1.11302
128, 6, wb, attraction, a-b-db, 5, 1, 2, 7, 60, 135, 135, 60, 58, 132, 3, 0.571221
128, 6, wb, attraction, a-b-da, 2, 3, 2, 8, 195, 120, 193, 119, 120, 195, 1, 1.3463
128, 6, wb, attraction, a-b-da, 2, 3, 2, 8, 195, 120, 193, 119, 120, 195, 3, 0.651207
128, 6, wb, attraction, a-b-da, 14, 1, 2, 9, 60, 135, 125, 56, 135, 60, 2, 1.04693
128, 6, wb, attraction, a-b-da, 14, 1, 2, 9, 60, 135, 125, 56, 135, 60, 1, 0.92394
128, 6, wb, attraction, a-b-da, 9, 2, 2, 10, 165, 90, 90, 165, 157, 86, 3, 1.82039
128, 6, wb, attraction, a-b-da, 9, 2, 2, 10, 165, 90, 90, 165, 157, 86, 2, 0.53776
128, 6, wb, attraction, a-b-db, 5, 2, 2, 11, 165, 90, 90, 165, 88, 161, 1, 3.01824
128, 6, wb, attraction, a-b-db, 5, 2, 2, 11, 165, 90, 90, 165, 88, 161, 2, 0.5679
128, 6, wb, attraction, a-b-da, 9, 3, 2, 12, 195, 120, 186, 114, 120, 195, 2, 4.95107
128, 6, wb, attraction, a-b-da, 9, 3, 2, 12, 195, 120, 186, 114, 120, 195, 3, 1.15082
128, 6, wb, attraction, a-b-da, 14, 2, 2, 13, 165, 90, 90, 165, 153, 83, 3, 2.46229
128, 6, wb, attraction, a-b-da, 14, 2, 2, 13, 165, 90, 90, 165, 153, 83, 2, 0.570144
128, 6, wb, filler, NA, 999, 999, 2, 14, 97, 108, 147, 190, 60, 181, 1, 1.14523
128, 6, wb, filler, NA, 999, 999, 2, 14, 97, 108, 147, 190, 60, 181, 2, 0.402106
128, 6, wb, attraction, a-b-db, 14, 1, 2, 15, 135, 60, 60, 135, 56, 125, 3, 2.98402
128, 6, wb, attraction, a-b-db, 14, 1, 2, 15, 135, 60, 60, 135, 56, 125, 2, 0.727075
128, 6, wb, filler, NA, 999, 999, 2, 16, 136, 69, 128, 81, 105, 95, 1, 1.59947
128, 6, wb, filler, NA, 999, 999, 2, 16, 136, 69, 128, 81, 105, 95, 2, 0.918222
128, 6, wb, attraction, a-b-db, 2, 3, 2, 17, 195, 120, 120, 195, 119, 193, 1, 2.05513
128, 6, wb, attraction, a-b-db, 2, 3, 2, 17, 195, 120, 120, 195, 119, 193, 3, 0.923193
128, 6, wb, attraction, a-b-da, 5, 3, 2, 18, 190, 117, 120, 195, 195, 120, 1, 6.37955
128, 6, wb, attraction, a-b-da, 5, 3, 2, 18, 190, 117, 120, 195, 195, 120, 2, 0.625556
128, 6, wb, filler, NA, 999, 999, 2, 19, 118, 96, 113, 166, 144, 70, 1, 1.31795
128, 6, wb, filler, NA, 999, 999, 2, 19, 118, 96, 113, 166, 144, 70, 2, 0.392235
128, 6, wb, catch, NA, 999, 999, 2, 20, 120, 75, 128, 127, 121, 194, 1, 0.894059
128, 6, wb, catch, NA, 999, 999, 2, 20, 120, 75, 128, 127, 121, 194, 3, 0.577041
128, 6, wb, attraction, a-b-da, 5, 2, 2, 21, 165, 90, 161, 88, 90, 165, 2, 3.55155
128, 6, wb, attraction, a-b-da, 5, 2, 2, 21, 165, 90, 161, 88, 90, 165, 3, 0.471631
128, 6, wb, attraction, a-b-db, 9, 2, 2, 22, 90, 165, 86, 157, 165, 90, 3, 2.38672
128, 6, wb, attraction, a-b-db, 9, 2, 2, 22, 90, 165, 86, 157, 165, 90, 1, 0.905963
128, 6, wb, attraction, a-b-db, 2, 2, 2, 23, 89, 163, 90, 165, 165, 90, 1, 2.15563
128, 6, wb, attraction, a-b-db, 2, 2, 2, 23, 89, 163, 90, 165, 165, 90, 2, 0.515746
128, 6, wb, filler, NA, 999, 999, 2, 24, 115, 189, 143, 89, 170, 58, 3, 1.89287
128, 6, wb, filler, NA, 999, 999, 2, 24, 115, 189, 143, 89, 170, 58, 1, 0.391485
128, 6, wb, filler, NA, 999, 999, 2, 25, 101, 166, 64, 135, 171, 143, 2, 0.837188
128, 6, wb, filler, NA, 999, 999, 2, 25, 101, 166, 64, 135, 171, 143, 3, 0.498276
128, 6, wb, catch, NA, 999, 999, 2, 26, 162, 153, 109, 146, 91, 104, 3, 0.964039
128, 6, wb, catch, NA, 999, 999, 2, 26, 162, 153, 109, 146, 91, 104, 1, 0.5004
128, 6, wb, attraction, a-b-db, 2, 1, 2, 27, 59, 134, 135, 60, 60, 135, 1, 1.3261
128, 6, wb, attraction, a-b-db, 2, 1, 2, 27, 59, 134, 135, 60, 60, 135, 3, 0.439776
128, 6, wb, filler, NA, 999, 999, 2, 28, 89, 101, 195, 87, 132, 111, 1, 1.0756
128, 6, wb, filler, NA, 999, 999, 2, 28, 89, 101, 195, 87, 132, 111, 2, 1.39132
128, 6, wb, attraction, a-b-db, 5, 3, 2, 29, 120, 195, 117, 190, 195, 120, 3, 1.59664
128, 6, wb, attraction, a-b-db, 5, 3, 2, 29, 120, 195, 117, 190, 195, 120, 1, 0.443486
128, 6, wb, attraction, a-b-db, 9, 3, 2, 30, 120, 195, 195, 120, 114, 186, 2, 2.4473
128, 6, wb, attraction, a-b-db, 9, 3, 2, 30, 120, 195, 195, 120, 114, 186, 1, 0.475899
128, 6, wb, attraction, a-b-db, 9, 1, 2, 31, 57, 129, 60, 135, 135, 60, 1, 1.40645
128, 6, wb, attraction, a-b-db, 9, 1, 2, 31, 57, 129, 60, 135, 135, 60, 2, 0.668523
128, 6, wb, attraction, a-b-da, 5, 1, 2, 32, 132, 58, 135, 60, 60, 135, 1, 1.31954
128, 6, wb, attraction, a-b-da, 5, 1, 2, 32, 132, 58, 135, 60, 60, 135, 3, 0.449777
128, 6, wb, attraction, a-b-db, 14, 3, 2, 33, 120, 195, 111, 181, 195, 120, 2, 2.28571
128, 6, wb, attraction, a-b-db, 14, 3, 2, 33, 120, 195, 111, 181, 195, 120, 1, 0.616811
128, 6, wb, filler, NA, 999, 999, 2, 34, 176, 118, 90, 192, 119, 144, 2, 1.38187
128, 6, wb, filler, NA, 999, 999, 2, 34, 176, 118, 90, 192, 119, 144, 1, 2.56547
128, 6, wb, filler, NA, 999, 999, 2, 35, 140, 82, 149, 100, 71, 158, 1, 2.50814
128, 6, wb, filler, NA, 999, 999, 2, 35, 140, 82, 149, 100, 71, 158, 2, 0.981925
128, 6, wb, attraction, a-b-db, 14, 2, 2, 36, 165, 90, 90, 165, 83, 153, 3, 1.1562
128, 6, wb, attraction, a-b-db, 14, 2, 2, 36, 165, 90, 90, 165, 83, 153, 2, 1.05239
128, 6, wb, filler, NA, 999, 999, 2, 37, 160, 121, 56, 70, 127, 99, 2, 1.43202
128, 6, wb, filler, NA, 999, 999, 2, 37, 160, 121, 56, 70, 127, 99, 1, 0.485579
128, 6, wb, filler, NA, 999, 999, 3, 1, 192, 113, 141, 170, 62, 106, 3, 1.72017
128, 6, wb, filler, NA, 999, 999, 3, 1, 192, 113, 141, 170, 62, 106, 2, 0.770086
128, 6, wb, attraction, a-b-db, 9, 1, 3, 2, 57, 129, 135, 60, 60, 135, 1, 1.31321
128, 6, wb, attraction, a-b-db, 9, 1, 3, 2, 57, 129, 135, 60, 60, 135, 2, 0.539328
128, 6, wb, attraction, a-b-db, 5, 2, 3, 3, 90, 165, 165, 90, 88, 161, 2, 1.64394
128, 6, wb, attraction, a-b-db, 5, 2, 3, 3, 90, 165, 165, 90, 88, 161, 1, 0.46465
128, 6, wb, attraction, a-b-db, 14, 2, 3, 4, 83, 153, 90, 165, 165, 90, 1, 1.3077
128, 6, wb, attraction, a-b-db, 14, 2, 3, 4, 83, 153, 90, 165, 165, 90, 2, 0.60599
128, 6, wb, attraction, a-b-da, 5, 3, 3, 5, 120, 195, 190, 117, 195, 120, 2, 3.4839
128, 6, wb, attraction, a-b-da, 5, 3, 3, 5, 120, 195, 190, 117, 195, 120, 1, 0.454661
128, 6, wb, attraction, a-b-db, 14, 1, 3, 6, 56, 125, 60, 135, 135, 60, 1, 2.59432
128, 6, wb, attraction, a-b-db, 14, 1, 3, 6, 56, 125, 60, 135, 135, 60, 3, 0.777023
128, 6, wb, filler, NA, 999, 999, 3, 7, 111, 85, 179, 178, 146, 92, 1, 0.879263
128, 6, wb, filler, NA, 999, 999, 3, 7, 111, 85, 179, 178, 146, 92, 2, 0.362936
128, 6, wb, attraction, a-b-db, 2, 3, 3, 8, 120, 195, 119, 193, 195, 120, 1, 1.68214
128, 6, wb, attraction, a-b-db, 2, 3, 3, 8, 120, 195, 119, 193, 195, 120, 3, 1.49356
128, 6, wb, attraction, a-b-da, 2, 2, 3, 9, 163, 89, 165, 90, 90, 165, 2, 3.47112
128, 6, wb, attraction, a-b-da, 2, 2, 3, 9, 163, 89, 165, 90, 90, 165, 3, 0.522573
128, 6, wb, catch, NA, 999, 999, 3, 10, 70, 125, 103, 152, 168, 147, 1, 0.995678
128, 6, wb, catch, NA, 999, 999, 3, 10, 70, 125, 103, 152, 168, 147, 3, 1.01068
128, 6, wb, attraction, a-b-da, 2, 3, 3, 11, 193, 119, 195, 120, 120, 195, 3, 5.35166
128, 6, wb, attraction, a-b-da, 2, 3, 3, 11, 193, 119, 195, 120, 120, 195, 2, 0.783345
128, 6, wb, attraction, a-b-db, 5, 1, 3, 12, 135, 60, 60, 135, 58, 132, 1, 1.5497
128, 6, wb, attraction, a-b-db, 5, 1, 3, 12, 135, 60, 60, 135, 58, 132, 2, 0.590471
128, 6, wb, attraction, a-b-da, 9, 1, 3, 13, 135, 60, 60, 135, 129, 57, 2, 3.40431
128, 6, wb, attraction, a-b-da, 9, 1, 3, 13, 135, 60, 60, 135, 129, 57, 1, 0.578497
128, 6, wb, filler, NA, 999, 999, 3, 14, 143, 56, 125, 184, 142, 98, 1, 1.49699
128, 6, wb, filler, NA, 999, 999, 3, 14, 143, 56, 125, 184, 142, 98, 2, 0.531785
128, 6, wb, attraction, a-b-da, 2, 1, 3, 15, 134, 59, 135, 60, 60, 135, 1, 2.94822
128, 6, wb, attraction, a-b-da, 2, 1, 3, 15, 134, 59, 135, 60, 60, 135, 3, 0.668593
128, 6, wb, filler, NA, 999, 999, 3, 16, 57, 145, 129, 155, 140, 93, 1, 1.58367
128, 6, wb, filler, NA, 999, 999, 3, 16, 57, 145, 129, 155, 140, 93, 2, 0.41531
128, 6, wb, attraction, a-b-db, 9, 2, 3, 17, 90, 165, 86, 157, 165, 90, 2, 2.82048
128, 6, wb, attraction, a-b-db, 9, 2, 3, 17, 90, 165, 86, 157, 165, 90, 1, 0.609367
128, 6, wb, catch, NA, 999, 999, 3, 18, 143, 172, 107, 148, 122, 73, 3, 1.07058
128, 6, wb, catch, NA, 999, 999, 3, 18, 143, 172, 107, 148, 122, 73, 1, 0.44271
128, 6, wb, filler, NA, 999, 999, 3, 19, 175, 137, 60, 181, 131, 155, 2, 2.00659
128, 6, wb, filler, NA, 999, 999, 3, 19, 175, 137, 60, 181, 131, 155, 1, 0.484615
128, 6, wb, attraction, a-b-da, 14, 1, 3, 20, 125, 56, 135, 60, 60, 135, 1, 1.15896
128, 6, wb, attraction, a-b-da, 14, 1, 3, 20, 125, 56, 135, 60, 60, 135, 2, 0.559288
128, 6, wb, attraction, a-b-db, 9, 3, 3, 21, 114, 186, 120, 195, 195, 120, 1, 5.1425
128, 6, wb, attraction, a-b-db, 9, 3, 3, 21, 114, 186, 120, 195, 195, 120, 2, 0.790173
128, 6, wb, filler, NA, 999, 999, 3, 22, 97, 154, 166, 189, 65, 92, 3, 0.963852
128, 6, wb, filler, NA, 999, 999, 3, 22, 97, 154, 166, 189, 65, 92, 2, 0.404215
128, 6, wb, attraction, a-b-db, 2, 1, 3, 23, 59, 134, 60, 135, 135, 60, 1, 2.87392
128, 6, wb, attraction, a-b-db, 2, 1, 3, 23, 59, 134, 60, 135, 135, 60, 3, 0.605
128, 6, wb, attraction, a-b-db, 2, 2, 3, 24, 90, 165, 89, 163, 165, 90, 1, 2.04285
128, 6, wb, attraction, a-b-db, 2, 2, 3, 24, 90, 165, 89, 163, 165, 90, 3, 2.7115
128, 6, wb, attraction, a-b-da, 5, 1, 3, 25, 60, 135, 132, 58, 135, 60, 1, 2.3839
128, 6, wb, attraction, a-b-da, 5, 1, 3, 25, 60, 135, 132, 58, 135, 60, 2, 1.43113
128, 6, wb, attraction, a-b-db, 14, 3, 3, 26, 195, 120, 111, 181, 120, 195, 2, 1.62725
128, 6, wb, attraction, a-b-db, 14, 3, 3, 26, 195, 120, 111, 181, 120, 195, 3, 1.64084
128, 6, wb, attraction, a-b-da, 9, 3, 3, 27, 120, 195, 195, 120, 186, 114, 3, 1.97228
128, 6, wb, attraction, a-b-da, 9, 3, 3, 27, 120, 195, 195, 120, 186, 114, 1, 0.379481
128, 6, wb, filler, NA, 999, 999, 3, 28, 181, 139, 148, 64, 66, 60, 3, 0.714015
128, 6, wb, filler, NA, 999, 999, 3, 28, 181, 139, 148, 64, 66, 60, 1, 0.692373
128, 6, wb, attraction, a-b-da, 14, 2, 3, 29, 153, 83, 165, 90, 90, 165, 1, 1.64612
128, 6, wb, attraction, a-b-da, 14, 2, 3, 29, 153, 83, 165, 90, 90, 165, 3, 0.387156
128, 6, wb, filler, NA, 999, 999, 3, 30, 98, 146, 188, 157, 73, 129, 3, 0.897362
128, 6, wb, filler, NA, 999, 999, 3, 30, 98, 146, 188, 157, 73, 129, 2, 0.652519
128, 6, wb, attraction, a-b-db, 5, 3, 3, 31, 195, 120, 120, 195, 117, 190, 3, 3.52816
128, 6, wb, attraction, a-b-db, 5, 3, 3, 31, 195, 120, 120, 195, 117, 190, 2, 0.6011
128, 6, wb, attraction, a-b-da, 9, 2, 3, 32, 165, 90, 90, 165, 157, 86, 3, 2.37477
128, 6, wb, attraction, a-b-da, 9, 2, 3, 32, 165, 90, 90, 165, 157, 86, 2, 1.31813
128, 6, wb, attraction, a-b-da, 14, 3, 3, 33, 120, 195, 181, 111, 195, 120, 1, 4.44692
128, 6, wb, attraction, a-b-da, 14, 3, 3, 33, 120, 195, 181, 111, 195, 120, 3, 1.65884
128, 6, wb, filler, NA, 999, 999, 3, 34, 174, 119, 60, 107, 128, 116, 2, 0.741598
128, 6, wb, filler, NA, 999, 999, 3, 34, 174, 119, 60, 107, 128, 116, 1, 0.622663
128, 6, wb, filler, NA, 999, 999, 3, 35, 68, 58, 178, 157, 82, 100, 1, 1.1717
128, 6, wb, filler, NA, 999, 999, 3, 35, 68, 58, 178, 157, 82, 100, 2, 0.459365
128, 6, wb, catch, NA, 999, 999, 3, 36, 145, 110, 131, 64, 172, 143, 2, 0.982443
128, 6, wb, catch, NA, 999, 999, 3, 36, 145, 110, 131, 64, 172, 143, 3, 0.3981
128, 6, wb, attraction, a-b-da, 5, 2, 3, 37, 165, 90, 90, 165, 161, 88, 3, 2.81202
128, 6, wb, attraction, a-b-da, 5, 2, 3, 37, 165, 90, 90, 165, 161, 88, 2, 0.433845
128, 6, wb, filler, NA, 999, 999, 4, 1, 189, 130, 127, 144, 124, 124, 3, 1.07016
128, 6, wb, filler, NA, 999, 999, 4, 1, 189, 130, 127, 144, 124, 124, 1, 0.546482
128, 6, wb, attraction, a-b-db, 9, 2, 4, 2, 90, 165, 86, 157, 165, 90, 2, 4.66636
128, 6, wb, attraction, a-b-db, 9, 2, 4, 2, 90, 165, 86, 157, 165, 90, 1, 1.4055
128, 6, wb, attraction, a-b-da, 2, 3, 4, 3, 120, 195, 195, 120, 193, 119, 3, 5.42707
128, 6, wb, attraction, a-b-da, 2, 3, 4, 3, 120, 195, 195, 120, 193, 119, 1, 0.431378
128, 6, wb, filler, NA, 999, 999, 4, 4, 120, 88, 78, 89, 184, 120, 2, 0.995664
128, 6, wb, filler, NA, 999, 999, 4, 4, 120, 88, 78, 89, 184, 120, 3, 0.882761
128, 6, wb, attraction, a-b-db, 5, 2, 4, 5, 90, 165, 165, 90, 88, 161, 1, 3.85296
128, 6, wb, attraction, a-b-db, 5, 2, 4, 5, 90, 165, 165, 90, 88, 161, 2, 0.441219
128, 6, wb, catch, NA, 999, 999, 4, 6, 153, 162, 149, 106, 107, 88, 3, 0.940864
128, 6, wb, catch, NA, 999, 999, 4, 6, 153, 162, 149, 106, 107, 88, 1, 0.36591
128, 6, wb, attraction, a-b-da, 14, 2, 4, 7, 153, 83, 165, 90, 90, 165, 1, 2.34925
128, 6, wb, attraction, a-b-da, 14, 2, 4, 7, 153, 83, 165, 90, 90, 165, 3, 0.733804
128, 6, wb, attraction, a-b-da, 2, 2, 4, 8, 165, 90, 163, 89, 90, 165, 2, 1.15008
128, 6, wb, attraction, a-b-da, 2, 2, 4, 8, 165, 90, 163, 89, 90, 165, 3, 0.678978
128, 6, wb, attraction, a-b-da, 2, 1, 4, 9, 135, 60, 134, 59, 60, 135, 2, 1.20944
128, 6, wb, attraction, a-b-da, 2, 1, 4, 9, 135, 60, 134, 59, 60, 135, 3, 0.647664
128, 6, wb, attraction, a-b-db, 9, 3, 4, 10, 114, 186, 120, 195, 195, 120, 1, 0.963339
128, 6, wb, attraction, a-b-db, 9, 3, 4, 10, 114, 186, 120, 195, 195, 120, 3, 0.867737
128, 6, wb, filler, NA, 999, 999, 4, 11, 89, 83, 78, 127, 174, 94, 1, 0.958703
128, 6, wb, filler, NA, 999, 999, 4, 11, 89, 83, 78, 127, 174, 94, 3, 0.543062
128, 6, wb, filler, NA, 999, 999, 4, 12, 72, 121, 93, 147, 134, 95, 1, 1.75903
128, 6, wb, filler, NA, 999, 999, 4, 12, 72, 121, 93, 147, 134, 95, 2, 0.583045
128, 6, wb, filler, NA, 999, 999, 4, 13, 165, 73, 77, 109, 97, 189, 2, 1.32531
128, 6, wb, filler, NA, 999, 999, 4, 13, 165, 73, 77, 109, 97, 189, 3, 0.518951
128, 6, wb, attraction, a-b-da, 9, 3, 4, 14, 195, 120, 186, 114, 120, 195, 2, 1.86397
128, 6, wb, attraction, a-b-da, 9, 3, 4, 14, 195, 120, 186, 114, 120, 195, 1, 0.484049
128, 6, wb, attraction, a-b-da, 9, 2, 4, 15, 90, 165, 165, 90, 157, 86, 3, 5.60655
128, 6, wb, attraction, a-b-da, 9, 2, 4, 15, 90, 165, 165, 90, 157, 86, 2, 0.89941
128, 6, wb, filler, NA, 999, 999, 4, 16, 159, 156, 86, 102, 149, 117, 2, 0.685078
128, 6, wb, filler, NA, 999, 999, 4, 16, 159, 156, 86, 102, 149, 117, 1, 0.584912
128, 6, wb, attraction, a-b-db, 9, 1, 4, 17, 135, 60, 57, 129, 60, 135, 1, 4.38334
128, 6, wb, attraction, a-b-db, 9, 1, 4, 17, 135, 60, 57, 129, 60, 135, 2, 0.557961
128, 6, wb, attraction, a-b-da, 14, 1, 4, 18, 60, 135, 135, 60, 125, 56, 1, 2.99693
128, 6, wb, attraction, a-b-da, 14, 1, 4, 18, 60, 135, 135, 60, 125, 56, 2, 0.72336
128, 6, wb, attraction, a-b-da, 14, 3, 4, 19, 195, 120, 120, 195, 181, 111, 3, 2.69184
128, 6, wb, attraction, a-b-da, 14, 3, 4, 19, 195, 120, 120, 195, 181, 111, 2, 0.846207
128, 6, wb, attraction, a-b-db, 14, 3, 4, 20, 195, 120, 120, 195, 111, 181, 3, 1.51384
128, 6, wb, attraction, a-b-db, 14, 3, 4, 20, 195, 120, 120, 195, 111, 181, 2, 1.0442
128, 6, wb, filler, NA, 999, 999, 4, 21, 147, 195, 70, 72, 154, 169, 2, 0.823627
128, 6, wb, filler, NA, 999, 999, 4, 21, 147, 195, 70, 72, 154, 169, 1, 0.437418
128, 6, wb, attraction, a-b-da, 5, 1, 4, 22, 60, 135, 132, 58, 135, 60, 1, 1.71396
128, 6, wb, attraction, a-b-da, 5, 1, 4, 22, 60, 135, 132, 58, 135, 60, 2, 0.612184
128, 6, wb, catch, NA, 999, 999, 4, 23, 136, 179, 151, 104, 69, 126, 3, 1.14521
128, 6, wb, catch, NA, 999, 999, 4, 23, 136, 179, 151, 104, 69, 126, 1, 0.473977
128, 6, wb, filler, NA, 999, 999, 4, 24, 141, 117, 142, 151, 85, 85, 3, 0.924441
128, 6, wb, filler, NA, 999, 999, 4, 24, 141, 117, 142, 151, 85, 85, 2, 0.430148
128, 6, wb, attraction, a-b-da, 9, 1, 4, 25, 60, 135, 135, 60, 129, 57, 1, 1.67464
128, 6, wb, attraction, a-b-da, 9, 1, 4, 25, 60, 135, 135, 60, 129, 57, 2, 0.606058
128, 6, wb, filler, NA, 999, 999, 4, 26, 93, 71, 76, 181, 87, 68, 3, 1.01109
128, 6, wb, filler, NA, 999, 999, 4, 26, 93, 71, 76, 181, 87, 68, 2, 0.553481
128, 6, wb, attraction, a-b-db, 2, 1, 4, 27, 59, 134, 60, 135, 135, 60, 1, 1.98536
128, 6, wb, attraction, a-b-db, 2, 1, 4, 27, 59, 134, 60, 135, 135, 60, 2, 0.528546
128, 6, wb, attraction, a-b-db, 14, 1, 4, 28, 60, 135, 56, 125, 135, 60, 2, 1.64122
128, 6, wb, attraction, a-b-db, 14, 1, 4, 28, 60, 135, 56, 125, 135, 60, 1, 0.509886
128, 6, wb, catch, NA, 999, 999, 4, 29, 99, 96, 123, 132, 124, 191, 1, 0.854962
128, 6, wb, catch, NA, 999, 999, 4, 29, 99, 96, 123, 132, 124, 191, 3, 0.427374
128, 6, wb, attraction, a-b-da, 5, 3, 4, 30, 195, 120, 190, 117, 120, 195, 2, 3.92777
128, 6, wb, attraction, a-b-da, 5, 3, 4, 30, 195, 120, 190, 117, 120, 195, 3, 0.528501
128, 6, wb, attraction, a-b-db, 5, 3, 4, 31, 117, 190, 120, 195, 195, 120, 1, 2.089
128, 6, wb, attraction, a-b-db, 5, 3, 4, 31, 117, 190, 120, 195, 195, 120, 3, 1.07575
128, 6, wb, attraction, a-b-db, 2, 2, 4, 32, 165, 90, 89, 163, 90, 165, 1, 1.90995
128, 6, wb, attraction, a-b-db, 2, 2, 4, 32, 165, 90, 89, 163, 90, 165, 2, 0.423914
128, 6, wb, attraction, a-b-db, 5, 1, 4, 33, 60, 135, 135, 60, 58, 132, 2, 1.2926
128, 6, wb, attraction, a-b-db, 5, 1, 4, 33, 60, 135, 135, 60, 58, 132, 1, 0.383267
128, 6, wb, filler, NA, 999, 999, 4, 34, 105, 160, 123, 67, 59, 112, 3, 1.37379
128, 6, wb, filler, NA, 999, 999, 4, 34, 105, 160, 123, 67, 59, 112, 1, 0.357313
128, 6, wb, attraction, a-b-db, 2, 3, 4, 35, 195, 120, 119, 193, 120, 195, 1, 2.14842
128, 6, wb, attraction, a-b-db, 2, 3, 4, 35, 195, 120, 119, 193, 120, 195, 3, 0.789152
128, 6, wb, attraction, a-b-db, 14, 2, 4, 36, 90, 165, 165, 90, 83, 153, 3, 18.9077
128, 6, wb, attraction, a-b-db, 14, 2, 4, 36, 90, 165, 165, 90, 83, 153, 1, 0.592862
128, 6, wb, attraction, a-b-da, 5, 2, 4, 37, 165, 90, 90, 165, 161, 88, 3, 0.942646
128, 6, wb, attraction, a-b-da, 5, 2, 4, 37, 165, 90, 90, 165, 161, 88, 2, 0.839689
128, 6, wb, filler, NA, 999, 999, 5, 1, 145, 108, 83, 76, 92, 103, 2, 15.1619
128, 6, wb, filler, NA, 999, 999, 5, 1, 145, 108, 83, 76, 92, 103, 1, 0.549873
128, 6, wb, filler, NA, 999, 999, 5, 2, 122, 64, 163, 155, 128, 130, 1, 1.1897
128, 6, wb, filler, NA, 999, 999, 5, 2, 122, 64, 163, 155, 128, 130, 2, 0.37261
128, 6, wb, filler, NA, 999, 999, 5, 3, 114, 131, 193, 137, 129, 143, 1, 1.18763
128, 6, wb, filler, NA, 999, 999, 5, 3, 114, 131, 193, 137, 129, 143, 2, 0.450746
128, 6, wb, attraction, a-b-db, 5, 1, 5, 4, 60, 135, 135, 60, 58, 132, 2, 1.44639
128, 6, wb, attraction, a-b-db, 5, 1, 5, 4, 60, 135, 135, 60, 58, 132, 3, 0.499291
128, 6, wb, attraction, a-b-da, 2, 2, 5, 5, 163, 89, 90, 165, 165, 90, 1, 1.60509
128, 6, wb, attraction, a-b-da, 2, 2, 5, 5, 163, 89, 90, 165, 165, 90, 2, 0.435255
128, 6, wb, filler, NA, 999, 999, 5, 6, 114, 190, 57, 150, 168, 69, 2, 1.6317
128, 6, wb, filler, NA, 999, 999, 5, 6, 114, 190, 57, 150, 168, 69, 1, 0.469257
128, 6, wb, attraction, a-b-da, 5, 1, 5, 7, 132, 58, 60, 135, 135, 60, 1, 1.21629
128, 6, wb, attraction, a-b-da, 5, 1, 5, 7, 132, 58, 60, 135, 135, 60, 2, 0.45457
128, 6, wb, attraction, a-b-da, 9, 1, 5, 8, 129, 57, 60, 135, 135, 60, 1, 1.6025
128, 6, wb, attraction, a-b-da, 9, 1, 5, 8, 129, 57, 60, 135, 135, 60, 2, 0.66521
128, 6, wb, attraction, a-b-db, 5, 2, 5, 9, 90, 165, 165, 90, 88, 161, 2, 1.86829
128, 6, wb, attraction, a-b-db, 5, 2, 5, 9, 90, 165, 165, 90, 88, 161, 3, 0.576326
128, 6, wb, filler, NA, 999, 999, 5, 10, 83, 70, 167, 182, 70, 90, 3, 1.08683
128, 6, wb, filler, NA, 999, 999, 5, 10, 83, 70, 167, 182, 70, 90, 2, 0.402397
128, 6, wb, attraction, a-b-db, 9, 2, 5, 11, 90, 165, 165, 90, 86, 157, 2, 3.00822
128, 6, wb, attraction, a-b-db, 9, 2, 5, 11, 90, 165, 165, 90, 86, 157, 1, 0.429862
128, 6, wb, filler, NA, 999, 999, 5, 12, 146, 161, 192, 158, 165, 59, 3, 1.29842
128, 6, wb, filler, NA, 999, 999, 5, 12, 146, 161, 192, 158, 165, 59, 2, 0.445283
128, 6, wb, catch, NA, 999, 999, 5, 13, 114, 141, 150, 165, 97, 98, 3, 1.01708
128, 6, wb, catch, NA, 999, 999, 5, 13, 114, 141, 150, 165, 97, 98, 2, 0.35145
128, 6, wb, attraction, a-b-db, 9, 3, 5, 14, 114, 186, 120, 195, 195, 120, 1, 4.91131
128, 6, wb, attraction, a-b-db, 9, 3, 5, 14, 114, 186, 120, 195, 195, 120, 2, 0.648363
128, 6, wb, filler, NA, 999, 999, 5, 15, 89, 176, 160, 101, 71, 87, 3, 1.78812
128, 6, wb, filler, NA, 999, 999, 5, 15, 89, 176, 160, 101, 71, 87, 1, 0.690816
128, 6, wb, attraction, a-b-db, 2, 1, 5, 16, 59, 134, 135, 60, 60, 135, 2, 2.62053
128, 6, wb, attraction, a-b-db, 2, 1, 5, 16, 59, 134, 135, 60, 60, 135, 3, 0.418339
128, 6, wb, attraction, a-b-db, 2, 3, 5, 17, 119, 193, 120, 195, 195, 120, 1, 1.79149
128, 6, wb, attraction, a-b-db, 2, 3, 5, 17, 119, 193, 120, 195, 195, 120, 2, 1.12621
128, 6, wb, attraction, a-b-da, 9, 3, 5, 18, 186, 114, 120, 195, 195, 120, 1, 1.56651
128, 6, wb, attraction, a-b-da, 9, 3, 5, 18, 186, 114, 120, 195, 195, 120, 2, 0.510607
128, 6, wb, attraction, a-b-da, 9, 2, 5, 19, 90, 165, 165, 90, 157, 86, 2, 1.35973
128, 6, wb, attraction, a-b-da, 9, 2, 5, 19, 90, 165, 165, 90, 157, 86, 1, 0.383904
128, 6, wb, attraction, a-b-db, 14, 3, 5, 20, 120, 195, 111, 181, 195, 120, 2, 2.21453
128, 6, wb, attraction, a-b-db, 14, 3, 5, 20, 120, 195, 111, 181, 195, 120, 1, 0.436426
128, 6, wb, filler, NA, 999, 999, 5, 21, 151, 123, 167, 145, 79, 167, 3, 0.928849
128, 6, wb, filler, NA, 999, 999, 5, 21, 151, 123, 167, 145, 79, 167, 2, 0.378573
128, 6, wb, attraction, a-b-db, 14, 2, 5, 22, 90, 165, 83, 153, 165, 90, 1, 1.00107
128, 6, wb, attraction, a-b-db, 14, 2, 5, 22, 90, 165, 83, 153, 165, 90, 2, 0.464172
128, 6, wb, attraction, a-b-da, 2, 3, 5, 23, 193, 119, 195, 120, 120, 195, 1, 2.50721
128, 6, wb, attraction, a-b-da, 2, 3, 5, 23, 193, 119, 195, 120, 120, 195, 3, 0.469173
128, 6, wb, attraction, a-b-da, 14, 2, 5, 24, 90, 165, 153, 83, 165, 90, 2, 1.32015
128, 6, wb, attraction, a-b-da, 14, 2, 5, 24, 90, 165, 153, 83, 165, 90, 1, 0.466459
128, 6, wb, attraction, a-b-da, 5, 2, 5, 25, 165, 90, 90, 165, 161, 88, 1, 4.6856
128, 6, wb, attraction, a-b-da, 5, 2, 5, 25, 165, 90, 90, 165, 161, 88, 2, 0.479976
128, 6, wb, catch, NA, 999, 999, 5, 26, 135, 180, 133, 62, 128, 127, 2, 0.946476
128, 6, wb, catch, NA, 999, 999, 5, 26, 135, 180, 133, 62, 128, 127, 1, 0.34751
128, 6, wb, attraction, a-b-da, 14, 1, 5, 27, 60, 135, 125, 56, 135, 60, 1, 1.57133
128, 6, wb, attraction, a-b-da, 14, 1, 5, 27, 60, 135, 125, 56, 135, 60, 3, 1.08283
128, 6, wb, catch, NA, 999, 999, 5, 28, 151, 104, 141, 174, 118, 77, 3, 1.30104
128, 6, wb, catch, NA, 999, 999, 5, 28, 151, 104, 141, 174, 118, 77, 2, 0.439963
128, 6, wb, filler, NA, 999, 999, 5, 29, 140, 193, 82, 71, 80, 93, 2, 0.899743
128, 6, wb, filler, NA, 999, 999, 5, 29, 140, 193, 82, 71, 80, 93, 1, 0.358742
128, 6, wb, attraction, a-b-db, 9, 1, 5, 30, 60, 135, 135, 60, 57, 129, 1, 3.49395
128, 6, wb, attraction, a-b-db, 9, 1, 5, 30, 60, 135, 135, 60, 57, 129, 2, 0.36816
128, 6, wb, filler, NA, 999, 999, 5, 31, 118, 82, 113, 173, 58, 84, 3, 0.935359
128, 6, wb, filler, NA, 999, 999, 5, 31, 118, 82, 113, 173, 58, 84, 2, 0.481202
128, 6, wb, attraction, a-b-db, 14, 1, 5, 32, 60, 135, 56, 125, 135, 60, 2, 1.13949
128, 6, wb, attraction, a-b-db, 14, 1, 5, 32, 60, 135, 56, 125, 135, 60, 3, 0.492488
128, 6, wb, attraction, a-b-da, 2, 1, 5, 33, 60, 135, 135, 60, 134, 59, 1, 1.35828
128, 6, wb, attraction, a-b-da, 2, 1, 5, 33, 60, 135, 135, 60, 134, 59, 2, 0.726479
128, 6, wb, attraction, a-b-da, 14, 3, 5, 34, 195, 120, 120, 195, 181, 111, 1, 1.63893
128, 6, wb, attraction, a-b-da, 14, 3, 5, 34, 195, 120, 120, 195, 181, 111, 2, 0.46759
128, 6, wb, attraction, a-b-db, 5, 3, 5, 35, 120, 195, 117, 190, 195, 120, 2, 2.26287
128, 6, wb, attraction, a-b-db, 5, 3, 5, 35, 120, 195, 117, 190, 195, 120, 1, 0.522722
128, 6, wb, attraction, a-b-db, 2, 2, 5, 36, 165, 90, 90, 165, 89, 163, 1, 1.16303
128, 6, wb, attraction, a-b-db, 2, 2, 5, 36, 165, 90, 90, 165, 89, 163, 2, 0.659608
128, 6, wb, attraction, a-b-da, 5, 3, 5, 37, 195, 120, 120, 195, 190, 117, 1, 4.59857
128, 6, wb, attraction, a-b-da, 5, 3, 5, 37, 195, 120, 120, 195, 190, 117, 2, 0.452411
128, 6, wb, attraction, a-b-db, 2, 1, 6, 1, 135, 60, 60, 135, 59, 134, 3, 1.64019
128, 6, wb, attraction, a-b-db, 2, 1, 6, 1, 135, 60, 60, 135, 59, 134, 1, 0.740996
128, 6, wb, attraction, a-b-da, 9, 1, 6, 2, 135, 60, 129, 57, 60, 135, 2, 2.18066
128, 6, wb, attraction, a-b-da, 9, 1, 6, 2, 135, 60, 129, 57, 60, 135, 3, 0.691924
128, 6, wb, attraction, a-b-db, 14, 2, 6, 3, 83, 153, 165, 90, 90, 165, 1, 1.38162
128, 6, wb, attraction, a-b-db, 14, 2, 6, 3, 83, 153, 165, 90, 90, 165, 2, 0.461379
128, 6, wb, attraction, a-b-db, 14, 3, 6, 4, 120, 195, 195, 120, 111, 181, 3, 1.56831
128, 6, wb, attraction, a-b-db, 14, 3, 6, 4, 120, 195, 195, 120, 111, 181, 2, 0.632514
128, 6, wb, attraction, a-b-db, 2, 2, 6, 5, 89, 163, 165, 90, 90, 165, 1, 1.26891
128, 6, wb, attraction, a-b-db, 2, 2, 6, 5, 89, 163, 165, 90, 90, 165, 2, 0.481146
128, 6, wb, filler, NA, 999, 999, 6, 6, 111, 83, 107, 193, 142, 140, 1, 1.76369
128, 6, wb, filler, NA, 999, 999, 6, 6, 111, 83, 107, 193, 142, 140, 2, 0.683725
128, 6, wb, catch, NA, 999, 999, 6, 7, 128, 67, 155, 100, 177, 138, 1, 1.04604
128, 6, wb, catch, NA, 999, 999, 6, 7, 128, 67, 155, 100, 177, 138, 3, 0.427032
128, 6, wb, catch, NA, 999, 999, 6, 8, 162, 153, 136, 119, 81, 114, 3, 1.1755
128, 6, wb, catch, NA, 999, 999, 6, 8, 162, 153, 136, 119, 81, 114, 1, 0.367169
128, 6, wb, attraction, a-b-db, 5, 2, 6, 9, 88, 161, 90, 165, 165, 90, 1, 2.23042
128, 6, wb, attraction, a-b-db, 5, 2, 6, 9, 88, 161, 90, 165, 165, 90, 2, 1.08357
128, 6, wb, attraction, a-b-da, 2, 1, 6, 10, 60, 135, 135, 60, 134, 59, 1, 1.94993
128, 6, wb, attraction, a-b-da, 2, 1, 6, 10, 60, 135, 135, 60, 134, 59, 3, 1.02255
128, 6, wb, catch, NA, 999, 999, 6, 11, 159, 96, 186, 129, 126, 69, 3, 1.22747
128, 6, wb, catch, NA, 999, 999, 6, 11, 159, 96, 186, 129, 126, 69, 2, 0.401123
128, 6, wb, attraction, a-b-da, 5, 2, 6, 12, 90, 165, 165, 90, 161, 88, 2, 2.18302
128, 6, wb, attraction, a-b-da, 5, 2, 6, 12, 90, 165, 165, 90, 161, 88, 1, 0.518298
128, 6, wb, attraction, a-b-db, 14, 1, 6, 13, 56, 125, 60, 135, 135, 60, 1, 2.13528
128, 6, wb, attraction, a-b-db, 14, 1, 6, 13, 56, 125, 60, 135, 135, 60, 2, 0.688589
128, 6, wb, filler, NA, 999, 999, 6, 14, 168, 84, 181, 178, 181, 162, 1, 1.50698
128, 6, wb, filler, NA, 999, 999, 6, 14, 168, 84, 181, 178, 181, 162, 2, 0.549142
128, 6, wb, attraction, a-b-db, 2, 3, 6, 15, 119, 193, 195, 120, 120, 195, 1, 2.51689
128, 6, wb, attraction, a-b-db, 2, 3, 6, 15, 119, 193, 195, 120, 120, 195, 2, 0.606787
128, 6, wb, filler, NA, 999, 999, 6, 16, 170, 75, 136, 144, 109, 67, 3, 1.23594
128, 6, wb, filler, NA, 999, 999, 6, 16, 170, 75, 136, 144, 109, 67, 2, 0.489425
128, 6, wb, attraction, a-b-da, 9, 2, 6, 17, 157, 86, 165, 90, 90, 165, 2, 2.34742
128, 6, wb, attraction, a-b-da, 9, 2, 6, 17, 157, 86, 165, 90, 90, 165, 3, 0.53991
128, 6, wb, attraction, a-b-da, 14, 1, 6, 18, 135, 60, 125, 56, 60, 135, 2, 1.88365
128, 6, wb, attraction, a-b-da, 14, 1, 6, 18, 135, 60, 125, 56, 60, 135, 3, 0.646959
128, 6, wb, attraction, a-b-da, 14, 3, 6, 19, 181, 111, 195, 120, 120, 195, 1, 2.54679
128, 6, wb, attraction, a-b-da, 14, 3, 6, 19, 181, 111, 195, 120, 120, 195, 3, 0.57123
128, 6, wb, filler, NA, 999, 999, 6, 20, 131, 104, 144, 125, 64, 87, 3, 1.11439
128, 6, wb, filler, NA, 999, 999, 6, 20, 131, 104, 144, 125, 64, 87, 2, 0.71667
128, 6, wb, attraction, a-b-da, 14, 2, 6, 21, 90, 165, 153, 83, 165, 90, 2, 1.32569
128, 6, wb, attraction, a-b-da, 14, 2, 6, 21, 90, 165, 153, 83, 165, 90, 3, 0.423316
128, 6, wb, attraction, a-b-db, 5, 1, 6, 22, 58, 132, 60, 135, 135, 60, 1, 1.78787
128, 6, wb, attraction, a-b-db, 5, 1, 6, 22, 58, 132, 60, 135, 135, 60, 2, 0.546479
128, 6, wb, attraction, a-b-da, 2, 2, 6, 23, 90, 165, 163, 89, 165, 90, 2, 1.42631
128, 6, wb, attraction, a-b-da, 2, 2, 6, 23, 90, 165, 163, 89, 165, 90, 3, 0.751806
128, 6, wb, filler, NA, 999, 999, 6, 24, 125, 129, 169, 73, 134, 93, 2, 2.09549
128, 6, wb, filler, NA, 999, 999, 6, 24, 125, 129, 169, 73, 134, 93, 1, 0.626137
128, 6, wb, attraction, a-b-db, 5, 3, 6, 25, 195, 120, 120, 195, 117, 190, 1, 2.1186
128, 6, wb, attraction, a-b-db, 5, 3, 6, 25, 195, 120, 120, 195, 117, 190, 2, 0.472487
128, 6, wb, attraction, a-b-da, 2, 3, 6, 26, 120, 195, 193, 119, 195, 120, 1, 1.98772
128, 6, wb, attraction, a-b-da, 2, 3, 6, 26, 120, 195, 193, 119, 195, 120, 3, 0.834449
128, 6, wb, filler, NA, 999, 999, 6, 27, 142, 69, 120, 160, 171, 150, 1, 1.31865
128, 6, wb, filler, NA, 999, 999, 6, 27, 142, 69, 120, 160, 171, 150, 3, 0.656899
128, 6, wb, attraction, a-b-da, 9, 3, 6, 28, 120, 195, 195, 120, 186, 114, 2, 1.53209
128, 6, wb, attraction, a-b-da, 9, 3, 6, 28, 120, 195, 195, 120, 186, 114, 1, 0.42948
128, 6, wb, filler, NA, 999, 999, 6, 29, 152, 171, 116, 125, 189, 114, 2, 1.40206
128, 6, wb, filler, NA, 999, 999, 6, 29, 152, 171, 116, 125, 189, 114, 1, 0.400798
128, 6, wb, attraction, a-b-db, 9, 2, 6, 30, 165, 90, 86, 157, 90, 165, 2, 1.50274
128, 6, wb, attraction, a-b-db, 9, 2, 6, 30, 165, 90, 86, 157, 90, 165, 3, 1.23358
128, 6, wb, attraction, a-b-db, 9, 1, 6, 31, 135, 60, 60, 135, 57, 129, 1, 5.18969
128, 6, wb, attraction, a-b-db, 9, 1, 6, 31, 135, 60, 60, 135, 57, 129, 2, 0.547393
128, 6, wb, attraction, a-b-db, 9, 3, 6, 32, 195, 120, 120, 195, 114, 186, 1, 2.21118
128, 6, wb, attraction, a-b-db, 9, 3, 6, 32, 195, 120, 120, 195, 114, 186, 2, 0.417103
128, 6, wb, filler, NA, 999, 999, 6, 33, 158, 193, 63, 190, 175, 64, 3, 1.9983
128, 6, wb, filler, NA, 999, 999, 6, 33, 158, 193, 63, 190, 175, 64, 1, 0.604909
128, 6, wb, attraction, a-b-da, 5, 3, 6, 34, 190, 117, 120, 195, 195, 120, 1, 4.63475
128, 6, wb, attraction, a-b-da, 5, 3, 6, 34, 190, 117, 120, 195, 195, 120, 2, 0.583392
128, 6, wb, filler, NA, 999, 999, 6, 35, 162, 115, 61, 125, 68, 193, 2, 4.60561
128, 6, wb, filler, NA, 999, 999, 6, 35, 162, 115, 61, 125, 68, 193, 1, 0.730834
128, 6, wb, filler, NA, 999, 999, 6, 36, 142, 126, 175, 189, 81, 136, 3, 0.93121
128, 6, wb, filler, NA, 999, 999, 6, 36, 142, 126, 175, 189, 81, 136, 2, 0.436936
128, 6, wb, attraction, a-b-da, 5, 1, 6, 37, 60, 135, 132, 58, 135, 60, 2, 2.79337
128, 6, wb, attraction, a-b-da, 5, 1, 6, 37, 60, 135, 132, 58, 135, 60, 1, 0.455851
128, 6, wb, attraction, a-b-da, 2, 2, 7, 1, 165, 90, 90, 165, 163, 89, 1, 1.79484
128, 6, wb, attraction, a-b-da, 2, 2, 7, 1, 165, 90, 90, 165, 163, 89, 2, 0.513857
128, 6, wb, attraction, a-b-da, 5, 2, 7, 2, 161, 88, 165, 90, 90, 165, 3, 1.94691
128, 6, wb, attraction, a-b-da, 5, 2, 7, 2, 161, 88, 165, 90, 90, 165, 1, 0.571479
128, 6, wb, attraction, a-b-db, 14, 1, 7, 3, 60, 135, 56, 125, 135, 60, 2, 1.8666
128, 6, wb, attraction, a-b-db, 14, 1, 7, 3, 60, 135, 56, 125, 135, 60, 3, 1.54267
128, 6, wb, attraction, a-b-db, 9, 1, 7, 4, 135, 60, 57, 129, 60, 135, 2, 3.23019
128, 6, wb, attraction, a-b-db, 9, 1, 7, 4, 135, 60, 57, 129, 60, 135, 3, 0.651167
128, 6, wb, attraction, a-b-da, 14, 1, 7, 5, 60, 135, 135, 60, 125, 56, 3, 21.0948
128, 6, wb, attraction, a-b-da, 14, 1, 7, 5, 60, 135, 135, 60, 125, 56, 1, 1.33146
128, 6, wb, attraction, a-b-db, 2, 1, 7, 6, 60, 135, 135, 60, 59, 134, 1, 3.40368
128, 6, wb, attraction, a-b-db, 2, 1, 7, 6, 60, 135, 135, 60, 59, 134, 2, 0.673958
128, 6, wb, filler, NA, 999, 999, 7, 7, 81, 161, 194, 115, 92, 62, 3, 0.908286
128, 6, wb, filler, NA, 999, 999, 7, 7, 81, 161, 194, 115, 92, 62, 2, 0.33485
128, 6, wb, filler, NA, 999, 999, 7, 8, 195, 101, 125, 59, 117, 157, 2, 0.815181
128, 6, wb, filler, NA, 999, 999, 7, 8, 195, 101, 125, 59, 117, 157, 1, 0.949571
128, 6, wb, attraction, a-b-da, 14, 2, 7, 9, 90, 165, 165, 90, 153, 83, 3, 1.38936
128, 6, wb, attraction, a-b-da, 14, 2, 7, 9, 90, 165, 165, 90, 153, 83, 1, 1.01214
128, 6, wb, attraction, a-b-da, 5, 1, 7, 10, 60, 135, 132, 58, 135, 60, 2, 2.19307
128, 6, wb, attraction, a-b-da, 5, 1, 7, 10, 60, 135, 132, 58, 135, 60, 1, 0.527725
128, 6, wb, catch, NA, 999, 999, 7, 11, 74, 121, 190, 125, 133, 122, 1, 1.09607
128, 6, wb, catch, NA, 999, 999, 7, 11, 74, 121, 190, 125, 133, 122, 2, 0.803134
128, 6, wb, catch, NA, 999, 999, 7, 12, 129, 66, 115, 140, 165, 150, 1, 0.888762
128, 6, wb, catch, NA, 999, 999, 7, 12, 129, 66, 115, 140, 165, 150, 3, 0.427869
128, 6, wb, catch, NA, 999, 999, 7, 13, 121, 194, 68, 127, 96, 159, 2, 3.32028
128, 6, wb, catch, NA, 999, 999, 7, 13, 121, 194, 68, 127, 96, 159, 1, 0.433946
128, 6, wb, filler, NA, 999, 999, 7, 14, 189, 114, 165, 104, 156, 115, 3, 1.56643
128, 6, wb, filler, NA, 999, 999, 7, 14, 189, 114, 165, 104, 156, 115, 1, 0.798489
128, 6, wb, filler, NA, 999, 999, 7, 15, 130, 103, 69, 176, 124, 120, 1, 2.30818
128, 6, wb, filler, NA, 999, 999, 7, 15, 130, 103, 69, 176, 124, 120, 3, 0.446102
128, 6, wb, attraction, a-b-db, 2, 2, 7, 16, 89, 163, 165, 90, 90, 165, 1, 2.14592
128, 6, wb, attraction, a-b-db, 2, 2, 7, 16, 89, 163, 165, 90, 90, 165, 2, 0.498587
128, 6, wb, attraction, a-b-da, 9, 3, 7, 17, 195, 120, 186, 114, 120, 195, 2, 1.58836
128, 6, wb, attraction, a-b-da, 9, 3, 7, 17, 195, 120, 186, 114, 120, 195, 3, 0.347183
128, 6, wb, attraction, a-b-da, 5, 3, 7, 18, 190, 117, 120, 195, 195, 120, 1, 1.10702
128, 6, wb, attraction, a-b-da, 5, 3, 7, 18, 190, 117, 120, 195, 195, 120, 2, 0.333346
128, 6, wb, filler, NA, 999, 999, 7, 19, 151, 99, 156, 152, 187, 191, 1, 1.11784
128, 6, wb, filler, NA, 999, 999, 7, 19, 151, 99, 156, 152, 187, 191, 3, 0.392115
128, 6, wb, attraction, a-b-db, 5, 1, 7, 20, 135, 60, 60, 135, 58, 132, 3, 2.02993
128, 6, wb, attraction, a-b-db, 5, 1, 7, 20, 135, 60, 60, 135, 58, 132, 2, 0.467271
128, 6, wb, filler, NA, 999, 999, 7, 21, 118, 108, 183, 171, 163, 182, 1, 1.46234
128, 6, wb, filler, NA, 999, 999, 7, 21, 118, 108, 183, 171, 163, 182, 2, 0.74651
128, 6, wb, attraction, a-b-db, 9, 3, 7, 22, 195, 120, 120, 195, 114, 186, 3, 1.96226
128, 6, wb, attraction, a-b-db, 9, 3, 7, 22, 195, 120, 120, 195, 114, 186, 2, 0.434372
128, 6, wb, attraction, a-b-db, 14, 2, 7, 23, 165, 90, 90, 165, 83, 153, 3, 1.03077
128, 6, wb, attraction, a-b-db, 14, 2, 7, 23, 165, 90, 90, 165, 83, 153, 2, 0.348333
128, 6, wb, filler, NA, 999, 999, 7, 24, 155, 147, 182, 80, 137, 188, 2, 1.52418
128, 6, wb, filler, NA, 999, 999, 7, 24, 155, 147, 182, 80, 137, 188, 3, 0.445822
128, 6, wb, attraction, a-b-da, 9, 2, 7, 25, 165, 90, 90, 165, 157, 86, 3, 1.04964
128, 6, wb, attraction, a-b-da, 9, 2, 7, 25, 165, 90, 90, 165, 157, 86, 2, 0.52647
128, 6, wb, attraction, a-b-db, 5, 3, 7, 26, 120, 195, 117, 190, 195, 120, 1, 3.20702
128, 6, wb, attraction, a-b-db, 5, 3, 7, 26, 120, 195, 117, 190, 195, 120, 2, 0.556592
128, 6, wb, filler, NA, 999, 999, 7, 27, 174, 74, 154, 63, 112, 129, 2, 2.11578
128, 6, wb, filler, NA, 999, 999, 7, 27, 174, 74, 154, 63, 112, 129, 1, 1.83769
128, 6, wb, filler, NA, 999, 999, 7, 28, 172, 97, 117, 91, 87, 159, 2, 1.49771
128, 6, wb, filler, NA, 999, 999, 7, 28, 172, 97, 117, 91, 87, 159, 1, 0.548552
128, 6, wb, attraction, a-b-db, 14, 3, 7, 29, 120, 195, 195, 120, 111, 181, 3, 1.55631
128, 6, wb, attraction, a-b-db, 14, 3, 7, 29, 120, 195, 195, 120, 111, 181, 2, 0.420436
128, 6, wb, attraction, a-b-da, 9, 1, 7, 30, 60, 135, 129, 57, 135, 60, 2, 1.2896
128, 6, wb, attraction, a-b-da, 9, 1, 7, 30, 60, 135, 129, 57, 135, 60, 3, 0.548543
128, 6, wb, attraction, a-b-db, 9, 2, 7, 31, 90, 165, 86, 157, 165, 90, 1, 1.60421
128, 6, wb, attraction, a-b-db, 9, 2, 7, 31, 90, 165, 86, 157, 165, 90, 2, 0.594381
128, 6, wb, filler, NA, 999, 999, 7, 32, 174, 99, 129, 71, 173, 59, 2, 1.1041
128, 6, wb, filler, NA, 999, 999, 7, 32, 174, 99, 129, 71, 173, 59, 1, 0.410436
128, 6, wb, attraction, a-b-da, 14, 3, 7, 33, 120, 195, 181, 111, 195, 120, 2, 2.45556
128, 6, wb, attraction, a-b-da, 14, 3, 7, 33, 120, 195, 181, 111, 195, 120, 1, 0.40345
128, 6, wb, attraction, a-b-db, 5, 2, 7, 34, 88, 161, 165, 90, 90, 165, 1, 0.849276
128, 6, wb, attraction, a-b-db, 5, 2, 7, 34, 88, 161, 165, 90, 90, 165, 2, 0.374289
128, 6, wb, attraction, a-b-da, 2, 1, 7, 35, 60, 135, 134, 59, 135, 60, 1, 1.50879
128, 6, wb, attraction, a-b-da, 2, 1, 7, 35, 60, 135, 134, 59, 135, 60, 3, 0.918999
128, 6, wb, attraction, a-b-db, 2, 3, 7, 36, 195, 120, 120, 195, 119, 193, 1, 1.0399
128, 6, wb, attraction, a-b-db, 2, 3, 7, 36, 195, 120, 120, 195, 119, 193, 2, 0.420973
128, 6, wb, attraction, a-b-da, 2, 3, 7, 37, 195, 120, 120, 195, 193, 119, 2, 2.37815
128, 6, wb, attraction, a-b-da, 2, 3, 7, 37, 195, 120, 120, 195, 193, 119, 1, 0.673429
128, 6, wb, attraction, a-b-db, 5, 2, 8, 1, 88, 161, 90, 165, 165, 90, 1, 1.26782
128, 6, wb, attraction, a-b-db, 5, 2, 8, 1, 88, 161, 90, 165, 165, 90, 2, 0.552028
128, 6, wb, attraction, a-b-db, 14, 3, 8, 2, 111, 181, 195, 120, 120, 195, 1, 0.879689
128, 6, wb, attraction, a-b-db, 14, 3, 8, 2, 111, 181, 195, 120, 120, 195, 3, 0.62745
128, 6, wb, attraction, a-b-da, 5, 3, 8, 3, 190, 117, 195, 120, 120, 195, 1, 1.95992
128, 6, wb, attraction, a-b-da, 5, 3, 8, 3, 190, 117, 195, 120, 120, 195, 3, 0.551897
128, 6, wb, filler, NA, 999, 999, 8, 4, 161, 156, 180, 159, 119, 158, 3, 1.79974
128, 6, wb, filler, NA, 999, 999, 8, 4, 161, 156, 180, 159, 119, 158, 2, 0.55847
128, 6, wb, attraction, a-b-db, 5, 1, 8, 5, 58, 132, 60, 135, 135, 60, 1, 1.49353
128, 6, wb, attraction, a-b-db, 5, 1, 8, 5, 58, 132, 60, 135, 135, 60, 2, 0.48036
128, 6, wb, attraction, a-b-da, 9, 2, 8, 6, 157, 86, 90, 165, 165, 90, 1, 1.37879
128, 6, wb, attraction, a-b-da, 9, 2, 8, 6, 157, 86, 90, 165, 165, 90, 2, 0.42637
128, 6, wb, attraction, a-b-da, 14, 3, 8, 7, 120, 195, 181, 111, 195, 120, 2, 1.9028
128, 6, wb, attraction, a-b-da, 14, 3, 8, 7, 120, 195, 181, 111, 195, 120, 3, 0.569547
128, 6, wb, attraction, a-b-db, 2, 1, 8, 8, 60, 135, 59, 134, 135, 60, 2, 1.64058
128, 6, wb, attraction, a-b-db, 2, 1, 8, 8, 60, 135, 59, 134, 135, 60, 1, 0.549495
128, 6, wb, attraction, a-b-db, 14, 1, 8, 9, 135, 60, 56, 125, 60, 135, 2, 1.37312
128, 6, wb, attraction, a-b-db, 14, 1, 8, 9, 135, 60, 56, 125, 60, 135, 3, 0.41271
128, 6, wb, catch, NA, 999, 999, 8, 10, 130, 125, 103, 92, 124, 191, 2, 1.06582
128, 6, wb, catch, NA, 999, 999, 8, 10, 130, 125, 103, 92, 124, 191, 3, 0.486136
128, 6, wb, attraction, a-b-da, 9, 3, 8, 11, 195, 120, 186, 114, 120, 195, 2, 2.34464
128, 6, wb, attraction, a-b-da, 9, 3, 8, 11, 195, 120, 186, 114, 120, 195, 1, 0.945213
128, 6, wb, attraction, a-b-da, 5, 1, 8, 12, 132, 58, 135, 60, 60, 135, 1, 1.5611
128, 6, wb, attraction, a-b-da, 5, 1, 8, 12, 132, 58, 135, 60, 60, 135, 2, 0.465044
128, 6, wb, filler, NA, 999, 999, 8, 13, 111, 93, 180, 95, 121, 117, 1, 1.46819
128, 6, wb, filler, NA, 999, 999, 8, 13, 111, 93, 180, 95, 121, 117, 2, 0.408328
128, 6, wb, filler, NA, 999, 999, 8, 14, 106, 84, 192, 140, 88, 105, 3, 1.3335
128, 6, wb, filler, NA, 999, 999, 8, 14, 106, 84, 192, 140, 88, 105, 2, 0.358974
128, 6, wb, attraction, a-b-da, 9, 1, 8, 15, 60, 135, 129, 57, 135, 60, 2, 1.57416
128, 6, wb, attraction, a-b-da, 9, 1, 8, 15, 60, 135, 129, 57, 135, 60, 3, 0.501825
128, 6, wb, filler, NA, 999, 999, 8, 16, 183, 95, 87, 72, 140, 181, 2, 0.93542
128, 6, wb, filler, NA, 999, 999, 8, 16, 183, 95, 87, 72, 140, 181, 3, 0.36919
128, 6, wb, attraction, a-b-db, 2, 3, 8, 17, 195, 120, 119, 193, 120, 195, 1, 1.03227
128, 6, wb, attraction, a-b-db, 2, 3, 8, 17, 195, 120, 119, 193, 120, 195, 3, 0.533924
128, 6, wb, attraction, a-b-db, 9, 2, 8, 18, 90, 165, 86, 157, 165, 90, 2, 1.66231
128, 6, wb, attraction, a-b-db, 9, 2, 8, 18, 90, 165, 86, 157, 165, 90, 1, 0.370585
128, 6, wb, attraction, a-b-da, 2, 1, 8, 19, 60, 135, 135, 60, 134, 59, 1, 1.16962
128, 6, wb, attraction, a-b-da, 2, 1, 8, 19, 60, 135, 135, 60, 134, 59, 2, 0.353922
128, 6, wb, attraction, a-b-da, 14, 2, 8, 20, 165, 90, 153, 83, 90, 165, 1, 1.18578
128, 6, wb, attraction, a-b-da, 14, 2, 8, 20, 165, 90, 153, 83, 90, 165, 3, 0.449366
128, 6, wb, filler, NA, 999, 999, 8, 21, 121, 107, 188, 193, 150, 71, 1, 0.941202
128, 6, wb, filler, NA, 999, 999, 8, 21, 121, 107, 188, 193, 150, 71, 2, 0.33421
128, 6, wb, attraction, a-b-da, 2, 3, 8, 22, 120, 195, 195, 120, 193, 119, 2, 1.26277
128, 6, wb, attraction, a-b-da, 2, 3, 8, 22, 120, 195, 195, 120, 193, 119, 3, 0.362954
128, 6, wb, attraction, a-b-da, 5, 2, 8, 23, 165, 90, 161, 88, 90, 165, 2, 1.25812
128, 6, wb, attraction, a-b-da, 5, 2, 8, 23, 165, 90, 161, 88, 90, 165, 3, 0.74233
128, 6, wb, attraction, a-b-db, 9, 3, 8, 24, 114, 186, 195, 120, 120, 195, 1, 1.15813
128, 6, wb, attraction, a-b-db, 9, 3, 8, 24, 114, 186, 195, 120, 120, 195, 2, 0.614299
128, 6, wb, attraction, a-b-da, 14, 1, 8, 25, 135, 60, 125, 56, 60, 135, 2, 1.7794
128, 6, wb, attraction, a-b-da, 14, 1, 8, 25, 135, 60, 125, 56, 60, 135, 3, 0.506807
128, 6, wb, attraction, a-b-db, 14, 2, 8, 26, 90, 165, 83, 153, 165, 90, 2, 1.11594
128, 6, wb, attraction, a-b-db, 14, 2, 8, 26, 90, 165, 83, 153, 165, 90, 1, 1.07828
128, 6, wb, filler, NA, 999, 999, 8, 27, 120, 120, 133, 118, 148, 65, 3, 1.92851
128, 6, wb, filler, NA, 999, 999, 8, 27, 120, 120, 133, 118, 148, 65, 2, 0.369909
128, 6, wb, filler, NA, 999, 999, 8, 28, 150, 191, 87, 60, 150, 147, 2, 1.15309
128, 6, wb, filler, NA, 999, 999, 8, 28, 150, 191, 87, 60, 150, 147, 1, 0.537993
128, 6, wb, catch, NA, 999, 999, 8, 29, 129, 126, 137, 178, 125, 70, 3, 1.12243
128, 6, wb, catch, NA, 999, 999, 8, 29, 129, 126, 137, 178, 125, 70, 2, 0.340021
128, 6, wb, attraction, a-b-db, 2, 2, 8, 30, 89, 163, 165, 90, 90, 165, 2, 1.18798
128, 6, wb, attraction, a-b-db, 2, 2, 8, 30, 89, 163, 165, 90, 90, 165, 3, 0.370883
128, 6, wb, attraction, a-b-db, 5, 3, 8, 31, 117, 190, 195, 120, 120, 195, 3, 3.91408
128, 6, wb, attraction, a-b-db, 5, 3, 8, 31, 117, 190, 195, 120, 120, 195, 2, 0.779522
128, 6, wb, catch, NA, 999, 999, 8, 32, 134, 61, 101, 154, 144, 171, 1, 1.5777
128, 6, wb, catch, NA, 999, 999, 8, 32, 134, 61, 101, 154, 144, 171, 3, 0.441339
128, 6, wb, attraction, a-b-da, 2, 2, 8, 33, 165, 90, 90, 165, 163, 89, 3, 1.613
128, 6, wb, attraction, a-b-da, 2, 2, 8, 33, 165, 90, 90, 165, 163, 89, 2, 0.467178
128, 6, wb, attraction, a-b-db, 9, 1, 8, 34, 60, 135, 57, 129, 135, 60, 2, 1.31828
128, 6, wb, attraction, a-b-db, 9, 1, 8, 34, 60, 135, 57, 129, 135, 60, 1, 0.432572
128, 6, wb, filler, NA, 999, 999, 8, 35, 167, 64, 113, 141, 89, 186, 1, 1.77311
128, 6, wb, filler, NA, 999, 999, 8, 35, 167, 64, 113, 141, 89, 186, 3, 0.740502
128, 6, wb, filler, NA, 999, 999, 8, 36, 181, 190, 64, 139, 133, 193, 2, 0.924258
128, 6, wb, filler, NA, 999, 999, 8, 36, 181, 190, 64, 139, 133, 193, 1, 0.365813
128, 6, wb, filler, NA, 999, 999, 8, 37, 140, 140, 188, 111, 104, 138, 3, 1.245
128, 6, wb, filler, NA, 999, 999, 8, 37, 140, 140, 188, 111, 104, 138, 2, 0.450009
