sub_n, computer_n, bw_cond, effect, set, distance, diag, block_n, trial_n, h1, w1, h2, w2, h3, w3, choice, rt 
230, 6, wb, practice, NA, 999, 999, 0, 1, 132, 151, 164, 123, 101, 123, 3, 2.48688
230, 6, wb, practice, NA, 999, 999, 0, 1, 132, 151, 164, 123, 101, 123, 2, 3.82925
230, 6, wb, practice, NA, 999, 999, 0, 2, 59, 120, 152, 68, 85, 138, 1, 2.04315
230, 6, wb, practice, NA, 999, 999, 0, 2, 59, 120, 152, 68, 85, 138, 3, 4.76882
230, 6, wb, practice, NA, 999, 999, 0, 3, 107, 137, 87, 175, 107, 168, 1, 9.62632
230, 6, wb, practice, NA, 999, 999, 0, 3, 107, 137, 87, 175, 107, 168, 3, 1.31874
230, 6, wb, attraction, a-b-da, 2, 3, 1, 1, 120, 195, 195, 120, 193, 119, 1, 13.3262
230, 6, wb, attraction, a-b-da, 2, 3, 1, 1, 120, 195, 195, 120, 193, 119, 2, 2.62801
230, 6, wb, attraction, a-b-da, 2, 2, 1, 2, 90, 165, 163, 89, 165, 90, 1, 2.91176
230, 6, wb, attraction, a-b-da, 2, 2, 1, 2, 90, 165, 163, 89, 165, 90, 3, 0.921499
230, 6, wb, attraction, a-b-da, 14, 1, 1, 3, 125, 56, 135, 60, 60, 135, 1, 2.7146
230, 6, wb, attraction, a-b-da, 14, 1, 1, 3, 125, 56, 135, 60, 60, 135, 2, 2.77241
230, 6, wb, filler, NA, 999, 999, 1, 4, 125, 128, 73, 181, 98, 141, 3, 2.83476
230, 6, wb, filler, NA, 999, 999, 1, 4, 125, 128, 73, 181, 98, 141, 1, 2.12785
230, 6, wb, attraction, a-b-db, 2, 2, 1, 5, 89, 163, 90, 165, 165, 90, 3, 8.20782
230, 6, wb, attraction, a-b-db, 2, 2, 1, 5, 89, 163, 90, 165, 165, 90, 2, 0.995847
230, 6, wb, attraction, a-b-db, 5, 1, 1, 6, 60, 135, 58, 132, 135, 60, 3, 7.87341
230, 6, wb, attraction, a-b-db, 5, 1, 1, 6, 60, 135, 58, 132, 135, 60, 1, 0.835576
230, 6, wb, attraction, a-b-da, 9, 3, 1, 7, 186, 114, 120, 195, 195, 120, 1, 11.272
230, 6, wb, attraction, a-b-da, 9, 3, 1, 7, 186, 114, 120, 195, 195, 120, 2, 0.961162
230, 6, wb, attraction, a-b-db, 2, 3, 1, 8, 195, 120, 120, 195, 119, 193, 1, 3.20009
230, 6, wb, attraction, a-b-db, 2, 3, 1, 8, 195, 120, 120, 195, 119, 193, 2, 0.46251
230, 6, wb, attraction, a-b-db, 9, 2, 1, 9, 90, 165, 165, 90, 86, 157, 2, 8.72169
230, 6, wb, attraction, a-b-db, 9, 2, 1, 9, 90, 165, 165, 90, 86, 157, 1, 0.545375
230, 6, wb, attraction, a-b-db, 2, 1, 1, 10, 59, 134, 135, 60, 60, 135, 2, 3.24926
230, 6, wb, attraction, a-b-db, 2, 1, 1, 10, 59, 134, 135, 60, 60, 135, 1, 1.78165
230, 6, wb, attraction, a-b-db, 14, 1, 1, 11, 56, 125, 135, 60, 60, 135, 1, 2.27551
230, 6, wb, attraction, a-b-db, 14, 1, 1, 11, 56, 125, 135, 60, 60, 135, 3, 0.51884
230, 6, wb, attraction, a-b-da, 14, 2, 1, 12, 90, 165, 165, 90, 153, 83, 3, 4.88794
230, 6, wb, attraction, a-b-da, 14, 2, 1, 12, 90, 165, 165, 90, 153, 83, 1, 0.738341
230, 6, wb, attraction, a-b-da, 9, 2, 1, 13, 157, 86, 165, 90, 90, 165, 3, 8.17878
230, 6, wb, attraction, a-b-da, 9, 2, 1, 13, 157, 86, 165, 90, 90, 165, 1, 2.54434
230, 6, wb, attraction, a-b-da, 2, 1, 1, 14, 135, 60, 134, 59, 60, 135, 3, 10.0233
230, 6, wb, attraction, a-b-da, 2, 1, 1, 14, 135, 60, 134, 59, 60, 135, 1, 1.11476
230, 6, wb, catch, NA, 999, 999, 1, 15, 134, 181, 89, 106, 138, 117, 2, 1.81976
230, 6, wb, catch, NA, 999, 999, 1, 15, 134, 181, 89, 106, 138, 117, 1, 2.07379
230, 6, wb, filler, NA, 999, 999, 1, 16, 172, 82, 75, 182, 57, 140, 3, 1.84376
230, 6, wb, filler, NA, 999, 999, 1, 16, 172, 82, 75, 182, 57, 140, 2, 1.14695
230, 6, wb, filler, NA, 999, 999, 1, 17, 185, 170, 94, 170, 112, 110, 3, 3.41611
230, 6, wb, filler, NA, 999, 999, 1, 17, 185, 170, 94, 170, 112, 110, 1, 0.997667
230, 6, wb, attraction, a-b-db, 5, 2, 1, 18, 165, 90, 90, 165, 88, 161, 3, 1.61136
230, 6, wb, attraction, a-b-db, 5, 2, 1, 18, 165, 90, 90, 165, 88, 161, 2, 7.29752
230, 6, wb, attraction, a-b-da, 9, 1, 1, 19, 129, 57, 135, 60, 60, 135, 1, 2.54509
230, 6, wb, attraction, a-b-da, 9, 1, 1, 19, 129, 57, 135, 60, 60, 135, 3, 2.40162
230, 6, wb, attraction, a-b-db, 14, 3, 1, 20, 120, 195, 111, 181, 195, 120, 2, 2.71874
230, 6, wb, attraction, a-b-db, 14, 3, 1, 20, 120, 195, 111, 181, 195, 120, 1, 0.888522
230, 6, wb, catch, NA, 999, 999, 1, 21, 125, 130, 95, 100, 169, 146, 2, 1.30699
230, 6, wb, catch, NA, 999, 999, 1, 21, 125, 130, 95, 100, 169, 146, 3, 1.05311
230, 6, wb, filler, NA, 999, 999, 1, 22, 185, 134, 109, 141, 151, 188, 2, 5.35277
230, 6, wb, filler, NA, 999, 999, 1, 22, 185, 134, 109, 141, 151, 188, 3, 0.552396
230, 6, wb, attraction, a-b-da, 5, 3, 1, 23, 190, 117, 195, 120, 120, 195, 3, 6.24818
230, 6, wb, attraction, a-b-da, 5, 3, 1, 23, 190, 117, 195, 120, 120, 195, 2, 0.483453
230, 6, wb, attraction, a-b-db, 5, 3, 1, 24, 195, 120, 117, 190, 120, 195, 2, 6.94195
230, 6, wb, attraction, a-b-db, 5, 3, 1, 24, 195, 120, 117, 190, 120, 195, 1, 0.709067
230, 6, wb, attraction, a-b-da, 14, 3, 1, 25, 120, 195, 181, 111, 195, 120, 1, 7.15019
230, 6, wb, attraction, a-b-da, 14, 3, 1, 25, 120, 195, 181, 111, 195, 120, 3, 0.557394
230, 6, wb, filler, NA, 999, 999, 1, 26, 160, 119, 188, 134, 186, 82, 3, 8.02033
230, 6, wb, filler, NA, 999, 999, 1, 26, 160, 119, 188, 134, 186, 82, 2, 0.376538
230, 6, wb, attraction, a-b-da, 5, 2, 1, 27, 90, 165, 161, 88, 165, 90, 1, 9.23101
230, 6, wb, attraction, a-b-da, 5, 2, 1, 27, 90, 165, 161, 88, 165, 90, 3, 1.90613
230, 6, wb, filler, NA, 999, 999, 1, 28, 147, 131, 123, 63, 107, 109, 2, 1.66738
230, 6, wb, filler, NA, 999, 999, 1, 28, 147, 131, 123, 63, 107, 109, 1, 1.61561
230, 6, wb, attraction, a-b-db, 9, 3, 1, 29, 195, 120, 114, 186, 120, 195, 1, 14.7005
230, 6, wb, attraction, a-b-db, 9, 3, 1, 29, 195, 120, 114, 186, 120, 195, 2, 1.67494
230, 6, wb, attraction, a-b-db, 14, 2, 1, 30, 165, 90, 83, 153, 90, 165, 2, 2.54114
230, 6, wb, attraction, a-b-db, 14, 2, 1, 30, 165, 90, 83, 153, 90, 165, 1, 0.557579
230, 6, wb, filler, NA, 999, 999, 1, 31, 86, 130, 151, 108, 186, 121, 1, 1.42865
230, 6, wb, filler, NA, 999, 999, 1, 31, 86, 130, 151, 108, 186, 121, 3, 0.426247
230, 6, wb, filler, NA, 999, 999, 1, 32, 158, 71, 129, 125, 167, 104, 1, 2.21474
230, 6, wb, filler, NA, 999, 999, 1, 32, 158, 71, 129, 125, 167, 104, 2, 1.44474
230, 6, wb, filler, NA, 999, 999, 1, 33, 180, 143, 165, 83, 185, 101, 2, 3.40811
230, 6, wb, filler, NA, 999, 999, 1, 33, 180, 143, 165, 83, 185, 101, 1, 0.365684
230, 6, wb, filler, NA, 999, 999, 1, 34, 107, 73, 63, 108, 188, 176, 1, 2.97287
230, 6, wb, filler, NA, 999, 999, 1, 34, 107, 73, 63, 108, 188, 176, 3, 0.467862
230, 6, wb, attraction, a-b-da, 5, 1, 1, 35, 135, 60, 132, 58, 60, 135, 3, 6.76702
230, 6, wb, attraction, a-b-da, 5, 1, 1, 35, 135, 60, 132, 58, 60, 135, 1, 0.357542
230, 6, wb, attraction, a-b-db, 9, 1, 1, 36, 60, 135, 57, 129, 135, 60, 1, 4.40477
230, 6, wb, attraction, a-b-db, 9, 1, 1, 36, 60, 135, 57, 129, 135, 60, 3, 1.31465
230, 6, wb, catch, NA, 999, 999, 1, 37, 147, 108, 170, 145, 82, 113, 3, 1.13956
230, 6, wb, catch, NA, 999, 999, 1, 37, 147, 108, 170, 145, 82, 113, 2, 0.308503
230, 6, wb, attraction, a-b-da, 14, 2, 2, 1, 90, 165, 153, 83, 165, 90, 1, 17.1897
230, 6, wb, attraction, a-b-da, 14, 2, 2, 1, 90, 165, 153, 83, 165, 90, 3, 1.44025
230, 6, wb, filler, NA, 999, 999, 2, 2, 93, 194, 98, 164, 99, 78, 3, 0.827884
230, 6, wb, filler, NA, 999, 999, 2, 2, 93, 194, 98, 164, 99, 78, 1, 1.8255
230, 6, wb, attraction, a-b-da, 14, 3, 2, 3, 120, 195, 195, 120, 181, 111, 3, 5.82148
230, 6, wb, attraction, a-b-da, 14, 3, 2, 3, 120, 195, 195, 120, 181, 111, 1, 0.322248
230, 6, wb, attraction, a-b-db, 14, 3, 2, 4, 120, 195, 111, 181, 195, 120, 2, 6.82749
230, 6, wb, attraction, a-b-db, 14, 3, 2, 4, 120, 195, 111, 181, 195, 120, 1, 0.463288
230, 6, wb, filler, NA, 999, 999, 2, 5, 161, 191, 121, 148, 170, 154, 2, 1.61047
230, 6, wb, filler, NA, 999, 999, 2, 5, 161, 191, 121, 148, 170, 154, 1, 0.248554
230, 6, wb, attraction, a-b-da, 5, 3, 2, 6, 195, 120, 120, 195, 190, 117, 3, 8.26844
230, 6, wb, attraction, a-b-da, 5, 3, 2, 6, 195, 120, 120, 195, 190, 117, 1, 1.85451
230, 6, wb, filler, NA, 999, 999, 2, 7, 134, 108, 73, 93, 187, 89, 2, 0.817815
230, 6, wb, filler, NA, 999, 999, 2, 7, 134, 108, 73, 93, 187, 89, 3, 1.80831
230, 6, wb, filler, NA, 999, 999, 2, 8, 174, 130, 66, 137, 60, 137, 2, 1.83697
230, 6, wb, filler, NA, 999, 999, 2, 8, 174, 130, 66, 137, 60, 137, 1, 0.490378
230, 6, wb, catch, NA, 999, 999, 2, 9, 132, 183, 97, 158, 100, 95, 3, 1.70818
230, 6, wb, catch, NA, 999, 999, 2, 9, 132, 183, 97, 158, 100, 95, 1, 0.558211
230, 6, wb, attraction, a-b-da, 2, 1, 2, 10, 134, 59, 135, 60, 60, 135, 2, 7.60547
230, 6, wb, attraction, a-b-da, 2, 1, 2, 10, 134, 59, 135, 60, 60, 135, 3, 0.658371
230, 6, wb, attraction, a-b-db, 5, 3, 2, 11, 195, 120, 117, 190, 120, 195, 2, 17.2134
230, 6, wb, attraction, a-b-db, 5, 3, 2, 11, 195, 120, 117, 190, 120, 195, 1, 0.350592
230, 6, wb, attraction, a-b-db, 2, 1, 2, 12, 59, 134, 60, 135, 135, 60, 1, 7.5265
230, 6, wb, attraction, a-b-db, 2, 1, 2, 12, 59, 134, 60, 135, 135, 60, 3, 1.41415
230, 6, wb, attraction, a-b-da, 14, 1, 2, 13, 125, 56, 60, 135, 135, 60, 1, 11.2109
230, 6, wb, attraction, a-b-da, 14, 1, 2, 13, 125, 56, 60, 135, 135, 60, 3, 0.398012
230, 6, wb, filler, NA, 999, 999, 2, 14, 144, 162, 112, 76, 86, 119, 2, 1.65188
230, 6, wb, filler, NA, 999, 999, 2, 14, 144, 162, 112, 76, 86, 119, 1, 0.240662
230, 6, wb, attraction, a-b-da, 2, 2, 2, 15, 163, 89, 165, 90, 90, 165, 3, 14.8125
230, 6, wb, attraction, a-b-da, 2, 2, 2, 15, 163, 89, 165, 90, 90, 165, 2, 0.374522
230, 6, wb, attraction, a-b-db, 9, 3, 2, 16, 195, 120, 120, 195, 114, 186, 3, 5.30104
230, 6, wb, attraction, a-b-db, 9, 3, 2, 16, 195, 120, 120, 195, 114, 186, 2, 0.278611
230, 6, wb, attraction, a-b-da, 9, 1, 2, 17, 60, 135, 135, 60, 129, 57, 3, 5.97725
230, 6, wb, attraction, a-b-da, 9, 1, 2, 17, 60, 135, 135, 60, 129, 57, 2, 0.591252
230, 6, wb, attraction, a-b-da, 5, 2, 2, 18, 165, 90, 161, 88, 90, 165, 3, 8.80511
230, 6, wb, attraction, a-b-da, 5, 2, 2, 18, 165, 90, 161, 88, 90, 165, 2, 0.689717
230, 6, wb, attraction, a-b-da, 5, 1, 2, 19, 60, 135, 135, 60, 132, 58, 1, 11.4754
230, 6, wb, attraction, a-b-da, 5, 1, 2, 19, 60, 135, 135, 60, 132, 58, 2, 0.515694
230, 6, wb, attraction, a-b-db, 14, 1, 2, 20, 60, 135, 56, 125, 135, 60, 2, 2.71687
230, 6, wb, attraction, a-b-db, 14, 1, 2, 20, 60, 135, 56, 125, 135, 60, 3, 0.806664
230, 6, wb, attraction, a-b-db, 9, 1, 2, 21, 135, 60, 57, 129, 60, 135, 2, 6.76377
230, 6, wb, attraction, a-b-db, 9, 1, 2, 21, 135, 60, 57, 129, 60, 135, 1, 0.538185
230, 6, wb, catch, NA, 999, 999, 2, 22, 78, 117, 145, 110, 132, 183, 1, 1.26663
230, 6, wb, catch, NA, 999, 999, 2, 22, 78, 117, 145, 110, 132, 183, 3, 0.326846
230, 6, wb, filler, NA, 999, 999, 2, 23, 143, 95, 97, 93, 159, 84, 2, 5.35953
230, 6, wb, filler, NA, 999, 999, 2, 23, 143, 95, 97, 93, 159, 84, 3, 0.222385
230, 6, wb, attraction, a-b-db, 14, 2, 2, 24, 83, 153, 165, 90, 90, 165, 1, 3.05161
230, 6, wb, attraction, a-b-db, 14, 2, 2, 24, 83, 153, 165, 90, 90, 165, 2, 3.09593
230, 6, wb, filler, NA, 999, 999, 2, 25, 70, 87, 167, 171, 145, 169, 1, 0.712859
230, 6, wb, filler, NA, 999, 999, 2, 25, 70, 87, 167, 171, 145, 169, 2, 0.355464
230, 6, wb, attraction, a-b-db, 2, 2, 2, 26, 89, 163, 90, 165, 165, 90, 1, 9.48311
230, 6, wb, attraction, a-b-db, 2, 2, 2, 26, 89, 163, 90, 165, 165, 90, 3, 1.02817
230, 6, wb, catch, NA, 999, 999, 2, 27, 126, 189, 154, 101, 71, 124, 3, 2.3764
230, 6, wb, catch, NA, 999, 999, 2, 27, 126, 189, 154, 101, 71, 124, 1, 0.271652
230, 6, wb, attraction, a-b-db, 5, 1, 2, 28, 58, 132, 135, 60, 60, 135, 1, 5.96301
230, 6, wb, attraction, a-b-db, 5, 1, 2, 28, 58, 132, 135, 60, 60, 135, 3, 1.30559
230, 6, wb, filler, NA, 999, 999, 2, 29, 56, 151, 96, 164, 154, 159, 1, 0.723039
230, 6, wb, filler, NA, 999, 999, 2, 29, 56, 151, 96, 164, 154, 159, 3, 0.220872
230, 6, wb, attraction, a-b-da, 9, 3, 2, 30, 120, 195, 186, 114, 195, 120, 1, 8.2901
230, 6, wb, attraction, a-b-da, 9, 3, 2, 30, 120, 195, 186, 114, 195, 120, 3, 0.7229
230, 6, wb, attraction, a-b-db, 5, 2, 2, 31, 88, 161, 90, 165, 165, 90, 1, 1.32316
230, 6, wb, attraction, a-b-db, 5, 2, 2, 31, 88, 161, 90, 165, 165, 90, 3, 0.428695
230, 6, wb, filler, NA, 999, 999, 2, 32, 148, 83, 150, 122, 147, 131, 1, 2.32919
230, 6, wb, filler, NA, 999, 999, 2, 32, 148, 83, 150, 122, 147, 131, 3, 4.85846
230, 6, wb, attraction, a-b-db, 9, 2, 2, 33, 165, 90, 90, 165, 86, 157, 3, 4.14832
230, 6, wb, attraction, a-b-db, 9, 2, 2, 33, 165, 90, 90, 165, 86, 157, 1, 0.436193
230, 6, wb, filler, NA, 999, 999, 2, 34, 85, 148, 80, 115, 105, 190, 2, 0.568685
230, 6, wb, filler, NA, 999, 999, 2, 34, 85, 148, 80, 115, 105, 190, 3, 0.801105
230, 6, wb, attraction, a-b-da, 9, 2, 2, 35, 157, 86, 165, 90, 90, 165, 3, 2.71885
230, 6, wb, attraction, a-b-da, 9, 2, 2, 35, 157, 86, 165, 90, 90, 165, 2, 0.2966
230, 6, wb, attraction, a-b-db, 2, 3, 2, 36, 120, 195, 119, 193, 195, 120, 3, 1.46649
230, 6, wb, attraction, a-b-db, 2, 3, 2, 36, 120, 195, 119, 193, 195, 120, 1, 0.974662
230, 6, wb, attraction, a-b-da, 2, 3, 2, 37, 120, 195, 195, 120, 193, 119, 1, 5.10908
230, 6, wb, attraction, a-b-da, 2, 3, 2, 37, 120, 195, 195, 120, 193, 119, 3, 3.99003
230, 6, wb, attraction, a-b-db, 2, 1, 3, 1, 60, 135, 59, 134, 135, 60, 2, 1.83539
230, 6, wb, attraction, a-b-db, 2, 1, 3, 1, 60, 135, 59, 134, 135, 60, 1, 4.36886
230, 6, wb, attraction, a-b-da, 9, 3, 3, 2, 120, 195, 195, 120, 186, 114, 3, 4.48673
230, 6, wb, attraction, a-b-da, 9, 3, 3, 2, 120, 195, 195, 120, 186, 114, 1, 0.30528
230, 6, wb, attraction, a-b-da, 9, 1, 3, 3, 60, 135, 129, 57, 135, 60, 2, 8.20317
230, 6, wb, attraction, a-b-da, 9, 1, 3, 3, 60, 135, 129, 57, 135, 60, 3, 0.247978
230, 6, wb, catch, NA, 999, 999, 3, 4, 73, 122, 127, 128, 145, 170, 1, 1.9718
230, 6, wb, catch, NA, 999, 999, 3, 4, 73, 122, 127, 128, 145, 170, 3, 0.267272
230, 6, wb, attraction, a-b-da, 5, 3, 3, 5, 190, 117, 195, 120, 120, 195, 1, 37.7343
230, 6, wb, attraction, a-b-da, 5, 3, 3, 5, 190, 117, 195, 120, 120, 195, 3, 0.244463
230, 6, wb, attraction, a-b-da, 5, 2, 3, 6, 165, 90, 161, 88, 90, 165, 1, 1.62439
230, 6, wb, attraction, a-b-da, 5, 2, 3, 6, 165, 90, 161, 88, 90, 165, 3, 0.589849
230, 6, wb, attraction, a-b-da, 5, 1, 3, 7, 135, 60, 132, 58, 60, 135, 2, 20.5795
230, 6, wb, attraction, a-b-da, 5, 1, 3, 7, 135, 60, 132, 58, 60, 135, 3, 0.581045
230, 6, wb, filler, NA, 999, 999, 3, 8, 110, 140, 67, 119, 71, 140, 2, 1.23561
230, 6, wb, filler, NA, 999, 999, 3, 8, 110, 140, 67, 119, 71, 140, 1, 0.337131
230, 6, wb, filler, NA, 999, 999, 3, 9, 145, 101, 152, 59, 86, 89, 2, 4.41758
230, 6, wb, filler, NA, 999, 999, 3, 9, 145, 101, 152, 59, 86, 89, 1, 0.470866
230, 6, wb, attraction, a-b-db, 5, 1, 3, 10, 135, 60, 60, 135, 58, 132, 3, 3.30602
230, 6, wb, attraction, a-b-db, 5, 1, 3, 10, 135, 60, 60, 135, 58, 132, 2, 2.86762
230, 6, wb, attraction, a-b-db, 14, 1, 3, 11, 135, 60, 60, 135, 56, 125, 3, 1.15798
230, 6, wb, attraction, a-b-db, 14, 1, 3, 11, 135, 60, 60, 135, 56, 125, 1, 2.12655
230, 6, wb, attraction, a-b-db, 5, 3, 3, 12, 117, 190, 195, 120, 120, 195, 1, 1.93435
230, 6, wb, attraction, a-b-db, 5, 3, 3, 12, 117, 190, 195, 120, 120, 195, 3, 1.6956
230, 6, wb, attraction, a-b-da, 14, 1, 3, 13, 125, 56, 60, 135, 135, 60, 1, 7.289
230, 6, wb, attraction, a-b-da, 14, 1, 3, 13, 125, 56, 60, 135, 135, 60, 2, 1.09082
230, 6, wb, attraction, a-b-db, 9, 2, 3, 14, 90, 165, 165, 90, 86, 157, 3, 11.3403
230, 6, wb, attraction, a-b-db, 9, 2, 3, 14, 90, 165, 165, 90, 86, 157, 1, 1.80271
230, 6, wb, attraction, a-b-da, 14, 3, 3, 15, 120, 195, 181, 111, 195, 120, 2, 9.59219
230, 6, wb, attraction, a-b-da, 14, 3, 3, 15, 120, 195, 181, 111, 195, 120, 3, 0.836452
230, 6, wb, attraction, a-b-db, 14, 3, 3, 16, 120, 195, 195, 120, 111, 181, 3, 2.17676
230, 6, wb, attraction, a-b-db, 14, 3, 3, 16, 120, 195, 195, 120, 111, 181, 1, 0.392001
230, 6, wb, catch, NA, 999, 999, 3, 17, 100, 155, 116, 79, 164, 151, 2, 1.07784
230, 6, wb, catch, NA, 999, 999, 3, 17, 100, 155, 116, 79, 164, 151, 3, 0.25758
230, 6, wb, attraction, a-b-db, 9, 1, 3, 18, 57, 129, 60, 135, 135, 60, 1, 1.42885
230, 6, wb, attraction, a-b-db, 9, 1, 3, 18, 57, 129, 60, 135, 135, 60, 2, 3.3143
230, 6, wb, attraction, a-b-da, 2, 2, 3, 19, 165, 90, 90, 165, 163, 89, 1, 7.97045
230, 6, wb, attraction, a-b-da, 2, 2, 3, 19, 165, 90, 90, 165, 163, 89, 2, 1.14468
230, 6, wb, filler, NA, 999, 999, 3, 20, 163, 157, 83, 195, 137, 95, 3, 6.52025
230, 6, wb, filler, NA, 999, 999, 3, 20, 163, 157, 83, 195, 137, 95, 1, 0.392743
230, 6, wb, filler, NA, 999, 999, 3, 21, 70, 107, 94, 180, 90, 175, 1, 0.886627
230, 6, wb, filler, NA, 999, 999, 3, 21, 70, 107, 94, 180, 90, 175, 2, 0.466408
230, 6, wb, filler, NA, 999, 999, 3, 22, 175, 62, 88, 81, 181, 56, 2, 11.7334
230, 6, wb, filler, NA, 999, 999, 3, 22, 175, 62, 88, 81, 181, 56, 3, 0.731717
230, 6, wb, attraction, a-b-db, 9, 3, 3, 23, 120, 195, 114, 186, 195, 120, 2, 11.0284
230, 6, wb, attraction, a-b-db, 9, 3, 3, 23, 120, 195, 114, 186, 195, 120, 1, 0.398638
230, 6, wb, filler, NA, 999, 999, 3, 24, 112, 77, 139, 140, 193, 149, 1, 1.06845
230, 6, wb, filler, NA, 999, 999, 3, 24, 112, 77, 139, 140, 193, 149, 3, 0.296739
230, 6, wb, attraction, a-b-db, 5, 2, 3, 25, 90, 165, 165, 90, 88, 161, 1, 12.9786
230, 6, wb, attraction, a-b-db, 5, 2, 3, 25, 90, 165, 165, 90, 88, 161, 3, 0.270626
230, 6, wb, attraction, a-b-db, 14, 2, 3, 26, 83, 153, 165, 90, 90, 165, 1, 1.81778
230, 6, wb, attraction, a-b-db, 14, 2, 3, 26, 83, 153, 165, 90, 90, 165, 3, 3.64794
230, 6, wb, catch, NA, 999, 999, 3, 27, 122, 133, 189, 126, 117, 78, 3, 0.778591
230, 6, wb, catch, NA, 999, 999, 3, 27, 122, 133, 189, 126, 117, 78, 2, 0.338403
230, 6, wb, filler, NA, 999, 999, 3, 28, 75, 137, 125, 143, 191, 133, 1, 1.03485
230, 6, wb, filler, NA, 999, 999, 3, 28, 75, 137, 125, 143, 191, 133, 3, 0.416526
230, 6, wb, filler, NA, 999, 999, 3, 29, 185, 181, 56, 160, 185, 106, 2, 1.30977
230, 6, wb, filler, NA, 999, 999, 3, 29, 185, 181, 56, 160, 185, 106, 1, 0.191903
230, 6, wb, attraction, a-b-da, 9, 2, 3, 30, 157, 86, 165, 90, 90, 165, 3, 5.00587
230, 6, wb, attraction, a-b-da, 9, 2, 3, 30, 157, 86, 165, 90, 90, 165, 1, 0.442787
230, 6, wb, filler, NA, 999, 999, 3, 31, 125, 151, 85, 63, 148, 161, 2, 0.742548
230, 6, wb, filler, NA, 999, 999, 3, 31, 125, 151, 85, 63, 148, 161, 3, 0.703694
230, 6, wb, attraction, a-b-db, 2, 2, 3, 32, 90, 165, 165, 90, 89, 163, 3, 3.96148
230, 6, wb, attraction, a-b-db, 2, 2, 3, 32, 90, 165, 165, 90, 89, 163, 2, 0.376945
230, 6, wb, attraction, a-b-db, 2, 3, 3, 33, 119, 193, 120, 195, 195, 120, 2, 33.2233
230, 6, wb, attraction, a-b-db, 2, 3, 3, 33, 119, 193, 120, 195, 195, 120, 3, 0.611597
230, 6, wb, attraction, a-b-da, 14, 2, 3, 34, 153, 83, 165, 90, 90, 165, 2, 24.7766
230, 6, wb, attraction, a-b-da, 14, 2, 3, 34, 153, 83, 165, 90, 90, 165, 3, 0.257581
230, 6, wb, attraction, a-b-da, 2, 3, 3, 35, 193, 119, 120, 195, 195, 120, 1, 4.23677
230, 6, wb, attraction, a-b-da, 2, 3, 3, 35, 193, 119, 120, 195, 195, 120, 2, 0.825435
230, 6, wb, attraction, a-b-da, 2, 1, 3, 36, 135, 60, 134, 59, 60, 135, 3, 2.99779
230, 6, wb, attraction, a-b-da, 2, 1, 3, 36, 135, 60, 134, 59, 60, 135, 1, 0.50016
230, 6, wb, filler, NA, 999, 999, 3, 37, 58, 78, 126, 112, 131, 105, 1, 0.701975
230, 6, wb, filler, NA, 999, 999, 3, 37, 58, 78, 126, 112, 131, 105, 2, 3.15298
230, 6, wb, filler, NA, 999, 999, 4, 1, 121, 157, 195, 142, 130, 66, 3, 1.21598
230, 6, wb, filler, NA, 999, 999, 4, 1, 121, 157, 195, 142, 130, 66, 2, 0.286188
230, 6, wb, attraction, a-b-db, 2, 3, 4, 2, 120, 195, 195, 120, 119, 193, 1, 2.55289
230, 6, wb, attraction, a-b-db, 2, 3, 4, 2, 120, 195, 195, 120, 119, 193, 3, 0.249328
230, 6, wb, attraction, a-b-da, 14, 3, 4, 3, 181, 111, 120, 195, 195, 120, 1, 16.0851
230, 6, wb, attraction, a-b-da, 14, 3, 4, 3, 181, 111, 120, 195, 195, 120, 2, 0.292017
230, 6, wb, filler, NA, 999, 999, 4, 4, 183, 189, 109, 93, 165, 114, 2, 0.901926
230, 6, wb, filler, NA, 999, 999, 4, 4, 183, 189, 109, 93, 165, 114, 1, 0.248933
230, 6, wb, attraction, a-b-db, 9, 1, 4, 5, 60, 135, 135, 60, 57, 129, 3, 2.45293
230, 6, wb, attraction, a-b-db, 9, 1, 4, 5, 60, 135, 135, 60, 57, 129, 1, 1.08947
230, 6, wb, attraction, a-b-da, 9, 3, 4, 6, 195, 120, 186, 114, 120, 195, 2, 15.5711
230, 6, wb, attraction, a-b-da, 9, 3, 4, 6, 195, 120, 186, 114, 120, 195, 3, 0.518692
230, 6, wb, filler, NA, 999, 999, 4, 7, 82, 87, 118, 183, 121, 136, 1, 0.815803
230, 6, wb, filler, NA, 999, 999, 4, 7, 82, 87, 118, 183, 121, 136, 2, 0.342302
230, 6, wb, filler, NA, 999, 999, 4, 8, 118, 188, 195, 163, 63, 106, 3, 0.91011
230, 6, wb, filler, NA, 999, 999, 4, 8, 118, 188, 195, 163, 63, 106, 2, 0.272493
230, 6, wb, attraction, a-b-da, 5, 2, 4, 9, 161, 88, 165, 90, 90, 165, 1, 1.85958
230, 6, wb, attraction, a-b-da, 5, 2, 4, 9, 161, 88, 165, 90, 90, 165, 3, 0.375735
230, 6, wb, attraction, a-b-da, 9, 1, 4, 10, 135, 60, 60, 135, 129, 57, 2, 3.23014
230, 6, wb, attraction, a-b-da, 9, 1, 4, 10, 135, 60, 60, 135, 129, 57, 1, 0.315045
230, 6, wb, attraction, a-b-db, 5, 3, 4, 11, 120, 195, 117, 190, 195, 120, 2, 5.85247
230, 6, wb, attraction, a-b-db, 5, 3, 4, 11, 120, 195, 117, 190, 195, 120, 3, 0.535761
230, 6, wb, attraction, a-b-da, 2, 1, 4, 12, 134, 59, 60, 135, 135, 60, 2, 5.20827
230, 6, wb, attraction, a-b-da, 2, 1, 4, 12, 134, 59, 60, 135, 135, 60, 1, 0.469162
230, 6, wb, attraction, a-b-da, 2, 3, 4, 13, 120, 195, 195, 120, 193, 119, 1, 8.21633
230, 6, wb, attraction, a-b-da, 2, 3, 4, 13, 120, 195, 195, 120, 193, 119, 2, 0.236599
230, 6, wb, attraction, a-b-db, 14, 3, 4, 14, 120, 195, 111, 181, 195, 120, 2, 1.61698
230, 6, wb, attraction, a-b-db, 14, 3, 4, 14, 120, 195, 111, 181, 195, 120, 1, 0.6392
230, 6, wb, attraction, a-b-db, 2, 1, 4, 15, 135, 60, 60, 135, 59, 134, 3, 2.42752
230, 6, wb, attraction, a-b-db, 2, 1, 4, 15, 135, 60, 60, 135, 59, 134, 1, 0.544741
230, 6, wb, attraction, a-b-db, 14, 2, 4, 16, 90, 165, 165, 90, 83, 153, 1, 3.45648
230, 6, wb, attraction, a-b-db, 14, 2, 4, 16, 90, 165, 165, 90, 83, 153, 2, 0.372024
230, 6, wb, attraction, a-b-da, 14, 2, 4, 17, 153, 83, 165, 90, 90, 165, 1, 1.94717
230, 6, wb, attraction, a-b-da, 14, 2, 4, 17, 153, 83, 165, 90, 90, 165, 3, 0.755888
230, 6, wb, catch, NA, 999, 999, 4, 18, 150, 105, 68, 127, 152, 163, 2, 1.00368
230, 6, wb, catch, NA, 999, 999, 4, 18, 150, 105, 68, 127, 152, 163, 3, 0.226713
230, 6, wb, attraction, a-b-db, 9, 3, 4, 19, 120, 195, 114, 186, 195, 120, 2, 1.32733
230, 6, wb, attraction, a-b-db, 9, 3, 4, 19, 120, 195, 114, 186, 195, 120, 1, 0.448739
230, 6, wb, attraction, a-b-db, 14, 1, 4, 20, 135, 60, 60, 135, 56, 125, 3, 8.54055
230, 6, wb, attraction, a-b-db, 14, 1, 4, 20, 135, 60, 60, 135, 56, 125, 2, 0.443108
230, 6, wb, attraction, a-b-db, 2, 2, 4, 21, 165, 90, 89, 163, 90, 165, 3, 3.44706
230, 6, wb, attraction, a-b-db, 2, 2, 4, 21, 165, 90, 89, 163, 90, 165, 1, 0.923152
230, 6, wb, attraction, a-b-da, 5, 1, 4, 22, 60, 135, 132, 58, 135, 60, 2, 11.3555
230, 6, wb, attraction, a-b-da, 5, 1, 4, 22, 60, 135, 132, 58, 135, 60, 1, 0.377311
230, 6, wb, attraction, a-b-db, 5, 2, 4, 23, 88, 161, 90, 165, 165, 90, 1, 3.22376
230, 6, wb, attraction, a-b-db, 5, 2, 4, 23, 88, 161, 90, 165, 165, 90, 3, 0.428727
230, 6, wb, filler, NA, 999, 999, 4, 24, 157, 86, 104, 63, 95, 159, 2, 1.31318
230, 6, wb, filler, NA, 999, 999, 4, 24, 157, 86, 104, 63, 95, 159, 3, 1.38745
230, 6, wb, filler, NA, 999, 999, 4, 25, 163, 121, 140, 156, 99, 111, 3, 0.601615
230, 6, wb, filler, NA, 999, 999, 4, 25, 163, 121, 140, 156, 99, 111, 2, 0.616657
230, 6, wb, attraction, a-b-da, 2, 2, 4, 26, 90, 165, 165, 90, 163, 89, 3, 2.65378
230, 6, wb, attraction, a-b-da, 2, 2, 4, 26, 90, 165, 165, 90, 163, 89, 2, 0.466214
230, 6, wb, filler, NA, 999, 999, 4, 27, 95, 155, 108, 72, 125, 150, 2, 0.813434
230, 6, wb, filler, NA, 999, 999, 4, 27, 95, 155, 108, 72, 125, 150, 3, 0.524004
230, 6, wb, attraction, a-b-da, 9, 2, 4, 28, 90, 165, 157, 86, 165, 90, 2, 5.46035
230, 6, wb, attraction, a-b-da, 9, 2, 4, 28, 90, 165, 157, 86, 165, 90, 1, 0.95116
230, 6, wb, catch, NA, 999, 999, 4, 29, 69, 126, 144, 171, 160, 95, 1, 0.838798
230, 6, wb, catch, NA, 999, 999, 4, 29, 69, 126, 144, 171, 160, 95, 2, 0.195891
230, 6, wb, filler, NA, 999, 999, 4, 30, 121, 105, 182, 180, 67, 179, 3, 2.60968
230, 6, wb, filler, NA, 999, 999, 4, 30, 121, 105, 182, 180, 67, 179, 2, 0.679541
230, 6, wb, attraction, a-b-db, 9, 2, 4, 31, 90, 165, 165, 90, 86, 157, 1, 15.6501
230, 6, wb, attraction, a-b-db, 9, 2, 4, 31, 90, 165, 165, 90, 86, 157, 3, 1.99437
230, 6, wb, filler, NA, 999, 999, 4, 32, 168, 174, 80, 169, 178, 73, 3, 10.8797
230, 6, wb, filler, NA, 999, 999, 4, 32, 168, 174, 80, 169, 178, 73, 1, 0.312274
230, 6, wb, attraction, a-b-da, 14, 1, 4, 33, 60, 135, 135, 60, 125, 56, 3, 7.91347
230, 6, wb, attraction, a-b-da, 14, 1, 4, 33, 60, 135, 135, 60, 125, 56, 1, 0.649546
230, 6, wb, attraction, a-b-db, 5, 1, 4, 34, 135, 60, 58, 132, 60, 135, 2, 50.6454
230, 6, wb, attraction, a-b-db, 5, 1, 4, 34, 135, 60, 58, 132, 60, 135, 3, 0.939482
230, 6, wb, attraction, a-b-da, 5, 3, 4, 35, 190, 117, 195, 120, 120, 195, 3, 3.02718
230, 6, wb, attraction, a-b-da, 5, 3, 4, 35, 190, 117, 195, 120, 120, 195, 2, 0.440188
230, 6, wb, filler, NA, 999, 999, 4, 36, 157, 98, 178, 67, 192, 163, 2, 5.92399
230, 6, wb, filler, NA, 999, 999, 4, 36, 157, 98, 178, 67, 192, 163, 3, 0.668064
230, 6, wb, catch, NA, 999, 999, 4, 37, 148, 167, 101, 94, 145, 110, 2, 0.855178
230, 6, wb, catch, NA, 999, 999, 4, 37, 148, 167, 101, 94, 145, 110, 1, 0.323502
230, 6, wb, attraction, a-b-db, 5, 3, 5, 1, 117, 190, 120, 195, 195, 120, 1, 21.0667
230, 6, wb, attraction, a-b-db, 5, 3, 5, 1, 117, 190, 120, 195, 195, 120, 2, 0.384697
230, 6, wb, catch, NA, 999, 999, 5, 2, 114, 81, 112, 143, 148, 167, 1, 1.27928
230, 6, wb, catch, NA, 999, 999, 5, 2, 114, 81, 112, 143, 148, 167, 3, 0.210776
230, 6, wb, filler, NA, 999, 999, 5, 3, 140, 93, 164, 122, 101, 145, 1, 3.44001
230, 6, wb, filler, NA, 999, 999, 5, 3, 140, 93, 164, 122, 101, 145, 2, 0.220196
230, 6, wb, attraction, a-b-db, 14, 1, 5, 4, 60, 135, 56, 125, 135, 60, 2, 2.10545
230, 6, wb, attraction, a-b-db, 14, 1, 5, 4, 60, 135, 56, 125, 135, 60, 1, 0.691424
230, 6, wb, attraction, a-b-db, 14, 2, 5, 5, 90, 165, 83, 153, 165, 90, 2, 2.96515
230, 6, wb, attraction, a-b-db, 14, 2, 5, 5, 90, 165, 83, 153, 165, 90, 1, 0.412774
230, 6, wb, attraction, a-b-db, 2, 2, 5, 6, 89, 163, 90, 165, 165, 90, 3, 11.3861
230, 6, wb, attraction, a-b-db, 2, 2, 5, 6, 89, 163, 90, 165, 165, 90, 2, 0.830407
230, 6, wb, attraction, a-b-da, 14, 2, 5, 7, 165, 90, 90, 165, 153, 83, 3, 3.47477
230, 6, wb, attraction, a-b-da, 14, 2, 5, 7, 165, 90, 90, 165, 153, 83, 2, 0.309591
230, 6, wb, attraction, a-b-db, 2, 3, 5, 8, 119, 193, 195, 120, 120, 195, 2, 3.81494
230, 6, wb, attraction, a-b-db, 2, 3, 5, 8, 119, 193, 195, 120, 120, 195, 3, 0.316288
230, 6, wb, attraction, a-b-da, 5, 2, 5, 9, 90, 165, 165, 90, 161, 88, 3, 28.5494
230, 6, wb, attraction, a-b-da, 5, 2, 5, 9, 90, 165, 165, 90, 161, 88, 1, 0.317739
230, 6, wb, attraction, a-b-db, 9, 2, 5, 10, 90, 165, 86, 157, 165, 90, 3, 6.70305
230, 6, wb, attraction, a-b-db, 9, 2, 5, 10, 90, 165, 86, 157, 165, 90, 1, 0.648346
230, 6, wb, filler, NA, 999, 999, 5, 11, 82, 182, 136, 97, 140, 108, 2, 1.88403
230, 6, wb, filler, NA, 999, 999, 5, 11, 82, 182, 136, 97, 140, 108, 3, 0.655357
230, 6, wb, attraction, a-b-da, 9, 2, 5, 12, 165, 90, 90, 165, 157, 86, 3, 8.20306
230, 6, wb, attraction, a-b-da, 9, 2, 5, 12, 165, 90, 90, 165, 157, 86, 2, 0.375887
230, 6, wb, catch, NA, 999, 999, 5, 13, 97, 98, 130, 185, 110, 145, 1, 1.16639
230, 6, wb, catch, NA, 999, 999, 5, 13, 97, 98, 130, 185, 110, 145, 2, 0.342634
230, 6, wb, attraction, a-b-da, 2, 3, 5, 14, 193, 119, 120, 195, 195, 120, 3, 61.7825
230, 6, wb, attraction, a-b-da, 2, 3, 5, 14, 193, 119, 120, 195, 195, 120, 2, 0.667799
230, 6, wb, attraction, a-b-db, 14, 3, 5, 15, 111, 181, 195, 120, 120, 195, 1, 3.67082
230, 6, wb, attraction, a-b-db, 14, 3, 5, 15, 111, 181, 195, 120, 120, 195, 3, 0.498281
230, 6, wb, attraction, a-b-da, 9, 3, 5, 16, 120, 195, 186, 114, 195, 120, 1, 20.6362
230, 6, wb, attraction, a-b-da, 9, 3, 5, 16, 120, 195, 186, 114, 195, 120, 3, 0.387551
230, 6, wb, attraction, a-b-db, 9, 3, 5, 17, 195, 120, 120, 195, 114, 186, 3, 9.96223
230, 6, wb, attraction, a-b-db, 9, 3, 5, 17, 195, 120, 120, 195, 114, 186, 2, 0.327651
230, 6, wb, attraction, a-b-db, 2, 1, 5, 18, 135, 60, 60, 135, 59, 134, 1, 44.2002
230, 6, wb, attraction, a-b-db, 2, 1, 5, 18, 135, 60, 60, 135, 59, 134, 2, 0.84232
230, 6, wb, filler, NA, 999, 999, 5, 19, 118, 98, 184, 126, 194, 144, 1, 0.901956
230, 6, wb, filler, NA, 999, 999, 5, 19, 118, 98, 184, 126, 194, 144, 3, 0.328992
230, 6, wb, filler, NA, 999, 999, 5, 20, 125, 77, 181, 107, 172, 170, 1, 1.8175
230, 6, wb, filler, NA, 999, 999, 5, 20, 125, 77, 181, 107, 172, 170, 3, 0.567559
230, 6, wb, catch, NA, 999, 999, 5, 21, 122, 73, 194, 121, 102, 153, 1, 1.21469
230, 6, wb, catch, NA, 999, 999, 5, 21, 122, 73, 194, 121, 102, 153, 2, 0.2529
230, 6, wb, attraction, a-b-da, 5, 1, 5, 22, 135, 60, 60, 135, 132, 58, 2, 4.42486
230, 6, wb, attraction, a-b-da, 5, 1, 5, 22, 135, 60, 60, 135, 132, 58, 1, 0.821373
230, 6, wb, attraction, a-b-da, 14, 1, 5, 23, 125, 56, 135, 60, 60, 135, 1, 23.0265
230, 6, wb, attraction, a-b-da, 14, 1, 5, 23, 125, 56, 135, 60, 60, 135, 3, 1.24199
230, 6, wb, filler, NA, 999, 999, 5, 24, 106, 107, 175, 182, 155, 69, 3, 2.57337
230, 6, wb, filler, NA, 999, 999, 5, 24, 106, 107, 175, 182, 155, 69, 2, 0.500639
230, 6, wb, filler, NA, 999, 999, 5, 25, 99, 108, 175, 138, 112, 57, 3, 0.846364
230, 6, wb, filler, NA, 999, 999, 5, 25, 99, 108, 175, 138, 112, 57, 2, 0.475372
230, 6, wb, attraction, a-b-db, 5, 2, 5, 26, 90, 165, 88, 161, 165, 90, 2, 10.7739
230, 6, wb, attraction, a-b-db, 5, 2, 5, 26, 90, 165, 88, 161, 165, 90, 3, 0.77114
230, 6, wb, filler, NA, 999, 999, 5, 27, 127, 154, 83, 182, 175, 75, 3, 3.18637
230, 6, wb, filler, NA, 999, 999, 5, 27, 127, 154, 83, 182, 175, 75, 1, 0.313112
230, 6, wb, attraction, a-b-db, 5, 1, 5, 28, 58, 132, 135, 60, 60, 135, 2, 7.87431
230, 6, wb, attraction, a-b-db, 5, 1, 5, 28, 58, 132, 135, 60, 60, 135, 3, 0.28394
230, 6, wb, attraction, a-b-db, 9, 1, 5, 29, 135, 60, 57, 129, 60, 135, 1, 16.5426
230, 6, wb, attraction, a-b-db, 9, 1, 5, 29, 135, 60, 57, 129, 60, 135, 3, 0.715174
230, 6, wb, attraction, a-b-da, 14, 3, 5, 30, 181, 111, 195, 120, 120, 195, 1, 7.81233
230, 6, wb, attraction, a-b-da, 14, 3, 5, 30, 181, 111, 195, 120, 120, 195, 3, 0.624411
230, 6, wb, attraction, a-b-da, 2, 1, 5, 31, 60, 135, 135, 60, 134, 59, 1, 5.00483
230, 6, wb, attraction, a-b-da, 2, 1, 5, 31, 60, 135, 135, 60, 134, 59, 2, 1.21867
230, 6, wb, attraction, a-b-da, 9, 1, 5, 32, 60, 135, 135, 60, 129, 57, 1, 3.65559
230, 6, wb, attraction, a-b-da, 9, 1, 5, 32, 60, 135, 135, 60, 129, 57, 2, 0.899114
230, 6, wb, attraction, a-b-da, 2, 2, 5, 33, 90, 165, 165, 90, 163, 89, 3, 2.94876
230, 6, wb, attraction, a-b-da, 2, 2, 5, 33, 90, 165, 165, 90, 163, 89, 2, 0.893098
230, 6, wb, filler, NA, 999, 999, 5, 34, 95, 147, 69, 92, 195, 65, 2, 0.806643
230, 6, wb, filler, NA, 999, 999, 5, 34, 95, 147, 69, 92, 195, 65, 1, 0.333047
230, 6, wb, filler, NA, 999, 999, 5, 35, 80, 65, 145, 108, 179, 155, 1, 1.23757
230, 6, wb, filler, NA, 999, 999, 5, 35, 80, 65, 145, 108, 179, 155, 3, 0.202499
230, 6, wb, attraction, a-b-da, 5, 3, 5, 36, 190, 117, 195, 120, 120, 195, 1, 25.8804
230, 6, wb, attraction, a-b-da, 5, 3, 5, 36, 190, 117, 195, 120, 120, 195, 3, 0.308249
230, 6, wb, filler, NA, 999, 999, 5, 37, 72, 99, 84, 195, 165, 103, 1, 0.829475
230, 6, wb, filler, NA, 999, 999, 5, 37, 72, 99, 84, 195, 165, 103, 3, 2.02719
230, 6, wb, filler, NA, 999, 999, 6, 1, 114, 155, 182, 156, 140, 94, 3, 2.8233
230, 6, wb, filler, NA, 999, 999, 6, 1, 114, 155, 182, 156, 140, 94, 2, 0.644338
230, 6, wb, attraction, a-b-da, 2, 3, 6, 2, 195, 120, 193, 119, 120, 195, 2, 6.66406
230, 6, wb, attraction, a-b-da, 2, 3, 6, 2, 195, 120, 193, 119, 120, 195, 1, 0.442476
230, 6, wb, attraction, a-b-da, 14, 1, 6, 3, 60, 135, 125, 56, 135, 60, 2, 1.07035
230, 6, wb, attraction, a-b-da, 14, 1, 6, 3, 60, 135, 125, 56, 135, 60, 3, 0.538684
230, 6, wb, catch, NA, 999, 999, 6, 4, 142, 173, 65, 130, 111, 144, 2, 0.915081
230, 6, wb, catch, NA, 999, 999, 6, 4, 142, 173, 65, 130, 111, 144, 1, 0.333363
230, 6, wb, attraction, a-b-da, 9, 3, 6, 5, 120, 195, 195, 120, 186, 114, 3, 4.08591
230, 6, wb, attraction, a-b-da, 9, 3, 6, 5, 120, 195, 195, 120, 186, 114, 1, 0.568633
230, 6, wb, attraction, a-b-db, 5, 1, 6, 6, 58, 132, 135, 60, 60, 135, 1, 1.54368
230, 6, wb, attraction, a-b-db, 5, 1, 6, 6, 58, 132, 135, 60, 60, 135, 3, 0.680641
230, 6, wb, attraction, a-b-db, 14, 1, 6, 7, 60, 135, 135, 60, 56, 125, 3, 0.986867
230, 6, wb, attraction, a-b-db, 14, 1, 6, 7, 60, 135, 135, 60, 56, 125, 1, 0.49853
230, 6, wb, attraction, a-b-da, 9, 1, 6, 8, 60, 135, 135, 60, 129, 57, 2, 2.79642
230, 6, wb, attraction, a-b-da, 9, 1, 6, 8, 60, 135, 135, 60, 129, 57, 3, 1.17091
230, 6, wb, attraction, a-b-db, 14, 2, 6, 9, 165, 90, 90, 165, 83, 153, 1, 10.4818
230, 6, wb, attraction, a-b-db, 14, 2, 6, 9, 165, 90, 90, 165, 83, 153, 2, 1.02649
230, 6, wb, attraction, a-b-db, 9, 1, 6, 10, 57, 129, 60, 135, 135, 60, 1, 1.28666
230, 6, wb, attraction, a-b-db, 9, 1, 6, 10, 57, 129, 60, 135, 135, 60, 3, 0.441664
230, 6, wb, filler, NA, 999, 999, 6, 11, 67, 58, 93, 113, 132, 105, 1, 0.605536
230, 6, wb, filler, NA, 999, 999, 6, 11, 67, 58, 93, 113, 132, 105, 3, 0.843942
230, 6, wb, attraction, a-b-da, 2, 2, 6, 12, 163, 89, 165, 90, 90, 165, 1, 2.32763
230, 6, wb, attraction, a-b-da, 2, 2, 6, 12, 163, 89, 165, 90, 90, 165, 2, 0.272821
230, 6, wb, attraction, a-b-db, 9, 2, 6, 13, 165, 90, 90, 165, 86, 157, 3, 0.955358
230, 6, wb, attraction, a-b-db, 9, 2, 6, 13, 165, 90, 90, 165, 86, 157, 2, 0.195675
230, 6, wb, attraction, a-b-da, 14, 3, 6, 14, 181, 111, 195, 120, 120, 195, 1, 3.14555
230, 6, wb, attraction, a-b-da, 14, 3, 6, 14, 181, 111, 195, 120, 120, 195, 3, 0.281863
230, 6, wb, catch, NA, 999, 999, 6, 15, 115, 80, 150, 165, 94, 161, 1, 3.38852
230, 6, wb, catch, NA, 999, 999, 6, 15, 115, 80, 150, 165, 94, 161, 2, 0.322607
230, 6, wb, filler, NA, 999, 999, 6, 16, 66, 115, 167, 79, 179, 111, 1, 0.971812
230, 6, wb, filler, NA, 999, 999, 6, 16, 66, 115, 167, 79, 179, 111, 3, 0.555469
230, 6, wb, attraction, a-b-db, 5, 3, 6, 17, 117, 190, 195, 120, 120, 195, 2, 19.2992
230, 6, wb, attraction, a-b-db, 5, 3, 6, 17, 117, 190, 195, 120, 120, 195, 3, 0.624455
230, 6, wb, filler, NA, 999, 999, 6, 18, 181, 169, 130, 157, 134, 78, 3, 1.22893
230, 6, wb, filler, NA, 999, 999, 6, 18, 181, 169, 130, 157, 134, 78, 1, 0.402555
230, 6, wb, filler, NA, 999, 999, 6, 19, 190, 73, 79, 175, 142, 126, 1, 1.62432
230, 6, wb, filler, NA, 999, 999, 6, 19, 190, 73, 79, 175, 142, 126, 3, 0.453824
230, 6, wb, filler, NA, 999, 999, 6, 20, 78, 161, 172, 118, 98, 174, 1, 1.40157
230, 6, wb, filler, NA, 999, 999, 6, 20, 78, 161, 172, 118, 98, 174, 2, 0.336391
230, 6, wb, attraction, a-b-db, 2, 1, 6, 21, 60, 135, 59, 134, 135, 60, 2, 2.54495
230, 6, wb, attraction, a-b-db, 2, 1, 6, 21, 60, 135, 59, 134, 135, 60, 3, 1.98549
230, 6, wb, attraction, a-b-da, 14, 2, 6, 22, 153, 83, 165, 90, 90, 165, 1, 2.14354
230, 6, wb, attraction, a-b-da, 14, 2, 6, 22, 153, 83, 165, 90, 90, 165, 2, 0.304075
230, 6, wb, attraction, a-b-da, 2, 1, 6, 23, 134, 59, 135, 60, 60, 135, 3, 5.32193
230, 6, wb, attraction, a-b-da, 2, 1, 6, 23, 134, 59, 135, 60, 60, 135, 2, 0.370261
230, 6, wb, filler, NA, 999, 999, 6, 24, 63, 68, 80, 144, 113, 195, 1, 0.865419
230, 6, wb, filler, NA, 999, 999, 6, 24, 63, 68, 80, 144, 113, 195, 3, 0.54222
230, 6, wb, attraction, a-b-db, 2, 2, 6, 25, 90, 165, 89, 163, 165, 90, 3, 16.8136
230, 6, wb, attraction, a-b-db, 2, 2, 6, 25, 90, 165, 89, 163, 165, 90, 2, 0.478943
230, 6, wb, attraction, a-b-da, 9, 2, 6, 26, 165, 90, 157, 86, 90, 165, 2, 4.94541
230, 6, wb, attraction, a-b-da, 9, 2, 6, 26, 165, 90, 157, 86, 90, 165, 3, 0.393198
230, 6, wb, filler, NA, 999, 999, 6, 27, 75, 117, 164, 168, 183, 139, 1, 0.662996
230, 6, wb, filler, NA, 999, 999, 6, 27, 75, 117, 164, 168, 183, 139, 2, 0.251528
230, 6, wb, filler, NA, 999, 999, 6, 28, 155, 95, 191, 126, 120, 170, 1, 1.75128
230, 6, wb, filler, NA, 999, 999, 6, 28, 155, 95, 191, 126, 120, 170, 2, 0.552014
230, 6, wb, attraction, a-b-db, 2, 3, 6, 29, 195, 120, 119, 193, 120, 195, 1, 7.55983
230, 6, wb, attraction, a-b-db, 2, 3, 6, 29, 195, 120, 119, 193, 120, 195, 2, 0.686051
230, 6, wb, attraction, a-b-db, 14, 3, 6, 30, 195, 120, 120, 195, 111, 181, 3, 3.52852
230, 6, wb, attraction, a-b-db, 14, 3, 6, 30, 195, 120, 120, 195, 111, 181, 2, 0.337427
230, 6, wb, attraction, a-b-da, 5, 3, 6, 31, 195, 120, 120, 195, 190, 117, 1, 1.9539
230, 6, wb, attraction, a-b-da, 5, 3, 6, 31, 195, 120, 120, 195, 190, 117, 2, 1.01865
230, 6, wb, catch, NA, 999, 999, 6, 32, 189, 126, 93, 102, 143, 112, 2, 3.38353
230, 6, wb, catch, NA, 999, 999, 6, 32, 189, 126, 93, 102, 143, 112, 1, 0.366504
230, 6, wb, attraction, a-b-db, 5, 2, 6, 33, 165, 90, 88, 161, 90, 165, 1, 7.32557
230, 6, wb, attraction, a-b-db, 5, 2, 6, 33, 165, 90, 88, 161, 90, 165, 2, 0.405256
230, 6, wb, filler, NA, 999, 999, 6, 34, 165, 114, 108, 60, 71, 101, 2, 4.16315
230, 6, wb, filler, NA, 999, 999, 6, 34, 165, 114, 108, 60, 71, 101, 1, 0.354445
230, 6, wb, attraction, a-b-db, 9, 3, 6, 35, 120, 195, 195, 120, 114, 186, 3, 43.8583
230, 6, wb, attraction, a-b-db, 9, 3, 6, 35, 120, 195, 195, 120, 114, 186, 1, 0.497856
230, 6, wb, attraction, a-b-da, 5, 1, 6, 36, 135, 60, 132, 58, 60, 135, 2, 11.0357
230, 6, wb, attraction, a-b-da, 5, 1, 6, 36, 135, 60, 132, 58, 60, 135, 3, 0.49421
230, 6, wb, attraction, a-b-da, 5, 2, 6, 37, 161, 88, 90, 165, 165, 90, 1, 1.36797
230, 6, wb, attraction, a-b-da, 5, 2, 6, 37, 161, 88, 90, 165, 165, 90, 2, 0.493697
230, 6, wb, catch, NA, 999, 999, 7, 1, 158, 157, 98, 97, 123, 132, 2, 1.11405
230, 6, wb, catch, NA, 999, 999, 7, 1, 158, 157, 98, 97, 123, 132, 1, 0.26829
230, 6, wb, attraction, a-b-db, 14, 2, 7, 2, 83, 153, 165, 90, 90, 165, 1, 1.22351
230, 6, wb, attraction, a-b-db, 14, 2, 7, 2, 83, 153, 165, 90, 90, 165, 3, 0.413067
230, 6, wb, attraction, a-b-db, 2, 2, 7, 3, 90, 165, 165, 90, 89, 163, 2, 5.40222
230, 6, wb, attraction, a-b-db, 2, 2, 7, 3, 90, 165, 165, 90, 89, 163, 1, 0.319834
230, 6, wb, attraction, a-b-da, 14, 2, 7, 4, 153, 83, 165, 90, 90, 165, 1, 2.08901
230, 6, wb, attraction, a-b-da, 14, 2, 7, 4, 153, 83, 165, 90, 90, 165, 2, 0.29959
230, 6, wb, attraction, a-b-da, 9, 1, 7, 5, 60, 135, 129, 57, 135, 60, 2, 3.04548
230, 6, wb, attraction, a-b-da, 9, 1, 7, 5, 60, 135, 129, 57, 135, 60, 1, 0.569855
230, 6, wb, filler, NA, 999, 999, 7, 6, 105, 81, 160, 140, 101, 192, 1, 0.840937
230, 6, wb, filler, NA, 999, 999, 7, 6, 105, 81, 160, 140, 101, 192, 2, 0.26199
230, 6, wb, filler, NA, 999, 999, 7, 7, 183, 176, 106, 70, 79, 180, 2, 0.817145
230, 6, wb, filler, NA, 999, 999, 7, 7, 183, 176, 106, 70, 79, 180, 1, 0.303676
230, 6, wb, attraction, a-b-da, 9, 3, 7, 8, 120, 195, 195, 120, 186, 114, 3, 182.266
230, 6, wb, attraction, a-b-da, 9, 3, 7, 8, 120, 195, 195, 120, 186, 114, 1, 0.751066
230, 6, wb, filler, NA, 999, 999, 7, 9, 117, 58, 110, 60, 171, 102, 2, 2.11077
230, 6, wb, filler, NA, 999, 999, 7, 9, 117, 58, 110, 60, 171, 102, 3, 0.256789
230, 6, wb, attraction, a-b-da, 5, 1, 7, 10, 60, 135, 132, 58, 135, 60, 3, 1.86005
230, 6, wb, attraction, a-b-da, 5, 1, 7, 10, 60, 135, 132, 58, 135, 60, 1, 0.42403
230, 6, wb, attraction, a-b-db, 9, 2, 7, 11, 165, 90, 86, 157, 90, 165, 1, 2.8686
230, 6, wb, attraction, a-b-db, 9, 2, 7, 11, 165, 90, 86, 157, 90, 165, 3, 0.62423
230, 6, wb, attraction, a-b-da, 2, 3, 7, 12, 193, 119, 195, 120, 120, 195, 2, 33.4527
230, 6, wb, attraction, a-b-da, 2, 3, 7, 12, 193, 119, 195, 120, 120, 195, 1, 0.391515
230, 6, wb, filler, NA, 999, 999, 7, 13, 165, 147, 175, 104, 86, 103, 3, 0.93329
230, 6, wb, filler, NA, 999, 999, 7, 13, 165, 147, 175, 104, 86, 103, 1, 0.398964
230, 6, wb, attraction, a-b-da, 5, 2, 7, 14, 161, 88, 90, 165, 165, 90, 1, 1.30896
230, 6, wb, attraction, a-b-da, 5, 2, 7, 14, 161, 88, 90, 165, 165, 90, 3, 0.759047
230, 6, wb, filler, NA, 999, 999, 7, 15, 135, 187, 136, 194, 105, 118, 3, 0.758111
230, 6, wb, filler, NA, 999, 999, 7, 15, 135, 187, 136, 194, 105, 118, 2, 0.430613
230, 6, wb, catch, NA, 999, 999, 7, 16, 122, 73, 99, 156, 145, 170, 1, 0.714977
230, 6, wb, catch, NA, 999, 999, 7, 16, 122, 73, 99, 156, 145, 170, 3, 0.5335
230, 6, wb, catch, NA, 999, 999, 7, 17, 103, 152, 61, 134, 148, 167, 2, 0.893972
230, 6, wb, catch, NA, 999, 999, 7, 17, 103, 152, 61, 134, 148, 167, 3, 0.440835
230, 6, wb, attraction, a-b-db, 9, 3, 7, 18, 120, 195, 195, 120, 114, 186, 3, 4.21268
230, 6, wb, attraction, a-b-db, 9, 3, 7, 18, 120, 195, 195, 120, 114, 186, 2, 0.330096
230, 6, wb, attraction, a-b-db, 14, 1, 7, 19, 56, 125, 135, 60, 60, 135, 1, 1.10662
230, 6, wb, attraction, a-b-db, 14, 1, 7, 19, 56, 125, 135, 60, 60, 135, 2, 0.372786
230, 6, wb, attraction, a-b-db, 2, 3, 7, 20, 195, 120, 120, 195, 119, 193, 3, 5.02735
230, 6, wb, attraction, a-b-db, 2, 3, 7, 20, 195, 120, 120, 195, 119, 193, 2, 0.343704
230, 6, wb, filler, NA, 999, 999, 7, 21, 89, 175, 144, 137, 153, 158, 1, 1.27147
230, 6, wb, filler, NA, 999, 999, 7, 21, 89, 175, 144, 137, 153, 158, 3, 1.65904
230, 6, wb, attraction, a-b-da, 5, 3, 7, 22, 120, 195, 190, 117, 195, 120, 1, 1.67795
230, 6, wb, attraction, a-b-da, 5, 3, 7, 22, 120, 195, 190, 117, 195, 120, 3, 0.425266
230, 6, wb, attraction, a-b-da, 14, 1, 7, 23, 135, 60, 125, 56, 60, 135, 2, 5.21377
230, 6, wb, attraction, a-b-da, 14, 1, 7, 23, 135, 60, 125, 56, 60, 135, 1, 0.338742
230, 6, wb, attraction, a-b-db, 14, 3, 7, 24, 195, 120, 111, 181, 120, 195, 2, 7.23534
230, 6, wb, attraction, a-b-db, 14, 3, 7, 24, 195, 120, 111, 181, 120, 195, 1, 0.343008
230, 6, wb, attraction, a-b-da, 9, 2, 7, 25, 90, 165, 157, 86, 165, 90, 1, 1.54297
230, 6, wb, attraction, a-b-da, 9, 2, 7, 25, 90, 165, 157, 86, 165, 90, 3, 0.359659
230, 6, wb, filler, NA, 999, 999, 7, 26, 110, 135, 150, 183, 81, 141, 3, 1.41486
230, 6, wb, filler, NA, 999, 999, 7, 26, 110, 135, 150, 183, 81, 141, 2, 0.293139
230, 6, wb, attraction, a-b-db, 5, 3, 7, 27, 195, 120, 117, 190, 120, 195, 3, 1.415
230, 6, wb, attraction, a-b-db, 5, 3, 7, 27, 195, 120, 117, 190, 120, 195, 1, 0.341164
230, 6, wb, filler, NA, 999, 999, 7, 28, 138, 92, 74, 174, 96, 71, 3, 0.660851
230, 6, wb, filler, NA, 999, 999, 7, 28, 138, 92, 74, 174, 96, 71, 1, 0.513316
230, 6, wb, attraction, a-b-da, 2, 1, 7, 29, 135, 60, 134, 59, 60, 135, 1, 2.53048
230, 6, wb, attraction, a-b-da, 2, 1, 7, 29, 135, 60, 134, 59, 60, 135, 3, 0.787591
230, 6, wb, attraction, a-b-db, 5, 2, 7, 30, 90, 165, 88, 161, 165, 90, 1, 1.03405
230, 6, wb, attraction, a-b-db, 5, 2, 7, 30, 90, 165, 88, 161, 165, 90, 3, 0.439621
230, 6, wb, attraction, a-b-db, 2, 1, 7, 31, 60, 135, 59, 134, 135, 60, 3, 2.46743
230, 6, wb, attraction, a-b-db, 2, 1, 7, 31, 60, 135, 59, 134, 135, 60, 1, 0.399313
230, 6, wb, attraction, a-b-da, 2, 2, 7, 32, 165, 90, 90, 165, 163, 89, 1, 14.1651
230, 6, wb, attraction, a-b-da, 2, 2, 7, 32, 165, 90, 90, 165, 163, 89, 3, 1.36132
230, 6, wb, attraction, a-b-db, 5, 1, 7, 33, 60, 135, 135, 60, 58, 132, 3, 2.47231
230, 6, wb, attraction, a-b-db, 5, 1, 7, 33, 60, 135, 135, 60, 58, 132, 2, 0.347426
230, 6, wb, attraction, a-b-db, 9, 1, 7, 34, 60, 135, 57, 129, 135, 60, 1, 1.00341
230, 6, wb, attraction, a-b-db, 9, 1, 7, 34, 60, 135, 57, 129, 135, 60, 3, 0.794236
230, 6, wb, filler, NA, 999, 999, 7, 35, 76, 98, 95, 79, 75, 131, 2, 3.51991
230, 6, wb, filler, NA, 999, 999, 7, 35, 76, 98, 95, 79, 75, 131, 3, 0.297462
230, 6, wb, filler, NA, 999, 999, 7, 36, 155, 159, 78, 191, 98, 57, 3, 0.899394
230, 6, wb, filler, NA, 999, 999, 7, 36, 155, 159, 78, 191, 98, 57, 1, 0.374338
230, 6, wb, attraction, a-b-da, 14, 3, 7, 37, 195, 120, 120, 195, 181, 111, 3, 15.3168
230, 6, wb, attraction, a-b-da, 14, 3, 7, 37, 195, 120, 120, 195, 181, 111, 2, 0.37062
230, 6, wb, filler, NA, 999, 999, 8, 1, 135, 97, 178, 182, 135, 86, 1, 4.54586
230, 6, wb, filler, NA, 999, 999, 8, 1, 135, 97, 178, 182, 135, 86, 2, 0.45771
230, 6, wb, attraction, a-b-da, 14, 3, 8, 2, 120, 195, 181, 111, 195, 120, 2, 4.46883
230, 6, wb, attraction, a-b-da, 14, 3, 8, 2, 120, 195, 181, 111, 195, 120, 1, 0.464021
230, 6, wb, attraction, a-b-da, 5, 1, 8, 3, 135, 60, 60, 135, 132, 58, 3, 2.00323
230, 6, wb, attraction, a-b-da, 5, 1, 8, 3, 135, 60, 60, 135, 132, 58, 2, 0.44931
230, 6, wb, attraction, a-b-da, 5, 2, 8, 4, 161, 88, 165, 90, 90, 165, 1, 25.0771
230, 6, wb, attraction, a-b-da, 5, 2, 8, 4, 161, 88, 165, 90, 90, 165, 3, 0.417804
230, 6, wb, attraction, a-b-da, 9, 1, 8, 5, 135, 60, 129, 57, 60, 135, 2, 1.07897
230, 6, wb, attraction, a-b-da, 9, 1, 8, 5, 135, 60, 129, 57, 60, 135, 3, 0.402601
230, 6, wb, filler, NA, 999, 999, 8, 6, 129, 174, 184, 58, 147, 149, 2, 6.80846
230, 6, wb, filler, NA, 999, 999, 8, 6, 129, 174, 184, 58, 147, 149, 3, 0.277111
230, 6, wb, filler, NA, 999, 999, 8, 7, 102, 168, 82, 60, 143, 149, 2, 1.07148
230, 6, wb, filler, NA, 999, 999, 8, 7, 102, 168, 82, 60, 143, 149, 3, 0.259102
230, 6, wb, catch, NA, 999, 999, 8, 8, 123, 132, 173, 142, 122, 73, 3, 0.710319
230, 6, wb, catch, NA, 999, 999, 8, 8, 123, 132, 173, 142, 122, 73, 2, 0.512742
230, 6, wb, attraction, a-b-da, 2, 2, 8, 9, 163, 89, 165, 90, 90, 165, 3, 4.70585
230, 6, wb, attraction, a-b-da, 2, 2, 8, 9, 163, 89, 165, 90, 90, 165, 2, 0.490933
230, 6, wb, attraction, a-b-da, 9, 2, 8, 10, 165, 90, 90, 165, 157, 86, 3, 0.81275
230, 6, wb, attraction, a-b-da, 9, 2, 8, 10, 165, 90, 90, 165, 157, 86, 2, 0.363236
230, 6, wb, attraction, a-b-db, 9, 1, 8, 11, 57, 129, 60, 135, 135, 60, 1, 1.84232
230, 6, wb, attraction, a-b-db, 9, 1, 8, 11, 57, 129, 60, 135, 135, 60, 3, 0.607097
230, 6, wb, filler, NA, 999, 999, 8, 12, 73, 191, 119, 100, 120, 56, 3, 0.940141
230, 6, wb, filler, NA, 999, 999, 8, 12, 73, 191, 119, 100, 120, 56, 2, 0.333127
230, 6, wb, attraction, a-b-db, 5, 1, 8, 13, 60, 135, 135, 60, 58, 132, 2, 4.94164
230, 6, wb, attraction, a-b-db, 5, 1, 8, 13, 60, 135, 135, 60, 58, 132, 1, 0.957562
230, 6, wb, attraction, a-b-db, 14, 2, 8, 14, 90, 165, 165, 90, 83, 153, 3, 1.98843
230, 6, wb, attraction, a-b-db, 14, 2, 8, 14, 90, 165, 165, 90, 83, 153, 2, 0.643047
230, 6, wb, filler, NA, 999, 999, 8, 15, 83, 87, 144, 97, 181, 186, 1, 0.886867
230, 6, wb, filler, NA, 999, 999, 8, 15, 83, 87, 144, 97, 181, 186, 3, 0.274591
230, 6, wb, attraction, a-b-db, 5, 3, 8, 16, 120, 195, 195, 120, 117, 190, 2, 4.95712
230, 6, wb, attraction, a-b-db, 5, 3, 8, 16, 120, 195, 195, 120, 117, 190, 1, 0.268114
230, 6, wb, attraction, a-b-db, 9, 2, 8, 17, 90, 165, 165, 90, 86, 157, 3, 1.78331
230, 6, wb, attraction, a-b-db, 9, 2, 8, 17, 90, 165, 165, 90, 86, 157, 2, 0.294777
230, 6, wb, attraction, a-b-da, 2, 3, 8, 18, 193, 119, 195, 120, 120, 195, 1, 3.4006
230, 6, wb, attraction, a-b-da, 2, 3, 8, 18, 193, 119, 195, 120, 120, 195, 3, 0.574815
230, 6, wb, attraction, a-b-db, 14, 3, 8, 19, 120, 195, 195, 120, 111, 181, 3, 1.42939
230, 6, wb, attraction, a-b-db, 14, 3, 8, 19, 120, 195, 195, 120, 111, 181, 2, 0.52277
230, 6, wb, filler, NA, 999, 999, 8, 20, 58, 132, 111, 166, 58, 74, 1, 1.71523
230, 6, wb, filler, NA, 999, 999, 8, 20, 58, 132, 111, 166, 58, 74, 2, 0.261312
230, 6, wb, attraction, a-b-da, 2, 1, 8, 21, 135, 60, 60, 135, 134, 59, 1, 1.57661
230, 6, wb, attraction, a-b-da, 2, 1, 8, 21, 135, 60, 60, 135, 134, 59, 2, 0.719961
230, 6, wb, attraction, a-b-da, 14, 2, 8, 22, 90, 165, 153, 83, 165, 90, 2, 22.345
230, 6, wb, attraction, a-b-da, 14, 2, 8, 22, 90, 165, 153, 83, 165, 90, 1, 0.755408
230, 6, wb, filler, NA, 999, 999, 8, 23, 93, 63, 155, 153, 125, 79, 1, 1.05107
230, 6, wb, filler, NA, 999, 999, 8, 23, 93, 63, 155, 153, 125, 79, 2, 0.264045
230, 6, wb, attraction, a-b-db, 2, 2, 8, 24, 165, 90, 90, 165, 89, 163, 3, 2.12342
230, 6, wb, attraction, a-b-db, 2, 2, 8, 24, 165, 90, 90, 165, 89, 163, 2, 0.63661
230, 6, wb, filler, NA, 999, 999, 8, 25, 184, 94, 191, 147, 118, 172, 3, 1.88896
230, 6, wb, filler, NA, 999, 999, 8, 25, 184, 94, 191, 147, 118, 172, 2, 0.331633
230, 6, wb, attraction, a-b-da, 5, 3, 8, 26, 195, 120, 190, 117, 120, 195, 3, 5.03629
230, 6, wb, attraction, a-b-da, 5, 3, 8, 26, 195, 120, 190, 117, 120, 195, 2, 0.344656
230, 6, wb, attraction, a-b-da, 9, 3, 8, 27, 186, 114, 195, 120, 120, 195, 3, 8.23238
230, 6, wb, attraction, a-b-da, 9, 3, 8, 27, 186, 114, 195, 120, 120, 195, 2, 0.395858
230, 6, wb, catch, NA, 999, 999, 8, 28, 64, 131, 162, 153, 152, 103, 1, 3.53765
230, 6, wb, catch, NA, 999, 999, 8, 28, 64, 131, 162, 153, 152, 103, 2, 0.554608
230, 6, wb, attraction, a-b-db, 9, 3, 8, 29, 114, 186, 120, 195, 195, 120, 2, 3.88236
230, 6, wb, attraction, a-b-db, 9, 3, 8, 29, 114, 186, 120, 195, 195, 120, 1, 0.309072
230, 6, wb, filler, NA, 999, 999, 8, 30, 67, 153, 190, 61, 79, 133, 3, 0.918207
230, 6, wb, filler, NA, 999, 999, 8, 30, 67, 153, 190, 61, 79, 133, 2, 0.696678
230, 6, wb, attraction, a-b-db, 14, 1, 8, 31, 60, 135, 56, 125, 135, 60, 2, 5.67435
230, 6, wb, attraction, a-b-db, 14, 1, 8, 31, 60, 135, 56, 125, 135, 60, 3, 0.756534
230, 6, wb, catch, NA, 999, 999, 8, 32, 161, 154, 108, 87, 98, 157, 2, 1.14758
230, 6, wb, catch, NA, 999, 999, 8, 32, 161, 154, 108, 87, 98, 157, 1, 0.33246
230, 6, wb, attraction, a-b-db, 2, 1, 8, 33, 60, 135, 135, 60, 59, 134, 2, 4.56501
230, 6, wb, attraction, a-b-db, 2, 1, 8, 33, 60, 135, 135, 60, 59, 134, 1, 0.388239
230, 6, wb, attraction, a-b-db, 2, 3, 8, 34, 119, 193, 195, 120, 120, 195, 1, 2.57076
230, 6, wb, attraction, a-b-db, 2, 3, 8, 34, 119, 193, 195, 120, 120, 195, 3, 0.233874
230, 6, wb, attraction, a-b-db, 5, 2, 8, 35, 88, 161, 90, 165, 165, 90, 1, 0.958404
230, 6, wb, attraction, a-b-db, 5, 2, 8, 35, 88, 161, 90, 165, 165, 90, 3, 0.430815
230, 6, wb, filler, NA, 999, 999, 8, 36, 71, 96, 88, 126, 73, 185, 1, 0.907241
230, 6, wb, filler, NA, 999, 999, 8, 36, 71, 96, 88, 126, 73, 185, 2, 0.533482
230, 6, wb, attraction, a-b-da, 14, 1, 8, 37, 125, 56, 60, 135, 135, 60, 1, 3.46209
230, 6, wb, attraction, a-b-da, 14, 1, 8, 37, 125, 56, 60, 135, 135, 60, 3, 0.817557
