sub_n, computer_n, bw_cond, effect, set, distance, diag, block_n, trial_n, h1, w1, h2, w2, h3, w3, choice, rt 
215, 6, bw, practice, NA, 999, 999, 0, 1, 98, 136, 152, 130, 149, 191, 3, 3.49146
215, 6, bw, practice, NA, 999, 999, 0, 1, 98, 136, 152, 130, 149, 191, 1, 5.12529
215, 6, bw, practice, NA, 999, 999, 0, 2, 183, 78, 67, 165, 105, 188, 3, 5.8594
215, 6, bw, practice, NA, 999, 999, 0, 2, 183, 78, 67, 165, 105, 188, 2, 1.94168
215, 6, bw, practice, NA, 999, 999, 0, 3, 97, 90, 103, 69, 60, 148, 3, 24.0202
215, 6, bw, practice, NA, 999, 999, 0, 3, 97, 90, 103, 69, 60, 148, 2, 3.4355
215, 6, bw, filler, NA, 999, 999, 1, 1, 73, 83, 92, 142, 169, 60, 2, 4.02984
215, 6, bw, filler, NA, 999, 999, 1, 1, 73, 83, 92, 142, 169, 60, 1, 1.69062
215, 6, bw, attraction, a-b-db, 2, 3, 1, 2, 119, 193, 195, 120, 120, 195, 3, 14.3559
215, 6, bw, attraction, a-b-db, 2, 3, 1, 2, 119, 193, 195, 120, 120, 195, 2, 11.1608
215, 6, bw, filler, NA, 999, 999, 1, 3, 125, 176, 130, 86, 140, 186, 3, 1.90052
215, 6, bw, filler, NA, 999, 999, 1, 3, 125, 176, 130, 86, 140, 186, 2, 1.1993
215, 6, bw, attraction, a-b-da, 14, 3, 1, 4, 120, 195, 195, 120, 181, 111, 2, 4.54886
215, 6, bw, attraction, a-b-da, 14, 3, 1, 4, 120, 195, 195, 120, 181, 111, 3, 1.92479
215, 6, bw, attraction, a-b-da, 9, 1, 1, 5, 129, 57, 60, 135, 135, 60, 2, 6.06873
215, 6, bw, attraction, a-b-da, 9, 1, 1, 5, 129, 57, 60, 135, 135, 60, 1, 1.67946
215, 6, bw, attraction, a-b-da, 2, 3, 1, 6, 193, 119, 195, 120, 120, 195, 1, 29.9458
215, 6, bw, attraction, a-b-da, 2, 3, 1, 6, 193, 119, 195, 120, 120, 195, 2, 2.05828
215, 6, bw, attraction, a-b-db, 2, 2, 1, 7, 89, 163, 90, 165, 165, 90, 2, 3.83675
215, 6, bw, attraction, a-b-db, 2, 2, 1, 7, 89, 163, 90, 165, 165, 90, 3, 1.14551
215, 6, bw, attraction, a-b-db, 14, 3, 1, 8, 120, 195, 195, 120, 111, 181, 1, 2.96115
215, 6, bw, attraction, a-b-db, 14, 3, 1, 8, 120, 195, 195, 120, 111, 181, 3, 0.696876
215, 6, bw, attraction, a-b-da, 9, 3, 1, 9, 195, 120, 120, 195, 186, 114, 2, 6.45071
215, 6, bw, attraction, a-b-da, 9, 3, 1, 9, 195, 120, 120, 195, 186, 114, 1, 1.43778
215, 6, bw, attraction, a-b-db, 9, 1, 1, 10, 135, 60, 57, 129, 60, 135, 1, 2.41808
215, 6, bw, attraction, a-b-db, 9, 1, 1, 10, 135, 60, 57, 129, 60, 135, 3, 4.98408
215, 6, bw, attraction, a-b-da, 2, 2, 1, 11, 163, 89, 165, 90, 90, 165, 3, 9.25298
215, 6, bw, attraction, a-b-da, 2, 2, 1, 11, 163, 89, 165, 90, 90, 165, 2, 0.89551
215, 6, bw, filler, NA, 999, 999, 1, 12, 61, 191, 176, 104, 156, 89, 2, 22.857
215, 6, bw, filler, NA, 999, 999, 1, 12, 61, 191, 176, 104, 156, 89, 3, 0.975216
215, 6, bw, catch, NA, 999, 999, 1, 13, 183, 132, 151, 104, 131, 64, 1, 2.6855
215, 6, bw, catch, NA, 999, 999, 1, 13, 183, 132, 151, 104, 131, 64, 3, 1.13676
215, 6, bw, attraction, a-b-da, 2, 1, 1, 14, 135, 60, 60, 135, 134, 59, 2, 3.60105
215, 6, bw, attraction, a-b-da, 2, 1, 1, 14, 135, 60, 60, 135, 134, 59, 1, 0.695085
215, 6, bw, attraction, a-b-db, 9, 2, 1, 15, 165, 90, 90, 165, 86, 157, 2, 2.39284
215, 6, bw, attraction, a-b-db, 9, 2, 1, 15, 165, 90, 90, 165, 86, 157, 3, 0.431353
215, 6, bw, attraction, a-b-db, 9, 3, 1, 16, 195, 120, 114, 186, 120, 195, 1, 4.21996
215, 6, bw, attraction, a-b-db, 9, 3, 1, 16, 195, 120, 114, 186, 120, 195, 2, 1.0172
215, 6, bw, filler, NA, 999, 999, 1, 17, 95, 115, 107, 146, 191, 184, 3, 1.00608
215, 6, bw, filler, NA, 999, 999, 1, 17, 95, 115, 107, 146, 191, 184, 1, 0.860422
215, 6, bw, attraction, a-b-da, 5, 3, 1, 18, 195, 120, 190, 117, 120, 195, 3, 6.15145
215, 6, bw, attraction, a-b-da, 5, 3, 1, 18, 195, 120, 190, 117, 120, 195, 2, 0.654875
215, 6, bw, filler, NA, 999, 999, 1, 19, 119, 174, 73, 139, 108, 110, 1, 1.29061
215, 6, bw, filler, NA, 999, 999, 1, 19, 119, 174, 73, 139, 108, 110, 2, 2.86157
215, 6, bw, attraction, a-b-db, 5, 1, 1, 20, 135, 60, 60, 135, 58, 132, 2, 1.81591
215, 6, bw, attraction, a-b-db, 5, 1, 1, 20, 135, 60, 60, 135, 58, 132, 1, 1.08592
215, 6, bw, filler, NA, 999, 999, 1, 21, 99, 113, 191, 60, 72, 71, 2, 2.8802
215, 6, bw, filler, NA, 999, 999, 1, 21, 99, 113, 191, 60, 72, 71, 3, 1.93922
215, 6, bw, attraction, a-b-da, 9, 2, 1, 22, 165, 90, 157, 86, 90, 165, 1, 6.02733
215, 6, bw, attraction, a-b-da, 9, 2, 1, 22, 165, 90, 157, 86, 90, 165, 2, 1.44732
215, 6, bw, attraction, a-b-da, 14, 2, 1, 23, 90, 165, 153, 83, 165, 90, 1, 2.20284
215, 6, bw, attraction, a-b-da, 14, 2, 1, 23, 90, 165, 153, 83, 165, 90, 2, 1.68169
215, 6, bw, attraction, a-b-db, 2, 1, 1, 24, 135, 60, 60, 135, 59, 134, 3, 3.0756
215, 6, bw, attraction, a-b-db, 2, 1, 1, 24, 135, 60, 60, 135, 59, 134, 1, 1.35863
215, 6, bw, attraction, a-b-da, 5, 1, 1, 25, 60, 135, 132, 58, 135, 60, 3, 2.89356
215, 6, bw, attraction, a-b-da, 5, 1, 1, 25, 60, 135, 132, 58, 135, 60, 2, 1.3358
215, 6, bw, attraction, a-b-db, 5, 2, 1, 26, 165, 90, 88, 161, 90, 165, 3, 4.42399
215, 6, bw, attraction, a-b-db, 5, 2, 1, 26, 165, 90, 88, 161, 90, 165, 1, 0.772616
215, 6, bw, filler, NA, 999, 999, 1, 27, 135, 71, 75, 103, 171, 73, 3, 1.52364
215, 6, bw, filler, NA, 999, 999, 1, 27, 135, 71, 75, 103, 171, 73, 2, 2.26915
215, 6, bw, attraction, a-b-db, 14, 2, 1, 28, 83, 153, 90, 165, 165, 90, 2, 4.79967
215, 6, bw, attraction, a-b-db, 14, 2, 1, 28, 83, 153, 90, 165, 165, 90, 1, 0.893496
215, 6, bw, filler, NA, 999, 999, 1, 29, 91, 100, 178, 123, 87, 84, 2, 1.10321
215, 6, bw, filler, NA, 999, 999, 1, 29, 91, 100, 178, 123, 87, 84, 3, 1.03422
215, 6, bw, catch, NA, 999, 999, 1, 30, 121, 194, 83, 112, 145, 110, 1, 1.61444
215, 6, bw, catch, NA, 999, 999, 1, 30, 121, 194, 83, 112, 145, 110, 2, 0.59656
215, 6, bw, filler, NA, 999, 999, 1, 31, 61, 101, 117, 117, 104, 124, 2, 2.65835
215, 6, bw, filler, NA, 999, 999, 1, 31, 61, 101, 117, 117, 104, 124, 1, 0.622154
215, 6, bw, attraction, a-b-db, 14, 1, 1, 32, 56, 125, 60, 135, 135, 60, 2, 1.93125
215, 6, bw, attraction, a-b-db, 14, 1, 1, 32, 56, 125, 60, 135, 135, 60, 1, 0.756629
215, 6, bw, catch, NA, 999, 999, 1, 33, 157, 158, 144, 111, 74, 121, 1, 1.20362
215, 6, bw, catch, NA, 999, 999, 1, 33, 157, 158, 144, 111, 74, 121, 3, 1.05789
215, 6, bw, attraction, a-b-da, 5, 2, 1, 34, 90, 165, 161, 88, 165, 90, 1, 1.57288
215, 6, bw, attraction, a-b-da, 5, 2, 1, 34, 90, 165, 161, 88, 165, 90, 3, 1.25234
215, 6, bw, attraction, a-b-db, 5, 3, 1, 35, 120, 195, 195, 120, 117, 190, 1, 7.48787
215, 6, bw, attraction, a-b-db, 5, 3, 1, 35, 120, 195, 195, 120, 117, 190, 2, 1.38545
215, 6, bw, filler, NA, 999, 999, 1, 36, 100, 56, 100, 142, 95, 64, 2, 1.45561
215, 6, bw, filler, NA, 999, 999, 1, 36, 100, 56, 100, 142, 95, 64, 1, 0.683798
215, 6, bw, attraction, a-b-da, 14, 1, 1, 37, 135, 60, 125, 56, 60, 135, 3, 2.51824
215, 6, bw, attraction, a-b-da, 14, 1, 1, 37, 135, 60, 125, 56, 60, 135, 2, 0.976066
215, 6, bw, attraction, a-b-da, 14, 1, 2, 1, 135, 60, 125, 56, 60, 135, 1, 1.87042
215, 6, bw, attraction, a-b-da, 14, 1, 2, 1, 135, 60, 125, 56, 60, 135, 2, 1.64977
215, 6, bw, attraction, a-b-db, 2, 2, 2, 2, 89, 163, 165, 90, 90, 165, 3, 8.48533
215, 6, bw, attraction, a-b-db, 2, 2, 2, 2, 89, 163, 165, 90, 90, 165, 2, 1.05459
215, 6, bw, filler, NA, 999, 999, 2, 3, 73, 166, 136, 89, 175, 162, 3, 0.706124
215, 6, bw, filler, NA, 999, 999, 2, 3, 73, 166, 136, 89, 175, 162, 2, 2.58862
215, 6, bw, attraction, a-b-da, 5, 3, 2, 4, 190, 117, 195, 120, 120, 195, 3, 4.28236
215, 6, bw, attraction, a-b-da, 5, 3, 2, 4, 190, 117, 195, 120, 120, 195, 2, 2.83703
215, 6, bw, filler, NA, 999, 999, 2, 5, 145, 83, 140, 97, 178, 153, 3, 1.36074
215, 6, bw, filler, NA, 999, 999, 2, 5, 145, 83, 140, 97, 178, 153, 1, 0.833048
215, 6, bw, attraction, a-b-db, 9, 2, 2, 6, 165, 90, 90, 165, 86, 157, 2, 3.3253
215, 6, bw, attraction, a-b-db, 9, 2, 2, 6, 165, 90, 90, 165, 86, 157, 3, 0.79023
215, 6, bw, attraction, a-b-db, 14, 3, 2, 7, 120, 195, 195, 120, 111, 181, 2, 2.83589
215, 6, bw, attraction, a-b-db, 14, 3, 2, 7, 120, 195, 195, 120, 111, 181, 1, 0.969162
215, 6, bw, attraction, a-b-da, 14, 2, 2, 8, 165, 90, 90, 165, 153, 83, 2, 1.512
215, 6, bw, attraction, a-b-da, 14, 2, 2, 8, 165, 90, 90, 165, 153, 83, 3, 1.03416
215, 6, bw, attraction, a-b-db, 2, 1, 2, 9, 135, 60, 60, 135, 59, 134, 3, 3.58247
215, 6, bw, attraction, a-b-db, 2, 1, 2, 9, 135, 60, 60, 135, 59, 134, 1, 0.941239
215, 6, bw, attraction, a-b-db, 9, 1, 2, 10, 57, 129, 135, 60, 60, 135, 3, 3.44492
215, 6, bw, attraction, a-b-db, 9, 1, 2, 10, 57, 129, 135, 60, 60, 135, 1, 1.59317
215, 6, bw, attraction, a-b-da, 2, 1, 2, 11, 60, 135, 134, 59, 135, 60, 3, 1.75066
215, 6, bw, attraction, a-b-da, 2, 1, 2, 11, 60, 135, 134, 59, 135, 60, 1, 1.14336
215, 6, bw, attraction, a-b-db, 5, 2, 2, 12, 90, 165, 88, 161, 165, 90, 3, 6.22297
215, 6, bw, attraction, a-b-db, 5, 2, 2, 12, 90, 165, 88, 161, 165, 90, 1, 1.08293
215, 6, bw, filler, NA, 999, 999, 2, 13, 166, 71, 70, 136, 80, 115, 1, 2.95726
215, 6, bw, filler, NA, 999, 999, 2, 13, 166, 71, 70, 136, 80, 115, 3, 1.37289
215, 6, bw, attraction, a-b-db, 5, 1, 2, 14, 60, 135, 58, 132, 135, 60, 3, 4.86724
215, 6, bw, attraction, a-b-db, 5, 1, 2, 14, 60, 135, 58, 132, 135, 60, 2, 1.0943
215, 6, bw, attraction, a-b-db, 2, 3, 2, 15, 195, 120, 120, 195, 119, 193, 2, 1.40791
215, 6, bw, attraction, a-b-db, 2, 3, 2, 15, 195, 120, 120, 195, 119, 193, 1, 0.926074
215, 6, bw, filler, NA, 999, 999, 2, 16, 70, 132, 193, 127, 77, 192, 2, 0.758391
215, 6, bw, filler, NA, 999, 999, 2, 16, 70, 132, 193, 127, 77, 192, 1, 0.81474
215, 6, bw, attraction, a-b-da, 5, 2, 2, 17, 165, 90, 161, 88, 90, 165, 3, 3.41189
215, 6, bw, attraction, a-b-da, 5, 2, 2, 17, 165, 90, 161, 88, 90, 165, 1, 0.985515
215, 6, bw, attraction, a-b-da, 5, 1, 2, 18, 60, 135, 132, 58, 135, 60, 1, 4.57569
215, 6, bw, attraction, a-b-da, 5, 1, 2, 18, 60, 135, 132, 58, 135, 60, 3, 1.1102
215, 6, bw, attraction, a-b-da, 9, 3, 2, 19, 195, 120, 120, 195, 186, 114, 2, 1.71918
215, 6, bw, attraction, a-b-da, 9, 3, 2, 19, 195, 120, 120, 195, 186, 114, 1, 4.05724
215, 6, bw, filler, NA, 999, 999, 2, 20, 172, 109, 77, 125, 65, 191, 1, 2.63605
215, 6, bw, filler, NA, 999, 999, 2, 20, 172, 109, 77, 125, 65, 191, 2, 1.13713
215, 6, bw, attraction, a-b-da, 9, 1, 2, 21, 135, 60, 60, 135, 129, 57, 2, 3.72149
215, 6, bw, attraction, a-b-da, 9, 1, 2, 21, 135, 60, 60, 135, 129, 57, 1, 0.842105
215, 6, bw, filler, NA, 999, 999, 2, 22, 120, 95, 125, 146, 134, 146, 3, 1.26185
215, 6, bw, filler, NA, 999, 999, 2, 22, 120, 95, 125, 146, 134, 146, 1, 0.722071
215, 6, bw, catch, NA, 999, 999, 2, 23, 161, 94, 170, 145, 116, 79, 2, 1.50708
215, 6, bw, catch, NA, 999, 999, 2, 23, 161, 94, 170, 145, 116, 79, 3, 0.637285
215, 6, bw, attraction, a-b-db, 14, 1, 2, 24, 135, 60, 60, 135, 56, 125, 2, 2.14576
215, 6, bw, attraction, a-b-db, 14, 1, 2, 24, 135, 60, 60, 135, 56, 125, 3, 0.530379
215, 6, bw, attraction, a-b-da, 9, 2, 2, 25, 90, 165, 165, 90, 157, 86, 1, 2.44284
215, 6, bw, attraction, a-b-da, 9, 2, 2, 25, 90, 165, 165, 90, 157, 86, 3, 0.943381
215, 6, bw, filler, NA, 999, 999, 2, 26, 112, 85, 122, 60, 138, 108, 3, 0.934967
215, 6, bw, filler, NA, 999, 999, 2, 26, 112, 85, 122, 60, 138, 108, 2, 1.12068
215, 6, bw, catch, NA, 999, 999, 2, 27, 122, 73, 137, 178, 162, 93, 2, 0.961595
215, 6, bw, catch, NA, 999, 999, 2, 27, 122, 73, 137, 178, 162, 93, 1, 0.969949
215, 6, bw, filler, NA, 999, 999, 2, 28, 189, 122, 165, 117, 66, 181, 1, 3.40895
215, 6, bw, filler, NA, 999, 999, 2, 28, 189, 122, 165, 117, 66, 181, 3, 1.14249
215, 6, bw, attraction, a-b-da, 2, 2, 2, 29, 163, 89, 165, 90, 90, 165, 3, 6.50201
215, 6, bw, attraction, a-b-da, 2, 2, 2, 29, 163, 89, 165, 90, 90, 165, 1, 0.735223
215, 6, bw, attraction, a-b-db, 5, 3, 2, 30, 195, 120, 117, 190, 120, 195, 1, 2.88772
215, 6, bw, attraction, a-b-db, 5, 3, 2, 30, 195, 120, 117, 190, 120, 195, 2, 0.538729
215, 6, bw, attraction, a-b-db, 14, 2, 2, 31, 83, 153, 90, 165, 165, 90, 3, 4.1552
215, 6, bw, attraction, a-b-db, 14, 2, 2, 31, 83, 153, 90, 165, 165, 90, 2, 1.25054
215, 6, bw, attraction, a-b-da, 2, 3, 2, 32, 195, 120, 120, 195, 193, 119, 1, 8.43812
215, 6, bw, attraction, a-b-da, 2, 3, 2, 32, 195, 120, 120, 195, 193, 119, 3, 1.2574
215, 6, bw, catch, NA, 999, 999, 2, 33, 120, 135, 139, 176, 63, 132, 2, 1.01237
215, 6, bw, catch, NA, 999, 999, 2, 33, 120, 135, 139, 176, 63, 132, 3, 0.770701
215, 6, bw, attraction, a-b-db, 9, 3, 2, 34, 120, 195, 114, 186, 195, 120, 3, 14.1137
215, 6, bw, attraction, a-b-db, 9, 3, 2, 34, 120, 195, 114, 186, 195, 120, 2, 0.767894
215, 6, bw, attraction, a-b-da, 14, 3, 2, 35, 181, 111, 120, 195, 195, 120, 2, 2.71094
215, 6, bw, attraction, a-b-da, 14, 3, 2, 35, 181, 111, 120, 195, 195, 120, 1, 0.776747
215, 6, bw, filler, NA, 999, 999, 2, 36, 86, 140, 94, 144, 183, 151, 3, 1.30311
215, 6, bw, filler, NA, 999, 999, 2, 36, 86, 140, 94, 144, 183, 151, 1, 0.978018
215, 6, bw, filler, NA, 999, 999, 2, 37, 89, 152, 186, 120, 80, 178, 2, 4.25627
215, 6, bw, filler, NA, 999, 999, 2, 37, 89, 152, 186, 120, 80, 178, 1, 2.52357
215, 6, bw, filler, NA, 999, 999, 3, 1, 96, 72, 181, 67, 56, 138, 2, 6.34736
215, 6, bw, filler, NA, 999, 999, 3, 1, 96, 72, 181, 67, 56, 138, 1, 0.834723
215, 6, bw, filler, NA, 999, 999, 3, 2, 84, 86, 61, 107, 79, 146, 1, 3.85513
215, 6, bw, filler, NA, 999, 999, 3, 2, 84, 86, 61, 107, 79, 146, 2, 0.570519
215, 6, bw, attraction, a-b-db, 9, 1, 3, 3, 135, 60, 57, 129, 60, 135, 3, 1.7296
215, 6, bw, attraction, a-b-db, 9, 1, 3, 3, 135, 60, 57, 129, 60, 135, 2, 0.907052
215, 6, bw, catch, NA, 999, 999, 3, 4, 166, 149, 93, 102, 146, 109, 1, 0.867966
215, 6, bw, catch, NA, 999, 999, 3, 4, 166, 149, 93, 102, 146, 109, 2, 0.960432
215, 6, bw, attraction, a-b-db, 14, 3, 3, 5, 195, 120, 111, 181, 120, 195, 1, 8.1674
215, 6, bw, attraction, a-b-db, 14, 3, 3, 5, 195, 120, 111, 181, 120, 195, 2, 1.8775
215, 6, bw, attraction, a-b-da, 5, 2, 3, 6, 161, 88, 90, 165, 165, 90, 1, 2.17556
215, 6, bw, attraction, a-b-da, 5, 2, 3, 6, 161, 88, 90, 165, 165, 90, 2, 0.670799
215, 6, bw, attraction, a-b-db, 2, 3, 3, 7, 119, 193, 195, 120, 120, 195, 3, 1.3539
215, 6, bw, attraction, a-b-db, 2, 3, 3, 7, 119, 193, 195, 120, 120, 195, 2, 1.07472
215, 6, bw, filler, NA, 999, 999, 3, 8, 181, 181, 182, 147, 80, 103, 1, 1.22105
215, 6, bw, filler, NA, 999, 999, 3, 8, 181, 181, 182, 147, 80, 103, 3, 0.794616
215, 6, bw, attraction, a-b-da, 9, 2, 3, 9, 165, 90, 90, 165, 157, 86, 2, 1.34443
215, 6, bw, attraction, a-b-da, 9, 2, 3, 9, 165, 90, 90, 165, 157, 86, 3, 1.44121
215, 6, bw, attraction, a-b-da, 2, 3, 3, 10, 195, 120, 120, 195, 193, 119, 2, 1.72475
215, 6, bw, attraction, a-b-da, 2, 3, 3, 10, 195, 120, 120, 195, 193, 119, 3, 2.26228
215, 6, bw, attraction, a-b-da, 2, 1, 3, 11, 135, 60, 134, 59, 60, 135, 3, 2.76868
215, 6, bw, attraction, a-b-da, 2, 1, 3, 11, 135, 60, 134, 59, 60, 135, 2, 1.11255
215, 6, bw, attraction, a-b-da, 14, 3, 3, 12, 195, 120, 120, 195, 181, 111, 2, 4.77739
215, 6, bw, attraction, a-b-da, 14, 3, 3, 12, 195, 120, 120, 195, 181, 111, 3, 1.07202
215, 6, bw, attraction, a-b-db, 5, 2, 3, 13, 165, 90, 88, 161, 90, 165, 3, 3.2828
215, 6, bw, attraction, a-b-db, 5, 2, 3, 13, 165, 90, 88, 161, 90, 165, 2, 1.00569
215, 6, bw, attraction, a-b-da, 2, 2, 3, 14, 90, 165, 163, 89, 165, 90, 1, 1.5634
215, 6, bw, attraction, a-b-da, 2, 2, 3, 14, 90, 165, 163, 89, 165, 90, 3, 0.955539
215, 6, bw, filler, NA, 999, 999, 3, 15, 118, 155, 156, 75, 124, 151, 3, 3.37112
215, 6, bw, filler, NA, 999, 999, 3, 15, 118, 155, 156, 75, 124, 151, 2, 0.626081
215, 6, bw, catch, NA, 999, 999, 3, 16, 146, 169, 129, 66, 109, 146, 1, 0.790573
215, 6, bw, catch, NA, 999, 999, 3, 16, 146, 169, 129, 66, 109, 146, 2, 0.749686
215, 6, bw, attraction, a-b-db, 14, 1, 3, 17, 60, 135, 56, 125, 135, 60, 1, 3.14936
215, 6, bw, attraction, a-b-db, 14, 1, 3, 17, 60, 135, 56, 125, 135, 60, 3, 1.54161
215, 6, bw, attraction, a-b-db, 2, 1, 3, 18, 59, 134, 135, 60, 60, 135, 1, 2.88512
215, 6, bw, attraction, a-b-db, 2, 1, 3, 18, 59, 134, 135, 60, 60, 135, 2, 0.896344
215, 6, bw, attraction, a-b-da, 5, 1, 3, 19, 60, 135, 135, 60, 132, 58, 2, 2.5698
215, 6, bw, attraction, a-b-da, 5, 1, 3, 19, 60, 135, 135, 60, 132, 58, 3, 2.52164
215, 6, bw, filler, NA, 999, 999, 3, 20, 149, 162, 175, 132, 143, 156, 1, 7.02613
215, 6, bw, filler, NA, 999, 999, 3, 20, 149, 162, 175, 132, 143, 156, 3, 1.01383
215, 6, bw, filler, NA, 999, 999, 3, 21, 84, 109, 153, 110, 137, 114, 2, 2.55489
215, 6, bw, filler, NA, 999, 999, 3, 21, 84, 109, 153, 110, 137, 114, 1, 0.618788
215, 6, bw, attraction, a-b-db, 14, 2, 3, 22, 90, 165, 83, 153, 165, 90, 1, 1.83177
215, 6, bw, attraction, a-b-db, 14, 2, 3, 22, 90, 165, 83, 153, 165, 90, 2, 1.14118
215, 6, bw, filler, NA, 999, 999, 3, 23, 94, 113, 141, 120, 184, 111, 3, 2.23688
215, 6, bw, filler, NA, 999, 999, 3, 23, 94, 113, 141, 120, 184, 111, 1, 0.522033
215, 6, bw, attraction, a-b-db, 9, 3, 3, 24, 120, 195, 114, 186, 195, 120, 1, 3.05116
215, 6, bw, attraction, a-b-db, 9, 3, 3, 24, 120, 195, 114, 186, 195, 120, 3, 0.61555
215, 6, bw, catch, NA, 999, 999, 3, 25, 115, 140, 186, 129, 86, 109, 2, 2.14861
215, 6, bw, catch, NA, 999, 999, 3, 25, 115, 140, 186, 129, 86, 109, 3, 0.589214
215, 6, bw, attraction, a-b-da, 9, 3, 3, 26, 186, 114, 195, 120, 120, 195, 3, 2.84372
215, 6, bw, attraction, a-b-da, 9, 3, 3, 26, 186, 114, 195, 120, 120, 195, 2, 1.08808
215, 6, bw, attraction, a-b-db, 9, 2, 3, 27, 90, 165, 165, 90, 86, 157, 3, 2.30635
215, 6, bw, attraction, a-b-db, 9, 2, 3, 27, 90, 165, 165, 90, 86, 157, 1, 0.62029
215, 6, bw, attraction, a-b-db, 5, 1, 3, 28, 135, 60, 60, 135, 58, 132, 2, 1.23336
215, 6, bw, attraction, a-b-db, 5, 1, 3, 28, 135, 60, 60, 135, 58, 132, 1, 1.13497
215, 6, bw, attraction, a-b-da, 14, 2, 3, 29, 153, 83, 165, 90, 90, 165, 3, 1.47919
215, 6, bw, attraction, a-b-da, 14, 2, 3, 29, 153, 83, 165, 90, 90, 165, 1, 0.914739
215, 6, bw, filler, NA, 999, 999, 3, 30, 183, 101, 155, 138, 179, 110, 2, 6.55569
215, 6, bw, filler, NA, 999, 999, 3, 30, 183, 101, 155, 138, 179, 110, 1, 3.03422
215, 6, bw, filler, NA, 999, 999, 3, 31, 152, 120, 84, 97, 177, 186, 3, 0.861964
215, 6, bw, filler, NA, 999, 999, 3, 31, 152, 120, 84, 97, 177, 186, 2, 1.21039
215, 6, bw, attraction, a-b-da, 9, 1, 3, 32, 135, 60, 129, 57, 60, 135, 1, 3.3353
215, 6, bw, attraction, a-b-da, 9, 1, 3, 32, 135, 60, 129, 57, 60, 135, 2, 0.912133
215, 6, bw, attraction, a-b-db, 2, 2, 3, 33, 90, 165, 165, 90, 89, 163, 3, 4.19309
215, 6, bw, attraction, a-b-db, 2, 2, 3, 33, 90, 165, 165, 90, 89, 163, 2, 0.967078
215, 6, bw, attraction, a-b-da, 14, 1, 3, 34, 125, 56, 60, 135, 135, 60, 2, 1.25408
215, 6, bw, attraction, a-b-da, 14, 1, 3, 34, 125, 56, 60, 135, 135, 60, 1, 0.586249
215, 6, bw, attraction, a-b-da, 5, 3, 3, 35, 195, 120, 190, 117, 120, 195, 3, 2.92871
215, 6, bw, attraction, a-b-da, 5, 3, 3, 35, 195, 120, 190, 117, 120, 195, 2, 1.0978
215, 6, bw, filler, NA, 999, 999, 3, 36, 146, 101, 123, 130, 137, 63, 2, 1.53943
215, 6, bw, filler, NA, 999, 999, 3, 36, 146, 101, 123, 130, 137, 63, 3, 3.61228
215, 6, bw, attraction, a-b-db, 5, 3, 3, 37, 120, 195, 117, 190, 195, 120, 3, 1.92838
215, 6, bw, attraction, a-b-db, 5, 3, 3, 37, 120, 195, 117, 190, 195, 120, 2, 1.04171
215, 6, bw, attraction, a-b-db, 14, 3, 4, 1, 120, 195, 111, 181, 195, 120, 1, 1.85337
215, 6, bw, attraction, a-b-db, 14, 3, 4, 1, 120, 195, 111, 181, 195, 120, 2, 1.06612
215, 6, bw, attraction, a-b-da, 5, 3, 4, 2, 120, 195, 190, 117, 195, 120, 1, 2.74921
215, 6, bw, attraction, a-b-da, 5, 3, 4, 2, 120, 195, 190, 117, 195, 120, 2, 1.02144
215, 6, bw, attraction, a-b-db, 2, 1, 4, 3, 59, 134, 135, 60, 60, 135, 3, 2.42656
215, 6, bw, attraction, a-b-db, 2, 1, 4, 3, 59, 134, 135, 60, 60, 135, 2, 0.95977
215, 6, bw, attraction, a-b-db, 9, 1, 4, 4, 60, 135, 57, 129, 135, 60, 3, 2.93463
215, 6, bw, attraction, a-b-db, 9, 1, 4, 4, 60, 135, 57, 129, 135, 60, 2, 1.12783
215, 6, bw, attraction, a-b-da, 9, 3, 4, 5, 195, 120, 186, 114, 120, 195, 3, 3.31188
215, 6, bw, attraction, a-b-da, 9, 3, 4, 5, 195, 120, 186, 114, 120, 195, 2, 1.28949
215, 6, bw, attraction, a-b-da, 5, 2, 4, 6, 161, 88, 165, 90, 90, 165, 2, 4.21174
215, 6, bw, attraction, a-b-da, 5, 2, 4, 6, 161, 88, 165, 90, 90, 165, 1, 2.21705
215, 6, bw, filler, NA, 999, 999, 4, 7, 89, 103, 134, 63, 167, 113, 3, 3.03768
215, 6, bw, filler, NA, 999, 999, 4, 7, 89, 103, 134, 63, 167, 113, 1, 5.44272
215, 6, bw, attraction, a-b-db, 14, 1, 4, 8, 60, 135, 56, 125, 135, 60, 1, 3.38092
215, 6, bw, attraction, a-b-db, 14, 1, 4, 8, 60, 135, 56, 125, 135, 60, 2, 1.33982
215, 6, bw, attraction, a-b-da, 2, 1, 4, 9, 134, 59, 60, 135, 135, 60, 2, 2.40336
215, 6, bw, attraction, a-b-da, 2, 1, 4, 9, 134, 59, 60, 135, 135, 60, 1, 1.86595
215, 6, bw, filler, NA, 999, 999, 4, 10, 102, 188, 104, 102, 138, 114, 1, 1.93263
215, 6, bw, filler, NA, 999, 999, 4, 10, 102, 188, 104, 102, 138, 114, 2, 0.581922
215, 6, bw, catch, NA, 999, 999, 4, 11, 133, 122, 127, 68, 128, 187, 3, 2.15646
215, 6, bw, catch, NA, 999, 999, 4, 11, 133, 122, 127, 68, 128, 187, 2, 1.3004
215, 6, bw, filler, NA, 999, 999, 4, 12, 88, 171, 144, 100, 172, 94, 2, 5.74189
215, 6, bw, filler, NA, 999, 999, 4, 12, 88, 171, 144, 100, 172, 94, 1, 0.877414
215, 6, bw, attraction, a-b-da, 14, 1, 4, 13, 135, 60, 60, 135, 125, 56, 2, 1.1839
215, 6, bw, attraction, a-b-da, 14, 1, 4, 13, 135, 60, 60, 135, 125, 56, 3, 1.43137
215, 6, bw, filler, NA, 999, 999, 4, 14, 165, 161, 187, 148, 195, 141, 3, 11.4436
215, 6, bw, filler, NA, 999, 999, 4, 14, 165, 161, 187, 148, 195, 141, 1, 1.05324
215, 6, bw, attraction, a-b-db, 2, 2, 4, 15, 90, 165, 89, 163, 165, 90, 2, 2.33691
215, 6, bw, attraction, a-b-db, 2, 2, 4, 15, 90, 165, 89, 163, 165, 90, 3, 0.954144
215, 6, bw, attraction, a-b-db, 5, 2, 4, 16, 165, 90, 90, 165, 88, 161, 1, 2.77781
215, 6, bw, attraction, a-b-db, 5, 2, 4, 16, 165, 90, 90, 165, 88, 161, 3, 0.936899
215, 6, bw, attraction, a-b-db, 5, 1, 4, 17, 135, 60, 60, 135, 58, 132, 1, 4.42514
215, 6, bw, attraction, a-b-db, 5, 1, 4, 17, 135, 60, 60, 135, 58, 132, 3, 0.94971
215, 6, bw, attraction, a-b-da, 2, 2, 4, 18, 90, 165, 163, 89, 165, 90, 2, 1.9974
215, 6, bw, attraction, a-b-da, 2, 2, 4, 18, 90, 165, 163, 89, 165, 90, 1, 0.556059
215, 6, bw, filler, NA, 999, 999, 4, 19, 129, 152, 123, 108, 166, 179, 3, 0.875927
215, 6, bw, filler, NA, 999, 999, 4, 19, 129, 152, 123, 108, 166, 179, 2, 2.15179
215, 6, bw, attraction, a-b-db, 14, 2, 4, 20, 83, 153, 90, 165, 165, 90, 2, 1.83089
215, 6, bw, attraction, a-b-db, 14, 2, 4, 20, 83, 153, 90, 165, 165, 90, 1, 2.03622
215, 6, bw, filler, NA, 999, 999, 4, 21, 184, 132, 130, 167, 99, 64, 1, 0.880159
215, 6, bw, filler, NA, 999, 999, 4, 21, 184, 132, 130, 167, 99, 64, 3, 0.739962
215, 6, bw, filler, NA, 999, 999, 4, 22, 172, 149, 79, 162, 83, 109, 1, 0.867612
215, 6, bw, filler, NA, 999, 999, 4, 22, 172, 149, 79, 162, 83, 109, 3, 1.08011
215, 6, bw, attraction, a-b-da, 2, 3, 4, 23, 195, 120, 120, 195, 193, 119, 2, 2.49038
215, 6, bw, attraction, a-b-da, 2, 3, 4, 23, 195, 120, 120, 195, 193, 119, 3, 0.708814
215, 6, bw, attraction, a-b-da, 14, 3, 4, 24, 120, 195, 181, 111, 195, 120, 3, 4.16586
215, 6, bw, attraction, a-b-da, 14, 3, 4, 24, 120, 195, 181, 111, 195, 120, 2, 0.661184
215, 6, bw, attraction, a-b-db, 5, 3, 4, 25, 117, 190, 195, 120, 120, 195, 3, 1.75222
215, 6, bw, attraction, a-b-db, 5, 3, 4, 25, 117, 190, 195, 120, 120, 195, 1, 0.992976
215, 6, bw, attraction, a-b-da, 5, 1, 4, 26, 132, 58, 60, 135, 135, 60, 2, 1.51866
215, 6, bw, attraction, a-b-da, 5, 1, 4, 26, 132, 58, 60, 135, 135, 60, 3, 0.728798
215, 6, bw, filler, NA, 999, 999, 4, 27, 66, 130, 184, 164, 61, 92, 2, 0.713174
215, 6, bw, filler, NA, 999, 999, 4, 27, 66, 130, 184, 164, 61, 92, 3, 0.939614
215, 6, bw, attraction, a-b-da, 14, 2, 4, 28, 153, 83, 165, 90, 90, 165, 2, 1.53926
215, 6, bw, attraction, a-b-da, 14, 2, 4, 28, 153, 83, 165, 90, 90, 165, 1, 1.02823
215, 6, bw, attraction, a-b-db, 9, 3, 4, 29, 195, 120, 114, 186, 120, 195, 3, 1.72829
215, 6, bw, attraction, a-b-db, 9, 3, 4, 29, 195, 120, 114, 186, 120, 195, 2, 0.673776
215, 6, bw, attraction, a-b-da, 9, 2, 4, 30, 165, 90, 90, 165, 157, 86, 1, 1.77214
215, 6, bw, attraction, a-b-da, 9, 2, 4, 30, 165, 90, 90, 165, 157, 86, 3, 1.04357
215, 6, bw, filler, NA, 999, 999, 4, 31, 133, 122, 102, 108, 135, 70, 1, 2.43122
215, 6, bw, filler, NA, 999, 999, 4, 31, 133, 122, 102, 108, 135, 70, 3, 1.01249
215, 6, bw, catch, NA, 999, 999, 4, 32, 163, 152, 61, 134, 93, 162, 1, 0.865501
215, 6, bw, catch, NA, 999, 999, 4, 32, 163, 152, 61, 134, 93, 162, 2, 0.501708
215, 6, bw, attraction, a-b-db, 2, 3, 4, 33, 120, 195, 119, 193, 195, 120, 2, 1.29558
215, 6, bw, attraction, a-b-db, 2, 3, 4, 33, 120, 195, 119, 193, 195, 120, 1, 2.12245
215, 6, bw, filler, NA, 999, 999, 4, 34, 98, 73, 181, 103, 69, 174, 2, 0.883069
215, 6, bw, filler, NA, 999, 999, 4, 34, 98, 73, 181, 103, 69, 174, 1, 0.862729
215, 6, bw, attraction, a-b-db, 9, 2, 4, 35, 86, 157, 90, 165, 165, 90, 2, 2.33774
215, 6, bw, attraction, a-b-db, 9, 2, 4, 35, 86, 157, 90, 165, 165, 90, 3, 1.51449
215, 6, bw, catch, NA, 999, 999, 4, 36, 144, 171, 105, 90, 91, 164, 1, 0.931128
215, 6, bw, catch, NA, 999, 999, 4, 36, 144, 171, 105, 90, 91, 164, 2, 1.20486
215, 6, bw, attraction, a-b-da, 9, 1, 4, 37, 135, 60, 60, 135, 129, 57, 1, 2.73839
215, 6, bw, attraction, a-b-da, 9, 1, 4, 37, 135, 60, 60, 135, 129, 57, 3, 0.683053
215, 6, bw, attraction, a-b-db, 2, 3, 5, 1, 119, 193, 195, 120, 120, 195, 1, 3.85987
215, 6, bw, attraction, a-b-db, 2, 3, 5, 1, 119, 193, 195, 120, 120, 195, 3, 0.551426
215, 6, bw, attraction, a-b-da, 2, 3, 5, 2, 193, 119, 120, 195, 195, 120, 2, 1.63104
215, 6, bw, attraction, a-b-da, 2, 3, 5, 2, 193, 119, 120, 195, 195, 120, 1, 0.508626
215, 6, bw, attraction, a-b-da, 5, 1, 5, 3, 135, 60, 132, 58, 60, 135, 1, 1.50157
215, 6, bw, attraction, a-b-da, 5, 1, 5, 3, 135, 60, 132, 58, 60, 135, 3, 0.600514
215, 6, bw, filler, NA, 999, 999, 5, 4, 139, 81, 57, 169, 96, 66, 1, 0.726134
215, 6, bw, filler, NA, 999, 999, 5, 4, 139, 81, 57, 169, 96, 66, 3, 1.28796
215, 6, bw, attraction, a-b-da, 14, 3, 5, 5, 181, 111, 195, 120, 120, 195, 3, 2.28209
215, 6, bw, attraction, a-b-da, 14, 3, 5, 5, 181, 111, 195, 120, 120, 195, 2, 0.693387
215, 6, bw, filler, NA, 999, 999, 5, 6, 167, 65, 131, 157, 59, 94, 2, 0.975166
215, 6, bw, filler, NA, 999, 999, 5, 6, 167, 65, 131, 157, 59, 94, 3, 0.990793
215, 6, bw, attraction, a-b-db, 9, 2, 5, 7, 90, 165, 165, 90, 86, 157, 1, 1.71656
215, 6, bw, attraction, a-b-db, 9, 2, 5, 7, 90, 165, 165, 90, 86, 157, 2, 1.39066
215, 6, bw, attraction, a-b-db, 2, 2, 5, 8, 89, 163, 165, 90, 90, 165, 2, 1.6921
215, 6, bw, attraction, a-b-db, 2, 2, 5, 8, 89, 163, 165, 90, 90, 165, 1, 1.12676
215, 6, bw, attraction, a-b-db, 14, 2, 5, 9, 83, 153, 90, 165, 165, 90, 2, 0.839036
215, 6, bw, attraction, a-b-db, 14, 2, 5, 9, 83, 153, 90, 165, 165, 90, 1, 0.48407
215, 6, bw, attraction, a-b-db, 9, 3, 5, 10, 120, 195, 195, 120, 114, 186, 1, 2.71855
215, 6, bw, attraction, a-b-db, 9, 3, 5, 10, 120, 195, 195, 120, 114, 186, 2, 1.63242
215, 6, bw, attraction, a-b-db, 14, 1, 5, 11, 60, 135, 56, 125, 135, 60, 1, 1.49246
215, 6, bw, attraction, a-b-db, 14, 1, 5, 11, 60, 135, 56, 125, 135, 60, 2, 0.53529
215, 6, bw, filler, NA, 999, 999, 5, 12, 183, 82, 180, 127, 85, 140, 2, 2.83185
215, 6, bw, filler, NA, 999, 999, 5, 12, 183, 82, 180, 127, 85, 140, 3, 0.516752
215, 6, bw, attraction, a-b-da, 14, 1, 5, 13, 60, 135, 125, 56, 135, 60, 1, 1.20595
215, 6, bw, attraction, a-b-da, 14, 1, 5, 13, 60, 135, 125, 56, 135, 60, 2, 1.08424
215, 6, bw, attraction, a-b-da, 9, 1, 5, 14, 129, 57, 60, 135, 135, 60, 2, 1.0944
215, 6, bw, attraction, a-b-da, 9, 1, 5, 14, 129, 57, 60, 135, 135, 60, 1, 0.761496
215, 6, bw, attraction, a-b-da, 5, 2, 5, 15, 161, 88, 90, 165, 165, 90, 2, 1.41652
215, 6, bw, attraction, a-b-da, 5, 2, 5, 15, 161, 88, 90, 165, 165, 90, 3, 0.718775
215, 6, bw, catch, NA, 999, 999, 5, 16, 95, 100, 112, 143, 195, 120, 3, 1.06378
215, 6, bw, catch, NA, 999, 999, 5, 16, 95, 100, 112, 143, 195, 120, 1, 1.13203
215, 6, bw, catch, NA, 999, 999, 5, 17, 130, 125, 149, 166, 117, 78, 2, 1.18845
215, 6, bw, catch, NA, 999, 999, 5, 17, 130, 125, 149, 166, 117, 78, 3, 0.635262
215, 6, bw, attraction, a-b-da, 5, 3, 5, 18, 195, 120, 190, 117, 120, 195, 3, 1.4637
215, 6, bw, attraction, a-b-da, 5, 3, 5, 18, 195, 120, 190, 117, 120, 195, 1, 1.01206
215, 6, bw, catch, NA, 999, 999, 5, 19, 128, 187, 103, 152, 96, 99, 1, 1.03272
215, 6, bw, catch, NA, 999, 999, 5, 19, 128, 187, 103, 152, 96, 99, 3, 0.918461
215, 6, bw, attraction, a-b-db, 9, 1, 5, 20, 60, 135, 57, 129, 135, 60, 1, 2.39942
215, 6, bw, attraction, a-b-db, 9, 1, 5, 20, 60, 135, 57, 129, 135, 60, 3, 1.04595
215, 6, bw, attraction, a-b-db, 5, 2, 5, 21, 88, 161, 165, 90, 90, 165, 1, 2.67365
215, 6, bw, attraction, a-b-db, 5, 2, 5, 21, 88, 161, 165, 90, 90, 165, 2, 5.19675
215, 6, bw, filler, NA, 999, 999, 5, 22, 69, 117, 132, 160, 80, 104, 2, 1.47298
215, 6, bw, filler, NA, 999, 999, 5, 22, 69, 117, 132, 160, 80, 104, 1, 4.61254
215, 6, bw, filler, NA, 999, 999, 5, 23, 66, 165, 159, 124, 69, 110, 2, 1.26434
215, 6, bw, filler, NA, 999, 999, 5, 23, 66, 165, 159, 124, 69, 110, 3, 0.50069
215, 6, bw, filler, NA, 999, 999, 5, 24, 84, 96, 99, 160, 105, 156, 3, 0.77442
215, 6, bw, filler, NA, 999, 999, 5, 24, 84, 96, 99, 160, 105, 156, 1, 0.67014
215, 6, bw, attraction, a-b-db, 5, 3, 5, 25, 120, 195, 195, 120, 117, 190, 1, 3.66525
215, 6, bw, attraction, a-b-db, 5, 3, 5, 25, 120, 195, 195, 120, 117, 190, 3, 2.39684
215, 6, bw, attraction, a-b-db, 14, 3, 5, 26, 195, 120, 111, 181, 120, 195, 3, 3.83392
215, 6, bw, attraction, a-b-db, 14, 3, 5, 26, 195, 120, 111, 181, 120, 195, 2, 1.82274
215, 6, bw, attraction, a-b-db, 5, 1, 5, 27, 60, 135, 135, 60, 58, 132, 1, 2.17966
215, 6, bw, attraction, a-b-db, 5, 1, 5, 27, 60, 135, 135, 60, 58, 132, 3, 0.522804
215, 6, bw, attraction, a-b-da, 14, 2, 5, 28, 165, 90, 90, 165, 153, 83, 2, 1.13916
215, 6, bw, attraction, a-b-da, 14, 2, 5, 28, 165, 90, 90, 165, 153, 83, 3, 0.620245
215, 6, bw, filler, NA, 999, 999, 5, 29, 108, 128, 78, 98, 109, 81, 1, 0.953116
215, 6, bw, filler, NA, 999, 999, 5, 29, 108, 128, 78, 98, 109, 81, 2, 0.498177
215, 6, bw, attraction, a-b-db, 2, 1, 5, 30, 60, 135, 59, 134, 135, 60, 2, 1.72401
215, 6, bw, attraction, a-b-db, 2, 1, 5, 30, 60, 135, 59, 134, 135, 60, 1, 0.581412
215, 6, bw, attraction, a-b-da, 2, 2, 5, 31, 163, 89, 165, 90, 90, 165, 2, 1.78796
215, 6, bw, attraction, a-b-da, 2, 2, 5, 31, 163, 89, 165, 90, 90, 165, 1, 0.698682
215, 6, bw, filler, NA, 999, 999, 5, 32, 82, 139, 163, 168, 122, 96, 2, 0.588398
215, 6, bw, filler, NA, 999, 999, 5, 32, 82, 139, 163, 168, 122, 96, 1, 1.52342
215, 6, bw, attraction, a-b-da, 2, 1, 5, 33, 60, 135, 134, 59, 135, 60, 2, 1.0755
215, 6, bw, attraction, a-b-da, 2, 1, 5, 33, 60, 135, 134, 59, 135, 60, 3, 0.687149
215, 6, bw, filler, NA, 999, 999, 5, 34, 87, 74, 174, 184, 101, 161, 2, 1.21765
215, 6, bw, filler, NA, 999, 999, 5, 34, 87, 74, 174, 184, 101, 161, 1, 0.919808
215, 6, bw, attraction, a-b-da, 9, 2, 5, 35, 90, 165, 165, 90, 157, 86, 1, 1.24078
215, 6, bw, attraction, a-b-da, 9, 2, 5, 35, 90, 165, 165, 90, 157, 86, 2, 1.1817
215, 6, bw, attraction, a-b-da, 9, 3, 5, 36, 186, 114, 120, 195, 195, 120, 2, 0.980124
215, 6, bw, attraction, a-b-da, 9, 3, 5, 36, 186, 114, 120, 195, 195, 120, 1, 0.531558
215, 6, bw, filler, NA, 999, 999, 5, 37, 125, 71, 95, 143, 106, 155, 3, 1.2281
215, 6, bw, filler, NA, 999, 999, 5, 37, 125, 71, 95, 143, 106, 155, 2, 1.16978
215, 6, bw, filler, NA, 999, 999, 6, 1, 149, 181, 156, 184, 137, 158, 1, 0.880654
215, 6, bw, filler, NA, 999, 999, 6, 1, 149, 181, 156, 184, 137, 158, 3, 0.492413
215, 6, bw, attraction, a-b-da, 5, 1, 6, 2, 135, 60, 60, 135, 132, 58, 2, 0.726061
215, 6, bw, attraction, a-b-da, 5, 1, 6, 2, 135, 60, 60, 135, 132, 58, 3, 0.823829
215, 6, bw, attraction, a-b-db, 5, 1, 6, 3, 60, 135, 58, 132, 135, 60, 1, 3.23616
215, 6, bw, attraction, a-b-db, 5, 1, 6, 3, 60, 135, 58, 132, 135, 60, 2, 0.601274
215, 6, bw, catch, NA, 999, 999, 6, 4, 172, 143, 99, 156, 72, 123, 1, 0.774835
215, 6, bw, catch, NA, 999, 999, 6, 4, 172, 143, 99, 156, 72, 123, 3, 0.526761
215, 6, bw, attraction, a-b-da, 5, 3, 6, 5, 195, 120, 190, 117, 120, 195, 3, 2.19106
215, 6, bw, attraction, a-b-da, 5, 3, 6, 5, 195, 120, 190, 117, 120, 195, 2, 2.86187
215, 6, bw, attraction, a-b-da, 9, 3, 6, 6, 120, 195, 186, 114, 195, 120, 1, 8.80805
215, 6, bw, attraction, a-b-da, 9, 3, 6, 6, 120, 195, 186, 114, 195, 120, 2, 1.31588
215, 6, bw, attraction, a-b-db, 5, 2, 6, 7, 90, 165, 165, 90, 88, 161, 3, 5.29279
215, 6, bw, attraction, a-b-db, 5, 2, 6, 7, 90, 165, 165, 90, 88, 161, 2, 1.48642
215, 6, bw, filler, NA, 999, 999, 6, 8, 185, 126, 141, 150, 144, 75, 1, 1.25665
215, 6, bw, filler, NA, 999, 999, 6, 8, 185, 126, 141, 150, 144, 75, 3, 0.940863
215, 6, bw, attraction, a-b-da, 2, 2, 6, 9, 90, 165, 163, 89, 165, 90, 1, 1.28448
215, 6, bw, attraction, a-b-da, 2, 2, 6, 9, 90, 165, 163, 89, 165, 90, 3, 1.15208
215, 6, bw, attraction, a-b-db, 2, 1, 6, 10, 60, 135, 135, 60, 59, 134, 1, 2.91983
215, 6, bw, attraction, a-b-db, 2, 1, 6, 10, 60, 135, 135, 60, 59, 134, 3, 1.00144
215, 6, bw, attraction, a-b-db, 9, 1, 6, 11, 135, 60, 60, 135, 57, 129, 2, 2.69509
215, 6, bw, attraction, a-b-db, 9, 1, 6, 11, 135, 60, 60, 135, 57, 129, 3, 0.505435
215, 6, bw, attraction, a-b-da, 14, 2, 6, 12, 90, 165, 153, 83, 165, 90, 1, 4.98727
215, 6, bw, attraction, a-b-da, 14, 2, 6, 12, 90, 165, 153, 83, 165, 90, 2, 1.07374
215, 6, bw, catch, NA, 999, 999, 6, 13, 149, 166, 90, 165, 135, 60, 1, 0.820022
215, 6, bw, catch, NA, 999, 999, 6, 13, 149, 166, 90, 165, 135, 60, 3, 0.817754
215, 6, bw, filler, NA, 999, 999, 6, 14, 195, 75, 170, 173, 162, 112, 2, 1.51872
215, 6, bw, filler, NA, 999, 999, 6, 14, 195, 75, 170, 173, 162, 112, 3, 3.29698
215, 6, bw, attraction, a-b-da, 5, 2, 6, 15, 90, 165, 161, 88, 165, 90, 3, 5.55373
215, 6, bw, attraction, a-b-da, 5, 2, 6, 15, 90, 165, 161, 88, 165, 90, 2, 2.11329
215, 6, bw, catch, NA, 999, 999, 6, 16, 142, 173, 133, 122, 79, 116, 1, 1.24986
215, 6, bw, catch, NA, 999, 999, 6, 16, 142, 173, 133, 122, 79, 116, 3, 1.19086
215, 6, bw, attraction, a-b-db, 9, 3, 6, 17, 120, 195, 195, 120, 114, 186, 1, 10.0844
215, 6, bw, attraction, a-b-db, 9, 3, 6, 17, 120, 195, 195, 120, 114, 186, 3, 1.24523
215, 6, bw, attraction, a-b-da, 9, 2, 6, 18, 157, 86, 90, 165, 165, 90, 2, 1.69688
215, 6, bw, attraction, a-b-da, 9, 2, 6, 18, 157, 86, 90, 165, 165, 90, 1, 1.2276
215, 6, bw, attraction, a-b-da, 14, 3, 6, 19, 195, 120, 120, 195, 181, 111, 1, 2.18384
215, 6, bw, attraction, a-b-da, 14, 3, 6, 19, 195, 120, 120, 195, 181, 111, 3, 1.4311
215, 6, bw, filler, NA, 999, 999, 6, 20, 68, 57, 130, 166, 111, 179, 2, 1.39534
215, 6, bw, filler, NA, 999, 999, 6, 20, 68, 57, 130, 166, 111, 179, 1, 0.962112
215, 6, bw, attraction, a-b-db, 14, 3, 6, 21, 111, 181, 120, 195, 195, 120, 2, 5.50523
215, 6, bw, attraction, a-b-db, 14, 3, 6, 21, 111, 181, 120, 195, 195, 120, 1, 0.730022
215, 6, bw, attraction, a-b-da, 14, 1, 6, 22, 125, 56, 135, 60, 60, 135, 1, 4.30659
215, 6, bw, attraction, a-b-da, 14, 1, 6, 22, 125, 56, 135, 60, 60, 135, 2, 2.41974
215, 6, bw, attraction, a-b-da, 2, 1, 6, 23, 134, 59, 135, 60, 60, 135, 3, 1.55233
215, 6, bw, attraction, a-b-da, 2, 1, 6, 23, 134, 59, 135, 60, 60, 135, 2, 0.633125
215, 6, bw, attraction, a-b-db, 2, 3, 6, 24, 119, 193, 195, 120, 120, 195, 2, 1.06147
215, 6, bw, attraction, a-b-db, 2, 3, 6, 24, 119, 193, 195, 120, 120, 195, 3, 1.65776
215, 6, bw, filler, NA, 999, 999, 6, 25, 181, 59, 102, 124, 62, 129, 1, 3.34055
215, 6, bw, filler, NA, 999, 999, 6, 25, 181, 59, 102, 124, 62, 129, 3, 1.30084
215, 6, bw, attraction, a-b-db, 5, 3, 6, 26, 120, 195, 195, 120, 117, 190, 3, 1.46238
215, 6, bw, attraction, a-b-db, 5, 3, 6, 26, 120, 195, 195, 120, 117, 190, 2, 0.514659
215, 6, bw, filler, NA, 999, 999, 6, 27, 133, 81, 69, 144, 124, 117, 3, 1.61163
215, 6, bw, filler, NA, 999, 999, 6, 27, 133, 81, 69, 144, 124, 117, 1, 0.873864
215, 6, bw, attraction, a-b-db, 9, 2, 6, 28, 86, 157, 90, 165, 165, 90, 2, 3.9961
215, 6, bw, attraction, a-b-db, 9, 2, 6, 28, 86, 157, 90, 165, 165, 90, 1, 0.946118
215, 6, bw, attraction, a-b-db, 14, 1, 6, 29, 60, 135, 135, 60, 56, 125, 1, 7.91378
215, 6, bw, attraction, a-b-db, 14, 1, 6, 29, 60, 135, 135, 60, 56, 125, 3, 0.658028
215, 6, bw, filler, NA, 999, 999, 6, 30, 149, 103, 160, 115, 93, 194, 1, 1.74101
215, 6, bw, filler, NA, 999, 999, 6, 30, 149, 103, 160, 115, 93, 194, 3, 5.62178
215, 6, bw, filler, NA, 999, 999, 6, 31, 68, 192, 115, 65, 75, 182, 3, 1.97726
215, 6, bw, filler, NA, 999, 999, 6, 31, 68, 192, 115, 65, 75, 182, 2, 0.640619
215, 6, bw, attraction, a-b-db, 2, 2, 6, 32, 90, 165, 89, 163, 165, 90, 1, 3.73238
215, 6, bw, attraction, a-b-db, 2, 2, 6, 32, 90, 165, 89, 163, 165, 90, 2, 1.06914
215, 6, bw, attraction, a-b-da, 2, 3, 6, 33, 120, 195, 193, 119, 195, 120, 3, 3.07213
215, 6, bw, attraction, a-b-da, 2, 3, 6, 33, 120, 195, 193, 119, 195, 120, 2, 1.34716
215, 6, bw, attraction, a-b-da, 9, 1, 6, 34, 135, 60, 60, 135, 129, 57, 2, 2.69885
215, 6, bw, attraction, a-b-da, 9, 1, 6, 34, 135, 60, 60, 135, 129, 57, 3, 1.42111
215, 6, bw, filler, NA, 999, 999, 6, 35, 178, 183, 186, 85, 95, 81, 1, 0.833902
215, 6, bw, filler, NA, 999, 999, 6, 35, 178, 183, 186, 85, 95, 81, 3, 0.623685
215, 6, bw, attraction, a-b-db, 14, 2, 6, 36, 165, 90, 90, 165, 83, 153, 2, 2.16411
215, 6, bw, attraction, a-b-db, 14, 2, 6, 36, 165, 90, 90, 165, 83, 153, 3, 0.900039
215, 6, bw, filler, NA, 999, 999, 6, 37, 88, 192, 120, 78, 149, 79, 1, 1.51772
215, 6, bw, filler, NA, 999, 999, 6, 37, 88, 192, 120, 78, 149, 79, 2, 0.759907
215, 6, bw, filler, NA, 999, 999, 7, 1, 149, 102, 98, 160, 194, 104, 3, 3.06296
215, 6, bw, filler, NA, 999, 999, 7, 1, 149, 102, 98, 160, 194, 104, 1, 0.706557
215, 6, bw, attraction, a-b-da, 14, 2, 7, 2, 153, 83, 90, 165, 165, 90, 2, 5.52366
215, 6, bw, attraction, a-b-da, 14, 2, 7, 2, 153, 83, 90, 165, 165, 90, 1, 0.843923
215, 6, bw, attraction, a-b-db, 9, 2, 7, 3, 90, 165, 86, 157, 165, 90, 1, 2.27962
215, 6, bw, attraction, a-b-db, 9, 2, 7, 3, 90, 165, 86, 157, 165, 90, 2, 1.01885
215, 6, bw, filler, NA, 999, 999, 7, 4, 119, 72, 70, 111, 87, 60, 1, 2.50376
215, 6, bw, filler, NA, 999, 999, 7, 4, 119, 72, 70, 111, 87, 60, 3, 1.30637
215, 6, bw, attraction, a-b-da, 5, 1, 7, 5, 60, 135, 135, 60, 132, 58, 1, 10.4592
215, 6, bw, attraction, a-b-da, 5, 1, 7, 5, 60, 135, 135, 60, 132, 58, 2, 0.572549
215, 6, bw, attraction, a-b-db, 2, 2, 7, 6, 89, 163, 165, 90, 90, 165, 1, 2.81169
215, 6, bw, attraction, a-b-db, 2, 2, 7, 6, 89, 163, 165, 90, 90, 165, 2, 1.58057
215, 6, bw, attraction, a-b-db, 14, 3, 7, 7, 111, 181, 195, 120, 120, 195, 3, 4.56756
215, 6, bw, attraction, a-b-db, 14, 3, 7, 7, 111, 181, 195, 120, 120, 195, 1, 1.19867
215, 6, bw, filler, NA, 999, 999, 7, 8, 113, 125, 135, 94, 105, 154, 3, 1.91636
215, 6, bw, filler, NA, 999, 999, 7, 8, 113, 125, 135, 94, 105, 154, 2, 1.05449
215, 6, bw, catch, NA, 999, 999, 7, 9, 134, 181, 82, 113, 120, 135, 1, 0.817893
215, 6, bw, catch, NA, 999, 999, 7, 9, 134, 181, 82, 113, 120, 135, 2, 0.544287
215, 6, bw, attraction, a-b-db, 9, 1, 7, 10, 60, 135, 57, 129, 135, 60, 1, 2.46422
215, 6, bw, attraction, a-b-db, 9, 1, 7, 10, 60, 135, 57, 129, 135, 60, 2, 1.39605
215, 6, bw, attraction, a-b-da, 9, 2, 7, 11, 157, 86, 165, 90, 90, 165, 3, 10.6735
215, 6, bw, attraction, a-b-da, 9, 2, 7, 11, 157, 86, 165, 90, 90, 165, 1, 0.674802
215, 6, bw, attraction, a-b-db, 9, 3, 7, 12, 120, 195, 195, 120, 114, 186, 1, 3.12518
215, 6, bw, attraction, a-b-db, 9, 3, 7, 12, 120, 195, 195, 120, 114, 186, 3, 1.07829
215, 6, bw, attraction, a-b-db, 5, 3, 7, 13, 117, 190, 120, 195, 195, 120, 2, 6.72049
215, 6, bw, attraction, a-b-db, 5, 3, 7, 13, 117, 190, 120, 195, 195, 120, 1, 0.953046
215, 6, bw, attraction, a-b-db, 5, 2, 7, 14, 165, 90, 90, 165, 88, 161, 2, 3.44869
215, 6, bw, attraction, a-b-db, 5, 2, 7, 14, 165, 90, 90, 165, 88, 161, 3, 1.46092
215, 6, bw, filler, NA, 999, 999, 7, 15, 178, 76, 164, 69, 122, 56, 1, 1.52773
215, 6, bw, filler, NA, 999, 999, 7, 15, 178, 76, 164, 69, 122, 56, 3, 0.585159
215, 6, bw, attraction, a-b-db, 2, 3, 7, 16, 120, 195, 119, 193, 195, 120, 3, 1.67965
215, 6, bw, attraction, a-b-db, 2, 3, 7, 16, 120, 195, 119, 193, 195, 120, 2, 1.25111
215, 6, bw, catch, NA, 999, 999, 7, 17, 157, 158, 76, 119, 97, 158, 1, 0.646596
215, 6, bw, catch, NA, 999, 999, 7, 17, 157, 158, 76, 119, 97, 158, 2, 0.795685
215, 6, bw, attraction, a-b-db, 5, 1, 7, 18, 135, 60, 58, 132, 60, 135, 2, 2.77236
215, 6, bw, attraction, a-b-db, 5, 1, 7, 18, 135, 60, 58, 132, 60, 135, 1, 1.60861
215, 6, bw, attraction, a-b-db, 14, 2, 7, 19, 165, 90, 83, 153, 90, 165, 3, 1.65331
215, 6, bw, attraction, a-b-db, 14, 2, 7, 19, 165, 90, 83, 153, 90, 165, 2, 1.01808
215, 6, bw, catch, NA, 999, 999, 7, 20, 170, 145, 157, 98, 70, 125, 1, 0.887033
215, 6, bw, catch, NA, 999, 999, 7, 20, 170, 145, 157, 98, 70, 125, 3, 0.658144
215, 6, bw, attraction, a-b-da, 5, 2, 7, 21, 90, 165, 165, 90, 161, 88, 2, 3.42918
215, 6, bw, attraction, a-b-da, 5, 2, 7, 21, 90, 165, 165, 90, 161, 88, 3, 0.986004
215, 6, bw, filler, NA, 999, 999, 7, 22, 103, 77, 138, 158, 69, 169, 2, 1.12849
215, 6, bw, filler, NA, 999, 999, 7, 22, 103, 77, 138, 158, 69, 169, 1, 1.09
215, 6, bw, filler, NA, 999, 999, 7, 23, 83, 154, 172, 56, 137, 179, 3, 1.09162
215, 6, bw, filler, NA, 999, 999, 7, 23, 83, 154, 172, 56, 137, 179, 2, 3.03856
215, 6, bw, filler, NA, 999, 999, 7, 24, 176, 156, 132, 108, 101, 181, 1, 1.39423
215, 6, bw, filler, NA, 999, 999, 7, 24, 176, 156, 132, 108, 101, 181, 2, 1.08122
215, 6, bw, attraction, a-b-da, 2, 1, 7, 25, 134, 59, 60, 135, 135, 60, 2, 1.98731
215, 6, bw, attraction, a-b-da, 2, 1, 7, 25, 134, 59, 60, 135, 135, 60, 1, 0.72265
215, 6, bw, attraction, a-b-da, 5, 3, 7, 26, 195, 120, 190, 117, 120, 195, 3, 3.09102
215, 6, bw, attraction, a-b-da, 5, 3, 7, 26, 195, 120, 190, 117, 120, 195, 1, 0.901436
215, 6, bw, attraction, a-b-da, 9, 3, 7, 27, 186, 114, 195, 120, 120, 195, 3, 1.23109
215, 6, bw, attraction, a-b-da, 9, 3, 7, 27, 186, 114, 195, 120, 120, 195, 1, 0.852693
215, 6, bw, attraction, a-b-da, 9, 1, 7, 28, 129, 57, 135, 60, 60, 135, 2, 1.16829
215, 6, bw, attraction, a-b-da, 9, 1, 7, 28, 129, 57, 135, 60, 60, 135, 1, 0.608618
215, 6, bw, filler, NA, 999, 999, 7, 29, 126, 173, 85, 133, 101, 160, 1, 0.909706
215, 6, bw, filler, NA, 999, 999, 7, 29, 126, 173, 85, 133, 101, 160, 2, 0.568053
215, 6, bw, attraction, a-b-da, 14, 1, 7, 30, 135, 60, 125, 56, 60, 135, 1, 1.05508
215, 6, bw, attraction, a-b-da, 14, 1, 7, 30, 135, 60, 125, 56, 60, 135, 2, 0.979375
215, 6, bw, attraction, a-b-da, 2, 2, 7, 31, 163, 89, 90, 165, 165, 90, 2, 0.689708
215, 6, bw, attraction, a-b-da, 2, 2, 7, 31, 163, 89, 90, 165, 165, 90, 1, 0.652817
215, 6, bw, attraction, a-b-db, 2, 1, 7, 32, 135, 60, 59, 134, 60, 135, 3, 1.22454
215, 6, bw, attraction, a-b-db, 2, 1, 7, 32, 135, 60, 59, 134, 60, 135, 1, 1.61412
215, 6, bw, filler, NA, 999, 999, 7, 33, 172, 155, 155, 163, 181, 114, 1, 1.67494
215, 6, bw, filler, NA, 999, 999, 7, 33, 172, 155, 155, 163, 181, 114, 2, 1.0544
215, 6, bw, attraction, a-b-da, 14, 3, 7, 34, 181, 111, 195, 120, 120, 195, 3, 1.53015
215, 6, bw, attraction, a-b-da, 14, 3, 7, 34, 181, 111, 195, 120, 120, 195, 1, 0.82751
215, 6, bw, attraction, a-b-db, 14, 1, 7, 35, 135, 60, 60, 135, 56, 125, 2, 2.71982
215, 6, bw, attraction, a-b-db, 14, 1, 7, 35, 135, 60, 60, 135, 56, 125, 1, 0.977659
215, 6, bw, attraction, a-b-da, 2, 3, 7, 36, 120, 195, 193, 119, 195, 120, 1, 7.56793
215, 6, bw, attraction, a-b-da, 2, 3, 7, 36, 120, 195, 193, 119, 195, 120, 2, 1.19821
215, 6, bw, filler, NA, 999, 999, 7, 37, 184, 184, 159, 123, 159, 61, 1, 0.89968
215, 6, bw, filler, NA, 999, 999, 7, 37, 184, 184, 159, 123, 159, 61, 3, 0.702837
215, 6, bw, attraction, a-b-da, 5, 2, 8, 1, 165, 90, 161, 88, 90, 165, 3, 1.85648
215, 6, bw, attraction, a-b-da, 5, 2, 8, 1, 165, 90, 161, 88, 90, 165, 2, 1.46865
215, 6, bw, attraction, a-b-db, 5, 3, 8, 2, 120, 195, 195, 120, 117, 190, 1, 3.63143
215, 6, bw, attraction, a-b-db, 5, 3, 8, 2, 120, 195, 195, 120, 117, 190, 3, 1.45224
215, 6, bw, attraction, a-b-da, 2, 2, 8, 3, 90, 165, 163, 89, 165, 90, 2, 4.52774
215, 6, bw, attraction, a-b-da, 2, 2, 8, 3, 90, 165, 163, 89, 165, 90, 3, 0.744272
215, 6, bw, attraction, a-b-da, 14, 3, 8, 4, 195, 120, 120, 195, 181, 111, 2, 3.39201
215, 6, bw, attraction, a-b-da, 14, 3, 8, 4, 195, 120, 120, 195, 181, 111, 3, 0.766238
215, 6, bw, filler, NA, 999, 999, 8, 5, 183, 85, 174, 82, 174, 167, 3, 1.36538
215, 6, bw, filler, NA, 999, 999, 8, 5, 183, 85, 174, 82, 174, 167, 2, 0.72554
215, 6, bw, filler, NA, 999, 999, 8, 6, 151, 94, 114, 194, 134, 110, 2, 1.82188
215, 6, bw, filler, NA, 999, 999, 8, 6, 151, 94, 114, 194, 134, 110, 3, 2.61936
215, 6, bw, filler, NA, 999, 999, 8, 7, 139, 109, 191, 193, 128, 136, 2, 1.51167
215, 6, bw, filler, NA, 999, 999, 8, 7, 139, 109, 191, 193, 128, 136, 1, 1.70592
215, 6, bw, filler, NA, 999, 999, 8, 8, 145, 102, 100, 188, 138, 77, 2, 4.77934
215, 6, bw, filler, NA, 999, 999, 8, 8, 145, 102, 100, 188, 138, 77, 3, 1.25781
215, 6, bw, attraction, a-b-db, 5, 2, 8, 9, 165, 90, 88, 161, 90, 165, 1, 7.59669
215, 6, bw, attraction, a-b-db, 5, 2, 8, 9, 165, 90, 88, 161, 90, 165, 2, 2.00964
215, 6, bw, filler, NA, 999, 999, 8, 10, 59, 159, 153, 75, 191, 152, 3, 0.798314
215, 6, bw, filler, NA, 999, 999, 8, 10, 59, 159, 153, 75, 191, 152, 1, 1.88533
215, 6, bw, attraction, a-b-da, 9, 3, 8, 11, 195, 120, 120, 195, 186, 114, 1, 2.24745
215, 6, bw, attraction, a-b-da, 9, 3, 8, 11, 195, 120, 120, 195, 186, 114, 3, 0.940053
215, 6, bw, filler, NA, 999, 999, 8, 12, 103, 107, 156, 125, 83, 62, 2, 0.619658
215, 6, bw, filler, NA, 999, 999, 8, 12, 103, 107, 156, 125, 83, 62, 3, 0.618054
215, 6, bw, attraction, a-b-db, 2, 2, 8, 13, 165, 90, 90, 165, 89, 163, 1, 5.5112
215, 6, bw, attraction, a-b-db, 2, 2, 8, 13, 165, 90, 90, 165, 89, 163, 3, 0.744071
215, 6, bw, filler, NA, 999, 999, 8, 14, 192, 85, 163, 113, 126, 166, 3, 1.51176
215, 6, bw, filler, NA, 999, 999, 8, 14, 192, 85, 163, 113, 126, 166, 2, 0.873882
215, 6, bw, catch, NA, 999, 999, 8, 15, 63, 132, 99, 156, 164, 151, 3, 1.03617
215, 6, bw, catch, NA, 999, 999, 8, 15, 63, 132, 99, 156, 164, 151, 1, 0.969914
215, 6, bw, attraction, a-b-da, 9, 1, 8, 16, 60, 135, 129, 57, 135, 60, 1, 4.80888
215, 6, bw, attraction, a-b-da, 9, 1, 8, 16, 60, 135, 129, 57, 135, 60, 2, 0.742002
215, 6, bw, attraction, a-b-db, 14, 2, 8, 17, 165, 90, 90, 165, 83, 153, 2, 2.42183
215, 6, bw, attraction, a-b-db, 14, 2, 8, 17, 165, 90, 90, 165, 83, 153, 3, 0.858935
215, 6, bw, attraction, a-b-db, 9, 3, 8, 18, 120, 195, 195, 120, 114, 186, 1, 1.07805
215, 6, bw, attraction, a-b-db, 9, 3, 8, 18, 120, 195, 195, 120, 114, 186, 2, 0.83357
215, 6, bw, attraction, a-b-db, 2, 3, 8, 19, 195, 120, 120, 195, 119, 193, 2, 1.38991
215, 6, bw, attraction, a-b-db, 2, 3, 8, 19, 195, 120, 120, 195, 119, 193, 3, 0.580812
215, 6, bw, attraction, a-b-db, 2, 1, 8, 20, 59, 134, 60, 135, 135, 60, 2, 1.50718
215, 6, bw, attraction, a-b-db, 2, 1, 8, 20, 59, 134, 60, 135, 135, 60, 1, 0.813361
215, 6, bw, attraction, a-b-db, 9, 2, 8, 21, 165, 90, 86, 157, 90, 165, 3, 3.61846
215, 6, bw, attraction, a-b-db, 9, 2, 8, 21, 165, 90, 86, 157, 90, 165, 2, 1.16794
215, 6, bw, catch, NA, 999, 999, 8, 22, 148, 107, 135, 60, 152, 163, 3, 0.790839
215, 6, bw, catch, NA, 999, 999, 8, 22, 148, 107, 135, 60, 152, 163, 2, 0.645818
215, 6, bw, filler, NA, 999, 999, 8, 23, 155, 133, 131, 73, 118, 157, 1, 2.29765
215, 6, bw, filler, NA, 999, 999, 8, 23, 155, 133, 131, 73, 118, 157, 2, 0.556322
215, 6, bw, filler, NA, 999, 999, 8, 24, 165, 95, 58, 194, 149, 143, 3, 1.73937
215, 6, bw, filler, NA, 999, 999, 8, 24, 165, 95, 58, 194, 149, 143, 2, 0.956027
215, 6, bw, attraction, a-b-da, 14, 2, 8, 25, 153, 83, 165, 90, 90, 165, 2, 3.46766
215, 6, bw, attraction, a-b-da, 14, 2, 8, 25, 153, 83, 165, 90, 90, 165, 1, 0.519232
215, 6, bw, attraction, a-b-da, 5, 3, 8, 26, 190, 117, 120, 195, 195, 120, 2, 1.40835
215, 6, bw, attraction, a-b-da, 5, 3, 8, 26, 190, 117, 120, 195, 195, 120, 1, 1.70261
215, 6, bw, attraction, a-b-da, 2, 1, 8, 27, 60, 135, 134, 59, 135, 60, 1, 1.07994
215, 6, bw, attraction, a-b-da, 2, 1, 8, 27, 60, 135, 134, 59, 135, 60, 2, 0.531562
215, 6, bw, attraction, a-b-db, 9, 1, 8, 28, 57, 129, 60, 135, 135, 60, 2, 1.18811
215, 6, bw, attraction, a-b-db, 9, 1, 8, 28, 57, 129, 60, 135, 135, 60, 1, 1.26705
215, 6, bw, attraction, a-b-db, 14, 1, 8, 29, 60, 135, 135, 60, 56, 125, 1, 1.07796
215, 6, bw, attraction, a-b-db, 14, 1, 8, 29, 60, 135, 135, 60, 56, 125, 3, 0.953647
215, 6, bw, attraction, a-b-da, 9, 2, 8, 30, 165, 90, 157, 86, 90, 165, 1, 1.86521
215, 6, bw, attraction, a-b-da, 9, 2, 8, 30, 165, 90, 157, 86, 90, 165, 3, 1.11729
215, 6, bw, attraction, a-b-db, 14, 3, 8, 31, 111, 181, 120, 195, 195, 120, 2, 0.80613
215, 6, bw, attraction, a-b-db, 14, 3, 8, 31, 111, 181, 120, 195, 195, 120, 1, 0.772603
215, 6, bw, catch, NA, 999, 999, 8, 32, 91, 164, 138, 177, 127, 68, 2, 1.07556
215, 6, bw, catch, NA, 999, 999, 8, 32, 91, 164, 138, 177, 127, 68, 3, 0.991138
215, 6, bw, attraction, a-b-db, 5, 1, 8, 33, 58, 132, 135, 60, 60, 135, 1, 1.03677
215, 6, bw, attraction, a-b-db, 5, 1, 8, 33, 58, 132, 135, 60, 60, 135, 2, 1.0505
215, 6, bw, attraction, a-b-da, 2, 3, 8, 34, 120, 195, 193, 119, 195, 120, 1, 2.41416
215, 6, bw, attraction, a-b-da, 2, 3, 8, 34, 120, 195, 193, 119, 195, 120, 2, 0.57197
215, 6, bw, attraction, a-b-da, 14, 1, 8, 35, 60, 135, 135, 60, 125, 56, 2, 1.25904
215, 6, bw, attraction, a-b-da, 14, 1, 8, 35, 60, 135, 135, 60, 125, 56, 1, 0.615293
215, 6, bw, attraction, a-b-da, 5, 1, 8, 36, 60, 135, 132, 58, 135, 60, 2, 2.37249
215, 6, bw, attraction, a-b-da, 5, 1, 8, 36, 60, 135, 132, 58, 135, 60, 1, 0.667632
215, 6, bw, filler, NA, 999, 999, 8, 37, 139, 189, 129, 183, 81, 119, 1, 1.18273
215, 6, bw, filler, NA, 999, 999, 8, 37, 139, 189, 129, 183, 81, 119, 3, 1.14234
