sub_n, computer_n, bw_cond, effect, set, distance, diag, block_n, trial_n, h1, w1, h2, w2, h3, w3, choice, rt 
243, 6, bw, practice, NA, 999, 999, 0, 1, 99, 133, 136, 64, 94, 57, 1, 2.44746
243, 6, bw, practice, NA, 999, 999, 0, 1, 99, 133, 136, 64, 94, 57, 3, 2.86648
243, 6, bw, practice, NA, 999, 999, 0, 2, 100, 172, 162, 79, 72, 64, 1, 2.76335
243, 6, bw, practice, NA, 999, 999, 0, 2, 100, 172, 162, 79, 72, 64, 3, 2.17017
243, 6, bw, practice, NA, 999, 999, 0, 3, 76, 113, 114, 110, 67, 142, 2, 1.39496
243, 6, bw, practice, NA, 999, 999, 0, 3, 76, 113, 114, 110, 67, 142, 1, 7.34748
243, 6, bw, catch, NA, 999, 999, 1, 1, 123, 132, 171, 144, 101, 94, 2, 1.49018
243, 6, bw, catch, NA, 999, 999, 1, 1, 123, 132, 171, 144, 101, 94, 3, 2.16511
243, 6, bw, attraction, a-b-da, 5, 3, 1, 2, 120, 195, 190, 117, 195, 120, 1, 8.46758
243, 6, bw, attraction, a-b-da, 5, 3, 1, 2, 120, 195, 190, 117, 195, 120, 3, 5.59756
243, 6, bw, attraction, a-b-da, 5, 2, 1, 3, 165, 90, 161, 88, 90, 165, 3, 7.97775
243, 6, bw, attraction, a-b-da, 5, 2, 1, 3, 165, 90, 161, 88, 90, 165, 2, 2.46336
243, 6, bw, attraction, a-b-db, 2, 1, 1, 4, 135, 60, 59, 134, 60, 135, 2, 2.55368
243, 6, bw, attraction, a-b-db, 2, 1, 1, 4, 135, 60, 59, 134, 60, 135, 1, 0.690262
243, 6, bw, attraction, a-b-da, 9, 3, 1, 5, 120, 195, 186, 114, 195, 120, 1, 9.33993
243, 6, bw, attraction, a-b-da, 9, 3, 1, 5, 120, 195, 186, 114, 195, 120, 2, 2.64304
243, 6, bw, attraction, a-b-db, 14, 3, 1, 6, 195, 120, 120, 195, 111, 181, 2, 2.83019
243, 6, bw, attraction, a-b-db, 14, 3, 1, 6, 195, 120, 120, 195, 111, 181, 3, 2.97924
243, 6, bw, filler, NA, 999, 999, 1, 7, 96, 91, 108, 90, 58, 145, 2, 22.161
243, 6, bw, filler, NA, 999, 999, 1, 7, 96, 91, 108, 90, 58, 145, 1, 8.73929
243, 6, bw, attraction, a-b-db, 5, 2, 1, 8, 88, 161, 90, 165, 165, 90, 2, 4.24122
243, 6, bw, attraction, a-b-db, 5, 2, 1, 8, 88, 161, 90, 165, 165, 90, 1, 2.4132
243, 6, bw, filler, NA, 999, 999, 1, 9, 147, 133, 126, 56, 112, 193, 1, 3.04979
243, 6, bw, filler, NA, 999, 999, 1, 9, 147, 133, 126, 56, 112, 193, 2, 0.598089
243, 6, bw, attraction, a-b-db, 5, 3, 1, 10, 195, 120, 117, 190, 120, 195, 2, 7.49182
243, 6, bw, attraction, a-b-db, 5, 3, 1, 10, 195, 120, 117, 190, 120, 195, 3, 0.476762
243, 6, bw, attraction, a-b-da, 5, 1, 1, 11, 132, 58, 135, 60, 60, 135, 3, 2.83119
243, 6, bw, attraction, a-b-da, 5, 1, 1, 11, 132, 58, 135, 60, 60, 135, 1, 1.26831
243, 6, bw, attraction, a-b-da, 2, 1, 1, 12, 134, 59, 60, 135, 135, 60, 2, 6.40717
243, 6, bw, attraction, a-b-da, 2, 1, 1, 12, 134, 59, 60, 135, 135, 60, 1, 1.13985
243, 6, bw, attraction, a-b-db, 14, 1, 1, 13, 60, 135, 135, 60, 56, 125, 1, 1.17144
243, 6, bw, attraction, a-b-db, 14, 1, 1, 13, 60, 135, 135, 60, 56, 125, 3, 1.33098
243, 6, bw, attraction, a-b-da, 9, 2, 1, 14, 157, 86, 165, 90, 90, 165, 2, 1.69117
243, 6, bw, attraction, a-b-da, 9, 2, 1, 14, 157, 86, 165, 90, 90, 165, 1, 0.454059
243, 6, bw, filler, NA, 999, 999, 1, 15, 86, 183, 93, 127, 192, 145, 3, 1.36981
243, 6, bw, filler, NA, 999, 999, 1, 15, 86, 183, 93, 127, 192, 145, 2, 0.890125
243, 6, bw, filler, NA, 999, 999, 1, 16, 96, 80, 174, 148, 66, 96, 2, 2.05175
243, 6, bw, filler, NA, 999, 999, 1, 16, 96, 80, 174, 148, 66, 96, 3, 1.2563
243, 6, bw, attraction, a-b-db, 2, 2, 1, 17, 89, 163, 90, 165, 165, 90, 2, 1.47531
243, 6, bw, attraction, a-b-db, 2, 2, 1, 17, 89, 163, 90, 165, 165, 90, 1, 0.534721
243, 6, bw, attraction, a-b-db, 9, 1, 1, 18, 60, 135, 57, 129, 135, 60, 1, 2.90325
243, 6, bw, attraction, a-b-db, 9, 1, 1, 18, 60, 135, 57, 129, 135, 60, 2, 1.88167
243, 6, bw, attraction, a-b-da, 2, 3, 1, 19, 193, 119, 120, 195, 195, 120, 1, 1.69953
243, 6, bw, attraction, a-b-da, 2, 3, 1, 19, 193, 119, 120, 195, 195, 120, 3, 0.766388
243, 6, bw, attraction, a-b-da, 2, 2, 1, 20, 90, 165, 163, 89, 165, 90, 3, 2.89344
243, 6, bw, attraction, a-b-da, 2, 2, 1, 20, 90, 165, 163, 89, 165, 90, 2, 0.639925
243, 6, bw, filler, NA, 999, 999, 1, 21, 182, 122, 154, 186, 98, 182, 2, 3.43567
243, 6, bw, filler, NA, 999, 999, 1, 21, 182, 122, 154, 186, 98, 182, 3, 2.02446
243, 6, bw, catch, NA, 999, 999, 1, 22, 167, 148, 117, 138, 78, 117, 1, 1.28435
243, 6, bw, catch, NA, 999, 999, 1, 22, 167, 148, 117, 138, 78, 117, 3, 1.1841
243, 6, bw, attraction, a-b-db, 9, 3, 1, 23, 195, 120, 114, 186, 120, 195, 3, 4.55825
243, 6, bw, attraction, a-b-db, 9, 3, 1, 23, 195, 120, 114, 186, 120, 195, 1, 0.877496
243, 6, bw, filler, NA, 999, 999, 1, 24, 108, 82, 75, 101, 151, 101, 3, 1.21578
243, 6, bw, filler, NA, 999, 999, 1, 24, 108, 82, 75, 101, 151, 101, 2, 0.710027
243, 6, bw, attraction, a-b-da, 14, 1, 1, 25, 125, 56, 60, 135, 135, 60, 2, 1.07102
243, 6, bw, attraction, a-b-da, 14, 1, 1, 25, 125, 56, 60, 135, 135, 60, 1, 0.866711
243, 6, bw, attraction, a-b-da, 14, 3, 1, 26, 195, 120, 181, 111, 120, 195, 1, 2.96572
243, 6, bw, attraction, a-b-da, 14, 3, 1, 26, 195, 120, 181, 111, 120, 195, 2, 0.637386
243, 6, bw, catch, NA, 999, 999, 1, 27, 120, 195, 92, 103, 157, 98, 3, 3.01788
243, 6, bw, catch, NA, 999, 999, 1, 27, 120, 195, 92, 103, 157, 98, 2, 1.87164
243, 6, bw, filler, NA, 999, 999, 1, 28, 148, 154, 162, 96, 110, 191, 1, 11.7622
243, 6, bw, filler, NA, 999, 999, 1, 28, 148, 154, 162, 96, 110, 191, 2, 0.687288
243, 6, bw, attraction, a-b-da, 14, 2, 1, 29, 165, 90, 90, 165, 153, 83, 2, 1.79364
243, 6, bw, attraction, a-b-da, 14, 2, 1, 29, 165, 90, 90, 165, 153, 83, 1, 0.432366
243, 6, bw, filler, NA, 999, 999, 1, 30, 113, 127, 154, 90, 103, 140, 2, 12.4529
243, 6, bw, filler, NA, 999, 999, 1, 30, 113, 127, 154, 90, 103, 140, 3, 0.350224
243, 6, bw, attraction, a-b-da, 9, 1, 1, 31, 129, 57, 135, 60, 60, 135, 2, 1.00604
243, 6, bw, attraction, a-b-da, 9, 1, 1, 31, 129, 57, 135, 60, 60, 135, 1, 0.380412
243, 6, bw, attraction, a-b-db, 9, 2, 1, 32, 165, 90, 86, 157, 90, 165, 2, 0.898913
243, 6, bw, attraction, a-b-db, 9, 2, 1, 32, 165, 90, 86, 157, 90, 165, 1, 0.453848
243, 6, bw, attraction, a-b-db, 14, 2, 1, 33, 90, 165, 83, 153, 165, 90, 1, 2.60968
243, 6, bw, attraction, a-b-db, 14, 2, 1, 33, 90, 165, 83, 153, 165, 90, 2, 0.319453
243, 6, bw, filler, NA, 999, 999, 1, 34, 94, 186, 185, 189, 96, 112, 2, 0.888809
243, 6, bw, filler, NA, 999, 999, 1, 34, 94, 186, 185, 189, 96, 112, 3, 0.499694
243, 6, bw, attraction, a-b-db, 2, 3, 1, 35, 119, 193, 195, 120, 120, 195, 2, 2.57359
243, 6, bw, attraction, a-b-db, 2, 3, 1, 35, 119, 193, 195, 120, 120, 195, 1, 1.02067
243, 6, bw, attraction, a-b-db, 5, 1, 1, 36, 58, 132, 135, 60, 60, 135, 2, 1.23369
243, 6, bw, attraction, a-b-db, 5, 1, 1, 36, 58, 132, 135, 60, 60, 135, 3, 1.47131
243, 6, bw, filler, NA, 999, 999, 1, 37, 66, 140, 126, 121, 135, 72, 2, 2.03419
243, 6, bw, filler, NA, 999, 999, 1, 37, 66, 140, 126, 121, 135, 72, 1, 0.567388
243, 6, bw, catch, NA, 999, 999, 2, 1, 183, 132, 106, 149, 81, 114, 1, 1.59864
243, 6, bw, catch, NA, 999, 999, 2, 1, 183, 132, 106, 149, 81, 114, 3, 1.02124
243, 6, bw, attraction, a-b-da, 5, 2, 2, 2, 165, 90, 161, 88, 90, 165, 3, 2.30623
243, 6, bw, attraction, a-b-da, 5, 2, 2, 2, 165, 90, 161, 88, 90, 165, 1, 0.372175
243, 6, bw, attraction, a-b-da, 9, 2, 2, 3, 165, 90, 157, 86, 90, 165, 2, 0.539274
243, 6, bw, attraction, a-b-da, 9, 2, 2, 3, 165, 90, 157, 86, 90, 165, 3, 0.356564
243, 6, bw, filler, NA, 999, 999, 2, 4, 168, 121, 99, 125, 57, 93, 1, 0.915638
243, 6, bw, filler, NA, 999, 999, 2, 4, 168, 121, 99, 125, 57, 93, 3, 0.56601
243, 6, bw, attraction, a-b-db, 14, 3, 2, 5, 195, 120, 120, 195, 111, 181, 2, 0.501118
243, 6, bw, attraction, a-b-db, 14, 3, 2, 5, 195, 120, 120, 195, 111, 181, 1, 0.384236
243, 6, bw, attraction, a-b-db, 9, 2, 2, 6, 90, 165, 86, 157, 165, 90, 2, 0.990677
243, 6, bw, attraction, a-b-db, 9, 2, 2, 6, 90, 165, 86, 157, 165, 90, 3, 0.373764
243, 6, bw, attraction, a-b-db, 2, 2, 2, 7, 89, 163, 90, 165, 165, 90, 2, 0.740247
243, 6, bw, attraction, a-b-db, 2, 2, 2, 7, 89, 163, 90, 165, 165, 90, 1, 1.13327
243, 6, bw, filler, NA, 999, 999, 2, 8, 185, 192, 145, 168, 58, 119, 1, 1.46159
243, 6, bw, filler, NA, 999, 999, 2, 8, 185, 192, 145, 168, 58, 119, 3, 0.697716
243, 6, bw, filler, NA, 999, 999, 2, 9, 166, 111, 100, 84, 195, 77, 1, 3.68345
243, 6, bw, filler, NA, 999, 999, 2, 9, 166, 111, 100, 84, 195, 77, 2, 0.966249
243, 6, bw, attraction, a-b-da, 14, 3, 2, 10, 181, 111, 195, 120, 120, 195, 3, 5.97326
243, 6, bw, attraction, a-b-da, 14, 3, 2, 10, 181, 111, 195, 120, 120, 195, 1, 0.531357
243, 6, bw, filler, NA, 999, 999, 2, 11, 125, 96, 74, 162, 148, 59, 1, 2.17193
243, 6, bw, filler, NA, 999, 999, 2, 11, 125, 96, 74, 162, 148, 59, 3, 1.11508
243, 6, bw, filler, NA, 999, 999, 2, 12, 127, 65, 169, 137, 115, 182, 2, 0.948005
243, 6, bw, filler, NA, 999, 999, 2, 12, 127, 65, 169, 137, 115, 182, 1, 1.38897
243, 6, bw, attraction, a-b-db, 5, 1, 2, 13, 135, 60, 60, 135, 58, 132, 2, 0.97921
243, 6, bw, attraction, a-b-db, 5, 1, 2, 13, 135, 60, 60, 135, 58, 132, 3, 1.5869
243, 6, bw, attraction, a-b-da, 14, 1, 2, 14, 60, 135, 125, 56, 135, 60, 3, 2.88904
243, 6, bw, attraction, a-b-da, 14, 1, 2, 14, 60, 135, 125, 56, 135, 60, 2, 0.419385
243, 6, bw, attraction, a-b-db, 5, 3, 2, 15, 117, 190, 195, 120, 120, 195, 3, 6.96049
243, 6, bw, attraction, a-b-db, 5, 3, 2, 15, 117, 190, 195, 120, 120, 195, 1, 1.31898
243, 6, bw, attraction, a-b-da, 2, 2, 2, 16, 90, 165, 163, 89, 165, 90, 2, 0.983865
243, 6, bw, attraction, a-b-da, 2, 2, 2, 16, 90, 165, 163, 89, 165, 90, 3, 0.671527
243, 6, bw, attraction, a-b-da, 2, 1, 2, 17, 135, 60, 134, 59, 60, 135, 2, 0.730585
243, 6, bw, attraction, a-b-da, 2, 1, 2, 17, 135, 60, 134, 59, 60, 135, 3, 0.540315
243, 6, bw, filler, NA, 999, 999, 2, 18, 130, 58, 94, 125, 167, 140, 3, 1.17217
243, 6, bw, filler, NA, 999, 999, 2, 18, 130, 58, 94, 125, 167, 140, 1, 0.795729
243, 6, bw, attraction, a-b-db, 9, 3, 2, 19, 120, 195, 114, 186, 195, 120, 1, 2.60142
243, 6, bw, attraction, a-b-db, 9, 3, 2, 19, 120, 195, 114, 186, 195, 120, 3, 0.44792
243, 6, bw, filler, NA, 999, 999, 2, 20, 117, 119, 173, 136, 195, 96, 2, 1.27575
243, 6, bw, filler, NA, 999, 999, 2, 20, 117, 119, 173, 136, 195, 96, 1, 0.423357
243, 6, bw, attraction, a-b-db, 5, 2, 2, 21, 88, 161, 165, 90, 90, 165, 3, 0.899702
243, 6, bw, attraction, a-b-db, 5, 2, 2, 21, 88, 161, 165, 90, 90, 165, 2, 0.398714
243, 6, bw, catch, NA, 999, 999, 2, 22, 123, 132, 165, 150, 129, 66, 2, 0.700578
243, 6, bw, catch, NA, 999, 999, 2, 22, 123, 132, 165, 150, 129, 66, 3, 0.879714
243, 6, bw, catch, NA, 999, 999, 2, 23, 120, 135, 134, 181, 124, 71, 2, 0.482025
243, 6, bw, catch, NA, 999, 999, 2, 23, 120, 135, 134, 181, 124, 71, 3, 0.701916
243, 6, bw, attraction, a-b-db, 2, 1, 2, 24, 60, 135, 135, 60, 59, 134, 2, 0.663479
243, 6, bw, attraction, a-b-db, 2, 1, 2, 24, 60, 135, 135, 60, 59, 134, 3, 0.44411
243, 6, bw, attraction, a-b-da, 9, 1, 2, 25, 129, 57, 60, 135, 135, 60, 2, 0.927843
243, 6, bw, attraction, a-b-da, 9, 1, 2, 25, 129, 57, 60, 135, 135, 60, 3, 0.881438
243, 6, bw, attraction, a-b-da, 14, 2, 2, 26, 165, 90, 90, 165, 153, 83, 2, 0.643902
243, 6, bw, attraction, a-b-da, 14, 2, 2, 26, 165, 90, 90, 165, 153, 83, 3, 0.696858
243, 6, bw, attraction, a-b-db, 14, 1, 2, 27, 56, 125, 60, 135, 135, 60, 2, 1.23473
243, 6, bw, attraction, a-b-db, 14, 1, 2, 27, 56, 125, 60, 135, 135, 60, 3, 0.832184
243, 6, bw, attraction, a-b-da, 9, 3, 2, 28, 195, 120, 186, 114, 120, 195, 2, 1.50856
243, 6, bw, attraction, a-b-da, 9, 3, 2, 28, 195, 120, 186, 114, 120, 195, 3, 0.542742
243, 6, bw, attraction, a-b-da, 2, 3, 2, 29, 120, 195, 195, 120, 193, 119, 2, 0.470494
243, 6, bw, attraction, a-b-da, 2, 3, 2, 29, 120, 195, 195, 120, 193, 119, 3, 0.410389
243, 6, bw, attraction, a-b-db, 9, 1, 2, 30, 135, 60, 60, 135, 57, 129, 1, 1.98344
243, 6, bw, attraction, a-b-db, 9, 1, 2, 30, 135, 60, 60, 135, 57, 129, 3, 0.47085
243, 6, bw, filler, NA, 999, 999, 2, 31, 170, 149, 82, 142, 65, 166, 1, 0.602041
243, 6, bw, filler, NA, 999, 999, 2, 31, 170, 149, 82, 142, 65, 166, 3, 6.96907
243, 6, bw, filler, NA, 999, 999, 2, 32, 68, 100, 157, 140, 192, 149, 3, 0.838274
243, 6, bw, filler, NA, 999, 999, 2, 32, 68, 100, 157, 140, 192, 149, 1, 1.11525
243, 6, bw, filler, NA, 999, 999, 2, 33, 122, 113, 123, 152, 92, 81, 2, 1.06817
243, 6, bw, filler, NA, 999, 999, 2, 33, 122, 113, 123, 152, 92, 81, 3, 0.448454
243, 6, bw, attraction, a-b-da, 5, 3, 2, 34, 120, 195, 195, 120, 190, 117, 2, 0.812259
243, 6, bw, attraction, a-b-da, 5, 3, 2, 34, 120, 195, 195, 120, 190, 117, 1, 0.602699
243, 6, bw, attraction, a-b-db, 2, 3, 2, 35, 119, 193, 195, 120, 120, 195, 2, 0.456421
243, 6, bw, attraction, a-b-db, 2, 3, 2, 35, 119, 193, 195, 120, 120, 195, 1, 0.74895
243, 6, bw, attraction, a-b-da, 5, 1, 2, 36, 135, 60, 60, 135, 132, 58, 2, 0.484602
243, 6, bw, attraction, a-b-da, 5, 1, 2, 36, 135, 60, 60, 135, 132, 58, 3, 1.01645
243, 6, bw, attraction, a-b-db, 14, 2, 2, 37, 165, 90, 90, 165, 83, 153, 2, 0.437493
243, 6, bw, attraction, a-b-db, 14, 2, 2, 37, 165, 90, 90, 165, 83, 153, 3, 1.24259
243, 6, bw, attraction, a-b-da, 5, 3, 3, 1, 190, 117, 195, 120, 120, 195, 2, 0.430081
243, 6, bw, attraction, a-b-da, 5, 3, 3, 1, 190, 117, 195, 120, 120, 195, 3, 0.819954
243, 6, bw, attraction, a-b-db, 9, 2, 3, 2, 165, 90, 90, 165, 86, 157, 2, 0.472898
243, 6, bw, attraction, a-b-db, 9, 2, 3, 2, 165, 90, 90, 165, 86, 157, 1, 0.540833
243, 6, bw, attraction, a-b-da, 5, 1, 3, 3, 135, 60, 132, 58, 60, 135, 3, 1.54851
243, 6, bw, attraction, a-b-da, 5, 1, 3, 3, 135, 60, 132, 58, 60, 135, 2, 0.389458
243, 6, bw, attraction, a-b-db, 5, 3, 3, 4, 120, 195, 117, 190, 195, 120, 3, 0.675258
243, 6, bw, attraction, a-b-db, 5, 3, 3, 4, 120, 195, 117, 190, 195, 120, 2, 0.718944
243, 6, bw, filler, NA, 999, 999, 3, 5, 84, 138, 163, 77, 84, 143, 2, 1.41602
243, 6, bw, filler, NA, 999, 999, 3, 5, 84, 138, 163, 77, 84, 143, 3, 1.56622
243, 6, bw, attraction, a-b-db, 9, 1, 3, 6, 57, 129, 60, 135, 135, 60, 3, 1.49295
243, 6, bw, attraction, a-b-db, 9, 1, 3, 6, 57, 129, 60, 135, 135, 60, 1, 0.655792
243, 6, bw, attraction, a-b-da, 2, 2, 3, 7, 163, 89, 90, 165, 165, 90, 2, 0.707668
243, 6, bw, attraction, a-b-da, 2, 2, 3, 7, 163, 89, 90, 165, 165, 90, 1, 0.734073
243, 6, bw, attraction, a-b-da, 2, 1, 3, 8, 135, 60, 60, 135, 134, 59, 2, 0.430356
243, 6, bw, attraction, a-b-da, 2, 1, 3, 8, 135, 60, 60, 135, 134, 59, 1, 0.644326
243, 6, bw, attraction, a-b-da, 9, 1, 3, 9, 129, 57, 135, 60, 60, 135, 2, 1.00795
243, 6, bw, attraction, a-b-da, 9, 1, 3, 9, 129, 57, 135, 60, 60, 135, 3, 0.374374
243, 6, bw, attraction, a-b-db, 14, 2, 3, 10, 83, 153, 90, 165, 165, 90, 2, 0.500763
243, 6, bw, attraction, a-b-db, 14, 2, 3, 10, 83, 153, 90, 165, 165, 90, 3, 0.591914
243, 6, bw, attraction, a-b-db, 14, 1, 3, 11, 135, 60, 56, 125, 60, 135, 1, 1.39762
243, 6, bw, attraction, a-b-db, 14, 1, 3, 11, 135, 60, 56, 125, 60, 135, 2, 0.37264
243, 6, bw, attraction, a-b-da, 14, 2, 3, 12, 153, 83, 90, 165, 165, 90, 1, 0.802987
243, 6, bw, attraction, a-b-da, 14, 2, 3, 12, 153, 83, 90, 165, 165, 90, 2, 0.466144
243, 6, bw, attraction, a-b-db, 5, 1, 3, 13, 58, 132, 60, 135, 135, 60, 2, 0.637221
243, 6, bw, attraction, a-b-db, 5, 1, 3, 13, 58, 132, 60, 135, 135, 60, 1, 0.378337
243, 6, bw, attraction, a-b-db, 14, 3, 3, 14, 120, 195, 195, 120, 111, 181, 2, 0.384791
243, 6, bw, attraction, a-b-db, 14, 3, 3, 14, 120, 195, 195, 120, 111, 181, 3, 0.512636
243, 6, bw, attraction, a-b-db, 5, 2, 3, 15, 88, 161, 165, 90, 90, 165, 2, 0.489784
243, 6, bw, attraction, a-b-db, 5, 2, 3, 15, 88, 161, 165, 90, 90, 165, 3, 0.444887
243, 6, bw, attraction, a-b-da, 14, 1, 3, 16, 125, 56, 135, 60, 60, 135, 2, 0.480864
243, 6, bw, attraction, a-b-da, 14, 1, 3, 16, 125, 56, 135, 60, 60, 135, 1, 0.484525
243, 6, bw, filler, NA, 999, 999, 3, 17, 141, 79, 109, 107, 163, 87, 3, 1.38315
243, 6, bw, filler, NA, 999, 999, 3, 17, 141, 79, 109, 107, 163, 87, 1, 0.854625
243, 6, bw, filler, NA, 999, 999, 3, 18, 172, 107, 65, 74, 158, 151, 3, 0.994322
243, 6, bw, filler, NA, 999, 999, 3, 18, 172, 107, 65, 74, 158, 151, 2, 0.817271
243, 6, bw, catch, NA, 999, 999, 3, 19, 193, 122, 109, 86, 149, 106, 1, 0.934233
243, 6, bw, catch, NA, 999, 999, 3, 19, 193, 122, 109, 86, 149, 106, 2, 0.528021
243, 6, bw, attraction, a-b-da, 9, 3, 3, 20, 120, 195, 195, 120, 186, 114, 2, 1.13642
243, 6, bw, attraction, a-b-da, 9, 3, 3, 20, 120, 195, 195, 120, 186, 114, 1, 2.12931
243, 6, bw, attraction, a-b-da, 2, 3, 3, 21, 193, 119, 120, 195, 195, 120, 2, 0.569235
243, 6, bw, attraction, a-b-da, 2, 3, 3, 21, 193, 119, 120, 195, 195, 120, 1, 0.577764
243, 6, bw, attraction, a-b-db, 2, 1, 3, 22, 60, 135, 135, 60, 59, 134, 2, 0.61621
243, 6, bw, attraction, a-b-db, 2, 1, 3, 22, 60, 135, 135, 60, 59, 134, 3, 0.374496
243, 6, bw, filler, NA, 999, 999, 3, 23, 96, 100, 119, 164, 186, 95, 2, 0.701093
243, 6, bw, filler, NA, 999, 999, 3, 23, 96, 100, 119, 164, 186, 95, 1, 0.680257
243, 6, bw, filler, NA, 999, 999, 3, 24, 99, 127, 64, 136, 149, 192, 3, 0.858514
243, 6, bw, filler, NA, 999, 999, 3, 24, 99, 127, 64, 136, 149, 192, 2, 0.702993
243, 6, bw, filler, NA, 999, 999, 3, 25, 150, 175, 127, 84, 76, 189, 1, 0.808599
243, 6, bw, filler, NA, 999, 999, 3, 25, 150, 175, 127, 84, 76, 189, 2, 0.30305
243, 6, bw, catch, NA, 999, 999, 3, 26, 102, 93, 118, 137, 191, 124, 3, 0.48095
243, 6, bw, catch, NA, 999, 999, 3, 26, 102, 93, 118, 137, 191, 124, 2, 0.316799
243, 6, bw, attraction, a-b-db, 2, 2, 3, 27, 165, 90, 89, 163, 90, 165, 2, 0.822004
243, 6, bw, attraction, a-b-db, 2, 2, 3, 27, 165, 90, 89, 163, 90, 165, 3, 0.339608
243, 6, bw, filler, NA, 999, 999, 3, 28, 171, 63, 159, 121, 183, 137, 3, 0.835391
243, 6, bw, filler, NA, 999, 999, 3, 28, 171, 63, 159, 121, 183, 137, 2, 0.457292
243, 6, bw, attraction, a-b-db, 2, 3, 3, 29, 195, 120, 120, 195, 119, 193, 2, 0.572247
243, 6, bw, attraction, a-b-db, 2, 3, 3, 29, 195, 120, 120, 195, 119, 193, 1, 0.388107
243, 6, bw, attraction, a-b-da, 14, 3, 3, 30, 181, 111, 120, 195, 195, 120, 2, 0.410531
243, 6, bw, attraction, a-b-da, 14, 3, 3, 30, 181, 111, 120, 195, 195, 120, 1, 0.37698
243, 6, bw, filler, NA, 999, 999, 3, 31, 68, 67, 118, 130, 103, 149, 2, 0.511628
243, 6, bw, filler, NA, 999, 999, 3, 31, 68, 67, 118, 130, 103, 149, 1, 0.521969
243, 6, bw, catch, NA, 999, 999, 3, 32, 167, 148, 67, 128, 148, 107, 1, 1.13914
243, 6, bw, catch, NA, 999, 999, 3, 32, 167, 148, 67, 128, 148, 107, 2, 0.324112
243, 6, bw, filler, NA, 999, 999, 3, 33, 81, 91, 186, 84, 164, 159, 3, 0.492562
243, 6, bw, filler, NA, 999, 999, 3, 33, 81, 91, 186, 84, 164, 159, 2, 0.359728
243, 6, bw, attraction, a-b-da, 5, 2, 3, 34, 165, 90, 161, 88, 90, 165, 1, 0.99096
243, 6, bw, attraction, a-b-da, 5, 2, 3, 34, 165, 90, 161, 88, 90, 165, 2, 0.285932
243, 6, bw, attraction, a-b-da, 9, 2, 3, 35, 90, 165, 165, 90, 157, 86, 1, 0.680433
243, 6, bw, attraction, a-b-da, 9, 2, 3, 35, 90, 165, 165, 90, 157, 86, 2, 0.284297
243, 6, bw, attraction, a-b-db, 9, 3, 3, 36, 195, 120, 114, 186, 120, 195, 2, 1.42282
243, 6, bw, attraction, a-b-db, 9, 3, 3, 36, 195, 120, 114, 186, 120, 195, 1, 0.316381
243, 6, bw, filler, NA, 999, 999, 3, 37, 168, 138, 95, 122, 182, 57, 1, 0.637458
243, 6, bw, filler, NA, 999, 999, 3, 37, 168, 138, 95, 122, 182, 57, 2, 0.290582
243, 6, bw, catch, NA, 999, 999, 4, 1, 130, 185, 128, 127, 129, 66, 1, 0.64431
243, 6, bw, catch, NA, 999, 999, 4, 1, 130, 185, 128, 127, 129, 66, 2, 0.305638
243, 6, bw, filler, NA, 999, 999, 4, 2, 142, 186, 95, 133, 110, 126, 1, 0.499301
243, 6, bw, filler, NA, 999, 999, 4, 2, 142, 186, 95, 133, 110, 126, 2, 0.446511
243, 6, bw, filler, NA, 999, 999, 4, 3, 155, 118, 84, 136, 135, 58, 1, 0.522274
243, 6, bw, filler, NA, 999, 999, 4, 3, 155, 118, 84, 136, 135, 58, 2, 0.332075
243, 6, bw, attraction, a-b-db, 9, 3, 4, 4, 195, 120, 120, 195, 114, 186, 1, 0.492612
243, 6, bw, attraction, a-b-db, 9, 3, 4, 4, 195, 120, 120, 195, 114, 186, 2, 0.311746
243, 6, bw, attraction, a-b-da, 5, 1, 4, 5, 132, 58, 60, 135, 135, 60, 1, 0.736963
243, 6, bw, attraction, a-b-da, 5, 1, 4, 5, 132, 58, 60, 135, 135, 60, 2, 0.370759
243, 6, bw, attraction, a-b-da, 9, 3, 4, 6, 195, 120, 120, 195, 186, 114, 1, 0.513854
243, 6, bw, attraction, a-b-da, 9, 3, 4, 6, 195, 120, 120, 195, 186, 114, 2, 0.324358
243, 6, bw, attraction, a-b-db, 2, 1, 4, 7, 135, 60, 59, 134, 60, 135, 1, 0.428757
243, 6, bw, attraction, a-b-db, 2, 1, 4, 7, 135, 60, 59, 134, 60, 135, 2, 0.570594
243, 6, bw, attraction, a-b-da, 2, 3, 4, 8, 120, 195, 193, 119, 195, 120, 1, 0.625843
243, 6, bw, attraction, a-b-da, 2, 3, 4, 8, 120, 195, 193, 119, 195, 120, 2, 0.343532
243, 6, bw, attraction, a-b-da, 14, 2, 4, 9, 90, 165, 165, 90, 153, 83, 1, 0.543406
243, 6, bw, attraction, a-b-da, 14, 2, 4, 9, 90, 165, 165, 90, 153, 83, 2, 0.352513
243, 6, bw, filler, NA, 999, 999, 4, 10, 77, 194, 91, 147, 123, 193, 3, 1.28829
243, 6, bw, filler, NA, 999, 999, 4, 10, 77, 194, 91, 147, 123, 193, 2, 0.3553
243, 6, bw, filler, NA, 999, 999, 4, 11, 101, 70, 142, 116, 81, 147, 2, 0.675126
243, 6, bw, filler, NA, 999, 999, 4, 11, 101, 70, 142, 116, 81, 147, 1, 0.40689
243, 6, bw, filler, NA, 999, 999, 4, 12, 171, 57, 69, 150, 139, 78, 3, 0.755988
243, 6, bw, filler, NA, 999, 999, 4, 12, 171, 57, 69, 150, 139, 78, 1, 0.844434
243, 6, bw, attraction, a-b-db, 2, 3, 4, 13, 195, 120, 120, 195, 119, 193, 2, 1.24001
243, 6, bw, attraction, a-b-db, 2, 3, 4, 13, 195, 120, 120, 195, 119, 193, 1, 0.308925
243, 6, bw, filler, NA, 999, 999, 4, 14, 70, 136, 89, 185, 108, 193, 2, 0.830194
243, 6, bw, filler, NA, 999, 999, 4, 14, 70, 136, 89, 185, 108, 193, 1, 0.459883
243, 6, bw, attraction, a-b-db, 9, 1, 4, 15, 60, 135, 57, 129, 135, 60, 2, 0.735079
243, 6, bw, attraction, a-b-db, 9, 1, 4, 15, 60, 135, 57, 129, 135, 60, 1, 0.432663
243, 6, bw, catch, NA, 999, 999, 4, 16, 82, 113, 144, 171, 150, 105, 2, 1.03726
243, 6, bw, catch, NA, 999, 999, 4, 16, 82, 113, 144, 171, 150, 105, 1, 0.498148
243, 6, bw, attraction, a-b-da, 5, 3, 4, 17, 195, 120, 120, 195, 190, 117, 2, 1.22007
243, 6, bw, attraction, a-b-da, 5, 3, 4, 17, 195, 120, 120, 195, 190, 117, 3, 1.20218
243, 6, bw, attraction, a-b-db, 9, 2, 4, 18, 90, 165, 165, 90, 86, 157, 2, 1.10388
243, 6, bw, attraction, a-b-db, 9, 2, 4, 18, 90, 165, 165, 90, 86, 157, 1, 0.370042
243, 6, bw, filler, NA, 999, 999, 4, 19, 125, 62, 81, 96, 77, 73, 2, 0.697196
243, 6, bw, filler, NA, 999, 999, 4, 19, 125, 62, 81, 96, 77, 73, 3, 0.452341
243, 6, bw, catch, NA, 999, 999, 4, 20, 99, 156, 186, 129, 97, 98, 2, 0.504206
243, 6, bw, catch, NA, 999, 999, 4, 20, 99, 156, 186, 129, 97, 98, 3, 0.730594
243, 6, bw, attraction, a-b-db, 5, 2, 4, 21, 90, 165, 88, 161, 165, 90, 3, 0.906995
243, 6, bw, attraction, a-b-db, 5, 2, 4, 21, 90, 165, 88, 161, 165, 90, 2, 0.317359
243, 6, bw, attraction, a-b-db, 14, 2, 4, 22, 83, 153, 165, 90, 90, 165, 2, 0.790667
243, 6, bw, attraction, a-b-db, 14, 2, 4, 22, 83, 153, 165, 90, 90, 165, 3, 0.349637
243, 6, bw, attraction, a-b-db, 5, 3, 4, 23, 117, 190, 120, 195, 195, 120, 2, 0.621535
243, 6, bw, attraction, a-b-db, 5, 3, 4, 23, 117, 190, 120, 195, 195, 120, 3, 0.571285
243, 6, bw, filler, NA, 999, 999, 4, 24, 57, 94, 62, 60, 95, 64, 2, 0.730283
243, 6, bw, filler, NA, 999, 999, 4, 24, 57, 94, 62, 60, 95, 64, 3, 1.84414
243, 6, bw, attraction, a-b-da, 14, 1, 4, 25, 125, 56, 135, 60, 60, 135, 3, 1.12737
243, 6, bw, attraction, a-b-da, 14, 1, 4, 25, 125, 56, 135, 60, 60, 135, 2, 0.489039
243, 6, bw, filler, NA, 999, 999, 4, 26, 108, 89, 119, 128, 76, 77, 2, 0.98751
243, 6, bw, filler, NA, 999, 999, 4, 26, 108, 89, 119, 128, 76, 77, 3, 0.338515
243, 6, bw, attraction, a-b-db, 14, 1, 4, 27, 56, 125, 135, 60, 60, 135, 3, 0.795011
243, 6, bw, attraction, a-b-db, 14, 1, 4, 27, 56, 125, 135, 60, 60, 135, 2, 0.842057
243, 6, bw, attraction, a-b-da, 14, 3, 4, 28, 195, 120, 120, 195, 181, 111, 1, 2.06972
243, 6, bw, attraction, a-b-da, 14, 3, 4, 28, 195, 120, 120, 195, 181, 111, 3, 0.641792
243, 6, bw, attraction, a-b-da, 9, 2, 4, 29, 157, 86, 90, 165, 165, 90, 2, 1.27745
243, 6, bw, attraction, a-b-da, 9, 2, 4, 29, 157, 86, 90, 165, 165, 90, 3, 0.504999
243, 6, bw, attraction, a-b-db, 14, 3, 4, 30, 120, 195, 195, 120, 111, 181, 1, 1.76287
243, 6, bw, attraction, a-b-db, 14, 3, 4, 30, 120, 195, 195, 120, 111, 181, 3, 0.522885
243, 6, bw, attraction, a-b-da, 2, 1, 4, 31, 135, 60, 60, 135, 134, 59, 2, 0.683291
243, 6, bw, attraction, a-b-da, 2, 1, 4, 31, 135, 60, 60, 135, 134, 59, 1, 0.511043
243, 6, bw, attraction, a-b-da, 2, 2, 4, 32, 90, 165, 163, 89, 165, 90, 2, 0.67219
243, 6, bw, attraction, a-b-da, 2, 2, 4, 32, 90, 165, 163, 89, 165, 90, 1, 0.379918
243, 6, bw, attraction, a-b-da, 9, 1, 4, 33, 129, 57, 60, 135, 135, 60, 2, 0.49043
243, 6, bw, attraction, a-b-da, 9, 1, 4, 33, 129, 57, 60, 135, 135, 60, 1, 0.373697
243, 6, bw, filler, NA, 999, 999, 4, 34, 175, 67, 141, 114, 98, 138, 2, 0.900084
243, 6, bw, filler, NA, 999, 999, 4, 34, 175, 67, 141, 114, 98, 138, 3, 0.335103
243, 6, bw, attraction, a-b-db, 5, 1, 4, 35, 135, 60, 58, 132, 60, 135, 2, 0.567638
243, 6, bw, attraction, a-b-db, 5, 1, 4, 35, 135, 60, 58, 132, 60, 135, 1, 0.552052
243, 6, bw, attraction, a-b-db, 2, 2, 4, 36, 90, 165, 89, 163, 165, 90, 2, 0.543947
243, 6, bw, attraction, a-b-db, 2, 2, 4, 36, 90, 165, 89, 163, 165, 90, 3, 0.360945
243, 6, bw, attraction, a-b-da, 5, 2, 4, 37, 165, 90, 90, 165, 161, 88, 2, 0.392144
243, 6, bw, attraction, a-b-da, 5, 2, 4, 37, 165, 90, 90, 165, 161, 88, 3, 0.399347
243, 6, bw, attraction, a-b-db, 9, 3, 5, 1, 120, 195, 195, 120, 114, 186, 2, 0.891796
243, 6, bw, attraction, a-b-db, 9, 3, 5, 1, 120, 195, 195, 120, 114, 186, 3, 0.414774
243, 6, bw, attraction, a-b-da, 9, 3, 5, 2, 195, 120, 186, 114, 120, 195, 2, 0.652056
243, 6, bw, attraction, a-b-da, 9, 3, 5, 2, 195, 120, 186, 114, 120, 195, 1, 0.369127
243, 6, bw, attraction, a-b-db, 9, 1, 5, 3, 60, 135, 57, 129, 135, 60, 2, 0.720273
243, 6, bw, attraction, a-b-db, 9, 1, 5, 3, 60, 135, 57, 129, 135, 60, 3, 0.338748
243, 6, bw, attraction, a-b-db, 2, 1, 5, 4, 135, 60, 60, 135, 59, 134, 1, 1.01115
243, 6, bw, attraction, a-b-db, 2, 1, 5, 4, 135, 60, 60, 135, 59, 134, 2, 0.425522
243, 6, bw, attraction, a-b-db, 5, 1, 5, 5, 60, 135, 58, 132, 135, 60, 3, 1.42992
243, 6, bw, attraction, a-b-db, 5, 1, 5, 5, 60, 135, 58, 132, 135, 60, 2, 0.387479
243, 6, bw, filler, NA, 999, 999, 5, 6, 164, 183, 190, 181, 142, 166, 2, 0.753935
243, 6, bw, filler, NA, 999, 999, 5, 6, 164, 183, 190, 181, 142, 166, 3, 0.35445
243, 6, bw, attraction, a-b-db, 14, 1, 5, 7, 60, 135, 56, 125, 135, 60, 2, 0.730151
243, 6, bw, attraction, a-b-db, 14, 1, 5, 7, 60, 135, 56, 125, 135, 60, 3, 0.340028
243, 6, bw, attraction, a-b-da, 2, 2, 5, 8, 165, 90, 163, 89, 90, 165, 2, 0.659862
243, 6, bw, attraction, a-b-da, 2, 2, 5, 8, 165, 90, 163, 89, 90, 165, 3, 0.360209
243, 6, bw, filler, NA, 999, 999, 5, 9, 170, 96, 77, 114, 146, 181, 3, 0.615321
243, 6, bw, filler, NA, 999, 999, 5, 9, 170, 96, 77, 114, 146, 181, 2, 0.341784
243, 6, bw, catch, NA, 999, 999, 5, 10, 82, 113, 156, 99, 170, 145, 3, 0.821612
243, 6, bw, catch, NA, 999, 999, 5, 10, 82, 113, 156, 99, 170, 145, 1, 0.291374
243, 6, bw, filler, NA, 999, 999, 5, 11, 188, 82, 125, 94, 57, 167, 1, 0.725193
243, 6, bw, filler, NA, 999, 999, 5, 11, 188, 82, 125, 94, 57, 167, 2, 0.302992
243, 6, bw, attraction, a-b-db, 5, 2, 5, 12, 165, 90, 88, 161, 90, 165, 2, 1.26481
243, 6, bw, attraction, a-b-db, 5, 2, 5, 12, 165, 90, 88, 161, 90, 165, 1, 0.677114
243, 6, bw, attraction, a-b-da, 5, 1, 5, 13, 135, 60, 132, 58, 60, 135, 2, 0.807458
243, 6, bw, attraction, a-b-da, 5, 1, 5, 13, 135, 60, 132, 58, 60, 135, 1, 0.549834
243, 6, bw, attraction, a-b-da, 14, 3, 5, 14, 120, 195, 195, 120, 181, 111, 2, 0.629582
243, 6, bw, attraction, a-b-da, 14, 3, 5, 14, 120, 195, 195, 120, 181, 111, 3, 0.331391
243, 6, bw, attraction, a-b-db, 14, 2, 5, 15, 165, 90, 90, 165, 83, 153, 2, 0.435967
243, 6, bw, attraction, a-b-db, 14, 2, 5, 15, 165, 90, 90, 165, 83, 153, 3, 0.377738
243, 6, bw, attraction, a-b-da, 14, 1, 5, 16, 135, 60, 125, 56, 60, 135, 3, 0.832237
243, 6, bw, attraction, a-b-da, 14, 1, 5, 16, 135, 60, 125, 56, 60, 135, 2, 0.365947
243, 6, bw, attraction, a-b-da, 5, 3, 5, 17, 190, 117, 120, 195, 195, 120, 2, 0.709099
243, 6, bw, attraction, a-b-da, 5, 3, 5, 17, 190, 117, 120, 195, 195, 120, 3, 0.343627
243, 6, bw, filler, NA, 999, 999, 5, 18, 114, 102, 145, 171, 118, 103, 2, 0.519342
243, 6, bw, filler, NA, 999, 999, 5, 18, 114, 102, 145, 171, 118, 103, 3, 0.393847
243, 6, bw, attraction, a-b-db, 14, 3, 5, 19, 120, 195, 195, 120, 111, 181, 2, 0.503633
243, 6, bw, attraction, a-b-db, 14, 3, 5, 19, 120, 195, 195, 120, 111, 181, 3, 0.314114
243, 6, bw, attraction, a-b-da, 9, 2, 5, 20, 165, 90, 90, 165, 157, 86, 2, 0.467267
243, 6, bw, attraction, a-b-da, 9, 2, 5, 20, 165, 90, 90, 165, 157, 86, 3, 0.503765
243, 6, bw, attraction, a-b-da, 9, 1, 5, 21, 60, 135, 135, 60, 129, 57, 2, 0.569576
243, 6, bw, attraction, a-b-da, 9, 1, 5, 21, 60, 135, 135, 60, 129, 57, 3, 0.602093
243, 6, bw, catch, NA, 999, 999, 5, 22, 160, 155, 97, 98, 109, 146, 1, 0.967788
243, 6, bw, catch, NA, 999, 999, 5, 22, 160, 155, 97, 98, 109, 146, 2, 0.392127
243, 6, bw, attraction, a-b-da, 2, 3, 5, 23, 195, 120, 120, 195, 193, 119, 2, 0.453885
243, 6, bw, attraction, a-b-da, 2, 3, 5, 23, 195, 120, 120, 195, 193, 119, 3, 0.498433
243, 6, bw, attraction, a-b-da, 14, 2, 5, 24, 90, 165, 165, 90, 153, 83, 2, 0.380194
243, 6, bw, attraction, a-b-da, 14, 2, 5, 24, 90, 165, 165, 90, 153, 83, 3, 0.380201
243, 6, bw, filler, NA, 999, 999, 5, 25, 161, 99, 86, 107, 192, 76, 2, 0.378539
243, 6, bw, filler, NA, 999, 999, 5, 25, 161, 99, 86, 107, 192, 76, 3, 0.978483
243, 6, bw, attraction, a-b-db, 2, 2, 5, 26, 89, 163, 165, 90, 90, 165, 2, 1.1287
243, 6, bw, attraction, a-b-db, 2, 2, 5, 26, 89, 163, 165, 90, 90, 165, 3, 0.570334
243, 6, bw, catch, NA, 999, 999, 5, 27, 80, 115, 165, 90, 123, 192, 3, 0.641416
243, 6, bw, catch, NA, 999, 999, 5, 27, 80, 115, 165, 90, 123, 192, 1, 0.526592
243, 6, bw, filler, NA, 999, 999, 5, 28, 112, 77, 99, 176, 153, 175, 3, 0.494967
243, 6, bw, filler, NA, 999, 999, 5, 28, 112, 77, 99, 176, 153, 175, 1, 0.442172
243, 6, bw, filler, NA, 999, 999, 5, 29, 127, 67, 138, 109, 60, 104, 2, 1.11793
243, 6, bw, filler, NA, 999, 999, 5, 29, 127, 67, 138, 109, 60, 104, 3, 0.576236
243, 6, bw, attraction, a-b-db, 9, 2, 5, 30, 90, 165, 165, 90, 86, 157, 2, 0.686669
243, 6, bw, attraction, a-b-db, 9, 2, 5, 30, 90, 165, 165, 90, 86, 157, 3, 0.401804
243, 6, bw, filler, NA, 999, 999, 5, 31, 159, 103, 157, 165, 57, 175, 2, 0.535511
243, 6, bw, filler, NA, 999, 999, 5, 31, 159, 103, 157, 165, 57, 175, 3, 0.833363
243, 6, bw, filler, NA, 999, 999, 5, 32, 158, 114, 109, 83, 94, 89, 1, 0.741758
243, 6, bw, filler, NA, 999, 999, 5, 32, 158, 114, 109, 83, 94, 89, 2, 0.470783
243, 6, bw, attraction, a-b-db, 5, 3, 5, 33, 120, 195, 195, 120, 117, 190, 1, 0.689886
243, 6, bw, attraction, a-b-db, 5, 3, 5, 33, 120, 195, 195, 120, 117, 190, 2, 0.317064
243, 6, bw, attraction, a-b-db, 2, 3, 5, 34, 120, 195, 119, 193, 195, 120, 3, 1.7902
243, 6, bw, attraction, a-b-db, 2, 3, 5, 34, 120, 195, 119, 193, 195, 120, 2, 0.260958
243, 6, bw, attraction, a-b-da, 5, 2, 5, 35, 165, 90, 90, 165, 161, 88, 2, 3.33614
243, 6, bw, attraction, a-b-da, 5, 2, 5, 35, 165, 90, 90, 165, 161, 88, 3, 0.545086
243, 6, bw, attraction, a-b-da, 2, 1, 5, 36, 135, 60, 60, 135, 134, 59, 2, 1.76096
243, 6, bw, attraction, a-b-da, 2, 1, 5, 36, 135, 60, 60, 135, 134, 59, 3, 1.57702
243, 6, bw, filler, NA, 999, 999, 5, 37, 182, 159, 130, 140, 181, 132, 1, 0.894997
243, 6, bw, filler, NA, 999, 999, 5, 37, 182, 159, 130, 140, 181, 132, 2, 0.602031
243, 6, bw, attraction, a-b-db, 14, 3, 6, 1, 195, 120, 120, 195, 111, 181, 2, 0.655779
243, 6, bw, attraction, a-b-db, 14, 3, 6, 1, 195, 120, 120, 195, 111, 181, 1, 0.436336
243, 6, bw, catch, NA, 999, 999, 6, 2, 114, 81, 133, 122, 155, 160, 3, 0.768703
243, 6, bw, catch, NA, 999, 999, 6, 2, 114, 81, 133, 122, 155, 160, 1, 0.481134
243, 6, bw, attraction, a-b-db, 9, 3, 6, 3, 114, 186, 195, 120, 120, 195, 2, 2.95571
243, 6, bw, attraction, a-b-db, 9, 3, 6, 3, 114, 186, 195, 120, 120, 195, 1, 0.755285
243, 6, bw, attraction, a-b-db, 9, 2, 6, 4, 86, 157, 165, 90, 90, 165, 2, 1.52298
243, 6, bw, attraction, a-b-db, 9, 2, 6, 4, 86, 157, 165, 90, 90, 165, 3, 0.348692
243, 6, bw, filler, NA, 999, 999, 6, 5, 102, 82, 104, 89, 154, 79, 3, 0.796351
243, 6, bw, filler, NA, 999, 999, 6, 5, 102, 82, 104, 89, 154, 79, 1, 0.363435
243, 6, bw, attraction, a-b-db, 2, 3, 6, 6, 120, 195, 195, 120, 119, 193, 2, 0.58648
243, 6, bw, attraction, a-b-db, 2, 3, 6, 6, 120, 195, 195, 120, 119, 193, 3, 0.314431
243, 6, bw, filler, NA, 999, 999, 6, 7, 128, 92, 145, 127, 121, 138, 2, 0.531512
243, 6, bw, filler, NA, 999, 999, 6, 7, 128, 92, 145, 127, 121, 138, 3, 0.333415
243, 6, bw, attraction, a-b-da, 14, 2, 6, 8, 90, 165, 165, 90, 153, 83, 3, 1.02989
243, 6, bw, attraction, a-b-da, 14, 2, 6, 8, 90, 165, 165, 90, 153, 83, 1, 0.315629
243, 6, bw, attraction, a-b-da, 14, 1, 6, 9, 60, 135, 125, 56, 135, 60, 3, 0.684692
243, 6, bw, attraction, a-b-da, 14, 1, 6, 9, 60, 135, 125, 56, 135, 60, 1, 0.2804
243, 6, bw, filler, NA, 999, 999, 6, 10, 140, 173, 191, 144, 94, 93, 2, 2.53896
243, 6, bw, filler, NA, 999, 999, 6, 10, 140, 173, 191, 144, 94, 93, 3, 0.467455
243, 6, bw, attraction, a-b-db, 5, 3, 6, 11, 195, 120, 120, 195, 117, 190, 3, 1.3346
243, 6, bw, attraction, a-b-db, 5, 3, 6, 11, 195, 120, 120, 195, 117, 190, 1, 2.5042
243, 6, bw, filler, NA, 999, 999, 6, 12, 66, 155, 180, 75, 131, 165, 3, 0.649344
243, 6, bw, filler, NA, 999, 999, 6, 12, 66, 155, 180, 75, 131, 165, 2, 1.03051
243, 6, bw, filler, NA, 999, 999, 6, 13, 169, 179, 147, 114, 175, 155, 3, 0.546882
243, 6, bw, filler, NA, 999, 999, 6, 13, 169, 179, 147, 114, 175, 155, 2, 1.22784
243, 6, bw, attraction, a-b-db, 5, 2, 6, 14, 165, 90, 88, 161, 90, 165, 1, 0.992019
243, 6, bw, attraction, a-b-db, 5, 2, 6, 14, 165, 90, 88, 161, 90, 165, 2, 0.34296
243, 6, bw, filler, NA, 999, 999, 6, 15, 169, 167, 103, 186, 69, 70, 1, 0.830807
243, 6, bw, filler, NA, 999, 999, 6, 15, 169, 167, 103, 186, 69, 70, 2, 0.428546
243, 6, bw, filler, NA, 999, 999, 6, 16, 107, 101, 160, 192, 165, 137, 2, 1.88903
243, 6, bw, filler, NA, 999, 999, 6, 16, 107, 101, 160, 192, 165, 137, 1, 0.643778
243, 6, bw, attraction, a-b-da, 9, 1, 6, 17, 60, 135, 129, 57, 135, 60, 2, 1.49546
243, 6, bw, attraction, a-b-da, 9, 1, 6, 17, 60, 135, 129, 57, 135, 60, 1, 0.474552
243, 6, bw, attraction, a-b-da, 2, 2, 6, 18, 163, 89, 90, 165, 165, 90, 2, 0.532891
243, 6, bw, attraction, a-b-da, 2, 2, 6, 18, 163, 89, 90, 165, 165, 90, 1, 0.374601
243, 6, bw, attraction, a-b-db, 2, 2, 6, 19, 165, 90, 89, 163, 90, 165, 2, 0.421177
243, 6, bw, attraction, a-b-db, 2, 2, 6, 19, 165, 90, 89, 163, 90, 165, 1, 0.36297
243, 6, bw, attraction, a-b-da, 2, 1, 6, 20, 135, 60, 60, 135, 134, 59, 2, 0.450078
243, 6, bw, attraction, a-b-da, 2, 1, 6, 20, 135, 60, 60, 135, 134, 59, 1, 0.375236
243, 6, bw, attraction, a-b-db, 2, 1, 6, 21, 59, 134, 60, 135, 135, 60, 2, 0.501765
243, 6, bw, attraction, a-b-db, 2, 1, 6, 21, 59, 134, 60, 135, 135, 60, 1, 0.360915
243, 6, bw, filler, NA, 999, 999, 6, 22, 185, 92, 143, 107, 129, 72, 2, 0.456026
243, 6, bw, filler, NA, 999, 999, 6, 22, 185, 92, 143, 107, 129, 72, 3, 0.804554
243, 6, bw, attraction, a-b-da, 2, 3, 6, 23, 120, 195, 193, 119, 195, 120, 2, 0.690324
243, 6, bw, attraction, a-b-da, 2, 3, 6, 23, 120, 195, 193, 119, 195, 120, 1, 1.65343
243, 6, bw, attraction, a-b-da, 9, 2, 6, 24, 90, 165, 157, 86, 165, 90, 1, 1.33683
243, 6, bw, attraction, a-b-da, 9, 2, 6, 24, 90, 165, 157, 86, 165, 90, 2, 0.354383
243, 6, bw, attraction, a-b-da, 14, 3, 6, 25, 120, 195, 181, 111, 195, 120, 3, 0.442131
243, 6, bw, attraction, a-b-da, 14, 3, 6, 25, 120, 195, 181, 111, 195, 120, 2, 0.319424
243, 6, bw, attraction, a-b-db, 14, 2, 6, 26, 90, 165, 165, 90, 83, 153, 3, 0.4885
243, 6, bw, attraction, a-b-db, 14, 2, 6, 26, 90, 165, 165, 90, 83, 153, 2, 0.363687
243, 6, bw, attraction, a-b-db, 5, 1, 6, 27, 135, 60, 60, 135, 58, 132, 3, 0.450836
243, 6, bw, attraction, a-b-db, 5, 1, 6, 27, 135, 60, 60, 135, 58, 132, 2, 0.392096
243, 6, bw, filler, NA, 999, 999, 6, 28, 148, 84, 128, 139, 62, 163, 2, 0.717818
243, 6, bw, filler, NA, 999, 999, 6, 28, 148, 84, 128, 139, 62, 163, 3, 0.376307
243, 6, bw, attraction, a-b-da, 5, 3, 6, 29, 190, 117, 120, 195, 195, 120, 2, 0.734755
243, 6, bw, attraction, a-b-da, 5, 3, 6, 29, 190, 117, 120, 195, 195, 120, 3, 0.256471
243, 6, bw, attraction, a-b-da, 5, 1, 6, 30, 60, 135, 132, 58, 135, 60, 2, 0.763628
243, 6, bw, attraction, a-b-da, 5, 1, 6, 30, 60, 135, 132, 58, 135, 60, 3, 0.268098
243, 6, bw, attraction, a-b-da, 5, 2, 6, 31, 165, 90, 161, 88, 90, 165, 2, 1.07123
243, 6, bw, attraction, a-b-da, 5, 2, 6, 31, 165, 90, 161, 88, 90, 165, 3, 0.202889
243, 6, bw, attraction, a-b-db, 14, 1, 6, 32, 60, 135, 56, 125, 135, 60, 2, 0.480776
243, 6, bw, attraction, a-b-db, 14, 1, 6, 32, 60, 135, 56, 125, 135, 60, 3, 0.340644
243, 6, bw, attraction, a-b-da, 9, 3, 6, 33, 120, 195, 186, 114, 195, 120, 2, 0.596453
243, 6, bw, attraction, a-b-da, 9, 3, 6, 33, 120, 195, 186, 114, 195, 120, 3, 0.331553
243, 6, bw, catch, NA, 999, 999, 6, 34, 106, 89, 138, 117, 193, 122, 3, 0.771996
243, 6, bw, catch, NA, 999, 999, 6, 34, 106, 89, 138, 117, 193, 122, 2, 0.299747
243, 6, bw, filler, NA, 999, 999, 6, 35, 192, 124, 120, 76, 183, 161, 3, 0.653632
243, 6, bw, filler, NA, 999, 999, 6, 35, 192, 124, 120, 76, 183, 161, 2, 0.346845
243, 6, bw, attraction, a-b-db, 9, 1, 6, 36, 60, 135, 57, 129, 135, 60, 3, 1.01862
243, 6, bw, attraction, a-b-db, 9, 1, 6, 36, 60, 135, 57, 129, 135, 60, 2, 0.400884
243, 6, bw, catch, NA, 999, 999, 6, 37, 127, 188, 76, 119, 128, 127, 1, 1.07077
243, 6, bw, catch, NA, 999, 999, 6, 37, 127, 188, 76, 119, 128, 127, 2, 0.282356
243, 6, bw, attraction, a-b-da, 14, 3, 7, 1, 120, 195, 195, 120, 181, 111, 1, 0.780883
243, 6, bw, attraction, a-b-da, 14, 3, 7, 1, 120, 195, 195, 120, 181, 111, 2, 0.252711
243, 6, bw, filler, NA, 999, 999, 7, 2, 159, 115, 180, 104, 105, 67, 2, 0.888534
243, 6, bw, filler, NA, 999, 999, 7, 2, 159, 115, 180, 104, 105, 67, 3, 0.339468
243, 6, bw, attraction, a-b-da, 14, 1, 7, 3, 60, 135, 135, 60, 125, 56, 3, 0.603366
243, 6, bw, attraction, a-b-da, 14, 1, 7, 3, 60, 135, 135, 60, 125, 56, 2, 0.306524
243, 6, bw, filler, NA, 999, 999, 7, 4, 57, 143, 114, 81, 193, 133, 3, 0.595671
243, 6, bw, filler, NA, 999, 999, 7, 4, 57, 143, 114, 81, 193, 133, 2, 0.346767
243, 6, bw, attraction, a-b-db, 14, 1, 7, 5, 135, 60, 60, 135, 56, 125, 1, 0.74658
243, 6, bw, attraction, a-b-db, 14, 1, 7, 5, 135, 60, 60, 135, 56, 125, 2, 0.299635
243, 6, bw, catch, NA, 999, 999, 7, 6, 180, 135, 163, 92, 76, 119, 2, 0.741493
243, 6, bw, catch, NA, 999, 999, 7, 6, 180, 135, 163, 92, 76, 119, 3, 0.31863
243, 6, bw, attraction, a-b-db, 14, 2, 7, 7, 90, 165, 83, 153, 165, 90, 2, 1.0158
243, 6, bw, attraction, a-b-db, 14, 2, 7, 7, 90, 165, 83, 153, 165, 90, 1, 0.350065
243, 6, bw, filler, NA, 999, 999, 7, 8, 127, 73, 137, 112, 81, 155, 2, 1.21388
243, 6, bw, filler, NA, 999, 999, 7, 8, 127, 73, 137, 112, 81, 155, 1, 0.948131
243, 6, bw, attraction, a-b-db, 5, 3, 7, 9, 195, 120, 117, 190, 120, 195, 2, 0.947908
243, 6, bw, attraction, a-b-db, 5, 3, 7, 9, 195, 120, 117, 190, 120, 195, 1, 0.316739
243, 6, bw, attraction, a-b-db, 9, 2, 7, 10, 165, 90, 90, 165, 86, 157, 2, 1.38214
243, 6, bw, attraction, a-b-db, 9, 2, 7, 10, 165, 90, 90, 165, 86, 157, 1, 0.925546
243, 6, bw, attraction, a-b-da, 5, 3, 7, 11, 190, 117, 120, 195, 195, 120, 2, 0.605773
243, 6, bw, attraction, a-b-da, 5, 3, 7, 11, 190, 117, 120, 195, 195, 120, 1, 0.796456
243, 6, bw, catch, NA, 999, 999, 7, 12, 120, 195, 149, 106, 103, 92, 1, 0.954
243, 6, bw, catch, NA, 999, 999, 7, 12, 120, 195, 149, 106, 103, 92, 3, 0.346405
243, 6, bw, filler, NA, 999, 999, 7, 13, 97, 105, 116, 177, 187, 71, 2, 0.562126
243, 6, bw, filler, NA, 999, 999, 7, 13, 97, 105, 116, 177, 187, 71, 1, 1.82663
243, 6, bw, attraction, a-b-da, 2, 3, 7, 14, 195, 120, 120, 195, 193, 119, 1, 0.786091
243, 6, bw, attraction, a-b-da, 2, 3, 7, 14, 195, 120, 120, 195, 193, 119, 2, 0.789738
243, 6, bw, attraction, a-b-db, 2, 3, 7, 15, 120, 195, 195, 120, 119, 193, 2, 0.627452
243, 6, bw, attraction, a-b-db, 2, 3, 7, 15, 120, 195, 195, 120, 119, 193, 1, 0.841194
243, 6, bw, attraction, a-b-db, 5, 2, 7, 16, 88, 161, 165, 90, 90, 165, 3, 1.28485
243, 6, bw, attraction, a-b-db, 5, 2, 7, 16, 88, 161, 165, 90, 90, 165, 2, 0.336454
243, 6, bw, attraction, a-b-da, 2, 2, 7, 17, 163, 89, 90, 165, 165, 90, 3, 0.816947
243, 6, bw, attraction, a-b-da, 2, 2, 7, 17, 163, 89, 90, 165, 165, 90, 2, 0.375298
243, 6, bw, filler, NA, 999, 999, 7, 18, 56, 63, 129, 171, 85, 163, 3, 0.493748
243, 6, bw, filler, NA, 999, 999, 7, 18, 56, 63, 129, 171, 85, 163, 2, 0.433084
243, 6, bw, attraction, a-b-db, 9, 1, 7, 19, 57, 129, 60, 135, 135, 60, 3, 0.52545
243, 6, bw, attraction, a-b-db, 9, 1, 7, 19, 57, 129, 60, 135, 135, 60, 2, 0.391275
243, 6, bw, attraction, a-b-da, 9, 2, 7, 20, 165, 90, 90, 165, 157, 86, 3, 0.58117
243, 6, bw, attraction, a-b-da, 9, 2, 7, 20, 165, 90, 90, 165, 157, 86, 2, 0.412875
243, 6, bw, attraction, a-b-db, 9, 3, 7, 21, 120, 195, 195, 120, 114, 186, 3, 0.353971
243, 6, bw, attraction, a-b-db, 9, 3, 7, 21, 120, 195, 195, 120, 114, 186, 2, 0.48259
243, 6, bw, filler, NA, 999, 999, 7, 22, 130, 97, 94, 167, 191, 181, 3, 0.749008
243, 6, bw, filler, NA, 999, 999, 7, 22, 130, 97, 94, 167, 191, 181, 1, 0.40605
243, 6, bw, attraction, a-b-da, 14, 2, 7, 23, 153, 83, 165, 90, 90, 165, 1, 1.17935
243, 6, bw, attraction, a-b-da, 14, 2, 7, 23, 153, 83, 165, 90, 90, 165, 3, 0.410854
243, 6, bw, attraction, a-b-da, 5, 1, 7, 24, 135, 60, 132, 58, 60, 135, 1, 1.16797
243, 6, bw, attraction, a-b-da, 5, 1, 7, 24, 135, 60, 132, 58, 60, 135, 3, 0.480253
243, 6, bw, attraction, a-b-db, 5, 1, 7, 25, 135, 60, 60, 135, 58, 132, 1, 1.0667
243, 6, bw, attraction, a-b-db, 5, 1, 7, 25, 135, 60, 60, 135, 58, 132, 2, 0.46301
243, 6, bw, filler, NA, 999, 999, 7, 26, 145, 175, 189, 93, 60, 141, 1, 0.594094
243, 6, bw, filler, NA, 999, 999, 7, 26, 145, 175, 189, 93, 60, 141, 2, 0.28124
243, 6, bw, attraction, a-b-da, 5, 2, 7, 27, 90, 165, 161, 88, 165, 90, 1, 0.659766
243, 6, bw, attraction, a-b-da, 5, 2, 7, 27, 90, 165, 161, 88, 165, 90, 2, 0.600197
243, 6, bw, filler, NA, 999, 999, 7, 28, 172, 81, 139, 89, 144, 132, 3, 0.493915
243, 6, bw, filler, NA, 999, 999, 7, 28, 172, 81, 139, 89, 144, 132, 2, 0.409085
243, 6, bw, attraction, a-b-da, 9, 3, 7, 29, 186, 114, 195, 120, 120, 195, 3, 0.43823
243, 6, bw, attraction, a-b-da, 9, 3, 7, 29, 186, 114, 195, 120, 120, 195, 2, 0.347421
243, 6, bw, attraction, a-b-db, 2, 2, 7, 30, 90, 165, 89, 163, 165, 90, 3, 0.483278
243, 6, bw, attraction, a-b-db, 2, 2, 7, 30, 90, 165, 89, 163, 165, 90, 2, 0.391024
243, 6, bw, attraction, a-b-da, 9, 1, 7, 31, 60, 135, 135, 60, 129, 57, 3, 0.436967
243, 6, bw, attraction, a-b-da, 9, 1, 7, 31, 60, 135, 135, 60, 129, 57, 2, 0.586795
243, 6, bw, attraction, a-b-db, 2, 1, 7, 32, 60, 135, 135, 60, 59, 134, 3, 0.425189
243, 6, bw, attraction, a-b-db, 2, 1, 7, 32, 60, 135, 135, 60, 59, 134, 2, 0.366985
243, 6, bw, filler, NA, 999, 999, 7, 33, 193, 77, 78, 127, 179, 167, 1, 0.580296
243, 6, bw, filler, NA, 999, 999, 7, 33, 193, 77, 78, 127, 179, 167, 2, 1.24619
243, 6, bw, filler, NA, 999, 999, 7, 34, 95, 66, 177, 161, 185, 149, 2, 0.761541
243, 6, bw, filler, NA, 999, 999, 7, 34, 95, 66, 177, 161, 185, 149, 1, 0.46592
243, 6, bw, attraction, a-b-db, 14, 3, 7, 35, 195, 120, 111, 181, 120, 195, 2, 0.509057
243, 6, bw, attraction, a-b-db, 14, 3, 7, 35, 195, 120, 111, 181, 120, 195, 1, 0.455596
243, 6, bw, attraction, a-b-da, 2, 1, 7, 36, 134, 59, 60, 135, 135, 60, 2, 0.491353
243, 6, bw, attraction, a-b-da, 2, 1, 7, 36, 134, 59, 60, 135, 135, 60, 3, 0.414505
243, 6, bw, catch, NA, 999, 999, 7, 37, 164, 91, 151, 164, 118, 77, 2, 0.29961
243, 6, bw, catch, NA, 999, 999, 7, 37, 164, 91, 151, 164, 118, 77, 3, 0.606849
243, 6, bw, attraction, a-b-db, 9, 1, 8, 1, 135, 60, 60, 135, 57, 129, 2, 0.395914
243, 6, bw, attraction, a-b-db, 9, 1, 8, 1, 135, 60, 60, 135, 57, 129, 1, 0.411104
243, 6, bw, attraction, a-b-da, 2, 2, 8, 2, 90, 165, 163, 89, 165, 90, 2, 0.43225
243, 6, bw, attraction, a-b-da, 2, 2, 8, 2, 90, 165, 163, 89, 165, 90, 3, 0.662106
243, 6, bw, attraction, a-b-da, 14, 2, 8, 3, 153, 83, 165, 90, 90, 165, 2, 0.34529
243, 6, bw, attraction, a-b-da, 14, 2, 8, 3, 153, 83, 165, 90, 90, 165, 1, 0.362351
243, 6, bw, filler, NA, 999, 999, 8, 4, 178, 158, 160, 160, 103, 76, 2, 0.449517
243, 6, bw, filler, NA, 999, 999, 8, 4, 178, 158, 160, 160, 103, 76, 3, 0.622667
243, 6, bw, catch, NA, 999, 999, 8, 5, 60, 135, 164, 91, 172, 143, 3, 0.851751
243, 6, bw, catch, NA, 999, 999, 8, 5, 60, 135, 164, 91, 172, 143, 2, 0.345034
243, 6, bw, filler, NA, 999, 999, 8, 6, 140, 108, 129, 167, 182, 158, 2, 0.472617
243, 6, bw, filler, NA, 999, 999, 8, 6, 140, 108, 129, 167, 182, 158, 1, 0.34844
243, 6, bw, attraction, a-b-da, 2, 3, 8, 7, 120, 195, 195, 120, 193, 119, 2, 0.468313
243, 6, bw, attraction, a-b-da, 2, 3, 8, 7, 120, 195, 195, 120, 193, 119, 3, 0.344807
243, 6, bw, attraction, a-b-da, 9, 1, 8, 8, 135, 60, 60, 135, 129, 57, 2, 0.34468
243, 6, bw, attraction, a-b-da, 9, 1, 8, 8, 135, 60, 60, 135, 129, 57, 1, 0.401803
243, 6, bw, filler, NA, 999, 999, 8, 9, 58, 61, 113, 127, 141, 182, 2, 0.303639
243, 6, bw, filler, NA, 999, 999, 8, 9, 58, 61, 113, 127, 141, 182, 1, 1.41091
243, 6, bw, attraction, a-b-db, 2, 2, 8, 10, 90, 165, 165, 90, 89, 163, 3, 1.12772
243, 6, bw, attraction, a-b-db, 2, 2, 8, 10, 90, 165, 165, 90, 89, 163, 2, 0.345309
243, 6, bw, attraction, a-b-da, 5, 1, 8, 11, 132, 58, 60, 135, 135, 60, 3, 0.673132
243, 6, bw, attraction, a-b-da, 5, 1, 8, 11, 132, 58, 60, 135, 135, 60, 2, 0.500889
243, 6, bw, attraction, a-b-db, 14, 1, 8, 12, 60, 135, 56, 125, 135, 60, 3, 0.630628
243, 6, bw, attraction, a-b-db, 14, 1, 8, 12, 60, 135, 56, 125, 135, 60, 2, 0.484467
243, 6, bw, filler, NA, 999, 999, 8, 13, 117, 149, 90, 148, 68, 86, 1, 0.942962
243, 6, bw, filler, NA, 999, 999, 8, 13, 117, 149, 90, 148, 68, 86, 3, 0.431959
243, 6, bw, catch, NA, 999, 999, 8, 14, 91, 104, 172, 143, 105, 150, 2, 0.484389
243, 6, bw, catch, NA, 999, 999, 8, 14, 91, 104, 172, 143, 105, 150, 3, 0.352253
243, 6, bw, attraction, a-b-db, 5, 2, 8, 15, 90, 165, 88, 161, 165, 90, 2, 0.424008
243, 6, bw, attraction, a-b-db, 5, 2, 8, 15, 90, 165, 88, 161, 165, 90, 1, 0.389866
243, 6, bw, attraction, a-b-da, 14, 1, 8, 16, 135, 60, 125, 56, 60, 135, 2, 0.86767
243, 6, bw, attraction, a-b-da, 14, 1, 8, 16, 135, 60, 125, 56, 60, 135, 3, 0.376162
243, 6, bw, filler, NA, 999, 999, 8, 17, 189, 56, 87, 82, 104, 186, 3, 0.702614
243, 6, bw, filler, NA, 999, 999, 8, 17, 189, 56, 87, 82, 104, 186, 2, 0.377633
243, 6, bw, attraction, a-b-da, 5, 3, 8, 18, 120, 195, 190, 117, 195, 120, 3, 0.624162
243, 6, bw, attraction, a-b-da, 5, 3, 8, 18, 120, 195, 190, 117, 195, 120, 2, 0.309931
243, 6, bw, attraction, a-b-da, 9, 3, 8, 19, 195, 120, 120, 195, 186, 114, 3, 0.495037
243, 6, bw, attraction, a-b-da, 9, 3, 8, 19, 195, 120, 120, 195, 186, 114, 2, 0.354242
243, 6, bw, filler, NA, 999, 999, 8, 20, 58, 82, 159, 168, 99, 163, 2, 0.986051
243, 6, bw, filler, NA, 999, 999, 8, 20, 58, 82, 159, 168, 99, 163, 1, 0.393724
243, 6, bw, attraction, a-b-db, 5, 1, 8, 21, 135, 60, 60, 135, 58, 132, 2, 0.51156
243, 6, bw, attraction, a-b-db, 5, 1, 8, 21, 135, 60, 60, 135, 58, 132, 1, 0.498064
243, 6, bw, filler, NA, 999, 999, 8, 22, 88, 119, 56, 73, 77, 165, 1, 0.979807
243, 6, bw, filler, NA, 999, 999, 8, 22, 88, 119, 56, 73, 77, 165, 2, 0.435469
243, 6, bw, attraction, a-b-db, 2, 3, 8, 23, 120, 195, 119, 193, 195, 120, 2, 0.704122
243, 6, bw, attraction, a-b-db, 2, 3, 8, 23, 120, 195, 119, 193, 195, 120, 3, 0.34644
243, 6, bw, attraction, a-b-da, 14, 3, 8, 24, 195, 120, 181, 111, 120, 195, 2, 0.538196
243, 6, bw, attraction, a-b-da, 14, 3, 8, 24, 195, 120, 181, 111, 120, 195, 3, 0.395537
243, 6, bw, attraction, a-b-db, 14, 2, 8, 25, 165, 90, 83, 153, 90, 165, 1, 0.905142
243, 6, bw, attraction, a-b-db, 14, 2, 8, 25, 165, 90, 83, 153, 90, 165, 3, 0.579517
243, 6, bw, attraction, a-b-da, 5, 2, 8, 26, 161, 88, 165, 90, 90, 165, 1, 0.529974
243, 6, bw, attraction, a-b-da, 5, 2, 8, 26, 161, 88, 165, 90, 90, 165, 3, 0.499774
243, 6, bw, attraction, a-b-da, 2, 1, 8, 27, 135, 60, 134, 59, 60, 135, 1, 0.493528
243, 6, bw, attraction, a-b-da, 2, 1, 8, 27, 135, 60, 134, 59, 60, 135, 3, 0.440713
243, 6, bw, catch, NA, 999, 999, 8, 28, 108, 147, 83, 112, 185, 130, 3, 0.884563
243, 6, bw, catch, NA, 999, 999, 8, 28, 108, 147, 83, 112, 185, 130, 2, 0.608254
243, 6, bw, filler, NA, 999, 999, 8, 29, 173, 167, 190, 101, 73, 182, 1, 1.13331
243, 6, bw, filler, NA, 999, 999, 8, 29, 173, 167, 190, 101, 73, 182, 3, 0.406862
243, 6, bw, filler, NA, 999, 999, 8, 30, 120, 121, 149, 146, 106, 138, 1, 0.412045
243, 6, bw, filler, NA, 999, 999, 8, 30, 120, 121, 149, 146, 106, 138, 2, 0.754627
243, 6, bw, attraction, a-b-db, 14, 3, 8, 31, 120, 195, 111, 181, 195, 120, 1, 1.78632
243, 6, bw, attraction, a-b-db, 14, 3, 8, 31, 120, 195, 111, 181, 195, 120, 3, 0.601639
243, 6, bw, attraction, a-b-db, 9, 3, 8, 32, 120, 195, 114, 186, 195, 120, 1, 0.711458
243, 6, bw, attraction, a-b-db, 9, 3, 8, 32, 120, 195, 114, 186, 195, 120, 2, 0.769849
243, 6, bw, attraction, a-b-da, 9, 2, 8, 33, 157, 86, 165, 90, 90, 165, 2, 1.23293
243, 6, bw, attraction, a-b-da, 9, 2, 8, 33, 157, 86, 165, 90, 90, 165, 1, 0.422463
243, 6, bw, attraction, a-b-db, 2, 1, 8, 34, 135, 60, 60, 135, 59, 134, 2, 1.22763
243, 6, bw, attraction, a-b-db, 2, 1, 8, 34, 135, 60, 60, 135, 59, 134, 1, 0.369306
243, 6, bw, filler, NA, 999, 999, 8, 35, 157, 96, 146, 66, 96, 193, 1, 0.648487
243, 6, bw, filler, NA, 999, 999, 8, 35, 157, 96, 146, 66, 96, 193, 2, 0.477492
243, 6, bw, attraction, a-b-db, 9, 2, 8, 36, 86, 157, 90, 165, 165, 90, 2, 0.615921
243, 6, bw, attraction, a-b-db, 9, 2, 8, 36, 86, 157, 90, 165, 165, 90, 3, 0.350415
243, 6, bw, attraction, a-b-db, 5, 3, 8, 37, 117, 190, 120, 195, 195, 120, 3, 1.46221
243, 6, bw, attraction, a-b-db, 5, 3, 8, 37, 117, 190, 120, 195, 195, 120, 2, 0.322488
