sub_n, computer_n, bw_cond, effect, set, distance, diag, block_n, trial_n, h1, w1, h2, w2, h3, w3, choice, rt 
203, 6, bw, practice, NA, 999, 999, 0, 1, 129, 188, 124, 122, 88, 184, 1, 3.7388
203, 6, bw, practice, NA, 999, 999, 0, 1, 129, 188, 124, 122, 88, 184, 3, 12.6618
203, 6, bw, practice, NA, 999, 999, 0, 2, 94, 99, 75, 169, 126, 142, 3, 2.84092
203, 6, bw, practice, NA, 999, 999, 0, 2, 94, 99, 75, 169, 126, 142, 1, 3.33529
203, 6, bw, practice, NA, 999, 999, 0, 3, 80, 183, 148, 154, 137, 73, 2, 1.54633
203, 6, bw, practice, NA, 999, 999, 0, 3, 80, 183, 148, 154, 137, 73, 3, 1.48338
203, 6, bw, attraction, a-b-da, 9, 3, 1, 1, 120, 195, 186, 114, 195, 120, 1, 9.72196
203, 6, bw, attraction, a-b-da, 9, 3, 1, 1, 120, 195, 186, 114, 195, 120, 2, 1.04147
203, 6, bw, filler, NA, 999, 999, 1, 2, 117, 149, 82, 172, 123, 110, 1, 2.58913
203, 6, bw, filler, NA, 999, 999, 1, 2, 117, 149, 82, 172, 123, 110, 3, 1.16359
203, 6, bw, attraction, a-b-db, 5, 2, 1, 3, 90, 165, 88, 161, 165, 90, 1, 14.0905
203, 6, bw, attraction, a-b-db, 5, 2, 1, 3, 90, 165, 88, 161, 165, 90, 2, 1.11405
203, 6, bw, filler, NA, 999, 999, 1, 4, 141, 143, 97, 67, 111, 105, 1, 1.33103
203, 6, bw, filler, NA, 999, 999, 1, 4, 141, 143, 97, 67, 111, 105, 2, 1.24459
203, 6, bw, attraction, a-b-db, 14, 3, 1, 5, 195, 120, 120, 195, 111, 181, 2, 1.85612
203, 6, bw, attraction, a-b-db, 14, 3, 1, 5, 195, 120, 120, 195, 111, 181, 3, 6.64415
203, 6, bw, attraction, a-b-db, 14, 2, 1, 6, 90, 165, 165, 90, 83, 153, 2, 3.31002
203, 6, bw, attraction, a-b-db, 14, 2, 1, 6, 90, 165, 165, 90, 83, 153, 3, 0.74361
203, 6, bw, attraction, a-b-db, 9, 3, 1, 7, 195, 120, 120, 195, 114, 186, 1, 5.35934
203, 6, bw, attraction, a-b-db, 9, 3, 1, 7, 195, 120, 120, 195, 114, 186, 3, 0.974469
203, 6, bw, attraction, a-b-db, 2, 3, 1, 8, 120, 195, 195, 120, 119, 193, 2, 4.11668
203, 6, bw, attraction, a-b-db, 2, 3, 1, 8, 120, 195, 195, 120, 119, 193, 1, 0.926008
203, 6, bw, catch, NA, 999, 999, 1, 9, 188, 127, 165, 90, 135, 60, 1, 2.28623
203, 6, bw, catch, NA, 999, 999, 1, 9, 188, 127, 165, 90, 135, 60, 3, 0.665488
203, 6, bw, filler, NA, 999, 999, 1, 10, 89, 119, 143, 152, 183, 74, 2, 2.70872
203, 6, bw, filler, NA, 999, 999, 1, 10, 89, 119, 143, 152, 183, 74, 1, 0.742399
203, 6, bw, attraction, a-b-db, 14, 1, 1, 11, 135, 60, 60, 135, 56, 125, 1, 4.70211
203, 6, bw, attraction, a-b-db, 14, 1, 1, 11, 135, 60, 60, 135, 56, 125, 3, 3.77599
203, 6, bw, filler, NA, 999, 999, 1, 12, 151, 99, 76, 101, 84, 77, 1, 2.02139
203, 6, bw, filler, NA, 999, 999, 1, 12, 151, 99, 76, 101, 84, 77, 3, 1.00269
203, 6, bw, attraction, a-b-da, 14, 1, 1, 13, 125, 56, 135, 60, 60, 135, 2, 5.60829
203, 6, bw, attraction, a-b-da, 14, 1, 1, 13, 125, 56, 135, 60, 60, 135, 3, 0.925283
203, 6, bw, attraction, a-b-da, 2, 2, 1, 14, 165, 90, 90, 165, 163, 89, 1, 2.18969
203, 6, bw, attraction, a-b-da, 2, 2, 1, 14, 165, 90, 90, 165, 163, 89, 2, 0.980196
203, 6, bw, catch, NA, 999, 999, 1, 15, 122, 73, 109, 146, 188, 127, 3, 1.15441
203, 6, bw, catch, NA, 999, 999, 1, 15, 122, 73, 109, 146, 188, 127, 1, 1.30674
203, 6, bw, attraction, a-b-da, 14, 3, 1, 16, 195, 120, 120, 195, 181, 111, 2, 6.67556
203, 6, bw, attraction, a-b-da, 14, 3, 1, 16, 195, 120, 120, 195, 181, 111, 3, 0.949447
203, 6, bw, attraction, a-b-da, 2, 3, 1, 17, 193, 119, 195, 120, 120, 195, 3, 9.69313
203, 6, bw, attraction, a-b-da, 2, 3, 1, 17, 193, 119, 195, 120, 120, 195, 1, 0.925343
203, 6, bw, attraction, a-b-db, 2, 1, 1, 18, 135, 60, 59, 134, 60, 135, 1, 2.66975
203, 6, bw, attraction, a-b-db, 2, 1, 1, 18, 135, 60, 59, 134, 60, 135, 2, 0.689719
203, 6, bw, attraction, a-b-db, 2, 2, 1, 19, 89, 163, 165, 90, 90, 165, 3, 7.17127
203, 6, bw, attraction, a-b-db, 2, 2, 1, 19, 89, 163, 165, 90, 90, 165, 1, 1.15367
203, 6, bw, attraction, a-b-db, 5, 3, 1, 20, 117, 190, 195, 120, 120, 195, 2, 2.47324
203, 6, bw, attraction, a-b-db, 5, 3, 1, 20, 117, 190, 195, 120, 120, 195, 1, 2.26046
203, 6, bw, attraction, a-b-da, 9, 1, 1, 21, 60, 135, 135, 60, 129, 57, 1, 2.39095
203, 6, bw, attraction, a-b-da, 9, 1, 1, 21, 60, 135, 135, 60, 129, 57, 2, 1.66157
203, 6, bw, attraction, a-b-da, 9, 2, 1, 22, 90, 165, 165, 90, 157, 86, 1, 9.83231
203, 6, bw, attraction, a-b-da, 9, 2, 1, 22, 90, 165, 165, 90, 157, 86, 3, 0.635231
203, 6, bw, attraction, a-b-da, 14, 2, 1, 23, 90, 165, 165, 90, 153, 83, 2, 2.27166
203, 6, bw, attraction, a-b-da, 14, 2, 1, 23, 90, 165, 165, 90, 153, 83, 3, 1.76298
203, 6, bw, filler, NA, 999, 999, 1, 24, 109, 130, 84, 97, 89, 178, 1, 6.72961
203, 6, bw, filler, NA, 999, 999, 1, 24, 109, 130, 84, 97, 89, 178, 2, 0.657591
203, 6, bw, filler, NA, 999, 999, 1, 25, 167, 121, 90, 103, 121, 140, 1, 3.80458
203, 6, bw, filler, NA, 999, 999, 1, 25, 167, 121, 90, 103, 121, 140, 2, 0.961992
203, 6, bw, attraction, a-b-da, 5, 2, 1, 26, 161, 88, 165, 90, 90, 165, 1, 7.34496
203, 6, bw, attraction, a-b-da, 5, 2, 1, 26, 161, 88, 165, 90, 90, 165, 3, 0.600038
203, 6, bw, attraction, a-b-da, 5, 3, 1, 27, 190, 117, 120, 195, 195, 120, 3, 5.09388
203, 6, bw, attraction, a-b-da, 5, 3, 1, 27, 190, 117, 120, 195, 195, 120, 1, 1.93554
203, 6, bw, attraction, a-b-da, 2, 1, 1, 28, 60, 135, 134, 59, 135, 60, 1, 51.7515
203, 6, bw, attraction, a-b-da, 2, 1, 1, 28, 60, 135, 134, 59, 135, 60, 2, 1.20926
203, 6, bw, filler, NA, 999, 999, 1, 29, 95, 112, 152, 97, 56, 69, 2, 1.70214
203, 6, bw, filler, NA, 999, 999, 1, 29, 95, 112, 152, 97, 56, 69, 3, 0.744925
203, 6, bw, filler, NA, 999, 999, 1, 30, 143, 127, 101, 128, 153, 103, 1, 2.41665
203, 6, bw, filler, NA, 999, 999, 1, 30, 143, 127, 101, 128, 153, 103, 2, 2.59859
203, 6, bw, filler, NA, 999, 999, 1, 31, 157, 67, 171, 113, 61, 184, 2, 1.19568
203, 6, bw, filler, NA, 999, 999, 1, 31, 157, 67, 171, 113, 61, 184, 1, 2.76258
203, 6, bw, filler, NA, 999, 999, 1, 32, 106, 148, 79, 79, 141, 145, 3, 1.5852
203, 6, bw, filler, NA, 999, 999, 1, 32, 106, 148, 79, 79, 141, 145, 2, 0.888824
203, 6, bw, attraction, a-b-da, 5, 1, 1, 33, 60, 135, 135, 60, 132, 58, 1, 2.34684
203, 6, bw, attraction, a-b-da, 5, 1, 1, 33, 60, 135, 135, 60, 132, 58, 3, 0.643346
203, 6, bw, catch, NA, 999, 999, 1, 34, 148, 167, 83, 112, 122, 133, 1, 0.743128
203, 6, bw, catch, NA, 999, 999, 1, 34, 148, 167, 83, 112, 122, 133, 2, 0.368297
203, 6, bw, attraction, a-b-db, 5, 1, 1, 35, 60, 135, 135, 60, 58, 132, 2, 1.46341
203, 6, bw, attraction, a-b-db, 5, 1, 1, 35, 60, 135, 135, 60, 58, 132, 1, 0.243566
203, 6, bw, attraction, a-b-db, 9, 1, 1, 36, 135, 60, 57, 129, 60, 135, 1, 2.25539
203, 6, bw, attraction, a-b-db, 9, 1, 1, 36, 135, 60, 57, 129, 60, 135, 2, 0.339358
203, 6, bw, attraction, a-b-db, 9, 2, 1, 37, 86, 157, 90, 165, 165, 90, 3, 4.70722
203, 6, bw, attraction, a-b-db, 9, 2, 1, 37, 86, 157, 90, 165, 165, 90, 1, 1.39636
203, 6, bw, attraction, a-b-da, 5, 3, 2, 1, 190, 117, 120, 195, 195, 120, 3, 2.41005
203, 6, bw, attraction, a-b-da, 5, 3, 2, 1, 190, 117, 120, 195, 195, 120, 1, 0.855737
203, 6, bw, attraction, a-b-db, 5, 1, 2, 2, 60, 135, 135, 60, 58, 132, 2, 6.04348
203, 6, bw, attraction, a-b-db, 5, 1, 2, 2, 60, 135, 135, 60, 58, 132, 1, 0.574848
203, 6, bw, attraction, a-b-db, 9, 2, 2, 3, 90, 165, 165, 90, 86, 157, 1, 4.31729
203, 6, bw, attraction, a-b-db, 9, 2, 2, 3, 90, 165, 165, 90, 86, 157, 2, 0.558565
203, 6, bw, filler, NA, 999, 999, 2, 4, 82, 130, 176, 56, 69, 186, 1, 5.18968
203, 6, bw, filler, NA, 999, 999, 2, 4, 82, 130, 176, 56, 69, 186, 2, 2.97143
203, 6, bw, attraction, a-b-da, 5, 2, 2, 5, 165, 90, 90, 165, 161, 88, 1, 17.3857
203, 6, bw, attraction, a-b-da, 5, 2, 2, 5, 165, 90, 90, 165, 161, 88, 3, 4.27623
203, 6, bw, attraction, a-b-db, 2, 2, 2, 6, 90, 165, 89, 163, 165, 90, 1, 3.33345
203, 6, bw, attraction, a-b-db, 2, 2, 2, 6, 90, 165, 89, 163, 165, 90, 2, 0.694378
203, 6, bw, attraction, a-b-db, 5, 3, 2, 7, 117, 190, 195, 120, 120, 195, 2, 2.43213
203, 6, bw, attraction, a-b-db, 5, 3, 2, 7, 117, 190, 195, 120, 120, 195, 1, 1.43738
203, 6, bw, attraction, a-b-db, 14, 2, 2, 8, 90, 165, 165, 90, 83, 153, 3, 2.50563
203, 6, bw, attraction, a-b-db, 14, 2, 2, 8, 90, 165, 165, 90, 83, 153, 2, 0.883461
203, 6, bw, attraction, a-b-da, 9, 2, 2, 9, 90, 165, 157, 86, 165, 90, 1, 1.34973
203, 6, bw, attraction, a-b-da, 9, 2, 2, 9, 90, 165, 157, 86, 165, 90, 2, 0.822541
203, 6, bw, filler, NA, 999, 999, 2, 10, 130, 57, 183, 62, 171, 56, 2, 1.53159
203, 6, bw, filler, NA, 999, 999, 2, 10, 130, 57, 183, 62, 171, 56, 1, 1.36511
203, 6, bw, catch, NA, 999, 999, 2, 11, 159, 156, 155, 100, 120, 75, 1, 0.819968
203, 6, bw, catch, NA, 999, 999, 2, 11, 159, 156, 155, 100, 120, 75, 3, 2.93042
203, 6, bw, attraction, a-b-da, 2, 1, 2, 12, 135, 60, 60, 135, 134, 59, 1, 3.36205
203, 6, bw, attraction, a-b-da, 2, 1, 2, 12, 135, 60, 60, 135, 134, 59, 2, 0.649553
203, 6, bw, filler, NA, 999, 999, 2, 13, 195, 121, 193, 83, 167, 156, 3, 4.25355
203, 6, bw, filler, NA, 999, 999, 2, 13, 195, 121, 193, 83, 167, 156, 2, 0.69738
203, 6, bw, attraction, a-b-db, 5, 2, 2, 14, 90, 165, 88, 161, 165, 90, 1, 6.13115
203, 6, bw, attraction, a-b-db, 5, 2, 2, 14, 90, 165, 88, 161, 165, 90, 3, 0.515182
203, 6, bw, filler, NA, 999, 999, 2, 15, 139, 112, 151, 166, 76, 101, 2, 1.40428
203, 6, bw, filler, NA, 999, 999, 2, 15, 139, 112, 151, 166, 76, 101, 3, 0.746427
203, 6, bw, attraction, a-b-da, 14, 3, 2, 16, 195, 120, 120, 195, 181, 111, 1, 2.49011
203, 6, bw, attraction, a-b-da, 14, 3, 2, 16, 195, 120, 120, 195, 181, 111, 3, 1.02084
203, 6, bw, attraction, a-b-db, 2, 3, 2, 17, 120, 195, 195, 120, 119, 193, 2, 1.93767
203, 6, bw, attraction, a-b-db, 2, 3, 2, 17, 120, 195, 195, 120, 119, 193, 3, 1.16236
203, 6, bw, attraction, a-b-da, 9, 3, 2, 18, 195, 120, 120, 195, 186, 114, 2, 110.769
203, 6, bw, attraction, a-b-da, 9, 3, 2, 18, 195, 120, 120, 195, 186, 114, 3, 0.4406
203, 6, bw, attraction, a-b-db, 14, 1, 2, 19, 56, 125, 60, 135, 135, 60, 2, 7.03658
203, 6, bw, attraction, a-b-db, 14, 1, 2, 19, 56, 125, 60, 135, 135, 60, 3, 1.68023
203, 6, bw, attraction, a-b-db, 9, 1, 2, 20, 60, 135, 135, 60, 57, 129, 1, 6.29022
203, 6, bw, attraction, a-b-db, 9, 1, 2, 20, 60, 135, 135, 60, 57, 129, 3, 0.795634
203, 6, bw, filler, NA, 999, 999, 2, 21, 178, 195, 72, 174, 132, 145, 1, 0.673301
203, 6, bw, filler, NA, 999, 999, 2, 21, 178, 195, 72, 174, 132, 145, 3, 0.965232
203, 6, bw, attraction, a-b-db, 9, 3, 2, 22, 195, 120, 114, 186, 120, 195, 1, 48.1801
203, 6, bw, attraction, a-b-db, 9, 3, 2, 22, 195, 120, 114, 186, 120, 195, 2, 0.877603
203, 6, bw, attraction, a-b-da, 14, 2, 2, 23, 153, 83, 90, 165, 165, 90, 2, 1.35997
203, 6, bw, attraction, a-b-da, 14, 2, 2, 23, 153, 83, 90, 165, 165, 90, 1, 0.992188
203, 6, bw, attraction, a-b-da, 9, 1, 2, 24, 129, 57, 60, 135, 135, 60, 2, 2.50988
203, 6, bw, attraction, a-b-da, 9, 1, 2, 24, 129, 57, 60, 135, 135, 60, 1, 0.471642
203, 6, bw, attraction, a-b-db, 2, 1, 2, 25, 59, 134, 135, 60, 60, 135, 2, 3.31482
203, 6, bw, attraction, a-b-db, 2, 1, 2, 25, 59, 134, 135, 60, 60, 135, 3, 0.676409
203, 6, bw, catch, NA, 999, 999, 2, 26, 123, 132, 174, 141, 65, 130, 2, 1.06286
203, 6, bw, catch, NA, 999, 999, 2, 26, 123, 132, 174, 141, 65, 130, 3, 0.635033
203, 6, bw, attraction, a-b-da, 14, 1, 2, 27, 60, 135, 125, 56, 135, 60, 1, 1.33542
203, 6, bw, attraction, a-b-da, 14, 1, 2, 27, 60, 135, 125, 56, 135, 60, 2, 0.60907
203, 6, bw, attraction, a-b-da, 2, 2, 2, 28, 165, 90, 90, 165, 163, 89, 2, 1.51814
203, 6, bw, attraction, a-b-da, 2, 2, 2, 28, 165, 90, 90, 165, 163, 89, 1, 0.904359
203, 6, bw, filler, NA, 999, 999, 2, 29, 161, 172, 69, 66, 170, 164, 3, 3.34608
203, 6, bw, filler, NA, 999, 999, 2, 29, 161, 172, 69, 66, 170, 164, 2, 0.755799
203, 6, bw, filler, NA, 999, 999, 2, 30, 147, 105, 158, 193, 187, 186, 2, 2.94601
203, 6, bw, filler, NA, 999, 999, 2, 30, 147, 105, 158, 193, 187, 186, 1, 0.754277
203, 6, bw, attraction, a-b-da, 5, 1, 2, 31, 60, 135, 135, 60, 132, 58, 2, 2.40214
203, 6, bw, attraction, a-b-da, 5, 1, 2, 31, 60, 135, 135, 60, 132, 58, 3, 1.29669
203, 6, bw, attraction, a-b-db, 14, 3, 2, 32, 195, 120, 111, 181, 120, 195, 1, 2.09018
203, 6, bw, attraction, a-b-db, 14, 3, 2, 32, 195, 120, 111, 181, 120, 195, 2, 0.868787
203, 6, bw, filler, NA, 999, 999, 2, 33, 176, 122, 67, 182, 156, 141, 1, 1.40792
203, 6, bw, filler, NA, 999, 999, 2, 33, 176, 122, 67, 182, 156, 141, 2, 2.6141
203, 6, bw, filler, NA, 999, 999, 2, 34, 116, 75, 127, 183, 146, 135, 2, 1.67443
203, 6, bw, filler, NA, 999, 999, 2, 34, 116, 75, 127, 183, 146, 135, 1, 0.942091
203, 6, bw, filler, NA, 999, 999, 2, 35, 105, 188, 172, 175, 132, 123, 2, 1.32555
203, 6, bw, filler, NA, 999, 999, 2, 35, 105, 188, 172, 175, 132, 123, 3, 12.9753
203, 6, bw, attraction, a-b-da, 2, 3, 2, 36, 120, 195, 195, 120, 193, 119, 2, 1.54634
203, 6, bw, attraction, a-b-da, 2, 3, 2, 36, 120, 195, 195, 120, 193, 119, 1, 1.14725
203, 6, bw, catch, NA, 999, 999, 2, 37, 125, 130, 69, 126, 161, 154, 3, 1.00274
203, 6, bw, catch, NA, 999, 999, 2, 37, 125, 130, 69, 126, 161, 154, 2, 0.761176
203, 6, bw, attraction, a-b-da, 2, 3, 3, 1, 120, 195, 195, 120, 193, 119, 3, 1.48818
203, 6, bw, attraction, a-b-da, 2, 3, 3, 1, 120, 195, 195, 120, 193, 119, 1, 0.75499
203, 6, bw, filler, NA, 999, 999, 3, 2, 143, 106, 182, 128, 192, 171, 3, 0.938674
203, 6, bw, filler, NA, 999, 999, 3, 2, 143, 106, 182, 128, 192, 171, 1, 0.835632
203, 6, bw, attraction, a-b-da, 2, 1, 3, 3, 60, 135, 135, 60, 134, 59, 2, 3.18408
203, 6, bw, attraction, a-b-da, 2, 1, 3, 3, 60, 135, 135, 60, 134, 59, 3, 0.334941
203, 6, bw, attraction, a-b-da, 5, 3, 3, 4, 190, 117, 195, 120, 120, 195, 3, 1.27957
203, 6, bw, attraction, a-b-da, 5, 3, 3, 4, 190, 117, 195, 120, 120, 195, 1, 0.467187
203, 6, bw, filler, NA, 999, 999, 3, 5, 74, 65, 98, 109, 143, 150, 3, 0.798194
203, 6, bw, filler, NA, 999, 999, 3, 5, 74, 65, 98, 109, 143, 150, 1, 0.405446
203, 6, bw, attraction, a-b-da, 14, 3, 3, 6, 181, 111, 120, 195, 195, 120, 2, 1.38705
203, 6, bw, attraction, a-b-da, 14, 3, 3, 6, 181, 111, 120, 195, 195, 120, 3, 0.273927
203, 6, bw, attraction, a-b-db, 14, 2, 3, 7, 90, 165, 165, 90, 83, 153, 1, 1.1004
203, 6, bw, attraction, a-b-db, 14, 2, 3, 7, 90, 165, 165, 90, 83, 153, 3, 0.631465
203, 6, bw, attraction, a-b-da, 9, 3, 3, 8, 186, 114, 195, 120, 120, 195, 2, 2.55594
203, 6, bw, attraction, a-b-da, 9, 3, 3, 8, 186, 114, 195, 120, 120, 195, 1, 0.411649
203, 6, bw, filler, NA, 999, 999, 3, 9, 142, 154, 165, 75, 109, 90, 1, 0.816803
203, 6, bw, filler, NA, 999, 999, 3, 9, 142, 154, 165, 75, 109, 90, 3, 0.655148
203, 6, bw, catch, NA, 999, 999, 3, 10, 122, 133, 95, 100, 169, 146, 3, 0.850922
203, 6, bw, catch, NA, 999, 999, 3, 10, 122, 133, 95, 100, 169, 146, 2, 0.703946
203, 6, bw, catch, NA, 999, 999, 3, 11, 120, 135, 155, 160, 126, 69, 2, 1.35379
203, 6, bw, catch, NA, 999, 999, 3, 11, 120, 135, 155, 160, 126, 69, 3, 0.834655
203, 6, bw, filler, NA, 999, 999, 3, 12, 194, 163, 189, 97, 60, 176, 1, 0.646932
203, 6, bw, filler, NA, 999, 999, 3, 12, 194, 163, 189, 97, 60, 176, 3, 0.652026
203, 6, bw, attraction, a-b-da, 14, 1, 3, 13, 135, 60, 60, 135, 125, 56, 1, 2.36773
203, 6, bw, attraction, a-b-da, 14, 1, 3, 13, 135, 60, 60, 135, 125, 56, 3, 3.05576
203, 6, bw, filler, NA, 999, 999, 3, 14, 113, 115, 83, 93, 69, 107, 1, 1.53873
203, 6, bw, filler, NA, 999, 999, 3, 14, 113, 115, 83, 93, 69, 107, 3, 0.579477
203, 6, bw, attraction, a-b-db, 2, 2, 3, 15, 89, 163, 165, 90, 90, 165, 2, 1.72992
203, 6, bw, attraction, a-b-db, 2, 2, 3, 15, 89, 163, 165, 90, 90, 165, 1, 0.355438
203, 6, bw, attraction, a-b-db, 2, 1, 3, 16, 135, 60, 59, 134, 60, 135, 1, 4.2591
203, 6, bw, attraction, a-b-db, 2, 1, 3, 16, 135, 60, 59, 134, 60, 135, 3, 3.1674
203, 6, bw, attraction, a-b-db, 2, 3, 3, 17, 195, 120, 119, 193, 120, 195, 1, 70.1168
203, 6, bw, attraction, a-b-db, 2, 3, 3, 17, 195, 120, 119, 193, 120, 195, 3, 0.714188
203, 6, bw, attraction, a-b-db, 5, 3, 3, 18, 117, 190, 120, 195, 195, 120, 3, 1.09127
203, 6, bw, attraction, a-b-db, 5, 3, 3, 18, 117, 190, 120, 195, 195, 120, 1, 0.742193
203, 6, bw, filler, NA, 999, 999, 3, 19, 61, 130, 172, 149, 156, 141, 2, 0.813888
203, 6, bw, filler, NA, 999, 999, 3, 19, 61, 130, 172, 149, 156, 141, 1, 0.308379
203, 6, bw, filler, NA, 999, 999, 3, 20, 86, 145, 66, 180, 57, 97, 1, 1.64541
203, 6, bw, filler, NA, 999, 999, 3, 20, 86, 145, 66, 180, 57, 97, 3, 0.946318
203, 6, bw, attraction, a-b-db, 5, 1, 3, 21, 58, 132, 135, 60, 60, 135, 3, 1.49798
203, 6, bw, attraction, a-b-db, 5, 1, 3, 21, 58, 132, 135, 60, 60, 135, 1, 2.38878
203, 6, bw, catch, NA, 999, 999, 3, 22, 90, 105, 194, 121, 93, 162, 2, 0.986686
203, 6, bw, catch, NA, 999, 999, 3, 22, 90, 105, 194, 121, 93, 162, 1, 0.553526
203, 6, bw, attraction, a-b-db, 14, 3, 3, 23, 111, 181, 195, 120, 120, 195, 2, 1.4654
203, 6, bw, attraction, a-b-db, 14, 3, 3, 23, 111, 181, 195, 120, 120, 195, 1, 0.773571
203, 6, bw, attraction, a-b-da, 5, 2, 3, 24, 161, 88, 90, 165, 165, 90, 1, 1.5559
203, 6, bw, attraction, a-b-da, 5, 2, 3, 24, 161, 88, 90, 165, 165, 90, 2, 0.316021
203, 6, bw, attraction, a-b-db, 5, 2, 3, 25, 165, 90, 88, 161, 90, 165, 3, 1.05321
203, 6, bw, attraction, a-b-db, 5, 2, 3, 25, 165, 90, 88, 161, 90, 165, 1, 0.666216
203, 6, bw, filler, NA, 999, 999, 3, 26, 75, 132, 183, 114, 138, 174, 3, 0.749291
203, 6, bw, filler, NA, 999, 999, 3, 26, 75, 132, 183, 114, 138, 174, 1, 1.5184
203, 6, bw, attraction, a-b-da, 5, 1, 3, 27, 132, 58, 135, 60, 60, 135, 2, 2.03126
203, 6, bw, attraction, a-b-da, 5, 1, 3, 27, 132, 58, 135, 60, 60, 135, 1, 0.340612
203, 6, bw, attraction, a-b-da, 2, 2, 3, 28, 165, 90, 163, 89, 90, 165, 1, 1.90845
203, 6, bw, attraction, a-b-da, 2, 2, 3, 28, 165, 90, 163, 89, 90, 165, 3, 0.934446
203, 6, bw, attraction, a-b-da, 14, 2, 3, 29, 90, 165, 153, 83, 165, 90, 1, 1.11877
203, 6, bw, attraction, a-b-da, 14, 2, 3, 29, 90, 165, 153, 83, 165, 90, 2, 0.736976
203, 6, bw, attraction, a-b-db, 14, 1, 3, 30, 56, 125, 135, 60, 60, 135, 2, 0.833448
203, 6, bw, attraction, a-b-db, 14, 1, 3, 30, 56, 125, 135, 60, 60, 135, 1, 0.319257
203, 6, bw, attraction, a-b-da, 9, 2, 3, 31, 90, 165, 165, 90, 157, 86, 2, 1.04031
203, 6, bw, attraction, a-b-da, 9, 2, 3, 31, 90, 165, 165, 90, 157, 86, 3, 0.773169
203, 6, bw, attraction, a-b-db, 9, 3, 3, 32, 195, 120, 114, 186, 120, 195, 1, 1.44362
203, 6, bw, attraction, a-b-db, 9, 3, 3, 32, 195, 120, 114, 186, 120, 195, 3, 1.40854
203, 6, bw, attraction, a-b-db, 9, 2, 3, 33, 86, 157, 90, 165, 165, 90, 3, 1.98129
203, 6, bw, attraction, a-b-db, 9, 2, 3, 33, 86, 157, 90, 165, 165, 90, 1, 0.70857
203, 6, bw, attraction, a-b-da, 9, 1, 3, 34, 60, 135, 135, 60, 129, 57, 2, 3.38969
203, 6, bw, attraction, a-b-da, 9, 1, 3, 34, 60, 135, 135, 60, 129, 57, 1, 0.747925
203, 6, bw, filler, NA, 999, 999, 3, 35, 112, 67, 107, 157, 58, 193, 2, 1.1396
203, 6, bw, filler, NA, 999, 999, 3, 35, 112, 67, 107, 157, 58, 193, 1, 0.388632
203, 6, bw, attraction, a-b-db, 9, 1, 3, 36, 57, 129, 60, 135, 135, 60, 2, 1.09905
203, 6, bw, attraction, a-b-db, 9, 1, 3, 36, 57, 129, 60, 135, 135, 60, 1, 1.30206
203, 6, bw, filler, NA, 999, 999, 3, 37, 112, 147, 102, 68, 176, 156, 3, 0.991645
203, 6, bw, filler, NA, 999, 999, 3, 37, 112, 147, 102, 68, 176, 156, 2, 0.934579
203, 6, bw, attraction, a-b-db, 14, 2, 4, 1, 90, 165, 165, 90, 83, 153, 2, 1.59902
203, 6, bw, attraction, a-b-db, 14, 2, 4, 1, 90, 165, 165, 90, 83, 153, 3, 0.829787
203, 6, bw, attraction, a-b-da, 5, 2, 4, 2, 90, 165, 165, 90, 161, 88, 3, 1.89023
203, 6, bw, attraction, a-b-da, 5, 2, 4, 2, 90, 165, 165, 90, 161, 88, 1, 0.508766
203, 6, bw, attraction, a-b-db, 2, 1, 4, 3, 60, 135, 135, 60, 59, 134, 2, 1.60584
203, 6, bw, attraction, a-b-db, 2, 1, 4, 3, 60, 135, 135, 60, 59, 134, 3, 1.14006
203, 6, bw, attraction, a-b-da, 5, 1, 4, 4, 132, 58, 135, 60, 60, 135, 2, 1.36361
203, 6, bw, attraction, a-b-da, 5, 1, 4, 4, 132, 58, 135, 60, 60, 135, 3, 0.971786
203, 6, bw, filler, NA, 999, 999, 4, 5, 114, 87, 194, 151, 133, 111, 2, 1.10681
203, 6, bw, filler, NA, 999, 999, 4, 5, 114, 87, 194, 151, 133, 111, 1, 0.597167
203, 6, bw, attraction, a-b-da, 9, 1, 4, 6, 60, 135, 135, 60, 129, 57, 2, 1.9229
203, 6, bw, attraction, a-b-da, 9, 1, 4, 6, 60, 135, 135, 60, 129, 57, 1, 0.612188
203, 6, bw, filler, NA, 999, 999, 4, 7, 128, 94, 86, 164, 130, 116, 3, 4.53753
203, 6, bw, filler, NA, 999, 999, 4, 7, 128, 94, 86, 164, 130, 116, 1, 0.849824
203, 6, bw, attraction, a-b-da, 2, 2, 4, 8, 163, 89, 90, 165, 165, 90, 1, 40.5496
203, 6, bw, attraction, a-b-da, 2, 2, 4, 8, 163, 89, 90, 165, 165, 90, 2, 1.8028
203, 6, bw, attraction, a-b-db, 5, 3, 4, 9, 195, 120, 117, 190, 120, 195, 1, 1.64834
203, 6, bw, attraction, a-b-db, 5, 3, 4, 9, 195, 120, 117, 190, 120, 195, 2, 1.14897
203, 6, bw, attraction, a-b-da, 14, 3, 4, 10, 195, 120, 120, 195, 181, 111, 2, 2.17269
203, 6, bw, attraction, a-b-da, 14, 3, 4, 10, 195, 120, 120, 195, 181, 111, 3, 0.867875
203, 6, bw, catch, NA, 999, 999, 4, 11, 83, 112, 108, 147, 136, 179, 3, 1.01488
203, 6, bw, catch, NA, 999, 999, 4, 11, 83, 112, 108, 147, 136, 179, 1, 0.501238
203, 6, bw, filler, NA, 999, 999, 4, 12, 65, 151, 78, 108, 70, 65, 2, 3.78304
203, 6, bw, filler, NA, 999, 999, 4, 12, 65, 151, 78, 108, 70, 65, 3, 0.629846
203, 6, bw, filler, NA, 999, 999, 4, 13, 127, 129, 147, 57, 176, 125, 3, 5.78624
203, 6, bw, filler, NA, 999, 999, 4, 13, 127, 129, 147, 57, 176, 125, 2, 0.720385
203, 6, bw, filler, NA, 999, 999, 4, 14, 161, 138, 115, 108, 160, 183, 3, 1.64144
203, 6, bw, filler, NA, 999, 999, 4, 14, 161, 138, 115, 108, 160, 183, 2, 0.398151
203, 6, bw, catch, NA, 999, 999, 4, 15, 99, 156, 89, 106, 181, 134, 3, 0.715989
203, 6, bw, catch, NA, 999, 999, 4, 15, 99, 156, 89, 106, 181, 134, 2, 0.366501
203, 6, bw, attraction, a-b-db, 5, 2, 4, 16, 90, 165, 88, 161, 165, 90, 1, 1.20564
203, 6, bw, attraction, a-b-db, 5, 2, 4, 16, 90, 165, 88, 161, 165, 90, 2, 0.739794
203, 6, bw, attraction, a-b-da, 14, 2, 4, 17, 153, 83, 90, 165, 165, 90, 3, 2.85963
203, 6, bw, attraction, a-b-da, 14, 2, 4, 17, 153, 83, 90, 165, 165, 90, 2, 0.287284
203, 6, bw, attraction, a-b-db, 9, 3, 4, 18, 195, 120, 114, 186, 120, 195, 1, 5.32182
203, 6, bw, attraction, a-b-db, 9, 3, 4, 18, 195, 120, 114, 186, 120, 195, 2, 0.386817
203, 6, bw, filler, NA, 999, 999, 4, 19, 96, 87, 177, 153, 98, 163, 2, 0.961348
203, 6, bw, filler, NA, 999, 999, 4, 19, 96, 87, 177, 153, 98, 163, 1, 0.841609
203, 6, bw, attraction, a-b-da, 14, 1, 4, 20, 125, 56, 60, 135, 135, 60, 2, 1.2614
203, 6, bw, attraction, a-b-da, 14, 1, 4, 20, 125, 56, 60, 135, 135, 60, 1, 0.729546
203, 6, bw, attraction, a-b-da, 5, 3, 4, 21, 195, 120, 190, 117, 120, 195, 1, 1.67391
203, 6, bw, attraction, a-b-da, 5, 3, 4, 21, 195, 120, 190, 117, 120, 195, 2, 1.02142
203, 6, bw, attraction, a-b-da, 9, 3, 4, 22, 186, 114, 120, 195, 195, 120, 1, 3.43436
203, 6, bw, attraction, a-b-da, 9, 3, 4, 22, 186, 114, 120, 195, 195, 120, 2, 0.559219
203, 6, bw, filler, NA, 999, 999, 4, 23, 188, 67, 79, 186, 118, 82, 1, 2.39834
203, 6, bw, filler, NA, 999, 999, 4, 23, 188, 67, 79, 186, 118, 82, 3, 0.82093
203, 6, bw, attraction, a-b-db, 9, 1, 4, 24, 60, 135, 57, 129, 135, 60, 1, 31.8099
203, 6, bw, attraction, a-b-db, 9, 1, 4, 24, 60, 135, 57, 129, 135, 60, 3, 1.31937
203, 6, bw, attraction, a-b-da, 2, 3, 4, 25, 120, 195, 193, 119, 195, 120, 1, 2.26411
203, 6, bw, attraction, a-b-da, 2, 3, 4, 25, 120, 195, 193, 119, 195, 120, 2, 0.484119
203, 6, bw, catch, NA, 999, 999, 4, 26, 186, 129, 110, 85, 160, 95, 1, 0.742531
203, 6, bw, catch, NA, 999, 999, 4, 26, 186, 129, 110, 85, 160, 95, 2, 0.543607
203, 6, bw, filler, NA, 999, 999, 4, 27, 96, 76, 107, 160, 175, 94, 2, 1.44748
203, 6, bw, filler, NA, 999, 999, 4, 27, 96, 76, 107, 160, 175, 94, 1, 0.508241
203, 6, bw, attraction, a-b-db, 5, 1, 4, 28, 135, 60, 60, 135, 58, 132, 1, 1.8694
203, 6, bw, attraction, a-b-db, 5, 1, 4, 28, 135, 60, 60, 135, 58, 132, 3, 0.609357
203, 6, bw, attraction, a-b-da, 2, 1, 4, 29, 60, 135, 135, 60, 134, 59, 2, 1.63052
203, 6, bw, attraction, a-b-da, 2, 1, 4, 29, 60, 135, 135, 60, 134, 59, 1, 0.979927
203, 6, bw, attraction, a-b-db, 14, 1, 4, 30, 60, 135, 135, 60, 56, 125, 1, 0.882336
203, 6, bw, attraction, a-b-db, 14, 1, 4, 30, 60, 135, 135, 60, 56, 125, 3, 0.765978
203, 6, bw, attraction, a-b-db, 9, 2, 4, 31, 86, 157, 90, 165, 165, 90, 3, 2.35709
203, 6, bw, attraction, a-b-db, 9, 2, 4, 31, 86, 157, 90, 165, 165, 90, 1, 0.50885
203, 6, bw, attraction, a-b-da, 9, 2, 4, 32, 90, 165, 157, 86, 165, 90, 2, 2.76608
203, 6, bw, attraction, a-b-da, 9, 2, 4, 32, 90, 165, 157, 86, 165, 90, 1, 0.629822
203, 6, bw, attraction, a-b-db, 2, 3, 4, 33, 119, 193, 195, 120, 120, 195, 2, 4.02625
203, 6, bw, attraction, a-b-db, 2, 3, 4, 33, 119, 193, 195, 120, 120, 195, 1, 0.318998
203, 6, bw, attraction, a-b-db, 14, 3, 4, 34, 111, 181, 120, 195, 195, 120, 3, 1.7921
203, 6, bw, attraction, a-b-db, 14, 3, 4, 34, 111, 181, 120, 195, 195, 120, 1, 0.478801
203, 6, bw, filler, NA, 999, 999, 4, 35, 74, 150, 85, 69, 189, 111, 3, 1.24129
203, 6, bw, filler, NA, 999, 999, 4, 35, 74, 150, 85, 69, 189, 111, 2, 0.806238
203, 6, bw, attraction, a-b-db, 2, 2, 4, 36, 165, 90, 89, 163, 90, 165, 1, 3.25119
203, 6, bw, attraction, a-b-db, 2, 2, 4, 36, 165, 90, 89, 163, 90, 165, 2, 0.295497
203, 6, bw, filler, NA, 999, 999, 4, 37, 115, 72, 122, 164, 112, 165, 3, 2.45745
203, 6, bw, filler, NA, 999, 999, 4, 37, 115, 72, 122, 164, 112, 165, 1, 0.629254
203, 6, bw, attraction, a-b-da, 14, 1, 5, 1, 135, 60, 60, 135, 125, 56, 1, 55.2802
203, 6, bw, attraction, a-b-da, 14, 1, 5, 1, 135, 60, 60, 135, 125, 56, 3, 1.01171
203, 6, bw, attraction, a-b-db, 5, 1, 5, 2, 58, 132, 135, 60, 60, 135, 2, 2.41669
203, 6, bw, attraction, a-b-db, 5, 1, 5, 2, 58, 132, 135, 60, 60, 135, 1, 0.494592
203, 6, bw, attraction, a-b-da, 14, 3, 5, 3, 181, 111, 120, 195, 195, 120, 3, 6.09633
203, 6, bw, attraction, a-b-da, 14, 3, 5, 3, 181, 111, 120, 195, 195, 120, 2, 0.953713
203, 6, bw, attraction, a-b-da, 9, 3, 5, 4, 195, 120, 120, 195, 186, 114, 1, 1.3053
203, 6, bw, attraction, a-b-da, 9, 3, 5, 4, 195, 120, 120, 195, 186, 114, 2, 0.491572
203, 6, bw, filler, NA, 999, 999, 5, 5, 88, 112, 81, 148, 128, 177, 3, 0.861296
203, 6, bw, filler, NA, 999, 999, 5, 5, 88, 112, 81, 148, 128, 177, 1, 0.84974
203, 6, bw, attraction, a-b-db, 14, 1, 5, 6, 135, 60, 60, 135, 56, 125, 1, 6.55756
203, 6, bw, attraction, a-b-db, 14, 1, 5, 6, 135, 60, 60, 135, 56, 125, 3, 0.812182
203, 6, bw, attraction, a-b-da, 5, 1, 5, 7, 132, 58, 135, 60, 60, 135, 1, 1.49705
203, 6, bw, attraction, a-b-da, 5, 1, 5, 7, 132, 58, 135, 60, 60, 135, 3, 1.06783
203, 6, bw, catch, NA, 999, 999, 5, 8, 117, 78, 136, 119, 147, 168, 3, 1.11079
203, 6, bw, catch, NA, 999, 999, 5, 8, 117, 78, 136, 119, 147, 168, 1, 0.489035
203, 6, bw, filler, NA, 999, 999, 5, 9, 101, 60, 102, 79, 132, 121, 3, 3.88356
203, 6, bw, filler, NA, 999, 999, 5, 9, 101, 60, 102, 79, 132, 121, 1, 0.518297
203, 6, bw, filler, NA, 999, 999, 5, 10, 67, 155, 104, 62, 100, 93, 1, 3.98338
203, 6, bw, filler, NA, 999, 999, 5, 10, 67, 155, 104, 62, 100, 93, 2, 0.670093
203, 6, bw, filler, NA, 999, 999, 5, 11, 178, 192, 95, 63, 113, 169, 1, 0.977186
203, 6, bw, filler, NA, 999, 999, 5, 11, 178, 192, 95, 63, 113, 169, 2, 0.592851
203, 6, bw, attraction, a-b-db, 2, 3, 5, 12, 120, 195, 119, 193, 195, 120, 3, 3.68663
203, 6, bw, attraction, a-b-db, 2, 3, 5, 12, 120, 195, 119, 193, 195, 120, 1, 0.481614
203, 6, bw, attraction, a-b-db, 2, 1, 5, 13, 59, 134, 135, 60, 60, 135, 2, 1.4201
203, 6, bw, attraction, a-b-db, 2, 1, 5, 13, 59, 134, 135, 60, 60, 135, 3, 0.889431
203, 6, bw, attraction, a-b-da, 9, 1, 5, 14, 60, 135, 129, 57, 135, 60, 3, 3.17982
203, 6, bw, attraction, a-b-da, 9, 1, 5, 14, 60, 135, 129, 57, 135, 60, 1, 0.450794
203, 6, bw, attraction, a-b-db, 2, 2, 5, 15, 165, 90, 90, 165, 89, 163, 1, 37.9027
203, 6, bw, attraction, a-b-db, 2, 2, 5, 15, 165, 90, 90, 165, 89, 163, 2, 0.670026
203, 6, bw, attraction, a-b-da, 14, 2, 5, 16, 153, 83, 90, 165, 165, 90, 2, 1.76911
203, 6, bw, attraction, a-b-da, 14, 2, 5, 16, 153, 83, 90, 165, 165, 90, 1, 0.721169
203, 6, bw, filler, NA, 999, 999, 5, 17, 139, 69, 90, 72, 92, 110, 3, 3.25019
203, 6, bw, filler, NA, 999, 999, 5, 17, 139, 69, 90, 72, 92, 110, 2, 0.582507
203, 6, bw, attraction, a-b-db, 9, 2, 5, 18, 90, 165, 86, 157, 165, 90, 3, 30.7329
203, 6, bw, attraction, a-b-db, 9, 2, 5, 18, 90, 165, 86, 157, 165, 90, 2, 0.445401
203, 6, bw, catch, NA, 999, 999, 5, 19, 100, 95, 132, 183, 115, 140, 2, 0.817086
203, 6, bw, catch, NA, 999, 999, 5, 19, 100, 95, 132, 183, 115, 140, 1, 0.503455
203, 6, bw, attraction, a-b-db, 9, 1, 5, 20, 135, 60, 57, 129, 60, 135, 1, 1.63322
203, 6, bw, attraction, a-b-db, 9, 1, 5, 20, 135, 60, 57, 129, 60, 135, 2, 0.374786
203, 6, bw, filler, NA, 999, 999, 5, 21, 117, 57, 108, 153, 132, 95, 2, 0.845163
203, 6, bw, filler, NA, 999, 999, 5, 21, 117, 57, 108, 153, 132, 95, 1, 0.474379
203, 6, bw, attraction, a-b-da, 5, 2, 5, 22, 161, 88, 90, 165, 165, 90, 1, 1.90076
203, 6, bw, attraction, a-b-da, 5, 2, 5, 22, 161, 88, 90, 165, 165, 90, 2, 0.55147
203, 6, bw, attraction, a-b-db, 14, 3, 5, 23, 195, 120, 111, 181, 120, 195, 1, 2.60722
203, 6, bw, attraction, a-b-db, 14, 3, 5, 23, 195, 120, 111, 181, 120, 195, 2, 0.381042
203, 6, bw, attraction, a-b-db, 5, 2, 5, 24, 88, 161, 165, 90, 90, 165, 2, 1.92352
203, 6, bw, attraction, a-b-db, 5, 2, 5, 24, 88, 161, 165, 90, 90, 165, 3, 0.372893
203, 6, bw, filler, NA, 999, 999, 5, 25, 107, 134, 181, 58, 91, 130, 1, 2.1634
203, 6, bw, filler, NA, 999, 999, 5, 25, 107, 134, 181, 58, 91, 130, 2, 0.715353
203, 6, bw, filler, NA, 999, 999, 5, 26, 148, 148, 125, 161, 99, 189, 1, 2.95638
203, 6, bw, filler, NA, 999, 999, 5, 26, 148, 148, 125, 161, 99, 189, 3, 1.26026
203, 6, bw, filler, NA, 999, 999, 5, 27, 166, 151, 108, 125, 140, 169, 1, 1.86298
203, 6, bw, filler, NA, 999, 999, 5, 27, 166, 151, 108, 125, 140, 169, 2, 0.395097
203, 6, bw, attraction, a-b-da, 2, 2, 5, 28, 90, 165, 163, 89, 165, 90, 2, 5.05693
203, 6, bw, attraction, a-b-da, 2, 2, 5, 28, 90, 165, 163, 89, 165, 90, 3, 0.507952
203, 6, bw, attraction, a-b-db, 14, 2, 5, 29, 165, 90, 90, 165, 83, 153, 1, 1.46105
203, 6, bw, attraction, a-b-db, 14, 2, 5, 29, 165, 90, 90, 165, 83, 153, 3, 0.433211
203, 6, bw, attraction, a-b-da, 2, 1, 5, 30, 60, 135, 135, 60, 134, 59, 1, 4.51784
203, 6, bw, attraction, a-b-da, 2, 1, 5, 30, 60, 135, 135, 60, 134, 59, 3, 1.71895
203, 6, bw, attraction, a-b-db, 5, 3, 5, 31, 195, 120, 120, 195, 117, 190, 2, 1.70362
203, 6, bw, attraction, a-b-db, 5, 3, 5, 31, 195, 120, 120, 195, 117, 190, 3, 1.07451
203, 6, bw, attraction, a-b-db, 9, 3, 5, 32, 195, 120, 114, 186, 120, 195, 1, 1.22876
203, 6, bw, attraction, a-b-db, 9, 3, 5, 32, 195, 120, 114, 186, 120, 195, 2, 0.418319
203, 6, bw, catch, NA, 999, 999, 5, 33, 185, 130, 63, 132, 97, 158, 1, 0.775399
203, 6, bw, catch, NA, 999, 999, 5, 33, 185, 130, 63, 132, 97, 158, 2, 0.351167
203, 6, bw, attraction, a-b-da, 9, 2, 5, 34, 165, 90, 157, 86, 90, 165, 1, 1.81496
203, 6, bw, attraction, a-b-da, 9, 2, 5, 34, 165, 90, 157, 86, 90, 165, 2, 0.597188
203, 6, bw, attraction, a-b-da, 2, 3, 5, 35, 195, 120, 120, 195, 193, 119, 1, 4.56288
203, 6, bw, attraction, a-b-da, 2, 3, 5, 35, 195, 120, 120, 195, 193, 119, 3, 1.03405
203, 6, bw, attraction, a-b-da, 5, 3, 5, 36, 120, 195, 190, 117, 195, 120, 2, 1.48635
203, 6, bw, attraction, a-b-da, 5, 3, 5, 36, 120, 195, 190, 117, 195, 120, 1, 0.457734
203, 6, bw, filler, NA, 999, 999, 5, 37, 172, 178, 154, 169, 133, 171, 1, 1.42097
203, 6, bw, filler, NA, 999, 999, 5, 37, 172, 178, 154, 169, 133, 171, 3, 0.51445
203, 6, bw, filler, NA, 999, 999, 6, 1, 166, 118, 111, 142, 58, 190, 1, 1.57161
203, 6, bw, filler, NA, 999, 999, 6, 1, 166, 118, 111, 142, 58, 190, 3, 0.515208
203, 6, bw, attraction, a-b-da, 9, 3, 6, 2, 120, 195, 195, 120, 186, 114, 2, 4.42824
203, 6, bw, attraction, a-b-da, 9, 3, 6, 2, 120, 195, 195, 120, 186, 114, 3, 0.344819
203, 6, bw, attraction, a-b-db, 2, 2, 6, 3, 90, 165, 165, 90, 89, 163, 2, 1.33667
203, 6, bw, attraction, a-b-db, 2, 2, 6, 3, 90, 165, 165, 90, 89, 163, 3, 0.537526
203, 6, bw, attraction, a-b-db, 14, 3, 6, 4, 195, 120, 120, 195, 111, 181, 1, 1.08206
203, 6, bw, attraction, a-b-db, 14, 3, 6, 4, 195, 120, 120, 195, 111, 181, 3, 1.38968
203, 6, bw, filler, NA, 999, 999, 6, 5, 130, 170, 98, 194, 121, 193, 3, 2.70715
203, 6, bw, filler, NA, 999, 999, 6, 5, 130, 170, 98, 194, 121, 193, 2, 0.580961
203, 6, bw, catch, NA, 999, 999, 6, 6, 98, 157, 90, 105, 175, 140, 3, 0.955395
203, 6, bw, catch, NA, 999, 999, 6, 6, 98, 157, 90, 105, 175, 140, 2, 0.291665
203, 6, bw, attraction, a-b-db, 9, 2, 6, 7, 165, 90, 86, 157, 90, 165, 1, 55.1975
203, 6, bw, attraction, a-b-db, 9, 2, 6, 7, 165, 90, 86, 157, 90, 165, 2, 0.612186
203, 6, bw, attraction, a-b-da, 9, 1, 6, 8, 60, 135, 135, 60, 129, 57, 1, 2.3373
203, 6, bw, attraction, a-b-da, 9, 1, 6, 8, 60, 135, 135, 60, 129, 57, 3, 0.714538
203, 6, bw, filler, NA, 999, 999, 6, 9, 127, 94, 112, 158, 62, 168, 2, 0.843631
203, 6, bw, filler, NA, 999, 999, 6, 9, 127, 94, 112, 158, 62, 168, 3, 1.04076
203, 6, bw, attraction, a-b-db, 2, 1, 6, 10, 59, 134, 135, 60, 60, 135, 3, 2.86839
203, 6, bw, attraction, a-b-db, 2, 1, 6, 10, 59, 134, 135, 60, 60, 135, 1, 0.816059
203, 6, bw, filler, NA, 999, 999, 6, 11, 178, 165, 149, 128, 153, 181, 1, 0.82904
203, 6, bw, filler, NA, 999, 999, 6, 11, 178, 165, 149, 128, 153, 181, 2, 0.378755
203, 6, bw, attraction, a-b-da, 14, 2, 6, 12, 90, 165, 165, 90, 153, 83, 1, 1.59328
203, 6, bw, attraction, a-b-da, 14, 2, 6, 12, 90, 165, 165, 90, 153, 83, 3, 0.888221
203, 6, bw, attraction, a-b-da, 14, 1, 6, 13, 125, 56, 135, 60, 60, 135, 2, 2.36241
203, 6, bw, attraction, a-b-da, 14, 1, 6, 13, 125, 56, 135, 60, 60, 135, 3, 1.01032
203, 6, bw, attraction, a-b-da, 2, 3, 6, 14, 120, 195, 195, 120, 193, 119, 1, 9.5752
203, 6, bw, attraction, a-b-da, 2, 3, 6, 14, 120, 195, 195, 120, 193, 119, 3, 0.460242
203, 6, bw, attraction, a-b-da, 9, 2, 6, 15, 90, 165, 157, 86, 165, 90, 3, 1.25543
203, 6, bw, attraction, a-b-da, 9, 2, 6, 15, 90, 165, 157, 86, 165, 90, 2, 0.459607
203, 6, bw, attraction, a-b-da, 14, 3, 6, 16, 120, 195, 195, 120, 181, 111, 1, 1.34281
203, 6, bw, attraction, a-b-da, 14, 3, 6, 16, 120, 195, 195, 120, 181, 111, 3, 0.455665
203, 6, bw, attraction, a-b-db, 9, 1, 6, 17, 135, 60, 60, 135, 57, 129, 1, 13.2034
203, 6, bw, attraction, a-b-db, 9, 1, 6, 17, 135, 60, 60, 135, 57, 129, 3, 0.678633
203, 6, bw, catch, NA, 999, 999, 6, 18, 72, 123, 138, 117, 125, 190, 3, 1.50519
203, 6, bw, catch, NA, 999, 999, 6, 18, 72, 123, 138, 117, 125, 190, 1, 0.683289
203, 6, bw, attraction, a-b-da, 2, 2, 6, 19, 163, 89, 165, 90, 90, 165, 3, 5.34956
203, 6, bw, attraction, a-b-da, 2, 2, 6, 19, 163, 89, 165, 90, 90, 165, 1, 0.989214
203, 6, bw, filler, NA, 999, 999, 6, 20, 189, 152, 115, 73, 125, 97, 1, 18.1875
203, 6, bw, filler, NA, 999, 999, 6, 20, 189, 152, 115, 73, 125, 97, 2, 0.981738
203, 6, bw, attraction, a-b-db, 14, 1, 6, 21, 135, 60, 56, 125, 60, 135, 1, 1.18813
203, 6, bw, attraction, a-b-db, 14, 1, 6, 21, 135, 60, 56, 125, 60, 135, 2, 0.939017
203, 6, bw, attraction, a-b-db, 14, 2, 6, 22, 165, 90, 90, 165, 83, 153, 1, 0.899317
203, 6, bw, attraction, a-b-db, 14, 2, 6, 22, 165, 90, 90, 165, 83, 153, 2, 0.534421
203, 6, bw, attraction, a-b-db, 5, 2, 6, 23, 90, 165, 165, 90, 88, 161, 1, 1.15887
203, 6, bw, attraction, a-b-db, 5, 2, 6, 23, 90, 165, 165, 90, 88, 161, 2, 0.655051
203, 6, bw, attraction, a-b-da, 2, 1, 6, 24, 60, 135, 135, 60, 134, 59, 2, 4.43489
203, 6, bw, attraction, a-b-da, 2, 1, 6, 24, 60, 135, 135, 60, 134, 59, 1, 0.567375
203, 6, bw, attraction, a-b-db, 9, 3, 6, 25, 114, 186, 120, 195, 195, 120, 3, 1.5665
203, 6, bw, attraction, a-b-db, 9, 3, 6, 25, 114, 186, 120, 195, 195, 120, 1, 0.550634
203, 6, bw, attraction, a-b-db, 5, 1, 6, 26, 135, 60, 58, 132, 60, 135, 1, 1.71841
203, 6, bw, attraction, a-b-db, 5, 1, 6, 26, 135, 60, 58, 132, 60, 135, 2, 1.04055
203, 6, bw, attraction, a-b-da, 5, 1, 6, 27, 135, 60, 60, 135, 132, 58, 1, 1.97213
203, 6, bw, attraction, a-b-da, 5, 1, 6, 27, 135, 60, 60, 135, 132, 58, 2, 1.16346
203, 6, bw, filler, NA, 999, 999, 6, 28, 121, 64, 85, 105, 97, 57, 2, 2.38646
203, 6, bw, filler, NA, 999, 999, 6, 28, 121, 64, 85, 105, 97, 57, 3, 0.809816
203, 6, bw, attraction, a-b-da, 5, 3, 6, 29, 190, 117, 195, 120, 120, 195, 2, 1.11864
203, 6, bw, attraction, a-b-da, 5, 3, 6, 29, 190, 117, 195, 120, 120, 195, 3, 0.913006
203, 6, bw, filler, NA, 999, 999, 6, 30, 131, 84, 122, 154, 181, 117, 3, 0.937955
203, 6, bw, filler, NA, 999, 999, 6, 30, 131, 84, 122, 154, 181, 117, 1, 0.498966
203, 6, bw, filler, NA, 999, 999, 6, 31, 148, 143, 106, 173, 84, 65, 1, 1.5968
203, 6, bw, filler, NA, 999, 999, 6, 31, 148, 143, 106, 173, 84, 65, 3, 0.587618
203, 6, bw, attraction, a-b-db, 5, 3, 6, 32, 195, 120, 117, 190, 120, 195, 1, 1.32998
203, 6, bw, attraction, a-b-db, 5, 3, 6, 32, 195, 120, 117, 190, 120, 195, 2, 0.627709
203, 6, bw, filler, NA, 999, 999, 6, 33, 124, 184, 117, 119, 94, 190, 1, 1.32
203, 6, bw, filler, NA, 999, 999, 6, 33, 124, 184, 117, 119, 94, 190, 2, 0.497547
203, 6, bw, catch, NA, 999, 999, 6, 34, 119, 76, 164, 91, 192, 123, 3, 0.979308
203, 6, bw, catch, NA, 999, 999, 6, 34, 119, 76, 164, 91, 192, 123, 1, 0.514958
203, 6, bw, filler, NA, 999, 999, 6, 35, 194, 107, 194, 118, 182, 151, 3, 2.0761
203, 6, bw, filler, NA, 999, 999, 6, 35, 194, 107, 194, 118, 182, 151, 1, 0.5274
203, 6, bw, attraction, a-b-db, 2, 3, 6, 36, 120, 195, 195, 120, 119, 193, 1, 2.68795
203, 6, bw, attraction, a-b-db, 2, 3, 6, 36, 120, 195, 195, 120, 119, 193, 3, 0.88236
203, 6, bw, attraction, a-b-da, 5, 2, 6, 37, 165, 90, 161, 88, 90, 165, 1, 2.63663
203, 6, bw, attraction, a-b-da, 5, 2, 6, 37, 165, 90, 161, 88, 90, 165, 3, 0.553929
203, 6, bw, attraction, a-b-da, 2, 2, 7, 1, 163, 89, 90, 165, 165, 90, 3, 2.41768
203, 6, bw, attraction, a-b-da, 2, 2, 7, 1, 163, 89, 90, 165, 165, 90, 2, 0.59148
203, 6, bw, attraction, a-b-da, 5, 1, 7, 2, 60, 135, 132, 58, 135, 60, 3, 1.99722
203, 6, bw, attraction, a-b-da, 5, 1, 7, 2, 60, 135, 132, 58, 135, 60, 1, 1.01999
203, 6, bw, attraction, a-b-db, 2, 2, 7, 3, 165, 90, 90, 165, 89, 163, 1, 98.7689
203, 6, bw, attraction, a-b-db, 2, 2, 7, 3, 165, 90, 90, 165, 89, 163, 2, 0.587259
203, 6, bw, attraction, a-b-db, 9, 1, 7, 4, 60, 135, 135, 60, 57, 129, 1, 1.99377
203, 6, bw, attraction, a-b-db, 9, 1, 7, 4, 60, 135, 135, 60, 57, 129, 3, 0.444515
203, 6, bw, catch, NA, 999, 999, 7, 5, 97, 158, 186, 129, 129, 66, 2, 0.692157
203, 6, bw, catch, NA, 999, 999, 7, 5, 97, 158, 186, 129, 129, 66, 3, 0.591285
203, 6, bw, attraction, a-b-db, 14, 3, 7, 6, 120, 195, 195, 120, 111, 181, 1, 1.28504
203, 6, bw, attraction, a-b-db, 14, 3, 7, 6, 120, 195, 195, 120, 111, 181, 3, 0.416766
203, 6, bw, attraction, a-b-db, 14, 2, 7, 7, 165, 90, 83, 153, 90, 165, 1, 1.22976
203, 6, bw, attraction, a-b-db, 14, 2, 7, 7, 165, 90, 83, 153, 90, 165, 2, 0.387396
203, 6, bw, attraction, a-b-da, 9, 3, 7, 8, 195, 120, 186, 114, 120, 195, 1, 2.02591
203, 6, bw, attraction, a-b-da, 9, 3, 7, 8, 195, 120, 186, 114, 120, 195, 2, 0.735146
203, 6, bw, filler, NA, 999, 999, 7, 9, 165, 138, 189, 158, 165, 133, 2, 1.27955
203, 6, bw, filler, NA, 999, 999, 7, 9, 165, 138, 189, 158, 165, 133, 1, 0.371167
203, 6, bw, attraction, a-b-da, 14, 1, 7, 10, 60, 135, 125, 56, 135, 60, 3, 1.05836
203, 6, bw, attraction, a-b-da, 14, 1, 7, 10, 60, 135, 125, 56, 135, 60, 2, 0.558642
203, 6, bw, filler, NA, 999, 999, 7, 11, 165, 80, 141, 157, 78, 66, 2, 1.34975
203, 6, bw, filler, NA, 999, 999, 7, 11, 165, 80, 141, 157, 78, 66, 3, 0.686711
203, 6, bw, filler, NA, 999, 999, 7, 12, 159, 163, 98, 96, 177, 151, 3, 0.961011
203, 6, bw, filler, NA, 999, 999, 7, 12, 159, 163, 98, 96, 177, 151, 2, 0.377409
203, 6, bw, filler, NA, 999, 999, 7, 13, 62, 74, 71, 149, 140, 158, 3, 1.44778
203, 6, bw, filler, NA, 999, 999, 7, 13, 62, 74, 71, 149, 140, 158, 1, 0.708632
203, 6, bw, catch, NA, 999, 999, 7, 14, 90, 165, 60, 135, 138, 177, 3, 0.573754
203, 6, bw, catch, NA, 999, 999, 7, 14, 90, 165, 60, 135, 138, 177, 2, 0.493511
203, 6, bw, filler, NA, 999, 999, 7, 15, 93, 121, 118, 91, 65, 167, 1, 5.91932
203, 6, bw, filler, NA, 999, 999, 7, 15, 93, 121, 118, 91, 65, 167, 3, 0.688184
203, 6, bw, attraction, a-b-db, 14, 1, 7, 16, 135, 60, 60, 135, 56, 125, 1, 3.02647
203, 6, bw, attraction, a-b-db, 14, 1, 7, 16, 135, 60, 60, 135, 56, 125, 3, 0.687578
203, 6, bw, filler, NA, 999, 999, 7, 17, 193, 189, 63, 107, 143, 89, 1, 0.73798
203, 6, bw, filler, NA, 999, 999, 7, 17, 193, 189, 63, 107, 143, 89, 2, 0.523008
203, 6, bw, attraction, a-b-da, 5, 3, 7, 18, 120, 195, 190, 117, 195, 120, 2, 1.46744
203, 6, bw, attraction, a-b-da, 5, 3, 7, 18, 120, 195, 190, 117, 195, 120, 1, 0.28761
203, 6, bw, attraction, a-b-da, 14, 2, 7, 19, 153, 83, 90, 165, 165, 90, 2, 1.26613
203, 6, bw, attraction, a-b-da, 14, 2, 7, 19, 153, 83, 90, 165, 165, 90, 1, 0.510468
203, 6, bw, filler, NA, 999, 999, 7, 20, 137, 155, 146, 72, 78, 180, 1, 1.61559
203, 6, bw, filler, NA, 999, 999, 7, 20, 137, 155, 146, 72, 78, 180, 2, 0.957681
203, 6, bw, attraction, a-b-da, 2, 3, 7, 21, 195, 120, 193, 119, 120, 195, 2, 1.56469
203, 6, bw, attraction, a-b-da, 2, 3, 7, 21, 195, 120, 193, 119, 120, 195, 3, 0.508695
203, 6, bw, attraction, a-b-da, 5, 2, 7, 22, 161, 88, 90, 165, 165, 90, 1, 3.07784
203, 6, bw, attraction, a-b-da, 5, 2, 7, 22, 161, 88, 90, 165, 165, 90, 2, 0.496819
203, 6, bw, attraction, a-b-db, 5, 1, 7, 23, 58, 132, 135, 60, 60, 135, 2, 1.29062
203, 6, bw, attraction, a-b-db, 5, 1, 7, 23, 58, 132, 135, 60, 60, 135, 1, 0.373633
203, 6, bw, attraction, a-b-da, 14, 3, 7, 24, 195, 120, 181, 111, 120, 195, 1, 1.73204
203, 6, bw, attraction, a-b-da, 14, 3, 7, 24, 195, 120, 181, 111, 120, 195, 2, 0.709466
203, 6, bw, attraction, a-b-db, 9, 3, 7, 25, 114, 186, 195, 120, 120, 195, 2, 1.79856
203, 6, bw, attraction, a-b-db, 9, 3, 7, 25, 114, 186, 195, 120, 120, 195, 1, 0.58942
203, 6, bw, filler, NA, 999, 999, 7, 26, 126, 82, 106, 58, 69, 185, 3, 1.65904
203, 6, bw, filler, NA, 999, 999, 7, 26, 126, 82, 106, 58, 69, 185, 2, 0.503571
203, 6, bw, attraction, a-b-db, 9, 2, 7, 27, 86, 157, 90, 165, 165, 90, 2, 1.17698
203, 6, bw, attraction, a-b-db, 9, 2, 7, 27, 86, 157, 90, 165, 165, 90, 1, 0.368509
203, 6, bw, catch, NA, 999, 999, 7, 28, 126, 129, 79, 116, 146, 169, 3, 1.14376
203, 6, bw, catch, NA, 999, 999, 7, 28, 126, 129, 79, 116, 146, 169, 2, 0.760687
203, 6, bw, attraction, a-b-db, 5, 2, 7, 29, 90, 165, 165, 90, 88, 161, 2, 2.55966
203, 6, bw, attraction, a-b-db, 5, 2, 7, 29, 90, 165, 165, 90, 88, 161, 1, 0.335488
203, 6, bw, filler, NA, 999, 999, 7, 30, 193, 184, 112, 66, 187, 174, 1, 1.29602
203, 6, bw, filler, NA, 999, 999, 7, 30, 193, 184, 112, 66, 187, 174, 2, 0.450926
203, 6, bw, attraction, a-b-da, 9, 2, 7, 31, 90, 165, 165, 90, 157, 86, 2, 4.06277
203, 6, bw, attraction, a-b-da, 9, 2, 7, 31, 90, 165, 165, 90, 157, 86, 1, 0.370156
203, 6, bw, attraction, a-b-db, 5, 3, 7, 32, 117, 190, 120, 195, 195, 120, 2, 1.95323
203, 6, bw, attraction, a-b-db, 5, 3, 7, 32, 117, 190, 120, 195, 195, 120, 1, 0.841955
203, 6, bw, attraction, a-b-db, 2, 1, 7, 33, 59, 134, 135, 60, 60, 135, 2, 4.46162
203, 6, bw, attraction, a-b-db, 2, 1, 7, 33, 59, 134, 135, 60, 60, 135, 1, 0.560913
203, 6, bw, attraction, a-b-db, 2, 3, 7, 34, 119, 193, 195, 120, 120, 195, 2, 1.96004
203, 6, bw, attraction, a-b-db, 2, 3, 7, 34, 119, 193, 195, 120, 120, 195, 3, 0.488036
203, 6, bw, attraction, a-b-da, 2, 1, 7, 35, 134, 59, 135, 60, 60, 135, 1, 2.51444
203, 6, bw, attraction, a-b-da, 2, 1, 7, 35, 134, 59, 135, 60, 60, 135, 3, 0.764314
203, 6, bw, filler, NA, 999, 999, 7, 36, 159, 70, 136, 112, 75, 82, 2, 1.65936
203, 6, bw, filler, NA, 999, 999, 7, 36, 159, 70, 136, 112, 75, 82, 3, 0.511585
203, 6, bw, attraction, a-b-da, 9, 1, 7, 37, 129, 57, 135, 60, 60, 135, 2, 3.99267
203, 6, bw, attraction, a-b-da, 9, 1, 7, 37, 129, 57, 135, 60, 60, 135, 3, 0.358684
203, 6, bw, attraction, a-b-db, 2, 1, 8, 1, 60, 135, 135, 60, 59, 134, 1, 1.54979
203, 6, bw, attraction, a-b-db, 2, 1, 8, 1, 60, 135, 135, 60, 59, 134, 3, 0.438593
203, 6, bw, attraction, a-b-da, 14, 2, 8, 2, 90, 165, 165, 90, 153, 83, 1, 1.77117
203, 6, bw, attraction, a-b-da, 14, 2, 8, 2, 90, 165, 165, 90, 153, 83, 3, 1.28251
203, 6, bw, attraction, a-b-da, 14, 1, 8, 3, 135, 60, 125, 56, 60, 135, 1, 2.42071
203, 6, bw, attraction, a-b-da, 14, 1, 8, 3, 135, 60, 125, 56, 60, 135, 2, 1.75396
203, 6, bw, attraction, a-b-da, 2, 1, 8, 4, 134, 59, 60, 135, 135, 60, 3, 1.05747
203, 6, bw, attraction, a-b-da, 2, 1, 8, 4, 134, 59, 60, 135, 135, 60, 2, 0.605694
203, 6, bw, filler, NA, 999, 999, 8, 5, 184, 147, 193, 125, 109, 135, 2, 0.971418
203, 6, bw, filler, NA, 999, 999, 8, 5, 184, 147, 193, 125, 109, 135, 3, 0.371073
203, 6, bw, filler, NA, 999, 999, 8, 6, 163, 186, 93, 151, 136, 120, 1, 0.738216
203, 6, bw, filler, NA, 999, 999, 8, 6, 163, 186, 93, 151, 136, 120, 2, 0.683385
203, 6, bw, filler, NA, 999, 999, 8, 7, 96, 142, 124, 104, 90, 155, 2, 5.22974
203, 6, bw, filler, NA, 999, 999, 8, 7, 96, 142, 124, 104, 90, 155, 3, 0.618034
203, 6, bw, attraction, a-b-db, 14, 2, 8, 8, 83, 153, 90, 165, 165, 90, 3, 2.26311
203, 6, bw, attraction, a-b-db, 14, 2, 8, 8, 83, 153, 90, 165, 165, 90, 1, 0.507002
203, 6, bw, catch, NA, 999, 999, 8, 9, 72, 123, 190, 125, 93, 162, 2, 0.812244
203, 6, bw, catch, NA, 999, 999, 8, 9, 72, 123, 190, 125, 93, 162, 1, 0.546622
203, 6, bw, attraction, a-b-da, 9, 2, 8, 10, 90, 165, 165, 90, 157, 86, 1, 1.29833
203, 6, bw, attraction, a-b-da, 9, 2, 8, 10, 90, 165, 165, 90, 157, 86, 3, 0.709191
203, 6, bw, catch, NA, 999, 999, 8, 11, 120, 135, 120, 75, 159, 156, 3, 0.894236
203, 6, bw, catch, NA, 999, 999, 8, 11, 120, 135, 120, 75, 159, 156, 2, 0.329338
203, 6, bw, filler, NA, 999, 999, 8, 12, 84, 177, 180, 128, 162, 149, 2, 0.873749
203, 6, bw, filler, NA, 999, 999, 8, 12, 84, 177, 180, 128, 162, 149, 1, 0.341478
203, 6, bw, attraction, a-b-da, 2, 2, 8, 13, 165, 90, 163, 89, 90, 165, 1, 2.1093
203, 6, bw, attraction, a-b-da, 2, 2, 8, 13, 165, 90, 163, 89, 90, 165, 3, 0.743277
203, 6, bw, attraction, a-b-da, 5, 3, 8, 14, 195, 120, 120, 195, 190, 117, 2, 0.607035
203, 6, bw, attraction, a-b-da, 5, 3, 8, 14, 195, 120, 120, 195, 190, 117, 3, 0.389481
203, 6, bw, attraction, a-b-db, 5, 2, 8, 15, 165, 90, 88, 161, 90, 165, 1, 0.987283
203, 6, bw, attraction, a-b-db, 5, 2, 8, 15, 165, 90, 88, 161, 90, 165, 2, 1.14702
203, 6, bw, attraction, a-b-da, 9, 3, 8, 16, 120, 195, 195, 120, 186, 114, 1, 1.55457
203, 6, bw, attraction, a-b-da, 9, 3, 8, 16, 120, 195, 195, 120, 186, 114, 2, 0.378686
203, 6, bw, attraction, a-b-db, 14, 3, 8, 17, 195, 120, 120, 195, 111, 181, 2, 1.02518
203, 6, bw, attraction, a-b-db, 14, 3, 8, 17, 195, 120, 120, 195, 111, 181, 3, 0.358899
203, 6, bw, attraction, a-b-db, 14, 1, 8, 18, 135, 60, 56, 125, 60, 135, 1, 0.950072
203, 6, bw, attraction, a-b-db, 14, 1, 8, 18, 135, 60, 56, 125, 60, 135, 2, 0.846992
203, 6, bw, attraction, a-b-da, 5, 2, 8, 19, 90, 165, 161, 88, 165, 90, 1, 2.43471
203, 6, bw, attraction, a-b-da, 5, 2, 8, 19, 90, 165, 161, 88, 165, 90, 2, 2.12791
203, 6, bw, attraction, a-b-da, 14, 3, 8, 20, 181, 111, 195, 120, 120, 195, 2, 1.07186
203, 6, bw, attraction, a-b-da, 14, 3, 8, 20, 181, 111, 195, 120, 120, 195, 1, 0.379507
203, 6, bw, filler, NA, 999, 999, 8, 21, 179, 147, 114, 65, 88, 102, 1, 0.905965
203, 6, bw, filler, NA, 999, 999, 8, 21, 179, 147, 114, 65, 88, 102, 2, 1.23637
203, 6, bw, attraction, a-b-da, 9, 1, 8, 22, 129, 57, 135, 60, 60, 135, 3, 1.33661
203, 6, bw, attraction, a-b-da, 9, 1, 8, 22, 129, 57, 135, 60, 60, 135, 1, 0.682166
203, 6, bw, attraction, a-b-db, 2, 2, 8, 23, 165, 90, 89, 163, 90, 165, 1, 1.28466
203, 6, bw, attraction, a-b-db, 2, 2, 8, 23, 165, 90, 89, 163, 90, 165, 3, 0.960094
203, 6, bw, attraction, a-b-da, 5, 1, 8, 24, 135, 60, 60, 135, 132, 58, 3, 6.89507
203, 6, bw, attraction, a-b-da, 5, 1, 8, 24, 135, 60, 60, 135, 132, 58, 1, 0.808176
203, 6, bw, attraction, a-b-db, 2, 3, 8, 25, 195, 120, 120, 195, 119, 193, 1, 2.06123
203, 6, bw, attraction, a-b-db, 2, 3, 8, 25, 195, 120, 120, 195, 119, 193, 3, 0.449224
203, 6, bw, attraction, a-b-db, 9, 2, 8, 26, 90, 165, 165, 90, 86, 157, 2, 1.50107
203, 6, bw, attraction, a-b-db, 9, 2, 8, 26, 90, 165, 165, 90, 86, 157, 3, 0.767833
203, 6, bw, attraction, a-b-db, 5, 1, 8, 27, 135, 60, 58, 132, 60, 135, 1, 1.09503
203, 6, bw, attraction, a-b-db, 5, 1, 8, 27, 135, 60, 58, 132, 60, 135, 2, 0.74582
203, 6, bw, filler, NA, 999, 999, 8, 28, 119, 145, 91, 118, 193, 82, 1, 3.0417
203, 6, bw, filler, NA, 999, 999, 8, 28, 119, 145, 91, 118, 193, 82, 2, 0.813969
203, 6, bw, attraction, a-b-da, 2, 3, 8, 29, 195, 120, 193, 119, 120, 195, 2, 2.45103
203, 6, bw, attraction, a-b-da, 2, 3, 8, 29, 195, 120, 193, 119, 120, 195, 3, 0.415504
203, 6, bw, filler, NA, 999, 999, 8, 30, 182, 59, 66, 195, 136, 159, 3, 1.02064
203, 6, bw, filler, NA, 999, 999, 8, 30, 182, 59, 66, 195, 136, 159, 1, 0.762201
203, 6, bw, attraction, a-b-db, 9, 3, 8, 31, 114, 186, 195, 120, 120, 195, 1, 2.86536
203, 6, bw, attraction, a-b-db, 9, 3, 8, 31, 114, 186, 195, 120, 120, 195, 2, 0.60504
203, 6, bw, filler, NA, 999, 999, 8, 32, 157, 90, 59, 103, 143, 186, 3, 0.93094
203, 6, bw, filler, NA, 999, 999, 8, 32, 157, 90, 59, 103, 143, 186, 2, 0.700583
203, 6, bw, attraction, a-b-db, 5, 3, 8, 33, 117, 190, 195, 120, 120, 195, 2, 1.30234
203, 6, bw, attraction, a-b-db, 5, 3, 8, 33, 117, 190, 195, 120, 120, 195, 3, 0.369123
203, 6, bw, attraction, a-b-db, 9, 1, 8, 34, 60, 135, 57, 129, 135, 60, 3, 5.33626
203, 6, bw, attraction, a-b-db, 9, 1, 8, 34, 60, 135, 57, 129, 135, 60, 2, 0.704765
203, 6, bw, filler, NA, 999, 999, 8, 35, 185, 112, 166, 73, 191, 96, 1, 1.5144
203, 6, bw, filler, NA, 999, 999, 8, 35, 185, 112, 166, 73, 191, 96, 2, 0.636429
203, 6, bw, catch, NA, 999, 999, 8, 36, 95, 160, 66, 129, 129, 186, 3, 1.56089
203, 6, bw, catch, NA, 999, 999, 8, 36, 95, 160, 66, 129, 129, 186, 2, 0.641221
203, 6, bw, filler, NA, 999, 999, 8, 37, 111, 135, 101, 171, 148, 90, 2, 3.45282
203, 6, bw, filler, NA, 999, 999, 8, 37, 111, 135, 101, 171, 148, 90, 1, 0.733012
