sub_n, computer_n, bw_cond, effect, set, distance, diag, block_n, trial_n, h1, w1, h2, w2, h3, w3, choice, rt 
211, 6, bw, practice, NA, 999, 999, 0, 1, 86, 108, 180, 73, 105, 95, 2, 6.12065
211, 6, bw, practice, NA, 999, 999, 0, 1, 86, 108, 180, 73, 105, 95, 1, 4.40766
211, 6, bw, practice, NA, 999, 999, 0, 2, 131, 119, 147, 142, 149, 65, 2, 2.08884
211, 6, bw, practice, NA, 999, 999, 0, 2, 131, 119, 147, 142, 149, 65, 3, 3.39665
211, 6, bw, practice, NA, 999, 999, 0, 3, 109, 81, 168, 175, 150, 155, 2, 2.50188
211, 6, bw, practice, NA, 999, 999, 0, 3, 109, 81, 168, 175, 150, 155, 1, 1.43417
211, 6, bw, attraction, a-b-db, 5, 1, 1, 1, 135, 60, 58, 132, 60, 135, 3, 3.70776
211, 6, bw, attraction, a-b-db, 5, 1, 1, 1, 135, 60, 58, 132, 60, 135, 2, 1.1972
211, 6, bw, filler, NA, 999, 999, 1, 2, 189, 92, 112, 160, 165, 171, 3, 1.89879
211, 6, bw, filler, NA, 999, 999, 1, 2, 189, 92, 112, 160, 165, 171, 2, 1.54152
211, 6, bw, catch, NA, 999, 999, 1, 3, 89, 106, 114, 141, 149, 166, 3, 1.99697
211, 6, bw, catch, NA, 999, 999, 1, 3, 89, 106, 114, 141, 149, 166, 1, 0.739634
211, 6, bw, filler, NA, 999, 999, 1, 4, 129, 63, 190, 58, 95, 89, 2, 3.40337
211, 6, bw, filler, NA, 999, 999, 1, 4, 129, 63, 190, 58, 95, 89, 1, 0.977635
211, 6, bw, attraction, a-b-da, 9, 3, 1, 5, 186, 114, 195, 120, 120, 195, 3, 3.55189
211, 6, bw, attraction, a-b-da, 9, 3, 1, 5, 186, 114, 195, 120, 120, 195, 1, 0.80004
211, 6, bw, filler, NA, 999, 999, 1, 6, 97, 155, 85, 100, 68, 56, 1, 2.92582
211, 6, bw, filler, NA, 999, 999, 1, 6, 97, 155, 85, 100, 68, 56, 3, 1.04682
211, 6, bw, attraction, a-b-da, 14, 3, 1, 7, 120, 195, 181, 111, 195, 120, 1, 2.41051
211, 6, bw, attraction, a-b-da, 14, 3, 1, 7, 120, 195, 181, 111, 195, 120, 2, 0.424323
211, 6, bw, attraction, a-b-da, 9, 1, 1, 8, 60, 135, 135, 60, 129, 57, 1, 1.80485
211, 6, bw, attraction, a-b-da, 9, 1, 1, 8, 60, 135, 135, 60, 129, 57, 2, 0.906989
211, 6, bw, attraction, a-b-db, 2, 3, 1, 9, 195, 120, 120, 195, 119, 193, 2, 2.76386
211, 6, bw, attraction, a-b-db, 2, 3, 1, 9, 195, 120, 120, 195, 119, 193, 1, 0.699612
211, 6, bw, attraction, a-b-db, 14, 3, 1, 10, 120, 195, 195, 120, 111, 181, 1, 1.38128
211, 6, bw, attraction, a-b-db, 14, 3, 1, 10, 120, 195, 195, 120, 111, 181, 2, 0.876876
211, 6, bw, attraction, a-b-db, 5, 3, 1, 11, 120, 195, 117, 190, 195, 120, 2, 1.61522
211, 6, bw, attraction, a-b-db, 5, 3, 1, 11, 120, 195, 117, 190, 195, 120, 3, 1.26142
211, 6, bw, attraction, a-b-da, 2, 1, 1, 12, 134, 59, 60, 135, 135, 60, 1, 3.14422
211, 6, bw, attraction, a-b-da, 2, 1, 1, 12, 134, 59, 60, 135, 135, 60, 2, 3.58459
211, 6, bw, filler, NA, 999, 999, 1, 13, 69, 119, 61, 109, 165, 123, 3, 1.342
211, 6, bw, filler, NA, 999, 999, 1, 13, 69, 119, 61, 109, 165, 123, 2, 1.05503
211, 6, bw, filler, NA, 999, 999, 1, 14, 92, 154, 132, 156, 99, 111, 2, 1.52262
211, 6, bw, filler, NA, 999, 999, 1, 14, 92, 154, 132, 156, 99, 111, 3, 0.787996
211, 6, bw, filler, NA, 999, 999, 1, 15, 159, 111, 104, 172, 56, 99, 2, 1.50641
211, 6, bw, filler, NA, 999, 999, 1, 15, 159, 111, 104, 172, 56, 99, 3, 0.380554
211, 6, bw, attraction, a-b-db, 14, 2, 1, 16, 83, 153, 90, 165, 165, 90, 2, 2.61906
211, 6, bw, attraction, a-b-db, 14, 2, 1, 16, 83, 153, 90, 165, 165, 90, 1, 0.688891
211, 6, bw, catch, NA, 999, 999, 1, 17, 136, 179, 83, 112, 128, 127, 1, 1.24325
211, 6, bw, catch, NA, 999, 999, 1, 17, 136, 179, 83, 112, 128, 127, 2, 0.480241
211, 6, bw, attraction, a-b-db, 9, 2, 1, 18, 165, 90, 90, 165, 86, 157, 2, 1.5227
211, 6, bw, attraction, a-b-db, 9, 2, 1, 18, 165, 90, 90, 165, 86, 157, 1, 0.764215
211, 6, bw, filler, NA, 999, 999, 1, 19, 101, 120, 109, 111, 144, 143, 3, 0.987206
211, 6, bw, filler, NA, 999, 999, 1, 19, 101, 120, 109, 111, 144, 143, 1, 1.53821
211, 6, bw, attraction, a-b-db, 2, 2, 1, 20, 90, 165, 89, 163, 165, 90, 2, 1.60238
211, 6, bw, attraction, a-b-db, 2, 2, 1, 20, 90, 165, 89, 163, 165, 90, 3, 0.665206
211, 6, bw, attraction, a-b-da, 2, 3, 1, 21, 193, 119, 195, 120, 120, 195, 3, 2.19634
211, 6, bw, attraction, a-b-da, 2, 3, 1, 21, 193, 119, 195, 120, 120, 195, 2, 0.746793
211, 6, bw, attraction, a-b-db, 9, 1, 1, 22, 60, 135, 135, 60, 57, 129, 1, 3.50652
211, 6, bw, attraction, a-b-db, 9, 1, 1, 22, 60, 135, 135, 60, 57, 129, 2, 0.940054
211, 6, bw, filler, NA, 999, 999, 1, 23, 89, 75, 130, 86, 109, 128, 2, 2.02771
211, 6, bw, filler, NA, 999, 999, 1, 23, 89, 75, 130, 86, 109, 128, 1, 0.913131
211, 6, bw, attraction, a-b-da, 5, 1, 1, 24, 135, 60, 132, 58, 60, 135, 1, 1.80208
211, 6, bw, attraction, a-b-da, 5, 1, 1, 24, 135, 60, 132, 58, 60, 135, 2, 0.416755
211, 6, bw, attraction, a-b-da, 2, 2, 1, 25, 163, 89, 90, 165, 165, 90, 2, 1.31798
211, 6, bw, attraction, a-b-da, 2, 2, 1, 25, 163, 89, 90, 165, 165, 90, 1, 0.58418
211, 6, bw, attraction, a-b-db, 5, 2, 1, 26, 90, 165, 88, 161, 165, 90, 1, 1.21457
211, 6, bw, attraction, a-b-db, 5, 2, 1, 26, 90, 165, 88, 161, 165, 90, 3, 1.00508
211, 6, bw, attraction, a-b-da, 14, 2, 1, 27, 90, 165, 153, 83, 165, 90, 1, 1.79451
211, 6, bw, attraction, a-b-da, 14, 2, 1, 27, 90, 165, 153, 83, 165, 90, 2, 1.5292
211, 6, bw, filler, NA, 999, 999, 1, 28, 137, 148, 112, 85, 102, 59, 1, 0.905274
211, 6, bw, filler, NA, 999, 999, 1, 28, 137, 148, 112, 85, 102, 59, 3, 0.891812
211, 6, bw, attraction, a-b-da, 5, 3, 1, 29, 195, 120, 120, 195, 190, 117, 2, 2.30938
211, 6, bw, attraction, a-b-da, 5, 3, 1, 29, 195, 120, 120, 195, 190, 117, 1, 1.27133
211, 6, bw, attraction, a-b-da, 14, 1, 1, 30, 125, 56, 135, 60, 60, 135, 3, 1.53814
211, 6, bw, attraction, a-b-da, 14, 1, 1, 30, 125, 56, 135, 60, 60, 135, 2, 1.83501
211, 6, bw, attraction, a-b-da, 9, 2, 1, 31, 165, 90, 157, 86, 90, 165, 3, 3.66308
211, 6, bw, attraction, a-b-da, 9, 2, 1, 31, 165, 90, 157, 86, 90, 165, 2, 0.762468
211, 6, bw, attraction, a-b-db, 2, 1, 1, 32, 135, 60, 59, 134, 60, 135, 3, 5.4176
211, 6, bw, attraction, a-b-db, 2, 1, 1, 32, 135, 60, 59, 134, 60, 135, 2, 0.798496
211, 6, bw, attraction, a-b-db, 9, 3, 1, 33, 114, 186, 195, 120, 120, 195, 3, 2.84423
211, 6, bw, attraction, a-b-db, 9, 3, 1, 33, 114, 186, 195, 120, 120, 195, 1, 0.640658
211, 6, bw, catch, NA, 999, 999, 1, 34, 128, 127, 151, 164, 64, 131, 2, 1.24435
211, 6, bw, catch, NA, 999, 999, 1, 34, 128, 127, 151, 164, 64, 131, 3, 0.881234
211, 6, bw, attraction, a-b-db, 14, 1, 1, 35, 56, 125, 60, 135, 135, 60, 2, 1.89165
211, 6, bw, attraction, a-b-db, 14, 1, 1, 35, 56, 125, 60, 135, 135, 60, 1, 1.24629
211, 6, bw, attraction, a-b-da, 5, 2, 1, 36, 165, 90, 90, 165, 161, 88, 2, 1.85796
211, 6, bw, attraction, a-b-da, 5, 2, 1, 36, 165, 90, 90, 165, 161, 88, 3, 3.59798
211, 6, bw, filler, NA, 999, 999, 1, 37, 129, 122, 158, 102, 107, 106, 1, 3.2987
211, 6, bw, filler, NA, 999, 999, 1, 37, 129, 122, 158, 102, 107, 106, 3, 0.677181
211, 6, bw, attraction, a-b-db, 9, 2, 2, 1, 90, 165, 165, 90, 86, 157, 2, 1.31947
211, 6, bw, attraction, a-b-db, 9, 2, 2, 1, 90, 165, 165, 90, 86, 157, 1, 0.505574
211, 6, bw, attraction, a-b-da, 2, 2, 2, 2, 165, 90, 163, 89, 90, 165, 3, 1.82742
211, 6, bw, attraction, a-b-da, 2, 2, 2, 2, 165, 90, 163, 89, 90, 165, 2, 0.45685
211, 6, bw, filler, NA, 999, 999, 2, 3, 90, 106, 148, 191, 147, 108, 2, 0.915987
211, 6, bw, filler, NA, 999, 999, 2, 3, 90, 106, 148, 191, 147, 108, 1, 0.406426
211, 6, bw, filler, NA, 999, 999, 2, 4, 78, 157, 117, 84, 58, 83, 1, 1.45951
211, 6, bw, filler, NA, 999, 999, 2, 4, 78, 157, 117, 84, 58, 83, 3, 0.631706
211, 6, bw, attraction, a-b-da, 14, 1, 2, 5, 60, 135, 125, 56, 135, 60, 1, 26.9001
211, 6, bw, attraction, a-b-da, 14, 1, 2, 5, 60, 135, 125, 56, 135, 60, 2, 0.942941
211, 6, bw, filler, NA, 999, 999, 2, 6, 193, 166, 168, 136, 136, 125, 1, 1.59868
211, 6, bw, filler, NA, 999, 999, 2, 6, 193, 166, 168, 136, 136, 125, 3, 1.32543
211, 6, bw, attraction, a-b-da, 5, 2, 2, 7, 161, 88, 90, 165, 165, 90, 2, 1.56566
211, 6, bw, attraction, a-b-da, 5, 2, 2, 7, 161, 88, 90, 165, 165, 90, 1, 1.02182
211, 6, bw, attraction, a-b-db, 2, 2, 2, 8, 89, 163, 90, 165, 165, 90, 3, 3.81081
211, 6, bw, attraction, a-b-db, 2, 2, 2, 8, 89, 163, 90, 165, 165, 90, 2, 0.600177
211, 6, bw, attraction, a-b-db, 5, 1, 2, 9, 60, 135, 135, 60, 58, 132, 3, 1.76591
211, 6, bw, attraction, a-b-db, 5, 1, 2, 9, 60, 135, 135, 60, 58, 132, 1, 1.27001
211, 6, bw, filler, NA, 999, 999, 2, 10, 161, 158, 62, 148, 166, 195, 3, 0.968888
211, 6, bw, filler, NA, 999, 999, 2, 10, 161, 158, 62, 148, 166, 195, 2, 1.1532
211, 6, bw, filler, NA, 999, 999, 2, 11, 156, 167, 167, 109, 86, 93, 1, 1.54486
211, 6, bw, filler, NA, 999, 999, 2, 11, 156, 167, 167, 109, 86, 93, 3, 0.865683
211, 6, bw, attraction, a-b-da, 9, 3, 2, 12, 186, 114, 120, 195, 195, 120, 2, 2.26868
211, 6, bw, attraction, a-b-da, 9, 3, 2, 12, 186, 114, 120, 195, 195, 120, 1, 0.976564
211, 6, bw, filler, NA, 999, 999, 2, 13, 108, 109, 168, 100, 153, 57, 2, 1.43092
211, 6, bw, filler, NA, 999, 999, 2, 13, 108, 109, 168, 100, 153, 57, 3, 0.548464
211, 6, bw, attraction, a-b-db, 14, 2, 2, 14, 83, 153, 90, 165, 165, 90, 2, 1.11633
211, 6, bw, attraction, a-b-db, 14, 2, 2, 14, 83, 153, 90, 165, 165, 90, 1, 0.40652
211, 6, bw, attraction, a-b-db, 9, 1, 2, 15, 135, 60, 57, 129, 60, 135, 1, 0.96363
211, 6, bw, attraction, a-b-db, 9, 1, 2, 15, 135, 60, 57, 129, 60, 135, 2, 1.12394
211, 6, bw, filler, NA, 999, 999, 2, 16, 110, 117, 140, 68, 126, 105, 1, 1.02015
211, 6, bw, filler, NA, 999, 999, 2, 16, 110, 117, 140, 68, 126, 105, 2, 0.442669
211, 6, bw, attraction, a-b-db, 14, 1, 2, 17, 135, 60, 60, 135, 56, 125, 2, 1.65433
211, 6, bw, attraction, a-b-db, 14, 1, 2, 17, 135, 60, 60, 135, 56, 125, 1, 0.666507
211, 6, bw, attraction, a-b-db, 2, 3, 2, 18, 119, 193, 120, 195, 195, 120, 3, 1.62949
211, 6, bw, attraction, a-b-db, 2, 3, 2, 18, 119, 193, 120, 195, 195, 120, 1, 0.55514
211, 6, bw, attraction, a-b-da, 14, 2, 2, 19, 153, 83, 90, 165, 165, 90, 2, 1.36269
211, 6, bw, attraction, a-b-da, 14, 2, 2, 19, 153, 83, 90, 165, 165, 90, 1, 0.554997
211, 6, bw, attraction, a-b-da, 5, 1, 2, 20, 135, 60, 60, 135, 132, 58, 2, 1.19484
211, 6, bw, attraction, a-b-da, 5, 1, 2, 20, 135, 60, 60, 135, 132, 58, 1, 0.5137
211, 6, bw, attraction, a-b-db, 14, 3, 2, 21, 120, 195, 111, 181, 195, 120, 3, 1.84289
211, 6, bw, attraction, a-b-db, 14, 3, 2, 21, 120, 195, 111, 181, 195, 120, 2, 0.311486
211, 6, bw, attraction, a-b-da, 5, 3, 2, 22, 190, 117, 195, 120, 120, 195, 1, 0.888648
211, 6, bw, attraction, a-b-da, 5, 3, 2, 22, 190, 117, 195, 120, 120, 195, 3, 0.339729
211, 6, bw, filler, NA, 999, 999, 2, 23, 69, 138, 132, 163, 141, 173, 2, 0.987533
211, 6, bw, filler, NA, 999, 999, 2, 23, 69, 138, 132, 163, 141, 173, 1, 1.4106
211, 6, bw, attraction, a-b-db, 9, 3, 2, 24, 120, 195, 114, 186, 195, 120, 2, 3.02339
211, 6, bw, attraction, a-b-db, 9, 3, 2, 24, 120, 195, 114, 186, 195, 120, 1, 1.10841
211, 6, bw, attraction, a-b-da, 2, 1, 2, 25, 134, 59, 60, 135, 135, 60, 2, 1.86925
211, 6, bw, attraction, a-b-da, 2, 1, 2, 25, 134, 59, 60, 135, 135, 60, 1, 0.713377
211, 6, bw, attraction, a-b-da, 9, 2, 2, 26, 90, 165, 157, 86, 165, 90, 1, 1.87452
211, 6, bw, attraction, a-b-da, 9, 2, 2, 26, 90, 165, 157, 86, 165, 90, 2, 1.18192
211, 6, bw, filler, NA, 999, 999, 2, 27, 181, 86, 195, 122, 195, 132, 3, 1.87613
211, 6, bw, filler, NA, 999, 999, 2, 27, 181, 86, 195, 122, 195, 132, 1, 0.55143
211, 6, bw, attraction, a-b-da, 9, 1, 2, 28, 129, 57, 60, 135, 135, 60, 2, 1.58318
211, 6, bw, attraction, a-b-da, 9, 1, 2, 28, 129, 57, 60, 135, 135, 60, 1, 5.19891
211, 6, bw, catch, NA, 999, 999, 2, 29, 65, 130, 156, 159, 125, 130, 2, 1.05902
211, 6, bw, catch, NA, 999, 999, 2, 29, 65, 130, 156, 159, 125, 130, 1, 0.527349
211, 6, bw, attraction, a-b-db, 5, 2, 2, 30, 165, 90, 88, 161, 90, 165, 3, 3.46377
211, 6, bw, attraction, a-b-db, 5, 2, 2, 30, 165, 90, 88, 161, 90, 165, 1, 0.555313
211, 6, bw, catch, NA, 999, 999, 2, 31, 187, 128, 103, 92, 134, 121, 1, 1.09123
211, 6, bw, catch, NA, 999, 999, 2, 31, 187, 128, 103, 92, 134, 121, 2, 0.990096
211, 6, bw, attraction, a-b-da, 14, 3, 2, 32, 195, 120, 120, 195, 181, 111, 1, 1.48382
211, 6, bw, attraction, a-b-da, 14, 3, 2, 32, 195, 120, 120, 195, 181, 111, 2, 0.415282
211, 6, bw, attraction, a-b-db, 2, 1, 2, 33, 59, 134, 135, 60, 60, 135, 3, 1.28435
211, 6, bw, attraction, a-b-db, 2, 1, 2, 33, 59, 134, 135, 60, 60, 135, 2, 0.639937
211, 6, bw, catch, NA, 999, 999, 2, 34, 157, 98, 75, 120, 156, 159, 3, 0.803616
211, 6, bw, catch, NA, 999, 999, 2, 34, 157, 98, 75, 120, 156, 159, 2, 0.4747
211, 6, bw, attraction, a-b-da, 2, 3, 2, 35, 195, 120, 120, 195, 193, 119, 2, 2.38122
211, 6, bw, attraction, a-b-da, 2, 3, 2, 35, 195, 120, 120, 195, 193, 119, 3, 0.660451
211, 6, bw, attraction, a-b-db, 5, 3, 2, 36, 117, 190, 120, 195, 195, 120, 2, 2.73551
211, 6, bw, attraction, a-b-db, 5, 3, 2, 36, 117, 190, 120, 195, 195, 120, 3, 1.17667
211, 6, bw, filler, NA, 999, 999, 2, 37, 147, 177, 167, 112, 94, 126, 1, 1.43079
211, 6, bw, filler, NA, 999, 999, 2, 37, 147, 177, 167, 112, 94, 126, 3, 0.716508
211, 6, bw, filler, NA, 999, 999, 3, 1, 97, 165, 170, 83, 102, 184, 3, 1.34147
211, 6, bw, filler, NA, 999, 999, 3, 1, 97, 165, 170, 83, 102, 184, 2, 2.24636
211, 6, bw, attraction, a-b-db, 2, 3, 3, 2, 120, 195, 119, 193, 195, 120, 1, 1.11354
211, 6, bw, attraction, a-b-db, 2, 3, 3, 2, 120, 195, 119, 193, 195, 120, 3, 0.691853
211, 6, bw, attraction, a-b-db, 14, 3, 3, 3, 111, 181, 120, 195, 195, 120, 1, 0.813592
211, 6, bw, attraction, a-b-db, 14, 3, 3, 3, 111, 181, 120, 195, 195, 120, 3, 0.555972
211, 6, bw, attraction, a-b-da, 9, 2, 3, 4, 90, 165, 157, 86, 165, 90, 1, 0.691724
211, 6, bw, attraction, a-b-da, 9, 2, 3, 4, 90, 165, 157, 86, 165, 90, 3, 1.06286
211, 6, bw, filler, NA, 999, 999, 3, 5, 102, 176, 134, 98, 104, 56, 1, 0.897707
211, 6, bw, filler, NA, 999, 999, 3, 5, 102, 176, 134, 98, 104, 56, 3, 0.900751
211, 6, bw, filler, NA, 999, 999, 3, 6, 173, 72, 180, 58, 90, 137, 3, 0.98262
211, 6, bw, filler, NA, 999, 999, 3, 6, 173, 72, 180, 58, 90, 137, 2, 0.614043
211, 6, bw, filler, NA, 999, 999, 3, 7, 163, 89, 58, 191, 98, 165, 1, 1.86711
211, 6, bw, filler, NA, 999, 999, 3, 7, 163, 89, 58, 191, 98, 165, 2, 0.663314
211, 6, bw, attraction, a-b-da, 5, 1, 3, 8, 135, 60, 60, 135, 132, 58, 2, 1.24227
211, 6, bw, attraction, a-b-da, 5, 1, 3, 8, 135, 60, 60, 135, 132, 58, 1, 0.879219
211, 6, bw, attraction, a-b-db, 14, 1, 3, 9, 56, 125, 135, 60, 60, 135, 2, 1.2176
211, 6, bw, attraction, a-b-db, 14, 1, 3, 9, 56, 125, 135, 60, 60, 135, 1, 1.09588
211, 6, bw, attraction, a-b-db, 9, 1, 3, 10, 60, 135, 135, 60, 57, 129, 1, 1.25737
211, 6, bw, attraction, a-b-db, 9, 1, 3, 10, 60, 135, 135, 60, 57, 129, 3, 0.893619
211, 6, bw, attraction, a-b-db, 5, 2, 3, 11, 90, 165, 88, 161, 165, 90, 3, 3.37538
211, 6, bw, attraction, a-b-db, 5, 2, 3, 11, 90, 165, 88, 161, 165, 90, 2, 1.56629
211, 6, bw, catch, NA, 999, 999, 3, 12, 71, 124, 136, 119, 181, 134, 3, 1.17308
211, 6, bw, catch, NA, 999, 999, 3, 12, 71, 124, 136, 119, 181, 134, 1, 1.46872
211, 6, bw, attraction, a-b-da, 2, 3, 3, 13, 193, 119, 195, 120, 120, 195, 1, 2.64766
211, 6, bw, attraction, a-b-da, 2, 3, 3, 13, 193, 119, 195, 120, 120, 195, 2, 1.37211
211, 6, bw, attraction, a-b-db, 9, 3, 3, 14, 120, 195, 195, 120, 114, 186, 1, 1.0508
211, 6, bw, attraction, a-b-db, 9, 3, 3, 14, 120, 195, 195, 120, 114, 186, 3, 2.51975
211, 6, bw, attraction, a-b-da, 14, 2, 3, 15, 90, 165, 153, 83, 165, 90, 1, 3.68032
211, 6, bw, attraction, a-b-da, 14, 2, 3, 15, 90, 165, 153, 83, 165, 90, 2, 1.41113
211, 6, bw, catch, NA, 999, 999, 3, 16, 141, 114, 159, 156, 115, 80, 2, 1.30387
211, 6, bw, catch, NA, 999, 999, 3, 16, 141, 114, 159, 156, 115, 80, 3, 1.37011
211, 6, bw, attraction, a-b-da, 14, 1, 3, 17, 135, 60, 125, 56, 60, 135, 3, 2.53718
211, 6, bw, attraction, a-b-da, 14, 1, 3, 17, 135, 60, 125, 56, 60, 135, 2, 1.29017
211, 6, bw, attraction, a-b-da, 2, 2, 3, 18, 90, 165, 165, 90, 163, 89, 1, 1.33967
211, 6, bw, attraction, a-b-da, 2, 2, 3, 18, 90, 165, 165, 90, 163, 89, 3, 1.82857
211, 6, bw, attraction, a-b-db, 5, 3, 3, 19, 120, 195, 117, 190, 195, 120, 2, 2.72862
211, 6, bw, attraction, a-b-db, 5, 3, 3, 19, 120, 195, 117, 190, 195, 120, 3, 1.08178
211, 6, bw, catch, NA, 999, 999, 3, 20, 142, 173, 99, 156, 103, 92, 1, 1.45198
211, 6, bw, catch, NA, 999, 999, 3, 20, 142, 173, 99, 156, 103, 92, 3, 1.5209
211, 6, bw, attraction, a-b-da, 9, 3, 3, 21, 186, 114, 195, 120, 120, 195, 3, 1.04164
211, 6, bw, attraction, a-b-da, 9, 3, 3, 21, 186, 114, 195, 120, 120, 195, 1, 0.630687
211, 6, bw, attraction, a-b-da, 5, 3, 3, 22, 120, 195, 190, 117, 195, 120, 1, 2.38701
211, 6, bw, attraction, a-b-da, 5, 3, 3, 22, 120, 195, 190, 117, 195, 120, 3, 1.33828
211, 6, bw, attraction, a-b-da, 5, 2, 3, 23, 161, 88, 90, 165, 165, 90, 2, 1.37051
211, 6, bw, attraction, a-b-da, 5, 2, 3, 23, 161, 88, 90, 165, 165, 90, 1, 0.634918
211, 6, bw, attraction, a-b-da, 14, 3, 3, 24, 195, 120, 120, 195, 181, 111, 2, 0.823056
211, 6, bw, attraction, a-b-da, 14, 3, 3, 24, 195, 120, 120, 195, 181, 111, 3, 0.820813
211, 6, bw, filler, NA, 999, 999, 3, 25, 107, 184, 186, 102, 57, 150, 2, 1.49784
211, 6, bw, filler, NA, 999, 999, 3, 25, 107, 184, 186, 102, 57, 150, 3, 0.620812
211, 6, bw, attraction, a-b-db, 2, 1, 3, 26, 59, 134, 135, 60, 60, 135, 3, 2.36978
211, 6, bw, attraction, a-b-db, 2, 1, 3, 26, 59, 134, 135, 60, 60, 135, 2, 1.33763
211, 6, bw, attraction, a-b-db, 2, 2, 3, 27, 90, 165, 165, 90, 89, 163, 1, 1.84188
211, 6, bw, attraction, a-b-db, 2, 2, 3, 27, 90, 165, 165, 90, 89, 163, 2, 0.790558
211, 6, bw, attraction, a-b-db, 14, 2, 3, 28, 90, 165, 83, 153, 165, 90, 2, 1.25229
211, 6, bw, attraction, a-b-db, 14, 2, 3, 28, 90, 165, 83, 153, 165, 90, 3, 0.833261
211, 6, bw, attraction, a-b-db, 5, 1, 3, 29, 60, 135, 58, 132, 135, 60, 2, 1.1655
211, 6, bw, attraction, a-b-db, 5, 1, 3, 29, 60, 135, 58, 132, 135, 60, 1, 1.41379
211, 6, bw, filler, NA, 999, 999, 3, 30, 99, 147, 120, 162, 179, 187, 3, 0.84262
211, 6, bw, filler, NA, 999, 999, 3, 30, 99, 147, 120, 162, 179, 187, 1, 0.751783
211, 6, bw, attraction, a-b-da, 2, 1, 3, 31, 60, 135, 134, 59, 135, 60, 3, 0.863428
211, 6, bw, attraction, a-b-da, 2, 1, 3, 31, 60, 135, 134, 59, 135, 60, 2, 0.699836
211, 6, bw, filler, NA, 999, 999, 3, 32, 120, 112, 88, 75, 170, 115, 1, 1.54956
211, 6, bw, filler, NA, 999, 999, 3, 32, 120, 112, 88, 75, 170, 115, 2, 0.478411
211, 6, bw, attraction, a-b-da, 9, 1, 3, 33, 135, 60, 129, 57, 60, 135, 1, 0.896774
211, 6, bw, attraction, a-b-da, 9, 1, 3, 33, 135, 60, 129, 57, 60, 135, 3, 0.667804
211, 6, bw, filler, NA, 999, 999, 3, 34, 147, 174, 74, 75, 100, 143, 1, 2.84688
211, 6, bw, filler, NA, 999, 999, 3, 34, 147, 174, 74, 75, 100, 143, 2, 0.675221
211, 6, bw, filler, NA, 999, 999, 3, 35, 95, 70, 94, 158, 80, 154, 2, 1.42962
211, 6, bw, filler, NA, 999, 999, 3, 35, 95, 70, 94, 158, 80, 154, 1, 0.563289
211, 6, bw, filler, NA, 999, 999, 3, 36, 158, 124, 89, 109, 98, 75, 1, 1.3383
211, 6, bw, filler, NA, 999, 999, 3, 36, 158, 124, 89, 109, 98, 75, 3, 0.6112
211, 6, bw, attraction, a-b-db, 9, 2, 3, 37, 90, 165, 165, 90, 86, 157, 1, 1.84029
211, 6, bw, attraction, a-b-db, 9, 2, 3, 37, 90, 165, 165, 90, 86, 157, 3, 2.36506
211, 6, bw, attraction, a-b-db, 5, 3, 4, 1, 117, 190, 120, 195, 195, 120, 2, 4.65956
211, 6, bw, attraction, a-b-db, 5, 3, 4, 1, 117, 190, 120, 195, 195, 120, 1, 0.534737
211, 6, bw, attraction, a-b-da, 9, 1, 4, 2, 60, 135, 129, 57, 135, 60, 1, 2.35917
211, 6, bw, attraction, a-b-da, 9, 1, 4, 2, 60, 135, 129, 57, 135, 60, 2, 0.871008
211, 6, bw, attraction, a-b-db, 5, 1, 4, 3, 58, 132, 60, 135, 135, 60, 2, 3.15407
211, 6, bw, attraction, a-b-db, 5, 1, 4, 3, 58, 132, 60, 135, 135, 60, 1, 2.12247
211, 6, bw, filler, NA, 999, 999, 4, 4, 124, 75, 136, 123, 75, 144, 2, 0.962999
211, 6, bw, filler, NA, 999, 999, 4, 4, 124, 75, 136, 123, 75, 144, 1, 0.67527
211, 6, bw, attraction, a-b-db, 9, 2, 4, 5, 86, 157, 90, 165, 165, 90, 2, 1.32578
211, 6, bw, attraction, a-b-db, 9, 2, 4, 5, 86, 157, 90, 165, 165, 90, 1, 1.22334
211, 6, bw, filler, NA, 999, 999, 4, 6, 174, 146, 164, 184, 63, 157, 2, 1.13945
211, 6, bw, filler, NA, 999, 999, 4, 6, 174, 146, 164, 184, 63, 157, 3, 1.27652
211, 6, bw, attraction, a-b-db, 5, 2, 4, 7, 90, 165, 88, 161, 165, 90, 1, 2.11872
211, 6, bw, attraction, a-b-db, 5, 2, 4, 7, 90, 165, 88, 161, 165, 90, 3, 0.48066
211, 6, bw, attraction, a-b-db, 14, 3, 4, 8, 120, 195, 195, 120, 111, 181, 1, 1.45116
211, 6, bw, attraction, a-b-db, 14, 3, 4, 8, 120, 195, 195, 120, 111, 181, 3, 0.423999
211, 6, bw, filler, NA, 999, 999, 4, 9, 70, 152, 77, 96, 144, 87, 3, 1.58041
211, 6, bw, filler, NA, 999, 999, 4, 9, 70, 152, 77, 96, 144, 87, 2, 1.67609
211, 6, bw, attraction, a-b-da, 5, 2, 4, 10, 90, 165, 161, 88, 165, 90, 1, 1.43806
211, 6, bw, attraction, a-b-da, 5, 2, 4, 10, 90, 165, 161, 88, 165, 90, 2, 0.442852
211, 6, bw, attraction, a-b-db, 9, 1, 4, 11, 57, 129, 135, 60, 60, 135, 3, 2.73466
211, 6, bw, attraction, a-b-db, 9, 1, 4, 11, 57, 129, 135, 60, 60, 135, 2, 0.391884
211, 6, bw, catch, NA, 999, 999, 4, 12, 72, 123, 139, 176, 115, 140, 2, 1.02163
211, 6, bw, catch, NA, 999, 999, 4, 12, 72, 123, 139, 176, 115, 140, 1, 0.419257
211, 6, bw, filler, NA, 999, 999, 4, 13, 140, 176, 186, 108, 140, 122, 1, 1.0564
211, 6, bw, filler, NA, 999, 999, 4, 13, 140, 176, 186, 108, 140, 122, 2, 0.500653
211, 6, bw, catch, NA, 999, 999, 4, 14, 172, 143, 90, 165, 110, 85, 1, 0.846524
211, 6, bw, catch, NA, 999, 999, 4, 14, 172, 143, 90, 165, 110, 85, 3, 0.603496
211, 6, bw, attraction, a-b-db, 2, 2, 4, 15, 89, 163, 90, 165, 165, 90, 2, 1.22522
211, 6, bw, attraction, a-b-db, 2, 2, 4, 15, 89, 163, 90, 165, 165, 90, 1, 0.550853
211, 6, bw, attraction, a-b-da, 14, 3, 4, 16, 195, 120, 181, 111, 120, 195, 3, 1.25465
211, 6, bw, attraction, a-b-da, 14, 3, 4, 16, 195, 120, 181, 111, 120, 195, 1, 0.418886
211, 6, bw, attraction, a-b-da, 9, 2, 4, 17, 165, 90, 157, 86, 90, 165, 3, 1.48807
211, 6, bw, attraction, a-b-da, 9, 2, 4, 17, 165, 90, 157, 86, 90, 165, 2, 0.482899
211, 6, bw, attraction, a-b-da, 5, 3, 4, 18, 190, 117, 195, 120, 120, 195, 2, 1.30136
211, 6, bw, attraction, a-b-da, 5, 3, 4, 18, 190, 117, 195, 120, 120, 195, 1, 0.568327
211, 6, bw, filler, NA, 999, 999, 4, 19, 157, 65, 107, 120, 102, 78, 2, 1.35137
211, 6, bw, filler, NA, 999, 999, 4, 19, 157, 65, 107, 120, 102, 78, 3, 0.568165
211, 6, bw, filler, NA, 999, 999, 4, 20, 110, 178, 166, 185, 97, 175, 2, 1.24732
211, 6, bw, filler, NA, 999, 999, 4, 20, 110, 178, 166, 185, 97, 175, 3, 1.03634
211, 6, bw, attraction, a-b-da, 14, 2, 4, 21, 153, 83, 90, 165, 165, 90, 2, 1.19261
211, 6, bw, attraction, a-b-da, 14, 2, 4, 21, 153, 83, 90, 165, 165, 90, 1, 0.471436
211, 6, bw, attraction, a-b-da, 2, 1, 4, 22, 134, 59, 60, 135, 135, 60, 2, 1.34655
211, 6, bw, attraction, a-b-da, 2, 1, 4, 22, 134, 59, 60, 135, 135, 60, 1, 0.579544
211, 6, bw, filler, NA, 999, 999, 4, 23, 112, 126, 112, 137, 132, 63, 2, 0.625833
211, 6, bw, filler, NA, 999, 999, 4, 23, 112, 126, 112, 137, 132, 63, 3, 1.2717
211, 6, bw, attraction, a-b-db, 2, 3, 4, 24, 120, 195, 119, 193, 195, 120, 2, 2.00257
211, 6, bw, attraction, a-b-db, 2, 3, 4, 24, 120, 195, 119, 193, 195, 120, 3, 0.33728
211, 6, bw, filler, NA, 999, 999, 4, 25, 181, 186, 129, 116, 133, 184, 1, 0.849747
211, 6, bw, filler, NA, 999, 999, 4, 25, 181, 186, 129, 116, 133, 184, 2, 0.750929
211, 6, bw, attraction, a-b-db, 14, 1, 4, 26, 56, 125, 135, 60, 60, 135, 2, 1.42256
211, 6, bw, attraction, a-b-db, 14, 1, 4, 26, 56, 125, 135, 60, 60, 135, 1, 0.452048
211, 6, bw, attraction, a-b-da, 14, 1, 4, 27, 60, 135, 125, 56, 135, 60, 1, 0.991817
211, 6, bw, attraction, a-b-da, 14, 1, 4, 27, 60, 135, 125, 56, 135, 60, 3, 0.75884
211, 6, bw, attraction, a-b-da, 5, 1, 4, 28, 60, 135, 135, 60, 132, 58, 1, 2.84578
211, 6, bw, attraction, a-b-da, 5, 1, 4, 28, 60, 135, 135, 60, 132, 58, 3, 0.514231
211, 6, bw, catch, NA, 999, 999, 4, 29, 124, 71, 109, 146, 180, 135, 3, 0.883377
211, 6, bw, catch, NA, 999, 999, 4, 29, 124, 71, 109, 146, 180, 135, 1, 0.679093
211, 6, bw, attraction, a-b-da, 2, 3, 4, 30, 193, 119, 195, 120, 120, 195, 1, 2.8975
211, 6, bw, attraction, a-b-da, 2, 3, 4, 30, 193, 119, 195, 120, 120, 195, 3, 0.627838
211, 6, bw, filler, NA, 999, 999, 4, 31, 93, 154, 142, 109, 63, 65, 2, 1.56038
211, 6, bw, filler, NA, 999, 999, 4, 31, 93, 154, 142, 109, 63, 65, 3, 0.44843
211, 6, bw, attraction, a-b-da, 2, 2, 4, 32, 163, 89, 90, 165, 165, 90, 2, 1.50024
211, 6, bw, attraction, a-b-da, 2, 2, 4, 32, 163, 89, 90, 165, 165, 90, 1, 0.967151
211, 6, bw, filler, NA, 999, 999, 4, 33, 194, 187, 140, 180, 105, 73, 1, 0.942091
211, 6, bw, filler, NA, 999, 999, 4, 33, 194, 187, 140, 180, 105, 73, 3, 0.535143
211, 6, bw, attraction, a-b-db, 2, 1, 4, 34, 60, 135, 59, 134, 135, 60, 2, 1.16756
211, 6, bw, attraction, a-b-db, 2, 1, 4, 34, 60, 135, 59, 134, 135, 60, 1, 0.495898
211, 6, bw, attraction, a-b-da, 9, 3, 4, 35, 120, 195, 195, 120, 186, 114, 2, 1.13747
211, 6, bw, attraction, a-b-da, 9, 3, 4, 35, 120, 195, 195, 120, 186, 114, 1, 0.378479
211, 6, bw, attraction, a-b-db, 14, 2, 4, 36, 165, 90, 90, 165, 83, 153, 2, 0.800918
211, 6, bw, attraction, a-b-db, 14, 2, 4, 36, 165, 90, 90, 165, 83, 153, 3, 0.416038
211, 6, bw, attraction, a-b-db, 9, 3, 4, 37, 120, 195, 195, 120, 114, 186, 1, 0.877162
211, 6, bw, attraction, a-b-db, 9, 3, 4, 37, 120, 195, 195, 120, 114, 186, 2, 0.328849
211, 6, bw, attraction, a-b-da, 2, 1, 5, 1, 134, 59, 60, 135, 135, 60, 2, 22.2641
211, 6, bw, attraction, a-b-da, 2, 1, 5, 1, 134, 59, 60, 135, 135, 60, 1, 0.949698
211, 6, bw, filler, NA, 999, 999, 5, 2, 156, 70, 109, 80, 134, 75, 1, 2.63744
211, 6, bw, filler, NA, 999, 999, 5, 2, 156, 70, 109, 80, 134, 75, 2, 0.762514
211, 6, bw, filler, NA, 999, 999, 5, 3, 167, 66, 80, 89, 59, 97, 1, 7.05763
211, 6, bw, filler, NA, 999, 999, 5, 3, 167, 66, 80, 89, 59, 97, 3, 1.56395
211, 6, bw, attraction, a-b-da, 2, 2, 5, 4, 165, 90, 163, 89, 90, 165, 3, 3.81875
211, 6, bw, attraction, a-b-da, 2, 2, 5, 4, 165, 90, 163, 89, 90, 165, 1, 0.544199
211, 6, bw, attraction, a-b-da, 9, 1, 5, 5, 60, 135, 135, 60, 129, 57, 1, 1.39991
211, 6, bw, attraction, a-b-da, 9, 1, 5, 5, 60, 135, 135, 60, 129, 57, 3, 0.438841
211, 6, bw, attraction, a-b-db, 2, 1, 5, 6, 60, 135, 59, 134, 135, 60, 1, 2.13125
211, 6, bw, attraction, a-b-db, 2, 1, 5, 6, 60, 135, 59, 134, 135, 60, 2, 1.30867
211, 6, bw, catch, NA, 999, 999, 5, 7, 168, 147, 162, 93, 113, 82, 1, 0.957538
211, 6, bw, catch, NA, 999, 999, 5, 7, 168, 147, 162, 93, 113, 82, 3, 2.60583
211, 6, bw, attraction, a-b-da, 5, 2, 5, 8, 161, 88, 90, 165, 165, 90, 2, 1.36306
211, 6, bw, attraction, a-b-da, 5, 2, 5, 8, 161, 88, 90, 165, 165, 90, 1, 2.70725
211, 6, bw, filler, NA, 999, 999, 5, 9, 95, 91, 69, 95, 142, 119, 3, 1.09173
211, 6, bw, filler, NA, 999, 999, 5, 9, 95, 91, 69, 95, 142, 119, 2, 0.870575
211, 6, bw, attraction, a-b-da, 9, 2, 5, 10, 157, 86, 165, 90, 90, 165, 3, 2.67362
211, 6, bw, attraction, a-b-da, 9, 2, 5, 10, 157, 86, 165, 90, 90, 165, 1, 0.676716
211, 6, bw, attraction, a-b-db, 14, 3, 5, 11, 111, 181, 120, 195, 195, 120, 2, 1.4151
211, 6, bw, attraction, a-b-db, 14, 3, 5, 11, 111, 181, 120, 195, 195, 120, 1, 0.981357
211, 6, bw, attraction, a-b-db, 5, 2, 5, 12, 90, 165, 165, 90, 88, 161, 1, 1.66761
211, 6, bw, attraction, a-b-db, 5, 2, 5, 12, 90, 165, 165, 90, 88, 161, 2, 0.735702
211, 6, bw, attraction, a-b-da, 5, 3, 5, 13, 120, 195, 190, 117, 195, 120, 1, 1.94417
211, 6, bw, attraction, a-b-da, 5, 3, 5, 13, 120, 195, 190, 117, 195, 120, 2, 2.11289
211, 6, bw, attraction, a-b-db, 9, 2, 5, 14, 165, 90, 86, 157, 90, 165, 3, 2.88949
211, 6, bw, attraction, a-b-db, 9, 2, 5, 14, 165, 90, 86, 157, 90, 165, 1, 0.547815
211, 6, bw, filler, NA, 999, 999, 5, 15, 100, 81, 118, 91, 102, 75, 2, 0.947603
211, 6, bw, filler, NA, 999, 999, 5, 15, 100, 81, 118, 91, 102, 75, 1, 0.692569
211, 6, bw, attraction, a-b-db, 9, 1, 5, 16, 135, 60, 57, 129, 60, 135, 1, 2.34234
211, 6, bw, attraction, a-b-db, 9, 1, 5, 16, 135, 60, 57, 129, 60, 135, 2, 0.590868
211, 6, bw, attraction, a-b-db, 14, 2, 5, 17, 165, 90, 83, 153, 90, 165, 3, 3.22064
211, 6, bw, attraction, a-b-db, 14, 2, 5, 17, 165, 90, 83, 153, 90, 165, 2, 1.11377
211, 6, bw, filler, NA, 999, 999, 5, 18, 120, 79, 89, 79, 100, 160, 3, 1.53071
211, 6, bw, filler, NA, 999, 999, 5, 18, 120, 79, 89, 79, 100, 160, 2, 0.612055
211, 6, bw, attraction, a-b-db, 9, 3, 5, 19, 120, 195, 195, 120, 114, 186, 2, 1.44913
211, 6, bw, attraction, a-b-db, 9, 3, 5, 19, 120, 195, 195, 120, 114, 186, 1, 0.822001
211, 6, bw, filler, NA, 999, 999, 5, 20, 191, 124, 142, 69, 58, 80, 1, 1.09099
211, 6, bw, filler, NA, 999, 999, 5, 20, 191, 124, 142, 69, 58, 80, 3, 0.637954
211, 6, bw, attraction, a-b-da, 14, 3, 5, 21, 120, 195, 195, 120, 181, 111, 2, 1.61043
211, 6, bw, attraction, a-b-da, 14, 3, 5, 21, 120, 195, 195, 120, 181, 111, 1, 0.792563
211, 6, bw, attraction, a-b-da, 5, 1, 5, 22, 132, 58, 135, 60, 60, 135, 3, 1.07826
211, 6, bw, attraction, a-b-da, 5, 1, 5, 22, 132, 58, 135, 60, 60, 135, 2, 0.649876
211, 6, bw, filler, NA, 999, 999, 5, 23, 184, 120, 127, 117, 162, 107, 1, 1.13365
211, 6, bw, filler, NA, 999, 999, 5, 23, 184, 120, 127, 117, 162, 107, 2, 1.36714
211, 6, bw, catch, NA, 999, 999, 5, 24, 111, 144, 70, 125, 132, 183, 3, 1.03802
211, 6, bw, catch, NA, 999, 999, 5, 24, 111, 144, 70, 125, 132, 183, 2, 0.642993
211, 6, bw, attraction, a-b-da, 14, 1, 5, 25, 135, 60, 125, 56, 60, 135, 3, 1.52693
211, 6, bw, attraction, a-b-da, 14, 1, 5, 25, 135, 60, 125, 56, 60, 135, 2, 0.416299
211, 6, bw, catch, NA, 999, 999, 5, 26, 151, 164, 151, 104, 108, 87, 1, 0.957402
211, 6, bw, catch, NA, 999, 999, 5, 26, 151, 164, 151, 104, 108, 87, 3, 0.445783
211, 6, bw, attraction, a-b-db, 5, 1, 5, 27, 135, 60, 60, 135, 58, 132, 3, 1.52956
211, 6, bw, attraction, a-b-db, 5, 1, 5, 27, 135, 60, 60, 135, 58, 132, 1, 0.738997
211, 6, bw, filler, NA, 999, 999, 5, 28, 64, 91, 109, 192, 91, 135, 2, 0.779408
211, 6, bw, filler, NA, 999, 999, 5, 28, 64, 91, 109, 192, 91, 135, 1, 0.547211
211, 6, bw, attraction, a-b-db, 2, 2, 5, 29, 89, 163, 90, 165, 165, 90, 3, 1.93096
211, 6, bw, attraction, a-b-db, 2, 2, 5, 29, 89, 163, 90, 165, 165, 90, 2, 0.604321
211, 6, bw, attraction, a-b-db, 14, 1, 5, 30, 56, 125, 135, 60, 60, 135, 3, 1.4982
211, 6, bw, attraction, a-b-db, 14, 1, 5, 30, 56, 125, 135, 60, 60, 135, 1, 0.540883
211, 6, bw, attraction, a-b-da, 9, 3, 5, 31, 195, 120, 120, 195, 186, 114, 2, 1.25264
211, 6, bw, attraction, a-b-da, 9, 3, 5, 31, 195, 120, 120, 195, 186, 114, 1, 0.505587
211, 6, bw, filler, NA, 999, 999, 5, 32, 192, 141, 109, 89, 124, 126, 1, 3.38736
211, 6, bw, filler, NA, 999, 999, 5, 32, 192, 141, 109, 89, 124, 126, 2, 0.625608
211, 6, bw, attraction, a-b-da, 14, 2, 5, 33, 165, 90, 153, 83, 90, 165, 3, 2.11805
211, 6, bw, attraction, a-b-da, 14, 2, 5, 33, 165, 90, 153, 83, 90, 165, 2, 0.551974
211, 6, bw, filler, NA, 999, 999, 5, 34, 159, 187, 104, 120, 134, 143, 1, 1.25582
211, 6, bw, filler, NA, 999, 999, 5, 34, 159, 187, 104, 120, 134, 143, 2, 0.636003
211, 6, bw, attraction, a-b-da, 2, 3, 5, 35, 120, 195, 195, 120, 193, 119, 2, 1.17634
211, 6, bw, attraction, a-b-da, 2, 3, 5, 35, 120, 195, 195, 120, 193, 119, 1, 0.472026
211, 6, bw, attraction, a-b-db, 5, 3, 5, 36, 117, 190, 120, 195, 195, 120, 3, 0.995156
211, 6, bw, attraction, a-b-db, 5, 3, 5, 36, 117, 190, 120, 195, 195, 120, 2, 0.474229
211, 6, bw, attraction, a-b-db, 2, 3, 5, 37, 195, 120, 120, 195, 119, 193, 2, 1.10054
211, 6, bw, attraction, a-b-db, 2, 3, 5, 37, 195, 120, 120, 195, 119, 193, 1, 0.439583
211, 6, bw, attraction, a-b-db, 9, 3, 6, 1, 120, 195, 114, 186, 195, 120, 3, 1.04347
211, 6, bw, attraction, a-b-db, 9, 3, 6, 1, 120, 195, 114, 186, 195, 120, 2, 0.48845
211, 6, bw, catch, NA, 999, 999, 6, 2, 125, 130, 176, 139, 79, 116, 2, 1.39491
211, 6, bw, catch, NA, 999, 999, 6, 2, 125, 130, 176, 139, 79, 116, 3, 0.401759
211, 6, bw, filler, NA, 999, 999, 6, 3, 89, 90, 174, 186, 116, 163, 2, 2.32764
211, 6, bw, filler, NA, 999, 999, 6, 3, 89, 90, 174, 186, 116, 163, 1, 0.944725
211, 6, bw, attraction, a-b-db, 2, 1, 6, 4, 135, 60, 59, 134, 60, 135, 3, 2.56842
211, 6, bw, attraction, a-b-db, 2, 1, 6, 4, 135, 60, 59, 134, 60, 135, 2, 0.76822
211, 6, bw, catch, NA, 999, 999, 6, 5, 185, 130, 156, 99, 61, 134, 1, 1.18347
211, 6, bw, catch, NA, 999, 999, 6, 5, 185, 130, 156, 99, 61, 134, 3, 0.830914
211, 6, bw, filler, NA, 999, 999, 6, 6, 113, 126, 65, 108, 123, 153, 3, 4.26718
211, 6, bw, filler, NA, 999, 999, 6, 6, 113, 126, 65, 108, 123, 153, 2, 2.63046
211, 6, bw, attraction, a-b-da, 5, 1, 6, 7, 132, 58, 60, 135, 135, 60, 2, 2.34632
211, 6, bw, attraction, a-b-da, 5, 1, 6, 7, 132, 58, 60, 135, 135, 60, 1, 6.81101
211, 6, bw, filler, NA, 999, 999, 6, 8, 82, 177, 82, 121, 153, 114, 3, 5.41407
211, 6, bw, filler, NA, 999, 999, 6, 8, 82, 177, 82, 121, 153, 114, 2, 3.43512
211, 6, bw, attraction, a-b-da, 2, 1, 6, 9, 60, 135, 134, 59, 135, 60, 1, 1.63064
211, 6, bw, attraction, a-b-da, 2, 1, 6, 9, 60, 135, 134, 59, 135, 60, 2, 1.63612
211, 6, bw, attraction, a-b-db, 5, 1, 6, 10, 60, 135, 135, 60, 58, 132, 1, 1.39216
211, 6, bw, attraction, a-b-db, 5, 1, 6, 10, 60, 135, 135, 60, 58, 132, 2, 1.663
211, 6, bw, attraction, a-b-da, 5, 3, 6, 11, 190, 117, 195, 120, 120, 195, 3, 2.04984
211, 6, bw, attraction, a-b-da, 5, 3, 6, 11, 190, 117, 195, 120, 120, 195, 2, 1.58239
211, 6, bw, attraction, a-b-db, 2, 3, 6, 12, 119, 193, 195, 120, 120, 195, 3, 1.88455
211, 6, bw, attraction, a-b-db, 2, 3, 6, 12, 119, 193, 195, 120, 120, 195, 2, 1.16794
211, 6, bw, attraction, a-b-da, 5, 2, 6, 13, 165, 90, 161, 88, 90, 165, 3, 1.70285
211, 6, bw, attraction, a-b-da, 5, 2, 6, 13, 165, 90, 161, 88, 90, 165, 2, 1.29755
211, 6, bw, attraction, a-b-da, 2, 3, 6, 14, 195, 120, 120, 195, 193, 119, 2, 1.16303
211, 6, bw, attraction, a-b-da, 2, 3, 6, 14, 195, 120, 120, 195, 193, 119, 3, 1.27538
211, 6, bw, attraction, a-b-db, 2, 2, 6, 15, 89, 163, 90, 165, 165, 90, 1, 2.24558
211, 6, bw, attraction, a-b-db, 2, 2, 6, 15, 89, 163, 90, 165, 165, 90, 3, 1.23426
211, 6, bw, catch, NA, 999, 999, 6, 16, 123, 192, 105, 150, 63, 132, 1, 1.39837
211, 6, bw, catch, NA, 999, 999, 6, 16, 123, 192, 105, 150, 63, 132, 3, 7.6213
211, 6, bw, attraction, a-b-da, 14, 1, 6, 17, 60, 135, 125, 56, 135, 60, 1, 3.79218
211, 6, bw, attraction, a-b-da, 14, 1, 6, 17, 60, 135, 125, 56, 135, 60, 2, 2.51051
211, 6, bw, filler, NA, 999, 999, 6, 18, 160, 130, 62, 115, 111, 99, 1, 3.34289
211, 6, bw, filler, NA, 999, 999, 6, 18, 160, 130, 62, 115, 111, 99, 2, 2.15914
211, 6, bw, attraction, a-b-db, 5, 2, 6, 19, 88, 161, 90, 165, 165, 90, 2, 2.06175
211, 6, bw, attraction, a-b-db, 5, 2, 6, 19, 88, 161, 90, 165, 165, 90, 1, 3.08168
211, 6, bw, attraction, a-b-da, 14, 2, 6, 20, 90, 165, 153, 83, 165, 90, 1, 1.71533
211, 6, bw, attraction, a-b-da, 14, 2, 6, 20, 90, 165, 153, 83, 165, 90, 2, 1.5575
211, 6, bw, filler, NA, 999, 999, 6, 21, 63, 107, 123, 159, 177, 156, 3, 1.02028
211, 6, bw, filler, NA, 999, 999, 6, 21, 63, 107, 123, 159, 177, 156, 1, 0.538461
211, 6, bw, filler, NA, 999, 999, 6, 22, 58, 124, 160, 126, 104, 83, 2, 1.21094
211, 6, bw, filler, NA, 999, 999, 6, 22, 58, 124, 160, 126, 104, 83, 1, 0.585255
211, 6, bw, filler, NA, 999, 999, 6, 23, 133, 153, 88, 180, 108, 80, 1, 0.855613
211, 6, bw, filler, NA, 999, 999, 6, 23, 133, 153, 88, 180, 108, 80, 3, 0.780053
211, 6, bw, attraction, a-b-db, 14, 3, 6, 24, 120, 195, 111, 181, 195, 120, 3, 2.42642
211, 6, bw, attraction, a-b-db, 14, 3, 6, 24, 120, 195, 111, 181, 195, 120, 1, 0.551656
211, 6, bw, attraction, a-b-da, 14, 3, 6, 25, 181, 111, 195, 120, 120, 195, 3, 1.63134
211, 6, bw, attraction, a-b-da, 14, 3, 6, 25, 181, 111, 195, 120, 120, 195, 1, 0.796821
211, 6, bw, attraction, a-b-db, 9, 1, 6, 26, 135, 60, 57, 129, 60, 135, 1, 1.07456
211, 6, bw, attraction, a-b-db, 9, 1, 6, 26, 135, 60, 57, 129, 60, 135, 2, 0.790154
211, 6, bw, filler, NA, 999, 999, 6, 27, 138, 187, 68, 139, 180, 194, 3, 1.72377
211, 6, bw, filler, NA, 999, 999, 6, 27, 138, 187, 68, 139, 180, 194, 2, 0.597259
211, 6, bw, attraction, a-b-db, 5, 3, 6, 28, 195, 120, 120, 195, 117, 190, 2, 1.90706
211, 6, bw, attraction, a-b-db, 5, 3, 6, 28, 195, 120, 120, 195, 117, 190, 1, 0.669075
211, 6, bw, attraction, a-b-db, 9, 2, 6, 29, 86, 157, 165, 90, 90, 165, 3, 11.6722
211, 6, bw, attraction, a-b-db, 9, 2, 6, 29, 86, 157, 165, 90, 90, 165, 2, 0.689117
211, 6, bw, attraction, a-b-db, 14, 1, 6, 30, 56, 125, 135, 60, 60, 135, 3, 1.81153
211, 6, bw, attraction, a-b-db, 14, 1, 6, 30, 56, 125, 135, 60, 60, 135, 2, 1.30557
211, 6, bw, attraction, a-b-da, 9, 1, 6, 31, 129, 57, 60, 135, 135, 60, 2, 3.35518
211, 6, bw, attraction, a-b-da, 9, 1, 6, 31, 129, 57, 60, 135, 135, 60, 1, 0.626728
211, 6, bw, attraction, a-b-db, 14, 2, 6, 32, 165, 90, 83, 153, 90, 165, 2, 2.85511
211, 6, bw, attraction, a-b-db, 14, 2, 6, 32, 165, 90, 83, 153, 90, 165, 1, 0.522862
211, 6, bw, attraction, a-b-da, 2, 2, 6, 33, 90, 165, 163, 89, 165, 90, 1, 1.23525
211, 6, bw, attraction, a-b-da, 2, 2, 6, 33, 90, 165, 163, 89, 165, 90, 2, 0.425064
211, 6, bw, filler, NA, 999, 999, 6, 34, 124, 71, 153, 88, 86, 92, 2, 1.27736
211, 6, bw, filler, NA, 999, 999, 6, 34, 124, 71, 153, 88, 86, 92, 1, 6.57699
211, 6, bw, attraction, a-b-da, 9, 2, 6, 35, 90, 165, 157, 86, 165, 90, 1, 22.7416
211, 6, bw, attraction, a-b-da, 9, 2, 6, 35, 90, 165, 157, 86, 165, 90, 2, 1.04035
211, 6, bw, filler, NA, 999, 999, 6, 36, 119, 91, 146, 161, 160, 109, 2, 0.604079
211, 6, bw, filler, NA, 999, 999, 6, 36, 119, 91, 146, 161, 160, 109, 1, 0.698379
211, 6, bw, attraction, a-b-da, 9, 3, 6, 37, 195, 120, 186, 114, 120, 195, 3, 1.34012
211, 6, bw, attraction, a-b-da, 9, 3, 6, 37, 195, 120, 186, 114, 120, 195, 2, 0.949122
211, 6, bw, filler, NA, 999, 999, 7, 1, 92, 137, 78, 122, 133, 81, 1, 1.63677
211, 6, bw, filler, NA, 999, 999, 7, 1, 92, 137, 78, 122, 133, 81, 2, 0.594217
211, 6, bw, attraction, a-b-da, 2, 3, 7, 2, 120, 195, 193, 119, 195, 120, 2, 1.27994
211, 6, bw, attraction, a-b-da, 2, 3, 7, 2, 120, 195, 193, 119, 195, 120, 3, 1.51551
211, 6, bw, attraction, a-b-da, 2, 2, 7, 3, 90, 165, 163, 89, 165, 90, 1, 1.06023
211, 6, bw, attraction, a-b-da, 2, 2, 7, 3, 90, 165, 163, 89, 165, 90, 2, 1.26467
211, 6, bw, attraction, a-b-db, 2, 2, 7, 4, 90, 165, 165, 90, 89, 163, 1, 0.931438
211, 6, bw, attraction, a-b-db, 2, 2, 7, 4, 90, 165, 165, 90, 89, 163, 2, 3.1412
211, 6, bw, filler, NA, 999, 999, 7, 5, 61, 142, 76, 95, 65, 75, 1, 1.71617
211, 6, bw, filler, NA, 999, 999, 7, 5, 61, 142, 76, 95, 65, 75, 3, 0.430284
211, 6, bw, attraction, a-b-da, 9, 3, 7, 6, 186, 114, 195, 120, 120, 195, 3, 1.63466
211, 6, bw, attraction, a-b-da, 9, 3, 7, 6, 186, 114, 195, 120, 120, 195, 1, 0.772915
211, 6, bw, filler, NA, 999, 999, 7, 7, 67, 66, 85, 121, 154, 162, 3, 1.63856
211, 6, bw, filler, NA, 999, 999, 7, 7, 67, 66, 85, 121, 154, 162, 1, 2.39546
211, 6, bw, filler, NA, 999, 999, 7, 8, 129, 100, 143, 116, 136, 126, 2, 1.18453
211, 6, bw, filler, NA, 999, 999, 7, 8, 129, 100, 143, 116, 136, 126, 1, 3.45618
211, 6, bw, attraction, a-b-db, 5, 2, 7, 9, 90, 165, 88, 161, 165, 90, 2, 1.65102
211, 6, bw, attraction, a-b-db, 5, 2, 7, 9, 90, 165, 88, 161, 165, 90, 3, 0.559852
211, 6, bw, filler, NA, 999, 999, 7, 10, 172, 99, 79, 134, 161, 125, 3, 1.33487
211, 6, bw, filler, NA, 999, 999, 7, 10, 172, 99, 79, 134, 161, 125, 2, 1.09642
211, 6, bw, attraction, a-b-db, 9, 1, 7, 11, 60, 135, 135, 60, 57, 129, 1, 2.17001
211, 6, bw, attraction, a-b-db, 9, 1, 7, 11, 60, 135, 135, 60, 57, 129, 3, 0.378116
211, 6, bw, catch, NA, 999, 999, 7, 12, 113, 142, 132, 63, 168, 147, 3, 0.976559
211, 6, bw, catch, NA, 999, 999, 7, 12, 113, 142, 132, 63, 168, 147, 2, 0.400221
211, 6, bw, attraction, a-b-da, 14, 2, 7, 13, 90, 165, 153, 83, 165, 90, 2, 0.901926
211, 6, bw, attraction, a-b-da, 14, 2, 7, 13, 90, 165, 153, 83, 165, 90, 3, 1.28902
211, 6, bw, attraction, a-b-db, 9, 3, 7, 14, 195, 120, 120, 195, 114, 186, 2, 1.35516
211, 6, bw, attraction, a-b-db, 9, 3, 7, 14, 195, 120, 120, 195, 114, 186, 1, 1.86741
211, 6, bw, attraction, a-b-db, 5, 3, 7, 15, 117, 190, 195, 120, 120, 195, 1, 1.42204
211, 6, bw, attraction, a-b-db, 5, 3, 7, 15, 117, 190, 195, 120, 120, 195, 2, 0.619618
211, 6, bw, attraction, a-b-da, 5, 2, 7, 16, 165, 90, 161, 88, 90, 165, 3, 2.40886
211, 6, bw, attraction, a-b-da, 5, 2, 7, 16, 165, 90, 161, 88, 90, 165, 1, 12.7266
211, 6, bw, filler, NA, 999, 999, 7, 17, 112, 88, 135, 177, 158, 166, 3, 2.15593
211, 6, bw, filler, NA, 999, 999, 7, 17, 112, 88, 135, 177, 158, 166, 1, 1.98792
211, 6, bw, attraction, a-b-da, 5, 1, 7, 18, 132, 58, 135, 60, 60, 135, 3, 1.72182
211, 6, bw, attraction, a-b-da, 5, 1, 7, 18, 132, 58, 135, 60, 60, 135, 2, 0.61124
211, 6, bw, attraction, a-b-db, 5, 1, 7, 19, 135, 60, 58, 132, 60, 135, 3, 16.2085
211, 6, bw, attraction, a-b-db, 5, 1, 7, 19, 135, 60, 58, 132, 60, 135, 2, 0.866625
211, 6, bw, attraction, a-b-db, 2, 1, 7, 20, 60, 135, 135, 60, 59, 134, 1, 1.2376
211, 6, bw, attraction, a-b-db, 2, 1, 7, 20, 60, 135, 135, 60, 59, 134, 2, 0.88247
211, 6, bw, attraction, a-b-db, 9, 2, 7, 21, 90, 165, 165, 90, 86, 157, 2, 1.18886
211, 6, bw, attraction, a-b-db, 9, 2, 7, 21, 90, 165, 165, 90, 86, 157, 1, 0.475848
211, 6, bw, filler, NA, 999, 999, 7, 22, 85, 148, 158, 159, 111, 139, 2, 0.894279
211, 6, bw, filler, NA, 999, 999, 7, 22, 85, 148, 158, 159, 111, 139, 1, 0.601321
211, 6, bw, attraction, a-b-da, 14, 3, 7, 23, 195, 120, 181, 111, 120, 195, 1, 1.02297
211, 6, bw, attraction, a-b-da, 14, 3, 7, 23, 195, 120, 181, 111, 120, 195, 2, 0.564699
211, 6, bw, attraction, a-b-db, 14, 1, 7, 24, 135, 60, 56, 125, 60, 135, 1, 1.16392
211, 6, bw, attraction, a-b-db, 14, 1, 7, 24, 135, 60, 56, 125, 60, 135, 2, 0.900122
211, 6, bw, attraction, a-b-db, 14, 2, 7, 25, 90, 165, 83, 153, 165, 90, 1, 0.797642
211, 6, bw, attraction, a-b-db, 14, 2, 7, 25, 90, 165, 83, 153, 165, 90, 3, 0.660795
211, 6, bw, filler, NA, 999, 999, 7, 26, 131, 137, 157, 87, 100, 161, 1, 1.53602
211, 6, bw, filler, NA, 999, 999, 7, 26, 131, 137, 157, 87, 100, 161, 2, 0.713367
211, 6, bw, attraction, a-b-da, 14, 1, 7, 27, 135, 60, 125, 56, 60, 135, 1, 1.89845
211, 6, bw, attraction, a-b-da, 14, 1, 7, 27, 135, 60, 125, 56, 60, 135, 2, 0.981102
211, 6, bw, catch, NA, 999, 999, 7, 28, 192, 123, 70, 125, 152, 103, 1, 0.579501
211, 6, bw, catch, NA, 999, 999, 7, 28, 192, 123, 70, 125, 152, 103, 2, 0.587317
211, 6, bw, catch, NA, 999, 999, 7, 29, 89, 106, 146, 169, 150, 105, 2, 0.817699
211, 6, bw, catch, NA, 999, 999, 7, 29, 89, 106, 146, 169, 150, 105, 1, 0.512003
211, 6, bw, attraction, a-b-da, 5, 3, 7, 30, 195, 120, 120, 195, 190, 117, 2, 3.15105
211, 6, bw, attraction, a-b-da, 5, 3, 7, 30, 195, 120, 120, 195, 190, 117, 3, 3.93746
211, 6, bw, filler, NA, 999, 999, 7, 31, 102, 101, 149, 154, 101, 88, 2, 0.840751
211, 6, bw, filler, NA, 999, 999, 7, 31, 102, 101, 149, 154, 101, 88, 1, 0.901932
211, 6, bw, attraction, a-b-da, 9, 1, 7, 32, 129, 57, 135, 60, 60, 135, 3, 1.49567
211, 6, bw, attraction, a-b-da, 9, 1, 7, 32, 129, 57, 135, 60, 60, 135, 2, 0.706402
211, 6, bw, filler, NA, 999, 999, 7, 33, 69, 98, 156, 80, 147, 151, 3, 0.843426
211, 6, bw, filler, NA, 999, 999, 7, 33, 69, 98, 156, 80, 147, 151, 1, 1.65651
211, 6, bw, attraction, a-b-db, 2, 3, 7, 34, 119, 193, 195, 120, 120, 195, 1, 1.81922
211, 6, bw, attraction, a-b-db, 2, 3, 7, 34, 119, 193, 195, 120, 120, 195, 2, 0.489461
211, 6, bw, attraction, a-b-da, 2, 1, 7, 35, 60, 135, 135, 60, 134, 59, 1, 2.17099
211, 6, bw, attraction, a-b-da, 2, 1, 7, 35, 60, 135, 135, 60, 134, 59, 3, 10.4185
211, 6, bw, attraction, a-b-db, 14, 3, 7, 36, 195, 120, 111, 181, 120, 195, 3, 2.81247
211, 6, bw, attraction, a-b-db, 14, 3, 7, 36, 195, 120, 111, 181, 120, 195, 2, 0.730164
211, 6, bw, attraction, a-b-da, 9, 2, 7, 37, 165, 90, 157, 86, 90, 165, 3, 0.97051
211, 6, bw, attraction, a-b-da, 9, 2, 7, 37, 165, 90, 157, 86, 90, 165, 2, 0.562196
211, 6, bw, attraction, a-b-da, 5, 2, 8, 1, 165, 90, 161, 88, 90, 165, 3, 1.28126
211, 6, bw, attraction, a-b-da, 5, 2, 8, 1, 165, 90, 161, 88, 90, 165, 2, 0.580885
211, 6, bw, attraction, a-b-db, 2, 2, 8, 2, 165, 90, 89, 163, 90, 165, 2, 1.8834
211, 6, bw, attraction, a-b-db, 2, 2, 8, 2, 165, 90, 89, 163, 90, 165, 1, 1.01483
211, 6, bw, catch, NA, 999, 999, 8, 3, 121, 194, 130, 65, 103, 152, 1, 0.995621
211, 6, bw, catch, NA, 999, 999, 8, 3, 121, 194, 130, 65, 103, 152, 2, 0.538619
211, 6, bw, attraction, a-b-da, 2, 1, 8, 4, 134, 59, 135, 60, 60, 135, 3, 1.97916
211, 6, bw, attraction, a-b-da, 2, 1, 8, 4, 134, 59, 135, 60, 60, 135, 1, 0.618425
211, 6, bw, attraction, a-b-db, 5, 3, 8, 5, 120, 195, 195, 120, 117, 190, 3, 1.77554
211, 6, bw, attraction, a-b-db, 5, 3, 8, 5, 120, 195, 195, 120, 117, 190, 1, 0.502893
211, 6, bw, filler, NA, 999, 999, 8, 6, 71, 96, 64, 168, 65, 195, 3, 1.20072
211, 6, bw, filler, NA, 999, 999, 8, 6, 71, 96, 64, 168, 65, 195, 1, 0.703604
211, 6, bw, catch, NA, 999, 999, 8, 7, 132, 123, 102, 93, 180, 135, 3, 0.897345
211, 6, bw, catch, NA, 999, 999, 8, 7, 132, 123, 102, 93, 180, 135, 2, 0.428356
211, 6, bw, attraction, a-b-db, 9, 2, 8, 8, 86, 157, 165, 90, 90, 165, 3, 1.12086
211, 6, bw, attraction, a-b-db, 9, 2, 8, 8, 86, 157, 165, 90, 90, 165, 2, 0.522421
211, 6, bw, filler, NA, 999, 999, 8, 9, 130, 180, 183, 172, 126, 128, 2, 0.987589
211, 6, bw, filler, NA, 999, 999, 8, 9, 130, 180, 183, 172, 126, 128, 3, 0.554586
211, 6, bw, attraction, a-b-db, 14, 2, 8, 10, 83, 153, 165, 90, 90, 165, 3, 0.922308
211, 6, bw, attraction, a-b-db, 14, 2, 8, 10, 83, 153, 165, 90, 90, 165, 1, 0.452161
211, 6, bw, attraction, a-b-da, 14, 2, 8, 11, 165, 90, 153, 83, 90, 165, 3, 1.35995
211, 6, bw, attraction, a-b-da, 14, 2, 8, 11, 165, 90, 153, 83, 90, 165, 2, 0.920156
211, 6, bw, attraction, a-b-da, 9, 1, 8, 12, 135, 60, 129, 57, 60, 135, 1, 1.76115
211, 6, bw, attraction, a-b-da, 9, 1, 8, 12, 135, 60, 129, 57, 60, 135, 2, 2.23317
211, 6, bw, attraction, a-b-db, 14, 3, 8, 13, 195, 120, 111, 181, 120, 195, 1, 1.68519
211, 6, bw, attraction, a-b-db, 14, 3, 8, 13, 195, 120, 111, 181, 120, 195, 2, 0.544455
211, 6, bw, attraction, a-b-da, 2, 3, 8, 14, 120, 195, 195, 120, 193, 119, 1, 1.08826
211, 6, bw, attraction, a-b-da, 2, 3, 8, 14, 120, 195, 195, 120, 193, 119, 3, 0.411298
211, 6, bw, attraction, a-b-db, 9, 3, 8, 15, 114, 186, 195, 120, 120, 195, 3, 0.840449
211, 6, bw, attraction, a-b-db, 9, 3, 8, 15, 114, 186, 195, 120, 120, 195, 2, 0.477403
211, 6, bw, attraction, a-b-db, 5, 1, 8, 16, 135, 60, 58, 132, 60, 135, 1, 1.1519
211, 6, bw, attraction, a-b-db, 5, 1, 8, 16, 135, 60, 58, 132, 60, 135, 2, 0.504872
211, 6, bw, attraction, a-b-db, 5, 2, 8, 17, 165, 90, 90, 165, 88, 161, 1, 2.05865
211, 6, bw, attraction, a-b-db, 5, 2, 8, 17, 165, 90, 90, 165, 88, 161, 2, 0.590676
211, 6, bw, attraction, a-b-db, 2, 1, 8, 18, 59, 134, 60, 135, 135, 60, 2, 2.51653
211, 6, bw, attraction, a-b-db, 2, 1, 8, 18, 59, 134, 60, 135, 135, 60, 3, 0.646338
211, 6, bw, attraction, a-b-da, 2, 2, 8, 19, 165, 90, 90, 165, 163, 89, 1, 3.5941
211, 6, bw, attraction, a-b-da, 2, 2, 8, 19, 165, 90, 90, 165, 163, 89, 2, 0.864173
211, 6, bw, attraction, a-b-da, 9, 2, 8, 20, 90, 165, 157, 86, 165, 90, 1, 3.81126
211, 6, bw, attraction, a-b-da, 9, 2, 8, 20, 90, 165, 157, 86, 165, 90, 2, 1.76877
211, 6, bw, filler, NA, 999, 999, 8, 21, 107, 184, 113, 77, 87, 172, 1, 1.10347
211, 6, bw, filler, NA, 999, 999, 8, 21, 107, 184, 113, 77, 87, 172, 2, 0.842224
211, 6, bw, attraction, a-b-da, 14, 1, 8, 22, 125, 56, 135, 60, 60, 135, 3, 1.38999
211, 6, bw, attraction, a-b-da, 14, 1, 8, 22, 125, 56, 135, 60, 60, 135, 1, 0.812888
211, 6, bw, filler, NA, 999, 999, 8, 23, 78, 195, 171, 172, 88, 187, 2, 0.777846
211, 6, bw, filler, NA, 999, 999, 8, 23, 78, 195, 171, 172, 88, 187, 1, 0.625531
211, 6, bw, filler, NA, 999, 999, 8, 24, 190, 156, 56, 84, 124, 127, 1, 0.821953
211, 6, bw, filler, NA, 999, 999, 8, 24, 190, 156, 56, 84, 124, 127, 2, 0.587763
211, 6, bw, filler, NA, 999, 999, 8, 25, 98, 140, 180, 66, 190, 115, 3, 1.58613
211, 6, bw, filler, NA, 999, 999, 8, 25, 98, 140, 180, 66, 190, 115, 2, 1.77777
211, 6, bw, attraction, a-b-db, 9, 1, 8, 26, 135, 60, 60, 135, 57, 129, 2, 1.02367
211, 6, bw, attraction, a-b-db, 9, 1, 8, 26, 135, 60, 60, 135, 57, 129, 3, 0.98933
211, 6, bw, attraction, a-b-db, 14, 1, 8, 27, 60, 135, 56, 125, 135, 60, 2, 1.0997
211, 6, bw, attraction, a-b-db, 14, 1, 8, 27, 60, 135, 56, 125, 135, 60, 1, 0.654658
211, 6, bw, filler, NA, 999, 999, 8, 28, 183, 175, 70, 74, 89, 112, 1, 0.608263
211, 6, bw, filler, NA, 999, 999, 8, 28, 183, 175, 70, 74, 89, 112, 2, 0.528808
211, 6, bw, attraction, a-b-da, 14, 3, 8, 29, 195, 120, 181, 111, 120, 195, 1, 0.961204
211, 6, bw, attraction, a-b-da, 14, 3, 8, 29, 195, 120, 181, 111, 120, 195, 2, 0.617575
211, 6, bw, filler, NA, 999, 999, 8, 30, 177, 155, 101, 189, 176, 78, 1, 1.07065
211, 6, bw, filler, NA, 999, 999, 8, 30, 177, 155, 101, 189, 176, 78, 3, 0.643015
211, 6, bw, attraction, a-b-db, 2, 3, 8, 31, 120, 195, 195, 120, 119, 193, 3, 0.838706
211, 6, bw, attraction, a-b-db, 2, 3, 8, 31, 120, 195, 195, 120, 119, 193, 2, 0.475739
211, 6, bw, attraction, a-b-da, 5, 3, 8, 32, 190, 117, 120, 195, 195, 120, 2, 1.62227
211, 6, bw, attraction, a-b-da, 5, 3, 8, 32, 190, 117, 120, 195, 195, 120, 1, 0.699627
211, 6, bw, attraction, a-b-da, 9, 3, 8, 33, 195, 120, 186, 114, 120, 195, 2, 1.78937
211, 6, bw, attraction, a-b-da, 9, 3, 8, 33, 195, 120, 186, 114, 120, 195, 1, 1.1801
211, 6, bw, attraction, a-b-da, 5, 1, 8, 34, 135, 60, 60, 135, 132, 58, 2, 2.2024
211, 6, bw, attraction, a-b-da, 5, 1, 8, 34, 135, 60, 60, 135, 132, 58, 3, 1.297
211, 6, bw, filler, NA, 999, 999, 8, 35, 107, 181, 159, 187, 111, 193, 2, 1.61849
211, 6, bw, filler, NA, 999, 999, 8, 35, 107, 181, 159, 187, 111, 193, 1, 0.496754
211, 6, bw, catch, NA, 999, 999, 8, 36, 68, 127, 182, 133, 105, 150, 2, 1.4664
211, 6, bw, catch, NA, 999, 999, 8, 36, 68, 127, 182, 133, 105, 150, 1, 0.662595
211, 6, bw, filler, NA, 999, 999, 8, 37, 166, 170, 133, 67, 186, 97, 1, 0.665687
211, 6, bw, filler, NA, 999, 999, 8, 37, 166, 170, 133, 67, 186, 97, 2, 0.774093
