sub_n, computer_n, bw_cond, effect, set, distance, diag, block_n, trial_n, h1, w1, h2, w2, h3, w3, choice, rt 
277, 6, bw, practice, NA, 999, 999, 0, 1, 81, 133, 77, 144, 96, 105, 2, 6.71797
277, 6, bw, practice, NA, 999, 999, 0, 1, 81, 133, 77, 144, 96, 105, 3, 4.07338
277, 6, bw, practice, NA, 999, 999, 0, 2, 193, 85, 136, 143, 158, 69, 2, 6.55808
277, 6, bw, practice, NA, 999, 999, 0, 2, 193, 85, 136, 143, 158, 69, 3, 1.63022
277, 6, bw, practice, NA, 999, 999, 0, 3, 167, 142, 147, 78, 107, 146, 1, 2.88817
277, 6, bw, practice, NA, 999, 999, 0, 3, 167, 142, 147, 78, 107, 146, 2, 1.14496
277, 6, bw, attraction, a-b-da, 2, 2, 1, 1, 90, 165, 165, 90, 163, 89, 2, 8.31123
277, 6, bw, attraction, a-b-da, 2, 2, 1, 1, 90, 165, 165, 90, 163, 89, 3, 4.71917
277, 6, bw, attraction, a-b-db, 5, 3, 1, 2, 120, 195, 117, 190, 195, 120, 1, 2.17513
277, 6, bw, attraction, a-b-db, 5, 3, 1, 2, 120, 195, 117, 190, 195, 120, 2, 0.566382
277, 6, bw, catch, NA, 999, 999, 1, 3, 128, 187, 99, 96, 101, 154, 1, 1.53342
277, 6, bw, catch, NA, 999, 999, 1, 3, 128, 187, 99, 96, 101, 154, 2, 0.558831
277, 6, bw, attraction, a-b-da, 5, 3, 1, 4, 195, 120, 190, 117, 120, 195, 3, 2.59789
277, 6, bw, attraction, a-b-da, 5, 3, 1, 4, 195, 120, 190, 117, 120, 195, 1, 0.98054
277, 6, bw, attraction, a-b-db, 2, 3, 1, 5, 120, 195, 195, 120, 119, 193, 3, 2.77075
277, 6, bw, attraction, a-b-db, 2, 3, 1, 5, 120, 195, 195, 120, 119, 193, 2, 0.761868
277, 6, bw, attraction, a-b-db, 5, 2, 1, 6, 88, 161, 90, 165, 165, 90, 2, 3.00086
277, 6, bw, attraction, a-b-db, 5, 2, 1, 6, 88, 161, 90, 165, 165, 90, 1, 0.815332
277, 6, bw, attraction, a-b-db, 5, 1, 1, 7, 135, 60, 60, 135, 58, 132, 2, 2.61222
277, 6, bw, attraction, a-b-db, 5, 1, 1, 7, 135, 60, 60, 135, 58, 132, 1, 0.866079
277, 6, bw, attraction, a-b-da, 2, 3, 1, 8, 120, 195, 193, 119, 195, 120, 1, 2.41306
277, 6, bw, attraction, a-b-da, 2, 3, 1, 8, 120, 195, 193, 119, 195, 120, 2, 0.538993
277, 6, bw, catch, NA, 999, 999, 1, 9, 101, 94, 144, 111, 134, 181, 3, 1.61155
277, 6, bw, catch, NA, 999, 999, 1, 9, 101, 94, 144, 111, 134, 181, 1, 0.481698
277, 6, bw, filler, NA, 999, 999, 1, 10, 101, 169, 165, 138, 170, 79, 2, 6.79604
277, 6, bw, filler, NA, 999, 999, 1, 10, 101, 169, 165, 138, 170, 79, 3, 1.24123
277, 6, bw, attraction, a-b-db, 9, 2, 1, 11, 86, 157, 90, 165, 165, 90, 2, 1.65275
277, 6, bw, attraction, a-b-db, 9, 2, 1, 11, 86, 157, 90, 165, 165, 90, 1, 0.601672
277, 6, bw, filler, NA, 999, 999, 1, 12, 134, 85, 147, 71, 78, 182, 3, 2.19134
277, 6, bw, filler, NA, 999, 999, 1, 12, 134, 85, 147, 71, 78, 182, 2, 0.533917
277, 6, bw, attraction, a-b-da, 2, 1, 1, 13, 60, 135, 134, 59, 135, 60, 2, 4.92638
277, 6, bw, attraction, a-b-da, 2, 1, 1, 13, 60, 135, 134, 59, 135, 60, 1, 0.550814
277, 6, bw, attraction, a-b-db, 9, 1, 1, 14, 60, 135, 57, 129, 135, 60, 1, 1.33457
277, 6, bw, attraction, a-b-db, 9, 1, 1, 14, 60, 135, 57, 129, 135, 60, 2, 3.80013
277, 6, bw, attraction, a-b-db, 9, 3, 1, 15, 195, 120, 114, 186, 120, 195, 3, 1.70086
277, 6, bw, attraction, a-b-db, 9, 3, 1, 15, 195, 120, 114, 186, 120, 195, 2, 2.84766
277, 6, bw, catch, NA, 999, 999, 1, 16, 137, 118, 138, 177, 111, 84, 2, 1.41067
277, 6, bw, catch, NA, 999, 999, 1, 16, 137, 118, 138, 177, 111, 84, 3, 0.736921
277, 6, bw, attraction, a-b-da, 9, 3, 1, 17, 186, 114, 195, 120, 120, 195, 3, 1.36126
277, 6, bw, attraction, a-b-da, 9, 3, 1, 17, 186, 114, 195, 120, 120, 195, 1, 0.887398
277, 6, bw, attraction, a-b-da, 14, 3, 1, 18, 181, 111, 120, 195, 195, 120, 2, 1.99585
277, 6, bw, attraction, a-b-da, 14, 3, 1, 18, 181, 111, 120, 195, 195, 120, 1, 0.554525
277, 6, bw, attraction, a-b-da, 5, 2, 1, 19, 90, 165, 165, 90, 161, 88, 1, 2.17859
277, 6, bw, attraction, a-b-da, 5, 2, 1, 19, 90, 165, 165, 90, 161, 88, 3, 0.825566
277, 6, bw, filler, NA, 999, 999, 1, 20, 69, 109, 90, 99, 104, 193, 3, 1.50187
277, 6, bw, filler, NA, 999, 999, 1, 20, 69, 109, 90, 99, 104, 193, 2, 2.65674
277, 6, bw, filler, NA, 999, 999, 1, 21, 96, 126, 139, 127, 94, 192, 2, 1.5238
277, 6, bw, filler, NA, 999, 999, 1, 21, 96, 126, 139, 127, 94, 192, 1, 1.23732
277, 6, bw, filler, NA, 999, 999, 1, 22, 141, 183, 100, 133, 111, 180, 2, 0.913619
277, 6, bw, filler, NA, 999, 999, 1, 22, 141, 183, 100, 133, 111, 180, 3, 1.52396
277, 6, bw, attraction, a-b-da, 14, 1, 1, 23, 60, 135, 135, 60, 125, 56, 1, 2.18009
277, 6, bw, attraction, a-b-da, 14, 1, 1, 23, 60, 135, 135, 60, 125, 56, 2, 0.483319
277, 6, bw, attraction, a-b-db, 14, 1, 1, 24, 135, 60, 56, 125, 60, 135, 2, 2.19786
277, 6, bw, attraction, a-b-db, 14, 1, 1, 24, 135, 60, 56, 125, 60, 135, 3, 1.20448
277, 6, bw, attraction, a-b-db, 2, 2, 1, 25, 90, 165, 89, 163, 165, 90, 3, 3.79409
277, 6, bw, attraction, a-b-db, 2, 2, 1, 25, 90, 165, 89, 163, 165, 90, 1, 0.433685
277, 6, bw, filler, NA, 999, 999, 1, 26, 113, 77, 171, 182, 118, 83, 2, 0.740669
277, 6, bw, filler, NA, 999, 999, 1, 26, 113, 77, 171, 182, 118, 83, 3, 0.789736
277, 6, bw, filler, NA, 999, 999, 1, 27, 194, 151, 112, 191, 62, 175, 1, 3.22755
277, 6, bw, filler, NA, 999, 999, 1, 27, 194, 151, 112, 191, 62, 175, 3, 0.592376
277, 6, bw, attraction, a-b-db, 14, 2, 1, 28, 165, 90, 90, 165, 83, 153, 3, 2.96609
277, 6, bw, attraction, a-b-db, 14, 2, 1, 28, 165, 90, 90, 165, 83, 153, 2, 0.741806
277, 6, bw, filler, NA, 999, 999, 1, 29, 101, 145, 85, 149, 103, 71, 1, 1.26154
277, 6, bw, filler, NA, 999, 999, 1, 29, 101, 145, 85, 149, 103, 71, 3, 1.30575
277, 6, bw, filler, NA, 999, 999, 1, 30, 61, 71, 109, 142, 68, 133, 2, 2.03534
277, 6, bw, filler, NA, 999, 999, 1, 30, 61, 71, 109, 142, 68, 133, 1, 0.576629
277, 6, bw, attraction, a-b-da, 9, 1, 1, 31, 60, 135, 129, 57, 135, 60, 1, 3.30303
277, 6, bw, attraction, a-b-da, 9, 1, 1, 31, 60, 135, 129, 57, 135, 60, 2, 0.385374
277, 6, bw, filler, NA, 999, 999, 1, 32, 70, 169, 102, 68, 87, 170, 3, 1.4159
277, 6, bw, filler, NA, 999, 999, 1, 32, 70, 169, 102, 68, 87, 170, 2, 0.566104
277, 6, bw, attraction, a-b-db, 14, 3, 1, 33, 195, 120, 120, 195, 111, 181, 2, 1.44513
277, 6, bw, attraction, a-b-db, 14, 3, 1, 33, 195, 120, 120, 195, 111, 181, 3, 0.578019
277, 6, bw, attraction, a-b-da, 14, 2, 1, 34, 165, 90, 153, 83, 90, 165, 3, 1.28049
277, 6, bw, attraction, a-b-da, 14, 2, 1, 34, 165, 90, 153, 83, 90, 165, 2, 0.403955
277, 6, bw, attraction, a-b-da, 9, 2, 1, 35, 157, 86, 165, 90, 90, 165, 3, 1.02591
277, 6, bw, attraction, a-b-da, 9, 2, 1, 35, 157, 86, 165, 90, 90, 165, 1, 0.895571
277, 6, bw, attraction, a-b-db, 2, 1, 1, 36, 60, 135, 59, 134, 135, 60, 1, 2.15308
277, 6, bw, attraction, a-b-db, 2, 1, 1, 36, 60, 135, 59, 134, 135, 60, 3, 0.561795
277, 6, bw, attraction, a-b-da, 5, 1, 1, 37, 132, 58, 60, 135, 135, 60, 2, 1.91309
277, 6, bw, attraction, a-b-da, 5, 1, 1, 37, 132, 58, 60, 135, 135, 60, 1, 1.48287
277, 6, bw, attraction, a-b-db, 5, 2, 2, 1, 90, 165, 165, 90, 88, 161, 2, 2.26906
277, 6, bw, attraction, a-b-db, 5, 2, 2, 1, 90, 165, 165, 90, 88, 161, 1, 0.392985
277, 6, bw, catch, NA, 999, 999, 2, 2, 186, 129, 97, 158, 75, 120, 1, 1.31877
277, 6, bw, catch, NA, 999, 999, 2, 2, 186, 129, 97, 158, 75, 120, 3, 0.70503
277, 6, bw, filler, NA, 999, 999, 2, 3, 89, 108, 60, 126, 90, 180, 3, 1.21078
277, 6, bw, filler, NA, 999, 999, 2, 3, 89, 108, 60, 126, 90, 180, 1, 0.665012
277, 6, bw, attraction, a-b-db, 14, 3, 2, 4, 120, 195, 111, 181, 195, 120, 2, 2.05206
277, 6, bw, attraction, a-b-db, 14, 3, 2, 4, 120, 195, 111, 181, 195, 120, 3, 1.13677
277, 6, bw, attraction, a-b-db, 9, 3, 2, 5, 195, 120, 120, 195, 114, 186, 1, 3.80091
277, 6, bw, attraction, a-b-db, 9, 3, 2, 5, 195, 120, 120, 195, 114, 186, 3, 0.335195
277, 6, bw, attraction, a-b-da, 2, 3, 2, 6, 195, 120, 120, 195, 193, 119, 2, 1.08764
277, 6, bw, attraction, a-b-da, 2, 3, 2, 6, 195, 120, 120, 195, 193, 119, 1, 0.706595
277, 6, bw, attraction, a-b-da, 5, 2, 2, 7, 165, 90, 161, 88, 90, 165, 3, 2.24363
277, 6, bw, attraction, a-b-da, 5, 2, 2, 7, 165, 90, 161, 88, 90, 165, 1, 0.704199
277, 6, bw, filler, NA, 999, 999, 2, 8, 67, 120, 95, 88, 152, 72, 3, 2.05795
277, 6, bw, filler, NA, 999, 999, 2, 8, 67, 120, 95, 88, 152, 72, 2, 0.829984
277, 6, bw, attraction, a-b-da, 5, 3, 2, 9, 190, 117, 195, 120, 120, 195, 3, 2.25032
277, 6, bw, attraction, a-b-da, 5, 3, 2, 9, 190, 117, 195, 120, 120, 195, 1, 0.950884
277, 6, bw, attraction, a-b-db, 14, 1, 2, 10, 56, 125, 60, 135, 135, 60, 2, 1.67055
277, 6, bw, attraction, a-b-db, 14, 1, 2, 10, 56, 125, 60, 135, 135, 60, 3, 0.690663
277, 6, bw, catch, NA, 999, 999, 2, 11, 97, 98, 183, 132, 113, 142, 2, 1.3724
277, 6, bw, catch, NA, 999, 999, 2, 11, 97, 98, 183, 132, 113, 142, 1, 0.883917
277, 6, bw, attraction, a-b-db, 5, 3, 2, 12, 120, 195, 195, 120, 117, 190, 1, 1.87036
277, 6, bw, attraction, a-b-db, 5, 3, 2, 12, 120, 195, 195, 120, 117, 190, 3, 0.593584
277, 6, bw, attraction, a-b-db, 5, 1, 2, 13, 135, 60, 58, 132, 60, 135, 1, 0.799465
277, 6, bw, attraction, a-b-db, 5, 1, 2, 13, 135, 60, 58, 132, 60, 135, 2, 1.27047
277, 6, bw, attraction, a-b-da, 14, 1, 2, 14, 60, 135, 135, 60, 125, 56, 1, 1.95352
277, 6, bw, attraction, a-b-da, 14, 1, 2, 14, 60, 135, 135, 60, 125, 56, 3, 0.842154
277, 6, bw, attraction, a-b-db, 2, 2, 2, 15, 165, 90, 89, 163, 90, 165, 1, 2.54182
277, 6, bw, attraction, a-b-db, 2, 2, 2, 15, 165, 90, 89, 163, 90, 165, 2, 0.87035
277, 6, bw, filler, NA, 999, 999, 2, 16, 144, 116, 57, 88, 148, 77, 1, 1.64125
277, 6, bw, filler, NA, 999, 999, 2, 16, 144, 116, 57, 88, 148, 77, 2, 0.414014
277, 6, bw, filler, NA, 999, 999, 2, 17, 146, 78, 101, 107, 123, 118, 1, 2.33935
277, 6, bw, filler, NA, 999, 999, 2, 17, 146, 78, 101, 107, 123, 118, 2, 1.15576
277, 6, bw, filler, NA, 999, 999, 2, 18, 91, 133, 74, 117, 109, 136, 1, 1.05138
277, 6, bw, filler, NA, 999, 999, 2, 18, 91, 133, 74, 117, 109, 136, 2, 0.568448
277, 6, bw, catch, NA, 999, 999, 2, 19, 146, 169, 124, 131, 101, 94, 1, 1.60738
277, 6, bw, catch, NA, 999, 999, 2, 19, 146, 169, 124, 131, 101, 94, 3, 0.669722
277, 6, bw, attraction, a-b-da, 9, 2, 2, 20, 157, 86, 90, 165, 165, 90, 3, 1.01666
277, 6, bw, attraction, a-b-da, 9, 2, 2, 20, 157, 86, 90, 165, 165, 90, 1, 0.750943
277, 6, bw, filler, NA, 999, 999, 2, 21, 132, 160, 147, 59, 156, 107, 1, 0.750573
277, 6, bw, filler, NA, 999, 999, 2, 21, 132, 160, 147, 59, 156, 107, 2, 0.606133
277, 6, bw, attraction, a-b-da, 14, 3, 2, 22, 181, 111, 120, 195, 195, 120, 2, 0.924764
277, 6, bw, attraction, a-b-da, 14, 3, 2, 22, 181, 111, 120, 195, 195, 120, 1, 0.510484
277, 6, bw, filler, NA, 999, 999, 2, 23, 97, 125, 113, 87, 177, 178, 3, 0.743585
277, 6, bw, filler, NA, 999, 999, 2, 23, 97, 125, 113, 87, 177, 178, 1, 1.12066
277, 6, bw, attraction, a-b-da, 14, 2, 2, 24, 153, 83, 165, 90, 90, 165, 1, 1.20156
277, 6, bw, attraction, a-b-da, 14, 2, 2, 24, 153, 83, 165, 90, 90, 165, 2, 0.304564
277, 6, bw, attraction, a-b-db, 9, 2, 2, 25, 86, 157, 165, 90, 90, 165, 3, 0.906407
277, 6, bw, attraction, a-b-db, 9, 2, 2, 25, 86, 157, 165, 90, 90, 165, 2, 0.356814
277, 6, bw, attraction, a-b-da, 5, 1, 2, 26, 135, 60, 132, 58, 60, 135, 3, 0.763917
277, 6, bw, attraction, a-b-da, 5, 1, 2, 26, 135, 60, 132, 58, 60, 135, 2, 1.14832
277, 6, bw, filler, NA, 999, 999, 2, 27, 96, 93, 159, 135, 82, 88, 2, 0.883945
277, 6, bw, filler, NA, 999, 999, 2, 27, 96, 93, 159, 135, 82, 88, 3, 0.319589
277, 6, bw, attraction, a-b-db, 2, 3, 2, 28, 119, 193, 120, 195, 195, 120, 3, 1.01677
277, 6, bw, attraction, a-b-db, 2, 3, 2, 28, 119, 193, 120, 195, 195, 120, 1, 0.407036
277, 6, bw, attraction, a-b-da, 2, 2, 2, 29, 163, 89, 90, 165, 165, 90, 2, 1.78022
277, 6, bw, attraction, a-b-da, 2, 2, 2, 29, 163, 89, 90, 165, 165, 90, 1, 0.707726
277, 6, bw, attraction, a-b-db, 14, 2, 2, 30, 83, 153, 90, 165, 165, 90, 2, 2.14886
277, 6, bw, attraction, a-b-db, 14, 2, 2, 30, 83, 153, 90, 165, 165, 90, 3, 0.381286
277, 6, bw, filler, NA, 999, 999, 2, 31, 115, 130, 182, 184, 72, 184, 2, 1.33982
277, 6, bw, filler, NA, 999, 999, 2, 31, 115, 130, 182, 184, 72, 184, 1, 0.532698
277, 6, bw, attraction, a-b-da, 2, 1, 2, 32, 134, 59, 135, 60, 60, 135, 3, 2.59717
277, 6, bw, attraction, a-b-da, 2, 1, 2, 32, 134, 59, 135, 60, 60, 135, 2, 0.64377
277, 6, bw, attraction, a-b-da, 9, 1, 2, 33, 129, 57, 60, 135, 135, 60, 2, 1.56735
277, 6, bw, attraction, a-b-da, 9, 1, 2, 33, 129, 57, 60, 135, 135, 60, 1, 0.615562
277, 6, bw, attraction, a-b-da, 9, 3, 2, 34, 195, 120, 120, 195, 186, 114, 2, 1.8767
277, 6, bw, attraction, a-b-da, 9, 3, 2, 34, 195, 120, 120, 195, 186, 114, 1, 0.719933
277, 6, bw, filler, NA, 999, 999, 2, 35, 66, 83, 164, 185, 119, 105, 2, 2.48103
277, 6, bw, filler, NA, 999, 999, 2, 35, 66, 83, 164, 185, 119, 105, 1, 0.908193
277, 6, bw, attraction, a-b-db, 2, 1, 2, 36, 60, 135, 59, 134, 135, 60, 1, 1.3493
277, 6, bw, attraction, a-b-db, 2, 1, 2, 36, 60, 135, 59, 134, 135, 60, 3, 1.40619
277, 6, bw, attraction, a-b-db, 9, 1, 2, 37, 57, 129, 60, 135, 135, 60, 2, 2.01963
277, 6, bw, attraction, a-b-db, 9, 1, 2, 37, 57, 129, 60, 135, 135, 60, 1, 0.401639
277, 6, bw, catch, NA, 999, 999, 3, 1, 153, 102, 72, 123, 124, 191, 3, 1.35158
277, 6, bw, catch, NA, 999, 999, 3, 1, 153, 102, 72, 123, 124, 191, 2, 0.512362
277, 6, bw, attraction, a-b-da, 14, 2, 3, 2, 153, 83, 90, 165, 165, 90, 2, 2.23342
277, 6, bw, attraction, a-b-da, 14, 2, 3, 2, 153, 83, 90, 165, 165, 90, 1, 0.99907
277, 6, bw, filler, NA, 999, 999, 3, 3, 153, 190, 65, 143, 65, 192, 1, 1.06052
277, 6, bw, filler, NA, 999, 999, 3, 3, 153, 190, 65, 143, 65, 192, 2, 1.08902
277, 6, bw, attraction, a-b-da, 2, 3, 3, 4, 120, 195, 195, 120, 193, 119, 1, 1.34693
277, 6, bw, attraction, a-b-da, 2, 3, 3, 4, 120, 195, 195, 120, 193, 119, 2, 0.323844
277, 6, bw, catch, NA, 999, 999, 3, 5, 180, 135, 108, 87, 137, 118, 1, 1.72434
277, 6, bw, catch, NA, 999, 999, 3, 5, 180, 135, 108, 87, 137, 118, 3, 0.509732
277, 6, bw, filler, NA, 999, 999, 3, 6, 138, 115, 130, 163, 85, 120, 2, 1.05491
277, 6, bw, filler, NA, 999, 999, 3, 6, 138, 115, 130, 163, 85, 120, 3, 0.955236
277, 6, bw, attraction, a-b-db, 9, 2, 3, 7, 90, 165, 165, 90, 86, 157, 3, 1.27482
277, 6, bw, attraction, a-b-db, 9, 2, 3, 7, 90, 165, 165, 90, 86, 157, 2, 0.286375
277, 6, bw, attraction, a-b-da, 9, 3, 3, 8, 195, 120, 186, 114, 120, 195, 3, 1.22489
277, 6, bw, attraction, a-b-da, 9, 3, 3, 8, 195, 120, 186, 114, 120, 195, 2, 0.54248
277, 6, bw, filler, NA, 999, 999, 3, 9, 152, 71, 92, 122, 189, 111, 3, 2.56641
277, 6, bw, filler, NA, 999, 999, 3, 9, 152, 71, 92, 122, 189, 111, 2, 0.390232
277, 6, bw, catch, NA, 999, 999, 3, 10, 126, 129, 83, 112, 148, 167, 3, 2.40392
277, 6, bw, catch, NA, 999, 999, 3, 10, 126, 129, 83, 112, 148, 167, 1, 0.290034
277, 6, bw, attraction, a-b-da, 14, 1, 3, 11, 135, 60, 60, 135, 125, 56, 1, 1.85973
277, 6, bw, attraction, a-b-da, 14, 1, 3, 11, 135, 60, 60, 135, 125, 56, 2, 0.391734
277, 6, bw, attraction, a-b-db, 2, 1, 3, 12, 60, 135, 135, 60, 59, 134, 2, 1.4775
277, 6, bw, attraction, a-b-db, 2, 1, 3, 12, 60, 135, 135, 60, 59, 134, 1, 0.617039
277, 6, bw, filler, NA, 999, 999, 3, 13, 87, 74, 101, 60, 184, 126, 3, 0.990115
277, 6, bw, filler, NA, 999, 999, 3, 13, 87, 74, 101, 60, 184, 126, 1, 0.789208
277, 6, bw, attraction, a-b-db, 2, 3, 3, 14, 195, 120, 119, 193, 120, 195, 2, 1.49152
277, 6, bw, attraction, a-b-db, 2, 3, 3, 14, 195, 120, 119, 193, 120, 195, 1, 0.534338
277, 6, bw, filler, NA, 999, 999, 3, 15, 189, 148, 151, 102, 85, 172, 1, 0.990761
277, 6, bw, filler, NA, 999, 999, 3, 15, 189, 148, 151, 102, 85, 172, 3, 0.973748
277, 6, bw, attraction, a-b-db, 5, 3, 3, 16, 195, 120, 120, 195, 117, 190, 2, 1.88411
277, 6, bw, attraction, a-b-db, 5, 3, 3, 16, 195, 120, 120, 195, 117, 190, 3, 0.583483
277, 6, bw, attraction, a-b-db, 9, 3, 3, 17, 114, 186, 195, 120, 120, 195, 1, 1.54998
277, 6, bw, attraction, a-b-db, 9, 3, 3, 17, 114, 186, 195, 120, 120, 195, 2, 0.470895
277, 6, bw, attraction, a-b-db, 14, 3, 3, 18, 195, 120, 120, 195, 111, 181, 3, 1.51388
277, 6, bw, attraction, a-b-db, 14, 3, 3, 18, 195, 120, 120, 195, 111, 181, 1, 0.724038
277, 6, bw, filler, NA, 999, 999, 3, 19, 157, 106, 129, 103, 162, 93, 1, 1.49236
277, 6, bw, filler, NA, 999, 999, 3, 19, 157, 106, 129, 103, 162, 93, 2, 0.807371
277, 6, bw, attraction, a-b-da, 9, 1, 3, 20, 129, 57, 135, 60, 60, 135, 3, 1.21226
277, 6, bw, attraction, a-b-da, 9, 1, 3, 20, 129, 57, 135, 60, 60, 135, 1, 0.834647
277, 6, bw, attraction, a-b-da, 2, 2, 3, 21, 163, 89, 90, 165, 165, 90, 1, 1.22876
277, 6, bw, attraction, a-b-da, 2, 2, 3, 21, 163, 89, 90, 165, 165, 90, 3, 1.58851
277, 6, bw, attraction, a-b-db, 5, 2, 3, 22, 165, 90, 90, 165, 88, 161, 2, 1.87467
277, 6, bw, attraction, a-b-db, 5, 2, 3, 22, 165, 90, 90, 165, 88, 161, 3, 0.846055
277, 6, bw, attraction, a-b-db, 9, 1, 3, 23, 60, 135, 135, 60, 57, 129, 1, 2.20976
277, 6, bw, attraction, a-b-db, 9, 1, 3, 23, 60, 135, 135, 60, 57, 129, 3, 0.383595
277, 6, bw, attraction, a-b-db, 14, 1, 3, 24, 60, 135, 56, 125, 135, 60, 3, 1.69402
277, 6, bw, attraction, a-b-db, 14, 1, 3, 24, 60, 135, 56, 125, 135, 60, 1, 0.704893
277, 6, bw, attraction, a-b-db, 14, 2, 3, 25, 83, 153, 90, 165, 165, 90, 3, 1.08254
277, 6, bw, attraction, a-b-db, 14, 2, 3, 25, 83, 153, 90, 165, 165, 90, 1, 0.518232
277, 6, bw, attraction, a-b-db, 2, 2, 3, 26, 90, 165, 89, 163, 165, 90, 1, 1.30329
277, 6, bw, attraction, a-b-db, 2, 2, 3, 26, 90, 165, 89, 163, 165, 90, 3, 0.530363
277, 6, bw, attraction, a-b-db, 5, 1, 3, 27, 58, 132, 135, 60, 60, 135, 2, 2.12276
277, 6, bw, attraction, a-b-db, 5, 1, 3, 27, 58, 132, 135, 60, 60, 135, 1, 0.428104
277, 6, bw, attraction, a-b-da, 5, 3, 3, 28, 120, 195, 195, 120, 190, 117, 1, 1.08058
277, 6, bw, attraction, a-b-da, 5, 3, 3, 28, 120, 195, 195, 120, 190, 117, 3, 0.500206
277, 6, bw, filler, NA, 999, 999, 3, 29, 86, 162, 87, 177, 82, 143, 2, 2.58983
277, 6, bw, filler, NA, 999, 999, 3, 29, 86, 162, 87, 177, 82, 143, 3, 0.604368
277, 6, bw, filler, NA, 999, 999, 3, 30, 194, 71, 68, 130, 153, 107, 1, 1.10618
277, 6, bw, filler, NA, 999, 999, 3, 30, 194, 71, 68, 130, 153, 107, 2, 0.580456
277, 6, bw, attraction, a-b-da, 14, 3, 3, 31, 181, 111, 120, 195, 195, 120, 2, 0.827038
277, 6, bw, attraction, a-b-da, 14, 3, 3, 31, 181, 111, 120, 195, 195, 120, 1, 0.288624
277, 6, bw, attraction, a-b-da, 5, 2, 3, 32, 90, 165, 161, 88, 165, 90, 3, 0.867025
277, 6, bw, attraction, a-b-da, 5, 2, 3, 32, 90, 165, 161, 88, 165, 90, 2, 0.631451
277, 6, bw, filler, NA, 999, 999, 3, 33, 103, 174, 141, 183, 105, 130, 2, 2.01188
277, 6, bw, filler, NA, 999, 999, 3, 33, 103, 174, 141, 183, 105, 130, 3, 0.433847
277, 6, bw, filler, NA, 999, 999, 3, 34, 194, 68, 171, 160, 179, 111, 2, 0.982386
277, 6, bw, filler, NA, 999, 999, 3, 34, 194, 68, 171, 160, 179, 111, 1, 0.350044
277, 6, bw, attraction, a-b-da, 2, 1, 3, 35, 134, 59, 135, 60, 60, 135, 3, 1.31777
277, 6, bw, attraction, a-b-da, 2, 1, 3, 35, 134, 59, 135, 60, 60, 135, 1, 1.56008
277, 6, bw, attraction, a-b-da, 9, 2, 3, 36, 157, 86, 165, 90, 90, 165, 2, 2.47883
277, 6, bw, attraction, a-b-da, 9, 2, 3, 36, 157, 86, 165, 90, 90, 165, 1, 0.370055
277, 6, bw, attraction, a-b-da, 5, 1, 3, 37, 135, 60, 132, 58, 60, 135, 3, 1.95321
277, 6, bw, attraction, a-b-da, 5, 1, 3, 37, 135, 60, 132, 58, 60, 135, 1, 0.625933
277, 6, bw, catch, NA, 999, 999, 4, 1, 118, 77, 160, 95, 131, 184, 3, 2.37435
277, 6, bw, catch, NA, 999, 999, 4, 1, 118, 77, 160, 95, 131, 184, 1, 1.13354
277, 6, bw, catch, NA, 999, 999, 4, 2, 155, 100, 128, 187, 75, 120, 2, 1.72578
277, 6, bw, catch, NA, 999, 999, 4, 2, 155, 100, 128, 187, 75, 120, 3, 0.575303
277, 6, bw, attraction, a-b-da, 9, 3, 4, 3, 186, 114, 120, 195, 195, 120, 2, 1.86162
277, 6, bw, attraction, a-b-da, 9, 3, 4, 3, 186, 114, 120, 195, 195, 120, 1, 0.393687
277, 6, bw, attraction, a-b-db, 5, 2, 4, 4, 165, 90, 88, 161, 90, 165, 3, 1.99964
277, 6, bw, attraction, a-b-db, 5, 2, 4, 4, 165, 90, 88, 161, 90, 165, 1, 1.02231
277, 6, bw, filler, NA, 999, 999, 4, 5, 185, 163, 148, 162, 98, 148, 1, 0.875179
277, 6, bw, filler, NA, 999, 999, 4, 5, 185, 163, 148, 162, 98, 148, 3, 1.21487
277, 6, bw, attraction, a-b-db, 2, 1, 4, 6, 59, 134, 135, 60, 60, 135, 2, 1.89979
277, 6, bw, attraction, a-b-db, 2, 1, 4, 6, 59, 134, 135, 60, 60, 135, 1, 0.378648
277, 6, bw, attraction, a-b-da, 14, 2, 4, 7, 90, 165, 153, 83, 165, 90, 1, 1.14097
277, 6, bw, attraction, a-b-da, 14, 2, 4, 7, 90, 165, 153, 83, 165, 90, 3, 0.398159
277, 6, bw, attraction, a-b-da, 5, 2, 4, 8, 90, 165, 161, 88, 165, 90, 2, 2.69191
277, 6, bw, attraction, a-b-da, 5, 2, 4, 8, 90, 165, 161, 88, 165, 90, 1, 0.43031
277, 6, bw, attraction, a-b-db, 2, 2, 4, 9, 165, 90, 89, 163, 90, 165, 1, 1.05066
277, 6, bw, attraction, a-b-db, 2, 2, 4, 9, 165, 90, 89, 163, 90, 165, 2, 0.551639
277, 6, bw, attraction, a-b-da, 5, 3, 4, 10, 195, 120, 190, 117, 120, 195, 3, 1.21541
277, 6, bw, attraction, a-b-da, 5, 3, 4, 10, 195, 120, 190, 117, 120, 195, 2, 0.277806
277, 6, bw, attraction, a-b-db, 9, 2, 4, 11, 86, 157, 165, 90, 90, 165, 3, 0.888222
277, 6, bw, attraction, a-b-db, 9, 2, 4, 11, 86, 157, 165, 90, 90, 165, 2, 0.299289
277, 6, bw, attraction, a-b-db, 14, 3, 4, 12, 195, 120, 111, 181, 120, 195, 1, 0.775851
277, 6, bw, attraction, a-b-db, 14, 3, 4, 12, 195, 120, 111, 181, 120, 195, 2, 0.732768
277, 6, bw, attraction, a-b-db, 9, 3, 4, 13, 195, 120, 120, 195, 114, 186, 1, 0.637204
277, 6, bw, attraction, a-b-db, 9, 3, 4, 13, 195, 120, 120, 195, 114, 186, 2, 0.426237
277, 6, bw, filler, NA, 999, 999, 4, 14, 108, 97, 152, 78, 107, 61, 2, 0.838723
277, 6, bw, filler, NA, 999, 999, 4, 14, 108, 97, 152, 78, 107, 61, 3, 0.483786
277, 6, bw, attraction, a-b-db, 9, 1, 4, 15, 135, 60, 57, 129, 60, 135, 3, 0.830287
277, 6, bw, attraction, a-b-db, 9, 1, 4, 15, 135, 60, 57, 129, 60, 135, 2, 0.411947
277, 6, bw, filler, NA, 999, 999, 4, 16, 165, 174, 159, 158, 149, 189, 1, 0.537133
277, 6, bw, filler, NA, 999, 999, 4, 16, 165, 174, 159, 158, 149, 189, 2, 0.467049
277, 6, bw, attraction, a-b-db, 5, 1, 4, 17, 58, 132, 60, 135, 135, 60, 3, 0.662043
277, 6, bw, attraction, a-b-db, 5, 1, 4, 17, 58, 132, 60, 135, 135, 60, 2, 0.434631
277, 6, bw, attraction, a-b-da, 2, 1, 4, 18, 134, 59, 60, 135, 135, 60, 2, 0.71095
277, 6, bw, attraction, a-b-da, 2, 1, 4, 18, 134, 59, 60, 135, 135, 60, 3, 0.289378
277, 6, bw, attraction, a-b-db, 14, 2, 4, 19, 90, 165, 165, 90, 83, 153, 3, 0.635273
277, 6, bw, attraction, a-b-db, 14, 2, 4, 19, 90, 165, 165, 90, 83, 153, 2, 0.401345
277, 6, bw, attraction, a-b-da, 2, 2, 4, 20, 165, 90, 163, 89, 90, 165, 3, 1.19886
277, 6, bw, attraction, a-b-da, 2, 2, 4, 20, 165, 90, 163, 89, 90, 165, 2, 0.453876
277, 6, bw, filler, NA, 999, 999, 4, 21, 68, 66, 189, 192, 155, 65, 2, 1.03357
277, 6, bw, filler, NA, 999, 999, 4, 21, 68, 66, 189, 192, 155, 65, 1, 0.399313
277, 6, bw, catch, NA, 999, 999, 4, 22, 84, 111, 194, 121, 115, 140, 3, 3.14112
277, 6, bw, catch, NA, 999, 999, 4, 22, 84, 111, 194, 121, 115, 140, 1, 1.17333
277, 6, bw, attraction, a-b-da, 2, 3, 4, 23, 193, 119, 195, 120, 120, 195, 2, 0.71566
277, 6, bw, attraction, a-b-da, 2, 3, 4, 23, 193, 119, 195, 120, 120, 195, 1, 0.822094
277, 6, bw, filler, NA, 999, 999, 4, 24, 60, 64, 72, 170, 117, 152, 3, 0.875075
277, 6, bw, filler, NA, 999, 999, 4, 24, 60, 64, 72, 170, 117, 152, 1, 0.678877
277, 6, bw, filler, NA, 999, 999, 4, 25, 114, 129, 103, 114, 194, 148, 3, 0.633123
277, 6, bw, filler, NA, 999, 999, 4, 25, 114, 129, 103, 114, 194, 148, 1, 0.479036
277, 6, bw, attraction, a-b-da, 9, 2, 4, 26, 90, 165, 157, 86, 165, 90, 3, 0.985511
277, 6, bw, attraction, a-b-da, 9, 2, 4, 26, 90, 165, 157, 86, 165, 90, 1, 0.305147
277, 6, bw, attraction, a-b-db, 5, 3, 4, 27, 117, 190, 120, 195, 195, 120, 3, 0.658914
277, 6, bw, attraction, a-b-db, 5, 3, 4, 27, 117, 190, 120, 195, 195, 120, 2, 0.239408
277, 6, bw, filler, NA, 999, 999, 4, 28, 67, 85, 168, 88, 137, 186, 3, 0.771171
277, 6, bw, filler, NA, 999, 999, 4, 28, 67, 85, 168, 88, 137, 186, 1, 0.226878
277, 6, bw, filler, NA, 999, 999, 4, 29, 179, 90, 157, 188, 59, 163, 2, 0.711463
277, 6, bw, filler, NA, 999, 999, 4, 29, 179, 90, 157, 188, 59, 163, 3, 0.937884
277, 6, bw, attraction, a-b-da, 14, 1, 4, 30, 60, 135, 125, 56, 135, 60, 3, 0.746199
277, 6, bw, attraction, a-b-da, 14, 1, 4, 30, 60, 135, 125, 56, 135, 60, 1, 0.219255
277, 6, bw, attraction, a-b-da, 14, 3, 4, 31, 195, 120, 181, 111, 120, 195, 2, 0.624482
277, 6, bw, attraction, a-b-da, 14, 3, 4, 31, 195, 120, 181, 111, 120, 195, 3, 1.1742
277, 6, bw, filler, NA, 999, 999, 4, 32, 140, 191, 95, 154, 138, 136, 1, 0.860447
277, 6, bw, filler, NA, 999, 999, 4, 32, 140, 191, 95, 154, 138, 136, 3, 0.35289
277, 6, bw, attraction, a-b-db, 14, 1, 4, 33, 56, 125, 135, 60, 60, 135, 3, 1.13668
277, 6, bw, attraction, a-b-db, 14, 1, 4, 33, 56, 125, 135, 60, 60, 135, 2, 0.233603
277, 6, bw, attraction, a-b-da, 9, 1, 4, 34, 129, 57, 60, 135, 135, 60, 3, 0.726172
277, 6, bw, attraction, a-b-da, 9, 1, 4, 34, 129, 57, 60, 135, 135, 60, 1, 0.455995
277, 6, bw, attraction, a-b-db, 2, 3, 4, 35, 195, 120, 119, 193, 120, 195, 1, 0.971177
277, 6, bw, attraction, a-b-db, 2, 3, 4, 35, 195, 120, 119, 193, 120, 195, 3, 0.270087
277, 6, bw, filler, NA, 999, 999, 4, 36, 191, 85, 156, 123, 190, 161, 3, 1.22997
277, 6, bw, filler, NA, 999, 999, 4, 36, 191, 85, 156, 123, 190, 161, 1, 0.4515
277, 6, bw, attraction, a-b-da, 5, 1, 4, 37, 132, 58, 135, 60, 60, 135, 3, 0.895277
277, 6, bw, attraction, a-b-da, 5, 1, 4, 37, 132, 58, 135, 60, 60, 135, 2, 0.274415
277, 6, bw, attraction, a-b-da, 9, 3, 5, 1, 120, 195, 186, 114, 195, 120, 1, 14.0915
277, 6, bw, attraction, a-b-da, 9, 3, 5, 1, 120, 195, 186, 114, 195, 120, 2, 0.28303
277, 6, bw, filler, NA, 999, 999, 5, 2, 77, 190, 172, 72, 193, 59, 1, 1.67755
277, 6, bw, filler, NA, 999, 999, 5, 2, 77, 190, 172, 72, 193, 59, 3, 0.897014
277, 6, bw, filler, NA, 999, 999, 5, 3, 122, 182, 57, 174, 74, 143, 1, 0.714677
277, 6, bw, filler, NA, 999, 999, 5, 3, 122, 182, 57, 174, 74, 143, 3, 0.365049
277, 6, bw, filler, NA, 999, 999, 5, 4, 155, 57, 82, 105, 116, 185, 3, 1.23621
277, 6, bw, filler, NA, 999, 999, 5, 4, 155, 57, 82, 105, 116, 185, 2, 0.497789
277, 6, bw, attraction, a-b-db, 14, 2, 5, 5, 90, 165, 165, 90, 83, 153, 1, 0.755599
277, 6, bw, attraction, a-b-db, 14, 2, 5, 5, 90, 165, 165, 90, 83, 153, 2, 0.396053
277, 6, bw, attraction, a-b-db, 2, 2, 5, 6, 89, 163, 90, 165, 165, 90, 3, 1.07388
277, 6, bw, attraction, a-b-db, 2, 2, 5, 6, 89, 163, 90, 165, 165, 90, 2, 0.557486
277, 6, bw, attraction, a-b-db, 5, 1, 5, 7, 60, 135, 135, 60, 58, 132, 1, 1.23652
277, 6, bw, attraction, a-b-db, 5, 1, 5, 7, 60, 135, 135, 60, 58, 132, 2, 0.410206
277, 6, bw, catch, NA, 999, 999, 5, 8, 90, 105, 157, 158, 153, 102, 2, 0.871352
277, 6, bw, catch, NA, 999, 999, 5, 8, 90, 105, 157, 158, 153, 102, 1, 0.306966
277, 6, bw, attraction, a-b-da, 5, 1, 5, 9, 135, 60, 132, 58, 60, 135, 3, 1.2361
277, 6, bw, attraction, a-b-da, 5, 1, 5, 9, 135, 60, 132, 58, 60, 135, 2, 0.857767
277, 6, bw, attraction, a-b-db, 2, 1, 5, 10, 135, 60, 60, 135, 59, 134, 3, 1.30083
277, 6, bw, attraction, a-b-db, 2, 1, 5, 10, 135, 60, 60, 135, 59, 134, 1, 0.335667
277, 6, bw, attraction, a-b-da, 9, 1, 5, 11, 60, 135, 135, 60, 129, 57, 1, 0.720215
277, 6, bw, attraction, a-b-da, 9, 1, 5, 11, 60, 135, 135, 60, 129, 57, 3, 0.498573
277, 6, bw, attraction, a-b-da, 14, 2, 5, 12, 165, 90, 90, 165, 153, 83, 1, 2.92442
277, 6, bw, attraction, a-b-da, 14, 2, 5, 12, 165, 90, 90, 165, 153, 83, 3, 0.325422
277, 6, bw, attraction, a-b-db, 14, 1, 5, 13, 135, 60, 56, 125, 60, 135, 3, 2.00603
277, 6, bw, attraction, a-b-db, 14, 1, 5, 13, 135, 60, 56, 125, 60, 135, 1, 0.251889
277, 6, bw, filler, NA, 999, 999, 5, 14, 114, 184, 85, 110, 99, 67, 1, 0.839835
277, 6, bw, filler, NA, 999, 999, 5, 14, 114, 184, 85, 110, 99, 67, 3, 0.548807
277, 6, bw, attraction, a-b-da, 2, 1, 5, 15, 60, 135, 134, 59, 135, 60, 1, 0.828622
277, 6, bw, attraction, a-b-da, 2, 1, 5, 15, 60, 135, 134, 59, 135, 60, 2, 0.282523
277, 6, bw, attraction, a-b-da, 2, 3, 5, 16, 193, 119, 195, 120, 120, 195, 3, 1.02096
277, 6, bw, attraction, a-b-da, 2, 3, 5, 16, 193, 119, 195, 120, 120, 195, 1, 1.46699
277, 6, bw, attraction, a-b-da, 5, 3, 5, 17, 120, 195, 190, 117, 195, 120, 2, 1.00531
277, 6, bw, attraction, a-b-da, 5, 3, 5, 17, 120, 195, 190, 117, 195, 120, 1, 0.275654
277, 6, bw, attraction, a-b-da, 5, 2, 5, 18, 165, 90, 90, 165, 161, 88, 2, 1.68614
277, 6, bw, attraction, a-b-da, 5, 2, 5, 18, 165, 90, 90, 165, 161, 88, 3, 0.210464
277, 6, bw, attraction, a-b-da, 14, 1, 5, 19, 60, 135, 125, 56, 135, 60, 1, 0.670935
277, 6, bw, attraction, a-b-da, 14, 1, 5, 19, 60, 135, 125, 56, 135, 60, 2, 0.292775
277, 6, bw, attraction, a-b-da, 14, 3, 5, 20, 120, 195, 195, 120, 181, 111, 2, 1.21242
277, 6, bw, attraction, a-b-da, 14, 3, 5, 20, 120, 195, 195, 120, 181, 111, 3, 0.274636
277, 6, bw, filler, NA, 999, 999, 5, 21, 133, 158, 153, 170, 146, 134, 2, 1.30125
277, 6, bw, filler, NA, 999, 999, 5, 21, 133, 158, 153, 170, 146, 134, 1, 0.264164
277, 6, bw, filler, NA, 999, 999, 5, 22, 57, 135, 159, 195, 68, 137, 2, 1.64337
277, 6, bw, filler, NA, 999, 999, 5, 22, 57, 135, 159, 195, 68, 137, 1, 1.31212
277, 6, bw, attraction, a-b-db, 9, 1, 5, 23, 57, 129, 60, 135, 135, 60, 1, 0.889021
277, 6, bw, attraction, a-b-db, 9, 1, 5, 23, 57, 129, 60, 135, 135, 60, 3, 2.16401
277, 6, bw, attraction, a-b-db, 14, 3, 5, 24, 111, 181, 120, 195, 195, 120, 2, 0.994615
277, 6, bw, attraction, a-b-db, 14, 3, 5, 24, 111, 181, 120, 195, 195, 120, 1, 0.193613
277, 6, bw, filler, NA, 999, 999, 5, 25, 149, 131, 178, 61, 80, 154, 1, 0.919441
277, 6, bw, filler, NA, 999, 999, 5, 25, 149, 131, 178, 61, 80, 154, 3, 0.225958
277, 6, bw, attraction, a-b-db, 9, 2, 5, 26, 90, 165, 86, 157, 165, 90, 3, 3.38248
277, 6, bw, attraction, a-b-db, 9, 2, 5, 26, 90, 165, 86, 157, 165, 90, 2, 0.285304
277, 6, bw, attraction, a-b-da, 2, 2, 5, 27, 90, 165, 165, 90, 163, 89, 1, 0.847868
277, 6, bw, attraction, a-b-da, 2, 2, 5, 27, 90, 165, 165, 90, 163, 89, 2, 0.244948
277, 6, bw, attraction, a-b-db, 5, 3, 5, 28, 195, 120, 120, 195, 117, 190, 2, 1.37677
277, 6, bw, attraction, a-b-db, 5, 3, 5, 28, 195, 120, 120, 195, 117, 190, 1, 0.208356
277, 6, bw, attraction, a-b-da, 9, 2, 5, 29, 157, 86, 90, 165, 165, 90, 2, 1.72546
277, 6, bw, attraction, a-b-da, 9, 2, 5, 29, 157, 86, 90, 165, 165, 90, 1, 0.20705
277, 6, bw, filler, NA, 999, 999, 5, 30, 189, 100, 72, 183, 155, 164, 3, 0.788147
277, 6, bw, filler, NA, 999, 999, 5, 30, 189, 100, 72, 183, 155, 164, 2, 0.515173
277, 6, bw, attraction, a-b-db, 9, 3, 5, 31, 195, 120, 120, 195, 114, 186, 1, 2.87625
277, 6, bw, attraction, a-b-db, 9, 3, 5, 31, 195, 120, 120, 195, 114, 186, 2, 0.239316
277, 6, bw, attraction, a-b-db, 2, 3, 5, 32, 120, 195, 119, 193, 195, 120, 1, 0.803194
277, 6, bw, attraction, a-b-db, 2, 3, 5, 32, 120, 195, 119, 193, 195, 120, 3, 0.338328
277, 6, bw, catch, NA, 999, 999, 5, 33, 145, 170, 100, 95, 159, 96, 2, 0.930952
277, 6, bw, catch, NA, 999, 999, 5, 33, 145, 170, 100, 95, 159, 96, 3, 2.18849
277, 6, bw, attraction, a-b-db, 5, 2, 5, 34, 90, 165, 165, 90, 88, 161, 2, 1.32232
277, 6, bw, attraction, a-b-db, 5, 2, 5, 34, 90, 165, 165, 90, 88, 161, 1, 0.106215
277, 6, bw, filler, NA, 999, 999, 5, 35, 115, 85, 158, 138, 87, 77, 2, 0.965178
277, 6, bw, filler, NA, 999, 999, 5, 35, 115, 85, 158, 138, 87, 77, 3, 0.277488
277, 6, bw, filler, NA, 999, 999, 5, 36, 99, 105, 185, 143, 105, 94, 2, 1.06396
277, 6, bw, filler, NA, 999, 999, 5, 36, 99, 105, 185, 143, 105, 94, 1, 0.668303
277, 6, bw, catch, NA, 999, 999, 5, 37, 91, 104, 148, 167, 121, 134, 2, 0.719404
277, 6, bw, catch, NA, 999, 999, 5, 37, 91, 104, 148, 167, 121, 134, 1, 0.593914
277, 6, bw, filler, NA, 999, 999, 6, 1, 160, 179, 62, 189, 100, 164, 1, 1.23963
277, 6, bw, filler, NA, 999, 999, 6, 1, 160, 179, 62, 189, 100, 164, 2, 0.740459
277, 6, bw, filler, NA, 999, 999, 6, 2, 60, 136, 189, 70, 79, 121, 2, 2.50815
277, 6, bw, filler, NA, 999, 999, 6, 2, 60, 136, 189, 70, 79, 121, 1, 1.58206
277, 6, bw, attraction, a-b-da, 9, 1, 6, 3, 60, 135, 129, 57, 135, 60, 3, 0.900159
277, 6, bw, attraction, a-b-da, 9, 1, 6, 3, 60, 135, 129, 57, 135, 60, 2, 0.559197
277, 6, bw, attraction, a-b-da, 2, 3, 6, 4, 195, 120, 120, 195, 193, 119, 1, 1.27025
277, 6, bw, attraction, a-b-da, 2, 3, 6, 4, 195, 120, 120, 195, 193, 119, 2, 0.20188
277, 6, bw, attraction, a-b-da, 9, 3, 6, 5, 195, 120, 186, 114, 120, 195, 3, 1.75177
277, 6, bw, attraction, a-b-da, 9, 3, 6, 5, 195, 120, 186, 114, 120, 195, 1, 0.904608
277, 6, bw, filler, NA, 999, 999, 6, 6, 109, 191, 92, 112, 183, 167, 3, 0.970176
277, 6, bw, filler, NA, 999, 999, 6, 6, 109, 191, 92, 112, 183, 167, 2, 0.681994
277, 6, bw, attraction, a-b-da, 14, 1, 6, 7, 125, 56, 135, 60, 60, 135, 2, 1.36426
277, 6, bw, attraction, a-b-da, 14, 1, 6, 7, 125, 56, 135, 60, 60, 135, 1, 1.04456
277, 6, bw, attraction, a-b-db, 5, 3, 6, 8, 120, 195, 117, 190, 195, 120, 2, 2.52819
277, 6, bw, attraction, a-b-db, 5, 3, 6, 8, 120, 195, 117, 190, 195, 120, 1, 0.440862
277, 6, bw, catch, NA, 999, 999, 6, 9, 157, 98, 74, 121, 170, 145, 3, 0.581114
277, 6, bw, catch, NA, 999, 999, 6, 9, 157, 98, 74, 121, 170, 145, 2, 0.364949
277, 6, bw, filler, NA, 999, 999, 6, 10, 81, 92, 142, 173, 163, 120, 2, 0.564055
277, 6, bw, filler, NA, 999, 999, 6, 10, 81, 92, 142, 173, 163, 120, 3, 0.340413
277, 6, bw, filler, NA, 999, 999, 6, 11, 82, 120, 92, 157, 117, 138, 3, 0.988394
277, 6, bw, filler, NA, 999, 999, 6, 11, 82, 120, 92, 157, 117, 138, 2, 0.331297
277, 6, bw, attraction, a-b-da, 2, 1, 6, 12, 60, 135, 135, 60, 134, 59, 3, 0.72381
277, 6, bw, attraction, a-b-da, 2, 1, 6, 12, 60, 135, 135, 60, 134, 59, 1, 0.325683
277, 6, bw, attraction, a-b-db, 5, 2, 6, 13, 88, 161, 165, 90, 90, 165, 1, 0.64601
277, 6, bw, attraction, a-b-db, 5, 2, 6, 13, 88, 161, 165, 90, 90, 165, 2, 0.387126
277, 6, bw, attraction, a-b-db, 14, 3, 6, 14, 195, 120, 111, 181, 120, 195, 2, 0.849564
277, 6, bw, attraction, a-b-db, 14, 3, 6, 14, 195, 120, 111, 181, 120, 195, 1, 0.374622
277, 6, bw, attraction, a-b-db, 5, 1, 6, 15, 135, 60, 58, 132, 60, 135, 1, 0.72525
277, 6, bw, attraction, a-b-db, 5, 1, 6, 15, 135, 60, 58, 132, 60, 135, 3, 0.358897
277, 6, bw, attraction, a-b-da, 5, 1, 6, 16, 135, 60, 132, 58, 60, 135, 2, 0.678064
277, 6, bw, attraction, a-b-da, 5, 1, 6, 16, 135, 60, 132, 58, 60, 135, 3, 0.633787
277, 6, bw, attraction, a-b-db, 9, 2, 6, 17, 165, 90, 86, 157, 90, 165, 1, 1.11035
277, 6, bw, attraction, a-b-db, 9, 2, 6, 17, 165, 90, 86, 157, 90, 165, 2, 0.280636
277, 6, bw, attraction, a-b-db, 2, 2, 6, 18, 90, 165, 89, 163, 165, 90, 1, 0.875078
277, 6, bw, attraction, a-b-db, 2, 2, 6, 18, 90, 165, 89, 163, 165, 90, 3, 0.294781
277, 6, bw, catch, NA, 999, 999, 6, 19, 157, 158, 143, 112, 124, 71, 1, 1.26463
277, 6, bw, catch, NA, 999, 999, 6, 19, 157, 158, 143, 112, 124, 71, 3, 0.460874
277, 6, bw, filler, NA, 999, 999, 6, 20, 164, 80, 175, 112, 81, 74, 2, 1.00799
277, 6, bw, filler, NA, 999, 999, 6, 20, 164, 80, 175, 112, 81, 74, 3, 0.510396
277, 6, bw, attraction, a-b-da, 5, 3, 6, 21, 190, 117, 120, 195, 195, 120, 2, 1.27139
277, 6, bw, attraction, a-b-da, 5, 3, 6, 21, 190, 117, 120, 195, 195, 120, 1, 0.250923
277, 6, bw, attraction, a-b-da, 14, 3, 6, 22, 120, 195, 195, 120, 181, 111, 1, 0.806853
277, 6, bw, attraction, a-b-da, 14, 3, 6, 22, 120, 195, 195, 120, 181, 111, 2, 0.517249
277, 6, bw, filler, NA, 999, 999, 6, 23, 130, 149, 88, 190, 109, 99, 1, 1.38243
277, 6, bw, filler, NA, 999, 999, 6, 23, 130, 149, 88, 190, 109, 99, 3, 0.757931
277, 6, bw, attraction, a-b-db, 2, 1, 6, 24, 60, 135, 135, 60, 59, 134, 3, 1.15696
277, 6, bw, attraction, a-b-db, 2, 1, 6, 24, 60, 135, 135, 60, 59, 134, 2, 0.429274
277, 6, bw, attraction, a-b-da, 9, 2, 6, 25, 165, 90, 157, 86, 90, 165, 3, 1.43368
277, 6, bw, attraction, a-b-da, 9, 2, 6, 25, 165, 90, 157, 86, 90, 165, 2, 0.631205
277, 6, bw, attraction, a-b-db, 2, 3, 6, 26, 195, 120, 119, 193, 120, 195, 3, 1.65956
277, 6, bw, attraction, a-b-db, 2, 3, 6, 26, 195, 120, 119, 193, 120, 195, 2, 0.311858
277, 6, bw, attraction, a-b-db, 14, 2, 6, 27, 165, 90, 83, 153, 90, 165, 3, 1.60088
277, 6, bw, attraction, a-b-db, 14, 2, 6, 27, 165, 90, 83, 153, 90, 165, 1, 0.655776
277, 6, bw, attraction, a-b-db, 9, 3, 6, 28, 120, 195, 114, 186, 195, 120, 3, 1.74748
277, 6, bw, attraction, a-b-db, 9, 3, 6, 28, 120, 195, 114, 186, 195, 120, 1, 0.324248
277, 6, bw, attraction, a-b-da, 14, 2, 6, 29, 90, 165, 165, 90, 153, 83, 1, 1.18883
277, 6, bw, attraction, a-b-da, 14, 2, 6, 29, 90, 165, 165, 90, 153, 83, 3, 0.315671
277, 6, bw, filler, NA, 999, 999, 6, 30, 102, 139, 170, 71, 105, 101, 2, 1.55682
277, 6, bw, filler, NA, 999, 999, 6, 30, 102, 139, 170, 71, 105, 101, 3, 0.261023
277, 6, bw, filler, NA, 999, 999, 6, 31, 172, 81, 59, 79, 87, 131, 1, 2.48016
277, 6, bw, filler, NA, 999, 999, 6, 31, 172, 81, 59, 79, 87, 131, 2, 0.579565
277, 6, bw, attraction, a-b-da, 2, 2, 6, 32, 163, 89, 90, 165, 165, 90, 2, 1.04184
277, 6, bw, attraction, a-b-da, 2, 2, 6, 32, 163, 89, 90, 165, 165, 90, 3, 0.278913
277, 6, bw, catch, NA, 999, 999, 6, 33, 86, 109, 95, 160, 120, 195, 3, 0.953434
277, 6, bw, catch, NA, 999, 999, 6, 33, 86, 109, 95, 160, 120, 195, 2, 0.394276
277, 6, bw, attraction, a-b-da, 5, 2, 6, 34, 161, 88, 90, 165, 165, 90, 1, 0.880113
277, 6, bw, attraction, a-b-da, 5, 2, 6, 34, 161, 88, 90, 165, 165, 90, 2, 0.363871
277, 6, bw, attraction, a-b-db, 14, 1, 6, 35, 60, 135, 56, 125, 135, 60, 1, 1.28298
277, 6, bw, attraction, a-b-db, 14, 1, 6, 35, 60, 135, 56, 125, 135, 60, 3, 0.382603
277, 6, bw, attraction, a-b-db, 9, 1, 6, 36, 135, 60, 57, 129, 60, 135, 1, 0.829035
277, 6, bw, attraction, a-b-db, 9, 1, 6, 36, 135, 60, 57, 129, 60, 135, 2, 0.362747
277, 6, bw, filler, NA, 999, 999, 6, 37, 178, 128, 173, 154, 107, 159, 2, 1.03395
277, 6, bw, filler, NA, 999, 999, 6, 37, 178, 128, 173, 154, 107, 159, 3, 0.247568
277, 6, bw, attraction, a-b-db, 2, 3, 7, 1, 195, 120, 120, 195, 119, 193, 3, 1.51557
277, 6, bw, attraction, a-b-db, 2, 3, 7, 1, 195, 120, 120, 195, 119, 193, 2, 0.677777
277, 6, bw, filler, NA, 999, 999, 7, 2, 95, 115, 101, 69, 94, 136, 3, 0.903986
277, 6, bw, filler, NA, 999, 999, 7, 2, 95, 115, 101, 69, 94, 136, 2, 0.426462
277, 6, bw, attraction, a-b-da, 9, 2, 7, 3, 165, 90, 157, 86, 90, 165, 3, 1.23884
277, 6, bw, attraction, a-b-da, 9, 2, 7, 3, 165, 90, 157, 86, 90, 165, 1, 0.80025
277, 6, bw, attraction, a-b-db, 14, 3, 7, 4, 120, 195, 195, 120, 111, 181, 1, 0.849467
277, 6, bw, attraction, a-b-db, 14, 3, 7, 4, 120, 195, 195, 120, 111, 181, 2, 0.494517
277, 6, bw, attraction, a-b-da, 5, 1, 7, 5, 135, 60, 132, 58, 60, 135, 2, 0.968248
277, 6, bw, attraction, a-b-da, 5, 1, 7, 5, 135, 60, 132, 58, 60, 135, 3, 1.19269
277, 6, bw, attraction, a-b-da, 9, 1, 7, 6, 60, 135, 129, 57, 135, 60, 3, 0.894213
277, 6, bw, attraction, a-b-da, 9, 1, 7, 6, 60, 135, 129, 57, 135, 60, 2, 0.377213
277, 6, bw, filler, NA, 999, 999, 7, 7, 181, 61, 171, 126, 139, 85, 2, 1.03171
277, 6, bw, filler, NA, 999, 999, 7, 7, 181, 61, 171, 126, 139, 85, 1, 0.957378
277, 6, bw, attraction, a-b-da, 5, 3, 7, 8, 190, 117, 195, 120, 120, 195, 3, 0.908315
277, 6, bw, attraction, a-b-da, 5, 3, 7, 8, 190, 117, 195, 120, 120, 195, 1, 0.646706
277, 6, bw, attraction, a-b-db, 9, 1, 7, 9, 60, 135, 135, 60, 57, 129, 3, 1.26636
277, 6, bw, attraction, a-b-db, 9, 1, 7, 9, 60, 135, 135, 60, 57, 129, 1, 0.342625
277, 6, bw, attraction, a-b-da, 14, 3, 7, 10, 195, 120, 181, 111, 120, 195, 3, 1.76659
277, 6, bw, attraction, a-b-da, 14, 3, 7, 10, 195, 120, 181, 111, 120, 195, 2, 0.686606
277, 6, bw, attraction, a-b-db, 9, 2, 7, 11, 165, 90, 86, 157, 90, 165, 3, 2.08106
277, 6, bw, attraction, a-b-db, 9, 2, 7, 11, 165, 90, 86, 157, 90, 165, 2, 0.324318
277, 6, bw, attraction, a-b-db, 9, 3, 7, 12, 120, 195, 114, 186, 195, 120, 3, 6.12482
277, 6, bw, attraction, a-b-db, 9, 3, 7, 12, 120, 195, 114, 186, 195, 120, 2, 0.580881
277, 6, bw, attraction, a-b-da, 5, 2, 7, 13, 161, 88, 165, 90, 90, 165, 3, 0.84324
277, 6, bw, attraction, a-b-da, 5, 2, 7, 13, 161, 88, 165, 90, 90, 165, 2, 0.304407
277, 6, bw, attraction, a-b-da, 2, 2, 7, 14, 165, 90, 163, 89, 90, 165, 1, 0.618112
277, 6, bw, attraction, a-b-da, 2, 2, 7, 14, 165, 90, 163, 89, 90, 165, 2, 0.312587
277, 6, bw, attraction, a-b-db, 5, 2, 7, 15, 90, 165, 165, 90, 88, 161, 3, 0.657749
277, 6, bw, attraction, a-b-db, 5, 2, 7, 15, 90, 165, 165, 90, 88, 161, 2, 0.326354
277, 6, bw, filler, NA, 999, 999, 7, 16, 194, 140, 195, 195, 120, 141, 1, 0.750849
277, 6, bw, filler, NA, 999, 999, 7, 16, 194, 140, 195, 195, 120, 141, 2, 0.471869
277, 6, bw, attraction, a-b-db, 5, 1, 7, 17, 58, 132, 135, 60, 60, 135, 1, 1.16294
277, 6, bw, attraction, a-b-db, 5, 1, 7, 17, 58, 132, 135, 60, 60, 135, 2, 0.315304
277, 6, bw, attraction, a-b-da, 14, 1, 7, 18, 135, 60, 60, 135, 125, 56, 3, 0.820439
277, 6, bw, attraction, a-b-da, 14, 1, 7, 18, 135, 60, 60, 135, 125, 56, 2, 0.746895
277, 6, bw, attraction, a-b-da, 2, 1, 7, 19, 135, 60, 60, 135, 134, 59, 1, 0.858618
277, 6, bw, attraction, a-b-da, 2, 1, 7, 19, 135, 60, 60, 135, 134, 59, 2, 0.934918
277, 6, bw, filler, NA, 999, 999, 7, 20, 68, 75, 131, 60, 177, 190, 3, 0.647168
277, 6, bw, filler, NA, 999, 999, 7, 20, 68, 75, 131, 60, 177, 190, 1, 0.580319
277, 6, bw, attraction, a-b-db, 2, 1, 7, 21, 59, 134, 60, 135, 135, 60, 1, 0.738689
277, 6, bw, attraction, a-b-db, 2, 1, 7, 21, 59, 134, 60, 135, 135, 60, 3, 0.691884
277, 6, bw, attraction, a-b-da, 14, 2, 7, 22, 165, 90, 153, 83, 90, 165, 2, 0.661482
277, 6, bw, attraction, a-b-da, 14, 2, 7, 22, 165, 90, 153, 83, 90, 165, 3, 0.369925
277, 6, bw, filler, NA, 999, 999, 7, 23, 194, 103, 146, 73, 115, 161, 1, 0.489072
277, 6, bw, filler, NA, 999, 999, 7, 23, 194, 103, 146, 73, 115, 161, 2, 0.396209
277, 6, bw, attraction, a-b-da, 9, 3, 7, 24, 195, 120, 120, 195, 186, 114, 1, 0.570089
277, 6, bw, attraction, a-b-da, 9, 3, 7, 24, 195, 120, 120, 195, 186, 114, 3, 0.417976
277, 6, bw, catch, NA, 999, 999, 7, 25, 151, 164, 115, 140, 110, 85, 1, 0.76712
277, 6, bw, catch, NA, 999, 999, 7, 25, 151, 164, 115, 140, 110, 85, 2, 0.327423
277, 6, bw, attraction, a-b-db, 14, 2, 7, 26, 165, 90, 83, 153, 90, 165, 3, 0.959871
277, 6, bw, attraction, a-b-db, 14, 2, 7, 26, 165, 90, 83, 153, 90, 165, 2, 0.576212
277, 6, bw, catch, NA, 999, 999, 7, 27, 168, 147, 122, 73, 106, 149, 3, 0.590671
277, 6, bw, catch, NA, 999, 999, 7, 27, 168, 147, 122, 73, 106, 149, 2, 0.269776
277, 6, bw, filler, NA, 999, 999, 7, 28, 124, 89, 143, 174, 100, 78, 1, 0.792976
277, 6, bw, filler, NA, 999, 999, 7, 28, 124, 89, 143, 174, 100, 78, 2, 0.648045
277, 6, bw, attraction, a-b-db, 2, 2, 7, 29, 89, 163, 90, 165, 165, 90, 3, 1.74779
277, 6, bw, attraction, a-b-db, 2, 2, 7, 29, 89, 163, 90, 165, 165, 90, 2, 0.34056
277, 6, bw, filler, NA, 999, 999, 7, 30, 67, 155, 129, 66, 102, 136, 3, 1.34848
277, 6, bw, filler, NA, 999, 999, 7, 30, 67, 155, 129, 66, 102, 136, 2, 0.853271
277, 6, bw, filler, NA, 999, 999, 7, 31, 98, 108, 171, 119, 191, 126, 2, 0.897007
277, 6, bw, filler, NA, 999, 999, 7, 31, 98, 108, 171, 119, 191, 126, 1, 0.299925
277, 6, bw, attraction, a-b-db, 14, 1, 7, 32, 56, 125, 135, 60, 60, 135, 2, 1.18989
277, 6, bw, attraction, a-b-db, 14, 1, 7, 32, 56, 125, 135, 60, 60, 135, 3, 1.62078
277, 6, bw, filler, NA, 999, 999, 7, 33, 168, 180, 180, 142, 74, 173, 1, 0.865484
277, 6, bw, filler, NA, 999, 999, 7, 33, 168, 180, 180, 142, 74, 173, 3, 0.681584
277, 6, bw, attraction, a-b-db, 5, 3, 7, 34, 120, 195, 117, 190, 195, 120, 3, 0.872254
277, 6, bw, attraction, a-b-db, 5, 3, 7, 34, 120, 195, 117, 190, 195, 120, 1, 0.500039
277, 6, bw, attraction, a-b-da, 2, 3, 7, 35, 195, 120, 120, 195, 193, 119, 2, 1.46178
277, 6, bw, attraction, a-b-da, 2, 3, 7, 35, 195, 120, 120, 195, 193, 119, 1, 0.225935
277, 6, bw, catch, NA, 999, 999, 7, 36, 127, 128, 137, 178, 61, 134, 2, 0.99053
277, 6, bw, catch, NA, 999, 999, 7, 36, 127, 128, 137, 178, 61, 134, 3, 0.221578
277, 6, bw, filler, NA, 999, 999, 7, 37, 85, 129, 142, 89, 60, 164, 1, 1.25868
277, 6, bw, filler, NA, 999, 999, 7, 37, 85, 129, 142, 89, 60, 164, 3, 0.679017
277, 6, bw, catch, NA, 999, 999, 8, 1, 67, 128, 133, 122, 143, 172, 3, 0.841373
277, 6, bw, catch, NA, 999, 999, 8, 1, 67, 128, 133, 122, 143, 172, 2, 0.230413
277, 6, bw, attraction, a-b-db, 5, 1, 8, 2, 60, 135, 135, 60, 58, 132, 2, 0.771058
277, 6, bw, attraction, a-b-db, 5, 1, 8, 2, 60, 135, 135, 60, 58, 132, 1, 0.538663
277, 6, bw, catch, NA, 999, 999, 8, 3, 98, 157, 126, 69, 161, 154, 3, 0.635161
277, 6, bw, catch, NA, 999, 999, 8, 3, 98, 157, 126, 69, 161, 154, 2, 0.576853
277, 6, bw, filler, NA, 999, 999, 8, 4, 105, 155, 159, 135, 82, 158, 3, 1.07928
277, 6, bw, filler, NA, 999, 999, 8, 4, 105, 155, 159, 135, 82, 158, 2, 0.338884
277, 6, bw, attraction, a-b-da, 5, 2, 8, 5, 161, 88, 165, 90, 90, 165, 3, 1.2275
277, 6, bw, attraction, a-b-da, 5, 2, 8, 5, 161, 88, 165, 90, 90, 165, 2, 0.337012
277, 6, bw, filler, NA, 999, 999, 8, 6, 75, 172, 184, 127, 65, 155, 2, 0.585541
277, 6, bw, filler, NA, 999, 999, 8, 6, 75, 172, 184, 127, 65, 155, 3, 0.67342
277, 6, bw, attraction, a-b-da, 9, 1, 8, 7, 135, 60, 60, 135, 129, 57, 2, 1.4117
277, 6, bw, attraction, a-b-da, 9, 1, 8, 7, 135, 60, 60, 135, 129, 57, 1, 0.865854
277, 6, bw, attraction, a-b-da, 14, 1, 8, 8, 135, 60, 60, 135, 125, 56, 2, 1.15692
277, 6, bw, attraction, a-b-da, 14, 1, 8, 8, 135, 60, 60, 135, 125, 56, 1, 0.245205
277, 6, bw, filler, NA, 999, 999, 8, 9, 167, 141, 106, 160, 102, 77, 1, 0.593081
277, 6, bw, filler, NA, 999, 999, 8, 9, 167, 141, 106, 160, 102, 77, 3, 0.304235
277, 6, bw, attraction, a-b-db, 9, 1, 8, 10, 135, 60, 57, 129, 60, 135, 1, 0.898017
277, 6, bw, attraction, a-b-db, 9, 1, 8, 10, 135, 60, 57, 129, 60, 135, 3, 0.413059
277, 6, bw, filler, NA, 999, 999, 8, 11, 131, 187, 122, 162, 152, 128, 1, 0.810233
277, 6, bw, filler, NA, 999, 999, 8, 11, 131, 187, 122, 162, 152, 128, 3, 0.400576
277, 6, bw, attraction, a-b-db, 2, 2, 8, 12, 89, 163, 90, 165, 165, 90, 2, 1.11044
277, 6, bw, attraction, a-b-db, 2, 2, 8, 12, 89, 163, 90, 165, 165, 90, 3, 0.352682
277, 6, bw, attraction, a-b-da, 14, 3, 8, 13, 120, 195, 181, 111, 195, 120, 1, 0.648536
277, 6, bw, attraction, a-b-da, 14, 3, 8, 13, 120, 195, 181, 111, 195, 120, 3, 0.661666
277, 6, bw, attraction, a-b-db, 2, 3, 8, 14, 195, 120, 120, 195, 119, 193, 2, 0.672769
277, 6, bw, attraction, a-b-db, 2, 3, 8, 14, 195, 120, 120, 195, 119, 193, 3, 0.484481
277, 6, bw, filler, NA, 999, 999, 8, 15, 146, 131, 176, 127, 179, 113, 2, 0.814897
277, 6, bw, filler, NA, 999, 999, 8, 15, 146, 131, 176, 127, 179, 113, 1, 0.277443
277, 6, bw, attraction, a-b-db, 9, 3, 8, 16, 195, 120, 120, 195, 114, 186, 1, 0.767766
277, 6, bw, attraction, a-b-db, 9, 3, 8, 16, 195, 120, 120, 195, 114, 186, 3, 0.264208
277, 6, bw, catch, NA, 999, 999, 8, 17, 138, 117, 134, 61, 142, 173, 3, 1.09943
277, 6, bw, catch, NA, 999, 999, 8, 17, 138, 117, 134, 61, 142, 173, 1, 0.270504
277, 6, bw, attraction, a-b-da, 14, 2, 8, 18, 153, 83, 90, 165, 165, 90, 2, 0.625609
277, 6, bw, attraction, a-b-da, 14, 2, 8, 18, 153, 83, 90, 165, 165, 90, 1, 0.247378
277, 6, bw, attraction, a-b-db, 5, 3, 8, 19, 117, 190, 120, 195, 195, 120, 1, 0.739142
277, 6, bw, attraction, a-b-db, 5, 3, 8, 19, 117, 190, 120, 195, 195, 120, 3, 0.204319
277, 6, bw, attraction, a-b-da, 2, 3, 8, 20, 195, 120, 120, 195, 193, 119, 2, 0.738262
277, 6, bw, attraction, a-b-da, 2, 3, 8, 20, 195, 120, 120, 195, 193, 119, 1, 0.179217
277, 6, bw, attraction, a-b-db, 9, 2, 8, 21, 90, 165, 86, 157, 165, 90, 1, 0.60985
277, 6, bw, attraction, a-b-db, 9, 2, 8, 21, 90, 165, 86, 157, 165, 90, 2, 0.232279
277, 6, bw, filler, NA, 999, 999, 8, 22, 88, 58, 96, 183, 168, 191, 3, 0.588774
277, 6, bw, filler, NA, 999, 999, 8, 22, 88, 58, 96, 183, 168, 191, 2, 0.315869
277, 6, bw, filler, NA, 999, 999, 8, 23, 129, 168, 169, 166, 97, 143, 2, 0.717024
277, 6, bw, filler, NA, 999, 999, 8, 23, 129, 168, 169, 166, 97, 143, 3, 0.215572
277, 6, bw, attraction, a-b-da, 9, 3, 8, 24, 186, 114, 120, 195, 195, 120, 2, 0.572634
277, 6, bw, attraction, a-b-da, 9, 3, 8, 24, 186, 114, 120, 195, 195, 120, 1, 0.188607
277, 6, bw, attraction, a-b-db, 2, 1, 8, 25, 60, 135, 135, 60, 59, 134, 2, 0.651025
277, 6, bw, attraction, a-b-db, 2, 1, 8, 25, 60, 135, 135, 60, 59, 134, 1, 0.736152
277, 6, bw, attraction, a-b-db, 14, 1, 8, 26, 60, 135, 56, 125, 135, 60, 1, 0.76051
277, 6, bw, attraction, a-b-db, 14, 1, 8, 26, 60, 135, 56, 125, 135, 60, 3, 0.280885
277, 6, bw, filler, NA, 999, 999, 8, 27, 159, 143, 189, 124, 78, 192, 1, 1.63552
277, 6, bw, filler, NA, 999, 999, 8, 27, 159, 143, 189, 124, 78, 192, 2, 0.232981
277, 6, bw, attraction, a-b-db, 14, 3, 8, 28, 195, 120, 120, 195, 111, 181, 2, 0.733387
277, 6, bw, attraction, a-b-db, 14, 3, 8, 28, 195, 120, 120, 195, 111, 181, 1, 0.159178
277, 6, bw, filler, NA, 999, 999, 8, 29, 181, 83, 189, 150, 165, 92, 2, 0.76638
277, 6, bw, filler, NA, 999, 999, 8, 29, 181, 83, 189, 150, 165, 92, 1, 0.966808
277, 6, bw, filler, NA, 999, 999, 8, 30, 155, 157, 84, 94, 178, 93, 1, 0.7098
277, 6, bw, filler, NA, 999, 999, 8, 30, 155, 157, 84, 94, 178, 93, 2, 0.280255
277, 6, bw, attraction, a-b-da, 2, 1, 8, 31, 60, 135, 135, 60, 134, 59, 1, 0.850885
277, 6, bw, attraction, a-b-da, 2, 1, 8, 31, 60, 135, 135, 60, 134, 59, 2, 0.775902
277, 6, bw, attraction, a-b-db, 5, 2, 8, 32, 165, 90, 88, 161, 90, 165, 1, 0.926143
277, 6, bw, attraction, a-b-db, 5, 2, 8, 32, 165, 90, 88, 161, 90, 165, 2, 0.207819
277, 6, bw, attraction, a-b-db, 14, 2, 8, 33, 83, 153, 165, 90, 90, 165, 3, 1.02909
277, 6, bw, attraction, a-b-db, 14, 2, 8, 33, 83, 153, 165, 90, 90, 165, 2, 0.242735
277, 6, bw, attraction, a-b-da, 9, 2, 8, 34, 157, 86, 90, 165, 165, 90, 1, 0.782581
277, 6, bw, attraction, a-b-da, 9, 2, 8, 34, 157, 86, 90, 165, 165, 90, 2, 0.270294
277, 6, bw, attraction, a-b-da, 5, 3, 8, 35, 190, 117, 195, 120, 120, 195, 1, 0.681422
277, 6, bw, attraction, a-b-da, 5, 3, 8, 35, 190, 117, 195, 120, 120, 195, 2, 0.221211
277, 6, bw, attraction, a-b-da, 2, 2, 8, 36, 163, 89, 90, 165, 165, 90, 3, 0.522442
277, 6, bw, attraction, a-b-da, 2, 2, 8, 36, 163, 89, 90, 165, 165, 90, 2, 0.292248
277, 6, bw, attraction, a-b-da, 5, 1, 8, 37, 132, 58, 60, 135, 135, 60, 1, 0.686066
277, 6, bw, attraction, a-b-da, 5, 1, 8, 37, 132, 58, 60, 135, 135, 60, 2, 0.289804
