sub_n, computer_n, bw_cond, effect, set, distance, diag, block_n, trial_n, h1, w1, h2, w2, h3, w3, choice, rt 
237, 6, bw, practice, NA, 999, 999, 0, 1, 125, 184, 64, 132, 124, 169, 1, 2.66723
237, 6, bw, practice, NA, 999, 999, 0, 1, 125, 184, 64, 132, 124, 169, 2, 2.01387
237, 6, bw, practice, NA, 999, 999, 0, 2, 116, 186, 166, 164, 94, 171, 2, 1.39164
237, 6, bw, practice, NA, 999, 999, 0, 2, 116, 186, 166, 164, 94, 171, 3, 2.15019
237, 6, bw, practice, NA, 999, 999, 0, 3, 67, 67, 136, 69, 77, 61, 2, 1.91456
237, 6, bw, practice, NA, 999, 999, 0, 3, 67, 67, 136, 69, 77, 61, 1, 2.34636
237, 6, bw, attraction, a-b-db, 2, 3, 1, 1, 120, 195, 119, 193, 195, 120, 2, 4.91221
237, 6, bw, attraction, a-b-db, 2, 3, 1, 1, 120, 195, 119, 193, 195, 120, 1, 1.83341
237, 6, bw, filler, NA, 999, 999, 1, 2, 99, 61, 177, 152, 138, 130, 2, 1.14935
237, 6, bw, filler, NA, 999, 999, 1, 2, 99, 61, 177, 152, 138, 130, 1, 1.22249
237, 6, bw, attraction, a-b-da, 5, 2, 1, 3, 90, 165, 161, 88, 165, 90, 2, 1.98719
237, 6, bw, attraction, a-b-da, 5, 2, 1, 3, 90, 165, 161, 88, 165, 90, 1, 1.32189
237, 6, bw, attraction, a-b-db, 2, 2, 1, 4, 89, 163, 165, 90, 90, 165, 2, 1.19486
237, 6, bw, attraction, a-b-db, 2, 2, 1, 4, 89, 163, 165, 90, 90, 165, 1, 1.34581
237, 6, bw, attraction, a-b-da, 5, 1, 1, 5, 132, 58, 135, 60, 60, 135, 2, 1.44132
237, 6, bw, attraction, a-b-da, 5, 1, 1, 5, 132, 58, 135, 60, 60, 135, 3, 2.39816
237, 6, bw, attraction, a-b-da, 2, 1, 1, 6, 135, 60, 134, 59, 60, 135, 2, 3.09932
237, 6, bw, attraction, a-b-da, 2, 1, 1, 6, 135, 60, 134, 59, 60, 135, 1, 1.11761
237, 6, bw, attraction, a-b-db, 14, 3, 1, 7, 111, 181, 195, 120, 120, 195, 2, 1.54265
237, 6, bw, attraction, a-b-db, 14, 3, 1, 7, 111, 181, 195, 120, 120, 195, 1, 1.67945
237, 6, bw, filler, NA, 999, 999, 1, 8, 102, 134, 120, 85, 184, 130, 3, 1.9135
237, 6, bw, filler, NA, 999, 999, 1, 8, 102, 134, 120, 85, 184, 130, 2, 1.20353
237, 6, bw, filler, NA, 999, 999, 1, 9, 134, 115, 182, 96, 106, 56, 1, 2.9851
237, 6, bw, filler, NA, 999, 999, 1, 9, 134, 115, 182, 96, 106, 56, 3, 1.32018
237, 6, bw, attraction, a-b-da, 2, 2, 1, 10, 90, 165, 163, 89, 165, 90, 3, 1.58501
237, 6, bw, attraction, a-b-da, 2, 2, 1, 10, 90, 165, 163, 89, 165, 90, 1, 1.71242
237, 6, bw, catch, NA, 999, 999, 1, 11, 189, 126, 72, 123, 110, 145, 1, 1.77722
237, 6, bw, catch, NA, 999, 999, 1, 11, 189, 126, 72, 123, 110, 145, 2, 1.58461
237, 6, bw, filler, NA, 999, 999, 1, 12, 91, 157, 139, 164, 168, 158, 3, 2.02271
237, 6, bw, filler, NA, 999, 999, 1, 12, 91, 157, 139, 164, 168, 158, 1, 1.58007
237, 6, bw, attraction, a-b-db, 5, 3, 1, 13, 195, 120, 117, 190, 120, 195, 2, 2.29018
237, 6, bw, attraction, a-b-db, 5, 3, 1, 13, 195, 120, 117, 190, 120, 195, 3, 3.88481
237, 6, bw, attraction, a-b-db, 2, 1, 1, 14, 135, 60, 59, 134, 60, 135, 1, 3.02214
237, 6, bw, attraction, a-b-db, 2, 1, 1, 14, 135, 60, 59, 134, 60, 135, 3, 3.87539
237, 6, bw, attraction, a-b-da, 9, 3, 1, 15, 120, 195, 195, 120, 186, 114, 1, 1.78858
237, 6, bw, attraction, a-b-da, 9, 3, 1, 15, 120, 195, 195, 120, 186, 114, 3, 1.20336
237, 6, bw, filler, NA, 999, 999, 1, 16, 135, 164, 160, 81, 155, 117, 1, 1.00083
237, 6, bw, filler, NA, 999, 999, 1, 16, 135, 164, 160, 81, 155, 117, 2, 1.09609
237, 6, bw, attraction, a-b-da, 14, 2, 1, 17, 153, 83, 165, 90, 90, 165, 2, 1.76156
237, 6, bw, attraction, a-b-da, 14, 2, 1, 17, 153, 83, 165, 90, 90, 165, 1, 0.79361
237, 6, bw, attraction, a-b-db, 14, 2, 1, 18, 90, 165, 165, 90, 83, 153, 1, 1.86345
237, 6, bw, attraction, a-b-db, 14, 2, 1, 18, 90, 165, 165, 90, 83, 153, 3, 1.41138
237, 6, bw, attraction, a-b-da, 14, 3, 1, 19, 195, 120, 181, 111, 120, 195, 3, 1.87211
237, 6, bw, attraction, a-b-da, 14, 3, 1, 19, 195, 120, 181, 111, 120, 195, 1, 1.23552
237, 6, bw, catch, NA, 999, 999, 1, 20, 119, 136, 192, 123, 97, 98, 2, 3.41575
237, 6, bw, catch, NA, 999, 999, 1, 20, 119, 136, 192, 123, 97, 98, 3, 2.37335
237, 6, bw, attraction, a-b-da, 2, 3, 1, 21, 193, 119, 195, 120, 120, 195, 3, 3.33925
237, 6, bw, attraction, a-b-da, 2, 3, 1, 21, 193, 119, 195, 120, 120, 195, 1, 1.45155
237, 6, bw, filler, NA, 999, 999, 1, 22, 149, 102, 159, 105, 157, 93, 2, 1.18298
237, 6, bw, filler, NA, 999, 999, 1, 22, 149, 102, 159, 105, 157, 93, 1, 1.9186
237, 6, bw, filler, NA, 999, 999, 1, 23, 171, 98, 194, 147, 70, 164, 2, 1.6152
237, 6, bw, filler, NA, 999, 999, 1, 23, 171, 98, 194, 147, 70, 164, 3, 1.31737
237, 6, bw, filler, NA, 999, 999, 1, 24, 67, 126, 142, 100, 108, 177, 3, 1.20619
237, 6, bw, filler, NA, 999, 999, 1, 24, 67, 126, 142, 100, 108, 177, 1, 0.868457
237, 6, bw, attraction, a-b-da, 9, 1, 1, 25, 60, 135, 135, 60, 129, 57, 1, 2.87159
237, 6, bw, attraction, a-b-da, 9, 1, 1, 25, 60, 135, 135, 60, 129, 57, 2, 0.730637
237, 6, bw, attraction, a-b-db, 9, 1, 1, 26, 135, 60, 60, 135, 57, 129, 2, 3.23506
237, 6, bw, attraction, a-b-db, 9, 1, 1, 26, 135, 60, 60, 135, 57, 129, 1, 1.82387
237, 6, bw, attraction, a-b-da, 5, 3, 1, 27, 190, 117, 120, 195, 195, 120, 2, 4.54799
237, 6, bw, attraction, a-b-da, 5, 3, 1, 27, 190, 117, 120, 195, 195, 120, 1, 1.24388
237, 6, bw, attraction, a-b-da, 9, 2, 1, 28, 165, 90, 157, 86, 90, 165, 1, 1.61555
237, 6, bw, attraction, a-b-da, 9, 2, 1, 28, 165, 90, 157, 86, 90, 165, 2, 0.821688
237, 6, bw, attraction, a-b-db, 14, 1, 1, 29, 135, 60, 60, 135, 56, 125, 2, 4.06659
237, 6, bw, attraction, a-b-db, 14, 1, 1, 29, 135, 60, 60, 135, 56, 125, 1, 0.909877
237, 6, bw, attraction, a-b-db, 9, 2, 1, 30, 165, 90, 86, 157, 90, 165, 3, 1.66298
237, 6, bw, attraction, a-b-db, 9, 2, 1, 30, 165, 90, 86, 157, 90, 165, 1, 1.32314
237, 6, bw, filler, NA, 999, 999, 1, 31, 94, 174, 102, 148, 129, 188, 3, 1.20324
237, 6, bw, filler, NA, 999, 999, 1, 31, 94, 174, 102, 148, 129, 188, 1, 2.16956
237, 6, bw, attraction, a-b-db, 9, 3, 1, 32, 114, 186, 120, 195, 195, 120, 2, 2.00818
237, 6, bw, attraction, a-b-db, 9, 3, 1, 32, 114, 186, 120, 195, 195, 120, 1, 1.69408
237, 6, bw, attraction, a-b-da, 14, 1, 1, 33, 135, 60, 125, 56, 60, 135, 1, 1.6555
237, 6, bw, attraction, a-b-da, 14, 1, 1, 33, 135, 60, 125, 56, 60, 135, 2, 1.13164
237, 6, bw, filler, NA, 999, 999, 1, 34, 120, 149, 125, 143, 124, 159, 3, 1.25984
237, 6, bw, filler, NA, 999, 999, 1, 34, 120, 149, 125, 143, 124, 159, 1, 1.7521
237, 6, bw, attraction, a-b-db, 5, 2, 1, 35, 90, 165, 165, 90, 88, 161, 3, 2.32756
237, 6, bw, attraction, a-b-db, 5, 2, 1, 35, 90, 165, 165, 90, 88, 161, 1, 1.87272
237, 6, bw, attraction, a-b-db, 5, 1, 1, 36, 58, 132, 135, 60, 60, 135, 3, 1.84343
237, 6, bw, attraction, a-b-db, 5, 1, 1, 36, 58, 132, 135, 60, 60, 135, 2, 1.28022
237, 6, bw, catch, NA, 999, 999, 1, 37, 134, 61, 170, 145, 111, 144, 2, 1.07438
237, 6, bw, catch, NA, 999, 999, 1, 37, 134, 61, 170, 145, 111, 144, 1, 1.27002
237, 6, bw, attraction, a-b-db, 2, 2, 2, 1, 90, 165, 165, 90, 89, 163, 1, 1.82497
237, 6, bw, attraction, a-b-db, 2, 2, 2, 1, 90, 165, 165, 90, 89, 163, 3, 0.798305
237, 6, bw, attraction, a-b-da, 9, 1, 2, 2, 135, 60, 129, 57, 60, 135, 3, 2.05206
237, 6, bw, attraction, a-b-da, 9, 1, 2, 2, 135, 60, 129, 57, 60, 135, 1, 1.15271
237, 6, bw, catch, NA, 999, 999, 2, 3, 121, 74, 172, 143, 100, 155, 2, 0.632195
237, 6, bw, catch, NA, 999, 999, 2, 3, 121, 74, 172, 143, 100, 155, 1, 0.774009
237, 6, bw, attraction, a-b-da, 2, 3, 2, 4, 195, 120, 193, 119, 120, 195, 3, 1.66041
237, 6, bw, attraction, a-b-da, 2, 3, 2, 4, 195, 120, 193, 119, 120, 195, 1, 0.752546
237, 6, bw, attraction, a-b-da, 14, 2, 2, 5, 153, 83, 165, 90, 90, 165, 3, 1.73627
237, 6, bw, attraction, a-b-da, 14, 2, 2, 5, 153, 83, 165, 90, 90, 165, 1, 0.777647
237, 6, bw, catch, NA, 999, 999, 2, 6, 132, 123, 148, 167, 77, 118, 2, 0.592002
237, 6, bw, catch, NA, 999, 999, 2, 6, 132, 123, 148, 167, 77, 118, 3, 0.959128
237, 6, bw, attraction, a-b-da, 14, 3, 2, 7, 120, 195, 181, 111, 195, 120, 1, 1.82202
237, 6, bw, attraction, a-b-da, 14, 3, 2, 7, 120, 195, 181, 111, 195, 120, 2, 0.683506
237, 6, bw, catch, NA, 999, 999, 2, 8, 155, 160, 63, 132, 121, 134, 1, 0.821892
237, 6, bw, catch, NA, 999, 999, 2, 8, 155, 160, 63, 132, 121, 134, 2, 1.07568
237, 6, bw, filler, NA, 999, 999, 2, 9, 162, 70, 125, 141, 56, 113, 2, 0.573851
237, 6, bw, filler, NA, 999, 999, 2, 9, 162, 70, 125, 141, 56, 113, 3, 1.26982
237, 6, bw, attraction, a-b-db, 14, 2, 2, 10, 165, 90, 83, 153, 90, 165, 3, 1.10459
237, 6, bw, attraction, a-b-db, 14, 2, 2, 10, 165, 90, 83, 153, 90, 165, 1, 1.57088
237, 6, bw, filler, NA, 999, 999, 2, 11, 102, 162, 105, 169, 130, 188, 3, 0.937608
237, 6, bw, filler, NA, 999, 999, 2, 11, 102, 162, 105, 169, 130, 188, 1, 0.738643
237, 6, bw, attraction, a-b-db, 14, 1, 2, 12, 56, 125, 60, 135, 135, 60, 2, 1.50705
237, 6, bw, attraction, a-b-db, 14, 1, 2, 12, 56, 125, 60, 135, 135, 60, 3, 0.957214
237, 6, bw, attraction, a-b-db, 14, 3, 2, 13, 111, 181, 195, 120, 120, 195, 3, 1.62818
237, 6, bw, attraction, a-b-db, 14, 3, 2, 13, 111, 181, 195, 120, 120, 195, 1, 0.737626
237, 6, bw, filler, NA, 999, 999, 2, 14, 190, 193, 116, 141, 106, 158, 1, 0.657969
237, 6, bw, filler, NA, 999, 999, 2, 14, 190, 193, 116, 141, 106, 158, 2, 1.0624
237, 6, bw, attraction, a-b-da, 2, 2, 2, 15, 165, 90, 163, 89, 90, 165, 3, 1.0734
237, 6, bw, attraction, a-b-da, 2, 2, 2, 15, 165, 90, 163, 89, 90, 165, 2, 1.35705
237, 6, bw, attraction, a-b-db, 9, 1, 2, 16, 135, 60, 57, 129, 60, 135, 2, 3.28397
237, 6, bw, attraction, a-b-db, 9, 1, 2, 16, 135, 60, 57, 129, 60, 135, 1, 0.870777
237, 6, bw, filler, NA, 999, 999, 2, 17, 134, 184, 80, 132, 178, 139, 1, 0.881791
237, 6, bw, filler, NA, 999, 999, 2, 17, 134, 184, 80, 132, 178, 139, 2, 0.917469
237, 6, bw, filler, NA, 999, 999, 2, 18, 176, 180, 93, 77, 96, 150, 1, 0.726429
237, 6, bw, filler, NA, 999, 999, 2, 18, 176, 180, 93, 77, 96, 150, 2, 1.19225
237, 6, bw, filler, NA, 999, 999, 2, 19, 164, 156, 116, 95, 98, 98, 1, 1.08579
237, 6, bw, filler, NA, 999, 999, 2, 19, 164, 156, 116, 95, 98, 98, 3, 1.95349
237, 6, bw, attraction, a-b-db, 5, 2, 2, 20, 90, 165, 88, 161, 165, 90, 1, 3.50491
237, 6, bw, attraction, a-b-db, 5, 2, 2, 20, 90, 165, 88, 161, 165, 90, 2, 0.890327
237, 6, bw, filler, NA, 999, 999, 2, 21, 97, 74, 127, 190, 194, 146, 2, 0.996053
237, 6, bw, filler, NA, 999, 999, 2, 21, 97, 74, 127, 190, 194, 146, 1, 1.10694
237, 6, bw, attraction, a-b-db, 9, 2, 2, 22, 90, 165, 86, 157, 165, 90, 1, 1.94788
237, 6, bw, attraction, a-b-db, 9, 2, 2, 22, 90, 165, 86, 157, 165, 90, 2, 1.39661
237, 6, bw, filler, NA, 999, 999, 2, 23, 158, 122, 106, 67, 142, 142, 1, 1.43407
237, 6, bw, filler, NA, 999, 999, 2, 23, 158, 122, 106, 67, 142, 142, 2, 1.67166
237, 6, bw, attraction, a-b-da, 2, 1, 2, 24, 60, 135, 135, 60, 134, 59, 1, 3.99447
237, 6, bw, attraction, a-b-da, 2, 1, 2, 24, 60, 135, 135, 60, 134, 59, 2, 1.62449
237, 6, bw, attraction, a-b-db, 5, 3, 2, 25, 117, 190, 195, 120, 120, 195, 1, 1.45254
237, 6, bw, attraction, a-b-db, 5, 3, 2, 25, 117, 190, 195, 120, 120, 195, 2, 1.66556
237, 6, bw, attraction, a-b-db, 9, 3, 2, 26, 195, 120, 114, 186, 120, 195, 3, 2.51622
237, 6, bw, attraction, a-b-db, 9, 3, 2, 26, 195, 120, 114, 186, 120, 195, 1, 0.798052
237, 6, bw, attraction, a-b-da, 9, 2, 2, 27, 157, 86, 165, 90, 90, 165, 3, 2.48378
237, 6, bw, attraction, a-b-da, 9, 2, 2, 27, 157, 86, 165, 90, 90, 165, 1, 1.5509
237, 6, bw, attraction, a-b-da, 5, 3, 2, 28, 120, 195, 190, 117, 195, 120, 1, 3.82237
237, 6, bw, attraction, a-b-da, 5, 3, 2, 28, 120, 195, 190, 117, 195, 120, 2, 3.97115
237, 6, bw, attraction, a-b-da, 14, 1, 2, 29, 125, 56, 60, 135, 135, 60, 2, 5.50528
237, 6, bw, attraction, a-b-da, 14, 1, 2, 29, 125, 56, 60, 135, 135, 60, 1, 1.13086
237, 6, bw, attraction, a-b-db, 2, 3, 2, 30, 120, 195, 195, 120, 119, 193, 1, 2.8032
237, 6, bw, attraction, a-b-db, 2, 3, 2, 30, 120, 195, 195, 120, 119, 193, 2, 1.81751
237, 6, bw, attraction, a-b-db, 5, 1, 2, 31, 58, 132, 135, 60, 60, 135, 3, 3.35814
237, 6, bw, attraction, a-b-db, 5, 1, 2, 31, 58, 132, 135, 60, 60, 135, 1, 1.34172
237, 6, bw, attraction, a-b-da, 5, 1, 2, 32, 60, 135, 135, 60, 132, 58, 1, 0.877226
237, 6, bw, attraction, a-b-da, 5, 1, 2, 32, 60, 135, 135, 60, 132, 58, 2, 1.00896
237, 6, bw, filler, NA, 999, 999, 2, 33, 127, 169, 160, 85, 120, 92, 1, 0.814078
237, 6, bw, filler, NA, 999, 999, 2, 33, 127, 169, 160, 85, 120, 92, 2, 0.740501
237, 6, bw, filler, NA, 999, 999, 2, 34, 143, 162, 133, 173, 165, 97, 2, 2.41212
237, 6, bw, filler, NA, 999, 999, 2, 34, 143, 162, 133, 173, 165, 97, 3, 1.43395
237, 6, bw, attraction, a-b-db, 2, 1, 2, 35, 60, 135, 135, 60, 59, 134, 2, 1.08609
237, 6, bw, attraction, a-b-db, 2, 1, 2, 35, 60, 135, 135, 60, 59, 134, 1, 3.14575
237, 6, bw, attraction, a-b-da, 5, 2, 2, 36, 161, 88, 165, 90, 90, 165, 3, 2.75265
237, 6, bw, attraction, a-b-da, 5, 2, 2, 36, 161, 88, 165, 90, 90, 165, 1, 1.05711
237, 6, bw, attraction, a-b-da, 9, 3, 2, 37, 186, 114, 195, 120, 120, 195, 2, 3.02019
237, 6, bw, attraction, a-b-da, 9, 3, 2, 37, 186, 114, 195, 120, 120, 195, 1, 1.3298
237, 6, bw, attraction, a-b-db, 9, 2, 3, 1, 86, 157, 165, 90, 90, 165, 3, 3.48198
237, 6, bw, attraction, a-b-db, 9, 2, 3, 1, 86, 157, 165, 90, 90, 165, 1, 0.660895
237, 6, bw, filler, NA, 999, 999, 3, 2, 103, 78, 166, 80, 58, 178, 2, 0.799907
237, 6, bw, filler, NA, 999, 999, 3, 2, 103, 78, 166, 80, 58, 178, 1, 1.45498
237, 6, bw, filler, NA, 999, 999, 3, 3, 129, 87, 64, 168, 168, 185, 3, 0.970453
237, 6, bw, filler, NA, 999, 999, 3, 3, 129, 87, 64, 168, 168, 185, 2, 1.2902
237, 6, bw, attraction, a-b-da, 2, 2, 3, 4, 90, 165, 165, 90, 163, 89, 1, 1.80365
237, 6, bw, attraction, a-b-da, 2, 2, 3, 4, 90, 165, 165, 90, 163, 89, 2, 0.665744
237, 6, bw, attraction, a-b-db, 9, 1, 3, 5, 60, 135, 135, 60, 57, 129, 1, 2.98081
237, 6, bw, attraction, a-b-db, 9, 1, 3, 5, 60, 135, 135, 60, 57, 129, 2, 0.691888
237, 6, bw, attraction, a-b-da, 5, 2, 3, 6, 90, 165, 165, 90, 161, 88, 2, 1.38155
237, 6, bw, attraction, a-b-da, 5, 2, 3, 6, 90, 165, 165, 90, 161, 88, 1, 1.17314
237, 6, bw, attraction, a-b-db, 2, 1, 3, 7, 59, 134, 135, 60, 60, 135, 1, 2.39537
237, 6, bw, attraction, a-b-db, 2, 1, 3, 7, 59, 134, 135, 60, 60, 135, 2, 0.873921
237, 6, bw, attraction, a-b-db, 5, 3, 3, 8, 117, 190, 195, 120, 120, 195, 2, 0.94041
237, 6, bw, attraction, a-b-db, 5, 3, 3, 8, 117, 190, 195, 120, 120, 195, 3, 4.39733
237, 6, bw, attraction, a-b-da, 14, 2, 3, 9, 165, 90, 90, 165, 153, 83, 2, 3.99379
237, 6, bw, attraction, a-b-da, 14, 2, 3, 9, 165, 90, 90, 165, 153, 83, 3, 0.967899
237, 6, bw, catch, NA, 999, 999, 3, 10, 67, 128, 106, 149, 193, 122, 3, 1.76684
237, 6, bw, catch, NA, 999, 999, 3, 10, 67, 128, 106, 149, 193, 122, 1, 0.846894
237, 6, bw, attraction, a-b-da, 5, 3, 3, 11, 190, 117, 195, 120, 120, 195, 3, 2.54667
237, 6, bw, attraction, a-b-da, 5, 3, 3, 11, 190, 117, 195, 120, 120, 195, 1, 2.60314
237, 6, bw, filler, NA, 999, 999, 3, 12, 58, 76, 102, 146, 86, 64, 2, 1.19238
237, 6, bw, filler, NA, 999, 999, 3, 12, 58, 76, 102, 146, 86, 64, 1, 0.687216
237, 6, bw, filler, NA, 999, 999, 3, 13, 125, 172, 81, 170, 85, 157, 1, 1.84158
237, 6, bw, filler, NA, 999, 999, 3, 13, 125, 172, 81, 170, 85, 157, 2, 1.11829
237, 6, bw, attraction, a-b-da, 9, 1, 3, 14, 60, 135, 135, 60, 129, 57, 2, 2.87929
237, 6, bw, attraction, a-b-da, 9, 1, 3, 14, 60, 135, 135, 60, 129, 57, 1, 1.33037
237, 6, bw, attraction, a-b-db, 5, 1, 3, 15, 58, 132, 60, 135, 135, 60, 2, 2.31451
237, 6, bw, attraction, a-b-db, 5, 1, 3, 15, 58, 132, 60, 135, 135, 60, 1, 0.972403
237, 6, bw, filler, NA, 999, 999, 3, 16, 110, 111, 118, 96, 59, 146, 1, 2.38748
237, 6, bw, filler, NA, 999, 999, 3, 16, 110, 111, 118, 96, 59, 146, 3, 1.018
237, 6, bw, attraction, a-b-da, 2, 1, 3, 17, 135, 60, 60, 135, 134, 59, 2, 1.92693
237, 6, bw, attraction, a-b-da, 2, 1, 3, 17, 135, 60, 60, 135, 134, 59, 1, 1.15225
237, 6, bw, catch, NA, 999, 999, 3, 18, 84, 111, 150, 105, 130, 185, 3, 3.71989
237, 6, bw, catch, NA, 999, 999, 3, 18, 84, 111, 150, 105, 130, 185, 1, 0.905467
237, 6, bw, attraction, a-b-da, 14, 3, 3, 19, 181, 111, 195, 120, 120, 195, 2, 1.05099
237, 6, bw, attraction, a-b-da, 14, 3, 3, 19, 181, 111, 195, 120, 120, 195, 1, 1.19996
237, 6, bw, filler, NA, 999, 999, 3, 20, 93, 193, 129, 142, 87, 189, 2, 2.90161
237, 6, bw, filler, NA, 999, 999, 3, 20, 93, 193, 129, 142, 87, 189, 3, 0.975945
237, 6, bw, attraction, a-b-da, 9, 2, 3, 21, 90, 165, 157, 86, 165, 90, 3, 1.75028
237, 6, bw, attraction, a-b-da, 9, 2, 3, 21, 90, 165, 157, 86, 165, 90, 2, 0.702987
237, 6, bw, attraction, a-b-db, 14, 2, 3, 22, 83, 153, 165, 90, 90, 165, 3, 3.12077
237, 6, bw, attraction, a-b-db, 14, 2, 3, 22, 83, 153, 165, 90, 90, 165, 1, 0.922359
237, 6, bw, attraction, a-b-da, 2, 3, 3, 23, 195, 120, 193, 119, 120, 195, 2, 1.89947
237, 6, bw, attraction, a-b-da, 2, 3, 3, 23, 195, 120, 193, 119, 120, 195, 1, 2.73409
237, 6, bw, attraction, a-b-db, 9, 3, 3, 24, 195, 120, 120, 195, 114, 186, 2, 1.50188
237, 6, bw, attraction, a-b-db, 9, 3, 3, 24, 195, 120, 120, 195, 114, 186, 1, 0.840765
237, 6, bw, filler, NA, 999, 999, 3, 25, 81, 110, 80, 170, 99, 138, 2, 0.764366
237, 6, bw, filler, NA, 999, 999, 3, 25, 81, 110, 80, 170, 99, 138, 1, 0.788835
237, 6, bw, filler, NA, 999, 999, 3, 26, 132, 103, 95, 81, 91, 87, 1, 0.931155
237, 6, bw, filler, NA, 999, 999, 3, 26, 132, 103, 95, 81, 91, 87, 2, 1.44484
237, 6, bw, attraction, a-b-db, 2, 3, 3, 27, 195, 120, 119, 193, 120, 195, 1, 0.776328
237, 6, bw, attraction, a-b-db, 2, 3, 3, 27, 195, 120, 119, 193, 120, 195, 3, 2.96807
237, 6, bw, attraction, a-b-da, 9, 3, 3, 28, 186, 114, 195, 120, 120, 195, 3, 1.27046
237, 6, bw, attraction, a-b-da, 9, 3, 3, 28, 186, 114, 195, 120, 120, 195, 1, 0.86595
237, 6, bw, filler, NA, 999, 999, 3, 29, 120, 86, 94, 64, 118, 194, 3, 1.60498
237, 6, bw, filler, NA, 999, 999, 3, 29, 120, 86, 94, 64, 118, 194, 2, 0.899136
237, 6, bw, catch, NA, 999, 999, 3, 30, 116, 79, 157, 158, 113, 142, 2, 0.892686
237, 6, bw, catch, NA, 999, 999, 3, 30, 116, 79, 157, 158, 113, 142, 1, 0.583814
237, 6, bw, attraction, a-b-db, 14, 3, 3, 31, 195, 120, 120, 195, 111, 181, 2, 2.3182
237, 6, bw, attraction, a-b-db, 14, 3, 3, 31, 195, 120, 120, 195, 111, 181, 3, 0.70427
237, 6, bw, filler, NA, 999, 999, 3, 32, 56, 78, 63, 102, 66, 119, 2, 1.27391
237, 6, bw, filler, NA, 999, 999, 3, 32, 56, 78, 63, 102, 66, 119, 1, 0.6855
237, 6, bw, attraction, a-b-db, 14, 1, 3, 33, 60, 135, 135, 60, 56, 125, 1, 1.89583
237, 6, bw, attraction, a-b-db, 14, 1, 3, 33, 60, 135, 135, 60, 56, 125, 2, 1.31447
237, 6, bw, attraction, a-b-da, 5, 1, 3, 34, 135, 60, 132, 58, 60, 135, 1, 1.11535
237, 6, bw, attraction, a-b-da, 5, 1, 3, 34, 135, 60, 132, 58, 60, 135, 3, 1.01366
237, 6, bw, attraction, a-b-da, 14, 1, 3, 35, 135, 60, 60, 135, 125, 56, 2, 1.00263
237, 6, bw, attraction, a-b-da, 14, 1, 3, 35, 135, 60, 60, 135, 125, 56, 1, 0.865762
237, 6, bw, attraction, a-b-db, 5, 2, 3, 36, 165, 90, 88, 161, 90, 165, 3, 1.59666
237, 6, bw, attraction, a-b-db, 5, 2, 3, 36, 165, 90, 88, 161, 90, 165, 2, 1.36345
237, 6, bw, attraction, a-b-db, 2, 2, 3, 37, 89, 163, 165, 90, 90, 165, 3, 6.02638
237, 6, bw, attraction, a-b-db, 2, 2, 3, 37, 89, 163, 165, 90, 90, 165, 2, 0.77443
237, 6, bw, attraction, a-b-da, 14, 1, 4, 1, 135, 60, 60, 135, 125, 56, 2, 1.82072
237, 6, bw, attraction, a-b-da, 14, 1, 4, 1, 135, 60, 60, 135, 125, 56, 1, 0.522146
237, 6, bw, attraction, a-b-da, 9, 2, 4, 2, 157, 86, 165, 90, 90, 165, 3, 3.46735
237, 6, bw, attraction, a-b-da, 9, 2, 4, 2, 157, 86, 165, 90, 90, 165, 1, 0.566848
237, 6, bw, attraction, a-b-da, 2, 1, 4, 3, 135, 60, 60, 135, 134, 59, 2, 0.790014
237, 6, bw, attraction, a-b-da, 2, 1, 4, 3, 135, 60, 60, 135, 134, 59, 1, 0.525017
237, 6, bw, attraction, a-b-da, 5, 1, 4, 4, 60, 135, 132, 58, 135, 60, 3, 1.66945
237, 6, bw, attraction, a-b-da, 5, 1, 4, 4, 60, 135, 132, 58, 135, 60, 2, 0.673567
237, 6, bw, attraction, a-b-db, 2, 1, 4, 5, 135, 60, 59, 134, 60, 135, 1, 2.01994
237, 6, bw, attraction, a-b-db, 2, 1, 4, 5, 135, 60, 59, 134, 60, 135, 2, 0.761289
237, 6, bw, filler, NA, 999, 999, 4, 6, 144, 182, 69, 125, 78, 171, 1, 0.632299
237, 6, bw, filler, NA, 999, 999, 4, 6, 144, 182, 69, 125, 78, 171, 2, 0.574057
237, 6, bw, filler, NA, 999, 999, 4, 7, 76, 105, 143, 167, 158, 140, 2, 0.868624
237, 6, bw, filler, NA, 999, 999, 4, 7, 76, 105, 143, 167, 158, 140, 1, 0.880927
237, 6, bw, attraction, a-b-da, 5, 3, 4, 8, 120, 195, 190, 117, 195, 120, 3, 3.85929
237, 6, bw, attraction, a-b-da, 5, 3, 4, 8, 120, 195, 190, 117, 195, 120, 2, 1.47862
237, 6, bw, filler, NA, 999, 999, 4, 9, 165, 151, 77, 157, 131, 181, 1, 0.816755
237, 6, bw, filler, NA, 999, 999, 4, 9, 165, 151, 77, 157, 131, 181, 2, 0.823381
237, 6, bw, attraction, a-b-db, 9, 1, 4, 10, 60, 135, 135, 60, 57, 129, 1, 0.803513
237, 6, bw, attraction, a-b-db, 9, 1, 4, 10, 60, 135, 135, 60, 57, 129, 2, 0.705902
237, 6, bw, catch, NA, 999, 999, 4, 11, 71, 124, 102, 153, 178, 137, 3, 1.13172
237, 6, bw, catch, NA, 999, 999, 4, 11, 71, 124, 102, 153, 178, 137, 1, 0.78924
237, 6, bw, attraction, a-b-da, 5, 2, 4, 12, 165, 90, 161, 88, 90, 165, 3, 2.04362
237, 6, bw, attraction, a-b-da, 5, 2, 4, 12, 165, 90, 161, 88, 90, 165, 1, 0.976343
237, 6, bw, attraction, a-b-da, 14, 2, 4, 13, 153, 83, 90, 165, 165, 90, 2, 0.950639
237, 6, bw, attraction, a-b-da, 14, 2, 4, 13, 153, 83, 90, 165, 165, 90, 1, 0.975554
237, 6, bw, catch, NA, 999, 999, 4, 14, 89, 106, 162, 153, 127, 128, 2, 0.765932
237, 6, bw, catch, NA, 999, 999, 4, 14, 89, 106, 162, 153, 127, 128, 1, 0.886392
237, 6, bw, attraction, a-b-da, 9, 3, 4, 15, 186, 114, 195, 120, 120, 195, 3, 2.3847
237, 6, bw, attraction, a-b-da, 9, 3, 4, 15, 186, 114, 195, 120, 120, 195, 1, 1.16787
237, 6, bw, catch, NA, 999, 999, 4, 16, 170, 145, 132, 63, 155, 100, 1, 2.11077
237, 6, bw, catch, NA, 999, 999, 4, 16, 170, 145, 132, 63, 155, 100, 2, 0.688751
237, 6, bw, attraction, a-b-db, 5, 2, 4, 17, 88, 161, 90, 165, 165, 90, 2, 1.0352
237, 6, bw, attraction, a-b-db, 5, 2, 4, 17, 88, 161, 90, 165, 165, 90, 1, 0.912839
237, 6, bw, filler, NA, 999, 999, 4, 18, 86, 192, 90, 169, 57, 80, 1, 1.33777
237, 6, bw, filler, NA, 999, 999, 4, 18, 86, 192, 90, 169, 57, 80, 3, 1.24263
237, 6, bw, filler, NA, 999, 999, 4, 19, 84, 120, 150, 172, 79, 184, 2, 0.614221
237, 6, bw, filler, NA, 999, 999, 4, 19, 84, 120, 150, 172, 79, 184, 1, 0.828648
237, 6, bw, attraction, a-b-db, 2, 3, 4, 20, 119, 193, 195, 120, 120, 195, 2, 0.889093
237, 6, bw, attraction, a-b-db, 2, 3, 4, 20, 119, 193, 195, 120, 120, 195, 1, 1.18028
237, 6, bw, filler, NA, 999, 999, 4, 21, 60, 99, 155, 62, 181, 174, 3, 0.802318
237, 6, bw, filler, NA, 999, 999, 4, 21, 60, 99, 155, 62, 181, 174, 1, 0.825303
237, 6, bw, attraction, a-b-db, 14, 3, 4, 22, 120, 195, 195, 120, 111, 181, 2, 0.621724
237, 6, bw, attraction, a-b-db, 14, 3, 4, 22, 120, 195, 195, 120, 111, 181, 3, 0.835549
237, 6, bw, attraction, a-b-db, 9, 3, 4, 23, 195, 120, 120, 195, 114, 186, 2, 1.44788
237, 6, bw, attraction, a-b-db, 9, 3, 4, 23, 195, 120, 120, 195, 114, 186, 1, 0.628739
237, 6, bw, attraction, a-b-da, 14, 3, 4, 24, 195, 120, 181, 111, 120, 195, 3, 1.40913
237, 6, bw, attraction, a-b-da, 14, 3, 4, 24, 195, 120, 181, 111, 120, 195, 2, 0.599275
237, 6, bw, attraction, a-b-db, 9, 2, 4, 25, 165, 90, 86, 157, 90, 165, 3, 2.42912
237, 6, bw, attraction, a-b-db, 9, 2, 4, 25, 165, 90, 86, 157, 90, 165, 1, 1.06625
237, 6, bw, attraction, a-b-da, 2, 2, 4, 26, 165, 90, 90, 165, 163, 89, 2, 1.20519
237, 6, bw, attraction, a-b-da, 2, 2, 4, 26, 165, 90, 90, 165, 163, 89, 3, 1.59563
237, 6, bw, attraction, a-b-db, 2, 2, 4, 27, 165, 90, 89, 163, 90, 165, 3, 3.50495
237, 6, bw, attraction, a-b-db, 2, 2, 4, 27, 165, 90, 89, 163, 90, 165, 1, 0.98646
237, 6, bw, filler, NA, 999, 999, 4, 28, 163, 64, 95, 77, 121, 136, 3, 1.50476
237, 6, bw, filler, NA, 999, 999, 4, 28, 163, 64, 95, 77, 121, 136, 1, 0.850925
237, 6, bw, attraction, a-b-db, 14, 1, 4, 29, 56, 125, 135, 60, 60, 135, 2, 3.21464
237, 6, bw, attraction, a-b-db, 14, 1, 4, 29, 56, 125, 135, 60, 60, 135, 1, 1.79631
237, 6, bw, filler, NA, 999, 999, 4, 30, 165, 191, 153, 113, 183, 90, 1, 0.817562
237, 6, bw, filler, NA, 999, 999, 4, 30, 165, 191, 153, 113, 183, 90, 3, 0.687971
237, 6, bw, attraction, a-b-db, 14, 2, 4, 31, 83, 153, 90, 165, 165, 90, 2, 1.94634
237, 6, bw, attraction, a-b-db, 14, 2, 4, 31, 83, 153, 90, 165, 165, 90, 1, 2.6831
237, 6, bw, filler, NA, 999, 999, 4, 32, 183, 109, 72, 120, 72, 193, 1, 0.732944
237, 6, bw, filler, NA, 999, 999, 4, 32, 183, 109, 72, 120, 72, 193, 2, 0.758626
237, 6, bw, attraction, a-b-db, 5, 1, 4, 33, 60, 135, 135, 60, 58, 132, 2, 2.02174
237, 6, bw, attraction, a-b-db, 5, 1, 4, 33, 60, 135, 135, 60, 58, 132, 3, 1.15503
237, 6, bw, attraction, a-b-da, 2, 3, 4, 34, 193, 119, 195, 120, 120, 195, 3, 1.78675
237, 6, bw, attraction, a-b-da, 2, 3, 4, 34, 193, 119, 195, 120, 120, 195, 1, 0.802009
237, 6, bw, filler, NA, 999, 999, 4, 35, 116, 105, 125, 75, 113, 137, 3, 0.967738
237, 6, bw, filler, NA, 999, 999, 4, 35, 116, 105, 125, 75, 113, 137, 2, 1.56813
237, 6, bw, attraction, a-b-db, 5, 3, 4, 36, 117, 190, 195, 120, 120, 195, 3, 3.75894
237, 6, bw, attraction, a-b-db, 5, 3, 4, 36, 117, 190, 195, 120, 120, 195, 1, 0.934312
237, 6, bw, attraction, a-b-da, 9, 1, 4, 37, 129, 57, 60, 135, 135, 60, 2, 4.09462
237, 6, bw, attraction, a-b-da, 9, 1, 4, 37, 129, 57, 60, 135, 135, 60, 1, 0.808652
237, 6, bw, attraction, a-b-da, 14, 3, 5, 1, 195, 120, 120, 195, 181, 111, 1, 2.44432
237, 6, bw, attraction, a-b-da, 14, 3, 5, 1, 195, 120, 120, 195, 181, 111, 3, 1.63291
237, 6, bw, attraction, a-b-db, 9, 1, 5, 2, 135, 60, 57, 129, 60, 135, 3, 2.54095
237, 6, bw, attraction, a-b-db, 9, 1, 5, 2, 135, 60, 57, 129, 60, 135, 2, 0.941448
237, 6, bw, catch, NA, 999, 999, 5, 3, 139, 116, 144, 171, 115, 80, 2, 0.636992
237, 6, bw, catch, NA, 999, 999, 5, 3, 139, 116, 144, 171, 115, 80, 3, 1.02629
237, 6, bw, attraction, a-b-db, 14, 3, 5, 4, 120, 195, 111, 181, 195, 120, 1, 2.50254
237, 6, bw, attraction, a-b-db, 14, 3, 5, 4, 120, 195, 111, 181, 195, 120, 2, 1.24898
237, 6, bw, filler, NA, 999, 999, 5, 5, 158, 95, 71, 83, 154, 79, 1, 0.948506
237, 6, bw, filler, NA, 999, 999, 5, 5, 158, 95, 71, 83, 154, 79, 2, 0.581531
237, 6, bw, catch, NA, 999, 999, 5, 6, 72, 123, 110, 145, 156, 159, 3, 0.755995
237, 6, bw, catch, NA, 999, 999, 5, 6, 72, 123, 110, 145, 156, 159, 1, 0.716435
237, 6, bw, filler, NA, 999, 999, 5, 7, 73, 80, 168, 191, 132, 84, 2, 0.581559
237, 6, bw, filler, NA, 999, 999, 5, 7, 73, 80, 168, 191, 132, 84, 1, 0.757225
237, 6, bw, attraction, a-b-db, 2, 1, 5, 8, 60, 135, 59, 134, 135, 60, 3, 2.2123
237, 6, bw, attraction, a-b-db, 2, 1, 5, 8, 60, 135, 59, 134, 135, 60, 2, 0.762229
237, 6, bw, attraction, a-b-da, 5, 1, 5, 9, 132, 58, 60, 135, 135, 60, 2, 1.0732
237, 6, bw, attraction, a-b-da, 5, 1, 5, 9, 132, 58, 60, 135, 135, 60, 1, 0.588842
237, 6, bw, filler, NA, 999, 999, 5, 10, 104, 113, 63, 90, 60, 141, 1, 1.3633
237, 6, bw, filler, NA, 999, 999, 5, 10, 104, 113, 63, 90, 60, 141, 2, 0.603513
237, 6, bw, attraction, a-b-da, 14, 2, 5, 11, 165, 90, 90, 165, 153, 83, 2, 0.689308
237, 6, bw, attraction, a-b-da, 14, 2, 5, 11, 165, 90, 90, 165, 153, 83, 1, 0.572352
237, 6, bw, filler, NA, 999, 999, 5, 12, 178, 108, 70, 183, 86, 181, 1, 0.819396
237, 6, bw, filler, NA, 999, 999, 5, 12, 178, 108, 70, 183, 86, 181, 2, 0.994038
237, 6, bw, filler, NA, 999, 999, 5, 13, 164, 78, 181, 136, 159, 86, 2, 0.695775
237, 6, bw, filler, NA, 999, 999, 5, 13, 164, 78, 181, 136, 159, 86, 1, 0.514524
237, 6, bw, filler, NA, 999, 999, 5, 14, 145, 105, 141, 171, 157, 150, 2, 0.435796
237, 6, bw, filler, NA, 999, 999, 5, 14, 145, 105, 141, 171, 157, 150, 1, 0.585531
237, 6, bw, attraction, a-b-db, 2, 2, 5, 15, 89, 163, 90, 165, 165, 90, 2, 0.687879
237, 6, bw, attraction, a-b-db, 2, 2, 5, 15, 89, 163, 90, 165, 165, 90, 1, 1.01899
237, 6, bw, attraction, a-b-da, 2, 2, 5, 16, 165, 90, 90, 165, 163, 89, 2, 1.81606
237, 6, bw, attraction, a-b-da, 2, 2, 5, 16, 165, 90, 90, 165, 163, 89, 1, 1.15805
237, 6, bw, attraction, a-b-db, 14, 2, 5, 17, 83, 153, 90, 165, 165, 90, 2, 1.96506
237, 6, bw, attraction, a-b-db, 14, 2, 5, 17, 83, 153, 90, 165, 165, 90, 1, 0.916934
237, 6, bw, attraction, a-b-da, 9, 2, 5, 18, 90, 165, 165, 90, 157, 86, 2, 0.718066
237, 6, bw, attraction, a-b-da, 9, 2, 5, 18, 90, 165, 165, 90, 157, 86, 1, 0.920421
237, 6, bw, attraction, a-b-db, 5, 2, 5, 19, 90, 165, 88, 161, 165, 90, 2, 0.56941
237, 6, bw, attraction, a-b-db, 5, 2, 5, 19, 90, 165, 88, 161, 165, 90, 1, 0.625194
237, 6, bw, attraction, a-b-da, 2, 1, 5, 20, 134, 59, 135, 60, 60, 135, 2, 2.53364
237, 6, bw, attraction, a-b-da, 2, 1, 5, 20, 134, 59, 135, 60, 60, 135, 1, 0.71877
237, 6, bw, filler, NA, 999, 999, 5, 21, 100, 95, 127, 157, 141, 160, 3, 1.41595
237, 6, bw, filler, NA, 999, 999, 5, 21, 100, 95, 127, 157, 141, 160, 1, 0.989987
237, 6, bw, filler, NA, 999, 999, 5, 22, 65, 179, 72, 114, 179, 136, 3, 0.715639
237, 6, bw, filler, NA, 999, 999, 5, 22, 65, 179, 72, 114, 179, 136, 1, 0.614017
237, 6, bw, attraction, a-b-da, 9, 1, 5, 23, 129, 57, 60, 135, 135, 60, 2, 1.18716
237, 6, bw, attraction, a-b-da, 9, 1, 5, 23, 129, 57, 60, 135, 135, 60, 1, 0.906106
237, 6, bw, attraction, a-b-da, 5, 2, 5, 24, 165, 90, 161, 88, 90, 165, 3, 0.995199
237, 6, bw, attraction, a-b-da, 5, 2, 5, 24, 165, 90, 161, 88, 90, 165, 1, 0.970184
237, 6, bw, attraction, a-b-da, 9, 3, 5, 25, 186, 114, 195, 120, 120, 195, 2, 0.497132
237, 6, bw, attraction, a-b-da, 9, 3, 5, 25, 186, 114, 195, 120, 120, 195, 1, 1.87626
237, 6, bw, attraction, a-b-db, 2, 3, 5, 26, 195, 120, 119, 193, 120, 195, 3, 2.27827
237, 6, bw, attraction, a-b-db, 2, 3, 5, 26, 195, 120, 119, 193, 120, 195, 2, 0.585482
237, 6, bw, attraction, a-b-da, 14, 1, 5, 27, 60, 135, 125, 56, 135, 60, 2, 2.19992
237, 6, bw, attraction, a-b-da, 14, 1, 5, 27, 60, 135, 125, 56, 135, 60, 1, 0.638518
237, 6, bw, attraction, a-b-db, 14, 1, 5, 28, 135, 60, 56, 125, 60, 135, 2, 1.69099
237, 6, bw, attraction, a-b-db, 14, 1, 5, 28, 135, 60, 56, 125, 60, 135, 1, 0.677805
237, 6, bw, attraction, a-b-db, 9, 2, 5, 29, 165, 90, 86, 157, 90, 165, 3, 2.80816
237, 6, bw, attraction, a-b-db, 9, 2, 5, 29, 165, 90, 86, 157, 90, 165, 1, 1.3658
237, 6, bw, attraction, a-b-da, 5, 3, 5, 30, 190, 117, 120, 195, 195, 120, 2, 0.556803
237, 6, bw, attraction, a-b-da, 5, 3, 5, 30, 190, 117, 120, 195, 195, 120, 1, 0.613262
237, 6, bw, filler, NA, 999, 999, 5, 31, 127, 92, 111, 83, 129, 131, 3, 1.58638
237, 6, bw, filler, NA, 999, 999, 5, 31, 127, 92, 111, 83, 129, 131, 2, 0.529713
237, 6, bw, attraction, a-b-db, 5, 3, 5, 32, 195, 120, 120, 195, 117, 190, 2, 0.634212
237, 6, bw, attraction, a-b-db, 5, 3, 5, 32, 195, 120, 120, 195, 117, 190, 3, 1.28806
237, 6, bw, attraction, a-b-db, 9, 3, 5, 33, 195, 120, 120, 195, 114, 186, 2, 0.786182
237, 6, bw, attraction, a-b-db, 9, 3, 5, 33, 195, 120, 120, 195, 114, 186, 3, 0.745944
237, 6, bw, attraction, a-b-db, 5, 1, 5, 34, 135, 60, 58, 132, 60, 135, 1, 2.23381
237, 6, bw, attraction, a-b-db, 5, 1, 5, 34, 135, 60, 58, 132, 60, 135, 2, 0.830831
237, 6, bw, filler, NA, 999, 999, 5, 35, 98, 102, 102, 85, 155, 80, 3, 2.55534
237, 6, bw, filler, NA, 999, 999, 5, 35, 98, 102, 102, 85, 155, 80, 2, 0.715163
237, 6, bw, attraction, a-b-da, 2, 3, 5, 36, 195, 120, 120, 195, 193, 119, 3, 2.97228
237, 6, bw, attraction, a-b-da, 2, 3, 5, 36, 195, 120, 120, 195, 193, 119, 1, 0.771188
237, 6, bw, catch, NA, 999, 999, 5, 37, 161, 94, 161, 154, 135, 60, 2, 0.498177
237, 6, bw, catch, NA, 999, 999, 5, 37, 161, 94, 161, 154, 135, 60, 3, 0.685376
237, 6, bw, filler, NA, 999, 999, 6, 1, 69, 80, 60, 125, 64, 123, 3, 1.7597
237, 6, bw, filler, NA, 999, 999, 6, 1, 69, 80, 60, 125, 64, 123, 1, 0.815831
237, 6, bw, attraction, a-b-da, 5, 3, 6, 2, 120, 195, 195, 120, 190, 117, 1, 5.17288
237, 6, bw, attraction, a-b-da, 5, 3, 6, 2, 120, 195, 195, 120, 190, 117, 3, 0.931347
237, 6, bw, attraction, a-b-db, 5, 2, 6, 3, 90, 165, 88, 161, 165, 90, 2, 0.763509
237, 6, bw, attraction, a-b-db, 5, 2, 6, 3, 90, 165, 88, 161, 165, 90, 1, 0.563952
237, 6, bw, filler, NA, 999, 999, 6, 4, 93, 114, 129, 148, 193, 142, 2, 0.547013
237, 6, bw, filler, NA, 999, 999, 6, 4, 93, 114, 129, 148, 193, 142, 1, 0.52418
237, 6, bw, attraction, a-b-db, 14, 3, 6, 5, 111, 181, 120, 195, 195, 120, 2, 0.476598
237, 6, bw, attraction, a-b-db, 14, 3, 6, 5, 111, 181, 120, 195, 195, 120, 1, 0.544411
237, 6, bw, attraction, a-b-da, 2, 2, 6, 6, 163, 89, 90, 165, 165, 90, 2, 0.608176
237, 6, bw, attraction, a-b-da, 2, 2, 6, 6, 163, 89, 90, 165, 165, 90, 1, 0.790677
237, 6, bw, attraction, a-b-db, 9, 2, 6, 7, 86, 157, 90, 165, 165, 90, 2, 0.452381
237, 6, bw, attraction, a-b-db, 9, 2, 6, 7, 86, 157, 90, 165, 165, 90, 1, 0.68946
237, 6, bw, attraction, a-b-da, 14, 1, 6, 8, 60, 135, 135, 60, 125, 56, 2, 0.859214
237, 6, bw, attraction, a-b-da, 14, 1, 6, 8, 60, 135, 135, 60, 125, 56, 1, 0.687598
237, 6, bw, attraction, a-b-db, 5, 3, 6, 9, 195, 120, 117, 190, 120, 195, 2, 0.529967
237, 6, bw, attraction, a-b-db, 5, 3, 6, 9, 195, 120, 117, 190, 120, 195, 1, 3.10785
237, 6, bw, attraction, a-b-da, 14, 3, 6, 10, 181, 111, 195, 120, 120, 195, 3, 1.8761
237, 6, bw, attraction, a-b-da, 14, 3, 6, 10, 181, 111, 195, 120, 120, 195, 1, 0.807547
237, 6, bw, attraction, a-b-da, 2, 1, 6, 11, 134, 59, 60, 135, 135, 60, 1, 1.65264
237, 6, bw, attraction, a-b-da, 2, 1, 6, 11, 134, 59, 60, 135, 135, 60, 2, 0.769444
237, 6, bw, filler, NA, 999, 999, 6, 12, 114, 62, 155, 176, 142, 76, 2, 1.64035
237, 6, bw, filler, NA, 999, 999, 6, 12, 114, 62, 155, 176, 142, 76, 1, 0.773284
237, 6, bw, filler, NA, 999, 999, 6, 13, 158, 109, 106, 66, 92, 133, 1, 1.14743
237, 6, bw, filler, NA, 999, 999, 6, 13, 158, 109, 106, 66, 92, 133, 2, 0.740467
237, 6, bw, filler, NA, 999, 999, 6, 14, 190, 162, 182, 126, 191, 130, 2, 6.80423
237, 6, bw, filler, NA, 999, 999, 6, 14, 190, 162, 182, 126, 191, 130, 3, 1.30534
237, 6, bw, attraction, a-b-da, 5, 2, 6, 15, 161, 88, 165, 90, 90, 165, 3, 5.6988
237, 6, bw, attraction, a-b-da, 5, 2, 6, 15, 161, 88, 165, 90, 90, 165, 1, 0.492359
237, 6, bw, filler, NA, 999, 999, 6, 16, 146, 176, 61, 141, 65, 137, 1, 1.02211
237, 6, bw, filler, NA, 999, 999, 6, 16, 146, 176, 61, 141, 65, 137, 2, 0.971911
237, 6, bw, attraction, a-b-db, 14, 2, 6, 17, 90, 165, 165, 90, 83, 153, 3, 2.63486
237, 6, bw, attraction, a-b-db, 14, 2, 6, 17, 90, 165, 165, 90, 83, 153, 2, 1.52797
237, 6, bw, catch, NA, 999, 999, 6, 18, 70, 125, 166, 149, 155, 100, 2, 0.624035
237, 6, bw, catch, NA, 999, 999, 6, 18, 70, 125, 166, 149, 155, 100, 1, 0.66985
237, 6, bw, attraction, a-b-db, 14, 1, 6, 19, 56, 125, 60, 135, 135, 60, 2, 1.73705
237, 6, bw, attraction, a-b-db, 14, 1, 6, 19, 56, 125, 60, 135, 135, 60, 1, 0.49836
237, 6, bw, attraction, a-b-db, 9, 3, 6, 20, 195, 120, 120, 195, 114, 186, 1, 1.18818
237, 6, bw, attraction, a-b-db, 9, 3, 6, 20, 195, 120, 120, 195, 114, 186, 2, 0.779128
237, 6, bw, attraction, a-b-da, 9, 2, 6, 21, 90, 165, 165, 90, 157, 86, 1, 1.52141
237, 6, bw, attraction, a-b-da, 9, 2, 6, 21, 90, 165, 165, 90, 157, 86, 2, 0.706956
237, 6, bw, filler, NA, 999, 999, 6, 22, 66, 182, 101, 69, 115, 115, 3, 3.45209
237, 6, bw, filler, NA, 999, 999, 6, 22, 66, 182, 101, 69, 115, 115, 1, 1.06422
237, 6, bw, attraction, a-b-da, 2, 3, 6, 23, 120, 195, 193, 119, 195, 120, 1, 1.33911
237, 6, bw, attraction, a-b-da, 2, 3, 6, 23, 120, 195, 193, 119, 195, 120, 2, 0.636146
237, 6, bw, attraction, a-b-db, 2, 1, 6, 24, 60, 135, 59, 134, 135, 60, 3, 3.79244
237, 6, bw, attraction, a-b-db, 2, 1, 6, 24, 60, 135, 59, 134, 135, 60, 2, 1.12666
237, 6, bw, attraction, a-b-db, 9, 1, 6, 25, 57, 129, 60, 135, 135, 60, 2, 5.25489
237, 6, bw, attraction, a-b-db, 9, 1, 6, 25, 57, 129, 60, 135, 135, 60, 3, 0.657878
237, 6, bw, filler, NA, 999, 999, 6, 26, 167, 195, 124, 87, 121, 186, 1, 1.58094
237, 6, bw, filler, NA, 999, 999, 6, 26, 167, 195, 124, 87, 121, 186, 2, 0.580365
237, 6, bw, catch, NA, 999, 999, 6, 27, 145, 170, 99, 96, 159, 96, 1, 0.922754
237, 6, bw, catch, NA, 999, 999, 6, 27, 145, 170, 99, 96, 159, 96, 2, 1.10853
237, 6, bw, attraction, a-b-da, 14, 2, 6, 28, 153, 83, 165, 90, 90, 165, 3, 2.70149
237, 6, bw, attraction, a-b-da, 14, 2, 6, 28, 153, 83, 165, 90, 90, 165, 1, 0.831899
237, 6, bw, attraction, a-b-da, 9, 1, 6, 29, 135, 60, 129, 57, 60, 135, 2, 1.26825
237, 6, bw, attraction, a-b-da, 9, 1, 6, 29, 135, 60, 129, 57, 60, 135, 1, 0.688514
237, 6, bw, filler, NA, 999, 999, 6, 30, 105, 94, 114, 97, 98, 113, 2, 0.882887
237, 6, bw, filler, NA, 999, 999, 6, 30, 105, 94, 114, 97, 98, 113, 1, 0.822718
237, 6, bw, attraction, a-b-db, 2, 3, 6, 31, 195, 120, 119, 193, 120, 195, 3, 1.99559
237, 6, bw, attraction, a-b-db, 2, 3, 6, 31, 195, 120, 119, 193, 120, 195, 1, 1.15431
237, 6, bw, attraction, a-b-da, 5, 1, 6, 32, 135, 60, 132, 58, 60, 135, 2, 2.47399
237, 6, bw, attraction, a-b-da, 5, 1, 6, 32, 135, 60, 132, 58, 60, 135, 1, 0.71707
237, 6, bw, attraction, a-b-db, 2, 2, 6, 33, 89, 163, 165, 90, 90, 165, 2, 0.934028
237, 6, bw, attraction, a-b-db, 2, 2, 6, 33, 89, 163, 165, 90, 90, 165, 1, 0.775834
237, 6, bw, filler, NA, 999, 999, 6, 34, 189, 100, 175, 195, 116, 99, 2, 0.478138
237, 6, bw, filler, NA, 999, 999, 6, 34, 189, 100, 175, 195, 116, 99, 3, 2.23403
237, 6, bw, catch, NA, 999, 999, 6, 35, 63, 132, 121, 194, 97, 158, 2, 0.773983
237, 6, bw, catch, NA, 999, 999, 6, 35, 63, 132, 121, 194, 97, 158, 1, 0.717685
237, 6, bw, attraction, a-b-da, 9, 3, 6, 36, 120, 195, 195, 120, 186, 114, 2, 0.886719
237, 6, bw, attraction, a-b-da, 9, 3, 6, 36, 120, 195, 195, 120, 186, 114, 1, 0.698371
237, 6, bw, attraction, a-b-db, 5, 1, 6, 37, 60, 135, 58, 132, 135, 60, 1, 4.72418
237, 6, bw, attraction, a-b-db, 5, 1, 6, 37, 60, 135, 58, 132, 135, 60, 2, 0.652688
237, 6, bw, filler, NA, 999, 999, 7, 1, 73, 60, 126, 92, 145, 175, 3, 1.60839
237, 6, bw, filler, NA, 999, 999, 7, 1, 73, 60, 126, 92, 145, 175, 1, 0.638505
237, 6, bw, filler, NA, 999, 999, 7, 2, 84, 63, 161, 67, 114, 140, 3, 1.4189
237, 6, bw, filler, NA, 999, 999, 7, 2, 84, 63, 161, 67, 114, 140, 1, 0.78519
237, 6, bw, attraction, a-b-da, 5, 2, 7, 3, 165, 90, 161, 88, 90, 165, 1, 2.87944
237, 6, bw, attraction, a-b-da, 5, 2, 7, 3, 165, 90, 161, 88, 90, 165, 2, 0.570581
237, 6, bw, attraction, a-b-db, 5, 1, 7, 4, 60, 135, 58, 132, 135, 60, 1, 6.93759
237, 6, bw, attraction, a-b-db, 5, 1, 7, 4, 60, 135, 58, 132, 135, 60, 2, 0.641447
237, 6, bw, attraction, a-b-da, 9, 2, 7, 5, 165, 90, 157, 86, 90, 165, 3, 1.50908
237, 6, bw, attraction, a-b-da, 9, 2, 7, 5, 165, 90, 157, 86, 90, 165, 1, 0.959361
237, 6, bw, catch, NA, 999, 999, 7, 6, 132, 183, 129, 66, 114, 141, 1, 0.990315
237, 6, bw, catch, NA, 999, 999, 7, 6, 132, 183, 129, 66, 114, 141, 2, 0.741427
237, 6, bw, attraction, a-b-db, 2, 2, 7, 7, 165, 90, 90, 165, 89, 163, 3, 1.52496
237, 6, bw, attraction, a-b-db, 2, 2, 7, 7, 165, 90, 90, 165, 89, 163, 2, 0.806586
237, 6, bw, attraction, a-b-da, 14, 1, 7, 8, 60, 135, 125, 56, 135, 60, 1, 0.947671
237, 6, bw, attraction, a-b-da, 14, 1, 7, 8, 60, 135, 125, 56, 135, 60, 2, 1.51654
237, 6, bw, attraction, a-b-db, 14, 1, 7, 9, 60, 135, 135, 60, 56, 125, 2, 0.917478
237, 6, bw, attraction, a-b-db, 14, 1, 7, 9, 60, 135, 135, 60, 56, 125, 1, 1.77567
237, 6, bw, attraction, a-b-da, 5, 3, 7, 10, 120, 195, 190, 117, 195, 120, 3, 1.67771
237, 6, bw, attraction, a-b-da, 5, 3, 7, 10, 120, 195, 190, 117, 195, 120, 2, 1.5132
237, 6, bw, attraction, a-b-da, 2, 1, 7, 11, 135, 60, 60, 135, 134, 59, 1, 2.09005
237, 6, bw, attraction, a-b-da, 2, 1, 7, 11, 135, 60, 60, 135, 134, 59, 2, 0.660687
237, 6, bw, attraction, a-b-db, 9, 1, 7, 12, 57, 129, 60, 135, 135, 60, 3, 1.21567
237, 6, bw, attraction, a-b-db, 9, 1, 7, 12, 57, 129, 60, 135, 135, 60, 1, 0.958087
237, 6, bw, attraction, a-b-db, 14, 3, 7, 13, 120, 195, 111, 181, 195, 120, 1, 1.01298
237, 6, bw, attraction, a-b-db, 14, 3, 7, 13, 120, 195, 111, 181, 195, 120, 2, 0.979282
237, 6, bw, filler, NA, 999, 999, 7, 14, 118, 98, 117, 146, 58, 101, 2, 1.51366
237, 6, bw, filler, NA, 999, 999, 7, 14, 118, 98, 117, 146, 58, 101, 3, 0.843706
237, 6, bw, attraction, a-b-da, 2, 3, 7, 15, 195, 120, 193, 119, 120, 195, 3, 1.83142
237, 6, bw, attraction, a-b-da, 2, 3, 7, 15, 195, 120, 193, 119, 120, 195, 1, 1.0928
237, 6, bw, attraction, a-b-da, 9, 1, 7, 16, 129, 57, 60, 135, 135, 60, 2, 0.750491
237, 6, bw, attraction, a-b-da, 9, 1, 7, 16, 129, 57, 60, 135, 135, 60, 1, 0.607477
237, 6, bw, filler, NA, 999, 999, 7, 17, 183, 190, 193, 89, 98, 164, 1, 0.844486
237, 6, bw, filler, NA, 999, 999, 7, 17, 183, 190, 193, 89, 98, 164, 3, 1.80159
237, 6, bw, filler, NA, 999, 999, 7, 18, 139, 169, 182, 69, 71, 172, 1, 2.35905
237, 6, bw, filler, NA, 999, 999, 7, 18, 139, 169, 182, 69, 71, 172, 2, 1.22288
237, 6, bw, filler, NA, 999, 999, 7, 19, 89, 140, 162, 159, 71, 142, 2, 0.715124
237, 6, bw, filler, NA, 999, 999, 7, 19, 89, 140, 162, 159, 71, 142, 3, 0.757625
237, 6, bw, filler, NA, 999, 999, 7, 20, 111, 163, 94, 148, 80, 98, 1, 0.740532
237, 6, bw, filler, NA, 999, 999, 7, 20, 111, 163, 94, 148, 80, 98, 3, 1.32566
237, 6, bw, attraction, a-b-da, 9, 3, 7, 21, 186, 114, 120, 195, 195, 120, 2, 0.981785
237, 6, bw, attraction, a-b-da, 9, 3, 7, 21, 186, 114, 120, 195, 195, 120, 1, 1.02951
237, 6, bw, attraction, a-b-db, 2, 1, 7, 22, 59, 134, 60, 135, 135, 60, 3, 3.61779
237, 6, bw, attraction, a-b-db, 2, 1, 7, 22, 59, 134, 60, 135, 135, 60, 1, 1.12729
237, 6, bw, attraction, a-b-db, 2, 3, 7, 23, 195, 120, 119, 193, 120, 195, 3, 4.15955
237, 6, bw, attraction, a-b-db, 2, 3, 7, 23, 195, 120, 119, 193, 120, 195, 2, 1.39887
237, 6, bw, attraction, a-b-db, 5, 3, 7, 24, 117, 190, 120, 195, 195, 120, 2, 4.52435
237, 6, bw, attraction, a-b-db, 5, 3, 7, 24, 117, 190, 120, 195, 195, 120, 1, 0.668959
237, 6, bw, attraction, a-b-da, 5, 1, 7, 25, 135, 60, 132, 58, 60, 135, 1, 0.863986
237, 6, bw, attraction, a-b-da, 5, 1, 7, 25, 135, 60, 132, 58, 60, 135, 2, 0.564485
237, 6, bw, catch, NA, 999, 999, 7, 26, 154, 101, 178, 137, 68, 127, 2, 0.635444
237, 6, bw, catch, NA, 999, 999, 7, 26, 154, 101, 178, 137, 68, 127, 3, 0.913399
237, 6, bw, attraction, a-b-db, 9, 3, 7, 27, 120, 195, 195, 120, 114, 186, 1, 1.57037
237, 6, bw, attraction, a-b-db, 9, 3, 7, 27, 120, 195, 195, 120, 114, 186, 2, 0.505769
237, 6, bw, attraction, a-b-da, 2, 2, 7, 28, 165, 90, 90, 165, 163, 89, 1, 1.11547
237, 6, bw, attraction, a-b-da, 2, 2, 7, 28, 165, 90, 90, 165, 163, 89, 2, 0.669796
237, 6, bw, catch, NA, 999, 999, 7, 29, 141, 174, 105, 150, 124, 71, 1, 1.19292
237, 6, bw, catch, NA, 999, 999, 7, 29, 141, 174, 105, 150, 124, 71, 2, 0.631855
237, 6, bw, filler, NA, 999, 999, 7, 30, 74, 66, 84, 124, 83, 167, 3, 1.14826
237, 6, bw, filler, NA, 999, 999, 7, 30, 74, 66, 84, 124, 83, 167, 1, 0.677276
237, 6, bw, attraction, a-b-da, 14, 3, 7, 31, 195, 120, 120, 195, 181, 111, 2, 0.823573
237, 6, bw, attraction, a-b-da, 14, 3, 7, 31, 195, 120, 120, 195, 181, 111, 3, 0.589339
237, 6, bw, filler, NA, 999, 999, 7, 32, 170, 121, 190, 166, 165, 64, 2, 0.579016
237, 6, bw, filler, NA, 999, 999, 7, 32, 170, 121, 190, 166, 165, 64, 3, 0.746979
237, 6, bw, attraction, a-b-db, 14, 2, 7, 33, 83, 153, 90, 165, 165, 90, 2, 1.88249
237, 6, bw, attraction, a-b-db, 14, 2, 7, 33, 83, 153, 90, 165, 165, 90, 1, 0.629934
237, 6, bw, attraction, a-b-da, 14, 2, 7, 34, 153, 83, 90, 165, 165, 90, 3, 1.38634
237, 6, bw, attraction, a-b-da, 14, 2, 7, 34, 153, 83, 90, 165, 165, 90, 1, 0.753857
237, 6, bw, attraction, a-b-db, 9, 2, 7, 35, 165, 90, 86, 157, 90, 165, 2, 1.00955
237, 6, bw, attraction, a-b-db, 9, 2, 7, 35, 165, 90, 86, 157, 90, 165, 1, 0.60796
237, 6, bw, filler, NA, 999, 999, 7, 36, 187, 142, 103, 146, 139, 70, 1, 0.692916
237, 6, bw, filler, NA, 999, 999, 7, 36, 187, 142, 103, 146, 139, 70, 3, 1.15207
237, 6, bw, attraction, a-b-db, 5, 2, 7, 37, 165, 90, 88, 161, 90, 165, 3, 1.21563
237, 6, bw, attraction, a-b-db, 5, 2, 7, 37, 165, 90, 88, 161, 90, 165, 1, 0.781862
237, 6, bw, attraction, a-b-db, 2, 3, 8, 1, 120, 195, 195, 120, 119, 193, 3, 2.99634
237, 6, bw, attraction, a-b-db, 2, 3, 8, 1, 120, 195, 195, 120, 119, 193, 1, 2.12259
237, 6, bw, attraction, a-b-da, 5, 3, 8, 2, 190, 117, 195, 120, 120, 195, 1, 1.05929
237, 6, bw, attraction, a-b-da, 5, 3, 8, 2, 190, 117, 195, 120, 120, 195, 2, 0.663592
237, 6, bw, attraction, a-b-da, 14, 1, 8, 3, 125, 56, 135, 60, 60, 135, 3, 1.0266
237, 6, bw, attraction, a-b-da, 14, 1, 8, 3, 125, 56, 135, 60, 60, 135, 1, 0.74429
237, 6, bw, attraction, a-b-db, 2, 1, 8, 4, 60, 135, 59, 134, 135, 60, 1, 1.08799
237, 6, bw, attraction, a-b-db, 2, 1, 8, 4, 60, 135, 59, 134, 135, 60, 3, 0.810985
237, 6, bw, attraction, a-b-db, 2, 2, 8, 5, 90, 165, 165, 90, 89, 163, 3, 2.00796
237, 6, bw, attraction, a-b-db, 2, 2, 8, 5, 90, 165, 165, 90, 89, 163, 2, 0.598049
237, 6, bw, filler, NA, 999, 999, 8, 6, 157, 133, 135, 195, 118, 58, 2, 0.947766
237, 6, bw, filler, NA, 999, 999, 8, 6, 157, 133, 135, 195, 118, 58, 3, 0.740791
237, 6, bw, filler, NA, 999, 999, 8, 7, 169, 68, 112, 193, 143, 118, 2, 0.956478
237, 6, bw, filler, NA, 999, 999, 8, 7, 169, 68, 112, 193, 143, 118, 1, 0.596833
237, 6, bw, attraction, a-b-db, 5, 1, 8, 8, 60, 135, 58, 132, 135, 60, 1, 1.32265
237, 6, bw, attraction, a-b-db, 5, 1, 8, 8, 60, 135, 58, 132, 135, 60, 3, 0.75629
237, 6, bw, attraction, a-b-db, 14, 1, 8, 9, 56, 125, 60, 135, 135, 60, 3, 2.45917
237, 6, bw, attraction, a-b-db, 14, 1, 8, 9, 56, 125, 60, 135, 135, 60, 1, 0.703154
237, 6, bw, filler, NA, 999, 999, 8, 10, 178, 185, 182, 141, 105, 88, 1, 0.888907
237, 6, bw, filler, NA, 999, 999, 8, 10, 178, 185, 182, 141, 105, 88, 3, 0.964033
237, 6, bw, filler, NA, 999, 999, 8, 11, 86, 80, 122, 144, 117, 62, 2, 0.570827
237, 6, bw, filler, NA, 999, 999, 8, 11, 86, 80, 122, 144, 117, 62, 1, 0.72251
237, 6, bw, attraction, a-b-db, 9, 2, 8, 12, 165, 90, 90, 165, 86, 157, 3, 1.57955
237, 6, bw, attraction, a-b-db, 9, 2, 8, 12, 165, 90, 90, 165, 86, 157, 1, 0.699151
237, 6, bw, catch, NA, 999, 999, 8, 13, 163, 152, 118, 77, 131, 124, 1, 0.612708
237, 6, bw, catch, NA, 999, 999, 8, 13, 163, 152, 118, 77, 131, 124, 2, 0.603204
237, 6, bw, attraction, a-b-da, 14, 2, 8, 14, 90, 165, 153, 83, 165, 90, 3, 1.58515
237, 6, bw, attraction, a-b-da, 14, 2, 8, 14, 90, 165, 153, 83, 165, 90, 2, 0.608521
237, 6, bw, attraction, a-b-db, 9, 1, 8, 15, 60, 135, 135, 60, 57, 129, 1, 0.869562
237, 6, bw, attraction, a-b-db, 9, 1, 8, 15, 60, 135, 135, 60, 57, 129, 2, 0.626006
237, 6, bw, attraction, a-b-da, 9, 3, 8, 16, 186, 114, 195, 120, 120, 195, 2, 1.1264
237, 6, bw, attraction, a-b-da, 9, 3, 8, 16, 186, 114, 195, 120, 120, 195, 1, 0.816
237, 6, bw, attraction, a-b-db, 14, 2, 8, 17, 165, 90, 83, 153, 90, 165, 2, 0.660918
237, 6, bw, attraction, a-b-db, 14, 2, 8, 17, 165, 90, 83, 153, 90, 165, 1, 0.673428
237, 6, bw, catch, NA, 999, 999, 8, 18, 120, 135, 61, 134, 138, 177, 3, 0.811785
237, 6, bw, catch, NA, 999, 999, 8, 18, 120, 135, 61, 134, 138, 177, 1, 0.586208
237, 6, bw, attraction, a-b-da, 5, 2, 8, 19, 161, 88, 165, 90, 90, 165, 2, 1.62466
237, 6, bw, attraction, a-b-da, 5, 2, 8, 19, 161, 88, 165, 90, 90, 165, 3, 0.742075
237, 6, bw, attraction, a-b-da, 14, 3, 8, 20, 120, 195, 195, 120, 181, 111, 2, 1.02184
237, 6, bw, attraction, a-b-da, 14, 3, 8, 20, 120, 195, 195, 120, 181, 111, 1, 0.49947
237, 6, bw, attraction, a-b-db, 5, 2, 8, 21, 88, 161, 90, 165, 165, 90, 2, 0.453268
237, 6, bw, attraction, a-b-db, 5, 2, 8, 21, 88, 161, 90, 165, 165, 90, 1, 0.641765
237, 6, bw, attraction, a-b-da, 9, 1, 8, 22, 60, 135, 129, 57, 135, 60, 2, 0.669479
237, 6, bw, attraction, a-b-da, 9, 1, 8, 22, 60, 135, 129, 57, 135, 60, 1, 0.625926
237, 6, bw, attraction, a-b-da, 2, 3, 8, 23, 120, 195, 193, 119, 195, 120, 1, 0.83033
237, 6, bw, attraction, a-b-da, 2, 3, 8, 23, 120, 195, 193, 119, 195, 120, 3, 1.69201
237, 6, bw, filler, NA, 999, 999, 8, 24, 132, 89, 124, 193, 86, 132, 2, 1.03736
237, 6, bw, filler, NA, 999, 999, 8, 24, 132, 89, 124, 193, 86, 132, 1, 0.715117
237, 6, bw, filler, NA, 999, 999, 8, 25, 156, 158, 136, 59, 155, 122, 1, 1.22019
237, 6, bw, filler, NA, 999, 999, 8, 25, 156, 158, 136, 59, 155, 122, 2, 0.826385
237, 6, bw, attraction, a-b-da, 9, 2, 8, 26, 165, 90, 157, 86, 90, 165, 2, 0.646668
237, 6, bw, attraction, a-b-da, 9, 2, 8, 26, 165, 90, 157, 86, 90, 165, 1, 0.659811
237, 6, bw, filler, NA, 999, 999, 8, 27, 141, 79, 73, 70, 142, 179, 3, 0.606877
237, 6, bw, filler, NA, 999, 999, 8, 27, 141, 79, 73, 70, 142, 179, 2, 0.533407
237, 6, bw, filler, NA, 999, 999, 8, 28, 130, 71, 128, 124, 169, 164, 2, 0.813844
237, 6, bw, filler, NA, 999, 999, 8, 28, 130, 71, 128, 124, 169, 164, 1, 4.70024
237, 6, bw, attraction, a-b-da, 2, 2, 8, 29, 90, 165, 163, 89, 165, 90, 2, 1.09266
237, 6, bw, attraction, a-b-da, 2, 2, 8, 29, 90, 165, 163, 89, 165, 90, 1, 0.775688
237, 6, bw, filler, NA, 999, 999, 8, 30, 80, 93, 151, 187, 163, 143, 2, 0.525959
237, 6, bw, filler, NA, 999, 999, 8, 30, 80, 93, 151, 187, 163, 143, 1, 1.17577
237, 6, bw, attraction, a-b-da, 5, 1, 8, 31, 60, 135, 135, 60, 132, 58, 1, 1.10209
237, 6, bw, attraction, a-b-da, 5, 1, 8, 31, 60, 135, 135, 60, 132, 58, 2, 2.25712
237, 6, bw, attraction, a-b-db, 14, 3, 8, 32, 195, 120, 111, 181, 120, 195, 3, 1.90757
237, 6, bw, attraction, a-b-db, 14, 3, 8, 32, 195, 120, 111, 181, 120, 195, 2, 0.717701
237, 6, bw, attraction, a-b-da, 2, 1, 8, 33, 60, 135, 134, 59, 135, 60, 2, 1.07071
237, 6, bw, attraction, a-b-da, 2, 1, 8, 33, 60, 135, 134, 59, 135, 60, 1, 0.594368
237, 6, bw, filler, NA, 999, 999, 8, 34, 116, 101, 114, 75, 148, 124, 3, 0.864205
237, 6, bw, filler, NA, 999, 999, 8, 34, 116, 101, 114, 75, 148, 124, 2, 0.604468
237, 6, bw, attraction, a-b-db, 5, 3, 8, 35, 195, 120, 120, 195, 117, 190, 2, 0.858167
237, 6, bw, attraction, a-b-db, 5, 3, 8, 35, 195, 120, 120, 195, 117, 190, 1, 0.646655
237, 6, bw, attraction, a-b-db, 9, 3, 8, 36, 195, 120, 114, 186, 120, 195, 1, 0.810364
237, 6, bw, attraction, a-b-db, 9, 3, 8, 36, 195, 120, 114, 186, 120, 195, 2, 0.496771
237, 6, bw, catch, NA, 999, 999, 8, 37, 107, 148, 101, 94, 143, 172, 3, 0.938393
237, 6, bw, catch, NA, 999, 999, 8, 37, 107, 148, 101, 94, 143, 172, 2, 1.17943
