sub_n, computer_n, bw_cond, effect, set, distance, diag, block_n, trial_n, h1, w1, h2, w2, h3, w3, choice, rt 
273, 6, bw, practice, NA, 999, 999, 0, 1, 62, 151, 121, 64, 107, 124, 3, 3.5969
273, 6, bw, practice, NA, 999, 999, 0, 1, 62, 151, 121, 64, 107, 124, 2, 2.67656
273, 6, bw, practice, NA, 999, 999, 0, 2, 157, 71, 57, 63, 101, 119, 1, 5.68932
273, 6, bw, practice, NA, 999, 999, 0, 2, 157, 71, 57, 63, 101, 119, 2, 1.14015
273, 6, bw, practice, NA, 999, 999, 0, 3, 137, 162, 130, 192, 72, 183, 2, 2.06558
273, 6, bw, practice, NA, 999, 999, 0, 3, 137, 162, 130, 192, 72, 183, 3, 1.06837
273, 6, bw, attraction, a-b-da, 5, 2, 1, 1, 90, 165, 161, 88, 165, 90, 1, 3.18352
273, 6, bw, attraction, a-b-da, 5, 2, 1, 1, 90, 165, 161, 88, 165, 90, 2, 1.22255
273, 6, bw, attraction, a-b-db, 14, 2, 1, 2, 165, 90, 83, 153, 90, 165, 3, 5.70752
273, 6, bw, attraction, a-b-db, 14, 2, 1, 2, 165, 90, 83, 153, 90, 165, 2, 0.732234
273, 6, bw, attraction, a-b-da, 2, 2, 1, 3, 90, 165, 165, 90, 163, 89, 1, 3.67665
273, 6, bw, attraction, a-b-da, 2, 2, 1, 3, 90, 165, 165, 90, 163, 89, 2, 0.8475
273, 6, bw, attraction, a-b-da, 2, 3, 1, 4, 193, 119, 120, 195, 195, 120, 2, 4.16319
273, 6, bw, attraction, a-b-da, 2, 3, 1, 4, 193, 119, 120, 195, 195, 120, 1, 1.46656
273, 6, bw, filler, NA, 999, 999, 1, 5, 157, 147, 164, 129, 80, 165, 1, 3.26124
273, 6, bw, filler, NA, 999, 999, 1, 5, 157, 147, 164, 129, 80, 165, 3, 0.489085
273, 6, bw, attraction, a-b-db, 2, 3, 1, 6, 119, 193, 195, 120, 120, 195, 2, 5.89066
273, 6, bw, attraction, a-b-db, 2, 3, 1, 6, 119, 193, 195, 120, 120, 195, 1, 0.708169
273, 6, bw, attraction, a-b-db, 5, 1, 1, 7, 135, 60, 58, 132, 60, 135, 1, 11.2934
273, 6, bw, attraction, a-b-db, 5, 1, 1, 7, 135, 60, 58, 132, 60, 135, 3, 4.98903
273, 6, bw, filler, NA, 999, 999, 1, 8, 110, 148, 162, 135, 161, 94, 2, 1.58602
273, 6, bw, filler, NA, 999, 999, 1, 8, 110, 148, 162, 135, 161, 94, 3, 0.873562
273, 6, bw, attraction, a-b-da, 14, 3, 1, 9, 120, 195, 195, 120, 181, 111, 1, 2.5879
273, 6, bw, attraction, a-b-da, 14, 3, 1, 9, 120, 195, 195, 120, 181, 111, 3, 1.16244
273, 6, bw, attraction, a-b-db, 2, 2, 1, 10, 165, 90, 89, 163, 90, 165, 3, 4.04929
273, 6, bw, attraction, a-b-db, 2, 2, 1, 10, 165, 90, 89, 163, 90, 165, 1, 1.33332
273, 6, bw, attraction, a-b-db, 2, 1, 1, 11, 59, 134, 135, 60, 60, 135, 3, 1.62155
273, 6, bw, attraction, a-b-db, 2, 1, 1, 11, 59, 134, 135, 60, 60, 135, 2, 0.979038
273, 6, bw, attraction, a-b-da, 9, 1, 1, 12, 60, 135, 129, 57, 135, 60, 1, 1.80938
273, 6, bw, attraction, a-b-da, 9, 1, 1, 12, 60, 135, 129, 57, 135, 60, 2, 0.623468
273, 6, bw, filler, NA, 999, 999, 1, 13, 173, 183, 179, 140, 108, 148, 1, 1.21176
273, 6, bw, filler, NA, 999, 999, 1, 13, 173, 183, 179, 140, 108, 148, 3, 0.602056
273, 6, bw, filler, NA, 999, 999, 1, 14, 88, 105, 159, 140, 64, 67, 2, 1.6558
273, 6, bw, filler, NA, 999, 999, 1, 14, 88, 105, 159, 140, 64, 67, 3, 0.931896
273, 6, bw, catch, NA, 999, 999, 1, 15, 156, 159, 120, 75, 125, 130, 1, 1.25218
273, 6, bw, catch, NA, 999, 999, 1, 15, 156, 159, 120, 75, 125, 130, 2, 0.569196
273, 6, bw, attraction, a-b-db, 14, 3, 1, 16, 120, 195, 111, 181, 195, 120, 3, 5.40033
273, 6, bw, attraction, a-b-db, 14, 3, 1, 16, 120, 195, 111, 181, 195, 120, 2, 0.48578
273, 6, bw, attraction, a-b-da, 14, 1, 1, 17, 135, 60, 125, 56, 60, 135, 3, 4.00037
273, 6, bw, attraction, a-b-da, 14, 1, 1, 17, 135, 60, 125, 56, 60, 135, 2, 0.710309
273, 6, bw, filler, NA, 999, 999, 1, 18, 167, 121, 145, 66, 139, 104, 1, 1.53546
273, 6, bw, filler, NA, 999, 999, 1, 18, 167, 121, 145, 66, 139, 104, 2, 0.560924
273, 6, bw, catch, NA, 999, 999, 1, 19, 133, 182, 125, 70, 97, 158, 1, 1.13595
273, 6, bw, catch, NA, 999, 999, 1, 19, 133, 182, 125, 70, 97, 158, 2, 0.617707
273, 6, bw, attraction, a-b-db, 5, 2, 1, 20, 88, 161, 90, 165, 165, 90, 2, 1.51882
273, 6, bw, attraction, a-b-db, 5, 2, 1, 20, 88, 161, 90, 165, 165, 90, 1, 1.00086
273, 6, bw, attraction, a-b-da, 5, 1, 1, 21, 60, 135, 132, 58, 135, 60, 1, 3.61447
273, 6, bw, attraction, a-b-da, 5, 1, 1, 21, 60, 135, 132, 58, 135, 60, 2, 1.67605
273, 6, bw, catch, NA, 999, 999, 1, 22, 86, 109, 122, 193, 118, 137, 2, 1.2462
273, 6, bw, catch, NA, 999, 999, 1, 22, 86, 109, 122, 193, 118, 137, 1, 0.722988
273, 6, bw, attraction, a-b-da, 9, 3, 1, 23, 120, 195, 195, 120, 186, 114, 2, 3.8755
273, 6, bw, attraction, a-b-da, 9, 3, 1, 23, 120, 195, 195, 120, 186, 114, 3, 0.598157
273, 6, bw, attraction, a-b-db, 14, 1, 1, 24, 135, 60, 56, 125, 60, 135, 3, 18.82
273, 6, bw, attraction, a-b-db, 14, 1, 1, 24, 135, 60, 56, 125, 60, 135, 2, 0.612678
273, 6, bw, filler, NA, 999, 999, 1, 25, 80, 167, 176, 180, 80, 165, 2, 0.833809
273, 6, bw, filler, NA, 999, 999, 1, 25, 80, 167, 176, 180, 80, 165, 3, 1.99945
273, 6, bw, attraction, a-b-da, 2, 1, 1, 26, 135, 60, 134, 59, 60, 135, 3, 1.86899
273, 6, bw, attraction, a-b-da, 2, 1, 1, 26, 135, 60, 134, 59, 60, 135, 2, 1.74487
273, 6, bw, filler, NA, 999, 999, 1, 27, 160, 154, 92, 98, 81, 129, 1, 0.688221
273, 6, bw, filler, NA, 999, 999, 1, 27, 160, 154, 92, 98, 81, 129, 2, 2.40338
273, 6, bw, attraction, a-b-da, 9, 2, 1, 28, 165, 90, 157, 86, 90, 165, 3, 2.56849
273, 6, bw, attraction, a-b-da, 9, 2, 1, 28, 165, 90, 157, 86, 90, 165, 1, 1.32839
273, 6, bw, attraction, a-b-da, 14, 2, 1, 29, 165, 90, 90, 165, 153, 83, 2, 1.58454
273, 6, bw, attraction, a-b-da, 14, 2, 1, 29, 165, 90, 90, 165, 153, 83, 3, 0.768032
273, 6, bw, attraction, a-b-da, 5, 3, 1, 30, 195, 120, 190, 117, 120, 195, 3, 2.83105
273, 6, bw, attraction, a-b-da, 5, 3, 1, 30, 195, 120, 190, 117, 120, 195, 2, 0.668239
273, 6, bw, attraction, a-b-db, 9, 2, 1, 31, 90, 165, 86, 157, 165, 90, 2, 1.80731
273, 6, bw, attraction, a-b-db, 9, 2, 1, 31, 90, 165, 86, 157, 165, 90, 1, 0.98932
273, 6, bw, attraction, a-b-db, 9, 1, 1, 32, 60, 135, 57, 129, 135, 60, 1, 2.4116
273, 6, bw, attraction, a-b-db, 9, 1, 1, 32, 60, 135, 57, 129, 135, 60, 3, 0.889521
273, 6, bw, attraction, a-b-db, 5, 3, 1, 33, 117, 190, 120, 195, 195, 120, 2, 1.56314
273, 6, bw, attraction, a-b-db, 5, 3, 1, 33, 117, 190, 120, 195, 195, 120, 1, 0.787393
273, 6, bw, attraction, a-b-db, 9, 3, 1, 34, 195, 120, 114, 186, 120, 195, 1, 2.92962
273, 6, bw, attraction, a-b-db, 9, 3, 1, 34, 195, 120, 114, 186, 120, 195, 2, 0.610699
273, 6, bw, filler, NA, 999, 999, 1, 35, 171, 58, 83, 135, 171, 163, 3, 1.27183
273, 6, bw, filler, NA, 999, 999, 1, 35, 171, 58, 83, 135, 171, 163, 2, 2.27544
273, 6, bw, filler, NA, 999, 999, 1, 36, 61, 183, 89, 156, 91, 168, 3, 3.94922
273, 6, bw, filler, NA, 999, 999, 1, 36, 61, 183, 89, 156, 91, 168, 1, 2.02134
273, 6, bw, filler, NA, 999, 999, 1, 37, 133, 74, 147, 186, 151, 103, 2, 0.87398
273, 6, bw, filler, NA, 999, 999, 1, 37, 133, 74, 147, 186, 151, 103, 1, 0.901766
273, 6, bw, attraction, a-b-db, 9, 3, 2, 1, 120, 195, 195, 120, 114, 186, 1, 1.95133
273, 6, bw, attraction, a-b-db, 9, 3, 2, 1, 120, 195, 195, 120, 114, 186, 2, 0.368063
273, 6, bw, filler, NA, 999, 999, 2, 2, 97, 176, 195, 189, 180, 63, 2, 1.34315
273, 6, bw, filler, NA, 999, 999, 2, 2, 97, 176, 195, 189, 180, 63, 3, 0.472093
273, 6, bw, catch, NA, 999, 999, 2, 3, 117, 78, 139, 116, 126, 189, 3, 1.05115
273, 6, bw, catch, NA, 999, 999, 2, 3, 117, 78, 139, 116, 126, 189, 1, 0.392205
273, 6, bw, attraction, a-b-da, 9, 1, 2, 4, 135, 60, 60, 135, 129, 57, 2, 2.99802
273, 6, bw, attraction, a-b-da, 9, 1, 2, 4, 135, 60, 60, 135, 129, 57, 3, 0.380546
273, 6, bw, attraction, a-b-db, 5, 3, 2, 5, 120, 195, 195, 120, 117, 190, 1, 1.21097
273, 6, bw, attraction, a-b-db, 5, 3, 2, 5, 120, 195, 195, 120, 117, 190, 2, 2.05715
273, 6, bw, filler, NA, 999, 999, 2, 6, 160, 154, 157, 138, 109, 175, 1, 0.867827
273, 6, bw, filler, NA, 999, 999, 2, 6, 160, 154, 157, 138, 109, 175, 3, 0.512131
273, 6, bw, attraction, a-b-da, 5, 2, 2, 7, 165, 90, 90, 165, 161, 88, 2, 1.65731
273, 6, bw, attraction, a-b-da, 5, 2, 2, 7, 165, 90, 90, 165, 161, 88, 3, 1.00547
273, 6, bw, attraction, a-b-da, 2, 3, 2, 8, 193, 119, 195, 120, 120, 195, 3, 3.06695
273, 6, bw, attraction, a-b-da, 2, 3, 2, 8, 193, 119, 195, 120, 120, 195, 1, 0.390783
273, 6, bw, attraction, a-b-db, 14, 1, 2, 9, 135, 60, 60, 135, 56, 125, 2, 1.9725
273, 6, bw, attraction, a-b-db, 14, 1, 2, 9, 135, 60, 60, 135, 56, 125, 3, 0.739902
273, 6, bw, attraction, a-b-db, 9, 1, 2, 10, 60, 135, 135, 60, 57, 129, 1, 2.50751
273, 6, bw, attraction, a-b-db, 9, 1, 2, 10, 60, 135, 135, 60, 57, 129, 2, 0.733359
273, 6, bw, attraction, a-b-da, 5, 3, 2, 11, 120, 195, 195, 120, 190, 117, 1, 3.11776
273, 6, bw, attraction, a-b-da, 5, 3, 2, 11, 120, 195, 195, 120, 190, 117, 3, 3.2235
273, 6, bw, catch, NA, 999, 999, 2, 12, 148, 167, 92, 103, 132, 123, 1, 0.915072
273, 6, bw, catch, NA, 999, 999, 2, 12, 148, 167, 92, 103, 132, 123, 2, 0.357456
273, 6, bw, attraction, a-b-da, 14, 1, 2, 13, 60, 135, 125, 56, 135, 60, 1, 1.09253
273, 6, bw, attraction, a-b-da, 14, 1, 2, 13, 60, 135, 125, 56, 135, 60, 2, 0.703727
273, 6, bw, filler, NA, 999, 999, 2, 14, 122, 73, 155, 168, 62, 195, 2, 1.32935
273, 6, bw, filler, NA, 999, 999, 2, 14, 122, 73, 155, 168, 62, 195, 1, 1.11484
273, 6, bw, attraction, a-b-db, 5, 1, 2, 15, 60, 135, 135, 60, 58, 132, 1, 1.72374
273, 6, bw, attraction, a-b-db, 5, 1, 2, 15, 60, 135, 135, 60, 58, 132, 2, 1.05321
273, 6, bw, attraction, a-b-db, 2, 1, 2, 16, 59, 134, 60, 135, 135, 60, 1, 2.76072
273, 6, bw, attraction, a-b-db, 2, 1, 2, 16, 59, 134, 60, 135, 135, 60, 3, 0.832539
273, 6, bw, filler, NA, 999, 999, 2, 17, 183, 118, 150, 98, 74, 165, 1, 0.716822
273, 6, bw, filler, NA, 999, 999, 2, 17, 183, 118, 150, 98, 74, 165, 3, 0.407327
273, 6, bw, filler, NA, 999, 999, 2, 18, 159, 75, 119, 98, 175, 128, 3, 1.96449
273, 6, bw, filler, NA, 999, 999, 2, 18, 159, 75, 119, 98, 175, 128, 2, 1.62854
273, 6, bw, attraction, a-b-db, 2, 2, 2, 19, 89, 163, 90, 165, 165, 90, 3, 2.36861
273, 6, bw, attraction, a-b-db, 2, 2, 2, 19, 89, 163, 90, 165, 165, 90, 1, 2.29648
273, 6, bw, attraction, a-b-db, 14, 2, 2, 20, 83, 153, 90, 165, 165, 90, 2, 1.79377
273, 6, bw, attraction, a-b-db, 14, 2, 2, 20, 83, 153, 90, 165, 165, 90, 1, 1.2565
273, 6, bw, attraction, a-b-da, 2, 1, 2, 21, 134, 59, 60, 135, 135, 60, 3, 3.89935
273, 6, bw, attraction, a-b-da, 2, 1, 2, 21, 134, 59, 60, 135, 135, 60, 2, 0.509445
273, 6, bw, filler, NA, 999, 999, 2, 22, 108, 115, 192, 87, 101, 180, 3, 2.46257
273, 6, bw, filler, NA, 999, 999, 2, 22, 108, 115, 192, 87, 101, 180, 1, 0.602575
273, 6, bw, attraction, a-b-db, 9, 2, 2, 23, 86, 157, 165, 90, 90, 165, 3, 6.68826
273, 6, bw, attraction, a-b-db, 9, 2, 2, 23, 86, 157, 165, 90, 90, 165, 2, 0.730045
273, 6, bw, filler, NA, 999, 999, 2, 24, 91, 87, 84, 175, 73, 92, 2, 2.39459
273, 6, bw, filler, NA, 999, 999, 2, 24, 91, 87, 84, 175, 73, 92, 3, 0.769027
273, 6, bw, attraction, a-b-da, 9, 2, 2, 25, 165, 90, 157, 86, 90, 165, 3, 3.44006
273, 6, bw, attraction, a-b-da, 9, 2, 2, 25, 165, 90, 157, 86, 90, 165, 2, 0.420318
273, 6, bw, catch, NA, 999, 999, 2, 26, 131, 184, 139, 116, 62, 133, 1, 1.60955
273, 6, bw, catch, NA, 999, 999, 2, 26, 131, 184, 139, 116, 62, 133, 3, 0.871722
273, 6, bw, filler, NA, 999, 999, 2, 27, 77, 167, 58, 140, 99, 185, 3, 1.05054
273, 6, bw, filler, NA, 999, 999, 2, 27, 77, 167, 58, 140, 99, 185, 2, 0.439506
273, 6, bw, filler, NA, 999, 999, 2, 28, 194, 86, 123, 73, 58, 181, 1, 1.06734
273, 6, bw, filler, NA, 999, 999, 2, 28, 194, 86, 123, 73, 58, 181, 2, 0.439686
273, 6, bw, filler, NA, 999, 999, 2, 29, 148, 119, 152, 162, 113, 186, 2, 2.53951
273, 6, bw, filler, NA, 999, 999, 2, 29, 148, 119, 152, 162, 113, 186, 1, 2.42799
273, 6, bw, attraction, a-b-da, 14, 3, 2, 30, 195, 120, 120, 195, 181, 111, 2, 1.48795
273, 6, bw, attraction, a-b-da, 14, 3, 2, 30, 195, 120, 120, 195, 181, 111, 3, 0.410819
273, 6, bw, attraction, a-b-da, 14, 2, 2, 31, 153, 83, 165, 90, 90, 165, 2, 1.46376
273, 6, bw, attraction, a-b-da, 14, 2, 2, 31, 153, 83, 165, 90, 90, 165, 1, 0.484061
273, 6, bw, attraction, a-b-db, 2, 3, 2, 32, 119, 193, 195, 120, 120, 195, 3, 1.94242
273, 6, bw, attraction, a-b-db, 2, 3, 2, 32, 119, 193, 195, 120, 120, 195, 2, 0.527189
273, 6, bw, attraction, a-b-da, 9, 3, 2, 33, 120, 195, 186, 114, 195, 120, 1, 1.48758
273, 6, bw, attraction, a-b-da, 9, 3, 2, 33, 120, 195, 186, 114, 195, 120, 2, 0.762451
273, 6, bw, attraction, a-b-db, 14, 3, 2, 34, 120, 195, 195, 120, 111, 181, 1, 1.99348
273, 6, bw, attraction, a-b-db, 14, 3, 2, 34, 120, 195, 195, 120, 111, 181, 3, 0.576183
273, 6, bw, attraction, a-b-da, 2, 2, 2, 35, 165, 90, 90, 165, 163, 89, 2, 5.66257
273, 6, bw, attraction, a-b-da, 2, 2, 2, 35, 165, 90, 90, 165, 163, 89, 3, 2.44947
273, 6, bw, attraction, a-b-db, 5, 2, 2, 36, 90, 165, 165, 90, 88, 161, 1, 2.01286
273, 6, bw, attraction, a-b-db, 5, 2, 2, 36, 90, 165, 165, 90, 88, 161, 2, 0.466588
273, 6, bw, attraction, a-b-da, 5, 1, 2, 37, 135, 60, 132, 58, 60, 135, 3, 2.70175
273, 6, bw, attraction, a-b-da, 5, 1, 2, 37, 135, 60, 132, 58, 60, 135, 2, 1.00018
273, 6, bw, attraction, a-b-da, 5, 1, 3, 1, 60, 135, 135, 60, 132, 58, 3, 17.6227
273, 6, bw, attraction, a-b-da, 5, 1, 3, 1, 60, 135, 135, 60, 132, 58, 1, 0.454895
273, 6, bw, attraction, a-b-db, 2, 2, 3, 2, 89, 163, 90, 165, 165, 90, 2, 1.31474
273, 6, bw, attraction, a-b-db, 2, 2, 3, 2, 89, 163, 90, 165, 165, 90, 3, 0.525093
273, 6, bw, attraction, a-b-db, 9, 1, 3, 3, 135, 60, 60, 135, 57, 129, 2, 1.98137
273, 6, bw, attraction, a-b-db, 9, 1, 3, 3, 135, 60, 60, 135, 57, 129, 3, 0.660809
273, 6, bw, filler, NA, 999, 999, 3, 4, 171, 118, 143, 183, 70, 97, 2, 1.20783
273, 6, bw, filler, NA, 999, 999, 3, 4, 171, 118, 143, 183, 70, 97, 3, 0.662198
273, 6, bw, filler, NA, 999, 999, 3, 5, 76, 147, 119, 121, 140, 144, 3, 1.0332
273, 6, bw, filler, NA, 999, 999, 3, 5, 76, 147, 119, 121, 140, 144, 1, 0.854855
273, 6, bw, attraction, a-b-db, 14, 1, 3, 6, 60, 135, 135, 60, 56, 125, 1, 1.01067
273, 6, bw, attraction, a-b-db, 14, 1, 3, 6, 60, 135, 135, 60, 56, 125, 2, 0.336843
273, 6, bw, attraction, a-b-db, 5, 2, 3, 7, 90, 165, 88, 161, 165, 90, 3, 2.19335
273, 6, bw, attraction, a-b-db, 5, 2, 3, 7, 90, 165, 88, 161, 165, 90, 1, 0.344006
273, 6, bw, attraction, a-b-db, 14, 2, 3, 8, 165, 90, 83, 153, 90, 165, 1, 0.791946
273, 6, bw, attraction, a-b-db, 14, 2, 3, 8, 165, 90, 83, 153, 90, 165, 2, 0.375009
273, 6, bw, filler, NA, 999, 999, 3, 9, 62, 82, 182, 59, 106, 179, 3, 1.02941
273, 6, bw, filler, NA, 999, 999, 3, 9, 62, 82, 182, 59, 106, 179, 1, 0.490992
273, 6, bw, attraction, a-b-db, 2, 3, 3, 10, 119, 193, 120, 195, 195, 120, 2, 0.852743
273, 6, bw, attraction, a-b-db, 2, 3, 3, 10, 119, 193, 120, 195, 195, 120, 3, 0.553856
273, 6, bw, attraction, a-b-da, 2, 1, 3, 11, 134, 59, 60, 135, 135, 60, 2, 1.08161
273, 6, bw, attraction, a-b-da, 2, 1, 3, 11, 134, 59, 60, 135, 135, 60, 3, 0.437313
273, 6, bw, attraction, a-b-da, 14, 2, 3, 12, 165, 90, 90, 165, 153, 83, 1, 1.87373
273, 6, bw, attraction, a-b-da, 14, 2, 3, 12, 165, 90, 90, 165, 153, 83, 3, 0.43713
273, 6, bw, filler, NA, 999, 999, 3, 13, 185, 195, 113, 161, 126, 120, 1, 0.705503
273, 6, bw, filler, NA, 999, 999, 3, 13, 185, 195, 113, 161, 126, 120, 3, 0.395943
273, 6, bw, filler, NA, 999, 999, 3, 14, 162, 133, 177, 133, 76, 70, 2, 1.44178
273, 6, bw, filler, NA, 999, 999, 3, 14, 162, 133, 177, 133, 76, 70, 3, 0.910829
273, 6, bw, attraction, a-b-da, 5, 2, 3, 15, 90, 165, 165, 90, 161, 88, 3, 1.55963
273, 6, bw, attraction, a-b-da, 5, 2, 3, 15, 90, 165, 165, 90, 161, 88, 1, 0.495809
273, 6, bw, attraction, a-b-db, 9, 3, 3, 16, 195, 120, 114, 186, 120, 195, 3, 1.68953
273, 6, bw, attraction, a-b-db, 9, 3, 3, 16, 195, 120, 114, 186, 120, 195, 2, 1.00456
273, 6, bw, attraction, a-b-da, 14, 1, 3, 17, 135, 60, 60, 135, 125, 56, 2, 2.19393
273, 6, bw, attraction, a-b-da, 14, 1, 3, 17, 135, 60, 60, 135, 125, 56, 3, 1.15261
273, 6, bw, attraction, a-b-da, 9, 1, 3, 18, 129, 57, 60, 135, 135, 60, 2, 1.64023
273, 6, bw, attraction, a-b-da, 9, 1, 3, 18, 129, 57, 60, 135, 135, 60, 3, 0.300989
273, 6, bw, attraction, a-b-db, 2, 1, 3, 19, 135, 60, 59, 134, 60, 135, 1, 0.862901
273, 6, bw, attraction, a-b-db, 2, 1, 3, 19, 135, 60, 59, 134, 60, 135, 2, 0.427201
273, 6, bw, filler, NA, 999, 999, 3, 20, 169, 146, 184, 104, 153, 96, 1, 0.695875
273, 6, bw, filler, NA, 999, 999, 3, 20, 169, 146, 184, 104, 153, 96, 3, 0.610794
273, 6, bw, catch, NA, 999, 999, 3, 21, 139, 176, 98, 97, 132, 123, 1, 0.671801
273, 6, bw, catch, NA, 999, 999, 3, 21, 139, 176, 98, 97, 132, 123, 2, 0.886487
273, 6, bw, filler, NA, 999, 999, 3, 22, 107, 186, 164, 158, 62, 191, 2, 1.30995
273, 6, bw, filler, NA, 999, 999, 3, 22, 107, 186, 164, 158, 62, 191, 3, 0.43218
273, 6, bw, attraction, a-b-db, 5, 3, 3, 23, 120, 195, 117, 190, 195, 120, 3, 0.852633
273, 6, bw, attraction, a-b-db, 5, 3, 3, 23, 120, 195, 117, 190, 195, 120, 1, 0.385693
273, 6, bw, attraction, a-b-da, 14, 3, 3, 24, 181, 111, 120, 195, 195, 120, 2, 0.848161
273, 6, bw, attraction, a-b-da, 14, 3, 3, 24, 181, 111, 120, 195, 195, 120, 1, 0.389179
273, 6, bw, catch, NA, 999, 999, 3, 25, 68, 127, 142, 113, 125, 190, 3, 1.01182
273, 6, bw, catch, NA, 999, 999, 3, 25, 68, 127, 142, 113, 125, 190, 1, 0.402006
273, 6, bw, attraction, a-b-db, 5, 1, 3, 26, 60, 135, 58, 132, 135, 60, 2, 0.967906
273, 6, bw, attraction, a-b-db, 5, 1, 3, 26, 60, 135, 58, 132, 135, 60, 1, 0.408366
273, 6, bw, catch, NA, 999, 999, 3, 27, 156, 159, 117, 138, 105, 90, 1, 0.725277
273, 6, bw, catch, NA, 999, 999, 3, 27, 156, 159, 117, 138, 105, 90, 3, 0.375075
273, 6, bw, attraction, a-b-da, 2, 3, 3, 28, 195, 120, 120, 195, 193, 119, 3, 1.40558
273, 6, bw, attraction, a-b-da, 2, 3, 3, 28, 195, 120, 120, 195, 193, 119, 1, 0.347811
273, 6, bw, attraction, a-b-db, 14, 3, 3, 29, 195, 120, 120, 195, 111, 181, 2, 3.06758
273, 6, bw, attraction, a-b-db, 14, 3, 3, 29, 195, 120, 120, 195, 111, 181, 3, 0.335325
273, 6, bw, filler, NA, 999, 999, 3, 30, 180, 167, 143, 184, 112, 93, 1, 0.935725
273, 6, bw, filler, NA, 999, 999, 3, 30, 180, 167, 143, 184, 112, 93, 3, 0.569581
273, 6, bw, filler, NA, 999, 999, 3, 31, 147, 149, 61, 126, 179, 177, 3, 0.888594
273, 6, bw, filler, NA, 999, 999, 3, 31, 147, 149, 61, 126, 179, 177, 2, 0.507589
273, 6, bw, attraction, a-b-da, 2, 2, 3, 32, 163, 89, 165, 90, 90, 165, 2, 0.772806
273, 6, bw, attraction, a-b-da, 2, 2, 3, 32, 163, 89, 165, 90, 90, 165, 1, 0.292493
273, 6, bw, attraction, a-b-da, 5, 3, 3, 33, 120, 195, 195, 120, 190, 117, 2, 1.10232
273, 6, bw, attraction, a-b-da, 5, 3, 3, 33, 120, 195, 195, 120, 190, 117, 3, 0.281366
273, 6, bw, filler, NA, 999, 999, 3, 34, 151, 84, 109, 63, 156, 151, 3, 0.923785
273, 6, bw, filler, NA, 999, 999, 3, 34, 151, 84, 109, 63, 156, 151, 2, 0.565514
273, 6, bw, attraction, a-b-da, 9, 3, 3, 35, 120, 195, 186, 114, 195, 120, 2, 0.780499
273, 6, bw, attraction, a-b-da, 9, 3, 3, 35, 120, 195, 186, 114, 195, 120, 3, 0.316392
273, 6, bw, attraction, a-b-db, 9, 2, 3, 36, 86, 157, 90, 165, 165, 90, 2, 1.59754
273, 6, bw, attraction, a-b-db, 9, 2, 3, 36, 86, 157, 90, 165, 165, 90, 1, 0.444444
273, 6, bw, attraction, a-b-da, 9, 2, 3, 37, 157, 86, 165, 90, 90, 165, 2, 2.26413
273, 6, bw, attraction, a-b-da, 9, 2, 3, 37, 157, 86, 165, 90, 90, 165, 1, 0.46799
273, 6, bw, attraction, a-b-db, 14, 2, 4, 1, 165, 90, 83, 153, 90, 165, 3, 1.42324
273, 6, bw, attraction, a-b-db, 14, 2, 4, 1, 165, 90, 83, 153, 90, 165, 2, 0.420637
273, 6, bw, filler, NA, 999, 999, 4, 2, 66, 94, 193, 82, 190, 185, 3, 0.585762
273, 6, bw, filler, NA, 999, 999, 4, 2, 66, 94, 193, 82, 190, 185, 1, 1.25773
273, 6, bw, filler, NA, 999, 999, 4, 3, 94, 145, 134, 77, 78, 141, 1, 0.64444
273, 6, bw, filler, NA, 999, 999, 4, 3, 94, 145, 134, 77, 78, 141, 2, 0.377602
273, 6, bw, attraction, a-b-db, 2, 3, 4, 4, 120, 195, 119, 193, 195, 120, 2, 3.32009
273, 6, bw, attraction, a-b-db, 2, 3, 4, 4, 120, 195, 119, 193, 195, 120, 3, 0.329698
273, 6, bw, filler, NA, 999, 999, 4, 5, 105, 170, 59, 80, 131, 109, 1, 1.45814
273, 6, bw, filler, NA, 999, 999, 4, 5, 105, 170, 59, 80, 131, 109, 2, 0.454536
273, 6, bw, attraction, a-b-da, 14, 2, 4, 6, 165, 90, 153, 83, 90, 165, 3, 1.8981
273, 6, bw, attraction, a-b-da, 14, 2, 4, 6, 165, 90, 153, 83, 90, 165, 2, 0.532883
273, 6, bw, attraction, a-b-da, 9, 2, 4, 7, 90, 165, 165, 90, 157, 86, 1, 2.41334
273, 6, bw, attraction, a-b-da, 9, 2, 4, 7, 90, 165, 165, 90, 157, 86, 3, 0.939201
273, 6, bw, filler, NA, 999, 999, 4, 8, 168, 61, 102, 172, 147, 73, 2, 1.0195
273, 6, bw, filler, NA, 999, 999, 4, 8, 168, 61, 102, 172, 147, 73, 3, 1.57789
273, 6, bw, filler, NA, 999, 999, 4, 9, 189, 60, 92, 124, 77, 107, 2, 2.60797
273, 6, bw, filler, NA, 999, 999, 4, 9, 189, 60, 92, 124, 77, 107, 3, 0.661816
273, 6, bw, attraction, a-b-da, 5, 1, 4, 10, 132, 58, 60, 135, 135, 60, 3, 2.32088
273, 6, bw, attraction, a-b-da, 5, 1, 4, 10, 132, 58, 60, 135, 135, 60, 1, 0.570801
273, 6, bw, filler, NA, 999, 999, 4, 11, 131, 128, 131, 75, 135, 145, 3, 1.14594
273, 6, bw, filler, NA, 999, 999, 4, 11, 131, 128, 131, 75, 135, 145, 2, 0.378773
273, 6, bw, attraction, a-b-da, 2, 2, 4, 12, 90, 165, 163, 89, 165, 90, 2, 2.20122
273, 6, bw, attraction, a-b-da, 2, 2, 4, 12, 90, 165, 163, 89, 165, 90, 1, 1.17619
273, 6, bw, attraction, a-b-db, 9, 3, 4, 13, 114, 186, 120, 195, 195, 120, 2, 1.34221
273, 6, bw, attraction, a-b-db, 9, 3, 4, 13, 114, 186, 120, 195, 195, 120, 1, 0.423161
273, 6, bw, attraction, a-b-db, 2, 2, 4, 14, 89, 163, 90, 165, 165, 90, 3, 1.28357
273, 6, bw, attraction, a-b-db, 2, 2, 4, 14, 89, 163, 90, 165, 165, 90, 2, 0.447117
273, 6, bw, attraction, a-b-db, 9, 2, 4, 15, 165, 90, 90, 165, 86, 157, 2, 2.15492
273, 6, bw, attraction, a-b-db, 9, 2, 4, 15, 165, 90, 90, 165, 86, 157, 3, 0.834895
273, 6, bw, attraction, a-b-db, 14, 1, 4, 16, 135, 60, 60, 135, 56, 125, 1, 2.51128
273, 6, bw, attraction, a-b-db, 14, 1, 4, 16, 135, 60, 60, 135, 56, 125, 3, 1.01709
273, 6, bw, attraction, a-b-db, 9, 1, 4, 17, 135, 60, 60, 135, 57, 129, 1, 0.966074
273, 6, bw, attraction, a-b-db, 9, 1, 4, 17, 135, 60, 60, 135, 57, 129, 3, 0.542473
273, 6, bw, attraction, a-b-da, 2, 3, 4, 18, 193, 119, 120, 195, 195, 120, 3, 2.68625
273, 6, bw, attraction, a-b-da, 2, 3, 4, 18, 193, 119, 120, 195, 195, 120, 1, 1.02526
273, 6, bw, catch, NA, 999, 999, 4, 19, 115, 140, 135, 60, 169, 146, 3, 2.26163
273, 6, bw, catch, NA, 999, 999, 4, 19, 115, 140, 135, 60, 169, 146, 2, 0.537563
273, 6, bw, attraction, a-b-da, 9, 1, 4, 20, 60, 135, 135, 60, 129, 57, 2, 1.29794
273, 6, bw, attraction, a-b-da, 9, 1, 4, 20, 60, 135, 135, 60, 129, 57, 3, 0.540875
273, 6, bw, filler, NA, 999, 999, 4, 21, 156, 195, 67, 120, 141, 98, 1, 0.716703
273, 6, bw, filler, NA, 999, 999, 4, 21, 156, 195, 67, 120, 141, 98, 2, 0.806974
273, 6, bw, attraction, a-b-da, 14, 3, 4, 22, 181, 111, 120, 195, 195, 120, 2, 0.828122
273, 6, bw, attraction, a-b-da, 14, 3, 4, 22, 181, 111, 120, 195, 195, 120, 1, 0.329752
273, 6, bw, attraction, a-b-db, 14, 3, 4, 23, 195, 120, 111, 181, 120, 195, 2, 1.45825
273, 6, bw, attraction, a-b-db, 14, 3, 4, 23, 195, 120, 111, 181, 120, 195, 1, 0.686513
273, 6, bw, attraction, a-b-da, 2, 1, 4, 24, 134, 59, 60, 135, 135, 60, 3, 1.83285
273, 6, bw, attraction, a-b-da, 2, 1, 4, 24, 134, 59, 60, 135, 135, 60, 2, 0.566224
273, 6, bw, attraction, a-b-da, 9, 3, 4, 25, 195, 120, 186, 114, 120, 195, 1, 0.893314
273, 6, bw, attraction, a-b-da, 9, 3, 4, 25, 195, 120, 186, 114, 120, 195, 2, 0.368433
273, 6, bw, attraction, a-b-db, 5, 3, 4, 26, 120, 195, 117, 190, 195, 120, 2, 1.60758
273, 6, bw, attraction, a-b-db, 5, 3, 4, 26, 120, 195, 117, 190, 195, 120, 3, 0.479245
273, 6, bw, filler, NA, 999, 999, 4, 27, 166, 126, 63, 65, 159, 97, 1, 0.68023
273, 6, bw, filler, NA, 999, 999, 4, 27, 166, 126, 63, 65, 159, 97, 2, 0.38802
273, 6, bw, attraction, a-b-da, 14, 1, 4, 28, 125, 56, 60, 135, 135, 60, 2, 0.850362
273, 6, bw, attraction, a-b-da, 14, 1, 4, 28, 125, 56, 60, 135, 135, 60, 1, 0.391402
273, 6, bw, attraction, a-b-db, 2, 1, 4, 29, 60, 135, 135, 60, 59, 134, 2, 0.893235
273, 6, bw, attraction, a-b-db, 2, 1, 4, 29, 60, 135, 135, 60, 59, 134, 3, 0.392173
273, 6, bw, attraction, a-b-da, 5, 2, 4, 30, 90, 165, 165, 90, 161, 88, 2, 1.11808
273, 6, bw, attraction, a-b-da, 5, 2, 4, 30, 90, 165, 165, 90, 161, 88, 3, 0.736507
273, 6, bw, attraction, a-b-da, 5, 3, 4, 31, 120, 195, 190, 117, 195, 120, 3, 1.36898
273, 6, bw, attraction, a-b-da, 5, 3, 4, 31, 120, 195, 190, 117, 195, 120, 1, 0.456935
273, 6, bw, filler, NA, 999, 999, 4, 32, 76, 138, 191, 152, 161, 59, 2, 0.916026
273, 6, bw, filler, NA, 999, 999, 4, 32, 76, 138, 191, 152, 161, 59, 1, 0.56646
273, 6, bw, catch, NA, 999, 999, 4, 33, 182, 133, 91, 164, 71, 124, 1, 0.789468
273, 6, bw, catch, NA, 999, 999, 4, 33, 182, 133, 91, 164, 71, 124, 3, 0.532563
273, 6, bw, filler, NA, 999, 999, 4, 34, 178, 117, 61, 135, 138, 67, 1, 0.708999
273, 6, bw, filler, NA, 999, 999, 4, 34, 178, 117, 61, 135, 138, 67, 2, 0.487442
273, 6, bw, catch, NA, 999, 999, 4, 35, 165, 150, 71, 124, 165, 90, 1, 1.266
273, 6, bw, catch, NA, 999, 999, 4, 35, 165, 150, 71, 124, 165, 90, 2, 0.806203
273, 6, bw, attraction, a-b-db, 5, 2, 4, 36, 165, 90, 88, 161, 90, 165, 2, 1.6592
273, 6, bw, attraction, a-b-db, 5, 2, 4, 36, 165, 90, 88, 161, 90, 165, 1, 0.359391
273, 6, bw, attraction, a-b-db, 5, 1, 4, 37, 135, 60, 60, 135, 58, 132, 2, 1.43057
273, 6, bw, attraction, a-b-db, 5, 1, 4, 37, 135, 60, 60, 135, 58, 132, 1, 0.435954
273, 6, bw, attraction, a-b-db, 2, 1, 5, 1, 60, 135, 59, 134, 135, 60, 2, 3.13509
273, 6, bw, attraction, a-b-db, 2, 1, 5, 1, 60, 135, 59, 134, 135, 60, 3, 0.472086
273, 6, bw, attraction, a-b-db, 14, 3, 5, 2, 120, 195, 111, 181, 195, 120, 3, 0.979228
273, 6, bw, attraction, a-b-db, 14, 3, 5, 2, 120, 195, 111, 181, 195, 120, 1, 0.402821
273, 6, bw, filler, NA, 999, 999, 5, 3, 76, 102, 94, 175, 195, 131, 3, 1.0327
273, 6, bw, filler, NA, 999, 999, 5, 3, 76, 102, 94, 175, 195, 131, 1, 0.526311
273, 6, bw, attraction, a-b-db, 14, 2, 5, 4, 165, 90, 83, 153, 90, 165, 1, 0.902745
273, 6, bw, attraction, a-b-db, 14, 2, 5, 4, 165, 90, 83, 153, 90, 165, 2, 0.409832
273, 6, bw, filler, NA, 999, 999, 5, 5, 183, 183, 62, 120, 58, 81, 1, 0.670915
273, 6, bw, filler, NA, 999, 999, 5, 5, 183, 183, 62, 120, 58, 81, 3, 0.362701
273, 6, bw, attraction, a-b-da, 9, 2, 5, 6, 165, 90, 90, 165, 157, 86, 2, 0.713857
273, 6, bw, attraction, a-b-da, 9, 2, 5, 6, 165, 90, 90, 165, 157, 86, 3, 0.70246
273, 6, bw, attraction, a-b-db, 5, 2, 5, 7, 88, 161, 90, 165, 165, 90, 2, 0.790113
273, 6, bw, attraction, a-b-db, 5, 2, 5, 7, 88, 161, 90, 165, 165, 90, 3, 0.661169
273, 6, bw, attraction, a-b-da, 5, 2, 5, 8, 90, 165, 161, 88, 165, 90, 1, 1.20019
273, 6, bw, attraction, a-b-da, 5, 2, 5, 8, 90, 165, 161, 88, 165, 90, 2, 0.511124
273, 6, bw, attraction, a-b-db, 9, 3, 5, 9, 120, 195, 114, 186, 195, 120, 1, 1.6322
273, 6, bw, attraction, a-b-db, 9, 3, 5, 9, 120, 195, 114, 186, 195, 120, 3, 1.10179
273, 6, bw, filler, NA, 999, 999, 5, 10, 87, 62, 136, 181, 80, 81, 2, 0.751278
273, 6, bw, filler, NA, 999, 999, 5, 10, 87, 62, 136, 181, 80, 81, 3, 0.432332
273, 6, bw, attraction, a-b-da, 2, 2, 5, 11, 90, 165, 165, 90, 163, 89, 3, 0.908802
273, 6, bw, attraction, a-b-da, 2, 2, 5, 11, 90, 165, 165, 90, 163, 89, 2, 0.855173
273, 6, bw, attraction, a-b-db, 2, 2, 5, 12, 89, 163, 90, 165, 165, 90, 2, 0.794757
273, 6, bw, attraction, a-b-db, 2, 2, 5, 12, 89, 163, 90, 165, 165, 90, 1, 0.337921
273, 6, bw, attraction, a-b-da, 2, 3, 5, 13, 193, 119, 120, 195, 195, 120, 2, 0.682391
273, 6, bw, attraction, a-b-da, 2, 3, 5, 13, 193, 119, 120, 195, 195, 120, 3, 0.390192
273, 6, bw, filler, NA, 999, 999, 5, 14, 64, 88, 59, 98, 95, 157, 3, 0.812038
273, 6, bw, filler, NA, 999, 999, 5, 14, 64, 88, 59, 98, 95, 157, 1, 1.43439
273, 6, bw, filler, NA, 999, 999, 5, 15, 154, 110, 99, 120, 127, 111, 1, 0.726529
273, 6, bw, filler, NA, 999, 999, 5, 15, 154, 110, 99, 120, 127, 111, 2, 0.496216
273, 6, bw, attraction, a-b-da, 5, 1, 5, 16, 132, 58, 60, 135, 135, 60, 3, 2.41808
273, 6, bw, attraction, a-b-da, 5, 1, 5, 16, 132, 58, 60, 135, 135, 60, 2, 0.415983
273, 6, bw, attraction, a-b-db, 9, 1, 5, 17, 60, 135, 57, 129, 135, 60, 3, 1.87706
273, 6, bw, attraction, a-b-db, 9, 1, 5, 17, 60, 135, 57, 129, 135, 60, 2, 0.472597
273, 6, bw, attraction, a-b-da, 14, 2, 5, 18, 153, 83, 90, 165, 165, 90, 2, 2.11502
273, 6, bw, attraction, a-b-da, 14, 2, 5, 18, 153, 83, 90, 165, 165, 90, 1, 0.364894
273, 6, bw, catch, NA, 999, 999, 5, 19, 154, 161, 124, 131, 62, 133, 1, 0.788036
273, 6, bw, catch, NA, 999, 999, 5, 19, 154, 161, 124, 131, 62, 133, 3, 0.347127
273, 6, bw, filler, NA, 999, 999, 5, 20, 144, 169, 76, 154, 82, 96, 1, 0.651008
273, 6, bw, filler, NA, 999, 999, 5, 20, 144, 169, 76, 154, 82, 96, 3, 0.344077
273, 6, bw, attraction, a-b-db, 2, 3, 5, 21, 119, 193, 120, 195, 195, 120, 2, 1.78388
273, 6, bw, attraction, a-b-db, 2, 3, 5, 21, 119, 193, 120, 195, 195, 120, 3, 1.15937
273, 6, bw, filler, NA, 999, 999, 5, 22, 191, 171, 187, 79, 78, 136, 1, 0.678227
273, 6, bw, filler, NA, 999, 999, 5, 22, 191, 171, 187, 79, 78, 136, 3, 0.602004
273, 6, bw, attraction, a-b-da, 2, 1, 5, 23, 60, 135, 134, 59, 135, 60, 3, 1.31977
273, 6, bw, attraction, a-b-da, 2, 1, 5, 23, 60, 135, 134, 59, 135, 60, 2, 0.897937
273, 6, bw, attraction, a-b-db, 14, 1, 5, 24, 135, 60, 56, 125, 60, 135, 3, 1.86758
273, 6, bw, attraction, a-b-db, 14, 1, 5, 24, 135, 60, 56, 125, 60, 135, 2, 0.759753
273, 6, bw, attraction, a-b-da, 14, 3, 5, 25, 195, 120, 181, 111, 120, 195, 3, 1.38277
273, 6, bw, attraction, a-b-da, 14, 3, 5, 25, 195, 120, 181, 111, 120, 195, 2, 0.726246
273, 6, bw, attraction, a-b-da, 5, 3, 5, 26, 120, 195, 195, 120, 190, 117, 2, 1.59058
273, 6, bw, attraction, a-b-da, 5, 3, 5, 26, 120, 195, 195, 120, 190, 117, 1, 0.389552
273, 6, bw, attraction, a-b-da, 14, 1, 5, 27, 135, 60, 60, 135, 125, 56, 2, 1.26724
273, 6, bw, attraction, a-b-da, 14, 1, 5, 27, 135, 60, 60, 135, 125, 56, 3, 0.791509
273, 6, bw, filler, NA, 999, 999, 5, 28, 185, 148, 178, 94, 166, 181, 3, 1.82121
273, 6, bw, filler, NA, 999, 999, 5, 28, 185, 148, 178, 94, 166, 181, 2, 0.490647
273, 6, bw, attraction, a-b-da, 9, 1, 5, 29, 60, 135, 135, 60, 129, 57, 2, 2.43635
273, 6, bw, attraction, a-b-da, 9, 1, 5, 29, 60, 135, 135, 60, 129, 57, 3, 0.889597
273, 6, bw, catch, NA, 999, 999, 5, 30, 140, 115, 108, 87, 191, 124, 3, 1.02725
273, 6, bw, catch, NA, 999, 999, 5, 30, 140, 115, 108, 87, 191, 124, 2, 0.344995
273, 6, bw, attraction, a-b-da, 9, 3, 5, 31, 186, 114, 195, 120, 120, 195, 2, 1.49675
273, 6, bw, attraction, a-b-da, 9, 3, 5, 31, 186, 114, 195, 120, 120, 195, 1, 0.755586
273, 6, bw, attraction, a-b-db, 5, 1, 5, 32, 135, 60, 58, 132, 60, 135, 1, 1.60327
273, 6, bw, attraction, a-b-db, 5, 1, 5, 32, 135, 60, 58, 132, 60, 135, 3, 0.537427
273, 6, bw, filler, NA, 999, 999, 5, 33, 131, 69, 178, 181, 132, 106, 2, 0.937814
273, 6, bw, filler, NA, 999, 999, 5, 33, 131, 69, 178, 181, 132, 106, 1, 0.730844
273, 6, bw, attraction, a-b-db, 5, 3, 5, 34, 120, 195, 195, 120, 117, 190, 1, 2.32324
273, 6, bw, attraction, a-b-db, 5, 3, 5, 34, 120, 195, 195, 120, 117, 190, 2, 2.0925
273, 6, bw, catch, NA, 999, 999, 5, 35, 123, 72, 137, 178, 101, 154, 2, 1.02976
273, 6, bw, catch, NA, 999, 999, 5, 35, 123, 72, 137, 178, 101, 154, 1, 0.675518
273, 6, bw, filler, NA, 999, 999, 5, 36, 142, 148, 164, 84, 82, 108, 1, 1.22186
273, 6, bw, filler, NA, 999, 999, 5, 36, 142, 148, 164, 84, 82, 108, 3, 0.315664
273, 6, bw, attraction, a-b-db, 9, 2, 5, 37, 165, 90, 90, 165, 86, 157, 2, 1.1246
273, 6, bw, attraction, a-b-db, 9, 2, 5, 37, 165, 90, 90, 165, 86, 157, 1, 0.334137
273, 6, bw, attraction, a-b-da, 2, 1, 6, 1, 134, 59, 135, 60, 60, 135, 3, 0.990763
273, 6, bw, attraction, a-b-da, 2, 1, 6, 1, 134, 59, 135, 60, 60, 135, 2, 0.317745
273, 6, bw, catch, NA, 999, 999, 6, 2, 98, 157, 134, 181, 103, 92, 2, 1.23095
273, 6, bw, catch, NA, 999, 999, 6, 2, 98, 157, 134, 181, 103, 92, 3, 0.324539
273, 6, bw, filler, NA, 999, 999, 6, 3, 142, 131, 81, 119, 85, 171, 1, 0.733109
273, 6, bw, filler, NA, 999, 999, 6, 3, 142, 131, 81, 119, 85, 171, 2, 0.366767
273, 6, bw, attraction, a-b-db, 5, 3, 6, 4, 195, 120, 120, 195, 117, 190, 2, 1.12589
273, 6, bw, attraction, a-b-db, 5, 3, 6, 4, 195, 120, 120, 195, 117, 190, 1, 0.431573
273, 6, bw, filler, NA, 999, 999, 6, 5, 169, 115, 89, 86, 84, 195, 1, 0.763937
273, 6, bw, filler, NA, 999, 999, 6, 5, 169, 115, 89, 86, 84, 195, 2, 0.332503
273, 6, bw, attraction, a-b-da, 14, 3, 6, 6, 120, 195, 181, 111, 195, 120, 2, 0.764912
273, 6, bw, attraction, a-b-da, 14, 3, 6, 6, 120, 195, 181, 111, 195, 120, 1, 0.389306
273, 6, bw, attraction, a-b-db, 9, 1, 6, 7, 135, 60, 60, 135, 57, 129, 1, 1.25186
273, 6, bw, attraction, a-b-db, 9, 1, 6, 7, 135, 60, 60, 135, 57, 129, 3, 0.416681
273, 6, bw, attraction, a-b-da, 9, 2, 6, 8, 90, 165, 157, 86, 165, 90, 3, 0.821855
273, 6, bw, attraction, a-b-da, 9, 2, 6, 8, 90, 165, 157, 86, 165, 90, 1, 0.339567
273, 6, bw, attraction, a-b-da, 5, 2, 6, 9, 90, 165, 165, 90, 161, 88, 2, 0.915372
273, 6, bw, attraction, a-b-da, 5, 2, 6, 9, 90, 165, 165, 90, 161, 88, 1, 0.349773
273, 6, bw, attraction, a-b-db, 5, 1, 6, 10, 60, 135, 135, 60, 58, 132, 1, 1.31775
273, 6, bw, attraction, a-b-db, 5, 1, 6, 10, 60, 135, 135, 60, 58, 132, 2, 0.343814
273, 6, bw, filler, NA, 999, 999, 6, 11, 66, 63, 167, 154, 119, 143, 2, 0.983653
273, 6, bw, filler, NA, 999, 999, 6, 11, 66, 63, 167, 154, 119, 143, 1, 0.327333
273, 6, bw, filler, NA, 999, 999, 6, 12, 56, 92, 69, 105, 178, 190, 3, 0.615769
273, 6, bw, filler, NA, 999, 999, 6, 12, 56, 92, 69, 105, 178, 190, 1, 0.406256
273, 6, bw, filler, NA, 999, 999, 6, 13, 187, 84, 111, 157, 71, 100, 2, 2.30744
273, 6, bw, filler, NA, 999, 999, 6, 13, 187, 84, 111, 157, 71, 100, 3, 0.517405
273, 6, bw, filler, NA, 999, 999, 6, 14, 133, 91, 141, 59, 114, 170, 3, 1.87041
273, 6, bw, filler, NA, 999, 999, 6, 14, 133, 91, 141, 59, 114, 170, 2, 0.458564
273, 6, bw, attraction, a-b-db, 14, 3, 6, 15, 120, 195, 111, 181, 195, 120, 2, 1.18169
273, 6, bw, attraction, a-b-db, 14, 3, 6, 15, 120, 195, 111, 181, 195, 120, 1, 0.413367
273, 6, bw, attraction, a-b-da, 14, 1, 6, 16, 60, 135, 135, 60, 125, 56, 2, 1.06654
273, 6, bw, attraction, a-b-da, 14, 1, 6, 16, 60, 135, 135, 60, 125, 56, 1, 0.33471
273, 6, bw, attraction, a-b-db, 9, 3, 6, 17, 120, 195, 195, 120, 114, 186, 1, 0.815183
273, 6, bw, attraction, a-b-db, 9, 3, 6, 17, 120, 195, 195, 120, 114, 186, 2, 0.349583
273, 6, bw, attraction, a-b-db, 9, 2, 6, 18, 90, 165, 86, 157, 165, 90, 1, 1.76541
273, 6, bw, attraction, a-b-db, 9, 2, 6, 18, 90, 165, 86, 157, 165, 90, 3, 0.629516
273, 6, bw, attraction, a-b-da, 9, 1, 6, 19, 129, 57, 60, 135, 135, 60, 2, 1.04996
273, 6, bw, attraction, a-b-da, 9, 1, 6, 19, 129, 57, 60, 135, 135, 60, 1, 1.0229
273, 6, bw, attraction, a-b-da, 9, 3, 6, 20, 195, 120, 120, 195, 186, 114, 2, 1.21916
273, 6, bw, attraction, a-b-da, 9, 3, 6, 20, 195, 120, 120, 195, 186, 114, 3, 0.361434
273, 6, bw, filler, NA, 999, 999, 6, 21, 63, 127, 140, 127, 81, 195, 2, 1.65677
273, 6, bw, filler, NA, 999, 999, 6, 21, 63, 127, 140, 127, 81, 195, 1, 0.36487
273, 6, bw, attraction, a-b-db, 2, 1, 6, 22, 60, 135, 135, 60, 59, 134, 1, 1.08398
273, 6, bw, attraction, a-b-db, 2, 1, 6, 22, 60, 135, 135, 60, 59, 134, 2, 0.407471
273, 6, bw, attraction, a-b-db, 2, 2, 6, 23, 90, 165, 89, 163, 165, 90, 2, 1.46868
273, 6, bw, attraction, a-b-db, 2, 2, 6, 23, 90, 165, 89, 163, 165, 90, 3, 0.4969
273, 6, bw, attraction, a-b-db, 2, 3, 6, 24, 119, 193, 195, 120, 120, 195, 1, 1.24265
273, 6, bw, attraction, a-b-db, 2, 3, 6, 24, 119, 193, 195, 120, 120, 195, 2, 0.527622
273, 6, bw, attraction, a-b-da, 5, 3, 6, 25, 120, 195, 195, 120, 190, 117, 2, 1.12814
273, 6, bw, attraction, a-b-da, 5, 3, 6, 25, 120, 195, 195, 120, 190, 117, 3, 0.473681
273, 6, bw, filler, NA, 999, 999, 6, 26, 73, 117, 79, 162, 76, 113, 2, 1.43615
273, 6, bw, filler, NA, 999, 999, 6, 26, 73, 117, 79, 162, 76, 113, 1, 0.681591
273, 6, bw, filler, NA, 999, 999, 6, 27, 183, 160, 193, 75, 124, 73, 1, 0.819958
273, 6, bw, filler, NA, 999, 999, 6, 27, 183, 160, 193, 75, 124, 73, 3, 0.5544
273, 6, bw, attraction, a-b-da, 2, 2, 6, 28, 163, 89, 90, 165, 165, 90, 2, 1.33016
273, 6, bw, attraction, a-b-da, 2, 2, 6, 28, 163, 89, 90, 165, 165, 90, 3, 0.379698
273, 6, bw, attraction, a-b-db, 5, 2, 6, 29, 88, 161, 165, 90, 90, 165, 1, 1.8823
273, 6, bw, attraction, a-b-db, 5, 2, 6, 29, 88, 161, 165, 90, 90, 165, 3, 0.60569
273, 6, bw, attraction, a-b-db, 14, 1, 6, 30, 135, 60, 60, 135, 56, 125, 1, 1.39541
273, 6, bw, attraction, a-b-db, 14, 1, 6, 30, 135, 60, 60, 135, 56, 125, 3, 0.378226
273, 6, bw, attraction, a-b-db, 14, 2, 6, 31, 165, 90, 83, 153, 90, 165, 1, 2.07281
273, 6, bw, attraction, a-b-db, 14, 2, 6, 31, 165, 90, 83, 153, 90, 165, 2, 0.410401
273, 6, bw, catch, NA, 999, 999, 6, 32, 135, 180, 103, 152, 108, 87, 1, 0.713191
273, 6, bw, catch, NA, 999, 999, 6, 32, 135, 180, 103, 152, 108, 87, 3, 0.355537
273, 6, bw, attraction, a-b-da, 2, 3, 6, 33, 193, 119, 195, 120, 120, 195, 3, 1.26745
273, 6, bw, attraction, a-b-da, 2, 3, 6, 33, 193, 119, 195, 120, 120, 195, 2, 0.431702
273, 6, bw, attraction, a-b-da, 5, 1, 6, 34, 60, 135, 135, 60, 132, 58, 1, 1.98021
273, 6, bw, attraction, a-b-da, 5, 1, 6, 34, 60, 135, 135, 60, 132, 58, 3, 0.831685
273, 6, bw, catch, NA, 999, 999, 6, 35, 161, 94, 91, 104, 195, 120, 3, 0.943995
273, 6, bw, catch, NA, 999, 999, 6, 35, 161, 94, 91, 104, 195, 120, 2, 0.320836
273, 6, bw, filler, NA, 999, 999, 6, 36, 127, 140, 176, 76, 165, 176, 3, 0.658007
273, 6, bw, filler, NA, 999, 999, 6, 36, 127, 140, 176, 76, 165, 176, 2, 0.342502
273, 6, bw, attraction, a-b-da, 14, 2, 6, 37, 90, 165, 153, 83, 165, 90, 1, 2.16625
273, 6, bw, attraction, a-b-da, 14, 2, 6, 37, 90, 165, 153, 83, 165, 90, 2, 0.502298
273, 6, bw, attraction, a-b-db, 2, 3, 7, 1, 119, 193, 120, 195, 195, 120, 2, 1.07201
273, 6, bw, attraction, a-b-db, 2, 3, 7, 1, 119, 193, 120, 195, 195, 120, 3, 0.699726
273, 6, bw, attraction, a-b-da, 5, 3, 7, 2, 120, 195, 190, 117, 195, 120, 1, 2.53342
273, 6, bw, attraction, a-b-da, 5, 3, 7, 2, 120, 195, 190, 117, 195, 120, 2, 1.02256
273, 6, bw, filler, NA, 999, 999, 7, 3, 162, 146, 184, 72, 113, 100, 1, 0.563493
273, 6, bw, filler, NA, 999, 999, 7, 3, 162, 146, 184, 72, 113, 100, 3, 0.484058
273, 6, bw, attraction, a-b-da, 9, 3, 7, 4, 186, 114, 195, 120, 120, 195, 2, 0.9505
273, 6, bw, attraction, a-b-da, 9, 3, 7, 4, 186, 114, 195, 120, 120, 195, 1, 0.999535
273, 6, bw, attraction, a-b-db, 9, 3, 7, 5, 114, 186, 195, 120, 120, 195, 3, 1.00514
273, 6, bw, attraction, a-b-db, 9, 3, 7, 5, 114, 186, 195, 120, 120, 195, 2, 0.851471
273, 6, bw, filler, NA, 999, 999, 7, 6, 108, 169, 69, 140, 83, 191, 1, 0.895032
273, 6, bw, filler, NA, 999, 999, 7, 6, 108, 169, 69, 140, 83, 191, 2, 1.08209
273, 6, bw, attraction, a-b-da, 14, 3, 7, 7, 120, 195, 181, 111, 195, 120, 1, 1.17243
273, 6, bw, attraction, a-b-da, 14, 3, 7, 7, 120, 195, 181, 111, 195, 120, 2, 0.859965
273, 6, bw, attraction, a-b-da, 9, 2, 7, 8, 157, 86, 90, 165, 165, 90, 2, 0.991132
273, 6, bw, attraction, a-b-da, 9, 2, 7, 8, 157, 86, 90, 165, 165, 90, 1, 0.862052
273, 6, bw, attraction, a-b-db, 2, 1, 7, 9, 59, 134, 60, 135, 135, 60, 2, 1.34504
273, 6, bw, attraction, a-b-db, 2, 1, 7, 9, 59, 134, 60, 135, 135, 60, 1, 0.433903
273, 6, bw, attraction, a-b-da, 9, 1, 7, 10, 60, 135, 129, 57, 135, 60, 1, 0.798323
273, 6, bw, attraction, a-b-da, 9, 1, 7, 10, 60, 135, 129, 57, 135, 60, 2, 0.853419
273, 6, bw, catch, NA, 999, 999, 7, 11, 172, 143, 124, 131, 114, 81, 1, 0.609079
273, 6, bw, catch, NA, 999, 999, 7, 11, 172, 143, 124, 131, 114, 81, 3, 0.599565
273, 6, bw, filler, NA, 999, 999, 7, 12, 183, 187, 130, 124, 57, 89, 1, 0.709325
273, 6, bw, filler, NA, 999, 999, 7, 12, 183, 187, 130, 124, 57, 89, 3, 0.631782
273, 6, bw, attraction, a-b-db, 5, 2, 7, 13, 90, 165, 165, 90, 88, 161, 1, 0.852211
273, 6, bw, attraction, a-b-db, 5, 2, 7, 13, 90, 165, 165, 90, 88, 161, 3, 0.449145
273, 6, bw, filler, NA, 999, 999, 7, 14, 120, 75, 72, 115, 60, 80, 1, 1.51704
273, 6, bw, filler, NA, 999, 999, 7, 14, 120, 75, 72, 115, 60, 80, 3, 0.647286
273, 6, bw, attraction, a-b-db, 9, 1, 7, 15, 60, 135, 57, 129, 135, 60, 3, 2.85887
273, 6, bw, attraction, a-b-db, 9, 1, 7, 15, 60, 135, 57, 129, 135, 60, 2, 0.678686
273, 6, bw, filler, NA, 999, 999, 7, 16, 172, 166, 105, 187, 183, 71, 1, 0.657088
273, 6, bw, filler, NA, 999, 999, 7, 16, 172, 166, 105, 187, 183, 71, 2, 0.869608
273, 6, bw, catch, NA, 999, 999, 7, 17, 136, 179, 80, 115, 126, 129, 1, 1.84044
273, 6, bw, catch, NA, 999, 999, 7, 17, 136, 179, 80, 115, 126, 129, 2, 0.765211
273, 6, bw, attraction, a-b-db, 14, 3, 7, 18, 195, 120, 111, 181, 120, 195, 1, 0.844244
273, 6, bw, attraction, a-b-db, 14, 3, 7, 18, 195, 120, 111, 181, 120, 195, 3, 0.641283
273, 6, bw, attraction, a-b-da, 5, 1, 7, 19, 135, 60, 60, 135, 132, 58, 1, 1.34101
273, 6, bw, attraction, a-b-da, 5, 1, 7, 19, 135, 60, 60, 135, 132, 58, 2, 1.07796
273, 6, bw, attraction, a-b-da, 14, 1, 7, 20, 135, 60, 125, 56, 60, 135, 1, 1.52027
273, 6, bw, attraction, a-b-da, 14, 1, 7, 20, 135, 60, 125, 56, 60, 135, 2, 0.698346
273, 6, bw, attraction, a-b-db, 14, 1, 7, 21, 56, 125, 135, 60, 60, 135, 2, 1.10017
273, 6, bw, attraction, a-b-db, 14, 1, 7, 21, 56, 125, 135, 60, 60, 135, 1, 1.66303
273, 6, bw, attraction, a-b-db, 14, 2, 7, 22, 165, 90, 83, 153, 90, 165, 1, 1.24181
273, 6, bw, attraction, a-b-db, 14, 2, 7, 22, 165, 90, 83, 153, 90, 165, 2, 0.646718
273, 6, bw, attraction, a-b-db, 5, 3, 7, 23, 195, 120, 117, 190, 120, 195, 1, 0.978527
273, 6, bw, attraction, a-b-db, 5, 3, 7, 23, 195, 120, 117, 190, 120, 195, 2, 0.61809
273, 6, bw, filler, NA, 999, 999, 7, 24, 122, 157, 87, 107, 71, 104, 1, 0.903282
273, 6, bw, filler, NA, 999, 999, 7, 24, 122, 157, 87, 107, 71, 104, 3, 0.586192
273, 6, bw, attraction, a-b-da, 14, 2, 7, 25, 165, 90, 153, 83, 90, 165, 1, 0.904604
273, 6, bw, attraction, a-b-da, 14, 2, 7, 25, 165, 90, 153, 83, 90, 165, 2, 0.619037
273, 6, bw, attraction, a-b-da, 5, 2, 7, 26, 161, 88, 90, 165, 165, 90, 2, 2.37607
273, 6, bw, attraction, a-b-da, 5, 2, 7, 26, 161, 88, 90, 165, 165, 90, 1, 0.431308
273, 6, bw, attraction, a-b-db, 2, 2, 7, 27, 90, 165, 165, 90, 89, 163, 1, 1.7398
273, 6, bw, attraction, a-b-db, 2, 2, 7, 27, 90, 165, 165, 90, 89, 163, 2, 0.556649
273, 6, bw, filler, NA, 999, 999, 7, 28, 116, 187, 103, 111, 99, 135, 1, 0.747647
273, 6, bw, filler, NA, 999, 999, 7, 28, 116, 187, 103, 111, 99, 135, 2, 0.476689
273, 6, bw, attraction, a-b-da, 2, 2, 7, 29, 90, 165, 165, 90, 163, 89, 2, 1.07116
273, 6, bw, attraction, a-b-da, 2, 2, 7, 29, 90, 165, 165, 90, 163, 89, 1, 0.666787
273, 6, bw, attraction, a-b-db, 9, 2, 7, 30, 86, 157, 165, 90, 90, 165, 2, 0.941861
273, 6, bw, attraction, a-b-db, 9, 2, 7, 30, 86, 157, 165, 90, 90, 165, 1, 0.582926
273, 6, bw, filler, NA, 999, 999, 7, 31, 70, 170, 92, 109, 145, 148, 3, 0.845365
273, 6, bw, filler, NA, 999, 999, 7, 31, 70, 170, 92, 109, 145, 148, 2, 1.58644
273, 6, bw, attraction, a-b-da, 2, 1, 7, 32, 134, 59, 60, 135, 135, 60, 1, 1.43248
273, 6, bw, attraction, a-b-da, 2, 1, 7, 32, 134, 59, 60, 135, 135, 60, 2, 0.734177
273, 6, bw, filler, NA, 999, 999, 7, 33, 137, 185, 134, 114, 92, 132, 1, 0.614389
273, 6, bw, filler, NA, 999, 999, 7, 33, 137, 185, 134, 114, 92, 132, 3, 0.548783
273, 6, bw, attraction, a-b-da, 2, 3, 7, 34, 193, 119, 120, 195, 195, 120, 2, 0.80451
273, 6, bw, attraction, a-b-da, 2, 3, 7, 34, 193, 119, 120, 195, 195, 120, 1, 0.626972
273, 6, bw, catch, NA, 999, 999, 7, 35, 72, 123, 110, 145, 146, 169, 3, 0.935463
273, 6, bw, catch, NA, 999, 999, 7, 35, 72, 123, 110, 145, 146, 169, 1, 0.441051
273, 6, bw, attraction, a-b-db, 5, 1, 7, 36, 135, 60, 58, 132, 60, 135, 1, 0.884902
273, 6, bw, attraction, a-b-db, 5, 1, 7, 36, 135, 60, 58, 132, 60, 135, 2, 0.928621
273, 6, bw, filler, NA, 999, 999, 7, 37, 81, 98, 71, 112, 79, 58, 2, 1.09692
273, 6, bw, filler, NA, 999, 999, 7, 37, 81, 98, 71, 112, 79, 58, 3, 0.611848
273, 6, bw, attraction, a-b-db, 9, 3, 8, 1, 195, 120, 114, 186, 120, 195, 1, 3.62499
273, 6, bw, attraction, a-b-db, 9, 3, 8, 1, 195, 120, 114, 186, 120, 195, 2, 0.389781
273, 6, bw, attraction, a-b-da, 14, 3, 8, 2, 195, 120, 120, 195, 181, 111, 2, 0.827554
273, 6, bw, attraction, a-b-da, 14, 3, 8, 2, 195, 120, 120, 195, 181, 111, 3, 0.425369
273, 6, bw, attraction, a-b-da, 5, 1, 8, 3, 132, 58, 135, 60, 60, 135, 2, 1.37382
273, 6, bw, attraction, a-b-da, 5, 1, 8, 3, 132, 58, 135, 60, 60, 135, 3, 0.845386
273, 6, bw, attraction, a-b-db, 14, 1, 8, 4, 135, 60, 60, 135, 56, 125, 1, 1.26509
273, 6, bw, attraction, a-b-db, 14, 1, 8, 4, 135, 60, 60, 135, 56, 125, 3, 0.5253
273, 6, bw, attraction, a-b-da, 9, 2, 8, 5, 90, 165, 157, 86, 165, 90, 2, 1.70173
273, 6, bw, attraction, a-b-da, 9, 2, 8, 5, 90, 165, 157, 86, 165, 90, 1, 0.616447
273, 6, bw, attraction, a-b-db, 14, 2, 8, 6, 90, 165, 165, 90, 83, 153, 2, 0.925571
273, 6, bw, attraction, a-b-db, 14, 2, 8, 6, 90, 165, 165, 90, 83, 153, 3, 0.847239
273, 6, bw, attraction, a-b-da, 2, 1, 8, 7, 135, 60, 134, 59, 60, 135, 2, 1.17106
273, 6, bw, attraction, a-b-da, 2, 1, 8, 7, 135, 60, 134, 59, 60, 135, 3, 0.874692
273, 6, bw, filler, NA, 999, 999, 8, 8, 101, 115, 71, 154, 136, 136, 3, 0.820878
273, 6, bw, filler, NA, 999, 999, 8, 8, 101, 115, 71, 154, 136, 136, 1, 1.31463
273, 6, bw, filler, NA, 999, 999, 8, 9, 175, 125, 74, 123, 130, 168, 1, 0.803406
273, 6, bw, filler, NA, 999, 999, 8, 9, 175, 125, 74, 123, 130, 168, 2, 0.321922
273, 6, bw, attraction, a-b-db, 2, 2, 8, 10, 89, 163, 90, 165, 165, 90, 2, 1.29094
273, 6, bw, attraction, a-b-db, 2, 2, 8, 10, 89, 163, 90, 165, 165, 90, 1, 0.285866
273, 6, bw, attraction, a-b-da, 9, 1, 8, 11, 135, 60, 129, 57, 60, 135, 2, 1.35236
273, 6, bw, attraction, a-b-da, 9, 1, 8, 11, 135, 60, 129, 57, 60, 135, 3, 0.929331
273, 6, bw, filler, NA, 999, 999, 8, 12, 64, 59, 173, 163, 130, 144, 2, 0.697611
273, 6, bw, filler, NA, 999, 999, 8, 12, 64, 59, 173, 163, 130, 144, 1, 0.404881
273, 6, bw, catch, NA, 999, 999, 8, 13, 170, 145, 89, 106, 139, 116, 1, 0.770565
273, 6, bw, catch, NA, 999, 999, 8, 13, 170, 145, 89, 106, 139, 116, 2, 0.402256
273, 6, bw, filler, NA, 999, 999, 8, 14, 67, 155, 71, 176, 69, 193, 2, 0.800077
273, 6, bw, filler, NA, 999, 999, 8, 14, 67, 155, 71, 176, 69, 193, 1, 0.367128
273, 6, bw, filler, NA, 999, 999, 8, 15, 146, 119, 185, 127, 193, 150, 3, 0.678289
273, 6, bw, filler, NA, 999, 999, 8, 15, 146, 119, 185, 127, 193, 150, 1, 0.570042
273, 6, bw, attraction, a-b-da, 9, 3, 8, 16, 120, 195, 186, 114, 195, 120, 1, 2.67318
273, 6, bw, attraction, a-b-da, 9, 3, 8, 16, 120, 195, 186, 114, 195, 120, 2, 0.78826
273, 6, bw, attraction, a-b-da, 2, 3, 8, 17, 195, 120, 193, 119, 120, 195, 2, 1.12272
273, 6, bw, attraction, a-b-da, 2, 3, 8, 17, 195, 120, 193, 119, 120, 195, 3, 0.561969
273, 6, bw, filler, NA, 999, 999, 8, 18, 123, 120, 158, 62, 148, 108, 3, 1.0994
273, 6, bw, filler, NA, 999, 999, 8, 18, 123, 120, 158, 62, 148, 108, 2, 1.06237
273, 6, bw, filler, NA, 999, 999, 8, 19, 151, 58, 160, 159, 110, 152, 2, 0.737236
273, 6, bw, filler, NA, 999, 999, 8, 19, 151, 58, 160, 159, 110, 152, 1, 0.554284
273, 6, bw, attraction, a-b-db, 5, 3, 8, 20, 195, 120, 120, 195, 117, 190, 1, 1.16209
273, 6, bw, attraction, a-b-db, 5, 3, 8, 20, 195, 120, 120, 195, 117, 190, 3, 0.642481
273, 6, bw, filler, NA, 999, 999, 8, 21, 188, 178, 153, 102, 186, 157, 1, 0.99812
273, 6, bw, filler, NA, 999, 999, 8, 21, 188, 178, 153, 102, 186, 157, 2, 0.525125
273, 6, bw, attraction, a-b-da, 2, 2, 8, 22, 163, 89, 165, 90, 90, 165, 2, 1.4856
273, 6, bw, attraction, a-b-da, 2, 2, 8, 22, 163, 89, 165, 90, 90, 165, 1, 0.465045
273, 6, bw, catch, NA, 999, 999, 8, 23, 93, 162, 151, 164, 96, 99, 2, 1.12421
273, 6, bw, catch, NA, 999, 999, 8, 23, 93, 162, 151, 164, 96, 99, 3, 0.437912
273, 6, bw, catch, NA, 999, 999, 8, 24, 107, 88, 117, 138, 170, 145, 3, 1.12228
273, 6, bw, catch, NA, 999, 999, 8, 24, 107, 88, 117, 138, 170, 145, 1, 1.15592
273, 6, bw, attraction, a-b-db, 5, 1, 8, 25, 60, 135, 58, 132, 135, 60, 3, 1.87545
273, 6, bw, attraction, a-b-db, 5, 1, 8, 25, 60, 135, 58, 132, 135, 60, 2, 0.502998
273, 6, bw, attraction, a-b-da, 5, 2, 8, 26, 165, 90, 90, 165, 161, 88, 1, 1.3607
273, 6, bw, attraction, a-b-da, 5, 2, 8, 26, 165, 90, 90, 165, 161, 88, 2, 0.43301
273, 6, bw, attraction, a-b-db, 9, 2, 8, 27, 165, 90, 86, 157, 90, 165, 2, 1.58932
273, 6, bw, attraction, a-b-db, 9, 2, 8, 27, 165, 90, 86, 157, 90, 165, 3, 0.500183
273, 6, bw, attraction, a-b-db, 5, 2, 8, 28, 90, 165, 88, 161, 165, 90, 3, 1.78192
273, 6, bw, attraction, a-b-db, 5, 2, 8, 28, 90, 165, 88, 161, 165, 90, 2, 1.01335
273, 6, bw, attraction, a-b-da, 14, 2, 8, 29, 90, 165, 153, 83, 165, 90, 3, 2.16246
273, 6, bw, attraction, a-b-da, 14, 2, 8, 29, 90, 165, 153, 83, 165, 90, 2, 0.426341
273, 6, bw, filler, NA, 999, 999, 8, 30, 144, 185, 75, 127, 90, 73, 1, 0.990773
273, 6, bw, filler, NA, 999, 999, 8, 30, 144, 185, 75, 127, 90, 73, 3, 0.445797
273, 6, bw, attraction, a-b-da, 5, 3, 8, 31, 120, 195, 190, 117, 195, 120, 3, 1.20967
273, 6, bw, attraction, a-b-da, 5, 3, 8, 31, 120, 195, 190, 117, 195, 120, 2, 0.415869
273, 6, bw, attraction, a-b-db, 2, 3, 8, 32, 120, 195, 119, 193, 195, 120, 3, 1.20513
273, 6, bw, attraction, a-b-db, 2, 3, 8, 32, 120, 195, 119, 193, 195, 120, 1, 0.355245
273, 6, bw, attraction, a-b-db, 14, 3, 8, 33, 111, 181, 120, 195, 195, 120, 2, 2.2752
273, 6, bw, attraction, a-b-db, 14, 3, 8, 33, 111, 181, 120, 195, 195, 120, 1, 0.494297
273, 6, bw, attraction, a-b-db, 9, 1, 8, 34, 60, 135, 57, 129, 135, 60, 1, 1.35209
273, 6, bw, attraction, a-b-db, 9, 1, 8, 34, 60, 135, 57, 129, 135, 60, 2, 1.00905
273, 6, bw, attraction, a-b-da, 14, 1, 8, 35, 60, 135, 125, 56, 135, 60, 3, 2.52597
273, 6, bw, attraction, a-b-da, 14, 1, 8, 35, 60, 135, 125, 56, 135, 60, 2, 0.551115
273, 6, bw, filler, NA, 999, 999, 8, 36, 185, 153, 157, 177, 73, 130, 1, 1.20689
273, 6, bw, filler, NA, 999, 999, 8, 36, 185, 153, 157, 177, 73, 130, 3, 0.813171
273, 6, bw, attraction, a-b-db, 2, 1, 8, 37, 59, 134, 60, 135, 135, 60, 2, 1.24221
273, 6, bw, attraction, a-b-db, 2, 1, 8, 37, 59, 134, 60, 135, 135, 60, 3, 0.879158
