sub_n, computer_n, bw_cond, effect, set, distance, diag, block_n, trial_n, h1, w1, h2, w2, h3, w3, choice, rt 
207, 6, bw, practice, NA, 999, 999, 0, 1, 154, 182, 179, 73, 112, 188, 1, 3.42806
207, 6, bw, practice, NA, 999, 999, 0, 1, 154, 182, 179, 73, 112, 188, 2, 3.08733
207, 6, bw, practice, NA, 999, 999, 0, 2, 135, 62, 192, 101, 195, 137, 3, 2.43891
207, 6, bw, practice, NA, 999, 999, 0, 2, 135, 62, 192, 101, 195, 137, 1, 1.21116
207, 6, bw, practice, NA, 999, 999, 0, 3, 170, 56, 65, 161, 85, 119, 2, 6.26988
207, 6, bw, practice, NA, 999, 999, 0, 3, 170, 56, 65, 161, 85, 119, 1, 1.84845
207, 6, bw, attraction, a-b-da, 14, 3, 1, 1, 195, 120, 120, 195, 181, 111, 2, 5.00402
207, 6, bw, attraction, a-b-da, 14, 3, 1, 1, 195, 120, 120, 195, 181, 111, 3, 1.52174
207, 6, bw, attraction, a-b-db, 5, 3, 1, 2, 195, 120, 117, 190, 120, 195, 3, 4.29058
207, 6, bw, attraction, a-b-db, 5, 3, 1, 2, 195, 120, 117, 190, 120, 195, 1, 3.74854
207, 6, bw, catch, NA, 999, 999, 1, 3, 168, 147, 61, 134, 127, 128, 1, 1.54731
207, 6, bw, catch, NA, 999, 999, 1, 3, 168, 147, 61, 134, 127, 128, 2, 1.27617
207, 6, bw, filler, NA, 999, 999, 1, 4, 83, 182, 91, 167, 153, 69, 2, 2.92637
207, 6, bw, filler, NA, 999, 999, 1, 4, 83, 182, 91, 167, 153, 69, 3, 1.11944
207, 6, bw, attraction, a-b-db, 9, 2, 1, 5, 90, 165, 86, 157, 165, 90, 1, 2.5283
207, 6, bw, attraction, a-b-db, 9, 2, 1, 5, 90, 165, 86, 157, 165, 90, 2, 0.761424
207, 6, bw, attraction, a-b-db, 14, 3, 1, 6, 195, 120, 120, 195, 111, 181, 2, 1.80864
207, 6, bw, attraction, a-b-db, 14, 3, 1, 6, 195, 120, 120, 195, 111, 181, 3, 1.76662
207, 6, bw, attraction, a-b-da, 9, 3, 1, 7, 120, 195, 186, 114, 195, 120, 3, 7.45335
207, 6, bw, attraction, a-b-da, 9, 3, 1, 7, 120, 195, 186, 114, 195, 120, 2, 1.84833
207, 6, bw, attraction, a-b-db, 2, 1, 1, 8, 60, 135, 59, 134, 135, 60, 2, 4.8357
207, 6, bw, attraction, a-b-db, 2, 1, 1, 8, 60, 135, 59, 134, 135, 60, 3, 1.38403
207, 6, bw, attraction, a-b-da, 2, 2, 1, 9, 165, 90, 163, 89, 90, 165, 3, 3.33433
207, 6, bw, attraction, a-b-da, 2, 2, 1, 9, 165, 90, 163, 89, 90, 165, 1, 1.11128
207, 6, bw, attraction, a-b-da, 9, 1, 1, 10, 129, 57, 135, 60, 60, 135, 2, 3.84819
207, 6, bw, attraction, a-b-da, 9, 1, 1, 10, 129, 57, 135, 60, 60, 135, 1, 0.70024
207, 6, bw, filler, NA, 999, 999, 1, 11, 191, 158, 144, 142, 183, 95, 1, 1.73413
207, 6, bw, filler, NA, 999, 999, 1, 11, 191, 158, 144, 142, 183, 95, 3, 1.0315
207, 6, bw, attraction, a-b-db, 9, 3, 1, 12, 114, 186, 120, 195, 195, 120, 2, 1.81174
207, 6, bw, attraction, a-b-db, 9, 3, 1, 12, 114, 186, 120, 195, 195, 120, 1, 1.44987
207, 6, bw, catch, NA, 999, 999, 1, 13, 168, 147, 109, 86, 117, 138, 1, 1.15731
207, 6, bw, catch, NA, 999, 999, 1, 13, 168, 147, 109, 86, 117, 138, 2, 1.0778
207, 6, bw, filler, NA, 999, 999, 1, 14, 184, 78, 159, 95, 140, 110, 3, 4.43986
207, 6, bw, filler, NA, 999, 999, 1, 14, 184, 78, 159, 95, 140, 110, 1, 0.947928
207, 6, bw, attraction, a-b-db, 5, 2, 1, 15, 90, 165, 165, 90, 88, 161, 3, 3.13137
207, 6, bw, attraction, a-b-db, 5, 2, 1, 15, 90, 165, 165, 90, 88, 161, 1, 3.7403
207, 6, bw, attraction, a-b-da, 5, 2, 1, 16, 90, 165, 165, 90, 161, 88, 1, 3.82779
207, 6, bw, attraction, a-b-da, 5, 2, 1, 16, 90, 165, 165, 90, 161, 88, 3, 0.560583
207, 6, bw, attraction, a-b-da, 14, 1, 1, 17, 135, 60, 60, 135, 125, 56, 1, 7.73581
207, 6, bw, attraction, a-b-da, 14, 1, 1, 17, 135, 60, 60, 135, 125, 56, 3, 0.927224
207, 6, bw, attraction, a-b-db, 5, 1, 1, 18, 60, 135, 58, 132, 135, 60, 3, 5.51158
207, 6, bw, attraction, a-b-db, 5, 1, 1, 18, 60, 135, 58, 132, 135, 60, 1, 1.54444
207, 6, bw, attraction, a-b-db, 2, 2, 1, 19, 89, 163, 90, 165, 165, 90, 2, 4.14406
207, 6, bw, attraction, a-b-db, 2, 2, 1, 19, 89, 163, 90, 165, 165, 90, 3, 1.09606
207, 6, bw, attraction, a-b-da, 9, 2, 1, 20, 157, 86, 90, 165, 165, 90, 2, 1.78554
207, 6, bw, attraction, a-b-da, 9, 2, 1, 20, 157, 86, 90, 165, 165, 90, 1, 1.01696
207, 6, bw, filler, NA, 999, 999, 1, 21, 149, 176, 80, 150, 166, 70, 1, 1.30988
207, 6, bw, filler, NA, 999, 999, 1, 21, 149, 176, 80, 150, 166, 70, 2, 11.2562
207, 6, bw, attraction, a-b-db, 14, 2, 1, 22, 165, 90, 90, 165, 83, 153, 2, 3.18465
207, 6, bw, attraction, a-b-db, 14, 2, 1, 22, 165, 90, 90, 165, 83, 153, 3, 1.81558
207, 6, bw, attraction, a-b-da, 2, 3, 1, 23, 120, 195, 193, 119, 195, 120, 1, 3.44429
207, 6, bw, attraction, a-b-da, 2, 3, 1, 23, 120, 195, 193, 119, 195, 120, 2, 6.2805
207, 6, bw, attraction, a-b-da, 14, 2, 1, 24, 90, 165, 165, 90, 153, 83, 1, 5.27314
207, 6, bw, attraction, a-b-da, 14, 2, 1, 24, 90, 165, 165, 90, 153, 83, 3, 0.875537
207, 6, bw, attraction, a-b-db, 2, 3, 1, 25, 120, 195, 195, 120, 119, 193, 1, 2.82976
207, 6, bw, attraction, a-b-db, 2, 3, 1, 25, 120, 195, 195, 120, 119, 193, 3, 0.810969
207, 6, bw, filler, NA, 999, 999, 1, 26, 93, 107, 107, 159, 124, 176, 3, 1.11192
207, 6, bw, filler, NA, 999, 999, 1, 26, 93, 107, 107, 159, 124, 176, 1, 1.76231
207, 6, bw, filler, NA, 999, 999, 1, 27, 140, 144, 134, 93, 147, 123, 1, 1.05704
207, 6, bw, filler, NA, 999, 999, 1, 27, 140, 144, 134, 93, 147, 123, 2, 0.717259
207, 6, bw, attraction, a-b-da, 5, 1, 1, 28, 60, 135, 135, 60, 132, 58, 1, 2.6383
207, 6, bw, attraction, a-b-da, 5, 1, 1, 28, 60, 135, 135, 60, 132, 58, 3, 0.626725
207, 6, bw, filler, NA, 999, 999, 1, 29, 195, 136, 90, 146, 60, 157, 1, 0.591105
207, 6, bw, filler, NA, 999, 999, 1, 29, 195, 136, 90, 146, 60, 157, 3, 0.614391
207, 6, bw, attraction, a-b-da, 2, 1, 1, 30, 135, 60, 134, 59, 60, 135, 2, 2.1154
207, 6, bw, attraction, a-b-da, 2, 1, 1, 30, 135, 60, 134, 59, 60, 135, 1, 1.41337
207, 6, bw, attraction, a-b-db, 9, 1, 1, 31, 57, 129, 60, 135, 135, 60, 3, 2.91417
207, 6, bw, attraction, a-b-db, 9, 1, 1, 31, 57, 129, 60, 135, 135, 60, 2, 0.95597
207, 6, bw, filler, NA, 999, 999, 1, 32, 158, 90, 119, 174, 131, 145, 2, 1.08358
207, 6, bw, filler, NA, 999, 999, 1, 32, 158, 90, 119, 174, 131, 145, 1, 0.703223
207, 6, bw, filler, NA, 999, 999, 1, 33, 98, 83, 173, 153, 66, 174, 2, 0.792933
207, 6, bw, filler, NA, 999, 999, 1, 33, 98, 83, 173, 153, 66, 174, 1, 0.431961
207, 6, bw, attraction, a-b-db, 14, 1, 1, 34, 60, 135, 56, 125, 135, 60, 1, 1.02835
207, 6, bw, attraction, a-b-db, 14, 1, 1, 34, 60, 135, 56, 125, 135, 60, 2, 0.562092
207, 6, bw, filler, NA, 999, 999, 1, 35, 160, 170, 99, 165, 184, 102, 1, 0.633172
207, 6, bw, filler, NA, 999, 999, 1, 35, 160, 170, 99, 165, 184, 102, 2, 0.414965
207, 6, bw, catch, NA, 999, 999, 1, 36, 182, 133, 119, 76, 152, 103, 1, 0.82808
207, 6, bw, catch, NA, 999, 999, 1, 36, 182, 133, 119, 76, 152, 103, 2, 0.561869
207, 6, bw, attraction, a-b-da, 5, 3, 1, 37, 195, 120, 120, 195, 190, 117, 2, 0.768975
207, 6, bw, attraction, a-b-da, 5, 3, 1, 37, 195, 120, 120, 195, 190, 117, 3, 3.7534
207, 6, bw, filler, NA, 999, 999, 2, 1, 164, 80, 68, 104, 56, 137, 1, 1.93621
207, 6, bw, filler, NA, 999, 999, 2, 1, 164, 80, 68, 104, 56, 137, 2, 0.657513
207, 6, bw, attraction, a-b-da, 14, 1, 2, 2, 125, 56, 60, 135, 135, 60, 3, 1.8366
207, 6, bw, attraction, a-b-da, 14, 1, 2, 2, 125, 56, 60, 135, 135, 60, 1, 1.45794
207, 6, bw, attraction, a-b-da, 2, 2, 2, 3, 163, 89, 165, 90, 90, 165, 3, 1.83681
207, 6, bw, attraction, a-b-da, 2, 2, 2, 3, 163, 89, 165, 90, 90, 165, 1, 0.953506
207, 6, bw, attraction, a-b-db, 2, 2, 2, 4, 89, 163, 90, 165, 165, 90, 1, 8.51316
207, 6, bw, attraction, a-b-db, 2, 2, 2, 4, 89, 163, 90, 165, 165, 90, 2, 0.505075
207, 6, bw, attraction, a-b-db, 2, 1, 2, 5, 59, 134, 60, 135, 135, 60, 2, 6.76298
207, 6, bw, attraction, a-b-db, 2, 1, 2, 5, 59, 134, 60, 135, 135, 60, 3, 0.665515
207, 6, bw, catch, NA, 999, 999, 2, 6, 129, 66, 160, 155, 114, 141, 2, 0.660489
207, 6, bw, catch, NA, 999, 999, 2, 6, 129, 66, 160, 155, 114, 141, 1, 0.400942
207, 6, bw, filler, NA, 999, 999, 2, 7, 160, 92, 102, 75, 145, 66, 1, 0.678709
207, 6, bw, filler, NA, 999, 999, 2, 7, 160, 92, 102, 75, 145, 66, 2, 0.642646
207, 6, bw, attraction, a-b-db, 9, 3, 2, 8, 114, 186, 195, 120, 120, 195, 3, 4.51029
207, 6, bw, attraction, a-b-db, 9, 3, 2, 8, 114, 186, 195, 120, 120, 195, 1, 0.471587
207, 6, bw, filler, NA, 999, 999, 2, 9, 176, 174, 135, 136, 172, 139, 1, 0.898589
207, 6, bw, filler, NA, 999, 999, 2, 9, 176, 174, 135, 136, 172, 139, 2, 0.693628
207, 6, bw, attraction, a-b-db, 14, 2, 2, 10, 165, 90, 90, 165, 83, 153, 2, 1.65534
207, 6, bw, attraction, a-b-db, 14, 2, 2, 10, 165, 90, 90, 165, 83, 153, 3, 0.723454
207, 6, bw, attraction, a-b-db, 14, 3, 2, 11, 195, 120, 111, 181, 120, 195, 3, 1.73989
207, 6, bw, attraction, a-b-db, 14, 3, 2, 11, 195, 120, 111, 181, 120, 195, 2, 0.620638
207, 6, bw, attraction, a-b-db, 9, 2, 2, 12, 86, 157, 90, 165, 165, 90, 2, 1.49771
207, 6, bw, attraction, a-b-db, 9, 2, 2, 12, 86, 157, 90, 165, 165, 90, 1, 0.65251
207, 6, bw, filler, NA, 999, 999, 2, 13, 162, 167, 142, 131, 99, 69, 1, 1.46424
207, 6, bw, filler, NA, 999, 999, 2, 13, 162, 167, 142, 131, 99, 69, 3, 3.29248
207, 6, bw, filler, NA, 999, 999, 2, 14, 83, 112, 122, 82, 90, 130, 3, 2.19738
207, 6, bw, filler, NA, 999, 999, 2, 14, 83, 112, 122, 82, 90, 130, 1, 1.33196
207, 6, bw, attraction, a-b-da, 9, 1, 2, 15, 60, 135, 129, 57, 135, 60, 3, 1.90011
207, 6, bw, attraction, a-b-da, 9, 1, 2, 15, 60, 135, 129, 57, 135, 60, 1, 0.630882
207, 6, bw, filler, NA, 999, 999, 2, 16, 164, 148, 179, 150, 97, 176, 2, 2.2993
207, 6, bw, filler, NA, 999, 999, 2, 16, 164, 148, 179, 150, 97, 176, 3, 1.58984
207, 6, bw, attraction, a-b-da, 2, 3, 2, 17, 195, 120, 193, 119, 120, 195, 3, 2.13136
207, 6, bw, attraction, a-b-da, 2, 3, 2, 17, 195, 120, 193, 119, 120, 195, 2, 1.82068
207, 6, bw, attraction, a-b-da, 14, 2, 2, 18, 90, 165, 153, 83, 165, 90, 1, 1.52128
207, 6, bw, attraction, a-b-da, 14, 2, 2, 18, 90, 165, 153, 83, 165, 90, 2, 0.586943
207, 6, bw, attraction, a-b-da, 14, 3, 2, 19, 120, 195, 195, 120, 181, 111, 2, 2.29732
207, 6, bw, attraction, a-b-da, 14, 3, 2, 19, 120, 195, 195, 120, 181, 111, 3, 0.74801
207, 6, bw, attraction, a-b-db, 5, 3, 2, 20, 120, 195, 195, 120, 117, 190, 1, 2.59566
207, 6, bw, attraction, a-b-db, 5, 3, 2, 20, 120, 195, 195, 120, 117, 190, 3, 0.5462
207, 6, bw, attraction, a-b-db, 5, 1, 2, 21, 135, 60, 58, 132, 60, 135, 3, 2.13789
207, 6, bw, attraction, a-b-db, 5, 1, 2, 21, 135, 60, 58, 132, 60, 135, 2, 0.738498
207, 6, bw, attraction, a-b-db, 5, 2, 2, 22, 165, 90, 88, 161, 90, 165, 3, 5.94699
207, 6, bw, attraction, a-b-db, 5, 2, 2, 22, 165, 90, 88, 161, 90, 165, 2, 0.34626
207, 6, bw, attraction, a-b-da, 5, 3, 2, 23, 190, 117, 195, 120, 120, 195, 3, 3.74617
207, 6, bw, attraction, a-b-da, 5, 3, 2, 23, 190, 117, 195, 120, 120, 195, 2, 0.794243
207, 6, bw, filler, NA, 999, 999, 2, 24, 71, 189, 78, 102, 112, 160, 3, 0.87195
207, 6, bw, filler, NA, 999, 999, 2, 24, 71, 189, 78, 102, 112, 160, 2, 0.443632
207, 6, bw, attraction, a-b-db, 14, 1, 2, 25, 56, 125, 60, 135, 135, 60, 2, 1.40761
207, 6, bw, attraction, a-b-db, 14, 1, 2, 25, 56, 125, 60, 135, 135, 60, 1, 0.813667
207, 6, bw, filler, NA, 999, 999, 2, 26, 62, 146, 97, 60, 70, 146, 3, 3.69867
207, 6, bw, filler, NA, 999, 999, 2, 26, 62, 146, 97, 60, 70, 146, 2, 0.548965
207, 6, bw, filler, NA, 999, 999, 2, 27, 159, 82, 99, 78, 140, 114, 3, 1.28459
207, 6, bw, filler, NA, 999, 999, 2, 27, 159, 82, 99, 78, 140, 114, 2, 0.952201
207, 6, bw, attraction, a-b-db, 2, 3, 2, 28, 195, 120, 119, 193, 120, 195, 2, 2.42382
207, 6, bw, attraction, a-b-db, 2, 3, 2, 28, 195, 120, 119, 193, 120, 195, 3, 1.02103
207, 6, bw, attraction, a-b-da, 5, 1, 2, 29, 132, 58, 135, 60, 60, 135, 2, 2.26601
207, 6, bw, attraction, a-b-da, 5, 1, 2, 29, 132, 58, 135, 60, 60, 135, 1, 0.661859
207, 6, bw, attraction, a-b-da, 9, 2, 2, 30, 90, 165, 165, 90, 157, 86, 1, 3.13702
207, 6, bw, attraction, a-b-da, 9, 2, 2, 30, 90, 165, 165, 90, 157, 86, 3, 0.609956
207, 6, bw, filler, NA, 999, 999, 2, 31, 61, 168, 190, 114, 64, 129, 2, 0.607049
207, 6, bw, filler, NA, 999, 999, 2, 31, 61, 168, 190, 114, 64, 129, 3, 0.509547
207, 6, bw, catch, NA, 999, 999, 2, 32, 178, 137, 147, 108, 95, 100, 1, 0.550551
207, 6, bw, catch, NA, 999, 999, 2, 32, 178, 137, 147, 108, 95, 100, 3, 0.543757
207, 6, bw, attraction, a-b-da, 2, 1, 2, 33, 135, 60, 134, 59, 60, 135, 3, 1.49559
207, 6, bw, attraction, a-b-da, 2, 1, 2, 33, 135, 60, 134, 59, 60, 135, 2, 0.482321
207, 6, bw, catch, NA, 999, 999, 2, 34, 101, 154, 123, 192, 103, 92, 2, 0.596835
207, 6, bw, catch, NA, 999, 999, 2, 34, 101, 154, 123, 192, 103, 92, 3, 0.419989
207, 6, bw, attraction, a-b-db, 9, 1, 2, 35, 60, 135, 57, 129, 135, 60, 1, 1.64104
207, 6, bw, attraction, a-b-db, 9, 1, 2, 35, 60, 135, 57, 129, 135, 60, 2, 0.557992
207, 6, bw, attraction, a-b-da, 9, 3, 2, 36, 195, 120, 120, 195, 186, 114, 2, 1.54101
207, 6, bw, attraction, a-b-da, 9, 3, 2, 36, 195, 120, 120, 195, 186, 114, 3, 1.06979
207, 6, bw, attraction, a-b-da, 5, 2, 2, 37, 161, 88, 165, 90, 90, 165, 3, 2.67278
207, 6, bw, attraction, a-b-da, 5, 2, 2, 37, 161, 88, 165, 90, 90, 165, 1, 0.683897
207, 6, bw, attraction, a-b-db, 2, 2, 3, 1, 89, 163, 165, 90, 90, 165, 1, 3.55032
207, 6, bw, attraction, a-b-db, 2, 2, 3, 1, 89, 163, 165, 90, 90, 165, 2, 1.83852
207, 6, bw, catch, NA, 999, 999, 3, 2, 151, 164, 98, 97, 141, 114, 1, 0.762473
207, 6, bw, catch, NA, 999, 999, 3, 2, 151, 164, 98, 97, 141, 114, 2, 0.618916
207, 6, bw, attraction, a-b-db, 5, 1, 3, 3, 135, 60, 58, 132, 60, 135, 3, 1.704
207, 6, bw, attraction, a-b-db, 5, 1, 3, 3, 135, 60, 58, 132, 60, 135, 2, 1.04215
207, 6, bw, attraction, a-b-db, 9, 1, 3, 4, 135, 60, 60, 135, 57, 129, 2, 2.0937
207, 6, bw, attraction, a-b-db, 9, 1, 3, 4, 135, 60, 60, 135, 57, 129, 3, 0.472393
207, 6, bw, filler, NA, 999, 999, 3, 5, 180, 84, 63, 122, 104, 118, 1, 0.739528
207, 6, bw, filler, NA, 999, 999, 3, 5, 180, 84, 63, 122, 104, 118, 2, 0.420629
207, 6, bw, filler, NA, 999, 999, 3, 6, 103, 80, 104, 135, 130, 57, 2, 0.705733
207, 6, bw, filler, NA, 999, 999, 3, 6, 103, 80, 104, 135, 130, 57, 3, 0.660156
207, 6, bw, filler, NA, 999, 999, 3, 7, 58, 115, 144, 80, 119, 155, 3, 0.727215
207, 6, bw, filler, NA, 999, 999, 3, 7, 58, 115, 144, 80, 119, 155, 1, 0.776972
207, 6, bw, attraction, a-b-da, 14, 2, 3, 8, 153, 83, 165, 90, 90, 165, 2, 1.15934
207, 6, bw, attraction, a-b-da, 14, 2, 3, 8, 153, 83, 165, 90, 90, 165, 1, 0.31156
207, 6, bw, attraction, a-b-db, 5, 3, 3, 9, 120, 195, 195, 120, 117, 190, 2, 0.904862
207, 6, bw, attraction, a-b-db, 5, 3, 3, 9, 120, 195, 195, 120, 117, 190, 3, 0.31515
207, 6, bw, attraction, a-b-da, 14, 1, 3, 10, 125, 56, 135, 60, 60, 135, 1, 1.1403
207, 6, bw, attraction, a-b-da, 14, 1, 3, 10, 125, 56, 135, 60, 60, 135, 3, 0.421183
207, 6, bw, filler, NA, 999, 999, 3, 11, 124, 160, 132, 158, 79, 128, 2, 0.570466
207, 6, bw, filler, NA, 999, 999, 3, 11, 124, 160, 132, 158, 79, 128, 3, 0.450113
207, 6, bw, filler, NA, 999, 999, 3, 12, 192, 72, 61, 116, 84, 107, 1, 1.62198
207, 6, bw, filler, NA, 999, 999, 3, 12, 192, 72, 61, 116, 84, 107, 2, 0.363399
207, 6, bw, attraction, a-b-da, 5, 1, 3, 13, 135, 60, 60, 135, 132, 58, 2, 1.35464
207, 6, bw, attraction, a-b-da, 5, 1, 3, 13, 135, 60, 60, 135, 132, 58, 1, 0.618861
207, 6, bw, filler, NA, 999, 999, 3, 14, 95, 107, 119, 184, 147, 155, 2, 0.6159
207, 6, bw, filler, NA, 999, 999, 3, 14, 95, 107, 119, 184, 147, 155, 1, 0.438329
207, 6, bw, catch, NA, 999, 999, 3, 15, 106, 149, 155, 160, 76, 119, 2, 0.842864
207, 6, bw, catch, NA, 999, 999, 3, 15, 106, 149, 155, 160, 76, 119, 3, 0.815832
207, 6, bw, attraction, a-b-db, 14, 2, 3, 16, 90, 165, 83, 153, 165, 90, 1, 1.34889
207, 6, bw, attraction, a-b-db, 14, 2, 3, 16, 90, 165, 83, 153, 165, 90, 2, 0.429863
207, 6, bw, attraction, a-b-db, 2, 1, 3, 17, 59, 134, 60, 135, 135, 60, 3, 1.15424
207, 6, bw, attraction, a-b-db, 2, 1, 3, 17, 59, 134, 60, 135, 135, 60, 2, 0.586614
207, 6, bw, attraction, a-b-db, 9, 3, 3, 18, 120, 195, 114, 186, 195, 120, 1, 1.00888
207, 6, bw, attraction, a-b-db, 9, 3, 3, 18, 120, 195, 114, 186, 195, 120, 2, 0.439204
207, 6, bw, filler, NA, 999, 999, 3, 19, 161, 90, 193, 186, 157, 123, 2, 0.595767
207, 6, bw, filler, NA, 999, 999, 3, 19, 161, 90, 193, 186, 157, 123, 1, 0.554882
207, 6, bw, filler, NA, 999, 999, 3, 20, 137, 175, 173, 181, 113, 153, 2, 0.634574
207, 6, bw, filler, NA, 999, 999, 3, 20, 137, 175, 173, 181, 113, 153, 3, 0.400422
207, 6, bw, attraction, a-b-db, 14, 1, 3, 21, 56, 125, 60, 135, 135, 60, 3, 1.72636
207, 6, bw, attraction, a-b-db, 14, 1, 3, 21, 56, 125, 60, 135, 135, 60, 1, 0.60762
207, 6, bw, filler, NA, 999, 999, 3, 22, 100, 169, 105, 71, 138, 90, 1, 0.676675
207, 6, bw, filler, NA, 999, 999, 3, 22, 100, 169, 105, 71, 138, 90, 2, 0.664503
207, 6, bw, attraction, a-b-da, 5, 3, 3, 23, 195, 120, 190, 117, 120, 195, 2, 0.939708
207, 6, bw, attraction, a-b-da, 5, 3, 3, 23, 195, 120, 190, 117, 120, 195, 1, 1.02051
207, 6, bw, catch, NA, 999, 999, 3, 24, 85, 110, 108, 147, 184, 131, 3, 1.21751
207, 6, bw, catch, NA, 999, 999, 3, 24, 85, 110, 108, 147, 184, 131, 1, 0.631827
207, 6, bw, attraction, a-b-db, 2, 3, 3, 25, 119, 193, 120, 195, 195, 120, 1, 1.06817
207, 6, bw, attraction, a-b-db, 2, 3, 3, 25, 119, 193, 120, 195, 195, 120, 3, 0.600569
207, 6, bw, attraction, a-b-db, 5, 2, 3, 26, 165, 90, 88, 161, 90, 165, 1, 1.22225
207, 6, bw, attraction, a-b-db, 5, 2, 3, 26, 165, 90, 88, 161, 90, 165, 2, 0.347822
207, 6, bw, attraction, a-b-db, 9, 2, 3, 27, 165, 90, 86, 157, 90, 165, 1, 0.979695
207, 6, bw, attraction, a-b-db, 9, 2, 3, 27, 165, 90, 86, 157, 90, 165, 2, 0.307331
207, 6, bw, attraction, a-b-da, 14, 3, 3, 28, 195, 120, 120, 195, 181, 111, 2, 0.700572
207, 6, bw, attraction, a-b-da, 14, 3, 3, 28, 195, 120, 120, 195, 181, 111, 3, 0.73567
207, 6, bw, attraction, a-b-da, 5, 2, 3, 29, 161, 88, 90, 165, 165, 90, 2, 0.967999
207, 6, bw, attraction, a-b-da, 5, 2, 3, 29, 161, 88, 90, 165, 165, 90, 1, 0.600351
207, 6, bw, filler, NA, 999, 999, 3, 30, 78, 102, 153, 62, 77, 66, 1, 0.862098
207, 6, bw, filler, NA, 999, 999, 3, 30, 78, 102, 153, 62, 77, 66, 2, 0.650457
207, 6, bw, attraction, a-b-da, 2, 3, 3, 31, 120, 195, 195, 120, 193, 119, 2, 1.18222
207, 6, bw, attraction, a-b-da, 2, 3, 3, 31, 120, 195, 195, 120, 193, 119, 1, 0.445753
207, 6, bw, attraction, a-b-da, 2, 2, 3, 32, 163, 89, 90, 165, 165, 90, 1, 1.79362
207, 6, bw, attraction, a-b-da, 2, 2, 3, 32, 163, 89, 90, 165, 165, 90, 2, 0.440362
207, 6, bw, attraction, a-b-da, 2, 1, 3, 33, 134, 59, 60, 135, 135, 60, 3, 1.36417
207, 6, bw, attraction, a-b-da, 2, 1, 3, 33, 134, 59, 60, 135, 135, 60, 2, 0.300385
207, 6, bw, attraction, a-b-da, 9, 1, 3, 34, 135, 60, 60, 135, 129, 57, 1, 1.23024
207, 6, bw, attraction, a-b-da, 9, 1, 3, 34, 135, 60, 60, 135, 129, 57, 3, 1.13186
207, 6, bw, attraction, a-b-da, 9, 3, 3, 35, 186, 114, 195, 120, 120, 195, 2, 1.73203
207, 6, bw, attraction, a-b-da, 9, 3, 3, 35, 186, 114, 195, 120, 120, 195, 3, 0.485506
207, 6, bw, attraction, a-b-da, 9, 2, 3, 36, 157, 86, 165, 90, 90, 165, 2, 1.74395
207, 6, bw, attraction, a-b-da, 9, 2, 3, 36, 157, 86, 165, 90, 90, 165, 1, 0.336637
207, 6, bw, attraction, a-b-db, 14, 3, 3, 37, 120, 195, 195, 120, 111, 181, 2, 1.10524
207, 6, bw, attraction, a-b-db, 14, 3, 3, 37, 120, 195, 195, 120, 111, 181, 1, 0.395543
207, 6, bw, attraction, a-b-db, 9, 3, 4, 1, 114, 186, 120, 195, 195, 120, 3, 1.66542
207, 6, bw, attraction, a-b-db, 9, 3, 4, 1, 114, 186, 120, 195, 195, 120, 1, 0.413491
207, 6, bw, attraction, a-b-db, 2, 1, 4, 2, 60, 135, 59, 134, 135, 60, 3, 1.34665
207, 6, bw, attraction, a-b-db, 2, 1, 4, 2, 60, 135, 59, 134, 135, 60, 2, 0.691527
207, 6, bw, filler, NA, 999, 999, 4, 3, 83, 75, 160, 149, 91, 87, 2, 0.605214
207, 6, bw, filler, NA, 999, 999, 4, 3, 83, 75, 160, 149, 91, 87, 1, 0.587802
207, 6, bw, attraction, a-b-db, 14, 2, 4, 4, 90, 165, 83, 153, 165, 90, 3, 1.04206
207, 6, bw, attraction, a-b-db, 14, 2, 4, 4, 90, 165, 83, 153, 165, 90, 2, 0.383082
207, 6, bw, filler, NA, 999, 999, 4, 5, 119, 189, 143, 67, 194, 142, 3, 0.757511
207, 6, bw, filler, NA, 999, 999, 4, 5, 119, 189, 143, 67, 194, 142, 2, 0.57405
207, 6, bw, filler, NA, 999, 999, 4, 6, 165, 188, 83, 98, 88, 163, 1, 1.49239
207, 6, bw, filler, NA, 999, 999, 4, 6, 165, 188, 83, 98, 88, 163, 2, 0.351398
207, 6, bw, attraction, a-b-db, 2, 2, 4, 7, 89, 163, 165, 90, 90, 165, 3, 2.47105
207, 6, bw, attraction, a-b-db, 2, 2, 4, 7, 89, 163, 165, 90, 90, 165, 2, 0.610896
207, 6, bw, attraction, a-b-da, 5, 1, 4, 8, 60, 135, 132, 58, 135, 60, 2, 0.735944
207, 6, bw, attraction, a-b-da, 5, 1, 4, 8, 60, 135, 132, 58, 135, 60, 1, 0.649724
207, 6, bw, attraction, a-b-da, 2, 2, 4, 9, 163, 89, 165, 90, 90, 165, 1, 0.549559
207, 6, bw, attraction, a-b-da, 2, 2, 4, 9, 163, 89, 165, 90, 90, 165, 3, 0.478611
207, 6, bw, attraction, a-b-da, 2, 3, 4, 10, 193, 119, 195, 120, 120, 195, 3, 0.609174
207, 6, bw, attraction, a-b-da, 2, 3, 4, 10, 193, 119, 195, 120, 120, 195, 2, 0.375529
207, 6, bw, attraction, a-b-da, 14, 3, 4, 11, 120, 195, 195, 120, 181, 111, 2, 0.598003
207, 6, bw, attraction, a-b-da, 14, 3, 4, 11, 120, 195, 195, 120, 181, 111, 1, 0.645316
207, 6, bw, attraction, a-b-db, 5, 3, 4, 12, 195, 120, 117, 190, 120, 195, 1, 0.744803
207, 6, bw, attraction, a-b-db, 5, 3, 4, 12, 195, 120, 117, 190, 120, 195, 3, 0.377998
207, 6, bw, attraction, a-b-db, 5, 2, 4, 13, 90, 165, 88, 161, 165, 90, 3, 0.624393
207, 6, bw, attraction, a-b-db, 5, 2, 4, 13, 90, 165, 88, 161, 165, 90, 2, 0.382168
207, 6, bw, filler, NA, 999, 999, 4, 14, 145, 65, 188, 194, 157, 135, 2, 0.572644
207, 6, bw, filler, NA, 999, 999, 4, 14, 145, 65, 188, 194, 157, 135, 1, 0.428509
207, 6, bw, attraction, a-b-da, 14, 2, 4, 15, 153, 83, 90, 165, 165, 90, 1, 1.25697
207, 6, bw, attraction, a-b-da, 14, 2, 4, 15, 153, 83, 90, 165, 165, 90, 3, 0.493214
207, 6, bw, filler, NA, 999, 999, 4, 16, 123, 71, 140, 163, 131, 191, 3, 1.20705
207, 6, bw, filler, NA, 999, 999, 4, 16, 123, 71, 140, 163, 131, 191, 1, 0.517251
207, 6, bw, catch, NA, 999, 999, 4, 17, 129, 66, 125, 190, 113, 142, 2, 0.710518
207, 6, bw, catch, NA, 999, 999, 4, 17, 129, 66, 125, 190, 113, 142, 1, 0.432892
207, 6, bw, filler, NA, 999, 999, 4, 18, 97, 87, 108, 194, 174, 129, 3, 0.965241
207, 6, bw, filler, NA, 999, 999, 4, 18, 97, 87, 108, 194, 174, 129, 1, 0.605659
207, 6, bw, attraction, a-b-da, 9, 2, 4, 19, 90, 165, 157, 86, 165, 90, 1, 0.835328
207, 6, bw, attraction, a-b-da, 9, 2, 4, 19, 90, 165, 157, 86, 165, 90, 3, 0.465259
207, 6, bw, attraction, a-b-da, 2, 1, 4, 20, 134, 59, 135, 60, 60, 135, 2, 0.628171
207, 6, bw, attraction, a-b-da, 2, 1, 4, 20, 134, 59, 135, 60, 60, 135, 1, 0.90596
207, 6, bw, attraction, a-b-da, 5, 3, 4, 21, 195, 120, 190, 117, 120, 195, 2, 0.715613
207, 6, bw, attraction, a-b-da, 5, 3, 4, 21, 195, 120, 190, 117, 120, 195, 3, 0.334089
207, 6, bw, catch, NA, 999, 999, 4, 22, 163, 92, 152, 163, 102, 93, 2, 0.510603
207, 6, bw, catch, NA, 999, 999, 4, 22, 163, 92, 152, 163, 102, 93, 3, 0.697084
207, 6, bw, attraction, a-b-db, 9, 1, 4, 23, 57, 129, 60, 135, 135, 60, 3, 1.57078
207, 6, bw, attraction, a-b-db, 9, 1, 4, 23, 57, 129, 60, 135, 135, 60, 2, 0.762902
207, 6, bw, filler, NA, 999, 999, 4, 24, 175, 133, 86, 185, 63, 163, 1, 1.11396
207, 6, bw, filler, NA, 999, 999, 4, 24, 175, 133, 86, 185, 63, 163, 3, 1.30827
207, 6, bw, attraction, a-b-db, 2, 3, 4, 25, 119, 193, 120, 195, 195, 120, 2, 0.957051
207, 6, bw, attraction, a-b-db, 2, 3, 4, 25, 119, 193, 120, 195, 195, 120, 1, 0.397464
207, 6, bw, catch, NA, 999, 999, 4, 26, 171, 144, 107, 148, 135, 60, 1, 0.707331
207, 6, bw, catch, NA, 999, 999, 4, 26, 171, 144, 107, 148, 135, 60, 3, 0.75773
207, 6, bw, attraction, a-b-db, 14, 3, 4, 27, 120, 195, 111, 181, 195, 120, 3, 0.932749
207, 6, bw, attraction, a-b-db, 14, 3, 4, 27, 120, 195, 111, 181, 195, 120, 2, 0.718407
207, 6, bw, attraction, a-b-db, 14, 1, 4, 28, 135, 60, 56, 125, 60, 135, 3, 1.79951
207, 6, bw, attraction, a-b-db, 14, 1, 4, 28, 135, 60, 56, 125, 60, 135, 2, 0.502346
207, 6, bw, filler, NA, 999, 999, 4, 29, 145, 150, 169, 79, 131, 62, 1, 0.728011
207, 6, bw, filler, NA, 999, 999, 4, 29, 145, 150, 169, 79, 131, 62, 3, 0.69782
207, 6, bw, filler, NA, 999, 999, 4, 30, 79, 138, 79, 85, 195, 133, 3, 0.939535
207, 6, bw, filler, NA, 999, 999, 4, 30, 79, 138, 79, 85, 195, 133, 2, 0.452436
207, 6, bw, attraction, a-b-da, 5, 2, 4, 31, 165, 90, 161, 88, 90, 165, 1, 0.776265
207, 6, bw, attraction, a-b-da, 5, 2, 4, 31, 165, 90, 161, 88, 90, 165, 3, 0.408014
207, 6, bw, attraction, a-b-da, 9, 3, 4, 32, 120, 195, 195, 120, 186, 114, 2, 0.669287
207, 6, bw, attraction, a-b-da, 9, 3, 4, 32, 120, 195, 195, 120, 186, 114, 3, 0.609567
207, 6, bw, attraction, a-b-db, 9, 2, 4, 33, 165, 90, 86, 157, 90, 165, 1, 0.774617
207, 6, bw, attraction, a-b-db, 9, 2, 4, 33, 165, 90, 86, 157, 90, 165, 2, 0.318391
207, 6, bw, attraction, a-b-da, 9, 1, 4, 34, 135, 60, 60, 135, 129, 57, 1, 1.17566
207, 6, bw, attraction, a-b-da, 9, 1, 4, 34, 135, 60, 60, 135, 129, 57, 2, 0.799194
207, 6, bw, filler, NA, 999, 999, 4, 35, 61, 79, 85, 193, 186, 95, 3, 0.964846
207, 6, bw, filler, NA, 999, 999, 4, 35, 61, 79, 85, 193, 186, 95, 1, 0.389297
207, 6, bw, attraction, a-b-db, 5, 1, 4, 36, 135, 60, 60, 135, 58, 132, 1, 0.747718
207, 6, bw, attraction, a-b-db, 5, 1, 4, 36, 135, 60, 60, 135, 58, 132, 3, 0.420762
207, 6, bw, attraction, a-b-da, 14, 1, 4, 37, 60, 135, 135, 60, 125, 56, 1, 0.753891
207, 6, bw, attraction, a-b-da, 14, 1, 4, 37, 60, 135, 135, 60, 125, 56, 2, 0.266343
207, 6, bw, catch, NA, 999, 999, 5, 1, 99, 96, 138, 117, 153, 162, 3, 2.77217
207, 6, bw, catch, NA, 999, 999, 5, 1, 99, 96, 138, 117, 153, 162, 1, 0.763255
207, 6, bw, attraction, a-b-db, 14, 3, 5, 2, 120, 195, 111, 181, 195, 120, 1, 0.938241
207, 6, bw, attraction, a-b-db, 14, 3, 5, 2, 120, 195, 111, 181, 195, 120, 2, 0.33927
207, 6, bw, catch, NA, 999, 999, 5, 3, 98, 97, 130, 185, 90, 165, 2, 0.563803
207, 6, bw, catch, NA, 999, 999, 5, 3, 98, 97, 130, 185, 90, 165, 1, 0.508262
207, 6, bw, filler, NA, 999, 999, 5, 4, 157, 172, 177, 151, 189, 82, 2, 0.845398
207, 6, bw, filler, NA, 999, 999, 5, 4, 157, 172, 177, 151, 189, 82, 3, 0.378418
207, 6, bw, filler, NA, 999, 999, 5, 5, 89, 96, 59, 80, 176, 64, 3, 1.36886
207, 6, bw, filler, NA, 999, 999, 5, 5, 89, 96, 59, 80, 176, 64, 2, 0.353072
207, 6, bw, attraction, a-b-da, 5, 1, 5, 6, 132, 58, 135, 60, 60, 135, 3, 1.61696
207, 6, bw, attraction, a-b-da, 5, 1, 5, 6, 132, 58, 135, 60, 60, 135, 1, 0.479048
207, 6, bw, attraction, a-b-db, 2, 3, 5, 7, 119, 193, 195, 120, 120, 195, 3, 1.16965
207, 6, bw, attraction, a-b-db, 2, 3, 5, 7, 119, 193, 195, 120, 120, 195, 1, 0.305776
207, 6, bw, attraction, a-b-db, 5, 2, 5, 8, 90, 165, 88, 161, 165, 90, 2, 3.6517
207, 6, bw, attraction, a-b-db, 5, 2, 5, 8, 90, 165, 88, 161, 165, 90, 1, 0.687941
207, 6, bw, attraction, a-b-da, 14, 2, 5, 9, 90, 165, 165, 90, 153, 83, 1, 1.33017
207, 6, bw, attraction, a-b-da, 14, 2, 5, 9, 90, 165, 165, 90, 153, 83, 2, 0.291778
207, 6, bw, filler, NA, 999, 999, 5, 10, 116, 79, 111, 160, 80, 82, 2, 0.877604
207, 6, bw, filler, NA, 999, 999, 5, 10, 116, 79, 111, 160, 80, 82, 3, 0.321325
207, 6, bw, attraction, a-b-db, 9, 2, 5, 11, 86, 157, 165, 90, 90, 165, 3, 1.5546
207, 6, bw, attraction, a-b-db, 9, 2, 5, 11, 86, 157, 165, 90, 90, 165, 1, 0.506604
207, 6, bw, attraction, a-b-db, 9, 1, 5, 12, 60, 135, 135, 60, 57, 129, 1, 2.42777
207, 6, bw, attraction, a-b-db, 9, 1, 5, 12, 60, 135, 135, 60, 57, 129, 3, 0.361061
207, 6, bw, attraction, a-b-db, 2, 1, 5, 13, 135, 60, 59, 134, 60, 135, 1, 1.49616
207, 6, bw, attraction, a-b-db, 2, 1, 5, 13, 135, 60, 59, 134, 60, 135, 2, 0.403059
207, 6, bw, attraction, a-b-db, 5, 1, 5, 14, 60, 135, 58, 132, 135, 60, 3, 4.03279
207, 6, bw, attraction, a-b-db, 5, 1, 5, 14, 60, 135, 58, 132, 135, 60, 2, 0.34949
207, 6, bw, attraction, a-b-da, 9, 2, 5, 15, 90, 165, 157, 86, 165, 90, 3, 2.02945
207, 6, bw, attraction, a-b-da, 9, 2, 5, 15, 90, 165, 157, 86, 165, 90, 2, 0.330658
207, 6, bw, attraction, a-b-db, 9, 3, 5, 16, 195, 120, 114, 186, 120, 195, 1, 0.939284
207, 6, bw, attraction, a-b-db, 9, 3, 5, 16, 195, 120, 114, 186, 120, 195, 2, 0.300194
207, 6, bw, filler, NA, 999, 999, 5, 17, 112, 80, 110, 154, 65, 129, 2, 0.710021
207, 6, bw, filler, NA, 999, 999, 5, 17, 112, 80, 110, 154, 65, 129, 1, 0.520545
207, 6, bw, attraction, a-b-db, 14, 1, 5, 18, 135, 60, 56, 125, 60, 135, 1, 1.18561
207, 6, bw, attraction, a-b-db, 14, 1, 5, 18, 135, 60, 56, 125, 60, 135, 2, 0.353217
207, 6, bw, filler, NA, 999, 999, 5, 19, 130, 108, 189, 98, 87, 88, 2, 0.696999
207, 6, bw, filler, NA, 999, 999, 5, 19, 130, 108, 189, 98, 87, 88, 3, 0.61228
207, 6, bw, attraction, a-b-da, 14, 1, 5, 20, 125, 56, 60, 135, 135, 60, 3, 1.09722
207, 6, bw, attraction, a-b-da, 14, 1, 5, 20, 125, 56, 60, 135, 135, 60, 1, 1.3322
207, 6, bw, attraction, a-b-da, 9, 3, 5, 21, 186, 114, 195, 120, 120, 195, 2, 0.900342
207, 6, bw, attraction, a-b-da, 9, 3, 5, 21, 186, 114, 195, 120, 120, 195, 1, 0.743462
207, 6, bw, attraction, a-b-db, 5, 3, 5, 22, 195, 120, 120, 195, 117, 190, 2, 2.30306
207, 6, bw, attraction, a-b-db, 5, 3, 5, 22, 195, 120, 120, 195, 117, 190, 1, 0.561638
207, 6, bw, attraction, a-b-da, 9, 1, 5, 23, 60, 135, 135, 60, 129, 57, 2, 1.52887
207, 6, bw, attraction, a-b-da, 9, 1, 5, 23, 60, 135, 135, 60, 129, 57, 3, 1.00244
207, 6, bw, filler, NA, 999, 999, 5, 24, 123, 146, 99, 153, 75, 109, 1, 1.09589
207, 6, bw, filler, NA, 999, 999, 5, 24, 123, 146, 99, 153, 75, 109, 3, 0.602847
207, 6, bw, filler, NA, 999, 999, 5, 25, 65, 113, 59, 92, 116, 150, 3, 0.688639
207, 6, bw, filler, NA, 999, 999, 5, 25, 65, 113, 59, 92, 116, 150, 2, 0.49172
207, 6, bw, attraction, a-b-db, 14, 2, 5, 26, 165, 90, 90, 165, 83, 153, 1, 0.773431
207, 6, bw, attraction, a-b-db, 14, 2, 5, 26, 165, 90, 90, 165, 83, 153, 3, 0.381249
207, 6, bw, attraction, a-b-da, 2, 1, 5, 27, 60, 135, 134, 59, 135, 60, 1, 0.987727
207, 6, bw, attraction, a-b-da, 2, 1, 5, 27, 60, 135, 134, 59, 135, 60, 3, 0.538883
207, 6, bw, attraction, a-b-da, 2, 2, 5, 28, 163, 89, 90, 165, 165, 90, 3, 2.45117
207, 6, bw, attraction, a-b-da, 2, 2, 5, 28, 163, 89, 90, 165, 165, 90, 2, 0.43167
207, 6, bw, filler, NA, 999, 999, 5, 29, 144, 171, 178, 172, 187, 91, 2, 0.764171
207, 6, bw, filler, NA, 999, 999, 5, 29, 144, 171, 178, 172, 187, 91, 3, 0.324654
207, 6, bw, attraction, a-b-db, 2, 2, 5, 30, 165, 90, 90, 165, 89, 163, 1, 0.749013
207, 6, bw, attraction, a-b-db, 2, 2, 5, 30, 165, 90, 90, 165, 89, 163, 2, 0.358155
207, 6, bw, filler, NA, 999, 999, 5, 31, 84, 64, 130, 172, 160, 118, 2, 0.709326
207, 6, bw, filler, NA, 999, 999, 5, 31, 84, 64, 130, 172, 160, 118, 1, 0.527694
207, 6, bw, attraction, a-b-da, 2, 3, 5, 32, 193, 119, 120, 195, 195, 120, 1, 1.04009
207, 6, bw, attraction, a-b-da, 2, 3, 5, 32, 193, 119, 120, 195, 195, 120, 2, 0.285218
207, 6, bw, attraction, a-b-da, 5, 3, 5, 33, 190, 117, 195, 120, 120, 195, 2, 0.679688
207, 6, bw, attraction, a-b-da, 5, 3, 5, 33, 190, 117, 195, 120, 120, 195, 3, 0.227412
207, 6, bw, attraction, a-b-da, 5, 2, 5, 34, 161, 88, 165, 90, 90, 165, 1, 0.856022
207, 6, bw, attraction, a-b-da, 5, 2, 5, 34, 161, 88, 165, 90, 90, 165, 2, 0.220282
207, 6, bw, attraction, a-b-da, 14, 3, 5, 35, 120, 195, 195, 120, 181, 111, 1, 0.609542
207, 6, bw, attraction, a-b-da, 14, 3, 5, 35, 120, 195, 195, 120, 181, 111, 2, 0.224019
207, 6, bw, catch, NA, 999, 999, 5, 36, 129, 66, 179, 136, 116, 139, 2, 0.540522
207, 6, bw, catch, NA, 999, 999, 5, 36, 129, 66, 179, 136, 116, 139, 1, 0.445641
207, 6, bw, filler, NA, 999, 999, 5, 37, 121, 111, 150, 127, 94, 157, 2, 1.10546
207, 6, bw, filler, NA, 999, 999, 5, 37, 121, 111, 150, 127, 94, 157, 1, 0.651748
207, 6, bw, filler, NA, 999, 999, 6, 1, 119, 174, 66, 165, 151, 179, 3, 0.791535
207, 6, bw, filler, NA, 999, 999, 6, 1, 119, 174, 66, 165, 151, 179, 2, 0.430532
207, 6, bw, filler, NA, 999, 999, 6, 2, 90, 118, 186, 154, 69, 92, 2, 0.610998
207, 6, bw, filler, NA, 999, 999, 6, 2, 90, 118, 186, 154, 69, 92, 3, 0.393502
207, 6, bw, attraction, a-b-da, 14, 1, 6, 3, 125, 56, 60, 135, 135, 60, 3, 1.42332
207, 6, bw, attraction, a-b-da, 14, 1, 6, 3, 125, 56, 60, 135, 135, 60, 1, 1.36479
207, 6, bw, attraction, a-b-db, 9, 2, 6, 4, 90, 165, 86, 157, 165, 90, 1, 0.963634
207, 6, bw, attraction, a-b-db, 9, 2, 6, 4, 90, 165, 86, 157, 165, 90, 2, 0.30004
207, 6, bw, attraction, a-b-da, 5, 1, 6, 5, 132, 58, 135, 60, 60, 135, 2, 0.693858
207, 6, bw, attraction, a-b-da, 5, 1, 6, 5, 132, 58, 135, 60, 60, 135, 1, 0.320919
207, 6, bw, catch, NA, 999, 999, 6, 6, 177, 138, 101, 94, 142, 113, 1, 0.594076
207, 6, bw, catch, NA, 999, 999, 6, 6, 177, 138, 101, 94, 142, 113, 2, 0.361228
207, 6, bw, attraction, a-b-db, 5, 3, 6, 7, 117, 190, 195, 120, 120, 195, 2, 0.904436
207, 6, bw, attraction, a-b-db, 5, 3, 6, 7, 117, 190, 195, 120, 120, 195, 1, 1.66677
207, 6, bw, catch, NA, 999, 999, 6, 8, 99, 156, 114, 81, 155, 160, 3, 0.861461
207, 6, bw, catch, NA, 999, 999, 6, 8, 99, 156, 114, 81, 155, 160, 2, 0.553912
207, 6, bw, attraction, a-b-db, 9, 1, 6, 9, 135, 60, 57, 129, 60, 135, 1, 0.937631
207, 6, bw, attraction, a-b-db, 9, 1, 6, 9, 135, 60, 57, 129, 60, 135, 2, 0.474833
207, 6, bw, attraction, a-b-db, 14, 1, 6, 10, 60, 135, 135, 60, 56, 125, 2, 1.65308
207, 6, bw, attraction, a-b-db, 14, 1, 6, 10, 60, 135, 135, 60, 56, 125, 1, 0.489887
207, 6, bw, attraction, a-b-db, 14, 3, 6, 11, 120, 195, 195, 120, 111, 181, 1, 1.53183
207, 6, bw, attraction, a-b-db, 14, 3, 6, 11, 120, 195, 195, 120, 111, 181, 3, 1.17317
207, 6, bw, attraction, a-b-db, 14, 2, 6, 12, 165, 90, 90, 165, 83, 153, 1, 1.19535
207, 6, bw, attraction, a-b-db, 14, 2, 6, 12, 165, 90, 90, 165, 83, 153, 3, 0.730336
207, 6, bw, attraction, a-b-da, 14, 2, 6, 13, 165, 90, 90, 165, 153, 83, 1, 1.13869
207, 6, bw, attraction, a-b-da, 14, 2, 6, 13, 165, 90, 90, 165, 153, 83, 3, 0.659744
207, 6, bw, catch, NA, 999, 999, 6, 14, 132, 123, 67, 128, 131, 184, 3, 1.09475
207, 6, bw, catch, NA, 999, 999, 6, 14, 132, 123, 67, 128, 131, 184, 2, 0.353719
207, 6, bw, attraction, a-b-da, 9, 3, 6, 15, 120, 195, 186, 114, 195, 120, 1, 1.3375
207, 6, bw, attraction, a-b-da, 9, 3, 6, 15, 120, 195, 186, 114, 195, 120, 2, 0.482417
207, 6, bw, filler, NA, 999, 999, 6, 16, 193, 194, 106, 88, 76, 115, 1, 0.580869
207, 6, bw, filler, NA, 999, 999, 6, 16, 193, 194, 106, 88, 76, 115, 3, 1.36472
207, 6, bw, filler, NA, 999, 999, 6, 17, 60, 145, 185, 179, 100, 140, 2, 0.819486
207, 6, bw, filler, NA, 999, 999, 6, 17, 60, 145, 185, 179, 100, 140, 1, 0.569913
207, 6, bw, attraction, a-b-da, 9, 1, 6, 18, 60, 135, 129, 57, 135, 60, 3, 2.20901
207, 6, bw, attraction, a-b-da, 9, 1, 6, 18, 60, 135, 129, 57, 135, 60, 2, 0.542909
207, 6, bw, attraction, a-b-da, 2, 2, 6, 19, 163, 89, 165, 90, 90, 165, 2, 1.13469
207, 6, bw, attraction, a-b-da, 2, 2, 6, 19, 163, 89, 165, 90, 90, 165, 1, 0.376364
207, 6, bw, attraction, a-b-db, 2, 2, 6, 20, 165, 90, 90, 165, 89, 163, 1, 0.95881
207, 6, bw, attraction, a-b-db, 2, 2, 6, 20, 165, 90, 90, 165, 89, 163, 2, 0.271296
207, 6, bw, attraction, a-b-da, 2, 1, 6, 21, 60, 135, 135, 60, 134, 59, 2, 0.818422
207, 6, bw, attraction, a-b-da, 2, 1, 6, 21, 60, 135, 135, 60, 134, 59, 3, 0.400754
207, 6, bw, attraction, a-b-db, 9, 3, 6, 22, 114, 186, 195, 120, 120, 195, 2, 0.486661
207, 6, bw, attraction, a-b-db, 9, 3, 6, 22, 114, 186, 195, 120, 120, 195, 1, 0.241724
207, 6, bw, filler, NA, 999, 999, 6, 23, 62, 144, 95, 120, 95, 153, 3, 0.70161
207, 6, bw, filler, NA, 999, 999, 6, 23, 62, 144, 95, 120, 95, 153, 1, 0.36064
207, 6, bw, attraction, a-b-da, 9, 2, 6, 24, 165, 90, 90, 165, 157, 86, 1, 0.775804
207, 6, bw, attraction, a-b-da, 9, 2, 6, 24, 165, 90, 90, 165, 157, 86, 3, 0.407521
207, 6, bw, attraction, a-b-db, 5, 2, 6, 25, 90, 165, 165, 90, 88, 161, 2, 0.94873
207, 6, bw, attraction, a-b-db, 5, 2, 6, 25, 90, 165, 165, 90, 88, 161, 1, 0.373722
207, 6, bw, filler, NA, 999, 999, 6, 26, 181, 167, 144, 173, 156, 150, 1, 0.660212
207, 6, bw, filler, NA, 999, 999, 6, 26, 181, 167, 144, 173, 156, 150, 3, 0.520764
207, 6, bw, filler, NA, 999, 999, 6, 27, 132, 77, 118, 153, 63, 133, 2, 0.80973
207, 6, bw, filler, NA, 999, 999, 6, 27, 132, 77, 118, 153, 63, 133, 3, 0.488241
207, 6, bw, attraction, a-b-da, 5, 3, 6, 28, 120, 195, 190, 117, 195, 120, 1, 0.698531
207, 6, bw, attraction, a-b-da, 5, 3, 6, 28, 120, 195, 190, 117, 195, 120, 3, 0.653686
207, 6, bw, attraction, a-b-da, 14, 3, 6, 29, 181, 111, 120, 195, 195, 120, 2, 0.609579
207, 6, bw, attraction, a-b-da, 14, 3, 6, 29, 181, 111, 120, 195, 195, 120, 1, 0.679857
207, 6, bw, attraction, a-b-da, 2, 3, 6, 30, 195, 120, 120, 195, 193, 119, 1, 0.698266
207, 6, bw, attraction, a-b-da, 2, 3, 6, 30, 195, 120, 120, 195, 193, 119, 3, 0.605432
207, 6, bw, filler, NA, 999, 999, 6, 31, 72, 95, 120, 93, 63, 105, 2, 0.627129
207, 6, bw, filler, NA, 999, 999, 6, 31, 72, 95, 120, 93, 63, 105, 3, 0.561043
207, 6, bw, attraction, a-b-db, 5, 1, 6, 32, 58, 132, 135, 60, 60, 135, 1, 0.672042
207, 6, bw, attraction, a-b-db, 5, 1, 6, 32, 58, 132, 135, 60, 60, 135, 3, 0.675717
207, 6, bw, attraction, a-b-db, 2, 1, 6, 33, 59, 134, 135, 60, 60, 135, 1, 0.750244
207, 6, bw, attraction, a-b-db, 2, 1, 6, 33, 59, 134, 135, 60, 60, 135, 2, 0.3032
207, 6, bw, attraction, a-b-da, 5, 2, 6, 34, 165, 90, 90, 165, 161, 88, 2, 0.961212
207, 6, bw, attraction, a-b-da, 5, 2, 6, 34, 165, 90, 90, 165, 161, 88, 1, 0.329396
207, 6, bw, filler, NA, 999, 999, 6, 35, 104, 184, 87, 92, 73, 166, 1, 0.505899
207, 6, bw, filler, NA, 999, 999, 6, 35, 104, 184, 87, 92, 73, 166, 2, 0.476402
207, 6, bw, filler, NA, 999, 999, 6, 36, 152, 158, 76, 137, 60, 58, 1, 0.934928
207, 6, bw, filler, NA, 999, 999, 6, 36, 152, 158, 76, 137, 60, 58, 3, 0.624532
207, 6, bw, attraction, a-b-db, 2, 3, 6, 37, 119, 193, 195, 120, 120, 195, 2, 1.00502
207, 6, bw, attraction, a-b-db, 2, 3, 6, 37, 119, 193, 195, 120, 120, 195, 1, 0.747259
207, 6, bw, filler, NA, 999, 999, 7, 1, 186, 164, 85, 65, 141, 127, 1, 0.506952
207, 6, bw, filler, NA, 999, 999, 7, 1, 186, 164, 85, 65, 141, 127, 2, 0.541451
207, 6, bw, attraction, a-b-da, 14, 3, 7, 2, 195, 120, 181, 111, 120, 195, 2, 0.653248
207, 6, bw, attraction, a-b-da, 14, 3, 7, 2, 195, 120, 181, 111, 120, 195, 1, 0.274383
207, 6, bw, filler, NA, 999, 999, 7, 3, 82, 129, 188, 125, 179, 89, 2, 0.964885
207, 6, bw, filler, NA, 999, 999, 7, 3, 82, 129, 188, 125, 179, 89, 1, 0.301133
207, 6, bw, attraction, a-b-db, 5, 2, 7, 4, 165, 90, 88, 161, 90, 165, 1, 0.719053
207, 6, bw, attraction, a-b-db, 5, 2, 7, 4, 165, 90, 88, 161, 90, 165, 2, 0.281495
207, 6, bw, attraction, a-b-db, 9, 1, 7, 5, 57, 129, 60, 135, 135, 60, 2, 1.47605
207, 6, bw, attraction, a-b-db, 9, 1, 7, 5, 57, 129, 60, 135, 135, 60, 1, 0.343476
207, 6, bw, attraction, a-b-da, 5, 1, 7, 6, 60, 135, 132, 58, 135, 60, 3, 0.94337
207, 6, bw, attraction, a-b-da, 5, 1, 7, 6, 60, 135, 132, 58, 135, 60, 2, 0.264348
207, 6, bw, filler, NA, 999, 999, 7, 7, 156, 107, 134, 188, 111, 74, 2, 0.587559
207, 6, bw, filler, NA, 999, 999, 7, 7, 156, 107, 134, 188, 111, 74, 3, 0.714755
207, 6, bw, catch, NA, 999, 999, 7, 8, 170, 145, 111, 84, 125, 130, 1, 0.835735
207, 6, bw, catch, NA, 999, 999, 7, 8, 170, 145, 111, 84, 125, 130, 2, 0.377445
207, 6, bw, attraction, a-b-db, 9, 3, 7, 9, 195, 120, 114, 186, 120, 195, 3, 1.95193
207, 6, bw, attraction, a-b-db, 9, 3, 7, 9, 195, 120, 114, 186, 120, 195, 2, 0.416629
207, 6, bw, catch, NA, 999, 999, 7, 10, 76, 119, 170, 145, 157, 98, 2, 0.549726
207, 6, bw, catch, NA, 999, 999, 7, 10, 76, 119, 170, 145, 157, 98, 1, 0.510864
207, 6, bw, catch, NA, 999, 999, 7, 11, 111, 144, 89, 106, 177, 138, 3, 1.24007
207, 6, bw, catch, NA, 999, 999, 7, 11, 111, 144, 89, 106, 177, 138, 2, 0.236911
207, 6, bw, filler, NA, 999, 999, 7, 12, 182, 94, 84, 190, 175, 62, 1, 0.88146
207, 6, bw, filler, NA, 999, 999, 7, 12, 182, 94, 84, 190, 175, 62, 3, 0.885107
207, 6, bw, attraction, a-b-da, 5, 2, 7, 13, 165, 90, 161, 88, 90, 165, 3, 1.82355
207, 6, bw, attraction, a-b-da, 5, 2, 7, 13, 165, 90, 161, 88, 90, 165, 1, 1.12489
207, 6, bw, attraction, a-b-db, 9, 2, 7, 14, 165, 90, 90, 165, 86, 157, 2, 1.66115
207, 6, bw, attraction, a-b-db, 9, 2, 7, 14, 165, 90, 90, 165, 86, 157, 3, 0.425297
207, 6, bw, attraction, a-b-da, 2, 2, 7, 15, 90, 165, 165, 90, 163, 89, 1, 1.0058
207, 6, bw, attraction, a-b-da, 2, 2, 7, 15, 90, 165, 165, 90, 163, 89, 2, 0.252042
207, 6, bw, attraction, a-b-db, 5, 1, 7, 16, 135, 60, 58, 132, 60, 135, 3, 1.52004
207, 6, bw, attraction, a-b-db, 5, 1, 7, 16, 135, 60, 58, 132, 60, 135, 2, 0.578128
207, 6, bw, attraction, a-b-db, 2, 3, 7, 17, 195, 120, 120, 195, 119, 193, 3, 3.38463
207, 6, bw, attraction, a-b-db, 2, 3, 7, 17, 195, 120, 120, 195, 119, 193, 1, 0.391538
207, 6, bw, attraction, a-b-db, 14, 1, 7, 18, 60, 135, 56, 125, 135, 60, 3, 1.06122
207, 6, bw, attraction, a-b-db, 14, 1, 7, 18, 60, 135, 56, 125, 135, 60, 2, 0.641542
207, 6, bw, attraction, a-b-da, 2, 1, 7, 19, 135, 60, 60, 135, 134, 59, 3, 4.05346
207, 6, bw, attraction, a-b-da, 2, 1, 7, 19, 135, 60, 60, 135, 134, 59, 1, 1.06535
207, 6, bw, attraction, a-b-da, 5, 3, 7, 20, 190, 117, 195, 120, 120, 195, 3, 2.15623
207, 6, bw, attraction, a-b-da, 5, 3, 7, 20, 190, 117, 195, 120, 120, 195, 1, 0.372191
207, 6, bw, attraction, a-b-db, 14, 2, 7, 21, 90, 165, 165, 90, 83, 153, 1, 1.67541
207, 6, bw, attraction, a-b-db, 14, 2, 7, 21, 90, 165, 165, 90, 83, 153, 2, 0.446852
207, 6, bw, filler, NA, 999, 999, 7, 22, 106, 168, 74, 137, 168, 85, 1, 1.77068
207, 6, bw, filler, NA, 999, 999, 7, 22, 106, 168, 74, 137, 168, 85, 2, 0.282735
207, 6, bw, attraction, a-b-da, 14, 2, 7, 23, 90, 165, 165, 90, 153, 83, 2, 1.18926
207, 6, bw, attraction, a-b-da, 14, 2, 7, 23, 90, 165, 165, 90, 153, 83, 1, 0.324269
207, 6, bw, attraction, a-b-da, 9, 2, 7, 24, 165, 90, 90, 165, 157, 86, 2, 1.03681
207, 6, bw, attraction, a-b-da, 9, 2, 7, 24, 165, 90, 90, 165, 157, 86, 3, 0.490338
207, 6, bw, attraction, a-b-db, 14, 3, 7, 25, 111, 181, 120, 195, 195, 120, 3, 1.50012
207, 6, bw, attraction, a-b-db, 14, 3, 7, 25, 111, 181, 120, 195, 195, 120, 2, 0.326952
207, 6, bw, attraction, a-b-da, 9, 3, 7, 26, 186, 114, 120, 195, 195, 120, 2, 0.943484
207, 6, bw, attraction, a-b-da, 9, 3, 7, 26, 186, 114, 120, 195, 195, 120, 1, 0.328569
207, 6, bw, filler, NA, 999, 999, 7, 27, 117, 195, 127, 58, 63, 137, 1, 0.936957
207, 6, bw, filler, NA, 999, 999, 7, 27, 117, 195, 127, 58, 63, 137, 2, 0.561986
207, 6, bw, filler, NA, 999, 999, 7, 28, 172, 175, 128, 194, 143, 182, 1, 1.17731
207, 6, bw, filler, NA, 999, 999, 7, 28, 172, 175, 128, 194, 143, 182, 2, 0.632739
207, 6, bw, filler, NA, 999, 999, 7, 29, 195, 66, 99, 151, 117, 176, 3, 1.39708
207, 6, bw, filler, NA, 999, 999, 7, 29, 195, 66, 99, 151, 117, 176, 1, 0.484025
207, 6, bw, attraction, a-b-db, 2, 2, 7, 30, 90, 165, 89, 163, 165, 90, 1, 1.27046
207, 6, bw, attraction, a-b-db, 2, 2, 7, 30, 90, 165, 89, 163, 165, 90, 3, 0.426018
207, 6, bw, filler, NA, 999, 999, 7, 31, 134, 98, 145, 119, 147, 147, 3, 0.862499
207, 6, bw, filler, NA, 999, 999, 7, 31, 134, 98, 145, 119, 147, 147, 1, 0.370827
207, 6, bw, filler, NA, 999, 999, 7, 32, 116, 86, 126, 146, 164, 154, 3, 0.682202
207, 6, bw, filler, NA, 999, 999, 7, 32, 116, 86, 126, 146, 164, 154, 1, 0.397766
207, 6, bw, attraction, a-b-db, 5, 3, 7, 33, 120, 195, 195, 120, 117, 190, 1, 1.01962
207, 6, bw, attraction, a-b-db, 5, 3, 7, 33, 120, 195, 195, 120, 117, 190, 3, 0.306036
207, 6, bw, attraction, a-b-da, 2, 3, 7, 34, 120, 195, 195, 120, 193, 119, 1, 0.659126
207, 6, bw, attraction, a-b-da, 2, 3, 7, 34, 120, 195, 195, 120, 193, 119, 3, 0.2715
207, 6, bw, attraction, a-b-da, 9, 1, 7, 35, 135, 60, 129, 57, 60, 135, 1, 0.898719
207, 6, bw, attraction, a-b-da, 9, 1, 7, 35, 135, 60, 129, 57, 60, 135, 2, 0.325773
207, 6, bw, attraction, a-b-db, 2, 1, 7, 36, 135, 60, 60, 135, 59, 134, 2, 0.814291
207, 6, bw, attraction, a-b-db, 2, 1, 7, 36, 135, 60, 60, 135, 59, 134, 1, 0.404646
207, 6, bw, attraction, a-b-da, 14, 1, 7, 37, 60, 135, 125, 56, 135, 60, 2, 0.738516
207, 6, bw, attraction, a-b-da, 14, 1, 7, 37, 60, 135, 125, 56, 135, 60, 3, 0.531581
207, 6, bw, attraction, a-b-da, 14, 3, 8, 1, 195, 120, 181, 111, 120, 195, 1, 0.635893
207, 6, bw, attraction, a-b-da, 14, 3, 8, 1, 195, 120, 181, 111, 120, 195, 2, 0.345749
207, 6, bw, attraction, a-b-da, 9, 2, 8, 2, 157, 86, 165, 90, 90, 165, 2, 0.713611
207, 6, bw, attraction, a-b-da, 9, 2, 8, 2, 157, 86, 165, 90, 90, 165, 1, 0.220206
207, 6, bw, attraction, a-b-da, 5, 3, 8, 3, 190, 117, 120, 195, 195, 120, 2, 0.625154
207, 6, bw, attraction, a-b-da, 5, 3, 8, 3, 190, 117, 120, 195, 195, 120, 3, 0.279074
207, 6, bw, filler, NA, 999, 999, 8, 4, 112, 82, 109, 156, 166, 191, 3, 0.609504
207, 6, bw, filler, NA, 999, 999, 8, 4, 112, 82, 109, 156, 166, 191, 1, 0.527931
207, 6, bw, filler, NA, 999, 999, 8, 5, 143, 122, 159, 183, 154, 96, 2, 0.696445
207, 6, bw, filler, NA, 999, 999, 8, 5, 143, 122, 159, 183, 154, 96, 3, 0.323455
207, 6, bw, attraction, a-b-da, 14, 1, 8, 6, 125, 56, 135, 60, 60, 135, 3, 1.228
207, 6, bw, attraction, a-b-da, 14, 1, 8, 6, 125, 56, 135, 60, 60, 135, 2, 1.0816
207, 6, bw, attraction, a-b-db, 14, 1, 8, 7, 56, 125, 60, 135, 135, 60, 2, 1.45193
207, 6, bw, attraction, a-b-db, 14, 1, 8, 7, 56, 125, 60, 135, 135, 60, 1, 0.512738
207, 6, bw, catch, NA, 999, 999, 8, 8, 105, 150, 162, 153, 81, 114, 2, 0.481815
207, 6, bw, catch, NA, 999, 999, 8, 8, 105, 150, 162, 153, 81, 114, 3, 0.613815
207, 6, bw, attraction, a-b-da, 14, 2, 8, 9, 165, 90, 90, 165, 153, 83, 1, 0.586746
207, 6, bw, attraction, a-b-da, 14, 2, 8, 9, 165, 90, 90, 165, 153, 83, 2, 0.289824
207, 6, bw, attraction, a-b-db, 14, 3, 8, 10, 111, 181, 120, 195, 195, 120, 2, 0.483681
207, 6, bw, attraction, a-b-db, 14, 3, 8, 10, 111, 181, 120, 195, 195, 120, 3, 0.375509
207, 6, bw, attraction, a-b-db, 5, 3, 8, 11, 117, 190, 195, 120, 120, 195, 2, 0.405946
207, 6, bw, attraction, a-b-db, 5, 3, 8, 11, 117, 190, 195, 120, 120, 195, 1, 0.340553
207, 6, bw, attraction, a-b-db, 9, 3, 8, 12, 114, 186, 120, 195, 195, 120, 1, 0.564496
207, 6, bw, attraction, a-b-db, 9, 3, 8, 12, 114, 186, 120, 195, 195, 120, 3, 0.316867
207, 6, bw, attraction, a-b-da, 9, 3, 8, 13, 195, 120, 186, 114, 120, 195, 3, 0.694102
207, 6, bw, attraction, a-b-da, 9, 3, 8, 13, 195, 120, 186, 114, 120, 195, 2, 0.249119
207, 6, bw, attraction, a-b-da, 9, 1, 8, 14, 129, 57, 135, 60, 60, 135, 1, 0.667541
207, 6, bw, attraction, a-b-da, 9, 1, 8, 14, 129, 57, 135, 60, 60, 135, 2, 0.193485
207, 6, bw, catch, NA, 999, 999, 8, 15, 159, 156, 90, 105, 98, 157, 1, 0.567239
207, 6, bw, catch, NA, 999, 999, 8, 15, 159, 156, 90, 105, 98, 157, 2, 0.527693
207, 6, bw, filler, NA, 999, 999, 8, 16, 175, 89, 170, 151, 89, 165, 2, 0.592181
207, 6, bw, filler, NA, 999, 999, 8, 16, 175, 89, 170, 151, 89, 165, 1, 0.671412
207, 6, bw, filler, NA, 999, 999, 8, 17, 65, 147, 60, 58, 71, 122, 1, 0.866319
207, 6, bw, filler, NA, 999, 999, 8, 17, 65, 147, 60, 58, 71, 122, 2, 0.566719
207, 6, bw, attraction, a-b-db, 2, 2, 8, 18, 165, 90, 89, 163, 90, 165, 2, 0.605855
207, 6, bw, attraction, a-b-db, 2, 2, 8, 18, 165, 90, 89, 163, 90, 165, 1, 0.268315
207, 6, bw, attraction, a-b-da, 5, 2, 8, 19, 90, 165, 161, 88, 165, 90, 2, 0.423484
207, 6, bw, attraction, a-b-da, 5, 2, 8, 19, 90, 165, 161, 88, 165, 90, 3, 0.317364
207, 6, bw, attraction, a-b-db, 5, 1, 8, 20, 60, 135, 135, 60, 58, 132, 2, 0.766511
207, 6, bw, attraction, a-b-db, 5, 1, 8, 20, 60, 135, 135, 60, 58, 132, 1, 0.670976
207, 6, bw, filler, NA, 999, 999, 8, 21, 76, 178, 77, 135, 104, 64, 1, 0.929965
207, 6, bw, filler, NA, 999, 999, 8, 21, 76, 178, 77, 135, 104, 64, 3, 0.707624
207, 6, bw, attraction, a-b-db, 2, 1, 8, 22, 59, 134, 135, 60, 60, 135, 2, 1.09268
207, 6, bw, attraction, a-b-db, 2, 1, 8, 22, 59, 134, 135, 60, 60, 135, 1, 0.439582
207, 6, bw, filler, NA, 999, 999, 8, 23, 172, 104, 187, 181, 141, 78, 2, 0.635556
207, 6, bw, filler, NA, 999, 999, 8, 23, 172, 104, 187, 181, 141, 78, 3, 0.425304
207, 6, bw, attraction, a-b-db, 9, 2, 8, 24, 90, 165, 165, 90, 86, 157, 1, 1.46981
207, 6, bw, attraction, a-b-db, 9, 2, 8, 24, 90, 165, 165, 90, 86, 157, 2, 0.289232
207, 6, bw, attraction, a-b-db, 9, 1, 8, 25, 135, 60, 57, 129, 60, 135, 1, 0.971076
207, 6, bw, attraction, a-b-db, 9, 1, 8, 25, 135, 60, 57, 129, 60, 135, 2, 0.642741
207, 6, bw, attraction, a-b-da, 2, 3, 8, 26, 193, 119, 120, 195, 195, 120, 3, 1.20649
207, 6, bw, attraction, a-b-da, 2, 3, 8, 26, 193, 119, 120, 195, 195, 120, 1, 0.380805
207, 6, bw, attraction, a-b-db, 14, 2, 8, 27, 90, 165, 165, 90, 83, 153, 2, 0.81932
207, 6, bw, attraction, a-b-db, 14, 2, 8, 27, 90, 165, 165, 90, 83, 153, 3, 0.345647
207, 6, bw, filler, NA, 999, 999, 8, 28, 72, 61, 81, 64, 69, 86, 3, 1.44948
207, 6, bw, filler, NA, 999, 999, 8, 28, 72, 61, 81, 64, 69, 86, 1, 0.79033
207, 6, bw, attraction, a-b-da, 5, 1, 8, 29, 132, 58, 60, 135, 135, 60, 3, 1.66804
207, 6, bw, attraction, a-b-da, 5, 1, 8, 29, 132, 58, 60, 135, 135, 60, 1, 0.608149
207, 6, bw, attraction, a-b-db, 5, 2, 8, 30, 165, 90, 88, 161, 90, 165, 1, 1.92519
207, 6, bw, attraction, a-b-db, 5, 2, 8, 30, 165, 90, 88, 161, 90, 165, 2, 0.270545
207, 6, bw, attraction, a-b-da, 2, 1, 8, 31, 135, 60, 60, 135, 134, 59, 2, 1.32986
207, 6, bw, attraction, a-b-da, 2, 1, 8, 31, 135, 60, 60, 135, 134, 59, 1, 0.491325
207, 6, bw, catch, NA, 999, 999, 8, 32, 111, 144, 167, 148, 114, 81, 2, 0.565065
207, 6, bw, catch, NA, 999, 999, 8, 32, 111, 144, 167, 148, 114, 81, 3, 0.30956
207, 6, bw, filler, NA, 999, 999, 8, 33, 73, 147, 195, 154, 195, 131, 2, 0.686896
207, 6, bw, filler, NA, 999, 999, 8, 33, 73, 147, 195, 154, 195, 131, 1, 0.321832
207, 6, bw, attraction, a-b-db, 2, 3, 8, 34, 119, 193, 120, 195, 195, 120, 1, 0.987015
207, 6, bw, attraction, a-b-db, 2, 3, 8, 34, 119, 193, 120, 195, 195, 120, 2, 0.258664
207, 6, bw, attraction, a-b-da, 2, 2, 8, 35, 165, 90, 90, 165, 163, 89, 1, 1.45386
207, 6, bw, attraction, a-b-da, 2, 2, 8, 35, 165, 90, 90, 165, 163, 89, 3, 0.490709
207, 6, bw, filler, NA, 999, 999, 8, 36, 141, 185, 139, 98, 114, 169, 1, 0.580535
207, 6, bw, filler, NA, 999, 999, 8, 36, 141, 185, 139, 98, 114, 169, 2, 0.316226
207, 6, bw, filler, NA, 999, 999, 8, 37, 65, 56, 122, 143, 98, 168, 2, 0.509444
207, 6, bw, filler, NA, 999, 999, 8, 37, 65, 56, 122, 143, 98, 168, 1, 1.53597
