sub_n, computer_n, bw_cond, effect, set, distance, diag, block_n, trial_n, h1, w1, h2, w2, h3, w3, choice, rt 
223, 6, bw, practice, NA, 999, 999, 0, 1, 91, 149, 59, 71, 101, 85, 1, 3.38245
223, 6, bw, practice, NA, 999, 999, 0, 1, 91, 149, 59, 71, 101, 85, 2, 1.85393
223, 6, bw, practice, NA, 999, 999, 0, 2, 111, 64, 184, 60, 182, 80, 3, 7.97597
223, 6, bw, practice, NA, 999, 999, 0, 2, 111, 64, 184, 60, 182, 80, 1, 1.73183
223, 6, bw, practice, NA, 999, 999, 0, 3, 156, 63, 148, 132, 157, 176, 3, 8.54681
223, 6, bw, practice, NA, 999, 999, 0, 3, 156, 63, 148, 132, 157, 176, 1, 1.98483
223, 6, bw, attraction, a-b-da, 5, 3, 1, 1, 120, 195, 190, 117, 195, 120, 1, 10.4227
223, 6, bw, attraction, a-b-da, 5, 3, 1, 1, 120, 195, 190, 117, 195, 120, 2, 1.90533
223, 6, bw, attraction, a-b-db, 2, 3, 1, 2, 195, 120, 120, 195, 119, 193, 3, 3.13875
223, 6, bw, attraction, a-b-db, 2, 3, 1, 2, 195, 120, 120, 195, 119, 193, 2, 1.73902
223, 6, bw, filler, NA, 999, 999, 1, 3, 81, 118, 87, 188, 92, 111, 2, 1.61923
223, 6, bw, filler, NA, 999, 999, 1, 3, 81, 118, 87, 188, 92, 111, 3, 5.7773
223, 6, bw, attraction, a-b-db, 9, 3, 1, 4, 114, 186, 120, 195, 195, 120, 2, 3.05403
223, 6, bw, attraction, a-b-db, 9, 3, 1, 4, 114, 186, 120, 195, 195, 120, 1, 1.58587
223, 6, bw, attraction, a-b-db, 14, 1, 1, 5, 56, 125, 135, 60, 60, 135, 2, 3.60785
223, 6, bw, attraction, a-b-db, 14, 1, 1, 5, 56, 125, 135, 60, 60, 135, 1, 2.22144
223, 6, bw, attraction, a-b-da, 14, 2, 1, 6, 153, 83, 90, 165, 165, 90, 2, 10.898
223, 6, bw, attraction, a-b-da, 14, 2, 1, 6, 153, 83, 90, 165, 165, 90, 1, 1.08985
223, 6, bw, catch, NA, 999, 999, 1, 7, 162, 153, 150, 105, 98, 97, 1, 4.64349
223, 6, bw, catch, NA, 999, 999, 1, 7, 162, 153, 150, 105, 98, 97, 3, 0.975338
223, 6, bw, attraction, a-b-db, 2, 2, 1, 8, 89, 163, 90, 165, 165, 90, 2, 4.06964
223, 6, bw, attraction, a-b-db, 2, 2, 1, 8, 89, 163, 90, 165, 165, 90, 1, 1.273
223, 6, bw, attraction, a-b-db, 14, 3, 1, 9, 120, 195, 195, 120, 111, 181, 1, 4.25112
223, 6, bw, attraction, a-b-db, 14, 3, 1, 9, 120, 195, 195, 120, 111, 181, 2, 4.05524
223, 6, bw, attraction, a-b-db, 14, 2, 1, 10, 90, 165, 83, 153, 165, 90, 1, 4.95385
223, 6, bw, attraction, a-b-db, 14, 2, 1, 10, 90, 165, 83, 153, 165, 90, 2, 0.585603
223, 6, bw, filler, NA, 999, 999, 1, 11, 161, 132, 184, 176, 136, 189, 2, 1.76806
223, 6, bw, filler, NA, 999, 999, 1, 11, 161, 132, 184, 176, 136, 189, 1, 1.15221
223, 6, bw, attraction, a-b-db, 5, 1, 1, 12, 135, 60, 60, 135, 58, 132, 2, 4.03182
223, 6, bw, attraction, a-b-db, 5, 1, 1, 12, 135, 60, 60, 135, 58, 132, 1, 1.86843
223, 6, bw, attraction, a-b-da, 9, 1, 1, 13, 135, 60, 60, 135, 129, 57, 2, 1.35111
223, 6, bw, attraction, a-b-da, 9, 1, 1, 13, 135, 60, 60, 135, 129, 57, 3, 1.10411
223, 6, bw, attraction, a-b-da, 14, 3, 1, 14, 120, 195, 195, 120, 181, 111, 1, 2.64154
223, 6, bw, attraction, a-b-da, 14, 3, 1, 14, 120, 195, 195, 120, 181, 111, 3, 3.02209
223, 6, bw, attraction, a-b-da, 2, 3, 1, 15, 120, 195, 195, 120, 193, 119, 1, 7.33839
223, 6, bw, attraction, a-b-da, 2, 3, 1, 15, 120, 195, 195, 120, 193, 119, 3, 5.05809
223, 6, bw, attraction, a-b-da, 2, 2, 1, 16, 165, 90, 163, 89, 90, 165, 3, 3.92384
223, 6, bw, attraction, a-b-da, 2, 2, 1, 16, 165, 90, 163, 89, 90, 165, 2, 1.37251
223, 6, bw, attraction, a-b-db, 5, 2, 1, 17, 88, 161, 165, 90, 90, 165, 1, 4.4034
223, 6, bw, attraction, a-b-db, 5, 2, 1, 17, 88, 161, 165, 90, 90, 165, 2, 1.12126
223, 6, bw, filler, NA, 999, 999, 1, 18, 173, 77, 73, 70, 79, 192, 3, 2.32229
223, 6, bw, filler, NA, 999, 999, 1, 18, 173, 77, 73, 70, 79, 192, 2, 0.755446
223, 6, bw, attraction, a-b-da, 2, 1, 1, 19, 134, 59, 60, 135, 135, 60, 2, 2.26712
223, 6, bw, attraction, a-b-da, 2, 1, 1, 19, 134, 59, 60, 135, 135, 60, 1, 0.815068
223, 6, bw, attraction, a-b-db, 9, 1, 1, 20, 57, 129, 60, 135, 135, 60, 2, 6.65233
223, 6, bw, attraction, a-b-db, 9, 1, 1, 20, 57, 129, 60, 135, 135, 60, 3, 1.72754
223, 6, bw, attraction, a-b-db, 5, 3, 1, 21, 120, 195, 117, 190, 195, 120, 1, 3.83146
223, 6, bw, attraction, a-b-db, 5, 3, 1, 21, 120, 195, 117, 190, 195, 120, 3, 1.13223
223, 6, bw, filler, NA, 999, 999, 1, 22, 59, 74, 188, 166, 194, 186, 3, 2.35646
223, 6, bw, filler, NA, 999, 999, 1, 22, 59, 74, 188, 166, 194, 186, 1, 1.96433
223, 6, bw, filler, NA, 999, 999, 1, 23, 58, 166, 108, 161, 163, 134, 3, 2.89097
223, 6, bw, filler, NA, 999, 999, 1, 23, 58, 166, 108, 161, 163, 134, 1, 0.933344
223, 6, bw, attraction, a-b-db, 9, 2, 1, 24, 165, 90, 86, 157, 90, 165, 3, 15.5017
223, 6, bw, attraction, a-b-db, 9, 2, 1, 24, 165, 90, 86, 157, 90, 165, 2, 3.4444
223, 6, bw, filler, NA, 999, 999, 1, 25, 69, 158, 175, 107, 164, 163, 3, 2.19113
223, 6, bw, filler, NA, 999, 999, 1, 25, 69, 158, 175, 107, 164, 163, 1, 2.01391
223, 6, bw, attraction, a-b-da, 5, 1, 1, 26, 60, 135, 132, 58, 135, 60, 1, 2.73831
223, 6, bw, attraction, a-b-da, 5, 1, 1, 26, 60, 135, 132, 58, 135, 60, 2, 0.73881
223, 6, bw, filler, NA, 999, 999, 1, 27, 81, 142, 180, 123, 152, 129, 2, 12.2432
223, 6, bw, filler, NA, 999, 999, 1, 27, 81, 142, 180, 123, 152, 129, 1, 0.756604
223, 6, bw, filler, NA, 999, 999, 1, 28, 103, 58, 166, 190, 95, 162, 2, 1.55569
223, 6, bw, filler, NA, 999, 999, 1, 28, 103, 58, 166, 190, 95, 162, 1, 0.635844
223, 6, bw, filler, NA, 999, 999, 1, 29, 173, 141, 58, 130, 183, 106, 1, 2.30428
223, 6, bw, filler, NA, 999, 999, 1, 29, 173, 141, 58, 130, 183, 106, 2, 0.602143
223, 6, bw, attraction, a-b-db, 2, 1, 1, 30, 60, 135, 59, 134, 135, 60, 2, 3.17597
223, 6, bw, attraction, a-b-db, 2, 1, 1, 30, 60, 135, 59, 134, 135, 60, 3, 0.486934
223, 6, bw, catch, NA, 999, 999, 1, 31, 109, 146, 76, 119, 131, 184, 3, 1.25732
223, 6, bw, catch, NA, 999, 999, 1, 31, 109, 146, 76, 119, 131, 184, 2, 0.453595
223, 6, bw, filler, NA, 999, 999, 1, 32, 97, 110, 179, 150, 80, 176, 2, 1.03347
223, 6, bw, filler, NA, 999, 999, 1, 32, 97, 110, 179, 150, 80, 176, 1, 0.727241
223, 6, bw, attraction, a-b-da, 9, 2, 1, 33, 90, 165, 157, 86, 165, 90, 1, 1.39137
223, 6, bw, attraction, a-b-da, 9, 2, 1, 33, 90, 165, 157, 86, 165, 90, 2, 0.726381
223, 6, bw, attraction, a-b-da, 5, 2, 1, 34, 161, 88, 165, 90, 90, 165, 3, 6.45469
223, 6, bw, attraction, a-b-da, 5, 2, 1, 34, 161, 88, 165, 90, 90, 165, 2, 1.71397
223, 6, bw, catch, NA, 999, 999, 1, 35, 84, 111, 122, 133, 169, 146, 3, 1.27466
223, 6, bw, catch, NA, 999, 999, 1, 35, 84, 111, 122, 133, 169, 146, 1, 0.830344
223, 6, bw, attraction, a-b-da, 9, 3, 1, 36, 195, 120, 186, 114, 120, 195, 3, 5.86665
223, 6, bw, attraction, a-b-da, 9, 3, 1, 36, 195, 120, 186, 114, 120, 195, 2, 1.91744
223, 6, bw, attraction, a-b-da, 14, 1, 1, 37, 60, 135, 135, 60, 125, 56, 1, 5.06213
223, 6, bw, attraction, a-b-da, 14, 1, 1, 37, 60, 135, 135, 60, 125, 56, 2, 1.35316
223, 6, bw, attraction, a-b-da, 14, 1, 2, 1, 60, 135, 135, 60, 125, 56, 1, 1.4167
223, 6, bw, attraction, a-b-da, 14, 1, 2, 1, 60, 135, 135, 60, 125, 56, 3, 1.25499
223, 6, bw, attraction, a-b-da, 9, 2, 2, 2, 90, 165, 165, 90, 157, 86, 1, 7.03444
223, 6, bw, attraction, a-b-da, 9, 2, 2, 2, 90, 165, 165, 90, 157, 86, 2, 0.382177
223, 6, bw, attraction, a-b-da, 2, 2, 2, 3, 163, 89, 90, 165, 165, 90, 2, 7.57272
223, 6, bw, attraction, a-b-da, 2, 2, 2, 3, 163, 89, 90, 165, 165, 90, 3, 1.58698
223, 6, bw, catch, NA, 999, 999, 2, 4, 101, 154, 107, 88, 173, 142, 3, 1.40109
223, 6, bw, catch, NA, 999, 999, 2, 4, 101, 154, 107, 88, 173, 142, 2, 0.680055
223, 6, bw, attraction, a-b-db, 5, 3, 2, 5, 117, 190, 195, 120, 120, 195, 1, 3.04237
223, 6, bw, attraction, a-b-db, 5, 3, 2, 5, 117, 190, 195, 120, 120, 195, 2, 5.27084
223, 6, bw, attraction, a-b-da, 5, 2, 2, 6, 90, 165, 161, 88, 165, 90, 1, 1.89632
223, 6, bw, attraction, a-b-da, 5, 2, 2, 6, 90, 165, 161, 88, 165, 90, 2, 1.90706
223, 6, bw, attraction, a-b-db, 5, 2, 2, 7, 90, 165, 88, 161, 165, 90, 1, 4.21982
223, 6, bw, attraction, a-b-db, 5, 2, 2, 7, 90, 165, 88, 161, 165, 90, 3, 1.6571
223, 6, bw, filler, NA, 999, 999, 2, 8, 155, 69, 125, 101, 126, 171, 3, 1.36383
223, 6, bw, filler, NA, 999, 999, 2, 8, 155, 69, 125, 101, 126, 171, 2, 0.940005
223, 6, bw, filler, NA, 999, 999, 2, 9, 118, 147, 173, 145, 67, 192, 2, 2.49968
223, 6, bw, filler, NA, 999, 999, 2, 9, 118, 147, 173, 145, 67, 192, 3, 2.23829
223, 6, bw, attraction, a-b-da, 14, 2, 2, 10, 165, 90, 90, 165, 153, 83, 2, 2.72213
223, 6, bw, attraction, a-b-da, 14, 2, 2, 10, 165, 90, 90, 165, 153, 83, 3, 0.987231
223, 6, bw, attraction, a-b-db, 5, 1, 2, 11, 60, 135, 58, 132, 135, 60, 1, 11.6656
223, 6, bw, attraction, a-b-db, 5, 1, 2, 11, 60, 135, 58, 132, 135, 60, 3, 1.85063
223, 6, bw, attraction, a-b-db, 9, 2, 2, 12, 165, 90, 86, 157, 90, 165, 3, 2.74194
223, 6, bw, attraction, a-b-db, 9, 2, 2, 12, 165, 90, 86, 157, 90, 165, 1, 4.50242
223, 6, bw, attraction, a-b-db, 14, 1, 2, 13, 135, 60, 60, 135, 56, 125, 2, 2.04689
223, 6, bw, attraction, a-b-db, 14, 1, 2, 13, 135, 60, 60, 135, 56, 125, 1, 1.72368
223, 6, bw, attraction, a-b-db, 14, 2, 2, 14, 165, 90, 83, 153, 90, 165, 1, 6.15564
223, 6, bw, attraction, a-b-db, 14, 2, 2, 14, 165, 90, 83, 153, 90, 165, 2, 0.426296
223, 6, bw, attraction, a-b-db, 2, 2, 2, 15, 90, 165, 165, 90, 89, 163, 1, 2.80682
223, 6, bw, attraction, a-b-db, 2, 2, 2, 15, 90, 165, 165, 90, 89, 163, 2, 1.76477
223, 6, bw, attraction, a-b-da, 2, 3, 2, 16, 120, 195, 193, 119, 195, 120, 1, 5.29941
223, 6, bw, attraction, a-b-da, 2, 3, 2, 16, 120, 195, 193, 119, 195, 120, 2, 1.10107
223, 6, bw, filler, NA, 999, 999, 2, 17, 80, 176, 154, 155, 90, 74, 2, 1.35853
223, 6, bw, filler, NA, 999, 999, 2, 17, 80, 176, 154, 155, 90, 74, 3, 0.726777
223, 6, bw, attraction, a-b-da, 14, 3, 2, 18, 195, 120, 120, 195, 181, 111, 1, 2.12724
223, 6, bw, attraction, a-b-da, 14, 3, 2, 18, 195, 120, 120, 195, 181, 111, 2, 0.976486
223, 6, bw, filler, NA, 999, 999, 2, 19, 84, 88, 56, 130, 194, 128, 3, 2.07079
223, 6, bw, filler, NA, 999, 999, 2, 19, 84, 88, 56, 130, 194, 128, 1, 0.930745
223, 6, bw, filler, NA, 999, 999, 2, 20, 159, 172, 195, 126, 92, 115, 1, 2.4512
223, 6, bw, filler, NA, 999, 999, 2, 20, 159, 172, 195, 126, 92, 115, 3, 1.12773
223, 6, bw, attraction, a-b-db, 2, 1, 2, 21, 59, 134, 135, 60, 60, 135, 1, 6.09589
223, 6, bw, attraction, a-b-db, 2, 1, 2, 21, 59, 134, 135, 60, 60, 135, 2, 0.617273
223, 6, bw, attraction, a-b-db, 14, 3, 2, 22, 120, 195, 195, 120, 111, 181, 1, 6.19035
223, 6, bw, attraction, a-b-db, 14, 3, 2, 22, 120, 195, 195, 120, 111, 181, 2, 0.771723
223, 6, bw, attraction, a-b-db, 9, 3, 2, 23, 120, 195, 114, 186, 195, 120, 1, 5.25882
223, 6, bw, attraction, a-b-db, 9, 3, 2, 23, 120, 195, 114, 186, 195, 120, 3, 0.78177
223, 6, bw, filler, NA, 999, 999, 2, 24, 186, 146, 90, 131, 67, 103, 1, 2.04407
223, 6, bw, filler, NA, 999, 999, 2, 24, 186, 146, 90, 131, 67, 103, 3, 0.664835
223, 6, bw, attraction, a-b-da, 2, 1, 2, 25, 60, 135, 134, 59, 135, 60, 1, 6.19588
223, 6, bw, attraction, a-b-da, 2, 1, 2, 25, 60, 135, 134, 59, 135, 60, 3, 0.713167
223, 6, bw, attraction, a-b-da, 5, 3, 2, 26, 120, 195, 190, 117, 195, 120, 1, 6.61828
223, 6, bw, attraction, a-b-da, 5, 3, 2, 26, 120, 195, 190, 117, 195, 120, 3, 1.71086
223, 6, bw, catch, NA, 999, 999, 2, 27, 139, 176, 112, 143, 73, 122, 1, 1.49553
223, 6, bw, catch, NA, 999, 999, 2, 27, 139, 176, 112, 143, 73, 122, 3, 0.554617
223, 6, bw, attraction, a-b-db, 9, 1, 2, 28, 135, 60, 57, 129, 60, 135, 2, 3.2982
223, 6, bw, attraction, a-b-db, 9, 1, 2, 28, 135, 60, 57, 129, 60, 135, 1, 0.996444
223, 6, bw, filler, NA, 999, 999, 2, 29, 137, 166, 187, 125, 184, 161, 3, 2.39413
223, 6, bw, filler, NA, 999, 999, 2, 29, 137, 166, 187, 125, 184, 161, 2, 2.13669
223, 6, bw, attraction, a-b-db, 2, 3, 2, 30, 119, 193, 195, 120, 120, 195, 1, 2.85664
223, 6, bw, attraction, a-b-db, 2, 3, 2, 30, 119, 193, 195, 120, 120, 195, 2, 1.94838
223, 6, bw, attraction, a-b-da, 5, 1, 2, 31, 60, 135, 135, 60, 132, 58, 1, 9.17164
223, 6, bw, attraction, a-b-da, 5, 1, 2, 31, 60, 135, 135, 60, 132, 58, 3, 0.673429
223, 6, bw, filler, NA, 999, 999, 2, 32, 78, 75, 162, 124, 177, 134, 3, 2.21182
223, 6, bw, filler, NA, 999, 999, 2, 32, 78, 75, 162, 124, 177, 134, 1, 0.689703
223, 6, bw, attraction, a-b-da, 9, 3, 2, 33, 195, 120, 120, 195, 186, 114, 1, 3.53961
223, 6, bw, attraction, a-b-da, 9, 3, 2, 33, 195, 120, 120, 195, 186, 114, 2, 1.01977
223, 6, bw, filler, NA, 999, 999, 2, 34, 111, 78, 139, 149, 94, 171, 2, 2.9367
223, 6, bw, filler, NA, 999, 999, 2, 34, 111, 78, 139, 149, 94, 171, 1, 0.729847
223, 6, bw, filler, NA, 999, 999, 2, 35, 103, 113, 187, 175, 169, 68, 2, 1.75423
223, 6, bw, filler, NA, 999, 999, 2, 35, 103, 113, 187, 175, 169, 68, 1, 0.47423
223, 6, bw, attraction, a-b-da, 9, 1, 2, 36, 129, 57, 135, 60, 60, 135, 3, 7.00466
223, 6, bw, attraction, a-b-da, 9, 1, 2, 36, 129, 57, 135, 60, 60, 135, 1, 0.841802
223, 6, bw, catch, NA, 999, 999, 2, 37, 133, 182, 62, 133, 158, 97, 1, 1.54143
223, 6, bw, catch, NA, 999, 999, 2, 37, 133, 182, 62, 133, 158, 97, 2, 0.926331
223, 6, bw, attraction, a-b-db, 9, 1, 3, 1, 57, 129, 60, 135, 135, 60, 2, 2.04649
223, 6, bw, attraction, a-b-db, 9, 1, 3, 1, 57, 129, 60, 135, 135, 60, 1, 1.08326
223, 6, bw, attraction, a-b-da, 5, 1, 3, 2, 135, 60, 132, 58, 60, 135, 3, 1.50177
223, 6, bw, attraction, a-b-da, 5, 1, 3, 2, 135, 60, 132, 58, 60, 135, 2, 0.704333
223, 6, bw, attraction, a-b-da, 5, 3, 3, 3, 195, 120, 190, 117, 120, 195, 1, 8.18605
223, 6, bw, attraction, a-b-da, 5, 3, 3, 3, 195, 120, 190, 117, 120, 195, 2, 3.58353
223, 6, bw, filler, NA, 999, 999, 3, 4, 114, 176, 79, 117, 187, 86, 1, 1.56506
223, 6, bw, filler, NA, 999, 999, 3, 4, 114, 176, 79, 117, 187, 86, 2, 0.477119
223, 6, bw, attraction, a-b-da, 2, 1, 3, 5, 134, 59, 135, 60, 60, 135, 3, 5.92762
223, 6, bw, attraction, a-b-da, 2, 1, 3, 5, 134, 59, 135, 60, 60, 135, 1, 0.799804
223, 6, bw, attraction, a-b-db, 5, 1, 3, 6, 58, 132, 135, 60, 60, 135, 3, 1.51739
223, 6, bw, attraction, a-b-db, 5, 1, 3, 6, 58, 132, 135, 60, 60, 135, 2, 2.24758
223, 6, bw, filler, NA, 999, 999, 3, 7, 61, 62, 91, 109, 60, 124, 2, 1.25886
223, 6, bw, filler, NA, 999, 999, 3, 7, 61, 62, 91, 109, 60, 124, 1, 0.727067
223, 6, bw, attraction, a-b-db, 14, 1, 3, 8, 60, 135, 56, 125, 135, 60, 1, 11.4315
223, 6, bw, attraction, a-b-db, 14, 1, 3, 8, 60, 135, 56, 125, 135, 60, 2, 0.96192
223, 6, bw, attraction, a-b-da, 9, 3, 3, 9, 186, 114, 195, 120, 120, 195, 3, 5.07291
223, 6, bw, attraction, a-b-da, 9, 3, 3, 9, 186, 114, 195, 120, 120, 195, 1, 0.459167
223, 6, bw, filler, NA, 999, 999, 3, 10, 73, 143, 73, 66, 68, 64, 1, 2.02238
223, 6, bw, filler, NA, 999, 999, 3, 10, 73, 143, 73, 66, 68, 64, 2, 0.763732
223, 6, bw, filler, NA, 999, 999, 3, 11, 100, 95, 159, 99, 82, 176, 2, 4.05879
223, 6, bw, filler, NA, 999, 999, 3, 11, 100, 95, 159, 99, 82, 176, 1, 0.630047
223, 6, bw, filler, NA, 999, 999, 3, 12, 166, 192, 113, 133, 79, 131, 1, 1.71449
223, 6, bw, filler, NA, 999, 999, 3, 12, 166, 192, 113, 133, 79, 131, 3, 1.62876
223, 6, bw, catch, NA, 999, 999, 3, 13, 99, 156, 134, 61, 129, 186, 3, 2.15271
223, 6, bw, catch, NA, 999, 999, 3, 13, 99, 156, 134, 61, 129, 186, 2, 0.857355
223, 6, bw, attraction, a-b-db, 5, 3, 3, 14, 120, 195, 117, 190, 195, 120, 1, 8.23631
223, 6, bw, attraction, a-b-db, 5, 3, 3, 14, 120, 195, 117, 190, 195, 120, 3, 0.551796
223, 6, bw, attraction, a-b-db, 2, 1, 3, 15, 60, 135, 135, 60, 59, 134, 1, 2.51151
223, 6, bw, attraction, a-b-db, 2, 1, 3, 15, 60, 135, 135, 60, 59, 134, 2, 1.55347
223, 6, bw, attraction, a-b-db, 14, 2, 3, 16, 90, 165, 83, 153, 165, 90, 3, 3.96881
223, 6, bw, attraction, a-b-db, 14, 2, 3, 16, 90, 165, 83, 153, 165, 90, 2, 0.58426
223, 6, bw, attraction, a-b-da, 14, 2, 3, 17, 153, 83, 90, 165, 165, 90, 3, 2.55862
223, 6, bw, attraction, a-b-da, 14, 2, 3, 17, 153, 83, 90, 165, 165, 90, 1, 8.81462
223, 6, bw, attraction, a-b-db, 14, 3, 3, 18, 111, 181, 120, 195, 195, 120, 2, 15.921
223, 6, bw, attraction, a-b-db, 14, 3, 3, 18, 111, 181, 120, 195, 195, 120, 1, 0.526738
223, 6, bw, filler, NA, 999, 999, 3, 19, 99, 87, 60, 70, 173, 145, 3, 1.11115
223, 6, bw, filler, NA, 999, 999, 3, 19, 99, 87, 60, 70, 173, 145, 2, 0.641412
223, 6, bw, attraction, a-b-da, 14, 3, 3, 20, 120, 195, 181, 111, 195, 120, 1, 4.28518
223, 6, bw, attraction, a-b-da, 14, 3, 3, 20, 120, 195, 181, 111, 195, 120, 2, 1.03181
223, 6, bw, attraction, a-b-db, 5, 2, 3, 21, 165, 90, 88, 161, 90, 165, 1, 6.4601
223, 6, bw, attraction, a-b-db, 5, 2, 3, 21, 165, 90, 88, 161, 90, 165, 2, 0.662663
223, 6, bw, filler, NA, 999, 999, 3, 22, 142, 119, 161, 170, 169, 134, 2, 1.40996
223, 6, bw, filler, NA, 999, 999, 3, 22, 142, 119, 161, 170, 169, 134, 1, 0.624049
223, 6, bw, attraction, a-b-db, 2, 2, 3, 23, 165, 90, 90, 165, 89, 163, 2, 8.5804
223, 6, bw, attraction, a-b-db, 2, 2, 3, 23, 165, 90, 90, 165, 89, 163, 1, 34.2657
223, 6, bw, filler, NA, 999, 999, 3, 24, 187, 72, 190, 62, 177, 168, 3, 0.850946
223, 6, bw, filler, NA, 999, 999, 3, 24, 187, 72, 190, 62, 177, 168, 2, 0.839979
223, 6, bw, catch, NA, 999, 999, 3, 25, 104, 151, 72, 123, 186, 129, 3, 1.62764
223, 6, bw, catch, NA, 999, 999, 3, 25, 104, 151, 72, 123, 186, 129, 2, 0.561133
223, 6, bw, attraction, a-b-da, 2, 2, 3, 26, 165, 90, 90, 165, 163, 89, 2, 2.22417
223, 6, bw, attraction, a-b-da, 2, 2, 3, 26, 165, 90, 90, 165, 163, 89, 3, 0.549455
223, 6, bw, attraction, a-b-da, 5, 2, 3, 27, 161, 88, 165, 90, 90, 165, 3, 3.18947
223, 6, bw, attraction, a-b-da, 5, 2, 3, 27, 161, 88, 165, 90, 90, 165, 1, 0.683539
223, 6, bw, attraction, a-b-db, 9, 2, 3, 28, 90, 165, 165, 90, 86, 157, 3, 5.10197
223, 6, bw, attraction, a-b-db, 9, 2, 3, 28, 90, 165, 165, 90, 86, 157, 2, 1.19962
223, 6, bw, filler, NA, 999, 999, 3, 29, 136, 101, 134, 120, 185, 127, 3, 2.77331
223, 6, bw, filler, NA, 999, 999, 3, 29, 136, 101, 134, 120, 185, 127, 1, 0.612449
223, 6, bw, attraction, a-b-da, 2, 3, 3, 30, 195, 120, 120, 195, 193, 119, 2, 2.19338
223, 6, bw, attraction, a-b-da, 2, 3, 3, 30, 195, 120, 120, 195, 193, 119, 1, 3.32806
223, 6, bw, attraction, a-b-da, 9, 1, 3, 31, 129, 57, 60, 135, 135, 60, 2, 3.71961
223, 6, bw, attraction, a-b-da, 9, 1, 3, 31, 129, 57, 60, 135, 135, 60, 1, 1.49707
223, 6, bw, attraction, a-b-db, 2, 3, 3, 32, 119, 193, 120, 195, 195, 120, 1, 3.20257
223, 6, bw, attraction, a-b-db, 2, 3, 3, 32, 119, 193, 120, 195, 195, 120, 3, 1.55292
223, 6, bw, filler, NA, 999, 999, 3, 33, 102, 56, 114, 161, 164, 105, 2, 2.24029
223, 6, bw, filler, NA, 999, 999, 3, 33, 102, 56, 114, 161, 164, 105, 1, 0.636844
223, 6, bw, catch, NA, 999, 999, 3, 34, 87, 108, 124, 131, 173, 142, 3, 1.70538
223, 6, bw, catch, NA, 999, 999, 3, 34, 87, 108, 124, 131, 173, 142, 1, 0.427431
223, 6, bw, attraction, a-b-da, 9, 2, 3, 35, 165, 90, 157, 86, 90, 165, 2, 5.52798
223, 6, bw, attraction, a-b-da, 9, 2, 3, 35, 165, 90, 157, 86, 90, 165, 1, 0.632127
223, 6, bw, attraction, a-b-db, 9, 3, 3, 36, 120, 195, 195, 120, 114, 186, 2, 2.73271
223, 6, bw, attraction, a-b-db, 9, 3, 3, 36, 120, 195, 195, 120, 114, 186, 3, 0.421637
223, 6, bw, attraction, a-b-da, 14, 1, 3, 37, 135, 60, 60, 135, 125, 56, 2, 6.4108
223, 6, bw, attraction, a-b-da, 14, 1, 3, 37, 135, 60, 60, 135, 125, 56, 1, 0.599434
223, 6, bw, filler, NA, 999, 999, 4, 1, 111, 124, 187, 66, 106, 110, 1, 3.06123
223, 6, bw, filler, NA, 999, 999, 4, 1, 111, 124, 187, 66, 106, 110, 2, 3.45691
223, 6, bw, catch, NA, 999, 999, 4, 2, 75, 120, 148, 167, 121, 134, 2, 1.88383
223, 6, bw, catch, NA, 999, 999, 4, 2, 75, 120, 148, 167, 121, 134, 1, 0.583105
223, 6, bw, attraction, a-b-da, 5, 2, 4, 3, 161, 88, 165, 90, 90, 165, 3, 4.37358
223, 6, bw, attraction, a-b-da, 5, 2, 4, 3, 161, 88, 165, 90, 90, 165, 1, 0.572164
223, 6, bw, filler, NA, 999, 999, 4, 4, 147, 177, 191, 73, 95, 91, 1, 1.18731
223, 6, bw, filler, NA, 999, 999, 4, 4, 147, 177, 191, 73, 95, 91, 3, 0.674222
223, 6, bw, attraction, a-b-db, 2, 2, 4, 5, 165, 90, 89, 163, 90, 165, 3, 3.22862
223, 6, bw, attraction, a-b-db, 2, 2, 4, 5, 165, 90, 89, 163, 90, 165, 1, 1.04164
223, 6, bw, attraction, a-b-da, 14, 1, 4, 6, 60, 135, 135, 60, 125, 56, 2, 2.45318
223, 6, bw, attraction, a-b-da, 14, 1, 4, 6, 60, 135, 135, 60, 125, 56, 1, 0.857754
223, 6, bw, attraction, a-b-db, 9, 3, 4, 7, 195, 120, 120, 195, 114, 186, 2, 4.89287
223, 6, bw, attraction, a-b-db, 9, 3, 4, 7, 195, 120, 120, 195, 114, 186, 1, 21.1106
223, 6, bw, attraction, a-b-db, 9, 2, 4, 8, 165, 90, 90, 165, 86, 157, 2, 1.88993
223, 6, bw, attraction, a-b-db, 9, 2, 4, 8, 165, 90, 90, 165, 86, 157, 3, 1.29259
223, 6, bw, attraction, a-b-db, 14, 2, 4, 9, 83, 153, 165, 90, 90, 165, 3, 2.84614
223, 6, bw, attraction, a-b-db, 14, 2, 4, 9, 83, 153, 165, 90, 90, 165, 1, 0.682649
223, 6, bw, filler, NA, 999, 999, 4, 10, 109, 59, 195, 186, 111, 71, 2, 1.20491
223, 6, bw, filler, NA, 999, 999, 4, 10, 109, 59, 195, 186, 111, 71, 1, 0.62729
223, 6, bw, attraction, a-b-db, 5, 2, 4, 11, 90, 165, 88, 161, 165, 90, 1, 4.84758
223, 6, bw, attraction, a-b-db, 5, 2, 4, 11, 90, 165, 88, 161, 165, 90, 2, 2.25141
223, 6, bw, attraction, a-b-da, 14, 2, 4, 12, 165, 90, 90, 165, 153, 83, 2, 3.51866
223, 6, bw, attraction, a-b-da, 14, 2, 4, 12, 165, 90, 90, 165, 153, 83, 3, 0.480143
223, 6, bw, filler, NA, 999, 999, 4, 13, 129, 172, 165, 142, 72, 130, 2, 11.9147
223, 6, bw, filler, NA, 999, 999, 4, 13, 129, 172, 165, 142, 72, 130, 3, 0.97756
223, 6, bw, attraction, a-b-da, 9, 1, 4, 14, 135, 60, 129, 57, 60, 135, 3, 5.44782
223, 6, bw, attraction, a-b-da, 9, 1, 4, 14, 135, 60, 129, 57, 60, 135, 2, 0.443529
223, 6, bw, attraction, a-b-da, 5, 1, 4, 15, 135, 60, 132, 58, 60, 135, 3, 2.07129
223, 6, bw, attraction, a-b-da, 5, 1, 4, 15, 135, 60, 132, 58, 60, 135, 2, 0.698663
223, 6, bw, attraction, a-b-db, 2, 1, 4, 16, 59, 134, 135, 60, 60, 135, 1, 6.38835
223, 6, bw, attraction, a-b-db, 2, 1, 4, 16, 59, 134, 135, 60, 60, 135, 2, 1.06632
223, 6, bw, filler, NA, 999, 999, 4, 17, 93, 99, 116, 138, 84, 88, 3, 3.36526
223, 6, bw, filler, NA, 999, 999, 4, 17, 93, 99, 116, 138, 84, 88, 2, 1.8449
223, 6, bw, attraction, a-b-da, 9, 3, 4, 18, 120, 195, 195, 120, 186, 114, 1, 6.83214
223, 6, bw, attraction, a-b-da, 9, 3, 4, 18, 120, 195, 195, 120, 186, 114, 3, 1.90804
223, 6, bw, filler, NA, 999, 999, 4, 19, 119, 87, 174, 89, 183, 99, 3, 2.30072
223, 6, bw, filler, NA, 999, 999, 4, 19, 119, 87, 174, 89, 183, 99, 1, 0.615249
223, 6, bw, attraction, a-b-da, 2, 2, 4, 20, 163, 89, 90, 165, 165, 90, 2, 6.32443
223, 6, bw, attraction, a-b-da, 2, 2, 4, 20, 163, 89, 90, 165, 165, 90, 1, 4.21236
223, 6, bw, attraction, a-b-da, 5, 3, 4, 21, 190, 117, 120, 195, 195, 120, 2, 1.95227
223, 6, bw, attraction, a-b-da, 5, 3, 4, 21, 190, 117, 120, 195, 195, 120, 3, 0.601053
223, 6, bw, filler, NA, 999, 999, 4, 22, 70, 106, 177, 77, 108, 81, 2, 2.1668
223, 6, bw, filler, NA, 999, 999, 4, 22, 70, 106, 177, 77, 108, 81, 1, 2.77487
223, 6, bw, attraction, a-b-da, 9, 2, 4, 23, 157, 86, 165, 90, 90, 165, 3, 2.34051
223, 6, bw, attraction, a-b-da, 9, 2, 4, 23, 157, 86, 165, 90, 90, 165, 2, 0.716988
223, 6, bw, attraction, a-b-db, 9, 1, 4, 24, 135, 60, 57, 129, 60, 135, 1, 5.79025
223, 6, bw, attraction, a-b-db, 9, 1, 4, 24, 135, 60, 57, 129, 60, 135, 2, 0.691575
223, 6, bw, catch, NA, 999, 999, 4, 25, 77, 118, 124, 131, 166, 149, 3, 1.59735
223, 6, bw, catch, NA, 999, 999, 4, 25, 77, 118, 124, 131, 166, 149, 1, 1.10814
223, 6, bw, filler, NA, 999, 999, 4, 26, 175, 177, 96, 132, 161, 59, 1, 2.51703
223, 6, bw, filler, NA, 999, 999, 4, 26, 175, 177, 96, 132, 161, 59, 3, 27.855
223, 6, bw, attraction, a-b-da, 2, 1, 4, 27, 60, 135, 135, 60, 134, 59, 1, 2.29012
223, 6, bw, attraction, a-b-da, 2, 1, 4, 27, 60, 135, 135, 60, 134, 59, 2, 0.396715
223, 6, bw, catch, NA, 999, 999, 4, 28, 191, 124, 91, 164, 116, 79, 1, 1.3385
223, 6, bw, catch, NA, 999, 999, 4, 28, 191, 124, 91, 164, 116, 79, 3, 0.579444
223, 6, bw, attraction, a-b-db, 5, 1, 4, 29, 135, 60, 60, 135, 58, 132, 2, 2.42606
223, 6, bw, attraction, a-b-db, 5, 1, 4, 29, 135, 60, 60, 135, 58, 132, 1, 0.478979
223, 6, bw, attraction, a-b-da, 14, 3, 4, 30, 181, 111, 120, 195, 195, 120, 2, 3.44155
223, 6, bw, attraction, a-b-da, 14, 3, 4, 30, 181, 111, 120, 195, 195, 120, 1, 0.517695
223, 6, bw, filler, NA, 999, 999, 4, 31, 85, 145, 83, 69, 115, 123, 3, 1.83892
223, 6, bw, filler, NA, 999, 999, 4, 31, 85, 145, 83, 69, 115, 123, 2, 0.563559
223, 6, bw, attraction, a-b-db, 14, 1, 4, 32, 135, 60, 56, 125, 60, 135, 2, 3.79467
223, 6, bw, attraction, a-b-db, 14, 1, 4, 32, 135, 60, 56, 125, 60, 135, 1, 0.800877
223, 6, bw, filler, NA, 999, 999, 4, 33, 179, 93, 186, 161, 170, 91, 2, 1.33462
223, 6, bw, filler, NA, 999, 999, 4, 33, 179, 93, 186, 161, 170, 91, 3, 0.848055
223, 6, bw, attraction, a-b-db, 14, 3, 4, 34, 111, 181, 195, 120, 120, 195, 3, 4.52371
223, 6, bw, attraction, a-b-db, 14, 3, 4, 34, 111, 181, 195, 120, 120, 195, 1, 0.924337
223, 6, bw, attraction, a-b-db, 5, 3, 4, 35, 117, 190, 120, 195, 195, 120, 2, 17.8927
223, 6, bw, attraction, a-b-db, 5, 3, 4, 35, 117, 190, 120, 195, 195, 120, 1, 5.85096
223, 6, bw, attraction, a-b-db, 2, 3, 4, 36, 195, 120, 120, 195, 119, 193, 2, 1.82912
223, 6, bw, attraction, a-b-db, 2, 3, 4, 36, 195, 120, 120, 195, 119, 193, 3, 0.602517
223, 6, bw, attraction, a-b-da, 2, 3, 4, 37, 195, 120, 193, 119, 120, 195, 2, 2.3123
223, 6, bw, attraction, a-b-da, 2, 3, 4, 37, 195, 120, 193, 119, 120, 195, 3, 0.674201
223, 6, bw, attraction, a-b-db, 9, 2, 5, 1, 165, 90, 86, 157, 90, 165, 2, 7.72317
223, 6, bw, attraction, a-b-db, 9, 2, 5, 1, 165, 90, 86, 157, 90, 165, 1, 2.03543
223, 6, bw, filler, NA, 999, 999, 5, 2, 152, 152, 118, 187, 86, 74, 1, 1.33551
223, 6, bw, filler, NA, 999, 999, 5, 2, 152, 152, 118, 187, 86, 74, 3, 0.76912
223, 6, bw, attraction, a-b-da, 14, 3, 5, 3, 181, 111, 120, 195, 195, 120, 2, 3.45613
223, 6, bw, attraction, a-b-da, 14, 3, 5, 3, 181, 111, 120, 195, 195, 120, 1, 0.811566
223, 6, bw, attraction, a-b-da, 2, 3, 5, 4, 193, 119, 195, 120, 120, 195, 3, 4.10464
223, 6, bw, attraction, a-b-da, 2, 3, 5, 4, 193, 119, 195, 120, 120, 195, 2, 0.529937
223, 6, bw, attraction, a-b-db, 2, 3, 5, 5, 119, 193, 195, 120, 120, 195, 3, 3.8664
223, 6, bw, attraction, a-b-db, 2, 3, 5, 5, 119, 193, 195, 120, 120, 195, 2, 0.765824
223, 6, bw, attraction, a-b-db, 2, 1, 5, 6, 60, 135, 59, 134, 135, 60, 2, 2.09285
223, 6, bw, attraction, a-b-db, 2, 1, 5, 6, 60, 135, 59, 134, 135, 60, 1, 2.01553
223, 6, bw, filler, NA, 999, 999, 5, 7, 58, 111, 66, 131, 151, 83, 3, 1.83618
223, 6, bw, filler, NA, 999, 999, 5, 7, 58, 111, 66, 131, 151, 83, 1, 0.577578
223, 6, bw, filler, NA, 999, 999, 5, 8, 102, 96, 88, 155, 125, 71, 2, 4.31198
223, 6, bw, filler, NA, 999, 999, 5, 8, 102, 96, 88, 155, 125, 71, 1, 0.441251
223, 6, bw, filler, NA, 999, 999, 5, 9, 92, 105, 143, 127, 169, 130, 3, 1.30901
223, 6, bw, filler, NA, 999, 999, 5, 9, 92, 105, 143, 127, 169, 130, 1, 0.511376
223, 6, bw, attraction, a-b-db, 9, 1, 5, 10, 135, 60, 57, 129, 60, 135, 3, 9.24842
223, 6, bw, attraction, a-b-db, 9, 1, 5, 10, 135, 60, 57, 129, 60, 135, 2, 0.498839
223, 6, bw, attraction, a-b-da, 2, 2, 5, 11, 90, 165, 163, 89, 165, 90, 1, 5.25264
223, 6, bw, attraction, a-b-da, 2, 2, 5, 11, 90, 165, 163, 89, 165, 90, 2, 1.38438
223, 6, bw, attraction, a-b-db, 5, 1, 5, 12, 58, 132, 135, 60, 60, 135, 3, 1.39846
223, 6, bw, attraction, a-b-db, 5, 1, 5, 12, 58, 132, 135, 60, 60, 135, 2, 0.677314
223, 6, bw, filler, NA, 999, 999, 5, 13, 118, 76, 145, 112, 180, 125, 3, 2.55176
223, 6, bw, filler, NA, 999, 999, 5, 13, 118, 76, 145, 112, 180, 125, 1, 0.720226
223, 6, bw, attraction, a-b-db, 5, 2, 5, 14, 165, 90, 90, 165, 88, 161, 2, 4.84934
223, 6, bw, attraction, a-b-db, 5, 2, 5, 14, 165, 90, 90, 165, 88, 161, 3, 0.357207
223, 6, bw, attraction, a-b-db, 14, 3, 5, 15, 120, 195, 111, 181, 195, 120, 1, 2.94034
223, 6, bw, attraction, a-b-db, 14, 3, 5, 15, 120, 195, 111, 181, 195, 120, 2, 0.508745
223, 6, bw, attraction, a-b-da, 9, 1, 5, 16, 60, 135, 135, 60, 129, 57, 2, 3.41368
223, 6, bw, attraction, a-b-da, 9, 1, 5, 16, 60, 135, 135, 60, 129, 57, 1, 0.85128
223, 6, bw, filler, NA, 999, 999, 5, 17, 80, 157, 180, 138, 73, 90, 2, 2.11902
223, 6, bw, filler, NA, 999, 999, 5, 17, 80, 157, 180, 138, 73, 90, 3, 0.520991
223, 6, bw, catch, NA, 999, 999, 5, 18, 193, 122, 103, 152, 65, 130, 1, 1.20213
223, 6, bw, catch, NA, 999, 999, 5, 18, 193, 122, 103, 152, 65, 130, 3, 0.953177
223, 6, bw, catch, NA, 999, 999, 5, 19, 173, 142, 115, 140, 105, 90, 1, 1.4247
223, 6, bw, catch, NA, 999, 999, 5, 19, 173, 142, 115, 140, 105, 90, 3, 1.09428
223, 6, bw, filler, NA, 999, 999, 5, 20, 112, 86, 66, 67, 121, 56, 1, 1.43174
223, 6, bw, filler, NA, 999, 999, 5, 20, 112, 86, 66, 67, 121, 56, 2, 0.629291
223, 6, bw, attraction, a-b-db, 9, 3, 5, 21, 120, 195, 195, 120, 114, 186, 1, 4.72175
223, 6, bw, attraction, a-b-db, 9, 3, 5, 21, 120, 195, 195, 120, 114, 186, 2, 2.5869
223, 6, bw, filler, NA, 999, 999, 5, 22, 123, 161, 86, 67, 159, 120, 3, 6.10487
223, 6, bw, filler, NA, 999, 999, 5, 22, 123, 161, 86, 67, 159, 120, 2, 0.986138
223, 6, bw, attraction, a-b-da, 5, 3, 5, 23, 190, 117, 120, 195, 195, 120, 2, 2.11244
223, 6, bw, attraction, a-b-da, 5, 3, 5, 23, 190, 117, 120, 195, 195, 120, 1, 0.634339
223, 6, bw, filler, NA, 999, 999, 5, 24, 108, 114, 67, 150, 192, 175, 3, 1.00685
223, 6, bw, filler, NA, 999, 999, 5, 24, 108, 114, 67, 150, 192, 175, 1, 0.44505
223, 6, bw, filler, NA, 999, 999, 5, 25, 143, 102, 149, 87, 151, 159, 3, 1.76095
223, 6, bw, filler, NA, 999, 999, 5, 25, 143, 102, 149, 87, 151, 159, 2, 2.38513
223, 6, bw, attraction, a-b-db, 14, 2, 5, 26, 83, 153, 165, 90, 90, 165, 3, 1.83112
223, 6, bw, attraction, a-b-db, 14, 2, 5, 26, 83, 153, 165, 90, 90, 165, 1, 0.76438
223, 6, bw, attraction, a-b-db, 5, 3, 5, 27, 117, 190, 195, 120, 120, 195, 3, 4.73129
223, 6, bw, attraction, a-b-db, 5, 3, 5, 27, 117, 190, 195, 120, 120, 195, 2, 1.24382
223, 6, bw, attraction, a-b-da, 5, 2, 5, 28, 90, 165, 165, 90, 161, 88, 1, 2.30335
223, 6, bw, attraction, a-b-da, 5, 2, 5, 28, 90, 165, 165, 90, 161, 88, 2, 0.634029
223, 6, bw, attraction, a-b-da, 9, 2, 5, 29, 165, 90, 157, 86, 90, 165, 3, 3.66244
223, 6, bw, attraction, a-b-da, 9, 2, 5, 29, 165, 90, 157, 86, 90, 165, 1, 1.8659
223, 6, bw, attraction, a-b-da, 9, 3, 5, 30, 120, 195, 186, 114, 195, 120, 1, 2.44458
223, 6, bw, attraction, a-b-da, 9, 3, 5, 30, 120, 195, 186, 114, 195, 120, 2, 2.60111
223, 6, bw, attraction, a-b-da, 14, 2, 5, 31, 165, 90, 90, 165, 153, 83, 2, 3.32633
223, 6, bw, attraction, a-b-da, 14, 2, 5, 31, 165, 90, 90, 165, 153, 83, 3, 1.19124
223, 6, bw, attraction, a-b-da, 5, 1, 5, 32, 135, 60, 132, 58, 60, 135, 1, 25.7327
223, 6, bw, attraction, a-b-da, 5, 1, 5, 32, 135, 60, 132, 58, 60, 135, 3, 1.30261
223, 6, bw, attraction, a-b-da, 14, 1, 5, 33, 60, 135, 135, 60, 125, 56, 1, 2.15218
223, 6, bw, attraction, a-b-da, 14, 1, 5, 33, 60, 135, 135, 60, 125, 56, 3, 0.576787
223, 6, bw, attraction, a-b-db, 2, 2, 5, 34, 90, 165, 89, 163, 165, 90, 2, 1.49521
223, 6, bw, attraction, a-b-db, 2, 2, 5, 34, 90, 165, 89, 163, 165, 90, 1, 1.18612
223, 6, bw, catch, NA, 999, 999, 5, 35, 141, 114, 152, 163, 73, 122, 2, 1.11233
223, 6, bw, catch, NA, 999, 999, 5, 35, 141, 114, 152, 163, 73, 122, 3, 0.562622
223, 6, bw, attraction, a-b-da, 2, 1, 5, 36, 135, 60, 60, 135, 134, 59, 1, 4.6097
223, 6, bw, attraction, a-b-da, 2, 1, 5, 36, 135, 60, 60, 135, 134, 59, 2, 1.28693
223, 6, bw, attraction, a-b-db, 14, 1, 5, 37, 56, 125, 60, 135, 135, 60, 2, 2.04104
223, 6, bw, attraction, a-b-db, 14, 1, 5, 37, 56, 125, 60, 135, 135, 60, 1, 0.797794
223, 6, bw, attraction, a-b-da, 2, 2, 6, 1, 165, 90, 90, 165, 163, 89, 2, 1.30748
223, 6, bw, attraction, a-b-da, 2, 2, 6, 1, 165, 90, 90, 165, 163, 89, 1, 3.0377
223, 6, bw, attraction, a-b-db, 9, 2, 6, 2, 165, 90, 90, 165, 86, 157, 2, 3.92946
223, 6, bw, attraction, a-b-db, 9, 2, 6, 2, 165, 90, 90, 165, 86, 157, 1, 0.498076
223, 6, bw, attraction, a-b-db, 5, 3, 6, 3, 120, 195, 117, 190, 195, 120, 1, 2.53992
223, 6, bw, attraction, a-b-db, 5, 3, 6, 3, 120, 195, 117, 190, 195, 120, 3, 2.93243
223, 6, bw, attraction, a-b-da, 5, 2, 6, 4, 90, 165, 161, 88, 165, 90, 1, 8.99605
223, 6, bw, attraction, a-b-da, 5, 2, 6, 4, 90, 165, 161, 88, 165, 90, 3, 1.06466
223, 6, bw, attraction, a-b-db, 2, 1, 6, 5, 135, 60, 59, 134, 60, 135, 2, 4.08355
223, 6, bw, attraction, a-b-db, 2, 1, 6, 5, 135, 60, 59, 134, 60, 135, 1, 1.70227
223, 6, bw, filler, NA, 999, 999, 6, 6, 77, 168, 189, 101, 86, 94, 2, 1.57569
223, 6, bw, filler, NA, 999, 999, 6, 6, 77, 168, 189, 101, 86, 94, 3, 0.383086
223, 6, bw, filler, NA, 999, 999, 6, 7, 146, 56, 79, 140, 178, 167, 3, 1.98976
223, 6, bw, filler, NA, 999, 999, 6, 7, 146, 56, 79, 140, 178, 167, 2, 1.03629
223, 6, bw, attraction, a-b-db, 14, 2, 6, 8, 165, 90, 90, 165, 83, 153, 2, 3.26464
223, 6, bw, attraction, a-b-db, 14, 2, 6, 8, 165, 90, 90, 165, 83, 153, 3, 0.676162
223, 6, bw, attraction, a-b-db, 14, 3, 6, 9, 111, 181, 120, 195, 195, 120, 2, 1.74256
223, 6, bw, attraction, a-b-db, 14, 3, 6, 9, 111, 181, 120, 195, 195, 120, 1, 8.59131
223, 6, bw, attraction, a-b-da, 5, 1, 6, 10, 135, 60, 60, 135, 132, 58, 2, 5.78748
223, 6, bw, attraction, a-b-da, 5, 1, 6, 10, 135, 60, 60, 135, 132, 58, 3, 1.24953
223, 6, bw, catch, NA, 999, 999, 6, 11, 142, 113, 105, 90, 128, 187, 3, 1.74899
223, 6, bw, catch, NA, 999, 999, 6, 11, 142, 113, 105, 90, 128, 187, 2, 0.493756
223, 6, bw, filler, NA, 999, 999, 6, 12, 146, 159, 72, 93, 101, 188, 1, 1.86351
223, 6, bw, filler, NA, 999, 999, 6, 12, 146, 159, 72, 93, 101, 188, 2, 0.627591
223, 6, bw, attraction, a-b-da, 9, 1, 6, 13, 60, 135, 135, 60, 129, 57, 1, 4.13595
223, 6, bw, attraction, a-b-da, 9, 1, 6, 13, 60, 135, 135, 60, 129, 57, 2, 0.464736
223, 6, bw, attraction, a-b-da, 5, 3, 6, 14, 195, 120, 190, 117, 120, 195, 3, 3.21189
223, 6, bw, attraction, a-b-da, 5, 3, 6, 14, 195, 120, 190, 117, 120, 195, 1, 0.905496
223, 6, bw, filler, NA, 999, 999, 6, 15, 104, 103, 177, 145, 151, 57, 2, 1.10708
223, 6, bw, filler, NA, 999, 999, 6, 15, 104, 103, 177, 145, 151, 57, 1, 0.485369
223, 6, bw, attraction, a-b-db, 2, 3, 6, 16, 119, 193, 195, 120, 120, 195, 2, 14.64
223, 6, bw, attraction, a-b-db, 2, 3, 6, 16, 119, 193, 195, 120, 120, 195, 3, 0.873441
223, 6, bw, attraction, a-b-da, 9, 2, 6, 17, 157, 86, 165, 90, 90, 165, 1, 1.74761
223, 6, bw, attraction, a-b-da, 9, 2, 6, 17, 157, 86, 165, 90, 90, 165, 2, 0.980401
223, 6, bw, attraction, a-b-db, 9, 1, 6, 18, 135, 60, 57, 129, 60, 135, 2, 2.84273
223, 6, bw, attraction, a-b-db, 9, 1, 6, 18, 135, 60, 57, 129, 60, 135, 1, 8.83912
223, 6, bw, catch, NA, 999, 999, 6, 19, 126, 129, 114, 81, 168, 147, 3, 2.28899
223, 6, bw, catch, NA, 999, 999, 6, 19, 126, 129, 114, 81, 168, 147, 2, 0.515532
223, 6, bw, filler, NA, 999, 999, 6, 20, 191, 117, 63, 155, 90, 63, 1, 1.50064
223, 6, bw, filler, NA, 999, 999, 6, 20, 191, 117, 63, 155, 90, 63, 3, 0.82348
223, 6, bw, attraction, a-b-da, 2, 3, 6, 21, 193, 119, 120, 195, 195, 120, 2, 3.196
223, 6, bw, attraction, a-b-da, 2, 3, 6, 21, 193, 119, 120, 195, 195, 120, 3, 0.914175
223, 6, bw, filler, NA, 999, 999, 6, 22, 88, 65, 100, 147, 99, 67, 2, 1.44309
223, 6, bw, filler, NA, 999, 999, 6, 22, 88, 65, 100, 147, 99, 67, 1, 0.512112
223, 6, bw, filler, NA, 999, 999, 6, 23, 184, 142, 133, 85, 126, 59, 1, 0.961108
223, 6, bw, filler, NA, 999, 999, 6, 23, 184, 142, 133, 85, 126, 59, 3, 2.32164
223, 6, bw, attraction, a-b-db, 5, 1, 6, 24, 135, 60, 60, 135, 58, 132, 2, 1.47397
223, 6, bw, attraction, a-b-db, 5, 1, 6, 24, 135, 60, 60, 135, 58, 132, 1, 2.78946
223, 6, bw, filler, NA, 999, 999, 6, 25, 145, 99, 117, 128, 127, 125, 2, 2.81925
223, 6, bw, filler, NA, 999, 999, 6, 25, 145, 99, 117, 128, 127, 125, 1, 1.77705
223, 6, bw, filler, NA, 999, 999, 6, 26, 65, 186, 159, 148, 167, 184, 3, 49.0872
223, 6, bw, filler, NA, 999, 999, 6, 26, 65, 186, 159, 148, 167, 184, 1, 0.435627
223, 6, bw, attraction, a-b-db, 14, 1, 6, 27, 56, 125, 60, 135, 135, 60, 2, 1.83217
223, 6, bw, attraction, a-b-db, 14, 1, 6, 27, 56, 125, 60, 135, 135, 60, 1, 0.493637
223, 6, bw, attraction, a-b-da, 14, 3, 6, 28, 181, 111, 120, 195, 195, 120, 2, 1.83955
223, 6, bw, attraction, a-b-da, 14, 3, 6, 28, 181, 111, 120, 195, 195, 120, 1, 1.38808
223, 6, bw, attraction, a-b-da, 2, 1, 6, 29, 135, 60, 60, 135, 134, 59, 2, 1.09025
223, 6, bw, attraction, a-b-da, 2, 1, 6, 29, 135, 60, 60, 135, 134, 59, 1, 1.14925
223, 6, bw, attraction, a-b-db, 9, 3, 6, 30, 120, 195, 195, 120, 114, 186, 2, 1.2929
223, 6, bw, attraction, a-b-db, 9, 3, 6, 30, 120, 195, 195, 120, 114, 186, 3, 4.2158
223, 6, bw, catch, NA, 999, 999, 6, 31, 73, 122, 157, 98, 158, 157, 3, 1.09169
223, 6, bw, catch, NA, 999, 999, 6, 31, 73, 122, 157, 98, 158, 157, 1, 0.702608
223, 6, bw, attraction, a-b-db, 5, 2, 6, 32, 165, 90, 90, 165, 88, 161, 2, 1.82435
223, 6, bw, attraction, a-b-db, 5, 2, 6, 32, 165, 90, 90, 165, 88, 161, 3, 1.54978
223, 6, bw, attraction, a-b-da, 14, 1, 6, 33, 135, 60, 125, 56, 60, 135, 3, 7.34926
223, 6, bw, attraction, a-b-da, 14, 1, 6, 33, 135, 60, 125, 56, 60, 135, 2, 1.35624
223, 6, bw, attraction, a-b-da, 9, 3, 6, 34, 186, 114, 120, 195, 195, 120, 2, 5.87509
223, 6, bw, attraction, a-b-da, 9, 3, 6, 34, 186, 114, 120, 195, 195, 120, 1, 4.30124
223, 6, bw, filler, NA, 999, 999, 6, 35, 124, 107, 169, 69, 117, 122, 3, 7.61385
223, 6, bw, filler, NA, 999, 999, 6, 35, 124, 107, 169, 69, 117, 122, 2, 2.49008
223, 6, bw, attraction, a-b-da, 14, 2, 6, 36, 165, 90, 153, 83, 90, 165, 1, 2.57136
223, 6, bw, attraction, a-b-da, 14, 2, 6, 36, 165, 90, 153, 83, 90, 165, 3, 1.05052
223, 6, bw, attraction, a-b-db, 2, 2, 6, 37, 165, 90, 89, 163, 90, 165, 2, 1.60601
223, 6, bw, attraction, a-b-db, 2, 2, 6, 37, 165, 90, 89, 163, 90, 165, 1, 0.412114
223, 6, bw, attraction, a-b-db, 5, 3, 7, 1, 195, 120, 120, 195, 117, 190, 2, 4.16932
223, 6, bw, attraction, a-b-db, 5, 3, 7, 1, 195, 120, 120, 195, 117, 190, 3, 0.968665
223, 6, bw, attraction, a-b-da, 9, 1, 7, 2, 60, 135, 129, 57, 135, 60, 1, 3.67164
223, 6, bw, attraction, a-b-da, 9, 1, 7, 2, 60, 135, 129, 57, 135, 60, 2, 0.562437
223, 6, bw, attraction, a-b-db, 9, 2, 7, 3, 86, 157, 165, 90, 90, 165, 3, 2.78557
223, 6, bw, attraction, a-b-db, 9, 2, 7, 3, 86, 157, 165, 90, 90, 165, 1, 0.480579
223, 6, bw, filler, NA, 999, 999, 7, 4, 124, 192, 103, 74, 68, 191, 1, 1.02709
223, 6, bw, filler, NA, 999, 999, 7, 4, 124, 192, 103, 74, 68, 191, 2, 0.536802
223, 6, bw, attraction, a-b-db, 14, 2, 7, 5, 165, 90, 83, 153, 90, 165, 3, 3.68116
223, 6, bw, attraction, a-b-db, 14, 2, 7, 5, 165, 90, 83, 153, 90, 165, 2, 1.53205
223, 6, bw, catch, NA, 999, 999, 7, 6, 71, 124, 182, 133, 99, 156, 2, 1.67629
223, 6, bw, catch, NA, 999, 999, 7, 6, 71, 124, 182, 133, 99, 156, 1, 0.743557
223, 6, bw, filler, NA, 999, 999, 7, 7, 159, 121, 100, 100, 166, 116, 3, 5.02335
223, 6, bw, filler, NA, 999, 999, 7, 7, 159, 121, 100, 100, 166, 116, 2, 0.651667
223, 6, bw, attraction, a-b-db, 5, 1, 7, 8, 135, 60, 60, 135, 58, 132, 2, 2.43146
223, 6, bw, attraction, a-b-db, 5, 1, 7, 8, 135, 60, 60, 135, 58, 132, 1, 0.540578
223, 6, bw, filler, NA, 999, 999, 7, 9, 131, 95, 185, 154, 160, 179, 3, 3.63647
223, 6, bw, filler, NA, 999, 999, 7, 9, 131, 95, 185, 154, 160, 179, 1, 0.681285
223, 6, bw, attraction, a-b-da, 14, 3, 7, 10, 195, 120, 181, 111, 120, 195, 1, 3.01166
223, 6, bw, attraction, a-b-da, 14, 3, 7, 10, 195, 120, 181, 111, 120, 195, 2, 2.36947
223, 6, bw, filler, NA, 999, 999, 7, 11, 187, 192, 178, 63, 172, 84, 1, 1.36002
223, 6, bw, filler, NA, 999, 999, 7, 11, 187, 192, 178, 63, 172, 84, 2, 1.03207
223, 6, bw, catch, NA, 999, 999, 7, 12, 193, 122, 129, 66, 100, 155, 1, 2.50837
223, 6, bw, catch, NA, 999, 999, 7, 12, 193, 122, 129, 66, 100, 155, 2, 0.814252
223, 6, bw, attraction, a-b-db, 9, 3, 7, 13, 120, 195, 195, 120, 114, 186, 2, 2.7873
223, 6, bw, attraction, a-b-db, 9, 3, 7, 13, 120, 195, 195, 120, 114, 186, 3, 2.88243
223, 6, bw, attraction, a-b-db, 2, 3, 7, 14, 119, 193, 195, 120, 120, 195, 1, 4.85206
223, 6, bw, attraction, a-b-db, 2, 3, 7, 14, 119, 193, 195, 120, 120, 195, 3, 3.91986
223, 6, bw, filler, NA, 999, 999, 7, 15, 133, 67, 174, 74, 113, 123, 3, 1.65589
223, 6, bw, filler, NA, 999, 999, 7, 15, 133, 67, 174, 74, 113, 123, 1, 0.725075
223, 6, bw, filler, NA, 999, 999, 7, 16, 100, 143, 80, 131, 103, 96, 1, 8.41237
223, 6, bw, filler, NA, 999, 999, 7, 16, 100, 143, 80, 131, 103, 96, 2, 1.82449
223, 6, bw, attraction, a-b-da, 14, 2, 7, 17, 165, 90, 153, 83, 90, 165, 1, 2.73245
223, 6, bw, attraction, a-b-da, 14, 2, 7, 17, 165, 90, 153, 83, 90, 165, 2, 0.573545
223, 6, bw, filler, NA, 999, 999, 7, 18, 105, 120, 107, 134, 132, 104, 2, 3.27608
223, 6, bw, filler, NA, 999, 999, 7, 18, 105, 120, 107, 134, 132, 104, 1, 0.598986
223, 6, bw, attraction, a-b-da, 9, 3, 7, 19, 120, 195, 195, 120, 186, 114, 2, 3.7327
223, 6, bw, attraction, a-b-da, 9, 3, 7, 19, 120, 195, 195, 120, 186, 114, 3, 1.25356
223, 6, bw, attraction, a-b-db, 9, 1, 7, 20, 57, 129, 60, 135, 135, 60, 2, 2.41712
223, 6, bw, attraction, a-b-db, 9, 1, 7, 20, 57, 129, 60, 135, 135, 60, 1, 1.63891
223, 6, bw, attraction, a-b-da, 2, 3, 7, 21, 193, 119, 195, 120, 120, 195, 2, 3.00303
223, 6, bw, attraction, a-b-da, 2, 3, 7, 21, 193, 119, 195, 120, 120, 195, 1, 3.97767
223, 6, bw, attraction, a-b-da, 14, 1, 7, 22, 135, 60, 125, 56, 60, 135, 2, 1.48674
223, 6, bw, attraction, a-b-da, 14, 1, 7, 22, 135, 60, 125, 56, 60, 135, 3, 5.60238
223, 6, bw, attraction, a-b-da, 5, 1, 7, 23, 135, 60, 132, 58, 60, 135, 3, 4.1665
223, 6, bw, attraction, a-b-da, 5, 1, 7, 23, 135, 60, 132, 58, 60, 135, 1, 5.74181
223, 6, bw, filler, NA, 999, 999, 7, 24, 85, 104, 165, 60, 194, 157, 3, 1.40397
223, 6, bw, filler, NA, 999, 999, 7, 24, 85, 104, 165, 60, 194, 157, 1, 0.858202
223, 6, bw, attraction, a-b-db, 14, 1, 7, 25, 60, 135, 56, 125, 135, 60, 1, 3.66922
223, 6, bw, attraction, a-b-db, 14, 1, 7, 25, 60, 135, 56, 125, 135, 60, 2, 0.440635
223, 6, bw, attraction, a-b-da, 5, 3, 7, 26, 195, 120, 190, 117, 120, 195, 1, 2.04462
223, 6, bw, attraction, a-b-da, 5, 3, 7, 26, 195, 120, 190, 117, 120, 195, 2, 0.713175
223, 6, bw, attraction, a-b-db, 2, 2, 7, 27, 89, 163, 90, 165, 165, 90, 1, 6.0342
223, 6, bw, attraction, a-b-db, 2, 2, 7, 27, 89, 163, 90, 165, 165, 90, 2, 0.998246
223, 6, bw, attraction, a-b-da, 9, 2, 7, 28, 165, 90, 90, 165, 157, 86, 2, 2.56386
223, 6, bw, attraction, a-b-da, 9, 2, 7, 28, 165, 90, 90, 165, 157, 86, 3, 1.50778
223, 6, bw, catch, NA, 999, 999, 7, 29, 115, 80, 180, 135, 133, 122, 2, 1.50852
223, 6, bw, catch, NA, 999, 999, 7, 29, 115, 80, 180, 135, 133, 122, 1, 0.638907
223, 6, bw, attraction, a-b-db, 14, 3, 7, 30, 111, 181, 195, 120, 120, 195, 2, 36.3711
223, 6, bw, attraction, a-b-db, 14, 3, 7, 30, 111, 181, 195, 120, 120, 195, 1, 0.608391
223, 6, bw, attraction, a-b-db, 2, 1, 7, 31, 135, 60, 60, 135, 59, 134, 2, 3.66156
223, 6, bw, attraction, a-b-db, 2, 1, 7, 31, 135, 60, 60, 135, 59, 134, 1, 0.68107
223, 6, bw, filler, NA, 999, 999, 7, 32, 174, 63, 109, 87, 82, 178, 3, 3.25943
223, 6, bw, filler, NA, 999, 999, 7, 32, 174, 63, 109, 87, 82, 178, 2, 0.511117
223, 6, bw, attraction, a-b-da, 2, 2, 7, 33, 165, 90, 90, 165, 163, 89, 2, 4.61618
223, 6, bw, attraction, a-b-da, 2, 2, 7, 33, 165, 90, 90, 165, 163, 89, 3, 1.11736
223, 6, bw, filler, NA, 999, 999, 7, 34, 114, 111, 167, 159, 102, 59, 2, 2.59828
223, 6, bw, filler, NA, 999, 999, 7, 34, 114, 111, 167, 159, 102, 59, 3, 0.580816
223, 6, bw, attraction, a-b-da, 5, 2, 7, 35, 161, 88, 165, 90, 90, 165, 3, 5.33921
223, 6, bw, attraction, a-b-da, 5, 2, 7, 35, 161, 88, 165, 90, 90, 165, 2, 0.362786
223, 6, bw, attraction, a-b-db, 5, 2, 7, 36, 88, 161, 90, 165, 165, 90, 2, 1.84201
223, 6, bw, attraction, a-b-db, 5, 2, 7, 36, 88, 161, 90, 165, 165, 90, 3, 1.0228
223, 6, bw, attraction, a-b-da, 2, 1, 7, 37, 135, 60, 134, 59, 60, 135, 3, 31.899
223, 6, bw, attraction, a-b-da, 2, 1, 7, 37, 135, 60, 134, 59, 60, 135, 1, 0.716306
223, 6, bw, attraction, a-b-db, 9, 2, 8, 1, 165, 90, 90, 165, 86, 157, 2, 2.46143
223, 6, bw, attraction, a-b-db, 9, 2, 8, 1, 165, 90, 90, 165, 86, 157, 1, 0.497215
223, 6, bw, filler, NA, 999, 999, 8, 2, 91, 110, 137, 190, 88, 139, 2, 1.46709
223, 6, bw, filler, NA, 999, 999, 8, 2, 91, 110, 137, 190, 88, 139, 1, 0.64716
223, 6, bw, attraction, a-b-db, 14, 2, 8, 3, 165, 90, 90, 165, 83, 153, 2, 2.667
223, 6, bw, attraction, a-b-db, 14, 2, 8, 3, 165, 90, 90, 165, 83, 153, 3, 0.422703
223, 6, bw, filler, NA, 999, 999, 8, 4, 93, 85, 109, 136, 153, 190, 3, 1.38716
223, 6, bw, filler, NA, 999, 999, 8, 4, 93, 85, 109, 136, 153, 190, 1, 0.74684
223, 6, bw, attraction, a-b-db, 14, 3, 8, 5, 111, 181, 195, 120, 120, 195, 2, 1.32249
223, 6, bw, attraction, a-b-db, 14, 3, 8, 5, 111, 181, 195, 120, 120, 195, 1, 0.884023
223, 6, bw, attraction, a-b-db, 9, 3, 8, 6, 120, 195, 114, 186, 195, 120, 1, 3.25434
223, 6, bw, attraction, a-b-db, 9, 3, 8, 6, 120, 195, 114, 186, 195, 120, 2, 0.610142
223, 6, bw, filler, NA, 999, 999, 8, 7, 60, 79, 184, 125, 145, 113, 2, 3.34319
223, 6, bw, filler, NA, 999, 999, 8, 7, 60, 79, 184, 125, 145, 113, 1, 0.439303
223, 6, bw, catch, NA, 999, 999, 8, 8, 133, 182, 121, 74, 95, 160, 1, 1.4591
223, 6, bw, catch, NA, 999, 999, 8, 8, 133, 182, 121, 74, 95, 160, 2, 0.487337
223, 6, bw, attraction, a-b-db, 14, 1, 8, 9, 60, 135, 56, 125, 135, 60, 1, 3.0018
223, 6, bw, attraction, a-b-db, 14, 1, 8, 9, 60, 135, 56, 125, 135, 60, 2, 0.58417
223, 6, bw, catch, NA, 999, 999, 8, 10, 122, 193, 112, 143, 81, 114, 1, 1.52659
223, 6, bw, catch, NA, 999, 999, 8, 10, 122, 193, 112, 143, 81, 114, 3, 0.464042
223, 6, bw, attraction, a-b-db, 5, 3, 8, 11, 120, 195, 195, 120, 117, 190, 1, 4.07522
223, 6, bw, attraction, a-b-db, 5, 3, 8, 11, 120, 195, 195, 120, 117, 190, 2, 2.36592
223, 6, bw, filler, NA, 999, 999, 8, 12, 128, 166, 167, 98, 167, 140, 1, 9.58047
223, 6, bw, filler, NA, 999, 999, 8, 12, 128, 166, 167, 98, 167, 140, 2, 1.40159
223, 6, bw, filler, NA, 999, 999, 8, 13, 79, 94, 92, 130, 111, 130, 3, 4.54289
223, 6, bw, filler, NA, 999, 999, 8, 13, 79, 94, 92, 130, 111, 130, 1, 0.574891
223, 6, bw, attraction, a-b-da, 14, 1, 8, 14, 135, 60, 125, 56, 60, 135, 3, 1.96533
223, 6, bw, attraction, a-b-da, 14, 1, 8, 14, 135, 60, 125, 56, 60, 135, 2, 0.701314
223, 6, bw, attraction, a-b-da, 14, 3, 8, 15, 181, 111, 120, 195, 195, 120, 2, 2.11894
223, 6, bw, attraction, a-b-da, 14, 3, 8, 15, 181, 111, 120, 195, 195, 120, 1, 0.769024
223, 6, bw, attraction, a-b-da, 14, 2, 8, 16, 90, 165, 165, 90, 153, 83, 1, 3.43204
223, 6, bw, attraction, a-b-da, 14, 2, 8, 16, 90, 165, 165, 90, 153, 83, 3, 0.485038
223, 6, bw, attraction, a-b-da, 5, 3, 8, 17, 190, 117, 120, 195, 195, 120, 2, 1.94333
223, 6, bw, attraction, a-b-da, 5, 3, 8, 17, 190, 117, 120, 195, 195, 120, 1, 1.04009
223, 6, bw, attraction, a-b-da, 2, 2, 8, 18, 90, 165, 165, 90, 163, 89, 1, 2.41965
223, 6, bw, attraction, a-b-da, 2, 2, 8, 18, 90, 165, 165, 90, 163, 89, 2, 0.497514
223, 6, bw, attraction, a-b-da, 2, 3, 8, 19, 120, 195, 193, 119, 195, 120, 1, 3.0913
223, 6, bw, attraction, a-b-da, 2, 3, 8, 19, 120, 195, 193, 119, 195, 120, 2, 0.605697
223, 6, bw, attraction, a-b-da, 2, 1, 8, 20, 134, 59, 135, 60, 60, 135, 3, 2.17146
223, 6, bw, attraction, a-b-da, 2, 1, 8, 20, 134, 59, 135, 60, 60, 135, 1, 0.570777
223, 6, bw, attraction, a-b-db, 5, 2, 8, 21, 90, 165, 165, 90, 88, 161, 1, 2.73782
223, 6, bw, attraction, a-b-db, 5, 2, 8, 21, 90, 165, 165, 90, 88, 161, 2, 0.802345
223, 6, bw, attraction, a-b-db, 2, 2, 8, 22, 89, 163, 165, 90, 90, 165, 1, 3.91199
223, 6, bw, attraction, a-b-db, 2, 2, 8, 22, 89, 163, 165, 90, 90, 165, 2, 2.84139
223, 6, bw, filler, NA, 999, 999, 8, 23, 168, 169, 192, 182, 66, 150, 3, 4.25243
223, 6, bw, filler, NA, 999, 999, 8, 23, 168, 169, 192, 182, 66, 150, 2, 0.992448
223, 6, bw, catch, NA, 999, 999, 8, 24, 145, 110, 135, 60, 177, 138, 2, 2.02207
223, 6, bw, catch, NA, 999, 999, 8, 24, 145, 110, 135, 60, 177, 138, 3, 0.427384
223, 6, bw, attraction, a-b-da, 9, 3, 8, 25, 186, 114, 195, 120, 120, 195, 3, 9.08779
223, 6, bw, attraction, a-b-da, 9, 3, 8, 25, 186, 114, 195, 120, 120, 195, 2, 0.753112
223, 6, bw, filler, NA, 999, 999, 8, 26, 174, 155, 155, 58, 75, 162, 1, 1.07269
223, 6, bw, filler, NA, 999, 999, 8, 26, 174, 155, 155, 58, 75, 162, 2, 1.1404
223, 6, bw, attraction, a-b-da, 5, 2, 8, 27, 165, 90, 161, 88, 90, 165, 1, 3.56391
223, 6, bw, attraction, a-b-da, 5, 2, 8, 27, 165, 90, 161, 88, 90, 165, 2, 0.779401
223, 6, bw, attraction, a-b-db, 5, 1, 8, 28, 135, 60, 58, 132, 60, 135, 2, 56.0578
223, 6, bw, attraction, a-b-db, 5, 1, 8, 28, 135, 60, 58, 132, 60, 135, 1, 1.8696
223, 6, bw, attraction, a-b-db, 2, 3, 8, 29, 120, 195, 119, 193, 195, 120, 2, 1.88831
223, 6, bw, attraction, a-b-db, 2, 3, 8, 29, 120, 195, 119, 193, 195, 120, 1, 0.867137
223, 6, bw, attraction, a-b-da, 9, 2, 8, 30, 90, 165, 165, 90, 157, 86, 2, 5.10208
223, 6, bw, attraction, a-b-da, 9, 2, 8, 30, 90, 165, 165, 90, 157, 86, 1, 3.96783
223, 6, bw, filler, NA, 999, 999, 8, 31, 191, 156, 94, 57, 168, 123, 1, 1.34171
223, 6, bw, filler, NA, 999, 999, 8, 31, 191, 156, 94, 57, 168, 123, 2, 0.566612
223, 6, bw, attraction, a-b-db, 2, 1, 8, 32, 59, 134, 135, 60, 60, 135, 1, 10.3177
223, 6, bw, attraction, a-b-db, 2, 1, 8, 32, 59, 134, 135, 60, 60, 135, 3, 1.56517
223, 6, bw, filler, NA, 999, 999, 8, 33, 171, 195, 141, 99, 119, 77, 1, 1.43606
223, 6, bw, filler, NA, 999, 999, 8, 33, 171, 195, 141, 99, 119, 77, 3, 0.537446
223, 6, bw, attraction, a-b-da, 5, 1, 8, 34, 132, 58, 60, 135, 135, 60, 2, 1.7299
223, 6, bw, attraction, a-b-da, 5, 1, 8, 34, 132, 58, 60, 135, 135, 60, 1, 5.73934
223, 6, bw, attraction, a-b-db, 9, 1, 8, 35, 60, 135, 135, 60, 57, 129, 1, 2.46613
223, 6, bw, attraction, a-b-db, 9, 1, 8, 35, 60, 135, 135, 60, 57, 129, 2, 2.27806
223, 6, bw, attraction, a-b-da, 9, 1, 8, 36, 60, 135, 129, 57, 135, 60, 1, 3.19191
223, 6, bw, attraction, a-b-da, 9, 1, 8, 36, 60, 135, 129, 57, 135, 60, 2, 0.446329
223, 6, bw, filler, NA, 999, 999, 8, 37, 177, 176, 160, 162, 159, 192, 1, 3.41006
223, 6, bw, filler, NA, 999, 999, 8, 37, 177, 176, 160, 162, 159, 192, 2, 0.351591
