sub_n, computer_n, bw_cond, effect, set, distance, diag, block_n, trial_n, h1, w1, h2, w2, h3, w3, choice, rt 
292, 6, wb, practice, NA, 999, 999, 0, 1, 108, 135, 182, 95, 117, 125, 1, 5.18989
292, 6, wb, practice, NA, 999, 999, 0, 1, 108, 135, 182, 95, 117, 125, 2, 4.589
292, 6, wb, practice, NA, 999, 999, 0, 2, 73, 152, 195, 66, 88, 162, 1, 3.78928
292, 6, wb, practice, NA, 999, 999, 0, 2, 73, 152, 195, 66, 88, 162, 3, 7.7107
292, 6, wb, practice, NA, 999, 999, 0, 3, 194, 128, 73, 96, 194, 62, 2, 2.56377
292, 6, wb, practice, NA, 999, 999, 0, 3, 194, 128, 73, 96, 194, 62, 1, 1.09693
292, 6, wb, attraction, a-b-da, 2, 3, 1, 1, 120, 195, 193, 119, 195, 120, 2, 6.32285
292, 6, wb, attraction, a-b-da, 2, 3, 1, 1, 120, 195, 193, 119, 195, 120, 1, 3.51498
292, 6, wb, attraction, a-b-db, 5, 1, 1, 2, 60, 135, 135, 60, 58, 132, 2, 3.41102
292, 6, wb, attraction, a-b-db, 5, 1, 1, 2, 60, 135, 135, 60, 58, 132, 1, 0.936594
292, 6, wb, catch, NA, 999, 999, 1, 3, 80, 115, 138, 117, 149, 166, 1, 1.52891
292, 6, wb, catch, NA, 999, 999, 1, 3, 80, 115, 138, 117, 149, 166, 3, 1.25045
292, 6, wb, attraction, a-b-da, 14, 1, 1, 4, 135, 60, 125, 56, 60, 135, 2, 2.87001
292, 6, wb, attraction, a-b-da, 14, 1, 1, 4, 135, 60, 125, 56, 60, 135, 3, 3.05781
292, 6, wb, filler, NA, 999, 999, 1, 5, 125, 87, 124, 148, 91, 149, 1, 1.90008
292, 6, wb, filler, NA, 999, 999, 1, 5, 125, 87, 124, 148, 91, 149, 2, 0.758799
292, 6, wb, attraction, a-b-da, 5, 2, 1, 6, 90, 165, 161, 88, 165, 90, 1, 3.06988
292, 6, wb, attraction, a-b-da, 5, 2, 1, 6, 90, 165, 161, 88, 165, 90, 2, 2.41757
292, 6, wb, attraction, a-b-da, 9, 3, 1, 7, 186, 114, 120, 195, 195, 120, 1, 5.10199
292, 6, wb, attraction, a-b-da, 9, 3, 1, 7, 186, 114, 120, 195, 195, 120, 2, 2.36772
292, 6, wb, attraction, a-b-da, 9, 1, 1, 8, 135, 60, 129, 57, 60, 135, 1, 1.58225
292, 6, wb, attraction, a-b-da, 9, 1, 1, 8, 135, 60, 129, 57, 60, 135, 3, 1.2058
292, 6, wb, filler, NA, 999, 999, 1, 9, 70, 187, 109, 135, 60, 131, 3, 2.21934
292, 6, wb, filler, NA, 999, 999, 1, 9, 70, 187, 109, 135, 60, 131, 2, 3.9213
292, 6, wb, attraction, a-b-db, 5, 3, 1, 10, 117, 190, 120, 195, 195, 120, 1, 5.14535
292, 6, wb, attraction, a-b-db, 5, 3, 1, 10, 117, 190, 120, 195, 195, 120, 2, 1.50498
292, 6, wb, attraction, a-b-da, 5, 1, 1, 11, 132, 58, 60, 135, 135, 60, 1, 3.4025
292, 6, wb, attraction, a-b-da, 5, 1, 1, 11, 132, 58, 60, 135, 135, 60, 3, 2.46492
292, 6, wb, filler, NA, 999, 999, 1, 12, 136, 190, 161, 67, 156, 193, 2, 2.18724
292, 6, wb, filler, NA, 999, 999, 1, 12, 136, 190, 161, 67, 156, 193, 3, 2.40198
292, 6, wb, filler, NA, 999, 999, 1, 13, 81, 172, 137, 85, 63, 104, 3, 1.12711
292, 6, wb, filler, NA, 999, 999, 1, 13, 81, 172, 137, 85, 63, 104, 1, 1.27285
292, 6, wb, attraction, a-b-db, 14, 3, 1, 14, 120, 195, 195, 120, 111, 181, 3, 1.36363
292, 6, wb, attraction, a-b-db, 14, 3, 1, 14, 120, 195, 195, 120, 111, 181, 1, 3.19577
292, 6, wb, filler, NA, 999, 999, 1, 15, 87, 132, 56, 87, 161, 67, 2, 0.752754
292, 6, wb, filler, NA, 999, 999, 1, 15, 87, 132, 56, 87, 161, 67, 3, 1.3138
292, 6, wb, attraction, a-b-db, 9, 2, 1, 16, 86, 157, 165, 90, 90, 165, 1, 1.74675
292, 6, wb, attraction, a-b-db, 9, 2, 1, 16, 86, 157, 165, 90, 90, 165, 3, 3.3074
292, 6, wb, attraction, a-b-db, 14, 1, 1, 17, 135, 60, 60, 135, 56, 125, 2, 2.15564
292, 6, wb, attraction, a-b-db, 14, 1, 1, 17, 135, 60, 60, 135, 56, 125, 1, 2.61156
292, 6, wb, filler, NA, 999, 999, 1, 18, 110, 187, 133, 91, 188, 141, 2, 0.864044
292, 6, wb, filler, NA, 999, 999, 1, 18, 110, 187, 133, 91, 188, 141, 3, 1.98841
292, 6, wb, filler, NA, 999, 999, 1, 19, 63, 145, 93, 61, 93, 74, 2, 2.29844
292, 6, wb, filler, NA, 999, 999, 1, 19, 63, 145, 93, 61, 93, 74, 1, 2.31713
292, 6, wb, catch, NA, 999, 999, 1, 20, 179, 136, 133, 122, 80, 115, 3, 0.989515
292, 6, wb, catch, NA, 999, 999, 1, 20, 179, 136, 133, 122, 80, 115, 1, 1.44465
292, 6, wb, attraction, a-b-db, 5, 2, 1, 21, 88, 161, 90, 165, 165, 90, 1, 2.88808
292, 6, wb, attraction, a-b-db, 5, 2, 1, 21, 88, 161, 90, 165, 165, 90, 2, 2.83449
292, 6, wb, attraction, a-b-da, 5, 3, 1, 22, 120, 195, 190, 117, 195, 120, 2, 8.9581
292, 6, wb, attraction, a-b-da, 5, 3, 1, 22, 120, 195, 190, 117, 195, 120, 1, 0.899933
292, 6, wb, attraction, a-b-db, 9, 3, 1, 23, 195, 120, 114, 186, 120, 195, 1, 3.53362
292, 6, wb, attraction, a-b-db, 9, 3, 1, 23, 195, 120, 114, 186, 120, 195, 3, 0.510609
292, 6, wb, attraction, a-b-db, 2, 3, 1, 24, 195, 120, 119, 193, 120, 195, 1, 2.26361
292, 6, wb, attraction, a-b-db, 2, 3, 1, 24, 195, 120, 119, 193, 120, 195, 3, 2.05958
292, 6, wb, attraction, a-b-db, 2, 1, 1, 25, 135, 60, 59, 134, 60, 135, 3, 2.75823
292, 6, wb, attraction, a-b-db, 2, 1, 1, 25, 135, 60, 59, 134, 60, 135, 1, 2.35798
292, 6, wb, attraction, a-b-da, 9, 2, 1, 26, 90, 165, 157, 86, 165, 90, 1, 2.46045
292, 6, wb, attraction, a-b-da, 9, 2, 1, 26, 90, 165, 157, 86, 165, 90, 3, 1.2724
292, 6, wb, attraction, a-b-da, 2, 2, 1, 27, 163, 89, 90, 165, 165, 90, 1, 2.44335
292, 6, wb, attraction, a-b-da, 2, 2, 1, 27, 163, 89, 90, 165, 165, 90, 2, 2.10393
292, 6, wb, filler, NA, 999, 999, 1, 28, 82, 117, 86, 173, 117, 86, 1, 0.681134
292, 6, wb, filler, NA, 999, 999, 1, 28, 82, 117, 86, 173, 117, 86, 2, 0.772943
292, 6, wb, attraction, a-b-da, 14, 3, 1, 29, 120, 195, 181, 111, 195, 120, 2, 3.05925
292, 6, wb, attraction, a-b-da, 14, 3, 1, 29, 120, 195, 181, 111, 195, 120, 1, 0.550896
292, 6, wb, attraction, a-b-da, 2, 1, 1, 30, 60, 135, 134, 59, 135, 60, 2, 3.15869
292, 6, wb, attraction, a-b-da, 2, 1, 1, 30, 60, 135, 134, 59, 135, 60, 3, 0.758359
292, 6, wb, filler, NA, 999, 999, 1, 31, 192, 170, 91, 158, 69, 126, 3, 1.06132
292, 6, wb, filler, NA, 999, 999, 1, 31, 192, 170, 91, 158, 69, 126, 1, 0.633711
292, 6, wb, attraction, a-b-db, 14, 2, 1, 32, 165, 90, 90, 165, 83, 153, 3, 3.17416
292, 6, wb, attraction, a-b-db, 14, 2, 1, 32, 165, 90, 90, 165, 83, 153, 2, 0.917051
292, 6, wb, catch, NA, 999, 999, 1, 33, 163, 152, 135, 120, 126, 69, 3, 0.702009
292, 6, wb, catch, NA, 999, 999, 1, 33, 163, 152, 135, 120, 126, 69, 1, 0.881147
292, 6, wb, attraction, a-b-db, 9, 1, 1, 34, 57, 129, 60, 135, 135, 60, 1, 1.17141
292, 6, wb, attraction, a-b-db, 9, 1, 1, 34, 57, 129, 60, 135, 135, 60, 2, 1.97925
292, 6, wb, filler, NA, 999, 999, 1, 35, 73, 131, 99, 158, 56, 146, 1, 2.37704
292, 6, wb, filler, NA, 999, 999, 1, 35, 73, 131, 99, 158, 56, 146, 2, 1.80035
292, 6, wb, attraction, a-b-db, 2, 2, 1, 36, 89, 163, 90, 165, 165, 90, 3, 2.34171
292, 6, wb, attraction, a-b-db, 2, 2, 1, 36, 89, 163, 90, 165, 165, 90, 1, 1.40634
292, 6, wb, attraction, a-b-da, 14, 2, 1, 37, 90, 165, 153, 83, 165, 90, 1, 4.33919
292, 6, wb, attraction, a-b-da, 14, 2, 1, 37, 90, 165, 153, 83, 165, 90, 3, 0.619112
292, 6, wb, attraction, a-b-da, 14, 1, 2, 1, 135, 60, 60, 135, 125, 56, 3, 4.76019
292, 6, wb, attraction, a-b-da, 14, 1, 2, 1, 135, 60, 60, 135, 125, 56, 1, 1.8153
292, 6, wb, catch, NA, 999, 999, 2, 2, 137, 178, 130, 125, 121, 74, 3, 0.852025
292, 6, wb, catch, NA, 999, 999, 2, 2, 137, 178, 130, 125, 121, 74, 1, 0.592988
292, 6, wb, filler, NA, 999, 999, 2, 3, 175, 161, 100, 169, 114, 87, 3, 0.694921
292, 6, wb, filler, NA, 999, 999, 2, 3, 175, 161, 100, 169, 114, 87, 1, 1.31405
292, 6, wb, filler, NA, 999, 999, 2, 4, 161, 68, 143, 73, 155, 176, 2, 2.66674
292, 6, wb, filler, NA, 999, 999, 2, 4, 161, 68, 143, 73, 155, 176, 3, 0.454495
292, 6, wb, attraction, a-b-db, 2, 2, 2, 5, 90, 165, 89, 163, 165, 90, 1, 1.10646
292, 6, wb, attraction, a-b-db, 2, 2, 2, 5, 90, 165, 89, 163, 165, 90, 2, 0.820622
292, 6, wb, attraction, a-b-db, 2, 3, 2, 6, 120, 195, 195, 120, 119, 193, 2, 2.48966
292, 6, wb, attraction, a-b-db, 2, 3, 2, 6, 120, 195, 195, 120, 119, 193, 1, 1.38027
292, 6, wb, attraction, a-b-db, 9, 3, 2, 7, 114, 186, 120, 195, 195, 120, 2, 2.51436
292, 6, wb, attraction, a-b-db, 9, 3, 2, 7, 114, 186, 120, 195, 195, 120, 1, 1.02026
292, 6, wb, filler, NA, 999, 999, 2, 8, 140, 99, 191, 87, 108, 165, 1, 1.02512
292, 6, wb, filler, NA, 999, 999, 2, 8, 140, 99, 191, 87, 108, 165, 2, 1.93485
292, 6, wb, attraction, a-b-db, 2, 1, 2, 9, 59, 134, 135, 60, 60, 135, 1, 1.32679
292, 6, wb, attraction, a-b-db, 2, 1, 2, 9, 59, 134, 135, 60, 60, 135, 3, 0.792431
292, 6, wb, filler, NA, 999, 999, 2, 10, 179, 185, 64, 180, 66, 94, 3, 0.902079
292, 6, wb, filler, NA, 999, 999, 2, 10, 179, 185, 64, 180, 66, 94, 1, 0.625125
292, 6, wb, filler, NA, 999, 999, 2, 11, 180, 170, 164, 143, 63, 172, 3, 1.75758
292, 6, wb, filler, NA, 999, 999, 2, 11, 180, 170, 164, 143, 63, 172, 1, 0.853759
292, 6, wb, attraction, a-b-da, 9, 2, 2, 12, 90, 165, 157, 86, 165, 90, 1, 1.11349
292, 6, wb, attraction, a-b-da, 9, 2, 2, 12, 90, 165, 157, 86, 165, 90, 3, 1.90771
292, 6, wb, attraction, a-b-da, 9, 3, 2, 13, 195, 120, 186, 114, 120, 195, 1, 2.0284
292, 6, wb, attraction, a-b-da, 9, 3, 2, 13, 195, 120, 186, 114, 120, 195, 3, 0.553595
292, 6, wb, filler, NA, 999, 999, 2, 14, 74, 134, 153, 126, 119, 155, 1, 0.649309
292, 6, wb, filler, NA, 999, 999, 2, 14, 74, 134, 153, 126, 119, 155, 2, 1.7746
292, 6, wb, catch, NA, 999, 999, 2, 15, 106, 89, 98, 157, 195, 120, 1, 0.580553
292, 6, wb, catch, NA, 999, 999, 2, 15, 106, 89, 98, 157, 195, 120, 3, 0.73232
292, 6, wb, attraction, a-b-da, 5, 2, 2, 16, 165, 90, 161, 88, 90, 165, 1, 1.70873
292, 6, wb, attraction, a-b-da, 5, 2, 2, 16, 165, 90, 161, 88, 90, 165, 3, 0.702812
292, 6, wb, filler, NA, 999, 999, 2, 17, 164, 129, 126, 73, 90, 127, 2, 0.800581
292, 6, wb, filler, NA, 999, 999, 2, 17, 164, 129, 126, 73, 90, 127, 1, 1.44766
292, 6, wb, attraction, a-b-da, 2, 2, 2, 18, 163, 89, 90, 165, 165, 90, 3, 2.77907
292, 6, wb, attraction, a-b-da, 2, 2, 2, 18, 163, 89, 90, 165, 165, 90, 2, 1.26618
292, 6, wb, attraction, a-b-da, 14, 2, 2, 19, 90, 165, 165, 90, 153, 83, 1, 1.47704
292, 6, wb, attraction, a-b-da, 14, 2, 2, 19, 90, 165, 165, 90, 153, 83, 2, 0.768607
292, 6, wb, attraction, a-b-da, 14, 3, 2, 20, 195, 120, 181, 111, 120, 195, 2, 1.67962
292, 6, wb, attraction, a-b-da, 14, 3, 2, 20, 195, 120, 181, 111, 120, 195, 3, 1.02711
292, 6, wb, attraction, a-b-db, 5, 2, 2, 21, 165, 90, 90, 165, 88, 161, 1, 4.76728
292, 6, wb, attraction, a-b-db, 5, 2, 2, 21, 165, 90, 90, 165, 88, 161, 2, 1.78248
292, 6, wb, filler, NA, 999, 999, 2, 22, 119, 107, 132, 67, 133, 63, 2, 3.04464
292, 6, wb, filler, NA, 999, 999, 2, 22, 119, 107, 132, 67, 133, 63, 1, 0.512864
292, 6, wb, attraction, a-b-db, 9, 2, 2, 23, 90, 165, 165, 90, 86, 157, 2, 3.59398
292, 6, wb, attraction, a-b-db, 9, 2, 2, 23, 90, 165, 165, 90, 86, 157, 1, 0.464186
292, 6, wb, attraction, a-b-da, 2, 3, 2, 24, 193, 119, 120, 195, 195, 120, 2, 3.33925
292, 6, wb, attraction, a-b-da, 2, 3, 2, 24, 193, 119, 120, 195, 195, 120, 3, 1.15562
292, 6, wb, attraction, a-b-da, 2, 1, 2, 25, 135, 60, 134, 59, 60, 135, 3, 4.38727
292, 6, wb, attraction, a-b-da, 2, 1, 2, 25, 135, 60, 134, 59, 60, 135, 2, 2.32191
292, 6, wb, attraction, a-b-da, 5, 3, 2, 26, 120, 195, 190, 117, 195, 120, 2, 3.75431
292, 6, wb, attraction, a-b-da, 5, 3, 2, 26, 120, 195, 190, 117, 195, 120, 1, 1.37058
292, 6, wb, filler, NA, 999, 999, 2, 27, 73, 86, 105, 65, 86, 104, 1, 2.56149
292, 6, wb, filler, NA, 999, 999, 2, 27, 73, 86, 105, 65, 86, 104, 3, 1.12917
292, 6, wb, attraction, a-b-db, 14, 3, 2, 28, 120, 195, 195, 120, 111, 181, 3, 1.80142
292, 6, wb, attraction, a-b-db, 14, 3, 2, 28, 120, 195, 195, 120, 111, 181, 1, 0.664172
292, 6, wb, attraction, a-b-db, 14, 2, 2, 29, 165, 90, 83, 153, 90, 165, 2, 2.41932
292, 6, wb, attraction, a-b-db, 14, 2, 2, 29, 165, 90, 83, 153, 90, 165, 3, 1.72913
292, 6, wb, catch, NA, 999, 999, 2, 30, 164, 91, 124, 71, 173, 142, 2, 1.20916
292, 6, wb, catch, NA, 999, 999, 2, 30, 164, 91, 124, 71, 173, 142, 3, 0.647447
292, 6, wb, attraction, a-b-db, 9, 1, 2, 31, 57, 129, 135, 60, 60, 135, 1, 2.82725
292, 6, wb, attraction, a-b-db, 9, 1, 2, 31, 57, 129, 135, 60, 60, 135, 3, 0.896383
292, 6, wb, attraction, a-b-db, 5, 1, 2, 32, 58, 132, 60, 135, 135, 60, 3, 3.04999
292, 6, wb, attraction, a-b-db, 5, 1, 2, 32, 58, 132, 60, 135, 135, 60, 1, 3.43835
292, 6, wb, filler, NA, 999, 999, 2, 33, 127, 102, 172, 75, 135, 127, 1, 2.77772
292, 6, wb, filler, NA, 999, 999, 2, 33, 127, 102, 172, 75, 135, 127, 3, 3.85693
292, 6, wb, attraction, a-b-da, 5, 1, 2, 34, 132, 58, 60, 135, 135, 60, 2, 1.41166
292, 6, wb, attraction, a-b-da, 5, 1, 2, 34, 132, 58, 60, 135, 135, 60, 3, 1.1859
292, 6, wb, attraction, a-b-da, 9, 1, 2, 35, 129, 57, 135, 60, 60, 135, 1, 1.32807
292, 6, wb, attraction, a-b-da, 9, 1, 2, 35, 129, 57, 135, 60, 60, 135, 3, 0.577631
292, 6, wb, attraction, a-b-db, 14, 1, 2, 36, 135, 60, 60, 135, 56, 125, 2, 1.00808
292, 6, wb, attraction, a-b-db, 14, 1, 2, 36, 135, 60, 60, 135, 56, 125, 1, 1.10242
292, 6, wb, attraction, a-b-db, 5, 3, 2, 37, 120, 195, 195, 120, 117, 190, 2, 3.97606
292, 6, wb, attraction, a-b-db, 5, 3, 2, 37, 120, 195, 195, 120, 117, 190, 1, 0.934683
292, 6, wb, catch, NA, 999, 999, 3, 1, 106, 89, 125, 130, 132, 183, 1, 0.855022
292, 6, wb, catch, NA, 999, 999, 3, 1, 106, 89, 125, 130, 132, 183, 3, 0.675422
292, 6, wb, catch, NA, 999, 999, 3, 2, 95, 100, 129, 186, 117, 138, 1, 0.661767
292, 6, wb, catch, NA, 999, 999, 3, 2, 95, 100, 129, 186, 117, 138, 2, 0.562297
292, 6, wb, attraction, a-b-da, 9, 3, 3, 3, 120, 195, 186, 114, 195, 120, 1, 1.55334
292, 6, wb, attraction, a-b-da, 9, 3, 3, 3, 120, 195, 186, 114, 195, 120, 3, 0.666121
292, 6, wb, attraction, a-b-da, 14, 2, 3, 4, 90, 165, 165, 90, 153, 83, 1, 2.82128
292, 6, wb, attraction, a-b-da, 14, 2, 3, 4, 90, 165, 165, 90, 153, 83, 2, 0.378326
292, 6, wb, filler, NA, 999, 999, 3, 5, 191, 61, 108, 110, 154, 168, 2, 4.25681
292, 6, wb, filler, NA, 999, 999, 3, 5, 191, 61, 108, 110, 154, 168, 3, 0.484073
292, 6, wb, attraction, a-b-db, 14, 3, 3, 6, 111, 181, 120, 195, 195, 120, 1, 1.42259
292, 6, wb, attraction, a-b-db, 14, 3, 3, 6, 111, 181, 120, 195, 195, 120, 3, 0.556193
292, 6, wb, catch, NA, 999, 999, 3, 7, 143, 112, 194, 121, 108, 87, 3, 1.17126
292, 6, wb, catch, NA, 999, 999, 3, 7, 143, 112, 194, 121, 108, 87, 2, 0.554842
292, 6, wb, attraction, a-b-da, 2, 2, 3, 8, 90, 165, 165, 90, 163, 89, 1, 1.13062
292, 6, wb, attraction, a-b-da, 2, 2, 3, 8, 90, 165, 165, 90, 163, 89, 2, 0.396378
292, 6, wb, attraction, a-b-db, 5, 3, 3, 9, 195, 120, 117, 190, 120, 195, 1, 1.00996
292, 6, wb, attraction, a-b-db, 5, 3, 3, 9, 195, 120, 117, 190, 120, 195, 3, 4.1923
292, 6, wb, attraction, a-b-db, 2, 2, 3, 10, 90, 165, 89, 163, 165, 90, 2, 1.89296
292, 6, wb, attraction, a-b-db, 2, 2, 3, 10, 90, 165, 89, 163, 165, 90, 3, 2.13583
292, 6, wb, attraction, a-b-da, 5, 1, 3, 11, 60, 135, 135, 60, 132, 58, 1, 0.983515
292, 6, wb, attraction, a-b-da, 5, 1, 3, 11, 60, 135, 135, 60, 132, 58, 2, 0.383367
292, 6, wb, filler, NA, 999, 999, 3, 12, 169, 83, 156, 86, 109, 173, 2, 1.67786
292, 6, wb, filler, NA, 999, 999, 3, 12, 169, 83, 156, 86, 109, 173, 3, 1.04933
292, 6, wb, filler, NA, 999, 999, 3, 13, 149, 73, 92, 178, 121, 141, 1, 0.916915
292, 6, wb, filler, NA, 999, 999, 3, 13, 149, 73, 92, 178, 121, 141, 2, 1.68728
292, 6, wb, attraction, a-b-db, 9, 3, 3, 14, 195, 120, 114, 186, 120, 195, 2, 2.30528
292, 6, wb, attraction, a-b-db, 9, 3, 3, 14, 195, 120, 114, 186, 120, 195, 1, 1.72326
292, 6, wb, filler, NA, 999, 999, 3, 15, 149, 96, 77, 194, 148, 105, 1, 1.69137
292, 6, wb, filler, NA, 999, 999, 3, 15, 149, 96, 77, 194, 148, 105, 2, 0.525992
292, 6, wb, filler, NA, 999, 999, 3, 16, 83, 58, 171, 144, 73, 152, 1, 0.718462
292, 6, wb, filler, NA, 999, 999, 3, 16, 83, 58, 171, 144, 73, 152, 2, 0.48086
292, 6, wb, attraction, a-b-da, 5, 3, 3, 17, 120, 195, 190, 117, 195, 120, 1, 1.18729
292, 6, wb, attraction, a-b-da, 5, 3, 3, 17, 120, 195, 190, 117, 195, 120, 2, 2.08236
292, 6, wb, filler, NA, 999, 999, 3, 18, 132, 166, 117, 172, 155, 88, 3, 2.04431
292, 6, wb, filler, NA, 999, 999, 3, 18, 132, 166, 117, 172, 155, 88, 1, 0.832888
292, 6, wb, attraction, a-b-db, 14, 1, 3, 19, 60, 135, 135, 60, 56, 125, 3, 1.47735
292, 6, wb, attraction, a-b-db, 14, 1, 3, 19, 60, 135, 135, 60, 56, 125, 1, 0.680737
292, 6, wb, attraction, a-b-da, 9, 2, 3, 20, 157, 86, 165, 90, 90, 165, 1, 1.23514
292, 6, wb, attraction, a-b-da, 9, 2, 3, 20, 157, 86, 165, 90, 90, 165, 3, 0.568769
292, 6, wb, filler, NA, 999, 999, 3, 21, 165, 132, 105, 181, 145, 164, 1, 1.81593
292, 6, wb, filler, NA, 999, 999, 3, 21, 165, 132, 105, 181, 145, 164, 2, 1.49393
292, 6, wb, attraction, a-b-db, 14, 2, 3, 22, 90, 165, 83, 153, 165, 90, 2, 1.6234
292, 6, wb, attraction, a-b-db, 14, 2, 3, 22, 90, 165, 83, 153, 165, 90, 1, 0.66897
292, 6, wb, filler, NA, 999, 999, 3, 23, 165, 123, 183, 140, 113, 166, 2, 5.90395
292, 6, wb, filler, NA, 999, 999, 3, 23, 165, 123, 183, 140, 113, 166, 1, 0.585409
292, 6, wb, attraction, a-b-db, 2, 3, 3, 24, 119, 193, 195, 120, 120, 195, 2, 3.57582
292, 6, wb, attraction, a-b-db, 2, 3, 3, 24, 119, 193, 195, 120, 120, 195, 1, 0.390735
292, 6, wb, attraction, a-b-da, 2, 3, 3, 25, 120, 195, 193, 119, 195, 120, 2, 1.05253
292, 6, wb, attraction, a-b-da, 2, 3, 3, 25, 120, 195, 193, 119, 195, 120, 1, 1.06543
292, 6, wb, attraction, a-b-da, 14, 3, 3, 26, 181, 111, 195, 120, 120, 195, 1, 1.34056
292, 6, wb, attraction, a-b-da, 14, 3, 3, 26, 181, 111, 195, 120, 120, 195, 2, 0.853316
292, 6, wb, attraction, a-b-db, 5, 2, 3, 27, 88, 161, 165, 90, 90, 165, 2, 0.921041
292, 6, wb, attraction, a-b-db, 5, 2, 3, 27, 88, 161, 165, 90, 90, 165, 1, 0.450575
292, 6, wb, attraction, a-b-da, 14, 1, 3, 28, 135, 60, 125, 56, 60, 135, 1, 2.36664
292, 6, wb, attraction, a-b-da, 14, 1, 3, 28, 135, 60, 125, 56, 60, 135, 3, 1.46237
292, 6, wb, attraction, a-b-db, 9, 2, 3, 29, 165, 90, 86, 157, 90, 165, 2, 1.54512
292, 6, wb, attraction, a-b-db, 9, 2, 3, 29, 165, 90, 86, 157, 90, 165, 1, 0.625961
292, 6, wb, attraction, a-b-da, 5, 2, 3, 30, 165, 90, 161, 88, 90, 165, 2, 2.9584
292, 6, wb, attraction, a-b-da, 5, 2, 3, 30, 165, 90, 161, 88, 90, 165, 3, 1.4061
292, 6, wb, attraction, a-b-db, 9, 1, 3, 31, 135, 60, 60, 135, 57, 129, 1, 1.8189
292, 6, wb, attraction, a-b-db, 9, 1, 3, 31, 135, 60, 60, 135, 57, 129, 2, 0.552988
292, 6, wb, attraction, a-b-db, 2, 1, 3, 32, 59, 134, 135, 60, 60, 135, 1, 0.768787
292, 6, wb, attraction, a-b-db, 2, 1, 3, 32, 59, 134, 135, 60, 60, 135, 3, 0.809301
292, 6, wb, attraction, a-b-da, 2, 1, 3, 33, 134, 59, 60, 135, 135, 60, 2, 0.910272
292, 6, wb, attraction, a-b-da, 2, 1, 3, 33, 134, 59, 60, 135, 135, 60, 1, 1.23269
292, 6, wb, attraction, a-b-db, 5, 1, 3, 34, 60, 135, 58, 132, 135, 60, 2, 1.89279
292, 6, wb, attraction, a-b-db, 5, 1, 3, 34, 60, 135, 58, 132, 135, 60, 3, 0.631553
292, 6, wb, filler, NA, 999, 999, 3, 35, 66, 75, 144, 172, 141, 90, 1, 1.33192
292, 6, wb, filler, NA, 999, 999, 3, 35, 66, 75, 144, 172, 141, 90, 2, 0.541466
292, 6, wb, attraction, a-b-da, 9, 1, 3, 36, 135, 60, 129, 57, 60, 135, 3, 1.59726
292, 6, wb, attraction, a-b-da, 9, 1, 3, 36, 135, 60, 129, 57, 60, 135, 1, 0.692183
292, 6, wb, filler, NA, 999, 999, 3, 37, 63, 177, 151, 97, 64, 148, 3, 1.50982
292, 6, wb, filler, NA, 999, 999, 3, 37, 63, 177, 151, 97, 64, 148, 1, 0.799884
292, 6, wb, attraction, a-b-db, 14, 3, 4, 1, 111, 181, 120, 195, 195, 120, 1, 2.1256
292, 6, wb, attraction, a-b-db, 14, 3, 4, 1, 111, 181, 120, 195, 195, 120, 3, 1.99899
292, 6, wb, catch, NA, 999, 999, 4, 2, 182, 133, 88, 107, 140, 115, 2, 0.932301
292, 6, wb, catch, NA, 999, 999, 4, 2, 182, 133, 88, 107, 140, 115, 1, 0.462013
292, 6, wb, filler, NA, 999, 999, 4, 3, 128, 75, 173, 183, 132, 102, 1, 0.969142
292, 6, wb, filler, NA, 999, 999, 4, 3, 128, 75, 173, 183, 132, 102, 2, 0.473463
292, 6, wb, attraction, a-b-da, 9, 1, 4, 4, 135, 60, 60, 135, 129, 57, 2, 1.43583
292, 6, wb, attraction, a-b-da, 9, 1, 4, 4, 135, 60, 60, 135, 129, 57, 1, 0.729393
292, 6, wb, attraction, a-b-db, 14, 2, 4, 5, 83, 153, 165, 90, 90, 165, 1, 2.07385
292, 6, wb, attraction, a-b-db, 14, 2, 4, 5, 83, 153, 165, 90, 90, 165, 3, 1.08513
292, 6, wb, attraction, a-b-da, 14, 3, 4, 6, 120, 195, 195, 120, 181, 111, 3, 3.77545
292, 6, wb, attraction, a-b-da, 14, 3, 4, 6, 120, 195, 195, 120, 181, 111, 1, 0.702221
292, 6, wb, filler, NA, 999, 999, 4, 7, 88, 83, 81, 177, 85, 83, 1, 3.64794
292, 6, wb, filler, NA, 999, 999, 4, 7, 88, 83, 81, 177, 85, 83, 2, 0.692191
292, 6, wb, attraction, a-b-da, 2, 3, 4, 8, 120, 195, 193, 119, 195, 120, 1, 2.56582
292, 6, wb, attraction, a-b-da, 2, 3, 4, 8, 120, 195, 193, 119, 195, 120, 3, 0.677573
292, 6, wb, attraction, a-b-db, 5, 2, 4, 9, 90, 165, 88, 161, 165, 90, 1, 0.880061
292, 6, wb, attraction, a-b-db, 5, 2, 4, 9, 90, 165, 88, 161, 165, 90, 3, 1.15569
292, 6, wb, filler, NA, 999, 999, 4, 10, 128, 156, 105, 127, 146, 114, 2, 0.827305
292, 6, wb, filler, NA, 999, 999, 4, 10, 128, 156, 105, 127, 146, 114, 1, 0.657001
292, 6, wb, filler, NA, 999, 999, 4, 11, 60, 190, 76, 158, 58, 161, 2, 1.12407
292, 6, wb, filler, NA, 999, 999, 4, 11, 60, 190, 76, 158, 58, 161, 1, 2.95774
292, 6, wb, attraction, a-b-db, 9, 2, 4, 12, 165, 90, 86, 157, 90, 165, 2, 1.14808
292, 6, wb, attraction, a-b-db, 9, 2, 4, 12, 165, 90, 86, 157, 90, 165, 1, 0.748962
292, 6, wb, attraction, a-b-da, 5, 2, 4, 13, 165, 90, 161, 88, 90, 165, 3, 1.29265
292, 6, wb, attraction, a-b-da, 5, 2, 4, 13, 165, 90, 161, 88, 90, 165, 1, 0.607664
292, 6, wb, filler, NA, 999, 999, 4, 14, 77, 137, 156, 104, 195, 61, 1, 0.780695
292, 6, wb, filler, NA, 999, 999, 4, 14, 77, 137, 156, 104, 195, 61, 2, 0.780447
292, 6, wb, attraction, a-b-da, 2, 1, 4, 15, 135, 60, 134, 59, 60, 135, 3, 0.994779
292, 6, wb, attraction, a-b-da, 2, 1, 4, 15, 135, 60, 134, 59, 60, 135, 1, 0.577763
292, 6, wb, filler, NA, 999, 999, 4, 16, 150, 94, 92, 83, 104, 193, 2, 0.520133
292, 6, wb, filler, NA, 999, 999, 4, 16, 150, 94, 92, 83, 104, 193, 3, 0.642047
292, 6, wb, attraction, a-b-da, 2, 2, 4, 17, 165, 90, 163, 89, 90, 165, 1, 2.43774
292, 6, wb, attraction, a-b-da, 2, 2, 4, 17, 165, 90, 163, 89, 90, 165, 2, 0.490935
292, 6, wb, attraction, a-b-da, 5, 3, 4, 18, 120, 195, 190, 117, 195, 120, 1, 0.612739
292, 6, wb, attraction, a-b-da, 5, 3, 4, 18, 120, 195, 190, 117, 195, 120, 3, 0.595225
292, 6, wb, attraction, a-b-da, 5, 1, 4, 19, 135, 60, 60, 135, 132, 58, 2, 0.992977
292, 6, wb, attraction, a-b-da, 5, 1, 4, 19, 135, 60, 60, 135, 132, 58, 1, 0.431998
292, 6, wb, attraction, a-b-da, 14, 1, 4, 20, 135, 60, 60, 135, 125, 56, 2, 0.604443
292, 6, wb, attraction, a-b-da, 14, 1, 4, 20, 135, 60, 60, 135, 125, 56, 1, 0.482906
292, 6, wb, attraction, a-b-db, 2, 1, 4, 21, 59, 134, 135, 60, 60, 135, 2, 0.757333
292, 6, wb, attraction, a-b-db, 2, 1, 4, 21, 59, 134, 135, 60, 60, 135, 3, 1.51775
292, 6, wb, catch, NA, 999, 999, 4, 22, 113, 82, 145, 110, 155, 160, 1, 0.614555
292, 6, wb, catch, NA, 999, 999, 4, 22, 113, 82, 145, 110, 155, 160, 3, 0.54914
292, 6, wb, attraction, a-b-db, 5, 1, 4, 23, 60, 135, 135, 60, 58, 132, 2, 0.748811
292, 6, wb, attraction, a-b-db, 5, 1, 4, 23, 60, 135, 135, 60, 58, 132, 1, 0.837787
292, 6, wb, filler, NA, 999, 999, 4, 24, 143, 165, 147, 114, 178, 139, 2, 0.578103
292, 6, wb, filler, NA, 999, 999, 4, 24, 143, 165, 147, 114, 178, 139, 1, 0.690079
292, 6, wb, catch, NA, 999, 999, 4, 25, 187, 128, 93, 162, 130, 65, 3, 1.16367
292, 6, wb, catch, NA, 999, 999, 4, 25, 187, 128, 93, 162, 130, 65, 1, 0.851935
292, 6, wb, attraction, a-b-db, 14, 1, 4, 26, 60, 135, 135, 60, 56, 125, 3, 0.919601
292, 6, wb, attraction, a-b-db, 14, 1, 4, 26, 60, 135, 135, 60, 56, 125, 1, 1.98609
292, 6, wb, attraction, a-b-db, 9, 3, 4, 27, 120, 195, 114, 186, 195, 120, 2, 1.61593
292, 6, wb, attraction, a-b-db, 9, 3, 4, 27, 120, 195, 114, 186, 195, 120, 3, 1.11015
292, 6, wb, filler, NA, 999, 999, 4, 28, 119, 178, 147, 107, 129, 65, 3, 1.19104
292, 6, wb, filler, NA, 999, 999, 4, 28, 119, 178, 147, 107, 129, 65, 1, 0.541954
292, 6, wb, attraction, a-b-da, 14, 2, 4, 29, 90, 165, 153, 83, 165, 90, 2, 0.69372
292, 6, wb, attraction, a-b-da, 14, 2, 4, 29, 90, 165, 153, 83, 165, 90, 1, 2.56097
292, 6, wb, attraction, a-b-da, 9, 3, 4, 30, 186, 114, 120, 195, 195, 120, 3, 1.19924
292, 6, wb, attraction, a-b-da, 9, 3, 4, 30, 186, 114, 120, 195, 195, 120, 2, 1.06231
292, 6, wb, attraction, a-b-da, 9, 2, 4, 31, 165, 90, 90, 165, 157, 86, 2, 1.02512
292, 6, wb, attraction, a-b-da, 9, 2, 4, 31, 165, 90, 90, 165, 157, 86, 1, 0.686817
292, 6, wb, filler, NA, 999, 999, 4, 32, 174, 132, 125, 106, 122, 115, 2, 0.569343
292, 6, wb, filler, NA, 999, 999, 4, 32, 174, 132, 125, 106, 122, 115, 1, 0.657795
292, 6, wb, attraction, a-b-db, 2, 2, 4, 33, 89, 163, 165, 90, 90, 165, 2, 0.68486
292, 6, wb, attraction, a-b-db, 2, 2, 4, 33, 89, 163, 165, 90, 90, 165, 3, 0.728542
292, 6, wb, attraction, a-b-db, 2, 3, 4, 34, 119, 193, 120, 195, 195, 120, 2, 1.12101
292, 6, wb, attraction, a-b-db, 2, 3, 4, 34, 119, 193, 120, 195, 195, 120, 1, 0.418493
292, 6, wb, attraction, a-b-db, 5, 3, 4, 35, 120, 195, 195, 120, 117, 190, 2, 0.479624
292, 6, wb, attraction, a-b-db, 5, 3, 4, 35, 120, 195, 195, 120, 117, 190, 1, 0.595552
292, 6, wb, attraction, a-b-db, 9, 1, 4, 36, 60, 135, 135, 60, 57, 129, 2, 0.505204
292, 6, wb, attraction, a-b-db, 9, 1, 4, 36, 60, 135, 135, 60, 57, 129, 3, 0.451742
292, 6, wb, filler, NA, 999, 999, 4, 37, 94, 65, 108, 122, 139, 74, 1, 0.927606
292, 6, wb, filler, NA, 999, 999, 4, 37, 94, 65, 108, 122, 139, 74, 2, 0.553344
292, 6, wb, attraction, a-b-db, 5, 2, 5, 1, 90, 165, 88, 161, 165, 90, 2, 3.93493
292, 6, wb, attraction, a-b-db, 5, 2, 5, 1, 90, 165, 88, 161, 165, 90, 1, 3.17569
292, 6, wb, attraction, a-b-da, 5, 2, 5, 2, 165, 90, 90, 165, 161, 88, 3, 1.44526
292, 6, wb, attraction, a-b-da, 5, 2, 5, 2, 165, 90, 90, 165, 161, 88, 2, 0.650101
292, 6, wb, attraction, a-b-da, 9, 3, 5, 3, 186, 114, 195, 120, 120, 195, 1, 2.82197
292, 6, wb, attraction, a-b-da, 9, 3, 5, 3, 186, 114, 195, 120, 120, 195, 3, 0.915006
292, 6, wb, attraction, a-b-da, 14, 1, 5, 4, 125, 56, 135, 60, 60, 135, 1, 1.37195
292, 6, wb, attraction, a-b-da, 14, 1, 5, 4, 125, 56, 135, 60, 60, 135, 2, 1.73156
292, 6, wb, attraction, a-b-db, 9, 3, 5, 5, 120, 195, 195, 120, 114, 186, 2, 2.57958
292, 6, wb, attraction, a-b-db, 9, 3, 5, 5, 120, 195, 195, 120, 114, 186, 1, 0.754889
292, 6, wb, attraction, a-b-da, 2, 1, 5, 6, 135, 60, 60, 135, 134, 59, 2, 0.786423
292, 6, wb, attraction, a-b-da, 2, 1, 5, 6, 135, 60, 60, 135, 134, 59, 3, 2.44238
292, 6, wb, filler, NA, 999, 999, 5, 7, 171, 167, 157, 193, 126, 130, 3, 0.981394
292, 6, wb, filler, NA, 999, 999, 5, 7, 171, 167, 157, 193, 126, 130, 1, 1.06103
292, 6, wb, filler, NA, 999, 999, 5, 8, 114, 112, 161, 56, 91, 105, 3, 1.29597
292, 6, wb, filler, NA, 999, 999, 5, 8, 114, 112, 161, 56, 91, 105, 1, 0.650886
292, 6, wb, attraction, a-b-db, 9, 1, 5, 9, 135, 60, 57, 129, 60, 135, 3, 1.3666
292, 6, wb, attraction, a-b-db, 9, 1, 5, 9, 135, 60, 57, 129, 60, 135, 1, 1.19879
292, 6, wb, catch, NA, 999, 999, 5, 10, 154, 101, 62, 133, 180, 135, 2, 0.676356
292, 6, wb, catch, NA, 999, 999, 5, 10, 154, 101, 62, 133, 180, 135, 3, 0.368143
292, 6, wb, attraction, a-b-da, 9, 2, 5, 11, 90, 165, 165, 90, 157, 86, 1, 0.935308
292, 6, wb, attraction, a-b-da, 9, 2, 5, 11, 90, 165, 165, 90, 157, 86, 2, 0.784983
292, 6, wb, attraction, a-b-db, 14, 3, 5, 12, 120, 195, 111, 181, 195, 120, 2, 1.39134
292, 6, wb, attraction, a-b-db, 14, 3, 5, 12, 120, 195, 111, 181, 195, 120, 1, 1.08626
292, 6, wb, filler, NA, 999, 999, 5, 13, 81, 145, 157, 61, 83, 63, 3, 0.688543
292, 6, wb, filler, NA, 999, 999, 5, 13, 81, 145, 157, 61, 83, 63, 1, 0.723567
292, 6, wb, attraction, a-b-da, 2, 2, 5, 14, 163, 89, 165, 90, 90, 165, 2, 2.76395
292, 6, wb, attraction, a-b-da, 2, 2, 5, 14, 163, 89, 165, 90, 90, 165, 1, 1.49975
292, 6, wb, attraction, a-b-db, 14, 1, 5, 15, 60, 135, 135, 60, 56, 125, 1, 2.22919
292, 6, wb, attraction, a-b-db, 14, 1, 5, 15, 60, 135, 135, 60, 56, 125, 3, 0.874478
292, 6, wb, attraction, a-b-da, 14, 3, 5, 16, 120, 195, 195, 120, 181, 111, 3, 1.69281
292, 6, wb, attraction, a-b-da, 14, 3, 5, 16, 120, 195, 195, 120, 181, 111, 1, 1.57559
292, 6, wb, filler, NA, 999, 999, 5, 17, 57, 154, 151, 67, 81, 136, 1, 3.56568
292, 6, wb, filler, NA, 999, 999, 5, 17, 57, 154, 151, 67, 81, 136, 3, 2.45332
292, 6, wb, attraction, a-b-db, 2, 1, 5, 18, 60, 135, 135, 60, 59, 134, 1, 1.47241
292, 6, wb, attraction, a-b-db, 2, 1, 5, 18, 60, 135, 135, 60, 59, 134, 3, 4.59598
292, 6, wb, attraction, a-b-da, 2, 3, 5, 19, 120, 195, 195, 120, 193, 119, 1, 3.20844
292, 6, wb, attraction, a-b-da, 2, 3, 5, 19, 120, 195, 195, 120, 193, 119, 3, 3.55805
292, 6, wb, attraction, a-b-da, 9, 1, 5, 20, 129, 57, 60, 135, 135, 60, 2, 4.43618
292, 6, wb, attraction, a-b-da, 9, 1, 5, 20, 129, 57, 60, 135, 135, 60, 3, 1.12888
292, 6, wb, attraction, a-b-db, 5, 3, 5, 21, 117, 190, 120, 195, 195, 120, 2, 1.40909
292, 6, wb, attraction, a-b-db, 5, 3, 5, 21, 117, 190, 120, 195, 195, 120, 1, 1.72737
292, 6, wb, filler, NA, 999, 999, 5, 22, 86, 134, 76, 128, 78, 122, 2, 0.983474
292, 6, wb, filler, NA, 999, 999, 5, 22, 86, 134, 76, 128, 78, 122, 1, 0.542961
292, 6, wb, attraction, a-b-da, 5, 3, 5, 23, 195, 120, 190, 117, 120, 195, 2, 3.2308
292, 6, wb, attraction, a-b-da, 5, 3, 5, 23, 195, 120, 190, 117, 120, 195, 3, 2.8758
292, 6, wb, filler, NA, 999, 999, 5, 24, 129, 128, 126, 84, 189, 88, 2, 0.861462
292, 6, wb, filler, NA, 999, 999, 5, 24, 129, 128, 126, 84, 189, 88, 3, 6.96989
292, 6, wb, catch, NA, 999, 999, 5, 25, 173, 142, 72, 123, 105, 150, 2, 0.66293
292, 6, wb, catch, NA, 999, 999, 5, 25, 173, 142, 72, 123, 105, 150, 1, 0.523373
292, 6, wb, filler, NA, 999, 999, 5, 26, 157, 82, 151, 167, 59, 146, 3, 1.96379
292, 6, wb, filler, NA, 999, 999, 5, 26, 157, 82, 151, 167, 59, 146, 2, 0.547861
292, 6, wb, attraction, a-b-da, 5, 1, 5, 27, 132, 58, 135, 60, 60, 135, 1, 3.94754
292, 6, wb, attraction, a-b-da, 5, 1, 5, 27, 132, 58, 135, 60, 60, 135, 3, 0.907662
292, 6, wb, filler, NA, 999, 999, 5, 28, 76, 98, 59, 164, 189, 82, 1, 0.652611
292, 6, wb, filler, NA, 999, 999, 5, 28, 76, 98, 59, 164, 189, 82, 3, 1.02573
292, 6, wb, filler, NA, 999, 999, 5, 29, 83, 95, 111, 178, 90, 74, 3, 2.49405
292, 6, wb, filler, NA, 999, 999, 5, 29, 83, 95, 111, 178, 90, 74, 2, 0.744562
292, 6, wb, attraction, a-b-db, 9, 2, 5, 30, 165, 90, 86, 157, 90, 165, 2, 4.28026
292, 6, wb, attraction, a-b-db, 9, 2, 5, 30, 165, 90, 86, 157, 90, 165, 3, 5.07504
292, 6, wb, attraction, a-b-db, 2, 2, 5, 31, 89, 163, 165, 90, 90, 165, 2, 7.55596
292, 6, wb, attraction, a-b-db, 2, 2, 5, 31, 89, 163, 165, 90, 90, 165, 1, 1.3782
292, 6, wb, catch, NA, 999, 999, 5, 32, 94, 101, 151, 104, 138, 177, 1, 0.816379
292, 6, wb, catch, NA, 999, 999, 5, 32, 94, 101, 151, 104, 138, 177, 3, 0.438809
292, 6, wb, attraction, a-b-db, 5, 1, 5, 33, 60, 135, 135, 60, 58, 132, 3, 2.37128
292, 6, wb, attraction, a-b-db, 5, 1, 5, 33, 60, 135, 135, 60, 58, 132, 1, 0.498546
292, 6, wb, filler, NA, 999, 999, 5, 34, 159, 184, 105, 88, 94, 127, 2, 0.636223
292, 6, wb, filler, NA, 999, 999, 5, 34, 159, 184, 105, 88, 94, 127, 1, 0.42601
292, 6, wb, attraction, a-b-db, 2, 3, 5, 35, 119, 193, 195, 120, 120, 195, 2, 1.83055
292, 6, wb, attraction, a-b-db, 2, 3, 5, 35, 119, 193, 195, 120, 120, 195, 1, 0.419946
292, 6, wb, attraction, a-b-da, 14, 2, 5, 36, 90, 165, 165, 90, 153, 83, 3, 1.28104
292, 6, wb, attraction, a-b-da, 14, 2, 5, 36, 90, 165, 165, 90, 153, 83, 1, 1.76464
292, 6, wb, attraction, a-b-db, 14, 2, 5, 37, 90, 165, 83, 153, 165, 90, 2, 2.79536
292, 6, wb, attraction, a-b-db, 14, 2, 5, 37, 90, 165, 83, 153, 165, 90, 1, 0.71381
292, 6, wb, attraction, a-b-da, 2, 3, 6, 1, 193, 119, 195, 120, 120, 195, 2, 2.65883
292, 6, wb, attraction, a-b-da, 2, 3, 6, 1, 193, 119, 195, 120, 120, 195, 1, 0.582708
292, 6, wb, attraction, a-b-db, 5, 1, 6, 2, 60, 135, 135, 60, 58, 132, 3, 1.52505
292, 6, wb, attraction, a-b-db, 5, 1, 6, 2, 60, 135, 135, 60, 58, 132, 1, 0.566541
292, 6, wb, attraction, a-b-db, 2, 3, 6, 3, 119, 193, 195, 120, 120, 195, 2, 4.80563
292, 6, wb, attraction, a-b-db, 2, 3, 6, 3, 119, 193, 195, 120, 120, 195, 1, 1.12283
292, 6, wb, catch, NA, 999, 999, 6, 4, 151, 164, 91, 164, 120, 75, 3, 1.01187
292, 6, wb, catch, NA, 999, 999, 6, 4, 151, 164, 91, 164, 120, 75, 1, 0.601988
292, 6, wb, attraction, a-b-db, 9, 1, 6, 5, 60, 135, 135, 60, 57, 129, 3, 2.1598
292, 6, wb, attraction, a-b-db, 9, 1, 6, 5, 60, 135, 135, 60, 57, 129, 1, 0.743773
292, 6, wb, filler, NA, 999, 999, 6, 6, 68, 58, 110, 162, 89, 155, 1, 1.71155
292, 6, wb, filler, NA, 999, 999, 6, 6, 68, 58, 110, 162, 89, 155, 2, 0.713624
292, 6, wb, filler, NA, 999, 999, 6, 7, 177, 95, 171, 169, 105, 120, 3, 2.92273
292, 6, wb, filler, NA, 999, 999, 6, 7, 177, 95, 171, 169, 105, 120, 2, 0.467665
292, 6, wb, filler, NA, 999, 999, 6, 8, 99, 165, 183, 57, 60, 160, 3, 1.44684
292, 6, wb, filler, NA, 999, 999, 6, 8, 99, 165, 183, 57, 60, 160, 1, 0.755656
292, 6, wb, catch, NA, 999, 999, 6, 9, 99, 156, 118, 77, 164, 151, 2, 0.915426
292, 6, wb, catch, NA, 999, 999, 6, 9, 99, 156, 118, 77, 164, 151, 3, 0.373744
292, 6, wb, filler, NA, 999, 999, 6, 10, 57, 184, 147, 62, 105, 195, 2, 1.89221
292, 6, wb, filler, NA, 999, 999, 6, 10, 57, 184, 147, 62, 105, 195, 3, 0.382878
292, 6, wb, attraction, a-b-da, 9, 1, 6, 11, 129, 57, 135, 60, 60, 135, 1, 1.2374
292, 6, wb, attraction, a-b-da, 9, 1, 6, 11, 129, 57, 135, 60, 60, 135, 3, 2.33027
292, 6, wb, attraction, a-b-da, 9, 3, 6, 12, 120, 195, 195, 120, 186, 114, 1, 2.49823
292, 6, wb, attraction, a-b-da, 9, 3, 6, 12, 120, 195, 195, 120, 186, 114, 2, 1.18082
292, 6, wb, filler, NA, 999, 999, 6, 13, 180, 185, 98, 184, 192, 84, 2, 4.68301
292, 6, wb, filler, NA, 999, 999, 6, 13, 180, 185, 98, 184, 192, 84, 1, 0.461533
292, 6, wb, attraction, a-b-db, 14, 1, 6, 14, 56, 125, 135, 60, 60, 135, 1, 3.7688
292, 6, wb, attraction, a-b-db, 14, 1, 6, 14, 56, 125, 135, 60, 60, 135, 3, 1.15212
292, 6, wb, catch, NA, 999, 999, 6, 15, 134, 61, 121, 134, 144, 171, 1, 2.10373
292, 6, wb, catch, NA, 999, 999, 6, 15, 134, 61, 121, 134, 144, 171, 3, 0.586374
292, 6, wb, attraction, a-b-da, 2, 1, 6, 16, 134, 59, 60, 135, 135, 60, 2, 1.17688
292, 6, wb, attraction, a-b-da, 2, 1, 6, 16, 134, 59, 60, 135, 135, 60, 3, 1.09644
292, 6, wb, attraction, a-b-db, 2, 1, 6, 17, 59, 134, 135, 60, 60, 135, 2, 1.22598
292, 6, wb, attraction, a-b-db, 2, 1, 6, 17, 59, 134, 135, 60, 60, 135, 1, 2.42354
292, 6, wb, filler, NA, 999, 999, 6, 18, 56, 170, 114, 169, 150, 153, 1, 1.83539
292, 6, wb, filler, NA, 999, 999, 6, 18, 56, 170, 114, 169, 150, 153, 3, 0.78484
292, 6, wb, filler, NA, 999, 999, 6, 19, 101, 163, 193, 86, 78, 79, 3, 1.3192
292, 6, wb, filler, NA, 999, 999, 6, 19, 101, 163, 193, 86, 78, 79, 1, 1.52142
292, 6, wb, attraction, a-b-db, 5, 3, 6, 20, 117, 190, 195, 120, 120, 195, 1, 3.2822
292, 6, wb, attraction, a-b-db, 5, 3, 6, 20, 117, 190, 195, 120, 120, 195, 2, 1.56521
292, 6, wb, attraction, a-b-db, 2, 2, 6, 21, 89, 163, 90, 165, 165, 90, 2, 1.92398
292, 6, wb, attraction, a-b-db, 2, 2, 6, 21, 89, 163, 90, 165, 165, 90, 3, 1.38942
292, 6, wb, filler, NA, 999, 999, 6, 22, 164, 172, 156, 93, 78, 178, 2, 2.69143
292, 6, wb, filler, NA, 999, 999, 6, 22, 164, 172, 156, 93, 78, 178, 1, 0.605888
292, 6, wb, attraction, a-b-da, 5, 1, 6, 23, 132, 58, 135, 60, 60, 135, 3, 1.77171
292, 6, wb, attraction, a-b-da, 5, 1, 6, 23, 132, 58, 135, 60, 60, 135, 2, 4.07508
292, 6, wb, attraction, a-b-da, 14, 2, 6, 24, 90, 165, 165, 90, 153, 83, 3, 2.42858
292, 6, wb, attraction, a-b-da, 14, 2, 6, 24, 90, 165, 165, 90, 153, 83, 1, 2.39364
292, 6, wb, filler, NA, 999, 999, 6, 25, 137, 79, 88, 107, 156, 144, 2, 1.27095
292, 6, wb, filler, NA, 999, 999, 6, 25, 137, 79, 88, 107, 156, 144, 3, 0.338553
292, 6, wb, attraction, a-b-db, 14, 3, 6, 26, 111, 181, 120, 195, 195, 120, 1, 1.31494
292, 6, wb, attraction, a-b-db, 14, 3, 6, 26, 111, 181, 120, 195, 195, 120, 2, 3.31718
292, 6, wb, attraction, a-b-db, 14, 2, 6, 27, 90, 165, 165, 90, 83, 153, 3, 1.49352
292, 6, wb, attraction, a-b-db, 14, 2, 6, 27, 90, 165, 165, 90, 83, 153, 1, 2.00024
292, 6, wb, attraction, a-b-db, 9, 2, 6, 28, 86, 157, 165, 90, 90, 165, 2, 4.70959
292, 6, wb, attraction, a-b-db, 9, 2, 6, 28, 86, 157, 165, 90, 90, 165, 3, 0.950785
292, 6, wb, attraction, a-b-db, 5, 2, 6, 29, 165, 90, 90, 165, 88, 161, 2, 5.60632
292, 6, wb, attraction, a-b-db, 5, 2, 6, 29, 165, 90, 90, 165, 88, 161, 3, 2.3553
292, 6, wb, attraction, a-b-da, 14, 3, 6, 30, 120, 195, 181, 111, 195, 120, 2, 2.85052
292, 6, wb, attraction, a-b-da, 14, 3, 6, 30, 120, 195, 181, 111, 195, 120, 1, 1.14296
292, 6, wb, attraction, a-b-db, 9, 3, 6, 31, 195, 120, 120, 195, 114, 186, 3, 1.38244
292, 6, wb, attraction, a-b-db, 9, 3, 6, 31, 195, 120, 120, 195, 114, 186, 2, 0.790027
292, 6, wb, attraction, a-b-da, 2, 2, 6, 32, 165, 90, 90, 165, 163, 89, 2, 3.45172
292, 6, wb, attraction, a-b-da, 2, 2, 6, 32, 165, 90, 90, 165, 163, 89, 1, 2.39199
292, 6, wb, attraction, a-b-da, 14, 1, 6, 33, 60, 135, 135, 60, 125, 56, 1, 2.14116
292, 6, wb, attraction, a-b-da, 14, 1, 6, 33, 60, 135, 135, 60, 125, 56, 2, 2.61374
292, 6, wb, filler, NA, 999, 999, 6, 34, 173, 179, 113, 167, 180, 103, 2, 1.00227
292, 6, wb, filler, NA, 999, 999, 6, 34, 173, 179, 113, 167, 180, 103, 1, 0.361289
292, 6, wb, attraction, a-b-da, 5, 3, 6, 35, 190, 117, 195, 120, 120, 195, 1, 2.27239
292, 6, wb, attraction, a-b-da, 5, 3, 6, 35, 190, 117, 195, 120, 120, 195, 3, 1.02768
292, 6, wb, attraction, a-b-da, 5, 2, 6, 36, 90, 165, 165, 90, 161, 88, 1, 2.02389
292, 6, wb, attraction, a-b-da, 5, 2, 6, 36, 90, 165, 165, 90, 161, 88, 3, 0.605224
292, 6, wb, attraction, a-b-da, 9, 2, 6, 37, 157, 86, 165, 90, 90, 165, 1, 3.58715
292, 6, wb, attraction, a-b-da, 9, 2, 6, 37, 157, 86, 165, 90, 90, 165, 2, 0.882012
292, 6, wb, attraction, a-b-da, 9, 2, 7, 1, 157, 86, 90, 165, 165, 90, 2, 2.46813
292, 6, wb, attraction, a-b-da, 9, 2, 7, 1, 157, 86, 90, 165, 165, 90, 3, 0.68805
292, 6, wb, filler, NA, 999, 999, 7, 2, 169, 82, 57, 123, 70, 156, 2, 0.738431
292, 6, wb, filler, NA, 999, 999, 7, 2, 169, 82, 57, 123, 70, 156, 1, 1.15568
292, 6, wb, attraction, a-b-da, 2, 1, 7, 3, 135, 60, 60, 135, 134, 59, 2, 1.08316
292, 6, wb, attraction, a-b-da, 2, 1, 7, 3, 135, 60, 60, 135, 134, 59, 3, 2.32683
292, 6, wb, attraction, a-b-da, 14, 1, 7, 4, 135, 60, 60, 135, 125, 56, 2, 1.33469
292, 6, wb, attraction, a-b-da, 14, 1, 7, 4, 135, 60, 60, 135, 125, 56, 1, 0.5922
292, 6, wb, attraction, a-b-db, 9, 3, 7, 5, 120, 195, 195, 120, 114, 186, 3, 1.39797
292, 6, wb, attraction, a-b-db, 9, 3, 7, 5, 120, 195, 195, 120, 114, 186, 1, 0.956877
292, 6, wb, attraction, a-b-db, 14, 2, 7, 6, 83, 153, 90, 165, 165, 90, 1, 6.77979
292, 6, wb, attraction, a-b-db, 14, 2, 7, 6, 83, 153, 90, 165, 165, 90, 3, 0.585716
292, 6, wb, attraction, a-b-db, 2, 2, 7, 7, 165, 90, 89, 163, 90, 165, 2, 0.992101
292, 6, wb, attraction, a-b-db, 2, 2, 7, 7, 165, 90, 89, 163, 90, 165, 1, 0.687122
292, 6, wb, attraction, a-b-da, 5, 3, 7, 8, 190, 117, 195, 120, 120, 195, 3, 2.77752
292, 6, wb, attraction, a-b-da, 5, 3, 7, 8, 190, 117, 195, 120, 120, 195, 2, 0.55256
292, 6, wb, filler, NA, 999, 999, 7, 9, 162, 77, 138, 168, 137, 182, 1, 1.56034
292, 6, wb, filler, NA, 999, 999, 7, 9, 162, 77, 138, 168, 137, 182, 3, 0.496531
292, 6, wb, attraction, a-b-db, 5, 1, 7, 10, 135, 60, 58, 132, 60, 135, 2, 2.52238
292, 6, wb, attraction, a-b-db, 5, 1, 7, 10, 135, 60, 58, 132, 60, 135, 1, 0.81947
292, 6, wb, attraction, a-b-db, 9, 2, 7, 11, 86, 157, 165, 90, 90, 165, 2, 2.26447
292, 6, wb, attraction, a-b-db, 9, 2, 7, 11, 86, 157, 165, 90, 90, 165, 1, 1.36444
292, 6, wb, filler, NA, 999, 999, 7, 12, 59, 100, 162, 120, 173, 104, 1, 0.835216
292, 6, wb, filler, NA, 999, 999, 7, 12, 59, 100, 162, 120, 173, 104, 2, 1.18501
292, 6, wb, attraction, a-b-db, 9, 1, 7, 13, 60, 135, 57, 129, 135, 60, 2, 2.08727
292, 6, wb, attraction, a-b-db, 9, 1, 7, 13, 60, 135, 57, 129, 135, 60, 1, 3.49056
292, 6, wb, filler, NA, 999, 999, 7, 14, 119, 75, 94, 185, 136, 167, 1, 1.67534
292, 6, wb, filler, NA, 999, 999, 7, 14, 119, 75, 94, 185, 136, 167, 3, 0.766807
292, 6, wb, filler, NA, 999, 999, 7, 15, 91, 180, 168, 72, 148, 56, 3, 6.28599
292, 6, wb, filler, NA, 999, 999, 7, 15, 91, 180, 168, 72, 148, 56, 1, 0.59188
292, 6, wb, attraction, a-b-da, 5, 1, 7, 16, 132, 58, 60, 135, 135, 60, 1, 3.58962
292, 6, wb, attraction, a-b-da, 5, 1, 7, 16, 132, 58, 60, 135, 135, 60, 2, 1.1399
292, 6, wb, attraction, a-b-db, 2, 3, 7, 17, 120, 195, 119, 193, 195, 120, 3, 5.33941
292, 6, wb, attraction, a-b-db, 2, 3, 7, 17, 120, 195, 119, 193, 195, 120, 1, 0.77104
292, 6, wb, attraction, a-b-db, 14, 1, 7, 18, 56, 125, 60, 135, 135, 60, 3, 2.05819
292, 6, wb, attraction, a-b-db, 14, 1, 7, 18, 56, 125, 60, 135, 135, 60, 1, 1.71011
292, 6, wb, filler, NA, 999, 999, 7, 19, 158, 109, 110, 174, 102, 76, 3, 0.734813
292, 6, wb, filler, NA, 999, 999, 7, 19, 158, 109, 110, 174, 102, 76, 2, 2.38467
292, 6, wb, attraction, a-b-db, 14, 3, 7, 20, 120, 195, 195, 120, 111, 181, 3, 1.79038
292, 6, wb, attraction, a-b-db, 14, 3, 7, 20, 120, 195, 195, 120, 111, 181, 1, 0.533138
292, 6, wb, attraction, a-b-da, 9, 3, 7, 21, 120, 195, 195, 120, 186, 114, 1, 1.52567
292, 6, wb, attraction, a-b-da, 9, 3, 7, 21, 120, 195, 195, 120, 186, 114, 3, 0.503052
292, 6, wb, filler, NA, 999, 999, 7, 22, 116, 64, 173, 121, 158, 77, 1, 0.696867
292, 6, wb, filler, NA, 999, 999, 7, 22, 116, 64, 173, 121, 158, 77, 2, 0.868077
292, 6, wb, catch, NA, 999, 999, 7, 23, 115, 80, 113, 142, 168, 147, 1, 1.04702
292, 6, wb, catch, NA, 999, 999, 7, 23, 115, 80, 113, 142, 168, 147, 3, 0.492006
292, 6, wb, attraction, a-b-db, 5, 3, 7, 24, 120, 195, 195, 120, 117, 190, 3, 3.10174
292, 6, wb, attraction, a-b-db, 5, 3, 7, 24, 120, 195, 195, 120, 117, 190, 1, 0.624097
292, 6, wb, attraction, a-b-da, 5, 2, 7, 25, 161, 88, 90, 165, 165, 90, 2, 2.77251
292, 6, wb, attraction, a-b-da, 5, 2, 7, 25, 161, 88, 90, 165, 165, 90, 3, 1.1237
292, 6, wb, attraction, a-b-db, 5, 2, 7, 26, 88, 161, 90, 165, 165, 90, 2, 2.27583
292, 6, wb, attraction, a-b-db, 5, 2, 7, 26, 88, 161, 90, 165, 165, 90, 3, 2.03908
292, 6, wb, attraction, a-b-da, 14, 2, 7, 27, 165, 90, 90, 165, 153, 83, 2, 4.26711
292, 6, wb, attraction, a-b-da, 14, 2, 7, 27, 165, 90, 90, 165, 153, 83, 1, 0.7104
292, 6, wb, filler, NA, 999, 999, 7, 28, 110, 61, 164, 72, 133, 95, 1, 1.03142
292, 6, wb, filler, NA, 999, 999, 7, 28, 110, 61, 164, 72, 133, 95, 3, 4.76516
292, 6, wb, attraction, a-b-db, 2, 1, 7, 29, 59, 134, 135, 60, 60, 135, 2, 4.38705
292, 6, wb, attraction, a-b-db, 2, 1, 7, 29, 59, 134, 135, 60, 60, 135, 3, 0.905573
292, 6, wb, filler, NA, 999, 999, 7, 30, 150, 151, 180, 155, 76, 174, 3, 2.53917
292, 6, wb, filler, NA, 999, 999, 7, 30, 150, 151, 180, 155, 76, 174, 2, 1.08362
292, 6, wb, catch, NA, 999, 999, 7, 31, 128, 187, 135, 60, 160, 95, 2, 0.885967
292, 6, wb, catch, NA, 999, 999, 7, 31, 128, 187, 135, 60, 160, 95, 1, 0.68169
292, 6, wb, attraction, a-b-da, 14, 3, 7, 32, 181, 111, 120, 195, 195, 120, 1, 1.29197
292, 6, wb, attraction, a-b-da, 14, 3, 7, 32, 181, 111, 120, 195, 195, 120, 2, 1.56702
292, 6, wb, catch, NA, 999, 999, 7, 33, 79, 116, 155, 100, 124, 191, 1, 0.773716
292, 6, wb, catch, NA, 999, 999, 7, 33, 79, 116, 155, 100, 124, 191, 3, 0.485467
292, 6, wb, filler, NA, 999, 999, 7, 34, 57, 110, 180, 175, 106, 134, 1, 0.64792
292, 6, wb, filler, NA, 999, 999, 7, 34, 57, 110, 180, 175, 106, 134, 2, 0.437036
292, 6, wb, attraction, a-b-da, 9, 1, 7, 35, 129, 57, 135, 60, 60, 135, 3, 3.71344
292, 6, wb, attraction, a-b-da, 9, 1, 7, 35, 129, 57, 135, 60, 60, 135, 2, 1.62704
292, 6, wb, attraction, a-b-da, 2, 2, 7, 36, 165, 90, 163, 89, 90, 165, 3, 7.27903
292, 6, wb, attraction, a-b-da, 2, 2, 7, 36, 165, 90, 163, 89, 90, 165, 2, 0.81673
292, 6, wb, attraction, a-b-da, 2, 3, 7, 37, 195, 120, 120, 195, 193, 119, 2, 2.94986
292, 6, wb, attraction, a-b-da, 2, 3, 7, 37, 195, 120, 120, 195, 193, 119, 3, 0.558261
292, 6, wb, attraction, a-b-da, 14, 1, 8, 1, 60, 135, 125, 56, 135, 60, 2, 2.26127
292, 6, wb, attraction, a-b-da, 14, 1, 8, 1, 60, 135, 125, 56, 135, 60, 3, 0.377265
292, 6, wb, attraction, a-b-da, 9, 3, 8, 2, 120, 195, 195, 120, 186, 114, 2, 6.63166
292, 6, wb, attraction, a-b-da, 9, 3, 8, 2, 120, 195, 195, 120, 186, 114, 1, 0.779609
292, 6, wb, attraction, a-b-da, 5, 2, 8, 3, 161, 88, 165, 90, 90, 165, 1, 3.28192
292, 6, wb, attraction, a-b-da, 5, 2, 8, 3, 161, 88, 165, 90, 90, 165, 3, 0.572875
292, 6, wb, catch, NA, 999, 999, 8, 4, 120, 195, 133, 62, 149, 106, 2, 1.70732
292, 6, wb, catch, NA, 999, 999, 8, 4, 120, 195, 133, 62, 149, 106, 1, 0.589403
292, 6, wb, filler, NA, 999, 999, 8, 5, 72, 58, 78, 147, 173, 104, 1, 0.891211
292, 6, wb, filler, NA, 999, 999, 8, 5, 72, 58, 78, 147, 173, 104, 3, 0.758257
292, 6, wb, filler, NA, 999, 999, 8, 6, 159, 137, 124, 195, 143, 194, 1, 3.82934
292, 6, wb, filler, NA, 999, 999, 8, 6, 159, 137, 124, 195, 143, 194, 3, 2.93011
292, 6, wb, attraction, a-b-da, 2, 3, 8, 7, 193, 119, 120, 195, 195, 120, 2, 2.40976
292, 6, wb, attraction, a-b-da, 2, 3, 8, 7, 193, 119, 120, 195, 195, 120, 1, 0.631623
292, 6, wb, filler, NA, 999, 999, 8, 8, 127, 123, 112, 66, 58, 169, 2, 1.20402
292, 6, wb, filler, NA, 999, 999, 8, 8, 127, 123, 112, 66, 58, 169, 1, 3.33826
292, 6, wb, attraction, a-b-da, 2, 2, 8, 9, 163, 89, 90, 165, 165, 90, 2, 5.11399
292, 6, wb, attraction, a-b-da, 2, 2, 8, 9, 163, 89, 90, 165, 165, 90, 3, 2.81901
292, 6, wb, attraction, a-b-da, 9, 2, 8, 10, 90, 165, 165, 90, 157, 86, 2, 3.64744
292, 6, wb, attraction, a-b-da, 9, 2, 8, 10, 90, 165, 165, 90, 157, 86, 1, 1.59562
292, 6, wb, catch, NA, 999, 999, 8, 11, 162, 93, 156, 159, 130, 65, 3, 0.856956
292, 6, wb, catch, NA, 999, 999, 8, 11, 162, 93, 156, 159, 130, 65, 2, 0.853313
292, 6, wb, attraction, a-b-da, 14, 3, 8, 12, 181, 111, 120, 195, 195, 120, 1, 1.39304
292, 6, wb, attraction, a-b-da, 14, 3, 8, 12, 181, 111, 120, 195, 195, 120, 3, 1.33581
292, 6, wb, filler, NA, 999, 999, 8, 13, 81, 160, 59, 73, 157, 87, 2, 1.28812
292, 6, wb, filler, NA, 999, 999, 8, 13, 81, 160, 59, 73, 157, 87, 1, 1.46691
292, 6, wb, attraction, a-b-db, 2, 3, 8, 14, 195, 120, 119, 193, 120, 195, 1, 5.16587
292, 6, wb, attraction, a-b-db, 2, 3, 8, 14, 195, 120, 119, 193, 120, 195, 3, 0.796895
292, 6, wb, attraction, a-b-da, 9, 1, 8, 15, 60, 135, 135, 60, 129, 57, 1, 0.986388
292, 6, wb, attraction, a-b-da, 9, 1, 8, 15, 60, 135, 135, 60, 129, 57, 2, 0.930056
292, 6, wb, attraction, a-b-db, 9, 1, 8, 16, 60, 135, 57, 129, 135, 60, 1, 0.866336
292, 6, wb, attraction, a-b-db, 9, 1, 8, 16, 60, 135, 57, 129, 135, 60, 3, 2.28677
292, 6, wb, attraction, a-b-db, 5, 2, 8, 17, 90, 165, 88, 161, 165, 90, 2, 1.32861
292, 6, wb, attraction, a-b-db, 5, 2, 8, 17, 90, 165, 88, 161, 165, 90, 1, 0.850346
292, 6, wb, attraction, a-b-db, 5, 1, 8, 18, 58, 132, 135, 60, 60, 135, 3, 1.08601
292, 6, wb, attraction, a-b-db, 5, 1, 8, 18, 58, 132, 135, 60, 60, 135, 2, 3.75354
292, 6, wb, attraction, a-b-db, 2, 1, 8, 19, 135, 60, 59, 134, 60, 135, 1, 1.41641
292, 6, wb, attraction, a-b-db, 2, 1, 8, 19, 135, 60, 59, 134, 60, 135, 3, 0.518545
292, 6, wb, filler, NA, 999, 999, 8, 20, 122, 171, 71, 122, 190, 69, 2, 0.919641
292, 6, wb, filler, NA, 999, 999, 8, 20, 122, 171, 71, 122, 190, 69, 1, 0.506028
292, 6, wb, attraction, a-b-db, 2, 2, 8, 21, 89, 163, 165, 90, 90, 165, 2, 1.26779
292, 6, wb, attraction, a-b-db, 2, 2, 8, 21, 89, 163, 165, 90, 90, 165, 1, 1.57614
292, 6, wb, attraction, a-b-db, 14, 2, 8, 22, 165, 90, 90, 165, 83, 153, 3, 2.10221
292, 6, wb, attraction, a-b-db, 14, 2, 8, 22, 165, 90, 90, 165, 83, 153, 2, 0.864827
292, 6, wb, filler, NA, 999, 999, 8, 23, 71, 63, 158, 178, 102, 168, 1, 0.931722
292, 6, wb, filler, NA, 999, 999, 8, 23, 71, 63, 158, 178, 102, 168, 2, 0.413433
292, 6, wb, catch, NA, 999, 999, 8, 24, 102, 153, 111, 84, 162, 153, 2, 0.762748
292, 6, wb, catch, NA, 999, 999, 8, 24, 102, 153, 111, 84, 162, 153, 3, 0.547231
292, 6, wb, attraction, a-b-da, 2, 1, 8, 25, 60, 135, 134, 59, 135, 60, 1, 1.9949
292, 6, wb, attraction, a-b-da, 2, 1, 8, 25, 60, 135, 134, 59, 135, 60, 2, 0.345406
292, 6, wb, attraction, a-b-db, 5, 3, 8, 26, 195, 120, 120, 195, 117, 190, 1, 1.6573
292, 6, wb, attraction, a-b-db, 5, 3, 8, 26, 195, 120, 120, 195, 117, 190, 2, 1.46948
292, 6, wb, filler, NA, 999, 999, 8, 27, 100, 194, 103, 101, 129, 177, 2, 0.648271
292, 6, wb, filler, NA, 999, 999, 8, 27, 100, 194, 103, 101, 129, 177, 3, 0.453418
292, 6, wb, filler, NA, 999, 999, 8, 28, 168, 64, 143, 154, 113, 110, 3, 2.43324
292, 6, wb, filler, NA, 999, 999, 8, 28, 168, 64, 143, 154, 113, 110, 2, 0.406427
292, 6, wb, attraction, a-b-da, 5, 1, 8, 29, 132, 58, 60, 135, 135, 60, 1, 2.72351
292, 6, wb, attraction, a-b-da, 5, 1, 8, 29, 132, 58, 60, 135, 135, 60, 3, 0.644643
292, 6, wb, attraction, a-b-db, 9, 2, 8, 30, 86, 157, 165, 90, 90, 165, 1, 1.15232
292, 6, wb, attraction, a-b-db, 9, 2, 8, 30, 86, 157, 165, 90, 90, 165, 3, 0.761355
292, 6, wb, attraction, a-b-da, 5, 3, 8, 31, 195, 120, 120, 195, 190, 117, 2, 1.83232
292, 6, wb, attraction, a-b-da, 5, 3, 8, 31, 195, 120, 120, 195, 190, 117, 1, 1.36581
292, 6, wb, filler, NA, 999, 999, 8, 32, 173, 131, 180, 121, 74, 132, 3, 1.17263
292, 6, wb, filler, NA, 999, 999, 8, 32, 173, 131, 180, 121, 74, 132, 1, 0.668356
292, 6, wb, attraction, a-b-da, 14, 2, 8, 33, 153, 83, 165, 90, 90, 165, 1, 2.78321
292, 6, wb, attraction, a-b-da, 14, 2, 8, 33, 153, 83, 165, 90, 90, 165, 3, 0.582486
292, 6, wb, attraction, a-b-db, 14, 1, 8, 34, 135, 60, 56, 125, 60, 135, 2, 0.972902
292, 6, wb, attraction, a-b-db, 14, 1, 8, 34, 135, 60, 56, 125, 60, 135, 3, 1.18858
292, 6, wb, filler, NA, 999, 999, 8, 35, 60, 144, 68, 78, 138, 181, 2, 0.842724
292, 6, wb, filler, NA, 999, 999, 8, 35, 60, 144, 68, 78, 138, 181, 3, 0.423915
292, 6, wb, attraction, a-b-db, 14, 3, 8, 36, 120, 195, 195, 120, 111, 181, 3, 1.28424
292, 6, wb, attraction, a-b-db, 14, 3, 8, 36, 120, 195, 195, 120, 111, 181, 2, 1.18383
292, 6, wb, attraction, a-b-db, 9, 3, 8, 37, 120, 195, 114, 186, 195, 120, 2, 1.70215
292, 6, wb, attraction, a-b-db, 9, 3, 8, 37, 120, 195, 114, 186, 195, 120, 1, 0.976905
