sub_n, computer_n, bw_cond, effect, set, distance, diag, block_n, trial_n, h1, w1, h2, w2, h3, w3, choice, rt 
227, 6, bw, practice, NA, 999, 999, 0, 1, 80, 160, 101, 151, 177, 91, 2, 3.55328
227, 6, bw, practice, NA, 999, 999, 0, 1, 80, 160, 101, 151, 177, 91, 1, 2.94006
227, 6, bw, practice, NA, 999, 999, 0, 2, 161, 166, 122, 172, 172, 128, 1, 1.92903
227, 6, bw, practice, NA, 999, 999, 0, 2, 161, 166, 122, 172, 172, 128, 2, 2.32138
227, 6, bw, practice, NA, 999, 999, 0, 3, 122, 126, 152, 170, 92, 64, 2, 1.85323
227, 6, bw, practice, NA, 999, 999, 0, 3, 122, 126, 152, 170, 92, 64, 3, 1.08216
227, 6, bw, attraction, a-b-db, 2, 2, 1, 1, 90, 165, 89, 163, 165, 90, 1, 2.09191
227, 6, bw, attraction, a-b-db, 2, 2, 1, 1, 90, 165, 89, 163, 165, 90, 2, 2.61454
227, 6, bw, attraction, a-b-da, 5, 3, 1, 2, 120, 195, 195, 120, 190, 117, 1, 2.26693
227, 6, bw, attraction, a-b-da, 5, 3, 1, 2, 120, 195, 195, 120, 190, 117, 3, 1.81497
227, 6, bw, filler, NA, 999, 999, 1, 3, 61, 132, 158, 129, 101, 149, 2, 1.65969
227, 6, bw, filler, NA, 999, 999, 1, 3, 61, 132, 158, 129, 101, 149, 1, 0.591764
227, 6, bw, attraction, a-b-db, 2, 1, 1, 4, 135, 60, 60, 135, 59, 134, 1, 7.18954
227, 6, bw, attraction, a-b-db, 2, 1, 1, 4, 135, 60, 60, 135, 59, 134, 2, 1.69068
227, 6, bw, filler, NA, 999, 999, 1, 5, 129, 165, 122, 148, 79, 119, 1, 0.771975
227, 6, bw, filler, NA, 999, 999, 1, 5, 129, 165, 122, 148, 79, 119, 3, 0.811801
227, 6, bw, attraction, a-b-db, 2, 3, 1, 6, 119, 193, 195, 120, 120, 195, 1, 3.02475
227, 6, bw, attraction, a-b-db, 2, 3, 1, 6, 119, 193, 195, 120, 120, 195, 2, 0.389712
227, 6, bw, filler, NA, 999, 999, 1, 7, 137, 183, 183, 166, 71, 174, 2, 1.16357
227, 6, bw, filler, NA, 999, 999, 1, 7, 137, 183, 183, 166, 71, 174, 3, 1.23584
227, 6, bw, attraction, a-b-da, 14, 3, 1, 8, 181, 111, 195, 120, 120, 195, 3, 3.26401
227, 6, bw, attraction, a-b-da, 14, 3, 1, 8, 181, 111, 195, 120, 120, 195, 1, 0.787573
227, 6, bw, attraction, a-b-da, 2, 3, 1, 9, 195, 120, 193, 119, 120, 195, 3, 3.76203
227, 6, bw, attraction, a-b-da, 2, 3, 1, 9, 195, 120, 193, 119, 120, 195, 2, 0.929558
227, 6, bw, filler, NA, 999, 999, 1, 10, 144, 118, 74, 62, 166, 154, 3, 1.12978
227, 6, bw, filler, NA, 999, 999, 1, 10, 144, 118, 74, 62, 166, 154, 2, 0.739433
227, 6, bw, filler, NA, 999, 999, 1, 11, 151, 76, 110, 104, 136, 138, 3, 2.79515
227, 6, bw, filler, NA, 999, 999, 1, 11, 151, 76, 110, 104, 136, 138, 1, 3.77765
227, 6, bw, attraction, a-b-db, 5, 2, 1, 12, 88, 161, 165, 90, 90, 165, 1, 1.99909
227, 6, bw, attraction, a-b-db, 5, 2, 1, 12, 88, 161, 165, 90, 90, 165, 2, 1.00571
227, 6, bw, attraction, a-b-da, 9, 1, 1, 13, 129, 57, 135, 60, 60, 135, 3, 2.8434
227, 6, bw, attraction, a-b-da, 9, 1, 1, 13, 129, 57, 135, 60, 60, 135, 2, 1.71166
227, 6, bw, filler, NA, 999, 999, 1, 14, 84, 163, 67, 137, 153, 184, 3, 1.64045
227, 6, bw, filler, NA, 999, 999, 1, 14, 84, 163, 67, 137, 153, 184, 2, 0.557271
227, 6, bw, attraction, a-b-da, 9, 3, 1, 15, 120, 195, 195, 120, 186, 114, 1, 2.91632
227, 6, bw, attraction, a-b-da, 9, 3, 1, 15, 120, 195, 195, 120, 186, 114, 3, 1.49418
227, 6, bw, catch, NA, 999, 999, 1, 16, 99, 156, 168, 147, 110, 85, 2, 1.00753
227, 6, bw, catch, NA, 999, 999, 1, 16, 99, 156, 168, 147, 110, 85, 3, 1.39785
227, 6, bw, filler, NA, 999, 999, 1, 17, 72, 191, 132, 113, 185, 76, 1, 2.40343
227, 6, bw, filler, NA, 999, 999, 1, 17, 72, 191, 132, 113, 185, 76, 2, 0.593935
227, 6, bw, filler, NA, 999, 999, 1, 18, 102, 85, 97, 79, 65, 171, 3, 2.91967
227, 6, bw, filler, NA, 999, 999, 1, 18, 102, 85, 97, 79, 65, 171, 2, 1.05742
227, 6, bw, attraction, a-b-db, 5, 3, 1, 19, 117, 190, 195, 120, 120, 195, 3, 2.8604
227, 6, bw, attraction, a-b-db, 5, 3, 1, 19, 117, 190, 195, 120, 120, 195, 2, 2.18415
227, 6, bw, attraction, a-b-db, 9, 1, 1, 20, 60, 135, 57, 129, 135, 60, 1, 3.95804
227, 6, bw, attraction, a-b-db, 9, 1, 1, 20, 60, 135, 57, 129, 135, 60, 2, 1.75744
227, 6, bw, attraction, a-b-da, 14, 1, 1, 21, 60, 135, 135, 60, 125, 56, 1, 1.55613
227, 6, bw, attraction, a-b-da, 14, 1, 1, 21, 60, 135, 135, 60, 125, 56, 3, 1.98835
227, 6, bw, attraction, a-b-da, 14, 2, 1, 22, 90, 165, 165, 90, 153, 83, 1, 1.75429
227, 6, bw, attraction, a-b-da, 14, 2, 1, 22, 90, 165, 165, 90, 153, 83, 2, 1.65841
227, 6, bw, catch, NA, 999, 999, 1, 23, 139, 176, 96, 99, 123, 132, 1, 0.66926
227, 6, bw, catch, NA, 999, 999, 1, 23, 139, 176, 96, 99, 123, 132, 2, 0.75359
227, 6, bw, attraction, a-b-db, 9, 3, 1, 24, 195, 120, 120, 195, 114, 186, 2, 2.99331
227, 6, bw, attraction, a-b-db, 9, 3, 1, 24, 195, 120, 120, 195, 114, 186, 3, 0.567719
227, 6, bw, attraction, a-b-da, 5, 1, 1, 25, 135, 60, 132, 58, 60, 135, 1, 1.18271
227, 6, bw, attraction, a-b-da, 5, 1, 1, 25, 135, 60, 132, 58, 60, 135, 2, 1.4384
227, 6, bw, catch, NA, 999, 999, 1, 26, 108, 87, 96, 159, 141, 174, 3, 2.46651
227, 6, bw, catch, NA, 999, 999, 1, 26, 108, 87, 96, 159, 141, 174, 1, 0.782353
227, 6, bw, attraction, a-b-da, 9, 2, 1, 27, 157, 86, 165, 90, 90, 165, 3, 1.88478
227, 6, bw, attraction, a-b-da, 9, 2, 1, 27, 157, 86, 165, 90, 90, 165, 2, 0.480079
227, 6, bw, attraction, a-b-db, 5, 1, 1, 28, 58, 132, 135, 60, 60, 135, 1, 1.37855
227, 6, bw, attraction, a-b-db, 5, 1, 1, 28, 58, 132, 135, 60, 60, 135, 2, 0.458165
227, 6, bw, attraction, a-b-db, 9, 2, 1, 29, 90, 165, 165, 90, 86, 157, 1, 1.78136
227, 6, bw, attraction, a-b-db, 9, 2, 1, 29, 90, 165, 165, 90, 86, 157, 2, 0.444638
227, 6, bw, attraction, a-b-db, 14, 3, 1, 30, 195, 120, 111, 181, 120, 195, 3, 1.97648
227, 6, bw, attraction, a-b-db, 14, 3, 1, 30, 195, 120, 111, 181, 120, 195, 2, 2.91193
227, 6, bw, filler, NA, 999, 999, 1, 31, 192, 68, 179, 144, 166, 117, 2, 2.05624
227, 6, bw, filler, NA, 999, 999, 1, 31, 192, 68, 179, 144, 166, 117, 1, 0.78813
227, 6, bw, attraction, a-b-da, 5, 2, 1, 32, 161, 88, 165, 90, 90, 165, 3, 2.53058
227, 6, bw, attraction, a-b-da, 5, 2, 1, 32, 161, 88, 165, 90, 90, 165, 2, 1.05179
227, 6, bw, attraction, a-b-da, 2, 1, 1, 33, 134, 59, 135, 60, 60, 135, 1, 2.12733
227, 6, bw, attraction, a-b-da, 2, 1, 1, 33, 134, 59, 135, 60, 60, 135, 2, 4.87277
227, 6, bw, filler, NA, 999, 999, 1, 34, 126, 143, 113, 152, 71, 118, 1, 3.20238
227, 6, bw, filler, NA, 999, 999, 1, 34, 126, 143, 113, 152, 71, 118, 3, 0.55276
227, 6, bw, attraction, a-b-db, 14, 1, 1, 35, 60, 135, 56, 125, 135, 60, 1, 1.17661
227, 6, bw, attraction, a-b-db, 14, 1, 1, 35, 60, 135, 56, 125, 135, 60, 3, 2.10428
227, 6, bw, attraction, a-b-db, 14, 2, 1, 36, 83, 153, 165, 90, 90, 165, 3, 3.05743
227, 6, bw, attraction, a-b-db, 14, 2, 1, 36, 83, 153, 165, 90, 90, 165, 2, 1.48515
227, 6, bw, attraction, a-b-da, 2, 2, 1, 37, 163, 89, 165, 90, 90, 165, 3, 6.71122
227, 6, bw, attraction, a-b-da, 2, 2, 1, 37, 163, 89, 165, 90, 90, 165, 2, 1.15178
227, 6, bw, attraction, a-b-db, 9, 3, 2, 1, 120, 195, 114, 186, 195, 120, 1, 1.48734
227, 6, bw, attraction, a-b-db, 9, 3, 2, 1, 120, 195, 114, 186, 195, 120, 3, 4.65895
227, 6, bw, filler, NA, 999, 999, 2, 2, 143, 149, 130, 162, 117, 184, 3, 4.58886
227, 6, bw, filler, NA, 999, 999, 2, 2, 143, 149, 130, 162, 117, 184, 2, 1.49059
227, 6, bw, filler, NA, 999, 999, 2, 3, 70, 109, 62, 164, 125, 106, 3, 3.82011
227, 6, bw, filler, NA, 999, 999, 2, 3, 70, 109, 62, 164, 125, 106, 1, 1.14542
227, 6, bw, attraction, a-b-da, 5, 3, 2, 4, 120, 195, 195, 120, 190, 117, 1, 1.11303
227, 6, bw, attraction, a-b-da, 5, 3, 2, 4, 120, 195, 195, 120, 190, 117, 3, 0.715329
227, 6, bw, attraction, a-b-db, 14, 3, 2, 5, 120, 195, 195, 120, 111, 181, 1, 2.0765
227, 6, bw, attraction, a-b-db, 14, 3, 2, 5, 120, 195, 195, 120, 111, 181, 3, 0.719662
227, 6, bw, attraction, a-b-da, 9, 3, 2, 6, 195, 120, 186, 114, 120, 195, 3, 1.31285
227, 6, bw, attraction, a-b-da, 9, 3, 2, 6, 195, 120, 186, 114, 120, 195, 1, 0.730917
227, 6, bw, filler, NA, 999, 999, 2, 7, 64, 106, 134, 115, 165, 72, 2, 5.97943
227, 6, bw, filler, NA, 999, 999, 2, 7, 64, 106, 134, 115, 165, 72, 1, 0.961526
227, 6, bw, filler, NA, 999, 999, 2, 8, 90, 179, 104, 103, 188, 159, 3, 1.21647
227, 6, bw, filler, NA, 999, 999, 2, 8, 90, 179, 104, 103, 188, 159, 2, 1.13468
227, 6, bw, attraction, a-b-da, 2, 2, 2, 9, 163, 89, 165, 90, 90, 165, 1, 1.91897
227, 6, bw, attraction, a-b-da, 2, 2, 2, 9, 163, 89, 165, 90, 90, 165, 2, 0.73701
227, 6, bw, attraction, a-b-db, 2, 3, 2, 10, 119, 193, 195, 120, 120, 195, 3, 1.56134
227, 6, bw, attraction, a-b-db, 2, 3, 2, 10, 119, 193, 195, 120, 120, 195, 2, 0.697711
227, 6, bw, attraction, a-b-da, 14, 1, 2, 11, 125, 56, 60, 135, 135, 60, 2, 1.56319
227, 6, bw, attraction, a-b-da, 14, 1, 2, 11, 125, 56, 60, 135, 135, 60, 1, 1.07544
227, 6, bw, attraction, a-b-db, 9, 2, 2, 12, 86, 157, 90, 165, 165, 90, 2, 3.49382
227, 6, bw, attraction, a-b-db, 9, 2, 2, 12, 86, 157, 90, 165, 165, 90, 3, 1.32788
227, 6, bw, attraction, a-b-db, 5, 3, 2, 13, 117, 190, 120, 195, 195, 120, 3, 4.29612
227, 6, bw, attraction, a-b-db, 5, 3, 2, 13, 117, 190, 120, 195, 195, 120, 1, 1.19403
227, 6, bw, attraction, a-b-db, 2, 2, 2, 14, 165, 90, 90, 165, 89, 163, 2, 1.4876
227, 6, bw, attraction, a-b-db, 2, 2, 2, 14, 165, 90, 90, 165, 89, 163, 1, 0.586472
227, 6, bw, filler, NA, 999, 999, 2, 15, 191, 162, 145, 190, 141, 137, 1, 0.832865
227, 6, bw, filler, NA, 999, 999, 2, 15, 191, 162, 145, 190, 141, 137, 3, 2.26267
227, 6, bw, filler, NA, 999, 999, 2, 16, 65, 194, 93, 126, 77, 152, 1, 16.7451
227, 6, bw, filler, NA, 999, 999, 2, 16, 65, 194, 93, 126, 77, 152, 3, 6.45338
227, 6, bw, catch, NA, 999, 999, 2, 17, 123, 192, 99, 96, 156, 99, 1, 4.11122
227, 6, bw, catch, NA, 999, 999, 2, 17, 123, 192, 99, 96, 156, 99, 2, 0.952533
227, 6, bw, filler, NA, 999, 999, 2, 18, 96, 134, 142, 96, 102, 185, 3, 1.2402
227, 6, bw, filler, NA, 999, 999, 2, 18, 96, 134, 142, 96, 102, 185, 1, 1.02111
227, 6, bw, attraction, a-b-da, 9, 1, 2, 19, 135, 60, 129, 57, 60, 135, 3, 2.42602
227, 6, bw, attraction, a-b-da, 9, 1, 2, 19, 135, 60, 129, 57, 60, 135, 2, 2.06325
227, 6, bw, attraction, a-b-da, 14, 2, 2, 20, 90, 165, 153, 83, 165, 90, 1, 2.20993
227, 6, bw, attraction, a-b-da, 14, 2, 2, 20, 90, 165, 153, 83, 165, 90, 2, 0.815815
227, 6, bw, attraction, a-b-da, 14, 3, 2, 21, 181, 111, 195, 120, 120, 195, 2, 2.38085
227, 6, bw, attraction, a-b-da, 14, 3, 2, 21, 181, 111, 195, 120, 120, 195, 1, 0.596056
227, 6, bw, attraction, a-b-db, 5, 2, 2, 22, 88, 161, 165, 90, 90, 165, 3, 1.52183
227, 6, bw, attraction, a-b-db, 5, 2, 2, 22, 88, 161, 165, 90, 90, 165, 1, 1.27529
227, 6, bw, attraction, a-b-db, 14, 1, 2, 23, 60, 135, 135, 60, 56, 125, 1, 2.02955
227, 6, bw, attraction, a-b-db, 14, 1, 2, 23, 60, 135, 135, 60, 56, 125, 3, 0.738853
227, 6, bw, attraction, a-b-db, 5, 1, 2, 24, 58, 132, 135, 60, 60, 135, 3, 0.923357
227, 6, bw, attraction, a-b-db, 5, 1, 2, 24, 58, 132, 135, 60, 60, 135, 1, 0.932946
227, 6, bw, attraction, a-b-db, 9, 1, 2, 25, 57, 129, 60, 135, 135, 60, 2, 3.90137
227, 6, bw, attraction, a-b-db, 9, 1, 2, 25, 57, 129, 60, 135, 135, 60, 1, 1.07935
227, 6, bw, attraction, a-b-da, 9, 2, 2, 26, 165, 90, 90, 165, 157, 86, 2, 2.06565
227, 6, bw, attraction, a-b-da, 9, 2, 2, 26, 165, 90, 90, 165, 157, 86, 3, 2.31766
227, 6, bw, attraction, a-b-da, 2, 1, 2, 27, 60, 135, 134, 59, 135, 60, 1, 1.31007
227, 6, bw, attraction, a-b-da, 2, 1, 2, 27, 60, 135, 134, 59, 135, 60, 2, 3.62436
227, 6, bw, attraction, a-b-da, 5, 1, 2, 28, 132, 58, 135, 60, 60, 135, 3, 1.69984
227, 6, bw, attraction, a-b-da, 5, 1, 2, 28, 132, 58, 135, 60, 60, 135, 2, 0.670618
227, 6, bw, filler, NA, 999, 999, 2, 29, 181, 174, 141, 126, 195, 186, 3, 1.54603
227, 6, bw, filler, NA, 999, 999, 2, 29, 181, 174, 141, 126, 195, 186, 2, 0.650562
227, 6, bw, catch, NA, 999, 999, 2, 30, 91, 164, 170, 145, 118, 77, 2, 1.47832
227, 6, bw, catch, NA, 999, 999, 2, 30, 91, 164, 170, 145, 118, 77, 3, 1.39382
227, 6, bw, attraction, a-b-db, 14, 2, 2, 31, 83, 153, 165, 90, 90, 165, 3, 1.22338
227, 6, bw, attraction, a-b-db, 14, 2, 2, 31, 83, 153, 165, 90, 90, 165, 1, 0.51682
227, 6, bw, catch, NA, 999, 999, 2, 32, 110, 145, 131, 64, 186, 129, 3, 2.10998
227, 6, bw, catch, NA, 999, 999, 2, 32, 110, 145, 131, 64, 186, 129, 2, 0.591972
227, 6, bw, filler, NA, 999, 999, 2, 33, 106, 159, 173, 75, 78, 85, 1, 5.79778
227, 6, bw, filler, NA, 999, 999, 2, 33, 106, 159, 173, 75, 78, 85, 3, 0.723224
227, 6, bw, attraction, a-b-da, 2, 3, 2, 34, 193, 119, 195, 120, 120, 195, 3, 1.0436
227, 6, bw, attraction, a-b-da, 2, 3, 2, 34, 193, 119, 195, 120, 120, 195, 1, 1.10461
227, 6, bw, attraction, a-b-da, 5, 2, 2, 35, 90, 165, 161, 88, 165, 90, 3, 3.24222
227, 6, bw, attraction, a-b-da, 5, 2, 2, 35, 90, 165, 161, 88, 165, 90, 1, 1.09458
227, 6, bw, attraction, a-b-db, 2, 1, 2, 36, 135, 60, 60, 135, 59, 134, 2, 5.24015
227, 6, bw, attraction, a-b-db, 2, 1, 2, 36, 135, 60, 60, 135, 59, 134, 1, 0.43567
227, 6, bw, filler, NA, 999, 999, 2, 37, 80, 159, 104, 185, 99, 177, 2, 2.32021
227, 6, bw, filler, NA, 999, 999, 2, 37, 80, 159, 104, 185, 99, 177, 1, 0.7456
227, 6, bw, filler, NA, 999, 999, 3, 1, 120, 116, 101, 159, 177, 188, 3, 0.641186
227, 6, bw, filler, NA, 999, 999, 3, 1, 120, 116, 101, 159, 177, 188, 1, 1.7343
227, 6, bw, attraction, a-b-da, 5, 3, 3, 2, 120, 195, 190, 117, 195, 120, 1, 1.63835
227, 6, bw, attraction, a-b-da, 5, 3, 3, 2, 120, 195, 190, 117, 195, 120, 3, 0.867142
227, 6, bw, attraction, a-b-db, 2, 3, 3, 3, 119, 193, 120, 195, 195, 120, 1, 1.17421
227, 6, bw, attraction, a-b-db, 2, 3, 3, 3, 119, 193, 120, 195, 195, 120, 3, 0.597719
227, 6, bw, catch, NA, 999, 999, 3, 4, 90, 165, 131, 184, 98, 97, 2, 0.891477
227, 6, bw, catch, NA, 999, 999, 3, 4, 90, 165, 131, 184, 98, 97, 3, 0.974529
227, 6, bw, attraction, a-b-da, 5, 1, 3, 5, 60, 135, 135, 60, 132, 58, 1, 0.724936
227, 6, bw, attraction, a-b-da, 5, 1, 3, 5, 60, 135, 135, 60, 132, 58, 3, 0.6227
227, 6, bw, attraction, a-b-da, 9, 1, 3, 6, 135, 60, 60, 135, 129, 57, 1, 0.658987
227, 6, bw, attraction, a-b-da, 9, 1, 3, 6, 135, 60, 60, 135, 129, 57, 3, 0.711366
227, 6, bw, attraction, a-b-da, 14, 2, 3, 7, 90, 165, 165, 90, 153, 83, 1, 3.03251
227, 6, bw, attraction, a-b-da, 14, 2, 3, 7, 90, 165, 165, 90, 153, 83, 3, 1.31751
227, 6, bw, filler, NA, 999, 999, 3, 8, 126, 86, 181, 145, 117, 176, 2, 1.67047
227, 6, bw, filler, NA, 999, 999, 3, 8, 126, 86, 181, 145, 117, 176, 1, 0.810464
227, 6, bw, attraction, a-b-da, 2, 1, 3, 9, 134, 59, 135, 60, 60, 135, 2, 0.77551
227, 6, bw, attraction, a-b-da, 2, 1, 3, 9, 134, 59, 135, 60, 60, 135, 1, 1.30317
227, 6, bw, attraction, a-b-da, 2, 2, 3, 10, 163, 89, 165, 90, 90, 165, 3, 1.81689
227, 6, bw, attraction, a-b-da, 2, 2, 3, 10, 163, 89, 165, 90, 90, 165, 1, 1.15893
227, 6, bw, filler, NA, 999, 999, 3, 11, 152, 104, 185, 178, 148, 115, 2, 0.597691
227, 6, bw, filler, NA, 999, 999, 3, 11, 152, 104, 185, 178, 148, 115, 3, 3.70899
227, 6, bw, attraction, a-b-db, 14, 1, 3, 12, 60, 135, 135, 60, 56, 125, 1, 2.34096
227, 6, bw, attraction, a-b-db, 14, 1, 3, 12, 60, 135, 135, 60, 56, 125, 3, 0.86158
227, 6, bw, attraction, a-b-da, 14, 1, 3, 13, 125, 56, 60, 135, 135, 60, 2, 1.44853
227, 6, bw, attraction, a-b-da, 14, 1, 3, 13, 125, 56, 60, 135, 135, 60, 1, 1.06936
227, 6, bw, attraction, a-b-da, 5, 2, 3, 14, 161, 88, 165, 90, 90, 165, 1, 1.20554
227, 6, bw, attraction, a-b-da, 5, 2, 3, 14, 161, 88, 165, 90, 90, 165, 2, 2.79876
227, 6, bw, attraction, a-b-db, 5, 2, 3, 15, 88, 161, 165, 90, 90, 165, 3, 1.73173
227, 6, bw, attraction, a-b-db, 5, 2, 3, 15, 88, 161, 165, 90, 90, 165, 1, 0.901034
227, 6, bw, attraction, a-b-db, 9, 2, 3, 16, 90, 165, 165, 90, 86, 157, 1, 1.45481
227, 6, bw, attraction, a-b-db, 9, 2, 3, 16, 90, 165, 165, 90, 86, 157, 3, 1.09906
227, 6, bw, attraction, a-b-da, 14, 3, 3, 17, 181, 111, 195, 120, 120, 195, 3, 1.49257
227, 6, bw, attraction, a-b-da, 14, 3, 3, 17, 181, 111, 195, 120, 120, 195, 1, 1.39946
227, 6, bw, attraction, a-b-db, 5, 3, 3, 18, 117, 190, 120, 195, 195, 120, 2, 3.1649
227, 6, bw, attraction, a-b-db, 5, 3, 3, 18, 117, 190, 120, 195, 195, 120, 1, 1.09267
227, 6, bw, filler, NA, 999, 999, 3, 19, 84, 59, 65, 59, 119, 64, 3, 1.13415
227, 6, bw, filler, NA, 999, 999, 3, 19, 84, 59, 65, 59, 119, 64, 2, 0.887832
227, 6, bw, attraction, a-b-db, 9, 1, 3, 20, 57, 129, 135, 60, 60, 135, 1, 0.706057
227, 6, bw, attraction, a-b-db, 9, 1, 3, 20, 57, 129, 135, 60, 60, 135, 2, 1.06874
227, 6, bw, attraction, a-b-da, 9, 2, 3, 21, 165, 90, 90, 165, 157, 86, 2, 3.15142
227, 6, bw, attraction, a-b-da, 9, 2, 3, 21, 165, 90, 90, 165, 157, 86, 3, 1.0158
227, 6, bw, filler, NA, 999, 999, 3, 22, 163, 81, 166, 103, 100, 182, 2, 2.5728
227, 6, bw, filler, NA, 999, 999, 3, 22, 163, 81, 166, 103, 100, 182, 1, 0.98793
227, 6, bw, attraction, a-b-db, 14, 3, 3, 23, 195, 120, 111, 181, 120, 195, 3, 3.36219
227, 6, bw, attraction, a-b-db, 14, 3, 3, 23, 195, 120, 111, 181, 120, 195, 1, 2.24995
227, 6, bw, filler, NA, 999, 999, 3, 24, 173, 180, 155, 141, 139, 189, 1, 13.9811
227, 6, bw, filler, NA, 999, 999, 3, 24, 173, 180, 155, 141, 139, 189, 2, 2.25664
227, 6, bw, attraction, a-b-db, 5, 1, 3, 25, 135, 60, 58, 132, 60, 135, 3, 2.63528
227, 6, bw, attraction, a-b-db, 5, 1, 3, 25, 135, 60, 58, 132, 60, 135, 1, 3.83237
227, 6, bw, attraction, a-b-da, 9, 3, 3, 26, 186, 114, 120, 195, 195, 120, 2, 2.16371
227, 6, bw, attraction, a-b-da, 9, 3, 3, 26, 186, 114, 120, 195, 195, 120, 1, 1.24373
227, 6, bw, attraction, a-b-db, 2, 1, 3, 27, 59, 134, 60, 135, 135, 60, 1, 1.2152
227, 6, bw, attraction, a-b-db, 2, 1, 3, 27, 59, 134, 60, 135, 135, 60, 3, 2.48555
227, 6, bw, filler, NA, 999, 999, 3, 28, 121, 59, 94, 103, 105, 146, 3, 1.86337
227, 6, bw, filler, NA, 999, 999, 3, 28, 121, 59, 94, 103, 105, 146, 1, 1.97955
227, 6, bw, filler, NA, 999, 999, 3, 29, 156, 177, 162, 189, 66, 83, 2, 2.72151
227, 6, bw, filler, NA, 999, 999, 3, 29, 156, 177, 162, 189, 66, 83, 3, 1.05049
227, 6, bw, attraction, a-b-db, 14, 2, 3, 30, 90, 165, 83, 153, 165, 90, 1, 1.39012
227, 6, bw, attraction, a-b-db, 14, 2, 3, 30, 90, 165, 83, 153, 165, 90, 3, 1.44506
227, 6, bw, attraction, a-b-db, 9, 3, 3, 31, 195, 120, 114, 186, 120, 195, 2, 1.64849
227, 6, bw, attraction, a-b-db, 9, 3, 3, 31, 195, 120, 114, 186, 120, 195, 1, 2.45336
227, 6, bw, catch, NA, 999, 999, 3, 32, 106, 149, 158, 157, 123, 72, 2, 1.22456
227, 6, bw, catch, NA, 999, 999, 3, 32, 106, 149, 158, 157, 123, 72, 3, 0.822239
227, 6, bw, filler, NA, 999, 999, 3, 33, 182, 139, 85, 151, 185, 125, 1, 1.17119
227, 6, bw, filler, NA, 999, 999, 3, 33, 182, 139, 85, 151, 185, 125, 2, 0.682697
227, 6, bw, filler, NA, 999, 999, 3, 34, 163, 191, 70, 148, 79, 141, 1, 0.805014
227, 6, bw, filler, NA, 999, 999, 3, 34, 163, 191, 70, 148, 79, 141, 2, 0.811506
227, 6, bw, attraction, a-b-da, 2, 3, 3, 35, 193, 119, 120, 195, 195, 120, 2, 1.99257
227, 6, bw, attraction, a-b-da, 2, 3, 3, 35, 193, 119, 120, 195, 195, 120, 1, 0.7432
227, 6, bw, attraction, a-b-db, 2, 2, 3, 36, 90, 165, 165, 90, 89, 163, 3, 2.47087
227, 6, bw, attraction, a-b-db, 2, 2, 3, 36, 90, 165, 165, 90, 89, 163, 2, 0.842746
227, 6, bw, catch, NA, 999, 999, 3, 37, 141, 174, 125, 70, 108, 147, 1, 0.878479
227, 6, bw, catch, NA, 999, 999, 3, 37, 141, 174, 125, 70, 108, 147, 2, 0.82617
227, 6, bw, attraction, a-b-db, 5, 2, 4, 1, 90, 165, 165, 90, 88, 161, 1, 5.25452
227, 6, bw, attraction, a-b-db, 5, 2, 4, 1, 90, 165, 165, 90, 88, 161, 2, 0.562119
227, 6, bw, attraction, a-b-da, 2, 3, 4, 2, 195, 120, 193, 119, 120, 195, 3, 1.07321
227, 6, bw, attraction, a-b-da, 2, 3, 4, 2, 195, 120, 193, 119, 120, 195, 1, 0.668869
227, 6, bw, attraction, a-b-db, 5, 3, 4, 3, 195, 120, 120, 195, 117, 190, 2, 3.15198
227, 6, bw, attraction, a-b-db, 5, 3, 4, 3, 195, 120, 120, 195, 117, 190, 1, 0.64828
227, 6, bw, catch, NA, 999, 999, 4, 4, 192, 123, 92, 103, 153, 102, 1, 3.88422
227, 6, bw, catch, NA, 999, 999, 4, 4, 192, 123, 92, 103, 153, 102, 2, 0.614766
227, 6, bw, filler, NA, 999, 999, 4, 5, 107, 193, 171, 128, 162, 91, 2, 2.3639
227, 6, bw, filler, NA, 999, 999, 4, 5, 107, 193, 171, 128, 162, 91, 3, 1.54778
227, 6, bw, attraction, a-b-da, 9, 2, 4, 6, 90, 165, 157, 86, 165, 90, 1, 1.28331
227, 6, bw, attraction, a-b-da, 9, 2, 4, 6, 90, 165, 157, 86, 165, 90, 3, 0.558822
227, 6, bw, filler, NA, 999, 999, 4, 7, 157, 148, 128, 109, 61, 133, 1, 0.805894
227, 6, bw, filler, NA, 999, 999, 4, 7, 157, 148, 128, 109, 61, 133, 3, 1.08437
227, 6, bw, filler, NA, 999, 999, 4, 8, 75, 87, 116, 115, 132, 119, 3, 1.67057
227, 6, bw, filler, NA, 999, 999, 4, 8, 75, 87, 116, 115, 132, 119, 1, 0.91473
227, 6, bw, filler, NA, 999, 999, 4, 9, 100, 155, 102, 78, 189, 79, 1, 1.35562
227, 6, bw, filler, NA, 999, 999, 4, 9, 100, 155, 102, 78, 189, 79, 2, 1.01205
227, 6, bw, attraction, a-b-db, 2, 3, 4, 10, 195, 120, 120, 195, 119, 193, 1, 1.20084
227, 6, bw, attraction, a-b-db, 2, 3, 4, 10, 195, 120, 120, 195, 119, 193, 2, 0.959741
227, 6, bw, attraction, a-b-da, 14, 1, 4, 11, 135, 60, 125, 56, 60, 135, 3, 1.87075
227, 6, bw, attraction, a-b-da, 14, 1, 4, 11, 135, 60, 125, 56, 60, 135, 1, 1.00209
227, 6, bw, attraction, a-b-db, 5, 1, 4, 12, 60, 135, 135, 60, 58, 132, 3, 0.807714
227, 6, bw, attraction, a-b-db, 5, 1, 4, 12, 60, 135, 135, 60, 58, 132, 2, 1.23011
227, 6, bw, attraction, a-b-db, 2, 2, 4, 13, 90, 165, 165, 90, 89, 163, 3, 1.47443
227, 6, bw, attraction, a-b-db, 2, 2, 4, 13, 90, 165, 165, 90, 89, 163, 1, 0.853895
227, 6, bw, attraction, a-b-db, 14, 2, 4, 14, 83, 153, 165, 90, 90, 165, 3, 0.929555
227, 6, bw, attraction, a-b-db, 14, 2, 4, 14, 83, 153, 165, 90, 90, 165, 1, 0.771191
227, 6, bw, attraction, a-b-db, 14, 3, 4, 15, 120, 195, 195, 120, 111, 181, 1, 1.77024
227, 6, bw, attraction, a-b-db, 14, 3, 4, 15, 120, 195, 195, 120, 111, 181, 2, 1.3864
227, 6, bw, attraction, a-b-da, 5, 3, 4, 16, 120, 195, 195, 120, 190, 117, 3, 2.28855
227, 6, bw, attraction, a-b-da, 5, 3, 4, 16, 120, 195, 195, 120, 190, 117, 1, 0.587104
227, 6, bw, attraction, a-b-db, 14, 1, 4, 17, 60, 135, 56, 125, 135, 60, 3, 2.26566
227, 6, bw, attraction, a-b-db, 14, 1, 4, 17, 60, 135, 56, 125, 135, 60, 1, 0.789418
227, 6, bw, filler, NA, 999, 999, 4, 18, 174, 189, 87, 113, 90, 68, 1, 0.819886
227, 6, bw, filler, NA, 999, 999, 4, 18, 174, 189, 87, 113, 90, 68, 3, 0.905565
227, 6, bw, filler, NA, 999, 999, 4, 19, 151, 185, 112, 170, 127, 61, 1, 1.06725
227, 6, bw, filler, NA, 999, 999, 4, 19, 151, 185, 112, 170, 127, 61, 3, 1.06362
227, 6, bw, catch, NA, 999, 999, 4, 20, 104, 151, 133, 62, 134, 181, 3, 1.07461
227, 6, bw, catch, NA, 999, 999, 4, 20, 104, 151, 133, 62, 134, 181, 2, 0.622091
227, 6, bw, attraction, a-b-da, 9, 1, 4, 21, 129, 57, 60, 135, 135, 60, 3, 2.75532
227, 6, bw, attraction, a-b-da, 9, 1, 4, 21, 129, 57, 60, 135, 135, 60, 1, 0.898973
227, 6, bw, attraction, a-b-db, 9, 2, 4, 22, 90, 165, 165, 90, 86, 157, 1, 0.868604
227, 6, bw, attraction, a-b-db, 9, 2, 4, 22, 90, 165, 165, 90, 86, 157, 3, 0.840978
227, 6, bw, attraction, a-b-db, 2, 1, 4, 23, 135, 60, 60, 135, 59, 134, 1, 2.23682
227, 6, bw, attraction, a-b-db, 2, 1, 4, 23, 135, 60, 60, 135, 59, 134, 3, 1.20995
227, 6, bw, filler, NA, 999, 999, 4, 24, 143, 173, 158, 116, 119, 60, 1, 1.16677
227, 6, bw, filler, NA, 999, 999, 4, 24, 143, 173, 158, 116, 119, 60, 3, 0.927108
227, 6, bw, filler, NA, 999, 999, 4, 25, 166, 139, 187, 105, 95, 67, 1, 0.807428
227, 6, bw, filler, NA, 999, 999, 4, 25, 166, 139, 187, 105, 95, 67, 3, 0.701897
227, 6, bw, attraction, a-b-da, 14, 2, 4, 26, 153, 83, 165, 90, 90, 165, 3, 0.983552
227, 6, bw, attraction, a-b-da, 14, 2, 4, 26, 153, 83, 165, 90, 90, 165, 1, 0.703198
227, 6, bw, catch, NA, 999, 999, 4, 27, 119, 136, 133, 182, 125, 70, 2, 0.880951
227, 6, bw, catch, NA, 999, 999, 4, 27, 119, 136, 133, 182, 125, 70, 3, 0.684654
227, 6, bw, attraction, a-b-da, 14, 3, 4, 28, 181, 111, 120, 195, 195, 120, 3, 1.02306
227, 6, bw, attraction, a-b-da, 14, 3, 4, 28, 181, 111, 120, 195, 195, 120, 1, 0.860646
227, 6, bw, attraction, a-b-db, 9, 3, 4, 29, 114, 186, 195, 120, 120, 195, 3, 1.23985
227, 6, bw, attraction, a-b-db, 9, 3, 4, 29, 114, 186, 195, 120, 120, 195, 1, 1.07664
227, 6, bw, attraction, a-b-db, 9, 1, 4, 30, 135, 60, 60, 135, 57, 129, 3, 2.359
227, 6, bw, attraction, a-b-db, 9, 1, 4, 30, 135, 60, 60, 135, 57, 129, 1, 0.814796
227, 6, bw, attraction, a-b-da, 9, 3, 4, 31, 195, 120, 120, 195, 186, 114, 2, 1.26782
227, 6, bw, attraction, a-b-da, 9, 3, 4, 31, 195, 120, 120, 195, 186, 114, 1, 1.15208
227, 6, bw, attraction, a-b-da, 2, 2, 4, 32, 163, 89, 90, 165, 165, 90, 2, 4.11166
227, 6, bw, attraction, a-b-da, 2, 2, 4, 32, 163, 89, 90, 165, 165, 90, 1, 0.585008
227, 6, bw, attraction, a-b-da, 5, 1, 4, 33, 60, 135, 132, 58, 135, 60, 1, 2.50345
227, 6, bw, attraction, a-b-da, 5, 1, 4, 33, 60, 135, 132, 58, 135, 60, 3, 0.625897
227, 6, bw, filler, NA, 999, 999, 4, 34, 74, 167, 191, 140, 73, 92, 2, 0.998441
227, 6, bw, filler, NA, 999, 999, 4, 34, 74, 167, 191, 140, 73, 92, 3, 0.54138
227, 6, bw, attraction, a-b-da, 5, 2, 4, 35, 161, 88, 90, 165, 165, 90, 1, 0.725075
227, 6, bw, attraction, a-b-da, 5, 2, 4, 35, 161, 88, 90, 165, 165, 90, 2, 0.798805
227, 6, bw, filler, NA, 999, 999, 4, 36, 75, 80, 185, 185, 148, 85, 2, 0.748526
227, 6, bw, filler, NA, 999, 999, 4, 36, 75, 80, 185, 185, 148, 85, 1, 0.533548
227, 6, bw, attraction, a-b-da, 2, 1, 4, 37, 134, 59, 135, 60, 60, 135, 2, 0.942126
227, 6, bw, attraction, a-b-da, 2, 1, 4, 37, 134, 59, 135, 60, 60, 135, 3, 0.831086
227, 6, bw, attraction, a-b-da, 9, 1, 5, 1, 135, 60, 129, 57, 60, 135, 3, 4.28213
227, 6, bw, attraction, a-b-da, 9, 1, 5, 1, 135, 60, 129, 57, 60, 135, 2, 0.812692
227, 6, bw, attraction, a-b-da, 14, 2, 5, 2, 90, 165, 165, 90, 153, 83, 1, 0.857712
227, 6, bw, attraction, a-b-da, 14, 2, 5, 2, 90, 165, 165, 90, 153, 83, 3, 1.12609
227, 6, bw, attraction, a-b-db, 5, 3, 5, 3, 195, 120, 120, 195, 117, 190, 2, 1.19038
227, 6, bw, attraction, a-b-db, 5, 3, 5, 3, 195, 120, 120, 195, 117, 190, 1, 2.81346
227, 6, bw, attraction, a-b-da, 2, 1, 5, 4, 134, 59, 135, 60, 60, 135, 3, 2.00967
227, 6, bw, attraction, a-b-da, 2, 1, 5, 4, 134, 59, 135, 60, 60, 135, 1, 1.17578
227, 6, bw, attraction, a-b-db, 2, 1, 5, 5, 59, 134, 135, 60, 60, 135, 1, 2.2219
227, 6, bw, attraction, a-b-db, 2, 1, 5, 5, 59, 134, 135, 60, 60, 135, 2, 1.21114
227, 6, bw, attraction, a-b-da, 9, 3, 5, 6, 186, 114, 195, 120, 120, 195, 3, 4.42407
227, 6, bw, attraction, a-b-da, 9, 3, 5, 6, 186, 114, 195, 120, 120, 195, 1, 0.548667
227, 6, bw, filler, NA, 999, 999, 5, 7, 70, 168, 71, 172, 112, 137, 3, 5.18051
227, 6, bw, filler, NA, 999, 999, 5, 7, 70, 168, 71, 172, 112, 137, 1, 1.93087
227, 6, bw, attraction, a-b-da, 5, 1, 5, 8, 132, 58, 60, 135, 135, 60, 2, 1.77889
227, 6, bw, attraction, a-b-da, 5, 1, 5, 8, 132, 58, 60, 135, 135, 60, 1, 1.34622
227, 6, bw, attraction, a-b-db, 14, 3, 5, 9, 120, 195, 195, 120, 111, 181, 1, 0.953773
227, 6, bw, attraction, a-b-db, 14, 3, 5, 9, 120, 195, 195, 120, 111, 181, 2, 1.14606
227, 6, bw, attraction, a-b-db, 14, 2, 5, 10, 90, 165, 83, 153, 165, 90, 1, 0.785666
227, 6, bw, attraction, a-b-db, 14, 2, 5, 10, 90, 165, 83, 153, 165, 90, 3, 0.881449
227, 6, bw, attraction, a-b-da, 14, 3, 5, 11, 195, 120, 181, 111, 120, 195, 3, 1.2837
227, 6, bw, attraction, a-b-da, 14, 3, 5, 11, 195, 120, 181, 111, 120, 195, 2, 1.14341
227, 6, bw, attraction, a-b-db, 14, 1, 5, 12, 60, 135, 135, 60, 56, 125, 1, 1.51101
227, 6, bw, attraction, a-b-db, 14, 1, 5, 12, 60, 135, 135, 60, 56, 125, 2, 0.849004
227, 6, bw, attraction, a-b-db, 9, 2, 5, 13, 165, 90, 90, 165, 86, 157, 1, 0.900747
227, 6, bw, attraction, a-b-db, 9, 2, 5, 13, 165, 90, 90, 165, 86, 157, 2, 2.55984
227, 6, bw, catch, NA, 999, 999, 5, 14, 112, 83, 171, 144, 115, 140, 2, 1.19025
227, 6, bw, catch, NA, 999, 999, 5, 14, 112, 83, 171, 144, 115, 140, 1, 1.43718
227, 6, bw, attraction, a-b-da, 2, 2, 5, 15, 163, 89, 165, 90, 90, 165, 3, 21.5853
227, 6, bw, attraction, a-b-da, 2, 2, 5, 15, 163, 89, 165, 90, 90, 165, 2, 0.730582
227, 6, bw, attraction, a-b-db, 5, 1, 5, 16, 60, 135, 58, 132, 135, 60, 1, 0.80294
227, 6, bw, attraction, a-b-db, 5, 1, 5, 16, 60, 135, 58, 132, 135, 60, 3, 1.06596
227, 6, bw, attraction, a-b-da, 5, 2, 5, 17, 165, 90, 90, 165, 161, 88, 2, 1.15696
227, 6, bw, attraction, a-b-da, 5, 2, 5, 17, 165, 90, 90, 165, 161, 88, 3, 0.597234
227, 6, bw, filler, NA, 999, 999, 5, 18, 149, 163, 181, 138, 172, 156, 3, 1.53895
227, 6, bw, filler, NA, 999, 999, 5, 18, 149, 163, 181, 138, 172, 156, 2, 0.443791
227, 6, bw, filler, NA, 999, 999, 5, 19, 173, 83, 122, 76, 63, 115, 1, 1.66359
227, 6, bw, filler, NA, 999, 999, 5, 19, 173, 83, 122, 76, 63, 115, 2, 1.89172
227, 6, bw, filler, NA, 999, 999, 5, 20, 144, 183, 194, 188, 114, 75, 2, 0.909133
227, 6, bw, filler, NA, 999, 999, 5, 20, 144, 183, 194, 188, 114, 75, 3, 0.655536
227, 6, bw, catch, NA, 999, 999, 5, 21, 99, 156, 115, 80, 153, 162, 3, 1.29114
227, 6, bw, catch, NA, 999, 999, 5, 21, 99, 156, 115, 80, 153, 162, 2, 0.462029
227, 6, bw, filler, NA, 999, 999, 5, 22, 157, 119, 184, 143, 181, 167, 3, 1.44126
227, 6, bw, filler, NA, 999, 999, 5, 22, 157, 119, 184, 143, 181, 167, 1, 1.09407
227, 6, bw, filler, NA, 999, 999, 5, 23, 148, 184, 127, 135, 150, 178, 1, 1.79163
227, 6, bw, filler, NA, 999, 999, 5, 23, 148, 184, 127, 135, 150, 178, 2, 0.518357
227, 6, bw, attraction, a-b-da, 5, 3, 5, 24, 195, 120, 120, 195, 190, 117, 1, 1.01553
227, 6, bw, attraction, a-b-da, 5, 3, 5, 24, 195, 120, 120, 195, 190, 117, 3, 1.03783
227, 6, bw, attraction, a-b-db, 9, 1, 5, 25, 57, 129, 135, 60, 60, 135, 3, 1.18606
227, 6, bw, attraction, a-b-db, 9, 1, 5, 25, 57, 129, 135, 60, 60, 135, 2, 0.969687
227, 6, bw, filler, NA, 999, 999, 5, 26, 63, 138, 150, 106, 106, 162, 3, 1.85669
227, 6, bw, filler, NA, 999, 999, 5, 26, 63, 138, 150, 106, 106, 162, 1, 0.884722
227, 6, bw, attraction, a-b-da, 9, 2, 5, 27, 90, 165, 165, 90, 157, 86, 1, 2.94314
227, 6, bw, attraction, a-b-da, 9, 2, 5, 27, 90, 165, 165, 90, 157, 86, 3, 0.999457
227, 6, bw, attraction, a-b-da, 14, 1, 5, 28, 135, 60, 125, 56, 60, 135, 1, 1.7651
227, 6, bw, attraction, a-b-da, 14, 1, 5, 28, 135, 60, 125, 56, 60, 135, 2, 2.3812
227, 6, bw, filler, NA, 999, 999, 5, 29, 93, 166, 141, 166, 156, 184, 3, 0.811039
227, 6, bw, filler, NA, 999, 999, 5, 29, 93, 166, 141, 166, 156, 184, 1, 0.801497
227, 6, bw, filler, NA, 999, 999, 5, 30, 173, 165, 143, 162, 146, 128, 1, 0.927052
227, 6, bw, filler, NA, 999, 999, 5, 30, 173, 165, 143, 162, 146, 128, 3, 0.648801
227, 6, bw, catch, NA, 999, 999, 5, 31, 122, 73, 195, 120, 162, 93, 2, 1.35649
227, 6, bw, catch, NA, 999, 999, 5, 31, 122, 73, 195, 120, 162, 93, 1, 0.684774
227, 6, bw, attraction, a-b-db, 2, 3, 5, 32, 119, 193, 195, 120, 120, 195, 1, 1.66314
227, 6, bw, attraction, a-b-db, 2, 3, 5, 32, 119, 193, 195, 120, 120, 195, 2, 0.963381
227, 6, bw, attraction, a-b-da, 2, 3, 5, 33, 195, 120, 193, 119, 120, 195, 3, 1.17824
227, 6, bw, attraction, a-b-da, 2, 3, 5, 33, 195, 120, 193, 119, 120, 195, 1, 1.36986
227, 6, bw, attraction, a-b-db, 2, 2, 5, 34, 165, 90, 89, 163, 90, 165, 1, 1.42481
227, 6, bw, attraction, a-b-db, 2, 2, 5, 34, 165, 90, 89, 163, 90, 165, 2, 0.814216
227, 6, bw, attraction, a-b-db, 9, 3, 5, 35, 195, 120, 114, 186, 120, 195, 1, 1.55523
227, 6, bw, attraction, a-b-db, 9, 3, 5, 35, 195, 120, 114, 186, 120, 195, 2, 2.48357
227, 6, bw, filler, NA, 999, 999, 5, 36, 188, 152, 191, 131, 91, 194, 1, 0.813223
227, 6, bw, filler, NA, 999, 999, 5, 36, 188, 152, 191, 131, 91, 194, 3, 0.635649
227, 6, bw, attraction, a-b-db, 5, 2, 5, 37, 165, 90, 88, 161, 90, 165, 1, 1.20817
227, 6, bw, attraction, a-b-db, 5, 2, 5, 37, 165, 90, 88, 161, 90, 165, 2, 0.534362
227, 6, bw, attraction, a-b-db, 5, 2, 6, 1, 165, 90, 90, 165, 88, 161, 1, 0.966742
227, 6, bw, attraction, a-b-db, 5, 2, 6, 1, 165, 90, 90, 165, 88, 161, 3, 1.07917
227, 6, bw, filler, NA, 999, 999, 6, 2, 149, 139, 130, 142, 174, 167, 3, 0.745299
227, 6, bw, filler, NA, 999, 999, 6, 2, 149, 139, 130, 142, 174, 167, 2, 2.15456
227, 6, bw, filler, NA, 999, 999, 6, 3, 122, 189, 95, 76, 186, 108, 1, 2.40165
227, 6, bw, filler, NA, 999, 999, 6, 3, 122, 189, 95, 76, 186, 108, 2, 0.816319
227, 6, bw, attraction, a-b-da, 14, 3, 6, 4, 195, 120, 181, 111, 120, 195, 3, 1.29328
227, 6, bw, attraction, a-b-da, 14, 3, 6, 4, 195, 120, 181, 111, 120, 195, 1, 1.29624
227, 6, bw, attraction, a-b-db, 9, 2, 6, 5, 165, 90, 86, 157, 90, 165, 3, 1.49777
227, 6, bw, attraction, a-b-db, 9, 2, 6, 5, 165, 90, 86, 157, 90, 165, 2, 1.9645
227, 6, bw, attraction, a-b-da, 2, 2, 6, 6, 90, 165, 163, 89, 165, 90, 1, 6.29917
227, 6, bw, attraction, a-b-da, 2, 2, 6, 6, 90, 165, 163, 89, 165, 90, 2, 1.10853
227, 6, bw, attraction, a-b-db, 9, 1, 6, 7, 60, 135, 57, 129, 135, 60, 1, 4.0375
227, 6, bw, attraction, a-b-db, 9, 1, 6, 7, 60, 135, 57, 129, 135, 60, 2, 1.90625
227, 6, bw, attraction, a-b-db, 5, 1, 6, 8, 58, 132, 60, 135, 135, 60, 2, 2.97964
227, 6, bw, attraction, a-b-db, 5, 1, 6, 8, 58, 132, 60, 135, 135, 60, 1, 1.77059
227, 6, bw, filler, NA, 999, 999, 6, 9, 58, 143, 73, 194, 150, 65, 2, 1.20929
227, 6, bw, filler, NA, 999, 999, 6, 9, 58, 143, 73, 194, 150, 65, 1, 1.95972
227, 6, bw, attraction, a-b-db, 14, 3, 6, 10, 195, 120, 111, 181, 120, 195, 3, 5.19017
227, 6, bw, attraction, a-b-db, 14, 3, 6, 10, 195, 120, 111, 181, 120, 195, 1, 2.66793
227, 6, bw, attraction, a-b-da, 9, 3, 6, 11, 195, 120, 120, 195, 186, 114, 2, 1.2863
227, 6, bw, attraction, a-b-da, 9, 3, 6, 11, 195, 120, 120, 195, 186, 114, 3, 2.62595
227, 6, bw, filler, NA, 999, 999, 6, 12, 188, 60, 84, 106, 188, 101, 3, 2.25375
227, 6, bw, filler, NA, 999, 999, 6, 12, 188, 60, 84, 106, 188, 101, 2, 1.74575
227, 6, bw, filler, NA, 999, 999, 6, 13, 71, 138, 115, 142, 116, 138, 2, 2.02504
227, 6, bw, filler, NA, 999, 999, 6, 13, 71, 138, 115, 142, 116, 138, 1, 1.3104
227, 6, bw, attraction, a-b-da, 9, 1, 6, 14, 135, 60, 60, 135, 129, 57, 1, 1.86324
227, 6, bw, attraction, a-b-da, 9, 1, 6, 14, 135, 60, 60, 135, 129, 57, 3, 1.32325
227, 6, bw, attraction, a-b-db, 2, 1, 6, 15, 60, 135, 135, 60, 59, 134, 1, 3.29156
227, 6, bw, attraction, a-b-db, 2, 1, 6, 15, 60, 135, 135, 60, 59, 134, 3, 0.813792
227, 6, bw, attraction, a-b-da, 2, 3, 6, 16, 193, 119, 120, 195, 195, 120, 2, 4.01883
227, 6, bw, attraction, a-b-da, 2, 3, 6, 16, 193, 119, 120, 195, 195, 120, 3, 2.56819
227, 6, bw, attraction, a-b-da, 5, 1, 6, 17, 135, 60, 60, 135, 132, 58, 1, 1.58269
227, 6, bw, attraction, a-b-da, 5, 1, 6, 17, 135, 60, 60, 135, 132, 58, 3, 0.774046
227, 6, bw, attraction, a-b-da, 2, 1, 6, 18, 60, 135, 134, 59, 135, 60, 1, 4.42852
227, 6, bw, attraction, a-b-da, 2, 1, 6, 18, 60, 135, 134, 59, 135, 60, 3, 0.673153
227, 6, bw, catch, NA, 999, 999, 6, 19, 91, 164, 131, 64, 153, 162, 3, 0.69941
227, 6, bw, catch, NA, 999, 999, 6, 19, 91, 164, 131, 64, 153, 162, 2, 0.430578
227, 6, bw, filler, NA, 999, 999, 6, 20, 109, 170, 189, 136, 70, 71, 2, 0.986967
227, 6, bw, filler, NA, 999, 999, 6, 20, 109, 170, 189, 136, 70, 71, 3, 0.393986
227, 6, bw, catch, NA, 999, 999, 6, 21, 163, 92, 195, 120, 66, 129, 2, 0.887789
227, 6, bw, catch, NA, 999, 999, 6, 21, 163, 92, 195, 120, 66, 129, 3, 0.386844
227, 6, bw, attraction, a-b-da, 5, 2, 6, 22, 165, 90, 161, 88, 90, 165, 3, 4.18541
227, 6, bw, attraction, a-b-da, 5, 2, 6, 22, 165, 90, 161, 88, 90, 165, 1, 3.10405
227, 6, bw, filler, NA, 999, 999, 6, 23, 168, 145, 141, 121, 98, 170, 1, 1.08902
227, 6, bw, filler, NA, 999, 999, 6, 23, 168, 145, 141, 121, 98, 170, 2, 1.9239
227, 6, bw, attraction, a-b-da, 14, 2, 6, 24, 153, 83, 90, 165, 165, 90, 2, 11.276
227, 6, bw, attraction, a-b-da, 14, 2, 6, 24, 153, 83, 90, 165, 165, 90, 1, 1.28442
227, 6, bw, attraction, a-b-db, 2, 3, 6, 25, 120, 195, 195, 120, 119, 193, 1, 2.16661
227, 6, bw, attraction, a-b-db, 2, 3, 6, 25, 120, 195, 195, 120, 119, 193, 3, 0.390532
227, 6, bw, attraction, a-b-db, 5, 3, 6, 26, 117, 190, 195, 120, 120, 195, 1, 2.28437
227, 6, bw, attraction, a-b-db, 5, 3, 6, 26, 117, 190, 195, 120, 120, 195, 3, 1.13576
227, 6, bw, attraction, a-b-da, 14, 1, 6, 27, 125, 56, 135, 60, 60, 135, 3, 1.31997
227, 6, bw, attraction, a-b-da, 14, 1, 6, 27, 125, 56, 135, 60, 60, 135, 1, 0.994176
227, 6, bw, attraction, a-b-db, 14, 2, 6, 28, 90, 165, 83, 153, 165, 90, 1, 0.991889
227, 6, bw, attraction, a-b-db, 14, 2, 6, 28, 90, 165, 83, 153, 165, 90, 3, 1.08678
227, 6, bw, catch, NA, 999, 999, 6, 29, 105, 90, 166, 149, 157, 98, 2, 0.833005
227, 6, bw, catch, NA, 999, 999, 6, 29, 105, 90, 166, 149, 157, 98, 1, 1.06279
227, 6, bw, attraction, a-b-db, 14, 1, 6, 30, 56, 125, 60, 135, 135, 60, 2, 0.841762
227, 6, bw, attraction, a-b-db, 14, 1, 6, 30, 56, 125, 60, 135, 135, 60, 1, 1.47073
227, 6, bw, filler, NA, 999, 999, 6, 31, 120, 117, 159, 128, 119, 145, 2, 0.961502
227, 6, bw, filler, NA, 999, 999, 6, 31, 120, 117, 159, 128, 119, 145, 1, 1.77796
227, 6, bw, attraction, a-b-da, 5, 3, 6, 32, 190, 117, 195, 120, 120, 195, 2, 4.15196
227, 6, bw, attraction, a-b-da, 5, 3, 6, 32, 190, 117, 195, 120, 120, 195, 1, 2.08808
227, 6, bw, attraction, a-b-db, 9, 3, 6, 33, 120, 195, 114, 186, 195, 120, 2, 2.90589
227, 6, bw, attraction, a-b-db, 9, 3, 6, 33, 120, 195, 114, 186, 195, 120, 1, 2.86772
227, 6, bw, filler, NA, 999, 999, 6, 34, 184, 76, 91, 177, 171, 114, 3, 1.27812
227, 6, bw, filler, NA, 999, 999, 6, 34, 184, 76, 91, 177, 171, 114, 1, 0.665681
227, 6, bw, filler, NA, 999, 999, 6, 35, 145, 85, 96, 89, 119, 187, 3, 0.932678
227, 6, bw, filler, NA, 999, 999, 6, 35, 145, 85, 96, 89, 119, 187, 2, 0.862394
227, 6, bw, attraction, a-b-db, 2, 2, 6, 36, 90, 165, 89, 163, 165, 90, 2, 2.64931
227, 6, bw, attraction, a-b-db, 2, 2, 6, 36, 90, 165, 89, 163, 165, 90, 3, 2.32597
227, 6, bw, attraction, a-b-da, 9, 2, 6, 37, 165, 90, 157, 86, 90, 165, 3, 5.58171
227, 6, bw, attraction, a-b-da, 9, 2, 6, 37, 165, 90, 157, 86, 90, 165, 2, 0.84403
227, 6, bw, filler, NA, 999, 999, 7, 1, 116, 114, 99, 166, 194, 170, 3, 0.767536
227, 6, bw, filler, NA, 999, 999, 7, 1, 116, 114, 99, 166, 194, 170, 1, 2.51209
227, 6, bw, attraction, a-b-db, 5, 2, 7, 2, 90, 165, 165, 90, 88, 161, 1, 1.60061
227, 6, bw, attraction, a-b-db, 5, 2, 7, 2, 90, 165, 165, 90, 88, 161, 2, 3.3753
227, 6, bw, attraction, a-b-db, 2, 3, 7, 3, 119, 193, 120, 195, 195, 120, 2, 4.16505
227, 6, bw, attraction, a-b-db, 2, 3, 7, 3, 119, 193, 120, 195, 195, 120, 3, 2.01232
227, 6, bw, attraction, a-b-da, 2, 2, 7, 4, 163, 89, 165, 90, 90, 165, 3, 2.33688
227, 6, bw, attraction, a-b-da, 2, 2, 7, 4, 163, 89, 165, 90, 90, 165, 2, 1.16946
227, 6, bw, filler, NA, 999, 999, 7, 5, 81, 110, 150, 171, 195, 158, 3, 2.72842
227, 6, bw, filler, NA, 999, 999, 7, 5, 81, 110, 150, 171, 195, 158, 1, 1.22553
227, 6, bw, attraction, a-b-db, 9, 1, 7, 6, 57, 129, 60, 135, 135, 60, 2, 2.06168
227, 6, bw, attraction, a-b-db, 9, 1, 7, 6, 57, 129, 60, 135, 135, 60, 3, 0.969766
227, 6, bw, catch, NA, 999, 999, 7, 7, 124, 191, 107, 88, 143, 112, 1, 1.28059
227, 6, bw, catch, NA, 999, 999, 7, 7, 124, 191, 107, 88, 143, 112, 2, 1.58022
227, 6, bw, attraction, a-b-db, 9, 2, 7, 8, 86, 157, 90, 165, 165, 90, 2, 2.31441
227, 6, bw, attraction, a-b-db, 9, 2, 7, 8, 86, 157, 90, 165, 165, 90, 3, 0.860276
227, 6, bw, attraction, a-b-da, 14, 3, 7, 9, 181, 111, 120, 195, 195, 120, 1, 0.495324
227, 6, bw, attraction, a-b-da, 14, 3, 7, 9, 181, 111, 120, 195, 195, 120, 2, 2.89047
227, 6, bw, filler, NA, 999, 999, 7, 10, 144, 76, 95, 170, 97, 114, 2, 2.78742
227, 6, bw, filler, NA, 999, 999, 7, 10, 144, 76, 95, 170, 97, 114, 1, 6.14584
227, 6, bw, filler, NA, 999, 999, 7, 11, 71, 101, 128, 164, 101, 103, 2, 0.992005
227, 6, bw, filler, NA, 999, 999, 7, 11, 71, 101, 128, 164, 101, 103, 1, 0.670925
227, 6, bw, filler, NA, 999, 999, 7, 12, 91, 87, 140, 177, 71, 152, 2, 2.57796
227, 6, bw, filler, NA, 999, 999, 7, 12, 91, 87, 140, 177, 71, 152, 1, 2.43311
227, 6, bw, attraction, a-b-db, 9, 3, 7, 13, 120, 195, 114, 186, 195, 120, 1, 1.96509
227, 6, bw, attraction, a-b-db, 9, 3, 7, 13, 120, 195, 114, 186, 195, 120, 3, 2.74914
227, 6, bw, filler, NA, 999, 999, 7, 14, 186, 195, 114, 139, 104, 117, 1, 1.34009
227, 6, bw, filler, NA, 999, 999, 7, 14, 186, 195, 114, 139, 104, 117, 3, 1.24498
227, 6, bw, attraction, a-b-db, 14, 2, 7, 15, 90, 165, 83, 153, 165, 90, 3, 13.5205
227, 6, bw, attraction, a-b-db, 14, 2, 7, 15, 90, 165, 83, 153, 165, 90, 2, 1.07096
227, 6, bw, catch, NA, 999, 999, 7, 16, 191, 124, 93, 162, 85, 110, 1, 1.11392
227, 6, bw, catch, NA, 999, 999, 7, 16, 191, 124, 93, 162, 85, 110, 3, 0.604209
227, 6, bw, attraction, a-b-da, 14, 1, 7, 17, 60, 135, 125, 56, 135, 60, 1, 2.51396
227, 6, bw, attraction, a-b-da, 14, 1, 7, 17, 60, 135, 125, 56, 135, 60, 2, 2.09199
227, 6, bw, filler, NA, 999, 999, 7, 18, 164, 189, 60, 62, 90, 97, 1, 1.14104
227, 6, bw, filler, NA, 999, 999, 7, 18, 164, 189, 60, 62, 90, 97, 2, 0.598153
227, 6, bw, attraction, a-b-da, 2, 3, 7, 19, 193, 119, 195, 120, 120, 195, 3, 13.6597
227, 6, bw, attraction, a-b-da, 2, 3, 7, 19, 193, 119, 195, 120, 120, 195, 2, 0.852337
227, 6, bw, attraction, a-b-db, 14, 1, 7, 20, 135, 60, 56, 125, 60, 135, 1, 2.52786
227, 6, bw, attraction, a-b-db, 14, 1, 7, 20, 135, 60, 56, 125, 60, 135, 2, 1.00896
227, 6, bw, filler, NA, 999, 999, 7, 21, 102, 75, 73, 66, 79, 89, 1, 3.09407
227, 6, bw, filler, NA, 999, 999, 7, 21, 102, 75, 73, 66, 79, 89, 2, 0.512414
227, 6, bw, catch, NA, 999, 999, 7, 22, 143, 112, 160, 155, 110, 85, 2, 1.22556
227, 6, bw, catch, NA, 999, 999, 7, 22, 143, 112, 160, 155, 110, 85, 3, 3.29511
227, 6, bw, attraction, a-b-da, 5, 2, 7, 23, 161, 88, 90, 165, 165, 90, 3, 2.63997
227, 6, bw, attraction, a-b-da, 5, 2, 7, 23, 161, 88, 90, 165, 165, 90, 1, 1.54042
227, 6, bw, attraction, a-b-da, 5, 3, 7, 24, 190, 117, 120, 195, 195, 120, 2, 5.84395
227, 6, bw, attraction, a-b-da, 5, 3, 7, 24, 190, 117, 120, 195, 195, 120, 1, 1.26335
227, 6, bw, filler, NA, 999, 999, 7, 25, 166, 101, 151, 90, 167, 82, 1, 2.07436
227, 6, bw, filler, NA, 999, 999, 7, 25, 166, 101, 151, 90, 167, 82, 3, 0.933518
227, 6, bw, attraction, a-b-db, 5, 1, 7, 26, 58, 132, 135, 60, 60, 135, 3, 1.86987
227, 6, bw, attraction, a-b-db, 5, 1, 7, 26, 58, 132, 135, 60, 60, 135, 2, 1.78601
227, 6, bw, attraction, a-b-da, 5, 1, 7, 27, 132, 58, 60, 135, 135, 60, 2, 4.58392
227, 6, bw, attraction, a-b-da, 5, 1, 7, 27, 132, 58, 60, 135, 135, 60, 1, 2.8625
227, 6, bw, attraction, a-b-da, 14, 2, 7, 28, 165, 90, 153, 83, 90, 165, 1, 1.40888
227, 6, bw, attraction, a-b-da, 14, 2, 7, 28, 165, 90, 153, 83, 90, 165, 2, 0.959058
227, 6, bw, attraction, a-b-da, 2, 1, 7, 29, 135, 60, 60, 135, 134, 59, 1, 2.63007
227, 6, bw, attraction, a-b-da, 2, 1, 7, 29, 135, 60, 60, 135, 134, 59, 3, 0.643261
227, 6, bw, attraction, a-b-da, 9, 1, 7, 30, 129, 57, 135, 60, 60, 135, 3, 4.07901
227, 6, bw, attraction, a-b-da, 9, 1, 7, 30, 129, 57, 135, 60, 60, 135, 1, 0.705621
227, 6, bw, attraction, a-b-db, 14, 3, 7, 31, 111, 181, 120, 195, 195, 120, 2, 1.60349
227, 6, bw, attraction, a-b-db, 14, 3, 7, 31, 111, 181, 120, 195, 195, 120, 1, 3.25024
227, 6, bw, attraction, a-b-da, 9, 2, 7, 32, 165, 90, 157, 86, 90, 165, 1, 3.41315
227, 6, bw, attraction, a-b-da, 9, 2, 7, 32, 165, 90, 157, 86, 90, 165, 2, 0.826612
227, 6, bw, filler, NA, 999, 999, 7, 33, 66, 163, 184, 90, 74, 120, 2, 1.28699
227, 6, bw, filler, NA, 999, 999, 7, 33, 66, 163, 184, 90, 74, 120, 3, 2.05069
227, 6, bw, attraction, a-b-da, 9, 3, 7, 34, 195, 120, 120, 195, 186, 114, 1, 10.3259
227, 6, bw, attraction, a-b-da, 9, 3, 7, 34, 195, 120, 120, 195, 186, 114, 3, 0.940597
227, 6, bw, attraction, a-b-db, 2, 1, 7, 35, 60, 135, 59, 134, 135, 60, 3, 2.67636
227, 6, bw, attraction, a-b-db, 2, 1, 7, 35, 60, 135, 59, 134, 135, 60, 1, 0.695437
227, 6, bw, attraction, a-b-db, 5, 3, 7, 36, 195, 120, 120, 195, 117, 190, 2, 5.27317
227, 6, bw, attraction, a-b-db, 5, 3, 7, 36, 195, 120, 120, 195, 117, 190, 3, 1.21147
227, 6, bw, attraction, a-b-db, 2, 2, 7, 37, 89, 163, 90, 165, 165, 90, 2, 2.60835
227, 6, bw, attraction, a-b-db, 2, 2, 7, 37, 89, 163, 90, 165, 165, 90, 1, 3.83821
227, 6, bw, attraction, a-b-db, 5, 2, 8, 1, 88, 161, 165, 90, 90, 165, 3, 1.39358
227, 6, bw, attraction, a-b-db, 5, 2, 8, 1, 88, 161, 165, 90, 90, 165, 1, 0.688557
227, 6, bw, filler, NA, 999, 999, 8, 2, 71, 185, 67, 175, 165, 108, 3, 17.3469
227, 6, bw, filler, NA, 999, 999, 8, 2, 71, 185, 67, 175, 165, 108, 2, 0.726743
227, 6, bw, catch, NA, 999, 999, 8, 3, 156, 159, 85, 110, 112, 143, 1, 0.775215
227, 6, bw, catch, NA, 999, 999, 8, 3, 156, 159, 85, 110, 112, 143, 2, 0.486864
227, 6, bw, attraction, a-b-da, 5, 2, 8, 4, 90, 165, 161, 88, 165, 90, 3, 1.14532
227, 6, bw, attraction, a-b-da, 5, 2, 8, 4, 90, 165, 161, 88, 165, 90, 1, 1.1223
227, 6, bw, attraction, a-b-db, 5, 1, 8, 5, 60, 135, 58, 132, 135, 60, 2, 1.10723
227, 6, bw, attraction, a-b-db, 5, 1, 8, 5, 60, 135, 58, 132, 135, 60, 1, 1.79754
227, 6, bw, attraction, a-b-db, 9, 1, 8, 6, 57, 129, 60, 135, 135, 60, 2, 0.682823
227, 6, bw, attraction, a-b-db, 9, 1, 8, 6, 57, 129, 60, 135, 135, 60, 1, 1.19869
227, 6, bw, attraction, a-b-da, 9, 2, 8, 7, 165, 90, 90, 165, 157, 86, 2, 0.860184
227, 6, bw, attraction, a-b-da, 9, 2, 8, 7, 165, 90, 90, 165, 157, 86, 3, 2.61661
227, 6, bw, attraction, a-b-da, 5, 1, 8, 8, 135, 60, 60, 135, 132, 58, 1, 1.39713
227, 6, bw, attraction, a-b-da, 5, 1, 8, 8, 135, 60, 60, 135, 132, 58, 2, 0.747915
227, 6, bw, attraction, a-b-da, 5, 3, 8, 9, 195, 120, 190, 117, 120, 195, 3, 3.05968
227, 6, bw, attraction, a-b-da, 5, 3, 8, 9, 195, 120, 190, 117, 120, 195, 2, 1.62331
227, 6, bw, attraction, a-b-da, 2, 1, 8, 10, 60, 135, 135, 60, 134, 59, 1, 1.42751
227, 6, bw, attraction, a-b-da, 2, 1, 8, 10, 60, 135, 135, 60, 134, 59, 2, 0.977001
227, 6, bw, attraction, a-b-db, 2, 3, 8, 11, 120, 195, 119, 193, 195, 120, 2, 3.7353
227, 6, bw, attraction, a-b-db, 2, 3, 8, 11, 120, 195, 119, 193, 195, 120, 3, 1.16802
227, 6, bw, attraction, a-b-db, 14, 1, 8, 12, 56, 125, 135, 60, 60, 135, 3, 1.19087
227, 6, bw, attraction, a-b-db, 14, 1, 8, 12, 56, 125, 135, 60, 60, 135, 2, 0.701863
227, 6, bw, attraction, a-b-db, 14, 3, 8, 13, 195, 120, 111, 181, 120, 195, 1, 1.21563
227, 6, bw, attraction, a-b-db, 14, 3, 8, 13, 195, 120, 111, 181, 120, 195, 2, 1.62189
227, 6, bw, catch, NA, 999, 999, 8, 14, 119, 136, 149, 166, 92, 103, 2, 0.938703
227, 6, bw, catch, NA, 999, 999, 8, 14, 119, 136, 149, 166, 92, 103, 3, 0.467618
227, 6, bw, attraction, a-b-da, 2, 2, 8, 15, 163, 89, 165, 90, 90, 165, 1, 1.67894
227, 6, bw, attraction, a-b-da, 2, 2, 8, 15, 163, 89, 165, 90, 90, 165, 3, 0.762183
227, 6, bw, filler, NA, 999, 999, 8, 16, 84, 142, 154, 110, 145, 138, 3, 0.93735
227, 6, bw, filler, NA, 999, 999, 8, 16, 84, 142, 154, 110, 145, 138, 1, 0.674428
227, 6, bw, attraction, a-b-da, 9, 3, 8, 17, 120, 195, 195, 120, 186, 114, 1, 4.2206
227, 6, bw, attraction, a-b-da, 9, 3, 8, 17, 120, 195, 195, 120, 186, 114, 3, 1.08993
227, 6, bw, filler, NA, 999, 999, 8, 18, 101, 151, 147, 178, 104, 175, 2, 1.46754
227, 6, bw, filler, NA, 999, 999, 8, 18, 101, 151, 147, 178, 104, 175, 1, 0.463735
227, 6, bw, filler, NA, 999, 999, 8, 19, 133, 120, 125, 182, 150, 116, 2, 2.13095
227, 6, bw, filler, NA, 999, 999, 8, 19, 133, 120, 125, 182, 150, 116, 1, 0.644162
227, 6, bw, filler, NA, 999, 999, 8, 20, 71, 131, 110, 60, 187, 185, 3, 0.687907
227, 6, bw, filler, NA, 999, 999, 8, 20, 71, 131, 110, 60, 187, 185, 2, 0.467025
227, 6, bw, filler, NA, 999, 999, 8, 21, 184, 169, 57, 96, 114, 127, 1, 0.718106
227, 6, bw, filler, NA, 999, 999, 8, 21, 184, 169, 57, 96, 114, 127, 2, 0.488538
227, 6, bw, attraction, a-b-db, 5, 3, 8, 22, 120, 195, 195, 120, 117, 190, 3, 2.09912
227, 6, bw, attraction, a-b-db, 5, 3, 8, 22, 120, 195, 195, 120, 117, 190, 1, 0.997615
227, 6, bw, attraction, a-b-da, 9, 1, 8, 23, 135, 60, 129, 57, 60, 135, 3, 1.31523
227, 6, bw, attraction, a-b-da, 9, 1, 8, 23, 135, 60, 129, 57, 60, 135, 2, 1.58149
227, 6, bw, filler, NA, 999, 999, 8, 24, 177, 70, 111, 143, 148, 131, 3, 1.90759
227, 6, bw, filler, NA, 999, 999, 8, 24, 177, 70, 111, 143, 148, 131, 1, 2.8939
227, 6, bw, attraction, a-b-da, 2, 3, 8, 25, 193, 119, 120, 195, 195, 120, 3, 2.45479
227, 6, bw, attraction, a-b-da, 2, 3, 8, 25, 193, 119, 120, 195, 195, 120, 1, 2.55466
227, 6, bw, filler, NA, 999, 999, 8, 26, 126, 108, 67, 83, 84, 188, 3, 9.36977
227, 6, bw, filler, NA, 999, 999, 8, 26, 126, 108, 67, 83, 84, 188, 2, 1.38354
227, 6, bw, catch, NA, 999, 999, 8, 27, 155, 160, 94, 101, 137, 118, 1, 0.981646
227, 6, bw, catch, NA, 999, 999, 8, 27, 155, 160, 94, 101, 137, 118, 2, 0.653446
227, 6, bw, attraction, a-b-db, 2, 1, 8, 28, 59, 134, 135, 60, 60, 135, 2, 3.41706
227, 6, bw, attraction, a-b-db, 2, 1, 8, 28, 59, 134, 135, 60, 60, 135, 3, 2.16662
227, 6, bw, attraction, a-b-db, 9, 2, 8, 29, 90, 165, 86, 157, 165, 90, 2, 4.50125
227, 6, bw, attraction, a-b-db, 9, 2, 8, 29, 90, 165, 86, 157, 165, 90, 1, 1.94315
227, 6, bw, filler, NA, 999, 999, 8, 30, 165, 107, 142, 76, 80, 159, 1, 2.59035
227, 6, bw, filler, NA, 999, 999, 8, 30, 165, 107, 142, 76, 80, 159, 2, 1.37303
227, 6, bw, attraction, a-b-da, 14, 1, 8, 31, 60, 135, 135, 60, 125, 56, 2, 5.81932
227, 6, bw, attraction, a-b-da, 14, 1, 8, 31, 60, 135, 135, 60, 125, 56, 3, 0.767981
227, 6, bw, filler, NA, 999, 999, 8, 32, 136, 61, 69, 183, 175, 178, 3, 1.23892
227, 6, bw, filler, NA, 999, 999, 8, 32, 136, 61, 69, 183, 175, 178, 1, 0.467884
227, 6, bw, attraction, a-b-db, 2, 2, 8, 33, 165, 90, 90, 165, 89, 163, 1, 3.31908
227, 6, bw, attraction, a-b-db, 2, 2, 8, 33, 165, 90, 90, 165, 89, 163, 3, 0.66461
227, 6, bw, attraction, a-b-db, 9, 3, 8, 34, 114, 186, 120, 195, 195, 120, 2, 1.2757
227, 6, bw, attraction, a-b-db, 9, 3, 8, 34, 114, 186, 120, 195, 195, 120, 1, 1.39145
227, 6, bw, attraction, a-b-db, 14, 2, 8, 35, 90, 165, 165, 90, 83, 153, 1, 2.73287
227, 6, bw, attraction, a-b-db, 14, 2, 8, 35, 90, 165, 165, 90, 83, 153, 3, 0.581925
227, 6, bw, attraction, a-b-da, 14, 3, 8, 36, 195, 120, 181, 111, 120, 195, 3, 1.86835
227, 6, bw, attraction, a-b-da, 14, 3, 8, 36, 195, 120, 181, 111, 120, 195, 2, 1.3765
227, 6, bw, attraction, a-b-da, 14, 2, 8, 37, 153, 83, 90, 165, 165, 90, 2, 1.28649
227, 6, bw, attraction, a-b-da, 14, 2, 8, 37, 153, 83, 90, 165, 165, 90, 1, 0.610078
