sub_n, computer_n, bw_cond, effect, set, distance, diag, block_n, trial_n, h1, w1, h2, w2, h3, w3, choice, rt 
246, 6, wb, practice, NA, 999, 999, 0, 1, 94, 188, 184, 130, 101, 139, 3, 8.55785
246, 6, wb, practice, NA, 999, 999, 0, 1, 94, 188, 184, 130, 101, 139, 2, 1.68323
246, 6, wb, practice, NA, 999, 999, 0, 2, 97, 137, 193, 116, 98, 96, 3, 2.50159
246, 6, wb, practice, NA, 999, 999, 0, 2, 97, 137, 193, 116, 98, 96, 2, 1.24573
246, 6, wb, practice, NA, 999, 999, 0, 3, 129, 66, 86, 181, 101, 174, 1, 4.49545
246, 6, wb, practice, NA, 999, 999, 0, 3, 129, 66, 86, 181, 101, 174, 3, 1.5543
246, 6, wb, attraction, a-b-db, 14, 2, 1, 1, 83, 153, 165, 90, 90, 165, 1, 4.54039
246, 6, wb, attraction, a-b-db, 14, 2, 1, 1, 83, 153, 165, 90, 90, 165, 3, 0.724416
246, 6, wb, attraction, a-b-da, 2, 2, 1, 2, 163, 89, 165, 90, 90, 165, 2, 11.3807
246, 6, wb, attraction, a-b-da, 2, 2, 1, 2, 163, 89, 165, 90, 90, 165, 3, 1.08113
246, 6, wb, attraction, a-b-da, 5, 3, 1, 3, 190, 117, 120, 195, 195, 120, 1, 4.57938
246, 6, wb, attraction, a-b-da, 5, 3, 1, 3, 190, 117, 120, 195, 195, 120, 2, 1.7699
246, 6, wb, filler, NA, 999, 999, 1, 4, 131, 132, 136, 113, 69, 110, 3, 1.58473
246, 6, wb, filler, NA, 999, 999, 1, 4, 131, 132, 136, 113, 69, 110, 1, 1.31213
246, 6, wb, filler, NA, 999, 999, 1, 5, 191, 129, 79, 73, 131, 85, 2, 1.32108
246, 6, wb, filler, NA, 999, 999, 1, 5, 191, 129, 79, 73, 131, 85, 1, 0.682613
246, 6, wb, filler, NA, 999, 999, 1, 6, 148, 77, 126, 175, 133, 187, 1, 1.0689
246, 6, wb, filler, NA, 999, 999, 1, 6, 148, 77, 126, 175, 133, 187, 3, 0.961319
246, 6, wb, attraction, a-b-db, 2, 3, 1, 7, 120, 195, 195, 120, 119, 193, 2, 7.38418
246, 6, wb, attraction, a-b-db, 2, 3, 1, 7, 120, 195, 195, 120, 119, 193, 1, 0.685838
246, 6, wb, attraction, a-b-da, 9, 3, 1, 8, 186, 114, 120, 195, 195, 120, 1, 2.40038
246, 6, wb, attraction, a-b-da, 9, 3, 1, 8, 186, 114, 120, 195, 195, 120, 3, 3.97497
246, 6, wb, attraction, a-b-db, 2, 2, 1, 9, 90, 165, 89, 163, 165, 90, 3, 5.3563
246, 6, wb, attraction, a-b-db, 2, 2, 1, 9, 90, 165, 89, 163, 165, 90, 1, 2.43524
246, 6, wb, catch, NA, 999, 999, 1, 10, 60, 135, 134, 181, 143, 112, 1, 1.18295
246, 6, wb, catch, NA, 999, 999, 1, 10, 60, 135, 134, 181, 143, 112, 2, 0.926715
246, 6, wb, attraction, a-b-db, 2, 1, 1, 11, 135, 60, 59, 134, 60, 135, 3, 7.31894
246, 6, wb, attraction, a-b-db, 2, 1, 1, 11, 135, 60, 59, 134, 60, 135, 2, 0.879247
246, 6, wb, filler, NA, 999, 999, 1, 12, 164, 186, 152, 153, 108, 85, 3, 1.27364
246, 6, wb, filler, NA, 999, 999, 1, 12, 164, 186, 152, 153, 108, 85, 1, 0.581173
246, 6, wb, attraction, a-b-da, 2, 3, 1, 13, 120, 195, 193, 119, 195, 120, 2, 11.5717
246, 6, wb, attraction, a-b-da, 2, 3, 1, 13, 120, 195, 193, 119, 195, 120, 1, 0.768648
246, 6, wb, attraction, a-b-da, 9, 2, 1, 14, 90, 165, 157, 86, 165, 90, 2, 1.95162
246, 6, wb, attraction, a-b-da, 9, 2, 1, 14, 90, 165, 157, 86, 165, 90, 1, 2.36036
246, 6, wb, filler, NA, 999, 999, 1, 15, 178, 64, 70, 74, 148, 113, 2, 0.950969
246, 6, wb, filler, NA, 999, 999, 1, 15, 178, 64, 70, 74, 148, 113, 3, 0.456061
246, 6, wb, attraction, a-b-db, 9, 1, 1, 16, 135, 60, 60, 135, 57, 129, 3, 6.07502
246, 6, wb, attraction, a-b-db, 9, 1, 1, 16, 135, 60, 60, 135, 57, 129, 1, 0.901214
246, 6, wb, attraction, a-b-da, 14, 1, 1, 17, 60, 135, 135, 60, 125, 56, 3, 2.14289
246, 6, wb, attraction, a-b-da, 14, 1, 1, 17, 60, 135, 135, 60, 125, 56, 2, 3.91943
246, 6, wb, attraction, a-b-da, 2, 1, 1, 18, 134, 59, 135, 60, 60, 135, 1, 4.23148
246, 6, wb, attraction, a-b-da, 2, 1, 1, 18, 134, 59, 135, 60, 60, 135, 3, 1.67639
246, 6, wb, attraction, a-b-db, 14, 3, 1, 19, 195, 120, 120, 195, 111, 181, 3, 5.28627
246, 6, wb, attraction, a-b-db, 14, 3, 1, 19, 195, 120, 120, 195, 111, 181, 2, 0.880523
246, 6, wb, attraction, a-b-db, 5, 3, 1, 20, 120, 195, 117, 190, 195, 120, 2, 6.39495
246, 6, wb, attraction, a-b-db, 5, 3, 1, 20, 120, 195, 117, 190, 195, 120, 3, 1.32026
246, 6, wb, attraction, a-b-db, 5, 1, 1, 21, 135, 60, 60, 135, 58, 132, 2, 10.4252
246, 6, wb, attraction, a-b-db, 5, 1, 1, 21, 135, 60, 60, 135, 58, 132, 1, 2.05178
246, 6, wb, attraction, a-b-da, 9, 1, 1, 22, 129, 57, 135, 60, 60, 135, 3, 5.15112
246, 6, wb, attraction, a-b-da, 9, 1, 1, 22, 129, 57, 135, 60, 60, 135, 2, 8.26275
246, 6, wb, filler, NA, 999, 999, 1, 23, 119, 91, 69, 94, 123, 95, 2, 1.46359
246, 6, wb, filler, NA, 999, 999, 1, 23, 119, 91, 69, 94, 123, 95, 3, 1.04368
246, 6, wb, attraction, a-b-db, 9, 3, 1, 24, 195, 120, 114, 186, 120, 195, 2, 5.18331
246, 6, wb, attraction, a-b-db, 9, 3, 1, 24, 195, 120, 114, 186, 120, 195, 1, 0.949606
246, 6, wb, filler, NA, 999, 999, 1, 25, 193, 165, 137, 126, 72, 173, 3, 3.30133
246, 6, wb, filler, NA, 999, 999, 1, 25, 193, 165, 137, 126, 72, 173, 1, 0.847521
246, 6, wb, catch, NA, 999, 999, 1, 26, 111, 84, 153, 102, 186, 129, 1, 1.04324
246, 6, wb, catch, NA, 999, 999, 1, 26, 111, 84, 153, 102, 186, 129, 3, 0.600311
246, 6, wb, filler, NA, 999, 999, 1, 27, 175, 180, 171, 164, 154, 130, 3, 2.00593
246, 6, wb, filler, NA, 999, 999, 1, 27, 175, 180, 171, 164, 154, 130, 1, 1.83605
246, 6, wb, filler, NA, 999, 999, 1, 28, 183, 104, 146, 195, 69, 107, 3, 1.216
246, 6, wb, filler, NA, 999, 999, 1, 28, 183, 104, 146, 195, 69, 107, 2, 2.01425
246, 6, wb, attraction, a-b-db, 5, 2, 1, 29, 165, 90, 88, 161, 90, 165, 1, 4.85908
246, 6, wb, attraction, a-b-db, 5, 2, 1, 29, 165, 90, 88, 161, 90, 165, 3, 0.725945
246, 6, wb, catch, NA, 999, 999, 1, 30, 151, 104, 126, 69, 149, 166, 2, 0.806469
246, 6, wb, catch, NA, 999, 999, 1, 30, 151, 104, 126, 69, 149, 166, 3, 0.684753
246, 6, wb, attraction, a-b-db, 14, 1, 1, 31, 56, 125, 135, 60, 60, 135, 1, 1.83919
246, 6, wb, attraction, a-b-db, 14, 1, 1, 31, 56, 125, 135, 60, 60, 135, 3, 0.603914
246, 6, wb, attraction, a-b-da, 14, 3, 1, 32, 181, 111, 195, 120, 120, 195, 1, 4.24967
246, 6, wb, attraction, a-b-da, 14, 3, 1, 32, 181, 111, 195, 120, 120, 195, 3, 0.917666
246, 6, wb, attraction, a-b-da, 5, 2, 1, 33, 165, 90, 90, 165, 161, 88, 3, 7.64661
246, 6, wb, attraction, a-b-da, 5, 2, 1, 33, 165, 90, 90, 165, 161, 88, 2, 0.777596
246, 6, wb, filler, NA, 999, 999, 1, 34, 168, 85, 185, 92, 62, 180, 3, 2.63191
246, 6, wb, filler, NA, 999, 999, 1, 34, 168, 85, 185, 92, 62, 180, 2, 0.62909
246, 6, wb, attraction, a-b-db, 9, 2, 1, 35, 90, 165, 86, 157, 165, 90, 3, 4.57755
246, 6, wb, attraction, a-b-db, 9, 2, 1, 35, 90, 165, 86, 157, 165, 90, 1, 0.599978
246, 6, wb, attraction, a-b-da, 5, 1, 1, 36, 132, 58, 135, 60, 60, 135, 1, 5.01382
246, 6, wb, attraction, a-b-da, 5, 1, 1, 36, 132, 58, 135, 60, 60, 135, 3, 1.62682
246, 6, wb, attraction, a-b-da, 14, 2, 1, 37, 165, 90, 153, 83, 90, 165, 2, 4.39893
246, 6, wb, attraction, a-b-da, 14, 2, 1, 37, 165, 90, 153, 83, 90, 165, 3, 1.34891
246, 6, wb, attraction, a-b-da, 9, 3, 2, 1, 195, 120, 120, 195, 186, 114, 3, 2.42848
246, 6, wb, attraction, a-b-da, 9, 3, 2, 1, 195, 120, 120, 195, 186, 114, 1, 0.841688
246, 6, wb, catch, NA, 999, 999, 2, 2, 81, 114, 152, 103, 139, 176, 1, 0.909282
246, 6, wb, catch, NA, 999, 999, 2, 2, 81, 114, 152, 103, 139, 176, 3, 0.615658
246, 6, wb, attraction, a-b-db, 2, 2, 2, 3, 90, 165, 89, 163, 165, 90, 3, 9.40477
246, 6, wb, attraction, a-b-db, 2, 2, 2, 3, 90, 165, 89, 163, 165, 90, 1, 2.32913
246, 6, wb, catch, NA, 999, 999, 2, 4, 113, 142, 189, 126, 86, 109, 3, 0.880988
246, 6, wb, catch, NA, 999, 999, 2, 4, 113, 142, 189, 126, 86, 109, 2, 0.540626
246, 6, wb, attraction, a-b-da, 5, 3, 2, 5, 195, 120, 120, 195, 190, 117, 3, 7.83641
246, 6, wb, attraction, a-b-da, 5, 3, 2, 5, 195, 120, 120, 195, 190, 117, 1, 0.831952
246, 6, wb, filler, NA, 999, 999, 2, 6, 136, 111, 96, 70, 146, 158, 2, 1.20431
246, 6, wb, filler, NA, 999, 999, 2, 6, 136, 111, 96, 70, 146, 158, 3, 0.602616
246, 6, wb, filler, NA, 999, 999, 2, 7, 117, 126, 123, 132, 84, 147, 1, 5.5363
246, 6, wb, filler, NA, 999, 999, 2, 7, 117, 126, 123, 132, 84, 147, 2, 1.33667
246, 6, wb, attraction, a-b-db, 5, 3, 2, 8, 120, 195, 117, 190, 195, 120, 2, 6.33678
246, 6, wb, attraction, a-b-db, 5, 3, 2, 8, 120, 195, 117, 190, 195, 120, 3, 5.4728
246, 6, wb, attraction, a-b-db, 2, 1, 2, 9, 59, 134, 135, 60, 60, 135, 2, 3.25035
246, 6, wb, attraction, a-b-db, 2, 1, 2, 9, 59, 134, 135, 60, 60, 135, 3, 7.14272
246, 6, wb, attraction, a-b-da, 9, 2, 2, 10, 165, 90, 90, 165, 157, 86, 3, 2.87637
246, 6, wb, attraction, a-b-da, 9, 2, 2, 10, 165, 90, 90, 165, 157, 86, 1, 2.23142
246, 6, wb, attraction, a-b-da, 14, 3, 2, 11, 181, 111, 195, 120, 120, 195, 1, 1.78727
246, 6, wb, attraction, a-b-da, 14, 3, 2, 11, 181, 111, 195, 120, 120, 195, 3, 3.25084
246, 6, wb, filler, NA, 999, 999, 2, 12, 141, 140, 132, 175, 155, 108, 3, 4.27765
246, 6, wb, filler, NA, 999, 999, 2, 12, 141, 140, 132, 175, 155, 108, 2, 0.496275
246, 6, wb, attraction, a-b-db, 5, 2, 2, 13, 88, 161, 165, 90, 90, 165, 2, 2.05005
246, 6, wb, attraction, a-b-db, 5, 2, 2, 13, 88, 161, 165, 90, 90, 165, 3, 0.55876
246, 6, wb, attraction, a-b-da, 2, 1, 2, 14, 134, 59, 60, 135, 135, 60, 3, 4.44589
246, 6, wb, attraction, a-b-da, 2, 1, 2, 14, 134, 59, 60, 135, 135, 60, 1, 0.817755
246, 6, wb, attraction, a-b-da, 2, 2, 2, 15, 165, 90, 90, 165, 163, 89, 2, 3.91886
246, 6, wb, attraction, a-b-da, 2, 2, 2, 15, 165, 90, 90, 165, 163, 89, 1, 0.728216
246, 6, wb, attraction, a-b-da, 9, 1, 2, 16, 60, 135, 129, 57, 135, 60, 2, 2.50473
246, 6, wb, attraction, a-b-da, 9, 1, 2, 16, 60, 135, 129, 57, 135, 60, 3, 1.77043
246, 6, wb, filler, NA, 999, 999, 2, 17, 58, 81, 116, 71, 153, 109, 1, 0.897154
246, 6, wb, filler, NA, 999, 999, 2, 17, 58, 81, 116, 71, 153, 109, 3, 0.540216
246, 6, wb, attraction, a-b-da, 2, 3, 2, 18, 193, 119, 120, 195, 195, 120, 2, 5.11602
246, 6, wb, attraction, a-b-da, 2, 3, 2, 18, 193, 119, 120, 195, 195, 120, 1, 0.580999
246, 6, wb, attraction, a-b-db, 9, 3, 2, 19, 120, 195, 195, 120, 114, 186, 2, 13.2674
246, 6, wb, attraction, a-b-db, 9, 3, 2, 19, 120, 195, 195, 120, 114, 186, 1, 0.603861
246, 6, wb, catch, NA, 999, 999, 2, 20, 124, 131, 148, 167, 116, 79, 3, 1.12991
246, 6, wb, catch, NA, 999, 999, 2, 20, 124, 131, 148, 167, 116, 79, 2, 0.411308
246, 6, wb, filler, NA, 999, 999, 2, 21, 110, 123, 124, 150, 59, 123, 3, 1.55237
246, 6, wb, filler, NA, 999, 999, 2, 21, 110, 123, 124, 150, 59, 123, 2, 0.481199
246, 6, wb, filler, NA, 999, 999, 2, 22, 174, 61, 165, 179, 88, 118, 3, 6.32383
246, 6, wb, filler, NA, 999, 999, 2, 22, 174, 61, 165, 179, 88, 118, 2, 0.531744
246, 6, wb, attraction, a-b-db, 9, 2, 2, 23, 86, 157, 90, 165, 165, 90, 1, 3.38825
246, 6, wb, attraction, a-b-db, 9, 2, 2, 23, 86, 157, 90, 165, 165, 90, 3, 1.23449
246, 6, wb, attraction, a-b-db, 5, 1, 2, 24, 60, 135, 58, 132, 135, 60, 2, 11.6306
246, 6, wb, attraction, a-b-db, 5, 1, 2, 24, 60, 135, 58, 132, 135, 60, 3, 0.872964
246, 6, wb, attraction, a-b-db, 14, 2, 2, 25, 165, 90, 83, 153, 90, 165, 2, 2.24333
246, 6, wb, attraction, a-b-db, 14, 2, 2, 25, 165, 90, 83, 153, 90, 165, 1, 1.24796
246, 6, wb, filler, NA, 999, 999, 2, 26, 89, 81, 105, 111, 144, 160, 1, 0.851373
246, 6, wb, filler, NA, 999, 999, 2, 26, 89, 81, 105, 111, 144, 160, 3, 0.464533
246, 6, wb, attraction, a-b-db, 14, 1, 2, 27, 56, 125, 135, 60, 60, 135, 1, 1.29962
246, 6, wb, attraction, a-b-db, 14, 1, 2, 27, 56, 125, 135, 60, 60, 135, 3, 3.7907
246, 6, wb, attraction, a-b-da, 14, 2, 2, 28, 90, 165, 165, 90, 153, 83, 3, 4.80328
246, 6, wb, attraction, a-b-da, 14, 2, 2, 28, 90, 165, 165, 90, 153, 83, 1, 1.46516
246, 6, wb, filler, NA, 999, 999, 2, 29, 106, 119, 61, 69, 142, 90, 2, 1.91601
246, 6, wb, filler, NA, 999, 999, 2, 29, 106, 119, 61, 69, 142, 90, 1, 11.5579
246, 6, wb, filler, NA, 999, 999, 2, 30, 147, 129, 141, 189, 104, 139, 3, 3.11422
246, 6, wb, filler, NA, 999, 999, 2, 30, 147, 129, 141, 189, 104, 139, 2, 0.53989
246, 6, wb, attraction, a-b-db, 14, 3, 2, 31, 111, 181, 195, 120, 120, 195, 1, 1.29183
246, 6, wb, attraction, a-b-db, 14, 3, 2, 31, 111, 181, 195, 120, 120, 195, 3, 3.88669
246, 6, wb, attraction, a-b-da, 5, 2, 2, 32, 161, 88, 165, 90, 90, 165, 3, 9.98402
246, 6, wb, attraction, a-b-da, 5, 2, 2, 32, 161, 88, 165, 90, 90, 165, 2, 0.620864
246, 6, wb, attraction, a-b-da, 14, 1, 2, 33, 125, 56, 60, 135, 135, 60, 3, 8.75402
246, 6, wb, attraction, a-b-da, 14, 1, 2, 33, 125, 56, 60, 135, 135, 60, 2, 1.4086
246, 6, wb, attraction, a-b-db, 9, 1, 2, 34, 135, 60, 57, 129, 60, 135, 2, 2.34138
246, 6, wb, attraction, a-b-db, 9, 1, 2, 34, 135, 60, 57, 129, 60, 135, 1, 0.709964
246, 6, wb, attraction, a-b-da, 5, 1, 2, 35, 60, 135, 135, 60, 132, 58, 3, 11.895
246, 6, wb, attraction, a-b-da, 5, 1, 2, 35, 60, 135, 135, 60, 132, 58, 1, 3.85452
246, 6, wb, filler, NA, 999, 999, 2, 36, 66, 119, 184, 168, 145, 71, 1, 1.44938
246, 6, wb, filler, NA, 999, 999, 2, 36, 66, 119, 184, 168, 145, 71, 2, 0.502127
246, 6, wb, attraction, a-b-db, 2, 3, 2, 37, 120, 195, 119, 193, 195, 120, 2, 5.95994
246, 6, wb, attraction, a-b-db, 2, 3, 2, 37, 120, 195, 119, 193, 195, 120, 1, 2.60675
246, 6, wb, filler, NA, 999, 999, 3, 1, 181, 139, 187, 116, 164, 65, 3, 1.24327
246, 6, wb, filler, NA, 999, 999, 3, 1, 181, 139, 187, 116, 164, 65, 1, 0.856066
246, 6, wb, filler, NA, 999, 999, 3, 2, 174, 190, 129, 77, 110, 144, 2, 0.851278
246, 6, wb, filler, NA, 999, 999, 3, 2, 174, 190, 129, 77, 110, 144, 1, 0.568163
246, 6, wb, filler, NA, 999, 999, 3, 3, 190, 110, 113, 134, 85, 137, 3, 2.19936
246, 6, wb, filler, NA, 999, 999, 3, 3, 190, 110, 113, 134, 85, 137, 1, 2.67796
246, 6, wb, attraction, a-b-db, 9, 2, 3, 4, 165, 90, 86, 157, 90, 165, 2, 12.7677
246, 6, wb, attraction, a-b-db, 9, 2, 3, 4, 165, 90, 86, 157, 90, 165, 1, 0.612358
246, 6, wb, attraction, a-b-db, 9, 3, 3, 5, 120, 195, 195, 120, 114, 186, 3, 4.48146
246, 6, wb, attraction, a-b-db, 9, 3, 3, 5, 120, 195, 195, 120, 114, 186, 1, 2.03593
246, 6, wb, filler, NA, 999, 999, 3, 6, 81, 140, 65, 91, 73, 171, 2, 1.01585
246, 6, wb, filler, NA, 999, 999, 3, 6, 81, 140, 65, 91, 73, 171, 3, 0.57433
246, 6, wb, attraction, a-b-da, 2, 2, 3, 7, 163, 89, 90, 165, 165, 90, 1, 11.6769
246, 6, wb, attraction, a-b-da, 2, 2, 3, 7, 163, 89, 90, 165, 165, 90, 3, 2.02899
246, 6, wb, attraction, a-b-db, 2, 1, 3, 8, 135, 60, 59, 134, 60, 135, 2, 1.68899
246, 6, wb, attraction, a-b-db, 2, 1, 3, 8, 135, 60, 59, 134, 60, 135, 1, 0.7079
246, 6, wb, attraction, a-b-db, 14, 3, 3, 9, 111, 181, 120, 195, 195, 120, 1, 0.772855
246, 6, wb, attraction, a-b-db, 14, 3, 3, 9, 111, 181, 120, 195, 195, 120, 3, 0.884486
246, 6, wb, filler, NA, 999, 999, 3, 10, 140, 142, 163, 125, 92, 155, 3, 5.98288
246, 6, wb, filler, NA, 999, 999, 3, 10, 140, 142, 163, 125, 92, 155, 1, 2.88503
246, 6, wb, attraction, a-b-db, 5, 3, 3, 11, 195, 120, 117, 190, 120, 195, 2, 1.61474
246, 6, wb, attraction, a-b-db, 5, 3, 3, 11, 195, 120, 117, 190, 120, 195, 1, 2.60482
246, 6, wb, attraction, a-b-db, 14, 2, 3, 12, 83, 153, 165, 90, 90, 165, 1, 2.15392
246, 6, wb, attraction, a-b-db, 14, 2, 3, 12, 83, 153, 165, 90, 90, 165, 2, 1.48193
246, 6, wb, filler, NA, 999, 999, 3, 13, 88, 96, 136, 159, 177, 69, 1, 2.21207
246, 6, wb, filler, NA, 999, 999, 3, 13, 88, 96, 136, 159, 177, 69, 2, 0.593951
246, 6, wb, attraction, a-b-da, 2, 3, 3, 14, 120, 195, 195, 120, 193, 119, 2, 7.47174
246, 6, wb, attraction, a-b-da, 2, 3, 3, 14, 120, 195, 195, 120, 193, 119, 1, 1.94539
246, 6, wb, catch, NA, 999, 999, 3, 15, 129, 126, 122, 193, 64, 131, 3, 1.39277
246, 6, wb, catch, NA, 999, 999, 3, 15, 129, 126, 122, 193, 64, 131, 2, 0.455657
246, 6, wb, attraction, a-b-da, 14, 1, 3, 16, 135, 60, 60, 135, 125, 56, 3, 4.30741
246, 6, wb, attraction, a-b-da, 14, 1, 3, 16, 135, 60, 60, 135, 125, 56, 1, 3.96486
246, 6, wb, attraction, a-b-db, 5, 2, 3, 17, 165, 90, 90, 165, 88, 161, 1, 3.62672
246, 6, wb, attraction, a-b-db, 5, 2, 3, 17, 165, 90, 90, 165, 88, 161, 2, 3.4316
246, 6, wb, filler, NA, 999, 999, 3, 18, 134, 186, 92, 187, 148, 79, 3, 4.55516
246, 6, wb, filler, NA, 999, 999, 3, 18, 134, 186, 92, 187, 148, 79, 1, 0.634291
246, 6, wb, filler, NA, 999, 999, 3, 19, 98, 161, 122, 169, 149, 72, 3, 3.21475
246, 6, wb, filler, NA, 999, 999, 3, 19, 98, 161, 122, 169, 149, 72, 2, 0.596297
246, 6, wb, attraction, a-b-da, 5, 3, 3, 20, 120, 195, 190, 117, 195, 120, 2, 13.2181
246, 6, wb, attraction, a-b-da, 5, 3, 3, 20, 120, 195, 190, 117, 195, 120, 3, 0.660644
246, 6, wb, filler, NA, 999, 999, 3, 21, 185, 167, 192, 194, 62, 78, 3, 1.25564
246, 6, wb, filler, NA, 999, 999, 3, 21, 185, 167, 192, 194, 62, 78, 2, 0.747895
246, 6, wb, attraction, a-b-db, 9, 1, 3, 22, 60, 135, 57, 129, 135, 60, 2, 6.06763
246, 6, wb, attraction, a-b-db, 9, 1, 3, 22, 60, 135, 57, 129, 135, 60, 1, 2.62251
246, 6, wb, attraction, a-b-da, 9, 2, 3, 23, 157, 86, 165, 90, 90, 165, 1, 7.13097
246, 6, wb, attraction, a-b-da, 9, 2, 3, 23, 157, 86, 165, 90, 90, 165, 2, 0.818541
246, 6, wb, attraction, a-b-da, 14, 2, 3, 24, 165, 90, 153, 83, 90, 165, 2, 2.88765
246, 6, wb, attraction, a-b-da, 14, 2, 3, 24, 165, 90, 153, 83, 90, 165, 3, 1.9302
246, 6, wb, attraction, a-b-db, 2, 3, 3, 25, 120, 195, 119, 193, 195, 120, 3, 13.634
246, 6, wb, attraction, a-b-db, 2, 3, 3, 25, 120, 195, 119, 193, 195, 120, 2, 1.18782
246, 6, wb, attraction, a-b-da, 5, 2, 3, 26, 165, 90, 90, 165, 161, 88, 2, 3.66596
246, 6, wb, attraction, a-b-da, 5, 2, 3, 26, 165, 90, 90, 165, 161, 88, 1, 0.869451
246, 6, wb, attraction, a-b-da, 14, 3, 3, 27, 181, 111, 120, 195, 195, 120, 1, 2.4885
246, 6, wb, attraction, a-b-da, 14, 3, 3, 27, 181, 111, 120, 195, 195, 120, 3, 0.691071
246, 6, wb, catch, NA, 999, 999, 3, 28, 133, 182, 103, 92, 117, 138, 2, 1.5487
246, 6, wb, catch, NA, 999, 999, 3, 28, 133, 182, 103, 92, 117, 138, 1, 0.525591
246, 6, wb, attraction, a-b-db, 14, 1, 3, 29, 56, 125, 60, 135, 135, 60, 1, 9.12595
246, 6, wb, attraction, a-b-db, 14, 1, 3, 29, 56, 125, 60, 135, 135, 60, 3, 0.517103
246, 6, wb, attraction, a-b-da, 9, 1, 3, 30, 60, 135, 129, 57, 135, 60, 2, 2.59833
246, 6, wb, attraction, a-b-da, 9, 1, 3, 30, 60, 135, 129, 57, 135, 60, 3, 5.69272
246, 6, wb, attraction, a-b-db, 5, 1, 3, 31, 60, 135, 135, 60, 58, 132, 2, 11.1489
246, 6, wb, attraction, a-b-db, 5, 1, 3, 31, 60, 135, 135, 60, 58, 132, 1, 1.08279
246, 6, wb, attraction, a-b-db, 2, 2, 3, 32, 90, 165, 89, 163, 165, 90, 2, 4.60498
246, 6, wb, attraction, a-b-db, 2, 2, 3, 32, 90, 165, 89, 163, 165, 90, 3, 2.12294
246, 6, wb, attraction, a-b-da, 2, 1, 3, 33, 134, 59, 135, 60, 60, 135, 2, 2.88276
246, 6, wb, attraction, a-b-da, 2, 1, 3, 33, 134, 59, 135, 60, 60, 135, 1, 1.18186
246, 6, wb, attraction, a-b-da, 5, 1, 3, 34, 132, 58, 60, 135, 135, 60, 3, 3.38017
246, 6, wb, attraction, a-b-da, 5, 1, 3, 34, 132, 58, 60, 135, 135, 60, 1, 1.58699
246, 6, wb, attraction, a-b-da, 9, 3, 3, 35, 195, 120, 186, 114, 120, 195, 2, 6.64114
246, 6, wb, attraction, a-b-da, 9, 3, 3, 35, 195, 120, 186, 114, 120, 195, 1, 5.65239
246, 6, wb, catch, NA, 999, 999, 3, 36, 130, 125, 100, 95, 166, 149, 2, 1.34252
246, 6, wb, catch, NA, 999, 999, 3, 36, 130, 125, 100, 95, 166, 149, 3, 0.919567
246, 6, wb, filler, NA, 999, 999, 3, 37, 189, 111, 72, 191, 175, 74, 3, 4.52839
246, 6, wb, filler, NA, 999, 999, 3, 37, 189, 111, 72, 191, 175, 74, 1, 0.552926
246, 6, wb, attraction, a-b-db, 9, 1, 4, 1, 57, 129, 135, 60, 60, 135, 1, 3.71261
246, 6, wb, attraction, a-b-db, 9, 1, 4, 1, 57, 129, 135, 60, 60, 135, 2, 1.77025
246, 6, wb, attraction, a-b-da, 2, 1, 4, 2, 135, 60, 60, 135, 134, 59, 2, 4.61702
246, 6, wb, attraction, a-b-da, 2, 1, 4, 2, 135, 60, 60, 135, 134, 59, 1, 0.630145
246, 6, wb, attraction, a-b-db, 9, 2, 4, 3, 86, 157, 90, 165, 165, 90, 1, 4.54664
246, 6, wb, attraction, a-b-db, 9, 2, 4, 3, 86, 157, 90, 165, 165, 90, 3, 0.858426
246, 6, wb, attraction, a-b-da, 5, 2, 4, 4, 165, 90, 90, 165, 161, 88, 3, 6.71738
246, 6, wb, attraction, a-b-da, 5, 2, 4, 4, 165, 90, 90, 165, 161, 88, 1, 0.781991
246, 6, wb, filler, NA, 999, 999, 4, 5, 109, 105, 181, 97, 126, 167, 1, 2.49234
246, 6, wb, filler, NA, 999, 999, 4, 5, 109, 105, 181, 97, 126, 167, 3, 0.870834
246, 6, wb, filler, NA, 999, 999, 4, 6, 73, 153, 90, 174, 129, 89, 3, 3.86585
246, 6, wb, filler, NA, 999, 999, 4, 6, 73, 153, 90, 174, 129, 89, 2, 2.18935
246, 6, wb, attraction, a-b-da, 5, 3, 4, 7, 120, 195, 195, 120, 190, 117, 3, 32.7153
246, 6, wb, attraction, a-b-da, 5, 3, 4, 7, 120, 195, 195, 120, 190, 117, 2, 0.555631
246, 6, wb, filler, NA, 999, 999, 4, 8, 62, 172, 156, 184, 122, 154, 1, 1.54753
246, 6, wb, filler, NA, 999, 999, 4, 8, 62, 172, 156, 184, 122, 154, 2, 0.716289
246, 6, wb, attraction, a-b-db, 14, 1, 4, 9, 60, 135, 135, 60, 56, 125, 2, 3.83724
246, 6, wb, attraction, a-b-db, 14, 1, 4, 9, 60, 135, 135, 60, 56, 125, 1, 0.858069
246, 6, wb, attraction, a-b-da, 5, 1, 4, 10, 132, 58, 60, 135, 135, 60, 2, 7.69307
246, 6, wb, attraction, a-b-da, 5, 1, 4, 10, 132, 58, 60, 135, 135, 60, 1, 0.870155
246, 6, wb, attraction, a-b-da, 14, 2, 4, 11, 153, 83, 90, 165, 165, 90, 2, 4.68896
246, 6, wb, attraction, a-b-da, 14, 2, 4, 11, 153, 83, 90, 165, 165, 90, 3, 3.71493
246, 6, wb, attraction, a-b-db, 5, 3, 4, 12, 120, 195, 117, 190, 195, 120, 2, 10.3309
246, 6, wb, attraction, a-b-db, 5, 3, 4, 12, 120, 195, 117, 190, 195, 120, 3, 8.27372
246, 6, wb, attraction, a-b-db, 14, 2, 4, 13, 90, 165, 83, 153, 165, 90, 2, 2.80252
246, 6, wb, attraction, a-b-db, 14, 2, 4, 13, 90, 165, 83, 153, 165, 90, 1, 4.80889
246, 6, wb, attraction, a-b-da, 2, 2, 4, 14, 163, 89, 165, 90, 90, 165, 2, 7.06055
246, 6, wb, attraction, a-b-da, 2, 2, 4, 14, 163, 89, 165, 90, 90, 165, 1, 1.68703
246, 6, wb, attraction, a-b-db, 14, 3, 4, 15, 111, 181, 120, 195, 195, 120, 1, 3.5211
246, 6, wb, attraction, a-b-db, 14, 3, 4, 15, 111, 181, 120, 195, 195, 120, 3, 0.658651
246, 6, wb, attraction, a-b-db, 2, 2, 4, 16, 165, 90, 90, 165, 89, 163, 1, 7.4537
246, 6, wb, attraction, a-b-db, 2, 2, 4, 16, 165, 90, 90, 165, 89, 163, 3, 4.16067
246, 6, wb, filler, NA, 999, 999, 4, 17, 149, 127, 127, 134, 134, 151, 2, 10.6866
246, 6, wb, filler, NA, 999, 999, 4, 17, 149, 127, 127, 134, 134, 151, 3, 0.743445
246, 6, wb, filler, NA, 999, 999, 4, 18, 119, 119, 103, 67, 146, 77, 2, 1.27094
246, 6, wb, filler, NA, 999, 999, 4, 18, 119, 119, 103, 67, 146, 77, 1, 2.00262
246, 6, wb, attraction, a-b-db, 5, 2, 4, 19, 88, 161, 165, 90, 90, 165, 2, 15.9041
246, 6, wb, attraction, a-b-db, 5, 2, 4, 19, 88, 161, 165, 90, 90, 165, 3, 0.590211
246, 6, wb, filler, NA, 999, 999, 4, 20, 192, 141, 137, 117, 118, 142, 2, 2.14805
246, 6, wb, filler, NA, 999, 999, 4, 20, 192, 141, 137, 117, 118, 142, 1, 0.460522
246, 6, wb, attraction, a-b-db, 2, 1, 4, 21, 60, 135, 59, 134, 135, 60, 1, 2.05571
246, 6, wb, attraction, a-b-db, 2, 1, 4, 21, 60, 135, 59, 134, 135, 60, 3, 2.82777
246, 6, wb, catch, NA, 999, 999, 4, 22, 111, 84, 121, 134, 164, 151, 1, 1.87139
246, 6, wb, catch, NA, 999, 999, 4, 22, 111, 84, 121, 134, 164, 151, 3, 0.54695
246, 6, wb, filler, NA, 999, 999, 4, 23, 93, 74, 139, 174, 174, 79, 1, 0.850634
246, 6, wb, filler, NA, 999, 999, 4, 23, 93, 74, 139, 174, 174, 79, 2, 1.7597
246, 6, wb, catch, NA, 999, 999, 4, 24, 187, 128, 118, 77, 120, 135, 2, 1.12635
246, 6, wb, catch, NA, 999, 999, 4, 24, 187, 128, 118, 77, 120, 135, 1, 0.663994
246, 6, wb, attraction, a-b-db, 2, 3, 4, 25, 195, 120, 120, 195, 119, 193, 3, 7.92325
246, 6, wb, attraction, a-b-db, 2, 3, 4, 25, 195, 120, 120, 195, 119, 193, 1, 1.10675
246, 6, wb, attraction, a-b-da, 2, 3, 4, 26, 193, 119, 120, 195, 195, 120, 2, 7.77142
246, 6, wb, attraction, a-b-da, 2, 3, 4, 26, 193, 119, 120, 195, 195, 120, 1, 0.905716
246, 6, wb, attraction, a-b-da, 14, 1, 4, 27, 135, 60, 60, 135, 125, 56, 3, 8.20344
246, 6, wb, attraction, a-b-da, 14, 1, 4, 27, 135, 60, 60, 135, 125, 56, 1, 0.776124
246, 6, wb, filler, NA, 999, 999, 4, 28, 176, 62, 85, 94, 111, 84, 2, 1.97448
246, 6, wb, filler, NA, 999, 999, 4, 28, 176, 62, 85, 94, 111, 84, 1, 2.13401
246, 6, wb, attraction, a-b-db, 5, 1, 4, 29, 58, 132, 135, 60, 60, 135, 1, 4.24583
246, 6, wb, attraction, a-b-db, 5, 1, 4, 29, 58, 132, 135, 60, 60, 135, 3, 0.681745
246, 6, wb, catch, NA, 999, 999, 4, 30, 76, 119, 122, 133, 144, 171, 1, 0.876179
246, 6, wb, catch, NA, 999, 999, 4, 30, 76, 119, 122, 133, 144, 171, 3, 0.479995
246, 6, wb, filler, NA, 999, 999, 4, 31, 96, 156, 146, 110, 107, 105, 3, 2.70652
246, 6, wb, filler, NA, 999, 999, 4, 31, 96, 156, 146, 110, 107, 105, 1, 4.46807
246, 6, wb, attraction, a-b-da, 9, 3, 4, 32, 120, 195, 195, 120, 186, 114, 3, 7.53395
246, 6, wb, attraction, a-b-da, 9, 3, 4, 32, 120, 195, 195, 120, 186, 114, 2, 1.62155
246, 6, wb, attraction, a-b-db, 9, 3, 4, 33, 114, 186, 120, 195, 195, 120, 1, 1.73054
246, 6, wb, attraction, a-b-db, 9, 3, 4, 33, 114, 186, 120, 195, 195, 120, 2, 4.86794
246, 6, wb, attraction, a-b-da, 9, 1, 4, 34, 60, 135, 129, 57, 135, 60, 2, 8.42962
246, 6, wb, attraction, a-b-da, 9, 1, 4, 34, 60, 135, 129, 57, 135, 60, 3, 3.06493
246, 6, wb, filler, NA, 999, 999, 4, 35, 112, 146, 97, 137, 161, 142, 2, 1.76321
246, 6, wb, filler, NA, 999, 999, 4, 35, 112, 146, 97, 137, 161, 142, 3, 0.851345
246, 6, wb, attraction, a-b-da, 14, 3, 4, 36, 195, 120, 181, 111, 120, 195, 2, 14.1189
246, 6, wb, attraction, a-b-da, 14, 3, 4, 36, 195, 120, 181, 111, 120, 195, 1, 1.74115
246, 6, wb, attraction, a-b-da, 9, 2, 4, 37, 90, 165, 157, 86, 165, 90, 2, 9.66062
246, 6, wb, attraction, a-b-da, 9, 2, 4, 37, 90, 165, 157, 86, 165, 90, 3, 5.67833
246, 6, wb, filler, NA, 999, 999, 5, 1, 126, 69, 175, 129, 165, 96, 1, 2.83768
246, 6, wb, filler, NA, 999, 999, 5, 1, 126, 69, 175, 129, 165, 96, 2, 0.522953
246, 6, wb, attraction, a-b-da, 2, 1, 5, 2, 134, 59, 135, 60, 60, 135, 2, 6.10728
246, 6, wb, attraction, a-b-da, 2, 1, 5, 2, 134, 59, 135, 60, 60, 135, 1, 2.14795
246, 6, wb, filler, NA, 999, 999, 5, 3, 179, 130, 109, 171, 151, 93, 3, 1.26721
246, 6, wb, filler, NA, 999, 999, 5, 3, 179, 130, 109, 171, 151, 93, 1, 0.887485
246, 6, wb, catch, NA, 999, 999, 5, 4, 118, 77, 130, 125, 150, 165, 1, 1.21786
246, 6, wb, catch, NA, 999, 999, 5, 4, 118, 77, 130, 125, 150, 165, 3, 0.672162
246, 6, wb, attraction, a-b-da, 14, 3, 5, 5, 120, 195, 195, 120, 181, 111, 3, 3.37916
246, 6, wb, attraction, a-b-da, 14, 3, 5, 5, 120, 195, 195, 120, 181, 111, 2, 1.04215
246, 6, wb, catch, NA, 999, 999, 5, 6, 137, 178, 112, 83, 117, 138, 2, 0.91774
246, 6, wb, catch, NA, 999, 999, 5, 6, 137, 178, 112, 83, 117, 138, 1, 0.488039
246, 6, wb, attraction, a-b-db, 9, 2, 5, 7, 90, 165, 165, 90, 86, 157, 3, 3.05864
246, 6, wb, attraction, a-b-db, 9, 2, 5, 7, 90, 165, 165, 90, 86, 157, 1, 0.502112
246, 6, wb, attraction, a-b-db, 14, 3, 5, 8, 111, 181, 195, 120, 120, 195, 1, 1.54397
246, 6, wb, attraction, a-b-db, 14, 3, 5, 8, 111, 181, 195, 120, 120, 195, 3, 0.488725
246, 6, wb, attraction, a-b-db, 9, 1, 5, 9, 60, 135, 135, 60, 57, 129, 2, 3.46724
246, 6, wb, attraction, a-b-db, 9, 1, 5, 9, 60, 135, 135, 60, 57, 129, 1, 0.462702
246, 6, wb, attraction, a-b-db, 2, 3, 5, 10, 195, 120, 119, 193, 120, 195, 2, 2.58586
246, 6, wb, attraction, a-b-db, 2, 3, 5, 10, 195, 120, 119, 193, 120, 195, 1, 3.85717
246, 6, wb, filler, NA, 999, 999, 5, 11, 95, 97, 153, 105, 62, 90, 3, 1.1391
246, 6, wb, filler, NA, 999, 999, 5, 11, 95, 97, 153, 105, 62, 90, 2, 0.468248
246, 6, wb, attraction, a-b-da, 5, 2, 5, 12, 165, 90, 90, 165, 161, 88, 3, 13.2553
246, 6, wb, attraction, a-b-da, 5, 2, 5, 12, 165, 90, 90, 165, 161, 88, 2, 5.2324
246, 6, wb, attraction, a-b-db, 2, 1, 5, 13, 60, 135, 59, 134, 135, 60, 2, 9.41937
246, 6, wb, attraction, a-b-db, 2, 1, 5, 13, 60, 135, 59, 134, 135, 60, 1, 0.831068
246, 6, wb, attraction, a-b-da, 5, 1, 5, 14, 135, 60, 132, 58, 60, 135, 3, 4.33938
246, 6, wb, attraction, a-b-da, 5, 1, 5, 14, 135, 60, 132, 58, 60, 135, 1, 0.915456
246, 6, wb, attraction, a-b-db, 14, 1, 5, 15, 56, 125, 60, 135, 135, 60, 2, 5.09232
246, 6, wb, attraction, a-b-db, 14, 1, 5, 15, 56, 125, 60, 135, 135, 60, 3, 2.21407
246, 6, wb, filler, NA, 999, 999, 5, 16, 171, 75, 79, 136, 171, 144, 2, 1.06671
246, 6, wb, filler, NA, 999, 999, 5, 16, 171, 75, 79, 136, 171, 144, 3, 0.582969
246, 6, wb, attraction, a-b-db, 14, 2, 5, 17, 90, 165, 83, 153, 165, 90, 2, 5.06154
246, 6, wb, attraction, a-b-db, 14, 2, 5, 17, 90, 165, 83, 153, 165, 90, 3, 6.45643
246, 6, wb, attraction, a-b-db, 5, 3, 5, 18, 117, 190, 120, 195, 195, 120, 1, 4.5144
246, 6, wb, attraction, a-b-db, 5, 3, 5, 18, 117, 190, 120, 195, 195, 120, 3, 1.07557
246, 6, wb, attraction, a-b-da, 14, 2, 5, 19, 90, 165, 165, 90, 153, 83, 3, 4.07785
246, 6, wb, attraction, a-b-da, 14, 2, 5, 19, 90, 165, 165, 90, 153, 83, 1, 4.80074
246, 6, wb, attraction, a-b-da, 9, 3, 5, 20, 186, 114, 120, 195, 195, 120, 1, 8.66097
246, 6, wb, attraction, a-b-da, 9, 3, 5, 20, 186, 114, 120, 195, 195, 120, 3, 5.2709
246, 6, wb, attraction, a-b-da, 14, 1, 5, 21, 60, 135, 125, 56, 135, 60, 2, 2.71265
246, 6, wb, attraction, a-b-da, 14, 1, 5, 21, 60, 135, 125, 56, 135, 60, 1, 11.0745
246, 6, wb, attraction, a-b-da, 2, 2, 5, 22, 165, 90, 163, 89, 90, 165, 3, 10.5783
246, 6, wb, attraction, a-b-da, 2, 2, 5, 22, 165, 90, 163, 89, 90, 165, 1, 2.98296
246, 6, wb, filler, NA, 999, 999, 5, 23, 118, 98, 145, 175, 66, 110, 3, 1.92448
246, 6, wb, filler, NA, 999, 999, 5, 23, 118, 98, 145, 175, 66, 110, 2, 0.46997
246, 6, wb, attraction, a-b-da, 5, 3, 5, 24, 120, 195, 190, 117, 195, 120, 2, 5.92104
246, 6, wb, attraction, a-b-da, 5, 3, 5, 24, 120, 195, 190, 117, 195, 120, 1, 2.91313
246, 6, wb, attraction, a-b-da, 2, 3, 5, 25, 120, 195, 193, 119, 195, 120, 2, 3.39362
246, 6, wb, attraction, a-b-da, 2, 3, 5, 25, 120, 195, 193, 119, 195, 120, 1, 6.07182
246, 6, wb, attraction, a-b-da, 9, 2, 5, 26, 157, 86, 90, 165, 165, 90, 1, 15.8892
246, 6, wb, attraction, a-b-da, 9, 2, 5, 26, 157, 86, 90, 165, 165, 90, 2, 3.97629
246, 6, wb, attraction, a-b-db, 9, 3, 5, 27, 120, 195, 114, 186, 195, 120, 2, 6.35756
246, 6, wb, attraction, a-b-db, 9, 3, 5, 27, 120, 195, 114, 186, 195, 120, 3, 0.916222
246, 6, wb, attraction, a-b-db, 5, 1, 5, 28, 60, 135, 135, 60, 58, 132, 3, 14.3972
246, 6, wb, attraction, a-b-db, 5, 1, 5, 28, 60, 135, 135, 60, 58, 132, 1, 3.92003
246, 6, wb, attraction, a-b-db, 2, 2, 5, 29, 89, 163, 165, 90, 90, 165, 1, 1.39202
246, 6, wb, attraction, a-b-db, 2, 2, 5, 29, 89, 163, 165, 90, 90, 165, 3, 0.478879
246, 6, wb, filler, NA, 999, 999, 5, 30, 74, 182, 161, 158, 111, 173, 1, 0.985313
246, 6, wb, filler, NA, 999, 999, 5, 30, 74, 182, 161, 158, 111, 173, 2, 0.592999
246, 6, wb, attraction, a-b-da, 9, 1, 5, 31, 135, 60, 60, 135, 129, 57, 3, 4.73477
246, 6, wb, attraction, a-b-da, 9, 1, 5, 31, 135, 60, 60, 135, 129, 57, 1, 0.78319
246, 6, wb, filler, NA, 999, 999, 5, 32, 191, 89, 180, 64, 106, 179, 2, 2.6457
246, 6, wb, filler, NA, 999, 999, 5, 32, 191, 89, 180, 64, 106, 179, 1, 3.9141
246, 6, wb, filler, NA, 999, 999, 5, 33, 82, 158, 128, 156, 154, 77, 1, 1.83414
246, 6, wb, filler, NA, 999, 999, 5, 33, 82, 158, 128, 156, 154, 77, 2, 0.519547
246, 6, wb, attraction, a-b-db, 5, 2, 5, 34, 90, 165, 88, 161, 165, 90, 2, 3.64865
246, 6, wb, attraction, a-b-db, 5, 2, 5, 34, 90, 165, 88, 161, 165, 90, 3, 2.66883
246, 6, wb, filler, NA, 999, 999, 5, 35, 115, 150, 91, 186, 120, 96, 3, 3.75943
246, 6, wb, filler, NA, 999, 999, 5, 35, 115, 150, 91, 186, 120, 96, 2, 7.65474
246, 6, wb, filler, NA, 999, 999, 5, 36, 125, 62, 140, 83, 73, 160, 1, 1.72021
246, 6, wb, filler, NA, 999, 999, 5, 36, 125, 62, 140, 83, 73, 160, 2, 0.57836
246, 6, wb, catch, NA, 999, 999, 5, 37, 114, 81, 150, 165, 127, 128, 1, 1.64895
246, 6, wb, catch, NA, 999, 999, 5, 37, 114, 81, 150, 165, 127, 128, 2, 0.509596
246, 6, wb, filler, NA, 999, 999, 6, 1, 67, 187, 159, 195, 190, 86, 1, 3.15068
246, 6, wb, filler, NA, 999, 999, 6, 1, 67, 187, 159, 195, 190, 86, 2, 0.487023
246, 6, wb, attraction, a-b-db, 14, 1, 6, 2, 56, 125, 135, 60, 60, 135, 1, 12.1136
246, 6, wb, attraction, a-b-db, 14, 1, 6, 2, 56, 125, 135, 60, 60, 135, 3, 1.8403
246, 6, wb, filler, NA, 999, 999, 6, 3, 143, 140, 156, 149, 76, 58, 3, 0.963809
246, 6, wb, filler, NA, 999, 999, 6, 3, 143, 140, 156, 149, 76, 58, 2, 3.89213
246, 6, wb, attraction, a-b-db, 5, 1, 6, 4, 60, 135, 135, 60, 58, 132, 1, 3.87692
246, 6, wb, attraction, a-b-db, 5, 1, 6, 4, 60, 135, 135, 60, 58, 132, 2, 6.11159
246, 6, wb, attraction, a-b-da, 9, 1, 6, 5, 60, 135, 129, 57, 135, 60, 2, 4.06293
246, 6, wb, attraction, a-b-da, 9, 1, 6, 5, 60, 135, 129, 57, 135, 60, 3, 14.7064
246, 6, wb, attraction, a-b-da, 5, 2, 6, 6, 161, 88, 165, 90, 90, 165, 1, 12.8157
246, 6, wb, attraction, a-b-da, 5, 2, 6, 6, 161, 88, 165, 90, 90, 165, 2, 2.74624
246, 6, wb, catch, NA, 999, 999, 6, 7, 142, 113, 139, 176, 98, 97, 3, 1.52939
246, 6, wb, catch, NA, 999, 999, 6, 7, 142, 113, 139, 176, 98, 97, 2, 0.690864
246, 6, wb, attraction, a-b-db, 5, 3, 6, 8, 195, 120, 120, 195, 117, 190, 3, 16.0686
246, 6, wb, attraction, a-b-db, 5, 3, 6, 8, 195, 120, 120, 195, 117, 190, 2, 1.43626
246, 6, wb, filler, NA, 999, 999, 6, 9, 66, 187, 177, 166, 80, 106, 3, 2.2723
246, 6, wb, filler, NA, 999, 999, 6, 9, 66, 187, 177, 166, 80, 106, 2, 0.915592
246, 6, wb, attraction, a-b-da, 2, 2, 6, 10, 163, 89, 165, 90, 90, 165, 3, 5.82856
246, 6, wb, attraction, a-b-da, 2, 2, 6, 10, 163, 89, 165, 90, 90, 165, 2, 3.01692
246, 6, wb, attraction, a-b-da, 9, 2, 6, 11, 165, 90, 157, 86, 90, 165, 1, 6.56506
246, 6, wb, attraction, a-b-da, 9, 2, 6, 11, 165, 90, 157, 86, 90, 165, 3, 0.643706
246, 6, wb, filler, NA, 999, 999, 6, 12, 121, 96, 170, 72, 157, 157, 2, 4.19941
246, 6, wb, filler, NA, 999, 999, 6, 12, 121, 96, 170, 72, 157, 157, 3, 0.669462
246, 6, wb, attraction, a-b-db, 9, 3, 6, 13, 120, 195, 114, 186, 195, 120, 2, 3.90446
246, 6, wb, attraction, a-b-db, 9, 3, 6, 13, 120, 195, 114, 186, 195, 120, 3, 4.67385
246, 6, wb, attraction, a-b-da, 2, 3, 6, 14, 193, 119, 120, 195, 195, 120, 2, 7.24381
246, 6, wb, attraction, a-b-da, 2, 3, 6, 14, 193, 119, 120, 195, 195, 120, 3, 4.94274
246, 6, wb, attraction, a-b-da, 9, 3, 6, 15, 195, 120, 186, 114, 120, 195, 2, 4.74123
246, 6, wb, attraction, a-b-da, 9, 3, 6, 15, 195, 120, 186, 114, 120, 195, 1, 3.24489
246, 6, wb, filler, NA, 999, 999, 6, 16, 147, 140, 182, 97, 120, 98, 3, 2.22399
246, 6, wb, filler, NA, 999, 999, 6, 16, 147, 140, 182, 97, 120, 98, 1, 2.15728
246, 6, wb, attraction, a-b-db, 14, 2, 6, 17, 83, 153, 165, 90, 90, 165, 1, 1.86786
246, 6, wb, attraction, a-b-db, 14, 2, 6, 17, 83, 153, 165, 90, 90, 165, 2, 0.687837
246, 6, wb, attraction, a-b-db, 2, 2, 6, 18, 90, 165, 165, 90, 89, 163, 2, 3.67423
246, 6, wb, attraction, a-b-db, 2, 2, 6, 18, 90, 165, 165, 90, 89, 163, 1, 2.349
246, 6, wb, filler, NA, 999, 999, 6, 19, 96, 142, 99, 166, 56, 160, 3, 4.1483
246, 6, wb, filler, NA, 999, 999, 6, 19, 96, 142, 99, 166, 56, 160, 2, 1.22838
246, 6, wb, filler, NA, 999, 999, 6, 20, 181, 143, 147, 92, 155, 161, 2, 1.86444
246, 6, wb, filler, NA, 999, 999, 6, 20, 181, 143, 147, 92, 155, 161, 1, 14.7966
246, 6, wb, attraction, a-b-da, 14, 1, 6, 21, 125, 56, 135, 60, 60, 135, 1, 3.92581
246, 6, wb, attraction, a-b-da, 14, 1, 6, 21, 125, 56, 135, 60, 60, 135, 2, 2.89453
246, 6, wb, filler, NA, 999, 999, 6, 22, 83, 172, 101, 100, 162, 133, 2, 1.55162
246, 6, wb, filler, NA, 999, 999, 6, 22, 83, 172, 101, 100, 162, 133, 3, 0.512549
246, 6, wb, catch, NA, 999, 999, 6, 23, 166, 149, 112, 83, 128, 127, 2, 1.55356
246, 6, wb, catch, NA, 999, 999, 6, 23, 166, 149, 112, 83, 128, 127, 1, 0.634393
246, 6, wb, attraction, a-b-da, 5, 1, 6, 24, 132, 58, 135, 60, 60, 135, 3, 4.95079
246, 6, wb, attraction, a-b-da, 5, 1, 6, 24, 132, 58, 135, 60, 60, 135, 1, 2.8706
246, 6, wb, filler, NA, 999, 999, 6, 25, 158, 74, 158, 171, 102, 171, 1, 2.51289
246, 6, wb, filler, NA, 999, 999, 6, 25, 158, 74, 158, 171, 102, 171, 2, 1.13876
246, 6, wb, attraction, a-b-da, 14, 3, 6, 26, 195, 120, 181, 111, 120, 195, 2, 5.67499
246, 6, wb, attraction, a-b-da, 14, 3, 6, 26, 195, 120, 181, 111, 120, 195, 1, 1.0533
246, 6, wb, attraction, a-b-db, 9, 2, 6, 27, 86, 157, 165, 90, 90, 165, 1, 3.64885
246, 6, wb, attraction, a-b-db, 9, 2, 6, 27, 86, 157, 165, 90, 90, 165, 3, 0.877008
246, 6, wb, attraction, a-b-da, 14, 2, 6, 28, 165, 90, 153, 83, 90, 165, 2, 2.02339
246, 6, wb, attraction, a-b-da, 14, 2, 6, 28, 165, 90, 153, 83, 90, 165, 1, 2.32474
246, 6, wb, attraction, a-b-db, 14, 3, 6, 29, 111, 181, 120, 195, 195, 120, 1, 1.90064
246, 6, wb, attraction, a-b-db, 14, 3, 6, 29, 111, 181, 120, 195, 195, 120, 3, 0.743334
246, 6, wb, attraction, a-b-db, 5, 2, 6, 30, 165, 90, 90, 165, 88, 161, 2, 3.071
246, 6, wb, attraction, a-b-db, 5, 2, 6, 30, 165, 90, 90, 165, 88, 161, 1, 0.842691
246, 6, wb, attraction, a-b-da, 5, 3, 6, 31, 190, 117, 120, 195, 195, 120, 2, 6.65459
246, 6, wb, attraction, a-b-da, 5, 3, 6, 31, 190, 117, 120, 195, 195, 120, 3, 0.705031
246, 6, wb, filler, NA, 999, 999, 6, 32, 193, 116, 115, 190, 135, 91, 3, 1.5706
246, 6, wb, filler, NA, 999, 999, 6, 32, 193, 116, 115, 190, 135, 91, 1, 0.746817
246, 6, wb, attraction, a-b-da, 2, 1, 6, 33, 135, 60, 60, 135, 134, 59, 2, 5.19461
246, 6, wb, attraction, a-b-da, 2, 1, 6, 33, 135, 60, 60, 135, 134, 59, 1, 0.640187
246, 6, wb, catch, NA, 999, 999, 6, 34, 81, 114, 144, 171, 165, 90, 1, 0.827998
246, 6, wb, catch, NA, 999, 999, 6, 34, 81, 114, 144, 171, 165, 90, 2, 1.00166
246, 6, wb, attraction, a-b-db, 2, 3, 6, 35, 195, 120, 120, 195, 119, 193, 2, 7.67128
246, 6, wb, attraction, a-b-db, 2, 3, 6, 35, 195, 120, 120, 195, 119, 193, 1, 0.601656
246, 6, wb, attraction, a-b-db, 2, 1, 6, 36, 60, 135, 135, 60, 59, 134, 3, 22.1353
246, 6, wb, attraction, a-b-db, 2, 1, 6, 36, 60, 135, 135, 60, 59, 134, 2, 1.04236
246, 6, wb, attraction, a-b-db, 9, 1, 6, 37, 57, 129, 135, 60, 60, 135, 2, 4.02998
246, 6, wb, attraction, a-b-db, 9, 1, 6, 37, 57, 129, 135, 60, 60, 135, 3, 0.538721
246, 6, wb, attraction, a-b-db, 14, 3, 7, 1, 195, 120, 111, 181, 120, 195, 2, 2.21907
246, 6, wb, attraction, a-b-db, 14, 3, 7, 1, 195, 120, 111, 181, 120, 195, 1, 0.569082
246, 6, wb, filler, NA, 999, 999, 7, 2, 86, 85, 121, 89, 138, 109, 1, 0.872107
246, 6, wb, filler, NA, 999, 999, 7, 2, 86, 85, 121, 89, 138, 109, 3, 0.651994
246, 6, wb, attraction, a-b-da, 14, 1, 7, 3, 60, 135, 135, 60, 125, 56, 1, 6.51955
246, 6, wb, attraction, a-b-da, 14, 1, 7, 3, 60, 135, 135, 60, 125, 56, 2, 0.552166
246, 6, wb, attraction, a-b-da, 14, 3, 7, 4, 120, 195, 181, 111, 195, 120, 2, 1.87193
246, 6, wb, attraction, a-b-da, 14, 3, 7, 4, 120, 195, 181, 111, 195, 120, 3, 0.507359
246, 6, wb, filler, NA, 999, 999, 7, 5, 123, 73, 105, 102, 190, 146, 1, 2.03646
246, 6, wb, filler, NA, 999, 999, 7, 5, 123, 73, 105, 102, 190, 146, 3, 0.53785
246, 6, wb, attraction, a-b-db, 9, 2, 7, 6, 165, 90, 86, 157, 90, 165, 2, 3.10625
246, 6, wb, attraction, a-b-db, 9, 2, 7, 6, 165, 90, 86, 157, 90, 165, 1, 0.451931
246, 6, wb, attraction, a-b-da, 5, 2, 7, 7, 90, 165, 165, 90, 161, 88, 1, 5.65577
246, 6, wb, attraction, a-b-da, 5, 2, 7, 7, 90, 165, 165, 90, 161, 88, 2, 0.491273
246, 6, wb, filler, NA, 999, 999, 7, 8, 154, 67, 91, 121, 107, 71, 3, 5.70108
246, 6, wb, filler, NA, 999, 999, 7, 8, 154, 67, 91, 121, 107, 71, 2, 4.64653
246, 6, wb, attraction, a-b-da, 9, 3, 7, 9, 120, 195, 186, 114, 195, 120, 2, 1.921
246, 6, wb, attraction, a-b-da, 9, 3, 7, 9, 120, 195, 186, 114, 195, 120, 3, 0.442526
246, 6, wb, filler, NA, 999, 999, 7, 10, 120, 149, 110, 191, 132, 83, 3, 1.62227
246, 6, wb, filler, NA, 999, 999, 7, 10, 120, 149, 110, 191, 132, 83, 2, 1.30777
246, 6, wb, catch, NA, 999, 999, 7, 11, 122, 73, 92, 163, 131, 184, 1, 1.65255
246, 6, wb, catch, NA, 999, 999, 7, 11, 122, 73, 92, 163, 131, 184, 3, 0.553458
246, 6, wb, attraction, a-b-da, 2, 2, 7, 12, 165, 90, 90, 165, 163, 89, 3, 6.28114
246, 6, wb, attraction, a-b-da, 2, 2, 7, 12, 165, 90, 90, 165, 163, 89, 1, 0.763211
246, 6, wb, attraction, a-b-da, 14, 2, 7, 13, 153, 83, 90, 165, 165, 90, 1, 6.54617
246, 6, wb, attraction, a-b-da, 14, 2, 7, 13, 153, 83, 90, 165, 165, 90, 3, 0.561505
246, 6, wb, attraction, a-b-db, 5, 1, 7, 14, 60, 135, 58, 132, 135, 60, 2, 5.4886
246, 6, wb, attraction, a-b-db, 5, 1, 7, 14, 60, 135, 58, 132, 135, 60, 1, 8.74624
246, 6, wb, attraction, a-b-da, 2, 3, 7, 15, 193, 119, 120, 195, 195, 120, 3, 7.59131
246, 6, wb, attraction, a-b-da, 2, 3, 7, 15, 193, 119, 120, 195, 195, 120, 1, 2.26021
246, 6, wb, attraction, a-b-db, 9, 3, 7, 16, 114, 186, 120, 195, 195, 120, 1, 5.10278
246, 6, wb, attraction, a-b-db, 9, 3, 7, 16, 114, 186, 120, 195, 195, 120, 3, 0.928652
246, 6, wb, attraction, a-b-da, 2, 1, 7, 17, 60, 135, 134, 59, 135, 60, 2, 6.40104
246, 6, wb, attraction, a-b-da, 2, 1, 7, 17, 60, 135, 134, 59, 135, 60, 1, 3.05425
246, 6, wb, attraction, a-b-db, 14, 2, 7, 18, 165, 90, 90, 165, 83, 153, 3, 1.81726
246, 6, wb, attraction, a-b-db, 14, 2, 7, 18, 165, 90, 90, 165, 83, 153, 1, 0.783242
246, 6, wb, attraction, a-b-da, 5, 1, 7, 19, 135, 60, 60, 135, 132, 58, 2, 2.13357
246, 6, wb, attraction, a-b-da, 5, 1, 7, 19, 135, 60, 60, 135, 132, 58, 1, 0.590898
246, 6, wb, attraction, a-b-db, 2, 1, 7, 20, 135, 60, 60, 135, 59, 134, 2, 2.66058
246, 6, wb, attraction, a-b-db, 2, 1, 7, 20, 135, 60, 60, 135, 59, 134, 1, 1.25651
246, 6, wb, filler, NA, 999, 999, 7, 21, 65, 160, 179, 106, 122, 105, 1, 1.05127
246, 6, wb, filler, NA, 999, 999, 7, 21, 65, 160, 179, 106, 122, 105, 2, 0.448398
246, 6, wb, catch, NA, 999, 999, 7, 22, 129, 66, 170, 145, 153, 102, 1, 0.948102
246, 6, wb, catch, NA, 999, 999, 7, 22, 129, 66, 170, 145, 153, 102, 2, 0.477088
246, 6, wb, attraction, a-b-db, 14, 1, 7, 23, 135, 60, 60, 135, 56, 125, 3, 6.80769
246, 6, wb, attraction, a-b-db, 14, 1, 7, 23, 135, 60, 60, 135, 56, 125, 1, 2.44405
246, 6, wb, filler, NA, 999, 999, 7, 24, 134, 193, 170, 127, 153, 160, 3, 7.53521
246, 6, wb, filler, NA, 999, 999, 7, 24, 134, 193, 170, 127, 153, 160, 1, 0.838867
246, 6, wb, attraction, a-b-db, 5, 3, 7, 25, 195, 120, 120, 195, 117, 190, 3, 2.23523
246, 6, wb, attraction, a-b-db, 5, 3, 7, 25, 195, 120, 120, 195, 117, 190, 1, 1.0085
246, 6, wb, attraction, a-b-db, 2, 3, 7, 26, 119, 193, 195, 120, 120, 195, 2, 6.22163
246, 6, wb, attraction, a-b-db, 2, 3, 7, 26, 119, 193, 195, 120, 120, 195, 1, 2.10616
246, 6, wb, attraction, a-b-da, 9, 1, 7, 27, 135, 60, 129, 57, 60, 135, 2, 1.80344
246, 6, wb, attraction, a-b-da, 9, 1, 7, 27, 135, 60, 129, 57, 60, 135, 1, 0.514336
246, 6, wb, filler, NA, 999, 999, 7, 28, 75, 142, 130, 155, 175, 64, 1, 1.76328
246, 6, wb, filler, NA, 999, 999, 7, 28, 75, 142, 130, 155, 175, 64, 2, 0.491491
246, 6, wb, catch, NA, 999, 999, 7, 29, 141, 114, 179, 136, 113, 82, 3, 1.42113
246, 6, wb, catch, NA, 999, 999, 7, 29, 141, 114, 179, 136, 113, 82, 2, 0.482693
246, 6, wb, filler, NA, 999, 999, 7, 30, 103, 149, 96, 123, 128, 78, 3, 3.34934
246, 6, wb, filler, NA, 999, 999, 7, 30, 103, 149, 96, 123, 128, 78, 1, 0.80546
246, 6, wb, filler, NA, 999, 999, 7, 31, 193, 169, 170, 151, 118, 144, 3, 1.67512
246, 6, wb, filler, NA, 999, 999, 7, 31, 193, 169, 170, 151, 118, 144, 1, 0.598568
246, 6, wb, attraction, a-b-db, 9, 1, 7, 32, 57, 129, 135, 60, 60, 135, 2, 7.18032
246, 6, wb, attraction, a-b-db, 9, 1, 7, 32, 57, 129, 135, 60, 60, 135, 3, 0.586136
246, 6, wb, attraction, a-b-db, 2, 2, 7, 33, 89, 163, 165, 90, 90, 165, 2, 5.56048
246, 6, wb, attraction, a-b-db, 2, 2, 7, 33, 89, 163, 165, 90, 90, 165, 3, 0.615522
246, 6, wb, attraction, a-b-da, 9, 2, 7, 34, 90, 165, 165, 90, 157, 86, 3, 11.4125
246, 6, wb, attraction, a-b-da, 9, 2, 7, 34, 90, 165, 165, 90, 157, 86, 2, 0.575611
246, 6, wb, filler, NA, 999, 999, 7, 35, 76, 167, 144, 185, 151, 148, 1, 1.27798
246, 6, wb, filler, NA, 999, 999, 7, 35, 76, 167, 144, 185, 151, 148, 2, 0.761573
246, 6, wb, attraction, a-b-da, 5, 3, 7, 36, 190, 117, 120, 195, 195, 120, 3, 8.6006
246, 6, wb, attraction, a-b-da, 5, 3, 7, 36, 190, 117, 120, 195, 195, 120, 1, 0.517295
246, 6, wb, attraction, a-b-db, 5, 2, 7, 37, 90, 165, 165, 90, 88, 161, 2, 4.81427
246, 6, wb, attraction, a-b-db, 5, 2, 7, 37, 90, 165, 165, 90, 88, 161, 1, 1.45144
246, 6, wb, attraction, a-b-db, 2, 1, 8, 1, 135, 60, 60, 135, 59, 134, 3, 2.39096
246, 6, wb, attraction, a-b-db, 2, 1, 8, 1, 135, 60, 60, 135, 59, 134, 1, 1.01353
246, 6, wb, attraction, a-b-db, 14, 2, 8, 2, 90, 165, 83, 153, 165, 90, 2, 1.36246
246, 6, wb, attraction, a-b-db, 14, 2, 8, 2, 90, 165, 83, 153, 165, 90, 3, 4.39471
246, 6, wb, attraction, a-b-da, 2, 2, 8, 3, 163, 89, 165, 90, 90, 165, 3, 4.15126
246, 6, wb, attraction, a-b-da, 2, 2, 8, 3, 163, 89, 165, 90, 90, 165, 1, 6.31144
246, 6, wb, catch, NA, 999, 999, 8, 4, 162, 93, 95, 100, 167, 148, 2, 0.910482
246, 6, wb, catch, NA, 999, 999, 8, 4, 162, 93, 95, 100, 167, 148, 3, 0.481047
246, 6, wb, attraction, a-b-db, 5, 1, 8, 5, 58, 132, 60, 135, 135, 60, 2, 8.17139
246, 6, wb, attraction, a-b-db, 5, 1, 8, 5, 58, 132, 60, 135, 135, 60, 3, 3.32948
246, 6, wb, attraction, a-b-da, 2, 1, 8, 6, 135, 60, 60, 135, 134, 59, 2, 3.52117
246, 6, wb, attraction, a-b-da, 2, 1, 8, 6, 135, 60, 60, 135, 134, 59, 1, 0.538548
246, 6, wb, attraction, a-b-db, 14, 3, 8, 7, 195, 120, 111, 181, 120, 195, 2, 2.33902
246, 6, wb, attraction, a-b-db, 14, 3, 8, 7, 195, 120, 111, 181, 120, 195, 1, 0.515725
246, 6, wb, attraction, a-b-da, 5, 1, 8, 8, 132, 58, 135, 60, 60, 135, 3, 5.24475
246, 6, wb, attraction, a-b-da, 5, 1, 8, 8, 132, 58, 135, 60, 60, 135, 1, 2.80038
246, 6, wb, attraction, a-b-da, 5, 2, 8, 9, 161, 88, 165, 90, 90, 165, 1, 9.42143
246, 6, wb, attraction, a-b-da, 5, 2, 8, 9, 161, 88, 165, 90, 90, 165, 3, 0.497139
246, 6, wb, attraction, a-b-db, 9, 2, 8, 10, 86, 157, 165, 90, 90, 165, 2, 13.6589
246, 6, wb, attraction, a-b-db, 9, 2, 8, 10, 86, 157, 165, 90, 90, 165, 3, 0.595375
246, 6, wb, attraction, a-b-db, 5, 3, 8, 11, 195, 120, 117, 190, 120, 195, 2, 3.22525
246, 6, wb, attraction, a-b-db, 5, 3, 8, 11, 195, 120, 117, 190, 120, 195, 1, 1.15819
246, 6, wb, filler, NA, 999, 999, 8, 12, 155, 62, 85, 87, 148, 183, 2, 0.972883
246, 6, wb, filler, NA, 999, 999, 8, 12, 155, 62, 85, 87, 148, 183, 3, 1.00457
246, 6, wb, attraction, a-b-db, 9, 3, 8, 13, 114, 186, 195, 120, 120, 195, 1, 6.74619
246, 6, wb, attraction, a-b-db, 9, 3, 8, 13, 114, 186, 195, 120, 120, 195, 3, 0.569526
246, 6, wb, filler, NA, 999, 999, 8, 14, 91, 85, 151, 142, 119, 160, 1, 0.792603
246, 6, wb, filler, NA, 999, 999, 8, 14, 91, 85, 151, 142, 119, 160, 2, 1.14361
246, 6, wb, attraction, a-b-da, 5, 3, 8, 15, 190, 117, 120, 195, 195, 120, 2, 4.64713
246, 6, wb, attraction, a-b-da, 5, 3, 8, 15, 190, 117, 120, 195, 195, 120, 3, 4.56311
246, 6, wb, attraction, a-b-da, 9, 2, 8, 16, 157, 86, 90, 165, 165, 90, 1, 6.76099
246, 6, wb, attraction, a-b-da, 9, 2, 8, 16, 157, 86, 90, 165, 165, 90, 3, 2.91148
246, 6, wb, attraction, a-b-db, 2, 3, 8, 17, 120, 195, 119, 193, 195, 120, 2, 19.208
246, 6, wb, attraction, a-b-db, 2, 3, 8, 17, 120, 195, 119, 193, 195, 120, 3, 2.19307
246, 6, wb, attraction, a-b-da, 9, 1, 8, 18, 60, 135, 129, 57, 135, 60, 2, 2.15837
246, 6, wb, attraction, a-b-da, 9, 1, 8, 18, 60, 135, 129, 57, 135, 60, 1, 3.39831
246, 6, wb, filler, NA, 999, 999, 8, 19, 152, 135, 174, 103, 115, 111, 3, 4.61119
246, 6, wb, filler, NA, 999, 999, 8, 19, 152, 135, 174, 103, 115, 111, 1, 0.736338
246, 6, wb, attraction, a-b-da, 14, 1, 8, 20, 125, 56, 60, 135, 135, 60, 1, 2.6087
246, 6, wb, attraction, a-b-da, 14, 1, 8, 20, 125, 56, 60, 135, 135, 60, 2, 1.06265
246, 6, wb, filler, NA, 999, 999, 8, 21, 149, 168, 86, 180, 100, 158, 2, 2.30547
246, 6, wb, filler, NA, 999, 999, 8, 21, 149, 168, 86, 180, 100, 158, 1, 0.499367
246, 6, wb, filler, NA, 999, 999, 8, 22, 193, 71, 174, 139, 107, 187, 1, 1.05333
246, 6, wb, filler, NA, 999, 999, 8, 22, 193, 71, 174, 139, 107, 187, 2, 0.794158
246, 6, wb, catch, NA, 999, 999, 8, 23, 179, 136, 150, 105, 71, 124, 3, 1.20787
246, 6, wb, catch, NA, 999, 999, 8, 23, 179, 136, 150, 105, 71, 124, 1, 0.526203
246, 6, wb, filler, NA, 999, 999, 8, 24, 109, 96, 155, 101, 83, 153, 3, 10.5267
246, 6, wb, filler, NA, 999, 999, 8, 24, 109, 96, 155, 101, 83, 153, 2, 0.709305
246, 6, wb, filler, NA, 999, 999, 8, 25, 127, 133, 125, 115, 66, 158, 3, 4.18239
246, 6, wb, filler, NA, 999, 999, 8, 25, 127, 133, 125, 115, 66, 158, 1, 0.90105
246, 6, wb, attraction, a-b-da, 2, 3, 8, 26, 120, 195, 193, 119, 195, 120, 3, 31.1986
246, 6, wb, attraction, a-b-da, 2, 3, 8, 26, 120, 195, 193, 119, 195, 120, 2, 3.94022
246, 6, wb, attraction, a-b-da, 14, 3, 8, 27, 120, 195, 195, 120, 181, 111, 3, 5.89963
246, 6, wb, attraction, a-b-da, 14, 3, 8, 27, 120, 195, 195, 120, 181, 111, 1, 0.692999
246, 6, wb, attraction, a-b-db, 14, 1, 8, 28, 135, 60, 60, 135, 56, 125, 3, 2.2387
246, 6, wb, attraction, a-b-db, 14, 1, 8, 28, 135, 60, 60, 135, 56, 125, 1, 0.987301
246, 6, wb, catch, NA, 999, 999, 8, 29, 129, 186, 98, 97, 160, 95, 2, 1.07377
246, 6, wb, catch, NA, 999, 999, 8, 29, 129, 186, 98, 97, 160, 95, 1, 0.541292
246, 6, wb, filler, NA, 999, 999, 8, 30, 73, 65, 142, 111, 132, 93, 1, 0.741073
246, 6, wb, filler, NA, 999, 999, 8, 30, 73, 65, 142, 111, 132, 93, 2, 1.27812
246, 6, wb, attraction, a-b-da, 14, 2, 8, 31, 165, 90, 153, 83, 90, 165, 2, 2.35238
246, 6, wb, attraction, a-b-da, 14, 2, 8, 31, 165, 90, 153, 83, 90, 165, 1, 3.08903
246, 6, wb, attraction, a-b-db, 9, 1, 8, 32, 57, 129, 60, 135, 135, 60, 1, 2.76251
246, 6, wb, attraction, a-b-db, 9, 1, 8, 32, 57, 129, 60, 135, 135, 60, 2, 3.57045
246, 6, wb, filler, NA, 999, 999, 8, 33, 84, 168, 131, 103, 139, 179, 2, 2.24869
246, 6, wb, filler, NA, 999, 999, 8, 33, 84, 168, 131, 103, 139, 179, 3, 0.437134
246, 6, wb, attraction, a-b-db, 5, 2, 8, 34, 90, 165, 88, 161, 165, 90, 3, 11.5856
246, 6, wb, attraction, a-b-db, 5, 2, 8, 34, 90, 165, 88, 161, 165, 90, 1, 1.02202
246, 6, wb, attraction, a-b-da, 9, 3, 8, 35, 195, 120, 186, 114, 120, 195, 2, 18.2351
246, 6, wb, attraction, a-b-da, 9, 3, 8, 35, 195, 120, 186, 114, 120, 195, 1, 2.50722
246, 6, wb, attraction, a-b-db, 2, 2, 8, 36, 90, 165, 89, 163, 165, 90, 2, 5.05168
246, 6, wb, attraction, a-b-db, 2, 2, 8, 36, 90, 165, 89, 163, 165, 90, 1, 2.39136
246, 6, wb, filler, NA, 999, 999, 8, 37, 109, 71, 103, 163, 86, 132, 1, 1.30056
246, 6, wb, filler, NA, 999, 999, 8, 37, 109, 71, 103, 163, 86, 132, 2, 0.775612
