sub_n, computer_n, bw_cond, effect, set, distance, diag, block_n, trial_n, h1, w1, h2, w2, h3, w3, choice, rt 
256, 6, wb, practice, NA, 999, 999, 0, 1, 152, 141, 78, 156, 75, 128, 3, 3.05624
256, 6, wb, practice, NA, 999, 999, 0, 1, 152, 141, 78, 156, 75, 128, 1, 2.60441
256, 6, wb, practice, NA, 999, 999, 0, 2, 67, 61, 192, 109, 62, 182, 1, 1.56712
256, 6, wb, practice, NA, 999, 999, 0, 2, 67, 61, 192, 109, 62, 182, 2, 1.02984
256, 6, wb, practice, NA, 999, 999, 0, 3, 187, 123, 183, 58, 161, 118, 2, 4.7123
256, 6, wb, practice, NA, 999, 999, 0, 3, 187, 123, 183, 58, 161, 118, 1, 0.912992
256, 6, wb, filler, NA, 999, 999, 1, 1, 193, 109, 139, 156, 118, 172, 1, 10.8829
256, 6, wb, filler, NA, 999, 999, 1, 1, 193, 109, 139, 156, 118, 172, 3, 1.52353
256, 6, wb, attraction, a-b-db, 2, 1, 1, 2, 135, 60, 59, 134, 60, 135, 2, 3.33966
256, 6, wb, attraction, a-b-db, 2, 1, 1, 2, 135, 60, 59, 134, 60, 135, 1, 3.57986
256, 6, wb, attraction, a-b-db, 9, 2, 1, 3, 86, 157, 90, 165, 165, 90, 1, 5.96924
256, 6, wb, attraction, a-b-db, 9, 2, 1, 3, 86, 157, 90, 165, 165, 90, 3, 0.856068
256, 6, wb, attraction, a-b-db, 5, 3, 1, 4, 117, 190, 120, 195, 195, 120, 2, 3.235
256, 6, wb, attraction, a-b-db, 5, 3, 1, 4, 117, 190, 120, 195, 195, 120, 3, 0.751993
256, 6, wb, attraction, a-b-da, 2, 3, 1, 5, 120, 195, 193, 119, 195, 120, 1, 1.89572
256, 6, wb, attraction, a-b-da, 2, 3, 1, 5, 120, 195, 193, 119, 195, 120, 2, 0.986408
256, 6, wb, filler, NA, 999, 999, 1, 6, 75, 189, 117, 114, 186, 154, 2, 1.28864
256, 6, wb, filler, NA, 999, 999, 1, 6, 75, 189, 117, 114, 186, 154, 3, 0.851767
256, 6, wb, catch, NA, 999, 999, 1, 7, 93, 102, 180, 135, 99, 156, 1, 1.42333
256, 6, wb, catch, NA, 999, 999, 1, 7, 93, 102, 180, 135, 99, 156, 2, 1.10101
256, 6, wb, attraction, a-b-da, 14, 2, 1, 8, 90, 165, 153, 83, 165, 90, 2, 2.26247
256, 6, wb, attraction, a-b-da, 14, 2, 1, 8, 90, 165, 153, 83, 165, 90, 3, 0.450475
256, 6, wb, attraction, a-b-db, 2, 3, 1, 9, 119, 193, 120, 195, 195, 120, 2, 3.64614
256, 6, wb, attraction, a-b-db, 2, 3, 1, 9, 119, 193, 120, 195, 195, 120, 1, 1.3383
256, 6, wb, attraction, a-b-da, 14, 3, 1, 10, 120, 195, 181, 111, 195, 120, 2, 1.6185
256, 6, wb, attraction, a-b-da, 14, 3, 1, 10, 120, 195, 181, 111, 195, 120, 1, 0.488738
256, 6, wb, attraction, a-b-da, 2, 2, 1, 11, 165, 90, 90, 165, 163, 89, 2, 2.77907
256, 6, wb, attraction, a-b-da, 2, 2, 1, 11, 165, 90, 90, 165, 163, 89, 1, 1.54623
256, 6, wb, attraction, a-b-da, 2, 1, 1, 12, 135, 60, 60, 135, 134, 59, 2, 1.44969
256, 6, wb, attraction, a-b-da, 2, 1, 1, 12, 135, 60, 60, 135, 134, 59, 3, 0.598526
256, 6, wb, filler, NA, 999, 999, 1, 13, 140, 70, 89, 148, 170, 89, 2, 0.836286
256, 6, wb, filler, NA, 999, 999, 1, 13, 140, 70, 89, 148, 170, 89, 3, 4.52204
256, 6, wb, attraction, a-b-db, 9, 1, 1, 14, 60, 135, 57, 129, 135, 60, 3, 4.64196
256, 6, wb, attraction, a-b-db, 9, 1, 1, 14, 60, 135, 57, 129, 135, 60, 1, 1.39774
256, 6, wb, catch, NA, 999, 999, 1, 15, 152, 163, 95, 100, 147, 108, 2, 1.37128
256, 6, wb, catch, NA, 999, 999, 1, 15, 152, 163, 95, 100, 147, 108, 1, 0.818832
256, 6, wb, attraction, a-b-db, 5, 1, 1, 16, 60, 135, 58, 132, 135, 60, 3, 2.71986
256, 6, wb, attraction, a-b-db, 5, 1, 1, 16, 60, 135, 58, 132, 135, 60, 1, 1.5216
256, 6, wb, attraction, a-b-db, 14, 1, 1, 17, 56, 125, 135, 60, 60, 135, 1, 2.08247
256, 6, wb, attraction, a-b-db, 14, 1, 1, 17, 56, 125, 135, 60, 60, 135, 2, 1.14171
256, 6, wb, catch, NA, 999, 999, 1, 18, 115, 80, 166, 149, 114, 141, 1, 2.30129
256, 6, wb, catch, NA, 999, 999, 1, 18, 115, 80, 166, 149, 114, 141, 2, 1.01583
256, 6, wb, filler, NA, 999, 999, 1, 19, 63, 152, 122, 115, 113, 174, 1, 1.06886
256, 6, wb, filler, NA, 999, 999, 1, 19, 63, 152, 122, 115, 113, 174, 3, 0.961114
256, 6, wb, attraction, a-b-da, 5, 1, 1, 20, 60, 135, 132, 58, 135, 60, 3, 2.08012
256, 6, wb, attraction, a-b-da, 5, 1, 1, 20, 60, 135, 132, 58, 135, 60, 1, 0.899428
256, 6, wb, filler, NA, 999, 999, 1, 21, 185, 69, 98, 99, 72, 80, 3, 0.733174
256, 6, wb, filler, NA, 999, 999, 1, 21, 185, 69, 98, 99, 72, 80, 1, 1.3109
256, 6, wb, filler, NA, 999, 999, 1, 22, 179, 64, 69, 163, 176, 128, 2, 1.55175
256, 6, wb, filler, NA, 999, 999, 1, 22, 179, 64, 69, 163, 176, 128, 3, 0.488577
256, 6, wb, filler, NA, 999, 999, 1, 23, 172, 63, 73, 170, 107, 105, 3, 6.93108
256, 6, wb, filler, NA, 999, 999, 1, 23, 172, 63, 73, 170, 107, 105, 1, 1.53083
256, 6, wb, attraction, a-b-db, 14, 3, 1, 24, 120, 195, 195, 120, 111, 181, 3, 1.99499
256, 6, wb, attraction, a-b-db, 14, 3, 1, 24, 120, 195, 195, 120, 111, 181, 1, 0.729643
256, 6, wb, attraction, a-b-da, 14, 1, 1, 25, 60, 135, 135, 60, 125, 56, 1, 1.61014
256, 6, wb, attraction, a-b-da, 14, 1, 1, 25, 60, 135, 135, 60, 125, 56, 3, 0.804527
256, 6, wb, attraction, a-b-da, 5, 3, 1, 26, 195, 120, 190, 117, 120, 195, 2, 4.39792
256, 6, wb, attraction, a-b-da, 5, 3, 1, 26, 195, 120, 190, 117, 120, 195, 3, 2.10781
256, 6, wb, attraction, a-b-da, 9, 1, 1, 27, 60, 135, 129, 57, 135, 60, 2, 2.14038
256, 6, wb, attraction, a-b-da, 9, 1, 1, 27, 60, 135, 129, 57, 135, 60, 3, 0.413051
256, 6, wb, attraction, a-b-db, 14, 2, 1, 28, 165, 90, 90, 165, 83, 153, 3, 2.27431
256, 6, wb, attraction, a-b-db, 14, 2, 1, 28, 165, 90, 90, 165, 83, 153, 1, 0.765407
256, 6, wb, attraction, a-b-db, 9, 3, 1, 29, 120, 195, 114, 186, 195, 120, 2, 1.61246
256, 6, wb, attraction, a-b-db, 9, 3, 1, 29, 120, 195, 114, 186, 195, 120, 3, 0.562578
256, 6, wb, filler, NA, 999, 999, 1, 30, 195, 157, 76, 140, 170, 91, 2, 0.633792
256, 6, wb, filler, NA, 999, 999, 1, 30, 195, 157, 76, 140, 170, 91, 1, 0.54365
256, 6, wb, attraction, a-b-da, 9, 3, 1, 31, 186, 114, 120, 195, 195, 120, 1, 3.95135
256, 6, wb, attraction, a-b-da, 9, 3, 1, 31, 186, 114, 120, 195, 195, 120, 3, 0.663289
256, 6, wb, filler, NA, 999, 999, 1, 32, 71, 66, 149, 148, 69, 57, 1, 1.09836
256, 6, wb, filler, NA, 999, 999, 1, 32, 71, 66, 149, 148, 69, 57, 2, 0.661317
256, 6, wb, attraction, a-b-da, 5, 2, 1, 33, 165, 90, 90, 165, 161, 88, 1, 1.63235
256, 6, wb, attraction, a-b-da, 5, 2, 1, 33, 165, 90, 90, 165, 161, 88, 2, 0.661896
256, 6, wb, attraction, a-b-db, 5, 2, 1, 34, 165, 90, 90, 165, 88, 161, 1, 2.3849
256, 6, wb, attraction, a-b-db, 5, 2, 1, 34, 165, 90, 90, 165, 88, 161, 2, 0.824178
256, 6, wb, filler, NA, 999, 999, 1, 35, 171, 116, 135, 57, 162, 150, 2, 1.00449
256, 6, wb, filler, NA, 999, 999, 1, 35, 171, 116, 135, 57, 162, 150, 3, 0.394897
256, 6, wb, attraction, a-b-da, 9, 2, 1, 36, 157, 86, 90, 165, 165, 90, 1, 1.89663
256, 6, wb, attraction, a-b-da, 9, 2, 1, 36, 157, 86, 90, 165, 165, 90, 2, 0.491299
256, 6, wb, attraction, a-b-db, 2, 2, 1, 37, 165, 90, 90, 165, 89, 163, 3, 5.12512
256, 6, wb, attraction, a-b-db, 2, 2, 1, 37, 165, 90, 90, 165, 89, 163, 2, 0.573625
256, 6, wb, attraction, a-b-db, 5, 2, 2, 1, 165, 90, 90, 165, 88, 161, 1, 1.90807
256, 6, wb, attraction, a-b-db, 5, 2, 2, 1, 165, 90, 90, 165, 88, 161, 2, 0.974091
256, 6, wb, filler, NA, 999, 999, 2, 2, 96, 129, 162, 122, 66, 91, 3, 1.06033
256, 6, wb, filler, NA, 999, 999, 2, 2, 96, 129, 162, 122, 66, 91, 2, 0.520574
256, 6, wb, filler, NA, 999, 999, 2, 3, 190, 67, 60, 161, 112, 136, 2, 2.12181
256, 6, wb, filler, NA, 999, 999, 2, 3, 190, 67, 60, 161, 112, 136, 3, 0.379008
256, 6, wb, filler, NA, 999, 999, 2, 4, 58, 95, 177, 144, 90, 180, 1, 1.6175
256, 6, wb, filler, NA, 999, 999, 2, 4, 58, 95, 177, 144, 90, 180, 2, 0.51164
256, 6, wb, attraction, a-b-db, 14, 3, 2, 5, 195, 120, 111, 181, 120, 195, 1, 3.12072
256, 6, wb, attraction, a-b-db, 14, 3, 2, 5, 195, 120, 111, 181, 120, 195, 2, 0.401844
256, 6, wb, filler, NA, 999, 999, 2, 6, 112, 88, 183, 138, 92, 189, 1, 0.639649
256, 6, wb, filler, NA, 999, 999, 2, 6, 112, 88, 183, 138, 92, 189, 2, 0.412843
256, 6, wb, attraction, a-b-da, 14, 2, 2, 7, 153, 83, 90, 165, 165, 90, 1, 1.16977
256, 6, wb, attraction, a-b-da, 14, 2, 2, 7, 153, 83, 90, 165, 165, 90, 2, 0.554109
256, 6, wb, attraction, a-b-da, 9, 3, 2, 8, 195, 120, 120, 195, 186, 114, 1, 1.36986
256, 6, wb, attraction, a-b-da, 9, 3, 2, 8, 195, 120, 120, 195, 186, 114, 2, 0.79341
256, 6, wb, filler, NA, 999, 999, 2, 9, 167, 77, 135, 182, 101, 155, 3, 1.55908
256, 6, wb, filler, NA, 999, 999, 2, 9, 167, 77, 135, 182, 101, 155, 2, 0.511373
256, 6, wb, attraction, a-b-da, 14, 1, 2, 10, 60, 135, 125, 56, 135, 60, 2, 2.5124
256, 6, wb, attraction, a-b-da, 14, 1, 2, 10, 60, 135, 125, 56, 135, 60, 1, 2.05833
256, 6, wb, attraction, a-b-db, 9, 3, 2, 11, 120, 195, 195, 120, 114, 186, 3, 3.35692
256, 6, wb, attraction, a-b-db, 9, 3, 2, 11, 120, 195, 195, 120, 114, 186, 2, 0.452506
256, 6, wb, attraction, a-b-db, 5, 3, 2, 12, 117, 190, 195, 120, 120, 195, 3, 2.55227
256, 6, wb, attraction, a-b-db, 5, 3, 2, 12, 117, 190, 195, 120, 120, 195, 2, 0.576725
256, 6, wb, attraction, a-b-db, 9, 2, 2, 13, 86, 157, 90, 165, 165, 90, 3, 3.16717
256, 6, wb, attraction, a-b-db, 9, 2, 2, 13, 86, 157, 90, 165, 165, 90, 1, 0.526866
256, 6, wb, attraction, a-b-da, 2, 1, 2, 14, 60, 135, 135, 60, 134, 59, 2, 2.57534
256, 6, wb, attraction, a-b-da, 2, 1, 2, 14, 60, 135, 135, 60, 134, 59, 1, 1.30252
256, 6, wb, filler, NA, 999, 999, 2, 15, 127, 141, 114, 121, 71, 65, 3, 1.85601
256, 6, wb, filler, NA, 999, 999, 2, 15, 127, 141, 114, 121, 71, 65, 1, 1.00405
256, 6, wb, catch, NA, 999, 999, 2, 16, 161, 94, 155, 160, 69, 126, 3, 0.80969
256, 6, wb, catch, NA, 999, 999, 2, 16, 161, 94, 155, 160, 69, 126, 2, 0.544056
256, 6, wb, attraction, a-b-da, 9, 1, 2, 17, 135, 60, 60, 135, 129, 57, 3, 0.639846
256, 6, wb, attraction, a-b-da, 9, 1, 2, 17, 135, 60, 60, 135, 129, 57, 2, 0.460916
256, 6, wb, catch, NA, 999, 999, 2, 18, 161, 94, 149, 166, 134, 61, 3, 2.92803
256, 6, wb, catch, NA, 999, 999, 2, 18, 161, 94, 149, 166, 134, 61, 2, 0.625204
256, 6, wb, attraction, a-b-da, 5, 3, 2, 19, 120, 195, 190, 117, 195, 120, 2, 3.57358
256, 6, wb, attraction, a-b-da, 5, 3, 2, 19, 120, 195, 190, 117, 195, 120, 3, 0.452385
256, 6, wb, filler, NA, 999, 999, 2, 20, 75, 110, 122, 124, 83, 183, 1, 1.64832
256, 6, wb, filler, NA, 999, 999, 2, 20, 75, 110, 122, 124, 83, 183, 3, 0.516972
256, 6, wb, filler, NA, 999, 999, 2, 21, 63, 177, 100, 153, 161, 101, 1, 0.670094
256, 6, wb, filler, NA, 999, 999, 2, 21, 63, 177, 100, 153, 161, 101, 2, 1.24202
256, 6, wb, attraction, a-b-da, 5, 1, 2, 22, 60, 135, 135, 60, 132, 58, 3, 1.16548
256, 6, wb, attraction, a-b-da, 5, 1, 2, 22, 60, 135, 135, 60, 132, 58, 2, 0.301747
256, 6, wb, attraction, a-b-db, 9, 1, 2, 23, 135, 60, 57, 129, 60, 135, 1, 0.703522
256, 6, wb, attraction, a-b-db, 9, 1, 2, 23, 135, 60, 57, 129, 60, 135, 3, 0.505997
256, 6, wb, attraction, a-b-da, 5, 2, 2, 24, 161, 88, 165, 90, 90, 165, 1, 0.451071
256, 6, wb, attraction, a-b-da, 5, 2, 2, 24, 161, 88, 165, 90, 90, 165, 2, 0.376242
256, 6, wb, attraction, a-b-db, 14, 2, 2, 25, 90, 165, 83, 153, 165, 90, 1, 1.07074
256, 6, wb, attraction, a-b-db, 14, 2, 2, 25, 90, 165, 83, 153, 165, 90, 3, 0.522455
256, 6, wb, attraction, a-b-db, 14, 1, 2, 26, 56, 125, 60, 135, 135, 60, 1, 0.555468
256, 6, wb, attraction, a-b-db, 14, 1, 2, 26, 56, 125, 60, 135, 135, 60, 3, 1.04389
256, 6, wb, attraction, a-b-db, 2, 1, 2, 27, 135, 60, 59, 134, 60, 135, 1, 0.943489
256, 6, wb, attraction, a-b-db, 2, 1, 2, 27, 135, 60, 59, 134, 60, 135, 2, 0.576517
256, 6, wb, attraction, a-b-da, 9, 2, 2, 28, 90, 165, 157, 86, 165, 90, 2, 0.90299
256, 6, wb, attraction, a-b-da, 9, 2, 2, 28, 90, 165, 157, 86, 165, 90, 3, 0.457938
256, 6, wb, attraction, a-b-db, 2, 2, 2, 29, 90, 165, 89, 163, 165, 90, 1, 0.997162
256, 6, wb, attraction, a-b-db, 2, 2, 2, 29, 90, 165, 89, 163, 165, 90, 3, 0.796248
256, 6, wb, attraction, a-b-da, 2, 2, 2, 30, 90, 165, 165, 90, 163, 89, 2, 0.825872
256, 6, wb, attraction, a-b-da, 2, 2, 2, 30, 90, 165, 165, 90, 163, 89, 3, 0.559705
256, 6, wb, attraction, a-b-db, 2, 3, 2, 31, 120, 195, 195, 120, 119, 193, 1, 2.15067
256, 6, wb, attraction, a-b-db, 2, 3, 2, 31, 120, 195, 195, 120, 119, 193, 2, 1.99926
256, 6, wb, attraction, a-b-da, 14, 3, 2, 32, 120, 195, 195, 120, 181, 111, 1, 1.24456
256, 6, wb, attraction, a-b-da, 14, 3, 2, 32, 120, 195, 195, 120, 181, 111, 2, 0.545556
256, 6, wb, attraction, a-b-db, 5, 1, 2, 33, 58, 132, 60, 135, 135, 60, 1, 2.09726
256, 6, wb, attraction, a-b-db, 5, 1, 2, 33, 58, 132, 60, 135, 135, 60, 2, 0.707885
256, 6, wb, catch, NA, 999, 999, 2, 34, 138, 177, 105, 150, 115, 80, 3, 28.7171
256, 6, wb, catch, NA, 999, 999, 2, 34, 138, 177, 105, 150, 115, 80, 1, 0.758736
256, 6, wb, attraction, a-b-da, 2, 3, 2, 35, 120, 195, 193, 119, 195, 120, 3, 0.677783
256, 6, wb, attraction, a-b-da, 2, 3, 2, 35, 120, 195, 193, 119, 195, 120, 2, 0.761425
256, 6, wb, filler, NA, 999, 999, 2, 36, 141, 186, 122, 60, 135, 132, 2, 0.656567
256, 6, wb, filler, NA, 999, 999, 2, 36, 141, 186, 122, 60, 135, 132, 1, 0.724921
256, 6, wb, filler, NA, 999, 999, 2, 37, 79, 70, 63, 147, 67, 81, 3, 1.02926
256, 6, wb, filler, NA, 999, 999, 2, 37, 79, 70, 63, 147, 67, 81, 2, 0.458964
256, 6, wb, attraction, a-b-db, 2, 1, 3, 1, 59, 134, 135, 60, 60, 135, 2, 0.814074
256, 6, wb, attraction, a-b-db, 2, 1, 3, 1, 59, 134, 135, 60, 60, 135, 3, 0.444475
256, 6, wb, attraction, a-b-da, 14, 1, 3, 2, 60, 135, 125, 56, 135, 60, 1, 1.04817
256, 6, wb, attraction, a-b-da, 14, 1, 3, 2, 60, 135, 125, 56, 135, 60, 3, 1.44542
256, 6, wb, catch, NA, 999, 999, 3, 3, 140, 175, 117, 138, 101, 94, 3, 0.864732
256, 6, wb, catch, NA, 999, 999, 3, 3, 140, 175, 117, 138, 101, 94, 1, 0.837091
256, 6, wb, filler, NA, 999, 999, 3, 4, 149, 171, 104, 185, 167, 126, 3, 1.09746
256, 6, wb, filler, NA, 999, 999, 3, 4, 149, 171, 104, 185, 167, 126, 1, 0.76447
256, 6, wb, filler, NA, 999, 999, 3, 5, 146, 174, 150, 161, 91, 146, 3, 0.55547
256, 6, wb, filler, NA, 999, 999, 3, 5, 146, 174, 150, 161, 91, 146, 1, 2.79593
256, 6, wb, attraction, a-b-da, 14, 3, 3, 6, 195, 120, 120, 195, 181, 111, 3, 39.809
256, 6, wb, attraction, a-b-da, 14, 3, 3, 6, 195, 120, 120, 195, 181, 111, 2, 0.443856
256, 6, wb, attraction, a-b-da, 2, 2, 3, 7, 163, 89, 165, 90, 90, 165, 1, 0.903577
256, 6, wb, attraction, a-b-da, 2, 2, 3, 7, 163, 89, 165, 90, 90, 165, 2, 0.546012
256, 6, wb, filler, NA, 999, 999, 3, 8, 147, 149, 94, 64, 124, 193, 2, 0.77772
256, 6, wb, filler, NA, 999, 999, 3, 8, 147, 149, 94, 64, 124, 193, 3, 0.865535
256, 6, wb, filler, NA, 999, 999, 3, 9, 171, 111, 184, 155, 92, 171, 1, 1.10861
256, 6, wb, filler, NA, 999, 999, 3, 9, 171, 111, 184, 155, 92, 171, 2, 0.470948
256, 6, wb, filler, NA, 999, 999, 3, 10, 165, 170, 60, 107, 146, 124, 2, 0.833882
256, 6, wb, filler, NA, 999, 999, 3, 10, 165, 170, 60, 107, 146, 124, 1, 0.295654
256, 6, wb, attraction, a-b-db, 9, 1, 3, 11, 135, 60, 60, 135, 57, 129, 3, 1.08946
256, 6, wb, attraction, a-b-db, 9, 1, 3, 11, 135, 60, 60, 135, 57, 129, 2, 0.708451
256, 6, wb, attraction, a-b-db, 9, 2, 3, 12, 165, 90, 86, 157, 90, 165, 3, 0.84545
256, 6, wb, attraction, a-b-db, 9, 2, 3, 12, 165, 90, 86, 157, 90, 165, 1, 0.626529
256, 6, wb, attraction, a-b-db, 2, 3, 3, 13, 195, 120, 119, 193, 120, 195, 1, 2.17498
256, 6, wb, attraction, a-b-db, 2, 3, 3, 13, 195, 120, 119, 193, 120, 195, 2, 0.398248
256, 6, wb, attraction, a-b-db, 9, 3, 3, 14, 114, 186, 120, 195, 195, 120, 3, 0.860231
256, 6, wb, attraction, a-b-db, 9, 3, 3, 14, 114, 186, 120, 195, 195, 120, 2, 0.448466
256, 6, wb, filler, NA, 999, 999, 3, 15, 99, 151, 137, 179, 104, 172, 1, 0.532277
256, 6, wb, filler, NA, 999, 999, 3, 15, 99, 151, 137, 179, 104, 172, 2, 0.654011
256, 6, wb, attraction, a-b-db, 14, 2, 3, 16, 90, 165, 165, 90, 83, 153, 3, 0.689765
256, 6, wb, attraction, a-b-db, 14, 2, 3, 16, 90, 165, 165, 90, 83, 153, 1, 1.96495
256, 6, wb, attraction, a-b-da, 2, 1, 3, 17, 135, 60, 60, 135, 134, 59, 3, 1.65159
256, 6, wb, attraction, a-b-da, 2, 1, 3, 17, 135, 60, 60, 135, 134, 59, 2, 0.616317
256, 6, wb, filler, NA, 999, 999, 3, 18, 138, 160, 60, 195, 113, 134, 2, 1.57341
256, 6, wb, filler, NA, 999, 999, 3, 18, 138, 160, 60, 195, 113, 134, 1, 0.420906
256, 6, wb, attraction, a-b-db, 14, 1, 3, 19, 56, 125, 60, 135, 135, 60, 1, 2.75401
256, 6, wb, attraction, a-b-db, 14, 1, 3, 19, 56, 125, 60, 135, 135, 60, 3, 0.79448
256, 6, wb, attraction, a-b-da, 5, 1, 3, 20, 60, 135, 132, 58, 135, 60, 2, 1.31223
256, 6, wb, attraction, a-b-da, 5, 1, 3, 20, 60, 135, 132, 58, 135, 60, 1, 0.426382
256, 6, wb, attraction, a-b-db, 14, 3, 3, 21, 120, 195, 111, 181, 195, 120, 2, 5.42286
256, 6, wb, attraction, a-b-db, 14, 3, 3, 21, 120, 195, 111, 181, 195, 120, 1, 0.883178
256, 6, wb, catch, NA, 999, 999, 3, 22, 67, 128, 155, 160, 136, 119, 1, 1.00545
256, 6, wb, catch, NA, 999, 999, 3, 22, 67, 128, 155, 160, 136, 119, 2, 0.371796
256, 6, wb, filler, NA, 999, 999, 3, 23, 151, 120, 173, 67, 98, 92, 3, 0.842978
256, 6, wb, filler, NA, 999, 999, 3, 23, 151, 120, 173, 67, 98, 92, 1, 0.392065
256, 6, wb, attraction, a-b-da, 14, 2, 3, 24, 90, 165, 165, 90, 153, 83, 3, 0.973946
256, 6, wb, attraction, a-b-da, 14, 2, 3, 24, 90, 165, 165, 90, 153, 83, 1, 0.373576
256, 6, wb, attraction, a-b-da, 5, 3, 3, 25, 195, 120, 190, 117, 120, 195, 2, 1.14804
256, 6, wb, attraction, a-b-da, 5, 3, 3, 25, 195, 120, 190, 117, 120, 195, 3, 0.629011
256, 6, wb, attraction, a-b-db, 2, 2, 3, 26, 90, 165, 89, 163, 165, 90, 2, 1.7454
256, 6, wb, attraction, a-b-db, 2, 2, 3, 26, 90, 165, 89, 163, 165, 90, 3, 0.490155
256, 6, wb, attraction, a-b-da, 5, 2, 3, 27, 90, 165, 165, 90, 161, 88, 1, 0.867857
256, 6, wb, attraction, a-b-da, 5, 2, 3, 27, 90, 165, 165, 90, 161, 88, 3, 0.504263
256, 6, wb, filler, NA, 999, 999, 3, 28, 181, 128, 59, 57, 106, 172, 2, 0.810038
256, 6, wb, filler, NA, 999, 999, 3, 28, 181, 128, 59, 57, 106, 172, 1, 0.664534
256, 6, wb, catch, NA, 999, 999, 3, 29, 111, 84, 180, 135, 106, 149, 1, 1.10744
256, 6, wb, catch, NA, 999, 999, 3, 29, 111, 84, 180, 135, 106, 149, 2, 0.56576
256, 6, wb, attraction, a-b-da, 9, 1, 3, 30, 60, 135, 129, 57, 135, 60, 1, 1.01286
256, 6, wb, attraction, a-b-da, 9, 1, 3, 30, 60, 135, 129, 57, 135, 60, 3, 0.691383
256, 6, wb, attraction, a-b-da, 2, 3, 3, 31, 193, 119, 120, 195, 195, 120, 3, 1.72501
256, 6, wb, attraction, a-b-da, 2, 3, 3, 31, 193, 119, 120, 195, 195, 120, 2, 0.518396
256, 6, wb, filler, NA, 999, 999, 3, 32, 175, 146, 59, 172, 100, 97, 3, 0.719599
256, 6, wb, filler, NA, 999, 999, 3, 32, 175, 146, 59, 172, 100, 97, 1, 0.409881
256, 6, wb, attraction, a-b-db, 5, 3, 3, 33, 195, 120, 117, 190, 120, 195, 2, 1.29508
256, 6, wb, attraction, a-b-db, 5, 3, 3, 33, 195, 120, 117, 190, 120, 195, 3, 0.434081
256, 6, wb, attraction, a-b-da, 9, 3, 3, 34, 120, 195, 195, 120, 186, 114, 1, 0.702408
256, 6, wb, attraction, a-b-da, 9, 3, 3, 34, 120, 195, 195, 120, 186, 114, 3, 0.513544
256, 6, wb, attraction, a-b-da, 9, 2, 3, 35, 157, 86, 165, 90, 90, 165, 1, 1.26667
256, 6, wb, attraction, a-b-da, 9, 2, 3, 35, 157, 86, 165, 90, 90, 165, 3, 0.630876
256, 6, wb, attraction, a-b-db, 5, 1, 3, 36, 135, 60, 60, 135, 58, 132, 2, 1.27542
256, 6, wb, attraction, a-b-db, 5, 1, 3, 36, 135, 60, 60, 135, 58, 132, 3, 0.478901
256, 6, wb, attraction, a-b-db, 5, 2, 3, 37, 90, 165, 165, 90, 88, 161, 1, 0.825329
256, 6, wb, attraction, a-b-db, 5, 2, 3, 37, 90, 165, 165, 90, 88, 161, 2, 0.615059
256, 6, wb, attraction, a-b-da, 9, 3, 4, 1, 120, 195, 195, 120, 186, 114, 2, 1.62819
256, 6, wb, attraction, a-b-da, 9, 3, 4, 1, 120, 195, 195, 120, 186, 114, 1, 0.441762
256, 6, wb, filler, NA, 999, 999, 4, 2, 124, 110, 185, 191, 72, 82, 3, 0.789378
256, 6, wb, filler, NA, 999, 999, 4, 2, 124, 110, 185, 191, 72, 82, 2, 0.332508
256, 6, wb, filler, NA, 999, 999, 4, 3, 167, 93, 92, 189, 166, 135, 2, 0.948999
256, 6, wb, filler, NA, 999, 999, 4, 3, 167, 93, 92, 189, 166, 135, 3, 0.462005
256, 6, wb, filler, NA, 999, 999, 4, 4, 105, 155, 80, 156, 178, 110, 2, 0.929232
256, 6, wb, filler, NA, 999, 999, 4, 4, 105, 155, 80, 156, 178, 110, 3, 1.4269
256, 6, wb, attraction, a-b-db, 9, 1, 4, 5, 135, 60, 60, 135, 57, 129, 1, 1.51908
256, 6, wb, attraction, a-b-db, 9, 1, 4, 5, 135, 60, 60, 135, 57, 129, 2, 0.601012
256, 6, wb, filler, NA, 999, 999, 4, 6, 94, 97, 185, 141, 154, 56, 3, 1.59896
256, 6, wb, filler, NA, 999, 999, 4, 6, 94, 97, 185, 141, 154, 56, 2, 0.493726
256, 6, wb, attraction, a-b-db, 9, 3, 4, 7, 114, 186, 120, 195, 195, 120, 1, 2.88747
256, 6, wb, attraction, a-b-db, 9, 3, 4, 7, 114, 186, 120, 195, 195, 120, 3, 0.457846
256, 6, wb, filler, NA, 999, 999, 4, 8, 126, 140, 118, 135, 182, 123, 2, 3.085
256, 6, wb, filler, NA, 999, 999, 4, 8, 126, 140, 118, 135, 182, 123, 3, 0.816003
256, 6, wb, attraction, a-b-da, 14, 3, 4, 9, 120, 195, 181, 111, 195, 120, 2, 2.50108
256, 6, wb, attraction, a-b-da, 14, 3, 4, 9, 120, 195, 181, 111, 195, 120, 3, 0.759681
256, 6, wb, attraction, a-b-db, 9, 2, 4, 10, 165, 90, 90, 165, 86, 157, 1, 1.64668
256, 6, wb, attraction, a-b-db, 9, 2, 4, 10, 165, 90, 90, 165, 86, 157, 3, 0.899408
256, 6, wb, attraction, a-b-db, 5, 1, 4, 11, 60, 135, 58, 132, 135, 60, 2, 1.4851
256, 6, wb, attraction, a-b-db, 5, 1, 4, 11, 60, 135, 58, 132, 135, 60, 3, 0.680478
256, 6, wb, attraction, a-b-da, 14, 2, 4, 12, 165, 90, 153, 83, 90, 165, 2, 0.738917
256, 6, wb, attraction, a-b-da, 14, 2, 4, 12, 165, 90, 153, 83, 90, 165, 3, 0.372127
256, 6, wb, attraction, a-b-db, 2, 3, 4, 13, 120, 195, 195, 120, 119, 193, 1, 0.539112
256, 6, wb, attraction, a-b-db, 2, 3, 4, 13, 120, 195, 195, 120, 119, 193, 2, 0.532425
256, 6, wb, attraction, a-b-db, 5, 2, 4, 14, 165, 90, 90, 165, 88, 161, 2, 0.868756
256, 6, wb, attraction, a-b-db, 5, 2, 4, 14, 165, 90, 90, 165, 88, 161, 3, 0.441119
256, 6, wb, attraction, a-b-da, 5, 1, 4, 15, 132, 58, 60, 135, 135, 60, 2, 0.941008
256, 6, wb, attraction, a-b-da, 5, 1, 4, 15, 132, 58, 60, 135, 135, 60, 3, 0.6139
256, 6, wb, attraction, a-b-db, 14, 3, 4, 16, 120, 195, 111, 181, 195, 120, 2, 0.603
256, 6, wb, attraction, a-b-db, 14, 3, 4, 16, 120, 195, 111, 181, 195, 120, 3, 0.562125
256, 6, wb, catch, NA, 999, 999, 4, 17, 129, 66, 177, 138, 126, 129, 1, 1.05731
256, 6, wb, catch, NA, 999, 999, 4, 17, 129, 66, 177, 138, 126, 129, 2, 0.381537
256, 6, wb, filler, NA, 999, 999, 4, 18, 135, 70, 81, 126, 125, 66, 3, 1.12401
256, 6, wb, filler, NA, 999, 999, 4, 18, 135, 70, 81, 126, 125, 66, 2, 3.94167
256, 6, wb, filler, NA, 999, 999, 4, 19, 109, 181, 112, 73, 179, 159, 2, 1.62034
256, 6, wb, filler, NA, 999, 999, 4, 19, 109, 181, 112, 73, 179, 159, 3, 0.370498
256, 6, wb, filler, NA, 999, 999, 4, 20, 161, 67, 127, 134, 78, 151, 1, 0.881634
256, 6, wb, filler, NA, 999, 999, 4, 20, 161, 67, 127, 134, 78, 151, 2, 6.94139
256, 6, wb, attraction, a-b-da, 5, 2, 4, 21, 161, 88, 90, 165, 165, 90, 1, 2.60316
256, 6, wb, attraction, a-b-da, 5, 2, 4, 21, 161, 88, 90, 165, 165, 90, 2, 0.433673
256, 6, wb, attraction, a-b-db, 2, 1, 4, 22, 60, 135, 59, 134, 135, 60, 3, 1.06208
256, 6, wb, attraction, a-b-db, 2, 1, 4, 22, 60, 135, 59, 134, 135, 60, 1, 1.04246
256, 6, wb, attraction, a-b-db, 14, 2, 4, 23, 90, 165, 83, 153, 165, 90, 2, 2.19
256, 6, wb, attraction, a-b-db, 14, 2, 4, 23, 90, 165, 83, 153, 165, 90, 3, 2.2128
256, 6, wb, attraction, a-b-db, 5, 3, 4, 24, 120, 195, 195, 120, 117, 190, 1, 1.53722
256, 6, wb, attraction, a-b-db, 5, 3, 4, 24, 120, 195, 195, 120, 117, 190, 3, 0.362798
256, 6, wb, attraction, a-b-da, 2, 3, 4, 25, 120, 195, 195, 120, 193, 119, 2, 2.48985
256, 6, wb, attraction, a-b-da, 2, 3, 4, 25, 120, 195, 195, 120, 193, 119, 3, 0.428385
256, 6, wb, attraction, a-b-da, 14, 1, 4, 26, 135, 60, 60, 135, 125, 56, 3, 2.27291
256, 6, wb, attraction, a-b-da, 14, 1, 4, 26, 135, 60, 60, 135, 125, 56, 2, 2.58829
256, 6, wb, attraction, a-b-db, 14, 1, 4, 27, 135, 60, 60, 135, 56, 125, 1, 2.3459
256, 6, wb, attraction, a-b-db, 14, 1, 4, 27, 135, 60, 60, 135, 56, 125, 2, 0.698527
256, 6, wb, attraction, a-b-da, 9, 2, 4, 28, 157, 86, 90, 165, 165, 90, 3, 1.60422
256, 6, wb, attraction, a-b-da, 9, 2, 4, 28, 157, 86, 90, 165, 165, 90, 2, 0.834445
256, 6, wb, filler, NA, 999, 999, 4, 29, 125, 190, 151, 188, 111, 181, 3, 2.75074
256, 6, wb, filler, NA, 999, 999, 4, 29, 125, 190, 151, 188, 111, 181, 2, 0.535229
256, 6, wb, attraction, a-b-da, 5, 3, 4, 30, 120, 195, 190, 117, 195, 120, 2, 2.88762
256, 6, wb, attraction, a-b-da, 5, 3, 4, 30, 120, 195, 190, 117, 195, 120, 1, 0.50597
256, 6, wb, catch, NA, 999, 999, 4, 31, 125, 190, 119, 136, 64, 131, 3, 1.1472
256, 6, wb, catch, NA, 999, 999, 4, 31, 125, 190, 119, 136, 64, 131, 1, 0.500122
256, 6, wb, attraction, a-b-db, 2, 2, 4, 32, 165, 90, 89, 163, 90, 165, 1, 4.10988
256, 6, wb, attraction, a-b-db, 2, 2, 4, 32, 165, 90, 89, 163, 90, 165, 2, 0.535188
256, 6, wb, filler, NA, 999, 999, 4, 33, 85, 131, 113, 80, 143, 63, 2, 1.43981
256, 6, wb, filler, NA, 999, 999, 4, 33, 85, 131, 113, 80, 143, 63, 1, 0.40452
256, 6, wb, attraction, a-b-da, 2, 2, 4, 34, 165, 90, 90, 165, 163, 89, 2, 0.962274
256, 6, wb, attraction, a-b-da, 2, 2, 4, 34, 165, 90, 90, 165, 163, 89, 3, 0.562612
256, 6, wb, attraction, a-b-da, 9, 1, 4, 35, 60, 135, 129, 57, 135, 60, 2, 1.08991
256, 6, wb, attraction, a-b-da, 9, 1, 4, 35, 60, 135, 129, 57, 135, 60, 1, 1.82871
256, 6, wb, catch, NA, 999, 999, 4, 36, 70, 125, 108, 147, 124, 191, 1, 0.864718
256, 6, wb, catch, NA, 999, 999, 4, 36, 70, 125, 108, 147, 124, 191, 3, 0.389157
256, 6, wb, attraction, a-b-da, 2, 1, 4, 37, 60, 135, 135, 60, 134, 59, 1, 2.36375
256, 6, wb, attraction, a-b-da, 2, 1, 4, 37, 60, 135, 135, 60, 134, 59, 3, 0.56356
256, 6, wb, attraction, a-b-da, 5, 1, 5, 1, 132, 58, 135, 60, 60, 135, 1, 18.8972
256, 6, wb, attraction, a-b-da, 5, 1, 5, 1, 132, 58, 135, 60, 60, 135, 3, 0.526741
256, 6, wb, attraction, a-b-db, 9, 2, 5, 2, 90, 165, 86, 157, 165, 90, 1, 1.03113
256, 6, wb, attraction, a-b-db, 9, 2, 5, 2, 90, 165, 86, 157, 165, 90, 3, 0.620721
256, 6, wb, filler, NA, 999, 999, 5, 3, 164, 70, 150, 177, 145, 139, 1, 0.673738
256, 6, wb, filler, NA, 999, 999, 5, 3, 164, 70, 150, 177, 145, 139, 2, 0.301664
256, 6, wb, catch, NA, 999, 999, 5, 4, 116, 139, 169, 146, 108, 87, 3, 0.711495
256, 6, wb, catch, NA, 999, 999, 5, 4, 116, 139, 169, 146, 108, 87, 2, 0.313893
256, 6, wb, filler, NA, 999, 999, 5, 5, 148, 87, 152, 175, 150, 88, 3, 1.22702
256, 6, wb, filler, NA, 999, 999, 5, 5, 148, 87, 152, 175, 150, 88, 2, 0.680635
256, 6, wb, filler, NA, 999, 999, 5, 6, 71, 97, 74, 126, 88, 188, 1, 0.914911
256, 6, wb, filler, NA, 999, 999, 5, 6, 71, 97, 74, 126, 88, 188, 3, 0.389372
256, 6, wb, attraction, a-b-db, 5, 3, 5, 7, 120, 195, 195, 120, 117, 190, 2, 1.43517
256, 6, wb, attraction, a-b-db, 5, 3, 5, 7, 120, 195, 195, 120, 117, 190, 1, 0.408722
256, 6, wb, attraction, a-b-db, 2, 1, 5, 8, 135, 60, 59, 134, 60, 135, 1, 0.885798
256, 6, wb, attraction, a-b-db, 2, 1, 5, 8, 135, 60, 59, 134, 60, 135, 2, 0.801671
256, 6, wb, attraction, a-b-da, 14, 3, 5, 9, 120, 195, 181, 111, 195, 120, 2, 1.31927
256, 6, wb, attraction, a-b-da, 14, 3, 5, 9, 120, 195, 181, 111, 195, 120, 3, 0.457587
256, 6, wb, attraction, a-b-da, 2, 1, 5, 10, 134, 59, 135, 60, 60, 135, 3, 1.24467
256, 6, wb, attraction, a-b-da, 2, 1, 5, 10, 134, 59, 135, 60, 60, 135, 2, 0.697521
256, 6, wb, catch, NA, 999, 999, 5, 11, 89, 106, 148, 107, 193, 122, 1, 0.651207
256, 6, wb, catch, NA, 999, 999, 5, 11, 89, 106, 148, 107, 193, 122, 3, 0.784365
256, 6, wb, filler, NA, 999, 999, 5, 12, 165, 181, 193, 102, 189, 124, 2, 1.15068
256, 6, wb, filler, NA, 999, 999, 5, 12, 165, 181, 193, 102, 189, 124, 1, 0.471657
256, 6, wb, attraction, a-b-db, 14, 1, 5, 13, 56, 125, 135, 60, 60, 135, 2, 0.722805
256, 6, wb, attraction, a-b-db, 14, 1, 5, 13, 56, 125, 135, 60, 60, 135, 3, 0.516547
256, 6, wb, attraction, a-b-db, 2, 2, 5, 14, 90, 165, 165, 90, 89, 163, 1, 1.26966
256, 6, wb, attraction, a-b-db, 2, 2, 5, 14, 90, 165, 165, 90, 89, 163, 2, 0.474028
256, 6, wb, attraction, a-b-da, 9, 2, 5, 15, 157, 86, 90, 165, 165, 90, 2, 1.30033
256, 6, wb, attraction, a-b-da, 9, 2, 5, 15, 157, 86, 90, 165, 165, 90, 1, 0.623207
256, 6, wb, filler, NA, 999, 999, 5, 16, 87, 158, 56, 152, 167, 95, 2, 0.867615
256, 6, wb, filler, NA, 999, 999, 5, 16, 87, 158, 56, 152, 167, 95, 3, 0.760001
256, 6, wb, attraction, a-b-da, 14, 1, 5, 17, 125, 56, 135, 60, 60, 135, 2, 0.751096
256, 6, wb, attraction, a-b-da, 14, 1, 5, 17, 125, 56, 135, 60, 60, 135, 3, 1.24013
256, 6, wb, attraction, a-b-db, 5, 1, 5, 18, 58, 132, 60, 135, 135, 60, 2, 0.843889
256, 6, wb, attraction, a-b-db, 5, 1, 5, 18, 58, 132, 60, 135, 135, 60, 3, 0.544763
256, 6, wb, attraction, a-b-da, 14, 2, 5, 19, 165, 90, 153, 83, 90, 165, 2, 0.752455
256, 6, wb, attraction, a-b-da, 14, 2, 5, 19, 165, 90, 153, 83, 90, 165, 3, 0.713664
256, 6, wb, filler, NA, 999, 999, 5, 20, 142, 194, 127, 167, 128, 163, 3, 1.03466
256, 6, wb, filler, NA, 999, 999, 5, 20, 142, 194, 127, 167, 128, 163, 1, 0.464409
256, 6, wb, attraction, a-b-db, 9, 1, 5, 21, 60, 135, 57, 129, 135, 60, 3, 1.29948
256, 6, wb, attraction, a-b-db, 9, 1, 5, 21, 60, 135, 57, 129, 135, 60, 2, 0.350413
256, 6, wb, attraction, a-b-da, 9, 1, 5, 22, 60, 135, 135, 60, 129, 57, 1, 1.52611
256, 6, wb, attraction, a-b-da, 9, 1, 5, 22, 60, 135, 135, 60, 129, 57, 2, 0.423713
256, 6, wb, attraction, a-b-db, 5, 2, 5, 23, 88, 161, 165, 90, 90, 165, 2, 1.94009
256, 6, wb, attraction, a-b-db, 5, 2, 5, 23, 88, 161, 165, 90, 90, 165, 3, 0.556814
256, 6, wb, attraction, a-b-da, 5, 2, 5, 24, 90, 165, 165, 90, 161, 88, 1, 0.699865
256, 6, wb, attraction, a-b-da, 5, 2, 5, 24, 90, 165, 165, 90, 161, 88, 3, 0.398962
256, 6, wb, filler, NA, 999, 999, 5, 25, 132, 66, 164, 73, 184, 138, 1, 0.636775
256, 6, wb, filler, NA, 999, 999, 5, 25, 132, 66, 164, 73, 184, 138, 3, 0.34667
256, 6, wb, attraction, a-b-da, 2, 3, 5, 26, 120, 195, 195, 120, 193, 119, 3, 1.0344
256, 6, wb, attraction, a-b-da, 2, 3, 5, 26, 120, 195, 195, 120, 193, 119, 2, 0.336053
256, 6, wb, attraction, a-b-da, 2, 2, 5, 27, 165, 90, 90, 165, 163, 89, 3, 0.728575
256, 6, wb, attraction, a-b-da, 2, 2, 5, 27, 165, 90, 90, 165, 163, 89, 2, 0.362414
256, 6, wb, attraction, a-b-db, 14, 2, 5, 28, 165, 90, 90, 165, 83, 153, 1, 1.08142
256, 6, wb, attraction, a-b-db, 14, 2, 5, 28, 165, 90, 90, 165, 83, 153, 2, 0.837086
256, 6, wb, catch, NA, 999, 999, 5, 29, 147, 108, 116, 79, 137, 178, 2, 0.665462
256, 6, wb, catch, NA, 999, 999, 5, 29, 147, 108, 116, 79, 137, 178, 3, 0.309948
256, 6, wb, attraction, a-b-da, 5, 3, 5, 30, 195, 120, 120, 195, 190, 117, 2, 0.887096
256, 6, wb, attraction, a-b-da, 5, 3, 5, 30, 195, 120, 120, 195, 190, 117, 3, 0.306069
256, 6, wb, filler, NA, 999, 999, 5, 31, 59, 103, 170, 94, 94, 167, 1, 0.651318
256, 6, wb, filler, NA, 999, 999, 5, 31, 59, 103, 170, 94, 94, 167, 2, 1.99243
256, 6, wb, attraction, a-b-da, 9, 3, 5, 32, 195, 120, 120, 195, 186, 114, 2, 1.84574
256, 6, wb, attraction, a-b-da, 9, 3, 5, 32, 195, 120, 120, 195, 186, 114, 3, 0.378468
256, 6, wb, attraction, a-b-db, 14, 3, 5, 33, 195, 120, 120, 195, 111, 181, 3, 1.12091
256, 6, wb, attraction, a-b-db, 14, 3, 5, 33, 195, 120, 120, 195, 111, 181, 1, 0.68253
256, 6, wb, attraction, a-b-db, 2, 3, 5, 34, 195, 120, 119, 193, 120, 195, 1, 1.23703
256, 6, wb, attraction, a-b-db, 2, 3, 5, 34, 195, 120, 119, 193, 120, 195, 2, 0.345872
256, 6, wb, filler, NA, 999, 999, 5, 35, 58, 116, 109, 167, 131, 124, 1, 1.16164
256, 6, wb, filler, NA, 999, 999, 5, 35, 58, 116, 109, 167, 131, 124, 2, 0.393936
256, 6, wb, filler, NA, 999, 999, 5, 36, 83, 75, 191, 117, 128, 132, 1, 0.743709
256, 6, wb, filler, NA, 999, 999, 5, 36, 83, 75, 191, 117, 128, 132, 2, 0.360888
256, 6, wb, attraction, a-b-db, 9, 3, 5, 37, 114, 186, 195, 120, 120, 195, 3, 1.68008
256, 6, wb, attraction, a-b-db, 9, 3, 5, 37, 114, 186, 195, 120, 120, 195, 2, 0.427548
256, 6, wb, attraction, a-b-da, 9, 2, 6, 1, 157, 86, 165, 90, 90, 165, 1, 0.663933
256, 6, wb, attraction, a-b-da, 9, 2, 6, 1, 157, 86, 165, 90, 90, 165, 2, 0.324381
256, 6, wb, attraction, a-b-da, 14, 1, 6, 2, 135, 60, 60, 135, 125, 56, 3, 1.02088
256, 6, wb, attraction, a-b-da, 14, 1, 6, 2, 135, 60, 60, 135, 125, 56, 2, 0.498532
256, 6, wb, filler, NA, 999, 999, 6, 3, 142, 103, 171, 109, 157, 185, 1, 0.588329
256, 6, wb, filler, NA, 999, 999, 6, 3, 142, 103, 171, 109, 157, 185, 3, 0.403546
256, 6, wb, attraction, a-b-da, 5, 2, 6, 4, 165, 90, 90, 165, 161, 88, 2, 1.50525
256, 6, wb, attraction, a-b-da, 5, 2, 6, 4, 165, 90, 90, 165, 161, 88, 1, 0.611401
256, 6, wb, attraction, a-b-da, 14, 2, 6, 5, 165, 90, 153, 83, 90, 165, 3, 0.704621
256, 6, wb, attraction, a-b-da, 14, 2, 6, 5, 165, 90, 153, 83, 90, 165, 2, 0.410995
256, 6, wb, attraction, a-b-db, 14, 1, 6, 6, 56, 125, 135, 60, 60, 135, 1, 0.728125
256, 6, wb, attraction, a-b-db, 14, 1, 6, 6, 56, 125, 135, 60, 60, 135, 2, 0.393825
256, 6, wb, attraction, a-b-db, 2, 3, 6, 7, 119, 193, 195, 120, 120, 195, 2, 3.18365
256, 6, wb, attraction, a-b-db, 2, 3, 6, 7, 119, 193, 195, 120, 120, 195, 3, 0.390744
256, 6, wb, filler, NA, 999, 999, 6, 8, 114, 88, 89, 94, 135, 154, 2, 1.27645
256, 6, wb, filler, NA, 999, 999, 6, 8, 114, 88, 89, 94, 135, 154, 3, 0.335997
256, 6, wb, attraction, a-b-da, 14, 3, 6, 9, 120, 195, 195, 120, 181, 111, 2, 1.22455
256, 6, wb, attraction, a-b-da, 14, 3, 6, 9, 120, 195, 195, 120, 181, 111, 3, 0.542126
256, 6, wb, attraction, a-b-db, 5, 2, 6, 10, 88, 161, 165, 90, 90, 165, 2, 0.645849
256, 6, wb, attraction, a-b-db, 5, 2, 6, 10, 88, 161, 165, 90, 90, 165, 3, 0.298976
256, 6, wb, attraction, a-b-db, 9, 1, 6, 11, 135, 60, 60, 135, 57, 129, 1, 0.892829
256, 6, wb, attraction, a-b-db, 9, 1, 6, 11, 135, 60, 60, 135, 57, 129, 2, 1.04788
256, 6, wb, attraction, a-b-da, 5, 3, 6, 12, 120, 195, 190, 117, 195, 120, 2, 0.995413
256, 6, wb, attraction, a-b-da, 5, 3, 6, 12, 120, 195, 190, 117, 195, 120, 3, 0.346407
256, 6, wb, attraction, a-b-db, 5, 3, 6, 13, 117, 190, 120, 195, 195, 120, 3, 3.23426
256, 6, wb, attraction, a-b-db, 5, 3, 6, 13, 117, 190, 120, 195, 195, 120, 2, 0.591367
256, 6, wb, filler, NA, 999, 999, 6, 14, 172, 114, 164, 71, 189, 173, 2, 0.82894
256, 6, wb, filler, NA, 999, 999, 6, 14, 172, 114, 164, 71, 189, 173, 3, 0.298877
256, 6, wb, filler, NA, 999, 999, 6, 15, 108, 113, 136, 189, 158, 173, 1, 1.02065
256, 6, wb, filler, NA, 999, 999, 6, 15, 108, 113, 136, 189, 158, 173, 3, 0.378246
256, 6, wb, filler, NA, 999, 999, 6, 16, 114, 156, 150, 70, 81, 68, 3, 0.768793
256, 6, wb, filler, NA, 999, 999, 6, 16, 114, 156, 150, 70, 81, 68, 1, 0.353164
256, 6, wb, catch, NA, 999, 999, 6, 17, 189, 126, 70, 125, 157, 98, 2, 1.01694
256, 6, wb, catch, NA, 999, 999, 6, 17, 189, 126, 70, 125, 157, 98, 1, 0.423265
256, 6, wb, attraction, a-b-db, 5, 1, 6, 18, 135, 60, 58, 132, 60, 135, 2, 3.31572
256, 6, wb, attraction, a-b-db, 5, 1, 6, 18, 135, 60, 58, 132, 60, 135, 1, 0.629327
256, 6, wb, attraction, a-b-db, 2, 1, 6, 19, 59, 134, 135, 60, 60, 135, 2, 0.825721
256, 6, wb, attraction, a-b-db, 2, 1, 6, 19, 59, 134, 135, 60, 60, 135, 3, 0.695418
256, 6, wb, attraction, a-b-db, 14, 3, 6, 20, 120, 195, 111, 181, 195, 120, 2, 0.649271
256, 6, wb, attraction, a-b-db, 14, 3, 6, 20, 120, 195, 111, 181, 195, 120, 3, 0.582383
256, 6, wb, filler, NA, 999, 999, 6, 21, 141, 116, 159, 157, 65, 186, 3, 0.780721
256, 6, wb, filler, NA, 999, 999, 6, 21, 141, 116, 159, 157, 65, 186, 1, 0.452429
256, 6, wb, filler, NA, 999, 999, 6, 22, 102, 72, 189, 142, 136, 187, 1, 0.888215
256, 6, wb, filler, NA, 999, 999, 6, 22, 102, 72, 189, 142, 136, 187, 2, 0.3713
256, 6, wb, filler, NA, 999, 999, 6, 23, 148, 136, 133, 176, 137, 71, 3, 0.706385
256, 6, wb, filler, NA, 999, 999, 6, 23, 148, 136, 133, 176, 137, 71, 2, 0.332867
256, 6, wb, catch, NA, 999, 999, 6, 24, 164, 151, 91, 104, 131, 124, 2, 0.933292
256, 6, wb, catch, NA, 999, 999, 6, 24, 164, 151, 91, 104, 131, 124, 1, 0.311144
256, 6, wb, attraction, a-b-db, 14, 2, 6, 25, 83, 153, 165, 90, 90, 165, 1, 0.864311
256, 6, wb, attraction, a-b-db, 14, 2, 6, 25, 83, 153, 165, 90, 90, 165, 2, 0.604573
256, 6, wb, attraction, a-b-db, 9, 3, 6, 26, 195, 120, 120, 195, 114, 186, 3, 0.914347
256, 6, wb, attraction, a-b-db, 9, 3, 6, 26, 195, 120, 120, 195, 114, 186, 1, 0.516722
256, 6, wb, attraction, a-b-da, 2, 1, 6, 27, 134, 59, 60, 135, 135, 60, 2, 0.877873
256, 6, wb, attraction, a-b-da, 2, 1, 6, 27, 134, 59, 60, 135, 135, 60, 3, 0.617497
256, 6, wb, attraction, a-b-da, 2, 3, 6, 28, 195, 120, 193, 119, 120, 195, 2, 2.10264
256, 6, wb, attraction, a-b-da, 2, 3, 6, 28, 195, 120, 193, 119, 120, 195, 3, 0.441321
256, 6, wb, attraction, a-b-da, 5, 1, 6, 29, 132, 58, 60, 135, 135, 60, 2, 0.741074
256, 6, wb, attraction, a-b-da, 5, 1, 6, 29, 132, 58, 60, 135, 135, 60, 3, 1.07015
256, 6, wb, filler, NA, 999, 999, 6, 30, 128, 93, 124, 136, 104, 146, 1, 3.48118
256, 6, wb, filler, NA, 999, 999, 6, 30, 128, 93, 124, 136, 104, 146, 3, 1.48399
256, 6, wb, attraction, a-b-db, 2, 2, 6, 31, 90, 165, 89, 163, 165, 90, 1, 2.4781
256, 6, wb, attraction, a-b-db, 2, 2, 6, 31, 90, 165, 89, 163, 165, 90, 3, 0.921367
256, 6, wb, attraction, a-b-da, 9, 1, 6, 32, 129, 57, 60, 135, 135, 60, 3, 4.32234
256, 6, wb, attraction, a-b-da, 9, 1, 6, 32, 129, 57, 60, 135, 135, 60, 2, 0.354915
256, 6, wb, catch, NA, 999, 999, 6, 33, 125, 130, 163, 152, 98, 97, 3, 0.898763
256, 6, wb, catch, NA, 999, 999, 6, 33, 125, 130, 163, 152, 98, 97, 2, 0.32578
256, 6, wb, filler, NA, 999, 999, 6, 34, 102, 137, 92, 121, 102, 100, 3, 1.03024
256, 6, wb, filler, NA, 999, 999, 6, 34, 102, 137, 92, 121, 102, 100, 2, 0.323904
256, 6, wb, attraction, a-b-db, 9, 2, 6, 35, 90, 165, 86, 157, 165, 90, 3, 1.41251
256, 6, wb, attraction, a-b-db, 9, 2, 6, 35, 90, 165, 86, 157, 165, 90, 1, 0.386593
256, 6, wb, attraction, a-b-da, 9, 3, 6, 36, 195, 120, 120, 195, 186, 114, 2, 0.737149
256, 6, wb, attraction, a-b-da, 9, 3, 6, 36, 195, 120, 120, 195, 186, 114, 1, 2.78621
256, 6, wb, attraction, a-b-da, 2, 2, 6, 37, 163, 89, 165, 90, 90, 165, 1, 1.38395
256, 6, wb, attraction, a-b-da, 2, 2, 6, 37, 163, 89, 165, 90, 90, 165, 2, 0.327498
256, 6, wb, filler, NA, 999, 999, 7, 1, 92, 155, 155, 75, 165, 80, 2, 0.848073
256, 6, wb, filler, NA, 999, 999, 7, 1, 92, 155, 155, 75, 165, 80, 3, 0.613056
256, 6, wb, attraction, a-b-da, 2, 2, 7, 2, 90, 165, 165, 90, 163, 89, 2, 0.954156
256, 6, wb, attraction, a-b-da, 2, 2, 7, 2, 90, 165, 165, 90, 163, 89, 3, 0.50646
256, 6, wb, attraction, a-b-da, 9, 2, 7, 3, 165, 90, 90, 165, 157, 86, 2, 0.699557
256, 6, wb, attraction, a-b-da, 9, 2, 7, 3, 165, 90, 90, 165, 157, 86, 3, 0.766637
256, 6, wb, catch, NA, 999, 999, 7, 4, 82, 113, 138, 177, 139, 116, 1, 0.653684
256, 6, wb, catch, NA, 999, 999, 7, 4, 82, 113, 138, 177, 139, 116, 2, 0.490224
256, 6, wb, attraction, a-b-da, 2, 3, 7, 5, 193, 119, 120, 195, 195, 120, 2, 1.05995
256, 6, wb, attraction, a-b-da, 2, 3, 7, 5, 193, 119, 120, 195, 195, 120, 1, 0.536185
256, 6, wb, attraction, a-b-db, 14, 2, 7, 6, 165, 90, 90, 165, 83, 153, 3, 0.704654
256, 6, wb, attraction, a-b-db, 14, 2, 7, 6, 165, 90, 90, 165, 83, 153, 2, 0.467156
256, 6, wb, filler, NA, 999, 999, 7, 7, 162, 61, 142, 118, 180, 80, 1, 0.622189
256, 6, wb, filler, NA, 999, 999, 7, 7, 162, 61, 142, 118, 180, 80, 2, 0.516098
256, 6, wb, filler, NA, 999, 999, 7, 8, 125, 140, 87, 158, 90, 129, 3, 1.35712
256, 6, wb, filler, NA, 999, 999, 7, 8, 125, 140, 87, 158, 90, 129, 1, 0.397308
256, 6, wb, attraction, a-b-da, 14, 3, 7, 9, 181, 111, 120, 195, 195, 120, 1, 1.07523
256, 6, wb, attraction, a-b-da, 14, 3, 7, 9, 181, 111, 120, 195, 195, 120, 2, 0.478748
256, 6, wb, attraction, a-b-db, 14, 1, 7, 10, 60, 135, 56, 125, 135, 60, 1, 1.00126
256, 6, wb, attraction, a-b-db, 14, 1, 7, 10, 60, 135, 56, 125, 135, 60, 3, 0.616363
256, 6, wb, filler, NA, 999, 999, 7, 11, 195, 152, 163, 175, 151, 113, 3, 1.06924
256, 6, wb, filler, NA, 999, 999, 7, 11, 195, 152, 163, 175, 151, 113, 1, 0.625565
256, 6, wb, attraction, a-b-db, 9, 3, 7, 12, 120, 195, 114, 186, 195, 120, 2, 1.45407
256, 6, wb, attraction, a-b-db, 9, 3, 7, 12, 120, 195, 114, 186, 195, 120, 3, 0.362233
256, 6, wb, filler, NA, 999, 999, 7, 13, 115, 128, 63, 129, 68, 124, 2, 0.657371
256, 6, wb, filler, NA, 999, 999, 7, 13, 115, 128, 63, 129, 68, 124, 1, 0.37388
256, 6, wb, attraction, a-b-da, 5, 3, 7, 14, 190, 117, 120, 195, 195, 120, 3, 1.41239
256, 6, wb, attraction, a-b-da, 5, 3, 7, 14, 190, 117, 120, 195, 195, 120, 1, 0.458497
256, 6, wb, attraction, a-b-da, 14, 2, 7, 15, 90, 165, 165, 90, 153, 83, 2, 0.637632
256, 6, wb, attraction, a-b-da, 14, 2, 7, 15, 90, 165, 165, 90, 153, 83, 1, 1.14678
256, 6, wb, attraction, a-b-db, 5, 3, 7, 16, 117, 190, 120, 195, 195, 120, 3, 0.954376
256, 6, wb, attraction, a-b-db, 5, 3, 7, 16, 117, 190, 120, 195, 195, 120, 1, 2.40266
256, 6, wb, attraction, a-b-da, 9, 1, 7, 17, 60, 135, 129, 57, 135, 60, 2, 1.3358
256, 6, wb, attraction, a-b-da, 9, 1, 7, 17, 60, 135, 129, 57, 135, 60, 3, 0.513334
256, 6, wb, filler, NA, 999, 999, 7, 18, 75, 103, 65, 195, 97, 126, 1, 0.770438
256, 6, wb, filler, NA, 999, 999, 7, 18, 75, 103, 65, 195, 97, 126, 2, 2.74624
256, 6, wb, attraction, a-b-db, 9, 2, 7, 19, 86, 157, 165, 90, 90, 165, 1, 1.74535
256, 6, wb, attraction, a-b-db, 9, 2, 7, 19, 86, 157, 165, 90, 90, 165, 2, 0.362137
256, 6, wb, attraction, a-b-da, 2, 1, 7, 20, 135, 60, 134, 59, 60, 135, 1, 0.985247
256, 6, wb, attraction, a-b-da, 2, 1, 7, 20, 135, 60, 134, 59, 60, 135, 2, 0.512972
256, 6, wb, attraction, a-b-da, 9, 3, 7, 21, 195, 120, 120, 195, 186, 114, 3, 5.29805
256, 6, wb, attraction, a-b-da, 9, 3, 7, 21, 195, 120, 120, 195, 186, 114, 2, 1.72368
256, 6, wb, attraction, a-b-db, 2, 1, 7, 22, 135, 60, 59, 134, 60, 135, 1, 0.707664
256, 6, wb, attraction, a-b-db, 2, 1, 7, 22, 135, 60, 59, 134, 60, 135, 2, 0.406179
256, 6, wb, attraction, a-b-da, 5, 2, 7, 23, 90, 165, 165, 90, 161, 88, 1, 0.819371
256, 6, wb, attraction, a-b-da, 5, 2, 7, 23, 90, 165, 165, 90, 161, 88, 3, 0.385732
256, 6, wb, attraction, a-b-db, 5, 1, 7, 24, 60, 135, 58, 132, 135, 60, 2, 0.616142
256, 6, wb, attraction, a-b-db, 5, 1, 7, 24, 60, 135, 58, 132, 135, 60, 3, 0.742591
256, 6, wb, attraction, a-b-db, 14, 3, 7, 25, 195, 120, 111, 181, 120, 195, 2, 2.2784
256, 6, wb, attraction, a-b-db, 14, 3, 7, 25, 195, 120, 111, 181, 120, 195, 1, 0.457497
256, 6, wb, filler, NA, 999, 999, 7, 26, 95, 185, 178, 142, 84, 190, 1, 3.58865
256, 6, wb, filler, NA, 999, 999, 7, 26, 95, 185, 178, 142, 84, 190, 2, 0.515043
256, 6, wb, filler, NA, 999, 999, 7, 27, 107, 112, 152, 110, 142, 91, 1, 1.23616
256, 6, wb, filler, NA, 999, 999, 7, 27, 107, 112, 152, 110, 142, 91, 2, 0.553606
256, 6, wb, attraction, a-b-db, 2, 2, 7, 28, 165, 90, 89, 163, 90, 165, 1, 3.74542
256, 6, wb, attraction, a-b-db, 2, 2, 7, 28, 165, 90, 89, 163, 90, 165, 2, 0.42552
256, 6, wb, attraction, a-b-db, 2, 3, 7, 29, 119, 193, 195, 120, 120, 195, 1, 0.597938
256, 6, wb, attraction, a-b-db, 2, 3, 7, 29, 119, 193, 195, 120, 120, 195, 2, 0.405053
256, 6, wb, filler, NA, 999, 999, 7, 30, 111, 117, 170, 145, 82, 96, 3, 0.866858
256, 6, wb, filler, NA, 999, 999, 7, 30, 111, 117, 170, 145, 82, 96, 2, 0.327316
256, 6, wb, attraction, a-b-db, 9, 1, 7, 31, 57, 129, 60, 135, 135, 60, 1, 1.9918
256, 6, wb, attraction, a-b-db, 9, 1, 7, 31, 57, 129, 60, 135, 135, 60, 2, 0.406463
256, 6, wb, attraction, a-b-da, 5, 1, 7, 32, 132, 58, 60, 135, 135, 60, 3, 0.827584
256, 6, wb, attraction, a-b-da, 5, 1, 7, 32, 132, 58, 60, 135, 135, 60, 2, 0.529381
256, 6, wb, filler, NA, 999, 999, 7, 33, 77, 81, 157, 104, 75, 56, 3, 1.15383
256, 6, wb, filler, NA, 999, 999, 7, 33, 77, 81, 157, 104, 75, 56, 2, 0.50671
256, 6, wb, catch, NA, 999, 999, 7, 34, 159, 96, 103, 92, 164, 151, 2, 1.20388
256, 6, wb, catch, NA, 999, 999, 7, 34, 159, 96, 103, 92, 164, 151, 3, 0.906863
256, 6, wb, attraction, a-b-da, 14, 1, 7, 35, 135, 60, 125, 56, 60, 135, 2, 1.47579
256, 6, wb, attraction, a-b-da, 14, 1, 7, 35, 135, 60, 125, 56, 60, 135, 1, 0.431285
256, 6, wb, catch, NA, 999, 999, 7, 36, 135, 60, 141, 114, 189, 126, 1, 0.707723
256, 6, wb, catch, NA, 999, 999, 7, 36, 135, 60, 141, 114, 189, 126, 3, 0.342288
256, 6, wb, attraction, a-b-db, 5, 2, 7, 37, 90, 165, 165, 90, 88, 161, 2, 1.57406
256, 6, wb, attraction, a-b-db, 5, 2, 7, 37, 90, 165, 165, 90, 88, 161, 1, 0.469447
256, 6, wb, attraction, a-b-da, 2, 2, 8, 1, 163, 89, 90, 165, 165, 90, 1, 0.992581
256, 6, wb, attraction, a-b-da, 2, 2, 8, 1, 163, 89, 90, 165, 165, 90, 3, 0.391691
256, 6, wb, attraction, a-b-db, 14, 3, 8, 2, 195, 120, 111, 181, 120, 195, 1, 1.19746
256, 6, wb, attraction, a-b-db, 14, 3, 8, 2, 195, 120, 111, 181, 120, 195, 3, 0.460375
256, 6, wb, filler, NA, 999, 999, 8, 3, 160, 136, 177, 74, 121, 103, 2, 2.13547
256, 6, wb, filler, NA, 999, 999, 8, 3, 160, 136, 177, 74, 121, 103, 1, 0.400828
256, 6, wb, attraction, a-b-db, 14, 2, 8, 4, 90, 165, 83, 153, 165, 90, 2, 0.614586
256, 6, wb, attraction, a-b-db, 14, 2, 8, 4, 90, 165, 83, 153, 165, 90, 3, 0.621054
256, 6, wb, attraction, a-b-da, 9, 1, 8, 5, 60, 135, 129, 57, 135, 60, 2, 0.706087
256, 6, wb, attraction, a-b-da, 9, 1, 8, 5, 60, 135, 129, 57, 135, 60, 3, 0.428556
256, 6, wb, attraction, a-b-da, 2, 1, 8, 6, 134, 59, 60, 135, 135, 60, 2, 0.673033
256, 6, wb, attraction, a-b-da, 2, 1, 8, 6, 134, 59, 60, 135, 135, 60, 3, 0.516863
256, 6, wb, filler, NA, 999, 999, 8, 7, 81, 116, 87, 148, 89, 72, 3, 0.81393
256, 6, wb, filler, NA, 999, 999, 8, 7, 81, 116, 87, 148, 89, 72, 2, 0.364266
256, 6, wb, filler, NA, 999, 999, 8, 8, 66, 118, 176, 92, 93, 153, 1, 0.707454
256, 6, wb, filler, NA, 999, 999, 8, 8, 66, 118, 176, 92, 93, 153, 2, 0.573956
256, 6, wb, attraction, a-b-da, 9, 2, 8, 9, 165, 90, 157, 86, 90, 165, 1, 1.0043
256, 6, wb, attraction, a-b-da, 9, 2, 8, 9, 165, 90, 157, 86, 90, 165, 3, 0.418702
256, 6, wb, attraction, a-b-db, 5, 3, 8, 10, 195, 120, 117, 190, 120, 195, 3, 0.871753
256, 6, wb, attraction, a-b-db, 5, 3, 8, 10, 195, 120, 117, 190, 120, 195, 2, 0.379464
256, 6, wb, attraction, a-b-da, 5, 1, 8, 11, 132, 58, 60, 135, 135, 60, 1, 0.99396
256, 6, wb, attraction, a-b-da, 5, 1, 8, 11, 132, 58, 60, 135, 135, 60, 2, 0.385168
256, 6, wb, filler, NA, 999, 999, 8, 12, 116, 127, 64, 135, 180, 135, 2, 0.799509
256, 6, wb, filler, NA, 999, 999, 8, 12, 116, 127, 64, 135, 180, 135, 3, 0.414506
256, 6, wb, filler, NA, 999, 999, 8, 13, 85, 123, 65, 173, 56, 134, 3, 0.843665
256, 6, wb, filler, NA, 999, 999, 8, 13, 85, 123, 65, 173, 56, 134, 2, 0.368718
256, 6, wb, attraction, a-b-db, 9, 1, 8, 14, 135, 60, 57, 129, 60, 135, 1, 0.600031
256, 6, wb, attraction, a-b-db, 9, 1, 8, 14, 135, 60, 57, 129, 60, 135, 3, 0.502989
256, 6, wb, attraction, a-b-da, 14, 1, 8, 15, 60, 135, 125, 56, 135, 60, 3, 0.648694
256, 6, wb, attraction, a-b-da, 14, 1, 8, 15, 60, 135, 125, 56, 135, 60, 2, 0.501817
256, 6, wb, catch, NA, 999, 999, 8, 16, 158, 157, 93, 102, 150, 105, 1, 0.439535
256, 6, wb, catch, NA, 999, 999, 8, 16, 158, 157, 93, 102, 150, 105, 2, 5.10878
256, 6, wb, attraction, a-b-da, 14, 2, 8, 17, 90, 165, 165, 90, 153, 83, 1, 1.54845
256, 6, wb, attraction, a-b-da, 14, 2, 8, 17, 90, 165, 165, 90, 153, 83, 2, 0.389236
256, 6, wb, attraction, a-b-da, 9, 3, 8, 18, 186, 114, 195, 120, 120, 195, 3, 0.93109
256, 6, wb, attraction, a-b-da, 9, 3, 8, 18, 186, 114, 195, 120, 120, 195, 1, 0.684764
256, 6, wb, attraction, a-b-db, 2, 1, 8, 19, 135, 60, 60, 135, 59, 134, 3, 0.671162
256, 6, wb, attraction, a-b-db, 2, 1, 8, 19, 135, 60, 60, 135, 59, 134, 2, 0.39514
256, 6, wb, attraction, a-b-db, 9, 3, 8, 20, 120, 195, 114, 186, 195, 120, 2, 2.37678
256, 6, wb, attraction, a-b-db, 9, 3, 8, 20, 120, 195, 114, 186, 195, 120, 3, 0.856068
256, 6, wb, attraction, a-b-db, 14, 1, 8, 21, 60, 135, 56, 125, 135, 60, 2, 0.747651
256, 6, wb, attraction, a-b-db, 14, 1, 8, 21, 60, 135, 56, 125, 135, 60, 1, 1.86869
256, 6, wb, filler, NA, 999, 999, 8, 22, 112, 104, 135, 130, 93, 104, 3, 1.56748
256, 6, wb, filler, NA, 999, 999, 8, 22, 112, 104, 135, 130, 93, 104, 2, 0.415716
256, 6, wb, attraction, a-b-da, 5, 2, 8, 23, 165, 90, 161, 88, 90, 165, 3, 1.03684
256, 6, wb, attraction, a-b-da, 5, 2, 8, 23, 165, 90, 161, 88, 90, 165, 2, 0.425713
256, 6, wb, attraction, a-b-da, 2, 3, 8, 24, 120, 195, 193, 119, 195, 120, 1, 0.854199
256, 6, wb, attraction, a-b-da, 2, 3, 8, 24, 120, 195, 193, 119, 195, 120, 2, 0.45056
256, 6, wb, attraction, a-b-db, 2, 3, 8, 25, 195, 120, 120, 195, 119, 193, 3, 0.734311
256, 6, wb, attraction, a-b-db, 2, 3, 8, 25, 195, 120, 120, 195, 119, 193, 2, 0.46409
256, 6, wb, filler, NA, 999, 999, 8, 26, 103, 140, 178, 89, 107, 77, 3, 0.851254
256, 6, wb, filler, NA, 999, 999, 8, 26, 103, 140, 178, 89, 107, 77, 2, 2.34438
256, 6, wb, attraction, a-b-da, 5, 3, 8, 27, 195, 120, 120, 195, 190, 117, 3, 1.02347
256, 6, wb, attraction, a-b-da, 5, 3, 8, 27, 195, 120, 120, 195, 190, 117, 2, 0.477101
256, 6, wb, catch, NA, 999, 999, 8, 28, 100, 95, 145, 170, 149, 106, 1, 1.32752
256, 6, wb, catch, NA, 999, 999, 8, 28, 100, 95, 145, 170, 149, 106, 2, 0.521196
256, 6, wb, filler, NA, 999, 999, 8, 29, 131, 143, 170, 151, 100, 102, 3, 1.09845
256, 6, wb, filler, NA, 999, 999, 8, 29, 131, 143, 170, 151, 100, 102, 2, 0.493233
256, 6, wb, attraction, a-b-da, 14, 3, 8, 30, 120, 195, 195, 120, 181, 111, 3, 2.91914
256, 6, wb, attraction, a-b-da, 14, 3, 8, 30, 120, 195, 195, 120, 181, 111, 1, 0.51282
256, 6, wb, attraction, a-b-db, 2, 2, 8, 31, 89, 163, 90, 165, 165, 90, 3, 1.14591
256, 6, wb, attraction, a-b-db, 2, 2, 8, 31, 89, 163, 90, 165, 165, 90, 1, 1.16288
256, 6, wb, filler, NA, 999, 999, 8, 32, 113, 87, 100, 129, 85, 195, 1, 59.8818
256, 6, wb, filler, NA, 999, 999, 8, 32, 113, 87, 100, 129, 85, 195, 3, 0.683634
256, 6, wb, catch, NA, 999, 999, 8, 33, 150, 105, 60, 135, 152, 163, 2, 1.02999
256, 6, wb, catch, NA, 999, 999, 8, 33, 150, 105, 60, 135, 152, 163, 3, 0.539666
256, 6, wb, filler, NA, 999, 999, 8, 34, 178, 108, 173, 157, 148, 93, 3, 0.77156
256, 6, wb, filler, NA, 999, 999, 8, 34, 178, 108, 173, 157, 148, 93, 2, 0.363213
256, 6, wb, attraction, a-b-db, 5, 1, 8, 35, 60, 135, 58, 132, 135, 60, 2, 1.87442
256, 6, wb, attraction, a-b-db, 5, 1, 8, 35, 60, 135, 58, 132, 135, 60, 1, 0.413736
256, 6, wb, attraction, a-b-db, 9, 2, 8, 36, 90, 165, 86, 157, 165, 90, 1, 1.35501
256, 6, wb, attraction, a-b-db, 9, 2, 8, 36, 90, 165, 86, 157, 165, 90, 2, 0.531105
256, 6, wb, attraction, a-b-db, 5, 2, 8, 37, 165, 90, 88, 161, 90, 165, 1, 0.891697
256, 6, wb, attraction, a-b-db, 5, 2, 8, 37, 165, 90, 88, 161, 90, 165, 2, 0.326583
