sub_n, computer_n, bw_cond, effect, set, distance, diag, block_n, trial_n, h1, w1, h2, w2, h3, w3, choice, rt 
234, 6, wb, practice, NA, 999, 999, 0, 1, 163, 105, 98, 192, 64, 133, 3, 4.05893
234, 6, wb, practice, NA, 999, 999, 0, 1, 163, 105, 98, 192, 64, 133, 2, 2.42294
234, 6, wb, practice, NA, 999, 999, 0, 2, 112, 183, 145, 114, 184, 146, 2, 3.11909
234, 6, wb, practice, NA, 999, 999, 0, 2, 112, 183, 145, 114, 184, 146, 3, 1.79206
234, 6, wb, practice, NA, 999, 999, 0, 3, 147, 139, 184, 156, 117, 123, 3, 2.23461
234, 6, wb, practice, NA, 999, 999, 0, 3, 147, 139, 184, 156, 117, 123, 2, 1.16247
234, 6, wb, attraction, a-b-db, 5, 3, 1, 1, 117, 190, 195, 120, 120, 195, 2, 8.29594
234, 6, wb, attraction, a-b-db, 5, 3, 1, 1, 117, 190, 195, 120, 120, 195, 3, 0.648497
234, 6, wb, catch, NA, 999, 999, 1, 2, 120, 195, 109, 146, 74, 121, 3, 1.24431
234, 6, wb, catch, NA, 999, 999, 1, 2, 120, 195, 109, 146, 74, 121, 1, 0.857183
234, 6, wb, attraction, a-b-da, 14, 1, 1, 3, 125, 56, 135, 60, 60, 135, 1, 3.54836
234, 6, wb, attraction, a-b-da, 14, 1, 1, 3, 125, 56, 135, 60, 60, 135, 3, 1.25245
234, 6, wb, attraction, a-b-db, 14, 1, 1, 4, 135, 60, 56, 125, 60, 135, 2, 5.10399
234, 6, wb, attraction, a-b-db, 14, 1, 1, 4, 135, 60, 56, 125, 60, 135, 3, 2.32973
234, 6, wb, filler, NA, 999, 999, 1, 5, 115, 164, 103, 113, 70, 185, 2, 10.7215
234, 6, wb, filler, NA, 999, 999, 1, 5, 115, 164, 103, 113, 70, 185, 1, 0.856896
234, 6, wb, attraction, a-b-db, 5, 1, 1, 6, 58, 132, 135, 60, 60, 135, 2, 3.9478
234, 6, wb, attraction, a-b-db, 5, 1, 1, 6, 58, 132, 135, 60, 60, 135, 3, 1.30012
234, 6, wb, attraction, a-b-da, 5, 1, 1, 7, 132, 58, 60, 135, 135, 60, 1, 5.82947
234, 6, wb, attraction, a-b-da, 5, 1, 1, 7, 132, 58, 60, 135, 135, 60, 3, 0.937597
234, 6, wb, attraction, a-b-db, 5, 2, 1, 8, 88, 161, 165, 90, 90, 165, 2, 8.04199
234, 6, wb, attraction, a-b-db, 5, 2, 1, 8, 88, 161, 165, 90, 90, 165, 3, 0.804699
234, 6, wb, attraction, a-b-da, 5, 2, 1, 9, 90, 165, 165, 90, 161, 88, 2, 4.59444
234, 6, wb, attraction, a-b-da, 5, 2, 1, 9, 90, 165, 165, 90, 161, 88, 1, 1.67234
234, 6, wb, attraction, a-b-da, 9, 3, 1, 10, 195, 120, 120, 195, 186, 114, 3, 5.41104
234, 6, wb, attraction, a-b-da, 9, 3, 1, 10, 195, 120, 120, 195, 186, 114, 2, 0.736064
234, 6, wb, attraction, a-b-da, 14, 2, 1, 11, 153, 83, 90, 165, 165, 90, 1, 2.07239
234, 6, wb, attraction, a-b-da, 14, 2, 1, 11, 153, 83, 90, 165, 165, 90, 3, 5.57985
234, 6, wb, attraction, a-b-db, 9, 3, 1, 12, 120, 195, 195, 120, 114, 186, 2, 9.58462
234, 6, wb, attraction, a-b-db, 9, 3, 1, 12, 120, 195, 195, 120, 114, 186, 1, 0.869646
234, 6, wb, filler, NA, 999, 999, 1, 13, 100, 163, 112, 116, 177, 182, 2, 3.0006
234, 6, wb, filler, NA, 999, 999, 1, 13, 100, 163, 112, 116, 177, 182, 3, 0.798901
234, 6, wb, filler, NA, 999, 999, 1, 14, 150, 195, 105, 129, 158, 127, 2, 1.49277
234, 6, wb, filler, NA, 999, 999, 1, 14, 150, 195, 105, 129, 158, 127, 1, 0.679407
234, 6, wb, filler, NA, 999, 999, 1, 15, 162, 112, 66, 192, 122, 171, 2, 2.86585
234, 6, wb, filler, NA, 999, 999, 1, 15, 162, 112, 66, 192, 122, 171, 3, 0.837722
234, 6, wb, catch, NA, 999, 999, 1, 16, 176, 139, 91, 104, 90, 165, 2, 1.17796
234, 6, wb, catch, NA, 999, 999, 1, 16, 176, 139, 91, 104, 90, 165, 1, 0.537526
234, 6, wb, attraction, a-b-db, 2, 1, 1, 17, 135, 60, 60, 135, 59, 134, 1, 3.69796
234, 6, wb, attraction, a-b-db, 2, 1, 1, 17, 135, 60, 60, 135, 59, 134, 2, 0.564258
234, 6, wb, attraction, a-b-db, 9, 2, 1, 18, 165, 90, 90, 165, 86, 157, 1, 7.19525
234, 6, wb, attraction, a-b-db, 9, 2, 1, 18, 165, 90, 90, 165, 86, 157, 2, 0.800207
234, 6, wb, attraction, a-b-da, 5, 3, 1, 19, 195, 120, 120, 195, 190, 117, 3, 3.766
234, 6, wb, attraction, a-b-da, 5, 3, 1, 19, 195, 120, 120, 195, 190, 117, 2, 0.757463
234, 6, wb, filler, NA, 999, 999, 1, 20, 167, 141, 161, 114, 87, 116, 3, 1.22054
234, 6, wb, filler, NA, 999, 999, 1, 20, 167, 141, 161, 114, 87, 116, 1, 0.7787
234, 6, wb, catch, NA, 999, 999, 1, 21, 173, 142, 152, 103, 118, 77, 3, 1.20113
234, 6, wb, catch, NA, 999, 999, 1, 21, 173, 142, 152, 103, 118, 77, 1, 0.671995
234, 6, wb, attraction, a-b-db, 2, 3, 1, 22, 120, 195, 195, 120, 119, 193, 2, 3.80313
234, 6, wb, attraction, a-b-db, 2, 3, 1, 22, 120, 195, 195, 120, 119, 193, 3, 0.817221
234, 6, wb, attraction, a-b-da, 2, 1, 1, 23, 134, 59, 60, 135, 135, 60, 1, 8.65428
234, 6, wb, attraction, a-b-da, 2, 1, 1, 23, 134, 59, 60, 135, 135, 60, 2, 1.68088
234, 6, wb, attraction, a-b-da, 2, 2, 1, 24, 165, 90, 163, 89, 90, 165, 2, 2.45897
234, 6, wb, attraction, a-b-da, 2, 2, 1, 24, 165, 90, 163, 89, 90, 165, 3, 2.455
234, 6, wb, filler, NA, 999, 999, 1, 25, 89, 138, 164, 137, 195, 170, 1, 1.17793
234, 6, wb, filler, NA, 999, 999, 1, 25, 89, 138, 164, 137, 195, 170, 3, 0.601635
234, 6, wb, attraction, a-b-da, 9, 2, 1, 26, 157, 86, 90, 165, 165, 90, 1, 2.35144
234, 6, wb, attraction, a-b-da, 9, 2, 1, 26, 157, 86, 90, 165, 165, 90, 2, 0.632048
234, 6, wb, filler, NA, 999, 999, 1, 27, 124, 145, 119, 117, 147, 176, 2, 1.36429
234, 6, wb, filler, NA, 999, 999, 1, 27, 124, 145, 119, 117, 147, 176, 3, 0.724474
234, 6, wb, attraction, a-b-db, 9, 1, 1, 28, 60, 135, 135, 60, 57, 129, 3, 3.46097
234, 6, wb, attraction, a-b-db, 9, 1, 1, 28, 60, 135, 135, 60, 57, 129, 1, 0.936608
234, 6, wb, attraction, a-b-da, 14, 3, 1, 29, 120, 195, 195, 120, 181, 111, 3, 1.80884
234, 6, wb, attraction, a-b-da, 14, 3, 1, 29, 120, 195, 195, 120, 181, 111, 1, 2.19085
234, 6, wb, attraction, a-b-da, 2, 3, 1, 30, 195, 120, 120, 195, 193, 119, 3, 3.95608
234, 6, wb, attraction, a-b-da, 2, 3, 1, 30, 195, 120, 120, 195, 193, 119, 2, 1.87549
234, 6, wb, attraction, a-b-da, 9, 1, 1, 31, 60, 135, 129, 57, 135, 60, 2, 7.11761
234, 6, wb, attraction, a-b-da, 9, 1, 1, 31, 60, 135, 129, 57, 135, 60, 1, 0.869986
234, 6, wb, filler, NA, 999, 999, 1, 32, 120, 119, 167, 78, 175, 98, 2, 20.561
234, 6, wb, filler, NA, 999, 999, 1, 32, 120, 119, 167, 78, 175, 98, 1, 10.0592
234, 6, wb, attraction, a-b-db, 14, 2, 1, 33, 90, 165, 165, 90, 83, 153, 2, 4.89206
234, 6, wb, attraction, a-b-db, 14, 2, 1, 33, 90, 165, 165, 90, 83, 153, 1, 0.757844
234, 6, wb, attraction, a-b-db, 14, 3, 1, 34, 120, 195, 195, 120, 111, 181, 3, 5.03687
234, 6, wb, attraction, a-b-db, 14, 3, 1, 34, 120, 195, 195, 120, 111, 181, 1, 0.545268
234, 6, wb, filler, NA, 999, 999, 1, 35, 113, 106, 191, 180, 156, 104, 1, 5.63299
234, 6, wb, filler, NA, 999, 999, 1, 35, 113, 106, 191, 180, 156, 104, 2, 0.397247
234, 6, wb, attraction, a-b-db, 2, 2, 1, 36, 89, 163, 90, 165, 165, 90, 2, 5.243
234, 6, wb, attraction, a-b-db, 2, 2, 1, 36, 89, 163, 90, 165, 165, 90, 1, 3.35867
234, 6, wb, filler, NA, 999, 999, 1, 37, 124, 174, 90, 60, 80, 82, 2, 2.43696
234, 6, wb, filler, NA, 999, 999, 1, 37, 124, 174, 90, 60, 80, 82, 1, 0.762145
234, 6, wb, attraction, a-b-da, 2, 3, 2, 1, 193, 119, 195, 120, 120, 195, 2, 4.17715
234, 6, wb, attraction, a-b-da, 2, 3, 2, 1, 193, 119, 195, 120, 120, 195, 3, 0.751811
234, 6, wb, attraction, a-b-db, 5, 3, 2, 2, 120, 195, 117, 190, 195, 120, 2, 4.59157
234, 6, wb, attraction, a-b-db, 5, 3, 2, 2, 120, 195, 117, 190, 195, 120, 1, 7.14936
234, 6, wb, attraction, a-b-db, 2, 3, 2, 3, 120, 195, 195, 120, 119, 193, 2, 5.12316
234, 6, wb, attraction, a-b-db, 2, 3, 2, 3, 120, 195, 195, 120, 119, 193, 3, 0.843467
234, 6, wb, attraction, a-b-db, 9, 1, 2, 4, 60, 135, 135, 60, 57, 129, 2, 4.53514
234, 6, wb, attraction, a-b-db, 9, 1, 2, 4, 60, 135, 135, 60, 57, 129, 1, 0.623637
234, 6, wb, filler, NA, 999, 999, 2, 5, 114, 89, 73, 120, 145, 104, 2, 2.79611
234, 6, wb, filler, NA, 999, 999, 2, 5, 114, 89, 73, 120, 145, 104, 3, 0.826733
234, 6, wb, attraction, a-b-db, 5, 2, 2, 6, 165, 90, 88, 161, 90, 165, 1, 8.48708
234, 6, wb, attraction, a-b-db, 5, 2, 2, 6, 165, 90, 88, 161, 90, 165, 3, 0.744188
234, 6, wb, attraction, a-b-da, 14, 1, 2, 7, 135, 60, 125, 56, 60, 135, 2, 4.27209
234, 6, wb, attraction, a-b-da, 14, 1, 2, 7, 135, 60, 125, 56, 60, 135, 3, 1.01859
234, 6, wb, filler, NA, 999, 999, 2, 8, 134, 177, 180, 114, 63, 123, 3, 1.35946
234, 6, wb, filler, NA, 999, 999, 2, 8, 134, 177, 180, 114, 63, 123, 1, 2.27972
234, 6, wb, filler, NA, 999, 999, 2, 9, 87, 64, 151, 135, 166, 101, 1, 1.66577
234, 6, wb, filler, NA, 999, 999, 2, 9, 87, 64, 151, 135, 166, 101, 2, 0.6538
234, 6, wb, attraction, a-b-da, 2, 1, 2, 10, 134, 59, 60, 135, 135, 60, 3, 3.29757
234, 6, wb, attraction, a-b-da, 2, 1, 2, 10, 134, 59, 60, 135, 135, 60, 2, 2.37178
234, 6, wb, catch, NA, 999, 999, 2, 11, 133, 62, 134, 121, 158, 157, 1, 1.22631
234, 6, wb, catch, NA, 999, 999, 2, 11, 133, 62, 134, 121, 158, 157, 3, 0.63189
234, 6, wb, catch, NA, 999, 999, 2, 12, 181, 134, 134, 61, 118, 137, 2, 1.06038
234, 6, wb, catch, NA, 999, 999, 2, 12, 181, 134, 134, 61, 118, 137, 1, 0.600548
234, 6, wb, attraction, a-b-db, 2, 2, 2, 13, 90, 165, 89, 163, 165, 90, 3, 1.72633
234, 6, wb, attraction, a-b-db, 2, 2, 2, 13, 90, 165, 89, 163, 165, 90, 2, 0.607708
234, 6, wb, attraction, a-b-db, 5, 1, 2, 14, 58, 132, 135, 60, 60, 135, 2, 1.98087
234, 6, wb, attraction, a-b-db, 5, 1, 2, 14, 58, 132, 135, 60, 60, 135, 3, 0.604289
234, 6, wb, attraction, a-b-db, 14, 3, 2, 15, 120, 195, 195, 120, 111, 181, 3, 1.77801
234, 6, wb, attraction, a-b-db, 14, 3, 2, 15, 120, 195, 195, 120, 111, 181, 1, 0.921412
234, 6, wb, attraction, a-b-db, 9, 2, 2, 16, 90, 165, 165, 90, 86, 157, 2, 2.29035
234, 6, wb, attraction, a-b-db, 9, 2, 2, 16, 90, 165, 165, 90, 86, 157, 1, 2.28504
234, 6, wb, attraction, a-b-da, 9, 2, 2, 17, 157, 86, 90, 165, 165, 90, 1, 4.93484
234, 6, wb, attraction, a-b-da, 9, 2, 2, 17, 157, 86, 90, 165, 165, 90, 3, 0.943309
234, 6, wb, attraction, a-b-db, 14, 2, 2, 18, 90, 165, 165, 90, 83, 153, 2, 4.11104
234, 6, wb, attraction, a-b-db, 14, 2, 2, 18, 90, 165, 165, 90, 83, 153, 1, 0.544311
234, 6, wb, attraction, a-b-da, 5, 3, 2, 19, 120, 195, 195, 120, 190, 117, 3, 2.21605
234, 6, wb, attraction, a-b-da, 5, 3, 2, 19, 120, 195, 195, 120, 190, 117, 1, 0.493989
234, 6, wb, attraction, a-b-da, 9, 3, 2, 20, 120, 195, 195, 120, 186, 114, 3, 4.35184
234, 6, wb, attraction, a-b-da, 9, 3, 2, 20, 120, 195, 195, 120, 186, 114, 1, 0.415784
234, 6, wb, attraction, a-b-da, 14, 2, 2, 21, 165, 90, 90, 165, 153, 83, 3, 2.02888
234, 6, wb, attraction, a-b-da, 14, 2, 2, 21, 165, 90, 90, 165, 153, 83, 1, 1.61825
234, 6, wb, attraction, a-b-da, 5, 2, 2, 22, 165, 90, 90, 165, 161, 88, 3, 9.68718
234, 6, wb, attraction, a-b-da, 5, 2, 2, 22, 165, 90, 90, 165, 161, 88, 2, 0.351863
234, 6, wb, filler, NA, 999, 999, 2, 23, 106, 149, 62, 167, 167, 145, 2, 1.19178
234, 6, wb, filler, NA, 999, 999, 2, 23, 106, 149, 62, 167, 167, 145, 3, 0.390732
234, 6, wb, attraction, a-b-db, 14, 1, 2, 24, 56, 125, 60, 135, 135, 60, 1, 2.88457
234, 6, wb, attraction, a-b-db, 14, 1, 2, 24, 56, 125, 60, 135, 135, 60, 2, 0.623662
234, 6, wb, attraction, a-b-da, 2, 2, 2, 25, 165, 90, 90, 165, 163, 89, 1, 7.54002
234, 6, wb, attraction, a-b-da, 2, 2, 2, 25, 165, 90, 90, 165, 163, 89, 2, 0.555717
234, 6, wb, filler, NA, 999, 999, 2, 26, 124, 144, 186, 103, 115, 164, 1, 9.16345
234, 6, wb, filler, NA, 999, 999, 2, 26, 124, 144, 186, 103, 115, 164, 3, 0.497197
234, 6, wb, attraction, a-b-db, 9, 3, 2, 27, 114, 186, 120, 195, 195, 120, 1, 3.65912
234, 6, wb, attraction, a-b-db, 9, 3, 2, 27, 114, 186, 120, 195, 195, 120, 2, 0.566547
234, 6, wb, attraction, a-b-da, 9, 1, 2, 28, 60, 135, 129, 57, 135, 60, 2, 4.66163
234, 6, wb, attraction, a-b-da, 9, 1, 2, 28, 60, 135, 129, 57, 135, 60, 3, 1.07274
234, 6, wb, catch, NA, 999, 999, 2, 29, 128, 127, 190, 125, 95, 100, 3, 1.10769
234, 6, wb, catch, NA, 999, 999, 2, 29, 128, 127, 190, 125, 95, 100, 2, 1.18201
234, 6, wb, filler, NA, 999, 999, 2, 30, 58, 82, 119, 140, 115, 143, 1, 1.46021
234, 6, wb, filler, NA, 999, 999, 2, 30, 58, 82, 119, 140, 115, 143, 3, 1.16038
234, 6, wb, attraction, a-b-db, 2, 1, 2, 31, 60, 135, 135, 60, 59, 134, 2, 2.11138
234, 6, wb, attraction, a-b-db, 2, 1, 2, 31, 60, 135, 135, 60, 59, 134, 1, 0.705322
234, 6, wb, filler, NA, 999, 999, 2, 32, 142, 132, 161, 98, 129, 165, 2, 2.49111
234, 6, wb, filler, NA, 999, 999, 2, 32, 142, 132, 161, 98, 129, 165, 3, 0.437533
234, 6, wb, attraction, a-b-da, 5, 1, 2, 33, 135, 60, 60, 135, 132, 58, 2, 2.27402
234, 6, wb, attraction, a-b-da, 5, 1, 2, 33, 135, 60, 60, 135, 132, 58, 1, 0.693386
234, 6, wb, filler, NA, 999, 999, 2, 34, 136, 167, 157, 129, 182, 57, 3, 2.29498
234, 6, wb, filler, NA, 999, 999, 2, 34, 136, 167, 157, 129, 182, 57, 1, 1.7296
234, 6, wb, attraction, a-b-da, 14, 3, 2, 35, 120, 195, 195, 120, 181, 111, 3, 3.50574
234, 6, wb, attraction, a-b-da, 14, 3, 2, 35, 120, 195, 195, 120, 181, 111, 1, 0.755168
234, 6, wb, filler, NA, 999, 999, 2, 36, 155, 66, 71, 73, 105, 99, 2, 1.04289
234, 6, wb, filler, NA, 999, 999, 2, 36, 155, 66, 71, 73, 105, 99, 3, 3.04797
234, 6, wb, filler, NA, 999, 999, 2, 37, 56, 74, 139, 83, 115, 122, 1, 1.12285
234, 6, wb, filler, NA, 999, 999, 2, 37, 56, 74, 139, 83, 115, 122, 3, 0.988508
234, 6, wb, attraction, a-b-da, 5, 1, 3, 1, 132, 58, 135, 60, 60, 135, 2, 8.72281
234, 6, wb, attraction, a-b-da, 5, 1, 3, 1, 132, 58, 135, 60, 60, 135, 3, 1.098
234, 6, wb, catch, NA, 999, 999, 3, 2, 133, 182, 82, 113, 121, 134, 2, 1.21159
234, 6, wb, catch, NA, 999, 999, 3, 2, 133, 182, 82, 113, 121, 134, 1, 0.545846
234, 6, wb, attraction, a-b-da, 14, 1, 3, 3, 125, 56, 60, 135, 135, 60, 1, 2.3937
234, 6, wb, attraction, a-b-da, 14, 1, 3, 3, 125, 56, 60, 135, 135, 60, 2, 0.712227
234, 6, wb, attraction, a-b-db, 14, 1, 3, 4, 56, 125, 60, 135, 135, 60, 1, 6.68932
234, 6, wb, attraction, a-b-db, 14, 1, 3, 4, 56, 125, 60, 135, 135, 60, 2, 3.17855
234, 6, wb, attraction, a-b-db, 2, 3, 3, 5, 195, 120, 119, 193, 120, 195, 1, 7.92025
234, 6, wb, attraction, a-b-db, 2, 3, 3, 5, 195, 120, 119, 193, 120, 195, 3, 0.976267
234, 6, wb, attraction, a-b-da, 5, 2, 3, 6, 161, 88, 90, 165, 165, 90, 1, 5.74263
234, 6, wb, attraction, a-b-da, 5, 2, 3, 6, 161, 88, 90, 165, 165, 90, 3, 0.58211
234, 6, wb, filler, NA, 999, 999, 3, 7, 164, 170, 78, 134, 122, 64, 3, 2.0605
234, 6, wb, filler, NA, 999, 999, 3, 7, 164, 170, 78, 134, 122, 64, 1, 0.872474
234, 6, wb, attraction, a-b-da, 2, 1, 3, 8, 135, 60, 134, 59, 60, 135, 1, 4.32355
234, 6, wb, attraction, a-b-da, 2, 1, 3, 8, 135, 60, 134, 59, 60, 135, 3, 0.692151
234, 6, wb, filler, NA, 999, 999, 3, 9, 78, 131, 123, 98, 187, 186, 1, 1.43785
234, 6, wb, filler, NA, 999, 999, 3, 9, 78, 131, 123, 98, 187, 186, 3, 0.930831
234, 6, wb, attraction, a-b-db, 2, 1, 3, 10, 60, 135, 59, 134, 135, 60, 2, 3.78706
234, 6, wb, attraction, a-b-db, 2, 1, 3, 10, 60, 135, 59, 134, 135, 60, 3, 1.818
234, 6, wb, attraction, a-b-da, 14, 2, 3, 11, 153, 83, 165, 90, 90, 165, 1, 2.50262
234, 6, wb, attraction, a-b-da, 14, 2, 3, 11, 153, 83, 165, 90, 90, 165, 3, 0.545028
234, 6, wb, attraction, a-b-db, 14, 3, 3, 12, 111, 181, 120, 195, 195, 120, 1, 1.52083
234, 6, wb, attraction, a-b-db, 14, 3, 3, 12, 111, 181, 120, 195, 195, 120, 2, 1.15435
234, 6, wb, attraction, a-b-da, 2, 2, 3, 13, 163, 89, 90, 165, 165, 90, 2, 4.6339
234, 6, wb, attraction, a-b-da, 2, 2, 3, 13, 163, 89, 90, 165, 165, 90, 3, 0.750454
234, 6, wb, attraction, a-b-db, 9, 3, 3, 14, 114, 186, 120, 195, 195, 120, 1, 5.02221
234, 6, wb, attraction, a-b-db, 9, 3, 3, 14, 114, 186, 120, 195, 195, 120, 2, 0.706563
234, 6, wb, catch, NA, 999, 999, 3, 15, 132, 183, 97, 158, 127, 68, 3, 0.963734
234, 6, wb, catch, NA, 999, 999, 3, 15, 132, 183, 97, 158, 127, 68, 1, 0.691962
234, 6, wb, attraction, a-b-db, 5, 2, 3, 16, 165, 90, 90, 165, 88, 161, 1, 5.05363
234, 6, wb, attraction, a-b-db, 5, 2, 3, 16, 165, 90, 90, 165, 88, 161, 2, 0.43338
234, 6, wb, attraction, a-b-da, 5, 3, 3, 17, 120, 195, 195, 120, 190, 117, 3, 3.73381
234, 6, wb, attraction, a-b-da, 5, 3, 3, 17, 120, 195, 195, 120, 190, 117, 1, 0.534615
234, 6, wb, filler, NA, 999, 999, 3, 18, 178, 189, 77, 166, 171, 153, 2, 1.21516
234, 6, wb, filler, NA, 999, 999, 3, 18, 178, 189, 77, 166, 171, 153, 1, 0.677345
234, 6, wb, filler, NA, 999, 999, 3, 19, 66, 83, 157, 155, 59, 138, 1, 1.31976
234, 6, wb, filler, NA, 999, 999, 3, 19, 66, 83, 157, 155, 59, 138, 2, 0.594038
234, 6, wb, attraction, a-b-da, 9, 1, 3, 20, 60, 135, 135, 60, 129, 57, 3, 1.82379
234, 6, wb, attraction, a-b-da, 9, 1, 3, 20, 60, 135, 135, 60, 129, 57, 1, 0.75715
234, 6, wb, attraction, a-b-db, 9, 2, 3, 21, 90, 165, 86, 157, 165, 90, 2, 1.79626
234, 6, wb, attraction, a-b-db, 9, 2, 3, 21, 90, 165, 86, 157, 165, 90, 1, 0.819026
234, 6, wb, attraction, a-b-db, 2, 2, 3, 22, 165, 90, 90, 165, 89, 163, 3, 3.11201
234, 6, wb, attraction, a-b-db, 2, 2, 3, 22, 165, 90, 90, 165, 89, 163, 2, 0.657624
234, 6, wb, catch, NA, 999, 999, 3, 23, 144, 171, 96, 159, 116, 79, 3, 1.1488
234, 6, wb, catch, NA, 999, 999, 3, 23, 144, 171, 96, 159, 116, 79, 1, 0.653561
234, 6, wb, attraction, a-b-db, 9, 1, 3, 24, 60, 135, 135, 60, 57, 129, 3, 3.24939
234, 6, wb, attraction, a-b-db, 9, 1, 3, 24, 60, 135, 135, 60, 57, 129, 1, 0.805614
234, 6, wb, filler, NA, 999, 999, 3, 25, 65, 119, 80, 155, 86, 73, 3, 1.75538
234, 6, wb, filler, NA, 999, 999, 3, 25, 65, 119, 80, 155, 86, 73, 2, 0.931585
234, 6, wb, attraction, a-b-da, 14, 3, 3, 26, 195, 120, 120, 195, 181, 111, 3, 3.54781
234, 6, wb, attraction, a-b-da, 14, 3, 3, 26, 195, 120, 120, 195, 181, 111, 2, 0.5239
234, 6, wb, filler, NA, 999, 999, 3, 27, 70, 71, 179, 93, 103, 75, 1, 0.868413
234, 6, wb, filler, NA, 999, 999, 3, 27, 70, 71, 179, 93, 103, 75, 2, 0.752776
234, 6, wb, attraction, a-b-da, 9, 2, 3, 28, 165, 90, 157, 86, 90, 165, 2, 2.38454
234, 6, wb, attraction, a-b-da, 9, 2, 3, 28, 165, 90, 157, 86, 90, 165, 3, 0.671654
234, 6, wb, attraction, a-b-da, 9, 3, 3, 29, 186, 114, 120, 195, 195, 120, 1, 3.39479
234, 6, wb, attraction, a-b-da, 9, 3, 3, 29, 186, 114, 120, 195, 195, 120, 3, 0.584979
234, 6, wb, filler, NA, 999, 999, 3, 30, 164, 87, 159, 106, 67, 142, 3, 1.43945
234, 6, wb, filler, NA, 999, 999, 3, 30, 164, 87, 159, 106, 67, 142, 2, 0.476318
234, 6, wb, filler, NA, 999, 999, 3, 31, 132, 134, 142, 87, 73, 135, 3, 2.48678
234, 6, wb, filler, NA, 999, 999, 3, 31, 132, 134, 142, 87, 73, 135, 1, 0.505979
234, 6, wb, filler, NA, 999, 999, 3, 32, 84, 147, 78, 72, 178, 111, 2, 0.923748
234, 6, wb, filler, NA, 999, 999, 3, 32, 84, 147, 78, 72, 178, 111, 3, 0.757391
234, 6, wb, attraction, a-b-db, 5, 3, 3, 33, 120, 195, 117, 190, 195, 120, 3, 4.31648
234, 6, wb, attraction, a-b-db, 5, 3, 3, 33, 120, 195, 117, 190, 195, 120, 1, 0.461761
234, 6, wb, attraction, a-b-db, 14, 2, 3, 34, 83, 153, 165, 90, 90, 165, 1, 2.43296
234, 6, wb, attraction, a-b-db, 14, 2, 3, 34, 83, 153, 165, 90, 90, 165, 3, 0.654073
234, 6, wb, attraction, a-b-da, 2, 3, 3, 35, 195, 120, 120, 195, 193, 119, 3, 3.75405
234, 6, wb, attraction, a-b-da, 2, 3, 3, 35, 195, 120, 120, 195, 193, 119, 2, 0.369295
234, 6, wb, attraction, a-b-db, 5, 1, 3, 36, 58, 132, 135, 60, 60, 135, 2, 3.04857
234, 6, wb, attraction, a-b-db, 5, 1, 3, 36, 58, 132, 135, 60, 60, 135, 3, 0.676851
234, 6, wb, filler, NA, 999, 999, 3, 37, 110, 159, 152, 189, 172, 65, 3, 1.84728
234, 6, wb, filler, NA, 999, 999, 3, 37, 110, 159, 152, 189, 172, 65, 2, 0.380071
234, 6, wb, attraction, a-b-da, 9, 3, 4, 1, 186, 114, 120, 195, 195, 120, 1, 4.21041
234, 6, wb, attraction, a-b-da, 9, 3, 4, 1, 186, 114, 120, 195, 195, 120, 2, 0.407769
234, 6, wb, attraction, a-b-da, 2, 2, 4, 2, 90, 165, 163, 89, 165, 90, 2, 6.83687
234, 6, wb, attraction, a-b-da, 2, 2, 4, 2, 90, 165, 163, 89, 165, 90, 1, 0.464692
234, 6, wb, attraction, a-b-da, 2, 3, 4, 3, 195, 120, 120, 195, 193, 119, 1, 10.6039
234, 6, wb, attraction, a-b-da, 2, 3, 4, 3, 195, 120, 120, 195, 193, 119, 2, 0.391863
234, 6, wb, filler, NA, 999, 999, 4, 4, 86, 190, 72, 119, 111, 147, 2, 1.37365
234, 6, wb, filler, NA, 999, 999, 4, 4, 86, 190, 72, 119, 111, 147, 1, 2.77331
234, 6, wb, attraction, a-b-da, 5, 2, 4, 5, 165, 90, 161, 88, 90, 165, 2, 6.00362
234, 6, wb, attraction, a-b-da, 5, 2, 4, 5, 165, 90, 161, 88, 90, 165, 3, 0.817062
234, 6, wb, filler, NA, 999, 999, 4, 6, 137, 124, 128, 194, 90, 70, 3, 0.886214
234, 6, wb, filler, NA, 999, 999, 4, 6, 137, 124, 128, 194, 90, 70, 2, 0.529787
234, 6, wb, attraction, a-b-db, 2, 3, 4, 7, 120, 195, 119, 193, 195, 120, 2, 1.58618
234, 6, wb, attraction, a-b-db, 2, 3, 4, 7, 120, 195, 119, 193, 195, 120, 1, 1.14566
234, 6, wb, filler, NA, 999, 999, 4, 8, 186, 140, 67, 155, 123, 114, 2, 1.11352
234, 6, wb, filler, NA, 999, 999, 4, 8, 186, 140, 67, 155, 123, 114, 1, 0.451662
234, 6, wb, attraction, a-b-db, 5, 2, 4, 9, 88, 161, 90, 165, 165, 90, 3, 3.40738
234, 6, wb, attraction, a-b-db, 5, 2, 4, 9, 88, 161, 90, 165, 165, 90, 2, 0.541122
234, 6, wb, attraction, a-b-db, 2, 1, 4, 10, 59, 134, 135, 60, 60, 135, 2, 1.48471
234, 6, wb, attraction, a-b-db, 2, 1, 4, 10, 59, 134, 135, 60, 60, 135, 1, 1.49623
234, 6, wb, attraction, a-b-db, 9, 2, 4, 11, 165, 90, 86, 157, 90, 165, 2, 2.22579
234, 6, wb, attraction, a-b-db, 9, 2, 4, 11, 165, 90, 86, 157, 90, 165, 3, 0.678962
234, 6, wb, attraction, a-b-da, 9, 1, 4, 12, 60, 135, 129, 57, 135, 60, 2, 1.0655
234, 6, wb, attraction, a-b-da, 9, 1, 4, 12, 60, 135, 129, 57, 135, 60, 1, 0.557717
234, 6, wb, filler, NA, 999, 999, 4, 13, 144, 131, 121, 147, 98, 117, 3, 1.6848
234, 6, wb, filler, NA, 999, 999, 4, 13, 144, 131, 121, 147, 98, 117, 1, 0.984246
234, 6, wb, attraction, a-b-da, 14, 2, 4, 14, 153, 83, 90, 165, 165, 90, 1, 1.23855
234, 6, wb, attraction, a-b-da, 14, 2, 4, 14, 153, 83, 90, 165, 165, 90, 3, 0.619522
234, 6, wb, attraction, a-b-da, 14, 3, 4, 15, 120, 195, 181, 111, 195, 120, 2, 1.48058
234, 6, wb, attraction, a-b-da, 14, 3, 4, 15, 120, 195, 181, 111, 195, 120, 1, 0.596121
234, 6, wb, attraction, a-b-db, 14, 2, 4, 16, 83, 153, 165, 90, 90, 165, 1, 1.24184
234, 6, wb, attraction, a-b-db, 14, 2, 4, 16, 83, 153, 165, 90, 90, 165, 3, 0.702682
234, 6, wb, attraction, a-b-db, 9, 1, 4, 17, 57, 129, 135, 60, 60, 135, 1, 2.29653
234, 6, wb, attraction, a-b-db, 9, 1, 4, 17, 57, 129, 135, 60, 60, 135, 3, 0.891031
234, 6, wb, attraction, a-b-da, 2, 1, 4, 18, 135, 60, 60, 135, 134, 59, 1, 9.74073
234, 6, wb, attraction, a-b-da, 2, 1, 4, 18, 135, 60, 60, 135, 134, 59, 2, 0.426938
234, 6, wb, attraction, a-b-da, 14, 1, 4, 19, 60, 135, 125, 56, 135, 60, 2, 1.64759
234, 6, wb, attraction, a-b-da, 14, 1, 4, 19, 60, 135, 125, 56, 135, 60, 1, 0.588261
234, 6, wb, attraction, a-b-db, 5, 3, 4, 20, 117, 190, 120, 195, 195, 120, 3, 2.58673
234, 6, wb, attraction, a-b-db, 5, 3, 4, 20, 117, 190, 120, 195, 195, 120, 2, 0.649814
234, 6, wb, attraction, a-b-db, 5, 1, 4, 21, 135, 60, 60, 135, 58, 132, 2, 2.66166
234, 6, wb, attraction, a-b-db, 5, 1, 4, 21, 135, 60, 60, 135, 58, 132, 3, 1.05743
234, 6, wb, attraction, a-b-da, 5, 1, 4, 22, 60, 135, 135, 60, 132, 58, 2, 3.01243
234, 6, wb, attraction, a-b-da, 5, 1, 4, 22, 60, 135, 135, 60, 132, 58, 1, 0.666136
234, 6, wb, filler, NA, 999, 999, 4, 23, 74, 103, 60, 114, 76, 79, 2, 3.66123
234, 6, wb, filler, NA, 999, 999, 4, 23, 74, 103, 60, 114, 76, 79, 1, 0.552569
234, 6, wb, attraction, a-b-da, 5, 3, 4, 24, 120, 195, 195, 120, 190, 117, 2, 3.20841
234, 6, wb, attraction, a-b-da, 5, 3, 4, 24, 120, 195, 195, 120, 190, 117, 1, 0.789905
234, 6, wb, catch, NA, 999, 999, 4, 25, 79, 116, 134, 181, 159, 96, 1, 1.13165
234, 6, wb, catch, NA, 999, 999, 4, 25, 79, 116, 134, 181, 159, 96, 2, 1.07736
234, 6, wb, filler, NA, 999, 999, 4, 26, 149, 166, 136, 146, 142, 113, 2, 2.0156
234, 6, wb, filler, NA, 999, 999, 4, 26, 149, 166, 136, 146, 142, 113, 1, 1.44568
234, 6, wb, filler, NA, 999, 999, 4, 27, 104, 184, 84, 91, 77, 191, 2, 0.784987
234, 6, wb, filler, NA, 999, 999, 4, 27, 104, 184, 84, 91, 77, 191, 1, 0.736795
234, 6, wb, catch, NA, 999, 999, 4, 28, 178, 137, 86, 109, 152, 103, 2, 0.985144
234, 6, wb, catch, NA, 999, 999, 4, 28, 178, 137, 86, 109, 152, 103, 1, 0.480859
234, 6, wb, attraction, a-b-db, 14, 1, 4, 29, 56, 125, 60, 135, 135, 60, 1, 1.95536
234, 6, wb, attraction, a-b-db, 14, 1, 4, 29, 56, 125, 60, 135, 135, 60, 2, 1.71537
234, 6, wb, filler, NA, 999, 999, 4, 30, 135, 166, 117, 88, 82, 78, 3, 0.876063
234, 6, wb, filler, NA, 999, 999, 4, 30, 135, 166, 117, 88, 82, 78, 1, 0.471762
234, 6, wb, attraction, a-b-db, 14, 3, 4, 31, 195, 120, 120, 195, 111, 181, 3, 3.18694
234, 6, wb, attraction, a-b-db, 14, 3, 4, 31, 195, 120, 120, 195, 111, 181, 2, 0.665791
234, 6, wb, attraction, a-b-db, 2, 2, 4, 32, 90, 165, 89, 163, 165, 90, 1, 2.87694
234, 6, wb, attraction, a-b-db, 2, 2, 4, 32, 90, 165, 89, 163, 165, 90, 2, 0.464054
234, 6, wb, attraction, a-b-da, 9, 2, 4, 33, 157, 86, 165, 90, 90, 165, 1, 2.49914
234, 6, wb, attraction, a-b-da, 9, 2, 4, 33, 157, 86, 165, 90, 90, 165, 3, 0.485557
234, 6, wb, filler, NA, 999, 999, 4, 34, 140, 110, 70, 66, 58, 119, 2, 0.960084
234, 6, wb, filler, NA, 999, 999, 4, 34, 140, 110, 70, 66, 58, 119, 1, 0.480467
234, 6, wb, attraction, a-b-db, 9, 3, 4, 35, 114, 186, 195, 120, 120, 195, 1, 1.34698
234, 6, wb, attraction, a-b-db, 9, 3, 4, 35, 114, 186, 195, 120, 120, 195, 3, 1.02783
234, 6, wb, filler, NA, 999, 999, 4, 36, 194, 59, 90, 151, 96, 79, 3, 3.47212
234, 6, wb, filler, NA, 999, 999, 4, 36, 194, 59, 90, 151, 96, 79, 2, 0.562954
234, 6, wb, catch, NA, 999, 999, 4, 37, 181, 134, 93, 102, 148, 107, 2, 0.906029
234, 6, wb, catch, NA, 999, 999, 4, 37, 181, 134, 93, 102, 148, 107, 1, 0.420366
234, 6, wb, attraction, a-b-db, 9, 3, 5, 1, 114, 186, 120, 195, 195, 120, 1, 4.08753
234, 6, wb, attraction, a-b-db, 9, 3, 5, 1, 114, 186, 120, 195, 195, 120, 2, 0.706364
234, 6, wb, attraction, a-b-da, 9, 2, 5, 2, 90, 165, 165, 90, 157, 86, 3, 3.53932
234, 6, wb, attraction, a-b-da, 9, 2, 5, 2, 90, 165, 165, 90, 157, 86, 1, 0.8994
234, 6, wb, attraction, a-b-db, 9, 1, 5, 3, 57, 129, 60, 135, 135, 60, 1, 1.2451
234, 6, wb, attraction, a-b-db, 9, 1, 5, 3, 57, 129, 60, 135, 135, 60, 2, 0.842106
234, 6, wb, attraction, a-b-db, 2, 3, 5, 4, 120, 195, 195, 120, 119, 193, 2, 2.05374
234, 6, wb, attraction, a-b-db, 2, 3, 5, 4, 120, 195, 195, 120, 119, 193, 1, 0.45783
234, 6, wb, filler, NA, 999, 999, 5, 5, 82, 156, 134, 133, 125, 83, 3, 1.73285
234, 6, wb, filler, NA, 999, 999, 5, 5, 82, 156, 134, 133, 125, 83, 2, 0.494338
234, 6, wb, filler, NA, 999, 999, 5, 6, 65, 179, 155, 166, 174, 178, 1, 1.16008
234, 6, wb, filler, NA, 999, 999, 5, 6, 65, 179, 155, 166, 174, 178, 3, 0.728381
234, 6, wb, filler, NA, 999, 999, 5, 7, 140, 104, 126, 80, 106, 164, 2, 1.40071
234, 6, wb, filler, NA, 999, 999, 5, 7, 140, 104, 126, 80, 106, 164, 3, 0.719541
234, 6, wb, attraction, a-b-da, 5, 3, 5, 8, 120, 195, 190, 117, 195, 120, 2, 3.34466
234, 6, wb, attraction, a-b-da, 5, 3, 5, 8, 120, 195, 190, 117, 195, 120, 1, 0.480889
234, 6, wb, filler, NA, 999, 999, 5, 9, 58, 130, 145, 69, 138, 178, 1, 1.02734
234, 6, wb, filler, NA, 999, 999, 5, 9, 58, 130, 145, 69, 138, 178, 3, 0.449036
234, 6, wb, attraction, a-b-da, 14, 2, 5, 10, 153, 83, 90, 165, 165, 90, 1, 2.58889
234, 6, wb, attraction, a-b-da, 14, 2, 5, 10, 153, 83, 90, 165, 165, 90, 2, 0.435274
234, 6, wb, catch, NA, 999, 999, 5, 11, 156, 99, 151, 164, 69, 126, 3, 1.09582
234, 6, wb, catch, NA, 999, 999, 5, 11, 156, 99, 151, 164, 69, 126, 2, 0.618786
234, 6, wb, filler, NA, 999, 999, 5, 12, 104, 100, 107, 164, 161, 85, 1, 3.3999
234, 6, wb, filler, NA, 999, 999, 5, 12, 104, 100, 107, 164, 161, 85, 2, 0.798085
234, 6, wb, attraction, a-b-da, 2, 2, 5, 13, 163, 89, 165, 90, 90, 165, 2, 3.90784
234, 6, wb, attraction, a-b-da, 2, 2, 5, 13, 163, 89, 165, 90, 90, 165, 3, 0.669148
234, 6, wb, filler, NA, 999, 999, 5, 14, 91, 65, 174, 121, 176, 135, 1, 0.656245
234, 6, wb, filler, NA, 999, 999, 5, 14, 91, 65, 174, 121, 176, 135, 3, 1.06066
234, 6, wb, attraction, a-b-db, 5, 3, 5, 15, 117, 190, 120, 195, 195, 120, 3, 3.66363
234, 6, wb, attraction, a-b-db, 5, 3, 5, 15, 117, 190, 120, 195, 195, 120, 1, 0.531149
234, 6, wb, filler, NA, 999, 999, 5, 16, 94, 116, 63, 92, 167, 106, 2, 0.76353
234, 6, wb, filler, NA, 999, 999, 5, 16, 94, 116, 63, 92, 167, 106, 3, 0.611991
234, 6, wb, attraction, a-b-db, 14, 2, 5, 17, 165, 90, 83, 153, 90, 165, 2, 1.10504
234, 6, wb, attraction, a-b-db, 14, 2, 5, 17, 165, 90, 83, 153, 90, 165, 3, 0.907326
234, 6, wb, catch, NA, 999, 999, 5, 18, 123, 132, 132, 63, 158, 157, 2, 0.87633
234, 6, wb, catch, NA, 999, 999, 5, 18, 123, 132, 132, 63, 158, 157, 3, 0.615994
234, 6, wb, catch, NA, 999, 999, 5, 19, 117, 138, 129, 186, 87, 108, 3, 0.741137
234, 6, wb, catch, NA, 999, 999, 5, 19, 117, 138, 129, 186, 87, 108, 2, 0.494261
234, 6, wb, attraction, a-b-da, 5, 2, 5, 20, 90, 165, 161, 88, 165, 90, 2, 2.47203
234, 6, wb, attraction, a-b-da, 5, 2, 5, 20, 90, 165, 161, 88, 165, 90, 1, 0.9792
234, 6, wb, filler, NA, 999, 999, 5, 21, 116, 189, 172, 130, 152, 92, 3, 1.36161
234, 6, wb, filler, NA, 999, 999, 5, 21, 116, 189, 172, 130, 152, 92, 2, 1.6738
234, 6, wb, attraction, a-b-db, 5, 2, 5, 22, 165, 90, 88, 161, 90, 165, 2, 1.84382
234, 6, wb, attraction, a-b-db, 5, 2, 5, 22, 165, 90, 88, 161, 90, 165, 3, 0.840497
234, 6, wb, filler, NA, 999, 999, 5, 23, 180, 111, 62, 90, 145, 163, 2, 0.676192
234, 6, wb, filler, NA, 999, 999, 5, 23, 180, 111, 62, 90, 145, 163, 3, 0.648007
234, 6, wb, filler, NA, 999, 999, 5, 24, 99, 59, 102, 179, 82, 137, 1, 1.45169
234, 6, wb, filler, NA, 999, 999, 5, 24, 99, 59, 102, 179, 82, 137, 2, 0.640508
234, 6, wb, attraction, a-b-da, 5, 1, 5, 25, 60, 135, 135, 60, 132, 58, 1, 8.46032
234, 6, wb, attraction, a-b-da, 5, 1, 5, 25, 60, 135, 135, 60, 132, 58, 3, 1.17424
234, 6, wb, attraction, a-b-db, 14, 1, 5, 26, 56, 125, 135, 60, 60, 135, 1, 2.22847
234, 6, wb, attraction, a-b-db, 14, 1, 5, 26, 56, 125, 135, 60, 60, 135, 3, 1.28988
234, 6, wb, attraction, a-b-db, 14, 3, 5, 27, 120, 195, 111, 181, 195, 120, 2, 2.97141
234, 6, wb, attraction, a-b-db, 14, 3, 5, 27, 120, 195, 111, 181, 195, 120, 1, 0.86636
234, 6, wb, attraction, a-b-da, 2, 1, 5, 28, 135, 60, 134, 59, 60, 135, 2, 4.65345
234, 6, wb, attraction, a-b-da, 2, 1, 5, 28, 135, 60, 134, 59, 60, 135, 3, 4.16125
234, 6, wb, attraction, a-b-da, 9, 1, 5, 29, 135, 60, 129, 57, 60, 135, 2, 4.49527
234, 6, wb, attraction, a-b-da, 9, 1, 5, 29, 135, 60, 129, 57, 60, 135, 3, 0.737257
234, 6, wb, attraction, a-b-da, 14, 1, 5, 30, 135, 60, 125, 56, 60, 135, 2, 3.28152
234, 6, wb, attraction, a-b-da, 14, 1, 5, 30, 135, 60, 125, 56, 60, 135, 3, 2.22846
234, 6, wb, attraction, a-b-db, 2, 1, 5, 31, 59, 134, 135, 60, 60, 135, 2, 2.47235
234, 6, wb, attraction, a-b-db, 2, 1, 5, 31, 59, 134, 135, 60, 60, 135, 3, 0.467631
234, 6, wb, attraction, a-b-db, 5, 1, 5, 32, 60, 135, 58, 132, 135, 60, 2, 2.66273
234, 6, wb, attraction, a-b-db, 5, 1, 5, 32, 60, 135, 58, 132, 135, 60, 1, 0.578492
234, 6, wb, attraction, a-b-da, 2, 3, 5, 33, 195, 120, 193, 119, 120, 195, 1, 4.18503
234, 6, wb, attraction, a-b-da, 2, 3, 5, 33, 195, 120, 193, 119, 120, 195, 3, 0.719495
234, 6, wb, attraction, a-b-da, 9, 3, 5, 34, 195, 120, 120, 195, 186, 114, 3, 4.0967
234, 6, wb, attraction, a-b-da, 9, 3, 5, 34, 195, 120, 120, 195, 186, 114, 2, 0.714599
234, 6, wb, attraction, a-b-db, 2, 2, 5, 35, 90, 165, 89, 163, 165, 90, 3, 6.7719
234, 6, wb, attraction, a-b-db, 2, 2, 5, 35, 90, 165, 89, 163, 165, 90, 1, 0.87423
234, 6, wb, attraction, a-b-db, 9, 2, 5, 36, 86, 157, 165, 90, 90, 165, 1, 7.70859
234, 6, wb, attraction, a-b-db, 9, 2, 5, 36, 86, 157, 165, 90, 90, 165, 3, 0.524806
234, 6, wb, attraction, a-b-da, 14, 3, 5, 37, 181, 111, 195, 120, 120, 195, 1, 2.0453
234, 6, wb, attraction, a-b-da, 14, 3, 5, 37, 181, 111, 195, 120, 120, 195, 3, 2.7459
234, 6, wb, attraction, a-b-da, 5, 2, 6, 1, 165, 90, 90, 165, 161, 88, 1, 6.72097
234, 6, wb, attraction, a-b-da, 5, 2, 6, 1, 165, 90, 90, 165, 161, 88, 2, 0.489474
234, 6, wb, attraction, a-b-db, 14, 2, 6, 2, 83, 153, 90, 165, 165, 90, 1, 2.87531
234, 6, wb, attraction, a-b-db, 14, 2, 6, 2, 83, 153, 90, 165, 165, 90, 2, 2.09438
234, 6, wb, catch, NA, 999, 999, 6, 3, 78, 117, 117, 138, 152, 163, 1, 1.11172
234, 6, wb, catch, NA, 999, 999, 6, 3, 78, 117, 117, 138, 152, 163, 3, 0.473996
234, 6, wb, catch, NA, 999, 999, 6, 4, 174, 141, 138, 117, 67, 128, 3, 1.04439
234, 6, wb, catch, NA, 999, 999, 6, 4, 174, 141, 138, 117, 67, 128, 1, 0.545445
234, 6, wb, filler, NA, 999, 999, 6, 5, 98, 60, 166, 108, 157, 76, 1, 0.809211
234, 6, wb, filler, NA, 999, 999, 6, 5, 98, 60, 166, 108, 157, 76, 2, 0.615566
234, 6, wb, filler, NA, 999, 999, 6, 6, 108, 165, 83, 88, 172, 113, 2, 1.00461
234, 6, wb, filler, NA, 999, 999, 6, 6, 108, 165, 83, 88, 172, 113, 1, 1.86712
234, 6, wb, attraction, a-b-db, 14, 3, 6, 7, 120, 195, 111, 181, 195, 120, 2, 2.87771
234, 6, wb, attraction, a-b-db, 14, 3, 6, 7, 120, 195, 111, 181, 195, 120, 1, 0.592798
234, 6, wb, attraction, a-b-da, 2, 1, 6, 8, 134, 59, 60, 135, 135, 60, 1, 6.31052
234, 6, wb, attraction, a-b-da, 2, 1, 6, 8, 134, 59, 60, 135, 135, 60, 2, 0.55111
234, 6, wb, attraction, a-b-db, 2, 3, 6, 9, 119, 193, 120, 195, 195, 120, 3, 11.2311
234, 6, wb, attraction, a-b-db, 2, 3, 6, 9, 119, 193, 120, 195, 195, 120, 2, 0.873464
234, 6, wb, catch, NA, 999, 999, 6, 10, 151, 104, 173, 142, 73, 122, 3, 0.643687
234, 6, wb, catch, NA, 999, 999, 6, 10, 151, 104, 173, 142, 73, 122, 2, 0.768795
234, 6, wb, attraction, a-b-db, 9, 1, 6, 11, 60, 135, 57, 129, 135, 60, 2, 5.23191
234, 6, wb, attraction, a-b-db, 9, 1, 6, 11, 60, 135, 57, 129, 135, 60, 1, 0.588223
234, 6, wb, filler, NA, 999, 999, 6, 12, 152, 195, 186, 177, 162, 120, 3, 1.03472
234, 6, wb, filler, NA, 999, 999, 6, 12, 152, 195, 186, 177, 162, 120, 2, 0.592301
234, 6, wb, attraction, a-b-da, 5, 3, 6, 13, 195, 120, 120, 195, 190, 117, 3, 5.39007
234, 6, wb, attraction, a-b-da, 5, 3, 6, 13, 195, 120, 120, 195, 190, 117, 2, 0.435683
234, 6, wb, attraction, a-b-da, 9, 3, 6, 14, 186, 114, 195, 120, 120, 195, 1, 1.89618
234, 6, wb, attraction, a-b-da, 9, 3, 6, 14, 186, 114, 195, 120, 120, 195, 3, 0.634856
234, 6, wb, attraction, a-b-da, 5, 1, 6, 15, 60, 135, 135, 60, 132, 58, 3, 3.5913
234, 6, wb, attraction, a-b-da, 5, 1, 6, 15, 60, 135, 135, 60, 132, 58, 1, 0.669447
234, 6, wb, filler, NA, 999, 999, 6, 16, 159, 144, 124, 195, 114, 145, 3, 2.49656
234, 6, wb, filler, NA, 999, 999, 6, 16, 159, 144, 124, 195, 114, 145, 1, 1.49104
234, 6, wb, attraction, a-b-da, 14, 2, 6, 17, 90, 165, 165, 90, 153, 83, 3, 2.10072
234, 6, wb, attraction, a-b-da, 14, 2, 6, 17, 90, 165, 165, 90, 153, 83, 1, 0.599146
234, 6, wb, filler, NA, 999, 999, 6, 18, 136, 190, 176, 188, 145, 75, 3, 0.820867
234, 6, wb, filler, NA, 999, 999, 6, 18, 136, 190, 176, 188, 145, 75, 2, 0.410605
234, 6, wb, attraction, a-b-da, 9, 1, 6, 19, 135, 60, 60, 135, 129, 57, 3, 2.99981
234, 6, wb, attraction, a-b-da, 9, 1, 6, 19, 135, 60, 60, 135, 129, 57, 2, 0.654058
234, 6, wb, attraction, a-b-db, 5, 3, 6, 20, 120, 195, 117, 190, 195, 120, 2, 2.72195
234, 6, wb, attraction, a-b-db, 5, 3, 6, 20, 120, 195, 117, 190, 195, 120, 1, 0.682979
234, 6, wb, attraction, a-b-db, 9, 3, 6, 21, 114, 186, 120, 195, 195, 120, 1, 4.78942
234, 6, wb, attraction, a-b-db, 9, 3, 6, 21, 114, 186, 120, 195, 195, 120, 2, 0.603175
234, 6, wb, filler, NA, 999, 999, 6, 22, 100, 80, 153, 178, 134, 68, 1, 0.921018
234, 6, wb, filler, NA, 999, 999, 6, 22, 100, 80, 153, 178, 134, 68, 2, 0.570738
234, 6, wb, attraction, a-b-db, 5, 2, 6, 23, 165, 90, 90, 165, 88, 161, 1, 2.6897
234, 6, wb, attraction, a-b-db, 5, 2, 6, 23, 165, 90, 90, 165, 88, 161, 2, 0.428211
234, 6, wb, attraction, a-b-da, 14, 3, 6, 24, 181, 111, 120, 195, 195, 120, 1, 1.46461
234, 6, wb, attraction, a-b-da, 14, 3, 6, 24, 181, 111, 120, 195, 195, 120, 2, 1.25282
234, 6, wb, attraction, a-b-da, 9, 2, 6, 25, 90, 165, 157, 86, 165, 90, 2, 2.40869
234, 6, wb, attraction, a-b-da, 9, 2, 6, 25, 90, 165, 157, 86, 165, 90, 1, 0.582232
234, 6, wb, attraction, a-b-da, 2, 2, 6, 26, 165, 90, 90, 165, 163, 89, 1, 4.3568
234, 6, wb, attraction, a-b-da, 2, 2, 6, 26, 165, 90, 90, 165, 163, 89, 2, 0.995978
234, 6, wb, filler, NA, 999, 999, 6, 27, 104, 124, 120, 120, 104, 84, 3, 1.76183
234, 6, wb, filler, NA, 999, 999, 6, 27, 104, 124, 120, 120, 104, 84, 2, 0.433625
234, 6, wb, filler, NA, 999, 999, 6, 28, 133, 169, 110, 88, 118, 165, 2, 0.83016
234, 6, wb, filler, NA, 999, 999, 6, 28, 133, 169, 110, 88, 118, 165, 1, 0.63588
234, 6, wb, attraction, a-b-db, 5, 1, 6, 29, 135, 60, 60, 135, 58, 132, 2, 7.93635
234, 6, wb, attraction, a-b-db, 5, 1, 6, 29, 135, 60, 60, 135, 58, 132, 3, 0.639771
234, 6, wb, attraction, a-b-da, 14, 1, 6, 30, 60, 135, 125, 56, 135, 60, 2, 1.1396
234, 6, wb, attraction, a-b-da, 14, 1, 6, 30, 60, 135, 125, 56, 135, 60, 1, 0.644583
234, 6, wb, attraction, a-b-da, 2, 3, 6, 31, 120, 195, 195, 120, 193, 119, 2, 5.5603
234, 6, wb, attraction, a-b-da, 2, 3, 6, 31, 120, 195, 195, 120, 193, 119, 1, 0.479084
234, 6, wb, attraction, a-b-db, 2, 2, 6, 32, 165, 90, 89, 163, 90, 165, 1, 3.68159
234, 6, wb, attraction, a-b-db, 2, 2, 6, 32, 165, 90, 89, 163, 90, 165, 2, 0.420369
234, 6, wb, attraction, a-b-db, 14, 1, 6, 33, 135, 60, 56, 125, 60, 135, 2, 1.5536
234, 6, wb, attraction, a-b-db, 14, 1, 6, 33, 135, 60, 56, 125, 60, 135, 1, 0.51436
234, 6, wb, filler, NA, 999, 999, 6, 34, 147, 60, 122, 81, 188, 128, 1, 3.05145
234, 6, wb, filler, NA, 999, 999, 6, 34, 147, 60, 122, 81, 188, 128, 3, 0.62379
234, 6, wb, attraction, a-b-db, 9, 2, 6, 35, 86, 157, 165, 90, 90, 165, 2, 2.06028
234, 6, wb, attraction, a-b-db, 9, 2, 6, 35, 86, 157, 165, 90, 90, 165, 3, 0.552628
234, 6, wb, attraction, a-b-db, 2, 1, 6, 36, 60, 135, 135, 60, 59, 134, 2, 2.39216
234, 6, wb, attraction, a-b-db, 2, 1, 6, 36, 60, 135, 135, 60, 59, 134, 1, 0.646627
234, 6, wb, filler, NA, 999, 999, 6, 37, 114, 101, 74, 57, 72, 175, 2, 0.866427
234, 6, wb, filler, NA, 999, 999, 6, 37, 114, 101, 74, 57, 72, 175, 1, 0.622699
234, 6, wb, attraction, a-b-db, 2, 3, 7, 1, 195, 120, 120, 195, 119, 193, 1, 8.33914
234, 6, wb, attraction, a-b-db, 2, 3, 7, 1, 195, 120, 120, 195, 119, 193, 2, 0.617831
234, 6, wb, attraction, a-b-da, 2, 3, 7, 2, 195, 120, 193, 119, 120, 195, 2, 2.92695
234, 6, wb, attraction, a-b-da, 2, 3, 7, 2, 195, 120, 193, 119, 120, 195, 1, 0.607927
234, 6, wb, attraction, a-b-db, 5, 2, 7, 3, 88, 161, 90, 165, 165, 90, 3, 8.75712
234, 6, wb, attraction, a-b-db, 5, 2, 7, 3, 88, 161, 90, 165, 165, 90, 2, 1.14688
234, 6, wb, catch, NA, 999, 999, 7, 4, 168, 147, 151, 104, 81, 114, 3, 0.714475
234, 6, wb, catch, NA, 999, 999, 7, 4, 168, 147, 151, 104, 81, 114, 1, 0.492922
234, 6, wb, attraction, a-b-da, 9, 2, 7, 5, 165, 90, 157, 86, 90, 165, 2, 3.6388
234, 6, wb, attraction, a-b-da, 9, 2, 7, 5, 165, 90, 157, 86, 90, 165, 3, 0.434927
234, 6, wb, attraction, a-b-da, 9, 3, 7, 6, 195, 120, 186, 114, 120, 195, 2, 2.39145
234, 6, wb, attraction, a-b-da, 9, 3, 7, 6, 195, 120, 186, 114, 120, 195, 3, 0.72591
234, 6, wb, attraction, a-b-da, 5, 3, 7, 7, 120, 195, 195, 120, 190, 117, 3, 1.65437
234, 6, wb, attraction, a-b-da, 5, 3, 7, 7, 120, 195, 195, 120, 190, 117, 1, 0.826548
234, 6, wb, attraction, a-b-da, 14, 2, 7, 8, 90, 165, 165, 90, 153, 83, 3, 1.48683
234, 6, wb, attraction, a-b-da, 14, 2, 7, 8, 90, 165, 165, 90, 153, 83, 1, 0.618439
234, 6, wb, filler, NA, 999, 999, 7, 9, 72, 190, 181, 88, 76, 110, 3, 1.11937
234, 6, wb, filler, NA, 999, 999, 7, 9, 72, 190, 181, 88, 76, 110, 2, 0.63363
234, 6, wb, filler, NA, 999, 999, 7, 10, 170, 148, 173, 156, 103, 70, 3, 0.862162
234, 6, wb, filler, NA, 999, 999, 7, 10, 170, 148, 173, 156, 103, 70, 2, 0.44244
234, 6, wb, filler, NA, 999, 999, 7, 11, 142, 140, 146, 163, 172, 150, 1, 2.6702
234, 6, wb, filler, NA, 999, 999, 7, 11, 142, 140, 146, 163, 172, 150, 3, 0.970077
234, 6, wb, catch, NA, 999, 999, 7, 12, 161, 154, 130, 125, 117, 78, 3, 0.808966
234, 6, wb, catch, NA, 999, 999, 7, 12, 161, 154, 130, 125, 117, 78, 1, 0.575375
234, 6, wb, filler, NA, 999, 999, 7, 13, 180, 118, 70, 155, 58, 77, 3, 0.853799
234, 6, wb, filler, NA, 999, 999, 7, 13, 180, 118, 70, 155, 58, 77, 1, 0.682835
234, 6, wb, attraction, a-b-db, 9, 1, 7, 14, 135, 60, 60, 135, 57, 129, 1, 2.10932
234, 6, wb, attraction, a-b-db, 9, 1, 7, 14, 135, 60, 60, 135, 57, 129, 2, 0.655291
234, 6, wb, filler, NA, 999, 999, 7, 15, 95, 122, 75, 139, 75, 108, 3, 1.70702
234, 6, wb, filler, NA, 999, 999, 7, 15, 95, 122, 75, 139, 75, 108, 1, 0.837059
234, 6, wb, filler, NA, 999, 999, 7, 16, 114, 134, 87, 189, 107, 130, 3, 3.86546
234, 6, wb, filler, NA, 999, 999, 7, 16, 114, 134, 87, 189, 107, 130, 1, 0.916841
234, 6, wb, attraction, a-b-db, 9, 2, 7, 17, 86, 157, 90, 165, 165, 90, 3, 4.90191
234, 6, wb, attraction, a-b-db, 9, 2, 7, 17, 86, 157, 90, 165, 165, 90, 2, 0.615595
234, 6, wb, attraction, a-b-db, 5, 1, 7, 18, 60, 135, 58, 132, 135, 60, 2, 1.90073
234, 6, wb, attraction, a-b-db, 5, 1, 7, 18, 60, 135, 58, 132, 135, 60, 1, 0.687466
234, 6, wb, attraction, a-b-da, 2, 1, 7, 19, 135, 60, 134, 59, 60, 135, 2, 4.30583
234, 6, wb, attraction, a-b-da, 2, 1, 7, 19, 135, 60, 134, 59, 60, 135, 3, 0.6591
234, 6, wb, filler, NA, 999, 999, 7, 20, 173, 146, 62, 192, 116, 87, 3, 1.24624
234, 6, wb, filler, NA, 999, 999, 7, 20, 173, 146, 62, 192, 116, 87, 1, 0.515216
234, 6, wb, attraction, a-b-db, 2, 2, 7, 21, 90, 165, 165, 90, 89, 163, 2, 2.66021
234, 6, wb, attraction, a-b-db, 2, 2, 7, 21, 90, 165, 165, 90, 89, 163, 3, 0.528075
234, 6, wb, attraction, a-b-db, 14, 2, 7, 22, 165, 90, 83, 153, 90, 165, 2, 1.61647
234, 6, wb, attraction, a-b-db, 14, 2, 7, 22, 165, 90, 83, 153, 90, 165, 3, 0.518539
234, 6, wb, attraction, a-b-da, 2, 2, 7, 23, 163, 89, 90, 165, 165, 90, 1, 4.02365
234, 6, wb, attraction, a-b-da, 2, 2, 7, 23, 163, 89, 90, 165, 165, 90, 2, 0.5964
234, 6, wb, attraction, a-b-db, 2, 1, 7, 24, 135, 60, 59, 134, 60, 135, 1, 2.86637
234, 6, wb, attraction, a-b-db, 2, 1, 7, 24, 135, 60, 59, 134, 60, 135, 3, 0.517893
234, 6, wb, attraction, a-b-da, 5, 2, 7, 25, 161, 88, 165, 90, 90, 165, 1, 1.87907
234, 6, wb, attraction, a-b-da, 5, 2, 7, 25, 161, 88, 165, 90, 90, 165, 3, 0.802444
234, 6, wb, filler, NA, 999, 999, 7, 26, 99, 143, 145, 80, 186, 136, 2, 1.43216
234, 6, wb, filler, NA, 999, 999, 7, 26, 99, 143, 145, 80, 186, 136, 3, 0.781765
234, 6, wb, filler, NA, 999, 999, 7, 27, 120, 132, 184, 124, 105, 136, 3, 1.42807
234, 6, wb, filler, NA, 999, 999, 7, 27, 120, 132, 184, 124, 105, 136, 2, 0.529545
234, 6, wb, catch, NA, 999, 999, 7, 28, 159, 96, 133, 182, 88, 107, 3, 0.937949
234, 6, wb, catch, NA, 999, 999, 7, 28, 159, 96, 133, 182, 88, 107, 2, 0.618986
234, 6, wb, filler, NA, 999, 999, 7, 29, 100, 102, 108, 183, 113, 185, 1, 1.26411
234, 6, wb, filler, NA, 999, 999, 7, 29, 100, 102, 108, 183, 113, 185, 3, 0.836364
234, 6, wb, attraction, a-b-da, 9, 1, 7, 30, 60, 135, 135, 60, 129, 57, 3, 3.50473
234, 6, wb, attraction, a-b-da, 9, 1, 7, 30, 60, 135, 135, 60, 129, 57, 1, 0.994192
234, 6, wb, attraction, a-b-db, 14, 1, 7, 31, 56, 125, 60, 135, 135, 60, 1, 1.92784
234, 6, wb, attraction, a-b-db, 14, 1, 7, 31, 56, 125, 60, 135, 135, 60, 2, 0.529139
234, 6, wb, attraction, a-b-db, 9, 3, 7, 32, 114, 186, 120, 195, 195, 120, 3, 6.41768
234, 6, wb, attraction, a-b-db, 9, 3, 7, 32, 114, 186, 120, 195, 195, 120, 2, 0.614332
234, 6, wb, attraction, a-b-da, 14, 1, 7, 33, 135, 60, 125, 56, 60, 135, 2, 2.60338
234, 6, wb, attraction, a-b-da, 14, 1, 7, 33, 135, 60, 125, 56, 60, 135, 3, 1.23381
234, 6, wb, attraction, a-b-db, 5, 3, 7, 34, 120, 195, 117, 190, 195, 120, 3, 3.40624
234, 6, wb, attraction, a-b-db, 5, 3, 7, 34, 120, 195, 117, 190, 195, 120, 1, 1.19574
234, 6, wb, attraction, a-b-db, 14, 3, 7, 35, 195, 120, 111, 181, 120, 195, 2, 6.63318
234, 6, wb, attraction, a-b-db, 14, 3, 7, 35, 195, 120, 111, 181, 120, 195, 3, 0.613227
234, 6, wb, attraction, a-b-da, 5, 1, 7, 36, 60, 135, 135, 60, 132, 58, 3, 3.8582
234, 6, wb, attraction, a-b-da, 5, 1, 7, 36, 60, 135, 135, 60, 132, 58, 1, 0.38958
234, 6, wb, attraction, a-b-da, 14, 3, 7, 37, 195, 120, 120, 195, 181, 111, 3, 2.54746
234, 6, wb, attraction, a-b-da, 14, 3, 7, 37, 195, 120, 120, 195, 181, 111, 2, 0.787979
234, 6, wb, filler, NA, 999, 999, 8, 1, 78, 66, 150, 106, 136, 136, 1, 0.63434
234, 6, wb, filler, NA, 999, 999, 8, 1, 78, 66, 150, 106, 136, 136, 3, 0.78407
234, 6, wb, filler, NA, 999, 999, 8, 2, 98, 135, 151, 115, 144, 116, 1, 1.80652
234, 6, wb, filler, NA, 999, 999, 8, 2, 98, 135, 151, 115, 144, 116, 3, 0.604546
234, 6, wb, attraction, a-b-db, 9, 1, 8, 3, 57, 129, 135, 60, 60, 135, 2, 3.4024
234, 6, wb, attraction, a-b-db, 9, 1, 8, 3, 57, 129, 135, 60, 60, 135, 3, 0.864534
234, 6, wb, catch, NA, 999, 999, 8, 4, 92, 163, 155, 160, 68, 127, 3, 0.939586
234, 6, wb, catch, NA, 999, 999, 8, 4, 92, 163, 155, 160, 68, 127, 2, 0.492525
234, 6, wb, attraction, a-b-db, 14, 3, 8, 5, 120, 195, 111, 181, 195, 120, 2, 1.91834
234, 6, wb, attraction, a-b-db, 14, 3, 8, 5, 120, 195, 111, 181, 195, 120, 1, 0.92838
234, 6, wb, attraction, a-b-da, 5, 2, 8, 6, 165, 90, 161, 88, 90, 165, 2, 1.6568
234, 6, wb, attraction, a-b-da, 5, 2, 8, 6, 165, 90, 161, 88, 90, 165, 3, 0.6529
234, 6, wb, attraction, a-b-da, 5, 1, 8, 7, 135, 60, 132, 58, 60, 135, 2, 2.28062
234, 6, wb, attraction, a-b-da, 5, 1, 8, 7, 135, 60, 132, 58, 60, 135, 3, 0.451869
234, 6, wb, filler, NA, 999, 999, 8, 8, 64, 59, 161, 169, 88, 123, 1, 0.967735
234, 6, wb, filler, NA, 999, 999, 8, 8, 64, 59, 161, 169, 88, 123, 2, 0.375987
234, 6, wb, attraction, a-b-da, 5, 3, 8, 9, 120, 195, 195, 120, 190, 117, 2, 2.87853
234, 6, wb, attraction, a-b-da, 5, 3, 8, 9, 120, 195, 195, 120, 190, 117, 1, 0.977516
234, 6, wb, attraction, a-b-db, 14, 2, 8, 10, 83, 153, 165, 90, 90, 165, 2, 1.328
234, 6, wb, attraction, a-b-db, 14, 2, 8, 10, 83, 153, 165, 90, 90, 165, 3, 1.04145
234, 6, wb, attraction, a-b-db, 2, 2, 8, 11, 165, 90, 89, 163, 90, 165, 2, 3.34106
234, 6, wb, attraction, a-b-db, 2, 2, 8, 11, 165, 90, 89, 163, 90, 165, 3, 0.885303
234, 6, wb, catch, NA, 999, 999, 8, 12, 173, 142, 160, 95, 93, 102, 3, 1.49561
234, 6, wb, catch, NA, 999, 999, 8, 12, 173, 142, 160, 95, 93, 102, 1, 0.762527
234, 6, wb, attraction, a-b-da, 14, 1, 8, 13, 60, 135, 125, 56, 135, 60, 2, 1.43368
234, 6, wb, attraction, a-b-da, 14, 1, 8, 13, 60, 135, 125, 56, 135, 60, 1, 0.983064
234, 6, wb, filler, NA, 999, 999, 8, 14, 125, 135, 162, 110, 84, 124, 3, 1.22134
234, 6, wb, filler, NA, 999, 999, 8, 14, 125, 135, 162, 110, 84, 124, 2, 0.914899
234, 6, wb, catch, NA, 999, 999, 8, 15, 193, 122, 161, 94, 128, 67, 3, 0.97993
234, 6, wb, catch, NA, 999, 999, 8, 15, 193, 122, 161, 94, 128, 67, 1, 0.523541
234, 6, wb, attraction, a-b-db, 14, 1, 8, 16, 60, 135, 56, 125, 135, 60, 2, 1.62008
234, 6, wb, attraction, a-b-db, 14, 1, 8, 16, 60, 135, 56, 125, 135, 60, 1, 0.794188
234, 6, wb, attraction, a-b-db, 9, 2, 8, 17, 165, 90, 90, 165, 86, 157, 1, 2.94388
234, 6, wb, attraction, a-b-db, 9, 2, 8, 17, 165, 90, 90, 165, 86, 157, 3, 0.720197
234, 6, wb, attraction, a-b-da, 14, 3, 8, 18, 195, 120, 181, 111, 120, 195, 2, 1.92928
234, 6, wb, attraction, a-b-da, 14, 3, 8, 18, 195, 120, 181, 111, 120, 195, 3, 0.610635
234, 6, wb, filler, NA, 999, 999, 8, 19, 148, 74, 129, 103, 94, 61, 3, 0.72771
234, 6, wb, filler, NA, 999, 999, 8, 19, 148, 74, 129, 103, 94, 61, 2, 0.513689
234, 6, wb, attraction, a-b-da, 9, 3, 8, 20, 195, 120, 120, 195, 186, 114, 3, 2.83465
234, 6, wb, attraction, a-b-da, 9, 3, 8, 20, 195, 120, 120, 195, 186, 114, 2, 0.711684
234, 6, wb, filler, NA, 999, 999, 8, 21, 126, 181, 131, 103, 84, 111, 3, 1.4567
234, 6, wb, filler, NA, 999, 999, 8, 21, 126, 181, 131, 103, 84, 111, 1, 2.51695
234, 6, wb, attraction, a-b-db, 2, 1, 8, 22, 59, 134, 60, 135, 135, 60, 1, 2.42147
234, 6, wb, attraction, a-b-db, 2, 1, 8, 22, 59, 134, 60, 135, 135, 60, 2, 0.706577
234, 6, wb, attraction, a-b-db, 2, 3, 8, 23, 119, 193, 195, 120, 120, 195, 2, 4.0037
234, 6, wb, attraction, a-b-db, 2, 3, 8, 23, 119, 193, 195, 120, 120, 195, 3, 0.729109
234, 6, wb, attraction, a-b-da, 2, 2, 8, 24, 90, 165, 165, 90, 163, 89, 2, 3.34547
234, 6, wb, attraction, a-b-da, 2, 2, 8, 24, 90, 165, 165, 90, 163, 89, 1, 0.593688
234, 6, wb, filler, NA, 999, 999, 8, 25, 73, 133, 89, 83, 63, 193, 2, 0.903432
234, 6, wb, filler, NA, 999, 999, 8, 25, 73, 133, 89, 83, 63, 193, 3, 1.78642
234, 6, wb, attraction, a-b-da, 9, 1, 8, 26, 135, 60, 60, 135, 129, 57, 3, 2.72051
234, 6, wb, attraction, a-b-da, 9, 1, 8, 26, 135, 60, 60, 135, 129, 57, 2, 0.618281
234, 6, wb, attraction, a-b-da, 2, 1, 8, 27, 135, 60, 134, 59, 60, 135, 2, 1.52738
234, 6, wb, attraction, a-b-da, 2, 1, 8, 27, 135, 60, 134, 59, 60, 135, 3, 0.672927
234, 6, wb, filler, NA, 999, 999, 8, 28, 169, 60, 92, 138, 77, 185, 1, 1.58724
234, 6, wb, filler, NA, 999, 999, 8, 28, 169, 60, 92, 138, 77, 185, 2, 0.674762
234, 6, wb, attraction, a-b-da, 2, 3, 8, 29, 195, 120, 120, 195, 193, 119, 1, 3.5412
234, 6, wb, attraction, a-b-da, 2, 3, 8, 29, 195, 120, 120, 195, 193, 119, 2, 0.437308
234, 6, wb, filler, NA, 999, 999, 8, 30, 121, 62, 124, 90, 142, 67, 1, 1.52982
234, 6, wb, filler, NA, 999, 999, 8, 30, 121, 62, 124, 90, 142, 67, 2, 0.587323
234, 6, wb, attraction, a-b-da, 9, 2, 8, 31, 90, 165, 157, 86, 165, 90, 2, 2.72192
234, 6, wb, attraction, a-b-da, 9, 2, 8, 31, 90, 165, 157, 86, 165, 90, 1, 0.722958
234, 6, wb, attraction, a-b-db, 5, 3, 8, 32, 117, 190, 195, 120, 120, 195, 1, 1.96325
234, 6, wb, attraction, a-b-db, 5, 3, 8, 32, 117, 190, 195, 120, 120, 195, 3, 0.739335
234, 6, wb, attraction, a-b-da, 14, 2, 8, 33, 165, 90, 90, 165, 153, 83, 3, 2.60369
234, 6, wb, attraction, a-b-da, 14, 2, 8, 33, 165, 90, 90, 165, 153, 83, 2, 0.434258
234, 6, wb, filler, NA, 999, 999, 8, 34, 156, 144, 93, 157, 173, 143, 2, 1.58268
234, 6, wb, filler, NA, 999, 999, 8, 34, 156, 144, 93, 157, 173, 143, 3, 0.750104
234, 6, wb, attraction, a-b-db, 5, 2, 8, 35, 165, 90, 90, 165, 88, 161, 1, 3.03779
234, 6, wb, attraction, a-b-db, 5, 2, 8, 35, 165, 90, 90, 165, 88, 161, 2, 0.650126
234, 6, wb, attraction, a-b-db, 9, 3, 8, 36, 195, 120, 114, 186, 120, 195, 1, 6.00594
234, 6, wb, attraction, a-b-db, 9, 3, 8, 36, 195, 120, 114, 186, 120, 195, 3, 0.818623
234, 6, wb, attraction, a-b-db, 5, 1, 8, 37, 58, 132, 135, 60, 60, 135, 2, 1.43975
234, 6, wb, attraction, a-b-db, 5, 1, 8, 37, 58, 132, 135, 60, 60, 135, 3, 0.876609
