sub_n, computer_n, bw_cond, effect, set, distance, diag, block_n, trial_n, h1, w1, h2, w2, h3, w3, choice, rt 
288, 6, wb, practice, NA, 999, 999, 0, 1, 78, 162, 151, 139, 144, 56, 3, 31.1472
288, 6, wb, practice, NA, 999, 999, 0, 1, 78, 162, 151, 139, 144, 56, 1, 6.10831
288, 6, wb, practice, NA, 999, 999, 0, 2, 129, 72, 91, 75, 171, 98, 2, 8.56979
288, 6, wb, practice, NA, 999, 999, 0, 2, 129, 72, 91, 75, 171, 98, 3, 3.48657
288, 6, wb, practice, NA, 999, 999, 0, 3, 128, 192, 129, 77, 183, 181, 2, 5.33966
288, 6, wb, practice, NA, 999, 999, 0, 3, 128, 192, 129, 77, 183, 181, 3, 2.24607
288, 6, wb, attraction, a-b-da, 9, 1, 1, 1, 129, 57, 135, 60, 60, 135, 1, 16.2276
288, 6, wb, attraction, a-b-da, 9, 1, 1, 1, 129, 57, 135, 60, 60, 135, 3, 3.96466
288, 6, wb, catch, NA, 999, 999, 1, 2, 141, 174, 60, 135, 148, 107, 2, 2.69858
288, 6, wb, catch, NA, 999, 999, 1, 2, 141, 174, 60, 135, 148, 107, 1, 1.11699
288, 6, wb, filler, NA, 999, 999, 1, 3, 186, 99, 110, 56, 129, 66, 2, 2.07004
288, 6, wb, filler, NA, 999, 999, 1, 3, 186, 99, 110, 56, 129, 66, 1, 0.857857
288, 6, wb, attraction, a-b-db, 5, 1, 1, 4, 60, 135, 135, 60, 58, 132, 2, 18.477
288, 6, wb, attraction, a-b-db, 5, 1, 1, 4, 60, 135, 135, 60, 58, 132, 3, 1.18717
288, 6, wb, catch, NA, 999, 999, 1, 5, 188, 127, 127, 68, 142, 113, 2, 1.3613
288, 6, wb, catch, NA, 999, 999, 1, 5, 188, 127, 127, 68, 142, 113, 1, 0.649505
288, 6, wb, filler, NA, 999, 999, 1, 6, 81, 119, 134, 191, 180, 72, 1, 4.98129
288, 6, wb, filler, NA, 999, 999, 1, 6, 81, 119, 134, 191, 180, 72, 2, 0.707872
288, 6, wb, attraction, a-b-db, 14, 3, 1, 7, 111, 181, 195, 120, 120, 195, 1, 13.5488
288, 6, wb, attraction, a-b-db, 14, 3, 1, 7, 111, 181, 195, 120, 120, 195, 3, 1.20184
288, 6, wb, filler, NA, 999, 999, 1, 8, 59, 176, 87, 171, 88, 95, 3, 24.8235
288, 6, wb, filler, NA, 999, 999, 1, 8, 59, 176, 87, 171, 88, 95, 2, 1.19023
288, 6, wb, attraction, a-b-db, 5, 2, 1, 9, 88, 161, 165, 90, 90, 165, 2, 9.41181
288, 6, wb, attraction, a-b-db, 5, 2, 1, 9, 88, 161, 165, 90, 90, 165, 3, 1.66371
288, 6, wb, attraction, a-b-da, 2, 2, 1, 10, 90, 165, 165, 90, 163, 89, 2, 11.0903
288, 6, wb, attraction, a-b-da, 2, 2, 1, 10, 90, 165, 165, 90, 163, 89, 1, 0.586808
288, 6, wb, filler, NA, 999, 999, 1, 11, 86, 141, 166, 71, 191, 129, 2, 25.2732
288, 6, wb, filler, NA, 999, 999, 1, 11, 86, 141, 166, 71, 191, 129, 3, 0.501942
288, 6, wb, filler, NA, 999, 999, 1, 12, 78, 151, 152, 159, 165, 63, 3, 1.9197
288, 6, wb, filler, NA, 999, 999, 1, 12, 78, 151, 152, 159, 165, 63, 2, 0.713834
288, 6, wb, filler, NA, 999, 999, 1, 13, 120, 91, 130, 192, 85, 121, 3, 10.7709
288, 6, wb, filler, NA, 999, 999, 1, 13, 120, 91, 130, 192, 85, 121, 2, 3.13613
288, 6, wb, attraction, a-b-db, 9, 3, 1, 14, 120, 195, 114, 186, 195, 120, 1, 11.704
288, 6, wb, attraction, a-b-db, 9, 3, 1, 14, 120, 195, 114, 186, 195, 120, 3, 4.43944
288, 6, wb, attraction, a-b-db, 14, 1, 1, 15, 56, 125, 60, 135, 135, 60, 3, 8.25066
288, 6, wb, attraction, a-b-db, 14, 1, 1, 15, 56, 125, 60, 135, 135, 60, 2, 0.669389
288, 6, wb, attraction, a-b-da, 5, 1, 1, 16, 135, 60, 132, 58, 60, 135, 3, 22.4484
288, 6, wb, attraction, a-b-da, 5, 1, 1, 16, 135, 60, 132, 58, 60, 135, 1, 4.10275
288, 6, wb, attraction, a-b-db, 14, 2, 1, 17, 83, 153, 90, 165, 165, 90, 1, 2.36738
288, 6, wb, attraction, a-b-db, 14, 2, 1, 17, 83, 153, 90, 165, 165, 90, 2, 0.767238
288, 6, wb, attraction, a-b-db, 5, 3, 1, 18, 117, 190, 120, 195, 195, 120, 3, 8.94248
288, 6, wb, attraction, a-b-db, 5, 3, 1, 18, 117, 190, 120, 195, 195, 120, 2, 1.06887
288, 6, wb, filler, NA, 999, 999, 1, 19, 100, 82, 94, 192, 128, 99, 1, 2.80775
288, 6, wb, filler, NA, 999, 999, 1, 19, 100, 82, 94, 192, 128, 99, 2, 0.541551
288, 6, wb, attraction, a-b-db, 2, 1, 1, 20, 60, 135, 59, 134, 135, 60, 3, 3.28529
288, 6, wb, attraction, a-b-db, 2, 1, 1, 20, 60, 135, 59, 134, 135, 60, 2, 6.84034
288, 6, wb, attraction, a-b-db, 9, 1, 1, 21, 60, 135, 57, 129, 135, 60, 3, 58.2267
288, 6, wb, attraction, a-b-db, 9, 1, 1, 21, 60, 135, 57, 129, 135, 60, 1, 1.68718
288, 6, wb, attraction, a-b-da, 5, 3, 1, 22, 190, 117, 195, 120, 120, 195, 1, 48.2494
288, 6, wb, attraction, a-b-da, 5, 3, 1, 22, 190, 117, 195, 120, 120, 195, 3, 1.08012
288, 6, wb, attraction, a-b-da, 5, 2, 1, 23, 161, 88, 165, 90, 90, 165, 1, 6.0424
288, 6, wb, attraction, a-b-da, 5, 2, 1, 23, 161, 88, 165, 90, 90, 165, 3, 0.941941
288, 6, wb, attraction, a-b-db, 9, 2, 1, 24, 165, 90, 86, 157, 90, 165, 1, 1.94147
288, 6, wb, attraction, a-b-db, 9, 2, 1, 24, 165, 90, 86, 157, 90, 165, 3, 3.48623
288, 6, wb, filler, NA, 999, 999, 1, 25, 76, 179, 90, 129, 109, 79, 3, 7.27172
288, 6, wb, filler, NA, 999, 999, 1, 25, 76, 179, 90, 129, 109, 79, 2, 10.282
288, 6, wb, catch, NA, 999, 999, 1, 26, 177, 138, 129, 66, 162, 93, 2, 2.20955
288, 6, wb, catch, NA, 999, 999, 1, 26, 177, 138, 129, 66, 162, 93, 1, 0.599535
288, 6, wb, attraction, a-b-da, 9, 2, 1, 27, 157, 86, 165, 90, 90, 165, 1, 3.66923
288, 6, wb, attraction, a-b-da, 9, 2, 1, 27, 157, 86, 165, 90, 90, 165, 3, 1.97673
288, 6, wb, attraction, a-b-db, 2, 2, 1, 28, 89, 163, 165, 90, 90, 165, 2, 8.01464
288, 6, wb, attraction, a-b-db, 2, 2, 1, 28, 89, 163, 165, 90, 90, 165, 3, 0.570773
288, 6, wb, attraction, a-b-da, 2, 1, 1, 29, 60, 135, 134, 59, 135, 60, 1, 12.4981
288, 6, wb, attraction, a-b-da, 2, 1, 1, 29, 60, 135, 134, 59, 135, 60, 3, 1.36143
288, 6, wb, filler, NA, 999, 999, 1, 30, 122, 56, 169, 139, 171, 128, 1, 1.6162
288, 6, wb, filler, NA, 999, 999, 1, 30, 122, 56, 169, 139, 171, 128, 2, 0.718338
288, 6, wb, attraction, a-b-da, 14, 2, 1, 31, 165, 90, 90, 165, 153, 83, 3, 25.2474
288, 6, wb, attraction, a-b-da, 14, 2, 1, 31, 165, 90, 90, 165, 153, 83, 2, 0.828882
288, 6, wb, attraction, a-b-da, 14, 1, 1, 32, 60, 135, 125, 56, 135, 60, 2, 1.95303
288, 6, wb, attraction, a-b-da, 14, 1, 1, 32, 60, 135, 125, 56, 135, 60, 1, 0.729843
288, 6, wb, filler, NA, 999, 999, 1, 33, 166, 168, 111, 73, 56, 97, 3, 1.1383
288, 6, wb, filler, NA, 999, 999, 1, 33, 166, 168, 111, 73, 56, 97, 1, 0.955214
288, 6, wb, attraction, a-b-da, 9, 3, 1, 34, 186, 114, 195, 120, 120, 195, 1, 8.75482
288, 6, wb, attraction, a-b-da, 9, 3, 1, 34, 186, 114, 195, 120, 120, 195, 3, 2.24139
288, 6, wb, attraction, a-b-da, 14, 3, 1, 35, 195, 120, 181, 111, 120, 195, 1, 12.2048
288, 6, wb, attraction, a-b-da, 14, 3, 1, 35, 195, 120, 181, 111, 120, 195, 2, 1.23206
288, 6, wb, attraction, a-b-db, 2, 3, 1, 36, 119, 193, 195, 120, 120, 195, 1, 14.9323
288, 6, wb, attraction, a-b-db, 2, 3, 1, 36, 119, 193, 195, 120, 120, 195, 3, 2.66567
288, 6, wb, attraction, a-b-da, 2, 3, 1, 37, 193, 119, 195, 120, 120, 195, 1, 18.9641
288, 6, wb, attraction, a-b-da, 2, 3, 1, 37, 193, 119, 195, 120, 120, 195, 3, 0.718768
288, 6, wb, filler, NA, 999, 999, 2, 1, 179, 128, 166, 121, 110, 176, 3, 1.83184
288, 6, wb, filler, NA, 999, 999, 2, 1, 179, 128, 166, 121, 110, 176, 1, 0.853198
288, 6, wb, catch, NA, 999, 999, 2, 2, 133, 122, 171, 144, 74, 121, 3, 1.18492
288, 6, wb, catch, NA, 999, 999, 2, 2, 133, 122, 171, 144, 74, 121, 2, 0.552519
288, 6, wb, filler, NA, 999, 999, 2, 3, 138, 97, 104, 154, 162, 105, 1, 3.53634
288, 6, wb, filler, NA, 999, 999, 2, 3, 138, 97, 104, 154, 162, 105, 3, 10.5211
288, 6, wb, attraction, a-b-da, 14, 2, 2, 4, 153, 83, 90, 165, 165, 90, 1, 5.75917
288, 6, wb, attraction, a-b-da, 14, 2, 2, 4, 153, 83, 90, 165, 165, 90, 2, 15.7181
288, 6, wb, attraction, a-b-da, 5, 2, 2, 5, 90, 165, 161, 88, 165, 90, 2, 19.3143
288, 6, wb, attraction, a-b-da, 5, 2, 2, 5, 90, 165, 161, 88, 165, 90, 1, 1.87106
288, 6, wb, catch, NA, 999, 999, 2, 6, 169, 146, 107, 148, 102, 93, 3, 1.52161
288, 6, wb, catch, NA, 999, 999, 2, 6, 169, 146, 107, 148, 102, 93, 1, 0.587101
288, 6, wb, attraction, a-b-da, 2, 3, 2, 7, 195, 120, 120, 195, 193, 119, 1, 22.5137
288, 6, wb, attraction, a-b-da, 2, 3, 2, 7, 195, 120, 120, 195, 193, 119, 2, 0.717192
288, 6, wb, filler, NA, 999, 999, 2, 8, 161, 152, 137, 191, 68, 160, 3, 1.15023
288, 6, wb, filler, NA, 999, 999, 2, 8, 161, 152, 137, 191, 68, 160, 2, 11.2312
288, 6, wb, attraction, a-b-da, 14, 1, 2, 9, 60, 135, 135, 60, 125, 56, 3, 7.16828
288, 6, wb, attraction, a-b-da, 14, 1, 2, 9, 60, 135, 135, 60, 125, 56, 2, 12.2547
288, 6, wb, filler, NA, 999, 999, 2, 10, 170, 124, 94, 160, 99, 181, 3, 1.69473
288, 6, wb, filler, NA, 999, 999, 2, 10, 170, 124, 94, 160, 99, 181, 1, 1.29755
288, 6, wb, attraction, a-b-db, 5, 1, 2, 11, 58, 132, 135, 60, 60, 135, 1, 21.0432
288, 6, wb, attraction, a-b-db, 5, 1, 2, 11, 58, 132, 135, 60, 60, 135, 3, 5.32187
288, 6, wb, filler, NA, 999, 999, 2, 12, 70, 189, 171, 154, 145, 76, 3, 14.5935
288, 6, wb, filler, NA, 999, 999, 2, 12, 70, 189, 171, 154, 145, 76, 2, 0.436269
288, 6, wb, filler, NA, 999, 999, 2, 13, 141, 120, 93, 191, 193, 115, 1, 6.28061
288, 6, wb, filler, NA, 999, 999, 2, 13, 141, 120, 93, 191, 193, 115, 3, 2.05071
288, 6, wb, attraction, a-b-da, 14, 3, 2, 14, 120, 195, 181, 111, 195, 120, 2, 32.47
288, 6, wb, attraction, a-b-da, 14, 3, 2, 14, 120, 195, 181, 111, 195, 120, 3, 4.46443
288, 6, wb, filler, NA, 999, 999, 2, 15, 71, 142, 182, 134, 154, 100, 1, 1.62641
288, 6, wb, filler, NA, 999, 999, 2, 15, 71, 142, 182, 134, 154, 100, 2, 0.919864
288, 6, wb, attraction, a-b-da, 9, 1, 2, 16, 60, 135, 135, 60, 129, 57, 2, 19.8888
288, 6, wb, attraction, a-b-da, 9, 1, 2, 16, 60, 135, 135, 60, 129, 57, 3, 0.678526
288, 6, wb, attraction, a-b-db, 2, 1, 2, 17, 135, 60, 59, 134, 60, 135, 1, 21.785
288, 6, wb, attraction, a-b-db, 2, 1, 2, 17, 135, 60, 59, 134, 60, 135, 2, 1.34613
288, 6, wb, attraction, a-b-db, 5, 2, 2, 18, 90, 165, 165, 90, 88, 161, 1, 35.8497
288, 6, wb, attraction, a-b-db, 5, 2, 2, 18, 90, 165, 165, 90, 88, 161, 2, 0.435853
288, 6, wb, attraction, a-b-db, 14, 2, 2, 19, 90, 165, 165, 90, 83, 153, 3, 6.12018
288, 6, wb, attraction, a-b-db, 14, 2, 2, 19, 90, 165, 165, 90, 83, 153, 2, 7.06496
288, 6, wb, attraction, a-b-da, 2, 2, 2, 20, 90, 165, 165, 90, 163, 89, 3, 4.03407
288, 6, wb, attraction, a-b-da, 2, 2, 2, 20, 90, 165, 165, 90, 163, 89, 2, 1.4229
288, 6, wb, attraction, a-b-db, 2, 2, 2, 21, 165, 90, 90, 165, 89, 163, 1, 2.91489
288, 6, wb, attraction, a-b-db, 2, 2, 2, 21, 165, 90, 90, 165, 89, 163, 2, 2.45262
288, 6, wb, attraction, a-b-da, 5, 3, 2, 22, 120, 195, 190, 117, 195, 120, 1, 34.8639
288, 6, wb, attraction, a-b-da, 5, 3, 2, 22, 120, 195, 190, 117, 195, 120, 3, 0.922264
288, 6, wb, catch, NA, 999, 999, 2, 23, 79, 116, 180, 135, 97, 158, 1, 2.05125
288, 6, wb, catch, NA, 999, 999, 2, 23, 79, 116, 180, 135, 97, 158, 2, 0.751906
288, 6, wb, attraction, a-b-da, 9, 3, 2, 24, 120, 195, 186, 114, 195, 120, 2, 16.7676
288, 6, wb, attraction, a-b-da, 9, 3, 2, 24, 120, 195, 186, 114, 195, 120, 3, 22.811
288, 6, wb, attraction, a-b-db, 5, 3, 2, 25, 117, 190, 195, 120, 120, 195, 1, 29.5458
288, 6, wb, attraction, a-b-db, 5, 3, 2, 25, 117, 190, 195, 120, 120, 195, 2, 0.602549
288, 6, wb, attraction, a-b-db, 9, 3, 2, 26, 195, 120, 114, 186, 120, 195, 1, 1.79228
288, 6, wb, attraction, a-b-db, 9, 3, 2, 26, 195, 120, 114, 186, 120, 195, 3, 1.40708
288, 6, wb, attraction, a-b-da, 2, 1, 2, 27, 134, 59, 60, 135, 135, 60, 1, 2.57992
288, 6, wb, attraction, a-b-da, 2, 1, 2, 27, 134, 59, 60, 135, 135, 60, 3, 4.48313
288, 6, wb, attraction, a-b-db, 14, 1, 2, 28, 56, 125, 60, 135, 135, 60, 1, 14.6203
288, 6, wb, attraction, a-b-db, 14, 1, 2, 28, 56, 125, 60, 135, 135, 60, 2, 10.1023
288, 6, wb, attraction, a-b-da, 9, 2, 2, 29, 90, 165, 165, 90, 157, 86, 3, 3.14914
288, 6, wb, attraction, a-b-da, 9, 2, 2, 29, 90, 165, 165, 90, 157, 86, 1, 0.70941
288, 6, wb, attraction, a-b-db, 14, 3, 2, 30, 120, 195, 111, 181, 195, 120, 2, 60.4305
288, 6, wb, attraction, a-b-db, 14, 3, 2, 30, 120, 195, 111, 181, 195, 120, 3, 0.706236
288, 6, wb, filler, NA, 999, 999, 2, 31, 175, 92, 96, 80, 69, 188, 2, 1.59527
288, 6, wb, filler, NA, 999, 999, 2, 31, 175, 92, 96, 80, 69, 188, 1, 1.43415
288, 6, wb, attraction, a-b-db, 2, 3, 2, 32, 120, 195, 195, 120, 119, 193, 3, 19.4303
288, 6, wb, attraction, a-b-db, 2, 3, 2, 32, 120, 195, 195, 120, 119, 193, 1, 2.93414
288, 6, wb, filler, NA, 999, 999, 2, 33, 142, 167, 100, 77, 191, 135, 2, 0.789953
288, 6, wb, filler, NA, 999, 999, 2, 33, 142, 167, 100, 77, 191, 135, 3, 0.444946
288, 6, wb, attraction, a-b-db, 9, 1, 2, 34, 135, 60, 57, 129, 60, 135, 1, 2.85675
288, 6, wb, attraction, a-b-db, 9, 1, 2, 34, 135, 60, 57, 129, 60, 135, 3, 1.46861
288, 6, wb, attraction, a-b-da, 5, 1, 2, 35, 135, 60, 60, 135, 132, 58, 3, 3.23123
288, 6, wb, attraction, a-b-da, 5, 1, 2, 35, 135, 60, 60, 135, 132, 58, 2, 0.84428
288, 6, wb, attraction, a-b-db, 9, 2, 2, 36, 90, 165, 165, 90, 86, 157, 2, 17.1759
288, 6, wb, attraction, a-b-db, 9, 2, 2, 36, 90, 165, 165, 90, 86, 157, 1, 1.52254
288, 6, wb, filler, NA, 999, 999, 2, 37, 79, 56, 60, 195, 83, 63, 1, 1.74731
288, 6, wb, filler, NA, 999, 999, 2, 37, 79, 56, 60, 195, 83, 63, 2, 0.988118
288, 6, wb, attraction, a-b-da, 5, 1, 3, 1, 132, 58, 135, 60, 60, 135, 3, 13.9224
288, 6, wb, attraction, a-b-da, 5, 1, 3, 1, 132, 58, 135, 60, 60, 135, 1, 0.872692
288, 6, wb, filler, NA, 999, 999, 3, 2, 76, 160, 118, 95, 164, 76, 1, 59.2998
288, 6, wb, filler, NA, 999, 999, 3, 2, 76, 160, 118, 95, 164, 76, 2, 0.909231
288, 6, wb, attraction, a-b-da, 14, 2, 3, 3, 153, 83, 165, 90, 90, 165, 1, 2.30208
288, 6, wb, attraction, a-b-da, 14, 2, 3, 3, 153, 83, 165, 90, 90, 165, 3, 0.960901
288, 6, wb, catch, NA, 999, 999, 3, 4, 124, 131, 111, 84, 138, 177, 2, 1.57575
288, 6, wb, catch, NA, 999, 999, 3, 4, 124, 131, 111, 84, 138, 177, 3, 0.375288
288, 6, wb, filler, NA, 999, 999, 3, 5, 182, 121, 103, 156, 88, 188, 3, 2.74959
288, 6, wb, filler, NA, 999, 999, 3, 5, 182, 121, 103, 156, 88, 188, 1, 0.686132
288, 6, wb, filler, NA, 999, 999, 3, 6, 182, 130, 57, 109, 72, 97, 3, 0.912465
288, 6, wb, filler, NA, 999, 999, 3, 6, 182, 130, 57, 109, 72, 97, 1, 0.538797
288, 6, wb, filler, NA, 999, 999, 3, 7, 76, 77, 164, 70, 167, 145, 1, 0.835403
288, 6, wb, filler, NA, 999, 999, 3, 7, 76, 77, 164, 70, 167, 145, 3, 0.489099
288, 6, wb, attraction, a-b-db, 9, 1, 3, 8, 60, 135, 57, 129, 135, 60, 3, 12.7235
288, 6, wb, attraction, a-b-db, 9, 1, 3, 8, 60, 135, 57, 129, 135, 60, 1, 1.5223
288, 6, wb, attraction, a-b-da, 2, 3, 3, 9, 195, 120, 120, 195, 193, 119, 1, 2.81096
288, 6, wb, attraction, a-b-da, 2, 3, 3, 9, 195, 120, 120, 195, 193, 119, 2, 0.448704
288, 6, wb, filler, NA, 999, 999, 3, 10, 103, 86, 73, 169, 168, 118, 1, 1.3165
288, 6, wb, filler, NA, 999, 999, 3, 10, 103, 86, 73, 169, 168, 118, 3, 1.47882
288, 6, wb, filler, NA, 999, 999, 3, 11, 160, 162, 83, 193, 134, 82, 3, 2.01692
288, 6, wb, filler, NA, 999, 999, 3, 11, 160, 162, 83, 193, 134, 82, 1, 0.798873
288, 6, wb, attraction, a-b-db, 2, 2, 3, 12, 89, 163, 165, 90, 90, 165, 1, 52.2287
288, 6, wb, attraction, a-b-db, 2, 2, 3, 12, 89, 163, 165, 90, 90, 165, 3, 1.90692
288, 6, wb, attraction, a-b-db, 9, 2, 3, 13, 165, 90, 86, 157, 90, 165, 2, 3.57971
288, 6, wb, attraction, a-b-db, 9, 2, 3, 13, 165, 90, 86, 157, 90, 165, 1, 2.08251
288, 6, wb, attraction, a-b-db, 9, 3, 3, 14, 195, 120, 114, 186, 120, 195, 3, 3.62842
288, 6, wb, attraction, a-b-db, 9, 3, 3, 14, 195, 120, 114, 186, 120, 195, 1, 1.0332
288, 6, wb, attraction, a-b-da, 2, 1, 3, 15, 60, 135, 135, 60, 134, 59, 2, 6.75748
288, 6, wb, attraction, a-b-da, 2, 1, 3, 15, 60, 135, 135, 60, 134, 59, 1, 0.684265
288, 6, wb, filler, NA, 999, 999, 3, 16, 137, 97, 115, 58, 76, 148, 2, 6.8866
288, 6, wb, filler, NA, 999, 999, 3, 16, 137, 97, 115, 58, 76, 148, 1, 0.82453
288, 6, wb, attraction, a-b-da, 2, 2, 3, 17, 165, 90, 90, 165, 163, 89, 1, 27.6048
288, 6, wb, attraction, a-b-da, 2, 2, 3, 17, 165, 90, 90, 165, 163, 89, 2, 0.579298
288, 6, wb, attraction, a-b-db, 14, 1, 3, 18, 135, 60, 60, 135, 56, 125, 3, 9.9057
288, 6, wb, attraction, a-b-db, 14, 1, 3, 18, 135, 60, 60, 135, 56, 125, 1, 1.29803
288, 6, wb, attraction, a-b-da, 9, 2, 3, 19, 90, 165, 157, 86, 165, 90, 2, 3.71549
288, 6, wb, attraction, a-b-da, 9, 2, 3, 19, 90, 165, 157, 86, 165, 90, 1, 0.548951
288, 6, wb, attraction, a-b-da, 14, 3, 3, 20, 195, 120, 181, 111, 120, 195, 2, 17.8127
288, 6, wb, attraction, a-b-da, 14, 3, 3, 20, 195, 120, 181, 111, 120, 195, 1, 0.605763
288, 6, wb, attraction, a-b-da, 9, 3, 3, 21, 186, 114, 195, 120, 120, 195, 1, 2.23562
288, 6, wb, attraction, a-b-da, 9, 3, 3, 21, 186, 114, 195, 120, 120, 195, 2, 1.52883
288, 6, wb, filler, NA, 999, 999, 3, 22, 184, 67, 139, 193, 152, 182, 1, 2.07303
288, 6, wb, filler, NA, 999, 999, 3, 22, 184, 67, 139, 193, 152, 182, 2, 0.860302
288, 6, wb, attraction, a-b-db, 2, 1, 3, 23, 59, 134, 60, 135, 135, 60, 3, 3.09534
288, 6, wb, attraction, a-b-db, 2, 1, 3, 23, 59, 134, 60, 135, 135, 60, 2, 0.697577
288, 6, wb, attraction, a-b-da, 5, 3, 3, 24, 190, 117, 195, 120, 120, 195, 1, 8.2754
288, 6, wb, attraction, a-b-da, 5, 3, 3, 24, 190, 117, 195, 120, 120, 195, 3, 0.620748
288, 6, wb, attraction, a-b-da, 9, 1, 3, 25, 129, 57, 60, 135, 135, 60, 1, 5.13779
288, 6, wb, attraction, a-b-da, 9, 1, 3, 25, 129, 57, 60, 135, 135, 60, 2, 2.12214
288, 6, wb, attraction, a-b-db, 2, 3, 3, 26, 119, 193, 120, 195, 195, 120, 1, 2.49078
288, 6, wb, attraction, a-b-db, 2, 3, 3, 26, 119, 193, 120, 195, 195, 120, 2, 0.397311
288, 6, wb, filler, NA, 999, 999, 3, 27, 152, 104, 67, 61, 183, 144, 2, 43.0112
288, 6, wb, filler, NA, 999, 999, 3, 27, 152, 104, 67, 61, 183, 144, 3, 0.885139
288, 6, wb, attraction, a-b-db, 5, 3, 3, 28, 117, 190, 195, 120, 120, 195, 2, 5.27143
288, 6, wb, attraction, a-b-db, 5, 3, 3, 28, 117, 190, 195, 120, 120, 195, 3, 1.01036
288, 6, wb, attraction, a-b-db, 5, 1, 3, 29, 58, 132, 60, 135, 135, 60, 3, 2.04728
288, 6, wb, attraction, a-b-db, 5, 1, 3, 29, 58, 132, 60, 135, 135, 60, 2, 1.13197
288, 6, wb, filler, NA, 999, 999, 3, 30, 134, 191, 169, 189, 123, 186, 3, 1.83618
288, 6, wb, filler, NA, 999, 999, 3, 30, 134, 191, 169, 189, 123, 186, 2, 0.769742
288, 6, wb, attraction, a-b-da, 5, 2, 3, 31, 90, 165, 165, 90, 161, 88, 2, 34.2887
288, 6, wb, attraction, a-b-da, 5, 2, 3, 31, 90, 165, 165, 90, 161, 88, 1, 0.457907
288, 6, wb, attraction, a-b-db, 14, 3, 3, 32, 111, 181, 195, 120, 120, 195, 1, 1.80514
288, 6, wb, attraction, a-b-db, 14, 3, 3, 32, 111, 181, 195, 120, 120, 195, 2, 0.371141
288, 6, wb, catch, NA, 999, 999, 3, 33, 73, 122, 128, 127, 178, 137, 1, 1.21022
288, 6, wb, catch, NA, 999, 999, 3, 33, 73, 122, 128, 127, 178, 137, 3, 1.5766
288, 6, wb, attraction, a-b-db, 14, 2, 3, 34, 90, 165, 83, 153, 165, 90, 3, 13.5027
288, 6, wb, attraction, a-b-db, 14, 2, 3, 34, 90, 165, 83, 153, 165, 90, 1, 1.65372
288, 6, wb, attraction, a-b-db, 5, 2, 3, 35, 165, 90, 88, 161, 90, 165, 1, 8.02523
288, 6, wb, attraction, a-b-db, 5, 2, 3, 35, 165, 90, 88, 161, 90, 165, 2, 0.484642
288, 6, wb, attraction, a-b-da, 14, 1, 3, 36, 60, 135, 135, 60, 125, 56, 1, 10.8631
288, 6, wb, attraction, a-b-da, 14, 1, 3, 36, 60, 135, 135, 60, 125, 56, 3, 0.840378
288, 6, wb, catch, NA, 999, 999, 3, 37, 122, 133, 180, 135, 124, 71, 3, 1.29997
288, 6, wb, catch, NA, 999, 999, 3, 37, 122, 133, 180, 135, 124, 71, 2, 0.502934
288, 6, wb, attraction, a-b-da, 5, 3, 4, 1, 195, 120, 190, 117, 120, 195, 3, 11.0808
288, 6, wb, attraction, a-b-da, 5, 3, 4, 1, 195, 120, 190, 117, 120, 195, 1, 0.705252
288, 6, wb, attraction, a-b-db, 9, 2, 4, 2, 86, 157, 165, 90, 90, 165, 1, 3.91499
288, 6, wb, attraction, a-b-db, 9, 2, 4, 2, 86, 157, 165, 90, 90, 165, 2, 1.22836
288, 6, wb, attraction, a-b-db, 14, 2, 4, 3, 90, 165, 165, 90, 83, 153, 3, 4.20859
288, 6, wb, attraction, a-b-db, 14, 2, 4, 3, 90, 165, 165, 90, 83, 153, 2, 3.52597
288, 6, wb, attraction, a-b-db, 5, 3, 4, 4, 195, 120, 117, 190, 120, 195, 1, 5.61343
288, 6, wb, attraction, a-b-db, 5, 3, 4, 4, 195, 120, 117, 190, 120, 195, 3, 1.49036
288, 6, wb, attraction, a-b-db, 2, 3, 4, 5, 120, 195, 195, 120, 119, 193, 3, 3.17975
288, 6, wb, attraction, a-b-db, 2, 3, 4, 5, 120, 195, 195, 120, 119, 193, 1, 0.962695
288, 6, wb, filler, NA, 999, 999, 4, 6, 89, 138, 125, 188, 103, 89, 3, 3.56976
288, 6, wb, filler, NA, 999, 999, 4, 6, 89, 138, 125, 188, 103, 89, 2, 2.24127
288, 6, wb, attraction, a-b-da, 14, 1, 4, 7, 125, 56, 60, 135, 135, 60, 1, 3.76447
288, 6, wb, attraction, a-b-da, 14, 1, 4, 7, 125, 56, 60, 135, 135, 60, 2, 0.883955
288, 6, wb, attraction, a-b-db, 2, 2, 4, 8, 89, 163, 90, 165, 165, 90, 1, 19.1823
288, 6, wb, attraction, a-b-db, 2, 2, 4, 8, 89, 163, 90, 165, 165, 90, 2, 1.32838
288, 6, wb, attraction, a-b-da, 5, 2, 4, 9, 165, 90, 161, 88, 90, 165, 3, 6.79249
288, 6, wb, attraction, a-b-da, 5, 2, 4, 9, 165, 90, 161, 88, 90, 165, 1, 3.10168
288, 6, wb, filler, NA, 999, 999, 4, 10, 103, 120, 194, 113, 72, 100, 3, 3.11068
288, 6, wb, filler, NA, 999, 999, 4, 10, 103, 120, 194, 113, 72, 100, 2, 1.51242
288, 6, wb, filler, NA, 999, 999, 4, 11, 74, 82, 128, 83, 105, 123, 1, 1.4891
288, 6, wb, filler, NA, 999, 999, 4, 11, 74, 82, 128, 83, 105, 123, 3, 2.96392
288, 6, wb, attraction, a-b-da, 14, 2, 4, 12, 90, 165, 165, 90, 153, 83, 3, 2.61839
288, 6, wb, attraction, a-b-da, 14, 2, 4, 12, 90, 165, 165, 90, 153, 83, 1, 1.06405
288, 6, wb, attraction, a-b-db, 9, 3, 4, 13, 195, 120, 114, 186, 120, 195, 3, 7.89109
288, 6, wb, attraction, a-b-db, 9, 3, 4, 13, 195, 120, 114, 186, 120, 195, 1, 0.739924
288, 6, wb, attraction, a-b-da, 5, 1, 4, 14, 60, 135, 135, 60, 132, 58, 1, 5.77969
288, 6, wb, attraction, a-b-da, 5, 1, 4, 14, 60, 135, 135, 60, 132, 58, 2, 3.88173
288, 6, wb, attraction, a-b-da, 2, 1, 4, 15, 134, 59, 60, 135, 135, 60, 3, 12.8191
288, 6, wb, attraction, a-b-da, 2, 1, 4, 15, 134, 59, 60, 135, 135, 60, 2, 1.08586
288, 6, wb, attraction, a-b-db, 14, 1, 4, 16, 56, 125, 135, 60, 60, 135, 1, 1.54411
288, 6, wb, attraction, a-b-db, 14, 1, 4, 16, 56, 125, 135, 60, 60, 135, 3, 0.696944
288, 6, wb, filler, NA, 999, 999, 4, 17, 105, 161, 153, 57, 157, 86, 2, 2.17864
288, 6, wb, filler, NA, 999, 999, 4, 17, 105, 161, 153, 57, 157, 86, 1, 0.505896
288, 6, wb, filler, NA, 999, 999, 4, 18, 139, 130, 66, 176, 91, 144, 2, 2.57162
288, 6, wb, filler, NA, 999, 999, 4, 18, 139, 130, 66, 176, 91, 144, 1, 0.506955
288, 6, wb, attraction, a-b-db, 5, 1, 4, 19, 58, 132, 60, 135, 135, 60, 2, 2.19592
288, 6, wb, attraction, a-b-db, 5, 1, 4, 19, 58, 132, 60, 135, 135, 60, 3, 0.930614
288, 6, wb, catch, NA, 999, 999, 4, 20, 174, 141, 125, 130, 69, 126, 3, 0.754997
288, 6, wb, catch, NA, 999, 999, 4, 20, 174, 141, 125, 130, 69, 126, 1, 1.58728
288, 6, wb, filler, NA, 999, 999, 4, 21, 195, 85, 67, 140, 162, 64, 2, 2.38541
288, 6, wb, filler, NA, 999, 999, 4, 21, 195, 85, 67, 140, 162, 64, 1, 1.31276
288, 6, wb, filler, NA, 999, 999, 4, 22, 119, 100, 129, 76, 132, 63, 3, 5.12147
288, 6, wb, filler, NA, 999, 999, 4, 22, 119, 100, 129, 76, 132, 63, 1, 1.26656
288, 6, wb, filler, NA, 999, 999, 4, 23, 72, 109, 112, 117, 69, 194, 1, 1.56535
288, 6, wb, filler, NA, 999, 999, 4, 23, 72, 109, 112, 117, 69, 194, 2, 4.82959
288, 6, wb, filler, NA, 999, 999, 4, 24, 106, 143, 175, 177, 97, 193, 1, 1.79279
288, 6, wb, filler, NA, 999, 999, 4, 24, 106, 143, 175, 177, 97, 193, 2, 1.13541
288, 6, wb, filler, NA, 999, 999, 4, 25, 101, 64, 87, 166, 129, 99, 1, 6.35977
288, 6, wb, filler, NA, 999, 999, 4, 25, 101, 64, 87, 166, 129, 99, 2, 1.00634
288, 6, wb, attraction, a-b-db, 2, 1, 4, 26, 60, 135, 59, 134, 135, 60, 2, 3.73125
288, 6, wb, attraction, a-b-db, 2, 1, 4, 26, 60, 135, 59, 134, 135, 60, 3, 2.61219
288, 6, wb, attraction, a-b-db, 14, 3, 4, 27, 111, 181, 195, 120, 120, 195, 3, 2.7287
288, 6, wb, attraction, a-b-db, 14, 3, 4, 27, 111, 181, 195, 120, 120, 195, 2, 1.86565
288, 6, wb, attraction, a-b-da, 9, 2, 4, 28, 90, 165, 157, 86, 165, 90, 2, 5.23632
288, 6, wb, attraction, a-b-da, 9, 2, 4, 28, 90, 165, 157, 86, 165, 90, 1, 0.696828
288, 6, wb, attraction, a-b-db, 5, 2, 4, 29, 88, 161, 90, 165, 165, 90, 1, 2.23434
288, 6, wb, attraction, a-b-db, 5, 2, 4, 29, 88, 161, 90, 165, 165, 90, 2, 1.0639
288, 6, wb, attraction, a-b-da, 9, 1, 4, 30, 129, 57, 60, 135, 135, 60, 1, 2.36258
288, 6, wb, attraction, a-b-da, 9, 1, 4, 30, 129, 57, 60, 135, 135, 60, 2, 1.03452
288, 6, wb, catch, NA, 999, 999, 4, 31, 87, 108, 132, 123, 188, 127, 1, 1.52678
288, 6, wb, catch, NA, 999, 999, 4, 31, 87, 108, 132, 123, 188, 127, 3, 1.4083
288, 6, wb, attraction, a-b-da, 2, 2, 4, 32, 165, 90, 163, 89, 90, 165, 2, 8.01311
288, 6, wb, attraction, a-b-da, 2, 2, 4, 32, 165, 90, 163, 89, 90, 165, 3, 0.801323
288, 6, wb, attraction, a-b-db, 9, 1, 4, 33, 135, 60, 60, 135, 57, 129, 1, 2.27099
288, 6, wb, attraction, a-b-db, 9, 1, 4, 33, 135, 60, 60, 135, 57, 129, 2, 1.34692
288, 6, wb, catch, NA, 999, 999, 4, 34, 160, 155, 145, 110, 121, 74, 3, 1.13055
288, 6, wb, catch, NA, 999, 999, 4, 34, 160, 155, 145, 110, 121, 74, 1, 0.91609
288, 6, wb, attraction, a-b-da, 9, 3, 4, 35, 186, 114, 195, 120, 120, 195, 3, 2.61312
288, 6, wb, attraction, a-b-da, 9, 3, 4, 35, 186, 114, 195, 120, 120, 195, 1, 1.075
288, 6, wb, attraction, a-b-da, 14, 3, 4, 36, 195, 120, 181, 111, 120, 195, 1, 1.61315
288, 6, wb, attraction, a-b-da, 14, 3, 4, 36, 195, 120, 181, 111, 120, 195, 3, 0.49933
288, 6, wb, attraction, a-b-da, 2, 3, 4, 37, 120, 195, 193, 119, 195, 120, 2, 2.25305
288, 6, wb, attraction, a-b-da, 2, 3, 4, 37, 120, 195, 193, 119, 195, 120, 3, 0.897675
288, 6, wb, attraction, a-b-da, 14, 1, 5, 1, 60, 135, 135, 60, 125, 56, 1, 4.99392
288, 6, wb, attraction, a-b-da, 14, 1, 5, 1, 60, 135, 135, 60, 125, 56, 2, 2.22367
288, 6, wb, attraction, a-b-da, 14, 3, 5, 2, 181, 111, 120, 195, 195, 120, 1, 1.6676
288, 6, wb, attraction, a-b-da, 14, 3, 5, 2, 181, 111, 120, 195, 195, 120, 2, 1.59172
288, 6, wb, attraction, a-b-da, 5, 3, 5, 3, 120, 195, 195, 120, 190, 117, 3, 2.41326
288, 6, wb, attraction, a-b-da, 5, 3, 5, 3, 120, 195, 195, 120, 190, 117, 1, 0.883061
288, 6, wb, attraction, a-b-db, 2, 3, 5, 4, 195, 120, 120, 195, 119, 193, 1, 3.35738
288, 6, wb, attraction, a-b-db, 2, 3, 5, 4, 195, 120, 120, 195, 119, 193, 2, 0.852989
288, 6, wb, attraction, a-b-da, 2, 2, 5, 5, 165, 90, 163, 89, 90, 165, 2, 1.71259
288, 6, wb, attraction, a-b-da, 2, 2, 5, 5, 165, 90, 163, 89, 90, 165, 3, 0.402738
288, 6, wb, filler, NA, 999, 999, 5, 6, 107, 175, 179, 132, 169, 72, 3, 2.49664
288, 6, wb, filler, NA, 999, 999, 5, 6, 107, 175, 179, 132, 169, 72, 2, 1.77112
288, 6, wb, filler, NA, 999, 999, 5, 7, 78, 81, 80, 169, 149, 60, 1, 2.00191
288, 6, wb, filler, NA, 999, 999, 5, 7, 78, 81, 80, 169, 149, 60, 2, 0.704631
288, 6, wb, attraction, a-b-da, 5, 2, 5, 8, 165, 90, 90, 165, 161, 88, 1, 4.52225
288, 6, wb, attraction, a-b-da, 5, 2, 5, 8, 165, 90, 90, 165, 161, 88, 2, 1.06677
288, 6, wb, filler, NA, 999, 999, 5, 9, 181, 96, 81, 166, 192, 136, 2, 3.10166
288, 6, wb, filler, NA, 999, 999, 5, 9, 181, 96, 81, 166, 192, 136, 3, 0.54405
288, 6, wb, attraction, a-b-db, 5, 1, 5, 10, 58, 132, 135, 60, 60, 135, 2, 4.44779
288, 6, wb, attraction, a-b-db, 5, 1, 5, 10, 58, 132, 135, 60, 60, 135, 1, 2.11576
288, 6, wb, filler, NA, 999, 999, 5, 11, 164, 117, 80, 180, 108, 128, 3, 1.66837
288, 6, wb, filler, NA, 999, 999, 5, 11, 164, 117, 80, 180, 108, 128, 1, 1.36044
288, 6, wb, filler, NA, 999, 999, 5, 12, 142, 165, 122, 161, 133, 102, 3, 1.92734
288, 6, wb, filler, NA, 999, 999, 5, 12, 142, 165, 122, 161, 133, 102, 1, 0.768678
288, 6, wb, attraction, a-b-da, 9, 3, 5, 13, 186, 114, 120, 195, 195, 120, 1, 1.75177
288, 6, wb, attraction, a-b-da, 9, 3, 5, 13, 186, 114, 120, 195, 195, 120, 2, 0.632475
288, 6, wb, attraction, a-b-db, 5, 2, 5, 14, 90, 165, 165, 90, 88, 161, 1, 2.34103
288, 6, wb, attraction, a-b-db, 5, 2, 5, 14, 90, 165, 165, 90, 88, 161, 2, 0.637563
288, 6, wb, attraction, a-b-db, 9, 2, 5, 15, 165, 90, 86, 157, 90, 165, 2, 2.154
288, 6, wb, attraction, a-b-db, 9, 2, 5, 15, 165, 90, 86, 157, 90, 165, 1, 1.44254
288, 6, wb, attraction, a-b-da, 2, 3, 5, 16, 195, 120, 120, 195, 193, 119, 1, 2.95812
288, 6, wb, attraction, a-b-da, 2, 3, 5, 16, 195, 120, 120, 195, 193, 119, 2, 0.477812
288, 6, wb, catch, NA, 999, 999, 5, 17, 93, 162, 137, 178, 70, 125, 3, 1.92837
288, 6, wb, catch, NA, 999, 999, 5, 17, 93, 162, 137, 178, 70, 125, 2, 0.913681
288, 6, wb, attraction, a-b-db, 14, 1, 5, 18, 135, 60, 56, 125, 60, 135, 2, 4.19479
288, 6, wb, attraction, a-b-db, 14, 1, 5, 18, 135, 60, 56, 125, 60, 135, 1, 2.43261
288, 6, wb, attraction, a-b-da, 2, 1, 5, 19, 60, 135, 135, 60, 134, 59, 2, 1.83638
288, 6, wb, attraction, a-b-da, 2, 1, 5, 19, 60, 135, 135, 60, 134, 59, 1, 1.15381
288, 6, wb, attraction, a-b-db, 5, 3, 5, 20, 117, 190, 195, 120, 120, 195, 3, 5.26546
288, 6, wb, attraction, a-b-db, 5, 3, 5, 20, 117, 190, 195, 120, 120, 195, 2, 0.516392
288, 6, wb, attraction, a-b-db, 2, 2, 5, 21, 90, 165, 165, 90, 89, 163, 3, 1.1895
288, 6, wb, attraction, a-b-db, 2, 2, 5, 21, 90, 165, 165, 90, 89, 163, 1, 1.25238
288, 6, wb, filler, NA, 999, 999, 5, 22, 121, 161, 149, 190, 127, 68, 3, 1.88003
288, 6, wb, filler, NA, 999, 999, 5, 22, 121, 161, 149, 190, 127, 68, 2, 1.29139
288, 6, wb, filler, NA, 999, 999, 5, 23, 86, 135, 144, 128, 65, 115, 3, 2.63707
288, 6, wb, filler, NA, 999, 999, 5, 23, 86, 135, 144, 128, 65, 115, 2, 0.69807
288, 6, wb, filler, NA, 999, 999, 5, 24, 136, 78, 92, 109, 161, 62, 1, 1.81987
288, 6, wb, filler, NA, 999, 999, 5, 24, 136, 78, 92, 109, 161, 62, 2, 0.513935
288, 6, wb, attraction, a-b-db, 14, 2, 5, 25, 90, 165, 83, 153, 165, 90, 2, 3.75493
288, 6, wb, attraction, a-b-db, 14, 2, 5, 25, 90, 165, 83, 153, 165, 90, 3, 0.706406
288, 6, wb, attraction, a-b-da, 9, 1, 5, 26, 129, 57, 135, 60, 60, 135, 3, 4.67556
288, 6, wb, attraction, a-b-da, 9, 1, 5, 26, 129, 57, 135, 60, 60, 135, 2, 1.48605
288, 6, wb, catch, NA, 999, 999, 5, 27, 120, 135, 108, 87, 126, 189, 2, 1.17613
288, 6, wb, catch, NA, 999, 999, 5, 27, 120, 135, 108, 87, 126, 189, 3, 0.847751
288, 6, wb, attraction, a-b-da, 5, 1, 5, 28, 132, 58, 135, 60, 60, 135, 2, 4.00355
288, 6, wb, attraction, a-b-da, 5, 1, 5, 28, 132, 58, 135, 60, 60, 135, 3, 0.729513
288, 6, wb, attraction, a-b-db, 14, 3, 5, 29, 111, 181, 195, 120, 120, 195, 2, 3.95383
288, 6, wb, attraction, a-b-db, 14, 3, 5, 29, 111, 181, 195, 120, 120, 195, 3, 0.626229
288, 6, wb, catch, NA, 999, 999, 5, 30, 147, 168, 104, 91, 106, 149, 2, 0.934413
288, 6, wb, catch, NA, 999, 999, 5, 30, 147, 168, 104, 91, 106, 149, 1, 1.17606
288, 6, wb, attraction, a-b-da, 14, 2, 5, 31, 153, 83, 165, 90, 90, 165, 1, 2.07836
288, 6, wb, attraction, a-b-da, 14, 2, 5, 31, 153, 83, 165, 90, 90, 165, 3, 0.657712
288, 6, wb, attraction, a-b-db, 2, 1, 5, 32, 60, 135, 135, 60, 59, 134, 1, 1.94064
288, 6, wb, attraction, a-b-db, 2, 1, 5, 32, 60, 135, 135, 60, 59, 134, 2, 3.05339
288, 6, wb, filler, NA, 999, 999, 5, 33, 107, 81, 89, 192, 117, 60, 3, 1.54443
288, 6, wb, filler, NA, 999, 999, 5, 33, 107, 81, 89, 192, 117, 60, 2, 0.881284
288, 6, wb, filler, NA, 999, 999, 5, 34, 109, 167, 80, 144, 191, 88, 1, 19.3314
288, 6, wb, filler, NA, 999, 999, 5, 34, 109, 167, 80, 144, 191, 88, 2, 3.17543
288, 6, wb, attraction, a-b-db, 9, 3, 5, 35, 120, 195, 195, 120, 114, 186, 3, 3.76509
288, 6, wb, attraction, a-b-db, 9, 3, 5, 35, 120, 195, 195, 120, 114, 186, 2, 0.564519
288, 6, wb, attraction, a-b-da, 9, 2, 5, 36, 157, 86, 90, 165, 165, 90, 1, 5.46763
288, 6, wb, attraction, a-b-da, 9, 2, 5, 36, 157, 86, 90, 165, 165, 90, 2, 0.43857
288, 6, wb, attraction, a-b-db, 9, 1, 5, 37, 57, 129, 60, 135, 135, 60, 1, 2.37903
288, 6, wb, attraction, a-b-db, 9, 1, 5, 37, 57, 129, 60, 135, 135, 60, 2, 4.77025
288, 6, wb, attraction, a-b-db, 5, 3, 6, 1, 117, 190, 195, 120, 120, 195, 3, 3.07199
288, 6, wb, attraction, a-b-db, 5, 3, 6, 1, 117, 190, 195, 120, 120, 195, 1, 0.827015
288, 6, wb, attraction, a-b-da, 2, 3, 6, 2, 120, 195, 195, 120, 193, 119, 1, 2.63944
288, 6, wb, attraction, a-b-da, 2, 3, 6, 2, 120, 195, 195, 120, 193, 119, 2, 0.923869
288, 6, wb, filler, NA, 999, 999, 6, 3, 77, 146, 174, 192, 98, 61, 3, 1.54025
288, 6, wb, filler, NA, 999, 999, 6, 3, 77, 146, 174, 192, 98, 61, 2, 0.580978
288, 6, wb, attraction, a-b-da, 9, 1, 6, 4, 129, 57, 135, 60, 60, 135, 2, 2.21154
288, 6, wb, attraction, a-b-da, 9, 1, 6, 4, 129, 57, 135, 60, 60, 135, 1, 0.601344
288, 6, wb, catch, NA, 999, 999, 6, 5, 164, 91, 115, 80, 131, 184, 2, 1.49527
288, 6, wb, catch, NA, 999, 999, 6, 5, 164, 91, 115, 80, 131, 184, 3, 0.345975
288, 6, wb, catch, NA, 999, 999, 6, 6, 136, 119, 128, 67, 139, 176, 2, 1.64984
288, 6, wb, catch, NA, 999, 999, 6, 6, 136, 119, 128, 67, 139, 176, 3, 0.678669
288, 6, wb, attraction, a-b-db, 14, 3, 6, 7, 111, 181, 195, 120, 120, 195, 1, 6.19317
288, 6, wb, attraction, a-b-db, 14, 3, 6, 7, 111, 181, 195, 120, 120, 195, 2, 0.85435
288, 6, wb, attraction, a-b-db, 9, 2, 6, 8, 90, 165, 86, 157, 165, 90, 2, 5.01799
288, 6, wb, attraction, a-b-db, 9, 2, 6, 8, 90, 165, 86, 157, 165, 90, 3, 1.15111
288, 6, wb, filler, NA, 999, 999, 6, 9, 159, 132, 105, 99, 111, 59, 3, 1.80665
288, 6, wb, filler, NA, 999, 999, 6, 9, 159, 132, 105, 99, 111, 59, 1, 0.548792
288, 6, wb, attraction, a-b-da, 5, 3, 6, 10, 190, 117, 195, 120, 120, 195, 1, 9.68454
288, 6, wb, attraction, a-b-da, 5, 3, 6, 10, 190, 117, 195, 120, 120, 195, 2, 0.75763
288, 6, wb, filler, NA, 999, 999, 6, 11, 171, 141, 98, 78, 76, 181, 2, 0.652548
288, 6, wb, filler, NA, 999, 999, 6, 11, 171, 141, 98, 78, 76, 181, 1, 0.409622
288, 6, wb, filler, NA, 999, 999, 6, 12, 121, 174, 161, 125, 141, 103, 3, 2.90283
288, 6, wb, filler, NA, 999, 999, 6, 12, 121, 174, 161, 125, 141, 103, 1, 1.32923
288, 6, wb, attraction, a-b-db, 9, 1, 6, 13, 135, 60, 60, 135, 57, 129, 1, 4.01751
288, 6, wb, attraction, a-b-db, 9, 1, 6, 13, 135, 60, 60, 135, 57, 129, 2, 1.10274
288, 6, wb, filler, NA, 999, 999, 6, 14, 128, 121, 174, 66, 164, 177, 1, 5.87232
288, 6, wb, filler, NA, 999, 999, 6, 14, 128, 121, 174, 66, 164, 177, 3, 1.88245
288, 6, wb, attraction, a-b-db, 5, 2, 6, 15, 88, 161, 165, 90, 90, 165, 1, 14.4846
288, 6, wb, attraction, a-b-db, 5, 2, 6, 15, 88, 161, 165, 90, 90, 165, 3, 1.34798
288, 6, wb, filler, NA, 999, 999, 6, 16, 68, 160, 66, 145, 133, 184, 1, 2.25945
288, 6, wb, filler, NA, 999, 999, 6, 16, 68, 160, 66, 145, 133, 184, 3, 0.703423
288, 6, wb, attraction, a-b-db, 14, 1, 6, 17, 135, 60, 60, 135, 56, 125, 3, 2.16122
288, 6, wb, attraction, a-b-db, 14, 1, 6, 17, 135, 60, 60, 135, 56, 125, 1, 1.16116
288, 6, wb, attraction, a-b-da, 5, 2, 6, 18, 90, 165, 165, 90, 161, 88, 1, 3.11193
288, 6, wb, attraction, a-b-da, 5, 2, 6, 18, 90, 165, 165, 90, 161, 88, 3, 2.21762
288, 6, wb, attraction, a-b-da, 14, 2, 6, 19, 153, 83, 90, 165, 165, 90, 1, 2.00638
288, 6, wb, attraction, a-b-da, 14, 2, 6, 19, 153, 83, 90, 165, 165, 90, 2, 0.412376
288, 6, wb, attraction, a-b-da, 2, 1, 6, 20, 135, 60, 60, 135, 134, 59, 1, 1.12933
288, 6, wb, attraction, a-b-da, 2, 1, 6, 20, 135, 60, 60, 135, 134, 59, 3, 3.67524
288, 6, wb, catch, NA, 999, 999, 6, 21, 127, 128, 116, 79, 144, 171, 2, 1.10043
288, 6, wb, catch, NA, 999, 999, 6, 21, 127, 128, 116, 79, 144, 171, 3, 0.431465
288, 6, wb, filler, NA, 999, 999, 6, 22, 126, 103, 188, 150, 153, 124, 1, 1.25195
288, 6, wb, filler, NA, 999, 999, 6, 22, 126, 103, 188, 150, 153, 124, 2, 0.704905
288, 6, wb, attraction, a-b-da, 9, 3, 6, 23, 195, 120, 186, 114, 120, 195, 2, 9.2666
288, 6, wb, attraction, a-b-da, 9, 3, 6, 23, 195, 120, 186, 114, 120, 195, 3, 0.388366
288, 6, wb, filler, NA, 999, 999, 6, 24, 61, 139, 186, 86, 159, 186, 1, 0.898864
288, 6, wb, filler, NA, 999, 999, 6, 24, 61, 139, 186, 86, 159, 186, 3, 1.13382
288, 6, wb, attraction, a-b-da, 5, 1, 6, 25, 60, 135, 135, 60, 132, 58, 2, 1.39013
288, 6, wb, attraction, a-b-da, 5, 1, 6, 25, 60, 135, 135, 60, 132, 58, 1, 1.21297
288, 6, wb, attraction, a-b-da, 14, 3, 6, 26, 195, 120, 181, 111, 120, 195, 2, 1.02587
288, 6, wb, attraction, a-b-da, 14, 3, 6, 26, 195, 120, 181, 111, 120, 195, 1, 0.623516
288, 6, wb, attraction, a-b-db, 14, 2, 6, 27, 165, 90, 90, 165, 83, 153, 1, 3.5721
288, 6, wb, attraction, a-b-db, 14, 2, 6, 27, 165, 90, 90, 165, 83, 153, 2, 0.386685
288, 6, wb, attraction, a-b-da, 9, 2, 6, 28, 165, 90, 90, 165, 157, 86, 1, 1.84936
288, 6, wb, attraction, a-b-da, 9, 2, 6, 28, 165, 90, 90, 165, 157, 86, 2, 0.910029
288, 6, wb, attraction, a-b-db, 2, 3, 6, 29, 195, 120, 119, 193, 120, 195, 2, 1.07906
288, 6, wb, attraction, a-b-db, 2, 3, 6, 29, 195, 120, 119, 193, 120, 195, 1, 0.730709
288, 6, wb, attraction, a-b-db, 9, 3, 6, 30, 120, 195, 195, 120, 114, 186, 2, 2.81912
288, 6, wb, attraction, a-b-db, 9, 3, 6, 30, 120, 195, 195, 120, 114, 186, 1, 0.68076
288, 6, wb, attraction, a-b-da, 2, 2, 6, 31, 165, 90, 163, 89, 90, 165, 2, 1.73122
288, 6, wb, attraction, a-b-da, 2, 2, 6, 31, 165, 90, 163, 89, 90, 165, 3, 2.58066
288, 6, wb, attraction, a-b-db, 2, 2, 6, 32, 165, 90, 89, 163, 90, 165, 1, 2.89849
288, 6, wb, attraction, a-b-db, 2, 2, 6, 32, 165, 90, 89, 163, 90, 165, 2, 0.804875
288, 6, wb, attraction, a-b-da, 14, 1, 6, 33, 135, 60, 125, 56, 60, 135, 2, 1.05852
288, 6, wb, attraction, a-b-da, 14, 1, 6, 33, 135, 60, 125, 56, 60, 135, 1, 0.494831
288, 6, wb, attraction, a-b-db, 5, 1, 6, 34, 135, 60, 58, 132, 60, 135, 3, 2.89661
288, 6, wb, attraction, a-b-db, 5, 1, 6, 34, 135, 60, 58, 132, 60, 135, 1, 1.29109
288, 6, wb, attraction, a-b-db, 2, 1, 6, 35, 60, 135, 59, 134, 135, 60, 2, 3.58054
288, 6, wb, attraction, a-b-db, 2, 1, 6, 35, 60, 135, 59, 134, 135, 60, 3, 5.34735
288, 6, wb, filler, NA, 999, 999, 6, 36, 153, 120, 175, 176, 113, 103, 3, 0.961683
288, 6, wb, filler, NA, 999, 999, 6, 36, 153, 120, 175, 176, 113, 103, 2, 0.370096
288, 6, wb, filler, NA, 999, 999, 6, 37, 184, 189, 119, 139, 156, 149, 2, 1.61721
288, 6, wb, filler, NA, 999, 999, 6, 37, 184, 189, 119, 139, 156, 149, 1, 1.32731
288, 6, wb, attraction, a-b-da, 5, 2, 7, 1, 161, 88, 90, 165, 165, 90, 2, 1.2555
288, 6, wb, attraction, a-b-da, 5, 2, 7, 1, 161, 88, 90, 165, 165, 90, 1, 0.507738
288, 6, wb, attraction, a-b-da, 5, 3, 7, 2, 120, 195, 190, 117, 195, 120, 2, 3.46883
288, 6, wb, attraction, a-b-da, 5, 3, 7, 2, 120, 195, 190, 117, 195, 120, 3, 0.656421
288, 6, wb, filler, NA, 999, 999, 7, 3, 174, 119, 79, 156, 184, 83, 2, 0.787518
288, 6, wb, filler, NA, 999, 999, 7, 3, 174, 119, 79, 156, 184, 83, 1, 0.410548
288, 6, wb, filler, NA, 999, 999, 7, 4, 181, 69, 114, 123, 159, 81, 1, 3.09566
288, 6, wb, filler, NA, 999, 999, 7, 4, 181, 69, 114, 123, 159, 81, 2, 0.593964
288, 6, wb, attraction, a-b-db, 9, 2, 7, 5, 90, 165, 86, 157, 165, 90, 3, 8.15179
288, 6, wb, attraction, a-b-db, 9, 2, 7, 5, 90, 165, 86, 157, 165, 90, 2, 0.654652
288, 6, wb, attraction, a-b-da, 9, 2, 7, 6, 165, 90, 157, 86, 90, 165, 2, 1.13819
288, 6, wb, attraction, a-b-da, 9, 2, 7, 6, 165, 90, 157, 86, 90, 165, 1, 0.395135
288, 6, wb, attraction, a-b-da, 14, 3, 7, 7, 181, 111, 195, 120, 120, 195, 1, 1.25695
288, 6, wb, attraction, a-b-da, 14, 3, 7, 7, 181, 111, 195, 120, 120, 195, 3, 1.70934
288, 6, wb, attraction, a-b-db, 9, 3, 7, 8, 120, 195, 114, 186, 195, 120, 2, 2.49414
288, 6, wb, attraction, a-b-db, 9, 3, 7, 8, 120, 195, 114, 186, 195, 120, 1, 2.49659
288, 6, wb, attraction, a-b-da, 14, 2, 7, 9, 90, 165, 165, 90, 153, 83, 1, 3.25768
288, 6, wb, attraction, a-b-da, 14, 2, 7, 9, 90, 165, 165, 90, 153, 83, 2, 1.54134
288, 6, wb, attraction, a-b-db, 14, 2, 7, 10, 83, 153, 165, 90, 90, 165, 1, 2.82077
288, 6, wb, attraction, a-b-db, 14, 2, 7, 10, 83, 153, 165, 90, 90, 165, 3, 1.4505
288, 6, wb, attraction, a-b-db, 5, 2, 7, 11, 88, 161, 165, 90, 90, 165, 2, 7.70213
288, 6, wb, attraction, a-b-db, 5, 2, 7, 11, 88, 161, 165, 90, 90, 165, 3, 3.10287
288, 6, wb, attraction, a-b-da, 5, 1, 7, 12, 60, 135, 132, 58, 135, 60, 2, 10.5279
288, 6, wb, attraction, a-b-da, 5, 1, 7, 12, 60, 135, 132, 58, 135, 60, 1, 0.8145
288, 6, wb, filler, NA, 999, 999, 7, 13, 180, 194, 139, 64, 147, 112, 2, 1.4676
288, 6, wb, filler, NA, 999, 999, 7, 13, 180, 194, 139, 64, 147, 112, 1, 0.375738
288, 6, wb, filler, NA, 999, 999, 7, 14, 169, 178, 162, 133, 154, 143, 3, 2.04627
288, 6, wb, filler, NA, 999, 999, 7, 14, 169, 178, 162, 133, 154, 143, 1, 0.610951
288, 6, wb, attraction, a-b-db, 2, 1, 7, 15, 135, 60, 59, 134, 60, 135, 1, 3.97605
288, 6, wb, attraction, a-b-db, 2, 1, 7, 15, 135, 60, 59, 134, 60, 135, 2, 1.0388
288, 6, wb, filler, NA, 999, 999, 7, 16, 126, 89, 165, 56, 184, 120, 2, 3.1231
288, 6, wb, filler, NA, 999, 999, 7, 16, 126, 89, 165, 56, 184, 120, 3, 1.06799
288, 6, wb, filler, NA, 999, 999, 7, 17, 103, 176, 183, 148, 126, 60, 3, 1.83093
288, 6, wb, filler, NA, 999, 999, 7, 17, 103, 176, 183, 148, 126, 60, 2, 0.70834
288, 6, wb, catch, NA, 999, 999, 7, 18, 129, 126, 153, 162, 100, 95, 3, 1.2774
288, 6, wb, catch, NA, 999, 999, 7, 18, 129, 126, 153, 162, 100, 95, 2, 0.896983
288, 6, wb, filler, NA, 999, 999, 7, 19, 88, 109, 182, 98, 191, 156, 1, 1.11464
288, 6, wb, filler, NA, 999, 999, 7, 19, 88, 109, 182, 98, 191, 156, 3, 1.06894
288, 6, wb, filler, NA, 999, 999, 7, 20, 112, 169, 191, 105, 102, 70, 3, 1.27185
288, 6, wb, filler, NA, 999, 999, 7, 20, 112, 169, 191, 105, 102, 70, 1, 1.09161
288, 6, wb, attraction, a-b-da, 14, 1, 7, 21, 135, 60, 60, 135, 125, 56, 1, 7.56504
288, 6, wb, attraction, a-b-da, 14, 1, 7, 21, 135, 60, 60, 135, 125, 56, 2, 0.87549
288, 6, wb, attraction, a-b-da, 9, 3, 7, 22, 120, 195, 195, 120, 186, 114, 2, 5.1258
288, 6, wb, attraction, a-b-da, 9, 3, 7, 22, 120, 195, 195, 120, 186, 114, 1, 0.390076
288, 6, wb, attraction, a-b-db, 9, 1, 7, 23, 60, 135, 57, 129, 135, 60, 1, 3.29984
288, 6, wb, attraction, a-b-db, 9, 1, 7, 23, 60, 135, 57, 129, 135, 60, 3, 0.75013
288, 6, wb, attraction, a-b-db, 5, 1, 7, 24, 135, 60, 58, 132, 60, 135, 2, 1.43788
288, 6, wb, attraction, a-b-db, 5, 1, 7, 24, 135, 60, 58, 132, 60, 135, 1, 0.610717
288, 6, wb, attraction, a-b-db, 14, 3, 7, 25, 120, 195, 195, 120, 111, 181, 3, 3.7039
288, 6, wb, attraction, a-b-db, 14, 3, 7, 25, 120, 195, 195, 120, 111, 181, 2, 0.761955
288, 6, wb, attraction, a-b-da, 2, 2, 7, 26, 90, 165, 165, 90, 163, 89, 2, 2.33704
288, 6, wb, attraction, a-b-da, 2, 2, 7, 26, 90, 165, 165, 90, 163, 89, 1, 0.881573
288, 6, wb, filler, NA, 999, 999, 7, 27, 173, 195, 88, 143, 119, 154, 2, 0.93191
288, 6, wb, filler, NA, 999, 999, 7, 27, 173, 195, 88, 143, 119, 154, 1, 0.805615
288, 6, wb, attraction, a-b-da, 9, 1, 7, 28, 135, 60, 129, 57, 60, 135, 2, 2.13122
288, 6, wb, attraction, a-b-da, 9, 1, 7, 28, 135, 60, 129, 57, 60, 135, 3, 1.0685
288, 6, wb, catch, NA, 999, 999, 7, 29, 64, 131, 158, 97, 159, 156, 1, 1.23154
288, 6, wb, catch, NA, 999, 999, 7, 29, 64, 131, 158, 97, 159, 156, 3, 1.22923
288, 6, wb, attraction, a-b-db, 2, 2, 7, 30, 89, 163, 90, 165, 165, 90, 2, 4.40939
288, 6, wb, attraction, a-b-db, 2, 2, 7, 30, 89, 163, 90, 165, 165, 90, 3, 0.558597
288, 6, wb, attraction, a-b-da, 2, 3, 7, 31, 120, 195, 193, 119, 195, 120, 2, 1.50972
288, 6, wb, attraction, a-b-da, 2, 3, 7, 31, 120, 195, 193, 119, 195, 120, 1, 0.511848
288, 6, wb, attraction, a-b-db, 14, 1, 7, 32, 60, 135, 56, 125, 135, 60, 2, 0.568896
288, 6, wb, attraction, a-b-db, 14, 1, 7, 32, 60, 135, 56, 125, 135, 60, 3, 0.729429
288, 6, wb, attraction, a-b-db, 5, 3, 7, 33, 195, 120, 117, 190, 120, 195, 2, 0.745803
288, 6, wb, attraction, a-b-db, 5, 3, 7, 33, 195, 120, 117, 190, 120, 195, 1, 0.619016
288, 6, wb, attraction, a-b-da, 2, 1, 7, 34, 60, 135, 135, 60, 134, 59, 1, 1.10392
288, 6, wb, attraction, a-b-da, 2, 1, 7, 34, 60, 135, 135, 60, 134, 59, 2, 0.610942
288, 6, wb, catch, NA, 999, 999, 7, 35, 113, 142, 129, 66, 165, 150, 2, 2.096
288, 6, wb, catch, NA, 999, 999, 7, 35, 113, 142, 129, 66, 165, 150, 3, 0.978696
288, 6, wb, attraction, a-b-db, 2, 3, 7, 36, 120, 195, 195, 120, 119, 193, 3, 2.28103
288, 6, wb, attraction, a-b-db, 2, 3, 7, 36, 120, 195, 195, 120, 119, 193, 2, 0.700222
288, 6, wb, filler, NA, 999, 999, 7, 37, 73, 132, 86, 127, 179, 157, 1, 0.782032
288, 6, wb, filler, NA, 999, 999, 7, 37, 73, 132, 86, 127, 179, 157, 3, 0.82963
288, 6, wb, filler, NA, 999, 999, 8, 1, 168, 168, 193, 178, 78, 134, 3, 2.52209
288, 6, wb, filler, NA, 999, 999, 8, 1, 168, 168, 193, 178, 78, 134, 2, 0.907341
288, 6, wb, filler, NA, 999, 999, 8, 2, 150, 121, 59, 139, 185, 105, 2, 0.764213
288, 6, wb, filler, NA, 999, 999, 8, 2, 150, 121, 59, 139, 185, 105, 1, 0.516684
288, 6, wb, filler, NA, 999, 999, 8, 3, 89, 170, 193, 191, 182, 67, 3, 1.32571
288, 6, wb, filler, NA, 999, 999, 8, 3, 89, 170, 193, 191, 182, 67, 2, 0.47929
288, 6, wb, filler, NA, 999, 999, 8, 4, 121, 87, 179, 183, 76, 189, 1, 0.849816
288, 6, wb, filler, NA, 999, 999, 8, 4, 121, 87, 179, 183, 76, 189, 2, 0.390847
288, 6, wb, filler, NA, 999, 999, 8, 5, 77, 141, 145, 63, 94, 93, 3, 1.10059
288, 6, wb, filler, NA, 999, 999, 8, 5, 77, 141, 145, 63, 94, 93, 1, 0.727572
288, 6, wb, attraction, a-b-db, 9, 2, 8, 6, 86, 157, 90, 165, 165, 90, 2, 2.16795
288, 6, wb, attraction, a-b-db, 9, 2, 8, 6, 86, 157, 90, 165, 165, 90, 1, 0.575848
288, 6, wb, filler, NA, 999, 999, 8, 7, 190, 128, 131, 143, 139, 184, 2, 5.27836
288, 6, wb, filler, NA, 999, 999, 8, 7, 190, 128, 131, 143, 139, 184, 1, 1.02458
288, 6, wb, filler, NA, 999, 999, 8, 8, 68, 176, 57, 94, 77, 107, 2, 2.45291
288, 6, wb, filler, NA, 999, 999, 8, 8, 68, 176, 57, 94, 77, 107, 1, 0.553462
288, 6, wb, attraction, a-b-db, 5, 3, 8, 9, 117, 190, 195, 120, 120, 195, 2, 3.76122
288, 6, wb, attraction, a-b-db, 5, 3, 8, 9, 117, 190, 195, 120, 120, 195, 3, 2.10479
288, 6, wb, catch, NA, 999, 999, 8, 10, 139, 116, 67, 128, 161, 154, 2, 2.24205
288, 6, wb, catch, NA, 999, 999, 8, 10, 139, 116, 67, 128, 161, 154, 3, 0.80662
288, 6, wb, attraction, a-b-db, 14, 3, 8, 11, 111, 181, 120, 195, 195, 120, 1, 3.79562
288, 6, wb, attraction, a-b-db, 14, 3, 8, 11, 111, 181, 120, 195, 195, 120, 2, 0.537686
288, 6, wb, attraction, a-b-da, 14, 3, 8, 12, 181, 111, 120, 195, 195, 120, 2, 1.73817
288, 6, wb, attraction, a-b-da, 14, 3, 8, 12, 181, 111, 120, 195, 195, 120, 3, 2.78693
288, 6, wb, attraction, a-b-db, 5, 2, 8, 13, 165, 90, 90, 165, 88, 161, 3, 3.08861
288, 6, wb, attraction, a-b-db, 5, 2, 8, 13, 165, 90, 90, 165, 88, 161, 2, 0.394948
288, 6, wb, attraction, a-b-da, 14, 2, 8, 14, 165, 90, 153, 83, 90, 165, 3, 3.80087
288, 6, wb, attraction, a-b-da, 14, 2, 8, 14, 165, 90, 153, 83, 90, 165, 1, 1.11895
288, 6, wb, attraction, a-b-da, 5, 2, 8, 15, 161, 88, 165, 90, 90, 165, 2, 5.39992
288, 6, wb, attraction, a-b-da, 5, 2, 8, 15, 161, 88, 165, 90, 90, 165, 1, 0.405545
288, 6, wb, filler, NA, 999, 999, 8, 16, 193, 108, 83, 69, 87, 82, 2, 0.58725
288, 6, wb, filler, NA, 999, 999, 8, 16, 193, 108, 83, 69, 87, 82, 1, 0.570428
288, 6, wb, attraction, a-b-da, 9, 3, 8, 17, 195, 120, 120, 195, 186, 114, 2, 4.84156
288, 6, wb, attraction, a-b-da, 9, 3, 8, 17, 195, 120, 120, 195, 186, 114, 1, 0.653298
288, 6, wb, attraction, a-b-da, 2, 2, 8, 18, 90, 165, 165, 90, 163, 89, 2, 3.74511
288, 6, wb, attraction, a-b-da, 2, 2, 8, 18, 90, 165, 165, 90, 163, 89, 1, 0.697218
288, 6, wb, attraction, a-b-db, 14, 2, 8, 19, 83, 153, 165, 90, 90, 165, 2, 1.25086
288, 6, wb, attraction, a-b-db, 14, 2, 8, 19, 83, 153, 165, 90, 90, 165, 3, 0.456056
288, 6, wb, attraction, a-b-da, 5, 3, 8, 20, 190, 117, 120, 195, 195, 120, 1, 2.61103
288, 6, wb, attraction, a-b-da, 5, 3, 8, 20, 190, 117, 120, 195, 195, 120, 2, 0.896816
288, 6, wb, attraction, a-b-db, 5, 1, 8, 21, 58, 132, 135, 60, 60, 135, 2, 1.69844
288, 6, wb, attraction, a-b-db, 5, 1, 8, 21, 58, 132, 135, 60, 60, 135, 3, 0.485178
288, 6, wb, catch, NA, 999, 999, 8, 22, 161, 94, 78, 117, 174, 141, 2, 1.98377
288, 6, wb, catch, NA, 999, 999, 8, 22, 161, 94, 78, 117, 174, 141, 3, 0.719023
288, 6, wb, attraction, a-b-db, 14, 1, 8, 23, 56, 125, 135, 60, 60, 135, 2, 2.5681
288, 6, wb, attraction, a-b-db, 14, 1, 8, 23, 56, 125, 135, 60, 60, 135, 1, 0.751882
288, 6, wb, attraction, a-b-da, 5, 1, 8, 24, 132, 58, 60, 135, 135, 60, 2, 0.855596
288, 6, wb, attraction, a-b-da, 5, 1, 8, 24, 132, 58, 60, 135, 135, 60, 3, 1.20402
288, 6, wb, attraction, a-b-db, 2, 2, 8, 25, 89, 163, 90, 165, 165, 90, 3, 1.80152
288, 6, wb, attraction, a-b-db, 2, 2, 8, 25, 89, 163, 90, 165, 165, 90, 2, 0.680415
288, 6, wb, attraction, a-b-db, 2, 1, 8, 26, 60, 135, 59, 134, 135, 60, 2, 1.87479
288, 6, wb, attraction, a-b-db, 2, 1, 8, 26, 60, 135, 59, 134, 135, 60, 3, 1.05416
288, 6, wb, attraction, a-b-da, 2, 1, 8, 27, 60, 135, 134, 59, 135, 60, 2, 4.70577
288, 6, wb, attraction, a-b-da, 2, 1, 8, 27, 60, 135, 134, 59, 135, 60, 1, 0.594939
288, 6, wb, attraction, a-b-da, 9, 2, 8, 28, 157, 86, 165, 90, 90, 165, 2, 3.16073
288, 6, wb, attraction, a-b-da, 9, 2, 8, 28, 157, 86, 165, 90, 90, 165, 1, 0.768313
288, 6, wb, catch, NA, 999, 999, 8, 29, 177, 138, 108, 87, 144, 111, 2, 0.671309
288, 6, wb, catch, NA, 999, 999, 8, 29, 177, 138, 108, 87, 144, 111, 1, 0.771088
288, 6, wb, filler, NA, 999, 999, 8, 30, 75, 141, 62, 160, 124, 188, 1, 1.41811
288, 6, wb, filler, NA, 999, 999, 8, 30, 75, 141, 62, 160, 124, 188, 3, 0.760381
288, 6, wb, attraction, a-b-db, 9, 3, 8, 31, 114, 186, 195, 120, 120, 195, 1, 4.86334
288, 6, wb, attraction, a-b-db, 9, 3, 8, 31, 114, 186, 195, 120, 120, 195, 3, 0.586482
288, 6, wb, attraction, a-b-da, 2, 3, 8, 32, 195, 120, 193, 119, 120, 195, 3, 1.6569
288, 6, wb, attraction, a-b-da, 2, 3, 8, 32, 195, 120, 193, 119, 120, 195, 1, 0.741129
288, 6, wb, attraction, a-b-da, 14, 1, 8, 33, 125, 56, 60, 135, 135, 60, 1, 2.22068
288, 6, wb, attraction, a-b-da, 14, 1, 8, 33, 125, 56, 60, 135, 135, 60, 2, 1.70598
288, 6, wb, attraction, a-b-db, 9, 1, 8, 34, 57, 129, 135, 60, 60, 135, 1, 1.61947
288, 6, wb, attraction, a-b-db, 9, 1, 8, 34, 57, 129, 135, 60, 60, 135, 3, 1.98556
288, 6, wb, attraction, a-b-db, 2, 3, 8, 35, 119, 193, 120, 195, 195, 120, 1, 2.15157
288, 6, wb, attraction, a-b-db, 2, 3, 8, 35, 119, 193, 120, 195, 195, 120, 3, 1.48817
288, 6, wb, filler, NA, 999, 999, 8, 36, 108, 123, 93, 56, 96, 86, 2, 0.650383
288, 6, wb, filler, NA, 999, 999, 8, 36, 108, 123, 93, 56, 96, 86, 1, 0.423511
288, 6, wb, attraction, a-b-da, 9, 1, 8, 37, 60, 135, 129, 57, 135, 60, 1, 0.923903
288, 6, wb, attraction, a-b-da, 9, 1, 8, 37, 60, 135, 129, 57, 135, 60, 3, 0.853603
