sub_n, computer_n, bw_cond, effect, set, distance, diag, block_n, trial_n, h1, w1, h2, w2, h3, w3, choice, rt 
219, 6, bw, practice, NA, 999, 999, 0, 1, 61, 105, 61, 131, 160, 181, 3, 1.70475
219, 6, bw, practice, NA, 999, 999, 0, 1, 61, 105, 61, 131, 160, 181, 1, 2.30045
219, 6, bw, practice, NA, 999, 999, 0, 2, 156, 186, 138, 59, 146, 131, 1, 1.8971
219, 6, bw, practice, NA, 999, 999, 0, 2, 156, 186, 138, 59, 146, 131, 2, 2.23594
219, 6, bw, practice, NA, 999, 999, 0, 3, 165, 100, 181, 92, 59, 89, 1, 1.92454
219, 6, bw, practice, NA, 999, 999, 0, 3, 165, 100, 181, 92, 59, 89, 3, 1.85629
219, 6, bw, attraction, a-b-da, 9, 1, 1, 1, 129, 57, 60, 135, 135, 60, 2, 2.17918
219, 6, bw, attraction, a-b-da, 9, 1, 1, 1, 129, 57, 60, 135, 135, 60, 1, 1.57855
219, 6, bw, attraction, a-b-db, 9, 2, 1, 2, 90, 165, 165, 90, 86, 157, 2, 1.6406
219, 6, bw, attraction, a-b-db, 9, 2, 1, 2, 90, 165, 165, 90, 86, 157, 3, 1.25337
219, 6, bw, filler, NA, 999, 999, 1, 3, 97, 180, 169, 163, 62, 194, 2, 1.19294
219, 6, bw, filler, NA, 999, 999, 1, 3, 97, 180, 169, 163, 62, 194, 3, 1.0799
219, 6, bw, attraction, a-b-da, 2, 3, 1, 4, 193, 119, 195, 120, 120, 195, 3, 1.08212
219, 6, bw, attraction, a-b-da, 2, 3, 1, 4, 193, 119, 195, 120, 120, 195, 1, 0.98977
219, 6, bw, attraction, a-b-da, 5, 1, 1, 5, 60, 135, 132, 58, 135, 60, 1, 1.4754
219, 6, bw, attraction, a-b-da, 5, 1, 1, 5, 60, 135, 132, 58, 135, 60, 2, 0.806912
219, 6, bw, attraction, a-b-da, 14, 2, 1, 6, 90, 165, 165, 90, 153, 83, 1, 1.25196
219, 6, bw, attraction, a-b-da, 14, 2, 1, 6, 90, 165, 165, 90, 153, 83, 3, 0.665034
219, 6, bw, attraction, a-b-da, 14, 3, 1, 7, 195, 120, 181, 111, 120, 195, 3, 1.06803
219, 6, bw, attraction, a-b-da, 14, 3, 1, 7, 195, 120, 181, 111, 120, 195, 2, 1.6083
219, 6, bw, attraction, a-b-db, 2, 2, 1, 8, 165, 90, 90, 165, 89, 163, 3, 2.30109
219, 6, bw, attraction, a-b-db, 2, 2, 1, 8, 165, 90, 90, 165, 89, 163, 2, 2.03166
219, 6, bw, attraction, a-b-db, 5, 1, 1, 9, 60, 135, 58, 132, 135, 60, 3, 2.17174
219, 6, bw, attraction, a-b-db, 5, 1, 1, 9, 60, 135, 58, 132, 135, 60, 2, 0.882821
219, 6, bw, filler, NA, 999, 999, 1, 10, 157, 165, 63, 105, 74, 151, 1, 0.925167
219, 6, bw, filler, NA, 999, 999, 1, 10, 157, 165, 63, 105, 74, 151, 2, 1.15884
219, 6, bw, filler, NA, 999, 999, 1, 11, 120, 190, 132, 168, 140, 183, 3, 1.2538
219, 6, bw, filler, NA, 999, 999, 1, 11, 120, 190, 132, 168, 140, 183, 1, 0.850723
219, 6, bw, attraction, a-b-da, 9, 2, 1, 12, 165, 90, 157, 86, 90, 165, 1, 1.66282
219, 6, bw, attraction, a-b-da, 9, 2, 1, 12, 165, 90, 157, 86, 90, 165, 2, 0.658508
219, 6, bw, filler, NA, 999, 999, 1, 13, 186, 65, 128, 161, 124, 105, 2, 1.14976
219, 6, bw, filler, NA, 999, 999, 1, 13, 186, 65, 128, 161, 124, 105, 3, 1.83058
219, 6, bw, filler, NA, 999, 999, 1, 14, 155, 80, 175, 91, 104, 90, 3, 2.05856
219, 6, bw, filler, NA, 999, 999, 1, 14, 155, 80, 175, 91, 104, 90, 1, 4.87861
219, 6, bw, attraction, a-b-db, 2, 1, 1, 15, 135, 60, 60, 135, 59, 134, 1, 2.19961
219, 6, bw, attraction, a-b-db, 2, 1, 1, 15, 135, 60, 60, 135, 59, 134, 2, 1.20635
219, 6, bw, attraction, a-b-da, 5, 2, 1, 16, 165, 90, 161, 88, 90, 165, 1, 1.57124
219, 6, bw, attraction, a-b-da, 5, 2, 1, 16, 165, 90, 161, 88, 90, 165, 2, 1.0508
219, 6, bw, attraction, a-b-db, 14, 3, 1, 17, 195, 120, 111, 181, 120, 195, 3, 1.27031
219, 6, bw, attraction, a-b-db, 14, 3, 1, 17, 195, 120, 111, 181, 120, 195, 2, 0.786481
219, 6, bw, catch, NA, 999, 999, 1, 18, 163, 92, 159, 156, 89, 106, 2, 0.864882
219, 6, bw, catch, NA, 999, 999, 1, 18, 163, 92, 159, 156, 89, 106, 3, 0.677331
219, 6, bw, attraction, a-b-da, 2, 1, 1, 19, 134, 59, 135, 60, 60, 135, 2, 2.61565
219, 6, bw, attraction, a-b-da, 2, 1, 1, 19, 134, 59, 135, 60, 60, 135, 3, 0.517463
219, 6, bw, catch, NA, 999, 999, 1, 20, 151, 164, 115, 140, 93, 102, 1, 0.726488
219, 6, bw, catch, NA, 999, 999, 1, 20, 151, 164, 115, 140, 93, 102, 3, 0.640303
219, 6, bw, attraction, a-b-da, 9, 3, 1, 21, 195, 120, 120, 195, 186, 114, 1, 2.6761
219, 6, bw, attraction, a-b-da, 9, 3, 1, 21, 195, 120, 120, 195, 186, 114, 3, 0.735297
219, 6, bw, attraction, a-b-db, 5, 3, 1, 22, 120, 195, 117, 190, 195, 120, 1, 1.53563
219, 6, bw, attraction, a-b-db, 5, 3, 1, 22, 120, 195, 117, 190, 195, 120, 2, 0.353004
219, 6, bw, filler, NA, 999, 999, 1, 23, 153, 147, 138, 129, 160, 175, 3, 0.78485
219, 6, bw, filler, NA, 999, 999, 1, 23, 153, 147, 138, 129, 160, 175, 1, 0.912642
219, 6, bw, attraction, a-b-db, 2, 3, 1, 24, 120, 195, 195, 120, 119, 193, 2, 1.64178
219, 6, bw, attraction, a-b-db, 2, 3, 1, 24, 120, 195, 195, 120, 119, 193, 3, 0.558461
219, 6, bw, attraction, a-b-db, 14, 2, 1, 25, 90, 165, 165, 90, 83, 153, 2, 1.44563
219, 6, bw, attraction, a-b-db, 14, 2, 1, 25, 90, 165, 165, 90, 83, 153, 3, 0.450341
219, 6, bw, attraction, a-b-da, 2, 2, 1, 26, 165, 90, 163, 89, 90, 165, 1, 1.46212
219, 6, bw, attraction, a-b-da, 2, 2, 1, 26, 165, 90, 163, 89, 90, 165, 2, 1.24239
219, 6, bw, attraction, a-b-da, 5, 3, 1, 27, 195, 120, 120, 195, 190, 117, 1, 2.76588
219, 6, bw, attraction, a-b-da, 5, 3, 1, 27, 195, 120, 120, 195, 190, 117, 3, 0.837665
219, 6, bw, filler, NA, 999, 999, 1, 28, 169, 102, 136, 182, 104, 94, 2, 0.969998
219, 6, bw, filler, NA, 999, 999, 1, 28, 169, 102, 136, 182, 104, 94, 3, 0.714489
219, 6, bw, attraction, a-b-db, 5, 2, 1, 29, 90, 165, 165, 90, 88, 161, 2, 1.43558
219, 6, bw, attraction, a-b-db, 5, 2, 1, 29, 90, 165, 165, 90, 88, 161, 3, 0.520976
219, 6, bw, attraction, a-b-db, 9, 1, 1, 30, 60, 135, 57, 129, 135, 60, 3, 2.43417
219, 6, bw, attraction, a-b-db, 9, 1, 1, 30, 60, 135, 57, 129, 135, 60, 2, 0.599362
219, 6, bw, attraction, a-b-db, 9, 3, 1, 31, 120, 195, 195, 120, 114, 186, 3, 2.10908
219, 6, bw, attraction, a-b-db, 9, 3, 1, 31, 120, 195, 195, 120, 114, 186, 2, 0.615025
219, 6, bw, attraction, a-b-db, 14, 1, 1, 32, 60, 135, 135, 60, 56, 125, 1, 3.17214
219, 6, bw, attraction, a-b-db, 14, 1, 1, 32, 60, 135, 135, 60, 56, 125, 2, 0.63502
219, 6, bw, filler, NA, 999, 999, 1, 33, 140, 166, 82, 69, 102, 183, 1, 1.26349
219, 6, bw, filler, NA, 999, 999, 1, 33, 140, 166, 82, 69, 102, 183, 2, 0.403713
219, 6, bw, filler, NA, 999, 999, 1, 34, 110, 101, 165, 114, 62, 123, 2, 0.96154
219, 6, bw, filler, NA, 999, 999, 1, 34, 110, 101, 165, 114, 62, 123, 3, 0.441884
219, 6, bw, filler, NA, 999, 999, 1, 35, 172, 170, 133, 133, 147, 87, 1, 0.701634
219, 6, bw, filler, NA, 999, 999, 1, 35, 172, 170, 133, 133, 147, 87, 3, 0.480834
219, 6, bw, attraction, a-b-da, 14, 1, 1, 36, 135, 60, 125, 56, 60, 135, 3, 1.12332
219, 6, bw, attraction, a-b-da, 14, 1, 1, 36, 135, 60, 125, 56, 60, 135, 2, 0.292881
219, 6, bw, catch, NA, 999, 999, 1, 37, 115, 80, 142, 173, 133, 122, 2, 0.56663
219, 6, bw, catch, NA, 999, 999, 1, 37, 115, 80, 142, 173, 133, 122, 1, 0.407142
219, 6, bw, attraction, a-b-da, 5, 3, 2, 1, 195, 120, 120, 195, 190, 117, 2, 0.932385
219, 6, bw, attraction, a-b-da, 5, 3, 2, 1, 195, 120, 120, 195, 190, 117, 3, 0.637978
219, 6, bw, filler, NA, 999, 999, 2, 2, 168, 65, 187, 147, 85, 148, 2, 0.506391
219, 6, bw, filler, NA, 999, 999, 2, 2, 168, 65, 187, 147, 85, 148, 1, 0.420992
219, 6, bw, filler, NA, 999, 999, 2, 3, 97, 91, 64, 187, 130, 92, 3, 0.858007
219, 6, bw, filler, NA, 999, 999, 2, 3, 97, 91, 64, 187, 130, 92, 1, 3.43054
219, 6, bw, catch, NA, 999, 999, 2, 4, 128, 127, 101, 94, 174, 141, 3, 1.538
219, 6, bw, catch, NA, 999, 999, 2, 4, 128, 127, 101, 94, 174, 141, 2, 0.63476
219, 6, bw, attraction, a-b-da, 9, 1, 2, 5, 129, 57, 60, 135, 135, 60, 3, 1.16716
219, 6, bw, attraction, a-b-da, 9, 1, 2, 5, 129, 57, 60, 135, 135, 60, 1, 0.583392
219, 6, bw, catch, NA, 999, 999, 2, 6, 103, 152, 147, 168, 126, 69, 2, 0.781956
219, 6, bw, catch, NA, 999, 999, 2, 6, 103, 152, 147, 168, 126, 69, 3, 0.453616
219, 6, bw, filler, NA, 999, 999, 2, 7, 68, 144, 83, 123, 149, 77, 3, 1.48945
219, 6, bw, filler, NA, 999, 999, 2, 7, 68, 144, 83, 123, 149, 77, 1, 0.620171
219, 6, bw, attraction, a-b-da, 14, 2, 2, 8, 153, 83, 90, 165, 165, 90, 3, 1.46552
219, 6, bw, attraction, a-b-da, 14, 2, 2, 8, 153, 83, 90, 165, 165, 90, 1, 0.893526
219, 6, bw, attraction, a-b-db, 5, 3, 2, 9, 117, 190, 195, 120, 120, 195, 3, 1.12722
219, 6, bw, attraction, a-b-db, 5, 3, 2, 9, 117, 190, 195, 120, 120, 195, 1, 1.36084
219, 6, bw, attraction, a-b-db, 9, 3, 2, 10, 195, 120, 114, 186, 120, 195, 1, 1.70363
219, 6, bw, attraction, a-b-db, 9, 3, 2, 10, 195, 120, 114, 186, 120, 195, 2, 1.1304
219, 6, bw, attraction, a-b-db, 5, 1, 2, 11, 58, 132, 60, 135, 135, 60, 2, 2.02672
219, 6, bw, attraction, a-b-db, 5, 1, 2, 11, 58, 132, 60, 135, 135, 60, 3, 0.607986
219, 6, bw, attraction, a-b-db, 5, 2, 2, 12, 88, 161, 90, 165, 165, 90, 3, 1.35708
219, 6, bw, attraction, a-b-db, 5, 2, 2, 12, 88, 161, 90, 165, 165, 90, 1, 0.389325
219, 6, bw, attraction, a-b-da, 14, 1, 2, 13, 60, 135, 125, 56, 135, 60, 3, 0.835104
219, 6, bw, attraction, a-b-da, 14, 1, 2, 13, 60, 135, 125, 56, 135, 60, 1, 0.344877
219, 6, bw, attraction, a-b-db, 2, 3, 2, 14, 120, 195, 195, 120, 119, 193, 3, 1.18485
219, 6, bw, attraction, a-b-db, 2, 3, 2, 14, 120, 195, 195, 120, 119, 193, 2, 0.440235
219, 6, bw, attraction, a-b-da, 14, 3, 2, 15, 120, 195, 181, 111, 195, 120, 1, 1.08405
219, 6, bw, attraction, a-b-da, 14, 3, 2, 15, 120, 195, 181, 111, 195, 120, 2, 0.319661
219, 6, bw, filler, NA, 999, 999, 2, 16, 132, 186, 112, 106, 125, 163, 1, 0.880919
219, 6, bw, filler, NA, 999, 999, 2, 16, 132, 186, 112, 106, 125, 163, 2, 0.508596
219, 6, bw, attraction, a-b-db, 2, 2, 2, 17, 165, 90, 89, 163, 90, 165, 1, 1.92566
219, 6, bw, attraction, a-b-db, 2, 2, 2, 17, 165, 90, 89, 163, 90, 165, 2, 0.775065
219, 6, bw, filler, NA, 999, 999, 2, 18, 107, 183, 94, 89, 60, 123, 1, 0.789433
219, 6, bw, filler, NA, 999, 999, 2, 18, 107, 183, 94, 89, 60, 123, 3, 0.404515
219, 6, bw, attraction, a-b-da, 2, 1, 2, 19, 134, 59, 135, 60, 60, 135, 3, 0.954481
219, 6, bw, attraction, a-b-da, 2, 1, 2, 19, 134, 59, 135, 60, 60, 135, 2, 0.346581
219, 6, bw, attraction, a-b-da, 9, 2, 2, 20, 157, 86, 165, 90, 90, 165, 2, 1.31446
219, 6, bw, attraction, a-b-da, 9, 2, 2, 20, 157, 86, 165, 90, 90, 165, 3, 0.396712
219, 6, bw, attraction, a-b-db, 14, 1, 2, 21, 135, 60, 60, 135, 56, 125, 1, 1.01058
219, 6, bw, attraction, a-b-db, 14, 1, 2, 21, 135, 60, 60, 135, 56, 125, 3, 0.888859
219, 6, bw, catch, NA, 999, 999, 2, 22, 178, 137, 91, 164, 81, 114, 1, 0.651146
219, 6, bw, catch, NA, 999, 999, 2, 22, 178, 137, 91, 164, 81, 114, 3, 0.42434
219, 6, bw, attraction, a-b-da, 2, 2, 2, 23, 165, 90, 90, 165, 163, 89, 3, 0.860778
219, 6, bw, attraction, a-b-da, 2, 2, 2, 23, 165, 90, 90, 165, 163, 89, 2, 0.233106
219, 6, bw, attraction, a-b-db, 14, 3, 2, 24, 111, 181, 120, 195, 195, 120, 2, 1.20568
219, 6, bw, attraction, a-b-db, 14, 3, 2, 24, 111, 181, 120, 195, 195, 120, 1, 0.30792
219, 6, bw, attraction, a-b-db, 14, 2, 2, 25, 83, 153, 165, 90, 90, 165, 3, 0.94908
219, 6, bw, attraction, a-b-db, 14, 2, 2, 25, 83, 153, 165, 90, 90, 165, 1, 0.526104
219, 6, bw, filler, NA, 999, 999, 2, 26, 147, 122, 163, 117, 75, 182, 2, 1.19854
219, 6, bw, filler, NA, 999, 999, 2, 26, 147, 122, 163, 117, 75, 182, 3, 0.357523
219, 6, bw, filler, NA, 999, 999, 2, 27, 136, 147, 170, 100, 146, 168, 3, 1.80479
219, 6, bw, filler, NA, 999, 999, 2, 27, 136, 147, 170, 100, 146, 168, 1, 0.322714
219, 6, bw, attraction, a-b-da, 9, 3, 2, 28, 195, 120, 186, 114, 120, 195, 3, 1.50727
219, 6, bw, attraction, a-b-da, 9, 3, 2, 28, 195, 120, 186, 114, 120, 195, 2, 0.581417
219, 6, bw, filler, NA, 999, 999, 2, 29, 84, 110, 67, 126, 102, 109, 3, 0.987842
219, 6, bw, filler, NA, 999, 999, 2, 29, 84, 110, 67, 126, 102, 109, 2, 0.51475
219, 6, bw, attraction, a-b-db, 9, 2, 2, 30, 165, 90, 90, 165, 86, 157, 1, 1.21199
219, 6, bw, attraction, a-b-db, 9, 2, 2, 30, 165, 90, 90, 165, 86, 157, 3, 0.578146
219, 6, bw, attraction, a-b-da, 5, 2, 2, 31, 161, 88, 165, 90, 90, 165, 2, 1.27263
219, 6, bw, attraction, a-b-da, 5, 2, 2, 31, 161, 88, 165, 90, 90, 165, 1, 0.420192
219, 6, bw, attraction, a-b-da, 5, 1, 2, 32, 135, 60, 60, 135, 132, 58, 1, 3.1774
219, 6, bw, attraction, a-b-da, 5, 1, 2, 32, 135, 60, 60, 135, 132, 58, 2, 0.328375
219, 6, bw, attraction, a-b-db, 9, 1, 2, 33, 60, 135, 57, 129, 135, 60, 3, 2.36089
219, 6, bw, attraction, a-b-db, 9, 1, 2, 33, 60, 135, 57, 129, 135, 60, 2, 1.31269
219, 6, bw, filler, NA, 999, 999, 2, 34, 159, 103, 84, 177, 189, 182, 3, 0.673615
219, 6, bw, filler, NA, 999, 999, 2, 34, 159, 103, 84, 177, 189, 182, 2, 0.589364
219, 6, bw, attraction, a-b-db, 2, 1, 2, 35, 135, 60, 59, 134, 60, 135, 1, 1.69125
219, 6, bw, attraction, a-b-db, 2, 1, 2, 35, 135, 60, 59, 134, 60, 135, 2, 0.537683
219, 6, bw, filler, NA, 999, 999, 2, 36, 84, 87, 167, 116, 93, 70, 2, 1.11833
219, 6, bw, filler, NA, 999, 999, 2, 36, 84, 87, 167, 116, 93, 70, 3, 0.752612
219, 6, bw, attraction, a-b-da, 2, 3, 2, 37, 195, 120, 120, 195, 193, 119, 1, 1.50432
219, 6, bw, attraction, a-b-da, 2, 3, 2, 37, 195, 120, 120, 195, 193, 119, 2, 0.242467
219, 6, bw, attraction, a-b-da, 14, 2, 3, 1, 165, 90, 90, 165, 153, 83, 1, 1.60643
219, 6, bw, attraction, a-b-da, 14, 2, 3, 1, 165, 90, 90, 165, 153, 83, 2, 0.46051
219, 6, bw, attraction, a-b-db, 5, 2, 3, 2, 165, 90, 90, 165, 88, 161, 3, 0.751659
219, 6, bw, attraction, a-b-db, 5, 2, 3, 2, 165, 90, 90, 165, 88, 161, 2, 0.688885
219, 6, bw, filler, NA, 999, 999, 3, 3, 151, 83, 57, 71, 145, 153, 3, 0.515085
219, 6, bw, filler, NA, 999, 999, 3, 3, 151, 83, 57, 71, 145, 153, 2, 0.493572
219, 6, bw, attraction, a-b-da, 14, 3, 3, 4, 120, 195, 181, 111, 195, 120, 3, 1.07943
219, 6, bw, attraction, a-b-da, 14, 3, 3, 4, 120, 195, 181, 111, 195, 120, 2, 0.355008
219, 6, bw, attraction, a-b-db, 14, 1, 3, 5, 135, 60, 60, 135, 56, 125, 1, 1.61882
219, 6, bw, attraction, a-b-db, 14, 1, 3, 5, 135, 60, 60, 135, 56, 125, 3, 0.353033
219, 6, bw, filler, NA, 999, 999, 3, 6, 124, 160, 91, 69, 84, 118, 1, 0.66479
219, 6, bw, filler, NA, 999, 999, 3, 6, 124, 160, 91, 69, 84, 118, 2, 0.357342
219, 6, bw, attraction, a-b-db, 2, 2, 3, 7, 90, 165, 165, 90, 89, 163, 2, 1.95647
219, 6, bw, attraction, a-b-db, 2, 2, 3, 7, 90, 165, 165, 90, 89, 163, 1, 0.564373
219, 6, bw, filler, NA, 999, 999, 3, 8, 168, 106, 153, 132, 60, 157, 1, 1.8355
219, 6, bw, filler, NA, 999, 999, 3, 8, 168, 106, 153, 132, 60, 157, 3, 0.816886
219, 6, bw, catch, NA, 999, 999, 3, 9, 164, 151, 114, 81, 92, 163, 1, 0.765948
219, 6, bw, catch, NA, 999, 999, 3, 9, 164, 151, 114, 81, 92, 163, 2, 0.462337
219, 6, bw, attraction, a-b-db, 9, 3, 3, 10, 195, 120, 120, 195, 114, 186, 1, 1.75342
219, 6, bw, attraction, a-b-db, 9, 3, 3, 10, 195, 120, 120, 195, 114, 186, 2, 0.434268
219, 6, bw, catch, NA, 999, 999, 3, 11, 63, 132, 129, 126, 156, 159, 3, 0.68663
219, 6, bw, catch, NA, 999, 999, 3, 11, 63, 132, 129, 126, 156, 159, 1, 0.466488
219, 6, bw, attraction, a-b-da, 9, 2, 3, 12, 157, 86, 165, 90, 90, 165, 3, 2.14967
219, 6, bw, attraction, a-b-da, 9, 2, 3, 12, 157, 86, 165, 90, 90, 165, 2, 0.718249
219, 6, bw, attraction, a-b-da, 5, 1, 3, 13, 60, 135, 132, 58, 135, 60, 3, 3.63121
219, 6, bw, attraction, a-b-da, 5, 1, 3, 13, 60, 135, 132, 58, 135, 60, 2, 0.404048
219, 6, bw, attraction, a-b-db, 2, 3, 3, 14, 119, 193, 120, 195, 195, 120, 2, 1.82594
219, 6, bw, attraction, a-b-db, 2, 3, 3, 14, 119, 193, 120, 195, 195, 120, 1, 0.27133
219, 6, bw, attraction, a-b-db, 5, 3, 3, 15, 117, 190, 120, 195, 195, 120, 3, 1.60255
219, 6, bw, attraction, a-b-db, 5, 3, 3, 15, 117, 190, 120, 195, 195, 120, 1, 0.473301
219, 6, bw, filler, NA, 999, 999, 3, 16, 169, 154, 152, 91, 126, 187, 1, 3.67578
219, 6, bw, filler, NA, 999, 999, 3, 16, 169, 154, 152, 91, 126, 187, 2, 0.198684
219, 6, bw, attraction, a-b-da, 14, 1, 3, 17, 60, 135, 125, 56, 135, 60, 3, 1.00469
219, 6, bw, attraction, a-b-da, 14, 1, 3, 17, 60, 135, 125, 56, 135, 60, 1, 0.338822
219, 6, bw, attraction, a-b-da, 5, 2, 3, 18, 90, 165, 161, 88, 165, 90, 3, 2.15535
219, 6, bw, attraction, a-b-da, 5, 2, 3, 18, 90, 165, 161, 88, 165, 90, 1, 0.235382
219, 6, bw, attraction, a-b-da, 2, 1, 3, 19, 60, 135, 134, 59, 135, 60, 1, 1.39986
219, 6, bw, attraction, a-b-da, 2, 1, 3, 19, 60, 135, 134, 59, 135, 60, 2, 0.262683
219, 6, bw, filler, NA, 999, 999, 3, 20, 69, 192, 80, 63, 96, 115, 3, 1.03384
219, 6, bw, filler, NA, 999, 999, 3, 20, 69, 192, 80, 63, 96, 115, 2, 1.56762
219, 6, bw, attraction, a-b-da, 5, 3, 3, 21, 195, 120, 120, 195, 190, 117, 3, 1.38244
219, 6, bw, attraction, a-b-da, 5, 3, 3, 21, 195, 120, 120, 195, 190, 117, 2, 0.797884
219, 6, bw, attraction, a-b-da, 9, 1, 3, 22, 60, 135, 135, 60, 129, 57, 2, 2.04352
219, 6, bw, attraction, a-b-da, 9, 1, 3, 22, 60, 135, 135, 60, 129, 57, 1, 0.296172
219, 6, bw, catch, NA, 999, 999, 3, 23, 62, 133, 135, 120, 144, 171, 3, 0.866076
219, 6, bw, catch, NA, 999, 999, 3, 23, 62, 133, 135, 120, 144, 171, 1, 0.526474
219, 6, bw, attraction, a-b-db, 5, 1, 3, 24, 60, 135, 58, 132, 135, 60, 3, 1.56687
219, 6, bw, attraction, a-b-db, 5, 1, 3, 24, 60, 135, 58, 132, 135, 60, 2, 0.566993
219, 6, bw, filler, NA, 999, 999, 3, 25, 81, 188, 64, 190, 135, 167, 3, 1.06224
219, 6, bw, filler, NA, 999, 999, 3, 25, 81, 188, 64, 190, 135, 167, 2, 0.498395
219, 6, bw, attraction, a-b-da, 9, 3, 3, 26, 186, 114, 120, 195, 195, 120, 3, 2.93228
219, 6, bw, attraction, a-b-da, 9, 3, 3, 26, 186, 114, 120, 195, 195, 120, 1, 0.509261
219, 6, bw, attraction, a-b-da, 2, 2, 3, 27, 90, 165, 165, 90, 163, 89, 2, 2.59859
219, 6, bw, attraction, a-b-da, 2, 2, 3, 27, 90, 165, 165, 90, 163, 89, 1, 0.516883
219, 6, bw, attraction, a-b-db, 14, 2, 3, 28, 90, 165, 83, 153, 165, 90, 3, 2.14203
219, 6, bw, attraction, a-b-db, 14, 2, 3, 28, 90, 165, 83, 153, 165, 90, 2, 0.342647
219, 6, bw, attraction, a-b-db, 9, 1, 3, 29, 135, 60, 60, 135, 57, 129, 1, 3.23056
219, 6, bw, attraction, a-b-db, 9, 1, 3, 29, 135, 60, 60, 135, 57, 129, 2, 0.267441
219, 6, bw, attraction, a-b-da, 2, 3, 3, 30, 193, 119, 120, 195, 195, 120, 2, 1.55062
219, 6, bw, attraction, a-b-da, 2, 3, 3, 30, 193, 119, 120, 195, 195, 120, 1, 0.367513
219, 6, bw, filler, NA, 999, 999, 3, 31, 96, 130, 177, 192, 57, 175, 2, 1.59065
219, 6, bw, filler, NA, 999, 999, 3, 31, 96, 130, 177, 192, 57, 175, 3, 0.373554
219, 6, bw, filler, NA, 999, 999, 3, 32, 81, 179, 86, 144, 190, 132, 3, 0.611884
219, 6, bw, filler, NA, 999, 999, 3, 32, 81, 179, 86, 144, 190, 132, 2, 0.314337
219, 6, bw, attraction, a-b-db, 9, 2, 3, 33, 86, 157, 165, 90, 90, 165, 3, 0.835567
219, 6, bw, attraction, a-b-db, 9, 2, 3, 33, 86, 157, 165, 90, 90, 165, 2, 0.40118
219, 6, bw, attraction, a-b-db, 14, 3, 3, 34, 195, 120, 111, 181, 120, 195, 1, 1.74303
219, 6, bw, attraction, a-b-db, 14, 3, 3, 34, 195, 120, 111, 181, 120, 195, 2, 0.447797
219, 6, bw, attraction, a-b-db, 2, 1, 3, 35, 60, 135, 135, 60, 59, 134, 2, 1.24365
219, 6, bw, attraction, a-b-db, 2, 1, 3, 35, 60, 135, 135, 60, 59, 134, 1, 0.52052
219, 6, bw, filler, NA, 999, 999, 3, 36, 109, 91, 184, 80, 150, 108, 2, 1.78566
219, 6, bw, filler, NA, 999, 999, 3, 36, 109, 91, 184, 80, 150, 108, 1, 0.481077
219, 6, bw, filler, NA, 999, 999, 3, 37, 146, 56, 82, 178, 97, 108, 2, 2.20359
219, 6, bw, filler, NA, 999, 999, 3, 37, 146, 56, 82, 178, 97, 108, 3, 1.38612
219, 6, bw, attraction, a-b-db, 2, 3, 4, 1, 119, 193, 195, 120, 120, 195, 1, 4.24033
219, 6, bw, attraction, a-b-db, 2, 3, 4, 1, 119, 193, 195, 120, 120, 195, 2, 1.28449
219, 6, bw, catch, NA, 999, 999, 4, 2, 110, 85, 125, 130, 133, 182, 3, 1.1105
219, 6, bw, catch, NA, 999, 999, 4, 2, 110, 85, 125, 130, 133, 182, 1, 0.812586
219, 6, bw, attraction, a-b-da, 14, 3, 4, 3, 181, 111, 195, 120, 120, 195, 2, 2.49386
219, 6, bw, attraction, a-b-da, 14, 3, 4, 3, 181, 111, 195, 120, 120, 195, 1, 0.600417
219, 6, bw, attraction, a-b-db, 14, 1, 4, 4, 56, 125, 135, 60, 60, 135, 3, 2.40617
219, 6, bw, attraction, a-b-db, 14, 1, 4, 4, 56, 125, 135, 60, 60, 135, 1, 0.404044
219, 6, bw, catch, NA, 999, 999, 4, 5, 172, 143, 79, 116, 94, 161, 1, 1.2418
219, 6, bw, catch, NA, 999, 999, 4, 5, 172, 143, 79, 116, 94, 161, 2, 0.470798
219, 6, bw, attraction, a-b-da, 9, 2, 4, 6, 165, 90, 157, 86, 90, 165, 3, 1.24184
219, 6, bw, attraction, a-b-da, 9, 2, 4, 6, 165, 90, 157, 86, 90, 165, 2, 0.590905
219, 6, bw, filler, NA, 999, 999, 4, 7, 139, 142, 128, 67, 158, 102, 1, 1.1405
219, 6, bw, filler, NA, 999, 999, 4, 7, 139, 142, 128, 67, 158, 102, 2, 0.637563
219, 6, bw, attraction, a-b-db, 9, 1, 4, 8, 57, 129, 135, 60, 60, 135, 3, 2.01792
219, 6, bw, attraction, a-b-db, 9, 1, 4, 8, 57, 129, 135, 60, 60, 135, 1, 0.511852
219, 6, bw, attraction, a-b-db, 5, 2, 4, 9, 88, 161, 90, 165, 165, 90, 2, 1.24106
219, 6, bw, attraction, a-b-db, 5, 2, 4, 9, 88, 161, 90, 165, 165, 90, 1, 0.885971
219, 6, bw, filler, NA, 999, 999, 4, 10, 90, 122, 151, 105, 81, 193, 2, 1.03232
219, 6, bw, filler, NA, 999, 999, 4, 10, 90, 122, 151, 105, 81, 193, 1, 0.725993
219, 6, bw, attraction, a-b-da, 2, 1, 4, 11, 135, 60, 60, 135, 134, 59, 1, 1.63836
219, 6, bw, attraction, a-b-da, 2, 1, 4, 11, 135, 60, 60, 135, 134, 59, 2, 0.603045
219, 6, bw, attraction, a-b-da, 9, 1, 4, 12, 60, 135, 129, 57, 135, 60, 1, 2.48884
219, 6, bw, attraction, a-b-da, 9, 1, 4, 12, 60, 135, 129, 57, 135, 60, 2, 0.603381
219, 6, bw, attraction, a-b-da, 2, 2, 4, 13, 163, 89, 165, 90, 90, 165, 1, 2.23318
219, 6, bw, attraction, a-b-da, 2, 2, 4, 13, 163, 89, 165, 90, 90, 165, 2, 0.694605
219, 6, bw, attraction, a-b-db, 5, 3, 4, 14, 195, 120, 120, 195, 117, 190, 2, 2.27212
219, 6, bw, attraction, a-b-db, 5, 3, 4, 14, 195, 120, 120, 195, 117, 190, 1, 0.811456
219, 6, bw, filler, NA, 999, 999, 4, 15, 167, 66, 106, 60, 90, 117, 3, 1.6325
219, 6, bw, filler, NA, 999, 999, 4, 15, 167, 66, 106, 60, 90, 117, 2, 0.381917
219, 6, bw, filler, NA, 999, 999, 4, 16, 193, 103, 98, 100, 112, 124, 1, 1.18834
219, 6, bw, filler, NA, 999, 999, 4, 16, 193, 103, 98, 100, 112, 124, 2, 0.435437
219, 6, bw, attraction, a-b-db, 14, 3, 4, 17, 195, 120, 120, 195, 111, 181, 2, 1.25578
219, 6, bw, attraction, a-b-db, 14, 3, 4, 17, 195, 120, 120, 195, 111, 181, 3, 0.316227
219, 6, bw, attraction, a-b-db, 9, 3, 4, 18, 114, 186, 195, 120, 120, 195, 2, 2.89322
219, 6, bw, attraction, a-b-db, 9, 3, 4, 18, 114, 186, 195, 120, 120, 195, 1, 0.607539
219, 6, bw, attraction, a-b-da, 2, 3, 4, 19, 193, 119, 120, 195, 195, 120, 2, 2.61269
219, 6, bw, attraction, a-b-da, 2, 3, 4, 19, 193, 119, 120, 195, 195, 120, 3, 1.54663
219, 6, bw, attraction, a-b-da, 5, 3, 4, 20, 195, 120, 120, 195, 190, 117, 1, 2.62599
219, 6, bw, attraction, a-b-da, 5, 3, 4, 20, 195, 120, 120, 195, 190, 117, 3, 0.647158
219, 6, bw, filler, NA, 999, 999, 4, 21, 119, 154, 79, 130, 134, 127, 1, 2.3709
219, 6, bw, filler, NA, 999, 999, 4, 21, 119, 154, 79, 130, 134, 127, 2, 0.594779
219, 6, bw, attraction, a-b-db, 2, 1, 4, 22, 60, 135, 135, 60, 59, 134, 2, 2.02458
219, 6, bw, attraction, a-b-db, 2, 1, 4, 22, 60, 135, 135, 60, 59, 134, 1, 0.909838
219, 6, bw, attraction, a-b-db, 5, 1, 4, 23, 135, 60, 60, 135, 58, 132, 1, 1.87895
219, 6, bw, attraction, a-b-db, 5, 1, 4, 23, 135, 60, 60, 135, 58, 132, 2, 0.362184
219, 6, bw, attraction, a-b-da, 5, 1, 4, 24, 132, 58, 135, 60, 60, 135, 1, 3.16137
219, 6, bw, attraction, a-b-da, 5, 1, 4, 24, 132, 58, 135, 60, 60, 135, 3, 0.497065
219, 6, bw, filler, NA, 999, 999, 4, 25, 142, 92, 97, 111, 165, 73, 2, 1.61883
219, 6, bw, filler, NA, 999, 999, 4, 25, 142, 92, 97, 111, 165, 73, 1, 0.672957
219, 6, bw, attraction, a-b-da, 14, 1, 4, 26, 125, 56, 135, 60, 60, 135, 2, 2.03544
219, 6, bw, attraction, a-b-da, 14, 1, 4, 26, 125, 56, 135, 60, 60, 135, 1, 0.344699
219, 6, bw, filler, NA, 999, 999, 4, 27, 90, 112, 61, 187, 153, 163, 3, 1.35266
219, 6, bw, filler, NA, 999, 999, 4, 27, 90, 112, 61, 187, 153, 163, 2, 1.0174
219, 6, bw, attraction, a-b-db, 9, 2, 4, 28, 165, 90, 90, 165, 86, 157, 1, 1.58241
219, 6, bw, attraction, a-b-db, 9, 2, 4, 28, 165, 90, 90, 165, 86, 157, 3, 0.429819
219, 6, bw, attraction, a-b-db, 2, 2, 4, 29, 89, 163, 90, 165, 165, 90, 3, 1.49037
219, 6, bw, attraction, a-b-db, 2, 2, 4, 29, 89, 163, 90, 165, 165, 90, 1, 1.12517
219, 6, bw, catch, NA, 999, 999, 4, 30, 66, 129, 162, 93, 148, 167, 3, 0.81342
219, 6, bw, catch, NA, 999, 999, 4, 30, 66, 129, 162, 93, 148, 167, 1, 0.451837
219, 6, bw, filler, NA, 999, 999, 4, 31, 164, 144, 187, 133, 134, 176, 2, 1.31965
219, 6, bw, filler, NA, 999, 999, 4, 31, 164, 144, 187, 133, 134, 176, 1, 0.561905
219, 6, bw, filler, NA, 999, 999, 4, 32, 171, 129, 66, 94, 146, 65, 1, 0.664922
219, 6, bw, filler, NA, 999, 999, 4, 32, 171, 129, 66, 94, 146, 65, 2, 0.189362
219, 6, bw, attraction, a-b-da, 9, 3, 4, 33, 186, 114, 120, 195, 195, 120, 3, 0.763221
219, 6, bw, attraction, a-b-da, 9, 3, 4, 33, 186, 114, 120, 195, 195, 120, 2, 0.179594
219, 6, bw, filler, NA, 999, 999, 4, 34, 168, 104, 131, 69, 106, 181, 3, 1.45014
219, 6, bw, filler, NA, 999, 999, 4, 34, 168, 104, 131, 69, 106, 181, 2, 0.158996
219, 6, bw, attraction, a-b-db, 14, 2, 4, 35, 83, 153, 165, 90, 90, 165, 2, 1.45424
219, 6, bw, attraction, a-b-db, 14, 2, 4, 35, 83, 153, 165, 90, 90, 165, 1, 0.290392
219, 6, bw, attraction, a-b-da, 14, 2, 4, 36, 90, 165, 153, 83, 165, 90, 3, 0.916392
219, 6, bw, attraction, a-b-da, 14, 2, 4, 36, 90, 165, 153, 83, 165, 90, 2, 0.27068
219, 6, bw, attraction, a-b-da, 5, 2, 4, 37, 161, 88, 165, 90, 90, 165, 3, 1.36988
219, 6, bw, attraction, a-b-da, 5, 2, 4, 37, 161, 88, 165, 90, 90, 165, 2, 0.306057
219, 6, bw, filler, NA, 999, 999, 5, 1, 178, 83, 174, 181, 59, 117, 2, 5.2659
219, 6, bw, filler, NA, 999, 999, 5, 1, 178, 83, 174, 181, 59, 117, 3, 0.460855
219, 6, bw, attraction, a-b-da, 5, 1, 5, 2, 60, 135, 132, 58, 135, 60, 1, 1.08016
219, 6, bw, attraction, a-b-da, 5, 1, 5, 2, 60, 135, 132, 58, 135, 60, 2, 0.563635
219, 6, bw, attraction, a-b-db, 9, 3, 5, 3, 195, 120, 120, 195, 114, 186, 2, 1.49071
219, 6, bw, attraction, a-b-db, 9, 3, 5, 3, 195, 120, 120, 195, 114, 186, 3, 0.605585
219, 6, bw, attraction, a-b-db, 14, 2, 5, 4, 90, 165, 165, 90, 83, 153, 1, 1.77131
219, 6, bw, attraction, a-b-db, 14, 2, 5, 4, 90, 165, 165, 90, 83, 153, 3, 0.298884
219, 6, bw, attraction, a-b-da, 9, 2, 5, 5, 157, 86, 165, 90, 90, 165, 3, 0.964659
219, 6, bw, attraction, a-b-da, 9, 2, 5, 5, 157, 86, 165, 90, 90, 165, 2, 0.269007
219, 6, bw, attraction, a-b-da, 14, 3, 5, 6, 195, 120, 181, 111, 120, 195, 3, 0.888284
219, 6, bw, attraction, a-b-da, 14, 3, 5, 6, 195, 120, 181, 111, 120, 195, 2, 0.243146
219, 6, bw, filler, NA, 999, 999, 5, 7, 60, 137, 86, 85, 172, 109, 3, 0.599019
219, 6, bw, filler, NA, 999, 999, 5, 7, 60, 137, 86, 85, 172, 109, 2, 0.30215
219, 6, bw, filler, NA, 999, 999, 5, 8, 181, 159, 187, 178, 95, 65, 2, 0.903951
219, 6, bw, filler, NA, 999, 999, 5, 8, 181, 159, 187, 178, 95, 65, 3, 0.298342
219, 6, bw, filler, NA, 999, 999, 5, 9, 159, 162, 70, 168, 110, 145, 1, 0.884177
219, 6, bw, filler, NA, 999, 999, 5, 9, 159, 162, 70, 168, 110, 145, 2, 0.439962
219, 6, bw, catch, NA, 999, 999, 5, 10, 142, 173, 74, 121, 124, 131, 1, 0.747794
219, 6, bw, catch, NA, 999, 999, 5, 10, 142, 173, 74, 121, 124, 131, 2, 0.4688
219, 6, bw, attraction, a-b-da, 14, 2, 5, 11, 90, 165, 153, 83, 165, 90, 3, 0.75188
219, 6, bw, attraction, a-b-da, 14, 2, 5, 11, 90, 165, 153, 83, 165, 90, 2, 0.264963
219, 6, bw, attraction, a-b-db, 2, 1, 5, 12, 60, 135, 59, 134, 135, 60, 3, 1.04418
219, 6, bw, attraction, a-b-db, 2, 1, 5, 12, 60, 135, 59, 134, 135, 60, 2, 0.585109
219, 6, bw, attraction, a-b-db, 2, 3, 5, 13, 120, 195, 119, 193, 195, 120, 2, 1.10359
219, 6, bw, attraction, a-b-db, 2, 3, 5, 13, 120, 195, 119, 193, 195, 120, 1, 0.706548
219, 6, bw, attraction, a-b-db, 2, 2, 5, 14, 89, 163, 165, 90, 90, 165, 1, 1.41158
219, 6, bw, attraction, a-b-db, 2, 2, 5, 14, 89, 163, 165, 90, 90, 165, 3, 0.305882
219, 6, bw, filler, NA, 999, 999, 5, 15, 136, 90, 184, 127, 171, 181, 3, 0.779019
219, 6, bw, filler, NA, 999, 999, 5, 15, 136, 90, 184, 127, 171, 181, 1, 0.36271
219, 6, bw, attraction, a-b-da, 2, 3, 5, 16, 193, 119, 120, 195, 195, 120, 3, 0.817816
219, 6, bw, attraction, a-b-da, 2, 3, 5, 16, 193, 119, 120, 195, 195, 120, 2, 0.264276
219, 6, bw, attraction, a-b-da, 2, 1, 5, 17, 60, 135, 134, 59, 135, 60, 2, 1.77155
219, 6, bw, attraction, a-b-da, 2, 1, 5, 17, 60, 135, 134, 59, 135, 60, 1, 0.842847
219, 6, bw, attraction, a-b-db, 14, 1, 5, 18, 135, 60, 60, 135, 56, 125, 2, 1.19847
219, 6, bw, attraction, a-b-db, 14, 1, 5, 18, 135, 60, 60, 135, 56, 125, 3, 0.605428
219, 6, bw, filler, NA, 999, 999, 5, 19, 62, 86, 132, 72, 169, 150, 3, 0.691184
219, 6, bw, filler, NA, 999, 999, 5, 19, 62, 86, 132, 72, 169, 150, 1, 0.310382
219, 6, bw, attraction, a-b-db, 14, 3, 5, 20, 111, 181, 195, 120, 120, 195, 2, 1.39944
219, 6, bw, attraction, a-b-db, 14, 3, 5, 20, 111, 181, 195, 120, 120, 195, 1, 0.374451
219, 6, bw, filler, NA, 999, 999, 5, 21, 122, 118, 180, 102, 188, 69, 2, 1.47686
219, 6, bw, filler, NA, 999, 999, 5, 21, 122, 118, 180, 102, 188, 69, 1, 1.04049
219, 6, bw, catch, NA, 999, 999, 5, 22, 111, 144, 82, 113, 165, 150, 3, 0.476025
219, 6, bw, catch, NA, 999, 999, 5, 22, 111, 144, 82, 113, 165, 150, 2, 0.215737
219, 6, bw, attraction, a-b-da, 14, 1, 5, 23, 125, 56, 135, 60, 60, 135, 2, 0.748955
219, 6, bw, attraction, a-b-da, 14, 1, 5, 23, 125, 56, 135, 60, 60, 135, 3, 0.22206
219, 6, bw, attraction, a-b-da, 5, 2, 5, 24, 161, 88, 165, 90, 90, 165, 2, 1.22731
219, 6, bw, attraction, a-b-da, 5, 2, 5, 24, 161, 88, 165, 90, 90, 165, 1, 0.520937
219, 6, bw, filler, NA, 999, 999, 5, 25, 141, 60, 126, 92, 99, 159, 3, 0.593981
219, 6, bw, filler, NA, 999, 999, 5, 25, 141, 60, 126, 92, 99, 159, 1, 0.505108
219, 6, bw, attraction, a-b-da, 5, 3, 5, 26, 190, 117, 120, 195, 195, 120, 2, 0.994818
219, 6, bw, attraction, a-b-da, 5, 3, 5, 26, 190, 117, 120, 195, 195, 120, 1, 0.609797
219, 6, bw, filler, NA, 999, 999, 5, 27, 144, 191, 192, 125, 167, 188, 3, 0.791072
219, 6, bw, filler, NA, 999, 999, 5, 27, 144, 191, 192, 125, 167, 188, 2, 0.374103
219, 6, bw, attraction, a-b-da, 9, 1, 5, 28, 60, 135, 135, 60, 129, 57, 3, 0.988645
219, 6, bw, attraction, a-b-da, 9, 1, 5, 28, 60, 135, 135, 60, 129, 57, 2, 0.483453
219, 6, bw, attraction, a-b-db, 5, 1, 5, 29, 60, 135, 135, 60, 58, 132, 2, 1.42187
219, 6, bw, attraction, a-b-db, 5, 1, 5, 29, 60, 135, 135, 60, 58, 132, 3, 0.843464
219, 6, bw, attraction, a-b-da, 2, 2, 5, 30, 165, 90, 90, 165, 163, 89, 2, 1.28717
219, 6, bw, attraction, a-b-da, 2, 2, 5, 30, 165, 90, 90, 165, 163, 89, 3, 0.514706
219, 6, bw, attraction, a-b-db, 9, 2, 5, 31, 90, 165, 86, 157, 165, 90, 1, 1.32387
219, 6, bw, attraction, a-b-db, 9, 2, 5, 31, 90, 165, 86, 157, 165, 90, 2, 0.46137
219, 6, bw, attraction, a-b-db, 9, 1, 5, 32, 60, 135, 135, 60, 57, 129, 2, 1.39259
219, 6, bw, attraction, a-b-db, 9, 1, 5, 32, 60, 135, 135, 60, 57, 129, 3, 0.407448
219, 6, bw, filler, NA, 999, 999, 5, 33, 141, 73, 80, 118, 156, 158, 3, 0.932568
219, 6, bw, filler, NA, 999, 999, 5, 33, 141, 73, 80, 118, 156, 158, 2, 0.510265
219, 6, bw, attraction, a-b-db, 5, 2, 5, 34, 90, 165, 88, 161, 165, 90, 2, 1.62348
219, 6, bw, attraction, a-b-db, 5, 2, 5, 34, 90, 165, 88, 161, 165, 90, 3, 0.180841
219, 6, bw, attraction, a-b-db, 5, 3, 5, 35, 117, 190, 195, 120, 120, 195, 2, 1.68334
219, 6, bw, attraction, a-b-db, 5, 3, 5, 35, 117, 190, 195, 120, 120, 195, 3, 0.222796
219, 6, bw, catch, NA, 999, 999, 5, 36, 147, 108, 150, 165, 67, 128, 2, 1.26729
219, 6, bw, catch, NA, 999, 999, 5, 36, 147, 108, 150, 165, 67, 128, 3, 0.599629
219, 6, bw, attraction, a-b-da, 9, 3, 5, 37, 120, 195, 186, 114, 195, 120, 3, 2.07736
219, 6, bw, attraction, a-b-da, 9, 3, 5, 37, 120, 195, 186, 114, 195, 120, 2, 0.336703
219, 6, bw, attraction, a-b-da, 14, 3, 6, 1, 195, 120, 181, 111, 120, 195, 1, 2.25725
219, 6, bw, attraction, a-b-da, 14, 3, 6, 1, 195, 120, 181, 111, 120, 195, 2, 0.221105
219, 6, bw, attraction, a-b-db, 14, 3, 6, 2, 111, 181, 195, 120, 120, 195, 2, 1.69028
219, 6, bw, attraction, a-b-db, 14, 3, 6, 2, 111, 181, 195, 120, 120, 195, 1, 0.141108
219, 6, bw, filler, NA, 999, 999, 6, 3, 171, 113, 184, 106, 132, 86, 2, 1.14103
219, 6, bw, filler, NA, 999, 999, 6, 3, 171, 113, 184, 106, 132, 86, 3, 0.213974
219, 6, bw, filler, NA, 999, 999, 6, 4, 73, 177, 94, 70, 136, 104, 3, 0.963146
219, 6, bw, filler, NA, 999, 999, 6, 4, 73, 177, 94, 70, 136, 104, 2, 0.251591
219, 6, bw, attraction, a-b-da, 5, 1, 6, 5, 135, 60, 132, 58, 60, 135, 2, 2.27939
219, 6, bw, attraction, a-b-da, 5, 1, 6, 5, 135, 60, 132, 58, 60, 135, 3, 0.722669
219, 6, bw, attraction, a-b-db, 9, 1, 6, 6, 57, 129, 60, 135, 135, 60, 3, 1.27584
219, 6, bw, attraction, a-b-db, 9, 1, 6, 6, 57, 129, 60, 135, 135, 60, 2, 0.285798
219, 6, bw, filler, NA, 999, 999, 6, 7, 148, 114, 97, 100, 71, 97, 1, 0.857743
219, 6, bw, filler, NA, 999, 999, 6, 7, 148, 114, 97, 100, 71, 97, 3, 0.286241
219, 6, bw, catch, NA, 999, 999, 6, 8, 172, 143, 161, 94, 127, 68, 1, 1.32066
219, 6, bw, catch, NA, 999, 999, 6, 8, 172, 143, 161, 94, 127, 68, 3, 0.722343
219, 6, bw, filler, NA, 999, 999, 6, 9, 107, 134, 116, 141, 183, 102, 3, 0.731352
219, 6, bw, filler, NA, 999, 999, 6, 9, 107, 134, 116, 141, 183, 102, 2, 0.19706
219, 6, bw, attraction, a-b-db, 2, 3, 6, 10, 195, 120, 119, 193, 120, 195, 1, 1.05084
219, 6, bw, attraction, a-b-db, 2, 3, 6, 10, 195, 120, 119, 193, 120, 195, 2, 0.44282
219, 6, bw, attraction, a-b-db, 2, 2, 6, 11, 90, 165, 165, 90, 89, 163, 2, 2.09171
219, 6, bw, attraction, a-b-db, 2, 2, 6, 11, 90, 165, 165, 90, 89, 163, 3, 0.222269
219, 6, bw, attraction, a-b-da, 14, 1, 6, 12, 125, 56, 135, 60, 60, 135, 1, 1.15556
219, 6, bw, attraction, a-b-da, 14, 1, 6, 12, 125, 56, 135, 60, 60, 135, 3, 0.211928
219, 6, bw, attraction, a-b-da, 14, 2, 6, 13, 90, 165, 165, 90, 153, 83, 2, 2.18499
219, 6, bw, attraction, a-b-da, 14, 2, 6, 13, 90, 165, 165, 90, 153, 83, 3, 0.520265
219, 6, bw, attraction, a-b-db, 14, 2, 6, 14, 165, 90, 83, 153, 90, 165, 1, 1.35336
219, 6, bw, attraction, a-b-db, 14, 2, 6, 14, 165, 90, 83, 153, 90, 165, 2, 0.570266
219, 6, bw, catch, NA, 999, 999, 6, 15, 178, 137, 117, 78, 159, 96, 1, 0.649334
219, 6, bw, catch, NA, 999, 999, 6, 15, 178, 137, 117, 78, 159, 96, 2, 0.270458
219, 6, bw, filler, NA, 999, 999, 6, 16, 104, 142, 143, 119, 186, 106, 3, 0.729635
219, 6, bw, filler, NA, 999, 999, 6, 16, 104, 142, 143, 119, 186, 106, 1, 0.987412
219, 6, bw, attraction, a-b-da, 2, 1, 6, 17, 135, 60, 134, 59, 60, 135, 2, 1.10568
219, 6, bw, attraction, a-b-da, 2, 1, 6, 17, 135, 60, 134, 59, 60, 135, 3, 0.524005
219, 6, bw, filler, NA, 999, 999, 6, 18, 181, 81, 185, 164, 181, 169, 3, 1.30851
219, 6, bw, filler, NA, 999, 999, 6, 18, 181, 81, 185, 164, 181, 169, 1, 0.350637
219, 6, bw, attraction, a-b-db, 5, 3, 6, 19, 120, 195, 195, 120, 117, 190, 2, 1.20651
219, 6, bw, attraction, a-b-db, 5, 3, 6, 19, 120, 195, 195, 120, 117, 190, 1, 0.444741
219, 6, bw, attraction, a-b-da, 9, 3, 6, 20, 186, 114, 120, 195, 195, 120, 3, 1.3447
219, 6, bw, attraction, a-b-da, 9, 3, 6, 20, 186, 114, 120, 195, 195, 120, 2, 0.257654
219, 6, bw, attraction, a-b-db, 5, 2, 6, 21, 165, 90, 88, 161, 90, 165, 1, 1.39666
219, 6, bw, attraction, a-b-db, 5, 2, 6, 21, 165, 90, 88, 161, 90, 165, 2, 0.187571
219, 6, bw, attraction, a-b-da, 9, 1, 6, 22, 60, 135, 129, 57, 135, 60, 3, 0.802135
219, 6, bw, attraction, a-b-da, 9, 1, 6, 22, 60, 135, 129, 57, 135, 60, 2, 0.857202
219, 6, bw, attraction, a-b-db, 2, 1, 6, 23, 59, 134, 135, 60, 60, 135, 1, 1.98826
219, 6, bw, attraction, a-b-db, 2, 1, 6, 23, 59, 134, 135, 60, 60, 135, 2, 0.530864
219, 6, bw, attraction, a-b-da, 5, 2, 6, 24, 165, 90, 90, 165, 161, 88, 1, 1.41932
219, 6, bw, attraction, a-b-da, 5, 2, 6, 24, 165, 90, 90, 165, 161, 88, 2, 0.273498
219, 6, bw, attraction, a-b-db, 9, 3, 6, 25, 114, 186, 195, 120, 120, 195, 2, 1.54807
219, 6, bw, attraction, a-b-db, 9, 3, 6, 25, 114, 186, 195, 120, 120, 195, 1, 0.492865
219, 6, bw, attraction, a-b-da, 5, 3, 6, 26, 120, 195, 190, 117, 195, 120, 2, 2.88666
219, 6, bw, attraction, a-b-da, 5, 3, 6, 26, 120, 195, 190, 117, 195, 120, 1, 0.329702
219, 6, bw, filler, NA, 999, 999, 6, 27, 137, 82, 170, 116, 181, 101, 2, 2.89054
219, 6, bw, filler, NA, 999, 999, 6, 27, 137, 82, 170, 116, 181, 101, 1, 0.196592
219, 6, bw, filler, NA, 999, 999, 6, 28, 59, 92, 147, 166, 60, 69, 2, 0.898427
219, 6, bw, filler, NA, 999, 999, 6, 28, 59, 92, 147, 166, 60, 69, 3, 1.0136
219, 6, bw, catch, NA, 999, 999, 6, 29, 118, 77, 140, 175, 114, 141, 2, 0.874511
219, 6, bw, catch, NA, 999, 999, 6, 29, 118, 77, 140, 175, 114, 141, 1, 0.470225
219, 6, bw, attraction, a-b-db, 5, 1, 6, 30, 58, 132, 60, 135, 135, 60, 3, 1.12936
219, 6, bw, attraction, a-b-db, 5, 1, 6, 30, 58, 132, 60, 135, 135, 60, 2, 0.458958
219, 6, bw, attraction, a-b-da, 2, 2, 6, 31, 165, 90, 163, 89, 90, 165, 1, 1.174
219, 6, bw, attraction, a-b-da, 2, 2, 6, 31, 165, 90, 163, 89, 90, 165, 2, 0.437627
219, 6, bw, attraction, a-b-db, 9, 2, 6, 32, 90, 165, 86, 157, 165, 90, 1, 1.59411
219, 6, bw, attraction, a-b-db, 9, 2, 6, 32, 90, 165, 86, 157, 165, 90, 2, 0.368979
219, 6, bw, attraction, a-b-da, 9, 2, 6, 33, 165, 90, 90, 165, 157, 86, 1, 1.00799
219, 6, bw, attraction, a-b-da, 9, 2, 6, 33, 165, 90, 90, 165, 157, 86, 3, 0.542515
219, 6, bw, filler, NA, 999, 999, 6, 34, 118, 133, 71, 75, 179, 148, 3, 0.822304
219, 6, bw, filler, NA, 999, 999, 6, 34, 118, 133, 71, 75, 179, 148, 2, 0.395871
219, 6, bw, attraction, a-b-da, 2, 3, 6, 35, 120, 195, 195, 120, 193, 119, 1, 2.01769
219, 6, bw, attraction, a-b-da, 2, 3, 6, 35, 120, 195, 195, 120, 193, 119, 3, 1.54375
219, 6, bw, filler, NA, 999, 999, 6, 36, 130, 135, 94, 110, 176, 149, 3, 0.775171
219, 6, bw, filler, NA, 999, 999, 6, 36, 130, 135, 94, 110, 176, 149, 2, 0.254958
219, 6, bw, attraction, a-b-db, 14, 1, 6, 37, 60, 135, 56, 125, 135, 60, 3, 1.21078
219, 6, bw, attraction, a-b-db, 14, 1, 6, 37, 60, 135, 56, 125, 135, 60, 2, 0.433062
219, 6, bw, attraction, a-b-db, 9, 1, 7, 1, 60, 135, 57, 129, 135, 60, 3, 1.04555
219, 6, bw, attraction, a-b-db, 9, 1, 7, 1, 60, 135, 57, 129, 135, 60, 2, 0.410489
219, 6, bw, attraction, a-b-db, 14, 2, 7, 2, 90, 165, 83, 153, 165, 90, 1, 1.43166
219, 6, bw, attraction, a-b-db, 14, 2, 7, 2, 90, 165, 83, 153, 165, 90, 2, 0.341321
219, 6, bw, attraction, a-b-db, 5, 3, 7, 3, 195, 120, 120, 195, 117, 190, 2, 1.70903
219, 6, bw, attraction, a-b-db, 5, 3, 7, 3, 195, 120, 120, 195, 117, 190, 3, 0.439107
219, 6, bw, attraction, a-b-db, 5, 2, 7, 4, 88, 161, 90, 165, 165, 90, 2, 1.69157
219, 6, bw, attraction, a-b-db, 5, 2, 7, 4, 88, 161, 90, 165, 165, 90, 1, 0.558315
219, 6, bw, filler, NA, 999, 999, 7, 5, 165, 87, 132, 86, 147, 86, 1, 1.30141
219, 6, bw, filler, NA, 999, 999, 7, 5, 165, 87, 132, 86, 147, 86, 2, 0.288519
219, 6, bw, attraction, a-b-da, 5, 2, 7, 6, 161, 88, 165, 90, 90, 165, 2, 1.29099
219, 6, bw, attraction, a-b-da, 5, 2, 7, 6, 161, 88, 165, 90, 90, 165, 1, 0.325777
219, 6, bw, catch, NA, 999, 999, 7, 7, 94, 101, 183, 132, 117, 138, 2, 1.28629
219, 6, bw, catch, NA, 999, 999, 7, 7, 94, 101, 183, 132, 117, 138, 1, 0.505799
219, 6, bw, attraction, a-b-da, 14, 1, 7, 8, 125, 56, 60, 135, 135, 60, 3, 1.70767
219, 6, bw, attraction, a-b-da, 14, 1, 7, 8, 125, 56, 60, 135, 135, 60, 2, 0.605672
219, 6, bw, filler, NA, 999, 999, 7, 9, 184, 135, 153, 67, 70, 73, 1, 0.931448
219, 6, bw, filler, NA, 999, 999, 7, 9, 184, 135, 153, 67, 70, 73, 3, 0.349162
219, 6, bw, attraction, a-b-db, 2, 2, 7, 10, 165, 90, 89, 163, 90, 165, 2, 2.573
219, 6, bw, attraction, a-b-db, 2, 2, 7, 10, 165, 90, 89, 163, 90, 165, 1, 0.556144
219, 6, bw, attraction, a-b-db, 14, 3, 7, 11, 111, 181, 195, 120, 120, 195, 3, 1.92322
219, 6, bw, attraction, a-b-db, 14, 3, 7, 11, 111, 181, 195, 120, 120, 195, 1, 2.45265
219, 6, bw, filler, NA, 999, 999, 7, 12, 116, 137, 143, 192, 142, 151, 2, 1.65584
219, 6, bw, filler, NA, 999, 999, 7, 12, 116, 137, 143, 192, 142, 151, 1, 0.355941
219, 6, bw, attraction, a-b-da, 14, 3, 7, 13, 120, 195, 181, 111, 195, 120, 1, 1.29909
219, 6, bw, attraction, a-b-da, 14, 3, 7, 13, 120, 195, 181, 111, 195, 120, 2, 0.421979
219, 6, bw, attraction, a-b-db, 9, 2, 7, 14, 86, 157, 165, 90, 90, 165, 3, 1.62716
219, 6, bw, attraction, a-b-db, 9, 2, 7, 14, 86, 157, 165, 90, 90, 165, 2, 0.216558
219, 6, bw, catch, NA, 999, 999, 7, 15, 189, 126, 153, 102, 76, 119, 1, 1.66995
219, 6, bw, catch, NA, 999, 999, 7, 15, 189, 126, 153, 102, 76, 119, 3, 0.257357
219, 6, bw, filler, NA, 999, 999, 7, 16, 130, 107, 137, 180, 145, 84, 2, 1.22847
219, 6, bw, filler, NA, 999, 999, 7, 16, 130, 107, 137, 180, 145, 84, 3, 0.946109
219, 6, bw, attraction, a-b-da, 14, 2, 7, 17, 90, 165, 165, 90, 153, 83, 1, 3.72173
219, 6, bw, attraction, a-b-da, 14, 2, 7, 17, 90, 165, 165, 90, 153, 83, 3, 0.66645
219, 6, bw, attraction, a-b-da, 5, 1, 7, 18, 60, 135, 132, 58, 135, 60, 1, 1.39766
219, 6, bw, attraction, a-b-da, 5, 1, 7, 18, 60, 135, 132, 58, 135, 60, 2, 0.868501
219, 6, bw, attraction, a-b-da, 5, 3, 7, 19, 190, 117, 195, 120, 120, 195, 3, 1.66344
219, 6, bw, attraction, a-b-da, 5, 3, 7, 19, 190, 117, 195, 120, 120, 195, 2, 0.275662
219, 6, bw, attraction, a-b-db, 9, 3, 7, 20, 195, 120, 120, 195, 114, 186, 2, 2.98211
219, 6, bw, attraction, a-b-db, 9, 3, 7, 20, 195, 120, 120, 195, 114, 186, 3, 0.277139
219, 6, bw, catch, NA, 999, 999, 7, 21, 130, 125, 157, 158, 72, 123, 2, 2.71962
219, 6, bw, catch, NA, 999, 999, 7, 21, 130, 125, 157, 158, 72, 123, 3, 0.353435
219, 6, bw, attraction, a-b-db, 2, 1, 7, 22, 135, 60, 59, 134, 60, 135, 1, 2.08131
219, 6, bw, attraction, a-b-db, 2, 1, 7, 22, 135, 60, 59, 134, 60, 135, 2, 0.644616
219, 6, bw, attraction, a-b-db, 14, 1, 7, 23, 56, 125, 60, 135, 135, 60, 3, 1.96835
219, 6, bw, attraction, a-b-db, 14, 1, 7, 23, 56, 125, 60, 135, 135, 60, 1, 0.56051
219, 6, bw, attraction, a-b-da, 2, 2, 7, 24, 163, 89, 90, 165, 165, 90, 2, 2.1195
219, 6, bw, attraction, a-b-da, 2, 2, 7, 24, 163, 89, 90, 165, 165, 90, 3, 0.641438
219, 6, bw, attraction, a-b-db, 2, 3, 7, 25, 120, 195, 195, 120, 119, 193, 2, 1.74918
219, 6, bw, attraction, a-b-db, 2, 3, 7, 25, 120, 195, 195, 120, 119, 193, 1, 1.09401
219, 6, bw, attraction, a-b-da, 2, 1, 7, 26, 134, 59, 135, 60, 60, 135, 3, 1.96761
219, 6, bw, attraction, a-b-da, 2, 1, 7, 26, 134, 59, 135, 60, 60, 135, 2, 0.895526
219, 6, bw, attraction, a-b-da, 9, 2, 7, 27, 157, 86, 165, 90, 90, 165, 3, 1.80921
219, 6, bw, attraction, a-b-da, 9, 2, 7, 27, 157, 86, 165, 90, 90, 165, 2, 0.495304
219, 6, bw, filler, NA, 999, 999, 7, 28, 99, 60, 93, 141, 144, 62, 2, 1.59313
219, 6, bw, filler, NA, 999, 999, 7, 28, 99, 60, 93, 141, 144, 62, 1, 0.327904
219, 6, bw, filler, NA, 999, 999, 7, 29, 138, 134, 86, 83, 66, 71, 1, 0.632383
219, 6, bw, filler, NA, 999, 999, 7, 29, 138, 134, 86, 83, 66, 71, 3, 0.366164
219, 6, bw, attraction, a-b-da, 9, 3, 7, 30, 186, 114, 120, 195, 195, 120, 3, 0.781296
219, 6, bw, attraction, a-b-da, 9, 3, 7, 30, 186, 114, 120, 195, 195, 120, 2, 0.269094
219, 6, bw, attraction, a-b-da, 2, 3, 7, 31, 195, 120, 120, 195, 193, 119, 3, 0.784219
219, 6, bw, attraction, a-b-da, 2, 3, 7, 31, 195, 120, 120, 195, 193, 119, 2, 0.303913
219, 6, bw, filler, NA, 999, 999, 7, 32, 115, 153, 195, 183, 178, 114, 2, 1.56988
219, 6, bw, filler, NA, 999, 999, 7, 32, 115, 153, 195, 183, 178, 114, 1, 0.21812
219, 6, bw, filler, NA, 999, 999, 7, 33, 93, 100, 63, 160, 82, 145, 3, 1.55127
219, 6, bw, filler, NA, 999, 999, 7, 33, 93, 100, 63, 160, 82, 145, 1, 1.1441
219, 6, bw, attraction, a-b-da, 9, 1, 7, 34, 129, 57, 60, 135, 135, 60, 3, 1.53558
219, 6, bw, attraction, a-b-da, 9, 1, 7, 34, 129, 57, 60, 135, 135, 60, 2, 0.345171
219, 6, bw, filler, NA, 999, 999, 7, 35, 142, 184, 89, 148, 191, 159, 3, 1.90491
219, 6, bw, filler, NA, 999, 999, 7, 35, 142, 184, 89, 148, 191, 159, 2, 0.314976
219, 6, bw, attraction, a-b-db, 5, 1, 7, 36, 135, 60, 60, 135, 58, 132, 3, 1.64417
219, 6, bw, attraction, a-b-db, 5, 1, 7, 36, 135, 60, 60, 135, 58, 132, 1, 0.552972
219, 6, bw, filler, NA, 999, 999, 7, 37, 58, 128, 135, 87, 179, 143, 3, 1.4728
219, 6, bw, filler, NA, 999, 999, 7, 37, 58, 128, 135, 87, 179, 143, 1, 0.358984
219, 6, bw, attraction, a-b-da, 2, 3, 8, 1, 195, 120, 120, 195, 193, 119, 2, 2.98741
219, 6, bw, attraction, a-b-da, 2, 3, 8, 1, 195, 120, 120, 195, 193, 119, 1, 0.810386
219, 6, bw, filler, NA, 999, 999, 8, 2, 114, 116, 147, 60, 173, 159, 3, 0.775411
219, 6, bw, filler, NA, 999, 999, 8, 2, 114, 116, 147, 60, 173, 159, 1, 0.29511
219, 6, bw, filler, NA, 999, 999, 8, 3, 70, 86, 117, 101, 83, 178, 3, 2.16104
219, 6, bw, filler, NA, 999, 999, 8, 3, 70, 86, 117, 101, 83, 178, 1, 0.43311
219, 6, bw, filler, NA, 999, 999, 8, 4, 101, 58, 121, 174, 133, 73, 2, 1.62952
219, 6, bw, filler, NA, 999, 999, 8, 4, 101, 58, 121, 174, 133, 73, 1, 0.890857
219, 6, bw, attraction, a-b-da, 5, 2, 8, 5, 90, 165, 165, 90, 161, 88, 1, 2.72466
219, 6, bw, attraction, a-b-da, 5, 2, 8, 5, 90, 165, 165, 90, 161, 88, 2, 0.613827
219, 6, bw, attraction, a-b-da, 2, 1, 8, 6, 60, 135, 134, 59, 135, 60, 2, 3.37079
219, 6, bw, attraction, a-b-da, 2, 1, 8, 6, 60, 135, 134, 59, 135, 60, 1, 0.313819
219, 6, bw, attraction, a-b-db, 5, 2, 8, 7, 165, 90, 88, 161, 90, 165, 2, 1.475
219, 6, bw, attraction, a-b-db, 5, 2, 8, 7, 165, 90, 88, 161, 90, 165, 1, 0.286347
219, 6, bw, filler, NA, 999, 999, 8, 8, 145, 189, 99, 114, 71, 186, 1, 1.41687
219, 6, bw, filler, NA, 999, 999, 8, 8, 145, 189, 99, 114, 71, 186, 2, 0.199281
219, 6, bw, filler, NA, 999, 999, 8, 9, 123, 92, 158, 161, 164, 112, 2, 1.47691
219, 6, bw, filler, NA, 999, 999, 8, 9, 123, 92, 158, 161, 164, 112, 1, 0.25268
219, 6, bw, attraction, a-b-db, 14, 3, 8, 10, 120, 195, 195, 120, 111, 181, 2, 1.48434
219, 6, bw, attraction, a-b-db, 14, 3, 8, 10, 120, 195, 195, 120, 111, 181, 1, 0.167807
219, 6, bw, filler, NA, 999, 999, 8, 11, 124, 142, 164, 76, 122, 148, 3, 1.16717
219, 6, bw, filler, NA, 999, 999, 8, 11, 124, 142, 164, 76, 122, 148, 2, 0.215447
219, 6, bw, catch, NA, 999, 999, 8, 12, 113, 82, 182, 133, 117, 138, 2, 1.63663
219, 6, bw, catch, NA, 999, 999, 8, 12, 113, 82, 182, 133, 117, 138, 1, 0.801369
219, 6, bw, catch, NA, 999, 999, 8, 13, 120, 75, 165, 90, 150, 165, 3, 0.863091
219, 6, bw, catch, NA, 999, 999, 8, 13, 120, 75, 165, 90, 150, 165, 1, 0.307513
219, 6, bw, attraction, a-b-da, 14, 2, 8, 14, 153, 83, 165, 90, 90, 165, 3, 0.868639
219, 6, bw, attraction, a-b-da, 14, 2, 8, 14, 153, 83, 165, 90, 90, 165, 1, 0.329083
219, 6, bw, attraction, a-b-da, 5, 3, 8, 15, 190, 117, 195, 120, 120, 195, 3, 0.945507
219, 6, bw, attraction, a-b-da, 5, 3, 8, 15, 190, 117, 195, 120, 120, 195, 2, 0.434475
219, 6, bw, attraction, a-b-da, 9, 2, 8, 16, 90, 165, 157, 86, 165, 90, 1, 0.790962
219, 6, bw, attraction, a-b-da, 9, 2, 8, 16, 90, 165, 157, 86, 165, 90, 2, 0.245944
219, 6, bw, attraction, a-b-db, 5, 3, 8, 17, 117, 190, 120, 195, 195, 120, 3, 0.809859
219, 6, bw, attraction, a-b-db, 5, 3, 8, 17, 117, 190, 120, 195, 195, 120, 2, 0.280202
219, 6, bw, filler, NA, 999, 999, 8, 18, 60, 182, 133, 60, 176, 79, 3, 1.05086
219, 6, bw, filler, NA, 999, 999, 8, 18, 60, 182, 133, 60, 176, 79, 1, 0.287797
219, 6, bw, attraction, a-b-da, 2, 2, 8, 19, 163, 89, 90, 165, 165, 90, 2, 1.1623
219, 6, bw, attraction, a-b-da, 2, 2, 8, 19, 163, 89, 90, 165, 165, 90, 1, 0.602998
219, 6, bw, attraction, a-b-da, 9, 3, 8, 20, 195, 120, 186, 114, 120, 195, 3, 1.1604
219, 6, bw, attraction, a-b-da, 9, 3, 8, 20, 195, 120, 186, 114, 120, 195, 1, 0.896594
219, 6, bw, attraction, a-b-db, 9, 3, 8, 21, 195, 120, 114, 186, 120, 195, 3, 1.14626
219, 6, bw, attraction, a-b-db, 9, 3, 8, 21, 195, 120, 114, 186, 120, 195, 1, 0.739199
219, 6, bw, filler, NA, 999, 999, 8, 22, 175, 158, 143, 195, 68, 81, 1, 1.82776
219, 6, bw, filler, NA, 999, 999, 8, 22, 175, 158, 143, 195, 68, 81, 3, 0.585089
219, 6, bw, attraction, a-b-db, 9, 1, 8, 23, 135, 60, 57, 129, 60, 135, 1, 1.17542
219, 6, bw, attraction, a-b-db, 9, 1, 8, 23, 135, 60, 57, 129, 60, 135, 2, 0.383165
219, 6, bw, attraction, a-b-da, 5, 1, 8, 24, 135, 60, 60, 135, 132, 58, 1, 1.30952
219, 6, bw, attraction, a-b-da, 5, 1, 8, 24, 135, 60, 60, 135, 132, 58, 2, 0.383713
219, 6, bw, attraction, a-b-db, 9, 2, 8, 25, 165, 90, 86, 157, 90, 165, 2, 1.27824
219, 6, bw, attraction, a-b-db, 9, 2, 8, 25, 165, 90, 86, 157, 90, 165, 1, 0.353923
219, 6, bw, catch, NA, 999, 999, 8, 26, 191, 124, 86, 109, 116, 139, 1, 0.67372
219, 6, bw, catch, NA, 999, 999, 8, 26, 191, 124, 86, 109, 116, 139, 2, 0.34141
219, 6, bw, attraction, a-b-da, 9, 1, 8, 27, 129, 57, 135, 60, 60, 135, 2, 0.79724
219, 6, bw, attraction, a-b-da, 9, 1, 8, 27, 129, 57, 135, 60, 60, 135, 3, 0.556285
219, 6, bw, attraction, a-b-db, 2, 1, 8, 28, 60, 135, 135, 60, 59, 134, 1, 1.20345
219, 6, bw, attraction, a-b-db, 2, 1, 8, 28, 60, 135, 135, 60, 59, 134, 2, 0.515102
219, 6, bw, filler, NA, 999, 999, 8, 29, 149, 65, 77, 154, 141, 169, 3, 0.579402
219, 6, bw, filler, NA, 999, 999, 8, 29, 149, 65, 77, 154, 141, 169, 1, 1.2512
219, 6, bw, attraction, a-b-da, 14, 3, 8, 30, 181, 111, 195, 120, 120, 195, 2, 1.57486
219, 6, bw, attraction, a-b-da, 14, 3, 8, 30, 181, 111, 195, 120, 120, 195, 1, 0.430192
219, 6, bw, attraction, a-b-db, 2, 3, 8, 31, 119, 193, 195, 120, 120, 195, 3, 0.962755
219, 6, bw, attraction, a-b-db, 2, 3, 8, 31, 119, 193, 195, 120, 120, 195, 2, 0.211017
219, 6, bw, attraction, a-b-db, 14, 1, 8, 32, 60, 135, 135, 60, 56, 125, 1, 0.688244
219, 6, bw, attraction, a-b-db, 14, 1, 8, 32, 60, 135, 135, 60, 56, 125, 2, 0.595406
219, 6, bw, filler, NA, 999, 999, 8, 33, 162, 187, 80, 153, 56, 127, 1, 0.833115
219, 6, bw, filler, NA, 999, 999, 8, 33, 162, 187, 80, 153, 56, 127, 2, 0.254857
219, 6, bw, attraction, a-b-da, 14, 1, 8, 34, 135, 60, 125, 56, 60, 135, 2, 1.31484
219, 6, bw, attraction, a-b-da, 14, 1, 8, 34, 135, 60, 125, 56, 60, 135, 1, 0.588933
219, 6, bw, attraction, a-b-db, 14, 2, 8, 35, 165, 90, 90, 165, 83, 153, 2, 0.99548
219, 6, bw, attraction, a-b-db, 14, 2, 8, 35, 165, 90, 90, 165, 83, 153, 1, 0.378354
219, 6, bw, attraction, a-b-db, 2, 2, 8, 36, 90, 165, 165, 90, 89, 163, 1, 0.760845
219, 6, bw, attraction, a-b-db, 2, 2, 8, 36, 90, 165, 165, 90, 89, 163, 2, 0.265262
219, 6, bw, attraction, a-b-db, 5, 1, 8, 37, 60, 135, 135, 60, 58, 132, 3, 0.564401
219, 6, bw, attraction, a-b-db, 5, 1, 8, 37, 60, 135, 135, 60, 58, 132, 2, 0.293052
