sub_n, computer_n, bw_cond, effect, set, distance, diag, block_n, trial_n, h1, w1, h2, w2, h3, w3, choice, rt 
240, 6, wb, practice, NA, 999, 999, 0, 1, 97, 184, 80, 172, 106, 182, 2, 5.75124
240, 6, wb, practice, NA, 999, 999, 0, 1, 97, 184, 80, 172, 106, 182, 3, 1.32597
240, 6, wb, practice, NA, 999, 999, 0, 2, 136, 120, 132, 102, 62, 165, 3, 6.53296
240, 6, wb, practice, NA, 999, 999, 0, 2, 136, 120, 132, 102, 62, 165, 1, 0.866362
240, 6, wb, practice, NA, 999, 999, 0, 3, 180, 175, 63, 97, 157, 179, 2, 2.41198
240, 6, wb, practice, NA, 999, 999, 0, 3, 180, 175, 63, 97, 157, 179, 1, 1.93003
240, 6, wb, attraction, a-b-db, 14, 2, 1, 1, 165, 90, 90, 165, 83, 153, 3, 2.31353
240, 6, wb, attraction, a-b-db, 14, 2, 1, 1, 165, 90, 90, 165, 83, 153, 2, 2.73948
240, 6, wb, attraction, a-b-da, 5, 2, 1, 2, 165, 90, 161, 88, 90, 165, 1, 3.69907
240, 6, wb, attraction, a-b-da, 5, 2, 1, 2, 165, 90, 161, 88, 90, 165, 3, 1.2612
240, 6, wb, catch, NA, 999, 999, 1, 3, 95, 160, 141, 174, 126, 69, 3, 1.64008
240, 6, wb, catch, NA, 999, 999, 1, 3, 95, 160, 141, 174, 126, 69, 2, 0.796829
240, 6, wb, filler, NA, 999, 999, 1, 4, 106, 135, 71, 89, 108, 149, 2, 1.25856
240, 6, wb, filler, NA, 999, 999, 1, 4, 106, 135, 71, 89, 108, 149, 3, 1.23888
240, 6, wb, attraction, a-b-da, 5, 3, 1, 5, 190, 117, 195, 120, 120, 195, 3, 3.74703
240, 6, wb, attraction, a-b-da, 5, 3, 1, 5, 190, 117, 195, 120, 120, 195, 2, 2.3072
240, 6, wb, attraction, a-b-db, 5, 3, 1, 6, 195, 120, 120, 195, 117, 190, 3, 5.89975
240, 6, wb, attraction, a-b-db, 5, 3, 1, 6, 195, 120, 120, 195, 117, 190, 2, 1.94918
240, 6, wb, attraction, a-b-db, 2, 1, 1, 7, 60, 135, 135, 60, 59, 134, 1, 5.86068
240, 6, wb, attraction, a-b-db, 2, 1, 1, 7, 60, 135, 135, 60, 59, 134, 2, 1.41538
240, 6, wb, attraction, a-b-da, 5, 1, 1, 8, 135, 60, 60, 135, 132, 58, 3, 2.91622
240, 6, wb, attraction, a-b-da, 5, 1, 1, 8, 135, 60, 60, 135, 132, 58, 2, 0.84592
240, 6, wb, filler, NA, 999, 999, 1, 9, 190, 138, 58, 66, 62, 124, 2, 1.08163
240, 6, wb, filler, NA, 999, 999, 1, 9, 190, 138, 58, 66, 62, 124, 1, 1.26125
240, 6, wb, filler, NA, 999, 999, 1, 10, 158, 121, 75, 131, 82, 158, 2, 1.64015
240, 6, wb, filler, NA, 999, 999, 1, 10, 158, 121, 75, 131, 82, 158, 1, 0.588906
240, 6, wb, filler, NA, 999, 999, 1, 11, 67, 90, 153, 93, 110, 98, 1, 1.33134
240, 6, wb, filler, NA, 999, 999, 1, 11, 67, 90, 153, 93, 110, 98, 2, 0.684923
240, 6, wb, attraction, a-b-da, 9, 3, 1, 12, 186, 114, 120, 195, 195, 120, 1, 14.2873
240, 6, wb, attraction, a-b-da, 9, 3, 1, 12, 186, 114, 120, 195, 195, 120, 2, 0.65482
240, 6, wb, filler, NA, 999, 999, 1, 13, 103, 125, 59, 93, 133, 155, 2, 0.93053
240, 6, wb, filler, NA, 999, 999, 1, 13, 103, 125, 59, 93, 133, 155, 3, 0.388182
240, 6, wb, attraction, a-b-db, 14, 3, 1, 14, 120, 195, 195, 120, 111, 181, 3, 1.85875
240, 6, wb, attraction, a-b-db, 14, 3, 1, 14, 120, 195, 195, 120, 111, 181, 2, 0.382822
240, 6, wb, catch, NA, 999, 999, 1, 15, 120, 135, 195, 120, 133, 62, 3, 1.01326
240, 6, wb, catch, NA, 999, 999, 1, 15, 120, 135, 195, 120, 133, 62, 2, 0.515533
240, 6, wb, attraction, a-b-da, 2, 2, 1, 16, 90, 165, 163, 89, 165, 90, 1, 2.28463
240, 6, wb, attraction, a-b-da, 2, 2, 1, 16, 90, 165, 163, 89, 165, 90, 3, 0.880087
240, 6, wb, catch, NA, 999, 999, 1, 17, 143, 112, 166, 149, 130, 65, 3, 1.6743
240, 6, wb, catch, NA, 999, 999, 1, 17, 143, 112, 166, 149, 130, 65, 2, 0.477702
240, 6, wb, attraction, a-b-db, 5, 1, 1, 18, 60, 135, 58, 132, 135, 60, 3, 1.62415
240, 6, wb, attraction, a-b-db, 5, 1, 1, 18, 60, 135, 58, 132, 135, 60, 2, 0.557616
240, 6, wb, attraction, a-b-da, 9, 1, 1, 19, 129, 57, 60, 135, 135, 60, 3, 1.8287
240, 6, wb, attraction, a-b-da, 9, 1, 1, 19, 129, 57, 60, 135, 135, 60, 2, 0.730132
240, 6, wb, attraction, a-b-db, 9, 2, 1, 20, 90, 165, 165, 90, 86, 157, 2, 2.87465
240, 6, wb, attraction, a-b-db, 9, 2, 1, 20, 90, 165, 165, 90, 86, 157, 1, 0.885638
240, 6, wb, attraction, a-b-da, 2, 3, 1, 21, 193, 119, 120, 195, 195, 120, 3, 3.20789
240, 6, wb, attraction, a-b-da, 2, 3, 1, 21, 193, 119, 120, 195, 195, 120, 2, 1.06152
240, 6, wb, attraction, a-b-db, 9, 3, 1, 22, 120, 195, 195, 120, 114, 186, 1, 3.56849
240, 6, wb, attraction, a-b-db, 9, 3, 1, 22, 120, 195, 195, 120, 114, 186, 2, 0.552065
240, 6, wb, attraction, a-b-da, 14, 1, 1, 23, 135, 60, 60, 135, 125, 56, 1, 1.99984
240, 6, wb, attraction, a-b-da, 14, 1, 1, 23, 135, 60, 60, 135, 125, 56, 2, 1.28667
240, 6, wb, filler, NA, 999, 999, 1, 24, 74, 69, 146, 64, 143, 193, 1, 1.0567
240, 6, wb, filler, NA, 999, 999, 1, 24, 74, 69, 146, 64, 143, 193, 3, 0.645045
240, 6, wb, attraction, a-b-da, 14, 2, 1, 25, 153, 83, 90, 165, 165, 90, 3, 2.8487
240, 6, wb, attraction, a-b-da, 14, 2, 1, 25, 153, 83, 90, 165, 165, 90, 2, 0.789119
240, 6, wb, attraction, a-b-db, 2, 2, 1, 26, 89, 163, 90, 165, 165, 90, 3, 3.20371
240, 6, wb, attraction, a-b-db, 2, 2, 1, 26, 89, 163, 90, 165, 165, 90, 2, 0.665812
240, 6, wb, attraction, a-b-db, 9, 1, 1, 27, 60, 135, 135, 60, 57, 129, 2, 5.34898
240, 6, wb, attraction, a-b-db, 9, 1, 1, 27, 60, 135, 135, 60, 57, 129, 1, 1.0045
240, 6, wb, attraction, a-b-db, 5, 2, 1, 28, 90, 165, 88, 161, 165, 90, 2, 1.94616
240, 6, wb, attraction, a-b-db, 5, 2, 1, 28, 90, 165, 88, 161, 165, 90, 1, 1.2268
240, 6, wb, attraction, a-b-da, 9, 2, 1, 29, 165, 90, 90, 165, 157, 86, 3, 3.00704
240, 6, wb, attraction, a-b-da, 9, 2, 1, 29, 165, 90, 90, 165, 157, 86, 1, 0.876766
240, 6, wb, filler, NA, 999, 999, 1, 30, 192, 93, 195, 193, 150, 190, 1, 2.20721
240, 6, wb, filler, NA, 999, 999, 1, 30, 192, 93, 195, 193, 150, 190, 2, 0.47706
240, 6, wb, attraction, a-b-da, 2, 1, 1, 31, 135, 60, 60, 135, 134, 59, 3, 4.83154
240, 6, wb, attraction, a-b-da, 2, 1, 1, 31, 135, 60, 60, 135, 134, 59, 2, 1.0041
240, 6, wb, attraction, a-b-db, 2, 3, 1, 32, 195, 120, 119, 193, 120, 195, 1, 2.73759
240, 6, wb, attraction, a-b-db, 2, 3, 1, 32, 195, 120, 119, 193, 120, 195, 2, 0.602069
240, 6, wb, filler, NA, 999, 999, 1, 33, 110, 107, 84, 171, 162, 149, 1, 1.21578
240, 6, wb, filler, NA, 999, 999, 1, 33, 110, 107, 84, 171, 162, 149, 3, 0.750095
240, 6, wb, attraction, a-b-db, 14, 1, 1, 34, 56, 125, 60, 135, 135, 60, 1, 2.02175
240, 6, wb, attraction, a-b-db, 14, 1, 1, 34, 56, 125, 60, 135, 135, 60, 3, 0.97119
240, 6, wb, filler, NA, 999, 999, 1, 35, 180, 103, 185, 175, 126, 145, 3, 4.18609
240, 6, wb, filler, NA, 999, 999, 1, 35, 180, 103, 185, 175, 126, 145, 2, 0.616781
240, 6, wb, filler, NA, 999, 999, 1, 36, 175, 106, 77, 162, 188, 91, 2, 1.90979
240, 6, wb, filler, NA, 999, 999, 1, 36, 175, 106, 77, 162, 188, 91, 1, 0.527925
240, 6, wb, attraction, a-b-da, 14, 3, 1, 37, 195, 120, 181, 111, 120, 195, 2, 3.01632
240, 6, wb, attraction, a-b-da, 14, 3, 1, 37, 195, 120, 181, 111, 120, 195, 1, 2.68608
240, 6, wb, attraction, a-b-da, 2, 1, 2, 1, 134, 59, 135, 60, 60, 135, 1, 4.06384
240, 6, wb, attraction, a-b-da, 2, 1, 2, 1, 134, 59, 135, 60, 60, 135, 3, 1.51518
240, 6, wb, attraction, a-b-da, 14, 1, 2, 2, 135, 60, 125, 56, 60, 135, 2, 2.65203
240, 6, wb, attraction, a-b-da, 14, 1, 2, 2, 135, 60, 125, 56, 60, 135, 3, 0.536451
240, 6, wb, attraction, a-b-db, 2, 3, 2, 3, 120, 195, 195, 120, 119, 193, 3, 4.44093
240, 6, wb, attraction, a-b-db, 2, 3, 2, 3, 120, 195, 195, 120, 119, 193, 2, 0.796855
240, 6, wb, filler, NA, 999, 999, 2, 4, 85, 93, 88, 183, 119, 114, 1, 1.29053
240, 6, wb, filler, NA, 999, 999, 2, 4, 85, 93, 88, 183, 119, 114, 2, 2.5174
240, 6, wb, attraction, a-b-da, 14, 3, 2, 5, 195, 120, 120, 195, 181, 111, 3, 2.06984
240, 6, wb, attraction, a-b-da, 14, 3, 2, 5, 195, 120, 120, 195, 181, 111, 2, 0.602068
240, 6, wb, attraction, a-b-db, 9, 2, 2, 6, 165, 90, 86, 157, 90, 165, 1, 2.94366
240, 6, wb, attraction, a-b-db, 9, 2, 2, 6, 165, 90, 86, 157, 90, 165, 2, 0.696087
240, 6, wb, catch, NA, 999, 999, 2, 7, 171, 144, 115, 140, 90, 105, 3, 1.1857
240, 6, wb, catch, NA, 999, 999, 2, 7, 171, 144, 115, 140, 90, 105, 1, 0.785361
240, 6, wb, filler, NA, 999, 999, 2, 8, 77, 105, 109, 78, 148, 86, 2, 1.27976
240, 6, wb, filler, NA, 999, 999, 2, 8, 77, 105, 109, 78, 148, 86, 3, 0.907346
240, 6, wb, attraction, a-b-db, 14, 1, 2, 9, 56, 125, 60, 135, 135, 60, 3, 2.68431
240, 6, wb, attraction, a-b-db, 14, 1, 2, 9, 56, 125, 60, 135, 135, 60, 2, 1.28749
240, 6, wb, attraction, a-b-db, 2, 2, 2, 10, 90, 165, 165, 90, 89, 163, 2, 3.76159
240, 6, wb, attraction, a-b-db, 2, 2, 2, 10, 90, 165, 165, 90, 89, 163, 1, 0.457083
240, 6, wb, attraction, a-b-db, 5, 1, 2, 11, 135, 60, 60, 135, 58, 132, 1, 3.46025
240, 6, wb, attraction, a-b-db, 5, 1, 2, 11, 135, 60, 60, 135, 58, 132, 2, 0.535808
240, 6, wb, catch, NA, 999, 999, 2, 12, 75, 120, 112, 143, 185, 130, 1, 1.48836
240, 6, wb, catch, NA, 999, 999, 2, 12, 75, 120, 112, 143, 185, 130, 3, 0.77111
240, 6, wb, attraction, a-b-db, 9, 3, 2, 13, 195, 120, 120, 195, 114, 186, 3, 3.56206
240, 6, wb, attraction, a-b-db, 9, 3, 2, 13, 195, 120, 120, 195, 114, 186, 1, 0.61759
240, 6, wb, attraction, a-b-db, 9, 1, 2, 14, 135, 60, 60, 135, 57, 129, 1, 3.5427
240, 6, wb, attraction, a-b-db, 9, 1, 2, 14, 135, 60, 60, 135, 57, 129, 2, 0.9349
240, 6, wb, attraction, a-b-da, 14, 2, 2, 15, 153, 83, 90, 165, 165, 90, 1, 3.28735
240, 6, wb, attraction, a-b-da, 14, 2, 2, 15, 153, 83, 90, 165, 165, 90, 2, 0.714223
240, 6, wb, filler, NA, 999, 999, 2, 16, 165, 139, 174, 186, 75, 165, 3, 1.48324
240, 6, wb, filler, NA, 999, 999, 2, 16, 165, 139, 174, 186, 75, 165, 2, 0.854703
240, 6, wb, attraction, a-b-da, 5, 3, 2, 17, 190, 117, 120, 195, 195, 120, 1, 5.15442
240, 6, wb, attraction, a-b-da, 5, 3, 2, 17, 190, 117, 120, 195, 195, 120, 2, 0.570175
240, 6, wb, filler, NA, 999, 999, 2, 18, 166, 80, 75, 165, 189, 87, 1, 6.35325
240, 6, wb, filler, NA, 999, 999, 2, 18, 166, 80, 75, 165, 189, 87, 2, 1.32058
240, 6, wb, attraction, a-b-db, 14, 3, 2, 19, 195, 120, 120, 195, 111, 181, 3, 3.22552
240, 6, wb, attraction, a-b-db, 14, 3, 2, 19, 195, 120, 120, 195, 111, 181, 2, 0.902339
240, 6, wb, attraction, a-b-da, 5, 2, 2, 20, 165, 90, 90, 165, 161, 88, 3, 1.51196
240, 6, wb, attraction, a-b-da, 5, 2, 2, 20, 165, 90, 90, 165, 161, 88, 2, 0.810175
240, 6, wb, attraction, a-b-da, 9, 2, 2, 21, 165, 90, 90, 165, 157, 86, 1, 4.03932
240, 6, wb, attraction, a-b-da, 9, 2, 2, 21, 165, 90, 90, 165, 157, 86, 2, 0.571187
240, 6, wb, attraction, a-b-da, 5, 1, 2, 22, 60, 135, 132, 58, 135, 60, 3, 2.35437
240, 6, wb, attraction, a-b-da, 5, 1, 2, 22, 60, 135, 132, 58, 135, 60, 2, 0.498886
240, 6, wb, attraction, a-b-db, 2, 1, 2, 23, 135, 60, 59, 134, 60, 135, 1, 4.58863
240, 6, wb, attraction, a-b-db, 2, 1, 2, 23, 135, 60, 59, 134, 60, 135, 2, 0.819214
240, 6, wb, attraction, a-b-db, 5, 2, 2, 24, 165, 90, 90, 165, 88, 161, 3, 2.2482
240, 6, wb, attraction, a-b-db, 5, 2, 2, 24, 165, 90, 90, 165, 88, 161, 1, 0.612837
240, 6, wb, filler, NA, 999, 999, 2, 25, 114, 92, 86, 72, 75, 93, 2, 5.60999
240, 6, wb, filler, NA, 999, 999, 2, 25, 114, 92, 86, 72, 75, 93, 1, 0.502934
240, 6, wb, filler, NA, 999, 999, 2, 26, 110, 195, 176, 169, 115, 129, 3, 1.92877
240, 6, wb, filler, NA, 999, 999, 2, 26, 110, 195, 176, 169, 115, 129, 2, 0.562106
240, 6, wb, catch, NA, 999, 999, 2, 27, 64, 131, 163, 92, 124, 191, 1, 1.55305
240, 6, wb, catch, NA, 999, 999, 2, 27, 64, 131, 163, 92, 124, 191, 3, 0.473951
240, 6, wb, attraction, a-b-da, 9, 1, 2, 28, 60, 135, 129, 57, 135, 60, 3, 2.15639
240, 6, wb, attraction, a-b-da, 9, 1, 2, 28, 60, 135, 129, 57, 135, 60, 1, 0.820301
240, 6, wb, filler, NA, 999, 999, 2, 29, 105, 187, 141, 80, 180, 181, 2, 1.11332
240, 6, wb, filler, NA, 999, 999, 2, 29, 105, 187, 141, 80, 180, 181, 3, 0.459683
240, 6, wb, attraction, a-b-db, 14, 2, 2, 30, 90, 165, 83, 153, 165, 90, 2, 4.83882
240, 6, wb, attraction, a-b-db, 14, 2, 2, 30, 90, 165, 83, 153, 165, 90, 1, 1.47459
240, 6, wb, attraction, a-b-da, 2, 2, 2, 31, 90, 165, 163, 89, 165, 90, 1, 4.83675
240, 6, wb, attraction, a-b-da, 2, 2, 2, 31, 90, 165, 163, 89, 165, 90, 3, 1.32922
240, 6, wb, filler, NA, 999, 999, 2, 32, 191, 155, 123, 123, 131, 71, 3, 1.44133
240, 6, wb, filler, NA, 999, 999, 2, 32, 191, 155, 123, 123, 131, 71, 1, 0.534186
240, 6, wb, attraction, a-b-db, 5, 3, 2, 33, 120, 195, 195, 120, 117, 190, 2, 2.86266
240, 6, wb, attraction, a-b-db, 5, 3, 2, 33, 120, 195, 195, 120, 117, 190, 1, 0.754473
240, 6, wb, filler, NA, 999, 999, 2, 34, 111, 80, 155, 108, 111, 126, 1, 2.0261
240, 6, wb, filler, NA, 999, 999, 2, 34, 111, 80, 155, 108, 111, 126, 2, 0.951515
240, 6, wb, attraction, a-b-da, 9, 3, 2, 35, 195, 120, 186, 114, 120, 195, 1, 8.27912
240, 6, wb, attraction, a-b-da, 9, 3, 2, 35, 195, 120, 186, 114, 120, 195, 3, 1.08051
240, 6, wb, attraction, a-b-da, 2, 3, 2, 36, 195, 120, 193, 119, 120, 195, 1, 2.30676
240, 6, wb, attraction, a-b-da, 2, 3, 2, 36, 195, 120, 193, 119, 120, 195, 3, 0.852707
240, 6, wb, filler, NA, 999, 999, 2, 37, 149, 75, 98, 107, 150, 178, 2, 1.16836
240, 6, wb, filler, NA, 999, 999, 2, 37, 149, 75, 98, 107, 150, 178, 3, 2.36868
240, 6, wb, filler, NA, 999, 999, 3, 1, 172, 70, 66, 181, 194, 118, 1, 5.47118
240, 6, wb, filler, NA, 999, 999, 3, 1, 172, 70, 66, 181, 194, 118, 3, 0.738245
240, 6, wb, attraction, a-b-db, 9, 2, 3, 2, 86, 157, 165, 90, 90, 165, 2, 6.45866
240, 6, wb, attraction, a-b-db, 9, 2, 3, 2, 86, 157, 165, 90, 90, 165, 3, 4.71714
240, 6, wb, attraction, a-b-db, 14, 1, 3, 3, 56, 125, 60, 135, 135, 60, 1, 3.01297
240, 6, wb, attraction, a-b-db, 14, 1, 3, 3, 56, 125, 60, 135, 135, 60, 2, 0.714643
240, 6, wb, attraction, a-b-db, 5, 1, 3, 4, 58, 132, 60, 135, 135, 60, 1, 1.21177
240, 6, wb, attraction, a-b-db, 5, 1, 3, 4, 58, 132, 60, 135, 135, 60, 2, 0.449935
240, 6, wb, attraction, a-b-da, 14, 2, 3, 5, 165, 90, 153, 83, 90, 165, 2, 3.85381
240, 6, wb, attraction, a-b-da, 14, 2, 3, 5, 165, 90, 153, 83, 90, 165, 3, 0.625844
240, 6, wb, attraction, a-b-db, 2, 3, 3, 6, 195, 120, 119, 193, 120, 195, 1, 2.71829
240, 6, wb, attraction, a-b-db, 2, 3, 3, 6, 195, 120, 119, 193, 120, 195, 2, 0.880036
240, 6, wb, attraction, a-b-da, 2, 2, 3, 7, 163, 89, 90, 165, 165, 90, 1, 2.95443
240, 6, wb, attraction, a-b-da, 2, 2, 3, 7, 163, 89, 90, 165, 165, 90, 2, 0.442043
240, 6, wb, filler, NA, 999, 999, 3, 8, 193, 70, 182, 193, 170, 142, 1, 2.45392
240, 6, wb, filler, NA, 999, 999, 3, 8, 193, 70, 182, 193, 170, 142, 2, 0.513764
240, 6, wb, attraction, a-b-da, 9, 1, 3, 9, 129, 57, 60, 135, 135, 60, 2, 2.90689
240, 6, wb, attraction, a-b-da, 9, 1, 3, 9, 129, 57, 60, 135, 135, 60, 3, 1.34861
240, 6, wb, attraction, a-b-db, 9, 1, 3, 10, 60, 135, 135, 60, 57, 129, 2, 1.80413
240, 6, wb, attraction, a-b-db, 9, 1, 3, 10, 60, 135, 135, 60, 57, 129, 1, 0.490793
240, 6, wb, filler, NA, 999, 999, 3, 11, 194, 90, 162, 192, 156, 158, 1, 2.70064
240, 6, wb, filler, NA, 999, 999, 3, 11, 194, 90, 162, 192, 156, 158, 2, 0.471141
240, 6, wb, attraction, a-b-db, 14, 3, 3, 12, 120, 195, 195, 120, 111, 181, 3, 2.19423
240, 6, wb, attraction, a-b-db, 14, 3, 3, 12, 120, 195, 195, 120, 111, 181, 1, 1.5929
240, 6, wb, attraction, a-b-db, 2, 2, 3, 13, 89, 163, 165, 90, 90, 165, 3, 2.85433
240, 6, wb, attraction, a-b-db, 2, 2, 3, 13, 89, 163, 165, 90, 90, 165, 1, 0.578044
240, 6, wb, filler, NA, 999, 999, 3, 14, 185, 85, 147, 120, 67, 138, 3, 2.04859
240, 6, wb, filler, NA, 999, 999, 3, 14, 185, 85, 147, 120, 67, 138, 2, 3.4051
240, 6, wb, filler, NA, 999, 999, 3, 15, 143, 142, 110, 151, 185, 162, 2, 2.09807
240, 6, wb, filler, NA, 999, 999, 3, 15, 143, 142, 110, 151, 185, 162, 3, 0.700845
240, 6, wb, attraction, a-b-da, 5, 1, 3, 16, 60, 135, 132, 58, 135, 60, 2, 3.70242
240, 6, wb, attraction, a-b-da, 5, 1, 3, 16, 60, 135, 132, 58, 135, 60, 1, 0.952639
240, 6, wb, attraction, a-b-da, 5, 3, 3, 17, 120, 195, 190, 117, 195, 120, 2, 3.16017
240, 6, wb, attraction, a-b-da, 5, 3, 3, 17, 120, 195, 190, 117, 195, 120, 1, 0.77591
240, 6, wb, attraction, a-b-db, 9, 3, 3, 18, 120, 195, 195, 120, 114, 186, 2, 1.70222
240, 6, wb, attraction, a-b-db, 9, 3, 3, 18, 120, 195, 195, 120, 114, 186, 1, 0.449074
240, 6, wb, attraction, a-b-da, 14, 3, 3, 19, 120, 195, 181, 111, 195, 120, 2, 1.58879
240, 6, wb, attraction, a-b-da, 14, 3, 3, 19, 120, 195, 181, 111, 195, 120, 1, 0.459546
240, 6, wb, filler, NA, 999, 999, 3, 20, 97, 92, 111, 158, 144, 186, 1, 1.51081
240, 6, wb, filler, NA, 999, 999, 3, 20, 97, 92, 111, 158, 144, 186, 3, 0.448871
240, 6, wb, attraction, a-b-da, 9, 3, 3, 21, 195, 120, 186, 114, 120, 195, 2, 5.22064
240, 6, wb, attraction, a-b-da, 9, 3, 3, 21, 195, 120, 186, 114, 120, 195, 1, 0.457631
240, 6, wb, attraction, a-b-db, 5, 3, 3, 22, 195, 120, 120, 195, 117, 190, 1, 3.46082
240, 6, wb, attraction, a-b-db, 5, 3, 3, 22, 195, 120, 120, 195, 117, 190, 3, 0.768362
240, 6, wb, filler, NA, 999, 999, 3, 23, 91, 117, 194, 136, 144, 122, 1, 1.17537
240, 6, wb, filler, NA, 999, 999, 3, 23, 91, 117, 194, 136, 144, 122, 2, 0.335046
240, 6, wb, catch, NA, 999, 999, 3, 24, 193, 122, 92, 103, 105, 150, 2, 0.839583
240, 6, wb, catch, NA, 999, 999, 3, 24, 193, 122, 92, 103, 105, 150, 1, 0.324497
240, 6, wb, catch, NA, 999, 999, 3, 25, 81, 114, 163, 152, 97, 158, 1, 1.8771
240, 6, wb, catch, NA, 999, 999, 3, 25, 81, 114, 163, 152, 97, 158, 2, 0.312415
240, 6, wb, attraction, a-b-da, 9, 2, 3, 26, 90, 165, 157, 86, 165, 90, 3, 1.84967
240, 6, wb, attraction, a-b-da, 9, 2, 3, 26, 90, 165, 157, 86, 165, 90, 1, 1.23837
240, 6, wb, filler, NA, 999, 999, 3, 27, 193, 140, 83, 182, 194, 137, 2, 2.15463
240, 6, wb, filler, NA, 999, 999, 3, 27, 193, 140, 83, 182, 194, 137, 1, 1.16257
240, 6, wb, attraction, a-b-db, 2, 1, 3, 28, 135, 60, 59, 134, 60, 135, 1, 3.2974
240, 6, wb, attraction, a-b-db, 2, 1, 3, 28, 135, 60, 59, 134, 60, 135, 2, 0.443721
240, 6, wb, attraction, a-b-da, 2, 1, 3, 29, 60, 135, 134, 59, 135, 60, 2, 2.57557
240, 6, wb, attraction, a-b-da, 2, 1, 3, 29, 60, 135, 134, 59, 135, 60, 1, 0.486714
240, 6, wb, attraction, a-b-db, 14, 2, 3, 30, 165, 90, 83, 153, 90, 165, 2, 2.36119
240, 6, wb, attraction, a-b-db, 14, 2, 3, 30, 165, 90, 83, 153, 90, 165, 3, 1.3452
240, 6, wb, attraction, a-b-da, 2, 3, 3, 31, 120, 195, 193, 119, 195, 120, 2, 3.32055
240, 6, wb, attraction, a-b-da, 2, 3, 3, 31, 120, 195, 193, 119, 195, 120, 1, 0.386202
240, 6, wb, attraction, a-b-da, 14, 1, 3, 32, 60, 135, 135, 60, 125, 56, 1, 2.0727
240, 6, wb, attraction, a-b-da, 14, 1, 3, 32, 60, 135, 135, 60, 125, 56, 2, 0.643995
240, 6, wb, catch, NA, 999, 999, 3, 33, 104, 91, 189, 126, 157, 98, 1, 1.03184
240, 6, wb, catch, NA, 999, 999, 3, 33, 104, 91, 189, 126, 157, 98, 2, 0.413384
240, 6, wb, filler, NA, 999, 999, 3, 34, 97, 62, 159, 132, 94, 155, 1, 0.818485
240, 6, wb, filler, NA, 999, 999, 3, 34, 97, 62, 159, 132, 94, 155, 2, 0.384927
240, 6, wb, attraction, a-b-da, 5, 2, 3, 35, 90, 165, 165, 90, 161, 88, 3, 1.20751
240, 6, wb, attraction, a-b-da, 5, 2, 3, 35, 90, 165, 165, 90, 161, 88, 1, 0.629691
240, 6, wb, attraction, a-b-db, 5, 2, 3, 36, 165, 90, 88, 161, 90, 165, 3, 2.13824
240, 6, wb, attraction, a-b-db, 5, 2, 3, 36, 165, 90, 88, 161, 90, 165, 1, 1.18675
240, 6, wb, filler, NA, 999, 999, 3, 37, 113, 83, 158, 99, 146, 160, 1, 0.801035
240, 6, wb, filler, NA, 999, 999, 3, 37, 113, 83, 158, 99, 146, 160, 3, 0.624134
240, 6, wb, filler, NA, 999, 999, 4, 1, 186, 179, 152, 180, 192, 151, 3, 1.72448
240, 6, wb, filler, NA, 999, 999, 4, 1, 186, 179, 152, 180, 192, 151, 1, 0.725869
240, 6, wb, attraction, a-b-db, 14, 1, 4, 2, 60, 135, 135, 60, 56, 125, 3, 8.69425
240, 6, wb, attraction, a-b-db, 14, 1, 4, 2, 60, 135, 135, 60, 56, 125, 2, 0.366806
240, 6, wb, attraction, a-b-da, 14, 1, 4, 3, 60, 135, 135, 60, 125, 56, 3, 4.16604
240, 6, wb, attraction, a-b-da, 14, 1, 4, 3, 60, 135, 135, 60, 125, 56, 1, 0.677331
240, 6, wb, attraction, a-b-db, 9, 1, 4, 4, 135, 60, 60, 135, 57, 129, 1, 2.38371
240, 6, wb, attraction, a-b-db, 9, 1, 4, 4, 135, 60, 60, 135, 57, 129, 2, 0.598958
240, 6, wb, attraction, a-b-da, 9, 2, 4, 5, 157, 86, 165, 90, 90, 165, 2, 3.6687
240, 6, wb, attraction, a-b-da, 9, 2, 4, 5, 157, 86, 165, 90, 90, 165, 3, 0.864247
240, 6, wb, attraction, a-b-da, 14, 3, 4, 6, 120, 195, 181, 111, 195, 120, 2, 2.79523
240, 6, wb, attraction, a-b-da, 14, 3, 4, 6, 120, 195, 181, 111, 195, 120, 1, 1.06566
240, 6, wb, attraction, a-b-db, 2, 2, 4, 7, 89, 163, 165, 90, 90, 165, 2, 2.04454
240, 6, wb, attraction, a-b-db, 2, 2, 4, 7, 89, 163, 165, 90, 90, 165, 1, 1.44124
240, 6, wb, attraction, a-b-da, 9, 3, 4, 8, 195, 120, 120, 195, 186, 114, 3, 1.74875
240, 6, wb, attraction, a-b-da, 9, 3, 4, 8, 195, 120, 120, 195, 186, 114, 2, 0.84547
240, 6, wb, attraction, a-b-db, 14, 2, 4, 9, 90, 165, 83, 153, 165, 90, 2, 1.40915
240, 6, wb, attraction, a-b-db, 14, 2, 4, 9, 90, 165, 83, 153, 165, 90, 3, 0.687427
240, 6, wb, attraction, a-b-db, 2, 1, 4, 10, 60, 135, 135, 60, 59, 134, 1, 2.54577
240, 6, wb, attraction, a-b-db, 2, 1, 4, 10, 60, 135, 135, 60, 59, 134, 2, 0.498339
240, 6, wb, filler, NA, 999, 999, 4, 11, 161, 62, 179, 173, 155, 72, 3, 8.80408
240, 6, wb, filler, NA, 999, 999, 4, 11, 161, 62, 179, 173, 155, 72, 2, 0.568657
240, 6, wb, attraction, a-b-db, 9, 2, 4, 12, 86, 157, 90, 165, 165, 90, 3, 5.67974
240, 6, wb, attraction, a-b-db, 9, 2, 4, 12, 86, 157, 90, 165, 165, 90, 2, 0.489897
240, 6, wb, attraction, a-b-db, 9, 3, 4, 13, 195, 120, 114, 186, 120, 195, 1, 2.51569
240, 6, wb, attraction, a-b-db, 9, 3, 4, 13, 195, 120, 114, 186, 120, 195, 2, 0.405744
240, 6, wb, filler, NA, 999, 999, 4, 14, 116, 181, 114, 83, 82, 118, 2, 2.49145
240, 6, wb, filler, NA, 999, 999, 4, 14, 116, 181, 114, 83, 82, 118, 1, 0.437947
240, 6, wb, attraction, a-b-db, 5, 3, 4, 15, 120, 195, 117, 190, 195, 120, 1, 8.03456
240, 6, wb, attraction, a-b-db, 5, 3, 4, 15, 120, 195, 117, 190, 195, 120, 3, 0.589849
240, 6, wb, filler, NA, 999, 999, 4, 16, 172, 159, 125, 66, 61, 86, 3, 1.29162
240, 6, wb, filler, NA, 999, 999, 4, 16, 172, 159, 125, 66, 61, 86, 1, 0.606577
240, 6, wb, attraction, a-b-da, 2, 2, 4, 17, 163, 89, 165, 90, 90, 165, 2, 2.14759
240, 6, wb, attraction, a-b-da, 2, 2, 4, 17, 163, 89, 165, 90, 90, 165, 3, 0.732224
240, 6, wb, filler, NA, 999, 999, 4, 18, 159, 101, 179, 104, 115, 97, 3, 1.66062
240, 6, wb, filler, NA, 999, 999, 4, 18, 159, 101, 179, 104, 115, 97, 2, 0.448755
240, 6, wb, attraction, a-b-da, 2, 3, 4, 19, 120, 195, 195, 120, 193, 119, 2, 5.06852
240, 6, wb, attraction, a-b-da, 2, 3, 4, 19, 120, 195, 195, 120, 193, 119, 1, 0.431599
240, 6, wb, filler, NA, 999, 999, 4, 20, 112, 56, 186, 92, 77, 140, 1, 1.37206
240, 6, wb, filler, NA, 999, 999, 4, 20, 112, 56, 186, 92, 77, 140, 2, 0.531643
240, 6, wb, filler, NA, 999, 999, 4, 21, 169, 192, 64, 195, 100, 104, 3, 1.09208
240, 6, wb, filler, NA, 999, 999, 4, 21, 169, 192, 64, 195, 100, 104, 1, 0.647106
240, 6, wb, attraction, a-b-da, 5, 3, 4, 22, 120, 195, 195, 120, 190, 117, 3, 1.21874
240, 6, wb, attraction, a-b-da, 5, 3, 4, 22, 120, 195, 195, 120, 190, 117, 2, 0.536999
240, 6, wb, attraction, a-b-db, 5, 1, 4, 23, 58, 132, 60, 135, 135, 60, 1, 1.87354
240, 6, wb, attraction, a-b-db, 5, 1, 4, 23, 58, 132, 60, 135, 135, 60, 2, 1.38886
240, 6, wb, attraction, a-b-da, 14, 2, 4, 24, 153, 83, 165, 90, 90, 165, 3, 2.53907
240, 6, wb, attraction, a-b-da, 14, 2, 4, 24, 153, 83, 165, 90, 90, 165, 1, 0.731522
240, 6, wb, attraction, a-b-da, 5, 2, 4, 25, 165, 90, 90, 165, 161, 88, 2, 2.09191
240, 6, wb, attraction, a-b-da, 5, 2, 4, 25, 165, 90, 90, 165, 161, 88, 1, 0.582508
240, 6, wb, catch, NA, 999, 999, 4, 26, 163, 152, 95, 160, 118, 77, 3, 1.07699
240, 6, wb, catch, NA, 999, 999, 4, 26, 163, 152, 95, 160, 118, 77, 1, 0.472661
240, 6, wb, filler, NA, 999, 999, 4, 27, 64, 94, 137, 177, 88, 177, 1, 0.75504
240, 6, wb, filler, NA, 999, 999, 4, 27, 64, 94, 137, 177, 88, 177, 2, 0.627491
240, 6, wb, filler, NA, 999, 999, 4, 28, 92, 154, 161, 147, 98, 94, 3, 1.35187
240, 6, wb, filler, NA, 999, 999, 4, 28, 92, 154, 161, 147, 98, 94, 2, 0.39285
240, 6, wb, filler, NA, 999, 999, 4, 29, 186, 113, 156, 125, 148, 85, 3, 1.75875
240, 6, wb, filler, NA, 999, 999, 4, 29, 186, 113, 156, 125, 148, 85, 1, 2.38272
240, 6, wb, attraction, a-b-db, 2, 3, 4, 30, 120, 195, 195, 120, 119, 193, 3, 3.28454
240, 6, wb, attraction, a-b-db, 2, 3, 4, 30, 120, 195, 195, 120, 119, 193, 2, 1.0235
240, 6, wb, attraction, a-b-da, 2, 1, 4, 31, 135, 60, 60, 135, 134, 59, 3, 1.90777
240, 6, wb, attraction, a-b-da, 2, 1, 4, 31, 135, 60, 60, 135, 134, 59, 1, 0.941946
240, 6, wb, attraction, a-b-db, 5, 2, 4, 32, 165, 90, 88, 161, 90, 165, 3, 4.20554
240, 6, wb, attraction, a-b-db, 5, 2, 4, 32, 165, 90, 88, 161, 90, 165, 1, 0.778898
240, 6, wb, catch, NA, 999, 999, 4, 33, 132, 63, 121, 194, 117, 138, 1, 1.13712
240, 6, wb, catch, NA, 999, 999, 4, 33, 132, 63, 121, 194, 117, 138, 2, 0.538941
240, 6, wb, attraction, a-b-da, 5, 1, 4, 34, 132, 58, 60, 135, 135, 60, 1, 1.64322
240, 6, wb, attraction, a-b-da, 5, 1, 4, 34, 132, 58, 60, 135, 135, 60, 2, 0.616125
240, 6, wb, attraction, a-b-da, 9, 1, 4, 35, 129, 57, 135, 60, 60, 135, 1, 0.917147
240, 6, wb, attraction, a-b-da, 9, 1, 4, 35, 129, 57, 135, 60, 60, 135, 2, 0.711629
240, 6, wb, catch, NA, 999, 999, 4, 36, 139, 176, 146, 109, 64, 131, 3, 1.94447
240, 6, wb, catch, NA, 999, 999, 4, 36, 139, 176, 146, 109, 64, 131, 1, 0.593192
240, 6, wb, attraction, a-b-db, 14, 3, 4, 37, 195, 120, 111, 181, 120, 195, 1, 3.59904
240, 6, wb, attraction, a-b-db, 14, 3, 4, 37, 195, 120, 111, 181, 120, 195, 3, 1.05334
240, 6, wb, attraction, a-b-da, 9, 1, 5, 1, 129, 57, 60, 135, 135, 60, 1, 11.3193
240, 6, wb, attraction, a-b-da, 9, 1, 5, 1, 129, 57, 60, 135, 135, 60, 2, 0.526623
240, 6, wb, filler, NA, 999, 999, 5, 2, 142, 180, 142, 97, 191, 166, 2, 1.40691
240, 6, wb, filler, NA, 999, 999, 5, 2, 142, 180, 142, 97, 191, 166, 3, 0.389209
240, 6, wb, attraction, a-b-da, 14, 1, 5, 3, 135, 60, 125, 56, 60, 135, 3, 1.45175
240, 6, wb, attraction, a-b-da, 14, 1, 5, 3, 135, 60, 125, 56, 60, 135, 1, 1.00059
240, 6, wb, attraction, a-b-db, 2, 3, 5, 4, 119, 193, 120, 195, 195, 120, 3, 4.71809
240, 6, wb, attraction, a-b-db, 2, 3, 5, 4, 119, 193, 120, 195, 195, 120, 2, 0.855414
240, 6, wb, attraction, a-b-db, 5, 1, 5, 5, 58, 132, 135, 60, 60, 135, 2, 1.73894
240, 6, wb, attraction, a-b-db, 5, 1, 5, 5, 58, 132, 135, 60, 60, 135, 1, 0.827754
240, 6, wb, attraction, a-b-db, 14, 3, 5, 6, 111, 181, 195, 120, 120, 195, 2, 2.20001
240, 6, wb, attraction, a-b-db, 14, 3, 5, 6, 111, 181, 195, 120, 120, 195, 3, 0.742722
240, 6, wb, attraction, a-b-db, 9, 3, 5, 7, 120, 195, 114, 186, 195, 120, 2, 2.61442
240, 6, wb, attraction, a-b-db, 9, 3, 5, 7, 120, 195, 114, 186, 195, 120, 1, 0.764205
240, 6, wb, filler, NA, 999, 999, 5, 8, 98, 181, 81, 66, 149, 92, 2, 0.947259
240, 6, wb, filler, NA, 999, 999, 5, 8, 98, 181, 81, 66, 149, 92, 1, 1.19638
240, 6, wb, attraction, a-b-da, 5, 3, 5, 9, 120, 195, 190, 117, 195, 120, 1, 4.50588
240, 6, wb, attraction, a-b-da, 5, 3, 5, 9, 120, 195, 190, 117, 195, 120, 3, 1.08306
240, 6, wb, filler, NA, 999, 999, 5, 10, 137, 116, 110, 91, 156, 139, 2, 1.49331
240, 6, wb, filler, NA, 999, 999, 5, 10, 137, 116, 110, 91, 156, 139, 3, 0.480152
240, 6, wb, attraction, a-b-db, 2, 2, 5, 11, 165, 90, 90, 165, 89, 163, 3, 4.50661
240, 6, wb, attraction, a-b-db, 2, 2, 5, 11, 165, 90, 90, 165, 89, 163, 1, 1.36388
240, 6, wb, attraction, a-b-da, 9, 3, 5, 12, 195, 120, 186, 114, 120, 195, 1, 3.51479
240, 6, wb, attraction, a-b-da, 9, 3, 5, 12, 195, 120, 186, 114, 120, 195, 3, 0.740225
240, 6, wb, attraction, a-b-da, 5, 2, 5, 13, 90, 165, 161, 88, 165, 90, 3, 1.21193
240, 6, wb, attraction, a-b-da, 5, 2, 5, 13, 90, 165, 161, 88, 165, 90, 1, 0.402204
240, 6, wb, attraction, a-b-db, 14, 2, 5, 14, 90, 165, 165, 90, 83, 153, 3, 2.05597
240, 6, wb, attraction, a-b-db, 14, 2, 5, 14, 90, 165, 165, 90, 83, 153, 2, 0.708017
240, 6, wb, catch, NA, 999, 999, 5, 15, 166, 149, 107, 148, 130, 65, 3, 1.04504
240, 6, wb, catch, NA, 999, 999, 5, 15, 166, 149, 107, 148, 130, 65, 1, 0.673992
240, 6, wb, catch, NA, 999, 999, 5, 16, 145, 110, 122, 193, 77, 118, 3, 1.35646
240, 6, wb, catch, NA, 999, 999, 5, 16, 145, 110, 122, 193, 77, 118, 2, 0.49284
240, 6, wb, catch, NA, 999, 999, 5, 17, 122, 133, 75, 120, 187, 128, 2, 1.50246
240, 6, wb, catch, NA, 999, 999, 5, 17, 122, 133, 75, 120, 187, 128, 3, 0.58527
240, 6, wb, attraction, a-b-da, 14, 2, 5, 18, 165, 90, 90, 165, 153, 83, 3, 5.89573
240, 6, wb, attraction, a-b-da, 14, 2, 5, 18, 165, 90, 90, 165, 153, 83, 2, 0.67336
240, 6, wb, attraction, a-b-da, 14, 3, 5, 19, 120, 195, 195, 120, 181, 111, 1, 6.77964
240, 6, wb, attraction, a-b-da, 14, 3, 5, 19, 120, 195, 195, 120, 181, 111, 2, 1.03344
240, 6, wb, filler, NA, 999, 999, 5, 20, 106, 78, 91, 78, 129, 193, 2, 0.957671
240, 6, wb, filler, NA, 999, 999, 5, 20, 106, 78, 91, 78, 129, 193, 3, 0.470028
240, 6, wb, attraction, a-b-db, 14, 1, 5, 21, 56, 125, 135, 60, 60, 135, 1, 2.27309
240, 6, wb, attraction, a-b-db, 14, 1, 5, 21, 56, 125, 135, 60, 60, 135, 2, 0.908465
240, 6, wb, filler, NA, 999, 999, 5, 22, 137, 137, 84, 154, 118, 195, 2, 3.54142
240, 6, wb, filler, NA, 999, 999, 5, 22, 137, 137, 84, 154, 118, 195, 3, 0.693691
240, 6, wb, filler, NA, 999, 999, 5, 23, 77, 138, 181, 93, 140, 59, 3, 2.10336
240, 6, wb, filler, NA, 999, 999, 5, 23, 77, 138, 181, 93, 140, 59, 2, 0.58598
240, 6, wb, attraction, a-b-db, 2, 1, 5, 24, 135, 60, 59, 134, 60, 135, 1, 1.95242
240, 6, wb, attraction, a-b-db, 2, 1, 5, 24, 135, 60, 59, 134, 60, 135, 3, 1.50517
240, 6, wb, attraction, a-b-da, 2, 1, 5, 25, 134, 59, 135, 60, 60, 135, 2, 3.01075
240, 6, wb, attraction, a-b-da, 2, 1, 5, 25, 134, 59, 135, 60, 60, 135, 3, 0.496358
240, 6, wb, attraction, a-b-db, 9, 1, 5, 26, 57, 129, 60, 135, 135, 60, 1, 3.41009
240, 6, wb, attraction, a-b-db, 9, 1, 5, 26, 57, 129, 60, 135, 135, 60, 2, 1.68768
240, 6, wb, filler, NA, 999, 999, 5, 27, 155, 149, 169, 128, 105, 145, 3, 2.6738
240, 6, wb, filler, NA, 999, 999, 5, 27, 155, 149, 169, 128, 105, 145, 1, 4.62893
240, 6, wb, attraction, a-b-da, 2, 3, 5, 28, 195, 120, 120, 195, 193, 119, 3, 5.90408
240, 6, wb, attraction, a-b-da, 2, 3, 5, 28, 195, 120, 120, 195, 193, 119, 2, 0.497494
240, 6, wb, filler, NA, 999, 999, 5, 29, 112, 97, 159, 68, 185, 160, 1, 3.11542
240, 6, wb, filler, NA, 999, 999, 5, 29, 112, 97, 159, 68, 185, 160, 3, 0.484946
240, 6, wb, filler, NA, 999, 999, 5, 30, 78, 85, 192, 117, 81, 129, 1, 0.967415
240, 6, wb, filler, NA, 999, 999, 5, 30, 78, 85, 192, 117, 81, 129, 2, 0.431787
240, 6, wb, attraction, a-b-da, 2, 2, 5, 31, 163, 89, 90, 165, 165, 90, 1, 2.57224
240, 6, wb, attraction, a-b-da, 2, 2, 5, 31, 163, 89, 90, 165, 165, 90, 2, 0.755538
240, 6, wb, filler, NA, 999, 999, 5, 32, 156, 194, 193, 195, 162, 56, 3, 1.07512
240, 6, wb, filler, NA, 999, 999, 5, 32, 156, 194, 193, 195, 162, 56, 2, 0.60677
240, 6, wb, attraction, a-b-db, 9, 2, 5, 33, 90, 165, 165, 90, 86, 157, 3, 3.29988
240, 6, wb, attraction, a-b-db, 9, 2, 5, 33, 90, 165, 165, 90, 86, 157, 1, 0.750104
240, 6, wb, attraction, a-b-da, 9, 2, 5, 34, 157, 86, 165, 90, 90, 165, 1, 3.13381
240, 6, wb, attraction, a-b-da, 9, 2, 5, 34, 157, 86, 165, 90, 90, 165, 2, 0.982866
240, 6, wb, attraction, a-b-db, 5, 3, 5, 35, 120, 195, 117, 190, 195, 120, 3, 2.5812
240, 6, wb, attraction, a-b-db, 5, 3, 5, 35, 120, 195, 117, 190, 195, 120, 1, 0.828229
240, 6, wb, attraction, a-b-da, 5, 1, 5, 36, 132, 58, 60, 135, 135, 60, 1, 1.92067
240, 6, wb, attraction, a-b-da, 5, 1, 5, 36, 132, 58, 60, 135, 135, 60, 2, 1.23402
240, 6, wb, attraction, a-b-db, 5, 2, 5, 37, 165, 90, 88, 161, 90, 165, 1, 2.51017
240, 6, wb, attraction, a-b-db, 5, 2, 5, 37, 165, 90, 88, 161, 90, 165, 2, 0.368099
240, 6, wb, attraction, a-b-db, 14, 1, 6, 1, 56, 125, 135, 60, 60, 135, 1, 3.35124
240, 6, wb, attraction, a-b-db, 14, 1, 6, 1, 56, 125, 135, 60, 60, 135, 3, 0.719465
240, 6, wb, attraction, a-b-db, 9, 1, 6, 2, 57, 129, 60, 135, 135, 60, 3, 1.9365
240, 6, wb, attraction, a-b-db, 9, 1, 6, 2, 57, 129, 60, 135, 135, 60, 2, 0.953996
240, 6, wb, filler, NA, 999, 999, 6, 3, 192, 151, 75, 144, 148, 131, 2, 1.2735
240, 6, wb, filler, NA, 999, 999, 6, 3, 192, 151, 75, 144, 148, 131, 1, 0.445095
240, 6, wb, attraction, a-b-da, 9, 3, 6, 4, 120, 195, 195, 120, 186, 114, 3, 1.33689
240, 6, wb, attraction, a-b-da, 9, 3, 6, 4, 120, 195, 195, 120, 186, 114, 2, 0.810618
240, 6, wb, attraction, a-b-da, 14, 3, 6, 5, 195, 120, 181, 111, 120, 195, 2, 1.89561
240, 6, wb, attraction, a-b-da, 14, 3, 6, 5, 195, 120, 181, 111, 120, 195, 1, 0.626218
240, 6, wb, filler, NA, 999, 999, 6, 6, 164, 113, 106, 188, 125, 194, 1, 2.59072
240, 6, wb, filler, NA, 999, 999, 6, 6, 164, 113, 106, 188, 125, 194, 3, 1.90116
240, 6, wb, filler, NA, 999, 999, 6, 7, 174, 110, 193, 64, 159, 187, 2, 3.32654
240, 6, wb, filler, NA, 999, 999, 6, 7, 174, 110, 193, 64, 159, 187, 3, 1.30336
240, 6, wb, attraction, a-b-db, 9, 3, 6, 8, 114, 186, 195, 120, 120, 195, 1, 3.64098
240, 6, wb, attraction, a-b-db, 9, 3, 6, 8, 114, 186, 195, 120, 120, 195, 2, 2.62111
240, 6, wb, filler, NA, 999, 999, 6, 9, 114, 194, 93, 159, 67, 176, 3, 1.04958
240, 6, wb, filler, NA, 999, 999, 6, 9, 114, 194, 93, 159, 67, 176, 1, 0.694605
240, 6, wb, catch, NA, 999, 999, 6, 10, 131, 64, 161, 94, 194, 121, 1, 0.880296
240, 6, wb, catch, NA, 999, 999, 6, 10, 131, 64, 161, 94, 194, 121, 3, 0.628137
240, 6, wb, attraction, a-b-db, 5, 2, 6, 11, 165, 90, 88, 161, 90, 165, 2, 2.70444
240, 6, wb, attraction, a-b-db, 5, 2, 6, 11, 165, 90, 88, 161, 90, 165, 1, 0.50621
240, 6, wb, attraction, a-b-da, 9, 1, 6, 12, 60, 135, 135, 60, 129, 57, 3, 2.39527
240, 6, wb, attraction, a-b-da, 9, 1, 6, 12, 60, 135, 135, 60, 129, 57, 1, 1.50595
240, 6, wb, attraction, a-b-da, 14, 1, 6, 13, 125, 56, 60, 135, 135, 60, 1, 1.66739
240, 6, wb, attraction, a-b-da, 14, 1, 6, 13, 125, 56, 60, 135, 135, 60, 2, 3.43145
240, 6, wb, attraction, a-b-db, 5, 3, 6, 14, 195, 120, 120, 195, 117, 190, 3, 1.17108
240, 6, wb, attraction, a-b-db, 5, 3, 6, 14, 195, 120, 120, 195, 117, 190, 1, 0.690548
240, 6, wb, attraction, a-b-da, 2, 2, 6, 15, 163, 89, 165, 90, 90, 165, 3, 4.48433
240, 6, wb, attraction, a-b-da, 2, 2, 6, 15, 163, 89, 165, 90, 90, 165, 1, 0.54291
240, 6, wb, catch, NA, 999, 999, 6, 16, 149, 166, 116, 139, 113, 82, 3, 0.894643
240, 6, wb, catch, NA, 999, 999, 6, 16, 149, 166, 116, 139, 113, 82, 1, 0.409794
240, 6, wb, attraction, a-b-da, 5, 3, 6, 17, 120, 195, 190, 117, 195, 120, 2, 2.03883
240, 6, wb, attraction, a-b-da, 5, 3, 6, 17, 120, 195, 190, 117, 195, 120, 1, 0.531482
240, 6, wb, attraction, a-b-db, 5, 1, 6, 18, 60, 135, 58, 132, 135, 60, 3, 1.26791
240, 6, wb, attraction, a-b-db, 5, 1, 6, 18, 60, 135, 58, 132, 135, 60, 2, 1.09618
240, 6, wb, filler, NA, 999, 999, 6, 19, 178, 72, 109, 162, 168, 193, 1, 1.40184
240, 6, wb, filler, NA, 999, 999, 6, 19, 178, 72, 109, 162, 168, 193, 3, 0.456825
240, 6, wb, attraction, a-b-db, 9, 2, 6, 20, 90, 165, 165, 90, 86, 157, 3, 1.23572
240, 6, wb, attraction, a-b-db, 9, 2, 6, 20, 90, 165, 165, 90, 86, 157, 1, 0.745348
240, 6, wb, attraction, a-b-db, 14, 3, 6, 21, 195, 120, 111, 181, 120, 195, 3, 1.23303
240, 6, wb, attraction, a-b-db, 14, 3, 6, 21, 195, 120, 111, 181, 120, 195, 1, 0.590649
240, 6, wb, catch, NA, 999, 999, 6, 22, 94, 101, 118, 137, 159, 156, 1, 0.804368
240, 6, wb, catch, NA, 999, 999, 6, 22, 94, 101, 118, 137, 159, 156, 3, 0.410879
240, 6, wb, attraction, a-b-da, 2, 1, 6, 23, 135, 60, 134, 59, 60, 135, 2, 2.14399
240, 6, wb, attraction, a-b-da, 2, 1, 6, 23, 135, 60, 134, 59, 60, 135, 3, 0.952666
240, 6, wb, attraction, a-b-db, 2, 1, 6, 24, 59, 134, 135, 60, 60, 135, 2, 4.43242
240, 6, wb, attraction, a-b-db, 2, 1, 6, 24, 59, 134, 135, 60, 60, 135, 1, 1.30885
240, 6, wb, attraction, a-b-da, 9, 2, 6, 25, 90, 165, 157, 86, 165, 90, 3, 1.24565
240, 6, wb, attraction, a-b-da, 9, 2, 6, 25, 90, 165, 157, 86, 165, 90, 2, 0.634602
240, 6, wb, attraction, a-b-db, 2, 2, 6, 26, 165, 90, 90, 165, 89, 163, 3, 1.43103
240, 6, wb, attraction, a-b-db, 2, 2, 6, 26, 165, 90, 90, 165, 89, 163, 1, 0.660465
240, 6, wb, attraction, a-b-da, 5, 1, 6, 27, 60, 135, 135, 60, 132, 58, 3, 1.5197
240, 6, wb, attraction, a-b-da, 5, 1, 6, 27, 60, 135, 135, 60, 132, 58, 1, 0.73781
240, 6, wb, filler, NA, 999, 999, 6, 28, 99, 194, 72, 99, 163, 67, 2, 0.874143
240, 6, wb, filler, NA, 999, 999, 6, 28, 99, 194, 72, 99, 163, 67, 1, 0.62985
240, 6, wb, filler, NA, 999, 999, 6, 29, 107, 66, 192, 117, 59, 183, 1, 1.01816
240, 6, wb, filler, NA, 999, 999, 6, 29, 107, 66, 192, 117, 59, 183, 2, 0.368547
240, 6, wb, attraction, a-b-da, 2, 3, 6, 30, 195, 120, 120, 195, 193, 119, 3, 3.18374
240, 6, wb, attraction, a-b-da, 2, 3, 6, 30, 195, 120, 120, 195, 193, 119, 2, 0.694693
240, 6, wb, filler, NA, 999, 999, 6, 31, 115, 93, 111, 191, 130, 154, 1, 2.71241
240, 6, wb, filler, NA, 999, 999, 6, 31, 115, 93, 111, 191, 130, 154, 3, 0.794256
240, 6, wb, filler, NA, 999, 999, 6, 32, 160, 114, 69, 166, 194, 136, 2, 1.79192
240, 6, wb, filler, NA, 999, 999, 6, 32, 160, 114, 69, 166, 194, 136, 3, 0.42268
240, 6, wb, attraction, a-b-db, 14, 2, 6, 33, 165, 90, 83, 153, 90, 165, 2, 4.19532
240, 6, wb, attraction, a-b-db, 14, 2, 6, 33, 165, 90, 83, 153, 90, 165, 3, 0.905255
240, 6, wb, attraction, a-b-db, 2, 3, 6, 34, 120, 195, 119, 193, 195, 120, 1, 2.49077
240, 6, wb, attraction, a-b-db, 2, 3, 6, 34, 120, 195, 119, 193, 195, 120, 3, 0.789332
240, 6, wb, attraction, a-b-da, 14, 2, 6, 35, 165, 90, 90, 165, 153, 83, 2, 1.20307
240, 6, wb, attraction, a-b-da, 14, 2, 6, 35, 165, 90, 90, 165, 153, 83, 3, 1.08191
240, 6, wb, filler, NA, 999, 999, 6, 36, 113, 183, 118, 148, 84, 170, 2, 3.21215
240, 6, wb, filler, NA, 999, 999, 6, 36, 113, 183, 118, 148, 84, 170, 1, 0.369836
240, 6, wb, attraction, a-b-da, 5, 2, 6, 37, 90, 165, 165, 90, 161, 88, 3, 0.921169
240, 6, wb, attraction, a-b-da, 5, 2, 6, 37, 90, 165, 165, 90, 161, 88, 1, 0.554821
240, 6, wb, attraction, a-b-da, 2, 1, 7, 1, 60, 135, 135, 60, 134, 59, 3, 2.73858
240, 6, wb, attraction, a-b-da, 2, 1, 7, 1, 60, 135, 135, 60, 134, 59, 2, 1.15495
240, 6, wb, filler, NA, 999, 999, 7, 2, 158, 177, 100, 58, 149, 118, 2, 1.41049
240, 6, wb, filler, NA, 999, 999, 7, 2, 158, 177, 100, 58, 149, 118, 1, 0.520731
240, 6, wb, filler, NA, 999, 999, 7, 3, 133, 88, 117, 129, 123, 100, 1, 1.7778
240, 6, wb, filler, NA, 999, 999, 7, 3, 133, 88, 117, 129, 123, 100, 2, 1.08123
240, 6, wb, attraction, a-b-db, 14, 2, 7, 4, 90, 165, 165, 90, 83, 153, 3, 2.95551
240, 6, wb, attraction, a-b-db, 14, 2, 7, 4, 90, 165, 165, 90, 83, 153, 2, 0.619181
240, 6, wb, attraction, a-b-da, 9, 2, 7, 5, 90, 165, 157, 86, 165, 90, 2, 5.08838
240, 6, wb, attraction, a-b-da, 9, 2, 7, 5, 90, 165, 157, 86, 165, 90, 1, 1.20272
240, 6, wb, catch, NA, 999, 999, 7, 6, 195, 120, 90, 105, 93, 162, 2, 0.95227
240, 6, wb, catch, NA, 999, 999, 7, 6, 195, 120, 90, 105, 93, 162, 1, 0.369402
240, 6, wb, attraction, a-b-da, 14, 2, 7, 7, 165, 90, 90, 165, 153, 83, 3, 3.78449
240, 6, wb, attraction, a-b-da, 14, 2, 7, 7, 165, 90, 90, 165, 153, 83, 2, 3.14323
240, 6, wb, filler, NA, 999, 999, 7, 8, 155, 112, 150, 187, 116, 177, 1, 5.53414
240, 6, wb, filler, NA, 999, 999, 7, 8, 155, 112, 150, 187, 116, 177, 2, 0.598416
240, 6, wb, attraction, a-b-da, 5, 1, 7, 9, 132, 58, 135, 60, 60, 135, 1, 2.70813
240, 6, wb, attraction, a-b-da, 5, 1, 7, 9, 132, 58, 135, 60, 60, 135, 3, 1.03794
240, 6, wb, attraction, a-b-db, 5, 1, 7, 10, 135, 60, 60, 135, 58, 132, 1, 4.25022
240, 6, wb, attraction, a-b-db, 5, 1, 7, 10, 135, 60, 60, 135, 58, 132, 2, 0.574274
240, 6, wb, catch, NA, 999, 999, 7, 11, 167, 148, 92, 103, 130, 125, 2, 0.988645
240, 6, wb, catch, NA, 999, 999, 7, 11, 167, 148, 92, 103, 130, 125, 1, 0.427645
240, 6, wb, attraction, a-b-da, 2, 2, 7, 12, 90, 165, 165, 90, 163, 89, 3, 2.15225
240, 6, wb, attraction, a-b-da, 2, 2, 7, 12, 90, 165, 165, 90, 163, 89, 2, 0.664729
240, 6, wb, attraction, a-b-da, 5, 3, 7, 13, 120, 195, 195, 120, 190, 117, 2, 2.50781
240, 6, wb, attraction, a-b-da, 5, 3, 7, 13, 120, 195, 195, 120, 190, 117, 1, 0.501682
240, 6, wb, attraction, a-b-da, 5, 2, 7, 14, 161, 88, 90, 165, 165, 90, 3, 1.95945
240, 6, wb, attraction, a-b-da, 5, 2, 7, 14, 161, 88, 90, 165, 165, 90, 1, 1.19149
240, 6, wb, attraction, a-b-da, 9, 3, 7, 15, 120, 195, 195, 120, 186, 114, 3, 2.04519
240, 6, wb, attraction, a-b-da, 9, 3, 7, 15, 120, 195, 195, 120, 186, 114, 1, 1.20991
240, 6, wb, attraction, a-b-db, 14, 3, 7, 16, 195, 120, 120, 195, 111, 181, 1, 4.07059
240, 6, wb, attraction, a-b-db, 14, 3, 7, 16, 195, 120, 120, 195, 111, 181, 2, 0.521949
240, 6, wb, attraction, a-b-db, 9, 2, 7, 17, 86, 157, 165, 90, 90, 165, 2, 2.03517
240, 6, wb, attraction, a-b-db, 9, 2, 7, 17, 86, 157, 165, 90, 90, 165, 1, 0.752506
240, 6, wb, attraction, a-b-db, 5, 2, 7, 18, 165, 90, 88, 161, 90, 165, 2, 2.82415
240, 6, wb, attraction, a-b-db, 5, 2, 7, 18, 165, 90, 88, 161, 90, 165, 3, 1.08525
240, 6, wb, attraction, a-b-da, 14, 1, 7, 19, 125, 56, 60, 135, 135, 60, 3, 1.91947
240, 6, wb, attraction, a-b-da, 14, 1, 7, 19, 125, 56, 60, 135, 135, 60, 2, 1.73767
240, 6, wb, filler, NA, 999, 999, 7, 20, 188, 149, 183, 88, 113, 108, 3, 1.31367
240, 6, wb, filler, NA, 999, 999, 7, 20, 188, 149, 183, 88, 113, 108, 1, 0.403829
240, 6, wb, attraction, a-b-db, 9, 1, 7, 21, 57, 129, 60, 135, 135, 60, 2, 2.03378
240, 6, wb, attraction, a-b-db, 9, 1, 7, 21, 57, 129, 60, 135, 135, 60, 1, 1.799
240, 6, wb, attraction, a-b-db, 5, 3, 7, 22, 117, 190, 120, 195, 195, 120, 3, 6.42037
240, 6, wb, attraction, a-b-db, 5, 3, 7, 22, 117, 190, 120, 195, 195, 120, 1, 0.760998
240, 6, wb, filler, NA, 999, 999, 7, 23, 97, 147, 66, 103, 115, 89, 2, 1.04797
240, 6, wb, filler, NA, 999, 999, 7, 23, 97, 147, 66, 103, 115, 89, 1, 0.525056
240, 6, wb, catch, NA, 999, 999, 7, 24, 71, 124, 155, 160, 102, 153, 1, 1.18948
240, 6, wb, catch, NA, 999, 999, 7, 24, 71, 124, 155, 160, 102, 153, 2, 0.396407
240, 6, wb, attraction, a-b-da, 14, 3, 7, 25, 181, 111, 195, 120, 120, 195, 1, 3.13018
240, 6, wb, attraction, a-b-da, 14, 3, 7, 25, 181, 111, 195, 120, 120, 195, 3, 0.859318
240, 6, wb, attraction, a-b-da, 9, 1, 7, 26, 60, 135, 129, 57, 135, 60, 2, 2.28624
240, 6, wb, attraction, a-b-da, 9, 1, 7, 26, 60, 135, 129, 57, 135, 60, 1, 1.12952
240, 6, wb, attraction, a-b-db, 2, 2, 7, 27, 89, 163, 90, 165, 165, 90, 3, 1.98578
240, 6, wb, attraction, a-b-db, 2, 2, 7, 27, 89, 163, 90, 165, 165, 90, 1, 0.569101
240, 6, wb, attraction, a-b-da, 2, 3, 7, 28, 193, 119, 195, 120, 120, 195, 1, 3.56823
240, 6, wb, attraction, a-b-da, 2, 3, 7, 28, 193, 119, 195, 120, 120, 195, 3, 0.927704
240, 6, wb, filler, NA, 999, 999, 7, 29, 120, 123, 129, 166, 86, 140, 3, 1.87211
240, 6, wb, filler, NA, 999, 999, 7, 29, 120, 123, 129, 166, 86, 140, 2, 0.395437
240, 6, wb, filler, NA, 999, 999, 7, 30, 97, 132, 89, 150, 176, 95, 1, 4.04924
240, 6, wb, filler, NA, 999, 999, 7, 30, 97, 132, 89, 150, 176, 95, 3, 0.581341
240, 6, wb, attraction, a-b-db, 2, 1, 7, 31, 60, 135, 59, 134, 135, 60, 3, 3.22778
240, 6, wb, attraction, a-b-db, 2, 1, 7, 31, 60, 135, 59, 134, 135, 60, 2, 1.24873
240, 6, wb, attraction, a-b-db, 9, 3, 7, 32, 114, 186, 195, 120, 120, 195, 1, 5.47624
240, 6, wb, attraction, a-b-db, 9, 3, 7, 32, 114, 186, 195, 120, 120, 195, 2, 0.566523
240, 6, wb, attraction, a-b-db, 14, 1, 7, 33, 56, 125, 60, 135, 135, 60, 3, 2.94963
240, 6, wb, attraction, a-b-db, 14, 1, 7, 33, 56, 125, 60, 135, 135, 60, 2, 0.709962
240, 6, wb, filler, NA, 999, 999, 7, 34, 94, 64, 152, 58, 193, 150, 1, 1.27094
240, 6, wb, filler, NA, 999, 999, 7, 34, 94, 64, 152, 58, 193, 150, 3, 0.850566
240, 6, wb, filler, NA, 999, 999, 7, 35, 63, 91, 101, 151, 141, 170, 1, 0.846242
240, 6, wb, filler, NA, 999, 999, 7, 35, 63, 91, 101, 151, 141, 170, 3, 0.77141
240, 6, wb, attraction, a-b-db, 2, 3, 7, 36, 119, 193, 120, 195, 195, 120, 3, 2.97035
240, 6, wb, attraction, a-b-db, 2, 3, 7, 36, 119, 193, 120, 195, 195, 120, 2, 0.545396
240, 6, wb, filler, NA, 999, 999, 7, 37, 161, 113, 175, 184, 121, 153, 1, 6.3453
240, 6, wb, filler, NA, 999, 999, 7, 37, 161, 113, 175, 184, 121, 153, 2, 0.560475
240, 6, wb, attraction, a-b-db, 5, 3, 8, 1, 120, 195, 195, 120, 117, 190, 3, 5.48764
240, 6, wb, attraction, a-b-db, 5, 3, 8, 1, 120, 195, 195, 120, 117, 190, 2, 1.882
240, 6, wb, attraction, a-b-db, 2, 3, 8, 2, 119, 193, 120, 195, 195, 120, 3, 4.36386
240, 6, wb, attraction, a-b-db, 2, 3, 8, 2, 119, 193, 120, 195, 195, 120, 1, 0.427077
240, 6, wb, attraction, a-b-da, 5, 1, 8, 3, 135, 60, 60, 135, 132, 58, 1, 4.60765
240, 6, wb, attraction, a-b-da, 5, 1, 8, 3, 135, 60, 60, 135, 132, 58, 2, 1.62885
240, 6, wb, attraction, a-b-db, 14, 1, 8, 4, 60, 135, 56, 125, 135, 60, 1, 4.70492
240, 6, wb, attraction, a-b-db, 14, 1, 8, 4, 60, 135, 56, 125, 135, 60, 3, 0.946049
240, 6, wb, attraction, a-b-da, 5, 2, 8, 5, 165, 90, 161, 88, 90, 165, 2, 3.42567
240, 6, wb, attraction, a-b-da, 5, 2, 8, 5, 165, 90, 161, 88, 90, 165, 1, 0.390625
240, 6, wb, attraction, a-b-da, 2, 2, 8, 6, 90, 165, 163, 89, 165, 90, 3, 2.85247
240, 6, wb, attraction, a-b-da, 2, 2, 8, 6, 90, 165, 163, 89, 165, 90, 2, 0.568897
240, 6, wb, attraction, a-b-da, 14, 1, 8, 7, 125, 56, 60, 135, 135, 60, 1, 3.92794
240, 6, wb, attraction, a-b-da, 14, 1, 8, 7, 125, 56, 60, 135, 135, 60, 3, 1.16072
240, 6, wb, attraction, a-b-db, 9, 2, 8, 8, 86, 157, 165, 90, 90, 165, 2, 5.06361
240, 6, wb, attraction, a-b-db, 9, 2, 8, 8, 86, 157, 165, 90, 90, 165, 3, 1.01867
240, 6, wb, filler, NA, 999, 999, 8, 9, 78, 135, 166, 126, 163, 144, 1, 0.999569
240, 6, wb, filler, NA, 999, 999, 8, 9, 78, 135, 166, 126, 163, 144, 3, 0.934659
240, 6, wb, catch, NA, 999, 999, 8, 10, 111, 144, 61, 134, 137, 178, 2, 0.902938
240, 6, wb, catch, NA, 999, 999, 8, 10, 111, 144, 61, 134, 137, 178, 3, 0.489984
240, 6, wb, filler, NA, 999, 999, 8, 11, 164, 134, 86, 156, 67, 140, 3, 1.41979
240, 6, wb, filler, NA, 999, 999, 8, 11, 164, 134, 86, 156, 67, 140, 1, 0.57798
240, 6, wb, filler, NA, 999, 999, 8, 12, 109, 123, 148, 167, 145, 150, 1, 1.63244
240, 6, wb, filler, NA, 999, 999, 8, 12, 109, 123, 148, 167, 145, 150, 2, 0.461865
240, 6, wb, filler, NA, 999, 999, 8, 13, 135, 191, 180, 139, 81, 173, 3, 1.06506
240, 6, wb, filler, NA, 999, 999, 8, 13, 135, 191, 180, 139, 81, 173, 2, 4.61334
240, 6, wb, attraction, a-b-da, 14, 3, 8, 14, 120, 195, 181, 111, 195, 120, 2, 5.64908
240, 6, wb, attraction, a-b-da, 14, 3, 8, 14, 120, 195, 181, 111, 195, 120, 1, 0.700676
240, 6, wb, filler, NA, 999, 999, 8, 15, 169, 69, 125, 84, 163, 158, 2, 3.07048
240, 6, wb, filler, NA, 999, 999, 8, 15, 169, 69, 125, 84, 163, 158, 3, 0.466146
240, 6, wb, attraction, a-b-db, 2, 2, 8, 16, 165, 90, 89, 163, 90, 165, 1, 7.25323
240, 6, wb, attraction, a-b-db, 2, 2, 8, 16, 165, 90, 89, 163, 90, 165, 3, 1.00023
240, 6, wb, attraction, a-b-db, 9, 1, 8, 17, 60, 135, 135, 60, 57, 129, 3, 2.26988
240, 6, wb, attraction, a-b-db, 9, 1, 8, 17, 60, 135, 135, 60, 57, 129, 1, 1.32989
240, 6, wb, attraction, a-b-da, 2, 1, 8, 18, 134, 59, 135, 60, 60, 135, 1, 4.85007
240, 6, wb, attraction, a-b-da, 2, 1, 8, 18, 134, 59, 135, 60, 60, 135, 3, 0.477788
240, 6, wb, attraction, a-b-db, 14, 2, 8, 19, 83, 153, 165, 90, 90, 165, 3, 2.57618
240, 6, wb, attraction, a-b-db, 14, 2, 8, 19, 83, 153, 165, 90, 90, 165, 2, 1.00734
240, 6, wb, attraction, a-b-da, 14, 2, 8, 20, 153, 83, 165, 90, 90, 165, 1, 9.30041
240, 6, wb, attraction, a-b-da, 14, 2, 8, 20, 153, 83, 165, 90, 90, 165, 3, 0.660947
240, 6, wb, attraction, a-b-db, 9, 3, 8, 21, 114, 186, 195, 120, 120, 195, 1, 4.35982
240, 6, wb, attraction, a-b-db, 9, 3, 8, 21, 114, 186, 195, 120, 120, 195, 3, 1.37519
240, 6, wb, attraction, a-b-da, 5, 3, 8, 22, 120, 195, 195, 120, 190, 117, 3, 1.52526
240, 6, wb, attraction, a-b-da, 5, 3, 8, 22, 120, 195, 195, 120, 190, 117, 1, 0.582755
240, 6, wb, filler, NA, 999, 999, 8, 23, 81, 146, 91, 84, 141, 103, 2, 0.869324
240, 6, wb, filler, NA, 999, 999, 8, 23, 81, 146, 91, 84, 141, 103, 3, 0.865666
240, 6, wb, attraction, a-b-db, 5, 1, 8, 24, 135, 60, 58, 132, 60, 135, 1, 2.97257
240, 6, wb, attraction, a-b-db, 5, 1, 8, 24, 135, 60, 58, 132, 60, 135, 3, 0.483635
240, 6, wb, catch, NA, 999, 999, 8, 25, 126, 129, 135, 60, 149, 166, 2, 0.814042
240, 6, wb, catch, NA, 999, 999, 8, 25, 126, 129, 135, 60, 149, 166, 3, 0.41247
240, 6, wb, attraction, a-b-da, 2, 3, 8, 26, 120, 195, 195, 120, 193, 119, 3, 3.12963
240, 6, wb, attraction, a-b-da, 2, 3, 8, 26, 120, 195, 195, 120, 193, 119, 1, 0.666599
240, 6, wb, attraction, a-b-db, 2, 1, 8, 27, 59, 134, 60, 135, 135, 60, 3, 2.71773
240, 6, wb, attraction, a-b-db, 2, 1, 8, 27, 59, 134, 60, 135, 135, 60, 2, 0.479456
240, 6, wb, attraction, a-b-db, 5, 2, 8, 28, 165, 90, 88, 161, 90, 165, 1, 2.66612
240, 6, wb, attraction, a-b-db, 5, 2, 8, 28, 165, 90, 88, 161, 90, 165, 2, 0.701685
240, 6, wb, filler, NA, 999, 999, 8, 29, 112, 106, 119, 180, 189, 168, 1, 1.01543
240, 6, wb, filler, NA, 999, 999, 8, 29, 112, 106, 119, 180, 189, 168, 3, 0.493746
240, 6, wb, filler, NA, 999, 999, 8, 30, 129, 192, 116, 103, 71, 85, 3, 0.687621
240, 6, wb, filler, NA, 999, 999, 8, 30, 129, 192, 116, 103, 71, 85, 1, 0.378634
240, 6, wb, attraction, a-b-da, 9, 2, 8, 31, 157, 86, 90, 165, 165, 90, 3, 4.08918
240, 6, wb, attraction, a-b-da, 9, 2, 8, 31, 157, 86, 90, 165, 165, 90, 2, 0.491314
240, 6, wb, filler, NA, 999, 999, 8, 32, 136, 136, 177, 178, 61, 126, 3, 0.8529
240, 6, wb, filler, NA, 999, 999, 8, 32, 136, 136, 177, 178, 61, 126, 2, 0.49814
240, 6, wb, catch, NA, 999, 999, 8, 33, 126, 189, 101, 154, 101, 94, 3, 0.971796
240, 6, wb, catch, NA, 999, 999, 8, 33, 126, 189, 101, 154, 101, 94, 1, 0.611461
240, 6, wb, attraction, a-b-da, 9, 1, 8, 34, 129, 57, 135, 60, 60, 135, 1, 3.66455
240, 6, wb, attraction, a-b-da, 9, 1, 8, 34, 129, 57, 135, 60, 60, 135, 3, 0.484028
240, 6, wb, filler, NA, 999, 999, 8, 35, 171, 89, 84, 186, 81, 181, 1, 2.50256
240, 6, wb, filler, NA, 999, 999, 8, 35, 171, 89, 84, 186, 81, 181, 2, 0.865073
240, 6, wb, attraction, a-b-db, 14, 3, 8, 36, 120, 195, 111, 181, 195, 120, 3, 2.21209
240, 6, wb, attraction, a-b-db, 14, 3, 8, 36, 120, 195, 111, 181, 195, 120, 1, 1.60199
240, 6, wb, attraction, a-b-da, 9, 3, 8, 37, 195, 120, 186, 114, 120, 195, 2, 2.05538
240, 6, wb, attraction, a-b-da, 9, 3, 8, 37, 195, 120, 186, 114, 120, 195, 3, 0.35539
