sub_n, computer_n, bw_cond, effect, set, distance, diag, block_n, trial_n, h1, w1, h2, w2, h3, w3, choice, rt 
281, 6, bw, practice, NA, 999, 999, 0, 1, 66, 96, 190, 162, 90, 57, 2, 2.91812
281, 6, bw, practice, NA, 999, 999, 0, 1, 66, 96, 190, 162, 90, 57, 1, 4.23253
281, 6, bw, practice, NA, 999, 999, 0, 2, 128, 164, 103, 184, 73, 139, 1, 3.14455
281, 6, bw, practice, NA, 999, 999, 0, 2, 128, 164, 103, 184, 73, 139, 3, 1.37717
281, 6, bw, practice, NA, 999, 999, 0, 3, 77, 105, 166, 156, 100, 83, 2, 1.83578
281, 6, bw, practice, NA, 999, 999, 0, 3, 77, 105, 166, 156, 100, 83, 1, 4.77108
281, 6, bw, filler, NA, 999, 999, 1, 1, 178, 138, 89, 169, 112, 146, 1, 2.43661
281, 6, bw, filler, NA, 999, 999, 1, 1, 178, 138, 89, 169, 112, 146, 3, 3.88986
281, 6, bw, catch, NA, 999, 999, 1, 2, 103, 152, 192, 123, 76, 119, 2, 2.43528
281, 6, bw, catch, NA, 999, 999, 1, 2, 103, 152, 192, 123, 76, 119, 3, 1.0725
281, 6, bw, attraction, a-b-da, 14, 1, 1, 3, 60, 135, 135, 60, 125, 56, 1, 4.05938
281, 6, bw, attraction, a-b-da, 14, 1, 1, 3, 60, 135, 135, 60, 125, 56, 3, 2.07081
281, 6, bw, attraction, a-b-da, 14, 3, 1, 4, 195, 120, 181, 111, 120, 195, 3, 2.36947
281, 6, bw, attraction, a-b-da, 14, 3, 1, 4, 195, 120, 181, 111, 120, 195, 2, 1.48137
281, 6, bw, filler, NA, 999, 999, 1, 5, 61, 108, 154, 190, 171, 119, 2, 2.38745
281, 6, bw, filler, NA, 999, 999, 1, 5, 61, 108, 154, 190, 171, 119, 1, 0.913997
281, 6, bw, attraction, a-b-db, 5, 3, 1, 6, 195, 120, 120, 195, 117, 190, 2, 3.01899
281, 6, bw, attraction, a-b-db, 5, 3, 1, 6, 195, 120, 120, 195, 117, 190, 1, 1.58483
281, 6, bw, filler, NA, 999, 999, 1, 7, 195, 60, 131, 170, 79, 195, 2, 2.43881
281, 6, bw, filler, NA, 999, 999, 1, 7, 195, 60, 131, 170, 79, 195, 1, 2.41148
281, 6, bw, attraction, a-b-da, 2, 2, 1, 8, 90, 165, 163, 89, 165, 90, 1, 3.89597
281, 6, bw, attraction, a-b-da, 2, 2, 1, 8, 90, 165, 163, 89, 165, 90, 3, 1.20993
281, 6, bw, filler, NA, 999, 999, 1, 9, 104, 69, 154, 111, 125, 182, 3, 1.27887
281, 6, bw, filler, NA, 999, 999, 1, 9, 104, 69, 154, 111, 125, 182, 1, 1.1944
281, 6, bw, filler, NA, 999, 999, 1, 10, 75, 83, 163, 149, 194, 105, 2, 1.41592
281, 6, bw, filler, NA, 999, 999, 1, 10, 75, 83, 163, 149, 194, 105, 1, 1.29423
281, 6, bw, filler, NA, 999, 999, 1, 11, 62, 57, 134, 101, 185, 184, 3, 0.967722
281, 6, bw, filler, NA, 999, 999, 1, 11, 62, 57, 134, 101, 185, 184, 1, 1.00005
281, 6, bw, attraction, a-b-db, 14, 1, 1, 12, 56, 125, 135, 60, 60, 135, 3, 4.10976
281, 6, bw, attraction, a-b-db, 14, 1, 1, 12, 56, 125, 135, 60, 60, 135, 1, 0.991151
281, 6, bw, attraction, a-b-db, 2, 3, 1, 13, 120, 195, 195, 120, 119, 193, 1, 3.94076
281, 6, bw, attraction, a-b-db, 2, 3, 1, 13, 120, 195, 195, 120, 119, 193, 2, 1.87674
281, 6, bw, filler, NA, 999, 999, 1, 14, 150, 108, 195, 167, 172, 65, 2, 0.942783
281, 6, bw, filler, NA, 999, 999, 1, 14, 150, 108, 195, 167, 172, 65, 3, 0.839864
281, 6, bw, attraction, a-b-db, 14, 2, 1, 15, 83, 153, 165, 90, 90, 165, 3, 2.53957
281, 6, bw, attraction, a-b-db, 14, 2, 1, 15, 83, 153, 165, 90, 90, 165, 1, 1.10806
281, 6, bw, attraction, a-b-db, 2, 2, 1, 16, 90, 165, 89, 163, 165, 90, 1, 2.72491
281, 6, bw, attraction, a-b-db, 2, 2, 1, 16, 90, 165, 89, 163, 165, 90, 2, 1.02203
281, 6, bw, attraction, a-b-db, 9, 2, 1, 17, 86, 157, 165, 90, 90, 165, 3, 3.81094
281, 6, bw, attraction, a-b-db, 9, 2, 1, 17, 86, 157, 165, 90, 90, 165, 1, 0.728408
281, 6, bw, attraction, a-b-da, 2, 3, 1, 18, 193, 119, 195, 120, 120, 195, 3, 3.1528
281, 6, bw, attraction, a-b-da, 2, 3, 1, 18, 193, 119, 195, 120, 120, 195, 1, 0.817106
281, 6, bw, attraction, a-b-da, 14, 2, 1, 19, 153, 83, 90, 165, 165, 90, 2, 3.38212
281, 6, bw, attraction, a-b-da, 14, 2, 1, 19, 153, 83, 90, 165, 165, 90, 1, 0.693183
281, 6, bw, filler, NA, 999, 999, 1, 20, 163, 137, 134, 131, 56, 69, 1, 1.59889
281, 6, bw, filler, NA, 999, 999, 1, 20, 163, 137, 134, 131, 56, 69, 3, 0.701612
281, 6, bw, attraction, a-b-db, 5, 2, 1, 21, 165, 90, 88, 161, 90, 165, 1, 2.85536
281, 6, bw, attraction, a-b-db, 5, 2, 1, 21, 165, 90, 88, 161, 90, 165, 2, 2.1952
281, 6, bw, catch, NA, 999, 999, 1, 22, 139, 116, 101, 94, 181, 134, 3, 1.4403
281, 6, bw, catch, NA, 999, 999, 1, 22, 139, 116, 101, 94, 181, 134, 2, 0.781156
281, 6, bw, filler, NA, 999, 999, 1, 23, 170, 151, 71, 101, 97, 58, 1, 1.00364
281, 6, bw, filler, NA, 999, 999, 1, 23, 170, 151, 71, 101, 97, 58, 3, 1.85063
281, 6, bw, attraction, a-b-db, 9, 3, 1, 24, 114, 186, 120, 195, 195, 120, 2, 2.78197
281, 6, bw, attraction, a-b-db, 9, 3, 1, 24, 114, 186, 120, 195, 195, 120, 1, 1.26101
281, 6, bw, attraction, a-b-da, 9, 2, 1, 25, 90, 165, 157, 86, 165, 90, 1, 2.28784
281, 6, bw, attraction, a-b-da, 9, 2, 1, 25, 90, 165, 157, 86, 165, 90, 2, 1.93049
281, 6, bw, attraction, a-b-da, 5, 3, 1, 26, 190, 117, 195, 120, 120, 195, 3, 2.09053
281, 6, bw, attraction, a-b-da, 5, 3, 1, 26, 190, 117, 195, 120, 120, 195, 2, 0.445219
281, 6, bw, attraction, a-b-da, 9, 3, 1, 27, 186, 114, 195, 120, 120, 195, 3, 4.881
281, 6, bw, attraction, a-b-da, 9, 3, 1, 27, 186, 114, 195, 120, 120, 195, 1, 1.24343
281, 6, bw, attraction, a-b-db, 14, 3, 1, 28, 111, 181, 195, 120, 120, 195, 2, 2.55896
281, 6, bw, attraction, a-b-db, 14, 3, 1, 28, 111, 181, 195, 120, 120, 195, 1, 0.662847
281, 6, bw, attraction, a-b-db, 2, 1, 1, 29, 135, 60, 60, 135, 59, 134, 1, 2.68189
281, 6, bw, attraction, a-b-db, 2, 1, 1, 29, 135, 60, 60, 135, 59, 134, 3, 1.149
281, 6, bw, filler, NA, 999, 999, 1, 30, 114, 101, 129, 61, 125, 117, 3, 1.34065
281, 6, bw, filler, NA, 999, 999, 1, 30, 114, 101, 129, 61, 125, 117, 2, 0.621478
281, 6, bw, attraction, a-b-db, 5, 1, 1, 31, 58, 132, 60, 135, 135, 60, 3, 2.09062
281, 6, bw, attraction, a-b-db, 5, 1, 1, 31, 58, 132, 60, 135, 135, 60, 1, 1.30123
281, 6, bw, attraction, a-b-da, 5, 2, 1, 32, 161, 88, 165, 90, 90, 165, 2, 3.64676
281, 6, bw, attraction, a-b-da, 5, 2, 1, 32, 161, 88, 165, 90, 90, 165, 1, 0.618882
281, 6, bw, attraction, a-b-da, 5, 1, 1, 33, 60, 135, 135, 60, 132, 58, 1, 2.43191
281, 6, bw, attraction, a-b-da, 5, 1, 1, 33, 60, 135, 135, 60, 132, 58, 2, 1.06115
281, 6, bw, attraction, a-b-da, 9, 1, 1, 34, 60, 135, 129, 57, 135, 60, 3, 4.95225
281, 6, bw, attraction, a-b-da, 9, 1, 1, 34, 60, 135, 129, 57, 135, 60, 2, 0.383847
281, 6, bw, catch, NA, 999, 999, 1, 35, 118, 77, 193, 122, 126, 129, 2, 1.50233
281, 6, bw, catch, NA, 999, 999, 1, 35, 118, 77, 193, 122, 126, 129, 1, 0.449209
281, 6, bw, attraction, a-b-db, 9, 1, 1, 36, 57, 129, 135, 60, 60, 135, 3, 1.78099
281, 6, bw, attraction, a-b-db, 9, 1, 1, 36, 57, 129, 135, 60, 60, 135, 1, 1.0204
281, 6, bw, attraction, a-b-da, 2, 1, 1, 37, 60, 135, 134, 59, 135, 60, 3, 5.85739
281, 6, bw, attraction, a-b-da, 2, 1, 1, 37, 60, 135, 134, 59, 135, 60, 2, 0.668228
281, 6, bw, catch, NA, 999, 999, 2, 1, 76, 119, 144, 111, 168, 147, 3, 1.06323
281, 6, bw, catch, NA, 999, 999, 2, 1, 76, 119, 144, 111, 168, 147, 1, 1.57955
281, 6, bw, attraction, a-b-da, 9, 2, 2, 2, 90, 165, 165, 90, 157, 86, 1, 5.50569
281, 6, bw, attraction, a-b-da, 9, 2, 2, 2, 90, 165, 165, 90, 157, 86, 2, 0.746571
281, 6, bw, filler, NA, 999, 999, 2, 3, 160, 89, 106, 98, 122, 95, 1, 3.75434
281, 6, bw, filler, NA, 999, 999, 2, 3, 160, 89, 106, 98, 122, 95, 2, 1.13056
281, 6, bw, filler, NA, 999, 999, 2, 4, 130, 117, 162, 136, 129, 75, 2, 1.04275
281, 6, bw, filler, NA, 999, 999, 2, 4, 130, 117, 162, 136, 129, 75, 3, 0.759806
281, 6, bw, attraction, a-b-da, 5, 2, 2, 5, 161, 88, 90, 165, 165, 90, 2, 4.18286
281, 6, bw, attraction, a-b-da, 5, 2, 2, 5, 161, 88, 90, 165, 165, 90, 1, 0.861487
281, 6, bw, attraction, a-b-db, 5, 1, 2, 6, 135, 60, 58, 132, 60, 135, 1, 5.96831
281, 6, bw, attraction, a-b-db, 5, 1, 2, 6, 135, 60, 58, 132, 60, 135, 2, 1.29515
281, 6, bw, attraction, a-b-db, 5, 2, 2, 7, 165, 90, 90, 165, 88, 161, 1, 6.07277
281, 6, bw, attraction, a-b-db, 5, 2, 2, 7, 165, 90, 90, 165, 88, 161, 3, 1.94683
281, 6, bw, attraction, a-b-da, 14, 1, 2, 8, 60, 135, 135, 60, 125, 56, 1, 3.66612
281, 6, bw, attraction, a-b-da, 14, 1, 2, 8, 60, 135, 135, 60, 125, 56, 3, 0.941649
281, 6, bw, attraction, a-b-db, 9, 3, 2, 9, 195, 120, 114, 186, 120, 195, 1, 3.39731
281, 6, bw, attraction, a-b-db, 9, 3, 2, 9, 195, 120, 114, 186, 120, 195, 3, 1.93945
281, 6, bw, filler, NA, 999, 999, 2, 10, 101, 70, 175, 57, 168, 172, 3, 0.931425
281, 6, bw, filler, NA, 999, 999, 2, 10, 101, 70, 175, 57, 168, 172, 1, 0.517187
281, 6, bw, attraction, a-b-db, 2, 2, 2, 11, 89, 163, 165, 90, 90, 165, 3, 5.83045
281, 6, bw, attraction, a-b-db, 2, 2, 2, 11, 89, 163, 165, 90, 90, 165, 2, 0.586403
281, 6, bw, catch, NA, 999, 999, 2, 12, 159, 96, 155, 160, 134, 61, 2, 0.74488
281, 6, bw, catch, NA, 999, 999, 2, 12, 159, 96, 155, 160, 134, 61, 3, 0.86596
281, 6, bw, filler, NA, 999, 999, 2, 13, 127, 181, 178, 146, 84, 121, 2, 2.05302
281, 6, bw, filler, NA, 999, 999, 2, 13, 127, 181, 178, 146, 84, 121, 3, 0.593602
281, 6, bw, attraction, a-b-da, 2, 2, 2, 14, 165, 90, 90, 165, 163, 89, 3, 5.34339
281, 6, bw, attraction, a-b-da, 2, 2, 2, 14, 165, 90, 90, 165, 163, 89, 2, 2.27893
281, 6, bw, filler, NA, 999, 999, 2, 15, 183, 101, 155, 115, 90, 104, 2, 3.26492
281, 6, bw, filler, NA, 999, 999, 2, 15, 183, 101, 155, 115, 90, 104, 3, 0.492581
281, 6, bw, attraction, a-b-da, 2, 1, 2, 16, 134, 59, 135, 60, 60, 135, 1, 5.22244
281, 6, bw, attraction, a-b-da, 2, 1, 2, 16, 134, 59, 135, 60, 60, 135, 3, 0.666585
281, 6, bw, attraction, a-b-da, 9, 1, 2, 17, 60, 135, 129, 57, 135, 60, 3, 1.42971
281, 6, bw, attraction, a-b-da, 9, 1, 2, 17, 60, 135, 129, 57, 135, 60, 1, 0.611232
281, 6, bw, filler, NA, 999, 999, 2, 18, 164, 167, 173, 82, 117, 151, 1, 1.64838
281, 6, bw, filler, NA, 999, 999, 2, 18, 164, 167, 173, 82, 117, 151, 2, 0.613181
281, 6, bw, attraction, a-b-db, 9, 2, 2, 19, 86, 157, 165, 90, 90, 165, 3, 2.53814
281, 6, bw, attraction, a-b-db, 9, 2, 2, 19, 86, 157, 165, 90, 90, 165, 1, 0.390435
281, 6, bw, attraction, a-b-db, 2, 1, 2, 20, 59, 134, 135, 60, 60, 135, 3, 2.2085
281, 6, bw, attraction, a-b-db, 2, 1, 2, 20, 59, 134, 135, 60, 60, 135, 1, 1.05445
281, 6, bw, attraction, a-b-da, 14, 3, 2, 21, 181, 111, 195, 120, 120, 195, 3, 4.6662
281, 6, bw, attraction, a-b-da, 14, 3, 2, 21, 181, 111, 195, 120, 120, 195, 1, 0.34928
281, 6, bw, attraction, a-b-da, 2, 3, 2, 22, 195, 120, 193, 119, 120, 195, 3, 2.58912
281, 6, bw, attraction, a-b-da, 2, 3, 2, 22, 195, 120, 193, 119, 120, 195, 1, 0.4036
281, 6, bw, attraction, a-b-db, 14, 3, 2, 23, 195, 120, 111, 181, 120, 195, 3, 3.5294
281, 6, bw, attraction, a-b-db, 14, 3, 2, 23, 195, 120, 111, 181, 120, 195, 2, 0.602298
281, 6, bw, attraction, a-b-db, 5, 3, 2, 24, 120, 195, 195, 120, 117, 190, 3, 2.37613
281, 6, bw, attraction, a-b-db, 5, 3, 2, 24, 120, 195, 195, 120, 117, 190, 2, 2.21527
281, 6, bw, attraction, a-b-db, 2, 3, 2, 25, 120, 195, 119, 193, 195, 120, 1, 1.46785
281, 6, bw, attraction, a-b-db, 2, 3, 2, 25, 120, 195, 119, 193, 195, 120, 3, 0.760047
281, 6, bw, attraction, a-b-da, 5, 3, 2, 26, 120, 195, 195, 120, 190, 117, 1, 1.95107
281, 6, bw, attraction, a-b-da, 5, 3, 2, 26, 120, 195, 195, 120, 190, 117, 3, 0.951814
281, 6, bw, attraction, a-b-db, 9, 1, 2, 27, 135, 60, 57, 129, 60, 135, 1, 3.4475
281, 6, bw, attraction, a-b-db, 9, 1, 2, 27, 135, 60, 57, 129, 60, 135, 2, 0.459727
281, 6, bw, attraction, a-b-db, 14, 1, 2, 28, 135, 60, 60, 135, 56, 125, 1, 1.81481
281, 6, bw, attraction, a-b-db, 14, 1, 2, 28, 135, 60, 60, 135, 56, 125, 3, 0.620834
281, 6, bw, filler, NA, 999, 999, 2, 29, 139, 188, 124, 187, 175, 153, 1, 3.09812
281, 6, bw, filler, NA, 999, 999, 2, 29, 139, 188, 124, 187, 175, 153, 3, 1.83628
281, 6, bw, attraction, a-b-da, 14, 2, 2, 30, 153, 83, 90, 165, 165, 90, 3, 2.36827
281, 6, bw, attraction, a-b-da, 14, 2, 2, 30, 153, 83, 90, 165, 165, 90, 1, 0.808213
281, 6, bw, attraction, a-b-da, 9, 3, 2, 31, 186, 114, 120, 195, 195, 120, 2, 2.06124
281, 6, bw, attraction, a-b-da, 9, 3, 2, 31, 186, 114, 120, 195, 195, 120, 1, 0.505151
281, 6, bw, attraction, a-b-da, 5, 1, 2, 32, 135, 60, 60, 135, 132, 58, 1, 2.50701
281, 6, bw, attraction, a-b-da, 5, 1, 2, 32, 135, 60, 60, 135, 132, 58, 3, 0.42886
281, 6, bw, filler, NA, 999, 999, 2, 33, 166, 153, 191, 158, 123, 61, 2, 1.41741
281, 6, bw, filler, NA, 999, 999, 2, 33, 166, 153, 191, 158, 123, 61, 3, 0.439588
281, 6, bw, filler, NA, 999, 999, 2, 34, 73, 88, 127, 123, 61, 120, 2, 1.2675
281, 6, bw, filler, NA, 999, 999, 2, 34, 73, 88, 127, 123, 61, 120, 1, 0.535639
281, 6, bw, filler, NA, 999, 999, 2, 35, 193, 140, 90, 65, 61, 120, 1, 1.43204
281, 6, bw, filler, NA, 999, 999, 2, 35, 193, 140, 90, 65, 61, 120, 2, 0.725567
281, 6, bw, attraction, a-b-db, 14, 2, 2, 36, 165, 90, 83, 153, 90, 165, 3, 3.15801
281, 6, bw, attraction, a-b-db, 14, 2, 2, 36, 165, 90, 83, 153, 90, 165, 2, 0.397562
281, 6, bw, catch, NA, 999, 999, 2, 37, 150, 105, 171, 144, 109, 86, 2, 0.699374
281, 6, bw, catch, NA, 999, 999, 2, 37, 150, 105, 171, 144, 109, 86, 3, 0.718443
281, 6, bw, filler, NA, 999, 999, 3, 1, 96, 179, 83, 78, 115, 169, 3, 0.975546
281, 6, bw, filler, NA, 999, 999, 3, 1, 96, 179, 83, 78, 115, 169, 2, 0.863209
281, 6, bw, attraction, a-b-da, 5, 3, 3, 2, 120, 195, 195, 120, 190, 117, 1, 2.76222
281, 6, bw, attraction, a-b-da, 5, 3, 3, 2, 120, 195, 195, 120, 190, 117, 3, 0.386111
281, 6, bw, attraction, a-b-db, 2, 1, 3, 3, 60, 135, 135, 60, 59, 134, 2, 2.12857
281, 6, bw, attraction, a-b-db, 2, 1, 3, 3, 60, 135, 135, 60, 59, 134, 3, 0.361804
281, 6, bw, attraction, a-b-db, 5, 1, 3, 4, 58, 132, 135, 60, 60, 135, 3, 2.24887
281, 6, bw, attraction, a-b-db, 5, 1, 3, 4, 58, 132, 135, 60, 60, 135, 1, 0.429623
281, 6, bw, attraction, a-b-db, 2, 3, 3, 5, 120, 195, 119, 193, 195, 120, 1, 1.81001
281, 6, bw, attraction, a-b-db, 2, 3, 3, 5, 120, 195, 119, 193, 195, 120, 2, 1.39202
281, 6, bw, attraction, a-b-db, 14, 2, 3, 6, 165, 90, 90, 165, 83, 153, 2, 2.00561
281, 6, bw, attraction, a-b-db, 14, 2, 3, 6, 165, 90, 90, 165, 83, 153, 3, 0.379613
281, 6, bw, attraction, a-b-da, 14, 2, 3, 7, 165, 90, 153, 83, 90, 165, 3, 4.77009
281, 6, bw, attraction, a-b-da, 14, 2, 3, 7, 165, 90, 153, 83, 90, 165, 2, 0.39328
281, 6, bw, attraction, a-b-da, 5, 1, 3, 8, 60, 135, 132, 58, 135, 60, 3, 1.40718
281, 6, bw, attraction, a-b-da, 5, 1, 3, 8, 60, 135, 132, 58, 135, 60, 1, 1.54132
281, 6, bw, attraction, a-b-db, 9, 3, 3, 9, 195, 120, 114, 186, 120, 195, 3, 1.79667
281, 6, bw, attraction, a-b-db, 9, 3, 3, 9, 195, 120, 114, 186, 120, 195, 1, 2.85147
281, 6, bw, filler, NA, 999, 999, 3, 10, 167, 107, 97, 161, 74, 99, 1, 3.16647
281, 6, bw, filler, NA, 999, 999, 3, 10, 167, 107, 97, 161, 74, 99, 3, 0.374155
281, 6, bw, catch, NA, 999, 999, 3, 11, 114, 81, 106, 149, 152, 163, 3, 0.860612
281, 6, bw, catch, NA, 999, 999, 3, 11, 114, 81, 106, 149, 152, 163, 1, 0.345074
281, 6, bw, attraction, a-b-da, 14, 3, 3, 12, 181, 111, 195, 120, 120, 195, 3, 2.09687
281, 6, bw, attraction, a-b-da, 14, 3, 3, 12, 181, 111, 195, 120, 120, 195, 1, 0.587684
281, 6, bw, attraction, a-b-da, 2, 2, 3, 13, 163, 89, 165, 90, 90, 165, 2, 2.52997
281, 6, bw, attraction, a-b-da, 2, 2, 3, 13, 163, 89, 165, 90, 90, 165, 1, 0.571214
281, 6, bw, filler, NA, 999, 999, 3, 14, 126, 190, 174, 75, 149, 64, 1, 2.31427
281, 6, bw, filler, NA, 999, 999, 3, 14, 126, 190, 174, 75, 149, 64, 3, 1.56429
281, 6, bw, attraction, a-b-db, 9, 1, 3, 15, 57, 129, 60, 135, 135, 60, 3, 3.01105
281, 6, bw, attraction, a-b-db, 9, 1, 3, 15, 57, 129, 60, 135, 135, 60, 1, 0.680681
281, 6, bw, filler, NA, 999, 999, 3, 16, 82, 173, 72, 110, 122, 97, 3, 1.28305
281, 6, bw, filler, NA, 999, 999, 3, 16, 82, 173, 72, 110, 122, 97, 2, 0.382762
281, 6, bw, filler, NA, 999, 999, 3, 17, 88, 168, 133, 160, 90, 116, 2, 0.853172
281, 6, bw, filler, NA, 999, 999, 3, 17, 88, 168, 133, 160, 90, 116, 3, 0.322106
281, 6, bw, attraction, a-b-da, 2, 3, 3, 18, 120, 195, 193, 119, 195, 120, 1, 2.5553
281, 6, bw, attraction, a-b-da, 2, 3, 3, 18, 120, 195, 193, 119, 195, 120, 2, 0.771165
281, 6, bw, attraction, a-b-db, 14, 3, 3, 19, 111, 181, 120, 195, 195, 120, 2, 3.12213
281, 6, bw, attraction, a-b-db, 14, 3, 3, 19, 111, 181, 120, 195, 195, 120, 1, 0.819208
281, 6, bw, attraction, a-b-da, 9, 1, 3, 20, 60, 135, 135, 60, 129, 57, 1, 2.86418
281, 6, bw, attraction, a-b-da, 9, 1, 3, 20, 60, 135, 135, 60, 129, 57, 3, 0.523924
281, 6, bw, attraction, a-b-db, 2, 2, 3, 21, 90, 165, 165, 90, 89, 163, 3, 2.59638
281, 6, bw, attraction, a-b-db, 2, 2, 3, 21, 90, 165, 165, 90, 89, 163, 1, 1.22697
281, 6, bw, filler, NA, 999, 999, 3, 22, 195, 64, 136, 147, 130, 182, 3, 3.85508
281, 6, bw, filler, NA, 999, 999, 3, 22, 195, 64, 136, 147, 130, 182, 1, 0.618512
281, 6, bw, attraction, a-b-db, 5, 2, 3, 23, 88, 161, 165, 90, 90, 165, 1, 5.23973
281, 6, bw, attraction, a-b-db, 5, 2, 3, 23, 88, 161, 165, 90, 90, 165, 2, 0.459272
281, 6, bw, attraction, a-b-da, 5, 2, 3, 24, 90, 165, 165, 90, 161, 88, 3, 2.68658
281, 6, bw, attraction, a-b-da, 5, 2, 3, 24, 90, 165, 165, 90, 161, 88, 1, 1.49758
281, 6, bw, attraction, a-b-db, 5, 3, 3, 25, 117, 190, 195, 120, 120, 195, 2, 3.41102
281, 6, bw, attraction, a-b-db, 5, 3, 3, 25, 117, 190, 195, 120, 120, 195, 1, 0.344607
281, 6, bw, attraction, a-b-da, 9, 2, 3, 26, 157, 86, 90, 165, 165, 90, 2, 1.81652
281, 6, bw, attraction, a-b-da, 9, 2, 3, 26, 157, 86, 90, 165, 165, 90, 1, 0.814623
281, 6, bw, filler, NA, 999, 999, 3, 27, 166, 58, 146, 139, 170, 128, 2, 2.24354
281, 6, bw, filler, NA, 999, 999, 3, 27, 166, 58, 146, 139, 170, 128, 1, 0.528146
281, 6, bw, catch, NA, 999, 999, 3, 28, 127, 68, 164, 151, 156, 99, 2, 0.664548
281, 6, bw, catch, NA, 999, 999, 3, 28, 127, 68, 164, 151, 156, 99, 1, 0.91705
281, 6, bw, attraction, a-b-da, 2, 1, 3, 29, 135, 60, 134, 59, 60, 135, 1, 1.40597
281, 6, bw, attraction, a-b-da, 2, 1, 3, 29, 135, 60, 134, 59, 60, 135, 3, 0.452286
281, 6, bw, attraction, a-b-da, 14, 1, 3, 30, 135, 60, 125, 56, 60, 135, 1, 1.16799
281, 6, bw, attraction, a-b-da, 14, 1, 3, 30, 135, 60, 125, 56, 60, 135, 3, 0.432248
281, 6, bw, filler, NA, 999, 999, 3, 31, 163, 174, 73, 78, 66, 171, 1, 0.628659
281, 6, bw, filler, NA, 999, 999, 3, 31, 163, 174, 73, 78, 66, 171, 2, 0.674514
281, 6, bw, filler, NA, 999, 999, 3, 32, 160, 120, 82, 67, 180, 195, 3, 0.821025
281, 6, bw, filler, NA, 999, 999, 3, 32, 160, 120, 82, 67, 180, 195, 2, 0.426623
281, 6, bw, attraction, a-b-db, 9, 2, 3, 33, 165, 90, 90, 165, 86, 157, 2, 1.83913
281, 6, bw, attraction, a-b-db, 9, 2, 3, 33, 165, 90, 90, 165, 86, 157, 3, 0.771909
281, 6, bw, catch, NA, 999, 999, 3, 34, 168, 147, 142, 113, 133, 62, 1, 0.906818
281, 6, bw, catch, NA, 999, 999, 3, 34, 168, 147, 142, 113, 133, 62, 3, 1.26934
281, 6, bw, filler, NA, 999, 999, 3, 35, 156, 79, 154, 162, 174, 59, 2, 0.656119
281, 6, bw, filler, NA, 999, 999, 3, 35, 156, 79, 154, 162, 174, 59, 3, 1.98066
281, 6, bw, attraction, a-b-db, 14, 1, 3, 36, 135, 60, 60, 135, 56, 125, 1, 2.17066
281, 6, bw, attraction, a-b-db, 14, 1, 3, 36, 135, 60, 60, 135, 56, 125, 3, 0.513843
281, 6, bw, attraction, a-b-da, 9, 3, 3, 37, 120, 195, 186, 114, 195, 120, 1, 1.73891
281, 6, bw, attraction, a-b-da, 9, 3, 3, 37, 120, 195, 186, 114, 195, 120, 2, 0.731693
281, 6, bw, attraction, a-b-da, 14, 2, 4, 1, 153, 83, 165, 90, 90, 165, 2, 1.00407
281, 6, bw, attraction, a-b-da, 14, 2, 4, 1, 153, 83, 165, 90, 90, 165, 1, 0.354343
281, 6, bw, attraction, a-b-db, 9, 2, 4, 2, 165, 90, 90, 165, 86, 157, 2, 1.17021
281, 6, bw, attraction, a-b-db, 9, 2, 4, 2, 165, 90, 90, 165, 86, 157, 1, 0.362496
281, 6, bw, catch, NA, 999, 999, 4, 3, 104, 151, 130, 185, 64, 131, 2, 1.26561
281, 6, bw, catch, NA, 999, 999, 4, 3, 104, 151, 130, 185, 64, 131, 3, 0.525936
281, 6, bw, filler, NA, 999, 999, 4, 4, 69, 65, 181, 92, 117, 185, 3, 0.630391
281, 6, bw, filler, NA, 999, 999, 4, 4, 69, 65, 181, 92, 117, 185, 1, 0.332197
281, 6, bw, filler, NA, 999, 999, 4, 5, 113, 185, 93, 77, 168, 175, 3, 0.508625
281, 6, bw, filler, NA, 999, 999, 4, 5, 113, 185, 93, 77, 168, 175, 2, 0.511088
281, 6, bw, filler, NA, 999, 999, 4, 6, 65, 97, 84, 152, 179, 59, 2, 1.28816
281, 6, bw, filler, NA, 999, 999, 4, 6, 65, 97, 84, 152, 179, 59, 1, 0.331236
281, 6, bw, attraction, a-b-db, 9, 1, 4, 7, 60, 135, 57, 129, 135, 60, 1, 1.35571
281, 6, bw, attraction, a-b-db, 9, 1, 4, 7, 60, 135, 57, 129, 135, 60, 3, 0.435892
281, 6, bw, attraction, a-b-db, 2, 3, 4, 8, 119, 193, 120, 195, 195, 120, 2, 1.44832
281, 6, bw, attraction, a-b-db, 2, 3, 4, 8, 119, 193, 120, 195, 195, 120, 3, 0.389248
281, 6, bw, filler, NA, 999, 999, 4, 9, 77, 119, 126, 187, 89, 160, 2, 0.547616
281, 6, bw, filler, NA, 999, 999, 4, 9, 77, 119, 126, 187, 89, 160, 1, 0.324778
281, 6, bw, attraction, a-b-da, 2, 3, 4, 10, 120, 195, 193, 119, 195, 120, 1, 1.14121
281, 6, bw, attraction, a-b-da, 2, 3, 4, 10, 120, 195, 193, 119, 195, 120, 2, 1.47026
281, 6, bw, filler, NA, 999, 999, 4, 11, 135, 144, 137, 164, 111, 149, 2, 1.28916
281, 6, bw, filler, NA, 999, 999, 4, 11, 135, 144, 137, 164, 111, 149, 3, 0.939967
281, 6, bw, filler, NA, 999, 999, 4, 12, 162, 89, 173, 102, 192, 176, 3, 0.755581
281, 6, bw, filler, NA, 999, 999, 4, 12, 162, 89, 173, 102, 192, 176, 1, 0.308053
281, 6, bw, attraction, a-b-da, 14, 3, 4, 13, 195, 120, 181, 111, 120, 195, 3, 1.64515
281, 6, bw, attraction, a-b-da, 14, 3, 4, 13, 195, 120, 181, 111, 120, 195, 2, 0.402034
281, 6, bw, attraction, a-b-db, 14, 3, 4, 14, 195, 120, 120, 195, 111, 181, 2, 2.07984
281, 6, bw, attraction, a-b-db, 14, 3, 4, 14, 195, 120, 120, 195, 111, 181, 3, 0.899162
281, 6, bw, attraction, a-b-da, 14, 1, 4, 15, 60, 135, 125, 56, 135, 60, 3, 0.75675
281, 6, bw, attraction, a-b-da, 14, 1, 4, 15, 60, 135, 125, 56, 135, 60, 2, 0.533266
281, 6, bw, attraction, a-b-db, 5, 3, 4, 16, 117, 190, 195, 120, 120, 195, 2, 0.909576
281, 6, bw, attraction, a-b-db, 5, 3, 4, 16, 117, 190, 195, 120, 120, 195, 1, 0.751987
281, 6, bw, attraction, a-b-db, 5, 1, 4, 17, 58, 132, 60, 135, 135, 60, 3, 1.63971
281, 6, bw, attraction, a-b-db, 5, 1, 4, 17, 58, 132, 60, 135, 135, 60, 2, 0.492617
281, 6, bw, attraction, a-b-da, 9, 1, 4, 18, 60, 135, 135, 60, 129, 57, 1, 1.02227
281, 6, bw, attraction, a-b-da, 9, 1, 4, 18, 60, 135, 135, 60, 129, 57, 3, 0.379972
281, 6, bw, catch, NA, 999, 999, 4, 19, 115, 80, 132, 123, 144, 171, 3, 0.754455
281, 6, bw, catch, NA, 999, 999, 4, 19, 115, 80, 132, 123, 144, 171, 1, 0.354942
281, 6, bw, filler, NA, 999, 999, 4, 20, 165, 136, 126, 132, 102, 169, 1, 0.618645
281, 6, bw, filler, NA, 999, 999, 4, 20, 165, 136, 126, 132, 102, 169, 3, 1.85713
281, 6, bw, attraction, a-b-db, 5, 2, 4, 21, 90, 165, 165, 90, 88, 161, 1, 3.4598
281, 6, bw, attraction, a-b-db, 5, 2, 4, 21, 90, 165, 165, 90, 88, 161, 3, 0.391375
281, 6, bw, attraction, a-b-da, 9, 3, 4, 22, 195, 120, 186, 114, 120, 195, 3, 2.49324
281, 6, bw, attraction, a-b-da, 9, 3, 4, 22, 195, 120, 186, 114, 120, 195, 2, 0.5117
281, 6, bw, attraction, a-b-da, 5, 3, 4, 23, 190, 117, 120, 195, 195, 120, 2, 1.65685
281, 6, bw, attraction, a-b-da, 5, 3, 4, 23, 190, 117, 120, 195, 195, 120, 1, 0.325063
281, 6, bw, catch, NA, 999, 999, 4, 24, 115, 80, 158, 97, 152, 163, 3, 0.541513
281, 6, bw, catch, NA, 999, 999, 4, 24, 115, 80, 158, 97, 152, 163, 1, 0.454595
281, 6, bw, filler, NA, 999, 999, 4, 25, 170, 63, 66, 63, 193, 173, 3, 0.626414
281, 6, bw, filler, NA, 999, 999, 4, 25, 170, 63, 66, 63, 193, 173, 2, 0.352158
281, 6, bw, attraction, a-b-da, 5, 1, 4, 26, 60, 135, 135, 60, 132, 58, 3, 2.08803
281, 6, bw, attraction, a-b-da, 5, 1, 4, 26, 60, 135, 135, 60, 132, 58, 1, 0.394669
281, 6, bw, attraction, a-b-db, 2, 1, 4, 27, 59, 134, 135, 60, 60, 135, 3, 3.0164
281, 6, bw, attraction, a-b-db, 2, 1, 4, 27, 59, 134, 135, 60, 60, 135, 2, 0.566152
281, 6, bw, attraction, a-b-db, 2, 2, 4, 28, 89, 163, 90, 165, 165, 90, 3, 1.88526
281, 6, bw, attraction, a-b-db, 2, 2, 4, 28, 89, 163, 90, 165, 165, 90, 1, 0.440604
281, 6, bw, attraction, a-b-da, 9, 2, 4, 29, 165, 90, 90, 165, 157, 86, 2, 1.70839
281, 6, bw, attraction, a-b-da, 9, 2, 4, 29, 165, 90, 90, 165, 157, 86, 3, 0.374626
281, 6, bw, filler, NA, 999, 999, 4, 30, 174, 108, 110, 59, 181, 98, 1, 1.03704
281, 6, bw, filler, NA, 999, 999, 4, 30, 174, 108, 110, 59, 181, 98, 2, 0.433995
281, 6, bw, attraction, a-b-da, 2, 1, 4, 31, 135, 60, 60, 135, 134, 59, 3, 1.78261
281, 6, bw, attraction, a-b-da, 2, 1, 4, 31, 135, 60, 60, 135, 134, 59, 2, 0.381934
281, 6, bw, attraction, a-b-da, 2, 2, 4, 32, 163, 89, 165, 90, 90, 165, 3, 0.916396
281, 6, bw, attraction, a-b-da, 2, 2, 4, 32, 163, 89, 165, 90, 90, 165, 1, 0.686824
281, 6, bw, attraction, a-b-db, 14, 1, 4, 33, 60, 135, 135, 60, 56, 125, 3, 0.625098
281, 6, bw, attraction, a-b-db, 14, 1, 4, 33, 60, 135, 135, 60, 56, 125, 2, 0.43093
281, 6, bw, attraction, a-b-db, 9, 3, 4, 34, 120, 195, 195, 120, 114, 186, 1, 1.65937
281, 6, bw, attraction, a-b-db, 9, 3, 4, 34, 120, 195, 195, 120, 114, 186, 2, 0.255492
281, 6, bw, filler, NA, 999, 999, 4, 35, 97, 115, 98, 191, 106, 101, 2, 1.17158
281, 6, bw, filler, NA, 999, 999, 4, 35, 97, 115, 98, 191, 106, 101, 3, 0.298982
281, 6, bw, attraction, a-b-da, 5, 2, 4, 36, 165, 90, 90, 165, 161, 88, 2, 1.28484
281, 6, bw, attraction, a-b-da, 5, 2, 4, 36, 165, 90, 90, 165, 161, 88, 1, 0.272484
281, 6, bw, attraction, a-b-db, 14, 2, 4, 37, 165, 90, 83, 153, 90, 165, 3, 1.17972
281, 6, bw, attraction, a-b-db, 14, 2, 4, 37, 165, 90, 83, 153, 90, 165, 2, 0.315139
281, 6, bw, attraction, a-b-db, 5, 3, 5, 1, 195, 120, 117, 190, 120, 195, 3, 4.891
281, 6, bw, attraction, a-b-db, 5, 3, 5, 1, 195, 120, 117, 190, 120, 195, 2, 0.948837
281, 6, bw, attraction, a-b-db, 9, 2, 5, 2, 90, 165, 165, 90, 86, 157, 1, 1.33238
281, 6, bw, attraction, a-b-db, 9, 2, 5, 2, 90, 165, 165, 90, 86, 157, 2, 0.677962
281, 6, bw, filler, NA, 999, 999, 5, 3, 182, 81, 128, 97, 129, 110, 3, 1.02434
281, 6, bw, filler, NA, 999, 999, 5, 3, 182, 81, 128, 97, 129, 110, 2, 0.74199
281, 6, bw, filler, NA, 999, 999, 5, 4, 81, 128, 158, 184, 84, 87, 2, 0.829689
281, 6, bw, filler, NA, 999, 999, 5, 4, 81, 128, 158, 184, 84, 87, 3, 0.627584
281, 6, bw, filler, NA, 999, 999, 5, 5, 76, 126, 172, 180, 135, 83, 2, 0.599808
281, 6, bw, filler, NA, 999, 999, 5, 5, 76, 126, 172, 180, 135, 83, 1, 0.918917
281, 6, bw, attraction, a-b-db, 2, 2, 5, 6, 89, 163, 165, 90, 90, 165, 3, 0.928023
281, 6, bw, attraction, a-b-db, 2, 2, 5, 6, 89, 163, 165, 90, 90, 165, 1, 0.569654
281, 6, bw, filler, NA, 999, 999, 5, 7, 170, 130, 111, 80, 140, 104, 1, 0.616718
281, 6, bw, filler, NA, 999, 999, 5, 7, 170, 130, 111, 80, 140, 104, 2, 0.375188
281, 6, bw, catch, NA, 999, 999, 5, 8, 153, 162, 60, 135, 116, 139, 1, 0.709646
281, 6, bw, catch, NA, 999, 999, 5, 8, 153, 162, 60, 135, 116, 139, 2, 0.304094
281, 6, bw, attraction, a-b-da, 14, 3, 5, 9, 195, 120, 181, 111, 120, 195, 3, 1.55391
281, 6, bw, attraction, a-b-da, 14, 3, 5, 9, 195, 120, 181, 111, 120, 195, 2, 1.46603
281, 6, bw, filler, NA, 999, 999, 5, 10, 174, 176, 163, 68, 118, 132, 1, 0.788869
281, 6, bw, filler, NA, 999, 999, 5, 10, 174, 176, 163, 68, 118, 132, 2, 0.564066
281, 6, bw, filler, NA, 999, 999, 5, 11, 64, 105, 155, 72, 112, 179, 3, 0.707132
281, 6, bw, filler, NA, 999, 999, 5, 11, 64, 105, 155, 72, 112, 179, 1, 0.381472
281, 6, bw, attraction, a-b-db, 2, 1, 5, 12, 59, 134, 135, 60, 60, 135, 3, 1.27599
281, 6, bw, attraction, a-b-db, 2, 1, 5, 12, 59, 134, 135, 60, 60, 135, 1, 0.863639
281, 6, bw, attraction, a-b-db, 2, 3, 5, 13, 119, 193, 195, 120, 120, 195, 3, 1.53059
281, 6, bw, attraction, a-b-db, 2, 3, 5, 13, 119, 193, 195, 120, 120, 195, 2, 0.436173
281, 6, bw, filler, NA, 999, 999, 5, 14, 123, 145, 117, 134, 110, 68, 1, 1.21643
281, 6, bw, filler, NA, 999, 999, 5, 14, 123, 145, 117, 134, 110, 68, 3, 0.446848
281, 6, bw, filler, NA, 999, 999, 5, 15, 157, 118, 192, 134, 170, 91, 2, 0.634549
281, 6, bw, filler, NA, 999, 999, 5, 15, 157, 118, 192, 134, 170, 91, 3, 0.992387
281, 6, bw, filler, NA, 999, 999, 5, 16, 191, 161, 86, 165, 178, 180, 3, 1.39817
281, 6, bw, filler, NA, 999, 999, 5, 16, 191, 161, 86, 165, 178, 180, 2, 0.388893
281, 6, bw, attraction, a-b-da, 5, 2, 5, 17, 90, 165, 161, 88, 165, 90, 3, 1.01132
281, 6, bw, attraction, a-b-da, 5, 2, 5, 17, 90, 165, 161, 88, 165, 90, 2, 0.37768
281, 6, bw, attraction, a-b-db, 14, 2, 5, 18, 83, 153, 165, 90, 90, 165, 1, 1.30429
281, 6, bw, attraction, a-b-db, 14, 2, 5, 18, 83, 153, 165, 90, 90, 165, 2, 0.370318
281, 6, bw, attraction, a-b-da, 2, 2, 5, 19, 90, 165, 163, 89, 165, 90, 3, 1.71359
281, 6, bw, attraction, a-b-da, 2, 2, 5, 19, 90, 165, 163, 89, 165, 90, 1, 0.379605
281, 6, bw, attraction, a-b-db, 14, 3, 5, 20, 120, 195, 111, 181, 195, 120, 1, 1.21018
281, 6, bw, attraction, a-b-db, 14, 3, 5, 20, 120, 195, 111, 181, 195, 120, 2, 0.648605
281, 6, bw, attraction, a-b-da, 14, 1, 5, 21, 60, 135, 135, 60, 125, 56, 1, 1.8682
281, 6, bw, attraction, a-b-da, 14, 1, 5, 21, 60, 135, 135, 60, 125, 56, 3, 0.720219
281, 6, bw, attraction, a-b-da, 5, 1, 5, 22, 135, 60, 132, 58, 60, 135, 3, 1.72121
281, 6, bw, attraction, a-b-da, 5, 1, 5, 22, 135, 60, 132, 58, 60, 135, 2, 0.450648
281, 6, bw, attraction, a-b-da, 9, 1, 5, 23, 129, 57, 60, 135, 135, 60, 3, 1.6226
281, 6, bw, attraction, a-b-da, 9, 1, 5, 23, 129, 57, 60, 135, 135, 60, 1, 0.643979
281, 6, bw, catch, NA, 999, 999, 5, 24, 172, 143, 111, 84, 154, 101, 1, 0.871706
281, 6, bw, catch, NA, 999, 999, 5, 24, 172, 143, 111, 84, 154, 101, 2, 0.619306
281, 6, bw, attraction, a-b-da, 9, 2, 5, 25, 165, 90, 90, 165, 157, 86, 3, 0.752424
281, 6, bw, attraction, a-b-da, 9, 2, 5, 25, 165, 90, 90, 165, 157, 86, 1, 0.505582
281, 6, bw, attraction, a-b-da, 9, 3, 5, 26, 120, 195, 195, 120, 186, 114, 1, 1.5314
281, 6, bw, attraction, a-b-da, 9, 3, 5, 26, 120, 195, 195, 120, 186, 114, 3, 0.372794
281, 6, bw, attraction, a-b-da, 5, 3, 5, 27, 120, 195, 195, 120, 190, 117, 1, 1.13924
281, 6, bw, attraction, a-b-da, 5, 3, 5, 27, 120, 195, 195, 120, 190, 117, 3, 0.500278
281, 6, bw, attraction, a-b-db, 5, 2, 5, 28, 88, 161, 90, 165, 165, 90, 1, 0.942138
281, 6, bw, attraction, a-b-db, 5, 2, 5, 28, 88, 161, 90, 165, 165, 90, 3, 0.44707
281, 6, bw, attraction, a-b-db, 14, 1, 5, 29, 135, 60, 60, 135, 56, 125, 1, 1.61882
281, 6, bw, attraction, a-b-db, 14, 1, 5, 29, 135, 60, 60, 135, 56, 125, 3, 0.353143
281, 6, bw, catch, NA, 999, 999, 5, 30, 140, 115, 104, 91, 177, 138, 3, 0.744806
281, 6, bw, catch, NA, 999, 999, 5, 30, 140, 115, 104, 91, 177, 138, 2, 0.306005
281, 6, bw, attraction, a-b-db, 9, 1, 5, 31, 57, 129, 60, 135, 135, 60, 1, 1.09104
281, 6, bw, attraction, a-b-db, 9, 1, 5, 31, 57, 129, 60, 135, 135, 60, 3, 0.42213
281, 6, bw, attraction, a-b-da, 2, 1, 5, 32, 134, 59, 135, 60, 60, 135, 1, 1.33131
281, 6, bw, attraction, a-b-da, 2, 1, 5, 32, 134, 59, 135, 60, 60, 135, 3, 0.300765
281, 6, bw, attraction, a-b-db, 9, 3, 5, 33, 195, 120, 114, 186, 120, 195, 3, 1.15056
281, 6, bw, attraction, a-b-db, 9, 3, 5, 33, 195, 120, 114, 186, 120, 195, 1, 0.391647
281, 6, bw, attraction, a-b-da, 2, 3, 5, 34, 120, 195, 195, 120, 193, 119, 3, 0.80546
281, 6, bw, attraction, a-b-da, 2, 3, 5, 34, 120, 195, 195, 120, 193, 119, 2, 0.547768
281, 6, bw, attraction, a-b-da, 14, 2, 5, 35, 153, 83, 90, 165, 165, 90, 2, 1.13161
281, 6, bw, attraction, a-b-da, 14, 2, 5, 35, 153, 83, 90, 165, 165, 90, 1, 0.501248
281, 6, bw, filler, NA, 999, 999, 5, 36, 176, 114, 150, 80, 133, 61, 1, 0.606902
281, 6, bw, filler, NA, 999, 999, 5, 36, 176, 114, 150, 80, 133, 61, 3, 0.381339
281, 6, bw, attraction, a-b-db, 5, 1, 5, 37, 135, 60, 60, 135, 58, 132, 1, 1.50787
281, 6, bw, attraction, a-b-db, 5, 1, 5, 37, 135, 60, 60, 135, 58, 132, 3, 0.430138
281, 6, bw, filler, NA, 999, 999, 6, 1, 157, 59, 80, 175, 171, 60, 2, 1.04261
281, 6, bw, filler, NA, 999, 999, 6, 1, 157, 59, 80, 175, 171, 60, 1, 0.351436
281, 6, bw, attraction, a-b-db, 9, 1, 6, 2, 135, 60, 57, 129, 60, 135, 3, 0.887326
281, 6, bw, attraction, a-b-db, 9, 1, 6, 2, 135, 60, 57, 129, 60, 135, 2, 0.475036
281, 6, bw, catch, NA, 999, 999, 6, 3, 62, 133, 189, 126, 161, 94, 2, 0.653505
281, 6, bw, catch, NA, 999, 999, 6, 3, 62, 133, 189, 126, 161, 94, 1, 0.801991
281, 6, bw, attraction, a-b-da, 9, 2, 6, 4, 165, 90, 157, 86, 90, 165, 3, 0.759615
281, 6, bw, attraction, a-b-da, 9, 2, 6, 4, 165, 90, 157, 86, 90, 165, 1, 0.335999
281, 6, bw, attraction, a-b-da, 5, 3, 6, 5, 120, 195, 195, 120, 190, 117, 3, 1.18451
281, 6, bw, attraction, a-b-da, 5, 3, 6, 5, 120, 195, 195, 120, 190, 117, 2, 0.312151
281, 6, bw, filler, NA, 999, 999, 6, 6, 119, 86, 60, 78, 194, 92, 3, 0.64924
281, 6, bw, filler, NA, 999, 999, 6, 6, 119, 86, 60, 78, 194, 92, 2, 0.358431
281, 6, bw, attraction, a-b-db, 14, 2, 6, 7, 83, 153, 90, 165, 165, 90, 2, 0.645526
281, 6, bw, attraction, a-b-db, 14, 2, 6, 7, 83, 153, 90, 165, 165, 90, 1, 0.418746
281, 6, bw, attraction, a-b-db, 2, 2, 6, 8, 165, 90, 90, 165, 89, 163, 2, 1.71977
281, 6, bw, attraction, a-b-db, 2, 2, 6, 8, 165, 90, 90, 165, 89, 163, 3, 0.353926
281, 6, bw, filler, NA, 999, 999, 6, 9, 172, 111, 157, 165, 94, 63, 2, 0.521767
281, 6, bw, filler, NA, 999, 999, 6, 9, 172, 111, 157, 165, 94, 63, 3, 0.363545
281, 6, bw, filler, NA, 999, 999, 6, 10, 171, 81, 140, 106, 76, 94, 2, 0.954681
281, 6, bw, filler, NA, 999, 999, 6, 10, 171, 81, 140, 106, 76, 94, 3, 0.418987
281, 6, bw, attraction, a-b-da, 9, 3, 6, 11, 120, 195, 195, 120, 186, 114, 2, 4.18426
281, 6, bw, attraction, a-b-da, 9, 3, 6, 11, 120, 195, 195, 120, 186, 114, 3, 0.455015
281, 6, bw, filler, NA, 999, 999, 6, 12, 178, 140, 109, 192, 109, 99, 1, 1.76263
281, 6, bw, filler, NA, 999, 999, 6, 12, 178, 140, 109, 192, 109, 99, 3, 0.506749
281, 6, bw, attraction, a-b-db, 9, 2, 6, 13, 165, 90, 86, 157, 90, 165, 3, 1.00385
281, 6, bw, attraction, a-b-db, 9, 2, 6, 13, 165, 90, 86, 157, 90, 165, 1, 0.33824
281, 6, bw, attraction, a-b-db, 2, 3, 6, 14, 195, 120, 120, 195, 119, 193, 2, 1.37071
281, 6, bw, attraction, a-b-db, 2, 3, 6, 14, 195, 120, 120, 195, 119, 193, 1, 0.418231
281, 6, bw, attraction, a-b-db, 14, 1, 6, 15, 56, 125, 135, 60, 60, 135, 3, 1.34337
281, 6, bw, attraction, a-b-db, 14, 1, 6, 15, 56, 125, 135, 60, 60, 135, 1, 0.472301
281, 6, bw, attraction, a-b-da, 2, 3, 6, 16, 193, 119, 120, 195, 195, 120, 2, 1.29145
281, 6, bw, attraction, a-b-da, 2, 3, 6, 16, 193, 119, 120, 195, 195, 120, 1, 1.27826
281, 6, bw, filler, NA, 999, 999, 6, 17, 130, 108, 98, 88, 81, 167, 1, 2.95259
281, 6, bw, filler, NA, 999, 999, 6, 17, 130, 108, 98, 88, 81, 167, 2, 0.889074
281, 6, bw, attraction, a-b-db, 5, 2, 6, 18, 165, 90, 88, 161, 90, 165, 1, 3.49924
281, 6, bw, attraction, a-b-db, 5, 2, 6, 18, 165, 90, 88, 161, 90, 165, 2, 0.84546
281, 6, bw, attraction, a-b-da, 14, 3, 6, 19, 120, 195, 181, 111, 195, 120, 1, 2.16923
281, 6, bw, attraction, a-b-da, 14, 3, 6, 19, 120, 195, 181, 111, 195, 120, 2, 0.265188
281, 6, bw, attraction, a-b-da, 14, 2, 6, 20, 153, 83, 165, 90, 90, 165, 3, 1.0683
281, 6, bw, attraction, a-b-da, 14, 2, 6, 20, 153, 83, 165, 90, 90, 165, 1, 0.344597
281, 6, bw, filler, NA, 999, 999, 6, 21, 143, 66, 122, 74, 179, 154, 3, 0.568381
281, 6, bw, filler, NA, 999, 999, 6, 21, 143, 66, 122, 74, 179, 154, 2, 0.328844
281, 6, bw, attraction, a-b-db, 5, 3, 6, 22, 120, 195, 117, 190, 195, 120, 2, 1.37741
281, 6, bw, attraction, a-b-db, 5, 3, 6, 22, 120, 195, 117, 190, 195, 120, 3, 0.752946
281, 6, bw, filler, NA, 999, 999, 6, 23, 130, 110, 106, 193, 187, 168, 3, 0.920671
281, 6, bw, filler, NA, 999, 999, 6, 23, 130, 110, 106, 193, 187, 168, 1, 0.65095
281, 6, bw, attraction, a-b-db, 5, 1, 6, 24, 58, 132, 135, 60, 60, 135, 3, 0.902652
281, 6, bw, attraction, a-b-db, 5, 1, 6, 24, 58, 132, 135, 60, 60, 135, 2, 0.529965
281, 6, bw, attraction, a-b-da, 5, 2, 6, 25, 161, 88, 165, 90, 90, 165, 3, 0.642205
281, 6, bw, attraction, a-b-da, 5, 2, 6, 25, 161, 88, 165, 90, 90, 165, 1, 0.399277
281, 6, bw, attraction, a-b-da, 9, 1, 6, 26, 60, 135, 129, 57, 135, 60, 1, 0.805089
281, 6, bw, attraction, a-b-da, 9, 1, 6, 26, 60, 135, 129, 57, 135, 60, 3, 0.539633
281, 6, bw, attraction, a-b-da, 2, 2, 6, 27, 163, 89, 90, 165, 165, 90, 2, 0.755247
281, 6, bw, attraction, a-b-da, 2, 2, 6, 27, 163, 89, 90, 165, 165, 90, 3, 0.299776
281, 6, bw, filler, NA, 999, 999, 6, 28, 173, 91, 91, 98, 109, 176, 3, 1.1017
281, 6, bw, filler, NA, 999, 999, 6, 28, 173, 91, 91, 98, 109, 176, 1, 0.448605
281, 6, bw, catch, NA, 999, 999, 6, 29, 157, 158, 138, 117, 75, 120, 1, 0.716248
281, 6, bw, catch, NA, 999, 999, 6, 29, 157, 158, 138, 117, 75, 120, 3, 0.334692
281, 6, bw, attraction, a-b-da, 2, 1, 6, 30, 60, 135, 135, 60, 134, 59, 3, 0.671201
281, 6, bw, attraction, a-b-da, 2, 1, 6, 30, 60, 135, 135, 60, 134, 59, 2, 0.290976
281, 6, bw, attraction, a-b-da, 14, 1, 6, 31, 135, 60, 60, 135, 125, 56, 2, 1.27687
281, 6, bw, attraction, a-b-da, 14, 1, 6, 31, 135, 60, 60, 135, 125, 56, 3, 0.784611
281, 6, bw, filler, NA, 999, 999, 6, 32, 155, 100, 77, 104, 174, 98, 3, 0.878693
281, 6, bw, filler, NA, 999, 999, 6, 32, 155, 100, 77, 104, 174, 98, 2, 0.346392
281, 6, bw, attraction, a-b-db, 2, 1, 6, 33, 135, 60, 60, 135, 59, 134, 3, 1.00222
281, 6, bw, attraction, a-b-db, 2, 1, 6, 33, 135, 60, 60, 135, 59, 134, 1, 0.561221
281, 6, bw, attraction, a-b-db, 9, 3, 6, 34, 120, 195, 114, 186, 195, 120, 3, 0.856465
281, 6, bw, attraction, a-b-db, 9, 3, 6, 34, 120, 195, 114, 186, 195, 120, 2, 0.324908
281, 6, bw, attraction, a-b-db, 14, 3, 6, 35, 111, 181, 195, 120, 120, 195, 3, 0.757283
281, 6, bw, attraction, a-b-db, 14, 3, 6, 35, 111, 181, 195, 120, 120, 195, 2, 0.397673
281, 6, bw, catch, NA, 999, 999, 6, 36, 128, 127, 79, 116, 138, 177, 3, 0.555489
281, 6, bw, catch, NA, 999, 999, 6, 36, 128, 127, 79, 116, 138, 177, 2, 0.347874
281, 6, bw, attraction, a-b-da, 5, 1, 6, 37, 135, 60, 60, 135, 132, 58, 2, 1.12372
281, 6, bw, attraction, a-b-da, 5, 1, 6, 37, 135, 60, 60, 135, 132, 58, 3, 0.517375
281, 6, bw, attraction, a-b-da, 14, 2, 7, 1, 153, 83, 165, 90, 90, 165, 3, 0.814435
281, 6, bw, attraction, a-b-da, 14, 2, 7, 1, 153, 83, 165, 90, 90, 165, 1, 0.37299
281, 6, bw, attraction, a-b-da, 5, 1, 7, 2, 60, 135, 135, 60, 132, 58, 2, 0.563315
281, 6, bw, attraction, a-b-da, 5, 1, 7, 2, 60, 135, 135, 60, 132, 58, 3, 0.579952
281, 6, bw, filler, NA, 999, 999, 7, 3, 174, 112, 123, 60, 165, 122, 3, 0.546323
281, 6, bw, filler, NA, 999, 999, 7, 3, 174, 112, 123, 60, 165, 122, 2, 0.73939
281, 6, bw, catch, NA, 999, 999, 7, 4, 138, 177, 92, 163, 64, 131, 1, 0.675083
281, 6, bw, catch, NA, 999, 999, 7, 4, 138, 177, 92, 163, 64, 131, 3, 0.350875
281, 6, bw, attraction, a-b-db, 9, 1, 7, 5, 60, 135, 135, 60, 57, 129, 2, 1.43877
281, 6, bw, attraction, a-b-db, 9, 1, 7, 5, 60, 135, 135, 60, 57, 129, 3, 0.611693
281, 6, bw, filler, NA, 999, 999, 7, 6, 145, 170, 114, 129, 57, 93, 1, 0.656631
281, 6, bw, filler, NA, 999, 999, 7, 6, 145, 170, 114, 129, 57, 93, 3, 0.413196
281, 6, bw, attraction, a-b-db, 9, 3, 7, 7, 120, 195, 114, 186, 195, 120, 1, 1.49821
281, 6, bw, attraction, a-b-db, 9, 3, 7, 7, 120, 195, 114, 186, 195, 120, 2, 0.549132
281, 6, bw, attraction, a-b-da, 9, 3, 7, 8, 120, 195, 195, 120, 186, 114, 1, 1.10084
281, 6, bw, attraction, a-b-da, 9, 3, 7, 8, 120, 195, 195, 120, 186, 114, 2, 0.431811
281, 6, bw, catch, NA, 999, 999, 7, 9, 184, 131, 160, 95, 93, 102, 1, 0.884313
281, 6, bw, catch, NA, 999, 999, 7, 9, 184, 131, 160, 95, 93, 102, 3, 0.319955
281, 6, bw, attraction, a-b-db, 2, 2, 7, 10, 165, 90, 90, 165, 89, 163, 3, 1.37724
281, 6, bw, attraction, a-b-db, 2, 2, 7, 10, 165, 90, 90, 165, 89, 163, 2, 0.256725
281, 6, bw, filler, NA, 999, 999, 7, 11, 172, 152, 70, 176, 67, 99, 1, 1.24379
281, 6, bw, filler, NA, 999, 999, 7, 11, 172, 152, 70, 176, 67, 99, 3, 0.360817
281, 6, bw, filler, NA, 999, 999, 7, 12, 113, 62, 74, 146, 161, 139, 3, 0.599996
281, 6, bw, filler, NA, 999, 999, 7, 12, 113, 62, 74, 146, 161, 139, 1, 0.583034
281, 6, bw, attraction, a-b-da, 5, 2, 7, 13, 161, 88, 165, 90, 90, 165, 3, 1.70957
281, 6, bw, attraction, a-b-da, 5, 2, 7, 13, 161, 88, 165, 90, 90, 165, 2, 0.863611
281, 6, bw, attraction, a-b-da, 2, 2, 7, 14, 163, 89, 165, 90, 90, 165, 1, 9.85057
281, 6, bw, attraction, a-b-da, 2, 2, 7, 14, 163, 89, 165, 90, 90, 165, 3, 0.460924
281, 6, bw, attraction, a-b-db, 5, 1, 7, 15, 135, 60, 60, 135, 58, 132, 3, 3.768
281, 6, bw, attraction, a-b-db, 5, 1, 7, 15, 135, 60, 60, 135, 58, 132, 1, 0.543421
281, 6, bw, filler, NA, 999, 999, 7, 16, 94, 146, 161, 111, 68, 152, 2, 0.727304
281, 6, bw, filler, NA, 999, 999, 7, 16, 94, 146, 161, 111, 68, 152, 3, 0.337094
281, 6, bw, filler, NA, 999, 999, 7, 17, 147, 67, 83, 101, 95, 90, 1, 1.26551
281, 6, bw, filler, NA, 999, 999, 7, 17, 147, 67, 83, 101, 95, 90, 2, 0.30167
281, 6, bw, attraction, a-b-da, 14, 1, 7, 18, 135, 60, 125, 56, 60, 135, 3, 0.943682
281, 6, bw, attraction, a-b-da, 14, 1, 7, 18, 135, 60, 125, 56, 60, 135, 2, 0.616668
281, 6, bw, attraction, a-b-db, 5, 3, 7, 19, 120, 195, 117, 190, 195, 120, 2, 0.85367
281, 6, bw, attraction, a-b-db, 5, 3, 7, 19, 120, 195, 117, 190, 195, 120, 3, 0.282724
281, 6, bw, filler, NA, 999, 999, 7, 20, 162, 150, 182, 168, 167, 63, 2, 0.501155
281, 6, bw, filler, NA, 999, 999, 7, 20, 162, 150, 182, 168, 167, 63, 3, 0.32048
281, 6, bw, attraction, a-b-da, 9, 2, 7, 21, 90, 165, 165, 90, 157, 86, 1, 1.05752
281, 6, bw, attraction, a-b-da, 9, 2, 7, 21, 90, 165, 165, 90, 157, 86, 3, 0.325911
281, 6, bw, attraction, a-b-db, 14, 2, 7, 22, 90, 165, 83, 153, 165, 90, 1, 1.34228
281, 6, bw, attraction, a-b-db, 14, 2, 7, 22, 90, 165, 83, 153, 165, 90, 2, 0.59927
281, 6, bw, attraction, a-b-da, 5, 3, 7, 23, 120, 195, 195, 120, 190, 117, 1, 1.25299
281, 6, bw, attraction, a-b-da, 5, 3, 7, 23, 120, 195, 195, 120, 190, 117, 2, 0.25784
281, 6, bw, attraction, a-b-db, 9, 2, 7, 24, 86, 157, 90, 165, 165, 90, 2, 1.30911
281, 6, bw, attraction, a-b-db, 9, 2, 7, 24, 86, 157, 90, 165, 165, 90, 3, 0.271364
281, 6, bw, attraction, a-b-db, 5, 2, 7, 25, 88, 161, 165, 90, 90, 165, 3, 0.914524
281, 6, bw, attraction, a-b-db, 5, 2, 7, 25, 88, 161, 165, 90, 90, 165, 2, 0.356871
281, 6, bw, filler, NA, 999, 999, 7, 26, 85, 189, 98, 99, 151, 186, 3, 0.804198
281, 6, bw, filler, NA, 999, 999, 7, 26, 85, 189, 98, 99, 151, 186, 2, 0.338456
281, 6, bw, attraction, a-b-db, 2, 1, 7, 27, 59, 134, 135, 60, 60, 135, 3, 2.65088
281, 6, bw, attraction, a-b-db, 2, 1, 7, 27, 59, 134, 135, 60, 60, 135, 1, 0.863402
281, 6, bw, attraction, a-b-db, 14, 1, 7, 28, 135, 60, 56, 125, 60, 135, 1, 1.03446
281, 6, bw, attraction, a-b-db, 14, 1, 7, 28, 135, 60, 56, 125, 60, 135, 2, 0.496046
281, 6, bw, filler, NA, 999, 999, 7, 29, 59, 191, 189, 131, 189, 173, 3, 1.13001
281, 6, bw, filler, NA, 999, 999, 7, 29, 59, 191, 189, 131, 189, 173, 1, 0.355513
281, 6, bw, attraction, a-b-da, 14, 3, 7, 30, 181, 111, 195, 120, 120, 195, 3, 1.21129
281, 6, bw, attraction, a-b-da, 14, 3, 7, 30, 181, 111, 195, 120, 120, 195, 1, 0.657567
281, 6, bw, catch, NA, 999, 999, 7, 31, 97, 158, 136, 179, 90, 105, 2, 2.48461
281, 6, bw, catch, NA, 999, 999, 7, 31, 97, 158, 136, 179, 90, 105, 3, 0.551905
281, 6, bw, attraction, a-b-db, 2, 3, 7, 32, 195, 120, 120, 195, 119, 193, 3, 0.639559
281, 6, bw, attraction, a-b-db, 2, 3, 7, 32, 195, 120, 120, 195, 119, 193, 1, 0.324675
281, 6, bw, attraction, a-b-da, 9, 1, 7, 33, 135, 60, 60, 135, 129, 57, 3, 1.69327
281, 6, bw, attraction, a-b-da, 9, 1, 7, 33, 135, 60, 60, 135, 129, 57, 2, 0.375992
281, 6, bw, attraction, a-b-da, 2, 3, 7, 34, 193, 119, 195, 120, 120, 195, 3, 0.966509
281, 6, bw, attraction, a-b-da, 2, 3, 7, 34, 193, 119, 195, 120, 120, 195, 1, 0.446761
281, 6, bw, attraction, a-b-db, 14, 3, 7, 35, 111, 181, 120, 195, 195, 120, 2, 2.36276
281, 6, bw, attraction, a-b-db, 14, 3, 7, 35, 111, 181, 120, 195, 195, 120, 1, 0.322506
281, 6, bw, attraction, a-b-da, 2, 1, 7, 36, 60, 135, 134, 59, 135, 60, 2, 1.54773
281, 6, bw, attraction, a-b-da, 2, 1, 7, 36, 60, 135, 134, 59, 135, 60, 1, 0.508499
281, 6, bw, filler, NA, 999, 999, 7, 37, 158, 147, 131, 99, 71, 96, 1, 0.885571
281, 6, bw, filler, NA, 999, 999, 7, 37, 158, 147, 131, 99, 71, 96, 3, 0.561272
281, 6, bw, attraction, a-b-db, 14, 3, 8, 1, 195, 120, 111, 181, 120, 195, 3, 0.768389
281, 6, bw, attraction, a-b-db, 14, 3, 8, 1, 195, 120, 111, 181, 120, 195, 2, 0.552825
281, 6, bw, attraction, a-b-db, 2, 3, 8, 2, 120, 195, 195, 120, 119, 193, 3, 1.12863
281, 6, bw, attraction, a-b-db, 2, 3, 8, 2, 120, 195, 195, 120, 119, 193, 2, 0.274331
281, 6, bw, attraction, a-b-db, 9, 2, 8, 3, 165, 90, 90, 165, 86, 157, 2, 1.30876
281, 6, bw, attraction, a-b-db, 9, 2, 8, 3, 165, 90, 90, 165, 86, 157, 1, 0.446979
281, 6, bw, attraction, a-b-da, 2, 2, 8, 4, 90, 165, 163, 89, 165, 90, 3, 0.610792
281, 6, bw, attraction, a-b-da, 2, 2, 8, 4, 90, 165, 163, 89, 165, 90, 2, 0.321301
281, 6, bw, attraction, a-b-db, 9, 1, 8, 5, 135, 60, 60, 135, 57, 129, 2, 1.58636
281, 6, bw, attraction, a-b-db, 9, 1, 8, 5, 135, 60, 60, 135, 57, 129, 1, 0.393877
281, 6, bw, filler, NA, 999, 999, 8, 6, 121, 124, 116, 144, 158, 157, 3, 0.615905
281, 6, bw, filler, NA, 999, 999, 8, 6, 121, 124, 116, 144, 158, 157, 2, 0.334093
281, 6, bw, filler, NA, 999, 999, 8, 7, 82, 59, 91, 80, 123, 107, 3, 0.590642
281, 6, bw, filler, NA, 999, 999, 8, 7, 82, 59, 91, 80, 123, 107, 1, 0.43774
281, 6, bw, attraction, a-b-da, 9, 3, 8, 8, 186, 114, 120, 195, 195, 120, 2, 0.634281
281, 6, bw, attraction, a-b-da, 9, 3, 8, 8, 186, 114, 120, 195, 195, 120, 1, 0.271979
281, 6, bw, filler, NA, 999, 999, 8, 9, 73, 119, 194, 170, 182, 114, 2, 0.531177
281, 6, bw, filler, NA, 999, 999, 8, 9, 73, 119, 194, 170, 182, 114, 1, 0.59704
281, 6, bw, filler, NA, 999, 999, 8, 10, 60, 57, 185, 134, 122, 74, 2, 0.458927
281, 6, bw, filler, NA, 999, 999, 8, 10, 60, 57, 185, 134, 122, 74, 1, 0.335311
281, 6, bw, attraction, a-b-da, 5, 1, 8, 11, 132, 58, 135, 60, 60, 135, 3, 1.06372
281, 6, bw, attraction, a-b-da, 5, 1, 8, 11, 132, 58, 135, 60, 60, 135, 2, 0.244158
281, 6, bw, filler, NA, 999, 999, 8, 12, 69, 193, 180, 126, 114, 101, 2, 0.528018
281, 6, bw, filler, NA, 999, 999, 8, 12, 69, 193, 180, 126, 114, 101, 3, 0.625907
281, 6, bw, attraction, a-b-da, 9, 1, 8, 13, 60, 135, 135, 60, 129, 57, 2, 1.19809
281, 6, bw, attraction, a-b-da, 9, 1, 8, 13, 60, 135, 135, 60, 129, 57, 3, 0.205174
281, 6, bw, attraction, a-b-da, 14, 1, 8, 14, 125, 56, 60, 135, 135, 60, 3, 0.882973
281, 6, bw, attraction, a-b-da, 14, 1, 8, 14, 125, 56, 60, 135, 135, 60, 2, 0.350695
281, 6, bw, attraction, a-b-da, 2, 1, 8, 15, 60, 135, 134, 59, 135, 60, 1, 1.29446
281, 6, bw, attraction, a-b-da, 2, 1, 8, 15, 60, 135, 134, 59, 135, 60, 2, 0.545372
281, 6, bw, attraction, a-b-db, 9, 3, 8, 16, 114, 186, 195, 120, 120, 195, 3, 0.63319
281, 6, bw, attraction, a-b-db, 9, 3, 8, 16, 114, 186, 195, 120, 120, 195, 2, 0.286977
281, 6, bw, attraction, a-b-db, 14, 1, 8, 17, 135, 60, 56, 125, 60, 135, 3, 1.09749
281, 6, bw, attraction, a-b-db, 14, 1, 8, 17, 135, 60, 56, 125, 60, 135, 2, 0.540468
281, 6, bw, filler, NA, 999, 999, 8, 18, 111, 92, 110, 166, 176, 192, 3, 0.524181
281, 6, bw, filler, NA, 999, 999, 8, 18, 111, 92, 110, 166, 176, 192, 1, 0.557993
281, 6, bw, catch, NA, 999, 999, 8, 19, 133, 122, 143, 172, 128, 67, 2, 0.517251
281, 6, bw, catch, NA, 999, 999, 8, 19, 133, 122, 143, 172, 128, 67, 3, 0.591683
281, 6, bw, attraction, a-b-db, 14, 2, 8, 20, 165, 90, 90, 165, 83, 153, 1, 0.677361
281, 6, bw, attraction, a-b-db, 14, 2, 8, 20, 165, 90, 90, 165, 83, 153, 2, 0.281128
281, 6, bw, catch, NA, 999, 999, 8, 21, 157, 158, 131, 64, 161, 94, 1, 0.899722
281, 6, bw, catch, NA, 999, 999, 8, 21, 157, 158, 131, 64, 161, 94, 2, 0.614812
281, 6, bw, filler, NA, 999, 999, 8, 22, 136, 148, 193, 58, 140, 133, 3, 0.827718
281, 6, bw, filler, NA, 999, 999, 8, 22, 136, 148, 193, 58, 140, 133, 2, 0.505465
281, 6, bw, attraction, a-b-db, 5, 3, 8, 23, 120, 195, 195, 120, 117, 190, 3, 0.58727
281, 6, bw, attraction, a-b-db, 5, 3, 8, 23, 120, 195, 195, 120, 117, 190, 2, 0.338467
281, 6, bw, attraction, a-b-da, 14, 2, 8, 24, 165, 90, 90, 165, 153, 83, 1, 0.890941
281, 6, bw, attraction, a-b-da, 14, 2, 8, 24, 165, 90, 90, 165, 153, 83, 2, 0.405982
281, 6, bw, attraction, a-b-db, 2, 1, 8, 25, 135, 60, 60, 135, 59, 134, 1, 1.45904
281, 6, bw, attraction, a-b-db, 2, 1, 8, 25, 135, 60, 60, 135, 59, 134, 2, 0.735239
281, 6, bw, filler, NA, 999, 999, 8, 26, 190, 79, 104, 72, 106, 83, 1, 0.743617
281, 6, bw, filler, NA, 999, 999, 8, 26, 190, 79, 104, 72, 106, 83, 2, 0.368689
281, 6, bw, filler, NA, 999, 999, 8, 27, 110, 69, 56, 93, 160, 171, 3, 0.495864
281, 6, bw, filler, NA, 999, 999, 8, 27, 110, 69, 56, 93, 160, 171, 2, 0.274983
281, 6, bw, attraction, a-b-da, 14, 3, 8, 28, 181, 111, 120, 195, 195, 120, 2, 1.78947
281, 6, bw, attraction, a-b-da, 14, 3, 8, 28, 181, 111, 120, 195, 195, 120, 1, 0.39625
281, 6, bw, attraction, a-b-da, 2, 3, 8, 29, 195, 120, 193, 119, 120, 195, 3, 0.898033
281, 6, bw, attraction, a-b-da, 2, 3, 8, 29, 195, 120, 193, 119, 120, 195, 2, 0.525099
281, 6, bw, attraction, a-b-db, 5, 1, 8, 30, 135, 60, 60, 135, 58, 132, 1, 1.63752
281, 6, bw, attraction, a-b-db, 5, 1, 8, 30, 135, 60, 60, 135, 58, 132, 2, 0.28237
281, 6, bw, attraction, a-b-da, 5, 2, 8, 31, 165, 90, 90, 165, 161, 88, 1, 1.43685
281, 6, bw, attraction, a-b-da, 5, 2, 8, 31, 165, 90, 90, 165, 161, 88, 2, 0.322424
281, 6, bw, attraction, a-b-db, 2, 2, 8, 32, 165, 90, 89, 163, 90, 165, 3, 1.1476
281, 6, bw, attraction, a-b-db, 2, 2, 8, 32, 165, 90, 89, 163, 90, 165, 1, 0.476522
281, 6, bw, attraction, a-b-da, 9, 2, 8, 33, 165, 90, 90, 165, 157, 86, 2, 2.75097
281, 6, bw, attraction, a-b-da, 9, 2, 8, 33, 165, 90, 90, 165, 157, 86, 3, 0.591425
281, 6, bw, filler, NA, 999, 999, 8, 34, 162, 169, 59, 137, 190, 128, 1, 0.797132
281, 6, bw, filler, NA, 999, 999, 8, 34, 162, 169, 59, 137, 190, 128, 2, 0.316231
281, 6, bw, attraction, a-b-da, 5, 3, 8, 35, 195, 120, 120, 195, 190, 117, 2, 3.10934
281, 6, bw, attraction, a-b-da, 5, 3, 8, 35, 195, 120, 120, 195, 190, 117, 3, 0.255086
281, 6, bw, attraction, a-b-db, 5, 2, 8, 36, 165, 90, 90, 165, 88, 161, 1, 1.30692
281, 6, bw, attraction, a-b-db, 5, 2, 8, 36, 165, 90, 90, 165, 88, 161, 2, 0.509084
281, 6, bw, catch, NA, 999, 999, 8, 37, 117, 138, 136, 179, 69, 126, 2, 0.558208
281, 6, bw, catch, NA, 999, 999, 8, 37, 117, 138, 136, 179, 69, 126, 3, 0.262845
