sub_n, computer_n, bw_cond, effect, set, distance, diag, block_n, trial_n, h1, w1, h2, w2, h3, w3, choice, rt 
339, 6, bw, practice, NA, 999, 999, 0, 1, 158, 77, 73, 167, 83, 89, 2, 5.72833
339, 6, bw, practice, NA, 999, 999, 0, 1, 158, 77, 73, 167, 83, 89, 3, 3.12166
339, 6, bw, practice, NA, 999, 999, 0, 2, 162, 157, 62, 168, 56, 117, 1, 2.00707
339, 6, bw, practice, NA, 999, 999, 0, 2, 162, 157, 62, 168, 56, 117, 3, 1.47753
339, 6, bw, practice, NA, 999, 999, 0, 3, 189, 91, 175, 86, 103, 181, 3, 1.93323
339, 6, bw, practice, NA, 999, 999, 0, 3, 189, 91, 175, 86, 103, 181, 2, 1.94217
339, 6, bw, attraction, a-b-da, 2, 1, 1, 1, 60, 135, 135, 60, 134, 59, 3, 3.52295
339, 6, bw, attraction, a-b-da, 2, 1, 1, 1, 60, 135, 135, 60, 134, 59, 1, 4.19596
339, 6, bw, filler, NA, 999, 999, 1, 2, 88, 192, 178, 159, 185, 186, 3, 1.24847
339, 6, bw, filler, NA, 999, 999, 1, 2, 88, 192, 178, 159, 185, 186, 1, 0.997356
339, 6, bw, attraction, a-b-da, 5, 3, 1, 3, 120, 195, 190, 117, 195, 120, 1, 1.915
339, 6, bw, attraction, a-b-da, 5, 3, 1, 3, 120, 195, 190, 117, 195, 120, 2, 2.59716
339, 6, bw, filler, NA, 999, 999, 1, 4, 168, 131, 70, 79, 149, 172, 3, 1.81025
339, 6, bw, filler, NA, 999, 999, 1, 4, 168, 131, 70, 79, 149, 172, 2, 1.99242
339, 6, bw, attraction, a-b-db, 14, 2, 1, 5, 83, 153, 90, 165, 165, 90, 2, 4.43759
339, 6, bw, attraction, a-b-db, 14, 2, 1, 5, 83, 153, 90, 165, 165, 90, 1, 3.59416
339, 6, bw, filler, NA, 999, 999, 1, 6, 62, 83, 108, 85, 151, 157, 3, 1.35894
339, 6, bw, filler, NA, 999, 999, 1, 6, 62, 83, 108, 85, 151, 157, 1, 0.663254
339, 6, bw, attraction, a-b-da, 9, 2, 1, 7, 157, 86, 165, 90, 90, 165, 2, 2.8262
339, 6, bw, attraction, a-b-da, 9, 2, 1, 7, 157, 86, 165, 90, 90, 165, 1, 3.59135
339, 6, bw, catch, NA, 999, 999, 1, 8, 166, 149, 140, 115, 83, 112, 1, 1.12414
339, 6, bw, catch, NA, 999, 999, 1, 8, 166, 149, 140, 115, 83, 112, 3, 0.949789
339, 6, bw, filler, NA, 999, 999, 1, 9, 130, 192, 83, 124, 156, 106, 1, 1.2615
339, 6, bw, filler, NA, 999, 999, 1, 9, 130, 192, 83, 124, 156, 106, 2, 0.689697
339, 6, bw, attraction, a-b-db, 9, 3, 1, 10, 114, 186, 120, 195, 195, 120, 2, 3.86746
339, 6, bw, attraction, a-b-db, 9, 3, 1, 10, 114, 186, 120, 195, 195, 120, 1, 0.870843
339, 6, bw, filler, NA, 999, 999, 1, 11, 66, 113, 165, 168, 137, 119, 2, 1.12978
339, 6, bw, filler, NA, 999, 999, 1, 11, 66, 113, 165, 168, 137, 119, 1, 0.667445
339, 6, bw, attraction, a-b-db, 5, 3, 1, 12, 120, 195, 195, 120, 117, 190, 1, 3.83044
339, 6, bw, attraction, a-b-db, 5, 3, 1, 12, 120, 195, 195, 120, 117, 190, 3, 1.69927
339, 6, bw, attraction, a-b-db, 14, 1, 1, 13, 56, 125, 135, 60, 60, 135, 2, 4.29269
339, 6, bw, attraction, a-b-db, 14, 1, 1, 13, 56, 125, 135, 60, 60, 135, 1, 0.806655
339, 6, bw, attraction, a-b-da, 5, 1, 1, 14, 132, 58, 60, 135, 135, 60, 2, 7.89171
339, 6, bw, attraction, a-b-da, 5, 1, 1, 14, 132, 58, 60, 135, 135, 60, 3, 0.564604
339, 6, bw, filler, NA, 999, 999, 1, 15, 151, 161, 106, 180, 166, 102, 1, 2.98763
339, 6, bw, filler, NA, 999, 999, 1, 15, 151, 161, 106, 180, 166, 102, 3, 1.53077
339, 6, bw, attraction, a-b-db, 5, 2, 1, 16, 90, 165, 88, 161, 165, 90, 1, 8.25094
339, 6, bw, attraction, a-b-db, 5, 2, 1, 16, 90, 165, 88, 161, 165, 90, 3, 2.01356
339, 6, bw, attraction, a-b-db, 9, 2, 1, 17, 90, 165, 86, 157, 165, 90, 1, 7.90614
339, 6, bw, attraction, a-b-db, 9, 2, 1, 17, 90, 165, 86, 157, 165, 90, 2, 1.91508
339, 6, bw, attraction, a-b-db, 14, 3, 1, 18, 111, 181, 195, 120, 120, 195, 3, 2.41963
339, 6, bw, attraction, a-b-db, 14, 3, 1, 18, 111, 181, 195, 120, 120, 195, 1, 0.649578
339, 6, bw, attraction, a-b-da, 9, 3, 1, 19, 186, 114, 195, 120, 120, 195, 3, 2.46137
339, 6, bw, attraction, a-b-da, 9, 3, 1, 19, 186, 114, 195, 120, 120, 195, 1, 0.921216
339, 6, bw, catch, NA, 999, 999, 1, 20, 76, 119, 115, 140, 147, 168, 3, 1.07417
339, 6, bw, catch, NA, 999, 999, 1, 20, 76, 119, 115, 140, 147, 168, 1, 0.773786
339, 6, bw, filler, NA, 999, 999, 1, 21, 83, 131, 139, 129, 128, 93, 2, 1.38016
339, 6, bw, filler, NA, 999, 999, 1, 21, 83, 131, 139, 129, 128, 93, 3, 2.98772
339, 6, bw, attraction, a-b-db, 5, 1, 1, 22, 60, 135, 58, 132, 135, 60, 1, 5.83333
339, 6, bw, attraction, a-b-db, 5, 1, 1, 22, 60, 135, 58, 132, 135, 60, 3, 4.82156
339, 6, bw, attraction, a-b-db, 2, 2, 1, 23, 165, 90, 90, 165, 89, 163, 1, 6.72145
339, 6, bw, attraction, a-b-db, 2, 2, 1, 23, 165, 90, 90, 165, 89, 163, 3, 0.737987
339, 6, bw, attraction, a-b-da, 14, 1, 1, 24, 125, 56, 60, 135, 135, 60, 2, 3.96229
339, 6, bw, attraction, a-b-da, 14, 1, 1, 24, 125, 56, 60, 135, 135, 60, 1, 0.817656
339, 6, bw, attraction, a-b-da, 14, 3, 1, 25, 120, 195, 195, 120, 181, 111, 1, 1.89466
339, 6, bw, attraction, a-b-da, 14, 3, 1, 25, 120, 195, 195, 120, 181, 111, 3, 1.36137
339, 6, bw, attraction, a-b-da, 14, 2, 1, 26, 90, 165, 153, 83, 165, 90, 3, 4.86421
339, 6, bw, attraction, a-b-da, 14, 2, 1, 26, 90, 165, 153, 83, 165, 90, 2, 1.32337
339, 6, bw, attraction, a-b-da, 2, 2, 1, 27, 163, 89, 165, 90, 90, 165, 3, 1.80349
339, 6, bw, attraction, a-b-da, 2, 2, 1, 27, 163, 89, 165, 90, 90, 165, 1, 6.33025
339, 6, bw, attraction, a-b-db, 2, 1, 1, 28, 59, 134, 135, 60, 60, 135, 3, 8.53692
339, 6, bw, attraction, a-b-db, 2, 1, 1, 28, 59, 134, 135, 60, 60, 135, 2, 2.91226
339, 6, bw, attraction, a-b-da, 2, 3, 1, 29, 120, 195, 195, 120, 193, 119, 1, 3.3286
339, 6, bw, attraction, a-b-da, 2, 3, 1, 29, 120, 195, 195, 120, 193, 119, 2, 2.62557
339, 6, bw, filler, NA, 999, 999, 1, 30, 189, 175, 149, 78, 62, 97, 1, 1.10127
339, 6, bw, filler, NA, 999, 999, 1, 30, 189, 175, 149, 78, 62, 97, 3, 0.736309
339, 6, bw, attraction, a-b-da, 9, 1, 1, 31, 129, 57, 60, 135, 135, 60, 1, 4.80066
339, 6, bw, attraction, a-b-da, 9, 1, 1, 31, 129, 57, 60, 135, 135, 60, 3, 2.00652
339, 6, bw, filler, NA, 999, 999, 1, 32, 160, 80, 87, 157, 151, 89, 2, 7.25171
339, 6, bw, filler, NA, 999, 999, 1, 32, 160, 80, 87, 157, 151, 89, 1, 2.27091
339, 6, bw, attraction, a-b-db, 9, 1, 1, 33, 135, 60, 57, 129, 60, 135, 3, 3.00133
339, 6, bw, attraction, a-b-db, 9, 1, 1, 33, 135, 60, 57, 129, 60, 135, 2, 0.663756
339, 6, bw, attraction, a-b-da, 5, 2, 1, 34, 161, 88, 165, 90, 90, 165, 2, 2.75483
339, 6, bw, attraction, a-b-da, 5, 2, 1, 34, 161, 88, 165, 90, 90, 165, 1, 0.690551
339, 6, bw, filler, NA, 999, 999, 1, 35, 146, 181, 100, 150, 65, 133, 1, 1.0923
339, 6, bw, filler, NA, 999, 999, 1, 35, 146, 181, 100, 150, 65, 133, 3, 0.615377
339, 6, bw, attraction, a-b-db, 2, 3, 1, 36, 195, 120, 119, 193, 120, 195, 1, 3.75638
339, 6, bw, attraction, a-b-db, 2, 3, 1, 36, 195, 120, 119, 193, 120, 195, 3, 4.98786
339, 6, bw, catch, NA, 999, 999, 1, 37, 135, 120, 84, 111, 160, 155, 3, 2.00883
339, 6, bw, catch, NA, 999, 999, 1, 37, 135, 120, 84, 111, 160, 155, 2, 0.718901
339, 6, bw, attraction, a-b-db, 14, 2, 2, 1, 83, 153, 90, 165, 165, 90, 2, 3.21595
339, 6, bw, attraction, a-b-db, 14, 2, 2, 1, 83, 153, 90, 165, 165, 90, 1, 1.15759
339, 6, bw, filler, NA, 999, 999, 2, 2, 181, 97, 86, 152, 105, 178, 3, 5.05253
339, 6, bw, filler, NA, 999, 999, 2, 2, 181, 97, 86, 152, 105, 178, 2, 1.31222
339, 6, bw, attraction, a-b-da, 5, 2, 2, 3, 90, 165, 161, 88, 165, 90, 1, 3.10511
339, 6, bw, attraction, a-b-da, 5, 2, 2, 3, 90, 165, 161, 88, 165, 90, 2, 6.15478
339, 6, bw, attraction, a-b-da, 9, 1, 2, 4, 135, 60, 60, 135, 129, 57, 2, 11.1447
339, 6, bw, attraction, a-b-da, 9, 1, 2, 4, 135, 60, 60, 135, 129, 57, 3, 0.69461
339, 6, bw, filler, NA, 999, 999, 2, 5, 184, 60, 109, 182, 118, 149, 2, 2.83237
339, 6, bw, filler, NA, 999, 999, 2, 5, 184, 60, 109, 182, 118, 149, 1, 1.13346
339, 6, bw, filler, NA, 999, 999, 2, 6, 61, 155, 98, 105, 142, 191, 3, 1.75769
339, 6, bw, filler, NA, 999, 999, 2, 6, 61, 155, 98, 105, 142, 191, 1, 0.973819
339, 6, bw, filler, NA, 999, 999, 2, 7, 113, 141, 110, 176, 81, 93, 2, 1.40401
339, 6, bw, filler, NA, 999, 999, 2, 7, 113, 141, 110, 176, 81, 93, 3, 0.698997
339, 6, bw, attraction, a-b-db, 5, 2, 2, 8, 90, 165, 165, 90, 88, 161, 2, 3.94064
339, 6, bw, attraction, a-b-db, 5, 2, 2, 8, 90, 165, 165, 90, 88, 161, 3, 0.78085
339, 6, bw, attraction, a-b-db, 2, 1, 2, 9, 60, 135, 135, 60, 59, 134, 1, 5.9311
339, 6, bw, attraction, a-b-db, 2, 1, 2, 9, 60, 135, 135, 60, 59, 134, 3, 0.883186
339, 6, bw, filler, NA, 999, 999, 2, 10, 60, 70, 76, 182, 141, 193, 3, 1.01356
339, 6, bw, filler, NA, 999, 999, 2, 10, 60, 70, 76, 182, 141, 193, 1, 0.636015
339, 6, bw, filler, NA, 999, 999, 2, 11, 70, 66, 149, 101, 74, 192, 2, 1.28029
339, 6, bw, filler, NA, 999, 999, 2, 11, 70, 66, 149, 101, 74, 192, 1, 0.651845
339, 6, bw, filler, NA, 999, 999, 2, 12, 159, 136, 123, 102, 91, 193, 1, 1.96751
339, 6, bw, filler, NA, 999, 999, 2, 12, 159, 136, 123, 102, 91, 193, 2, 1.02357
339, 6, bw, attraction, a-b-da, 2, 2, 2, 13, 163, 89, 90, 165, 165, 90, 2, 2.62798
339, 6, bw, attraction, a-b-da, 2, 2, 2, 13, 163, 89, 90, 165, 165, 90, 3, 3.03314
339, 6, bw, catch, NA, 999, 999, 2, 14, 145, 110, 163, 152, 121, 74, 2, 1.00476
339, 6, bw, catch, NA, 999, 999, 2, 14, 145, 110, 163, 152, 121, 74, 3, 0.602983
339, 6, bw, attraction, a-b-da, 2, 3, 2, 15, 193, 119, 120, 195, 195, 120, 2, 2.22484
339, 6, bw, attraction, a-b-da, 2, 3, 2, 15, 193, 119, 120, 195, 195, 120, 3, 0.678113
339, 6, bw, attraction, a-b-db, 14, 1, 2, 16, 135, 60, 56, 125, 60, 135, 1, 3.09651
339, 6, bw, attraction, a-b-db, 14, 1, 2, 16, 135, 60, 56, 125, 60, 135, 2, 2.16278
339, 6, bw, attraction, a-b-da, 5, 1, 2, 17, 132, 58, 135, 60, 60, 135, 2, 2.35336
339, 6, bw, attraction, a-b-da, 5, 1, 2, 17, 132, 58, 135, 60, 60, 135, 3, 2.57019
339, 6, bw, attraction, a-b-da, 2, 1, 2, 18, 134, 59, 60, 135, 135, 60, 1, 3.49644
339, 6, bw, attraction, a-b-da, 2, 1, 2, 18, 134, 59, 60, 135, 135, 60, 3, 0.682708
339, 6, bw, attraction, a-b-db, 2, 3, 2, 19, 120, 195, 195, 120, 119, 193, 2, 10.341
339, 6, bw, attraction, a-b-db, 2, 3, 2, 19, 120, 195, 195, 120, 119, 193, 3, 2.63511
339, 6, bw, filler, NA, 999, 999, 2, 20, 184, 169, 110, 57, 189, 76, 1, 0.838974
339, 6, bw, filler, NA, 999, 999, 2, 20, 184, 169, 110, 57, 189, 76, 2, 0.539991
339, 6, bw, catch, NA, 999, 999, 2, 21, 132, 123, 90, 105, 153, 162, 3, 1.73973
339, 6, bw, catch, NA, 999, 999, 2, 21, 132, 123, 90, 105, 153, 162, 2, 1.51645
339, 6, bw, catch, NA, 999, 999, 2, 22, 118, 137, 108, 87, 188, 127, 3, 1.52529
339, 6, bw, catch, NA, 999, 999, 2, 22, 118, 137, 108, 87, 188, 127, 2, 0.526875
339, 6, bw, attraction, a-b-db, 5, 1, 2, 23, 58, 132, 135, 60, 60, 135, 2, 2.17518
339, 6, bw, attraction, a-b-db, 5, 1, 2, 23, 58, 132, 135, 60, 60, 135, 3, 0.678521
339, 6, bw, attraction, a-b-da, 9, 2, 2, 24, 165, 90, 90, 165, 157, 86, 2, 1.86489
339, 6, bw, attraction, a-b-da, 9, 2, 2, 24, 165, 90, 90, 165, 157, 86, 3, 0.444941
339, 6, bw, attraction, a-b-db, 9, 2, 2, 25, 90, 165, 86, 157, 165, 90, 1, 13.4247
339, 6, bw, attraction, a-b-db, 9, 2, 2, 25, 90, 165, 86, 157, 165, 90, 2, 2.35452
339, 6, bw, attraction, a-b-da, 14, 3, 2, 26, 181, 111, 195, 120, 120, 195, 2, 29.3537
339, 6, bw, attraction, a-b-da, 14, 3, 2, 26, 181, 111, 195, 120, 120, 195, 1, 0.561818
339, 6, bw, attraction, a-b-da, 5, 3, 2, 27, 195, 120, 120, 195, 190, 117, 2, 1.60901
339, 6, bw, attraction, a-b-da, 5, 3, 2, 27, 195, 120, 120, 195, 190, 117, 3, 0.47917
339, 6, bw, attraction, a-b-db, 9, 1, 2, 28, 135, 60, 57, 129, 60, 135, 1, 3.16151
339, 6, bw, attraction, a-b-db, 9, 1, 2, 28, 135, 60, 57, 129, 60, 135, 2, 1.03337
339, 6, bw, attraction, a-b-db, 2, 2, 2, 29, 90, 165, 89, 163, 165, 90, 2, 2.09349
339, 6, bw, attraction, a-b-db, 2, 2, 2, 29, 90, 165, 89, 163, 165, 90, 3, 4.43216
339, 6, bw, attraction, a-b-da, 14, 1, 2, 30, 135, 60, 125, 56, 60, 135, 3, 3.54736
339, 6, bw, attraction, a-b-da, 14, 1, 2, 30, 135, 60, 125, 56, 60, 135, 2, 0.651617
339, 6, bw, attraction, a-b-db, 14, 3, 2, 31, 111, 181, 120, 195, 195, 120, 2, 1.59945
339, 6, bw, attraction, a-b-db, 14, 3, 2, 31, 111, 181, 120, 195, 195, 120, 1, 0.990123
339, 6, bw, attraction, a-b-db, 9, 3, 2, 32, 195, 120, 120, 195, 114, 186, 2, 9.68389
339, 6, bw, attraction, a-b-db, 9, 3, 2, 32, 195, 120, 120, 195, 114, 186, 3, 0.668669
339, 6, bw, filler, NA, 999, 999, 2, 33, 77, 148, 61, 133, 172, 105, 3, 1.39186
339, 6, bw, filler, NA, 999, 999, 2, 33, 77, 148, 61, 133, 172, 105, 2, 0.438667
339, 6, bw, attraction, a-b-da, 9, 3, 2, 34, 195, 120, 186, 114, 120, 195, 1, 3.21113
339, 6, bw, attraction, a-b-da, 9, 3, 2, 34, 195, 120, 186, 114, 120, 195, 2, 0.616852
339, 6, bw, attraction, a-b-da, 14, 2, 2, 35, 153, 83, 165, 90, 90, 165, 2, 1.70179
339, 6, bw, attraction, a-b-da, 14, 2, 2, 35, 153, 83, 165, 90, 90, 165, 3, 2.4246
339, 6, bw, filler, NA, 999, 999, 2, 36, 82, 100, 109, 131, 90, 89, 2, 1.64446
339, 6, bw, filler, NA, 999, 999, 2, 36, 82, 100, 109, 131, 90, 89, 3, 0.513222
339, 6, bw, attraction, a-b-db, 5, 3, 2, 37, 117, 190, 195, 120, 120, 195, 2, 4.33053
339, 6, bw, attraction, a-b-db, 5, 3, 2, 37, 117, 190, 195, 120, 120, 195, 1, 0.563025
339, 6, bw, attraction, a-b-da, 2, 1, 3, 1, 135, 60, 134, 59, 60, 135, 2, 1.99404
339, 6, bw, attraction, a-b-da, 2, 1, 3, 1, 135, 60, 134, 59, 60, 135, 3, 0.536759
339, 6, bw, attraction, a-b-db, 14, 1, 3, 2, 56, 125, 60, 135, 135, 60, 3, 4.84917
339, 6, bw, attraction, a-b-db, 14, 1, 3, 2, 56, 125, 60, 135, 135, 60, 1, 0.868958
339, 6, bw, attraction, a-b-db, 9, 1, 3, 3, 57, 129, 135, 60, 60, 135, 2, 5.21603
339, 6, bw, attraction, a-b-db, 9, 1, 3, 3, 57, 129, 135, 60, 60, 135, 1, 0.580977
339, 6, bw, catch, NA, 999, 999, 3, 4, 120, 135, 168, 147, 95, 100, 2, 1.2434
339, 6, bw, catch, NA, 999, 999, 3, 4, 120, 135, 168, 147, 95, 100, 3, 0.656412
339, 6, bw, catch, NA, 999, 999, 3, 5, 127, 68, 176, 139, 106, 149, 2, 1.49938
339, 6, bw, catch, NA, 999, 999, 3, 5, 127, 68, 176, 139, 106, 149, 1, 0.806299
339, 6, bw, attraction, a-b-db, 14, 2, 3, 6, 90, 165, 165, 90, 83, 153, 1, 2.64325
339, 6, bw, attraction, a-b-db, 14, 2, 3, 6, 90, 165, 165, 90, 83, 153, 3, 0.671735
339, 6, bw, attraction, a-b-db, 5, 1, 3, 7, 60, 135, 135, 60, 58, 132, 2, 2.24285
339, 6, bw, attraction, a-b-db, 5, 1, 3, 7, 60, 135, 135, 60, 58, 132, 3, 1.35949
339, 6, bw, attraction, a-b-da, 9, 3, 3, 8, 120, 195, 195, 120, 186, 114, 1, 1.76629
339, 6, bw, attraction, a-b-da, 9, 3, 3, 8, 120, 195, 195, 120, 186, 114, 3, 1.02241
339, 6, bw, attraction, a-b-db, 14, 3, 3, 9, 120, 195, 111, 181, 195, 120, 1, 2.15548
339, 6, bw, attraction, a-b-db, 14, 3, 3, 9, 120, 195, 111, 181, 195, 120, 2, 1.37128
339, 6, bw, filler, NA, 999, 999, 3, 10, 128, 136, 152, 158, 69, 68, 2, 2.37827
339, 6, bw, filler, NA, 999, 999, 3, 10, 128, 136, 152, 158, 69, 68, 3, 1.05749
339, 6, bw, filler, NA, 999, 999, 3, 11, 126, 64, 179, 68, 75, 169, 2, 3.53233
339, 6, bw, filler, NA, 999, 999, 3, 11, 126, 64, 179, 68, 75, 169, 1, 0.437204
339, 6, bw, filler, NA, 999, 999, 3, 12, 142, 104, 124, 66, 128, 151, 3, 2.39367
339, 6, bw, filler, NA, 999, 999, 3, 12, 142, 104, 124, 66, 128, 151, 2, 0.472332
339, 6, bw, filler, NA, 999, 999, 3, 13, 172, 112, 124, 159, 66, 154, 1, 1.7393
339, 6, bw, filler, NA, 999, 999, 3, 13, 172, 112, 124, 159, 66, 154, 3, 0.764077
339, 6, bw, filler, NA, 999, 999, 3, 14, 130, 102, 134, 87, 153, 176, 3, 1.05113
339, 6, bw, filler, NA, 999, 999, 3, 14, 130, 102, 134, 87, 153, 176, 2, 2.0322
339, 6, bw, attraction, a-b-da, 9, 1, 3, 15, 60, 135, 135, 60, 129, 57, 2, 3.09206
339, 6, bw, attraction, a-b-da, 9, 1, 3, 15, 60, 135, 135, 60, 129, 57, 3, 0.47045
339, 6, bw, filler, NA, 999, 999, 3, 16, 144, 143, 193, 153, 151, 103, 2, 1.37763
339, 6, bw, filler, NA, 999, 999, 3, 16, 144, 143, 193, 153, 151, 103, 3, 0.513097
339, 6, bw, catch, NA, 999, 999, 3, 17, 128, 187, 103, 152, 122, 73, 1, 0.810245
339, 6, bw, catch, NA, 999, 999, 3, 17, 128, 187, 103, 152, 122, 73, 3, 0.560657
339, 6, bw, attraction, a-b-da, 5, 2, 3, 18, 165, 90, 161, 88, 90, 165, 3, 1.17564
339, 6, bw, attraction, a-b-da, 5, 2, 3, 18, 165, 90, 161, 88, 90, 165, 2, 1.34341
339, 6, bw, attraction, a-b-da, 14, 2, 3, 19, 90, 165, 165, 90, 153, 83, 1, 1.2708
339, 6, bw, attraction, a-b-da, 14, 2, 3, 19, 90, 165, 165, 90, 153, 83, 3, 0.610461
339, 6, bw, attraction, a-b-da, 9, 2, 3, 20, 157, 86, 90, 165, 165, 90, 1, 5.44755
339, 6, bw, attraction, a-b-da, 9, 2, 3, 20, 157, 86, 90, 165, 165, 90, 3, 0.579079
339, 6, bw, attraction, a-b-da, 2, 2, 3, 21, 163, 89, 165, 90, 90, 165, 1, 3.96952
339, 6, bw, attraction, a-b-da, 2, 2, 3, 21, 163, 89, 165, 90, 90, 165, 3, 0.544883
339, 6, bw, attraction, a-b-da, 14, 3, 3, 22, 181, 111, 195, 120, 120, 195, 2, 2.59266
339, 6, bw, attraction, a-b-da, 14, 3, 3, 22, 181, 111, 195, 120, 120, 195, 3, 1.67123
339, 6, bw, attraction, a-b-db, 2, 1, 3, 23, 60, 135, 135, 60, 59, 134, 2, 2.04194
339, 6, bw, attraction, a-b-db, 2, 1, 3, 23, 60, 135, 135, 60, 59, 134, 3, 1.24674
339, 6, bw, filler, NA, 999, 999, 3, 24, 92, 81, 122, 67, 79, 169, 3, 1.09818
339, 6, bw, filler, NA, 999, 999, 3, 24, 92, 81, 122, 67, 79, 169, 2, 2.73319
339, 6, bw, filler, NA, 999, 999, 3, 25, 114, 88, 88, 68, 159, 106, 3, 2.9569
339, 6, bw, filler, NA, 999, 999, 3, 25, 114, 88, 88, 68, 159, 106, 2, 0.564643
339, 6, bw, attraction, a-b-db, 5, 3, 3, 26, 195, 120, 120, 195, 117, 190, 2, 1.45965
339, 6, bw, attraction, a-b-db, 5, 3, 3, 26, 195, 120, 120, 195, 117, 190, 3, 0.615877
339, 6, bw, filler, NA, 999, 999, 3, 27, 106, 152, 87, 69, 61, 132, 1, 0.836916
339, 6, bw, filler, NA, 999, 999, 3, 27, 106, 152, 87, 69, 61, 132, 3, 0.538629
339, 6, bw, attraction, a-b-da, 5, 3, 3, 28, 120, 195, 195, 120, 190, 117, 2, 3.04311
339, 6, bw, attraction, a-b-da, 5, 3, 3, 28, 120, 195, 195, 120, 190, 117, 3, 2.99952
339, 6, bw, attraction, a-b-da, 2, 3, 3, 29, 193, 119, 195, 120, 120, 195, 2, 1.44448
339, 6, bw, attraction, a-b-da, 2, 3, 3, 29, 193, 119, 195, 120, 120, 195, 1, 1.04137
339, 6, bw, attraction, a-b-db, 9, 2, 3, 30, 90, 165, 86, 157, 165, 90, 1, 3.58093
339, 6, bw, attraction, a-b-db, 9, 2, 3, 30, 90, 165, 86, 157, 165, 90, 2, 2.31577
339, 6, bw, attraction, a-b-db, 9, 3, 3, 31, 120, 195, 195, 120, 114, 186, 1, 5.77233
339, 6, bw, attraction, a-b-db, 9, 3, 3, 31, 120, 195, 195, 120, 114, 186, 3, 0.794511
339, 6, bw, attraction, a-b-db, 5, 2, 3, 32, 165, 90, 88, 161, 90, 165, 1, 5.14419
339, 6, bw, attraction, a-b-db, 5, 2, 3, 32, 165, 90, 88, 161, 90, 165, 3, 0.391931
339, 6, bw, filler, NA, 999, 999, 3, 33, 176, 118, 69, 143, 122, 176, 1, 1.30972
339, 6, bw, filler, NA, 999, 999, 3, 33, 176, 118, 69, 143, 122, 176, 2, 0.54392
339, 6, bw, attraction, a-b-da, 14, 1, 3, 34, 60, 135, 135, 60, 125, 56, 2, 3.31974
339, 6, bw, attraction, a-b-da, 14, 1, 3, 34, 60, 135, 135, 60, 125, 56, 3, 0.785382
339, 6, bw, attraction, a-b-da, 5, 1, 3, 35, 60, 135, 132, 58, 135, 60, 1, 5.83974
339, 6, bw, attraction, a-b-da, 5, 1, 3, 35, 60, 135, 132, 58, 135, 60, 3, 0.475159
339, 6, bw, attraction, a-b-db, 2, 3, 3, 36, 195, 120, 119, 193, 120, 195, 1, 2.83767
339, 6, bw, attraction, a-b-db, 2, 3, 3, 36, 195, 120, 119, 193, 120, 195, 3, 0.946841
339, 6, bw, attraction, a-b-db, 2, 2, 3, 37, 90, 165, 165, 90, 89, 163, 2, 1.68229
339, 6, bw, attraction, a-b-db, 2, 2, 3, 37, 90, 165, 165, 90, 89, 163, 3, 0.541787
339, 6, bw, attraction, a-b-da, 14, 2, 4, 1, 90, 165, 165, 90, 153, 83, 1, 2.54158
339, 6, bw, attraction, a-b-da, 14, 2, 4, 1, 90, 165, 165, 90, 153, 83, 3, 0.558154
339, 6, bw, attraction, a-b-da, 2, 3, 4, 2, 195, 120, 193, 119, 120, 195, 1, 3.44513
339, 6, bw, attraction, a-b-da, 2, 3, 4, 2, 195, 120, 193, 119, 120, 195, 3, 0.489525
339, 6, bw, attraction, a-b-db, 5, 1, 4, 3, 58, 132, 60, 135, 135, 60, 2, 2.80315
339, 6, bw, attraction, a-b-db, 5, 1, 4, 3, 58, 132, 60, 135, 135, 60, 1, 1.08965
339, 6, bw, catch, NA, 999, 999, 4, 4, 148, 107, 65, 130, 124, 191, 3, 1.39536
339, 6, bw, catch, NA, 999, 999, 4, 4, 148, 107, 65, 130, 124, 191, 2, 0.578152
339, 6, bw, filler, NA, 999, 999, 4, 5, 114, 121, 79, 192, 134, 62, 2, 19.7765
339, 6, bw, filler, NA, 999, 999, 4, 5, 114, 121, 79, 192, 134, 62, 3, 0.466949
339, 6, bw, attraction, a-b-db, 2, 1, 4, 6, 135, 60, 60, 135, 59, 134, 1, 7.10225
339, 6, bw, attraction, a-b-db, 2, 1, 4, 6, 135, 60, 60, 135, 59, 134, 3, 0.71931
339, 6, bw, attraction, a-b-da, 2, 1, 4, 7, 135, 60, 60, 135, 134, 59, 1, 5.52821
339, 6, bw, attraction, a-b-da, 2, 1, 4, 7, 135, 60, 60, 135, 134, 59, 3, 0.432482
339, 6, bw, attraction, a-b-db, 5, 3, 4, 8, 120, 195, 117, 190, 195, 120, 1, 4.33299
339, 6, bw, attraction, a-b-db, 5, 3, 4, 8, 120, 195, 117, 190, 195, 120, 3, 0.853669
339, 6, bw, attraction, a-b-db, 2, 3, 4, 9, 195, 120, 119, 193, 120, 195, 1, 2.11329
339, 6, bw, attraction, a-b-db, 2, 3, 4, 9, 195, 120, 119, 193, 120, 195, 3, 3.03543
339, 6, bw, attraction, a-b-db, 2, 2, 4, 10, 89, 163, 90, 165, 165, 90, 3, 3.50298
339, 6, bw, attraction, a-b-db, 2, 2, 4, 10, 89, 163, 90, 165, 165, 90, 1, 0.561095
339, 6, bw, attraction, a-b-da, 5, 1, 4, 11, 132, 58, 60, 135, 135, 60, 2, 1.76831
339, 6, bw, attraction, a-b-da, 5, 1, 4, 11, 132, 58, 60, 135, 135, 60, 1, 0.440346
339, 6, bw, attraction, a-b-db, 9, 3, 4, 12, 120, 195, 114, 186, 195, 120, 3, 3.10814
339, 6, bw, attraction, a-b-db, 9, 3, 4, 12, 120, 195, 114, 186, 195, 120, 2, 0.573811
339, 6, bw, attraction, a-b-da, 2, 2, 4, 13, 165, 90, 90, 165, 163, 89, 1, 3.36419
339, 6, bw, attraction, a-b-da, 2, 2, 4, 13, 165, 90, 90, 165, 163, 89, 3, 1.75586
339, 6, bw, filler, NA, 999, 999, 4, 14, 107, 100, 115, 174, 130, 179, 3, 1.14718
339, 6, bw, filler, NA, 999, 999, 4, 14, 107, 100, 115, 174, 130, 179, 1, 0.532302
339, 6, bw, attraction, a-b-da, 9, 1, 4, 15, 129, 57, 135, 60, 60, 135, 2, 2.35659
339, 6, bw, attraction, a-b-da, 9, 1, 4, 15, 129, 57, 135, 60, 60, 135, 1, 2.56461
339, 6, bw, filler, NA, 999, 999, 4, 16, 141, 153, 118, 133, 176, 193, 3, 1.05899
339, 6, bw, filler, NA, 999, 999, 4, 16, 141, 153, 118, 133, 176, 193, 2, 0.527289
339, 6, bw, filler, NA, 999, 999, 4, 17, 103, 94, 67, 180, 115, 63, 2, 1.67979
339, 6, bw, filler, NA, 999, 999, 4, 17, 103, 94, 67, 180, 115, 63, 3, 0.547231
339, 6, bw, filler, NA, 999, 999, 4, 18, 68, 170, 124, 130, 87, 62, 2, 2.84306
339, 6, bw, filler, NA, 999, 999, 4, 18, 68, 170, 124, 130, 87, 62, 3, 0.463331
339, 6, bw, filler, NA, 999, 999, 4, 19, 113, 96, 114, 180, 136, 156, 3, 1.09047
339, 6, bw, filler, NA, 999, 999, 4, 19, 113, 96, 114, 180, 136, 156, 1, 0.933452
339, 6, bw, attraction, a-b-da, 9, 2, 4, 20, 165, 90, 157, 86, 90, 165, 1, 1.86992
339, 6, bw, attraction, a-b-da, 9, 2, 4, 20, 165, 90, 157, 86, 90, 165, 3, 1.16187
339, 6, bw, filler, NA, 999, 999, 4, 21, 86, 76, 180, 57, 135, 124, 3, 2.68872
339, 6, bw, filler, NA, 999, 999, 4, 21, 86, 76, 180, 57, 135, 124, 1, 0.587348
339, 6, bw, attraction, a-b-da, 14, 3, 4, 22, 120, 195, 181, 111, 195, 120, 3, 3.36169
339, 6, bw, attraction, a-b-da, 14, 3, 4, 22, 120, 195, 181, 111, 195, 120, 2, 0.385184
339, 6, bw, catch, NA, 999, 999, 4, 23, 133, 182, 117, 138, 61, 134, 1, 0.791688
339, 6, bw, catch, NA, 999, 999, 4, 23, 133, 182, 117, 138, 61, 134, 3, 0.558797
339, 6, bw, filler, NA, 999, 999, 4, 24, 125, 63, 66, 98, 193, 166, 3, 0.909856
339, 6, bw, filler, NA, 999, 999, 4, 24, 125, 63, 66, 98, 193, 166, 1, 2.48019
339, 6, bw, attraction, a-b-da, 14, 1, 4, 25, 125, 56, 60, 135, 135, 60, 2, 2.97013
339, 6, bw, attraction, a-b-da, 14, 1, 4, 25, 125, 56, 60, 135, 135, 60, 1, 0.561778
339, 6, bw, attraction, a-b-db, 14, 1, 4, 26, 60, 135, 135, 60, 56, 125, 1, 1.91287
339, 6, bw, attraction, a-b-db, 14, 1, 4, 26, 60, 135, 135, 60, 56, 125, 3, 1.27487
339, 6, bw, attraction, a-b-db, 9, 2, 4, 27, 86, 157, 90, 165, 165, 90, 1, 5.30914
339, 6, bw, attraction, a-b-db, 9, 2, 4, 27, 86, 157, 90, 165, 165, 90, 3, 0.926083
339, 6, bw, attraction, a-b-da, 9, 3, 4, 28, 186, 114, 120, 195, 195, 120, 2, 6.39847
339, 6, bw, attraction, a-b-da, 9, 3, 4, 28, 186, 114, 120, 195, 195, 120, 1, 1.1798
339, 6, bw, filler, NA, 999, 999, 4, 29, 132, 185, 176, 136, 104, 69, 1, 0.985983
339, 6, bw, filler, NA, 999, 999, 4, 29, 132, 185, 176, 136, 104, 69, 3, 0.785737
339, 6, bw, attraction, a-b-db, 14, 2, 4, 30, 83, 153, 90, 165, 165, 90, 3, 2.94411
339, 6, bw, attraction, a-b-db, 14, 2, 4, 30, 83, 153, 90, 165, 165, 90, 1, 0.944438
339, 6, bw, catch, NA, 999, 999, 4, 31, 183, 132, 109, 146, 79, 116, 1, 0.864029
339, 6, bw, catch, NA, 999, 999, 4, 31, 183, 132, 109, 146, 79, 116, 3, 0.468354
339, 6, bw, attraction, a-b-db, 5, 2, 4, 32, 88, 161, 90, 165, 165, 90, 2, 2.83954
339, 6, bw, attraction, a-b-db, 5, 2, 4, 32, 88, 161, 90, 165, 165, 90, 1, 2.70791
339, 6, bw, attraction, a-b-da, 5, 2, 4, 33, 161, 88, 90, 165, 165, 90, 2, 2.38838
339, 6, bw, attraction, a-b-da, 5, 2, 4, 33, 161, 88, 90, 165, 165, 90, 3, 0.482942
339, 6, bw, attraction, a-b-da, 5, 3, 4, 34, 120, 195, 195, 120, 190, 117, 1, 2.17356
339, 6, bw, attraction, a-b-da, 5, 3, 4, 34, 120, 195, 195, 120, 190, 117, 3, 1.26074
339, 6, bw, attraction, a-b-db, 14, 3, 4, 35, 120, 195, 195, 120, 111, 181, 1, 2.10358
339, 6, bw, attraction, a-b-db, 14, 3, 4, 35, 120, 195, 195, 120, 111, 181, 3, 0.858289
339, 6, bw, filler, NA, 999, 999, 4, 36, 129, 140, 58, 100, 142, 91, 1, 17.5252
339, 6, bw, filler, NA, 999, 999, 4, 36, 129, 140, 58, 100, 142, 91, 2, 0.674334
339, 6, bw, attraction, a-b-db, 9, 1, 4, 37, 60, 135, 135, 60, 57, 129, 2, 2.17282
339, 6, bw, attraction, a-b-db, 9, 1, 4, 37, 60, 135, 135, 60, 57, 129, 3, 0.660136
339, 6, bw, attraction, a-b-db, 9, 3, 5, 1, 120, 195, 195, 120, 114, 186, 2, 8.85372
339, 6, bw, attraction, a-b-db, 9, 3, 5, 1, 120, 195, 195, 120, 114, 186, 3, 0.464287
339, 6, bw, attraction, a-b-db, 9, 1, 5, 2, 60, 135, 135, 60, 57, 129, 1, 2.54746
339, 6, bw, attraction, a-b-db, 9, 1, 5, 2, 60, 135, 135, 60, 57, 129, 3, 1.21994
339, 6, bw, attraction, a-b-da, 5, 2, 5, 3, 161, 88, 165, 90, 90, 165, 2, 1.86475
339, 6, bw, attraction, a-b-da, 5, 2, 5, 3, 161, 88, 165, 90, 90, 165, 1, 0.996886
339, 6, bw, attraction, a-b-da, 14, 2, 5, 4, 165, 90, 153, 83, 90, 165, 1, 2.80251
339, 6, bw, attraction, a-b-da, 14, 2, 5, 4, 165, 90, 153, 83, 90, 165, 2, 0.35295
339, 6, bw, attraction, a-b-db, 9, 2, 5, 5, 165, 90, 86, 157, 90, 165, 3, 2.31273
339, 6, bw, attraction, a-b-db, 9, 2, 5, 5, 165, 90, 86, 157, 90, 165, 2, 0.714635
339, 6, bw, filler, NA, 999, 999, 5, 6, 192, 95, 117, 118, 190, 146, 3, 1.68377
339, 6, bw, filler, NA, 999, 999, 5, 6, 192, 95, 117, 118, 190, 146, 2, 0.59921
339, 6, bw, attraction, a-b-db, 5, 2, 5, 7, 88, 161, 90, 165, 165, 90, 2, 2.31705
339, 6, bw, attraction, a-b-db, 5, 2, 5, 7, 88, 161, 90, 165, 165, 90, 1, 2.89482
339, 6, bw, attraction, a-b-da, 2, 1, 5, 8, 60, 135, 135, 60, 134, 59, 2, 5.85589
339, 6, bw, attraction, a-b-da, 2, 1, 5, 8, 60, 135, 135, 60, 134, 59, 3, 2.02677
339, 6, bw, attraction, a-b-db, 5, 1, 5, 9, 135, 60, 60, 135, 58, 132, 1, 4.28668
339, 6, bw, attraction, a-b-db, 5, 1, 5, 9, 135, 60, 60, 135, 58, 132, 3, 0.881485
339, 6, bw, attraction, a-b-da, 14, 3, 5, 10, 181, 111, 195, 120, 120, 195, 2, 1.64365
339, 6, bw, attraction, a-b-da, 14, 3, 5, 10, 181, 111, 195, 120, 120, 195, 1, 2.32048
339, 6, bw, attraction, a-b-db, 14, 1, 5, 11, 56, 125, 135, 60, 60, 135, 2, 4.89703
339, 6, bw, attraction, a-b-db, 14, 1, 5, 11, 56, 125, 135, 60, 60, 135, 1, 1.00273
339, 6, bw, attraction, a-b-da, 14, 1, 5, 12, 135, 60, 125, 56, 60, 135, 3, 2.36843
339, 6, bw, attraction, a-b-da, 14, 1, 5, 12, 135, 60, 125, 56, 60, 135, 2, 0.688284
339, 6, bw, filler, NA, 999, 999, 5, 13, 97, 152, 164, 174, 99, 113, 2, 2.03471
339, 6, bw, filler, NA, 999, 999, 5, 13, 97, 152, 164, 174, 99, 113, 3, 0.848027
339, 6, bw, catch, NA, 999, 999, 5, 14, 181, 134, 121, 74, 151, 104, 1, 0.987732
339, 6, bw, catch, NA, 999, 999, 5, 14, 181, 134, 121, 74, 151, 104, 2, 0.818733
339, 6, bw, filler, NA, 999, 999, 5, 15, 99, 148, 159, 84, 63, 69, 1, 2.49571
339, 6, bw, filler, NA, 999, 999, 5, 15, 99, 148, 159, 84, 63, 69, 3, 0.602267
339, 6, bw, attraction, a-b-da, 9, 1, 5, 16, 135, 60, 129, 57, 60, 135, 3, 2.744
339, 6, bw, attraction, a-b-da, 9, 1, 5, 16, 135, 60, 129, 57, 60, 135, 2, 0.864462
339, 6, bw, attraction, a-b-db, 5, 3, 5, 17, 117, 190, 120, 195, 195, 120, 2, 1.77139
339, 6, bw, attraction, a-b-db, 5, 3, 5, 17, 117, 190, 120, 195, 195, 120, 1, 5.44298
339, 6, bw, attraction, a-b-da, 5, 1, 5, 18, 135, 60, 132, 58, 60, 135, 1, 3.46913
339, 6, bw, attraction, a-b-da, 5, 1, 5, 18, 135, 60, 132, 58, 60, 135, 3, 0.616685
339, 6, bw, attraction, a-b-da, 9, 2, 5, 19, 90, 165, 165, 90, 157, 86, 2, 23.7978
339, 6, bw, attraction, a-b-da, 9, 2, 5, 19, 90, 165, 165, 90, 157, 86, 3, 0.661636
339, 6, bw, attraction, a-b-db, 2, 3, 5, 20, 195, 120, 119, 193, 120, 195, 1, 7.35272
339, 6, bw, attraction, a-b-db, 2, 3, 5, 20, 195, 120, 119, 193, 120, 195, 2, 3.09575
339, 6, bw, attraction, a-b-da, 2, 2, 5, 21, 165, 90, 163, 89, 90, 165, 2, 2.16084
339, 6, bw, attraction, a-b-da, 2, 2, 5, 21, 165, 90, 163, 89, 90, 165, 1, 0.440639
339, 6, bw, attraction, a-b-db, 14, 2, 5, 22, 165, 90, 83, 153, 90, 165, 1, 2.83639
339, 6, bw, attraction, a-b-db, 14, 2, 5, 22, 165, 90, 83, 153, 90, 165, 2, 4.21754
339, 6, bw, attraction, a-b-da, 9, 3, 5, 23, 186, 114, 120, 195, 195, 120, 2, 5.83764
339, 6, bw, attraction, a-b-da, 9, 3, 5, 23, 186, 114, 120, 195, 195, 120, 1, 0.657688
339, 6, bw, attraction, a-b-db, 14, 3, 5, 24, 120, 195, 195, 120, 111, 181, 2, 6.82885
339, 6, bw, attraction, a-b-db, 14, 3, 5, 24, 120, 195, 195, 120, 111, 181, 3, 0.664553
339, 6, bw, filler, NA, 999, 999, 5, 25, 87, 118, 132, 76, 147, 109, 3, 2.57162
339, 6, bw, filler, NA, 999, 999, 5, 25, 87, 118, 132, 76, 147, 109, 1, 1.33896
339, 6, bw, filler, NA, 999, 999, 5, 26, 161, 56, 77, 99, 183, 56, 3, 2.21094
339, 6, bw, filler, NA, 999, 999, 5, 26, 161, 56, 77, 99, 183, 56, 2, 1.96093
339, 6, bw, catch, NA, 999, 999, 5, 27, 124, 71, 194, 121, 110, 145, 2, 1.21571
339, 6, bw, catch, NA, 999, 999, 5, 27, 124, 71, 194, 121, 110, 145, 1, 0.685884
339, 6, bw, filler, NA, 999, 999, 5, 28, 76, 133, 131, 139, 89, 163, 2, 1.67228
339, 6, bw, filler, NA, 999, 999, 5, 28, 76, 133, 131, 139, 89, 163, 1, 0.467753
339, 6, bw, filler, NA, 999, 999, 5, 29, 75, 98, 120, 168, 107, 153, 2, 0.854817
339, 6, bw, filler, NA, 999, 999, 5, 29, 75, 98, 120, 168, 107, 153, 1, 0.467227
339, 6, bw, attraction, a-b-db, 2, 2, 5, 30, 90, 165, 89, 163, 165, 90, 1, 2.87029
339, 6, bw, attraction, a-b-db, 2, 2, 5, 30, 90, 165, 89, 163, 165, 90, 3, 2.53813
339, 6, bw, filler, NA, 999, 999, 5, 31, 176, 100, 143, 102, 153, 162, 3, 2.39393
339, 6, bw, filler, NA, 999, 999, 5, 31, 176, 100, 143, 102, 153, 162, 2, 0.480425
339, 6, bw, catch, NA, 999, 999, 5, 32, 75, 120, 108, 147, 130, 185, 3, 1.46706
339, 6, bw, catch, NA, 999, 999, 5, 32, 75, 120, 108, 147, 130, 185, 1, 0.487072
339, 6, bw, filler, NA, 999, 999, 5, 33, 58, 133, 98, 66, 177, 161, 3, 1.03367
339, 6, bw, filler, NA, 999, 999, 5, 33, 58, 133, 98, 66, 177, 161, 2, 0.447214
339, 6, bw, attraction, a-b-da, 2, 3, 5, 34, 195, 120, 193, 119, 120, 195, 2, 1.66701
339, 6, bw, attraction, a-b-da, 2, 3, 5, 34, 195, 120, 193, 119, 120, 195, 1, 3.51915
339, 6, bw, attraction, a-b-db, 2, 1, 5, 35, 135, 60, 59, 134, 60, 135, 1, 5.27128
339, 6, bw, attraction, a-b-db, 2, 1, 5, 35, 135, 60, 59, 134, 60, 135, 2, 2.01032
339, 6, bw, attraction, a-b-da, 5, 3, 5, 36, 120, 195, 195, 120, 190, 117, 1, 2.34298
339, 6, bw, attraction, a-b-da, 5, 3, 5, 36, 120, 195, 195, 120, 190, 117, 3, 0.671524
339, 6, bw, filler, NA, 999, 999, 5, 37, 167, 70, 167, 190, 62, 66, 2, 1.08268
339, 6, bw, filler, NA, 999, 999, 5, 37, 167, 70, 167, 190, 62, 66, 3, 0.55828
339, 6, bw, filler, NA, 999, 999, 6, 1, 167, 154, 156, 62, 84, 67, 1, 0.909312
339, 6, bw, filler, NA, 999, 999, 6, 1, 167, 154, 156, 62, 84, 67, 3, 0.495727
339, 6, bw, attraction, a-b-db, 14, 2, 6, 2, 90, 165, 83, 153, 165, 90, 1, 3.77755
339, 6, bw, attraction, a-b-db, 14, 2, 6, 2, 90, 165, 83, 153, 165, 90, 2, 0.560465
339, 6, bw, filler, NA, 999, 999, 6, 3, 62, 158, 92, 119, 111, 75, 2, 4.26338
339, 6, bw, filler, NA, 999, 999, 6, 3, 62, 158, 92, 119, 111, 75, 3, 0.81074
339, 6, bw, attraction, a-b-db, 9, 3, 6, 4, 114, 186, 195, 120, 120, 195, 2, 1.8877
339, 6, bw, attraction, a-b-db, 9, 3, 6, 4, 114, 186, 195, 120, 120, 195, 1, 0.930385
339, 6, bw, filler, NA, 999, 999, 6, 5, 135, 92, 86, 79, 132, 102, 3, 2.01868
339, 6, bw, filler, NA, 999, 999, 6, 5, 135, 92, 86, 79, 132, 102, 2, 0.456839
339, 6, bw, catch, NA, 999, 999, 6, 6, 134, 181, 68, 127, 100, 155, 1, 1.01178
339, 6, bw, catch, NA, 999, 999, 6, 6, 134, 181, 68, 127, 100, 155, 2, 0.474122
339, 6, bw, attraction, a-b-da, 2, 3, 6, 7, 195, 120, 193, 119, 120, 195, 1, 3.19676
339, 6, bw, attraction, a-b-da, 2, 3, 6, 7, 195, 120, 193, 119, 120, 195, 3, 1.79493
339, 6, bw, attraction, a-b-da, 14, 2, 6, 8, 153, 83, 90, 165, 165, 90, 3, 2.16825
339, 6, bw, attraction, a-b-da, 14, 2, 6, 8, 153, 83, 90, 165, 165, 90, 1, 0.496199
339, 6, bw, attraction, a-b-da, 9, 1, 6, 9, 60, 135, 129, 57, 135, 60, 3, 4.93804
339, 6, bw, attraction, a-b-da, 9, 1, 6, 9, 60, 135, 129, 57, 135, 60, 2, 0.410584
339, 6, bw, attraction, a-b-da, 2, 2, 6, 10, 90, 165, 163, 89, 165, 90, 1, 3.43964
339, 6, bw, attraction, a-b-da, 2, 2, 6, 10, 90, 165, 163, 89, 165, 90, 3, 0.411868
339, 6, bw, attraction, a-b-db, 9, 2, 6, 11, 165, 90, 90, 165, 86, 157, 2, 31.129
339, 6, bw, attraction, a-b-db, 9, 2, 6, 11, 165, 90, 90, 165, 86, 157, 3, 0.41806
339, 6, bw, filler, NA, 999, 999, 6, 12, 146, 114, 165, 135, 177, 80, 2, 1.23106
339, 6, bw, filler, NA, 999, 999, 6, 12, 146, 114, 165, 135, 177, 80, 1, 0.684821
339, 6, bw, attraction, a-b-db, 5, 1, 6, 13, 58, 132, 60, 135, 135, 60, 3, 2.03102
339, 6, bw, attraction, a-b-db, 5, 1, 6, 13, 58, 132, 60, 135, 135, 60, 1, 0.468364
339, 6, bw, attraction, a-b-db, 5, 3, 6, 14, 120, 195, 195, 120, 117, 190, 2, 1.51149
339, 6, bw, attraction, a-b-db, 5, 3, 6, 14, 120, 195, 195, 120, 117, 190, 3, 0.329743
339, 6, bw, catch, NA, 999, 999, 6, 15, 126, 189, 129, 66, 109, 146, 1, 1.32226
339, 6, bw, catch, NA, 999, 999, 6, 15, 126, 189, 129, 66, 109, 146, 2, 0.331862
339, 6, bw, attraction, a-b-db, 2, 3, 6, 16, 120, 195, 119, 193, 195, 120, 2, 2.87629
339, 6, bw, attraction, a-b-db, 2, 3, 6, 16, 120, 195, 119, 193, 195, 120, 3, 0.591406
339, 6, bw, attraction, a-b-da, 5, 3, 6, 17, 120, 195, 190, 117, 195, 120, 1, 8.40506
339, 6, bw, attraction, a-b-da, 5, 3, 6, 17, 120, 195, 190, 117, 195, 120, 3, 0.329794
339, 6, bw, attraction, a-b-da, 9, 2, 6, 18, 165, 90, 157, 86, 90, 165, 3, 1.40226
339, 6, bw, attraction, a-b-da, 9, 2, 6, 18, 165, 90, 157, 86, 90, 165, 2, 0.321217
339, 6, bw, filler, NA, 999, 999, 6, 19, 186, 134, 178, 90, 67, 99, 1, 0.770318
339, 6, bw, filler, NA, 999, 999, 6, 19, 186, 134, 178, 90, 67, 99, 3, 0.738092
339, 6, bw, attraction, a-b-db, 9, 1, 6, 20, 57, 129, 135, 60, 60, 135, 2, 3.16245
339, 6, bw, attraction, a-b-db, 9, 1, 6, 20, 57, 129, 135, 60, 60, 135, 1, 0.394086
339, 6, bw, attraction, a-b-da, 14, 3, 6, 21, 120, 195, 181, 111, 195, 120, 1, 3.6879
339, 6, bw, attraction, a-b-da, 14, 3, 6, 21, 120, 195, 181, 111, 195, 120, 2, 0.506217
339, 6, bw, filler, NA, 999, 999, 6, 22, 104, 57, 140, 173, 59, 153, 2, 1.37118
339, 6, bw, filler, NA, 999, 999, 6, 22, 104, 57, 140, 173, 59, 153, 1, 0.482769
339, 6, bw, filler, NA, 999, 999, 6, 23, 110, 96, 189, 138, 114, 149, 2, 1.06909
339, 6, bw, filler, NA, 999, 999, 6, 23, 110, 96, 189, 138, 114, 149, 1, 0.529421
339, 6, bw, attraction, a-b-db, 2, 1, 6, 24, 135, 60, 59, 134, 60, 135, 1, 1.87394
339, 6, bw, attraction, a-b-db, 2, 1, 6, 24, 135, 60, 59, 134, 60, 135, 3, 0.765263
339, 6, bw, attraction, a-b-da, 5, 1, 6, 25, 135, 60, 60, 135, 132, 58, 1, 3.21234
339, 6, bw, attraction, a-b-da, 5, 1, 6, 25, 135, 60, 60, 135, 132, 58, 3, 1.33798
339, 6, bw, attraction, a-b-da, 5, 2, 6, 26, 90, 165, 165, 90, 161, 88, 1, 2.4822
339, 6, bw, attraction, a-b-da, 5, 2, 6, 26, 90, 165, 165, 90, 161, 88, 3, 0.341414
339, 6, bw, attraction, a-b-da, 2, 1, 6, 27, 60, 135, 134, 59, 135, 60, 1, 2.6452
339, 6, bw, attraction, a-b-da, 2, 1, 6, 27, 60, 135, 134, 59, 135, 60, 3, 3.06568
339, 6, bw, attraction, a-b-db, 14, 3, 6, 28, 111, 181, 120, 195, 195, 120, 2, 2.46
339, 6, bw, attraction, a-b-db, 14, 3, 6, 28, 111, 181, 120, 195, 195, 120, 1, 0.488011
339, 6, bw, attraction, a-b-da, 9, 3, 6, 29, 186, 114, 195, 120, 120, 195, 2, 3.22635
339, 6, bw, attraction, a-b-da, 9, 3, 6, 29, 186, 114, 195, 120, 120, 195, 3, 2.77532
339, 6, bw, attraction, a-b-db, 14, 1, 6, 30, 56, 125, 135, 60, 60, 135, 2, 4.26908
339, 6, bw, attraction, a-b-db, 14, 1, 6, 30, 56, 125, 135, 60, 60, 135, 1, 0.512304
339, 6, bw, catch, NA, 999, 999, 6, 31, 135, 180, 96, 159, 76, 119, 1, 1.33756
339, 6, bw, catch, NA, 999, 999, 6, 31, 135, 180, 96, 159, 76, 119, 3, 1.09035
339, 6, bw, filler, NA, 999, 999, 6, 32, 95, 90, 161, 148, 129, 61, 2, 1.65994
339, 6, bw, filler, NA, 999, 999, 6, 32, 95, 90, 161, 148, 129, 61, 1, 1.28009
339, 6, bw, attraction, a-b-db, 5, 2, 6, 33, 90, 165, 88, 161, 165, 90, 1, 11.7624
339, 6, bw, attraction, a-b-db, 5, 2, 6, 33, 90, 165, 88, 161, 165, 90, 3, 1.79936
339, 6, bw, filler, NA, 999, 999, 6, 34, 168, 155, 140, 178, 162, 192, 3, 4.12466
339, 6, bw, filler, NA, 999, 999, 6, 34, 168, 155, 140, 178, 162, 192, 1, 0.525318
339, 6, bw, filler, NA, 999, 999, 6, 35, 89, 190, 141, 115, 113, 67, 1, 1.77374
339, 6, bw, filler, NA, 999, 999, 6, 35, 89, 190, 141, 115, 113, 67, 3, 0.453176
339, 6, bw, attraction, a-b-db, 2, 2, 6, 36, 165, 90, 89, 163, 90, 165, 2, 27.3689
339, 6, bw, attraction, a-b-db, 2, 2, 6, 36, 165, 90, 89, 163, 90, 165, 3, 0.777151
339, 6, bw, attraction, a-b-da, 14, 1, 6, 37, 135, 60, 125, 56, 60, 135, 1, 3.32736
339, 6, bw, attraction, a-b-da, 14, 1, 6, 37, 135, 60, 125, 56, 60, 135, 2, 0.640344
339, 6, bw, attraction, a-b-da, 5, 3, 7, 1, 190, 117, 120, 195, 195, 120, 3, 3.34806
339, 6, bw, attraction, a-b-da, 5, 3, 7, 1, 190, 117, 120, 195, 195, 120, 1, 0.500335
339, 6, bw, attraction, a-b-db, 14, 2, 7, 2, 90, 165, 165, 90, 83, 153, 2, 4.57412
339, 6, bw, attraction, a-b-db, 14, 2, 7, 2, 90, 165, 165, 90, 83, 153, 3, 0.596778
339, 6, bw, attraction, a-b-db, 14, 1, 7, 3, 60, 135, 135, 60, 56, 125, 1, 1.65049
339, 6, bw, attraction, a-b-db, 14, 1, 7, 3, 60, 135, 135, 60, 56, 125, 3, 0.367211
339, 6, bw, attraction, a-b-da, 9, 1, 7, 4, 60, 135, 129, 57, 135, 60, 3, 1.49438
339, 6, bw, attraction, a-b-da, 9, 1, 7, 4, 60, 135, 129, 57, 135, 60, 2, 2.61717
339, 6, bw, attraction, a-b-da, 2, 2, 7, 5, 165, 90, 163, 89, 90, 165, 1, 4.78169
339, 6, bw, attraction, a-b-da, 2, 2, 7, 5, 165, 90, 163, 89, 90, 165, 3, 1.86818
339, 6, bw, attraction, a-b-db, 14, 3, 7, 6, 195, 120, 111, 181, 120, 195, 1, 2.16685
339, 6, bw, attraction, a-b-db, 14, 3, 7, 6, 195, 120, 111, 181, 120, 195, 2, 0.534833
339, 6, bw, attraction, a-b-db, 5, 3, 7, 7, 120, 195, 195, 120, 117, 190, 2, 1.43927
339, 6, bw, attraction, a-b-db, 5, 3, 7, 7, 120, 195, 195, 120, 117, 190, 3, 0.452245
339, 6, bw, attraction, a-b-db, 2, 3, 7, 8, 120, 195, 119, 193, 195, 120, 3, 7.18394
339, 6, bw, attraction, a-b-db, 2, 3, 7, 8, 120, 195, 119, 193, 195, 120, 1, 0.781667
339, 6, bw, attraction, a-b-da, 14, 1, 7, 9, 135, 60, 125, 56, 60, 135, 1, 4.70808
339, 6, bw, attraction, a-b-da, 14, 1, 7, 9, 135, 60, 125, 56, 60, 135, 3, 0.389225
339, 6, bw, catch, NA, 999, 999, 7, 10, 133, 62, 103, 152, 152, 163, 3, 1.82703
339, 6, bw, catch, NA, 999, 999, 7, 10, 133, 62, 103, 152, 152, 163, 1, 0.832385
339, 6, bw, attraction, a-b-da, 9, 3, 7, 11, 120, 195, 186, 114, 195, 120, 1, 4.30079
339, 6, bw, attraction, a-b-da, 9, 3, 7, 11, 120, 195, 186, 114, 195, 120, 3, 0.494815
339, 6, bw, attraction, a-b-db, 9, 1, 7, 12, 60, 135, 57, 129, 135, 60, 1, 8.67253
339, 6, bw, attraction, a-b-db, 9, 1, 7, 12, 60, 135, 57, 129, 135, 60, 2, 0.498599
339, 6, bw, filler, NA, 999, 999, 7, 13, 110, 106, 137, 114, 91, 130, 2, 1.99628
339, 6, bw, filler, NA, 999, 999, 7, 13, 110, 106, 137, 114, 91, 130, 3, 3.98684
339, 6, bw, attraction, a-b-db, 5, 2, 7, 14, 165, 90, 88, 161, 90, 165, 1, 1.6722
339, 6, bw, attraction, a-b-db, 5, 2, 7, 14, 165, 90, 88, 161, 90, 165, 2, 2.42782
339, 6, bw, attraction, a-b-da, 2, 3, 7, 15, 195, 120, 193, 119, 120, 195, 1, 3.96768
339, 6, bw, attraction, a-b-da, 2, 3, 7, 15, 195, 120, 193, 119, 120, 195, 3, 1.59905
339, 6, bw, attraction, a-b-db, 9, 3, 7, 16, 120, 195, 114, 186, 195, 120, 3, 6.33246
339, 6, bw, attraction, a-b-db, 9, 3, 7, 16, 120, 195, 114, 186, 195, 120, 2, 1.41235
339, 6, bw, filler, NA, 999, 999, 7, 17, 182, 193, 114, 190, 125, 61, 1, 0.913176
339, 6, bw, filler, NA, 999, 999, 7, 17, 182, 193, 114, 190, 125, 61, 3, 0.803678
339, 6, bw, filler, NA, 999, 999, 7, 18, 181, 171, 174, 65, 179, 192, 3, 2.16133
339, 6, bw, filler, NA, 999, 999, 7, 18, 181, 171, 174, 65, 179, 192, 2, 0.481255
339, 6, bw, attraction, a-b-db, 2, 2, 7, 19, 89, 163, 90, 165, 165, 90, 3, 3.93974
339, 6, bw, attraction, a-b-db, 2, 2, 7, 19, 89, 163, 90, 165, 165, 90, 1, 2.08375
339, 6, bw, attraction, a-b-da, 9, 2, 7, 20, 90, 165, 165, 90, 157, 86, 2, 15.9657
339, 6, bw, attraction, a-b-da, 9, 2, 7, 20, 90, 165, 165, 90, 157, 86, 3, 0.377404
339, 6, bw, filler, NA, 999, 999, 7, 21, 77, 86, 157, 155, 105, 107, 2, 0.991909
339, 6, bw, filler, NA, 999, 999, 7, 21, 77, 86, 157, 155, 105, 107, 1, 0.518878
339, 6, bw, filler, NA, 999, 999, 7, 22, 178, 142, 111, 112, 71, 126, 1, 1.208
339, 6, bw, filler, NA, 999, 999, 7, 22, 178, 142, 111, 112, 71, 126, 3, 0.574234
339, 6, bw, filler, NA, 999, 999, 7, 23, 57, 159, 115, 74, 156, 145, 3, 12.9327
339, 6, bw, filler, NA, 999, 999, 7, 23, 57, 159, 115, 74, 156, 145, 1, 5.65859
339, 6, bw, attraction, a-b-da, 14, 2, 7, 24, 90, 165, 153, 83, 165, 90, 3, 7.62815
339, 6, bw, attraction, a-b-da, 14, 2, 7, 24, 90, 165, 153, 83, 165, 90, 2, 0.535769
339, 6, bw, catch, NA, 999, 999, 7, 25, 108, 147, 101, 94, 160, 155, 3, 1.12814
339, 6, bw, catch, NA, 999, 999, 7, 25, 108, 147, 101, 94, 160, 155, 2, 0.657748
339, 6, bw, attraction, a-b-da, 14, 3, 7, 26, 120, 195, 195, 120, 181, 111, 2, 1.58883
339, 6, bw, attraction, a-b-da, 14, 3, 7, 26, 120, 195, 195, 120, 181, 111, 3, 0.411671
339, 6, bw, attraction, a-b-db, 2, 1, 7, 27, 135, 60, 59, 134, 60, 135, 1, 2.57691
339, 6, bw, attraction, a-b-db, 2, 1, 7, 27, 135, 60, 59, 134, 60, 135, 3, 0.647952
339, 6, bw, filler, NA, 999, 999, 7, 28, 105, 115, 79, 56, 153, 175, 3, 1.08376
339, 6, bw, filler, NA, 999, 999, 7, 28, 105, 115, 79, 56, 153, 175, 2, 0.479336
339, 6, bw, attraction, a-b-da, 5, 2, 7, 29, 165, 90, 90, 165, 161, 88, 2, 2.49779
339, 6, bw, attraction, a-b-da, 5, 2, 7, 29, 165, 90, 90, 165, 161, 88, 3, 1.22032
339, 6, bw, attraction, a-b-da, 2, 1, 7, 30, 60, 135, 135, 60, 134, 59, 2, 4.64923
339, 6, bw, attraction, a-b-da, 2, 1, 7, 30, 60, 135, 135, 60, 134, 59, 3, 0.573008
339, 6, bw, filler, NA, 999, 999, 7, 31, 155, 182, 99, 122, 62, 79, 1, 0.835458
339, 6, bw, filler, NA, 999, 999, 7, 31, 155, 182, 99, 122, 62, 79, 3, 0.537231
339, 6, bw, attraction, a-b-db, 9, 2, 7, 32, 86, 157, 165, 90, 90, 165, 3, 2.54559
339, 6, bw, attraction, a-b-db, 9, 2, 7, 32, 86, 157, 165, 90, 90, 165, 1, 0.73011
339, 6, bw, attraction, a-b-da, 5, 1, 7, 33, 135, 60, 60, 135, 132, 58, 1, 4.13053
339, 6, bw, attraction, a-b-da, 5, 1, 7, 33, 135, 60, 60, 135, 132, 58, 3, 1.09119
339, 6, bw, filler, NA, 999, 999, 7, 34, 135, 118, 155, 173, 146, 184, 2, 2.38882
339, 6, bw, filler, NA, 999, 999, 7, 34, 135, 118, 155, 173, 146, 184, 1, 0.41947
339, 6, bw, catch, NA, 999, 999, 7, 35, 159, 156, 64, 131, 122, 133, 1, 1.22455
339, 6, bw, catch, NA, 999, 999, 7, 35, 159, 156, 64, 131, 122, 133, 2, 0.518074
339, 6, bw, filler, NA, 999, 999, 7, 36, 139, 91, 156, 57, 130, 91, 1, 3.2952
339, 6, bw, filler, NA, 999, 999, 7, 36, 139, 91, 156, 57, 130, 91, 3, 1.28949
339, 6, bw, attraction, a-b-db, 5, 1, 7, 37, 58, 132, 135, 60, 60, 135, 2, 2.4917
339, 6, bw, attraction, a-b-db, 5, 1, 7, 37, 58, 132, 135, 60, 60, 135, 3, 1.74224
339, 6, bw, filler, NA, 999, 999, 8, 1, 85, 111, 112, 102, 74, 87, 2, 2.00561
339, 6, bw, filler, NA, 999, 999, 8, 1, 85, 111, 112, 102, 74, 87, 3, 0.459698
339, 6, bw, attraction, a-b-da, 2, 1, 8, 2, 60, 135, 134, 59, 135, 60, 2, 27.7828
339, 6, bw, attraction, a-b-da, 2, 1, 8, 2, 60, 135, 134, 59, 135, 60, 3, 1.66207
339, 6, bw, attraction, a-b-da, 9, 1, 8, 3, 135, 60, 129, 57, 60, 135, 1, 4.36076
339, 6, bw, attraction, a-b-da, 9, 1, 8, 3, 135, 60, 129, 57, 60, 135, 2, 0.544046
339, 6, bw, attraction, a-b-da, 14, 3, 8, 4, 120, 195, 195, 120, 181, 111, 2, 1.23184
339, 6, bw, attraction, a-b-da, 14, 3, 8, 4, 120, 195, 195, 120, 181, 111, 3, 0.44555
339, 6, bw, attraction, a-b-da, 2, 3, 8, 5, 195, 120, 120, 195, 193, 119, 2, 2.22526
339, 6, bw, attraction, a-b-da, 2, 3, 8, 5, 195, 120, 120, 195, 193, 119, 3, 0.43054
339, 6, bw, attraction, a-b-db, 14, 2, 8, 6, 90, 165, 165, 90, 83, 153, 1, 2.24299
339, 6, bw, attraction, a-b-db, 14, 2, 8, 6, 90, 165, 165, 90, 83, 153, 3, 0.4556
339, 6, bw, filler, NA, 999, 999, 8, 7, 192, 81, 158, 60, 117, 110, 1, 3.4594
339, 6, bw, filler, NA, 999, 999, 8, 7, 192, 81, 158, 60, 117, 110, 2, 0.646987
339, 6, bw, attraction, a-b-db, 9, 1, 8, 8, 135, 60, 57, 129, 60, 135, 1, 3.1387
339, 6, bw, attraction, a-b-db, 9, 1, 8, 8, 135, 60, 57, 129, 60, 135, 2, 0.53912
339, 6, bw, filler, NA, 999, 999, 8, 9, 139, 62, 124, 156, 128, 84, 2, 5.78745
339, 6, bw, filler, NA, 999, 999, 8, 9, 139, 62, 124, 156, 128, 84, 1, 1.70574
339, 6, bw, filler, NA, 999, 999, 8, 10, 174, 103, 113, 125, 64, 124, 1, 2.00305
339, 6, bw, filler, NA, 999, 999, 8, 10, 174, 103, 113, 125, 64, 124, 3, 0.537703
339, 6, bw, catch, NA, 999, 999, 8, 11, 121, 194, 117, 138, 79, 116, 1, 1.45818
339, 6, bw, catch, NA, 999, 999, 8, 11, 121, 194, 117, 138, 79, 116, 3, 0.598348
339, 6, bw, catch, NA, 999, 999, 8, 12, 105, 90, 192, 123, 132, 123, 2, 7.58812
339, 6, bw, catch, NA, 999, 999, 8, 12, 105, 90, 192, 123, 132, 123, 1, 0.553639
339, 6, bw, attraction, a-b-db, 14, 1, 8, 13, 60, 135, 135, 60, 56, 125, 1, 13.7935
339, 6, bw, attraction, a-b-db, 14, 1, 8, 13, 60, 135, 135, 60, 56, 125, 3, 0.340586
339, 6, bw, attraction, a-b-db, 2, 1, 8, 14, 135, 60, 59, 134, 60, 135, 1, 1.34033
339, 6, bw, attraction, a-b-db, 2, 1, 8, 14, 135, 60, 59, 134, 60, 135, 2, 1.18924
339, 6, bw, filler, NA, 999, 999, 8, 15, 192, 56, 187, 178, 94, 125, 2, 1.57148
339, 6, bw, filler, NA, 999, 999, 8, 15, 192, 56, 187, 178, 94, 125, 3, 0.746962
339, 6, bw, attraction, a-b-db, 5, 1, 8, 16, 58, 132, 135, 60, 60, 135, 2, 2.75468
339, 6, bw, attraction, a-b-db, 5, 1, 8, 16, 58, 132, 135, 60, 60, 135, 1, 0.906442
339, 6, bw, attraction, a-b-db, 9, 3, 8, 17, 195, 120, 114, 186, 120, 195, 1, 2.2274
339, 6, bw, attraction, a-b-db, 9, 3, 8, 17, 195, 120, 114, 186, 120, 195, 2, 1.29665
339, 6, bw, catch, NA, 999, 999, 8, 18, 95, 100, 127, 128, 157, 158, 3, 0.826233
339, 6, bw, catch, NA, 999, 999, 8, 18, 95, 100, 127, 128, 157, 158, 1, 0.767969
339, 6, bw, attraction, a-b-da, 5, 1, 8, 19, 132, 58, 60, 135, 135, 60, 3, 6.82292
339, 6, bw, attraction, a-b-da, 5, 1, 8, 19, 132, 58, 60, 135, 135, 60, 1, 0.66679
339, 6, bw, attraction, a-b-da, 5, 2, 8, 20, 90, 165, 165, 90, 161, 88, 2, 2.62179
339, 6, bw, attraction, a-b-da, 5, 2, 8, 20, 90, 165, 165, 90, 161, 88, 3, 1.29102
339, 6, bw, attraction, a-b-db, 5, 2, 8, 21, 90, 165, 165, 90, 88, 161, 2, 6.97259
339, 6, bw, attraction, a-b-db, 5, 2, 8, 21, 90, 165, 165, 90, 88, 161, 3, 0.426365
339, 6, bw, attraction, a-b-db, 14, 3, 8, 22, 111, 181, 120, 195, 195, 120, 2, 2.39883
339, 6, bw, attraction, a-b-db, 14, 3, 8, 22, 111, 181, 120, 195, 195, 120, 1, 0.629396
339, 6, bw, attraction, a-b-da, 5, 3, 8, 23, 190, 117, 120, 195, 195, 120, 1, 3.78582
339, 6, bw, attraction, a-b-da, 5, 3, 8, 23, 190, 117, 120, 195, 195, 120, 3, 0.576611
339, 6, bw, attraction, a-b-db, 2, 3, 8, 24, 120, 195, 195, 120, 119, 193, 2, 2.56701
339, 6, bw, attraction, a-b-db, 2, 3, 8, 24, 120, 195, 195, 120, 119, 193, 3, 2.66289
339, 6, bw, filler, NA, 999, 999, 8, 25, 147, 65, 78, 186, 129, 93, 2, 3.95332
339, 6, bw, filler, NA, 999, 999, 8, 25, 147, 65, 78, 186, 129, 93, 1, 2.32134
339, 6, bw, attraction, a-b-da, 2, 2, 8, 26, 163, 89, 90, 165, 165, 90, 2, 5.22602
339, 6, bw, attraction, a-b-da, 2, 2, 8, 26, 163, 89, 90, 165, 165, 90, 1, 0.502285
339, 6, bw, filler, NA, 999, 999, 8, 27, 68, 156, 128, 82, 167, 58, 2, 16.312
339, 6, bw, filler, NA, 999, 999, 8, 27, 68, 156, 128, 82, 167, 58, 3, 1.80565
339, 6, bw, attraction, a-b-db, 5, 3, 8, 28, 117, 190, 195, 120, 120, 195, 2, 3.12297
339, 6, bw, attraction, a-b-db, 5, 3, 8, 28, 117, 190, 195, 120, 120, 195, 1, 0.996053
339, 6, bw, filler, NA, 999, 999, 8, 29, 148, 174, 141, 81, 167, 105, 1, 1.46565
339, 6, bw, filler, NA, 999, 999, 8, 29, 148, 174, 141, 81, 167, 105, 2, 1.02176
339, 6, bw, attraction, a-b-da, 14, 1, 8, 30, 125, 56, 60, 135, 135, 60, 2, 3.89085
339, 6, bw, attraction, a-b-da, 14, 1, 8, 30, 125, 56, 60, 135, 135, 60, 1, 2.66082
339, 6, bw, filler, NA, 999, 999, 8, 31, 125, 146, 164, 110, 90, 69, 2, 1.50325
339, 6, bw, filler, NA, 999, 999, 8, 31, 125, 146, 164, 110, 90, 69, 3, 0.418131
339, 6, bw, filler, NA, 999, 999, 8, 32, 169, 62, 146, 167, 162, 68, 2, 1.27924
339, 6, bw, filler, NA, 999, 999, 8, 32, 169, 62, 146, 167, 162, 68, 3, 1.75487
339, 6, bw, attraction, a-b-db, 9, 2, 8, 33, 165, 90, 86, 157, 90, 165, 1, 6.33016
339, 6, bw, attraction, a-b-db, 9, 2, 8, 33, 165, 90, 86, 157, 90, 165, 2, 1.28219
339, 6, bw, attraction, a-b-da, 9, 3, 8, 34, 120, 195, 186, 114, 195, 120, 2, 2.29246
339, 6, bw, attraction, a-b-da, 9, 3, 8, 34, 120, 195, 186, 114, 195, 120, 1, 3.72698
339, 6, bw, attraction, a-b-db, 2, 2, 8, 35, 90, 165, 165, 90, 89, 163, 2, 8.57449
339, 6, bw, attraction, a-b-db, 2, 2, 8, 35, 90, 165, 165, 90, 89, 163, 3, 0.435736
339, 6, bw, attraction, a-b-da, 9, 2, 8, 36, 90, 165, 157, 86, 165, 90, 3, 2.38423
339, 6, bw, attraction, a-b-da, 9, 2, 8, 36, 90, 165, 157, 86, 165, 90, 2, 0.407463
339, 6, bw, attraction, a-b-da, 14, 2, 8, 37, 153, 83, 90, 165, 165, 90, 2, 3.20452
339, 6, bw, attraction, a-b-da, 14, 2, 8, 37, 153, 83, 90, 165, 165, 90, 1, 0.378816
