sub_n, computer_n, bw_cond, effect, set, distance, diag, block_n, trial_n, h1, w1, h2, w2, h3, w3, choice, rt 
33, 6, bw, practice, NA, 999, 999, 0, 1, 94, 140, 64, 180, 163, 68, 2, 13.9444
33, 6, bw, practice, NA, 999, 999, 0, 1, 94, 140, 64, 180, 163, 68, 1, 5.11152
33, 6, bw, practice, NA, 999, 999, 0, 2, 98, 63, 136, 120, 168, 149, 3, 3.43516
33, 6, bw, practice, NA, 999, 999, 0, 2, 98, 63, 136, 120, 168, 149, 1, 1.71315
33, 6, bw, practice, NA, 999, 999, 0, 3, 168, 110, 137, 157, 156, 106, 2, 2.76676
33, 6, bw, practice, NA, 999, 999, 0, 3, 168, 110, 137, 157, 156, 106, 3, 4.12547
33, 6, bw, attraction, a-b-da, 9, 1, 1, 1, 129, 57, 135, 60, 60, 135, 3, 11.6584
33, 6, bw, attraction, a-b-da, 9, 1, 1, 1, 129, 57, 135, 60, 60, 135, 1, 1.09132
33, 6, bw, attraction, a-b-db, 2, 3, 1, 2, 195, 120, 120, 195, 119, 193, 2, 6.75699
33, 6, bw, attraction, a-b-db, 2, 3, 1, 2, 195, 120, 120, 195, 119, 193, 3, 4.05955
33, 6, bw, attraction, a-b-db, 9, 3, 1, 3, 195, 120, 114, 186, 120, 195, 1, 13.5975
33, 6, bw, attraction, a-b-db, 9, 3, 1, 3, 195, 120, 114, 186, 120, 195, 2, 1.88854
33, 6, bw, attraction, a-b-da, 2, 2, 1, 4, 165, 90, 90, 165, 163, 89, 2, 6.93056
33, 6, bw, attraction, a-b-da, 2, 2, 1, 4, 165, 90, 90, 165, 163, 89, 1, 1.61836
33, 6, bw, attraction, a-b-da, 2, 1, 1, 5, 134, 59, 60, 135, 135, 60, 2, 4.00715
33, 6, bw, attraction, a-b-da, 2, 1, 1, 5, 134, 59, 60, 135, 135, 60, 1, 5.6526
33, 6, bw, attraction, a-b-db, 2, 2, 1, 6, 90, 165, 165, 90, 89, 163, 2, 9.02279
33, 6, bw, attraction, a-b-db, 2, 2, 1, 6, 90, 165, 165, 90, 89, 163, 3, 3.32255
33, 6, bw, catch, NA, 999, 999, 1, 7, 172, 143, 131, 64, 152, 103, 1, 1.97817
33, 6, bw, catch, NA, 999, 999, 1, 7, 172, 143, 131, 64, 152, 103, 2, 1.0256
33, 6, bw, attraction, a-b-da, 14, 2, 1, 8, 165, 90, 90, 165, 153, 83, 1, 3.58975
33, 6, bw, attraction, a-b-da, 14, 2, 1, 8, 165, 90, 90, 165, 153, 83, 3, 2.148
33, 6, bw, filler, NA, 999, 999, 1, 9, 151, 142, 78, 135, 121, 102, 1, 1.68325
33, 6, bw, filler, NA, 999, 999, 1, 9, 151, 142, 78, 135, 121, 102, 3, 9.40668
33, 6, bw, catch, NA, 999, 999, 1, 10, 117, 138, 187, 128, 62, 133, 2, 1.29764
33, 6, bw, catch, NA, 999, 999, 1, 10, 117, 138, 187, 128, 62, 133, 3, 1.05252
33, 6, bw, attraction, a-b-da, 9, 2, 1, 11, 90, 165, 165, 90, 157, 86, 1, 4.36849
33, 6, bw, attraction, a-b-da, 9, 2, 1, 11, 90, 165, 165, 90, 157, 86, 3, 1.60761
33, 6, bw, attraction, a-b-da, 2, 3, 1, 12, 120, 195, 193, 119, 195, 120, 3, 9.60422
33, 6, bw, attraction, a-b-da, 2, 3, 1, 12, 120, 195, 193, 119, 195, 120, 1, 4.16853
33, 6, bw, filler, NA, 999, 999, 1, 13, 96, 128, 171, 70, 90, 130, 2, 3.27849
33, 6, bw, filler, NA, 999, 999, 1, 13, 96, 128, 171, 70, 90, 130, 3, 3.56951
33, 6, bw, attraction, a-b-db, 14, 1, 1, 14, 135, 60, 56, 125, 60, 135, 3, 7.90357
33, 6, bw, attraction, a-b-db, 14, 1, 1, 14, 135, 60, 56, 125, 60, 135, 2, 0.648421
33, 6, bw, filler, NA, 999, 999, 1, 15, 99, 106, 164, 140, 80, 159, 2, 1.46014
33, 6, bw, filler, NA, 999, 999, 1, 15, 99, 106, 164, 140, 80, 159, 1, 1.07256
33, 6, bw, attraction, a-b-da, 5, 2, 1, 16, 165, 90, 161, 88, 90, 165, 3, 4.06741
33, 6, bw, attraction, a-b-da, 5, 2, 1, 16, 165, 90, 161, 88, 90, 165, 2, 3.58271
33, 6, bw, attraction, a-b-db, 5, 2, 1, 17, 90, 165, 88, 161, 165, 90, 3, 5.96416
33, 6, bw, attraction, a-b-db, 5, 2, 1, 17, 90, 165, 88, 161, 165, 90, 2, 0.738936
33, 6, bw, filler, NA, 999, 999, 1, 18, 130, 163, 148, 116, 105, 77, 1, 3.99538
33, 6, bw, filler, NA, 999, 999, 1, 18, 130, 163, 148, 116, 105, 77, 3, 1.08943
33, 6, bw, attraction, a-b-db, 5, 3, 1, 19, 120, 195, 117, 190, 195, 120, 2, 9.00368
33, 6, bw, attraction, a-b-db, 5, 3, 1, 19, 120, 195, 117, 190, 195, 120, 1, 0.736174
33, 6, bw, attraction, a-b-db, 2, 1, 1, 20, 59, 134, 60, 135, 135, 60, 2, 3.86458
33, 6, bw, attraction, a-b-db, 2, 1, 1, 20, 59, 134, 60, 135, 135, 60, 1, 0.915988
33, 6, bw, filler, NA, 999, 999, 1, 21, 108, 68, 139, 79, 151, 104, 3, 1.61294
33, 6, bw, filler, NA, 999, 999, 1, 21, 108, 68, 139, 79, 151, 104, 1, 1.10704
33, 6, bw, catch, NA, 999, 999, 1, 22, 135, 60, 129, 186, 142, 113, 2, 1.3401
33, 6, bw, catch, NA, 999, 999, 1, 22, 135, 60, 129, 186, 142, 113, 1, 0.668866
33, 6, bw, attraction, a-b-da, 14, 3, 1, 23, 120, 195, 181, 111, 195, 120, 3, 8.17597
33, 6, bw, attraction, a-b-da, 14, 3, 1, 23, 120, 195, 181, 111, 195, 120, 1, 1.93348
33, 6, bw, attraction, a-b-db, 9, 2, 1, 24, 90, 165, 165, 90, 86, 157, 2, 6.68534
33, 6, bw, attraction, a-b-db, 9, 2, 1, 24, 90, 165, 165, 90, 86, 157, 3, 0.639332
33, 6, bw, filler, NA, 999, 999, 1, 25, 110, 156, 83, 168, 125, 154, 3, 5.03505
33, 6, bw, filler, NA, 999, 999, 1, 25, 110, 156, 83, 168, 125, 154, 2, 0.639462
33, 6, bw, attraction, a-b-db, 14, 3, 1, 26, 111, 181, 120, 195, 195, 120, 2, 8.81113
33, 6, bw, attraction, a-b-db, 14, 3, 1, 26, 111, 181, 120, 195, 195, 120, 1, 0.455009
33, 6, bw, filler, NA, 999, 999, 1, 27, 149, 145, 93, 113, 130, 186, 3, 5.32283
33, 6, bw, filler, NA, 999, 999, 1, 27, 149, 145, 93, 113, 130, 186, 2, 0.45108
33, 6, bw, attraction, a-b-da, 5, 3, 1, 28, 195, 120, 120, 195, 190, 117, 2, 4.07903
33, 6, bw, attraction, a-b-da, 5, 3, 1, 28, 195, 120, 120, 195, 190, 117, 1, 2.24982
33, 6, bw, filler, NA, 999, 999, 1, 29, 70, 92, 153, 68, 150, 170, 3, 1.26895
33, 6, bw, filler, NA, 999, 999, 1, 29, 70, 92, 153, 68, 150, 170, 1, 0.577101
33, 6, bw, attraction, a-b-da, 5, 1, 1, 30, 60, 135, 135, 60, 132, 58, 1, 4.75169
33, 6, bw, attraction, a-b-da, 5, 1, 1, 30, 60, 135, 135, 60, 132, 58, 3, 0.55943
33, 6, bw, attraction, a-b-da, 14, 1, 1, 31, 125, 56, 60, 135, 135, 60, 2, 9.6946
33, 6, bw, attraction, a-b-da, 14, 1, 1, 31, 125, 56, 60, 135, 135, 60, 1, 1.05481
33, 6, bw, attraction, a-b-db, 9, 1, 1, 32, 135, 60, 60, 135, 57, 129, 2, 3.54639
33, 6, bw, attraction, a-b-db, 9, 1, 1, 32, 135, 60, 60, 135, 57, 129, 3, 1.34663
33, 6, bw, attraction, a-b-db, 14, 2, 1, 33, 83, 153, 165, 90, 90, 165, 2, 3.54614
33, 6, bw, attraction, a-b-db, 14, 2, 1, 33, 83, 153, 165, 90, 90, 165, 1, 0.522329
33, 6, bw, attraction, a-b-da, 9, 3, 1, 34, 120, 195, 186, 114, 195, 120, 3, 4.61941
33, 6, bw, attraction, a-b-da, 9, 3, 1, 34, 120, 195, 186, 114, 195, 120, 1, 1.25662
33, 6, bw, filler, NA, 999, 999, 1, 35, 160, 166, 158, 57, 153, 161, 1, 4.14751
33, 6, bw, filler, NA, 999, 999, 1, 35, 160, 166, 158, 57, 153, 161, 2, 0.523514
33, 6, bw, attraction, a-b-db, 5, 1, 1, 36, 58, 132, 60, 135, 135, 60, 2, 3.25194
33, 6, bw, attraction, a-b-db, 5, 1, 1, 36, 58, 132, 60, 135, 135, 60, 1, 0.624298
33, 6, bw, filler, NA, 999, 999, 1, 37, 152, 173, 142, 85, 69, 71, 1, 1.19674
33, 6, bw, filler, NA, 999, 999, 1, 37, 152, 173, 142, 85, 69, 71, 3, 0.643713
33, 6, bw, attraction, a-b-db, 14, 1, 2, 1, 60, 135, 135, 60, 56, 125, 1, 5.30324
33, 6, bw, attraction, a-b-db, 14, 1, 2, 1, 60, 135, 135, 60, 56, 125, 3, 2.14506
33, 6, bw, attraction, a-b-da, 2, 2, 2, 2, 163, 89, 90, 165, 165, 90, 2, 3.28829
33, 6, bw, attraction, a-b-da, 2, 2, 2, 2, 163, 89, 90, 165, 165, 90, 1, 0.69052
33, 6, bw, attraction, a-b-db, 14, 3, 2, 3, 195, 120, 111, 181, 120, 195, 1, 4.7963
33, 6, bw, attraction, a-b-db, 14, 3, 2, 3, 195, 120, 111, 181, 120, 195, 2, 1.00203
33, 6, bw, attraction, a-b-da, 14, 1, 2, 4, 60, 135, 125, 56, 135, 60, 3, 5.15166
33, 6, bw, attraction, a-b-da, 14, 1, 2, 4, 60, 135, 125, 56, 135, 60, 1, 0.607491
33, 6, bw, attraction, a-b-db, 9, 3, 2, 5, 195, 120, 120, 195, 114, 186, 2, 2.62051
33, 6, bw, attraction, a-b-db, 9, 3, 2, 5, 195, 120, 120, 195, 114, 186, 3, 0.466259
33, 6, bw, filler, NA, 999, 999, 2, 6, 130, 104, 114, 138, 155, 99, 2, 10.0614
33, 6, bw, filler, NA, 999, 999, 2, 6, 130, 104, 114, 138, 155, 99, 1, 0.838885
33, 6, bw, attraction, a-b-db, 5, 2, 2, 7, 88, 161, 165, 90, 90, 165, 2, 2.89925
33, 6, bw, attraction, a-b-db, 5, 2, 2, 7, 88, 161, 165, 90, 90, 165, 1, 0.997836
33, 6, bw, filler, NA, 999, 999, 2, 8, 88, 183, 79, 117, 84, 172, 1, 3.91539
33, 6, bw, filler, NA, 999, 999, 2, 8, 88, 183, 79, 117, 84, 172, 2, 0.604832
33, 6, bw, filler, NA, 999, 999, 2, 9, 137, 142, 96, 100, 118, 194, 3, 1.59453
33, 6, bw, filler, NA, 999, 999, 2, 9, 137, 142, 96, 100, 118, 194, 2, 0.817366
33, 6, bw, filler, NA, 999, 999, 2, 10, 154, 128, 134, 88, 165, 71, 1, 1.8223
33, 6, bw, filler, NA, 999, 999, 2, 10, 154, 128, 134, 88, 165, 71, 3, 0.7717
33, 6, bw, filler, NA, 999, 999, 2, 11, 115, 184, 98, 94, 157, 116, 1, 3.7147
33, 6, bw, filler, NA, 999, 999, 2, 11, 115, 184, 98, 94, 157, 116, 2, 0.396277
33, 6, bw, filler, NA, 999, 999, 2, 12, 57, 109, 126, 169, 98, 62, 2, 1.39412
33, 6, bw, filler, NA, 999, 999, 2, 12, 57, 109, 126, 169, 98, 62, 3, 1.87293
33, 6, bw, attraction, a-b-da, 5, 2, 2, 13, 90, 165, 161, 88, 165, 90, 1, 5.30755
33, 6, bw, attraction, a-b-da, 5, 2, 2, 13, 90, 165, 161, 88, 165, 90, 3, 4.16459
33, 6, bw, attraction, a-b-da, 14, 3, 2, 14, 195, 120, 181, 111, 120, 195, 3, 4.78669
33, 6, bw, attraction, a-b-da, 14, 3, 2, 14, 195, 120, 181, 111, 120, 195, 2, 0.721008
33, 6, bw, attraction, a-b-db, 5, 3, 2, 15, 117, 190, 195, 120, 120, 195, 2, 2.50614
33, 6, bw, attraction, a-b-db, 5, 3, 2, 15, 117, 190, 195, 120, 120, 195, 1, 0.924015
33, 6, bw, attraction, a-b-da, 2, 3, 2, 16, 120, 195, 195, 120, 193, 119, 2, 6.74028
33, 6, bw, attraction, a-b-da, 2, 3, 2, 16, 120, 195, 195, 120, 193, 119, 3, 5.31548
33, 6, bw, attraction, a-b-db, 2, 2, 2, 17, 90, 165, 165, 90, 89, 163, 2, 7.963
33, 6, bw, attraction, a-b-db, 2, 2, 2, 17, 90, 165, 165, 90, 89, 163, 1, 1.58522
33, 6, bw, filler, NA, 999, 999, 2, 18, 87, 179, 111, 108, 162, 187, 3, 1.82338
33, 6, bw, filler, NA, 999, 999, 2, 18, 87, 179, 111, 108, 162, 187, 2, 0.860685
33, 6, bw, attraction, a-b-da, 2, 1, 2, 19, 134, 59, 135, 60, 60, 135, 3, 5.89575
33, 6, bw, attraction, a-b-da, 2, 1, 2, 19, 134, 59, 135, 60, 60, 135, 1, 1.04121
33, 6, bw, attraction, a-b-da, 5, 3, 2, 20, 190, 117, 195, 120, 120, 195, 3, 3.46073
33, 6, bw, attraction, a-b-da, 5, 3, 2, 20, 190, 117, 195, 120, 120, 195, 1, 1.42434
33, 6, bw, attraction, a-b-db, 5, 1, 2, 21, 58, 132, 60, 135, 135, 60, 3, 6.10852
33, 6, bw, attraction, a-b-db, 5, 1, 2, 21, 58, 132, 60, 135, 135, 60, 1, 1.00527
33, 6, bw, attraction, a-b-da, 9, 3, 2, 22, 120, 195, 186, 114, 195, 120, 3, 5.13091
33, 6, bw, attraction, a-b-da, 9, 3, 2, 22, 120, 195, 186, 114, 195, 120, 2, 1.61942
33, 6, bw, catch, NA, 999, 999, 2, 23, 94, 161, 124, 191, 97, 98, 2, 1.92016
33, 6, bw, catch, NA, 999, 999, 2, 23, 94, 161, 124, 191, 97, 98, 3, 0.834088
33, 6, bw, attraction, a-b-da, 5, 1, 2, 24, 132, 58, 135, 60, 60, 135, 2, 6.25441
33, 6, bw, attraction, a-b-da, 5, 1, 2, 24, 132, 58, 135, 60, 60, 135, 1, 1.20175
33, 6, bw, filler, NA, 999, 999, 2, 25, 148, 85, 169, 60, 191, 146, 3, 1.55133
33, 6, bw, filler, NA, 999, 999, 2, 25, 148, 85, 169, 60, 191, 146, 1, 2.95212
33, 6, bw, catch, NA, 999, 999, 2, 26, 146, 169, 128, 67, 143, 112, 1, 1.35114
33, 6, bw, catch, NA, 999, 999, 2, 26, 146, 169, 128, 67, 143, 112, 2, 1.04006
33, 6, bw, attraction, a-b-db, 9, 2, 2, 27, 86, 157, 90, 165, 165, 90, 3, 4.29168
33, 6, bw, attraction, a-b-db, 9, 2, 2, 27, 86, 157, 90, 165, 165, 90, 1, 0.965657
33, 6, bw, attraction, a-b-da, 9, 2, 2, 28, 90, 165, 165, 90, 157, 86, 2, 3.79663
33, 6, bw, attraction, a-b-da, 9, 2, 2, 28, 90, 165, 165, 90, 157, 86, 3, 4.299
33, 6, bw, attraction, a-b-db, 2, 3, 2, 29, 119, 193, 195, 120, 120, 195, 2, 3.33137
33, 6, bw, attraction, a-b-db, 2, 3, 2, 29, 119, 193, 195, 120, 120, 195, 1, 0.644324
33, 6, bw, attraction, a-b-db, 9, 1, 2, 30, 135, 60, 57, 129, 60, 135, 1, 9.54404
33, 6, bw, attraction, a-b-db, 9, 1, 2, 30, 135, 60, 57, 129, 60, 135, 2, 0.534328
33, 6, bw, catch, NA, 999, 999, 2, 31, 175, 140, 91, 164, 119, 76, 1, 2.38274
33, 6, bw, catch, NA, 999, 999, 2, 31, 175, 140, 91, 164, 119, 76, 3, 2.70201
33, 6, bw, attraction, a-b-db, 14, 2, 2, 32, 83, 153, 165, 90, 90, 165, 2, 2.67102
33, 6, bw, attraction, a-b-db, 14, 2, 2, 32, 83, 153, 165, 90, 90, 165, 1, 0.546244
33, 6, bw, filler, NA, 999, 999, 2, 33, 85, 85, 107, 83, 146, 92, 3, 1.96203
33, 6, bw, filler, NA, 999, 999, 2, 33, 85, 85, 107, 83, 146, 92, 1, 0.506049
33, 6, bw, attraction, a-b-db, 2, 1, 2, 34, 60, 135, 59, 134, 135, 60, 3, 3.8991
33, 6, bw, attraction, a-b-db, 2, 1, 2, 34, 60, 135, 59, 134, 135, 60, 2, 5.68527
33, 6, bw, attraction, a-b-da, 14, 2, 2, 35, 153, 83, 165, 90, 90, 165, 2, 2.19008
33, 6, bw, attraction, a-b-da, 14, 2, 2, 35, 153, 83, 165, 90, 90, 165, 1, 0.452683
33, 6, bw, filler, NA, 999, 999, 2, 36, 140, 113, 160, 82, 90, 81, 1, 3.48044
33, 6, bw, filler, NA, 999, 999, 2, 36, 140, 113, 160, 82, 90, 81, 3, 0.811374
33, 6, bw, attraction, a-b-da, 9, 1, 2, 37, 129, 57, 60, 135, 135, 60, 2, 2.19233
33, 6, bw, attraction, a-b-da, 9, 1, 2, 37, 129, 57, 60, 135, 135, 60, 1, 0.67097
33, 6, bw, attraction, a-b-db, 2, 1, 3, 1, 59, 134, 60, 135, 135, 60, 2, 2.34612
33, 6, bw, attraction, a-b-db, 2, 1, 3, 1, 59, 134, 60, 135, 135, 60, 1, 0.866663
33, 6, bw, attraction, a-b-db, 14, 1, 3, 2, 135, 60, 60, 135, 56, 125, 1, 3.82966
33, 6, bw, attraction, a-b-db, 14, 1, 3, 2, 135, 60, 60, 135, 56, 125, 3, 0.658496
33, 6, bw, filler, NA, 999, 999, 3, 3, 187, 137, 104, 70, 126, 148, 1, 4.69346
33, 6, bw, filler, NA, 999, 999, 3, 3, 187, 137, 104, 70, 126, 148, 2, 0.951283
33, 6, bw, attraction, a-b-da, 5, 1, 3, 4, 60, 135, 135, 60, 132, 58, 2, 4.54293
33, 6, bw, attraction, a-b-da, 5, 1, 3, 4, 60, 135, 135, 60, 132, 58, 3, 3.69497
33, 6, bw, filler, NA, 999, 999, 3, 5, 80, 167, 109, 98, 106, 122, 1, 5.79969
33, 6, bw, filler, NA, 999, 999, 3, 5, 80, 167, 109, 98, 106, 122, 2, 0.901174
33, 6, bw, attraction, a-b-db, 14, 3, 3, 6, 111, 181, 195, 120, 120, 195, 2, 2.14282
33, 6, bw, attraction, a-b-db, 14, 3, 3, 6, 111, 181, 195, 120, 120, 195, 1, 0.575392
33, 6, bw, filler, NA, 999, 999, 3, 7, 77, 71, 166, 89, 126, 152, 3, 1.30985
33, 6, bw, filler, NA, 999, 999, 3, 7, 77, 71, 166, 89, 126, 152, 1, 1.61617
33, 6, bw, attraction, a-b-db, 9, 3, 3, 8, 120, 195, 195, 120, 114, 186, 2, 2.34095
33, 6, bw, attraction, a-b-db, 9, 3, 3, 8, 120, 195, 195, 120, 114, 186, 3, 0.669572
33, 6, bw, attraction, a-b-db, 5, 3, 3, 9, 195, 120, 120, 195, 117, 190, 2, 4.92056
33, 6, bw, attraction, a-b-db, 5, 3, 3, 9, 195, 120, 120, 195, 117, 190, 3, 0.66572
33, 6, bw, attraction, a-b-da, 14, 2, 3, 10, 90, 165, 153, 83, 165, 90, 3, 3.41269
33, 6, bw, attraction, a-b-da, 14, 2, 3, 10, 90, 165, 153, 83, 165, 90, 1, 0.890323
33, 6, bw, attraction, a-b-db, 5, 1, 3, 11, 58, 132, 135, 60, 60, 135, 3, 2.53195
33, 6, bw, attraction, a-b-db, 5, 1, 3, 11, 58, 132, 135, 60, 60, 135, 1, 0.861042
33, 6, bw, filler, NA, 999, 999, 3, 12, 78, 104, 168, 108, 86, 83, 2, 1.68811
33, 6, bw, filler, NA, 999, 999, 3, 12, 78, 104, 168, 108, 86, 83, 3, 3.88291
33, 6, bw, attraction, a-b-da, 14, 3, 3, 13, 195, 120, 181, 111, 120, 195, 3, 7.2683
33, 6, bw, attraction, a-b-da, 14, 3, 3, 13, 195, 120, 181, 111, 120, 195, 2, 0.398688
33, 6, bw, filler, NA, 999, 999, 3, 14, 167, 183, 133, 195, 159, 60, 1, 4.24457
33, 6, bw, filler, NA, 999, 999, 3, 14, 167, 183, 133, 195, 159, 60, 3, 0.520443
33, 6, bw, attraction, a-b-db, 9, 1, 3, 15, 135, 60, 60, 135, 57, 129, 2, 3.25755
33, 6, bw, attraction, a-b-db, 9, 1, 3, 15, 135, 60, 60, 135, 57, 129, 3, 0.98129
33, 6, bw, attraction, a-b-da, 5, 2, 3, 16, 165, 90, 161, 88, 90, 165, 1, 6.03546
33, 6, bw, attraction, a-b-da, 5, 2, 3, 16, 165, 90, 161, 88, 90, 165, 3, 0.815605
33, 6, bw, attraction, a-b-da, 9, 3, 3, 17, 195, 120, 120, 195, 186, 114, 2, 4.22068
33, 6, bw, attraction, a-b-da, 9, 3, 3, 17, 195, 120, 120, 195, 186, 114, 3, 5.15394
33, 6, bw, catch, NA, 999, 999, 3, 18, 167, 148, 152, 103, 88, 107, 1, 1.88024
33, 6, bw, catch, NA, 999, 999, 3, 18, 167, 148, 152, 103, 88, 107, 3, 0.531679
33, 6, bw, filler, NA, 999, 999, 3, 19, 143, 79, 136, 83, 131, 117, 3, 3.30011
33, 6, bw, filler, NA, 999, 999, 3, 19, 143, 79, 136, 83, 131, 117, 1, 3.56647
33, 6, bw, filler, NA, 999, 999, 3, 20, 184, 152, 97, 177, 123, 93, 1, 1.14052
33, 6, bw, filler, NA, 999, 999, 3, 20, 184, 152, 97, 177, 123, 93, 3, 1.19746
33, 6, bw, attraction, a-b-db, 5, 2, 3, 21, 90, 165, 88, 161, 165, 90, 2, 3.90697
33, 6, bw, attraction, a-b-db, 5, 2, 3, 21, 90, 165, 88, 161, 165, 90, 1, 0.988429
33, 6, bw, catch, NA, 999, 999, 3, 22, 121, 134, 178, 137, 80, 115, 2, 1.00289
33, 6, bw, catch, NA, 999, 999, 3, 22, 121, 134, 178, 137, 80, 115, 3, 0.569733
33, 6, bw, filler, NA, 999, 999, 3, 23, 161, 71, 171, 117, 90, 84, 2, 1.0489
33, 6, bw, filler, NA, 999, 999, 3, 23, 161, 71, 171, 117, 90, 84, 3, 0.773816
33, 6, bw, filler, NA, 999, 999, 3, 24, 174, 90, 171, 120, 180, 149, 3, 1.86817
33, 6, bw, filler, NA, 999, 999, 3, 24, 174, 90, 171, 120, 180, 149, 1, 0.608272
33, 6, bw, attraction, a-b-da, 2, 1, 3, 25, 135, 60, 60, 135, 134, 59, 1, 3.26153
33, 6, bw, attraction, a-b-da, 2, 1, 3, 25, 135, 60, 60, 135, 134, 59, 2, 1.60892
33, 6, bw, attraction, a-b-db, 14, 2, 3, 26, 90, 165, 165, 90, 83, 153, 2, 1.50169
33, 6, bw, attraction, a-b-db, 14, 2, 3, 26, 90, 165, 165, 90, 83, 153, 3, 0.58458
33, 6, bw, attraction, a-b-da, 5, 3, 3, 27, 195, 120, 190, 117, 120, 195, 2, 2.97499
33, 6, bw, attraction, a-b-da, 5, 3, 3, 27, 195, 120, 190, 117, 120, 195, 3, 0.782044
33, 6, bw, attraction, a-b-db, 2, 3, 3, 28, 195, 120, 120, 195, 119, 193, 1, 2.66845
33, 6, bw, attraction, a-b-db, 2, 3, 3, 28, 195, 120, 120, 195, 119, 193, 2, 1.20021
33, 6, bw, attraction, a-b-da, 9, 1, 3, 29, 135, 60, 129, 57, 60, 135, 3, 4.26984
33, 6, bw, attraction, a-b-da, 9, 1, 3, 29, 135, 60, 129, 57, 60, 135, 2, 1.16926
33, 6, bw, attraction, a-b-da, 14, 1, 3, 30, 135, 60, 60, 135, 125, 56, 2, 1.79205
33, 6, bw, attraction, a-b-da, 14, 1, 3, 30, 135, 60, 60, 135, 125, 56, 3, 0.582742
33, 6, bw, attraction, a-b-da, 2, 2, 3, 31, 90, 165, 163, 89, 165, 90, 1, 2.26909
33, 6, bw, attraction, a-b-da, 2, 2, 3, 31, 90, 165, 163, 89, 165, 90, 3, 0.465131
33, 6, bw, attraction, a-b-db, 2, 2, 3, 32, 165, 90, 90, 165, 89, 163, 2, 3.1243
33, 6, bw, attraction, a-b-db, 2, 2, 3, 32, 165, 90, 90, 165, 89, 163, 3, 0.469209
33, 6, bw, attraction, a-b-da, 2, 3, 3, 33, 120, 195, 193, 119, 195, 120, 2, 4.40834
33, 6, bw, attraction, a-b-da, 2, 3, 3, 33, 120, 195, 193, 119, 195, 120, 1, 1.98969
33, 6, bw, filler, NA, 999, 999, 3, 34, 111, 82, 145, 185, 77, 73, 2, 0.899614
33, 6, bw, filler, NA, 999, 999, 3, 34, 111, 82, 145, 185, 77, 73, 3, 0.694642
33, 6, bw, catch, NA, 999, 999, 3, 35, 161, 94, 117, 78, 187, 128, 3, 1.76037
33, 6, bw, catch, NA, 999, 999, 3, 35, 161, 94, 117, 78, 187, 128, 2, 0.560388
33, 6, bw, attraction, a-b-db, 9, 2, 3, 36, 90, 165, 86, 157, 165, 90, 3, 5.56756
33, 6, bw, attraction, a-b-db, 9, 2, 3, 36, 90, 165, 86, 157, 165, 90, 2, 1.20662
33, 6, bw, attraction, a-b-da, 9, 2, 3, 37, 165, 90, 90, 165, 157, 86, 2, 2.06732
33, 6, bw, attraction, a-b-da, 9, 2, 3, 37, 165, 90, 90, 165, 157, 86, 3, 3.63131
33, 6, bw, attraction, a-b-da, 5, 3, 4, 1, 120, 195, 195, 120, 190, 117, 2, 3.01885
33, 6, bw, attraction, a-b-da, 5, 3, 4, 1, 120, 195, 195, 120, 190, 117, 1, 0.656515
33, 6, bw, attraction, a-b-db, 14, 3, 4, 2, 111, 181, 120, 195, 195, 120, 2, 2.41166
33, 6, bw, attraction, a-b-db, 14, 3, 4, 2, 111, 181, 120, 195, 195, 120, 1, 0.513587
33, 6, bw, filler, NA, 999, 999, 4, 3, 168, 84, 129, 65, 104, 148, 3, 1.77853
33, 6, bw, filler, NA, 999, 999, 4, 3, 168, 84, 129, 65, 104, 148, 2, 0.778147
33, 6, bw, attraction, a-b-db, 14, 1, 4, 4, 135, 60, 56, 125, 60, 135, 1, 5.18428
33, 6, bw, attraction, a-b-db, 14, 1, 4, 4, 135, 60, 56, 125, 60, 135, 2, 0.614715
33, 6, bw, attraction, a-b-da, 2, 1, 4, 5, 60, 135, 135, 60, 134, 59, 2, 3.1479
33, 6, bw, attraction, a-b-da, 2, 1, 4, 5, 60, 135, 135, 60, 134, 59, 1, 0.612076
33, 6, bw, attraction, a-b-da, 2, 3, 4, 6, 120, 195, 193, 119, 195, 120, 3, 1.88928
33, 6, bw, attraction, a-b-da, 2, 3, 4, 6, 120, 195, 193, 119, 195, 120, 1, 0.987984
33, 6, bw, attraction, a-b-db, 14, 2, 4, 7, 83, 153, 90, 165, 165, 90, 2, 2.10617
33, 6, bw, attraction, a-b-db, 14, 2, 4, 7, 83, 153, 90, 165, 165, 90, 1, 0.420239
33, 6, bw, attraction, a-b-da, 9, 1, 4, 8, 129, 57, 60, 135, 135, 60, 3, 3.06538
33, 6, bw, attraction, a-b-da, 9, 1, 4, 8, 129, 57, 60, 135, 135, 60, 1, 0.756949
33, 6, bw, attraction, a-b-db, 5, 1, 4, 9, 58, 132, 135, 60, 60, 135, 2, 3.14807
33, 6, bw, attraction, a-b-db, 5, 1, 4, 9, 58, 132, 135, 60, 60, 135, 3, 0.636373
33, 6, bw, attraction, a-b-da, 5, 2, 4, 10, 90, 165, 161, 88, 165, 90, 1, 5.34473
33, 6, bw, attraction, a-b-da, 5, 2, 4, 10, 90, 165, 161, 88, 165, 90, 3, 0.888439
33, 6, bw, attraction, a-b-da, 14, 2, 4, 11, 153, 83, 165, 90, 90, 165, 2, 2.52272
33, 6, bw, attraction, a-b-da, 14, 2, 4, 11, 153, 83, 165, 90, 90, 165, 1, 0.563931
33, 6, bw, attraction, a-b-da, 2, 2, 4, 12, 163, 89, 165, 90, 90, 165, 2, 4.63513
33, 6, bw, attraction, a-b-da, 2, 2, 4, 12, 163, 89, 165, 90, 90, 165, 3, 0.655548
33, 6, bw, attraction, a-b-da, 14, 1, 4, 13, 125, 56, 135, 60, 60, 135, 3, 2.07539
33, 6, bw, attraction, a-b-da, 14, 1, 4, 13, 125, 56, 135, 60, 60, 135, 1, 0.934619
33, 6, bw, attraction, a-b-da, 14, 3, 4, 14, 181, 111, 195, 120, 120, 195, 2, 3.00694
33, 6, bw, attraction, a-b-da, 14, 3, 4, 14, 181, 111, 195, 120, 120, 195, 1, 1.70061
33, 6, bw, filler, NA, 999, 999, 4, 15, 187, 133, 91, 79, 182, 172, 3, 1.25403
33, 6, bw, filler, NA, 999, 999, 4, 15, 187, 133, 91, 79, 182, 172, 2, 0.762345
33, 6, bw, attraction, a-b-da, 9, 3, 4, 16, 186, 114, 195, 120, 120, 195, 2, 2.08128
33, 6, bw, attraction, a-b-da, 9, 3, 4, 16, 186, 114, 195, 120, 120, 195, 1, 1.84473
33, 6, bw, filler, NA, 999, 999, 4, 17, 84, 172, 70, 170, 84, 186, 3, 1.48819
33, 6, bw, filler, NA, 999, 999, 4, 17, 84, 172, 70, 170, 84, 186, 2, 0.642846
33, 6, bw, filler, NA, 999, 999, 4, 18, 103, 63, 78, 138, 160, 194, 3, 0.894614
33, 6, bw, filler, NA, 999, 999, 4, 18, 103, 63, 78, 138, 160, 194, 1, 0.92963
33, 6, bw, attraction, a-b-db, 9, 2, 4, 19, 165, 90, 86, 157, 90, 165, 1, 4.68194
33, 6, bw, attraction, a-b-db, 9, 2, 4, 19, 165, 90, 86, 157, 90, 165, 3, 1.70044
33, 6, bw, filler, NA, 999, 999, 4, 20, 119, 65, 148, 193, 71, 93, 2, 0.901886
33, 6, bw, filler, NA, 999, 999, 4, 20, 119, 65, 148, 193, 71, 93, 3, 0.457107
33, 6, bw, catch, NA, 999, 999, 4, 21, 124, 131, 101, 94, 194, 121, 3, 1.26795
33, 6, bw, catch, NA, 999, 999, 4, 21, 124, 131, 101, 94, 194, 121, 2, 0.432341
33, 6, bw, filler, NA, 999, 999, 4, 22, 187, 61, 142, 126, 162, 169, 3, 1.06889
33, 6, bw, filler, NA, 999, 999, 4, 22, 187, 61, 142, 126, 162, 169, 1, 1.73706
33, 6, bw, filler, NA, 999, 999, 4, 23, 63, 62, 114, 105, 106, 126, 3, 1.1611
33, 6, bw, filler, NA, 999, 999, 4, 23, 63, 62, 114, 105, 106, 126, 1, 0.545367
33, 6, bw, filler, NA, 999, 999, 4, 24, 140, 73, 91, 86, 116, 139, 3, 0.913102
33, 6, bw, filler, NA, 999, 999, 4, 24, 140, 73, 91, 86, 116, 139, 2, 1.02757
33, 6, bw, filler, NA, 999, 999, 4, 25, 182, 90, 141, 79, 124, 165, 1, 3.01593
33, 6, bw, filler, NA, 999, 999, 4, 25, 182, 90, 141, 79, 124, 165, 2, 0.725545
33, 6, bw, attraction, a-b-db, 9, 1, 4, 26, 135, 60, 60, 135, 57, 129, 2, 2.3899
33, 6, bw, attraction, a-b-db, 9, 1, 4, 26, 135, 60, 60, 135, 57, 129, 3, 0.676417
33, 6, bw, attraction, a-b-db, 2, 2, 4, 27, 89, 163, 90, 165, 165, 90, 2, 4.40678
33, 6, bw, attraction, a-b-db, 2, 2, 4, 27, 89, 163, 90, 165, 165, 90, 1, 0.356103
33, 6, bw, attraction, a-b-db, 5, 2, 4, 28, 88, 161, 165, 90, 90, 165, 2, 1.91536
33, 6, bw, attraction, a-b-db, 5, 2, 4, 28, 88, 161, 165, 90, 90, 165, 1, 1.77329
33, 6, bw, catch, NA, 999, 999, 4, 29, 153, 162, 103, 92, 115, 140, 1, 0.763306
33, 6, bw, catch, NA, 999, 999, 4, 29, 153, 162, 103, 92, 115, 140, 2, 0.779718
33, 6, bw, attraction, a-b-da, 9, 2, 4, 30, 90, 165, 165, 90, 157, 86, 2, 5.81816
33, 6, bw, attraction, a-b-da, 9, 2, 4, 30, 90, 165, 165, 90, 157, 86, 3, 0.927085
33, 6, bw, attraction, a-b-db, 2, 1, 4, 31, 59, 134, 60, 135, 135, 60, 2, 1.91123
33, 6, bw, attraction, a-b-db, 2, 1, 4, 31, 59, 134, 60, 135, 135, 60, 1, 2.89728
33, 6, bw, attraction, a-b-db, 9, 3, 4, 32, 120, 195, 114, 186, 195, 120, 1, 1.66625
33, 6, bw, attraction, a-b-db, 9, 3, 4, 32, 120, 195, 114, 186, 195, 120, 2, 1.49446
33, 6, bw, attraction, a-b-db, 2, 3, 4, 33, 195, 120, 120, 195, 119, 193, 2, 7.11997
33, 6, bw, attraction, a-b-db, 2, 3, 4, 33, 195, 120, 120, 195, 119, 193, 3, 0.480388
33, 6, bw, attraction, a-b-da, 5, 1, 4, 34, 132, 58, 135, 60, 60, 135, 2, 3.27481
33, 6, bw, attraction, a-b-da, 5, 1, 4, 34, 132, 58, 135, 60, 60, 135, 1, 1.55773
33, 6, bw, catch, NA, 999, 999, 4, 35, 105, 90, 180, 135, 98, 157, 2, 0.836594
33, 6, bw, catch, NA, 999, 999, 4, 35, 105, 90, 180, 135, 98, 157, 1, 0.473614
33, 6, bw, attraction, a-b-db, 5, 3, 4, 36, 120, 195, 117, 190, 195, 120, 3, 4.94809
33, 6, bw, attraction, a-b-db, 5, 3, 4, 36, 120, 195, 117, 190, 195, 120, 2, 0.835931
33, 6, bw, filler, NA, 999, 999, 4, 37, 162, 178, 156, 119, 122, 97, 1, 0.936162
33, 6, bw, filler, NA, 999, 999, 4, 37, 162, 178, 156, 119, 122, 97, 3, 1.0018
33, 6, bw, attraction, a-b-da, 5, 3, 5, 1, 195, 120, 190, 117, 120, 195, 2, 7.54201
33, 6, bw, attraction, a-b-da, 5, 3, 5, 1, 195, 120, 190, 117, 120, 195, 3, 0.341035
33, 6, bw, filler, NA, 999, 999, 5, 2, 119, 184, 167, 133, 126, 145, 2, 2.7329
33, 6, bw, filler, NA, 999, 999, 5, 2, 119, 184, 167, 133, 126, 145, 3, 1.72596
33, 6, bw, attraction, a-b-da, 14, 1, 5, 3, 125, 56, 135, 60, 60, 135, 2, 1.85407
33, 6, bw, attraction, a-b-da, 14, 1, 5, 3, 125, 56, 135, 60, 60, 135, 1, 0.570753
33, 6, bw, attraction, a-b-da, 2, 1, 5, 4, 60, 135, 134, 59, 135, 60, 3, 3.44193
33, 6, bw, attraction, a-b-da, 2, 1, 5, 4, 60, 135, 134, 59, 135, 60, 1, 0.390055
33, 6, bw, attraction, a-b-db, 9, 3, 5, 5, 114, 186, 195, 120, 120, 195, 2, 1.64393
33, 6, bw, attraction, a-b-db, 9, 3, 5, 5, 114, 186, 195, 120, 120, 195, 1, 1.36874
33, 6, bw, catch, NA, 999, 999, 5, 6, 149, 166, 114, 81, 117, 138, 1, 0.871757
33, 6, bw, catch, NA, 999, 999, 5, 6, 149, 166, 114, 81, 117, 138, 2, 0.771297
33, 6, bw, filler, NA, 999, 999, 5, 7, 123, 178, 154, 183, 118, 119, 2, 1.95444
33, 6, bw, filler, NA, 999, 999, 5, 7, 123, 178, 154, 183, 118, 119, 3, 0.906341
33, 6, bw, attraction, a-b-da, 9, 2, 5, 8, 157, 86, 90, 165, 165, 90, 3, 5.36337
33, 6, bw, attraction, a-b-da, 9, 2, 5, 8, 157, 86, 90, 165, 165, 90, 1, 0.3463
33, 6, bw, attraction, a-b-da, 5, 2, 5, 9, 161, 88, 165, 90, 90, 165, 3, 2.82624
33, 6, bw, attraction, a-b-da, 5, 2, 5, 9, 161, 88, 165, 90, 90, 165, 1, 2.04722
33, 6, bw, attraction, a-b-da, 2, 2, 5, 10, 163, 89, 90, 165, 165, 90, 3, 4.75446
33, 6, bw, attraction, a-b-da, 2, 2, 5, 10, 163, 89, 90, 165, 165, 90, 1, 0.594296
33, 6, bw, filler, NA, 999, 999, 5, 11, 96, 156, 152, 139, 135, 175, 3, 2.66411
33, 6, bw, filler, NA, 999, 999, 5, 11, 96, 156, 152, 139, 135, 175, 1, 0.363951
33, 6, bw, attraction, a-b-db, 9, 2, 5, 12, 90, 165, 165, 90, 86, 157, 2, 2.38706
33, 6, bw, attraction, a-b-db, 9, 2, 5, 12, 90, 165, 165, 90, 86, 157, 1, 0.658274
33, 6, bw, attraction, a-b-da, 14, 3, 5, 13, 120, 195, 181, 111, 195, 120, 3, 2.37334
33, 6, bw, attraction, a-b-da, 14, 3, 5, 13, 120, 195, 181, 111, 195, 120, 1, 3.04455
33, 6, bw, attraction, a-b-db, 14, 2, 5, 14, 90, 165, 165, 90, 83, 153, 2, 3.40759
33, 6, bw, attraction, a-b-db, 14, 2, 5, 14, 90, 165, 165, 90, 83, 153, 3, 0.429216
33, 6, bw, attraction, a-b-db, 9, 1, 5, 15, 57, 129, 135, 60, 60, 135, 2, 3.19359
33, 6, bw, attraction, a-b-db, 9, 1, 5, 15, 57, 129, 135, 60, 60, 135, 1, 0.367878
33, 6, bw, attraction, a-b-da, 9, 3, 5, 16, 186, 114, 120, 195, 195, 120, 2, 1.7751
33, 6, bw, attraction, a-b-da, 9, 3, 5, 16, 186, 114, 120, 195, 195, 120, 1, 0.614461
33, 6, bw, attraction, a-b-db, 14, 3, 5, 17, 120, 195, 111, 181, 195, 120, 3, 5.15572
33, 6, bw, attraction, a-b-db, 14, 3, 5, 17, 120, 195, 111, 181, 195, 120, 2, 0.330573
33, 6, bw, attraction, a-b-db, 5, 3, 5, 18, 117, 190, 120, 195, 195, 120, 2, 1.85108
33, 6, bw, attraction, a-b-db, 5, 3, 5, 18, 117, 190, 120, 195, 195, 120, 1, 0.623854
33, 6, bw, attraction, a-b-db, 14, 1, 5, 19, 135, 60, 56, 125, 60, 135, 1, 5.05219
33, 6, bw, attraction, a-b-db, 14, 1, 5, 19, 135, 60, 56, 125, 60, 135, 2, 0.592028
33, 6, bw, attraction, a-b-db, 2, 2, 5, 20, 89, 163, 165, 90, 90, 165, 2, 4.41378
33, 6, bw, attraction, a-b-db, 2, 2, 5, 20, 89, 163, 165, 90, 90, 165, 1, 0.387073
33, 6, bw, filler, NA, 999, 999, 5, 21, 81, 108, 182, 143, 154, 75, 2, 1.27352
33, 6, bw, filler, NA, 999, 999, 5, 21, 81, 108, 182, 143, 154, 75, 1, 0.941072
33, 6, bw, filler, NA, 999, 999, 5, 22, 178, 187, 83, 66, 154, 106, 1, 1.04473
33, 6, bw, filler, NA, 999, 999, 5, 22, 178, 187, 83, 66, 154, 106, 2, 0.457802
33, 6, bw, catch, NA, 999, 999, 5, 23, 121, 74, 107, 148, 142, 173, 3, 1.38086
33, 6, bw, catch, NA, 999, 999, 5, 23, 121, 74, 107, 148, 142, 173, 1, 0.63635
33, 6, bw, filler, NA, 999, 999, 5, 24, 165, 192, 159, 193, 179, 115, 2, 2.36874
33, 6, bw, filler, NA, 999, 999, 5, 24, 165, 192, 159, 193, 179, 115, 3, 0.816705
33, 6, bw, attraction, a-b-da, 5, 1, 5, 25, 135, 60, 132, 58, 60, 135, 3, 5.58963
33, 6, bw, attraction, a-b-da, 5, 1, 5, 25, 135, 60, 132, 58, 60, 135, 1, 0.827266
33, 6, bw, attraction, a-b-da, 2, 3, 5, 26, 120, 195, 193, 119, 195, 120, 2, 5.09565
33, 6, bw, attraction, a-b-da, 2, 3, 5, 26, 120, 195, 193, 119, 195, 120, 1, 1.95332
33, 6, bw, attraction, a-b-db, 5, 1, 5, 27, 135, 60, 60, 135, 58, 132, 1, 9.65657
33, 6, bw, attraction, a-b-db, 5, 1, 5, 27, 135, 60, 60, 135, 58, 132, 2, 1.43489
33, 6, bw, attraction, a-b-db, 5, 2, 5, 28, 88, 161, 165, 90, 90, 165, 3, 8.49511
33, 6, bw, attraction, a-b-db, 5, 2, 5, 28, 88, 161, 165, 90, 90, 165, 1, 3.10379
33, 6, bw, filler, NA, 999, 999, 5, 29, 110, 144, 188, 66, 92, 112, 2, 3.3607
33, 6, bw, filler, NA, 999, 999, 5, 29, 110, 144, 188, 66, 92, 112, 3, 0.936307
33, 6, bw, filler, NA, 999, 999, 5, 30, 178, 167, 151, 182, 135, 62, 2, 1.4808
33, 6, bw, filler, NA, 999, 999, 5, 30, 178, 167, 151, 182, 135, 62, 3, 0.684145
33, 6, bw, attraction, a-b-da, 14, 2, 5, 31, 153, 83, 90, 165, 165, 90, 2, 4.95057
33, 6, bw, attraction, a-b-da, 14, 2, 5, 31, 153, 83, 90, 165, 165, 90, 1, 0.598299
33, 6, bw, attraction, a-b-db, 2, 3, 5, 32, 195, 120, 119, 193, 120, 195, 3, 4.30003
33, 6, bw, attraction, a-b-db, 2, 3, 5, 32, 195, 120, 119, 193, 120, 195, 1, 1.67818
33, 6, bw, catch, NA, 999, 999, 5, 33, 181, 134, 131, 64, 144, 111, 1, 2.55212
33, 6, bw, catch, NA, 999, 999, 5, 33, 181, 134, 131, 64, 144, 111, 2, 0.488641
33, 6, bw, attraction, a-b-db, 2, 1, 5, 34, 60, 135, 59, 134, 135, 60, 3, 2.29906
33, 6, bw, attraction, a-b-db, 2, 1, 5, 34, 60, 135, 59, 134, 135, 60, 1, 0.405684
33, 6, bw, attraction, a-b-da, 9, 1, 5, 35, 129, 57, 135, 60, 60, 135, 2, 2.82752
33, 6, bw, attraction, a-b-da, 9, 1, 5, 35, 129, 57, 135, 60, 60, 135, 3, 0.408595
33, 6, bw, filler, NA, 999, 999, 5, 36, 176, 71, 189, 176, 89, 137, 2, 0.973666
33, 6, bw, filler, NA, 999, 999, 5, 36, 176, 71, 189, 176, 89, 137, 3, 0.621414
33, 6, bw, filler, NA, 999, 999, 5, 37, 91, 185, 165, 154, 79, 175, 2, 1.67448
33, 6, bw, filler, NA, 999, 999, 5, 37, 91, 185, 165, 154, 79, 175, 3, 0.541899
33, 6, bw, filler, NA, 999, 999, 6, 1, 89, 68, 120, 76, 120, 158, 3, 1.10163
33, 6, bw, filler, NA, 999, 999, 6, 1, 89, 68, 120, 76, 120, 158, 1, 0.304631
33, 6, bw, filler, NA, 999, 999, 6, 2, 56, 90, 113, 165, 145, 149, 3, 2.47448
33, 6, bw, filler, NA, 999, 999, 6, 2, 56, 90, 113, 165, 145, 149, 1, 0.357635
33, 6, bw, catch, NA, 999, 999, 6, 3, 87, 108, 138, 117, 194, 121, 3, 1.58889
33, 6, bw, catch, NA, 999, 999, 6, 3, 87, 108, 138, 117, 194, 121, 1, 0.475625
33, 6, bw, attraction, a-b-da, 2, 2, 6, 4, 163, 89, 90, 165, 165, 90, 3, 6.66216
33, 6, bw, attraction, a-b-da, 2, 2, 6, 4, 163, 89, 90, 165, 165, 90, 1, 0.568768
33, 6, bw, filler, NA, 999, 999, 6, 5, 106, 113, 155, 89, 122, 82, 2, 2.15981
33, 6, bw, filler, NA, 999, 999, 6, 5, 106, 113, 155, 89, 122, 82, 3, 2.72775
33, 6, bw, filler, NA, 999, 999, 6, 6, 113, 60, 183, 56, 161, 150, 3, 1.11152
33, 6, bw, filler, NA, 999, 999, 6, 6, 113, 60, 183, 56, 161, 150, 1, 0.625814
33, 6, bw, attraction, a-b-da, 5, 3, 6, 7, 195, 120, 120, 195, 190, 117, 2, 2.75825
33, 6, bw, attraction, a-b-da, 5, 3, 6, 7, 195, 120, 120, 195, 190, 117, 1, 2.97396
33, 6, bw, attraction, a-b-da, 9, 2, 6, 8, 90, 165, 157, 86, 165, 90, 3, 4.58766
33, 6, bw, attraction, a-b-da, 9, 2, 6, 8, 90, 165, 157, 86, 165, 90, 2, 0.482196
33, 6, bw, filler, NA, 999, 999, 6, 9, 139, 130, 157, 189, 154, 123, 2, 1.06072
33, 6, bw, filler, NA, 999, 999, 6, 9, 139, 130, 157, 189, 154, 123, 1, 0.648899
33, 6, bw, attraction, a-b-da, 14, 3, 6, 10, 181, 111, 195, 120, 120, 195, 2, 3.18078
33, 6, bw, attraction, a-b-da, 14, 3, 6, 10, 181, 111, 195, 120, 120, 195, 1, 1.65184
33, 6, bw, filler, NA, 999, 999, 6, 11, 71, 148, 154, 63, 129, 183, 3, 0.807068
33, 6, bw, filler, NA, 999, 999, 6, 11, 71, 148, 154, 63, 129, 183, 1, 5.41348
33, 6, bw, attraction, a-b-da, 5, 2, 6, 12, 90, 165, 161, 88, 165, 90, 2, 2.63307
33, 6, bw, attraction, a-b-da, 5, 2, 6, 12, 90, 165, 161, 88, 165, 90, 1, 1.30223
33, 6, bw, filler, NA, 999, 999, 6, 13, 140, 154, 145, 156, 157, 104, 2, 0.927761
33, 6, bw, filler, NA, 999, 999, 6, 13, 140, 154, 145, 156, 157, 104, 3, 0.969469
33, 6, bw, attraction, a-b-db, 2, 2, 6, 14, 90, 165, 89, 163, 165, 90, 3, 2.9044
33, 6, bw, attraction, a-b-db, 2, 2, 6, 14, 90, 165, 89, 163, 165, 90, 1, 0.394158
33, 6, bw, attraction, a-b-db, 14, 1, 6, 15, 56, 125, 60, 135, 135, 60, 3, 2.24791
33, 6, bw, attraction, a-b-db, 14, 1, 6, 15, 56, 125, 60, 135, 135, 60, 1, 0.56449
33, 6, bw, filler, NA, 999, 999, 6, 16, 179, 139, 125, 154, 127, 184, 3, 3.48381
33, 6, bw, filler, NA, 999, 999, 6, 16, 179, 139, 125, 154, 127, 184, 2, 0.390485
33, 6, bw, catch, NA, 999, 999, 6, 17, 151, 104, 110, 85, 154, 161, 3, 0.876331
33, 6, bw, catch, NA, 999, 999, 6, 17, 151, 104, 110, 85, 154, 161, 2, 0.504189
33, 6, bw, attraction, a-b-da, 9, 3, 6, 18, 120, 195, 186, 114, 195, 120, 3, 4.09789
33, 6, bw, attraction, a-b-da, 9, 3, 6, 18, 120, 195, 186, 114, 195, 120, 1, 0.579968
33, 6, bw, attraction, a-b-da, 14, 1, 6, 19, 125, 56, 60, 135, 135, 60, 3, 3.37041
33, 6, bw, attraction, a-b-da, 14, 1, 6, 19, 125, 56, 60, 135, 135, 60, 1, 0.8179
33, 6, bw, attraction, a-b-db, 9, 3, 6, 20, 195, 120, 120, 195, 114, 186, 2, 2.95906
33, 6, bw, attraction, a-b-db, 9, 3, 6, 20, 195, 120, 120, 195, 114, 186, 3, 0.686658
33, 6, bw, attraction, a-b-da, 2, 3, 6, 21, 195, 120, 120, 195, 193, 119, 2, 8.62506
33, 6, bw, attraction, a-b-da, 2, 3, 6, 21, 195, 120, 120, 195, 193, 119, 3, 0.452326
33, 6, bw, attraction, a-b-db, 9, 2, 6, 22, 165, 90, 90, 165, 86, 157, 2, 2.86408
33, 6, bw, attraction, a-b-db, 9, 2, 6, 22, 165, 90, 90, 165, 86, 157, 1, 0.61986
33, 6, bw, catch, NA, 999, 999, 6, 23, 169, 146, 94, 101, 126, 129, 1, 1.67296
33, 6, bw, catch, NA, 999, 999, 6, 23, 169, 146, 94, 101, 126, 129, 2, 0.420389
33, 6, bw, attraction, a-b-db, 14, 2, 6, 24, 165, 90, 83, 153, 90, 165, 1, 2.23347
33, 6, bw, attraction, a-b-db, 14, 2, 6, 24, 165, 90, 83, 153, 90, 165, 2, 0.454863
33, 6, bw, attraction, a-b-da, 2, 1, 6, 25, 134, 59, 135, 60, 60, 135, 2, 2.95468
33, 6, bw, attraction, a-b-da, 2, 1, 6, 25, 134, 59, 135, 60, 60, 135, 3, 0.554335
33, 6, bw, attraction, a-b-da, 14, 2, 6, 26, 165, 90, 153, 83, 90, 165, 1, 4.90606
33, 6, bw, attraction, a-b-da, 14, 2, 6, 26, 165, 90, 153, 83, 90, 165, 2, 0.379238
33, 6, bw, attraction, a-b-db, 14, 3, 6, 27, 195, 120, 120, 195, 111, 181, 1, 3.28965
33, 6, bw, attraction, a-b-db, 14, 3, 6, 27, 195, 120, 120, 195, 111, 181, 3, 0.539948
33, 6, bw, attraction, a-b-db, 5, 3, 6, 28, 120, 195, 195, 120, 117, 190, 2, 1.68368
33, 6, bw, attraction, a-b-db, 5, 3, 6, 28, 120, 195, 195, 120, 117, 190, 1, 0.743189
33, 6, bw, attraction, a-b-da, 5, 1, 6, 29, 135, 60, 60, 135, 132, 58, 3, 2.11893
33, 6, bw, attraction, a-b-da, 5, 1, 6, 29, 135, 60, 60, 135, 132, 58, 2, 0.440881
33, 6, bw, attraction, a-b-db, 5, 1, 6, 30, 58, 132, 60, 135, 135, 60, 3, 1.38869
33, 6, bw, attraction, a-b-db, 5, 1, 6, 30, 58, 132, 60, 135, 135, 60, 1, 0.531494
33, 6, bw, filler, NA, 999, 999, 6, 31, 82, 98, 94, 160, 167, 132, 3, 1.10796
33, 6, bw, filler, NA, 999, 999, 6, 31, 82, 98, 94, 160, 167, 132, 1, 0.462286
33, 6, bw, attraction, a-b-db, 9, 1, 6, 32, 135, 60, 57, 129, 60, 135, 1, 4.49741
33, 6, bw, attraction, a-b-db, 9, 1, 6, 32, 135, 60, 57, 129, 60, 135, 2, 0.619285
33, 6, bw, filler, NA, 999, 999, 6, 33, 77, 183, 110, 174, 122, 194, 3, 3.01641
33, 6, bw, filler, NA, 999, 999, 6, 33, 77, 183, 110, 174, 122, 194, 1, 0.406115
33, 6, bw, attraction, a-b-db, 2, 3, 6, 34, 119, 193, 195, 120, 120, 195, 2, 3.68325
33, 6, bw, attraction, a-b-db, 2, 3, 6, 34, 119, 193, 195, 120, 120, 195, 1, 0.430058
33, 6, bw, attraction, a-b-da, 9, 1, 6, 35, 129, 57, 135, 60, 60, 135, 2, 5.15451
33, 6, bw, attraction, a-b-da, 9, 1, 6, 35, 129, 57, 135, 60, 60, 135, 1, 0.554217
33, 6, bw, attraction, a-b-db, 5, 2, 6, 36, 90, 165, 165, 90, 88, 161, 2, 3.22594
33, 6, bw, attraction, a-b-db, 5, 2, 6, 36, 90, 165, 165, 90, 88, 161, 1, 0.382961
33, 6, bw, attraction, a-b-db, 2, 1, 6, 37, 60, 135, 59, 134, 135, 60, 3, 4.08551
33, 6, bw, attraction, a-b-db, 2, 1, 6, 37, 60, 135, 59, 134, 135, 60, 1, 1.0962
33, 6, bw, attraction, a-b-da, 5, 2, 7, 1, 161, 88, 90, 165, 165, 90, 2, 2.16974
33, 6, bw, attraction, a-b-da, 5, 2, 7, 1, 161, 88, 90, 165, 165, 90, 1, 0.5137
33, 6, bw, attraction, a-b-da, 9, 3, 7, 2, 120, 195, 186, 114, 195, 120, 3, 3.49075
33, 6, bw, attraction, a-b-da, 9, 3, 7, 2, 120, 195, 186, 114, 195, 120, 1, 3.349
33, 6, bw, attraction, a-b-da, 9, 2, 7, 3, 157, 86, 165, 90, 90, 165, 2, 4.07593
33, 6, bw, attraction, a-b-da, 9, 2, 7, 3, 157, 86, 165, 90, 90, 165, 1, 0.550644
33, 6, bw, attraction, a-b-db, 2, 1, 7, 4, 59, 134, 135, 60, 60, 135, 2, 2.32643
33, 6, bw, attraction, a-b-db, 2, 1, 7, 4, 59, 134, 135, 60, 60, 135, 1, 0.679661
33, 6, bw, attraction, a-b-db, 5, 3, 7, 5, 120, 195, 195, 120, 117, 190, 2, 2.18617
33, 6, bw, attraction, a-b-db, 5, 3, 7, 5, 120, 195, 195, 120, 117, 190, 1, 0.673376
33, 6, bw, filler, NA, 999, 999, 7, 6, 92, 90, 60, 68, 125, 109, 3, 1.05169
33, 6, bw, filler, NA, 999, 999, 7, 6, 92, 90, 60, 68, 125, 109, 2, 0.424661
33, 6, bw, filler, NA, 999, 999, 7, 7, 62, 129, 181, 179, 69, 129, 2, 0.989092
33, 6, bw, filler, NA, 999, 999, 7, 7, 62, 129, 181, 179, 69, 129, 1, 4.54034
33, 6, bw, filler, NA, 999, 999, 7, 8, 73, 167, 143, 157, 135, 93, 2, 0.827461
33, 6, bw, filler, NA, 999, 999, 7, 8, 73, 167, 143, 157, 135, 93, 1, 7.60919
33, 6, bw, attraction, a-b-db, 5, 2, 7, 9, 88, 161, 165, 90, 90, 165, 2, 3.13199
33, 6, bw, attraction, a-b-db, 5, 2, 7, 9, 88, 161, 165, 90, 90, 165, 1, 0.492978
33, 6, bw, attraction, a-b-da, 2, 2, 7, 10, 90, 165, 165, 90, 163, 89, 1, 2.17479
33, 6, bw, attraction, a-b-da, 2, 2, 7, 10, 90, 165, 165, 90, 163, 89, 3, 0.566063
33, 6, bw, attraction, a-b-da, 2, 1, 7, 11, 134, 59, 60, 135, 135, 60, 2, 1.47707
33, 6, bw, attraction, a-b-da, 2, 1, 7, 11, 134, 59, 60, 135, 135, 60, 1, 3.50466
33, 6, bw, catch, NA, 999, 999, 7, 12, 111, 144, 182, 133, 64, 131, 2, 0.721602
33, 6, bw, catch, NA, 999, 999, 7, 12, 111, 144, 182, 133, 64, 131, 3, 0.675229
33, 6, bw, filler, NA, 999, 999, 7, 13, 63, 124, 115, 170, 119, 157, 2, 1.38174
33, 6, bw, filler, NA, 999, 999, 7, 13, 63, 124, 115, 170, 119, 157, 1, 0.549199
33, 6, bw, attraction, a-b-db, 2, 2, 7, 14, 90, 165, 89, 163, 165, 90, 2, 3.82903
33, 6, bw, attraction, a-b-db, 2, 2, 7, 14, 90, 165, 89, 163, 165, 90, 1, 0.825813
33, 6, bw, attraction, a-b-da, 14, 3, 7, 15, 120, 195, 195, 120, 181, 111, 2, 3.71014
33, 6, bw, attraction, a-b-da, 14, 3, 7, 15, 120, 195, 195, 120, 181, 111, 3, 0.599702
33, 6, bw, attraction, a-b-db, 9, 2, 7, 16, 86, 157, 165, 90, 90, 165, 3, 3.12531
33, 6, bw, attraction, a-b-db, 9, 2, 7, 16, 86, 157, 165, 90, 90, 165, 1, 0.342405
33, 6, bw, catch, NA, 999, 999, 7, 17, 161, 154, 161, 94, 130, 65, 1, 5.73418
33, 6, bw, catch, NA, 999, 999, 7, 17, 161, 154, 161, 94, 130, 65, 3, 0.478393
33, 6, bw, filler, NA, 999, 999, 7, 18, 69, 163, 147, 141, 69, 122, 2, 0.952804
33, 6, bw, filler, NA, 999, 999, 7, 18, 69, 163, 147, 141, 69, 122, 3, 0.609844
33, 6, bw, attraction, a-b-da, 5, 3, 7, 19, 190, 117, 195, 120, 120, 195, 2, 4.86288
33, 6, bw, attraction, a-b-da, 5, 3, 7, 19, 190, 117, 195, 120, 120, 195, 1, 0.538017
33, 6, bw, filler, NA, 999, 999, 7, 20, 107, 143, 60, 83, 72, 122, 1, 2.36247
33, 6, bw, filler, NA, 999, 999, 7, 20, 107, 143, 60, 83, 72, 122, 2, 0.5703
33, 6, bw, attraction, a-b-db, 14, 3, 7, 21, 195, 120, 120, 195, 111, 181, 2, 2.14545
33, 6, bw, attraction, a-b-db, 14, 3, 7, 21, 195, 120, 120, 195, 111, 181, 3, 1.03406
33, 6, bw, attraction, a-b-db, 14, 2, 7, 22, 90, 165, 83, 153, 165, 90, 3, 4.74239
33, 6, bw, attraction, a-b-db, 14, 2, 7, 22, 90, 165, 83, 153, 165, 90, 2, 2.19822
33, 6, bw, attraction, a-b-db, 9, 3, 7, 23, 120, 195, 114, 186, 195, 120, 1, 2.06741
33, 6, bw, attraction, a-b-db, 9, 3, 7, 23, 120, 195, 114, 186, 195, 120, 3, 4.7354
33, 6, bw, attraction, a-b-da, 5, 1, 7, 24, 135, 60, 60, 135, 132, 58, 1, 9.41462
33, 6, bw, attraction, a-b-da, 5, 1, 7, 24, 135, 60, 60, 135, 132, 58, 3, 1.25825
33, 6, bw, attraction, a-b-db, 14, 1, 7, 25, 60, 135, 56, 125, 135, 60, 3, 2.26123
33, 6, bw, attraction, a-b-db, 14, 1, 7, 25, 60, 135, 56, 125, 135, 60, 2, 0.441164
33, 6, bw, attraction, a-b-da, 14, 1, 7, 26, 125, 56, 135, 60, 60, 135, 2, 2.42087
33, 6, bw, attraction, a-b-da, 14, 1, 7, 26, 125, 56, 135, 60, 60, 135, 3, 0.402268
33, 6, bw, attraction, a-b-db, 5, 1, 7, 27, 58, 132, 60, 135, 135, 60, 3, 2.46391
33, 6, bw, attraction, a-b-db, 5, 1, 7, 27, 58, 132, 60, 135, 135, 60, 1, 0.379828
33, 6, bw, attraction, a-b-da, 9, 1, 7, 28, 135, 60, 60, 135, 129, 57, 1, 6.61031
33, 6, bw, attraction, a-b-da, 9, 1, 7, 28, 135, 60, 60, 135, 129, 57, 3, 1.91885
33, 6, bw, attraction, a-b-db, 9, 1, 7, 29, 60, 135, 57, 129, 135, 60, 3, 2.99951
33, 6, bw, attraction, a-b-db, 9, 1, 7, 29, 60, 135, 57, 129, 135, 60, 2, 1.20586
33, 6, bw, attraction, a-b-db, 2, 3, 7, 30, 119, 193, 120, 195, 195, 120, 3, 5.55544
33, 6, bw, attraction, a-b-db, 2, 3, 7, 30, 119, 193, 120, 195, 195, 120, 1, 1.45837
33, 6, bw, attraction, a-b-da, 2, 3, 7, 31, 193, 119, 120, 195, 195, 120, 2, 5.90116
33, 6, bw, attraction, a-b-da, 2, 3, 7, 31, 193, 119, 120, 195, 195, 120, 1, 0.5826
33, 6, bw, attraction, a-b-da, 14, 2, 7, 32, 153, 83, 90, 165, 165, 90, 3, 2.70106
33, 6, bw, attraction, a-b-da, 14, 2, 7, 32, 153, 83, 90, 165, 165, 90, 1, 0.519732
33, 6, bw, filler, NA, 999, 999, 7, 33, 77, 129, 186, 101, 84, 108, 2, 3.40866
33, 6, bw, filler, NA, 999, 999, 7, 33, 77, 129, 186, 101, 84, 108, 3, 1.20629
33, 6, bw, filler, NA, 999, 999, 7, 34, 68, 145, 67, 168, 144, 181, 3, 1.34716
33, 6, bw, filler, NA, 999, 999, 7, 34, 68, 145, 67, 168, 144, 181, 1, 0.812099
33, 6, bw, filler, NA, 999, 999, 7, 35, 189, 88, 144, 187, 101, 78, 2, 2.07299
33, 6, bw, filler, NA, 999, 999, 7, 35, 189, 88, 144, 187, 101, 78, 3, 0.892428
33, 6, bw, catch, NA, 999, 999, 7, 36, 145, 110, 165, 150, 132, 63, 2, 1.34205
33, 6, bw, catch, NA, 999, 999, 7, 36, 145, 110, 165, 150, 132, 63, 3, 0.734907
33, 6, bw, filler, NA, 999, 999, 7, 37, 59, 123, 148, 133, 155, 153, 3, 1.10328
33, 6, bw, filler, NA, 999, 999, 7, 37, 59, 123, 148, 133, 155, 153, 1, 0.38619
33, 6, bw, attraction, a-b-db, 14, 2, 8, 1, 165, 90, 90, 165, 83, 153, 2, 3.48868
33, 6, bw, attraction, a-b-db, 14, 2, 8, 1, 165, 90, 90, 165, 83, 153, 3, 0.826965
33, 6, bw, filler, NA, 999, 999, 8, 2, 78, 61, 113, 105, 62, 177, 3, 3.63129
33, 6, bw, filler, NA, 999, 999, 8, 2, 78, 61, 113, 105, 62, 177, 1, 0.540122
33, 6, bw, attraction, a-b-da, 5, 1, 8, 3, 60, 135, 135, 60, 132, 58, 2, 2.01987
33, 6, bw, attraction, a-b-da, 5, 1, 8, 3, 60, 135, 135, 60, 132, 58, 1, 0.913918
33, 6, bw, catch, NA, 999, 999, 8, 4, 120, 195, 165, 90, 118, 77, 1, 1.14694
33, 6, bw, catch, NA, 999, 999, 8, 4, 120, 195, 165, 90, 118, 77, 3, 0.675921
33, 6, bw, attraction, a-b-da, 14, 1, 8, 5, 60, 135, 125, 56, 135, 60, 1, 5.48632
33, 6, bw, attraction, a-b-da, 14, 1, 8, 5, 60, 135, 125, 56, 135, 60, 2, 0.664547
33, 6, bw, attraction, a-b-db, 2, 1, 8, 6, 135, 60, 59, 134, 60, 135, 2, 2.31554
33, 6, bw, attraction, a-b-db, 2, 1, 8, 6, 135, 60, 59, 134, 60, 135, 3, 0.581513
33, 6, bw, attraction, a-b-da, 5, 2, 8, 7, 90, 165, 165, 90, 161, 88, 2, 4.89986
33, 6, bw, attraction, a-b-da, 5, 2, 8, 7, 90, 165, 165, 90, 161, 88, 3, 1.18166
33, 6, bw, filler, NA, 999, 999, 8, 8, 140, 165, 184, 159, 82, 119, 2, 1.09192
33, 6, bw, filler, NA, 999, 999, 8, 8, 140, 165, 184, 159, 82, 119, 3, 0.774876
33, 6, bw, attraction, a-b-db, 9, 1, 8, 9, 57, 129, 60, 135, 135, 60, 2, 3.93333
33, 6, bw, attraction, a-b-db, 9, 1, 8, 9, 57, 129, 60, 135, 135, 60, 1, 0.574036
33, 6, bw, attraction, a-b-da, 2, 3, 8, 10, 193, 119, 195, 120, 120, 195, 2, 1.72451
33, 6, bw, attraction, a-b-da, 2, 3, 8, 10, 193, 119, 195, 120, 120, 195, 3, 1.49395
33, 6, bw, filler, NA, 999, 999, 8, 11, 182, 193, 91, 89, 176, 102, 1, 0.823298
33, 6, bw, filler, NA, 999, 999, 8, 11, 182, 193, 91, 89, 176, 102, 2, 0.837032
33, 6, bw, attraction, a-b-da, 14, 3, 8, 12, 181, 111, 195, 120, 120, 195, 2, 0.945396
33, 6, bw, attraction, a-b-da, 14, 3, 8, 12, 181, 111, 195, 120, 120, 195, 3, 1.0584
33, 6, bw, attraction, a-b-da, 14, 2, 8, 13, 165, 90, 153, 83, 90, 165, 3, 3.11733
33, 6, bw, attraction, a-b-da, 14, 2, 8, 13, 165, 90, 153, 83, 90, 165, 2, 0.783064
33, 6, bw, attraction, a-b-db, 5, 1, 8, 14, 58, 132, 135, 60, 60, 135, 2, 2.23746
33, 6, bw, attraction, a-b-db, 5, 1, 8, 14, 58, 132, 135, 60, 60, 135, 1, 0.426625
33, 6, bw, catch, NA, 999, 999, 8, 15, 140, 115, 189, 126, 88, 107, 2, 0.791084
33, 6, bw, catch, NA, 999, 999, 8, 15, 140, 115, 189, 126, 88, 107, 3, 0.502263
33, 6, bw, attraction, a-b-da, 5, 3, 8, 16, 195, 120, 120, 195, 190, 117, 2, 4.74398
33, 6, bw, attraction, a-b-da, 5, 3, 8, 16, 195, 120, 120, 195, 190, 117, 3, 0.471965
33, 6, bw, attraction, a-b-db, 9, 2, 8, 17, 90, 165, 165, 90, 86, 157, 1, 1.97087
33, 6, bw, attraction, a-b-db, 9, 2, 8, 17, 90, 165, 165, 90, 86, 157, 3, 0.458399
33, 6, bw, filler, NA, 999, 999, 8, 18, 80, 156, 111, 103, 175, 89, 3, 2.81348
33, 6, bw, filler, NA, 999, 999, 8, 18, 80, 156, 111, 103, 175, 89, 1, 0.979115
33, 6, bw, attraction, a-b-db, 9, 3, 8, 19, 120, 195, 114, 186, 195, 120, 2, 3.84946
33, 6, bw, attraction, a-b-db, 9, 3, 8, 19, 120, 195, 114, 186, 195, 120, 3, 0.477582
33, 6, bw, filler, NA, 999, 999, 8, 20, 117, 149, 60, 138, 160, 166, 3, 2.27204
33, 6, bw, filler, NA, 999, 999, 8, 20, 117, 149, 60, 138, 160, 166, 2, 0.57129
33, 6, bw, attraction, a-b-da, 2, 2, 8, 21, 165, 90, 90, 165, 163, 89, 1, 3.23439
33, 6, bw, attraction, a-b-da, 2, 2, 8, 21, 165, 90, 90, 165, 163, 89, 3, 0.495437
33, 6, bw, catch, NA, 999, 999, 8, 22, 124, 131, 93, 102, 129, 186, 3, 1.33715
33, 6, bw, catch, NA, 999, 999, 8, 22, 124, 131, 93, 102, 129, 186, 2, 0.442012
33, 6, bw, filler, NA, 999, 999, 8, 23, 101, 162, 112, 195, 68, 119, 2, 1.31003
33, 6, bw, filler, NA, 999, 999, 8, 23, 101, 162, 112, 195, 68, 119, 3, 0.416092
33, 6, bw, attraction, a-b-db, 2, 2, 8, 24, 90, 165, 89, 163, 165, 90, 2, 3.69322
33, 6, bw, attraction, a-b-db, 2, 2, 8, 24, 90, 165, 89, 163, 165, 90, 1, 0.74343
33, 6, bw, attraction, a-b-da, 2, 1, 8, 25, 135, 60, 134, 59, 60, 135, 1, 5.55906
33, 6, bw, attraction, a-b-da, 2, 1, 8, 25, 135, 60, 134, 59, 60, 135, 3, 0.422026
33, 6, bw, attraction, a-b-db, 14, 1, 8, 26, 56, 125, 60, 135, 135, 60, 3, 2.82707
33, 6, bw, attraction, a-b-db, 14, 1, 8, 26, 56, 125, 60, 135, 135, 60, 1, 0.424146
33, 6, bw, filler, NA, 999, 999, 8, 27, 99, 131, 79, 99, 142, 123, 3, 1.22063
33, 6, bw, filler, NA, 999, 999, 8, 27, 99, 131, 79, 99, 142, 123, 2, 0.634915
33, 6, bw, filler, NA, 999, 999, 8, 28, 127, 157, 92, 78, 58, 188, 1, 1.14338
33, 6, bw, filler, NA, 999, 999, 8, 28, 127, 157, 92, 78, 58, 188, 2, 0.416261
33, 6, bw, attraction, a-b-db, 2, 3, 8, 29, 120, 195, 119, 193, 195, 120, 3, 3.52555
33, 6, bw, attraction, a-b-db, 2, 3, 8, 29, 120, 195, 119, 193, 195, 120, 2, 0.446312
33, 6, bw, attraction, a-b-da, 9, 2, 8, 30, 90, 165, 165, 90, 157, 86, 2, 6.45821
33, 6, bw, attraction, a-b-da, 9, 2, 8, 30, 90, 165, 165, 90, 157, 86, 1, 0.412792
33, 6, bw, attraction, a-b-db, 5, 2, 8, 31, 88, 161, 90, 165, 165, 90, 2, 1.78593
33, 6, bw, attraction, a-b-db, 5, 2, 8, 31, 88, 161, 90, 165, 165, 90, 3, 0.48935
33, 6, bw, filler, NA, 999, 999, 8, 32, 156, 68, 150, 63, 166, 116, 3, 0.979856
33, 6, bw, filler, NA, 999, 999, 8, 32, 156, 68, 150, 63, 166, 116, 2, 0.419484
33, 6, bw, attraction, a-b-da, 9, 3, 8, 33, 120, 195, 195, 120, 186, 114, 2, 5.64066
33, 6, bw, attraction, a-b-da, 9, 3, 8, 33, 120, 195, 195, 120, 186, 114, 3, 0.380213
33, 6, bw, filler, NA, 999, 999, 8, 34, 162, 87, 110, 130, 115, 160, 1, 6.70654
33, 6, bw, filler, NA, 999, 999, 8, 34, 162, 87, 110, 130, 115, 160, 2, 0.323199
33, 6, bw, attraction, a-b-da, 9, 1, 8, 35, 135, 60, 60, 135, 129, 57, 2, 1.80359
33, 6, bw, attraction, a-b-da, 9, 1, 8, 35, 135, 60, 60, 135, 129, 57, 3, 0.634425
33, 6, bw, attraction, a-b-db, 5, 3, 8, 36, 117, 190, 195, 120, 120, 195, 2, 1.95883
33, 6, bw, attraction, a-b-db, 5, 3, 8, 36, 117, 190, 195, 120, 120, 195, 1, 2.06287
33, 6, bw, attraction, a-b-db, 14, 3, 8, 37, 195, 120, 111, 181, 120, 195, 1, 3.71348
33, 6, bw, attraction, a-b-db, 14, 3, 8, 37, 195, 120, 111, 181, 120, 195, 2, 2.90703
