sub_n, computer_n, bw_cond, effect, set, distance, diag, block_n, trial_n, h1, w1, h2, w2, h3, w3, choice, rt 
375, 6, bw, practice, NA, 999, 999, 0, 1, 143, 146, 78, 118, 137, 64, 1, 4.91668
375, 6, bw, practice, NA, 999, 999, 0, 1, 143, 146, 78, 118, 137, 64, 3, 6.10983
375, 6, bw, practice, NA, 999, 999, 0, 2, 79, 154, 170, 70, 147, 181, 3, 4.17215
375, 6, bw, practice, NA, 999, 999, 0, 2, 79, 154, 170, 70, 147, 181, 1, 5.88222
375, 6, bw, practice, NA, 999, 999, 0, 3, 129, 82, 161, 70, 142, 110, 3, 2.37706
375, 6, bw, practice, NA, 999, 999, 0, 3, 129, 82, 161, 70, 142, 110, 1, 3.10977
375, 6, bw, attraction, a-b-db, 2, 2, 1, 1, 89, 163, 90, 165, 165, 90, 2, 5.70223
375, 6, bw, attraction, a-b-db, 2, 2, 1, 1, 89, 163, 90, 165, 165, 90, 3, 4.0158
375, 6, bw, attraction, a-b-da, 2, 1, 1, 2, 60, 135, 135, 60, 134, 59, 1, 4.1959
375, 6, bw, attraction, a-b-da, 2, 1, 1, 2, 60, 135, 135, 60, 134, 59, 3, 2.68176
375, 6, bw, attraction, a-b-da, 5, 2, 1, 3, 90, 165, 161, 88, 165, 90, 1, 2.79555
375, 6, bw, attraction, a-b-da, 5, 2, 1, 3, 90, 165, 161, 88, 165, 90, 3, 2.58604
375, 6, bw, attraction, a-b-da, 14, 1, 1, 4, 125, 56, 135, 60, 60, 135, 2, 4.75178
375, 6, bw, attraction, a-b-da, 14, 1, 1, 4, 125, 56, 135, 60, 60, 135, 1, 1.91957
375, 6, bw, filler, NA, 999, 999, 1, 5, 142, 97, 184, 97, 101, 170, 3, 1.3843
375, 6, bw, filler, NA, 999, 999, 1, 5, 142, 97, 184, 97, 101, 170, 1, 1.45592
375, 6, bw, attraction, a-b-da, 2, 3, 1, 6, 195, 120, 120, 195, 193, 119, 2, 1.71528
375, 6, bw, attraction, a-b-da, 2, 3, 1, 6, 195, 120, 120, 195, 193, 119, 1, 1.93337
375, 6, bw, attraction, a-b-db, 9, 1, 1, 7, 57, 129, 135, 60, 60, 135, 3, 2.35746
375, 6, bw, attraction, a-b-db, 9, 1, 1, 7, 57, 129, 135, 60, 60, 135, 2, 1.58126
375, 6, bw, attraction, a-b-db, 14, 1, 1, 8, 135, 60, 56, 125, 60, 135, 3, 2.44347
375, 6, bw, attraction, a-b-db, 14, 1, 1, 8, 135, 60, 56, 125, 60, 135, 1, 1.152
375, 6, bw, attraction, a-b-db, 5, 3, 1, 9, 117, 190, 120, 195, 195, 120, 2, 1.55156
375, 6, bw, attraction, a-b-db, 5, 3, 1, 9, 117, 190, 120, 195, 195, 120, 3, 1.1445
375, 6, bw, filler, NA, 999, 999, 1, 10, 189, 60, 108, 162, 129, 147, 2, 2.31195
375, 6, bw, filler, NA, 999, 999, 1, 10, 189, 60, 108, 162, 129, 147, 1, 1.33791
375, 6, bw, attraction, a-b-da, 9, 3, 1, 11, 186, 114, 120, 195, 195, 120, 2, 1.43402
375, 6, bw, attraction, a-b-da, 9, 3, 1, 11, 186, 114, 120, 195, 195, 120, 1, 1.17561
375, 6, bw, catch, NA, 999, 999, 1, 12, 134, 61, 122, 193, 126, 129, 2, 1.0298
375, 6, bw, catch, NA, 999, 999, 1, 12, 134, 61, 122, 193, 126, 129, 1, 1.2355
375, 6, bw, attraction, a-b-da, 9, 2, 1, 13, 157, 86, 165, 90, 90, 165, 3, 1.65575
375, 6, bw, attraction, a-b-da, 9, 2, 1, 13, 157, 86, 165, 90, 90, 165, 2, 0.923856
375, 6, bw, attraction, a-b-db, 5, 1, 1, 14, 135, 60, 58, 132, 60, 135, 2, 4.99614
375, 6, bw, attraction, a-b-db, 5, 1, 1, 14, 135, 60, 58, 132, 60, 135, 1, 1.33009
375, 6, bw, filler, NA, 999, 999, 1, 15, 173, 71, 112, 191, 180, 78, 2, 1.7542
375, 6, bw, filler, NA, 999, 999, 1, 15, 173, 71, 112, 191, 180, 78, 1, 1.01822
375, 6, bw, attraction, a-b-da, 5, 1, 1, 16, 135, 60, 132, 58, 60, 135, 3, 2.01514
375, 6, bw, attraction, a-b-da, 5, 1, 1, 16, 135, 60, 132, 58, 60, 135, 2, 0.80511
375, 6, bw, filler, NA, 999, 999, 1, 17, 137, 160, 194, 68, 70, 101, 1, 1.15481
375, 6, bw, filler, NA, 999, 999, 1, 17, 137, 160, 194, 68, 70, 101, 2, 0.779087
375, 6, bw, attraction, a-b-da, 5, 3, 1, 18, 195, 120, 120, 195, 190, 117, 2, 1.54556
375, 6, bw, attraction, a-b-da, 5, 3, 1, 18, 195, 120, 120, 195, 190, 117, 1, 1.16229
375, 6, bw, attraction, a-b-db, 2, 3, 1, 19, 119, 193, 195, 120, 120, 195, 1, 3.51323
375, 6, bw, attraction, a-b-db, 2, 3, 1, 19, 119, 193, 195, 120, 120, 195, 2, 0.626769
375, 6, bw, attraction, a-b-db, 5, 2, 1, 20, 165, 90, 88, 161, 90, 165, 3, 1.93514
375, 6, bw, attraction, a-b-db, 5, 2, 1, 20, 165, 90, 88, 161, 90, 165, 1, 0.920662
375, 6, bw, filler, NA, 999, 999, 1, 21, 148, 145, 63, 104, 167, 178, 3, 1.40953
375, 6, bw, filler, NA, 999, 999, 1, 21, 148, 145, 63, 104, 167, 178, 2, 0.815693
375, 6, bw, catch, NA, 999, 999, 1, 22, 176, 139, 90, 105, 140, 115, 1, 1.37278
375, 6, bw, catch, NA, 999, 999, 1, 22, 176, 139, 90, 105, 140, 115, 2, 1.18834
375, 6, bw, filler, NA, 999, 999, 1, 23, 150, 155, 142, 116, 154, 62, 1, 1.22651
375, 6, bw, filler, NA, 999, 999, 1, 23, 150, 155, 142, 116, 154, 62, 3, 1.34411
375, 6, bw, filler, NA, 999, 999, 1, 24, 154, 184, 99, 168, 134, 103, 1, 1.41566
375, 6, bw, filler, NA, 999, 999, 1, 24, 154, 184, 99, 168, 134, 103, 3, 0.653877
375, 6, bw, catch, NA, 999, 999, 1, 25, 139, 176, 87, 108, 150, 105, 1, 5.76952
375, 6, bw, catch, NA, 999, 999, 1, 25, 139, 176, 87, 108, 150, 105, 2, 1.64845
375, 6, bw, attraction, a-b-da, 14, 2, 1, 26, 90, 165, 165, 90, 153, 83, 1, 4.13186
375, 6, bw, attraction, a-b-da, 14, 2, 1, 26, 90, 165, 165, 90, 153, 83, 3, 1.9487
375, 6, bw, attraction, a-b-db, 2, 1, 1, 27, 135, 60, 59, 134, 60, 135, 1, 7.06786
375, 6, bw, attraction, a-b-db, 2, 1, 1, 27, 135, 60, 59, 134, 60, 135, 2, 2.41453
375, 6, bw, attraction, a-b-da, 14, 3, 1, 28, 181, 111, 120, 195, 195, 120, 2, 2.64277
375, 6, bw, attraction, a-b-da, 14, 3, 1, 28, 181, 111, 120, 195, 195, 120, 1, 1.08728
375, 6, bw, attraction, a-b-db, 9, 2, 1, 29, 86, 157, 90, 165, 165, 90, 1, 4.59357
375, 6, bw, attraction, a-b-db, 9, 2, 1, 29, 86, 157, 90, 165, 165, 90, 3, 4.15962
375, 6, bw, filler, NA, 999, 999, 1, 30, 86, 136, 87, 136, 115, 65, 1, 2.01345
375, 6, bw, filler, NA, 999, 999, 1, 30, 86, 136, 87, 136, 115, 65, 3, 1.22744
375, 6, bw, attraction, a-b-db, 14, 2, 1, 31, 165, 90, 83, 153, 90, 165, 3, 4.22368
375, 6, bw, attraction, a-b-db, 14, 2, 1, 31, 165, 90, 83, 153, 90, 165, 1, 1.03644
375, 6, bw, attraction, a-b-da, 2, 2, 1, 32, 163, 89, 90, 165, 165, 90, 2, 1.91261
375, 6, bw, attraction, a-b-da, 2, 2, 1, 32, 163, 89, 90, 165, 165, 90, 1, 0.650559
375, 6, bw, attraction, a-b-db, 14, 3, 1, 33, 120, 195, 195, 120, 111, 181, 2, 5.27043
375, 6, bw, attraction, a-b-db, 14, 3, 1, 33, 120, 195, 195, 120, 111, 181, 3, 2.66537
375, 6, bw, attraction, a-b-da, 9, 1, 1, 34, 129, 57, 60, 135, 135, 60, 2, 7.63577
375, 6, bw, attraction, a-b-da, 9, 1, 1, 34, 129, 57, 60, 135, 135, 60, 1, 2.03141
375, 6, bw, attraction, a-b-db, 9, 3, 1, 35, 195, 120, 114, 186, 120, 195, 3, 9.94745
375, 6, bw, attraction, a-b-db, 9, 3, 1, 35, 195, 120, 114, 186, 120, 195, 1, 0.929692
375, 6, bw, filler, NA, 999, 999, 1, 36, 170, 100, 129, 86, 178, 56, 1, 7.474
375, 6, bw, filler, NA, 999, 999, 1, 36, 170, 100, 129, 86, 178, 56, 3, 1.16368
375, 6, bw, filler, NA, 999, 999, 1, 37, 106, 88, 69, 59, 155, 68, 1, 6.21834
375, 6, bw, filler, NA, 999, 999, 1, 37, 106, 88, 69, 59, 155, 68, 2, 1.59913
375, 6, bw, catch, NA, 999, 999, 2, 1, 138, 177, 77, 118, 162, 93, 1, 8.06852
375, 6, bw, catch, NA, 999, 999, 2, 1, 138, 177, 77, 118, 162, 93, 2, 0.934696
375, 6, bw, attraction, a-b-da, 2, 3, 2, 2, 193, 119, 120, 195, 195, 120, 2, 2.19901
375, 6, bw, attraction, a-b-da, 2, 3, 2, 2, 193, 119, 120, 195, 195, 120, 1, 0.693566
375, 6, bw, filler, NA, 999, 999, 2, 3, 68, 144, 95, 159, 62, 119, 2, 10.6953
375, 6, bw, filler, NA, 999, 999, 2, 3, 68, 144, 95, 159, 62, 119, 3, 1.32729
375, 6, bw, attraction, a-b-da, 2, 1, 2, 4, 135, 60, 60, 135, 134, 59, 2, 1.77557
375, 6, bw, attraction, a-b-da, 2, 1, 2, 4, 135, 60, 60, 135, 134, 59, 3, 1.35094
375, 6, bw, filler, NA, 999, 999, 2, 5, 90, 143, 149, 157, 110, 87, 2, 1.48644
375, 6, bw, filler, NA, 999, 999, 2, 5, 90, 143, 149, 157, 110, 87, 3, 0.985967
375, 6, bw, catch, NA, 999, 999, 2, 6, 125, 190, 84, 111, 160, 95, 1, 1.40836
375, 6, bw, catch, NA, 999, 999, 2, 6, 125, 190, 84, 111, 160, 95, 2, 1.36648
375, 6, bw, attraction, a-b-db, 2, 1, 2, 7, 60, 135, 59, 134, 135, 60, 2, 1.25347
375, 6, bw, attraction, a-b-db, 2, 1, 2, 7, 60, 135, 59, 134, 135, 60, 3, 1.40158
375, 6, bw, filler, NA, 999, 999, 2, 8, 125, 178, 115, 162, 192, 143, 3, 1.22314
375, 6, bw, filler, NA, 999, 999, 2, 8, 125, 178, 115, 162, 192, 143, 2, 0.70857
375, 6, bw, attraction, a-b-db, 2, 2, 2, 9, 90, 165, 89, 163, 165, 90, 2, 5.9737
375, 6, bw, attraction, a-b-db, 2, 2, 2, 9, 90, 165, 89, 163, 165, 90, 3, 0.891909
375, 6, bw, attraction, a-b-da, 9, 1, 2, 10, 60, 135, 135, 60, 129, 57, 1, 1.0934
375, 6, bw, attraction, a-b-da, 9, 1, 2, 10, 60, 135, 135, 60, 129, 57, 3, 1.18447
375, 6, bw, attraction, a-b-db, 5, 1, 2, 11, 60, 135, 135, 60, 58, 132, 1, 7.48672
375, 6, bw, attraction, a-b-db, 5, 1, 2, 11, 60, 135, 135, 60, 58, 132, 2, 0.896358
375, 6, bw, attraction, a-b-da, 5, 2, 2, 12, 161, 88, 90, 165, 165, 90, 2, 1.33791
375, 6, bw, attraction, a-b-da, 5, 2, 2, 12, 161, 88, 90, 165, 165, 90, 1, 0.554789
375, 6, bw, attraction, a-b-da, 5, 1, 2, 13, 60, 135, 135, 60, 132, 58, 1, 1.03454
375, 6, bw, attraction, a-b-da, 5, 1, 2, 13, 60, 135, 135, 60, 132, 58, 3, 0.640346
375, 6, bw, filler, NA, 999, 999, 2, 14, 109, 151, 159, 187, 165, 71, 2, 0.956016
375, 6, bw, filler, NA, 999, 999, 2, 14, 109, 151, 159, 187, 165, 71, 3, 0.932317
375, 6, bw, filler, NA, 999, 999, 2, 15, 61, 68, 144, 62, 105, 168, 3, 1.02869
375, 6, bw, filler, NA, 999, 999, 2, 15, 61, 68, 144, 62, 105, 168, 1, 2.21826
375, 6, bw, attraction, a-b-da, 2, 2, 2, 16, 90, 165, 165, 90, 163, 89, 1, 1.72699
375, 6, bw, attraction, a-b-da, 2, 2, 2, 16, 90, 165, 165, 90, 163, 89, 3, 0.688429
375, 6, bw, attraction, a-b-db, 2, 3, 2, 17, 195, 120, 120, 195, 119, 193, 1, 8.24267
375, 6, bw, attraction, a-b-db, 2, 3, 2, 17, 195, 120, 120, 195, 119, 193, 3, 0.909529
375, 6, bw, attraction, a-b-db, 14, 1, 2, 18, 56, 125, 60, 135, 135, 60, 2, 1.19857
375, 6, bw, attraction, a-b-db, 14, 1, 2, 18, 56, 125, 60, 135, 135, 60, 3, 0.805413
375, 6, bw, attraction, a-b-da, 14, 2, 2, 19, 90, 165, 165, 90, 153, 83, 1, 0.891067
375, 6, bw, attraction, a-b-da, 14, 2, 2, 19, 90, 165, 165, 90, 153, 83, 3, 0.726156
375, 6, bw, filler, NA, 999, 999, 2, 20, 130, 172, 169, 66, 168, 167, 3, 0.814451
375, 6, bw, filler, NA, 999, 999, 2, 20, 130, 172, 169, 66, 168, 167, 2, 1.15689
375, 6, bw, filler, NA, 999, 999, 2, 21, 83, 177, 94, 93, 123, 178, 3, 0.723742
375, 6, bw, filler, NA, 999, 999, 2, 21, 83, 177, 94, 93, 123, 178, 2, 0.565555
375, 6, bw, attraction, a-b-da, 14, 1, 2, 22, 135, 60, 125, 56, 60, 135, 3, 1.13268
375, 6, bw, attraction, a-b-da, 14, 1, 2, 22, 135, 60, 125, 56, 60, 135, 2, 0.518289
375, 6, bw, attraction, a-b-da, 9, 3, 2, 23, 186, 114, 195, 120, 120, 195, 3, 4.48733
375, 6, bw, attraction, a-b-da, 9, 3, 2, 23, 186, 114, 195, 120, 120, 195, 1, 0.754011
375, 6, bw, attraction, a-b-db, 9, 1, 2, 24, 57, 129, 60, 135, 135, 60, 2, 0.881614
375, 6, bw, attraction, a-b-db, 9, 1, 2, 24, 57, 129, 60, 135, 135, 60, 3, 0.797366
375, 6, bw, attraction, a-b-db, 14, 2, 2, 25, 83, 153, 165, 90, 90, 165, 3, 1.50701
375, 6, bw, attraction, a-b-db, 14, 2, 2, 25, 83, 153, 165, 90, 90, 165, 2, 0.413178
375, 6, bw, filler, NA, 999, 999, 2, 26, 190, 92, 63, 142, 131, 58, 1, 0.754462
375, 6, bw, filler, NA, 999, 999, 2, 26, 190, 92, 63, 142, 131, 58, 3, 0.746717
375, 6, bw, filler, NA, 999, 999, 2, 27, 158, 64, 152, 162, 116, 119, 2, 0.722439
375, 6, bw, filler, NA, 999, 999, 2, 27, 158, 64, 152, 162, 116, 119, 1, 0.460189
375, 6, bw, attraction, a-b-db, 5, 2, 2, 28, 165, 90, 88, 161, 90, 165, 1, 7.19934
375, 6, bw, attraction, a-b-db, 5, 2, 2, 28, 165, 90, 88, 161, 90, 165, 2, 1.16436
375, 6, bw, attraction, a-b-da, 9, 2, 2, 29, 165, 90, 157, 86, 90, 165, 3, 1.26726
375, 6, bw, attraction, a-b-da, 9, 2, 2, 29, 165, 90, 157, 86, 90, 165, 2, 0.447574
375, 6, bw, attraction, a-b-db, 5, 3, 2, 30, 120, 195, 195, 120, 117, 190, 1, 1.85929
375, 6, bw, attraction, a-b-db, 5, 3, 2, 30, 120, 195, 195, 120, 117, 190, 2, 0.447404
375, 6, bw, filler, NA, 999, 999, 2, 31, 125, 69, 104, 175, 83, 107, 2, 0.811207
375, 6, bw, filler, NA, 999, 999, 2, 31, 125, 69, 104, 175, 83, 107, 1, 0.60155
375, 6, bw, attraction, a-b-db, 9, 2, 2, 32, 86, 157, 90, 165, 165, 90, 2, 1.35132
375, 6, bw, attraction, a-b-db, 9, 2, 2, 32, 86, 157, 90, 165, 165, 90, 3, 0.768223
375, 6, bw, attraction, a-b-db, 14, 3, 2, 33, 195, 120, 120, 195, 111, 181, 2, 0.623183
375, 6, bw, attraction, a-b-db, 14, 3, 2, 33, 195, 120, 120, 195, 111, 181, 1, 0.452974
375, 6, bw, catch, NA, 999, 999, 2, 34, 113, 82, 150, 165, 152, 103, 2, 0.472795
375, 6, bw, catch, NA, 999, 999, 2, 34, 113, 82, 150, 165, 152, 103, 1, 0.444722
375, 6, bw, attraction, a-b-db, 9, 3, 2, 35, 195, 120, 114, 186, 120, 195, 3, 0.984524
375, 6, bw, attraction, a-b-db, 9, 3, 2, 35, 195, 120, 114, 186, 120, 195, 1, 0.800175
375, 6, bw, attraction, a-b-da, 14, 3, 2, 36, 181, 111, 195, 120, 120, 195, 2, 0.805749
375, 6, bw, attraction, a-b-da, 14, 3, 2, 36, 181, 111, 195, 120, 120, 195, 1, 0.564237
375, 6, bw, attraction, a-b-da, 5, 3, 2, 37, 120, 195, 195, 120, 190, 117, 2, 0.667315
375, 6, bw, attraction, a-b-da, 5, 3, 2, 37, 120, 195, 195, 120, 190, 117, 3, 0.423751
375, 6, bw, attraction, a-b-db, 14, 2, 3, 1, 165, 90, 90, 165, 83, 153, 2, 3.42024
375, 6, bw, attraction, a-b-db, 14, 2, 3, 1, 165, 90, 90, 165, 83, 153, 3, 0.705893
375, 6, bw, filler, NA, 999, 999, 3, 2, 165, 104, 157, 136, 139, 66, 2, 0.715494
375, 6, bw, filler, NA, 999, 999, 3, 2, 165, 104, 157, 136, 139, 66, 3, 0.885955
375, 6, bw, filler, NA, 999, 999, 3, 3, 119, 186, 153, 131, 97, 172, 1, 1.72834
375, 6, bw, filler, NA, 999, 999, 3, 3, 119, 186, 153, 131, 97, 172, 3, 0.593807
375, 6, bw, attraction, a-b-db, 2, 2, 3, 4, 165, 90, 90, 165, 89, 163, 2, 8.8795
375, 6, bw, attraction, a-b-db, 2, 2, 3, 4, 165, 90, 90, 165, 89, 163, 1, 0.896662
375, 6, bw, attraction, a-b-db, 14, 3, 3, 5, 111, 181, 195, 120, 120, 195, 3, 1.42636
375, 6, bw, attraction, a-b-db, 14, 3, 3, 5, 111, 181, 195, 120, 120, 195, 2, 0.511878
375, 6, bw, filler, NA, 999, 999, 3, 6, 130, 97, 142, 112, 77, 166, 2, 1.14492
375, 6, bw, filler, NA, 999, 999, 3, 6, 130, 97, 142, 112, 77, 166, 3, 0.473861
375, 6, bw, attraction, a-b-da, 5, 1, 3, 7, 132, 58, 135, 60, 60, 135, 3, 0.956348
375, 6, bw, attraction, a-b-da, 5, 1, 3, 7, 132, 58, 135, 60, 60, 135, 2, 0.620736
375, 6, bw, attraction, a-b-db, 2, 3, 3, 8, 120, 195, 195, 120, 119, 193, 3, 0.985769
375, 6, bw, attraction, a-b-db, 2, 3, 3, 8, 120, 195, 195, 120, 119, 193, 2, 0.433525
375, 6, bw, attraction, a-b-da, 2, 2, 3, 9, 165, 90, 90, 165, 163, 89, 2, 1.2859
375, 6, bw, attraction, a-b-da, 2, 2, 3, 9, 165, 90, 90, 165, 163, 89, 3, 0.513452
375, 6, bw, attraction, a-b-db, 14, 1, 3, 10, 135, 60, 60, 135, 56, 125, 2, 5.67466
375, 6, bw, attraction, a-b-db, 14, 1, 3, 10, 135, 60, 60, 135, 56, 125, 1, 0.636733
375, 6, bw, filler, NA, 999, 999, 3, 11, 114, 104, 128, 140, 125, 119, 2, 0.985181
375, 6, bw, filler, NA, 999, 999, 3, 11, 114, 104, 128, 140, 125, 119, 1, 0.456884
375, 6, bw, attraction, a-b-da, 14, 1, 3, 12, 135, 60, 60, 135, 125, 56, 2, 3.70001
375, 6, bw, attraction, a-b-da, 14, 1, 3, 12, 135, 60, 60, 135, 125, 56, 3, 0.742122
375, 6, bw, filler, NA, 999, 999, 3, 13, 77, 157, 158, 130, 186, 137, 3, 0.837952
375, 6, bw, filler, NA, 999, 999, 3, 13, 77, 157, 158, 130, 186, 137, 1, 0.514932
375, 6, bw, attraction, a-b-da, 2, 1, 3, 14, 60, 135, 134, 59, 135, 60, 1, 1.09997
375, 6, bw, attraction, a-b-da, 2, 1, 3, 14, 60, 135, 134, 59, 135, 60, 3, 0.687049
375, 6, bw, attraction, a-b-db, 9, 3, 3, 15, 114, 186, 195, 120, 120, 195, 3, 1.5454
375, 6, bw, attraction, a-b-db, 9, 3, 3, 15, 114, 186, 195, 120, 120, 195, 2, 1.29825
375, 6, bw, attraction, a-b-db, 5, 2, 3, 16, 88, 161, 90, 165, 165, 90, 2, 2.5558
375, 6, bw, attraction, a-b-db, 5, 2, 3, 16, 88, 161, 90, 165, 165, 90, 3, 0.667581
375, 6, bw, attraction, a-b-db, 9, 2, 3, 17, 90, 165, 86, 157, 165, 90, 1, 1.48657
375, 6, bw, attraction, a-b-db, 9, 2, 3, 17, 90, 165, 86, 157, 165, 90, 3, 0.625572
375, 6, bw, filler, NA, 999, 999, 3, 18, 72, 177, 123, 195, 76, 130, 2, 1.30199
375, 6, bw, filler, NA, 999, 999, 3, 18, 72, 177, 123, 195, 76, 130, 1, 0.776773
375, 6, bw, attraction, a-b-da, 9, 2, 3, 19, 157, 86, 90, 165, 165, 90, 2, 1.72714
375, 6, bw, attraction, a-b-da, 9, 2, 3, 19, 157, 86, 90, 165, 165, 90, 3, 0.600591
375, 6, bw, attraction, a-b-db, 5, 1, 3, 20, 60, 135, 58, 132, 135, 60, 1, 1.54231
375, 6, bw, attraction, a-b-db, 5, 1, 3, 20, 60, 135, 58, 132, 135, 60, 2, 0.783185
375, 6, bw, attraction, a-b-db, 2, 1, 3, 21, 59, 134, 60, 135, 135, 60, 1, 24.3496
375, 6, bw, attraction, a-b-db, 2, 1, 3, 21, 59, 134, 60, 135, 135, 60, 3, 1.22325
375, 6, bw, attraction, a-b-db, 5, 3, 3, 22, 120, 195, 195, 120, 117, 190, 1, 1.96352
375, 6, bw, attraction, a-b-db, 5, 3, 3, 22, 120, 195, 195, 120, 117, 190, 2, 0.579552
375, 6, bw, attraction, a-b-da, 9, 3, 3, 23, 195, 120, 120, 195, 186, 114, 2, 1.77795
375, 6, bw, attraction, a-b-da, 9, 3, 3, 23, 195, 120, 120, 195, 186, 114, 1, 0.5053
375, 6, bw, filler, NA, 999, 999, 3, 24, 191, 85, 192, 127, 186, 72, 2, 0.603149
375, 6, bw, filler, NA, 999, 999, 3, 24, 191, 85, 192, 127, 186, 72, 3, 1.1542
375, 6, bw, attraction, a-b-da, 5, 2, 3, 25, 90, 165, 161, 88, 165, 90, 1, 0.945854
375, 6, bw, attraction, a-b-da, 5, 2, 3, 25, 90, 165, 161, 88, 165, 90, 2, 0.514861
375, 6, bw, filler, NA, 999, 999, 3, 26, 107, 81, 180, 71, 151, 89, 3, 1.36393
375, 6, bw, filler, NA, 999, 999, 3, 26, 107, 81, 180, 71, 151, 89, 1, 0.444281
375, 6, bw, catch, NA, 999, 999, 3, 27, 181, 134, 165, 90, 98, 97, 1, 1.03998
375, 6, bw, catch, NA, 999, 999, 3, 27, 181, 134, 165, 90, 98, 97, 3, 0.821001
375, 6, bw, filler, NA, 999, 999, 3, 28, 137, 97, 176, 162, 137, 125, 2, 0.761905
375, 6, bw, filler, NA, 999, 999, 3, 28, 137, 97, 176, 162, 137, 125, 1, 0.522471
375, 6, bw, catch, NA, 999, 999, 3, 29, 75, 120, 121, 194, 139, 116, 2, 0.72351
375, 6, bw, catch, NA, 999, 999, 3, 29, 75, 120, 121, 194, 139, 116, 1, 0.525224
375, 6, bw, attraction, a-b-da, 2, 3, 3, 30, 195, 120, 120, 195, 193, 119, 2, 1.3098
375, 6, bw, attraction, a-b-da, 2, 3, 3, 30, 195, 120, 120, 195, 193, 119, 1, 0.38408
375, 6, bw, attraction, a-b-da, 14, 3, 3, 31, 195, 120, 181, 111, 120, 195, 3, 0.646395
375, 6, bw, attraction, a-b-da, 14, 3, 3, 31, 195, 120, 181, 111, 120, 195, 2, 0.347483
375, 6, bw, attraction, a-b-da, 14, 2, 3, 32, 153, 83, 90, 165, 165, 90, 2, 0.899338
375, 6, bw, attraction, a-b-da, 14, 2, 3, 32, 153, 83, 90, 165, 165, 90, 3, 0.430313
375, 6, bw, attraction, a-b-da, 5, 3, 3, 33, 190, 117, 120, 195, 195, 120, 2, 0.474902
375, 6, bw, attraction, a-b-da, 5, 3, 3, 33, 190, 117, 120, 195, 195, 120, 3, 0.462693
375, 6, bw, attraction, a-b-da, 9, 1, 3, 34, 135, 60, 129, 57, 60, 135, 3, 0.913744
375, 6, bw, attraction, a-b-da, 9, 1, 3, 34, 135, 60, 129, 57, 60, 135, 2, 0.380137
375, 6, bw, attraction, a-b-db, 9, 1, 3, 35, 135, 60, 60, 135, 57, 129, 2, 1.27468
375, 6, bw, attraction, a-b-db, 9, 1, 3, 35, 135, 60, 60, 135, 57, 129, 1, 0.438169
375, 6, bw, filler, NA, 999, 999, 3, 36, 189, 115, 100, 91, 89, 95, 1, 0.682615
375, 6, bw, filler, NA, 999, 999, 3, 36, 189, 115, 100, 91, 89, 95, 3, 4.1985
375, 6, bw, catch, NA, 999, 999, 3, 37, 91, 164, 177, 138, 75, 120, 2, 0.771092
375, 6, bw, catch, NA, 999, 999, 3, 37, 91, 164, 177, 138, 75, 120, 3, 2.57075
375, 6, bw, attraction, a-b-da, 5, 1, 4, 1, 60, 135, 135, 60, 132, 58, 1, 0.801317
375, 6, bw, attraction, a-b-da, 5, 1, 4, 1, 60, 135, 135, 60, 132, 58, 2, 0.584312
375, 6, bw, attraction, a-b-db, 14, 1, 4, 2, 56, 125, 135, 60, 60, 135, 3, 0.822834
375, 6, bw, attraction, a-b-db, 14, 1, 4, 2, 56, 125, 135, 60, 60, 135, 2, 0.436501
375, 6, bw, attraction, a-b-da, 9, 2, 4, 3, 165, 90, 90, 165, 157, 86, 1, 5.0089
375, 6, bw, attraction, a-b-da, 9, 2, 4, 3, 165, 90, 90, 165, 157, 86, 2, 0.598046
375, 6, bw, attraction, a-b-db, 5, 2, 4, 4, 88, 161, 165, 90, 90, 165, 3, 0.867729
375, 6, bw, attraction, a-b-db, 5, 2, 4, 4, 88, 161, 165, 90, 90, 165, 2, 0.392123
375, 6, bw, attraction, a-b-db, 2, 2, 4, 5, 90, 165, 165, 90, 89, 163, 1, 1.278
375, 6, bw, attraction, a-b-db, 2, 2, 4, 5, 90, 165, 165, 90, 89, 163, 2, 0.553606
375, 6, bw, attraction, a-b-da, 2, 3, 4, 6, 120, 195, 195, 120, 193, 119, 3, 0.769351
375, 6, bw, attraction, a-b-da, 2, 3, 4, 6, 120, 195, 195, 120, 193, 119, 1, 6.39369
375, 6, bw, attraction, a-b-db, 14, 2, 4, 7, 90, 165, 83, 153, 165, 90, 2, 4.36562
375, 6, bw, attraction, a-b-db, 14, 2, 4, 7, 90, 165, 83, 153, 165, 90, 3, 0.580861
375, 6, bw, attraction, a-b-db, 9, 2, 4, 8, 86, 157, 165, 90, 90, 165, 1, 1.67525
375, 6, bw, attraction, a-b-db, 9, 2, 4, 8, 86, 157, 165, 90, 90, 165, 2, 0.382723
375, 6, bw, attraction, a-b-db, 9, 1, 4, 9, 60, 135, 135, 60, 57, 129, 1, 1.57323
375, 6, bw, attraction, a-b-db, 9, 1, 4, 9, 60, 135, 135, 60, 57, 129, 2, 0.460728
375, 6, bw, filler, NA, 999, 999, 4, 10, 156, 65, 170, 70, 166, 124, 3, 1.07988
375, 6, bw, filler, NA, 999, 999, 4, 10, 156, 65, 170, 70, 166, 124, 2, 0.419689
375, 6, bw, filler, NA, 999, 999, 4, 11, 149, 107, 88, 170, 95, 101, 2, 7.06465
375, 6, bw, filler, NA, 999, 999, 4, 11, 149, 107, 88, 170, 95, 101, 3, 0.411134
375, 6, bw, attraction, a-b-da, 9, 3, 4, 12, 195, 120, 120, 195, 186, 114, 2, 9.8803
375, 6, bw, attraction, a-b-da, 9, 3, 4, 12, 195, 120, 120, 195, 186, 114, 1, 0.457064
375, 6, bw, catch, NA, 999, 999, 4, 13, 79, 116, 155, 160, 112, 143, 2, 0.876194
375, 6, bw, catch, NA, 999, 999, 4, 13, 79, 116, 155, 160, 112, 143, 1, 0.575917
375, 6, bw, attraction, a-b-db, 2, 3, 4, 14, 119, 193, 120, 195, 195, 120, 1, 1.27842
375, 6, bw, attraction, a-b-db, 2, 3, 4, 14, 119, 193, 120, 195, 195, 120, 2, 0.505902
375, 6, bw, attraction, a-b-da, 5, 3, 4, 15, 190, 117, 195, 120, 120, 195, 3, 1.27573
375, 6, bw, attraction, a-b-da, 5, 3, 4, 15, 190, 117, 195, 120, 120, 195, 1, 0.431325
375, 6, bw, attraction, a-b-da, 2, 2, 4, 16, 163, 89, 165, 90, 90, 165, 3, 1.33984
375, 6, bw, attraction, a-b-da, 2, 2, 4, 16, 163, 89, 165, 90, 90, 165, 2, 0.404681
375, 6, bw, filler, NA, 999, 999, 4, 17, 74, 61, 190, 166, 127, 178, 2, 0.858421
375, 6, bw, filler, NA, 999, 999, 4, 17, 74, 61, 190, 166, 127, 178, 1, 0.502846
375, 6, bw, attraction, a-b-da, 9, 1, 4, 18, 60, 135, 129, 57, 135, 60, 1, 1.19264
375, 6, bw, attraction, a-b-da, 9, 1, 4, 18, 60, 135, 129, 57, 135, 60, 2, 0.471689
375, 6, bw, filler, NA, 999, 999, 4, 19, 66, 195, 146, 76, 170, 113, 3, 1.03472
375, 6, bw, filler, NA, 999, 999, 4, 19, 66, 195, 146, 76, 170, 113, 2, 0.520365
375, 6, bw, attraction, a-b-db, 14, 3, 4, 20, 120, 195, 195, 120, 111, 181, 1, 3.73738
375, 6, bw, attraction, a-b-db, 14, 3, 4, 20, 120, 195, 195, 120, 111, 181, 2, 0.482231
375, 6, bw, filler, NA, 999, 999, 4, 21, 141, 89, 124, 126, 90, 91, 1, 1.4529
375, 6, bw, filler, NA, 999, 999, 4, 21, 141, 89, 124, 126, 90, 91, 3, 0.577595
375, 6, bw, catch, NA, 999, 999, 4, 22, 159, 156, 69, 126, 113, 142, 1, 0.935977
375, 6, bw, catch, NA, 999, 999, 4, 22, 159, 156, 69, 126, 113, 142, 2, 0.513731
375, 6, bw, filler, NA, 999, 999, 4, 23, 107, 69, 136, 67, 76, 96, 2, 12.6028
375, 6, bw, filler, NA, 999, 999, 4, 23, 107, 69, 136, 67, 76, 96, 1, 2.59819
375, 6, bw, attraction, a-b-da, 14, 3, 4, 24, 195, 120, 181, 111, 120, 195, 3, 1.6033
375, 6, bw, attraction, a-b-da, 14, 3, 4, 24, 195, 120, 181, 111, 120, 195, 2, 0.410192
375, 6, bw, attraction, a-b-da, 2, 1, 4, 25, 135, 60, 60, 135, 134, 59, 2, 0.94327
375, 6, bw, attraction, a-b-da, 2, 1, 4, 25, 135, 60, 60, 135, 134, 59, 3, 0.768383
375, 6, bw, filler, NA, 999, 999, 4, 26, 174, 87, 156, 72, 99, 102, 1, 1.67137
375, 6, bw, filler, NA, 999, 999, 4, 26, 174, 87, 156, 72, 99, 102, 3, 0.682889
375, 6, bw, filler, NA, 999, 999, 4, 27, 140, 154, 83, 59, 92, 177, 1, 1.29322
375, 6, bw, filler, NA, 999, 999, 4, 27, 140, 154, 83, 59, 92, 177, 2, 0.488073
375, 6, bw, filler, NA, 999, 999, 4, 28, 110, 112, 191, 88, 84, 67, 2, 1.08254
375, 6, bw, filler, NA, 999, 999, 4, 28, 110, 112, 191, 88, 84, 67, 3, 0.59012
375, 6, bw, attraction, a-b-db, 9, 3, 4, 29, 195, 120, 114, 186, 120, 195, 3, 7.98793
375, 6, bw, attraction, a-b-db, 9, 3, 4, 29, 195, 120, 114, 186, 120, 195, 2, 0.625439
375, 6, bw, catch, NA, 999, 999, 4, 30, 101, 154, 80, 115, 165, 150, 3, 0.781821
375, 6, bw, catch, NA, 999, 999, 4, 30, 101, 154, 80, 115, 165, 150, 2, 0.957568
375, 6, bw, filler, NA, 999, 999, 4, 31, 100, 115, 176, 189, 105, 127, 2, 0.988508
375, 6, bw, filler, NA, 999, 999, 4, 31, 100, 115, 176, 189, 105, 127, 3, 0.459579
375, 6, bw, attraction, a-b-db, 5, 3, 4, 32, 117, 190, 120, 195, 195, 120, 3, 6.88669
375, 6, bw, attraction, a-b-db, 5, 3, 4, 32, 117, 190, 120, 195, 195, 120, 2, 0.592519
375, 6, bw, attraction, a-b-da, 14, 1, 4, 33, 60, 135, 125, 56, 135, 60, 1, 0.678149
375, 6, bw, attraction, a-b-da, 14, 1, 4, 33, 60, 135, 125, 56, 135, 60, 2, 0.561915
375, 6, bw, attraction, a-b-da, 5, 2, 4, 34, 90, 165, 165, 90, 161, 88, 1, 0.568971
375, 6, bw, attraction, a-b-da, 5, 2, 4, 34, 90, 165, 165, 90, 161, 88, 3, 0.657524
375, 6, bw, attraction, a-b-db, 2, 1, 4, 35, 135, 60, 59, 134, 60, 135, 3, 1.18064
375, 6, bw, attraction, a-b-db, 2, 1, 4, 35, 135, 60, 59, 134, 60, 135, 1, 0.868142
375, 6, bw, attraction, a-b-da, 14, 2, 4, 36, 153, 83, 90, 165, 165, 90, 2, 1.15917
375, 6, bw, attraction, a-b-da, 14, 2, 4, 36, 153, 83, 90, 165, 165, 90, 1, 0.807535
375, 6, bw, attraction, a-b-db, 5, 1, 4, 37, 60, 135, 135, 60, 58, 132, 3, 0.700657
375, 6, bw, attraction, a-b-db, 5, 1, 4, 37, 60, 135, 135, 60, 58, 132, 2, 0.447634
375, 6, bw, attraction, a-b-db, 14, 1, 5, 1, 56, 125, 135, 60, 60, 135, 3, 30.1541
375, 6, bw, attraction, a-b-db, 14, 1, 5, 1, 56, 125, 135, 60, 60, 135, 1, 0.497869
375, 6, bw, attraction, a-b-da, 5, 2, 5, 2, 161, 88, 90, 165, 165, 90, 2, 11.0917
375, 6, bw, attraction, a-b-da, 5, 2, 5, 2, 161, 88, 90, 165, 165, 90, 1, 0.571538
375, 6, bw, filler, NA, 999, 999, 5, 3, 144, 100, 80, 69, 62, 148, 1, 7.01865
375, 6, bw, filler, NA, 999, 999, 5, 3, 144, 100, 80, 69, 62, 148, 2, 0.623298
375, 6, bw, attraction, a-b-da, 14, 3, 5, 4, 195, 120, 120, 195, 181, 111, 2, 5.53951
375, 6, bw, attraction, a-b-da, 14, 3, 5, 4, 195, 120, 120, 195, 181, 111, 3, 0.803218
375, 6, bw, filler, NA, 999, 999, 5, 5, 78, 95, 65, 177, 63, 141, 2, 1.37677
375, 6, bw, filler, NA, 999, 999, 5, 5, 78, 95, 65, 177, 63, 141, 1, 0.672319
375, 6, bw, attraction, a-b-db, 5, 3, 5, 6, 117, 190, 120, 195, 195, 120, 1, 2.64337
375, 6, bw, attraction, a-b-db, 5, 3, 5, 6, 117, 190, 120, 195, 195, 120, 3, 0.839838
375, 6, bw, filler, NA, 999, 999, 5, 7, 101, 147, 156, 88, 121, 122, 1, 1.98747
375, 6, bw, filler, NA, 999, 999, 5, 7, 101, 147, 156, 88, 121, 122, 2, 0.450221
375, 6, bw, catch, NA, 999, 999, 5, 8, 94, 101, 180, 135, 130, 125, 2, 0.965982
375, 6, bw, catch, NA, 999, 999, 5, 8, 94, 101, 180, 135, 130, 125, 1, 0.438405
375, 6, bw, attraction, a-b-db, 2, 1, 5, 9, 135, 60, 59, 134, 60, 135, 1, 1.2508
375, 6, bw, attraction, a-b-db, 2, 1, 5, 9, 135, 60, 59, 134, 60, 135, 2, 0.423737
375, 6, bw, attraction, a-b-da, 2, 2, 5, 10, 90, 165, 163, 89, 165, 90, 1, 39.7802
375, 6, bw, attraction, a-b-da, 2, 2, 5, 10, 90, 165, 163, 89, 165, 90, 2, 0.720369
375, 6, bw, attraction, a-b-da, 2, 1, 5, 11, 135, 60, 60, 135, 134, 59, 2, 15.6495
375, 6, bw, attraction, a-b-da, 2, 1, 5, 11, 135, 60, 60, 135, 134, 59, 1, 0.497846
375, 6, bw, filler, NA, 999, 999, 5, 12, 192, 193, 177, 119, 149, 125, 1, 1.0437
375, 6, bw, filler, NA, 999, 999, 5, 12, 192, 193, 177, 119, 149, 125, 2, 0.48868
375, 6, bw, attraction, a-b-da, 9, 1, 5, 13, 129, 57, 60, 135, 135, 60, 2, 0.883182
375, 6, bw, attraction, a-b-da, 9, 1, 5, 13, 129, 57, 60, 135, 135, 60, 1, 0.454889
375, 6, bw, attraction, a-b-da, 14, 2, 5, 14, 90, 165, 153, 83, 165, 90, 1, 0.706613
375, 6, bw, attraction, a-b-da, 14, 2, 5, 14, 90, 165, 153, 83, 165, 90, 2, 0.341052
375, 6, bw, attraction, a-b-db, 9, 1, 5, 15, 60, 135, 57, 129, 135, 60, 1, 0.980861
375, 6, bw, attraction, a-b-db, 9, 1, 5, 15, 60, 135, 57, 129, 135, 60, 3, 0.484519
375, 6, bw, filler, NA, 999, 999, 5, 16, 167, 61, 161, 81, 107, 71, 2, 0.471006
375, 6, bw, filler, NA, 999, 999, 5, 16, 167, 61, 161, 81, 107, 71, 3, 1.88278
375, 6, bw, attraction, a-b-db, 5, 1, 5, 17, 135, 60, 58, 132, 60, 135, 1, 1.12488
375, 6, bw, attraction, a-b-db, 5, 1, 5, 17, 135, 60, 58, 132, 60, 135, 2, 0.478387
375, 6, bw, attraction, a-b-db, 14, 2, 5, 18, 165, 90, 90, 165, 83, 153, 3, 1.08092
375, 6, bw, attraction, a-b-db, 14, 2, 5, 18, 165, 90, 90, 165, 83, 153, 1, 0.532534
375, 6, bw, attraction, a-b-db, 14, 3, 5, 19, 111, 181, 120, 195, 195, 120, 2, 1.22889
375, 6, bw, attraction, a-b-db, 14, 3, 5, 19, 111, 181, 120, 195, 195, 120, 3, 0.346572
375, 6, bw, attraction, a-b-db, 5, 2, 5, 20, 165, 90, 90, 165, 88, 161, 2, 19.6264
375, 6, bw, attraction, a-b-db, 5, 2, 5, 20, 165, 90, 90, 165, 88, 161, 1, 0.858987
375, 6, bw, attraction, a-b-db, 2, 2, 5, 21, 90, 165, 89, 163, 165, 90, 3, 6.10192
375, 6, bw, attraction, a-b-db, 2, 2, 5, 21, 90, 165, 89, 163, 165, 90, 2, 0.375473
375, 6, bw, filler, NA, 999, 999, 5, 22, 73, 65, 64, 61, 134, 188, 3, 1.58181
375, 6, bw, filler, NA, 999, 999, 5, 22, 73, 65, 64, 61, 134, 188, 2, 5.37333
375, 6, bw, attraction, a-b-da, 2, 3, 5, 23, 120, 195, 195, 120, 193, 119, 1, 2.19484
375, 6, bw, attraction, a-b-da, 2, 3, 5, 23, 120, 195, 195, 120, 193, 119, 3, 0.50549
375, 6, bw, filler, NA, 999, 999, 5, 24, 103, 100, 58, 174, 169, 191, 3, 10.9233
375, 6, bw, filler, NA, 999, 999, 5, 24, 103, 100, 58, 174, 169, 191, 1, 3.22658
375, 6, bw, attraction, a-b-da, 5, 1, 5, 25, 132, 58, 60, 135, 135, 60, 2, 0.638095
375, 6, bw, attraction, a-b-da, 5, 1, 5, 25, 132, 58, 60, 135, 135, 60, 3, 0.75517
375, 6, bw, attraction, a-b-da, 9, 2, 5, 26, 165, 90, 157, 86, 90, 165, 3, 0.874926
375, 6, bw, attraction, a-b-da, 9, 2, 5, 26, 165, 90, 157, 86, 90, 165, 2, 0.710566
375, 6, bw, attraction, a-b-db, 9, 3, 5, 27, 114, 186, 195, 120, 120, 195, 1, 0.615617
375, 6, bw, attraction, a-b-db, 9, 3, 5, 27, 114, 186, 195, 120, 120, 195, 2, 0.654115
375, 6, bw, catch, NA, 999, 999, 5, 28, 145, 170, 108, 87, 162, 93, 1, 0.585844
375, 6, bw, catch, NA, 999, 999, 5, 28, 145, 170, 108, 87, 162, 93, 2, 0.833737
375, 6, bw, filler, NA, 999, 999, 5, 29, 79, 147, 147, 164, 67, 66, 2, 0.838004
375, 6, bw, filler, NA, 999, 999, 5, 29, 79, 147, 147, 164, 67, 66, 3, 0.883126
375, 6, bw, attraction, a-b-da, 5, 3, 5, 30, 190, 117, 120, 195, 195, 120, 2, 1.38941
375, 6, bw, attraction, a-b-da, 5, 3, 5, 30, 190, 117, 120, 195, 195, 120, 1, 0.476248
375, 6, bw, attraction, a-b-db, 9, 2, 5, 31, 86, 157, 90, 165, 165, 90, 2, 1.29472
375, 6, bw, attraction, a-b-db, 9, 2, 5, 31, 86, 157, 90, 165, 165, 90, 3, 0.56165
375, 6, bw, attraction, a-b-da, 14, 1, 5, 32, 60, 135, 135, 60, 125, 56, 1, 0.768694
375, 6, bw, attraction, a-b-da, 14, 1, 5, 32, 60, 135, 135, 60, 125, 56, 3, 0.681276
375, 6, bw, catch, NA, 999, 999, 5, 33, 119, 76, 193, 122, 150, 105, 2, 0.523469
375, 6, bw, catch, NA, 999, 999, 5, 33, 119, 76, 193, 122, 150, 105, 1, 0.413295
375, 6, bw, attraction, a-b-da, 9, 3, 5, 34, 195, 120, 120, 195, 186, 114, 1, 1.04242
375, 6, bw, attraction, a-b-da, 9, 3, 5, 34, 195, 120, 120, 195, 186, 114, 2, 0.599421
375, 6, bw, filler, NA, 999, 999, 5, 35, 171, 108, 152, 162, 127, 171, 2, 0.76519
375, 6, bw, filler, NA, 999, 999, 5, 35, 171, 108, 152, 162, 127, 171, 1, 0.413622
375, 6, bw, attraction, a-b-db, 2, 3, 5, 36, 195, 120, 119, 193, 120, 195, 1, 1.49887
375, 6, bw, attraction, a-b-db, 2, 3, 5, 36, 195, 120, 119, 193, 120, 195, 2, 0.397547
375, 6, bw, filler, NA, 999, 999, 5, 37, 62, 85, 193, 82, 170, 191, 3, 0.555405
375, 6, bw, filler, NA, 999, 999, 5, 37, 62, 85, 193, 82, 170, 191, 1, 0.5638
375, 6, bw, attraction, a-b-db, 5, 2, 6, 1, 88, 161, 165, 90, 90, 165, 1, 0.986944
375, 6, bw, attraction, a-b-db, 5, 2, 6, 1, 88, 161, 165, 90, 90, 165, 2, 0.658687
375, 6, bw, attraction, a-b-db, 14, 2, 6, 2, 90, 165, 165, 90, 83, 153, 1, 0.821708
375, 6, bw, attraction, a-b-db, 14, 2, 6, 2, 90, 165, 165, 90, 83, 153, 2, 0.443541
375, 6, bw, attraction, a-b-da, 14, 2, 6, 3, 165, 90, 153, 83, 90, 165, 3, 0.751315
375, 6, bw, attraction, a-b-da, 14, 2, 6, 3, 165, 90, 153, 83, 90, 165, 2, 0.432342
375, 6, bw, filler, NA, 999, 999, 6, 4, 177, 89, 187, 81, 135, 106, 1, 0.780764
375, 6, bw, filler, NA, 999, 999, 6, 4, 177, 89, 187, 81, 135, 106, 3, 0.56451
375, 6, bw, catch, NA, 999, 999, 6, 5, 121, 134, 84, 111, 155, 160, 3, 0.827617
375, 6, bw, catch, NA, 999, 999, 6, 5, 121, 134, 84, 111, 155, 160, 2, 0.393332
375, 6, bw, attraction, a-b-db, 2, 1, 6, 6, 135, 60, 60, 135, 59, 134, 1, 0.767112
375, 6, bw, attraction, a-b-db, 2, 1, 6, 6, 135, 60, 60, 135, 59, 134, 3, 0.799597
375, 6, bw, attraction, a-b-db, 2, 3, 6, 7, 119, 193, 120, 195, 195, 120, 2, 0.957299
375, 6, bw, attraction, a-b-db, 2, 3, 6, 7, 119, 193, 120, 195, 195, 120, 3, 0.477678
375, 6, bw, filler, NA, 999, 999, 6, 8, 159, 130, 101, 194, 129, 181, 3, 8.23208
375, 6, bw, filler, NA, 999, 999, 6, 8, 159, 130, 101, 194, 129, 181, 2, 0.627411
375, 6, bw, attraction, a-b-da, 2, 2, 6, 9, 163, 89, 165, 90, 90, 165, 1, 0.855884
375, 6, bw, attraction, a-b-da, 2, 2, 6, 9, 163, 89, 165, 90, 90, 165, 3, 0.492205
375, 6, bw, attraction, a-b-db, 9, 1, 6, 10, 57, 129, 60, 135, 135, 60, 2, 0.829983
375, 6, bw, attraction, a-b-db, 9, 1, 6, 10, 57, 129, 60, 135, 135, 60, 3, 0.675837
375, 6, bw, attraction, a-b-da, 14, 1, 6, 11, 125, 56, 135, 60, 60, 135, 3, 1.41411
375, 6, bw, attraction, a-b-da, 14, 1, 6, 11, 125, 56, 135, 60, 60, 135, 2, 0.508427
375, 6, bw, attraction, a-b-da, 5, 1, 6, 12, 132, 58, 135, 60, 60, 135, 1, 0.517334
375, 6, bw, attraction, a-b-da, 5, 1, 6, 12, 132, 58, 135, 60, 60, 135, 2, 1.11193
375, 6, bw, attraction, a-b-db, 2, 2, 6, 13, 90, 165, 89, 163, 165, 90, 2, 0.680813
375, 6, bw, attraction, a-b-db, 2, 2, 6, 13, 90, 165, 89, 163, 165, 90, 3, 0.500697
375, 6, bw, attraction, a-b-da, 14, 3, 6, 14, 181, 111, 195, 120, 120, 195, 3, 0.782365
375, 6, bw, attraction, a-b-da, 14, 3, 6, 14, 181, 111, 195, 120, 120, 195, 2, 0.59814
375, 6, bw, filler, NA, 999, 999, 6, 15, 142, 59, 109, 135, 153, 191, 3, 0.691828
375, 6, bw, filler, NA, 999, 999, 6, 15, 142, 59, 109, 135, 153, 191, 1, 0.67087
375, 6, bw, attraction, a-b-da, 9, 2, 6, 16, 165, 90, 157, 86, 90, 165, 1, 0.874116
375, 6, bw, attraction, a-b-da, 9, 2, 6, 16, 165, 90, 157, 86, 90, 165, 2, 1.7258
375, 6, bw, attraction, a-b-db, 14, 1, 6, 17, 56, 125, 60, 135, 135, 60, 2, 0.837771
375, 6, bw, attraction, a-b-db, 14, 1, 6, 17, 56, 125, 60, 135, 135, 60, 3, 0.594909
375, 6, bw, filler, NA, 999, 999, 6, 18, 166, 174, 61, 133, 184, 106, 1, 0.59252
375, 6, bw, filler, NA, 999, 999, 6, 18, 166, 174, 61, 133, 184, 106, 2, 0.471702
375, 6, bw, attraction, a-b-db, 9, 3, 6, 19, 120, 195, 114, 186, 195, 120, 3, 0.87473
375, 6, bw, attraction, a-b-db, 9, 3, 6, 19, 120, 195, 114, 186, 195, 120, 1, 1.19065
375, 6, bw, attraction, a-b-db, 5, 3, 6, 20, 120, 195, 195, 120, 117, 190, 2, 0.540034
375, 6, bw, attraction, a-b-db, 5, 3, 6, 20, 120, 195, 195, 120, 117, 190, 3, 0.373149
375, 6, bw, attraction, a-b-da, 9, 3, 6, 21, 186, 114, 120, 195, 195, 120, 2, 0.451665
375, 6, bw, attraction, a-b-da, 9, 3, 6, 21, 186, 114, 120, 195, 195, 120, 1, 0.320793
375, 6, bw, filler, NA, 999, 999, 6, 22, 72, 170, 62, 175, 64, 166, 1, 2.43407
375, 6, bw, filler, NA, 999, 999, 6, 22, 72, 170, 62, 175, 64, 166, 2, 1.32734
375, 6, bw, attraction, a-b-db, 5, 1, 6, 23, 60, 135, 135, 60, 58, 132, 1, 0.575455
375, 6, bw, attraction, a-b-db, 5, 1, 6, 23, 60, 135, 135, 60, 58, 132, 2, 0.615262
375, 6, bw, attraction, a-b-da, 2, 1, 6, 24, 135, 60, 134, 59, 60, 135, 3, 0.748347
375, 6, bw, attraction, a-b-da, 2, 1, 6, 24, 135, 60, 134, 59, 60, 135, 2, 0.597369
375, 6, bw, catch, NA, 999, 999, 6, 25, 136, 179, 118, 137, 82, 113, 1, 0.891227
375, 6, bw, catch, NA, 999, 999, 6, 25, 136, 179, 118, 137, 82, 113, 3, 2.30219
375, 6, bw, attraction, a-b-da, 5, 3, 6, 26, 190, 117, 195, 120, 120, 195, 3, 2.44737
375, 6, bw, attraction, a-b-da, 5, 3, 6, 26, 190, 117, 195, 120, 120, 195, 2, 2.684
375, 6, bw, attraction, a-b-da, 9, 1, 6, 27, 60, 135, 135, 60, 129, 57, 1, 2.5817
375, 6, bw, attraction, a-b-da, 9, 1, 6, 27, 60, 135, 135, 60, 129, 57, 2, 2.57287
375, 6, bw, filler, NA, 999, 999, 6, 28, 112, 131, 149, 65, 149, 86, 1, 0.819287
375, 6, bw, filler, NA, 999, 999, 6, 28, 112, 131, 149, 65, 149, 86, 2, 0.585742
375, 6, bw, filler, NA, 999, 999, 6, 29, 130, 90, 171, 63, 175, 152, 3, 0.608174
375, 6, bw, filler, NA, 999, 999, 6, 29, 130, 90, 171, 63, 175, 152, 2, 0.758577
375, 6, bw, filler, NA, 999, 999, 6, 30, 141, 151, 194, 156, 95, 142, 1, 0.973604
375, 6, bw, filler, NA, 999, 999, 6, 30, 141, 151, 194, 156, 95, 142, 3, 0.901354
375, 6, bw, attraction, a-b-da, 2, 3, 6, 31, 193, 119, 120, 195, 195, 120, 2, 0.727066
375, 6, bw, attraction, a-b-da, 2, 3, 6, 31, 193, 119, 120, 195, 195, 120, 1, 0.416815
375, 6, bw, filler, NA, 999, 999, 6, 32, 191, 183, 172, 115, 161, 131, 1, 0.725851
375, 6, bw, filler, NA, 999, 999, 6, 32, 191, 183, 172, 115, 161, 131, 2, 0.599591
375, 6, bw, filler, NA, 999, 999, 6, 33, 131, 162, 121, 93, 191, 162, 3, 0.773394
375, 6, bw, filler, NA, 999, 999, 6, 33, 131, 162, 121, 93, 191, 162, 2, 0.741176
375, 6, bw, attraction, a-b-da, 5, 2, 6, 34, 90, 165, 161, 88, 165, 90, 1, 0.828828
375, 6, bw, attraction, a-b-da, 5, 2, 6, 34, 90, 165, 161, 88, 165, 90, 3, 0.954651
375, 6, bw, attraction, a-b-db, 14, 3, 6, 35, 120, 195, 111, 181, 195, 120, 1, 1.49013
375, 6, bw, attraction, a-b-db, 14, 3, 6, 35, 120, 195, 111, 181, 195, 120, 3, 0.572967
375, 6, bw, catch, NA, 999, 999, 6, 36, 74, 121, 106, 149, 152, 163, 2, 0.659459
375, 6, bw, catch, NA, 999, 999, 6, 36, 74, 121, 106, 149, 152, 163, 1, 0.575847
375, 6, bw, attraction, a-b-db, 9, 2, 6, 37, 90, 165, 165, 90, 86, 157, 1, 1.34232
375, 6, bw, attraction, a-b-db, 9, 2, 6, 37, 90, 165, 165, 90, 86, 157, 2, 0.543162
375, 6, bw, attraction, a-b-db, 9, 2, 7, 1, 165, 90, 90, 165, 86, 157, 2, 1.23096
375, 6, bw, attraction, a-b-db, 9, 2, 7, 1, 165, 90, 90, 165, 86, 157, 1, 0.452596
375, 6, bw, filler, NA, 999, 999, 7, 2, 172, 66, 166, 106, 172, 67, 2, 0.560334
375, 6, bw, filler, NA, 999, 999, 7, 2, 172, 66, 166, 106, 172, 67, 1, 0.864829
375, 6, bw, attraction, a-b-db, 9, 1, 7, 3, 60, 135, 57, 129, 135, 60, 1, 1.2438
375, 6, bw, attraction, a-b-db, 9, 1, 7, 3, 60, 135, 57, 129, 135, 60, 3, 0.520877
375, 6, bw, filler, NA, 999, 999, 7, 4, 142, 140, 111, 180, 111, 62, 2, 0.481786
375, 6, bw, filler, NA, 999, 999, 7, 4, 142, 140, 111, 180, 111, 62, 3, 0.877733
375, 6, bw, attraction, a-b-db, 14, 3, 7, 5, 195, 120, 111, 181, 120, 195, 3, 0.767996
375, 6, bw, attraction, a-b-db, 14, 3, 7, 5, 195, 120, 111, 181, 120, 195, 2, 1.00048
375, 6, bw, filler, NA, 999, 999, 7, 6, 151, 106, 65, 80, 183, 84, 1, 0.518005
375, 6, bw, filler, NA, 999, 999, 7, 6, 151, 106, 65, 80, 183, 84, 2, 0.840485
375, 6, bw, attraction, a-b-da, 5, 2, 7, 7, 90, 165, 161, 88, 165, 90, 3, 1.16421
375, 6, bw, attraction, a-b-da, 5, 2, 7, 7, 90, 165, 161, 88, 165, 90, 2, 0.700544
375, 6, bw, attraction, a-b-da, 5, 3, 7, 8, 120, 195, 190, 117, 195, 120, 1, 5.53424
375, 6, bw, attraction, a-b-da, 5, 3, 7, 8, 120, 195, 190, 117, 195, 120, 2, 0.65439
375, 6, bw, catch, NA, 999, 999, 7, 9, 62, 133, 148, 167, 147, 108, 2, 1.29811
375, 6, bw, catch, NA, 999, 999, 7, 9, 62, 133, 148, 167, 147, 108, 1, 0.973097
375, 6, bw, attraction, a-b-db, 2, 2, 7, 10, 165, 90, 89, 163, 90, 165, 1, 1.5794
375, 6, bw, attraction, a-b-db, 2, 2, 7, 10, 165, 90, 89, 163, 90, 165, 2, 0.874887
375, 6, bw, filler, NA, 999, 999, 7, 11, 180, 113, 191, 105, 73, 109, 1, 0.797179
375, 6, bw, filler, NA, 999, 999, 7, 11, 180, 113, 191, 105, 73, 109, 3, 0.532332
375, 6, bw, attraction, a-b-db, 5, 2, 7, 12, 90, 165, 165, 90, 88, 161, 1, 0.948624
375, 6, bw, attraction, a-b-db, 5, 2, 7, 12, 90, 165, 165, 90, 88, 161, 2, 0.589649
375, 6, bw, catch, NA, 999, 999, 7, 13, 89, 106, 125, 190, 104, 151, 2, 0.875505
375, 6, bw, catch, NA, 999, 999, 7, 13, 89, 106, 125, 190, 104, 151, 1, 0.471105
375, 6, bw, attraction, a-b-db, 5, 3, 7, 14, 120, 195, 195, 120, 117, 190, 1, 0.714312
375, 6, bw, attraction, a-b-db, 5, 3, 7, 14, 120, 195, 195, 120, 117, 190, 2, 0.660731
375, 6, bw, filler, NA, 999, 999, 7, 15, 148, 101, 172, 130, 161, 87, 1, 0.51968
375, 6, bw, filler, NA, 999, 999, 7, 15, 148, 101, 172, 130, 161, 87, 2, 3.14631
375, 6, bw, catch, NA, 999, 999, 7, 16, 127, 128, 70, 125, 191, 124, 3, 2.64128
375, 6, bw, catch, NA, 999, 999, 7, 16, 127, 128, 70, 125, 191, 124, 2, 0.509619
375, 6, bw, filler, NA, 999, 999, 7, 17, 109, 71, 143, 81, 180, 192, 3, 1.23081
375, 6, bw, filler, NA, 999, 999, 7, 17, 109, 71, 143, 81, 180, 192, 1, 0.892375
375, 6, bw, attraction, a-b-da, 5, 1, 7, 18, 132, 58, 60, 135, 135, 60, 2, 1.28597
375, 6, bw, attraction, a-b-da, 5, 1, 7, 18, 132, 58, 60, 135, 135, 60, 3, 0.569653
375, 6, bw, attraction, a-b-da, 9, 2, 7, 19, 165, 90, 90, 165, 157, 86, 2, 0.688654
375, 6, bw, attraction, a-b-da, 9, 2, 7, 19, 165, 90, 90, 165, 157, 86, 3, 0.651824
375, 6, bw, filler, NA, 999, 999, 7, 20, 188, 155, 160, 168, 83, 121, 2, 0.783513
375, 6, bw, filler, NA, 999, 999, 7, 20, 188, 155, 160, 168, 83, 121, 3, 0.655374
375, 6, bw, filler, NA, 999, 999, 7, 21, 121, 66, 135, 192, 128, 152, 2, 0.947033
375, 6, bw, filler, NA, 999, 999, 7, 21, 121, 66, 135, 192, 128, 152, 1, 0.724055
375, 6, bw, attraction, a-b-db, 2, 3, 7, 22, 120, 195, 195, 120, 119, 193, 1, 0.868408
375, 6, bw, attraction, a-b-db, 2, 3, 7, 22, 120, 195, 195, 120, 119, 193, 2, 0.544913
375, 6, bw, attraction, a-b-db, 5, 1, 7, 23, 135, 60, 60, 135, 58, 132, 2, 1.8326
375, 6, bw, attraction, a-b-db, 5, 1, 7, 23, 135, 60, 60, 135, 58, 132, 1, 0.757982
375, 6, bw, attraction, a-b-db, 2, 1, 7, 24, 135, 60, 59, 134, 60, 135, 2, 1.25301
375, 6, bw, attraction, a-b-db, 2, 1, 7, 24, 135, 60, 59, 134, 60, 135, 3, 2.85795
375, 6, bw, attraction, a-b-da, 14, 3, 7, 25, 181, 111, 195, 120, 120, 195, 3, 2.7883
375, 6, bw, attraction, a-b-da, 14, 3, 7, 25, 181, 111, 195, 120, 120, 195, 2, 0.810769
375, 6, bw, attraction, a-b-da, 14, 1, 7, 26, 125, 56, 135, 60, 60, 135, 2, 0.791708
375, 6, bw, attraction, a-b-da, 14, 1, 7, 26, 125, 56, 135, 60, 60, 135, 1, 0.654781
375, 6, bw, filler, NA, 999, 999, 7, 27, 149, 170, 140, 148, 191, 86, 2, 0.562603
375, 6, bw, filler, NA, 999, 999, 7, 27, 149, 170, 140, 148, 191, 86, 3, 0.603018
375, 6, bw, attraction, a-b-da, 9, 3, 7, 28, 195, 120, 186, 114, 120, 195, 3, 0.784758
375, 6, bw, attraction, a-b-da, 9, 3, 7, 28, 195, 120, 186, 114, 120, 195, 2, 0.904536
375, 6, bw, attraction, a-b-db, 14, 2, 7, 29, 90, 165, 165, 90, 83, 153, 2, 0.65016
375, 6, bw, attraction, a-b-db, 14, 2, 7, 29, 90, 165, 165, 90, 83, 153, 3, 0.75926
375, 6, bw, attraction, a-b-db, 14, 1, 7, 30, 60, 135, 135, 60, 56, 125, 1, 0.670276
375, 6, bw, attraction, a-b-db, 14, 1, 7, 30, 60, 135, 135, 60, 56, 125, 3, 1.05073
375, 6, bw, attraction, a-b-db, 9, 3, 7, 31, 120, 195, 195, 120, 114, 186, 3, 1.03035
375, 6, bw, attraction, a-b-db, 9, 3, 7, 31, 120, 195, 195, 120, 114, 186, 2, 0.404098
375, 6, bw, attraction, a-b-da, 9, 1, 7, 32, 135, 60, 60, 135, 129, 57, 2, 0.70588
375, 6, bw, attraction, a-b-da, 9, 1, 7, 32, 135, 60, 60, 135, 129, 57, 1, 0.644291
375, 6, bw, filler, NA, 999, 999, 7, 33, 142, 182, 107, 112, 113, 195, 1, 1.12796
375, 6, bw, filler, NA, 999, 999, 7, 33, 142, 182, 107, 112, 113, 195, 2, 0.625582
375, 6, bw, attraction, a-b-da, 2, 3, 7, 34, 193, 119, 195, 120, 120, 195, 3, 1.30996
375, 6, bw, attraction, a-b-da, 2, 3, 7, 34, 193, 119, 195, 120, 120, 195, 2, 0.664232
375, 6, bw, attraction, a-b-da, 2, 1, 7, 35, 60, 135, 135, 60, 134, 59, 1, 0.707189
375, 6, bw, attraction, a-b-da, 2, 1, 7, 35, 60, 135, 135, 60, 134, 59, 3, 1.31765
375, 6, bw, attraction, a-b-da, 2, 2, 7, 36, 163, 89, 165, 90, 90, 165, 3, 1.36658
375, 6, bw, attraction, a-b-da, 2, 2, 7, 36, 163, 89, 165, 90, 90, 165, 2, 0.518794
375, 6, bw, attraction, a-b-da, 14, 2, 7, 37, 165, 90, 90, 165, 153, 83, 2, 3.6799
375, 6, bw, attraction, a-b-da, 14, 2, 7, 37, 165, 90, 90, 165, 153, 83, 3, 0.754702
375, 6, bw, attraction, a-b-db, 9, 3, 8, 1, 114, 186, 195, 120, 120, 195, 3, 0.674496
375, 6, bw, attraction, a-b-db, 9, 3, 8, 1, 114, 186, 195, 120, 120, 195, 2, 0.566226
375, 6, bw, attraction, a-b-db, 2, 2, 8, 2, 165, 90, 89, 163, 90, 165, 2, 1.47726
375, 6, bw, attraction, a-b-db, 2, 2, 8, 2, 165, 90, 89, 163, 90, 165, 1, 0.432797
375, 6, bw, attraction, a-b-da, 14, 2, 8, 3, 153, 83, 165, 90, 90, 165, 3, 0.701299
375, 6, bw, attraction, a-b-da, 14, 2, 8, 3, 153, 83, 165, 90, 90, 165, 1, 0.584519
375, 6, bw, catch, NA, 999, 999, 8, 4, 76, 119, 123, 132, 144, 171, 3, 0.766865
375, 6, bw, catch, NA, 999, 999, 8, 4, 76, 119, 123, 132, 144, 171, 1, 0.575157
375, 6, bw, catch, NA, 999, 999, 8, 5, 133, 122, 68, 127, 177, 138, 3, 0.77374
375, 6, bw, catch, NA, 999, 999, 8, 5, 133, 122, 68, 127, 177, 138, 2, 0.58947
375, 6, bw, catch, NA, 999, 999, 8, 6, 191, 124, 143, 112, 80, 115, 1, 0.531028
375, 6, bw, catch, NA, 999, 999, 8, 6, 191, 124, 143, 112, 80, 115, 3, 0.540994
375, 6, bw, attraction, a-b-db, 9, 2, 8, 7, 86, 157, 90, 165, 165, 90, 3, 1.27675
375, 6, bw, attraction, a-b-db, 9, 2, 8, 7, 86, 157, 90, 165, 165, 90, 1, 0.616311
375, 6, bw, filler, NA, 999, 999, 8, 8, 165, 155, 173, 154, 106, 155, 2, 0.901348
375, 6, bw, filler, NA, 999, 999, 8, 8, 165, 155, 173, 154, 106, 155, 3, 0.472488
375, 6, bw, filler, NA, 999, 999, 8, 9, 190, 166, 193, 92, 60, 172, 1, 0.875445
375, 6, bw, filler, NA, 999, 999, 8, 9, 190, 166, 193, 92, 60, 172, 3, 0.391251
375, 6, bw, filler, NA, 999, 999, 8, 10, 72, 181, 125, 69, 85, 57, 1, 0.748963
375, 6, bw, filler, NA, 999, 999, 8, 10, 72, 181, 125, 69, 85, 57, 3, 0.43807
375, 6, bw, attraction, a-b-db, 14, 3, 8, 11, 120, 195, 111, 181, 195, 120, 3, 0.698602
375, 6, bw, attraction, a-b-db, 14, 3, 8, 11, 120, 195, 111, 181, 195, 120, 2, 0.501708
375, 6, bw, filler, NA, 999, 999, 8, 12, 164, 107, 193, 92, 78, 135, 1, 0.495403
375, 6, bw, filler, NA, 999, 999, 8, 12, 164, 107, 193, 92, 78, 135, 3, 0.378602
375, 6, bw, attraction, a-b-db, 14, 2, 8, 13, 90, 165, 83, 153, 165, 90, 1, 1.20908
375, 6, bw, attraction, a-b-db, 14, 2, 8, 13, 90, 165, 83, 153, 165, 90, 2, 0.375422
375, 6, bw, attraction, a-b-db, 14, 1, 8, 14, 56, 125, 135, 60, 60, 135, 2, 1.1018
375, 6, bw, attraction, a-b-db, 14, 1, 8, 14, 56, 125, 135, 60, 60, 135, 1, 0.432746
375, 6, bw, attraction, a-b-da, 14, 3, 8, 15, 195, 120, 181, 111, 120, 195, 3, 1.10934
375, 6, bw, attraction, a-b-da, 14, 3, 8, 15, 195, 120, 181, 111, 120, 195, 1, 2.48762
375, 6, bw, attraction, a-b-db, 5, 2, 8, 16, 88, 161, 165, 90, 90, 165, 3, 2.14537
375, 6, bw, attraction, a-b-db, 5, 2, 8, 16, 88, 161, 165, 90, 90, 165, 2, 1.59399
375, 6, bw, attraction, a-b-db, 9, 1, 8, 17, 60, 135, 57, 129, 135, 60, 1, 1.28743
375, 6, bw, attraction, a-b-db, 9, 1, 8, 17, 60, 135, 57, 129, 135, 60, 3, 0.89833
375, 6, bw, attraction, a-b-da, 9, 3, 8, 18, 120, 195, 186, 114, 195, 120, 1, 0.780081
375, 6, bw, attraction, a-b-da, 9, 3, 8, 18, 120, 195, 186, 114, 195, 120, 2, 0.41175
375, 6, bw, attraction, a-b-db, 2, 1, 8, 19, 60, 135, 59, 134, 135, 60, 1, 0.704826
375, 6, bw, attraction, a-b-db, 2, 1, 8, 19, 60, 135, 59, 134, 135, 60, 3, 0.883295
375, 6, bw, attraction, a-b-da, 2, 3, 8, 20, 195, 120, 120, 195, 193, 119, 1, 0.637681
375, 6, bw, attraction, a-b-da, 2, 3, 8, 20, 195, 120, 120, 195, 193, 119, 2, 0.370686
375, 6, bw, filler, NA, 999, 999, 8, 21, 165, 195, 191, 185, 84, 133, 1, 0.681825
375, 6, bw, filler, NA, 999, 999, 8, 21, 165, 195, 191, 185, 84, 133, 3, 0.501679
375, 6, bw, filler, NA, 999, 999, 8, 22, 154, 178, 56, 130, 169, 106, 1, 0.799419
375, 6, bw, filler, NA, 999, 999, 8, 22, 154, 178, 56, 130, 169, 106, 2, 0.390566
375, 6, bw, filler, NA, 999, 999, 8, 23, 97, 195, 173, 116, 84, 151, 2, 0.828268
375, 6, bw, filler, NA, 999, 999, 8, 23, 97, 195, 173, 116, 84, 151, 3, 0.410114
375, 6, bw, attraction, a-b-da, 9, 2, 8, 24, 90, 165, 165, 90, 157, 86, 1, 1.0231
375, 6, bw, attraction, a-b-da, 9, 2, 8, 24, 90, 165, 165, 90, 157, 86, 3, 0.492807
375, 6, bw, filler, NA, 999, 999, 8, 25, 133, 188, 62, 116, 167, 135, 1, 0.550689
375, 6, bw, filler, NA, 999, 999, 8, 25, 133, 188, 62, 116, 167, 135, 2, 0.399688
375, 6, bw, attraction, a-b-da, 9, 1, 8, 26, 60, 135, 135, 60, 129, 57, 1, 0.853643
375, 6, bw, attraction, a-b-da, 9, 1, 8, 26, 60, 135, 135, 60, 129, 57, 3, 0.425976
375, 6, bw, attraction, a-b-db, 5, 3, 8, 27, 120, 195, 117, 190, 195, 120, 1, 1.67045
375, 6, bw, attraction, a-b-db, 5, 3, 8, 27, 120, 195, 117, 190, 195, 120, 2, 0.386481
375, 6, bw, attraction, a-b-da, 2, 2, 8, 28, 90, 165, 163, 89, 165, 90, 1, 0.864987
375, 6, bw, attraction, a-b-da, 2, 2, 8, 28, 90, 165, 163, 89, 165, 90, 2, 1.62947
375, 6, bw, attraction, a-b-da, 2, 1, 8, 29, 60, 135, 135, 60, 134, 59, 1, 0.881534
375, 6, bw, attraction, a-b-da, 2, 1, 8, 29, 60, 135, 135, 60, 134, 59, 2, 1.02122
375, 6, bw, attraction, a-b-da, 5, 3, 8, 30, 190, 117, 120, 195, 195, 120, 3, 2.96226
375, 6, bw, attraction, a-b-da, 5, 3, 8, 30, 190, 117, 120, 195, 195, 120, 2, 0.897956
375, 6, bw, filler, NA, 999, 999, 8, 31, 139, 153, 107, 117, 170, 126, 1, 0.643632
375, 6, bw, filler, NA, 999, 999, 8, 31, 139, 153, 107, 117, 170, 126, 2, 0.336758
375, 6, bw, attraction, a-b-da, 5, 1, 8, 32, 135, 60, 60, 135, 132, 58, 1, 0.569104
375, 6, bw, attraction, a-b-da, 5, 1, 8, 32, 135, 60, 60, 135, 132, 58, 2, 0.425582
375, 6, bw, attraction, a-b-db, 2, 3, 8, 33, 195, 120, 119, 193, 120, 195, 3, 0.958058
375, 6, bw, attraction, a-b-db, 2, 3, 8, 33, 195, 120, 119, 193, 120, 195, 1, 2.29443
375, 6, bw, attraction, a-b-db, 5, 1, 8, 34, 135, 60, 58, 132, 60, 135, 2, 1.30362
375, 6, bw, attraction, a-b-db, 5, 1, 8, 34, 135, 60, 58, 132, 60, 135, 1, 0.65057
375, 6, bw, filler, NA, 999, 999, 8, 35, 178, 125, 159, 154, 118, 99, 2, 0.41424
375, 6, bw, filler, NA, 999, 999, 8, 35, 178, 125, 159, 154, 118, 99, 3, 0.732787
375, 6, bw, attraction, a-b-da, 14, 1, 8, 36, 60, 135, 135, 60, 125, 56, 1, 0.629071
375, 6, bw, attraction, a-b-da, 14, 1, 8, 36, 60, 135, 135, 60, 125, 56, 2, 0.386894
375, 6, bw, attraction, a-b-da, 5, 2, 8, 37, 165, 90, 90, 165, 161, 88, 2, 0.7614
375, 6, bw, attraction, a-b-da, 5, 2, 8, 37, 165, 90, 90, 165, 161, 88, 1, 0.777793
