sub_n, computer_n, bw_cond, effect, set, distance, diag, block_n, trial_n, h1, w1, h2, w2, h3, w3, choice, rt 
319, 6, bw, practice, NA, 999, 999, 0, 1, 119, 184, 140, 195, 59, 113, 2, 2.98782
319, 6, bw, practice, NA, 999, 999, 0, 1, 119, 184, 140, 195, 59, 113, 3, 2.19666
319, 6, bw, practice, NA, 999, 999, 0, 2, 147, 129, 185, 144, 83, 101, 2, 3.861
319, 6, bw, practice, NA, 999, 999, 0, 2, 147, 129, 185, 144, 83, 101, 3, 1.51416
319, 6, bw, practice, NA, 999, 999, 0, 3, 93, 186, 195, 116, 103, 72, 2, 2.35689
319, 6, bw, practice, NA, 999, 999, 0, 3, 93, 186, 195, 116, 103, 72, 3, 1.2309
319, 6, bw, filler, NA, 999, 999, 1, 1, 189, 58, 63, 107, 187, 193, 3, 2.01851
319, 6, bw, filler, NA, 999, 999, 1, 1, 189, 58, 63, 107, 187, 193, 2, 5.15261
319, 6, bw, attraction, a-b-da, 2, 1, 1, 2, 60, 135, 135, 60, 134, 59, 1, 7.09496
319, 6, bw, attraction, a-b-da, 2, 1, 1, 2, 60, 135, 135, 60, 134, 59, 3, 0.512042
319, 6, bw, filler, NA, 999, 999, 1, 3, 108, 140, 104, 124, 193, 70, 1, 8.81708
319, 6, bw, filler, NA, 999, 999, 1, 3, 108, 140, 104, 124, 193, 70, 2, 2.10094
319, 6, bw, attraction, a-b-db, 5, 2, 1, 4, 90, 165, 165, 90, 88, 161, 1, 5.79819
319, 6, bw, attraction, a-b-db, 5, 2, 1, 4, 90, 165, 165, 90, 88, 161, 2, 0.43568
319, 6, bw, filler, NA, 999, 999, 1, 5, 175, 156, 183, 191, 105, 193, 2, 1.97615
319, 6, bw, filler, NA, 999, 999, 1, 5, 175, 156, 183, 191, 105, 193, 3, 11.7035
319, 6, bw, filler, NA, 999, 999, 1, 6, 147, 107, 116, 101, 170, 191, 3, 2.52588
319, 6, bw, filler, NA, 999, 999, 1, 6, 147, 107, 116, 101, 170, 191, 2, 0.687092
319, 6, bw, filler, NA, 999, 999, 1, 7, 191, 130, 100, 104, 146, 97, 1, 1.88135
319, 6, bw, filler, NA, 999, 999, 1, 7, 191, 130, 100, 104, 146, 97, 3, 5.52501
319, 6, bw, attraction, a-b-db, 9, 2, 1, 8, 90, 165, 86, 157, 165, 90, 1, 6.78763
319, 6, bw, attraction, a-b-db, 9, 2, 1, 8, 90, 165, 86, 157, 165, 90, 3, 2.08958
319, 6, bw, attraction, a-b-da, 9, 1, 1, 9, 60, 135, 135, 60, 129, 57, 1, 2.57947
319, 6, bw, attraction, a-b-da, 9, 1, 1, 9, 60, 135, 135, 60, 129, 57, 3, 1.01079
319, 6, bw, catch, NA, 999, 999, 1, 10, 144, 111, 178, 137, 126, 69, 2, 1.33569
319, 6, bw, catch, NA, 999, 999, 1, 10, 144, 111, 178, 137, 126, 69, 3, 1.08918
319, 6, bw, filler, NA, 999, 999, 1, 11, 176, 66, 173, 113, 96, 58, 2, 1.4994
319, 6, bw, filler, NA, 999, 999, 1, 11, 176, 66, 173, 113, 96, 58, 3, 0.654343
319, 6, bw, attraction, a-b-db, 14, 2, 1, 12, 83, 153, 90, 165, 165, 90, 2, 3.87404
319, 6, bw, attraction, a-b-db, 14, 2, 1, 12, 83, 153, 90, 165, 165, 90, 3, 1.64479
319, 6, bw, attraction, a-b-da, 5, 3, 1, 13, 190, 117, 120, 195, 195, 120, 2, 10.7122
319, 6, bw, attraction, a-b-da, 5, 3, 1, 13, 190, 117, 120, 195, 195, 120, 1, 1.68752
319, 6, bw, attraction, a-b-da, 5, 2, 1, 14, 90, 165, 161, 88, 165, 90, 1, 1.97751
319, 6, bw, attraction, a-b-da, 5, 2, 1, 14, 90, 165, 161, 88, 165, 90, 3, 0.824982
319, 6, bw, attraction, a-b-da, 2, 2, 1, 15, 163, 89, 165, 90, 90, 165, 3, 4.47728
319, 6, bw, attraction, a-b-da, 2, 2, 1, 15, 163, 89, 165, 90, 90, 165, 1, 0.743935
319, 6, bw, attraction, a-b-da, 9, 3, 1, 16, 195, 120, 120, 195, 186, 114, 2, 3.25553
319, 6, bw, attraction, a-b-da, 9, 3, 1, 16, 195, 120, 120, 195, 186, 114, 3, 0.747242
319, 6, bw, attraction, a-b-db, 2, 2, 1, 17, 165, 90, 89, 163, 90, 165, 2, 18.3229
319, 6, bw, attraction, a-b-db, 2, 2, 1, 17, 165, 90, 89, 163, 90, 165, 1, 0.61578
319, 6, bw, attraction, a-b-db, 14, 3, 1, 18, 120, 195, 195, 120, 111, 181, 1, 2.66884
319, 6, bw, attraction, a-b-db, 14, 3, 1, 18, 120, 195, 195, 120, 111, 181, 3, 0.400651
319, 6, bw, filler, NA, 999, 999, 1, 19, 169, 167, 121, 183, 80, 104, 2, 2.51848
319, 6, bw, filler, NA, 999, 999, 1, 19, 169, 167, 121, 183, 80, 104, 3, 1.16051
319, 6, bw, attraction, a-b-db, 5, 1, 1, 20, 58, 132, 60, 135, 135, 60, 2, 4.43145
319, 6, bw, attraction, a-b-db, 5, 1, 1, 20, 58, 132, 60, 135, 135, 60, 1, 1.85181
319, 6, bw, attraction, a-b-da, 14, 3, 1, 21, 120, 195, 195, 120, 181, 111, 2, 5.01516
319, 6, bw, attraction, a-b-da, 14, 3, 1, 21, 120, 195, 195, 120, 181, 111, 3, 0.868399
319, 6, bw, attraction, a-b-db, 5, 3, 1, 22, 117, 190, 120, 195, 195, 120, 2, 4.19929
319, 6, bw, attraction, a-b-db, 5, 3, 1, 22, 117, 190, 120, 195, 195, 120, 1, 1.9893
319, 6, bw, attraction, a-b-da, 14, 2, 1, 23, 90, 165, 165, 90, 153, 83, 2, 2.33129
319, 6, bw, attraction, a-b-da, 14, 2, 1, 23, 90, 165, 165, 90, 153, 83, 3, 0.356651
319, 6, bw, attraction, a-b-da, 5, 1, 1, 24, 60, 135, 132, 58, 135, 60, 2, 4.10768
319, 6, bw, attraction, a-b-da, 5, 1, 1, 24, 60, 135, 132, 58, 135, 60, 3, 1.30108
319, 6, bw, filler, NA, 999, 999, 1, 25, 95, 191, 135, 97, 194, 110, 3, 2.99057
319, 6, bw, filler, NA, 999, 999, 1, 25, 95, 191, 135, 97, 194, 110, 2, 0.628961
319, 6, bw, attraction, a-b-db, 2, 3, 1, 26, 119, 193, 195, 120, 120, 195, 2, 3.36945
319, 6, bw, attraction, a-b-db, 2, 3, 1, 26, 119, 193, 195, 120, 120, 195, 3, 0.312939
319, 6, bw, attraction, a-b-da, 14, 1, 1, 27, 125, 56, 60, 135, 135, 60, 2, 1.89809
319, 6, bw, attraction, a-b-da, 14, 1, 1, 27, 125, 56, 60, 135, 135, 60, 1, 0.35684
319, 6, bw, attraction, a-b-db, 9, 1, 1, 28, 135, 60, 57, 129, 60, 135, 3, 5.73202
319, 6, bw, attraction, a-b-db, 9, 1, 1, 28, 135, 60, 57, 129, 60, 135, 2, 0.356116
319, 6, bw, attraction, a-b-db, 2, 1, 1, 29, 59, 134, 60, 135, 135, 60, 2, 3.31602
319, 6, bw, attraction, a-b-db, 2, 1, 1, 29, 59, 134, 60, 135, 135, 60, 3, 0.373846
319, 6, bw, catch, NA, 999, 999, 1, 30, 115, 140, 128, 187, 61, 134, 2, 2.55603
319, 6, bw, catch, NA, 999, 999, 1, 30, 115, 140, 128, 187, 61, 134, 3, 0.428077
319, 6, bw, attraction, a-b-db, 14, 1, 1, 31, 60, 135, 135, 60, 56, 125, 1, 1.88039
319, 6, bw, attraction, a-b-db, 14, 1, 1, 31, 60, 135, 135, 60, 56, 125, 3, 0.595803
319, 6, bw, filler, NA, 999, 999, 1, 32, 188, 177, 68, 187, 142, 101, 1, 0.921595
319, 6, bw, filler, NA, 999, 999, 1, 32, 188, 177, 68, 187, 142, 101, 3, 5.71528
319, 6, bw, attraction, a-b-da, 2, 3, 1, 33, 193, 119, 120, 195, 195, 120, 2, 3.84289
319, 6, bw, attraction, a-b-da, 2, 3, 1, 33, 193, 119, 120, 195, 195, 120, 1, 1.39081
319, 6, bw, attraction, a-b-da, 9, 2, 1, 34, 90, 165, 165, 90, 157, 86, 2, 1.66834
319, 6, bw, attraction, a-b-da, 9, 2, 1, 34, 90, 165, 165, 90, 157, 86, 3, 0.34444
319, 6, bw, attraction, a-b-db, 9, 3, 1, 35, 114, 186, 120, 195, 195, 120, 2, 3.58428
319, 6, bw, attraction, a-b-db, 9, 3, 1, 35, 114, 186, 120, 195, 195, 120, 1, 0.959223
319, 6, bw, catch, NA, 999, 999, 1, 36, 115, 140, 128, 187, 66, 129, 2, 1.49411
319, 6, bw, catch, NA, 999, 999, 1, 36, 115, 140, 128, 187, 66, 129, 3, 4.97705
319, 6, bw, filler, NA, 999, 999, 1, 37, 100, 106, 107, 84, 132, 190, 3, 1.10202
319, 6, bw, filler, NA, 999, 999, 1, 37, 100, 106, 107, 84, 132, 190, 2, 1.64902
319, 6, bw, catch, NA, 999, 999, 2, 1, 138, 117, 126, 69, 153, 162, 1, 2.01235
319, 6, bw, catch, NA, 999, 999, 2, 1, 138, 117, 126, 69, 153, 162, 2, 0.322383
319, 6, bw, filler, NA, 999, 999, 2, 2, 166, 181, 168, 104, 102, 74, 2, 2.04363
319, 6, bw, filler, NA, 999, 999, 2, 2, 166, 181, 168, 104, 102, 74, 3, 0.392232
319, 6, bw, attraction, a-b-db, 14, 3, 2, 3, 195, 120, 120, 195, 111, 181, 2, 6.88617
319, 6, bw, attraction, a-b-db, 14, 3, 2, 3, 195, 120, 120, 195, 111, 181, 3, 0.375939
319, 6, bw, filler, NA, 999, 999, 2, 4, 104, 183, 163, 85, 153, 139, 3, 4.38248
319, 6, bw, filler, NA, 999, 999, 2, 4, 104, 183, 163, 85, 153, 139, 2, 0.269076
319, 6, bw, attraction, a-b-db, 14, 2, 2, 5, 90, 165, 165, 90, 83, 153, 1, 3.97626
319, 6, bw, attraction, a-b-db, 14, 2, 2, 5, 90, 165, 165, 90, 83, 153, 3, 0.366936
319, 6, bw, filler, NA, 999, 999, 2, 6, 102, 165, 179, 160, 114, 121, 2, 1.15018
319, 6, bw, filler, NA, 999, 999, 2, 6, 102, 165, 179, 160, 114, 121, 1, 0.679092
319, 6, bw, attraction, a-b-da, 5, 1, 2, 7, 60, 135, 132, 58, 135, 60, 2, 4.76942
319, 6, bw, attraction, a-b-da, 5, 1, 2, 7, 60, 135, 132, 58, 135, 60, 3, 1.92855
319, 6, bw, filler, NA, 999, 999, 2, 8, 148, 152, 153, 147, 91, 94, 2, 7.65656
319, 6, bw, filler, NA, 999, 999, 2, 8, 148, 152, 153, 147, 91, 94, 3, 0.410799
319, 6, bw, attraction, a-b-da, 2, 3, 2, 9, 195, 120, 120, 195, 193, 119, 2, 2.80794
319, 6, bw, attraction, a-b-da, 2, 3, 2, 9, 195, 120, 120, 195, 193, 119, 3, 0.349785
319, 6, bw, attraction, a-b-db, 9, 3, 2, 10, 114, 186, 120, 195, 195, 120, 2, 1.57352
319, 6, bw, attraction, a-b-db, 9, 3, 2, 10, 114, 186, 120, 195, 195, 120, 3, 0.829113
319, 6, bw, attraction, a-b-db, 2, 3, 2, 11, 195, 120, 119, 193, 120, 195, 2, 3.37751
319, 6, bw, attraction, a-b-db, 2, 3, 2, 11, 195, 120, 119, 193, 120, 195, 1, 1.80029
319, 6, bw, filler, NA, 999, 999, 2, 12, 89, 85, 100, 144, 88, 102, 2, 2.28568
319, 6, bw, filler, NA, 999, 999, 2, 12, 89, 85, 100, 144, 88, 102, 1, 4.3371
319, 6, bw, attraction, a-b-db, 9, 2, 2, 13, 86, 157, 165, 90, 90, 165, 3, 1.61626
319, 6, bw, attraction, a-b-db, 9, 2, 2, 13, 86, 157, 165, 90, 90, 165, 1, 0.598336
319, 6, bw, attraction, a-b-da, 2, 2, 2, 14, 90, 165, 165, 90, 163, 89, 1, 2.58824
319, 6, bw, attraction, a-b-da, 2, 2, 2, 14, 90, 165, 165, 90, 163, 89, 3, 0.482572
319, 6, bw, attraction, a-b-da, 9, 3, 2, 15, 120, 195, 195, 120, 186, 114, 1, 1.39703
319, 6, bw, attraction, a-b-da, 9, 3, 2, 15, 120, 195, 195, 120, 186, 114, 3, 0.483861
319, 6, bw, attraction, a-b-db, 5, 1, 2, 16, 60, 135, 135, 60, 58, 132, 3, 2.40638
319, 6, bw, attraction, a-b-db, 5, 1, 2, 16, 60, 135, 135, 60, 58, 132, 1, 0.460307
319, 6, bw, filler, NA, 999, 999, 2, 17, 95, 75, 99, 190, 161, 180, 3, 2.52742
319, 6, bw, filler, NA, 999, 999, 2, 17, 95, 75, 99, 190, 161, 180, 1, 0.544535
319, 6, bw, attraction, a-b-db, 5, 3, 2, 18, 117, 190, 120, 195, 195, 120, 1, 1.8644
319, 6, bw, attraction, a-b-db, 5, 3, 2, 18, 117, 190, 120, 195, 195, 120, 3, 0.436421
319, 6, bw, attraction, a-b-da, 14, 1, 2, 19, 135, 60, 60, 135, 125, 56, 2, 7.36087
319, 6, bw, attraction, a-b-da, 14, 1, 2, 19, 135, 60, 60, 135, 125, 56, 3, 0.743242
319, 6, bw, filler, NA, 999, 999, 2, 20, 173, 193, 125, 108, 132, 158, 1, 2.13484
319, 6, bw, filler, NA, 999, 999, 2, 20, 173, 193, 125, 108, 132, 158, 2, 0.5443
319, 6, bw, filler, NA, 999, 999, 2, 21, 165, 77, 162, 184, 76, 120, 2, 1.24804
319, 6, bw, filler, NA, 999, 999, 2, 21, 165, 77, 162, 184, 76, 120, 3, 0.676985
319, 6, bw, attraction, a-b-da, 14, 3, 2, 22, 195, 120, 181, 111, 120, 195, 3, 1.71142
319, 6, bw, attraction, a-b-da, 14, 3, 2, 22, 195, 120, 181, 111, 120, 195, 2, 0.305379
319, 6, bw, attraction, a-b-db, 2, 1, 2, 23, 135, 60, 60, 135, 59, 134, 2, 7.26729
319, 6, bw, attraction, a-b-db, 2, 1, 2, 23, 135, 60, 60, 135, 59, 134, 1, 0.405566
319, 6, bw, attraction, a-b-da, 9, 1, 2, 24, 129, 57, 135, 60, 60, 135, 2, 1.49945
319, 6, bw, attraction, a-b-da, 9, 1, 2, 24, 129, 57, 135, 60, 60, 135, 1, 0.83827
319, 6, bw, attraction, a-b-da, 14, 2, 2, 25, 90, 165, 165, 90, 153, 83, 2, 1.70667
319, 6, bw, attraction, a-b-da, 14, 2, 2, 25, 90, 165, 165, 90, 153, 83, 3, 0.45286
319, 6, bw, catch, NA, 999, 999, 2, 26, 88, 107, 161, 154, 126, 129, 2, 1.97656
319, 6, bw, catch, NA, 999, 999, 2, 26, 88, 107, 161, 154, 126, 129, 1, 0.431839
319, 6, bw, attraction, a-b-db, 9, 1, 2, 27, 135, 60, 57, 129, 60, 135, 2, 3.13233
319, 6, bw, attraction, a-b-db, 9, 1, 2, 27, 135, 60, 57, 129, 60, 135, 3, 0.461374
319, 6, bw, attraction, a-b-db, 2, 2, 2, 28, 89, 163, 90, 165, 165, 90, 2, 4.4085
319, 6, bw, attraction, a-b-db, 2, 2, 2, 28, 89, 163, 90, 165, 165, 90, 3, 0.429756
319, 6, bw, attraction, a-b-da, 5, 3, 2, 29, 190, 117, 120, 195, 195, 120, 2, 2.48232
319, 6, bw, attraction, a-b-da, 5, 3, 2, 29, 190, 117, 120, 195, 195, 120, 3, 0.293516
319, 6, bw, attraction, a-b-db, 5, 2, 2, 30, 165, 90, 88, 161, 90, 165, 2, 3.41534
319, 6, bw, attraction, a-b-db, 5, 2, 2, 30, 165, 90, 88, 161, 90, 165, 1, 0.372874
319, 6, bw, attraction, a-b-db, 14, 1, 2, 31, 56, 125, 60, 135, 135, 60, 2, 2.22733
319, 6, bw, attraction, a-b-db, 14, 1, 2, 31, 56, 125, 60, 135, 135, 60, 1, 0.504571
319, 6, bw, catch, NA, 999, 999, 2, 32, 193, 122, 162, 93, 98, 97, 1, 1.80237
319, 6, bw, catch, NA, 999, 999, 2, 32, 193, 122, 162, 93, 98, 97, 2, 0.321073
319, 6, bw, filler, NA, 999, 999, 2, 33, 97, 70, 131, 93, 84, 161, 3, 2.09836
319, 6, bw, filler, NA, 999, 999, 2, 33, 97, 70, 131, 93, 84, 161, 2, 0.517026
319, 6, bw, attraction, a-b-da, 2, 1, 2, 34, 135, 60, 60, 135, 134, 59, 2, 1.27808
319, 6, bw, attraction, a-b-da, 2, 1, 2, 34, 135, 60, 60, 135, 134, 59, 1, 1.78567
319, 6, bw, attraction, a-b-da, 5, 2, 2, 35, 165, 90, 90, 165, 161, 88, 2, 4.68774
319, 6, bw, attraction, a-b-da, 5, 2, 2, 35, 165, 90, 90, 165, 161, 88, 3, 0.36157
319, 6, bw, attraction, a-b-da, 9, 2, 2, 36, 90, 165, 157, 86, 165, 90, 3, 2.26477
319, 6, bw, attraction, a-b-da, 9, 2, 2, 36, 90, 165, 157, 86, 165, 90, 2, 0.284584
319, 6, bw, filler, NA, 999, 999, 2, 37, 86, 119, 153, 183, 139, 67, 2, 0.871192
319, 6, bw, filler, NA, 999, 999, 2, 37, 86, 119, 153, 183, 139, 67, 3, 1.08286
319, 6, bw, attraction, a-b-da, 5, 2, 3, 1, 165, 90, 90, 165, 161, 88, 2, 1.13312
319, 6, bw, attraction, a-b-da, 5, 2, 3, 1, 165, 90, 90, 165, 161, 88, 3, 0.414759
319, 6, bw, filler, NA, 999, 999, 3, 2, 75, 84, 171, 110, 69, 173, 2, 0.923905
319, 6, bw, filler, NA, 999, 999, 3, 2, 75, 84, 171, 110, 69, 173, 1, 0.365559
319, 6, bw, filler, NA, 999, 999, 3, 3, 112, 118, 164, 112, 132, 84, 2, 1.34873
319, 6, bw, filler, NA, 999, 999, 3, 3, 112, 118, 164, 112, 132, 84, 3, 0.309648
319, 6, bw, attraction, a-b-db, 5, 3, 3, 4, 195, 120, 120, 195, 117, 190, 2, 3.06282
319, 6, bw, attraction, a-b-db, 5, 3, 3, 4, 195, 120, 120, 195, 117, 190, 1, 2.45051
319, 6, bw, attraction, a-b-db, 9, 1, 3, 5, 60, 135, 135, 60, 57, 129, 2, 1.75769
319, 6, bw, attraction, a-b-db, 9, 1, 3, 5, 60, 135, 135, 60, 57, 129, 3, 0.357744
319, 6, bw, catch, NA, 999, 999, 3, 6, 99, 156, 142, 173, 111, 84, 2, 1.14899
319, 6, bw, catch, NA, 999, 999, 3, 6, 99, 156, 142, 173, 111, 84, 3, 0.437822
319, 6, bw, attraction, a-b-db, 9, 3, 3, 7, 195, 120, 120, 195, 114, 186, 2, 1.77036
319, 6, bw, attraction, a-b-db, 9, 3, 3, 7, 195, 120, 120, 195, 114, 186, 1, 0.458439
319, 6, bw, filler, NA, 999, 999, 3, 8, 71, 176, 91, 123, 179, 114, 3, 1.06158
319, 6, bw, filler, NA, 999, 999, 3, 8, 71, 176, 91, 123, 179, 114, 1, 1.92988
319, 6, bw, filler, NA, 999, 999, 3, 9, 57, 93, 56, 131, 164, 132, 3, 1.05783
319, 6, bw, filler, NA, 999, 999, 3, 9, 57, 93, 56, 131, 164, 132, 1, 1.46229
319, 6, bw, attraction, a-b-da, 9, 3, 3, 10, 186, 114, 120, 195, 195, 120, 2, 0.904942
319, 6, bw, attraction, a-b-da, 9, 3, 3, 10, 186, 114, 120, 195, 195, 120, 1, 0.643481
319, 6, bw, filler, NA, 999, 999, 3, 11, 105, 103, 124, 105, 99, 182, 3, 4.54336
319, 6, bw, filler, NA, 999, 999, 3, 11, 105, 103, 124, 105, 99, 182, 2, 0.318954
319, 6, bw, attraction, a-b-db, 5, 2, 3, 12, 88, 161, 165, 90, 90, 165, 2, 4.3602
319, 6, bw, attraction, a-b-db, 5, 2, 3, 12, 88, 161, 165, 90, 90, 165, 1, 0.543388
319, 6, bw, attraction, a-b-da, 2, 3, 3, 13, 120, 195, 193, 119, 195, 120, 1, 3.40737
319, 6, bw, attraction, a-b-da, 2, 3, 3, 13, 120, 195, 193, 119, 195, 120, 3, 0.420737
319, 6, bw, attraction, a-b-db, 2, 2, 3, 14, 90, 165, 89, 163, 165, 90, 2, 7.23392
319, 6, bw, attraction, a-b-db, 2, 2, 3, 14, 90, 165, 89, 163, 165, 90, 3, 0.549731
319, 6, bw, attraction, a-b-db, 14, 2, 3, 15, 165, 90, 83, 153, 90, 165, 3, 1.77334
319, 6, bw, attraction, a-b-db, 14, 2, 3, 15, 165, 90, 83, 153, 90, 165, 1, 0.412798
319, 6, bw, attraction, a-b-da, 9, 1, 3, 16, 135, 60, 129, 57, 60, 135, 3, 4.13798
319, 6, bw, attraction, a-b-da, 9, 1, 3, 16, 135, 60, 129, 57, 60, 135, 1, 0.37063
319, 6, bw, catch, NA, 999, 999, 3, 17, 140, 115, 177, 138, 95, 100, 2, 0.665762
319, 6, bw, catch, NA, 999, 999, 3, 17, 140, 115, 177, 138, 95, 100, 3, 0.31823
319, 6, bw, attraction, a-b-db, 9, 2, 3, 18, 90, 165, 86, 157, 165, 90, 2, 2.23146
319, 6, bw, attraction, a-b-db, 9, 2, 3, 18, 90, 165, 86, 157, 165, 90, 3, 0.220629
319, 6, bw, filler, NA, 999, 999, 3, 19, 182, 180, 173, 176, 85, 148, 2, 0.609898
319, 6, bw, filler, NA, 999, 999, 3, 19, 182, 180, 173, 176, 85, 148, 3, 0.368251
319, 6, bw, attraction, a-b-da, 14, 3, 3, 20, 120, 195, 195, 120, 181, 111, 2, 0.631511
319, 6, bw, attraction, a-b-da, 14, 3, 3, 20, 120, 195, 195, 120, 181, 111, 3, 0.429374
319, 6, bw, attraction, a-b-da, 14, 1, 3, 21, 135, 60, 125, 56, 60, 135, 3, 1.68181
319, 6, bw, attraction, a-b-da, 14, 1, 3, 21, 135, 60, 125, 56, 60, 135, 1, 0.901188
319, 6, bw, attraction, a-b-da, 9, 2, 3, 22, 90, 165, 157, 86, 165, 90, 2, 1.16682
319, 6, bw, attraction, a-b-da, 9, 2, 3, 22, 90, 165, 157, 86, 165, 90, 3, 0.503098
319, 6, bw, filler, NA, 999, 999, 3, 23, 137, 169, 144, 69, 185, 173, 3, 1.95292
319, 6, bw, filler, NA, 999, 999, 3, 23, 137, 169, 144, 69, 185, 173, 2, 0.361624
319, 6, bw, attraction, a-b-db, 2, 3, 3, 24, 195, 120, 120, 195, 119, 193, 2, 3.24887
319, 6, bw, attraction, a-b-db, 2, 3, 3, 24, 195, 120, 120, 195, 119, 193, 1, 0.47707
319, 6, bw, attraction, a-b-db, 14, 3, 3, 25, 111, 181, 120, 195, 195, 120, 2, 1.79952
319, 6, bw, attraction, a-b-db, 14, 3, 3, 25, 111, 181, 120, 195, 195, 120, 3, 0.830295
319, 6, bw, attraction, a-b-db, 14, 1, 3, 26, 135, 60, 60, 135, 56, 125, 2, 4.69867
319, 6, bw, attraction, a-b-db, 14, 1, 3, 26, 135, 60, 60, 135, 56, 125, 1, 0.476469
319, 6, bw, attraction, a-b-db, 2, 1, 3, 27, 59, 134, 60, 135, 135, 60, 2, 2.23891
319, 6, bw, attraction, a-b-db, 2, 1, 3, 27, 59, 134, 60, 135, 135, 60, 3, 0.347564
319, 6, bw, filler, NA, 999, 999, 3, 28, 168, 132, 135, 153, 120, 67, 2, 1.89945
319, 6, bw, filler, NA, 999, 999, 3, 28, 168, 132, 135, 153, 120, 67, 3, 0.350117
319, 6, bw, attraction, a-b-da, 5, 1, 3, 29, 135, 60, 60, 135, 132, 58, 2, 4.78997
319, 6, bw, attraction, a-b-da, 5, 1, 3, 29, 135, 60, 60, 135, 132, 58, 3, 0.491709
319, 6, bw, attraction, a-b-da, 5, 3, 3, 30, 190, 117, 120, 195, 195, 120, 3, 5.00548
319, 6, bw, attraction, a-b-da, 5, 3, 3, 30, 190, 117, 120, 195, 195, 120, 2, 0.306574
319, 6, bw, attraction, a-b-da, 2, 1, 3, 31, 60, 135, 134, 59, 135, 60, 2, 2.11578
319, 6, bw, attraction, a-b-da, 2, 1, 3, 31, 60, 135, 134, 59, 135, 60, 3, 0.293737
319, 6, bw, attraction, a-b-db, 5, 1, 3, 32, 58, 132, 60, 135, 135, 60, 2, 1.00759
319, 6, bw, attraction, a-b-db, 5, 1, 3, 32, 58, 132, 60, 135, 135, 60, 3, 0.510009
319, 6, bw, attraction, a-b-da, 2, 2, 3, 33, 165, 90, 163, 89, 90, 165, 2, 1.391
319, 6, bw, attraction, a-b-da, 2, 2, 3, 33, 165, 90, 163, 89, 90, 165, 1, 0.357872
319, 6, bw, filler, NA, 999, 999, 3, 34, 167, 169, 93, 170, 154, 57, 1, 0.877041
319, 6, bw, filler, NA, 999, 999, 3, 34, 167, 169, 93, 170, 154, 57, 3, 1.14473
319, 6, bw, catch, NA, 999, 999, 3, 35, 153, 102, 119, 76, 179, 136, 3, 1.01629
319, 6, bw, catch, NA, 999, 999, 3, 35, 153, 102, 119, 76, 179, 136, 2, 1.03864
319, 6, bw, filler, NA, 999, 999, 3, 36, 149, 65, 143, 178, 61, 178, 2, 1.45094
319, 6, bw, filler, NA, 999, 999, 3, 36, 149, 65, 143, 178, 61, 178, 1, 0.615814
319, 6, bw, attraction, a-b-da, 14, 2, 3, 37, 153, 83, 165, 90, 90, 165, 2, 3.08499
319, 6, bw, attraction, a-b-da, 14, 2, 3, 37, 153, 83, 165, 90, 90, 165, 1, 0.951905
319, 6, bw, attraction, a-b-db, 5, 3, 4, 1, 117, 190, 195, 120, 120, 195, 3, 7.62355
319, 6, bw, attraction, a-b-db, 5, 3, 4, 1, 117, 190, 195, 120, 120, 195, 2, 0.499128
319, 6, bw, filler, NA, 999, 999, 4, 2, 153, 144, 97, 146, 128, 75, 1, 1.47694
319, 6, bw, filler, NA, 999, 999, 4, 2, 153, 144, 97, 146, 128, 75, 3, 0.496418
319, 6, bw, attraction, a-b-da, 2, 1, 4, 3, 60, 135, 134, 59, 135, 60, 2, 4.50618
319, 6, bw, attraction, a-b-da, 2, 1, 4, 3, 60, 135, 134, 59, 135, 60, 3, 0.483447
319, 6, bw, attraction, a-b-db, 5, 2, 4, 4, 90, 165, 88, 161, 165, 90, 1, 5.41384
319, 6, bw, attraction, a-b-db, 5, 2, 4, 4, 90, 165, 88, 161, 165, 90, 3, 0.330859
319, 6, bw, filler, NA, 999, 999, 4, 5, 158, 134, 148, 148, 135, 156, 2, 4.41141
319, 6, bw, filler, NA, 999, 999, 4, 5, 158, 134, 148, 148, 135, 156, 1, 0.688623
319, 6, bw, attraction, a-b-da, 9, 1, 4, 6, 135, 60, 60, 135, 129, 57, 2, 5.93103
319, 6, bw, attraction, a-b-da, 9, 1, 4, 6, 135, 60, 60, 135, 129, 57, 3, 0.931133
319, 6, bw, attraction, a-b-db, 9, 1, 4, 7, 135, 60, 60, 135, 57, 129, 2, 1.73161
319, 6, bw, attraction, a-b-db, 9, 1, 4, 7, 135, 60, 60, 135, 57, 129, 1, 0.332877
319, 6, bw, attraction, a-b-da, 5, 1, 4, 8, 60, 135, 132, 58, 135, 60, 1, 1.59738
319, 6, bw, attraction, a-b-da, 5, 1, 4, 8, 60, 135, 132, 58, 135, 60, 3, 0.380164
319, 6, bw, catch, NA, 999, 999, 4, 9, 112, 143, 145, 170, 127, 68, 2, 0.786612
319, 6, bw, catch, NA, 999, 999, 4, 9, 112, 143, 145, 170, 127, 68, 3, 0.362352
319, 6, bw, attraction, a-b-db, 9, 3, 4, 10, 114, 186, 120, 195, 195, 120, 2, 3.7776
319, 6, bw, attraction, a-b-db, 9, 3, 4, 10, 114, 186, 120, 195, 195, 120, 3, 0.344371
319, 6, bw, attraction, a-b-db, 14, 3, 4, 11, 111, 181, 120, 195, 195, 120, 2, 3.08016
319, 6, bw, attraction, a-b-db, 14, 3, 4, 11, 111, 181, 120, 195, 195, 120, 3, 0.371228
319, 6, bw, attraction, a-b-db, 14, 2, 4, 12, 90, 165, 165, 90, 83, 153, 2, 1.87435
319, 6, bw, attraction, a-b-db, 14, 2, 4, 12, 90, 165, 165, 90, 83, 153, 3, 0.693768
319, 6, bw, attraction, a-b-db, 2, 1, 4, 13, 135, 60, 60, 135, 59, 134, 2, 3.03944
319, 6, bw, attraction, a-b-db, 2, 1, 4, 13, 135, 60, 60, 135, 59, 134, 1, 0.643766
319, 6, bw, attraction, a-b-da, 14, 2, 4, 14, 90, 165, 165, 90, 153, 83, 2, 1.79155
319, 6, bw, attraction, a-b-da, 14, 2, 4, 14, 90, 165, 165, 90, 153, 83, 3, 0.8145
319, 6, bw, attraction, a-b-da, 14, 3, 4, 15, 120, 195, 195, 120, 181, 111, 1, 1.77929
319, 6, bw, attraction, a-b-da, 14, 3, 4, 15, 120, 195, 195, 120, 181, 111, 3, 0.338786
319, 6, bw, catch, NA, 999, 999, 4, 16, 123, 132, 153, 162, 124, 71, 2, 0.875194
319, 6, bw, catch, NA, 999, 999, 4, 16, 123, 132, 153, 162, 124, 71, 3, 0.502932
319, 6, bw, attraction, a-b-db, 2, 3, 4, 17, 195, 120, 120, 195, 119, 193, 2, 2.12071
319, 6, bw, attraction, a-b-db, 2, 3, 4, 17, 195, 120, 120, 195, 119, 193, 3, 0.530709
319, 6, bw, catch, NA, 999, 999, 4, 18, 94, 101, 135, 120, 169, 146, 3, 1.67524
319, 6, bw, catch, NA, 999, 999, 4, 18, 94, 101, 135, 120, 169, 146, 2, 0.406609
319, 6, bw, filler, NA, 999, 999, 4, 19, 113, 178, 104, 86, 59, 134, 1, 6.01977
319, 6, bw, filler, NA, 999, 999, 4, 19, 113, 178, 104, 86, 59, 134, 3, 0.496545
319, 6, bw, filler, NA, 999, 999, 4, 20, 157, 123, 154, 129, 78, 175, 2, 1.05044
319, 6, bw, filler, NA, 999, 999, 4, 20, 157, 123, 154, 129, 78, 175, 3, 2.23132
319, 6, bw, filler, NA, 999, 999, 4, 21, 132, 60, 72, 103, 161, 64, 3, 4.68315
319, 6, bw, filler, NA, 999, 999, 4, 21, 132, 60, 72, 103, 161, 64, 2, 0.581703
319, 6, bw, attraction, a-b-da, 2, 2, 4, 22, 163, 89, 90, 165, 165, 90, 2, 5.14019
319, 6, bw, attraction, a-b-da, 2, 2, 4, 22, 163, 89, 90, 165, 165, 90, 3, 0.49184
319, 6, bw, attraction, a-b-da, 14, 1, 4, 23, 125, 56, 135, 60, 60, 135, 2, 2.82164
319, 6, bw, attraction, a-b-da, 14, 1, 4, 23, 125, 56, 135, 60, 60, 135, 1, 0.842648
319, 6, bw, filler, NA, 999, 999, 4, 24, 72, 92, 151, 57, 139, 123, 2, 2.3344
319, 6, bw, filler, NA, 999, 999, 4, 24, 72, 92, 151, 57, 139, 123, 1, 1.00764
319, 6, bw, attraction, a-b-db, 9, 2, 4, 25, 90, 165, 86, 157, 165, 90, 2, 3.18073
319, 6, bw, attraction, a-b-db, 9, 2, 4, 25, 90, 165, 86, 157, 165, 90, 3, 0.307544
319, 6, bw, filler, NA, 999, 999, 4, 26, 76, 175, 98, 137, 105, 194, 3, 1.07681
319, 6, bw, filler, NA, 999, 999, 4, 26, 76, 175, 98, 137, 105, 194, 1, 0.728397
319, 6, bw, attraction, a-b-db, 14, 1, 4, 27, 60, 135, 56, 125, 135, 60, 3, 3.3849
319, 6, bw, attraction, a-b-db, 14, 1, 4, 27, 60, 135, 56, 125, 135, 60, 2, 0.479767
319, 6, bw, attraction, a-b-db, 2, 2, 4, 28, 165, 90, 90, 165, 89, 163, 3, 3.98609
319, 6, bw, attraction, a-b-db, 2, 2, 4, 28, 165, 90, 90, 165, 89, 163, 1, 0.600819
319, 6, bw, attraction, a-b-da, 9, 3, 4, 29, 195, 120, 120, 195, 186, 114, 2, 2.48664
319, 6, bw, attraction, a-b-da, 9, 3, 4, 29, 195, 120, 120, 195, 186, 114, 3, 0.305809
319, 6, bw, filler, NA, 999, 999, 4, 30, 121, 155, 115, 69, 59, 135, 1, 1.71563
319, 6, bw, filler, NA, 999, 999, 4, 30, 121, 155, 115, 69, 59, 135, 2, 0.845789
319, 6, bw, attraction, a-b-da, 5, 3, 4, 31, 195, 120, 120, 195, 190, 117, 2, 2.5936
319, 6, bw, attraction, a-b-da, 5, 3, 4, 31, 195, 120, 120, 195, 190, 117, 3, 0.287963
319, 6, bw, filler, NA, 999, 999, 4, 32, 180, 143, 113, 106, 88, 117, 1, 0.898468
319, 6, bw, filler, NA, 999, 999, 4, 32, 180, 143, 113, 106, 88, 117, 3, 0.349538
319, 6, bw, attraction, a-b-da, 2, 3, 4, 33, 193, 119, 195, 120, 120, 195, 2, 0.909317
319, 6, bw, attraction, a-b-da, 2, 3, 4, 33, 193, 119, 195, 120, 120, 195, 1, 0.879689
319, 6, bw, attraction, a-b-da, 9, 2, 4, 34, 157, 86, 165, 90, 90, 165, 2, 1.64201
319, 6, bw, attraction, a-b-da, 9, 2, 4, 34, 157, 86, 165, 90, 90, 165, 1, 0.534725
319, 6, bw, attraction, a-b-da, 5, 2, 4, 35, 165, 90, 161, 88, 90, 165, 3, 2.03923
319, 6, bw, attraction, a-b-da, 5, 2, 4, 35, 165, 90, 161, 88, 90, 165, 1, 0.556035
319, 6, bw, filler, NA, 999, 999, 4, 36, 173, 137, 66, 118, 115, 122, 1, 1.38701
319, 6, bw, filler, NA, 999, 999, 4, 36, 173, 137, 66, 118, 115, 122, 2, 0.258518
319, 6, bw, attraction, a-b-db, 5, 1, 4, 37, 60, 135, 58, 132, 135, 60, 2, 2.94169
319, 6, bw, attraction, a-b-db, 5, 1, 4, 37, 60, 135, 58, 132, 135, 60, 3, 0.302138
319, 6, bw, filler, NA, 999, 999, 5, 1, 93, 114, 71, 127, 147, 89, 3, 4.4146
319, 6, bw, filler, NA, 999, 999, 5, 1, 93, 114, 71, 127, 147, 89, 2, 0.275872
319, 6, bw, attraction, a-b-db, 14, 1, 5, 2, 56, 125, 135, 60, 60, 135, 3, 1.9984
319, 6, bw, attraction, a-b-db, 14, 1, 5, 2, 56, 125, 135, 60, 60, 135, 1, 0.35718
319, 6, bw, attraction, a-b-da, 14, 1, 5, 3, 135, 60, 60, 135, 125, 56, 2, 3.23625
319, 6, bw, attraction, a-b-da, 14, 1, 5, 3, 135, 60, 60, 135, 125, 56, 3, 0.425202
319, 6, bw, attraction, a-b-da, 5, 3, 5, 4, 190, 117, 195, 120, 120, 195, 3, 2.83766
319, 6, bw, attraction, a-b-da, 5, 3, 5, 4, 190, 117, 195, 120, 120, 195, 1, 0.394072
319, 6, bw, attraction, a-b-db, 2, 2, 5, 5, 89, 163, 90, 165, 165, 90, 2, 1.36003
319, 6, bw, attraction, a-b-db, 2, 2, 5, 5, 89, 163, 90, 165, 165, 90, 3, 0.344153
319, 6, bw, attraction, a-b-da, 14, 3, 5, 6, 181, 111, 120, 195, 195, 120, 2, 0.911908
319, 6, bw, attraction, a-b-da, 14, 3, 5, 6, 181, 111, 120, 195, 195, 120, 1, 0.402267
319, 6, bw, attraction, a-b-da, 2, 2, 5, 7, 165, 90, 90, 165, 163, 89, 2, 1.68013
319, 6, bw, attraction, a-b-da, 2, 2, 5, 7, 165, 90, 90, 165, 163, 89, 3, 0.571593
319, 6, bw, filler, NA, 999, 999, 5, 8, 56, 128, 59, 152, 123, 162, 3, 1.29079
319, 6, bw, filler, NA, 999, 999, 5, 8, 56, 128, 59, 152, 123, 162, 1, 0.533567
319, 6, bw, attraction, a-b-db, 14, 3, 5, 9, 120, 195, 111, 181, 195, 120, 1, 3.10202
319, 6, bw, attraction, a-b-db, 14, 3, 5, 9, 120, 195, 111, 181, 195, 120, 2, 0.288439
319, 6, bw, filler, NA, 999, 999, 5, 10, 132, 99, 110, 176, 87, 114, 2, 1.64289
319, 6, bw, filler, NA, 999, 999, 5, 10, 132, 99, 110, 176, 87, 114, 3, 0.495695
319, 6, bw, attraction, a-b-da, 2, 1, 5, 11, 60, 135, 134, 59, 135, 60, 1, 2.98559
319, 6, bw, attraction, a-b-da, 2, 1, 5, 11, 60, 135, 134, 59, 135, 60, 3, 0.32852
319, 6, bw, attraction, a-b-db, 9, 1, 5, 12, 57, 129, 135, 60, 60, 135, 3, 2.161
319, 6, bw, attraction, a-b-db, 9, 1, 5, 12, 57, 129, 135, 60, 60, 135, 2, 0.376991
319, 6, bw, filler, NA, 999, 999, 5, 13, 111, 117, 167, 137, 144, 76, 2, 0.767457
319, 6, bw, filler, NA, 999, 999, 5, 13, 111, 117, 167, 137, 144, 76, 3, 0.695868
319, 6, bw, attraction, a-b-db, 2, 1, 5, 14, 135, 60, 59, 134, 60, 135, 1, 1.46559
319, 6, bw, attraction, a-b-db, 2, 1, 5, 14, 135, 60, 59, 134, 60, 135, 3, 0.453774
319, 6, bw, attraction, a-b-da, 9, 1, 5, 15, 135, 60, 60, 135, 129, 57, 2, 2.52954
319, 6, bw, attraction, a-b-da, 9, 1, 5, 15, 135, 60, 60, 135, 129, 57, 3, 0.562773
319, 6, bw, filler, NA, 999, 999, 5, 16, 151, 161, 170, 77, 72, 144, 2, 1.72983
319, 6, bw, filler, NA, 999, 999, 5, 16, 151, 161, 170, 77, 72, 144, 3, 0.307276
319, 6, bw, attraction, a-b-da, 14, 2, 5, 17, 90, 165, 165, 90, 153, 83, 2, 1.66056
319, 6, bw, attraction, a-b-da, 14, 2, 5, 17, 90, 165, 165, 90, 153, 83, 3, 0.352524
319, 6, bw, attraction, a-b-db, 2, 3, 5, 18, 195, 120, 119, 193, 120, 195, 2, 2.23252
319, 6, bw, attraction, a-b-db, 2, 3, 5, 18, 195, 120, 119, 193, 120, 195, 3, 0.285688
319, 6, bw, catch, NA, 999, 999, 5, 19, 129, 186, 102, 153, 82, 113, 1, 1.91213
319, 6, bw, catch, NA, 999, 999, 5, 19, 129, 186, 102, 153, 82, 113, 3, 0.450236
319, 6, bw, filler, NA, 999, 999, 5, 20, 130, 136, 62, 72, 191, 191, 3, 8.422
319, 6, bw, filler, NA, 999, 999, 5, 20, 130, 136, 62, 72, 191, 191, 1, 0.538014
319, 6, bw, attraction, a-b-da, 5, 2, 5, 21, 90, 165, 165, 90, 161, 88, 1, 3.0266
319, 6, bw, attraction, a-b-da, 5, 2, 5, 21, 90, 165, 165, 90, 161, 88, 3, 0.479577
319, 6, bw, attraction, a-b-db, 5, 1, 5, 22, 135, 60, 58, 132, 60, 135, 2, 3.26607
319, 6, bw, attraction, a-b-db, 5, 1, 5, 22, 135, 60, 58, 132, 60, 135, 1, 0.405583
319, 6, bw, attraction, a-b-db, 9, 2, 5, 23, 86, 157, 165, 90, 90, 165, 3, 1.68355
319, 6, bw, attraction, a-b-db, 9, 2, 5, 23, 86, 157, 165, 90, 90, 165, 1, 0.542944
319, 6, bw, attraction, a-b-db, 5, 3, 5, 24, 195, 120, 117, 190, 120, 195, 2, 2.37452
319, 6, bw, attraction, a-b-db, 5, 3, 5, 24, 195, 120, 117, 190, 120, 195, 1, 0.365852
319, 6, bw, filler, NA, 999, 999, 5, 25, 75, 76, 71, 92, 193, 184, 3, 4.70111
319, 6, bw, filler, NA, 999, 999, 5, 25, 75, 76, 71, 92, 193, 184, 2, 0.422876
319, 6, bw, attraction, a-b-da, 5, 1, 5, 26, 60, 135, 135, 60, 132, 58, 2, 1.17133
319, 6, bw, attraction, a-b-da, 5, 1, 5, 26, 60, 135, 135, 60, 132, 58, 3, 0.842966
319, 6, bw, attraction, a-b-db, 5, 2, 5, 27, 88, 161, 90, 165, 165, 90, 1, 1.71864
319, 6, bw, attraction, a-b-db, 5, 2, 5, 27, 88, 161, 90, 165, 165, 90, 3, 0.320735
319, 6, bw, attraction, a-b-da, 9, 3, 5, 28, 186, 114, 120, 195, 195, 120, 2, 0.993898
319, 6, bw, attraction, a-b-da, 9, 3, 5, 28, 186, 114, 120, 195, 195, 120, 1, 0.320838
319, 6, bw, attraction, a-b-da, 2, 3, 5, 29, 120, 195, 195, 120, 193, 119, 1, 0.842005
319, 6, bw, attraction, a-b-da, 2, 3, 5, 29, 120, 195, 195, 120, 193, 119, 3, 0.255241
319, 6, bw, filler, NA, 999, 999, 5, 30, 151, 75, 115, 168, 59, 88, 2, 1.15492
319, 6, bw, filler, NA, 999, 999, 5, 30, 151, 75, 115, 168, 59, 88, 3, 0.307776
319, 6, bw, catch, NA, 999, 999, 5, 31, 87, 108, 113, 142, 137, 178, 3, 2.04446
319, 6, bw, catch, NA, 999, 999, 5, 31, 87, 108, 113, 142, 137, 178, 1, 0.377052
319, 6, bw, attraction, a-b-db, 9, 3, 5, 32, 195, 120, 114, 186, 120, 195, 3, 1.56765
319, 6, bw, attraction, a-b-db, 9, 3, 5, 32, 195, 120, 114, 186, 120, 195, 1, 0.567655
319, 6, bw, catch, NA, 999, 999, 5, 33, 92, 163, 177, 138, 129, 66, 2, 0.958936
319, 6, bw, catch, NA, 999, 999, 5, 33, 92, 163, 177, 138, 129, 66, 3, 0.519173
319, 6, bw, attraction, a-b-db, 14, 2, 5, 34, 165, 90, 90, 165, 83, 153, 2, 1.98431
319, 6, bw, attraction, a-b-db, 14, 2, 5, 34, 165, 90, 90, 165, 83, 153, 1, 0.711593
319, 6, bw, filler, NA, 999, 999, 5, 35, 133, 115, 116, 137, 181, 181, 3, 2.67274
319, 6, bw, filler, NA, 999, 999, 5, 35, 133, 115, 116, 137, 181, 181, 1, 0.363819
319, 6, bw, filler, NA, 999, 999, 5, 36, 183, 120, 148, 64, 61, 127, 1, 1.97898
319, 6, bw, filler, NA, 999, 999, 5, 36, 183, 120, 148, 64, 61, 127, 3, 0.442272
319, 6, bw, attraction, a-b-da, 9, 2, 5, 37, 157, 86, 165, 90, 90, 165, 2, 1.28619
319, 6, bw, attraction, a-b-da, 9, 2, 5, 37, 157, 86, 165, 90, 90, 165, 1, 0.625695
319, 6, bw, attraction, a-b-da, 2, 2, 6, 1, 90, 165, 163, 89, 165, 90, 1, 2.80623
319, 6, bw, attraction, a-b-da, 2, 2, 6, 1, 90, 165, 163, 89, 165, 90, 3, 0.347945
319, 6, bw, catch, NA, 999, 999, 6, 2, 142, 173, 118, 137, 95, 100, 1, 1.29975
319, 6, bw, catch, NA, 999, 999, 6, 2, 142, 173, 118, 137, 95, 100, 3, 0.454669
319, 6, bw, filler, NA, 999, 999, 6, 3, 101, 175, 111, 77, 105, 145, 3, 1.01857
319, 6, bw, filler, NA, 999, 999, 6, 3, 101, 175, 111, 77, 105, 145, 2, 0.288756
319, 6, bw, attraction, a-b-da, 14, 1, 6, 4, 125, 56, 135, 60, 60, 135, 2, 2.90722
319, 6, bw, attraction, a-b-da, 14, 1, 6, 4, 125, 56, 135, 60, 60, 135, 1, 0.325027
319, 6, bw, attraction, a-b-db, 14, 1, 6, 5, 56, 125, 60, 135, 135, 60, 2, 1.46151
319, 6, bw, attraction, a-b-db, 14, 1, 6, 5, 56, 125, 60, 135, 135, 60, 3, 0.50582
319, 6, bw, filler, NA, 999, 999, 6, 6, 123, 116, 157, 106, 120, 105, 2, 3.60353
319, 6, bw, filler, NA, 999, 999, 6, 6, 123, 116, 157, 106, 120, 105, 1, 0.585692
319, 6, bw, attraction, a-b-da, 2, 1, 6, 7, 135, 60, 60, 135, 134, 59, 2, 10.1441
319, 6, bw, attraction, a-b-da, 2, 1, 6, 7, 135, 60, 60, 135, 134, 59, 3, 0.430257
319, 6, bw, attraction, a-b-da, 2, 3, 6, 8, 193, 119, 120, 195, 195, 120, 2, 3.33874
319, 6, bw, attraction, a-b-da, 2, 3, 6, 8, 193, 119, 120, 195, 195, 120, 3, 0.27497
319, 6, bw, attraction, a-b-db, 2, 1, 6, 9, 135, 60, 60, 135, 59, 134, 2, 1.89355
319, 6, bw, attraction, a-b-db, 2, 1, 6, 9, 135, 60, 60, 135, 59, 134, 1, 0.448169
319, 6, bw, attraction, a-b-db, 5, 3, 6, 10, 120, 195, 117, 190, 195, 120, 2, 1.16397
319, 6, bw, attraction, a-b-db, 5, 3, 6, 10, 120, 195, 117, 190, 195, 120, 3, 0.620273
319, 6, bw, attraction, a-b-da, 9, 1, 6, 11, 60, 135, 129, 57, 135, 60, 1, 1.30528
319, 6, bw, attraction, a-b-da, 9, 1, 6, 11, 60, 135, 129, 57, 135, 60, 3, 0.779603
319, 6, bw, filler, NA, 999, 999, 6, 12, 181, 120, 118, 190, 137, 192, 3, 6.83397
319, 6, bw, filler, NA, 999, 999, 6, 12, 181, 120, 118, 190, 137, 192, 1, 0.533759
319, 6, bw, attraction, a-b-db, 2, 3, 6, 13, 195, 120, 119, 193, 120, 195, 2, 1.89418
319, 6, bw, attraction, a-b-db, 2, 3, 6, 13, 195, 120, 119, 193, 120, 195, 1, 0.36901
319, 6, bw, attraction, a-b-da, 14, 3, 6, 14, 120, 195, 195, 120, 181, 111, 2, 0.936252
319, 6, bw, attraction, a-b-da, 14, 3, 6, 14, 120, 195, 195, 120, 181, 111, 3, 0.377714
319, 6, bw, attraction, a-b-da, 14, 2, 6, 15, 153, 83, 90, 165, 165, 90, 2, 2.86427
319, 6, bw, attraction, a-b-da, 14, 2, 6, 15, 153, 83, 90, 165, 165, 90, 3, 0.444182
319, 6, bw, attraction, a-b-da, 9, 2, 6, 16, 165, 90, 90, 165, 157, 86, 2, 1.12775
319, 6, bw, attraction, a-b-da, 9, 2, 6, 16, 165, 90, 90, 165, 157, 86, 3, 0.441522
319, 6, bw, attraction, a-b-db, 14, 2, 6, 17, 165, 90, 90, 165, 83, 153, 2, 1.58122
319, 6, bw, attraction, a-b-db, 14, 2, 6, 17, 165, 90, 90, 165, 83, 153, 3, 0.428746
319, 6, bw, attraction, a-b-db, 9, 3, 6, 18, 114, 186, 120, 195, 195, 120, 2, 0.87323
319, 6, bw, attraction, a-b-db, 9, 3, 6, 18, 114, 186, 120, 195, 195, 120, 3, 0.532885
319, 6, bw, attraction, a-b-da, 5, 3, 6, 19, 120, 195, 190, 117, 195, 120, 1, 0.741305
319, 6, bw, attraction, a-b-da, 5, 3, 6, 19, 120, 195, 190, 117, 195, 120, 2, 0.790381
319, 6, bw, attraction, a-b-da, 5, 2, 6, 20, 90, 165, 161, 88, 165, 90, 2, 1.5721
319, 6, bw, attraction, a-b-da, 5, 2, 6, 20, 90, 165, 161, 88, 165, 90, 3, 0.451584
319, 6, bw, catch, NA, 999, 999, 6, 21, 92, 103, 169, 146, 109, 146, 2, 1.05538
319, 6, bw, catch, NA, 999, 999, 6, 21, 92, 103, 169, 146, 109, 146, 1, 0.491668
319, 6, bw, filler, NA, 999, 999, 6, 22, 139, 112, 96, 180, 66, 132, 1, 1.36549
319, 6, bw, filler, NA, 999, 999, 6, 22, 139, 112, 96, 180, 66, 132, 3, 0.341746
319, 6, bw, filler, NA, 999, 999, 6, 23, 154, 85, 139, 127, 193, 171, 3, 0.805604
319, 6, bw, filler, NA, 999, 999, 6, 23, 154, 85, 139, 127, 193, 171, 1, 0.723938
319, 6, bw, filler, NA, 999, 999, 6, 24, 105, 82, 125, 187, 180, 75, 2, 0.764291
319, 6, bw, filler, NA, 999, 999, 6, 24, 105, 82, 125, 187, 180, 75, 3, 0.412695
319, 6, bw, attraction, a-b-db, 9, 1, 6, 25, 57, 129, 135, 60, 60, 135, 1, 0.809951
319, 6, bw, attraction, a-b-db, 9, 1, 6, 25, 57, 129, 135, 60, 60, 135, 3, 0.328195
319, 6, bw, attraction, a-b-da, 5, 1, 6, 26, 135, 60, 132, 58, 60, 135, 1, 0.832812
319, 6, bw, attraction, a-b-da, 5, 1, 6, 26, 135, 60, 132, 58, 60, 135, 2, 0.286521
319, 6, bw, filler, NA, 999, 999, 6, 27, 158, 84, 113, 167, 158, 167, 3, 1.00911
319, 6, bw, filler, NA, 999, 999, 6, 27, 158, 84, 113, 167, 158, 167, 1, 0.647286
319, 6, bw, attraction, a-b-db, 5, 2, 6, 28, 88, 161, 165, 90, 90, 165, 1, 1.01909
319, 6, bw, attraction, a-b-db, 5, 2, 6, 28, 88, 161, 165, 90, 90, 165, 2, 1.03341
319, 6, bw, attraction, a-b-db, 2, 2, 6, 29, 89, 163, 165, 90, 90, 165, 1, 1.38966
319, 6, bw, attraction, a-b-db, 2, 2, 6, 29, 89, 163, 165, 90, 90, 165, 2, 0.508489
319, 6, bw, filler, NA, 999, 999, 6, 30, 127, 134, 100, 69, 99, 87, 1, 1.27761
319, 6, bw, filler, NA, 999, 999, 6, 30, 127, 134, 100, 69, 99, 87, 2, 1.00115
319, 6, bw, catch, NA, 999, 999, 6, 31, 147, 108, 161, 154, 86, 109, 2, 1.4549
319, 6, bw, catch, NA, 999, 999, 6, 31, 147, 108, 161, 154, 86, 109, 3, 0.331019
319, 6, bw, attraction, a-b-db, 9, 2, 6, 32, 90, 165, 165, 90, 86, 157, 1, 1.13158
319, 6, bw, attraction, a-b-db, 9, 2, 6, 32, 90, 165, 165, 90, 86, 157, 2, 0.669175
319, 6, bw, filler, NA, 999, 999, 6, 33, 155, 85, 57, 180, 171, 75, 1, 1.41623
319, 6, bw, filler, NA, 999, 999, 6, 33, 155, 85, 57, 180, 171, 75, 2, 0.4544
319, 6, bw, attraction, a-b-da, 9, 3, 6, 34, 186, 114, 195, 120, 120, 195, 1, 1.07438
319, 6, bw, attraction, a-b-da, 9, 3, 6, 34, 186, 114, 195, 120, 120, 195, 2, 0.741852
319, 6, bw, attraction, a-b-db, 14, 3, 6, 35, 120, 195, 195, 120, 111, 181, 1, 1.3735
319, 6, bw, attraction, a-b-db, 14, 3, 6, 35, 120, 195, 195, 120, 111, 181, 3, 0.605038
319, 6, bw, attraction, a-b-db, 5, 1, 6, 36, 60, 135, 135, 60, 58, 132, 1, 0.994863
319, 6, bw, attraction, a-b-db, 5, 1, 6, 36, 60, 135, 135, 60, 58, 132, 2, 0.369776
319, 6, bw, filler, NA, 999, 999, 6, 37, 86, 109, 186, 84, 122, 90, 2, 3.10495
319, 6, bw, filler, NA, 999, 999, 6, 37, 86, 109, 186, 84, 122, 90, 1, 0.578635
319, 6, bw, filler, NA, 999, 999, 7, 1, 156, 132, 179, 145, 109, 79, 2, 1.08107
319, 6, bw, filler, NA, 999, 999, 7, 1, 156, 132, 179, 145, 109, 79, 3, 0.396791
319, 6, bw, attraction, a-b-db, 5, 2, 7, 2, 88, 161, 165, 90, 90, 165, 1, 0.97051
319, 6, bw, attraction, a-b-db, 5, 2, 7, 2, 88, 161, 165, 90, 90, 165, 2, 0.586821
319, 6, bw, attraction, a-b-db, 2, 2, 7, 3, 90, 165, 89, 163, 165, 90, 1, 2.70539
319, 6, bw, attraction, a-b-db, 2, 2, 7, 3, 90, 165, 89, 163, 165, 90, 3, 0.683162
319, 6, bw, catch, NA, 999, 999, 7, 4, 63, 132, 176, 139, 109, 146, 2, 1.12549
319, 6, bw, catch, NA, 999, 999, 7, 4, 63, 132, 176, 139, 109, 146, 1, 0.399076
319, 6, bw, attraction, a-b-db, 14, 2, 7, 5, 83, 153, 90, 165, 165, 90, 2, 2.85289
319, 6, bw, attraction, a-b-db, 14, 2, 7, 5, 83, 153, 90, 165, 165, 90, 3, 0.305336
319, 6, bw, filler, NA, 999, 999, 7, 6, 120, 110, 166, 136, 64, 128, 2, 1.42732
319, 6, bw, filler, NA, 999, 999, 7, 6, 120, 110, 166, 136, 64, 128, 3, 0.360703
319, 6, bw, attraction, a-b-da, 5, 2, 7, 7, 161, 88, 165, 90, 90, 165, 3, 2.07186
319, 6, bw, attraction, a-b-da, 5, 2, 7, 7, 161, 88, 165, 90, 90, 165, 2, 0.307215
319, 6, bw, attraction, a-b-da, 5, 1, 7, 8, 135, 60, 60, 135, 132, 58, 2, 2.34053
319, 6, bw, attraction, a-b-da, 5, 1, 7, 8, 135, 60, 60, 135, 132, 58, 3, 0.348918
319, 6, bw, filler, NA, 999, 999, 7, 9, 137, 92, 138, 75, 110, 179, 3, 1.84483
319, 6, bw, filler, NA, 999, 999, 7, 9, 137, 92, 138, 75, 110, 179, 2, 0.345504
319, 6, bw, filler, NA, 999, 999, 7, 10, 126, 154, 130, 187, 178, 86, 2, 0.905384
319, 6, bw, filler, NA, 999, 999, 7, 10, 126, 154, 130, 187, 178, 86, 3, 1.11569
319, 6, bw, attraction, a-b-db, 2, 1, 7, 11, 59, 134, 60, 135, 135, 60, 2, 1.55682
319, 6, bw, attraction, a-b-db, 2, 1, 7, 11, 59, 134, 60, 135, 135, 60, 3, 0.28472
319, 6, bw, filler, NA, 999, 999, 7, 12, 78, 133, 112, 124, 161, 151, 3, 0.791298
319, 6, bw, filler, NA, 999, 999, 7, 12, 78, 133, 112, 124, 161, 151, 1, 0.646357
319, 6, bw, attraction, a-b-da, 14, 3, 7, 13, 181, 111, 120, 195, 195, 120, 3, 0.722111
319, 6, bw, attraction, a-b-da, 14, 3, 7, 13, 181, 111, 120, 195, 195, 120, 1, 0.643837
319, 6, bw, filler, NA, 999, 999, 7, 14, 121, 97, 171, 178, 66, 96, 2, 0.711625
319, 6, bw, filler, NA, 999, 999, 7, 14, 121, 97, 171, 178, 66, 96, 3, 0.410036
319, 6, bw, attraction, a-b-db, 5, 3, 7, 15, 120, 195, 195, 120, 117, 190, 3, 1.47934
319, 6, bw, attraction, a-b-db, 5, 3, 7, 15, 120, 195, 195, 120, 117, 190, 2, 0.194752
319, 6, bw, filler, NA, 999, 999, 7, 16, 174, 176, 124, 105, 168, 139, 1, 0.744571
319, 6, bw, filler, NA, 999, 999, 7, 16, 174, 176, 124, 105, 168, 139, 2, 0.785665
319, 6, bw, attraction, a-b-da, 9, 3, 7, 17, 186, 114, 120, 195, 195, 120, 2, 2.48795
319, 6, bw, attraction, a-b-da, 9, 3, 7, 17, 186, 114, 120, 195, 195, 120, 1, 0.371283
319, 6, bw, attraction, a-b-da, 5, 3, 7, 18, 190, 117, 120, 195, 195, 120, 2, 0.922411
319, 6, bw, attraction, a-b-da, 5, 3, 7, 18, 190, 117, 120, 195, 195, 120, 1, 0.739998
319, 6, bw, catch, NA, 999, 999, 7, 19, 175, 140, 120, 135, 79, 116, 1, 1.01177
319, 6, bw, catch, NA, 999, 999, 7, 19, 175, 140, 120, 135, 79, 116, 3, 0.314016
319, 6, bw, attraction, a-b-da, 14, 2, 7, 20, 165, 90, 153, 83, 90, 165, 3, 1.49925
319, 6, bw, attraction, a-b-da, 14, 2, 7, 20, 165, 90, 153, 83, 90, 165, 2, 0.582118
319, 6, bw, filler, NA, 999, 999, 7, 21, 110, 130, 82, 133, 173, 121, 3, 0.900489
319, 6, bw, filler, NA, 999, 999, 7, 21, 110, 130, 82, 133, 173, 121, 2, 0.74354
319, 6, bw, filler, NA, 999, 999, 7, 22, 119, 175, 173, 141, 72, 87, 2, 1.72726
319, 6, bw, filler, NA, 999, 999, 7, 22, 119, 175, 173, 141, 72, 87, 3, 0.384805
319, 6, bw, attraction, a-b-da, 2, 3, 7, 23, 195, 120, 193, 119, 120, 195, 3, 1.60717
319, 6, bw, attraction, a-b-da, 2, 3, 7, 23, 195, 120, 193, 119, 120, 195, 2, 0.293293
319, 6, bw, filler, NA, 999, 999, 7, 24, 97, 178, 178, 156, 123, 92, 2, 0.663133
319, 6, bw, filler, NA, 999, 999, 7, 24, 97, 178, 178, 156, 123, 92, 3, 0.307612
319, 6, bw, attraction, a-b-db, 5, 1, 7, 25, 58, 132, 135, 60, 60, 135, 1, 0.844691
319, 6, bw, attraction, a-b-db, 5, 1, 7, 25, 58, 132, 135, 60, 60, 135, 2, 0.537722
319, 6, bw, catch, NA, 999, 999, 7, 26, 115, 80, 120, 135, 141, 174, 3, 0.786157
319, 6, bw, catch, NA, 999, 999, 7, 26, 115, 80, 120, 135, 141, 174, 1, 0.458005
319, 6, bw, attraction, a-b-db, 14, 1, 7, 27, 56, 125, 60, 135, 135, 60, 2, 4.88504
319, 6, bw, attraction, a-b-db, 14, 1, 7, 27, 56, 125, 60, 135, 135, 60, 3, 0.535597
319, 6, bw, attraction, a-b-da, 2, 2, 7, 28, 165, 90, 163, 89, 90, 165, 1, 0.943931
319, 6, bw, attraction, a-b-da, 2, 2, 7, 28, 165, 90, 163, 89, 90, 165, 2, 0.489086
319, 6, bw, attraction, a-b-db, 9, 3, 7, 29, 114, 186, 120, 195, 195, 120, 2, 1.35543
319, 6, bw, attraction, a-b-db, 9, 3, 7, 29, 114, 186, 120, 195, 195, 120, 3, 0.331632
319, 6, bw, attraction, a-b-db, 2, 3, 7, 30, 120, 195, 195, 120, 119, 193, 1, 0.700169
319, 6, bw, attraction, a-b-db, 2, 3, 7, 30, 120, 195, 195, 120, 119, 193, 2, 0.543195
319, 6, bw, attraction, a-b-db, 9, 1, 7, 31, 57, 129, 60, 135, 135, 60, 3, 1.54296
319, 6, bw, attraction, a-b-db, 9, 1, 7, 31, 57, 129, 60, 135, 135, 60, 2, 0.543839
319, 6, bw, attraction, a-b-da, 2, 1, 7, 32, 60, 135, 134, 59, 135, 60, 3, 1.7036
319, 6, bw, attraction, a-b-da, 2, 1, 7, 32, 60, 135, 134, 59, 135, 60, 2, 0.282473
319, 6, bw, attraction, a-b-db, 9, 2, 7, 33, 86, 157, 90, 165, 165, 90, 2, 2.28507
319, 6, bw, attraction, a-b-db, 9, 2, 7, 33, 86, 157, 90, 165, 165, 90, 3, 0.280209
319, 6, bw, attraction, a-b-db, 14, 3, 7, 34, 120, 195, 195, 120, 111, 181, 1, 1.05889
319, 6, bw, attraction, a-b-db, 14, 3, 7, 34, 120, 195, 195, 120, 111, 181, 2, 0.263141
319, 6, bw, attraction, a-b-da, 9, 1, 7, 35, 129, 57, 135, 60, 60, 135, 1, 1.04216
319, 6, bw, attraction, a-b-da, 9, 1, 7, 35, 129, 57, 135, 60, 60, 135, 3, 0.727215
319, 6, bw, attraction, a-b-da, 9, 2, 7, 36, 157, 86, 165, 90, 90, 165, 1, 1.98373
319, 6, bw, attraction, a-b-da, 9, 2, 7, 36, 157, 86, 165, 90, 90, 165, 2, 0.503081
319, 6, bw, attraction, a-b-da, 14, 1, 7, 37, 60, 135, 125, 56, 135, 60, 1, 2.78466
319, 6, bw, attraction, a-b-da, 14, 1, 7, 37, 60, 135, 125, 56, 135, 60, 2, 0.551888
319, 6, bw, filler, NA, 999, 999, 8, 1, 122, 164, 94, 101, 125, 57, 1, 0.7356
319, 6, bw, filler, NA, 999, 999, 8, 1, 122, 164, 94, 101, 125, 57, 3, 1.01751
319, 6, bw, attraction, a-b-db, 5, 1, 8, 2, 60, 135, 135, 60, 58, 132, 1, 0.958356
319, 6, bw, attraction, a-b-db, 5, 1, 8, 2, 60, 135, 135, 60, 58, 132, 2, 0.310843
319, 6, bw, attraction, a-b-db, 14, 3, 8, 3, 111, 181, 120, 195, 195, 120, 3, 1.27197
319, 6, bw, attraction, a-b-db, 14, 3, 8, 3, 111, 181, 120, 195, 195, 120, 1, 0.3473
319, 6, bw, attraction, a-b-da, 14, 1, 8, 4, 125, 56, 135, 60, 60, 135, 2, 1.80319
319, 6, bw, attraction, a-b-da, 14, 1, 8, 4, 125, 56, 135, 60, 60, 135, 1, 0.433908
319, 6, bw, attraction, a-b-da, 5, 3, 8, 5, 190, 117, 195, 120, 120, 195, 2, 1.14242
319, 6, bw, attraction, a-b-da, 5, 3, 8, 5, 190, 117, 195, 120, 120, 195, 1, 0.383447
319, 6, bw, attraction, a-b-da, 2, 2, 8, 6, 90, 165, 163, 89, 165, 90, 2, 1.67784
319, 6, bw, attraction, a-b-da, 2, 2, 8, 6, 90, 165, 163, 89, 165, 90, 3, 0.641431
319, 6, bw, filler, NA, 999, 999, 8, 7, 67, 91, 123, 76, 140, 66, 2, 1.74902
319, 6, bw, filler, NA, 999, 999, 8, 7, 67, 91, 123, 76, 140, 66, 1, 0.445773
319, 6, bw, attraction, a-b-da, 2, 3, 8, 8, 120, 195, 193, 119, 195, 120, 3, 1.70566
319, 6, bw, attraction, a-b-da, 2, 3, 8, 8, 120, 195, 193, 119, 195, 120, 2, 0.227671
319, 6, bw, filler, NA, 999, 999, 8, 9, 59, 60, 183, 193, 165, 181, 2, 1.20022
319, 6, bw, filler, NA, 999, 999, 8, 9, 59, 60, 183, 193, 165, 181, 1, 0.671112
319, 6, bw, attraction, a-b-db, 5, 3, 8, 10, 120, 195, 195, 120, 117, 190, 1, 1.57017
319, 6, bw, attraction, a-b-db, 5, 3, 8, 10, 120, 195, 195, 120, 117, 190, 2, 1.15437
319, 6, bw, filler, NA, 999, 999, 8, 11, 107, 169, 116, 94, 148, 102, 1, 1.37814
319, 6, bw, filler, NA, 999, 999, 8, 11, 107, 169, 116, 94, 148, 102, 2, 0.305552
319, 6, bw, attraction, a-b-db, 9, 1, 8, 12, 135, 60, 57, 129, 60, 135, 1, 4.13943
319, 6, bw, attraction, a-b-db, 9, 1, 8, 12, 135, 60, 57, 129, 60, 135, 2, 0.635423
319, 6, bw, attraction, a-b-da, 9, 1, 8, 13, 135, 60, 60, 135, 129, 57, 1, 7.46375
319, 6, bw, attraction, a-b-da, 9, 1, 8, 13, 135, 60, 60, 135, 129, 57, 2, 0.28209
319, 6, bw, attraction, a-b-da, 9, 2, 8, 14, 165, 90, 90, 165, 157, 86, 2, 1.44462
319, 6, bw, attraction, a-b-da, 9, 2, 8, 14, 165, 90, 90, 165, 157, 86, 3, 0.54551
319, 6, bw, catch, NA, 999, 999, 8, 15, 120, 195, 72, 123, 150, 105, 1, 1.04927
319, 6, bw, catch, NA, 999, 999, 8, 15, 120, 195, 72, 123, 150, 105, 2, 0.302293
319, 6, bw, attraction, a-b-db, 2, 1, 8, 16, 135, 60, 60, 135, 59, 134, 2, 3.02406
319, 6, bw, attraction, a-b-db, 2, 1, 8, 16, 135, 60, 60, 135, 59, 134, 3, 0.197127
319, 6, bw, attraction, a-b-db, 2, 2, 8, 17, 89, 163, 90, 165, 165, 90, 2, 2.25089
319, 6, bw, attraction, a-b-db, 2, 2, 8, 17, 89, 163, 90, 165, 165, 90, 3, 0.239563
319, 6, bw, attraction, a-b-da, 5, 2, 8, 18, 90, 165, 161, 88, 165, 90, 3, 2.1555
319, 6, bw, attraction, a-b-da, 5, 2, 8, 18, 90, 165, 161, 88, 165, 90, 1, 0.299616
319, 6, bw, filler, NA, 999, 999, 8, 19, 94, 142, 98, 110, 101, 123, 1, 1.5973
319, 6, bw, filler, NA, 999, 999, 8, 19, 94, 142, 98, 110, 101, 123, 2, 0.340174
319, 6, bw, attraction, a-b-db, 5, 2, 8, 20, 90, 165, 88, 161, 165, 90, 2, 4.04396
319, 6, bw, attraction, a-b-db, 5, 2, 8, 20, 90, 165, 88, 161, 165, 90, 3, 0.631967
319, 6, bw, attraction, a-b-da, 2, 1, 8, 21, 60, 135, 134, 59, 135, 60, 2, 0.90841
319, 6, bw, attraction, a-b-da, 2, 1, 8, 21, 60, 135, 134, 59, 135, 60, 3, 0.462728
319, 6, bw, catch, NA, 999, 999, 8, 22, 124, 71, 184, 131, 160, 95, 2, 0.961852
319, 6, bw, catch, NA, 999, 999, 8, 22, 124, 71, 184, 131, 160, 95, 1, 0.274273
319, 6, bw, filler, NA, 999, 999, 8, 23, 88, 95, 189, 161, 142, 145, 2, 1.04475
319, 6, bw, filler, NA, 999, 999, 8, 23, 88, 95, 189, 161, 142, 145, 1, 0.601689
319, 6, bw, attraction, a-b-db, 9, 3, 8, 24, 195, 120, 120, 195, 114, 186, 1, 4.03143
319, 6, bw, attraction, a-b-db, 9, 3, 8, 24, 195, 120, 120, 195, 114, 186, 2, 0.332299
319, 6, bw, attraction, a-b-db, 9, 2, 8, 25, 90, 165, 86, 157, 165, 90, 2, 2.57257
319, 6, bw, attraction, a-b-db, 9, 2, 8, 25, 90, 165, 86, 157, 165, 90, 3, 0.563823
319, 6, bw, filler, NA, 999, 999, 8, 26, 192, 71, 128, 193, 97, 115, 2, 1.20304
319, 6, bw, filler, NA, 999, 999, 8, 26, 192, 71, 128, 193, 97, 115, 3, 0.369882
319, 6, bw, attraction, a-b-da, 9, 3, 8, 27, 120, 195, 186, 114, 195, 120, 1, 0.873022
319, 6, bw, attraction, a-b-da, 9, 3, 8, 27, 120, 195, 186, 114, 195, 120, 2, 0.268769
319, 6, bw, attraction, a-b-da, 14, 2, 8, 28, 165, 90, 153, 83, 90, 165, 1, 0.727873
319, 6, bw, attraction, a-b-da, 14, 2, 8, 28, 165, 90, 153, 83, 90, 165, 2, 0.281647
319, 6, bw, catch, NA, 999, 999, 8, 29, 130, 65, 126, 129, 121, 194, 3, 1.56415
319, 6, bw, catch, NA, 999, 999, 8, 29, 130, 65, 126, 129, 121, 194, 1, 0.468362
319, 6, bw, filler, NA, 999, 999, 8, 30, 171, 57, 135, 167, 135, 94, 2, 1.25554
319, 6, bw, filler, NA, 999, 999, 8, 30, 171, 57, 135, 167, 135, 94, 1, 0.411714
319, 6, bw, attraction, a-b-db, 14, 1, 8, 31, 60, 135, 56, 125, 135, 60, 1, 1.03287
319, 6, bw, attraction, a-b-db, 14, 1, 8, 31, 60, 135, 56, 125, 135, 60, 2, 0.302515
319, 6, bw, attraction, a-b-da, 14, 3, 8, 32, 181, 111, 120, 195, 195, 120, 2, 1.72032
319, 6, bw, attraction, a-b-da, 14, 3, 8, 32, 181, 111, 120, 195, 195, 120, 1, 0.418387
319, 6, bw, filler, NA, 999, 999, 8, 33, 115, 167, 63, 109, 155, 93, 1, 1.35959
319, 6, bw, filler, NA, 999, 999, 8, 33, 115, 167, 63, 109, 155, 93, 2, 0.711899
319, 6, bw, attraction, a-b-db, 2, 3, 8, 34, 195, 120, 119, 193, 120, 195, 2, 2.04895
319, 6, bw, attraction, a-b-db, 2, 3, 8, 34, 195, 120, 119, 193, 120, 195, 1, 0.533447
319, 6, bw, attraction, a-b-da, 5, 1, 8, 35, 135, 60, 132, 58, 60, 135, 2, 2.12598
319, 6, bw, attraction, a-b-da, 5, 1, 8, 35, 135, 60, 132, 58, 60, 135, 3, 0.591269
319, 6, bw, filler, NA, 999, 999, 8, 36, 165, 180, 97, 83, 146, 109, 1, 0.780986
319, 6, bw, filler, NA, 999, 999, 8, 36, 165, 180, 97, 83, 146, 109, 2, 0.500736
319, 6, bw, attraction, a-b-db, 14, 2, 8, 37, 83, 153, 90, 165, 165, 90, 2, 1.35856
319, 6, bw, attraction, a-b-db, 14, 2, 8, 37, 83, 153, 90, 165, 165, 90, 1, 0.574868
