sub_n, computer_n, bw_cond, effect, set, distance, diag, block_n, trial_n, h1, w1, h2, w2, h3, w3, choice, rt 
362, 6, wb, practice, NA, 999, 999, 0, 1, 109, 138, 131, 122, 193, 129, 1, 12.8898
362, 6, wb, practice, NA, 999, 999, 0, 1, 109, 138, 131, 122, 193, 129, 3, 2.03205
362, 6, wb, practice, NA, 999, 999, 0, 2, 181, 103, 89, 82, 71, 57, 3, 2.06559
362, 6, wb, practice, NA, 999, 999, 0, 2, 181, 103, 89, 82, 71, 57, 1, 1.15759
362, 6, wb, practice, NA, 999, 999, 0, 3, 155, 94, 92, 194, 134, 68, 3, 3.32256
362, 6, wb, practice, NA, 999, 999, 0, 3, 155, 94, 92, 194, 134, 68, 2, 1.58884
362, 6, wb, attraction, a-b-db, 14, 1, 1, 1, 135, 60, 60, 135, 56, 125, 1, 4.39202
362, 6, wb, attraction, a-b-db, 14, 1, 1, 1, 135, 60, 60, 135, 56, 125, 2, 1.67016
362, 6, wb, filler, NA, 999, 999, 1, 2, 143, 123, 151, 135, 99, 169, 3, 5.09683
362, 6, wb, filler, NA, 999, 999, 1, 2, 143, 123, 151, 135, 99, 169, 2, 1.03441
362, 6, wb, attraction, a-b-da, 14, 2, 1, 3, 153, 83, 90, 165, 165, 90, 1, 2.09472
362, 6, wb, attraction, a-b-da, 14, 2, 1, 3, 153, 83, 90, 165, 165, 90, 2, 1.55341
362, 6, wb, attraction, a-b-db, 9, 1, 1, 4, 57, 129, 60, 135, 135, 60, 1, 2.56883
362, 6, wb, attraction, a-b-db, 9, 1, 1, 4, 57, 129, 60, 135, 135, 60, 2, 1.86481
362, 6, wb, attraction, a-b-da, 2, 2, 1, 5, 163, 89, 165, 90, 90, 165, 2, 4.13141
362, 6, wb, attraction, a-b-da, 2, 2, 1, 5, 163, 89, 165, 90, 90, 165, 3, 1.47608
362, 6, wb, attraction, a-b-db, 2, 3, 1, 6, 120, 195, 119, 193, 195, 120, 3, 6.5583
362, 6, wb, attraction, a-b-db, 2, 3, 1, 6, 120, 195, 119, 193, 195, 120, 2, 0.676901
362, 6, wb, filler, NA, 999, 999, 1, 7, 190, 136, 127, 112, 176, 175, 2, 1.36725
362, 6, wb, filler, NA, 999, 999, 1, 7, 190, 136, 127, 112, 176, 175, 3, 0.943666
362, 6, wb, filler, NA, 999, 999, 1, 8, 72, 190, 112, 144, 82, 58, 3, 1.88713
362, 6, wb, filler, NA, 999, 999, 1, 8, 72, 190, 112, 144, 82, 58, 2, 1.59456
362, 6, wb, attraction, a-b-da, 9, 2, 1, 9, 165, 90, 157, 86, 90, 165, 2, 7.75988
362, 6, wb, attraction, a-b-da, 9, 2, 1, 9, 165, 90, 157, 86, 90, 165, 3, 0.622051
362, 6, wb, filler, NA, 999, 999, 1, 10, 156, 93, 71, 186, 141, 181, 2, 2.6672
362, 6, wb, filler, NA, 999, 999, 1, 10, 156, 93, 71, 186, 141, 181, 3, 1.00704
362, 6, wb, attraction, a-b-da, 14, 1, 1, 11, 125, 56, 135, 60, 60, 135, 1, 1.61196
362, 6, wb, attraction, a-b-da, 14, 1, 1, 11, 125, 56, 135, 60, 60, 135, 3, 1.39413
362, 6, wb, filler, NA, 999, 999, 1, 12, 177, 77, 181, 141, 92, 90, 3, 1.69559
362, 6, wb, filler, NA, 999, 999, 1, 12, 177, 77, 181, 141, 92, 90, 2, 0.946439
362, 6, wb, attraction, a-b-db, 9, 3, 1, 13, 120, 195, 114, 186, 195, 120, 2, 1.88997
362, 6, wb, attraction, a-b-db, 9, 3, 1, 13, 120, 195, 114, 186, 195, 120, 1, 0.804731
362, 6, wb, attraction, a-b-da, 2, 3, 1, 14, 195, 120, 120, 195, 193, 119, 3, 2.71445
362, 6, wb, attraction, a-b-da, 2, 3, 1, 14, 195, 120, 120, 195, 193, 119, 2, 0.436194
362, 6, wb, attraction, a-b-db, 14, 3, 1, 15, 195, 120, 111, 181, 120, 195, 2, 2.78468
362, 6, wb, attraction, a-b-db, 14, 3, 1, 15, 195, 120, 111, 181, 120, 195, 3, 0.791835
362, 6, wb, attraction, a-b-da, 2, 1, 1, 16, 60, 135, 135, 60, 134, 59, 2, 1.66951
362, 6, wb, attraction, a-b-da, 2, 1, 1, 16, 60, 135, 135, 60, 134, 59, 1, 0.62567
362, 6, wb, attraction, a-b-da, 9, 3, 1, 17, 186, 114, 195, 120, 120, 195, 1, 1.78199
362, 6, wb, attraction, a-b-da, 9, 3, 1, 17, 186, 114, 195, 120, 120, 195, 3, 0.621449
362, 6, wb, filler, NA, 999, 999, 1, 18, 63, 173, 129, 93, 184, 97, 1, 1.3945
362, 6, wb, filler, NA, 999, 999, 1, 18, 63, 173, 129, 93, 184, 97, 3, 1.56142
362, 6, wb, attraction, a-b-da, 5, 2, 1, 19, 161, 88, 90, 165, 165, 90, 1, 7.68017
362, 6, wb, attraction, a-b-da, 5, 2, 1, 19, 161, 88, 90, 165, 165, 90, 2, 0.769836
362, 6, wb, attraction, a-b-da, 9, 1, 1, 20, 135, 60, 129, 57, 60, 135, 2, 1.28078
362, 6, wb, attraction, a-b-da, 9, 1, 1, 20, 135, 60, 129, 57, 60, 135, 3, 0.996318
362, 6, wb, attraction, a-b-db, 5, 2, 1, 21, 88, 161, 90, 165, 165, 90, 3, 3.43413
362, 6, wb, attraction, a-b-db, 5, 2, 1, 21, 88, 161, 90, 165, 165, 90, 2, 0.678929
362, 6, wb, catch, NA, 999, 999, 1, 22, 116, 139, 84, 111, 184, 131, 2, 1.71329
362, 6, wb, catch, NA, 999, 999, 1, 22, 116, 139, 84, 111, 184, 131, 3, 0.659361
362, 6, wb, attraction, a-b-da, 14, 3, 1, 23, 120, 195, 195, 120, 181, 111, 3, 2.39849
362, 6, wb, attraction, a-b-da, 14, 3, 1, 23, 120, 195, 195, 120, 181, 111, 1, 0.525024
362, 6, wb, filler, NA, 999, 999, 1, 24, 63, 87, 129, 170, 100, 127, 1, 1.02968
362, 6, wb, filler, NA, 999, 999, 1, 24, 63, 87, 129, 170, 100, 127, 2, 0.515208
362, 6, wb, catch, NA, 999, 999, 1, 25, 177, 138, 137, 118, 66, 129, 3, 1.14831
362, 6, wb, catch, NA, 999, 999, 1, 25, 177, 138, 137, 118, 66, 129, 1, 0.581145
362, 6, wb, attraction, a-b-db, 9, 2, 1, 26, 86, 157, 90, 165, 165, 90, 1, 1.58759
362, 6, wb, attraction, a-b-db, 9, 2, 1, 26, 86, 157, 90, 165, 165, 90, 2, 0.706367
362, 6, wb, attraction, a-b-db, 2, 2, 1, 27, 90, 165, 165, 90, 89, 163, 2, 4.65949
362, 6, wb, attraction, a-b-db, 2, 2, 1, 27, 90, 165, 165, 90, 89, 163, 3, 0.502669
362, 6, wb, attraction, a-b-db, 14, 2, 1, 28, 83, 153, 165, 90, 90, 165, 1, 1.39248
362, 6, wb, attraction, a-b-db, 14, 2, 1, 28, 83, 153, 165, 90, 90, 165, 3, 0.49534
362, 6, wb, catch, NA, 999, 999, 1, 29, 105, 90, 124, 131, 155, 160, 1, 0.897132
362, 6, wb, catch, NA, 999, 999, 1, 29, 105, 90, 124, 131, 155, 160, 3, 0.484063
362, 6, wb, filler, NA, 999, 999, 1, 30, 128, 184, 130, 102, 167, 79, 2, 1.21461
362, 6, wb, filler, NA, 999, 999, 1, 30, 128, 184, 130, 102, 167, 79, 1, 0.588789
362, 6, wb, attraction, a-b-db, 5, 1, 1, 31, 58, 132, 60, 135, 135, 60, 1, 5.51522
362, 6, wb, attraction, a-b-db, 5, 1, 1, 31, 58, 132, 60, 135, 135, 60, 2, 2.6122
362, 6, wb, attraction, a-b-db, 5, 3, 1, 32, 117, 190, 195, 120, 120, 195, 2, 1.78458
362, 6, wb, attraction, a-b-db, 5, 3, 1, 32, 117, 190, 195, 120, 120, 195, 3, 0.42406
362, 6, wb, attraction, a-b-da, 5, 1, 1, 33, 135, 60, 60, 135, 132, 58, 1, 1.79644
362, 6, wb, attraction, a-b-da, 5, 1, 1, 33, 135, 60, 60, 135, 132, 58, 2, 0.491308
362, 6, wb, filler, NA, 999, 999, 1, 34, 126, 116, 126, 176, 79, 184, 3, 2.75708
362, 6, wb, filler, NA, 999, 999, 1, 34, 126, 116, 126, 176, 79, 184, 2, 0.388863
362, 6, wb, filler, NA, 999, 999, 1, 35, 160, 60, 149, 178, 183, 108, 1, 0.971302
362, 6, wb, filler, NA, 999, 999, 1, 35, 160, 60, 149, 178, 183, 108, 2, 0.395129
362, 6, wb, attraction, a-b-db, 2, 1, 1, 36, 135, 60, 59, 134, 60, 135, 1, 2.40883
362, 6, wb, attraction, a-b-db, 2, 1, 1, 36, 135, 60, 59, 134, 60, 135, 3, 0.694715
362, 6, wb, attraction, a-b-da, 5, 3, 1, 37, 195, 120, 120, 195, 190, 117, 3, 2.43243
362, 6, wb, attraction, a-b-da, 5, 3, 1, 37, 195, 120, 120, 195, 190, 117, 2, 0.445558
362, 6, wb, attraction, a-b-da, 2, 2, 2, 1, 90, 165, 163, 89, 165, 90, 2, 1.3534
362, 6, wb, attraction, a-b-da, 2, 2, 2, 1, 90, 165, 163, 89, 165, 90, 1, 1.2185
362, 6, wb, attraction, a-b-db, 5, 1, 2, 2, 58, 132, 60, 135, 135, 60, 3, 1.76721
362, 6, wb, attraction, a-b-db, 5, 1, 2, 2, 58, 132, 60, 135, 135, 60, 2, 0.471287
362, 6, wb, attraction, a-b-db, 14, 2, 2, 3, 83, 153, 90, 165, 165, 90, 1, 2.21039
362, 6, wb, attraction, a-b-db, 14, 2, 2, 3, 83, 153, 90, 165, 165, 90, 2, 0.99252
362, 6, wb, attraction, a-b-da, 14, 2, 2, 4, 90, 165, 165, 90, 153, 83, 3, 1.69406
362, 6, wb, attraction, a-b-da, 14, 2, 2, 4, 90, 165, 165, 90, 153, 83, 1, 0.616761
362, 6, wb, filler, NA, 999, 999, 2, 5, 155, 179, 147, 191, 62, 146, 3, 0.733834
362, 6, wb, filler, NA, 999, 999, 2, 5, 155, 179, 147, 191, 62, 146, 2, 1.98358
362, 6, wb, attraction, a-b-db, 9, 1, 2, 6, 57, 129, 135, 60, 60, 135, 2, 1.25359
362, 6, wb, attraction, a-b-db, 9, 1, 2, 6, 57, 129, 135, 60, 60, 135, 3, 0.546513
362, 6, wb, filler, NA, 999, 999, 2, 7, 167, 166, 134, 136, 158, 139, 2, 1.4342
362, 6, wb, filler, NA, 999, 999, 2, 7, 167, 166, 134, 136, 158, 139, 1, 0.399719
362, 6, wb, attraction, a-b-da, 5, 2, 2, 8, 161, 88, 90, 165, 165, 90, 1, 1.70962
362, 6, wb, attraction, a-b-da, 5, 2, 2, 8, 161, 88, 90, 165, 165, 90, 2, 0.439844
362, 6, wb, attraction, a-b-db, 2, 3, 2, 9, 195, 120, 120, 195, 119, 193, 1, 5.04353
362, 6, wb, attraction, a-b-db, 2, 3, 2, 9, 195, 120, 120, 195, 119, 193, 2, 0.36726
362, 6, wb, attraction, a-b-db, 2, 1, 2, 10, 60, 135, 135, 60, 59, 134, 2, 1.59051
362, 6, wb, attraction, a-b-db, 2, 1, 2, 10, 60, 135, 135, 60, 59, 134, 1, 1.73318
362, 6, wb, attraction, a-b-da, 2, 1, 2, 11, 135, 60, 60, 135, 134, 59, 3, 2.14135
362, 6, wb, attraction, a-b-da, 2, 1, 2, 11, 135, 60, 60, 135, 134, 59, 2, 0.853908
362, 6, wb, attraction, a-b-da, 14, 3, 2, 12, 120, 195, 181, 111, 195, 120, 2, 4.12962
362, 6, wb, attraction, a-b-da, 14, 3, 2, 12, 120, 195, 181, 111, 195, 120, 1, 0.618265
362, 6, wb, attraction, a-b-db, 5, 2, 2, 13, 88, 161, 165, 90, 90, 165, 2, 2.6074
362, 6, wb, attraction, a-b-db, 5, 2, 2, 13, 88, 161, 165, 90, 90, 165, 3, 0.437189
362, 6, wb, catch, NA, 999, 999, 2, 14, 173, 142, 158, 97, 135, 60, 3, 1.25761
362, 6, wb, catch, NA, 999, 999, 2, 14, 173, 142, 158, 97, 135, 60, 1, 0.718074
362, 6, wb, filler, NA, 999, 999, 2, 15, 112, 101, 164, 87, 79, 63, 3, 1.455
362, 6, wb, filler, NA, 999, 999, 2, 15, 112, 101, 164, 87, 79, 63, 2, 0.603144
362, 6, wb, attraction, a-b-db, 2, 2, 2, 16, 89, 163, 90, 165, 165, 90, 1, 1.06505
362, 6, wb, attraction, a-b-db, 2, 2, 2, 16, 89, 163, 90, 165, 165, 90, 2, 0.485216
362, 6, wb, attraction, a-b-da, 9, 3, 2, 17, 186, 114, 120, 195, 195, 120, 1, 1.26372
362, 6, wb, attraction, a-b-da, 9, 3, 2, 17, 186, 114, 120, 195, 195, 120, 2, 0.355929
362, 6, wb, filler, NA, 999, 999, 2, 18, 161, 75, 82, 180, 194, 193, 1, 1.07572
362, 6, wb, filler, NA, 999, 999, 2, 18, 161, 75, 82, 180, 194, 193, 3, 0.415406
362, 6, wb, attraction, a-b-da, 5, 1, 2, 19, 60, 135, 135, 60, 132, 58, 3, 1.63653
362, 6, wb, attraction, a-b-da, 5, 1, 2, 19, 60, 135, 135, 60, 132, 58, 1, 0.617961
362, 6, wb, filler, NA, 999, 999, 2, 20, 118, 134, 158, 84, 132, 92, 3, 1.39904
362, 6, wb, filler, NA, 999, 999, 2, 20, 118, 134, 158, 84, 132, 92, 1, 1.13395
362, 6, wb, attraction, a-b-da, 2, 3, 2, 21, 193, 119, 195, 120, 120, 195, 1, 2.73419
362, 6, wb, attraction, a-b-da, 2, 3, 2, 21, 193, 119, 195, 120, 120, 195, 3, 0.463345
362, 6, wb, filler, NA, 999, 999, 2, 22, 77, 62, 75, 61, 61, 74, 1, 2.77848
362, 6, wb, filler, NA, 999, 999, 2, 22, 77, 62, 75, 61, 61, 74, 3, 0.441487
362, 6, wb, attraction, a-b-da, 14, 1, 2, 23, 135, 60, 125, 56, 60, 135, 3, 1.26935
362, 6, wb, attraction, a-b-da, 14, 1, 2, 23, 135, 60, 125, 56, 60, 135, 2, 0.425596
362, 6, wb, attraction, a-b-da, 9, 2, 2, 24, 165, 90, 90, 165, 157, 86, 1, 1.27009
362, 6, wb, attraction, a-b-da, 9, 2, 2, 24, 165, 90, 90, 165, 157, 86, 2, 0.362374
362, 6, wb, attraction, a-b-da, 5, 3, 2, 25, 195, 120, 120, 195, 190, 117, 1, 1.40141
362, 6, wb, attraction, a-b-da, 5, 3, 2, 25, 195, 120, 120, 195, 190, 117, 2, 0.344304
362, 6, wb, attraction, a-b-da, 9, 1, 2, 26, 135, 60, 60, 135, 129, 57, 3, 0.840198
362, 6, wb, attraction, a-b-da, 9, 1, 2, 26, 135, 60, 60, 135, 129, 57, 2, 0.437346
362, 6, wb, attraction, a-b-db, 9, 2, 2, 27, 165, 90, 86, 157, 90, 165, 2, 3.79379
362, 6, wb, attraction, a-b-db, 9, 2, 2, 27, 165, 90, 86, 157, 90, 165, 1, 1.35184
362, 6, wb, attraction, a-b-db, 14, 3, 2, 28, 120, 195, 111, 181, 195, 120, 2, 1.93533
362, 6, wb, attraction, a-b-db, 14, 3, 2, 28, 120, 195, 111, 181, 195, 120, 1, 0.4807
362, 6, wb, filler, NA, 999, 999, 2, 29, 92, 56, 140, 191, 193, 176, 1, 0.907304
362, 6, wb, filler, NA, 999, 999, 2, 29, 92, 56, 140, 191, 193, 176, 3, 0.605494
362, 6, wb, filler, NA, 999, 999, 2, 30, 164, 95, 193, 171, 106, 105, 3, 1.4033
362, 6, wb, filler, NA, 999, 999, 2, 30, 164, 95, 193, 171, 106, 105, 2, 0.498118
362, 6, wb, catch, NA, 999, 999, 2, 31, 131, 64, 124, 191, 142, 113, 1, 0.835949
362, 6, wb, catch, NA, 999, 999, 2, 31, 131, 64, 124, 191, 142, 113, 2, 0.417599
362, 6, wb, catch, NA, 999, 999, 2, 32, 65, 130, 137, 118, 163, 152, 1, 0.606858
362, 6, wb, catch, NA, 999, 999, 2, 32, 65, 130, 137, 118, 163, 152, 3, 0.397252
362, 6, wb, filler, NA, 999, 999, 2, 33, 83, 159, 129, 59, 180, 172, 2, 0.779105
362, 6, wb, filler, NA, 999, 999, 2, 33, 83, 159, 129, 59, 180, 172, 3, 0.370851
362, 6, wb, attraction, a-b-db, 9, 3, 2, 34, 195, 120, 120, 195, 114, 186, 3, 4.91404
362, 6, wb, attraction, a-b-db, 9, 3, 2, 34, 195, 120, 120, 195, 114, 186, 1, 1.29921
362, 6, wb, filler, NA, 999, 999, 2, 35, 163, 148, 157, 190, 151, 146, 3, 1.52457
362, 6, wb, filler, NA, 999, 999, 2, 35, 163, 148, 157, 190, 151, 146, 2, 0.422049
362, 6, wb, attraction, a-b-db, 5, 3, 2, 36, 117, 190, 195, 120, 120, 195, 1, 0.819184
362, 6, wb, attraction, a-b-db, 5, 3, 2, 36, 117, 190, 195, 120, 120, 195, 3, 0.545583
362, 6, wb, attraction, a-b-db, 14, 1, 2, 37, 60, 135, 135, 60, 56, 125, 3, 1.23336
362, 6, wb, attraction, a-b-db, 14, 1, 2, 37, 60, 135, 135, 60, 56, 125, 1, 1.13502
362, 6, wb, attraction, a-b-db, 5, 3, 3, 1, 195, 120, 117, 190, 120, 195, 1, 3.80722
362, 6, wb, attraction, a-b-db, 5, 3, 3, 1, 195, 120, 117, 190, 120, 195, 2, 0.748666
362, 6, wb, attraction, a-b-db, 5, 2, 3, 2, 165, 90, 90, 165, 88, 161, 3, 2.02834
362, 6, wb, attraction, a-b-db, 5, 2, 3, 2, 165, 90, 90, 165, 88, 161, 1, 0.641813
362, 6, wb, attraction, a-b-db, 14, 2, 3, 3, 83, 153, 90, 165, 165, 90, 1, 0.965514
362, 6, wb, attraction, a-b-db, 14, 2, 3, 3, 83, 153, 90, 165, 165, 90, 2, 0.805857
362, 6, wb, attraction, a-b-da, 9, 3, 3, 4, 195, 120, 186, 114, 120, 195, 2, 2.05161
362, 6, wb, attraction, a-b-da, 9, 3, 3, 4, 195, 120, 186, 114, 120, 195, 1, 0.912113
362, 6, wb, attraction, a-b-db, 5, 1, 3, 5, 58, 132, 60, 135, 135, 60, 1, 0.985089
362, 6, wb, attraction, a-b-db, 5, 1, 3, 5, 58, 132, 60, 135, 135, 60, 2, 0.648944
362, 6, wb, attraction, a-b-da, 5, 2, 3, 6, 90, 165, 161, 88, 165, 90, 2, 1.52469
362, 6, wb, attraction, a-b-da, 5, 2, 3, 6, 90, 165, 161, 88, 165, 90, 1, 0.686076
362, 6, wb, filler, NA, 999, 999, 3, 7, 59, 150, 192, 159, 92, 99, 1, 0.904418
362, 6, wb, filler, NA, 999, 999, 3, 7, 59, 150, 192, 159, 92, 99, 2, 0.274854
362, 6, wb, filler, NA, 999, 999, 3, 8, 152, 78, 74, 161, 73, 130, 3, 0.741468
362, 6, wb, filler, NA, 999, 999, 3, 8, 152, 78, 74, 161, 73, 130, 1, 0.550407
362, 6, wb, attraction, a-b-da, 5, 1, 3, 9, 135, 60, 132, 58, 60, 135, 2, 0.910168
362, 6, wb, attraction, a-b-da, 5, 1, 3, 9, 135, 60, 132, 58, 60, 135, 1, 0.496551
362, 6, wb, attraction, a-b-db, 9, 3, 3, 10, 195, 120, 114, 186, 120, 195, 2, 1.86632
362, 6, wb, attraction, a-b-db, 9, 3, 3, 10, 195, 120, 114, 186, 120, 195, 1, 0.334321
362, 6, wb, attraction, a-b-db, 14, 3, 3, 11, 120, 195, 111, 181, 195, 120, 2, 1.07885
362, 6, wb, attraction, a-b-db, 14, 3, 3, 11, 120, 195, 111, 181, 195, 120, 1, 0.442512
362, 6, wb, filler, NA, 999, 999, 3, 12, 128, 72, 171, 78, 167, 115, 1, 0.710262
362, 6, wb, filler, NA, 999, 999, 3, 12, 128, 72, 171, 78, 167, 115, 3, 0.800737
362, 6, wb, attraction, a-b-db, 2, 3, 3, 13, 119, 193, 195, 120, 120, 195, 2, 1.50243
362, 6, wb, attraction, a-b-db, 2, 3, 3, 13, 119, 193, 195, 120, 120, 195, 3, 0.537282
362, 6, wb, catch, NA, 999, 999, 3, 14, 163, 92, 193, 122, 128, 67, 3, 0.80972
362, 6, wb, catch, NA, 999, 999, 3, 14, 163, 92, 193, 122, 128, 67, 2, 0.344095
362, 6, wb, filler, NA, 999, 999, 3, 15, 136, 178, 155, 111, 59, 85, 3, 0.975928
362, 6, wb, filler, NA, 999, 999, 3, 15, 136, 178, 155, 111, 59, 85, 1, 0.391685
362, 6, wb, filler, NA, 999, 999, 3, 16, 108, 164, 81, 89, 63, 89, 2, 1.44537
362, 6, wb, filler, NA, 999, 999, 3, 16, 108, 164, 81, 89, 63, 89, 1, 0.402333
362, 6, wb, attraction, a-b-da, 9, 1, 3, 17, 129, 57, 60, 135, 135, 60, 1, 1.44019
362, 6, wb, attraction, a-b-da, 9, 1, 3, 17, 129, 57, 60, 135, 135, 60, 2, 0.892916
362, 6, wb, attraction, a-b-db, 2, 2, 3, 18, 165, 90, 90, 165, 89, 163, 1, 1.37459
362, 6, wb, attraction, a-b-db, 2, 2, 3, 18, 165, 90, 90, 165, 89, 163, 2, 0.454165
362, 6, wb, attraction, a-b-da, 2, 1, 3, 19, 60, 135, 134, 59, 135, 60, 1, 0.673883
362, 6, wb, attraction, a-b-da, 2, 1, 3, 19, 60, 135, 134, 59, 135, 60, 2, 1.72574
362, 6, wb, attraction, a-b-db, 2, 1, 3, 20, 135, 60, 60, 135, 59, 134, 1, 1.70969
362, 6, wb, attraction, a-b-db, 2, 1, 3, 20, 135, 60, 60, 135, 59, 134, 2, 0.623923
362, 6, wb, filler, NA, 999, 999, 3, 21, 66, 168, 61, 106, 109, 72, 2, 1.01228
362, 6, wb, filler, NA, 999, 999, 3, 21, 66, 168, 61, 106, 109, 72, 1, 0.378613
362, 6, wb, attraction, a-b-da, 2, 3, 3, 22, 120, 195, 193, 119, 195, 120, 2, 4.79315
362, 6, wb, attraction, a-b-da, 2, 3, 3, 22, 120, 195, 193, 119, 195, 120, 1, 1.39895
362, 6, wb, attraction, a-b-da, 9, 2, 3, 23, 165, 90, 90, 165, 157, 86, 3, 2.1644
362, 6, wb, attraction, a-b-da, 9, 2, 3, 23, 165, 90, 90, 165, 157, 86, 1, 1.14036
362, 6, wb, catch, NA, 999, 999, 3, 24, 105, 90, 100, 155, 156, 159, 1, 0.795914
362, 6, wb, catch, NA, 999, 999, 3, 24, 105, 90, 100, 155, 156, 159, 3, 0.603026
362, 6, wb, attraction, a-b-db, 9, 1, 3, 25, 60, 135, 57, 129, 135, 60, 2, 1.05674
362, 6, wb, attraction, a-b-db, 9, 1, 3, 25, 60, 135, 57, 129, 135, 60, 1, 1.66107
362, 6, wb, attraction, a-b-da, 2, 2, 3, 26, 163, 89, 165, 90, 90, 165, 1, 1.6399
362, 6, wb, attraction, a-b-da, 2, 2, 3, 26, 163, 89, 165, 90, 90, 165, 3, 0.508647
362, 6, wb, filler, NA, 999, 999, 3, 27, 122, 145, 185, 195, 59, 151, 3, 0.805759
362, 6, wb, filler, NA, 999, 999, 3, 27, 122, 145, 185, 195, 59, 151, 2, 0.404131
362, 6, wb, filler, NA, 999, 999, 3, 28, 130, 169, 75, 95, 123, 195, 2, 0.650016
362, 6, wb, filler, NA, 999, 999, 3, 28, 130, 169, 75, 95, 123, 195, 3, 0.535066
362, 6, wb, filler, NA, 999, 999, 3, 29, 149, 127, 115, 189, 106, 88, 3, 0.86351
362, 6, wb, filler, NA, 999, 999, 3, 29, 149, 127, 115, 189, 106, 88, 2, 0.571882
362, 6, wb, attraction, a-b-da, 14, 2, 3, 30, 153, 83, 90, 165, 165, 90, 1, 0.883092
362, 6, wb, attraction, a-b-da, 14, 2, 3, 30, 153, 83, 90, 165, 165, 90, 2, 0.446718
362, 6, wb, attraction, a-b-db, 9, 2, 3, 31, 86, 157, 90, 165, 165, 90, 1, 1.7144
362, 6, wb, attraction, a-b-db, 9, 2, 3, 31, 86, 157, 90, 165, 165, 90, 2, 0.580534
362, 6, wb, attraction, a-b-da, 14, 1, 3, 32, 135, 60, 60, 135, 125, 56, 3, 0.866978
362, 6, wb, attraction, a-b-da, 14, 1, 3, 32, 135, 60, 60, 135, 125, 56, 1, 0.431377
362, 6, wb, attraction, a-b-db, 14, 1, 3, 33, 135, 60, 56, 125, 60, 135, 2, 0.78785
362, 6, wb, attraction, a-b-db, 14, 1, 3, 33, 135, 60, 56, 125, 60, 135, 3, 0.410851
362, 6, wb, catch, NA, 999, 999, 3, 34, 89, 106, 141, 174, 150, 105, 1, 0.656049
362, 6, wb, catch, NA, 999, 999, 3, 34, 89, 106, 141, 174, 150, 105, 2, 0.268461
362, 6, wb, filler, NA, 999, 999, 3, 35, 71, 151, 84, 102, 138, 108, 2, 1.34359
362, 6, wb, filler, NA, 999, 999, 3, 35, 71, 151, 84, 102, 138, 108, 3, 0.33656
362, 6, wb, attraction, a-b-da, 5, 3, 3, 36, 195, 120, 120, 195, 190, 117, 3, 1.11311
362, 6, wb, attraction, a-b-da, 5, 3, 3, 36, 195, 120, 120, 195, 190, 117, 2, 0.491335
362, 6, wb, attraction, a-b-da, 14, 3, 3, 37, 181, 111, 195, 120, 120, 195, 1, 1.22929
362, 6, wb, attraction, a-b-da, 14, 3, 3, 37, 181, 111, 195, 120, 120, 195, 2, 0.410715
362, 6, wb, attraction, a-b-da, 2, 2, 4, 1, 163, 89, 90, 165, 165, 90, 1, 1.43193
362, 6, wb, attraction, a-b-da, 2, 2, 4, 1, 163, 89, 90, 165, 165, 90, 2, 0.693554
362, 6, wb, attraction, a-b-da, 5, 3, 4, 2, 190, 117, 120, 195, 195, 120, 1, 0.895137
362, 6, wb, attraction, a-b-da, 5, 3, 4, 2, 190, 117, 120, 195, 195, 120, 2, 0.690148
362, 6, wb, catch, NA, 999, 999, 4, 3, 119, 76, 125, 130, 186, 129, 1, 0.579865
362, 6, wb, catch, NA, 999, 999, 4, 3, 119, 76, 125, 130, 186, 129, 3, 0.691723
362, 6, wb, filler, NA, 999, 999, 4, 4, 104, 96, 63, 186, 117, 177, 2, 0.773355
362, 6, wb, filler, NA, 999, 999, 4, 4, 104, 96, 63, 186, 117, 177, 3, 0.397112
362, 6, wb, attraction, a-b-da, 2, 3, 4, 5, 193, 119, 120, 195, 195, 120, 1, 2.347
362, 6, wb, attraction, a-b-da, 2, 3, 4, 5, 193, 119, 120, 195, 195, 120, 2, 0.291489
362, 6, wb, filler, NA, 999, 999, 4, 6, 102, 67, 93, 141, 128, 89, 1, 0.613325
362, 6, wb, filler, NA, 999, 999, 4, 6, 102, 67, 93, 141, 128, 89, 2, 0.459858
362, 6, wb, filler, NA, 999, 999, 4, 7, 101, 163, 122, 153, 76, 122, 3, 0.75091
362, 6, wb, filler, NA, 999, 999, 4, 7, 101, 163, 122, 153, 76, 122, 2, 0.351986
362, 6, wb, attraction, a-b-db, 9, 1, 4, 8, 57, 129, 60, 135, 135, 60, 1, 0.863888
362, 6, wb, attraction, a-b-db, 9, 1, 4, 8, 57, 129, 60, 135, 135, 60, 2, 0.580324
362, 6, wb, attraction, a-b-da, 14, 2, 4, 9, 165, 90, 153, 83, 90, 165, 2, 1.49864
362, 6, wb, attraction, a-b-da, 14, 2, 4, 9, 165, 90, 153, 83, 90, 165, 3, 0.925575
362, 6, wb, attraction, a-b-da, 9, 1, 4, 10, 129, 57, 60, 135, 135, 60, 1, 1.03786
362, 6, wb, attraction, a-b-da, 9, 1, 4, 10, 129, 57, 60, 135, 135, 60, 2, 0.498812
362, 6, wb, attraction, a-b-db, 2, 3, 4, 11, 195, 120, 120, 195, 119, 193, 3, 1.86059
362, 6, wb, attraction, a-b-db, 2, 3, 4, 11, 195, 120, 120, 195, 119, 193, 1, 1.53657
362, 6, wb, attraction, a-b-da, 5, 1, 4, 12, 60, 135, 135, 60, 132, 58, 1, 1.16879
362, 6, wb, attraction, a-b-da, 5, 1, 4, 12, 60, 135, 135, 60, 132, 58, 2, 0.713009
362, 6, wb, attraction, a-b-db, 14, 1, 4, 13, 56, 125, 60, 135, 135, 60, 1, 0.658012
362, 6, wb, attraction, a-b-db, 14, 1, 4, 13, 56, 125, 60, 135, 135, 60, 2, 0.502504
362, 6, wb, attraction, a-b-db, 5, 3, 4, 14, 117, 190, 120, 195, 195, 120, 3, 1.44828
362, 6, wb, attraction, a-b-db, 5, 3, 4, 14, 117, 190, 120, 195, 195, 120, 2, 1.38917
362, 6, wb, attraction, a-b-da, 5, 2, 4, 15, 90, 165, 161, 88, 165, 90, 1, 3.94738
362, 6, wb, attraction, a-b-da, 5, 2, 4, 15, 90, 165, 161, 88, 165, 90, 2, 0.571305
362, 6, wb, attraction, a-b-da, 9, 3, 4, 16, 195, 120, 120, 195, 186, 114, 3, 4.49048
362, 6, wb, attraction, a-b-da, 9, 3, 4, 16, 195, 120, 120, 195, 186, 114, 2, 1.18846
362, 6, wb, filler, NA, 999, 999, 4, 17, 136, 60, 116, 191, 175, 82, 1, 0.666569
362, 6, wb, filler, NA, 999, 999, 4, 17, 136, 60, 116, 191, 175, 82, 2, 0.478979
362, 6, wb, catch, NA, 999, 999, 4, 18, 92, 103, 103, 152, 144, 171, 1, 0.705519
362, 6, wb, catch, NA, 999, 999, 4, 18, 92, 103, 103, 152, 144, 171, 3, 0.69211
362, 6, wb, attraction, a-b-db, 14, 2, 4, 19, 83, 153, 165, 90, 90, 165, 1, 0.997683
362, 6, wb, attraction, a-b-db, 14, 2, 4, 19, 83, 153, 165, 90, 90, 165, 2, 0.564606
362, 6, wb, attraction, a-b-da, 14, 3, 4, 20, 195, 120, 120, 195, 181, 111, 3, 0.939734
362, 6, wb, attraction, a-b-da, 14, 3, 4, 20, 195, 120, 120, 195, 181, 111, 2, 0.756807
362, 6, wb, filler, NA, 999, 999, 4, 21, 193, 177, 80, 107, 139, 110, 2, 0.643854
362, 6, wb, filler, NA, 999, 999, 4, 21, 193, 177, 80, 107, 139, 110, 1, 0.288952
362, 6, wb, filler, NA, 999, 999, 4, 22, 132, 136, 164, 62, 84, 147, 2, 1.27541
362, 6, wb, filler, NA, 999, 999, 4, 22, 132, 136, 164, 62, 84, 147, 1, 0.758937
362, 6, wb, attraction, a-b-db, 5, 2, 4, 23, 165, 90, 88, 161, 90, 165, 3, 1.08614
362, 6, wb, attraction, a-b-db, 5, 2, 4, 23, 165, 90, 88, 161, 90, 165, 2, 0.569734
362, 6, wb, attraction, a-b-db, 14, 3, 4, 24, 195, 120, 120, 195, 111, 181, 3, 1.22472
362, 6, wb, attraction, a-b-db, 14, 3, 4, 24, 195, 120, 120, 195, 111, 181, 2, 0.590365
362, 6, wb, attraction, a-b-db, 2, 1, 4, 25, 60, 135, 59, 134, 135, 60, 3, 1.75606
362, 6, wb, attraction, a-b-db, 2, 1, 4, 25, 60, 135, 59, 134, 135, 60, 1, 1.14019
362, 6, wb, filler, NA, 999, 999, 4, 26, 124, 126, 90, 108, 104, 110, 3, 0.987812
362, 6, wb, filler, NA, 999, 999, 4, 26, 124, 126, 90, 108, 104, 110, 1, 0.578946
362, 6, wb, filler, NA, 999, 999, 4, 27, 141, 138, 183, 138, 91, 116, 3, 0.969201
362, 6, wb, filler, NA, 999, 999, 4, 27, 141, 138, 183, 138, 91, 116, 2, 0.409593
362, 6, wb, attraction, a-b-da, 2, 1, 4, 28, 135, 60, 134, 59, 60, 135, 3, 1.29468
362, 6, wb, attraction, a-b-da, 2, 1, 4, 28, 135, 60, 134, 59, 60, 135, 2, 0.513595
362, 6, wb, catch, NA, 999, 999, 4, 29, 173, 142, 131, 124, 125, 70, 3, 1.17885
362, 6, wb, catch, NA, 999, 999, 4, 29, 173, 142, 131, 124, 125, 70, 1, 0.498268
362, 6, wb, attraction, a-b-db, 5, 1, 4, 30, 135, 60, 60, 135, 58, 132, 3, 1.74816
362, 6, wb, attraction, a-b-db, 5, 1, 4, 30, 135, 60, 60, 135, 58, 132, 2, 1.10091
362, 6, wb, attraction, a-b-db, 9, 3, 4, 31, 114, 186, 195, 120, 120, 195, 1, 2.77439
362, 6, wb, attraction, a-b-db, 9, 3, 4, 31, 114, 186, 195, 120, 120, 195, 2, 1.33354
362, 6, wb, filler, NA, 999, 999, 4, 32, 68, 68, 73, 96, 106, 132, 1, 0.821758
362, 6, wb, filler, NA, 999, 999, 4, 32, 68, 68, 73, 96, 106, 132, 3, 0.387467
362, 6, wb, filler, NA, 999, 999, 4, 33, 192, 116, 59, 80, 159, 141, 2, 1.20996
362, 6, wb, filler, NA, 999, 999, 4, 33, 192, 116, 59, 80, 159, 141, 1, 0.616196
362, 6, wb, attraction, a-b-da, 9, 2, 4, 34, 90, 165, 157, 86, 165, 90, 3, 0.957404
362, 6, wb, attraction, a-b-da, 9, 2, 4, 34, 90, 165, 157, 86, 165, 90, 1, 0.365665
362, 6, wb, attraction, a-b-da, 14, 1, 4, 35, 125, 56, 60, 135, 135, 60, 1, 2.35683
362, 6, wb, attraction, a-b-da, 14, 1, 4, 35, 125, 56, 60, 135, 135, 60, 2, 0.852716
362, 6, wb, attraction, a-b-db, 9, 2, 4, 36, 86, 157, 165, 90, 90, 165, 2, 2.80044
362, 6, wb, attraction, a-b-db, 9, 2, 4, 36, 86, 157, 165, 90, 90, 165, 3, 0.854884
362, 6, wb, attraction, a-b-db, 2, 2, 4, 37, 89, 163, 90, 165, 165, 90, 1, 1.9225
362, 6, wb, attraction, a-b-db, 2, 2, 4, 37, 89, 163, 90, 165, 165, 90, 2, 0.595862
362, 6, wb, filler, NA, 999, 999, 5, 1, 118, 81, 100, 186, 122, 166, 1, 2.01626
362, 6, wb, filler, NA, 999, 999, 5, 1, 118, 81, 100, 186, 122, 166, 3, 1.00627
362, 6, wb, attraction, a-b-da, 9, 2, 5, 2, 157, 86, 90, 165, 165, 90, 1, 1.36325
362, 6, wb, attraction, a-b-da, 9, 2, 5, 2, 157, 86, 90, 165, 165, 90, 2, 1.81153
362, 6, wb, catch, NA, 999, 999, 5, 3, 131, 184, 165, 90, 103, 92, 3, 1.3281
362, 6, wb, catch, NA, 999, 999, 5, 3, 131, 184, 165, 90, 103, 92, 1, 0.433661
362, 6, wb, attraction, a-b-da, 5, 2, 5, 4, 161, 88, 90, 165, 165, 90, 1, 0.76625
362, 6, wb, attraction, a-b-da, 5, 2, 5, 4, 161, 88, 90, 165, 165, 90, 2, 0.870561
362, 6, wb, attraction, a-b-da, 14, 2, 5, 5, 153, 83, 165, 90, 90, 165, 1, 1.59352
362, 6, wb, attraction, a-b-da, 14, 2, 5, 5, 153, 83, 165, 90, 90, 165, 3, 1.60041
362, 6, wb, filler, NA, 999, 999, 5, 6, 56, 119, 134, 136, 174, 148, 1, 0.885875
362, 6, wb, filler, NA, 999, 999, 5, 6, 56, 119, 134, 136, 174, 148, 3, 0.473528
362, 6, wb, filler, NA, 999, 999, 5, 7, 95, 71, 79, 140, 139, 165, 1, 0.635914
362, 6, wb, filler, NA, 999, 999, 5, 7, 95, 71, 79, 140, 139, 165, 3, 0.505723
362, 6, wb, filler, NA, 999, 999, 5, 8, 105, 101, 85, 146, 134, 178, 1, 0.779467
362, 6, wb, filler, NA, 999, 999, 5, 8, 105, 101, 85, 146, 134, 178, 3, 0.483292
362, 6, wb, attraction, a-b-db, 14, 1, 5, 9, 56, 125, 135, 60, 60, 135, 1, 1.58168
362, 6, wb, attraction, a-b-db, 14, 1, 5, 9, 56, 125, 135, 60, 60, 135, 3, 2.70133
362, 6, wb, filler, NA, 999, 999, 5, 10, 166, 166, 74, 184, 158, 77, 3, 1.03024
362, 6, wb, filler, NA, 999, 999, 5, 10, 166, 166, 74, 184, 158, 77, 1, 0.539899
362, 6, wb, attraction, a-b-da, 2, 2, 5, 11, 163, 89, 165, 90, 90, 165, 2, 4.57977
362, 6, wb, attraction, a-b-da, 2, 2, 5, 11, 163, 89, 165, 90, 90, 165, 3, 2.66624
362, 6, wb, attraction, a-b-da, 5, 3, 5, 12, 195, 120, 120, 195, 190, 117, 1, 1.01262
362, 6, wb, attraction, a-b-da, 5, 3, 5, 12, 195, 120, 120, 195, 190, 117, 2, 0.491042
362, 6, wb, attraction, a-b-db, 2, 3, 5, 13, 195, 120, 120, 195, 119, 193, 1, 1.69281
362, 6, wb, attraction, a-b-db, 2, 3, 5, 13, 195, 120, 120, 195, 119, 193, 2, 0.423516
362, 6, wb, attraction, a-b-da, 2, 3, 5, 14, 193, 119, 195, 120, 120, 195, 1, 0.940021
362, 6, wb, attraction, a-b-da, 2, 3, 5, 14, 193, 119, 195, 120, 120, 195, 2, 0.437192
362, 6, wb, attraction, a-b-da, 9, 1, 5, 15, 60, 135, 135, 60, 129, 57, 3, 1.36955
362, 6, wb, attraction, a-b-da, 9, 1, 5, 15, 60, 135, 135, 60, 129, 57, 1, 0.793737
362, 6, wb, attraction, a-b-db, 9, 2, 5, 16, 165, 90, 90, 165, 86, 157, 1, 1.52741
362, 6, wb, attraction, a-b-db, 9, 2, 5, 16, 165, 90, 90, 165, 86, 157, 2, 0.553021
362, 6, wb, attraction, a-b-da, 14, 3, 5, 17, 195, 120, 181, 111, 120, 195, 2, 1.80876
362, 6, wb, attraction, a-b-da, 14, 3, 5, 17, 195, 120, 181, 111, 120, 195, 1, 0.926774
362, 6, wb, filler, NA, 999, 999, 5, 18, 132, 113, 94, 58, 180, 158, 2, 0.84709
362, 6, wb, filler, NA, 999, 999, 5, 18, 132, 113, 94, 58, 180, 158, 3, 0.292163
362, 6, wb, filler, NA, 999, 999, 5, 19, 171, 195, 76, 71, 164, 180, 2, 0.597915
362, 6, wb, filler, NA, 999, 999, 5, 19, 171, 195, 76, 71, 164, 180, 1, 0.453038
362, 6, wb, attraction, a-b-db, 2, 1, 5, 20, 135, 60, 59, 134, 60, 135, 1, 0.944856
362, 6, wb, attraction, a-b-db, 2, 1, 5, 20, 135, 60, 59, 134, 60, 135, 2, 0.4339
362, 6, wb, attraction, a-b-da, 9, 3, 5, 21, 120, 195, 195, 120, 186, 114, 3, 1.26245
362, 6, wb, attraction, a-b-da, 9, 3, 5, 21, 120, 195, 195, 120, 186, 114, 2, 0.810591
362, 6, wb, catch, NA, 999, 999, 5, 22, 93, 162, 195, 120, 117, 78, 3, 0.599589
362, 6, wb, catch, NA, 999, 999, 5, 22, 93, 162, 195, 120, 117, 78, 2, 0.310763
362, 6, wb, attraction, a-b-db, 14, 2, 5, 23, 90, 165, 165, 90, 83, 153, 3, 0.872034
362, 6, wb, attraction, a-b-db, 14, 2, 5, 23, 90, 165, 165, 90, 83, 153, 1, 0.755627
362, 6, wb, filler, NA, 999, 999, 5, 24, 107, 56, 59, 167, 114, 125, 1, 0.803334
362, 6, wb, filler, NA, 999, 999, 5, 24, 107, 56, 59, 167, 114, 125, 3, 0.450406
362, 6, wb, attraction, a-b-db, 14, 3, 5, 25, 195, 120, 120, 195, 111, 181, 3, 1.15037
362, 6, wb, attraction, a-b-db, 14, 3, 5, 25, 195, 120, 120, 195, 111, 181, 2, 0.303128
362, 6, wb, attraction, a-b-da, 2, 1, 5, 26, 60, 135, 134, 59, 135, 60, 1, 0.752987
362, 6, wb, attraction, a-b-da, 2, 1, 5, 26, 60, 135, 134, 59, 135, 60, 2, 0.55408
362, 6, wb, attraction, a-b-db, 2, 2, 5, 27, 90, 165, 89, 163, 165, 90, 3, 1.10584
362, 6, wb, attraction, a-b-db, 2, 2, 5, 27, 90, 165, 89, 163, 165, 90, 1, 0.476137
362, 6, wb, filler, NA, 999, 999, 5, 28, 117, 110, 128, 161, 136, 187, 1, 0.726572
362, 6, wb, filler, NA, 999, 999, 5, 28, 117, 110, 128, 161, 136, 187, 3, 0.45635
362, 6, wb, attraction, a-b-db, 9, 1, 5, 29, 60, 135, 135, 60, 57, 129, 3, 0.787425
362, 6, wb, attraction, a-b-db, 9, 1, 5, 29, 60, 135, 135, 60, 57, 129, 1, 0.37851
362, 6, wb, attraction, a-b-db, 9, 3, 5, 30, 120, 195, 195, 120, 114, 186, 1, 1.21699
362, 6, wb, attraction, a-b-db, 9, 3, 5, 30, 120, 195, 195, 120, 114, 186, 2, 0.583301
362, 6, wb, catch, NA, 999, 999, 5, 31, 98, 157, 173, 142, 126, 69, 3, 0.91781
362, 6, wb, catch, NA, 999, 999, 5, 31, 98, 157, 173, 142, 126, 69, 2, 0.464111
362, 6, wb, attraction, a-b-db, 5, 1, 5, 32, 135, 60, 60, 135, 58, 132, 3, 1.69929
362, 6, wb, attraction, a-b-db, 5, 1, 5, 32, 135, 60, 60, 135, 58, 132, 1, 0.605948
362, 6, wb, filler, NA, 999, 999, 5, 33, 97, 178, 117, 164, 83, 111, 3, 0.683728
362, 6, wb, filler, NA, 999, 999, 5, 33, 97, 178, 117, 164, 83, 111, 2, 0.583564
362, 6, wb, attraction, a-b-da, 14, 1, 5, 34, 135, 60, 60, 135, 125, 56, 3, 1.14198
362, 6, wb, attraction, a-b-da, 14, 1, 5, 34, 135, 60, 60, 135, 125, 56, 1, 0.646879
362, 6, wb, attraction, a-b-db, 5, 2, 5, 35, 88, 161, 90, 165, 165, 90, 2, 0.914578
362, 6, wb, attraction, a-b-db, 5, 2, 5, 35, 88, 161, 90, 165, 165, 90, 3, 0.485045
362, 6, wb, attraction, a-b-da, 5, 1, 5, 36, 60, 135, 132, 58, 135, 60, 1, 0.919455
362, 6, wb, attraction, a-b-da, 5, 1, 5, 36, 60, 135, 132, 58, 135, 60, 3, 0.561804
362, 6, wb, attraction, a-b-db, 5, 3, 5, 37, 195, 120, 120, 195, 117, 190, 1, 1.34483
362, 6, wb, attraction, a-b-db, 5, 3, 5, 37, 195, 120, 120, 195, 117, 190, 2, 0.641743
362, 6, wb, filler, NA, 999, 999, 6, 1, 121, 150, 180, 70, 122, 95, 3, 1.18151
362, 6, wb, filler, NA, 999, 999, 6, 1, 121, 150, 180, 70, 122, 95, 1, 0.477112
362, 6, wb, filler, NA, 999, 999, 6, 2, 106, 188, 56, 72, 101, 192, 2, 0.631677
362, 6, wb, filler, NA, 999, 999, 6, 2, 106, 188, 56, 72, 101, 192, 3, 0.445506
362, 6, wb, attraction, a-b-db, 14, 2, 6, 3, 165, 90, 90, 165, 83, 153, 1, 1.03314
362, 6, wb, attraction, a-b-db, 14, 2, 6, 3, 165, 90, 90, 165, 83, 153, 2, 0.470879
362, 6, wb, filler, NA, 999, 999, 6, 4, 154, 183, 112, 92, 162, 163, 2, 0.561882
362, 6, wb, filler, NA, 999, 999, 6, 4, 154, 183, 112, 92, 162, 163, 3, 0.466379
362, 6, wb, attraction, a-b-db, 5, 3, 6, 5, 117, 190, 195, 120, 120, 195, 1, 0.757512
362, 6, wb, attraction, a-b-db, 5, 3, 6, 5, 117, 190, 195, 120, 120, 195, 3, 0.653997
362, 6, wb, catch, NA, 999, 999, 6, 6, 114, 141, 72, 123, 157, 158, 2, 1.5296
362, 6, wb, catch, NA, 999, 999, 6, 6, 114, 141, 72, 123, 157, 158, 3, 0.39515
362, 6, wb, attraction, a-b-db, 2, 2, 6, 7, 165, 90, 90, 165, 89, 163, 2, 1.2809
362, 6, wb, attraction, a-b-db, 2, 2, 6, 7, 165, 90, 90, 165, 89, 163, 1, 1.50867
362, 6, wb, attraction, a-b-da, 14, 2, 6, 8, 90, 165, 165, 90, 153, 83, 3, 1.09339
362, 6, wb, attraction, a-b-da, 14, 2, 6, 8, 90, 165, 165, 90, 153, 83, 2, 0.768319
362, 6, wb, catch, NA, 999, 999, 6, 9, 143, 112, 168, 147, 81, 114, 3, 0.823348
362, 6, wb, catch, NA, 999, 999, 6, 9, 143, 112, 168, 147, 81, 114, 2, 0.685104
362, 6, wb, attraction, a-b-da, 5, 2, 6, 10, 90, 165, 161, 88, 165, 90, 1, 0.783481
362, 6, wb, attraction, a-b-da, 5, 2, 6, 10, 90, 165, 161, 88, 165, 90, 2, 1.36722
362, 6, wb, attraction, a-b-db, 9, 2, 6, 11, 86, 157, 90, 165, 165, 90, 1, 0.59803
362, 6, wb, attraction, a-b-db, 9, 2, 6, 11, 86, 157, 90, 165, 165, 90, 2, 0.517076
362, 6, wb, filler, NA, 999, 999, 6, 12, 99, 147, 141, 188, 98, 57, 3, 1.05431
362, 6, wb, filler, NA, 999, 999, 6, 12, 99, 147, 141, 188, 98, 57, 2, 0.306538
362, 6, wb, attraction, a-b-db, 5, 2, 6, 13, 165, 90, 90, 165, 88, 161, 1, 1.80386
362, 6, wb, attraction, a-b-db, 5, 2, 6, 13, 165, 90, 90, 165, 88, 161, 2, 0.577939
362, 6, wb, filler, NA, 999, 999, 6, 14, 143, 60, 101, 84, 82, 110, 2, 0.680344
362, 6, wb, filler, NA, 999, 999, 6, 14, 143, 60, 101, 84, 82, 110, 3, 0.860125
362, 6, wb, attraction, a-b-da, 5, 3, 6, 15, 195, 120, 120, 195, 190, 117, 1, 1.15908
362, 6, wb, attraction, a-b-da, 5, 3, 6, 15, 195, 120, 120, 195, 190, 117, 2, 0.439247
362, 6, wb, attraction, a-b-da, 2, 1, 6, 16, 134, 59, 60, 135, 135, 60, 2, 0.771743
362, 6, wb, attraction, a-b-da, 2, 1, 6, 16, 134, 59, 60, 135, 135, 60, 3, 0.475581
362, 6, wb, attraction, a-b-db, 2, 3, 6, 17, 119, 193, 120, 195, 195, 120, 2, 0.741963
362, 6, wb, attraction, a-b-db, 2, 3, 6, 17, 119, 193, 120, 195, 195, 120, 3, 0.535092
362, 6, wb, attraction, a-b-da, 2, 3, 6, 18, 120, 195, 193, 119, 195, 120, 3, 4.18349
362, 6, wb, attraction, a-b-da, 2, 3, 6, 18, 120, 195, 193, 119, 195, 120, 1, 1.55013
362, 6, wb, attraction, a-b-da, 9, 1, 6, 19, 60, 135, 129, 57, 135, 60, 2, 0.613549
362, 6, wb, attraction, a-b-da, 9, 1, 6, 19, 60, 135, 129, 57, 135, 60, 1, 0.795989
362, 6, wb, attraction, a-b-da, 9, 2, 6, 20, 165, 90, 90, 165, 157, 86, 3, 1.52975
362, 6, wb, attraction, a-b-da, 9, 2, 6, 20, 165, 90, 90, 165, 157, 86, 2, 0.451242
362, 6, wb, filler, NA, 999, 999, 6, 21, 103, 58, 110, 188, 113, 78, 1, 0.767035
362, 6, wb, filler, NA, 999, 999, 6, 21, 103, 58, 110, 188, 113, 78, 2, 0.303472
362, 6, wb, attraction, a-b-da, 14, 1, 6, 22, 60, 135, 135, 60, 125, 56, 3, 2.17731
362, 6, wb, attraction, a-b-da, 14, 1, 6, 22, 60, 135, 135, 60, 125, 56, 1, 1.50466
362, 6, wb, filler, NA, 999, 999, 6, 23, 94, 184, 194, 155, 195, 65, 3, 2.21809
362, 6, wb, filler, NA, 999, 999, 6, 23, 94, 184, 194, 155, 195, 65, 2, 1.36007
362, 6, wb, filler, NA, 999, 999, 6, 24, 85, 181, 168, 66, 148, 141, 2, 0.727023
362, 6, wb, filler, NA, 999, 999, 6, 24, 85, 181, 168, 66, 148, 141, 3, 0.432635
362, 6, wb, attraction, a-b-db, 14, 1, 6, 25, 56, 125, 60, 135, 135, 60, 3, 1.17308
362, 6, wb, attraction, a-b-db, 14, 1, 6, 25, 56, 125, 60, 135, 135, 60, 2, 1.66884
362, 6, wb, attraction, a-b-da, 14, 3, 6, 26, 181, 111, 120, 195, 195, 120, 1, 0.975378
362, 6, wb, attraction, a-b-da, 14, 3, 6, 26, 181, 111, 120, 195, 195, 120, 2, 0.455067
362, 6, wb, attraction, a-b-da, 5, 1, 6, 27, 135, 60, 60, 135, 132, 58, 1, 2.49889
362, 6, wb, attraction, a-b-da, 5, 1, 6, 27, 135, 60, 60, 135, 132, 58, 2, 0.485383
362, 6, wb, attraction, a-b-db, 5, 1, 6, 28, 135, 60, 58, 132, 60, 135, 2, 0.703988
362, 6, wb, attraction, a-b-db, 5, 1, 6, 28, 135, 60, 58, 132, 60, 135, 3, 0.434272
362, 6, wb, attraction, a-b-db, 9, 1, 6, 29, 135, 60, 57, 129, 60, 135, 1, 2.13477
362, 6, wb, attraction, a-b-db, 9, 1, 6, 29, 135, 60, 57, 129, 60, 135, 2, 0.68823
362, 6, wb, attraction, a-b-db, 14, 3, 6, 30, 120, 195, 111, 181, 195, 120, 2, 7.33053
362, 6, wb, attraction, a-b-db, 14, 3, 6, 30, 120, 195, 111, 181, 195, 120, 1, 0.442247
362, 6, wb, catch, NA, 999, 999, 6, 31, 96, 99, 126, 129, 184, 131, 1, 0.782033
362, 6, wb, catch, NA, 999, 999, 6, 31, 96, 99, 126, 129, 184, 131, 3, 0.437771
362, 6, wb, filler, NA, 999, 999, 6, 32, 172, 185, 118, 178, 137, 152, 3, 1.05816
362, 6, wb, filler, NA, 999, 999, 6, 32, 172, 185, 118, 178, 137, 152, 1, 0.414509
362, 6, wb, attraction, a-b-db, 2, 1, 6, 33, 59, 134, 60, 135, 135, 60, 1, 0.707689
362, 6, wb, attraction, a-b-db, 2, 1, 6, 33, 59, 134, 60, 135, 135, 60, 2, 0.430035
362, 6, wb, attraction, a-b-da, 2, 2, 6, 34, 163, 89, 165, 90, 90, 165, 1, 1.98649
362, 6, wb, attraction, a-b-da, 2, 2, 6, 34, 163, 89, 165, 90, 90, 165, 3, 0.354003
362, 6, wb, attraction, a-b-da, 9, 3, 6, 35, 120, 195, 195, 120, 186, 114, 3, 0.809825
362, 6, wb, attraction, a-b-da, 9, 3, 6, 35, 120, 195, 195, 120, 186, 114, 1, 0.624135
362, 6, wb, filler, NA, 999, 999, 6, 36, 175, 151, 73, 128, 170, 107, 2, 0.548594
362, 6, wb, filler, NA, 999, 999, 6, 36, 175, 151, 73, 128, 170, 107, 1, 0.341722
362, 6, wb, attraction, a-b-db, 9, 3, 6, 37, 114, 186, 195, 120, 120, 195, 1, 0.989421
362, 6, wb, attraction, a-b-db, 9, 3, 6, 37, 114, 186, 195, 120, 120, 195, 3, 0.324474
362, 6, wb, attraction, a-b-da, 9, 1, 7, 1, 129, 57, 135, 60, 60, 135, 2, 0.700965
362, 6, wb, attraction, a-b-da, 9, 1, 7, 1, 129, 57, 135, 60, 60, 135, 1, 0.368028
362, 6, wb, filler, NA, 999, 999, 7, 2, 93, 143, 141, 101, 119, 182, 1, 0.647191
362, 6, wb, filler, NA, 999, 999, 7, 2, 93, 143, 141, 101, 119, 182, 3, 0.340354
362, 6, wb, attraction, a-b-db, 2, 3, 7, 3, 119, 193, 120, 195, 195, 120, 3, 1.1161
362, 6, wb, attraction, a-b-db, 2, 3, 7, 3, 119, 193, 120, 195, 195, 120, 1, 0.822524
362, 6, wb, attraction, a-b-da, 2, 1, 7, 4, 60, 135, 135, 60, 134, 59, 3, 1.44357
362, 6, wb, attraction, a-b-da, 2, 1, 7, 4, 60, 135, 135, 60, 134, 59, 1, 0.368371
362, 6, wb, attraction, a-b-db, 14, 3, 7, 5, 120, 195, 111, 181, 195, 120, 2, 1.26357
362, 6, wb, attraction, a-b-db, 14, 3, 7, 5, 120, 195, 111, 181, 195, 120, 1, 0.579705
362, 6, wb, attraction, a-b-db, 9, 3, 7, 6, 195, 120, 114, 186, 120, 195, 1, 1.59419
362, 6, wb, attraction, a-b-db, 9, 3, 7, 6, 195, 120, 114, 186, 120, 195, 3, 2.40096
362, 6, wb, attraction, a-b-da, 2, 2, 7, 7, 163, 89, 90, 165, 165, 90, 1, 0.766112
362, 6, wb, attraction, a-b-da, 2, 2, 7, 7, 163, 89, 90, 165, 165, 90, 2, 0.558521
362, 6, wb, filler, NA, 999, 999, 7, 8, 116, 151, 84, 177, 193, 177, 2, 0.877613
362, 6, wb, filler, NA, 999, 999, 7, 8, 116, 151, 84, 177, 193, 177, 3, 0.305307
362, 6, wb, filler, NA, 999, 999, 7, 9, 181, 60, 187, 166, 64, 161, 1, 0.819249
362, 6, wb, filler, NA, 999, 999, 7, 9, 181, 60, 187, 166, 64, 161, 2, 0.273504
362, 6, wb, attraction, a-b-db, 2, 2, 7, 10, 89, 163, 165, 90, 90, 165, 2, 3.16414
362, 6, wb, attraction, a-b-db, 2, 2, 7, 10, 89, 163, 165, 90, 90, 165, 3, 0.571876
362, 6, wb, attraction, a-b-db, 9, 2, 7, 11, 86, 157, 165, 90, 90, 165, 1, 0.858837
362, 6, wb, attraction, a-b-db, 9, 2, 7, 11, 86, 157, 165, 90, 90, 165, 3, 0.663287
362, 6, wb, filler, NA, 999, 999, 7, 12, 120, 76, 157, 74, 127, 190, 1, 0.874269
362, 6, wb, filler, NA, 999, 999, 7, 12, 120, 76, 157, 74, 127, 190, 3, 0.605965
362, 6, wb, attraction, a-b-da, 9, 3, 7, 13, 195, 120, 186, 114, 120, 195, 1, 6.13182
362, 6, wb, attraction, a-b-da, 9, 3, 7, 13, 195, 120, 186, 114, 120, 195, 3, 2.25187
362, 6, wb, attraction, a-b-da, 14, 3, 7, 14, 195, 120, 181, 111, 120, 195, 2, 1.90305
362, 6, wb, attraction, a-b-da, 14, 3, 7, 14, 195, 120, 181, 111, 120, 195, 3, 0.433826
362, 6, wb, attraction, a-b-da, 5, 1, 7, 15, 135, 60, 132, 58, 60, 135, 2, 0.718177
362, 6, wb, attraction, a-b-da, 5, 1, 7, 15, 135, 60, 132, 58, 60, 135, 3, 0.568616
362, 6, wb, filler, NA, 999, 999, 7, 16, 61, 153, 93, 144, 102, 140, 1, 0.615693
362, 6, wb, filler, NA, 999, 999, 7, 16, 61, 153, 93, 144, 102, 140, 2, 0.942214
362, 6, wb, attraction, a-b-db, 5, 1, 7, 17, 58, 132, 135, 60, 60, 135, 1, 0.605848
362, 6, wb, attraction, a-b-db, 5, 1, 7, 17, 58, 132, 135, 60, 60, 135, 2, 0.444306
362, 6, wb, attraction, a-b-da, 14, 1, 7, 18, 125, 56, 60, 135, 135, 60, 1, 0.768074
362, 6, wb, attraction, a-b-da, 14, 1, 7, 18, 125, 56, 60, 135, 135, 60, 2, 0.688466
362, 6, wb, attraction, a-b-db, 5, 2, 7, 19, 88, 161, 165, 90, 90, 165, 1, 1.87481
362, 6, wb, attraction, a-b-db, 5, 2, 7, 19, 88, 161, 165, 90, 90, 165, 3, 0.382386
362, 6, wb, attraction, a-b-db, 14, 1, 7, 20, 56, 125, 135, 60, 60, 135, 1, 1.25275
362, 6, wb, attraction, a-b-db, 14, 1, 7, 20, 56, 125, 135, 60, 60, 135, 2, 0.753705
362, 6, wb, attraction, a-b-db, 9, 1, 7, 21, 135, 60, 57, 129, 60, 135, 2, 1.94539
362, 6, wb, attraction, a-b-db, 9, 1, 7, 21, 135, 60, 57, 129, 60, 135, 3, 0.458149
362, 6, wb, attraction, a-b-da, 2, 3, 7, 22, 195, 120, 120, 195, 193, 119, 1, 0.9972
362, 6, wb, attraction, a-b-da, 2, 3, 7, 22, 195, 120, 120, 195, 193, 119, 2, 0.420157
362, 6, wb, attraction, a-b-db, 14, 2, 7, 23, 165, 90, 83, 153, 90, 165, 2, 1.00131
362, 6, wb, attraction, a-b-db, 14, 2, 7, 23, 165, 90, 83, 153, 90, 165, 1, 0.520263
362, 6, wb, filler, NA, 999, 999, 7, 24, 70, 67, 121, 157, 147, 157, 1, 0.737505
362, 6, wb, filler, NA, 999, 999, 7, 24, 70, 67, 121, 157, 147, 157, 3, 0.530553
362, 6, wb, attraction, a-b-da, 5, 3, 7, 25, 120, 195, 190, 117, 195, 120, 2, 1.29901
362, 6, wb, attraction, a-b-da, 5, 3, 7, 25, 120, 195, 190, 117, 195, 120, 1, 0.342006
362, 6, wb, filler, NA, 999, 999, 7, 26, 64, 122, 159, 191, 97, 121, 1, 1.74979
362, 6, wb, filler, NA, 999, 999, 7, 26, 64, 122, 159, 191, 97, 121, 2, 0.718472
362, 6, wb, catch, NA, 999, 999, 7, 27, 163, 152, 149, 106, 63, 132, 3, 1.20775
362, 6, wb, catch, NA, 999, 999, 7, 27, 163, 152, 149, 106, 63, 132, 1, 0.381811
362, 6, wb, attraction, a-b-da, 14, 2, 7, 28, 153, 83, 165, 90, 90, 165, 1, 1.08423
362, 6, wb, attraction, a-b-da, 14, 2, 7, 28, 153, 83, 165, 90, 90, 165, 3, 0.536017
362, 6, wb, attraction, a-b-db, 5, 3, 7, 29, 195, 120, 117, 190, 120, 195, 1, 1.32829
362, 6, wb, attraction, a-b-db, 5, 3, 7, 29, 195, 120, 117, 190, 120, 195, 3, 0.417942
362, 6, wb, attraction, a-b-db, 2, 1, 7, 30, 59, 134, 135, 60, 60, 135, 2, 1.91112
362, 6, wb, attraction, a-b-db, 2, 1, 7, 30, 59, 134, 135, 60, 60, 135, 3, 2.36119
362, 6, wb, filler, NA, 999, 999, 7, 31, 76, 169, 182, 134, 107, 141, 1, 0.719659
362, 6, wb, filler, NA, 999, 999, 7, 31, 76, 169, 182, 134, 107, 141, 2, 0.370062
362, 6, wb, attraction, a-b-da, 9, 2, 7, 32, 157, 86, 165, 90, 90, 165, 1, 1.14522
362, 6, wb, attraction, a-b-da, 9, 2, 7, 32, 157, 86, 165, 90, 90, 165, 2, 0.842191
362, 6, wb, catch, NA, 999, 999, 7, 33, 155, 100, 165, 150, 63, 132, 3, 0.821858
362, 6, wb, catch, NA, 999, 999, 7, 33, 155, 100, 165, 150, 63, 132, 2, 0.435576
362, 6, wb, filler, NA, 999, 999, 7, 34, 140, 136, 107, 190, 170, 130, 1, 0.95198
362, 6, wb, filler, NA, 999, 999, 7, 34, 140, 136, 107, 190, 170, 130, 3, 0.553033
362, 6, wb, filler, NA, 999, 999, 7, 35, 171, 189, 81, 172, 106, 110, 3, 1.89674
362, 6, wb, filler, NA, 999, 999, 7, 35, 171, 189, 81, 172, 106, 110, 1, 0.563665
362, 6, wb, catch, NA, 999, 999, 7, 36, 127, 188, 64, 131, 158, 97, 2, 0.682544
362, 6, wb, catch, NA, 999, 999, 7, 36, 127, 188, 64, 131, 158, 97, 1, 0.42235
362, 6, wb, attraction, a-b-da, 5, 2, 7, 37, 161, 88, 165, 90, 90, 165, 1, 2.2195
362, 6, wb, attraction, a-b-da, 5, 2, 7, 37, 161, 88, 165, 90, 90, 165, 2, 0.377457
362, 6, wb, attraction, a-b-da, 2, 2, 8, 1, 165, 90, 90, 165, 163, 89, 1, 0.991979
362, 6, wb, attraction, a-b-da, 2, 2, 8, 1, 165, 90, 90, 165, 163, 89, 2, 0.446973
362, 6, wb, filler, NA, 999, 999, 8, 2, 121, 182, 153, 111, 180, 173, 2, 0.826733
362, 6, wb, filler, NA, 999, 999, 8, 2, 121, 182, 153, 111, 180, 173, 3, 0.288445
362, 6, wb, filler, NA, 999, 999, 8, 3, 162, 176, 106, 171, 89, 114, 3, 0.562939
362, 6, wb, filler, NA, 999, 999, 8, 3, 162, 176, 106, 171, 89, 114, 1, 0.411474
362, 6, wb, attraction, a-b-da, 9, 1, 8, 4, 129, 57, 60, 135, 135, 60, 1, 0.992554
362, 6, wb, attraction, a-b-da, 9, 1, 8, 4, 129, 57, 60, 135, 135, 60, 2, 0.367537
362, 6, wb, attraction, a-b-da, 14, 1, 8, 5, 125, 56, 135, 60, 60, 135, 1, 1.07087
362, 6, wb, attraction, a-b-da, 14, 1, 8, 5, 125, 56, 135, 60, 60, 135, 2, 0.330409
362, 6, wb, filler, NA, 999, 999, 8, 6, 150, 152, 92, 180, 187, 125, 2, 1.22691
362, 6, wb, filler, NA, 999, 999, 8, 6, 150, 152, 92, 180, 187, 125, 1, 0.600484
362, 6, wb, attraction, a-b-db, 5, 1, 8, 7, 60, 135, 58, 132, 135, 60, 3, 1.99033
362, 6, wb, attraction, a-b-db, 5, 1, 8, 7, 60, 135, 58, 132, 135, 60, 1, 0.732894
362, 6, wb, attraction, a-b-db, 14, 2, 8, 8, 165, 90, 83, 153, 90, 165, 2, 0.7813
362, 6, wb, attraction, a-b-db, 14, 2, 8, 8, 165, 90, 83, 153, 90, 165, 3, 0.692991
362, 6, wb, filler, NA, 999, 999, 8, 9, 186, 149, 186, 79, 138, 189, 2, 0.702723
362, 6, wb, filler, NA, 999, 999, 8, 9, 186, 149, 186, 79, 138, 189, 1, 0.449935
362, 6, wb, attraction, a-b-db, 5, 3, 8, 10, 120, 195, 195, 120, 117, 190, 2, 2.64559
362, 6, wb, attraction, a-b-db, 5, 3, 8, 10, 120, 195, 195, 120, 117, 190, 3, 0.354115
362, 6, wb, attraction, a-b-da, 5, 1, 8, 11, 60, 135, 132, 58, 135, 60, 2, 1.02597
362, 6, wb, attraction, a-b-da, 5, 1, 8, 11, 60, 135, 132, 58, 135, 60, 1, 0.527762
362, 6, wb, attraction, a-b-db, 9, 1, 8, 12, 60, 135, 57, 129, 135, 60, 2, 1.07203
362, 6, wb, attraction, a-b-db, 9, 1, 8, 12, 60, 135, 57, 129, 135, 60, 1, 0.619719
362, 6, wb, catch, NA, 999, 999, 8, 13, 88, 107, 134, 181, 102, 153, 1, 0.936773
362, 6, wb, catch, NA, 999, 999, 8, 13, 88, 107, 134, 181, 102, 153, 2, 0.306422
362, 6, wb, attraction, a-b-db, 5, 2, 8, 14, 88, 161, 165, 90, 90, 165, 2, 1.18763
362, 6, wb, attraction, a-b-db, 5, 2, 8, 14, 88, 161, 165, 90, 90, 165, 3, 0.338609
362, 6, wb, attraction, a-b-db, 2, 3, 8, 15, 119, 193, 120, 195, 195, 120, 2, 1.70726
362, 6, wb, attraction, a-b-db, 2, 3, 8, 15, 119, 193, 120, 195, 195, 120, 3, 0.885206
362, 6, wb, attraction, a-b-db, 2, 1, 8, 16, 60, 135, 135, 60, 59, 134, 3, 1.22347
362, 6, wb, attraction, a-b-db, 2, 1, 8, 16, 60, 135, 135, 60, 59, 134, 2, 0.829138
362, 6, wb, filler, NA, 999, 999, 8, 17, 117, 188, 90, 58, 58, 134, 2, 0.793405
362, 6, wb, filler, NA, 999, 999, 8, 17, 117, 188, 90, 58, 58, 134, 1, 0.37654
362, 6, wb, attraction, a-b-da, 9, 3, 8, 18, 186, 114, 195, 120, 120, 195, 1, 0.814985
362, 6, wb, attraction, a-b-da, 9, 3, 8, 18, 186, 114, 195, 120, 120, 195, 2, 0.501358
362, 6, wb, filler, NA, 999, 999, 8, 19, 62, 182, 164, 186, 176, 120, 1, 0.631245
362, 6, wb, filler, NA, 999, 999, 8, 19, 62, 182, 164, 186, 176, 120, 2, 0.324881
362, 6, wb, filler, NA, 999, 999, 8, 20, 160, 132, 146, 155, 189, 104, 3, 2.6695
362, 6, wb, filler, NA, 999, 999, 8, 20, 160, 132, 146, 155, 189, 104, 2, 0.817233
362, 6, wb, attraction, a-b-da, 14, 2, 8, 21, 90, 165, 165, 90, 153, 83, 2, 4.62237
362, 6, wb, attraction, a-b-da, 14, 2, 8, 21, 90, 165, 165, 90, 153, 83, 1, 0.882825
362, 6, wb, attraction, a-b-db, 14, 1, 8, 22, 56, 125, 135, 60, 60, 135, 1, 0.773092
362, 6, wb, attraction, a-b-db, 14, 1, 8, 22, 56, 125, 135, 60, 60, 135, 3, 0.772902
362, 6, wb, filler, NA, 999, 999, 8, 23, 108, 128, 117, 156, 93, 105, 3, 1.73132
362, 6, wb, filler, NA, 999, 999, 8, 23, 108, 128, 117, 156, 93, 105, 2, 0.428707
362, 6, wb, attraction, a-b-db, 2, 2, 8, 24, 89, 163, 165, 90, 90, 165, 2, 1.1053
362, 6, wb, attraction, a-b-db, 2, 2, 8, 24, 89, 163, 165, 90, 90, 165, 1, 0.387475
362, 6, wb, attraction, a-b-da, 5, 3, 8, 25, 195, 120, 120, 195, 190, 117, 3, 1.67392
362, 6, wb, attraction, a-b-da, 5, 3, 8, 25, 195, 120, 120, 195, 190, 117, 2, 0.613328
362, 6, wb, attraction, a-b-da, 9, 2, 8, 26, 165, 90, 90, 165, 157, 86, 3, 1.03441
362, 6, wb, attraction, a-b-da, 9, 2, 8, 26, 165, 90, 90, 165, 157, 86, 2, 0.384135
362, 6, wb, attraction, a-b-db, 9, 2, 8, 27, 165, 90, 86, 157, 90, 165, 2, 1.01454
362, 6, wb, attraction, a-b-db, 9, 2, 8, 27, 165, 90, 86, 157, 90, 165, 3, 0.49298
362, 6, wb, filler, NA, 999, 999, 8, 28, 106, 140, 192, 169, 194, 121, 1, 0.67071
362, 6, wb, filler, NA, 999, 999, 8, 28, 106, 140, 192, 169, 194, 121, 2, 0.322437
362, 6, wb, attraction, a-b-da, 2, 3, 8, 29, 120, 195, 193, 119, 195, 120, 2, 0.771745
362, 6, wb, attraction, a-b-da, 2, 3, 8, 29, 120, 195, 193, 119, 195, 120, 1, 0.395365
362, 6, wb, attraction, a-b-db, 14, 3, 8, 30, 195, 120, 120, 195, 111, 181, 3, 2.03325
362, 6, wb, attraction, a-b-db, 14, 3, 8, 30, 195, 120, 120, 195, 111, 181, 1, 0.486614
362, 6, wb, attraction, a-b-da, 2, 1, 8, 31, 134, 59, 135, 60, 60, 135, 1, 1.20098
362, 6, wb, attraction, a-b-da, 2, 1, 8, 31, 134, 59, 135, 60, 60, 135, 2, 0.359869
362, 6, wb, catch, NA, 999, 999, 8, 32, 171, 144, 96, 99, 161, 94, 2, 0.839046
362, 6, wb, catch, NA, 999, 999, 8, 32, 171, 144, 96, 99, 161, 94, 1, 0.372077
362, 6, wb, filler, NA, 999, 999, 8, 33, 141, 109, 66, 176, 87, 83, 3, 0.547234
362, 6, wb, filler, NA, 999, 999, 8, 33, 141, 109, 66, 176, 87, 83, 1, 0.372453
362, 6, wb, catch, NA, 999, 999, 8, 34, 128, 67, 136, 119, 146, 169, 1, 0.979568
362, 6, wb, catch, NA, 999, 999, 8, 34, 128, 67, 136, 119, 146, 169, 3, 0.467345
362, 6, wb, attraction, a-b-da, 5, 2, 8, 35, 90, 165, 161, 88, 165, 90, 2, 0.790327
362, 6, wb, attraction, a-b-da, 5, 2, 8, 35, 90, 165, 161, 88, 165, 90, 1, 0.469484
362, 6, wb, attraction, a-b-db, 9, 3, 8, 36, 120, 195, 114, 186, 195, 120, 3, 1.5046
362, 6, wb, attraction, a-b-db, 9, 3, 8, 36, 120, 195, 114, 186, 195, 120, 1, 0.354662
362, 6, wb, attraction, a-b-da, 14, 3, 8, 37, 120, 195, 181, 111, 195, 120, 2, 0.706496
362, 6, wb, attraction, a-b-da, 14, 3, 8, 37, 120, 195, 181, 111, 195, 120, 1, 0.612968
