sub_n, computer_n, bw_cond, effect, set, distance, diag, block_n, trial_n, h1, w1, h2, w2, h3, w3, choice, rt 
335, 6, bw, practice, NA, 999, 999, 0, 1, 99, 109, 143, 174, 167, 152, 3, 13.6273
335, 6, bw, practice, NA, 999, 999, 0, 1, 99, 109, 143, 174, 167, 152, 1, 2.0988
335, 6, bw, practice, NA, 999, 999, 0, 2, 132, 79, 176, 166, 128, 172, 2, 3.67287
335, 6, bw, practice, NA, 999, 999, 0, 2, 132, 79, 176, 166, 128, 172, 1, 1.19794
335, 6, bw, practice, NA, 999, 999, 0, 3, 137, 58, 132, 141, 157, 162, 3, 2.64135
335, 6, bw, practice, NA, 999, 999, 0, 3, 137, 58, 132, 141, 157, 162, 1, 1.57258
335, 6, bw, attraction, a-b-da, 2, 2, 1, 1, 90, 165, 165, 90, 163, 89, 2, 22.1776
335, 6, bw, attraction, a-b-da, 2, 2, 1, 1, 90, 165, 165, 90, 163, 89, 1, 2.42662
335, 6, bw, attraction, a-b-db, 5, 2, 1, 2, 90, 165, 165, 90, 88, 161, 1, 3.05457
335, 6, bw, attraction, a-b-db, 5, 2, 1, 2, 90, 165, 165, 90, 88, 161, 3, 2.93087
335, 6, bw, attraction, a-b-da, 5, 1, 1, 3, 132, 58, 135, 60, 60, 135, 3, 3.63461
335, 6, bw, attraction, a-b-da, 5, 1, 1, 3, 132, 58, 135, 60, 60, 135, 1, 2.04743
335, 6, bw, attraction, a-b-da, 2, 3, 1, 4, 195, 120, 120, 195, 193, 119, 2, 3.45866
335, 6, bw, attraction, a-b-da, 2, 3, 1, 4, 195, 120, 120, 195, 193, 119, 3, 1.15844
335, 6, bw, attraction, a-b-db, 14, 3, 1, 5, 120, 195, 195, 120, 111, 181, 2, 2.00524
335, 6, bw, attraction, a-b-db, 14, 3, 1, 5, 120, 195, 195, 120, 111, 181, 3, 0.955206
335, 6, bw, attraction, a-b-da, 5, 2, 1, 6, 90, 165, 161, 88, 165, 90, 1, 3.42686
335, 6, bw, attraction, a-b-da, 5, 2, 1, 6, 90, 165, 161, 88, 165, 90, 2, 0.791724
335, 6, bw, attraction, a-b-db, 2, 1, 1, 7, 60, 135, 59, 134, 135, 60, 1, 6.89348
335, 6, bw, attraction, a-b-db, 2, 1, 1, 7, 60, 135, 59, 134, 135, 60, 2, 1.83856
335, 6, bw, attraction, a-b-db, 5, 3, 1, 8, 195, 120, 120, 195, 117, 190, 1, 4.85065
335, 6, bw, attraction, a-b-db, 5, 3, 1, 8, 195, 120, 120, 195, 117, 190, 3, 0.78251
335, 6, bw, catch, NA, 999, 999, 1, 9, 96, 99, 145, 170, 125, 130, 2, 2.38081
335, 6, bw, catch, NA, 999, 999, 1, 9, 96, 99, 145, 170, 125, 130, 1, 0.892001
335, 6, bw, attraction, a-b-da, 14, 3, 1, 10, 120, 195, 181, 111, 195, 120, 1, 5.48575
335, 6, bw, attraction, a-b-da, 14, 3, 1, 10, 120, 195, 181, 111, 195, 120, 2, 0.767921
335, 6, bw, attraction, a-b-da, 2, 1, 1, 11, 134, 59, 135, 60, 60, 135, 2, 5.44702
335, 6, bw, attraction, a-b-da, 2, 1, 1, 11, 134, 59, 135, 60, 60, 135, 3, 1.72255
335, 6, bw, attraction, a-b-db, 14, 1, 1, 12, 56, 125, 60, 135, 135, 60, 2, 2.56331
335, 6, bw, attraction, a-b-db, 14, 1, 1, 12, 56, 125, 60, 135, 135, 60, 1, 0.579237
335, 6, bw, filler, NA, 999, 999, 1, 13, 136, 71, 124, 189, 77, 119, 2, 0.961482
335, 6, bw, filler, NA, 999, 999, 1, 13, 136, 71, 124, 189, 77, 119, 1, 2.04195
335, 6, bw, attraction, a-b-db, 2, 3, 1, 14, 120, 195, 119, 193, 195, 120, 3, 2.26122
335, 6, bw, attraction, a-b-db, 2, 3, 1, 14, 120, 195, 119, 193, 195, 120, 2, 2.29717
335, 6, bw, attraction, a-b-db, 2, 2, 1, 15, 165, 90, 90, 165, 89, 163, 1, 1.6664
335, 6, bw, attraction, a-b-db, 2, 2, 1, 15, 165, 90, 90, 165, 89, 163, 3, 0.678632
335, 6, bw, filler, NA, 999, 999, 1, 16, 182, 172, 57, 93, 148, 64, 1, 0.760926
335, 6, bw, filler, NA, 999, 999, 1, 16, 182, 172, 57, 93, 148, 64, 2, 0.521424
335, 6, bw, attraction, a-b-db, 9, 2, 1, 17, 165, 90, 86, 157, 90, 165, 1, 4.20241
335, 6, bw, attraction, a-b-db, 9, 2, 1, 17, 165, 90, 86, 157, 90, 165, 2, 0.736337
335, 6, bw, filler, NA, 999, 999, 1, 18, 125, 127, 82, 73, 74, 62, 1, 0.784738
335, 6, bw, filler, NA, 999, 999, 1, 18, 125, 127, 82, 73, 74, 62, 3, 0.560679
335, 6, bw, filler, NA, 999, 999, 1, 19, 96, 118, 89, 113, 157, 73, 1, 2.8396
335, 6, bw, filler, NA, 999, 999, 1, 19, 96, 118, 89, 113, 157, 73, 2, 0.636132
335, 6, bw, attraction, a-b-da, 9, 2, 1, 20, 157, 86, 165, 90, 90, 165, 3, 2.41644
335, 6, bw, attraction, a-b-da, 9, 2, 1, 20, 157, 86, 165, 90, 90, 165, 1, 0.96627
335, 6, bw, attraction, a-b-da, 14, 2, 1, 21, 165, 90, 90, 165, 153, 83, 1, 2.02126
335, 6, bw, attraction, a-b-da, 14, 2, 1, 21, 165, 90, 90, 165, 153, 83, 3, 0.442603
335, 6, bw, attraction, a-b-da, 14, 1, 1, 22, 60, 135, 125, 56, 135, 60, 3, 3.89438
335, 6, bw, attraction, a-b-da, 14, 1, 1, 22, 60, 135, 125, 56, 135, 60, 2, 0.784536
335, 6, bw, attraction, a-b-db, 9, 1, 1, 23, 57, 129, 60, 135, 135, 60, 2, 1.0789
335, 6, bw, attraction, a-b-db, 9, 1, 1, 23, 57, 129, 60, 135, 135, 60, 1, 0.394465
335, 6, bw, filler, NA, 999, 999, 1, 24, 113, 65, 92, 100, 113, 91, 3, 2.24835
335, 6, bw, filler, NA, 999, 999, 1, 24, 113, 65, 92, 100, 113, 91, 1, 0.861014
335, 6, bw, attraction, a-b-da, 9, 3, 1, 25, 120, 195, 186, 114, 195, 120, 3, 3.87993
335, 6, bw, attraction, a-b-da, 9, 3, 1, 25, 120, 195, 186, 114, 195, 120, 2, 0.866669
335, 6, bw, catch, NA, 999, 999, 1, 26, 112, 143, 67, 128, 176, 139, 3, 1.56566
335, 6, bw, catch, NA, 999, 999, 1, 26, 112, 143, 67, 128, 176, 139, 2, 0.773823
335, 6, bw, attraction, a-b-db, 14, 2, 1, 27, 90, 165, 165, 90, 83, 153, 1, 3.23627
335, 6, bw, attraction, a-b-db, 14, 2, 1, 27, 90, 165, 165, 90, 83, 153, 3, 2.4812
335, 6, bw, filler, NA, 999, 999, 1, 28, 137, 70, 146, 139, 59, 117, 2, 0.963014
335, 6, bw, filler, NA, 999, 999, 1, 28, 137, 70, 146, 139, 59, 117, 3, 0.755505
335, 6, bw, attraction, a-b-da, 9, 1, 1, 29, 129, 57, 135, 60, 60, 135, 3, 2.78711
335, 6, bw, attraction, a-b-da, 9, 1, 1, 29, 129, 57, 135, 60, 60, 135, 1, 0.674151
335, 6, bw, filler, NA, 999, 999, 1, 30, 149, 77, 187, 56, 86, 76, 1, 3.36464
335, 6, bw, filler, NA, 999, 999, 1, 30, 149, 77, 187, 56, 86, 76, 3, 1.73216
335, 6, bw, filler, NA, 999, 999, 1, 31, 87, 182, 167, 79, 151, 146, 3, 1.11623
335, 6, bw, filler, NA, 999, 999, 1, 31, 87, 182, 167, 79, 151, 146, 2, 3.97457
335, 6, bw, attraction, a-b-da, 5, 3, 1, 32, 120, 195, 190, 117, 195, 120, 1, 2.36384
335, 6, bw, attraction, a-b-da, 5, 3, 1, 32, 120, 195, 190, 117, 195, 120, 3, 0.779722
335, 6, bw, attraction, a-b-db, 5, 1, 1, 33, 58, 132, 135, 60, 60, 135, 3, 1.71417
335, 6, bw, attraction, a-b-db, 5, 1, 1, 33, 58, 132, 135, 60, 60, 135, 2, 2.79625
335, 6, bw, attraction, a-b-db, 9, 3, 1, 34, 114, 186, 195, 120, 120, 195, 2, 9.60942
335, 6, bw, attraction, a-b-db, 9, 3, 1, 34, 114, 186, 195, 120, 120, 195, 1, 0.500963
335, 6, bw, filler, NA, 999, 999, 1, 35, 153, 62, 139, 131, 185, 111, 2, 6.30276
335, 6, bw, filler, NA, 999, 999, 1, 35, 153, 62, 139, 131, 185, 111, 1, 0.616096
335, 6, bw, filler, NA, 999, 999, 1, 36, 78, 71, 87, 169, 124, 86, 2, 0.885167
335, 6, bw, filler, NA, 999, 999, 1, 36, 78, 71, 87, 169, 124, 86, 1, 0.696873
335, 6, bw, catch, NA, 999, 999, 1, 37, 73, 122, 133, 122, 141, 174, 3, 0.810615
335, 6, bw, catch, NA, 999, 999, 1, 37, 73, 122, 133, 122, 141, 174, 1, 0.440955
335, 6, bw, attraction, a-b-da, 14, 1, 2, 1, 125, 56, 135, 60, 60, 135, 3, 2.84477
335, 6, bw, attraction, a-b-da, 14, 1, 2, 1, 125, 56, 135, 60, 60, 135, 1, 0.84915
335, 6, bw, attraction, a-b-da, 2, 2, 2, 2, 165, 90, 163, 89, 90, 165, 1, 3.09277
335, 6, bw, attraction, a-b-da, 2, 2, 2, 2, 165, 90, 163, 89, 90, 165, 2, 0.375263
335, 6, bw, attraction, a-b-da, 2, 1, 2, 3, 134, 59, 60, 135, 135, 60, 3, 2.43768
335, 6, bw, attraction, a-b-da, 2, 1, 2, 3, 134, 59, 60, 135, 135, 60, 2, 0.386194
335, 6, bw, attraction, a-b-da, 5, 3, 2, 4, 190, 117, 195, 120, 120, 195, 3, 3.15277
335, 6, bw, attraction, a-b-da, 5, 3, 2, 4, 190, 117, 195, 120, 120, 195, 1, 0.560985
335, 6, bw, filler, NA, 999, 999, 2, 5, 184, 145, 97, 136, 143, 83, 1, 1.09614
335, 6, bw, filler, NA, 999, 999, 2, 5, 184, 145, 97, 136, 143, 83, 2, 0.619118
335, 6, bw, filler, NA, 999, 999, 2, 6, 107, 166, 179, 61, 60, 173, 1, 1.41622
335, 6, bw, filler, NA, 999, 999, 2, 6, 107, 166, 179, 61, 60, 173, 3, 1.31053
335, 6, bw, attraction, a-b-da, 14, 2, 2, 7, 90, 165, 153, 83, 165, 90, 3, 2.82337
335, 6, bw, attraction, a-b-da, 14, 2, 2, 7, 90, 165, 153, 83, 165, 90, 2, 2.06037
335, 6, bw, attraction, a-b-db, 14, 3, 2, 8, 195, 120, 111, 181, 120, 195, 3, 2.08699
335, 6, bw, attraction, a-b-db, 14, 3, 2, 8, 195, 120, 111, 181, 120, 195, 2, 0.417665
335, 6, bw, attraction, a-b-da, 9, 2, 2, 9, 157, 86, 90, 165, 165, 90, 2, 3.47886
335, 6, bw, attraction, a-b-da, 9, 2, 2, 9, 157, 86, 90, 165, 165, 90, 1, 0.7377
335, 6, bw, filler, NA, 999, 999, 2, 10, 102, 63, 178, 79, 179, 96, 3, 1.33802
335, 6, bw, filler, NA, 999, 999, 2, 10, 102, 63, 178, 79, 179, 96, 1, 1.05894
335, 6, bw, attraction, a-b-da, 5, 2, 2, 11, 161, 88, 90, 165, 165, 90, 2, 2.90185
335, 6, bw, attraction, a-b-da, 5, 2, 2, 11, 161, 88, 90, 165, 165, 90, 1, 0.456317
335, 6, bw, attraction, a-b-da, 9, 3, 2, 12, 195, 120, 120, 195, 186, 114, 1, 5.9314
335, 6, bw, attraction, a-b-da, 9, 3, 2, 12, 195, 120, 120, 195, 186, 114, 2, 0.451569
335, 6, bw, attraction, a-b-da, 5, 1, 2, 13, 132, 58, 135, 60, 60, 135, 3, 3.10334
335, 6, bw, attraction, a-b-da, 5, 1, 2, 13, 132, 58, 135, 60, 60, 135, 1, 0.425649
335, 6, bw, attraction, a-b-da, 9, 1, 2, 14, 129, 57, 60, 135, 135, 60, 3, 1.42216
335, 6, bw, attraction, a-b-da, 9, 1, 2, 14, 129, 57, 60, 135, 135, 60, 1, 0.771677
335, 6, bw, attraction, a-b-da, 14, 3, 2, 15, 120, 195, 181, 111, 195, 120, 3, 2.33867
335, 6, bw, attraction, a-b-da, 14, 3, 2, 15, 120, 195, 181, 111, 195, 120, 2, 0.979276
335, 6, bw, attraction, a-b-db, 9, 2, 2, 16, 90, 165, 165, 90, 86, 157, 3, 6.92152
335, 6, bw, attraction, a-b-db, 9, 2, 2, 16, 90, 165, 165, 90, 86, 157, 2, 0.450006
335, 6, bw, filler, NA, 999, 999, 2, 17, 82, 137, 148, 69, 117, 90, 1, 4.06979
335, 6, bw, filler, NA, 999, 999, 2, 17, 82, 137, 148, 69, 117, 90, 2, 0.697201
335, 6, bw, attraction, a-b-db, 14, 1, 2, 18, 56, 125, 60, 135, 135, 60, 2, 3.20294
335, 6, bw, attraction, a-b-db, 14, 1, 2, 18, 56, 125, 60, 135, 135, 60, 1, 0.537248
335, 6, bw, attraction, a-b-db, 2, 2, 2, 19, 165, 90, 90, 165, 89, 163, 2, 3.1697
335, 6, bw, attraction, a-b-db, 2, 2, 2, 19, 165, 90, 90, 165, 89, 163, 3, 0.745356
335, 6, bw, attraction, a-b-db, 5, 2, 2, 20, 88, 161, 165, 90, 90, 165, 3, 3.00909
335, 6, bw, attraction, a-b-db, 5, 2, 2, 20, 88, 161, 165, 90, 90, 165, 1, 3.01469
335, 6, bw, attraction, a-b-db, 9, 3, 2, 21, 195, 120, 120, 195, 114, 186, 2, 1.38714
335, 6, bw, attraction, a-b-db, 9, 3, 2, 21, 195, 120, 120, 195, 114, 186, 3, 0.569991
335, 6, bw, filler, NA, 999, 999, 2, 22, 116, 89, 133, 112, 63, 104, 2, 0.848994
335, 6, bw, filler, NA, 999, 999, 2, 22, 116, 89, 133, 112, 63, 104, 3, 0.526042
335, 6, bw, catch, NA, 999, 999, 2, 23, 111, 144, 168, 147, 127, 68, 2, 0.81452
335, 6, bw, catch, NA, 999, 999, 2, 23, 111, 144, 168, 147, 127, 68, 3, 0.780879
335, 6, bw, attraction, a-b-db, 14, 2, 2, 24, 165, 90, 83, 153, 90, 165, 1, 4.04333
335, 6, bw, attraction, a-b-db, 14, 2, 2, 24, 165, 90, 83, 153, 90, 165, 2, 0.63931
335, 6, bw, filler, NA, 999, 999, 2, 25, 71, 133, 181, 98, 169, 176, 3, 7.31573
335, 6, bw, filler, NA, 999, 999, 2, 25, 71, 133, 181, 98, 169, 176, 1, 0.50005
335, 6, bw, attraction, a-b-db, 5, 3, 2, 26, 195, 120, 117, 190, 120, 195, 3, 11.2378
335, 6, bw, attraction, a-b-db, 5, 3, 2, 26, 195, 120, 117, 190, 120, 195, 2, 0.400306
335, 6, bw, attraction, a-b-db, 2, 3, 2, 27, 119, 193, 120, 195, 195, 120, 3, 4.61424
335, 6, bw, attraction, a-b-db, 2, 3, 2, 27, 119, 193, 120, 195, 195, 120, 1, 0.883365
335, 6, bw, attraction, a-b-da, 2, 3, 2, 28, 120, 195, 193, 119, 195, 120, 2, 5.65381
335, 6, bw, attraction, a-b-da, 2, 3, 2, 28, 120, 195, 193, 119, 195, 120, 1, 1.39327
335, 6, bw, attraction, a-b-db, 5, 1, 2, 29, 60, 135, 135, 60, 58, 132, 1, 3.02272
335, 6, bw, attraction, a-b-db, 5, 1, 2, 29, 60, 135, 135, 60, 58, 132, 2, 0.555866
335, 6, bw, catch, NA, 999, 999, 2, 30, 130, 185, 111, 144, 118, 77, 1, 1.17153
335, 6, bw, catch, NA, 999, 999, 2, 30, 130, 185, 111, 144, 118, 77, 3, 1.65918
335, 6, bw, attraction, a-b-db, 2, 1, 2, 31, 60, 135, 135, 60, 59, 134, 2, 7.90988
335, 6, bw, attraction, a-b-db, 2, 1, 2, 31, 60, 135, 135, 60, 59, 134, 1, 0.854019
335, 6, bw, attraction, a-b-db, 9, 1, 2, 32, 57, 129, 60, 135, 135, 60, 3, 1.52974
335, 6, bw, attraction, a-b-db, 9, 1, 2, 32, 57, 129, 60, 135, 135, 60, 1, 0.987191
335, 6, bw, catch, NA, 999, 999, 2, 33, 175, 140, 122, 73, 133, 122, 1, 1.49756
335, 6, bw, catch, NA, 999, 999, 2, 33, 175, 140, 122, 73, 133, 122, 2, 0.444441
335, 6, bw, filler, NA, 999, 999, 2, 34, 98, 130, 109, 153, 139, 102, 2, 1.78418
335, 6, bw, filler, NA, 999, 999, 2, 34, 98, 130, 109, 153, 139, 102, 3, 0.407629
335, 6, bw, filler, NA, 999, 999, 2, 35, 113, 114, 129, 92, 114, 127, 3, 1.01277
335, 6, bw, filler, NA, 999, 999, 2, 35, 113, 114, 129, 92, 114, 127, 2, 0.515028
335, 6, bw, filler, NA, 999, 999, 2, 36, 112, 60, 176, 71, 144, 78, 2, 1.39619
335, 6, bw, filler, NA, 999, 999, 2, 36, 112, 60, 176, 71, 144, 78, 1, 0.370961
335, 6, bw, filler, NA, 999, 999, 2, 37, 159, 88, 69, 190, 79, 194, 1, 1.61823
335, 6, bw, filler, NA, 999, 999, 2, 37, 159, 88, 69, 190, 79, 194, 2, 1.4964
335, 6, bw, attraction, a-b-da, 5, 3, 3, 1, 195, 120, 190, 117, 120, 195, 3, 1.96187
335, 6, bw, attraction, a-b-da, 5, 3, 3, 1, 195, 120, 190, 117, 120, 195, 2, 1.04193
335, 6, bw, filler, NA, 999, 999, 3, 2, 70, 169, 118, 93, 112, 157, 3, 0.917421
335, 6, bw, filler, NA, 999, 999, 3, 2, 70, 169, 118, 93, 112, 157, 2, 2.49586
335, 6, bw, attraction, a-b-da, 5, 2, 3, 3, 165, 90, 90, 165, 161, 88, 1, 4.31291
335, 6, bw, attraction, a-b-da, 5, 2, 3, 3, 165, 90, 90, 165, 161, 88, 2, 5.01829
335, 6, bw, filler, NA, 999, 999, 3, 4, 152, 118, 72, 78, 100, 112, 1, 1.03802
335, 6, bw, filler, NA, 999, 999, 3, 4, 152, 118, 72, 78, 100, 112, 2, 0.858922
335, 6, bw, attraction, a-b-da, 5, 1, 3, 5, 132, 58, 135, 60, 60, 135, 3, 1.61397
335, 6, bw, attraction, a-b-da, 5, 1, 3, 5, 132, 58, 135, 60, 60, 135, 1, 0.620202
335, 6, bw, attraction, a-b-da, 2, 3, 3, 6, 120, 195, 193, 119, 195, 120, 1, 1.36116
335, 6, bw, attraction, a-b-da, 2, 3, 3, 6, 120, 195, 193, 119, 195, 120, 2, 1.48937
335, 6, bw, attraction, a-b-da, 2, 1, 3, 7, 135, 60, 134, 59, 60, 135, 3, 3.3956
335, 6, bw, attraction, a-b-da, 2, 1, 3, 7, 135, 60, 134, 59, 60, 135, 1, 1.2098
335, 6, bw, attraction, a-b-db, 2, 2, 3, 8, 165, 90, 90, 165, 89, 163, 1, 1.36665
335, 6, bw, attraction, a-b-db, 2, 2, 3, 8, 165, 90, 90, 165, 89, 163, 2, 0.446893
335, 6, bw, attraction, a-b-db, 14, 2, 3, 9, 165, 90, 90, 165, 83, 153, 1, 1.08269
335, 6, bw, attraction, a-b-db, 14, 2, 3, 9, 165, 90, 90, 165, 83, 153, 3, 1.60637
335, 6, bw, filler, NA, 999, 999, 3, 10, 145, 128, 96, 172, 57, 93, 1, 1.59577
335, 6, bw, filler, NA, 999, 999, 3, 10, 145, 128, 96, 172, 57, 93, 3, 0.562551
335, 6, bw, attraction, a-b-db, 14, 3, 3, 11, 120, 195, 195, 120, 111, 181, 1, 2.32968
335, 6, bw, attraction, a-b-db, 14, 3, 3, 11, 120, 195, 195, 120, 111, 181, 3, 0.778979
335, 6, bw, filler, NA, 999, 999, 3, 12, 81, 153, 172, 139, 176, 140, 3, 3.36932
335, 6, bw, filler, NA, 999, 999, 3, 12, 81, 153, 172, 139, 176, 140, 1, 0.576971
335, 6, bw, attraction, a-b-db, 2, 1, 3, 13, 135, 60, 60, 135, 59, 134, 2, 1.64744
335, 6, bw, attraction, a-b-db, 2, 1, 3, 13, 135, 60, 60, 135, 59, 134, 1, 0.724102
335, 6, bw, attraction, a-b-da, 9, 3, 3, 14, 120, 195, 186, 114, 195, 120, 1, 2.86046
335, 6, bw, attraction, a-b-da, 9, 3, 3, 14, 120, 195, 186, 114, 195, 120, 2, 1.04823
335, 6, bw, attraction, a-b-db, 9, 3, 3, 15, 120, 195, 195, 120, 114, 186, 1, 2.09182
335, 6, bw, attraction, a-b-db, 9, 3, 3, 15, 120, 195, 195, 120, 114, 186, 3, 1.42248
335, 6, bw, filler, NA, 999, 999, 3, 16, 171, 105, 60, 182, 64, 80, 1, 1.49932
335, 6, bw, filler, NA, 999, 999, 3, 16, 171, 105, 60, 182, 64, 80, 3, 0.966094
335, 6, bw, attraction, a-b-db, 9, 2, 3, 17, 86, 157, 165, 90, 90, 165, 3, 5.34109
335, 6, bw, attraction, a-b-db, 9, 2, 3, 17, 86, 157, 165, 90, 90, 165, 1, 1.31675
335, 6, bw, filler, NA, 999, 999, 3, 18, 164, 167, 84, 193, 189, 141, 3, 5.26969
335, 6, bw, filler, NA, 999, 999, 3, 18, 164, 167, 84, 193, 189, 141, 2, 0.560796
335, 6, bw, attraction, a-b-db, 5, 2, 3, 19, 88, 161, 90, 165, 165, 90, 2, 1.07175
335, 6, bw, attraction, a-b-db, 5, 2, 3, 19, 88, 161, 90, 165, 165, 90, 3, 1.13936
335, 6, bw, filler, NA, 999, 999, 3, 20, 137, 115, 73, 119, 102, 87, 1, 1.29176
335, 6, bw, filler, NA, 999, 999, 3, 20, 137, 115, 73, 119, 102, 87, 3, 0.342509
335, 6, bw, attraction, a-b-db, 5, 1, 3, 21, 58, 132, 60, 135, 135, 60, 2, 1.27048
335, 6, bw, attraction, a-b-db, 5, 1, 3, 21, 58, 132, 60, 135, 135, 60, 3, 0.577924
335, 6, bw, attraction, a-b-da, 9, 2, 3, 22, 157, 86, 165, 90, 90, 165, 3, 1.12043
335, 6, bw, attraction, a-b-da, 9, 2, 3, 22, 157, 86, 165, 90, 90, 165, 1, 0.697999
335, 6, bw, attraction, a-b-da, 2, 2, 3, 23, 90, 165, 165, 90, 163, 89, 1, 1.77164
335, 6, bw, attraction, a-b-da, 2, 2, 3, 23, 90, 165, 165, 90, 163, 89, 3, 0.891127
335, 6, bw, catch, NA, 999, 999, 3, 24, 160, 155, 118, 137, 95, 100, 1, 0.692789
335, 6, bw, catch, NA, 999, 999, 3, 24, 160, 155, 118, 137, 95, 100, 3, 0.431876
335, 6, bw, catch, NA, 999, 999, 3, 25, 109, 86, 148, 167, 100, 155, 2, 0.564339
335, 6, bw, catch, NA, 999, 999, 3, 25, 109, 86, 148, 167, 100, 155, 1, 0.340791
335, 6, bw, attraction, a-b-da, 9, 1, 3, 26, 129, 57, 135, 60, 60, 135, 2, 1.41265
335, 6, bw, attraction, a-b-da, 9, 1, 3, 26, 129, 57, 135, 60, 60, 135, 1, 0.354826
335, 6, bw, filler, NA, 999, 999, 3, 27, 113, 185, 124, 91, 103, 123, 1, 0.818653
335, 6, bw, filler, NA, 999, 999, 3, 27, 113, 185, 124, 91, 103, 123, 2, 0.488976
335, 6, bw, filler, NA, 999, 999, 3, 28, 75, 176, 136, 193, 130, 105, 2, 0.763445
335, 6, bw, filler, NA, 999, 999, 3, 28, 75, 176, 136, 193, 130, 105, 1, 0.49993
335, 6, bw, attraction, a-b-db, 14, 1, 3, 29, 60, 135, 135, 60, 56, 125, 3, 1.52577
335, 6, bw, attraction, a-b-db, 14, 1, 3, 29, 60, 135, 135, 60, 56, 125, 2, 1.07912
335, 6, bw, attraction, a-b-da, 14, 3, 3, 30, 120, 195, 195, 120, 181, 111, 1, 1.24941
335, 6, bw, attraction, a-b-da, 14, 3, 3, 30, 120, 195, 195, 120, 181, 111, 3, 0.374358
335, 6, bw, attraction, a-b-db, 2, 3, 3, 31, 120, 195, 119, 193, 195, 120, 2, 0.972867
335, 6, bw, attraction, a-b-db, 2, 3, 3, 31, 120, 195, 119, 193, 195, 120, 3, 0.572517
335, 6, bw, attraction, a-b-db, 9, 1, 3, 32, 57, 129, 135, 60, 60, 135, 3, 0.971539
335, 6, bw, attraction, a-b-db, 9, 1, 3, 32, 57, 129, 135, 60, 60, 135, 2, 0.971352
335, 6, bw, filler, NA, 999, 999, 3, 33, 184, 70, 159, 82, 161, 161, 3, 0.690226
335, 6, bw, filler, NA, 999, 999, 3, 33, 184, 70, 159, 82, 161, 161, 1, 0.533359
335, 6, bw, attraction, a-b-da, 14, 2, 3, 34, 90, 165, 165, 90, 153, 83, 1, 2.38983
335, 6, bw, attraction, a-b-da, 14, 2, 3, 34, 90, 165, 165, 90, 153, 83, 3, 0.61243
335, 6, bw, catch, NA, 999, 999, 3, 35, 172, 143, 95, 160, 66, 129, 1, 0.673357
335, 6, bw, catch, NA, 999, 999, 3, 35, 172, 143, 95, 160, 66, 129, 3, 0.421138
335, 6, bw, attraction, a-b-db, 5, 3, 3, 36, 117, 190, 195, 120, 120, 195, 3, 1.91437
335, 6, bw, attraction, a-b-db, 5, 3, 3, 36, 117, 190, 195, 120, 120, 195, 1, 0.788409
335, 6, bw, attraction, a-b-da, 14, 1, 3, 37, 135, 60, 60, 135, 125, 56, 1, 2.46673
335, 6, bw, attraction, a-b-da, 14, 1, 3, 37, 135, 60, 60, 135, 125, 56, 2, 1.27058
335, 6, bw, filler, NA, 999, 999, 4, 1, 152, 131, 73, 148, 181, 176, 3, 1.58555
335, 6, bw, filler, NA, 999, 999, 4, 1, 152, 131, 73, 148, 181, 176, 2, 0.409014
335, 6, bw, attraction, a-b-db, 14, 3, 4, 2, 111, 181, 120, 195, 195, 120, 2, 3.05417
335, 6, bw, attraction, a-b-db, 14, 3, 4, 2, 111, 181, 120, 195, 195, 120, 1, 0.330534
335, 6, bw, attraction, a-b-da, 9, 3, 4, 3, 195, 120, 186, 114, 120, 195, 3, 2.4751
335, 6, bw, attraction, a-b-da, 9, 3, 4, 3, 195, 120, 186, 114, 120, 195, 2, 0.662157
335, 6, bw, attraction, a-b-da, 5, 2, 4, 4, 165, 90, 161, 88, 90, 165, 3, 1.50522
335, 6, bw, attraction, a-b-da, 5, 2, 4, 4, 165, 90, 161, 88, 90, 165, 1, 0.667418
335, 6, bw, catch, NA, 999, 999, 4, 5, 128, 187, 109, 86, 97, 158, 1, 0.942548
335, 6, bw, catch, NA, 999, 999, 4, 5, 128, 187, 109, 86, 97, 158, 2, 1.17554
335, 6, bw, attraction, a-b-db, 14, 2, 4, 6, 165, 90, 90, 165, 83, 153, 2, 1.02185
335, 6, bw, attraction, a-b-db, 14, 2, 4, 6, 165, 90, 90, 165, 83, 153, 1, 0.62747
335, 6, bw, attraction, a-b-da, 14, 3, 4, 7, 120, 195, 195, 120, 181, 111, 2, 1.11188
335, 6, bw, attraction, a-b-da, 14, 3, 4, 7, 120, 195, 195, 120, 181, 111, 1, 0.410052
335, 6, bw, attraction, a-b-da, 14, 2, 4, 8, 153, 83, 90, 165, 165, 90, 2, 0.919268
335, 6, bw, attraction, a-b-da, 14, 2, 4, 8, 153, 83, 90, 165, 165, 90, 1, 0.905589
335, 6, bw, attraction, a-b-db, 14, 1, 4, 9, 135, 60, 56, 125, 60, 135, 3, 1.24326
335, 6, bw, attraction, a-b-db, 14, 1, 4, 9, 135, 60, 56, 125, 60, 135, 2, 0.672157
335, 6, bw, attraction, a-b-db, 9, 1, 4, 10, 57, 129, 60, 135, 135, 60, 2, 0.843221
335, 6, bw, attraction, a-b-db, 9, 1, 4, 10, 57, 129, 60, 135, 135, 60, 3, 1.0643
335, 6, bw, attraction, a-b-db, 5, 2, 4, 11, 88, 161, 165, 90, 90, 165, 3, 1.28324
335, 6, bw, attraction, a-b-db, 5, 2, 4, 11, 88, 161, 165, 90, 90, 165, 2, 1.06283
335, 6, bw, attraction, a-b-db, 5, 3, 4, 12, 117, 190, 120, 195, 195, 120, 2, 1.50574
335, 6, bw, attraction, a-b-db, 5, 3, 4, 12, 117, 190, 120, 195, 195, 120, 1, 1.61195
335, 6, bw, attraction, a-b-da, 2, 3, 4, 13, 195, 120, 120, 195, 193, 119, 2, 1.28865
335, 6, bw, attraction, a-b-da, 2, 3, 4, 13, 195, 120, 120, 195, 193, 119, 1, 1.2675
335, 6, bw, filler, NA, 999, 999, 4, 14, 181, 56, 162, 134, 159, 78, 2, 0.686459
335, 6, bw, filler, NA, 999, 999, 4, 14, 181, 56, 162, 134, 159, 78, 1, 0.770321
335, 6, bw, filler, NA, 999, 999, 4, 15, 142, 161, 192, 78, 189, 139, 3, 1.33726
335, 6, bw, filler, NA, 999, 999, 4, 15, 142, 161, 192, 78, 189, 139, 2, 0.570123
335, 6, bw, catch, NA, 999, 999, 4, 16, 99, 96, 125, 190, 129, 126, 2, 0.9852
335, 6, bw, catch, NA, 999, 999, 4, 16, 99, 96, 125, 190, 129, 126, 1, 0.353027
335, 6, bw, filler, NA, 999, 999, 4, 17, 66, 150, 71, 194, 194, 154, 3, 1.01671
335, 6, bw, filler, NA, 999, 999, 4, 17, 66, 150, 71, 194, 194, 154, 1, 0.543063
335, 6, bw, attraction, a-b-db, 9, 3, 4, 18, 120, 195, 195, 120, 114, 186, 1, 4.11884
335, 6, bw, attraction, a-b-db, 9, 3, 4, 18, 120, 195, 195, 120, 114, 186, 3, 0.752158
335, 6, bw, attraction, a-b-da, 9, 2, 4, 19, 90, 165, 157, 86, 165, 90, 1, 1.8399
335, 6, bw, attraction, a-b-da, 9, 2, 4, 19, 90, 165, 157, 86, 165, 90, 3, 0.900657
335, 6, bw, attraction, a-b-db, 5, 1, 4, 20, 135, 60, 60, 135, 58, 132, 2, 1.65437
335, 6, bw, attraction, a-b-db, 5, 1, 4, 20, 135, 60, 60, 135, 58, 132, 3, 1.23446
335, 6, bw, attraction, a-b-db, 9, 2, 4, 21, 86, 157, 90, 165, 165, 90, 2, 1.38261
335, 6, bw, attraction, a-b-db, 9, 2, 4, 21, 86, 157, 90, 165, 165, 90, 1, 1.33421
335, 6, bw, attraction, a-b-da, 2, 2, 4, 22, 90, 165, 163, 89, 165, 90, 3, 1.67843
335, 6, bw, attraction, a-b-da, 2, 2, 4, 22, 90, 165, 163, 89, 165, 90, 2, 0.401822
335, 6, bw, filler, NA, 999, 999, 4, 23, 56, 103, 188, 131, 99, 163, 2, 0.57561
335, 6, bw, filler, NA, 999, 999, 4, 23, 56, 103, 188, 131, 99, 163, 1, 0.351425
335, 6, bw, filler, NA, 999, 999, 4, 24, 70, 154, 99, 189, 127, 100, 2, 1.55924
335, 6, bw, filler, NA, 999, 999, 4, 24, 70, 154, 99, 189, 127, 100, 1, 0.559525
335, 6, bw, catch, NA, 999, 999, 4, 25, 87, 108, 105, 150, 149, 166, 3, 3.63841
335, 6, bw, catch, NA, 999, 999, 4, 25, 87, 108, 105, 150, 149, 166, 1, 0.546733
335, 6, bw, attraction, a-b-da, 5, 1, 4, 26, 135, 60, 132, 58, 60, 135, 3, 1.45063
335, 6, bw, attraction, a-b-da, 5, 1, 4, 26, 135, 60, 132, 58, 60, 135, 1, 0.895224
335, 6, bw, attraction, a-b-db, 2, 1, 4, 27, 59, 134, 135, 60, 60, 135, 3, 3.20103
335, 6, bw, attraction, a-b-db, 2, 1, 4, 27, 59, 134, 135, 60, 60, 135, 1, 0.567235
335, 6, bw, attraction, a-b-da, 2, 1, 4, 28, 60, 135, 134, 59, 135, 60, 1, 2.39049
335, 6, bw, attraction, a-b-da, 2, 1, 4, 28, 60, 135, 134, 59, 135, 60, 2, 0.917074
335, 6, bw, attraction, a-b-db, 2, 3, 4, 29, 195, 120, 120, 195, 119, 193, 2, 1.06189
335, 6, bw, attraction, a-b-db, 2, 3, 4, 29, 195, 120, 120, 195, 119, 193, 1, 0.49021
335, 6, bw, filler, NA, 999, 999, 4, 30, 171, 105, 127, 102, 186, 138, 3, 0.803942
335, 6, bw, filler, NA, 999, 999, 4, 30, 171, 105, 127, 102, 186, 138, 2, 0.827095
335, 6, bw, attraction, a-b-da, 9, 1, 4, 31, 135, 60, 60, 135, 129, 57, 2, 1.30338
335, 6, bw, attraction, a-b-da, 9, 1, 4, 31, 135, 60, 60, 135, 129, 57, 3, 0.754328
335, 6, bw, attraction, a-b-db, 2, 2, 4, 32, 89, 163, 165, 90, 90, 165, 1, 2.05809
335, 6, bw, attraction, a-b-db, 2, 2, 4, 32, 89, 163, 165, 90, 90, 165, 2, 0.661988
335, 6, bw, attraction, a-b-da, 14, 1, 4, 33, 60, 135, 125, 56, 135, 60, 1, 3.28103
335, 6, bw, attraction, a-b-da, 14, 1, 4, 33, 60, 135, 125, 56, 135, 60, 2, 0.995992
335, 6, bw, filler, NA, 999, 999, 4, 34, 186, 135, 124, 130, 147, 172, 3, 2.72968
335, 6, bw, filler, NA, 999, 999, 4, 34, 186, 135, 124, 130, 147, 172, 2, 1.07478
335, 6, bw, filler, NA, 999, 999, 4, 35, 140, 140, 80, 152, 178, 120, 3, 3.82121
335, 6, bw, filler, NA, 999, 999, 4, 35, 140, 140, 80, 152, 178, 120, 2, 0.721976
335, 6, bw, filler, NA, 999, 999, 4, 36, 154, 162, 166, 98, 133, 172, 1, 3.17889
335, 6, bw, filler, NA, 999, 999, 4, 36, 154, 162, 166, 98, 133, 172, 2, 0.745978
335, 6, bw, attraction, a-b-da, 5, 3, 4, 37, 195, 120, 190, 117, 120, 195, 2, 1.64965
335, 6, bw, attraction, a-b-da, 5, 3, 4, 37, 195, 120, 190, 117, 120, 195, 3, 0.478401
335, 6, bw, filler, NA, 999, 999, 5, 1, 126, 165, 105, 97, 91, 168, 1, 1.59949
335, 6, bw, filler, NA, 999, 999, 5, 1, 126, 165, 105, 97, 91, 168, 2, 1.13424
335, 6, bw, attraction, a-b-db, 9, 2, 5, 2, 165, 90, 90, 165, 86, 157, 2, 1.00656
335, 6, bw, attraction, a-b-db, 9, 2, 5, 2, 165, 90, 90, 165, 86, 157, 3, 0.356866
335, 6, bw, attraction, a-b-da, 9, 2, 5, 3, 90, 165, 165, 90, 157, 86, 2, 0.780013
335, 6, bw, attraction, a-b-da, 9, 2, 5, 3, 90, 165, 165, 90, 157, 86, 1, 1.07572
335, 6, bw, attraction, a-b-db, 2, 2, 5, 4, 89, 163, 165, 90, 90, 165, 1, 0.918
335, 6, bw, attraction, a-b-db, 2, 2, 5, 4, 89, 163, 165, 90, 90, 165, 2, 0.416338
335, 6, bw, attraction, a-b-db, 14, 2, 5, 5, 90, 165, 83, 153, 165, 90, 1, 1.25345
335, 6, bw, attraction, a-b-db, 14, 2, 5, 5, 90, 165, 83, 153, 165, 90, 2, 0.338553
335, 6, bw, attraction, a-b-db, 5, 1, 5, 6, 135, 60, 60, 135, 58, 132, 2, 0.874974
335, 6, bw, attraction, a-b-db, 5, 1, 5, 6, 135, 60, 60, 135, 58, 132, 3, 0.774726
335, 6, bw, filler, NA, 999, 999, 5, 7, 116, 151, 91, 170, 137, 193, 3, 0.741061
335, 6, bw, filler, NA, 999, 999, 5, 7, 116, 151, 91, 170, 137, 193, 2, 0.534066
335, 6, bw, attraction, a-b-da, 9, 3, 5, 8, 186, 114, 195, 120, 120, 195, 2, 0.638466
335, 6, bw, attraction, a-b-da, 9, 3, 5, 8, 186, 114, 195, 120, 120, 195, 1, 0.379571
335, 6, bw, attraction, a-b-da, 5, 2, 5, 9, 161, 88, 165, 90, 90, 165, 2, 1.25814
335, 6, bw, attraction, a-b-da, 5, 2, 5, 9, 161, 88, 165, 90, 90, 165, 3, 0.79042
335, 6, bw, attraction, a-b-da, 9, 1, 5, 10, 129, 57, 135, 60, 60, 135, 2, 1.03596
335, 6, bw, attraction, a-b-da, 9, 1, 5, 10, 129, 57, 135, 60, 60, 135, 1, 0.585718
335, 6, bw, attraction, a-b-da, 2, 2, 5, 11, 163, 89, 165, 90, 90, 165, 3, 4.39213
335, 6, bw, attraction, a-b-da, 2, 2, 5, 11, 163, 89, 165, 90, 90, 165, 1, 1.09398
335, 6, bw, attraction, a-b-da, 5, 3, 5, 12, 195, 120, 190, 117, 120, 195, 3, 1.83161
335, 6, bw, attraction, a-b-da, 5, 3, 5, 12, 195, 120, 190, 117, 120, 195, 1, 0.852979
335, 6, bw, attraction, a-b-db, 2, 1, 5, 13, 135, 60, 60, 135, 59, 134, 1, 1.48085
335, 6, bw, attraction, a-b-db, 2, 1, 5, 13, 135, 60, 60, 135, 59, 134, 3, 1.07625
335, 6, bw, filler, NA, 999, 999, 5, 14, 171, 67, 141, 86, 72, 110, 2, 2.27049
335, 6, bw, filler, NA, 999, 999, 5, 14, 171, 67, 141, 86, 72, 110, 3, 0.858474
335, 6, bw, attraction, a-b-da, 14, 3, 5, 15, 181, 111, 195, 120, 120, 195, 3, 2.47738
335, 6, bw, attraction, a-b-da, 14, 3, 5, 15, 181, 111, 195, 120, 120, 195, 1, 0.600629
335, 6, bw, attraction, a-b-db, 2, 3, 5, 16, 120, 195, 119, 193, 195, 120, 3, 3.45433
335, 6, bw, attraction, a-b-db, 2, 3, 5, 16, 120, 195, 119, 193, 195, 120, 2, 0.345957
335, 6, bw, attraction, a-b-da, 14, 1, 5, 17, 135, 60, 125, 56, 60, 135, 3, 2.69771
335, 6, bw, attraction, a-b-da, 14, 1, 5, 17, 135, 60, 125, 56, 60, 135, 1, 1.07348
335, 6, bw, attraction, a-b-db, 5, 3, 5, 18, 120, 195, 195, 120, 117, 190, 1, 2.14254
335, 6, bw, attraction, a-b-db, 5, 3, 5, 18, 120, 195, 195, 120, 117, 190, 3, 0.999143
335, 6, bw, filler, NA, 999, 999, 5, 19, 126, 67, 111, 181, 164, 189, 3, 1.69272
335, 6, bw, filler, NA, 999, 999, 5, 19, 126, 67, 111, 181, 164, 189, 1, 0.53555
335, 6, bw, filler, NA, 999, 999, 5, 20, 105, 77, 188, 147, 61, 150, 2, 1.00797
335, 6, bw, filler, NA, 999, 999, 5, 20, 105, 77, 188, 147, 61, 150, 1, 0.798303
335, 6, bw, filler, NA, 999, 999, 5, 21, 192, 189, 195, 154, 159, 133, 1, 1.62815
335, 6, bw, filler, NA, 999, 999, 5, 21, 192, 189, 195, 154, 159, 133, 3, 0.545454
335, 6, bw, filler, NA, 999, 999, 5, 22, 142, 64, 149, 165, 58, 166, 2, 3.16129
335, 6, bw, filler, NA, 999, 999, 5, 22, 142, 64, 149, 165, 58, 166, 3, 1.08888
335, 6, bw, attraction, a-b-da, 5, 1, 5, 23, 132, 58, 135, 60, 60, 135, 3, 1.37914
335, 6, bw, attraction, a-b-da, 5, 1, 5, 23, 132, 58, 135, 60, 60, 135, 2, 0.498817
335, 6, bw, catch, NA, 999, 999, 5, 24, 96, 99, 152, 163, 107, 148, 2, 1.05251
335, 6, bw, catch, NA, 999, 999, 5, 24, 96, 99, 152, 163, 107, 148, 1, 0.569422
335, 6, bw, attraction, a-b-db, 14, 1, 5, 25, 60, 135, 56, 125, 135, 60, 1, 1.06467
335, 6, bw, attraction, a-b-db, 14, 1, 5, 25, 60, 135, 56, 125, 135, 60, 2, 0.788866
335, 6, bw, attraction, a-b-da, 2, 1, 5, 26, 60, 135, 134, 59, 135, 60, 3, 4.00316
335, 6, bw, attraction, a-b-da, 2, 1, 5, 26, 60, 135, 134, 59, 135, 60, 2, 0.785263
335, 6, bw, attraction, a-b-da, 14, 2, 5, 27, 165, 90, 153, 83, 90, 165, 1, 4.16765
335, 6, bw, attraction, a-b-da, 14, 2, 5, 27, 165, 90, 153, 83, 90, 165, 3, 0.526964
335, 6, bw, attraction, a-b-db, 9, 3, 5, 28, 120, 195, 114, 186, 195, 120, 3, 5.96755
335, 6, bw, attraction, a-b-db, 9, 3, 5, 28, 120, 195, 114, 186, 195, 120, 1, 1.19824
335, 6, bw, attraction, a-b-db, 5, 2, 5, 29, 88, 161, 90, 165, 165, 90, 2, 4.63582
335, 6, bw, attraction, a-b-db, 5, 2, 5, 29, 88, 161, 90, 165, 165, 90, 1, 0.65623
335, 6, bw, filler, NA, 999, 999, 5, 30, 161, 163, 94, 147, 77, 156, 1, 1.45933
335, 6, bw, filler, NA, 999, 999, 5, 30, 161, 163, 94, 147, 77, 156, 3, 0.639544
335, 6, bw, filler, NA, 999, 999, 5, 31, 180, 193, 159, 59, 94, 154, 1, 2.2273
335, 6, bw, filler, NA, 999, 999, 5, 31, 180, 193, 159, 59, 94, 154, 2, 1.34452
335, 6, bw, attraction, a-b-db, 14, 3, 5, 32, 120, 195, 111, 181, 195, 120, 2, 1.65613
335, 6, bw, attraction, a-b-db, 14, 3, 5, 32, 120, 195, 111, 181, 195, 120, 1, 0.732194
335, 6, bw, attraction, a-b-db, 9, 1, 5, 33, 60, 135, 57, 129, 135, 60, 1, 0.916565
335, 6, bw, attraction, a-b-db, 9, 1, 5, 33, 60, 135, 57, 129, 135, 60, 2, 1.3189
335, 6, bw, catch, NA, 999, 999, 5, 34, 95, 100, 93, 162, 150, 165, 3, 1.23984
335, 6, bw, catch, NA, 999, 999, 5, 34, 95, 100, 93, 162, 150, 165, 1, 0.51669
335, 6, bw, attraction, a-b-da, 2, 3, 5, 35, 195, 120, 120, 195, 193, 119, 1, 3.44593
335, 6, bw, attraction, a-b-da, 2, 3, 5, 35, 195, 120, 120, 195, 193, 119, 2, 1.09805
335, 6, bw, filler, NA, 999, 999, 5, 36, 71, 172, 154, 60, 116, 151, 3, 0.995628
335, 6, bw, filler, NA, 999, 999, 5, 36, 71, 172, 154, 60, 116, 151, 2, 0.554721
335, 6, bw, catch, NA, 999, 999, 5, 37, 149, 106, 79, 116, 176, 139, 3, 0.738416
335, 6, bw, catch, NA, 999, 999, 5, 37, 149, 106, 79, 116, 176, 139, 2, 0.499538
335, 6, bw, attraction, a-b-db, 9, 3, 6, 1, 195, 120, 114, 186, 120, 195, 2, 1.07722
335, 6, bw, attraction, a-b-db, 9, 3, 6, 1, 195, 120, 114, 186, 120, 195, 3, 0.640973
335, 6, bw, attraction, a-b-db, 2, 2, 6, 2, 165, 90, 89, 163, 90, 165, 2, 0.78869
335, 6, bw, attraction, a-b-db, 2, 2, 6, 2, 165, 90, 89, 163, 90, 165, 3, 0.459733
335, 6, bw, filler, NA, 999, 999, 6, 3, 165, 157, 181, 136, 146, 94, 2, 0.57488
335, 6, bw, filler, NA, 999, 999, 6, 3, 165, 157, 181, 136, 146, 94, 3, 0.342685
335, 6, bw, filler, NA, 999, 999, 6, 4, 163, 60, 123, 158, 59, 172, 2, 0.702483
335, 6, bw, filler, NA, 999, 999, 6, 4, 163, 60, 123, 158, 59, 172, 1, 0.513569
335, 6, bw, attraction, a-b-da, 2, 3, 6, 5, 195, 120, 193, 119, 120, 195, 2, 2.27481
335, 6, bw, attraction, a-b-da, 2, 3, 6, 5, 195, 120, 193, 119, 120, 195, 1, 0.597868
335, 6, bw, attraction, a-b-da, 5, 2, 6, 6, 161, 88, 90, 165, 165, 90, 2, 1.86775
335, 6, bw, attraction, a-b-da, 5, 2, 6, 6, 161, 88, 90, 165, 165, 90, 1, 0.591744
335, 6, bw, attraction, a-b-db, 2, 1, 6, 7, 135, 60, 59, 134, 60, 135, 3, 4.16553
335, 6, bw, attraction, a-b-db, 2, 1, 6, 7, 135, 60, 59, 134, 60, 135, 1, 0.588794
335, 6, bw, attraction, a-b-db, 9, 1, 6, 8, 135, 60, 60, 135, 57, 129, 3, 1.70728
335, 6, bw, attraction, a-b-db, 9, 1, 6, 8, 135, 60, 60, 135, 57, 129, 1, 0.709386
335, 6, bw, filler, NA, 999, 999, 6, 9, 186, 77, 188, 176, 173, 155, 2, 1.61446
335, 6, bw, filler, NA, 999, 999, 6, 9, 186, 77, 188, 176, 173, 155, 3, 0.284592
335, 6, bw, attraction, a-b-db, 14, 2, 6, 10, 90, 165, 165, 90, 83, 153, 1, 2.71907
335, 6, bw, attraction, a-b-db, 14, 2, 6, 10, 90, 165, 165, 90, 83, 153, 3, 0.624945
335, 6, bw, filler, NA, 999, 999, 6, 11, 165, 159, 141, 166, 132, 177, 1, 2.85334
335, 6, bw, filler, NA, 999, 999, 6, 11, 165, 159, 141, 166, 132, 177, 2, 0.673716
335, 6, bw, attraction, a-b-da, 5, 3, 6, 12, 190, 117, 120, 195, 195, 120, 2, 2.07611
335, 6, bw, attraction, a-b-da, 5, 3, 6, 12, 190, 117, 120, 195, 195, 120, 1, 0.231433
335, 6, bw, catch, NA, 999, 999, 6, 13, 123, 72, 121, 194, 136, 119, 2, 0.963963
335, 6, bw, catch, NA, 999, 999, 6, 13, 123, 72, 121, 194, 136, 119, 1, 0.308303
335, 6, bw, attraction, a-b-db, 2, 3, 6, 14, 119, 193, 120, 195, 195, 120, 2, 3.77367
335, 6, bw, attraction, a-b-db, 2, 3, 6, 14, 119, 193, 120, 195, 195, 120, 3, 0.56429
335, 6, bw, attraction, a-b-da, 9, 2, 6, 15, 90, 165, 165, 90, 157, 86, 2, 3.10739
335, 6, bw, attraction, a-b-da, 9, 2, 6, 15, 90, 165, 165, 90, 157, 86, 3, 0.349017
335, 6, bw, attraction, a-b-da, 2, 1, 6, 16, 135, 60, 134, 59, 60, 135, 2, 2.05287
335, 6, bw, attraction, a-b-da, 2, 1, 6, 16, 135, 60, 134, 59, 60, 135, 1, 0.345465
335, 6, bw, attraction, a-b-da, 2, 2, 6, 17, 90, 165, 163, 89, 165, 90, 2, 5.88942
335, 6, bw, attraction, a-b-da, 2, 2, 6, 17, 90, 165, 163, 89, 165, 90, 1, 1.50683
335, 6, bw, filler, NA, 999, 999, 6, 18, 166, 76, 58, 181, 159, 138, 3, 1.29974
335, 6, bw, filler, NA, 999, 999, 6, 18, 166, 76, 58, 181, 159, 138, 2, 0.574517
335, 6, bw, catch, NA, 999, 999, 6, 19, 165, 150, 105, 150, 118, 77, 1, 0.884878
335, 6, bw, catch, NA, 999, 999, 6, 19, 165, 150, 105, 150, 118, 77, 3, 0.480692
335, 6, bw, attraction, a-b-da, 14, 2, 6, 20, 90, 165, 165, 90, 153, 83, 1, 2.20316
335, 6, bw, attraction, a-b-da, 14, 2, 6, 20, 90, 165, 165, 90, 153, 83, 3, 0.609722
335, 6, bw, attraction, a-b-db, 5, 2, 6, 21, 165, 90, 88, 161, 90, 165, 1, 2.5509
335, 6, bw, attraction, a-b-db, 5, 2, 6, 21, 165, 90, 88, 161, 90, 165, 2, 0.991327
335, 6, bw, attraction, a-b-da, 9, 1, 6, 22, 60, 135, 129, 57, 135, 60, 1, 1.08495
335, 6, bw, attraction, a-b-da, 9, 1, 6, 22, 60, 135, 129, 57, 135, 60, 3, 0.672596
335, 6, bw, attraction, a-b-da, 5, 1, 6, 23, 135, 60, 132, 58, 60, 135, 1, 2.85967
335, 6, bw, attraction, a-b-da, 5, 1, 6, 23, 135, 60, 132, 58, 60, 135, 3, 0.551416
335, 6, bw, filler, NA, 999, 999, 6, 24, 92, 80, 132, 181, 189, 153, 3, 1.95115
335, 6, bw, filler, NA, 999, 999, 6, 24, 92, 80, 132, 181, 189, 153, 1, 0.415863
335, 6, bw, filler, NA, 999, 999, 6, 25, 92, 64, 177, 179, 101, 77, 2, 6.08498
335, 6, bw, filler, NA, 999, 999, 6, 25, 92, 64, 177, 179, 101, 77, 1, 0.887088
335, 6, bw, attraction, a-b-db, 5, 1, 6, 26, 60, 135, 135, 60, 58, 132, 3, 1.20159
335, 6, bw, attraction, a-b-db, 5, 1, 6, 26, 60, 135, 135, 60, 58, 132, 1, 0.536331
335, 6, bw, catch, NA, 999, 999, 6, 27, 115, 140, 135, 180, 81, 114, 2, 0.536943
335, 6, bw, catch, NA, 999, 999, 6, 27, 115, 140, 135, 180, 81, 114, 3, 0.378623
335, 6, bw, attraction, a-b-db, 5, 3, 6, 28, 117, 190, 195, 120, 120, 195, 3, 1.39317
335, 6, bw, attraction, a-b-db, 5, 3, 6, 28, 117, 190, 195, 120, 120, 195, 1, 1.47996
335, 6, bw, attraction, a-b-db, 9, 2, 6, 29, 90, 165, 86, 157, 165, 90, 3, 3.13023
335, 6, bw, attraction, a-b-db, 9, 2, 6, 29, 90, 165, 86, 157, 165, 90, 2, 0.443111
335, 6, bw, attraction, a-b-db, 14, 3, 6, 30, 195, 120, 111, 181, 120, 195, 3, 1.43894
335, 6, bw, attraction, a-b-db, 14, 3, 6, 30, 195, 120, 111, 181, 120, 195, 2, 1.49986
335, 6, bw, filler, NA, 999, 999, 6, 31, 185, 143, 57, 179, 72, 68, 1, 1.26923
335, 6, bw, filler, NA, 999, 999, 6, 31, 185, 143, 57, 179, 72, 68, 3, 0.505474
335, 6, bw, filler, NA, 999, 999, 6, 32, 106, 145, 62, 179, 179, 116, 3, 1.57936
335, 6, bw, filler, NA, 999, 999, 6, 32, 106, 145, 62, 179, 179, 116, 2, 0.618813
335, 6, bw, attraction, a-b-da, 14, 1, 6, 33, 60, 135, 125, 56, 135, 60, 1, 1.01583
335, 6, bw, attraction, a-b-da, 14, 1, 6, 33, 60, 135, 125, 56, 135, 60, 2, 0.710286
335, 6, bw, attraction, a-b-da, 9, 3, 6, 34, 186, 114, 120, 195, 195, 120, 3, 1.99926
335, 6, bw, attraction, a-b-da, 9, 3, 6, 34, 186, 114, 120, 195, 195, 120, 1, 1.798
335, 6, bw, attraction, a-b-db, 14, 1, 6, 35, 56, 125, 135, 60, 60, 135, 3, 2.55526
335, 6, bw, attraction, a-b-db, 14, 1, 6, 35, 56, 125, 135, 60, 60, 135, 1, 0.683218
335, 6, bw, filler, NA, 999, 999, 6, 36, 171, 59, 147, 138, 109, 72, 2, 1.18956
335, 6, bw, filler, NA, 999, 999, 6, 36, 171, 59, 147, 138, 109, 72, 3, 0.37248
335, 6, bw, attraction, a-b-da, 14, 3, 6, 37, 120, 195, 195, 120, 181, 111, 1, 2.47563
335, 6, bw, attraction, a-b-da, 14, 3, 6, 37, 120, 195, 195, 120, 181, 111, 3, 0.590817
335, 6, bw, filler, NA, 999, 999, 7, 1, 180, 60, 176, 151, 88, 91, 2, 0.868505
335, 6, bw, filler, NA, 999, 999, 7, 1, 180, 60, 176, 151, 88, 91, 3, 1.24908
335, 6, bw, filler, NA, 999, 999, 7, 2, 95, 134, 81, 57, 62, 136, 1, 0.676451
335, 6, bw, filler, NA, 999, 999, 7, 2, 95, 134, 81, 57, 62, 136, 2, 0.472209
335, 6, bw, attraction, a-b-db, 2, 1, 7, 3, 59, 134, 60, 135, 135, 60, 2, 9.01949
335, 6, bw, attraction, a-b-db, 2, 1, 7, 3, 59, 134, 60, 135, 135, 60, 1, 1.20718
335, 6, bw, catch, NA, 999, 999, 7, 4, 132, 183, 118, 137, 64, 131, 1, 0.660094
335, 6, bw, catch, NA, 999, 999, 7, 4, 132, 183, 118, 137, 64, 131, 2, 0.376608
335, 6, bw, filler, NA, 999, 999, 7, 5, 180, 79, 190, 165, 102, 69, 2, 0.783019
335, 6, bw, filler, NA, 999, 999, 7, 5, 180, 79, 190, 165, 102, 69, 3, 0.530555
335, 6, bw, attraction, a-b-da, 9, 3, 7, 6, 186, 114, 120, 195, 195, 120, 3, 1.67925
335, 6, bw, attraction, a-b-da, 9, 3, 7, 6, 186, 114, 120, 195, 195, 120, 1, 0.578578
335, 6, bw, attraction, a-b-da, 9, 1, 7, 7, 129, 57, 60, 135, 135, 60, 2, 1.23306
335, 6, bw, attraction, a-b-da, 9, 1, 7, 7, 129, 57, 60, 135, 135, 60, 1, 0.614676
335, 6, bw, attraction, a-b-da, 2, 2, 7, 8, 165, 90, 163, 89, 90, 165, 3, 3.02771
335, 6, bw, attraction, a-b-da, 2, 2, 7, 8, 165, 90, 163, 89, 90, 165, 1, 0.93675
335, 6, bw, attraction, a-b-db, 5, 2, 7, 9, 165, 90, 90, 165, 88, 161, 2, 0.95311
335, 6, bw, attraction, a-b-db, 5, 2, 7, 9, 165, 90, 90, 165, 88, 161, 3, 0.418038
335, 6, bw, attraction, a-b-db, 14, 3, 7, 10, 120, 195, 195, 120, 111, 181, 2, 0.807259
335, 6, bw, attraction, a-b-db, 14, 3, 7, 10, 120, 195, 195, 120, 111, 181, 3, 0.677604
335, 6, bw, catch, NA, 999, 999, 7, 11, 71, 124, 178, 137, 128, 127, 2, 0.736065
335, 6, bw, catch, NA, 999, 999, 7, 11, 71, 124, 178, 137, 128, 127, 1, 0.369735
335, 6, bw, attraction, a-b-da, 2, 3, 7, 12, 195, 120, 120, 195, 193, 119, 2, 3.777
335, 6, bw, attraction, a-b-da, 2, 3, 7, 12, 195, 120, 120, 195, 193, 119, 1, 0.423708
335, 6, bw, catch, NA, 999, 999, 7, 13, 71, 124, 191, 124, 136, 119, 2, 2.04434
335, 6, bw, catch, NA, 999, 999, 7, 13, 71, 124, 191, 124, 136, 119, 1, 0.624842
335, 6, bw, filler, NA, 999, 999, 7, 14, 145, 184, 96, 78, 100, 90, 1, 0.773323
335, 6, bw, filler, NA, 999, 999, 7, 14, 145, 184, 96, 78, 100, 90, 2, 0.925029
335, 6, bw, filler, NA, 999, 999, 7, 15, 152, 126, 155, 116, 109, 118, 2, 2.54928
335, 6, bw, filler, NA, 999, 999, 7, 15, 152, 126, 155, 116, 109, 118, 3, 0.645869
335, 6, bw, attraction, a-b-db, 5, 1, 7, 16, 60, 135, 58, 132, 135, 60, 2, 2.72974
335, 6, bw, attraction, a-b-db, 5, 1, 7, 16, 60, 135, 58, 132, 135, 60, 3, 1.51472
335, 6, bw, filler, NA, 999, 999, 7, 17, 65, 176, 124, 191, 61, 176, 2, 0.723507
335, 6, bw, filler, NA, 999, 999, 7, 17, 65, 176, 124, 191, 61, 176, 3, 0.549232
335, 6, bw, filler, NA, 999, 999, 7, 18, 130, 83, 97, 71, 172, 102, 3, 1.34921
335, 6, bw, filler, NA, 999, 999, 7, 18, 130, 83, 97, 71, 172, 102, 2, 0.717873
335, 6, bw, attraction, a-b-db, 5, 3, 7, 19, 195, 120, 120, 195, 117, 190, 1, 3.32693
335, 6, bw, attraction, a-b-db, 5, 3, 7, 19, 195, 120, 120, 195, 117, 190, 3, 0.399861
335, 6, bw, attraction, a-b-da, 9, 2, 7, 20, 165, 90, 157, 86, 90, 165, 3, 3.12565
335, 6, bw, attraction, a-b-da, 9, 2, 7, 20, 165, 90, 157, 86, 90, 165, 2, 1.20666
335, 6, bw, attraction, a-b-da, 5, 2, 7, 21, 165, 90, 90, 165, 161, 88, 3, 1.3476
335, 6, bw, attraction, a-b-da, 5, 2, 7, 21, 165, 90, 90, 165, 161, 88, 1, 0.556563
335, 6, bw, attraction, a-b-db, 2, 2, 7, 22, 165, 90, 89, 163, 90, 165, 3, 1.94758
335, 6, bw, attraction, a-b-db, 2, 2, 7, 22, 165, 90, 89, 163, 90, 165, 1, 0.564283
335, 6, bw, attraction, a-b-da, 14, 3, 7, 23, 181, 111, 195, 120, 120, 195, 3, 1.41142
335, 6, bw, attraction, a-b-da, 14, 3, 7, 23, 181, 111, 195, 120, 120, 195, 1, 0.55362
335, 6, bw, attraction, a-b-da, 5, 3, 7, 24, 195, 120, 120, 195, 190, 117, 2, 2.67337
335, 6, bw, attraction, a-b-da, 5, 3, 7, 24, 195, 120, 120, 195, 190, 117, 1, 0.564461
335, 6, bw, attraction, a-b-db, 14, 1, 7, 25, 56, 125, 135, 60, 60, 135, 3, 1.0916
335, 6, bw, attraction, a-b-db, 14, 1, 7, 25, 56, 125, 135, 60, 60, 135, 1, 0.838517
335, 6, bw, attraction, a-b-db, 9, 1, 7, 26, 135, 60, 60, 135, 57, 129, 2, 1.00288
335, 6, bw, attraction, a-b-db, 9, 1, 7, 26, 135, 60, 60, 135, 57, 129, 1, 0.569889
335, 6, bw, filler, NA, 999, 999, 7, 27, 167, 187, 109, 144, 183, 94, 1, 0.761003
335, 6, bw, filler, NA, 999, 999, 7, 27, 167, 187, 109, 144, 183, 94, 2, 0.425394
335, 6, bw, attraction, a-b-db, 9, 2, 7, 28, 86, 157, 165, 90, 90, 165, 3, 1.6538
335, 6, bw, attraction, a-b-db, 9, 2, 7, 28, 86, 157, 165, 90, 90, 165, 1, 0.826663
335, 6, bw, attraction, a-b-da, 5, 1, 7, 29, 132, 58, 60, 135, 135, 60, 2, 1.59917
335, 6, bw, attraction, a-b-da, 5, 1, 7, 29, 132, 58, 60, 135, 135, 60, 1, 0.501739
335, 6, bw, filler, NA, 999, 999, 7, 30, 113, 123, 89, 191, 166, 64, 2, 2.33568
335, 6, bw, filler, NA, 999, 999, 7, 30, 113, 123, 89, 191, 166, 64, 3, 0.664821
335, 6, bw, attraction, a-b-da, 14, 2, 7, 31, 165, 90, 90, 165, 153, 83, 2, 2.12395
335, 6, bw, attraction, a-b-da, 14, 2, 7, 31, 165, 90, 90, 165, 153, 83, 3, 0.325175
335, 6, bw, attraction, a-b-da, 14, 1, 7, 32, 125, 56, 60, 135, 135, 60, 3, 2.77371
335, 6, bw, attraction, a-b-da, 14, 1, 7, 32, 125, 56, 60, 135, 135, 60, 1, 0.756771
335, 6, bw, filler, NA, 999, 999, 7, 33, 190, 121, 142, 191, 167, 60, 2, 0.867886
335, 6, bw, filler, NA, 999, 999, 7, 33, 190, 121, 142, 191, 167, 60, 3, 0.384361
335, 6, bw, attraction, a-b-db, 14, 2, 7, 34, 83, 153, 165, 90, 90, 165, 3, 0.902699
335, 6, bw, attraction, a-b-db, 14, 2, 7, 34, 83, 153, 165, 90, 90, 165, 2, 0.673639
335, 6, bw, attraction, a-b-db, 2, 3, 7, 35, 195, 120, 119, 193, 120, 195, 2, 1.63613
335, 6, bw, attraction, a-b-db, 2, 3, 7, 35, 195, 120, 119, 193, 120, 195, 3, 0.513633
335, 6, bw, attraction, a-b-db, 9, 3, 7, 36, 120, 195, 195, 120, 114, 186, 2, 0.658761
335, 6, bw, attraction, a-b-db, 9, 3, 7, 36, 120, 195, 195, 120, 114, 186, 1, 1.22321
335, 6, bw, attraction, a-b-da, 2, 1, 7, 37, 134, 59, 60, 135, 135, 60, 3, 1.90738
335, 6, bw, attraction, a-b-da, 2, 1, 7, 37, 134, 59, 60, 135, 135, 60, 1, 0.461346
335, 6, bw, attraction, a-b-da, 9, 2, 8, 1, 165, 90, 90, 165, 157, 86, 2, 3.21656
335, 6, bw, attraction, a-b-da, 9, 2, 8, 1, 165, 90, 90, 165, 157, 86, 3, 0.414187
335, 6, bw, attraction, a-b-da, 2, 2, 8, 2, 165, 90, 90, 165, 163, 89, 2, 2.36319
335, 6, bw, attraction, a-b-da, 2, 2, 8, 2, 165, 90, 90, 165, 163, 89, 1, 3.55524
335, 6, bw, attraction, a-b-db, 5, 3, 8, 3, 195, 120, 120, 195, 117, 190, 2, 5.77808
335, 6, bw, attraction, a-b-db, 5, 3, 8, 3, 195, 120, 120, 195, 117, 190, 3, 0.960231
335, 6, bw, attraction, a-b-da, 9, 3, 8, 4, 195, 120, 120, 195, 186, 114, 2, 1.95118
335, 6, bw, attraction, a-b-da, 9, 3, 8, 4, 195, 120, 120, 195, 186, 114, 3, 0.543884
335, 6, bw, attraction, a-b-db, 9, 1, 8, 5, 135, 60, 57, 129, 60, 135, 3, 1.4877
335, 6, bw, attraction, a-b-db, 9, 1, 8, 5, 135, 60, 57, 129, 60, 135, 2, 0.690454
335, 6, bw, attraction, a-b-da, 2, 3, 8, 6, 120, 195, 193, 119, 195, 120, 1, 3.06026
335, 6, bw, attraction, a-b-da, 2, 3, 8, 6, 120, 195, 193, 119, 195, 120, 3, 0.423957
335, 6, bw, attraction, a-b-db, 14, 3, 8, 7, 120, 195, 111, 181, 195, 120, 1, 4.71638
335, 6, bw, attraction, a-b-db, 14, 3, 8, 7, 120, 195, 111, 181, 195, 120, 3, 0.68557
335, 6, bw, attraction, a-b-da, 9, 1, 8, 8, 135, 60, 129, 57, 60, 135, 1, 1.87998
335, 6, bw, attraction, a-b-da, 9, 1, 8, 8, 135, 60, 129, 57, 60, 135, 2, 1.17131
335, 6, bw, attraction, a-b-da, 14, 2, 8, 9, 153, 83, 165, 90, 90, 165, 2, 1.33825
335, 6, bw, attraction, a-b-da, 14, 2, 8, 9, 153, 83, 165, 90, 90, 165, 1, 0.947171
335, 6, bw, filler, NA, 999, 999, 8, 10, 116, 182, 151, 88, 124, 62, 1, 1.1708
335, 6, bw, filler, NA, 999, 999, 8, 10, 116, 182, 151, 88, 124, 62, 3, 0.738365
335, 6, bw, filler, NA, 999, 999, 8, 11, 60, 160, 83, 113, 152, 92, 3, 1.70692
335, 6, bw, filler, NA, 999, 999, 8, 11, 60, 160, 83, 113, 152, 92, 1, 0.684785
335, 6, bw, filler, NA, 999, 999, 8, 12, 89, 100, 149, 120, 127, 170, 3, 1.09523
335, 6, bw, filler, NA, 999, 999, 8, 12, 89, 100, 149, 120, 127, 170, 1, 0.602189
335, 6, bw, attraction, a-b-da, 14, 3, 8, 13, 195, 120, 120, 195, 181, 111, 2, 1.02401
335, 6, bw, attraction, a-b-da, 14, 3, 8, 13, 195, 120, 120, 195, 181, 111, 3, 0.373672
335, 6, bw, filler, NA, 999, 999, 8, 14, 160, 136, 178, 99, 81, 91, 1, 0.852121
335, 6, bw, filler, NA, 999, 999, 8, 14, 160, 136, 178, 99, 81, 91, 3, 0.593131
335, 6, bw, attraction, a-b-da, 5, 1, 8, 15, 132, 58, 60, 135, 135, 60, 2, 1.51892
335, 6, bw, attraction, a-b-da, 5, 1, 8, 15, 132, 58, 60, 135, 135, 60, 1, 0.465029
335, 6, bw, catch, NA, 999, 999, 8, 16, 122, 73, 132, 183, 158, 97, 2, 0.73232
335, 6, bw, catch, NA, 999, 999, 8, 16, 122, 73, 132, 183, 158, 97, 1, 0.613903
335, 6, bw, attraction, a-b-db, 14, 2, 8, 17, 90, 165, 83, 153, 165, 90, 3, 0.963037
335, 6, bw, attraction, a-b-db, 14, 2, 8, 17, 90, 165, 83, 153, 165, 90, 2, 0.411437
335, 6, bw, attraction, a-b-da, 5, 2, 8, 18, 165, 90, 161, 88, 90, 165, 2, 0.808483
335, 6, bw, attraction, a-b-da, 5, 2, 8, 18, 165, 90, 161, 88, 90, 165, 1, 0.278977
335, 6, bw, filler, NA, 999, 999, 8, 19, 56, 194, 145, 170, 79, 189, 2, 0.537428
335, 6, bw, filler, NA, 999, 999, 8, 19, 56, 194, 145, 170, 79, 189, 1, 0.442552
335, 6, bw, attraction, a-b-da, 5, 3, 8, 20, 120, 195, 195, 120, 190, 117, 1, 2.42235
335, 6, bw, attraction, a-b-da, 5, 3, 8, 20, 120, 195, 195, 120, 190, 117, 3, 0.707612
335, 6, bw, attraction, a-b-db, 5, 1, 8, 21, 135, 60, 60, 135, 58, 132, 2, 0.788608
335, 6, bw, attraction, a-b-db, 5, 1, 8, 21, 135, 60, 60, 135, 58, 132, 1, 0.579681
335, 6, bw, attraction, a-b-db, 2, 2, 8, 22, 165, 90, 90, 165, 89, 163, 2, 5.41812
335, 6, bw, attraction, a-b-db, 2, 2, 8, 22, 165, 90, 90, 165, 89, 163, 1, 0.815017
335, 6, bw, attraction, a-b-db, 2, 1, 8, 23, 135, 60, 60, 135, 59, 134, 2, 0.580077
335, 6, bw, attraction, a-b-db, 2, 1, 8, 23, 135, 60, 60, 135, 59, 134, 1, 0.612023
335, 6, bw, filler, NA, 999, 999, 8, 24, 79, 103, 142, 181, 189, 126, 2, 0.56898
335, 6, bw, filler, NA, 999, 999, 8, 24, 79, 103, 142, 181, 189, 126, 1, 0.529383
335, 6, bw, attraction, a-b-da, 2, 1, 8, 25, 60, 135, 135, 60, 134, 59, 1, 1.23383
335, 6, bw, attraction, a-b-da, 2, 1, 8, 25, 60, 135, 135, 60, 134, 59, 3, 0.455457
335, 6, bw, filler, NA, 999, 999, 8, 26, 86, 88, 177, 119, 121, 109, 2, 0.667174
335, 6, bw, filler, NA, 999, 999, 8, 26, 86, 88, 177, 119, 121, 109, 1, 0.423698
335, 6, bw, catch, NA, 999, 999, 8, 27, 129, 186, 159, 96, 89, 106, 1, 1.02811
335, 6, bw, catch, NA, 999, 999, 8, 27, 129, 186, 159, 96, 89, 106, 3, 0.65777
335, 6, bw, attraction, a-b-db, 2, 3, 8, 28, 120, 195, 119, 193, 195, 120, 2, 1.02091
335, 6, bw, attraction, a-b-db, 2, 3, 8, 28, 120, 195, 119, 193, 195, 120, 1, 0.370626
335, 6, bw, catch, NA, 999, 999, 8, 29, 135, 180, 71, 124, 92, 163, 1, 0.793647
335, 6, bw, catch, NA, 999, 999, 8, 29, 135, 180, 71, 124, 92, 163, 2, 0.480786
335, 6, bw, attraction, a-b-db, 5, 2, 8, 30, 165, 90, 88, 161, 90, 165, 2, 0.931232
335, 6, bw, attraction, a-b-db, 5, 2, 8, 30, 165, 90, 88, 161, 90, 165, 1, 0.412879
335, 6, bw, attraction, a-b-db, 9, 2, 8, 31, 90, 165, 86, 157, 165, 90, 1, 0.689984
335, 6, bw, attraction, a-b-db, 9, 2, 8, 31, 90, 165, 86, 157, 165, 90, 2, 0.437279
335, 6, bw, attraction, a-b-da, 14, 1, 8, 32, 125, 56, 135, 60, 60, 135, 3, 0.969603
335, 6, bw, attraction, a-b-da, 14, 1, 8, 32, 125, 56, 135, 60, 60, 135, 1, 0.61791
335, 6, bw, attraction, a-b-db, 14, 1, 8, 33, 56, 125, 60, 135, 135, 60, 3, 0.806992
335, 6, bw, attraction, a-b-db, 14, 1, 8, 33, 56, 125, 60, 135, 135, 60, 1, 0.549558
335, 6, bw, filler, NA, 999, 999, 8, 34, 68, 157, 115, 59, 182, 144, 3, 0.613196
335, 6, bw, filler, NA, 999, 999, 8, 34, 68, 157, 115, 59, 182, 144, 2, 0.531598
335, 6, bw, filler, NA, 999, 999, 8, 35, 147, 171, 159, 138, 157, 67, 1, 0.876029
335, 6, bw, filler, NA, 999, 999, 8, 35, 147, 171, 159, 138, 157, 67, 3, 0.47982
335, 6, bw, filler, NA, 999, 999, 8, 36, 131, 144, 140, 170, 195, 187, 3, 1.11422
335, 6, bw, filler, NA, 999, 999, 8, 36, 131, 144, 140, 170, 195, 187, 1, 0.740516
335, 6, bw, attraction, a-b-db, 9, 3, 8, 37, 120, 195, 114, 186, 195, 120, 1, 1.14013
335, 6, bw, attraction, a-b-db, 9, 3, 8, 37, 120, 195, 114, 186, 195, 120, 3, 0.389202
