sub_n, computer_n, bw_cond, effect, set, distance, diag, block_n, trial_n, h1, w1, h2, w2, h3, w3, choice, rt 
384, 6, wb, practice, NA, 999, 999, 0, 1, 139, 76, 120, 144, 63, 83, 3, 2.80687
384, 6, wb, practice, NA, 999, 999, 0, 1, 139, 76, 120, 144, 63, 83, 2, 2.13195
384, 6, wb, practice, NA, 999, 999, 0, 2, 79, 58, 160, 163, 150, 80, 1, 1.79141
384, 6, wb, practice, NA, 999, 999, 0, 2, 79, 58, 160, 163, 150, 80, 2, 0.815231
384, 6, wb, practice, NA, 999, 999, 0, 3, 162, 60, 89, 120, 120, 88, 3, 4.16904
384, 6, wb, practice, NA, 999, 999, 0, 3, 162, 60, 89, 120, 120, 88, 1, 3.61645
384, 6, wb, attraction, a-b-da, 14, 3, 1, 1, 195, 120, 181, 111, 120, 195, 2, 3.56853
384, 6, wb, attraction, a-b-da, 14, 3, 1, 1, 195, 120, 181, 111, 120, 195, 1, 1.10393
384, 6, wb, attraction, a-b-da, 5, 1, 1, 2, 132, 58, 135, 60, 60, 135, 1, 6.91348
384, 6, wb, attraction, a-b-da, 5, 1, 1, 2, 132, 58, 135, 60, 60, 135, 2, 0.578086
384, 6, wb, attraction, a-b-da, 5, 2, 1, 3, 90, 165, 161, 88, 165, 90, 1, 1.96044
384, 6, wb, attraction, a-b-da, 5, 2, 1, 3, 90, 165, 161, 88, 165, 90, 2, 1.85652
384, 6, wb, attraction, a-b-db, 5, 2, 1, 4, 165, 90, 88, 161, 90, 165, 3, 3.7391
384, 6, wb, attraction, a-b-db, 5, 2, 1, 4, 165, 90, 88, 161, 90, 165, 1, 1.07527
384, 6, wb, filler, NA, 999, 999, 1, 5, 191, 60, 87, 170, 188, 114, 1, 1.83756
384, 6, wb, filler, NA, 999, 999, 1, 5, 191, 60, 87, 170, 188, 114, 3, 0.938934
384, 6, wb, filler, NA, 999, 999, 1, 6, 125, 158, 135, 164, 83, 125, 3, 1.9073
384, 6, wb, filler, NA, 999, 999, 1, 6, 125, 158, 135, 164, 83, 125, 2, 0.997355
384, 6, wb, filler, NA, 999, 999, 1, 7, 117, 165, 65, 75, 165, 149, 2, 1.33091
384, 6, wb, filler, NA, 999, 999, 1, 7, 117, 165, 65, 75, 165, 149, 3, 0.596611
384, 6, wb, attraction, a-b-db, 9, 2, 1, 8, 86, 157, 90, 165, 165, 90, 1, 3.4423
384, 6, wb, attraction, a-b-db, 9, 2, 1, 8, 86, 157, 90, 165, 165, 90, 3, 0.990461
384, 6, wb, attraction, a-b-db, 2, 2, 1, 9, 90, 165, 89, 163, 165, 90, 1, 6.15608
384, 6, wb, attraction, a-b-db, 2, 2, 1, 9, 90, 165, 89, 163, 165, 90, 3, 0.946819
384, 6, wb, attraction, a-b-da, 2, 1, 1, 10, 60, 135, 135, 60, 134, 59, 2, 1.73844
384, 6, wb, attraction, a-b-da, 2, 1, 1, 10, 60, 135, 135, 60, 134, 59, 3, 0.899168
384, 6, wb, filler, NA, 999, 999, 1, 11, 171, 70, 195, 86, 185, 153, 1, 2.41292
384, 6, wb, filler, NA, 999, 999, 1, 11, 171, 70, 195, 86, 185, 153, 3, 1.09882
384, 6, wb, attraction, a-b-da, 9, 2, 1, 12, 157, 86, 90, 165, 165, 90, 3, 1.70838
384, 6, wb, attraction, a-b-da, 9, 2, 1, 12, 157, 86, 90, 165, 165, 90, 1, 2.1345
384, 6, wb, attraction, a-b-da, 5, 3, 1, 13, 120, 195, 195, 120, 190, 117, 3, 1.8384
384, 6, wb, attraction, a-b-da, 5, 3, 1, 13, 120, 195, 195, 120, 190, 117, 1, 0.723182
384, 6, wb, filler, NA, 999, 999, 1, 14, 77, 165, 78, 180, 99, 173, 1, 1.43567
384, 6, wb, filler, NA, 999, 999, 1, 14, 77, 165, 78, 180, 99, 173, 3, 0.505026
384, 6, wb, catch, NA, 999, 999, 1, 15, 177, 138, 108, 147, 92, 103, 3, 1.25084
384, 6, wb, catch, NA, 999, 999, 1, 15, 177, 138, 108, 147, 92, 103, 1, 0.679821
384, 6, wb, filler, NA, 999, 999, 1, 16, 115, 147, 95, 66, 164, 108, 2, 1.40219
384, 6, wb, filler, NA, 999, 999, 1, 16, 115, 147, 95, 66, 164, 108, 3, 0.816969
384, 6, wb, catch, NA, 999, 999, 1, 17, 131, 184, 154, 101, 113, 82, 3, 1.19803
384, 6, wb, catch, NA, 999, 999, 1, 17, 131, 184, 154, 101, 113, 82, 1, 0.580972
384, 6, wb, attraction, a-b-da, 2, 2, 1, 18, 165, 90, 90, 165, 163, 89, 2, 1.06738
384, 6, wb, attraction, a-b-da, 2, 2, 1, 18, 165, 90, 90, 165, 163, 89, 3, 0.431776
384, 6, wb, attraction, a-b-da, 9, 3, 1, 19, 195, 120, 120, 195, 186, 114, 2, 1.26811
384, 6, wb, attraction, a-b-da, 9, 3, 1, 19, 195, 120, 120, 195, 186, 114, 1, 0.448418
384, 6, wb, attraction, a-b-db, 14, 1, 1, 20, 60, 135, 135, 60, 56, 125, 2, 1.10034
384, 6, wb, attraction, a-b-db, 14, 1, 1, 20, 60, 135, 135, 60, 56, 125, 1, 0.639248
384, 6, wb, attraction, a-b-da, 14, 2, 1, 21, 153, 83, 90, 165, 165, 90, 2, 1.10756
384, 6, wb, attraction, a-b-da, 14, 2, 1, 21, 153, 83, 90, 165, 165, 90, 3, 0.589912
384, 6, wb, filler, NA, 999, 999, 1, 22, 184, 189, 157, 101, 134, 56, 3, 1.09162
384, 6, wb, filler, NA, 999, 999, 1, 22, 184, 189, 157, 101, 134, 56, 1, 0.366599
384, 6, wb, filler, NA, 999, 999, 1, 23, 99, 166, 195, 117, 147, 154, 1, 1.32579
384, 6, wb, filler, NA, 999, 999, 1, 23, 99, 166, 195, 117, 147, 154, 2, 2.22336
384, 6, wb, catch, NA, 999, 999, 1, 24, 158, 157, 142, 113, 75, 120, 3, 1.21136
384, 6, wb, catch, NA, 999, 999, 1, 24, 158, 157, 142, 113, 75, 120, 1, 0.513506
384, 6, wb, attraction, a-b-db, 5, 1, 1, 25, 58, 132, 60, 135, 135, 60, 1, 1.17055
384, 6, wb, attraction, a-b-db, 5, 1, 1, 25, 58, 132, 60, 135, 135, 60, 3, 0.666899
384, 6, wb, attraction, a-b-da, 2, 3, 1, 26, 193, 119, 120, 195, 195, 120, 2, 1.41398
384, 6, wb, attraction, a-b-da, 2, 3, 1, 26, 193, 119, 120, 195, 195, 120, 1, 0.580185
384, 6, wb, attraction, a-b-db, 5, 3, 1, 27, 195, 120, 120, 195, 117, 190, 3, 1.27458
384, 6, wb, attraction, a-b-db, 5, 3, 1, 27, 195, 120, 120, 195, 117, 190, 1, 0.694348
384, 6, wb, attraction, a-b-db, 9, 1, 1, 28, 135, 60, 60, 135, 57, 129, 3, 4.52785
384, 6, wb, attraction, a-b-db, 9, 1, 1, 28, 135, 60, 60, 135, 57, 129, 1, 0.712386
384, 6, wb, attraction, a-b-db, 14, 2, 1, 29, 165, 90, 90, 165, 83, 153, 3, 1.90553
384, 6, wb, attraction, a-b-db, 14, 2, 1, 29, 165, 90, 90, 165, 83, 153, 1, 0.619546
384, 6, wb, attraction, a-b-db, 2, 3, 1, 30, 120, 195, 195, 120, 119, 193, 3, 1.57669
384, 6, wb, attraction, a-b-db, 2, 3, 1, 30, 120, 195, 195, 120, 119, 193, 1, 0.912176
384, 6, wb, attraction, a-b-db, 9, 3, 1, 31, 195, 120, 114, 186, 120, 195, 3, 4.11309
384, 6, wb, attraction, a-b-db, 9, 3, 1, 31, 195, 120, 114, 186, 120, 195, 1, 0.674655
384, 6, wb, attraction, a-b-da, 14, 1, 1, 32, 125, 56, 135, 60, 60, 135, 1, 3.06882
384, 6, wb, attraction, a-b-da, 14, 1, 1, 32, 125, 56, 135, 60, 60, 135, 2, 0.792617
384, 6, wb, filler, NA, 999, 999, 1, 33, 138, 162, 136, 83, 104, 179, 3, 1.33425
384, 6, wb, filler, NA, 999, 999, 1, 33, 138, 162, 136, 83, 104, 179, 1, 0.951762
384, 6, wb, attraction, a-b-db, 14, 3, 1, 34, 120, 195, 195, 120, 111, 181, 3, 3.00736
384, 6, wb, attraction, a-b-db, 14, 3, 1, 34, 120, 195, 195, 120, 111, 181, 2, 0.693161
384, 6, wb, attraction, a-b-db, 2, 1, 1, 35, 59, 134, 60, 135, 135, 60, 2, 4.3669
384, 6, wb, attraction, a-b-db, 2, 1, 1, 35, 59, 134, 60, 135, 135, 60, 3, 0.582162
384, 6, wb, attraction, a-b-da, 9, 1, 1, 36, 60, 135, 129, 57, 135, 60, 1, 2.05254
384, 6, wb, attraction, a-b-da, 9, 1, 1, 36, 60, 135, 129, 57, 135, 60, 3, 0.729254
384, 6, wb, filler, NA, 999, 999, 1, 37, 173, 142, 184, 99, 124, 101, 3, 1.36972
384, 6, wb, filler, NA, 999, 999, 1, 37, 173, 142, 184, 99, 124, 101, 1, 0.569821
384, 6, wb, catch, NA, 999, 999, 2, 1, 147, 168, 75, 120, 108, 147, 2, 0.912917
384, 6, wb, catch, NA, 999, 999, 2, 1, 147, 168, 75, 120, 108, 147, 1, 0.451313
384, 6, wb, attraction, a-b-da, 2, 2, 2, 2, 165, 90, 90, 165, 163, 89, 1, 2.00703
384, 6, wb, attraction, a-b-da, 2, 2, 2, 2, 165, 90, 90, 165, 163, 89, 3, 1.16508
384, 6, wb, attraction, a-b-db, 9, 3, 2, 3, 114, 186, 195, 120, 120, 195, 1, 1.86805
384, 6, wb, attraction, a-b-db, 9, 3, 2, 3, 114, 186, 195, 120, 120, 195, 3, 0.784092
384, 6, wb, attraction, a-b-db, 2, 2, 2, 4, 90, 165, 165, 90, 89, 163, 3, 2.3505
384, 6, wb, attraction, a-b-db, 2, 2, 2, 4, 90, 165, 165, 90, 89, 163, 1, 1.03897
384, 6, wb, attraction, a-b-db, 9, 1, 2, 5, 57, 129, 135, 60, 60, 135, 1, 6.53137
384, 6, wb, attraction, a-b-db, 9, 1, 2, 5, 57, 129, 135, 60, 60, 135, 2, 0.459263
384, 6, wb, attraction, a-b-da, 2, 1, 2, 6, 135, 60, 60, 135, 134, 59, 2, 1.25432
384, 6, wb, attraction, a-b-da, 2, 1, 2, 6, 135, 60, 60, 135, 134, 59, 1, 0.922616
384, 6, wb, attraction, a-b-da, 5, 3, 2, 7, 120, 195, 190, 117, 195, 120, 2, 4.96353
384, 6, wb, attraction, a-b-da, 5, 3, 2, 7, 120, 195, 190, 117, 195, 120, 3, 0.402721
384, 6, wb, filler, NA, 999, 999, 2, 8, 141, 80, 177, 155, 70, 73, 3, 1.1364
384, 6, wb, filler, NA, 999, 999, 2, 8, 141, 80, 177, 155, 70, 73, 2, 0.442098
384, 6, wb, filler, NA, 999, 999, 2, 9, 86, 63, 149, 97, 192, 142, 1, 0.845803
384, 6, wb, filler, NA, 999, 999, 2, 9, 86, 63, 149, 97, 192, 142, 3, 0.362952
384, 6, wb, filler, NA, 999, 999, 2, 10, 148, 179, 140, 118, 115, 92, 3, 1.01807
384, 6, wb, filler, NA, 999, 999, 2, 10, 148, 179, 140, 118, 115, 92, 1, 0.584605
384, 6, wb, attraction, a-b-db, 5, 3, 2, 11, 117, 190, 195, 120, 120, 195, 1, 1.67079
384, 6, wb, attraction, a-b-db, 5, 3, 2, 11, 117, 190, 195, 120, 120, 195, 2, 1.19438
384, 6, wb, attraction, a-b-da, 14, 3, 2, 12, 195, 120, 120, 195, 181, 111, 3, 0.927959
384, 6, wb, attraction, a-b-da, 14, 3, 2, 12, 195, 120, 120, 195, 181, 111, 2, 0.409817
384, 6, wb, catch, NA, 999, 999, 2, 13, 112, 143, 114, 81, 161, 154, 2, 1.30278
384, 6, wb, catch, NA, 999, 999, 2, 13, 112, 143, 114, 81, 161, 154, 3, 0.425556
384, 6, wb, attraction, a-b-da, 14, 1, 2, 14, 60, 135, 125, 56, 135, 60, 1, 4.30208
384, 6, wb, attraction, a-b-da, 14, 1, 2, 14, 60, 135, 125, 56, 135, 60, 3, 0.888006
384, 6, wb, attraction, a-b-db, 2, 3, 2, 15, 119, 193, 195, 120, 120, 195, 1, 0.970399
384, 6, wb, attraction, a-b-db, 2, 3, 2, 15, 119, 193, 195, 120, 120, 195, 3, 0.369982
384, 6, wb, attraction, a-b-db, 14, 1, 2, 16, 135, 60, 56, 125, 60, 135, 2, 2.95312
384, 6, wb, attraction, a-b-db, 14, 1, 2, 16, 135, 60, 56, 125, 60, 135, 1, 0.769529
384, 6, wb, filler, NA, 999, 999, 2, 17, 73, 187, 101, 152, 65, 61, 3, 0.912666
384, 6, wb, filler, NA, 999, 999, 2, 17, 73, 187, 101, 152, 65, 61, 2, 8.987
384, 6, wb, attraction, a-b-da, 5, 1, 2, 18, 132, 58, 135, 60, 60, 135, 3, 1.3108
384, 6, wb, attraction, a-b-da, 5, 1, 2, 18, 132, 58, 135, 60, 60, 135, 1, 0.561113
384, 6, wb, catch, NA, 999, 999, 2, 19, 104, 91, 194, 121, 149, 106, 1, 0.824141
384, 6, wb, catch, NA, 999, 999, 2, 19, 104, 91, 194, 121, 149, 106, 2, 0.973854
384, 6, wb, attraction, a-b-db, 9, 2, 2, 20, 90, 165, 165, 90, 86, 157, 1, 1.75611
384, 6, wb, attraction, a-b-db, 9, 2, 2, 20, 90, 165, 165, 90, 86, 157, 2, 0.548226
384, 6, wb, attraction, a-b-db, 5, 1, 2, 21, 135, 60, 58, 132, 60, 135, 3, 1.95608
384, 6, wb, attraction, a-b-db, 5, 1, 2, 21, 135, 60, 58, 132, 60, 135, 1, 1.80402
384, 6, wb, filler, NA, 999, 999, 2, 22, 112, 84, 191, 140, 188, 70, 1, 0.929343
384, 6, wb, filler, NA, 999, 999, 2, 22, 112, 84, 191, 140, 188, 70, 2, 0.715019
384, 6, wb, attraction, a-b-db, 14, 3, 2, 23, 111, 181, 120, 195, 195, 120, 1, 1.63608
384, 6, wb, attraction, a-b-db, 14, 3, 2, 23, 111, 181, 120, 195, 195, 120, 3, 0.673653
384, 6, wb, filler, NA, 999, 999, 2, 24, 142, 68, 94, 103, 66, 65, 3, 1.14796
384, 6, wb, filler, NA, 999, 999, 2, 24, 142, 68, 94, 103, 66, 65, 2, 2.90101
384, 6, wb, filler, NA, 999, 999, 2, 25, 147, 109, 99, 175, 95, 62, 3, 3.54194
384, 6, wb, filler, NA, 999, 999, 2, 25, 147, 109, 99, 175, 95, 62, 2, 0.878192
384, 6, wb, filler, NA, 999, 999, 2, 26, 137, 181, 70, 194, 190, 76, 2, 1.88052
384, 6, wb, filler, NA, 999, 999, 2, 26, 137, 181, 70, 194, 190, 76, 1, 0.555855
384, 6, wb, filler, NA, 999, 999, 2, 27, 168, 109, 159, 142, 69, 151, 3, 1.50701
384, 6, wb, filler, NA, 999, 999, 2, 27, 168, 109, 159, 142, 69, 151, 2, 0.61315
384, 6, wb, filler, NA, 999, 999, 2, 28, 140, 83, 195, 142, 141, 185, 1, 1.82625
384, 6, wb, filler, NA, 999, 999, 2, 28, 140, 83, 195, 142, 141, 185, 2, 0.631665
384, 6, wb, attraction, a-b-da, 5, 2, 2, 29, 90, 165, 161, 88, 165, 90, 3, 2.92403
384, 6, wb, attraction, a-b-da, 5, 2, 2, 29, 90, 165, 161, 88, 165, 90, 2, 0.429226
384, 6, wb, attraction, a-b-da, 9, 2, 2, 30, 165, 90, 90, 165, 157, 86, 2, 2.32958
384, 6, wb, attraction, a-b-da, 9, 2, 2, 30, 165, 90, 90, 165, 157, 86, 1, 0.834811
384, 6, wb, attraction, a-b-db, 5, 2, 2, 31, 88, 161, 90, 165, 165, 90, 1, 1.51116
384, 6, wb, attraction, a-b-db, 5, 2, 2, 31, 88, 161, 90, 165, 165, 90, 3, 0.689355
384, 6, wb, attraction, a-b-da, 9, 3, 2, 32, 120, 195, 186, 114, 195, 120, 1, 2.25171
384, 6, wb, attraction, a-b-da, 9, 3, 2, 32, 120, 195, 186, 114, 195, 120, 3, 0.792298
384, 6, wb, attraction, a-b-da, 14, 2, 2, 33, 153, 83, 90, 165, 165, 90, 1, 1.6061
384, 6, wb, attraction, a-b-da, 14, 2, 2, 33, 153, 83, 90, 165, 165, 90, 2, 0.508238
384, 6, wb, attraction, a-b-db, 2, 1, 2, 34, 60, 135, 59, 134, 135, 60, 2, 2.10128
384, 6, wb, attraction, a-b-db, 2, 1, 2, 34, 60, 135, 59, 134, 135, 60, 3, 0.527915
384, 6, wb, attraction, a-b-da, 9, 1, 2, 35, 129, 57, 60, 135, 135, 60, 2, 2.40833
384, 6, wb, attraction, a-b-da, 9, 1, 2, 35, 129, 57, 60, 135, 135, 60, 1, 0.614273
384, 6, wb, attraction, a-b-db, 14, 2, 2, 36, 83, 153, 90, 165, 165, 90, 1, 1.36331
384, 6, wb, attraction, a-b-db, 14, 2, 2, 36, 83, 153, 90, 165, 165, 90, 3, 0.547572
384, 6, wb, attraction, a-b-da, 2, 3, 2, 37, 195, 120, 193, 119, 120, 195, 2, 4.76329
384, 6, wb, attraction, a-b-da, 2, 3, 2, 37, 195, 120, 193, 119, 120, 195, 3, 0.410551
384, 6, wb, filler, NA, 999, 999, 3, 1, 126, 104, 67, 171, 117, 65, 3, 2.47162
384, 6, wb, filler, NA, 999, 999, 3, 1, 126, 104, 67, 171, 117, 65, 1, 1.25894
384, 6, wb, attraction, a-b-da, 9, 3, 3, 2, 186, 114, 195, 120, 120, 195, 3, 4.84566
384, 6, wb, attraction, a-b-da, 9, 3, 3, 2, 186, 114, 195, 120, 120, 195, 2, 0.8735
384, 6, wb, attraction, a-b-da, 2, 2, 3, 3, 90, 165, 163, 89, 165, 90, 1, 2.81178
384, 6, wb, attraction, a-b-da, 2, 2, 3, 3, 90, 165, 163, 89, 165, 90, 2, 0.689516
384, 6, wb, attraction, a-b-db, 9, 2, 3, 4, 90, 165, 86, 157, 165, 90, 3, 3.38731
384, 6, wb, attraction, a-b-db, 9, 2, 3, 4, 90, 165, 86, 157, 165, 90, 1, 0.618276
384, 6, wb, attraction, a-b-da, 9, 2, 3, 5, 90, 165, 165, 90, 157, 86, 3, 1.95132
384, 6, wb, attraction, a-b-da, 9, 2, 3, 5, 90, 165, 165, 90, 157, 86, 1, 0.67201
384, 6, wb, filler, NA, 999, 999, 3, 6, 85, 98, 82, 171, 130, 110, 1, 1.46699
384, 6, wb, filler, NA, 999, 999, 3, 6, 85, 98, 82, 171, 130, 110, 2, 1.87924
384, 6, wb, filler, NA, 999, 999, 3, 7, 195, 144, 159, 133, 170, 74, 3, 2.84929
384, 6, wb, filler, NA, 999, 999, 3, 7, 195, 144, 159, 133, 170, 74, 1, 0.637694
384, 6, wb, filler, NA, 999, 999, 3, 8, 176, 88, 174, 111, 186, 113, 1, 1.49009
384, 6, wb, filler, NA, 999, 999, 3, 8, 176, 88, 174, 111, 186, 113, 3, 0.820875
384, 6, wb, attraction, a-b-db, 14, 1, 3, 9, 60, 135, 56, 125, 135, 60, 2, 2.69794
384, 6, wb, attraction, a-b-db, 14, 1, 3, 9, 60, 135, 56, 125, 135, 60, 3, 1.19651
384, 6, wb, filler, NA, 999, 999, 3, 10, 127, 138, 83, 114, 130, 117, 2, 1.898
384, 6, wb, filler, NA, 999, 999, 3, 10, 127, 138, 83, 114, 130, 117, 1, 0.77278
384, 6, wb, filler, NA, 999, 999, 3, 11, 164, 57, 108, 138, 85, 81, 3, 3.25973
384, 6, wb, filler, NA, 999, 999, 3, 11, 164, 57, 108, 138, 85, 81, 2, 1.95143
384, 6, wb, filler, NA, 999, 999, 3, 12, 71, 154, 170, 105, 107, 126, 1, 4.64665
384, 6, wb, filler, NA, 999, 999, 3, 12, 71, 154, 170, 105, 107, 126, 2, 0.546551
384, 6, wb, attraction, a-b-db, 14, 3, 3, 13, 111, 181, 120, 195, 195, 120, 1, 2.74636
384, 6, wb, attraction, a-b-db, 14, 3, 3, 13, 111, 181, 120, 195, 195, 120, 3, 2.97888
384, 6, wb, attraction, a-b-da, 2, 3, 3, 14, 193, 119, 195, 120, 120, 195, 3, 2.30449
384, 6, wb, attraction, a-b-da, 2, 3, 3, 14, 193, 119, 195, 120, 120, 195, 2, 0.386314
384, 6, wb, attraction, a-b-da, 5, 1, 3, 15, 135, 60, 132, 58, 60, 135, 3, 1.1208
384, 6, wb, attraction, a-b-da, 5, 1, 3, 15, 135, 60, 132, 58, 60, 135, 2, 0.842447
384, 6, wb, filler, NA, 999, 999, 3, 16, 107, 69, 180, 132, 141, 129, 1, 1.07022
384, 6, wb, filler, NA, 999, 999, 3, 16, 107, 69, 180, 132, 141, 129, 2, 0.63439
384, 6, wb, attraction, a-b-da, 14, 2, 3, 17, 153, 83, 90, 165, 165, 90, 1, 1.5188
384, 6, wb, attraction, a-b-da, 14, 2, 3, 17, 153, 83, 90, 165, 165, 90, 2, 0.881016
384, 6, wb, attraction, a-b-db, 5, 2, 3, 18, 165, 90, 88, 161, 90, 165, 3, 1.98733
384, 6, wb, attraction, a-b-db, 5, 2, 3, 18, 165, 90, 88, 161, 90, 165, 2, 0.602007
384, 6, wb, catch, NA, 999, 999, 3, 19, 99, 96, 121, 194, 105, 150, 1, 1.06389
384, 6, wb, catch, NA, 999, 999, 3, 19, 99, 96, 121, 194, 105, 150, 2, 0.628122
384, 6, wb, attraction, a-b-da, 2, 1, 3, 20, 135, 60, 134, 59, 60, 135, 2, 5.92051
384, 6, wb, attraction, a-b-da, 2, 1, 3, 20, 135, 60, 134, 59, 60, 135, 3, 0.68128
384, 6, wb, attraction, a-b-db, 5, 1, 3, 21, 58, 132, 135, 60, 60, 135, 3, 1.10771
384, 6, wb, attraction, a-b-db, 5, 1, 3, 21, 58, 132, 135, 60, 60, 135, 2, 0.958012
384, 6, wb, filler, NA, 999, 999, 3, 22, 109, 146, 118, 73, 151, 195, 2, 1.58919
384, 6, wb, filler, NA, 999, 999, 3, 22, 109, 146, 118, 73, 151, 195, 3, 0.587776
384, 6, wb, attraction, a-b-da, 5, 3, 3, 23, 120, 195, 190, 117, 195, 120, 2, 1.26625
384, 6, wb, attraction, a-b-da, 5, 3, 3, 23, 120, 195, 190, 117, 195, 120, 1, 0.35857
384, 6, wb, attraction, a-b-db, 9, 3, 3, 24, 114, 186, 120, 195, 195, 120, 1, 1.14957
384, 6, wb, attraction, a-b-db, 9, 3, 3, 24, 114, 186, 120, 195, 195, 120, 2, 0.342581
384, 6, wb, filler, NA, 999, 999, 3, 25, 99, 106, 67, 188, 108, 157, 1, 1.7985
384, 6, wb, filler, NA, 999, 999, 3, 25, 99, 106, 67, 188, 108, 157, 3, 0.941102
384, 6, wb, attraction, a-b-db, 2, 2, 3, 26, 165, 90, 89, 163, 90, 165, 3, 1.5248
384, 6, wb, attraction, a-b-db, 2, 2, 3, 26, 165, 90, 89, 163, 90, 165, 1, 0.798229
384, 6, wb, attraction, a-b-da, 14, 3, 3, 27, 120, 195, 181, 111, 195, 120, 1, 1.24396
384, 6, wb, attraction, a-b-da, 14, 3, 3, 27, 120, 195, 181, 111, 195, 120, 3, 0.608902
384, 6, wb, attraction, a-b-db, 5, 3, 3, 28, 120, 195, 117, 190, 195, 120, 2, 1.33393
384, 6, wb, attraction, a-b-db, 5, 3, 3, 28, 120, 195, 117, 190, 195, 120, 1, 0.687474
384, 6, wb, attraction, a-b-da, 9, 1, 3, 29, 135, 60, 60, 135, 129, 57, 2, 1.51393
384, 6, wb, attraction, a-b-da, 9, 1, 3, 29, 135, 60, 60, 135, 129, 57, 1, 0.932065
384, 6, wb, attraction, a-b-da, 14, 1, 3, 30, 125, 56, 60, 135, 135, 60, 1, 4.54047
384, 6, wb, attraction, a-b-da, 14, 1, 3, 30, 125, 56, 60, 135, 135, 60, 3, 0.612406
384, 6, wb, attraction, a-b-db, 9, 1, 3, 31, 135, 60, 60, 135, 57, 129, 3, 3.32139
384, 6, wb, attraction, a-b-db, 9, 1, 3, 31, 135, 60, 60, 135, 57, 129, 1, 0.730329
384, 6, wb, catch, NA, 999, 999, 3, 32, 176, 139, 81, 114, 116, 139, 2, 1.88266
384, 6, wb, catch, NA, 999, 999, 3, 32, 176, 139, 81, 114, 116, 139, 1, 0.638071
384, 6, wb, attraction, a-b-db, 2, 3, 3, 33, 119, 193, 195, 120, 120, 195, 1, 1.43448
384, 6, wb, attraction, a-b-db, 2, 3, 3, 33, 119, 193, 195, 120, 120, 195, 2, 0.456212
384, 6, wb, attraction, a-b-db, 2, 1, 3, 34, 135, 60, 60, 135, 59, 134, 2, 3.32311
384, 6, wb, attraction, a-b-db, 2, 1, 3, 34, 135, 60, 60, 135, 59, 134, 1, 0.548084
384, 6, wb, catch, NA, 999, 999, 3, 35, 152, 103, 134, 181, 60, 135, 3, 0.987814
384, 6, wb, catch, NA, 999, 999, 3, 35, 152, 103, 134, 181, 60, 135, 2, 0.514879
384, 6, wb, attraction, a-b-db, 14, 2, 3, 36, 165, 90, 83, 153, 90, 165, 2, 1.13196
384, 6, wb, attraction, a-b-db, 14, 2, 3, 36, 165, 90, 83, 153, 90, 165, 1, 1.35762
384, 6, wb, attraction, a-b-da, 5, 2, 3, 37, 161, 88, 165, 90, 90, 165, 3, 1.48452
384, 6, wb, attraction, a-b-da, 5, 2, 3, 37, 161, 88, 165, 90, 90, 165, 2, 0.480067
384, 6, wb, attraction, a-b-db, 14, 3, 4, 1, 195, 120, 120, 195, 111, 181, 3, 2.41037
384, 6, wb, attraction, a-b-db, 14, 3, 4, 1, 195, 120, 120, 195, 111, 181, 1, 2.84037
384, 6, wb, attraction, a-b-db, 2, 3, 4, 2, 120, 195, 195, 120, 119, 193, 1, 1.25136
384, 6, wb, attraction, a-b-db, 2, 3, 4, 2, 120, 195, 195, 120, 119, 193, 2, 0.760273
384, 6, wb, filler, NA, 999, 999, 4, 3, 150, 168, 96, 189, 79, 95, 3, 0.911387
384, 6, wb, filler, NA, 999, 999, 4, 3, 150, 168, 96, 189, 79, 95, 1, 0.553636
384, 6, wb, attraction, a-b-db, 5, 2, 4, 4, 88, 161, 90, 165, 165, 90, 1, 2.09743
384, 6, wb, attraction, a-b-db, 5, 2, 4, 4, 88, 161, 90, 165, 165, 90, 3, 0.572027
384, 6, wb, attraction, a-b-db, 9, 3, 4, 5, 195, 120, 120, 195, 114, 186, 3, 2.97115
384, 6, wb, attraction, a-b-db, 9, 3, 4, 5, 195, 120, 120, 195, 114, 186, 1, 0.802177
384, 6, wb, catch, NA, 999, 999, 4, 6, 189, 126, 165, 90, 119, 76, 3, 0.999824
384, 6, wb, catch, NA, 999, 999, 4, 6, 189, 126, 165, 90, 119, 76, 1, 0.526968
384, 6, wb, attraction, a-b-da, 2, 3, 4, 7, 193, 119, 195, 120, 120, 195, 1, 2.22335
384, 6, wb, attraction, a-b-da, 2, 3, 4, 7, 193, 119, 195, 120, 120, 195, 2, 0.652625
384, 6, wb, filler, NA, 999, 999, 4, 8, 98, 171, 138, 74, 183, 160, 2, 1.5203
384, 6, wb, filler, NA, 999, 999, 4, 8, 98, 171, 138, 74, 183, 160, 3, 0.401799
384, 6, wb, attraction, a-b-da, 14, 2, 4, 9, 90, 165, 153, 83, 165, 90, 2, 1.62361
384, 6, wb, attraction, a-b-da, 14, 2, 4, 9, 90, 165, 153, 83, 165, 90, 3, 0.381073
384, 6, wb, attraction, a-b-db, 2, 2, 4, 10, 165, 90, 89, 163, 90, 165, 3, 4.09974
384, 6, wb, attraction, a-b-db, 2, 2, 4, 10, 165, 90, 89, 163, 90, 165, 1, 0.565645
384, 6, wb, catch, NA, 999, 999, 4, 11, 116, 139, 182, 133, 102, 93, 3, 0.780713
384, 6, wb, catch, NA, 999, 999, 4, 11, 116, 139, 182, 133, 102, 93, 2, 0.420597
384, 6, wb, filler, NA, 999, 999, 4, 12, 61, 94, 64, 161, 66, 132, 1, 1.48961
384, 6, wb, filler, NA, 999, 999, 4, 12, 61, 94, 64, 161, 66, 132, 2, 0.476425
384, 6, wb, attraction, a-b-da, 14, 3, 4, 13, 195, 120, 120, 195, 181, 111, 3, 1.07894
384, 6, wb, attraction, a-b-da, 14, 3, 4, 13, 195, 120, 120, 195, 181, 111, 2, 0.842566
384, 6, wb, attraction, a-b-db, 5, 1, 4, 14, 58, 132, 60, 135, 135, 60, 1, 1.19022
384, 6, wb, attraction, a-b-db, 5, 1, 4, 14, 58, 132, 60, 135, 135, 60, 2, 0.685191
384, 6, wb, attraction, a-b-da, 9, 3, 4, 15, 120, 195, 186, 114, 195, 120, 2, 2.59951
384, 6, wb, attraction, a-b-da, 9, 3, 4, 15, 120, 195, 186, 114, 195, 120, 1, 1.08613
384, 6, wb, attraction, a-b-db, 14, 2, 4, 16, 83, 153, 90, 165, 165, 90, 1, 1.67223
384, 6, wb, attraction, a-b-db, 14, 2, 4, 16, 83, 153, 90, 165, 165, 90, 2, 1.28377
384, 6, wb, filler, NA, 999, 999, 4, 17, 193, 122, 155, 157, 140, 188, 1, 2.89403
384, 6, wb, filler, NA, 999, 999, 4, 17, 193, 122, 155, 157, 140, 188, 2, 0.392385
384, 6, wb, filler, NA, 999, 999, 4, 18, 124, 172, 130, 146, 117, 83, 3, 1.31022
384, 6, wb, filler, NA, 999, 999, 4, 18, 124, 172, 130, 146, 117, 83, 1, 1.73651
384, 6, wb, attraction, a-b-db, 9, 1, 4, 19, 60, 135, 57, 129, 135, 60, 2, 1.19269
384, 6, wb, attraction, a-b-db, 9, 1, 4, 19, 60, 135, 57, 129, 135, 60, 3, 0.527416
384, 6, wb, attraction, a-b-db, 9, 2, 4, 20, 90, 165, 165, 90, 86, 157, 1, 1.49587
384, 6, wb, attraction, a-b-db, 9, 2, 4, 20, 90, 165, 165, 90, 86, 157, 2, 0.610693
384, 6, wb, filler, NA, 999, 999, 4, 21, 158, 154, 71, 168, 134, 109, 2, 2.66383
384, 6, wb, filler, NA, 999, 999, 4, 21, 158, 154, 71, 168, 134, 109, 1, 0.611597
384, 6, wb, attraction, a-b-da, 14, 1, 4, 22, 135, 60, 60, 135, 125, 56, 3, 3.22478
384, 6, wb, attraction, a-b-da, 14, 1, 4, 22, 135, 60, 60, 135, 125, 56, 1, 0.885763
384, 6, wb, filler, NA, 999, 999, 4, 23, 70, 134, 125, 120, 109, 93, 1, 2.46407
384, 6, wb, filler, NA, 999, 999, 4, 23, 70, 134, 125, 120, 109, 93, 2, 0.988074
384, 6, wb, attraction, a-b-da, 5, 3, 4, 24, 195, 120, 190, 117, 120, 195, 2, 2.35407
384, 6, wb, attraction, a-b-da, 5, 3, 4, 24, 195, 120, 190, 117, 120, 195, 3, 0.674732
384, 6, wb, attraction, a-b-da, 5, 1, 4, 25, 60, 135, 135, 60, 132, 58, 1, 1.5491
384, 6, wb, attraction, a-b-da, 5, 1, 4, 25, 60, 135, 135, 60, 132, 58, 2, 0.589927
384, 6, wb, attraction, a-b-da, 9, 2, 4, 26, 157, 86, 165, 90, 90, 165, 3, 3.29967
384, 6, wb, attraction, a-b-da, 9, 2, 4, 26, 157, 86, 165, 90, 90, 165, 2, 0.453979
384, 6, wb, attraction, a-b-da, 2, 1, 4, 27, 134, 59, 135, 60, 60, 135, 3, 1.01782
384, 6, wb, attraction, a-b-da, 2, 1, 4, 27, 134, 59, 135, 60, 60, 135, 2, 0.664132
384, 6, wb, filler, NA, 999, 999, 4, 28, 83, 118, 72, 169, 194, 111, 1, 1.35508
384, 6, wb, filler, NA, 999, 999, 4, 28, 83, 118, 72, 169, 194, 111, 3, 0.539496
384, 6, wb, attraction, a-b-db, 5, 3, 4, 29, 120, 195, 195, 120, 117, 190, 1, 1.33123
384, 6, wb, attraction, a-b-db, 5, 3, 4, 29, 120, 195, 195, 120, 117, 190, 2, 0.756747
384, 6, wb, filler, NA, 999, 999, 4, 30, 175, 158, 73, 121, 153, 113, 2, 0.955758
384, 6, wb, filler, NA, 999, 999, 4, 30, 175, 158, 73, 121, 153, 113, 1, 0.372107
384, 6, wb, attraction, a-b-db, 14, 1, 4, 31, 60, 135, 56, 125, 135, 60, 1, 3.09929
384, 6, wb, attraction, a-b-db, 14, 1, 4, 31, 60, 135, 56, 125, 135, 60, 3, 0.613714
384, 6, wb, attraction, a-b-db, 2, 1, 4, 32, 135, 60, 60, 135, 59, 134, 1, 3.93876
384, 6, wb, attraction, a-b-db, 2, 1, 4, 32, 135, 60, 60, 135, 59, 134, 2, 0.746723
384, 6, wb, filler, NA, 999, 999, 4, 33, 170, 132, 126, 185, 160, 66, 3, 2.35445
384, 6, wb, filler, NA, 999, 999, 4, 33, 170, 132, 126, 185, 160, 66, 1, 1.15437
384, 6, wb, attraction, a-b-da, 5, 2, 4, 34, 161, 88, 90, 165, 165, 90, 1, 2.48991
384, 6, wb, attraction, a-b-da, 5, 2, 4, 34, 161, 88, 90, 165, 165, 90, 2, 0.844479
384, 6, wb, catch, NA, 999, 999, 4, 35, 152, 103, 172, 143, 134, 61, 3, 2.5282
384, 6, wb, catch, NA, 999, 999, 4, 35, 152, 103, 172, 143, 134, 61, 2, 0.369282
384, 6, wb, attraction, a-b-da, 9, 1, 4, 36, 129, 57, 60, 135, 135, 60, 1, 2.80049
384, 6, wb, attraction, a-b-da, 9, 1, 4, 36, 129, 57, 60, 135, 135, 60, 3, 0.846884
384, 6, wb, attraction, a-b-da, 2, 2, 4, 37, 163, 89, 165, 90, 90, 165, 3, 2.20254
384, 6, wb, attraction, a-b-da, 2, 2, 4, 37, 163, 89, 165, 90, 90, 165, 2, 0.72919
384, 6, wb, attraction, a-b-da, 9, 2, 5, 1, 165, 90, 157, 86, 90, 165, 2, 35.1042
384, 6, wb, attraction, a-b-da, 9, 2, 5, 1, 165, 90, 157, 86, 90, 165, 1, 0.392572
384, 6, wb, filler, NA, 999, 999, 5, 2, 183, 125, 152, 195, 150, 109, 3, 1.21433
384, 6, wb, filler, NA, 999, 999, 5, 2, 183, 125, 152, 195, 150, 109, 2, 0.492636
384, 6, wb, filler, NA, 999, 999, 5, 3, 151, 138, 156, 81, 134, 63, 3, 1.19841
384, 6, wb, filler, NA, 999, 999, 5, 3, 151, 138, 156, 81, 134, 63, 1, 0.701329
384, 6, wb, attraction, a-b-db, 9, 2, 5, 4, 86, 157, 90, 165, 165, 90, 2, 4.64719
384, 6, wb, attraction, a-b-db, 9, 2, 5, 4, 86, 157, 90, 165, 165, 90, 3, 0.474956
384, 6, wb, filler, NA, 999, 999, 5, 5, 81, 189, 72, 95, 92, 84, 2, 1.26136
384, 6, wb, filler, NA, 999, 999, 5, 5, 81, 189, 72, 95, 92, 84, 1, 0.633543
384, 6, wb, attraction, a-b-da, 2, 3, 5, 6, 195, 120, 120, 195, 193, 119, 2, 0.822078
384, 6, wb, attraction, a-b-da, 2, 3, 5, 6, 195, 120, 120, 195, 193, 119, 1, 0.51571
384, 6, wb, attraction, a-b-db, 5, 3, 5, 7, 117, 190, 195, 120, 120, 195, 1, 1.02085
384, 6, wb, attraction, a-b-db, 5, 3, 5, 7, 117, 190, 195, 120, 120, 195, 2, 0.378481
384, 6, wb, attraction, a-b-db, 14, 3, 5, 8, 120, 195, 111, 181, 195, 120, 2, 0.769034
384, 6, wb, attraction, a-b-db, 14, 3, 5, 8, 120, 195, 111, 181, 195, 120, 1, 1.53741
384, 6, wb, filler, NA, 999, 999, 5, 9, 184, 182, 153, 99, 190, 70, 3, 4.13755
384, 6, wb, filler, NA, 999, 999, 5, 9, 184, 182, 153, 99, 190, 70, 1, 0.482191
384, 6, wb, attraction, a-b-db, 2, 1, 5, 10, 60, 135, 135, 60, 59, 134, 1, 2.3967
384, 6, wb, attraction, a-b-db, 2, 1, 5, 10, 60, 135, 135, 60, 59, 134, 2, 1.21928
384, 6, wb, attraction, a-b-da, 9, 1, 5, 11, 60, 135, 129, 57, 135, 60, 2, 1.77621
384, 6, wb, attraction, a-b-da, 9, 1, 5, 11, 60, 135, 129, 57, 135, 60, 1, 0.783611
384, 6, wb, attraction, a-b-da, 2, 2, 5, 12, 165, 90, 163, 89, 90, 165, 1, 2.97392
384, 6, wb, attraction, a-b-da, 2, 2, 5, 12, 165, 90, 163, 89, 90, 165, 3, 0.757052
384, 6, wb, attraction, a-b-da, 14, 3, 5, 13, 120, 195, 195, 120, 181, 111, 2, 1.268
384, 6, wb, attraction, a-b-da, 14, 3, 5, 13, 120, 195, 195, 120, 181, 111, 1, 1.80018
384, 6, wb, attraction, a-b-da, 5, 3, 5, 14, 190, 117, 195, 120, 120, 195, 3, 1.04557
384, 6, wb, attraction, a-b-da, 5, 3, 5, 14, 190, 117, 195, 120, 120, 195, 2, 0.634611
384, 6, wb, attraction, a-b-db, 14, 2, 5, 15, 165, 90, 90, 165, 83, 153, 3, 1.81499
384, 6, wb, attraction, a-b-db, 14, 2, 5, 15, 165, 90, 90, 165, 83, 153, 1, 0.493212
384, 6, wb, catch, NA, 999, 999, 5, 16, 90, 165, 143, 172, 61, 134, 3, 2.14282
384, 6, wb, catch, NA, 999, 999, 5, 16, 90, 165, 143, 172, 61, 134, 2, 0.447606
384, 6, wb, catch, NA, 999, 999, 5, 17, 154, 161, 99, 96, 96, 159, 2, 1.42725
384, 6, wb, catch, NA, 999, 999, 5, 17, 154, 161, 99, 96, 96, 159, 1, 0.440816
384, 6, wb, filler, NA, 999, 999, 5, 18, 97, 179, 144, 64, 59, 162, 3, 3.01262
384, 6, wb, filler, NA, 999, 999, 5, 18, 97, 179, 144, 64, 59, 162, 1, 0.450281
384, 6, wb, attraction, a-b-db, 2, 3, 5, 19, 120, 195, 195, 120, 119, 193, 1, 1.18209
384, 6, wb, attraction, a-b-db, 2, 3, 5, 19, 120, 195, 195, 120, 119, 193, 3, 0.509661
384, 6, wb, catch, NA, 999, 999, 5, 20, 165, 150, 156, 99, 120, 75, 3, 0.759
384, 6, wb, catch, NA, 999, 999, 5, 20, 165, 150, 156, 99, 120, 75, 1, 0.703286
384, 6, wb, filler, NA, 999, 999, 5, 21, 135, 77, 107, 151, 61, 151, 3, 1.09695
384, 6, wb, filler, NA, 999, 999, 5, 21, 135, 77, 107, 151, 61, 151, 2, 0.32395
384, 6, wb, attraction, a-b-db, 5, 1, 5, 22, 135, 60, 58, 132, 60, 135, 2, 1.02845
384, 6, wb, attraction, a-b-db, 5, 1, 5, 22, 135, 60, 58, 132, 60, 135, 1, 0.818041
384, 6, wb, filler, NA, 999, 999, 5, 23, 112, 109, 156, 103, 116, 114, 1, 2.37517
384, 6, wb, filler, NA, 999, 999, 5, 23, 112, 109, 156, 103, 116, 114, 2, 1.10238
384, 6, wb, attraction, a-b-da, 14, 1, 5, 24, 60, 135, 125, 56, 135, 60, 1, 1.17596
384, 6, wb, attraction, a-b-da, 14, 1, 5, 24, 60, 135, 125, 56, 135, 60, 3, 0.551553
384, 6, wb, attraction, a-b-db, 14, 1, 5, 25, 60, 135, 135, 60, 56, 125, 3, 1.23139
384, 6, wb, attraction, a-b-db, 14, 1, 5, 25, 60, 135, 135, 60, 56, 125, 2, 1.269
384, 6, wb, filler, NA, 999, 999, 5, 26, 193, 149, 173, 93, 61, 177, 3, 1.36775
384, 6, wb, filler, NA, 999, 999, 5, 26, 193, 149, 173, 93, 61, 177, 1, 0.38397
384, 6, wb, attraction, a-b-da, 5, 1, 5, 27, 60, 135, 135, 60, 132, 58, 1, 2.79868
384, 6, wb, attraction, a-b-da, 5, 1, 5, 27, 60, 135, 135, 60, 132, 58, 2, 1.01306
384, 6, wb, attraction, a-b-da, 9, 3, 5, 28, 186, 114, 120, 195, 195, 120, 1, 1.45001
384, 6, wb, attraction, a-b-da, 9, 3, 5, 28, 186, 114, 120, 195, 195, 120, 2, 2.21476
384, 6, wb, filler, NA, 999, 999, 5, 29, 144, 139, 62, 158, 185, 134, 2, 0.827311
384, 6, wb, filler, NA, 999, 999, 5, 29, 144, 139, 62, 158, 185, 134, 3, 0.385004
384, 6, wb, attraction, a-b-da, 2, 1, 5, 30, 134, 59, 135, 60, 60, 135, 3, 1.48768
384, 6, wb, attraction, a-b-da, 2, 1, 5, 30, 134, 59, 135, 60, 60, 135, 2, 0.442289
384, 6, wb, filler, NA, 999, 999, 5, 31, 142, 123, 87, 81, 84, 162, 2, 0.646143
384, 6, wb, filler, NA, 999, 999, 5, 31, 142, 123, 87, 81, 84, 162, 1, 0.347212
384, 6, wb, attraction, a-b-db, 2, 2, 5, 32, 90, 165, 165, 90, 89, 163, 1, 1.37909
384, 6, wb, attraction, a-b-db, 2, 2, 5, 32, 90, 165, 165, 90, 89, 163, 3, 0.394656
384, 6, wb, attraction, a-b-db, 9, 3, 5, 33, 195, 120, 120, 195, 114, 186, 3, 1.06451
384, 6, wb, attraction, a-b-db, 9, 3, 5, 33, 195, 120, 120, 195, 114, 186, 1, 0.39677
384, 6, wb, attraction, a-b-da, 14, 2, 5, 34, 153, 83, 90, 165, 165, 90, 2, 0.890533
384, 6, wb, attraction, a-b-da, 14, 2, 5, 34, 153, 83, 90, 165, 165, 90, 3, 0.869601
384, 6, wb, attraction, a-b-da, 5, 2, 5, 35, 161, 88, 90, 165, 165, 90, 2, 0.824649
384, 6, wb, attraction, a-b-da, 5, 2, 5, 35, 161, 88, 90, 165, 165, 90, 3, 0.950301
384, 6, wb, attraction, a-b-db, 5, 2, 5, 36, 88, 161, 165, 90, 90, 165, 1, 0.973855
384, 6, wb, attraction, a-b-db, 5, 2, 5, 36, 88, 161, 165, 90, 90, 165, 3, 0.893798
384, 6, wb, attraction, a-b-db, 9, 1, 5, 37, 57, 129, 60, 135, 135, 60, 1, 1.17521
384, 6, wb, attraction, a-b-db, 9, 1, 5, 37, 57, 129, 60, 135, 135, 60, 3, 0.486894
384, 6, wb, attraction, a-b-db, 14, 2, 6, 1, 83, 153, 165, 90, 90, 165, 1, 1.05743
384, 6, wb, attraction, a-b-db, 14, 2, 6, 1, 83, 153, 165, 90, 90, 165, 3, 0.829688
384, 6, wb, filler, NA, 999, 999, 6, 2, 65, 185, 188, 163, 72, 78, 3, 1.80209
384, 6, wb, filler, NA, 999, 999, 6, 2, 65, 185, 188, 163, 72, 78, 2, 0.272796
384, 6, wb, attraction, a-b-db, 14, 1, 6, 3, 56, 125, 60, 135, 135, 60, 2, 1.09123
384, 6, wb, attraction, a-b-db, 14, 1, 6, 3, 56, 125, 60, 135, 135, 60, 3, 0.678304
384, 6, wb, catch, NA, 999, 999, 6, 4, 193, 122, 159, 96, 103, 92, 3, 0.888714
384, 6, wb, catch, NA, 999, 999, 6, 4, 193, 122, 159, 96, 103, 92, 1, 0.691813
384, 6, wb, attraction, a-b-db, 2, 3, 6, 5, 195, 120, 120, 195, 119, 193, 2, 0.685448
384, 6, wb, attraction, a-b-db, 2, 3, 6, 5, 195, 120, 120, 195, 119, 193, 1, 0.969314
384, 6, wb, attraction, a-b-db, 9, 3, 6, 6, 114, 186, 195, 120, 120, 195, 1, 0.856131
384, 6, wb, attraction, a-b-db, 9, 3, 6, 6, 114, 186, 195, 120, 120, 195, 3, 0.860562
384, 6, wb, attraction, a-b-db, 5, 1, 6, 7, 58, 132, 60, 135, 135, 60, 1, 2.56744
384, 6, wb, attraction, a-b-db, 5, 1, 6, 7, 58, 132, 60, 135, 135, 60, 3, 1.26337
384, 6, wb, filler, NA, 999, 999, 6, 8, 173, 138, 164, 181, 72, 142, 3, 0.746252
384, 6, wb, filler, NA, 999, 999, 6, 8, 173, 138, 164, 181, 72, 142, 2, 0.395339
384, 6, wb, attraction, a-b-da, 5, 2, 6, 9, 90, 165, 161, 88, 165, 90, 2, 1.73712
384, 6, wb, attraction, a-b-da, 5, 2, 6, 9, 90, 165, 161, 88, 165, 90, 3, 0.449979
384, 6, wb, filler, NA, 999, 999, 6, 10, 104, 190, 110, 77, 110, 118, 2, 0.597618
384, 6, wb, filler, NA, 999, 999, 6, 10, 104, 190, 110, 77, 110, 118, 1, 0.428714
384, 6, wb, attraction, a-b-da, 2, 2, 6, 11, 90, 165, 165, 90, 163, 89, 1, 2.99332
384, 6, wb, attraction, a-b-da, 2, 2, 6, 11, 90, 165, 165, 90, 163, 89, 2, 0.903586
384, 6, wb, catch, NA, 999, 999, 6, 12, 187, 128, 91, 164, 85, 110, 3, 0.825319
384, 6, wb, catch, NA, 999, 999, 6, 12, 187, 128, 91, 164, 85, 110, 1, 0.43902
384, 6, wb, attraction, a-b-da, 14, 2, 6, 13, 90, 165, 165, 90, 153, 83, 3, 1.79547
384, 6, wb, attraction, a-b-da, 14, 2, 6, 13, 90, 165, 165, 90, 153, 83, 2, 0.52223
384, 6, wb, filler, NA, 999, 999, 6, 14, 134, 174, 103, 64, 137, 162, 2, 1.05131
384, 6, wb, filler, NA, 999, 999, 6, 14, 134, 174, 103, 64, 137, 162, 3, 0.408291
384, 6, wb, attraction, a-b-da, 14, 3, 6, 15, 120, 195, 195, 120, 181, 111, 1, 1.66148
384, 6, wb, attraction, a-b-da, 14, 3, 6, 15, 120, 195, 195, 120, 181, 111, 3, 0.561668
384, 6, wb, attraction, a-b-da, 9, 1, 6, 16, 129, 57, 135, 60, 60, 135, 1, 2.19268
384, 6, wb, attraction, a-b-da, 9, 1, 6, 16, 129, 57, 135, 60, 60, 135, 2, 0.687398
384, 6, wb, attraction, a-b-db, 5, 3, 6, 17, 117, 190, 120, 195, 195, 120, 1, 1.56973
384, 6, wb, attraction, a-b-db, 5, 3, 6, 17, 117, 190, 120, 195, 195, 120, 3, 0.497908
384, 6, wb, attraction, a-b-da, 2, 3, 6, 18, 195, 120, 120, 195, 193, 119, 3, 1.50769
384, 6, wb, attraction, a-b-da, 2, 3, 6, 18, 195, 120, 120, 195, 193, 119, 2, 0.653903
384, 6, wb, attraction, a-b-da, 5, 3, 6, 19, 190, 117, 195, 120, 120, 195, 1, 2.25745
384, 6, wb, attraction, a-b-da, 5, 3, 6, 19, 190, 117, 195, 120, 120, 195, 3, 0.957498
384, 6, wb, attraction, a-b-db, 9, 1, 6, 20, 135, 60, 57, 129, 60, 135, 2, 1.99651
384, 6, wb, attraction, a-b-db, 9, 1, 6, 20, 135, 60, 57, 129, 60, 135, 1, 0.635118
384, 6, wb, filler, NA, 999, 999, 6, 21, 190, 95, 58, 195, 163, 194, 2, 1.31953
384, 6, wb, filler, NA, 999, 999, 6, 21, 190, 95, 58, 195, 163, 194, 3, 0.481774
384, 6, wb, attraction, a-b-da, 9, 3, 6, 22, 120, 195, 186, 114, 195, 120, 2, 3.96425
384, 6, wb, attraction, a-b-da, 9, 3, 6, 22, 120, 195, 186, 114, 195, 120, 3, 0.531654
384, 6, wb, filler, NA, 999, 999, 6, 23, 141, 116, 120, 155, 125, 144, 1, 3.42802
384, 6, wb, filler, NA, 999, 999, 6, 23, 141, 116, 120, 155, 125, 144, 2, 0.345055
384, 6, wb, filler, NA, 999, 999, 6, 24, 104, 125, 88, 119, 175, 77, 2, 0.808768
384, 6, wb, filler, NA, 999, 999, 6, 24, 104, 125, 88, 119, 175, 77, 3, 1.15918
384, 6, wb, attraction, a-b-db, 5, 2, 6, 25, 165, 90, 90, 165, 88, 161, 1, 1.68613
384, 6, wb, attraction, a-b-db, 5, 2, 6, 25, 165, 90, 90, 165, 88, 161, 3, 2.54564
384, 6, wb, filler, NA, 999, 999, 6, 26, 106, 181, 160, 134, 188, 193, 1, 0.92072
384, 6, wb, filler, NA, 999, 999, 6, 26, 106, 181, 160, 134, 188, 193, 3, 0.426484
384, 6, wb, attraction, a-b-db, 2, 2, 6, 27, 165, 90, 89, 163, 90, 165, 2, 1.96688
384, 6, wb, attraction, a-b-db, 2, 2, 6, 27, 165, 90, 89, 163, 90, 165, 1, 1.39884
384, 6, wb, attraction, a-b-da, 2, 1, 6, 28, 135, 60, 60, 135, 134, 59, 2, 0.884441
384, 6, wb, attraction, a-b-da, 2, 1, 6, 28, 135, 60, 60, 135, 134, 59, 3, 0.536085
384, 6, wb, attraction, a-b-da, 5, 1, 6, 29, 60, 135, 132, 58, 135, 60, 1, 1.0886
384, 6, wb, attraction, a-b-da, 5, 1, 6, 29, 60, 135, 132, 58, 135, 60, 3, 1.32351
384, 6, wb, attraction, a-b-db, 9, 2, 6, 30, 165, 90, 90, 165, 86, 157, 3, 2.26772
384, 6, wb, attraction, a-b-db, 9, 2, 6, 30, 165, 90, 90, 165, 86, 157, 1, 0.447639
384, 6, wb, attraction, a-b-db, 2, 1, 6, 31, 135, 60, 59, 134, 60, 135, 3, 1.53935
384, 6, wb, attraction, a-b-db, 2, 1, 6, 31, 135, 60, 59, 134, 60, 135, 1, 0.524188
384, 6, wb, filler, NA, 999, 999, 6, 32, 148, 193, 88, 193, 62, 177, 3, 2.55667
384, 6, wb, filler, NA, 999, 999, 6, 32, 148, 193, 88, 193, 62, 177, 1, 0.644501
384, 6, wb, attraction, a-b-da, 9, 2, 6, 33, 157, 86, 165, 90, 90, 165, 1, 1.68828
384, 6, wb, attraction, a-b-da, 9, 2, 6, 33, 157, 86, 165, 90, 90, 165, 3, 0.619125
384, 6, wb, attraction, a-b-db, 14, 3, 6, 34, 195, 120, 120, 195, 111, 181, 3, 1.58427
384, 6, wb, attraction, a-b-db, 14, 3, 6, 34, 195, 120, 120, 195, 111, 181, 1, 0.615747
384, 6, wb, catch, NA, 999, 999, 6, 35, 135, 60, 136, 179, 143, 112, 1, 1.18064
384, 6, wb, catch, NA, 999, 999, 6, 35, 135, 60, 136, 179, 143, 112, 2, 0.604321
384, 6, wb, attraction, a-b-da, 14, 1, 6, 36, 135, 60, 125, 56, 60, 135, 3, 3.80205
384, 6, wb, attraction, a-b-da, 14, 1, 6, 36, 135, 60, 125, 56, 60, 135, 2, 0.58411
384, 6, wb, filler, NA, 999, 999, 6, 37, 161, 92, 104, 132, 66, 70, 3, 0.742682
384, 6, wb, filler, NA, 999, 999, 6, 37, 161, 92, 104, 132, 66, 70, 1, 0.647702
384, 6, wb, attraction, a-b-da, 9, 2, 7, 1, 90, 165, 157, 86, 165, 90, 1, 1.26738
384, 6, wb, attraction, a-b-da, 9, 2, 7, 1, 90, 165, 157, 86, 165, 90, 3, 0.655751
384, 6, wb, catch, NA, 999, 999, 7, 2, 96, 99, 152, 163, 141, 114, 1, 0.859439
384, 6, wb, catch, NA, 999, 999, 7, 2, 96, 99, 152, 163, 141, 114, 2, 0.511699
384, 6, wb, attraction, a-b-da, 2, 2, 7, 3, 90, 165, 163, 89, 165, 90, 2, 0.976844
384, 6, wb, attraction, a-b-da, 2, 2, 7, 3, 90, 165, 163, 89, 165, 90, 3, 0.376595
384, 6, wb, filler, NA, 999, 999, 7, 4, 132, 168, 151, 149, 154, 57, 3, 1.05508
384, 6, wb, filler, NA, 999, 999, 7, 4, 132, 168, 151, 149, 154, 57, 2, 0.86735
384, 6, wb, filler, NA, 999, 999, 7, 5, 62, 158, 63, 178, 181, 107, 2, 0.990411
384, 6, wb, filler, NA, 999, 999, 7, 5, 62, 158, 63, 178, 181, 107, 3, 0.389384
384, 6, wb, filler, NA, 999, 999, 7, 6, 168, 67, 57, 194, 79, 123, 1, 2.19513
384, 6, wb, filler, NA, 999, 999, 7, 6, 168, 67, 57, 194, 79, 123, 3, 1.52977
384, 6, wb, filler, NA, 999, 999, 7, 7, 160, 155, 80, 117, 172, 73, 2, 1.92181
384, 6, wb, filler, NA, 999, 999, 7, 7, 160, 155, 80, 117, 172, 73, 1, 0.387267
384, 6, wb, attraction, a-b-da, 14, 2, 7, 8, 153, 83, 90, 165, 165, 90, 2, 1.36178
384, 6, wb, attraction, a-b-da, 14, 2, 7, 8, 153, 83, 90, 165, 165, 90, 3, 0.633915
384, 6, wb, filler, NA, 999, 999, 7, 9, 158, 67, 161, 137, 86, 192, 1, 3.18242
384, 6, wb, filler, NA, 999, 999, 7, 9, 158, 67, 161, 137, 86, 192, 2, 0.381416
384, 6, wb, attraction, a-b-da, 2, 3, 7, 10, 193, 119, 195, 120, 120, 195, 2, 5.98791
384, 6, wb, attraction, a-b-da, 2, 3, 7, 10, 193, 119, 195, 120, 120, 195, 3, 0.513263
384, 6, wb, filler, NA, 999, 999, 7, 11, 111, 142, 72, 184, 176, 100, 2, 2.13039
384, 6, wb, filler, NA, 999, 999, 7, 11, 111, 142, 72, 184, 176, 100, 3, 1.64371
384, 6, wb, attraction, a-b-da, 5, 3, 7, 12, 195, 120, 120, 195, 190, 117, 2, 2.31117
384, 6, wb, attraction, a-b-da, 5, 3, 7, 12, 195, 120, 120, 195, 190, 117, 3, 0.705076
384, 6, wb, attraction, a-b-da, 5, 1, 7, 13, 135, 60, 132, 58, 60, 135, 1, 1.39478
384, 6, wb, attraction, a-b-da, 5, 1, 7, 13, 135, 60, 132, 58, 60, 135, 2, 0.713663
384, 6, wb, attraction, a-b-db, 2, 1, 7, 14, 59, 134, 135, 60, 60, 135, 3, 0.930695
384, 6, wb, attraction, a-b-db, 2, 1, 7, 14, 59, 134, 135, 60, 60, 135, 2, 0.548421
384, 6, wb, attraction, a-b-da, 9, 1, 7, 15, 129, 57, 135, 60, 60, 135, 3, 1.12418
384, 6, wb, attraction, a-b-da, 9, 1, 7, 15, 129, 57, 135, 60, 60, 135, 2, 0.557841
384, 6, wb, filler, NA, 999, 999, 7, 16, 145, 103, 179, 190, 126, 124, 3, 1.58084
384, 6, wb, filler, NA, 999, 999, 7, 16, 145, 103, 179, 190, 126, 124, 2, 0.476283
384, 6, wb, attraction, a-b-db, 2, 2, 7, 17, 165, 90, 90, 165, 89, 163, 1, 2.31881
384, 6, wb, attraction, a-b-db, 2, 2, 7, 17, 165, 90, 90, 165, 89, 163, 2, 0.344736
384, 6, wb, attraction, a-b-db, 2, 3, 7, 18, 195, 120, 119, 193, 120, 195, 1, 1.03256
384, 6, wb, attraction, a-b-db, 2, 3, 7, 18, 195, 120, 119, 193, 120, 195, 2, 0.494231
384, 6, wb, filler, NA, 999, 999, 7, 19, 117, 77, 63, 149, 163, 130, 2, 1.13601
384, 6, wb, filler, NA, 999, 999, 7, 19, 117, 77, 63, 149, 163, 130, 3, 0.40963
384, 6, wb, attraction, a-b-db, 5, 1, 7, 20, 58, 132, 60, 135, 135, 60, 1, 1.12669
384, 6, wb, attraction, a-b-db, 5, 1, 7, 20, 58, 132, 60, 135, 135, 60, 3, 0.720437
384, 6, wb, attraction, a-b-db, 14, 1, 7, 21, 60, 135, 135, 60, 56, 125, 3, 1.28137
384, 6, wb, attraction, a-b-db, 14, 1, 7, 21, 60, 135, 135, 60, 56, 125, 1, 0.437076
384, 6, wb, attraction, a-b-da, 2, 1, 7, 22, 134, 59, 60, 135, 135, 60, 2, 0.857609
384, 6, wb, attraction, a-b-da, 2, 1, 7, 22, 134, 59, 60, 135, 135, 60, 3, 0.469961
384, 6, wb, filler, NA, 999, 999, 7, 23, 90, 177, 63, 65, 120, 67, 2, 1.20101
384, 6, wb, filler, NA, 999, 999, 7, 23, 90, 177, 63, 65, 120, 67, 1, 0.447836
384, 6, wb, attraction, a-b-da, 14, 3, 7, 24, 195, 120, 120, 195, 181, 111, 2, 1.3878
384, 6, wb, attraction, a-b-da, 14, 3, 7, 24, 195, 120, 120, 195, 181, 111, 1, 0.746572
384, 6, wb, attraction, a-b-db, 5, 3, 7, 25, 195, 120, 117, 190, 120, 195, 2, 1.66633
384, 6, wb, attraction, a-b-db, 5, 3, 7, 25, 195, 120, 117, 190, 120, 195, 3, 1.77443
384, 6, wb, attraction, a-b-da, 14, 1, 7, 26, 60, 135, 135, 60, 125, 56, 1, 1.22849
384, 6, wb, attraction, a-b-da, 14, 1, 7, 26, 60, 135, 135, 60, 125, 56, 2, 1.09802
384, 6, wb, attraction, a-b-da, 5, 2, 7, 27, 165, 90, 161, 88, 90, 165, 1, 2.63569
384, 6, wb, attraction, a-b-da, 5, 2, 7, 27, 165, 90, 161, 88, 90, 165, 3, 0.392917
384, 6, wb, attraction, a-b-db, 9, 3, 7, 28, 195, 120, 120, 195, 114, 186, 2, 2.1906
384, 6, wb, attraction, a-b-db, 9, 3, 7, 28, 195, 120, 120, 195, 114, 186, 3, 0.493257
384, 6, wb, catch, NA, 999, 999, 7, 29, 138, 117, 136, 179, 103, 92, 3, 1.10304
384, 6, wb, catch, NA, 999, 999, 7, 29, 138, 117, 136, 179, 103, 92, 2, 0.458096
384, 6, wb, attraction, a-b-db, 9, 2, 7, 30, 165, 90, 86, 157, 90, 165, 2, 1.54912
384, 6, wb, attraction, a-b-db, 9, 2, 7, 30, 165, 90, 86, 157, 90, 165, 1, 0.52588
384, 6, wb, attraction, a-b-db, 14, 2, 7, 31, 165, 90, 83, 153, 90, 165, 2, 0.87032
384, 6, wb, attraction, a-b-db, 14, 2, 7, 31, 165, 90, 83, 153, 90, 165, 3, 0.434772
384, 6, wb, attraction, a-b-db, 14, 3, 7, 32, 195, 120, 120, 195, 111, 181, 3, 1.67928
384, 6, wb, attraction, a-b-db, 14, 3, 7, 32, 195, 120, 120, 195, 111, 181, 2, 0.490649
384, 6, wb, filler, NA, 999, 999, 7, 33, 119, 72, 167, 121, 185, 182, 1, 0.948394
384, 6, wb, filler, NA, 999, 999, 7, 33, 119, 72, 167, 121, 185, 182, 3, 0.437478
384, 6, wb, attraction, a-b-db, 9, 1, 7, 34, 135, 60, 57, 129, 60, 135, 2, 1.16193
384, 6, wb, attraction, a-b-db, 9, 1, 7, 34, 135, 60, 57, 129, 60, 135, 1, 0.442369
384, 6, wb, attraction, a-b-db, 5, 2, 7, 35, 90, 165, 165, 90, 88, 161, 1, 0.957959
384, 6, wb, attraction, a-b-db, 5, 2, 7, 35, 90, 165, 165, 90, 88, 161, 2, 0.542463
384, 6, wb, attraction, a-b-da, 9, 3, 7, 36, 195, 120, 186, 114, 120, 195, 3, 6.04618
384, 6, wb, attraction, a-b-da, 9, 3, 7, 36, 195, 120, 186, 114, 120, 195, 1, 0.441561
384, 6, wb, catch, NA, 999, 999, 7, 37, 145, 170, 65, 130, 109, 146, 2, 0.845355
384, 6, wb, catch, NA, 999, 999, 7, 37, 145, 170, 65, 130, 109, 146, 1, 0.378497
384, 6, wb, attraction, a-b-db, 9, 3, 8, 1, 114, 186, 195, 120, 120, 195, 1, 1.05688
384, 6, wb, attraction, a-b-db, 9, 3, 8, 1, 114, 186, 195, 120, 120, 195, 2, 0.269284
384, 6, wb, attraction, a-b-db, 5, 2, 8, 2, 165, 90, 90, 165, 88, 161, 3, 4.24042
384, 6, wb, attraction, a-b-db, 5, 2, 8, 2, 165, 90, 90, 165, 88, 161, 1, 0.604486
384, 6, wb, attraction, a-b-da, 14, 2, 8, 3, 90, 165, 153, 83, 165, 90, 1, 2.02622
384, 6, wb, attraction, a-b-da, 14, 2, 8, 3, 90, 165, 153, 83, 165, 90, 3, 0.359541
384, 6, wb, attraction, a-b-db, 2, 2, 8, 4, 165, 90, 89, 163, 90, 165, 3, 3.07071
384, 6, wb, attraction, a-b-db, 2, 2, 8, 4, 165, 90, 89, 163, 90, 165, 1, 0.529706
384, 6, wb, attraction, a-b-db, 14, 3, 8, 5, 111, 181, 195, 120, 120, 195, 1, 1.72203
384, 6, wb, attraction, a-b-db, 14, 3, 8, 5, 111, 181, 195, 120, 120, 195, 3, 2.4355
384, 6, wb, attraction, a-b-da, 9, 1, 8, 6, 60, 135, 135, 60, 129, 57, 1, 1.40731
384, 6, wb, attraction, a-b-da, 9, 1, 8, 6, 60, 135, 135, 60, 129, 57, 3, 0.405619
384, 6, wb, filler, NA, 999, 999, 8, 7, 182, 70, 87, 155, 177, 80, 2, 0.65129
384, 6, wb, filler, NA, 999, 999, 8, 7, 182, 70, 87, 155, 177, 80, 3, 0.624566
384, 6, wb, attraction, a-b-da, 9, 3, 8, 8, 195, 120, 120, 195, 186, 114, 2, 1.1409
384, 6, wb, attraction, a-b-da, 9, 3, 8, 8, 195, 120, 120, 195, 186, 114, 1, 0.725869
384, 6, wb, filler, NA, 999, 999, 8, 9, 192, 164, 81, 103, 125, 96, 2, 0.854218
384, 6, wb, filler, NA, 999, 999, 8, 9, 192, 164, 81, 103, 125, 96, 1, 0.386598
384, 6, wb, attraction, a-b-da, 5, 1, 8, 10, 132, 58, 135, 60, 60, 135, 3, 2.48903
384, 6, wb, attraction, a-b-da, 5, 1, 8, 10, 132, 58, 135, 60, 60, 135, 2, 0.515625
384, 6, wb, filler, NA, 999, 999, 8, 11, 92, 63, 185, 132, 142, 130, 1, 0.980657
384, 6, wb, filler, NA, 999, 999, 8, 11, 92, 63, 185, 132, 142, 130, 2, 0.388466
384, 6, wb, catch, NA, 999, 999, 8, 12, 119, 136, 181, 134, 117, 78, 3, 1.01895
384, 6, wb, catch, NA, 999, 999, 8, 12, 119, 136, 181, 134, 117, 78, 2, 0.433137
384, 6, wb, catch, NA, 999, 999, 8, 13, 93, 162, 135, 180, 118, 77, 3, 1.00568
384, 6, wb, catch, NA, 999, 999, 8, 13, 93, 162, 135, 180, 118, 77, 2, 0.483972
384, 6, wb, catch, NA, 999, 999, 8, 14, 189, 126, 113, 82, 103, 152, 2, 1.10254
384, 6, wb, catch, NA, 999, 999, 8, 14, 189, 126, 113, 82, 103, 152, 1, 0.43343
384, 6, wb, attraction, a-b-db, 14, 1, 8, 15, 60, 135, 56, 125, 135, 60, 2, 2.8059
384, 6, wb, attraction, a-b-db, 14, 1, 8, 15, 60, 135, 56, 125, 135, 60, 1, 1.15565
384, 6, wb, attraction, a-b-db, 9, 2, 8, 16, 86, 157, 165, 90, 90, 165, 1, 1.58719
384, 6, wb, attraction, a-b-db, 9, 2, 8, 16, 86, 157, 165, 90, 90, 165, 2, 1.69809
384, 6, wb, attraction, a-b-da, 5, 2, 8, 17, 161, 88, 90, 165, 165, 90, 1, 1.62743
384, 6, wb, attraction, a-b-da, 5, 2, 8, 17, 161, 88, 90, 165, 165, 90, 2, 0.576909
384, 6, wb, attraction, a-b-db, 2, 1, 8, 18, 60, 135, 135, 60, 59, 134, 3, 1.5594
384, 6, wb, attraction, a-b-db, 2, 1, 8, 18, 60, 135, 135, 60, 59, 134, 2, 0.511596
384, 6, wb, attraction, a-b-db, 9, 1, 8, 19, 60, 135, 57, 129, 135, 60, 2, 2.25661
384, 6, wb, attraction, a-b-db, 9, 1, 8, 19, 60, 135, 57, 129, 135, 60, 3, 0.404555
384, 6, wb, attraction, a-b-da, 2, 1, 8, 20, 134, 59, 60, 135, 135, 60, 2, 2.67447
384, 6, wb, attraction, a-b-da, 2, 1, 8, 20, 134, 59, 60, 135, 135, 60, 1, 0.981488
384, 6, wb, attraction, a-b-da, 2, 3, 8, 21, 195, 120, 120, 195, 193, 119, 3, 2.78777
384, 6, wb, attraction, a-b-da, 2, 3, 8, 21, 195, 120, 120, 195, 193, 119, 1, 0.674209
384, 6, wb, filler, NA, 999, 999, 8, 22, 162, 117, 67, 85, 131, 143, 2, 1.22054
384, 6, wb, filler, NA, 999, 999, 8, 22, 162, 117, 67, 85, 131, 143, 1, 5.50616
384, 6, wb, filler, NA, 999, 999, 8, 23, 112, 143, 109, 76, 105, 109, 2, 0.90642
384, 6, wb, filler, NA, 999, 999, 8, 23, 112, 143, 109, 76, 105, 109, 1, 0.612786
384, 6, wb, attraction, a-b-da, 9, 2, 8, 24, 157, 86, 90, 165, 165, 90, 2, 1.538
384, 6, wb, attraction, a-b-da, 9, 2, 8, 24, 157, 86, 90, 165, 165, 90, 3, 1.07473
384, 6, wb, filler, NA, 999, 999, 8, 25, 56, 143, 122, 117, 178, 102, 1, 0.877021
384, 6, wb, filler, NA, 999, 999, 8, 25, 56, 143, 122, 117, 178, 102, 3, 1.20069
384, 6, wb, attraction, a-b-db, 5, 3, 8, 26, 195, 120, 120, 195, 117, 190, 3, 2.64639
384, 6, wb, attraction, a-b-db, 5, 3, 8, 26, 195, 120, 120, 195, 117, 190, 2, 1.23478
384, 6, wb, attraction, a-b-db, 14, 2, 8, 27, 165, 90, 83, 153, 90, 165, 2, 1.103
384, 6, wb, attraction, a-b-db, 14, 2, 8, 27, 165, 90, 83, 153, 90, 165, 1, 0.657826
384, 6, wb, attraction, a-b-da, 5, 3, 8, 28, 120, 195, 195, 120, 190, 117, 1, 1.02906
384, 6, wb, attraction, a-b-da, 5, 3, 8, 28, 120, 195, 195, 120, 190, 117, 2, 0.410836
384, 6, wb, filler, NA, 999, 999, 8, 29, 157, 123, 92, 136, 194, 137, 2, 0.743796
384, 6, wb, filler, NA, 999, 999, 8, 29, 157, 123, 92, 136, 194, 137, 3, 0.368859
384, 6, wb, attraction, a-b-da, 14, 1, 8, 30, 125, 56, 60, 135, 135, 60, 2, 0.799936
384, 6, wb, attraction, a-b-da, 14, 1, 8, 30, 125, 56, 60, 135, 135, 60, 3, 1.14311
384, 6, wb, attraction, a-b-da, 14, 3, 8, 31, 181, 111, 195, 120, 120, 195, 1, 2.42264
384, 6, wb, attraction, a-b-da, 14, 3, 8, 31, 181, 111, 195, 120, 120, 195, 3, 1.06785
384, 6, wb, filler, NA, 999, 999, 8, 32, 129, 125, 182, 76, 80, 96, 3, 0.678764
384, 6, wb, filler, NA, 999, 999, 8, 32, 129, 125, 182, 76, 80, 96, 1, 1.05873
384, 6, wb, attraction, a-b-da, 2, 2, 8, 33, 163, 89, 90, 165, 165, 90, 3, 0.997449
384, 6, wb, attraction, a-b-da, 2, 2, 8, 33, 163, 89, 90, 165, 165, 90, 2, 0.380519
384, 6, wb, attraction, a-b-db, 2, 3, 8, 34, 120, 195, 195, 120, 119, 193, 2, 1.00292
384, 6, wb, attraction, a-b-db, 2, 3, 8, 34, 120, 195, 195, 120, 119, 193, 1, 0.649972
384, 6, wb, attraction, a-b-db, 5, 1, 8, 35, 60, 135, 58, 132, 135, 60, 2, 2.49376
384, 6, wb, attraction, a-b-db, 5, 1, 8, 35, 60, 135, 58, 132, 135, 60, 3, 0.368448
384, 6, wb, filler, NA, 999, 999, 8, 36, 90, 96, 115, 195, 186, 75, 1, 1.23142
384, 6, wb, filler, NA, 999, 999, 8, 36, 90, 96, 115, 195, 186, 75, 2, 1.42106
384, 6, wb, filler, NA, 999, 999, 8, 37, 162, 71, 87, 65, 100, 130, 2, 1.46595
384, 6, wb, filler, NA, 999, 999, 8, 37, 162, 71, 87, 65, 100, 130, 3, 1.90207
