sub_n, computer_n, bw_cond, effect, set, distance, diag, block_n, trial_n, h1, w1, h2, w2, h3, w3, choice, rt 
395, 6, bw, practice, NA, 999, 999, 0, 1, 151, 133, 118, 130, 101, 62, 1, 2.34674
395, 6, bw, practice, NA, 999, 999, 0, 1, 151, 133, 118, 130, 101, 62, 3, 1.97715
395, 6, bw, practice, NA, 999, 999, 0, 2, 137, 187, 70, 131, 190, 117, 1, 1.98304
395, 6, bw, practice, NA, 999, 999, 0, 2, 137, 187, 70, 131, 190, 117, 2, 1.34086
395, 6, bw, practice, NA, 999, 999, 0, 3, 152, 184, 159, 104, 107, 168, 1, 2.10581
395, 6, bw, practice, NA, 999, 999, 0, 3, 152, 184, 159, 104, 107, 168, 2, 0.81231
395, 6, bw, attraction, a-b-da, 2, 3, 1, 1, 195, 120, 193, 119, 120, 195, 2, 1.91477
395, 6, bw, attraction, a-b-da, 2, 3, 1, 1, 195, 120, 193, 119, 120, 195, 1, 1.27681
395, 6, bw, attraction, a-b-da, 9, 1, 1, 2, 129, 57, 135, 60, 60, 135, 3, 2.75116
395, 6, bw, attraction, a-b-da, 9, 1, 1, 2, 129, 57, 135, 60, 60, 135, 1, 0.831571
395, 6, bw, attraction, a-b-da, 2, 1, 1, 3, 60, 135, 134, 59, 135, 60, 1, 4.16385
395, 6, bw, attraction, a-b-da, 2, 1, 1, 3, 60, 135, 134, 59, 135, 60, 2, 0.867321
395, 6, bw, filler, NA, 999, 999, 1, 4, 145, 122, 90, 182, 92, 113, 1, 2.51021
395, 6, bw, filler, NA, 999, 999, 1, 4, 145, 122, 90, 182, 92, 113, 3, 0.576119
395, 6, bw, filler, NA, 999, 999, 1, 5, 160, 141, 165, 135, 112, 67, 2, 1.06251
395, 6, bw, filler, NA, 999, 999, 1, 5, 160, 141, 165, 135, 112, 67, 3, 0.587047
395, 6, bw, attraction, a-b-da, 9, 2, 1, 6, 90, 165, 157, 86, 165, 90, 1, 2.36924
395, 6, bw, attraction, a-b-da, 9, 2, 1, 6, 90, 165, 157, 86, 165, 90, 3, 0.457317
395, 6, bw, attraction, a-b-db, 2, 2, 1, 7, 89, 163, 90, 165, 165, 90, 2, 1.29224
395, 6, bw, attraction, a-b-db, 2, 2, 1, 7, 89, 163, 90, 165, 165, 90, 1, 0.439179
395, 6, bw, attraction, a-b-db, 9, 3, 1, 8, 114, 186, 120, 195, 195, 120, 2, 1.71581
395, 6, bw, attraction, a-b-db, 9, 3, 1, 8, 114, 186, 120, 195, 195, 120, 3, 0.437757
395, 6, bw, attraction, a-b-da, 5, 2, 1, 9, 165, 90, 161, 88, 90, 165, 2, 1.13021
395, 6, bw, attraction, a-b-da, 5, 2, 1, 9, 165, 90, 161, 88, 90, 165, 1, 0.732008
395, 6, bw, filler, NA, 999, 999, 1, 10, 68, 147, 67, 56, 131, 195, 3, 0.932339
395, 6, bw, filler, NA, 999, 999, 1, 10, 68, 147, 67, 56, 131, 195, 2, 0.469862
395, 6, bw, attraction, a-b-db, 5, 3, 1, 11, 120, 195, 195, 120, 117, 190, 1, 1.61704
395, 6, bw, attraction, a-b-db, 5, 3, 1, 11, 120, 195, 195, 120, 117, 190, 2, 0.639205
395, 6, bw, attraction, a-b-da, 14, 3, 1, 12, 195, 120, 120, 195, 181, 111, 2, 1.40361
395, 6, bw, attraction, a-b-da, 14, 3, 1, 12, 195, 120, 120, 195, 181, 111, 3, 0.682509
395, 6, bw, attraction, a-b-da, 2, 2, 1, 13, 163, 89, 165, 90, 90, 165, 3, 1.8289
395, 6, bw, attraction, a-b-da, 2, 2, 1, 13, 163, 89, 165, 90, 90, 165, 1, 0.586252
395, 6, bw, attraction, a-b-da, 9, 3, 1, 14, 195, 120, 120, 195, 186, 114, 2, 1.22468
395, 6, bw, attraction, a-b-da, 9, 3, 1, 14, 195, 120, 120, 195, 186, 114, 1, 0.702252
395, 6, bw, catch, NA, 999, 999, 1, 15, 184, 131, 138, 117, 74, 121, 1, 1.03203
395, 6, bw, catch, NA, 999, 999, 1, 15, 184, 131, 138, 117, 74, 121, 3, 0.965696
395, 6, bw, attraction, a-b-db, 9, 1, 1, 16, 57, 129, 135, 60, 60, 135, 3, 1.57265
395, 6, bw, attraction, a-b-db, 9, 1, 1, 16, 57, 129, 135, 60, 60, 135, 1, 0.380091
395, 6, bw, attraction, a-b-da, 14, 1, 1, 17, 135, 60, 125, 56, 60, 135, 3, 1.87454
395, 6, bw, attraction, a-b-da, 14, 1, 1, 17, 135, 60, 125, 56, 60, 135, 1, 0.57392
395, 6, bw, attraction, a-b-db, 2, 3, 1, 18, 120, 195, 195, 120, 119, 193, 1, 1.74046
395, 6, bw, attraction, a-b-db, 2, 3, 1, 18, 120, 195, 195, 120, 119, 193, 2, 0.741171
395, 6, bw, filler, NA, 999, 999, 1, 19, 143, 71, 74, 188, 69, 69, 2, 1.2128
395, 6, bw, filler, NA, 999, 999, 1, 19, 143, 71, 74, 188, 69, 69, 3, 0.571084
395, 6, bw, filler, NA, 999, 999, 1, 20, 195, 119, 171, 59, 106, 180, 1, 0.882154
395, 6, bw, filler, NA, 999, 999, 1, 20, 195, 119, 171, 59, 106, 180, 2, 0.581939
395, 6, bw, attraction, a-b-db, 5, 1, 1, 21, 60, 135, 135, 60, 58, 132, 3, 1.75639
395, 6, bw, attraction, a-b-db, 5, 1, 1, 21, 60, 135, 135, 60, 58, 132, 2, 0.356467
395, 6, bw, attraction, a-b-db, 14, 2, 1, 22, 90, 165, 165, 90, 83, 153, 2, 0.971576
395, 6, bw, attraction, a-b-db, 14, 2, 1, 22, 90, 165, 165, 90, 83, 153, 1, 0.875296
395, 6, bw, attraction, a-b-da, 5, 3, 1, 23, 195, 120, 120, 195, 190, 117, 2, 1.24565
395, 6, bw, attraction, a-b-da, 5, 3, 1, 23, 195, 120, 120, 195, 190, 117, 1, 0.77052
395, 6, bw, attraction, a-b-db, 9, 2, 1, 24, 165, 90, 86, 157, 90, 165, 3, 0.881713
395, 6, bw, attraction, a-b-db, 9, 2, 1, 24, 165, 90, 86, 157, 90, 165, 2, 0.357273
395, 6, bw, attraction, a-b-db, 14, 3, 1, 25, 195, 120, 120, 195, 111, 181, 2, 0.796425
395, 6, bw, attraction, a-b-db, 14, 3, 1, 25, 195, 120, 120, 195, 111, 181, 1, 1.61949
395, 6, bw, attraction, a-b-db, 5, 2, 1, 26, 88, 161, 90, 165, 165, 90, 2, 1.07236
395, 6, bw, attraction, a-b-db, 5, 2, 1, 26, 88, 161, 90, 165, 165, 90, 1, 0.531878
395, 6, bw, attraction, a-b-da, 5, 1, 1, 27, 135, 60, 60, 135, 132, 58, 2, 1.0283
395, 6, bw, attraction, a-b-da, 5, 1, 1, 27, 135, 60, 60, 135, 132, 58, 1, 0.482019
395, 6, bw, filler, NA, 999, 999, 1, 28, 118, 119, 181, 81, 71, 93, 1, 3.86061
395, 6, bw, filler, NA, 999, 999, 1, 28, 118, 119, 181, 81, 71, 93, 3, 0.703821
395, 6, bw, filler, NA, 999, 999, 1, 29, 140, 65, 126, 141, 78, 90, 2, 1.07358
395, 6, bw, filler, NA, 999, 999, 1, 29, 140, 65, 126, 141, 78, 90, 3, 0.869244
395, 6, bw, filler, NA, 999, 999, 1, 30, 56, 189, 102, 192, 142, 120, 2, 0.736248
395, 6, bw, filler, NA, 999, 999, 1, 30, 56, 189, 102, 192, 142, 120, 1, 0.473958
395, 6, bw, attraction, a-b-db, 2, 1, 1, 31, 59, 134, 135, 60, 60, 135, 3, 2.20446
395, 6, bw, attraction, a-b-db, 2, 1, 1, 31, 59, 134, 135, 60, 60, 135, 1, 0.450363
395, 6, bw, catch, NA, 999, 999, 1, 32, 112, 143, 137, 178, 78, 117, 2, 1.09419
395, 6, bw, catch, NA, 999, 999, 1, 32, 112, 143, 137, 178, 78, 117, 3, 0.417178
395, 6, bw, attraction, a-b-db, 14, 1, 1, 33, 60, 135, 135, 60, 56, 125, 1, 0.934314
395, 6, bw, attraction, a-b-db, 14, 1, 1, 33, 60, 135, 135, 60, 56, 125, 2, 0.375976
395, 6, bw, filler, NA, 999, 999, 1, 34, 86, 120, 170, 149, 169, 143, 2, 0.926432
395, 6, bw, filler, NA, 999, 999, 1, 34, 86, 120, 170, 149, 169, 143, 1, 0.480182
395, 6, bw, catch, NA, 999, 999, 1, 35, 155, 160, 93, 102, 122, 133, 1, 0.746651
395, 6, bw, catch, NA, 999, 999, 1, 35, 155, 160, 93, 102, 122, 133, 2, 0.347689
395, 6, bw, filler, NA, 999, 999, 1, 36, 94, 185, 164, 107, 194, 101, 2, 0.747504
395, 6, bw, filler, NA, 999, 999, 1, 36, 94, 185, 164, 107, 194, 101, 3, 0.740582
395, 6, bw, attraction, a-b-da, 14, 2, 1, 37, 90, 165, 165, 90, 153, 83, 2, 0.660302
395, 6, bw, attraction, a-b-da, 14, 2, 1, 37, 90, 165, 165, 90, 153, 83, 3, 0.456806
395, 6, bw, attraction, a-b-da, 2, 1, 2, 1, 134, 59, 60, 135, 135, 60, 2, 0.763815
395, 6, bw, attraction, a-b-da, 2, 1, 2, 1, 134, 59, 60, 135, 135, 60, 3, 0.98821
395, 6, bw, filler, NA, 999, 999, 2, 2, 192, 111, 151, 157, 74, 172, 2, 1.10648
395, 6, bw, filler, NA, 999, 999, 2, 2, 192, 111, 151, 157, 74, 172, 3, 0.860798
395, 6, bw, attraction, a-b-db, 14, 3, 2, 3, 195, 120, 120, 195, 111, 181, 2, 1.13587
395, 6, bw, attraction, a-b-db, 14, 3, 2, 3, 195, 120, 120, 195, 111, 181, 3, 1.0255
395, 6, bw, attraction, a-b-da, 9, 2, 2, 4, 165, 90, 157, 86, 90, 165, 3, 3.11787
395, 6, bw, attraction, a-b-da, 9, 2, 2, 4, 165, 90, 157, 86, 90, 165, 2, 1.27946
395, 6, bw, filler, NA, 999, 999, 2, 5, 176, 135, 113, 61, 80, 175, 1, 5.45768
395, 6, bw, filler, NA, 999, 999, 2, 5, 176, 135, 113, 61, 80, 175, 2, 1.0366
395, 6, bw, attraction, a-b-db, 5, 1, 2, 6, 58, 132, 60, 135, 135, 60, 2, 2.06486
395, 6, bw, attraction, a-b-db, 5, 1, 2, 6, 58, 132, 60, 135, 135, 60, 1, 0.54884
395, 6, bw, attraction, a-b-da, 9, 3, 2, 7, 195, 120, 186, 114, 120, 195, 2, 1.2606
395, 6, bw, attraction, a-b-da, 9, 3, 2, 7, 195, 120, 186, 114, 120, 195, 1, 2.68897
395, 6, bw, filler, NA, 999, 999, 2, 8, 192, 66, 127, 97, 138, 146, 3, 1.21061
395, 6, bw, filler, NA, 999, 999, 2, 8, 192, 66, 127, 97, 138, 146, 1, 0.864913
395, 6, bw, filler, NA, 999, 999, 2, 9, 195, 187, 60, 186, 96, 80, 1, 0.795902
395, 6, bw, filler, NA, 999, 999, 2, 9, 195, 187, 60, 186, 96, 80, 3, 1.06697
395, 6, bw, attraction, a-b-db, 9, 2, 2, 10, 90, 165, 86, 157, 165, 90, 2, 1.04592
395, 6, bw, attraction, a-b-db, 9, 2, 2, 10, 90, 165, 86, 157, 165, 90, 3, 0.67494
395, 6, bw, catch, NA, 999, 999, 2, 11, 170, 145, 90, 105, 139, 116, 1, 0.885259
395, 6, bw, catch, NA, 999, 999, 2, 11, 170, 145, 90, 105, 139, 116, 2, 0.513023
395, 6, bw, attraction, a-b-da, 5, 3, 2, 12, 190, 117, 120, 195, 195, 120, 2, 0.770118
395, 6, bw, attraction, a-b-da, 5, 3, 2, 12, 190, 117, 120, 195, 195, 120, 1, 0.458682
395, 6, bw, attraction, a-b-da, 5, 2, 2, 13, 165, 90, 161, 88, 90, 165, 3, 1.2776
395, 6, bw, attraction, a-b-da, 5, 2, 2, 13, 165, 90, 161, 88, 90, 165, 1, 0.377214
395, 6, bw, filler, NA, 999, 999, 2, 14, 57, 166, 163, 113, 89, 58, 2, 0.67169
395, 6, bw, filler, NA, 999, 999, 2, 14, 57, 166, 163, 113, 89, 58, 3, 0.579495
395, 6, bw, attraction, a-b-db, 14, 2, 2, 15, 83, 153, 90, 165, 165, 90, 2, 0.729919
395, 6, bw, attraction, a-b-db, 14, 2, 2, 15, 83, 153, 90, 165, 165, 90, 1, 0.459642
395, 6, bw, attraction, a-b-db, 14, 1, 2, 16, 135, 60, 60, 135, 56, 125, 2, 1.11876
395, 6, bw, attraction, a-b-db, 14, 1, 2, 16, 135, 60, 60, 135, 56, 125, 3, 0.601039
395, 6, bw, attraction, a-b-da, 14, 2, 2, 17, 165, 90, 153, 83, 90, 165, 3, 2.36689
395, 6, bw, attraction, a-b-da, 14, 2, 2, 17, 165, 90, 153, 83, 90, 165, 1, 1.21468
395, 6, bw, attraction, a-b-db, 2, 3, 2, 18, 195, 120, 120, 195, 119, 193, 2, 2.16359
395, 6, bw, attraction, a-b-db, 2, 3, 2, 18, 195, 120, 120, 195, 119, 193, 1, 0.499574
395, 6, bw, filler, NA, 999, 999, 2, 19, 91, 131, 97, 116, 138, 151, 1, 4.73334
395, 6, bw, filler, NA, 999, 999, 2, 19, 91, 131, 97, 116, 138, 151, 2, 0.965815
395, 6, bw, attraction, a-b-da, 2, 2, 2, 20, 163, 89, 90, 165, 165, 90, 2, 1.02082
395, 6, bw, attraction, a-b-da, 2, 2, 2, 20, 163, 89, 90, 165, 165, 90, 1, 1.30644
395, 6, bw, filler, NA, 999, 999, 2, 21, 172, 194, 189, 141, 67, 159, 1, 1.3314
395, 6, bw, filler, NA, 999, 999, 2, 21, 172, 194, 189, 141, 67, 159, 3, 0.381023
395, 6, bw, catch, NA, 999, 999, 2, 22, 146, 169, 122, 73, 126, 129, 1, 1.18744
395, 6, bw, catch, NA, 999, 999, 2, 22, 146, 169, 122, 73, 126, 129, 2, 0.434326
395, 6, bw, attraction, a-b-da, 9, 1, 2, 23, 135, 60, 129, 57, 60, 135, 3, 0.878808
395, 6, bw, attraction, a-b-da, 9, 1, 2, 23, 135, 60, 129, 57, 60, 135, 2, 0.426461
395, 6, bw, attraction, a-b-da, 14, 3, 2, 24, 195, 120, 120, 195, 181, 111, 2, 0.646928
395, 6, bw, attraction, a-b-da, 14, 3, 2, 24, 195, 120, 120, 195, 181, 111, 3, 0.483987
395, 6, bw, attraction, a-b-db, 5, 3, 2, 25, 195, 120, 120, 195, 117, 190, 2, 0.878437
395, 6, bw, attraction, a-b-db, 5, 3, 2, 25, 195, 120, 120, 195, 117, 190, 3, 0.906168
395, 6, bw, attraction, a-b-db, 2, 1, 2, 26, 135, 60, 60, 135, 59, 134, 2, 0.787187
395, 6, bw, attraction, a-b-db, 2, 1, 2, 26, 135, 60, 60, 135, 59, 134, 1, 0.426403
395, 6, bw, attraction, a-b-db, 9, 1, 2, 27, 135, 60, 60, 135, 57, 129, 2, 0.87072
395, 6, bw, attraction, a-b-db, 9, 1, 2, 27, 135, 60, 60, 135, 57, 129, 1, 0.387181
395, 6, bw, filler, NA, 999, 999, 2, 28, 156, 135, 194, 101, 96, 189, 1, 0.801588
395, 6, bw, filler, NA, 999, 999, 2, 28, 156, 135, 194, 101, 96, 189, 2, 0.392619
395, 6, bw, catch, NA, 999, 999, 2, 29, 119, 76, 160, 95, 133, 182, 3, 0.870577
395, 6, bw, catch, NA, 999, 999, 2, 29, 119, 76, 160, 95, 133, 182, 1, 0.394938
395, 6, bw, attraction, a-b-da, 2, 3, 2, 30, 193, 119, 120, 195, 195, 120, 2, 0.672579
395, 6, bw, attraction, a-b-da, 2, 3, 2, 30, 193, 119, 120, 195, 195, 120, 1, 0.732438
395, 6, bw, filler, NA, 999, 999, 2, 31, 134, 59, 61, 59, 124, 143, 3, 0.929714
395, 6, bw, filler, NA, 999, 999, 2, 31, 134, 59, 61, 59, 124, 143, 2, 0.638459
395, 6, bw, attraction, a-b-db, 9, 3, 2, 32, 114, 186, 195, 120, 120, 195, 3, 1.37895
395, 6, bw, attraction, a-b-db, 9, 3, 2, 32, 114, 186, 195, 120, 120, 195, 2, 1.05044
395, 6, bw, attraction, a-b-db, 2, 2, 2, 33, 90, 165, 165, 90, 89, 163, 2, 1.25406
395, 6, bw, attraction, a-b-db, 2, 2, 2, 33, 90, 165, 165, 90, 89, 163, 1, 0.44305
395, 6, bw, attraction, a-b-da, 14, 1, 2, 34, 135, 60, 60, 135, 125, 56, 2, 0.982736
395, 6, bw, attraction, a-b-da, 14, 1, 2, 34, 135, 60, 60, 135, 125, 56, 3, 0.678445
395, 6, bw, attraction, a-b-da, 5, 1, 2, 35, 135, 60, 132, 58, 60, 135, 3, 1.19303
395, 6, bw, attraction, a-b-da, 5, 1, 2, 35, 135, 60, 132, 58, 60, 135, 1, 0.487834
395, 6, bw, attraction, a-b-db, 5, 2, 2, 36, 165, 90, 90, 165, 88, 161, 3, 0.970294
395, 6, bw, attraction, a-b-db, 5, 2, 2, 36, 165, 90, 90, 165, 88, 161, 1, 0.385895
395, 6, bw, filler, NA, 999, 999, 2, 37, 150, 181, 114, 176, 166, 139, 1, 1.45647
395, 6, bw, filler, NA, 999, 999, 2, 37, 150, 181, 114, 176, 166, 139, 2, 0.644672
395, 6, bw, attraction, a-b-da, 9, 2, 3, 1, 157, 86, 90, 165, 165, 90, 2, 0.864303
395, 6, bw, attraction, a-b-da, 9, 2, 3, 1, 157, 86, 90, 165, 165, 90, 3, 0.804694
395, 6, bw, filler, NA, 999, 999, 3, 2, 115, 69, 79, 157, 178, 112, 3, 0.826366
395, 6, bw, filler, NA, 999, 999, 3, 2, 115, 69, 79, 157, 178, 112, 1, 0.344131
395, 6, bw, attraction, a-b-db, 9, 2, 3, 3, 90, 165, 86, 157, 165, 90, 3, 1.16798
395, 6, bw, attraction, a-b-db, 9, 2, 3, 3, 90, 165, 86, 157, 165, 90, 2, 1.70433
395, 6, bw, attraction, a-b-db, 2, 1, 3, 4, 135, 60, 59, 134, 60, 135, 2, 0.937569
395, 6, bw, attraction, a-b-db, 2, 1, 3, 4, 135, 60, 59, 134, 60, 135, 1, 0.410703
395, 6, bw, attraction, a-b-da, 14, 1, 3, 5, 60, 135, 125, 56, 135, 60, 1, 1.21575
395, 6, bw, attraction, a-b-da, 14, 1, 3, 5, 60, 135, 125, 56, 135, 60, 2, 0.750102
395, 6, bw, attraction, a-b-db, 5, 1, 3, 6, 58, 132, 135, 60, 60, 135, 3, 1.4137
395, 6, bw, attraction, a-b-db, 5, 1, 3, 6, 58, 132, 135, 60, 60, 135, 1, 0.347864
395, 6, bw, attraction, a-b-db, 14, 3, 3, 7, 120, 195, 111, 181, 195, 120, 3, 1.33966
395, 6, bw, attraction, a-b-db, 14, 3, 3, 7, 120, 195, 111, 181, 195, 120, 2, 0.548589
395, 6, bw, attraction, a-b-da, 2, 2, 3, 8, 90, 165, 163, 89, 165, 90, 1, 1.93232
395, 6, bw, attraction, a-b-da, 2, 2, 3, 8, 90, 165, 163, 89, 165, 90, 2, 0.349885
395, 6, bw, filler, NA, 999, 999, 3, 9, 182, 60, 187, 57, 143, 103, 3, 0.645666
395, 6, bw, filler, NA, 999, 999, 3, 9, 182, 60, 187, 57, 143, 103, 2, 1.17071
395, 6, bw, attraction, a-b-db, 9, 1, 3, 10, 57, 129, 60, 135, 135, 60, 2, 0.713618
395, 6, bw, attraction, a-b-db, 9, 1, 3, 10, 57, 129, 60, 135, 135, 60, 1, 0.548177
395, 6, bw, attraction, a-b-da, 9, 3, 3, 11, 120, 195, 195, 120, 186, 114, 1, 1.09979
395, 6, bw, attraction, a-b-da, 9, 3, 3, 11, 120, 195, 195, 120, 186, 114, 2, 0.654797
395, 6, bw, attraction, a-b-db, 5, 3, 3, 12, 120, 195, 195, 120, 117, 190, 3, 1.67446
395, 6, bw, attraction, a-b-db, 5, 3, 3, 12, 120, 195, 195, 120, 117, 190, 2, 0.87795
395, 6, bw, attraction, a-b-db, 2, 2, 3, 13, 89, 163, 165, 90, 90, 165, 3, 1.20825
395, 6, bw, attraction, a-b-db, 2, 2, 3, 13, 89, 163, 165, 90, 90, 165, 1, 0.406554
395, 6, bw, attraction, a-b-db, 14, 1, 3, 14, 56, 125, 60, 135, 135, 60, 2, 1.09171
395, 6, bw, attraction, a-b-db, 14, 1, 3, 14, 56, 125, 60, 135, 135, 60, 1, 0.390671
395, 6, bw, attraction, a-b-db, 2, 3, 3, 15, 195, 120, 119, 193, 120, 195, 2, 0.732483
395, 6, bw, attraction, a-b-db, 2, 3, 3, 15, 195, 120, 119, 193, 120, 195, 1, 0.638382
395, 6, bw, filler, NA, 999, 999, 3, 16, 127, 192, 125, 183, 130, 188, 3, 1.42662
395, 6, bw, filler, NA, 999, 999, 3, 16, 127, 192, 125, 183, 130, 188, 1, 0.45616
395, 6, bw, attraction, a-b-da, 2, 3, 3, 17, 120, 195, 195, 120, 193, 119, 2, 0.739317
395, 6, bw, attraction, a-b-da, 2, 3, 3, 17, 120, 195, 195, 120, 193, 119, 1, 0.484465
395, 6, bw, attraction, a-b-da, 5, 1, 3, 18, 60, 135, 135, 60, 132, 58, 1, 2.22274
395, 6, bw, attraction, a-b-da, 5, 1, 3, 18, 60, 135, 135, 60, 132, 58, 2, 0.356216
395, 6, bw, attraction, a-b-da, 5, 2, 3, 19, 90, 165, 161, 88, 165, 90, 2, 0.755306
395, 6, bw, attraction, a-b-da, 5, 2, 3, 19, 90, 165, 161, 88, 165, 90, 1, 0.747715
395, 6, bw, catch, NA, 999, 999, 3, 20, 104, 151, 184, 131, 70, 125, 2, 1.08345
395, 6, bw, catch, NA, 999, 999, 3, 20, 104, 151, 184, 131, 70, 125, 3, 0.670992
395, 6, bw, attraction, a-b-da, 5, 3, 3, 21, 120, 195, 190, 117, 195, 120, 3, 1.14607
395, 6, bw, attraction, a-b-da, 5, 3, 3, 21, 120, 195, 190, 117, 195, 120, 1, 0.443055
395, 6, bw, filler, NA, 999, 999, 3, 22, 120, 133, 110, 96, 119, 56, 2, 1.19086
395, 6, bw, filler, NA, 999, 999, 3, 22, 120, 133, 110, 96, 119, 56, 3, 2.06177
395, 6, bw, filler, NA, 999, 999, 3, 23, 60, 130, 143, 156, 185, 193, 3, 0.936387
395, 6, bw, filler, NA, 999, 999, 3, 23, 60, 130, 143, 156, 185, 193, 1, 0.594172
395, 6, bw, attraction, a-b-da, 9, 1, 3, 24, 60, 135, 129, 57, 135, 60, 1, 0.895872
395, 6, bw, attraction, a-b-da, 9, 1, 3, 24, 60, 135, 129, 57, 135, 60, 2, 0.362819
395, 6, bw, filler, NA, 999, 999, 3, 25, 122, 178, 125, 97, 136, 91, 1, 0.538015
395, 6, bw, filler, NA, 999, 999, 3, 25, 122, 178, 125, 97, 136, 91, 2, 0.451043
395, 6, bw, filler, NA, 999, 999, 3, 26, 156, 147, 72, 148, 64, 77, 1, 0.622876
395, 6, bw, filler, NA, 999, 999, 3, 26, 156, 147, 72, 148, 64, 77, 3, 0.620687
395, 6, bw, filler, NA, 999, 999, 3, 27, 104, 132, 150, 83, 131, 190, 3, 0.633779
395, 6, bw, filler, NA, 999, 999, 3, 27, 104, 132, 150, 83, 131, 190, 1, 0.639555
395, 6, bw, filler, NA, 999, 999, 3, 28, 113, 151, 122, 149, 173, 115, 2, 0.95551
395, 6, bw, filler, NA, 999, 999, 3, 28, 113, 151, 122, 149, 173, 115, 3, 0.467659
395, 6, bw, catch, NA, 999, 999, 3, 29, 108, 87, 149, 166, 121, 134, 2, 0.734783
395, 6, bw, catch, NA, 999, 999, 3, 29, 108, 87, 149, 166, 121, 134, 1, 0.504528
395, 6, bw, attraction, a-b-db, 9, 3, 3, 30, 114, 186, 120, 195, 195, 120, 2, 0.634327
395, 6, bw, attraction, a-b-db, 9, 3, 3, 30, 114, 186, 120, 195, 195, 120, 1, 0.456106
395, 6, bw, attraction, a-b-db, 5, 2, 3, 31, 165, 90, 90, 165, 88, 161, 3, 0.683263
395, 6, bw, attraction, a-b-db, 5, 2, 3, 31, 165, 90, 90, 165, 88, 161, 1, 0.695015
395, 6, bw, filler, NA, 999, 999, 3, 32, 73, 84, 152, 145, 187, 99, 2, 0.544634
395, 6, bw, filler, NA, 999, 999, 3, 32, 73, 84, 152, 145, 187, 99, 1, 0.681882
395, 6, bw, catch, NA, 999, 999, 3, 33, 138, 117, 139, 176, 75, 120, 2, 0.700225
395, 6, bw, catch, NA, 999, 999, 3, 33, 138, 117, 139, 176, 75, 120, 3, 0.975309
395, 6, bw, attraction, a-b-da, 14, 2, 3, 34, 165, 90, 90, 165, 153, 83, 2, 1.42961
395, 6, bw, attraction, a-b-da, 14, 2, 3, 34, 165, 90, 90, 165, 153, 83, 3, 0.539164
395, 6, bw, attraction, a-b-da, 2, 1, 3, 35, 135, 60, 60, 135, 134, 59, 1, 1.21161
395, 6, bw, attraction, a-b-da, 2, 1, 3, 35, 135, 60, 60, 135, 134, 59, 2, 1.09791
395, 6, bw, attraction, a-b-da, 14, 3, 3, 36, 181, 111, 195, 120, 120, 195, 3, 2.14749
395, 6, bw, attraction, a-b-da, 14, 3, 3, 36, 181, 111, 195, 120, 120, 195, 2, 1.02816
395, 6, bw, attraction, a-b-db, 14, 2, 3, 37, 83, 153, 90, 165, 165, 90, 2, 1.41639
395, 6, bw, attraction, a-b-db, 14, 2, 3, 37, 83, 153, 90, 165, 165, 90, 1, 0.558559
395, 6, bw, attraction, a-b-da, 2, 2, 4, 1, 165, 90, 90, 165, 163, 89, 2, 0.989689
395, 6, bw, attraction, a-b-da, 2, 2, 4, 1, 165, 90, 90, 165, 163, 89, 1, 0.74869
395, 6, bw, catch, NA, 999, 999, 4, 2, 106, 149, 136, 179, 83, 112, 2, 0.572355
395, 6, bw, catch, NA, 999, 999, 4, 2, 106, 149, 136, 179, 83, 112, 3, 0.61233
395, 6, bw, attraction, a-b-db, 2, 2, 4, 3, 165, 90, 89, 163, 90, 165, 2, 1.09719
395, 6, bw, attraction, a-b-db, 2, 2, 4, 3, 165, 90, 89, 163, 90, 165, 1, 0.580162
395, 6, bw, attraction, a-b-da, 2, 1, 4, 4, 60, 135, 135, 60, 134, 59, 2, 1.09859
395, 6, bw, attraction, a-b-da, 2, 1, 4, 4, 60, 135, 135, 60, 134, 59, 1, 0.429567
395, 6, bw, attraction, a-b-db, 5, 3, 4, 5, 195, 120, 117, 190, 120, 195, 3, 2.43407
395, 6, bw, attraction, a-b-db, 5, 3, 4, 5, 195, 120, 117, 190, 120, 195, 1, 0.631276
395, 6, bw, catch, NA, 999, 999, 4, 6, 154, 101, 105, 90, 191, 124, 3, 1.20375
395, 6, bw, catch, NA, 999, 999, 4, 6, 154, 101, 105, 90, 191, 124, 2, 0.954704
395, 6, bw, attraction, a-b-da, 14, 2, 4, 7, 153, 83, 165, 90, 90, 165, 2, 1.41031
395, 6, bw, attraction, a-b-da, 14, 2, 4, 7, 153, 83, 165, 90, 90, 165, 1, 0.456619
395, 6, bw, filler, NA, 999, 999, 4, 8, 105, 134, 103, 106, 104, 104, 1, 1.00371
395, 6, bw, filler, NA, 999, 999, 4, 8, 105, 134, 103, 106, 104, 104, 2, 0.465886
395, 6, bw, filler, NA, 999, 999, 4, 9, 92, 119, 184, 76, 170, 100, 3, 0.97306
395, 6, bw, filler, NA, 999, 999, 4, 9, 92, 119, 184, 76, 170, 100, 1, 0.876767
395, 6, bw, filler, NA, 999, 999, 4, 10, 168, 113, 165, 158, 134, 72, 2, 0.599055
395, 6, bw, filler, NA, 999, 999, 4, 10, 168, 113, 165, 158, 134, 72, 3, 0.414282
395, 6, bw, filler, NA, 999, 999, 4, 11, 161, 76, 142, 148, 194, 85, 2, 0.675281
395, 6, bw, filler, NA, 999, 999, 4, 11, 161, 76, 142, 148, 194, 85, 1, 0.551073
395, 6, bw, attraction, a-b-db, 5, 2, 4, 12, 90, 165, 88, 161, 165, 90, 3, 0.902904
395, 6, bw, attraction, a-b-db, 5, 2, 4, 12, 90, 165, 88, 161, 165, 90, 2, 0.418064
395, 6, bw, attraction, a-b-da, 5, 1, 4, 13, 60, 135, 132, 58, 135, 60, 1, 2.42302
395, 6, bw, attraction, a-b-da, 5, 1, 4, 13, 60, 135, 132, 58, 135, 60, 2, 0.604259
395, 6, bw, filler, NA, 999, 999, 4, 14, 188, 106, 134, 87, 97, 79, 1, 0.962005
395, 6, bw, filler, NA, 999, 999, 4, 14, 188, 106, 134, 87, 97, 79, 3, 0.514341
395, 6, bw, attraction, a-b-db, 9, 2, 4, 15, 86, 157, 90, 165, 165, 90, 2, 0.955462
395, 6, bw, attraction, a-b-db, 9, 2, 4, 15, 86, 157, 90, 165, 165, 90, 1, 0.955826
395, 6, bw, filler, NA, 999, 999, 4, 16, 165, 69, 77, 79, 177, 191, 3, 0.707489
395, 6, bw, filler, NA, 999, 999, 4, 16, 165, 69, 77, 79, 177, 191, 2, 0.957841
395, 6, bw, filler, NA, 999, 999, 4, 17, 72, 125, 110, 163, 76, 80, 2, 0.636774
395, 6, bw, filler, NA, 999, 999, 4, 17, 72, 125, 110, 163, 76, 80, 3, 0.434615
395, 6, bw, attraction, a-b-da, 14, 1, 4, 18, 125, 56, 60, 135, 135, 60, 2, 1.19904
395, 6, bw, attraction, a-b-da, 14, 1, 4, 18, 125, 56, 60, 135, 135, 60, 1, 0.422068
395, 6, bw, attraction, a-b-da, 9, 3, 4, 19, 195, 120, 120, 195, 186, 114, 1, 1.09115
395, 6, bw, attraction, a-b-da, 9, 3, 4, 19, 195, 120, 120, 195, 186, 114, 2, 0.342132
395, 6, bw, attraction, a-b-da, 5, 3, 4, 20, 190, 117, 120, 195, 195, 120, 2, 1.06197
395, 6, bw, attraction, a-b-da, 5, 3, 4, 20, 190, 117, 120, 195, 195, 120, 1, 0.378297
395, 6, bw, attraction, a-b-da, 9, 2, 4, 21, 165, 90, 90, 165, 157, 86, 2, 0.712838
395, 6, bw, attraction, a-b-da, 9, 2, 4, 21, 165, 90, 90, 165, 157, 86, 1, 0.387172
395, 6, bw, attraction, a-b-db, 9, 1, 4, 22, 60, 135, 135, 60, 57, 129, 1, 0.88977
395, 6, bw, attraction, a-b-db, 9, 1, 4, 22, 60, 135, 135, 60, 57, 129, 2, 0.332648
395, 6, bw, attraction, a-b-da, 14, 3, 4, 23, 181, 111, 120, 195, 195, 120, 2, 0.957143
395, 6, bw, attraction, a-b-da, 14, 3, 4, 23, 181, 111, 120, 195, 195, 120, 3, 0.365657
395, 6, bw, attraction, a-b-db, 2, 3, 4, 24, 120, 195, 195, 120, 119, 193, 3, 0.940699
395, 6, bw, attraction, a-b-db, 2, 3, 4, 24, 120, 195, 195, 120, 119, 193, 2, 0.397686
395, 6, bw, attraction, a-b-db, 9, 3, 4, 25, 120, 195, 114, 186, 195, 120, 2, 0.787553
395, 6, bw, attraction, a-b-db, 9, 3, 4, 25, 120, 195, 114, 186, 195, 120, 1, 0.394636
395, 6, bw, attraction, a-b-db, 14, 1, 4, 26, 56, 125, 60, 135, 135, 60, 2, 1.81637
395, 6, bw, attraction, a-b-db, 14, 1, 4, 26, 56, 125, 60, 135, 135, 60, 1, 0.590549
395, 6, bw, attraction, a-b-db, 14, 3, 4, 27, 195, 120, 120, 195, 111, 181, 2, 1.41221
395, 6, bw, attraction, a-b-db, 14, 3, 4, 27, 195, 120, 120, 195, 111, 181, 1, 0.370425
395, 6, bw, filler, NA, 999, 999, 4, 28, 93, 58, 56, 79, 153, 155, 3, 0.601595
395, 6, bw, filler, NA, 999, 999, 4, 28, 93, 58, 56, 79, 153, 155, 2, 0.680753
395, 6, bw, filler, NA, 999, 999, 4, 29, 109, 119, 149, 168, 178, 182, 3, 1.15513
395, 6, bw, filler, NA, 999, 999, 4, 29, 109, 119, 149, 168, 178, 182, 1, 0.435414
395, 6, bw, attraction, a-b-da, 9, 1, 4, 30, 60, 135, 135, 60, 129, 57, 2, 1.28785
395, 6, bw, attraction, a-b-da, 9, 1, 4, 30, 60, 135, 135, 60, 129, 57, 3, 0.53881
395, 6, bw, filler, NA, 999, 999, 4, 31, 165, 171, 87, 72, 87, 185, 1, 0.707161
395, 6, bw, filler, NA, 999, 999, 4, 31, 165, 171, 87, 72, 87, 185, 2, 0.533632
395, 6, bw, attraction, a-b-db, 14, 2, 4, 32, 90, 165, 165, 90, 83, 153, 2, 0.798059
395, 6, bw, attraction, a-b-db, 14, 2, 4, 32, 90, 165, 165, 90, 83, 153, 3, 0.421189
395, 6, bw, attraction, a-b-da, 2, 3, 4, 33, 193, 119, 195, 120, 120, 195, 2, 0.578235
395, 6, bw, attraction, a-b-da, 2, 3, 4, 33, 193, 119, 195, 120, 120, 195, 3, 0.410094
395, 6, bw, catch, NA, 999, 999, 4, 34, 149, 106, 190, 125, 76, 119, 2, 0.735327
395, 6, bw, catch, NA, 999, 999, 4, 34, 149, 106, 190, 125, 76, 119, 3, 0.400872
395, 6, bw, attraction, a-b-da, 5, 2, 4, 35, 161, 88, 165, 90, 90, 165, 2, 0.9268
395, 6, bw, attraction, a-b-da, 5, 2, 4, 35, 161, 88, 165, 90, 90, 165, 1, 0.432436
395, 6, bw, attraction, a-b-db, 5, 1, 4, 36, 135, 60, 60, 135, 58, 132, 2, 1.53292
395, 6, bw, attraction, a-b-db, 5, 1, 4, 36, 135, 60, 60, 135, 58, 132, 3, 0.574429
395, 6, bw, attraction, a-b-db, 2, 1, 4, 37, 60, 135, 135, 60, 59, 134, 1, 0.668822
395, 6, bw, attraction, a-b-db, 2, 1, 4, 37, 60, 135, 135, 60, 59, 134, 2, 0.369356
395, 6, bw, filler, NA, 999, 999, 5, 1, 163, 116, 58, 79, 86, 159, 1, 4.30317
395, 6, bw, filler, NA, 999, 999, 5, 1, 163, 116, 58, 79, 86, 159, 2, 0.737056
395, 6, bw, catch, NA, 999, 999, 5, 2, 82, 113, 94, 161, 156, 159, 3, 1.44141
395, 6, bw, catch, NA, 999, 999, 5, 2, 82, 113, 94, 161, 156, 159, 1, 0.35024
395, 6, bw, attraction, a-b-da, 14, 1, 5, 3, 125, 56, 135, 60, 60, 135, 2, 0.870141
395, 6, bw, attraction, a-b-da, 14, 1, 5, 3, 125, 56, 135, 60, 60, 135, 3, 0.410471
395, 6, bw, attraction, a-b-da, 14, 2, 5, 4, 153, 83, 90, 165, 165, 90, 2, 0.479647
395, 6, bw, attraction, a-b-da, 14, 2, 5, 4, 153, 83, 90, 165, 165, 90, 1, 0.63098
395, 6, bw, attraction, a-b-da, 14, 3, 5, 5, 181, 111, 120, 195, 195, 120, 2, 0.423836
395, 6, bw, attraction, a-b-da, 14, 3, 5, 5, 181, 111, 120, 195, 195, 120, 1, 1.39767
395, 6, bw, attraction, a-b-da, 5, 1, 5, 6, 60, 135, 132, 58, 135, 60, 3, 1.37125
395, 6, bw, attraction, a-b-da, 5, 1, 5, 6, 60, 135, 132, 58, 135, 60, 2, 0.29893
395, 6, bw, attraction, a-b-db, 14, 2, 5, 7, 83, 153, 90, 165, 165, 90, 2, 0.572576
395, 6, bw, attraction, a-b-db, 14, 2, 5, 7, 83, 153, 90, 165, 165, 90, 1, 0.420332
395, 6, bw, attraction, a-b-db, 9, 2, 5, 8, 90, 165, 86, 157, 165, 90, 2, 1.08147
395, 6, bw, attraction, a-b-db, 9, 2, 5, 8, 90, 165, 86, 157, 165, 90, 1, 0.333105
395, 6, bw, filler, NA, 999, 999, 5, 9, 79, 80, 144, 81, 82, 60, 2, 0.845705
395, 6, bw, filler, NA, 999, 999, 5, 9, 79, 80, 144, 81, 82, 60, 1, 0.426774
395, 6, bw, attraction, a-b-db, 5, 1, 5, 10, 58, 132, 135, 60, 60, 135, 3, 0.96722
395, 6, bw, attraction, a-b-db, 5, 1, 5, 10, 58, 132, 135, 60, 60, 135, 2, 0.607565
395, 6, bw, filler, NA, 999, 999, 5, 11, 74, 136, 91, 75, 174, 83, 3, 0.796591
395, 6, bw, filler, NA, 999, 999, 5, 11, 74, 136, 91, 75, 174, 83, 2, 0.763729
395, 6, bw, attraction, a-b-da, 2, 3, 5, 12, 120, 195, 195, 120, 193, 119, 2, 0.714653
395, 6, bw, attraction, a-b-da, 2, 3, 5, 12, 120, 195, 195, 120, 193, 119, 3, 0.429061
395, 6, bw, attraction, a-b-db, 2, 3, 5, 13, 195, 120, 119, 193, 120, 195, 2, 0.585665
395, 6, bw, attraction, a-b-db, 2, 3, 5, 13, 195, 120, 119, 193, 120, 195, 3, 0.43339
395, 6, bw, filler, NA, 999, 999, 5, 14, 146, 71, 72, 144, 184, 164, 3, 0.773858
395, 6, bw, filler, NA, 999, 999, 5, 14, 146, 71, 72, 144, 184, 164, 1, 0.573597
395, 6, bw, attraction, a-b-db, 14, 1, 5, 15, 60, 135, 56, 125, 135, 60, 2, 0.651986
395, 6, bw, attraction, a-b-db, 14, 1, 5, 15, 60, 135, 56, 125, 135, 60, 3, 0.377242
395, 6, bw, attraction, a-b-da, 2, 2, 5, 16, 163, 89, 90, 165, 165, 90, 2, 0.703637
395, 6, bw, attraction, a-b-da, 2, 2, 5, 16, 163, 89, 90, 165, 165, 90, 3, 0.642054
395, 6, bw, attraction, a-b-db, 5, 3, 5, 17, 195, 120, 120, 195, 117, 190, 2, 0.453764
395, 6, bw, attraction, a-b-db, 5, 3, 5, 17, 195, 120, 120, 195, 117, 190, 3, 0.458367
395, 6, bw, filler, NA, 999, 999, 5, 18, 186, 70, 73, 111, 87, 137, 3, 1.08537
395, 6, bw, filler, NA, 999, 999, 5, 18, 186, 70, 73, 111, 87, 137, 2, 0.392958
395, 6, bw, attraction, a-b-db, 14, 3, 5, 19, 120, 195, 195, 120, 111, 181, 2, 0.814816
395, 6, bw, attraction, a-b-db, 14, 3, 5, 19, 120, 195, 195, 120, 111, 181, 3, 1.27726
395, 6, bw, attraction, a-b-db, 9, 3, 5, 20, 195, 120, 120, 195, 114, 186, 2, 0.911458
395, 6, bw, attraction, a-b-db, 9, 3, 5, 20, 195, 120, 120, 195, 114, 186, 3, 0.329801
395, 6, bw, attraction, a-b-db, 2, 1, 5, 21, 135, 60, 59, 134, 60, 135, 3, 1.33826
395, 6, bw, attraction, a-b-db, 2, 1, 5, 21, 135, 60, 59, 134, 60, 135, 1, 0.747194
395, 6, bw, filler, NA, 999, 999, 5, 22, 115, 195, 67, 180, 63, 85, 1, 0.874806
395, 6, bw, filler, NA, 999, 999, 5, 22, 115, 195, 67, 180, 63, 85, 3, 0.558615
395, 6, bw, attraction, a-b-da, 5, 3, 5, 23, 120, 195, 195, 120, 190, 117, 2, 1.0377
395, 6, bw, attraction, a-b-da, 5, 3, 5, 23, 120, 195, 195, 120, 190, 117, 3, 1.19476
395, 6, bw, attraction, a-b-db, 2, 2, 5, 24, 90, 165, 165, 90, 89, 163, 3, 3.16825
395, 6, bw, attraction, a-b-db, 2, 2, 5, 24, 90, 165, 165, 90, 89, 163, 2, 0.503895
395, 6, bw, catch, NA, 999, 999, 5, 25, 133, 62, 117, 138, 173, 142, 3, 0.993733
395, 6, bw, catch, NA, 999, 999, 5, 25, 133, 62, 117, 138, 173, 142, 1, 0.400619
395, 6, bw, filler, NA, 999, 999, 5, 26, 112, 144, 122, 106, 123, 59, 1, 0.942436
395, 6, bw, filler, NA, 999, 999, 5, 26, 112, 144, 122, 106, 123, 59, 3, 0.41548
395, 6, bw, filler, NA, 999, 999, 5, 27, 167, 101, 75, 122, 174, 193, 3, 0.836627
395, 6, bw, filler, NA, 999, 999, 5, 27, 167, 101, 75, 122, 174, 193, 2, 0.442292
395, 6, bw, attraction, a-b-da, 9, 1, 5, 28, 60, 135, 129, 57, 135, 60, 2, 0.942074
395, 6, bw, attraction, a-b-da, 9, 1, 5, 28, 60, 135, 129, 57, 135, 60, 1, 0.399156
395, 6, bw, attraction, a-b-db, 5, 2, 5, 29, 90, 165, 88, 161, 165, 90, 2, 1.01301
395, 6, bw, attraction, a-b-db, 5, 2, 5, 29, 90, 165, 88, 161, 165, 90, 3, 0.387323
395, 6, bw, catch, NA, 999, 999, 5, 30, 149, 106, 192, 123, 105, 90, 2, 0.537854
395, 6, bw, catch, NA, 999, 999, 5, 30, 149, 106, 192, 123, 105, 90, 3, 0.474989
395, 6, bw, attraction, a-b-da, 9, 2, 5, 31, 165, 90, 157, 86, 90, 165, 3, 1.25353
395, 6, bw, attraction, a-b-da, 9, 2, 5, 31, 165, 90, 157, 86, 90, 165, 2, 0.346417
395, 6, bw, filler, NA, 999, 999, 5, 32, 86, 153, 100, 95, 191, 63, 1, 1.33014
395, 6, bw, filler, NA, 999, 999, 5, 32, 86, 153, 100, 95, 191, 63, 2, 0.38768
395, 6, bw, attraction, a-b-da, 9, 3, 5, 33, 186, 114, 195, 120, 120, 195, 2, 1.02631
395, 6, bw, attraction, a-b-da, 9, 3, 5, 33, 186, 114, 195, 120, 120, 195, 1, 0.367772
395, 6, bw, filler, NA, 999, 999, 5, 34, 137, 86, 164, 78, 113, 160, 3, 0.710975
395, 6, bw, filler, NA, 999, 999, 5, 34, 137, 86, 164, 78, 113, 160, 2, 0.377323
395, 6, bw, attraction, a-b-db, 9, 1, 5, 35, 60, 135, 57, 129, 135, 60, 2, 0.751861
395, 6, bw, attraction, a-b-db, 9, 1, 5, 35, 60, 135, 57, 129, 135, 60, 3, 0.544964
395, 6, bw, attraction, a-b-da, 5, 2, 5, 36, 165, 90, 90, 165, 161, 88, 2, 0.696748
395, 6, bw, attraction, a-b-da, 5, 2, 5, 36, 165, 90, 90, 165, 161, 88, 3, 0.547858
395, 6, bw, attraction, a-b-da, 2, 1, 5, 37, 60, 135, 135, 60, 134, 59, 2, 0.875628
395, 6, bw, attraction, a-b-da, 2, 1, 5, 37, 60, 135, 135, 60, 134, 59, 1, 0.391342
395, 6, bw, attraction, a-b-da, 9, 1, 6, 1, 60, 135, 135, 60, 129, 57, 2, 0.86904
395, 6, bw, attraction, a-b-da, 9, 1, 6, 1, 60, 135, 135, 60, 129, 57, 1, 0.401424
395, 6, bw, attraction, a-b-da, 5, 3, 6, 2, 120, 195, 190, 117, 195, 120, 1, 1.38328
395, 6, bw, attraction, a-b-da, 5, 3, 6, 2, 120, 195, 190, 117, 195, 120, 2, 0.446818
395, 6, bw, attraction, a-b-db, 9, 2, 6, 3, 86, 157, 165, 90, 90, 165, 2, 0.570634
395, 6, bw, attraction, a-b-db, 9, 2, 6, 3, 86, 157, 165, 90, 90, 165, 1, 0.370443
395, 6, bw, filler, NA, 999, 999, 6, 4, 124, 182, 158, 105, 181, 90, 2, 1.02566
395, 6, bw, filler, NA, 999, 999, 6, 4, 124, 182, 158, 105, 181, 90, 3, 0.448385
395, 6, bw, attraction, a-b-da, 14, 3, 6, 5, 181, 111, 120, 195, 195, 120, 2, 0.587062
395, 6, bw, attraction, a-b-da, 14, 3, 6, 5, 181, 111, 120, 195, 195, 120, 1, 0.378932
395, 6, bw, attraction, a-b-da, 5, 2, 6, 6, 165, 90, 161, 88, 90, 165, 2, 0.585433
395, 6, bw, attraction, a-b-da, 5, 2, 6, 6, 165, 90, 161, 88, 90, 165, 3, 0.353139
395, 6, bw, attraction, a-b-db, 5, 2, 6, 7, 165, 90, 88, 161, 90, 165, 2, 0.424946
395, 6, bw, attraction, a-b-db, 5, 2, 6, 7, 165, 90, 88, 161, 90, 165, 1, 0.662816
395, 6, bw, attraction, a-b-db, 5, 3, 6, 8, 195, 120, 117, 190, 120, 195, 2, 0.737937
395, 6, bw, attraction, a-b-db, 5, 3, 6, 8, 195, 120, 117, 190, 120, 195, 1, 0.522944
395, 6, bw, attraction, a-b-da, 14, 1, 6, 9, 135, 60, 125, 56, 60, 135, 3, 1.05142
395, 6, bw, attraction, a-b-da, 14, 1, 6, 9, 135, 60, 125, 56, 60, 135, 2, 0.640426
395, 6, bw, attraction, a-b-db, 2, 1, 6, 10, 59, 134, 135, 60, 60, 135, 3, 1.33212
395, 6, bw, attraction, a-b-db, 2, 1, 6, 10, 59, 134, 135, 60, 60, 135, 2, 0.421628
395, 6, bw, attraction, a-b-db, 2, 2, 6, 11, 165, 90, 90, 165, 89, 163, 2, 1.22682
395, 6, bw, attraction, a-b-db, 2, 2, 6, 11, 165, 90, 90, 165, 89, 163, 3, 0.440375
395, 6, bw, filler, NA, 999, 999, 6, 12, 141, 171, 104, 107, 148, 182, 3, 0.87628
395, 6, bw, filler, NA, 999, 999, 6, 12, 141, 171, 104, 107, 148, 182, 2, 0.599853
395, 6, bw, filler, NA, 999, 999, 6, 13, 94, 57, 112, 68, 83, 124, 3, 1.04571
395, 6, bw, filler, NA, 999, 999, 6, 13, 94, 57, 112, 68, 83, 124, 1, 0.658606
395, 6, bw, attraction, a-b-da, 9, 2, 6, 14, 157, 86, 90, 165, 165, 90, 2, 0.949792
395, 6, bw, attraction, a-b-da, 9, 2, 6, 14, 157, 86, 90, 165, 165, 90, 1, 0.710657
395, 6, bw, filler, NA, 999, 999, 6, 15, 128, 97, 101, 167, 191, 79, 2, 0.743811
395, 6, bw, filler, NA, 999, 999, 6, 15, 128, 97, 101, 167, 191, 79, 1, 0.64886
395, 6, bw, attraction, a-b-db, 14, 2, 6, 16, 83, 153, 165, 90, 90, 165, 3, 1.00454
395, 6, bw, attraction, a-b-db, 14, 2, 6, 16, 83, 153, 165, 90, 90, 165, 1, 0.746854
395, 6, bw, attraction, a-b-db, 2, 3, 6, 17, 195, 120, 119, 193, 120, 195, 1, 1.44261
395, 6, bw, attraction, a-b-db, 2, 3, 6, 17, 195, 120, 119, 193, 120, 195, 2, 0.495366
395, 6, bw, attraction, a-b-da, 14, 2, 6, 18, 90, 165, 153, 83, 165, 90, 1, 1.5372
395, 6, bw, attraction, a-b-da, 14, 2, 6, 18, 90, 165, 153, 83, 165, 90, 2, 0.418665
395, 6, bw, filler, NA, 999, 999, 6, 19, 68, 143, 60, 125, 79, 166, 3, 1.07989
395, 6, bw, filler, NA, 999, 999, 6, 19, 68, 143, 60, 125, 79, 166, 2, 0.651581
395, 6, bw, catch, NA, 999, 999, 6, 20, 149, 106, 154, 161, 66, 129, 2, 0.495274
395, 6, bw, catch, NA, 999, 999, 6, 20, 149, 106, 154, 161, 66, 129, 3, 0.418421
395, 6, bw, attraction, a-b-da, 5, 1, 6, 21, 132, 58, 60, 135, 135, 60, 2, 0.719492
395, 6, bw, attraction, a-b-da, 5, 1, 6, 21, 132, 58, 60, 135, 135, 60, 1, 0.354146
395, 6, bw, attraction, a-b-db, 14, 3, 6, 22, 111, 181, 120, 195, 195, 120, 2, 0.505899
395, 6, bw, attraction, a-b-db, 14, 3, 6, 22, 111, 181, 120, 195, 195, 120, 3, 0.572493
395, 6, bw, catch, NA, 999, 999, 6, 23, 144, 111, 181, 134, 66, 129, 2, 0.475357
395, 6, bw, catch, NA, 999, 999, 6, 23, 144, 111, 181, 134, 66, 129, 3, 0.743167
395, 6, bw, attraction, a-b-da, 2, 1, 6, 24, 135, 60, 134, 59, 60, 135, 3, 0.710853
395, 6, bw, attraction, a-b-da, 2, 1, 6, 24, 135, 60, 134, 59, 60, 135, 2, 0.361414
395, 6, bw, attraction, a-b-da, 2, 2, 6, 25, 165, 90, 163, 89, 90, 165, 3, 1.17655
395, 6, bw, attraction, a-b-da, 2, 2, 6, 25, 165, 90, 163, 89, 90, 165, 2, 0.352083
395, 6, bw, filler, NA, 999, 999, 6, 26, 181, 111, 124, 121, 103, 134, 2, 0.695955
395, 6, bw, filler, NA, 999, 999, 6, 26, 181, 111, 124, 121, 103, 134, 3, 0.387032
395, 6, bw, filler, NA, 999, 999, 6, 27, 190, 183, 176, 121, 86, 194, 2, 0.585532
395, 6, bw, filler, NA, 999, 999, 6, 27, 190, 183, 176, 121, 86, 194, 3, 0.369289
395, 6, bw, catch, NA, 999, 999, 6, 28, 129, 186, 123, 132, 112, 83, 2, 0.64041
395, 6, bw, catch, NA, 999, 999, 6, 28, 129, 186, 123, 132, 112, 83, 3, 0.485648
395, 6, bw, attraction, a-b-db, 9, 3, 6, 29, 114, 186, 195, 120, 120, 195, 2, 0.807964
395, 6, bw, attraction, a-b-db, 9, 3, 6, 29, 114, 186, 195, 120, 120, 195, 1, 0.414434
395, 6, bw, attraction, a-b-db, 14, 1, 6, 30, 135, 60, 56, 125, 60, 135, 3, 1.62756
395, 6, bw, attraction, a-b-db, 14, 1, 6, 30, 135, 60, 56, 125, 60, 135, 2, 0.353026
395, 6, bw, attraction, a-b-db, 5, 1, 6, 31, 135, 60, 58, 132, 60, 135, 2, 0.728876
395, 6, bw, attraction, a-b-db, 5, 1, 6, 31, 135, 60, 58, 132, 60, 135, 3, 0.386619
395, 6, bw, filler, NA, 999, 999, 6, 32, 87, 177, 122, 141, 189, 159, 3, 0.881069
395, 6, bw, filler, NA, 999, 999, 6, 32, 87, 177, 122, 141, 189, 159, 2, 0.348849
395, 6, bw, filler, NA, 999, 999, 6, 33, 79, 96, 80, 117, 92, 92, 2, 0.508594
395, 6, bw, filler, NA, 999, 999, 6, 33, 79, 96, 80, 117, 92, 92, 3, 0.735066
395, 6, bw, attraction, a-b-db, 9, 1, 6, 34, 57, 129, 135, 60, 60, 135, 3, 0.679518
395, 6, bw, attraction, a-b-db, 9, 1, 6, 34, 57, 129, 135, 60, 60, 135, 2, 0.395174
395, 6, bw, attraction, a-b-da, 9, 3, 6, 35, 195, 120, 186, 114, 120, 195, 3, 0.729048
395, 6, bw, attraction, a-b-da, 9, 3, 6, 35, 195, 120, 186, 114, 120, 195, 2, 0.42479
395, 6, bw, attraction, a-b-da, 2, 3, 6, 36, 193, 119, 195, 120, 120, 195, 3, 0.727252
395, 6, bw, attraction, a-b-da, 2, 3, 6, 36, 193, 119, 195, 120, 120, 195, 2, 0.345009
395, 6, bw, filler, NA, 999, 999, 6, 37, 168, 143, 127, 164, 192, 117, 1, 1.78482
395, 6, bw, filler, NA, 999, 999, 6, 37, 168, 143, 127, 164, 192, 117, 2, 2.02425
395, 6, bw, catch, NA, 999, 999, 7, 1, 132, 123, 116, 79, 151, 164, 3, 0.748358
395, 6, bw, catch, NA, 999, 999, 7, 1, 132, 123, 116, 79, 151, 164, 2, 0.461298
395, 6, bw, attraction, a-b-da, 5, 2, 7, 2, 161, 88, 165, 90, 90, 165, 2, 0.94441
395, 6, bw, attraction, a-b-da, 5, 2, 7, 2, 161, 88, 165, 90, 90, 165, 3, 0.377428
395, 6, bw, attraction, a-b-da, 14, 3, 7, 3, 181, 111, 120, 195, 195, 120, 2, 0.495947
395, 6, bw, attraction, a-b-da, 14, 3, 7, 3, 181, 111, 120, 195, 195, 120, 1, 0.395051
395, 6, bw, attraction, a-b-da, 2, 2, 7, 4, 163, 89, 165, 90, 90, 165, 2, 0.553003
395, 6, bw, attraction, a-b-da, 2, 2, 7, 4, 163, 89, 165, 90, 90, 165, 1, 0.401984
395, 6, bw, attraction, a-b-db, 2, 3, 7, 5, 119, 193, 120, 195, 195, 120, 2, 0.511729
395, 6, bw, attraction, a-b-db, 2, 3, 7, 5, 119, 193, 120, 195, 195, 120, 1, 0.442319
395, 6, bw, attraction, a-b-db, 14, 2, 7, 6, 83, 153, 90, 165, 165, 90, 2, 0.526093
395, 6, bw, attraction, a-b-db, 14, 2, 7, 6, 83, 153, 90, 165, 165, 90, 1, 0.463935
395, 6, bw, filler, NA, 999, 999, 7, 7, 193, 74, 126, 184, 169, 180, 3, 0.939042
395, 6, bw, filler, NA, 999, 999, 7, 7, 193, 74, 126, 184, 169, 180, 1, 0.572235
395, 6, bw, attraction, a-b-da, 9, 3, 7, 8, 120, 195, 186, 114, 195, 120, 1, 0.76324
395, 6, bw, attraction, a-b-da, 9, 3, 7, 8, 120, 195, 186, 114, 195, 120, 2, 0.387596
395, 6, bw, attraction, a-b-db, 5, 3, 7, 9, 120, 195, 195, 120, 117, 190, 3, 1.68209
395, 6, bw, attraction, a-b-db, 5, 3, 7, 9, 120, 195, 195, 120, 117, 190, 2, 0.565649
395, 6, bw, attraction, a-b-da, 14, 2, 7, 10, 153, 83, 90, 165, 165, 90, 2, 0.868554
395, 6, bw, attraction, a-b-da, 14, 2, 7, 10, 153, 83, 90, 165, 165, 90, 1, 0.480989
395, 6, bw, attraction, a-b-db, 5, 2, 7, 11, 165, 90, 90, 165, 88, 161, 2, 0.675395
395, 6, bw, attraction, a-b-db, 5, 2, 7, 11, 165, 90, 90, 165, 88, 161, 1, 0.719161
395, 6, bw, attraction, a-b-da, 2, 3, 7, 12, 193, 119, 120, 195, 195, 120, 2, 0.504255
395, 6, bw, attraction, a-b-da, 2, 3, 7, 12, 193, 119, 120, 195, 195, 120, 1, 1.34685
395, 6, bw, attraction, a-b-db, 2, 2, 7, 13, 89, 163, 90, 165, 165, 90, 2, 0.850281
395, 6, bw, attraction, a-b-db, 2, 2, 7, 13, 89, 163, 90, 165, 165, 90, 1, 0.671381
395, 6, bw, attraction, a-b-da, 5, 3, 7, 14, 195, 120, 120, 195, 190, 117, 2, 0.634327
395, 6, bw, attraction, a-b-da, 5, 3, 7, 14, 195, 120, 120, 195, 190, 117, 3, 0.496143
395, 6, bw, catch, NA, 999, 999, 7, 15, 142, 173, 139, 116, 110, 85, 2, 0.465933
395, 6, bw, catch, NA, 999, 999, 7, 15, 142, 173, 139, 116, 110, 85, 3, 0.52641
395, 6, bw, attraction, a-b-db, 9, 1, 7, 16, 57, 129, 60, 135, 135, 60, 3, 0.950893
395, 6, bw, attraction, a-b-db, 9, 1, 7, 16, 57, 129, 60, 135, 135, 60, 2, 0.368032
395, 6, bw, filler, NA, 999, 999, 7, 17, 105, 123, 56, 155, 163, 173, 3, 0.855098
395, 6, bw, filler, NA, 999, 999, 7, 17, 105, 123, 56, 155, 163, 173, 2, 0.84356
395, 6, bw, attraction, a-b-db, 5, 1, 7, 18, 60, 135, 135, 60, 58, 132, 2, 0.70309
395, 6, bw, attraction, a-b-db, 5, 1, 7, 18, 60, 135, 135, 60, 58, 132, 1, 0.377511
395, 6, bw, catch, NA, 999, 999, 7, 19, 61, 134, 126, 129, 129, 186, 2, 0.511983
395, 6, bw, catch, NA, 999, 999, 7, 19, 61, 134, 126, 129, 129, 186, 1, 0.402463
395, 6, bw, attraction, a-b-da, 9, 1, 7, 20, 129, 57, 135, 60, 60, 135, 3, 0.720317
395, 6, bw, attraction, a-b-da, 9, 1, 7, 20, 129, 57, 135, 60, 60, 135, 1, 0.43484
395, 6, bw, filler, NA, 999, 999, 7, 21, 113, 143, 69, 110, 178, 189, 3, 0.823136
395, 6, bw, filler, NA, 999, 999, 7, 21, 113, 143, 69, 110, 178, 189, 2, 0.900872
395, 6, bw, attraction, a-b-db, 9, 2, 7, 22, 165, 90, 90, 165, 86, 157, 2, 0.766596
395, 6, bw, attraction, a-b-db, 9, 2, 7, 22, 165, 90, 90, 165, 86, 157, 3, 0.431012
395, 6, bw, filler, NA, 999, 999, 7, 23, 124, 65, 135, 168, 127, 167, 2, 0.467404
395, 6, bw, filler, NA, 999, 999, 7, 23, 124, 65, 135, 168, 127, 167, 1, 0.920059
395, 6, bw, attraction, a-b-db, 2, 1, 7, 24, 60, 135, 59, 134, 135, 60, 1, 0.872954
395, 6, bw, attraction, a-b-db, 2, 1, 7, 24, 60, 135, 59, 134, 135, 60, 2, 0.316732
395, 6, bw, filler, NA, 999, 999, 7, 25, 74, 89, 71, 195, 108, 146, 3, 1.04574
395, 6, bw, filler, NA, 999, 999, 7, 25, 74, 89, 71, 195, 108, 146, 1, 0.586837
395, 6, bw, filler, NA, 999, 999, 7, 26, 70, 144, 141, 155, 162, 163, 2, 0.505207
395, 6, bw, filler, NA, 999, 999, 7, 26, 70, 144, 141, 155, 162, 163, 1, 0.395656
395, 6, bw, attraction, a-b-db, 14, 3, 7, 27, 195, 120, 111, 181, 120, 195, 1, 1.10547
395, 6, bw, attraction, a-b-db, 14, 3, 7, 27, 195, 120, 111, 181, 120, 195, 2, 0.379877
395, 6, bw, attraction, a-b-da, 9, 2, 7, 28, 165, 90, 157, 86, 90, 165, 3, 0.842245
395, 6, bw, attraction, a-b-da, 9, 2, 7, 28, 165, 90, 157, 86, 90, 165, 1, 0.863289
395, 6, bw, attraction, a-b-db, 14, 1, 7, 29, 60, 135, 135, 60, 56, 125, 3, 1.08233
395, 6, bw, attraction, a-b-db, 14, 1, 7, 29, 60, 135, 135, 60, 56, 125, 1, 0.430109
395, 6, bw, attraction, a-b-db, 9, 3, 7, 30, 114, 186, 195, 120, 120, 195, 2, 0.50651
395, 6, bw, attraction, a-b-db, 9, 3, 7, 30, 114, 186, 195, 120, 120, 195, 1, 0.348927
395, 6, bw, filler, NA, 999, 999, 7, 31, 85, 100, 154, 172, 58, 160, 2, 0.524839
395, 6, bw, filler, NA, 999, 999, 7, 31, 85, 100, 154, 172, 58, 160, 1, 0.414746
395, 6, bw, filler, NA, 999, 999, 7, 32, 189, 121, 132, 190, 116, 152, 2, 2.69967
395, 6, bw, filler, NA, 999, 999, 7, 32, 189, 121, 132, 190, 116, 152, 3, 0.430133
395, 6, bw, filler, NA, 999, 999, 7, 33, 127, 189, 157, 192, 96, 126, 2, 0.79476
395, 6, bw, filler, NA, 999, 999, 7, 33, 127, 189, 157, 192, 96, 126, 3, 0.385862
395, 6, bw, filler, NA, 999, 999, 7, 34, 74, 63, 129, 153, 116, 84, 2, 0.560218
395, 6, bw, filler, NA, 999, 999, 7, 34, 74, 63, 129, 153, 116, 84, 1, 0.416671
395, 6, bw, attraction, a-b-da, 14, 1, 7, 35, 125, 56, 135, 60, 60, 135, 2, 0.821853
395, 6, bw, attraction, a-b-da, 14, 1, 7, 35, 125, 56, 135, 60, 60, 135, 1, 0.571579
395, 6, bw, attraction, a-b-da, 2, 1, 7, 36, 134, 59, 135, 60, 60, 135, 2, 0.482544
395, 6, bw, attraction, a-b-da, 2, 1, 7, 36, 134, 59, 135, 60, 60, 135, 3, 1.56647
395, 6, bw, attraction, a-b-da, 5, 1, 7, 37, 132, 58, 135, 60, 60, 135, 2, 0.789203
395, 6, bw, attraction, a-b-da, 5, 1, 7, 37, 132, 58, 135, 60, 60, 135, 1, 1.1643
395, 6, bw, attraction, a-b-db, 2, 3, 8, 1, 195, 120, 119, 193, 120, 195, 2, 2.07519
395, 6, bw, attraction, a-b-db, 2, 3, 8, 1, 195, 120, 119, 193, 120, 195, 1, 0.350559
395, 6, bw, filler, NA, 999, 999, 8, 2, 85, 109, 190, 108, 120, 117, 3, 1.32635
395, 6, bw, filler, NA, 999, 999, 8, 2, 85, 109, 190, 108, 120, 117, 1, 0.408031
395, 6, bw, attraction, a-b-da, 9, 2, 8, 3, 157, 86, 90, 165, 165, 90, 2, 0.669035
395, 6, bw, attraction, a-b-da, 9, 2, 8, 3, 157, 86, 90, 165, 165, 90, 1, 0.473511
395, 6, bw, attraction, a-b-da, 5, 2, 8, 4, 90, 165, 161, 88, 165, 90, 2, 0.683864
395, 6, bw, attraction, a-b-da, 5, 2, 8, 4, 90, 165, 161, 88, 165, 90, 1, 0.367652
395, 6, bw, attraction, a-b-db, 9, 1, 8, 5, 135, 60, 60, 135, 57, 129, 2, 0.519034
395, 6, bw, attraction, a-b-db, 9, 1, 8, 5, 135, 60, 60, 135, 57, 129, 1, 0.761291
395, 6, bw, attraction, a-b-da, 14, 3, 8, 6, 181, 111, 120, 195, 195, 120, 2, 0.584414
395, 6, bw, attraction, a-b-da, 14, 3, 8, 6, 181, 111, 120, 195, 195, 120, 1, 0.536146
395, 6, bw, attraction, a-b-db, 5, 3, 8, 7, 117, 190, 120, 195, 195, 120, 2, 0.528531
395, 6, bw, attraction, a-b-db, 5, 3, 8, 7, 117, 190, 120, 195, 195, 120, 1, 0.834496
395, 6, bw, attraction, a-b-db, 14, 3, 8, 8, 120, 195, 195, 120, 111, 181, 2, 0.34274
395, 6, bw, attraction, a-b-db, 14, 3, 8, 8, 120, 195, 195, 120, 111, 181, 3, 1.86393
395, 6, bw, filler, NA, 999, 999, 8, 9, 120, 110, 189, 81, 143, 135, 3, 1.09866
395, 6, bw, filler, NA, 999, 999, 8, 9, 120, 110, 189, 81, 143, 135, 1, 0.717635
395, 6, bw, attraction, a-b-da, 14, 1, 8, 10, 135, 60, 60, 135, 125, 56, 2, 0.982717
395, 6, bw, attraction, a-b-da, 14, 1, 8, 10, 135, 60, 60, 135, 125, 56, 3, 0.582446
395, 6, bw, attraction, a-b-da, 2, 2, 8, 11, 163, 89, 165, 90, 90, 165, 2, 0.692766
395, 6, bw, attraction, a-b-da, 2, 2, 8, 11, 163, 89, 165, 90, 90, 165, 1, 0.751866
395, 6, bw, catch, NA, 999, 999, 8, 12, 82, 113, 136, 119, 174, 141, 2, 0.535583
395, 6, bw, catch, NA, 999, 999, 8, 12, 82, 113, 136, 119, 174, 141, 1, 0.681392
395, 6, bw, attraction, a-b-db, 5, 2, 8, 13, 88, 161, 165, 90, 90, 165, 3, 1.11573
395, 6, bw, attraction, a-b-db, 5, 2, 8, 13, 88, 161, 165, 90, 90, 165, 2, 0.422092
395, 6, bw, catch, NA, 999, 999, 8, 14, 126, 129, 164, 151, 64, 131, 2, 0.899269
395, 6, bw, catch, NA, 999, 999, 8, 14, 126, 129, 164, 151, 64, 131, 3, 0.822215
395, 6, bw, filler, NA, 999, 999, 8, 15, 171, 132, 126, 66, 138, 79, 1, 1.39524
395, 6, bw, filler, NA, 999, 999, 8, 15, 171, 132, 126, 66, 138, 79, 2, 0.626141
395, 6, bw, catch, NA, 999, 999, 8, 16, 98, 97, 127, 188, 117, 138, 2, 1.11851
395, 6, bw, catch, NA, 999, 999, 8, 16, 98, 97, 127, 188, 117, 138, 1, 0.672787
395, 6, bw, attraction, a-b-db, 9, 2, 8, 17, 90, 165, 86, 157, 165, 90, 2, 1.17115
395, 6, bw, attraction, a-b-db, 9, 2, 8, 17, 90, 165, 86, 157, 165, 90, 1, 0.394928
395, 6, bw, attraction, a-b-da, 9, 1, 8, 18, 129, 57, 135, 60, 60, 135, 2, 1.02461
395, 6, bw, attraction, a-b-da, 9, 1, 8, 18, 129, 57, 135, 60, 60, 135, 1, 0.718258
395, 6, bw, filler, NA, 999, 999, 8, 19, 146, 58, 163, 101, 186, 145, 3, 0.831353
395, 6, bw, filler, NA, 999, 999, 8, 19, 146, 58, 163, 101, 186, 145, 1, 0.709076
395, 6, bw, attraction, a-b-da, 2, 1, 8, 20, 135, 60, 134, 59, 60, 135, 1, 1.28605
395, 6, bw, attraction, a-b-da, 2, 1, 8, 20, 135, 60, 134, 59, 60, 135, 2, 0.425724
395, 6, bw, attraction, a-b-db, 14, 1, 8, 21, 56, 125, 60, 135, 135, 60, 2, 0.630072
395, 6, bw, attraction, a-b-db, 14, 1, 8, 21, 56, 125, 60, 135, 135, 60, 1, 0.379899
395, 6, bw, filler, NA, 999, 999, 8, 22, 79, 80, 160, 129, 188, 140, 2, 0.482377
395, 6, bw, filler, NA, 999, 999, 8, 22, 79, 80, 160, 129, 188, 140, 1, 0.622198
395, 6, bw, attraction, a-b-da, 9, 3, 8, 23, 120, 195, 186, 114, 195, 120, 1, 0.907295
395, 6, bw, attraction, a-b-da, 9, 3, 8, 23, 120, 195, 186, 114, 195, 120, 2, 0.453763
395, 6, bw, attraction, a-b-db, 5, 1, 8, 24, 58, 132, 135, 60, 60, 135, 1, 1.28143
395, 6, bw, attraction, a-b-db, 5, 1, 8, 24, 58, 132, 135, 60, 60, 135, 2, 0.877039
395, 6, bw, filler, NA, 999, 999, 8, 25, 149, 163, 190, 116, 128, 74, 1, 1.15934
395, 6, bw, filler, NA, 999, 999, 8, 25, 149, 163, 190, 116, 128, 74, 3, 0.783746
395, 6, bw, attraction, a-b-db, 9, 3, 8, 26, 120, 195, 195, 120, 114, 186, 1, 1.34197
395, 6, bw, attraction, a-b-db, 9, 3, 8, 26, 120, 195, 195, 120, 114, 186, 2, 0.406878
395, 6, bw, filler, NA, 999, 999, 8, 27, 122, 144, 147, 127, 58, 111, 1, 1.09205
395, 6, bw, filler, NA, 999, 999, 8, 27, 122, 144, 147, 127, 58, 111, 3, 0.414967
395, 6, bw, attraction, a-b-db, 14, 2, 8, 28, 83, 153, 90, 165, 165, 90, 2, 0.948295
395, 6, bw, attraction, a-b-db, 14, 2, 8, 28, 83, 153, 90, 165, 165, 90, 1, 0.37323
395, 6, bw, attraction, a-b-da, 14, 2, 8, 29, 153, 83, 165, 90, 90, 165, 3, 1.7477
395, 6, bw, attraction, a-b-da, 14, 2, 8, 29, 153, 83, 165, 90, 90, 165, 2, 0.468579
395, 6, bw, filler, NA, 999, 999, 8, 30, 69, 59, 158, 180, 56, 174, 2, 1.39954
395, 6, bw, filler, NA, 999, 999, 8, 30, 69, 59, 158, 180, 56, 174, 1, 0.934484
395, 6, bw, attraction, a-b-db, 2, 2, 8, 31, 165, 90, 89, 163, 90, 165, 2, 1.67873
395, 6, bw, attraction, a-b-db, 2, 2, 8, 31, 165, 90, 89, 163, 90, 165, 1, 0.626163
395, 6, bw, attraction, a-b-da, 2, 3, 8, 32, 195, 120, 193, 119, 120, 195, 1, 1.5107
395, 6, bw, attraction, a-b-da, 2, 3, 8, 32, 195, 120, 193, 119, 120, 195, 2, 0.576874
395, 6, bw, filler, NA, 999, 999, 8, 33, 146, 188, 149, 179, 186, 79, 1, 1.85524
395, 6, bw, filler, NA, 999, 999, 8, 33, 146, 188, 149, 179, 186, 79, 3, 0.5794
395, 6, bw, attraction, a-b-da, 5, 3, 8, 34, 120, 195, 190, 117, 195, 120, 2, 1.77764
395, 6, bw, attraction, a-b-da, 5, 3, 8, 34, 120, 195, 190, 117, 195, 120, 1, 0.425034
395, 6, bw, attraction, a-b-da, 5, 1, 8, 35, 132, 58, 60, 135, 135, 60, 2, 0.909508
395, 6, bw, attraction, a-b-da, 5, 1, 8, 35, 132, 58, 60, 135, 135, 60, 1, 1.27993
395, 6, bw, attraction, a-b-db, 2, 1, 8, 36, 59, 134, 135, 60, 60, 135, 2, 1.43413
395, 6, bw, attraction, a-b-db, 2, 1, 8, 36, 59, 134, 135, 60, 60, 135, 3, 0.591657
395, 6, bw, filler, NA, 999, 999, 8, 37, 139, 133, 158, 160, 177, 76, 2, 0.605383
395, 6, bw, filler, NA, 999, 999, 8, 37, 139, 133, 158, 160, 177, 76, 3, 0.907922
