sub_n, computer_n, bw_cond, effect, set, distance, diag, block_n, trial_n, h1, w1, h2, w2, h3, w3, choice, rt 
376, 6, wb, practice, NA, 999, 999, 0, 1, 95, 154, 123, 115, 171, 144, 2, 3.32427
376, 6, wb, practice, NA, 999, 999, 0, 1, 95, 154, 123, 115, 171, 144, 3, 1.19868
376, 6, wb, practice, NA, 999, 999, 0, 2, 156, 88, 127, 82, 164, 132, 2, 2.17681
376, 6, wb, practice, NA, 999, 999, 0, 2, 156, 88, 127, 82, 164, 132, 3, 1.08905
376, 6, wb, practice, NA, 999, 999, 0, 3, 137, 153, 98, 95, 148, 142, 2, 1.98647
376, 6, wb, practice, NA, 999, 999, 0, 3, 137, 153, 98, 95, 148, 142, 3, 1.35814
376, 6, wb, attraction, a-b-da, 9, 2, 1, 1, 165, 90, 157, 86, 90, 165, 2, 3.08605
376, 6, wb, attraction, a-b-da, 9, 2, 1, 1, 165, 90, 157, 86, 90, 165, 1, 2.77728
376, 6, wb, attraction, a-b-db, 9, 1, 1, 2, 135, 60, 57, 129, 60, 135, 1, 4.58285
376, 6, wb, attraction, a-b-db, 9, 1, 1, 2, 135, 60, 57, 129, 60, 135, 3, 0.925368
376, 6, wb, attraction, a-b-da, 5, 3, 1, 3, 120, 195, 195, 120, 190, 117, 3, 2.90971
376, 6, wb, attraction, a-b-da, 5, 3, 1, 3, 120, 195, 195, 120, 190, 117, 2, 0.751433
376, 6, wb, attraction, a-b-da, 14, 1, 1, 4, 60, 135, 125, 56, 135, 60, 2, 4.35113
376, 6, wb, attraction, a-b-da, 14, 1, 1, 4, 60, 135, 125, 56, 135, 60, 1, 0.559071
376, 6, wb, attraction, a-b-da, 5, 2, 1, 5, 161, 88, 90, 165, 165, 90, 1, 4.51825
376, 6, wb, attraction, a-b-da, 5, 2, 1, 5, 161, 88, 90, 165, 165, 90, 3, 0.64749
376, 6, wb, attraction, a-b-da, 5, 1, 1, 6, 60, 135, 135, 60, 132, 58, 1, 2.48313
376, 6, wb, attraction, a-b-da, 5, 1, 1, 6, 60, 135, 135, 60, 132, 58, 2, 1.62242
376, 6, wb, attraction, a-b-db, 2, 2, 1, 7, 165, 90, 90, 165, 89, 163, 2, 5.58714
376, 6, wb, attraction, a-b-db, 2, 2, 1, 7, 165, 90, 90, 165, 89, 163, 3, 0.481408
376, 6, wb, catch, NA, 999, 999, 1, 8, 168, 147, 106, 149, 131, 64, 3, 1.89987
376, 6, wb, catch, NA, 999, 999, 1, 8, 168, 147, 106, 149, 131, 64, 1, 0.622551
376, 6, wb, attraction, a-b-db, 2, 3, 1, 9, 119, 193, 195, 120, 120, 195, 1, 2.28353
376, 6, wb, attraction, a-b-db, 2, 3, 1, 9, 119, 193, 195, 120, 120, 195, 3, 0.686963
376, 6, wb, filler, NA, 999, 999, 1, 10, 194, 159, 69, 174, 56, 158, 3, 1.56134
376, 6, wb, filler, NA, 999, 999, 1, 10, 194, 159, 69, 174, 56, 158, 1, 0.513509
376, 6, wb, attraction, a-b-da, 9, 1, 1, 11, 135, 60, 60, 135, 129, 57, 3, 1.95454
376, 6, wb, attraction, a-b-da, 9, 1, 1, 11, 135, 60, 60, 135, 129, 57, 1, 0.642679
376, 6, wb, filler, NA, 999, 999, 1, 12, 115, 93, 132, 126, 113, 121, 1, 1.49434
376, 6, wb, filler, NA, 999, 999, 1, 12, 115, 93, 132, 126, 113, 121, 2, 0.65722
376, 6, wb, filler, NA, 999, 999, 1, 13, 56, 95, 148, 64, 170, 89, 1, 1.01223
376, 6, wb, filler, NA, 999, 999, 1, 13, 56, 95, 148, 64, 170, 89, 3, 0.466552
376, 6, wb, attraction, a-b-db, 14, 1, 1, 14, 60, 135, 56, 125, 135, 60, 2, 1.81375
376, 6, wb, attraction, a-b-db, 14, 1, 1, 14, 60, 135, 56, 125, 135, 60, 1, 1.0437
376, 6, wb, filler, NA, 999, 999, 1, 15, 170, 161, 185, 172, 172, 160, 1, 1.78338
376, 6, wb, filler, NA, 999, 999, 1, 15, 170, 161, 185, 172, 172, 160, 2, 0.926818
376, 6, wb, attraction, a-b-db, 5, 1, 1, 16, 58, 132, 60, 135, 135, 60, 1, 2.00716
376, 6, wb, attraction, a-b-db, 5, 1, 1, 16, 58, 132, 60, 135, 135, 60, 3, 0.677105
376, 6, wb, attraction, a-b-db, 14, 2, 1, 17, 90, 165, 165, 90, 83, 153, 3, 1.80752
376, 6, wb, attraction, a-b-db, 14, 2, 1, 17, 90, 165, 165, 90, 83, 153, 1, 0.549539
376, 6, wb, catch, NA, 999, 999, 1, 18, 113, 142, 193, 122, 85, 110, 3, 1.1493
376, 6, wb, catch, NA, 999, 999, 1, 18, 113, 142, 193, 122, 85, 110, 2, 0.654294
376, 6, wb, filler, NA, 999, 999, 1, 19, 92, 89, 140, 189, 114, 115, 1, 1.36206
376, 6, wb, filler, NA, 999, 999, 1, 19, 92, 89, 140, 189, 114, 115, 2, 0.634273
376, 6, wb, attraction, a-b-da, 9, 3, 1, 20, 186, 114, 195, 120, 120, 195, 3, 3.15069
376, 6, wb, attraction, a-b-da, 9, 3, 1, 20, 186, 114, 195, 120, 120, 195, 2, 0.478953
376, 6, wb, attraction, a-b-da, 14, 3, 1, 21, 181, 111, 195, 120, 120, 195, 1, 1.76946
376, 6, wb, attraction, a-b-da, 14, 3, 1, 21, 181, 111, 195, 120, 120, 195, 3, 0.465535
376, 6, wb, attraction, a-b-da, 2, 3, 1, 22, 120, 195, 193, 119, 195, 120, 3, 3.60479
376, 6, wb, attraction, a-b-da, 2, 3, 1, 22, 120, 195, 193, 119, 195, 120, 1, 1.0102
376, 6, wb, filler, NA, 999, 999, 1, 23, 71, 115, 161, 130, 128, 103, 1, 1.41506
376, 6, wb, filler, NA, 999, 999, 1, 23, 71, 115, 161, 130, 128, 103, 2, 0.469309
376, 6, wb, filler, NA, 999, 999, 1, 24, 166, 193, 73, 106, 77, 125, 2, 0.912402
376, 6, wb, filler, NA, 999, 999, 1, 24, 166, 193, 73, 106, 77, 125, 1, 0.314871
376, 6, wb, attraction, a-b-da, 2, 1, 1, 25, 134, 59, 60, 135, 135, 60, 3, 1.41998
376, 6, wb, attraction, a-b-da, 2, 1, 1, 25, 134, 59, 60, 135, 135, 60, 1, 0.99416
376, 6, wb, filler, NA, 999, 999, 1, 26, 116, 78, 81, 155, 86, 144, 1, 1.28778
376, 6, wb, filler, NA, 999, 999, 1, 26, 116, 78, 81, 155, 86, 144, 3, 0.514704
376, 6, wb, filler, NA, 999, 999, 1, 27, 136, 85, 85, 145, 109, 113, 3, 4.05983
376, 6, wb, filler, NA, 999, 999, 1, 27, 136, 85, 85, 145, 109, 113, 2, 1.31925
376, 6, wb, attraction, a-b-db, 14, 3, 1, 28, 195, 120, 111, 181, 120, 195, 3, 1.49603
376, 6, wb, attraction, a-b-db, 14, 3, 1, 28, 195, 120, 111, 181, 120, 195, 2, 0.755049
376, 6, wb, attraction, a-b-da, 14, 2, 1, 29, 90, 165, 153, 83, 165, 90, 2, 1.83456
376, 6, wb, attraction, a-b-da, 14, 2, 1, 29, 90, 165, 153, 83, 165, 90, 1, 0.368016
376, 6, wb, attraction, a-b-db, 9, 2, 1, 30, 90, 165, 165, 90, 86, 157, 3, 1.95914
376, 6, wb, attraction, a-b-db, 9, 2, 1, 30, 90, 165, 165, 90, 86, 157, 1, 0.383261
376, 6, wb, attraction, a-b-db, 5, 3, 1, 31, 117, 190, 195, 120, 120, 195, 1, 1.42969
376, 6, wb, attraction, a-b-db, 5, 3, 1, 31, 117, 190, 195, 120, 120, 195, 3, 0.467188
376, 6, wb, filler, NA, 999, 999, 1, 32, 106, 137, 80, 122, 90, 61, 3, 1.53428
376, 6, wb, filler, NA, 999, 999, 1, 32, 106, 137, 80, 122, 90, 61, 1, 0.871803
376, 6, wb, attraction, a-b-da, 2, 2, 1, 33, 90, 165, 165, 90, 163, 89, 1, 1.78683
376, 6, wb, attraction, a-b-da, 2, 2, 1, 33, 90, 165, 165, 90, 163, 89, 3, 1.09824
376, 6, wb, attraction, a-b-db, 2, 1, 1, 34, 60, 135, 59, 134, 135, 60, 3, 2.89185
376, 6, wb, attraction, a-b-db, 2, 1, 1, 34, 60, 135, 59, 134, 135, 60, 1, 0.654287
376, 6, wb, catch, NA, 999, 999, 1, 35, 118, 77, 157, 98, 151, 164, 1, 1.14598
376, 6, wb, catch, NA, 999, 999, 1, 35, 118, 77, 157, 98, 151, 164, 3, 0.314887
376, 6, wb, attraction, a-b-db, 5, 2, 1, 36, 90, 165, 88, 161, 165, 90, 3, 3.21227
376, 6, wb, attraction, a-b-db, 5, 2, 1, 36, 90, 165, 88, 161, 165, 90, 1, 0.537778
376, 6, wb, attraction, a-b-db, 9, 3, 1, 37, 114, 186, 120, 195, 195, 120, 1, 4.95419
376, 6, wb, attraction, a-b-db, 9, 3, 1, 37, 114, 186, 120, 195, 195, 120, 3, 0.665989
376, 6, wb, attraction, a-b-db, 2, 2, 2, 1, 90, 165, 165, 90, 89, 163, 3, 4.07706
376, 6, wb, attraction, a-b-db, 2, 2, 2, 1, 90, 165, 165, 90, 89, 163, 1, 1.10384
376, 6, wb, filler, NA, 999, 999, 2, 2, 111, 170, 109, 90, 194, 176, 2, 1.15329
376, 6, wb, filler, NA, 999, 999, 2, 2, 111, 170, 109, 90, 194, 176, 3, 0.554238
376, 6, wb, attraction, a-b-da, 14, 1, 2, 3, 125, 56, 60, 135, 135, 60, 1, 1.29008
376, 6, wb, attraction, a-b-da, 14, 1, 2, 3, 125, 56, 60, 135, 135, 60, 2, 1.31696
376, 6, wb, attraction, a-b-da, 14, 3, 2, 4, 120, 195, 195, 120, 181, 111, 3, 2.95777
376, 6, wb, attraction, a-b-da, 14, 3, 2, 4, 120, 195, 195, 120, 181, 111, 2, 0.261523
376, 6, wb, filler, NA, 999, 999, 2, 5, 70, 188, 105, 151, 134, 62, 3, 1.28074
376, 6, wb, filler, NA, 999, 999, 2, 5, 70, 188, 105, 151, 134, 62, 2, 0.476299
376, 6, wb, filler, NA, 999, 999, 2, 6, 65, 143, 132, 194, 107, 169, 1, 1.26275
376, 6, wb, filler, NA, 999, 999, 2, 6, 65, 143, 132, 194, 107, 169, 2, 0.418927
376, 6, wb, attraction, a-b-db, 5, 1, 2, 7, 58, 132, 135, 60, 60, 135, 1, 1.72813
376, 6, wb, attraction, a-b-db, 5, 1, 2, 7, 58, 132, 135, 60, 60, 135, 3, 0.34563
376, 6, wb, attraction, a-b-db, 14, 1, 2, 8, 56, 125, 135, 60, 60, 135, 3, 1.56152
376, 6, wb, attraction, a-b-db, 14, 1, 2, 8, 56, 125, 135, 60, 60, 135, 1, 0.38555
376, 6, wb, filler, NA, 999, 999, 2, 9, 137, 136, 160, 103, 127, 81, 3, 0.880058
376, 6, wb, filler, NA, 999, 999, 2, 9, 137, 136, 160, 103, 127, 81, 1, 0.291711
376, 6, wb, attraction, a-b-da, 5, 1, 2, 10, 60, 135, 132, 58, 135, 60, 2, 1.09362
376, 6, wb, attraction, a-b-da, 5, 1, 2, 10, 60, 135, 132, 58, 135, 60, 3, 0.520522
376, 6, wb, filler, NA, 999, 999, 2, 11, 140, 131, 163, 58, 114, 128, 3, 1.56973
376, 6, wb, filler, NA, 999, 999, 2, 11, 140, 131, 163, 58, 114, 128, 1, 0.473881
376, 6, wb, filler, NA, 999, 999, 2, 12, 162, 175, 184, 161, 96, 135, 3, 1.30828
376, 6, wb, filler, NA, 999, 999, 2, 12, 162, 175, 184, 161, 96, 135, 2, 1.27852
376, 6, wb, attraction, a-b-da, 9, 1, 2, 13, 60, 135, 129, 57, 135, 60, 1, 2.17669
376, 6, wb, attraction, a-b-da, 9, 1, 2, 13, 60, 135, 129, 57, 135, 60, 3, 0.952031
376, 6, wb, attraction, a-b-db, 9, 3, 2, 14, 114, 186, 195, 120, 120, 195, 1, 1.68769
376, 6, wb, attraction, a-b-db, 9, 3, 2, 14, 114, 186, 195, 120, 120, 195, 3, 0.354467
376, 6, wb, attraction, a-b-da, 2, 2, 2, 15, 90, 165, 163, 89, 165, 90, 2, 2.01828
376, 6, wb, attraction, a-b-da, 2, 2, 2, 15, 90, 165, 163, 89, 165, 90, 1, 0.27228
376, 6, wb, attraction, a-b-da, 5, 2, 2, 16, 90, 165, 165, 90, 161, 88, 3, 1.45959
376, 6, wb, attraction, a-b-da, 5, 2, 2, 16, 90, 165, 165, 90, 161, 88, 1, 0.903563
376, 6, wb, attraction, a-b-da, 14, 2, 2, 17, 153, 83, 165, 90, 90, 165, 3, 1.92934
376, 6, wb, attraction, a-b-da, 14, 2, 2, 17, 153, 83, 165, 90, 90, 165, 2, 1.86671
376, 6, wb, attraction, a-b-db, 5, 2, 2, 18, 88, 161, 165, 90, 90, 165, 3, 1.22137
376, 6, wb, attraction, a-b-db, 5, 2, 2, 18, 88, 161, 165, 90, 90, 165, 1, 0.738965
376, 6, wb, attraction, a-b-db, 2, 3, 2, 19, 119, 193, 195, 120, 120, 195, 3, 1.98733
376, 6, wb, attraction, a-b-db, 2, 3, 2, 19, 119, 193, 195, 120, 120, 195, 1, 0.290699
376, 6, wb, filler, NA, 999, 999, 2, 20, 176, 98, 73, 146, 116, 147, 2, 2.31653
376, 6, wb, filler, NA, 999, 999, 2, 20, 176, 98, 73, 146, 116, 147, 3, 0.502491
376, 6, wb, catch, NA, 999, 999, 2, 21, 149, 166, 156, 99, 78, 117, 3, 1.04832
376, 6, wb, catch, NA, 999, 999, 2, 21, 149, 166, 156, 99, 78, 117, 1, 0.437217
376, 6, wb, attraction, a-b-db, 14, 3, 2, 22, 111, 181, 195, 120, 120, 195, 1, 1.97773
376, 6, wb, attraction, a-b-db, 14, 3, 2, 22, 111, 181, 195, 120, 120, 195, 3, 0.32112
376, 6, wb, catch, NA, 999, 999, 2, 23, 167, 148, 130, 125, 92, 103, 3, 1.10628
376, 6, wb, catch, NA, 999, 999, 2, 23, 167, 148, 130, 125, 92, 103, 1, 0.540514
376, 6, wb, attraction, a-b-db, 14, 2, 2, 24, 165, 90, 83, 153, 90, 165, 3, 1.06034
376, 6, wb, attraction, a-b-db, 14, 2, 2, 24, 165, 90, 83, 153, 90, 165, 1, 0.680645
376, 6, wb, catch, NA, 999, 999, 2, 25, 178, 137, 153, 102, 134, 61, 3, 0.995012
376, 6, wb, catch, NA, 999, 999, 2, 25, 178, 137, 153, 102, 134, 61, 1, 0.48212
376, 6, wb, filler, NA, 999, 999, 2, 26, 155, 187, 134, 67, 114, 60, 3, 0.988464
376, 6, wb, filler, NA, 999, 999, 2, 26, 155, 187, 134, 67, 114, 60, 1, 0.739474
376, 6, wb, attraction, a-b-da, 2, 1, 2, 27, 60, 135, 135, 60, 134, 59, 1, 1.91514
376, 6, wb, attraction, a-b-da, 2, 1, 2, 27, 60, 135, 135, 60, 134, 59, 3, 0.597201
376, 6, wb, filler, NA, 999, 999, 2, 28, 133, 138, 175, 162, 104, 97, 3, 0.986984
376, 6, wb, filler, NA, 999, 999, 2, 28, 133, 138, 175, 162, 104, 97, 2, 0.346672
376, 6, wb, attraction, a-b-db, 9, 2, 2, 29, 90, 165, 86, 157, 165, 90, 1, 0.890451
376, 6, wb, attraction, a-b-db, 9, 2, 2, 29, 90, 165, 86, 157, 165, 90, 3, 1.38948
376, 6, wb, attraction, a-b-da, 5, 3, 2, 30, 120, 195, 190, 117, 195, 120, 2, 2.19573
376, 6, wb, attraction, a-b-da, 5, 3, 2, 30, 120, 195, 190, 117, 195, 120, 3, 0.314308
376, 6, wb, attraction, a-b-db, 5, 3, 2, 31, 120, 195, 195, 120, 117, 190, 3, 8.42752
376, 6, wb, attraction, a-b-db, 5, 3, 2, 31, 120, 195, 195, 120, 117, 190, 1, 0.39079
376, 6, wb, attraction, a-b-db, 9, 1, 2, 32, 60, 135, 57, 129, 135, 60, 2, 2.0446
376, 6, wb, attraction, a-b-db, 9, 1, 2, 32, 60, 135, 57, 129, 135, 60, 1, 1.24128
376, 6, wb, attraction, a-b-db, 2, 1, 2, 33, 60, 135, 59, 134, 135, 60, 2, 1.98885
376, 6, wb, attraction, a-b-db, 2, 1, 2, 33, 60, 135, 59, 134, 135, 60, 1, 0.275523
376, 6, wb, attraction, a-b-da, 2, 3, 2, 34, 195, 120, 193, 119, 120, 195, 2, 2.39013
376, 6, wb, attraction, a-b-da, 2, 3, 2, 34, 195, 120, 193, 119, 120, 195, 1, 0.284597
376, 6, wb, filler, NA, 999, 999, 2, 35, 119, 160, 66, 80, 114, 116, 2, 0.815115
376, 6, wb, filler, NA, 999, 999, 2, 35, 119, 160, 66, 80, 114, 116, 1, 0.245532
376, 6, wb, attraction, a-b-da, 9, 2, 2, 36, 157, 86, 90, 165, 165, 90, 3, 2.58535
376, 6, wb, attraction, a-b-da, 9, 2, 2, 36, 157, 86, 90, 165, 165, 90, 1, 1.56066
376, 6, wb, attraction, a-b-da, 9, 3, 2, 37, 195, 120, 186, 114, 120, 195, 2, 3.58336
376, 6, wb, attraction, a-b-da, 9, 3, 2, 37, 195, 120, 186, 114, 120, 195, 1, 0.694128
376, 6, wb, attraction, a-b-db, 5, 1, 3, 1, 60, 135, 135, 60, 58, 132, 2, 5.82395
376, 6, wb, attraction, a-b-db, 5, 1, 3, 1, 60, 135, 135, 60, 58, 132, 3, 1.14017
376, 6, wb, catch, NA, 999, 999, 3, 2, 139, 176, 92, 163, 60, 135, 3, 0.931745
376, 6, wb, catch, NA, 999, 999, 3, 2, 139, 176, 92, 163, 60, 135, 1, 0.341242
376, 6, wb, attraction, a-b-db, 9, 2, 3, 3, 90, 165, 86, 157, 165, 90, 1, 1.59722
376, 6, wb, attraction, a-b-db, 9, 2, 3, 3, 90, 165, 86, 157, 165, 90, 2, 0.259959
376, 6, wb, filler, NA, 999, 999, 3, 4, 124, 184, 161, 165, 186, 127, 3, 2.02306
376, 6, wb, filler, NA, 999, 999, 3, 4, 124, 184, 161, 165, 186, 127, 2, 0.388416
376, 6, wb, filler, NA, 999, 999, 3, 5, 178, 66, 161, 114, 152, 195, 1, 1.80302
376, 6, wb, filler, NA, 999, 999, 3, 5, 178, 66, 161, 114, 152, 195, 3, 0.585718
376, 6, wb, attraction, a-b-da, 5, 2, 3, 6, 161, 88, 165, 90, 90, 165, 3, 1.54415
376, 6, wb, attraction, a-b-da, 5, 2, 3, 6, 161, 88, 165, 90, 90, 165, 1, 0.248962
376, 6, wb, attraction, a-b-da, 5, 3, 3, 7, 195, 120, 120, 195, 190, 117, 2, 1.69279
376, 6, wb, attraction, a-b-da, 5, 3, 3, 7, 195, 120, 120, 195, 190, 117, 3, 0.295598
376, 6, wb, filler, NA, 999, 999, 3, 8, 114, 176, 80, 140, 129, 157, 2, 0.913379
376, 6, wb, filler, NA, 999, 999, 3, 8, 114, 176, 80, 140, 129, 157, 3, 0.323896
376, 6, wb, filler, NA, 999, 999, 3, 9, 129, 56, 65, 177, 97, 170, 1, 0.852233
376, 6, wb, filler, NA, 999, 999, 3, 9, 129, 56, 65, 177, 97, 170, 3, 0.289341
376, 6, wb, attraction, a-b-db, 2, 1, 3, 10, 60, 135, 59, 134, 135, 60, 2, 0.811201
376, 6, wb, attraction, a-b-db, 2, 1, 3, 10, 60, 135, 59, 134, 135, 60, 1, 0.393603
376, 6, wb, filler, NA, 999, 999, 3, 11, 126, 112, 57, 103, 99, 127, 2, 0.711508
376, 6, wb, filler, NA, 999, 999, 3, 11, 126, 112, 57, 103, 99, 127, 1, 0.601953
376, 6, wb, attraction, a-b-db, 5, 3, 3, 12, 117, 190, 120, 195, 195, 120, 1, 2.29572
376, 6, wb, attraction, a-b-db, 5, 3, 3, 12, 117, 190, 120, 195, 195, 120, 3, 0.514165
376, 6, wb, filler, NA, 999, 999, 3, 13, 192, 60, 118, 62, 128, 163, 2, 1.06729
376, 6, wb, filler, NA, 999, 999, 3, 13, 192, 60, 118, 62, 128, 163, 3, 0.239536
376, 6, wb, attraction, a-b-da, 2, 2, 3, 14, 165, 90, 163, 89, 90, 165, 2, 2.13946
376, 6, wb, attraction, a-b-da, 2, 2, 3, 14, 165, 90, 163, 89, 90, 165, 3, 0.24409
376, 6, wb, attraction, a-b-da, 9, 3, 3, 15, 195, 120, 186, 114, 120, 195, 2, 1.12
376, 6, wb, attraction, a-b-da, 9, 3, 3, 15, 195, 120, 186, 114, 120, 195, 1, 0.834274
376, 6, wb, attraction, a-b-da, 9, 2, 3, 16, 90, 165, 165, 90, 157, 86, 3, 2.6866
376, 6, wb, attraction, a-b-da, 9, 2, 3, 16, 90, 165, 165, 90, 157, 86, 1, 0.953769
376, 6, wb, attraction, a-b-da, 14, 2, 3, 17, 165, 90, 90, 165, 153, 83, 2, 0.961412
376, 6, wb, attraction, a-b-da, 14, 2, 3, 17, 165, 90, 90, 165, 153, 83, 3, 0.265686
376, 6, wb, attraction, a-b-db, 9, 1, 3, 18, 57, 129, 60, 135, 135, 60, 2, 1.09295
376, 6, wb, attraction, a-b-db, 9, 1, 3, 18, 57, 129, 60, 135, 135, 60, 3, 1.0399
376, 6, wb, attraction, a-b-da, 2, 3, 3, 19, 195, 120, 193, 119, 120, 195, 2, 1.11553
376, 6, wb, attraction, a-b-da, 2, 3, 3, 19, 195, 120, 193, 119, 120, 195, 1, 1.12592
376, 6, wb, attraction, a-b-da, 14, 3, 3, 20, 195, 120, 120, 195, 181, 111, 2, 43.6861
376, 6, wb, attraction, a-b-da, 14, 3, 3, 20, 195, 120, 120, 195, 181, 111, 1, 0.812335
376, 6, wb, attraction, a-b-db, 9, 3, 3, 21, 120, 195, 114, 186, 195, 120, 1, 0.697446
376, 6, wb, attraction, a-b-db, 9, 3, 3, 21, 120, 195, 114, 186, 195, 120, 3, 0.388438
376, 6, wb, attraction, a-b-db, 2, 3, 3, 22, 120, 195, 119, 193, 195, 120, 1, 0.731076
376, 6, wb, attraction, a-b-db, 2, 3, 3, 22, 120, 195, 119, 193, 195, 120, 3, 0.500735
376, 6, wb, attraction, a-b-db, 2, 2, 3, 23, 165, 90, 90, 165, 89, 163, 2, 0.774448
376, 6, wb, attraction, a-b-db, 2, 2, 3, 23, 165, 90, 90, 165, 89, 163, 1, 0.494237
376, 6, wb, filler, NA, 999, 999, 3, 24, 86, 154, 151, 63, 90, 79, 3, 0.840029
376, 6, wb, filler, NA, 999, 999, 3, 24, 86, 154, 151, 63, 90, 79, 1, 0.309005
376, 6, wb, attraction, a-b-da, 2, 1, 3, 25, 60, 135, 135, 60, 134, 59, 2, 2.58216
376, 6, wb, attraction, a-b-da, 2, 1, 3, 25, 60, 135, 135, 60, 134, 59, 3, 0.205347
376, 6, wb, attraction, a-b-db, 14, 3, 3, 26, 120, 195, 111, 181, 195, 120, 2, 0.979224
376, 6, wb, attraction, a-b-db, 14, 3, 3, 26, 120, 195, 111, 181, 195, 120, 1, 0.466939
376, 6, wb, attraction, a-b-da, 9, 1, 3, 27, 60, 135, 135, 60, 129, 57, 3, 3.0461
376, 6, wb, attraction, a-b-da, 9, 1, 3, 27, 60, 135, 135, 60, 129, 57, 2, 0.42652
376, 6, wb, attraction, a-b-db, 14, 2, 3, 28, 90, 165, 165, 90, 83, 153, 3, 2.69499
376, 6, wb, attraction, a-b-db, 14, 2, 3, 28, 90, 165, 165, 90, 83, 153, 1, 0.233358
376, 6, wb, filler, NA, 999, 999, 3, 29, 111, 105, 104, 94, 122, 171, 2, 0.861922
376, 6, wb, filler, NA, 999, 999, 3, 29, 111, 105, 104, 94, 122, 171, 3, 0.282259
376, 6, wb, catch, NA, 999, 999, 3, 30, 153, 102, 165, 150, 90, 105, 3, 0.924819
376, 6, wb, catch, NA, 999, 999, 3, 30, 153, 102, 165, 150, 90, 105, 2, 0.43048
376, 6, wb, filler, NA, 999, 999, 3, 31, 117, 106, 194, 157, 84, 99, 3, 0.787043
376, 6, wb, filler, NA, 999, 999, 3, 31, 117, 106, 194, 157, 84, 99, 2, 0.306093
376, 6, wb, attraction, a-b-da, 14, 1, 3, 32, 135, 60, 125, 56, 60, 135, 2, 1.25911
376, 6, wb, attraction, a-b-da, 14, 1, 3, 32, 135, 60, 125, 56, 60, 135, 1, 0.495556
376, 6, wb, attraction, a-b-db, 14, 1, 3, 33, 60, 135, 56, 125, 135, 60, 3, 1.18525
376, 6, wb, attraction, a-b-db, 14, 1, 3, 33, 60, 135, 56, 125, 135, 60, 1, 0.5048
376, 6, wb, filler, NA, 999, 999, 3, 34, 186, 151, 84, 104, 74, 91, 3, 1.09853
376, 6, wb, filler, NA, 999, 999, 3, 34, 186, 151, 84, 104, 74, 91, 1, 0.277503
376, 6, wb, attraction, a-b-db, 5, 2, 3, 35, 165, 90, 88, 161, 90, 165, 3, 4.8562
376, 6, wb, attraction, a-b-db, 5, 2, 3, 35, 165, 90, 88, 161, 90, 165, 2, 0.64335
376, 6, wb, attraction, a-b-da, 5, 1, 3, 36, 60, 135, 135, 60, 132, 58, 2, 0.8389
376, 6, wb, attraction, a-b-da, 5, 1, 3, 36, 60, 135, 135, 60, 132, 58, 3, 0.275987
376, 6, wb, catch, NA, 999, 999, 3, 37, 106, 89, 141, 114, 134, 181, 1, 1.24646
376, 6, wb, catch, NA, 999, 999, 3, 37, 106, 89, 141, 114, 134, 181, 3, 0.307439
376, 6, wb, attraction, a-b-db, 14, 2, 4, 1, 83, 153, 90, 165, 165, 90, 1, 1.54061
376, 6, wb, attraction, a-b-db, 14, 2, 4, 1, 83, 153, 90, 165, 165, 90, 3, 0.333435
376, 6, wb, attraction, a-b-da, 9, 1, 4, 2, 129, 57, 135, 60, 60, 135, 1, 1.92592
376, 6, wb, attraction, a-b-da, 9, 1, 4, 2, 129, 57, 135, 60, 60, 135, 2, 0.303253
376, 6, wb, attraction, a-b-db, 9, 3, 4, 3, 114, 186, 195, 120, 120, 195, 1, 1.38511
376, 6, wb, attraction, a-b-db, 9, 3, 4, 3, 114, 186, 195, 120, 120, 195, 3, 0.256676
376, 6, wb, attraction, a-b-db, 5, 2, 4, 4, 165, 90, 88, 161, 90, 165, 3, 0.80388
376, 6, wb, attraction, a-b-db, 5, 2, 4, 4, 165, 90, 88, 161, 90, 165, 2, 0.226911
376, 6, wb, attraction, a-b-da, 5, 2, 4, 5, 165, 90, 161, 88, 90, 165, 1, 6.03948
376, 6, wb, attraction, a-b-da, 5, 2, 4, 5, 165, 90, 161, 88, 90, 165, 3, 1.1869
376, 6, wb, attraction, a-b-db, 14, 3, 4, 6, 111, 181, 195, 120, 120, 195, 1, 1.22507
376, 6, wb, attraction, a-b-db, 14, 3, 4, 6, 111, 181, 195, 120, 120, 195, 3, 0.558682
376, 6, wb, filler, NA, 999, 999, 4, 7, 137, 191, 81, 167, 186, 78, 2, 16.3578
376, 6, wb, filler, NA, 999, 999, 4, 7, 137, 191, 81, 167, 186, 78, 1, 0.298125
376, 6, wb, attraction, a-b-da, 5, 1, 4, 8, 135, 60, 132, 58, 60, 135, 2, 2.01178
376, 6, wb, attraction, a-b-da, 5, 1, 4, 8, 135, 60, 132, 58, 60, 135, 1, 0.23382
376, 6, wb, attraction, a-b-db, 14, 1, 4, 9, 135, 60, 60, 135, 56, 125, 3, 1.6304
376, 6, wb, attraction, a-b-db, 14, 1, 4, 9, 135, 60, 60, 135, 56, 125, 2, 0.227834
376, 6, wb, attraction, a-b-db, 2, 3, 4, 10, 195, 120, 119, 193, 120, 195, 2, 1.20837
376, 6, wb, attraction, a-b-db, 2, 3, 4, 10, 195, 120, 119, 193, 120, 195, 3, 0.254692
376, 6, wb, catch, NA, 999, 999, 4, 11, 148, 167, 94, 101, 110, 145, 2, 0.866545
376, 6, wb, catch, NA, 999, 999, 4, 11, 148, 167, 94, 101, 110, 145, 1, 0.174941
376, 6, wb, attraction, a-b-db, 5, 1, 4, 12, 58, 132, 135, 60, 60, 135, 1, 2.30152
376, 6, wb, attraction, a-b-db, 5, 1, 4, 12, 58, 132, 135, 60, 60, 135, 3, 0.208074
376, 6, wb, attraction, a-b-da, 2, 1, 4, 13, 134, 59, 135, 60, 60, 135, 3, 0.973274
376, 6, wb, attraction, a-b-da, 2, 1, 4, 13, 134, 59, 135, 60, 60, 135, 2, 0.73295
376, 6, wb, attraction, a-b-da, 2, 3, 4, 14, 120, 195, 193, 119, 195, 120, 2, 3.97321
376, 6, wb, attraction, a-b-da, 2, 3, 4, 14, 120, 195, 193, 119, 195, 120, 1, 0.196059
376, 6, wb, attraction, a-b-da, 5, 3, 4, 15, 190, 117, 195, 120, 120, 195, 1, 3.22597
376, 6, wb, attraction, a-b-da, 5, 3, 4, 15, 190, 117, 195, 120, 120, 195, 2, 0.190924
376, 6, wb, catch, NA, 999, 999, 4, 16, 77, 118, 144, 171, 133, 122, 1, 1.21273
376, 6, wb, catch, NA, 999, 999, 4, 16, 77, 118, 144, 171, 133, 122, 2, 0.370933
376, 6, wb, filler, NA, 999, 999, 4, 17, 151, 175, 105, 62, 118, 95, 2, 0.810312
376, 6, wb, filler, NA, 999, 999, 4, 17, 151, 175, 105, 62, 118, 95, 1, 0.17651
376, 6, wb, attraction, a-b-da, 9, 2, 4, 18, 165, 90, 157, 86, 90, 165, 1, 1.11114
376, 6, wb, attraction, a-b-da, 9, 2, 4, 18, 165, 90, 157, 86, 90, 165, 2, 0.57742
376, 6, wb, attraction, a-b-da, 2, 2, 4, 19, 165, 90, 163, 89, 90, 165, 1, 0.959862
376, 6, wb, attraction, a-b-da, 2, 2, 4, 19, 165, 90, 163, 89, 90, 165, 2, 0.968106
376, 6, wb, filler, NA, 999, 999, 4, 20, 157, 145, 185, 163, 87, 168, 1, 3.32716
376, 6, wb, filler, NA, 999, 999, 4, 20, 157, 145, 185, 163, 87, 168, 2, 0.832003
376, 6, wb, attraction, a-b-db, 5, 3, 4, 21, 117, 190, 120, 195, 195, 120, 1, 1.70835
376, 6, wb, attraction, a-b-db, 5, 3, 4, 21, 117, 190, 120, 195, 195, 120, 2, 0.846484
376, 6, wb, filler, NA, 999, 999, 4, 22, 98, 184, 57, 129, 148, 183, 2, 1.08217
376, 6, wb, filler, NA, 999, 999, 4, 22, 98, 184, 57, 129, 148, 183, 3, 0.229918
376, 6, wb, filler, NA, 999, 999, 4, 23, 114, 136, 90, 183, 146, 169, 1, 1.01834
376, 6, wb, filler, NA, 999, 999, 4, 23, 114, 136, 90, 183, 146, 169, 3, 0.288757
376, 6, wb, filler, NA, 999, 999, 4, 24, 164, 131, 95, 182, 93, 61, 3, 1.34722
376, 6, wb, filler, NA, 999, 999, 4, 24, 164, 131, 95, 182, 93, 61, 1, 0.652133
376, 6, wb, filler, NA, 999, 999, 4, 25, 130, 167, 115, 141, 194, 120, 2, 28.4161
376, 6, wb, filler, NA, 999, 999, 4, 25, 130, 167, 115, 141, 194, 120, 3, 0.237565
376, 6, wb, attraction, a-b-db, 2, 1, 4, 26, 59, 134, 135, 60, 60, 135, 1, 0.810141
376, 6, wb, attraction, a-b-db, 2, 1, 4, 26, 59, 134, 135, 60, 60, 135, 3, 0.496557
376, 6, wb, attraction, a-b-db, 9, 2, 4, 27, 165, 90, 86, 157, 90, 165, 2, 13.5703
376, 6, wb, attraction, a-b-db, 9, 2, 4, 27, 165, 90, 86, 157, 90, 165, 1, 0.361108
376, 6, wb, filler, NA, 999, 999, 4, 28, 184, 120, 145, 128, 82, 75, 3, 0.637889
376, 6, wb, filler, NA, 999, 999, 4, 28, 184, 120, 145, 128, 82, 75, 1, 0.650929
376, 6, wb, attraction, a-b-da, 14, 1, 4, 29, 60, 135, 135, 60, 125, 56, 3, 0.918731
376, 6, wb, attraction, a-b-da, 14, 1, 4, 29, 60, 135, 135, 60, 125, 56, 2, 0.505103
376, 6, wb, attraction, a-b-db, 9, 1, 4, 30, 135, 60, 57, 129, 60, 135, 2, 1.05881
376, 6, wb, attraction, a-b-db, 9, 1, 4, 30, 135, 60, 57, 129, 60, 135, 3, 0.671175
376, 6, wb, filler, NA, 999, 999, 4, 31, 103, 125, 117, 190, 182, 110, 1, 1.01017
376, 6, wb, filler, NA, 999, 999, 4, 31, 103, 125, 117, 190, 182, 110, 2, 0.592524
376, 6, wb, attraction, a-b-da, 14, 3, 4, 32, 120, 195, 195, 120, 181, 111, 3, 1.03025
376, 6, wb, attraction, a-b-da, 14, 3, 4, 32, 120, 195, 195, 120, 181, 111, 1, 0.596109
376, 6, wb, catch, NA, 999, 999, 4, 33, 125, 130, 131, 184, 129, 66, 3, 1.47369
376, 6, wb, catch, NA, 999, 999, 4, 33, 125, 130, 131, 184, 129, 66, 2, 0.237239
376, 6, wb, attraction, a-b-da, 14, 2, 4, 34, 165, 90, 153, 83, 90, 165, 2, 1.68983
376, 6, wb, attraction, a-b-da, 14, 2, 4, 34, 165, 90, 153, 83, 90, 165, 1, 0.212505
376, 6, wb, filler, NA, 999, 999, 4, 35, 61, 133, 126, 146, 161, 168, 1, 1.06567
376, 6, wb, filler, NA, 999, 999, 4, 35, 61, 133, 126, 146, 161, 168, 3, 0.206097
376, 6, wb, attraction, a-b-db, 2, 2, 4, 36, 89, 163, 90, 165, 165, 90, 2, 2.5792
376, 6, wb, attraction, a-b-db, 2, 2, 4, 36, 89, 163, 90, 165, 165, 90, 3, 1.12247
376, 6, wb, attraction, a-b-da, 9, 3, 4, 37, 195, 120, 120, 195, 186, 114, 1, 2.3313
376, 6, wb, attraction, a-b-da, 9, 3, 4, 37, 195, 120, 120, 195, 186, 114, 3, 1.26865
376, 6, wb, attraction, a-b-da, 2, 3, 5, 1, 195, 120, 120, 195, 193, 119, 2, 27.7661
376, 6, wb, attraction, a-b-da, 2, 3, 5, 1, 195, 120, 120, 195, 193, 119, 3, 0.31803
376, 6, wb, filler, NA, 999, 999, 5, 2, 187, 98, 156, 102, 62, 143, 3, 0.783217
376, 6, wb, filler, NA, 999, 999, 5, 2, 187, 98, 156, 102, 62, 143, 1, 0.782949
376, 6, wb, attraction, a-b-da, 5, 2, 5, 3, 161, 88, 165, 90, 90, 165, 1, 1.01328
376, 6, wb, attraction, a-b-da, 5, 2, 5, 3, 161, 88, 165, 90, 90, 165, 3, 0.419683
376, 6, wb, filler, NA, 999, 999, 5, 4, 83, 96, 117, 168, 164, 95, 1, 0.600797
376, 6, wb, filler, NA, 999, 999, 5, 4, 83, 96, 117, 168, 164, 95, 2, 0.295962
376, 6, wb, attraction, a-b-db, 2, 2, 5, 5, 89, 163, 165, 90, 90, 165, 1, 0.617692
376, 6, wb, attraction, a-b-db, 2, 2, 5, 5, 89, 163, 165, 90, 90, 165, 2, 0.216193
376, 6, wb, filler, NA, 999, 999, 5, 6, 188, 131, 103, 158, 154, 189, 2, 0.685415
376, 6, wb, filler, NA, 999, 999, 5, 6, 188, 131, 103, 158, 154, 189, 3, 0.553158
376, 6, wb, catch, NA, 999, 999, 5, 7, 131, 64, 136, 119, 176, 139, 1, 0.704975
376, 6, wb, catch, NA, 999, 999, 5, 7, 131, 64, 136, 119, 176, 139, 3, 0.299563
376, 6, wb, attraction, a-b-da, 5, 3, 5, 8, 195, 120, 120, 195, 190, 117, 3, 1.68521
376, 6, wb, attraction, a-b-da, 5, 3, 5, 8, 195, 120, 120, 195, 190, 117, 1, 0.304651
376, 6, wb, attraction, a-b-db, 14, 2, 5, 9, 90, 165, 83, 153, 165, 90, 3, 0.746493
376, 6, wb, attraction, a-b-db, 14, 2, 5, 9, 90, 165, 83, 153, 165, 90, 1, 0.603589
376, 6, wb, filler, NA, 999, 999, 5, 10, 193, 143, 63, 110, 126, 89, 2, 0.633353
376, 6, wb, filler, NA, 999, 999, 5, 10, 193, 143, 63, 110, 126, 89, 1, 0.271189
376, 6, wb, filler, NA, 999, 999, 5, 11, 80, 191, 93, 166, 166, 155, 2, 1.03433
376, 6, wb, filler, NA, 999, 999, 5, 11, 80, 191, 93, 166, 166, 155, 3, 0.383963
376, 6, wb, attraction, a-b-da, 2, 1, 5, 12, 134, 59, 60, 135, 135, 60, 1, 1.20644
376, 6, wb, attraction, a-b-da, 2, 1, 5, 12, 134, 59, 60, 135, 135, 60, 3, 0.412706
376, 6, wb, attraction, a-b-db, 5, 2, 5, 13, 88, 161, 90, 165, 165, 90, 1, 1.00191
376, 6, wb, attraction, a-b-db, 5, 2, 5, 13, 88, 161, 90, 165, 165, 90, 2, 0.224896
376, 6, wb, attraction, a-b-da, 14, 3, 5, 14, 195, 120, 120, 195, 181, 111, 1, 0.741387
376, 6, wb, attraction, a-b-da, 14, 3, 5, 14, 195, 120, 120, 195, 181, 111, 2, 0.510489
376, 6, wb, attraction, a-b-db, 9, 1, 5, 15, 60, 135, 135, 60, 57, 129, 3, 0.839647
376, 6, wb, attraction, a-b-db, 9, 1, 5, 15, 60, 135, 135, 60, 57, 129, 2, 1.0526
376, 6, wb, attraction, a-b-db, 9, 2, 5, 16, 90, 165, 165, 90, 86, 157, 1, 0.640222
376, 6, wb, attraction, a-b-db, 9, 2, 5, 16, 90, 165, 165, 90, 86, 157, 2, 3.18147
376, 6, wb, attraction, a-b-da, 5, 1, 5, 17, 60, 135, 135, 60, 132, 58, 3, 1.50901
376, 6, wb, attraction, a-b-da, 5, 1, 5, 17, 60, 135, 135, 60, 132, 58, 2, 0.573198
376, 6, wb, attraction, a-b-db, 9, 3, 5, 18, 120, 195, 114, 186, 195, 120, 1, 0.699491
376, 6, wb, attraction, a-b-db, 9, 3, 5, 18, 120, 195, 114, 186, 195, 120, 2, 0.950722
376, 6, wb, attraction, a-b-da, 9, 1, 5, 19, 129, 57, 135, 60, 60, 135, 1, 6.71837
376, 6, wb, attraction, a-b-da, 9, 1, 5, 19, 129, 57, 135, 60, 60, 135, 2, 0.462789
376, 6, wb, catch, NA, 999, 999, 5, 20, 69, 126, 134, 121, 190, 125, 1, 0.938053
376, 6, wb, catch, NA, 999, 999, 5, 20, 69, 126, 134, 121, 190, 125, 3, 0.378949
376, 6, wb, attraction, a-b-da, 9, 2, 5, 21, 90, 165, 165, 90, 157, 86, 1, 10.1854
376, 6, wb, attraction, a-b-da, 9, 2, 5, 21, 90, 165, 165, 90, 157, 86, 3, 0.822249
376, 6, wb, attraction, a-b-da, 9, 3, 5, 22, 120, 195, 186, 114, 195, 120, 3, 0.88334
376, 6, wb, attraction, a-b-da, 9, 3, 5, 22, 120, 195, 186, 114, 195, 120, 2, 0.326944
376, 6, wb, attraction, a-b-db, 2, 3, 5, 23, 195, 120, 119, 193, 120, 195, 1, 0.807599
376, 6, wb, attraction, a-b-db, 2, 3, 5, 23, 195, 120, 119, 193, 120, 195, 2, 0.741881
376, 6, wb, catch, NA, 999, 999, 5, 24, 132, 183, 120, 75, 145, 110, 2, 0.60553
376, 6, wb, catch, NA, 999, 999, 5, 24, 132, 183, 120, 75, 145, 110, 1, 0.299969
376, 6, wb, attraction, a-b-db, 2, 1, 5, 25, 60, 135, 59, 134, 135, 60, 1, 1.54184
376, 6, wb, attraction, a-b-db, 2, 1, 5, 25, 60, 135, 59, 134, 135, 60, 2, 0.254664
376, 6, wb, attraction, a-b-db, 14, 3, 5, 26, 195, 120, 120, 195, 111, 181, 3, 1.65863
376, 6, wb, attraction, a-b-db, 14, 3, 5, 26, 195, 120, 120, 195, 111, 181, 2, 0.230754
376, 6, wb, attraction, a-b-da, 2, 2, 5, 27, 165, 90, 90, 165, 163, 89, 1, 1.5472
376, 6, wb, attraction, a-b-da, 2, 2, 5, 27, 165, 90, 90, 165, 163, 89, 3, 0.332059
376, 6, wb, attraction, a-b-db, 5, 1, 5, 28, 60, 135, 135, 60, 58, 132, 2, 0.964606
376, 6, wb, attraction, a-b-db, 5, 1, 5, 28, 60, 135, 135, 60, 58, 132, 1, 0.724896
376, 6, wb, attraction, a-b-db, 5, 3, 5, 29, 195, 120, 117, 190, 120, 195, 2, 1.26938
376, 6, wb, attraction, a-b-db, 5, 3, 5, 29, 195, 120, 117, 190, 120, 195, 3, 0.281499
376, 6, wb, filler, NA, 999, 999, 5, 30, 145, 74, 76, 172, 153, 146, 1, 0.867953
376, 6, wb, filler, NA, 999, 999, 5, 30, 145, 74, 76, 172, 153, 146, 3, 0.872385
376, 6, wb, filler, NA, 999, 999, 5, 31, 71, 139, 91, 85, 57, 113, 2, 0.963501
376, 6, wb, filler, NA, 999, 999, 5, 31, 71, 139, 91, 85, 57, 113, 3, 0.779764
376, 6, wb, filler, NA, 999, 999, 5, 32, 145, 71, 125, 94, 109, 168, 1, 1.56208
376, 6, wb, filler, NA, 999, 999, 5, 32, 145, 71, 125, 94, 109, 168, 3, 0.562413
376, 6, wb, attraction, a-b-da, 14, 2, 5, 33, 90, 165, 165, 90, 153, 83, 3, 2.0493
376, 6, wb, attraction, a-b-da, 14, 2, 5, 33, 90, 165, 165, 90, 153, 83, 1, 0.285977
376, 6, wb, filler, NA, 999, 999, 5, 34, 76, 152, 168, 118, 117, 137, 1, 1.02471
376, 6, wb, filler, NA, 999, 999, 5, 34, 76, 152, 168, 118, 117, 137, 3, 0.470145
376, 6, wb, filler, NA, 999, 999, 5, 35, 138, 121, 173, 81, 191, 86, 1, 2.21734
376, 6, wb, filler, NA, 999, 999, 5, 35, 138, 121, 173, 81, 191, 86, 3, 0.287274
376, 6, wb, attraction, a-b-da, 14, 1, 5, 36, 135, 60, 60, 135, 125, 56, 2, 1.42578
376, 6, wb, attraction, a-b-da, 14, 1, 5, 36, 135, 60, 60, 135, 125, 56, 1, 0.271317
376, 6, wb, attraction, a-b-db, 14, 1, 5, 37, 60, 135, 56, 125, 135, 60, 2, 88.3945
376, 6, wb, attraction, a-b-db, 14, 1, 5, 37, 60, 135, 56, 125, 135, 60, 1, 0.36753
376, 6, wb, filler, NA, 999, 999, 6, 1, 75, 70, 99, 130, 88, 84, 1, 0.926754
376, 6, wb, filler, NA, 999, 999, 6, 1, 75, 70, 99, 130, 88, 84, 2, 0.344415
376, 6, wb, attraction, a-b-db, 2, 2, 6, 2, 90, 165, 89, 163, 165, 90, 1, 0.856204
376, 6, wb, attraction, a-b-db, 2, 2, 6, 2, 90, 165, 89, 163, 165, 90, 3, 0.39662
376, 6, wb, catch, NA, 999, 999, 6, 3, 74, 121, 126, 129, 128, 187, 1, 0.754404
376, 6, wb, catch, NA, 999, 999, 6, 3, 74, 121, 126, 129, 128, 187, 3, 0.234883
376, 6, wb, filler, NA, 999, 999, 6, 4, 126, 60, 85, 101, 111, 129, 2, 1.03141
376, 6, wb, filler, NA, 999, 999, 6, 4, 126, 60, 85, 101, 111, 129, 3, 0.541056
376, 6, wb, attraction, a-b-da, 9, 2, 6, 5, 90, 165, 165, 90, 157, 86, 1, 1.35689
376, 6, wb, attraction, a-b-da, 9, 2, 6, 5, 90, 165, 165, 90, 157, 86, 2, 0.700948
376, 6, wb, attraction, a-b-db, 14, 2, 6, 6, 165, 90, 90, 165, 83, 153, 3, 1.15066
376, 6, wb, attraction, a-b-db, 14, 2, 6, 6, 165, 90, 90, 165, 83, 153, 2, 0.335663
376, 6, wb, attraction, a-b-da, 2, 1, 6, 7, 135, 60, 134, 59, 60, 135, 2, 1.27217
376, 6, wb, attraction, a-b-da, 2, 1, 6, 7, 135, 60, 134, 59, 60, 135, 1, 0.195755
376, 6, wb, filler, NA, 999, 999, 6, 8, 98, 153, 63, 145, 135, 99, 2, 1.91357
376, 6, wb, filler, NA, 999, 999, 6, 8, 98, 153, 63, 145, 135, 99, 3, 0.579673
376, 6, wb, filler, NA, 999, 999, 6, 9, 141, 147, 63, 141, 168, 57, 2, 1.23402
376, 6, wb, filler, NA, 999, 999, 6, 9, 141, 147, 63, 141, 168, 57, 1, 0.719693
376, 6, wb, filler, NA, 999, 999, 6, 10, 159, 181, 123, 59, 58, 187, 2, 0.68068
376, 6, wb, filler, NA, 999, 999, 6, 10, 159, 181, 123, 59, 58, 187, 1, 0.244529
376, 6, wb, attraction, a-b-db, 14, 1, 6, 11, 60, 135, 135, 60, 56, 125, 1, 1.66435
376, 6, wb, attraction, a-b-db, 14, 1, 6, 11, 60, 135, 135, 60, 56, 125, 3, 0.260414
376, 6, wb, attraction, a-b-db, 5, 2, 6, 12, 90, 165, 165, 90, 88, 161, 2, 0.991751
376, 6, wb, attraction, a-b-db, 5, 2, 6, 12, 90, 165, 165, 90, 88, 161, 3, 0.28672
376, 6, wb, catch, NA, 999, 999, 6, 13, 126, 69, 159, 96, 189, 126, 1, 0.769143
376, 6, wb, catch, NA, 999, 999, 6, 13, 126, 69, 159, 96, 189, 126, 3, 0.2415
376, 6, wb, attraction, a-b-da, 5, 3, 6, 14, 190, 117, 195, 120, 120, 195, 1, 2.02945
376, 6, wb, attraction, a-b-da, 5, 3, 6, 14, 190, 117, 195, 120, 120, 195, 2, 0.370918
376, 6, wb, attraction, a-b-db, 9, 3, 6, 15, 195, 120, 114, 186, 120, 195, 1, 1.61791
376, 6, wb, attraction, a-b-db, 9, 3, 6, 15, 195, 120, 114, 186, 120, 195, 2, 0.464162
376, 6, wb, attraction, a-b-db, 2, 1, 6, 16, 60, 135, 135, 60, 59, 134, 1, 0.963572
376, 6, wb, attraction, a-b-db, 2, 1, 6, 16, 60, 135, 135, 60, 59, 134, 3, 0.355496
376, 6, wb, filler, NA, 999, 999, 6, 17, 165, 151, 74, 119, 59, 109, 2, 0.867329
376, 6, wb, filler, NA, 999, 999, 6, 17, 165, 151, 74, 119, 59, 109, 1, 0.27971
376, 6, wb, attraction, a-b-da, 5, 2, 6, 18, 165, 90, 161, 88, 90, 165, 2, 1.66625
376, 6, wb, attraction, a-b-da, 5, 2, 6, 18, 165, 90, 161, 88, 90, 165, 3, 0.574392
376, 6, wb, attraction, a-b-db, 2, 3, 6, 19, 119, 193, 120, 195, 195, 120, 1, 2.82083
376, 6, wb, attraction, a-b-db, 2, 3, 6, 19, 119, 193, 120, 195, 195, 120, 2, 0.410589
376, 6, wb, attraction, a-b-da, 9, 1, 6, 20, 135, 60, 60, 135, 129, 57, 2, 1.23972
376, 6, wb, attraction, a-b-da, 9, 1, 6, 20, 135, 60, 60, 135, 129, 57, 1, 0.388649
376, 6, wb, attraction, a-b-db, 9, 2, 6, 21, 90, 165, 165, 90, 86, 157, 1, 1.27508
376, 6, wb, attraction, a-b-db, 9, 2, 6, 21, 90, 165, 165, 90, 86, 157, 2, 0.566704
376, 6, wb, filler, NA, 999, 999, 6, 22, 186, 56, 101, 83, 186, 120, 2, 0.805798
376, 6, wb, filler, NA, 999, 999, 6, 22, 186, 56, 101, 83, 186, 120, 3, 0.580206
376, 6, wb, attraction, a-b-da, 9, 3, 6, 23, 120, 195, 195, 120, 186, 114, 3, 6.21068
376, 6, wb, attraction, a-b-da, 9, 3, 6, 23, 120, 195, 195, 120, 186, 114, 2, 0.655302
376, 6, wb, attraction, a-b-da, 5, 1, 6, 24, 60, 135, 132, 58, 135, 60, 3, 1.69899
376, 6, wb, attraction, a-b-da, 5, 1, 6, 24, 60, 135, 132, 58, 135, 60, 2, 0.573786
376, 6, wb, attraction, a-b-db, 9, 1, 6, 25, 60, 135, 57, 129, 135, 60, 1, 1.30029
376, 6, wb, attraction, a-b-db, 9, 1, 6, 25, 60, 135, 57, 129, 135, 60, 2, 0.431162
376, 6, wb, attraction, a-b-da, 2, 2, 6, 26, 90, 165, 163, 89, 165, 90, 1, 64.0516
376, 6, wb, attraction, a-b-da, 2, 2, 6, 26, 90, 165, 163, 89, 165, 90, 3, 0.525609
376, 6, wb, attraction, a-b-da, 2, 3, 6, 27, 195, 120, 120, 195, 193, 119, 1, 0.885983
376, 6, wb, attraction, a-b-da, 2, 3, 6, 27, 195, 120, 120, 195, 193, 119, 2, 0.449851
376, 6, wb, attraction, a-b-db, 5, 3, 6, 28, 117, 190, 120, 195, 195, 120, 1, 1.17353
376, 6, wb, attraction, a-b-db, 5, 3, 6, 28, 117, 190, 120, 195, 195, 120, 3, 0.717196
376, 6, wb, attraction, a-b-da, 14, 1, 6, 29, 125, 56, 60, 135, 135, 60, 2, 0.702335
376, 6, wb, attraction, a-b-da, 14, 1, 6, 29, 125, 56, 60, 135, 135, 60, 3, 0.649286
376, 6, wb, filler, NA, 999, 999, 6, 30, 58, 152, 193, 72, 84, 71, 3, 0.74895
376, 6, wb, filler, NA, 999, 999, 6, 30, 58, 152, 193, 72, 84, 71, 2, 0.550122
376, 6, wb, filler, NA, 999, 999, 6, 31, 167, 192, 109, 155, 103, 85, 3, 0.701877
376, 6, wb, filler, NA, 999, 999, 6, 31, 167, 192, 109, 155, 103, 85, 1, 0.192883
376, 6, wb, attraction, a-b-da, 14, 2, 6, 32, 90, 165, 165, 90, 153, 83, 3, 0.758911
376, 6, wb, attraction, a-b-da, 14, 2, 6, 32, 90, 165, 165, 90, 153, 83, 2, 0.511282
376, 6, wb, attraction, a-b-da, 14, 3, 6, 33, 195, 120, 120, 195, 181, 111, 3, 0.86441
376, 6, wb, attraction, a-b-da, 14, 3, 6, 33, 195, 120, 120, 195, 181, 111, 2, 0.820717
376, 6, wb, filler, NA, 999, 999, 6, 34, 162, 159, 77, 83, 149, 161, 2, 0.681785
376, 6, wb, filler, NA, 999, 999, 6, 34, 162, 159, 77, 83, 149, 161, 3, 0.421536
376, 6, wb, catch, NA, 999, 999, 6, 35, 75, 120, 179, 136, 112, 143, 1, 0.794698
376, 6, wb, catch, NA, 999, 999, 6, 35, 75, 120, 179, 136, 112, 143, 2, 0.625669
376, 6, wb, attraction, a-b-db, 14, 3, 6, 36, 195, 120, 111, 181, 120, 195, 1, 1.13409
376, 6, wb, attraction, a-b-db, 14, 3, 6, 36, 195, 120, 111, 181, 120, 195, 2, 0.359651
376, 6, wb, attraction, a-b-db, 5, 1, 6, 37, 135, 60, 60, 135, 58, 132, 3, 1.2869
376, 6, wb, attraction, a-b-db, 5, 1, 6, 37, 135, 60, 60, 135, 58, 132, 2, 0.290434
376, 6, wb, attraction, a-b-db, 5, 1, 7, 1, 60, 135, 135, 60, 58, 132, 2, 58.4043
376, 6, wb, attraction, a-b-db, 5, 1, 7, 1, 60, 135, 135, 60, 58, 132, 3, 0.39404
376, 6, wb, filler, NA, 999, 999, 7, 2, 135, 113, 134, 80, 195, 85, 2, 1.42385
376, 6, wb, filler, NA, 999, 999, 7, 2, 135, 113, 134, 80, 195, 85, 1, 0.349327
376, 6, wb, attraction, a-b-da, 2, 2, 7, 3, 163, 89, 90, 165, 165, 90, 1, 1.22919
376, 6, wb, attraction, a-b-da, 2, 2, 7, 3, 163, 89, 90, 165, 165, 90, 3, 0.26675
376, 6, wb, attraction, a-b-da, 2, 1, 7, 4, 134, 59, 60, 135, 135, 60, 2, 0.757965
376, 6, wb, attraction, a-b-da, 2, 1, 7, 4, 134, 59, 60, 135, 135, 60, 3, 0.48638
376, 6, wb, attraction, a-b-db, 9, 3, 7, 5, 114, 186, 195, 120, 120, 195, 1, 1.48882
376, 6, wb, attraction, a-b-db, 9, 3, 7, 5, 114, 186, 195, 120, 120, 195, 2, 0.291699
376, 6, wb, attraction, a-b-db, 14, 3, 7, 6, 111, 181, 120, 195, 195, 120, 1, 1.13353
376, 6, wb, attraction, a-b-db, 14, 3, 7, 6, 111, 181, 120, 195, 195, 120, 3, 0.407121
376, 6, wb, attraction, a-b-da, 9, 3, 7, 7, 120, 195, 195, 120, 186, 114, 1, 1.18047
376, 6, wb, attraction, a-b-da, 9, 3, 7, 7, 120, 195, 195, 120, 186, 114, 2, 0.804015
376, 6, wb, attraction, a-b-da, 14, 1, 7, 8, 125, 56, 60, 135, 135, 60, 1, 1.04957
376, 6, wb, attraction, a-b-da, 14, 1, 7, 8, 125, 56, 60, 135, 135, 60, 3, 0.446654
376, 6, wb, filler, NA, 999, 999, 7, 9, 188, 115, 179, 94, 173, 102, 2, 1.3224
376, 6, wb, filler, NA, 999, 999, 7, 9, 188, 115, 179, 94, 173, 102, 1, 0.252076
376, 6, wb, filler, NA, 999, 999, 7, 10, 81, 186, 144, 82, 81, 185, 2, 0.935862
376, 6, wb, filler, NA, 999, 999, 7, 10, 81, 186, 144, 82, 81, 185, 3, 0.881541
376, 6, wb, filler, NA, 999, 999, 7, 11, 76, 77, 139, 144, 187, 187, 1, 0.651842
376, 6, wb, filler, NA, 999, 999, 7, 11, 76, 77, 139, 144, 187, 187, 3, 0.232947
376, 6, wb, attraction, a-b-da, 5, 3, 7, 12, 190, 117, 195, 120, 120, 195, 1, 17.1334
376, 6, wb, attraction, a-b-da, 5, 3, 7, 12, 190, 117, 195, 120, 120, 195, 3, 0.682258
376, 6, wb, attraction, a-b-da, 14, 3, 7, 13, 181, 111, 120, 195, 195, 120, 1, 81.0366
376, 6, wb, attraction, a-b-da, 14, 3, 7, 13, 181, 111, 120, 195, 195, 120, 2, 0.545789
376, 6, wb, attraction, a-b-da, 5, 1, 7, 14, 132, 58, 135, 60, 60, 135, 3, 1.20949
376, 6, wb, attraction, a-b-da, 5, 1, 7, 14, 132, 58, 135, 60, 60, 135, 1, 0.631855
376, 6, wb, attraction, a-b-db, 9, 1, 7, 15, 135, 60, 57, 129, 60, 135, 2, 1.0203
376, 6, wb, attraction, a-b-db, 9, 1, 7, 15, 135, 60, 57, 129, 60, 135, 3, 0.946609
376, 6, wb, attraction, a-b-db, 2, 1, 7, 16, 60, 135, 135, 60, 59, 134, 3, 1.1382
376, 6, wb, attraction, a-b-db, 2, 1, 7, 16, 60, 135, 135, 60, 59, 134, 1, 0.203135
376, 6, wb, catch, NA, 999, 999, 7, 17, 98, 157, 124, 191, 131, 64, 3, 0.697036
376, 6, wb, catch, NA, 999, 999, 7, 17, 98, 157, 124, 191, 131, 64, 2, 0.268267
376, 6, wb, attraction, a-b-da, 9, 1, 7, 18, 60, 135, 129, 57, 135, 60, 1, 0.623306
376, 6, wb, attraction, a-b-da, 9, 1, 7, 18, 60, 135, 129, 57, 135, 60, 3, 0.277147
376, 6, wb, attraction, a-b-db, 2, 2, 7, 19, 165, 90, 90, 165, 89, 163, 2, 1.82363
376, 6, wb, attraction, a-b-db, 2, 2, 7, 19, 165, 90, 90, 165, 89, 163, 1, 0.205032
376, 6, wb, attraction, a-b-da, 5, 2, 7, 20, 90, 165, 161, 88, 165, 90, 3, 1.69888
376, 6, wb, attraction, a-b-da, 5, 2, 7, 20, 90, 165, 161, 88, 165, 90, 1, 0.621768
376, 6, wb, catch, NA, 999, 999, 7, 21, 105, 150, 100, 95, 149, 166, 2, 0.506812
376, 6, wb, catch, NA, 999, 999, 7, 21, 105, 150, 100, 95, 149, 166, 3, 0.237278
376, 6, wb, filler, NA, 999, 999, 7, 22, 181, 86, 75, 69, 64, 96, 2, 0.513786
376, 6, wb, filler, NA, 999, 999, 7, 22, 181, 86, 75, 69, 64, 96, 1, 0.212253
376, 6, wb, attraction, a-b-db, 2, 3, 7, 23, 120, 195, 195, 120, 119, 193, 3, 1.17745
376, 6, wb, attraction, a-b-db, 2, 3, 7, 23, 120, 195, 195, 120, 119, 193, 1, 0.193043
376, 6, wb, filler, NA, 999, 999, 7, 24, 114, 172, 168, 71, 91, 88, 3, 0.582914
376, 6, wb, filler, NA, 999, 999, 7, 24, 114, 172, 168, 71, 91, 88, 1, 0.382712
376, 6, wb, catch, NA, 999, 999, 7, 25, 99, 156, 126, 189, 72, 123, 3, 0.605304
376, 6, wb, catch, NA, 999, 999, 7, 25, 99, 156, 126, 189, 72, 123, 2, 0.555698
376, 6, wb, attraction, a-b-da, 2, 3, 7, 26, 120, 195, 195, 120, 193, 119, 2, 1.79543
376, 6, wb, attraction, a-b-da, 2, 3, 7, 26, 120, 195, 195, 120, 193, 119, 3, 0.146157
376, 6, wb, filler, NA, 999, 999, 7, 27, 127, 87, 86, 194, 76, 153, 1, 0.810045
376, 6, wb, filler, NA, 999, 999, 7, 27, 127, 87, 86, 194, 76, 153, 2, 0.816441
376, 6, wb, attraction, a-b-da, 9, 2, 7, 28, 165, 90, 90, 165, 157, 86, 3, 1.14149
376, 6, wb, attraction, a-b-da, 9, 2, 7, 28, 165, 90, 90, 165, 157, 86, 2, 0.366555
376, 6, wb, filler, NA, 999, 999, 7, 29, 126, 183, 99, 150, 150, 164, 2, 0.741567
376, 6, wb, filler, NA, 999, 999, 7, 29, 126, 183, 99, 150, 150, 164, 3, 0.316103
376, 6, wb, filler, NA, 999, 999, 7, 30, 135, 128, 109, 178, 140, 79, 3, 1.17588
376, 6, wb, filler, NA, 999, 999, 7, 30, 135, 128, 109, 178, 140, 79, 2, 0.551479
376, 6, wb, filler, NA, 999, 999, 7, 31, 126, 97, 129, 117, 139, 58, 3, 1.53528
376, 6, wb, filler, NA, 999, 999, 7, 31, 126, 97, 129, 117, 139, 58, 2, 0.232738
376, 6, wb, attraction, a-b-db, 5, 3, 7, 32, 117, 190, 195, 120, 120, 195, 1, 0.86926
376, 6, wb, attraction, a-b-db, 5, 3, 7, 32, 117, 190, 195, 120, 120, 195, 3, 0.201669
376, 6, wb, attraction, a-b-db, 9, 2, 7, 33, 165, 90, 90, 165, 86, 157, 1, 1.10353
376, 6, wb, attraction, a-b-db, 9, 2, 7, 33, 165, 90, 90, 165, 86, 157, 3, 0.210483
376, 6, wb, attraction, a-b-db, 14, 2, 7, 34, 90, 165, 83, 153, 165, 90, 1, 1.46368
376, 6, wb, attraction, a-b-db, 14, 2, 7, 34, 90, 165, 83, 153, 165, 90, 2, 0.251888
376, 6, wb, attraction, a-b-da, 14, 2, 7, 35, 153, 83, 90, 165, 165, 90, 1, 1.15975
376, 6, wb, attraction, a-b-da, 14, 2, 7, 35, 153, 83, 90, 165, 165, 90, 2, 0.255972
376, 6, wb, attraction, a-b-db, 5, 2, 7, 36, 88, 161, 165, 90, 90, 165, 2, 1.09926
376, 6, wb, attraction, a-b-db, 5, 2, 7, 36, 88, 161, 165, 90, 90, 165, 3, 0.206218
376, 6, wb, attraction, a-b-db, 14, 1, 7, 37, 56, 125, 135, 60, 60, 135, 2, 0.739446
376, 6, wb, attraction, a-b-db, 14, 1, 7, 37, 56, 125, 135, 60, 60, 135, 3, 0.372575
376, 6, wb, filler, NA, 999, 999, 8, 1, 74, 128, 168, 115, 84, 66, 3, 0.747068
376, 6, wb, filler, NA, 999, 999, 8, 1, 74, 128, 168, 115, 84, 66, 2, 0.556053
376, 6, wb, attraction, a-b-da, 9, 2, 8, 2, 157, 86, 90, 165, 165, 90, 2, 1.74778
376, 6, wb, attraction, a-b-da, 9, 2, 8, 2, 157, 86, 90, 165, 165, 90, 3, 0.260554
376, 6, wb, filler, NA, 999, 999, 8, 3, 88, 64, 154, 88, 112, 192, 1, 0.583625
376, 6, wb, filler, NA, 999, 999, 8, 3, 88, 64, 154, 88, 112, 192, 3, 0.215572
376, 6, wb, attraction, a-b-db, 14, 3, 8, 4, 195, 120, 120, 195, 111, 181, 3, 1.24475
376, 6, wb, attraction, a-b-db, 14, 3, 8, 4, 195, 120, 120, 195, 111, 181, 1, 0.241623
376, 6, wb, attraction, a-b-db, 5, 2, 8, 5, 90, 165, 165, 90, 88, 161, 2, 1.0775
376, 6, wb, attraction, a-b-db, 5, 2, 8, 5, 90, 165, 165, 90, 88, 161, 3, 0.193143
376, 6, wb, attraction, a-b-da, 2, 3, 8, 6, 195, 120, 193, 119, 120, 195, 2, 2.15905
376, 6, wb, attraction, a-b-da, 2, 3, 8, 6, 195, 120, 193, 119, 120, 195, 1, 0.310942
376, 6, wb, attraction, a-b-db, 2, 3, 8, 7, 120, 195, 195, 120, 119, 193, 3, 69.3122
376, 6, wb, attraction, a-b-db, 2, 3, 8, 7, 120, 195, 195, 120, 119, 193, 1, 0.285841
376, 6, wb, attraction, a-b-da, 9, 3, 8, 8, 120, 195, 186, 114, 195, 120, 2, 1.29631
376, 6, wb, attraction, a-b-da, 9, 3, 8, 8, 120, 195, 186, 114, 195, 120, 3, 0.18737
376, 6, wb, attraction, a-b-da, 2, 1, 8, 9, 60, 135, 135, 60, 134, 59, 2, 1.20178
376, 6, wb, attraction, a-b-da, 2, 1, 8, 9, 60, 135, 135, 60, 134, 59, 3, 0.216741
376, 6, wb, filler, NA, 999, 999, 8, 10, 66, 95, 63, 90, 106, 194, 2, 1.30997
376, 6, wb, filler, NA, 999, 999, 8, 10, 66, 95, 63, 90, 106, 194, 3, 0.200158
376, 6, wb, attraction, a-b-db, 9, 2, 8, 11, 86, 157, 165, 90, 90, 165, 2, 3.24608
376, 6, wb, attraction, a-b-db, 9, 2, 8, 11, 86, 157, 165, 90, 90, 165, 3, 0.298382
376, 6, wb, attraction, a-b-db, 9, 3, 8, 12, 120, 195, 195, 120, 114, 186, 1, 1.61225
376, 6, wb, attraction, a-b-db, 9, 3, 8, 12, 120, 195, 195, 120, 114, 186, 3, 0.474329
376, 6, wb, attraction, a-b-da, 2, 2, 8, 13, 165, 90, 90, 165, 163, 89, 2, 1.35675
376, 6, wb, attraction, a-b-da, 2, 2, 8, 13, 165, 90, 90, 165, 163, 89, 3, 0.405013
376, 6, wb, filler, NA, 999, 999, 8, 14, 110, 175, 116, 159, 189, 159, 1, 32.7308
376, 6, wb, filler, NA, 999, 999, 8, 14, 110, 175, 116, 159, 189, 159, 3, 0.346537
376, 6, wb, filler, NA, 999, 999, 8, 15, 90, 90, 181, 142, 81, 188, 1, 0.578366
376, 6, wb, filler, NA, 999, 999, 8, 15, 90, 90, 181, 142, 81, 188, 2, 0.306114
376, 6, wb, attraction, a-b-db, 2, 1, 8, 16, 59, 134, 60, 135, 135, 60, 2, 1.56338
376, 6, wb, attraction, a-b-db, 2, 1, 8, 16, 59, 134, 60, 135, 135, 60, 3, 0.243531
376, 6, wb, filler, NA, 999, 999, 8, 17, 183, 190, 133, 133, 178, 147, 2, 0.815355
376, 6, wb, filler, NA, 999, 999, 8, 17, 183, 190, 133, 133, 178, 147, 1, 0.237716
376, 6, wb, filler, NA, 999, 999, 8, 18, 165, 159, 139, 180, 158, 147, 3, 2.72237
376, 6, wb, filler, NA, 999, 999, 8, 18, 165, 159, 139, 180, 158, 147, 2, 0.219404
376, 6, wb, attraction, a-b-da, 5, 3, 8, 19, 190, 117, 120, 195, 195, 120, 1, 1.2166
376, 6, wb, attraction, a-b-da, 5, 3, 8, 19, 190, 117, 120, 195, 195, 120, 3, 0.310888
376, 6, wb, catch, NA, 999, 999, 8, 20, 143, 112, 67, 128, 175, 140, 2, 0.688061
376, 6, wb, catch, NA, 999, 999, 8, 20, 143, 112, 67, 128, 175, 140, 3, 0.219171
376, 6, wb, attraction, a-b-db, 5, 3, 8, 21, 117, 190, 195, 120, 120, 195, 1, 1.11235
376, 6, wb, attraction, a-b-db, 5, 3, 8, 21, 117, 190, 195, 120, 120, 195, 3, 0.22664
376, 6, wb, attraction, a-b-db, 2, 2, 8, 22, 89, 163, 90, 165, 165, 90, 1, 1.14314
376, 6, wb, attraction, a-b-db, 2, 2, 8, 22, 89, 163, 90, 165, 165, 90, 2, 0.952065
376, 6, wb, attraction, a-b-da, 14, 3, 8, 23, 181, 111, 120, 195, 195, 120, 1, 1.59185
376, 6, wb, attraction, a-b-da, 14, 3, 8, 23, 181, 111, 120, 195, 195, 120, 3, 0.270614
376, 6, wb, attraction, a-b-db, 14, 2, 8, 24, 83, 153, 90, 165, 165, 90, 1, 0.753685
376, 6, wb, attraction, a-b-db, 14, 2, 8, 24, 83, 153, 90, 165, 165, 90, 2, 0.17883
376, 6, wb, filler, NA, 999, 999, 8, 25, 69, 145, 190, 123, 66, 190, 1, 1.09739
376, 6, wb, filler, NA, 999, 999, 8, 25, 69, 145, 190, 123, 66, 190, 2, 0.156317
376, 6, wb, attraction, a-b-da, 5, 1, 8, 26, 132, 58, 60, 135, 135, 60, 3, 3.55563
376, 6, wb, attraction, a-b-da, 5, 1, 8, 26, 132, 58, 60, 135, 135, 60, 1, 0.267126
376, 6, wb, attraction, a-b-db, 9, 1, 8, 27, 57, 129, 135, 60, 60, 135, 1, 1.84634
376, 6, wb, attraction, a-b-db, 9, 1, 8, 27, 57, 129, 135, 60, 60, 135, 3, 0.178975
376, 6, wb, attraction, a-b-da, 14, 2, 8, 28, 90, 165, 153, 83, 165, 90, 2, 2.23358
376, 6, wb, attraction, a-b-da, 14, 2, 8, 28, 90, 165, 153, 83, 165, 90, 1, 0.174839
376, 6, wb, attraction, a-b-da, 9, 1, 8, 29, 129, 57, 135, 60, 60, 135, 2, 19.2614
376, 6, wb, attraction, a-b-da, 9, 1, 8, 29, 129, 57, 135, 60, 60, 135, 1, 0.276095
376, 6, wb, catch, NA, 999, 999, 8, 30, 96, 99, 96, 159, 128, 187, 1, 0.73459
376, 6, wb, catch, NA, 999, 999, 8, 30, 96, 99, 96, 159, 128, 187, 3, 0.248342
376, 6, wb, filler, NA, 999, 999, 8, 31, 64, 125, 137, 193, 76, 192, 1, 2.66834
376, 6, wb, filler, NA, 999, 999, 8, 31, 64, 125, 137, 193, 76, 192, 2, 0.30408
376, 6, wb, attraction, a-b-db, 5, 1, 8, 32, 135, 60, 58, 132, 60, 135, 1, 1.66576
376, 6, wb, attraction, a-b-db, 5, 1, 8, 32, 135, 60, 58, 132, 60, 135, 2, 0.40606
376, 6, wb, attraction, a-b-da, 5, 2, 8, 33, 161, 88, 90, 165, 165, 90, 2, 1.29909
376, 6, wb, attraction, a-b-da, 5, 2, 8, 33, 161, 88, 90, 165, 165, 90, 3, 0.51798
376, 6, wb, attraction, a-b-da, 14, 1, 8, 34, 125, 56, 60, 135, 135, 60, 1, 1.62314
376, 6, wb, attraction, a-b-da, 14, 1, 8, 34, 125, 56, 60, 135, 135, 60, 3, 0.556529
376, 6, wb, catch, NA, 999, 999, 8, 35, 128, 187, 147, 108, 80, 115, 3, 0.867648
376, 6, wb, catch, NA, 999, 999, 8, 35, 128, 187, 147, 108, 80, 115, 1, 0.303993
376, 6, wb, filler, NA, 999, 999, 8, 36, 174, 76, 94, 141, 77, 56, 3, 0.801925
376, 6, wb, filler, NA, 999, 999, 8, 36, 174, 76, 94, 141, 77, 56, 2, 0.376895
376, 6, wb, attraction, a-b-db, 14, 1, 8, 37, 56, 125, 135, 60, 60, 135, 1, 0.96883
376, 6, wb, attraction, a-b-db, 14, 1, 8, 37, 56, 125, 135, 60, 60, 135, 3, 0.343111
