sub_n, computer_n, bw_cond, effect, set, distance, diag, block_n, trial_n, h1, w1, h2, w2, h3, w3, choice, rt 
388, 6, wb, practice, NA, 999, 999, 0, 1, 84, 145, 86, 113, 104, 77, 3, 4.69176
388, 6, wb, practice, NA, 999, 999, 0, 1, 84, 145, 86, 113, 104, 77, 1, 2.29389
388, 6, wb, practice, NA, 999, 999, 0, 2, 166, 190, 172, 92, 140, 124, 3, 5.43512
388, 6, wb, practice, NA, 999, 999, 0, 2, 166, 190, 172, 92, 140, 124, 1, 1.38444
388, 6, wb, practice, NA, 999, 999, 0, 3, 95, 191, 107, 88, 164, 109, 2, 2.72383
388, 6, wb, practice, NA, 999, 999, 0, 3, 95, 191, 107, 88, 164, 109, 3, 2.40648
388, 6, wb, attraction, a-b-db, 5, 2, 1, 1, 90, 165, 88, 161, 165, 90, 1, 4.11841
388, 6, wb, attraction, a-b-db, 5, 2, 1, 1, 90, 165, 88, 161, 165, 90, 3, 3.56781
388, 6, wb, attraction, a-b-da, 5, 1, 1, 2, 135, 60, 60, 135, 132, 58, 3, 7.82995
388, 6, wb, attraction, a-b-da, 5, 1, 1, 2, 135, 60, 60, 135, 132, 58, 1, 1.33743
388, 6, wb, filler, NA, 999, 999, 1, 3, 173, 146, 170, 56, 124, 91, 2, 7.48163
388, 6, wb, filler, NA, 999, 999, 1, 3, 173, 146, 170, 56, 124, 91, 1, 0.635321
388, 6, wb, filler, NA, 999, 999, 1, 4, 68, 139, 185, 194, 107, 106, 1, 6.10363
388, 6, wb, filler, NA, 999, 999, 1, 4, 68, 139, 185, 194, 107, 106, 2, 0.7931
388, 6, wb, filler, NA, 999, 999, 1, 5, 182, 130, 95, 94, 189, 155, 2, 1.99882
388, 6, wb, filler, NA, 999, 999, 1, 5, 182, 130, 95, 94, 189, 155, 3, 1.1495
388, 6, wb, filler, NA, 999, 999, 1, 6, 100, 181, 169, 113, 107, 73, 3, 1.42111
388, 6, wb, filler, NA, 999, 999, 1, 6, 100, 181, 169, 113, 107, 73, 2, 0.810594
388, 6, wb, attraction, a-b-da, 9, 3, 1, 7, 120, 195, 195, 120, 186, 114, 1, 4.02373
388, 6, wb, attraction, a-b-da, 9, 3, 1, 7, 120, 195, 195, 120, 186, 114, 3, 1.15643
388, 6, wb, attraction, a-b-db, 2, 3, 1, 8, 119, 193, 120, 195, 195, 120, 2, 5.66721
388, 6, wb, attraction, a-b-db, 2, 3, 1, 8, 119, 193, 120, 195, 195, 120, 1, 0.766089
388, 6, wb, attraction, a-b-db, 2, 2, 1, 9, 89, 163, 90, 165, 165, 90, 1, 30.3011
388, 6, wb, attraction, a-b-db, 2, 2, 1, 9, 89, 163, 90, 165, 165, 90, 3, 0.807021
388, 6, wb, filler, NA, 999, 999, 1, 10, 130, 139, 169, 59, 151, 176, 2, 3.40457
388, 6, wb, filler, NA, 999, 999, 1, 10, 130, 139, 169, 59, 151, 176, 3, 0.657634
388, 6, wb, filler, NA, 999, 999, 1, 11, 60, 188, 132, 111, 74, 195, 1, 3.54866
388, 6, wb, filler, NA, 999, 999, 1, 11, 60, 188, 132, 111, 74, 195, 3, 0.668853
388, 6, wb, catch, NA, 999, 999, 1, 12, 116, 139, 112, 83, 128, 187, 2, 1.04801
388, 6, wb, catch, NA, 999, 999, 1, 12, 116, 139, 112, 83, 128, 187, 3, 0.356927
388, 6, wb, attraction, a-b-da, 14, 2, 1, 13, 90, 165, 153, 83, 165, 90, 2, 23.628
388, 6, wb, attraction, a-b-da, 14, 2, 1, 13, 90, 165, 153, 83, 165, 90, 3, 0.570662
388, 6, wb, attraction, a-b-da, 14, 3, 1, 14, 120, 195, 181, 111, 195, 120, 2, 4.39382
388, 6, wb, attraction, a-b-da, 14, 3, 1, 14, 120, 195, 181, 111, 195, 120, 3, 0.56765
388, 6, wb, attraction, a-b-db, 14, 1, 1, 15, 60, 135, 56, 125, 135, 60, 2, 25.7749
388, 6, wb, attraction, a-b-db, 14, 1, 1, 15, 60, 135, 56, 125, 135, 60, 3, 4.78342
388, 6, wb, filler, NA, 999, 999, 1, 16, 74, 172, 59, 169, 162, 103, 2, 10.3084
388, 6, wb, filler, NA, 999, 999, 1, 16, 74, 172, 59, 169, 162, 103, 3, 0.707921
388, 6, wb, attraction, a-b-db, 14, 3, 1, 17, 195, 120, 120, 195, 111, 181, 3, 3.38108
388, 6, wb, attraction, a-b-db, 14, 3, 1, 17, 195, 120, 120, 195, 111, 181, 1, 2.62781
388, 6, wb, filler, NA, 999, 999, 1, 18, 190, 77, 119, 156, 172, 170, 1, 2.3837
388, 6, wb, filler, NA, 999, 999, 1, 18, 190, 77, 119, 156, 172, 170, 3, 0.54296
388, 6, wb, attraction, a-b-da, 5, 2, 1, 19, 161, 88, 90, 165, 165, 90, 2, 9.5587
388, 6, wb, attraction, a-b-da, 5, 2, 1, 19, 161, 88, 90, 165, 165, 90, 3, 0.292293
388, 6, wb, filler, NA, 999, 999, 1, 20, 146, 90, 123, 94, 96, 71, 3, 2.24631
388, 6, wb, filler, NA, 999, 999, 1, 20, 146, 90, 123, 94, 96, 71, 1, 0.994848
388, 6, wb, attraction, a-b-da, 2, 1, 1, 21, 134, 59, 135, 60, 60, 135, 2, 18.1763
388, 6, wb, attraction, a-b-da, 2, 1, 1, 21, 134, 59, 135, 60, 60, 135, 3, 0.619364
388, 6, wb, attraction, a-b-db, 5, 1, 1, 22, 58, 132, 135, 60, 60, 135, 1, 1.61651
388, 6, wb, attraction, a-b-db, 5, 1, 1, 22, 58, 132, 135, 60, 60, 135, 3, 0.854618
388, 6, wb, catch, NA, 999, 999, 1, 23, 118, 137, 128, 67, 133, 182, 2, 1.32222
388, 6, wb, catch, NA, 999, 999, 1, 23, 118, 137, 128, 67, 133, 182, 3, 0.371778
388, 6, wb, attraction, a-b-da, 2, 3, 1, 24, 195, 120, 120, 195, 193, 119, 1, 17.915
388, 6, wb, attraction, a-b-da, 2, 3, 1, 24, 195, 120, 120, 195, 193, 119, 2, 0.688023
388, 6, wb, attraction, a-b-db, 5, 3, 1, 25, 195, 120, 117, 190, 120, 195, 3, 4.46637
388, 6, wb, attraction, a-b-db, 5, 3, 1, 25, 195, 120, 117, 190, 120, 195, 1, 0.45359
388, 6, wb, attraction, a-b-da, 2, 2, 1, 26, 165, 90, 90, 165, 163, 89, 2, 3.64947
388, 6, wb, attraction, a-b-da, 2, 2, 1, 26, 165, 90, 90, 165, 163, 89, 1, 0.477627
388, 6, wb, attraction, a-b-db, 2, 1, 1, 27, 59, 134, 135, 60, 60, 135, 2, 2.50414
388, 6, wb, attraction, a-b-db, 2, 1, 1, 27, 59, 134, 135, 60, 60, 135, 3, 1.0667
388, 6, wb, filler, NA, 999, 999, 1, 28, 120, 160, 181, 170, 70, 176, 3, 1.62955
388, 6, wb, filler, NA, 999, 999, 1, 28, 120, 160, 181, 170, 70, 176, 2, 0.763033
388, 6, wb, attraction, a-b-db, 9, 3, 1, 29, 195, 120, 120, 195, 114, 186, 3, 27.2501
388, 6, wb, attraction, a-b-db, 9, 3, 1, 29, 195, 120, 120, 195, 114, 186, 2, 3.2868
388, 6, wb, catch, NA, 999, 999, 1, 30, 194, 121, 118, 77, 165, 90, 2, 1.17643
388, 6, wb, catch, NA, 999, 999, 1, 30, 194, 121, 118, 77, 165, 90, 1, 0.336051
388, 6, wb, attraction, a-b-db, 9, 1, 1, 31, 135, 60, 57, 129, 60, 135, 1, 2.00061
388, 6, wb, attraction, a-b-db, 9, 1, 1, 31, 135, 60, 57, 129, 60, 135, 2, 0.391212
388, 6, wb, attraction, a-b-da, 9, 1, 1, 32, 60, 135, 129, 57, 135, 60, 1, 5.18901
388, 6, wb, attraction, a-b-da, 9, 1, 1, 32, 60, 135, 129, 57, 135, 60, 3, 0.946895
388, 6, wb, attraction, a-b-db, 9, 2, 1, 33, 86, 157, 90, 165, 165, 90, 1, 3.35428
388, 6, wb, attraction, a-b-db, 9, 2, 1, 33, 86, 157, 90, 165, 165, 90, 2, 0.858068
388, 6, wb, attraction, a-b-da, 14, 1, 1, 34, 135, 60, 60, 135, 125, 56, 3, 10.4691
388, 6, wb, attraction, a-b-da, 14, 1, 1, 34, 135, 60, 60, 135, 125, 56, 1, 0.614332
388, 6, wb, attraction, a-b-da, 9, 2, 1, 35, 165, 90, 157, 86, 90, 165, 2, 18.1875
388, 6, wb, attraction, a-b-da, 9, 2, 1, 35, 165, 90, 157, 86, 90, 165, 1, 1.04583
388, 6, wb, attraction, a-b-da, 5, 3, 1, 36, 195, 120, 190, 117, 120, 195, 3, 3.92131
388, 6, wb, attraction, a-b-da, 5, 3, 1, 36, 195, 120, 190, 117, 120, 195, 1, 11.2582
388, 6, wb, attraction, a-b-db, 14, 2, 1, 37, 165, 90, 83, 153, 90, 165, 2, 4.92253
388, 6, wb, attraction, a-b-db, 14, 2, 1, 37, 165, 90, 83, 153, 90, 165, 1, 1.85092
388, 6, wb, attraction, a-b-da, 14, 2, 2, 1, 90, 165, 165, 90, 153, 83, 2, 43.6543
388, 6, wb, attraction, a-b-da, 14, 2, 2, 1, 90, 165, 165, 90, 153, 83, 3, 5.90996
388, 6, wb, filler, NA, 999, 999, 2, 2, 190, 75, 84, 132, 187, 128, 2, 1.34138
388, 6, wb, filler, NA, 999, 999, 2, 2, 190, 75, 84, 132, 187, 128, 3, 0.358269
388, 6, wb, attraction, a-b-da, 5, 3, 2, 3, 195, 120, 190, 117, 120, 195, 2, 3.40542
388, 6, wb, attraction, a-b-da, 5, 3, 2, 3, 195, 120, 190, 117, 120, 195, 3, 0.323053
388, 6, wb, attraction, a-b-db, 14, 1, 2, 4, 56, 125, 60, 135, 135, 60, 1, 2.2196
388, 6, wb, attraction, a-b-db, 14, 1, 2, 4, 56, 125, 60, 135, 135, 60, 3, 0.689478
388, 6, wb, filler, NA, 999, 999, 2, 5, 107, 64, 71, 132, 175, 195, 1, 1.3952
388, 6, wb, filler, NA, 999, 999, 2, 5, 107, 64, 71, 132, 175, 195, 3, 0.370051
388, 6, wb, attraction, a-b-db, 2, 2, 2, 6, 165, 90, 90, 165, 89, 163, 2, 6.25719
388, 6, wb, attraction, a-b-db, 2, 2, 2, 6, 165, 90, 90, 165, 89, 163, 1, 1.02007
388, 6, wb, attraction, a-b-da, 9, 3, 2, 7, 195, 120, 120, 195, 186, 114, 2, 6.18489
388, 6, wb, attraction, a-b-da, 9, 3, 2, 7, 195, 120, 120, 195, 186, 114, 1, 0.478955
388, 6, wb, catch, NA, 999, 999, 2, 8, 159, 156, 82, 113, 91, 164, 2, 0.961354
388, 6, wb, catch, NA, 999, 999, 2, 8, 159, 156, 82, 113, 91, 164, 1, 0.369665
388, 6, wb, filler, NA, 999, 999, 2, 9, 153, 75, 151, 58, 68, 129, 3, 5.04882
388, 6, wb, filler, NA, 999, 999, 2, 9, 153, 75, 151, 58, 68, 129, 1, 0.388534
388, 6, wb, catch, NA, 999, 999, 2, 10, 108, 87, 181, 134, 121, 134, 1, 1.035
388, 6, wb, catch, NA, 999, 999, 2, 10, 108, 87, 181, 134, 121, 134, 2, 0.408716
388, 6, wb, filler, NA, 999, 999, 2, 11, 146, 67, 189, 65, 170, 83, 1, 2.95786
388, 6, wb, filler, NA, 999, 999, 2, 11, 146, 67, 189, 65, 170, 83, 3, 1.85359
388, 6, wb, attraction, a-b-da, 2, 1, 2, 12, 134, 59, 60, 135, 135, 60, 2, 67.9049
388, 6, wb, attraction, a-b-da, 2, 1, 2, 12, 134, 59, 60, 135, 135, 60, 3, 2.23972
388, 6, wb, attraction, a-b-db, 14, 3, 2, 13, 195, 120, 111, 181, 120, 195, 2, 1.99564
388, 6, wb, attraction, a-b-db, 14, 3, 2, 13, 195, 120, 111, 181, 120, 195, 3, 2.0983
388, 6, wb, attraction, a-b-da, 2, 3, 2, 14, 193, 119, 195, 120, 120, 195, 3, 4.33968
388, 6, wb, attraction, a-b-da, 2, 3, 2, 14, 193, 119, 195, 120, 120, 195, 1, 0.475533
388, 6, wb, attraction, a-b-da, 5, 2, 2, 15, 165, 90, 90, 165, 161, 88, 2, 1.27798
388, 6, wb, attraction, a-b-da, 5, 2, 2, 15, 165, 90, 90, 165, 161, 88, 1, 1.08165
388, 6, wb, attraction, a-b-db, 9, 1, 2, 16, 57, 129, 135, 60, 60, 135, 1, 1.25983
388, 6, wb, attraction, a-b-db, 9, 1, 2, 16, 57, 129, 135, 60, 60, 135, 3, 0.568314
388, 6, wb, filler, NA, 999, 999, 2, 17, 155, 106, 88, 134, 180, 120, 2, 1.07919
388, 6, wb, filler, NA, 999, 999, 2, 17, 155, 106, 88, 134, 180, 120, 3, 0.298822
388, 6, wb, filler, NA, 999, 999, 2, 18, 66, 67, 103, 169, 148, 158, 1, 0.788789
388, 6, wb, filler, NA, 999, 999, 2, 18, 66, 67, 103, 169, 148, 158, 3, 0.82775
388, 6, wb, attraction, a-b-da, 14, 3, 2, 19, 181, 111, 120, 195, 195, 120, 1, 1.4881
388, 6, wb, attraction, a-b-da, 14, 3, 2, 19, 181, 111, 120, 195, 195, 120, 2, 0.531029
388, 6, wb, attraction, a-b-db, 2, 3, 2, 20, 195, 120, 120, 195, 119, 193, 2, 2.29935
388, 6, wb, attraction, a-b-db, 2, 3, 2, 20, 195, 120, 120, 195, 119, 193, 1, 0.557888
388, 6, wb, attraction, a-b-db, 5, 1, 2, 21, 135, 60, 58, 132, 60, 135, 2, 1.79703
388, 6, wb, attraction, a-b-db, 5, 1, 2, 21, 135, 60, 58, 132, 60, 135, 3, 0.31571
388, 6, wb, attraction, a-b-db, 9, 2, 2, 22, 165, 90, 90, 165, 86, 157, 2, 4.88486
388, 6, wb, attraction, a-b-db, 9, 2, 2, 22, 165, 90, 90, 165, 86, 157, 1, 0.463341
388, 6, wb, attraction, a-b-da, 2, 2, 2, 23, 90, 165, 165, 90, 163, 89, 3, 5.0906
388, 6, wb, attraction, a-b-da, 2, 2, 2, 23, 90, 165, 165, 90, 163, 89, 1, 0.612399
388, 6, wb, filler, NA, 999, 999, 2, 24, 86, 145, 112, 164, 71, 114, 3, 1.12131
388, 6, wb, filler, NA, 999, 999, 2, 24, 86, 145, 112, 164, 71, 114, 2, 0.298903
388, 6, wb, attraction, a-b-db, 14, 2, 2, 25, 90, 165, 83, 153, 165, 90, 2, 2.57273
388, 6, wb, attraction, a-b-db, 14, 2, 2, 25, 90, 165, 83, 153, 165, 90, 3, 0.603952
388, 6, wb, attraction, a-b-db, 5, 2, 2, 26, 90, 165, 88, 161, 165, 90, 1, 1.93765
388, 6, wb, attraction, a-b-db, 5, 2, 2, 26, 90, 165, 88, 161, 165, 90, 3, 0.754381
388, 6, wb, attraction, a-b-db, 2, 1, 2, 27, 60, 135, 135, 60, 59, 134, 1, 2.14611
388, 6, wb, attraction, a-b-db, 2, 1, 2, 27, 60, 135, 135, 60, 59, 134, 3, 0.602838
388, 6, wb, filler, NA, 999, 999, 2, 28, 77, 190, 102, 80, 183, 57, 2, 3.62461
388, 6, wb, filler, NA, 999, 999, 2, 28, 77, 190, 102, 80, 183, 57, 1, 3.03744
388, 6, wb, catch, NA, 999, 999, 2, 29, 157, 158, 128, 127, 77, 118, 3, 0.961116
388, 6, wb, catch, NA, 999, 999, 2, 29, 157, 158, 128, 127, 77, 118, 1, 0.681346
388, 6, wb, filler, NA, 999, 999, 2, 30, 156, 125, 120, 180, 86, 119, 3, 14.0678
388, 6, wb, filler, NA, 999, 999, 2, 30, 156, 125, 120, 180, 86, 119, 2, 2.00398
388, 6, wb, filler, NA, 999, 999, 2, 31, 157, 183, 66, 150, 144, 107, 2, 1.70535
388, 6, wb, filler, NA, 999, 999, 2, 31, 157, 183, 66, 150, 144, 107, 1, 0.459519
388, 6, wb, attraction, a-b-db, 9, 3, 2, 32, 120, 195, 195, 120, 114, 186, 3, 1.60656
388, 6, wb, attraction, a-b-db, 9, 3, 2, 32, 120, 195, 195, 120, 114, 186, 2, 0.508798
388, 6, wb, attraction, a-b-da, 5, 1, 2, 33, 135, 60, 60, 135, 132, 58, 3, 2.06176
388, 6, wb, attraction, a-b-da, 5, 1, 2, 33, 135, 60, 60, 135, 132, 58, 1, 2.34581
388, 6, wb, attraction, a-b-db, 5, 3, 2, 34, 117, 190, 120, 195, 195, 120, 2, 6.38498
388, 6, wb, attraction, a-b-db, 5, 3, 2, 34, 117, 190, 120, 195, 195, 120, 1, 0.654947
388, 6, wb, attraction, a-b-da, 9, 2, 2, 35, 157, 86, 165, 90, 90, 165, 3, 3.42674
388, 6, wb, attraction, a-b-da, 9, 2, 2, 35, 157, 86, 165, 90, 90, 165, 2, 0.503642
388, 6, wb, attraction, a-b-da, 9, 1, 2, 36, 60, 135, 135, 60, 129, 57, 1, 0.9054
388, 6, wb, attraction, a-b-da, 9, 1, 2, 36, 60, 135, 135, 60, 129, 57, 2, 0.3399
388, 6, wb, attraction, a-b-da, 14, 1, 2, 37, 125, 56, 60, 135, 135, 60, 1, 0.987605
388, 6, wb, attraction, a-b-da, 14, 1, 2, 37, 125, 56, 60, 135, 135, 60, 3, 0.754564
388, 6, wb, catch, NA, 999, 999, 3, 1, 178, 137, 83, 112, 94, 161, 2, 0.778255
388, 6, wb, catch, NA, 999, 999, 3, 1, 178, 137, 83, 112, 94, 161, 1, 0.322093
388, 6, wb, filler, NA, 999, 999, 3, 2, 132, 153, 65, 65, 132, 103, 2, 0.755188
388, 6, wb, filler, NA, 999, 999, 3, 2, 132, 153, 65, 65, 132, 103, 1, 0.347611
388, 6, wb, attraction, a-b-da, 9, 2, 3, 3, 165, 90, 157, 86, 90, 165, 1, 2.66741
388, 6, wb, attraction, a-b-da, 9, 2, 3, 3, 165, 90, 157, 86, 90, 165, 3, 0.503288
388, 6, wb, attraction, a-b-da, 9, 1, 3, 4, 129, 57, 60, 135, 135, 60, 2, 1.00907
388, 6, wb, attraction, a-b-da, 9, 1, 3, 4, 129, 57, 60, 135, 135, 60, 3, 0.519402
388, 6, wb, attraction, a-b-da, 2, 1, 3, 5, 135, 60, 134, 59, 60, 135, 3, 1.35239
388, 6, wb, attraction, a-b-da, 2, 1, 3, 5, 135, 60, 134, 59, 60, 135, 1, 0.657331
388, 6, wb, filler, NA, 999, 999, 3, 6, 94, 157, 177, 137, 171, 146, 1, 4.4364
388, 6, wb, filler, NA, 999, 999, 3, 6, 94, 157, 177, 137, 171, 146, 3, 0.529002
388, 6, wb, attraction, a-b-da, 14, 1, 3, 7, 60, 135, 125, 56, 135, 60, 2, 0.873399
388, 6, wb, attraction, a-b-da, 14, 1, 3, 7, 60, 135, 125, 56, 135, 60, 3, 0.661141
388, 6, wb, attraction, a-b-db, 2, 2, 3, 8, 165, 90, 90, 165, 89, 163, 2, 9.96019
388, 6, wb, attraction, a-b-db, 2, 2, 3, 8, 165, 90, 90, 165, 89, 163, 1, 0.397692
388, 6, wb, filler, NA, 999, 999, 3, 9, 157, 107, 163, 156, 134, 154, 3, 1.17165
388, 6, wb, filler, NA, 999, 999, 3, 9, 157, 107, 163, 156, 134, 154, 2, 0.283125
388, 6, wb, attraction, a-b-db, 9, 1, 3, 10, 57, 129, 135, 60, 60, 135, 1, 11.1017
388, 6, wb, attraction, a-b-db, 9, 1, 3, 10, 57, 129, 135, 60, 60, 135, 3, 4.7895
388, 6, wb, attraction, a-b-db, 9, 3, 3, 11, 195, 120, 114, 186, 120, 195, 2, 2.97068
388, 6, wb, attraction, a-b-db, 9, 3, 3, 11, 195, 120, 114, 186, 120, 195, 1, 0.418375
388, 6, wb, attraction, a-b-da, 14, 2, 3, 12, 165, 90, 153, 83, 90, 165, 2, 1.74355
388, 6, wb, attraction, a-b-da, 14, 2, 3, 12, 165, 90, 153, 83, 90, 165, 1, 0.792189
388, 6, wb, attraction, a-b-da, 9, 3, 3, 13, 195, 120, 120, 195, 186, 114, 3, 2.30196
388, 6, wb, attraction, a-b-da, 9, 3, 3, 13, 195, 120, 120, 195, 186, 114, 1, 1.27258
388, 6, wb, filler, NA, 999, 999, 3, 14, 138, 92, 87, 178, 163, 153, 1, 1.2754
388, 6, wb, filler, NA, 999, 999, 3, 14, 138, 92, 87, 178, 163, 153, 3, 0.390984
388, 6, wb, filler, NA, 999, 999, 3, 15, 105, 113, 98, 175, 120, 183, 1, 1.04493
388, 6, wb, filler, NA, 999, 999, 3, 15, 105, 113, 98, 175, 120, 183, 3, 0.513884
388, 6, wb, attraction, a-b-da, 2, 3, 3, 16, 120, 195, 195, 120, 193, 119, 1, 3.01891
388, 6, wb, attraction, a-b-da, 2, 3, 3, 16, 120, 195, 195, 120, 193, 119, 2, 0.352624
388, 6, wb, filler, NA, 999, 999, 3, 17, 190, 154, 87, 139, 179, 61, 2, 0.880368
388, 6, wb, filler, NA, 999, 999, 3, 17, 190, 154, 87, 139, 179, 61, 1, 0.316096
388, 6, wb, attraction, a-b-da, 2, 2, 3, 18, 163, 89, 90, 165, 165, 90, 2, 1.44538
388, 6, wb, attraction, a-b-da, 2, 2, 3, 18, 163, 89, 90, 165, 165, 90, 1, 2.45823
388, 6, wb, attraction, a-b-db, 5, 3, 3, 19, 120, 195, 117, 190, 195, 120, 1, 1.49268
388, 6, wb, attraction, a-b-db, 5, 3, 3, 19, 120, 195, 117, 190, 195, 120, 3, 4.91156
388, 6, wb, filler, NA, 999, 999, 3, 20, 57, 83, 163, 101, 178, 121, 1, 0.767245
388, 6, wb, filler, NA, 999, 999, 3, 20, 57, 83, 163, 101, 178, 121, 3, 0.567674
388, 6, wb, attraction, a-b-da, 5, 2, 3, 21, 165, 90, 90, 165, 161, 88, 3, 3.01472
388, 6, wb, attraction, a-b-da, 5, 2, 3, 21, 165, 90, 90, 165, 161, 88, 2, 0.428427
388, 6, wb, filler, NA, 999, 999, 3, 22, 147, 75, 178, 186, 132, 184, 1, 0.73695
388, 6, wb, filler, NA, 999, 999, 3, 22, 147, 75, 178, 186, 132, 184, 2, 0.626088
388, 6, wb, catch, NA, 999, 999, 3, 23, 65, 130, 109, 146, 141, 174, 1, 0.782343
388, 6, wb, catch, NA, 999, 999, 3, 23, 65, 130, 109, 146, 141, 174, 3, 0.318166
388, 6, wb, attraction, a-b-da, 5, 1, 3, 24, 132, 58, 135, 60, 60, 135, 3, 2.9674
388, 6, wb, attraction, a-b-da, 5, 1, 3, 24, 132, 58, 135, 60, 60, 135, 2, 0.495013
388, 6, wb, attraction, a-b-db, 5, 1, 3, 25, 58, 132, 60, 135, 135, 60, 2, 2.08086
388, 6, wb, attraction, a-b-db, 5, 1, 3, 25, 58, 132, 60, 135, 135, 60, 3, 0.644098
388, 6, wb, attraction, a-b-db, 2, 3, 3, 26, 119, 193, 120, 195, 195, 120, 1, 0.687884
388, 6, wb, attraction, a-b-db, 2, 3, 3, 26, 119, 193, 120, 195, 195, 120, 3, 0.339006
388, 6, wb, attraction, a-b-da, 14, 3, 3, 27, 120, 195, 181, 111, 195, 120, 1, 3.03551
388, 6, wb, attraction, a-b-da, 14, 3, 3, 27, 120, 195, 181, 111, 195, 120, 3, 0.840519
388, 6, wb, catch, NA, 999, 999, 3, 28, 169, 146, 113, 82, 158, 97, 2, 0.620178
388, 6, wb, catch, NA, 999, 999, 3, 28, 169, 146, 113, 82, 158, 97, 1, 0.241945
388, 6, wb, attraction, a-b-db, 9, 2, 3, 29, 90, 165, 165, 90, 86, 157, 1, 1.43782
388, 6, wb, attraction, a-b-db, 9, 2, 3, 29, 90, 165, 165, 90, 86, 157, 3, 0.298626
388, 6, wb, attraction, a-b-db, 2, 1, 3, 30, 60, 135, 59, 134, 135, 60, 1, 3.18867
388, 6, wb, attraction, a-b-db, 2, 1, 3, 30, 60, 135, 59, 134, 135, 60, 3, 0.602839
388, 6, wb, filler, NA, 999, 999, 3, 31, 117, 146, 115, 71, 175, 116, 2, 2.33663
388, 6, wb, filler, NA, 999, 999, 3, 31, 117, 146, 115, 71, 175, 116, 3, 0.417137
388, 6, wb, attraction, a-b-da, 5, 3, 3, 32, 190, 117, 120, 195, 195, 120, 1, 3.07031
388, 6, wb, attraction, a-b-da, 5, 3, 3, 32, 190, 117, 120, 195, 195, 120, 3, 0.45798
388, 6, wb, filler, NA, 999, 999, 3, 33, 133, 155, 156, 151, 125, 65, 3, 1.03707
388, 6, wb, filler, NA, 999, 999, 3, 33, 133, 155, 156, 151, 125, 65, 2, 0.674252
388, 6, wb, attraction, a-b-db, 14, 1, 3, 34, 135, 60, 60, 135, 56, 125, 3, 2.86851
388, 6, wb, attraction, a-b-db, 14, 1, 3, 34, 135, 60, 60, 135, 56, 125, 1, 0.440202
388, 6, wb, attraction, a-b-db, 14, 2, 3, 35, 83, 153, 165, 90, 90, 165, 1, 2.26013
388, 6, wb, attraction, a-b-db, 14, 2, 3, 35, 83, 153, 165, 90, 90, 165, 2, 0.887905
388, 6, wb, attraction, a-b-db, 14, 3, 3, 36, 120, 195, 111, 181, 195, 120, 2, 3.2983
388, 6, wb, attraction, a-b-db, 14, 3, 3, 36, 120, 195, 111, 181, 195, 120, 3, 0.476526
388, 6, wb, attraction, a-b-db, 5, 2, 3, 37, 165, 90, 88, 161, 90, 165, 1, 6.44703
388, 6, wb, attraction, a-b-db, 5, 2, 3, 37, 165, 90, 88, 161, 90, 165, 3, 0.48229
388, 6, wb, catch, NA, 999, 999, 4, 1, 127, 188, 100, 95, 160, 95, 2, 0.716747
388, 6, wb, catch, NA, 999, 999, 4, 1, 127, 188, 100, 95, 160, 95, 1, 0.303163
388, 6, wb, attraction, a-b-da, 9, 2, 4, 2, 90, 165, 157, 86, 165, 90, 1, 1.39299
388, 6, wb, attraction, a-b-da, 9, 2, 4, 2, 90, 165, 157, 86, 165, 90, 3, 0.303936
388, 6, wb, filler, NA, 999, 999, 4, 3, 57, 108, 187, 149, 101, 122, 1, 0.729677
388, 6, wb, filler, NA, 999, 999, 4, 3, 57, 108, 187, 149, 101, 122, 2, 0.235503
388, 6, wb, attraction, a-b-db, 2, 1, 4, 4, 135, 60, 59, 134, 60, 135, 2, 1.47998
388, 6, wb, attraction, a-b-db, 2, 1, 4, 4, 135, 60, 59, 134, 60, 135, 1, 0.315768
388, 6, wb, attraction, a-b-db, 2, 2, 4, 5, 89, 163, 165, 90, 90, 165, 2, 2.38079
388, 6, wb, attraction, a-b-db, 2, 2, 4, 5, 89, 163, 165, 90, 90, 165, 3, 0.292011
388, 6, wb, attraction, a-b-da, 14, 3, 4, 6, 181, 111, 120, 195, 195, 120, 1, 1.0778
388, 6, wb, attraction, a-b-da, 14, 3, 4, 6, 181, 111, 120, 195, 195, 120, 3, 0.457423
388, 6, wb, attraction, a-b-db, 9, 3, 4, 7, 114, 186, 195, 120, 120, 195, 2, 0.892657
388, 6, wb, attraction, a-b-db, 9, 3, 4, 7, 114, 186, 195, 120, 120, 195, 3, 0.351672
388, 6, wb, attraction, a-b-da, 5, 1, 4, 8, 60, 135, 135, 60, 132, 58, 1, 0.847414
388, 6, wb, attraction, a-b-da, 5, 1, 4, 8, 60, 135, 135, 60, 132, 58, 2, 0.436477
388, 6, wb, filler, NA, 999, 999, 4, 9, 185, 65, 173, 124, 59, 99, 3, 1.04898
388, 6, wb, filler, NA, 999, 999, 4, 9, 185, 65, 173, 124, 59, 99, 2, 3.16598
388, 6, wb, attraction, a-b-db, 5, 2, 4, 10, 88, 161, 165, 90, 90, 165, 1, 2.78823
388, 6, wb, attraction, a-b-db, 5, 2, 4, 10, 88, 161, 165, 90, 90, 165, 3, 0.426676
388, 6, wb, attraction, a-b-da, 2, 2, 4, 11, 90, 165, 163, 89, 165, 90, 2, 10.8472
388, 6, wb, attraction, a-b-da, 2, 2, 4, 11, 90, 165, 163, 89, 165, 90, 3, 1.63307
388, 6, wb, attraction, a-b-da, 5, 2, 4, 12, 90, 165, 161, 88, 165, 90, 1, 15.1092
388, 6, wb, attraction, a-b-da, 5, 2, 4, 12, 90, 165, 161, 88, 165, 90, 3, 3.60305
388, 6, wb, filler, NA, 999, 999, 4, 13, 122, 139, 190, 185, 179, 157, 1, 1.22383
388, 6, wb, filler, NA, 999, 999, 4, 13, 122, 139, 190, 185, 179, 157, 2, 0.341462
388, 6, wb, filler, NA, 999, 999, 4, 14, 88, 106, 152, 142, 160, 111, 1, 0.813265
388, 6, wb, filler, NA, 999, 999, 4, 14, 88, 106, 152, 142, 160, 111, 2, 0.275803
388, 6, wb, catch, NA, 999, 999, 4, 15, 83, 112, 142, 113, 140, 175, 1, 0.878141
388, 6, wb, catch, NA, 999, 999, 4, 15, 83, 112, 142, 113, 140, 175, 3, 0.92188
388, 6, wb, attraction, a-b-db, 14, 2, 4, 16, 165, 90, 83, 153, 90, 165, 3, 1.0991
388, 6, wb, attraction, a-b-db, 14, 2, 4, 16, 165, 90, 83, 153, 90, 165, 1, 0.781814
388, 6, wb, attraction, a-b-db, 9, 1, 4, 17, 60, 135, 57, 129, 135, 60, 2, 3.28422
388, 6, wb, attraction, a-b-db, 9, 1, 4, 17, 60, 135, 57, 129, 135, 60, 3, 0.543293
388, 6, wb, attraction, a-b-da, 9, 3, 4, 18, 195, 120, 186, 114, 120, 195, 2, 4.18292
388, 6, wb, attraction, a-b-da, 9, 3, 4, 18, 195, 120, 186, 114, 120, 195, 3, 0.285722
388, 6, wb, attraction, a-b-da, 9, 1, 4, 19, 129, 57, 135, 60, 60, 135, 1, 1.7522
388, 6, wb, attraction, a-b-da, 9, 1, 4, 19, 129, 57, 135, 60, 60, 135, 2, 1.43303
388, 6, wb, filler, NA, 999, 999, 4, 20, 125, 85, 134, 153, 165, 149, 1, 0.877156
388, 6, wb, filler, NA, 999, 999, 4, 20, 125, 85, 134, 153, 165, 149, 3, 0.240771
388, 6, wb, attraction, a-b-db, 14, 3, 4, 21, 195, 120, 111, 181, 120, 195, 2, 1.52458
388, 6, wb, attraction, a-b-db, 14, 3, 4, 21, 195, 120, 111, 181, 120, 195, 1, 0.934184
388, 6, wb, attraction, a-b-db, 5, 1, 4, 22, 58, 132, 60, 135, 135, 60, 1, 1.43049
388, 6, wb, attraction, a-b-db, 5, 1, 4, 22, 58, 132, 60, 135, 135, 60, 3, 0.627995
388, 6, wb, attraction, a-b-da, 2, 3, 4, 23, 193, 119, 195, 120, 120, 195, 3, 1.72843
388, 6, wb, attraction, a-b-da, 2, 3, 4, 23, 193, 119, 195, 120, 120, 195, 1, 0.817819
388, 6, wb, filler, NA, 999, 999, 4, 24, 152, 78, 91, 92, 155, 106, 2, 5.08682
388, 6, wb, filler, NA, 999, 999, 4, 24, 152, 78, 91, 92, 155, 106, 3, 0.393242
388, 6, wb, attraction, a-b-db, 9, 2, 4, 25, 86, 157, 90, 165, 165, 90, 1, 1.07104
388, 6, wb, attraction, a-b-db, 9, 2, 4, 25, 86, 157, 90, 165, 165, 90, 3, 0.637732
388, 6, wb, attraction, a-b-db, 2, 3, 4, 26, 120, 195, 195, 120, 119, 193, 1, 0.759043
388, 6, wb, attraction, a-b-db, 2, 3, 4, 26, 120, 195, 195, 120, 119, 193, 2, 0.511519
388, 6, wb, attraction, a-b-db, 5, 3, 4, 27, 195, 120, 120, 195, 117, 190, 3, 1.29659
388, 6, wb, attraction, a-b-db, 5, 3, 4, 27, 195, 120, 120, 195, 117, 190, 1, 0.499494
388, 6, wb, attraction, a-b-db, 14, 1, 4, 28, 135, 60, 60, 135, 56, 125, 3, 0.773488
388, 6, wb, attraction, a-b-db, 14, 1, 4, 28, 135, 60, 60, 135, 56, 125, 1, 0.718283
388, 6, wb, attraction, a-b-da, 14, 2, 4, 29, 153, 83, 90, 165, 165, 90, 3, 0.926094
388, 6, wb, attraction, a-b-da, 14, 2, 4, 29, 153, 83, 90, 165, 165, 90, 2, 0.99969
388, 6, wb, filler, NA, 999, 999, 4, 30, 117, 173, 58, 169, 170, 64, 2, 1.13338
388, 6, wb, filler, NA, 999, 999, 4, 30, 117, 173, 58, 169, 170, 64, 1, 0.454917
388, 6, wb, attraction, a-b-da, 5, 3, 4, 31, 120, 195, 190, 117, 195, 120, 1, 0.858776
388, 6, wb, attraction, a-b-da, 5, 3, 4, 31, 120, 195, 190, 117, 195, 120, 3, 0.455194
388, 6, wb, catch, NA, 999, 999, 4, 32, 179, 136, 101, 154, 125, 70, 3, 0.754966
388, 6, wb, catch, NA, 999, 999, 4, 32, 179, 136, 101, 154, 125, 70, 1, 0.339347
388, 6, wb, filler, NA, 999, 999, 4, 33, 64, 113, 118, 115, 99, 75, 1, 0.835144
388, 6, wb, filler, NA, 999, 999, 4, 33, 64, 113, 118, 115, 99, 75, 2, 0.592921
388, 6, wb, filler, NA, 999, 999, 4, 34, 169, 114, 92, 152, 96, 159, 3, 0.974623
388, 6, wb, filler, NA, 999, 999, 4, 34, 169, 114, 92, 152, 96, 159, 1, 2.37425
388, 6, wb, attraction, a-b-da, 2, 1, 4, 35, 60, 135, 134, 59, 135, 60, 1, 0.788188
388, 6, wb, attraction, a-b-da, 2, 1, 4, 35, 60, 135, 134, 59, 135, 60, 3, 0.475196
388, 6, wb, attraction, a-b-da, 14, 1, 4, 36, 125, 56, 135, 60, 60, 135, 3, 0.637664
388, 6, wb, attraction, a-b-da, 14, 1, 4, 36, 125, 56, 135, 60, 60, 135, 1, 0.39491
388, 6, wb, filler, NA, 999, 999, 4, 37, 73, 122, 184, 133, 92, 167, 1, 0.8807
388, 6, wb, filler, NA, 999, 999, 4, 37, 73, 122, 184, 133, 92, 167, 2, 0.252335
388, 6, wb, attraction, a-b-db, 2, 1, 5, 1, 135, 60, 59, 134, 60, 135, 3, 6.61409
388, 6, wb, attraction, a-b-db, 2, 1, 5, 1, 135, 60, 59, 134, 60, 135, 1, 1.65872
388, 6, wb, attraction, a-b-db, 9, 1, 5, 2, 60, 135, 135, 60, 57, 129, 1, 1.37343
388, 6, wb, attraction, a-b-db, 9, 1, 5, 2, 60, 135, 135, 60, 57, 129, 3, 0.524984
388, 6, wb, attraction, a-b-db, 14, 3, 5, 3, 195, 120, 120, 195, 111, 181, 3, 0.949495
388, 6, wb, attraction, a-b-db, 14, 3, 5, 3, 195, 120, 120, 195, 111, 181, 1, 0.574377
388, 6, wb, attraction, a-b-db, 2, 2, 5, 4, 90, 165, 89, 163, 165, 90, 1, 0.916843
388, 6, wb, attraction, a-b-db, 2, 2, 5, 4, 90, 165, 89, 163, 165, 90, 3, 2.18332
388, 6, wb, attraction, a-b-da, 2, 1, 5, 5, 134, 59, 60, 135, 135, 60, 1, 2.60517
388, 6, wb, attraction, a-b-da, 2, 1, 5, 5, 134, 59, 60, 135, 135, 60, 2, 0.619027
388, 6, wb, filler, NA, 999, 999, 5, 6, 62, 84, 166, 96, 183, 115, 1, 0.984198
388, 6, wb, filler, NA, 999, 999, 5, 6, 62, 84, 166, 96, 183, 115, 3, 0.543722
388, 6, wb, filler, NA, 999, 999, 5, 7, 174, 188, 116, 162, 98, 159, 3, 2.6236
388, 6, wb, filler, NA, 999, 999, 5, 7, 174, 188, 116, 162, 98, 159, 1, 0.348686
388, 6, wb, attraction, a-b-db, 5, 1, 5, 8, 135, 60, 58, 132, 60, 135, 2, 3.5405
388, 6, wb, attraction, a-b-db, 5, 1, 5, 8, 135, 60, 58, 132, 60, 135, 1, 0.716826
388, 6, wb, filler, NA, 999, 999, 5, 9, 152, 171, 153, 93, 194, 154, 2, 1.74182
388, 6, wb, filler, NA, 999, 999, 5, 9, 152, 171, 153, 93, 194, 154, 3, 0.734488
388, 6, wb, filler, NA, 999, 999, 5, 10, 191, 92, 148, 167, 109, 71, 3, 1.03889
388, 6, wb, filler, NA, 999, 999, 5, 10, 191, 92, 148, 167, 109, 71, 2, 10.4118
388, 6, wb, attraction, a-b-db, 5, 3, 5, 11, 195, 120, 120, 195, 117, 190, 3, 31.8859
388, 6, wb, attraction, a-b-db, 5, 3, 5, 11, 195, 120, 120, 195, 117, 190, 1, 0.639904
388, 6, wb, attraction, a-b-db, 2, 3, 5, 12, 119, 193, 195, 120, 120, 195, 1, 1.3716
388, 6, wb, attraction, a-b-db, 2, 3, 5, 12, 119, 193, 195, 120, 120, 195, 3, 0.435283
388, 6, wb, attraction, a-b-da, 2, 2, 5, 13, 163, 89, 165, 90, 90, 165, 3, 0.999602
388, 6, wb, attraction, a-b-da, 2, 2, 5, 13, 163, 89, 165, 90, 90, 165, 2, 2.91878
388, 6, wb, filler, NA, 999, 999, 5, 14, 141, 154, 125, 165, 126, 116, 3, 1.367
388, 6, wb, filler, NA, 999, 999, 5, 14, 141, 154, 125, 165, 126, 116, 1, 0.479207
388, 6, wb, attraction, a-b-da, 14, 3, 5, 15, 120, 195, 181, 111, 195, 120, 2, 2.3937
388, 6, wb, attraction, a-b-da, 14, 3, 5, 15, 120, 195, 181, 111, 195, 120, 3, 0.408268
388, 6, wb, attraction, a-b-da, 2, 3, 5, 16, 195, 120, 120, 195, 193, 119, 1, 5.18939
388, 6, wb, attraction, a-b-da, 2, 3, 5, 16, 195, 120, 120, 195, 193, 119, 3, 0.363017
388, 6, wb, attraction, a-b-da, 14, 2, 5, 17, 153, 83, 165, 90, 90, 165, 1, 2.66614
388, 6, wb, attraction, a-b-da, 14, 2, 5, 17, 153, 83, 165, 90, 90, 165, 3, 0.502146
388, 6, wb, attraction, a-b-db, 14, 2, 5, 18, 90, 165, 83, 153, 165, 90, 1, 10.664
388, 6, wb, attraction, a-b-db, 14, 2, 5, 18, 90, 165, 83, 153, 165, 90, 2, 1.23329
388, 6, wb, attraction, a-b-da, 9, 1, 5, 19, 60, 135, 129, 57, 135, 60, 1, 0.821339
388, 6, wb, attraction, a-b-da, 9, 1, 5, 19, 60, 135, 129, 57, 135, 60, 3, 0.587115
388, 6, wb, attraction, a-b-db, 9, 3, 5, 20, 195, 120, 114, 186, 120, 195, 3, 1.24153
388, 6, wb, attraction, a-b-db, 9, 3, 5, 20, 195, 120, 114, 186, 120, 195, 1, 0.766425
388, 6, wb, catch, NA, 999, 999, 5, 21, 134, 61, 163, 92, 120, 195, 1, 0.949404
388, 6, wb, catch, NA, 999, 999, 5, 21, 134, 61, 163, 92, 120, 195, 3, 0.446509
388, 6, wb, attraction, a-b-db, 9, 2, 5, 22, 165, 90, 90, 165, 86, 157, 3, 2.10641
388, 6, wb, attraction, a-b-db, 9, 2, 5, 22, 165, 90, 90, 165, 86, 157, 1, 0.428287
388, 6, wb, filler, NA, 999, 999, 5, 23, 111, 83, 138, 105, 75, 57, 3, 0.784726
388, 6, wb, filler, NA, 999, 999, 5, 23, 111, 83, 138, 105, 75, 57, 2, 0.296441
388, 6, wb, filler, NA, 999, 999, 5, 24, 125, 95, 96, 157, 171, 101, 1, 1.89837
388, 6, wb, filler, NA, 999, 999, 5, 24, 125, 95, 96, 157, 171, 101, 3, 0.837012
388, 6, wb, attraction, a-b-db, 14, 1, 5, 25, 60, 135, 135, 60, 56, 125, 3, 2.7054
388, 6, wb, attraction, a-b-db, 14, 1, 5, 25, 60, 135, 135, 60, 56, 125, 2, 1.14715
388, 6, wb, attraction, a-b-da, 5, 3, 5, 26, 195, 120, 190, 117, 120, 195, 3, 0.94675
388, 6, wb, attraction, a-b-da, 5, 3, 5, 26, 195, 120, 190, 117, 120, 195, 1, 0.35585
388, 6, wb, catch, NA, 999, 999, 5, 27, 163, 92, 128, 187, 70, 125, 3, 0.539538
388, 6, wb, catch, NA, 999, 999, 5, 27, 163, 92, 128, 187, 70, 125, 2, 0.548723
388, 6, wb, catch, NA, 999, 999, 5, 28, 193, 122, 148, 107, 87, 108, 3, 0.588652
388, 6, wb, catch, NA, 999, 999, 5, 28, 193, 122, 148, 107, 87, 108, 1, 0.859672
388, 6, wb, filler, NA, 999, 999, 5, 29, 122, 181, 105, 82, 143, 187, 2, 0.814607
388, 6, wb, filler, NA, 999, 999, 5, 29, 122, 181, 105, 82, 143, 187, 3, 0.308956
388, 6, wb, attraction, a-b-da, 9, 2, 5, 30, 165, 90, 90, 165, 157, 86, 1, 2.87017
388, 6, wb, attraction, a-b-da, 9, 2, 5, 30, 165, 90, 90, 165, 157, 86, 3, 0.498084
388, 6, wb, attraction, a-b-da, 5, 2, 5, 31, 90, 165, 165, 90, 161, 88, 3, 42.0997
388, 6, wb, attraction, a-b-da, 5, 2, 5, 31, 90, 165, 165, 90, 161, 88, 1, 0.73051
388, 6, wb, filler, NA, 999, 999, 5, 32, 94, 184, 129, 104, 75, 67, 3, 0.514868
388, 6, wb, filler, NA, 999, 999, 5, 32, 94, 184, 129, 104, 75, 67, 1, 0.613363
388, 6, wb, filler, NA, 999, 999, 5, 33, 135, 87, 70, 164, 193, 81, 1, 1.22646
388, 6, wb, filler, NA, 999, 999, 5, 33, 135, 87, 70, 164, 193, 81, 3, 0.584053
388, 6, wb, attraction, a-b-da, 14, 1, 5, 34, 60, 135, 125, 56, 135, 60, 1, 4.31052
388, 6, wb, attraction, a-b-da, 14, 1, 5, 34, 60, 135, 125, 56, 135, 60, 3, 0.599784
388, 6, wb, attraction, a-b-da, 9, 3, 5, 35, 195, 120, 186, 114, 120, 195, 3, 1.45356
388, 6, wb, attraction, a-b-da, 9, 3, 5, 35, 195, 120, 186, 114, 120, 195, 1, 0.393719
388, 6, wb, attraction, a-b-da, 5, 1, 5, 36, 132, 58, 135, 60, 60, 135, 3, 7.55961
388, 6, wb, attraction, a-b-da, 5, 1, 5, 36, 132, 58, 135, 60, 60, 135, 1, 0.621881
388, 6, wb, attraction, a-b-db, 5, 2, 5, 37, 165, 90, 88, 161, 90, 165, 3, 1.05891
388, 6, wb, attraction, a-b-db, 5, 2, 5, 37, 165, 90, 88, 161, 90, 165, 1, 2.2233
388, 6, wb, catch, NA, 999, 999, 6, 1, 90, 165, 118, 77, 160, 155, 1, 1.31515
388, 6, wb, catch, NA, 999, 999, 6, 1, 90, 165, 118, 77, 160, 155, 3, 1.90137
388, 6, wb, catch, NA, 999, 999, 6, 2, 183, 132, 150, 105, 92, 103, 3, 0.614757
388, 6, wb, catch, NA, 999, 999, 6, 2, 183, 132, 150, 105, 92, 103, 1, 0.373051
388, 6, wb, filler, NA, 999, 999, 6, 3, 113, 177, 190, 195, 147, 80, 3, 1.4836
388, 6, wb, filler, NA, 999, 999, 6, 3, 113, 177, 190, 195, 147, 80, 2, 0.263124
388, 6, wb, attraction, a-b-db, 2, 1, 6, 4, 60, 135, 59, 134, 135, 60, 2, 2.33828
388, 6, wb, attraction, a-b-db, 2, 1, 6, 4, 60, 135, 59, 134, 135, 60, 3, 0.274889
388, 6, wb, attraction, a-b-da, 9, 1, 6, 5, 135, 60, 129, 57, 60, 135, 2, 1.45342
388, 6, wb, attraction, a-b-da, 9, 1, 6, 5, 135, 60, 129, 57, 60, 135, 3, 0.626221
388, 6, wb, attraction, a-b-db, 9, 1, 6, 6, 57, 129, 60, 135, 135, 60, 1, 1.28667
388, 6, wb, attraction, a-b-db, 9, 1, 6, 6, 57, 129, 60, 135, 135, 60, 3, 0.53027
388, 6, wb, attraction, a-b-db, 2, 2, 6, 7, 90, 165, 89, 163, 165, 90, 1, 8.26664
388, 6, wb, attraction, a-b-db, 2, 2, 6, 7, 90, 165, 89, 163, 165, 90, 3, 0.580766
388, 6, wb, filler, NA, 999, 999, 6, 8, 162, 131, 56, 73, 114, 194, 2, 0.747217
388, 6, wb, filler, NA, 999, 999, 6, 8, 162, 131, 56, 73, 114, 194, 1, 0.268463
388, 6, wb, filler, NA, 999, 999, 6, 9, 83, 95, 116, 90, 109, 129, 1, 1.51947
388, 6, wb, filler, NA, 999, 999, 6, 9, 83, 95, 116, 90, 109, 129, 3, 1.31369
388, 6, wb, attraction, a-b-db, 9, 3, 6, 10, 120, 195, 114, 186, 195, 120, 1, 3.12254
388, 6, wb, attraction, a-b-db, 9, 3, 6, 10, 120, 195, 114, 186, 195, 120, 3, 0.915483
388, 6, wb, filler, NA, 999, 999, 6, 11, 194, 61, 152, 108, 102, 96, 3, 25.5005
388, 6, wb, filler, NA, 999, 999, 6, 11, 194, 61, 152, 108, 102, 96, 2, 0.759845
388, 6, wb, attraction, a-b-da, 2, 1, 6, 12, 134, 59, 60, 135, 135, 60, 2, 1.35082
388, 6, wb, attraction, a-b-da, 2, 1, 6, 12, 134, 59, 60, 135, 135, 60, 3, 1.31176
388, 6, wb, attraction, a-b-da, 2, 3, 6, 13, 120, 195, 195, 120, 193, 119, 1, 3.38468
388, 6, wb, attraction, a-b-da, 2, 3, 6, 13, 120, 195, 195, 120, 193, 119, 3, 0.879481
388, 6, wb, attraction, a-b-da, 5, 1, 6, 14, 60, 135, 135, 60, 132, 58, 1, 1.31383
388, 6, wb, attraction, a-b-da, 5, 1, 6, 14, 60, 135, 135, 60, 132, 58, 3, 1.57207
388, 6, wb, filler, NA, 999, 999, 6, 15, 189, 152, 107, 186, 187, 182, 2, 1.55479
388, 6, wb, filler, NA, 999, 999, 6, 15, 189, 152, 107, 186, 187, 182, 3, 0.987163
388, 6, wb, attraction, a-b-da, 2, 2, 6, 16, 90, 165, 163, 89, 165, 90, 1, 1.45738
388, 6, wb, attraction, a-b-da, 2, 2, 6, 16, 90, 165, 163, 89, 165, 90, 3, 0.397528
388, 6, wb, filler, NA, 999, 999, 6, 17, 126, 188, 57, 110, 123, 128, 2, 0.875276
388, 6, wb, filler, NA, 999, 999, 6, 17, 126, 188, 57, 110, 123, 128, 1, 0.334969
388, 6, wb, filler, NA, 999, 999, 6, 18, 101, 65, 85, 65, 58, 76, 3, 1.17552
388, 6, wb, filler, NA, 999, 999, 6, 18, 101, 65, 85, 65, 58, 76, 1, 0.431133
388, 6, wb, filler, NA, 999, 999, 6, 19, 83, 143, 76, 84, 181, 155, 2, 1.42761
388, 6, wb, filler, NA, 999, 999, 6, 19, 83, 143, 76, 84, 181, 155, 3, 0.273161
388, 6, wb, attraction, a-b-da, 9, 2, 6, 20, 157, 86, 165, 90, 90, 165, 3, 4.09973
388, 6, wb, attraction, a-b-da, 9, 2, 6, 20, 157, 86, 165, 90, 90, 165, 1, 0.397623
388, 6, wb, attraction, a-b-da, 14, 3, 6, 21, 120, 195, 195, 120, 181, 111, 1, 1.27544
388, 6, wb, attraction, a-b-da, 14, 3, 6, 21, 120, 195, 195, 120, 181, 111, 3, 0.45503
388, 6, wb, filler, NA, 999, 999, 6, 22, 95, 179, 175, 132, 84, 113, 3, 0.898821
388, 6, wb, filler, NA, 999, 999, 6, 22, 95, 179, 175, 132, 84, 113, 2, 0.333867
388, 6, wb, catch, NA, 999, 999, 6, 23, 99, 96, 183, 132, 147, 108, 1, 0.822376
388, 6, wb, catch, NA, 999, 999, 6, 23, 99, 96, 183, 132, 147, 108, 2, 0.260116
388, 6, wb, attraction, a-b-db, 14, 2, 6, 24, 165, 90, 90, 165, 83, 153, 3, 0.815338
388, 6, wb, attraction, a-b-db, 14, 2, 6, 24, 165, 90, 90, 165, 83, 153, 2, 1.23775
388, 6, wb, filler, NA, 999, 999, 6, 25, 60, 182, 169, 178, 65, 58, 3, 1.60985
388, 6, wb, filler, NA, 999, 999, 6, 25, 60, 182, 169, 178, 65, 58, 2, 0.33601
388, 6, wb, attraction, a-b-da, 9, 3, 6, 26, 195, 120, 120, 195, 186, 114, 3, 2.63262
388, 6, wb, attraction, a-b-da, 9, 3, 6, 26, 195, 120, 120, 195, 186, 114, 2, 0.325733
388, 6, wb, attraction, a-b-da, 5, 2, 6, 27, 165, 90, 161, 88, 90, 165, 3, 31.1982
388, 6, wb, attraction, a-b-da, 5, 2, 6, 27, 165, 90, 161, 88, 90, 165, 1, 1.75581
388, 6, wb, attraction, a-b-db, 2, 3, 6, 28, 119, 193, 120, 195, 195, 120, 1, 0.947104
388, 6, wb, attraction, a-b-db, 2, 3, 6, 28, 119, 193, 120, 195, 195, 120, 3, 0.500311
388, 6, wb, attraction, a-b-da, 14, 2, 6, 29, 153, 83, 165, 90, 90, 165, 3, 0.93398
388, 6, wb, attraction, a-b-da, 14, 2, 6, 29, 153, 83, 165, 90, 90, 165, 2, 1.38366
388, 6, wb, attraction, a-b-db, 5, 3, 6, 30, 117, 190, 195, 120, 120, 195, 1, 1.05385
388, 6, wb, attraction, a-b-db, 5, 3, 6, 30, 117, 190, 195, 120, 120, 195, 3, 0.346729
388, 6, wb, attraction, a-b-db, 14, 1, 6, 31, 60, 135, 56, 125, 135, 60, 1, 0.690782
388, 6, wb, attraction, a-b-db, 14, 1, 6, 31, 60, 135, 56, 125, 135, 60, 3, 0.533762
388, 6, wb, attraction, a-b-db, 5, 1, 6, 32, 135, 60, 58, 132, 60, 135, 3, 1.48613
388, 6, wb, attraction, a-b-db, 5, 1, 6, 32, 135, 60, 58, 132, 60, 135, 1, 0.553644
388, 6, wb, attraction, a-b-db, 14, 3, 6, 33, 120, 195, 195, 120, 111, 181, 1, 1.32941
388, 6, wb, attraction, a-b-db, 14, 3, 6, 33, 120, 195, 195, 120, 111, 181, 2, 0.339113
388, 6, wb, attraction, a-b-db, 5, 2, 6, 34, 88, 161, 165, 90, 90, 165, 1, 1.09144
388, 6, wb, attraction, a-b-db, 5, 2, 6, 34, 88, 161, 165, 90, 90, 165, 3, 0.358391
388, 6, wb, attraction, a-b-da, 14, 1, 6, 35, 60, 135, 135, 60, 125, 56, 1, 0.77382
388, 6, wb, attraction, a-b-da, 14, 1, 6, 35, 60, 135, 135, 60, 125, 56, 3, 0.341447
388, 6, wb, attraction, a-b-da, 5, 3, 6, 36, 120, 195, 195, 120, 190, 117, 1, 0.885189
388, 6, wb, attraction, a-b-da, 5, 3, 6, 36, 120, 195, 195, 120, 190, 117, 3, 0.361101
388, 6, wb, attraction, a-b-db, 9, 2, 6, 37, 165, 90, 90, 165, 86, 157, 1, 1.57605
388, 6, wb, attraction, a-b-db, 9, 2, 6, 37, 165, 90, 90, 165, 86, 157, 3, 0.335573
388, 6, wb, attraction, a-b-da, 2, 2, 7, 1, 165, 90, 163, 89, 90, 165, 2, 5.04805
388, 6, wb, attraction, a-b-da, 2, 2, 7, 1, 165, 90, 163, 89, 90, 165, 3, 0.859856
388, 6, wb, attraction, a-b-db, 5, 1, 7, 2, 58, 132, 135, 60, 60, 135, 2, 0.958837
388, 6, wb, attraction, a-b-db, 5, 1, 7, 2, 58, 132, 135, 60, 60, 135, 3, 0.40712
388, 6, wb, attraction, a-b-db, 5, 2, 7, 3, 165, 90, 88, 161, 90, 165, 3, 1.28425
388, 6, wb, attraction, a-b-db, 5, 2, 7, 3, 165, 90, 88, 161, 90, 165, 1, 0.527802
388, 6, wb, filler, NA, 999, 999, 7, 4, 195, 146, 143, 152, 154, 84, 3, 1.31242
388, 6, wb, filler, NA, 999, 999, 7, 4, 195, 146, 143, 152, 154, 84, 1, 0.538515
388, 6, wb, attraction, a-b-da, 2, 1, 7, 5, 135, 60, 134, 59, 60, 135, 2, 5.22686
388, 6, wb, attraction, a-b-da, 2, 1, 7, 5, 135, 60, 134, 59, 60, 135, 1, 1.28739
388, 6, wb, catch, NA, 999, 999, 7, 6, 133, 182, 122, 133, 109, 86, 3, 0.681475
388, 6, wb, catch, NA, 999, 999, 7, 6, 133, 182, 122, 133, 109, 86, 1, 0.421219
388, 6, wb, attraction, a-b-da, 2, 3, 7, 7, 195, 120, 120, 195, 193, 119, 1, 1.17033
388, 6, wb, attraction, a-b-da, 2, 3, 7, 7, 195, 120, 120, 195, 193, 119, 3, 0.353997
388, 6, wb, catch, NA, 999, 999, 7, 8, 142, 113, 171, 144, 108, 87, 3, 1.22577
388, 6, wb, catch, NA, 999, 999, 7, 8, 142, 113, 171, 144, 108, 87, 2, 0.34339
388, 6, wb, attraction, a-b-da, 14, 1, 7, 9, 60, 135, 135, 60, 125, 56, 1, 2.17522
388, 6, wb, attraction, a-b-da, 14, 1, 7, 9, 60, 135, 135, 60, 125, 56, 3, 0.486505
388, 6, wb, filler, NA, 999, 999, 7, 10, 161, 94, 68, 153, 89, 171, 2, 2.44894
388, 6, wb, filler, NA, 999, 999, 7, 10, 161, 94, 68, 153, 89, 171, 1, 0.389485
388, 6, wb, attraction, a-b-db, 14, 2, 7, 11, 90, 165, 165, 90, 83, 153, 1, 24.7954
388, 6, wb, attraction, a-b-db, 14, 2, 7, 11, 90, 165, 165, 90, 83, 153, 2, 1.97166
388, 6, wb, filler, NA, 999, 999, 7, 12, 79, 145, 191, 166, 185, 128, 1, 0.818235
388, 6, wb, filler, NA, 999, 999, 7, 12, 79, 145, 191, 166, 185, 128, 2, 0.656624
388, 6, wb, attraction, a-b-db, 2, 1, 7, 13, 135, 60, 59, 134, 60, 135, 3, 2.43582
388, 6, wb, attraction, a-b-db, 2, 1, 7, 13, 135, 60, 59, 134, 60, 135, 1, 0.680871
388, 6, wb, attraction, a-b-da, 5, 3, 7, 14, 190, 117, 195, 120, 120, 195, 3, 0.835441
388, 6, wb, attraction, a-b-da, 5, 3, 7, 14, 190, 117, 195, 120, 120, 195, 1, 0.521049
388, 6, wb, filler, NA, 999, 999, 7, 15, 84, 102, 145, 154, 57, 193, 1, 1.98612
388, 6, wb, filler, NA, 999, 999, 7, 15, 84, 102, 145, 154, 57, 193, 2, 0.26544
388, 6, wb, filler, NA, 999, 999, 7, 16, 132, 132, 129, 83, 88, 99, 3, 0.708622
388, 6, wb, filler, NA, 999, 999, 7, 16, 132, 132, 129, 83, 88, 99, 1, 0.495287
388, 6, wb, attraction, a-b-da, 5, 1, 7, 17, 60, 135, 132, 58, 135, 60, 1, 1.30507
388, 6, wb, attraction, a-b-da, 5, 1, 7, 17, 60, 135, 132, 58, 135, 60, 3, 0.491104
388, 6, wb, attraction, a-b-db, 9, 1, 7, 18, 135, 60, 60, 135, 57, 129, 3, 1.01291
388, 6, wb, attraction, a-b-db, 9, 1, 7, 18, 135, 60, 60, 135, 57, 129, 1, 0.507214
388, 6, wb, attraction, a-b-da, 9, 1, 7, 19, 60, 135, 135, 60, 129, 57, 1, 0.756218
388, 6, wb, attraction, a-b-da, 9, 1, 7, 19, 60, 135, 135, 60, 129, 57, 3, 0.516757
388, 6, wb, attraction, a-b-db, 2, 2, 7, 20, 165, 90, 90, 165, 89, 163, 3, 0.74188
388, 6, wb, attraction, a-b-db, 2, 2, 7, 20, 165, 90, 90, 165, 89, 163, 1, 0.414889
388, 6, wb, attraction, a-b-da, 9, 3, 7, 21, 120, 195, 195, 120, 186, 114, 1, 1.58805
388, 6, wb, attraction, a-b-da, 9, 3, 7, 21, 120, 195, 195, 120, 186, 114, 3, 0.482858
388, 6, wb, attraction, a-b-da, 14, 2, 7, 22, 165, 90, 153, 83, 90, 165, 3, 0.813401
388, 6, wb, attraction, a-b-da, 14, 2, 7, 22, 165, 90, 153, 83, 90, 165, 1, 0.435813
388, 6, wb, attraction, a-b-db, 14, 3, 7, 23, 120, 195, 195, 120, 111, 181, 3, 4.66418
388, 6, wb, attraction, a-b-db, 14, 3, 7, 23, 120, 195, 195, 120, 111, 181, 1, 0.363463
388, 6, wb, attraction, a-b-db, 9, 2, 7, 24, 90, 165, 165, 90, 86, 157, 3, 2.91449
388, 6, wb, attraction, a-b-db, 9, 2, 7, 24, 90, 165, 165, 90, 86, 157, 1, 0.348336
388, 6, wb, filler, NA, 999, 999, 7, 25, 187, 158, 78, 188, 125, 178, 2, 2.46819
388, 6, wb, filler, NA, 999, 999, 7, 25, 187, 158, 78, 188, 125, 178, 1, 0.400006
388, 6, wb, attraction, a-b-da, 5, 2, 7, 26, 90, 165, 161, 88, 165, 90, 2, 1.30987
388, 6, wb, attraction, a-b-da, 5, 2, 7, 26, 90, 165, 161, 88, 165, 90, 3, 0.696036
388, 6, wb, filler, NA, 999, 999, 7, 27, 99, 162, 58, 181, 169, 126, 2, 18.0657
388, 6, wb, filler, NA, 999, 999, 7, 27, 99, 162, 58, 181, 169, 126, 3, 0.456746
388, 6, wb, filler, NA, 999, 999, 7, 28, 139, 65, 189, 175, 91, 110, 3, 1.01191
388, 6, wb, filler, NA, 999, 999, 7, 28, 139, 65, 189, 175, 91, 110, 2, 0.25827
388, 6, wb, attraction, a-b-da, 14, 3, 7, 29, 120, 195, 181, 111, 195, 120, 1, 0.861324
388, 6, wb, attraction, a-b-da, 14, 3, 7, 29, 120, 195, 181, 111, 195, 120, 3, 0.29772
388, 6, wb, attraction, a-b-db, 9, 3, 7, 30, 114, 186, 120, 195, 195, 120, 1, 0.763683
388, 6, wb, attraction, a-b-db, 9, 3, 7, 30, 114, 186, 120, 195, 195, 120, 3, 0.459963
388, 6, wb, catch, NA, 999, 999, 7, 31, 108, 87, 135, 180, 138, 117, 1, 0.791078
388, 6, wb, catch, NA, 999, 999, 7, 31, 108, 87, 135, 180, 138, 117, 3, 0.550194
388, 6, wb, attraction, a-b-db, 5, 3, 7, 32, 117, 190, 120, 195, 195, 120, 1, 1.08597
388, 6, wb, attraction, a-b-db, 5, 3, 7, 32, 117, 190, 120, 195, 195, 120, 3, 0.441601
388, 6, wb, attraction, a-b-db, 14, 1, 7, 33, 60, 135, 135, 60, 56, 125, 3, 1.54142
388, 6, wb, attraction, a-b-db, 14, 1, 7, 33, 60, 135, 135, 60, 56, 125, 1, 0.358157
388, 6, wb, attraction, a-b-db, 2, 3, 7, 34, 120, 195, 195, 120, 119, 193, 2, 1.18136
388, 6, wb, attraction, a-b-db, 2, 3, 7, 34, 120, 195, 195, 120, 119, 193, 3, 0.476984
388, 6, wb, attraction, a-b-da, 9, 2, 7, 35, 90, 165, 165, 90, 157, 86, 2, 3.9514
388, 6, wb, attraction, a-b-da, 9, 2, 7, 35, 90, 165, 165, 90, 157, 86, 1, 0.335457
388, 6, wb, filler, NA, 999, 999, 7, 36, 139, 184, 189, 142, 131, 144, 3, 1.24814
388, 6, wb, filler, NA, 999, 999, 7, 36, 139, 184, 189, 142, 131, 144, 1, 0.396964
388, 6, wb, filler, NA, 999, 999, 7, 37, 125, 77, 90, 64, 139, 163, 2, 0.746797
388, 6, wb, filler, NA, 999, 999, 7, 37, 125, 77, 90, 64, 139, 163, 3, 0.283878
388, 6, wb, filler, NA, 999, 999, 8, 1, 93, 179, 86, 169, 71, 102, 3, 0.934309
388, 6, wb, filler, NA, 999, 999, 8, 1, 93, 179, 86, 169, 71, 102, 1, 0.407991
388, 6, wb, filler, NA, 999, 999, 8, 2, 87, 187, 131, 167, 118, 68, 3, 0.80515
388, 6, wb, filler, NA, 999, 999, 8, 2, 87, 187, 131, 167, 118, 68, 2, 0.307564
388, 6, wb, attraction, a-b-db, 5, 1, 8, 3, 135, 60, 58, 132, 60, 135, 3, 1.13269
388, 6, wb, attraction, a-b-db, 5, 1, 8, 3, 135, 60, 58, 132, 60, 135, 1, 0.622343
388, 6, wb, attraction, a-b-db, 9, 3, 8, 4, 114, 186, 120, 195, 195, 120, 1, 0.891413
388, 6, wb, attraction, a-b-db, 9, 3, 8, 4, 114, 186, 120, 195, 195, 120, 3, 0.718428
388, 6, wb, filler, NA, 999, 999, 8, 5, 103, 90, 128, 103, 125, 149, 1, 0.631465
388, 6, wb, filler, NA, 999, 999, 8, 5, 103, 90, 128, 103, 125, 149, 3, 0.845283
388, 6, wb, catch, NA, 999, 999, 8, 6, 78, 117, 135, 120, 150, 165, 1, 0.79301
388, 6, wb, catch, NA, 999, 999, 8, 6, 78, 117, 135, 120, 150, 165, 3, 0.416143
388, 6, wb, attraction, a-b-da, 9, 1, 8, 7, 129, 57, 60, 135, 135, 60, 1, 2.32512
388, 6, wb, attraction, a-b-da, 9, 1, 8, 7, 129, 57, 60, 135, 135, 60, 2, 0.790407
388, 6, wb, attraction, a-b-db, 2, 3, 8, 8, 119, 193, 120, 195, 195, 120, 2, 4.06817
388, 6, wb, attraction, a-b-db, 2, 3, 8, 8, 119, 193, 120, 195, 195, 120, 3, 0.543604
388, 6, wb, attraction, a-b-da, 2, 2, 8, 9, 165, 90, 90, 165, 163, 89, 3, 4.06324
388, 6, wb, attraction, a-b-da, 2, 2, 8, 9, 165, 90, 90, 165, 163, 89, 1, 0.546649
388, 6, wb, attraction, a-b-da, 2, 1, 8, 10, 134, 59, 135, 60, 60, 135, 3, 0.994498
388, 6, wb, attraction, a-b-da, 2, 1, 8, 10, 134, 59, 135, 60, 60, 135, 1, 0.641359
388, 6, wb, filler, NA, 999, 999, 8, 11, 138, 178, 152, 177, 181, 83, 1, 1.78114
388, 6, wb, filler, NA, 999, 999, 8, 11, 138, 178, 152, 177, 181, 83, 3, 1.09259
388, 6, wb, filler, NA, 999, 999, 8, 12, 78, 111, 139, 191, 177, 96, 1, 0.958062
388, 6, wb, filler, NA, 999, 999, 8, 12, 78, 111, 139, 191, 177, 96, 3, 0.462589
388, 6, wb, attraction, a-b-da, 9, 3, 8, 13, 120, 195, 186, 114, 195, 120, 2, 0.641588
388, 6, wb, attraction, a-b-da, 9, 3, 8, 13, 120, 195, 186, 114, 195, 120, 3, 0.534713
388, 6, wb, attraction, a-b-da, 5, 1, 8, 14, 60, 135, 135, 60, 132, 58, 3, 0.951193
388, 6, wb, attraction, a-b-da, 5, 1, 8, 14, 60, 135, 135, 60, 132, 58, 1, 1.41631
388, 6, wb, attraction, a-b-db, 14, 2, 8, 15, 83, 153, 165, 90, 90, 165, 3, 1.72505
388, 6, wb, attraction, a-b-db, 14, 2, 8, 15, 83, 153, 165, 90, 90, 165, 2, 0.574518
388, 6, wb, attraction, a-b-db, 14, 3, 8, 16, 111, 181, 195, 120, 120, 195, 3, 1.06898
388, 6, wb, attraction, a-b-db, 14, 3, 8, 16, 111, 181, 195, 120, 120, 195, 1, 0.769171
388, 6, wb, filler, NA, 999, 999, 8, 17, 168, 144, 60, 176, 89, 171, 2, 2.10419
388, 6, wb, filler, NA, 999, 999, 8, 17, 168, 144, 60, 176, 89, 171, 1, 0.626276
388, 6, wb, attraction, a-b-db, 5, 3, 8, 18, 195, 120, 120, 195, 117, 190, 3, 0.782555
388, 6, wb, attraction, a-b-db, 5, 3, 8, 18, 195, 120, 120, 195, 117, 190, 2, 0.870286
388, 6, wb, attraction, a-b-db, 2, 2, 8, 19, 165, 90, 89, 163, 90, 165, 3, 0.689284
388, 6, wb, attraction, a-b-db, 2, 2, 8, 19, 165, 90, 89, 163, 90, 165, 1, 0.564423
388, 6, wb, attraction, a-b-da, 14, 2, 8, 20, 153, 83, 90, 165, 165, 90, 3, 2.70754
388, 6, wb, attraction, a-b-da, 14, 2, 8, 20, 153, 83, 90, 165, 165, 90, 1, 0.637316
388, 6, wb, attraction, a-b-da, 14, 1, 8, 21, 125, 56, 60, 135, 135, 60, 3, 0.897829
388, 6, wb, attraction, a-b-da, 14, 1, 8, 21, 125, 56, 60, 135, 135, 60, 2, 0.580733
388, 6, wb, attraction, a-b-da, 14, 3, 8, 22, 195, 120, 120, 195, 181, 111, 3, 0.755244
388, 6, wb, attraction, a-b-da, 14, 3, 8, 22, 195, 120, 120, 195, 181, 111, 2, 0.507609
388, 6, wb, attraction, a-b-db, 2, 1, 8, 23, 60, 135, 135, 60, 59, 134, 3, 1.07672
388, 6, wb, attraction, a-b-db, 2, 1, 8, 23, 60, 135, 135, 60, 59, 134, 2, 2.24838
388, 6, wb, attraction, a-b-db, 5, 2, 8, 24, 165, 90, 88, 161, 90, 165, 3, 0.915582
388, 6, wb, attraction, a-b-db, 5, 2, 8, 24, 165, 90, 88, 161, 90, 165, 1, 0.517953
388, 6, wb, attraction, a-b-db, 9, 1, 8, 25, 57, 129, 135, 60, 60, 135, 3, 3.4632
388, 6, wb, attraction, a-b-db, 9, 1, 8, 25, 57, 129, 135, 60, 60, 135, 2, 0.442664
388, 6, wb, filler, NA, 999, 999, 8, 26, 168, 171, 107, 153, 87, 137, 3, 0.846459
388, 6, wb, filler, NA, 999, 999, 8, 26, 168, 171, 107, 153, 87, 137, 1, 0.699451
388, 6, wb, filler, NA, 999, 999, 8, 27, 75, 158, 77, 147, 148, 167, 1, 3.25322
388, 6, wb, filler, NA, 999, 999, 8, 27, 75, 158, 77, 147, 148, 167, 3, 0.761451
388, 6, wb, catch, NA, 999, 999, 8, 28, 144, 111, 82, 113, 186, 129, 2, 1.20853
388, 6, wb, catch, NA, 999, 999, 8, 28, 144, 111, 82, 113, 186, 129, 3, 0.502873
388, 6, wb, filler, NA, 999, 999, 8, 29, 163, 107, 138, 151, 107, 138, 3, 0.896504
388, 6, wb, filler, NA, 999, 999, 8, 29, 163, 107, 138, 151, 107, 138, 2, 0.299611
388, 6, wb, filler, NA, 999, 999, 8, 30, 100, 118, 157, 89, 92, 99, 3, 0.717423
388, 6, wb, filler, NA, 999, 999, 8, 30, 100, 118, 157, 89, 92, 99, 2, 0.807905
388, 6, wb, attraction, a-b-db, 14, 1, 8, 31, 60, 135, 56, 125, 135, 60, 2, 1.42888
388, 6, wb, attraction, a-b-db, 14, 1, 8, 31, 60, 135, 56, 125, 135, 60, 3, 0.858394
388, 6, wb, catch, NA, 999, 999, 8, 32, 161, 154, 101, 94, 158, 97, 2, 0.725305
388, 6, wb, catch, NA, 999, 999, 8, 32, 161, 154, 101, 94, 158, 97, 1, 0.503207
388, 6, wb, attraction, a-b-da, 9, 2, 8, 33, 90, 165, 157, 86, 165, 90, 2, 3.21691
388, 6, wb, attraction, a-b-da, 9, 2, 8, 33, 90, 165, 157, 86, 165, 90, 1, 0.526577
388, 6, wb, attraction, a-b-da, 5, 3, 8, 34, 195, 120, 120, 195, 190, 117, 3, 3.03909
388, 6, wb, attraction, a-b-da, 5, 3, 8, 34, 195, 120, 120, 195, 190, 117, 1, 0.771291
388, 6, wb, attraction, a-b-db, 9, 2, 8, 35, 90, 165, 86, 157, 165, 90, 2, 1.95437
388, 6, wb, attraction, a-b-db, 9, 2, 8, 35, 90, 165, 86, 157, 165, 90, 3, 0.914448
388, 6, wb, attraction, a-b-da, 5, 2, 8, 36, 90, 165, 165, 90, 161, 88, 2, 2.65942
388, 6, wb, attraction, a-b-da, 5, 2, 8, 36, 90, 165, 165, 90, 161, 88, 3, 0.335228
388, 6, wb, attraction, a-b-da, 2, 3, 8, 37, 195, 120, 120, 195, 193, 119, 1, 35.5277
388, 6, wb, attraction, a-b-da, 2, 3, 8, 37, 195, 120, 120, 195, 193, 119, 3, 1.19141
