sub_n, computer_n, bw_cond, effect, set, distance, diag, block_n, trial_n, h1, w1, h2, w2, h3, w3, choice, rt 
328, 6, wb, practice, NA, 999, 999, 0, 1, 142, 108, 163, 107, 68, 188, 3, 7.09188
328, 6, wb, practice, NA, 999, 999, 0, 1, 142, 108, 163, 107, 68, 188, 2, 3.43843
328, 6, wb, practice, NA, 999, 999, 0, 2, 116, 82, 110, 109, 64, 127, 3, 4.79116
328, 6, wb, practice, NA, 999, 999, 0, 2, 116, 82, 110, 109, 64, 127, 2, 2.86988
328, 6, wb, practice, NA, 999, 999, 0, 3, 191, 184, 113, 171, 123, 70, 3, 2.24581
328, 6, wb, practice, NA, 999, 999, 0, 3, 191, 184, 113, 171, 123, 70, 1, 1.74558
328, 6, wb, attraction, a-b-da, 2, 2, 1, 1, 90, 165, 163, 89, 165, 90, 2, 5.06714
328, 6, wb, attraction, a-b-da, 2, 2, 1, 1, 90, 165, 163, 89, 165, 90, 1, 3.58236
328, 6, wb, attraction, a-b-db, 14, 2, 1, 2, 165, 90, 83, 153, 90, 165, 2, 2.09172
328, 6, wb, attraction, a-b-db, 14, 2, 1, 2, 165, 90, 83, 153, 90, 165, 3, 1.37433
328, 6, wb, attraction, a-b-db, 2, 2, 1, 3, 90, 165, 165, 90, 89, 163, 3, 2.57253
328, 6, wb, attraction, a-b-db, 2, 2, 1, 3, 90, 165, 165, 90, 89, 163, 1, 0.515603
328, 6, wb, attraction, a-b-db, 5, 1, 1, 4, 58, 132, 135, 60, 60, 135, 3, 1.3807
328, 6, wb, attraction, a-b-db, 5, 1, 1, 4, 58, 132, 135, 60, 60, 135, 1, 0.35651
328, 6, wb, attraction, a-b-db, 9, 1, 1, 5, 135, 60, 60, 135, 57, 129, 2, 0.723438
328, 6, wb, attraction, a-b-db, 9, 1, 1, 5, 135, 60, 60, 135, 57, 129, 1, 0.981252
328, 6, wb, filler, NA, 999, 999, 1, 6, 85, 70, 178, 75, 172, 67, 1, 1.40352
328, 6, wb, filler, NA, 999, 999, 1, 6, 85, 70, 178, 75, 172, 67, 2, 0.850418
328, 6, wb, attraction, a-b-da, 14, 1, 1, 7, 60, 135, 135, 60, 125, 56, 3, 1.73416
328, 6, wb, attraction, a-b-da, 14, 1, 1, 7, 60, 135, 135, 60, 125, 56, 1, 0.407513
328, 6, wb, attraction, a-b-db, 5, 2, 1, 8, 165, 90, 88, 161, 90, 165, 1, 3.03672
328, 6, wb, attraction, a-b-db, 5, 2, 1, 8, 165, 90, 88, 161, 90, 165, 3, 0.477004
328, 6, wb, attraction, a-b-da, 14, 2, 1, 9, 165, 90, 153, 83, 90, 165, 2, 2.54013
328, 6, wb, attraction, a-b-da, 14, 2, 1, 9, 165, 90, 153, 83, 90, 165, 3, 0.572802
328, 6, wb, attraction, a-b-db, 9, 2, 1, 10, 86, 157, 90, 165, 165, 90, 2, 0.81105
328, 6, wb, attraction, a-b-db, 9, 2, 1, 10, 86, 157, 90, 165, 165, 90, 3, 0.801524
328, 6, wb, attraction, a-b-da, 5, 1, 1, 11, 135, 60, 132, 58, 60, 135, 1, 0.807136
328, 6, wb, attraction, a-b-da, 5, 1, 1, 11, 135, 60, 132, 58, 60, 135, 2, 0.381509
328, 6, wb, filler, NA, 999, 999, 1, 12, 182, 135, 139, 164, 190, 83, 2, 0.555981
328, 6, wb, filler, NA, 999, 999, 1, 12, 182, 135, 139, 164, 190, 83, 3, 0.684481
328, 6, wb, filler, NA, 999, 999, 1, 13, 160, 131, 107, 138, 120, 123, 1, 1.43086
328, 6, wb, filler, NA, 999, 999, 1, 13, 160, 131, 107, 138, 120, 123, 2, 0.308393
328, 6, wb, catch, NA, 999, 999, 1, 14, 131, 184, 119, 76, 156, 99, 2, 1.30955
328, 6, wb, catch, NA, 999, 999, 1, 14, 131, 184, 119, 76, 156, 99, 1, 0.423823
328, 6, wb, attraction, a-b-da, 9, 2, 1, 15, 165, 90, 157, 86, 90, 165, 2, 0.67634
328, 6, wb, attraction, a-b-da, 9, 2, 1, 15, 165, 90, 157, 86, 90, 165, 3, 0.520028
328, 6, wb, attraction, a-b-da, 5, 3, 1, 16, 120, 195, 195, 120, 190, 117, 1, 0.929253
328, 6, wb, attraction, a-b-da, 5, 3, 1, 16, 120, 195, 195, 120, 190, 117, 2, 0.578818
328, 6, wb, attraction, a-b-db, 2, 3, 1, 17, 119, 193, 120, 195, 195, 120, 2, 0.801371
328, 6, wb, attraction, a-b-db, 2, 3, 1, 17, 119, 193, 120, 195, 195, 120, 3, 0.34438
328, 6, wb, attraction, a-b-db, 2, 1, 1, 18, 60, 135, 59, 134, 135, 60, 1, 1.0322
328, 6, wb, attraction, a-b-db, 2, 1, 1, 18, 60, 135, 59, 134, 135, 60, 2, 0.373913
328, 6, wb, filler, NA, 999, 999, 1, 19, 65, 62, 119, 141, 101, 151, 1, 0.740327
328, 6, wb, filler, NA, 999, 999, 1, 19, 65, 62, 119, 141, 101, 151, 2, 0.349433
328, 6, wb, filler, NA, 999, 999, 1, 20, 85, 109, 132, 71, 175, 133, 2, 0.853183
328, 6, wb, filler, NA, 999, 999, 1, 20, 85, 109, 132, 71, 175, 133, 3, 0.506224
328, 6, wb, filler, NA, 999, 999, 1, 21, 82, 91, 150, 145, 167, 149, 1, 0.915317
328, 6, wb, filler, NA, 999, 999, 1, 21, 82, 91, 150, 145, 167, 149, 2, 0.685736
328, 6, wb, filler, NA, 999, 999, 1, 22, 149, 111, 150, 85, 94, 64, 1, 2.8961
328, 6, wb, filler, NA, 999, 999, 1, 22, 149, 111, 150, 85, 94, 64, 3, 1.41866
328, 6, wb, filler, NA, 999, 999, 1, 23, 180, 156, 190, 180, 102, 188, 3, 1.78336
328, 6, wb, filler, NA, 999, 999, 1, 23, 180, 156, 190, 180, 102, 188, 2, 0.302788
328, 6, wb, catch, NA, 999, 999, 1, 24, 129, 186, 134, 61, 118, 137, 2, 0.928675
328, 6, wb, catch, NA, 999, 999, 1, 24, 129, 186, 134, 61, 118, 137, 1, 0.554384
328, 6, wb, attraction, a-b-da, 2, 1, 1, 25, 60, 135, 135, 60, 134, 59, 2, 1.06417
328, 6, wb, attraction, a-b-da, 2, 1, 1, 25, 60, 135, 135, 60, 134, 59, 3, 0.246416
328, 6, wb, attraction, a-b-db, 9, 3, 1, 26, 120, 195, 114, 186, 195, 120, 3, 2.95428
328, 6, wb, attraction, a-b-db, 9, 3, 1, 26, 120, 195, 114, 186, 195, 120, 1, 0.298634
328, 6, wb, filler, NA, 999, 999, 1, 27, 122, 147, 177, 139, 186, 153, 2, 0.820436
328, 6, wb, filler, NA, 999, 999, 1, 27, 122, 147, 177, 139, 186, 153, 3, 0.298862
328, 6, wb, attraction, a-b-db, 5, 3, 1, 28, 120, 195, 195, 120, 117, 190, 1, 0.596704
328, 6, wb, attraction, a-b-db, 5, 3, 1, 28, 120, 195, 195, 120, 117, 190, 3, 0.32383
328, 6, wb, attraction, a-b-db, 14, 1, 1, 29, 135, 60, 60, 135, 56, 125, 2, 0.916386
328, 6, wb, attraction, a-b-db, 14, 1, 1, 29, 135, 60, 60, 135, 56, 125, 1, 0.286662
328, 6, wb, catch, NA, 999, 999, 1, 30, 164, 91, 187, 128, 102, 93, 3, 0.5292
328, 6, wb, catch, NA, 999, 999, 1, 30, 164, 91, 187, 128, 102, 93, 2, 0.69908
328, 6, wb, attraction, a-b-da, 9, 1, 1, 31, 135, 60, 60, 135, 129, 57, 1, 0.644717
328, 6, wb, attraction, a-b-da, 9, 1, 1, 31, 135, 60, 60, 135, 129, 57, 3, 0.745923
328, 6, wb, attraction, a-b-da, 9, 3, 1, 32, 186, 114, 195, 120, 120, 195, 2, 0.545527
328, 6, wb, attraction, a-b-da, 9, 3, 1, 32, 186, 114, 195, 120, 120, 195, 3, 0.474739
328, 6, wb, attraction, a-b-da, 2, 3, 1, 33, 193, 119, 120, 195, 195, 120, 3, 1.42109
328, 6, wb, attraction, a-b-da, 2, 3, 1, 33, 193, 119, 120, 195, 195, 120, 2, 0.35483
328, 6, wb, attraction, a-b-da, 14, 3, 1, 34, 181, 111, 195, 120, 120, 195, 1, 0.762468
328, 6, wb, attraction, a-b-da, 14, 3, 1, 34, 181, 111, 195, 120, 120, 195, 3, 0.490909
328, 6, wb, attraction, a-b-da, 5, 2, 1, 35, 161, 88, 90, 165, 165, 90, 2, 0.884645
328, 6, wb, attraction, a-b-da, 5, 2, 1, 35, 161, 88, 90, 165, 165, 90, 3, 0.480366
328, 6, wb, attraction, a-b-db, 14, 3, 1, 36, 111, 181, 195, 120, 120, 195, 2, 0.83487
328, 6, wb, attraction, a-b-db, 14, 3, 1, 36, 111, 181, 195, 120, 120, 195, 3, 0.280534
328, 6, wb, filler, NA, 999, 999, 1, 37, 147, 75, 128, 61, 125, 69, 1, 0.711782
328, 6, wb, filler, NA, 999, 999, 1, 37, 147, 75, 128, 61, 125, 69, 3, 1.7335
328, 6, wb, catch, NA, 999, 999, 2, 1, 167, 148, 108, 87, 165, 90, 2, 0.805571
328, 6, wb, catch, NA, 999, 999, 2, 1, 167, 148, 108, 87, 165, 90, 1, 0.28388
328, 6, wb, filler, NA, 999, 999, 2, 2, 135, 97, 167, 154, 119, 175, 1, 0.814473
328, 6, wb, filler, NA, 999, 999, 2, 2, 135, 97, 167, 154, 119, 175, 2, 0.260837
328, 6, wb, filler, NA, 999, 999, 2, 3, 192, 180, 172, 154, 151, 169, 2, 1.70406
328, 6, wb, filler, NA, 999, 999, 2, 3, 192, 180, 172, 154, 151, 169, 1, 0.0899334
328, 6, wb, attraction, a-b-db, 14, 3, 2, 4, 111, 181, 195, 120, 120, 195, 3, 1.20408
328, 6, wb, attraction, a-b-db, 14, 3, 2, 4, 111, 181, 195, 120, 120, 195, 2, 0.634295
328, 6, wb, attraction, a-b-db, 5, 3, 2, 5, 117, 190, 195, 120, 120, 195, 1, 0.966721
328, 6, wb, attraction, a-b-db, 5, 3, 2, 5, 117, 190, 195, 120, 120, 195, 3, 0.615117
328, 6, wb, attraction, a-b-db, 2, 1, 2, 6, 135, 60, 60, 135, 59, 134, 1, 0.636135
328, 6, wb, attraction, a-b-db, 2, 1, 2, 6, 135, 60, 60, 135, 59, 134, 3, 0.834041
328, 6, wb, attraction, a-b-da, 9, 2, 2, 7, 165, 90, 90, 165, 157, 86, 1, 0.622314
328, 6, wb, attraction, a-b-da, 9, 2, 2, 7, 165, 90, 90, 165, 157, 86, 2, 0.276208
328, 6, wb, filler, NA, 999, 999, 2, 8, 167, 118, 58, 180, 174, 64, 2, 0.742522
328, 6, wb, filler, NA, 999, 999, 2, 8, 167, 118, 58, 180, 174, 64, 1, 0.40774
328, 6, wb, filler, NA, 999, 999, 2, 9, 112, 113, 71, 67, 82, 135, 2, 1.50883
328, 6, wb, filler, NA, 999, 999, 2, 9, 112, 113, 71, 67, 82, 135, 1, 0.33498
328, 6, wb, attraction, a-b-da, 2, 1, 2, 10, 134, 59, 135, 60, 60, 135, 2, 0.975434
328, 6, wb, attraction, a-b-da, 2, 1, 2, 10, 134, 59, 135, 60, 60, 135, 3, 0.399108
328, 6, wb, attraction, a-b-db, 2, 2, 2, 11, 89, 163, 90, 165, 165, 90, 2, 0.821099
328, 6, wb, attraction, a-b-db, 2, 2, 2, 11, 89, 163, 90, 165, 165, 90, 3, 1.47462
328, 6, wb, filler, NA, 999, 999, 2, 12, 101, 148, 143, 91, 56, 89, 3, 1.15684
328, 6, wb, filler, NA, 999, 999, 2, 12, 101, 148, 143, 91, 56, 89, 2, 0.597093
328, 6, wb, attraction, a-b-db, 2, 3, 2, 13, 119, 193, 120, 195, 195, 120, 3, 1.4429
328, 6, wb, attraction, a-b-db, 2, 3, 2, 13, 119, 193, 120, 195, 195, 120, 2, 0.583682
328, 6, wb, catch, NA, 999, 999, 2, 14, 121, 74, 182, 133, 107, 148, 1, 2.00611
328, 6, wb, catch, NA, 999, 999, 2, 14, 121, 74, 182, 133, 107, 148, 2, 0.252183
328, 6, wb, attraction, a-b-db, 9, 2, 2, 15, 86, 157, 165, 90, 90, 165, 2, 0.76003
328, 6, wb, attraction, a-b-db, 9, 2, 2, 15, 86, 157, 165, 90, 90, 165, 3, 0.528509
328, 6, wb, attraction, a-b-db, 5, 1, 2, 16, 60, 135, 135, 60, 58, 132, 1, 0.728806
328, 6, wb, attraction, a-b-db, 5, 1, 2, 16, 60, 135, 135, 60, 58, 132, 3, 0.690586
328, 6, wb, attraction, a-b-da, 2, 3, 2, 17, 195, 120, 120, 195, 193, 119, 2, 0.62034
328, 6, wb, attraction, a-b-da, 2, 3, 2, 17, 195, 120, 120, 195, 193, 119, 3, 0.842782
328, 6, wb, attraction, a-b-da, 5, 2, 2, 18, 165, 90, 161, 88, 90, 165, 1, 0.806437
328, 6, wb, attraction, a-b-da, 5, 2, 2, 18, 165, 90, 161, 88, 90, 165, 2, 0.597015
328, 6, wb, filler, NA, 999, 999, 2, 19, 59, 86, 106, 94, 133, 103, 1, 2.77056
328, 6, wb, filler, NA, 999, 999, 2, 19, 59, 86, 106, 94, 133, 103, 3, 0.538363
328, 6, wb, attraction, a-b-da, 9, 3, 2, 20, 195, 120, 120, 195, 186, 114, 1, 1.4268
328, 6, wb, attraction, a-b-da, 9, 3, 2, 20, 195, 120, 120, 195, 186, 114, 2, 0.376384
328, 6, wb, filler, NA, 999, 999, 2, 21, 177, 170, 140, 179, 77, 163, 3, 0.750861
328, 6, wb, filler, NA, 999, 999, 2, 21, 177, 170, 140, 179, 77, 163, 2, 0.319887
328, 6, wb, attraction, a-b-db, 14, 1, 2, 22, 135, 60, 56, 125, 60, 135, 2, 1.10503
328, 6, wb, attraction, a-b-db, 14, 1, 2, 22, 135, 60, 56, 125, 60, 135, 1, 0.739425
328, 6, wb, attraction, a-b-da, 5, 1, 2, 23, 60, 135, 132, 58, 135, 60, 2, 0.755029
328, 6, wb, attraction, a-b-da, 5, 1, 2, 23, 60, 135, 132, 58, 135, 60, 1, 0.915458
328, 6, wb, attraction, a-b-da, 5, 3, 2, 24, 120, 195, 195, 120, 190, 117, 2, 1.25244
328, 6, wb, attraction, a-b-da, 5, 3, 2, 24, 120, 195, 195, 120, 190, 117, 1, 0.577387
328, 6, wb, attraction, a-b-da, 2, 2, 2, 25, 165, 90, 163, 89, 90, 165, 1, 0.839725
328, 6, wb, attraction, a-b-da, 2, 2, 2, 25, 165, 90, 163, 89, 90, 165, 3, 0.52482
328, 6, wb, catch, NA, 999, 999, 2, 26, 160, 95, 163, 152, 127, 68, 3, 1.22135
328, 6, wb, catch, NA, 999, 999, 2, 26, 160, 95, 163, 152, 127, 68, 2, 0.314886
328, 6, wb, attraction, a-b-db, 14, 2, 2, 27, 83, 153, 165, 90, 90, 165, 3, 1.23621
328, 6, wb, attraction, a-b-db, 14, 2, 2, 27, 83, 153, 165, 90, 90, 165, 2, 2.20167
328, 6, wb, filler, NA, 999, 999, 2, 28, 175, 116, 172, 130, 178, 106, 3, 1.02289
328, 6, wb, filler, NA, 999, 999, 2, 28, 175, 116, 172, 130, 178, 106, 2, 1.06861
328, 6, wb, attraction, a-b-db, 9, 1, 2, 29, 60, 135, 57, 129, 135, 60, 2, 0.90354
328, 6, wb, attraction, a-b-db, 9, 1, 2, 29, 60, 135, 57, 129, 135, 60, 3, 0.97858
328, 6, wb, filler, NA, 999, 999, 2, 30, 129, 65, 166, 146, 100, 76, 1, 0.96883
328, 6, wb, filler, NA, 999, 999, 2, 30, 129, 65, 166, 146, 100, 76, 2, 0.793145
328, 6, wb, attraction, a-b-db, 5, 2, 2, 31, 90, 165, 88, 161, 165, 90, 3, 2.77498
328, 6, wb, attraction, a-b-db, 5, 2, 2, 31, 90, 165, 88, 161, 165, 90, 2, 0.629981
328, 6, wb, attraction, a-b-db, 9, 3, 2, 32, 120, 195, 195, 120, 114, 186, 1, 0.570403
328, 6, wb, attraction, a-b-db, 9, 3, 2, 32, 120, 195, 195, 120, 114, 186, 3, 1.57812
328, 6, wb, filler, NA, 999, 999, 2, 33, 147, 155, 97, 146, 192, 181, 2, 0.752246
328, 6, wb, filler, NA, 999, 999, 2, 33, 147, 155, 97, 146, 192, 181, 3, 0.497425
328, 6, wb, attraction, a-b-da, 9, 1, 2, 34, 135, 60, 60, 135, 129, 57, 1, 1.01908
328, 6, wb, attraction, a-b-da, 9, 1, 2, 34, 135, 60, 60, 135, 129, 57, 2, 0.329468
328, 6, wb, attraction, a-b-da, 14, 2, 2, 35, 165, 90, 153, 83, 90, 165, 1, 0.945886
328, 6, wb, attraction, a-b-da, 14, 2, 2, 35, 165, 90, 153, 83, 90, 165, 3, 0.290974
328, 6, wb, attraction, a-b-da, 14, 1, 2, 36, 125, 56, 60, 135, 135, 60, 1, 0.820872
328, 6, wb, attraction, a-b-da, 14, 1, 2, 36, 125, 56, 60, 135, 135, 60, 2, 0.434625
328, 6, wb, attraction, a-b-da, 14, 3, 2, 37, 120, 195, 195, 120, 181, 111, 3, 0.807038
328, 6, wb, attraction, a-b-da, 14, 3, 2, 37, 120, 195, 195, 120, 181, 111, 1, 0.461396
328, 6, wb, attraction, a-b-da, 14, 3, 3, 1, 181, 111, 195, 120, 120, 195, 1, 2.15043
328, 6, wb, attraction, a-b-da, 14, 3, 3, 1, 181, 111, 195, 120, 120, 195, 3, 0.201106
328, 6, wb, filler, NA, 999, 999, 3, 2, 190, 77, 69, 88, 139, 132, 2, 0.943092
328, 6, wb, filler, NA, 999, 999, 3, 2, 190, 77, 69, 88, 139, 132, 3, 0.608038
328, 6, wb, attraction, a-b-db, 5, 2, 3, 3, 88, 161, 90, 165, 165, 90, 2, 1.26114
328, 6, wb, attraction, a-b-db, 5, 2, 3, 3, 88, 161, 90, 165, 165, 90, 3, 0.28141
328, 6, wb, attraction, a-b-db, 2, 1, 3, 4, 135, 60, 59, 134, 60, 135, 1, 0.66001
328, 6, wb, attraction, a-b-db, 2, 1, 3, 4, 135, 60, 59, 134, 60, 135, 3, 0.768406
328, 6, wb, filler, NA, 999, 999, 3, 5, 167, 192, 116, 161, 158, 125, 2, 0.879317
328, 6, wb, filler, NA, 999, 999, 3, 5, 167, 192, 116, 161, 158, 125, 1, 0.0967715
328, 6, wb, attraction, a-b-da, 9, 2, 3, 6, 165, 90, 157, 86, 90, 165, 2, 1.66095
328, 6, wb, attraction, a-b-da, 9, 2, 3, 6, 165, 90, 157, 86, 90, 165, 1, 0.313045
328, 6, wb, attraction, a-b-da, 9, 3, 3, 7, 120, 195, 195, 120, 186, 114, 2, 0.52224
328, 6, wb, attraction, a-b-da, 9, 3, 3, 7, 120, 195, 195, 120, 186, 114, 3, 0.292028
328, 6, wb, attraction, a-b-db, 5, 3, 3, 8, 120, 195, 195, 120, 117, 190, 1, 0.637884
328, 6, wb, attraction, a-b-db, 5, 3, 3, 8, 120, 195, 195, 120, 117, 190, 2, 0.258987
328, 6, wb, attraction, a-b-db, 14, 2, 3, 9, 83, 153, 90, 165, 165, 90, 1, 0.53418
328, 6, wb, attraction, a-b-db, 14, 2, 3, 9, 83, 153, 90, 165, 165, 90, 3, 0.704
328, 6, wb, catch, NA, 999, 999, 3, 10, 90, 105, 187, 128, 95, 160, 1, 0.801762
328, 6, wb, catch, NA, 999, 999, 3, 10, 90, 105, 187, 128, 95, 160, 2, 0.576808
328, 6, wb, attraction, a-b-db, 9, 2, 3, 11, 165, 90, 86, 157, 90, 165, 2, 0.711188
328, 6, wb, attraction, a-b-db, 9, 2, 3, 11, 165, 90, 86, 157, 90, 165, 1, 1.25363
328, 6, wb, filler, NA, 999, 999, 3, 12, 99, 74, 90, 191, 125, 79, 1, 2.50117
328, 6, wb, filler, NA, 999, 999, 3, 12, 99, 74, 90, 191, 125, 79, 2, 0.767719
328, 6, wb, catch, NA, 999, 999, 3, 13, 94, 161, 103, 92, 163, 152, 2, 1.90272
328, 6, wb, catch, NA, 999, 999, 3, 13, 94, 161, 103, 92, 163, 152, 3, 0.609459
328, 6, wb, catch, NA, 999, 999, 3, 14, 132, 183, 141, 114, 128, 67, 3, 1.21456
328, 6, wb, catch, NA, 999, 999, 3, 14, 132, 183, 141, 114, 128, 67, 1, 0.324868
328, 6, wb, attraction, a-b-db, 14, 3, 3, 15, 111, 181, 195, 120, 120, 195, 2, 0.73327
328, 6, wb, attraction, a-b-db, 14, 3, 3, 15, 111, 181, 195, 120, 120, 195, 3, 0.311038
328, 6, wb, attraction, a-b-da, 5, 3, 3, 16, 195, 120, 120, 195, 190, 117, 1, 1.72828
328, 6, wb, attraction, a-b-da, 5, 3, 3, 16, 195, 120, 120, 195, 190, 117, 2, 0.329667
328, 6, wb, attraction, a-b-da, 2, 3, 3, 17, 120, 195, 193, 119, 195, 120, 2, 0.978149
328, 6, wb, attraction, a-b-da, 2, 3, 3, 17, 120, 195, 193, 119, 195, 120, 1, 0.537852
328, 6, wb, filler, NA, 999, 999, 3, 18, 124, 107, 109, 60, 64, 94, 2, 0.626435
328, 6, wb, filler, NA, 999, 999, 3, 18, 124, 107, 109, 60, 64, 94, 1, 0.376222
328, 6, wb, filler, NA, 999, 999, 3, 19, 168, 82, 130, 86, 173, 154, 2, 0.710571
328, 6, wb, filler, NA, 999, 999, 3, 19, 168, 82, 130, 86, 173, 154, 3, 0.592961
328, 6, wb, attraction, a-b-db, 2, 3, 3, 20, 119, 193, 120, 195, 195, 120, 2, 0.454729
328, 6, wb, attraction, a-b-db, 2, 3, 3, 20, 119, 193, 120, 195, 195, 120, 3, 0.587202
328, 6, wb, filler, NA, 999, 999, 3, 21, 118, 195, 169, 124, 166, 97, 2, 0.369731
328, 6, wb, filler, NA, 999, 999, 3, 21, 118, 195, 169, 124, 166, 97, 3, 0.650164
328, 6, wb, attraction, a-b-da, 5, 2, 3, 22, 161, 88, 90, 165, 165, 90, 2, 0.437963
328, 6, wb, attraction, a-b-da, 5, 2, 3, 22, 161, 88, 90, 165, 165, 90, 3, 0.507094
328, 6, wb, filler, NA, 999, 999, 3, 23, 158, 187, 172, 180, 65, 99, 3, 1.18815
328, 6, wb, filler, NA, 999, 999, 3, 23, 158, 187, 172, 180, 65, 99, 2, 0.371206
328, 6, wb, filler, NA, 999, 999, 3, 24, 134, 102, 73, 182, 143, 74, 2, 0.842301
328, 6, wb, filler, NA, 999, 999, 3, 24, 134, 102, 73, 182, 143, 74, 1, 0.527365
328, 6, wb, attraction, a-b-db, 14, 1, 3, 25, 135, 60, 60, 135, 56, 125, 3, 0.663828
328, 6, wb, attraction, a-b-db, 14, 1, 3, 25, 135, 60, 60, 135, 56, 125, 1, 0.580225
328, 6, wb, attraction, a-b-db, 9, 1, 3, 26, 57, 129, 60, 135, 135, 60, 2, 0.450655
328, 6, wb, attraction, a-b-db, 9, 1, 3, 26, 57, 129, 60, 135, 135, 60, 3, 0.631814
328, 6, wb, attraction, a-b-da, 2, 1, 3, 27, 134, 59, 135, 60, 60, 135, 1, 0.588307
328, 6, wb, attraction, a-b-da, 2, 1, 3, 27, 134, 59, 135, 60, 60, 135, 2, 0.515363
328, 6, wb, attraction, a-b-db, 2, 2, 3, 28, 165, 90, 89, 163, 90, 165, 3, 0.668498
328, 6, wb, attraction, a-b-db, 2, 2, 3, 28, 165, 90, 89, 163, 90, 165, 2, 0.881002
328, 6, wb, attraction, a-b-db, 5, 1, 3, 29, 135, 60, 60, 135, 58, 132, 1, 0.864147
328, 6, wb, attraction, a-b-db, 5, 1, 3, 29, 135, 60, 60, 135, 58, 132, 2, 0.663631
328, 6, wb, filler, NA, 999, 999, 3, 30, 185, 70, 176, 159, 183, 164, 1, 2.00263
328, 6, wb, filler, NA, 999, 999, 3, 30, 185, 70, 176, 159, 183, 164, 2, 0.521355
328, 6, wb, attraction, a-b-da, 2, 2, 3, 31, 165, 90, 163, 89, 90, 165, 2, 0.986467
328, 6, wb, attraction, a-b-da, 2, 2, 3, 31, 165, 90, 163, 89, 90, 165, 3, 1.05833
328, 6, wb, attraction, a-b-da, 5, 1, 3, 32, 132, 58, 135, 60, 60, 135, 2, 1.27696
328, 6, wb, attraction, a-b-da, 5, 1, 3, 32, 132, 58, 135, 60, 60, 135, 1, 0.584576
328, 6, wb, attraction, a-b-da, 14, 1, 3, 33, 60, 135, 125, 56, 135, 60, 2, 1.82168
328, 6, wb, attraction, a-b-da, 14, 1, 3, 33, 60, 135, 125, 56, 135, 60, 1, 0.47643
328, 6, wb, attraction, a-b-db, 9, 3, 3, 34, 120, 195, 195, 120, 114, 186, 2, 0.919013
328, 6, wb, attraction, a-b-db, 9, 3, 3, 34, 120, 195, 195, 120, 114, 186, 1, 0.409328
328, 6, wb, attraction, a-b-da, 14, 2, 3, 35, 153, 83, 165, 90, 90, 165, 2, 1.42243
328, 6, wb, attraction, a-b-da, 14, 2, 3, 35, 153, 83, 165, 90, 90, 165, 3, 0.355985
328, 6, wb, filler, NA, 999, 999, 3, 36, 177, 100, 63, 61, 85, 61, 2, 1.37907
328, 6, wb, filler, NA, 999, 999, 3, 36, 177, 100, 63, 61, 85, 61, 1, 0.346601
328, 6, wb, attraction, a-b-da, 9, 1, 3, 37, 129, 57, 135, 60, 60, 135, 3, 1.32244
328, 6, wb, attraction, a-b-da, 9, 1, 3, 37, 129, 57, 135, 60, 60, 135, 2, 0.700035
328, 6, wb, attraction, a-b-da, 5, 3, 4, 1, 190, 117, 195, 120, 120, 195, 1, 1.13396
328, 6, wb, attraction, a-b-da, 5, 3, 4, 1, 190, 117, 195, 120, 120, 195, 3, 0.543518
328, 6, wb, attraction, a-b-db, 5, 2, 4, 2, 88, 161, 90, 165, 165, 90, 2, 0.615201
328, 6, wb, attraction, a-b-db, 5, 2, 4, 2, 88, 161, 90, 165, 165, 90, 3, 0.757654
328, 6, wb, catch, NA, 999, 999, 4, 3, 126, 189, 85, 110, 111, 144, 2, 0.700634
328, 6, wb, catch, NA, 999, 999, 4, 3, 126, 189, 85, 110, 111, 144, 1, 0.591754
328, 6, wb, filler, NA, 999, 999, 4, 4, 135, 65, 72, 160, 181, 111, 1, 0.917467
328, 6, wb, filler, NA, 999, 999, 4, 4, 135, 65, 72, 160, 181, 111, 3, 0.431818
328, 6, wb, filler, NA, 999, 999, 4, 5, 121, 188, 194, 178, 131, 117, 3, 0.95633
328, 6, wb, filler, NA, 999, 999, 4, 5, 121, 188, 194, 178, 131, 117, 2, 0.316596
328, 6, wb, attraction, a-b-db, 9, 3, 4, 6, 195, 120, 114, 186, 120, 195, 1, 0.749756
328, 6, wb, attraction, a-b-db, 9, 3, 4, 6, 195, 120, 114, 186, 120, 195, 2, 0.366901
328, 6, wb, attraction, a-b-da, 9, 3, 4, 7, 195, 120, 186, 114, 120, 195, 2, 0.982117
328, 6, wb, attraction, a-b-da, 9, 3, 4, 7, 195, 120, 186, 114, 120, 195, 3, 0.677737
328, 6, wb, catch, NA, 999, 999, 4, 8, 94, 161, 62, 133, 166, 149, 2, 1.93619
328, 6, wb, catch, NA, 999, 999, 4, 8, 94, 161, 62, 133, 166, 149, 3, 0.745606
328, 6, wb, attraction, a-b-da, 14, 1, 4, 9, 60, 135, 125, 56, 135, 60, 2, 0.873176
328, 6, wb, attraction, a-b-da, 14, 1, 4, 9, 60, 135, 125, 56, 135, 60, 3, 0.412893
328, 6, wb, attraction, a-b-da, 5, 2, 4, 10, 165, 90, 90, 165, 161, 88, 2, 0.842024
328, 6, wb, attraction, a-b-da, 5, 2, 4, 10, 165, 90, 90, 165, 161, 88, 3, 0.583094
328, 6, wb, filler, NA, 999, 999, 4, 11, 181, 176, 109, 111, 107, 146, 2, 1.18147
328, 6, wb, filler, NA, 999, 999, 4, 11, 181, 176, 109, 111, 107, 146, 1, 0.341062
328, 6, wb, attraction, a-b-db, 14, 2, 4, 12, 83, 153, 90, 165, 165, 90, 1, 0.94904
328, 6, wb, attraction, a-b-db, 14, 2, 4, 12, 83, 153, 90, 165, 165, 90, 3, 0.565943
328, 6, wb, attraction, a-b-db, 2, 2, 4, 13, 90, 165, 165, 90, 89, 163, 2, 0.797129
328, 6, wb, attraction, a-b-db, 2, 2, 4, 13, 90, 165, 165, 90, 89, 163, 3, 0.788387
328, 6, wb, attraction, a-b-db, 14, 1, 4, 14, 60, 135, 56, 125, 135, 60, 2, 0.586514
328, 6, wb, attraction, a-b-db, 14, 1, 4, 14, 60, 135, 56, 125, 135, 60, 3, 1.12233
328, 6, wb, attraction, a-b-da, 14, 3, 4, 15, 181, 111, 120, 195, 195, 120, 2, 0.563258
328, 6, wb, attraction, a-b-da, 14, 3, 4, 15, 181, 111, 120, 195, 195, 120, 3, 0.379722
328, 6, wb, attraction, a-b-da, 9, 1, 4, 16, 129, 57, 60, 135, 135, 60, 2, 0.650096
328, 6, wb, attraction, a-b-da, 9, 1, 4, 16, 129, 57, 60, 135, 135, 60, 3, 0.999296
328, 6, wb, attraction, a-b-db, 9, 2, 4, 17, 165, 90, 90, 165, 86, 157, 2, 0.532942
328, 6, wb, attraction, a-b-db, 9, 2, 4, 17, 165, 90, 90, 165, 86, 157, 1, 0.478719
328, 6, wb, filler, NA, 999, 999, 4, 18, 159, 146, 162, 127, 183, 80, 3, 0.961167
328, 6, wb, filler, NA, 999, 999, 4, 18, 159, 146, 162, 127, 183, 80, 1, 0.641484
328, 6, wb, attraction, a-b-db, 14, 3, 4, 19, 120, 195, 111, 181, 195, 120, 2, 0.901285
328, 6, wb, attraction, a-b-db, 14, 3, 4, 19, 120, 195, 111, 181, 195, 120, 3, 0.33628
328, 6, wb, filler, NA, 999, 999, 4, 20, 159, 129, 114, 89, 163, 108, 2, 0.792801
328, 6, wb, filler, NA, 999, 999, 4, 20, 159, 129, 114, 89, 163, 108, 1, 0.871812
328, 6, wb, attraction, a-b-da, 2, 1, 4, 21, 134, 59, 60, 135, 135, 60, 2, 0.522866
328, 6, wb, attraction, a-b-da, 2, 1, 4, 21, 134, 59, 60, 135, 135, 60, 3, 0.452645
328, 6, wb, attraction, a-b-db, 5, 1, 4, 22, 60, 135, 58, 132, 135, 60, 2, 1.56848
328, 6, wb, attraction, a-b-db, 5, 1, 4, 22, 60, 135, 58, 132, 135, 60, 3, 0.424598
328, 6, wb, attraction, a-b-db, 2, 3, 4, 23, 195, 120, 120, 195, 119, 193, 2, 0.829119
328, 6, wb, attraction, a-b-db, 2, 3, 4, 23, 195, 120, 120, 195, 119, 193, 1, 0.322783
328, 6, wb, attraction, a-b-db, 2, 1, 4, 24, 59, 134, 135, 60, 60, 135, 2, 0.77939
328, 6, wb, attraction, a-b-db, 2, 1, 4, 24, 59, 134, 135, 60, 60, 135, 3, 0.731148
328, 6, wb, filler, NA, 999, 999, 4, 25, 187, 195, 168, 149, 192, 92, 3, 1.17138
328, 6, wb, filler, NA, 999, 999, 4, 25, 187, 195, 168, 149, 192, 92, 1, 0.594983
328, 6, wb, attraction, a-b-da, 2, 3, 4, 26, 120, 195, 195, 120, 193, 119, 2, 0.664747
328, 6, wb, attraction, a-b-da, 2, 3, 4, 26, 120, 195, 195, 120, 193, 119, 3, 0.365156
328, 6, wb, attraction, a-b-db, 9, 1, 4, 27, 60, 135, 57, 129, 135, 60, 2, 0.828281
328, 6, wb, attraction, a-b-db, 9, 1, 4, 27, 60, 135, 57, 129, 135, 60, 3, 0.930103
328, 6, wb, attraction, a-b-da, 5, 1, 4, 28, 135, 60, 132, 58, 60, 135, 2, 0.562306
328, 6, wb, attraction, a-b-da, 5, 1, 4, 28, 135, 60, 132, 58, 60, 135, 3, 0.930883
328, 6, wb, filler, NA, 999, 999, 4, 29, 106, 111, 57, 165, 147, 116, 2, 0.667135
328, 6, wb, filler, NA, 999, 999, 4, 29, 106, 111, 57, 165, 147, 116, 3, 0.407581
328, 6, wb, filler, NA, 999, 999, 4, 30, 103, 89, 102, 144, 147, 174, 1, 0.908779
328, 6, wb, filler, NA, 999, 999, 4, 30, 103, 89, 102, 144, 147, 174, 2, 0.311106
328, 6, wb, catch, NA, 999, 999, 4, 31, 139, 176, 89, 106, 113, 142, 2, 0.896286
328, 6, wb, catch, NA, 999, 999, 4, 31, 139, 176, 89, 106, 113, 142, 1, 0.33128
328, 6, wb, attraction, a-b-db, 5, 3, 4, 32, 117, 190, 120, 195, 195, 120, 3, 1.07594
328, 6, wb, attraction, a-b-db, 5, 3, 4, 32, 117, 190, 120, 195, 195, 120, 2, 0.863457
328, 6, wb, filler, NA, 999, 999, 4, 33, 80, 161, 160, 93, 172, 134, 2, 0.954365
328, 6, wb, filler, NA, 999, 999, 4, 33, 80, 161, 160, 93, 172, 134, 3, 0.498766
328, 6, wb, attraction, a-b-da, 14, 2, 4, 34, 153, 83, 90, 165, 165, 90, 1, 1.2606
328, 6, wb, attraction, a-b-da, 14, 2, 4, 34, 153, 83, 90, 165, 165, 90, 2, 0.28886
328, 6, wb, filler, NA, 999, 999, 4, 35, 194, 105, 136, 61, 110, 139, 2, 1.57938
328, 6, wb, filler, NA, 999, 999, 4, 35, 194, 105, 136, 61, 110, 139, 1, 0.530784
328, 6, wb, attraction, a-b-da, 9, 2, 4, 36, 90, 165, 157, 86, 165, 90, 2, 0.715232
328, 6, wb, attraction, a-b-da, 9, 2, 4, 36, 90, 165, 157, 86, 165, 90, 3, 0.38974
328, 6, wb, attraction, a-b-da, 2, 2, 4, 37, 90, 165, 165, 90, 163, 89, 1, 0.523514
328, 6, wb, attraction, a-b-da, 2, 2, 4, 37, 90, 165, 165, 90, 163, 89, 3, 0.789328
328, 6, wb, attraction, a-b-da, 14, 1, 5, 1, 135, 60, 60, 135, 125, 56, 2, 1.9777
328, 6, wb, attraction, a-b-da, 14, 1, 5, 1, 135, 60, 60, 135, 125, 56, 1, 1.00104
328, 6, wb, attraction, a-b-db, 5, 3, 5, 2, 120, 195, 117, 190, 195, 120, 2, 0.966579
328, 6, wb, attraction, a-b-db, 5, 3, 5, 2, 120, 195, 117, 190, 195, 120, 3, 0.926941
328, 6, wb, filler, NA, 999, 999, 5, 3, 194, 159, 190, 183, 107, 90, 3, 1.04728
328, 6, wb, filler, NA, 999, 999, 5, 3, 194, 159, 190, 183, 107, 90, 2, 0.332343
328, 6, wb, filler, NA, 999, 999, 5, 4, 130, 180, 109, 193, 187, 117, 2, 0.748806
328, 6, wb, filler, NA, 999, 999, 5, 4, 130, 180, 109, 193, 187, 117, 3, 0.341802
328, 6, wb, attraction, a-b-db, 14, 2, 5, 5, 83, 153, 90, 165, 165, 90, 1, 0.62966
328, 6, wb, attraction, a-b-db, 14, 2, 5, 5, 83, 153, 90, 165, 165, 90, 3, 0.323421
328, 6, wb, catch, NA, 999, 999, 5, 6, 108, 147, 168, 147, 126, 69, 3, 1.04392
328, 6, wb, catch, NA, 999, 999, 5, 6, 108, 147, 168, 147, 126, 69, 2, 0.321019
328, 6, wb, attraction, a-b-db, 14, 3, 5, 7, 195, 120, 120, 195, 111, 181, 1, 1.37013
328, 6, wb, attraction, a-b-db, 14, 3, 5, 7, 195, 120, 120, 195, 111, 181, 2, 0.546269
328, 6, wb, attraction, a-b-db, 9, 3, 5, 8, 114, 186, 120, 195, 195, 120, 1, 0.738065
328, 6, wb, attraction, a-b-db, 9, 3, 5, 8, 114, 186, 120, 195, 195, 120, 3, 0.483115
328, 6, wb, filler, NA, 999, 999, 5, 9, 192, 139, 184, 99, 190, 171, 2, 0.724838
328, 6, wb, filler, NA, 999, 999, 5, 9, 192, 139, 184, 99, 190, 171, 3, 0.367336
328, 6, wb, attraction, a-b-db, 9, 1, 5, 10, 60, 135, 135, 60, 57, 129, 2, 0.918478
328, 6, wb, attraction, a-b-db, 9, 1, 5, 10, 60, 135, 135, 60, 57, 129, 1, 0.600957
328, 6, wb, filler, NA, 999, 999, 5, 11, 193, 114, 111, 134, 176, 143, 2, 0.47069
328, 6, wb, filler, NA, 999, 999, 5, 11, 193, 114, 111, 134, 176, 143, 3, 0.490508
328, 6, wb, catch, NA, 999, 999, 5, 12, 104, 151, 132, 63, 183, 132, 2, 0.444193
328, 6, wb, catch, NA, 999, 999, 5, 12, 104, 151, 132, 63, 183, 132, 3, 0.458744
328, 6, wb, attraction, a-b-db, 2, 2, 5, 13, 89, 163, 90, 165, 165, 90, 2, 0.540538
328, 6, wb, attraction, a-b-db, 2, 2, 5, 13, 89, 163, 90, 165, 165, 90, 3, 0.35774
328, 6, wb, attraction, a-b-da, 5, 2, 5, 14, 90, 165, 165, 90, 161, 88, 2, 0.492849
328, 6, wb, attraction, a-b-da, 5, 2, 5, 14, 90, 165, 165, 90, 161, 88, 3, 0.344024
328, 6, wb, attraction, a-b-da, 9, 1, 5, 15, 60, 135, 129, 57, 135, 60, 2, 0.735902
328, 6, wb, attraction, a-b-da, 9, 1, 5, 15, 60, 135, 129, 57, 135, 60, 3, 1.12969
328, 6, wb, attraction, a-b-db, 5, 2, 5, 16, 90, 165, 165, 90, 88, 161, 2, 0.305806
328, 6, wb, attraction, a-b-db, 5, 2, 5, 16, 90, 165, 165, 90, 88, 161, 3, 1.03646
328, 6, wb, attraction, a-b-db, 5, 1, 5, 17, 58, 132, 135, 60, 60, 135, 2, 0.504613
328, 6, wb, attraction, a-b-db, 5, 1, 5, 17, 58, 132, 135, 60, 60, 135, 3, 0.73921
328, 6, wb, attraction, a-b-db, 2, 3, 5, 18, 120, 195, 119, 193, 195, 120, 2, 0.547503
328, 6, wb, attraction, a-b-db, 2, 3, 5, 18, 120, 195, 119, 193, 195, 120, 3, 0.596649
328, 6, wb, attraction, a-b-da, 5, 1, 5, 19, 132, 58, 60, 135, 135, 60, 2, 0.474303
328, 6, wb, attraction, a-b-da, 5, 1, 5, 19, 132, 58, 60, 135, 135, 60, 3, 1.05424
328, 6, wb, attraction, a-b-da, 2, 2, 5, 20, 163, 89, 90, 165, 165, 90, 2, 0.345823
328, 6, wb, attraction, a-b-da, 2, 2, 5, 20, 163, 89, 90, 165, 165, 90, 3, 0.579045
328, 6, wb, filler, NA, 999, 999, 5, 21, 122, 102, 76, 172, 108, 177, 2, 0.321428
328, 6, wb, filler, NA, 999, 999, 5, 21, 122, 102, 76, 172, 108, 177, 3, 0.38729
328, 6, wb, attraction, a-b-db, 9, 2, 5, 22, 86, 157, 165, 90, 90, 165, 2, 1.48183
328, 6, wb, attraction, a-b-db, 9, 2, 5, 22, 86, 157, 165, 90, 90, 165, 3, 0.421374
328, 6, wb, attraction, a-b-da, 14, 3, 5, 23, 195, 120, 120, 195, 181, 111, 2, 0.562467
328, 6, wb, attraction, a-b-da, 14, 3, 5, 23, 195, 120, 120, 195, 181, 111, 3, 0.555052
328, 6, wb, filler, NA, 999, 999, 5, 24, 135, 125, 105, 155, 152, 108, 2, 1.05068
328, 6, wb, filler, NA, 999, 999, 5, 24, 135, 125, 105, 155, 152, 108, 3, 0.703805
328, 6, wb, filler, NA, 999, 999, 5, 25, 162, 123, 185, 58, 184, 167, 2, 0.921355
328, 6, wb, filler, NA, 999, 999, 5, 25, 162, 123, 185, 58, 184, 167, 3, 0.315095
328, 6, wb, attraction, a-b-da, 2, 3, 5, 26, 120, 195, 195, 120, 193, 119, 2, 0.908374
328, 6, wb, attraction, a-b-da, 2, 3, 5, 26, 120, 195, 195, 120, 193, 119, 3, 0.31856
328, 6, wb, attraction, a-b-da, 5, 3, 5, 27, 120, 195, 195, 120, 190, 117, 2, 0.559835
328, 6, wb, attraction, a-b-da, 5, 3, 5, 27, 120, 195, 195, 120, 190, 117, 3, 0.5203
328, 6, wb, attraction, a-b-da, 9, 3, 5, 28, 186, 114, 120, 195, 195, 120, 2, 0.449382
328, 6, wb, attraction, a-b-da, 9, 3, 5, 28, 186, 114, 120, 195, 195, 120, 3, 0.358628
328, 6, wb, filler, NA, 999, 999, 5, 29, 89, 122, 150, 63, 150, 97, 2, 0.573703
328, 6, wb, filler, NA, 999, 999, 5, 29, 89, 122, 150, 63, 150, 97, 3, 0.85347
328, 6, wb, attraction, a-b-db, 2, 1, 5, 30, 59, 134, 135, 60, 60, 135, 2, 0.425083
328, 6, wb, attraction, a-b-db, 2, 1, 5, 30, 59, 134, 135, 60, 60, 135, 3, 0.398993
328, 6, wb, catch, NA, 999, 999, 5, 31, 180, 135, 147, 108, 61, 134, 2, 0.372807
328, 6, wb, catch, NA, 999, 999, 5, 31, 180, 135, 147, 108, 61, 134, 1, 0.324721
328, 6, wb, attraction, a-b-da, 9, 2, 5, 32, 165, 90, 90, 165, 157, 86, 2, 0.565139
328, 6, wb, attraction, a-b-da, 9, 2, 5, 32, 165, 90, 90, 165, 157, 86, 3, 0.597635
328, 6, wb, attraction, a-b-da, 14, 2, 5, 33, 165, 90, 90, 165, 153, 83, 2, 0.395365
328, 6, wb, attraction, a-b-da, 14, 2, 5, 33, 165, 90, 90, 165, 153, 83, 3, 0.0890355
328, 6, wb, filler, NA, 999, 999, 5, 34, 114, 103, 185, 170, 138, 100, 2, 0.556489
328, 6, wb, filler, NA, 999, 999, 5, 34, 114, 103, 185, 170, 138, 100, 1, 0.812988
328, 6, wb, attraction, a-b-db, 14, 1, 5, 35, 56, 125, 135, 60, 60, 135, 2, 0.898092
328, 6, wb, attraction, a-b-db, 14, 1, 5, 35, 56, 125, 135, 60, 60, 135, 3, 0.869014
328, 6, wb, filler, NA, 999, 999, 5, 36, 156, 179, 128, 167, 98, 83, 3, 2.28004
328, 6, wb, filler, NA, 999, 999, 5, 36, 156, 179, 128, 167, 98, 83, 2, 0.443377
328, 6, wb, attraction, a-b-da, 2, 1, 5, 37, 60, 135, 135, 60, 134, 59, 3, 1.5992
328, 6, wb, attraction, a-b-da, 2, 1, 5, 37, 60, 135, 135, 60, 134, 59, 2, 0.717933
328, 6, wb, attraction, a-b-da, 2, 3, 6, 1, 120, 195, 195, 120, 193, 119, 1, 0.822886
328, 6, wb, attraction, a-b-da, 2, 3, 6, 1, 120, 195, 195, 120, 193, 119, 2, 0.444644
328, 6, wb, filler, NA, 999, 999, 6, 2, 121, 65, 147, 156, 195, 186, 1, 0.75243
328, 6, wb, filler, NA, 999, 999, 6, 2, 121, 65, 147, 156, 195, 186, 3, 0.393532
328, 6, wb, attraction, a-b-da, 5, 2, 6, 3, 165, 90, 161, 88, 90, 165, 1, 0.495318
328, 6, wb, attraction, a-b-da, 5, 2, 6, 3, 165, 90, 161, 88, 90, 165, 2, 0.298514
328, 6, wb, filler, NA, 999, 999, 6, 4, 187, 154, 156, 121, 109, 150, 3, 0.780362
328, 6, wb, filler, NA, 999, 999, 6, 4, 187, 154, 156, 121, 109, 150, 1, 0.460066
328, 6, wb, attraction, a-b-db, 2, 3, 6, 5, 119, 193, 120, 195, 195, 120, 3, 1.22321
328, 6, wb, attraction, a-b-db, 2, 3, 6, 5, 119, 193, 120, 195, 195, 120, 2, 0.439991
328, 6, wb, attraction, a-b-db, 14, 1, 6, 6, 56, 125, 60, 135, 135, 60, 1, 0.720675
328, 6, wb, attraction, a-b-db, 14, 1, 6, 6, 56, 125, 60, 135, 135, 60, 3, 0.354294
328, 6, wb, filler, NA, 999, 999, 6, 7, 182, 78, 186, 106, 165, 110, 1, 1.12211
328, 6, wb, filler, NA, 999, 999, 6, 7, 182, 78, 186, 106, 165, 110, 2, 0.555753
328, 6, wb, filler, NA, 999, 999, 6, 8, 132, 169, 66, 115, 178, 183, 2, 0.659564
328, 6, wb, filler, NA, 999, 999, 6, 8, 132, 169, 66, 115, 178, 183, 3, 0.264165
328, 6, wb, attraction, a-b-da, 14, 2, 6, 9, 165, 90, 153, 83, 90, 165, 2, 1.91517
328, 6, wb, attraction, a-b-da, 14, 2, 6, 9, 165, 90, 153, 83, 90, 165, 3, 0.757238
328, 6, wb, attraction, a-b-db, 2, 2, 6, 10, 89, 163, 90, 165, 165, 90, 2, 0.543863
328, 6, wb, attraction, a-b-db, 2, 2, 6, 10, 89, 163, 90, 165, 165, 90, 3, 0.317418
328, 6, wb, filler, NA, 999, 999, 6, 11, 71, 118, 112, 193, 142, 96, 2, 0.406523
328, 6, wb, filler, NA, 999, 999, 6, 11, 71, 118, 112, 193, 142, 96, 1, 0.717096
328, 6, wb, filler, NA, 999, 999, 6, 12, 152, 167, 58, 89, 142, 135, 2, 0.582061
328, 6, wb, filler, NA, 999, 999, 6, 12, 152, 167, 58, 89, 142, 135, 1, 0.845911
328, 6, wb, attraction, a-b-db, 9, 2, 6, 13, 86, 157, 165, 90, 90, 165, 3, 0.641612
328, 6, wb, attraction, a-b-db, 9, 2, 6, 13, 86, 157, 165, 90, 90, 165, 2, 0.302737
328, 6, wb, attraction, a-b-db, 2, 1, 6, 14, 60, 135, 59, 134, 135, 60, 1, 0.960579
328, 6, wb, attraction, a-b-db, 2, 1, 6, 14, 60, 135, 59, 134, 135, 60, 3, 0.409032
328, 6, wb, filler, NA, 999, 999, 6, 15, 93, 94, 122, 61, 95, 105, 2, 0.510043
328, 6, wb, filler, NA, 999, 999, 6, 15, 93, 94, 122, 61, 95, 105, 1, 0.28855
328, 6, wb, filler, NA, 999, 999, 6, 16, 81, 99, 104, 173, 122, 193, 1, 0.834905
328, 6, wb, filler, NA, 999, 999, 6, 16, 81, 99, 104, 173, 122, 193, 3, 0.312736
328, 6, wb, attraction, a-b-db, 5, 1, 6, 17, 135, 60, 58, 132, 60, 135, 2, 0.474049
328, 6, wb, attraction, a-b-db, 5, 1, 6, 17, 135, 60, 58, 132, 60, 135, 1, 0.0951784
328, 6, wb, attraction, a-b-da, 14, 3, 6, 18, 195, 120, 120, 195, 181, 111, 2, 0.551595
328, 6, wb, attraction, a-b-da, 14, 3, 6, 18, 195, 120, 120, 195, 181, 111, 3, 0.280844
328, 6, wb, attraction, a-b-da, 2, 2, 6, 19, 163, 89, 165, 90, 90, 165, 1, 0.491441
328, 6, wb, attraction, a-b-da, 2, 2, 6, 19, 163, 89, 165, 90, 90, 165, 3, 0.27848
328, 6, wb, attraction, a-b-da, 5, 3, 6, 20, 190, 117, 120, 195, 195, 120, 1, 0.969067
328, 6, wb, attraction, a-b-da, 5, 3, 6, 20, 190, 117, 120, 195, 195, 120, 2, 0.289329
328, 6, wb, attraction, a-b-db, 5, 2, 6, 21, 90, 165, 88, 161, 165, 90, 1, 0.715208
328, 6, wb, attraction, a-b-db, 5, 2, 6, 21, 90, 165, 88, 161, 165, 90, 3, 0.533689
328, 6, wb, filler, NA, 999, 999, 6, 22, 92, 108, 172, 132, 135, 79, 1, 1.03808
328, 6, wb, filler, NA, 999, 999, 6, 22, 92, 108, 172, 132, 135, 79, 2, 0.267017
328, 6, wb, attraction, a-b-db, 14, 3, 6, 23, 120, 195, 111, 181, 195, 120, 2, 1.10634
328, 6, wb, attraction, a-b-db, 14, 3, 6, 23, 120, 195, 111, 181, 195, 120, 1, 0.600528
328, 6, wb, attraction, a-b-da, 9, 1, 6, 24, 135, 60, 60, 135, 129, 57, 2, 0.622246
328, 6, wb, attraction, a-b-da, 9, 1, 6, 24, 135, 60, 60, 135, 129, 57, 3, 1.85217
328, 6, wb, attraction, a-b-da, 9, 3, 6, 25, 195, 120, 120, 195, 186, 114, 2, 0.54334
328, 6, wb, attraction, a-b-da, 9, 3, 6, 25, 195, 120, 120, 195, 186, 114, 1, 0.480579
328, 6, wb, filler, NA, 999, 999, 6, 26, 56, 159, 90, 123, 169, 106, 2, 1.03505
328, 6, wb, filler, NA, 999, 999, 6, 26, 56, 159, 90, 123, 169, 106, 3, 0.392657
328, 6, wb, catch, NA, 999, 999, 6, 27, 102, 93, 170, 145, 102, 153, 1, 0.558458
328, 6, wb, catch, NA, 999, 999, 6, 27, 102, 93, 170, 145, 102, 153, 2, 0.286966
328, 6, wb, catch, NA, 999, 999, 6, 28, 70, 125, 188, 127, 146, 109, 1, 0.737453
328, 6, wb, catch, NA, 999, 999, 6, 28, 70, 125, 188, 127, 146, 109, 2, 0.554495
328, 6, wb, attraction, a-b-db, 9, 1, 6, 29, 135, 60, 57, 129, 60, 135, 3, 0.850258
328, 6, wb, attraction, a-b-db, 9, 1, 6, 29, 135, 60, 57, 129, 60, 135, 2, 0.695261
328, 6, wb, attraction, a-b-da, 2, 1, 6, 30, 134, 59, 135, 60, 60, 135, 3, 1.25709
328, 6, wb, attraction, a-b-da, 2, 1, 6, 30, 134, 59, 135, 60, 60, 135, 2, 1.74937
328, 6, wb, attraction, a-b-db, 5, 3, 6, 31, 120, 195, 117, 190, 195, 120, 2, 0.812657
328, 6, wb, attraction, a-b-db, 5, 3, 6, 31, 120, 195, 117, 190, 195, 120, 3, 0.401849
328, 6, wb, attraction, a-b-da, 9, 2, 6, 32, 165, 90, 90, 165, 157, 86, 2, 0.696845
328, 6, wb, attraction, a-b-da, 9, 2, 6, 32, 165, 90, 90, 165, 157, 86, 3, 0.803976
328, 6, wb, attraction, a-b-da, 5, 1, 6, 33, 132, 58, 60, 135, 135, 60, 2, 0.489645
328, 6, wb, attraction, a-b-da, 5, 1, 6, 33, 132, 58, 60, 135, 135, 60, 3, 0.324988
328, 6, wb, attraction, a-b-db, 14, 2, 6, 34, 165, 90, 90, 165, 83, 153, 2, 0.365318
328, 6, wb, attraction, a-b-db, 14, 2, 6, 34, 165, 90, 90, 165, 83, 153, 1, 0.581883
328, 6, wb, catch, NA, 999, 999, 6, 35, 104, 151, 141, 174, 110, 85, 2, 0.316278
328, 6, wb, catch, NA, 999, 999, 6, 35, 104, 151, 141, 174, 110, 85, 3, 0.790851
328, 6, wb, attraction, a-b-db, 9, 3, 6, 36, 195, 120, 114, 186, 120, 195, 2, 0.764519
328, 6, wb, attraction, a-b-db, 9, 3, 6, 36, 195, 120, 114, 186, 120, 195, 3, 0.325018
328, 6, wb, attraction, a-b-da, 14, 1, 6, 37, 60, 135, 135, 60, 125, 56, 3, 0.685427
328, 6, wb, attraction, a-b-da, 14, 1, 6, 37, 60, 135, 135, 60, 125, 56, 2, 0.361286
328, 6, wb, attraction, a-b-da, 2, 1, 7, 1, 60, 135, 134, 59, 135, 60, 1, 0.704366
328, 6, wb, attraction, a-b-da, 2, 1, 7, 1, 60, 135, 134, 59, 135, 60, 2, 0.402722
328, 6, wb, filler, NA, 999, 999, 7, 2, 139, 60, 122, 70, 81, 139, 2, 2.05653
328, 6, wb, filler, NA, 999, 999, 7, 2, 139, 60, 122, 70, 81, 139, 3, 0.72462
328, 6, wb, attraction, a-b-da, 14, 1, 7, 3, 60, 135, 125, 56, 135, 60, 1, 0.548911
328, 6, wb, attraction, a-b-da, 14, 1, 7, 3, 60, 135, 125, 56, 135, 60, 2, 0.710052
328, 6, wb, attraction, a-b-da, 5, 3, 7, 4, 190, 117, 120, 195, 195, 120, 2, 0.640581
328, 6, wb, attraction, a-b-da, 5, 3, 7, 4, 190, 117, 120, 195, 195, 120, 3, 0.468379
328, 6, wb, attraction, a-b-da, 14, 3, 7, 5, 181, 111, 120, 195, 195, 120, 2, 0.559367
328, 6, wb, attraction, a-b-da, 14, 3, 7, 5, 181, 111, 120, 195, 195, 120, 3, 0.931002
328, 6, wb, catch, NA, 999, 999, 7, 6, 179, 136, 164, 91, 116, 79, 3, 0.840142
328, 6, wb, catch, NA, 999, 999, 7, 6, 179, 136, 164, 91, 116, 79, 1, 0.402803
328, 6, wb, filler, NA, 999, 999, 7, 7, 137, 117, 89, 78, 125, 182, 2, 0.755123
328, 6, wb, filler, NA, 999, 999, 7, 7, 137, 117, 89, 78, 125, 182, 3, 0.344382
328, 6, wb, attraction, a-b-da, 9, 2, 7, 8, 157, 86, 90, 165, 165, 90, 2, 0.715271
328, 6, wb, attraction, a-b-da, 9, 2, 7, 8, 157, 86, 90, 165, 165, 90, 3, 0.949847
328, 6, wb, attraction, a-b-da, 9, 1, 7, 9, 129, 57, 60, 135, 135, 60, 2, 0.653328
328, 6, wb, attraction, a-b-da, 9, 1, 7, 9, 129, 57, 60, 135, 135, 60, 3, 0.650483
328, 6, wb, attraction, a-b-db, 2, 2, 7, 10, 90, 165, 89, 163, 165, 90, 2, 0.574117
328, 6, wb, attraction, a-b-db, 2, 2, 7, 10, 90, 165, 89, 163, 165, 90, 3, 0.92602
328, 6, wb, attraction, a-b-da, 2, 2, 7, 11, 90, 165, 165, 90, 163, 89, 2, 0.526288
328, 6, wb, attraction, a-b-da, 2, 2, 7, 11, 90, 165, 165, 90, 163, 89, 3, 0.560125
328, 6, wb, attraction, a-b-db, 14, 1, 7, 12, 135, 60, 60, 135, 56, 125, 1, 2.3511
328, 6, wb, attraction, a-b-db, 14, 1, 7, 12, 135, 60, 60, 135, 56, 125, 2, 0.43976
328, 6, wb, attraction, a-b-db, 9, 1, 7, 13, 60, 135, 135, 60, 57, 129, 2, 0.915546
328, 6, wb, attraction, a-b-db, 9, 1, 7, 13, 60, 135, 135, 60, 57, 129, 3, 0.702
328, 6, wb, filler, NA, 999, 999, 7, 14, 165, 194, 103, 178, 104, 99, 3, 1.25563
328, 6, wb, filler, NA, 999, 999, 7, 14, 165, 194, 103, 178, 104, 99, 1, 0.539823
328, 6, wb, filler, NA, 999, 999, 7, 15, 85, 146, 102, 136, 112, 119, 2, 0.627661
328, 6, wb, filler, NA, 999, 999, 7, 15, 85, 146, 102, 136, 112, 119, 3, 0.83343
328, 6, wb, attraction, a-b-db, 14, 3, 7, 16, 195, 120, 111, 181, 120, 195, 1, 0.773754
328, 6, wb, attraction, a-b-db, 14, 3, 7, 16, 195, 120, 111, 181, 120, 195, 2, 0.285581
328, 6, wb, attraction, a-b-db, 14, 2, 7, 17, 165, 90, 90, 165, 83, 153, 3, 0.912001
328, 6, wb, attraction, a-b-db, 14, 2, 7, 17, 165, 90, 90, 165, 83, 153, 1, 0.604563
328, 6, wb, attraction, a-b-da, 2, 3, 7, 18, 195, 120, 120, 195, 193, 119, 2, 0.688216
328, 6, wb, attraction, a-b-da, 2, 3, 7, 18, 195, 120, 120, 195, 193, 119, 3, 0.29138
328, 6, wb, filler, NA, 999, 999, 7, 19, 72, 191, 155, 149, 148, 177, 1, 0.613065
328, 6, wb, filler, NA, 999, 999, 7, 19, 72, 191, 155, 149, 148, 177, 3, 0.323529
328, 6, wb, attraction, a-b-da, 14, 2, 7, 20, 153, 83, 90, 165, 165, 90, 1, 0.611932
328, 6, wb, attraction, a-b-da, 14, 2, 7, 20, 153, 83, 90, 165, 165, 90, 2, 0.35452
328, 6, wb, filler, NA, 999, 999, 7, 21, 179, 108, 99, 167, 64, 141, 3, 0.722341
328, 6, wb, filler, NA, 999, 999, 7, 21, 179, 108, 99, 167, 64, 141, 1, 0.572036
328, 6, wb, attraction, a-b-db, 5, 3, 7, 22, 120, 195, 195, 120, 117, 190, 2, 0.683197
328, 6, wb, attraction, a-b-db, 5, 3, 7, 22, 120, 195, 195, 120, 117, 190, 3, 0.502893
328, 6, wb, attraction, a-b-db, 9, 3, 7, 23, 195, 120, 120, 195, 114, 186, 1, 0.864657
328, 6, wb, attraction, a-b-db, 9, 3, 7, 23, 195, 120, 120, 195, 114, 186, 3, 0.429175
328, 6, wb, attraction, a-b-db, 5, 2, 7, 24, 88, 161, 90, 165, 165, 90, 2, 0.705591
328, 6, wb, attraction, a-b-db, 5, 2, 7, 24, 88, 161, 90, 165, 165, 90, 3, 0.595929
328, 6, wb, filler, NA, 999, 999, 7, 25, 116, 129, 184, 158, 187, 110, 1, 0.545692
328, 6, wb, filler, NA, 999, 999, 7, 25, 116, 129, 184, 158, 187, 110, 2, 0.354814
328, 6, wb, attraction, a-b-da, 5, 1, 7, 26, 60, 135, 132, 58, 135, 60, 2, 0.922674
328, 6, wb, attraction, a-b-da, 5, 1, 7, 26, 60, 135, 132, 58, 135, 60, 3, 0.716383
328, 6, wb, attraction, a-b-da, 9, 3, 7, 27, 120, 195, 195, 120, 186, 114, 3, 0.957443
328, 6, wb, attraction, a-b-da, 9, 3, 7, 27, 120, 195, 195, 120, 186, 114, 2, 0.429782
328, 6, wb, attraction, a-b-db, 2, 1, 7, 28, 59, 134, 135, 60, 60, 135, 2, 0.961861
328, 6, wb, attraction, a-b-db, 2, 1, 7, 28, 59, 134, 135, 60, 60, 135, 3, 0.290679
328, 6, wb, attraction, a-b-db, 5, 1, 7, 29, 135, 60, 60, 135, 58, 132, 1, 0.692395
328, 6, wb, attraction, a-b-db, 5, 1, 7, 29, 135, 60, 60, 135, 58, 132, 2, 0.327661
328, 6, wb, filler, NA, 999, 999, 7, 30, 70, 170, 95, 168, 190, 102, 2, 0.928112
328, 6, wb, filler, NA, 999, 999, 7, 30, 70, 170, 95, 168, 190, 102, 3, 0.641744
328, 6, wb, attraction, a-b-db, 2, 3, 7, 31, 119, 193, 195, 120, 120, 195, 2, 0.805382
328, 6, wb, attraction, a-b-db, 2, 3, 7, 31, 119, 193, 195, 120, 120, 195, 3, 0.395808
328, 6, wb, catch, NA, 999, 999, 7, 32, 107, 88, 186, 129, 120, 135, 1, 1.10611
328, 6, wb, catch, NA, 999, 999, 7, 32, 107, 88, 186, 129, 120, 135, 2, 0.419906
328, 6, wb, attraction, a-b-db, 9, 2, 7, 33, 86, 157, 90, 165, 165, 90, 3, 0.993079
328, 6, wb, attraction, a-b-db, 9, 2, 7, 33, 86, 157, 90, 165, 165, 90, 2, 0.424124
328, 6, wb, catch, NA, 999, 999, 7, 34, 129, 186, 141, 114, 82, 113, 3, 1.28455
328, 6, wb, catch, NA, 999, 999, 7, 34, 129, 186, 141, 114, 82, 113, 1, 0.3842
328, 6, wb, filler, NA, 999, 999, 7, 35, 97, 103, 78, 74, 108, 176, 2, 0.670566
328, 6, wb, filler, NA, 999, 999, 7, 35, 97, 103, 78, 74, 108, 176, 3, 0.362388
328, 6, wb, attraction, a-b-da, 5, 2, 7, 36, 90, 165, 161, 88, 165, 90, 1, 0.793567
328, 6, wb, attraction, a-b-da, 5, 2, 7, 36, 90, 165, 161, 88, 165, 90, 3, 0.528631
328, 6, wb, filler, NA, 999, 999, 7, 37, 109, 74, 161, 172, 153, 123, 1, 0.897012
328, 6, wb, filler, NA, 999, 999, 7, 37, 109, 74, 161, 172, 153, 123, 2, 0.292076
328, 6, wb, attraction, a-b-db, 9, 2, 8, 1, 90, 165, 165, 90, 86, 157, 3, 0.96593
328, 6, wb, attraction, a-b-db, 9, 2, 8, 1, 90, 165, 165, 90, 86, 157, 2, 0.55884
328, 6, wb, attraction, a-b-da, 5, 1, 8, 2, 60, 135, 132, 58, 135, 60, 1, 0.68532
328, 6, wb, attraction, a-b-da, 5, 1, 8, 2, 60, 135, 132, 58, 135, 60, 2, 0.521079
328, 6, wb, attraction, a-b-db, 2, 1, 8, 3, 59, 134, 135, 60, 60, 135, 1, 0.72216
328, 6, wb, attraction, a-b-db, 2, 1, 8, 3, 59, 134, 135, 60, 60, 135, 2, 0.987974
328, 6, wb, attraction, a-b-db, 14, 1, 8, 4, 56, 125, 60, 135, 135, 60, 1, 0.626182
328, 6, wb, attraction, a-b-db, 14, 1, 8, 4, 56, 125, 60, 135, 135, 60, 3, 0.496052
328, 6, wb, filler, NA, 999, 999, 8, 5, 103, 191, 152, 151, 152, 75, 3, 1.59399
328, 6, wb, filler, NA, 999, 999, 8, 5, 103, 191, 152, 151, 152, 75, 2, 0.344616
328, 6, wb, attraction, a-b-db, 9, 1, 8, 6, 57, 129, 60, 135, 135, 60, 3, 0.760465
328, 6, wb, attraction, a-b-db, 9, 1, 8, 6, 57, 129, 60, 135, 135, 60, 2, 0.824879
328, 6, wb, attraction, a-b-da, 9, 2, 8, 7, 157, 86, 165, 90, 90, 165, 3, 0.877446
328, 6, wb, attraction, a-b-da, 9, 2, 8, 7, 157, 86, 165, 90, 90, 165, 2, 0.680925
328, 6, wb, attraction, a-b-db, 9, 3, 8, 8, 195, 120, 120, 195, 114, 186, 1, 0.747324
328, 6, wb, attraction, a-b-db, 9, 3, 8, 8, 195, 120, 120, 195, 114, 186, 2, 0.292672
328, 6, wb, catch, NA, 999, 999, 8, 9, 116, 139, 64, 131, 129, 186, 2, 0.83026
328, 6, wb, catch, NA, 999, 999, 8, 9, 116, 139, 64, 131, 129, 186, 3, 0.315937
328, 6, wb, filler, NA, 999, 999, 8, 10, 58, 163, 139, 98, 138, 147, 1, 0.73316
328, 6, wb, filler, NA, 999, 999, 8, 10, 58, 163, 139, 98, 138, 147, 3, 0.366957
328, 6, wb, attraction, a-b-da, 14, 1, 8, 11, 60, 135, 135, 60, 125, 56, 1, 0.486022
328, 6, wb, attraction, a-b-da, 14, 1, 8, 11, 60, 135, 135, 60, 125, 56, 3, 0.401867
328, 6, wb, attraction, a-b-da, 14, 3, 8, 12, 120, 195, 181, 111, 195, 120, 2, 0.567629
328, 6, wb, attraction, a-b-da, 14, 3, 8, 12, 120, 195, 181, 111, 195, 120, 1, 0.320097
328, 6, wb, attraction, a-b-db, 5, 3, 8, 13, 120, 195, 117, 190, 195, 120, 3, 2.37742
328, 6, wb, attraction, a-b-db, 5, 3, 8, 13, 120, 195, 117, 190, 195, 120, 2, 0.832564
328, 6, wb, filler, NA, 999, 999, 8, 14, 72, 58, 117, 169, 76, 153, 1, 0.917003
328, 6, wb, filler, NA, 999, 999, 8, 14, 72, 58, 117, 169, 76, 153, 2, 0.263257
328, 6, wb, attraction, a-b-db, 5, 2, 8, 15, 88, 161, 165, 90, 90, 165, 1, 0.650423
328, 6, wb, attraction, a-b-db, 5, 2, 8, 15, 88, 161, 165, 90, 90, 165, 2, 0.239533
328, 6, wb, attraction, a-b-da, 2, 1, 8, 16, 60, 135, 135, 60, 134, 59, 2, 1.03534
328, 6, wb, attraction, a-b-da, 2, 1, 8, 16, 60, 135, 135, 60, 134, 59, 1, 0.683404
328, 6, wb, attraction, a-b-db, 14, 2, 8, 17, 90, 165, 83, 153, 165, 90, 2, 0.899359
328, 6, wb, attraction, a-b-db, 14, 2, 8, 17, 90, 165, 83, 153, 165, 90, 3, 0.582433
328, 6, wb, attraction, a-b-da, 2, 3, 8, 18, 195, 120, 120, 195, 193, 119, 1, 0.8609
328, 6, wb, attraction, a-b-da, 2, 3, 8, 18, 195, 120, 120, 195, 193, 119, 2, 0.257277
328, 6, wb, attraction, a-b-db, 14, 3, 8, 19, 111, 181, 120, 195, 195, 120, 3, 1.02854
328, 6, wb, attraction, a-b-db, 14, 3, 8, 19, 111, 181, 120, 195, 195, 120, 2, 0.570163
328, 6, wb, filler, NA, 999, 999, 8, 20, 95, 161, 193, 64, 72, 66, 3, 1.44123
328, 6, wb, filler, NA, 999, 999, 8, 20, 95, 161, 193, 64, 72, 66, 1, 0.390045
328, 6, wb, attraction, a-b-da, 2, 2, 8, 21, 165, 90, 163, 89, 90, 165, 2, 1.0918
328, 6, wb, attraction, a-b-da, 2, 2, 8, 21, 165, 90, 163, 89, 90, 165, 3, 0.358853
328, 6, wb, catch, NA, 999, 999, 8, 22, 98, 97, 163, 92, 137, 178, 1, 0.574059
328, 6, wb, catch, NA, 999, 999, 8, 22, 98, 97, 163, 92, 137, 178, 3, 0.42188
328, 6, wb, filler, NA, 999, 999, 8, 23, 108, 145, 94, 82, 87, 167, 2, 1.84297
328, 6, wb, filler, NA, 999, 999, 8, 23, 108, 145, 94, 82, 87, 167, 1, 0.751674
328, 6, wb, attraction, a-b-da, 9, 1, 8, 24, 135, 60, 60, 135, 129, 57, 2, 0.511367
328, 6, wb, attraction, a-b-da, 9, 1, 8, 24, 135, 60, 60, 135, 129, 57, 3, 0.913883
328, 6, wb, attraction, a-b-da, 9, 3, 8, 25, 186, 114, 195, 120, 120, 195, 1, 0.858802
328, 6, wb, attraction, a-b-da, 9, 3, 8, 25, 186, 114, 195, 120, 120, 195, 3, 0.447203
328, 6, wb, attraction, a-b-db, 2, 3, 8, 26, 120, 195, 119, 193, 195, 120, 2, 0.474995
328, 6, wb, attraction, a-b-db, 2, 3, 8, 26, 120, 195, 119, 193, 195, 120, 3, 0.542849
328, 6, wb, filler, NA, 999, 999, 8, 27, 101, 137, 98, 84, 144, 121, 2, 0.702748
328, 6, wb, filler, NA, 999, 999, 8, 27, 101, 137, 98, 84, 144, 121, 3, 0.809734
328, 6, wb, filler, NA, 999, 999, 8, 28, 75, 119, 107, 77, 99, 103, 2, 0.518742
328, 6, wb, filler, NA, 999, 999, 8, 28, 75, 119, 107, 77, 99, 103, 3, 1.59324
328, 6, wb, filler, NA, 999, 999, 8, 29, 138, 118, 189, 84, 185, 79, 2, 0.574652
328, 6, wb, filler, NA, 999, 999, 8, 29, 138, 118, 189, 84, 185, 79, 1, 0.774372
328, 6, wb, attraction, a-b-db, 2, 2, 8, 30, 165, 90, 89, 163, 90, 165, 2, 0.668774
328, 6, wb, attraction, a-b-db, 2, 2, 8, 30, 165, 90, 89, 163, 90, 165, 1, 0.569238
328, 6, wb, filler, NA, 999, 999, 8, 31, 118, 170, 177, 90, 169, 192, 2, 0.92832
328, 6, wb, filler, NA, 999, 999, 8, 31, 118, 170, 177, 90, 169, 192, 3, 0.330033
328, 6, wb, attraction, a-b-da, 5, 3, 8, 32, 190, 117, 120, 195, 195, 120, 2, 0.538523
328, 6, wb, attraction, a-b-da, 5, 3, 8, 32, 190, 117, 120, 195, 195, 120, 3, 0.33972
328, 6, wb, filler, NA, 999, 999, 8, 33, 64, 84, 96, 79, 84, 116, 2, 1.13151
328, 6, wb, filler, NA, 999, 999, 8, 33, 64, 84, 96, 79, 84, 116, 3, 0.501153
328, 6, wb, attraction, a-b-da, 5, 2, 8, 34, 90, 165, 165, 90, 161, 88, 2, 0.478878
328, 6, wb, attraction, a-b-da, 5, 2, 8, 34, 90, 165, 165, 90, 161, 88, 1, 0.362714
328, 6, wb, catch, NA, 999, 999, 8, 35, 161, 94, 175, 140, 75, 120, 3, 0.609918
328, 6, wb, catch, NA, 999, 999, 8, 35, 161, 94, 175, 140, 75, 120, 2, 0.288274
328, 6, wb, attraction, a-b-da, 14, 2, 8, 36, 90, 165, 153, 83, 165, 90, 2, 0.858818
328, 6, wb, attraction, a-b-da, 14, 2, 8, 36, 90, 165, 153, 83, 165, 90, 1, 0.519152
328, 6, wb, attraction, a-b-db, 5, 1, 8, 37, 58, 132, 60, 135, 135, 60, 2, 1.02427
328, 6, wb, attraction, a-b-db, 5, 1, 8, 37, 58, 132, 60, 135, 135, 60, 3, 0.485927
