sub_n, computer_n, bw_cond, effect, set, distance, diag, block_n, trial_n, h1, w1, h2, w2, h3, w3, choice, rt 
312, 6, wb, practice, NA, 999, 999, 0, 1, 143, 90, 159, 79, 182, 83, 2, 3.24348
312, 6, wb, practice, NA, 999, 999, 0, 1, 143, 90, 159, 79, 182, 83, 3, 5.87931
312, 6, wb, practice, NA, 999, 999, 0, 2, 107, 144, 184, 133, 107, 127, 1, 4.52462
312, 6, wb, practice, NA, 999, 999, 0, 2, 107, 144, 184, 133, 107, 127, 2, 0.849015
312, 6, wb, practice, NA, 999, 999, 0, 3, 59, 137, 159, 139, 184, 71, 1, 2.67149
312, 6, wb, practice, NA, 999, 999, 0, 3, 59, 137, 159, 139, 184, 71, 2, 1.13126
312, 6, wb, attraction, a-b-da, 9, 3, 1, 1, 120, 195, 195, 120, 186, 114, 3, 2.64455
312, 6, wb, attraction, a-b-da, 9, 3, 1, 1, 120, 195, 195, 120, 186, 114, 2, 2.35297
312, 6, wb, filler, NA, 999, 999, 1, 2, 101, 173, 153, 69, 127, 184, 2, 1.31215
312, 6, wb, filler, NA, 999, 999, 1, 2, 101, 173, 153, 69, 127, 184, 3, 0.570451
312, 6, wb, catch, NA, 999, 999, 1, 3, 98, 157, 153, 162, 107, 88, 3, 1.59354
312, 6, wb, catch, NA, 999, 999, 1, 3, 98, 157, 153, 162, 107, 88, 2, 0.3523
312, 6, wb, attraction, a-b-db, 9, 2, 1, 4, 86, 157, 90, 165, 165, 90, 3, 3.02414
312, 6, wb, attraction, a-b-db, 9, 2, 1, 4, 86, 157, 90, 165, 165, 90, 2, 0.829271
312, 6, wb, attraction, a-b-db, 14, 3, 1, 5, 120, 195, 111, 181, 195, 120, 2, 1.59356
312, 6, wb, attraction, a-b-db, 14, 3, 1, 5, 120, 195, 111, 181, 195, 120, 3, 0.256478
312, 6, wb, attraction, a-b-db, 14, 2, 1, 6, 83, 153, 165, 90, 90, 165, 1, 1.68364
312, 6, wb, attraction, a-b-db, 14, 2, 1, 6, 83, 153, 165, 90, 90, 165, 3, 0.551109
312, 6, wb, attraction, a-b-db, 5, 2, 1, 7, 165, 90, 88, 161, 90, 165, 1, 5.46284
312, 6, wb, attraction, a-b-db, 5, 2, 1, 7, 165, 90, 88, 161, 90, 165, 3, 0.83372
312, 6, wb, attraction, a-b-db, 9, 3, 1, 8, 114, 186, 195, 120, 120, 195, 1, 3.78205
312, 6, wb, attraction, a-b-db, 9, 3, 1, 8, 114, 186, 195, 120, 120, 195, 3, 1.98891
312, 6, wb, filler, NA, 999, 999, 1, 9, 79, 148, 158, 144, 93, 115, 1, 1.52278
312, 6, wb, filler, NA, 999, 999, 1, 9, 79, 148, 158, 144, 93, 115, 2, 0.47642
312, 6, wb, attraction, a-b-db, 2, 2, 1, 10, 90, 165, 89, 163, 165, 90, 2, 2.81487
312, 6, wb, attraction, a-b-db, 2, 2, 1, 10, 90, 165, 89, 163, 165, 90, 1, 1.75653
312, 6, wb, attraction, a-b-da, 14, 3, 1, 11, 195, 120, 120, 195, 181, 111, 3, 2.64332
312, 6, wb, attraction, a-b-da, 14, 3, 1, 11, 195, 120, 120, 195, 181, 111, 2, 0.767757
312, 6, wb, filler, NA, 999, 999, 1, 12, 77, 66, 60, 130, 77, 147, 1, 1.4628
312, 6, wb, filler, NA, 999, 999, 1, 12, 77, 66, 60, 130, 77, 147, 3, 0.954971
312, 6, wb, attraction, a-b-da, 2, 1, 1, 13, 134, 59, 60, 135, 135, 60, 2, 2.77865
312, 6, wb, attraction, a-b-da, 2, 1, 1, 13, 134, 59, 60, 135, 135, 60, 3, 1.65769
312, 6, wb, attraction, a-b-da, 14, 1, 1, 14, 60, 135, 135, 60, 125, 56, 3, 2.40448
312, 6, wb, attraction, a-b-da, 14, 1, 1, 14, 60, 135, 135, 60, 125, 56, 1, 2.08238
312, 6, wb, catch, NA, 999, 999, 1, 15, 119, 136, 131, 184, 125, 70, 3, 1.5083
312, 6, wb, catch, NA, 999, 999, 1, 15, 119, 136, 131, 184, 125, 70, 2, 0.294486
312, 6, wb, attraction, a-b-da, 9, 2, 1, 16, 165, 90, 90, 165, 157, 86, 3, 3.2004
312, 6, wb, attraction, a-b-da, 9, 2, 1, 16, 165, 90, 90, 165, 157, 86, 2, 0.79062
312, 6, wb, filler, NA, 999, 999, 1, 17, 151, 130, 163, 74, 122, 146, 2, 1.52428
312, 6, wb, filler, NA, 999, 999, 1, 17, 151, 130, 163, 74, 122, 146, 1, 0.581793
312, 6, wb, attraction, a-b-db, 14, 1, 1, 18, 60, 135, 135, 60, 56, 125, 2, 2.9324
312, 6, wb, attraction, a-b-db, 14, 1, 1, 18, 60, 135, 135, 60, 56, 125, 1, 0.501323
312, 6, wb, filler, NA, 999, 999, 1, 19, 175, 158, 182, 132, 130, 193, 2, 3.39915
312, 6, wb, filler, NA, 999, 999, 1, 19, 175, 158, 182, 132, 130, 193, 1, 0.477393
312, 6, wb, attraction, a-b-da, 9, 1, 1, 20, 129, 57, 60, 135, 135, 60, 1, 4.15985
312, 6, wb, attraction, a-b-da, 9, 1, 1, 20, 129, 57, 60, 135, 135, 60, 2, 1.45519
312, 6, wb, attraction, a-b-da, 2, 3, 1, 21, 120, 195, 195, 120, 193, 119, 2, 4.72268
312, 6, wb, attraction, a-b-da, 2, 3, 1, 21, 120, 195, 195, 120, 193, 119, 1, 0.267191
312, 6, wb, filler, NA, 999, 999, 1, 22, 101, 193, 167, 144, 116, 193, 1, 1.75826
312, 6, wb, filler, NA, 999, 999, 1, 22, 101, 193, 167, 144, 116, 193, 2, 0.742481
312, 6, wb, attraction, a-b-da, 14, 2, 1, 23, 90, 165, 153, 83, 165, 90, 2, 2.65412
312, 6, wb, attraction, a-b-da, 14, 2, 1, 23, 90, 165, 153, 83, 165, 90, 1, 1.03392
312, 6, wb, attraction, a-b-da, 2, 2, 1, 24, 165, 90, 163, 89, 90, 165, 2, 1.92629
312, 6, wb, attraction, a-b-da, 2, 2, 1, 24, 165, 90, 163, 89, 90, 165, 3, 1.04758
312, 6, wb, filler, NA, 999, 999, 1, 25, 164, 75, 150, 179, 76, 141, 3, 1.8512
312, 6, wb, filler, NA, 999, 999, 1, 25, 164, 75, 150, 179, 76, 141, 2, 0.487934
312, 6, wb, attraction, a-b-db, 2, 1, 1, 26, 60, 135, 135, 60, 59, 134, 2, 1.40236
312, 6, wb, attraction, a-b-db, 2, 1, 1, 26, 60, 135, 135, 60, 59, 134, 1, 0.337336
312, 6, wb, attraction, a-b-da, 5, 1, 1, 27, 60, 135, 132, 58, 135, 60, 2, 1.95388
312, 6, wb, attraction, a-b-da, 5, 1, 1, 27, 60, 135, 132, 58, 135, 60, 1, 0.618456
312, 6, wb, attraction, a-b-da, 5, 3, 1, 28, 190, 117, 195, 120, 120, 195, 1, 1.54349
312, 6, wb, attraction, a-b-da, 5, 3, 1, 28, 190, 117, 195, 120, 120, 195, 2, 1.03239
312, 6, wb, filler, NA, 999, 999, 1, 29, 152, 78, 163, 65, 148, 142, 2, 1.62067
312, 6, wb, filler, NA, 999, 999, 1, 29, 152, 78, 163, 65, 148, 142, 3, 0.282119
312, 6, wb, catch, NA, 999, 999, 1, 30, 130, 65, 138, 177, 107, 148, 1, 2.15659
312, 6, wb, catch, NA, 999, 999, 1, 30, 130, 65, 138, 177, 107, 148, 2, 0.364588
312, 6, wb, attraction, a-b-db, 2, 3, 1, 31, 195, 120, 120, 195, 119, 193, 3, 2.73177
312, 6, wb, attraction, a-b-db, 2, 3, 1, 31, 195, 120, 120, 195, 119, 193, 2, 0.821026
312, 6, wb, filler, NA, 999, 999, 1, 32, 90, 151, 118, 151, 127, 135, 1, 3.32198
312, 6, wb, filler, NA, 999, 999, 1, 32, 90, 151, 118, 151, 127, 135, 2, 0.586875
312, 6, wb, attraction, a-b-da, 5, 2, 1, 33, 165, 90, 161, 88, 90, 165, 2, 1.64923
312, 6, wb, attraction, a-b-da, 5, 2, 1, 33, 165, 90, 161, 88, 90, 165, 3, 0.47804
312, 6, wb, attraction, a-b-db, 5, 3, 1, 34, 117, 190, 195, 120, 120, 195, 2, 5.44856
312, 6, wb, attraction, a-b-db, 5, 3, 1, 34, 117, 190, 195, 120, 120, 195, 3, 0.228069
312, 6, wb, attraction, a-b-db, 9, 1, 1, 35, 135, 60, 60, 135, 57, 129, 1, 1.14476
312, 6, wb, attraction, a-b-db, 9, 1, 1, 35, 135, 60, 60, 135, 57, 129, 3, 2.88167
312, 6, wb, attraction, a-b-db, 5, 1, 1, 36, 58, 132, 135, 60, 60, 135, 2, 2.65926
312, 6, wb, attraction, a-b-db, 5, 1, 1, 36, 58, 132, 135, 60, 60, 135, 3, 0.287107
312, 6, wb, filler, NA, 999, 999, 1, 37, 178, 161, 165, 76, 87, 63, 3, 1.43367
312, 6, wb, filler, NA, 999, 999, 1, 37, 178, 161, 165, 76, 87, 63, 1, 0.271093
312, 6, wb, attraction, a-b-db, 2, 1, 2, 1, 135, 60, 59, 134, 60, 135, 2, 2.00229
312, 6, wb, attraction, a-b-db, 2, 1, 2, 1, 135, 60, 59, 134, 60, 135, 3, 2.43304
312, 6, wb, attraction, a-b-da, 5, 1, 2, 2, 132, 58, 60, 135, 135, 60, 1, 2.58093
312, 6, wb, attraction, a-b-da, 5, 1, 2, 2, 132, 58, 60, 135, 135, 60, 2, 0.932116
312, 6, wb, attraction, a-b-db, 9, 1, 2, 3, 60, 135, 57, 129, 135, 60, 2, 2.06845
312, 6, wb, attraction, a-b-db, 9, 1, 2, 3, 60, 135, 57, 129, 135, 60, 3, 2.48836
312, 6, wb, catch, NA, 999, 999, 2, 4, 97, 98, 193, 122, 110, 145, 1, 2.95414
312, 6, wb, catch, NA, 999, 999, 2, 4, 97, 98, 193, 122, 110, 145, 2, 0.625933
312, 6, wb, filler, NA, 999, 999, 2, 5, 111, 67, 168, 97, 168, 125, 1, 1.39828
312, 6, wb, filler, NA, 999, 999, 2, 5, 111, 67, 168, 97, 168, 125, 3, 0.509318
312, 6, wb, attraction, a-b-da, 9, 2, 2, 6, 165, 90, 90, 165, 157, 86, 3, 2.06236
312, 6, wb, attraction, a-b-da, 9, 2, 2, 6, 165, 90, 90, 165, 157, 86, 2, 2.01025
312, 6, wb, attraction, a-b-db, 2, 2, 2, 7, 165, 90, 90, 165, 89, 163, 1, 1.91089
312, 6, wb, attraction, a-b-db, 2, 2, 2, 7, 165, 90, 90, 165, 89, 163, 2, 0.848975
312, 6, wb, attraction, a-b-db, 14, 3, 2, 8, 120, 195, 195, 120, 111, 181, 2, 5.09278
312, 6, wb, attraction, a-b-db, 14, 3, 2, 8, 120, 195, 195, 120, 111, 181, 1, 0.29437
312, 6, wb, attraction, a-b-da, 2, 2, 2, 9, 165, 90, 163, 89, 90, 165, 2, 1.75223
312, 6, wb, attraction, a-b-da, 2, 2, 2, 9, 165, 90, 163, 89, 90, 165, 3, 0.801019
312, 6, wb, attraction, a-b-db, 5, 3, 2, 10, 120, 195, 195, 120, 117, 190, 2, 2.35866
312, 6, wb, attraction, a-b-db, 5, 3, 2, 10, 120, 195, 195, 120, 117, 190, 3, 1.59856
312, 6, wb, attraction, a-b-db, 9, 3, 2, 11, 195, 120, 120, 195, 114, 186, 1, 2.70794
312, 6, wb, attraction, a-b-db, 9, 3, 2, 11, 195, 120, 120, 195, 114, 186, 2, 1.13377
312, 6, wb, filler, NA, 999, 999, 2, 12, 103, 120, 108, 194, 131, 163, 1, 1.64605
312, 6, wb, filler, NA, 999, 999, 2, 12, 103, 120, 108, 194, 131, 163, 2, 1.45893
312, 6, wb, catch, NA, 999, 999, 2, 13, 68, 127, 144, 111, 131, 184, 1, 0.997648
312, 6, wb, catch, NA, 999, 999, 2, 13, 68, 127, 144, 111, 131, 184, 3, 0.276727
312, 6, wb, attraction, a-b-da, 14, 2, 2, 14, 90, 165, 165, 90, 153, 83, 1, 2.14319
312, 6, wb, attraction, a-b-da, 14, 2, 2, 14, 90, 165, 165, 90, 153, 83, 2, 0.663832
312, 6, wb, attraction, a-b-da, 14, 3, 2, 15, 181, 111, 195, 120, 120, 195, 1, 2.00299
312, 6, wb, attraction, a-b-da, 14, 3, 2, 15, 181, 111, 195, 120, 120, 195, 3, 0.729603
312, 6, wb, filler, NA, 999, 999, 2, 16, 72, 60, 185, 186, 67, 113, 1, 0.713952
312, 6, wb, filler, NA, 999, 999, 2, 16, 72, 60, 185, 186, 67, 113, 2, 0.460431
312, 6, wb, attraction, a-b-db, 9, 2, 2, 17, 165, 90, 90, 165, 86, 157, 1, 3.09554
312, 6, wb, attraction, a-b-db, 9, 2, 2, 17, 165, 90, 90, 165, 86, 157, 2, 0.353958
312, 6, wb, filler, NA, 999, 999, 2, 18, 93, 86, 185, 160, 190, 168, 1, 0.801666
312, 6, wb, filler, NA, 999, 999, 2, 18, 93, 86, 185, 160, 190, 168, 3, 0.744762
312, 6, wb, attraction, a-b-db, 14, 1, 2, 19, 135, 60, 56, 125, 60, 135, 2, 1.43257
312, 6, wb, attraction, a-b-db, 14, 1, 2, 19, 135, 60, 56, 125, 60, 135, 3, 2.01395
312, 6, wb, attraction, a-b-da, 5, 2, 2, 20, 161, 88, 165, 90, 90, 165, 2, 2.19469
312, 6, wb, attraction, a-b-da, 5, 2, 2, 20, 161, 88, 165, 90, 90, 165, 3, 0.209334
312, 6, wb, attraction, a-b-da, 2, 1, 2, 21, 60, 135, 135, 60, 134, 59, 2, 1.16643
312, 6, wb, attraction, a-b-da, 2, 1, 2, 21, 60, 135, 135, 60, 134, 59, 1, 0.710889
312, 6, wb, attraction, a-b-da, 5, 3, 2, 22, 190, 117, 195, 120, 120, 195, 3, 3.15179
312, 6, wb, attraction, a-b-da, 5, 3, 2, 22, 190, 117, 195, 120, 120, 195, 2, 0.28807
312, 6, wb, attraction, a-b-da, 2, 3, 2, 23, 193, 119, 195, 120, 120, 195, 2, 1.93868
312, 6, wb, attraction, a-b-da, 2, 3, 2, 23, 193, 119, 195, 120, 120, 195, 3, 1.45141
312, 6, wb, attraction, a-b-db, 14, 2, 2, 24, 90, 165, 83, 153, 165, 90, 2, 0.926781
312, 6, wb, attraction, a-b-db, 14, 2, 2, 24, 90, 165, 83, 153, 165, 90, 3, 1.37645
312, 6, wb, attraction, a-b-da, 9, 3, 2, 25, 195, 120, 120, 195, 186, 114, 1, 2.97476
312, 6, wb, attraction, a-b-da, 9, 3, 2, 25, 195, 120, 120, 195, 186, 114, 2, 0.341667
312, 6, wb, filler, NA, 999, 999, 2, 26, 168, 98, 157, 159, 190, 88, 3, 1.7736
312, 6, wb, filler, NA, 999, 999, 2, 26, 168, 98, 157, 159, 190, 88, 2, 0.540897
312, 6, wb, filler, NA, 999, 999, 2, 27, 177, 182, 171, 123, 150, 126, 3, 3.28477
312, 6, wb, filler, NA, 999, 999, 2, 27, 177, 182, 171, 123, 150, 126, 1, 0.615617
312, 6, wb, attraction, a-b-db, 5, 2, 2, 28, 90, 165, 88, 161, 165, 90, 3, 2.57273
312, 6, wb, attraction, a-b-db, 5, 2, 2, 28, 90, 165, 88, 161, 165, 90, 2, 0.603928
312, 6, wb, attraction, a-b-db, 5, 1, 2, 29, 135, 60, 60, 135, 58, 132, 1, 1.23366
312, 6, wb, attraction, a-b-db, 5, 1, 2, 29, 135, 60, 60, 135, 58, 132, 2, 0.615407
312, 6, wb, attraction, a-b-da, 9, 1, 2, 30, 129, 57, 60, 135, 135, 60, 1, 1.63649
312, 6, wb, attraction, a-b-da, 9, 1, 2, 30, 129, 57, 60, 135, 135, 60, 2, 0.489766
312, 6, wb, filler, NA, 999, 999, 2, 31, 128, 175, 142, 97, 195, 134, 2, 1.4596
312, 6, wb, filler, NA, 999, 999, 2, 31, 128, 175, 142, 97, 195, 134, 3, 0.511865
312, 6, wb, filler, NA, 999, 999, 2, 32, 92, 126, 90, 72, 146, 81, 2, 1.29688
312, 6, wb, filler, NA, 999, 999, 2, 32, 92, 126, 90, 72, 146, 81, 1, 0.691868
312, 6, wb, attraction, a-b-da, 14, 1, 2, 33, 60, 135, 125, 56, 135, 60, 2, 1.05347
312, 6, wb, attraction, a-b-da, 14, 1, 2, 33, 60, 135, 125, 56, 135, 60, 1, 0.298438
312, 6, wb, catch, NA, 999, 999, 2, 34, 159, 156, 108, 87, 130, 125, 2, 0.860365
312, 6, wb, catch, NA, 999, 999, 2, 34, 159, 156, 108, 87, 130, 125, 1, 0.216701
312, 6, wb, filler, NA, 999, 999, 2, 35, 124, 138, 87, 187, 87, 153, 3, 4.1179
312, 6, wb, filler, NA, 999, 999, 2, 35, 124, 138, 87, 187, 87, 153, 1, 1.38321
312, 6, wb, filler, NA, 999, 999, 2, 36, 79, 120, 189, 133, 156, 106, 1, 3.76538
312, 6, wb, filler, NA, 999, 999, 2, 36, 79, 120, 189, 133, 156, 106, 2, 0.556942
312, 6, wb, attraction, a-b-db, 2, 3, 2, 37, 195, 120, 119, 193, 120, 195, 1, 9.16401
312, 6, wb, attraction, a-b-db, 2, 3, 2, 37, 195, 120, 119, 193, 120, 195, 2, 0.937777
312, 6, wb, attraction, a-b-db, 5, 1, 3, 1, 60, 135, 58, 132, 135, 60, 2, 0.882174
312, 6, wb, attraction, a-b-db, 5, 1, 3, 1, 60, 135, 58, 132, 135, 60, 3, 2.06988
312, 6, wb, attraction, a-b-da, 5, 3, 3, 2, 195, 120, 120, 195, 190, 117, 2, 2.68045
312, 6, wb, attraction, a-b-da, 5, 3, 3, 2, 195, 120, 120, 195, 190, 117, 1, 0.283559
312, 6, wb, attraction, a-b-db, 2, 3, 3, 3, 195, 120, 120, 195, 119, 193, 1, 5.2461
312, 6, wb, attraction, a-b-db, 2, 3, 3, 3, 195, 120, 120, 195, 119, 193, 2, 0.217752
312, 6, wb, filler, NA, 999, 999, 3, 4, 131, 108, 64, 122, 97, 160, 2, 2.26307
312, 6, wb, filler, NA, 999, 999, 3, 4, 131, 108, 64, 122, 97, 160, 3, 0.418902
312, 6, wb, attraction, a-b-db, 2, 2, 3, 5, 165, 90, 89, 163, 90, 165, 2, 2.77606
312, 6, wb, attraction, a-b-db, 2, 2, 3, 5, 165, 90, 89, 163, 90, 165, 3, 1.16717
312, 6, wb, attraction, a-b-db, 5, 2, 3, 6, 90, 165, 88, 161, 165, 90, 2, 5.0542
312, 6, wb, attraction, a-b-db, 5, 2, 3, 6, 90, 165, 88, 161, 165, 90, 1, 3.24991
312, 6, wb, attraction, a-b-da, 2, 3, 3, 7, 195, 120, 120, 195, 193, 119, 3, 6.33269
312, 6, wb, attraction, a-b-da, 2, 3, 3, 7, 195, 120, 120, 195, 193, 119, 1, 0.476654
312, 6, wb, attraction, a-b-da, 9, 2, 3, 8, 165, 90, 157, 86, 90, 165, 2, 2.83119
312, 6, wb, attraction, a-b-da, 9, 2, 3, 8, 165, 90, 157, 86, 90, 165, 3, 0.452271
312, 6, wb, catch, NA, 999, 999, 3, 9, 66, 129, 153, 102, 190, 125, 1, 1.03205
312, 6, wb, catch, NA, 999, 999, 3, 9, 66, 129, 153, 102, 190, 125, 3, 0.325705
312, 6, wb, attraction, a-b-da, 2, 1, 3, 10, 60, 135, 134, 59, 135, 60, 2, 1.25427
312, 6, wb, attraction, a-b-da, 2, 1, 3, 10, 60, 135, 134, 59, 135, 60, 1, 1.4105
312, 6, wb, filler, NA, 999, 999, 3, 11, 143, 138, 106, 135, 100, 70, 3, 1.78329
312, 6, wb, filler, NA, 999, 999, 3, 11, 143, 138, 106, 135, 100, 70, 1, 0.902727
312, 6, wb, attraction, a-b-db, 14, 3, 3, 12, 120, 195, 111, 181, 195, 120, 2, 1.12034
312, 6, wb, attraction, a-b-db, 14, 3, 3, 12, 120, 195, 111, 181, 195, 120, 3, 0.794703
312, 6, wb, attraction, a-b-da, 14, 3, 3, 13, 181, 111, 120, 195, 195, 120, 1, 1.92837
312, 6, wb, attraction, a-b-da, 14, 3, 3, 13, 181, 111, 120, 195, 195, 120, 2, 1.1378
312, 6, wb, filler, NA, 999, 999, 3, 14, 150, 60, 143, 127, 113, 190, 1, 1.04212
312, 6, wb, filler, NA, 999, 999, 3, 14, 150, 60, 143, 127, 113, 190, 3, 0.51098
312, 6, wb, attraction, a-b-da, 9, 1, 3, 15, 135, 60, 129, 57, 60, 135, 2, 2.18418
312, 6, wb, attraction, a-b-da, 9, 1, 3, 15, 135, 60, 129, 57, 60, 135, 3, 0.943393
312, 6, wb, attraction, a-b-db, 2, 1, 3, 16, 60, 135, 135, 60, 59, 134, 2, 2.30298
312, 6, wb, attraction, a-b-db, 2, 1, 3, 16, 60, 135, 135, 60, 59, 134, 1, 0.537585
312, 6, wb, filler, NA, 999, 999, 3, 17, 108, 175, 190, 131, 150, 107, 3, 2.86602
312, 6, wb, filler, NA, 999, 999, 3, 17, 108, 175, 190, 131, 150, 107, 2, 1.30979
312, 6, wb, filler, NA, 999, 999, 3, 18, 170, 117, 121, 175, 98, 100, 3, 2.25473
312, 6, wb, filler, NA, 999, 999, 3, 18, 170, 117, 121, 175, 98, 100, 2, 1.29858
312, 6, wb, attraction, a-b-db, 9, 1, 3, 19, 57, 129, 135, 60, 60, 135, 2, 2.13222
312, 6, wb, attraction, a-b-db, 9, 1, 3, 19, 57, 129, 135, 60, 60, 135, 3, 1.76547
312, 6, wb, attraction, a-b-db, 9, 2, 3, 20, 90, 165, 165, 90, 86, 157, 3, 3.94028
312, 6, wb, attraction, a-b-db, 9, 2, 3, 20, 90, 165, 165, 90, 86, 157, 1, 0.316245
312, 6, wb, attraction, a-b-da, 5, 1, 3, 21, 132, 58, 60, 135, 135, 60, 1, 3.86145
312, 6, wb, attraction, a-b-da, 5, 1, 3, 21, 132, 58, 60, 135, 135, 60, 2, 0.568839
312, 6, wb, attraction, a-b-db, 14, 1, 3, 22, 56, 125, 60, 135, 135, 60, 3, 3.93608
312, 6, wb, attraction, a-b-db, 14, 1, 3, 22, 56, 125, 60, 135, 135, 60, 2, 0.576628
312, 6, wb, catch, NA, 999, 999, 3, 23, 127, 68, 164, 91, 193, 122, 1, 1.86325
312, 6, wb, catch, NA, 999, 999, 3, 23, 127, 68, 164, 91, 193, 122, 3, 0.331182
312, 6, wb, attraction, a-b-da, 5, 2, 3, 24, 161, 88, 90, 165, 165, 90, 3, 1.85986
312, 6, wb, attraction, a-b-da, 5, 2, 3, 24, 161, 88, 90, 165, 165, 90, 2, 0.519779
312, 6, wb, filler, NA, 999, 999, 3, 25, 177, 162, 189, 148, 140, 101, 3, 1.15297
312, 6, wb, filler, NA, 999, 999, 3, 25, 177, 162, 189, 148, 140, 101, 1, 0.385747
312, 6, wb, filler, NA, 999, 999, 3, 26, 113, 86, 195, 117, 105, 132, 1, 1.48025
312, 6, wb, filler, NA, 999, 999, 3, 26, 113, 86, 195, 117, 105, 132, 2, 0.835775
312, 6, wb, attraction, a-b-da, 2, 2, 3, 27, 90, 165, 163, 89, 165, 90, 2, 3.2082
312, 6, wb, attraction, a-b-da, 2, 2, 3, 27, 90, 165, 163, 89, 165, 90, 1, 0.469807
312, 6, wb, filler, NA, 999, 999, 3, 28, 149, 60, 139, 190, 86, 181, 1, 0.92097
312, 6, wb, filler, NA, 999, 999, 3, 28, 149, 60, 139, 190, 86, 181, 2, 0.274628
312, 6, wb, filler, NA, 999, 999, 3, 29, 85, 80, 144, 70, 61, 120, 3, 5.05322
312, 6, wb, filler, NA, 999, 999, 3, 29, 85, 80, 144, 70, 61, 120, 2, 0.200878
312, 6, wb, attraction, a-b-da, 14, 1, 3, 30, 60, 135, 125, 56, 135, 60, 2, 1.56675
312, 6, wb, attraction, a-b-da, 14, 1, 3, 30, 60, 135, 125, 56, 135, 60, 1, 0.246987
312, 6, wb, attraction, a-b-db, 14, 2, 3, 31, 165, 90, 83, 153, 90, 165, 2, 4.18678
312, 6, wb, attraction, a-b-db, 14, 2, 3, 31, 165, 90, 83, 153, 90, 165, 3, 0.921399
312, 6, wb, attraction, a-b-db, 5, 3, 3, 32, 120, 195, 117, 190, 195, 120, 3, 5.57841
312, 6, wb, attraction, a-b-db, 5, 3, 3, 32, 120, 195, 117, 190, 195, 120, 1, 1.11259
312, 6, wb, attraction, a-b-db, 9, 3, 3, 33, 120, 195, 114, 186, 195, 120, 2, 2.4097
312, 6, wb, attraction, a-b-db, 9, 3, 3, 33, 120, 195, 114, 186, 195, 120, 1, 0.231554
312, 6, wb, attraction, a-b-da, 9, 3, 3, 34, 186, 114, 120, 195, 195, 120, 1, 7.42805
312, 6, wb, attraction, a-b-da, 9, 3, 3, 34, 186, 114, 120, 195, 195, 120, 2, 0.231586
312, 6, wb, filler, NA, 999, 999, 3, 35, 127, 179, 140, 73, 112, 84, 3, 0.868112
312, 6, wb, filler, NA, 999, 999, 3, 35, 127, 179, 140, 73, 112, 84, 1, 0.168597
312, 6, wb, catch, NA, 999, 999, 3, 36, 189, 126, 103, 152, 129, 66, 3, 0.919839
312, 6, wb, catch, NA, 999, 999, 3, 36, 189, 126, 103, 152, 129, 66, 1, 0.426189
312, 6, wb, attraction, a-b-da, 14, 2, 3, 37, 90, 165, 165, 90, 153, 83, 3, 1.55058
312, 6, wb, attraction, a-b-da, 14, 2, 3, 37, 90, 165, 165, 90, 153, 83, 1, 0.583524
312, 6, wb, filler, NA, 999, 999, 4, 1, 139, 77, 124, 113, 57, 115, 3, 0.701845
312, 6, wb, filler, NA, 999, 999, 4, 1, 139, 77, 124, 113, 57, 115, 2, 0.648945
312, 6, wb, attraction, a-b-db, 14, 2, 4, 2, 90, 165, 165, 90, 83, 153, 3, 1.71673
312, 6, wb, attraction, a-b-db, 14, 2, 4, 2, 90, 165, 165, 90, 83, 153, 1, 1.98273
312, 6, wb, attraction, a-b-da, 5, 3, 4, 3, 190, 117, 195, 120, 120, 195, 2, 4.89272
312, 6, wb, attraction, a-b-da, 5, 3, 4, 3, 190, 117, 195, 120, 120, 195, 3, 0.19052
312, 6, wb, attraction, a-b-da, 9, 2, 4, 4, 90, 165, 165, 90, 157, 86, 3, 2.43643
312, 6, wb, attraction, a-b-da, 9, 2, 4, 4, 90, 165, 165, 90, 157, 86, 1, 0.53766
312, 6, wb, attraction, a-b-da, 14, 2, 4, 5, 90, 165, 165, 90, 153, 83, 3, 1.62606
312, 6, wb, attraction, a-b-da, 14, 2, 4, 5, 90, 165, 165, 90, 153, 83, 1, 0.343697
312, 6, wb, attraction, a-b-da, 5, 1, 4, 6, 132, 58, 135, 60, 60, 135, 1, 5.44741
312, 6, wb, attraction, a-b-da, 5, 1, 4, 6, 132, 58, 135, 60, 60, 135, 3, 4.155
312, 6, wb, filler, NA, 999, 999, 4, 7, 61, 119, 194, 104, 102, 121, 1, 0.913566
312, 6, wb, filler, NA, 999, 999, 4, 7, 61, 119, 194, 104, 102, 121, 2, 0.188037
312, 6, wb, attraction, a-b-db, 2, 2, 4, 8, 89, 163, 90, 165, 165, 90, 3, 4.23467
312, 6, wb, attraction, a-b-db, 2, 2, 4, 8, 89, 163, 90, 165, 165, 90, 1, 0.255234
312, 6, wb, filler, NA, 999, 999, 4, 9, 142, 169, 112, 140, 193, 98, 2, 3.98703
312, 6, wb, filler, NA, 999, 999, 4, 9, 142, 169, 112, 140, 193, 98, 1, 0.281808
312, 6, wb, attraction, a-b-da, 9, 1, 4, 10, 60, 135, 129, 57, 135, 60, 2, 2.64426
312, 6, wb, attraction, a-b-da, 9, 1, 4, 10, 60, 135, 129, 57, 135, 60, 1, 1.7528
312, 6, wb, catch, NA, 999, 999, 4, 11, 137, 178, 91, 104, 151, 104, 2, 0.760185
312, 6, wb, catch, NA, 999, 999, 4, 11, 137, 178, 91, 104, 151, 104, 1, 0.208574
312, 6, wb, filler, NA, 999, 999, 4, 12, 81, 84, 82, 189, 150, 162, 1, 0.669764
312, 6, wb, filler, NA, 999, 999, 4, 12, 81, 84, 82, 189, 150, 162, 3, 0.314232
312, 6, wb, attraction, a-b-da, 9, 3, 4, 13, 195, 120, 120, 195, 186, 114, 3, 4.01935
312, 6, wb, attraction, a-b-da, 9, 3, 4, 13, 195, 120, 120, 195, 186, 114, 2, 0.936761
312, 6, wb, attraction, a-b-da, 14, 3, 4, 14, 181, 111, 195, 120, 120, 195, 1, 1.86501
312, 6, wb, attraction, a-b-da, 14, 3, 4, 14, 181, 111, 195, 120, 120, 195, 3, 0.781165
312, 6, wb, attraction, a-b-db, 14, 1, 4, 15, 56, 125, 135, 60, 60, 135, 2, 2.21946
312, 6, wb, attraction, a-b-db, 14, 1, 4, 15, 56, 125, 135, 60, 60, 135, 3, 0.905418
312, 6, wb, catch, NA, 999, 999, 4, 16, 138, 177, 87, 108, 144, 111, 2, 0.891066
312, 6, wb, catch, NA, 999, 999, 4, 16, 138, 177, 87, 108, 144, 111, 1, 0.17412
312, 6, wb, attraction, a-b-db, 5, 1, 4, 17, 60, 135, 135, 60, 58, 132, 3, 1.58865
312, 6, wb, attraction, a-b-db, 5, 1, 4, 17, 60, 135, 135, 60, 58, 132, 1, 0.915469
312, 6, wb, attraction, a-b-db, 2, 3, 4, 18, 119, 193, 195, 120, 120, 195, 3, 4.22045
312, 6, wb, attraction, a-b-db, 2, 3, 4, 18, 119, 193, 195, 120, 120, 195, 1, 0.273772
312, 6, wb, attraction, a-b-db, 9, 1, 4, 19, 60, 135, 135, 60, 57, 129, 2, 2.53244
312, 6, wb, attraction, a-b-db, 9, 1, 4, 19, 60, 135, 135, 60, 57, 129, 1, 0.357492
312, 6, wb, attraction, a-b-da, 2, 1, 4, 20, 135, 60, 134, 59, 60, 135, 1, 1.38067
312, 6, wb, attraction, a-b-da, 2, 1, 4, 20, 135, 60, 134, 59, 60, 135, 3, 0.276238
312, 6, wb, attraction, a-b-da, 14, 1, 4, 21, 60, 135, 125, 56, 135, 60, 2, 1.05469
312, 6, wb, attraction, a-b-da, 14, 1, 4, 21, 60, 135, 125, 56, 135, 60, 1, 0.30702
312, 6, wb, attraction, a-b-db, 9, 2, 4, 22, 165, 90, 86, 157, 90, 165, 2, 2.75619
312, 6, wb, attraction, a-b-db, 9, 2, 4, 22, 165, 90, 86, 157, 90, 165, 3, 0.827984
312, 6, wb, attraction, a-b-db, 14, 3, 4, 23, 120, 195, 111, 181, 195, 120, 2, 2.50433
312, 6, wb, attraction, a-b-db, 14, 3, 4, 23, 120, 195, 111, 181, 195, 120, 1, 0.234169
312, 6, wb, filler, NA, 999, 999, 4, 24, 129, 166, 73, 68, 169, 188, 2, 0.66273
312, 6, wb, filler, NA, 999, 999, 4, 24, 129, 166, 73, 68, 169, 188, 3, 0.651174
312, 6, wb, attraction, a-b-da, 5, 2, 4, 25, 161, 88, 90, 165, 165, 90, 1, 2.50285
312, 6, wb, attraction, a-b-da, 5, 2, 4, 25, 161, 88, 90, 165, 165, 90, 3, 1.52942
312, 6, wb, attraction, a-b-da, 2, 3, 4, 26, 195, 120, 120, 195, 193, 119, 3, 2.04962
312, 6, wb, attraction, a-b-da, 2, 3, 4, 26, 195, 120, 120, 195, 193, 119, 2, 1.88628
312, 6, wb, filler, NA, 999, 999, 4, 27, 132, 125, 136, 148, 71, 83, 3, 0.768318
312, 6, wb, filler, NA, 999, 999, 4, 27, 132, 125, 136, 148, 71, 83, 2, 0.360715
312, 6, wb, attraction, a-b-da, 2, 2, 4, 28, 90, 165, 163, 89, 165, 90, 1, 1.33578
312, 6, wb, attraction, a-b-da, 2, 2, 4, 28, 90, 165, 163, 89, 165, 90, 3, 1.12138
312, 6, wb, filler, NA, 999, 999, 4, 29, 153, 151, 88, 138, 174, 172, 2, 0.690446
312, 6, wb, filler, NA, 999, 999, 4, 29, 153, 151, 88, 138, 174, 172, 3, 0.301335
312, 6, wb, filler, NA, 999, 999, 4, 30, 166, 165, 61, 175, 161, 62, 3, 2.53527
312, 6, wb, filler, NA, 999, 999, 4, 30, 166, 165, 61, 175, 161, 62, 1, 0.568339
312, 6, wb, catch, NA, 999, 999, 4, 31, 137, 118, 89, 106, 180, 135, 2, 0.887659
312, 6, wb, catch, NA, 999, 999, 4, 31, 137, 118, 89, 106, 180, 135, 3, 0.338619
312, 6, wb, filler, NA, 999, 999, 4, 32, 118, 102, 66, 135, 81, 195, 2, 2.2271
312, 6, wb, filler, NA, 999, 999, 4, 32, 118, 102, 66, 135, 81, 195, 3, 0.336348
312, 6, wb, filler, NA, 999, 999, 4, 33, 149, 62, 137, 160, 129, 166, 1, 1.13683
312, 6, wb, filler, NA, 999, 999, 4, 33, 149, 62, 137, 160, 129, 166, 2, 0.370413
312, 6, wb, attraction, a-b-db, 2, 1, 4, 34, 60, 135, 59, 134, 135, 60, 2, 2.74576
312, 6, wb, attraction, a-b-db, 2, 1, 4, 34, 60, 135, 59, 134, 135, 60, 1, 1.50608
312, 6, wb, attraction, a-b-db, 9, 3, 4, 35, 114, 186, 120, 195, 195, 120, 1, 2.66685
312, 6, wb, attraction, a-b-db, 9, 3, 4, 35, 114, 186, 120, 195, 195, 120, 3, 1.86265
312, 6, wb, attraction, a-b-db, 5, 2, 4, 36, 165, 90, 88, 161, 90, 165, 2, 3.24936
312, 6, wb, attraction, a-b-db, 5, 2, 4, 36, 165, 90, 88, 161, 90, 165, 3, 0.957755
312, 6, wb, attraction, a-b-db, 5, 3, 4, 37, 117, 190, 120, 195, 195, 120, 1, 5.29263
312, 6, wb, attraction, a-b-db, 5, 3, 4, 37, 117, 190, 120, 195, 195, 120, 2, 0.782312
312, 6, wb, filler, NA, 999, 999, 5, 1, 61, 96, 61, 75, 97, 85, 2, 2.23528
312, 6, wb, filler, NA, 999, 999, 5, 1, 61, 96, 61, 75, 97, 85, 3, 0.448684
312, 6, wb, filler, NA, 999, 999, 5, 2, 66, 87, 129, 91, 145, 118, 1, 0.908314
312, 6, wb, filler, NA, 999, 999, 5, 2, 66, 87, 129, 91, 145, 118, 3, 0.246697
312, 6, wb, filler, NA, 999, 999, 5, 3, 179, 76, 93, 153, 183, 108, 1, 1.66658
312, 6, wb, filler, NA, 999, 999, 5, 3, 179, 76, 93, 153, 183, 108, 3, 0.830838
312, 6, wb, attraction, a-b-db, 2, 2, 5, 4, 90, 165, 89, 163, 165, 90, 2, 3.05904
312, 6, wb, attraction, a-b-db, 2, 2, 5, 4, 90, 165, 89, 163, 165, 90, 1, 0.246693
312, 6, wb, attraction, a-b-db, 2, 3, 5, 5, 119, 193, 195, 120, 120, 195, 2, 2.26657
312, 6, wb, attraction, a-b-db, 2, 3, 5, 5, 119, 193, 195, 120, 120, 195, 1, 0.134668
312, 6, wb, catch, NA, 999, 999, 5, 6, 122, 73, 181, 134, 120, 135, 1, 0.823143
312, 6, wb, catch, NA, 999, 999, 5, 6, 122, 73, 181, 134, 120, 135, 2, 0.5969
312, 6, wb, attraction, a-b-db, 14, 1, 5, 7, 135, 60, 56, 125, 60, 135, 2, 0.978605
312, 6, wb, attraction, a-b-db, 14, 1, 5, 7, 135, 60, 56, 125, 60, 135, 3, 0.962302
312, 6, wb, filler, NA, 999, 999, 5, 8, 100, 187, 96, 157, 176, 85, 2, 1.36116
312, 6, wb, filler, NA, 999, 999, 5, 8, 100, 187, 96, 157, 176, 85, 1, 0.233337
312, 6, wb, attraction, a-b-db, 2, 1, 5, 9, 135, 60, 60, 135, 59, 134, 1, 1.92591
312, 6, wb, attraction, a-b-db, 2, 1, 5, 9, 135, 60, 60, 135, 59, 134, 2, 0.671374
312, 6, wb, attraction, a-b-da, 14, 3, 5, 10, 120, 195, 195, 120, 181, 111, 3, 1.74632
312, 6, wb, attraction, a-b-da, 14, 3, 5, 10, 120, 195, 195, 120, 181, 111, 1, 0.7311
312, 6, wb, attraction, a-b-db, 5, 2, 5, 11, 88, 161, 90, 165, 165, 90, 2, 1.30745
312, 6, wb, attraction, a-b-db, 5, 2, 5, 11, 88, 161, 90, 165, 165, 90, 1, 1.32578
312, 6, wb, attraction, a-b-db, 9, 1, 5, 12, 57, 129, 135, 60, 60, 135, 2, 1.09389
312, 6, wb, attraction, a-b-db, 9, 1, 5, 12, 57, 129, 135, 60, 60, 135, 3, 0.456838
312, 6, wb, attraction, a-b-db, 14, 2, 5, 13, 90, 165, 83, 153, 165, 90, 2, 2.1961
312, 6, wb, attraction, a-b-db, 14, 2, 5, 13, 90, 165, 83, 153, 165, 90, 1, 1.88264
312, 6, wb, catch, NA, 999, 999, 5, 14, 138, 177, 124, 131, 60, 135, 3, 0.612668
312, 6, wb, catch, NA, 999, 999, 5, 14, 138, 177, 124, 131, 60, 135, 1, 0.371066
312, 6, wb, filler, NA, 999, 999, 5, 15, 137, 132, 120, 109, 75, 58, 3, 0.482271
312, 6, wb, filler, NA, 999, 999, 5, 15, 137, 132, 120, 109, 75, 58, 1, 0.622118
312, 6, wb, attraction, a-b-db, 14, 3, 5, 16, 120, 195, 195, 120, 111, 181, 3, 3.22727
312, 6, wb, attraction, a-b-db, 14, 3, 5, 16, 120, 195, 195, 120, 111, 181, 1, 0.328104
312, 6, wb, attraction, a-b-db, 5, 3, 5, 17, 117, 190, 120, 195, 195, 120, 3, 5.76066
312, 6, wb, attraction, a-b-db, 5, 3, 5, 17, 117, 190, 120, 195, 195, 120, 2, 1.01559
312, 6, wb, attraction, a-b-da, 14, 1, 5, 18, 125, 56, 135, 60, 60, 135, 1, 1.05249
312, 6, wb, attraction, a-b-da, 14, 1, 5, 18, 125, 56, 135, 60, 60, 135, 2, 0.713418
312, 6, wb, attraction, a-b-da, 2, 2, 5, 19, 165, 90, 163, 89, 90, 165, 2, 11.1546
312, 6, wb, attraction, a-b-da, 2, 2, 5, 19, 165, 90, 163, 89, 90, 165, 3, 0.192329
312, 6, wb, filler, NA, 999, 999, 5, 20, 58, 142, 90, 97, 59, 91, 3, 2.60626
312, 6, wb, filler, NA, 999, 999, 5, 20, 58, 142, 90, 97, 59, 91, 2, 0.124038
312, 6, wb, filler, NA, 999, 999, 5, 21, 81, 64, 144, 159, 156, 195, 1, 0.90853
312, 6, wb, filler, NA, 999, 999, 5, 21, 81, 64, 144, 159, 156, 195, 3, 0.199043
312, 6, wb, filler, NA, 999, 999, 5, 22, 182, 134, 94, 144, 194, 109, 2, 1.63681
312, 6, wb, filler, NA, 999, 999, 5, 22, 182, 134, 94, 144, 194, 109, 1, 1.1624
312, 6, wb, attraction, a-b-db, 9, 2, 5, 23, 165, 90, 86, 157, 90, 165, 2, 4.24931
312, 6, wb, attraction, a-b-db, 9, 2, 5, 23, 165, 90, 86, 157, 90, 165, 1, 0.373108
312, 6, wb, filler, NA, 999, 999, 5, 24, 101, 142, 75, 78, 90, 74, 2, 1.08372
312, 6, wb, filler, NA, 999, 999, 5, 24, 101, 142, 75, 78, 90, 74, 1, 0.191385
312, 6, wb, attraction, a-b-db, 9, 3, 5, 25, 114, 186, 120, 195, 195, 120, 3, 7.63732
312, 6, wb, attraction, a-b-db, 9, 3, 5, 25, 114, 186, 120, 195, 195, 120, 2, 0.63274
312, 6, wb, attraction, a-b-da, 9, 1, 5, 26, 135, 60, 129, 57, 60, 135, 2, 1.0932
312, 6, wb, attraction, a-b-da, 9, 1, 5, 26, 135, 60, 129, 57, 60, 135, 1, 0.232165
312, 6, wb, attraction, a-b-da, 2, 3, 5, 27, 195, 120, 193, 119, 120, 195, 3, 3.73269
312, 6, wb, attraction, a-b-da, 2, 3, 5, 27, 195, 120, 193, 119, 120, 195, 1, 0.63751
312, 6, wb, attraction, a-b-da, 9, 2, 5, 28, 90, 165, 157, 86, 165, 90, 2, 5.43395
312, 6, wb, attraction, a-b-da, 9, 2, 5, 28, 90, 165, 157, 86, 165, 90, 1, 0.286291
312, 6, wb, attraction, a-b-da, 5, 1, 5, 29, 135, 60, 132, 58, 60, 135, 2, 8.4648
312, 6, wb, attraction, a-b-da, 5, 1, 5, 29, 135, 60, 132, 58, 60, 135, 1, 0.383086
312, 6, wb, attraction, a-b-da, 5, 3, 5, 30, 120, 195, 190, 117, 195, 120, 2, 5.34515
312, 6, wb, attraction, a-b-da, 5, 3, 5, 30, 120, 195, 190, 117, 195, 120, 1, 0.28085
312, 6, wb, filler, NA, 999, 999, 5, 31, 127, 67, 136, 72, 159, 111, 1, 1.39534
312, 6, wb, filler, NA, 999, 999, 5, 31, 127, 67, 136, 72, 159, 111, 3, 0.290242
312, 6, wb, attraction, a-b-da, 2, 1, 5, 32, 134, 59, 60, 135, 135, 60, 1, 2.78808
312, 6, wb, attraction, a-b-da, 2, 1, 5, 32, 134, 59, 60, 135, 135, 60, 3, 4.44255
312, 6, wb, attraction, a-b-db, 5, 1, 5, 33, 58, 132, 135, 60, 60, 135, 1, 6.10899
312, 6, wb, attraction, a-b-db, 5, 1, 5, 33, 58, 132, 135, 60, 60, 135, 3, 0.445784
312, 6, wb, attraction, a-b-da, 14, 2, 5, 34, 165, 90, 90, 165, 153, 83, 3, 3.43365
312, 6, wb, attraction, a-b-da, 14, 2, 5, 34, 165, 90, 90, 165, 153, 83, 2, 0.854542
312, 6, wb, attraction, a-b-da, 9, 3, 5, 35, 195, 120, 186, 114, 120, 195, 2, 2.42619
312, 6, wb, attraction, a-b-da, 9, 3, 5, 35, 195, 120, 186, 114, 120, 195, 3, 1.10338
312, 6, wb, catch, NA, 999, 999, 5, 36, 115, 140, 192, 123, 71, 124, 3, 1.00894
312, 6, wb, catch, NA, 999, 999, 5, 36, 115, 140, 192, 123, 71, 124, 2, 1.21543
312, 6, wb, attraction, a-b-da, 5, 2, 5, 37, 165, 90, 90, 165, 161, 88, 2, 6.36415
312, 6, wb, attraction, a-b-da, 5, 2, 5, 37, 165, 90, 90, 165, 161, 88, 1, 0.450777
312, 6, wb, attraction, a-b-da, 14, 3, 6, 1, 195, 120, 181, 111, 120, 195, 2, 5.04669
312, 6, wb, attraction, a-b-da, 14, 3, 6, 1, 195, 120, 181, 111, 120, 195, 3, 0.266339
312, 6, wb, filler, NA, 999, 999, 6, 2, 132, 172, 156, 149, 120, 150, 3, 1.28552
312, 6, wb, filler, NA, 999, 999, 6, 2, 132, 172, 156, 149, 120, 150, 2, 0.43315
312, 6, wb, attraction, a-b-db, 2, 1, 6, 3, 59, 134, 60, 135, 135, 60, 3, 2.35767
312, 6, wb, attraction, a-b-db, 2, 1, 6, 3, 59, 134, 60, 135, 135, 60, 2, 0.285661
312, 6, wb, filler, NA, 999, 999, 6, 4, 63, 157, 90, 171, 115, 122, 1, 2.25606
312, 6, wb, filler, NA, 999, 999, 6, 4, 63, 157, 90, 171, 115, 122, 2, 0.220023
312, 6, wb, attraction, a-b-db, 2, 2, 6, 5, 165, 90, 90, 165, 89, 163, 1, 9.53729
312, 6, wb, attraction, a-b-db, 2, 2, 6, 5, 165, 90, 90, 165, 89, 163, 2, 4.76812
312, 6, wb, attraction, a-b-da, 5, 3, 6, 6, 190, 117, 195, 120, 120, 195, 1, 8.78995
312, 6, wb, attraction, a-b-da, 5, 3, 6, 6, 190, 117, 195, 120, 120, 195, 2, 0.146473
312, 6, wb, attraction, a-b-db, 14, 3, 6, 7, 111, 181, 195, 120, 120, 195, 1, 1.25835
312, 6, wb, attraction, a-b-db, 14, 3, 6, 7, 111, 181, 195, 120, 120, 195, 3, 2.64658
312, 6, wb, attraction, a-b-db, 14, 1, 6, 8, 56, 125, 135, 60, 60, 135, 2, 2.97783
312, 6, wb, attraction, a-b-db, 14, 1, 6, 8, 56, 125, 135, 60, 60, 135, 3, 0.264755
312, 6, wb, catch, NA, 999, 999, 6, 9, 125, 190, 159, 96, 130, 65, 3, 0.835989
312, 6, wb, catch, NA, 999, 999, 6, 9, 125, 190, 159, 96, 130, 65, 1, 0.27378
312, 6, wb, filler, NA, 999, 999, 6, 10, 95, 158, 73, 67, 73, 120, 2, 0.804251
312, 6, wb, filler, NA, 999, 999, 6, 10, 95, 158, 73, 67, 73, 120, 1, 0.178594
312, 6, wb, catch, NA, 999, 999, 6, 11, 84, 111, 141, 174, 164, 91, 1, 0.769144
312, 6, wb, catch, NA, 999, 999, 6, 11, 84, 111, 141, 174, 164, 91, 2, 0.225556
312, 6, wb, filler, NA, 999, 999, 6, 12, 62, 144, 172, 94, 105, 94, 1, 1.76617
312, 6, wb, filler, NA, 999, 999, 6, 12, 62, 144, 172, 94, 105, 94, 2, 0.542276
312, 6, wb, attraction, a-b-da, 5, 1, 6, 13, 135, 60, 60, 135, 132, 58, 2, 2.23807
312, 6, wb, attraction, a-b-da, 5, 1, 6, 13, 135, 60, 60, 135, 132, 58, 1, 1.00254
312, 6, wb, attraction, a-b-db, 9, 1, 6, 14, 60, 135, 135, 60, 57, 129, 2, 2.66423
312, 6, wb, attraction, a-b-db, 9, 1, 6, 14, 60, 135, 135, 60, 57, 129, 1, 0.33207
312, 6, wb, filler, NA, 999, 999, 6, 15, 101, 179, 93, 147, 61, 161, 3, 0.924668
312, 6, wb, filler, NA, 999, 999, 6, 15, 101, 179, 93, 147, 61, 161, 1, 0.630197
312, 6, wb, attraction, a-b-da, 2, 3, 6, 16, 120, 195, 193, 119, 195, 120, 2, 2.29856
312, 6, wb, attraction, a-b-da, 2, 3, 6, 16, 120, 195, 193, 119, 195, 120, 1, 0.541213
312, 6, wb, attraction, a-b-da, 2, 1, 6, 17, 135, 60, 134, 59, 60, 135, 3, 1.68494
312, 6, wb, attraction, a-b-da, 2, 1, 6, 17, 135, 60, 134, 59, 60, 135, 1, 0.504354
312, 6, wb, attraction, a-b-da, 2, 2, 6, 18, 90, 165, 165, 90, 163, 89, 2, 1.65015
312, 6, wb, attraction, a-b-da, 2, 2, 6, 18, 90, 165, 165, 90, 163, 89, 1, 0.590924
312, 6, wb, filler, NA, 999, 999, 6, 19, 141, 79, 174, 159, 90, 183, 1, 0.804693
312, 6, wb, filler, NA, 999, 999, 6, 19, 141, 79, 174, 159, 90, 183, 2, 0.29107
312, 6, wb, attraction, a-b-db, 9, 3, 6, 20, 114, 186, 120, 195, 195, 120, 1, 3.55702
312, 6, wb, attraction, a-b-db, 9, 3, 6, 20, 114, 186, 120, 195, 195, 120, 3, 0.476518
312, 6, wb, attraction, a-b-da, 5, 2, 6, 21, 90, 165, 165, 90, 161, 88, 1, 0.870914
312, 6, wb, attraction, a-b-da, 5, 2, 6, 21, 90, 165, 165, 90, 161, 88, 2, 0.698666
312, 6, wb, attraction, a-b-db, 5, 2, 6, 22, 165, 90, 88, 161, 90, 165, 2, 3.53243
312, 6, wb, attraction, a-b-db, 5, 2, 6, 22, 165, 90, 88, 161, 90, 165, 1, 0.629393
312, 6, wb, attraction, a-b-da, 9, 1, 6, 23, 60, 135, 129, 57, 135, 60, 2, 1.10574
312, 6, wb, attraction, a-b-da, 9, 1, 6, 23, 60, 135, 129, 57, 135, 60, 1, 0.251951
312, 6, wb, filler, NA, 999, 999, 6, 24, 68, 85, 157, 185, 84, 74, 1, 1.31981
312, 6, wb, filler, NA, 999, 999, 6, 24, 68, 85, 157, 185, 84, 74, 2, 0.234057
312, 6, wb, attraction, a-b-db, 5, 3, 6, 25, 195, 120, 120, 195, 117, 190, 3, 2.94276
312, 6, wb, attraction, a-b-db, 5, 3, 6, 25, 195, 120, 120, 195, 117, 190, 1, 1.74299
312, 6, wb, attraction, a-b-db, 5, 1, 6, 26, 135, 60, 58, 132, 60, 135, 2, 1.64631
312, 6, wb, attraction, a-b-db, 5, 1, 6, 26, 135, 60, 58, 132, 60, 135, 3, 1.22715
312, 6, wb, filler, NA, 999, 999, 6, 27, 101, 140, 126, 125, 145, 91, 3, 3.7194
312, 6, wb, filler, NA, 999, 999, 6, 27, 101, 140, 126, 125, 145, 91, 1, 0.944897
312, 6, wb, filler, NA, 999, 999, 6, 28, 142, 136, 140, 93, 112, 132, 2, 1.0325
312, 6, wb, filler, NA, 999, 999, 6, 28, 142, 136, 140, 93, 112, 132, 1, 0.398309
312, 6, wb, attraction, a-b-db, 14, 2, 6, 29, 83, 153, 165, 90, 90, 165, 1, 2.85206
312, 6, wb, attraction, a-b-db, 14, 2, 6, 29, 83, 153, 165, 90, 90, 165, 3, 0.160365
312, 6, wb, attraction, a-b-da, 14, 1, 6, 30, 125, 56, 60, 135, 135, 60, 2, 2.38356
312, 6, wb, attraction, a-b-da, 14, 1, 6, 30, 125, 56, 60, 135, 135, 60, 3, 1.13494
312, 6, wb, filler, NA, 999, 999, 6, 31, 108, 173, 169, 123, 72, 160, 3, 3.2951
312, 6, wb, filler, NA, 999, 999, 6, 31, 108, 173, 169, 123, 72, 160, 1, 0.593413
312, 6, wb, attraction, a-b-da, 14, 2, 6, 32, 153, 83, 165, 90, 90, 165, 1, 3.56726
312, 6, wb, attraction, a-b-da, 14, 2, 6, 32, 153, 83, 165, 90, 90, 165, 3, 0.494658
312, 6, wb, catch, NA, 999, 999, 6, 33, 191, 124, 98, 97, 153, 102, 2, 1.39244
312, 6, wb, catch, NA, 999, 999, 6, 33, 191, 124, 98, 97, 153, 102, 1, 0.399421
312, 6, wb, attraction, a-b-da, 9, 3, 6, 34, 120, 195, 186, 114, 195, 120, 2, 2.62111
312, 6, wb, attraction, a-b-da, 9, 3, 6, 34, 120, 195, 186, 114, 195, 120, 1, 8.21831
312, 6, wb, attraction, a-b-da, 9, 2, 6, 35, 165, 90, 90, 165, 157, 86, 1, 9.16494
312, 6, wb, attraction, a-b-da, 9, 2, 6, 35, 165, 90, 90, 165, 157, 86, 2, 0.162759
312, 6, wb, attraction, a-b-db, 2, 3, 6, 36, 195, 120, 120, 195, 119, 193, 3, 2.14607
312, 6, wb, attraction, a-b-db, 2, 3, 6, 36, 195, 120, 120, 195, 119, 193, 1, 0.338689
312, 6, wb, attraction, a-b-db, 9, 2, 6, 37, 90, 165, 86, 157, 165, 90, 2, 0.971148
312, 6, wb, attraction, a-b-db, 9, 2, 6, 37, 90, 165, 86, 157, 165, 90, 1, 0.618821
312, 6, wb, catch, NA, 999, 999, 7, 1, 125, 130, 88, 107, 129, 186, 2, 0.807892
312, 6, wb, catch, NA, 999, 999, 7, 1, 125, 130, 88, 107, 129, 186, 3, 0.470262
312, 6, wb, attraction, a-b-db, 2, 2, 7, 2, 165, 90, 89, 163, 90, 165, 2, 1.60933
312, 6, wb, attraction, a-b-db, 2, 2, 7, 2, 165, 90, 89, 163, 90, 165, 3, 0.679534
312, 6, wb, attraction, a-b-da, 14, 2, 7, 3, 153, 83, 90, 165, 165, 90, 1, 1.79401
312, 6, wb, attraction, a-b-da, 14, 2, 7, 3, 153, 83, 90, 165, 165, 90, 2, 1.50471
312, 6, wb, attraction, a-b-db, 14, 1, 7, 4, 135, 60, 56, 125, 60, 135, 2, 0.930156
312, 6, wb, attraction, a-b-db, 14, 1, 7, 4, 135, 60, 56, 125, 60, 135, 3, 1.85988
312, 6, wb, attraction, a-b-da, 14, 1, 7, 5, 135, 60, 60, 135, 125, 56, 3, 1.15852
312, 6, wb, attraction, a-b-da, 14, 1, 7, 5, 135, 60, 60, 135, 125, 56, 1, 0.694746
312, 6, wb, attraction, a-b-db, 9, 3, 7, 6, 120, 195, 114, 186, 195, 120, 2, 0.920582
312, 6, wb, attraction, a-b-db, 9, 3, 7, 6, 120, 195, 114, 186, 195, 120, 1, 0.682166
312, 6, wb, attraction, a-b-db, 9, 1, 7, 7, 135, 60, 57, 129, 60, 135, 2, 0.74872
312, 6, wb, attraction, a-b-db, 9, 1, 7, 7, 135, 60, 57, 129, 60, 135, 3, 0.613669
312, 6, wb, attraction, a-b-db, 2, 1, 7, 8, 60, 135, 59, 134, 135, 60, 3, 1.45075
312, 6, wb, attraction, a-b-db, 2, 1, 7, 8, 60, 135, 59, 134, 135, 60, 2, 0.567693
312, 6, wb, filler, NA, 999, 999, 7, 9, 187, 190, 175, 149, 90, 150, 3, 0.654755
312, 6, wb, filler, NA, 999, 999, 7, 9, 187, 190, 175, 149, 90, 150, 1, 0.34716
312, 6, wb, filler, NA, 999, 999, 7, 10, 179, 108, 105, 74, 108, 174, 2, 0.634897
312, 6, wb, filler, NA, 999, 999, 7, 10, 179, 108, 105, 74, 108, 174, 3, 2.66468
312, 6, wb, filler, NA, 999, 999, 7, 11, 130, 138, 129, 174, 164, 158, 1, 1.66726
312, 6, wb, filler, NA, 999, 999, 7, 11, 130, 138, 129, 174, 164, 158, 3, 0.287282
312, 6, wb, filler, NA, 999, 999, 7, 12, 177, 119, 178, 78, 168, 164, 2, 0.849763
312, 6, wb, filler, NA, 999, 999, 7, 12, 177, 119, 178, 78, 168, 164, 3, 0.279031
312, 6, wb, filler, NA, 999, 999, 7, 13, 74, 124, 89, 87, 85, 162, 2, 1.40937
312, 6, wb, filler, NA, 999, 999, 7, 13, 74, 124, 89, 87, 85, 162, 3, 0.271593
312, 6, wb, filler, NA, 999, 999, 7, 14, 107, 116, 99, 111, 115, 148, 2, 0.754844
312, 6, wb, filler, NA, 999, 999, 7, 14, 107, 116, 99, 111, 115, 148, 3, 0.243278
312, 6, wb, catch, NA, 999, 999, 7, 15, 132, 123, 192, 123, 111, 84, 3, 0.815068
312, 6, wb, catch, NA, 999, 999, 7, 15, 132, 123, 192, 123, 111, 84, 2, 0.261572
312, 6, wb, filler, NA, 999, 999, 7, 16, 187, 151, 102, 162, 173, 176, 2, 1.2006
312, 6, wb, filler, NA, 999, 999, 7, 16, 187, 151, 102, 162, 173, 176, 3, 0.199577
312, 6, wb, attraction, a-b-da, 2, 2, 7, 17, 163, 89, 90, 165, 165, 90, 1, 2.32547
312, 6, wb, attraction, a-b-da, 2, 2, 7, 17, 163, 89, 90, 165, 165, 90, 2, 0.534644
312, 6, wb, catch, NA, 999, 999, 7, 18, 104, 91, 160, 95, 133, 182, 1, 0.847183
312, 6, wb, catch, NA, 999, 999, 7, 18, 104, 91, 160, 95, 133, 182, 3, 0.412199
312, 6, wb, attraction, a-b-da, 5, 2, 7, 19, 165, 90, 90, 165, 161, 88, 3, 2.2173
312, 6, wb, attraction, a-b-da, 5, 2, 7, 19, 165, 90, 90, 165, 161, 88, 2, 11.0154
312, 6, wb, attraction, a-b-da, 9, 2, 7, 20, 90, 165, 165, 90, 157, 86, 3, 2.74512
312, 6, wb, attraction, a-b-da, 9, 2, 7, 20, 90, 165, 165, 90, 157, 86, 1, 0.401525
312, 6, wb, attraction, a-b-da, 5, 1, 7, 21, 132, 58, 60, 135, 135, 60, 3, 1.44738
312, 6, wb, attraction, a-b-da, 5, 1, 7, 21, 132, 58, 60, 135, 135, 60, 2, 0.260337
312, 6, wb, attraction, a-b-db, 5, 1, 7, 22, 60, 135, 135, 60, 58, 132, 2, 1.11948
312, 6, wb, attraction, a-b-db, 5, 1, 7, 22, 60, 135, 135, 60, 58, 132, 1, 0.241668
312, 6, wb, attraction, a-b-da, 5, 3, 7, 23, 120, 195, 190, 117, 195, 120, 2, 2.62955
312, 6, wb, attraction, a-b-da, 5, 3, 7, 23, 120, 195, 190, 117, 195, 120, 1, 1.29868
312, 6, wb, attraction, a-b-db, 14, 2, 7, 24, 90, 165, 83, 153, 165, 90, 2, 0.868185
312, 6, wb, attraction, a-b-db, 14, 2, 7, 24, 90, 165, 83, 153, 165, 90, 1, 0.584618
312, 6, wb, attraction, a-b-db, 9, 2, 7, 25, 86, 157, 165, 90, 90, 165, 2, 2.63911
312, 6, wb, attraction, a-b-db, 9, 2, 7, 25, 86, 157, 165, 90, 90, 165, 3, 0.611656
312, 6, wb, attraction, a-b-da, 9, 1, 7, 26, 135, 60, 129, 57, 60, 135, 2, 2.27254
312, 6, wb, attraction, a-b-da, 9, 1, 7, 26, 135, 60, 129, 57, 60, 135, 1, 0.292003
312, 6, wb, attraction, a-b-db, 5, 2, 7, 27, 90, 165, 88, 161, 165, 90, 2, 1.43772
312, 6, wb, attraction, a-b-db, 5, 2, 7, 27, 90, 165, 88, 161, 165, 90, 1, 1.05857
312, 6, wb, filler, NA, 999, 999, 7, 28, 125, 70, 140, 72, 63, 191, 1, 1.09348
312, 6, wb, filler, NA, 999, 999, 7, 28, 125, 70, 140, 72, 63, 191, 3, 0.512655
312, 6, wb, attraction, a-b-db, 14, 3, 7, 29, 120, 195, 195, 120, 111, 181, 3, 1.1536
312, 6, wb, attraction, a-b-db, 14, 3, 7, 29, 120, 195, 195, 120, 111, 181, 1, 2.49849
312, 6, wb, attraction, a-b-da, 2, 1, 7, 30, 135, 60, 60, 135, 134, 59, 2, 3.59577
312, 6, wb, attraction, a-b-da, 2, 1, 7, 30, 135, 60, 60, 135, 134, 59, 3, 0.897899
312, 6, wb, attraction, a-b-da, 14, 3, 7, 31, 181, 111, 120, 195, 195, 120, 2, 4.44351
312, 6, wb, attraction, a-b-da, 14, 3, 7, 31, 181, 111, 120, 195, 195, 120, 3, 0.775495
312, 6, wb, attraction, a-b-da, 2, 3, 7, 32, 195, 120, 120, 195, 193, 119, 3, 1.73385
312, 6, wb, attraction, a-b-da, 2, 3, 7, 32, 195, 120, 120, 195, 193, 119, 1, 1.59128
312, 6, wb, filler, NA, 999, 999, 7, 33, 193, 84, 191, 67, 77, 181, 2, 3.98874
312, 6, wb, filler, NA, 999, 999, 7, 33, 193, 84, 191, 67, 77, 181, 1, 0.650767
312, 6, wb, attraction, a-b-db, 2, 3, 7, 34, 195, 120, 120, 195, 119, 193, 1, 4.39847
312, 6, wb, attraction, a-b-db, 2, 3, 7, 34, 195, 120, 120, 195, 119, 193, 3, 0.468524
312, 6, wb, attraction, a-b-da, 9, 3, 7, 35, 120, 195, 195, 120, 186, 114, 3, 4.43161
312, 6, wb, attraction, a-b-da, 9, 3, 7, 35, 120, 195, 195, 120, 186, 114, 1, 0.468119
312, 6, wb, filler, NA, 999, 999, 7, 36, 181, 106, 83, 181, 89, 85, 3, 0.82329
312, 6, wb, filler, NA, 999, 999, 7, 36, 181, 106, 83, 181, 89, 85, 1, 0.39708
312, 6, wb, attraction, a-b-db, 5, 3, 7, 37, 195, 120, 117, 190, 120, 195, 2, 3.03477
312, 6, wb, attraction, a-b-db, 5, 3, 7, 37, 195, 120, 117, 190, 120, 195, 3, 0.711805
312, 6, wb, attraction, a-b-da, 9, 2, 8, 1, 157, 86, 90, 165, 165, 90, 1, 7.12087
312, 6, wb, attraction, a-b-da, 9, 2, 8, 1, 157, 86, 90, 165, 165, 90, 3, 0.513448
312, 6, wb, catch, NA, 999, 999, 8, 2, 120, 195, 131, 64, 137, 118, 2, 1.33038
312, 6, wb, catch, NA, 999, 999, 8, 2, 120, 195, 131, 64, 137, 118, 1, 0.395981
312, 6, wb, attraction, a-b-da, 5, 3, 8, 3, 195, 120, 190, 117, 120, 195, 2, 3.4418
312, 6, wb, attraction, a-b-da, 5, 3, 8, 3, 195, 120, 190, 117, 120, 195, 3, 0.141999
312, 6, wb, attraction, a-b-db, 14, 3, 8, 4, 111, 181, 195, 120, 120, 195, 1, 2.83007
312, 6, wb, attraction, a-b-db, 14, 3, 8, 4, 111, 181, 195, 120, 120, 195, 3, 0.379203
312, 6, wb, filler, NA, 999, 999, 8, 5, 70, 90, 107, 150, 129, 165, 1, 0.601467
312, 6, wb, filler, NA, 999, 999, 8, 5, 70, 90, 107, 150, 129, 165, 3, 0.400612
312, 6, wb, filler, NA, 999, 999, 8, 6, 161, 137, 85, 69, 130, 70, 2, 0.638413
312, 6, wb, filler, NA, 999, 999, 8, 6, 161, 137, 85, 69, 130, 70, 1, 0.291518
312, 6, wb, attraction, a-b-db, 14, 1, 8, 7, 135, 60, 56, 125, 60, 135, 2, 5.04538
312, 6, wb, attraction, a-b-db, 14, 1, 8, 7, 135, 60, 56, 125, 60, 135, 1, 3.07316
312, 6, wb, attraction, a-b-db, 9, 2, 8, 8, 165, 90, 90, 165, 86, 157, 3, 4.79556
312, 6, wb, attraction, a-b-db, 9, 2, 8, 8, 165, 90, 90, 165, 86, 157, 1, 0.617238
312, 6, wb, attraction, a-b-db, 5, 1, 8, 9, 58, 132, 60, 135, 135, 60, 2, 1.93431
312, 6, wb, attraction, a-b-db, 5, 1, 8, 9, 58, 132, 60, 135, 135, 60, 1, 0.831758
312, 6, wb, attraction, a-b-da, 5, 2, 8, 10, 165, 90, 90, 165, 161, 88, 3, 1.76405
312, 6, wb, attraction, a-b-da, 5, 2, 8, 10, 165, 90, 90, 165, 161, 88, 1, 0.40419
312, 6, wb, attraction, a-b-db, 9, 1, 8, 11, 60, 135, 57, 129, 135, 60, 3, 2.70597
312, 6, wb, attraction, a-b-db, 9, 1, 8, 11, 60, 135, 57, 129, 135, 60, 1, 0.411767
312, 6, wb, attraction, a-b-db, 2, 2, 8, 12, 89, 163, 90, 165, 165, 90, 3, 1.48894
312, 6, wb, attraction, a-b-db, 2, 2, 8, 12, 89, 163, 90, 165, 165, 90, 1, 0.403718
312, 6, wb, filler, NA, 999, 999, 8, 13, 150, 84, 122, 149, 172, 57, 3, 1.2256
312, 6, wb, filler, NA, 999, 999, 8, 13, 150, 84, 122, 149, 172, 57, 2, 0.239277
312, 6, wb, attraction, a-b-db, 9, 3, 8, 14, 114, 186, 120, 195, 195, 120, 3, 5.7151
312, 6, wb, attraction, a-b-db, 9, 3, 8, 14, 114, 186, 120, 195, 195, 120, 2, 0.219875
312, 6, wb, attraction, a-b-da, 2, 3, 8, 15, 195, 120, 120, 195, 193, 119, 3, 4.06502
312, 6, wb, attraction, a-b-da, 2, 3, 8, 15, 195, 120, 120, 195, 193, 119, 2, 6.29239
312, 6, wb, attraction, a-b-da, 2, 1, 8, 16, 134, 59, 135, 60, 60, 135, 2, 2.85247
312, 6, wb, attraction, a-b-da, 2, 1, 8, 16, 134, 59, 135, 60, 60, 135, 3, 2.11289
312, 6, wb, attraction, a-b-da, 5, 1, 8, 17, 135, 60, 60, 135, 132, 58, 1, 5.51354
312, 6, wb, attraction, a-b-da, 5, 1, 8, 17, 135, 60, 60, 135, 132, 58, 2, 2.81038
312, 6, wb, attraction, a-b-db, 2, 3, 8, 18, 195, 120, 120, 195, 119, 193, 3, 2.96675
312, 6, wb, attraction, a-b-db, 2, 3, 8, 18, 195, 120, 120, 195, 119, 193, 2, 0.582438
312, 6, wb, attraction, a-b-db, 5, 2, 8, 19, 90, 165, 88, 161, 165, 90, 2, 2.18892
312, 6, wb, attraction, a-b-db, 5, 2, 8, 19, 90, 165, 88, 161, 165, 90, 1, 1.6275
312, 6, wb, filler, NA, 999, 999, 8, 20, 166, 136, 162, 71, 100, 57, 3, 0.623594
312, 6, wb, filler, NA, 999, 999, 8, 20, 166, 136, 162, 71, 100, 57, 1, 0.365458
312, 6, wb, attraction, a-b-da, 14, 3, 8, 21, 181, 111, 120, 195, 195, 120, 1, 1.61252
312, 6, wb, attraction, a-b-da, 14, 3, 8, 21, 181, 111, 120, 195, 195, 120, 2, 0.954688
312, 6, wb, attraction, a-b-da, 14, 2, 8, 22, 153, 83, 90, 165, 165, 90, 1, 0.834319
312, 6, wb, attraction, a-b-da, 14, 2, 8, 22, 153, 83, 90, 165, 165, 90, 2, 0.520051
312, 6, wb, filler, NA, 999, 999, 8, 23, 103, 181, 177, 183, 151, 81, 3, 1.1932
312, 6, wb, filler, NA, 999, 999, 8, 23, 103, 181, 177, 183, 151, 81, 2, 0.272089
312, 6, wb, attraction, a-b-da, 14, 1, 8, 24, 125, 56, 60, 135, 135, 60, 2, 1.62736
312, 6, wb, attraction, a-b-da, 14, 1, 8, 24, 125, 56, 60, 135, 135, 60, 3, 0.496713
312, 6, wb, attraction, a-b-da, 2, 2, 8, 25, 165, 90, 163, 89, 90, 165, 3, 1.81053
312, 6, wb, attraction, a-b-da, 2, 2, 8, 25, 165, 90, 163, 89, 90, 165, 1, 2.36866
312, 6, wb, filler, NA, 999, 999, 8, 26, 168, 180, 186, 91, 79, 76, 3, 1.03914
312, 6, wb, filler, NA, 999, 999, 8, 26, 168, 180, 186, 91, 79, 76, 1, 0.244203
312, 6, wb, attraction, a-b-da, 9, 1, 8, 27, 60, 135, 129, 57, 135, 60, 2, 1.144
312, 6, wb, attraction, a-b-da, 9, 1, 8, 27, 60, 135, 129, 57, 135, 60, 1, 0.584925
312, 6, wb, attraction, a-b-db, 5, 3, 8, 28, 195, 120, 120, 195, 117, 190, 1, 2.56735
312, 6, wb, attraction, a-b-db, 5, 3, 8, 28, 195, 120, 120, 195, 117, 190, 2, 0.247197
312, 6, wb, catch, NA, 999, 999, 8, 29, 170, 145, 110, 85, 125, 130, 2, 0.739152
312, 6, wb, catch, NA, 999, 999, 8, 29, 170, 145, 110, 85, 125, 130, 1, 0.204248
312, 6, wb, filler, NA, 999, 999, 8, 30, 70, 188, 125, 113, 82, 121, 3, 2.99419
312, 6, wb, filler, NA, 999, 999, 8, 30, 70, 188, 125, 113, 82, 121, 2, 0.536495
312, 6, wb, filler, NA, 999, 999, 8, 31, 134, 91, 148, 78, 115, 154, 2, 2.73687
312, 6, wb, filler, NA, 999, 999, 8, 31, 134, 91, 148, 78, 115, 154, 3, 0.257925
312, 6, wb, attraction, a-b-db, 14, 2, 8, 32, 165, 90, 90, 165, 83, 153, 1, 2.93316
312, 6, wb, attraction, a-b-db, 14, 2, 8, 32, 165, 90, 90, 165, 83, 153, 2, 0.454268
312, 6, wb, attraction, a-b-db, 2, 1, 8, 33, 59, 134, 60, 135, 135, 60, 3, 1.61003
312, 6, wb, attraction, a-b-db, 2, 1, 8, 33, 59, 134, 60, 135, 135, 60, 2, 0.768112
312, 6, wb, filler, NA, 999, 999, 8, 34, 88, 104, 193, 69, 128, 174, 1, 1.80727
312, 6, wb, filler, NA, 999, 999, 8, 34, 88, 104, 193, 69, 128, 174, 3, 0.365239
312, 6, wb, filler, NA, 999, 999, 8, 35, 112, 124, 171, 159, 161, 166, 1, 0.948448
312, 6, wb, filler, NA, 999, 999, 8, 35, 112, 124, 171, 159, 161, 166, 2, 0.301377
312, 6, wb, attraction, a-b-da, 9, 3, 8, 36, 186, 114, 195, 120, 120, 195, 1, 3.00723
312, 6, wb, attraction, a-b-da, 9, 3, 8, 36, 186, 114, 195, 120, 120, 195, 3, 0.325097
312, 6, wb, catch, NA, 999, 999, 8, 37, 69, 126, 109, 146, 131, 184, 1, 0.693549
312, 6, wb, catch, NA, 999, 999, 8, 37, 69, 126, 109, 146, 131, 184, 3, 0.352653
