sub_n, computer_n, bw_cond, effect, set, distance, diag, block_n, trial_n, h1, w1, h2, w2, h3, w3, choice, rt 
364, 6, wb, practice, NA, 999, 999, 0, 1, 58, 70, 128, 78, 150, 139, 1, 2.50998
364, 6, wb, practice, NA, 999, 999, 0, 1, 58, 70, 128, 78, 150, 139, 3, 4.99765
364, 6, wb, practice, NA, 999, 999, 0, 2, 70, 126, 167, 145, 189, 134, 1, 5.00655
364, 6, wb, practice, NA, 999, 999, 0, 2, 70, 126, 167, 145, 189, 134, 3, 6.38135
364, 6, wb, practice, NA, 999, 999, 0, 3, 141, 153, 63, 110, 103, 77, 3, 8.35116
364, 6, wb, practice, NA, 999, 999, 0, 3, 141, 153, 63, 110, 103, 77, 1, 3.94067
364, 6, wb, catch, NA, 999, 999, 1, 1, 132, 63, 187, 128, 161, 94, 1, 2.97894
364, 6, wb, catch, NA, 999, 999, 1, 1, 132, 63, 187, 128, 161, 94, 2, 2.21805
364, 6, wb, attraction, a-b-db, 5, 1, 1, 2, 135, 60, 58, 132, 60, 135, 2, 7.11859
364, 6, wb, attraction, a-b-db, 5, 1, 1, 2, 135, 60, 58, 132, 60, 135, 1, 6.2711
364, 6, wb, attraction, a-b-da, 9, 2, 1, 3, 90, 165, 165, 90, 157, 86, 3, 8.48841
364, 6, wb, attraction, a-b-da, 9, 2, 1, 3, 90, 165, 165, 90, 157, 86, 1, 1.1296
364, 6, wb, attraction, a-b-db, 5, 2, 1, 4, 90, 165, 165, 90, 88, 161, 2, 12.746
364, 6, wb, attraction, a-b-db, 5, 2, 1, 4, 90, 165, 165, 90, 88, 161, 1, 0.439206
364, 6, wb, attraction, a-b-db, 2, 1, 1, 5, 135, 60, 59, 134, 60, 135, 2, 11.9797
364, 6, wb, attraction, a-b-db, 2, 1, 1, 5, 135, 60, 59, 134, 60, 135, 1, 2.48001
364, 6, wb, filler, NA, 999, 999, 1, 6, 97, 69, 129, 142, 102, 164, 1, 2.09782
364, 6, wb, filler, NA, 999, 999, 1, 6, 97, 69, 129, 142, 102, 164, 3, 7.60442
364, 6, wb, attraction, a-b-da, 5, 2, 1, 7, 161, 88, 90, 165, 165, 90, 1, 6.544
364, 6, wb, attraction, a-b-da, 5, 2, 1, 7, 161, 88, 90, 165, 165, 90, 2, 3.37534
364, 6, wb, attraction, a-b-db, 2, 3, 1, 8, 195, 120, 119, 193, 120, 195, 3, 5.30886
364, 6, wb, attraction, a-b-db, 2, 3, 1, 8, 195, 120, 119, 193, 120, 195, 1, 1.12575
364, 6, wb, filler, NA, 999, 999, 1, 9, 79, 114, 116, 88, 86, 114, 1, 4.64602
364, 6, wb, filler, NA, 999, 999, 1, 9, 79, 114, 116, 88, 86, 114, 2, 1.77789
364, 6, wb, attraction, a-b-db, 14, 3, 1, 10, 120, 195, 195, 120, 111, 181, 3, 2.58395
364, 6, wb, attraction, a-b-db, 14, 3, 1, 10, 120, 195, 195, 120, 111, 181, 1, 0.655064
364, 6, wb, attraction, a-b-db, 14, 2, 1, 11, 90, 165, 165, 90, 83, 153, 3, 2.87482
364, 6, wb, attraction, a-b-db, 14, 2, 1, 11, 90, 165, 165, 90, 83, 153, 1, 0.869823
364, 6, wb, filler, NA, 999, 999, 1, 12, 61, 113, 118, 80, 88, 184, 1, 1.40891
364, 6, wb, filler, NA, 999, 999, 1, 12, 61, 113, 118, 80, 88, 184, 3, 0.367085
364, 6, wb, attraction, a-b-da, 9, 3, 1, 13, 186, 114, 195, 120, 120, 195, 1, 5.89427
364, 6, wb, attraction, a-b-da, 9, 3, 1, 13, 186, 114, 195, 120, 120, 195, 3, 1.02382
364, 6, wb, filler, NA, 999, 999, 1, 14, 162, 127, 150, 119, 155, 169, 2, 1.53204
364, 6, wb, filler, NA, 999, 999, 1, 14, 162, 127, 150, 119, 155, 169, 3, 0.453556
364, 6, wb, attraction, a-b-da, 9, 1, 1, 15, 60, 135, 135, 60, 129, 57, 3, 6.93735
364, 6, wb, attraction, a-b-da, 9, 1, 1, 15, 60, 135, 135, 60, 129, 57, 1, 2.76114
364, 6, wb, attraction, a-b-da, 14, 3, 1, 16, 181, 111, 120, 195, 195, 120, 1, 9.95957
364, 6, wb, attraction, a-b-da, 14, 3, 1, 16, 181, 111, 120, 195, 195, 120, 2, 1.06114
364, 6, wb, filler, NA, 999, 999, 1, 17, 77, 127, 66, 164, 170, 173, 1, 3.79212
364, 6, wb, filler, NA, 999, 999, 1, 17, 77, 127, 66, 164, 170, 173, 3, 0.934152
364, 6, wb, attraction, a-b-db, 5, 3, 1, 18, 117, 190, 120, 195, 195, 120, 3, 10.8706
364, 6, wb, attraction, a-b-db, 5, 3, 1, 18, 117, 190, 120, 195, 195, 120, 2, 0.839647
364, 6, wb, catch, NA, 999, 999, 1, 19, 117, 78, 165, 90, 147, 168, 1, 1.25141
364, 6, wb, catch, NA, 999, 999, 1, 19, 117, 78, 165, 90, 147, 168, 3, 0.448292
364, 6, wb, catch, NA, 999, 999, 1, 20, 102, 153, 130, 185, 91, 104, 3, 1.24425
364, 6, wb, catch, NA, 999, 999, 1, 20, 102, 153, 130, 185, 91, 104, 2, 0.441133
364, 6, wb, filler, NA, 999, 999, 1, 21, 176, 115, 172, 97, 192, 109, 2, 2.11683
364, 6, wb, filler, NA, 999, 999, 1, 21, 176, 115, 172, 97, 192, 109, 3, 0.686845
364, 6, wb, attraction, a-b-db, 2, 2, 1, 22, 89, 163, 90, 165, 165, 90, 2, 1.56132
364, 6, wb, attraction, a-b-db, 2, 2, 1, 22, 89, 163, 90, 165, 165, 90, 1, 2.18533
364, 6, wb, attraction, a-b-db, 14, 1, 1, 23, 56, 125, 60, 135, 135, 60, 1, 2.81524
364, 6, wb, attraction, a-b-db, 14, 1, 1, 23, 56, 125, 60, 135, 135, 60, 2, 4.22912
364, 6, wb, filler, NA, 999, 999, 1, 24, 119, 193, 144, 181, 142, 133, 3, 4.24037
364, 6, wb, filler, NA, 999, 999, 1, 24, 119, 193, 144, 181, 142, 133, 2, 11.0843
364, 6, wb, attraction, a-b-da, 5, 3, 1, 25, 195, 120, 190, 117, 120, 195, 3, 2.61943
364, 6, wb, attraction, a-b-da, 5, 3, 1, 25, 195, 120, 190, 117, 120, 195, 1, 0.529298
364, 6, wb, attraction, a-b-da, 2, 1, 1, 26, 134, 59, 60, 135, 135, 60, 3, 2.99372
364, 6, wb, attraction, a-b-da, 2, 1, 1, 26, 134, 59, 60, 135, 135, 60, 1, 1.25612
364, 6, wb, attraction, a-b-da, 14, 1, 1, 27, 60, 135, 125, 56, 135, 60, 1, 0.939583
364, 6, wb, attraction, a-b-da, 14, 1, 1, 27, 60, 135, 125, 56, 135, 60, 3, 0.596661
364, 6, wb, attraction, a-b-da, 2, 2, 1, 28, 90, 165, 165, 90, 163, 89, 1, 3.44239
364, 6, wb, attraction, a-b-da, 2, 2, 1, 28, 90, 165, 165, 90, 163, 89, 2, 2.65458
364, 6, wb, filler, NA, 999, 999, 1, 29, 190, 141, 178, 62, 59, 122, 3, 0.841748
364, 6, wb, filler, NA, 999, 999, 1, 29, 190, 141, 178, 62, 59, 122, 1, 0.358779
364, 6, wb, filler, NA, 999, 999, 1, 30, 123, 126, 82, 113, 63, 108, 3, 0.870029
364, 6, wb, filler, NA, 999, 999, 1, 30, 123, 126, 82, 113, 63, 108, 1, 0.386407
364, 6, wb, attraction, a-b-db, 9, 1, 1, 31, 57, 129, 135, 60, 60, 135, 1, 0.76071
364, 6, wb, attraction, a-b-db, 9, 1, 1, 31, 57, 129, 135, 60, 60, 135, 3, 0.737142
364, 6, wb, attraction, a-b-db, 9, 2, 1, 32, 165, 90, 90, 165, 86, 157, 1, 0.769514
364, 6, wb, attraction, a-b-db, 9, 2, 1, 32, 165, 90, 90, 165, 86, 157, 2, 2.39406
364, 6, wb, attraction, a-b-da, 14, 2, 1, 33, 153, 83, 165, 90, 90, 165, 1, 4.85516
364, 6, wb, attraction, a-b-da, 14, 2, 1, 33, 153, 83, 165, 90, 90, 165, 3, 0.922269
364, 6, wb, attraction, a-b-da, 5, 1, 1, 34, 135, 60, 60, 135, 132, 58, 2, 0.851251
364, 6, wb, attraction, a-b-da, 5, 1, 1, 34, 135, 60, 60, 135, 132, 58, 3, 1.43243
364, 6, wb, attraction, a-b-da, 2, 3, 1, 35, 193, 119, 195, 120, 120, 195, 3, 3.14844
364, 6, wb, attraction, a-b-da, 2, 3, 1, 35, 193, 119, 195, 120, 120, 195, 1, 0.788804
364, 6, wb, attraction, a-b-db, 9, 3, 1, 36, 114, 186, 195, 120, 120, 195, 1, 1.16307
364, 6, wb, attraction, a-b-db, 9, 3, 1, 36, 114, 186, 195, 120, 120, 195, 3, 2.3635
364, 6, wb, filler, NA, 999, 999, 1, 37, 120, 150, 89, 160, 159, 136, 2, 1.16194
364, 6, wb, filler, NA, 999, 999, 1, 37, 120, 150, 89, 160, 159, 136, 3, 0.618355
364, 6, wb, attraction, a-b-db, 14, 1, 2, 1, 60, 135, 56, 125, 135, 60, 2, 2.04738
364, 6, wb, attraction, a-b-db, 14, 1, 2, 1, 60, 135, 56, 125, 135, 60, 1, 3.07596
364, 6, wb, attraction, a-b-db, 2, 1, 2, 2, 59, 134, 135, 60, 60, 135, 3, 4.24578
364, 6, wb, attraction, a-b-db, 2, 1, 2, 2, 59, 134, 135, 60, 60, 135, 1, 0.513611
364, 6, wb, catch, NA, 999, 999, 2, 3, 143, 172, 122, 133, 106, 89, 3, 1.25875
364, 6, wb, catch, NA, 999, 999, 2, 3, 143, 172, 122, 133, 106, 89, 1, 0.49495
364, 6, wb, attraction, a-b-da, 5, 3, 2, 4, 195, 120, 190, 117, 120, 195, 1, 1.21676
364, 6, wb, attraction, a-b-da, 5, 3, 2, 4, 195, 120, 190, 117, 120, 195, 3, 0.518982
364, 6, wb, attraction, a-b-db, 14, 2, 2, 5, 83, 153, 165, 90, 90, 165, 1, 5.28024
364, 6, wb, attraction, a-b-db, 14, 2, 2, 5, 83, 153, 165, 90, 90, 165, 3, 3.89847
364, 6, wb, filler, NA, 999, 999, 2, 6, 86, 79, 132, 161, 121, 154, 1, 0.619297
364, 6, wb, filler, NA, 999, 999, 2, 6, 86, 79, 132, 161, 121, 154, 2, 1.68972
364, 6, wb, attraction, a-b-da, 2, 2, 2, 7, 163, 89, 165, 90, 90, 165, 2, 4.07515
364, 6, wb, attraction, a-b-da, 2, 2, 2, 7, 163, 89, 165, 90, 90, 165, 1, 0.661737
364, 6, wb, attraction, a-b-da, 5, 1, 2, 8, 60, 135, 135, 60, 132, 58, 3, 2.10483
364, 6, wb, attraction, a-b-da, 5, 1, 2, 8, 60, 135, 135, 60, 132, 58, 1, 1.88277
364, 6, wb, attraction, a-b-db, 2, 2, 2, 9, 89, 163, 165, 90, 90, 165, 1, 4.7008
364, 6, wb, attraction, a-b-db, 2, 2, 2, 9, 89, 163, 165, 90, 90, 165, 3, 0.598862
364, 6, wb, attraction, a-b-da, 2, 1, 2, 10, 135, 60, 134, 59, 60, 135, 1, 1.90037
364, 6, wb, attraction, a-b-da, 2, 1, 2, 10, 135, 60, 134, 59, 60, 135, 3, 0.735216
364, 6, wb, filler, NA, 999, 999, 2, 11, 97, 95, 75, 83, 152, 163, 2, 0.783555
364, 6, wb, filler, NA, 999, 999, 2, 11, 97, 95, 75, 83, 152, 163, 3, 0.447237
364, 6, wb, attraction, a-b-db, 9, 3, 2, 12, 114, 186, 195, 120, 120, 195, 3, 2.41898
364, 6, wb, attraction, a-b-db, 9, 3, 2, 12, 114, 186, 195, 120, 120, 195, 1, 1.62498
364, 6, wb, attraction, a-b-da, 9, 1, 2, 13, 129, 57, 60, 135, 135, 60, 1, 1.94102
364, 6, wb, attraction, a-b-da, 9, 1, 2, 13, 129, 57, 60, 135, 135, 60, 3, 3.37377
364, 6, wb, attraction, a-b-da, 9, 3, 2, 14, 195, 120, 186, 114, 120, 195, 2, 0.916015
364, 6, wb, attraction, a-b-da, 9, 3, 2, 14, 195, 120, 186, 114, 120, 195, 1, 0.334306
364, 6, wb, filler, NA, 999, 999, 2, 15, 119, 101, 120, 130, 93, 74, 3, 0.694811
364, 6, wb, filler, NA, 999, 999, 2, 15, 119, 101, 120, 130, 93, 74, 2, 0.490015
364, 6, wb, attraction, a-b-db, 9, 2, 2, 16, 165, 90, 86, 157, 90, 165, 1, 1.24368
364, 6, wb, attraction, a-b-db, 9, 2, 2, 16, 165, 90, 86, 157, 90, 165, 3, 0.552644
364, 6, wb, attraction, a-b-da, 14, 3, 2, 17, 195, 120, 120, 195, 181, 111, 3, 1.31236
364, 6, wb, attraction, a-b-da, 14, 3, 2, 17, 195, 120, 120, 195, 181, 111, 2, 1.06664
364, 6, wb, attraction, a-b-db, 9, 1, 2, 18, 135, 60, 57, 129, 60, 135, 1, 2.01353
364, 6, wb, attraction, a-b-db, 9, 1, 2, 18, 135, 60, 57, 129, 60, 135, 3, 0.715662
364, 6, wb, filler, NA, 999, 999, 2, 19, 166, 95, 183, 128, 75, 122, 3, 0.644577
364, 6, wb, filler, NA, 999, 999, 2, 19, 166, 95, 183, 128, 75, 122, 2, 0.617676
364, 6, wb, attraction, a-b-db, 5, 2, 2, 20, 165, 90, 88, 161, 90, 165, 3, 4.63083
364, 6, wb, attraction, a-b-db, 5, 2, 2, 20, 165, 90, 88, 161, 90, 165, 2, 0.571362
364, 6, wb, filler, NA, 999, 999, 2, 21, 97, 131, 113, 91, 101, 182, 2, 0.82643
364, 6, wb, filler, NA, 999, 999, 2, 21, 97, 131, 113, 91, 101, 182, 3, 0.384202
364, 6, wb, attraction, a-b-da, 2, 3, 2, 22, 120, 195, 193, 119, 195, 120, 1, 1.12662
364, 6, wb, attraction, a-b-da, 2, 3, 2, 22, 120, 195, 193, 119, 195, 120, 3, 2.27226
364, 6, wb, attraction, a-b-db, 5, 3, 2, 23, 117, 190, 195, 120, 120, 195, 1, 2.01882
364, 6, wb, attraction, a-b-db, 5, 3, 2, 23, 117, 190, 195, 120, 120, 195, 3, 1.83279
364, 6, wb, filler, NA, 999, 999, 2, 24, 147, 140, 60, 187, 159, 68, 2, 0.780807
364, 6, wb, filler, NA, 999, 999, 2, 24, 147, 140, 60, 187, 159, 68, 1, 0.316568
364, 6, wb, attraction, a-b-da, 5, 2, 2, 25, 161, 88, 165, 90, 90, 165, 1, 0.861726
364, 6, wb, attraction, a-b-da, 5, 2, 2, 25, 161, 88, 165, 90, 90, 165, 3, 0.426156
364, 6, wb, catch, NA, 999, 999, 2, 26, 131, 184, 125, 130, 99, 96, 3, 0.782681
364, 6, wb, catch, NA, 999, 999, 2, 26, 131, 184, 125, 130, 99, 96, 1, 0.414327
364, 6, wb, attraction, a-b-db, 5, 1, 2, 27, 60, 135, 135, 60, 58, 132, 2, 1.00357
364, 6, wb, attraction, a-b-db, 5, 1, 2, 27, 60, 135, 135, 60, 58, 132, 1, 0.561819
364, 6, wb, filler, NA, 999, 999, 2, 28, 140, 91, 185, 159, 82, 131, 1, 0.992827
364, 6, wb, filler, NA, 999, 999, 2, 28, 140, 91, 185, 159, 82, 131, 2, 0.351869
364, 6, wb, filler, NA, 999, 999, 2, 29, 88, 87, 158, 115, 99, 119, 1, 0.655658
364, 6, wb, filler, NA, 999, 999, 2, 29, 88, 87, 158, 115, 99, 119, 2, 0.412266
364, 6, wb, filler, NA, 999, 999, 2, 30, 81, 82, 101, 86, 80, 192, 1, 0.593421
364, 6, wb, filler, NA, 999, 999, 2, 30, 81, 82, 101, 86, 80, 192, 3, 0.432458
364, 6, wb, attraction, a-b-da, 14, 1, 2, 31, 125, 56, 135, 60, 60, 135, 1, 2.28501
364, 6, wb, attraction, a-b-da, 14, 1, 2, 31, 125, 56, 135, 60, 60, 135, 2, 0.424188
364, 6, wb, attraction, a-b-db, 14, 3, 2, 32, 195, 120, 120, 195, 111, 181, 3, 1.14858
364, 6, wb, attraction, a-b-db, 14, 3, 2, 32, 195, 120, 120, 195, 111, 181, 1, 0.725662
364, 6, wb, attraction, a-b-da, 9, 2, 2, 33, 90, 165, 157, 86, 165, 90, 1, 0.757961
364, 6, wb, attraction, a-b-da, 9, 2, 2, 33, 90, 165, 157, 86, 165, 90, 3, 1.09441
364, 6, wb, filler, NA, 999, 999, 2, 34, 166, 157, 131, 146, 148, 190, 2, 0.791918
364, 6, wb, filler, NA, 999, 999, 2, 34, 166, 157, 131, 146, 148, 190, 3, 5.72712
364, 6, wb, attraction, a-b-da, 14, 2, 2, 35, 90, 165, 165, 90, 153, 83, 3, 0.917893
364, 6, wb, attraction, a-b-da, 14, 2, 2, 35, 90, 165, 165, 90, 153, 83, 1, 1.04017
364, 6, wb, attraction, a-b-db, 2, 3, 2, 36, 195, 120, 119, 193, 120, 195, 2, 1.33984
364, 6, wb, attraction, a-b-db, 2, 3, 2, 36, 195, 120, 119, 193, 120, 195, 3, 0.604782
364, 6, wb, catch, NA, 999, 999, 2, 37, 140, 115, 172, 143, 84, 111, 3, 0.842442
364, 6, wb, catch, NA, 999, 999, 2, 37, 140, 115, 172, 143, 84, 111, 2, 0.383452
364, 6, wb, filler, NA, 999, 999, 3, 1, 60, 108, 187, 195, 94, 118, 1, 0.662076
364, 6, wb, filler, NA, 999, 999, 3, 1, 60, 108, 187, 195, 94, 118, 2, 0.426412
364, 6, wb, attraction, a-b-db, 5, 1, 3, 2, 58, 132, 135, 60, 60, 135, 2, 2.15903
364, 6, wb, attraction, a-b-db, 5, 1, 3, 2, 58, 132, 135, 60, 60, 135, 1, 4.07087
364, 6, wb, attraction, a-b-db, 14, 3, 3, 3, 111, 181, 195, 120, 120, 195, 1, 2.33681
364, 6, wb, attraction, a-b-db, 14, 3, 3, 3, 111, 181, 195, 120, 120, 195, 2, 2.16211
364, 6, wb, filler, NA, 999, 999, 3, 4, 117, 95, 62, 170, 128, 179, 1, 9.04063
364, 6, wb, filler, NA, 999, 999, 3, 4, 117, 95, 62, 170, 128, 179, 3, 0.443179
364, 6, wb, attraction, a-b-db, 9, 3, 3, 5, 120, 195, 195, 120, 114, 186, 3, 3.08706
364, 6, wb, attraction, a-b-db, 9, 3, 3, 5, 120, 195, 195, 120, 114, 186, 1, 0.681269
364, 6, wb, attraction, a-b-da, 2, 1, 3, 6, 135, 60, 60, 135, 134, 59, 2, 2.86779
364, 6, wb, attraction, a-b-da, 2, 1, 3, 6, 135, 60, 60, 135, 134, 59, 1, 0.466385
364, 6, wb, attraction, a-b-da, 2, 3, 3, 7, 193, 119, 120, 195, 195, 120, 3, 2.08268
364, 6, wb, attraction, a-b-da, 2, 3, 3, 7, 193, 119, 120, 195, 195, 120, 1, 0.453903
364, 6, wb, attraction, a-b-da, 9, 2, 3, 8, 90, 165, 165, 90, 157, 86, 1, 1.73767
364, 6, wb, attraction, a-b-da, 9, 2, 3, 8, 90, 165, 165, 90, 157, 86, 3, 1.15448
364, 6, wb, attraction, a-b-da, 9, 3, 3, 9, 120, 195, 186, 114, 195, 120, 2, 0.818016
364, 6, wb, attraction, a-b-da, 9, 3, 3, 9, 120, 195, 186, 114, 195, 120, 1, 0.840427
364, 6, wb, filler, NA, 999, 999, 3, 10, 183, 142, 152, 152, 122, 88, 3, 0.604183
364, 6, wb, filler, NA, 999, 999, 3, 10, 183, 142, 152, 152, 122, 88, 1, 0.474613
364, 6, wb, attraction, a-b-da, 14, 1, 3, 11, 135, 60, 125, 56, 60, 135, 2, 0.693029
364, 6, wb, attraction, a-b-da, 14, 1, 3, 11, 135, 60, 125, 56, 60, 135, 3, 0.480101
364, 6, wb, attraction, a-b-db, 2, 1, 3, 12, 135, 60, 59, 134, 60, 135, 3, 1.77863
364, 6, wb, attraction, a-b-db, 2, 1, 3, 12, 135, 60, 59, 134, 60, 135, 1, 0.562053
364, 6, wb, attraction, a-b-da, 5, 3, 3, 13, 120, 195, 190, 117, 195, 120, 1, 2.79311
364, 6, wb, attraction, a-b-da, 5, 3, 3, 13, 120, 195, 190, 117, 195, 120, 2, 0.57554
364, 6, wb, attraction, a-b-da, 5, 2, 3, 14, 90, 165, 161, 88, 165, 90, 3, 1.34194
364, 6, wb, attraction, a-b-da, 5, 2, 3, 14, 90, 165, 161, 88, 165, 90, 2, 0.470867
364, 6, wb, attraction, a-b-db, 14, 2, 3, 15, 165, 90, 90, 165, 83, 153, 1, 1.24991
364, 6, wb, attraction, a-b-db, 14, 2, 3, 15, 165, 90, 90, 165, 83, 153, 3, 0.918952
364, 6, wb, filler, NA, 999, 999, 3, 16, 138, 143, 179, 192, 123, 116, 3, 0.855855
364, 6, wb, filler, NA, 999, 999, 3, 16, 138, 143, 179, 192, 123, 116, 2, 0.292281
364, 6, wb, attraction, a-b-db, 9, 1, 3, 17, 135, 60, 60, 135, 57, 129, 3, 0.950093
364, 6, wb, attraction, a-b-db, 9, 1, 3, 17, 135, 60, 60, 135, 57, 129, 1, 0.591015
364, 6, wb, attraction, a-b-db, 9, 2, 3, 18, 86, 157, 165, 90, 90, 165, 1, 2.69284
364, 6, wb, attraction, a-b-db, 9, 2, 3, 18, 86, 157, 165, 90, 90, 165, 3, 0.623451
364, 6, wb, attraction, a-b-db, 5, 3, 3, 19, 195, 120, 117, 190, 120, 195, 3, 1.48374
364, 6, wb, attraction, a-b-db, 5, 3, 3, 19, 195, 120, 117, 190, 120, 195, 1, 0.479266
364, 6, wb, attraction, a-b-db, 2, 2, 3, 20, 165, 90, 89, 163, 90, 165, 2, 0.601699
364, 6, wb, attraction, a-b-db, 2, 2, 3, 20, 165, 90, 89, 163, 90, 165, 1, 0.712771
364, 6, wb, filler, NA, 999, 999, 3, 21, 126, 60, 140, 146, 88, 66, 3, 0.673867
364, 6, wb, filler, NA, 999, 999, 3, 21, 126, 60, 140, 146, 88, 66, 2, 0.317657
364, 6, wb, filler, NA, 999, 999, 3, 22, 60, 65, 173, 173, 105, 56, 1, 0.574804
364, 6, wb, filler, NA, 999, 999, 3, 22, 60, 65, 173, 173, 105, 56, 2, 0.398534
364, 6, wb, filler, NA, 999, 999, 3, 23, 119, 173, 177, 105, 81, 117, 3, 2.46044
364, 6, wb, filler, NA, 999, 999, 3, 23, 119, 173, 177, 105, 81, 117, 1, 0.600247
364, 6, wb, attraction, a-b-da, 14, 3, 3, 24, 181, 111, 120, 195, 195, 120, 1, 3.21419
364, 6, wb, attraction, a-b-da, 14, 3, 3, 24, 181, 111, 120, 195, 195, 120, 3, 1.80366
364, 6, wb, filler, NA, 999, 999, 3, 25, 145, 56, 146, 143, 153, 72, 1, 1.85705
364, 6, wb, filler, NA, 999, 999, 3, 25, 145, 56, 146, 143, 153, 72, 2, 0.341039
364, 6, wb, catch, NA, 999, 999, 3, 26, 104, 91, 172, 143, 136, 119, 1, 0.885085
364, 6, wb, catch, NA, 999, 999, 3, 26, 104, 91, 172, 143, 136, 119, 2, 0.408607
364, 6, wb, attraction, a-b-db, 2, 3, 3, 27, 120, 195, 119, 193, 195, 120, 2, 5.58179
364, 6, wb, attraction, a-b-db, 2, 3, 3, 27, 120, 195, 119, 193, 195, 120, 1, 0.53199
364, 6, wb, catch, NA, 999, 999, 3, 28, 67, 128, 97, 158, 144, 171, 1, 0.748445
364, 6, wb, catch, NA, 999, 999, 3, 28, 67, 128, 97, 158, 144, 171, 3, 0.421599
364, 6, wb, catch, NA, 999, 999, 3, 29, 122, 73, 173, 142, 133, 122, 1, 0.46664
364, 6, wb, catch, NA, 999, 999, 3, 29, 122, 73, 173, 142, 133, 122, 2, 0.455191
364, 6, wb, filler, NA, 999, 999, 3, 30, 65, 115, 124, 108, 58, 162, 1, 0.62257
364, 6, wb, filler, NA, 999, 999, 3, 30, 65, 115, 124, 108, 58, 162, 2, 0.392686
364, 6, wb, filler, NA, 999, 999, 3, 31, 173, 140, 117, 94, 171, 161, 2, 0.774605
364, 6, wb, filler, NA, 999, 999, 3, 31, 173, 140, 117, 94, 171, 161, 1, 0.398273
364, 6, wb, attraction, a-b-da, 2, 2, 3, 32, 165, 90, 163, 89, 90, 165, 3, 1.62811
364, 6, wb, attraction, a-b-da, 2, 2, 3, 32, 165, 90, 163, 89, 90, 165, 1, 2.40966
364, 6, wb, attraction, a-b-da, 5, 1, 3, 33, 60, 135, 132, 58, 135, 60, 3, 0.918127
364, 6, wb, attraction, a-b-da, 5, 1, 3, 33, 60, 135, 132, 58, 135, 60, 2, 0.696451
364, 6, wb, attraction, a-b-da, 9, 1, 3, 34, 129, 57, 135, 60, 60, 135, 3, 2.45017
364, 6, wb, attraction, a-b-da, 9, 1, 3, 34, 129, 57, 135, 60, 60, 135, 1, 0.574674
364, 6, wb, attraction, a-b-da, 14, 2, 3, 35, 165, 90, 90, 165, 153, 83, 2, 0.790502
364, 6, wb, attraction, a-b-da, 14, 2, 3, 35, 165, 90, 90, 165, 153, 83, 1, 0.420311
364, 6, wb, attraction, a-b-db, 5, 2, 3, 36, 88, 161, 90, 165, 165, 90, 1, 1.37741
364, 6, wb, attraction, a-b-db, 5, 2, 3, 36, 88, 161, 90, 165, 165, 90, 3, 0.865024
364, 6, wb, attraction, a-b-db, 14, 1, 3, 37, 56, 125, 135, 60, 60, 135, 1, 1.09195
364, 6, wb, attraction, a-b-db, 14, 1, 3, 37, 56, 125, 135, 60, 60, 135, 2, 0.97485
364, 6, wb, attraction, a-b-db, 9, 3, 4, 1, 114, 186, 120, 195, 195, 120, 1, 1.41311
364, 6, wb, attraction, a-b-db, 9, 3, 4, 1, 114, 186, 120, 195, 195, 120, 3, 0.555459
364, 6, wb, catch, NA, 999, 999, 4, 2, 128, 187, 133, 62, 159, 96, 2, 0.643153
364, 6, wb, catch, NA, 999, 999, 4, 2, 128, 187, 133, 62, 159, 96, 1, 0.400198
364, 6, wb, attraction, a-b-db, 14, 1, 4, 3, 56, 125, 60, 135, 135, 60, 1, 1.00603
364, 6, wb, attraction, a-b-db, 14, 1, 4, 3, 56, 125, 60, 135, 135, 60, 2, 0.684404
364, 6, wb, attraction, a-b-db, 2, 3, 4, 4, 195, 120, 120, 195, 119, 193, 1, 1.71074
364, 6, wb, attraction, a-b-db, 2, 3, 4, 4, 195, 120, 120, 195, 119, 193, 3, 2.11285
364, 6, wb, catch, NA, 999, 999, 4, 5, 183, 132, 151, 104, 101, 94, 3, 0.753448
364, 6, wb, catch, NA, 999, 999, 4, 5, 183, 132, 151, 104, 101, 94, 1, 0.457859
364, 6, wb, attraction, a-b-db, 9, 2, 4, 6, 90, 165, 165, 90, 86, 157, 3, 1.18899
364, 6, wb, attraction, a-b-db, 9, 2, 4, 6, 90, 165, 165, 90, 86, 157, 2, 0.339971
364, 6, wb, filler, NA, 999, 999, 4, 7, 90, 143, 140, 115, 113, 185, 1, 0.683762
364, 6, wb, filler, NA, 999, 999, 4, 7, 90, 143, 140, 115, 113, 185, 2, 0.567583
364, 6, wb, attraction, a-b-db, 2, 2, 4, 8, 165, 90, 90, 165, 89, 163, 3, 3.39065
364, 6, wb, attraction, a-b-db, 2, 2, 4, 8, 165, 90, 90, 165, 89, 163, 2, 0.428953
364, 6, wb, catch, NA, 999, 999, 4, 9, 91, 104, 187, 128, 90, 165, 1, 0.649336
364, 6, wb, catch, NA, 999, 999, 4, 9, 91, 104, 187, 128, 90, 165, 2, 0.286494
364, 6, wb, attraction, a-b-da, 9, 3, 4, 10, 186, 114, 195, 120, 120, 195, 3, 1.20909
364, 6, wb, attraction, a-b-da, 9, 3, 4, 10, 186, 114, 195, 120, 120, 195, 1, 1.0153
364, 6, wb, filler, NA, 999, 999, 4, 11, 189, 96, 125, 159, 108, 135, 3, 0.932306
364, 6, wb, filler, NA, 999, 999, 4, 11, 189, 96, 125, 159, 108, 135, 2, 0.757885
364, 6, wb, filler, NA, 999, 999, 4, 12, 158, 181, 59, 175, 137, 61, 3, 1.06095
364, 6, wb, filler, NA, 999, 999, 4, 12, 158, 181, 59, 175, 137, 61, 1, 0.473248
364, 6, wb, attraction, a-b-da, 14, 2, 4, 13, 165, 90, 90, 165, 153, 83, 3, 1.1477
364, 6, wb, attraction, a-b-da, 14, 2, 4, 13, 165, 90, 90, 165, 153, 83, 2, 1.74865
364, 6, wb, filler, NA, 999, 999, 4, 14, 145, 117, 193, 162, 114, 127, 3, 1.09211
364, 6, wb, filler, NA, 999, 999, 4, 14, 145, 117, 193, 162, 114, 127, 2, 0.303056
364, 6, wb, attraction, a-b-da, 5, 1, 4, 15, 135, 60, 132, 58, 60, 135, 3, 0.95286
364, 6, wb, attraction, a-b-da, 5, 1, 4, 15, 135, 60, 132, 58, 60, 135, 1, 1.44186
364, 6, wb, attraction, a-b-da, 14, 3, 4, 16, 195, 120, 120, 195, 181, 111, 2, 0.685365
364, 6, wb, attraction, a-b-da, 14, 3, 4, 16, 195, 120, 120, 195, 181, 111, 1, 0.457191
364, 6, wb, filler, NA, 999, 999, 4, 17, 194, 97, 109, 63, 78, 182, 2, 1.12419
364, 6, wb, filler, NA, 999, 999, 4, 17, 194, 97, 109, 63, 78, 182, 1, 0.365916
364, 6, wb, attraction, a-b-da, 9, 2, 4, 18, 165, 90, 157, 86, 90, 165, 3, 1.81305
364, 6, wb, attraction, a-b-da, 9, 2, 4, 18, 165, 90, 157, 86, 90, 165, 1, 0.939217
364, 6, wb, attraction, a-b-da, 5, 3, 4, 19, 120, 195, 195, 120, 190, 117, 3, 1.24351
364, 6, wb, attraction, a-b-da, 5, 3, 4, 19, 120, 195, 195, 120, 190, 117, 2, 0.304338
364, 6, wb, attraction, a-b-da, 2, 1, 4, 20, 134, 59, 60, 135, 135, 60, 2, 1.24228
364, 6, wb, attraction, a-b-da, 2, 1, 4, 20, 134, 59, 60, 135, 135, 60, 1, 0.882545
364, 6, wb, attraction, a-b-da, 2, 3, 4, 21, 120, 195, 195, 120, 193, 119, 3, 1.12943
364, 6, wb, attraction, a-b-da, 2, 3, 4, 21, 120, 195, 195, 120, 193, 119, 2, 0.427061
364, 6, wb, attraction, a-b-db, 2, 1, 4, 22, 60, 135, 59, 134, 135, 60, 2, 1.35956
364, 6, wb, attraction, a-b-db, 2, 1, 4, 22, 60, 135, 59, 134, 135, 60, 3, 0.623744
364, 6, wb, attraction, a-b-db, 5, 2, 4, 23, 88, 161, 165, 90, 90, 165, 1, 0.97218
364, 6, wb, attraction, a-b-db, 5, 2, 4, 23, 88, 161, 165, 90, 90, 165, 2, 0.331836
364, 6, wb, attraction, a-b-da, 5, 2, 4, 24, 165, 90, 90, 165, 161, 88, 2, 0.740365
364, 6, wb, attraction, a-b-da, 5, 2, 4, 24, 165, 90, 90, 165, 161, 88, 1, 0.469364
364, 6, wb, attraction, a-b-db, 5, 3, 4, 25, 117, 190, 195, 120, 120, 195, 3, 1.3685
364, 6, wb, attraction, a-b-db, 5, 3, 4, 25, 117, 190, 195, 120, 120, 195, 2, 0.760872
364, 6, wb, attraction, a-b-da, 2, 2, 4, 26, 163, 89, 90, 165, 165, 90, 2, 0.879872
364, 6, wb, attraction, a-b-da, 2, 2, 4, 26, 163, 89, 90, 165, 165, 90, 3, 0.443435
364, 6, wb, attraction, a-b-db, 9, 1, 4, 27, 60, 135, 57, 129, 135, 60, 2, 2.20727
364, 6, wb, attraction, a-b-db, 9, 1, 4, 27, 60, 135, 57, 129, 135, 60, 1, 1.85317
364, 6, wb, attraction, a-b-db, 5, 1, 4, 28, 60, 135, 58, 132, 135, 60, 2, 1.53672
364, 6, wb, attraction, a-b-db, 5, 1, 4, 28, 60, 135, 58, 132, 135, 60, 3, 0.538281
364, 6, wb, filler, NA, 999, 999, 4, 29, 103, 188, 90, 160, 57, 162, 3, 0.882546
364, 6, wb, filler, NA, 999, 999, 4, 29, 103, 188, 90, 160, 57, 162, 2, 0.54227
364, 6, wb, filler, NA, 999, 999, 4, 30, 169, 195, 129, 167, 175, 142, 2, 1.79001
364, 6, wb, filler, NA, 999, 999, 4, 30, 169, 195, 129, 167, 175, 142, 1, 0.252743
364, 6, wb, filler, NA, 999, 999, 4, 31, 142, 98, 69, 128, 163, 58, 2, 1.18459
364, 6, wb, filler, NA, 999, 999, 4, 31, 142, 98, 69, 128, 163, 58, 1, 2.9122
364, 6, wb, filler, NA, 999, 999, 4, 32, 135, 141, 179, 96, 86, 140, 3, 2.48863
364, 6, wb, filler, NA, 999, 999, 4, 32, 135, 141, 179, 96, 86, 140, 1, 0.491146
364, 6, wb, attraction, a-b-db, 14, 2, 4, 33, 83, 153, 90, 165, 165, 90, 1, 1.12499
364, 6, wb, attraction, a-b-db, 14, 2, 4, 33, 83, 153, 90, 165, 165, 90, 2, 0.406522
364, 6, wb, filler, NA, 999, 999, 4, 34, 151, 56, 60, 116, 64, 144, 2, 1.24365
364, 6, wb, filler, NA, 999, 999, 4, 34, 151, 56, 60, 116, 64, 144, 3, 0.384626
364, 6, wb, attraction, a-b-da, 14, 1, 4, 35, 60, 135, 135, 60, 125, 56, 1, 1.91906
364, 6, wb, attraction, a-b-da, 14, 1, 4, 35, 60, 135, 135, 60, 125, 56, 3, 0.673148
364, 6, wb, attraction, a-b-da, 9, 1, 4, 36, 129, 57, 60, 135, 135, 60, 2, 0.619639
364, 6, wb, attraction, a-b-da, 9, 1, 4, 36, 129, 57, 60, 135, 135, 60, 1, 0.585979
364, 6, wb, attraction, a-b-db, 14, 3, 4, 37, 195, 120, 111, 181, 120, 195, 2, 0.600313
364, 6, wb, attraction, a-b-db, 14, 3, 4, 37, 195, 120, 111, 181, 120, 195, 3, 2.73551
364, 6, wb, filler, NA, 999, 999, 5, 1, 141, 92, 91, 78, 84, 147, 2, 2.54986
364, 6, wb, filler, NA, 999, 999, 5, 1, 141, 92, 91, 78, 84, 147, 1, 0.414346
364, 6, wb, filler, NA, 999, 999, 5, 2, 134, 184, 169, 108, 149, 65, 3, 1.09954
364, 6, wb, filler, NA, 999, 999, 5, 2, 134, 184, 169, 108, 149, 65, 1, 0.422423
364, 6, wb, attraction, a-b-da, 5, 3, 5, 3, 195, 120, 120, 195, 190, 117, 3, 1.63564
364, 6, wb, attraction, a-b-da, 5, 3, 5, 3, 195, 120, 120, 195, 190, 117, 1, 0.809059
364, 6, wb, attraction, a-b-db, 5, 1, 5, 4, 58, 132, 135, 60, 60, 135, 2, 0.734102
364, 6, wb, attraction, a-b-db, 5, 1, 5, 4, 58, 132, 135, 60, 60, 135, 3, 0.623926
364, 6, wb, attraction, a-b-da, 5, 1, 5, 5, 132, 58, 135, 60, 60, 135, 2, 1.25222
364, 6, wb, attraction, a-b-da, 5, 1, 5, 5, 132, 58, 135, 60, 60, 135, 1, 0.313238
364, 6, wb, attraction, a-b-db, 5, 2, 5, 6, 88, 161, 90, 165, 165, 90, 2, 0.690361
364, 6, wb, attraction, a-b-db, 5, 2, 5, 6, 88, 161, 90, 165, 165, 90, 3, 0.285465
364, 6, wb, attraction, a-b-da, 14, 3, 5, 7, 181, 111, 120, 195, 195, 120, 1, 2.336
364, 6, wb, attraction, a-b-da, 14, 3, 5, 7, 181, 111, 120, 195, 195, 120, 2, 1.5613
364, 6, wb, attraction, a-b-db, 2, 2, 5, 8, 90, 165, 89, 163, 165, 90, 3, 1.56004
364, 6, wb, attraction, a-b-db, 2, 2, 5, 8, 90, 165, 89, 163, 165, 90, 2, 0.760175
364, 6, wb, catch, NA, 999, 999, 5, 9, 79, 116, 137, 178, 131, 124, 1, 0.804178
364, 6, wb, catch, NA, 999, 999, 5, 9, 79, 116, 137, 178, 131, 124, 2, 0.325637
364, 6, wb, attraction, a-b-da, 2, 2, 5, 10, 165, 90, 90, 165, 163, 89, 1, 1.11807
364, 6, wb, attraction, a-b-da, 2, 2, 5, 10, 165, 90, 90, 165, 163, 89, 2, 0.28039
364, 6, wb, filler, NA, 999, 999, 5, 11, 101, 63, 96, 194, 146, 56, 1, 0.706977
364, 6, wb, filler, NA, 999, 999, 5, 11, 101, 63, 96, 194, 146, 56, 2, 0.31737
364, 6, wb, filler, NA, 999, 999, 5, 12, 73, 97, 184, 117, 113, 62, 1, 0.742589
364, 6, wb, filler, NA, 999, 999, 5, 12, 73, 97, 184, 117, 113, 62, 2, 0.223653
364, 6, wb, filler, NA, 999, 999, 5, 13, 83, 96, 181, 104, 129, 184, 1, 0.588178
364, 6, wb, filler, NA, 999, 999, 5, 13, 83, 96, 181, 104, 129, 184, 3, 0.299286
364, 6, wb, attraction, a-b-db, 9, 2, 5, 14, 86, 157, 90, 165, 165, 90, 1, 3.78904
364, 6, wb, attraction, a-b-db, 9, 2, 5, 14, 86, 157, 90, 165, 165, 90, 2, 0.555217
364, 6, wb, filler, NA, 999, 999, 5, 15, 149, 95, 117, 129, 145, 119, 1, 1.73093
364, 6, wb, filler, NA, 999, 999, 5, 15, 149, 95, 117, 129, 145, 119, 3, 0.836424
364, 6, wb, filler, NA, 999, 999, 5, 16, 165, 126, 166, 109, 189, 160, 2, 0.576746
364, 6, wb, filler, NA, 999, 999, 5, 16, 165, 126, 166, 109, 189, 160, 3, 0.344496
364, 6, wb, attraction, a-b-db, 2, 3, 5, 17, 195, 120, 119, 193, 120, 195, 2, 2.69634
364, 6, wb, attraction, a-b-db, 2, 3, 5, 17, 195, 120, 119, 193, 120, 195, 3, 0.954803
364, 6, wb, attraction, a-b-da, 5, 2, 5, 18, 165, 90, 161, 88, 90, 165, 3, 3.81844
364, 6, wb, attraction, a-b-da, 5, 2, 5, 18, 165, 90, 161, 88, 90, 165, 1, 0.559891
364, 6, wb, attraction, a-b-da, 2, 3, 5, 19, 193, 119, 120, 195, 195, 120, 2, 0.591093
364, 6, wb, attraction, a-b-da, 2, 3, 5, 19, 193, 119, 120, 195, 195, 120, 1, 1.33414
364, 6, wb, filler, NA, 999, 999, 5, 20, 80, 84, 63, 83, 74, 181, 2, 1.08628
364, 6, wb, filler, NA, 999, 999, 5, 20, 80, 84, 63, 83, 74, 181, 3, 0.346029
364, 6, wb, attraction, a-b-da, 9, 1, 5, 21, 129, 57, 135, 60, 60, 135, 3, 0.985871
364, 6, wb, attraction, a-b-da, 9, 1, 5, 21, 129, 57, 135, 60, 60, 135, 1, 0.569463
364, 6, wb, attraction, a-b-db, 14, 2, 5, 22, 90, 165, 83, 153, 165, 90, 2, 0.600548
364, 6, wb, attraction, a-b-db, 14, 2, 5, 22, 90, 165, 83, 153, 165, 90, 3, 1.70374
364, 6, wb, attraction, a-b-db, 2, 1, 5, 23, 60, 135, 135, 60, 59, 134, 1, 1.53705
364, 6, wb, attraction, a-b-db, 2, 1, 5, 23, 60, 135, 135, 60, 59, 134, 2, 0.850623
364, 6, wb, attraction, a-b-db, 9, 3, 5, 24, 195, 120, 120, 195, 114, 186, 2, 0.638291
364, 6, wb, attraction, a-b-db, 9, 3, 5, 24, 195, 120, 120, 195, 114, 186, 1, 1.89147
364, 6, wb, attraction, a-b-db, 14, 1, 5, 25, 56, 125, 60, 135, 135, 60, 1, 0.94876
364, 6, wb, attraction, a-b-db, 14, 1, 5, 25, 56, 125, 60, 135, 135, 60, 2, 0.789727
364, 6, wb, attraction, a-b-db, 5, 3, 5, 26, 120, 195, 117, 190, 195, 120, 2, 1.71559
364, 6, wb, attraction, a-b-db, 5, 3, 5, 26, 120, 195, 117, 190, 195, 120, 1, 0.869547
364, 6, wb, attraction, a-b-da, 14, 2, 5, 27, 153, 83, 90, 165, 165, 90, 1, 1.16054
364, 6, wb, attraction, a-b-da, 14, 2, 5, 27, 153, 83, 90, 165, 165, 90, 2, 0.608846
364, 6, wb, attraction, a-b-da, 14, 1, 5, 28, 135, 60, 60, 135, 125, 56, 3, 2.09391
364, 6, wb, attraction, a-b-da, 14, 1, 5, 28, 135, 60, 60, 135, 125, 56, 1, 0.75255
364, 6, wb, catch, NA, 999, 999, 5, 29, 66, 129, 140, 175, 150, 105, 1, 0.880342
364, 6, wb, catch, NA, 999, 999, 5, 29, 66, 129, 140, 175, 150, 105, 2, 0.299966
364, 6, wb, attraction, a-b-da, 9, 3, 5, 30, 186, 114, 120, 195, 195, 120, 3, 3.70978
364, 6, wb, attraction, a-b-da, 9, 3, 5, 30, 186, 114, 120, 195, 195, 120, 2, 0.391244
364, 6, wb, attraction, a-b-da, 9, 2, 5, 31, 165, 90, 157, 86, 90, 165, 2, 1.44509
364, 6, wb, attraction, a-b-da, 9, 2, 5, 31, 165, 90, 157, 86, 90, 165, 1, 0.345908
364, 6, wb, filler, NA, 999, 999, 5, 32, 99, 127, 66, 176, 164, 146, 1, 0.897926
364, 6, wb, filler, NA, 999, 999, 5, 32, 99, 127, 66, 176, 164, 146, 3, 0.380897
364, 6, wb, filler, NA, 999, 999, 5, 33, 67, 101, 87, 74, 115, 75, 1, 5.90744
364, 6, wb, filler, NA, 999, 999, 5, 33, 67, 101, 87, 74, 115, 75, 3, 1.22017
364, 6, wb, catch, NA, 999, 999, 5, 34, 122, 133, 179, 136, 88, 107, 3, 0.953135
364, 6, wb, catch, NA, 999, 999, 5, 34, 122, 133, 179, 136, 88, 107, 2, 0.561988
364, 6, wb, attraction, a-b-da, 2, 1, 5, 35, 134, 59, 60, 135, 135, 60, 2, 1.19312
364, 6, wb, attraction, a-b-da, 2, 1, 5, 35, 134, 59, 60, 135, 135, 60, 3, 0.496171
364, 6, wb, attraction, a-b-db, 14, 3, 5, 36, 120, 195, 195, 120, 111, 181, 3, 0.985841
364, 6, wb, attraction, a-b-db, 14, 3, 5, 36, 120, 195, 195, 120, 111, 181, 1, 0.46543
364, 6, wb, attraction, a-b-db, 9, 1, 5, 37, 57, 129, 60, 135, 135, 60, 1, 2.13264
364, 6, wb, attraction, a-b-db, 9, 1, 5, 37, 57, 129, 60, 135, 135, 60, 3, 0.725981
364, 6, wb, filler, NA, 999, 999, 6, 1, 120, 107, 74, 179, 61, 138, 3, 2.50231
364, 6, wb, filler, NA, 999, 999, 6, 1, 120, 107, 74, 179, 61, 138, 1, 0.728836
364, 6, wb, attraction, a-b-db, 2, 3, 6, 2, 119, 193, 195, 120, 120, 195, 1, 5.67312
364, 6, wb, attraction, a-b-db, 2, 3, 6, 2, 119, 193, 195, 120, 120, 195, 3, 0.419451
364, 6, wb, attraction, a-b-da, 5, 3, 6, 3, 120, 195, 190, 117, 195, 120, 2, 1.83253
364, 6, wb, attraction, a-b-da, 5, 3, 6, 3, 120, 195, 190, 117, 195, 120, 1, 0.285868
364, 6, wb, filler, NA, 999, 999, 6, 4, 71, 185, 101, 57, 75, 149, 2, 0.792461
364, 6, wb, filler, NA, 999, 999, 6, 4, 71, 185, 101, 57, 75, 149, 1, 0.247502
364, 6, wb, filler, NA, 999, 999, 6, 5, 183, 132, 97, 174, 181, 100, 2, 0.611412
364, 6, wb, filler, NA, 999, 999, 6, 5, 183, 132, 97, 174, 181, 100, 1, 0.449856
364, 6, wb, filler, NA, 999, 999, 6, 6, 138, 154, 172, 145, 187, 141, 1, 1.43763
364, 6, wb, filler, NA, 999, 999, 6, 6, 138, 154, 172, 145, 187, 141, 2, 0.586502
364, 6, wb, attraction, a-b-db, 2, 1, 6, 7, 60, 135, 59, 134, 135, 60, 2, 1.09695
364, 6, wb, attraction, a-b-db, 2, 1, 6, 7, 60, 135, 59, 134, 135, 60, 1, 0.684038
364, 6, wb, attraction, a-b-da, 14, 3, 6, 8, 120, 195, 195, 120, 181, 111, 3, 2.22242
364, 6, wb, attraction, a-b-da, 14, 3, 6, 8, 120, 195, 195, 120, 181, 111, 1, 0.571702
364, 6, wb, attraction, a-b-db, 5, 3, 6, 9, 195, 120, 120, 195, 117, 190, 1, 1.27462
364, 6, wb, attraction, a-b-db, 5, 3, 6, 9, 195, 120, 120, 195, 117, 190, 2, 0.638257
364, 6, wb, catch, NA, 999, 999, 6, 10, 122, 193, 96, 99, 122, 133, 2, 0.666645
364, 6, wb, catch, NA, 999, 999, 6, 10, 122, 193, 96, 99, 122, 133, 3, 0.439129
364, 6, wb, filler, NA, 999, 999, 6, 11, 168, 119, 170, 98, 109, 80, 3, 1.0117
364, 6, wb, filler, NA, 999, 999, 6, 11, 168, 119, 170, 98, 109, 80, 1, 0.425826
364, 6, wb, filler, NA, 999, 999, 6, 12, 149, 84, 101, 164, 65, 147, 3, 5.55034
364, 6, wb, filler, NA, 999, 999, 6, 12, 149, 84, 101, 164, 65, 147, 2, 1.06193
364, 6, wb, attraction, a-b-db, 14, 3, 6, 13, 195, 120, 111, 181, 120, 195, 2, 2.61683
364, 6, wb, attraction, a-b-db, 14, 3, 6, 13, 195, 120, 111, 181, 120, 195, 3, 0.406699
364, 6, wb, attraction, a-b-db, 5, 1, 6, 14, 58, 132, 135, 60, 60, 135, 1, 2.35603
364, 6, wb, attraction, a-b-db, 5, 1, 6, 14, 58, 132, 135, 60, 60, 135, 3, 1.28374
364, 6, wb, attraction, a-b-db, 2, 2, 6, 15, 89, 163, 165, 90, 90, 165, 2, 2.46997
364, 6, wb, attraction, a-b-db, 2, 2, 6, 15, 89, 163, 165, 90, 90, 165, 3, 1.27396
364, 6, wb, filler, NA, 999, 999, 6, 16, 127, 59, 128, 121, 123, 76, 3, 2.31616
364, 6, wb, filler, NA, 999, 999, 6, 16, 127, 59, 128, 121, 123, 76, 2, 0.277936
364, 6, wb, attraction, a-b-da, 9, 2, 6, 17, 90, 165, 165, 90, 157, 86, 2, 2.86448
364, 6, wb, attraction, a-b-da, 9, 2, 6, 17, 90, 165, 165, 90, 157, 86, 1, 0.652246
364, 6, wb, attraction, a-b-da, 2, 2, 6, 18, 163, 89, 165, 90, 90, 165, 2, 3.98412
364, 6, wb, attraction, a-b-da, 2, 2, 6, 18, 163, 89, 165, 90, 90, 165, 1, 1.80685
364, 6, wb, catch, NA, 999, 999, 6, 19, 109, 86, 134, 181, 139, 116, 1, 1.33136
364, 6, wb, catch, NA, 999, 999, 6, 19, 109, 86, 134, 181, 139, 116, 2, 0.428943
364, 6, wb, attraction, a-b-da, 14, 1, 6, 20, 125, 56, 135, 60, 60, 135, 3, 3.16145
364, 6, wb, attraction, a-b-da, 14, 1, 6, 20, 125, 56, 135, 60, 60, 135, 2, 0.457052
364, 6, wb, filler, NA, 999, 999, 6, 21, 118, 191, 137, 95, 72, 104, 3, 0.96433
364, 6, wb, filler, NA, 999, 999, 6, 21, 118, 191, 137, 95, 72, 104, 1, 0.452532
364, 6, wb, attraction, a-b-da, 9, 1, 6, 22, 60, 135, 129, 57, 135, 60, 2, 1.36039
364, 6, wb, attraction, a-b-da, 9, 1, 6, 22, 60, 135, 129, 57, 135, 60, 3, 0.376621
364, 6, wb, attraction, a-b-db, 9, 3, 6, 23, 114, 186, 120, 195, 195, 120, 1, 1.38304
364, 6, wb, attraction, a-b-db, 9, 3, 6, 23, 114, 186, 120, 195, 195, 120, 2, 0.7266
364, 6, wb, attraction, a-b-da, 2, 3, 6, 24, 120, 195, 193, 119, 195, 120, 2, 1.35897
364, 6, wb, attraction, a-b-da, 2, 3, 6, 24, 120, 195, 193, 119, 195, 120, 1, 0.383209
364, 6, wb, attraction, a-b-db, 5, 2, 6, 25, 90, 165, 165, 90, 88, 161, 2, 0.741696
364, 6, wb, attraction, a-b-db, 5, 2, 6, 25, 90, 165, 165, 90, 88, 161, 1, 0.462753
364, 6, wb, attraction, a-b-da, 14, 2, 6, 26, 90, 165, 153, 83, 165, 90, 2, 0.873888
364, 6, wb, attraction, a-b-da, 14, 2, 6, 26, 90, 165, 153, 83, 165, 90, 3, 0.373535
364, 6, wb, attraction, a-b-da, 5, 1, 6, 27, 60, 135, 132, 58, 135, 60, 2, 0.675978
364, 6, wb, attraction, a-b-da, 5, 1, 6, 27, 60, 135, 132, 58, 135, 60, 1, 0.359829
364, 6, wb, attraction, a-b-da, 5, 2, 6, 28, 165, 90, 161, 88, 90, 165, 2, 0.90299
364, 6, wb, attraction, a-b-da, 5, 2, 6, 28, 165, 90, 161, 88, 90, 165, 3, 0.570031
364, 6, wb, attraction, a-b-db, 9, 2, 6, 29, 86, 157, 90, 165, 165, 90, 1, 3.00898
364, 6, wb, attraction, a-b-db, 9, 2, 6, 29, 86, 157, 90, 165, 165, 90, 2, 0.342827
364, 6, wb, attraction, a-b-da, 2, 1, 6, 30, 134, 59, 60, 135, 135, 60, 2, 1.16665
364, 6, wb, attraction, a-b-da, 2, 1, 6, 30, 134, 59, 60, 135, 135, 60, 1, 0.670916
364, 6, wb, catch, NA, 999, 999, 6, 31, 119, 76, 175, 140, 94, 161, 1, 0.969997
364, 6, wb, catch, NA, 999, 999, 6, 31, 119, 76, 175, 140, 94, 161, 2, 0.329685
364, 6, wb, attraction, a-b-db, 9, 1, 6, 32, 135, 60, 60, 135, 57, 129, 3, 1.33813
364, 6, wb, attraction, a-b-db, 9, 1, 6, 32, 135, 60, 60, 135, 57, 129, 2, 0.603051
364, 6, wb, attraction, a-b-db, 14, 1, 6, 33, 60, 135, 56, 125, 135, 60, 2, 1.32089
364, 6, wb, attraction, a-b-db, 14, 1, 6, 33, 60, 135, 56, 125, 135, 60, 1, 0.402395
364, 6, wb, filler, NA, 999, 999, 6, 34, 125, 159, 91, 100, 159, 60, 2, 0.776217
364, 6, wb, filler, NA, 999, 999, 6, 34, 125, 159, 91, 100, 159, 60, 1, 0.399903
364, 6, wb, attraction, a-b-db, 14, 2, 6, 35, 83, 153, 90, 165, 165, 90, 1, 1.16573
364, 6, wb, attraction, a-b-db, 14, 2, 6, 35, 83, 153, 90, 165, 165, 90, 2, 0.278183
364, 6, wb, filler, NA, 999, 999, 6, 36, 156, 151, 90, 60, 170, 185, 2, 0.864507
364, 6, wb, filler, NA, 999, 999, 6, 36, 156, 151, 90, 60, 170, 185, 3, 0.349044
364, 6, wb, attraction, a-b-da, 9, 3, 6, 37, 186, 114, 120, 195, 195, 120, 2, 2.22072
364, 6, wb, attraction, a-b-da, 9, 3, 6, 37, 186, 114, 120, 195, 195, 120, 1, 0.554008
364, 6, wb, attraction, a-b-db, 5, 3, 7, 1, 117, 190, 120, 195, 195, 120, 2, 1.04174
364, 6, wb, attraction, a-b-db, 5, 3, 7, 1, 117, 190, 120, 195, 195, 120, 1, 0.526737
364, 6, wb, filler, NA, 999, 999, 7, 2, 61, 160, 96, 95, 94, 103, 2, 1.17521
364, 6, wb, filler, NA, 999, 999, 7, 2, 61, 160, 96, 95, 94, 103, 3, 0.470828
364, 6, wb, attraction, a-b-db, 14, 2, 7, 3, 165, 90, 83, 153, 90, 165, 2, 1.12987
364, 6, wb, attraction, a-b-db, 14, 2, 7, 3, 165, 90, 83, 153, 90, 165, 3, 1.18753
364, 6, wb, attraction, a-b-da, 14, 3, 7, 4, 195, 120, 181, 111, 120, 195, 2, 1.32182
364, 6, wb, attraction, a-b-da, 14, 3, 7, 4, 195, 120, 181, 111, 120, 195, 3, 0.507339
364, 6, wb, attraction, a-b-da, 2, 3, 7, 5, 195, 120, 193, 119, 120, 195, 2, 1.54848
364, 6, wb, attraction, a-b-da, 2, 3, 7, 5, 195, 120, 193, 119, 120, 195, 1, 0.589199
364, 6, wb, attraction, a-b-db, 9, 3, 7, 6, 114, 186, 120, 195, 195, 120, 2, 0.739652
364, 6, wb, attraction, a-b-db, 9, 3, 7, 6, 114, 186, 120, 195, 195, 120, 1, 1.01282
364, 6, wb, attraction, a-b-db, 14, 3, 7, 7, 195, 120, 120, 195, 111, 181, 3, 1.07372
364, 6, wb, attraction, a-b-db, 14, 3, 7, 7, 195, 120, 120, 195, 111, 181, 1, 1.15739
364, 6, wb, attraction, a-b-da, 5, 3, 7, 8, 190, 117, 195, 120, 120, 195, 3, 0.852223
364, 6, wb, attraction, a-b-da, 5, 3, 7, 8, 190, 117, 195, 120, 120, 195, 2, 1.05745
364, 6, wb, filler, NA, 999, 999, 7, 9, 98, 115, 146, 170, 116, 109, 1, 0.988222
364, 6, wb, filler, NA, 999, 999, 7, 9, 98, 115, 146, 170, 116, 109, 2, 0.307207
364, 6, wb, attraction, a-b-da, 14, 1, 7, 10, 125, 56, 135, 60, 60, 135, 1, 1.22036
364, 6, wb, attraction, a-b-da, 14, 1, 7, 10, 125, 56, 135, 60, 60, 135, 2, 0.57065
364, 6, wb, filler, NA, 999, 999, 7, 11, 115, 70, 79, 170, 190, 195, 1, 0.83378
364, 6, wb, filler, NA, 999, 999, 7, 11, 115, 70, 79, 170, 190, 195, 3, 0.463544
364, 6, wb, attraction, a-b-da, 2, 2, 7, 12, 165, 90, 90, 165, 163, 89, 3, 3.08269
364, 6, wb, attraction, a-b-da, 2, 2, 7, 12, 165, 90, 90, 165, 163, 89, 2, 2.8458
364, 6, wb, attraction, a-b-db, 9, 2, 7, 13, 86, 157, 90, 165, 165, 90, 1, 2.64868
364, 6, wb, attraction, a-b-db, 9, 2, 7, 13, 86, 157, 90, 165, 165, 90, 3, 1.34113
364, 6, wb, filler, NA, 999, 999, 7, 14, 91, 106, 132, 190, 126, 147, 1, 0.644636
364, 6, wb, filler, NA, 999, 999, 7, 14, 91, 106, 132, 190, 126, 147, 2, 0.329782
364, 6, wb, attraction, a-b-db, 9, 1, 7, 15, 57, 129, 60, 135, 135, 60, 1, 1.7783
364, 6, wb, attraction, a-b-db, 9, 1, 7, 15, 57, 129, 60, 135, 135, 60, 3, 0.817708
364, 6, wb, attraction, a-b-da, 5, 2, 7, 16, 165, 90, 161, 88, 90, 165, 3, 1.41469
364, 6, wb, attraction, a-b-da, 5, 2, 7, 16, 165, 90, 161, 88, 90, 165, 1, 0.708865
364, 6, wb, attraction, a-b-da, 2, 1, 7, 17, 134, 59, 135, 60, 60, 135, 3, 1.57398
364, 6, wb, attraction, a-b-da, 2, 1, 7, 17, 134, 59, 135, 60, 60, 135, 2, 0.469583
364, 6, wb, attraction, a-b-da, 9, 1, 7, 18, 129, 57, 60, 135, 135, 60, 2, 0.78454
364, 6, wb, attraction, a-b-da, 9, 1, 7, 18, 129, 57, 60, 135, 135, 60, 3, 0.736363
364, 6, wb, attraction, a-b-da, 14, 2, 7, 19, 165, 90, 153, 83, 90, 165, 2, 0.552751
364, 6, wb, attraction, a-b-da, 14, 2, 7, 19, 165, 90, 153, 83, 90, 165, 3, 0.713906
364, 6, wb, filler, NA, 999, 999, 7, 20, 150, 174, 95, 105, 106, 147, 2, 0.530866
364, 6, wb, filler, NA, 999, 999, 7, 20, 150, 174, 95, 105, 106, 147, 1, 0.57285
364, 6, wb, filler, NA, 999, 999, 7, 21, 131, 139, 169, 142, 113, 105, 3, 0.819187
364, 6, wb, filler, NA, 999, 999, 7, 21, 131, 139, 169, 142, 113, 105, 2, 0.633479
364, 6, wb, filler, NA, 999, 999, 7, 22, 184, 189, 62, 169, 118, 90, 3, 0.901953
364, 6, wb, filler, NA, 999, 999, 7, 22, 184, 189, 62, 169, 118, 90, 1, 0.400966
364, 6, wb, catch, NA, 999, 999, 7, 23, 141, 174, 99, 96, 109, 146, 2, 0.966795
364, 6, wb, catch, NA, 999, 999, 7, 23, 141, 174, 99, 96, 109, 146, 1, 0.335105
364, 6, wb, attraction, a-b-db, 2, 2, 7, 24, 89, 163, 165, 90, 90, 165, 2, 3.98361
364, 6, wb, attraction, a-b-db, 2, 2, 7, 24, 89, 163, 165, 90, 90, 165, 3, 1.82241
364, 6, wb, attraction, a-b-db, 5, 2, 7, 25, 90, 165, 88, 161, 165, 90, 2, 4.49103
364, 6, wb, attraction, a-b-db, 5, 2, 7, 25, 90, 165, 88, 161, 165, 90, 1, 0.604987
364, 6, wb, attraction, a-b-db, 14, 1, 7, 26, 60, 135, 135, 60, 56, 125, 2, 4.73065
364, 6, wb, attraction, a-b-db, 14, 1, 7, 26, 60, 135, 135, 60, 56, 125, 1, 0.539288
364, 6, wb, attraction, a-b-da, 9, 3, 7, 27, 120, 195, 186, 114, 195, 120, 2, 0.987009
364, 6, wb, attraction, a-b-da, 9, 3, 7, 27, 120, 195, 186, 114, 195, 120, 3, 0.842037
364, 6, wb, filler, NA, 999, 999, 7, 28, 98, 195, 118, 143, 158, 102, 3, 6.94969
364, 6, wb, filler, NA, 999, 999, 7, 28, 98, 195, 118, 143, 158, 102, 2, 4.86886
364, 6, wb, filler, NA, 999, 999, 7, 29, 185, 145, 178, 175, 185, 84, 3, 1.6465
364, 6, wb, filler, NA, 999, 999, 7, 29, 185, 145, 178, 175, 185, 84, 2, 3.71546
364, 6, wb, attraction, a-b-db, 2, 1, 7, 30, 59, 134, 60, 135, 135, 60, 2, 1.46743
364, 6, wb, attraction, a-b-db, 2, 1, 7, 30, 59, 134, 60, 135, 135, 60, 3, 1.46367
364, 6, wb, catch, NA, 999, 999, 7, 31, 93, 102, 155, 160, 151, 104, 1, 0.97037
364, 6, wb, catch, NA, 999, 999, 7, 31, 93, 102, 155, 160, 151, 104, 2, 0.258065
364, 6, wb, attraction, a-b-db, 2, 3, 7, 32, 195, 120, 119, 193, 120, 195, 2, 1.24531
364, 6, wb, attraction, a-b-db, 2, 3, 7, 32, 195, 120, 119, 193, 120, 195, 3, 0.282232
364, 6, wb, attraction, a-b-da, 9, 2, 7, 33, 157, 86, 165, 90, 90, 165, 2, 1.24481
364, 6, wb, attraction, a-b-da, 9, 2, 7, 33, 157, 86, 165, 90, 90, 165, 3, 0.313811
364, 6, wb, filler, NA, 999, 999, 7, 34, 162, 97, 190, 117, 184, 94, 2, 0.522754
364, 6, wb, filler, NA, 999, 999, 7, 34, 162, 97, 190, 117, 184, 94, 1, 0.388863
364, 6, wb, attraction, a-b-da, 5, 1, 7, 35, 132, 58, 135, 60, 60, 135, 2, 0.611152
364, 6, wb, attraction, a-b-da, 5, 1, 7, 35, 132, 58, 135, 60, 60, 135, 3, 0.409634
364, 6, wb, attraction, a-b-db, 5, 1, 7, 36, 135, 60, 58, 132, 60, 135, 2, 0.710739
364, 6, wb, attraction, a-b-db, 5, 1, 7, 36, 135, 60, 58, 132, 60, 135, 1, 0.857198
364, 6, wb, catch, NA, 999, 999, 7, 37, 127, 68, 158, 157, 99, 156, 1, 0.772098
364, 6, wb, catch, NA, 999, 999, 7, 37, 127, 68, 158, 157, 99, 156, 2, 0.499826
364, 6, wb, filler, NA, 999, 999, 8, 1, 80, 116, 57, 157, 125, 58, 1, 3.10962
364, 6, wb, filler, NA, 999, 999, 8, 1, 80, 116, 57, 157, 125, 58, 2, 0.51934
364, 6, wb, attraction, a-b-db, 5, 1, 8, 2, 135, 60, 58, 132, 60, 135, 3, 1.71246
364, 6, wb, attraction, a-b-db, 5, 1, 8, 2, 135, 60, 58, 132, 60, 135, 1, 0.466507
364, 6, wb, filler, NA, 999, 999, 8, 3, 74, 161, 119, 147, 142, 64, 3, 0.789691
364, 6, wb, filler, NA, 999, 999, 8, 3, 74, 161, 119, 147, 142, 64, 2, 0.444859
364, 6, wb, attraction, a-b-da, 5, 1, 8, 4, 132, 58, 60, 135, 135, 60, 2, 1.23248
364, 6, wb, attraction, a-b-da, 5, 1, 8, 4, 132, 58, 60, 135, 135, 60, 3, 0.510167
364, 6, wb, attraction, a-b-da, 9, 2, 8, 5, 165, 90, 157, 86, 90, 165, 2, 0.863221
364, 6, wb, attraction, a-b-da, 9, 2, 8, 5, 165, 90, 157, 86, 90, 165, 1, 0.499581
364, 6, wb, filler, NA, 999, 999, 8, 6, 144, 65, 65, 90, 108, 68, 2, 0.805382
364, 6, wb, filler, NA, 999, 999, 8, 6, 144, 65, 65, 90, 108, 68, 1, 0.419714
364, 6, wb, attraction, a-b-db, 2, 3, 8, 7, 195, 120, 120, 195, 119, 193, 2, 4.14516
364, 6, wb, attraction, a-b-db, 2, 3, 8, 7, 195, 120, 120, 195, 119, 193, 1, 1.281
364, 6, wb, attraction, a-b-db, 9, 3, 8, 8, 114, 186, 120, 195, 195, 120, 1, 2.02707
364, 6, wb, attraction, a-b-db, 9, 3, 8, 8, 114, 186, 120, 195, 195, 120, 2, 0.384559
364, 6, wb, catch, NA, 999, 999, 8, 9, 179, 136, 118, 137, 84, 111, 3, 0.646943
364, 6, wb, catch, NA, 999, 999, 8, 9, 179, 136, 118, 137, 84, 111, 1, 0.748076
364, 6, wb, attraction, a-b-db, 9, 1, 8, 10, 57, 129, 135, 60, 60, 135, 1, 1.79584
364, 6, wb, attraction, a-b-db, 9, 1, 8, 10, 57, 129, 135, 60, 60, 135, 3, 0.458578
364, 6, wb, filler, NA, 999, 999, 8, 11, 184, 136, 121, 91, 129, 182, 2, 0.501636
364, 6, wb, filler, NA, 999, 999, 8, 11, 184, 136, 121, 91, 129, 182, 3, 9.58493
364, 6, wb, filler, NA, 999, 999, 8, 12, 139, 117, 176, 169, 193, 176, 1, 0.948436
364, 6, wb, filler, NA, 999, 999, 8, 12, 139, 117, 176, 169, 193, 176, 3, 0.741469
364, 6, wb, filler, NA, 999, 999, 8, 13, 97, 180, 93, 189, 97, 146, 2, 0.925181
364, 6, wb, filler, NA, 999, 999, 8, 13, 97, 180, 93, 189, 97, 146, 1, 0.302837
364, 6, wb, attraction, a-b-db, 5, 3, 8, 14, 120, 195, 195, 120, 117, 190, 3, 0.976676
364, 6, wb, attraction, a-b-db, 5, 3, 8, 14, 120, 195, 195, 120, 117, 190, 1, 0.520345
364, 6, wb, attraction, a-b-da, 14, 3, 8, 15, 195, 120, 120, 195, 181, 111, 2, 0.865504
364, 6, wb, attraction, a-b-da, 14, 3, 8, 15, 195, 120, 120, 195, 181, 111, 1, 0.469856
364, 6, wb, filler, NA, 999, 999, 8, 16, 182, 156, 89, 85, 118, 195, 2, 0.712929
364, 6, wb, filler, NA, 999, 999, 8, 16, 182, 156, 89, 85, 118, 195, 1, 0.315395
364, 6, wb, attraction, a-b-db, 2, 2, 8, 17, 90, 165, 89, 163, 165, 90, 1, 0.916473
364, 6, wb, attraction, a-b-db, 2, 2, 8, 17, 90, 165, 89, 163, 165, 90, 2, 0.326937
364, 6, wb, attraction, a-b-da, 9, 1, 8, 18, 135, 60, 129, 57, 60, 135, 2, 0.86333
364, 6, wb, attraction, a-b-da, 9, 1, 8, 18, 135, 60, 129, 57, 60, 135, 1, 0.339746
364, 6, wb, attraction, a-b-da, 2, 3, 8, 19, 120, 195, 195, 120, 193, 119, 1, 0.915627
364, 6, wb, attraction, a-b-da, 2, 3, 8, 19, 120, 195, 195, 120, 193, 119, 2, 1.80603
364, 6, wb, attraction, a-b-da, 2, 2, 8, 20, 165, 90, 163, 89, 90, 165, 1, 1.18737
364, 6, wb, attraction, a-b-da, 2, 2, 8, 20, 165, 90, 163, 89, 90, 165, 2, 0.442248
364, 6, wb, attraction, a-b-da, 2, 1, 8, 21, 60, 135, 135, 60, 134, 59, 3, 0.70201
364, 6, wb, attraction, a-b-da, 2, 1, 8, 21, 60, 135, 135, 60, 134, 59, 1, 0.513171
364, 6, wb, attraction, a-b-db, 14, 3, 8, 22, 195, 120, 111, 181, 120, 195, 2, 1.79438
364, 6, wb, attraction, a-b-db, 14, 3, 8, 22, 195, 120, 111, 181, 120, 195, 1, 0.537088
364, 6, wb, attraction, a-b-da, 5, 3, 8, 23, 190, 117, 195, 120, 120, 195, 2, 1.3935
364, 6, wb, attraction, a-b-da, 5, 3, 8, 23, 190, 117, 195, 120, 120, 195, 1, 0.336335
364, 6, wb, attraction, a-b-db, 5, 2, 8, 24, 90, 165, 165, 90, 88, 161, 3, 1.18482
364, 6, wb, attraction, a-b-db, 5, 2, 8, 24, 90, 165, 165, 90, 88, 161, 1, 0.464438
364, 6, wb, attraction, a-b-da, 14, 2, 8, 25, 165, 90, 90, 165, 153, 83, 3, 1.04377
364, 6, wb, attraction, a-b-da, 14, 2, 8, 25, 165, 90, 90, 165, 153, 83, 2, 0.384704
364, 6, wb, attraction, a-b-da, 5, 2, 8, 26, 165, 90, 90, 165, 161, 88, 3, 0.871199
364, 6, wb, attraction, a-b-da, 5, 2, 8, 26, 165, 90, 90, 165, 161, 88, 1, 0.4187
364, 6, wb, catch, NA, 999, 999, 8, 27, 184, 131, 142, 113, 66, 129, 3, 0.607884
364, 6, wb, catch, NA, 999, 999, 8, 27, 184, 131, 142, 113, 66, 129, 1, 0.358347
364, 6, wb, filler, NA, 999, 999, 8, 28, 195, 136, 189, 109, 173, 86, 3, 0.41355
364, 6, wb, filler, NA, 999, 999, 8, 28, 195, 136, 189, 109, 173, 86, 1, 0.380004
364, 6, wb, filler, NA, 999, 999, 8, 29, 131, 134, 125, 153, 166, 145, 2, 0.906498
364, 6, wb, filler, NA, 999, 999, 8, 29, 131, 134, 125, 153, 166, 145, 3, 0.772922
364, 6, wb, filler, NA, 999, 999, 8, 30, 164, 162, 164, 144, 137, 142, 3, 0.771197
364, 6, wb, filler, NA, 999, 999, 8, 30, 164, 162, 164, 144, 137, 142, 1, 0.434971
364, 6, wb, attraction, a-b-da, 9, 3, 8, 31, 120, 195, 186, 114, 195, 120, 2, 2.12746
364, 6, wb, attraction, a-b-da, 9, 3, 8, 31, 120, 195, 186, 114, 195, 120, 1, 0.656706
364, 6, wb, attraction, a-b-db, 14, 2, 8, 32, 90, 165, 83, 153, 165, 90, 3, 1.81974
364, 6, wb, attraction, a-b-db, 14, 2, 8, 32, 90, 165, 83, 153, 165, 90, 1, 0.377835
364, 6, wb, attraction, a-b-db, 14, 1, 8, 33, 56, 125, 60, 135, 135, 60, 1, 4.09642
364, 6, wb, attraction, a-b-db, 14, 1, 8, 33, 56, 125, 60, 135, 135, 60, 3, 0.546424
364, 6, wb, attraction, a-b-db, 2, 1, 8, 34, 135, 60, 60, 135, 59, 134, 2, 1.88237
364, 6, wb, attraction, a-b-db, 2, 1, 8, 34, 135, 60, 60, 135, 59, 134, 1, 0.47751
364, 6, wb, attraction, a-b-da, 14, 1, 8, 35, 60, 135, 125, 56, 135, 60, 2, 0.800083
364, 6, wb, attraction, a-b-da, 14, 1, 8, 35, 60, 135, 125, 56, 135, 60, 1, 0.455106
364, 6, wb, attraction, a-b-db, 9, 2, 8, 36, 90, 165, 86, 157, 165, 90, 2, 2.64282
364, 6, wb, attraction, a-b-db, 9, 2, 8, 36, 90, 165, 86, 157, 165, 90, 3, 2.35146
364, 6, wb, catch, NA, 999, 999, 8, 37, 117, 138, 150, 165, 120, 75, 3, 0.862617
364, 6, wb, catch, NA, 999, 999, 8, 37, 117, 138, 150, 165, 120, 75, 2, 0.282989
