sub_n, computer_n, bw_cond, effect, set, distance, diag, block_n, trial_n, h1, w1, h2, w2, h3, w3, choice, rt 
304, 6, wb, practice, NA, 999, 999, 0, 1, 67, 56, 84, 125, 159, 56, 1, 6.61898
304, 6, wb, practice, NA, 999, 999, 0, 1, 67, 56, 84, 125, 159, 56, 2, 12.9108
304, 6, wb, practice, NA, 999, 999, 0, 2, 132, 185, 146, 118, 111, 69, 3, 7.3294
304, 6, wb, practice, NA, 999, 999, 0, 2, 132, 185, 146, 118, 111, 69, 1, 1.30583
304, 6, wb, practice, NA, 999, 999, 0, 3, 110, 76, 132, 80, 94, 126, 1, 5.49351
304, 6, wb, practice, NA, 999, 999, 0, 3, 110, 76, 132, 80, 94, 126, 3, 1.33849
304, 6, wb, filler, NA, 999, 999, 1, 1, 69, 156, 105, 56, 180, 115, 2, 2.06835
304, 6, wb, filler, NA, 999, 999, 1, 1, 69, 156, 105, 56, 180, 115, 3, 0.488375
304, 6, wb, filler, NA, 999, 999, 1, 2, 83, 99, 61, 96, 65, 173, 2, 2.60281
304, 6, wb, filler, NA, 999, 999, 1, 2, 83, 99, 61, 96, 65, 173, 3, 0.585227
304, 6, wb, attraction, a-b-db, 9, 2, 1, 3, 86, 157, 165, 90, 90, 165, 1, 5.83162
304, 6, wb, attraction, a-b-db, 9, 2, 1, 3, 86, 157, 165, 90, 90, 165, 3, 1.12386
304, 6, wb, filler, NA, 999, 999, 1, 4, 183, 161, 70, 173, 117, 175, 2, 2.08401
304, 6, wb, filler, NA, 999, 999, 1, 4, 183, 161, 70, 173, 117, 175, 1, 0.399433
304, 6, wb, attraction, a-b-da, 9, 3, 1, 5, 186, 114, 195, 120, 120, 195, 1, 6.66129
304, 6, wb, attraction, a-b-da, 9, 3, 1, 5, 186, 114, 195, 120, 120, 195, 3, 0.455814
304, 6, wb, attraction, a-b-da, 9, 1, 1, 6, 60, 135, 129, 57, 135, 60, 3, 2.13164
304, 6, wb, attraction, a-b-da, 9, 1, 1, 6, 60, 135, 129, 57, 135, 60, 1, 0.436879
304, 6, wb, catch, NA, 999, 999, 1, 7, 150, 165, 149, 106, 84, 111, 3, 1.70544
304, 6, wb, catch, NA, 999, 999, 1, 7, 150, 165, 149, 106, 84, 111, 1, 0.443792
304, 6, wb, filler, NA, 999, 999, 1, 8, 138, 73, 147, 97, 164, 152, 1, 1.36725
304, 6, wb, filler, NA, 999, 999, 1, 8, 138, 73, 147, 97, 164, 152, 3, 0.343449
304, 6, wb, attraction, a-b-da, 5, 2, 1, 9, 90, 165, 165, 90, 161, 88, 1, 2.2073
304, 6, wb, attraction, a-b-da, 5, 2, 1, 9, 90, 165, 165, 90, 161, 88, 3, 1.04525
304, 6, wb, catch, NA, 999, 999, 1, 10, 137, 178, 78, 117, 116, 139, 2, 1.03301
304, 6, wb, catch, NA, 999, 999, 1, 10, 137, 178, 78, 117, 116, 139, 1, 0.45448
304, 6, wb, filler, NA, 999, 999, 1, 11, 91, 160, 105, 73, 89, 171, 2, 0.962403
304, 6, wb, filler, NA, 999, 999, 1, 11, 91, 160, 105, 73, 89, 171, 1, 0.594627
304, 6, wb, filler, NA, 999, 999, 1, 12, 116, 70, 124, 91, 58, 186, 1, 1.68042
304, 6, wb, filler, NA, 999, 999, 1, 12, 116, 70, 124, 91, 58, 186, 2, 0.787992
304, 6, wb, attraction, a-b-db, 14, 2, 1, 13, 83, 153, 90, 165, 165, 90, 1, 6.86622
304, 6, wb, attraction, a-b-db, 14, 2, 1, 13, 83, 153, 90, 165, 165, 90, 3, 0.716776
304, 6, wb, attraction, a-b-da, 2, 3, 1, 14, 195, 120, 193, 119, 120, 195, 1, 8.0858
304, 6, wb, attraction, a-b-da, 2, 3, 1, 14, 195, 120, 193, 119, 120, 195, 3, 0.88725
304, 6, wb, attraction, a-b-db, 14, 3, 1, 15, 120, 195, 195, 120, 111, 181, 3, 2.94552
304, 6, wb, attraction, a-b-db, 14, 3, 1, 15, 120, 195, 195, 120, 111, 181, 1, 0.27395
304, 6, wb, attraction, a-b-db, 2, 1, 1, 16, 60, 135, 135, 60, 59, 134, 2, 3.84458
304, 6, wb, attraction, a-b-db, 2, 1, 1, 16, 60, 135, 135, 60, 59, 134, 3, 0.808561
304, 6, wb, attraction, a-b-da, 5, 3, 1, 17, 120, 195, 195, 120, 190, 117, 3, 3.1576
304, 6, wb, attraction, a-b-da, 5, 3, 1, 17, 120, 195, 195, 120, 190, 117, 1, 0.325213
304, 6, wb, attraction, a-b-db, 9, 3, 1, 18, 195, 120, 120, 195, 114, 186, 3, 9.54183
304, 6, wb, attraction, a-b-db, 9, 3, 1, 18, 195, 120, 120, 195, 114, 186, 2, 0.396103
304, 6, wb, catch, NA, 999, 999, 1, 19, 99, 156, 67, 128, 130, 185, 2, 1.22585
304, 6, wb, catch, NA, 999, 999, 1, 19, 99, 156, 67, 128, 130, 185, 3, 0.343452
304, 6, wb, attraction, a-b-da, 2, 2, 1, 20, 163, 89, 90, 165, 165, 90, 1, 3.87927
304, 6, wb, attraction, a-b-da, 2, 2, 1, 20, 163, 89, 90, 165, 165, 90, 2, 0.498055
304, 6, wb, attraction, a-b-db, 5, 2, 1, 21, 88, 161, 165, 90, 90, 165, 1, 2.15578
304, 6, wb, attraction, a-b-db, 5, 2, 1, 21, 88, 161, 165, 90, 90, 165, 2, 1.22782
304, 6, wb, attraction, a-b-da, 9, 2, 1, 22, 165, 90, 90, 165, 157, 86, 1, 3.71201
304, 6, wb, attraction, a-b-da, 9, 2, 1, 22, 165, 90, 90, 165, 157, 86, 2, 1.88153
304, 6, wb, attraction, a-b-da, 14, 2, 1, 23, 90, 165, 153, 83, 165, 90, 1, 1.23547
304, 6, wb, attraction, a-b-da, 14, 2, 1, 23, 90, 165, 153, 83, 165, 90, 3, 0.481131
304, 6, wb, attraction, a-b-db, 5, 1, 1, 24, 58, 132, 60, 135, 135, 60, 2, 1.90757
304, 6, wb, attraction, a-b-db, 5, 1, 1, 24, 58, 132, 60, 135, 135, 60, 1, 0.29368
304, 6, wb, attraction, a-b-db, 2, 3, 1, 25, 120, 195, 119, 193, 195, 120, 3, 2.01552
304, 6, wb, attraction, a-b-db, 2, 3, 1, 25, 120, 195, 119, 193, 195, 120, 1, 0.357533
304, 6, wb, attraction, a-b-da, 14, 3, 1, 26, 195, 120, 120, 195, 181, 111, 3, 3.82861
304, 6, wb, attraction, a-b-da, 14, 3, 1, 26, 195, 120, 120, 195, 181, 111, 2, 0.425424
304, 6, wb, filler, NA, 999, 999, 1, 27, 183, 70, 170, 100, 165, 64, 3, 1.13395
304, 6, wb, filler, NA, 999, 999, 1, 27, 183, 70, 170, 100, 165, 64, 2, 0.367545
304, 6, wb, filler, NA, 999, 999, 1, 28, 112, 156, 71, 93, 125, 75, 2, 0.790674
304, 6, wb, filler, NA, 999, 999, 1, 28, 112, 156, 71, 93, 125, 75, 1, 0.317896
304, 6, wb, filler, NA, 999, 999, 1, 29, 103, 90, 153, 183, 120, 91, 1, 1.01494
304, 6, wb, filler, NA, 999, 999, 1, 29, 103, 90, 153, 183, 120, 91, 2, 0.221251
304, 6, wb, attraction, a-b-da, 2, 1, 1, 30, 135, 60, 60, 135, 134, 59, 2, 2.61842
304, 6, wb, attraction, a-b-da, 2, 1, 1, 30, 135, 60, 60, 135, 134, 59, 3, 0.392329
304, 6, wb, attraction, a-b-da, 14, 1, 1, 31, 125, 56, 135, 60, 60, 135, 2, 4.07013
304, 6, wb, attraction, a-b-da, 14, 1, 1, 31, 125, 56, 135, 60, 60, 135, 1, 0.689412
304, 6, wb, filler, NA, 999, 999, 1, 32, 155, 155, 98, 76, 112, 80, 2, 0.643864
304, 6, wb, filler, NA, 999, 999, 1, 32, 155, 155, 98, 76, 112, 80, 1, 0.280969
304, 6, wb, attraction, a-b-db, 14, 1, 1, 33, 56, 125, 60, 135, 135, 60, 1, 1.10753
304, 6, wb, attraction, a-b-db, 14, 1, 1, 33, 56, 125, 60, 135, 135, 60, 3, 2.32588
304, 6, wb, attraction, a-b-db, 2, 2, 1, 34, 89, 163, 165, 90, 90, 165, 1, 2.70163
304, 6, wb, attraction, a-b-db, 2, 2, 1, 34, 89, 163, 165, 90, 90, 165, 3, 0.31209
304, 6, wb, attraction, a-b-db, 5, 3, 1, 35, 117, 190, 195, 120, 120, 195, 1, 1.12133
304, 6, wb, attraction, a-b-db, 5, 3, 1, 35, 117, 190, 195, 120, 120, 195, 2, 0.274895
304, 6, wb, attraction, a-b-db, 9, 1, 1, 36, 57, 129, 60, 135, 135, 60, 1, 0.605379
304, 6, wb, attraction, a-b-db, 9, 1, 1, 36, 57, 129, 60, 135, 135, 60, 3, 0.451909
304, 6, wb, attraction, a-b-da, 5, 1, 1, 37, 135, 60, 60, 135, 132, 58, 1, 0.543681
304, 6, wb, attraction, a-b-da, 5, 1, 1, 37, 135, 60, 60, 135, 132, 58, 2, 0.208835
304, 6, wb, attraction, a-b-da, 9, 1, 2, 1, 60, 135, 135, 60, 129, 57, 1, 0.677962
304, 6, wb, attraction, a-b-da, 9, 1, 2, 1, 60, 135, 135, 60, 129, 57, 3, 0.457776
304, 6, wb, attraction, a-b-db, 5, 1, 2, 2, 135, 60, 60, 135, 58, 132, 3, 0.900914
304, 6, wb, attraction, a-b-db, 5, 1, 2, 2, 135, 60, 60, 135, 58, 132, 1, 0.687911
304, 6, wb, catch, NA, 999, 999, 2, 3, 137, 118, 81, 114, 138, 177, 2, 0.586333
304, 6, wb, catch, NA, 999, 999, 2, 3, 137, 118, 81, 114, 138, 177, 3, 0.490097
304, 6, wb, attraction, a-b-da, 14, 2, 2, 4, 90, 165, 153, 83, 165, 90, 2, 0.699904
304, 6, wb, attraction, a-b-da, 14, 2, 2, 4, 90, 165, 153, 83, 165, 90, 3, 0.279037
304, 6, wb, attraction, a-b-da, 5, 3, 2, 5, 195, 120, 120, 195, 190, 117, 1, 0.465487
304, 6, wb, attraction, a-b-da, 5, 3, 2, 5, 195, 120, 120, 195, 190, 117, 3, 0.349973
304, 6, wb, filler, NA, 999, 999, 2, 6, 155, 157, 155, 195, 111, 125, 3, 0.797868
304, 6, wb, filler, NA, 999, 999, 2, 6, 155, 157, 155, 195, 111, 125, 1, 0.372933
304, 6, wb, attraction, a-b-db, 14, 2, 2, 7, 90, 165, 165, 90, 83, 153, 2, 0.931373
304, 6, wb, attraction, a-b-db, 14, 2, 2, 7, 90, 165, 165, 90, 83, 153, 1, 2.01316
304, 6, wb, attraction, a-b-db, 14, 3, 2, 8, 120, 195, 195, 120, 111, 181, 3, 1.45776
304, 6, wb, attraction, a-b-db, 14, 3, 2, 8, 120, 195, 195, 120, 111, 181, 1, 0.397978
304, 6, wb, attraction, a-b-db, 5, 3, 2, 9, 195, 120, 117, 190, 120, 195, 3, 2.91575
304, 6, wb, attraction, a-b-db, 5, 3, 2, 9, 195, 120, 117, 190, 120, 195, 1, 0.533581
304, 6, wb, attraction, a-b-da, 9, 3, 2, 10, 186, 114, 195, 120, 120, 195, 1, 1.21403
304, 6, wb, attraction, a-b-da, 9, 3, 2, 10, 186, 114, 195, 120, 120, 195, 2, 0.244182
304, 6, wb, filler, NA, 999, 999, 2, 11, 109, 165, 185, 175, 139, 114, 1, 1.064
304, 6, wb, filler, NA, 999, 999, 2, 11, 109, 165, 185, 175, 139, 114, 2, 0.276339
304, 6, wb, attraction, a-b-db, 2, 1, 2, 12, 135, 60, 59, 134, 60, 135, 1, 3.0548
304, 6, wb, attraction, a-b-db, 2, 1, 2, 12, 135, 60, 59, 134, 60, 135, 3, 0.363152
304, 6, wb, filler, NA, 999, 999, 2, 13, 139, 123, 111, 102, 171, 175, 2, 0.570321
304, 6, wb, filler, NA, 999, 999, 2, 13, 139, 123, 111, 102, 171, 175, 3, 0.274274
304, 6, wb, attraction, a-b-da, 14, 3, 2, 14, 181, 111, 195, 120, 120, 195, 2, 2.43672
304, 6, wb, attraction, a-b-da, 14, 3, 2, 14, 181, 111, 195, 120, 120, 195, 3, 0.265884
304, 6, wb, filler, NA, 999, 999, 2, 15, 131, 152, 174, 119, 127, 91, 3, 1.37327
304, 6, wb, filler, NA, 999, 999, 2, 15, 131, 152, 174, 119, 127, 91, 1, 0.244594
304, 6, wb, attraction, a-b-da, 2, 3, 2, 16, 193, 119, 195, 120, 120, 195, 1, 1.23266
304, 6, wb, attraction, a-b-da, 2, 3, 2, 16, 193, 119, 195, 120, 120, 195, 2, 0.281523
304, 6, wb, attraction, a-b-db, 14, 1, 2, 17, 60, 135, 56, 125, 135, 60, 3, 0.872795
304, 6, wb, attraction, a-b-db, 14, 1, 2, 17, 60, 135, 56, 125, 135, 60, 1, 0.300313
304, 6, wb, attraction, a-b-db, 9, 3, 2, 18, 195, 120, 114, 186, 120, 195, 1, 2.75821
304, 6, wb, attraction, a-b-db, 9, 3, 2, 18, 195, 120, 114, 186, 120, 195, 2, 0.373886
304, 6, wb, attraction, a-b-da, 2, 2, 2, 19, 90, 165, 163, 89, 165, 90, 3, 3.88445
304, 6, wb, attraction, a-b-da, 2, 2, 2, 19, 90, 165, 163, 89, 165, 90, 1, 0.471119
304, 6, wb, filler, NA, 999, 999, 2, 20, 153, 79, 112, 127, 99, 172, 1, 2.84228
304, 6, wb, filler, NA, 999, 999, 2, 20, 153, 79, 112, 127, 99, 172, 3, 0.278716
304, 6, wb, attraction, a-b-da, 14, 1, 2, 21, 60, 135, 125, 56, 135, 60, 1, 0.985269
304, 6, wb, attraction, a-b-da, 14, 1, 2, 21, 60, 135, 125, 56, 135, 60, 2, 0.425192
304, 6, wb, attraction, a-b-da, 5, 1, 2, 22, 132, 58, 135, 60, 60, 135, 2, 3.23742
304, 6, wb, attraction, a-b-da, 5, 1, 2, 22, 132, 58, 135, 60, 60, 135, 1, 0.329652
304, 6, wb, attraction, a-b-db, 2, 3, 2, 23, 120, 195, 119, 193, 195, 120, 3, 1.19423
304, 6, wb, attraction, a-b-db, 2, 3, 2, 23, 120, 195, 119, 193, 195, 120, 1, 0.988385
304, 6, wb, catch, NA, 999, 999, 2, 24, 95, 100, 108, 147, 173, 142, 1, 0.791543
304, 6, wb, catch, NA, 999, 999, 2, 24, 95, 100, 108, 147, 173, 142, 3, 0.622586
304, 6, wb, attraction, a-b-da, 2, 1, 2, 25, 134, 59, 60, 135, 135, 60, 2, 0.81156
304, 6, wb, attraction, a-b-da, 2, 1, 2, 25, 134, 59, 60, 135, 135, 60, 3, 0.273991
304, 6, wb, filler, NA, 999, 999, 2, 26, 89, 134, 153, 96, 94, 190, 1, 1.38044
304, 6, wb, filler, NA, 999, 999, 2, 26, 89, 134, 153, 96, 94, 190, 3, 0.251988
304, 6, wb, filler, NA, 999, 999, 2, 27, 114, 81, 59, 122, 185, 152, 2, 1.59991
304, 6, wb, filler, NA, 999, 999, 2, 27, 114, 81, 59, 122, 185, 152, 3, 0.246682
304, 6, wb, attraction, a-b-db, 5, 2, 2, 28, 165, 90, 88, 161, 90, 165, 3, 0.842592
304, 6, wb, attraction, a-b-db, 5, 2, 2, 28, 165, 90, 88, 161, 90, 165, 1, 0.495591
304, 6, wb, catch, NA, 999, 999, 2, 29, 105, 90, 117, 138, 161, 154, 1, 0.705466
304, 6, wb, catch, NA, 999, 999, 2, 29, 105, 90, 117, 138, 161, 154, 3, 0.195754
304, 6, wb, filler, NA, 999, 999, 2, 30, 89, 111, 99, 108, 185, 154, 1, 0.625638
304, 6, wb, filler, NA, 999, 999, 2, 30, 89, 111, 99, 108, 185, 154, 3, 0.191512
304, 6, wb, filler, NA, 999, 999, 2, 31, 192, 58, 117, 59, 100, 166, 1, 1.26129
304, 6, wb, filler, NA, 999, 999, 2, 31, 192, 58, 117, 59, 100, 166, 3, 0.54557
304, 6, wb, filler, NA, 999, 999, 2, 32, 109, 180, 97, 115, 104, 102, 3, 1.25733
304, 6, wb, filler, NA, 999, 999, 2, 32, 109, 180, 97, 115, 104, 102, 1, 0.181579
304, 6, wb, attraction, a-b-db, 2, 2, 2, 33, 89, 163, 90, 165, 165, 90, 1, 0.700114
304, 6, wb, attraction, a-b-db, 2, 2, 2, 33, 89, 163, 90, 165, 165, 90, 3, 0.199391
304, 6, wb, attraction, a-b-db, 9, 2, 2, 34, 86, 157, 90, 165, 165, 90, 2, 1.40512
304, 6, wb, attraction, a-b-db, 9, 2, 2, 34, 86, 157, 90, 165, 165, 90, 1, 0.45927
304, 6, wb, attraction, a-b-da, 9, 2, 2, 35, 157, 86, 90, 165, 165, 90, 1, 0.998413
304, 6, wb, attraction, a-b-da, 9, 2, 2, 35, 157, 86, 90, 165, 165, 90, 3, 0.445427
304, 6, wb, attraction, a-b-da, 5, 2, 2, 36, 165, 90, 90, 165, 161, 88, 1, 0.657205
304, 6, wb, attraction, a-b-da, 5, 2, 2, 36, 165, 90, 90, 165, 161, 88, 2, 0.285631
304, 6, wb, attraction, a-b-db, 9, 1, 2, 37, 135, 60, 57, 129, 60, 135, 1, 0.872269
304, 6, wb, attraction, a-b-db, 9, 1, 2, 37, 135, 60, 57, 129, 60, 135, 3, 0.747886
304, 6, wb, filler, NA, 999, 999, 3, 1, 100, 103, 112, 92, 84, 61, 3, 1.11561
304, 6, wb, filler, NA, 999, 999, 3, 1, 100, 103, 112, 92, 84, 61, 1, 0.581885
304, 6, wb, attraction, a-b-da, 2, 3, 3, 2, 120, 195, 193, 119, 195, 120, 3, 1.06025
304, 6, wb, attraction, a-b-da, 2, 3, 3, 2, 120, 195, 193, 119, 195, 120, 2, 0.208558
304, 6, wb, attraction, a-b-da, 5, 2, 3, 3, 161, 88, 90, 165, 165, 90, 1, 0.541862
304, 6, wb, attraction, a-b-da, 5, 2, 3, 3, 161, 88, 90, 165, 165, 90, 2, 0.246994
304, 6, wb, catch, NA, 999, 999, 3, 4, 123, 132, 158, 157, 106, 89, 3, 0.618958
304, 6, wb, catch, NA, 999, 999, 3, 4, 123, 132, 158, 157, 106, 89, 2, 0.225409
304, 6, wb, attraction, a-b-db, 5, 2, 3, 5, 165, 90, 90, 165, 88, 161, 3, 0.653792
304, 6, wb, attraction, a-b-db, 5, 2, 3, 5, 165, 90, 90, 165, 88, 161, 1, 0.218243
304, 6, wb, attraction, a-b-db, 14, 1, 3, 6, 60, 135, 56, 125, 135, 60, 3, 0.559557
304, 6, wb, attraction, a-b-db, 14, 1, 3, 6, 60, 135, 56, 125, 135, 60, 2, 0.687928
304, 6, wb, catch, NA, 999, 999, 3, 7, 83, 112, 153, 102, 195, 120, 1, 0.60238
304, 6, wb, catch, NA, 999, 999, 3, 7, 83, 112, 153, 102, 195, 120, 3, 0.225458
304, 6, wb, filler, NA, 999, 999, 3, 8, 91, 117, 84, 187, 89, 172, 1, 0.501927
304, 6, wb, filler, NA, 999, 999, 3, 8, 91, 117, 84, 187, 89, 172, 3, 1.30527
304, 6, wb, attraction, a-b-db, 14, 3, 3, 9, 120, 195, 111, 181, 195, 120, 3, 1.95471
304, 6, wb, attraction, a-b-db, 14, 3, 3, 9, 120, 195, 111, 181, 195, 120, 1, 0.55479
304, 6, wb, attraction, a-b-db, 2, 3, 3, 10, 195, 120, 119, 193, 120, 195, 3, 0.842453
304, 6, wb, attraction, a-b-db, 2, 3, 3, 10, 195, 120, 119, 193, 120, 195, 1, 1.09552
304, 6, wb, filler, NA, 999, 999, 3, 11, 137, 167, 96, 67, 138, 128, 2, 0.769109
304, 6, wb, filler, NA, 999, 999, 3, 11, 137, 167, 96, 67, 138, 128, 1, 0.225449
304, 6, wb, attraction, a-b-da, 14, 2, 3, 12, 153, 83, 90, 165, 165, 90, 1, 0.670076
304, 6, wb, attraction, a-b-da, 14, 2, 3, 12, 153, 83, 90, 165, 165, 90, 2, 0.209762
304, 6, wb, catch, NA, 999, 999, 3, 13, 99, 96, 182, 133, 96, 159, 1, 0.622915
304, 6, wb, catch, NA, 999, 999, 3, 13, 99, 96, 182, 133, 96, 159, 2, 0.204759
304, 6, wb, attraction, a-b-da, 5, 3, 3, 14, 120, 195, 195, 120, 190, 117, 3, 0.666662
304, 6, wb, attraction, a-b-da, 5, 3, 3, 14, 120, 195, 195, 120, 190, 117, 1, 0.175133
304, 6, wb, attraction, a-b-db, 5, 1, 3, 15, 60, 135, 58, 132, 135, 60, 3, 0.877759
304, 6, wb, attraction, a-b-db, 5, 1, 3, 15, 60, 135, 58, 132, 135, 60, 2, 0.217388
304, 6, wb, attraction, a-b-da, 2, 2, 3, 16, 90, 165, 165, 90, 163, 89, 1, 1.58257
304, 6, wb, attraction, a-b-da, 2, 2, 3, 16, 90, 165, 165, 90, 163, 89, 2, 0.166045
304, 6, wb, attraction, a-b-db, 5, 3, 3, 17, 195, 120, 120, 195, 117, 190, 3, 0.789225
304, 6, wb, attraction, a-b-db, 5, 3, 3, 17, 195, 120, 120, 195, 117, 190, 1, 0.820278
304, 6, wb, filler, NA, 999, 999, 3, 18, 173, 137, 128, 65, 186, 120, 2, 0.689298
304, 6, wb, filler, NA, 999, 999, 3, 18, 173, 137, 128, 65, 186, 120, 3, 0.713239
304, 6, wb, filler, NA, 999, 999, 3, 19, 137, 163, 161, 162, 60, 148, 3, 0.925601
304, 6, wb, filler, NA, 999, 999, 3, 19, 137, 163, 161, 162, 60, 148, 2, 0.271178
304, 6, wb, attraction, a-b-db, 9, 1, 3, 20, 57, 129, 135, 60, 60, 135, 2, 0.842449
304, 6, wb, attraction, a-b-db, 9, 1, 3, 20, 57, 129, 135, 60, 60, 135, 3, 0.767419
304, 6, wb, filler, NA, 999, 999, 3, 21, 187, 90, 108, 98, 132, 169, 2, 3.4626
304, 6, wb, filler, NA, 999, 999, 3, 21, 187, 90, 108, 98, 132, 169, 3, 0.514024
304, 6, wb, attraction, a-b-db, 9, 3, 3, 22, 195, 120, 120, 195, 114, 186, 1, 1.52315
304, 6, wb, attraction, a-b-db, 9, 3, 3, 22, 195, 120, 120, 195, 114, 186, 2, 0.436657
304, 6, wb, filler, NA, 999, 999, 3, 23, 76, 116, 77, 184, 78, 90, 1, 0.761086
304, 6, wb, filler, NA, 999, 999, 3, 23, 76, 116, 77, 184, 78, 90, 3, 0.569463
304, 6, wb, filler, NA, 999, 999, 3, 24, 64, 158, 97, 90, 118, 148, 1, 0.624528
304, 6, wb, filler, NA, 999, 999, 3, 24, 64, 158, 97, 90, 118, 148, 2, 0.526299
304, 6, wb, attraction, a-b-da, 14, 3, 3, 25, 120, 195, 195, 120, 181, 111, 3, 1.27875
304, 6, wb, attraction, a-b-da, 14, 3, 3, 25, 120, 195, 195, 120, 181, 111, 2, 0.274344
304, 6, wb, attraction, a-b-da, 9, 1, 3, 26, 129, 57, 60, 135, 135, 60, 1, 0.756865
304, 6, wb, attraction, a-b-da, 9, 1, 3, 26, 129, 57, 60, 135, 135, 60, 2, 0.517401
304, 6, wb, attraction, a-b-db, 2, 2, 3, 27, 165, 90, 89, 163, 90, 165, 3, 0.662501
304, 6, wb, attraction, a-b-db, 2, 2, 3, 27, 165, 90, 89, 163, 90, 165, 1, 0.375634
304, 6, wb, attraction, a-b-da, 5, 1, 3, 28, 60, 135, 132, 58, 135, 60, 3, 0.513331
304, 6, wb, attraction, a-b-da, 5, 1, 3, 28, 60, 135, 132, 58, 135, 60, 2, 0.267833
304, 6, wb, attraction, a-b-db, 9, 2, 3, 29, 165, 90, 90, 165, 86, 157, 1, 1.18309
304, 6, wb, attraction, a-b-db, 9, 2, 3, 29, 165, 90, 90, 165, 86, 157, 3, 0.246649
304, 6, wb, attraction, a-b-db, 14, 2, 3, 30, 90, 165, 165, 90, 83, 153, 1, 0.426465
304, 6, wb, attraction, a-b-db, 14, 2, 3, 30, 90, 165, 165, 90, 83, 153, 2, 0.472343
304, 6, wb, filler, NA, 999, 999, 3, 31, 59, 104, 130, 61, 174, 112, 1, 0.587458
304, 6, wb, filler, NA, 999, 999, 3, 31, 59, 104, 130, 61, 174, 112, 3, 0.24259
304, 6, wb, attraction, a-b-da, 14, 1, 3, 32, 125, 56, 135, 60, 60, 135, 3, 1.51847
304, 6, wb, attraction, a-b-da, 14, 1, 3, 32, 125, 56, 135, 60, 60, 135, 1, 1.12057
304, 6, wb, attraction, a-b-db, 2, 1, 3, 33, 135, 60, 60, 135, 59, 134, 3, 1.00153
304, 6, wb, attraction, a-b-db, 2, 1, 3, 33, 135, 60, 60, 135, 59, 134, 1, 0.272521
304, 6, wb, filler, NA, 999, 999, 3, 34, 192, 117, 184, 121, 172, 192, 3, 0.459057
304, 6, wb, filler, NA, 999, 999, 3, 34, 192, 117, 184, 121, 172, 192, 2, 0.527516
304, 6, wb, attraction, a-b-da, 9, 3, 3, 35, 186, 114, 120, 195, 195, 120, 1, 1.76793
304, 6, wb, attraction, a-b-da, 9, 3, 3, 35, 186, 114, 120, 195, 195, 120, 3, 0.896154
304, 6, wb, attraction, a-b-da, 2, 1, 3, 36, 60, 135, 135, 60, 134, 59, 2, 0.665715
304, 6, wb, attraction, a-b-da, 2, 1, 3, 36, 60, 135, 135, 60, 134, 59, 3, 0.934154
304, 6, wb, attraction, a-b-da, 9, 2, 3, 37, 157, 86, 90, 165, 165, 90, 1, 2.71851
304, 6, wb, attraction, a-b-da, 9, 2, 3, 37, 157, 86, 90, 165, 165, 90, 3, 0.47227
304, 6, wb, attraction, a-b-db, 9, 1, 4, 1, 57, 129, 60, 135, 135, 60, 3, 1.17141
304, 6, wb, attraction, a-b-db, 9, 1, 4, 1, 57, 129, 60, 135, 135, 60, 1, 0.194979
304, 6, wb, filler, NA, 999, 999, 4, 2, 177, 193, 126, 169, 68, 147, 3, 1.45683
304, 6, wb, filler, NA, 999, 999, 4, 2, 177, 193, 126, 169, 68, 147, 1, 0.204986
304, 6, wb, attraction, a-b-da, 14, 2, 4, 3, 153, 83, 165, 90, 90, 165, 2, 0.72292
304, 6, wb, attraction, a-b-da, 14, 2, 4, 3, 153, 83, 165, 90, 90, 165, 3, 0.19664
304, 6, wb, attraction, a-b-db, 14, 2, 4, 4, 165, 90, 83, 153, 90, 165, 2, 0.86652
304, 6, wb, attraction, a-b-db, 14, 2, 4, 4, 165, 90, 83, 153, 90, 165, 1, 0.462918
304, 6, wb, filler, NA, 999, 999, 4, 5, 116, 116, 140, 57, 176, 92, 2, 2.25802
304, 6, wb, filler, NA, 999, 999, 4, 5, 116, 116, 140, 57, 176, 92, 3, 4.11794
304, 6, wb, filler, NA, 999, 999, 4, 6, 157, 165, 113, 151, 100, 124, 2, 0.709958
304, 6, wb, filler, NA, 999, 999, 4, 6, 157, 165, 113, 151, 100, 124, 1, 1.76836
304, 6, wb, filler, NA, 999, 999, 4, 7, 140, 195, 108, 167, 185, 133, 2, 1.70322
304, 6, wb, filler, NA, 999, 999, 4, 7, 140, 195, 108, 167, 185, 133, 1, 0.169933
304, 6, wb, filler, NA, 999, 999, 4, 8, 162, 97, 64, 84, 78, 151, 2, 0.633033
304, 6, wb, filler, NA, 999, 999, 4, 8, 162, 97, 64, 84, 78, 151, 3, 0.174869
304, 6, wb, attraction, a-b-da, 14, 1, 4, 9, 125, 56, 135, 60, 60, 135, 3, 1.28547
304, 6, wb, attraction, a-b-da, 14, 1, 4, 9, 125, 56, 135, 60, 60, 135, 2, 0.849428
304, 6, wb, attraction, a-b-da, 5, 2, 4, 10, 165, 90, 90, 165, 161, 88, 1, 2.04464
304, 6, wb, attraction, a-b-da, 5, 2, 4, 10, 165, 90, 90, 165, 161, 88, 2, 0.169343
304, 6, wb, attraction, a-b-db, 2, 1, 4, 11, 60, 135, 59, 134, 135, 60, 2, 0.720603
304, 6, wb, attraction, a-b-db, 2, 1, 4, 11, 60, 135, 59, 134, 135, 60, 1, 0.746322
304, 6, wb, attraction, a-b-da, 9, 3, 4, 12, 195, 120, 186, 114, 120, 195, 3, 0.625972
304, 6, wb, attraction, a-b-da, 9, 3, 4, 12, 195, 120, 186, 114, 120, 195, 2, 0.335763
304, 6, wb, attraction, a-b-db, 14, 3, 4, 13, 195, 120, 120, 195, 111, 181, 1, 0.496232
304, 6, wb, attraction, a-b-db, 14, 3, 4, 13, 195, 120, 120, 195, 111, 181, 2, 0.195465
304, 6, wb, attraction, a-b-da, 14, 3, 4, 14, 181, 111, 120, 195, 195, 120, 1, 0.46539
304, 6, wb, attraction, a-b-da, 14, 3, 4, 14, 181, 111, 120, 195, 195, 120, 2, 0.189815
304, 6, wb, attraction, a-b-da, 9, 1, 4, 15, 135, 60, 60, 135, 129, 57, 1, 0.731838
304, 6, wb, attraction, a-b-da, 9, 1, 4, 15, 135, 60, 60, 135, 129, 57, 2, 0.253442
304, 6, wb, attraction, a-b-da, 9, 2, 4, 16, 165, 90, 90, 165, 157, 86, 3, 0.409376
304, 6, wb, attraction, a-b-da, 9, 2, 4, 16, 165, 90, 90, 165, 157, 86, 2, 0.279931
304, 6, wb, attraction, a-b-db, 5, 1, 4, 17, 135, 60, 58, 132, 60, 135, 1, 0.378382
304, 6, wb, attraction, a-b-db, 5, 1, 4, 17, 135, 60, 58, 132, 60, 135, 3, 0.49826
304, 6, wb, catch, NA, 999, 999, 4, 18, 120, 195, 93, 162, 74, 121, 1, 0.316009
304, 6, wb, catch, NA, 999, 999, 4, 18, 120, 195, 93, 162, 74, 121, 2, 0.230578
304, 6, wb, filler, NA, 999, 999, 4, 19, 148, 64, 176, 61, 162, 124, 3, 0.323123
304, 6, wb, filler, NA, 999, 999, 4, 19, 148, 64, 176, 61, 162, 124, 2, 0.244952
304, 6, wb, attraction, a-b-db, 5, 2, 4, 20, 88, 161, 90, 165, 165, 90, 2, 2.1368
304, 6, wb, attraction, a-b-db, 5, 2, 4, 20, 88, 161, 90, 165, 165, 90, 1, 0.29007
304, 6, wb, filler, NA, 999, 999, 4, 21, 81, 137, 124, 141, 167, 73, 3, 1.44394
304, 6, wb, filler, NA, 999, 999, 4, 21, 81, 137, 124, 141, 167, 73, 2, 0.264952
304, 6, wb, attraction, a-b-db, 14, 1, 4, 22, 56, 125, 60, 135, 135, 60, 1, 1.30796
304, 6, wb, attraction, a-b-db, 14, 1, 4, 22, 56, 125, 60, 135, 135, 60, 3, 0.286421
304, 6, wb, attraction, a-b-da, 5, 1, 4, 23, 60, 135, 135, 60, 132, 58, 1, 0.464792
304, 6, wb, attraction, a-b-da, 5, 1, 4, 23, 60, 135, 135, 60, 132, 58, 2, 0.229199
304, 6, wb, filler, NA, 999, 999, 4, 24, 152, 96, 134, 74, 140, 129, 1, 0.425751
304, 6, wb, filler, NA, 999, 999, 4, 24, 152, 96, 134, 74, 140, 129, 2, 0.623627
304, 6, wb, catch, NA, 999, 999, 4, 25, 95, 160, 102, 93, 153, 162, 2, 2.32402
304, 6, wb, catch, NA, 999, 999, 4, 25, 95, 160, 102, 93, 153, 162, 3, 0.229274
304, 6, wb, attraction, a-b-db, 5, 3, 4, 26, 195, 120, 117, 190, 120, 195, 2, 0.777879
304, 6, wb, attraction, a-b-db, 5, 3, 4, 26, 195, 120, 117, 190, 120, 195, 1, 0.21751
304, 6, wb, attraction, a-b-da, 2, 3, 4, 27, 193, 119, 195, 120, 120, 195, 2, 0.590767
304, 6, wb, attraction, a-b-da, 2, 3, 4, 27, 193, 119, 195, 120, 120, 195, 3, 0.501962
304, 6, wb, filler, NA, 999, 999, 4, 28, 182, 139, 165, 139, 59, 77, 3, 0.967668
304, 6, wb, filler, NA, 999, 999, 4, 28, 182, 139, 165, 139, 59, 77, 1, 0.527977
304, 6, wb, attraction, a-b-da, 2, 2, 4, 29, 163, 89, 90, 165, 165, 90, 1, 1.07251
304, 6, wb, attraction, a-b-da, 2, 2, 4, 29, 163, 89, 90, 165, 165, 90, 3, 9.94813
304, 6, wb, attraction, a-b-da, 2, 1, 4, 30, 60, 135, 134, 59, 135, 60, 1, 0.776861
304, 6, wb, attraction, a-b-da, 2, 1, 4, 30, 60, 135, 134, 59, 135, 60, 2, 0.992659
304, 6, wb, attraction, a-b-db, 2, 2, 4, 31, 165, 90, 90, 165, 89, 163, 3, 0.886288
304, 6, wb, attraction, a-b-db, 2, 2, 4, 31, 165, 90, 90, 165, 89, 163, 1, 0.474003
304, 6, wb, attraction, a-b-db, 2, 3, 4, 32, 120, 195, 119, 193, 195, 120, 1, 0.77243
304, 6, wb, attraction, a-b-db, 2, 3, 4, 32, 120, 195, 119, 193, 195, 120, 2, 0.612266
304, 6, wb, attraction, a-b-db, 9, 2, 4, 33, 165, 90, 90, 165, 86, 157, 3, 2.73728
304, 6, wb, attraction, a-b-db, 9, 2, 4, 33, 165, 90, 90, 165, 86, 157, 1, 0.594378
304, 6, wb, attraction, a-b-db, 9, 3, 4, 34, 120, 195, 195, 120, 114, 186, 3, 1.88006
304, 6, wb, attraction, a-b-db, 9, 3, 4, 34, 120, 195, 195, 120, 114, 186, 2, 0.2515
304, 6, wb, attraction, a-b-da, 5, 3, 4, 35, 195, 120, 120, 195, 190, 117, 1, 1.71935
304, 6, wb, attraction, a-b-da, 5, 3, 4, 35, 195, 120, 120, 195, 190, 117, 2, 0.233469
304, 6, wb, filler, NA, 999, 999, 4, 36, 147, 133, 117, 144, 138, 94, 3, 0.662044
304, 6, wb, filler, NA, 999, 999, 4, 36, 147, 133, 117, 144, 138, 94, 1, 0.410412
304, 6, wb, catch, NA, 999, 999, 4, 37, 141, 174, 80, 115, 144, 111, 2, 0.503618
304, 6, wb, catch, NA, 999, 999, 4, 37, 141, 174, 80, 115, 144, 111, 1, 0.578794
304, 6, wb, attraction, a-b-db, 9, 1, 5, 1, 60, 135, 135, 60, 57, 129, 2, 1.84791
304, 6, wb, attraction, a-b-db, 9, 1, 5, 1, 60, 135, 135, 60, 57, 129, 1, 0.716518
304, 6, wb, filler, NA, 999, 999, 5, 2, 89, 135, 77, 109, 79, 136, 2, 1.19758
304, 6, wb, filler, NA, 999, 999, 5, 2, 89, 135, 77, 109, 79, 136, 1, 0.236494
304, 6, wb, attraction, a-b-da, 9, 1, 5, 3, 60, 135, 129, 57, 135, 60, 1, 1.30502
304, 6, wb, attraction, a-b-da, 9, 1, 5, 3, 60, 135, 129, 57, 135, 60, 3, 0.499253
304, 6, wb, filler, NA, 999, 999, 5, 4, 156, 91, 75, 93, 77, 133, 2, 0.893053
304, 6, wb, filler, NA, 999, 999, 5, 4, 156, 91, 75, 93, 77, 133, 1, 0.312037
304, 6, wb, filler, NA, 999, 999, 5, 5, 151, 147, 110, 103, 98, 181, 2, 1.32926
304, 6, wb, filler, NA, 999, 999, 5, 5, 151, 147, 110, 103, 98, 181, 1, 0.226767
304, 6, wb, filler, NA, 999, 999, 5, 6, 127, 134, 166, 150, 99, 138, 3, 1.82341
304, 6, wb, filler, NA, 999, 999, 5, 6, 127, 134, 166, 150, 99, 138, 2, 0.164809
304, 6, wb, attraction, a-b-da, 14, 3, 5, 7, 181, 111, 120, 195, 195, 120, 1, 0.739955
304, 6, wb, attraction, a-b-da, 14, 3, 5, 7, 181, 111, 120, 195, 195, 120, 2, 0.173084
304, 6, wb, attraction, a-b-db, 5, 3, 5, 8, 120, 195, 195, 120, 117, 190, 2, 0.64357
304, 6, wb, attraction, a-b-db, 5, 3, 5, 8, 120, 195, 195, 120, 117, 190, 3, 0.192704
304, 6, wb, attraction, a-b-db, 5, 2, 5, 9, 165, 90, 88, 161, 90, 165, 2, 0.526513
304, 6, wb, attraction, a-b-db, 5, 2, 5, 9, 165, 90, 88, 161, 90, 165, 1, 1.54438
304, 6, wb, filler, NA, 999, 999, 5, 10, 97, 90, 164, 135, 177, 85, 1, 0.543837
304, 6, wb, filler, NA, 999, 999, 5, 10, 97, 90, 164, 135, 177, 85, 2, 1.14509
304, 6, wb, attraction, a-b-db, 5, 1, 5, 11, 135, 60, 60, 135, 58, 132, 3, 0.808637
304, 6, wb, attraction, a-b-db, 5, 1, 5, 11, 135, 60, 60, 135, 58, 132, 1, 0.439046
304, 6, wb, catch, NA, 999, 999, 5, 12, 103, 92, 134, 121, 164, 151, 1, 0.507443
304, 6, wb, catch, NA, 999, 999, 5, 12, 103, 92, 134, 121, 164, 151, 2, 0.205875
304, 6, wb, attraction, a-b-db, 14, 1, 5, 13, 135, 60, 60, 135, 56, 125, 3, 0.747834
304, 6, wb, attraction, a-b-db, 14, 1, 5, 13, 135, 60, 60, 135, 56, 125, 1, 0.676851
304, 6, wb, attraction, a-b-da, 5, 1, 5, 14, 135, 60, 132, 58, 60, 135, 3, 0.823272
304, 6, wb, attraction, a-b-da, 5, 1, 5, 14, 135, 60, 132, 58, 60, 135, 1, 0.444978
304, 6, wb, attraction, a-b-db, 9, 3, 5, 15, 114, 186, 120, 195, 195, 120, 1, 1.12887
304, 6, wb, attraction, a-b-db, 9, 3, 5, 15, 114, 186, 120, 195, 195, 120, 3, 0.266452
304, 6, wb, attraction, a-b-da, 9, 3, 5, 16, 195, 120, 120, 195, 186, 114, 1, 1.43762
304, 6, wb, attraction, a-b-da, 9, 3, 5, 16, 195, 120, 120, 195, 186, 114, 2, 0.62642
304, 6, wb, attraction, a-b-da, 14, 1, 5, 17, 125, 56, 60, 135, 135, 60, 1, 2.35098
304, 6, wb, attraction, a-b-da, 14, 1, 5, 17, 125, 56, 60, 135, 135, 60, 3, 1.33548
304, 6, wb, attraction, a-b-db, 2, 1, 5, 18, 135, 60, 60, 135, 59, 134, 2, 0.87957
304, 6, wb, attraction, a-b-db, 2, 1, 5, 18, 135, 60, 60, 135, 59, 134, 1, 0.267263
304, 6, wb, attraction, a-b-da, 5, 2, 5, 19, 161, 88, 90, 165, 165, 90, 2, 0.566439
304, 6, wb, attraction, a-b-da, 5, 2, 5, 19, 161, 88, 90, 165, 165, 90, 1, 0.526925
304, 6, wb, catch, NA, 999, 999, 5, 20, 97, 158, 117, 78, 183, 132, 2, 1.07143
304, 6, wb, catch, NA, 999, 999, 5, 20, 97, 158, 117, 78, 183, 132, 3, 0.163039
304, 6, wb, attraction, a-b-db, 9, 2, 5, 21, 86, 157, 165, 90, 90, 165, 2, 0.626258
304, 6, wb, attraction, a-b-db, 9, 2, 5, 21, 86, 157, 165, 90, 90, 165, 3, 0.208028
304, 6, wb, filler, NA, 999, 999, 5, 22, 171, 112, 122, 108, 67, 66, 3, 0.797288
304, 6, wb, filler, NA, 999, 999, 5, 22, 171, 112, 122, 108, 67, 66, 1, 0.396383
304, 6, wb, filler, NA, 999, 999, 5, 23, 158, 170, 141, 156, 178, 98, 3, 2.01812
304, 6, wb, filler, NA, 999, 999, 5, 23, 158, 170, 141, 156, 178, 98, 1, 0.256238
304, 6, wb, filler, NA, 999, 999, 5, 24, 194, 134, 195, 151, 75, 167, 3, 0.835494
304, 6, wb, filler, NA, 999, 999, 5, 24, 194, 134, 195, 151, 75, 167, 2, 0.273074
304, 6, wb, attraction, a-b-db, 14, 2, 5, 25, 165, 90, 90, 165, 83, 153, 3, 0.883565
304, 6, wb, attraction, a-b-db, 14, 2, 5, 25, 165, 90, 90, 165, 83, 153, 2, 0.239224
304, 6, wb, attraction, a-b-db, 2, 3, 5, 26, 119, 193, 120, 195, 195, 120, 1, 0.643758
304, 6, wb, attraction, a-b-db, 2, 3, 5, 26, 119, 193, 120, 195, 195, 120, 2, 0.288919
304, 6, wb, filler, NA, 999, 999, 5, 27, 145, 107, 64, 192, 112, 180, 2, 4.37145
304, 6, wb, filler, NA, 999, 999, 5, 27, 145, 107, 64, 192, 112, 180, 3, 0.274171
304, 6, wb, attraction, a-b-da, 2, 2, 5, 28, 165, 90, 163, 89, 90, 165, 3, 0.83672
304, 6, wb, attraction, a-b-da, 2, 2, 5, 28, 165, 90, 163, 89, 90, 165, 2, 0.290257
304, 6, wb, catch, NA, 999, 999, 5, 29, 141, 174, 121, 74, 124, 131, 2, 3.42013
304, 6, wb, catch, NA, 999, 999, 5, 29, 141, 174, 121, 74, 124, 131, 1, 0.489716
304, 6, wb, attraction, a-b-da, 2, 1, 5, 30, 60, 135, 135, 60, 134, 59, 1, 0.675444
304, 6, wb, attraction, a-b-da, 2, 1, 5, 30, 60, 135, 135, 60, 134, 59, 2, 0.50326
304, 6, wb, attraction, a-b-db, 14, 3, 5, 31, 195, 120, 120, 195, 111, 181, 1, 0.641036
304, 6, wb, attraction, a-b-db, 14, 3, 5, 31, 195, 120, 120, 195, 111, 181, 3, 0.206137
304, 6, wb, attraction, a-b-da, 14, 2, 5, 32, 153, 83, 165, 90, 90, 165, 2, 0.683275
304, 6, wb, attraction, a-b-da, 14, 2, 5, 32, 153, 83, 165, 90, 90, 165, 1, 0.487101
304, 6, wb, attraction, a-b-da, 5, 3, 5, 33, 195, 120, 190, 117, 120, 195, 2, 0.409603
304, 6, wb, attraction, a-b-da, 5, 3, 5, 33, 195, 120, 190, 117, 120, 195, 1, 0.2161
304, 6, wb, attraction, a-b-da, 9, 2, 5, 34, 157, 86, 165, 90, 90, 165, 2, 1.39726
304, 6, wb, attraction, a-b-da, 9, 2, 5, 34, 157, 86, 165, 90, 90, 165, 3, 0.212137
304, 6, wb, filler, NA, 999, 999, 5, 35, 122, 164, 74, 107, 184, 187, 2, 0.769346
304, 6, wb, filler, NA, 999, 999, 5, 35, 122, 164, 74, 107, 184, 187, 3, 0.441842
304, 6, wb, attraction, a-b-db, 2, 2, 5, 36, 89, 163, 165, 90, 90, 165, 2, 1.77362
304, 6, wb, attraction, a-b-db, 2, 2, 5, 36, 89, 163, 165, 90, 90, 165, 3, 0.237081
304, 6, wb, attraction, a-b-da, 2, 3, 5, 37, 195, 120, 193, 119, 120, 195, 2, 2.36146
304, 6, wb, attraction, a-b-da, 2, 3, 5, 37, 195, 120, 193, 119, 120, 195, 3, 0.321465
304, 6, wb, filler, NA, 999, 999, 6, 1, 149, 108, 64, 129, 123, 152, 2, 0.578546
304, 6, wb, filler, NA, 999, 999, 6, 1, 149, 108, 64, 129, 123, 152, 3, 0.258514
304, 6, wb, attraction, a-b-da, 9, 1, 6, 2, 135, 60, 129, 57, 60, 135, 2, 0.925541
304, 6, wb, attraction, a-b-da, 9, 1, 6, 2, 135, 60, 129, 57, 60, 135, 1, 0.223237
304, 6, wb, filler, NA, 999, 999, 6, 3, 142, 80, 95, 167, 114, 135, 2, 0.403862
304, 6, wb, filler, NA, 999, 999, 6, 3, 142, 80, 95, 167, 114, 135, 3, 0.24228
304, 6, wb, attraction, a-b-da, 2, 2, 6, 4, 163, 89, 90, 165, 165, 90, 2, 0.46215
304, 6, wb, attraction, a-b-da, 2, 2, 6, 4, 163, 89, 90, 165, 165, 90, 1, 0.186643
304, 6, wb, attraction, a-b-db, 9, 3, 6, 5, 114, 186, 195, 120, 120, 195, 2, 0.817188
304, 6, wb, attraction, a-b-db, 9, 3, 6, 5, 114, 186, 195, 120, 120, 195, 3, 0.239554
304, 6, wb, attraction, a-b-db, 14, 2, 6, 6, 83, 153, 90, 165, 165, 90, 3, 2.05151
304, 6, wb, attraction, a-b-db, 14, 2, 6, 6, 83, 153, 90, 165, 165, 90, 1, 0.480101
304, 6, wb, filler, NA, 999, 999, 6, 7, 79, 186, 157, 88, 62, 113, 2, 0.482563
304, 6, wb, filler, NA, 999, 999, 6, 7, 79, 186, 157, 88, 62, 113, 1, 0.198415
304, 6, wb, catch, NA, 999, 999, 6, 8, 115, 80, 138, 177, 137, 118, 1, 1.18033
304, 6, wb, catch, NA, 999, 999, 6, 8, 115, 80, 138, 177, 137, 118, 2, 0.227905
304, 6, wb, attraction, a-b-da, 9, 3, 6, 9, 195, 120, 120, 195, 186, 114, 2, 0.976544
304, 6, wb, attraction, a-b-da, 9, 3, 6, 9, 195, 120, 120, 195, 186, 114, 1, 0.248487
304, 6, wb, filler, NA, 999, 999, 6, 10, 69, 148, 144, 61, 110, 66, 3, 2.57194
304, 6, wb, filler, NA, 999, 999, 6, 10, 69, 148, 144, 61, 110, 66, 2, 0.547219
304, 6, wb, attraction, a-b-db, 5, 3, 6, 11, 120, 195, 195, 120, 117, 190, 1, 2.27488
304, 6, wb, attraction, a-b-db, 5, 3, 6, 11, 120, 195, 195, 120, 117, 190, 2, 0.41419
304, 6, wb, attraction, a-b-da, 2, 1, 6, 12, 134, 59, 135, 60, 60, 135, 3, 0.86733
304, 6, wb, attraction, a-b-da, 2, 1, 6, 12, 134, 59, 135, 60, 60, 135, 1, 0.407707
304, 6, wb, filler, NA, 999, 999, 6, 13, 73, 135, 109, 188, 59, 56, 3, 0.966959
304, 6, wb, filler, NA, 999, 999, 6, 13, 73, 135, 109, 188, 59, 56, 2, 0.669188
304, 6, wb, catch, NA, 999, 999, 6, 14, 85, 110, 141, 114, 150, 165, 1, 1.00831
304, 6, wb, catch, NA, 999, 999, 6, 14, 85, 110, 141, 114, 150, 165, 3, 0.222583
304, 6, wb, attraction, a-b-da, 2, 3, 6, 15, 195, 120, 193, 119, 120, 195, 2, 0.699237
304, 6, wb, attraction, a-b-da, 2, 3, 6, 15, 195, 120, 193, 119, 120, 195, 1, 0.24792
304, 6, wb, attraction, a-b-db, 5, 1, 6, 16, 58, 132, 60, 135, 135, 60, 2, 0.5462
304, 6, wb, attraction, a-b-db, 5, 1, 6, 16, 58, 132, 60, 135, 135, 60, 3, 0.611261
304, 6, wb, attraction, a-b-da, 9, 2, 6, 17, 90, 165, 157, 86, 165, 90, 2, 0.648306
304, 6, wb, attraction, a-b-da, 9, 2, 6, 17, 90, 165, 157, 86, 165, 90, 3, 0.23743
304, 6, wb, attraction, a-b-da, 5, 2, 6, 18, 165, 90, 161, 88, 90, 165, 2, 0.697846
304, 6, wb, attraction, a-b-da, 5, 2, 6, 18, 165, 90, 161, 88, 90, 165, 1, 0.549017
304, 6, wb, attraction, a-b-db, 5, 2, 6, 19, 165, 90, 88, 161, 90, 165, 2, 0.860717
304, 6, wb, attraction, a-b-db, 5, 2, 6, 19, 165, 90, 88, 161, 90, 165, 1, 0.257084
304, 6, wb, filler, NA, 999, 999, 6, 20, 186, 193, 130, 189, 118, 141, 3, 0.932327
304, 6, wb, filler, NA, 999, 999, 6, 20, 186, 193, 130, 189, 118, 141, 1, 0.318034
304, 6, wb, attraction, a-b-db, 9, 2, 6, 21, 165, 90, 90, 165, 86, 157, 1, 2.67119
304, 6, wb, attraction, a-b-db, 9, 2, 6, 21, 165, 90, 90, 165, 86, 157, 3, 0.426471
304, 6, wb, attraction, a-b-da, 14, 2, 6, 22, 90, 165, 153, 83, 165, 90, 3, 2.95885
304, 6, wb, attraction, a-b-da, 14, 2, 6, 22, 90, 165, 153, 83, 165, 90, 1, 0.214578
304, 6, wb, attraction, a-b-db, 9, 1, 6, 23, 57, 129, 60, 135, 135, 60, 1, 1.69179
304, 6, wb, attraction, a-b-db, 9, 1, 6, 23, 57, 129, 60, 135, 135, 60, 3, 0.222448
304, 6, wb, catch, NA, 999, 999, 6, 24, 162, 153, 149, 106, 82, 113, 3, 1.16368
304, 6, wb, catch, NA, 999, 999, 6, 24, 162, 153, 149, 106, 82, 113, 1, 0.947975
304, 6, wb, attraction, a-b-da, 5, 1, 6, 25, 135, 60, 132, 58, 60, 135, 3, 1.15569
304, 6, wb, attraction, a-b-da, 5, 1, 6, 25, 135, 60, 132, 58, 60, 135, 1, 0.252018
304, 6, wb, filler, NA, 999, 999, 6, 26, 153, 186, 177, 116, 134, 116, 3, 0.631778
304, 6, wb, filler, NA, 999, 999, 6, 26, 153, 186, 177, 116, 134, 116, 1, 0.509544
304, 6, wb, attraction, a-b-db, 14, 1, 6, 27, 56, 125, 60, 135, 135, 60, 1, 0.870719
304, 6, wb, attraction, a-b-db, 14, 1, 6, 27, 56, 125, 60, 135, 135, 60, 3, 0.882445
304, 6, wb, attraction, a-b-da, 14, 3, 6, 28, 120, 195, 195, 120, 181, 111, 1, 0.652752
304, 6, wb, attraction, a-b-da, 14, 3, 6, 28, 120, 195, 195, 120, 181, 111, 3, 0.225888
304, 6, wb, attraction, a-b-db, 2, 2, 6, 29, 90, 165, 165, 90, 89, 163, 1, 1.33436
304, 6, wb, attraction, a-b-db, 2, 2, 6, 29, 90, 165, 165, 90, 89, 163, 3, 0.199893
304, 6, wb, filler, NA, 999, 999, 6, 30, 127, 56, 124, 171, 74, 155, 1, 0.773818
304, 6, wb, filler, NA, 999, 999, 6, 30, 127, 56, 124, 171, 74, 155, 2, 0.221613
304, 6, wb, attraction, a-b-db, 14, 3, 6, 31, 111, 181, 120, 195, 195, 120, 1, 1.45877
304, 6, wb, attraction, a-b-db, 14, 3, 6, 31, 111, 181, 120, 195, 195, 120, 3, 0.366833
304, 6, wb, attraction, a-b-db, 2, 1, 6, 32, 60, 135, 59, 134, 135, 60, 1, 2.46206
304, 6, wb, attraction, a-b-db, 2, 1, 6, 32, 60, 135, 59, 134, 135, 60, 3, 0.233979
304, 6, wb, attraction, a-b-da, 14, 1, 6, 33, 125, 56, 135, 60, 60, 135, 3, 2.05449
304, 6, wb, attraction, a-b-da, 14, 1, 6, 33, 125, 56, 135, 60, 60, 135, 1, 0.314492
304, 6, wb, attraction, a-b-db, 2, 3, 6, 34, 120, 195, 195, 120, 119, 193, 1, 3.22762
304, 6, wb, attraction, a-b-db, 2, 3, 6, 34, 120, 195, 195, 120, 119, 193, 3, 0.176562
304, 6, wb, attraction, a-b-da, 5, 3, 6, 35, 195, 120, 190, 117, 120, 195, 2, 0.687123
304, 6, wb, attraction, a-b-da, 5, 3, 6, 35, 195, 120, 190, 117, 120, 195, 1, 0.162242
304, 6, wb, filler, NA, 999, 999, 6, 36, 150, 67, 59, 68, 80, 156, 2, 0.57745
304, 6, wb, filler, NA, 999, 999, 6, 36, 150, 67, 59, 68, 80, 156, 3, 0.569208
304, 6, wb, filler, NA, 999, 999, 6, 37, 82, 145, 144, 186, 152, 89, 1, 0.872321
304, 6, wb, filler, NA, 999, 999, 6, 37, 82, 145, 144, 186, 152, 89, 3, 0.268078
304, 6, wb, attraction, a-b-da, 2, 3, 7, 1, 120, 195, 195, 120, 193, 119, 1, 2.87921
304, 6, wb, attraction, a-b-da, 2, 3, 7, 1, 120, 195, 195, 120, 193, 119, 3, 0.17035
304, 6, wb, attraction, a-b-da, 5, 1, 7, 2, 60, 135, 135, 60, 132, 58, 1, 0.553541
304, 6, wb, attraction, a-b-da, 5, 1, 7, 2, 60, 135, 135, 60, 132, 58, 3, 0.53
304, 6, wb, attraction, a-b-da, 14, 1, 7, 3, 60, 135, 135, 60, 125, 56, 2, 1.2024
304, 6, wb, attraction, a-b-da, 14, 1, 7, 3, 60, 135, 135, 60, 125, 56, 3, 0.913452
304, 6, wb, catch, NA, 999, 999, 7, 4, 159, 96, 163, 152, 69, 126, 3, 0.85046
304, 6, wb, catch, NA, 999, 999, 7, 4, 159, 96, 163, 152, 69, 126, 2, 0.84742
304, 6, wb, filler, NA, 999, 999, 7, 5, 129, 155, 183, 125, 183, 159, 1, 1.89116
304, 6, wb, filler, NA, 999, 999, 7, 5, 129, 155, 183, 125, 183, 159, 3, 1.51778
304, 6, wb, filler, NA, 999, 999, 7, 6, 152, 176, 117, 73, 175, 192, 2, 0.622588
304, 6, wb, filler, NA, 999, 999, 7, 6, 152, 176, 117, 73, 175, 192, 3, 0.172368
304, 6, wb, catch, NA, 999, 999, 7, 7, 134, 181, 90, 105, 115, 140, 2, 0.675632
304, 6, wb, catch, NA, 999, 999, 7, 7, 134, 181, 90, 105, 115, 140, 1, 0.175297
304, 6, wb, attraction, a-b-db, 14, 3, 7, 8, 120, 195, 195, 120, 111, 181, 3, 1.60589
304, 6, wb, attraction, a-b-db, 14, 3, 7, 8, 120, 195, 195, 120, 111, 181, 1, 0.388103
304, 6, wb, filler, NA, 999, 999, 7, 9, 60, 86, 158, 132, 57, 160, 1, 0.786542
304, 6, wb, filler, NA, 999, 999, 7, 9, 60, 86, 158, 132, 57, 160, 2, 0.202271
304, 6, wb, filler, NA, 999, 999, 7, 10, 87, 163, 104, 188, 141, 158, 1, 3.20819
304, 6, wb, filler, NA, 999, 999, 7, 10, 87, 163, 104, 188, 141, 158, 2, 0.245755
304, 6, wb, attraction, a-b-da, 5, 3, 7, 11, 190, 117, 120, 195, 195, 120, 2, 1.80958
304, 6, wb, attraction, a-b-da, 5, 3, 7, 11, 190, 117, 120, 195, 195, 120, 3, 0.511755
304, 6, wb, attraction, a-b-da, 9, 3, 7, 12, 186, 114, 195, 120, 120, 195, 3, 1.43279
304, 6, wb, attraction, a-b-da, 9, 3, 7, 12, 186, 114, 195, 120, 120, 195, 1, 0.510482
304, 6, wb, filler, NA, 999, 999, 7, 13, 90, 151, 191, 195, 189, 147, 1, 1.28741
304, 6, wb, filler, NA, 999, 999, 7, 13, 90, 151, 191, 195, 189, 147, 2, 0.178359
304, 6, wb, attraction, a-b-da, 2, 2, 7, 14, 165, 90, 163, 89, 90, 165, 3, 0.712909
304, 6, wb, attraction, a-b-da, 2, 2, 7, 14, 165, 90, 163, 89, 90, 165, 1, 0.195357
304, 6, wb, filler, NA, 999, 999, 7, 15, 180, 166, 59, 141, 141, 99, 2, 0.569251
304, 6, wb, filler, NA, 999, 999, 7, 15, 180, 166, 59, 141, 141, 99, 1, 0.249646
304, 6, wb, attraction, a-b-db, 2, 3, 7, 16, 120, 195, 195, 120, 119, 193, 2, 0.565498
304, 6, wb, attraction, a-b-db, 2, 3, 7, 16, 120, 195, 195, 120, 119, 193, 1, 0.245989
304, 6, wb, attraction, a-b-db, 2, 1, 7, 17, 59, 134, 135, 60, 60, 135, 2, 0.905904
304, 6, wb, attraction, a-b-db, 2, 1, 7, 17, 59, 134, 135, 60, 60, 135, 3, 1.06823
304, 6, wb, attraction, a-b-db, 5, 3, 7, 18, 117, 190, 195, 120, 120, 195, 1, 1.84713
304, 6, wb, attraction, a-b-db, 5, 3, 7, 18, 117, 190, 195, 120, 120, 195, 3, 0.251965
304, 6, wb, filler, NA, 999, 999, 7, 19, 152, 128, 78, 108, 118, 127, 2, 1.65573
304, 6, wb, filler, NA, 999, 999, 7, 19, 152, 128, 78, 108, 118, 127, 1, 0.228049
304, 6, wb, filler, NA, 999, 999, 7, 20, 72, 79, 104, 143, 139, 72, 1, 1.64048
304, 6, wb, filler, NA, 999, 999, 7, 20, 72, 79, 104, 143, 139, 72, 2, 0.565221
304, 6, wb, attraction, a-b-db, 9, 2, 7, 21, 86, 157, 90, 165, 165, 90, 1, 0.700244
304, 6, wb, attraction, a-b-db, 9, 2, 7, 21, 86, 157, 90, 165, 165, 90, 3, 0.24744
304, 6, wb, attraction, a-b-da, 9, 1, 7, 22, 60, 135, 129, 57, 135, 60, 2, 0.659235
304, 6, wb, attraction, a-b-da, 9, 1, 7, 22, 60, 135, 129, 57, 135, 60, 1, 0.2477
304, 6, wb, attraction, a-b-da, 5, 2, 7, 23, 161, 88, 90, 165, 165, 90, 3, 1.11558
304, 6, wb, attraction, a-b-da, 5, 2, 7, 23, 161, 88, 90, 165, 165, 90, 1, 0.349836
304, 6, wb, attraction, a-b-db, 14, 2, 7, 24, 83, 153, 90, 165, 165, 90, 3, 3.02972
304, 6, wb, attraction, a-b-db, 14, 2, 7, 24, 83, 153, 90, 165, 165, 90, 2, 0.258673
304, 6, wb, attraction, a-b-da, 14, 3, 7, 25, 181, 111, 195, 120, 120, 195, 2, 1.86986
304, 6, wb, attraction, a-b-da, 14, 3, 7, 25, 181, 111, 195, 120, 120, 195, 3, 0.202008
304, 6, wb, attraction, a-b-db, 2, 2, 7, 26, 90, 165, 89, 163, 165, 90, 1, 1.2159
304, 6, wb, attraction, a-b-db, 2, 2, 7, 26, 90, 165, 89, 163, 165, 90, 3, 0.60616
304, 6, wb, attraction, a-b-db, 14, 1, 7, 27, 56, 125, 135, 60, 60, 135, 2, 0.611159
304, 6, wb, attraction, a-b-db, 14, 1, 7, 27, 56, 125, 135, 60, 60, 135, 1, 0.977695
304, 6, wb, attraction, a-b-db, 9, 1, 7, 28, 60, 135, 57, 129, 135, 60, 2, 2.18403
304, 6, wb, attraction, a-b-db, 9, 1, 7, 28, 60, 135, 57, 129, 135, 60, 3, 0.663368
304, 6, wb, attraction, a-b-db, 5, 1, 7, 29, 60, 135, 58, 132, 135, 60, 2, 1.31429
304, 6, wb, attraction, a-b-db, 5, 1, 7, 29, 60, 135, 58, 132, 135, 60, 3, 0.91652
304, 6, wb, filler, NA, 999, 999, 7, 30, 117, 89, 134, 56, 64, 188, 2, 4.82961
304, 6, wb, filler, NA, 999, 999, 7, 30, 117, 89, 134, 56, 64, 188, 3, 0.698101
304, 6, wb, filler, NA, 999, 999, 7, 31, 60, 123, 193, 63, 184, 95, 1, 1.45179
304, 6, wb, filler, NA, 999, 999, 7, 31, 60, 123, 193, 63, 184, 95, 3, 0.432623
304, 6, wb, catch, NA, 999, 999, 7, 32, 98, 157, 159, 156, 108, 87, 3, 1.18102
304, 6, wb, catch, NA, 999, 999, 7, 32, 98, 157, 159, 156, 108, 87, 2, 0.260668
304, 6, wb, attraction, a-b-db, 5, 2, 7, 33, 90, 165, 165, 90, 88, 161, 3, 1.28791
304, 6, wb, attraction, a-b-db, 5, 2, 7, 33, 90, 165, 165, 90, 88, 161, 2, 1.69076
304, 6, wb, attraction, a-b-da, 9, 2, 7, 34, 157, 86, 165, 90, 90, 165, 1, 1.70008
304, 6, wb, attraction, a-b-da, 9, 2, 7, 34, 157, 86, 165, 90, 90, 165, 2, 0.206885
304, 6, wb, attraction, a-b-da, 2, 1, 7, 35, 135, 60, 134, 59, 60, 135, 3, 0.836135
304, 6, wb, attraction, a-b-da, 2, 1, 7, 35, 135, 60, 134, 59, 60, 135, 1, 0.561788
304, 6, wb, attraction, a-b-da, 14, 2, 7, 36, 165, 90, 153, 83, 90, 165, 2, 1.17694
304, 6, wb, attraction, a-b-da, 14, 2, 7, 36, 165, 90, 153, 83, 90, 165, 3, 0.184539
304, 6, wb, attraction, a-b-db, 9, 3, 7, 37, 195, 120, 114, 186, 120, 195, 2, 2.64711
304, 6, wb, attraction, a-b-db, 9, 3, 7, 37, 195, 120, 114, 186, 120, 195, 1, 0.163577
304, 6, wb, attraction, a-b-da, 9, 3, 8, 1, 120, 195, 195, 120, 186, 114, 2, 2.55485
304, 6, wb, attraction, a-b-da, 9, 3, 8, 1, 120, 195, 195, 120, 186, 114, 3, 0.162653
304, 6, wb, attraction, a-b-db, 14, 3, 8, 2, 195, 120, 111, 181, 120, 195, 2, 0.609846
304, 6, wb, attraction, a-b-db, 14, 3, 8, 2, 195, 120, 111, 181, 120, 195, 1, 0.440279
304, 6, wb, attraction, a-b-db, 5, 3, 8, 3, 120, 195, 195, 120, 117, 190, 2, 0.372237
304, 6, wb, attraction, a-b-db, 5, 3, 8, 3, 120, 195, 195, 120, 117, 190, 1, 0.612035
304, 6, wb, attraction, a-b-da, 2, 3, 8, 4, 120, 195, 195, 120, 193, 119, 2, 0.46498
304, 6, wb, attraction, a-b-da, 2, 3, 8, 4, 120, 195, 195, 120, 193, 119, 3, 0.44558
304, 6, wb, filler, NA, 999, 999, 8, 5, 139, 103, 100, 128, 66, 94, 3, 0.785439
304, 6, wb, filler, NA, 999, 999, 8, 5, 139, 103, 100, 128, 66, 94, 2, 0.561074
304, 6, wb, filler, NA, 999, 999, 8, 6, 60, 140, 121, 180, 185, 87, 3, 0.840119
304, 6, wb, filler, NA, 999, 999, 8, 6, 60, 140, 121, 180, 185, 87, 1, 0.309202
304, 6, wb, attraction, a-b-db, 5, 1, 8, 7, 60, 135, 58, 132, 135, 60, 2, 1.98237
304, 6, wb, attraction, a-b-db, 5, 1, 8, 7, 60, 135, 58, 132, 135, 60, 1, 0.277738
304, 6, wb, catch, NA, 999, 999, 8, 8, 133, 182, 125, 70, 143, 112, 2, 0.560278
304, 6, wb, catch, NA, 999, 999, 8, 8, 133, 182, 125, 70, 143, 112, 1, 0.184741
304, 6, wb, filler, NA, 999, 999, 8, 9, 177, 151, 112, 142, 180, 97, 2, 0.615282
304, 6, wb, filler, NA, 999, 999, 8, 9, 177, 151, 112, 142, 180, 97, 3, 0.213729
304, 6, wb, attraction, a-b-da, 9, 2, 8, 10, 90, 165, 157, 86, 165, 90, 2, 0.514851
304, 6, wb, attraction, a-b-da, 9, 2, 8, 10, 90, 165, 157, 86, 165, 90, 1, 0.245379
304, 6, wb, filler, NA, 999, 999, 8, 11, 83, 161, 101, 121, 57, 143, 3, 1.5534
304, 6, wb, filler, NA, 999, 999, 8, 11, 83, 161, 101, 121, 57, 143, 2, 0.266124
304, 6, wb, attraction, a-b-db, 14, 2, 8, 12, 83, 153, 165, 90, 90, 165, 1, 0.86931
304, 6, wb, attraction, a-b-db, 14, 2, 8, 12, 83, 153, 165, 90, 90, 165, 3, 0.449634
304, 6, wb, attraction, a-b-da, 5, 1, 8, 13, 60, 135, 132, 58, 135, 60, 1, 0.533587
304, 6, wb, attraction, a-b-da, 5, 1, 8, 13, 60, 135, 132, 58, 135, 60, 3, 0.351308
304, 6, wb, attraction, a-b-db, 5, 2, 8, 14, 88, 161, 165, 90, 90, 165, 1, 0.519109
304, 6, wb, attraction, a-b-db, 5, 2, 8, 14, 88, 161, 165, 90, 90, 165, 3, 0.393568
304, 6, wb, attraction, a-b-da, 14, 2, 8, 15, 153, 83, 165, 90, 90, 165, 3, 0.871368
304, 6, wb, attraction, a-b-da, 14, 2, 8, 15, 153, 83, 165, 90, 90, 165, 1, 0.283159
304, 6, wb, attraction, a-b-db, 9, 2, 8, 16, 90, 165, 165, 90, 86, 157, 2, 0.461569
304, 6, wb, attraction, a-b-db, 9, 2, 8, 16, 90, 165, 165, 90, 86, 157, 1, 0.242106
304, 6, wb, attraction, a-b-db, 9, 3, 8, 17, 195, 120, 114, 186, 120, 195, 3, 0.430003
304, 6, wb, attraction, a-b-db, 9, 3, 8, 17, 195, 120, 114, 186, 120, 195, 2, 0.26791
304, 6, wb, attraction, a-b-db, 2, 2, 8, 18, 89, 163, 90, 165, 165, 90, 1, 0.559005
304, 6, wb, attraction, a-b-db, 2, 2, 8, 18, 89, 163, 90, 165, 165, 90, 3, 0.319434
304, 6, wb, attraction, a-b-db, 2, 1, 8, 19, 60, 135, 135, 60, 59, 134, 1, 0.440581
304, 6, wb, attraction, a-b-db, 2, 1, 8, 19, 60, 135, 135, 60, 59, 134, 2, 0.2138
304, 6, wb, filler, NA, 999, 999, 8, 20, 100, 83, 189, 81, 192, 177, 1, 0.499076
304, 6, wb, filler, NA, 999, 999, 8, 20, 100, 83, 189, 81, 192, 177, 3, 0.638243
304, 6, wb, attraction, a-b-da, 5, 3, 8, 21, 190, 117, 195, 120, 120, 195, 3, 0.610666
304, 6, wb, attraction, a-b-da, 5, 3, 8, 21, 190, 117, 195, 120, 120, 195, 1, 0.281001
304, 6, wb, attraction, a-b-da, 14, 3, 8, 22, 195, 120, 181, 111, 120, 195, 3, 0.467597
304, 6, wb, attraction, a-b-da, 14, 3, 8, 22, 195, 120, 181, 111, 120, 195, 1, 0.576026
304, 6, wb, catch, NA, 999, 999, 8, 23, 129, 186, 74, 121, 118, 137, 2, 0.630449
304, 6, wb, catch, NA, 999, 999, 8, 23, 129, 186, 74, 121, 118, 137, 1, 0.220244
304, 6, wb, filler, NA, 999, 999, 8, 24, 166, 166, 152, 148, 93, 107, 3, 0.657444
304, 6, wb, filler, NA, 999, 999, 8, 24, 166, 166, 152, 148, 93, 107, 1, 0.24586
304, 6, wb, attraction, a-b-da, 2, 1, 8, 25, 135, 60, 134, 59, 60, 135, 1, 0.5777
304, 6, wb, attraction, a-b-da, 2, 1, 8, 25, 135, 60, 134, 59, 60, 135, 3, 0.209594
304, 6, wb, filler, NA, 999, 999, 8, 26, 165, 193, 166, 88, 87, 120, 3, 0.718817
304, 6, wb, filler, NA, 999, 999, 8, 26, 165, 193, 166, 88, 87, 120, 1, 0.241197
304, 6, wb, attraction, a-b-db, 2, 3, 8, 27, 119, 193, 195, 120, 120, 195, 3, 1.06103
304, 6, wb, attraction, a-b-db, 2, 3, 8, 27, 119, 193, 195, 120, 120, 195, 1, 0.193498
304, 6, wb, filler, NA, 999, 999, 8, 28, 71, 91, 179, 176, 60, 86, 3, 0.503152
304, 6, wb, filler, NA, 999, 999, 8, 28, 71, 91, 179, 176, 60, 86, 2, 0.474339
304, 6, wb, catch, NA, 999, 999, 8, 29, 105, 150, 148, 167, 94, 101, 3, 0.852766
304, 6, wb, catch, NA, 999, 999, 8, 29, 105, 150, 148, 167, 94, 101, 2, 0.577884
304, 6, wb, attraction, a-b-da, 9, 1, 8, 30, 60, 135, 135, 60, 129, 57, 1, 0.63226
304, 6, wb, attraction, a-b-da, 9, 1, 8, 30, 60, 135, 135, 60, 129, 57, 3, 0.246213
304, 6, wb, attraction, a-b-db, 14, 1, 8, 31, 60, 135, 135, 60, 56, 125, 2, 0.986038
304, 6, wb, attraction, a-b-db, 14, 1, 8, 31, 60, 135, 135, 60, 56, 125, 1, 0.497737
304, 6, wb, attraction, a-b-da, 2, 2, 8, 32, 90, 165, 163, 89, 165, 90, 2, 1.60342
304, 6, wb, attraction, a-b-da, 2, 2, 8, 32, 90, 165, 163, 89, 165, 90, 3, 0.538217
304, 6, wb, filler, NA, 999, 999, 8, 33, 129, 96, 73, 83, 152, 132, 2, 0.650661
304, 6, wb, filler, NA, 999, 999, 8, 33, 129, 96, 73, 83, 152, 132, 3, 0.711757
304, 6, wb, attraction, a-b-db, 9, 1, 8, 34, 60, 135, 57, 129, 135, 60, 2, 0.888806
304, 6, wb, attraction, a-b-db, 9, 1, 8, 34, 60, 135, 57, 129, 135, 60, 3, 1.22793
304, 6, wb, filler, NA, 999, 999, 8, 35, 193, 109, 69, 127, 124, 66, 3, 2.86412
304, 6, wb, filler, NA, 999, 999, 8, 35, 193, 109, 69, 127, 124, 66, 1, 0.251776
304, 6, wb, attraction, a-b-da, 14, 1, 8, 36, 125, 56, 135, 60, 60, 135, 2, 0.687624
304, 6, wb, attraction, a-b-da, 14, 1, 8, 36, 125, 56, 135, 60, 60, 135, 3, 0.202695
304, 6, wb, attraction, a-b-da, 5, 2, 8, 37, 161, 88, 165, 90, 90, 165, 1, 0.56861
304, 6, wb, attraction, a-b-da, 5, 2, 8, 37, 161, 88, 165, 90, 90, 165, 3, 0.201199
