sub_n, computer_n, bw_cond, effect, set, distance, diag, block_n, trial_n, h1, w1, h2, w2, h3, w3, choice, rt 
346, 6, wb, practice, NA, 999, 999, 0, 1, 102, 108, 155, 79, 56, 108, 3, 4.76758
346, 6, wb, practice, NA, 999, 999, 0, 1, 102, 108, 155, 79, 56, 108, 2, 2.868
346, 6, wb, practice, NA, 999, 999, 0, 2, 187, 162, 89, 84, 182, 76, 2, 3.5006
346, 6, wb, practice, NA, 999, 999, 0, 2, 187, 162, 89, 84, 182, 76, 1, 1.90959
346, 6, wb, practice, NA, 999, 999, 0, 3, 69, 127, 139, 144, 174, 99, 1, 2.7233
346, 6, wb, practice, NA, 999, 999, 0, 3, 69, 127, 139, 144, 174, 99, 2, 1.14974
346, 6, wb, attraction, a-b-da, 9, 2, 1, 1, 90, 165, 165, 90, 157, 86, 3, 4.38633
346, 6, wb, attraction, a-b-da, 9, 2, 1, 1, 90, 165, 165, 90, 157, 86, 1, 3.56087
346, 6, wb, filler, NA, 999, 999, 1, 2, 81, 81, 120, 82, 131, 169, 1, 1.63918
346, 6, wb, filler, NA, 999, 999, 1, 2, 81, 81, 120, 82, 131, 169, 3, 1.03581
346, 6, wb, attraction, a-b-da, 2, 3, 1, 3, 195, 120, 120, 195, 193, 119, 2, 3.95223
346, 6, wb, attraction, a-b-da, 2, 3, 1, 3, 195, 120, 120, 195, 193, 119, 1, 1.80835
346, 6, wb, catch, NA, 999, 999, 1, 4, 125, 130, 169, 146, 126, 69, 3, 2.19689
346, 6, wb, catch, NA, 999, 999, 1, 4, 125, 130, 169, 146, 126, 69, 2, 0.835474
346, 6, wb, filler, NA, 999, 999, 1, 5, 77, 67, 195, 113, 163, 94, 1, 0.943797
346, 6, wb, filler, NA, 999, 999, 1, 5, 77, 67, 195, 113, 163, 94, 2, 1.00088
346, 6, wb, filler, NA, 999, 999, 1, 6, 116, 190, 144, 125, 59, 175, 3, 1.43845
346, 6, wb, filler, NA, 999, 999, 1, 6, 116, 190, 144, 125, 59, 175, 1, 1.8033
346, 6, wb, attraction, a-b-da, 9, 1, 1, 7, 135, 60, 129, 57, 60, 135, 2, 2.5528
346, 6, wb, attraction, a-b-da, 9, 1, 1, 7, 135, 60, 129, 57, 60, 135, 3, 1.51329
346, 6, wb, attraction, a-b-db, 2, 1, 1, 8, 135, 60, 59, 134, 60, 135, 2, 1.218
346, 6, wb, attraction, a-b-db, 2, 1, 1, 8, 135, 60, 59, 134, 60, 135, 1, 1.53639
346, 6, wb, filler, NA, 999, 999, 1, 9, 128, 58, 156, 161, 63, 117, 3, 1.34446
346, 6, wb, filler, NA, 999, 999, 1, 9, 128, 58, 156, 161, 63, 117, 2, 0.681286
346, 6, wb, attraction, a-b-db, 9, 2, 1, 10, 86, 157, 90, 165, 165, 90, 2, 1.73184
346, 6, wb, attraction, a-b-db, 9, 2, 1, 10, 86, 157, 90, 165, 165, 90, 3, 1.65316
346, 6, wb, attraction, a-b-db, 9, 3, 1, 11, 195, 120, 120, 195, 114, 186, 2, 2.16861
346, 6, wb, attraction, a-b-db, 9, 3, 1, 11, 195, 120, 120, 195, 114, 186, 1, 1.03256
346, 6, wb, attraction, a-b-da, 5, 1, 1, 12, 132, 58, 60, 135, 135, 60, 1, 1.46882
346, 6, wb, attraction, a-b-da, 5, 1, 1, 12, 132, 58, 60, 135, 135, 60, 2, 1.40115
346, 6, wb, filler, NA, 999, 999, 1, 13, 138, 188, 79, 73, 131, 193, 2, 1.11049
346, 6, wb, filler, NA, 999, 999, 1, 13, 138, 188, 79, 73, 131, 193, 3, 1.16085
346, 6, wb, attraction, a-b-da, 2, 2, 1, 14, 165, 90, 163, 89, 90, 165, 3, 2.12774
346, 6, wb, attraction, a-b-da, 2, 2, 1, 14, 165, 90, 163, 89, 90, 165, 1, 0.896979
346, 6, wb, filler, NA, 999, 999, 1, 15, 175, 66, 152, 89, 187, 111, 1, 1.13867
346, 6, wb, filler, NA, 999, 999, 1, 15, 175, 66, 152, 89, 187, 111, 3, 0.803598
346, 6, wb, attraction, a-b-da, 5, 3, 1, 16, 190, 117, 195, 120, 120, 195, 2, 2.62536
346, 6, wb, attraction, a-b-da, 5, 3, 1, 16, 190, 117, 195, 120, 120, 195, 3, 0.350408
346, 6, wb, filler, NA, 999, 999, 1, 17, 195, 161, 190, 96, 195, 56, 3, 2.43842
346, 6, wb, filler, NA, 999, 999, 1, 17, 195, 161, 190, 96, 195, 56, 1, 0.466802
346, 6, wb, attraction, a-b-db, 14, 3, 1, 18, 120, 195, 195, 120, 111, 181, 2, 4.12599
346, 6, wb, attraction, a-b-db, 14, 3, 1, 18, 120, 195, 195, 120, 111, 181, 1, 0.574649
346, 6, wb, attraction, a-b-da, 14, 2, 1, 19, 165, 90, 153, 83, 90, 165, 2, 1.79709
346, 6, wb, attraction, a-b-da, 14, 2, 1, 19, 165, 90, 153, 83, 90, 165, 1, 0.89977
346, 6, wb, attraction, a-b-da, 9, 3, 1, 20, 186, 114, 120, 195, 195, 120, 2, 2.28546
346, 6, wb, attraction, a-b-da, 9, 3, 1, 20, 186, 114, 120, 195, 195, 120, 3, 0.896701
346, 6, wb, attraction, a-b-db, 2, 2, 1, 21, 89, 163, 90, 165, 165, 90, 2, 4.00249
346, 6, wb, attraction, a-b-db, 2, 2, 1, 21, 89, 163, 90, 165, 165, 90, 3, 1.36853
346, 6, wb, attraction, a-b-da, 2, 1, 1, 22, 134, 59, 135, 60, 60, 135, 2, 0.879266
346, 6, wb, attraction, a-b-da, 2, 1, 1, 22, 134, 59, 135, 60, 60, 135, 3, 0.979093
346, 6, wb, attraction, a-b-db, 5, 1, 1, 23, 60, 135, 58, 132, 135, 60, 2, 1.55328
346, 6, wb, attraction, a-b-db, 5, 1, 1, 23, 60, 135, 58, 132, 135, 60, 3, 0.754189
346, 6, wb, catch, NA, 999, 999, 1, 24, 152, 103, 77, 118, 173, 142, 2, 1.08181
346, 6, wb, catch, NA, 999, 999, 1, 24, 152, 103, 77, 118, 173, 142, 3, 0.621512
346, 6, wb, attraction, a-b-db, 5, 2, 1, 25, 165, 90, 88, 161, 90, 165, 3, 1.21058
346, 6, wb, attraction, a-b-db, 5, 2, 1, 25, 165, 90, 88, 161, 90, 165, 1, 1.05701
346, 6, wb, attraction, a-b-db, 5, 3, 1, 26, 120, 195, 117, 190, 195, 120, 2, 0.675768
346, 6, wb, attraction, a-b-db, 5, 3, 1, 26, 120, 195, 117, 190, 195, 120, 3, 1.23159
346, 6, wb, attraction, a-b-da, 5, 2, 1, 27, 161, 88, 165, 90, 90, 165, 2, 1.42776
346, 6, wb, attraction, a-b-da, 5, 2, 1, 27, 161, 88, 165, 90, 90, 165, 3, 0.897323
346, 6, wb, attraction, a-b-da, 14, 1, 1, 28, 60, 135, 135, 60, 125, 56, 3, 1.11493
346, 6, wb, attraction, a-b-da, 14, 1, 1, 28, 60, 135, 135, 60, 125, 56, 1, 0.781237
346, 6, wb, attraction, a-b-db, 9, 1, 1, 29, 57, 129, 135, 60, 60, 135, 2, 1.02763
346, 6, wb, attraction, a-b-db, 9, 1, 1, 29, 57, 129, 135, 60, 60, 135, 1, 0.80923
346, 6, wb, attraction, a-b-db, 2, 3, 1, 30, 120, 195, 119, 193, 195, 120, 3, 4.87834
346, 6, wb, attraction, a-b-db, 2, 3, 1, 30, 120, 195, 119, 193, 195, 120, 2, 1.16876
346, 6, wb, filler, NA, 999, 999, 1, 31, 126, 122, 171, 126, 174, 128, 1, 0.775643
346, 6, wb, filler, NA, 999, 999, 1, 31, 126, 122, 171, 126, 174, 128, 3, 1.23132
346, 6, wb, attraction, a-b-db, 14, 2, 1, 32, 90, 165, 165, 90, 83, 153, 3, 1.1716
346, 6, wb, attraction, a-b-db, 14, 2, 1, 32, 90, 165, 165, 90, 83, 153, 2, 0.667231
346, 6, wb, attraction, a-b-da, 14, 3, 1, 33, 120, 195, 195, 120, 181, 111, 1, 2.55027
346, 6, wb, attraction, a-b-da, 14, 3, 1, 33, 120, 195, 195, 120, 181, 111, 3, 0.958949
346, 6, wb, filler, NA, 999, 999, 1, 34, 130, 118, 172, 169, 73, 72, 3, 1.45369
346, 6, wb, filler, NA, 999, 999, 1, 34, 130, 118, 172, 169, 73, 72, 2, 0.890087
346, 6, wb, catch, NA, 999, 999, 1, 35, 156, 99, 124, 71, 146, 169, 2, 1.27558
346, 6, wb, catch, NA, 999, 999, 1, 35, 156, 99, 124, 71, 146, 169, 3, 0.479197
346, 6, wb, attraction, a-b-db, 14, 1, 1, 36, 60, 135, 56, 125, 135, 60, 1, 1.02568
346, 6, wb, attraction, a-b-db, 14, 1, 1, 36, 60, 135, 56, 125, 135, 60, 2, 0.655297
346, 6, wb, filler, NA, 999, 999, 1, 37, 94, 124, 159, 98, 108, 96, 3, 2.11507
346, 6, wb, filler, NA, 999, 999, 1, 37, 94, 124, 159, 98, 108, 96, 2, 0.733144
346, 6, wb, attraction, a-b-da, 14, 3, 2, 1, 195, 120, 181, 111, 120, 195, 2, 2.22143
346, 6, wb, attraction, a-b-da, 14, 3, 2, 1, 195, 120, 181, 111, 120, 195, 1, 0.530662
346, 6, wb, attraction, a-b-da, 5, 3, 2, 2, 120, 195, 190, 117, 195, 120, 1, 1.55509
346, 6, wb, attraction, a-b-da, 5, 3, 2, 2, 120, 195, 190, 117, 195, 120, 2, 0.635186
346, 6, wb, attraction, a-b-da, 5, 2, 2, 3, 165, 90, 161, 88, 90, 165, 3, 2.0797
346, 6, wb, attraction, a-b-da, 5, 2, 2, 3, 165, 90, 161, 88, 90, 165, 2, 1.30705
346, 6, wb, filler, NA, 999, 999, 2, 4, 148, 131, 142, 136, 194, 170, 1, 1.16381
346, 6, wb, filler, NA, 999, 999, 2, 4, 148, 131, 142, 136, 194, 170, 3, 0.980148
346, 6, wb, filler, NA, 999, 999, 2, 5, 70, 90, 131, 177, 143, 130, 1, 1.31442
346, 6, wb, filler, NA, 999, 999, 2, 5, 70, 90, 131, 177, 143, 130, 2, 2.07664
346, 6, wb, attraction, a-b-db, 9, 1, 2, 6, 135, 60, 57, 129, 60, 135, 1, 2.37453
346, 6, wb, attraction, a-b-db, 9, 1, 2, 6, 135, 60, 57, 129, 60, 135, 3, 2.3419
346, 6, wb, attraction, a-b-da, 2, 2, 2, 7, 165, 90, 90, 165, 163, 89, 3, 2.29304
346, 6, wb, attraction, a-b-da, 2, 2, 2, 7, 165, 90, 90, 165, 163, 89, 2, 1.13568
346, 6, wb, attraction, a-b-da, 2, 1, 2, 8, 60, 135, 134, 59, 135, 60, 1, 1.06383
346, 6, wb, attraction, a-b-da, 2, 1, 2, 8, 60, 135, 134, 59, 135, 60, 2, 0.428147
346, 6, wb, catch, NA, 999, 999, 2, 9, 95, 100, 147, 168, 136, 119, 1, 0.944767
346, 6, wb, catch, NA, 999, 999, 2, 9, 95, 100, 147, 168, 136, 119, 2, 0.577667
346, 6, wb, attraction, a-b-da, 14, 2, 2, 10, 165, 90, 153, 83, 90, 165, 3, 0.87209
346, 6, wb, attraction, a-b-da, 14, 2, 2, 10, 165, 90, 153, 83, 90, 165, 1, 1.17176
346, 6, wb, attraction, a-b-db, 14, 2, 2, 11, 90, 165, 83, 153, 165, 90, 1, 0.94677
346, 6, wb, attraction, a-b-db, 14, 2, 2, 11, 90, 165, 83, 153, 165, 90, 3, 0.691702
346, 6, wb, catch, NA, 999, 999, 2, 12, 137, 118, 164, 151, 78, 117, 3, 0.885444
346, 6, wb, catch, NA, 999, 999, 2, 12, 137, 118, 164, 151, 78, 117, 2, 0.689168
346, 6, wb, attraction, a-b-db, 2, 1, 2, 13, 59, 134, 60, 135, 135, 60, 1, 0.85153
346, 6, wb, attraction, a-b-db, 2, 1, 2, 13, 59, 134, 60, 135, 135, 60, 2, 0.45662
346, 6, wb, filler, NA, 999, 999, 2, 14, 77, 181, 115, 121, 94, 92, 3, 0.755721
346, 6, wb, filler, NA, 999, 999, 2, 14, 77, 181, 115, 121, 94, 92, 1, 1.07615
346, 6, wb, attraction, a-b-db, 2, 2, 2, 15, 89, 163, 90, 165, 165, 90, 3, 0.942379
346, 6, wb, attraction, a-b-db, 2, 2, 2, 15, 89, 163, 90, 165, 165, 90, 2, 0.759395
346, 6, wb, attraction, a-b-da, 2, 3, 2, 16, 193, 119, 120, 195, 195, 120, 2, 2.18243
346, 6, wb, attraction, a-b-da, 2, 3, 2, 16, 193, 119, 120, 195, 195, 120, 3, 0.413749
346, 6, wb, filler, NA, 999, 999, 2, 17, 147, 98, 56, 112, 93, 118, 2, 0.986907
346, 6, wb, filler, NA, 999, 999, 2, 17, 147, 98, 56, 112, 93, 118, 1, 0.754641
346, 6, wb, filler, NA, 999, 999, 2, 18, 118, 160, 89, 69, 134, 65, 2, 0.834263
346, 6, wb, filler, NA, 999, 999, 2, 18, 118, 160, 89, 69, 134, 65, 1, 1.61595
346, 6, wb, attraction, a-b-da, 9, 3, 2, 19, 195, 120, 186, 114, 120, 195, 2, 2.1088
346, 6, wb, attraction, a-b-da, 9, 3, 2, 19, 195, 120, 186, 114, 120, 195, 3, 0.774697
346, 6, wb, attraction, a-b-db, 14, 1, 2, 20, 60, 135, 135, 60, 56, 125, 3, 1.013
346, 6, wb, attraction, a-b-db, 14, 1, 2, 20, 60, 135, 135, 60, 56, 125, 2, 0.763403
346, 6, wb, attraction, a-b-da, 9, 1, 2, 21, 60, 135, 135, 60, 129, 57, 2, 1.3146
346, 6, wb, attraction, a-b-da, 9, 1, 2, 21, 60, 135, 135, 60, 129, 57, 3, 0.860643
346, 6, wb, attraction, a-b-db, 9, 2, 2, 22, 86, 157, 165, 90, 90, 165, 2, 1.02383
346, 6, wb, attraction, a-b-db, 9, 2, 2, 22, 86, 157, 165, 90, 90, 165, 3, 0.517336
346, 6, wb, filler, NA, 999, 999, 2, 23, 186, 70, 132, 95, 130, 143, 1, 2.22235
346, 6, wb, filler, NA, 999, 999, 2, 23, 186, 70, 132, 95, 130, 143, 3, 0.531658
346, 6, wb, filler, NA, 999, 999, 2, 24, 107, 117, 60, 113, 178, 142, 2, 0.804081
346, 6, wb, filler, NA, 999, 999, 2, 24, 107, 117, 60, 113, 178, 142, 3, 0.474527
346, 6, wb, attraction, a-b-da, 5, 1, 2, 25, 132, 58, 60, 135, 135, 60, 1, 1.08503
346, 6, wb, attraction, a-b-da, 5, 1, 2, 25, 132, 58, 60, 135, 135, 60, 2, 0.400638
346, 6, wb, attraction, a-b-db, 9, 3, 2, 26, 114, 186, 195, 120, 120, 195, 3, 0.958504
346, 6, wb, attraction, a-b-db, 9, 3, 2, 26, 114, 186, 195, 120, 120, 195, 2, 0.382735
346, 6, wb, attraction, a-b-db, 14, 3, 2, 27, 195, 120, 111, 181, 120, 195, 2, 1.18933
346, 6, wb, attraction, a-b-db, 14, 3, 2, 27, 195, 120, 111, 181, 120, 195, 1, 0.892265
346, 6, wb, filler, NA, 999, 999, 2, 28, 189, 128, 195, 165, 90, 67, 3, 1.9099
346, 6, wb, filler, NA, 999, 999, 2, 28, 189, 128, 195, 165, 90, 67, 2, 0.391961
346, 6, wb, filler, NA, 999, 999, 2, 29, 63, 69, 64, 81, 182, 188, 1, 0.949744
346, 6, wb, filler, NA, 999, 999, 2, 29, 63, 69, 64, 81, 182, 188, 3, 0.446764
346, 6, wb, attraction, a-b-da, 9, 2, 2, 30, 157, 86, 90, 165, 165, 90, 1, 1.68246
346, 6, wb, attraction, a-b-da, 9, 2, 2, 30, 157, 86, 90, 165, 165, 90, 2, 0.678147
346, 6, wb, attraction, a-b-db, 5, 1, 2, 31, 60, 135, 58, 132, 135, 60, 1, 2.12836
346, 6, wb, attraction, a-b-db, 5, 1, 2, 31, 60, 135, 58, 132, 135, 60, 3, 1.26579
346, 6, wb, catch, NA, 999, 999, 2, 32, 162, 93, 66, 129, 138, 177, 2, 1.3086
346, 6, wb, catch, NA, 999, 999, 2, 32, 162, 93, 66, 129, 138, 177, 3, 1.30293
346, 6, wb, attraction, a-b-db, 5, 3, 2, 33, 195, 120, 120, 195, 117, 190, 2, 1.28851
346, 6, wb, attraction, a-b-db, 5, 3, 2, 33, 195, 120, 120, 195, 117, 190, 1, 0.499216
346, 6, wb, attraction, a-b-db, 5, 2, 2, 34, 90, 165, 165, 90, 88, 161, 2, 0.837017
346, 6, wb, attraction, a-b-db, 5, 2, 2, 34, 90, 165, 165, 90, 88, 161, 1, 0.450844
346, 6, wb, filler, NA, 999, 999, 2, 35, 182, 146, 168, 58, 59, 161, 2, 0.766603
346, 6, wb, filler, NA, 999, 999, 2, 35, 182, 146, 168, 58, 59, 161, 1, 0.622897
346, 6, wb, attraction, a-b-da, 14, 1, 2, 36, 125, 56, 60, 135, 135, 60, 1, 0.979381
346, 6, wb, attraction, a-b-da, 14, 1, 2, 36, 125, 56, 60, 135, 135, 60, 2, 0.666979
346, 6, wb, attraction, a-b-db, 2, 3, 2, 37, 120, 195, 195, 120, 119, 193, 1, 0.710128
346, 6, wb, attraction, a-b-db, 2, 3, 2, 37, 120, 195, 195, 120, 119, 193, 2, 0.672626
346, 6, wb, attraction, a-b-da, 9, 3, 3, 1, 195, 120, 120, 195, 186, 114, 3, 1.10757
346, 6, wb, attraction, a-b-da, 9, 3, 3, 1, 195, 120, 120, 195, 186, 114, 2, 0.589857
346, 6, wb, attraction, a-b-db, 14, 3, 3, 2, 195, 120, 111, 181, 120, 195, 2, 1.07562
346, 6, wb, attraction, a-b-db, 14, 3, 3, 2, 195, 120, 111, 181, 120, 195, 1, 0.455245
346, 6, wb, attraction, a-b-db, 2, 1, 3, 3, 135, 60, 59, 134, 60, 135, 2, 0.979049
346, 6, wb, attraction, a-b-db, 2, 1, 3, 3, 135, 60, 59, 134, 60, 135, 1, 0.810792
346, 6, wb, attraction, a-b-da, 14, 1, 3, 4, 135, 60, 60, 135, 125, 56, 2, 1.82376
346, 6, wb, attraction, a-b-da, 14, 1, 3, 4, 135, 60, 60, 135, 125, 56, 3, 0.773203
346, 6, wb, attraction, a-b-db, 9, 3, 3, 5, 195, 120, 114, 186, 120, 195, 2, 0.611461
346, 6, wb, attraction, a-b-db, 9, 3, 3, 5, 195, 120, 114, 186, 120, 195, 1, 0.553915
346, 6, wb, catch, NA, 999, 999, 3, 6, 155, 160, 85, 110, 137, 118, 2, 0.681757
346, 6, wb, catch, NA, 999, 999, 3, 6, 155, 160, 85, 110, 137, 118, 1, 0.605416
346, 6, wb, attraction, a-b-db, 9, 1, 3, 7, 57, 129, 135, 60, 60, 135, 3, 1.96333
346, 6, wb, attraction, a-b-db, 9, 1, 3, 7, 57, 129, 135, 60, 60, 135, 2, 0.571332
346, 6, wb, attraction, a-b-db, 2, 2, 3, 8, 90, 165, 165, 90, 89, 163, 2, 2.44236
346, 6, wb, attraction, a-b-db, 2, 2, 3, 8, 90, 165, 165, 90, 89, 163, 1, 0.662926
346, 6, wb, attraction, a-b-db, 14, 1, 3, 9, 56, 125, 135, 60, 60, 135, 1, 2.85798
346, 6, wb, attraction, a-b-db, 14, 1, 3, 9, 56, 125, 135, 60, 60, 135, 3, 0.453875
346, 6, wb, attraction, a-b-da, 5, 2, 3, 10, 161, 88, 90, 165, 165, 90, 1, 1.61751
346, 6, wb, attraction, a-b-da, 5, 2, 3, 10, 161, 88, 90, 165, 165, 90, 2, 0.719639
346, 6, wb, filler, NA, 999, 999, 3, 11, 68, 72, 132, 110, 108, 132, 1, 0.800702
346, 6, wb, filler, NA, 999, 999, 3, 11, 68, 72, 132, 110, 108, 132, 3, 0.335782
346, 6, wb, attraction, a-b-da, 14, 2, 3, 12, 90, 165, 165, 90, 153, 83, 1, 1.4483
346, 6, wb, attraction, a-b-da, 14, 2, 3, 12, 90, 165, 165, 90, 153, 83, 2, 0.48516
346, 6, wb, attraction, a-b-da, 5, 3, 3, 13, 120, 195, 190, 117, 195, 120, 1, 1.02358
346, 6, wb, attraction, a-b-da, 5, 3, 3, 13, 120, 195, 190, 117, 195, 120, 2, 0.333393
346, 6, wb, filler, NA, 999, 999, 3, 14, 173, 90, 97, 103, 170, 107, 1, 0.637864
346, 6, wb, filler, NA, 999, 999, 3, 14, 173, 90, 97, 103, 170, 107, 2, 0.682835
346, 6, wb, attraction, a-b-db, 2, 3, 3, 15, 119, 193, 120, 195, 195, 120, 1, 3.39727
346, 6, wb, attraction, a-b-db, 2, 3, 3, 15, 119, 193, 120, 195, 195, 120, 3, 0.35545
346, 6, wb, attraction, a-b-db, 5, 2, 3, 16, 165, 90, 88, 161, 90, 165, 2, 1.8834
346, 6, wb, attraction, a-b-db, 5, 2, 3, 16, 165, 90, 88, 161, 90, 165, 1, 0.454644
346, 6, wb, attraction, a-b-da, 2, 1, 3, 17, 135, 60, 134, 59, 60, 135, 3, 2.14656
346, 6, wb, attraction, a-b-da, 2, 1, 3, 17, 135, 60, 134, 59, 60, 135, 2, 0.683115
346, 6, wb, filler, NA, 999, 999, 3, 18, 115, 184, 105, 177, 171, 185, 1, 0.789634
346, 6, wb, filler, NA, 999, 999, 3, 18, 115, 184, 105, 177, 171, 185, 2, 0.428619
346, 6, wb, filler, NA, 999, 999, 3, 19, 189, 75, 166, 135, 116, 181, 1, 0.833046
346, 6, wb, filler, NA, 999, 999, 3, 19, 189, 75, 166, 135, 116, 181, 2, 1.16678
346, 6, wb, filler, NA, 999, 999, 3, 20, 145, 96, 128, 194, 83, 185, 1, 0.845681
346, 6, wb, filler, NA, 999, 999, 3, 20, 145, 96, 128, 194, 83, 185, 2, 0.370744
346, 6, wb, catch, NA, 999, 999, 3, 21, 155, 160, 78, 117, 146, 109, 2, 1.41004
346, 6, wb, catch, NA, 999, 999, 3, 21, 155, 160, 78, 117, 146, 109, 1, 0.368062
346, 6, wb, attraction, a-b-da, 9, 1, 3, 22, 60, 135, 129, 57, 135, 60, 2, 1.09524
346, 6, wb, attraction, a-b-da, 9, 1, 3, 22, 60, 135, 129, 57, 135, 60, 1, 0.506306
346, 6, wb, attraction, a-b-da, 14, 3, 3, 23, 195, 120, 181, 111, 120, 195, 2, 1.17135
346, 6, wb, attraction, a-b-da, 14, 3, 3, 23, 195, 120, 181, 111, 120, 195, 1, 0.466925
346, 6, wb, filler, NA, 999, 999, 3, 24, 184, 184, 165, 99, 118, 149, 2, 0.958043
346, 6, wb, filler, NA, 999, 999, 3, 24, 184, 184, 165, 99, 118, 149, 1, 0.382455
346, 6, wb, attraction, a-b-db, 9, 2, 3, 25, 90, 165, 86, 157, 165, 90, 2, 0.924869
346, 6, wb, attraction, a-b-db, 9, 2, 3, 25, 90, 165, 86, 157, 165, 90, 1, 0.53457
346, 6, wb, filler, NA, 999, 999, 3, 26, 67, 192, 106, 161, 57, 148, 3, 1.12706
346, 6, wb, filler, NA, 999, 999, 3, 26, 67, 192, 106, 161, 57, 148, 2, 0.54468
346, 6, wb, attraction, a-b-db, 5, 3, 3, 27, 195, 120, 117, 190, 120, 195, 1, 0.680414
346, 6, wb, attraction, a-b-db, 5, 3, 3, 27, 195, 120, 117, 190, 120, 195, 2, 0.46018
346, 6, wb, attraction, a-b-da, 2, 2, 3, 28, 165, 90, 90, 165, 163, 89, 1, 0.775287
346, 6, wb, attraction, a-b-da, 2, 2, 3, 28, 165, 90, 90, 165, 163, 89, 2, 0.887062
346, 6, wb, attraction, a-b-da, 9, 2, 3, 29, 157, 86, 90, 165, 165, 90, 1, 1.26536
346, 6, wb, attraction, a-b-da, 9, 2, 3, 29, 157, 86, 90, 165, 165, 90, 2, 0.597821
346, 6, wb, attraction, a-b-db, 5, 1, 3, 30, 135, 60, 60, 135, 58, 132, 1, 2.41137
346, 6, wb, attraction, a-b-db, 5, 1, 3, 30, 135, 60, 60, 135, 58, 132, 2, 0.473201
346, 6, wb, filler, NA, 999, 999, 3, 31, 72, 78, 104, 163, 181, 120, 1, 1.31564
346, 6, wb, filler, NA, 999, 999, 3, 31, 72, 78, 104, 163, 181, 120, 2, 1.68598
346, 6, wb, attraction, a-b-da, 2, 3, 3, 32, 120, 195, 195, 120, 193, 119, 1, 1.15997
346, 6, wb, attraction, a-b-da, 2, 3, 3, 32, 120, 195, 195, 120, 193, 119, 2, 0.512325
346, 6, wb, filler, NA, 999, 999, 3, 33, 71, 174, 91, 74, 181, 157, 2, 0.657421
346, 6, wb, filler, NA, 999, 999, 3, 33, 71, 174, 91, 74, 181, 157, 3, 0.373838
346, 6, wb, filler, NA, 999, 999, 3, 34, 195, 101, 156, 128, 128, 136, 3, 3.46033
346, 6, wb, filler, NA, 999, 999, 3, 34, 195, 101, 156, 128, 128, 136, 1, 1.088
346, 6, wb, attraction, a-b-da, 5, 1, 3, 35, 132, 58, 60, 135, 135, 60, 2, 1.22628
346, 6, wb, attraction, a-b-da, 5, 1, 3, 35, 132, 58, 60, 135, 135, 60, 3, 0.671831
346, 6, wb, attraction, a-b-db, 14, 2, 3, 36, 90, 165, 83, 153, 165, 90, 1, 0.922782
346, 6, wb, attraction, a-b-db, 14, 2, 3, 36, 90, 165, 83, 153, 165, 90, 3, 1.26854
346, 6, wb, catch, NA, 999, 999, 3, 37, 182, 133, 92, 163, 131, 64, 3, 0.887522
346, 6, wb, catch, NA, 999, 999, 3, 37, 182, 133, 92, 163, 131, 64, 1, 0.47446
346, 6, wb, attraction, a-b-da, 5, 1, 4, 1, 135, 60, 132, 58, 60, 135, 1, 0.788953
346, 6, wb, attraction, a-b-da, 5, 1, 4, 1, 135, 60, 132, 58, 60, 135, 3, 0.348075
346, 6, wb, attraction, a-b-da, 9, 3, 4, 2, 186, 114, 120, 195, 195, 120, 3, 1.37976
346, 6, wb, attraction, a-b-da, 9, 3, 4, 2, 186, 114, 120, 195, 195, 120, 2, 0.339385
346, 6, wb, attraction, a-b-db, 14, 1, 4, 3, 135, 60, 60, 135, 56, 125, 1, 0.507068
346, 6, wb, attraction, a-b-db, 14, 1, 4, 3, 135, 60, 60, 135, 56, 125, 2, 0.381695
346, 6, wb, attraction, a-b-db, 2, 2, 4, 4, 165, 90, 89, 163, 90, 165, 3, 0.612114
346, 6, wb, attraction, a-b-db, 2, 2, 4, 4, 165, 90, 89, 163, 90, 165, 2, 0.34655
346, 6, wb, attraction, a-b-da, 5, 3, 4, 5, 120, 195, 195, 120, 190, 117, 1, 0.594385
346, 6, wb, attraction, a-b-da, 5, 3, 4, 5, 120, 195, 195, 120, 190, 117, 2, 0.353547
346, 6, wb, filler, NA, 999, 999, 4, 6, 116, 72, 184, 74, 164, 101, 1, 0.785306
346, 6, wb, filler, NA, 999, 999, 4, 6, 116, 72, 184, 74, 164, 101, 2, 0.433168
346, 6, wb, attraction, a-b-da, 9, 1, 4, 7, 135, 60, 129, 57, 60, 135, 1, 0.581465
346, 6, wb, attraction, a-b-da, 9, 1, 4, 7, 135, 60, 129, 57, 60, 135, 2, 0.36531
346, 6, wb, attraction, a-b-db, 5, 2, 4, 8, 88, 161, 165, 90, 90, 165, 1, 0.548436
346, 6, wb, attraction, a-b-db, 5, 2, 4, 8, 88, 161, 165, 90, 90, 165, 2, 0.677707
346, 6, wb, filler, NA, 999, 999, 4, 9, 68, 124, 83, 69, 183, 144, 1, 0.767972
346, 6, wb, filler, NA, 999, 999, 4, 9, 68, 124, 83, 69, 183, 144, 2, 0.656425
346, 6, wb, filler, NA, 999, 999, 4, 10, 108, 160, 170, 63, 93, 68, 3, 0.547432
346, 6, wb, filler, NA, 999, 999, 4, 10, 108, 160, 170, 63, 93, 68, 2, 0.548687
346, 6, wb, filler, NA, 999, 999, 4, 11, 119, 61, 175, 190, 187, 103, 1, 0.548411
346, 6, wb, filler, NA, 999, 999, 4, 11, 119, 61, 175, 190, 187, 103, 2, 0.581527
346, 6, wb, filler, NA, 999, 999, 4, 12, 116, 190, 142, 132, 112, 64, 3, 0.81198
346, 6, wb, filler, NA, 999, 999, 4, 12, 116, 190, 142, 132, 112, 64, 2, 0.554396
346, 6, wb, filler, NA, 999, 999, 4, 13, 149, 150, 130, 73, 164, 75, 1, 0.346122
346, 6, wb, filler, NA, 999, 999, 4, 13, 149, 150, 130, 73, 164, 75, 2, 4.23529
346, 6, wb, attraction, a-b-db, 5, 1, 4, 14, 60, 135, 58, 132, 135, 60, 1, 1.02253
346, 6, wb, attraction, a-b-db, 5, 1, 4, 14, 60, 135, 58, 132, 135, 60, 2, 0.428297
346, 6, wb, filler, NA, 999, 999, 4, 15, 188, 138, 145, 113, 184, 90, 1, 0.66468
346, 6, wb, filler, NA, 999, 999, 4, 15, 188, 138, 145, 113, 184, 90, 2, 0.581186
346, 6, wb, attraction, a-b-db, 14, 2, 4, 16, 165, 90, 90, 165, 83, 153, 3, 0.78758
346, 6, wb, attraction, a-b-db, 14, 2, 4, 16, 165, 90, 90, 165, 83, 153, 2, 0.754637
346, 6, wb, catch, NA, 999, 999, 4, 17, 147, 168, 69, 126, 156, 99, 2, 0.602354
346, 6, wb, catch, NA, 999, 999, 4, 17, 147, 168, 69, 126, 156, 99, 1, 0.433472
346, 6, wb, attraction, a-b-db, 14, 3, 4, 18, 120, 195, 195, 120, 111, 181, 2, 0.653971
346, 6, wb, attraction, a-b-db, 14, 3, 4, 18, 120, 195, 195, 120, 111, 181, 3, 1.00236
346, 6, wb, attraction, a-b-da, 14, 1, 4, 19, 125, 56, 135, 60, 60, 135, 1, 0.703931
346, 6, wb, attraction, a-b-da, 14, 1, 4, 19, 125, 56, 135, 60, 60, 135, 3, 0.418375
346, 6, wb, attraction, a-b-db, 2, 3, 4, 20, 119, 193, 120, 195, 195, 120, 1, 0.855596
346, 6, wb, attraction, a-b-db, 2, 3, 4, 20, 119, 193, 120, 195, 195, 120, 2, 0.507917
346, 6, wb, attraction, a-b-da, 9, 2, 4, 21, 90, 165, 157, 86, 165, 90, 3, 0.868991
346, 6, wb, attraction, a-b-da, 9, 2, 4, 21, 90, 165, 157, 86, 165, 90, 2, 0.673431
346, 6, wb, filler, NA, 999, 999, 4, 22, 63, 187, 141, 190, 143, 123, 1, 0.899744
346, 6, wb, filler, NA, 999, 999, 4, 22, 63, 187, 141, 190, 143, 123, 2, 0.438966
346, 6, wb, attraction, a-b-db, 9, 1, 4, 23, 57, 129, 135, 60, 60, 135, 1, 0.651268
346, 6, wb, attraction, a-b-db, 9, 1, 4, 23, 57, 129, 135, 60, 60, 135, 2, 0.448468
346, 6, wb, attraction, a-b-db, 9, 2, 4, 24, 86, 157, 90, 165, 165, 90, 1, 0.724213
346, 6, wb, attraction, a-b-db, 9, 2, 4, 24, 86, 157, 90, 165, 165, 90, 2, 0.445974
346, 6, wb, attraction, a-b-db, 9, 3, 4, 25, 114, 186, 195, 120, 120, 195, 1, 1.24968
346, 6, wb, attraction, a-b-db, 9, 3, 4, 25, 114, 186, 195, 120, 120, 195, 3, 0.590644
346, 6, wb, attraction, a-b-da, 2, 2, 4, 26, 90, 165, 165, 90, 163, 89, 1, 2.1084
346, 6, wb, attraction, a-b-da, 2, 2, 4, 26, 90, 165, 165, 90, 163, 89, 2, 0.414416
346, 6, wb, filler, NA, 999, 999, 4, 27, 118, 191, 84, 179, 128, 144, 2, 1.10755
346, 6, wb, filler, NA, 999, 999, 4, 27, 118, 191, 84, 179, 128, 144, 3, 0.573891
346, 6, wb, attraction, a-b-da, 14, 2, 4, 28, 90, 165, 165, 90, 153, 83, 2, 0.964248
346, 6, wb, attraction, a-b-da, 14, 2, 4, 28, 90, 165, 165, 90, 153, 83, 1, 0.428695
346, 6, wb, attraction, a-b-db, 5, 3, 4, 29, 195, 120, 120, 195, 117, 190, 1, 1.04106
346, 6, wb, attraction, a-b-db, 5, 3, 4, 29, 195, 120, 120, 195, 117, 190, 2, 0.326212
346, 6, wb, attraction, a-b-da, 2, 1, 4, 30, 134, 59, 135, 60, 60, 135, 1, 0.502566
346, 6, wb, attraction, a-b-da, 2, 1, 4, 30, 134, 59, 135, 60, 60, 135, 2, 0.417817
346, 6, wb, filler, NA, 999, 999, 4, 31, 81, 133, 141, 188, 162, 163, 1, 0.598854
346, 6, wb, filler, NA, 999, 999, 4, 31, 81, 133, 141, 188, 162, 163, 2, 0.269995
346, 6, wb, attraction, a-b-da, 2, 3, 4, 32, 193, 119, 195, 120, 120, 195, 1, 0.64914
346, 6, wb, attraction, a-b-da, 2, 3, 4, 32, 193, 119, 195, 120, 120, 195, 3, 0.350374
346, 6, wb, attraction, a-b-da, 5, 2, 4, 33, 161, 88, 90, 165, 165, 90, 1, 0.870043
346, 6, wb, attraction, a-b-da, 5, 2, 4, 33, 161, 88, 90, 165, 165, 90, 2, 0.329878
346, 6, wb, attraction, a-b-da, 14, 3, 4, 34, 195, 120, 181, 111, 120, 195, 1, 0.674263
346, 6, wb, attraction, a-b-da, 14, 3, 4, 34, 195, 120, 181, 111, 120, 195, 3, 0.646107
346, 6, wb, catch, NA, 999, 999, 4, 35, 94, 161, 73, 122, 171, 144, 1, 0.537865
346, 6, wb, catch, NA, 999, 999, 4, 35, 94, 161, 73, 122, 171, 144, 2, 0.731007
346, 6, wb, attraction, a-b-db, 2, 1, 4, 36, 60, 135, 135, 60, 59, 134, 2, 0.651337
346, 6, wb, attraction, a-b-db, 2, 1, 4, 36, 60, 135, 135, 60, 59, 134, 1, 0.376457
346, 6, wb, catch, NA, 999, 999, 4, 37, 141, 174, 108, 147, 76, 119, 3, 0.559148
346, 6, wb, catch, NA, 999, 999, 4, 37, 141, 174, 108, 147, 76, 119, 2, 0.447469
346, 6, wb, catch, NA, 999, 999, 5, 1, 112, 143, 156, 159, 125, 70, 3, 2.25785
346, 6, wb, catch, NA, 999, 999, 5, 1, 112, 143, 156, 159, 125, 70, 2, 0.55779
346, 6, wb, attraction, a-b-da, 5, 2, 5, 2, 161, 88, 165, 90, 90, 165, 1, 1.17283
346, 6, wb, attraction, a-b-da, 5, 2, 5, 2, 161, 88, 165, 90, 90, 165, 2, 0.364491
346, 6, wb, attraction, a-b-da, 2, 3, 5, 3, 193, 119, 120, 195, 195, 120, 1, 0.859666
346, 6, wb, attraction, a-b-da, 2, 3, 5, 3, 193, 119, 120, 195, 195, 120, 2, 0.463979
346, 6, wb, attraction, a-b-da, 9, 1, 5, 4, 129, 57, 60, 135, 135, 60, 2, 1.38709
346, 6, wb, attraction, a-b-da, 9, 1, 5, 4, 129, 57, 60, 135, 135, 60, 3, 0.658717
346, 6, wb, filler, NA, 999, 999, 5, 5, 75, 180, 187, 63, 161, 75, 1, 1.11781
346, 6, wb, filler, NA, 999, 999, 5, 5, 75, 180, 187, 63, 161, 75, 2, 0.424064
346, 6, wb, attraction, a-b-da, 14, 1, 5, 6, 60, 135, 135, 60, 125, 56, 3, 0.852434
346, 6, wb, attraction, a-b-da, 14, 1, 5, 6, 60, 135, 135, 60, 125, 56, 2, 0.761553
346, 6, wb, filler, NA, 999, 999, 5, 7, 190, 183, 175, 114, 165, 170, 2, 1.6245
346, 6, wb, filler, NA, 999, 999, 5, 7, 190, 183, 175, 114, 165, 170, 1, 0.670042
346, 6, wb, attraction, a-b-da, 9, 2, 5, 8, 165, 90, 90, 165, 157, 86, 2, 1.02513
346, 6, wb, attraction, a-b-da, 9, 2, 5, 8, 165, 90, 90, 165, 157, 86, 1, 0.43291
346, 6, wb, attraction, a-b-da, 9, 3, 5, 9, 195, 120, 120, 195, 186, 114, 2, 0.875242
346, 6, wb, attraction, a-b-da, 9, 3, 5, 9, 195, 120, 120, 195, 186, 114, 1, 0.454971
346, 6, wb, attraction, a-b-db, 2, 1, 5, 10, 135, 60, 60, 135, 59, 134, 2, 0.954811
346, 6, wb, attraction, a-b-db, 2, 1, 5, 10, 135, 60, 60, 135, 59, 134, 1, 0.427034
346, 6, wb, attraction, a-b-da, 5, 1, 5, 11, 135, 60, 60, 135, 132, 58, 3, 0.815622
346, 6, wb, attraction, a-b-da, 5, 1, 5, 11, 135, 60, 60, 135, 132, 58, 1, 0.501945
346, 6, wb, attraction, a-b-da, 14, 3, 5, 12, 195, 120, 120, 195, 181, 111, 2, 0.575709
346, 6, wb, attraction, a-b-da, 14, 3, 5, 12, 195, 120, 120, 195, 181, 111, 1, 0.431559
346, 6, wb, attraction, a-b-da, 14, 2, 5, 13, 90, 165, 153, 83, 165, 90, 2, 0.764048
346, 6, wb, attraction, a-b-da, 14, 2, 5, 13, 90, 165, 153, 83, 165, 90, 1, 0.684407
346, 6, wb, filler, NA, 999, 999, 5, 14, 166, 193, 174, 167, 152, 133, 2, 0.43872
346, 6, wb, filler, NA, 999, 999, 5, 14, 166, 193, 174, 167, 152, 133, 1, 0.947997
346, 6, wb, attraction, a-b-da, 2, 2, 5, 15, 163, 89, 90, 165, 165, 90, 3, 0.731614
346, 6, wb, attraction, a-b-da, 2, 2, 5, 15, 163, 89, 90, 165, 165, 90, 1, 0.797333
346, 6, wb, attraction, a-b-db, 5, 2, 5, 16, 90, 165, 165, 90, 88, 161, 3, 1.42714
346, 6, wb, attraction, a-b-db, 5, 2, 5, 16, 90, 165, 165, 90, 88, 161, 1, 0.64872
346, 6, wb, filler, NA, 999, 999, 5, 17, 133, 118, 118, 150, 145, 70, 3, 0.860228
346, 6, wb, filler, NA, 999, 999, 5, 17, 133, 118, 118, 150, 145, 70, 2, 1.04889
346, 6, wb, filler, NA, 999, 999, 5, 18, 91, 130, 125, 94, 185, 105, 1, 0.732277
346, 6, wb, filler, NA, 999, 999, 5, 18, 91, 130, 125, 94, 185, 105, 3, 0.653986
346, 6, wb, attraction, a-b-db, 9, 3, 5, 19, 114, 186, 120, 195, 195, 120, 2, 0.761901
346, 6, wb, attraction, a-b-db, 9, 3, 5, 19, 114, 186, 120, 195, 195, 120, 3, 0.954199
346, 6, wb, attraction, a-b-db, 5, 1, 5, 20, 60, 135, 58, 132, 135, 60, 2, 0.809897
346, 6, wb, attraction, a-b-db, 5, 1, 5, 20, 60, 135, 58, 132, 135, 60, 1, 0.696267
346, 6, wb, filler, NA, 999, 999, 5, 21, 174, 65, 146, 94, 141, 192, 2, 0.698049
346, 6, wb, filler, NA, 999, 999, 5, 21, 174, 65, 146, 94, 141, 192, 3, 0.933055
346, 6, wb, attraction, a-b-db, 9, 1, 5, 22, 57, 129, 135, 60, 60, 135, 2, 0.741318
346, 6, wb, attraction, a-b-db, 9, 1, 5, 22, 57, 129, 135, 60, 60, 135, 3, 0.934542
346, 6, wb, filler, NA, 999, 999, 5, 23, 82, 74, 96, 149, 110, 106, 1, 0.694662
346, 6, wb, filler, NA, 999, 999, 5, 23, 82, 74, 96, 149, 110, 106, 2, 0.633841
346, 6, wb, attraction, a-b-db, 2, 2, 5, 24, 89, 163, 90, 165, 165, 90, 3, 0.582154
346, 6, wb, attraction, a-b-db, 2, 2, 5, 24, 89, 163, 90, 165, 165, 90, 2, 0.382129
346, 6, wb, attraction, a-b-db, 14, 2, 5, 25, 165, 90, 83, 153, 90, 165, 2, 1.06047
346, 6, wb, attraction, a-b-db, 14, 2, 5, 25, 165, 90, 83, 153, 90, 165, 1, 0.408798
346, 6, wb, attraction, a-b-db, 5, 3, 5, 26, 195, 120, 117, 190, 120, 195, 2, 0.53402
346, 6, wb, attraction, a-b-db, 5, 3, 5, 26, 195, 120, 117, 190, 120, 195, 1, 0.415799
346, 6, wb, attraction, a-b-db, 2, 3, 5, 27, 195, 120, 119, 193, 120, 195, 2, 0.780834
346, 6, wb, attraction, a-b-db, 2, 3, 5, 27, 195, 120, 119, 193, 120, 195, 1, 0.444664
346, 6, wb, attraction, a-b-db, 9, 2, 5, 28, 86, 157, 165, 90, 90, 165, 1, 1.0725
346, 6, wb, attraction, a-b-db, 9, 2, 5, 28, 86, 157, 165, 90, 90, 165, 3, 0.876127
346, 6, wb, filler, NA, 999, 999, 5, 29, 117, 65, 104, 168, 183, 153, 2, 0.550384
346, 6, wb, filler, NA, 999, 999, 5, 29, 117, 65, 104, 168, 183, 153, 1, 0.38358
346, 6, wb, filler, NA, 999, 999, 5, 30, 132, 58, 115, 94, 75, 115, 3, 1.07005
346, 6, wb, filler, NA, 999, 999, 5, 30, 132, 58, 115, 94, 75, 115, 2, 0.353784
346, 6, wb, catch, NA, 999, 999, 5, 31, 110, 145, 121, 194, 124, 71, 3, 0.609504
346, 6, wb, catch, NA, 999, 999, 5, 31, 110, 145, 121, 194, 124, 71, 2, 0.319947
346, 6, wb, attraction, a-b-da, 2, 1, 5, 32, 134, 59, 135, 60, 60, 135, 1, 0.721147
346, 6, wb, attraction, a-b-da, 2, 1, 5, 32, 134, 59, 135, 60, 60, 135, 3, 0.378829
346, 6, wb, attraction, a-b-db, 14, 3, 5, 33, 111, 181, 195, 120, 120, 195, 1, 0.513338
346, 6, wb, attraction, a-b-db, 14, 3, 5, 33, 111, 181, 195, 120, 120, 195, 2, 0.307862
346, 6, wb, attraction, a-b-db, 14, 1, 5, 34, 56, 125, 135, 60, 60, 135, 1, 0.549021
346, 6, wb, attraction, a-b-db, 14, 1, 5, 34, 56, 125, 135, 60, 60, 135, 2, 0.334183
346, 6, wb, catch, NA, 999, 999, 5, 35, 187, 128, 130, 65, 149, 106, 1, 0.53467
346, 6, wb, catch, NA, 999, 999, 5, 35, 187, 128, 130, 65, 149, 106, 3, 0.528486
346, 6, wb, filler, NA, 999, 999, 5, 36, 128, 95, 162, 77, 181, 64, 1, 2.02492
346, 6, wb, filler, NA, 999, 999, 5, 36, 128, 95, 162, 77, 181, 64, 2, 0.358371
346, 6, wb, attraction, a-b-da, 5, 3, 5, 37, 190, 117, 195, 120, 120, 195, 1, 0.853492
346, 6, wb, attraction, a-b-da, 5, 3, 5, 37, 190, 117, 195, 120, 120, 195, 3, 0.666605
346, 6, wb, attraction, a-b-da, 2, 3, 6, 1, 195, 120, 193, 119, 120, 195, 1, 0.549674
346, 6, wb, attraction, a-b-da, 2, 3, 6, 1, 195, 120, 193, 119, 120, 195, 2, 0.286663
346, 6, wb, attraction, a-b-da, 5, 1, 6, 2, 132, 58, 135, 60, 60, 135, 1, 0.793123
346, 6, wb, attraction, a-b-da, 5, 1, 6, 2, 132, 58, 135, 60, 60, 135, 2, 0.552181
346, 6, wb, attraction, a-b-da, 9, 1, 6, 3, 135, 60, 129, 57, 60, 135, 1, 0.431936
346, 6, wb, attraction, a-b-da, 9, 1, 6, 3, 135, 60, 129, 57, 60, 135, 2, 0.533805
346, 6, wb, filler, NA, 999, 999, 6, 4, 186, 61, 166, 71, 112, 71, 1, 0.574248
346, 6, wb, filler, NA, 999, 999, 6, 4, 186, 61, 166, 71, 112, 71, 2, 0.47802
346, 6, wb, filler, NA, 999, 999, 6, 5, 164, 193, 96, 58, 83, 110, 2, 1.60047
346, 6, wb, filler, NA, 999, 999, 6, 5, 164, 193, 96, 58, 83, 110, 1, 0.343303
346, 6, wb, filler, NA, 999, 999, 6, 6, 118, 176, 100, 162, 181, 91, 2, 0.687142
346, 6, wb, filler, NA, 999, 999, 6, 6, 118, 176, 100, 162, 181, 91, 1, 0.522263
346, 6, wb, filler, NA, 999, 999, 6, 7, 147, 189, 169, 59, 74, 107, 2, 0.459414
346, 6, wb, filler, NA, 999, 999, 6, 7, 147, 189, 169, 59, 74, 107, 1, 0.423841
346, 6, wb, attraction, a-b-da, 5, 3, 6, 8, 190, 117, 120, 195, 195, 120, 2, 3.66832
346, 6, wb, attraction, a-b-da, 5, 3, 6, 8, 190, 117, 120, 195, 195, 120, 1, 0.535845
346, 6, wb, filler, NA, 999, 999, 6, 9, 136, 98, 176, 161, 90, 118, 2, 0.472231
346, 6, wb, filler, NA, 999, 999, 6, 9, 136, 98, 176, 161, 90, 118, 1, 0.516095
346, 6, wb, filler, NA, 999, 999, 6, 10, 57, 145, 72, 142, 178, 169, 2, 1.39714
346, 6, wb, filler, NA, 999, 999, 6, 10, 57, 145, 72, 142, 178, 169, 3, 0.516088
346, 6, wb, filler, NA, 999, 999, 6, 11, 160, 164, 185, 150, 146, 81, 3, 1.09325
346, 6, wb, filler, NA, 999, 999, 6, 11, 160, 164, 185, 150, 146, 81, 2, 0.784154
346, 6, wb, attraction, a-b-da, 5, 2, 6, 12, 90, 165, 161, 88, 165, 90, 3, 1.23863
346, 6, wb, attraction, a-b-da, 5, 2, 6, 12, 90, 165, 161, 88, 165, 90, 2, 0.451435
346, 6, wb, attraction, a-b-da, 9, 3, 6, 13, 186, 114, 120, 195, 195, 120, 1, 1.01532
346, 6, wb, attraction, a-b-da, 9, 3, 6, 13, 186, 114, 120, 195, 195, 120, 2, 0.317575
346, 6, wb, attraction, a-b-db, 2, 2, 6, 14, 90, 165, 89, 163, 165, 90, 2, 1.22286
346, 6, wb, attraction, a-b-db, 2, 2, 6, 14, 90, 165, 89, 163, 165, 90, 3, 1.13252
346, 6, wb, attraction, a-b-db, 2, 1, 6, 15, 60, 135, 135, 60, 59, 134, 2, 3.82058
346, 6, wb, attraction, a-b-db, 2, 1, 6, 15, 60, 135, 135, 60, 59, 134, 1, 0.585373
346, 6, wb, attraction, a-b-db, 9, 3, 6, 16, 114, 186, 195, 120, 120, 195, 2, 1.16782
346, 6, wb, attraction, a-b-db, 9, 3, 6, 16, 114, 186, 195, 120, 120, 195, 1, 1.11209
346, 6, wb, attraction, a-b-da, 14, 3, 6, 17, 120, 195, 181, 111, 195, 120, 3, 1.71298
346, 6, wb, attraction, a-b-da, 14, 3, 6, 17, 120, 195, 181, 111, 195, 120, 2, 1.57107
346, 6, wb, attraction, a-b-db, 14, 3, 6, 18, 195, 120, 111, 181, 120, 195, 2, 1.96189
346, 6, wb, attraction, a-b-db, 14, 3, 6, 18, 195, 120, 111, 181, 120, 195, 1, 0.482035
346, 6, wb, catch, NA, 999, 999, 6, 19, 159, 156, 86, 109, 148, 107, 2, 0.724408
346, 6, wb, catch, NA, 999, 999, 6, 19, 159, 156, 86, 109, 148, 107, 1, 0.390081
346, 6, wb, attraction, a-b-da, 2, 1, 6, 20, 60, 135, 134, 59, 135, 60, 2, 1.30791
346, 6, wb, attraction, a-b-da, 2, 1, 6, 20, 60, 135, 134, 59, 135, 60, 3, 0.614176
346, 6, wb, attraction, a-b-db, 5, 2, 6, 21, 88, 161, 165, 90, 90, 165, 3, 1.4513
346, 6, wb, attraction, a-b-db, 5, 2, 6, 21, 88, 161, 165, 90, 90, 165, 1, 0.480145
346, 6, wb, catch, NA, 999, 999, 6, 22, 135, 60, 182, 133, 159, 96, 3, 0.826748
346, 6, wb, catch, NA, 999, 999, 6, 22, 135, 60, 182, 133, 159, 96, 1, 0.648461
346, 6, wb, attraction, a-b-db, 9, 1, 6, 23, 135, 60, 57, 129, 60, 135, 1, 2.24404
346, 6, wb, attraction, a-b-db, 9, 1, 6, 23, 135, 60, 57, 129, 60, 135, 2, 0.696636
346, 6, wb, filler, NA, 999, 999, 6, 24, 125, 150, 148, 114, 73, 188, 3, 1.20232
346, 6, wb, filler, NA, 999, 999, 6, 24, 125, 150, 148, 114, 73, 188, 1, 0.537241
346, 6, wb, attraction, a-b-da, 2, 2, 6, 25, 163, 89, 165, 90, 90, 165, 3, 1.30576
346, 6, wb, attraction, a-b-da, 2, 2, 6, 25, 163, 89, 165, 90, 90, 165, 1, 0.699864
346, 6, wb, attraction, a-b-db, 5, 1, 6, 26, 58, 132, 60, 135, 135, 60, 3, 1.00567
346, 6, wb, attraction, a-b-db, 5, 1, 6, 26, 58, 132, 60, 135, 135, 60, 1, 0.419987
346, 6, wb, attraction, a-b-db, 5, 3, 6, 27, 195, 120, 117, 190, 120, 195, 3, 0.745194
346, 6, wb, attraction, a-b-db, 5, 3, 6, 27, 195, 120, 117, 190, 120, 195, 2, 0.434418
346, 6, wb, attraction, a-b-db, 14, 1, 6, 28, 56, 125, 60, 135, 135, 60, 1, 1.06281
346, 6, wb, attraction, a-b-db, 14, 1, 6, 28, 56, 125, 60, 135, 135, 60, 2, 0.995083
346, 6, wb, attraction, a-b-da, 14, 1, 6, 29, 125, 56, 60, 135, 135, 60, 3, 0.416557
346, 6, wb, attraction, a-b-da, 14, 1, 6, 29, 125, 56, 60, 135, 135, 60, 2, 0.655156
346, 6, wb, filler, NA, 999, 999, 6, 30, 177, 187, 137, 167, 127, 84, 1, 0.450889
346, 6, wb, filler, NA, 999, 999, 6, 30, 177, 187, 137, 167, 127, 84, 2, 1.30422
346, 6, wb, attraction, a-b-db, 9, 2, 6, 31, 86, 157, 165, 90, 90, 165, 1, 0.705575
346, 6, wb, attraction, a-b-db, 9, 2, 6, 31, 86, 157, 165, 90, 90, 165, 2, 0.500015
346, 6, wb, catch, NA, 999, 999, 6, 32, 153, 162, 108, 147, 102, 93, 3, 0.725772
346, 6, wb, catch, NA, 999, 999, 6, 32, 153, 162, 108, 147, 102, 93, 1, 0.719538
346, 6, wb, attraction, a-b-da, 9, 2, 6, 33, 165, 90, 157, 86, 90, 165, 1, 0.760512
346, 6, wb, attraction, a-b-da, 9, 2, 6, 33, 165, 90, 157, 86, 90, 165, 2, 0.512968
346, 6, wb, attraction, a-b-db, 14, 2, 6, 34, 83, 153, 90, 165, 165, 90, 3, 0.754202
346, 6, wb, attraction, a-b-db, 14, 2, 6, 34, 83, 153, 90, 165, 165, 90, 1, 0.594609
346, 6, wb, attraction, a-b-db, 2, 3, 6, 35, 195, 120, 120, 195, 119, 193, 2, 1.01633
346, 6, wb, attraction, a-b-db, 2, 3, 6, 35, 195, 120, 120, 195, 119, 193, 1, 0.590544
346, 6, wb, attraction, a-b-da, 14, 2, 6, 36, 153, 83, 90, 165, 165, 90, 3, 0.684356
346, 6, wb, attraction, a-b-da, 14, 2, 6, 36, 153, 83, 90, 165, 165, 90, 2, 0.368065
346, 6, wb, filler, NA, 999, 999, 6, 37, 118, 140, 187, 93, 178, 147, 1, 0.67119
346, 6, wb, filler, NA, 999, 999, 6, 37, 118, 140, 187, 93, 178, 147, 3, 0.699107
346, 6, wb, attraction, a-b-da, 2, 1, 7, 1, 60, 135, 135, 60, 134, 59, 1, 0.876719
346, 6, wb, attraction, a-b-da, 2, 1, 7, 1, 60, 135, 135, 60, 134, 59, 2, 0.3284
346, 6, wb, filler, NA, 999, 999, 7, 2, 121, 59, 173, 104, 114, 82, 1, 1.46489
346, 6, wb, filler, NA, 999, 999, 7, 2, 121, 59, 173, 104, 114, 82, 2, 0.573104
346, 6, wb, filler, NA, 999, 999, 7, 3, 102, 74, 174, 134, 73, 61, 3, 1.81159
346, 6, wb, filler, NA, 999, 999, 7, 3, 102, 74, 174, 134, 73, 61, 2, 0.329585
346, 6, wb, attraction, a-b-db, 14, 2, 7, 4, 90, 165, 165, 90, 83, 153, 1, 0.746124
346, 6, wb, attraction, a-b-db, 14, 2, 7, 4, 90, 165, 165, 90, 83, 153, 2, 0.915259
346, 6, wb, attraction, a-b-da, 14, 2, 7, 5, 90, 165, 165, 90, 153, 83, 1, 0.884311
346, 6, wb, attraction, a-b-da, 14, 2, 7, 5, 90, 165, 165, 90, 153, 83, 2, 0.519901
346, 6, wb, attraction, a-b-db, 2, 1, 7, 6, 59, 134, 135, 60, 60, 135, 2, 0.904963
346, 6, wb, attraction, a-b-db, 2, 1, 7, 6, 59, 134, 135, 60, 60, 135, 1, 0.731318
346, 6, wb, catch, NA, 999, 999, 7, 7, 126, 69, 152, 103, 188, 127, 1, 0.763725
346, 6, wb, catch, NA, 999, 999, 7, 7, 126, 69, 152, 103, 188, 127, 3, 0.516089
346, 6, wb, filler, NA, 999, 999, 7, 8, 84, 66, 86, 122, 177, 171, 1, 0.901223
346, 6, wb, filler, NA, 999, 999, 7, 8, 84, 66, 86, 122, 177, 171, 3, 0.392387
346, 6, wb, attraction, a-b-db, 14, 3, 7, 9, 120, 195, 195, 120, 111, 181, 3, 1.54207
346, 6, wb, attraction, a-b-db, 14, 3, 7, 9, 120, 195, 195, 120, 111, 181, 2, 0.671095
346, 6, wb, attraction, a-b-da, 9, 2, 7, 10, 90, 165, 157, 86, 165, 90, 1, 0.962
346, 6, wb, attraction, a-b-da, 9, 2, 7, 10, 90, 165, 157, 86, 165, 90, 2, 0.362365
346, 6, wb, attraction, a-b-db, 9, 2, 7, 11, 86, 157, 90, 165, 165, 90, 1, 0.881491
346, 6, wb, attraction, a-b-db, 9, 2, 7, 11, 86, 157, 90, 165, 165, 90, 2, 0.405195
346, 6, wb, attraction, a-b-db, 2, 3, 7, 12, 119, 193, 120, 195, 195, 120, 1, 1.251
346, 6, wb, attraction, a-b-db, 2, 3, 7, 12, 119, 193, 120, 195, 195, 120, 2, 0.231967
346, 6, wb, attraction, a-b-da, 2, 2, 7, 13, 90, 165, 163, 89, 165, 90, 1, 0.556445
346, 6, wb, attraction, a-b-da, 2, 2, 7, 13, 90, 165, 163, 89, 165, 90, 2, 0.556871
346, 6, wb, attraction, a-b-db, 2, 2, 7, 14, 89, 163, 165, 90, 90, 165, 1, 0.508053
346, 6, wb, attraction, a-b-db, 2, 2, 7, 14, 89, 163, 165, 90, 90, 165, 2, 0.3105
346, 6, wb, filler, NA, 999, 999, 7, 15, 177, 125, 82, 81, 129, 93, 2, 0.943683
346, 6, wb, filler, NA, 999, 999, 7, 15, 177, 125, 82, 81, 129, 93, 1, 0.264696
346, 6, wb, attraction, a-b-da, 5, 2, 7, 16, 90, 165, 161, 88, 165, 90, 1, 0.827999
346, 6, wb, attraction, a-b-da, 5, 2, 7, 16, 90, 165, 161, 88, 165, 90, 2, 0.585704
346, 6, wb, attraction, a-b-db, 9, 1, 7, 17, 57, 129, 135, 60, 60, 135, 2, 0.647999
346, 6, wb, attraction, a-b-db, 9, 1, 7, 17, 57, 129, 135, 60, 60, 135, 1, 0.661166
346, 6, wb, filler, NA, 999, 999, 7, 18, 139, 88, 105, 195, 123, 170, 1, 0.712208
346, 6, wb, filler, NA, 999, 999, 7, 18, 139, 88, 105, 195, 123, 170, 2, 0.354666
346, 6, wb, catch, NA, 999, 999, 7, 19, 184, 131, 134, 61, 100, 155, 2, 1.13046
346, 6, wb, catch, NA, 999, 999, 7, 19, 184, 131, 134, 61, 100, 155, 1, 0.356108
346, 6, wb, attraction, a-b-db, 5, 1, 7, 20, 58, 132, 60, 135, 135, 60, 1, 0.811189
346, 6, wb, attraction, a-b-db, 5, 1, 7, 20, 58, 132, 60, 135, 135, 60, 2, 0.27367
346, 6, wb, attraction, a-b-da, 2, 3, 7, 21, 120, 195, 193, 119, 195, 120, 2, 0.740131
346, 6, wb, attraction, a-b-da, 2, 3, 7, 21, 120, 195, 193, 119, 195, 120, 1, 0.717265
346, 6, wb, attraction, a-b-da, 14, 3, 7, 22, 120, 195, 181, 111, 195, 120, 1, 1.77419
346, 6, wb, attraction, a-b-da, 14, 3, 7, 22, 120, 195, 181, 111, 195, 120, 2, 0.285748
346, 6, wb, filler, NA, 999, 999, 7, 23, 163, 178, 89, 189, 73, 108, 3, 1.03222
346, 6, wb, filler, NA, 999, 999, 7, 23, 163, 178, 89, 189, 73, 108, 1, 0.405954
346, 6, wb, filler, NA, 999, 999, 7, 24, 110, 78, 95, 108, 73, 144, 2, 1.20367
346, 6, wb, filler, NA, 999, 999, 7, 24, 110, 78, 95, 108, 73, 144, 1, 0.48255
346, 6, wb, filler, NA, 999, 999, 7, 25, 149, 186, 79, 181, 142, 140, 2, 0.73303
346, 6, wb, filler, NA, 999, 999, 7, 25, 149, 186, 79, 181, 142, 140, 1, 0.510921
346, 6, wb, attraction, a-b-da, 9, 3, 7, 26, 120, 195, 186, 114, 195, 120, 1, 1.40005
346, 6, wb, attraction, a-b-da, 9, 3, 7, 26, 120, 195, 186, 114, 195, 120, 2, 0.558809
346, 6, wb, filler, NA, 999, 999, 7, 27, 192, 91, 76, 72, 170, 165, 2, 0.637848
346, 6, wb, filler, NA, 999, 999, 7, 27, 192, 91, 76, 72, 170, 165, 1, 1.01096
346, 6, wb, attraction, a-b-da, 5, 3, 7, 28, 120, 195, 190, 117, 195, 120, 2, 2.0719
346, 6, wb, attraction, a-b-da, 5, 3, 7, 28, 120, 195, 190, 117, 195, 120, 1, 0.339285
346, 6, wb, attraction, a-b-da, 14, 1, 7, 29, 60, 135, 125, 56, 135, 60, 2, 0.979095
346, 6, wb, attraction, a-b-da, 14, 1, 7, 29, 60, 135, 125, 56, 135, 60, 3, 0.474733
346, 6, wb, attraction, a-b-db, 5, 2, 7, 30, 90, 165, 88, 161, 165, 90, 2, 0.661161
346, 6, wb, attraction, a-b-db, 5, 2, 7, 30, 90, 165, 88, 161, 165, 90, 1, 0.345783
346, 6, wb, attraction, a-b-da, 9, 1, 7, 31, 129, 57, 60, 135, 135, 60, 2, 0.481539
346, 6, wb, attraction, a-b-da, 9, 1, 7, 31, 129, 57, 60, 135, 135, 60, 1, 0.781305
346, 6, wb, attraction, a-b-db, 14, 1, 7, 32, 60, 135, 56, 125, 135, 60, 2, 0.779703
346, 6, wb, attraction, a-b-db, 14, 1, 7, 32, 60, 135, 56, 125, 135, 60, 3, 0.371429
346, 6, wb, attraction, a-b-da, 5, 1, 7, 33, 60, 135, 135, 60, 132, 58, 2, 0.762589
346, 6, wb, attraction, a-b-da, 5, 1, 7, 33, 60, 135, 135, 60, 132, 58, 1, 0.594991
346, 6, wb, filler, NA, 999, 999, 7, 34, 74, 179, 100, 184, 105, 167, 2, 0.368741
346, 6, wb, filler, NA, 999, 999, 7, 34, 74, 179, 100, 184, 105, 167, 1, 1.08136
346, 6, wb, attraction, a-b-db, 5, 3, 7, 35, 117, 190, 195, 120, 120, 195, 2, 0.867619
346, 6, wb, attraction, a-b-db, 5, 3, 7, 35, 117, 190, 195, 120, 120, 195, 1, 0.471936
346, 6, wb, attraction, a-b-db, 9, 3, 7, 36, 114, 186, 195, 120, 120, 195, 1, 1.04297
346, 6, wb, attraction, a-b-db, 9, 3, 7, 36, 114, 186, 195, 120, 120, 195, 2, 0.519957
346, 6, wb, catch, NA, 999, 999, 7, 37, 112, 83, 139, 116, 195, 120, 1, 0.67307
346, 6, wb, catch, NA, 999, 999, 7, 37, 112, 83, 139, 116, 195, 120, 2, 0.236832
346, 6, wb, attraction, a-b-db, 2, 1, 8, 1, 135, 60, 59, 134, 60, 135, 1, 0.69752
346, 6, wb, attraction, a-b-db, 2, 1, 8, 1, 135, 60, 59, 134, 60, 135, 2, 0.252571
346, 6, wb, filler, NA, 999, 999, 8, 2, 76, 138, 93, 66, 141, 84, 2, 0.688374
346, 6, wb, filler, NA, 999, 999, 8, 2, 76, 138, 93, 66, 141, 84, 1, 0.291416
346, 6, wb, attraction, a-b-da, 14, 1, 8, 3, 60, 135, 135, 60, 125, 56, 1, 0.741315
346, 6, wb, attraction, a-b-da, 14, 1, 8, 3, 60, 135, 135, 60, 125, 56, 2, 0.230348
346, 6, wb, filler, NA, 999, 999, 8, 4, 151, 67, 63, 108, 129, 82, 2, 0.930878
346, 6, wb, filler, NA, 999, 999, 8, 4, 151, 67, 63, 108, 129, 82, 1, 0.588661
346, 6, wb, catch, NA, 999, 999, 8, 5, 66, 129, 148, 167, 122, 133, 1, 1.12298
346, 6, wb, catch, NA, 999, 999, 8, 5, 66, 129, 148, 167, 122, 133, 2, 0.24461
346, 6, wb, attraction, a-b-da, 9, 3, 8, 6, 195, 120, 120, 195, 186, 114, 3, 0.776522
346, 6, wb, attraction, a-b-da, 9, 3, 8, 6, 195, 120, 120, 195, 186, 114, 2, 0.320194
346, 6, wb, attraction, a-b-db, 2, 2, 8, 7, 90, 165, 89, 163, 165, 90, 1, 0.537358
346, 6, wb, attraction, a-b-db, 2, 2, 8, 7, 90, 165, 89, 163, 165, 90, 2, 0.322651
346, 6, wb, attraction, a-b-db, 5, 2, 8, 8, 165, 90, 90, 165, 88, 161, 1, 0.658989
346, 6, wb, attraction, a-b-db, 5, 2, 8, 8, 165, 90, 90, 165, 88, 161, 2, 0.679477
346, 6, wb, attraction, a-b-db, 9, 3, 8, 9, 120, 195, 114, 186, 195, 120, 1, 0.530082
346, 6, wb, attraction, a-b-db, 9, 3, 8, 9, 120, 195, 114, 186, 195, 120, 2, 1.3477
346, 6, wb, attraction, a-b-db, 14, 3, 8, 10, 195, 120, 111, 181, 120, 195, 2, 0.827197
346, 6, wb, attraction, a-b-db, 14, 3, 8, 10, 195, 120, 111, 181, 120, 195, 1, 1.02491
346, 6, wb, attraction, a-b-db, 5, 3, 8, 11, 117, 190, 195, 120, 120, 195, 3, 1.46126
346, 6, wb, attraction, a-b-db, 5, 3, 8, 11, 117, 190, 195, 120, 120, 195, 2, 0.32935
346, 6, wb, attraction, a-b-db, 2, 3, 8, 12, 195, 120, 119, 193, 120, 195, 3, 1.23385
346, 6, wb, attraction, a-b-db, 2, 3, 8, 12, 195, 120, 119, 193, 120, 195, 2, 0.311455
346, 6, wb, filler, NA, 999, 999, 8, 13, 134, 108, 177, 179, 124, 110, 1, 0.512608
346, 6, wb, filler, NA, 999, 999, 8, 13, 134, 108, 177, 179, 124, 110, 2, 0.251131
346, 6, wb, catch, NA, 999, 999, 8, 14, 98, 97, 172, 143, 133, 122, 1, 0.495166
346, 6, wb, catch, NA, 999, 999, 8, 14, 98, 97, 172, 143, 133, 122, 2, 0.250116
346, 6, wb, filler, NA, 999, 999, 8, 15, 143, 159, 120, 174, 138, 186, 2, 0.822114
346, 6, wb, filler, NA, 999, 999, 8, 15, 143, 159, 120, 174, 138, 186, 1, 0.251831
346, 6, wb, filler, NA, 999, 999, 8, 16, 71, 134, 95, 109, 66, 82, 3, 0.895655
346, 6, wb, filler, NA, 999, 999, 8, 16, 71, 134, 95, 109, 66, 82, 2, 0.282642
346, 6, wb, attraction, a-b-da, 2, 2, 8, 17, 165, 90, 90, 165, 163, 89, 3, 0.669161
346, 6, wb, attraction, a-b-da, 2, 2, 8, 17, 165, 90, 90, 165, 163, 89, 2, 0.545616
346, 6, wb, attraction, a-b-da, 9, 1, 8, 18, 129, 57, 60, 135, 135, 60, 1, 0.481315
346, 6, wb, attraction, a-b-da, 9, 1, 8, 18, 129, 57, 60, 135, 135, 60, 2, 0.829186
346, 6, wb, attraction, a-b-da, 9, 2, 8, 19, 90, 165, 165, 90, 157, 86, 1, 0.489579
346, 6, wb, attraction, a-b-da, 9, 2, 8, 19, 90, 165, 165, 90, 157, 86, 2, 0.532615
346, 6, wb, filler, NA, 999, 999, 8, 20, 161, 150, 183, 151, 116, 120, 3, 0.677132
346, 6, wb, filler, NA, 999, 999, 8, 20, 161, 150, 183, 151, 116, 120, 2, 0.680923
346, 6, wb, attraction, a-b-db, 14, 2, 8, 21, 90, 165, 83, 153, 165, 90, 1, 0.643364
346, 6, wb, attraction, a-b-db, 14, 2, 8, 21, 90, 165, 83, 153, 165, 90, 2, 0.480451
346, 6, wb, filler, NA, 999, 999, 8, 22, 88, 193, 170, 166, 171, 133, 1, 0.482829
346, 6, wb, filler, NA, 999, 999, 8, 22, 88, 193, 170, 166, 171, 133, 2, 0.742641
346, 6, wb, attraction, a-b-db, 9, 1, 8, 23, 135, 60, 57, 129, 60, 135, 2, 0.990371
346, 6, wb, attraction, a-b-db, 9, 1, 8, 23, 135, 60, 57, 129, 60, 135, 1, 0.653411
346, 6, wb, filler, NA, 999, 999, 8, 24, 133, 164, 136, 73, 94, 136, 2, 0.585082
346, 6, wb, filler, NA, 999, 999, 8, 24, 133, 164, 136, 73, 94, 136, 1, 0.416904
346, 6, wb, attraction, a-b-da, 14, 3, 8, 25, 195, 120, 120, 195, 181, 111, 2, 0.633027
346, 6, wb, attraction, a-b-da, 14, 3, 8, 25, 195, 120, 120, 195, 181, 111, 3, 0.835759
346, 6, wb, attraction, a-b-da, 2, 1, 8, 26, 134, 59, 60, 135, 135, 60, 2, 0.760186
346, 6, wb, attraction, a-b-da, 2, 1, 8, 26, 134, 59, 60, 135, 135, 60, 1, 1.00058
346, 6, wb, attraction, a-b-db, 14, 1, 8, 27, 60, 135, 135, 60, 56, 125, 2, 0.478359
346, 6, wb, attraction, a-b-db, 14, 1, 8, 27, 60, 135, 135, 60, 56, 125, 1, 0.306012
346, 6, wb, attraction, a-b-da, 14, 2, 8, 28, 165, 90, 153, 83, 90, 165, 3, 0.787289
346, 6, wb, attraction, a-b-da, 14, 2, 8, 28, 165, 90, 153, 83, 90, 165, 2, 0.266282
346, 6, wb, attraction, a-b-da, 5, 3, 8, 29, 120, 195, 195, 120, 190, 117, 1, 0.901448
346, 6, wb, attraction, a-b-da, 5, 3, 8, 29, 120, 195, 195, 120, 190, 117, 2, 0.41663
346, 6, wb, attraction, a-b-db, 9, 2, 8, 30, 90, 165, 165, 90, 86, 157, 1, 0.589547
346, 6, wb, attraction, a-b-db, 9, 2, 8, 30, 90, 165, 165, 90, 86, 157, 2, 0.404742
346, 6, wb, catch, NA, 999, 999, 8, 31, 134, 61, 140, 115, 133, 182, 3, 0.466572
346, 6, wb, catch, NA, 999, 999, 8, 31, 134, 61, 140, 115, 133, 182, 1, 1.5912
346, 6, wb, attraction, a-b-da, 5, 2, 8, 32, 90, 165, 161, 88, 165, 90, 2, 0.54847
346, 6, wb, attraction, a-b-da, 5, 2, 8, 32, 90, 165, 161, 88, 165, 90, 1, 0.733714
346, 6, wb, attraction, a-b-da, 5, 1, 8, 33, 60, 135, 135, 60, 132, 58, 1, 0.845974
346, 6, wb, attraction, a-b-da, 5, 1, 8, 33, 60, 135, 135, 60, 132, 58, 2, 0.611001
346, 6, wb, attraction, a-b-db, 5, 1, 8, 34, 60, 135, 58, 132, 135, 60, 2, 0.760115
346, 6, wb, attraction, a-b-db, 5, 1, 8, 34, 60, 135, 58, 132, 135, 60, 3, 0.384564
346, 6, wb, filler, NA, 999, 999, 8, 35, 138, 148, 156, 86, 147, 135, 2, 1.62309
346, 6, wb, filler, NA, 999, 999, 8, 35, 138, 148, 156, 86, 147, 135, 1, 0.380443
346, 6, wb, filler, NA, 999, 999, 8, 36, 113, 105, 60, 185, 56, 135, 3, 1.13092
346, 6, wb, filler, NA, 999, 999, 8, 36, 113, 105, 60, 185, 56, 135, 2, 0.580551
346, 6, wb, attraction, a-b-da, 2, 3, 8, 37, 193, 119, 195, 120, 120, 195, 2, 1.73106
346, 6, wb, attraction, a-b-da, 2, 3, 8, 37, 193, 119, 195, 120, 120, 195, 1, 0.700412
