sub_n, computer_n, bw_cond, effect, set, distance, diag, block_n, trial_n, h1, w1, h2, w2, h3, w3, choice, rt 
323, 6, bw, practice, NA, 999, 999, 0, 1, 191, 149, 89, 165, 92, 161, 1, 2.8088
323, 6, bw, practice, NA, 999, 999, 0, 1, 191, 149, 89, 165, 92, 161, 2, 3.8801
323, 6, bw, practice, NA, 999, 999, 0, 2, 126, 125, 128, 167, 150, 92, 2, 4.45413
323, 6, bw, practice, NA, 999, 999, 0, 2, 126, 125, 128, 167, 150, 92, 3, 4.77035
323, 6, bw, practice, NA, 999, 999, 0, 3, 88, 56, 59, 119, 68, 129, 3, 2.9975
323, 6, bw, practice, NA, 999, 999, 0, 3, 88, 56, 59, 119, 68, 129, 1, 2.00288
323, 6, bw, filler, NA, 999, 999, 1, 1, 76, 126, 193, 134, 137, 74, 2, 2.21586
323, 6, bw, filler, NA, 999, 999, 1, 1, 76, 126, 193, 134, 137, 74, 1, 1.34182
323, 6, bw, attraction, a-b-db, 2, 1, 1, 2, 135, 60, 59, 134, 60, 135, 1, 5.80539
323, 6, bw, attraction, a-b-db, 2, 1, 1, 2, 135, 60, 59, 134, 60, 135, 2, 1.13883
323, 6, bw, filler, NA, 999, 999, 1, 3, 85, 106, 139, 123, 161, 176, 3, 1.69908
323, 6, bw, filler, NA, 999, 999, 1, 3, 85, 106, 139, 123, 161, 176, 1, 1.09387
323, 6, bw, attraction, a-b-da, 14, 1, 1, 4, 60, 135, 125, 56, 135, 60, 2, 7.74348
323, 6, bw, attraction, a-b-da, 14, 1, 1, 4, 60, 135, 125, 56, 135, 60, 3, 1.07036
323, 6, bw, attraction, a-b-da, 14, 3, 1, 5, 120, 195, 195, 120, 181, 111, 1, 3.41728
323, 6, bw, attraction, a-b-da, 14, 3, 1, 5, 120, 195, 195, 120, 181, 111, 3, 1.39887
323, 6, bw, attraction, a-b-da, 9, 1, 1, 6, 60, 135, 135, 60, 129, 57, 2, 2.82031
323, 6, bw, attraction, a-b-da, 9, 1, 1, 6, 60, 135, 135, 60, 129, 57, 3, 1.53821
323, 6, bw, filler, NA, 999, 999, 1, 7, 104, 151, 148, 60, 191, 142, 3, 1.80221
323, 6, bw, filler, NA, 999, 999, 1, 7, 104, 151, 148, 60, 191, 142, 2, 1.409
323, 6, bw, attraction, a-b-da, 5, 3, 1, 8, 195, 120, 190, 117, 120, 195, 3, 2.29381
323, 6, bw, attraction, a-b-da, 5, 3, 1, 8, 195, 120, 190, 117, 120, 195, 2, 1.38451
323, 6, bw, attraction, a-b-da, 9, 3, 1, 9, 195, 120, 120, 195, 186, 114, 2, 1.89464
323, 6, bw, attraction, a-b-da, 9, 3, 1, 9, 195, 120, 120, 195, 186, 114, 1, 3.05733
323, 6, bw, attraction, a-b-db, 14, 3, 1, 10, 195, 120, 111, 181, 120, 195, 1, 3.17977
323, 6, bw, attraction, a-b-db, 14, 3, 1, 10, 195, 120, 111, 181, 120, 195, 2, 3.57861
323, 6, bw, attraction, a-b-da, 5, 2, 1, 11, 165, 90, 161, 88, 90, 165, 3, 8.12822
323, 6, bw, attraction, a-b-da, 5, 2, 1, 11, 165, 90, 161, 88, 90, 165, 2, 1.3035
323, 6, bw, attraction, a-b-db, 14, 1, 1, 12, 60, 135, 56, 125, 135, 60, 3, 2.08907
323, 6, bw, attraction, a-b-db, 14, 1, 1, 12, 60, 135, 56, 125, 135, 60, 2, 1.04368
323, 6, bw, attraction, a-b-db, 9, 2, 1, 13, 165, 90, 86, 157, 90, 165, 1, 7.16737
323, 6, bw, attraction, a-b-db, 9, 2, 1, 13, 165, 90, 86, 157, 90, 165, 3, 1.36575
323, 6, bw, filler, NA, 999, 999, 1, 14, 124, 111, 119, 141, 157, 103, 2, 2.11652
323, 6, bw, filler, NA, 999, 999, 1, 14, 124, 111, 119, 141, 157, 103, 3, 2.08657
323, 6, bw, filler, NA, 999, 999, 1, 15, 119, 136, 189, 91, 66, 146, 2, 3.14447
323, 6, bw, filler, NA, 999, 999, 1, 15, 119, 136, 189, 91, 66, 146, 3, 2.24086
323, 6, bw, attraction, a-b-db, 14, 2, 1, 16, 90, 165, 165, 90, 83, 153, 1, 4.30009
323, 6, bw, attraction, a-b-db, 14, 2, 1, 16, 90, 165, 165, 90, 83, 153, 2, 1.28597
323, 6, bw, attraction, a-b-da, 9, 2, 1, 17, 165, 90, 157, 86, 90, 165, 3, 4.81624
323, 6, bw, attraction, a-b-da, 9, 2, 1, 17, 165, 90, 157, 86, 90, 165, 1, 1.32533
323, 6, bw, filler, NA, 999, 999, 1, 18, 112, 185, 69, 104, 137, 77, 1, 2.94155
323, 6, bw, filler, NA, 999, 999, 1, 18, 112, 185, 69, 104, 137, 77, 2, 0.821943
323, 6, bw, attraction, a-b-da, 14, 2, 1, 19, 153, 83, 165, 90, 90, 165, 3, 5.011
323, 6, bw, attraction, a-b-da, 14, 2, 1, 19, 153, 83, 165, 90, 90, 165, 1, 1.15202
323, 6, bw, attraction, a-b-db, 9, 3, 1, 20, 114, 186, 195, 120, 120, 195, 2, 5.04757
323, 6, bw, attraction, a-b-db, 9, 3, 1, 20, 114, 186, 195, 120, 120, 195, 1, 1.86734
323, 6, bw, attraction, a-b-da, 2, 1, 1, 21, 134, 59, 60, 135, 135, 60, 1, 2.96604
323, 6, bw, attraction, a-b-da, 2, 1, 1, 21, 134, 59, 60, 135, 135, 60, 3, 3.74974
323, 6, bw, attraction, a-b-da, 5, 1, 1, 22, 60, 135, 132, 58, 135, 60, 3, 5.64449
323, 6, bw, attraction, a-b-da, 5, 1, 1, 22, 60, 135, 132, 58, 135, 60, 2, 1.10415
323, 6, bw, catch, NA, 999, 999, 1, 23, 126, 129, 138, 177, 120, 75, 2, 3.02575
323, 6, bw, catch, NA, 999, 999, 1, 23, 126, 129, 138, 177, 120, 75, 3, 1.36672
323, 6, bw, attraction, a-b-db, 5, 2, 1, 24, 90, 165, 88, 161, 165, 90, 3, 2.70957
323, 6, bw, attraction, a-b-db, 5, 2, 1, 24, 90, 165, 88, 161, 165, 90, 1, 1.05535
323, 6, bw, filler, NA, 999, 999, 1, 25, 107, 56, 173, 84, 102, 115, 2, 3.011
323, 6, bw, filler, NA, 999, 999, 1, 25, 107, 56, 173, 84, 102, 115, 1, 1.72867
323, 6, bw, catch, NA, 999, 999, 1, 26, 78, 117, 165, 150, 92, 163, 3, 4.31286
323, 6, bw, catch, NA, 999, 999, 1, 26, 78, 117, 165, 150, 92, 163, 1, 2.30607
323, 6, bw, catch, NA, 999, 999, 1, 27, 96, 99, 103, 152, 172, 143, 2, 2.56325
323, 6, bw, catch, NA, 999, 999, 1, 27, 96, 99, 103, 152, 172, 143, 1, 1.60311
323, 6, bw, attraction, a-b-db, 9, 1, 1, 28, 60, 135, 57, 129, 135, 60, 3, 4.92066
323, 6, bw, attraction, a-b-db, 9, 1, 1, 28, 60, 135, 57, 129, 135, 60, 2, 1.57771
323, 6, bw, attraction, a-b-da, 2, 2, 1, 29, 165, 90, 90, 165, 163, 89, 1, 5.7517
323, 6, bw, attraction, a-b-da, 2, 2, 1, 29, 165, 90, 90, 165, 163, 89, 2, 1.53524
323, 6, bw, attraction, a-b-db, 5, 1, 1, 30, 60, 135, 135, 60, 58, 132, 1, 2.47934
323, 6, bw, attraction, a-b-db, 5, 1, 1, 30, 60, 135, 135, 60, 58, 132, 2, 2.48259
323, 6, bw, attraction, a-b-db, 5, 3, 1, 31, 117, 190, 120, 195, 195, 120, 3, 5.80438
323, 6, bw, attraction, a-b-db, 5, 3, 1, 31, 117, 190, 120, 195, 195, 120, 1, 1.46589
323, 6, bw, filler, NA, 999, 999, 1, 32, 190, 180, 157, 182, 154, 117, 3, 7.12481
323, 6, bw, filler, NA, 999, 999, 1, 32, 190, 180, 157, 182, 154, 117, 2, 3.54851
323, 6, bw, attraction, a-b-db, 2, 2, 1, 33, 89, 163, 90, 165, 165, 90, 3, 1.65122
323, 6, bw, attraction, a-b-db, 2, 2, 1, 33, 89, 163, 90, 165, 165, 90, 1, 1.79203
323, 6, bw, filler, NA, 999, 999, 1, 34, 97, 195, 91, 125, 191, 132, 3, 3.12546
323, 6, bw, filler, NA, 999, 999, 1, 34, 97, 195, 91, 125, 191, 132, 2, 1.09447
323, 6, bw, filler, NA, 999, 999, 1, 35, 121, 122, 187, 112, 63, 97, 2, 1.50407
323, 6, bw, filler, NA, 999, 999, 1, 35, 121, 122, 187, 112, 63, 97, 3, 0.858988
323, 6, bw, attraction, a-b-da, 2, 3, 1, 36, 193, 119, 120, 195, 195, 120, 2, 3.68591
323, 6, bw, attraction, a-b-da, 2, 3, 1, 36, 193, 119, 120, 195, 195, 120, 1, 2.80884
323, 6, bw, attraction, a-b-db, 2, 3, 1, 37, 120, 195, 119, 193, 195, 120, 1, 2.34912
323, 6, bw, attraction, a-b-db, 2, 3, 1, 37, 120, 195, 119, 193, 195, 120, 3, 2.3657
323, 6, bw, attraction, a-b-db, 2, 3, 2, 1, 120, 195, 195, 120, 119, 193, 2, 4.14823
323, 6, bw, attraction, a-b-db, 2, 3, 2, 1, 120, 195, 195, 120, 119, 193, 3, 3.45242
323, 6, bw, filler, NA, 999, 999, 2, 2, 66, 152, 130, 78, 126, 92, 3, 3.38324
323, 6, bw, filler, NA, 999, 999, 2, 2, 66, 152, 130, 78, 126, 92, 1, 2.02202
323, 6, bw, attraction, a-b-db, 5, 2, 2, 3, 88, 161, 90, 165, 165, 90, 2, 9.34662
323, 6, bw, attraction, a-b-db, 5, 2, 2, 3, 88, 161, 90, 165, 165, 90, 3, 0.633142
323, 6, bw, attraction, a-b-db, 2, 1, 2, 4, 60, 135, 59, 134, 135, 60, 3, 5.21352
323, 6, bw, attraction, a-b-db, 2, 1, 2, 4, 60, 135, 59, 134, 135, 60, 1, 1.37049
323, 6, bw, attraction, a-b-db, 9, 2, 2, 5, 90, 165, 86, 157, 165, 90, 1, 2.26528
323, 6, bw, attraction, a-b-db, 9, 2, 2, 5, 90, 165, 86, 157, 165, 90, 3, 1.39725
323, 6, bw, filler, NA, 999, 999, 2, 6, 116, 169, 169, 135, 65, 119, 2, 4.02675
323, 6, bw, filler, NA, 999, 999, 2, 6, 116, 169, 169, 135, 65, 119, 3, 1.35153
323, 6, bw, filler, NA, 999, 999, 2, 7, 154, 113, 173, 57, 59, 193, 1, 1.18299
323, 6, bw, filler, NA, 999, 999, 2, 7, 154, 113, 173, 57, 59, 193, 2, 2.33464
323, 6, bw, filler, NA, 999, 999, 2, 8, 63, 118, 141, 81, 116, 75, 2, 2.07845
323, 6, bw, filler, NA, 999, 999, 2, 8, 63, 118, 141, 81, 116, 75, 1, 1.66578
323, 6, bw, filler, NA, 999, 999, 2, 9, 121, 131, 137, 194, 162, 185, 3, 2.05257
323, 6, bw, filler, NA, 999, 999, 2, 9, 121, 131, 137, 194, 162, 185, 1, 0.697217
323, 6, bw, attraction, a-b-da, 9, 1, 2, 10, 60, 135, 135, 60, 129, 57, 3, 5.89909
323, 6, bw, attraction, a-b-da, 9, 1, 2, 10, 60, 135, 135, 60, 129, 57, 2, 2.31655
323, 6, bw, attraction, a-b-da, 2, 2, 2, 11, 165, 90, 90, 165, 163, 89, 3, 3.28493
323, 6, bw, attraction, a-b-da, 2, 2, 2, 11, 165, 90, 90, 165, 163, 89, 2, 1.74408
323, 6, bw, filler, NA, 999, 999, 2, 12, 152, 183, 115, 113, 105, 116, 1, 1.13529
323, 6, bw, filler, NA, 999, 999, 2, 12, 152, 183, 115, 113, 105, 116, 3, 1.7529
323, 6, bw, attraction, a-b-da, 5, 3, 2, 13, 195, 120, 190, 117, 120, 195, 3, 8.24848
323, 6, bw, attraction, a-b-da, 5, 3, 2, 13, 195, 120, 190, 117, 120, 195, 1, 5.05908
323, 6, bw, attraction, a-b-da, 9, 2, 2, 14, 90, 165, 165, 90, 157, 86, 1, 5.43677
323, 6, bw, attraction, a-b-da, 9, 2, 2, 14, 90, 165, 165, 90, 157, 86, 2, 1.97701
323, 6, bw, attraction, a-b-db, 14, 1, 2, 15, 56, 125, 135, 60, 60, 135, 3, 6.55906
323, 6, bw, attraction, a-b-db, 14, 1, 2, 15, 56, 125, 135, 60, 60, 135, 1, 0.701567
323, 6, bw, filler, NA, 999, 999, 2, 16, 136, 60, 83, 154, 65, 64, 2, 3.85529
323, 6, bw, filler, NA, 999, 999, 2, 16, 136, 60, 83, 154, 65, 64, 1, 3.40278
323, 6, bw, attraction, a-b-da, 2, 1, 2, 17, 135, 60, 134, 59, 60, 135, 3, 6.63161
323, 6, bw, attraction, a-b-da, 2, 1, 2, 17, 135, 60, 134, 59, 60, 135, 2, 1.25954
323, 6, bw, attraction, a-b-da, 5, 1, 2, 18, 132, 58, 135, 60, 60, 135, 3, 2.58245
323, 6, bw, attraction, a-b-da, 5, 1, 2, 18, 132, 58, 135, 60, 60, 135, 1, 1.27754
323, 6, bw, attraction, a-b-da, 9, 3, 2, 19, 195, 120, 186, 114, 120, 195, 3, 2.83985
323, 6, bw, attraction, a-b-da, 9, 3, 2, 19, 195, 120, 186, 114, 120, 195, 1, 2.50822
323, 6, bw, attraction, a-b-db, 2, 2, 2, 20, 90, 165, 165, 90, 89, 163, 2, 7.81265
323, 6, bw, attraction, a-b-db, 2, 2, 2, 20, 90, 165, 165, 90, 89, 163, 1, 2.52099
323, 6, bw, attraction, a-b-da, 14, 1, 2, 21, 60, 135, 125, 56, 135, 60, 3, 16.0334
323, 6, bw, attraction, a-b-da, 14, 1, 2, 21, 60, 135, 125, 56, 135, 60, 1, 1.56239
323, 6, bw, attraction, a-b-db, 5, 3, 2, 22, 117, 190, 120, 195, 195, 120, 2, 8.27314
323, 6, bw, attraction, a-b-db, 5, 3, 2, 22, 117, 190, 120, 195, 195, 120, 1, 2.33069
323, 6, bw, filler, NA, 999, 999, 2, 23, 175, 136, 99, 195, 137, 124, 1, 3.77854
323, 6, bw, filler, NA, 999, 999, 2, 23, 175, 136, 99, 195, 137, 124, 3, 1.0412
323, 6, bw, attraction, a-b-da, 5, 2, 2, 24, 165, 90, 161, 88, 90, 165, 3, 2.69292
323, 6, bw, attraction, a-b-da, 5, 2, 2, 24, 165, 90, 161, 88, 90, 165, 2, 2.97533
323, 6, bw, attraction, a-b-db, 9, 1, 2, 25, 57, 129, 135, 60, 60, 135, 3, 2.39701
323, 6, bw, attraction, a-b-db, 9, 1, 2, 25, 57, 129, 135, 60, 60, 135, 1, 1.25149
323, 6, bw, catch, NA, 999, 999, 2, 26, 163, 152, 110, 145, 121, 74, 1, 8.14304
323, 6, bw, catch, NA, 999, 999, 2, 26, 163, 152, 110, 145, 121, 74, 3, 1.27782
323, 6, bw, filler, NA, 999, 999, 2, 27, 72, 123, 59, 76, 112, 67, 1, 4.24795
323, 6, bw, filler, NA, 999, 999, 2, 27, 72, 123, 59, 76, 112, 67, 2, 1.20414
323, 6, bw, attraction, a-b-db, 14, 2, 2, 28, 165, 90, 83, 153, 90, 165, 3, 2.40167
323, 6, bw, attraction, a-b-db, 14, 2, 2, 28, 165, 90, 83, 153, 90, 165, 2, 1.13616
323, 6, bw, attraction, a-b-db, 9, 3, 2, 29, 114, 186, 195, 120, 120, 195, 2, 3.0324
323, 6, bw, attraction, a-b-db, 9, 3, 2, 29, 114, 186, 195, 120, 120, 195, 1, 1.09345
323, 6, bw, attraction, a-b-da, 14, 2, 2, 30, 153, 83, 90, 165, 165, 90, 3, 2.41498
323, 6, bw, attraction, a-b-da, 14, 2, 2, 30, 153, 83, 90, 165, 165, 90, 1, 0.852904
323, 6, bw, attraction, a-b-db, 5, 1, 2, 31, 58, 132, 60, 135, 135, 60, 3, 2.16057
323, 6, bw, attraction, a-b-db, 5, 1, 2, 31, 58, 132, 60, 135, 135, 60, 1, 0.978585
323, 6, bw, catch, NA, 999, 999, 2, 32, 83, 112, 90, 165, 181, 134, 3, 1.17487
323, 6, bw, catch, NA, 999, 999, 2, 32, 83, 112, 90, 165, 181, 134, 1, 0.774549
323, 6, bw, catch, NA, 999, 999, 2, 33, 162, 153, 110, 85, 111, 144, 1, 1.18875
323, 6, bw, catch, NA, 999, 999, 2, 33, 162, 153, 110, 85, 111, 144, 2, 0.939802
323, 6, bw, attraction, a-b-da, 14, 3, 2, 34, 195, 120, 181, 111, 120, 195, 3, 5.16345
323, 6, bw, attraction, a-b-da, 14, 3, 2, 34, 195, 120, 181, 111, 120, 195, 2, 0.594481
323, 6, bw, filler, NA, 999, 999, 2, 35, 82, 57, 158, 99, 66, 111, 2, 1.24019
323, 6, bw, filler, NA, 999, 999, 2, 35, 82, 57, 158, 99, 66, 111, 1, 0.701102
323, 6, bw, attraction, a-b-da, 2, 3, 2, 36, 195, 120, 193, 119, 120, 195, 1, 3.47085
323, 6, bw, attraction, a-b-da, 2, 3, 2, 36, 195, 120, 193, 119, 120, 195, 3, 1.08981
323, 6, bw, attraction, a-b-db, 14, 3, 2, 37, 195, 120, 111, 181, 120, 195, 3, 6.05938
323, 6, bw, attraction, a-b-db, 14, 3, 2, 37, 195, 120, 111, 181, 120, 195, 1, 1.08612
323, 6, bw, attraction, a-b-da, 14, 2, 3, 1, 90, 165, 153, 83, 165, 90, 3, 2.82437
323, 6, bw, attraction, a-b-da, 14, 2, 3, 1, 90, 165, 153, 83, 165, 90, 1, 1.03749
323, 6, bw, filler, NA, 999, 999, 3, 2, 137, 166, 92, 110, 186, 119, 3, 3.74576
323, 6, bw, filler, NA, 999, 999, 3, 2, 137, 166, 92, 110, 186, 119, 2, 0.737856
323, 6, bw, attraction, a-b-db, 14, 3, 3, 3, 111, 181, 195, 120, 120, 195, 1, 2.61028
323, 6, bw, attraction, a-b-db, 14, 3, 3, 3, 111, 181, 195, 120, 120, 195, 2, 0.360043
323, 6, bw, attraction, a-b-da, 5, 3, 3, 4, 195, 120, 190, 117, 120, 195, 1, 6.1912
323, 6, bw, attraction, a-b-da, 5, 3, 3, 4, 195, 120, 190, 117, 120, 195, 2, 0.468729
323, 6, bw, attraction, a-b-db, 5, 3, 3, 5, 195, 120, 117, 190, 120, 195, 1, 3.7597
323, 6, bw, attraction, a-b-db, 5, 3, 3, 5, 195, 120, 117, 190, 120, 195, 2, 1.46314
323, 6, bw, attraction, a-b-db, 2, 1, 3, 6, 135, 60, 60, 135, 59, 134, 1, 1.6419
323, 6, bw, attraction, a-b-db, 2, 1, 3, 6, 135, 60, 60, 135, 59, 134, 2, 0.926815
323, 6, bw, attraction, a-b-da, 9, 3, 3, 7, 120, 195, 195, 120, 186, 114, 2, 4.98306
323, 6, bw, attraction, a-b-da, 9, 3, 3, 7, 120, 195, 195, 120, 186, 114, 1, 0.5095
323, 6, bw, filler, NA, 999, 999, 3, 8, 138, 164, 106, 99, 130, 65, 1, 3.71858
323, 6, bw, filler, NA, 999, 999, 3, 8, 138, 164, 106, 99, 130, 65, 2, 1.03216
323, 6, bw, attraction, a-b-db, 5, 1, 3, 9, 135, 60, 58, 132, 60, 135, 1, 3.06036
323, 6, bw, attraction, a-b-db, 5, 1, 3, 9, 135, 60, 58, 132, 60, 135, 2, 0.712125
323, 6, bw, attraction, a-b-da, 14, 1, 3, 10, 135, 60, 60, 135, 125, 56, 1, 4.56919
323, 6, bw, attraction, a-b-da, 14, 1, 3, 10, 135, 60, 60, 135, 125, 56, 2, 0.768318
323, 6, bw, attraction, a-b-db, 9, 2, 3, 11, 86, 157, 90, 165, 165, 90, 3, 1.02336
323, 6, bw, attraction, a-b-db, 9, 2, 3, 11, 86, 157, 90, 165, 165, 90, 2, 1.037
323, 6, bw, attraction, a-b-db, 2, 2, 3, 12, 165, 90, 89, 163, 90, 165, 1, 0.841358
323, 6, bw, attraction, a-b-db, 2, 2, 3, 12, 165, 90, 89, 163, 90, 165, 2, 1.3264
323, 6, bw, attraction, a-b-db, 9, 3, 3, 13, 120, 195, 114, 186, 195, 120, 3, 2.13449
323, 6, bw, attraction, a-b-db, 9, 3, 3, 13, 120, 195, 114, 186, 195, 120, 2, 1.23186
323, 6, bw, attraction, a-b-da, 9, 2, 3, 14, 157, 86, 165, 90, 90, 165, 1, 2.34809
323, 6, bw, attraction, a-b-da, 9, 2, 3, 14, 157, 86, 165, 90, 90, 165, 2, 2.58868
323, 6, bw, filler, NA, 999, 999, 3, 15, 182, 179, 162, 115, 165, 186, 1, 1.81846
323, 6, bw, filler, NA, 999, 999, 3, 15, 182, 179, 162, 115, 165, 186, 2, 0.672547
323, 6, bw, catch, NA, 999, 999, 3, 16, 86, 109, 152, 103, 166, 149, 3, 1.98758
323, 6, bw, catch, NA, 999, 999, 3, 16, 86, 109, 152, 103, 166, 149, 1, 0.610269
323, 6, bw, attraction, a-b-db, 5, 2, 3, 17, 165, 90, 90, 165, 88, 161, 1, 1.33534
323, 6, bw, attraction, a-b-db, 5, 2, 3, 17, 165, 90, 90, 165, 88, 161, 2, 0.409008
323, 6, bw, filler, NA, 999, 999, 3, 18, 183, 120, 118, 170, 161, 86, 1, 1.9341
323, 6, bw, filler, NA, 999, 999, 3, 18, 183, 120, 118, 170, 161, 86, 3, 0.65539
323, 6, bw, catch, NA, 999, 999, 3, 19, 193, 122, 123, 72, 146, 109, 1, 1.15527
323, 6, bw, catch, NA, 999, 999, 3, 19, 193, 122, 123, 72, 146, 109, 2, 0.611501
323, 6, bw, attraction, a-b-db, 14, 1, 3, 20, 60, 135, 135, 60, 56, 125, 1, 0.768579
323, 6, bw, attraction, a-b-db, 14, 1, 3, 20, 60, 135, 135, 60, 56, 125, 2, 0.528879
323, 6, bw, attraction, a-b-da, 5, 1, 3, 21, 132, 58, 60, 135, 135, 60, 3, 1.66532
323, 6, bw, attraction, a-b-da, 5, 1, 3, 21, 132, 58, 60, 135, 135, 60, 2, 0.701572
323, 6, bw, attraction, a-b-da, 2, 3, 3, 22, 195, 120, 120, 195, 193, 119, 3, 3.43122
323, 6, bw, attraction, a-b-da, 2, 3, 3, 22, 195, 120, 120, 195, 193, 119, 1, 0.892116
323, 6, bw, attraction, a-b-db, 14, 2, 3, 23, 90, 165, 83, 153, 165, 90, 3, 1.6538
323, 6, bw, attraction, a-b-db, 14, 2, 3, 23, 90, 165, 83, 153, 165, 90, 2, 0.658695
323, 6, bw, attraction, a-b-da, 9, 1, 3, 24, 60, 135, 135, 60, 129, 57, 1, 5.9978
323, 6, bw, attraction, a-b-da, 9, 1, 3, 24, 60, 135, 135, 60, 129, 57, 3, 0.571141
323, 6, bw, filler, NA, 999, 999, 3, 25, 171, 172, 156, 156, 133, 161, 1, 1.25815
323, 6, bw, filler, NA, 999, 999, 3, 25, 171, 172, 156, 156, 133, 161, 3, 0.510451
323, 6, bw, attraction, a-b-da, 5, 2, 3, 26, 161, 88, 90, 165, 165, 90, 3, 5.43158
323, 6, bw, attraction, a-b-da, 5, 2, 3, 26, 161, 88, 90, 165, 165, 90, 1, 1.12391
323, 6, bw, attraction, a-b-db, 9, 1, 3, 27, 135, 60, 60, 135, 57, 129, 1, 1.34815
323, 6, bw, attraction, a-b-db, 9, 1, 3, 27, 135, 60, 60, 135, 57, 129, 3, 0.548894
323, 6, bw, filler, NA, 999, 999, 3, 28, 178, 173, 113, 181, 109, 194, 1, 1.0847
323, 6, bw, filler, NA, 999, 999, 3, 28, 178, 173, 113, 181, 109, 194, 3, 0.360374
323, 6, bw, catch, NA, 999, 999, 3, 29, 105, 150, 134, 61, 123, 192, 3, 0.911591
323, 6, bw, catch, NA, 999, 999, 3, 29, 105, 150, 134, 61, 123, 192, 1, 0.505951
323, 6, bw, filler, NA, 999, 999, 3, 30, 137, 62, 97, 187, 155, 95, 3, 1.17109
323, 6, bw, filler, NA, 999, 999, 3, 30, 137, 62, 97, 187, 155, 95, 2, 0.754677
323, 6, bw, filler, NA, 999, 999, 3, 31, 146, 138, 134, 86, 84, 97, 1, 2.41831
323, 6, bw, filler, NA, 999, 999, 3, 31, 146, 138, 134, 86, 84, 97, 3, 2.03224
323, 6, bw, filler, NA, 999, 999, 3, 32, 78, 134, 91, 192, 177, 76, 2, 2.19606
323, 6, bw, filler, NA, 999, 999, 3, 32, 78, 134, 91, 192, 177, 76, 1, 0.698771
323, 6, bw, filler, NA, 999, 999, 3, 33, 175, 135, 76, 140, 138, 164, 3, 4.24455
323, 6, bw, filler, NA, 999, 999, 3, 33, 175, 135, 76, 140, 138, 164, 2, 0.96052
323, 6, bw, attraction, a-b-da, 14, 3, 3, 34, 120, 195, 195, 120, 181, 111, 2, 2.67945
323, 6, bw, attraction, a-b-da, 14, 3, 3, 34, 120, 195, 195, 120, 181, 111, 3, 0.7946
323, 6, bw, attraction, a-b-da, 2, 1, 3, 35, 134, 59, 60, 135, 135, 60, 1, 2.00026
323, 6, bw, attraction, a-b-da, 2, 1, 3, 35, 134, 59, 60, 135, 135, 60, 2, 4.00701
323, 6, bw, attraction, a-b-db, 2, 3, 3, 36, 120, 195, 119, 193, 195, 120, 3, 5.13161
323, 6, bw, attraction, a-b-db, 2, 3, 3, 36, 120, 195, 119, 193, 195, 120, 1, 1.96399
323, 6, bw, attraction, a-b-da, 2, 2, 3, 37, 163, 89, 165, 90, 90, 165, 1, 1.49082
323, 6, bw, attraction, a-b-da, 2, 2, 3, 37, 163, 89, 165, 90, 90, 165, 3, 0.613525
323, 6, bw, attraction, a-b-da, 14, 3, 4, 1, 195, 120, 181, 111, 120, 195, 1, 2.19454
323, 6, bw, attraction, a-b-da, 14, 3, 4, 1, 195, 120, 181, 111, 120, 195, 2, 0.817201
323, 6, bw, attraction, a-b-db, 9, 1, 4, 2, 60, 135, 135, 60, 57, 129, 1, 7.17445
323, 6, bw, attraction, a-b-db, 9, 1, 4, 2, 60, 135, 135, 60, 57, 129, 2, 2.15597
323, 6, bw, attraction, a-b-da, 2, 1, 4, 3, 60, 135, 134, 59, 135, 60, 3, 2.84329
323, 6, bw, attraction, a-b-da, 2, 1, 4, 3, 60, 135, 134, 59, 135, 60, 1, 0.751716
323, 6, bw, attraction, a-b-da, 5, 3, 4, 4, 190, 117, 195, 120, 120, 195, 3, 3.45543
323, 6, bw, attraction, a-b-da, 5, 3, 4, 4, 190, 117, 195, 120, 120, 195, 1, 1.595
323, 6, bw, attraction, a-b-db, 2, 1, 4, 5, 60, 135, 59, 134, 135, 60, 1, 1.86443
323, 6, bw, attraction, a-b-db, 2, 1, 4, 5, 60, 135, 59, 134, 135, 60, 2, 0.772496
323, 6, bw, filler, NA, 999, 999, 4, 6, 76, 137, 120, 104, 58, 123, 1, 2.31556
323, 6, bw, filler, NA, 999, 999, 4, 6, 76, 137, 120, 104, 58, 123, 3, 0.581423
323, 6, bw, attraction, a-b-da, 5, 2, 4, 7, 165, 90, 90, 165, 161, 88, 2, 4.89178
323, 6, bw, attraction, a-b-da, 5, 2, 4, 7, 165, 90, 90, 165, 161, 88, 1, 0.397588
323, 6, bw, filler, NA, 999, 999, 4, 8, 183, 107, 180, 117, 69, 63, 1, 1.41134
323, 6, bw, filler, NA, 999, 999, 4, 8, 183, 107, 180, 117, 69, 63, 3, 0.521633
323, 6, bw, filler, NA, 999, 999, 4, 9, 78, 113, 67, 76, 122, 178, 3, 1.32276
323, 6, bw, filler, NA, 999, 999, 4, 9, 78, 113, 67, 76, 122, 178, 2, 0.612203
323, 6, bw, filler, NA, 999, 999, 4, 10, 124, 81, 134, 148, 85, 166, 2, 2.3133
323, 6, bw, filler, NA, 999, 999, 4, 10, 124, 81, 134, 148, 85, 166, 1, 0.55527
323, 6, bw, attraction, a-b-db, 2, 3, 4, 11, 119, 193, 195, 120, 120, 195, 2, 1.21106
323, 6, bw, attraction, a-b-db, 2, 3, 4, 11, 119, 193, 195, 120, 120, 195, 3, 0.953257
323, 6, bw, attraction, a-b-da, 9, 1, 4, 12, 135, 60, 129, 57, 60, 135, 1, 8.09706
323, 6, bw, attraction, a-b-da, 9, 1, 4, 12, 135, 60, 129, 57, 60, 135, 3, 0.689824
323, 6, bw, attraction, a-b-db, 5, 1, 4, 13, 58, 132, 135, 60, 60, 135, 3, 3.0355
323, 6, bw, attraction, a-b-db, 5, 1, 4, 13, 58, 132, 135, 60, 60, 135, 1, 1.7525
323, 6, bw, attraction, a-b-da, 9, 3, 4, 14, 120, 195, 186, 114, 195, 120, 3, 3.67198
323, 6, bw, attraction, a-b-da, 9, 3, 4, 14, 120, 195, 186, 114, 195, 120, 1, 0.578677
323, 6, bw, filler, NA, 999, 999, 4, 15, 139, 86, 169, 122, 173, 108, 2, 1.11307
323, 6, bw, filler, NA, 999, 999, 4, 15, 139, 86, 169, 122, 173, 108, 1, 0.571516
323, 6, bw, filler, NA, 999, 999, 4, 16, 168, 188, 123, 186, 111, 83, 1, 1.1225
323, 6, bw, filler, NA, 999, 999, 4, 16, 168, 188, 123, 186, 111, 83, 3, 0.428193
323, 6, bw, filler, NA, 999, 999, 4, 17, 140, 128, 141, 144, 117, 60, 2, 3.48862
323, 6, bw, filler, NA, 999, 999, 4, 17, 140, 128, 141, 144, 117, 60, 3, 0.626851
323, 6, bw, catch, NA, 999, 999, 4, 18, 163, 152, 61, 134, 158, 97, 1, 1.14322
323, 6, bw, catch, NA, 999, 999, 4, 18, 163, 152, 61, 134, 158, 97, 2, 0.640201
323, 6, bw, attraction, a-b-db, 5, 2, 4, 19, 88, 161, 165, 90, 90, 165, 2, 1.12395
323, 6, bw, attraction, a-b-db, 5, 2, 4, 19, 88, 161, 165, 90, 90, 165, 3, 0.317579
323, 6, bw, attraction, a-b-db, 5, 3, 4, 20, 117, 190, 195, 120, 120, 195, 2, 0.66269
323, 6, bw, attraction, a-b-db, 5, 3, 4, 20, 117, 190, 195, 120, 120, 195, 1, 0.403129
323, 6, bw, attraction, a-b-db, 14, 3, 4, 21, 111, 181, 120, 195, 195, 120, 3, 2.68094
323, 6, bw, attraction, a-b-db, 14, 3, 4, 21, 111, 181, 120, 195, 195, 120, 1, 0.732122
323, 6, bw, filler, NA, 999, 999, 4, 22, 164, 59, 103, 179, 184, 84, 2, 1.97244
323, 6, bw, filler, NA, 999, 999, 4, 22, 164, 59, 103, 179, 184, 84, 1, 0.57987
323, 6, bw, attraction, a-b-db, 14, 1, 4, 23, 60, 135, 56, 125, 135, 60, 3, 2.69022
323, 6, bw, attraction, a-b-db, 14, 1, 4, 23, 60, 135, 56, 125, 135, 60, 2, 0.580715
323, 6, bw, catch, NA, 999, 999, 4, 24, 153, 102, 99, 96, 132, 183, 3, 2.13914
323, 6, bw, catch, NA, 999, 999, 4, 24, 153, 102, 99, 96, 132, 183, 2, 0.587752
323, 6, bw, attraction, a-b-db, 9, 3, 4, 25, 114, 186, 120, 195, 195, 120, 2, 7.01029
323, 6, bw, attraction, a-b-db, 9, 3, 4, 25, 114, 186, 120, 195, 195, 120, 1, 2.30268
323, 6, bw, attraction, a-b-da, 2, 3, 4, 26, 193, 119, 195, 120, 120, 195, 3, 4.7279
323, 6, bw, attraction, a-b-da, 2, 3, 4, 26, 193, 119, 195, 120, 120, 195, 2, 1.16035
323, 6, bw, attraction, a-b-db, 2, 2, 4, 27, 90, 165, 165, 90, 89, 163, 3, 3.51931
323, 6, bw, attraction, a-b-db, 2, 2, 4, 27, 90, 165, 165, 90, 89, 163, 2, 0.520838
323, 6, bw, catch, NA, 999, 999, 4, 28, 103, 92, 104, 151, 182, 133, 3, 1.69797
323, 6, bw, catch, NA, 999, 999, 4, 28, 103, 92, 104, 151, 182, 133, 1, 0.644758
323, 6, bw, attraction, a-b-da, 14, 2, 4, 29, 153, 83, 90, 165, 165, 90, 2, 3.49654
323, 6, bw, attraction, a-b-da, 14, 2, 4, 29, 153, 83, 90, 165, 165, 90, 1, 2.02677
323, 6, bw, attraction, a-b-da, 9, 2, 4, 30, 165, 90, 90, 165, 157, 86, 1, 1.85474
323, 6, bw, attraction, a-b-da, 9, 2, 4, 30, 165, 90, 90, 165, 157, 86, 3, 0.834738
323, 6, bw, attraction, a-b-da, 14, 1, 4, 31, 125, 56, 60, 135, 135, 60, 3, 1.26308
323, 6, bw, attraction, a-b-da, 14, 1, 4, 31, 125, 56, 60, 135, 135, 60, 2, 1.45134
323, 6, bw, attraction, a-b-da, 5, 1, 4, 32, 60, 135, 132, 58, 135, 60, 3, 1.27892
323, 6, bw, attraction, a-b-da, 5, 1, 4, 32, 60, 135, 132, 58, 135, 60, 2, 1.53049
323, 6, bw, attraction, a-b-da, 2, 2, 4, 33, 90, 165, 163, 89, 165, 90, 3, 2.65852
323, 6, bw, attraction, a-b-da, 2, 2, 4, 33, 90, 165, 163, 89, 165, 90, 2, 0.582246
323, 6, bw, filler, NA, 999, 999, 4, 34, 174, 176, 111, 165, 96, 185, 1, 0.90076
323, 6, bw, filler, NA, 999, 999, 4, 34, 174, 176, 111, 165, 96, 185, 3, 0.679823
323, 6, bw, filler, NA, 999, 999, 4, 35, 163, 110, 78, 168, 187, 60, 1, 1.00217
323, 6, bw, filler, NA, 999, 999, 4, 35, 163, 110, 78, 168, 187, 60, 3, 0.849136
323, 6, bw, attraction, a-b-db, 14, 2, 4, 36, 90, 165, 165, 90, 83, 153, 3, 1.65292
323, 6, bw, attraction, a-b-db, 14, 2, 4, 36, 90, 165, 165, 90, 83, 153, 2, 0.473627
323, 6, bw, attraction, a-b-db, 9, 2, 4, 37, 90, 165, 165, 90, 86, 157, 2, 0.70011
323, 6, bw, attraction, a-b-db, 9, 2, 4, 37, 90, 165, 165, 90, 86, 157, 3, 0.975192
323, 6, bw, attraction, a-b-db, 14, 1, 5, 1, 135, 60, 60, 135, 56, 125, 1, 3.28413
323, 6, bw, attraction, a-b-db, 14, 1, 5, 1, 135, 60, 60, 135, 56, 125, 3, 0.647041
323, 6, bw, attraction, a-b-da, 9, 2, 5, 2, 157, 86, 165, 90, 90, 165, 2, 1.98669
323, 6, bw, attraction, a-b-da, 9, 2, 5, 2, 157, 86, 165, 90, 90, 165, 1, 0.466243
323, 6, bw, attraction, a-b-da, 2, 2, 5, 3, 165, 90, 163, 89, 90, 165, 1, 1.37321
323, 6, bw, attraction, a-b-da, 2, 2, 5, 3, 165, 90, 163, 89, 90, 165, 2, 0.364763
323, 6, bw, filler, NA, 999, 999, 5, 4, 108, 175, 172, 133, 83, 95, 2, 2.01995
323, 6, bw, filler, NA, 999, 999, 5, 4, 108, 175, 172, 133, 83, 95, 3, 0.602161
323, 6, bw, attraction, a-b-da, 5, 1, 5, 5, 135, 60, 60, 135, 132, 58, 1, 1.28765
323, 6, bw, attraction, a-b-da, 5, 1, 5, 5, 135, 60, 60, 135, 132, 58, 2, 0.562625
323, 6, bw, filler, NA, 999, 999, 5, 6, 171, 182, 195, 195, 103, 62, 1, 1.68972
323, 6, bw, filler, NA, 999, 999, 5, 6, 171, 182, 195, 195, 103, 62, 3, 0.612463
323, 6, bw, attraction, a-b-db, 9, 1, 5, 7, 135, 60, 60, 135, 57, 129, 1, 1.37764
323, 6, bw, attraction, a-b-db, 9, 1, 5, 7, 135, 60, 60, 135, 57, 129, 3, 0.497172
323, 6, bw, attraction, a-b-da, 2, 1, 5, 8, 135, 60, 134, 59, 60, 135, 1, 1.73093
323, 6, bw, attraction, a-b-da, 2, 1, 5, 8, 135, 60, 134, 59, 60, 135, 2, 0.396361
323, 6, bw, filler, NA, 999, 999, 5, 9, 96, 154, 71, 107, 105, 69, 1, 1.53827
323, 6, bw, filler, NA, 999, 999, 5, 9, 96, 154, 71, 107, 105, 69, 2, 0.730961
323, 6, bw, attraction, a-b-da, 9, 3, 5, 10, 120, 195, 186, 114, 195, 120, 3, 1.28336
323, 6, bw, attraction, a-b-da, 9, 3, 5, 10, 120, 195, 186, 114, 195, 120, 2, 2.25502
323, 6, bw, attraction, a-b-da, 5, 2, 5, 11, 165, 90, 161, 88, 90, 165, 3, 3.39418
323, 6, bw, attraction, a-b-da, 5, 2, 5, 11, 165, 90, 161, 88, 90, 165, 1, 0.512442
323, 6, bw, attraction, a-b-da, 2, 3, 5, 12, 193, 119, 195, 120, 120, 195, 1, 1.36161
323, 6, bw, attraction, a-b-da, 2, 3, 5, 12, 193, 119, 195, 120, 120, 195, 3, 1.15383
323, 6, bw, attraction, a-b-db, 2, 3, 5, 13, 120, 195, 195, 120, 119, 193, 3, 0.945363
323, 6, bw, attraction, a-b-db, 2, 3, 5, 13, 120, 195, 195, 120, 119, 193, 2, 0.306344
323, 6, bw, attraction, a-b-da, 14, 1, 5, 14, 125, 56, 60, 135, 135, 60, 3, 6.19562
323, 6, bw, attraction, a-b-da, 14, 1, 5, 14, 125, 56, 60, 135, 135, 60, 1, 0.672891
323, 6, bw, attraction, a-b-db, 9, 2, 5, 15, 165, 90, 86, 157, 90, 165, 1, 1.49128
323, 6, bw, attraction, a-b-db, 9, 2, 5, 15, 165, 90, 86, 157, 90, 165, 3, 1.83815
323, 6, bw, attraction, a-b-da, 9, 1, 5, 16, 60, 135, 135, 60, 129, 57, 1, 5.25015
323, 6, bw, attraction, a-b-da, 9, 1, 5, 16, 60, 135, 135, 60, 129, 57, 2, 0.901813
323, 6, bw, filler, NA, 999, 999, 5, 17, 136, 147, 169, 88, 127, 92, 1, 1.63155
323, 6, bw, filler, NA, 999, 999, 5, 17, 136, 147, 169, 88, 127, 92, 3, 0.565069
323, 6, bw, filler, NA, 999, 999, 5, 18, 132, 140, 172, 103, 176, 133, 3, 1.20398
323, 6, bw, filler, NA, 999, 999, 5, 18, 132, 140, 172, 103, 176, 133, 1, 0.3543
323, 6, bw, attraction, a-b-da, 14, 3, 5, 19, 181, 111, 195, 120, 120, 195, 3, 2.72211
323, 6, bw, attraction, a-b-da, 14, 3, 5, 19, 181, 111, 195, 120, 120, 195, 1, 0.899233
323, 6, bw, filler, NA, 999, 999, 5, 20, 69, 116, 184, 122, 173, 69, 2, 1.71694
323, 6, bw, filler, NA, 999, 999, 5, 20, 69, 116, 184, 122, 173, 69, 1, 0.527003
323, 6, bw, filler, NA, 999, 999, 5, 21, 117, 136, 87, 58, 128, 155, 3, 2.11162
323, 6, bw, filler, NA, 999, 999, 5, 21, 117, 136, 87, 58, 128, 155, 2, 0.46545
323, 6, bw, attraction, a-b-db, 2, 1, 5, 22, 59, 134, 60, 135, 135, 60, 3, 2.44463
323, 6, bw, attraction, a-b-db, 2, 1, 5, 22, 59, 134, 60, 135, 135, 60, 1, 0.673134
323, 6, bw, attraction, a-b-db, 9, 3, 5, 23, 195, 120, 114, 186, 120, 195, 1, 1.17154
323, 6, bw, attraction, a-b-db, 9, 3, 5, 23, 195, 120, 114, 186, 120, 195, 3, 0.627217
323, 6, bw, attraction, a-b-da, 5, 3, 5, 24, 190, 117, 195, 120, 120, 195, 1, 2.95159
323, 6, bw, attraction, a-b-da, 5, 3, 5, 24, 190, 117, 195, 120, 120, 195, 3, 0.84798
323, 6, bw, catch, NA, 999, 999, 5, 25, 172, 143, 69, 126, 162, 93, 1, 1.58767
323, 6, bw, catch, NA, 999, 999, 5, 25, 172, 143, 69, 126, 162, 93, 2, 0.658442
323, 6, bw, filler, NA, 999, 999, 5, 26, 122, 195, 137, 114, 162, 118, 3, 1.20544
323, 6, bw, filler, NA, 999, 999, 5, 26, 122, 195, 137, 114, 162, 118, 2, 0.707783
323, 6, bw, filler, NA, 999, 999, 5, 27, 183, 187, 145, 88, 83, 83, 1, 1.28482
323, 6, bw, filler, NA, 999, 999, 5, 27, 183, 187, 145, 88, 83, 83, 3, 0.584378
323, 6, bw, filler, NA, 999, 999, 5, 28, 67, 75, 138, 161, 58, 117, 2, 1.06281
323, 6, bw, filler, NA, 999, 999, 5, 28, 67, 75, 138, 161, 58, 117, 1, 0.555136
323, 6, bw, attraction, a-b-db, 14, 3, 5, 29, 195, 120, 120, 195, 111, 181, 2, 2.61089
323, 6, bw, attraction, a-b-db, 14, 3, 5, 29, 195, 120, 120, 195, 111, 181, 1, 0.544742
323, 6, bw, attraction, a-b-db, 5, 3, 5, 30, 120, 195, 195, 120, 117, 190, 1, 6.89639
323, 6, bw, attraction, a-b-db, 5, 3, 5, 30, 120, 195, 195, 120, 117, 190, 2, 1.56171
323, 6, bw, attraction, a-b-db, 2, 2, 5, 31, 90, 165, 89, 163, 165, 90, 3, 4.87242
323, 6, bw, attraction, a-b-db, 2, 2, 5, 31, 90, 165, 89, 163, 165, 90, 2, 0.538864
323, 6, bw, attraction, a-b-da, 14, 2, 5, 32, 90, 165, 165, 90, 153, 83, 1, 2.48322
323, 6, bw, attraction, a-b-da, 14, 2, 5, 32, 90, 165, 165, 90, 153, 83, 3, 0.58246
323, 6, bw, attraction, a-b-db, 5, 1, 5, 33, 58, 132, 60, 135, 135, 60, 3, 4.55692
323, 6, bw, attraction, a-b-db, 5, 1, 5, 33, 58, 132, 60, 135, 135, 60, 1, 0.51622
323, 6, bw, catch, NA, 999, 999, 5, 34, 189, 126, 114, 81, 104, 151, 1, 0.901225
323, 6, bw, catch, NA, 999, 999, 5, 34, 189, 126, 114, 81, 104, 151, 2, 0.656362
323, 6, bw, attraction, a-b-db, 14, 2, 5, 35, 83, 153, 165, 90, 90, 165, 3, 2.4913
323, 6, bw, attraction, a-b-db, 14, 2, 5, 35, 83, 153, 165, 90, 90, 165, 1, 0.349864
323, 6, bw, catch, NA, 999, 999, 5, 36, 192, 123, 150, 105, 91, 104, 1, 1.61371
323, 6, bw, catch, NA, 999, 999, 5, 36, 192, 123, 150, 105, 91, 104, 3, 0.555871
323, 6, bw, attraction, a-b-db, 5, 2, 5, 37, 90, 165, 165, 90, 88, 161, 1, 1.47486
323, 6, bw, attraction, a-b-db, 5, 2, 5, 37, 90, 165, 165, 90, 88, 161, 2, 1.41442
323, 6, bw, filler, NA, 999, 999, 6, 1, 149, 169, 107, 70, 59, 115, 1, 1.09925
323, 6, bw, filler, NA, 999, 999, 6, 1, 149, 169, 107, 70, 59, 115, 2, 0.734258
323, 6, bw, attraction, a-b-da, 5, 1, 6, 2, 135, 60, 132, 58, 60, 135, 3, 3.31064
323, 6, bw, attraction, a-b-da, 5, 1, 6, 2, 135, 60, 132, 58, 60, 135, 1, 0.736358
323, 6, bw, filler, NA, 999, 999, 6, 3, 111, 113, 76, 115, 78, 87, 1, 5.60074
323, 6, bw, filler, NA, 999, 999, 6, 3, 111, 113, 76, 115, 78, 87, 3, 0.598161
323, 6, bw, filler, NA, 999, 999, 6, 4, 182, 161, 102, 122, 84, 160, 1, 2.41987
323, 6, bw, filler, NA, 999, 999, 6, 4, 182, 161, 102, 122, 84, 160, 2, 0.56181
323, 6, bw, attraction, a-b-da, 5, 2, 6, 5, 165, 90, 90, 165, 161, 88, 2, 6.23299
323, 6, bw, attraction, a-b-da, 5, 2, 6, 5, 165, 90, 90, 165, 161, 88, 1, 1.73299
323, 6, bw, attraction, a-b-da, 2, 1, 6, 6, 135, 60, 60, 135, 134, 59, 2, 1.7971
323, 6, bw, attraction, a-b-da, 2, 1, 6, 6, 135, 60, 60, 135, 134, 59, 3, 0.979776
323, 6, bw, attraction, a-b-db, 14, 1, 6, 7, 56, 125, 60, 135, 135, 60, 2, 1.594
323, 6, bw, attraction, a-b-db, 14, 1, 6, 7, 56, 125, 60, 135, 135, 60, 1, 1.32081
323, 6, bw, filler, NA, 999, 999, 6, 8, 138, 57, 129, 110, 178, 131, 3, 1.28979
323, 6, bw, filler, NA, 999, 999, 6, 8, 138, 57, 129, 110, 178, 131, 1, 0.500632
323, 6, bw, catch, NA, 999, 999, 6, 9, 88, 107, 162, 93, 153, 162, 3, 1.18235
323, 6, bw, catch, NA, 999, 999, 6, 9, 88, 107, 162, 93, 153, 162, 1, 0.558084
323, 6, bw, filler, NA, 999, 999, 6, 10, 68, 131, 185, 98, 162, 130, 3, 0.605094
323, 6, bw, filler, NA, 999, 999, 6, 10, 68, 131, 185, 98, 162, 130, 1, 0.491562
323, 6, bw, attraction, a-b-da, 9, 2, 6, 11, 90, 165, 165, 90, 157, 86, 1, 1.63732
323, 6, bw, attraction, a-b-da, 9, 2, 6, 11, 90, 165, 165, 90, 157, 86, 3, 0.458852
323, 6, bw, attraction, a-b-da, 14, 3, 6, 12, 195, 120, 181, 111, 120, 195, 3, 1.38994
323, 6, bw, attraction, a-b-da, 14, 3, 6, 12, 195, 120, 181, 111, 120, 195, 1, 0.588825
323, 6, bw, attraction, a-b-da, 14, 2, 6, 13, 165, 90, 153, 83, 90, 165, 3, 6.12328
323, 6, bw, attraction, a-b-da, 14, 2, 6, 13, 165, 90, 153, 83, 90, 165, 2, 1.23543
323, 6, bw, attraction, a-b-db, 9, 3, 6, 14, 120, 195, 114, 186, 195, 120, 3, 4.41553
323, 6, bw, attraction, a-b-db, 9, 3, 6, 14, 120, 195, 114, 186, 195, 120, 2, 0.356786
323, 6, bw, attraction, a-b-da, 5, 3, 6, 15, 120, 195, 190, 117, 195, 120, 3, 1.81192
323, 6, bw, attraction, a-b-da, 5, 3, 6, 15, 120, 195, 190, 117, 195, 120, 2, 0.513988
323, 6, bw, attraction, a-b-db, 5, 1, 6, 16, 60, 135, 58, 132, 135, 60, 3, 1.74713
323, 6, bw, attraction, a-b-db, 5, 1, 6, 16, 60, 135, 58, 132, 135, 60, 2, 0.891894
323, 6, bw, attraction, a-b-da, 14, 1, 6, 17, 135, 60, 125, 56, 60, 135, 1, 1.81353
323, 6, bw, attraction, a-b-da, 14, 1, 6, 17, 135, 60, 125, 56, 60, 135, 2, 0.3956
323, 6, bw, attraction, a-b-db, 2, 2, 6, 18, 165, 90, 90, 165, 89, 163, 1, 3.24943
323, 6, bw, attraction, a-b-db, 2, 2, 6, 18, 165, 90, 90, 165, 89, 163, 2, 0.869864
323, 6, bw, attraction, a-b-db, 14, 2, 6, 19, 165, 90, 90, 165, 83, 153, 1, 1.57683
323, 6, bw, attraction, a-b-db, 14, 2, 6, 19, 165, 90, 90, 165, 83, 153, 2, 0.936278
323, 6, bw, attraction, a-b-db, 14, 3, 6, 20, 120, 195, 111, 181, 195, 120, 3, 1.08854
323, 6, bw, attraction, a-b-db, 14, 3, 6, 20, 120, 195, 111, 181, 195, 120, 2, 0.39545
323, 6, bw, catch, NA, 999, 999, 6, 21, 94, 161, 172, 143, 109, 86, 2, 1.70527
323, 6, bw, catch, NA, 999, 999, 6, 21, 94, 161, 172, 143, 109, 86, 3, 0.451392
323, 6, bw, filler, NA, 999, 999, 6, 22, 192, 58, 157, 61, 147, 61, 1, 3.13522
323, 6, bw, filler, NA, 999, 999, 6, 22, 192, 58, 157, 61, 147, 61, 3, 0.568234
323, 6, bw, attraction, a-b-da, 9, 1, 6, 23, 60, 135, 135, 60, 129, 57, 3, 1.36731
323, 6, bw, attraction, a-b-da, 9, 1, 6, 23, 60, 135, 135, 60, 129, 57, 1, 0.783473
323, 6, bw, attraction, a-b-db, 2, 3, 6, 24, 119, 193, 195, 120, 120, 195, 2, 1.93389
323, 6, bw, attraction, a-b-db, 2, 3, 6, 24, 119, 193, 195, 120, 120, 195, 3, 1.09533
323, 6, bw, attraction, a-b-db, 5, 2, 6, 25, 165, 90, 88, 161, 90, 165, 1, 0.992863
323, 6, bw, attraction, a-b-db, 5, 2, 6, 25, 165, 90, 88, 161, 90, 165, 3, 1.27984
323, 6, bw, filler, NA, 999, 999, 6, 26, 194, 158, 110, 102, 120, 153, 1, 1.02605
323, 6, bw, filler, NA, 999, 999, 6, 26, 194, 158, 110, 102, 120, 153, 2, 0.727749
323, 6, bw, attraction, a-b-db, 9, 2, 6, 27, 90, 165, 86, 157, 165, 90, 3, 1.0641
323, 6, bw, attraction, a-b-db, 9, 2, 6, 27, 90, 165, 86, 157, 165, 90, 2, 0.524394
323, 6, bw, attraction, a-b-db, 9, 1, 6, 28, 135, 60, 57, 129, 60, 135, 1, 1.25281
323, 6, bw, attraction, a-b-db, 9, 1, 6, 28, 135, 60, 57, 129, 60, 135, 2, 0.793798
323, 6, bw, attraction, a-b-da, 9, 3, 6, 29, 120, 195, 195, 120, 186, 114, 3, 0.935462
323, 6, bw, attraction, a-b-da, 9, 3, 6, 29, 120, 195, 195, 120, 186, 114, 2, 0.441159
323, 6, bw, filler, NA, 999, 999, 6, 30, 184, 99, 160, 133, 184, 69, 1, 1.86093
323, 6, bw, filler, NA, 999, 999, 6, 30, 184, 99, 160, 133, 184, 69, 3, 1.72908
323, 6, bw, attraction, a-b-db, 5, 3, 6, 31, 117, 190, 195, 120, 120, 195, 1, 1.209
323, 6, bw, attraction, a-b-db, 5, 3, 6, 31, 117, 190, 195, 120, 120, 195, 2, 0.927344
323, 6, bw, attraction, a-b-da, 2, 3, 6, 32, 120, 195, 195, 120, 193, 119, 3, 1.8076
323, 6, bw, attraction, a-b-da, 2, 3, 6, 32, 120, 195, 195, 120, 193, 119, 2, 0.365677
323, 6, bw, filler, NA, 999, 999, 6, 33, 62, 180, 166, 132, 148, 97, 2, 2.34879
323, 6, bw, filler, NA, 999, 999, 6, 33, 62, 180, 166, 132, 148, 97, 1, 0.461375
323, 6, bw, attraction, a-b-db, 2, 1, 6, 34, 135, 60, 60, 135, 59, 134, 1, 1.35264
323, 6, bw, attraction, a-b-db, 2, 1, 6, 34, 135, 60, 60, 135, 59, 134, 2, 0.361397
323, 6, bw, attraction, a-b-da, 2, 2, 6, 35, 165, 90, 90, 165, 163, 89, 2, 2.68059
323, 6, bw, attraction, a-b-da, 2, 2, 6, 35, 165, 90, 90, 165, 163, 89, 3, 1.41179
323, 6, bw, filler, NA, 999, 999, 6, 36, 169, 94, 122, 73, 106, 72, 1, 1.83274
323, 6, bw, filler, NA, 999, 999, 6, 36, 169, 94, 122, 73, 106, 72, 3, 1.32611
323, 6, bw, catch, NA, 999, 999, 6, 37, 142, 173, 101, 94, 98, 157, 1, 2.08619
323, 6, bw, catch, NA, 999, 999, 6, 37, 142, 173, 101, 94, 98, 157, 2, 0.505485
323, 6, bw, attraction, a-b-da, 14, 3, 7, 1, 195, 120, 181, 111, 120, 195, 3, 1.58733
323, 6, bw, attraction, a-b-da, 14, 3, 7, 1, 195, 120, 181, 111, 120, 195, 2, 0.698808
323, 6, bw, catch, NA, 999, 999, 7, 2, 153, 162, 79, 116, 99, 156, 1, 0.972631
323, 6, bw, catch, NA, 999, 999, 7, 2, 153, 162, 79, 116, 99, 156, 2, 0.71612
323, 6, bw, attraction, a-b-db, 5, 3, 7, 3, 120, 195, 117, 190, 195, 120, 1, 2.54123
323, 6, bw, attraction, a-b-db, 5, 3, 7, 3, 120, 195, 117, 190, 195, 120, 2, 0.509845
323, 6, bw, filler, NA, 999, 999, 7, 4, 173, 103, 121, 76, 138, 167, 3, 1.93496
323, 6, bw, filler, NA, 999, 999, 7, 4, 173, 103, 121, 76, 138, 167, 2, 0.608158
323, 6, bw, filler, NA, 999, 999, 7, 5, 194, 95, 73, 79, 123, 194, 3, 0.79745
323, 6, bw, filler, NA, 999, 999, 7, 5, 194, 95, 73, 79, 123, 194, 2, 0.580488
323, 6, bw, attraction, a-b-db, 5, 1, 7, 6, 135, 60, 58, 132, 60, 135, 3, 0.882732
323, 6, bw, attraction, a-b-db, 5, 1, 7, 6, 135, 60, 58, 132, 60, 135, 2, 0.494502
323, 6, bw, attraction, a-b-db, 14, 3, 7, 7, 111, 181, 195, 120, 120, 195, 3, 0.848222
323, 6, bw, attraction, a-b-db, 14, 3, 7, 7, 111, 181, 195, 120, 120, 195, 1, 0.565322
323, 6, bw, attraction, a-b-db, 2, 2, 7, 8, 165, 90, 90, 165, 89, 163, 1, 1.30042
323, 6, bw, attraction, a-b-db, 2, 2, 7, 8, 165, 90, 90, 165, 89, 163, 3, 2.05531
323, 6, bw, attraction, a-b-da, 14, 2, 7, 9, 153, 83, 165, 90, 90, 165, 3, 2.42662
323, 6, bw, attraction, a-b-da, 14, 2, 7, 9, 153, 83, 165, 90, 90, 165, 1, 0.543849
323, 6, bw, attraction, a-b-db, 9, 1, 7, 10, 57, 129, 135, 60, 60, 135, 1, 3.56759
323, 6, bw, attraction, a-b-db, 9, 1, 7, 10, 57, 129, 135, 60, 60, 135, 3, 0.807271
323, 6, bw, attraction, a-b-db, 9, 3, 7, 11, 114, 186, 195, 120, 120, 195, 3, 2.98812
323, 6, bw, attraction, a-b-db, 9, 3, 7, 11, 114, 186, 195, 120, 120, 195, 1, 0.602449
323, 6, bw, attraction, a-b-da, 5, 1, 7, 12, 60, 135, 132, 58, 135, 60, 3, 2.0243
323, 6, bw, attraction, a-b-da, 5, 1, 7, 12, 60, 135, 132, 58, 135, 60, 1, 0.597578
323, 6, bw, attraction, a-b-db, 9, 2, 7, 13, 90, 165, 165, 90, 86, 157, 1, 14.5393
323, 6, bw, attraction, a-b-db, 9, 2, 7, 13, 90, 165, 165, 90, 86, 157, 3, 0.816772
323, 6, bw, attraction, a-b-da, 5, 2, 7, 14, 165, 90, 90, 165, 161, 88, 1, 1.12581
323, 6, bw, attraction, a-b-da, 5, 2, 7, 14, 165, 90, 90, 165, 161, 88, 3, 0.671432
323, 6, bw, attraction, a-b-da, 14, 1, 7, 15, 135, 60, 60, 135, 125, 56, 1, 2.59452
323, 6, bw, attraction, a-b-da, 14, 1, 7, 15, 135, 60, 60, 135, 125, 56, 3, 0.46493
323, 6, bw, filler, NA, 999, 999, 7, 16, 124, 195, 114, 176, 103, 116, 1, 1.46816
323, 6, bw, filler, NA, 999, 999, 7, 16, 124, 195, 114, 176, 103, 116, 3, 0.440452
323, 6, bw, attraction, a-b-db, 2, 1, 7, 17, 60, 135, 135, 60, 59, 134, 1, 0.788044
323, 6, bw, attraction, a-b-db, 2, 1, 7, 17, 60, 135, 135, 60, 59, 134, 3, 0.46729
323, 6, bw, attraction, a-b-db, 5, 2, 7, 18, 90, 165, 88, 161, 165, 90, 3, 1.1503
323, 6, bw, attraction, a-b-db, 5, 2, 7, 18, 90, 165, 88, 161, 165, 90, 1, 0.423238
323, 6, bw, attraction, a-b-da, 9, 1, 7, 19, 60, 135, 135, 60, 129, 57, 3, 0.803691
323, 6, bw, attraction, a-b-da, 9, 1, 7, 19, 60, 135, 135, 60, 129, 57, 1, 0.706188
323, 6, bw, filler, NA, 999, 999, 7, 20, 119, 122, 130, 90, 164, 61, 3, 1.05118
323, 6, bw, filler, NA, 999, 999, 7, 20, 119, 122, 130, 90, 164, 61, 1, 0.54428
323, 6, bw, filler, NA, 999, 999, 7, 21, 127, 189, 78, 111, 151, 153, 3, 2.04795
323, 6, bw, filler, NA, 999, 999, 7, 21, 127, 189, 78, 111, 151, 153, 2, 0.64461
323, 6, bw, attraction, a-b-da, 9, 2, 7, 22, 157, 86, 165, 90, 90, 165, 1, 1.14433
323, 6, bw, attraction, a-b-da, 9, 2, 7, 22, 157, 86, 165, 90, 90, 165, 2, 1.11336
323, 6, bw, filler, NA, 999, 999, 7, 23, 117, 65, 154, 106, 115, 117, 2, 2.18616
323, 6, bw, filler, NA, 999, 999, 7, 23, 117, 65, 154, 106, 115, 117, 1, 0.425491
323, 6, bw, attraction, a-b-da, 2, 1, 7, 24, 135, 60, 60, 135, 134, 59, 3, 0.925966
323, 6, bw, attraction, a-b-da, 2, 1, 7, 24, 135, 60, 60, 135, 134, 59, 1, 0.487648
323, 6, bw, attraction, a-b-da, 5, 3, 7, 25, 190, 117, 120, 195, 195, 120, 2, 1.73812
323, 6, bw, attraction, a-b-da, 5, 3, 7, 25, 190, 117, 120, 195, 195, 120, 3, 0.890881
323, 6, bw, attraction, a-b-db, 2, 3, 7, 26, 119, 193, 120, 195, 195, 120, 3, 0.900468
323, 6, bw, attraction, a-b-db, 2, 3, 7, 26, 119, 193, 120, 195, 195, 120, 2, 0.487543
323, 6, bw, attraction, a-b-da, 2, 3, 7, 27, 193, 119, 120, 195, 195, 120, 3, 0.76194
323, 6, bw, attraction, a-b-da, 2, 3, 7, 27, 193, 119, 120, 195, 195, 120, 2, 0.674337
323, 6, bw, attraction, a-b-db, 14, 1, 7, 28, 60, 135, 135, 60, 56, 125, 2, 1.70885
323, 6, bw, attraction, a-b-db, 14, 1, 7, 28, 60, 135, 135, 60, 56, 125, 3, 0.82293
323, 6, bw, attraction, a-b-da, 9, 3, 7, 29, 120, 195, 186, 114, 195, 120, 3, 0.955166
323, 6, bw, attraction, a-b-da, 9, 3, 7, 29, 120, 195, 186, 114, 195, 120, 2, 0.451545
323, 6, bw, filler, NA, 999, 999, 7, 30, 57, 192, 183, 192, 96, 76, 2, 0.999396
323, 6, bw, filler, NA, 999, 999, 7, 30, 57, 192, 183, 192, 96, 76, 3, 0.65442
323, 6, bw, filler, NA, 999, 999, 7, 31, 115, 81, 76, 117, 123, 112, 3, 1.01008
323, 6, bw, filler, NA, 999, 999, 7, 31, 115, 81, 76, 117, 123, 112, 2, 0.784484
323, 6, bw, catch, NA, 999, 999, 7, 32, 155, 100, 139, 176, 91, 104, 2, 0.814959
323, 6, bw, catch, NA, 999, 999, 7, 32, 155, 100, 139, 176, 91, 104, 3, 0.469231
323, 6, bw, filler, NA, 999, 999, 7, 33, 89, 137, 91, 102, 173, 69, 3, 3.93635
323, 6, bw, filler, NA, 999, 999, 7, 33, 89, 137, 91, 102, 173, 69, 2, 0.881137
323, 6, bw, filler, NA, 999, 999, 7, 34, 77, 192, 164, 72, 87, 119, 1, 1.53937
323, 6, bw, filler, NA, 999, 999, 7, 34, 77, 192, 164, 72, 87, 119, 3, 0.940181
323, 6, bw, attraction, a-b-da, 2, 2, 7, 35, 163, 89, 165, 90, 90, 165, 1, 2.16427
323, 6, bw, attraction, a-b-da, 2, 2, 7, 35, 163, 89, 165, 90, 90, 165, 2, 0.515794
323, 6, bw, catch, NA, 999, 999, 7, 36, 109, 146, 75, 120, 177, 138, 3, 1.22898
323, 6, bw, catch, NA, 999, 999, 7, 36, 109, 146, 75, 120, 177, 138, 2, 0.634573
323, 6, bw, attraction, a-b-db, 14, 2, 7, 37, 83, 153, 90, 165, 165, 90, 3, 3.97503
323, 6, bw, attraction, a-b-db, 14, 2, 7, 37, 83, 153, 90, 165, 165, 90, 1, 0.597748
323, 6, bw, filler, NA, 999, 999, 8, 1, 98, 64, 81, 84, 94, 118, 3, 2.63549
323, 6, bw, filler, NA, 999, 999, 8, 1, 98, 64, 81, 84, 94, 118, 1, 0.768611
323, 6, bw, attraction, a-b-db, 9, 2, 8, 2, 86, 157, 90, 165, 165, 90, 3, 2.73558
323, 6, bw, attraction, a-b-db, 9, 2, 8, 2, 86, 157, 90, 165, 165, 90, 1, 0.46468
323, 6, bw, attraction, a-b-db, 2, 1, 8, 3, 60, 135, 59, 134, 135, 60, 3, 1.28383
323, 6, bw, attraction, a-b-db, 2, 1, 8, 3, 60, 135, 59, 134, 135, 60, 1, 0.447483
323, 6, bw, attraction, a-b-da, 9, 3, 8, 4, 195, 120, 120, 195, 186, 114, 2, 2.61115
323, 6, bw, attraction, a-b-da, 9, 3, 8, 4, 195, 120, 120, 195, 186, 114, 3, 0.529125
323, 6, bw, attraction, a-b-db, 2, 3, 8, 5, 119, 193, 120, 195, 195, 120, 2, 1.34553
323, 6, bw, attraction, a-b-db, 2, 3, 8, 5, 119, 193, 120, 195, 195, 120, 3, 1.07446
323, 6, bw, catch, NA, 999, 999, 8, 6, 162, 153, 96, 99, 147, 108, 1, 1.91671
323, 6, bw, catch, NA, 999, 999, 8, 6, 162, 153, 96, 99, 147, 108, 2, 0.446765
323, 6, bw, attraction, a-b-da, 14, 3, 8, 7, 195, 120, 181, 111, 120, 195, 2, 1.16246
323, 6, bw, attraction, a-b-da, 14, 3, 8, 7, 195, 120, 181, 111, 120, 195, 1, 1.00275
323, 6, bw, filler, NA, 999, 999, 8, 8, 120, 80, 125, 132, 129, 128, 3, 2.82452
323, 6, bw, filler, NA, 999, 999, 8, 8, 120, 80, 125, 132, 129, 128, 1, 0.85348
323, 6, bw, attraction, a-b-da, 2, 3, 8, 9, 120, 195, 193, 119, 195, 120, 3, 0.777152
323, 6, bw, attraction, a-b-da, 2, 3, 8, 9, 120, 195, 193, 119, 195, 120, 2, 0.481029
323, 6, bw, attraction, a-b-da, 5, 2, 8, 10, 161, 88, 90, 165, 165, 90, 3, 1.24336
323, 6, bw, attraction, a-b-da, 5, 2, 8, 10, 161, 88, 90, 165, 165, 90, 2, 0.376281
323, 6, bw, filler, NA, 999, 999, 8, 11, 128, 161, 190, 188, 131, 144, 2, 1.95086
323, 6, bw, filler, NA, 999, 999, 8, 11, 128, 161, 190, 188, 131, 144, 3, 0.623522
323, 6, bw, attraction, a-b-db, 9, 1, 8, 12, 135, 60, 57, 129, 60, 135, 1, 1.5239
323, 6, bw, attraction, a-b-db, 9, 1, 8, 12, 135, 60, 57, 129, 60, 135, 3, 0.429515
323, 6, bw, attraction, a-b-db, 14, 3, 8, 13, 111, 181, 195, 120, 120, 195, 3, 1.79386
323, 6, bw, attraction, a-b-db, 14, 3, 8, 13, 111, 181, 195, 120, 120, 195, 1, 0.344653
323, 6, bw, attraction, a-b-da, 9, 1, 8, 14, 60, 135, 129, 57, 135, 60, 3, 0.888368
323, 6, bw, attraction, a-b-da, 9, 1, 8, 14, 60, 135, 129, 57, 135, 60, 1, 1.0995
323, 6, bw, attraction, a-b-da, 5, 1, 8, 15, 60, 135, 135, 60, 132, 58, 2, 1.37317
323, 6, bw, attraction, a-b-da, 5, 1, 8, 15, 60, 135, 135, 60, 132, 58, 1, 0.636531
323, 6, bw, filler, NA, 999, 999, 8, 16, 118, 73, 127, 73, 78, 107, 1, 1.40899
323, 6, bw, filler, NA, 999, 999, 8, 16, 118, 73, 127, 73, 78, 107, 3, 0.655247
323, 6, bw, attraction, a-b-db, 5, 1, 8, 17, 60, 135, 58, 132, 135, 60, 3, 2.56296
323, 6, bw, attraction, a-b-db, 5, 1, 8, 17, 60, 135, 58, 132, 135, 60, 1, 0.610763
323, 6, bw, filler, NA, 999, 999, 8, 18, 85, 64, 158, 138, 167, 97, 2, 1.49598
323, 6, bw, filler, NA, 999, 999, 8, 18, 85, 64, 158, 138, 167, 97, 1, 0.474811
323, 6, bw, attraction, a-b-da, 5, 3, 8, 19, 190, 117, 120, 195, 195, 120, 2, 1.27713
323, 6, bw, attraction, a-b-da, 5, 3, 8, 19, 190, 117, 120, 195, 195, 120, 1, 1.19286
323, 6, bw, catch, NA, 999, 999, 8, 20, 189, 126, 117, 138, 80, 115, 2, 1.63848
323, 6, bw, catch, NA, 999, 999, 8, 20, 189, 126, 117, 138, 80, 115, 3, 0.387103
323, 6, bw, attraction, a-b-da, 2, 2, 8, 21, 163, 89, 90, 165, 165, 90, 3, 2.69761
323, 6, bw, attraction, a-b-da, 2, 2, 8, 21, 163, 89, 90, 165, 165, 90, 2, 0.396073
323, 6, bw, catch, NA, 999, 999, 8, 22, 165, 150, 136, 119, 75, 120, 1, 3.09791
323, 6, bw, catch, NA, 999, 999, 8, 22, 165, 150, 136, 119, 75, 120, 3, 0.50053
323, 6, bw, attraction, a-b-da, 14, 1, 8, 23, 135, 60, 60, 135, 125, 56, 1, 2.52599
323, 6, bw, attraction, a-b-da, 14, 1, 8, 23, 135, 60, 60, 135, 125, 56, 3, 0.807164
323, 6, bw, attraction, a-b-db, 14, 1, 8, 24, 135, 60, 60, 135, 56, 125, 1, 1.13214
323, 6, bw, attraction, a-b-db, 14, 1, 8, 24, 135, 60, 60, 135, 56, 125, 3, 0.597809
323, 6, bw, attraction, a-b-da, 2, 1, 8, 25, 135, 60, 60, 135, 134, 59, 1, 1.54753
323, 6, bw, attraction, a-b-da, 2, 1, 8, 25, 135, 60, 60, 135, 134, 59, 2, 0.588514
323, 6, bw, filler, NA, 999, 999, 8, 26, 62, 74, 150, 160, 84, 162, 2, 0.962825
323, 6, bw, filler, NA, 999, 999, 8, 26, 62, 74, 150, 160, 84, 162, 1, 0.483188
323, 6, bw, attraction, a-b-da, 9, 2, 8, 27, 157, 86, 165, 90, 90, 165, 2, 0.989592
323, 6, bw, attraction, a-b-da, 9, 2, 8, 27, 157, 86, 165, 90, 90, 165, 3, 0.860662
323, 6, bw, attraction, a-b-db, 9, 3, 8, 28, 195, 120, 114, 186, 120, 195, 1, 0.991614
323, 6, bw, attraction, a-b-db, 9, 3, 8, 28, 195, 120, 114, 186, 120, 195, 2, 0.398631
323, 6, bw, attraction, a-b-db, 5, 2, 8, 29, 165, 90, 88, 161, 90, 165, 1, 1.07642
323, 6, bw, attraction, a-b-db, 5, 2, 8, 29, 165, 90, 88, 161, 90, 165, 2, 1.10406
323, 6, bw, filler, NA, 999, 999, 8, 30, 120, 186, 144, 184, 193, 101, 2, 5.01773
323, 6, bw, filler, NA, 999, 999, 8, 30, 120, 186, 144, 184, 193, 101, 3, 1.5107
323, 6, bw, filler, NA, 999, 999, 8, 31, 130, 103, 155, 74, 164, 65, 2, 4.50355
323, 6, bw, filler, NA, 999, 999, 8, 31, 130, 103, 155, 74, 164, 65, 1, 0.569448
323, 6, bw, filler, NA, 999, 999, 8, 32, 63, 61, 96, 98, 87, 57, 2, 1.2566
323, 6, bw, filler, NA, 999, 999, 8, 32, 63, 61, 96, 98, 87, 57, 1, 0.396809
323, 6, bw, attraction, a-b-db, 14, 2, 8, 33, 165, 90, 90, 165, 83, 153, 1, 2.53064
323, 6, bw, attraction, a-b-db, 14, 2, 8, 33, 165, 90, 90, 165, 83, 153, 2, 0.547763
323, 6, bw, filler, NA, 999, 999, 8, 34, 122, 162, 85, 72, 194, 168, 1, 1.51569
323, 6, bw, filler, NA, 999, 999, 8, 34, 122, 162, 85, 72, 194, 168, 2, 1.28566
323, 6, bw, attraction, a-b-db, 2, 2, 8, 35, 89, 163, 90, 165, 165, 90, 2, 1.37589
323, 6, bw, attraction, a-b-db, 2, 2, 8, 35, 89, 163, 90, 165, 165, 90, 3, 0.48749
323, 6, bw, attraction, a-b-da, 14, 2, 8, 36, 90, 165, 153, 83, 165, 90, 2, 2.29791
323, 6, bw, attraction, a-b-da, 14, 2, 8, 36, 90, 165, 153, 83, 165, 90, 1, 0.524465
323, 6, bw, attraction, a-b-db, 5, 3, 8, 37, 117, 190, 120, 195, 195, 120, 3, 2.2691
323, 6, bw, attraction, a-b-db, 5, 3, 8, 37, 117, 190, 120, 195, 195, 120, 1, 1.00885
