sub_n, computer_n, bw_cond, effect, set, distance, diag, block_n, trial_n, h1, w1, h2, w2, h3, w3, choice, rt 
399, 6, bw, practice, NA, 999, 999, 0, 1, 109, 65, 87, 113, 184, 81, 3, 7.67
399, 6, bw, practice, NA, 999, 999, 0, 1, 109, 65, 87, 113, 184, 81, 1, 5.04719
399, 6, bw, practice, NA, 999, 999, 0, 2, 57, 90, 85, 160, 174, 56, 2, 4.85392
399, 6, bw, practice, NA, 999, 999, 0, 2, 57, 90, 85, 160, 174, 56, 1, 4.08165
399, 6, bw, practice, NA, 999, 999, 0, 3, 57, 189, 176, 75, 95, 68, 2, 3.78306
399, 6, bw, practice, NA, 999, 999, 0, 3, 57, 189, 176, 75, 95, 68, 3, 1.76729
399, 6, bw, catch, NA, 999, 999, 1, 1, 109, 86, 139, 116, 172, 143, 3, 2.13299
399, 6, bw, catch, NA, 999, 999, 1, 1, 109, 86, 139, 116, 172, 143, 1, 1.06239
399, 6, bw, attraction, a-b-da, 14, 3, 1, 2, 120, 195, 195, 120, 181, 111, 1, 4.97723
399, 6, bw, attraction, a-b-da, 14, 3, 1, 2, 120, 195, 195, 120, 181, 111, 3, 0.767616
399, 6, bw, attraction, a-b-db, 14, 1, 1, 3, 60, 135, 135, 60, 56, 125, 1, 4.57468
399, 6, bw, attraction, a-b-db, 14, 1, 1, 3, 60, 135, 135, 60, 56, 125, 3, 1.11715
399, 6, bw, attraction, a-b-db, 2, 3, 1, 4, 120, 195, 195, 120, 119, 193, 2, 2.24633
399, 6, bw, attraction, a-b-db, 2, 3, 1, 4, 120, 195, 195, 120, 119, 193, 1, 1.58675
399, 6, bw, attraction, a-b-da, 2, 2, 1, 5, 165, 90, 163, 89, 90, 165, 3, 5.00896
399, 6, bw, attraction, a-b-da, 2, 2, 1, 5, 165, 90, 163, 89, 90, 165, 2, 1.69401
399, 6, bw, attraction, a-b-da, 2, 1, 1, 6, 135, 60, 60, 135, 134, 59, 2, 7.20722
399, 6, bw, attraction, a-b-da, 2, 1, 1, 6, 135, 60, 60, 135, 134, 59, 3, 0.803705
399, 6, bw, attraction, a-b-db, 9, 2, 1, 7, 90, 165, 86, 157, 165, 90, 3, 3.8094
399, 6, bw, attraction, a-b-db, 9, 2, 1, 7, 90, 165, 86, 157, 165, 90, 2, 3.89487
399, 6, bw, attraction, a-b-da, 14, 1, 1, 8, 135, 60, 125, 56, 60, 135, 3, 3.95152
399, 6, bw, attraction, a-b-da, 14, 1, 1, 8, 135, 60, 125, 56, 60, 135, 2, 1.02365
399, 6, bw, catch, NA, 999, 999, 1, 9, 160, 155, 149, 106, 127, 68, 1, 2.93194
399, 6, bw, catch, NA, 999, 999, 1, 9, 160, 155, 149, 106, 127, 68, 3, 0.884977
399, 6, bw, attraction, a-b-db, 14, 2, 1, 10, 83, 153, 90, 165, 165, 90, 2, 4.61533
399, 6, bw, attraction, a-b-db, 14, 2, 1, 10, 83, 153, 90, 165, 165, 90, 1, 1.27649
399, 6, bw, attraction, a-b-db, 9, 3, 1, 11, 195, 120, 120, 195, 114, 186, 2, 6.07868
399, 6, bw, attraction, a-b-db, 9, 3, 1, 11, 195, 120, 120, 195, 114, 186, 3, 0.97683
399, 6, bw, filler, NA, 999, 999, 1, 12, 183, 57, 102, 189, 64, 65, 2, 2.02311
399, 6, bw, filler, NA, 999, 999, 1, 12, 183, 57, 102, 189, 64, 65, 3, 0.972461
399, 6, bw, attraction, a-b-da, 14, 2, 1, 13, 153, 83, 165, 90, 90, 165, 3, 2.48349
399, 6, bw, attraction, a-b-da, 14, 2, 1, 13, 153, 83, 165, 90, 90, 165, 1, 0.502681
399, 6, bw, attraction, a-b-da, 5, 2, 1, 14, 90, 165, 161, 88, 165, 90, 1, 2.23238
399, 6, bw, attraction, a-b-da, 5, 2, 1, 14, 90, 165, 161, 88, 165, 90, 2, 0.613731
399, 6, bw, attraction, a-b-db, 14, 3, 1, 15, 195, 120, 111, 181, 120, 195, 3, 14.0508
399, 6, bw, attraction, a-b-db, 14, 3, 1, 15, 195, 120, 111, 181, 120, 195, 2, 4.47581
399, 6, bw, attraction, a-b-da, 5, 1, 1, 16, 132, 58, 60, 135, 135, 60, 2, 2.57287
399, 6, bw, attraction, a-b-da, 5, 1, 1, 16, 132, 58, 60, 135, 135, 60, 1, 0.940031
399, 6, bw, attraction, a-b-da, 9, 3, 1, 17, 195, 120, 186, 114, 120, 195, 3, 6.89967
399, 6, bw, attraction, a-b-da, 9, 3, 1, 17, 195, 120, 186, 114, 120, 195, 2, 1.18081
399, 6, bw, attraction, a-b-db, 5, 2, 1, 18, 165, 90, 88, 161, 90, 165, 3, 5.12313
399, 6, bw, attraction, a-b-db, 5, 2, 1, 18, 165, 90, 88, 161, 90, 165, 1, 4.13947
399, 6, bw, attraction, a-b-db, 9, 1, 1, 19, 135, 60, 57, 129, 60, 135, 1, 2.89071
399, 6, bw, attraction, a-b-db, 9, 1, 1, 19, 135, 60, 57, 129, 60, 135, 2, 5.70115
399, 6, bw, attraction, a-b-db, 2, 1, 1, 20, 135, 60, 60, 135, 59, 134, 2, 4.04532
399, 6, bw, attraction, a-b-db, 2, 1, 1, 20, 135, 60, 60, 135, 59, 134, 3, 2.01748
399, 6, bw, filler, NA, 999, 999, 1, 21, 85, 99, 85, 154, 148, 162, 3, 1.15006
399, 6, bw, filler, NA, 999, 999, 1, 21, 85, 99, 85, 154, 148, 162, 1, 0.966946
399, 6, bw, filler, NA, 999, 999, 1, 22, 120, 138, 179, 144, 111, 113, 2, 1.9019
399, 6, bw, filler, NA, 999, 999, 1, 22, 120, 138, 179, 144, 111, 113, 3, 0.872674
399, 6, bw, attraction, a-b-da, 2, 3, 1, 23, 195, 120, 120, 195, 193, 119, 1, 6.07574
399, 6, bw, attraction, a-b-da, 2, 3, 1, 23, 195, 120, 120, 195, 193, 119, 3, 0.669873
399, 6, bw, filler, NA, 999, 999, 1, 24, 94, 162, 194, 165, 131, 72, 2, 1.75284
399, 6, bw, filler, NA, 999, 999, 1, 24, 94, 162, 194, 165, 131, 72, 3, 0.865502
399, 6, bw, attraction, a-b-da, 9, 2, 1, 25, 165, 90, 90, 165, 157, 86, 2, 4.94064
399, 6, bw, attraction, a-b-da, 9, 2, 1, 25, 165, 90, 90, 165, 157, 86, 3, 0.740279
399, 6, bw, attraction, a-b-db, 2, 2, 1, 26, 89, 163, 90, 165, 165, 90, 3, 8.77198
399, 6, bw, attraction, a-b-db, 2, 2, 1, 26, 89, 163, 90, 165, 165, 90, 2, 0.642091
399, 6, bw, filler, NA, 999, 999, 1, 27, 139, 139, 147, 83, 185, 125, 3, 1.57368
399, 6, bw, filler, NA, 999, 999, 1, 27, 139, 139, 147, 83, 185, 125, 2, 0.685155
399, 6, bw, attraction, a-b-da, 5, 3, 1, 28, 190, 117, 120, 195, 195, 120, 2, 3.51149
399, 6, bw, attraction, a-b-da, 5, 3, 1, 28, 190, 117, 120, 195, 195, 120, 3, 1.24121
399, 6, bw, attraction, a-b-db, 5, 1, 1, 29, 58, 132, 60, 135, 135, 60, 2, 5.98856
399, 6, bw, attraction, a-b-db, 5, 1, 1, 29, 58, 132, 60, 135, 135, 60, 1, 0.954713
399, 6, bw, filler, NA, 999, 999, 1, 30, 192, 184, 132, 108, 171, 130, 1, 2.94635
399, 6, bw, filler, NA, 999, 999, 1, 30, 192, 184, 132, 108, 171, 130, 2, 0.570782
399, 6, bw, filler, NA, 999, 999, 1, 31, 77, 117, 69, 120, 141, 172, 3, 1.72187
399, 6, bw, filler, NA, 999, 999, 1, 31, 77, 117, 69, 120, 141, 172, 2, 0.627346
399, 6, bw, attraction, a-b-da, 9, 1, 1, 32, 60, 135, 135, 60, 129, 57, 1, 6.93571
399, 6, bw, attraction, a-b-da, 9, 1, 1, 32, 60, 135, 135, 60, 129, 57, 2, 0.495474
399, 6, bw, filler, NA, 999, 999, 1, 33, 114, 81, 70, 123, 87, 108, 3, 16.1533
399, 6, bw, filler, NA, 999, 999, 1, 33, 114, 81, 70, 123, 87, 108, 2, 0.637512
399, 6, bw, attraction, a-b-db, 5, 3, 1, 34, 117, 190, 120, 195, 195, 120, 2, 8.0581
399, 6, bw, attraction, a-b-db, 5, 3, 1, 34, 117, 190, 120, 195, 195, 120, 1, 2.08411
399, 6, bw, filler, NA, 999, 999, 1, 35, 163, 120, 167, 76, 171, 79, 1, 2.74218
399, 6, bw, filler, NA, 999, 999, 1, 35, 163, 120, 167, 76, 171, 79, 2, 0.950612
399, 6, bw, catch, NA, 999, 999, 1, 36, 157, 158, 130, 65, 117, 138, 1, 2.06213
399, 6, bw, catch, NA, 999, 999, 1, 36, 157, 158, 130, 65, 117, 138, 2, 0.514128
399, 6, bw, filler, NA, 999, 999, 1, 37, 103, 122, 117, 173, 168, 59, 2, 3.21133
399, 6, bw, filler, NA, 999, 999, 1, 37, 103, 122, 117, 173, 168, 59, 3, 0.640966
399, 6, bw, attraction, a-b-da, 9, 1, 2, 1, 129, 57, 135, 60, 60, 135, 3, 6.33272
399, 6, bw, attraction, a-b-da, 9, 1, 2, 1, 129, 57, 135, 60, 60, 135, 1, 1.25263
399, 6, bw, attraction, a-b-da, 5, 1, 2, 2, 60, 135, 135, 60, 132, 58, 1, 11.5522
399, 6, bw, attraction, a-b-da, 5, 1, 2, 2, 60, 135, 135, 60, 132, 58, 2, 1.12588
399, 6, bw, filler, NA, 999, 999, 2, 3, 79, 130, 121, 125, 109, 133, 3, 7.03024
399, 6, bw, filler, NA, 999, 999, 2, 3, 79, 130, 121, 125, 109, 133, 1, 0.489965
399, 6, bw, attraction, a-b-db, 9, 1, 2, 4, 57, 129, 135, 60, 60, 135, 3, 3.77977
399, 6, bw, attraction, a-b-db, 9, 1, 2, 4, 57, 129, 135, 60, 60, 135, 2, 0.978497
399, 6, bw, catch, NA, 999, 999, 2, 5, 149, 106, 94, 101, 152, 163, 3, 0.944849
399, 6, bw, catch, NA, 999, 999, 2, 5, 149, 106, 94, 101, 152, 163, 2, 0.449807
399, 6, bw, filler, NA, 999, 999, 2, 6, 98, 144, 97, 155, 181, 142, 3, 1.50167
399, 6, bw, filler, NA, 999, 999, 2, 6, 98, 144, 97, 155, 181, 142, 1, 0.408475
399, 6, bw, attraction, a-b-db, 14, 1, 2, 7, 60, 135, 135, 60, 56, 125, 1, 3.6536
399, 6, bw, attraction, a-b-db, 14, 1, 2, 7, 60, 135, 135, 60, 56, 125, 3, 0.385855
399, 6, bw, attraction, a-b-da, 2, 1, 2, 8, 134, 59, 135, 60, 60, 135, 2, 2.40022
399, 6, bw, attraction, a-b-da, 2, 1, 2, 8, 134, 59, 135, 60, 60, 135, 3, 0.85481
399, 6, bw, attraction, a-b-da, 14, 2, 2, 9, 165, 90, 90, 165, 153, 83, 2, 3.0905
399, 6, bw, attraction, a-b-da, 14, 2, 2, 9, 165, 90, 90, 165, 153, 83, 3, 0.724852
399, 6, bw, attraction, a-b-da, 14, 3, 2, 10, 120, 195, 195, 120, 181, 111, 1, 4.6613
399, 6, bw, attraction, a-b-da, 14, 3, 2, 10, 120, 195, 195, 120, 181, 111, 3, 0.91243
399, 6, bw, attraction, a-b-db, 2, 3, 2, 11, 120, 195, 119, 193, 195, 120, 1, 4.36132
399, 6, bw, attraction, a-b-db, 2, 3, 2, 11, 120, 195, 119, 193, 195, 120, 2, 0.944642
399, 6, bw, attraction, a-b-db, 14, 3, 2, 12, 195, 120, 111, 181, 120, 195, 3, 2.89623
399, 6, bw, attraction, a-b-db, 14, 3, 2, 12, 195, 120, 111, 181, 120, 195, 2, 0.626691
399, 6, bw, attraction, a-b-db, 5, 3, 2, 13, 195, 120, 117, 190, 120, 195, 1, 9.28718
399, 6, bw, attraction, a-b-db, 5, 3, 2, 13, 195, 120, 117, 190, 120, 195, 2, 0.368189
399, 6, bw, filler, NA, 999, 999, 2, 14, 182, 98, 153, 185, 184, 66, 2, 1.48741
399, 6, bw, filler, NA, 999, 999, 2, 14, 182, 98, 153, 185, 184, 66, 3, 0.490829
399, 6, bw, filler, NA, 999, 999, 2, 15, 99, 113, 192, 124, 148, 176, 3, 1.1326
399, 6, bw, filler, NA, 999, 999, 2, 15, 99, 113, 192, 124, 148, 176, 1, 0.398202
399, 6, bw, attraction, a-b-da, 2, 2, 2, 16, 90, 165, 163, 89, 165, 90, 1, 6.00408
399, 6, bw, attraction, a-b-da, 2, 2, 2, 16, 90, 165, 163, 89, 165, 90, 2, 0.345516
399, 6, bw, attraction, a-b-da, 9, 3, 2, 17, 120, 195, 195, 120, 186, 114, 1, 3.08136
399, 6, bw, attraction, a-b-da, 9, 3, 2, 17, 120, 195, 195, 120, 186, 114, 3, 0.356342
399, 6, bw, attraction, a-b-da, 5, 3, 2, 18, 190, 117, 120, 195, 195, 120, 2, 8.42757
399, 6, bw, attraction, a-b-da, 5, 3, 2, 18, 190, 117, 120, 195, 195, 120, 1, 0.798867
399, 6, bw, attraction, a-b-da, 5, 2, 2, 19, 90, 165, 161, 88, 165, 90, 1, 6.28448
399, 6, bw, attraction, a-b-da, 5, 2, 2, 19, 90, 165, 161, 88, 165, 90, 3, 0.558521
399, 6, bw, filler, NA, 999, 999, 2, 20, 72, 132, 97, 80, 113, 115, 3, 1.72567
399, 6, bw, filler, NA, 999, 999, 2, 20, 72, 132, 97, 80, 113, 115, 2, 0.671069
399, 6, bw, filler, NA, 999, 999, 2, 21, 183, 157, 90, 177, 195, 67, 1, 1.75416
399, 6, bw, filler, NA, 999, 999, 2, 21, 183, 157, 90, 177, 195, 67, 3, 1.58627
399, 6, bw, filler, NA, 999, 999, 2, 22, 136, 168, 150, 163, 71, 110, 2, 4.80045
399, 6, bw, filler, NA, 999, 999, 2, 22, 136, 168, 150, 163, 71, 110, 3, 0.526316
399, 6, bw, attraction, a-b-db, 14, 2, 2, 23, 83, 153, 90, 165, 165, 90, 2, 3.71854
399, 6, bw, attraction, a-b-db, 14, 2, 2, 23, 83, 153, 90, 165, 165, 90, 1, 0.400032
399, 6, bw, catch, NA, 999, 999, 2, 24, 77, 118, 91, 164, 156, 159, 3, 1.46187
399, 6, bw, catch, NA, 999, 999, 2, 24, 77, 118, 91, 164, 156, 159, 1, 0.770123
399, 6, bw, filler, NA, 999, 999, 2, 25, 186, 85, 111, 79, 151, 73, 1, 5.18522
399, 6, bw, filler, NA, 999, 999, 2, 25, 186, 85, 111, 79, 151, 73, 2, 0.5515
399, 6, bw, attraction, a-b-da, 14, 1, 2, 26, 125, 56, 135, 60, 60, 135, 3, 2.12726
399, 6, bw, attraction, a-b-da, 14, 1, 2, 26, 125, 56, 135, 60, 60, 135, 1, 1.32856
399, 6, bw, attraction, a-b-db, 5, 2, 2, 27, 88, 161, 165, 90, 90, 165, 3, 1.50475
399, 6, bw, attraction, a-b-db, 5, 2, 2, 27, 88, 161, 165, 90, 90, 165, 2, 1.83499
399, 6, bw, attraction, a-b-db, 2, 1, 2, 28, 59, 134, 135, 60, 60, 135, 3, 4.81509
399, 6, bw, attraction, a-b-db, 2, 1, 2, 28, 59, 134, 135, 60, 60, 135, 2, 0.412047
399, 6, bw, attraction, a-b-da, 9, 2, 2, 29, 165, 90, 157, 86, 90, 165, 3, 6.60935
399, 6, bw, attraction, a-b-da, 9, 2, 2, 29, 165, 90, 157, 86, 90, 165, 2, 0.485784
399, 6, bw, attraction, a-b-db, 2, 2, 2, 30, 165, 90, 90, 165, 89, 163, 3, 5.41622
399, 6, bw, attraction, a-b-db, 2, 2, 2, 30, 165, 90, 90, 165, 89, 163, 2, 0.39723
399, 6, bw, attraction, a-b-da, 2, 3, 2, 31, 195, 120, 120, 195, 193, 119, 2, 13.2031
399, 6, bw, attraction, a-b-da, 2, 3, 2, 31, 195, 120, 120, 195, 193, 119, 3, 0.670203
399, 6, bw, catch, NA, 999, 999, 2, 32, 155, 160, 112, 143, 73, 122, 1, 0.881359
399, 6, bw, catch, NA, 999, 999, 2, 32, 155, 160, 112, 143, 73, 122, 3, 0.372934
399, 6, bw, attraction, a-b-db, 9, 3, 2, 33, 114, 186, 120, 195, 195, 120, 2, 5.45166
399, 6, bw, attraction, a-b-db, 9, 3, 2, 33, 114, 186, 120, 195, 195, 120, 1, 3.375
399, 6, bw, attraction, a-b-db, 5, 1, 2, 34, 60, 135, 58, 132, 135, 60, 1, 14.6686
399, 6, bw, attraction, a-b-db, 5, 1, 2, 34, 60, 135, 58, 132, 135, 60, 3, 2.2927
399, 6, bw, filler, NA, 999, 999, 2, 35, 178, 188, 169, 139, 195, 190, 3, 1.65404
399, 6, bw, filler, NA, 999, 999, 2, 35, 178, 188, 169, 139, 195, 190, 2, 0.570042
399, 6, bw, attraction, a-b-db, 9, 2, 2, 36, 90, 165, 86, 157, 165, 90, 3, 3.76908
399, 6, bw, attraction, a-b-db, 9, 2, 2, 36, 90, 165, 86, 157, 165, 90, 2, 0.432572
399, 6, bw, filler, NA, 999, 999, 2, 37, 162, 186, 96, 160, 158, 94, 1, 4.54107
399, 6, bw, filler, NA, 999, 999, 2, 37, 162, 186, 96, 160, 158, 94, 3, 0.428925
399, 6, bw, catch, NA, 999, 999, 3, 1, 150, 105, 143, 172, 89, 106, 2, 1.07342
399, 6, bw, catch, NA, 999, 999, 3, 1, 150, 105, 143, 172, 89, 106, 3, 0.757149
399, 6, bw, attraction, a-b-da, 2, 2, 3, 2, 165, 90, 90, 165, 163, 89, 2, 6.46013
399, 6, bw, attraction, a-b-da, 2, 2, 3, 2, 165, 90, 90, 165, 163, 89, 3, 0.390734
399, 6, bw, attraction, a-b-da, 14, 3, 3, 3, 195, 120, 181, 111, 120, 195, 3, 10.6285
399, 6, bw, attraction, a-b-da, 14, 3, 3, 3, 195, 120, 181, 111, 120, 195, 2, 0.375149
399, 6, bw, filler, NA, 999, 999, 3, 4, 58, 161, 73, 131, 65, 95, 2, 5.4697
399, 6, bw, filler, NA, 999, 999, 3, 4, 58, 161, 73, 131, 65, 95, 3, 0.608606
399, 6, bw, filler, NA, 999, 999, 3, 5, 186, 177, 67, 115, 184, 108, 1, 1.30168
399, 6, bw, filler, NA, 999, 999, 3, 5, 186, 177, 67, 115, 184, 108, 2, 0.512604
399, 6, bw, attraction, a-b-db, 14, 3, 3, 6, 195, 120, 111, 181, 120, 195, 3, 8.34567
399, 6, bw, attraction, a-b-db, 14, 3, 3, 6, 195, 120, 111, 181, 120, 195, 2, 0.324844
399, 6, bw, filler, NA, 999, 999, 3, 7, 107, 166, 120, 123, 142, 104, 1, 8.1609
399, 6, bw, filler, NA, 999, 999, 3, 7, 107, 166, 120, 123, 142, 104, 3, 1.607
399, 6, bw, attraction, a-b-db, 9, 1, 3, 8, 57, 129, 135, 60, 60, 135, 3, 4.40375
399, 6, bw, attraction, a-b-db, 9, 1, 3, 8, 57, 129, 135, 60, 60, 135, 1, 1.04971
399, 6, bw, attraction, a-b-da, 9, 3, 3, 9, 186, 114, 120, 195, 195, 120, 2, 12.8613
399, 6, bw, attraction, a-b-da, 9, 3, 3, 9, 186, 114, 120, 195, 195, 120, 1, 0.446006
399, 6, bw, attraction, a-b-da, 9, 1, 3, 10, 60, 135, 135, 60, 129, 57, 1, 3.45782
399, 6, bw, attraction, a-b-da, 9, 1, 3, 10, 60, 135, 135, 60, 129, 57, 3, 0.461225
399, 6, bw, filler, NA, 999, 999, 3, 11, 101, 78, 190, 86, 189, 76, 2, 1.60842
399, 6, bw, filler, NA, 999, 999, 3, 11, 101, 78, 190, 86, 189, 76, 1, 0.430499
399, 6, bw, attraction, a-b-da, 5, 3, 3, 12, 120, 195, 190, 117, 195, 120, 1, 4.47506
399, 6, bw, attraction, a-b-da, 5, 3, 3, 12, 120, 195, 190, 117, 195, 120, 2, 0.397627
399, 6, bw, attraction, a-b-da, 5, 2, 3, 13, 90, 165, 161, 88, 165, 90, 1, 7.45135
399, 6, bw, attraction, a-b-da, 5, 2, 3, 13, 90, 165, 161, 88, 165, 90, 2, 0.334357
399, 6, bw, attraction, a-b-da, 2, 3, 3, 14, 195, 120, 193, 119, 120, 195, 2, 10.775
399, 6, bw, attraction, a-b-da, 2, 3, 3, 14, 195, 120, 193, 119, 120, 195, 1, 0.443436
399, 6, bw, attraction, a-b-da, 14, 1, 3, 15, 60, 135, 135, 60, 125, 56, 1, 17.7033
399, 6, bw, attraction, a-b-da, 14, 1, 3, 15, 60, 135, 135, 60, 125, 56, 3, 0.405094
399, 6, bw, filler, NA, 999, 999, 3, 16, 66, 78, 140, 104, 114, 92, 2, 1.147
399, 6, bw, filler, NA, 999, 999, 3, 16, 66, 78, 140, 104, 114, 92, 1, 0.419895
399, 6, bw, attraction, a-b-da, 14, 2, 3, 17, 153, 83, 165, 90, 90, 165, 3, 1.58504
399, 6, bw, attraction, a-b-da, 14, 2, 3, 17, 153, 83, 165, 90, 90, 165, 1, 0.496475
399, 6, bw, attraction, a-b-db, 14, 1, 3, 18, 135, 60, 56, 125, 60, 135, 3, 2.16224
399, 6, bw, attraction, a-b-db, 14, 1, 3, 18, 135, 60, 56, 125, 60, 135, 2, 0.282336
399, 6, bw, filler, NA, 999, 999, 3, 19, 158, 89, 124, 175, 185, 192, 3, 0.804728
399, 6, bw, filler, NA, 999, 999, 3, 19, 158, 89, 124, 175, 185, 192, 1, 0.523165
399, 6, bw, attraction, a-b-db, 9, 3, 3, 20, 114, 186, 195, 120, 120, 195, 3, 7.58754
399, 6, bw, attraction, a-b-db, 9, 3, 3, 20, 114, 186, 195, 120, 120, 195, 2, 2.03335
399, 6, bw, attraction, a-b-db, 5, 1, 3, 21, 135, 60, 60, 135, 58, 132, 2, 9.91721
399, 6, bw, attraction, a-b-db, 5, 1, 3, 21, 135, 60, 60, 135, 58, 132, 3, 1.14869
399, 6, bw, attraction, a-b-db, 2, 3, 3, 22, 120, 195, 195, 120, 119, 193, 1, 2.74019
399, 6, bw, attraction, a-b-db, 2, 3, 3, 22, 120, 195, 195, 120, 119, 193, 2, 0.276745
399, 6, bw, filler, NA, 999, 999, 3, 23, 105, 82, 95, 111, 128, 116, 3, 1.72744
399, 6, bw, filler, NA, 999, 999, 3, 23, 105, 82, 95, 111, 128, 116, 1, 0.512702
399, 6, bw, filler, NA, 999, 999, 3, 24, 58, 147, 91, 95, 57, 96, 1, 5.35381
399, 6, bw, filler, NA, 999, 999, 3, 24, 58, 147, 91, 95, 57, 96, 3, 0.45743
399, 6, bw, attraction, a-b-da, 5, 1, 3, 25, 132, 58, 60, 135, 135, 60, 1, 5.26069
399, 6, bw, attraction, a-b-da, 5, 1, 3, 25, 132, 58, 60, 135, 135, 60, 2, 0.687796
399, 6, bw, catch, NA, 999, 999, 3, 26, 107, 88, 133, 122, 186, 129, 3, 1.26588
399, 6, bw, catch, NA, 999, 999, 3, 26, 107, 88, 133, 122, 186, 129, 1, 0.606149
399, 6, bw, filler, NA, 999, 999, 3, 27, 194, 150, 183, 77, 185, 145, 1, 5.82729
399, 6, bw, filler, NA, 999, 999, 3, 27, 194, 150, 183, 77, 185, 145, 2, 0.527462
399, 6, bw, attraction, a-b-db, 14, 2, 3, 28, 83, 153, 165, 90, 90, 165, 3, 2.19984
399, 6, bw, attraction, a-b-db, 14, 2, 3, 28, 83, 153, 165, 90, 90, 165, 1, 0.326472
399, 6, bw, attraction, a-b-db, 2, 1, 3, 29, 135, 60, 60, 135, 59, 134, 3, 2.05507
399, 6, bw, attraction, a-b-db, 2, 1, 3, 29, 135, 60, 60, 135, 59, 134, 1, 1.17901
399, 6, bw, attraction, a-b-da, 9, 2, 3, 30, 90, 165, 157, 86, 165, 90, 1, 2.53729
399, 6, bw, attraction, a-b-da, 9, 2, 3, 30, 90, 165, 157, 86, 165, 90, 2, 0.23439
399, 6, bw, catch, NA, 999, 999, 3, 31, 134, 121, 138, 177, 107, 88, 2, 2.0709
399, 6, bw, catch, NA, 999, 999, 3, 31, 134, 121, 138, 177, 107, 88, 3, 0.338228
399, 6, bw, attraction, a-b-db, 5, 2, 3, 32, 90, 165, 165, 90, 88, 161, 1, 5.4588
399, 6, bw, attraction, a-b-db, 5, 2, 3, 32, 90, 165, 165, 90, 88, 161, 2, 1.8058
399, 6, bw, attraction, a-b-db, 5, 3, 3, 33, 117, 190, 195, 120, 120, 195, 3, 11.4031
399, 6, bw, attraction, a-b-db, 5, 3, 3, 33, 117, 190, 195, 120, 120, 195, 2, 0.286872
399, 6, bw, attraction, a-b-da, 2, 1, 3, 34, 60, 135, 134, 59, 135, 60, 1, 3.25734
399, 6, bw, attraction, a-b-da, 2, 1, 3, 34, 60, 135, 134, 59, 135, 60, 2, 0.340988
399, 6, bw, attraction, a-b-db, 9, 2, 3, 35, 90, 165, 86, 157, 165, 90, 1, 7.81288
399, 6, bw, attraction, a-b-db, 9, 2, 3, 35, 90, 165, 86, 157, 165, 90, 2, 0.689034
399, 6, bw, filler, NA, 999, 999, 3, 36, 109, 106, 75, 118, 131, 110, 3, 3.26747
399, 6, bw, filler, NA, 999, 999, 3, 36, 109, 106, 75, 118, 131, 110, 2, 0.471164
399, 6, bw, attraction, a-b-db, 2, 2, 3, 37, 165, 90, 89, 163, 90, 165, 1, 29.8021
399, 6, bw, attraction, a-b-db, 2, 2, 3, 37, 165, 90, 89, 163, 90, 165, 2, 0.736104
399, 6, bw, attraction, a-b-da, 9, 3, 4, 1, 120, 195, 186, 114, 195, 120, 3, 2.53649
399, 6, bw, attraction, a-b-da, 9, 3, 4, 1, 120, 195, 186, 114, 195, 120, 2, 0.400994
399, 6, bw, attraction, a-b-db, 5, 2, 4, 2, 88, 161, 90, 165, 165, 90, 2, 7.13488
399, 6, bw, attraction, a-b-db, 5, 2, 4, 2, 88, 161, 90, 165, 165, 90, 3, 0.510566
399, 6, bw, attraction, a-b-da, 14, 3, 4, 3, 195, 120, 181, 111, 120, 195, 3, 4.6637
399, 6, bw, attraction, a-b-da, 14, 3, 4, 3, 195, 120, 181, 111, 120, 195, 2, 0.283012
399, 6, bw, attraction, a-b-db, 5, 3, 4, 4, 120, 195, 195, 120, 117, 190, 1, 4.33342
399, 6, bw, attraction, a-b-db, 5, 3, 4, 4, 120, 195, 195, 120, 117, 190, 3, 0.750065
399, 6, bw, filler, NA, 999, 999, 4, 5, 138, 191, 141, 102, 91, 137, 1, 2.1817
399, 6, bw, filler, NA, 999, 999, 4, 5, 138, 191, 141, 102, 91, 137, 3, 0.732968
399, 6, bw, attraction, a-b-da, 5, 1, 4, 6, 132, 58, 135, 60, 60, 135, 3, 3.46148
399, 6, bw, attraction, a-b-da, 5, 1, 4, 6, 132, 58, 135, 60, 60, 135, 1, 0.593012
399, 6, bw, filler, NA, 999, 999, 4, 7, 144, 133, 66, 159, 180, 81, 1, 9.11878
399, 6, bw, filler, NA, 999, 999, 4, 7, 144, 133, 66, 159, 180, 81, 2, 0.790465
399, 6, bw, attraction, a-b-da, 2, 3, 4, 8, 195, 120, 193, 119, 120, 195, 3, 6.67627
399, 6, bw, attraction, a-b-da, 2, 3, 4, 8, 195, 120, 193, 119, 120, 195, 2, 1.29416
399, 6, bw, filler, NA, 999, 999, 4, 9, 102, 115, 144, 97, 182, 112, 3, 1.76771
399, 6, bw, filler, NA, 999, 999, 4, 9, 102, 115, 144, 97, 182, 112, 2, 1.31967
399, 6, bw, catch, NA, 999, 999, 4, 10, 161, 154, 93, 102, 134, 121, 1, 1.74468
399, 6, bw, catch, NA, 999, 999, 4, 10, 161, 154, 93, 102, 134, 121, 2, 0.273299
399, 6, bw, catch, NA, 999, 999, 4, 11, 115, 80, 113, 142, 144, 171, 3, 1.09984
399, 6, bw, catch, NA, 999, 999, 4, 11, 115, 80, 113, 142, 144, 171, 1, 0.390903
399, 6, bw, attraction, a-b-db, 9, 2, 4, 12, 165, 90, 86, 157, 90, 165, 3, 3.79667
399, 6, bw, attraction, a-b-db, 9, 2, 4, 12, 165, 90, 86, 157, 90, 165, 1, 1.39494
399, 6, bw, attraction, a-b-da, 5, 2, 4, 13, 90, 165, 161, 88, 165, 90, 1, 7.96831
399, 6, bw, attraction, a-b-da, 5, 2, 4, 13, 90, 165, 161, 88, 165, 90, 2, 0.286375
399, 6, bw, catch, NA, 999, 999, 4, 14, 115, 140, 126, 69, 150, 165, 3, 0.896957
399, 6, bw, catch, NA, 999, 999, 4, 14, 115, 140, 126, 69, 150, 165, 2, 0.356006
399, 6, bw, attraction, a-b-da, 2, 2, 4, 15, 165, 90, 90, 165, 163, 89, 2, 2.90716
399, 6, bw, attraction, a-b-da, 2, 2, 4, 15, 165, 90, 90, 165, 163, 89, 3, 0.204882
399, 6, bw, filler, NA, 999, 999, 4, 16, 129, 140, 127, 116, 66, 69, 1, 0.834758
399, 6, bw, filler, NA, 999, 999, 4, 16, 129, 140, 127, 116, 66, 69, 3, 0.920553
399, 6, bw, attraction, a-b-da, 14, 2, 4, 17, 165, 90, 90, 165, 153, 83, 2, 3.95345
399, 6, bw, attraction, a-b-da, 14, 2, 4, 17, 165, 90, 90, 165, 153, 83, 3, 0.217558
399, 6, bw, attraction, a-b-db, 2, 3, 4, 18, 195, 120, 120, 195, 119, 193, 2, 3.63072
399, 6, bw, attraction, a-b-db, 2, 3, 4, 18, 195, 120, 120, 195, 119, 193, 1, 0.211574
399, 6, bw, attraction, a-b-da, 14, 1, 4, 19, 135, 60, 125, 56, 60, 135, 1, 20.6328
399, 6, bw, attraction, a-b-da, 14, 1, 4, 19, 135, 60, 125, 56, 60, 135, 2, 1.00828
399, 6, bw, attraction, a-b-db, 9, 3, 4, 20, 195, 120, 114, 186, 120, 195, 2, 6.18929
399, 6, bw, attraction, a-b-db, 9, 3, 4, 20, 195, 120, 114, 186, 120, 195, 1, 2.87467
399, 6, bw, filler, NA, 999, 999, 4, 21, 97, 74, 161, 135, 57, 107, 2, 1.24435
399, 6, bw, filler, NA, 999, 999, 4, 21, 97, 74, 161, 135, 57, 107, 1, 1.60137
399, 6, bw, attraction, a-b-da, 9, 1, 4, 22, 135, 60, 129, 57, 60, 135, 3, 2.08673
399, 6, bw, attraction, a-b-da, 9, 1, 4, 22, 135, 60, 129, 57, 60, 135, 2, 0.346011
399, 6, bw, filler, NA, 999, 999, 4, 23, 111, 129, 94, 72, 181, 88, 3, 3.5378
399, 6, bw, filler, NA, 999, 999, 4, 23, 111, 129, 94, 72, 181, 88, 2, 0.610718
399, 6, bw, attraction, a-b-da, 5, 3, 4, 24, 190, 117, 195, 120, 120, 195, 3, 4.55983
399, 6, bw, attraction, a-b-da, 5, 3, 4, 24, 190, 117, 195, 120, 120, 195, 1, 1.33509
399, 6, bw, attraction, a-b-db, 14, 3, 4, 25, 195, 120, 120, 195, 111, 181, 1, 2.55922
399, 6, bw, attraction, a-b-db, 14, 3, 4, 25, 195, 120, 120, 195, 111, 181, 3, 0.399096
399, 6, bw, attraction, a-b-db, 5, 1, 4, 26, 135, 60, 58, 132, 60, 135, 3, 4.65287
399, 6, bw, attraction, a-b-db, 5, 1, 4, 26, 135, 60, 58, 132, 60, 135, 2, 0.344766
399, 6, bw, filler, NA, 999, 999, 4, 27, 163, 70, 139, 126, 100, 147, 2, 3.7446
399, 6, bw, filler, NA, 999, 999, 4, 27, 163, 70, 139, 126, 100, 147, 1, 0.42464
399, 6, bw, attraction, a-b-db, 14, 1, 4, 28, 60, 135, 56, 125, 135, 60, 3, 3.86921
399, 6, bw, attraction, a-b-db, 14, 1, 4, 28, 60, 135, 56, 125, 135, 60, 2, 0.224542
399, 6, bw, attraction, a-b-db, 2, 1, 4, 29, 59, 134, 60, 135, 135, 60, 2, 11.4612
399, 6, bw, attraction, a-b-db, 2, 1, 4, 29, 59, 134, 60, 135, 135, 60, 3, 0.5022
399, 6, bw, filler, NA, 999, 999, 4, 30, 193, 145, 145, 182, 116, 186, 1, 3.63997
399, 6, bw, filler, NA, 999, 999, 4, 30, 193, 145, 145, 182, 116, 186, 3, 0.692227
399, 6, bw, attraction, a-b-db, 2, 2, 4, 31, 165, 90, 89, 163, 90, 165, 2, 13.206
399, 6, bw, attraction, a-b-db, 2, 2, 4, 31, 165, 90, 89, 163, 90, 165, 1, 2.98521
399, 6, bw, filler, NA, 999, 999, 4, 32, 188, 66, 154, 62, 122, 163, 3, 2.44685
399, 6, bw, filler, NA, 999, 999, 4, 32, 188, 66, 154, 62, 122, 163, 2, 0.31521
399, 6, bw, attraction, a-b-db, 14, 2, 4, 33, 83, 153, 90, 165, 165, 90, 2, 2.09246
399, 6, bw, attraction, a-b-db, 14, 2, 4, 33, 83, 153, 90, 165, 165, 90, 1, 0.311322
399, 6, bw, attraction, a-b-da, 9, 2, 4, 34, 90, 165, 165, 90, 157, 86, 1, 3.01642
399, 6, bw, attraction, a-b-da, 9, 2, 4, 34, 90, 165, 165, 90, 157, 86, 2, 0.958034
399, 6, bw, attraction, a-b-da, 2, 1, 4, 35, 135, 60, 60, 135, 134, 59, 2, 8.55699
399, 6, bw, attraction, a-b-da, 2, 1, 4, 35, 135, 60, 60, 135, 134, 59, 1, 0.763517
399, 6, bw, filler, NA, 999, 999, 4, 36, 77, 143, 163, 155, 77, 73, 2, 1.08263
399, 6, bw, filler, NA, 999, 999, 4, 36, 77, 143, 163, 155, 77, 73, 3, 0.318259
399, 6, bw, attraction, a-b-db, 9, 1, 4, 37, 135, 60, 57, 129, 60, 135, 3, 8.68755
399, 6, bw, attraction, a-b-db, 9, 1, 4, 37, 135, 60, 57, 129, 60, 135, 2, 1.18475
399, 6, bw, attraction, a-b-da, 2, 1, 5, 1, 60, 135, 135, 60, 134, 59, 1, 3.94972
399, 6, bw, attraction, a-b-da, 2, 1, 5, 1, 60, 135, 135, 60, 134, 59, 2, 0.789586
399, 6, bw, attraction, a-b-da, 5, 2, 5, 2, 165, 90, 90, 165, 161, 88, 2, 2.85927
399, 6, bw, attraction, a-b-da, 5, 2, 5, 2, 165, 90, 90, 165, 161, 88, 3, 0.295029
399, 6, bw, attraction, a-b-db, 9, 1, 5, 3, 135, 60, 60, 135, 57, 129, 2, 3.26489
399, 6, bw, attraction, a-b-db, 9, 1, 5, 3, 135, 60, 60, 135, 57, 129, 3, 0.324506
399, 6, bw, attraction, a-b-db, 14, 1, 5, 4, 60, 135, 135, 60, 56, 125, 1, 6.49298
399, 6, bw, attraction, a-b-db, 14, 1, 5, 4, 60, 135, 135, 60, 56, 125, 2, 0.502363
399, 6, bw, filler, NA, 999, 999, 5, 5, 142, 77, 64, 170, 95, 184, 3, 1.48813
399, 6, bw, filler, NA, 999, 999, 5, 5, 142, 77, 64, 170, 95, 184, 1, 5.18708
399, 6, bw, catch, NA, 999, 999, 5, 6, 120, 75, 168, 147, 119, 136, 2, 1.58404
399, 6, bw, catch, NA, 999, 999, 5, 6, 120, 75, 168, 147, 119, 136, 1, 0.399404
399, 6, bw, filler, NA, 999, 999, 5, 7, 57, 59, 190, 122, 57, 162, 2, 0.725237
399, 6, bw, filler, NA, 999, 999, 5, 7, 57, 59, 190, 122, 57, 162, 1, 0.943083
399, 6, bw, filler, NA, 999, 999, 5, 8, 192, 185, 195, 118, 124, 85, 1, 0.814683
399, 6, bw, filler, NA, 999, 999, 5, 8, 192, 185, 195, 118, 124, 85, 3, 0.548998
399, 6, bw, filler, NA, 999, 999, 5, 9, 187, 69, 72, 62, 79, 127, 1, 2.11681
399, 6, bw, filler, NA, 999, 999, 5, 9, 187, 69, 72, 62, 79, 127, 2, 0.45489
399, 6, bw, attraction, a-b-db, 9, 3, 5, 10, 195, 120, 120, 195, 114, 186, 2, 4.21068
399, 6, bw, attraction, a-b-db, 9, 3, 5, 10, 195, 120, 120, 195, 114, 186, 3, 0.831898
399, 6, bw, catch, NA, 999, 999, 5, 11, 122, 73, 195, 120, 112, 143, 2, 1.90828
399, 6, bw, catch, NA, 999, 999, 5, 11, 122, 73, 195, 120, 112, 143, 1, 0.750328
399, 6, bw, attraction, a-b-db, 5, 3, 5, 12, 120, 195, 117, 190, 195, 120, 3, 6.28605
399, 6, bw, attraction, a-b-db, 5, 3, 5, 12, 120, 195, 117, 190, 195, 120, 2, 0.263998
399, 6, bw, attraction, a-b-db, 14, 3, 5, 13, 111, 181, 120, 195, 195, 120, 2, 2.41118
399, 6, bw, attraction, a-b-db, 14, 3, 5, 13, 111, 181, 120, 195, 195, 120, 1, 0.257053
399, 6, bw, attraction, a-b-db, 5, 2, 5, 14, 88, 161, 90, 165, 165, 90, 2, 3.26028
399, 6, bw, attraction, a-b-db, 5, 2, 5, 14, 88, 161, 90, 165, 165, 90, 1, 0.279988
399, 6, bw, attraction, a-b-da, 9, 2, 5, 15, 157, 86, 90, 165, 165, 90, 2, 4.04249
399, 6, bw, attraction, a-b-da, 9, 2, 5, 15, 157, 86, 90, 165, 165, 90, 1, 0.246508
399, 6, bw, filler, NA, 999, 999, 5, 16, 159, 141, 144, 184, 116, 143, 2, 2.49029
399, 6, bw, filler, NA, 999, 999, 5, 16, 159, 141, 144, 184, 116, 143, 3, 0.364878
399, 6, bw, attraction, a-b-db, 2, 2, 5, 17, 90, 165, 89, 163, 165, 90, 3, 5.27595
399, 6, bw, attraction, a-b-db, 2, 2, 5, 17, 90, 165, 89, 163, 165, 90, 2, 0.20638
399, 6, bw, attraction, a-b-da, 5, 1, 5, 18, 132, 58, 60, 135, 135, 60, 2, 7.6515
399, 6, bw, attraction, a-b-da, 5, 1, 5, 18, 132, 58, 60, 135, 135, 60, 1, 0.57438
399, 6, bw, filler, NA, 999, 999, 5, 19, 170, 130, 121, 164, 188, 145, 3, 0.980837
399, 6, bw, filler, NA, 999, 999, 5, 19, 170, 130, 121, 164, 188, 145, 2, 0.24451
399, 6, bw, filler, NA, 999, 999, 5, 20, 78, 85, 190, 151, 172, 61, 2, 0.816429
399, 6, bw, filler, NA, 999, 999, 5, 20, 78, 85, 190, 151, 172, 61, 1, 0.278746
399, 6, bw, catch, NA, 999, 999, 5, 21, 72, 123, 108, 147, 143, 172, 3, 1.29732
399, 6, bw, catch, NA, 999, 999, 5, 21, 72, 123, 108, 147, 143, 172, 1, 0.500273
399, 6, bw, attraction, a-b-da, 14, 3, 5, 22, 195, 120, 120, 195, 181, 111, 1, 2.98997
399, 6, bw, attraction, a-b-da, 14, 3, 5, 22, 195, 120, 120, 195, 181, 111, 3, 0.27641
399, 6, bw, attraction, a-b-da, 9, 3, 5, 23, 195, 120, 186, 114, 120, 195, 3, 3.31087
399, 6, bw, attraction, a-b-da, 9, 3, 5, 23, 195, 120, 186, 114, 120, 195, 2, 0.928534
399, 6, bw, attraction, a-b-da, 14, 1, 5, 24, 125, 56, 60, 135, 135, 60, 3, 4.0968
399, 6, bw, attraction, a-b-da, 14, 1, 5, 24, 125, 56, 60, 135, 135, 60, 1, 0.578836
399, 6, bw, attraction, a-b-da, 2, 3, 5, 25, 195, 120, 120, 195, 193, 119, 2, 6.8812
399, 6, bw, attraction, a-b-da, 2, 3, 5, 25, 195, 120, 120, 195, 193, 119, 1, 0.451112
399, 6, bw, attraction, a-b-da, 5, 3, 5, 26, 190, 117, 195, 120, 120, 195, 3, 9.07103
399, 6, bw, attraction, a-b-da, 5, 3, 5, 26, 190, 117, 195, 120, 120, 195, 2, 1.37675
399, 6, bw, filler, NA, 999, 999, 5, 27, 186, 128, 83, 156, 189, 183, 3, 1.46292
399, 6, bw, filler, NA, 999, 999, 5, 27, 186, 128, 83, 156, 189, 183, 2, 0.259075
399, 6, bw, attraction, a-b-db, 5, 1, 5, 28, 60, 135, 58, 132, 135, 60, 2, 2.85423
399, 6, bw, attraction, a-b-db, 5, 1, 5, 28, 60, 135, 58, 132, 135, 60, 1, 0.330691
399, 6, bw, attraction, a-b-da, 9, 1, 5, 29, 60, 135, 135, 60, 129, 57, 1, 12.6432
399, 6, bw, attraction, a-b-da, 9, 1, 5, 29, 60, 135, 135, 60, 129, 57, 2, 0.740674
399, 6, bw, filler, NA, 999, 999, 5, 30, 140, 195, 105, 110, 123, 191, 1, 1.00419
399, 6, bw, filler, NA, 999, 999, 5, 30, 140, 195, 105, 110, 123, 191, 2, 0.530631
399, 6, bw, attraction, a-b-da, 14, 2, 5, 31, 165, 90, 153, 83, 90, 165, 1, 6.37101
399, 6, bw, attraction, a-b-da, 14, 2, 5, 31, 165, 90, 153, 83, 90, 165, 2, 0.289646
399, 6, bw, attraction, a-b-db, 2, 3, 5, 32, 119, 193, 120, 195, 195, 120, 2, 2.46758
399, 6, bw, attraction, a-b-db, 2, 3, 5, 32, 119, 193, 120, 195, 195, 120, 1, 0.367362
399, 6, bw, attraction, a-b-db, 9, 2, 5, 33, 90, 165, 165, 90, 86, 157, 1, 2.57454
399, 6, bw, attraction, a-b-db, 9, 2, 5, 33, 90, 165, 165, 90, 86, 157, 3, 0.869757
399, 6, bw, attraction, a-b-db, 14, 2, 5, 34, 165, 90, 90, 165, 83, 153, 2, 9.44868
399, 6, bw, attraction, a-b-db, 14, 2, 5, 34, 165, 90, 90, 165, 83, 153, 3, 0.426996
399, 6, bw, filler, NA, 999, 999, 5, 35, 138, 86, 82, 114, 98, 98, 1, 41.7755
399, 6, bw, filler, NA, 999, 999, 5, 35, 138, 86, 82, 114, 98, 98, 2, 0.363231
399, 6, bw, attraction, a-b-db, 2, 1, 5, 36, 135, 60, 59, 134, 60, 135, 3, 2.7223
399, 6, bw, attraction, a-b-db, 2, 1, 5, 36, 135, 60, 59, 134, 60, 135, 2, 0.26753
399, 6, bw, attraction, a-b-da, 2, 2, 5, 37, 163, 89, 165, 90, 90, 165, 3, 2.86269
399, 6, bw, attraction, a-b-da, 2, 2, 5, 37, 163, 89, 165, 90, 90, 165, 2, 0.538362
399, 6, bw, attraction, a-b-da, 14, 2, 6, 1, 153, 83, 165, 90, 90, 165, 3, 2.93877
399, 6, bw, attraction, a-b-da, 14, 2, 6, 1, 153, 83, 165, 90, 90, 165, 1, 15.3872
399, 6, bw, attraction, a-b-db, 9, 3, 6, 2, 120, 195, 114, 186, 195, 120, 1, 11.8609
399, 6, bw, attraction, a-b-db, 9, 3, 6, 2, 120, 195, 114, 186, 195, 120, 2, 0.301949
399, 6, bw, catch, NA, 999, 999, 6, 3, 120, 195, 104, 91, 148, 107, 1, 0.703714
399, 6, bw, catch, NA, 999, 999, 6, 3, 120, 195, 104, 91, 148, 107, 2, 0.234807
399, 6, bw, catch, NA, 999, 999, 6, 4, 141, 114, 162, 153, 121, 74, 2, 1.03135
399, 6, bw, catch, NA, 999, 999, 6, 4, 141, 114, 162, 153, 121, 74, 3, 0.949012
399, 6, bw, filler, NA, 999, 999, 6, 5, 59, 92, 170, 105, 185, 168, 3, 0.73266
399, 6, bw, filler, NA, 999, 999, 6, 5, 59, 92, 170, 105, 185, 168, 1, 0.354225
399, 6, bw, catch, NA, 999, 999, 6, 6, 156, 159, 132, 63, 115, 140, 1, 0.678377
399, 6, bw, catch, NA, 999, 999, 6, 6, 156, 159, 132, 63, 115, 140, 2, 0.258137
399, 6, bw, attraction, a-b-db, 9, 2, 6, 7, 165, 90, 86, 157, 90, 165, 3, 3.41318
399, 6, bw, attraction, a-b-db, 9, 2, 6, 7, 165, 90, 86, 157, 90, 165, 2, 0.218732
399, 6, bw, attraction, a-b-da, 14, 1, 6, 8, 125, 56, 135, 60, 60, 135, 3, 3.48802
399, 6, bw, attraction, a-b-da, 14, 1, 6, 8, 125, 56, 135, 60, 60, 135, 1, 0.338835
399, 6, bw, attraction, a-b-da, 5, 3, 6, 9, 190, 117, 195, 120, 120, 195, 2, 2.49937
399, 6, bw, attraction, a-b-da, 5, 3, 6, 9, 190, 117, 195, 120, 120, 195, 1, 0.261866
399, 6, bw, attraction, a-b-db, 2, 2, 6, 10, 90, 165, 165, 90, 89, 163, 1, 2.77717
399, 6, bw, attraction, a-b-db, 2, 2, 6, 10, 90, 165, 165, 90, 89, 163, 3, 0.216168
399, 6, bw, filler, NA, 999, 999, 6, 11, 166, 105, 75, 161, 81, 65, 1, 1.83744
399, 6, bw, filler, NA, 999, 999, 6, 11, 166, 105, 75, 161, 81, 65, 3, 0.274822
399, 6, bw, attraction, a-b-da, 5, 1, 6, 12, 132, 58, 135, 60, 60, 135, 3, 3.10135
399, 6, bw, attraction, a-b-da, 5, 1, 6, 12, 132, 58, 135, 60, 60, 135, 1, 0.77572
399, 6, bw, filler, NA, 999, 999, 6, 13, 61, 129, 88, 149, 170, 178, 3, 0.710091
399, 6, bw, filler, NA, 999, 999, 6, 13, 61, 129, 88, 149, 170, 178, 1, 0.320497
399, 6, bw, filler, NA, 999, 999, 6, 14, 182, 114, 58, 94, 141, 118, 1, 1.88163
399, 6, bw, filler, NA, 999, 999, 6, 14, 182, 114, 58, 94, 141, 118, 2, 0.589051
399, 6, bw, attraction, a-b-da, 14, 3, 6, 15, 195, 120, 181, 111, 120, 195, 3, 3.31546
399, 6, bw, attraction, a-b-da, 14, 3, 6, 15, 195, 120, 181, 111, 120, 195, 2, 0.221008
399, 6, bw, attraction, a-b-da, 9, 2, 6, 16, 165, 90, 90, 165, 157, 86, 2, 1.86627
399, 6, bw, attraction, a-b-da, 9, 2, 6, 16, 165, 90, 90, 165, 157, 86, 3, 0.366283
399, 6, bw, filler, NA, 999, 999, 6, 17, 192, 118, 145, 180, 191, 113, 2, 2.40547
399, 6, bw, filler, NA, 999, 999, 6, 17, 192, 118, 145, 180, 191, 113, 1, 0.251344
399, 6, bw, attraction, a-b-db, 5, 3, 6, 18, 117, 190, 195, 120, 120, 195, 3, 8.1992
399, 6, bw, attraction, a-b-db, 5, 3, 6, 18, 117, 190, 195, 120, 120, 195, 1, 0.299936
399, 6, bw, filler, NA, 999, 999, 6, 19, 97, 95, 146, 68, 127, 182, 3, 0.965755
399, 6, bw, filler, NA, 999, 999, 6, 19, 97, 95, 146, 68, 127, 182, 1, 0.238219
399, 6, bw, attraction, a-b-db, 9, 1, 6, 20, 57, 129, 135, 60, 60, 135, 3, 6.49869
399, 6, bw, attraction, a-b-db, 9, 1, 6, 20, 57, 129, 135, 60, 60, 135, 2, 1.72395
399, 6, bw, attraction, a-b-db, 14, 3, 6, 21, 120, 195, 195, 120, 111, 181, 2, 61.004
399, 6, bw, attraction, a-b-db, 14, 3, 6, 21, 120, 195, 195, 120, 111, 181, 3, 0.240923
399, 6, bw, attraction, a-b-db, 14, 1, 6, 22, 56, 125, 60, 135, 135, 60, 2, 2.17299
399, 6, bw, attraction, a-b-db, 14, 1, 6, 22, 56, 125, 60, 135, 135, 60, 1, 0.300042
399, 6, bw, attraction, a-b-db, 2, 3, 6, 23, 195, 120, 120, 195, 119, 193, 2, 2.53392
399, 6, bw, attraction, a-b-db, 2, 3, 6, 23, 195, 120, 120, 195, 119, 193, 3, 0.255133
399, 6, bw, attraction, a-b-da, 2, 1, 6, 24, 135, 60, 60, 135, 134, 59, 2, 2.81916
399, 6, bw, attraction, a-b-da, 2, 1, 6, 24, 135, 60, 60, 135, 134, 59, 1, 0.344783
399, 6, bw, filler, NA, 999, 999, 6, 25, 162, 179, 195, 76, 132, 81, 1, 1.0406
399, 6, bw, filler, NA, 999, 999, 6, 25, 162, 179, 195, 76, 132, 81, 3, 0.237619
399, 6, bw, attraction, a-b-da, 2, 2, 6, 26, 90, 165, 163, 89, 165, 90, 3, 3.61809
399, 6, bw, attraction, a-b-da, 2, 2, 6, 26, 90, 165, 163, 89, 165, 90, 2, 0.695687
399, 6, bw, attraction, a-b-da, 2, 3, 6, 27, 195, 120, 120, 195, 193, 119, 2, 3.18536
399, 6, bw, attraction, a-b-da, 2, 3, 6, 27, 195, 120, 120, 195, 193, 119, 3, 0.272343
399, 6, bw, attraction, a-b-da, 9, 3, 6, 28, 186, 114, 120, 195, 195, 120, 2, 2.4275
399, 6, bw, attraction, a-b-da, 9, 3, 6, 28, 186, 114, 120, 195, 195, 120, 1, 0.224684
399, 6, bw, attraction, a-b-da, 5, 2, 6, 29, 161, 88, 165, 90, 90, 165, 3, 9.79724
399, 6, bw, attraction, a-b-da, 5, 2, 6, 29, 161, 88, 165, 90, 90, 165, 1, 0.305476
399, 6, bw, filler, NA, 999, 999, 6, 30, 106, 136, 194, 146, 164, 169, 2, 1.99544
399, 6, bw, filler, NA, 999, 999, 6, 30, 106, 136, 194, 146, 164, 169, 1, 0.274088
399, 6, bw, attraction, a-b-db, 2, 1, 6, 31, 60, 135, 135, 60, 59, 134, 1, 2.62054
399, 6, bw, attraction, a-b-db, 2, 1, 6, 31, 60, 135, 135, 60, 59, 134, 2, 0.346504
399, 6, bw, attraction, a-b-db, 5, 1, 6, 32, 58, 132, 135, 60, 60, 135, 3, 3.72224
399, 6, bw, attraction, a-b-db, 5, 1, 6, 32, 58, 132, 135, 60, 60, 135, 2, 0.362998
399, 6, bw, filler, NA, 999, 999, 6, 33, 121, 56, 168, 137, 158, 167, 3, 1.40222
399, 6, bw, filler, NA, 999, 999, 6, 33, 121, 56, 168, 137, 158, 167, 1, 0.505014
399, 6, bw, attraction, a-b-db, 5, 2, 6, 34, 165, 90, 88, 161, 90, 165, 3, 5.6348
399, 6, bw, attraction, a-b-db, 5, 2, 6, 34, 165, 90, 88, 161, 90, 165, 1, 1.31901
399, 6, bw, attraction, a-b-db, 14, 2, 6, 35, 165, 90, 90, 165, 83, 153, 2, 2.28789
399, 6, bw, attraction, a-b-db, 14, 2, 6, 35, 165, 90, 90, 165, 83, 153, 3, 0.250587
399, 6, bw, filler, NA, 999, 999, 6, 36, 151, 112, 101, 67, 171, 61, 1, 1.11831
399, 6, bw, filler, NA, 999, 999, 6, 36, 151, 112, 101, 67, 171, 61, 2, 0.464654
399, 6, bw, attraction, a-b-da, 9, 1, 6, 37, 129, 57, 60, 135, 135, 60, 2, 1.45179
399, 6, bw, attraction, a-b-da, 9, 1, 6, 37, 129, 57, 60, 135, 135, 60, 1, 0.936668
399, 6, bw, filler, NA, 999, 999, 7, 1, 66, 189, 60, 122, 169, 98, 3, 3.22493
399, 6, bw, filler, NA, 999, 999, 7, 1, 66, 189, 60, 122, 169, 98, 2, 0.550055
399, 6, bw, filler, NA, 999, 999, 7, 2, 67, 108, 189, 57, 74, 101, 2, 5.83766
399, 6, bw, filler, NA, 999, 999, 7, 2, 67, 108, 189, 57, 74, 101, 3, 0.249804
399, 6, bw, catch, NA, 999, 999, 7, 3, 84, 111, 181, 134, 162, 93, 2, 2.23775
399, 6, bw, catch, NA, 999, 999, 7, 3, 84, 111, 181, 134, 162, 93, 1, 0.242322
399, 6, bw, attraction, a-b-db, 14, 2, 7, 4, 90, 165, 83, 153, 165, 90, 1, 6.45419
399, 6, bw, attraction, a-b-db, 14, 2, 7, 4, 90, 165, 83, 153, 165, 90, 2, 0.553513
399, 6, bw, filler, NA, 999, 999, 7, 5, 189, 93, 75, 105, 180, 154, 3, 0.905364
399, 6, bw, filler, NA, 999, 999, 7, 5, 189, 93, 75, 105, 180, 154, 2, 0.187745
399, 6, bw, attraction, a-b-da, 5, 2, 7, 6, 90, 165, 165, 90, 161, 88, 1, 7.7542
399, 6, bw, attraction, a-b-da, 5, 2, 7, 6, 90, 165, 165, 90, 161, 88, 2, 0.577004
399, 6, bw, attraction, a-b-db, 2, 3, 7, 7, 119, 193, 120, 195, 195, 120, 2, 5.79947
399, 6, bw, attraction, a-b-db, 2, 3, 7, 7, 119, 193, 120, 195, 195, 120, 1, 0.812963
399, 6, bw, attraction, a-b-db, 5, 2, 7, 8, 88, 161, 90, 165, 165, 90, 3, 4.72995
399, 6, bw, attraction, a-b-db, 5, 2, 7, 8, 88, 161, 90, 165, 165, 90, 1, 0.346585
399, 6, bw, attraction, a-b-db, 9, 3, 7, 9, 114, 186, 195, 120, 120, 195, 3, 7.65031
399, 6, bw, attraction, a-b-db, 9, 3, 7, 9, 114, 186, 195, 120, 120, 195, 1, 0.301224
399, 6, bw, catch, NA, 999, 999, 7, 10, 143, 172, 78, 117, 120, 135, 1, 1.87901
399, 6, bw, catch, NA, 999, 999, 7, 10, 143, 172, 78, 117, 120, 135, 2, 0.226392
399, 6, bw, attraction, a-b-da, 9, 1, 7, 11, 60, 135, 129, 57, 135, 60, 3, 4.35901
399, 6, bw, attraction, a-b-da, 9, 1, 7, 11, 60, 135, 129, 57, 135, 60, 2, 0.574224
399, 6, bw, attraction, a-b-da, 14, 1, 7, 12, 60, 135, 125, 56, 135, 60, 1, 1.81286
399, 6, bw, attraction, a-b-da, 14, 1, 7, 12, 60, 135, 125, 56, 135, 60, 2, 0.314748
399, 6, bw, attraction, a-b-da, 9, 2, 7, 13, 90, 165, 157, 86, 165, 90, 3, 2.99596
399, 6, bw, attraction, a-b-da, 9, 2, 7, 13, 90, 165, 157, 86, 165, 90, 2, 0.274296
399, 6, bw, filler, NA, 999, 999, 7, 14, 127, 154, 136, 151, 69, 120, 1, 1.02883
399, 6, bw, filler, NA, 999, 999, 7, 14, 127, 154, 136, 151, 69, 120, 3, 0.266419
399, 6, bw, filler, NA, 999, 999, 7, 15, 154, 95, 66, 193, 95, 66, 1, 2.41371
399, 6, bw, filler, NA, 999, 999, 7, 15, 154, 95, 66, 193, 95, 66, 3, 0.403576
399, 6, bw, attraction, a-b-db, 5, 3, 7, 16, 195, 120, 117, 190, 120, 195, 3, 5.69734
399, 6, bw, attraction, a-b-db, 5, 3, 7, 16, 195, 120, 117, 190, 120, 195, 2, 0.370878
399, 6, bw, attraction, a-b-da, 9, 3, 7, 17, 186, 114, 120, 195, 195, 120, 2, 6.95402
399, 6, bw, attraction, a-b-da, 9, 3, 7, 17, 186, 114, 120, 195, 195, 120, 1, 0.473222
399, 6, bw, filler, NA, 999, 999, 7, 18, 91, 62, 125, 175, 165, 195, 3, 1.12368
399, 6, bw, filler, NA, 999, 999, 7, 18, 91, 62, 125, 175, 165, 195, 1, 0.629325
399, 6, bw, filler, NA, 999, 999, 7, 19, 142, 183, 83, 84, 152, 150, 1, 1.2577
399, 6, bw, filler, NA, 999, 999, 7, 19, 142, 183, 83, 84, 152, 150, 2, 0.597917
399, 6, bw, attraction, a-b-da, 2, 1, 7, 20, 134, 59, 135, 60, 60, 135, 2, 5.44366
399, 6, bw, attraction, a-b-da, 2, 1, 7, 20, 134, 59, 135, 60, 60, 135, 3, 0.367304
399, 6, bw, attraction, a-b-db, 14, 1, 7, 21, 60, 135, 56, 125, 135, 60, 1, 6.73445
399, 6, bw, attraction, a-b-db, 14, 1, 7, 21, 60, 135, 56, 125, 135, 60, 2, 0.25431
399, 6, bw, catch, NA, 999, 999, 7, 22, 132, 63, 101, 154, 140, 175, 3, 1.01018
399, 6, bw, catch, NA, 999, 999, 7, 22, 132, 63, 101, 154, 140, 175, 1, 0.472537
399, 6, bw, attraction, a-b-db, 5, 1, 7, 23, 135, 60, 60, 135, 58, 132, 1, 4.63506
399, 6, bw, attraction, a-b-db, 5, 1, 7, 23, 135, 60, 60, 135, 58, 132, 3, 0.407586
399, 6, bw, attraction, a-b-da, 5, 3, 7, 24, 120, 195, 195, 120, 190, 117, 1, 4.16462
399, 6, bw, attraction, a-b-da, 5, 3, 7, 24, 120, 195, 195, 120, 190, 117, 2, 0.980091
399, 6, bw, attraction, a-b-db, 2, 1, 7, 25, 135, 60, 60, 135, 59, 134, 2, 7.45829
399, 6, bw, attraction, a-b-db, 2, 1, 7, 25, 135, 60, 60, 135, 59, 134, 3, 0.324645
399, 6, bw, attraction, a-b-da, 5, 1, 7, 26, 132, 58, 60, 135, 135, 60, 2, 5.02914
399, 6, bw, attraction, a-b-da, 5, 1, 7, 26, 132, 58, 60, 135, 135, 60, 3, 0.409451
399, 6, bw, attraction, a-b-db, 14, 3, 7, 27, 120, 195, 195, 120, 111, 181, 1, 9.40668
399, 6, bw, attraction, a-b-db, 14, 3, 7, 27, 120, 195, 195, 120, 111, 181, 3, 0.330297
399, 6, bw, attraction, a-b-db, 9, 2, 7, 28, 90, 165, 86, 157, 165, 90, 1, 8.31487
399, 6, bw, attraction, a-b-db, 9, 2, 7, 28, 90, 165, 86, 157, 165, 90, 2, 0.195034
399, 6, bw, attraction, a-b-db, 2, 2, 7, 29, 89, 163, 165, 90, 90, 165, 2, 4.40879
399, 6, bw, attraction, a-b-db, 2, 2, 7, 29, 89, 163, 165, 90, 90, 165, 1, 0.214078
399, 6, bw, attraction, a-b-da, 14, 3, 7, 30, 195, 120, 181, 111, 120, 195, 3, 4.0914
399, 6, bw, attraction, a-b-da, 14, 3, 7, 30, 195, 120, 181, 111, 120, 195, 2, 0.205255
399, 6, bw, attraction, a-b-da, 14, 2, 7, 31, 165, 90, 153, 83, 90, 165, 1, 6.71508
399, 6, bw, attraction, a-b-da, 14, 2, 7, 31, 165, 90, 153, 83, 90, 165, 2, 0.307678
399, 6, bw, filler, NA, 999, 999, 7, 32, 69, 124, 183, 190, 108, 143, 2, 1.2208
399, 6, bw, filler, NA, 999, 999, 7, 32, 69, 124, 183, 190, 108, 143, 1, 0.250464
399, 6, bw, attraction, a-b-da, 2, 3, 7, 33, 195, 120, 120, 195, 193, 119, 2, 3.07845
399, 6, bw, attraction, a-b-da, 2, 3, 7, 33, 195, 120, 120, 195, 193, 119, 3, 0.193313
399, 6, bw, attraction, a-b-db, 9, 1, 7, 34, 135, 60, 57, 129, 60, 135, 3, 2.39923
399, 6, bw, attraction, a-b-db, 9, 1, 7, 34, 135, 60, 57, 129, 60, 135, 2, 0.541855
399, 6, bw, filler, NA, 999, 999, 7, 35, 185, 183, 108, 68, 74, 106, 1, 7.09376
399, 6, bw, filler, NA, 999, 999, 7, 35, 185, 183, 108, 68, 74, 106, 2, 0.342726
399, 6, bw, attraction, a-b-da, 2, 2, 7, 36, 163, 89, 90, 165, 165, 90, 2, 2.89445
399, 6, bw, attraction, a-b-da, 2, 2, 7, 36, 163, 89, 90, 165, 165, 90, 1, 0.416828
399, 6, bw, filler, NA, 999, 999, 7, 37, 183, 69, 172, 77, 186, 58, 2, 5.88599
399, 6, bw, filler, NA, 999, 999, 7, 37, 183, 69, 172, 77, 186, 58, 3, 0.352152
399, 6, bw, attraction, a-b-da, 2, 3, 8, 1, 120, 195, 195, 120, 193, 119, 1, 5.32803
399, 6, bw, attraction, a-b-da, 2, 3, 8, 1, 120, 195, 195, 120, 193, 119, 2, 0.248296
399, 6, bw, attraction, a-b-db, 2, 3, 8, 2, 119, 193, 195, 120, 120, 195, 1, 2.84416
399, 6, bw, attraction, a-b-db, 2, 3, 8, 2, 119, 193, 195, 120, 120, 195, 2, 2.51268
399, 6, bw, attraction, a-b-da, 9, 1, 8, 3, 129, 57, 60, 135, 135, 60, 2, 5.61712
399, 6, bw, attraction, a-b-da, 9, 1, 8, 3, 129, 57, 60, 135, 135, 60, 1, 0.501976
399, 6, bw, attraction, a-b-db, 9, 3, 8, 4, 114, 186, 195, 120, 120, 195, 3, 5.55989
399, 6, bw, attraction, a-b-db, 9, 3, 8, 4, 114, 186, 195, 120, 120, 195, 1, 0.686607
399, 6, bw, filler, NA, 999, 999, 8, 5, 62, 167, 147, 120, 144, 190, 3, 2.13706
399, 6, bw, filler, NA, 999, 999, 8, 5, 62, 167, 147, 120, 144, 190, 1, 0.785689
399, 6, bw, filler, NA, 999, 999, 8, 6, 173, 141, 159, 184, 70, 92, 2, 3.09603
399, 6, bw, filler, NA, 999, 999, 8, 6, 173, 141, 159, 184, 70, 92, 3, 0.482402
399, 6, bw, attraction, a-b-da, 14, 3, 8, 7, 195, 120, 120, 195, 181, 111, 2, 2.95678
399, 6, bw, attraction, a-b-da, 14, 3, 8, 7, 195, 120, 120, 195, 181, 111, 3, 0.276556
399, 6, bw, attraction, a-b-da, 9, 3, 8, 8, 120, 195, 195, 120, 186, 114, 2, 7.87108
399, 6, bw, attraction, a-b-da, 9, 3, 8, 8, 120, 195, 195, 120, 186, 114, 3, 0.337215
399, 6, bw, attraction, a-b-db, 2, 1, 8, 9, 135, 60, 59, 134, 60, 135, 3, 6.68193
399, 6, bw, attraction, a-b-db, 2, 1, 8, 9, 135, 60, 59, 134, 60, 135, 2, 0.339666
399, 6, bw, attraction, a-b-da, 5, 1, 8, 10, 135, 60, 60, 135, 132, 58, 1, 4.35545
399, 6, bw, attraction, a-b-da, 5, 1, 8, 10, 135, 60, 60, 135, 132, 58, 3, 2.09078
399, 6, bw, attraction, a-b-db, 5, 3, 8, 11, 195, 120, 117, 190, 120, 195, 3, 8.91624
399, 6, bw, attraction, a-b-db, 5, 3, 8, 11, 195, 120, 117, 190, 120, 195, 2, 0.419857
399, 6, bw, filler, NA, 999, 999, 8, 12, 118, 88, 194, 133, 132, 127, 2, 1.21708
399, 6, bw, filler, NA, 999, 999, 8, 12, 118, 88, 194, 133, 132, 127, 1, 0.303294
399, 6, bw, filler, NA, 999, 999, 8, 13, 161, 134, 158, 189, 74, 72, 2, 1.26513
399, 6, bw, filler, NA, 999, 999, 8, 13, 161, 134, 158, 189, 74, 72, 3, 0.541375
399, 6, bw, catch, NA, 999, 999, 8, 14, 67, 128, 187, 128, 165, 90, 2, 1.26911
399, 6, bw, catch, NA, 999, 999, 8, 14, 67, 128, 187, 128, 165, 90, 1, 0.297559
399, 6, bw, attraction, a-b-da, 14, 1, 8, 15, 125, 56, 135, 60, 60, 135, 3, 2.63525
399, 6, bw, attraction, a-b-da, 14, 1, 8, 15, 125, 56, 135, 60, 60, 135, 2, 0.496418
399, 6, bw, attraction, a-b-db, 9, 2, 8, 16, 165, 90, 90, 165, 86, 157, 2, 7.56227
399, 6, bw, attraction, a-b-db, 9, 2, 8, 16, 165, 90, 90, 165, 86, 157, 3, 0.304518
399, 6, bw, attraction, a-b-da, 2, 2, 8, 17, 163, 89, 165, 90, 90, 165, 3, 5.37843
399, 6, bw, attraction, a-b-da, 2, 2, 8, 17, 163, 89, 165, 90, 90, 165, 2, 0.392638
399, 6, bw, filler, NA, 999, 999, 8, 18, 128, 154, 92, 149, 138, 156, 3, 1.95062
399, 6, bw, filler, NA, 999, 999, 8, 18, 128, 154, 92, 149, 138, 156, 2, 0.231228
399, 6, bw, attraction, a-b-db, 2, 2, 8, 19, 90, 165, 89, 163, 165, 90, 1, 6.19568
399, 6, bw, attraction, a-b-db, 2, 2, 8, 19, 90, 165, 89, 163, 165, 90, 3, 1.76909
399, 6, bw, filler, NA, 999, 999, 8, 20, 97, 84, 112, 70, 126, 169, 3, 4.90374
399, 6, bw, filler, NA, 999, 999, 8, 20, 97, 84, 112, 70, 126, 169, 1, 1.27352
399, 6, bw, attraction, a-b-db, 14, 2, 8, 21, 90, 165, 165, 90, 83, 153, 1, 2.04377
399, 6, bw, attraction, a-b-db, 14, 2, 8, 21, 90, 165, 165, 90, 83, 153, 3, 0.192487
399, 6, bw, filler, NA, 999, 999, 8, 22, 195, 123, 156, 137, 98, 174, 1, 1.7903
399, 6, bw, filler, NA, 999, 999, 8, 22, 195, 123, 156, 137, 98, 174, 3, 0.173063
399, 6, bw, attraction, a-b-da, 9, 2, 8, 23, 90, 165, 157, 86, 165, 90, 3, 3.17167
399, 6, bw, attraction, a-b-da, 9, 2, 8, 23, 90, 165, 157, 86, 165, 90, 2, 0.858588
399, 6, bw, attraction, a-b-db, 5, 1, 8, 24, 135, 60, 58, 132, 60, 135, 2, 4.43759
399, 6, bw, attraction, a-b-db, 5, 1, 8, 24, 135, 60, 58, 132, 60, 135, 3, 1.43414
399, 6, bw, filler, NA, 999, 999, 8, 25, 136, 116, 85, 167, 79, 119, 1, 1.39026
399, 6, bw, filler, NA, 999, 999, 8, 25, 136, 116, 85, 167, 79, 119, 3, 0.269146
399, 6, bw, filler, NA, 999, 999, 8, 26, 114, 68, 102, 71, 123, 131, 3, 1.74437
399, 6, bw, filler, NA, 999, 999, 8, 26, 114, 68, 102, 71, 123, 131, 1, 0.897207
399, 6, bw, attraction, a-b-da, 14, 2, 8, 27, 153, 83, 90, 165, 165, 90, 2, 2.81074
399, 6, bw, attraction, a-b-da, 14, 2, 8, 27, 153, 83, 90, 165, 165, 90, 1, 0.256572
399, 6, bw, attraction, a-b-db, 5, 2, 8, 28, 165, 90, 88, 161, 90, 165, 1, 2.28374
399, 6, bw, attraction, a-b-db, 5, 2, 8, 28, 165, 90, 88, 161, 90, 165, 2, 0.25503
399, 6, bw, filler, NA, 999, 999, 8, 29, 131, 138, 87, 159, 188, 157, 3, 0.954906
399, 6, bw, filler, NA, 999, 999, 8, 29, 131, 138, 87, 159, 188, 157, 2, 0.355205
399, 6, bw, attraction, a-b-db, 14, 1, 8, 30, 56, 125, 135, 60, 60, 135, 3, 6.40305
399, 6, bw, attraction, a-b-db, 14, 1, 8, 30, 56, 125, 135, 60, 60, 135, 1, 0.520448
399, 6, bw, attraction, a-b-da, 2, 1, 8, 31, 135, 60, 60, 135, 134, 59, 1, 2.25752
399, 6, bw, attraction, a-b-da, 2, 1, 8, 31, 135, 60, 60, 135, 134, 59, 3, 0.869422
399, 6, bw, attraction, a-b-da, 5, 3, 8, 32, 120, 195, 195, 120, 190, 117, 1, 4.78446
399, 6, bw, attraction, a-b-da, 5, 3, 8, 32, 120, 195, 195, 120, 190, 117, 2, 0.230903
399, 6, bw, catch, NA, 999, 999, 8, 33, 150, 165, 84, 111, 144, 111, 1, 0.947404
399, 6, bw, catch, NA, 999, 999, 8, 33, 150, 165, 84, 111, 144, 111, 2, 0.212449
399, 6, bw, attraction, a-b-db, 9, 1, 8, 34, 60, 135, 57, 129, 135, 60, 1, 8.03364
399, 6, bw, attraction, a-b-db, 9, 1, 8, 34, 60, 135, 57, 129, 135, 60, 2, 0.229198
399, 6, bw, attraction, a-b-da, 5, 2, 8, 35, 165, 90, 161, 88, 90, 165, 3, 2.98563
399, 6, bw, attraction, a-b-da, 5, 2, 8, 35, 165, 90, 161, 88, 90, 165, 2, 0.2487
399, 6, bw, catch, NA, 999, 999, 8, 36, 146, 169, 123, 132, 62, 133, 1, 0.876471
399, 6, bw, catch, NA, 999, 999, 8, 36, 146, 169, 123, 132, 62, 133, 3, 0.264205
399, 6, bw, attraction, a-b-db, 14, 3, 8, 37, 120, 195, 111, 181, 195, 120, 3, 2.73161
399, 6, bw, attraction, a-b-db, 14, 3, 8, 37, 120, 195, 111, 181, 195, 120, 2, 0.284687
