sub_n, computer_n, bw_cond, effect, set, distance, diag, block_n, trial_n, h1, w1, h2, w2, h3, w3, choice, rt 
43, 6, bw, practice, NA, 999, 999, 0, 1, 135, 130, 91, 124, 118, 193, 3, 3.31204
43, 6, bw, practice, NA, 999, 999, 0, 1, 135, 130, 91, 124, 118, 193, 2, 1.99244
43, 6, bw, practice, NA, 999, 999, 0, 2, 98, 161, 143, 61, 170, 150, 3, 1.65329
43, 6, bw, practice, NA, 999, 999, 0, 2, 98, 161, 143, 61, 170, 150, 2, 1.30412
43, 6, bw, practice, NA, 999, 999, 0, 3, 167, 188, 161, 114, 89, 81, 1, 3.83866
43, 6, bw, practice, NA, 999, 999, 0, 3, 167, 188, 161, 114, 89, 81, 3, 1.39653
43, 6, bw, filler, NA, 999, 999, 1, 1, 84, 162, 120, 82, 76, 102, 1, 1.84371
43, 6, bw, filler, NA, 999, 999, 1, 1, 84, 162, 120, 82, 76, 102, 3, 0.864485
43, 6, bw, attraction, a-b-da, 2, 3, 1, 2, 195, 120, 120, 195, 193, 119, 2, 3.06751
43, 6, bw, attraction, a-b-da, 2, 3, 1, 2, 195, 120, 120, 195, 193, 119, 1, 1.33515
43, 6, bw, filler, NA, 999, 999, 1, 3, 175, 94, 90, 66, 79, 93, 1, 2.17553
43, 6, bw, filler, NA, 999, 999, 1, 3, 175, 94, 90, 66, 79, 93, 2, 1.11868
43, 6, bw, catch, NA, 999, 999, 1, 4, 94, 161, 88, 107, 151, 164, 3, 0.935512
43, 6, bw, catch, NA, 999, 999, 1, 4, 94, 161, 88, 107, 151, 164, 2, 0.705291
43, 6, bw, attraction, a-b-da, 14, 1, 1, 5, 135, 60, 60, 135, 125, 56, 2, 2.24303
43, 6, bw, attraction, a-b-da, 14, 1, 1, 5, 135, 60, 60, 135, 125, 56, 3, 1.62364
43, 6, bw, attraction, a-b-db, 2, 3, 1, 6, 195, 120, 120, 195, 119, 193, 2, 7.2437
43, 6, bw, attraction, a-b-db, 2, 3, 1, 6, 195, 120, 120, 195, 119, 193, 1, 0.718764
43, 6, bw, attraction, a-b-da, 14, 2, 1, 7, 90, 165, 165, 90, 153, 83, 1, 5.11978
43, 6, bw, attraction, a-b-da, 14, 2, 1, 7, 90, 165, 165, 90, 153, 83, 3, 1.03285
43, 6, bw, attraction, a-b-db, 14, 3, 1, 8, 120, 195, 195, 120, 111, 181, 1, 6.24512
43, 6, bw, attraction, a-b-db, 14, 3, 1, 8, 120, 195, 195, 120, 111, 181, 3, 1.16044
43, 6, bw, filler, NA, 999, 999, 1, 9, 175, 94, 156, 163, 94, 171, 2, 1.32736
43, 6, bw, filler, NA, 999, 999, 1, 9, 175, 94, 156, 163, 94, 171, 1, 3.62489
43, 6, bw, attraction, a-b-da, 5, 1, 1, 10, 132, 58, 135, 60, 60, 135, 3, 2.09232
43, 6, bw, attraction, a-b-da, 5, 1, 1, 10, 132, 58, 135, 60, 60, 135, 1, 0.68702
43, 6, bw, attraction, a-b-db, 14, 1, 1, 11, 60, 135, 56, 125, 135, 60, 3, 6.12143
43, 6, bw, attraction, a-b-db, 14, 1, 1, 11, 60, 135, 56, 125, 135, 60, 2, 0.4743
43, 6, bw, filler, NA, 999, 999, 1, 12, 84, 167, 118, 193, 116, 83, 2, 0.916721
43, 6, bw, filler, NA, 999, 999, 1, 12, 84, 167, 118, 193, 116, 83, 3, 1.07905
43, 6, bw, attraction, a-b-da, 5, 2, 1, 13, 161, 88, 90, 165, 165, 90, 3, 10.8572
43, 6, bw, attraction, a-b-da, 5, 2, 1, 13, 161, 88, 90, 165, 165, 90, 1, 0.474422
43, 6, bw, filler, NA, 999, 999, 1, 14, 109, 129, 56, 152, 195, 131, 3, 0.724948
43, 6, bw, filler, NA, 999, 999, 1, 14, 109, 129, 56, 152, 195, 131, 2, 0.830845
43, 6, bw, filler, NA, 999, 999, 1, 15, 100, 137, 102, 71, 104, 67, 1, 1.0751
43, 6, bw, filler, NA, 999, 999, 1, 15, 100, 137, 102, 71, 104, 67, 2, 2.07066
43, 6, bw, attraction, a-b-da, 14, 3, 1, 16, 195, 120, 120, 195, 181, 111, 2, 0.801256
43, 6, bw, attraction, a-b-da, 14, 3, 1, 16, 195, 120, 120, 195, 181, 111, 3, 0.91244
43, 6, bw, attraction, a-b-db, 5, 1, 1, 17, 60, 135, 135, 60, 58, 132, 2, 4.50528
43, 6, bw, attraction, a-b-db, 5, 1, 1, 17, 60, 135, 135, 60, 58, 132, 3, 0.498598
43, 6, bw, attraction, a-b-da, 9, 2, 1, 18, 157, 86, 165, 90, 90, 165, 3, 1.54045
43, 6, bw, attraction, a-b-da, 9, 2, 1, 18, 157, 86, 165, 90, 90, 165, 1, 0.549226
43, 6, bw, catch, NA, 999, 999, 1, 19, 107, 148, 126, 189, 82, 113, 2, 0.564927
43, 6, bw, catch, NA, 999, 999, 1, 19, 107, 148, 126, 189, 82, 113, 3, 0.421396
43, 6, bw, attraction, a-b-db, 2, 1, 1, 20, 59, 134, 135, 60, 60, 135, 3, 2.94653
43, 6, bw, attraction, a-b-db, 2, 1, 1, 20, 59, 134, 135, 60, 60, 135, 2, 0.466957
43, 6, bw, attraction, a-b-db, 9, 1, 1, 21, 60, 135, 57, 129, 135, 60, 3, 3.29407
43, 6, bw, attraction, a-b-db, 9, 1, 1, 21, 60, 135, 57, 129, 135, 60, 2, 0.992341
43, 6, bw, attraction, a-b-db, 9, 3, 1, 22, 114, 186, 195, 120, 120, 195, 3, 1.5421
43, 6, bw, attraction, a-b-db, 9, 3, 1, 22, 114, 186, 195, 120, 120, 195, 1, 2.82278
43, 6, bw, filler, NA, 999, 999, 1, 23, 62, 182, 110, 111, 56, 66, 2, 6.5633
43, 6, bw, filler, NA, 999, 999, 1, 23, 62, 182, 110, 111, 56, 66, 3, 0.713886
43, 6, bw, attraction, a-b-db, 5, 2, 1, 24, 165, 90, 90, 165, 88, 161, 2, 1.69088
43, 6, bw, attraction, a-b-db, 5, 2, 1, 24, 165, 90, 90, 165, 88, 161, 3, 1.10963
43, 6, bw, attraction, a-b-db, 2, 2, 1, 25, 90, 165, 165, 90, 89, 163, 3, 1.00655
43, 6, bw, attraction, a-b-db, 2, 2, 1, 25, 90, 165, 165, 90, 89, 163, 2, 0.964882
43, 6, bw, attraction, a-b-db, 5, 3, 1, 26, 195, 120, 117, 190, 120, 195, 1, 3.77196
43, 6, bw, attraction, a-b-db, 5, 3, 1, 26, 195, 120, 117, 190, 120, 195, 2, 0.570798
43, 6, bw, attraction, a-b-da, 2, 1, 1, 27, 135, 60, 134, 59, 60, 135, 3, 6.08971
43, 6, bw, attraction, a-b-da, 2, 1, 1, 27, 135, 60, 134, 59, 60, 135, 2, 0.315177
43, 6, bw, attraction, a-b-da, 5, 3, 1, 28, 195, 120, 190, 117, 120, 195, 3, 3.70035
43, 6, bw, attraction, a-b-da, 5, 3, 1, 28, 195, 120, 190, 117, 120, 195, 2, 0.518668
43, 6, bw, attraction, a-b-da, 2, 2, 1, 29, 165, 90, 90, 165, 163, 89, 3, 5.77553
43, 6, bw, attraction, a-b-da, 2, 2, 1, 29, 165, 90, 90, 165, 163, 89, 1, 0.46992
43, 6, bw, attraction, a-b-da, 9, 1, 1, 30, 60, 135, 129, 57, 135, 60, 3, 1.841
43, 6, bw, attraction, a-b-da, 9, 1, 1, 30, 60, 135, 129, 57, 135, 60, 2, 0.485656
43, 6, bw, filler, NA, 999, 999, 1, 31, 76, 70, 180, 66, 85, 120, 2, 1.76812
43, 6, bw, filler, NA, 999, 999, 1, 31, 76, 70, 180, 66, 85, 120, 1, 0.464332
43, 6, bw, filler, NA, 999, 999, 1, 32, 113, 183, 57, 158, 62, 62, 1, 0.923261
43, 6, bw, filler, NA, 999, 999, 1, 32, 113, 183, 57, 158, 62, 62, 3, 0.429094
43, 6, bw, catch, NA, 999, 999, 1, 33, 172, 143, 70, 125, 154, 101, 1, 0.793544
43, 6, bw, catch, NA, 999, 999, 1, 33, 172, 143, 70, 125, 154, 101, 2, 0.392538
43, 6, bw, attraction, a-b-db, 14, 2, 1, 34, 165, 90, 90, 165, 83, 153, 2, 1.87844
43, 6, bw, attraction, a-b-db, 14, 2, 1, 34, 165, 90, 90, 165, 83, 153, 3, 1.0177
43, 6, bw, filler, NA, 999, 999, 1, 35, 97, 88, 87, 150, 70, 83, 2, 0.742673
43, 6, bw, filler, NA, 999, 999, 1, 35, 97, 88, 87, 150, 70, 83, 3, 0.479767
43, 6, bw, attraction, a-b-da, 9, 3, 1, 36, 120, 195, 186, 114, 195, 120, 3, 1.91417
43, 6, bw, attraction, a-b-da, 9, 3, 1, 36, 120, 195, 186, 114, 195, 120, 2, 0.380261
43, 6, bw, attraction, a-b-db, 9, 2, 1, 37, 165, 90, 90, 165, 86, 157, 1, 2.18672
43, 6, bw, attraction, a-b-db, 9, 2, 1, 37, 165, 90, 90, 165, 86, 157, 3, 0.482027
43, 6, bw, attraction, a-b-db, 5, 3, 2, 1, 117, 190, 195, 120, 120, 195, 3, 3.02056
43, 6, bw, attraction, a-b-db, 5, 3, 2, 1, 117, 190, 195, 120, 120, 195, 1, 0.666114
43, 6, bw, filler, NA, 999, 999, 2, 2, 134, 176, 89, 180, 141, 93, 1, 0.621223
43, 6, bw, filler, NA, 999, 999, 2, 2, 134, 176, 89, 180, 141, 93, 3, 0.970998
43, 6, bw, attraction, a-b-da, 9, 3, 2, 3, 186, 114, 195, 120, 120, 195, 2, 1.338
43, 6, bw, attraction, a-b-da, 9, 3, 2, 3, 186, 114, 195, 120, 120, 195, 3, 1.11484
43, 6, bw, attraction, a-b-da, 9, 1, 2, 4, 135, 60, 60, 135, 129, 57, 1, 5.92381
43, 6, bw, attraction, a-b-da, 9, 1, 2, 4, 135, 60, 60, 135, 129, 57, 2, 0.324026
43, 6, bw, catch, NA, 999, 999, 2, 5, 146, 169, 82, 113, 135, 120, 1, 0.900418
43, 6, bw, catch, NA, 999, 999, 2, 5, 146, 169, 82, 113, 135, 120, 2, 0.423605
43, 6, bw, attraction, a-b-da, 9, 2, 2, 6, 165, 90, 157, 86, 90, 165, 3, 1.51594
43, 6, bw, attraction, a-b-da, 9, 2, 2, 6, 165, 90, 157, 86, 90, 165, 2, 0.398075
43, 6, bw, catch, NA, 999, 999, 2, 7, 72, 123, 135, 120, 194, 121, 3, 0.54005
43, 6, bw, catch, NA, 999, 999, 2, 7, 72, 123, 135, 120, 194, 121, 1, 0.717046
43, 6, bw, filler, NA, 999, 999, 2, 8, 136, 138, 164, 73, 107, 107, 1, 2.35822
43, 6, bw, filler, NA, 999, 999, 2, 8, 136, 138, 164, 73, 107, 107, 3, 1.93397
43, 6, bw, catch, NA, 999, 999, 2, 9, 97, 98, 183, 132, 93, 162, 2, 0.741997
43, 6, bw, catch, NA, 999, 999, 2, 9, 97, 98, 183, 132, 93, 162, 1, 0.35107
43, 6, bw, filler, NA, 999, 999, 2, 10, 81, 96, 176, 148, 167, 142, 2, 1.07089
43, 6, bw, filler, NA, 999, 999, 2, 10, 81, 96, 176, 148, 167, 142, 1, 0.314509
43, 6, bw, filler, NA, 999, 999, 2, 11, 127, 79, 100, 111, 90, 150, 3, 0.995747
43, 6, bw, filler, NA, 999, 999, 2, 11, 127, 79, 100, 111, 90, 150, 1, 0.610755
43, 6, bw, attraction, a-b-db, 9, 3, 2, 12, 120, 195, 114, 186, 195, 120, 3, 3.23188
43, 6, bw, attraction, a-b-db, 9, 3, 2, 12, 120, 195, 114, 186, 195, 120, 2, 0.980798
43, 6, bw, attraction, a-b-db, 2, 2, 2, 13, 89, 163, 90, 165, 165, 90, 3, 3.37904
43, 6, bw, attraction, a-b-db, 2, 2, 2, 13, 89, 163, 90, 165, 165, 90, 2, 0.402027
43, 6, bw, filler, NA, 999, 999, 2, 14, 117, 147, 155, 139, 122, 119, 2, 0.92786
43, 6, bw, filler, NA, 999, 999, 2, 14, 117, 147, 155, 139, 122, 119, 3, 0.761504
43, 6, bw, attraction, a-b-db, 14, 1, 2, 15, 135, 60, 60, 135, 56, 125, 2, 2.08854
43, 6, bw, attraction, a-b-db, 14, 1, 2, 15, 135, 60, 60, 135, 56, 125, 3, 0.467247
43, 6, bw, attraction, a-b-da, 5, 2, 2, 16, 165, 90, 90, 165, 161, 88, 2, 2.39034
43, 6, bw, attraction, a-b-da, 5, 2, 2, 16, 165, 90, 90, 165, 161, 88, 3, 0.436966
43, 6, bw, attraction, a-b-db, 9, 2, 2, 17, 165, 90, 86, 157, 90, 165, 3, 3.45747
43, 6, bw, attraction, a-b-db, 9, 2, 2, 17, 165, 90, 86, 157, 90, 165, 1, 0.580894
43, 6, bw, attraction, a-b-da, 2, 3, 2, 18, 120, 195, 193, 119, 195, 120, 1, 1.16346
43, 6, bw, attraction, a-b-da, 2, 3, 2, 18, 120, 195, 193, 119, 195, 120, 2, 0.715565
43, 6, bw, attraction, a-b-da, 2, 2, 2, 19, 90, 165, 163, 89, 165, 90, 3, 2.17274
43, 6, bw, attraction, a-b-da, 2, 2, 2, 19, 90, 165, 163, 89, 165, 90, 2, 1.47595
43, 6, bw, attraction, a-b-da, 2, 1, 2, 20, 60, 135, 134, 59, 135, 60, 3, 2.79013
43, 6, bw, attraction, a-b-da, 2, 1, 2, 20, 60, 135, 134, 59, 135, 60, 1, 0.268604
43, 6, bw, attraction, a-b-db, 14, 3, 2, 21, 120, 195, 111, 181, 195, 120, 1, 2.50372
43, 6, bw, attraction, a-b-db, 14, 3, 2, 21, 120, 195, 111, 181, 195, 120, 2, 0.674306
43, 6, bw, attraction, a-b-da, 14, 3, 2, 22, 195, 120, 120, 195, 181, 111, 2, 2.32461
43, 6, bw, attraction, a-b-da, 14, 3, 2, 22, 195, 120, 120, 195, 181, 111, 3, 0.37387
43, 6, bw, attraction, a-b-db, 9, 1, 2, 23, 135, 60, 57, 129, 60, 135, 3, 3.39652
43, 6, bw, attraction, a-b-db, 9, 1, 2, 23, 135, 60, 57, 129, 60, 135, 2, 0.386731
43, 6, bw, filler, NA, 999, 999, 2, 24, 61, 64, 90, 137, 161, 76, 3, 2.12911
43, 6, bw, filler, NA, 999, 999, 2, 24, 61, 64, 90, 137, 161, 76, 1, 0.602351
43, 6, bw, attraction, a-b-da, 5, 1, 2, 25, 135, 60, 60, 135, 132, 58, 2, 3.92821
43, 6, bw, attraction, a-b-da, 5, 1, 2, 25, 135, 60, 60, 135, 132, 58, 3, 0.376857
43, 6, bw, attraction, a-b-db, 2, 1, 2, 26, 59, 134, 60, 135, 135, 60, 1, 1.05539
43, 6, bw, attraction, a-b-db, 2, 1, 2, 26, 59, 134, 60, 135, 135, 60, 2, 0.563684
43, 6, bw, attraction, a-b-db, 5, 2, 2, 27, 165, 90, 90, 165, 88, 161, 3, 3.5149
43, 6, bw, attraction, a-b-db, 5, 2, 2, 27, 165, 90, 90, 165, 88, 161, 1, 0.324365
43, 6, bw, filler, NA, 999, 999, 2, 28, 149, 89, 176, 152, 178, 102, 2, 0.572849
43, 6, bw, filler, NA, 999, 999, 2, 28, 149, 89, 176, 152, 178, 102, 1, 0.388798
43, 6, bw, attraction, a-b-da, 5, 3, 2, 29, 190, 117, 195, 120, 120, 195, 3, 1.81931
43, 6, bw, attraction, a-b-da, 5, 3, 2, 29, 190, 117, 195, 120, 120, 195, 1, 0.409196
43, 6, bw, filler, NA, 999, 999, 2, 30, 159, 154, 183, 159, 88, 150, 2, 0.566421
43, 6, bw, filler, NA, 999, 999, 2, 30, 159, 154, 183, 159, 88, 150, 3, 0.710824
43, 6, bw, attraction, a-b-db, 5, 1, 2, 31, 135, 60, 58, 132, 60, 135, 2, 1.75989
43, 6, bw, attraction, a-b-db, 5, 1, 2, 31, 135, 60, 58, 132, 60, 135, 1, 0.99999
43, 6, bw, attraction, a-b-da, 14, 2, 2, 32, 153, 83, 165, 90, 90, 165, 3, 1.00567
43, 6, bw, attraction, a-b-da, 14, 2, 2, 32, 153, 83, 165, 90, 90, 165, 1, 0.49192
43, 6, bw, attraction, a-b-da, 14, 1, 2, 33, 135, 60, 125, 56, 60, 135, 1, 6.18169
43, 6, bw, attraction, a-b-da, 14, 1, 2, 33, 135, 60, 125, 56, 60, 135, 2, 0.507741
43, 6, bw, attraction, a-b-db, 2, 3, 2, 34, 120, 195, 195, 120, 119, 193, 3, 3.52486
43, 6, bw, attraction, a-b-db, 2, 3, 2, 34, 120, 195, 195, 120, 119, 193, 2, 0.277764
43, 6, bw, filler, NA, 999, 999, 2, 35, 188, 66, 153, 101, 64, 125, 2, 0.816251
43, 6, bw, filler, NA, 999, 999, 2, 35, 188, 66, 153, 101, 64, 125, 3, 0.406734
43, 6, bw, attraction, a-b-db, 14, 2, 2, 36, 165, 90, 83, 153, 90, 165, 3, 3.0998
43, 6, bw, attraction, a-b-db, 14, 2, 2, 36, 165, 90, 83, 153, 90, 165, 2, 1.08617
43, 6, bw, filler, NA, 999, 999, 2, 37, 73, 165, 118, 64, 169, 58, 1, 1.48039
43, 6, bw, filler, NA, 999, 999, 2, 37, 73, 165, 118, 64, 169, 58, 2, 0.411898
43, 6, bw, filler, NA, 999, 999, 3, 1, 124, 174, 70, 68, 113, 83, 1, 0.537088
43, 6, bw, filler, NA, 999, 999, 3, 1, 124, 174, 70, 68, 113, 83, 2, 0.794813
43, 6, bw, attraction, a-b-da, 9, 1, 3, 2, 129, 57, 135, 60, 60, 135, 3, 0.856608
43, 6, bw, attraction, a-b-da, 9, 1, 3, 2, 129, 57, 135, 60, 60, 135, 1, 1.31691
43, 6, bw, catch, NA, 999, 999, 3, 3, 87, 108, 107, 148, 164, 151, 3, 0.621799
43, 6, bw, catch, NA, 999, 999, 3, 3, 87, 108, 107, 148, 164, 151, 1, 0.315567
43, 6, bw, attraction, a-b-db, 2, 3, 3, 4, 195, 120, 119, 193, 120, 195, 3, 1.93273
43, 6, bw, attraction, a-b-db, 2, 3, 3, 4, 195, 120, 119, 193, 120, 195, 2, 0.462107
43, 6, bw, attraction, a-b-da, 5, 2, 3, 5, 90, 165, 165, 90, 161, 88, 3, 1.82522
43, 6, bw, attraction, a-b-da, 5, 2, 3, 5, 90, 165, 165, 90, 161, 88, 1, 0.518644
43, 6, bw, attraction, a-b-db, 14, 3, 3, 6, 195, 120, 120, 195, 111, 181, 2, 2.20797
43, 6, bw, attraction, a-b-db, 14, 3, 3, 6, 195, 120, 120, 195, 111, 181, 3, 0.973726
43, 6, bw, attraction, a-b-da, 9, 3, 3, 7, 186, 114, 195, 120, 120, 195, 3, 2.00401
43, 6, bw, attraction, a-b-da, 9, 3, 3, 7, 186, 114, 195, 120, 120, 195, 1, 0.386657
43, 6, bw, attraction, a-b-da, 14, 1, 3, 8, 125, 56, 135, 60, 60, 135, 3, 1.1933
43, 6, bw, attraction, a-b-da, 14, 1, 3, 8, 125, 56, 135, 60, 60, 135, 1, 0.328136
43, 6, bw, attraction, a-b-da, 2, 2, 3, 9, 165, 90, 90, 165, 163, 89, 2, 1.69666
43, 6, bw, attraction, a-b-da, 2, 2, 3, 9, 165, 90, 90, 165, 163, 89, 1, 0.382343
43, 6, bw, catch, NA, 999, 999, 3, 10, 158, 157, 121, 134, 66, 129, 1, 0.577806
43, 6, bw, catch, NA, 999, 999, 3, 10, 158, 157, 121, 134, 66, 129, 3, 0.617648
43, 6, bw, filler, NA, 999, 999, 3, 11, 192, 138, 136, 64, 116, 134, 1, 0.774676
43, 6, bw, filler, NA, 999, 999, 3, 11, 192, 138, 136, 64, 116, 134, 2, 0.286456
43, 6, bw, filler, NA, 999, 999, 3, 12, 155, 79, 112, 133, 65, 67, 2, 0.728992
43, 6, bw, filler, NA, 999, 999, 3, 12, 155, 79, 112, 133, 65, 67, 3, 0.322788
43, 6, bw, attraction, a-b-da, 14, 2, 3, 13, 90, 165, 165, 90, 153, 83, 1, 1.9713
43, 6, bw, attraction, a-b-da, 14, 2, 3, 13, 90, 165, 165, 90, 153, 83, 3, 0.618716
43, 6, bw, filler, NA, 999, 999, 3, 14, 134, 116, 86, 139, 56, 145, 1, 0.559837
43, 6, bw, filler, NA, 999, 999, 3, 14, 134, 116, 86, 139, 56, 145, 3, 1.57619
43, 6, bw, attraction, a-b-db, 5, 2, 3, 15, 88, 161, 90, 165, 165, 90, 2, 1.1743
43, 6, bw, attraction, a-b-db, 5, 2, 3, 15, 88, 161, 90, 165, 165, 90, 3, 0.941925
43, 6, bw, filler, NA, 999, 999, 3, 16, 62, 124, 175, 75, 154, 105, 3, 0.845529
43, 6, bw, filler, NA, 999, 999, 3, 16, 62, 124, 175, 75, 154, 105, 1, 0.386527
43, 6, bw, filler, NA, 999, 999, 3, 17, 109, 75, 182, 116, 166, 169, 3, 0.657076
43, 6, bw, filler, NA, 999, 999, 3, 17, 109, 75, 182, 116, 166, 169, 1, 0.357446
43, 6, bw, attraction, a-b-da, 9, 2, 3, 18, 157, 86, 165, 90, 90, 165, 3, 5.20467
43, 6, bw, attraction, a-b-da, 9, 2, 3, 18, 157, 86, 165, 90, 90, 165, 1, 0.634256
43, 6, bw, attraction, a-b-da, 2, 3, 3, 19, 193, 119, 120, 195, 195, 120, 2, 1.01472
43, 6, bw, attraction, a-b-da, 2, 3, 3, 19, 193, 119, 120, 195, 195, 120, 1, 0.533069
43, 6, bw, attraction, a-b-da, 14, 3, 3, 20, 181, 111, 120, 195, 195, 120, 2, 0.941508
43, 6, bw, attraction, a-b-da, 14, 3, 3, 20, 181, 111, 120, 195, 195, 120, 1, 0.302549
43, 6, bw, attraction, a-b-db, 2, 2, 3, 21, 165, 90, 89, 163, 90, 165, 2, 1.20846
43, 6, bw, attraction, a-b-db, 2, 2, 3, 21, 165, 90, 89, 163, 90, 165, 1, 0.982555
43, 6, bw, attraction, a-b-db, 5, 3, 3, 22, 195, 120, 117, 190, 120, 195, 3, 1.53294
43, 6, bw, attraction, a-b-db, 5, 3, 3, 22, 195, 120, 117, 190, 120, 195, 1, 0.454363
43, 6, bw, catch, NA, 999, 999, 3, 23, 109, 146, 188, 127, 121, 74, 2, 0.562221
43, 6, bw, catch, NA, 999, 999, 3, 23, 109, 146, 188, 127, 121, 74, 3, 0.530864
43, 6, bw, attraction, a-b-da, 5, 1, 3, 24, 60, 135, 135, 60, 132, 58, 2, 3.29121
43, 6, bw, attraction, a-b-da, 5, 1, 3, 24, 60, 135, 135, 60, 132, 58, 3, 0.861435
43, 6, bw, attraction, a-b-db, 5, 1, 3, 25, 60, 135, 135, 60, 58, 132, 1, 1.44048
43, 6, bw, attraction, a-b-db, 5, 1, 3, 25, 60, 135, 135, 60, 58, 132, 3, 0.621398
43, 6, bw, attraction, a-b-db, 2, 1, 3, 26, 135, 60, 60, 135, 59, 134, 3, 2.30631
43, 6, bw, attraction, a-b-db, 2, 1, 3, 26, 135, 60, 60, 135, 59, 134, 2, 0.844249
43, 6, bw, attraction, a-b-da, 5, 3, 3, 27, 190, 117, 195, 120, 120, 195, 3, 1.07991
43, 6, bw, attraction, a-b-da, 5, 3, 3, 27, 190, 117, 195, 120, 120, 195, 1, 0.563578
43, 6, bw, filler, NA, 999, 999, 3, 28, 108, 173, 161, 114, 84, 93, 1, 4.00281
43, 6, bw, filler, NA, 999, 999, 3, 28, 108, 173, 161, 114, 84, 93, 3, 0.520719
43, 6, bw, attraction, a-b-db, 9, 2, 3, 29, 90, 165, 165, 90, 86, 157, 3, 1.00187
43, 6, bw, attraction, a-b-db, 9, 2, 3, 29, 90, 165, 165, 90, 86, 157, 1, 0.864866
43, 6, bw, filler, NA, 999, 999, 3, 30, 185, 114, 73, 163, 187, 77, 1, 0.867851
43, 6, bw, filler, NA, 999, 999, 3, 30, 185, 114, 73, 163, 187, 77, 2, 0.904236
43, 6, bw, attraction, a-b-db, 14, 2, 3, 31, 90, 165, 165, 90, 83, 153, 1, 0.945907
43, 6, bw, attraction, a-b-db, 14, 2, 3, 31, 90, 165, 165, 90, 83, 153, 3, 0.834973
43, 6, bw, attraction, a-b-da, 2, 1, 3, 32, 135, 60, 60, 135, 134, 59, 2, 1.23918
43, 6, bw, attraction, a-b-da, 2, 1, 3, 32, 135, 60, 60, 135, 134, 59, 1, 1.01234
43, 6, bw, filler, NA, 999, 999, 3, 33, 161, 179, 73, 96, 112, 195, 1, 0.737133
43, 6, bw, filler, NA, 999, 999, 3, 33, 161, 179, 73, 96, 112, 195, 2, 0.346267
43, 6, bw, attraction, a-b-db, 14, 1, 3, 34, 56, 125, 60, 135, 135, 60, 2, 1.64206
43, 6, bw, attraction, a-b-db, 14, 1, 3, 34, 56, 125, 60, 135, 135, 60, 1, 0.742761
43, 6, bw, filler, NA, 999, 999, 3, 35, 102, 107, 194, 183, 81, 167, 2, 0.446507
43, 6, bw, filler, NA, 999, 999, 3, 35, 102, 107, 194, 183, 81, 167, 1, 0.451639
43, 6, bw, attraction, a-b-db, 9, 1, 3, 36, 135, 60, 57, 129, 60, 135, 1, 2.55153
43, 6, bw, attraction, a-b-db, 9, 1, 3, 36, 135, 60, 57, 129, 60, 135, 2, 0.36001
43, 6, bw, attraction, a-b-db, 9, 3, 3, 37, 114, 186, 195, 120, 120, 195, 3, 1.47919
43, 6, bw, attraction, a-b-db, 9, 3, 3, 37, 114, 186, 195, 120, 120, 195, 1, 0.466683
43, 6, bw, attraction, a-b-da, 9, 3, 4, 1, 120, 195, 186, 114, 195, 120, 1, 1.55779
43, 6, bw, attraction, a-b-da, 9, 3, 4, 1, 120, 195, 186, 114, 195, 120, 2, 0.245966
43, 6, bw, attraction, a-b-db, 14, 3, 4, 2, 111, 181, 195, 120, 120, 195, 3, 0.969841
43, 6, bw, attraction, a-b-db, 14, 3, 4, 2, 111, 181, 195, 120, 120, 195, 1, 0.345525
43, 6, bw, attraction, a-b-db, 14, 2, 4, 3, 90, 165, 165, 90, 83, 153, 1, 1.41738
43, 6, bw, attraction, a-b-db, 14, 2, 4, 3, 90, 165, 165, 90, 83, 153, 3, 0.410149
43, 6, bw, attraction, a-b-da, 9, 1, 4, 4, 135, 60, 129, 57, 60, 135, 3, 1.11682
43, 6, bw, attraction, a-b-da, 9, 1, 4, 4, 135, 60, 129, 57, 60, 135, 2, 0.616569
43, 6, bw, filler, NA, 999, 999, 4, 5, 163, 75, 103, 164, 77, 137, 2, 0.644092
43, 6, bw, filler, NA, 999, 999, 4, 5, 163, 75, 103, 164, 77, 137, 3, 0.96922
43, 6, bw, attraction, a-b-db, 5, 1, 4, 6, 60, 135, 135, 60, 58, 132, 3, 0.944132
43, 6, bw, attraction, a-b-db, 5, 1, 4, 6, 60, 135, 135, 60, 58, 132, 1, 0.473187
43, 6, bw, attraction, a-b-da, 14, 3, 4, 7, 195, 120, 181, 111, 120, 195, 3, 1.7476
43, 6, bw, attraction, a-b-da, 14, 3, 4, 7, 195, 120, 181, 111, 120, 195, 2, 0.364367
43, 6, bw, filler, NA, 999, 999, 4, 8, 143, 150, 91, 106, 176, 183, 3, 0.491614
43, 6, bw, filler, NA, 999, 999, 4, 8, 143, 150, 91, 106, 176, 183, 2, 0.294713
43, 6, bw, attraction, a-b-da, 9, 2, 4, 9, 90, 165, 157, 86, 165, 90, 1, 2.2325
43, 6, bw, attraction, a-b-da, 9, 2, 4, 9, 90, 165, 157, 86, 165, 90, 2, 0.317811
43, 6, bw, catch, NA, 999, 999, 4, 10, 162, 153, 123, 132, 101, 94, 1, 0.598971
43, 6, bw, catch, NA, 999, 999, 4, 10, 162, 153, 123, 132, 101, 94, 3, 0.350095
43, 6, bw, attraction, a-b-da, 5, 1, 4, 11, 60, 135, 132, 58, 135, 60, 1, 1.21394
43, 6, bw, attraction, a-b-da, 5, 1, 4, 11, 60, 135, 132, 58, 135, 60, 2, 0.524237
43, 6, bw, attraction, a-b-da, 2, 2, 4, 12, 90, 165, 163, 89, 165, 90, 1, 1.23666
43, 6, bw, attraction, a-b-da, 2, 2, 4, 12, 90, 165, 163, 89, 165, 90, 3, 0.482246
43, 6, bw, catch, NA, 999, 999, 4, 13, 183, 132, 69, 126, 111, 144, 1, 0.500601
43, 6, bw, catch, NA, 999, 999, 4, 13, 183, 132, 69, 126, 111, 144, 2, 0.52785
43, 6, bw, filler, NA, 999, 999, 4, 14, 168, 69, 193, 178, 70, 84, 2, 0.49626
43, 6, bw, filler, NA, 999, 999, 4, 14, 168, 69, 193, 178, 70, 84, 3, 1.13136
43, 6, bw, attraction, a-b-da, 2, 1, 4, 15, 60, 135, 134, 59, 135, 60, 3, 1.41955
43, 6, bw, attraction, a-b-da, 2, 1, 4, 15, 60, 135, 134, 59, 135, 60, 2, 0.633992
43, 6, bw, filler, NA, 999, 999, 4, 16, 135, 112, 62, 83, 107, 181, 3, 0.470238
43, 6, bw, filler, NA, 999, 999, 4, 16, 135, 112, 62, 83, 107, 181, 2, 0.410073
43, 6, bw, attraction, a-b-db, 14, 1, 4, 17, 60, 135, 135, 60, 56, 125, 1, 0.927197
43, 6, bw, attraction, a-b-db, 14, 1, 4, 17, 60, 135, 135, 60, 56, 125, 3, 1.33693
43, 6, bw, attraction, a-b-db, 2, 2, 4, 18, 89, 163, 165, 90, 90, 165, 3, 1.29714
43, 6, bw, attraction, a-b-db, 2, 2, 4, 18, 89, 163, 165, 90, 90, 165, 2, 0.339943
43, 6, bw, filler, NA, 999, 999, 4, 19, 75, 84, 170, 65, 124, 191, 3, 0.427861
43, 6, bw, filler, NA, 999, 999, 4, 19, 75, 84, 170, 65, 124, 191, 1, 0.745686
43, 6, bw, attraction, a-b-db, 2, 1, 4, 20, 59, 134, 60, 135, 135, 60, 3, 0.801376
43, 6, bw, attraction, a-b-db, 2, 1, 4, 20, 59, 134, 60, 135, 135, 60, 2, 0.360456
43, 6, bw, attraction, a-b-da, 5, 2, 4, 21, 165, 90, 90, 165, 161, 88, 2, 1.20762
43, 6, bw, attraction, a-b-da, 5, 2, 4, 21, 165, 90, 90, 165, 161, 88, 3, 0.598063
43, 6, bw, attraction, a-b-da, 14, 2, 4, 22, 165, 90, 153, 83, 90, 165, 3, 0.803632
43, 6, bw, attraction, a-b-da, 14, 2, 4, 22, 165, 90, 153, 83, 90, 165, 2, 0.594208
43, 6, bw, attraction, a-b-da, 14, 1, 4, 23, 125, 56, 135, 60, 60, 135, 3, 0.855781
43, 6, bw, attraction, a-b-da, 14, 1, 4, 23, 125, 56, 135, 60, 60, 135, 1, 0.524144
43, 6, bw, attraction, a-b-db, 5, 3, 4, 24, 117, 190, 195, 120, 120, 195, 2, 1.29261
43, 6, bw, attraction, a-b-db, 5, 3, 4, 24, 117, 190, 195, 120, 120, 195, 3, 0.887523
43, 6, bw, filler, NA, 999, 999, 4, 25, 155, 121, 89, 186, 134, 150, 3, 1.10595
43, 6, bw, filler, NA, 999, 999, 4, 25, 155, 121, 89, 186, 134, 150, 1, 0.740185
43, 6, bw, attraction, a-b-db, 9, 1, 4, 26, 60, 135, 135, 60, 57, 129, 2, 1.96382
43, 6, bw, attraction, a-b-db, 9, 1, 4, 26, 60, 135, 135, 60, 57, 129, 3, 0.331817
43, 6, bw, filler, NA, 999, 999, 4, 27, 113, 181, 135, 150, 129, 114, 1, 1.77228
43, 6, bw, filler, NA, 999, 999, 4, 27, 113, 181, 135, 150, 129, 114, 3, 0.339944
43, 6, bw, catch, NA, 999, 999, 4, 28, 133, 182, 131, 124, 112, 83, 1, 0.515698
43, 6, bw, catch, NA, 999, 999, 4, 28, 133, 182, 131, 124, 112, 83, 3, 0.38208
43, 6, bw, attraction, a-b-db, 5, 2, 4, 29, 165, 90, 90, 165, 88, 161, 2, 3.82058
43, 6, bw, attraction, a-b-db, 5, 2, 4, 29, 165, 90, 90, 165, 88, 161, 3, 0.49803
43, 6, bw, filler, NA, 999, 999, 4, 30, 138, 158, 121, 142, 110, 59, 1, 0.907772
43, 6, bw, filler, NA, 999, 999, 4, 30, 138, 158, 121, 142, 110, 59, 3, 0.718141
43, 6, bw, filler, NA, 999, 999, 4, 31, 124, 57, 90, 82, 138, 194, 3, 0.551179
43, 6, bw, filler, NA, 999, 999, 4, 31, 124, 57, 90, 82, 138, 194, 1, 0.400307
43, 6, bw, attraction, a-b-da, 2, 3, 4, 32, 120, 195, 193, 119, 195, 120, 2, 2.25415
43, 6, bw, attraction, a-b-da, 2, 3, 4, 32, 120, 195, 193, 119, 195, 120, 3, 1.73808
43, 6, bw, attraction, a-b-db, 9, 2, 4, 33, 90, 165, 165, 90, 86, 157, 3, 1.66612
43, 6, bw, attraction, a-b-db, 9, 2, 4, 33, 90, 165, 165, 90, 86, 157, 2, 0.630257
43, 6, bw, attraction, a-b-db, 9, 3, 4, 34, 120, 195, 114, 186, 195, 120, 3, 3.62669
43, 6, bw, attraction, a-b-db, 9, 3, 4, 34, 120, 195, 114, 186, 195, 120, 2, 0.567647
43, 6, bw, attraction, a-b-db, 2, 3, 4, 35, 119, 193, 120, 195, 195, 120, 2, 1.6146
43, 6, bw, attraction, a-b-db, 2, 3, 4, 35, 119, 193, 120, 195, 195, 120, 3, 0.436922
43, 6, bw, attraction, a-b-da, 5, 3, 4, 36, 190, 117, 195, 120, 120, 195, 3, 1.31325
43, 6, bw, attraction, a-b-da, 5, 3, 4, 36, 190, 117, 195, 120, 120, 195, 1, 0.459478
43, 6, bw, filler, NA, 999, 999, 4, 37, 132, 183, 189, 58, 177, 141, 3, 3.73461
43, 6, bw, filler, NA, 999, 999, 4, 37, 132, 183, 189, 58, 177, 141, 2, 0.3863
43, 6, bw, filler, NA, 999, 999, 5, 1, 178, 72, 167, 163, 87, 84, 2, 1.94787
43, 6, bw, filler, NA, 999, 999, 5, 1, 178, 72, 167, 163, 87, 84, 3, 0.452582
43, 6, bw, filler, NA, 999, 999, 5, 2, 81, 128, 99, 71, 86, 59, 1, 0.792348
43, 6, bw, filler, NA, 999, 999, 5, 2, 81, 128, 99, 71, 86, 59, 3, 0.375444
43, 6, bw, filler, NA, 999, 999, 5, 3, 172, 144, 118, 132, 155, 63, 1, 0.597879
43, 6, bw, filler, NA, 999, 999, 5, 3, 172, 144, 118, 132, 155, 63, 3, 0.349086
43, 6, bw, attraction, a-b-db, 5, 3, 5, 4, 195, 120, 117, 190, 120, 195, 2, 1.13277
43, 6, bw, attraction, a-b-db, 5, 3, 5, 4, 195, 120, 117, 190, 120, 195, 1, 0.550467
43, 6, bw, catch, NA, 999, 999, 5, 5, 131, 184, 129, 66, 131, 124, 1, 0.894249
43, 6, bw, catch, NA, 999, 999, 5, 5, 131, 184, 129, 66, 131, 124, 2, 0.497299
43, 6, bw, attraction, a-b-da, 9, 3, 5, 6, 186, 114, 195, 120, 120, 195, 3, 2.64306
43, 6, bw, attraction, a-b-da, 9, 3, 5, 6, 186, 114, 195, 120, 120, 195, 1, 0.543474
43, 6, bw, attraction, a-b-db, 5, 2, 5, 7, 90, 165, 165, 90, 88, 161, 3, 1.68731
43, 6, bw, attraction, a-b-db, 5, 2, 5, 7, 90, 165, 165, 90, 88, 161, 1, 0.250852
43, 6, bw, catch, NA, 999, 999, 5, 8, 150, 165, 70, 125, 165, 90, 1, 0.646595
43, 6, bw, catch, NA, 999, 999, 5, 8, 150, 165, 70, 125, 165, 90, 2, 0.531741
43, 6, bw, attraction, a-b-da, 2, 2, 5, 9, 163, 89, 90, 165, 165, 90, 2, 0.924108
43, 6, bw, attraction, a-b-da, 2, 2, 5, 9, 163, 89, 90, 165, 165, 90, 1, 0.373987
43, 6, bw, attraction, a-b-da, 9, 2, 5, 10, 157, 86, 165, 90, 90, 165, 3, 0.668285
43, 6, bw, attraction, a-b-da, 9, 2, 5, 10, 157, 86, 165, 90, 90, 165, 1, 0.384923
43, 6, bw, filler, NA, 999, 999, 5, 11, 156, 73, 83, 194, 64, 94, 2, 0.59928
43, 6, bw, filler, NA, 999, 999, 5, 11, 156, 73, 83, 194, 64, 94, 3, 0.35836
43, 6, bw, attraction, a-b-da, 9, 1, 5, 12, 135, 60, 129, 57, 60, 135, 1, 1.6456
43, 6, bw, attraction, a-b-da, 9, 1, 5, 12, 135, 60, 129, 57, 60, 135, 2, 0.490298
43, 6, bw, filler, NA, 999, 999, 5, 13, 163, 122, 170, 162, 108, 115, 2, 0.468131
43, 6, bw, filler, NA, 999, 999, 5, 13, 163, 122, 170, 162, 108, 115, 3, 0.376642
43, 6, bw, attraction, a-b-db, 2, 1, 5, 14, 59, 134, 60, 135, 135, 60, 3, 1.61511
43, 6, bw, attraction, a-b-db, 2, 1, 5, 14, 59, 134, 60, 135, 135, 60, 2, 0.381271
43, 6, bw, attraction, a-b-db, 5, 1, 5, 15, 135, 60, 60, 135, 58, 132, 2, 2.49174
43, 6, bw, attraction, a-b-db, 5, 1, 5, 15, 135, 60, 60, 135, 58, 132, 1, 0.310276
43, 6, bw, attraction, a-b-da, 5, 1, 5, 16, 135, 60, 132, 58, 60, 135, 3, 2.26348
43, 6, bw, attraction, a-b-da, 5, 1, 5, 16, 135, 60, 132, 58, 60, 135, 2, 0.483413
43, 6, bw, attraction, a-b-db, 2, 3, 5, 17, 119, 193, 195, 120, 120, 195, 3, 0.797829
43, 6, bw, attraction, a-b-db, 2, 3, 5, 17, 119, 193, 195, 120, 120, 195, 1, 0.316839
43, 6, bw, attraction, a-b-db, 14, 1, 5, 18, 56, 125, 60, 135, 135, 60, 2, 1.1101
43, 6, bw, attraction, a-b-db, 14, 1, 5, 18, 56, 125, 60, 135, 135, 60, 3, 0.352434
43, 6, bw, attraction, a-b-db, 9, 2, 5, 19, 90, 165, 165, 90, 86, 157, 2, 0.688148
43, 6, bw, attraction, a-b-db, 9, 2, 5, 19, 90, 165, 165, 90, 86, 157, 1, 0.259228
43, 6, bw, filler, NA, 999, 999, 5, 20, 80, 190, 167, 109, 70, 89, 2, 1.01447
43, 6, bw, filler, NA, 999, 999, 5, 20, 80, 190, 167, 109, 70, 89, 3, 0.228831
43, 6, bw, attraction, a-b-db, 14, 2, 5, 21, 83, 153, 165, 90, 90, 165, 3, 0.489323
43, 6, bw, attraction, a-b-db, 14, 2, 5, 21, 83, 153, 165, 90, 90, 165, 1, 0.700491
43, 6, bw, attraction, a-b-da, 14, 2, 5, 22, 165, 90, 153, 83, 90, 165, 3, 1.23825
43, 6, bw, attraction, a-b-da, 14, 2, 5, 22, 165, 90, 153, 83, 90, 165, 2, 0.643058
43, 6, bw, attraction, a-b-da, 5, 3, 5, 23, 190, 117, 195, 120, 120, 195, 2, 3.4388
43, 6, bw, attraction, a-b-da, 5, 3, 5, 23, 190, 117, 195, 120, 120, 195, 3, 0.875061
43, 6, bw, filler, NA, 999, 999, 5, 24, 182, 191, 92, 135, 172, 76, 1, 0.509372
43, 6, bw, filler, NA, 999, 999, 5, 24, 182, 191, 92, 135, 172, 76, 2, 4.89595
43, 6, bw, filler, NA, 999, 999, 5, 25, 56, 139, 126, 102, 194, 81, 3, 1.91231
43, 6, bw, filler, NA, 999, 999, 5, 25, 56, 139, 126, 102, 194, 81, 1, 1.8663
43, 6, bw, catch, NA, 999, 999, 5, 26, 102, 93, 169, 146, 139, 116, 2, 0.685002
43, 6, bw, catch, NA, 999, 999, 5, 26, 102, 93, 169, 146, 139, 116, 1, 0.360744
43, 6, bw, filler, NA, 999, 999, 5, 27, 142, 116, 65, 183, 73, 126, 1, 1.56014
43, 6, bw, filler, NA, 999, 999, 5, 27, 142, 116, 65, 183, 73, 126, 3, 1.23218
43, 6, bw, attraction, a-b-da, 5, 2, 5, 28, 161, 88, 165, 90, 90, 165, 3, 0.66026
43, 6, bw, attraction, a-b-da, 5, 2, 5, 28, 161, 88, 165, 90, 90, 165, 1, 0.816843
43, 6, bw, attraction, a-b-db, 9, 1, 5, 29, 135, 60, 57, 129, 60, 135, 3, 2.82192
43, 6, bw, attraction, a-b-db, 9, 1, 5, 29, 135, 60, 57, 129, 60, 135, 2, 0.354847
43, 6, bw, attraction, a-b-db, 2, 2, 5, 30, 165, 90, 89, 163, 90, 165, 3, 2.17879
43, 6, bw, attraction, a-b-db, 2, 2, 5, 30, 165, 90, 89, 163, 90, 165, 2, 0.290059
43, 6, bw, attraction, a-b-db, 9, 3, 5, 31, 114, 186, 120, 195, 195, 120, 2, 2.80386
43, 6, bw, attraction, a-b-db, 9, 3, 5, 31, 114, 186, 120, 195, 195, 120, 3, 0.354248
43, 6, bw, attraction, a-b-da, 14, 1, 5, 32, 135, 60, 60, 135, 125, 56, 2, 1.01003
43, 6, bw, attraction, a-b-da, 14, 1, 5, 32, 135, 60, 60, 135, 125, 56, 3, 0.512444
43, 6, bw, attraction, a-b-db, 14, 3, 5, 33, 120, 195, 195, 120, 111, 181, 1, 2.74555
43, 6, bw, attraction, a-b-db, 14, 3, 5, 33, 120, 195, 195, 120, 111, 181, 3, 0.442016
43, 6, bw, filler, NA, 999, 999, 5, 34, 195, 64, 126, 144, 58, 63, 2, 0.629898
43, 6, bw, filler, NA, 999, 999, 5, 34, 195, 64, 126, 144, 58, 63, 3, 0.475628
43, 6, bw, attraction, a-b-da, 2, 1, 5, 35, 135, 60, 60, 135, 134, 59, 1, 2.02204
43, 6, bw, attraction, a-b-da, 2, 1, 5, 35, 135, 60, 60, 135, 134, 59, 2, 0.347357
43, 6, bw, attraction, a-b-da, 14, 3, 5, 36, 181, 111, 195, 120, 120, 195, 3, 1.60319
43, 6, bw, attraction, a-b-da, 14, 3, 5, 36, 181, 111, 195, 120, 120, 195, 2, 0.362038
43, 6, bw, attraction, a-b-da, 2, 3, 5, 37, 193, 119, 195, 120, 120, 195, 3, 0.697197
43, 6, bw, attraction, a-b-da, 2, 3, 5, 37, 193, 119, 195, 120, 120, 195, 2, 0.340314
43, 6, bw, catch, NA, 999, 999, 6, 1, 129, 66, 97, 158, 143, 172, 3, 0.62012
43, 6, bw, catch, NA, 999, 999, 6, 1, 129, 66, 97, 158, 143, 172, 1, 0.530609
43, 6, bw, filler, NA, 999, 999, 6, 2, 122, 132, 107, 123, 179, 182, 3, 0.539011
43, 6, bw, filler, NA, 999, 999, 6, 2, 122, 132, 107, 123, 179, 182, 2, 0.596268
43, 6, bw, filler, NA, 999, 999, 6, 3, 75, 92, 95, 92, 117, 101, 3, 0.641931
43, 6, bw, filler, NA, 999, 999, 6, 3, 75, 92, 95, 92, 117, 101, 1, 0.455056
43, 6, bw, attraction, a-b-da, 2, 3, 6, 4, 193, 119, 120, 195, 195, 120, 1, 2.38677
43, 6, bw, attraction, a-b-da, 2, 3, 6, 4, 193, 119, 120, 195, 195, 120, 3, 0.274034
43, 6, bw, filler, NA, 999, 999, 6, 5, 158, 143, 106, 146, 121, 74, 1, 0.564536
43, 6, bw, filler, NA, 999, 999, 6, 5, 158, 143, 106, 146, 121, 74, 3, 0.50108
43, 6, bw, attraction, a-b-da, 5, 2, 6, 6, 165, 90, 90, 165, 161, 88, 2, 1.11079
43, 6, bw, attraction, a-b-da, 5, 2, 6, 6, 165, 90, 90, 165, 161, 88, 1, 0.329136
43, 6, bw, attraction, a-b-da, 14, 2, 6, 7, 90, 165, 165, 90, 153, 83, 2, 2.48156
43, 6, bw, attraction, a-b-da, 14, 2, 6, 7, 90, 165, 165, 90, 153, 83, 3, 0.616144
43, 6, bw, filler, NA, 999, 999, 6, 8, 130, 68, 132, 71, 77, 132, 3, 0.825887
43, 6, bw, filler, NA, 999, 999, 6, 8, 130, 68, 132, 71, 77, 132, 2, 0.335562
43, 6, bw, catch, NA, 999, 999, 6, 9, 105, 90, 167, 148, 131, 124, 2, 0.528031
43, 6, bw, catch, NA, 999, 999, 6, 9, 105, 90, 167, 148, 131, 124, 1, 0.313831
43, 6, bw, filler, NA, 999, 999, 6, 10, 116, 157, 98, 118, 114, 132, 1, 0.602994
43, 6, bw, filler, NA, 999, 999, 6, 10, 116, 157, 98, 118, 114, 132, 2, 0.306183
43, 6, bw, attraction, a-b-db, 2, 2, 6, 11, 90, 165, 165, 90, 89, 163, 3, 1.26734
43, 6, bw, attraction, a-b-db, 2, 2, 6, 11, 90, 165, 165, 90, 89, 163, 2, 0.351534
43, 6, bw, attraction, a-b-db, 9, 2, 6, 12, 86, 157, 165, 90, 90, 165, 3, 0.81541
43, 6, bw, attraction, a-b-db, 9, 2, 6, 12, 86, 157, 165, 90, 90, 165, 2, 0.261944
43, 6, bw, attraction, a-b-da, 5, 1, 6, 13, 135, 60, 132, 58, 60, 135, 3, 0.760953
43, 6, bw, attraction, a-b-da, 5, 1, 6, 13, 135, 60, 132, 58, 60, 135, 2, 0.625636
43, 6, bw, attraction, a-b-db, 2, 3, 6, 14, 120, 195, 119, 193, 195, 120, 2, 0.709885
43, 6, bw, attraction, a-b-db, 2, 3, 6, 14, 120, 195, 119, 193, 195, 120, 3, 0.600268
43, 6, bw, attraction, a-b-da, 14, 1, 6, 15, 60, 135, 125, 56, 135, 60, 1, 1.74197
43, 6, bw, attraction, a-b-da, 14, 1, 6, 15, 60, 135, 125, 56, 135, 60, 2, 0.374789
43, 6, bw, attraction, a-b-db, 9, 3, 6, 16, 195, 120, 114, 186, 120, 195, 3, 2.12529
43, 6, bw, attraction, a-b-db, 9, 3, 6, 16, 195, 120, 114, 186, 120, 195, 2, 0.934582
43, 6, bw, attraction, a-b-db, 5, 1, 6, 17, 60, 135, 58, 132, 135, 60, 3, 2.08681
43, 6, bw, attraction, a-b-db, 5, 1, 6, 17, 60, 135, 58, 132, 135, 60, 2, 0.274156
43, 6, bw, attraction, a-b-db, 14, 2, 6, 18, 83, 153, 90, 165, 165, 90, 3, 2.06877
43, 6, bw, attraction, a-b-db, 14, 2, 6, 18, 83, 153, 90, 165, 165, 90, 2, 0.256699
43, 6, bw, filler, NA, 999, 999, 6, 19, 109, 159, 69, 179, 75, 83, 1, 0.611844
43, 6, bw, filler, NA, 999, 999, 6, 19, 109, 159, 69, 179, 75, 83, 3, 0.274382
43, 6, bw, attraction, a-b-db, 5, 3, 6, 20, 117, 190, 120, 195, 195, 120, 2, 2.49282
43, 6, bw, attraction, a-b-db, 5, 3, 6, 20, 117, 190, 120, 195, 195, 120, 3, 0.54349
43, 6, bw, catch, NA, 999, 999, 6, 21, 128, 187, 104, 91, 108, 147, 1, 0.519124
43, 6, bw, catch, NA, 999, 999, 6, 21, 128, 187, 104, 91, 108, 147, 2, 0.369781
43, 6, bw, filler, NA, 999, 999, 6, 22, 173, 162, 116, 168, 192, 64, 1, 0.672715
43, 6, bw, filler, NA, 999, 999, 6, 22, 173, 162, 116, 168, 192, 64, 3, 1.26065
43, 6, bw, attraction, a-b-db, 5, 2, 6, 23, 90, 165, 165, 90, 88, 161, 3, 0.623479
43, 6, bw, attraction, a-b-db, 5, 2, 6, 23, 90, 165, 165, 90, 88, 161, 1, 0.373239
43, 6, bw, filler, NA, 999, 999, 6, 24, 118, 94, 67, 59, 98, 70, 1, 0.515712
43, 6, bw, filler, NA, 999, 999, 6, 24, 118, 94, 67, 59, 98, 70, 2, 0.502201
43, 6, bw, attraction, a-b-db, 9, 1, 6, 25, 57, 129, 60, 135, 135, 60, 2, 2.39201
43, 6, bw, attraction, a-b-db, 9, 1, 6, 25, 57, 129, 60, 135, 135, 60, 1, 0.406545
43, 6, bw, attraction, a-b-da, 9, 1, 6, 26, 129, 57, 60, 135, 135, 60, 3, 2.56366
43, 6, bw, attraction, a-b-da, 9, 1, 6, 26, 129, 57, 60, 135, 135, 60, 1, 0.643676
43, 6, bw, filler, NA, 999, 999, 6, 27, 185, 191, 73, 124, 60, 182, 1, 0.399245
43, 6, bw, filler, NA, 999, 999, 6, 27, 185, 191, 73, 124, 60, 182, 2, 0.710475
43, 6, bw, attraction, a-b-db, 2, 1, 6, 28, 60, 135, 135, 60, 59, 134, 3, 0.743552
43, 6, bw, attraction, a-b-db, 2, 1, 6, 28, 60, 135, 135, 60, 59, 134, 1, 0.44853
43, 6, bw, attraction, a-b-da, 14, 3, 6, 29, 120, 195, 195, 120, 181, 111, 2, 1.26036
43, 6, bw, attraction, a-b-da, 14, 3, 6, 29, 120, 195, 195, 120, 181, 111, 3, 0.352634
43, 6, bw, attraction, a-b-da, 5, 3, 6, 30, 195, 120, 120, 195, 190, 117, 2, 1.80861
43, 6, bw, attraction, a-b-da, 5, 3, 6, 30, 195, 120, 120, 195, 190, 117, 1, 0.286561
43, 6, bw, attraction, a-b-da, 2, 2, 6, 31, 163, 89, 165, 90, 90, 165, 2, 0.713085
43, 6, bw, attraction, a-b-da, 2, 2, 6, 31, 163, 89, 165, 90, 90, 165, 3, 0.323581
43, 6, bw, attraction, a-b-db, 14, 1, 6, 32, 56, 125, 60, 135, 135, 60, 3, 0.972051
43, 6, bw, attraction, a-b-db, 14, 1, 6, 32, 56, 125, 60, 135, 135, 60, 1, 0.595592
43, 6, bw, attraction, a-b-da, 9, 3, 6, 33, 186, 114, 120, 195, 195, 120, 2, 0.665358
43, 6, bw, attraction, a-b-da, 9, 3, 6, 33, 186, 114, 120, 195, 195, 120, 1, 0.653813
43, 6, bw, attraction, a-b-da, 2, 1, 6, 34, 60, 135, 135, 60, 134, 59, 2, 1.60967
43, 6, bw, attraction, a-b-da, 2, 1, 6, 34, 60, 135, 135, 60, 134, 59, 1, 0.279794
43, 6, bw, attraction, a-b-da, 9, 2, 6, 35, 157, 86, 90, 165, 165, 90, 3, 0.722252
43, 6, bw, attraction, a-b-da, 9, 2, 6, 35, 157, 86, 90, 165, 165, 90, 1, 0.499946
43, 6, bw, attraction, a-b-db, 14, 3, 6, 36, 111, 181, 120, 195, 195, 120, 2, 1.03772
43, 6, bw, attraction, a-b-db, 14, 3, 6, 36, 111, 181, 120, 195, 195, 120, 1, 0.242743
43, 6, bw, filler, NA, 999, 999, 6, 37, 106, 89, 140, 133, 80, 159, 2, 0.614664
43, 6, bw, filler, NA, 999, 999, 6, 37, 106, 89, 140, 133, 80, 159, 1, 0.301115
43, 6, bw, attraction, a-b-db, 9, 3, 7, 1, 195, 120, 120, 195, 114, 186, 2, 0.774853
43, 6, bw, attraction, a-b-db, 9, 3, 7, 1, 195, 120, 120, 195, 114, 186, 1, 0.670587
43, 6, bw, filler, NA, 999, 999, 7, 2, 73, 175, 174, 77, 115, 71, 2, 2.28966
43, 6, bw, filler, NA, 999, 999, 7, 2, 73, 175, 174, 77, 115, 71, 3, 0.220212
43, 6, bw, attraction, a-b-db, 2, 1, 7, 3, 60, 135, 135, 60, 59, 134, 3, 1.39355
43, 6, bw, attraction, a-b-db, 2, 1, 7, 3, 60, 135, 135, 60, 59, 134, 2, 0.304337
43, 6, bw, attraction, a-b-da, 2, 1, 7, 4, 60, 135, 134, 59, 135, 60, 3, 0.714301
43, 6, bw, attraction, a-b-da, 2, 1, 7, 4, 60, 135, 134, 59, 135, 60, 2, 0.316615
43, 6, bw, attraction, a-b-da, 14, 2, 7, 5, 90, 165, 153, 83, 165, 90, 3, 0.637758
43, 6, bw, attraction, a-b-da, 14, 2, 7, 5, 90, 165, 153, 83, 165, 90, 1, 0.290895
43, 6, bw, attraction, a-b-da, 2, 2, 7, 6, 90, 165, 165, 90, 163, 89, 2, 0.508781
43, 6, bw, attraction, a-b-da, 2, 2, 7, 6, 90, 165, 165, 90, 163, 89, 1, 0.255327
43, 6, bw, attraction, a-b-db, 2, 3, 7, 7, 195, 120, 120, 195, 119, 193, 2, 2.56312
43, 6, bw, attraction, a-b-db, 2, 3, 7, 7, 195, 120, 120, 195, 119, 193, 1, 0.39498
43, 6, bw, filler, NA, 999, 999, 7, 8, 113, 128, 79, 134, 185, 164, 3, 0.784752
43, 6, bw, filler, NA, 999, 999, 7, 8, 113, 128, 79, 134, 185, 164, 2, 1.73654
43, 6, bw, attraction, a-b-db, 14, 2, 7, 9, 83, 153, 165, 90, 90, 165, 3, 1.28066
43, 6, bw, attraction, a-b-db, 14, 2, 7, 9, 83, 153, 165, 90, 90, 165, 1, 0.596236
43, 6, bw, attraction, a-b-db, 5, 3, 7, 10, 117, 190, 120, 195, 195, 120, 2, 1.00991
43, 6, bw, attraction, a-b-db, 5, 3, 7, 10, 117, 190, 120, 195, 195, 120, 1, 0.384282
43, 6, bw, attraction, a-b-da, 9, 3, 7, 11, 120, 195, 195, 120, 186, 114, 1, 0.966646
43, 6, bw, attraction, a-b-da, 9, 3, 7, 11, 120, 195, 195, 120, 186, 114, 2, 0.335112
43, 6, bw, attraction, a-b-db, 9, 2, 7, 12, 165, 90, 86, 157, 90, 165, 1, 2.35953
43, 6, bw, attraction, a-b-db, 9, 2, 7, 12, 165, 90, 86, 157, 90, 165, 2, 0.343598
43, 6, bw, attraction, a-b-da, 14, 1, 7, 13, 60, 135, 125, 56, 135, 60, 3, 0.967313
43, 6, bw, attraction, a-b-da, 14, 1, 7, 13, 60, 135, 125, 56, 135, 60, 1, 0.543585
43, 6, bw, filler, NA, 999, 999, 7, 14, 89, 66, 85, 131, 72, 185, 3, 1.37536
43, 6, bw, filler, NA, 999, 999, 7, 14, 89, 66, 85, 131, 72, 185, 1, 0.374979
43, 6, bw, filler, NA, 999, 999, 7, 15, 86, 56, 100, 68, 141, 137, 3, 0.421448
43, 6, bw, filler, NA, 999, 999, 7, 15, 86, 56, 100, 68, 141, 137, 1, 0.923403
43, 6, bw, catch, NA, 999, 999, 7, 16, 111, 84, 160, 95, 176, 139, 3, 0.843503
43, 6, bw, catch, NA, 999, 999, 7, 16, 111, 84, 160, 95, 176, 139, 1, 0.448678
43, 6, bw, attraction, a-b-da, 5, 2, 7, 17, 90, 165, 161, 88, 165, 90, 2, 0.932463
43, 6, bw, attraction, a-b-da, 5, 2, 7, 17, 90, 165, 161, 88, 165, 90, 1, 0.318141
43, 6, bw, attraction, a-b-da, 5, 3, 7, 18, 195, 120, 120, 195, 190, 117, 2, 1.07925
43, 6, bw, attraction, a-b-da, 5, 3, 7, 18, 195, 120, 120, 195, 190, 117, 3, 0.290897
43, 6, bw, filler, NA, 999, 999, 7, 19, 98, 158, 188, 178, 96, 177, 2, 0.564734
43, 6, bw, filler, NA, 999, 999, 7, 19, 98, 158, 188, 178, 96, 177, 1, 0.949312
43, 6, bw, attraction, a-b-db, 2, 2, 7, 20, 90, 165, 165, 90, 89, 163, 1, 1.76494
43, 6, bw, attraction, a-b-db, 2, 2, 7, 20, 90, 165, 165, 90, 89, 163, 2, 0.276966
43, 6, bw, attraction, a-b-da, 9, 2, 7, 21, 157, 86, 165, 90, 90, 165, 3, 0.839463
43, 6, bw, attraction, a-b-da, 9, 2, 7, 21, 157, 86, 165, 90, 90, 165, 2, 0.572477
43, 6, bw, attraction, a-b-db, 9, 1, 7, 22, 57, 129, 60, 135, 135, 60, 2, 1.66757
43, 6, bw, attraction, a-b-db, 9, 1, 7, 22, 57, 129, 60, 135, 135, 60, 1, 0.487711
43, 6, bw, filler, NA, 999, 999, 7, 23, 195, 67, 112, 175, 148, 173, 3, 0.47418
43, 6, bw, filler, NA, 999, 999, 7, 23, 195, 67, 112, 175, 148, 173, 1, 0.34195
43, 6, bw, attraction, a-b-db, 5, 1, 7, 24, 60, 135, 58, 132, 135, 60, 1, 0.749863
43, 6, bw, attraction, a-b-db, 5, 1, 7, 24, 60, 135, 58, 132, 135, 60, 2, 0.454914
43, 6, bw, attraction, a-b-db, 14, 3, 7, 25, 111, 181, 195, 120, 120, 195, 2, 0.682749
43, 6, bw, attraction, a-b-db, 14, 3, 7, 25, 111, 181, 195, 120, 120, 195, 1, 0.374448
43, 6, bw, filler, NA, 999, 999, 7, 26, 181, 108, 112, 151, 125, 56, 2, 1.07697
43, 6, bw, filler, NA, 999, 999, 7, 26, 181, 108, 112, 151, 125, 56, 3, 0.792619
43, 6, bw, filler, NA, 999, 999, 7, 27, 154, 185, 164, 110, 119, 114, 1, 0.43035
43, 6, bw, filler, NA, 999, 999, 7, 27, 154, 185, 164, 110, 119, 114, 3, 0.604171
43, 6, bw, attraction, a-b-da, 2, 3, 7, 28, 193, 119, 195, 120, 120, 195, 3, 0.513924
43, 6, bw, attraction, a-b-da, 2, 3, 7, 28, 193, 119, 195, 120, 120, 195, 1, 0.41233
43, 6, bw, catch, NA, 999, 999, 7, 29, 152, 163, 63, 132, 144, 111, 1, 0.449909
43, 6, bw, catch, NA, 999, 999, 7, 29, 152, 163, 63, 132, 144, 111, 2, 0.518788
43, 6, bw, filler, NA, 999, 999, 7, 30, 63, 92, 172, 92, 105, 147, 3, 0.631945
43, 6, bw, filler, NA, 999, 999, 7, 30, 63, 92, 172, 92, 105, 147, 1, 0.245608
43, 6, bw, attraction, a-b-da, 9, 1, 7, 31, 135, 60, 129, 57, 60, 135, 3, 0.785458
43, 6, bw, attraction, a-b-da, 9, 1, 7, 31, 135, 60, 129, 57, 60, 135, 2, 0.585156
43, 6, bw, filler, NA, 999, 999, 7, 32, 97, 133, 132, 85, 115, 85, 1, 0.543675
43, 6, bw, filler, NA, 999, 999, 7, 32, 97, 133, 132, 85, 115, 85, 2, 0.40067
43, 6, bw, catch, NA, 999, 999, 7, 33, 130, 125, 70, 125, 136, 179, 3, 0.454498
43, 6, bw, catch, NA, 999, 999, 7, 33, 130, 125, 70, 125, 136, 179, 2, 0.339053
43, 6, bw, attraction, a-b-da, 5, 1, 7, 34, 60, 135, 132, 58, 135, 60, 1, 0.931559
43, 6, bw, attraction, a-b-da, 5, 1, 7, 34, 60, 135, 132, 58, 135, 60, 2, 0.445263
43, 6, bw, attraction, a-b-da, 14, 3, 7, 35, 120, 195, 195, 120, 181, 111, 2, 0.729044
43, 6, bw, attraction, a-b-da, 14, 3, 7, 35, 120, 195, 195, 120, 181, 111, 3, 0.866762
43, 6, bw, attraction, a-b-db, 5, 2, 7, 36, 165, 90, 88, 161, 90, 165, 1, 1.69375
43, 6, bw, attraction, a-b-db, 5, 2, 7, 36, 165, 90, 88, 161, 90, 165, 2, 0.264636
43, 6, bw, attraction, a-b-db, 14, 1, 7, 37, 135, 60, 60, 135, 56, 125, 2, 1.77977
43, 6, bw, attraction, a-b-db, 14, 1, 7, 37, 135, 60, 60, 135, 56, 125, 3, 0.715132
43, 6, bw, attraction, a-b-db, 14, 3, 8, 1, 195, 120, 120, 195, 111, 181, 2, 1.38018
43, 6, bw, attraction, a-b-db, 14, 3, 8, 1, 195, 120, 120, 195, 111, 181, 1, 0.339766
43, 6, bw, catch, NA, 999, 999, 8, 2, 141, 174, 132, 123, 101, 94, 1, 0.49959
43, 6, bw, catch, NA, 999, 999, 8, 2, 141, 174, 132, 123, 101, 94, 3, 0.366763
43, 6, bw, filler, NA, 999, 999, 8, 3, 99, 137, 184, 105, 98, 127, 2, 0.485856
43, 6, bw, filler, NA, 999, 999, 8, 3, 99, 137, 184, 105, 98, 127, 1, 0.689728
43, 6, bw, attraction, a-b-da, 9, 1, 8, 4, 129, 57, 60, 135, 135, 60, 3, 1.29146
43, 6, bw, attraction, a-b-da, 9, 1, 8, 4, 129, 57, 60, 135, 135, 60, 1, 0.430324
43, 6, bw, attraction, a-b-da, 5, 1, 8, 5, 60, 135, 132, 58, 135, 60, 3, 1.05886
43, 6, bw, attraction, a-b-da, 5, 1, 8, 5, 60, 135, 132, 58, 135, 60, 2, 0.399107
43, 6, bw, attraction, a-b-db, 5, 3, 8, 6, 117, 190, 120, 195, 195, 120, 2, 1.08491
43, 6, bw, attraction, a-b-db, 5, 3, 8, 6, 117, 190, 120, 195, 195, 120, 3, 0.224536
43, 6, bw, attraction, a-b-db, 14, 2, 8, 7, 165, 90, 90, 165, 83, 153, 2, 1.91704
43, 6, bw, attraction, a-b-db, 14, 2, 8, 7, 165, 90, 90, 165, 83, 153, 3, 0.823153
43, 6, bw, filler, NA, 999, 999, 8, 8, 151, 93, 163, 99, 176, 72, 2, 1.81161
43, 6, bw, filler, NA, 999, 999, 8, 8, 151, 93, 163, 99, 176, 72, 3, 0.481791
43, 6, bw, attraction, a-b-da, 14, 1, 8, 9, 125, 56, 60, 135, 135, 60, 2, 1.00409
43, 6, bw, attraction, a-b-da, 14, 1, 8, 9, 125, 56, 60, 135, 135, 60, 1, 0.658423
43, 6, bw, attraction, a-b-db, 5, 2, 8, 10, 90, 165, 88, 161, 165, 90, 3, 1.78133
43, 6, bw, attraction, a-b-db, 5, 2, 8, 10, 90, 165, 88, 161, 165, 90, 2, 0.284863
43, 6, bw, attraction, a-b-db, 14, 1, 8, 11, 135, 60, 56, 125, 60, 135, 3, 0.799453
43, 6, bw, attraction, a-b-db, 14, 1, 8, 11, 135, 60, 56, 125, 60, 135, 2, 0.782401
43, 6, bw, filler, NA, 999, 999, 8, 12, 166, 177, 165, 135, 79, 139, 1, 0.572804
43, 6, bw, filler, NA, 999, 999, 8, 12, 166, 177, 165, 135, 79, 139, 3, 0.244794
43, 6, bw, attraction, a-b-da, 5, 3, 8, 13, 195, 120, 120, 195, 190, 117, 2, 0.712462
43, 6, bw, attraction, a-b-da, 5, 3, 8, 13, 195, 120, 120, 195, 190, 117, 1, 0.658877
43, 6, bw, attraction, a-b-db, 2, 1, 8, 14, 135, 60, 59, 134, 60, 135, 3, 1.34192
43, 6, bw, attraction, a-b-db, 2, 1, 8, 14, 135, 60, 59, 134, 60, 135, 2, 1.1908
43, 6, bw, attraction, a-b-db, 9, 1, 8, 15, 135, 60, 57, 129, 60, 135, 3, 1.53246
43, 6, bw, attraction, a-b-db, 9, 1, 8, 15, 135, 60, 57, 129, 60, 135, 1, 0.605975
43, 6, bw, filler, NA, 999, 999, 8, 16, 126, 71, 81, 152, 121, 81, 2, 0.490955
43, 6, bw, filler, NA, 999, 999, 8, 16, 126, 71, 81, 152, 121, 81, 1, 0.694153
43, 6, bw, attraction, a-b-db, 2, 2, 8, 17, 89, 163, 165, 90, 90, 165, 3, 1.13594
43, 6, bw, attraction, a-b-db, 2, 2, 8, 17, 89, 163, 165, 90, 90, 165, 1, 0.385508
43, 6, bw, attraction, a-b-db, 2, 3, 8, 18, 120, 195, 195, 120, 119, 193, 2, 3.00798
43, 6, bw, attraction, a-b-db, 2, 3, 8, 18, 120, 195, 195, 120, 119, 193, 3, 0.333695
43, 6, bw, attraction, a-b-da, 9, 3, 8, 19, 120, 195, 186, 114, 195, 120, 3, 0.710167
43, 6, bw, attraction, a-b-da, 9, 3, 8, 19, 120, 195, 186, 114, 195, 120, 2, 0.264557
43, 6, bw, attraction, a-b-db, 9, 3, 8, 20, 195, 120, 114, 186, 120, 195, 3, 0.683775
43, 6, bw, attraction, a-b-db, 9, 3, 8, 20, 195, 120, 114, 186, 120, 195, 1, 0.367581
43, 6, bw, attraction, a-b-da, 14, 2, 8, 21, 165, 90, 153, 83, 90, 165, 3, 0.702654
43, 6, bw, attraction, a-b-da, 14, 2, 8, 21, 165, 90, 153, 83, 90, 165, 2, 0.321735
43, 6, bw, attraction, a-b-db, 9, 2, 8, 22, 90, 165, 165, 90, 86, 157, 1, 1.58693
43, 6, bw, attraction, a-b-db, 9, 2, 8, 22, 90, 165, 165, 90, 86, 157, 2, 0.410546
43, 6, bw, attraction, a-b-da, 9, 2, 8, 23, 157, 86, 165, 90, 90, 165, 3, 0.87967
43, 6, bw, attraction, a-b-da, 9, 2, 8, 23, 157, 86, 165, 90, 90, 165, 1, 0.731426
43, 6, bw, filler, NA, 999, 999, 8, 24, 118, 95, 60, 174, 123, 68, 1, 0.931657
43, 6, bw, filler, NA, 999, 999, 8, 24, 118, 95, 60, 174, 123, 68, 3, 0.389268
43, 6, bw, filler, NA, 999, 999, 8, 25, 72, 170, 163, 145, 78, 172, 2, 0.403163
43, 6, bw, filler, NA, 999, 999, 8, 25, 72, 170, 163, 145, 78, 172, 1, 0.442293
43, 6, bw, attraction, a-b-da, 14, 3, 8, 26, 195, 120, 120, 195, 181, 111, 2, 0.630173
43, 6, bw, attraction, a-b-da, 14, 3, 8, 26, 195, 120, 120, 195, 181, 111, 3, 0.628049
43, 6, bw, attraction, a-b-db, 5, 1, 8, 27, 58, 132, 135, 60, 60, 135, 3, 0.84041
43, 6, bw, attraction, a-b-db, 5, 1, 8, 27, 58, 132, 135, 60, 60, 135, 1, 0.397351
43, 6, bw, filler, NA, 999, 999, 8, 28, 138, 142, 74, 83, 104, 141, 1, 0.611168
43, 6, bw, filler, NA, 999, 999, 8, 28, 138, 142, 74, 83, 104, 141, 2, 0.26572
43, 6, bw, catch, NA, 999, 999, 8, 29, 142, 113, 153, 162, 82, 113, 2, 0.508831
43, 6, bw, catch, NA, 999, 999, 8, 29, 142, 113, 153, 162, 82, 113, 3, 0.482865
43, 6, bw, catch, NA, 999, 999, 8, 30, 95, 100, 121, 194, 145, 110, 2, 0.889782
43, 6, bw, catch, NA, 999, 999, 8, 30, 95, 100, 121, 194, 145, 110, 1, 0.260784
43, 6, bw, filler, NA, 999, 999, 8, 31, 165, 66, 151, 67, 172, 72, 3, 0.752034
43, 6, bw, filler, NA, 999, 999, 8, 31, 165, 66, 151, 67, 172, 72, 1, 0.481047
43, 6, bw, attraction, a-b-da, 5, 2, 8, 32, 165, 90, 90, 165, 161, 88, 2, 0.715486
43, 6, bw, attraction, a-b-da, 5, 2, 8, 32, 165, 90, 90, 165, 161, 88, 1, 0.589876
43, 6, bw, attraction, a-b-da, 2, 1, 8, 33, 135, 60, 134, 59, 60, 135, 3, 1.14767
43, 6, bw, attraction, a-b-da, 2, 1, 8, 33, 135, 60, 134, 59, 60, 135, 2, 0.500607
43, 6, bw, filler, NA, 999, 999, 8, 34, 106, 167, 110, 148, 84, 87, 2, 0.438371
43, 6, bw, filler, NA, 999, 999, 8, 34, 106, 167, 110, 148, 84, 87, 3, 0.395561
43, 6, bw, attraction, a-b-da, 2, 3, 8, 35, 195, 120, 120, 195, 193, 119, 3, 0.945424
43, 6, bw, attraction, a-b-da, 2, 3, 8, 35, 195, 120, 120, 195, 193, 119, 1, 0.458364
43, 6, bw, filler, NA, 999, 999, 8, 36, 173, 154, 153, 140, 79, 102, 1, 0.533525
43, 6, bw, filler, NA, 999, 999, 8, 36, 173, 154, 153, 140, 79, 102, 3, 0.551384
43, 6, bw, attraction, a-b-da, 2, 2, 8, 37, 90, 165, 165, 90, 163, 89, 1, 1.06312
43, 6, bw, attraction, a-b-da, 2, 2, 8, 37, 90, 165, 165, 90, 163, 89, 2, 0.57954
