sub_n, computer_n, bw_cond, effect, set, distance, diag, block_n, trial_n, h1, w1, h2, w2, h3, w3, choice, rt 
59, 6, bw, practice, NA, 999, 999, 0, 1, 61, 127, 192, 110, 119, 121, 2, 1.99323
59, 6, bw, practice, NA, 999, 999, 0, 1, 61, 127, 192, 110, 119, 121, 1, 2.86438
59, 6, bw, practice, NA, 999, 999, 0, 2, 60, 61, 56, 126, 82, 76, 2, 8.86507
59, 6, bw, practice, NA, 999, 999, 0, 2, 60, 61, 56, 126, 82, 76, 1, 1.72227
59, 6, bw, practice, NA, 999, 999, 0, 3, 102, 155, 173, 166, 113, 156, 2, 2.16715
59, 6, bw, practice, NA, 999, 999, 0, 3, 102, 155, 173, 166, 113, 156, 1, 3.82288
59, 6, bw, attraction, a-b-da, 2, 2, 1, 1, 90, 165, 165, 90, 163, 89, 1, 2.11803
59, 6, bw, attraction, a-b-da, 2, 2, 1, 1, 90, 165, 165, 90, 163, 89, 3, 2.92804
59, 6, bw, catch, NA, 999, 999, 1, 2, 68, 127, 159, 96, 170, 145, 3, 1.51169
59, 6, bw, catch, NA, 999, 999, 1, 2, 68, 127, 159, 96, 170, 145, 1, 0.529859
59, 6, bw, attraction, a-b-db, 5, 2, 1, 3, 88, 161, 165, 90, 90, 165, 1, 7.90621
59, 6, bw, attraction, a-b-db, 5, 2, 1, 3, 88, 161, 165, 90, 90, 165, 3, 1.69906
59, 6, bw, attraction, a-b-da, 14, 2, 1, 4, 165, 90, 153, 83, 90, 165, 3, 2.38054
59, 6, bw, attraction, a-b-da, 14, 2, 1, 4, 165, 90, 153, 83, 90, 165, 2, 0.963758
59, 6, bw, attraction, a-b-da, 9, 3, 1, 5, 186, 114, 195, 120, 120, 195, 3, 1.92277
59, 6, bw, attraction, a-b-da, 9, 3, 1, 5, 186, 114, 195, 120, 120, 195, 1, 0.932078
59, 6, bw, filler, NA, 999, 999, 1, 6, 85, 142, 193, 169, 80, 82, 2, 0.852396
59, 6, bw, filler, NA, 999, 999, 1, 6, 85, 142, 193, 169, 80, 82, 3, 0.465613
59, 6, bw, attraction, a-b-db, 14, 2, 1, 7, 90, 165, 83, 153, 165, 90, 1, 4.02867
59, 6, bw, attraction, a-b-db, 14, 2, 1, 7, 90, 165, 83, 153, 165, 90, 2, 0.289294
59, 6, bw, filler, NA, 999, 999, 1, 8, 101, 72, 170, 156, 111, 166, 2, 1.53114
59, 6, bw, filler, NA, 999, 999, 1, 8, 101, 72, 170, 156, 111, 166, 1, 1.28458
59, 6, bw, attraction, a-b-db, 2, 3, 1, 9, 195, 120, 119, 193, 120, 195, 2, 3.67889
59, 6, bw, attraction, a-b-db, 2, 3, 1, 9, 195, 120, 119, 193, 120, 195, 3, 3.28169
59, 6, bw, attraction, a-b-db, 5, 1, 1, 10, 58, 132, 60, 135, 135, 60, 2, 3.7632
59, 6, bw, attraction, a-b-db, 5, 1, 1, 10, 58, 132, 60, 135, 135, 60, 1, 1.31471
59, 6, bw, filler, NA, 999, 999, 1, 11, 150, 150, 81, 184, 89, 188, 1, 1.19562
59, 6, bw, filler, NA, 999, 999, 1, 11, 150, 150, 81, 184, 89, 188, 2, 1.02656
59, 6, bw, catch, NA, 999, 999, 1, 12, 91, 104, 132, 183, 129, 126, 2, 1.24692
59, 6, bw, catch, NA, 999, 999, 1, 12, 91, 104, 132, 183, 129, 126, 1, 0.619774
59, 6, bw, catch, NA, 999, 999, 1, 13, 124, 191, 101, 94, 101, 154, 1, 1.00873
59, 6, bw, catch, NA, 999, 999, 1, 13, 124, 191, 101, 94, 101, 154, 2, 0.56706
59, 6, bw, attraction, a-b-da, 2, 3, 1, 14, 120, 195, 195, 120, 193, 119, 1, 2.43022
59, 6, bw, attraction, a-b-da, 2, 3, 1, 14, 120, 195, 195, 120, 193, 119, 3, 1.27552
59, 6, bw, attraction, a-b-da, 9, 1, 1, 15, 135, 60, 60, 135, 129, 57, 1, 2.6536
59, 6, bw, attraction, a-b-da, 9, 1, 1, 15, 135, 60, 60, 135, 129, 57, 3, 1.42614
59, 6, bw, attraction, a-b-db, 9, 3, 1, 16, 114, 186, 120, 195, 195, 120, 2, 2.83836
59, 6, bw, attraction, a-b-db, 9, 3, 1, 16, 114, 186, 120, 195, 195, 120, 1, 1.00275
59, 6, bw, attraction, a-b-db, 9, 1, 1, 17, 60, 135, 135, 60, 57, 129, 1, 3.59247
59, 6, bw, attraction, a-b-db, 9, 1, 1, 17, 60, 135, 135, 60, 57, 129, 3, 1.07058
59, 6, bw, attraction, a-b-db, 2, 1, 1, 18, 135, 60, 59, 134, 60, 135, 1, 2.54541
59, 6, bw, attraction, a-b-db, 2, 1, 1, 18, 135, 60, 59, 134, 60, 135, 2, 0.481938
59, 6, bw, attraction, a-b-da, 5, 2, 1, 19, 165, 90, 90, 165, 161, 88, 2, 2.30834
59, 6, bw, attraction, a-b-da, 5, 2, 1, 19, 165, 90, 90, 165, 161, 88, 3, 0.814413
59, 6, bw, filler, NA, 999, 999, 1, 20, 132, 191, 79, 152, 158, 169, 3, 1.08343
59, 6, bw, filler, NA, 999, 999, 1, 20, 132, 191, 79, 152, 158, 169, 2, 0.895052
59, 6, bw, attraction, a-b-db, 2, 2, 1, 21, 165, 90, 89, 163, 90, 165, 2, 1.72073
59, 6, bw, attraction, a-b-db, 2, 2, 1, 21, 165, 90, 89, 163, 90, 165, 1, 0.458686
59, 6, bw, attraction, a-b-db, 14, 3, 1, 22, 111, 181, 195, 120, 120, 195, 3, 1.43791
59, 6, bw, attraction, a-b-db, 14, 3, 1, 22, 111, 181, 195, 120, 120, 195, 1, 1.22679
59, 6, bw, filler, NA, 999, 999, 1, 23, 99, 85, 142, 89, 133, 162, 3, 0.727017
59, 6, bw, filler, NA, 999, 999, 1, 23, 99, 85, 142, 89, 133, 162, 1, 0.512803
59, 6, bw, filler, NA, 999, 999, 1, 24, 139, 141, 178, 94, 174, 104, 1, 2.04989
59, 6, bw, filler, NA, 999, 999, 1, 24, 139, 141, 178, 94, 174, 104, 3, 0.80658
59, 6, bw, attraction, a-b-da, 5, 1, 1, 25, 60, 135, 135, 60, 132, 58, 1, 3.74752
59, 6, bw, attraction, a-b-da, 5, 1, 1, 25, 60, 135, 135, 60, 132, 58, 3, 0.867714
59, 6, bw, filler, NA, 999, 999, 1, 26, 184, 85, 168, 147, 191, 182, 3, 1.29465
59, 6, bw, filler, NA, 999, 999, 1, 26, 184, 85, 168, 147, 191, 182, 1, 1.32152
59, 6, bw, attraction, a-b-da, 2, 1, 1, 27, 135, 60, 60, 135, 134, 59, 3, 2.14649
59, 6, bw, attraction, a-b-da, 2, 1, 1, 27, 135, 60, 60, 135, 134, 59, 2, 1.5551
59, 6, bw, attraction, a-b-da, 14, 3, 1, 28, 195, 120, 181, 111, 120, 195, 3, 3.81868
59, 6, bw, attraction, a-b-da, 14, 3, 1, 28, 195, 120, 181, 111, 120, 195, 2, 0.503972
59, 6, bw, attraction, a-b-da, 5, 3, 1, 29, 190, 117, 120, 195, 195, 120, 2, 1.80185
59, 6, bw, attraction, a-b-da, 5, 3, 1, 29, 190, 117, 120, 195, 195, 120, 1, 0.728498
59, 6, bw, filler, NA, 999, 999, 1, 30, 66, 98, 193, 155, 167, 65, 2, 1.15281
59, 6, bw, filler, NA, 999, 999, 1, 30, 66, 98, 193, 155, 167, 65, 1, 0.641825
59, 6, bw, filler, NA, 999, 999, 1, 31, 110, 146, 84, 145, 159, 181, 3, 0.74151
59, 6, bw, filler, NA, 999, 999, 1, 31, 110, 146, 84, 145, 159, 181, 1, 0.798648
59, 6, bw, attraction, a-b-db, 14, 1, 1, 32, 135, 60, 60, 135, 56, 125, 2, 2.30033
59, 6, bw, attraction, a-b-db, 14, 1, 1, 32, 135, 60, 60, 135, 56, 125, 3, 0.863023
59, 6, bw, attraction, a-b-da, 9, 2, 1, 33, 165, 90, 90, 165, 157, 86, 2, 2.23402
59, 6, bw, attraction, a-b-da, 9, 2, 1, 33, 165, 90, 90, 165, 157, 86, 3, 1.87921
59, 6, bw, attraction, a-b-db, 5, 3, 1, 34, 120, 195, 195, 120, 117, 190, 1, 3.37729
59, 6, bw, attraction, a-b-db, 5, 3, 1, 34, 120, 195, 195, 120, 117, 190, 2, 0.648116
59, 6, bw, attraction, a-b-da, 14, 1, 1, 35, 125, 56, 60, 135, 135, 60, 3, 1.84389
59, 6, bw, attraction, a-b-da, 14, 1, 1, 35, 125, 56, 60, 135, 135, 60, 2, 0.680597
59, 6, bw, filler, NA, 999, 999, 1, 36, 163, 57, 130, 73, 138, 96, 3, 1.90699
59, 6, bw, filler, NA, 999, 999, 1, 36, 163, 57, 130, 73, 138, 96, 1, 1.21307
59, 6, bw, attraction, a-b-db, 9, 2, 1, 37, 90, 165, 165, 90, 86, 157, 1, 1.4179
59, 6, bw, attraction, a-b-db, 9, 2, 1, 37, 90, 165, 165, 90, 86, 157, 2, 0.73611
59, 6, bw, attraction, a-b-db, 5, 2, 2, 1, 90, 165, 88, 161, 165, 90, 1, 1.29647
59, 6, bw, attraction, a-b-db, 5, 2, 2, 1, 90, 165, 88, 161, 165, 90, 3, 1.10747
59, 6, bw, filler, NA, 999, 999, 2, 2, 92, 123, 85, 144, 85, 188, 3, 1.1884
59, 6, bw, filler, NA, 999, 999, 2, 2, 92, 123, 85, 144, 85, 188, 1, 0.643355
59, 6, bw, catch, NA, 999, 999, 2, 3, 150, 105, 160, 155, 133, 62, 2, 0.838986
59, 6, bw, catch, NA, 999, 999, 2, 3, 150, 105, 160, 155, 133, 62, 3, 0.492047
59, 6, bw, filler, NA, 999, 999, 2, 4, 86, 104, 103, 96, 140, 84, 3, 0.821782
59, 6, bw, filler, NA, 999, 999, 2, 4, 86, 104, 103, 96, 140, 84, 2, 0.28367
59, 6, bw, filler, NA, 999, 999, 2, 5, 96, 142, 73, 115, 136, 58, 1, 0.854073
59, 6, bw, filler, NA, 999, 999, 2, 5, 96, 142, 73, 115, 136, 58, 3, 0.306422
59, 6, bw, attraction, a-b-da, 2, 1, 2, 6, 134, 59, 60, 135, 135, 60, 2, 0.939598
59, 6, bw, attraction, a-b-da, 2, 1, 2, 6, 134, 59, 60, 135, 135, 60, 3, 0.524655
59, 6, bw, attraction, a-b-da, 5, 3, 2, 7, 190, 117, 195, 120, 120, 195, 3, 1.02102
59, 6, bw, attraction, a-b-da, 5, 3, 2, 7, 190, 117, 195, 120, 120, 195, 1, 0.48271
59, 6, bw, attraction, a-b-da, 9, 3, 2, 8, 120, 195, 186, 114, 195, 120, 3, 0.74922
59, 6, bw, attraction, a-b-da, 9, 3, 2, 8, 120, 195, 186, 114, 195, 120, 1, 0.254367
59, 6, bw, attraction, a-b-db, 5, 3, 2, 9, 120, 195, 195, 120, 117, 190, 1, 0.56215
59, 6, bw, attraction, a-b-db, 5, 3, 2, 9, 120, 195, 195, 120, 117, 190, 2, 0.418673
59, 6, bw, filler, NA, 999, 999, 2, 10, 191, 68, 170, 62, 160, 123, 3, 0.463727
59, 6, bw, filler, NA, 999, 999, 2, 10, 191, 68, 170, 62, 160, 123, 2, 0.38019
59, 6, bw, attraction, a-b-db, 5, 1, 2, 11, 60, 135, 135, 60, 58, 132, 3, 0.850706
59, 6, bw, attraction, a-b-db, 5, 1, 2, 11, 60, 135, 135, 60, 58, 132, 2, 0.279695
59, 6, bw, catch, NA, 999, 999, 2, 12, 167, 148, 95, 160, 74, 121, 1, 0.498239
59, 6, bw, catch, NA, 999, 999, 2, 12, 167, 148, 95, 160, 74, 121, 3, 0.757433
59, 6, bw, filler, NA, 999, 999, 2, 13, 122, 57, 133, 62, 141, 75, 3, 0.588489
59, 6, bw, filler, NA, 999, 999, 2, 13, 122, 57, 133, 62, 141, 75, 1, 0.355576
59, 6, bw, attraction, a-b-db, 2, 2, 2, 14, 165, 90, 89, 163, 90, 165, 3, 0.875514
59, 6, bw, attraction, a-b-db, 2, 2, 2, 14, 165, 90, 89, 163, 90, 165, 2, 0.99919
59, 6, bw, catch, NA, 999, 999, 2, 15, 83, 112, 98, 157, 150, 165, 3, 0.524722
59, 6, bw, catch, NA, 999, 999, 2, 15, 83, 112, 98, 157, 150, 165, 1, 0.310563
59, 6, bw, filler, NA, 999, 999, 2, 16, 130, 130, 101, 186, 121, 149, 3, 0.567887
59, 6, bw, filler, NA, 999, 999, 2, 16, 130, 130, 101, 186, 121, 149, 1, 0.616163
59, 6, bw, attraction, a-b-db, 14, 2, 2, 17, 83, 153, 90, 165, 165, 90, 3, 1.58928
59, 6, bw, attraction, a-b-db, 14, 2, 2, 17, 83, 153, 90, 165, 165, 90, 1, 0.340109
59, 6, bw, attraction, a-b-db, 9, 1, 2, 18, 135, 60, 60, 135, 57, 129, 2, 1.05991
59, 6, bw, attraction, a-b-db, 9, 1, 2, 18, 135, 60, 60, 135, 57, 129, 1, 0.344186
59, 6, bw, attraction, a-b-db, 9, 3, 2, 19, 114, 186, 195, 120, 120, 195, 3, 0.576
59, 6, bw, attraction, a-b-db, 9, 3, 2, 19, 114, 186, 195, 120, 120, 195, 2, 0.55985
59, 6, bw, attraction, a-b-db, 14, 3, 2, 20, 120, 195, 195, 120, 111, 181, 2, 1.08707
59, 6, bw, attraction, a-b-db, 14, 3, 2, 20, 120, 195, 195, 120, 111, 181, 1, 0.314544
59, 6, bw, filler, NA, 999, 999, 2, 21, 150, 185, 183, 144, 92, 151, 1, 0.643818
59, 6, bw, filler, NA, 999, 999, 2, 21, 150, 185, 183, 144, 92, 151, 3, 0.744881
59, 6, bw, attraction, a-b-da, 9, 1, 2, 22, 135, 60, 60, 135, 129, 57, 3, 0.744583
59, 6, bw, attraction, a-b-da, 9, 1, 2, 22, 135, 60, 60, 135, 129, 57, 2, 0.345599
59, 6, bw, attraction, a-b-da, 2, 3, 2, 23, 195, 120, 120, 195, 193, 119, 2, 2.21749
59, 6, bw, attraction, a-b-da, 2, 3, 2, 23, 195, 120, 120, 195, 193, 119, 1, 0.247411
59, 6, bw, attraction, a-b-db, 2, 3, 2, 24, 195, 120, 120, 195, 119, 193, 2, 2.14725
59, 6, bw, attraction, a-b-db, 2, 3, 2, 24, 195, 120, 120, 195, 119, 193, 1, 0.259911
59, 6, bw, attraction, a-b-da, 5, 2, 2, 25, 90, 165, 165, 90, 161, 88, 3, 0.823123
59, 6, bw, attraction, a-b-da, 5, 2, 2, 25, 90, 165, 165, 90, 161, 88, 2, 0.228759
59, 6, bw, attraction, a-b-db, 14, 1, 2, 26, 56, 125, 60, 135, 135, 60, 3, 0.753528
59, 6, bw, attraction, a-b-db, 14, 1, 2, 26, 56, 125, 60, 135, 135, 60, 2, 0.953741
59, 6, bw, filler, NA, 999, 999, 2, 27, 141, 65, 78, 132, 84, 148, 3, 1.38564
59, 6, bw, filler, NA, 999, 999, 2, 27, 141, 65, 78, 132, 84, 148, 1, 0.712965
59, 6, bw, filler, NA, 999, 999, 2, 28, 148, 127, 98, 180, 102, 88, 1, 1.002
59, 6, bw, filler, NA, 999, 999, 2, 28, 148, 127, 98, 180, 102, 88, 3, 0.417002
59, 6, bw, attraction, a-b-da, 14, 3, 2, 29, 120, 195, 195, 120, 181, 111, 2, 0.958167
59, 6, bw, attraction, a-b-da, 14, 3, 2, 29, 120, 195, 195, 120, 181, 111, 3, 0.310518
59, 6, bw, attraction, a-b-da, 14, 1, 2, 30, 135, 60, 60, 135, 125, 56, 1, 1.13563
59, 6, bw, attraction, a-b-da, 14, 1, 2, 30, 135, 60, 60, 135, 125, 56, 2, 0.225309
59, 6, bw, attraction, a-b-da, 9, 2, 2, 31, 165, 90, 157, 86, 90, 165, 3, 0.533802
59, 6, bw, attraction, a-b-da, 9, 2, 2, 31, 165, 90, 157, 86, 90, 165, 2, 0.247588
59, 6, bw, attraction, a-b-da, 2, 2, 2, 32, 165, 90, 163, 89, 90, 165, 1, 0.555516
59, 6, bw, attraction, a-b-da, 2, 2, 2, 32, 165, 90, 163, 89, 90, 165, 3, 0.267951
59, 6, bw, attraction, a-b-db, 9, 2, 2, 33, 90, 165, 165, 90, 86, 157, 3, 0.83916
59, 6, bw, attraction, a-b-db, 9, 2, 2, 33, 90, 165, 165, 90, 86, 157, 2, 0.23611
59, 6, bw, attraction, a-b-db, 2, 1, 2, 34, 59, 134, 135, 60, 60, 135, 3, 0.904798
59, 6, bw, attraction, a-b-db, 2, 1, 2, 34, 59, 134, 135, 60, 60, 135, 1, 0.515091
59, 6, bw, filler, NA, 999, 999, 2, 35, 108, 116, 135, 172, 120, 77, 2, 0.452188
59, 6, bw, filler, NA, 999, 999, 2, 35, 108, 116, 135, 172, 120, 77, 3, 0.297506
59, 6, bw, attraction, a-b-da, 14, 2, 2, 36, 165, 90, 153, 83, 90, 165, 3, 0.979254
59, 6, bw, attraction, a-b-da, 14, 2, 2, 36, 165, 90, 153, 83, 90, 165, 2, 0.242965
59, 6, bw, attraction, a-b-da, 5, 1, 2, 37, 60, 135, 135, 60, 132, 58, 3, 0.590701
59, 6, bw, attraction, a-b-da, 5, 1, 2, 37, 60, 135, 135, 60, 132, 58, 1, 0.341819
59, 6, bw, attraction, a-b-da, 5, 3, 3, 1, 190, 117, 120, 195, 195, 120, 2, 1.18164
59, 6, bw, attraction, a-b-da, 5, 3, 3, 1, 190, 117, 120, 195, 195, 120, 3, 0.213243
59, 6, bw, filler, NA, 999, 999, 3, 2, 172, 177, 99, 155, 98, 113, 1, 0.514426
59, 6, bw, filler, NA, 999, 999, 3, 2, 172, 177, 99, 155, 98, 113, 3, 0.308991
59, 6, bw, attraction, a-b-da, 5, 2, 3, 3, 90, 165, 161, 88, 165, 90, 3, 0.8301
59, 6, bw, attraction, a-b-da, 5, 2, 3, 3, 90, 165, 161, 88, 165, 90, 2, 0.491869
59, 6, bw, attraction, a-b-da, 14, 1, 3, 4, 125, 56, 135, 60, 60, 135, 3, 1.33367
59, 6, bw, attraction, a-b-da, 14, 1, 3, 4, 125, 56, 135, 60, 60, 135, 1, 0.567191
59, 6, bw, attraction, a-b-db, 14, 3, 3, 5, 111, 181, 120, 195, 195, 120, 3, 2.26229
59, 6, bw, attraction, a-b-db, 14, 3, 3, 5, 111, 181, 120, 195, 195, 120, 2, 0.218251
59, 6, bw, attraction, a-b-da, 2, 3, 3, 6, 193, 119, 120, 195, 195, 120, 1, 1.56741
59, 6, bw, attraction, a-b-da, 2, 3, 3, 6, 193, 119, 120, 195, 195, 120, 3, 0.271603
59, 6, bw, attraction, a-b-db, 9, 2, 3, 7, 165, 90, 90, 165, 86, 157, 3, 0.930773
59, 6, bw, attraction, a-b-db, 9, 2, 3, 7, 165, 90, 90, 165, 86, 157, 2, 0.260466
59, 6, bw, catch, NA, 999, 999, 3, 8, 127, 128, 84, 111, 182, 133, 3, 0.51974
59, 6, bw, catch, NA, 999, 999, 3, 8, 127, 128, 84, 111, 182, 133, 2, 0.889438
59, 6, bw, filler, NA, 999, 999, 3, 9, 137, 142, 121, 149, 81, 93, 1, 0.603166
59, 6, bw, filler, NA, 999, 999, 3, 9, 137, 142, 121, 149, 81, 93, 3, 0.514339
59, 6, bw, attraction, a-b-db, 2, 2, 3, 10, 90, 165, 165, 90, 89, 163, 3, 0.915394
59, 6, bw, attraction, a-b-db, 2, 2, 3, 10, 90, 165, 165, 90, 89, 163, 2, 0.677944
59, 6, bw, attraction, a-b-da, 14, 2, 3, 11, 153, 83, 90, 165, 165, 90, 3, 1.24004
59, 6, bw, attraction, a-b-da, 14, 2, 3, 11, 153, 83, 90, 165, 165, 90, 2, 0.54103
59, 6, bw, filler, NA, 999, 999, 3, 12, 164, 123, 194, 57, 107, 131, 1, 0.972829
59, 6, bw, filler, NA, 999, 999, 3, 12, 164, 123, 194, 57, 107, 131, 3, 0.260487
59, 6, bw, attraction, a-b-db, 14, 2, 3, 13, 90, 165, 83, 153, 165, 90, 3, 1.47971
59, 6, bw, attraction, a-b-db, 14, 2, 3, 13, 90, 165, 83, 153, 165, 90, 2, 0.563184
59, 6, bw, filler, NA, 999, 999, 3, 14, 195, 166, 190, 147, 141, 187, 1, 0.674245
59, 6, bw, filler, NA, 999, 999, 3, 14, 195, 166, 190, 147, 141, 187, 3, 0.406074
59, 6, bw, attraction, a-b-da, 2, 1, 3, 15, 135, 60, 134, 59, 60, 135, 1, 0.843194
59, 6, bw, attraction, a-b-da, 2, 1, 3, 15, 135, 60, 134, 59, 60, 135, 3, 0.496269
59, 6, bw, attraction, a-b-da, 2, 2, 3, 16, 90, 165, 165, 90, 163, 89, 1, 0.586088
59, 6, bw, attraction, a-b-da, 2, 2, 3, 16, 90, 165, 165, 90, 163, 89, 3, 0.281806
59, 6, bw, filler, NA, 999, 999, 3, 17, 178, 123, 145, 108, 135, 162, 3, 0.988436
59, 6, bw, filler, NA, 999, 999, 3, 17, 178, 123, 145, 108, 135, 162, 2, 0.483347
59, 6, bw, filler, NA, 999, 999, 3, 18, 95, 84, 61, 59, 83, 153, 3, 0.741825
59, 6, bw, filler, NA, 999, 999, 3, 18, 95, 84, 61, 59, 83, 153, 2, 0.966902
59, 6, bw, attraction, a-b-db, 9, 1, 3, 19, 60, 135, 57, 129, 135, 60, 3, 1.24588
59, 6, bw, attraction, a-b-db, 9, 1, 3, 19, 60, 135, 57, 129, 135, 60, 2, 0.330833
59, 6, bw, attraction, a-b-db, 9, 3, 3, 20, 195, 120, 120, 195, 114, 186, 3, 1.18737
59, 6, bw, attraction, a-b-db, 9, 3, 3, 20, 195, 120, 120, 195, 114, 186, 2, 0.210262
59, 6, bw, attraction, a-b-da, 9, 2, 3, 21, 157, 86, 90, 165, 165, 90, 1, 0.631377
59, 6, bw, attraction, a-b-da, 9, 2, 3, 21, 157, 86, 90, 165, 165, 90, 2, 1.08528
59, 6, bw, filler, NA, 999, 999, 3, 22, 194, 155, 186, 90, 70, 182, 1, 0.511386
59, 6, bw, filler, NA, 999, 999, 3, 22, 194, 155, 186, 90, 70, 182, 3, 0.257908
59, 6, bw, attraction, a-b-db, 14, 1, 3, 23, 56, 125, 135, 60, 60, 135, 3, 0.725142
59, 6, bw, attraction, a-b-db, 14, 1, 3, 23, 56, 125, 135, 60, 60, 135, 2, 0.583008
59, 6, bw, attraction, a-b-da, 14, 3, 3, 24, 195, 120, 181, 111, 120, 195, 1, 0.701231
59, 6, bw, attraction, a-b-da, 14, 3, 3, 24, 195, 120, 181, 111, 120, 195, 2, 0.264337
59, 6, bw, attraction, a-b-da, 5, 1, 3, 25, 135, 60, 132, 58, 60, 135, 1, 0.52364
59, 6, bw, attraction, a-b-da, 5, 1, 3, 25, 135, 60, 132, 58, 60, 135, 2, 0.245354
59, 6, bw, attraction, a-b-db, 2, 3, 3, 26, 195, 120, 120, 195, 119, 193, 1, 0.497163
59, 6, bw, attraction, a-b-db, 2, 3, 3, 26, 195, 120, 120, 195, 119, 193, 2, 0.268361
59, 6, bw, filler, NA, 999, 999, 3, 27, 98, 113, 88, 93, 148, 141, 3, 0.439561
59, 6, bw, filler, NA, 999, 999, 3, 27, 98, 113, 88, 93, 148, 141, 2, 0.324776
59, 6, bw, attraction, a-b-db, 5, 3, 3, 28, 117, 190, 195, 120, 120, 195, 1, 0.5573
59, 6, bw, attraction, a-b-db, 5, 3, 3, 28, 117, 190, 195, 120, 120, 195, 2, 0.277688
59, 6, bw, filler, NA, 999, 999, 3, 29, 107, 66, 105, 107, 59, 168, 1, 0.584236
59, 6, bw, filler, NA, 999, 999, 3, 29, 107, 66, 105, 107, 59, 168, 2, 0.28004
59, 6, bw, filler, NA, 999, 999, 3, 30, 141, 107, 58, 68, 181, 185, 3, 0.530563
59, 6, bw, filler, NA, 999, 999, 3, 30, 141, 107, 58, 68, 181, 185, 2, 0.340354
59, 6, bw, attraction, a-b-db, 5, 2, 3, 31, 90, 165, 165, 90, 88, 161, 3, 0.516216
59, 6, bw, attraction, a-b-db, 5, 2, 3, 31, 90, 165, 165, 90, 88, 161, 2, 0.262709
59, 6, bw, attraction, a-b-db, 2, 1, 3, 32, 60, 135, 59, 134, 135, 60, 1, 0.729982
59, 6, bw, attraction, a-b-db, 2, 1, 3, 32, 60, 135, 59, 134, 135, 60, 3, 0.803665
59, 6, bw, catch, NA, 999, 999, 3, 33, 161, 154, 101, 154, 108, 87, 1, 0.393314
59, 6, bw, catch, NA, 999, 999, 3, 33, 161, 154, 101, 154, 108, 87, 3, 0.232707
59, 6, bw, attraction, a-b-da, 9, 3, 3, 34, 186, 114, 120, 195, 195, 120, 2, 0.909081
59, 6, bw, attraction, a-b-da, 9, 3, 3, 34, 186, 114, 120, 195, 195, 120, 3, 0.487482
59, 6, bw, catch, NA, 999, 999, 3, 35, 95, 100, 139, 116, 124, 191, 3, 0.593886
59, 6, bw, catch, NA, 999, 999, 3, 35, 95, 100, 139, 116, 124, 191, 1, 0.561065
59, 6, bw, attraction, a-b-db, 5, 1, 3, 36, 60, 135, 135, 60, 58, 132, 1, 0.576038
59, 6, bw, attraction, a-b-db, 5, 1, 3, 36, 60, 135, 135, 60, 58, 132, 3, 0.215837
59, 6, bw, attraction, a-b-da, 9, 1, 3, 37, 135, 60, 129, 57, 60, 135, 1, 0.325086
59, 6, bw, attraction, a-b-da, 9, 1, 3, 37, 135, 60, 129, 57, 60, 135, 3, 0.23906
59, 6, bw, attraction, a-b-da, 14, 3, 4, 1, 181, 111, 120, 195, 195, 120, 1, 0.291441
59, 6, bw, attraction, a-b-da, 14, 3, 4, 1, 181, 111, 120, 195, 195, 120, 3, 0.310816
59, 6, bw, filler, NA, 999, 999, 4, 2, 166, 192, 128, 65, 182, 179, 1, 0.487836
59, 6, bw, filler, NA, 999, 999, 4, 2, 166, 192, 128, 65, 182, 179, 2, 0.195056
59, 6, bw, attraction, a-b-db, 9, 3, 4, 3, 114, 186, 195, 120, 120, 195, 3, 0.40888
59, 6, bw, attraction, a-b-db, 9, 3, 4, 3, 114, 186, 195, 120, 120, 195, 2, 0.463334
59, 6, bw, filler, NA, 999, 999, 4, 4, 115, 180, 131, 104, 66, 190, 1, 0.562759
59, 6, bw, filler, NA, 999, 999, 4, 4, 115, 180, 131, 104, 66, 190, 3, 1.06711
59, 6, bw, filler, NA, 999, 999, 4, 5, 153, 118, 189, 142, 116, 80, 1, 0.421951
59, 6, bw, filler, NA, 999, 999, 4, 5, 153, 118, 189, 142, 116, 80, 3, 2.17979
59, 6, bw, attraction, a-b-da, 14, 1, 4, 6, 135, 60, 125, 56, 60, 135, 1, 0.473672
59, 6, bw, attraction, a-b-da, 14, 1, 4, 6, 135, 60, 125, 56, 60, 135, 3, 0.237557
59, 6, bw, attraction, a-b-db, 2, 1, 4, 7, 59, 134, 135, 60, 60, 135, 1, 0.362013
59, 6, bw, attraction, a-b-db, 2, 1, 4, 7, 59, 134, 135, 60, 60, 135, 3, 0.498589
59, 6, bw, filler, NA, 999, 999, 4, 8, 192, 175, 102, 165, 132, 127, 1, 0.484465
59, 6, bw, filler, NA, 999, 999, 4, 8, 192, 175, 102, 165, 132, 127, 3, 0.520306
59, 6, bw, catch, NA, 999, 999, 4, 9, 121, 74, 146, 169, 109, 146, 2, 0.82525
59, 6, bw, catch, NA, 999, 999, 4, 9, 121, 74, 146, 169, 109, 146, 1, 0.311014
59, 6, bw, attraction, a-b-db, 2, 2, 4, 10, 90, 165, 165, 90, 89, 163, 1, 0.952169
59, 6, bw, attraction, a-b-db, 2, 2, 4, 10, 90, 165, 165, 90, 89, 163, 2, 0.649283
59, 6, bw, attraction, a-b-da, 9, 1, 4, 11, 135, 60, 129, 57, 60, 135, 2, 0.812919
59, 6, bw, attraction, a-b-da, 9, 1, 4, 11, 135, 60, 129, 57, 60, 135, 1, 0.363302
59, 6, bw, attraction, a-b-da, 14, 2, 4, 12, 165, 90, 90, 165, 153, 83, 1, 1.1945
59, 6, bw, attraction, a-b-da, 14, 2, 4, 12, 165, 90, 90, 165, 153, 83, 2, 0.521441
59, 6, bw, attraction, a-b-db, 14, 2, 4, 13, 165, 90, 90, 165, 83, 153, 1, 0.546562
59, 6, bw, attraction, a-b-db, 14, 2, 4, 13, 165, 90, 90, 165, 83, 153, 3, 0.259669
59, 6, bw, catch, NA, 999, 999, 4, 14, 78, 117, 184, 131, 98, 157, 2, 0.470881
59, 6, bw, catch, NA, 999, 999, 4, 14, 78, 117, 184, 131, 98, 157, 1, 0.258746
59, 6, bw, attraction, a-b-db, 14, 3, 4, 15, 111, 181, 120, 195, 195, 120, 3, 0.677909
59, 6, bw, attraction, a-b-db, 14, 3, 4, 15, 111, 181, 120, 195, 195, 120, 2, 0.233684
59, 6, bw, attraction, a-b-db, 9, 1, 4, 16, 57, 129, 60, 135, 135, 60, 1, 0.782207
59, 6, bw, attraction, a-b-db, 9, 1, 4, 16, 57, 129, 60, 135, 135, 60, 3, 0.403979
59, 6, bw, attraction, a-b-db, 5, 3, 4, 17, 117, 190, 195, 120, 120, 195, 1, 0.49168
59, 6, bw, attraction, a-b-db, 5, 3, 4, 17, 117, 190, 195, 120, 120, 195, 2, 0.278855
59, 6, bw, attraction, a-b-da, 5, 2, 4, 18, 90, 165, 165, 90, 161, 88, 1, 0.505415
59, 6, bw, attraction, a-b-da, 5, 2, 4, 18, 90, 165, 165, 90, 161, 88, 3, 0.259941
59, 6, bw, attraction, a-b-db, 14, 1, 4, 19, 56, 125, 60, 135, 135, 60, 2, 0.415028
59, 6, bw, attraction, a-b-db, 14, 1, 4, 19, 56, 125, 60, 135, 135, 60, 3, 0.285548
59, 6, bw, filler, NA, 999, 999, 4, 20, 82, 115, 98, 187, 171, 104, 2, 1.16812
59, 6, bw, filler, NA, 999, 999, 4, 20, 82, 115, 98, 187, 171, 104, 1, 0.320474
59, 6, bw, catch, NA, 999, 999, 4, 21, 166, 149, 130, 125, 94, 101, 1, 0.713671
59, 6, bw, catch, NA, 999, 999, 4, 21, 166, 149, 130, 125, 94, 101, 3, 0.460004
59, 6, bw, attraction, a-b-da, 2, 1, 4, 22, 135, 60, 60, 135, 134, 59, 1, 0.567086
59, 6, bw, attraction, a-b-da, 2, 1, 4, 22, 135, 60, 60, 135, 134, 59, 3, 0.263767
59, 6, bw, attraction, a-b-db, 5, 2, 4, 23, 165, 90, 90, 165, 88, 161, 2, 0.482784
59, 6, bw, attraction, a-b-db, 5, 2, 4, 23, 165, 90, 90, 165, 88, 161, 3, 0.262681
59, 6, bw, filler, NA, 999, 999, 4, 24, 141, 160, 88, 178, 176, 134, 1, 0.473869
59, 6, bw, filler, NA, 999, 999, 4, 24, 141, 160, 88, 178, 176, 134, 3, 0.493612
59, 6, bw, filler, NA, 999, 999, 4, 25, 124, 161, 93, 163, 135, 176, 1, 0.671383
59, 6, bw, filler, NA, 999, 999, 4, 25, 124, 161, 93, 163, 135, 176, 2, 0.211123
59, 6, bw, filler, NA, 999, 999, 4, 26, 81, 141, 132, 184, 128, 79, 2, 0.520371
59, 6, bw, filler, NA, 999, 999, 4, 26, 81, 141, 132, 184, 128, 79, 1, 0.458101
59, 6, bw, attraction, a-b-da, 9, 3, 4, 27, 195, 120, 186, 114, 120, 195, 1, 0.765347
59, 6, bw, attraction, a-b-da, 9, 3, 4, 27, 195, 120, 186, 114, 120, 195, 2, 0.245752
59, 6, bw, attraction, a-b-da, 9, 2, 4, 28, 90, 165, 165, 90, 157, 86, 1, 0.521564
59, 6, bw, attraction, a-b-da, 9, 2, 4, 28, 90, 165, 165, 90, 157, 86, 3, 0.211401
59, 6, bw, filler, NA, 999, 999, 4, 29, 110, 128, 136, 119, 175, 187, 3, 1.02453
59, 6, bw, filler, NA, 999, 999, 4, 29, 110, 128, 136, 119, 175, 187, 2, 0.238178
59, 6, bw, filler, NA, 999, 999, 4, 30, 163, 140, 189, 96, 80, 177, 1, 0.658779
59, 6, bw, filler, NA, 999, 999, 4, 30, 163, 140, 189, 96, 80, 177, 3, 0.239289
59, 6, bw, attraction, a-b-db, 9, 2, 4, 31, 86, 157, 165, 90, 90, 165, 3, 1.26774
59, 6, bw, attraction, a-b-db, 9, 2, 4, 31, 86, 157, 165, 90, 90, 165, 2, 0.528082
59, 6, bw, attraction, a-b-da, 2, 3, 4, 32, 120, 195, 195, 120, 193, 119, 1, 0.52039
59, 6, bw, attraction, a-b-da, 2, 3, 4, 32, 120, 195, 195, 120, 193, 119, 3, 0.27421
59, 6, bw, attraction, a-b-db, 5, 1, 4, 33, 135, 60, 60, 135, 58, 132, 1, 0.836756
59, 6, bw, attraction, a-b-db, 5, 1, 4, 33, 135, 60, 60, 135, 58, 132, 3, 0.265806
59, 6, bw, attraction, a-b-da, 2, 2, 4, 34, 163, 89, 165, 90, 90, 165, 3, 0.508951
59, 6, bw, attraction, a-b-da, 2, 2, 4, 34, 163, 89, 165, 90, 90, 165, 2, 0.231565
59, 6, bw, attraction, a-b-da, 5, 1, 4, 35, 135, 60, 60, 135, 132, 58, 1, 0.540086
59, 6, bw, attraction, a-b-da, 5, 1, 4, 35, 135, 60, 60, 135, 132, 58, 3, 0.893193
59, 6, bw, attraction, a-b-db, 2, 3, 4, 36, 120, 195, 119, 193, 195, 120, 3, 0.766753
59, 6, bw, attraction, a-b-db, 2, 3, 4, 36, 120, 195, 119, 193, 195, 120, 1, 0.367237
59, 6, bw, attraction, a-b-da, 5, 3, 4, 37, 195, 120, 190, 117, 120, 195, 2, 0.590522
59, 6, bw, attraction, a-b-da, 5, 3, 4, 37, 195, 120, 190, 117, 120, 195, 3, 0.253668
59, 6, bw, attraction, a-b-da, 2, 1, 5, 1, 134, 59, 60, 135, 135, 60, 2, 2.48741
59, 6, bw, attraction, a-b-da, 2, 1, 5, 1, 134, 59, 60, 135, 135, 60, 1, 1.57049
59, 6, bw, attraction, a-b-da, 5, 3, 5, 2, 120, 195, 195, 120, 190, 117, 1, 1.40925
59, 6, bw, attraction, a-b-da, 5, 3, 5, 2, 120, 195, 195, 120, 190, 117, 3, 0.511459
59, 6, bw, attraction, a-b-db, 14, 3, 5, 3, 111, 181, 195, 120, 120, 195, 1, 0.488547
59, 6, bw, attraction, a-b-db, 14, 3, 5, 3, 111, 181, 195, 120, 120, 195, 2, 0.507702
59, 6, bw, attraction, a-b-da, 9, 3, 5, 4, 120, 195, 195, 120, 186, 114, 1, 0.708876
59, 6, bw, attraction, a-b-da, 9, 3, 5, 4, 120, 195, 195, 120, 186, 114, 3, 0.399272
59, 6, bw, attraction, a-b-db, 14, 1, 5, 5, 56, 125, 135, 60, 60, 135, 3, 0.765055
59, 6, bw, attraction, a-b-db, 14, 1, 5, 5, 56, 125, 135, 60, 60, 135, 2, 0.205501
59, 6, bw, filler, NA, 999, 999, 5, 6, 80, 100, 160, 137, 151, 121, 2, 0.627388
59, 6, bw, filler, NA, 999, 999, 5, 6, 80, 100, 160, 137, 151, 121, 1, 0.601157
59, 6, bw, catch, NA, 999, 999, 5, 7, 69, 126, 106, 149, 180, 135, 3, 0.590872
59, 6, bw, catch, NA, 999, 999, 5, 7, 69, 126, 106, 149, 180, 135, 1, 0.23013
59, 6, bw, attraction, a-b-da, 9, 1, 5, 8, 135, 60, 129, 57, 60, 135, 3, 0.986522
59, 6, bw, attraction, a-b-da, 9, 1, 5, 8, 135, 60, 129, 57, 60, 135, 2, 0.386214
59, 6, bw, filler, NA, 999, 999, 5, 9, 139, 105, 88, 61, 85, 145, 1, 0.480689
59, 6, bw, filler, NA, 999, 999, 5, 9, 139, 105, 88, 61, 85, 145, 2, 0.516511
59, 6, bw, filler, NA, 999, 999, 5, 10, 155, 56, 131, 61, 120, 155, 3, 0.405569
59, 6, bw, filler, NA, 999, 999, 5, 10, 155, 56, 131, 61, 120, 155, 2, 0.420115
59, 6, bw, attraction, a-b-da, 14, 2, 5, 11, 90, 165, 165, 90, 153, 83, 1, 0.601294
59, 6, bw, attraction, a-b-da, 14, 2, 5, 11, 90, 165, 165, 90, 153, 83, 3, 0.360426
59, 6, bw, filler, NA, 999, 999, 5, 12, 92, 99, 166, 145, 95, 96, 2, 0.519527
59, 6, bw, filler, NA, 999, 999, 5, 12, 92, 99, 166, 145, 95, 96, 3, 0.354027
59, 6, bw, filler, NA, 999, 999, 5, 13, 125, 193, 76, 195, 194, 122, 3, 0.689831
59, 6, bw, filler, NA, 999, 999, 5, 13, 125, 193, 76, 195, 194, 122, 2, 0.556941
59, 6, bw, catch, NA, 999, 999, 5, 14, 95, 100, 132, 123, 145, 170, 2, 0.64404
59, 6, bw, catch, NA, 999, 999, 5, 14, 95, 100, 132, 123, 145, 170, 1, 0.305217
59, 6, bw, attraction, a-b-db, 2, 3, 5, 15, 119, 193, 120, 195, 195, 120, 2, 0.931045
59, 6, bw, attraction, a-b-db, 2, 3, 5, 15, 119, 193, 120, 195, 195, 120, 3, 0.284701
59, 6, bw, attraction, a-b-db, 9, 1, 5, 16, 60, 135, 57, 129, 135, 60, 1, 0.631183
59, 6, bw, attraction, a-b-db, 9, 1, 5, 16, 60, 135, 57, 129, 135, 60, 3, 0.517025
59, 6, bw, attraction, a-b-da, 5, 2, 5, 17, 165, 90, 90, 165, 161, 88, 1, 0.518136
59, 6, bw, attraction, a-b-da, 5, 2, 5, 17, 165, 90, 90, 165, 161, 88, 2, 0.272588
59, 6, bw, attraction, a-b-da, 2, 2, 5, 18, 90, 165, 163, 89, 165, 90, 1, 0.443161
59, 6, bw, attraction, a-b-da, 2, 2, 5, 18, 90, 165, 163, 89, 165, 90, 3, 0.224275
59, 6, bw, attraction, a-b-da, 5, 1, 5, 19, 132, 58, 135, 60, 60, 135, 1, 0.436967
59, 6, bw, attraction, a-b-da, 5, 1, 5, 19, 132, 58, 135, 60, 60, 135, 3, 0.226017
59, 6, bw, filler, NA, 999, 999, 5, 20, 184, 108, 145, 136, 73, 110, 2, 0.462488
59, 6, bw, filler, NA, 999, 999, 5, 20, 184, 108, 145, 136, 73, 110, 3, 0.251127
59, 6, bw, attraction, a-b-db, 5, 2, 5, 21, 88, 161, 90, 165, 165, 90, 3, 0.662972
59, 6, bw, attraction, a-b-db, 5, 2, 5, 21, 88, 161, 90, 165, 165, 90, 2, 0.411422
59, 6, bw, attraction, a-b-db, 2, 2, 5, 22, 165, 90, 89, 163, 90, 165, 1, 0.632521
59, 6, bw, attraction, a-b-db, 2, 2, 5, 22, 165, 90, 89, 163, 90, 165, 2, 0.20627
59, 6, bw, attraction, a-b-da, 14, 1, 5, 23, 60, 135, 135, 60, 125, 56, 3, 0.899535
59, 6, bw, attraction, a-b-da, 14, 1, 5, 23, 60, 135, 135, 60, 125, 56, 1, 0.862508
59, 6, bw, attraction, a-b-db, 5, 1, 5, 24, 135, 60, 60, 135, 58, 132, 1, 0.633492
59, 6, bw, attraction, a-b-db, 5, 1, 5, 24, 135, 60, 60, 135, 58, 132, 2, 0.231305
59, 6, bw, attraction, a-b-db, 9, 3, 5, 25, 120, 195, 114, 186, 195, 120, 1, 0.427785
59, 6, bw, attraction, a-b-db, 9, 3, 5, 25, 120, 195, 114, 186, 195, 120, 3, 0.57764
59, 6, bw, catch, NA, 999, 999, 5, 26, 172, 143, 94, 161, 131, 64, 1, 0.40801
59, 6, bw, catch, NA, 999, 999, 5, 26, 172, 143, 94, 161, 131, 64, 3, 0.238699
59, 6, bw, attraction, a-b-db, 5, 3, 5, 27, 117, 190, 195, 120, 120, 195, 1, 0.4351
59, 6, bw, attraction, a-b-db, 5, 3, 5, 27, 117, 190, 195, 120, 120, 195, 3, 0.240971
59, 6, bw, attraction, a-b-da, 2, 3, 5, 28, 193, 119, 195, 120, 120, 195, 1, 0.340811
59, 6, bw, attraction, a-b-da, 2, 3, 5, 28, 193, 119, 195, 120, 120, 195, 2, 0.870091
59, 6, bw, attraction, a-b-db, 9, 2, 5, 29, 90, 165, 165, 90, 86, 157, 2, 0.913008
59, 6, bw, attraction, a-b-db, 9, 2, 5, 29, 90, 165, 165, 90, 86, 157, 3, 0.25141
59, 6, bw, attraction, a-b-db, 14, 2, 5, 30, 83, 153, 165, 90, 90, 165, 1, 0.383264
59, 6, bw, attraction, a-b-db, 14, 2, 5, 30, 83, 153, 165, 90, 90, 165, 3, 0.231133
59, 6, bw, attraction, a-b-da, 14, 3, 5, 31, 195, 120, 120, 195, 181, 111, 2, 0.691726
59, 6, bw, attraction, a-b-da, 14, 3, 5, 31, 195, 120, 120, 195, 181, 111, 3, 0.598763
59, 6, bw, filler, NA, 999, 999, 5, 32, 164, 141, 113, 108, 185, 117, 1, 1.50851
59, 6, bw, filler, NA, 999, 999, 5, 32, 164, 141, 113, 108, 185, 117, 2, 0.53468
59, 6, bw, filler, NA, 999, 999, 5, 33, 128, 69, 77, 112, 69, 124, 3, 1.09504
59, 6, bw, filler, NA, 999, 999, 5, 33, 128, 69, 77, 112, 69, 124, 2, 1.49807
59, 6, bw, attraction, a-b-da, 9, 2, 5, 34, 90, 165, 165, 90, 157, 86, 2, 0.675488
59, 6, bw, attraction, a-b-da, 9, 2, 5, 34, 90, 165, 165, 90, 157, 86, 3, 0.311244
59, 6, bw, attraction, a-b-db, 2, 1, 5, 35, 60, 135, 59, 134, 135, 60, 1, 0.600418
59, 6, bw, attraction, a-b-db, 2, 1, 5, 35, 60, 135, 59, 134, 135, 60, 3, 0.295568
59, 6, bw, filler, NA, 999, 999, 5, 36, 191, 106, 127, 186, 121, 138, 2, 0.777427
59, 6, bw, filler, NA, 999, 999, 5, 36, 191, 106, 127, 186, 121, 138, 3, 0.521135
59, 6, bw, filler, NA, 999, 999, 5, 37, 97, 69, 155, 129, 96, 61, 2, 0.570265
59, 6, bw, filler, NA, 999, 999, 5, 37, 97, 69, 155, 129, 96, 61, 3, 0.890737
59, 6, bw, attraction, a-b-da, 9, 2, 6, 1, 157, 86, 165, 90, 90, 165, 3, 0.572406
59, 6, bw, attraction, a-b-da, 9, 2, 6, 1, 157, 86, 165, 90, 90, 165, 2, 0.372241
59, 6, bw, filler, NA, 999, 999, 6, 2, 182, 189, 143, 122, 167, 143, 1, 0.987312
59, 6, bw, filler, NA, 999, 999, 6, 2, 182, 189, 143, 122, 167, 143, 2, 0.258531
59, 6, bw, attraction, a-b-da, 2, 2, 6, 3, 90, 165, 165, 90, 163, 89, 1, 0.621651
59, 6, bw, attraction, a-b-da, 2, 2, 6, 3, 90, 165, 165, 90, 163, 89, 3, 0.29134
59, 6, bw, filler, NA, 999, 999, 6, 4, 66, 125, 68, 133, 77, 73, 2, 0.54916
59, 6, bw, filler, NA, 999, 999, 6, 4, 66, 125, 68, 133, 77, 73, 3, 0.454342
59, 6, bw, attraction, a-b-da, 2, 3, 6, 5, 195, 120, 193, 119, 120, 195, 2, 0.546222
59, 6, bw, attraction, a-b-da, 2, 3, 6, 5, 195, 120, 193, 119, 120, 195, 3, 0.299344
59, 6, bw, attraction, a-b-db, 2, 3, 6, 6, 120, 195, 195, 120, 119, 193, 2, 0.565096
59, 6, bw, attraction, a-b-db, 2, 3, 6, 6, 120, 195, 195, 120, 119, 193, 1, 0.32544
59, 6, bw, filler, NA, 999, 999, 6, 7, 178, 176, 139, 116, 64, 101, 1, 0.51011
59, 6, bw, filler, NA, 999, 999, 6, 7, 178, 176, 139, 116, 64, 101, 3, 0.54452
59, 6, bw, attraction, a-b-da, 14, 1, 6, 8, 60, 135, 135, 60, 125, 56, 1, 0.520284
59, 6, bw, attraction, a-b-da, 14, 1, 6, 8, 60, 135, 135, 60, 125, 56, 3, 0.570734
59, 6, bw, attraction, a-b-da, 5, 2, 6, 9, 161, 88, 165, 90, 90, 165, 3, 0.537881
59, 6, bw, attraction, a-b-da, 5, 2, 6, 9, 161, 88, 165, 90, 90, 165, 2, 0.330979
59, 6, bw, attraction, a-b-da, 5, 1, 6, 10, 60, 135, 135, 60, 132, 58, 1, 0.467596
59, 6, bw, attraction, a-b-da, 5, 1, 6, 10, 60, 135, 135, 60, 132, 58, 3, 0.256003
59, 6, bw, catch, NA, 999, 999, 6, 11, 67, 128, 146, 169, 159, 96, 2, 0.643296
59, 6, bw, catch, NA, 999, 999, 6, 11, 67, 128, 146, 169, 159, 96, 1, 0.232286
59, 6, bw, attraction, a-b-db, 5, 3, 6, 12, 120, 195, 117, 190, 195, 120, 1, 0.972896
59, 6, bw, attraction, a-b-db, 5, 3, 6, 12, 120, 195, 117, 190, 195, 120, 2, 0.172596
59, 6, bw, attraction, a-b-db, 14, 3, 6, 13, 120, 195, 195, 120, 111, 181, 1, 0.483122
59, 6, bw, attraction, a-b-db, 14, 3, 6, 13, 120, 195, 195, 120, 111, 181, 2, 0.590965
59, 6, bw, filler, NA, 999, 999, 6, 14, 109, 117, 98, 109, 157, 173, 3, 0.508628
59, 6, bw, filler, NA, 999, 999, 6, 14, 109, 117, 98, 109, 157, 173, 2, 0.399168
59, 6, bw, attraction, a-b-db, 9, 3, 6, 15, 195, 120, 114, 186, 120, 195, 1, 0.525031
59, 6, bw, attraction, a-b-db, 9, 3, 6, 15, 195, 120, 114, 186, 120, 195, 3, 0.326753
59, 6, bw, filler, NA, 999, 999, 6, 16, 103, 99, 79, 154, 170, 174, 3, 0.615257
59, 6, bw, filler, NA, 999, 999, 6, 16, 103, 99, 79, 154, 170, 174, 1, 0.933652
59, 6, bw, attraction, a-b-db, 5, 1, 6, 17, 60, 135, 58, 132, 135, 60, 1, 0.686117
59, 6, bw, attraction, a-b-db, 5, 1, 6, 17, 60, 135, 58, 132, 135, 60, 3, 0.361829
59, 6, bw, attraction, a-b-da, 9, 3, 6, 18, 120, 195, 195, 120, 186, 114, 1, 0.425004
59, 6, bw, attraction, a-b-da, 9, 3, 6, 18, 120, 195, 195, 120, 186, 114, 3, 0.2549
59, 6, bw, attraction, a-b-db, 2, 2, 6, 19, 165, 90, 90, 165, 89, 163, 3, 0.610662
59, 6, bw, attraction, a-b-db, 2, 2, 6, 19, 165, 90, 90, 165, 89, 163, 1, 0.577096
59, 6, bw, filler, NA, 999, 999, 6, 20, 103, 120, 99, 79, 190, 67, 2, 0.919476
59, 6, bw, filler, NA, 999, 999, 6, 20, 103, 120, 99, 79, 190, 67, 3, 0.969926
59, 6, bw, attraction, a-b-da, 5, 3, 6, 21, 195, 120, 190, 117, 120, 195, 1, 0.832836
59, 6, bw, attraction, a-b-da, 5, 3, 6, 21, 195, 120, 190, 117, 120, 195, 2, 0.206531
59, 6, bw, attraction, a-b-da, 9, 1, 6, 22, 60, 135, 129, 57, 135, 60, 1, 0.379787
59, 6, bw, attraction, a-b-da, 9, 1, 6, 22, 60, 135, 129, 57, 135, 60, 3, 0.227618
59, 6, bw, catch, NA, 999, 999, 6, 23, 129, 126, 168, 147, 70, 125, 1, 0.272109
59, 6, bw, catch, NA, 999, 999, 6, 23, 129, 126, 168, 147, 70, 125, 3, 0.492046
59, 6, bw, attraction, a-b-da, 14, 3, 6, 24, 195, 120, 181, 111, 120, 195, 1, 0.309817
59, 6, bw, attraction, a-b-da, 14, 3, 6, 24, 195, 120, 181, 111, 120, 195, 3, 0.264366
59, 6, bw, attraction, a-b-db, 14, 1, 6, 25, 56, 125, 135, 60, 60, 135, 2, 0.987566
59, 6, bw, attraction, a-b-db, 14, 1, 6, 25, 56, 125, 135, 60, 60, 135, 3, 0.578562
59, 6, bw, catch, NA, 999, 999, 6, 26, 134, 61, 126, 129, 180, 135, 3, 1.03291
59, 6, bw, catch, NA, 999, 999, 6, 26, 134, 61, 126, 129, 180, 135, 1, 0.502639
59, 6, bw, filler, NA, 999, 999, 6, 27, 91, 175, 116, 162, 159, 178, 3, 0.496509
59, 6, bw, filler, NA, 999, 999, 6, 27, 91, 175, 116, 162, 159, 178, 1, 0.307515
59, 6, bw, filler, NA, 999, 999, 6, 28, 100, 69, 150, 194, 61, 134, 2, 0.404691
59, 6, bw, filler, NA, 999, 999, 6, 28, 100, 69, 150, 194, 61, 134, 1, 0.403262
59, 6, bw, attraction, a-b-db, 9, 2, 6, 29, 90, 165, 86, 157, 165, 90, 1, 0.625109
59, 6, bw, attraction, a-b-db, 9, 2, 6, 29, 90, 165, 86, 157, 165, 90, 3, 0.326853
59, 6, bw, attraction, a-b-db, 2, 1, 6, 30, 59, 134, 60, 135, 135, 60, 1, 0.431374
59, 6, bw, attraction, a-b-db, 2, 1, 6, 30, 59, 134, 60, 135, 135, 60, 3, 0.285234
59, 6, bw, attraction, a-b-da, 2, 1, 6, 31, 135, 60, 60, 135, 134, 59, 1, 0.567821
59, 6, bw, attraction, a-b-da, 2, 1, 6, 31, 135, 60, 60, 135, 134, 59, 3, 0.232225
59, 6, bw, filler, NA, 999, 999, 6, 32, 123, 178, 125, 71, 113, 101, 1, 0.436712
59, 6, bw, filler, NA, 999, 999, 6, 32, 123, 178, 125, 71, 113, 101, 3, 0.266606
59, 6, bw, attraction, a-b-db, 5, 2, 6, 33, 88, 161, 90, 165, 165, 90, 2, 0.653772
59, 6, bw, attraction, a-b-db, 5, 2, 6, 33, 88, 161, 90, 165, 165, 90, 1, 0.330995
59, 6, bw, attraction, a-b-db, 14, 2, 6, 34, 90, 165, 165, 90, 83, 153, 2, 0.475451
59, 6, bw, attraction, a-b-db, 14, 2, 6, 34, 90, 165, 165, 90, 83, 153, 3, 0.295208
59, 6, bw, filler, NA, 999, 999, 6, 35, 137, 106, 131, 146, 183, 119, 2, 0.489034
59, 6, bw, filler, NA, 999, 999, 6, 35, 137, 106, 131, 146, 183, 119, 1, 0.284166
59, 6, bw, attraction, a-b-db, 9, 1, 6, 36, 135, 60, 57, 129, 60, 135, 3, 1.22267
59, 6, bw, attraction, a-b-db, 9, 1, 6, 36, 135, 60, 57, 129, 60, 135, 2, 0.284275
59, 6, bw, attraction, a-b-da, 14, 2, 6, 37, 90, 165, 153, 83, 165, 90, 1, 0.470773
59, 6, bw, attraction, a-b-da, 14, 2, 6, 37, 90, 165, 153, 83, 165, 90, 3, 0.530599
59, 6, bw, attraction, a-b-da, 2, 2, 7, 1, 163, 89, 165, 90, 90, 165, 3, 0.587071
59, 6, bw, attraction, a-b-da, 2, 2, 7, 1, 163, 89, 165, 90, 90, 165, 2, 0.226171
59, 6, bw, attraction, a-b-da, 9, 2, 7, 2, 90, 165, 157, 86, 165, 90, 1, 0.414767
59, 6, bw, attraction, a-b-da, 9, 2, 7, 2, 90, 165, 157, 86, 165, 90, 3, 0.229241
59, 6, bw, attraction, a-b-db, 9, 3, 7, 3, 195, 120, 114, 186, 120, 195, 3, 1.95386
59, 6, bw, attraction, a-b-db, 9, 3, 7, 3, 195, 120, 114, 186, 120, 195, 2, 0.985857
59, 6, bw, catch, NA, 999, 999, 7, 4, 152, 103, 104, 91, 179, 136, 3, 0.7681
59, 6, bw, catch, NA, 999, 999, 7, 4, 152, 103, 104, 91, 179, 136, 2, 0.480482
59, 6, bw, attraction, a-b-db, 2, 2, 7, 5, 90, 165, 89, 163, 165, 90, 1, 0.547008
59, 6, bw, attraction, a-b-db, 2, 2, 7, 5, 90, 165, 89, 163, 165, 90, 3, 0.58011
59, 6, bw, attraction, a-b-db, 5, 3, 7, 6, 120, 195, 195, 120, 117, 190, 2, 0.506601
59, 6, bw, attraction, a-b-db, 5, 3, 7, 6, 120, 195, 195, 120, 117, 190, 3, 0.261069
59, 6, bw, attraction, a-b-db, 2, 3, 7, 7, 119, 193, 120, 195, 195, 120, 1, 0.456174
59, 6, bw, attraction, a-b-db, 2, 3, 7, 7, 119, 193, 120, 195, 195, 120, 3, 0.236854
59, 6, bw, filler, NA, 999, 999, 7, 8, 61, 56, 167, 114, 134, 66, 2, 0.465306
59, 6, bw, filler, NA, 999, 999, 7, 8, 61, 56, 167, 114, 134, 66, 1, 0.557689
59, 6, bw, attraction, a-b-da, 5, 2, 7, 9, 161, 88, 165, 90, 90, 165, 3, 0.412842
59, 6, bw, attraction, a-b-da, 5, 2, 7, 9, 161, 88, 165, 90, 90, 165, 2, 0.243358
59, 6, bw, catch, NA, 999, 999, 7, 10, 94, 161, 150, 165, 106, 89, 2, 0.455198
59, 6, bw, catch, NA, 999, 999, 7, 10, 94, 161, 150, 165, 106, 89, 3, 0.451781
59, 6, bw, filler, NA, 999, 999, 7, 11, 179, 85, 73, 136, 136, 102, 1, 0.503593
59, 6, bw, filler, NA, 999, 999, 7, 11, 179, 85, 73, 136, 136, 102, 3, 0.274644
59, 6, bw, filler, NA, 999, 999, 7, 12, 182, 161, 116, 149, 173, 104, 1, 0.381264
59, 6, bw, filler, NA, 999, 999, 7, 12, 182, 161, 116, 149, 173, 104, 2, 0.685033
59, 6, bw, attraction, a-b-da, 2, 1, 7, 13, 135, 60, 134, 59, 60, 135, 3, 0.599422
59, 6, bw, attraction, a-b-da, 2, 1, 7, 13, 135, 60, 134, 59, 60, 135, 2, 0.270525
59, 6, bw, filler, NA, 999, 999, 7, 14, 167, 72, 169, 84, 135, 184, 3, 0.465756
59, 6, bw, filler, NA, 999, 999, 7, 14, 167, 72, 169, 84, 135, 184, 1, 0.62223
59, 6, bw, attraction, a-b-db, 14, 2, 7, 15, 83, 153, 90, 165, 165, 90, 2, 1.35536
59, 6, bw, attraction, a-b-db, 14, 2, 7, 15, 83, 153, 90, 165, 165, 90, 3, 3.00355
59, 6, bw, filler, NA, 999, 999, 7, 16, 134, 59, 82, 143, 192, 164, 3, 0.520513
59, 6, bw, filler, NA, 999, 999, 7, 16, 134, 59, 82, 143, 192, 164, 1, 0.386645
59, 6, bw, filler, NA, 999, 999, 7, 17, 168, 66, 142, 87, 62, 108, 2, 0.776812
59, 6, bw, filler, NA, 999, 999, 7, 17, 168, 66, 142, 87, 62, 108, 3, 0.464604
59, 6, bw, attraction, a-b-db, 9, 2, 7, 18, 165, 90, 90, 165, 86, 157, 2, 0.923636
59, 6, bw, attraction, a-b-db, 9, 2, 7, 18, 165, 90, 90, 165, 86, 157, 3, 0.685402
59, 6, bw, filler, NA, 999, 999, 7, 19, 113, 173, 117, 174, 92, 112, 1, 0.807887
59, 6, bw, filler, NA, 999, 999, 7, 19, 113, 173, 117, 174, 92, 112, 3, 0.526235
59, 6, bw, filler, NA, 999, 999, 7, 20, 62, 118, 89, 186, 112, 195, 3, 0.774755
59, 6, bw, filler, NA, 999, 999, 7, 20, 62, 118, 89, 186, 112, 195, 1, 0.337924
59, 6, bw, attraction, a-b-da, 9, 3, 7, 21, 120, 195, 186, 114, 195, 120, 1, 0.70284
59, 6, bw, attraction, a-b-da, 9, 3, 7, 21, 120, 195, 186, 114, 195, 120, 3, 0.282066
59, 6, bw, attraction, a-b-da, 2, 3, 7, 22, 193, 119, 195, 120, 120, 195, 3, 0.476627
59, 6, bw, attraction, a-b-da, 2, 3, 7, 22, 193, 119, 195, 120, 120, 195, 1, 0.272377
59, 6, bw, attraction, a-b-db, 5, 2, 7, 23, 165, 90, 90, 165, 88, 161, 2, 0.347477
59, 6, bw, attraction, a-b-db, 5, 2, 7, 23, 165, 90, 90, 165, 88, 161, 1, 0.500732
59, 6, bw, attraction, a-b-da, 14, 3, 7, 24, 195, 120, 181, 111, 120, 195, 2, 0.534418
59, 6, bw, attraction, a-b-da, 14, 3, 7, 24, 195, 120, 181, 111, 120, 195, 3, 0.248248
59, 6, bw, attraction, a-b-db, 2, 1, 7, 25, 59, 134, 60, 135, 135, 60, 1, 0.372181
59, 6, bw, attraction, a-b-db, 2, 1, 7, 25, 59, 134, 60, 135, 135, 60, 3, 0.260045
59, 6, bw, attraction, a-b-da, 14, 1, 7, 26, 135, 60, 125, 56, 60, 135, 3, 0.5191
59, 6, bw, attraction, a-b-da, 14, 1, 7, 26, 135, 60, 125, 56, 60, 135, 2, 0.585663
59, 6, bw, attraction, a-b-db, 5, 1, 7, 27, 58, 132, 135, 60, 60, 135, 3, 0.816077
59, 6, bw, attraction, a-b-db, 5, 1, 7, 27, 58, 132, 135, 60, 60, 135, 2, 0.222582
59, 6, bw, attraction, a-b-db, 14, 3, 7, 28, 120, 195, 111, 181, 195, 120, 3, 0.659192
59, 6, bw, attraction, a-b-db, 14, 3, 7, 28, 120, 195, 111, 181, 195, 120, 2, 0.783538
59, 6, bw, filler, NA, 999, 999, 7, 29, 175, 128, 58, 100, 194, 191, 3, 0.573792
59, 6, bw, filler, NA, 999, 999, 7, 29, 175, 128, 58, 100, 194, 191, 2, 0.277586
59, 6, bw, attraction, a-b-db, 9, 1, 7, 30, 60, 135, 57, 129, 135, 60, 1, 0.672064
59, 6, bw, attraction, a-b-db, 9, 1, 7, 30, 60, 135, 57, 129, 135, 60, 3, 0.24395
59, 6, bw, filler, NA, 999, 999, 7, 31, 67, 165, 87, 139, 57, 117, 2, 0.535678
59, 6, bw, filler, NA, 999, 999, 7, 31, 67, 165, 87, 139, 57, 117, 3, 0.801635
59, 6, bw, attraction, a-b-da, 5, 1, 7, 32, 132, 58, 135, 60, 60, 135, 3, 0.727208
59, 6, bw, attraction, a-b-da, 5, 1, 7, 32, 132, 58, 135, 60, 60, 135, 2, 0.240922
59, 6, bw, attraction, a-b-da, 14, 2, 7, 33, 165, 90, 90, 165, 153, 83, 2, 0.492898
59, 6, bw, attraction, a-b-da, 14, 2, 7, 33, 165, 90, 90, 165, 153, 83, 1, 0.64001
59, 6, bw, attraction, a-b-db, 14, 1, 7, 34, 60, 135, 135, 60, 56, 125, 1, 0.755738
59, 6, bw, attraction, a-b-db, 14, 1, 7, 34, 60, 135, 135, 60, 56, 125, 2, 0.516266
59, 6, bw, catch, NA, 999, 999, 7, 35, 103, 152, 157, 158, 104, 91, 2, 0.493202
59, 6, bw, catch, NA, 999, 999, 7, 35, 103, 152, 157, 158, 104, 91, 3, 0.272404
59, 6, bw, attraction, a-b-da, 5, 3, 7, 36, 195, 120, 190, 117, 120, 195, 3, 1.4436
59, 6, bw, attraction, a-b-da, 5, 3, 7, 36, 195, 120, 190, 117, 120, 195, 2, 0.232474
59, 6, bw, attraction, a-b-da, 9, 1, 7, 37, 135, 60, 60, 135, 129, 57, 1, 3.84499
59, 6, bw, attraction, a-b-da, 9, 1, 7, 37, 135, 60, 60, 135, 129, 57, 2, 0.521102
59, 6, bw, filler, NA, 999, 999, 8, 1, 149, 174, 103, 177, 171, 155, 3, 0.754141
59, 6, bw, filler, NA, 999, 999, 8, 1, 149, 174, 103, 177, 171, 155, 2, 0.250582
59, 6, bw, attraction, a-b-db, 9, 1, 8, 2, 57, 129, 135, 60, 60, 135, 1, 1.27837
59, 6, bw, attraction, a-b-db, 9, 1, 8, 2, 57, 129, 135, 60, 60, 135, 2, 0.225984
59, 6, bw, attraction, a-b-da, 14, 2, 8, 3, 90, 165, 165, 90, 153, 83, 2, 0.670563
59, 6, bw, attraction, a-b-da, 14, 2, 8, 3, 90, 165, 165, 90, 153, 83, 3, 0.298293
59, 6, bw, filler, NA, 999, 999, 8, 4, 165, 72, 160, 109, 67, 119, 2, 0.524155
59, 6, bw, filler, NA, 999, 999, 8, 4, 165, 72, 160, 109, 67, 119, 3, 0.421996
59, 6, bw, attraction, a-b-da, 9, 3, 8, 5, 120, 195, 195, 120, 186, 114, 1, 1.22711
59, 6, bw, attraction, a-b-da, 9, 3, 8, 5, 120, 195, 195, 120, 186, 114, 3, 0.272678
59, 6, bw, attraction, a-b-db, 2, 2, 8, 6, 165, 90, 90, 165, 89, 163, 3, 1.18728
59, 6, bw, attraction, a-b-db, 2, 2, 8, 6, 165, 90, 90, 165, 89, 163, 2, 0.290144
59, 6, bw, catch, NA, 999, 999, 8, 7, 125, 70, 191, 124, 157, 98, 2, 0.836043
59, 6, bw, catch, NA, 999, 999, 8, 7, 125, 70, 191, 124, 157, 98, 3, 0.305826
59, 6, bw, attraction, a-b-da, 5, 3, 8, 8, 190, 117, 195, 120, 120, 195, 3, 0.755695
59, 6, bw, attraction, a-b-da, 5, 3, 8, 8, 190, 117, 195, 120, 120, 195, 2, 0.380027
59, 6, bw, attraction, a-b-da, 2, 3, 8, 9, 193, 119, 195, 120, 120, 195, 3, 1.77048
59, 6, bw, attraction, a-b-da, 2, 3, 8, 9, 193, 119, 195, 120, 120, 195, 2, 0.482568
59, 6, bw, attraction, a-b-db, 2, 1, 8, 10, 59, 134, 135, 60, 60, 135, 2, 0.88505
59, 6, bw, attraction, a-b-db, 2, 1, 8, 10, 59, 134, 135, 60, 60, 135, 3, 0.504809
59, 6, bw, attraction, a-b-db, 14, 1, 8, 11, 56, 125, 60, 135, 135, 60, 3, 0.810507
59, 6, bw, attraction, a-b-db, 14, 1, 8, 11, 56, 125, 60, 135, 135, 60, 2, 0.451401
59, 6, bw, filler, NA, 999, 999, 8, 12, 76, 63, 127, 124, 90, 65, 2, 0.500682
59, 6, bw, filler, NA, 999, 999, 8, 12, 76, 63, 127, 124, 90, 65, 1, 0.407845
59, 6, bw, attraction, a-b-da, 9, 2, 8, 13, 157, 86, 165, 90, 90, 165, 1, 0.66095
59, 6, bw, attraction, a-b-da, 9, 2, 8, 13, 157, 86, 165, 90, 90, 165, 2, 0.273369
59, 6, bw, attraction, a-b-da, 5, 2, 8, 14, 90, 165, 165, 90, 161, 88, 1, 0.476052
59, 6, bw, attraction, a-b-da, 5, 2, 8, 14, 90, 165, 165, 90, 161, 88, 3, 0.311819
59, 6, bw, filler, NA, 999, 999, 8, 15, 58, 192, 73, 99, 74, 120, 1, 1.1689
59, 6, bw, filler, NA, 999, 999, 8, 15, 58, 192, 73, 99, 74, 120, 2, 0.233168
59, 6, bw, attraction, a-b-da, 2, 2, 8, 16, 90, 165, 165, 90, 163, 89, 1, 0.757694
59, 6, bw, attraction, a-b-da, 2, 2, 8, 16, 90, 165, 165, 90, 163, 89, 3, 0.478142
59, 6, bw, attraction, a-b-db, 9, 3, 8, 17, 114, 186, 120, 195, 195, 120, 2, 0.704547
59, 6, bw, attraction, a-b-db, 9, 3, 8, 17, 114, 186, 120, 195, 195, 120, 3, 0.370997
59, 6, bw, attraction, a-b-db, 14, 3, 8, 18, 195, 120, 111, 181, 120, 195, 3, 0.906226
59, 6, bw, attraction, a-b-db, 14, 3, 8, 18, 195, 120, 111, 181, 120, 195, 1, 0.380502
59, 6, bw, catch, NA, 999, 999, 8, 19, 81, 114, 194, 121, 160, 95, 2, 0.515033
59, 6, bw, catch, NA, 999, 999, 8, 19, 81, 114, 194, 121, 160, 95, 1, 0.605547
59, 6, bw, attraction, a-b-db, 2, 3, 8, 20, 119, 193, 120, 195, 195, 120, 2, 1.47523
59, 6, bw, attraction, a-b-db, 2, 3, 8, 20, 119, 193, 120, 195, 195, 120, 3, 0.270779
59, 6, bw, attraction, a-b-da, 2, 1, 8, 21, 134, 59, 135, 60, 60, 135, 1, 0.521874
59, 6, bw, attraction, a-b-da, 2, 1, 8, 21, 134, 59, 135, 60, 60, 135, 2, 0.499761
59, 6, bw, attraction, a-b-db, 5, 2, 8, 22, 90, 165, 165, 90, 88, 161, 2, 0.477628
59, 6, bw, attraction, a-b-db, 5, 2, 8, 22, 90, 165, 165, 90, 88, 161, 3, 0.297347
59, 6, bw, filler, NA, 999, 999, 8, 23, 76, 122, 185, 84, 143, 103, 3, 0.83527
59, 6, bw, filler, NA, 999, 999, 8, 23, 76, 122, 185, 84, 143, 103, 2, 0.40098
59, 6, bw, attraction, a-b-db, 5, 1, 8, 24, 135, 60, 58, 132, 60, 135, 3, 0.574841
59, 6, bw, attraction, a-b-db, 5, 1, 8, 24, 135, 60, 58, 132, 60, 135, 2, 0.51853
59, 6, bw, attraction, a-b-db, 14, 2, 8, 25, 83, 153, 165, 90, 90, 165, 2, 0.719777
59, 6, bw, attraction, a-b-db, 14, 2, 8, 25, 83, 153, 165, 90, 90, 165, 3, 0.266125
59, 6, bw, filler, NA, 999, 999, 8, 26, 97, 156, 102, 116, 70, 158, 1, 0.589283
59, 6, bw, filler, NA, 999, 999, 8, 26, 97, 156, 102, 116, 70, 158, 2, 0.276385
59, 6, bw, filler, NA, 999, 999, 8, 27, 171, 82, 141, 153, 120, 153, 2, 1.24695
59, 6, bw, filler, NA, 999, 999, 8, 27, 171, 82, 141, 153, 120, 153, 1, 0.291859
59, 6, bw, attraction, a-b-da, 14, 1, 8, 28, 60, 135, 125, 56, 135, 60, 1, 0.677684
59, 6, bw, attraction, a-b-da, 14, 1, 8, 28, 60, 135, 125, 56, 135, 60, 2, 0.249453
59, 6, bw, catch, NA, 999, 999, 8, 29, 129, 126, 171, 144, 133, 62, 2, 0.49332
59, 6, bw, catch, NA, 999, 999, 8, 29, 129, 126, 171, 144, 133, 62, 3, 0.392416
59, 6, bw, attraction, a-b-db, 9, 2, 8, 30, 165, 90, 86, 157, 90, 165, 3, 1.03831
59, 6, bw, attraction, a-b-db, 9, 2, 8, 30, 165, 90, 86, 157, 90, 165, 2, 0.595299
59, 6, bw, attraction, a-b-da, 14, 3, 8, 31, 120, 195, 181, 111, 195, 120, 1, 0.96104
59, 6, bw, attraction, a-b-da, 14, 3, 8, 31, 120, 195, 181, 111, 195, 120, 2, 1.10537
59, 6, bw, filler, NA, 999, 999, 8, 32, 60, 125, 110, 94, 84, 166, 3, 0.906933
59, 6, bw, filler, NA, 999, 999, 8, 32, 60, 125, 110, 94, 84, 166, 1, 0.781331
59, 6, bw, filler, NA, 999, 999, 8, 33, 126, 126, 124, 154, 57, 133, 2, 0.61975
59, 6, bw, filler, NA, 999, 999, 8, 33, 126, 126, 124, 154, 57, 133, 3, 0.27421
59, 6, bw, attraction, a-b-da, 5, 1, 8, 34, 135, 60, 132, 58, 60, 135, 1, 0.804646
59, 6, bw, attraction, a-b-da, 5, 1, 8, 34, 135, 60, 132, 58, 60, 135, 2, 0.747069
59, 6, bw, filler, NA, 999, 999, 8, 35, 66, 113, 152, 155, 102, 76, 2, 0.442737
59, 6, bw, filler, NA, 999, 999, 8, 35, 66, 113, 152, 155, 102, 76, 1, 2.35199
59, 6, bw, attraction, a-b-db, 5, 3, 8, 36, 120, 195, 195, 120, 117, 190, 2, 0.551075
59, 6, bw, attraction, a-b-db, 5, 3, 8, 36, 120, 195, 195, 120, 117, 190, 3, 0.232201
59, 6, bw, attraction, a-b-da, 9, 1, 8, 37, 60, 135, 135, 60, 129, 57, 1, 0.588744
59, 6, bw, attraction, a-b-da, 9, 1, 8, 37, 60, 135, 135, 60, 129, 57, 2, 0.195881
