sub_n, computer_n, bw_cond, effect, set, distance, diag, block_n, trial_n, h1, w1, h2, w2, h3, w3, choice, rt 
55, 6, bw, practice, NA, 999, 999, 0, 1, 108, 149, 180, 91, 140, 173, 3, 3.14077
55, 6, bw, practice, NA, 999, 999, 0, 1, 108, 149, 180, 91, 140, 173, 2, 4.24053
55, 6, bw, practice, NA, 999, 999, 0, 2, 78, 108, 56, 171, 59, 117, 2, 7.88665
55, 6, bw, practice, NA, 999, 999, 0, 2, 78, 108, 56, 171, 59, 117, 3, 2.61612
55, 6, bw, practice, NA, 999, 999, 0, 3, 192, 136, 150, 138, 63, 116, 1, 2.57984
55, 6, bw, practice, NA, 999, 999, 0, 3, 192, 136, 150, 138, 63, 116, 3, 1.8254
55, 6, bw, attraction, a-b-da, 14, 2, 1, 1, 165, 90, 90, 165, 153, 83, 2, 9.32929
55, 6, bw, attraction, a-b-da, 14, 2, 1, 1, 165, 90, 90, 165, 153, 83, 3, 2.68834
55, 6, bw, filler, NA, 999, 999, 1, 2, 73, 65, 66, 129, 111, 69, 2, 2.49816
55, 6, bw, filler, NA, 999, 999, 1, 2, 73, 65, 66, 129, 111, 69, 1, 0.668542
55, 6, bw, attraction, a-b-db, 14, 1, 1, 3, 56, 125, 60, 135, 135, 60, 2, 3.96787
55, 6, bw, attraction, a-b-db, 14, 1, 1, 3, 56, 125, 60, 135, 135, 60, 1, 0.847085
55, 6, bw, catch, NA, 999, 999, 1, 4, 98, 97, 125, 130, 179, 136, 3, 1.45878
55, 6, bw, catch, NA, 999, 999, 1, 4, 98, 97, 125, 130, 179, 136, 1, 0.662908
55, 6, bw, attraction, a-b-db, 2, 1, 1, 5, 59, 134, 135, 60, 60, 135, 1, 4.04199
55, 6, bw, attraction, a-b-db, 2, 1, 1, 5, 59, 134, 135, 60, 60, 135, 2, 0.998065
55, 6, bw, filler, NA, 999, 999, 1, 6, 58, 89, 163, 75, 56, 104, 2, 2.05161
55, 6, bw, filler, NA, 999, 999, 1, 6, 58, 89, 163, 75, 56, 104, 3, 2.34435
55, 6, bw, filler, NA, 999, 999, 1, 7, 179, 145, 85, 155, 89, 183, 1, 1.30348
55, 6, bw, filler, NA, 999, 999, 1, 7, 179, 145, 85, 155, 89, 183, 2, 1.33776
55, 6, bw, attraction, a-b-db, 9, 3, 1, 8, 195, 120, 120, 195, 114, 186, 2, 2.81791
55, 6, bw, attraction, a-b-db, 9, 3, 1, 8, 195, 120, 120, 195, 114, 186, 1, 2.12786
55, 6, bw, attraction, a-b-da, 14, 1, 1, 9, 60, 135, 125, 56, 135, 60, 1, 3.15974
55, 6, bw, attraction, a-b-da, 14, 1, 1, 9, 60, 135, 125, 56, 135, 60, 2, 1.20737
55, 6, bw, attraction, a-b-da, 5, 1, 1, 10, 60, 135, 132, 58, 135, 60, 1, 2.08426
55, 6, bw, attraction, a-b-da, 5, 1, 1, 10, 60, 135, 132, 58, 135, 60, 2, 1.67154
55, 6, bw, attraction, a-b-da, 9, 2, 1, 11, 157, 86, 165, 90, 90, 165, 3, 3.81837
55, 6, bw, attraction, a-b-da, 9, 2, 1, 11, 157, 86, 165, 90, 90, 165, 1, 1.10372
55, 6, bw, attraction, a-b-db, 5, 3, 1, 12, 117, 190, 195, 120, 120, 195, 1, 2.65729
55, 6, bw, attraction, a-b-db, 5, 3, 1, 12, 117, 190, 195, 120, 120, 195, 2, 1.85324
55, 6, bw, attraction, a-b-db, 2, 3, 1, 13, 195, 120, 120, 195, 119, 193, 2, 3.10456
55, 6, bw, attraction, a-b-db, 2, 3, 1, 13, 195, 120, 120, 195, 119, 193, 3, 1.49883
55, 6, bw, filler, NA, 999, 999, 1, 14, 73, 192, 156, 145, 194, 103, 2, 2.54835
55, 6, bw, filler, NA, 999, 999, 1, 14, 73, 192, 156, 145, 194, 103, 1, 1.08481
55, 6, bw, filler, NA, 999, 999, 1, 15, 111, 131, 61, 87, 125, 141, 3, 2.65516
55, 6, bw, filler, NA, 999, 999, 1, 15, 111, 131, 61, 87, 125, 141, 2, 0.819
55, 6, bw, attraction, a-b-da, 2, 3, 1, 16, 120, 195, 193, 119, 195, 120, 1, 2.71997
55, 6, bw, attraction, a-b-da, 2, 3, 1, 16, 120, 195, 193, 119, 195, 120, 3, 1.80179
55, 6, bw, filler, NA, 999, 999, 1, 17, 184, 161, 128, 67, 84, 143, 1, 2.11914
55, 6, bw, filler, NA, 999, 999, 1, 17, 184, 161, 128, 67, 84, 143, 2, 0.585082
55, 6, bw, attraction, a-b-db, 14, 3, 1, 18, 120, 195, 195, 120, 111, 181, 2, 3.73549
55, 6, bw, attraction, a-b-db, 14, 3, 1, 18, 120, 195, 195, 120, 111, 181, 1, 1.2803
55, 6, bw, attraction, a-b-da, 9, 3, 1, 19, 195, 120, 120, 195, 186, 114, 3, 3.99448
55, 6, bw, attraction, a-b-da, 9, 3, 1, 19, 195, 120, 120, 195, 186, 114, 2, 0.672526
55, 6, bw, attraction, a-b-db, 14, 2, 1, 20, 165, 90, 90, 165, 83, 153, 2, 2.17977
55, 6, bw, attraction, a-b-db, 14, 2, 1, 20, 165, 90, 90, 165, 83, 153, 1, 1.05897
55, 6, bw, attraction, a-b-db, 9, 1, 1, 21, 60, 135, 57, 129, 135, 60, 3, 2.14993
55, 6, bw, attraction, a-b-db, 9, 1, 1, 21, 60, 135, 57, 129, 135, 60, 2, 0.918483
55, 6, bw, attraction, a-b-da, 5, 2, 1, 22, 161, 88, 165, 90, 90, 165, 3, 2.6475
55, 6, bw, attraction, a-b-da, 5, 2, 1, 22, 161, 88, 165, 90, 90, 165, 2, 0.7
55, 6, bw, attraction, a-b-da, 14, 3, 1, 23, 195, 120, 181, 111, 120, 195, 3, 3.97377
55, 6, bw, attraction, a-b-da, 14, 3, 1, 23, 195, 120, 181, 111, 120, 195, 2, 1.98844
55, 6, bw, filler, NA, 999, 999, 1, 24, 176, 71, 104, 57, 191, 78, 3, 2.0825
55, 6, bw, filler, NA, 999, 999, 1, 24, 176, 71, 104, 57, 191, 78, 2, 2.27783
55, 6, bw, attraction, a-b-da, 2, 2, 1, 25, 163, 89, 90, 165, 165, 90, 2, 2.15168
55, 6, bw, attraction, a-b-da, 2, 2, 1, 25, 163, 89, 90, 165, 165, 90, 1, 1.5203
55, 6, bw, attraction, a-b-da, 2, 1, 1, 26, 135, 60, 134, 59, 60, 135, 3, 2.28115
55, 6, bw, attraction, a-b-da, 2, 1, 1, 26, 135, 60, 134, 59, 60, 135, 2, 1.69238
55, 6, bw, catch, NA, 999, 999, 1, 27, 123, 132, 191, 124, 110, 85, 2, 1.82972
55, 6, bw, catch, NA, 999, 999, 1, 27, 123, 132, 191, 124, 110, 85, 3, 1.30716
55, 6, bw, filler, NA, 999, 999, 1, 28, 172, 172, 156, 68, 130, 104, 1, 1.44396
55, 6, bw, filler, NA, 999, 999, 1, 28, 172, 172, 156, 68, 130, 104, 2, 1.32087
55, 6, bw, attraction, a-b-db, 2, 2, 1, 29, 90, 165, 89, 163, 165, 90, 2, 2.75373
55, 6, bw, attraction, a-b-db, 2, 2, 1, 29, 90, 165, 89, 163, 165, 90, 3, 0.562276
55, 6, bw, attraction, a-b-da, 9, 1, 1, 30, 135, 60, 60, 135, 129, 57, 3, 1.72933
55, 6, bw, attraction, a-b-da, 9, 1, 1, 30, 135, 60, 60, 135, 129, 57, 2, 0.954744
55, 6, bw, attraction, a-b-da, 5, 3, 1, 31, 190, 117, 195, 120, 120, 195, 2, 4.53832
55, 6, bw, attraction, a-b-da, 5, 3, 1, 31, 190, 117, 195, 120, 120, 195, 1, 3.1951
55, 6, bw, filler, NA, 999, 999, 1, 32, 80, 172, 181, 139, 80, 76, 2, 1.08788
55, 6, bw, filler, NA, 999, 999, 1, 32, 80, 172, 181, 139, 80, 76, 3, 0.890843
55, 6, bw, attraction, a-b-db, 5, 2, 1, 33, 90, 165, 88, 161, 165, 90, 2, 5.30851
55, 6, bw, attraction, a-b-db, 5, 2, 1, 33, 90, 165, 88, 161, 165, 90, 3, 0.789596
55, 6, bw, catch, NA, 999, 999, 1, 34, 130, 185, 110, 145, 118, 77, 1, 5.72317
55, 6, bw, catch, NA, 999, 999, 1, 34, 130, 185, 110, 145, 118, 77, 3, 1.44331
55, 6, bw, filler, NA, 999, 999, 1, 35, 186, 121, 153, 75, 150, 169, 3, 1.26288
55, 6, bw, filler, NA, 999, 999, 1, 35, 186, 121, 153, 75, 150, 169, 2, 0.931145
55, 6, bw, attraction, a-b-db, 5, 1, 1, 36, 60, 135, 135, 60, 58, 132, 1, 2.1314
55, 6, bw, attraction, a-b-db, 5, 1, 1, 36, 60, 135, 135, 60, 58, 132, 2, 1.08466
55, 6, bw, attraction, a-b-db, 9, 2, 1, 37, 86, 157, 165, 90, 90, 165, 3, 3.23101
55, 6, bw, attraction, a-b-db, 9, 2, 1, 37, 86, 157, 165, 90, 90, 165, 2, 0.675967
55, 6, bw, attraction, a-b-db, 14, 1, 2, 1, 56, 125, 60, 135, 135, 60, 3, 1.35847
55, 6, bw, attraction, a-b-db, 14, 1, 2, 1, 56, 125, 60, 135, 135, 60, 1, 0.83048
55, 6, bw, filler, NA, 999, 999, 2, 2, 129, 157, 142, 64, 168, 84, 1, 1.10688
55, 6, bw, filler, NA, 999, 999, 2, 2, 129, 157, 142, 64, 168, 84, 2, 0.637177
55, 6, bw, filler, NA, 999, 999, 2, 3, 186, 105, 129, 169, 101, 169, 2, 1.93767
55, 6, bw, filler, NA, 999, 999, 2, 3, 186, 105, 129, 169, 101, 169, 3, 1.3784
55, 6, bw, attraction, a-b-db, 2, 1, 2, 4, 59, 134, 135, 60, 60, 135, 1, 1.19251
55, 6, bw, attraction, a-b-db, 2, 1, 2, 4, 59, 134, 135, 60, 60, 135, 2, 0.831431
55, 6, bw, filler, NA, 999, 999, 2, 5, 180, 148, 144, 167, 119, 115, 1, 3.01174
55, 6, bw, filler, NA, 999, 999, 2, 5, 180, 148, 144, 167, 119, 115, 3, 0.681449
55, 6, bw, catch, NA, 999, 999, 2, 6, 90, 165, 148, 167, 79, 116, 2, 1.07583
55, 6, bw, catch, NA, 999, 999, 2, 6, 90, 165, 148, 167, 79, 116, 3, 0.799455
55, 6, bw, filler, NA, 999, 999, 2, 7, 105, 167, 116, 155, 194, 119, 2, 3.66923
55, 6, bw, filler, NA, 999, 999, 2, 7, 105, 167, 116, 155, 194, 119, 1, 2.09663
55, 6, bw, attraction, a-b-db, 9, 3, 2, 8, 120, 195, 114, 186, 195, 120, 1, 4.58595
55, 6, bw, attraction, a-b-db, 9, 3, 2, 8, 120, 195, 114, 186, 195, 120, 2, 0.63257
55, 6, bw, attraction, a-b-da, 9, 3, 2, 9, 120, 195, 186, 114, 195, 120, 3, 6.36488
55, 6, bw, attraction, a-b-da, 9, 3, 2, 9, 120, 195, 186, 114, 195, 120, 2, 0.715595
55, 6, bw, attraction, a-b-db, 9, 1, 2, 10, 135, 60, 57, 129, 60, 135, 2, 2.70874
55, 6, bw, attraction, a-b-db, 9, 1, 2, 10, 135, 60, 57, 129, 60, 135, 1, 1.31839
55, 6, bw, catch, NA, 999, 999, 2, 11, 73, 122, 137, 178, 164, 91, 2, 0.89525
55, 6, bw, catch, NA, 999, 999, 2, 11, 73, 122, 137, 178, 164, 91, 1, 0.554286
55, 6, bw, attraction, a-b-da, 2, 2, 2, 12, 165, 90, 90, 165, 163, 89, 2, 2.23408
55, 6, bw, attraction, a-b-da, 2, 2, 2, 12, 165, 90, 90, 165, 163, 89, 1, 1.0313
55, 6, bw, attraction, a-b-db, 2, 3, 2, 13, 195, 120, 119, 193, 120, 195, 2, 4.19566
55, 6, bw, attraction, a-b-db, 2, 3, 2, 13, 195, 120, 119, 193, 120, 195, 1, 0.849678
55, 6, bw, attraction, a-b-da, 2, 1, 2, 14, 135, 60, 60, 135, 134, 59, 1, 3.75734
55, 6, bw, attraction, a-b-da, 2, 1, 2, 14, 135, 60, 60, 135, 134, 59, 3, 1.95676
55, 6, bw, attraction, a-b-da, 14, 2, 2, 15, 165, 90, 153, 83, 90, 165, 1, 3.50738
55, 6, bw, attraction, a-b-da, 14, 2, 2, 15, 165, 90, 153, 83, 90, 165, 2, 0.477017
55, 6, bw, attraction, a-b-db, 14, 3, 2, 16, 195, 120, 120, 195, 111, 181, 2, 1.63946
55, 6, bw, attraction, a-b-db, 14, 3, 2, 16, 195, 120, 120, 195, 111, 181, 3, 2.78021
55, 6, bw, attraction, a-b-db, 9, 2, 2, 17, 90, 165, 165, 90, 86, 157, 1, 2.97796
55, 6, bw, attraction, a-b-db, 9, 2, 2, 17, 90, 165, 165, 90, 86, 157, 2, 0.521006
55, 6, bw, attraction, a-b-da, 14, 3, 2, 18, 181, 111, 195, 120, 120, 195, 3, 4.19415
55, 6, bw, attraction, a-b-da, 14, 3, 2, 18, 181, 111, 195, 120, 120, 195, 1, 1.12807
55, 6, bw, attraction, a-b-db, 2, 2, 2, 19, 165, 90, 89, 163, 90, 165, 2, 5.2243
55, 6, bw, attraction, a-b-db, 2, 2, 2, 19, 165, 90, 89, 163, 90, 165, 1, 0.892653
55, 6, bw, filler, NA, 999, 999, 2, 20, 108, 171, 63, 126, 140, 126, 3, 1.04628
55, 6, bw, filler, NA, 999, 999, 2, 20, 108, 171, 63, 126, 140, 126, 2, 1.53938
55, 6, bw, attraction, a-b-da, 5, 2, 2, 21, 161, 88, 90, 165, 165, 90, 3, 2.95563
55, 6, bw, attraction, a-b-da, 5, 2, 2, 21, 161, 88, 90, 165, 165, 90, 1, 1.46721
55, 6, bw, attraction, a-b-db, 5, 3, 2, 22, 120, 195, 195, 120, 117, 190, 2, 1.23811
55, 6, bw, attraction, a-b-db, 5, 3, 2, 22, 120, 195, 195, 120, 117, 190, 3, 1.9151
55, 6, bw, attraction, a-b-da, 5, 3, 2, 23, 190, 117, 195, 120, 120, 195, 3, 5.33162
55, 6, bw, attraction, a-b-da, 5, 3, 2, 23, 190, 117, 195, 120, 120, 195, 1, 0.491883
55, 6, bw, filler, NA, 999, 999, 2, 24, 111, 122, 195, 91, 78, 115, 2, 2.70166
55, 6, bw, filler, NA, 999, 999, 2, 24, 111, 122, 195, 91, 78, 115, 3, 0.736207
55, 6, bw, attraction, a-b-db, 5, 2, 2, 25, 90, 165, 88, 161, 165, 90, 1, 3.33655
55, 6, bw, attraction, a-b-db, 5, 2, 2, 25, 90, 165, 88, 161, 165, 90, 3, 0.777521
55, 6, bw, attraction, a-b-db, 5, 1, 2, 26, 58, 132, 135, 60, 60, 135, 3, 3.11193
55, 6, bw, attraction, a-b-db, 5, 1, 2, 26, 58, 132, 135, 60, 60, 135, 2, 0.857539
55, 6, bw, attraction, a-b-da, 9, 2, 2, 27, 90, 165, 157, 86, 165, 90, 1, 1.16454
55, 6, bw, attraction, a-b-da, 9, 2, 2, 27, 90, 165, 157, 86, 165, 90, 2, 0.620776
55, 6, bw, attraction, a-b-da, 14, 1, 2, 28, 125, 56, 60, 135, 135, 60, 3, 5.80189
55, 6, bw, attraction, a-b-da, 14, 1, 2, 28, 125, 56, 60, 135, 135, 60, 2, 1.09537
55, 6, bw, filler, NA, 999, 999, 2, 29, 56, 64, 126, 136, 73, 145, 2, 1.74502
55, 6, bw, filler, NA, 999, 999, 2, 29, 56, 64, 126, 136, 73, 145, 1, 0.873765
55, 6, bw, filler, NA, 999, 999, 2, 30, 166, 167, 188, 182, 163, 137, 2, 2.38803
55, 6, bw, filler, NA, 999, 999, 2, 30, 166, 167, 188, 182, 163, 137, 3, 1.04276
55, 6, bw, attraction, a-b-db, 14, 2, 2, 31, 83, 153, 90, 165, 165, 90, 2, 2.95027
55, 6, bw, attraction, a-b-db, 14, 2, 2, 31, 83, 153, 90, 165, 165, 90, 3, 2.0306
55, 6, bw, filler, NA, 999, 999, 2, 32, 154, 156, 150, 165, 158, 97, 1, 4.0586
55, 6, bw, filler, NA, 999, 999, 2, 32, 154, 156, 150, 165, 158, 97, 3, 0.717927
55, 6, bw, attraction, a-b-da, 9, 1, 2, 33, 135, 60, 60, 135, 129, 57, 1, 1.88696
55, 6, bw, attraction, a-b-da, 9, 1, 2, 33, 135, 60, 60, 135, 129, 57, 2, 0.818421
55, 6, bw, catch, NA, 999, 999, 2, 34, 120, 135, 189, 126, 85, 110, 2, 4.84744
55, 6, bw, catch, NA, 999, 999, 2, 34, 120, 135, 189, 126, 85, 110, 3, 0.755241
55, 6, bw, attraction, a-b-da, 2, 3, 2, 35, 120, 195, 193, 119, 195, 120, 1, 3.16292
55, 6, bw, attraction, a-b-da, 2, 3, 2, 35, 120, 195, 193, 119, 195, 120, 2, 1.2906
55, 6, bw, attraction, a-b-da, 5, 1, 2, 36, 135, 60, 132, 58, 60, 135, 3, 2.02812
55, 6, bw, attraction, a-b-da, 5, 1, 2, 36, 135, 60, 132, 58, 60, 135, 2, 0.577499
55, 6, bw, filler, NA, 999, 999, 2, 37, 193, 83, 165, 160, 63, 111, 2, 2.00786
55, 6, bw, filler, NA, 999, 999, 2, 37, 193, 83, 165, 160, 63, 111, 3, 0.493845
55, 6, bw, attraction, a-b-db, 2, 2, 3, 1, 89, 163, 90, 165, 165, 90, 2, 4.35966
55, 6, bw, attraction, a-b-db, 2, 2, 3, 1, 89, 163, 90, 165, 165, 90, 3, 1.22293
55, 6, bw, attraction, a-b-db, 5, 2, 3, 2, 88, 161, 90, 165, 165, 90, 2, 2.50718
55, 6, bw, attraction, a-b-db, 5, 2, 3, 2, 88, 161, 90, 165, 165, 90, 3, 2.20508
55, 6, bw, attraction, a-b-db, 9, 3, 3, 3, 195, 120, 120, 195, 114, 186, 2, 1.0663
55, 6, bw, attraction, a-b-db, 9, 3, 3, 3, 195, 120, 120, 195, 114, 186, 3, 2.36666
55, 6, bw, attraction, a-b-da, 2, 1, 3, 4, 60, 135, 135, 60, 134, 59, 1, 1.78908
55, 6, bw, attraction, a-b-da, 2, 1, 3, 4, 60, 135, 135, 60, 134, 59, 2, 1.30787
55, 6, bw, attraction, a-b-db, 14, 2, 3, 5, 165, 90, 90, 165, 83, 153, 2, 3.18072
55, 6, bw, attraction, a-b-db, 14, 2, 3, 5, 165, 90, 90, 165, 83, 153, 1, 2.41966
55, 6, bw, filler, NA, 999, 999, 3, 6, 133, 118, 105, 84, 135, 124, 1, 3.06423
55, 6, bw, filler, NA, 999, 999, 3, 6, 133, 118, 105, 84, 135, 124, 2, 0.595907
55, 6, bw, attraction, a-b-da, 14, 3, 3, 7, 120, 195, 181, 111, 195, 120, 1, 2.54567
55, 6, bw, attraction, a-b-da, 14, 3, 3, 7, 120, 195, 181, 111, 195, 120, 2, 0.570359
55, 6, bw, attraction, a-b-db, 2, 1, 3, 8, 135, 60, 59, 134, 60, 135, 3, 4.45726
55, 6, bw, attraction, a-b-db, 2, 1, 3, 8, 135, 60, 59, 134, 60, 135, 1, 0.95646
55, 6, bw, filler, NA, 999, 999, 3, 9, 166, 192, 115, 145, 135, 80, 1, 2.16354
55, 6, bw, filler, NA, 999, 999, 3, 9, 166, 192, 115, 145, 135, 80, 2, 0.499488
55, 6, bw, filler, NA, 999, 999, 3, 10, 174, 192, 173, 68, 156, 179, 1, 1.5893
55, 6, bw, filler, NA, 999, 999, 3, 10, 174, 192, 173, 68, 156, 179, 2, 0.476153
55, 6, bw, attraction, a-b-db, 5, 3, 3, 11, 195, 120, 117, 190, 120, 195, 2, 4.99051
55, 6, bw, attraction, a-b-db, 5, 3, 3, 11, 195, 120, 117, 190, 120, 195, 1, 1.7723
55, 6, bw, filler, NA, 999, 999, 3, 12, 67, 61, 80, 154, 192, 147, 3, 2.37902
55, 6, bw, filler, NA, 999, 999, 3, 12, 67, 61, 80, 154, 192, 147, 1, 1.15419
55, 6, bw, filler, NA, 999, 999, 3, 13, 56, 149, 110, 141, 99, 60, 2, 3.33786
55, 6, bw, filler, NA, 999, 999, 3, 13, 56, 149, 110, 141, 99, 60, 3, 0.554004
55, 6, bw, attraction, a-b-db, 14, 3, 3, 14, 111, 181, 120, 195, 195, 120, 2, 3.00981
55, 6, bw, attraction, a-b-db, 14, 3, 3, 14, 111, 181, 120, 195, 195, 120, 3, 1.00753
55, 6, bw, attraction, a-b-da, 2, 2, 3, 15, 165, 90, 163, 89, 90, 165, 3, 1.65246
55, 6, bw, attraction, a-b-da, 2, 2, 3, 15, 165, 90, 163, 89, 90, 165, 2, 0.625286
55, 6, bw, catch, NA, 999, 999, 3, 16, 101, 154, 129, 66, 147, 168, 3, 0.805665
55, 6, bw, catch, NA, 999, 999, 3, 16, 101, 154, 129, 66, 147, 168, 1, 0.572105
55, 6, bw, attraction, a-b-db, 5, 1, 3, 17, 58, 132, 60, 135, 135, 60, 3, 4.21912
55, 6, bw, attraction, a-b-db, 5, 1, 3, 17, 58, 132, 60, 135, 135, 60, 2, 1.88043
55, 6, bw, filler, NA, 999, 999, 3, 18, 184, 157, 81, 92, 103, 105, 1, 0.938426
55, 6, bw, filler, NA, 999, 999, 3, 18, 184, 157, 81, 92, 103, 105, 2, 0.499604
55, 6, bw, attraction, a-b-db, 14, 1, 3, 19, 60, 135, 56, 125, 135, 60, 2, 4.34129
55, 6, bw, attraction, a-b-db, 14, 1, 3, 19, 60, 135, 56, 125, 135, 60, 1, 0.901222
55, 6, bw, attraction, a-b-db, 2, 3, 3, 20, 195, 120, 120, 195, 119, 193, 2, 5.07093
55, 6, bw, attraction, a-b-db, 2, 3, 3, 20, 195, 120, 120, 195, 119, 193, 1, 1.1459
55, 6, bw, filler, NA, 999, 999, 3, 21, 125, 168, 127, 88, 188, 143, 3, 1.41769
55, 6, bw, filler, NA, 999, 999, 3, 21, 125, 168, 127, 88, 188, 143, 2, 1.06372
55, 6, bw, attraction, a-b-db, 9, 1, 3, 22, 57, 129, 135, 60, 60, 135, 3, 2.49871
55, 6, bw, attraction, a-b-db, 9, 1, 3, 22, 57, 129, 135, 60, 60, 135, 2, 1.45325
55, 6, bw, attraction, a-b-da, 9, 1, 3, 23, 60, 135, 129, 57, 135, 60, 1, 6.43264
55, 6, bw, attraction, a-b-da, 9, 1, 3, 23, 60, 135, 129, 57, 135, 60, 2, 1.01264
55, 6, bw, attraction, a-b-da, 5, 1, 3, 24, 135, 60, 60, 135, 132, 58, 1, 2.03354
55, 6, bw, attraction, a-b-da, 5, 1, 3, 24, 135, 60, 60, 135, 132, 58, 3, 2.615
55, 6, bw, attraction, a-b-db, 9, 2, 3, 25, 165, 90, 86, 157, 90, 165, 2, 3.21172
55, 6, bw, attraction, a-b-db, 9, 2, 3, 25, 165, 90, 86, 157, 90, 165, 1, 1.12114
55, 6, bw, filler, NA, 999, 999, 3, 26, 89, 168, 122, 142, 152, 91, 2, 1.19393
55, 6, bw, filler, NA, 999, 999, 3, 26, 89, 168, 122, 142, 152, 91, 1, 0.624841
55, 6, bw, attraction, a-b-da, 9, 2, 3, 27, 157, 86, 165, 90, 90, 165, 3, 3.43731
55, 6, bw, attraction, a-b-da, 9, 2, 3, 27, 157, 86, 165, 90, 90, 165, 2, 0.762302
55, 6, bw, filler, NA, 999, 999, 3, 28, 57, 104, 174, 107, 98, 171, 3, 2.87335
55, 6, bw, filler, NA, 999, 999, 3, 28, 57, 104, 174, 107, 98, 171, 1, 0.796346
55, 6, bw, attraction, a-b-da, 9, 3, 3, 29, 195, 120, 186, 114, 120, 195, 3, 3.14605
55, 6, bw, attraction, a-b-da, 9, 3, 3, 29, 195, 120, 186, 114, 120, 195, 2, 0.882396
55, 6, bw, attraction, a-b-da, 5, 2, 3, 30, 165, 90, 161, 88, 90, 165, 3, 4.1647
55, 6, bw, attraction, a-b-da, 5, 2, 3, 30, 165, 90, 161, 88, 90, 165, 1, 0.740049
55, 6, bw, attraction, a-b-da, 14, 1, 3, 31, 135, 60, 60, 135, 125, 56, 2, 2.25972
55, 6, bw, attraction, a-b-da, 14, 1, 3, 31, 135, 60, 60, 135, 125, 56, 3, 0.887697
55, 6, bw, attraction, a-b-da, 5, 3, 3, 32, 195, 120, 190, 117, 120, 195, 1, 1.47401
55, 6, bw, attraction, a-b-da, 5, 3, 3, 32, 195, 120, 190, 117, 120, 195, 2, 0.453468
55, 6, bw, attraction, a-b-da, 2, 3, 3, 33, 120, 195, 193, 119, 195, 120, 1, 5.25731
55, 6, bw, attraction, a-b-da, 2, 3, 3, 33, 120, 195, 193, 119, 195, 120, 2, 1.53234
55, 6, bw, filler, NA, 999, 999, 3, 34, 95, 192, 80, 137, 91, 107, 1, 1.09239
55, 6, bw, filler, NA, 999, 999, 3, 34, 95, 192, 80, 137, 91, 107, 3, 0.983405
55, 6, bw, catch, NA, 999, 999, 3, 35, 107, 148, 159, 156, 115, 80, 2, 1.6217
55, 6, bw, catch, NA, 999, 999, 3, 35, 107, 148, 159, 156, 115, 80, 3, 0.811192
55, 6, bw, catch, NA, 999, 999, 3, 36, 147, 108, 110, 85, 180, 135, 3, 1.76026
55, 6, bw, catch, NA, 999, 999, 3, 36, 147, 108, 110, 85, 180, 135, 2, 1.06427
55, 6, bw, attraction, a-b-da, 14, 2, 3, 37, 153, 83, 90, 165, 165, 90, 2, 2.99514
55, 6, bw, attraction, a-b-da, 14, 2, 3, 37, 153, 83, 90, 165, 165, 90, 1, 0.71357
55, 6, bw, filler, NA, 999, 999, 4, 1, 149, 147, 195, 70, 160, 155, 1, 1.39461
55, 6, bw, filler, NA, 999, 999, 4, 1, 149, 147, 195, 70, 160, 155, 2, 0.985543
55, 6, bw, attraction, a-b-db, 14, 2, 4, 2, 83, 153, 165, 90, 90, 165, 1, 2.14384
55, 6, bw, attraction, a-b-db, 14, 2, 4, 2, 83, 153, 165, 90, 90, 165, 2, 1.12847
55, 6, bw, attraction, a-b-db, 2, 3, 4, 3, 120, 195, 195, 120, 119, 193, 2, 1.12869
55, 6, bw, attraction, a-b-db, 2, 3, 4, 3, 120, 195, 195, 120, 119, 193, 1, 1.5703
55, 6, bw, filler, NA, 999, 999, 4, 4, 179, 98, 94, 177, 57, 85, 2, 1.90516
55, 6, bw, filler, NA, 999, 999, 4, 4, 179, 98, 94, 177, 57, 85, 3, 0.571129
55, 6, bw, attraction, a-b-db, 5, 1, 4, 5, 135, 60, 60, 135, 58, 132, 2, 2.45023
55, 6, bw, attraction, a-b-db, 5, 1, 4, 5, 135, 60, 60, 135, 58, 132, 1, 0.798798
55, 6, bw, attraction, a-b-db, 2, 2, 4, 6, 165, 90, 90, 165, 89, 163, 3, 4.26849
55, 6, bw, attraction, a-b-db, 2, 2, 4, 6, 165, 90, 90, 165, 89, 163, 1, 0.831809
55, 6, bw, filler, NA, 999, 999, 4, 7, 57, 182, 104, 85, 134, 98, 3, 1.40418
55, 6, bw, filler, NA, 999, 999, 4, 7, 57, 182, 104, 85, 134, 98, 2, 0.754405
55, 6, bw, filler, NA, 999, 999, 4, 8, 131, 118, 159, 155, 112, 167, 2, 0.962104
55, 6, bw, filler, NA, 999, 999, 4, 8, 131, 118, 159, 155, 112, 167, 1, 0.818349
55, 6, bw, attraction, a-b-da, 14, 2, 4, 9, 165, 90, 90, 165, 153, 83, 2, 1.07933
55, 6, bw, attraction, a-b-da, 14, 2, 4, 9, 165, 90, 90, 165, 153, 83, 3, 0.899159
55, 6, bw, attraction, a-b-da, 5, 2, 4, 10, 90, 165, 165, 90, 161, 88, 3, 2.25279
55, 6, bw, attraction, a-b-da, 5, 2, 4, 10, 90, 165, 165, 90, 161, 88, 2, 0.841341
55, 6, bw, attraction, a-b-da, 2, 1, 4, 11, 134, 59, 135, 60, 60, 135, 3, 1.51699
55, 6, bw, attraction, a-b-da, 2, 1, 4, 11, 134, 59, 135, 60, 60, 135, 1, 1.01519
55, 6, bw, attraction, a-b-da, 14, 1, 4, 12, 60, 135, 125, 56, 135, 60, 1, 2.4921
55, 6, bw, attraction, a-b-da, 14, 1, 4, 12, 60, 135, 125, 56, 135, 60, 2, 0.950694
55, 6, bw, attraction, a-b-da, 2, 3, 4, 13, 193, 119, 120, 195, 195, 120, 2, 2.07827
55, 6, bw, attraction, a-b-da, 2, 3, 4, 13, 193, 119, 120, 195, 195, 120, 1, 0.913656
55, 6, bw, attraction, a-b-db, 14, 1, 4, 14, 56, 125, 135, 60, 60, 135, 3, 1.77054
55, 6, bw, attraction, a-b-db, 14, 1, 4, 14, 56, 125, 135, 60, 60, 135, 2, 0.578003
55, 6, bw, filler, NA, 999, 999, 4, 15, 62, 179, 143, 158, 143, 68, 2, 1.24848
55, 6, bw, filler, NA, 999, 999, 4, 15, 62, 179, 143, 158, 143, 68, 3, 0.645426
55, 6, bw, attraction, a-b-da, 9, 2, 4, 16, 157, 86, 165, 90, 90, 165, 1, 2.85716
55, 6, bw, attraction, a-b-da, 9, 2, 4, 16, 157, 86, 165, 90, 90, 165, 2, 0.420882
55, 6, bw, attraction, a-b-da, 2, 2, 4, 17, 163, 89, 165, 90, 90, 165, 3, 2.53794
55, 6, bw, attraction, a-b-da, 2, 2, 4, 17, 163, 89, 165, 90, 90, 165, 1, 0.77111
55, 6, bw, attraction, a-b-db, 5, 2, 4, 18, 90, 165, 165, 90, 88, 161, 1, 1.29815
55, 6, bw, attraction, a-b-db, 5, 2, 4, 18, 90, 165, 165, 90, 88, 161, 2, 1.22111
55, 6, bw, catch, NA, 999, 999, 4, 19, 126, 69, 97, 158, 192, 123, 3, 0.945992
55, 6, bw, catch, NA, 999, 999, 4, 19, 126, 69, 97, 158, 192, 123, 1, 0.546993
55, 6, bw, attraction, a-b-db, 14, 3, 4, 20, 111, 181, 120, 195, 195, 120, 3, 5.79488
55, 6, bw, attraction, a-b-db, 14, 3, 4, 20, 111, 181, 120, 195, 195, 120, 1, 0.944403
55, 6, bw, filler, NA, 999, 999, 4, 21, 178, 193, 68, 66, 115, 67, 1, 0.927933
55, 6, bw, filler, NA, 999, 999, 4, 21, 178, 193, 68, 66, 115, 67, 2, 0.969611
55, 6, bw, attraction, a-b-db, 2, 1, 4, 22, 59, 134, 60, 135, 135, 60, 3, 1.69661
55, 6, bw, attraction, a-b-db, 2, 1, 4, 22, 59, 134, 60, 135, 135, 60, 2, 1.04346
55, 6, bw, catch, NA, 999, 999, 4, 23, 142, 113, 136, 179, 113, 82, 2, 0.85499
55, 6, bw, catch, NA, 999, 999, 4, 23, 142, 113, 136, 179, 113, 82, 3, 0.883376
55, 6, bw, attraction, a-b-db, 9, 2, 4, 24, 90, 165, 86, 157, 165, 90, 1, 7.31769
55, 6, bw, attraction, a-b-db, 9, 2, 4, 24, 90, 165, 86, 157, 165, 90, 3, 0.565989
55, 6, bw, filler, NA, 999, 999, 4, 25, 112, 63, 111, 89, 157, 195, 3, 0.90106
55, 6, bw, filler, NA, 999, 999, 4, 25, 112, 63, 111, 89, 157, 195, 1, 0.728132
55, 6, bw, attraction, a-b-da, 5, 3, 4, 26, 195, 120, 190, 117, 120, 195, 1, 1.80853
55, 6, bw, attraction, a-b-da, 5, 3, 4, 26, 195, 120, 190, 117, 120, 195, 3, 0.534586
55, 6, bw, filler, NA, 999, 999, 4, 27, 63, 102, 104, 111, 176, 83, 2, 3.7991
55, 6, bw, filler, NA, 999, 999, 4, 27, 63, 102, 104, 111, 176, 83, 1, 0.957221
55, 6, bw, catch, NA, 999, 999, 4, 28, 90, 165, 140, 175, 128, 67, 1, 8.64417
55, 6, bw, catch, NA, 999, 999, 4, 28, 90, 165, 140, 175, 128, 67, 3, 0.702898
55, 6, bw, attraction, a-b-da, 9, 3, 4, 29, 195, 120, 186, 114, 120, 195, 3, 5.24054
55, 6, bw, attraction, a-b-da, 9, 3, 4, 29, 195, 120, 186, 114, 120, 195, 2, 1.06016
55, 6, bw, attraction, a-b-da, 9, 1, 4, 30, 129, 57, 135, 60, 60, 135, 3, 3.24708
55, 6, bw, attraction, a-b-da, 9, 1, 4, 30, 129, 57, 135, 60, 60, 135, 2, 0.643459
55, 6, bw, filler, NA, 999, 999, 4, 31, 133, 59, 91, 69, 131, 102, 3, 1.06317
55, 6, bw, filler, NA, 999, 999, 4, 31, 133, 59, 91, 69, 131, 102, 2, 0.507451
55, 6, bw, attraction, a-b-db, 9, 3, 4, 32, 195, 120, 114, 186, 120, 195, 1, 9.27663
55, 6, bw, attraction, a-b-db, 9, 3, 4, 32, 195, 120, 114, 186, 120, 195, 2, 0.58962
55, 6, bw, attraction, a-b-db, 5, 3, 4, 33, 120, 195, 117, 190, 195, 120, 3, 1.11533
55, 6, bw, attraction, a-b-db, 5, 3, 4, 33, 120, 195, 117, 190, 195, 120, 2, 0.605673
55, 6, bw, attraction, a-b-db, 9, 1, 4, 34, 57, 129, 60, 135, 135, 60, 2, 7.17139
55, 6, bw, attraction, a-b-db, 9, 1, 4, 34, 57, 129, 60, 135, 135, 60, 1, 1.40981
55, 6, bw, filler, NA, 999, 999, 4, 35, 68, 180, 133, 122, 172, 167, 3, 0.894701
55, 6, bw, filler, NA, 999, 999, 4, 35, 68, 180, 133, 122, 172, 167, 2, 0.521682
55, 6, bw, attraction, a-b-da, 5, 1, 4, 36, 135, 60, 132, 58, 60, 135, 1, 1.72273
55, 6, bw, attraction, a-b-da, 5, 1, 4, 36, 135, 60, 132, 58, 60, 135, 3, 0.660231
55, 6, bw, attraction, a-b-da, 14, 3, 4, 37, 195, 120, 181, 111, 120, 195, 1, 1.34324
55, 6, bw, attraction, a-b-da, 14, 3, 4, 37, 195, 120, 181, 111, 120, 195, 3, 0.65617
55, 6, bw, attraction, a-b-db, 5, 3, 5, 1, 117, 190, 120, 195, 195, 120, 3, 4.82583
55, 6, bw, attraction, a-b-db, 5, 3, 5, 1, 117, 190, 120, 195, 195, 120, 2, 0.66227
55, 6, bw, filler, NA, 999, 999, 5, 2, 83, 152, 115, 60, 64, 60, 1, 1.78531
55, 6, bw, filler, NA, 999, 999, 5, 2, 83, 152, 115, 60, 64, 60, 3, 1.6808
55, 6, bw, filler, NA, 999, 999, 5, 3, 81, 192, 191, 149, 172, 80, 2, 0.978843
55, 6, bw, filler, NA, 999, 999, 5, 3, 81, 192, 191, 149, 172, 80, 3, 1.13061
55, 6, bw, attraction, a-b-db, 2, 3, 5, 4, 195, 120, 120, 195, 119, 193, 1, 1.99482
55, 6, bw, attraction, a-b-db, 2, 3, 5, 4, 195, 120, 120, 195, 119, 193, 2, 0.545493
55, 6, bw, attraction, a-b-da, 9, 2, 5, 5, 165, 90, 90, 165, 157, 86, 3, 1.43327
55, 6, bw, attraction, a-b-da, 9, 2, 5, 5, 165, 90, 90, 165, 157, 86, 2, 0.526924
55, 6, bw, filler, NA, 999, 999, 5, 6, 98, 175, 142, 143, 115, 98, 2, 2.34319
55, 6, bw, filler, NA, 999, 999, 5, 6, 98, 175, 142, 143, 115, 98, 3, 0.655879
55, 6, bw, filler, NA, 999, 999, 5, 7, 135, 145, 112, 165, 75, 129, 1, 1.05168
55, 6, bw, filler, NA, 999, 999, 5, 7, 135, 145, 112, 165, 75, 129, 3, 0.512598
55, 6, bw, attraction, a-b-da, 2, 1, 5, 8, 60, 135, 134, 59, 135, 60, 1, 1.76165
55, 6, bw, attraction, a-b-da, 2, 1, 5, 8, 60, 135, 134, 59, 135, 60, 2, 1.74574
55, 6, bw, attraction, a-b-db, 5, 2, 5, 9, 90, 165, 88, 161, 165, 90, 1, 2.08116
55, 6, bw, attraction, a-b-db, 5, 2, 5, 9, 90, 165, 88, 161, 165, 90, 3, 1.04448
55, 6, bw, attraction, a-b-da, 5, 1, 5, 10, 132, 58, 135, 60, 60, 135, 1, 2.05609
55, 6, bw, attraction, a-b-da, 5, 1, 5, 10, 132, 58, 135, 60, 60, 135, 2, 0.596034
55, 6, bw, attraction, a-b-db, 14, 3, 5, 11, 120, 195, 111, 181, 195, 120, 1, 2.24983
55, 6, bw, attraction, a-b-db, 14, 3, 5, 11, 120, 195, 111, 181, 195, 120, 2, 1.81442
55, 6, bw, attraction, a-b-da, 5, 3, 5, 12, 195, 120, 190, 117, 120, 195, 1, 3.93917
55, 6, bw, attraction, a-b-da, 5, 3, 5, 12, 195, 120, 190, 117, 120, 195, 2, 1.09915
55, 6, bw, attraction, a-b-db, 2, 2, 5, 13, 165, 90, 89, 163, 90, 165, 2, 1.46073
55, 6, bw, attraction, a-b-db, 2, 2, 5, 13, 165, 90, 89, 163, 90, 165, 1, 0.985024
55, 6, bw, attraction, a-b-db, 9, 1, 5, 14, 57, 129, 60, 135, 135, 60, 1, 2.51131
55, 6, bw, attraction, a-b-db, 9, 1, 5, 14, 57, 129, 60, 135, 135, 60, 3, 1.16929
55, 6, bw, attraction, a-b-da, 2, 2, 5, 15, 163, 89, 165, 90, 90, 165, 1, 1.01601
55, 6, bw, attraction, a-b-da, 2, 2, 5, 15, 163, 89, 165, 90, 90, 165, 2, 1.28633
55, 6, bw, catch, NA, 999, 999, 5, 16, 148, 167, 146, 109, 64, 131, 1, 1.8487
55, 6, bw, catch, NA, 999, 999, 5, 16, 148, 167, 146, 109, 64, 131, 3, 0.637321
55, 6, bw, attraction, a-b-da, 14, 1, 5, 17, 135, 60, 125, 56, 60, 135, 3, 1.8417
55, 6, bw, attraction, a-b-da, 14, 1, 5, 17, 135, 60, 125, 56, 60, 135, 2, 0.622459
55, 6, bw, attraction, a-b-db, 2, 1, 5, 18, 135, 60, 60, 135, 59, 134, 3, 5.57162
55, 6, bw, attraction, a-b-db, 2, 1, 5, 18, 135, 60, 60, 135, 59, 134, 1, 1.12175
55, 6, bw, attraction, a-b-db, 9, 2, 5, 19, 90, 165, 165, 90, 86, 157, 1, 2.54668
55, 6, bw, attraction, a-b-db, 9, 2, 5, 19, 90, 165, 165, 90, 86, 157, 2, 1.66728
55, 6, bw, filler, NA, 999, 999, 5, 20, 159, 101, 123, 191, 129, 72, 2, 1.58989
55, 6, bw, filler, NA, 999, 999, 5, 20, 159, 101, 123, 191, 129, 72, 3, 0.876777
55, 6, bw, filler, NA, 999, 999, 5, 21, 130, 182, 134, 180, 105, 62, 2, 1.63908
55, 6, bw, filler, NA, 999, 999, 5, 21, 130, 182, 134, 180, 105, 62, 3, 0.731911
55, 6, bw, attraction, a-b-da, 14, 2, 5, 22, 153, 83, 90, 165, 165, 90, 2, 1.93232
55, 6, bw, attraction, a-b-da, 14, 2, 5, 22, 153, 83, 90, 165, 165, 90, 1, 0.517642
55, 6, bw, attraction, a-b-db, 5, 1, 5, 23, 60, 135, 135, 60, 58, 132, 1, 2.25486
55, 6, bw, attraction, a-b-db, 5, 1, 5, 23, 60, 135, 135, 60, 58, 132, 2, 0.522697
55, 6, bw, catch, NA, 999, 999, 5, 24, 98, 97, 115, 140, 136, 179, 3, 0.971138
55, 6, bw, catch, NA, 999, 999, 5, 24, 98, 97, 115, 140, 136, 179, 1, 0.634882
55, 6, bw, attraction, a-b-db, 9, 3, 5, 25, 195, 120, 120, 195, 114, 186, 2, 1.59122
55, 6, bw, attraction, a-b-db, 9, 3, 5, 25, 195, 120, 120, 195, 114, 186, 1, 2.30215
55, 6, bw, attraction, a-b-da, 9, 3, 5, 26, 186, 114, 195, 120, 120, 195, 3, 2.95928
55, 6, bw, attraction, a-b-da, 9, 3, 5, 26, 186, 114, 195, 120, 120, 195, 1, 0.446907
55, 6, bw, filler, NA, 999, 999, 5, 27, 63, 105, 118, 172, 189, 128, 3, 2.77869
55, 6, bw, filler, NA, 999, 999, 5, 27, 63, 105, 118, 172, 189, 128, 1, 0.585845
55, 6, bw, filler, NA, 999, 999, 5, 28, 64, 84, 96, 136, 72, 82, 2, 2.75234
55, 6, bw, filler, NA, 999, 999, 5, 28, 64, 84, 96, 136, 72, 82, 3, 0.960792
55, 6, bw, attraction, a-b-da, 2, 3, 5, 29, 193, 119, 120, 195, 195, 120, 1, 1.60777
55, 6, bw, attraction, a-b-da, 2, 3, 5, 29, 193, 119, 120, 195, 195, 120, 2, 1.75797
55, 6, bw, attraction, a-b-da, 9, 1, 5, 30, 135, 60, 129, 57, 60, 135, 1, 0.908517
55, 6, bw, attraction, a-b-da, 9, 1, 5, 30, 135, 60, 129, 57, 60, 135, 3, 1.36692
55, 6, bw, filler, NA, 999, 999, 5, 31, 56, 188, 69, 123, 123, 95, 1, 2.09379
55, 6, bw, filler, NA, 999, 999, 5, 31, 56, 188, 69, 123, 123, 95, 2, 1.54449
55, 6, bw, attraction, a-b-db, 14, 1, 5, 32, 56, 125, 60, 135, 135, 60, 2, 2.56789
55, 6, bw, attraction, a-b-db, 14, 1, 5, 32, 56, 125, 60, 135, 135, 60, 1, 0.447697
55, 6, bw, attraction, a-b-da, 14, 3, 5, 33, 120, 195, 181, 111, 195, 120, 1, 2.74751
55, 6, bw, attraction, a-b-da, 14, 3, 5, 33, 120, 195, 181, 111, 195, 120, 2, 0.475915
55, 6, bw, attraction, a-b-da, 5, 2, 5, 34, 161, 88, 90, 165, 165, 90, 2, 2.92645
55, 6, bw, attraction, a-b-da, 5, 2, 5, 34, 161, 88, 90, 165, 165, 90, 1, 0.991432
55, 6, bw, filler, NA, 999, 999, 5, 35, 100, 94, 184, 75, 189, 149, 3, 0.829252
55, 6, bw, filler, NA, 999, 999, 5, 35, 100, 94, 184, 75, 189, 149, 1, 0.53078
55, 6, bw, catch, NA, 999, 999, 5, 36, 183, 132, 132, 123, 115, 80, 1, 1.04331
55, 6, bw, catch, NA, 999, 999, 5, 36, 183, 132, 132, 123, 115, 80, 2, 0.728251
55, 6, bw, attraction, a-b-db, 14, 2, 5, 37, 165, 90, 90, 165, 83, 153, 2, 2.2086
55, 6, bw, attraction, a-b-db, 14, 2, 5, 37, 165, 90, 90, 165, 83, 153, 1, 1.21459
55, 6, bw, attraction, a-b-da, 5, 1, 6, 1, 135, 60, 60, 135, 132, 58, 2, 2.29146
55, 6, bw, attraction, a-b-da, 5, 1, 6, 1, 135, 60, 60, 135, 132, 58, 3, 0.430115
55, 6, bw, attraction, a-b-da, 14, 2, 6, 2, 90, 165, 153, 83, 165, 90, 3, 1.13859
55, 6, bw, attraction, a-b-da, 14, 2, 6, 2, 90, 165, 153, 83, 165, 90, 1, 1.30747
55, 6, bw, attraction, a-b-da, 2, 1, 6, 3, 134, 59, 60, 135, 135, 60, 3, 1.91629
55, 6, bw, attraction, a-b-da, 2, 1, 6, 3, 134, 59, 60, 135, 135, 60, 2, 0.630436
55, 6, bw, attraction, a-b-da, 9, 3, 6, 4, 186, 114, 120, 195, 195, 120, 2, 3.90682
55, 6, bw, attraction, a-b-da, 9, 3, 6, 4, 186, 114, 120, 195, 195, 120, 1, 0.796293
55, 6, bw, attraction, a-b-db, 9, 2, 6, 5, 86, 157, 165, 90, 90, 165, 1, 1.53783
55, 6, bw, attraction, a-b-db, 9, 2, 6, 5, 86, 157, 165, 90, 90, 165, 2, 0.458762
55, 6, bw, attraction, a-b-da, 5, 2, 6, 6, 165, 90, 90, 165, 161, 88, 2, 2.15783
55, 6, bw, attraction, a-b-da, 5, 2, 6, 6, 165, 90, 90, 165, 161, 88, 1, 0.845798
55, 6, bw, attraction, a-b-db, 5, 1, 6, 7, 60, 135, 135, 60, 58, 132, 3, 2.56953
55, 6, bw, attraction, a-b-db, 5, 1, 6, 7, 60, 135, 135, 60, 58, 132, 2, 1.07331
55, 6, bw, attraction, a-b-db, 14, 2, 6, 8, 83, 153, 90, 165, 165, 90, 2, 5.64368
55, 6, bw, attraction, a-b-db, 14, 2, 6, 8, 83, 153, 90, 165, 165, 90, 1, 1.16722
55, 6, bw, attraction, a-b-db, 9, 1, 6, 9, 135, 60, 60, 135, 57, 129, 2, 2.022
55, 6, bw, attraction, a-b-db, 9, 1, 6, 9, 135, 60, 60, 135, 57, 129, 1, 0.931436
55, 6, bw, filler, NA, 999, 999, 6, 10, 99, 185, 189, 168, 122, 193, 2, 2.69973
55, 6, bw, filler, NA, 999, 999, 6, 10, 99, 185, 189, 168, 122, 193, 3, 0.694226
55, 6, bw, filler, NA, 999, 999, 6, 11, 123, 131, 190, 187, 66, 64, 2, 1.02392
55, 6, bw, filler, NA, 999, 999, 6, 11, 123, 131, 190, 187, 66, 64, 3, 1.48565
55, 6, bw, attraction, a-b-db, 2, 3, 6, 12, 120, 195, 119, 193, 195, 120, 3, 1.37572
55, 6, bw, attraction, a-b-db, 2, 3, 6, 12, 120, 195, 119, 193, 195, 120, 2, 0.495338
55, 6, bw, attraction, a-b-da, 14, 3, 6, 13, 181, 111, 120, 195, 195, 120, 2, 2.30506
55, 6, bw, attraction, a-b-da, 14, 3, 6, 13, 181, 111, 120, 195, 195, 120, 1, 0.578955
55, 6, bw, catch, NA, 999, 999, 6, 14, 73, 122, 122, 193, 96, 159, 2, 0.977386
55, 6, bw, catch, NA, 999, 999, 6, 14, 73, 122, 122, 193, 96, 159, 1, 0.800966
55, 6, bw, attraction, a-b-db, 14, 3, 6, 15, 120, 195, 111, 181, 195, 120, 2, 2.23878
55, 6, bw, attraction, a-b-db, 14, 3, 6, 15, 120, 195, 111, 181, 195, 120, 3, 2.40329
55, 6, bw, filler, NA, 999, 999, 6, 16, 101, 164, 108, 57, 97, 136, 1, 1.35248
55, 6, bw, filler, NA, 999, 999, 6, 16, 101, 164, 108, 57, 97, 136, 2, 0.449398
55, 6, bw, filler, NA, 999, 999, 6, 17, 84, 143, 121, 170, 150, 189, 3, 0.933181
55, 6, bw, filler, NA, 999, 999, 6, 17, 84, 143, 121, 170, 150, 189, 1, 0.614832
55, 6, bw, filler, NA, 999, 999, 6, 18, 95, 144, 167, 110, 194, 137, 3, 1.14804
55, 6, bw, filler, NA, 999, 999, 6, 18, 95, 144, 167, 110, 194, 137, 1, 0.612918
55, 6, bw, filler, NA, 999, 999, 6, 19, 70, 92, 166, 98, 169, 164, 3, 0.617988
55, 6, bw, filler, NA, 999, 999, 6, 19, 70, 92, 166, 98, 169, 164, 1, 0.632404
55, 6, bw, attraction, a-b-da, 2, 3, 6, 20, 120, 195, 193, 119, 195, 120, 1, 2.22893
55, 6, bw, attraction, a-b-da, 2, 3, 6, 20, 120, 195, 193, 119, 195, 120, 3, 2.06612
55, 6, bw, attraction, a-b-db, 9, 3, 6, 21, 195, 120, 114, 186, 120, 195, 3, 1.29289
55, 6, bw, attraction, a-b-db, 9, 3, 6, 21, 195, 120, 114, 186, 120, 195, 2, 2.2237
55, 6, bw, attraction, a-b-da, 9, 2, 6, 22, 90, 165, 165, 90, 157, 86, 2, 3.43556
55, 6, bw, attraction, a-b-da, 9, 2, 6, 22, 90, 165, 165, 90, 157, 86, 3, 0.464481
55, 6, bw, attraction, a-b-db, 5, 3, 6, 23, 195, 120, 117, 190, 120, 195, 3, 1.4436
55, 6, bw, attraction, a-b-db, 5, 3, 6, 23, 195, 120, 117, 190, 120, 195, 2, 0.68065
55, 6, bw, attraction, a-b-db, 5, 2, 6, 24, 88, 161, 165, 90, 90, 165, 1, 1.82696
55, 6, bw, attraction, a-b-db, 5, 2, 6, 24, 88, 161, 165, 90, 90, 165, 2, 1.65629
55, 6, bw, attraction, a-b-db, 2, 1, 6, 25, 60, 135, 59, 134, 135, 60, 3, 2.91578
55, 6, bw, attraction, a-b-db, 2, 1, 6, 25, 60, 135, 59, 134, 135, 60, 2, 1.72556
55, 6, bw, attraction, a-b-db, 2, 2, 6, 26, 90, 165, 165, 90, 89, 163, 1, 0.877574
55, 6, bw, attraction, a-b-db, 2, 2, 6, 26, 90, 165, 165, 90, 89, 163, 2, 0.609176
55, 6, bw, filler, NA, 999, 999, 6, 27, 158, 165, 153, 68, 82, 188, 1, 0.838188
55, 6, bw, filler, NA, 999, 999, 6, 27, 158, 165, 153, 68, 82, 188, 2, 0.507333
55, 6, bw, attraction, a-b-da, 5, 3, 6, 28, 120, 195, 195, 120, 190, 117, 2, 4.41252
55, 6, bw, attraction, a-b-da, 5, 3, 6, 28, 120, 195, 195, 120, 190, 117, 3, 0.681693
55, 6, bw, attraction, a-b-da, 14, 1, 6, 29, 60, 135, 125, 56, 135, 60, 1, 2.51603
55, 6, bw, attraction, a-b-da, 14, 1, 6, 29, 60, 135, 125, 56, 135, 60, 2, 0.709948
55, 6, bw, attraction, a-b-da, 9, 1, 6, 30, 129, 57, 60, 135, 135, 60, 2, 1.41503
55, 6, bw, attraction, a-b-da, 9, 1, 6, 30, 129, 57, 60, 135, 135, 60, 3, 1.01331
55, 6, bw, attraction, a-b-da, 2, 2, 6, 31, 163, 89, 90, 165, 165, 90, 2, 2.89026
55, 6, bw, attraction, a-b-da, 2, 2, 6, 31, 163, 89, 90, 165, 165, 90, 1, 0.732721
55, 6, bw, attraction, a-b-db, 14, 1, 6, 32, 56, 125, 60, 135, 135, 60, 2, 6.00495
55, 6, bw, attraction, a-b-db, 14, 1, 6, 32, 56, 125, 60, 135, 135, 60, 1, 1.19438
55, 6, bw, filler, NA, 999, 999, 6, 33, 73, 74, 176, 103, 121, 118, 2, 0.744048
55, 6, bw, filler, NA, 999, 999, 6, 33, 73, 74, 176, 103, 121, 118, 1, 0.704991
55, 6, bw, catch, NA, 999, 999, 6, 34, 134, 181, 127, 128, 121, 74, 1, 1.51471
55, 6, bw, catch, NA, 999, 999, 6, 34, 134, 181, 127, 128, 121, 74, 2, 0.540954
55, 6, bw, catch, NA, 999, 999, 6, 35, 97, 98, 105, 150, 189, 126, 3, 2.39673
55, 6, bw, catch, NA, 999, 999, 6, 35, 97, 98, 105, 150, 189, 126, 1, 0.651364
55, 6, bw, filler, NA, 999, 999, 6, 36, 83, 76, 152, 191, 112, 94, 2, 0.838994
55, 6, bw, filler, NA, 999, 999, 6, 36, 83, 76, 152, 191, 112, 94, 1, 0.628042
55, 6, bw, filler, NA, 999, 999, 6, 37, 70, 127, 69, 64, 89, 111, 3, 1.72064
55, 6, bw, filler, NA, 999, 999, 6, 37, 70, 127, 69, 64, 89, 111, 2, 0.610464
55, 6, bw, attraction, a-b-db, 5, 1, 7, 1, 60, 135, 135, 60, 58, 132, 1, 1.43158
55, 6, bw, attraction, a-b-db, 5, 1, 7, 1, 60, 135, 135, 60, 58, 132, 2, 0.581179
55, 6, bw, catch, NA, 999, 999, 7, 2, 187, 128, 128, 67, 158, 97, 1, 0.707627
55, 6, bw, catch, NA, 999, 999, 7, 2, 187, 128, 128, 67, 158, 97, 2, 0.534079
55, 6, bw, attraction, a-b-db, 9, 3, 7, 3, 120, 195, 195, 120, 114, 186, 3, 3.04643
55, 6, bw, attraction, a-b-db, 9, 3, 7, 3, 120, 195, 195, 120, 114, 186, 1, 0.554817
55, 6, bw, attraction, a-b-da, 2, 1, 7, 4, 135, 60, 134, 59, 60, 135, 3, 1.65867
55, 6, bw, attraction, a-b-da, 2, 1, 7, 4, 135, 60, 134, 59, 60, 135, 2, 1.77465
55, 6, bw, filler, NA, 999, 999, 7, 5, 129, 180, 180, 58, 157, 72, 1, 0.820703
55, 6, bw, filler, NA, 999, 999, 7, 5, 129, 180, 180, 58, 157, 72, 3, 0.874419
55, 6, bw, filler, NA, 999, 999, 7, 6, 153, 72, 152, 138, 114, 96, 2, 2.14877
55, 6, bw, filler, NA, 999, 999, 7, 6, 153, 72, 152, 138, 114, 96, 3, 0.709376
55, 6, bw, catch, NA, 999, 999, 7, 7, 93, 102, 102, 153, 128, 187, 3, 0.958556
55, 6, bw, catch, NA, 999, 999, 7, 7, 93, 102, 102, 153, 128, 187, 1, 0.686843
55, 6, bw, attraction, a-b-da, 5, 3, 7, 8, 190, 117, 195, 120, 120, 195, 1, 2.02524
55, 6, bw, attraction, a-b-da, 5, 3, 7, 8, 190, 117, 195, 120, 120, 195, 3, 0.414652
55, 6, bw, attraction, a-b-db, 14, 2, 7, 9, 90, 165, 83, 153, 165, 90, 1, 2.19581
55, 6, bw, attraction, a-b-db, 14, 2, 7, 9, 90, 165, 83, 153, 165, 90, 2, 0.506439
55, 6, bw, attraction, a-b-da, 2, 3, 7, 10, 195, 120, 120, 195, 193, 119, 2, 2.21143
55, 6, bw, attraction, a-b-da, 2, 3, 7, 10, 195, 120, 120, 195, 193, 119, 1, 1.12933
55, 6, bw, attraction, a-b-da, 2, 2, 7, 11, 90, 165, 163, 89, 165, 90, 1, 1.17763
55, 6, bw, attraction, a-b-da, 2, 2, 7, 11, 90, 165, 163, 89, 165, 90, 2, 0.441327
55, 6, bw, filler, NA, 999, 999, 7, 12, 140, 68, 85, 194, 162, 85, 2, 0.885148
55, 6, bw, filler, NA, 999, 999, 7, 12, 140, 68, 85, 194, 162, 85, 1, 0.912719
55, 6, bw, attraction, a-b-db, 14, 1, 7, 13, 60, 135, 135, 60, 56, 125, 1, 1.48182
55, 6, bw, attraction, a-b-db, 14, 1, 7, 13, 60, 135, 135, 60, 56, 125, 2, 0.469328
55, 6, bw, attraction, a-b-db, 5, 3, 7, 14, 117, 190, 120, 195, 195, 120, 2, 1.40044
55, 6, bw, attraction, a-b-db, 5, 3, 7, 14, 117, 190, 120, 195, 195, 120, 3, 0.687323
55, 6, bw, attraction, a-b-db, 5, 2, 7, 15, 88, 161, 165, 90, 90, 165, 1, 0.969708
55, 6, bw, attraction, a-b-db, 5, 2, 7, 15, 88, 161, 165, 90, 90, 165, 2, 0.826008
55, 6, bw, filler, NA, 999, 999, 7, 16, 112, 113, 138, 172, 64, 89, 2, 0.710324
55, 6, bw, filler, NA, 999, 999, 7, 16, 112, 113, 138, 172, 64, 89, 3, 0.784847
55, 6, bw, catch, NA, 999, 999, 7, 17, 100, 95, 142, 173, 96, 159, 2, 0.735025
55, 6, bw, catch, NA, 999, 999, 7, 17, 100, 95, 142, 173, 96, 159, 1, 0.552839
55, 6, bw, attraction, a-b-db, 14, 3, 7, 18, 111, 181, 195, 120, 120, 195, 2, 0.832511
55, 6, bw, attraction, a-b-db, 14, 3, 7, 18, 111, 181, 195, 120, 120, 195, 3, 0.42239
55, 6, bw, attraction, a-b-da, 9, 1, 7, 19, 135, 60, 129, 57, 60, 135, 1, 2.66747
55, 6, bw, attraction, a-b-da, 9, 1, 7, 19, 135, 60, 129, 57, 60, 135, 2, 0.791223
55, 6, bw, attraction, a-b-db, 2, 1, 7, 20, 59, 134, 60, 135, 135, 60, 3, 1.38095
55, 6, bw, attraction, a-b-db, 2, 1, 7, 20, 59, 134, 60, 135, 135, 60, 2, 1.66049
55, 6, bw, attraction, a-b-da, 9, 3, 7, 21, 195, 120, 120, 195, 186, 114, 2, 3.0952
55, 6, bw, attraction, a-b-da, 9, 3, 7, 21, 195, 120, 120, 195, 186, 114, 1, 1.05753
55, 6, bw, attraction, a-b-da, 9, 2, 7, 22, 165, 90, 157, 86, 90, 165, 2, 1.35649
55, 6, bw, attraction, a-b-da, 9, 2, 7, 22, 165, 90, 157, 86, 90, 165, 3, 1.68479
55, 6, bw, filler, NA, 999, 999, 7, 23, 193, 75, 137, 147, 146, 68, 2, 1.16675
55, 6, bw, filler, NA, 999, 999, 7, 23, 193, 75, 137, 147, 146, 68, 3, 0.663109
55, 6, bw, attraction, a-b-da, 14, 1, 7, 24, 60, 135, 135, 60, 125, 56, 2, 1.65013
55, 6, bw, attraction, a-b-da, 14, 1, 7, 24, 60, 135, 135, 60, 125, 56, 1, 0.686914
55, 6, bw, attraction, a-b-db, 2, 2, 7, 25, 89, 163, 165, 90, 90, 165, 1, 1.4573
55, 6, bw, attraction, a-b-db, 2, 2, 7, 25, 89, 163, 165, 90, 90, 165, 2, 0.597491
55, 6, bw, attraction, a-b-db, 9, 1, 7, 26, 135, 60, 57, 129, 60, 135, 2, 2.43531
55, 6, bw, attraction, a-b-db, 9, 1, 7, 26, 135, 60, 57, 129, 60, 135, 1, 0.728482
55, 6, bw, attraction, a-b-da, 5, 1, 7, 27, 135, 60, 60, 135, 132, 58, 2, 1.88087
55, 6, bw, attraction, a-b-da, 5, 1, 7, 27, 135, 60, 60, 135, 132, 58, 3, 1.14033
55, 6, bw, attraction, a-b-db, 2, 3, 7, 28, 195, 120, 120, 195, 119, 193, 2, 1.98786
55, 6, bw, attraction, a-b-db, 2, 3, 7, 28, 195, 120, 120, 195, 119, 193, 1, 0.770528
55, 6, bw, filler, NA, 999, 999, 7, 29, 76, 152, 193, 88, 190, 163, 3, 0.977599
55, 6, bw, filler, NA, 999, 999, 7, 29, 76, 152, 193, 88, 190, 163, 1, 0.593253
55, 6, bw, filler, NA, 999, 999, 7, 30, 115, 88, 183, 81, 62, 132, 2, 1.6791
55, 6, bw, filler, NA, 999, 999, 7, 30, 115, 88, 183, 81, 62, 132, 3, 1.45042
55, 6, bw, attraction, a-b-da, 5, 2, 7, 31, 90, 165, 165, 90, 161, 88, 2, 1.92596
55, 6, bw, attraction, a-b-da, 5, 2, 7, 31, 90, 165, 165, 90, 161, 88, 1, 1.64734
55, 6, bw, attraction, a-b-db, 9, 2, 7, 32, 165, 90, 86, 157, 90, 165, 3, 2.02675
55, 6, bw, attraction, a-b-db, 9, 2, 7, 32, 165, 90, 86, 157, 90, 165, 2, 1.42409
55, 6, bw, filler, NA, 999, 999, 7, 33, 112, 72, 176, 177, 88, 183, 2, 0.988261
55, 6, bw, filler, NA, 999, 999, 7, 33, 112, 72, 176, 177, 88, 183, 1, 0.651267
55, 6, bw, attraction, a-b-da, 14, 3, 7, 34, 195, 120, 181, 111, 120, 195, 1, 1.99893
55, 6, bw, attraction, a-b-da, 14, 3, 7, 34, 195, 120, 181, 111, 120, 195, 2, 1.08567
55, 6, bw, attraction, a-b-da, 14, 2, 7, 35, 153, 83, 90, 165, 165, 90, 3, 3.76798
55, 6, bw, attraction, a-b-da, 14, 2, 7, 35, 153, 83, 90, 165, 165, 90, 1, 0.567385
55, 6, bw, filler, NA, 999, 999, 7, 36, 146, 192, 192, 166, 173, 102, 2, 0.942437
55, 6, bw, filler, NA, 999, 999, 7, 36, 146, 192, 192, 166, 173, 102, 3, 0.703578
55, 6, bw, filler, NA, 999, 999, 7, 37, 149, 174, 165, 165, 194, 151, 3, 3.26527
55, 6, bw, filler, NA, 999, 999, 7, 37, 149, 174, 165, 165, 194, 151, 2, 0.636868
55, 6, bw, attraction, a-b-db, 2, 2, 8, 1, 165, 90, 89, 163, 90, 165, 3, 2.52925
55, 6, bw, attraction, a-b-db, 2, 2, 8, 1, 165, 90, 89, 163, 90, 165, 2, 0.426489
55, 6, bw, attraction, a-b-da, 9, 1, 8, 2, 60, 135, 135, 60, 129, 57, 3, 1.05501
55, 6, bw, attraction, a-b-da, 9, 1, 8, 2, 60, 135, 135, 60, 129, 57, 2, 0.819222
55, 6, bw, filler, NA, 999, 999, 8, 3, 140, 95, 147, 159, 164, 63, 2, 1.14419
55, 6, bw, filler, NA, 999, 999, 8, 3, 140, 95, 147, 159, 164, 63, 1, 0.617164
55, 6, bw, catch, NA, 999, 999, 8, 4, 127, 68, 106, 149, 167, 148, 3, 4.06228
55, 6, bw, catch, NA, 999, 999, 8, 4, 127, 68, 106, 149, 167, 148, 1, 0.673604
55, 6, bw, attraction, a-b-db, 14, 2, 8, 5, 165, 90, 90, 165, 83, 153, 1, 1.86799
55, 6, bw, attraction, a-b-db, 14, 2, 8, 5, 165, 90, 90, 165, 83, 153, 2, 0.928027
55, 6, bw, attraction, a-b-db, 9, 2, 8, 6, 165, 90, 90, 165, 86, 157, 2, 3.73641
55, 6, bw, attraction, a-b-db, 9, 2, 8, 6, 165, 90, 90, 165, 86, 157, 1, 0.841215
55, 6, bw, attraction, a-b-db, 5, 2, 8, 7, 90, 165, 165, 90, 88, 161, 1, 1.63692
55, 6, bw, attraction, a-b-db, 5, 2, 8, 7, 90, 165, 165, 90, 88, 161, 2, 0.546482
55, 6, bw, attraction, a-b-da, 9, 3, 8, 8, 120, 195, 186, 114, 195, 120, 3, 1.08209
55, 6, bw, attraction, a-b-da, 9, 3, 8, 8, 120, 195, 186, 114, 195, 120, 2, 0.525882
55, 6, bw, attraction, a-b-da, 5, 3, 8, 9, 195, 120, 120, 195, 190, 117, 2, 2.6863
55, 6, bw, attraction, a-b-da, 5, 3, 8, 9, 195, 120, 120, 195, 190, 117, 3, 0.657294
55, 6, bw, attraction, a-b-da, 14, 3, 8, 10, 195, 120, 181, 111, 120, 195, 1, 0.956363
55, 6, bw, attraction, a-b-da, 14, 3, 8, 10, 195, 120, 181, 111, 120, 195, 2, 0.588738
55, 6, bw, attraction, a-b-da, 2, 2, 8, 11, 165, 90, 90, 165, 163, 89, 2, 1.46725
55, 6, bw, attraction, a-b-da, 2, 2, 8, 11, 165, 90, 90, 165, 163, 89, 1, 0.583388
55, 6, bw, attraction, a-b-da, 14, 2, 8, 12, 165, 90, 90, 165, 153, 83, 2, 0.989782
55, 6, bw, attraction, a-b-da, 14, 2, 8, 12, 165, 90, 90, 165, 153, 83, 1, 1.1008
55, 6, bw, catch, NA, 999, 999, 8, 13, 167, 148, 81, 114, 116, 139, 1, 1.71835
55, 6, bw, catch, NA, 999, 999, 8, 13, 167, 148, 81, 114, 116, 139, 2, 0.57653
55, 6, bw, attraction, a-b-db, 9, 1, 8, 14, 57, 129, 60, 135, 135, 60, 2, 1.48689
55, 6, bw, attraction, a-b-db, 9, 1, 8, 14, 57, 129, 60, 135, 135, 60, 3, 0.610423
55, 6, bw, attraction, a-b-db, 9, 3, 8, 15, 114, 186, 195, 120, 120, 195, 1, 0.8716
55, 6, bw, attraction, a-b-db, 9, 3, 8, 15, 114, 186, 195, 120, 120, 195, 2, 0.491165
55, 6, bw, filler, NA, 999, 999, 8, 16, 101, 171, 134, 173, 109, 60, 2, 0.957019
55, 6, bw, filler, NA, 999, 999, 8, 16, 101, 171, 134, 173, 109, 60, 3, 0.765301
55, 6, bw, filler, NA, 999, 999, 8, 17, 148, 124, 126, 178, 163, 88, 2, 1.48436
55, 6, bw, filler, NA, 999, 999, 8, 17, 148, 124, 126, 178, 163, 88, 1, 0.511801
55, 6, bw, attraction, a-b-da, 9, 2, 8, 18, 165, 90, 157, 86, 90, 165, 3, 1.42492
55, 6, bw, attraction, a-b-da, 9, 2, 8, 18, 165, 90, 157, 86, 90, 165, 1, 1.48656
55, 6, bw, filler, NA, 999, 999, 8, 19, 75, 174, 102, 149, 184, 79, 2, 2.39272
55, 6, bw, filler, NA, 999, 999, 8, 19, 75, 174, 102, 149, 184, 79, 3, 0.431288
55, 6, bw, filler, NA, 999, 999, 8, 20, 98, 82, 95, 99, 175, 88, 3, 1.1318
55, 6, bw, filler, NA, 999, 999, 8, 20, 98, 82, 95, 99, 175, 88, 2, 0.501376
55, 6, bw, filler, NA, 999, 999, 8, 21, 194, 95, 173, 116, 84, 135, 2, 0.999074
55, 6, bw, filler, NA, 999, 999, 8, 21, 194, 95, 173, 116, 84, 135, 3, 0.446012
55, 6, bw, attraction, a-b-db, 2, 3, 8, 22, 119, 193, 195, 120, 120, 195, 2, 1.09785
55, 6, bw, attraction, a-b-db, 2, 3, 8, 22, 119, 193, 195, 120, 120, 195, 1, 0.452887
55, 6, bw, attraction, a-b-db, 2, 1, 8, 23, 59, 134, 135, 60, 60, 135, 3, 0.920667
55, 6, bw, attraction, a-b-db, 2, 1, 8, 23, 59, 134, 135, 60, 60, 135, 2, 0.443046
55, 6, bw, attraction, a-b-da, 2, 3, 8, 24, 120, 195, 193, 119, 195, 120, 2, 1.35077
55, 6, bw, attraction, a-b-da, 2, 3, 8, 24, 120, 195, 193, 119, 195, 120, 3, 1.29567
55, 6, bw, catch, NA, 999, 999, 8, 25, 99, 96, 162, 93, 177, 138, 3, 1.48926
55, 6, bw, catch, NA, 999, 999, 8, 25, 99, 96, 162, 93, 177, 138, 1, 0.748098
55, 6, bw, filler, NA, 999, 999, 8, 26, 116, 78, 75, 105, 97, 129, 3, 1.05179
55, 6, bw, filler, NA, 999, 999, 8, 26, 116, 78, 75, 105, 97, 129, 2, 0.760795
55, 6, bw, attraction, a-b-da, 5, 1, 8, 27, 60, 135, 135, 60, 132, 58, 1, 0.895722
55, 6, bw, attraction, a-b-da, 5, 1, 8, 27, 60, 135, 135, 60, 132, 58, 2, 1.17082
55, 6, bw, attraction, a-b-db, 14, 3, 8, 28, 120, 195, 111, 181, 195, 120, 1, 1.59367
55, 6, bw, attraction, a-b-db, 14, 3, 8, 28, 120, 195, 111, 181, 195, 120, 3, 1.39267
55, 6, bw, attraction, a-b-db, 5, 3, 8, 29, 120, 195, 117, 190, 195, 120, 1, 2.21403
55, 6, bw, attraction, a-b-db, 5, 3, 8, 29, 120, 195, 117, 190, 195, 120, 3, 0.699997
55, 6, bw, filler, NA, 999, 999, 8, 30, 117, 76, 122, 164, 178, 178, 3, 1.06174
55, 6, bw, filler, NA, 999, 999, 8, 30, 117, 76, 122, 164, 178, 178, 1, 1.40209
55, 6, bw, attraction, a-b-da, 14, 1, 8, 31, 135, 60, 125, 56, 60, 135, 1, 1.07953
55, 6, bw, attraction, a-b-da, 14, 1, 8, 31, 135, 60, 125, 56, 60, 135, 2, 0.411114
55, 6, bw, filler, NA, 999, 999, 8, 32, 85, 170, 187, 88, 124, 91, 1, 1.31228
55, 6, bw, filler, NA, 999, 999, 8, 32, 85, 170, 187, 88, 124, 91, 3, 0.522515
55, 6, bw, attraction, a-b-da, 5, 2, 8, 33, 165, 90, 161, 88, 90, 165, 2, 3.45159
55, 6, bw, attraction, a-b-da, 5, 2, 8, 33, 165, 90, 161, 88, 90, 165, 3, 0.863928
55, 6, bw, attraction, a-b-da, 2, 1, 8, 34, 134, 59, 135, 60, 60, 135, 1, 0.9789
55, 6, bw, attraction, a-b-da, 2, 1, 8, 34, 134, 59, 135, 60, 60, 135, 2, 0.658542
55, 6, bw, attraction, a-b-db, 5, 1, 8, 35, 58, 132, 60, 135, 135, 60, 3, 2.60556
55, 6, bw, attraction, a-b-db, 5, 1, 8, 35, 58, 132, 60, 135, 135, 60, 2, 1.17143
55, 6, bw, filler, NA, 999, 999, 8, 36, 56, 153, 68, 91, 141, 109, 3, 0.834368
55, 6, bw, filler, NA, 999, 999, 8, 36, 56, 153, 68, 91, 141, 109, 2, 0.696212
55, 6, bw, attraction, a-b-db, 14, 1, 8, 37, 60, 135, 135, 60, 56, 125, 2, 3.3297
55, 6, bw, attraction, a-b-db, 14, 1, 8, 37, 60, 135, 135, 60, 56, 125, 3, 1.15476
