sub_n, computer_n, bw_cond, effect, set, distance, diag, block_n, trial_n, h1, w1, h2, w2, h3, w3, choice, rt 
6, 6, wb, practice, NA, 999, 999, 0, 1, 184, 101, 133, 133, 114, 60, 3, 4.21592
6, 6, wb, practice, NA, 999, 999, 0, 1, 184, 101, 133, 133, 114, 60, 2, 11.2679
6, 6, wb, practice, NA, 999, 999, 0, 2, 137, 126, 173, 131, 108, 87, 3, 2.32905
6, 6, wb, practice, NA, 999, 999, 0, 2, 137, 126, 173, 131, 108, 87, 2, 0.961901
6, 6, wb, practice, NA, 999, 999, 0, 3, 69, 132, 86, 190, 69, 116, 3, 2.82901
6, 6, wb, practice, NA, 999, 999, 0, 3, 69, 132, 86, 190, 69, 116, 2, 0.882027
6, 6, wb, attraction, a-b-da, 9, 1, 1, 1, 129, 57, 60, 135, 135, 60, 1, 2.85052
6, 6, wb, attraction, a-b-da, 9, 1, 1, 1, 129, 57, 60, 135, 135, 60, 3, 1.72065
6, 6, wb, filler, NA, 999, 999, 1, 2, 123, 122, 157, 67, 102, 97, 2, 3.87279
6, 6, wb, filler, NA, 999, 999, 1, 2, 123, 122, 157, 67, 102, 97, 1, 1.19618
6, 6, wb, attraction, a-b-da, 2, 3, 1, 3, 195, 120, 193, 119, 120, 195, 2, 4.73854
6, 6, wb, attraction, a-b-da, 2, 3, 1, 3, 195, 120, 193, 119, 120, 195, 3, 0.804025
6, 6, wb, attraction, a-b-da, 2, 2, 1, 4, 90, 165, 165, 90, 163, 89, 3, 2.64984
6, 6, wb, attraction, a-b-da, 2, 2, 1, 4, 90, 165, 165, 90, 163, 89, 1, 0.828068
6, 6, wb, attraction, a-b-da, 5, 3, 1, 5, 120, 195, 195, 120, 190, 117, 3, 1.99446
6, 6, wb, attraction, a-b-da, 5, 3, 1, 5, 120, 195, 195, 120, 190, 117, 2, 0.825203
6, 6, wb, attraction, a-b-db, 9, 1, 1, 6, 57, 129, 135, 60, 60, 135, 1, 2.67125
6, 6, wb, attraction, a-b-db, 9, 1, 1, 6, 57, 129, 135, 60, 60, 135, 3, 0.953769
6, 6, wb, attraction, a-b-db, 5, 1, 1, 7, 60, 135, 135, 60, 58, 132, 2, 6.12261
6, 6, wb, attraction, a-b-db, 5, 1, 1, 7, 60, 135, 135, 60, 58, 132, 3, 0.85665
6, 6, wb, filler, NA, 999, 999, 1, 8, 167, 103, 187, 194, 170, 182, 1, 1.81368
6, 6, wb, filler, NA, 999, 999, 1, 8, 167, 103, 187, 194, 170, 182, 2, 0.817465
6, 6, wb, filler, NA, 999, 999, 1, 9, 83, 127, 139, 136, 93, 100, 3, 4.3607
6, 6, wb, filler, NA, 999, 999, 1, 9, 83, 127, 139, 136, 93, 100, 2, 1.42411
6, 6, wb, attraction, a-b-da, 9, 3, 1, 10, 186, 114, 120, 195, 195, 120, 1, 5.90009
6, 6, wb, attraction, a-b-da, 9, 3, 1, 10, 186, 114, 120, 195, 195, 120, 2, 1.62228
6, 6, wb, attraction, a-b-db, 9, 3, 1, 11, 114, 186, 120, 195, 195, 120, 1, 3.00421
6, 6, wb, attraction, a-b-db, 9, 3, 1, 11, 114, 186, 120, 195, 195, 120, 3, 1.10621
6, 6, wb, attraction, a-b-da, 14, 1, 1, 12, 135, 60, 125, 56, 60, 135, 2, 2.35513
6, 6, wb, attraction, a-b-da, 14, 1, 1, 12, 135, 60, 125, 56, 60, 135, 3, 2.76941
6, 6, wb, attraction, a-b-db, 5, 3, 1, 13, 195, 120, 117, 190, 120, 195, 2, 3.46656
6, 6, wb, attraction, a-b-db, 5, 3, 1, 13, 195, 120, 117, 190, 120, 195, 1, 0.924365
6, 6, wb, attraction, a-b-da, 9, 2, 1, 14, 157, 86, 90, 165, 165, 90, 1, 2.14945
6, 6, wb, attraction, a-b-da, 9, 2, 1, 14, 157, 86, 90, 165, 165, 90, 3, 0.846432
6, 6, wb, attraction, a-b-da, 14, 2, 1, 15, 90, 165, 165, 90, 153, 83, 1, 2.28135
6, 6, wb, attraction, a-b-da, 14, 2, 1, 15, 90, 165, 165, 90, 153, 83, 2, 2.95795
6, 6, wb, filler, NA, 999, 999, 1, 16, 154, 169, 88, 92, 193, 147, 2, 1.63893
6, 6, wb, filler, NA, 999, 999, 1, 16, 154, 169, 88, 92, 193, 147, 3, 1.05203
6, 6, wb, attraction, a-b-db, 2, 3, 1, 17, 119, 193, 195, 120, 120, 195, 1, 4.63878
6, 6, wb, attraction, a-b-db, 2, 3, 1, 17, 119, 193, 195, 120, 120, 195, 3, 0.811435
6, 6, wb, attraction, a-b-db, 2, 2, 1, 18, 90, 165, 89, 163, 165, 90, 2, 3.99293
6, 6, wb, attraction, a-b-db, 2, 2, 1, 18, 90, 165, 89, 163, 165, 90, 1, 0.801173
6, 6, wb, attraction, a-b-db, 9, 2, 1, 19, 90, 165, 86, 157, 165, 90, 2, 1.88693
6, 6, wb, attraction, a-b-db, 9, 2, 1, 19, 90, 165, 86, 157, 165, 90, 3, 0.825763
6, 6, wb, attraction, a-b-da, 5, 1, 1, 20, 135, 60, 60, 135, 132, 58, 3, 3.82999
6, 6, wb, attraction, a-b-da, 5, 1, 1, 20, 135, 60, 60, 135, 132, 58, 2, 0.803755
6, 6, wb, catch, NA, 999, 999, 1, 21, 115, 80, 192, 123, 139, 116, 1, 2.02308
6, 6, wb, catch, NA, 999, 999, 1, 21, 115, 80, 192, 123, 139, 116, 2, 1.24647
6, 6, wb, attraction, a-b-db, 2, 1, 1, 22, 59, 134, 60, 135, 135, 60, 2, 2.96151
6, 6, wb, attraction, a-b-db, 2, 1, 1, 22, 59, 134, 60, 135, 135, 60, 3, 1.02631
6, 6, wb, catch, NA, 999, 999, 1, 23, 121, 74, 103, 152, 151, 164, 1, 2.29573
6, 6, wb, catch, NA, 999, 999, 1, 23, 121, 74, 103, 152, 151, 164, 3, 0.895799
6, 6, wb, filler, NA, 999, 999, 1, 24, 150, 75, 86, 110, 165, 74, 2, 4.42914
6, 6, wb, filler, NA, 999, 999, 1, 24, 150, 75, 86, 110, 165, 74, 3, 1.15232
6, 6, wb, attraction, a-b-da, 5, 2, 1, 25, 90, 165, 161, 88, 165, 90, 2, 2.88789
6, 6, wb, attraction, a-b-da, 5, 2, 1, 25, 90, 165, 161, 88, 165, 90, 3, 0.969847
6, 6, wb, filler, NA, 999, 999, 1, 26, 174, 59, 108, 189, 147, 92, 1, 2.27463
6, 6, wb, filler, NA, 999, 999, 1, 26, 174, 59, 108, 189, 147, 92, 2, 1.19731
6, 6, wb, attraction, a-b-da, 14, 3, 1, 27, 120, 195, 195, 120, 181, 111, 3, 3.10738
6, 6, wb, attraction, a-b-da, 14, 3, 1, 27, 120, 195, 195, 120, 181, 111, 1, 0.982282
6, 6, wb, filler, NA, 999, 999, 1, 28, 83, 131, 69, 99, 168, 95, 2, 1.5649
6, 6, wb, filler, NA, 999, 999, 1, 28, 83, 131, 69, 99, 168, 95, 3, 0.964046
6, 6, wb, filler, NA, 999, 999, 1, 29, 79, 79, 178, 90, 162, 110, 1, 2.55455
6, 6, wb, filler, NA, 999, 999, 1, 29, 79, 79, 178, 90, 162, 110, 3, 0.755699
6, 6, wb, catch, NA, 999, 999, 1, 30, 163, 92, 73, 122, 144, 171, 2, 1.81124
6, 6, wb, catch, NA, 999, 999, 1, 30, 163, 92, 73, 122, 144, 171, 3, 0.802727
6, 6, wb, attraction, a-b-db, 14, 1, 1, 31, 135, 60, 60, 135, 56, 125, 3, 2.46335
6, 6, wb, attraction, a-b-db, 14, 1, 1, 31, 135, 60, 60, 135, 56, 125, 2, 1.41035
6, 6, wb, filler, NA, 999, 999, 1, 32, 72, 176, 122, 97, 135, 165, 2, 2.34626
6, 6, wb, filler, NA, 999, 999, 1, 32, 72, 176, 122, 97, 135, 165, 3, 1.45026
6, 6, wb, attraction, a-b-db, 14, 2, 1, 33, 83, 153, 165, 90, 90, 165, 1, 2.3019
6, 6, wb, attraction, a-b-db, 14, 2, 1, 33, 83, 153, 165, 90, 90, 165, 3, 2.02421
6, 6, wb, attraction, a-b-db, 14, 3, 1, 34, 195, 120, 120, 195, 111, 181, 3, 2.16504
6, 6, wb, attraction, a-b-db, 14, 3, 1, 34, 195, 120, 120, 195, 111, 181, 1, 0.748617
6, 6, wb, attraction, a-b-da, 2, 1, 1, 35, 135, 60, 60, 135, 134, 59, 3, 3.97915
6, 6, wb, attraction, a-b-da, 2, 1, 1, 35, 135, 60, 60, 135, 134, 59, 2, 2.62666
6, 6, wb, attraction, a-b-db, 5, 2, 1, 36, 88, 161, 165, 90, 90, 165, 1, 4.9185
6, 6, wb, attraction, a-b-db, 5, 2, 1, 36, 88, 161, 165, 90, 90, 165, 3, 1.78398
6, 6, wb, filler, NA, 999, 999, 1, 37, 103, 110, 194, 171, 85, 154, 1, 2.01361
6, 6, wb, filler, NA, 999, 999, 1, 37, 103, 110, 194, 171, 85, 154, 2, 0.867621
6, 6, wb, filler, NA, 999, 999, 2, 1, 147, 176, 91, 170, 57, 120, 3, 2.17585
6, 6, wb, filler, NA, 999, 999, 2, 1, 147, 176, 91, 170, 57, 120, 1, 1.71862
6, 6, wb, filler, NA, 999, 999, 2, 2, 191, 69, 146, 143, 59, 148, 3, 1.7461
6, 6, wb, filler, NA, 999, 999, 2, 2, 191, 69, 146, 143, 59, 148, 2, 0.712716
6, 6, wb, filler, NA, 999, 999, 2, 3, 126, 194, 89, 75, 67, 73, 3, 1.64993
6, 6, wb, filler, NA, 999, 999, 2, 3, 126, 194, 89, 75, 67, 73, 1, 0.717697
6, 6, wb, attraction, a-b-da, 5, 3, 2, 4, 190, 117, 120, 195, 195, 120, 1, 2.73598
6, 6, wb, attraction, a-b-da, 5, 3, 2, 4, 190, 117, 120, 195, 195, 120, 2, 0.649032
6, 6, wb, attraction, a-b-da, 2, 1, 2, 5, 135, 60, 60, 135, 134, 59, 3, 2.19562
6, 6, wb, attraction, a-b-da, 2, 1, 2, 5, 135, 60, 60, 135, 134, 59, 2, 0.699298
6, 6, wb, attraction, a-b-db, 14, 2, 2, 6, 165, 90, 83, 153, 90, 165, 2, 2.71661
6, 6, wb, attraction, a-b-db, 14, 2, 2, 6, 165, 90, 83, 153, 90, 165, 1, 0.647727
6, 6, wb, attraction, a-b-da, 14, 1, 2, 7, 125, 56, 135, 60, 60, 135, 1, 2.37865
6, 6, wb, attraction, a-b-da, 14, 1, 2, 7, 125, 56, 135, 60, 60, 135, 3, 0.914327
6, 6, wb, attraction, a-b-da, 9, 2, 2, 8, 165, 90, 157, 86, 90, 165, 2, 2.05273
6, 6, wb, attraction, a-b-da, 9, 2, 2, 8, 165, 90, 157, 86, 90, 165, 3, 2.95172
6, 6, wb, filler, NA, 999, 999, 2, 9, 127, 76, 58, 62, 129, 108, 2, 2.00548
6, 6, wb, filler, NA, 999, 999, 2, 9, 127, 76, 58, 62, 129, 108, 3, 1.27171
6, 6, wb, attraction, a-b-db, 5, 2, 2, 10, 88, 161, 165, 90, 90, 165, 3, 2.3615
6, 6, wb, attraction, a-b-db, 5, 2, 2, 10, 88, 161, 165, 90, 90, 165, 2, 2.72136
6, 6, wb, attraction, a-b-db, 9, 1, 2, 11, 135, 60, 57, 129, 60, 135, 2, 2.22457
6, 6, wb, attraction, a-b-db, 9, 1, 2, 11, 135, 60, 57, 129, 60, 135, 1, 0.70093
6, 6, wb, filler, NA, 999, 999, 2, 12, 101, 56, 133, 164, 173, 137, 1, 1.96101
6, 6, wb, filler, NA, 999, 999, 2, 12, 101, 56, 133, 164, 173, 137, 3, 2.35064
6, 6, wb, attraction, a-b-db, 9, 3, 2, 13, 195, 120, 114, 186, 120, 195, 2, 2.81443
6, 6, wb, attraction, a-b-db, 9, 3, 2, 13, 195, 120, 114, 186, 120, 195, 1, 0.614986
6, 6, wb, attraction, a-b-db, 2, 2, 2, 14, 89, 163, 165, 90, 90, 165, 1, 1.99305
6, 6, wb, attraction, a-b-db, 2, 2, 2, 14, 89, 163, 165, 90, 90, 165, 3, 0.99318
6, 6, wb, filler, NA, 999, 999, 2, 15, 166, 193, 187, 137, 100, 191, 3, 1.99091
6, 6, wb, filler, NA, 999, 999, 2, 15, 166, 193, 187, 137, 100, 191, 1, 0.743111
6, 6, wb, filler, NA, 999, 999, 2, 16, 176, 156, 120, 134, 194, 125, 2, 1.79263
6, 6, wb, filler, NA, 999, 999, 2, 16, 176, 156, 120, 134, 194, 125, 1, 0.663791
6, 6, wb, catch, NA, 999, 999, 2, 17, 144, 171, 109, 146, 71, 124, 3, 2.37127
6, 6, wb, catch, NA, 999, 999, 2, 17, 144, 171, 109, 146, 71, 124, 1, 0.803662
6, 6, wb, attraction, a-b-db, 14, 3, 2, 18, 195, 120, 111, 181, 120, 195, 2, 3.44025
6, 6, wb, attraction, a-b-db, 14, 3, 2, 18, 195, 120, 111, 181, 120, 195, 1, 0.598497
6, 6, wb, attraction, a-b-da, 5, 1, 2, 19, 135, 60, 60, 135, 132, 58, 2, 2.44288
6, 6, wb, attraction, a-b-da, 5, 1, 2, 19, 135, 60, 60, 135, 132, 58, 1, 3.88079
6, 6, wb, attraction, a-b-da, 9, 3, 2, 20, 195, 120, 186, 114, 120, 195, 2, 2.95275
6, 6, wb, attraction, a-b-da, 9, 3, 2, 20, 195, 120, 186, 114, 120, 195, 3, 0.690204
6, 6, wb, attraction, a-b-da, 14, 3, 2, 21, 181, 111, 120, 195, 195, 120, 1, 3.24419
6, 6, wb, attraction, a-b-da, 14, 3, 2, 21, 181, 111, 120, 195, 195, 120, 2, 0.762449
6, 6, wb, attraction, a-b-da, 14, 2, 2, 22, 165, 90, 153, 83, 90, 165, 2, 2.0653
6, 6, wb, attraction, a-b-da, 14, 2, 2, 22, 165, 90, 153, 83, 90, 165, 1, 0.541367
6, 6, wb, filler, NA, 999, 999, 2, 23, 71, 192, 190, 103, 178, 186, 1, 1.63989
6, 6, wb, filler, NA, 999, 999, 2, 23, 71, 192, 190, 103, 178, 186, 3, 2.38122
6, 6, wb, attraction, a-b-db, 14, 1, 2, 24, 60, 135, 56, 125, 135, 60, 3, 3.37717
6, 6, wb, attraction, a-b-db, 14, 1, 2, 24, 60, 135, 56, 125, 135, 60, 1, 0.841494
6, 6, wb, attraction, a-b-db, 2, 1, 2, 25, 60, 135, 59, 134, 135, 60, 3, 3.61402
6, 6, wb, attraction, a-b-db, 2, 1, 2, 25, 60, 135, 59, 134, 135, 60, 1, 1.00994
6, 6, wb, filler, NA, 999, 999, 2, 26, 91, 128, 122, 137, 102, 129, 1, 1.87273
6, 6, wb, filler, NA, 999, 999, 2, 26, 91, 128, 122, 137, 102, 129, 2, 0.659807
6, 6, wb, catch, NA, 999, 999, 2, 27, 185, 130, 75, 120, 140, 115, 2, 2.73798
6, 6, wb, catch, NA, 999, 999, 2, 27, 185, 130, 75, 120, 140, 115, 1, 1.00024
6, 6, wb, attraction, a-b-da, 9, 1, 2, 28, 60, 135, 135, 60, 129, 57, 2, 3.79184
6, 6, wb, attraction, a-b-da, 9, 1, 2, 28, 60, 135, 135, 60, 129, 57, 1, 0.971783
6, 6, wb, attraction, a-b-da, 2, 2, 2, 29, 90, 165, 165, 90, 163, 89, 3, 3.43572
6, 6, wb, attraction, a-b-da, 2, 2, 2, 29, 90, 165, 165, 90, 163, 89, 1, 0.73781
6, 6, wb, attraction, a-b-db, 9, 2, 2, 30, 165, 90, 86, 157, 90, 165, 2, 2.89067
6, 6, wb, attraction, a-b-db, 9, 2, 2, 30, 165, 90, 86, 157, 90, 165, 3, 1.79645
6, 6, wb, attraction, a-b-db, 5, 1, 2, 31, 135, 60, 58, 132, 60, 135, 1, 3.07582
6, 6, wb, attraction, a-b-db, 5, 1, 2, 31, 135, 60, 58, 132, 60, 135, 3, 0.895208
6, 6, wb, attraction, a-b-da, 2, 3, 2, 32, 195, 120, 193, 119, 120, 195, 2, 3.60841
6, 6, wb, attraction, a-b-da, 2, 3, 2, 32, 195, 120, 193, 119, 120, 195, 1, 2.13343
6, 6, wb, catch, NA, 999, 999, 2, 33, 157, 98, 156, 159, 68, 127, 3, 2.18944
6, 6, wb, catch, NA, 999, 999, 2, 33, 157, 98, 156, 159, 68, 127, 2, 0.684619
6, 6, wb, attraction, a-b-da, 5, 2, 2, 34, 161, 88, 90, 165, 165, 90, 1, 2.24049
6, 6, wb, attraction, a-b-da, 5, 2, 2, 34, 161, 88, 90, 165, 165, 90, 3, 0.838821
6, 6, wb, attraction, a-b-db, 2, 3, 2, 35, 120, 195, 119, 193, 195, 120, 2, 3.12408
6, 6, wb, attraction, a-b-db, 2, 3, 2, 35, 120, 195, 119, 193, 195, 120, 1, 0.634709
6, 6, wb, filler, NA, 999, 999, 2, 36, 157, 106, 113, 184, 97, 81, 3, 1.86416
6, 6, wb, filler, NA, 999, 999, 2, 36, 157, 106, 113, 184, 97, 81, 2, 0.818829
6, 6, wb, attraction, a-b-db, 5, 3, 2, 37, 117, 190, 120, 195, 195, 120, 3, 3.12224
6, 6, wb, attraction, a-b-db, 5, 3, 2, 37, 117, 190, 120, 195, 195, 120, 1, 1.40335
6, 6, wb, filler, NA, 999, 999, 3, 1, 71, 179, 160, 94, 130, 82, 3, 1.49621
6, 6, wb, filler, NA, 999, 999, 3, 1, 71, 179, 160, 94, 130, 82, 2, 1.41808
6, 6, wb, catch, NA, 999, 999, 3, 2, 69, 126, 151, 104, 143, 172, 1, 1.42376
6, 6, wb, catch, NA, 999, 999, 3, 2, 69, 126, 151, 104, 143, 172, 3, 0.574811
6, 6, wb, filler, NA, 999, 999, 3, 3, 141, 192, 134, 149, 186, 135, 2, 3.90888
6, 6, wb, filler, NA, 999, 999, 3, 3, 141, 192, 134, 149, 186, 135, 3, 1.97516
6, 6, wb, attraction, a-b-db, 5, 3, 3, 4, 120, 195, 195, 120, 117, 190, 2, 4.43705
6, 6, wb, attraction, a-b-db, 5, 3, 3, 4, 120, 195, 195, 120, 117, 190, 1, 0.6342
6, 6, wb, filler, NA, 999, 999, 3, 5, 86, 171, 80, 62, 163, 61, 2, 1.58173
6, 6, wb, filler, NA, 999, 999, 3, 5, 86, 171, 80, 62, 163, 61, 1, 0.757723
6, 6, wb, attraction, a-b-da, 14, 1, 3, 6, 135, 60, 60, 135, 125, 56, 3, 1.93561
6, 6, wb, attraction, a-b-da, 14, 1, 3, 6, 135, 60, 60, 135, 125, 56, 2, 2.07137
6, 6, wb, filler, NA, 999, 999, 3, 7, 140, 96, 104, 71, 80, 111, 2, 3.11382
6, 6, wb, filler, NA, 999, 999, 3, 7, 140, 96, 104, 71, 80, 111, 1, 0.620768
6, 6, wb, attraction, a-b-da, 9, 3, 3, 8, 120, 195, 195, 120, 186, 114, 3, 1.69707
6, 6, wb, attraction, a-b-da, 9, 3, 3, 8, 120, 195, 195, 120, 186, 114, 1, 0.852237
6, 6, wb, filler, NA, 999, 999, 3, 9, 135, 188, 162, 142, 147, 122, 3, 6.06257
6, 6, wb, filler, NA, 999, 999, 3, 9, 135, 188, 162, 142, 147, 122, 1, 3.97748
6, 6, wb, attraction, a-b-db, 2, 2, 3, 10, 90, 165, 165, 90, 89, 163, 1, 2.6328
6, 6, wb, attraction, a-b-db, 2, 2, 3, 10, 90, 165, 165, 90, 89, 163, 3, 2.03048
6, 6, wb, attraction, a-b-db, 14, 2, 3, 11, 165, 90, 83, 153, 90, 165, 2, 4.53106
6, 6, wb, attraction, a-b-db, 14, 2, 3, 11, 165, 90, 83, 153, 90, 165, 1, 0.924815
6, 6, wb, filler, NA, 999, 999, 3, 12, 133, 109, 62, 69, 112, 135, 2, 1.29357
6, 6, wb, filler, NA, 999, 999, 3, 12, 133, 109, 62, 69, 112, 135, 3, 4.51953
6, 6, wb, filler, NA, 999, 999, 3, 13, 78, 191, 101, 158, 161, 179, 1, 3.44731
6, 6, wb, filler, NA, 999, 999, 3, 13, 78, 191, 101, 158, 161, 179, 3, 0.587669
6, 6, wb, attraction, a-b-da, 14, 2, 3, 14, 90, 165, 153, 83, 165, 90, 2, 2.18684
6, 6, wb, attraction, a-b-da, 14, 2, 3, 14, 90, 165, 153, 83, 165, 90, 1, 0.817415
6, 6, wb, attraction, a-b-db, 9, 2, 3, 15, 165, 90, 90, 165, 86, 157, 3, 3.49305
6, 6, wb, attraction, a-b-db, 9, 2, 3, 15, 165, 90, 90, 165, 86, 157, 2, 1.88868
6, 6, wb, attraction, a-b-da, 2, 1, 3, 16, 60, 135, 135, 60, 134, 59, 3, 2.07598
6, 6, wb, attraction, a-b-da, 2, 1, 3, 16, 60, 135, 135, 60, 134, 59, 2, 2.4318
6, 6, wb, attraction, a-b-db, 2, 1, 3, 17, 59, 134, 135, 60, 60, 135, 1, 3.58757
6, 6, wb, attraction, a-b-db, 2, 1, 3, 17, 59, 134, 135, 60, 60, 135, 3, 0.690619
6, 6, wb, attraction, a-b-da, 5, 3, 3, 18, 120, 195, 195, 120, 190, 117, 3, 4.05308
6, 6, wb, attraction, a-b-da, 5, 3, 3, 18, 120, 195, 195, 120, 190, 117, 1, 2.20803
6, 6, wb, attraction, a-b-da, 2, 2, 3, 19, 165, 90, 163, 89, 90, 165, 1, 3.87943
6, 6, wb, attraction, a-b-da, 2, 2, 3, 19, 165, 90, 163, 89, 90, 165, 3, 1.15898
6, 6, wb, attraction, a-b-da, 9, 2, 3, 20, 90, 165, 157, 86, 165, 90, 2, 3.23139
6, 6, wb, attraction, a-b-da, 9, 2, 3, 20, 90, 165, 157, 86, 165, 90, 1, 1.12503
6, 6, wb, attraction, a-b-db, 5, 1, 3, 21, 58, 132, 60, 135, 135, 60, 1, 8.03765
6, 6, wb, attraction, a-b-db, 5, 1, 3, 21, 58, 132, 60, 135, 135, 60, 2, 0.59266
6, 6, wb, attraction, a-b-db, 14, 3, 3, 22, 111, 181, 120, 195, 195, 120, 1, 3.91167
6, 6, wb, attraction, a-b-db, 14, 3, 3, 22, 111, 181, 120, 195, 195, 120, 2, 1.28918
6, 6, wb, attraction, a-b-db, 9, 3, 3, 23, 114, 186, 120, 195, 195, 120, 1, 2.37873
6, 6, wb, attraction, a-b-db, 9, 3, 3, 23, 114, 186, 120, 195, 195, 120, 2, 2.69849
6, 6, wb, catch, NA, 999, 999, 3, 24, 111, 144, 142, 173, 76, 119, 3, 1.47487
6, 6, wb, catch, NA, 999, 999, 3, 24, 111, 144, 142, 173, 76, 119, 2, 0.647533
6, 6, wb, catch, NA, 999, 999, 3, 25, 64, 131, 91, 164, 146, 169, 1, 5.48155
6, 6, wb, catch, NA, 999, 999, 3, 25, 64, 131, 91, 164, 146, 169, 2, 0.989232
6, 6, wb, attraction, a-b-da, 9, 1, 3, 26, 135, 60, 129, 57, 60, 135, 1, 4.53171
6, 6, wb, attraction, a-b-da, 9, 1, 3, 26, 135, 60, 129, 57, 60, 135, 3, 3.07785
6, 6, wb, attraction, a-b-db, 2, 3, 3, 27, 120, 195, 195, 120, 119, 193, 3, 2.46333
6, 6, wb, attraction, a-b-db, 2, 3, 3, 27, 120, 195, 195, 120, 119, 193, 1, 1.21959
6, 6, wb, filler, NA, 999, 999, 3, 28, 56, 122, 166, 166, 134, 167, 1, 1.47243
6, 6, wb, filler, NA, 999, 999, 3, 28, 56, 122, 166, 166, 134, 167, 2, 0.739938
6, 6, wb, attraction, a-b-da, 14, 3, 3, 29, 181, 111, 120, 195, 195, 120, 1, 2.49326
6, 6, wb, attraction, a-b-da, 14, 3, 3, 29, 181, 111, 120, 195, 195, 120, 2, 0.625316
6, 6, wb, filler, NA, 999, 999, 3, 30, 70, 174, 67, 166, 118, 72, 3, 1.69998
6, 6, wb, filler, NA, 999, 999, 3, 30, 70, 174, 67, 166, 118, 72, 1, 0.79216
6, 6, wb, attraction, a-b-db, 14, 1, 3, 31, 56, 125, 60, 135, 135, 60, 1, 3.47208
6, 6, wb, attraction, a-b-db, 14, 1, 3, 31, 56, 125, 60, 135, 135, 60, 3, 0.775918
6, 6, wb, filler, NA, 999, 999, 3, 32, 148, 158, 167, 123, 100, 185, 3, 13.8321
6, 6, wb, filler, NA, 999, 999, 3, 32, 148, 158, 167, 123, 100, 185, 1, 0.730888
6, 6, wb, attraction, a-b-da, 2, 3, 3, 33, 193, 119, 120, 195, 195, 120, 3, 2.59449
6, 6, wb, attraction, a-b-da, 2, 3, 3, 33, 193, 119, 120, 195, 195, 120, 2, 0.720283
6, 6, wb, attraction, a-b-db, 9, 1, 3, 34, 135, 60, 57, 129, 60, 135, 2, 5.40973
6, 6, wb, attraction, a-b-db, 9, 1, 3, 34, 135, 60, 57, 129, 60, 135, 3, 0.848182
6, 6, wb, attraction, a-b-da, 5, 2, 3, 35, 165, 90, 90, 165, 161, 88, 3, 2.79529
6, 6, wb, attraction, a-b-da, 5, 2, 3, 35, 165, 90, 90, 165, 161, 88, 1, 2.08846
6, 6, wb, attraction, a-b-db, 5, 2, 3, 36, 90, 165, 88, 161, 165, 90, 2, 3.55499
6, 6, wb, attraction, a-b-db, 5, 2, 3, 36, 90, 165, 88, 161, 165, 90, 1, 0.75683
6, 6, wb, attraction, a-b-da, 5, 1, 3, 37, 60, 135, 132, 58, 135, 60, 2, 4.44357
6, 6, wb, attraction, a-b-da, 5, 1, 3, 37, 60, 135, 132, 58, 135, 60, 3, 1.2867
6, 6, wb, filler, NA, 999, 999, 4, 1, 103, 193, 130, 148, 187, 195, 1, 8.2181
6, 6, wb, filler, NA, 999, 999, 4, 1, 103, 193, 130, 148, 187, 195, 3, 0.830465
6, 6, wb, attraction, a-b-da, 9, 3, 4, 2, 186, 114, 120, 195, 195, 120, 3, 4.53913
6, 6, wb, attraction, a-b-da, 9, 3, 4, 2, 186, 114, 120, 195, 195, 120, 2, 2.03748
6, 6, wb, filler, NA, 999, 999, 4, 3, 170, 195, 136, 146, 87, 73, 3, 1.4817
6, 6, wb, filler, NA, 999, 999, 4, 3, 170, 195, 136, 146, 87, 73, 1, 0.653988
6, 6, wb, attraction, a-b-db, 2, 3, 4, 4, 119, 193, 195, 120, 120, 195, 1, 3.96033
6, 6, wb, attraction, a-b-db, 2, 3, 4, 4, 119, 193, 195, 120, 120, 195, 3, 0.999437
6, 6, wb, attraction, a-b-db, 5, 3, 4, 5, 117, 190, 195, 120, 120, 195, 1, 3.2623
6, 6, wb, attraction, a-b-db, 5, 3, 4, 5, 117, 190, 195, 120, 120, 195, 3, 0.777546
6, 6, wb, attraction, a-b-da, 5, 2, 4, 6, 161, 88, 165, 90, 90, 165, 2, 7.28904
6, 6, wb, attraction, a-b-da, 5, 2, 4, 6, 161, 88, 165, 90, 90, 165, 3, 0.617253
6, 6, wb, attraction, a-b-db, 2, 1, 4, 7, 60, 135, 135, 60, 59, 134, 2, 2.54459
6, 6, wb, attraction, a-b-db, 2, 1, 4, 7, 60, 135, 135, 60, 59, 134, 3, 0.582676
6, 6, wb, filler, NA, 999, 999, 4, 8, 158, 165, 87, 121, 148, 137, 2, 2.6722
6, 6, wb, filler, NA, 999, 999, 4, 8, 158, 165, 87, 121, 148, 137, 1, 0.620121
6, 6, wb, attraction, a-b-db, 9, 2, 4, 9, 165, 90, 90, 165, 86, 157, 3, 7.62496
6, 6, wb, attraction, a-b-db, 9, 2, 4, 9, 165, 90, 90, 165, 86, 157, 1, 1.56321
6, 6, wb, attraction, a-b-da, 5, 1, 4, 10, 132, 58, 60, 135, 135, 60, 1, 1.93059
6, 6, wb, attraction, a-b-da, 5, 1, 4, 10, 132, 58, 60, 135, 135, 60, 3, 2.02692
6, 6, wb, attraction, a-b-da, 2, 2, 4, 11, 90, 165, 163, 89, 165, 90, 2, 6.43168
6, 6, wb, attraction, a-b-da, 2, 2, 4, 11, 90, 165, 163, 89, 165, 90, 1, 0.685555
6, 6, wb, attraction, a-b-db, 2, 2, 4, 12, 89, 163, 90, 165, 165, 90, 3, 4.3291
6, 6, wb, attraction, a-b-db, 2, 2, 4, 12, 89, 163, 90, 165, 165, 90, 2, 0.55211
6, 6, wb, filler, NA, 999, 999, 4, 13, 123, 84, 80, 95, 129, 115, 2, 1.29616
6, 6, wb, filler, NA, 999, 999, 4, 13, 123, 84, 80, 95, 129, 115, 3, 0.594597
6, 6, wb, attraction, a-b-da, 5, 3, 4, 14, 190, 117, 120, 195, 195, 120, 3, 6.51321
6, 6, wb, attraction, a-b-da, 5, 3, 4, 14, 190, 117, 120, 195, 195, 120, 2, 0.60951
6, 6, wb, filler, NA, 999, 999, 4, 15, 180, 164, 131, 84, 190, 106, 2, 1.353
6, 6, wb, filler, NA, 999, 999, 4, 15, 180, 164, 131, 84, 190, 106, 1, 0.60872
6, 6, wb, attraction, a-b-da, 14, 3, 4, 16, 181, 111, 195, 120, 120, 195, 1, 2.56459
6, 6, wb, attraction, a-b-da, 14, 3, 4, 16, 181, 111, 195, 120, 120, 195, 2, 0.543286
6, 6, wb, attraction, a-b-db, 5, 2, 4, 17, 88, 161, 90, 165, 165, 90, 3, 2.59049
6, 6, wb, attraction, a-b-db, 5, 2, 4, 17, 88, 161, 90, 165, 165, 90, 2, 0.565756
6, 6, wb, catch, NA, 999, 999, 4, 18, 139, 116, 102, 93, 161, 154, 2, 1.1809
6, 6, wb, catch, NA, 999, 999, 4, 18, 139, 116, 102, 93, 161, 154, 3, 0.547126
6, 6, wb, filler, NA, 999, 999, 4, 19, 98, 98, 110, 140, 162, 157, 1, 1.5012
6, 6, wb, filler, NA, 999, 999, 4, 19, 98, 98, 110, 140, 162, 157, 3, 0.558961
6, 6, wb, attraction, a-b-da, 2, 1, 4, 20, 135, 60, 60, 135, 134, 59, 3, 3.49531
6, 6, wb, attraction, a-b-da, 2, 1, 4, 20, 135, 60, 60, 135, 134, 59, 2, 0.626948
6, 6, wb, filler, NA, 999, 999, 4, 21, 169, 174, 76, 168, 117, 100, 3, 2.62341
6, 6, wb, filler, NA, 999, 999, 4, 21, 169, 174, 76, 168, 117, 100, 1, 0.620667
6, 6, wb, attraction, a-b-da, 14, 1, 4, 22, 125, 56, 60, 135, 135, 60, 1, 4.0908
6, 6, wb, attraction, a-b-da, 14, 1, 4, 22, 125, 56, 60, 135, 135, 60, 2, 0.678138
6, 6, wb, filler, NA, 999, 999, 4, 23, 187, 149, 93, 139, 153, 64, 3, 4.71093
6, 6, wb, filler, NA, 999, 999, 4, 23, 187, 149, 93, 139, 153, 64, 1, 0.648924
6, 6, wb, attraction, a-b-db, 5, 1, 4, 24, 135, 60, 60, 135, 58, 132, 3, 1.98924
6, 6, wb, attraction, a-b-db, 5, 1, 4, 24, 135, 60, 60, 135, 58, 132, 1, 2.96463
6, 6, wb, filler, NA, 999, 999, 4, 25, 74, 183, 178, 132, 109, 119, 3, 9.93133
6, 6, wb, filler, NA, 999, 999, 4, 25, 74, 183, 178, 132, 109, 119, 2, 0.538208
6, 6, wb, attraction, a-b-da, 14, 2, 4, 26, 153, 83, 165, 90, 90, 165, 1, 1.86523
6, 6, wb, attraction, a-b-da, 14, 2, 4, 26, 153, 83, 165, 90, 90, 165, 3, 0.583567
6, 6, wb, catch, NA, 999, 999, 4, 27, 163, 152, 154, 101, 91, 104, 3, 1.50999
6, 6, wb, catch, NA, 999, 999, 4, 27, 163, 152, 154, 101, 91, 104, 1, 4.50178
6, 6, wb, attraction, a-b-db, 9, 1, 4, 28, 60, 135, 135, 60, 57, 129, 2, 5.43391
6, 6, wb, attraction, a-b-db, 9, 1, 4, 28, 60, 135, 135, 60, 57, 129, 1, 1.76474
6, 6, wb, attraction, a-b-da, 9, 1, 4, 29, 135, 60, 129, 57, 60, 135, 2, 2.23561
6, 6, wb, attraction, a-b-da, 9, 1, 4, 29, 135, 60, 129, 57, 60, 135, 1, 0.826022
6, 6, wb, attraction, a-b-db, 9, 3, 4, 30, 195, 120, 120, 195, 114, 186, 3, 9.98299
6, 6, wb, attraction, a-b-db, 9, 3, 4, 30, 195, 120, 120, 195, 114, 186, 1, 0.633574
6, 6, wb, attraction, a-b-da, 9, 2, 4, 31, 90, 165, 165, 90, 157, 86, 3, 2.27108
6, 6, wb, attraction, a-b-da, 9, 2, 4, 31, 90, 165, 165, 90, 157, 86, 1, 2.83384
6, 6, wb, catch, NA, 999, 999, 4, 32, 132, 183, 96, 99, 152, 103, 2, 1.3185
6, 6, wb, catch, NA, 999, 999, 4, 32, 132, 183, 96, 99, 152, 103, 1, 0.67299
6, 6, wb, attraction, a-b-db, 14, 3, 4, 33, 120, 195, 111, 181, 195, 120, 2, 3.46549
6, 6, wb, attraction, a-b-db, 14, 3, 4, 33, 120, 195, 111, 181, 195, 120, 3, 0.709329
6, 6, wb, attraction, a-b-db, 14, 1, 4, 34, 56, 125, 135, 60, 60, 135, 1, 1.96013
6, 6, wb, attraction, a-b-db, 14, 1, 4, 34, 56, 125, 135, 60, 60, 135, 3, 2.98595
6, 6, wb, filler, NA, 999, 999, 4, 35, 101, 144, 155, 121, 152, 192, 1, 2.37614
6, 6, wb, filler, NA, 999, 999, 4, 35, 101, 144, 155, 121, 152, 192, 3, 0.6236
6, 6, wb, attraction, a-b-da, 2, 3, 4, 36, 120, 195, 193, 119, 195, 120, 3, 5.16284
6, 6, wb, attraction, a-b-da, 2, 3, 4, 36, 120, 195, 193, 119, 195, 120, 1, 1.59771
6, 6, wb, attraction, a-b-db, 14, 2, 4, 37, 165, 90, 90, 165, 83, 153, 3, 1.92987
6, 6, wb, attraction, a-b-db, 14, 2, 4, 37, 165, 90, 90, 165, 83, 153, 1, 0.713989
6, 6, wb, attraction, a-b-db, 2, 2, 5, 1, 89, 163, 165, 90, 90, 165, 1, 11.5003
6, 6, wb, attraction, a-b-db, 2, 2, 5, 1, 89, 163, 165, 90, 90, 165, 3, 0.713606
6, 6, wb, catch, NA, 999, 999, 5, 2, 146, 169, 82, 113, 118, 137, 2, 3.85175
6, 6, wb, catch, NA, 999, 999, 5, 2, 146, 169, 82, 113, 118, 137, 1, 0.657443
6, 6, wb, filler, NA, 999, 999, 5, 3, 99, 156, 125, 110, 94, 121, 3, 2.12316
6, 6, wb, filler, NA, 999, 999, 5, 3, 99, 156, 125, 110, 94, 121, 1, 0.719054
6, 6, wb, attraction, a-b-da, 2, 1, 5, 4, 60, 135, 135, 60, 134, 59, 2, 3.70282
6, 6, wb, attraction, a-b-da, 2, 1, 5, 4, 60, 135, 135, 60, 134, 59, 1, 3.28973
6, 6, wb, attraction, a-b-da, 14, 1, 5, 5, 125, 56, 60, 135, 135, 60, 1, 1.78684
6, 6, wb, attraction, a-b-da, 14, 1, 5, 5, 125, 56, 60, 135, 135, 60, 2, 0.705486
6, 6, wb, attraction, a-b-da, 5, 1, 5, 6, 132, 58, 135, 60, 60, 135, 1, 2.16973
6, 6, wb, attraction, a-b-da, 5, 1, 5, 6, 132, 58, 135, 60, 60, 135, 3, 0.819159
6, 6, wb, attraction, a-b-da, 9, 1, 5, 7, 60, 135, 129, 57, 135, 60, 2, 19.5605
6, 6, wb, attraction, a-b-da, 9, 1, 5, 7, 60, 135, 129, 57, 135, 60, 1, 0.650116
6, 6, wb, attraction, a-b-db, 9, 3, 5, 8, 195, 120, 114, 186, 120, 195, 2, 2.09667
6, 6, wb, attraction, a-b-db, 9, 3, 5, 8, 195, 120, 114, 186, 120, 195, 1, 0.641696
6, 6, wb, attraction, a-b-db, 2, 1, 5, 9, 59, 134, 135, 60, 60, 135, 1, 2.4777
6, 6, wb, attraction, a-b-db, 2, 1, 5, 9, 59, 134, 135, 60, 60, 135, 2, 1.91521
6, 6, wb, attraction, a-b-db, 9, 2, 5, 10, 90, 165, 165, 90, 86, 157, 3, 4.54048
6, 6, wb, attraction, a-b-db, 9, 2, 5, 10, 90, 165, 165, 90, 86, 157, 1, 0.674272
6, 6, wb, attraction, a-b-db, 14, 2, 5, 11, 165, 90, 90, 165, 83, 153, 3, 2.43961
6, 6, wb, attraction, a-b-db, 14, 2, 5, 11, 165, 90, 90, 165, 83, 153, 2, 3.3706
6, 6, wb, catch, NA, 999, 999, 5, 12, 152, 163, 90, 105, 157, 98, 2, 3.35516
6, 6, wb, catch, NA, 999, 999, 5, 12, 152, 163, 90, 105, 157, 98, 1, 0.650754
6, 6, wb, filler, NA, 999, 999, 5, 13, 176, 102, 144, 136, 57, 153, 3, 1.85302
6, 6, wb, filler, NA, 999, 999, 5, 13, 176, 102, 144, 136, 57, 153, 2, 4.09805
6, 6, wb, attraction, a-b-db, 14, 3, 5, 14, 111, 181, 195, 120, 120, 195, 1, 2.33901
6, 6, wb, attraction, a-b-db, 14, 3, 5, 14, 111, 181, 195, 120, 120, 195, 3, 1.53381
6, 6, wb, filler, NA, 999, 999, 5, 15, 108, 67, 185, 65, 152, 110, 1, 1.58187
6, 6, wb, filler, NA, 999, 999, 5, 15, 108, 67, 185, 65, 152, 110, 3, 3.06764
6, 6, wb, attraction, a-b-db, 5, 3, 5, 16, 120, 195, 195, 120, 117, 190, 3, 2.2079
6, 6, wb, attraction, a-b-db, 5, 3, 5, 16, 120, 195, 195, 120, 117, 190, 1, 0.830692
6, 6, wb, attraction, a-b-da, 5, 3, 5, 17, 195, 120, 120, 195, 190, 117, 3, 2.04348
6, 6, wb, attraction, a-b-da, 5, 3, 5, 17, 195, 120, 120, 195, 190, 117, 2, 1.43967
6, 6, wb, attraction, a-b-db, 5, 1, 5, 18, 58, 132, 135, 60, 60, 135, 2, 4.80336
6, 6, wb, attraction, a-b-db, 5, 1, 5, 18, 58, 132, 135, 60, 60, 135, 3, 0.681664
6, 6, wb, attraction, a-b-da, 2, 3, 5, 19, 193, 119, 195, 120, 120, 195, 2, 4.45094
6, 6, wb, attraction, a-b-da, 2, 3, 5, 19, 193, 119, 195, 120, 120, 195, 3, 0.680462
6, 6, wb, attraction, a-b-da, 14, 3, 5, 20, 181, 111, 120, 195, 195, 120, 1, 2.05891
6, 6, wb, attraction, a-b-da, 14, 3, 5, 20, 181, 111, 120, 195, 195, 120, 2, 2.28069
6, 6, wb, filler, NA, 999, 999, 5, 21, 150, 91, 109, 98, 106, 56, 3, 2.13937
6, 6, wb, filler, NA, 999, 999, 5, 21, 150, 91, 109, 98, 106, 56, 1, 0.629341
6, 6, wb, filler, NA, 999, 999, 5, 22, 179, 162, 93, 188, 157, 183, 2, 3.3703
6, 6, wb, filler, NA, 999, 999, 5, 22, 179, 162, 93, 188, 157, 183, 1, 0.67898
6, 6, wb, attraction, a-b-da, 2, 2, 5, 23, 163, 89, 90, 165, 165, 90, 2, 6.09913
6, 6, wb, attraction, a-b-da, 2, 2, 5, 23, 163, 89, 90, 165, 165, 90, 1, 0.755728
6, 6, wb, attraction, a-b-db, 9, 1, 5, 24, 135, 60, 57, 129, 60, 135, 2, 3.85404
6, 6, wb, attraction, a-b-db, 9, 1, 5, 24, 135, 60, 57, 129, 60, 135, 1, 1.6962
6, 6, wb, attraction, a-b-da, 14, 2, 5, 25, 165, 90, 90, 165, 153, 83, 3, 2.61958
6, 6, wb, attraction, a-b-da, 14, 2, 5, 25, 165, 90, 90, 165, 153, 83, 2, 1.38535
6, 6, wb, filler, NA, 999, 999, 5, 26, 95, 119, 136, 64, 179, 171, 2, 3.23682
6, 6, wb, filler, NA, 999, 999, 5, 26, 95, 119, 136, 64, 179, 171, 3, 0.674254
6, 6, wb, filler, NA, 999, 999, 5, 27, 92, 176, 115, 195, 122, 83, 3, 4.46964
6, 6, wb, filler, NA, 999, 999, 5, 27, 92, 176, 115, 195, 122, 83, 2, 0.523772
6, 6, wb, catch, NA, 999, 999, 5, 28, 124, 191, 154, 101, 112, 83, 3, 1.97156
6, 6, wb, catch, NA, 999, 999, 5, 28, 124, 191, 154, 101, 112, 83, 1, 1.65132
6, 6, wb, filler, NA, 999, 999, 5, 29, 167, 99, 106, 84, 108, 70, 3, 2.4138
6, 6, wb, filler, NA, 999, 999, 5, 29, 167, 99, 106, 84, 108, 70, 1, 0.596447
6, 6, wb, filler, NA, 999, 999, 5, 30, 145, 183, 178, 59, 139, 68, 3, 1.79475
6, 6, wb, filler, NA, 999, 999, 5, 30, 145, 183, 178, 59, 139, 68, 1, 0.586525
6, 6, wb, filler, NA, 999, 999, 5, 31, 99, 155, 61, 168, 118, 67, 3, 2.9607
6, 6, wb, filler, NA, 999, 999, 5, 31, 99, 155, 61, 168, 118, 67, 1, 0.632771
6, 6, wb, attraction, a-b-da, 9, 3, 5, 32, 195, 120, 120, 195, 186, 114, 3, 1.83507
6, 6, wb, attraction, a-b-da, 9, 3, 5, 32, 195, 120, 120, 195, 186, 114, 1, 2.8095
6, 6, wb, attraction, a-b-db, 14, 1, 5, 33, 135, 60, 60, 135, 56, 125, 3, 3.94251
6, 6, wb, attraction, a-b-db, 14, 1, 5, 33, 135, 60, 60, 135, 56, 125, 2, 0.663808
6, 6, wb, attraction, a-b-da, 9, 2, 5, 34, 165, 90, 90, 165, 157, 86, 3, 4.00282
6, 6, wb, attraction, a-b-da, 9, 2, 5, 34, 165, 90, 90, 165, 157, 86, 2, 1.57727
6, 6, wb, attraction, a-b-db, 5, 2, 5, 35, 90, 165, 165, 90, 88, 161, 3, 3.04695
6, 6, wb, attraction, a-b-db, 5, 2, 5, 35, 90, 165, 165, 90, 88, 161, 2, 2.78804
6, 6, wb, attraction, a-b-da, 5, 2, 5, 36, 161, 88, 165, 90, 90, 165, 1, 6.45818
6, 6, wb, attraction, a-b-da, 5, 2, 5, 36, 161, 88, 165, 90, 90, 165, 3, 3.66999
6, 6, wb, attraction, a-b-db, 2, 3, 5, 37, 120, 195, 119, 193, 195, 120, 2, 5.74345
6, 6, wb, attraction, a-b-db, 2, 3, 5, 37, 120, 195, 119, 193, 195, 120, 3, 0.705352
6, 6, wb, attraction, a-b-db, 2, 3, 6, 1, 120, 195, 119, 193, 195, 120, 3, 4.84248
6, 6, wb, attraction, a-b-db, 2, 3, 6, 1, 120, 195, 119, 193, 195, 120, 1, 2.86206
6, 6, wb, attraction, a-b-db, 14, 1, 6, 2, 60, 135, 135, 60, 56, 125, 2, 3.18546
6, 6, wb, attraction, a-b-db, 14, 1, 6, 2, 60, 135, 135, 60, 56, 125, 1, 1.18455
6, 6, wb, filler, NA, 999, 999, 6, 3, 93, 160, 141, 120, 130, 129, 1, 6.64693
6, 6, wb, filler, NA, 999, 999, 6, 3, 93, 160, 141, 120, 130, 129, 3, 0.81128
6, 6, wb, attraction, a-b-db, 5, 2, 6, 4, 88, 161, 165, 90, 90, 165, 2, 3.71254
6, 6, wb, attraction, a-b-db, 5, 2, 6, 4, 88, 161, 165, 90, 90, 165, 1, 1.39343
6, 6, wb, attraction, a-b-db, 14, 2, 6, 5, 83, 153, 90, 165, 165, 90, 1, 3.609
6, 6, wb, attraction, a-b-db, 14, 2, 6, 5, 83, 153, 90, 165, 165, 90, 2, 1.85443
6, 6, wb, attraction, a-b-db, 9, 2, 6, 6, 165, 90, 86, 157, 90, 165, 3, 3.89625
6, 6, wb, attraction, a-b-db, 9, 2, 6, 6, 165, 90, 86, 157, 90, 165, 1, 5.11486
6, 6, wb, catch, NA, 999, 999, 6, 7, 192, 123, 160, 95, 66, 129, 3, 1.39539
6, 6, wb, catch, NA, 999, 999, 6, 7, 192, 123, 160, 95, 66, 129, 1, 0.689336
6, 6, wb, attraction, a-b-da, 5, 2, 6, 8, 90, 165, 161, 88, 165, 90, 2, 4.61201
6, 6, wb, attraction, a-b-da, 5, 2, 6, 8, 90, 165, 161, 88, 165, 90, 1, 1.20796
6, 6, wb, attraction, a-b-da, 14, 3, 6, 9, 195, 120, 181, 111, 120, 195, 2, 2.10199
6, 6, wb, attraction, a-b-da, 14, 3, 6, 9, 195, 120, 181, 111, 120, 195, 1, 1.84866
6, 6, wb, filler, NA, 999, 999, 6, 10, 171, 125, 144, 129, 173, 62, 3, 1.51757
6, 6, wb, filler, NA, 999, 999, 6, 10, 171, 125, 144, 129, 173, 62, 1, 1.31115
6, 6, wb, attraction, a-b-da, 5, 1, 6, 11, 60, 135, 135, 60, 132, 58, 3, 3.28125
6, 6, wb, attraction, a-b-da, 5, 1, 6, 11, 60, 135, 135, 60, 132, 58, 2, 3.99453
6, 6, wb, attraction, a-b-db, 9, 1, 6, 12, 60, 135, 57, 129, 135, 60, 2, 13.3795
6, 6, wb, attraction, a-b-db, 9, 1, 6, 12, 60, 135, 57, 129, 135, 60, 1, 2.26968
6, 6, wb, attraction, a-b-da, 2, 1, 6, 13, 135, 60, 60, 135, 134, 59, 1, 3.00733
6, 6, wb, attraction, a-b-da, 2, 1, 6, 13, 135, 60, 60, 135, 134, 59, 2, 1.19161
6, 6, wb, attraction, a-b-da, 14, 2, 6, 14, 153, 83, 165, 90, 90, 165, 1, 2.39747
6, 6, wb, attraction, a-b-da, 14, 2, 6, 14, 153, 83, 165, 90, 90, 165, 3, 1.42839
6, 6, wb, attraction, a-b-da, 9, 1, 6, 15, 129, 57, 135, 60, 60, 135, 1, 3.2736
6, 6, wb, attraction, a-b-da, 9, 1, 6, 15, 129, 57, 135, 60, 60, 135, 2, 1.58861
6, 6, wb, catch, NA, 999, 999, 6, 16, 122, 73, 185, 130, 98, 157, 1, 1.39324
6, 6, wb, catch, NA, 999, 999, 6, 16, 122, 73, 185, 130, 98, 157, 2, 0.658238
6, 6, wb, attraction, a-b-da, 2, 2, 6, 17, 90, 165, 165, 90, 163, 89, 3, 8.26167
6, 6, wb, attraction, a-b-da, 2, 2, 6, 17, 90, 165, 165, 90, 163, 89, 1, 2.79399
6, 6, wb, filler, NA, 999, 999, 6, 18, 58, 151, 156, 86, 183, 95, 1, 3.06932
6, 6, wb, filler, NA, 999, 999, 6, 18, 58, 151, 156, 86, 183, 95, 3, 0.874382
6, 6, wb, attraction, a-b-da, 5, 3, 6, 19, 190, 117, 120, 195, 195, 120, 3, 3.05273
6, 6, wb, attraction, a-b-da, 5, 3, 6, 19, 190, 117, 120, 195, 195, 120, 1, 1.11922
6, 6, wb, catch, NA, 999, 999, 6, 20, 65, 130, 90, 165, 172, 143, 1, 1.40032
6, 6, wb, catch, NA, 999, 999, 6, 20, 65, 130, 90, 165, 172, 143, 3, 0.719764
6, 6, wb, attraction, a-b-da, 9, 3, 6, 21, 186, 114, 195, 120, 120, 195, 1, 4.32913
6, 6, wb, attraction, a-b-da, 9, 3, 6, 21, 186, 114, 195, 120, 120, 195, 3, 0.714966
6, 6, wb, attraction, a-b-db, 2, 2, 6, 22, 89, 163, 90, 165, 165, 90, 3, 2.23698
6, 6, wb, attraction, a-b-db, 2, 2, 6, 22, 89, 163, 90, 165, 165, 90, 2, 1.76101
6, 6, wb, attraction, a-b-da, 2, 3, 6, 23, 195, 120, 193, 119, 120, 195, 3, 2.04086
6, 6, wb, attraction, a-b-da, 2, 3, 6, 23, 195, 120, 193, 119, 120, 195, 1, 1.10862
6, 6, wb, attraction, a-b-db, 14, 3, 6, 24, 120, 195, 195, 120, 111, 181, 3, 1.56875
6, 6, wb, attraction, a-b-db, 14, 3, 6, 24, 120, 195, 195, 120, 111, 181, 1, 0.879663
6, 6, wb, attraction, a-b-da, 9, 2, 6, 25, 90, 165, 157, 86, 165, 90, 2, 4.4919
6, 6, wb, attraction, a-b-da, 9, 2, 6, 25, 90, 165, 157, 86, 165, 90, 1, 0.732062
6, 6, wb, filler, NA, 999, 999, 6, 26, 114, 153, 109, 81, 77, 111, 2, 4.83602
6, 6, wb, filler, NA, 999, 999, 6, 26, 114, 153, 109, 81, 77, 111, 1, 0.579575
6, 6, wb, attraction, a-b-db, 5, 3, 6, 27, 195, 120, 117, 190, 120, 195, 2, 5.12173
6, 6, wb, attraction, a-b-db, 5, 3, 6, 27, 195, 120, 117, 190, 120, 195, 1, 0.593025
6, 6, wb, filler, NA, 999, 999, 6, 28, 154, 156, 117, 128, 129, 83, 3, 1.65546
6, 6, wb, filler, NA, 999, 999, 6, 28, 154, 156, 117, 128, 129, 83, 1, 0.644983
6, 6, wb, attraction, a-b-db, 5, 1, 6, 29, 58, 132, 135, 60, 60, 135, 2, 6.21683
6, 6, wb, attraction, a-b-db, 5, 1, 6, 29, 58, 132, 135, 60, 60, 135, 3, 0.694732
6, 6, wb, attraction, a-b-db, 2, 1, 6, 30, 59, 134, 135, 60, 60, 135, 2, 2.67475
6, 6, wb, attraction, a-b-db, 2, 1, 6, 30, 59, 134, 135, 60, 60, 135, 3, 0.668863
6, 6, wb, filler, NA, 999, 999, 6, 31, 141, 142, 92, 131, 58, 195, 2, 5.2557
6, 6, wb, filler, NA, 999, 999, 6, 31, 141, 142, 92, 131, 58, 195, 1, 0.733122
6, 6, wb, filler, NA, 999, 999, 6, 32, 169, 156, 97, 131, 144, 141, 2, 1.94063
6, 6, wb, filler, NA, 999, 999, 6, 32, 169, 156, 97, 131, 144, 141, 1, 0.770844
6, 6, wb, filler, NA, 999, 999, 6, 33, 93, 114, 66, 182, 78, 96, 3, 1.87695
6, 6, wb, filler, NA, 999, 999, 6, 33, 93, 114, 66, 182, 78, 96, 1, 10.9357
6, 6, wb, filler, NA, 999, 999, 6, 34, 66, 77, 164, 193, 172, 156, 1, 1.46101
6, 6, wb, filler, NA, 999, 999, 6, 34, 66, 77, 164, 193, 172, 156, 2, 0.624701
6, 6, wb, attraction, a-b-db, 9, 3, 6, 35, 120, 195, 114, 186, 195, 120, 2, 3.43031
6, 6, wb, attraction, a-b-db, 9, 3, 6, 35, 120, 195, 114, 186, 195, 120, 1, 0.609385
6, 6, wb, attraction, a-b-da, 14, 1, 6, 36, 60, 135, 135, 60, 125, 56, 3, 1.84179
6, 6, wb, attraction, a-b-da, 14, 1, 6, 36, 60, 135, 135, 60, 125, 56, 1, 1.29451
6, 6, wb, filler, NA, 999, 999, 6, 37, 166, 194, 82, 110, 124, 126, 2, 1.57668
6, 6, wb, filler, NA, 999, 999, 6, 37, 166, 194, 82, 110, 124, 126, 1, 0.632172
6, 6, wb, attraction, a-b-da, 9, 2, 7, 1, 157, 86, 90, 165, 165, 90, 1, 2.32531
6, 6, wb, attraction, a-b-da, 9, 2, 7, 1, 157, 86, 90, 165, 165, 90, 2, 0.749763
6, 6, wb, attraction, a-b-da, 14, 2, 7, 2, 90, 165, 165, 90, 153, 83, 3, 1.65679
6, 6, wb, attraction, a-b-da, 14, 2, 7, 2, 90, 165, 165, 90, 153, 83, 1, 1.76378
6, 6, wb, filler, NA, 999, 999, 7, 3, 109, 84, 106, 76, 172, 193, 2, 2.00448
6, 6, wb, filler, NA, 999, 999, 7, 3, 109, 84, 106, 76, 172, 193, 3, 0.640894
6, 6, wb, attraction, a-b-da, 2, 1, 7, 4, 135, 60, 134, 59, 60, 135, 2, 2.42869
6, 6, wb, attraction, a-b-da, 2, 1, 7, 4, 135, 60, 134, 59, 60, 135, 3, 2.09942
6, 6, wb, attraction, a-b-db, 9, 3, 7, 5, 114, 186, 120, 195, 195, 120, 3, 3.8679
6, 6, wb, attraction, a-b-db, 9, 3, 7, 5, 114, 186, 120, 195, 195, 120, 2, 0.567417
6, 6, wb, attraction, a-b-da, 5, 3, 7, 6, 195, 120, 190, 117, 120, 195, 2, 4.43963
6, 6, wb, attraction, a-b-da, 5, 3, 7, 6, 195, 120, 190, 117, 120, 195, 3, 3.15491
6, 6, wb, attraction, a-b-da, 14, 3, 7, 7, 181, 111, 120, 195, 195, 120, 1, 2.04923
6, 6, wb, attraction, a-b-da, 14, 3, 7, 7, 181, 111, 120, 195, 195, 120, 2, 2.59
6, 6, wb, attraction, a-b-da, 5, 1, 7, 8, 135, 60, 132, 58, 60, 135, 2, 3.16533
6, 6, wb, attraction, a-b-da, 5, 1, 7, 8, 135, 60, 132, 58, 60, 135, 3, 1.43923
6, 6, wb, filler, NA, 999, 999, 7, 9, 86, 173, 92, 76, 95, 156, 2, 2.12054
6, 6, wb, filler, NA, 999, 999, 7, 9, 86, 173, 92, 76, 95, 156, 3, 0.931149
6, 6, wb, filler, NA, 999, 999, 7, 10, 110, 161, 86, 194, 169, 80, 3, 6.35549
6, 6, wb, filler, NA, 999, 999, 7, 10, 110, 161, 86, 194, 169, 80, 1, 1.2427
6, 6, wb, filler, NA, 999, 999, 7, 11, 124, 152, 71, 176, 110, 139, 3, 8.94996
6, 6, wb, filler, NA, 999, 999, 7, 11, 124, 152, 71, 176, 110, 139, 1, 1.3483
6, 6, wb, attraction, a-b-da, 5, 2, 7, 12, 161, 88, 90, 165, 165, 90, 1, 3.77258
6, 6, wb, attraction, a-b-da, 5, 2, 7, 12, 161, 88, 90, 165, 165, 90, 2, 2.07499
6, 6, wb, attraction, a-b-da, 2, 2, 7, 13, 165, 90, 163, 89, 90, 165, 1, 7.68675
6, 6, wb, attraction, a-b-da, 2, 2, 7, 13, 165, 90, 163, 89, 90, 165, 3, 0.7931
6, 6, wb, attraction, a-b-db, 5, 3, 7, 14, 117, 190, 195, 120, 120, 195, 2, 3.31838
6, 6, wb, attraction, a-b-db, 5, 3, 7, 14, 117, 190, 195, 120, 120, 195, 3, 1.07166
6, 6, wb, catch, NA, 999, 999, 7, 15, 111, 84, 135, 120, 182, 133, 1, 3.54005
6, 6, wb, catch, NA, 999, 999, 7, 15, 111, 84, 135, 120, 182, 133, 3, 0.65019
6, 6, wb, attraction, a-b-db, 2, 2, 7, 16, 90, 165, 165, 90, 89, 163, 1, 2.25566
6, 6, wb, attraction, a-b-db, 2, 2, 7, 16, 90, 165, 165, 90, 89, 163, 3, 3.66108
6, 6, wb, catch, NA, 999, 999, 7, 17, 109, 86, 121, 134, 153, 162, 1, 1.35144
6, 6, wb, catch, NA, 999, 999, 7, 17, 109, 86, 121, 134, 153, 162, 3, 0.623429
6, 6, wb, filler, NA, 999, 999, 7, 18, 193, 160, 66, 131, 95, 91, 3, 2.65248
6, 6, wb, filler, NA, 999, 999, 7, 18, 193, 160, 66, 131, 95, 91, 1, 0.587347
6, 6, wb, attraction, a-b-da, 2, 3, 7, 19, 120, 195, 195, 120, 193, 119, 3, 4.90402
6, 6, wb, attraction, a-b-da, 2, 3, 7, 19, 120, 195, 195, 120, 193, 119, 1, 2.95621
6, 6, wb, attraction, a-b-db, 14, 3, 7, 20, 120, 195, 195, 120, 111, 181, 3, 3.18364
6, 6, wb, attraction, a-b-db, 14, 3, 7, 20, 120, 195, 195, 120, 111, 181, 1, 0.705916
6, 6, wb, filler, NA, 999, 999, 7, 21, 136, 109, 115, 141, 160, 116, 1, 3.16195
6, 6, wb, filler, NA, 999, 999, 7, 21, 136, 109, 115, 141, 160, 116, 3, 0.698781
6, 6, wb, filler, NA, 999, 999, 7, 22, 108, 60, 117, 96, 163, 162, 1, 1.27559
6, 6, wb, filler, NA, 999, 999, 7, 22, 108, 60, 117, 96, 163, 162, 3, 0.631287
6, 6, wb, filler, NA, 999, 999, 7, 23, 152, 119, 179, 126, 156, 160, 1, 4.93135
6, 6, wb, filler, NA, 999, 999, 7, 23, 152, 119, 179, 126, 156, 160, 3, 0.747354
6, 6, wb, attraction, a-b-db, 5, 1, 7, 24, 58, 132, 135, 60, 60, 135, 1, 2.342
6, 6, wb, attraction, a-b-db, 5, 1, 7, 24, 58, 132, 135, 60, 60, 135, 3, 1.83693
6, 6, wb, attraction, a-b-db, 9, 1, 7, 25, 135, 60, 60, 135, 57, 129, 3, 2.20047
6, 6, wb, attraction, a-b-db, 9, 1, 7, 25, 135, 60, 60, 135, 57, 129, 1, 2.28156
6, 6, wb, filler, NA, 999, 999, 7, 26, 132, 171, 112, 140, 134, 89, 3, 1.46496
6, 6, wb, filler, NA, 999, 999, 7, 26, 132, 171, 112, 140, 134, 89, 1, 0.677392
6, 6, wb, attraction, a-b-da, 9, 1, 7, 27, 129, 57, 60, 135, 135, 60, 2, 2.33754
6, 6, wb, attraction, a-b-da, 9, 1, 7, 27, 129, 57, 60, 135, 135, 60, 3, 0.587053
6, 6, wb, attraction, a-b-db, 5, 2, 7, 28, 90, 165, 88, 161, 165, 90, 3, 5.3141
6, 6, wb, attraction, a-b-db, 5, 2, 7, 28, 90, 165, 88, 161, 165, 90, 1, 1.52297
6, 6, wb, attraction, a-b-db, 9, 2, 7, 29, 90, 165, 165, 90, 86, 157, 3, 3.72401
6, 6, wb, attraction, a-b-db, 9, 2, 7, 29, 90, 165, 165, 90, 86, 157, 2, 2.82179
6, 6, wb, catch, NA, 999, 999, 7, 30, 92, 103, 138, 177, 144, 111, 1, 3.31429
6, 6, wb, catch, NA, 999, 999, 7, 30, 92, 103, 138, 177, 144, 111, 2, 0.59535
6, 6, wb, attraction, a-b-da, 9, 3, 7, 31, 195, 120, 186, 114, 120, 195, 2, 1.79395
6, 6, wb, attraction, a-b-da, 9, 3, 7, 31, 195, 120, 186, 114, 120, 195, 1, 1.48157
6, 6, wb, attraction, a-b-db, 2, 1, 7, 32, 60, 135, 135, 60, 59, 134, 3, 2.12937
6, 6, wb, attraction, a-b-db, 2, 1, 7, 32, 60, 135, 135, 60, 59, 134, 1, 0.763214
6, 6, wb, filler, NA, 999, 999, 7, 33, 97, 93, 165, 103, 160, 109, 1, 2.22814
6, 6, wb, filler, NA, 999, 999, 7, 33, 97, 93, 165, 103, 160, 109, 3, 0.682197
6, 6, wb, attraction, a-b-da, 14, 1, 7, 34, 135, 60, 60, 135, 125, 56, 3, 4.29129
6, 6, wb, attraction, a-b-da, 14, 1, 7, 34, 135, 60, 60, 135, 125, 56, 1, 1.4857
6, 6, wb, attraction, a-b-db, 2, 3, 7, 35, 195, 120, 119, 193, 120, 195, 2, 4.09626
6, 6, wb, attraction, a-b-db, 2, 3, 7, 35, 195, 120, 119, 193, 120, 195, 1, 0.68145
6, 6, wb, attraction, a-b-db, 14, 1, 7, 36, 135, 60, 60, 135, 56, 125, 3, 2.32318
6, 6, wb, attraction, a-b-db, 14, 1, 7, 36, 135, 60, 60, 135, 56, 125, 2, 2.41449
6, 6, wb, attraction, a-b-db, 14, 2, 7, 37, 90, 165, 83, 153, 165, 90, 2, 3.34083
6, 6, wb, attraction, a-b-db, 14, 2, 7, 37, 90, 165, 83, 153, 165, 90, 1, 0.658725
6, 6, wb, attraction, a-b-da, 9, 3, 8, 1, 120, 195, 195, 120, 186, 114, 3, 2.07851
6, 6, wb, attraction, a-b-da, 9, 3, 8, 1, 120, 195, 195, 120, 186, 114, 1, 0.980243
6, 6, wb, attraction, a-b-db, 2, 2, 8, 2, 90, 165, 89, 163, 165, 90, 2, 4.01721
6, 6, wb, attraction, a-b-db, 2, 2, 8, 2, 90, 165, 89, 163, 165, 90, 3, 5.07235
6, 6, wb, attraction, a-b-da, 2, 1, 8, 3, 60, 135, 135, 60, 134, 59, 3, 2.72908
6, 6, wb, attraction, a-b-da, 2, 1, 8, 3, 60, 135, 135, 60, 134, 59, 1, 1.49906
6, 6, wb, filler, NA, 999, 999, 8, 4, 163, 191, 187, 162, 143, 183, 3, 9.67647
6, 6, wb, filler, NA, 999, 999, 8, 4, 163, 191, 187, 162, 143, 183, 1, 0.659501
6, 6, wb, filler, NA, 999, 999, 8, 5, 132, 162, 151, 147, 122, 175, 3, 2.32889
6, 6, wb, filler, NA, 999, 999, 8, 5, 132, 162, 151, 147, 122, 175, 1, 2.11547
6, 6, wb, filler, NA, 999, 999, 8, 6, 161, 106, 143, 110, 67, 103, 3, 1.45881
6, 6, wb, filler, NA, 999, 999, 8, 6, 161, 106, 143, 110, 67, 103, 1, 0.671627
6, 6, wb, filler, NA, 999, 999, 8, 7, 187, 192, 150, 63, 127, 171, 2, 2.04135
6, 6, wb, filler, NA, 999, 999, 8, 7, 187, 192, 150, 63, 127, 171, 1, 0.59923
6, 6, wb, attraction, a-b-da, 14, 2, 8, 8, 165, 90, 90, 165, 153, 83, 3, 3.87117
6, 6, wb, attraction, a-b-da, 14, 2, 8, 8, 165, 90, 90, 165, 153, 83, 2, 2.80176
6, 6, wb, filler, NA, 999, 999, 8, 9, 75, 135, 119, 65, 97, 75, 2, 13.91
6, 6, wb, filler, NA, 999, 999, 8, 9, 75, 135, 119, 65, 97, 75, 1, 3.54992
6, 6, wb, attraction, a-b-db, 9, 3, 8, 10, 195, 120, 114, 186, 120, 195, 2, 2.07541
6, 6, wb, attraction, a-b-db, 9, 3, 8, 10, 195, 120, 114, 186, 120, 195, 1, 1.08152
6, 6, wb, attraction, a-b-db, 5, 1, 8, 11, 135, 60, 60, 135, 58, 132, 1, 4.5451
6, 6, wb, attraction, a-b-db, 5, 1, 8, 11, 135, 60, 60, 135, 58, 132, 3, 1.02798
6, 6, wb, attraction, a-b-da, 9, 1, 8, 12, 60, 135, 129, 57, 135, 60, 2, 2.63987
6, 6, wb, attraction, a-b-da, 9, 1, 8, 12, 60, 135, 129, 57, 135, 60, 3, 0.635993
6, 6, wb, attraction, a-b-da, 5, 3, 8, 13, 120, 195, 195, 120, 190, 117, 3, 2.6088
6, 6, wb, attraction, a-b-da, 5, 3, 8, 13, 120, 195, 195, 120, 190, 117, 1, 0.607731
6, 6, wb, catch, NA, 999, 999, 8, 14, 136, 179, 150, 105, 124, 71, 3, 1.26887
6, 6, wb, catch, NA, 999, 999, 8, 14, 136, 179, 150, 105, 124, 71, 1, 0.649182
6, 6, wb, attraction, a-b-db, 14, 3, 8, 15, 195, 120, 120, 195, 111, 181, 3, 1.87678
6, 6, wb, attraction, a-b-db, 14, 3, 8, 15, 195, 120, 120, 195, 111, 181, 1, 0.785702
6, 6, wb, attraction, a-b-db, 2, 1, 8, 16, 135, 60, 59, 134, 60, 135, 2, 1.83205
6, 6, wb, attraction, a-b-db, 2, 1, 8, 16, 135, 60, 59, 134, 60, 135, 1, 0.910329
6, 6, wb, filler, NA, 999, 999, 8, 17, 145, 71, 107, 105, 110, 134, 1, 2.59999
6, 6, wb, filler, NA, 999, 999, 8, 17, 145, 71, 107, 105, 110, 134, 3, 0.605352
6, 6, wb, catch, NA, 999, 999, 8, 18, 139, 116, 126, 69, 177, 138, 2, 1.11375
6, 6, wb, catch, NA, 999, 999, 8, 18, 139, 116, 126, 69, 177, 138, 3, 0.583215
6, 6, wb, catch, NA, 999, 999, 8, 19, 154, 101, 69, 126, 170, 145, 2, 1.37108
6, 6, wb, catch, NA, 999, 999, 8, 19, 154, 101, 69, 126, 170, 145, 3, 0.549141
6, 6, wb, filler, NA, 999, 999, 8, 20, 155, 146, 142, 180, 75, 127, 3, 1.35597
6, 6, wb, filler, NA, 999, 999, 8, 20, 155, 146, 142, 180, 75, 127, 2, 0.589891
6, 6, wb, attraction, a-b-db, 2, 3, 8, 21, 120, 195, 195, 120, 119, 193, 2, 3.31563
6, 6, wb, attraction, a-b-db, 2, 3, 8, 21, 120, 195, 195, 120, 119, 193, 3, 0.533397
6, 6, wb, filler, NA, 999, 999, 8, 22, 102, 125, 95, 191, 101, 161, 1, 1.49387
6, 6, wb, filler, NA, 999, 999, 8, 22, 102, 125, 95, 191, 101, 161, 2, 1.1295
6, 6, wb, filler, NA, 999, 999, 8, 23, 145, 179, 116, 175, 122, 180, 3, 3.5872
6, 6, wb, filler, NA, 999, 999, 8, 23, 145, 179, 116, 175, 122, 180, 1, 0.624207
6, 6, wb, filler, NA, 999, 999, 8, 24, 174, 186, 171, 75, 56, 146, 3, 1.16683
6, 6, wb, filler, NA, 999, 999, 8, 24, 174, 186, 171, 75, 56, 146, 1, 0.614615
6, 6, wb, attraction, a-b-da, 14, 1, 8, 25, 125, 56, 60, 135, 135, 60, 1, 2.25086
6, 6, wb, attraction, a-b-da, 14, 1, 8, 25, 125, 56, 60, 135, 135, 60, 2, 0.76066
6, 6, wb, attraction, a-b-da, 2, 2, 8, 26, 90, 165, 165, 90, 163, 89, 3, 5.96196
6, 6, wb, attraction, a-b-da, 2, 2, 8, 26, 90, 165, 165, 90, 163, 89, 1, 0.557788
6, 6, wb, attraction, a-b-db, 5, 3, 8, 27, 120, 195, 195, 120, 117, 190, 2, 3.08777
6, 6, wb, attraction, a-b-db, 5, 3, 8, 27, 120, 195, 195, 120, 117, 190, 1, 1.25033
6, 6, wb, attraction, a-b-db, 5, 2, 8, 28, 90, 165, 165, 90, 88, 161, 1, 5.24415
6, 6, wb, attraction, a-b-db, 5, 2, 8, 28, 90, 165, 165, 90, 88, 161, 2, 1.20888
6, 6, wb, attraction, a-b-db, 9, 2, 8, 29, 165, 90, 86, 157, 90, 165, 1, 5.20734
6, 6, wb, attraction, a-b-db, 9, 2, 8, 29, 165, 90, 86, 157, 90, 165, 3, 0.54068
6, 6, wb, attraction, a-b-da, 2, 3, 8, 30, 193, 119, 120, 195, 195, 120, 3, 5.49453
6, 6, wb, attraction, a-b-da, 2, 3, 8, 30, 193, 119, 120, 195, 195, 120, 1, 1.7279
6, 6, wb, attraction, a-b-da, 5, 1, 8, 31, 135, 60, 60, 135, 132, 58, 3, 2.27938
6, 6, wb, attraction, a-b-da, 5, 1, 8, 31, 135, 60, 60, 135, 132, 58, 2, 0.747833
6, 6, wb, attraction, a-b-da, 5, 2, 8, 32, 165, 90, 90, 165, 161, 88, 1, 2.95603
6, 6, wb, attraction, a-b-da, 5, 2, 8, 32, 165, 90, 90, 165, 161, 88, 2, 3.56443
6, 6, wb, attraction, a-b-db, 14, 1, 8, 33, 135, 60, 60, 135, 56, 125, 3, 1.79482
6, 6, wb, attraction, a-b-db, 14, 1, 8, 33, 135, 60, 60, 135, 56, 125, 1, 1.05768
6, 6, wb, attraction, a-b-da, 9, 2, 8, 34, 165, 90, 157, 86, 90, 165, 2, 2.10843
6, 6, wb, attraction, a-b-da, 9, 2, 8, 34, 165, 90, 157, 86, 90, 165, 3, 1.26557
6, 6, wb, attraction, a-b-db, 9, 1, 8, 35, 135, 60, 60, 135, 57, 129, 3, 1.73118
6, 6, wb, attraction, a-b-db, 9, 1, 8, 35, 135, 60, 60, 135, 57, 129, 1, 0.765147
6, 6, wb, attraction, a-b-db, 14, 2, 8, 36, 165, 90, 90, 165, 83, 153, 3, 1.611
6, 6, wb, attraction, a-b-db, 14, 2, 8, 36, 165, 90, 90, 165, 83, 153, 2, 1.03334
6, 6, wb, attraction, a-b-da, 14, 3, 8, 37, 181, 111, 195, 120, 120, 195, 1, 4.67713
6, 6, wb, attraction, a-b-da, 14, 3, 8, 37, 181, 111, 195, 120, 120, 195, 3, 0.704462
