sub_n, computer_n, bw_cond, effect, set, distance, diag, block_n, trial_n, h1, w1, h2, w2, h3, w3, choice, rt 
66, 6, wb, practice, NA, 999, 999, 0, 1, 99, 125, 76, 63, 72, 173, 2, 9.74148
66, 6, wb, practice, NA, 999, 999, 0, 1, 99, 125, 76, 63, 72, 173, 3, 9.67508
66, 6, wb, practice, NA, 999, 999, 0, 2, 128, 153, 132, 58, 74, 186, 2, 9.42448
66, 6, wb, practice, NA, 999, 999, 0, 2, 128, 153, 132, 58, 74, 186, 1, 14.0673
66, 6, wb, practice, NA, 999, 999, 0, 3, 129, 118, 177, 93, 183, 195, 1, 6.08805
66, 6, wb, practice, NA, 999, 999, 0, 3, 129, 118, 177, 93, 183, 195, 3, 2.82739
66, 6, wb, attraction, a-b-db, 9, 2, 1, 1, 90, 165, 86, 157, 165, 90, 2, 12.7764
66, 6, wb, attraction, a-b-db, 9, 2, 1, 1, 90, 165, 86, 157, 165, 90, 1, 78.0606
66, 6, wb, catch, NA, 999, 999, 1, 2, 188, 127, 100, 155, 101, 94, 3, 3.31277
66, 6, wb, catch, NA, 999, 999, 1, 2, 188, 127, 100, 155, 101, 94, 1, 4.77852
66, 6, wb, attraction, a-b-da, 9, 3, 1, 3, 186, 114, 195, 120, 120, 195, 3, 16.7596
66, 6, wb, attraction, a-b-da, 9, 3, 1, 3, 186, 114, 195, 120, 120, 195, 2, 5.3789
66, 6, wb, filler, NA, 999, 999, 1, 4, 194, 89, 177, 161, 157, 87, 3, 4.92782
66, 6, wb, filler, NA, 999, 999, 1, 4, 194, 89, 177, 161, 157, 87, 2, 3.16821
66, 6, wb, filler, NA, 999, 999, 1, 5, 163, 157, 106, 158, 91, 183, 2, 10.1504
66, 6, wb, filler, NA, 999, 999, 1, 5, 163, 157, 106, 158, 91, 183, 1, 5.62061
66, 6, wb, catch, NA, 999, 999, 1, 6, 113, 142, 135, 60, 159, 156, 2, 5.07207
66, 6, wb, catch, NA, 999, 999, 1, 6, 113, 142, 135, 60, 159, 156, 1, 1.45251
66, 6, wb, filler, NA, 999, 999, 1, 7, 68, 174, 69, 115, 86, 77, 3, 6.66226
66, 6, wb, filler, NA, 999, 999, 1, 7, 68, 174, 69, 115, 86, 77, 1, 2.06455
66, 6, wb, attraction, a-b-db, 9, 3, 1, 8, 120, 195, 114, 186, 195, 120, 2, 10.7392
66, 6, wb, attraction, a-b-db, 9, 3, 1, 8, 120, 195, 114, 186, 195, 120, 1, 1.04975
66, 6, wb, filler, NA, 999, 999, 1, 9, 186, 82, 164, 119, 185, 67, 3, 5.5094
66, 6, wb, filler, NA, 999, 999, 1, 9, 186, 82, 164, 119, 185, 67, 2, 4.53444
66, 6, wb, filler, NA, 999, 999, 1, 10, 131, 149, 92, 86, 108, 82, 2, 3.93357
66, 6, wb, filler, NA, 999, 999, 1, 10, 131, 149, 92, 86, 108, 82, 1, 0.958365
66, 6, wb, attraction, a-b-db, 5, 3, 1, 11, 117, 190, 120, 195, 195, 120, 1, 53.9014
66, 6, wb, attraction, a-b-db, 5, 3, 1, 11, 117, 190, 120, 195, 195, 120, 3, 2.46442
66, 6, wb, attraction, a-b-db, 14, 2, 1, 12, 165, 90, 90, 165, 83, 153, 3, 6.11493
66, 6, wb, attraction, a-b-db, 14, 2, 1, 12, 165, 90, 90, 165, 83, 153, 2, 1.66761
66, 6, wb, filler, NA, 999, 999, 1, 13, 98, 73, 88, 125, 128, 68, 1, 2.6144
66, 6, wb, filler, NA, 999, 999, 1, 13, 98, 73, 88, 125, 128, 68, 2, 3.46033
66, 6, wb, attraction, a-b-da, 14, 1, 1, 14, 125, 56, 135, 60, 60, 135, 2, 16.5906
66, 6, wb, attraction, a-b-da, 14, 1, 1, 14, 125, 56, 135, 60, 60, 135, 3, 1.28122
66, 6, wb, attraction, a-b-da, 2, 1, 1, 15, 60, 135, 135, 60, 134, 59, 1, 26.2195
66, 6, wb, attraction, a-b-da, 2, 1, 1, 15, 60, 135, 135, 60, 134, 59, 2, 5.79393
66, 6, wb, filler, NA, 999, 999, 1, 16, 71, 81, 164, 126, 119, 105, 1, 1.51013
66, 6, wb, filler, NA, 999, 999, 1, 16, 71, 81, 164, 126, 119, 105, 2, 1.55211
66, 6, wb, attraction, a-b-da, 14, 3, 1, 17, 120, 195, 181, 111, 195, 120, 2, 3.65559
66, 6, wb, attraction, a-b-da, 14, 3, 1, 17, 120, 195, 181, 111, 195, 120, 1, 1.20309
66, 6, wb, attraction, a-b-db, 14, 3, 1, 18, 120, 195, 111, 181, 195, 120, 2, 1.97661
66, 6, wb, attraction, a-b-db, 14, 3, 1, 18, 120, 195, 111, 181, 195, 120, 3, 2.79201
66, 6, wb, attraction, a-b-db, 14, 1, 1, 19, 135, 60, 60, 135, 56, 125, 3, 8.25307
66, 6, wb, attraction, a-b-db, 14, 1, 1, 19, 135, 60, 60, 135, 56, 125, 1, 1.06384
66, 6, wb, attraction, a-b-da, 2, 2, 1, 20, 163, 89, 90, 165, 165, 90, 3, 2.07477
66, 6, wb, attraction, a-b-da, 2, 2, 1, 20, 163, 89, 90, 165, 165, 90, 2, 1.19013
66, 6, wb, attraction, a-b-da, 5, 2, 1, 21, 165, 90, 90, 165, 161, 88, 2, 2.46758
66, 6, wb, attraction, a-b-da, 5, 2, 1, 21, 165, 90, 90, 165, 161, 88, 3, 2.19957
66, 6, wb, filler, NA, 999, 999, 1, 22, 57, 120, 152, 92, 123, 59, 1, 1.60485
66, 6, wb, filler, NA, 999, 999, 1, 22, 57, 120, 152, 92, 123, 59, 2, 0.842954
66, 6, wb, attraction, a-b-db, 2, 2, 1, 23, 165, 90, 90, 165, 89, 163, 1, 5.62275
66, 6, wb, attraction, a-b-db, 2, 2, 1, 23, 165, 90, 90, 165, 89, 163, 2, 1.33888
66, 6, wb, attraction, a-b-db, 5, 1, 1, 24, 58, 132, 60, 135, 135, 60, 1, 2.31505
66, 6, wb, attraction, a-b-db, 5, 1, 1, 24, 58, 132, 60, 135, 135, 60, 3, 2.53297
66, 6, wb, filler, NA, 999, 999, 1, 25, 151, 117, 153, 109, 167, 150, 2, 1.43672
66, 6, wb, filler, NA, 999, 999, 1, 25, 151, 117, 153, 109, 167, 150, 3, 0.785588
66, 6, wb, filler, NA, 999, 999, 1, 26, 72, 165, 62, 108, 146, 145, 2, 1.01593
66, 6, wb, filler, NA, 999, 999, 1, 26, 72, 165, 62, 108, 146, 145, 3, 0.918268
66, 6, wb, attraction, a-b-da, 9, 2, 1, 27, 157, 86, 165, 90, 90, 165, 3, 5.56733
66, 6, wb, attraction, a-b-da, 9, 2, 1, 27, 157, 86, 165, 90, 90, 165, 2, 0.638144
66, 6, wb, attraction, a-b-da, 5, 3, 1, 28, 190, 117, 120, 195, 195, 120, 2, 1.60249
66, 6, wb, attraction, a-b-da, 5, 3, 1, 28, 190, 117, 120, 195, 195, 120, 1, 0.961447
66, 6, wb, attraction, a-b-da, 2, 3, 1, 29, 120, 195, 193, 119, 195, 120, 1, 12.3044
66, 6, wb, attraction, a-b-da, 2, 3, 1, 29, 120, 195, 193, 119, 195, 120, 3, 3.43186
66, 6, wb, attraction, a-b-db, 9, 1, 1, 30, 60, 135, 135, 60, 57, 129, 3, 2.4194
66, 6, wb, attraction, a-b-db, 9, 1, 1, 30, 60, 135, 135, 60, 57, 129, 1, 2.40931
66, 6, wb, attraction, a-b-db, 2, 1, 1, 31, 60, 135, 59, 134, 135, 60, 2, 3.88572
66, 6, wb, attraction, a-b-db, 2, 1, 1, 31, 60, 135, 59, 134, 135, 60, 3, 2.06457
66, 6, wb, attraction, a-b-da, 5, 1, 1, 32, 135, 60, 132, 58, 60, 135, 2, 3.33132
66, 6, wb, attraction, a-b-da, 5, 1, 1, 32, 135, 60, 132, 58, 60, 135, 3, 1.51611
66, 6, wb, attraction, a-b-da, 9, 1, 1, 33, 60, 135, 135, 60, 129, 57, 3, 1.84499
66, 6, wb, attraction, a-b-da, 9, 1, 1, 33, 60, 135, 135, 60, 129, 57, 1, 0.465617
66, 6, wb, attraction, a-b-db, 5, 2, 1, 34, 88, 161, 90, 165, 165, 90, 3, 7.21283
66, 6, wb, attraction, a-b-db, 5, 2, 1, 34, 88, 161, 90, 165, 165, 90, 1, 0.849134
66, 6, wb, attraction, a-b-da, 14, 2, 1, 35, 153, 83, 165, 90, 90, 165, 2, 6.7808
66, 6, wb, attraction, a-b-da, 14, 2, 1, 35, 153, 83, 165, 90, 90, 165, 3, 0.874607
66, 6, wb, catch, NA, 999, 999, 1, 36, 116, 139, 113, 82, 135, 180, 2, 0.836981
66, 6, wb, catch, NA, 999, 999, 1, 36, 116, 139, 113, 82, 135, 180, 3, 1.30674
66, 6, wb, attraction, a-b-db, 2, 3, 1, 37, 119, 193, 120, 195, 195, 120, 2, 61.2676
66, 6, wb, attraction, a-b-db, 2, 3, 1, 37, 119, 193, 120, 195, 195, 120, 3, 1.27772
66, 6, wb, attraction, a-b-da, 14, 3, 2, 1, 120, 195, 181, 111, 195, 120, 1, 2.59198
66, 6, wb, attraction, a-b-da, 14, 3, 2, 1, 120, 195, 181, 111, 195, 120, 3, 0.934452
66, 6, wb, attraction, a-b-db, 2, 2, 2, 2, 165, 90, 89, 163, 90, 165, 2, 1.81467
66, 6, wb, attraction, a-b-db, 2, 2, 2, 2, 165, 90, 89, 163, 90, 165, 3, 1.32483
66, 6, wb, attraction, a-b-db, 14, 1, 2, 3, 135, 60, 56, 125, 60, 135, 2, 2.38108
66, 6, wb, attraction, a-b-db, 14, 1, 2, 3, 135, 60, 56, 125, 60, 135, 3, 3.6043
66, 6, wb, attraction, a-b-db, 9, 2, 2, 4, 86, 157, 90, 165, 165, 90, 1, 1.6651
66, 6, wb, attraction, a-b-db, 9, 2, 2, 4, 86, 157, 90, 165, 165, 90, 3, 1.09325
66, 6, wb, attraction, a-b-da, 9, 3, 2, 5, 186, 114, 120, 195, 195, 120, 1, 5.21484
66, 6, wb, attraction, a-b-da, 9, 3, 2, 5, 186, 114, 120, 195, 195, 120, 2, 1.06797
66, 6, wb, catch, NA, 999, 999, 2, 6, 94, 101, 116, 139, 180, 135, 1, 0.830712
66, 6, wb, catch, NA, 999, 999, 2, 6, 94, 101, 116, 139, 180, 135, 3, 0.660588
66, 6, wb, attraction, a-b-da, 14, 2, 2, 7, 165, 90, 90, 165, 153, 83, 2, 3.17553
66, 6, wb, attraction, a-b-da, 14, 2, 2, 7, 165, 90, 90, 165, 153, 83, 1, 0.486544
66, 6, wb, attraction, a-b-db, 14, 3, 2, 8, 111, 181, 195, 120, 120, 195, 1, 4.73695
66, 6, wb, attraction, a-b-db, 14, 3, 2, 8, 111, 181, 195, 120, 120, 195, 3, 0.633544
66, 6, wb, attraction, a-b-da, 9, 1, 2, 9, 135, 60, 129, 57, 60, 135, 2, 8.0459
66, 6, wb, attraction, a-b-da, 9, 1, 2, 9, 135, 60, 129, 57, 60, 135, 3, 1.54462
66, 6, wb, attraction, a-b-da, 2, 2, 2, 10, 165, 90, 90, 165, 163, 89, 2, 5.26427
66, 6, wb, attraction, a-b-da, 2, 2, 2, 10, 165, 90, 90, 165, 163, 89, 1, 0.523158
66, 6, wb, attraction, a-b-da, 2, 3, 2, 11, 195, 120, 193, 119, 120, 195, 2, 5.28365
66, 6, wb, attraction, a-b-da, 2, 3, 2, 11, 195, 120, 193, 119, 120, 195, 3, 0.74985
66, 6, wb, filler, NA, 999, 999, 2, 12, 174, 139, 133, 166, 147, 59, 3, 0.909527
66, 6, wb, filler, NA, 999, 999, 2, 12, 174, 139, 133, 166, 147, 59, 1, 1.2559
66, 6, wb, attraction, a-b-db, 5, 1, 2, 13, 60, 135, 58, 132, 135, 60, 2, 17.2195
66, 6, wb, attraction, a-b-db, 5, 1, 2, 13, 60, 135, 58, 132, 135, 60, 3, 0.572895
66, 6, wb, filler, NA, 999, 999, 2, 14, 164, 80, 94, 84, 136, 163, 2, 0.715236
66, 6, wb, filler, NA, 999, 999, 2, 14, 164, 80, 94, 84, 136, 163, 3, 0.501697
66, 6, wb, attraction, a-b-da, 9, 2, 2, 15, 90, 165, 165, 90, 157, 86, 3, 2.06339
66, 6, wb, attraction, a-b-da, 9, 2, 2, 15, 90, 165, 165, 90, 157, 86, 1, 0.835395
66, 6, wb, attraction, a-b-da, 5, 2, 2, 16, 165, 90, 90, 165, 161, 88, 2, 4.40775
66, 6, wb, attraction, a-b-da, 5, 2, 2, 16, 165, 90, 90, 165, 161, 88, 1, 0.973052
66, 6, wb, attraction, a-b-db, 2, 3, 2, 17, 119, 193, 120, 195, 195, 120, 2, 1.46729
66, 6, wb, attraction, a-b-db, 2, 3, 2, 17, 119, 193, 120, 195, 195, 120, 3, 0.44746
66, 6, wb, filler, NA, 999, 999, 2, 18, 102, 164, 117, 148, 71, 92, 3, 0.755301
66, 6, wb, filler, NA, 999, 999, 2, 18, 102, 164, 117, 148, 71, 92, 2, 0.699813
66, 6, wb, filler, NA, 999, 999, 2, 19, 65, 170, 165, 135, 103, 131, 1, 0.917306
66, 6, wb, filler, NA, 999, 999, 2, 19, 65, 170, 165, 135, 103, 131, 2, 3.32777
66, 6, wb, attraction, a-b-da, 14, 1, 2, 20, 60, 135, 125, 56, 135, 60, 2, 1.43136
66, 6, wb, attraction, a-b-da, 14, 1, 2, 20, 60, 135, 125, 56, 135, 60, 3, 0.700944
66, 6, wb, filler, NA, 999, 999, 2, 21, 192, 158, 74, 138, 188, 181, 2, 0.542586
66, 6, wb, filler, NA, 999, 999, 2, 21, 192, 158, 74, 138, 188, 181, 3, 0.775769
66, 6, wb, attraction, a-b-db, 9, 3, 2, 22, 120, 195, 195, 120, 114, 186, 3, 1.57405
66, 6, wb, attraction, a-b-db, 9, 3, 2, 22, 120, 195, 195, 120, 114, 186, 1, 1.70956
66, 6, wb, filler, NA, 999, 999, 2, 23, 195, 174, 188, 109, 116, 139, 3, 1.03824
66, 6, wb, filler, NA, 999, 999, 2, 23, 195, 174, 188, 109, 116, 139, 1, 0.643263
66, 6, wb, filler, NA, 999, 999, 2, 24, 131, 140, 134, 77, 71, 184, 2, 2.73502
66, 6, wb, filler, NA, 999, 999, 2, 24, 131, 140, 134, 77, 71, 184, 1, 10.5522
66, 6, wb, attraction, a-b-db, 2, 1, 2, 25, 59, 134, 60, 135, 135, 60, 2, 6.64479
66, 6, wb, attraction, a-b-db, 2, 1, 2, 25, 59, 134, 60, 135, 135, 60, 3, 0.48805
66, 6, wb, filler, NA, 999, 999, 2, 26, 191, 70, 189, 195, 145, 162, 1, 3.05846
66, 6, wb, filler, NA, 999, 999, 2, 26, 191, 70, 189, 195, 145, 162, 2, 6.52629
66, 6, wb, attraction, a-b-da, 5, 3, 2, 27, 195, 120, 190, 117, 120, 195, 2, 3.02074
66, 6, wb, attraction, a-b-da, 5, 3, 2, 27, 195, 120, 190, 117, 120, 195, 1, 1.19372
66, 6, wb, catch, NA, 999, 999, 2, 28, 133, 122, 121, 194, 117, 78, 3, 0.951234
66, 6, wb, catch, NA, 999, 999, 2, 28, 133, 122, 121, 194, 117, 78, 2, 1.32829
66, 6, wb, attraction, a-b-db, 9, 1, 2, 29, 60, 135, 135, 60, 57, 129, 3, 1.4165
66, 6, wb, attraction, a-b-db, 9, 1, 2, 29, 60, 135, 135, 60, 57, 129, 2, 0.614758
66, 6, wb, filler, NA, 999, 999, 2, 30, 99, 96, 155, 180, 104, 195, 1, 0.987786
66, 6, wb, filler, NA, 999, 999, 2, 30, 99, 96, 155, 180, 104, 195, 2, 0.562768
66, 6, wb, attraction, a-b-db, 5, 2, 2, 31, 165, 90, 90, 165, 88, 161, 2, 5.00184
66, 6, wb, attraction, a-b-db, 5, 2, 2, 31, 165, 90, 90, 165, 88, 161, 1, 0.51161
66, 6, wb, attraction, a-b-db, 14, 2, 2, 32, 90, 165, 165, 90, 83, 153, 3, 1.2648
66, 6, wb, attraction, a-b-db, 14, 2, 2, 32, 90, 165, 165, 90, 83, 153, 1, 1.23702
66, 6, wb, catch, NA, 999, 999, 2, 33, 96, 159, 129, 186, 113, 82, 3, 0.873289
66, 6, wb, catch, NA, 999, 999, 2, 33, 96, 159, 129, 186, 113, 82, 2, 0.668978
66, 6, wb, attraction, a-b-da, 5, 1, 2, 34, 135, 60, 60, 135, 132, 58, 2, 1.2
66, 6, wb, attraction, a-b-da, 5, 1, 2, 34, 135, 60, 60, 135, 132, 58, 1, 0.775028
66, 6, wb, filler, NA, 999, 999, 2, 35, 112, 92, 118, 90, 159, 180, 1, 0.869284
66, 6, wb, filler, NA, 999, 999, 2, 35, 112, 92, 118, 90, 159, 180, 3, 0.809654
66, 6, wb, attraction, a-b-db, 5, 3, 2, 36, 117, 190, 120, 195, 195, 120, 2, 3.58272
66, 6, wb, attraction, a-b-db, 5, 3, 2, 36, 117, 190, 120, 195, 195, 120, 3, 0.565483
66, 6, wb, attraction, a-b-da, 2, 1, 2, 37, 134, 59, 60, 135, 135, 60, 2, 1.8606
66, 6, wb, attraction, a-b-da, 2, 1, 2, 37, 134, 59, 60, 135, 135, 60, 3, 1.14475
66, 6, wb, attraction, a-b-db, 9, 2, 3, 1, 86, 157, 90, 165, 165, 90, 2, 6.67233
66, 6, wb, attraction, a-b-db, 9, 2, 3, 1, 86, 157, 90, 165, 165, 90, 3, 0.394752
66, 6, wb, attraction, a-b-da, 14, 3, 3, 2, 195, 120, 181, 111, 120, 195, 2, 2.40067
66, 6, wb, attraction, a-b-da, 14, 3, 3, 2, 195, 120, 181, 111, 120, 195, 3, 3.23122
66, 6, wb, attraction, a-b-db, 2, 1, 3, 3, 60, 135, 135, 60, 59, 134, 2, 0.858833
66, 6, wb, attraction, a-b-db, 2, 1, 3, 3, 60, 135, 135, 60, 59, 134, 3, 0.503239
66, 6, wb, filler, NA, 999, 999, 3, 4, 116, 68, 179, 153, 58, 109, 3, 0.968938
66, 6, wb, filler, NA, 999, 999, 3, 4, 116, 68, 179, 153, 58, 109, 2, 0.553374
66, 6, wb, catch, NA, 999, 999, 3, 5, 106, 89, 144, 111, 164, 151, 1, 1.51304
66, 6, wb, catch, NA, 999, 999, 3, 5, 106, 89, 144, 111, 164, 151, 3, 1.10727
66, 6, wb, attraction, a-b-db, 14, 3, 3, 6, 195, 120, 111, 181, 120, 195, 2, 9.94021
66, 6, wb, attraction, a-b-db, 14, 3, 3, 6, 195, 120, 111, 181, 120, 195, 3, 0.402313
66, 6, wb, attraction, a-b-da, 2, 3, 3, 7, 193, 119, 120, 195, 195, 120, 2, 2.17613
66, 6, wb, attraction, a-b-da, 2, 3, 3, 7, 193, 119, 120, 195, 195, 120, 3, 1.71147
66, 6, wb, attraction, a-b-da, 14, 1, 3, 8, 60, 135, 125, 56, 135, 60, 2, 1.33618
66, 6, wb, attraction, a-b-da, 14, 1, 3, 8, 60, 135, 125, 56, 135, 60, 3, 4.24178
66, 6, wb, attraction, a-b-db, 14, 2, 3, 9, 90, 165, 165, 90, 83, 153, 3, 1.62853
66, 6, wb, attraction, a-b-db, 14, 2, 3, 9, 90, 165, 165, 90, 83, 153, 1, 1.17788
66, 6, wb, attraction, a-b-da, 5, 1, 3, 10, 60, 135, 135, 60, 132, 58, 1, 1.22406
66, 6, wb, attraction, a-b-da, 5, 1, 3, 10, 60, 135, 135, 60, 132, 58, 3, 0.909642
66, 6, wb, attraction, a-b-da, 9, 1, 3, 11, 60, 135, 129, 57, 135, 60, 1, 0.766626
66, 6, wb, attraction, a-b-da, 9, 1, 3, 11, 60, 135, 129, 57, 135, 60, 3, 1.34309
66, 6, wb, attraction, a-b-db, 2, 2, 3, 12, 90, 165, 165, 90, 89, 163, 3, 1.48657
66, 6, wb, attraction, a-b-db, 2, 2, 3, 12, 90, 165, 165, 90, 89, 163, 1, 4.24219
66, 6, wb, attraction, a-b-da, 9, 3, 3, 13, 195, 120, 120, 195, 186, 114, 1, 10.1807
66, 6, wb, attraction, a-b-da, 9, 3, 3, 13, 195, 120, 120, 195, 186, 114, 2, 0.449456
66, 6, wb, catch, NA, 999, 999, 3, 14, 186, 129, 118, 77, 96, 159, 2, 1.06129
66, 6, wb, catch, NA, 999, 999, 3, 14, 186, 129, 118, 77, 96, 159, 1, 0.953604
66, 6, wb, attraction, a-b-da, 5, 3, 3, 15, 195, 120, 120, 195, 190, 117, 3, 2.66548
66, 6, wb, attraction, a-b-da, 5, 3, 3, 15, 195, 120, 120, 195, 190, 117, 2, 0.88509
66, 6, wb, filler, NA, 999, 999, 3, 16, 73, 93, 155, 111, 189, 147, 1, 1.59933
66, 6, wb, filler, NA, 999, 999, 3, 16, 73, 93, 155, 111, 189, 147, 3, 1.7183
66, 6, wb, attraction, a-b-db, 5, 3, 3, 17, 195, 120, 117, 190, 120, 195, 2, 8.42294
66, 6, wb, attraction, a-b-db, 5, 3, 3, 17, 195, 120, 117, 190, 120, 195, 1, 0.73094
66, 6, wb, attraction, a-b-da, 5, 2, 3, 18, 90, 165, 165, 90, 161, 88, 1, 6.33136
66, 6, wb, attraction, a-b-da, 5, 2, 3, 18, 90, 165, 165, 90, 161, 88, 2, 0.363396
66, 6, wb, attraction, a-b-db, 14, 1, 3, 19, 56, 125, 135, 60, 60, 135, 3, 0.762547
66, 6, wb, attraction, a-b-db, 14, 1, 3, 19, 56, 125, 135, 60, 60, 135, 2, 0.64294
66, 6, wb, filler, NA, 999, 999, 3, 20, 84, 86, 67, 71, 95, 115, 2, 0.894601
66, 6, wb, filler, NA, 999, 999, 3, 20, 84, 86, 67, 71, 95, 115, 3, 3.36168
66, 6, wb, filler, NA, 999, 999, 3, 21, 131, 133, 136, 64, 162, 148, 2, 0.887891
66, 6, wb, filler, NA, 999, 999, 3, 21, 131, 133, 136, 64, 162, 148, 3, 0.434874
66, 6, wb, attraction, a-b-db, 5, 1, 3, 22, 60, 135, 135, 60, 58, 132, 3, 1.50334
66, 6, wb, attraction, a-b-db, 5, 1, 3, 22, 60, 135, 135, 60, 58, 132, 1, 1.46622
66, 6, wb, attraction, a-b-db, 9, 1, 3, 23, 135, 60, 60, 135, 57, 129, 3, 5.37303
66, 6, wb, attraction, a-b-db, 9, 1, 3, 23, 135, 60, 60, 135, 57, 129, 2, 0.763289
66, 6, wb, filler, NA, 999, 999, 3, 24, 71, 86, 79, 113, 127, 173, 1, 0.66636
66, 6, wb, filler, NA, 999, 999, 3, 24, 71, 86, 79, 113, 127, 173, 3, 0.846843
66, 6, wb, attraction, a-b-da, 14, 2, 3, 25, 165, 90, 153, 83, 90, 165, 2, 3.94652
66, 6, wb, attraction, a-b-da, 14, 2, 3, 25, 165, 90, 153, 83, 90, 165, 3, 1.19457
66, 6, wb, filler, NA, 999, 999, 3, 26, 138, 193, 161, 83, 123, 145, 2, 1.78407
66, 6, wb, filler, NA, 999, 999, 3, 26, 138, 193, 161, 83, 123, 145, 3, 0.45553
66, 6, wb, filler, NA, 999, 999, 3, 27, 100, 155, 109, 173, 174, 107, 1, 2.97929
66, 6, wb, filler, NA, 999, 999, 3, 27, 100, 155, 109, 173, 174, 107, 3, 0.80247
66, 6, wb, catch, NA, 999, 999, 3, 28, 168, 147, 159, 96, 118, 77, 3, 0.952071
66, 6, wb, catch, NA, 999, 999, 3, 28, 168, 147, 159, 96, 118, 77, 1, 0.593223
66, 6, wb, filler, NA, 999, 999, 3, 29, 77, 171, 187, 114, 82, 150, 3, 1.57496
66, 6, wb, filler, NA, 999, 999, 3, 29, 77, 171, 187, 114, 82, 150, 2, 0.566359
66, 6, wb, filler, NA, 999, 999, 3, 30, 193, 104, 182, 100, 109, 172, 3, 1.99735
66, 6, wb, filler, NA, 999, 999, 3, 30, 193, 104, 182, 100, 109, 172, 1, 1.61208
66, 6, wb, attraction, a-b-da, 2, 2, 3, 31, 163, 89, 90, 165, 165, 90, 2, 3.17679
66, 6, wb, attraction, a-b-da, 2, 2, 3, 31, 163, 89, 90, 165, 165, 90, 1, 1.71982
66, 6, wb, attraction, a-b-da, 9, 2, 3, 32, 165, 90, 90, 165, 157, 86, 2, 2.04856
66, 6, wb, attraction, a-b-da, 9, 2, 3, 32, 165, 90, 90, 165, 157, 86, 1, 0.869254
66, 6, wb, attraction, a-b-db, 9, 3, 3, 33, 120, 195, 114, 186, 195, 120, 2, 2.87219
66, 6, wb, attraction, a-b-db, 9, 3, 3, 33, 120, 195, 114, 186, 195, 120, 3, 1.2514
66, 6, wb, attraction, a-b-da, 2, 1, 3, 34, 60, 135, 134, 59, 135, 60, 1, 1.927
66, 6, wb, attraction, a-b-da, 2, 1, 3, 34, 60, 135, 134, 59, 135, 60, 3, 2.71221
66, 6, wb, attraction, a-b-db, 2, 3, 3, 35, 120, 195, 119, 193, 195, 120, 2, 2.20864
66, 6, wb, attraction, a-b-db, 2, 3, 3, 35, 120, 195, 119, 193, 195, 120, 3, 0.382751
66, 6, wb, filler, NA, 999, 999, 3, 36, 91, 167, 104, 144, 166, 190, 2, 0.653056
66, 6, wb, filler, NA, 999, 999, 3, 36, 91, 167, 104, 144, 166, 190, 3, 1.2022
66, 6, wb, attraction, a-b-db, 5, 2, 3, 37, 165, 90, 88, 161, 90, 165, 1, 1.64775
66, 6, wb, attraction, a-b-db, 5, 2, 3, 37, 165, 90, 88, 161, 90, 165, 2, 1.22854
66, 6, wb, filler, NA, 999, 999, 4, 1, 133, 79, 137, 69, 144, 157, 2, 0.43285
66, 6, wb, filler, NA, 999, 999, 4, 1, 133, 79, 137, 69, 144, 157, 3, 1.32661
66, 6, wb, attraction, a-b-db, 5, 1, 4, 2, 58, 132, 135, 60, 60, 135, 2, 1.06281
66, 6, wb, attraction, a-b-db, 5, 1, 4, 2, 58, 132, 135, 60, 60, 135, 1, 1.33111
66, 6, wb, attraction, a-b-db, 14, 3, 4, 3, 195, 120, 120, 195, 111, 181, 3, 3.29131
66, 6, wb, attraction, a-b-db, 14, 3, 4, 3, 195, 120, 120, 195, 111, 181, 1, 0.389656
66, 6, wb, attraction, a-b-da, 2, 3, 4, 4, 193, 119, 120, 195, 195, 120, 2, 10.2995
66, 6, wb, attraction, a-b-da, 2, 3, 4, 4, 193, 119, 120, 195, 195, 120, 3, 0.675514
66, 6, wb, filler, NA, 999, 999, 4, 5, 157, 185, 195, 117, 67, 84, 3, 0.741919
66, 6, wb, filler, NA, 999, 999, 4, 5, 157, 185, 195, 117, 67, 84, 1, 0.622931
66, 6, wb, attraction, a-b-db, 2, 3, 4, 6, 120, 195, 119, 193, 195, 120, 2, 2.12358
66, 6, wb, attraction, a-b-db, 2, 3, 4, 6, 120, 195, 119, 193, 195, 120, 3, 3.7968
66, 6, wb, filler, NA, 999, 999, 4, 7, 143, 113, 69, 163, 149, 121, 2, 0.945485
66, 6, wb, filler, NA, 999, 999, 4, 7, 143, 113, 69, 163, 149, 121, 3, 1.77059
66, 6, wb, filler, NA, 999, 999, 4, 8, 134, 100, 194, 57, 182, 110, 1, 2.85721
66, 6, wb, filler, NA, 999, 999, 4, 8, 134, 100, 194, 57, 182, 110, 2, 3.33297
66, 6, wb, catch, NA, 999, 999, 4, 9, 70, 125, 191, 124, 98, 157, 1, 13.2765
66, 6, wb, catch, NA, 999, 999, 4, 9, 70, 125, 191, 124, 98, 157, 2, 1.74028
66, 6, wb, attraction, a-b-da, 14, 3, 4, 10, 181, 111, 120, 195, 195, 120, 2, 4.41178
66, 6, wb, attraction, a-b-da, 14, 3, 4, 10, 181, 111, 120, 195, 195, 120, 1, 0.496933
66, 6, wb, attraction, a-b-da, 9, 1, 4, 11, 135, 60, 60, 135, 129, 57, 2, 0.690825
66, 6, wb, attraction, a-b-da, 9, 1, 4, 11, 135, 60, 60, 135, 129, 57, 3, 0.501862
66, 6, wb, attraction, a-b-da, 2, 1, 4, 12, 135, 60, 134, 59, 60, 135, 2, 0.775587
66, 6, wb, attraction, a-b-da, 2, 1, 4, 12, 135, 60, 134, 59, 60, 135, 3, 0.40741
66, 6, wb, filler, NA, 999, 999, 4, 13, 62, 152, 186, 148, 80, 62, 3, 0.876513
66, 6, wb, filler, NA, 999, 999, 4, 13, 62, 152, 186, 148, 80, 62, 2, 0.592266
66, 6, wb, attraction, a-b-da, 5, 2, 4, 14, 161, 88, 165, 90, 90, 165, 2, 0.677892
66, 6, wb, attraction, a-b-da, 5, 2, 4, 14, 161, 88, 165, 90, 90, 165, 1, 0.897734
66, 6, wb, attraction, a-b-da, 9, 3, 4, 15, 120, 195, 186, 114, 195, 120, 2, 0.507415
66, 6, wb, attraction, a-b-da, 9, 3, 4, 15, 120, 195, 186, 114, 195, 120, 1, 1.4539
66, 6, wb, attraction, a-b-da, 5, 3, 4, 16, 195, 120, 120, 195, 190, 117, 2, 0.697297
66, 6, wb, attraction, a-b-da, 5, 3, 4, 16, 195, 120, 120, 195, 190, 117, 1, 1.87644
66, 6, wb, filler, NA, 999, 999, 4, 17, 156, 166, 145, 160, 121, 118, 3, 0.734401
66, 6, wb, filler, NA, 999, 999, 4, 17, 156, 166, 145, 160, 121, 118, 1, 0.584168
66, 6, wb, filler, NA, 999, 999, 4, 18, 170, 88, 172, 144, 161, 160, 1, 1.13464
66, 6, wb, filler, NA, 999, 999, 4, 18, 170, 88, 172, 144, 161, 160, 3, 0.792418
66, 6, wb, attraction, a-b-db, 9, 2, 4, 19, 86, 157, 165, 90, 90, 165, 2, 0.742069
66, 6, wb, attraction, a-b-db, 9, 2, 4, 19, 86, 157, 165, 90, 90, 165, 1, 0.471208
66, 6, wb, attraction, a-b-db, 14, 2, 4, 20, 83, 153, 90, 165, 165, 90, 1, 0.826205
66, 6, wb, attraction, a-b-db, 14, 2, 4, 20, 83, 153, 90, 165, 165, 90, 3, 0.511919
66, 6, wb, attraction, a-b-db, 14, 1, 4, 21, 135, 60, 60, 135, 56, 125, 2, 1.04913
66, 6, wb, attraction, a-b-db, 14, 1, 4, 21, 135, 60, 60, 135, 56, 125, 1, 1.29403
66, 6, wb, attraction, a-b-db, 5, 3, 4, 22, 120, 195, 117, 190, 195, 120, 1, 2.11954
66, 6, wb, attraction, a-b-db, 5, 3, 4, 22, 120, 195, 117, 190, 195, 120, 3, 2.06297
66, 6, wb, attraction, a-b-db, 2, 2, 4, 23, 165, 90, 90, 165, 89, 163, 2, 1.47615
66, 6, wb, attraction, a-b-db, 2, 2, 4, 23, 165, 90, 90, 165, 89, 163, 1, 1.02368
66, 6, wb, filler, NA, 999, 999, 4, 24, 164, 146, 170, 137, 68, 175, 3, 0.811865
66, 6, wb, filler, NA, 999, 999, 4, 24, 164, 146, 170, 137, 68, 175, 1, 1.20235
66, 6, wb, attraction, a-b-db, 5, 2, 4, 25, 88, 161, 165, 90, 90, 165, 1, 2.45592
66, 6, wb, attraction, a-b-db, 5, 2, 4, 25, 88, 161, 165, 90, 90, 165, 3, 2.2997
66, 6, wb, attraction, a-b-db, 9, 3, 4, 26, 195, 120, 120, 195, 114, 186, 2, 4.29301
66, 6, wb, attraction, a-b-db, 9, 3, 4, 26, 195, 120, 120, 195, 114, 186, 1, 0.550926
66, 6, wb, attraction, a-b-da, 2, 2, 4, 27, 163, 89, 90, 165, 165, 90, 2, 1.55881
66, 6, wb, attraction, a-b-da, 2, 2, 4, 27, 163, 89, 90, 165, 165, 90, 3, 0.774863
66, 6, wb, catch, NA, 999, 999, 4, 28, 161, 154, 74, 121, 154, 101, 2, 0.829313
66, 6, wb, catch, NA, 999, 999, 4, 28, 161, 154, 74, 121, 154, 101, 1, 0.466928
66, 6, wb, attraction, a-b-da, 5, 1, 4, 29, 60, 135, 135, 60, 132, 58, 1, 1.10996
66, 6, wb, attraction, a-b-da, 5, 1, 4, 29, 60, 135, 135, 60, 132, 58, 3, 0.808339
66, 6, wb, attraction, a-b-db, 2, 1, 4, 30, 135, 60, 60, 135, 59, 134, 2, 1.15749
66, 6, wb, attraction, a-b-db, 2, 1, 4, 30, 135, 60, 60, 135, 59, 134, 1, 0.661546
66, 6, wb, attraction, a-b-db, 9, 1, 4, 31, 57, 129, 60, 135, 135, 60, 2, 0.568638
66, 6, wb, attraction, a-b-db, 9, 1, 4, 31, 57, 129, 60, 135, 135, 60, 1, 0.585137
66, 6, wb, filler, NA, 999, 999, 4, 32, 85, 130, 181, 80, 151, 190, 1, 1.07167
66, 6, wb, filler, NA, 999, 999, 4, 32, 85, 130, 181, 80, 151, 190, 3, 0.379267
66, 6, wb, attraction, a-b-da, 9, 2, 4, 33, 157, 86, 90, 165, 165, 90, 2, 0.601692
66, 6, wb, attraction, a-b-da, 9, 2, 4, 33, 157, 86, 90, 165, 165, 90, 3, 0.480896
66, 6, wb, filler, NA, 999, 999, 4, 34, 187, 167, 137, 161, 124, 176, 2, 1.10735
66, 6, wb, filler, NA, 999, 999, 4, 34, 187, 167, 137, 161, 124, 176, 1, 1.62961
66, 6, wb, catch, NA, 999, 999, 4, 35, 129, 126, 151, 164, 66, 129, 3, 0.729662
66, 6, wb, catch, NA, 999, 999, 4, 35, 129, 126, 151, 164, 66, 129, 2, 0.523448
66, 6, wb, attraction, a-b-da, 14, 2, 4, 36, 165, 90, 90, 165, 153, 83, 3, 0.69185
66, 6, wb, attraction, a-b-da, 14, 2, 4, 36, 165, 90, 90, 165, 153, 83, 1, 0.615012
66, 6, wb, attraction, a-b-da, 14, 1, 4, 37, 135, 60, 60, 135, 125, 56, 2, 1.13206
66, 6, wb, attraction, a-b-da, 14, 1, 4, 37, 135, 60, 60, 135, 125, 56, 1, 1.66982
66, 6, wb, attraction, a-b-db, 5, 2, 5, 1, 90, 165, 165, 90, 88, 161, 3, 37.8385
66, 6, wb, attraction, a-b-db, 5, 2, 5, 1, 90, 165, 165, 90, 88, 161, 1, 0.9847
66, 6, wb, filler, NA, 999, 999, 5, 2, 73, 121, 172, 158, 152, 145, 1, 1.27876
66, 6, wb, filler, NA, 999, 999, 5, 2, 73, 121, 172, 158, 152, 145, 2, 0.522372
66, 6, wb, attraction, a-b-da, 9, 2, 5, 3, 165, 90, 90, 165, 157, 86, 2, 0.747655
66, 6, wb, attraction, a-b-da, 9, 2, 5, 3, 165, 90, 90, 165, 157, 86, 1, 0.348503
66, 6, wb, attraction, a-b-da, 2, 1, 5, 4, 134, 59, 135, 60, 60, 135, 3, 1.42055
66, 6, wb, attraction, a-b-da, 2, 1, 5, 4, 134, 59, 135, 60, 60, 135, 1, 0.377984
66, 6, wb, attraction, a-b-da, 9, 3, 5, 5, 186, 114, 120, 195, 195, 120, 1, 2.16848
66, 6, wb, attraction, a-b-da, 9, 3, 5, 5, 186, 114, 120, 195, 195, 120, 2, 0.368396
66, 6, wb, attraction, a-b-da, 2, 2, 5, 6, 163, 89, 90, 165, 165, 90, 2, 0.911694
66, 6, wb, attraction, a-b-da, 2, 2, 5, 6, 163, 89, 90, 165, 165, 90, 3, 3.09799
66, 6, wb, attraction, a-b-db, 2, 3, 5, 7, 195, 120, 120, 195, 119, 193, 2, 1.49089
66, 6, wb, attraction, a-b-db, 2, 3, 5, 7, 195, 120, 120, 195, 119, 193, 1, 0.429818
66, 6, wb, attraction, a-b-da, 5, 1, 5, 8, 132, 58, 60, 135, 135, 60, 2, 1.17011
66, 6, wb, attraction, a-b-da, 5, 1, 5, 8, 132, 58, 60, 135, 135, 60, 3, 0.482596
66, 6, wb, filler, NA, 999, 999, 5, 9, 168, 165, 76, 83, 185, 64, 2, 0.564951
66, 6, wb, filler, NA, 999, 999, 5, 9, 168, 165, 76, 83, 185, 64, 1, 0.341402
66, 6, wb, catch, NA, 999, 999, 5, 10, 110, 145, 123, 72, 155, 160, 2, 1.02919
66, 6, wb, catch, NA, 999, 999, 5, 10, 110, 145, 123, 72, 155, 160, 3, 0.522827
66, 6, wb, attraction, a-b-db, 14, 1, 5, 11, 135, 60, 60, 135, 56, 125, 2, 0.563286
66, 6, wb, attraction, a-b-db, 14, 1, 5, 11, 135, 60, 60, 135, 56, 125, 1, 1.35593
66, 6, wb, attraction, a-b-da, 5, 3, 5, 12, 190, 117, 195, 120, 120, 195, 3, 2.05137
66, 6, wb, attraction, a-b-da, 5, 3, 5, 12, 190, 117, 195, 120, 120, 195, 2, 0.448089
66, 6, wb, filler, NA, 999, 999, 5, 13, 184, 92, 92, 133, 159, 71, 2, 0.971891
66, 6, wb, filler, NA, 999, 999, 5, 13, 184, 92, 92, 133, 159, 71, 1, 0.315468
66, 6, wb, attraction, a-b-db, 14, 3, 5, 14, 120, 195, 111, 181, 195, 120, 2, 1.57259
66, 6, wb, attraction, a-b-db, 14, 3, 5, 14, 120, 195, 111, 181, 195, 120, 3, 0.892185
66, 6, wb, attraction, a-b-da, 14, 2, 5, 15, 153, 83, 165, 90, 90, 165, 2, 5.86179
66, 6, wb, attraction, a-b-da, 14, 2, 5, 15, 153, 83, 165, 90, 90, 165, 3, 2.17654
66, 6, wb, filler, NA, 999, 999, 5, 16, 87, 185, 70, 75, 88, 131, 2, 0.494501
66, 6, wb, filler, NA, 999, 999, 5, 16, 87, 185, 70, 75, 88, 131, 1, 0.353675
66, 6, wb, attraction, a-b-db, 5, 3, 5, 17, 120, 195, 195, 120, 117, 190, 3, 2.67349
66, 6, wb, attraction, a-b-db, 5, 3, 5, 17, 120, 195, 195, 120, 117, 190, 1, 1.51659
66, 6, wb, filler, NA, 999, 999, 5, 18, 102, 84, 86, 139, 70, 181, 1, 2.02138
66, 6, wb, filler, NA, 999, 999, 5, 18, 102, 84, 86, 139, 70, 181, 3, 0.770774
66, 6, wb, attraction, a-b-db, 9, 1, 5, 19, 60, 135, 57, 129, 135, 60, 2, 1.56175
66, 6, wb, attraction, a-b-db, 9, 1, 5, 19, 60, 135, 57, 129, 135, 60, 1, 0.665934
66, 6, wb, attraction, a-b-da, 9, 1, 5, 20, 135, 60, 60, 135, 129, 57, 2, 5.94103
66, 6, wb, attraction, a-b-da, 9, 1, 5, 20, 135, 60, 60, 135, 129, 57, 1, 1.13256
66, 6, wb, filler, NA, 999, 999, 5, 21, 153, 142, 86, 66, 124, 110, 2, 0.54069
66, 6, wb, filler, NA, 999, 999, 5, 21, 153, 142, 86, 66, 124, 110, 1, 0.301916
66, 6, wb, attraction, a-b-da, 5, 2, 5, 22, 90, 165, 165, 90, 161, 88, 2, 0.74368
66, 6, wb, attraction, a-b-da, 5, 2, 5, 22, 90, 165, 165, 90, 161, 88, 3, 1.31281
66, 6, wb, filler, NA, 999, 999, 5, 23, 136, 116, 159, 172, 178, 80, 1, 2.00971
66, 6, wb, filler, NA, 999, 999, 5, 23, 136, 116, 159, 172, 178, 80, 2, 2.6958
66, 6, wb, catch, NA, 999, 999, 5, 24, 189, 126, 160, 95, 92, 103, 3, 0.800843
66, 6, wb, catch, NA, 999, 999, 5, 24, 189, 126, 160, 95, 92, 103, 1, 0.32787
66, 6, wb, attraction, a-b-db, 2, 1, 5, 25, 59, 134, 60, 135, 135, 60, 3, 0.792338
66, 6, wb, attraction, a-b-db, 2, 1, 5, 25, 59, 134, 60, 135, 135, 60, 2, 2.03149
66, 6, wb, filler, NA, 999, 999, 5, 26, 165, 96, 149, 190, 110, 111, 3, 1.51541
66, 6, wb, filler, NA, 999, 999, 5, 26, 165, 96, 149, 190, 110, 111, 2, 1.47755
66, 6, wb, catch, NA, 999, 999, 5, 27, 61, 134, 133, 182, 161, 94, 1, 0.631634
66, 6, wb, catch, NA, 999, 999, 5, 27, 61, 134, 133, 182, 161, 94, 2, 0.317423
66, 6, wb, attraction, a-b-db, 2, 2, 5, 28, 89, 163, 90, 165, 165, 90, 1, 4.34258
66, 6, wb, attraction, a-b-db, 2, 2, 5, 28, 89, 163, 90, 165, 165, 90, 3, 0.79058
66, 6, wb, attraction, a-b-da, 14, 3, 5, 29, 181, 111, 195, 120, 120, 195, 2, 0.524282
66, 6, wb, attraction, a-b-da, 14, 3, 5, 29, 181, 111, 195, 120, 120, 195, 3, 0.814089
66, 6, wb, attraction, a-b-db, 14, 2, 5, 30, 90, 165, 165, 90, 83, 153, 3, 1.32307
66, 6, wb, attraction, a-b-db, 14, 2, 5, 30, 90, 165, 165, 90, 83, 153, 2, 0.788637
66, 6, wb, attraction, a-b-db, 9, 3, 5, 31, 195, 120, 120, 195, 114, 186, 1, 1.06696
66, 6, wb, attraction, a-b-db, 9, 3, 5, 31, 195, 120, 120, 195, 114, 186, 2, 2.87933
66, 6, wb, filler, NA, 999, 999, 5, 32, 76, 120, 180, 71, 175, 135, 1, 0.785003
66, 6, wb, filler, NA, 999, 999, 5, 32, 76, 120, 180, 71, 175, 135, 3, 1.55282
66, 6, wb, attraction, a-b-da, 2, 3, 5, 33, 193, 119, 195, 120, 120, 195, 3, 1.97613
66, 6, wb, attraction, a-b-da, 2, 3, 5, 33, 193, 119, 195, 120, 120, 195, 1, 1.04751
66, 6, wb, attraction, a-b-db, 9, 2, 5, 34, 86, 157, 90, 165, 165, 90, 2, 10.6191
66, 6, wb, attraction, a-b-db, 9, 2, 5, 34, 86, 157, 90, 165, 165, 90, 3, 0.806537
66, 6, wb, attraction, a-b-db, 5, 1, 5, 35, 60, 135, 135, 60, 58, 132, 2, 1.1956
66, 6, wb, attraction, a-b-db, 5, 1, 5, 35, 60, 135, 135, 60, 58, 132, 1, 0.466429
66, 6, wb, attraction, a-b-da, 14, 1, 5, 36, 125, 56, 60, 135, 135, 60, 2, 0.933544
66, 6, wb, attraction, a-b-da, 14, 1, 5, 36, 125, 56, 60, 135, 135, 60, 1, 0.60734
66, 6, wb, filler, NA, 999, 999, 5, 37, 132, 57, 84, 110, 143, 167, 2, 0.804322
66, 6, wb, filler, NA, 999, 999, 5, 37, 132, 57, 84, 110, 143, 167, 3, 4.49078
66, 6, wb, filler, NA, 999, 999, 6, 1, 135, 122, 173, 81, 64, 64, 3, 1.00326
66, 6, wb, filler, NA, 999, 999, 6, 1, 135, 122, 173, 81, 64, 64, 2, 1.69842
66, 6, wb, attraction, a-b-db, 14, 3, 6, 2, 195, 120, 120, 195, 111, 181, 3, 2.97167
66, 6, wb, attraction, a-b-db, 14, 3, 6, 2, 195, 120, 120, 195, 111, 181, 1, 0.650802
66, 6, wb, attraction, a-b-da, 9, 2, 6, 3, 165, 90, 157, 86, 90, 165, 2, 2.06246
66, 6, wb, attraction, a-b-da, 9, 2, 6, 3, 165, 90, 157, 86, 90, 165, 1, 0.826437
66, 6, wb, filler, NA, 999, 999, 6, 4, 111, 181, 163, 69, 122, 157, 2, 1.01474
66, 6, wb, filler, NA, 999, 999, 6, 4, 111, 181, 163, 69, 122, 157, 1, 3.59724
66, 6, wb, filler, NA, 999, 999, 6, 5, 185, 110, 183, 128, 107, 168, 3, 4.05791
66, 6, wb, filler, NA, 999, 999, 6, 5, 185, 110, 183, 128, 107, 168, 2, 1.05331
66, 6, wb, attraction, a-b-db, 2, 2, 6, 6, 90, 165, 165, 90, 89, 163, 3, 6.9049
66, 6, wb, attraction, a-b-db, 2, 2, 6, 6, 90, 165, 165, 90, 89, 163, 1, 0.362151
66, 6, wb, attraction, a-b-da, 5, 1, 6, 7, 60, 135, 132, 58, 135, 60, 1, 2.32925
66, 6, wb, attraction, a-b-da, 5, 1, 6, 7, 60, 135, 132, 58, 135, 60, 2, 0.738478
66, 6, wb, attraction, a-b-da, 2, 1, 6, 8, 60, 135, 134, 59, 135, 60, 2, 3.8989
66, 6, wb, attraction, a-b-da, 2, 1, 6, 8, 60, 135, 134, 59, 135, 60, 3, 3.62104
66, 6, wb, attraction, a-b-db, 14, 1, 6, 9, 60, 135, 135, 60, 56, 125, 3, 1.4651
66, 6, wb, attraction, a-b-db, 14, 1, 6, 9, 60, 135, 135, 60, 56, 125, 1, 2.92531
66, 6, wb, attraction, a-b-db, 5, 2, 6, 10, 88, 161, 165, 90, 90, 165, 1, 3.62105
66, 6, wb, attraction, a-b-db, 5, 2, 6, 10, 88, 161, 165, 90, 90, 165, 2, 0.546605
66, 6, wb, attraction, a-b-da, 2, 3, 6, 11, 120, 195, 195, 120, 193, 119, 2, 4.18618
66, 6, wb, attraction, a-b-da, 2, 3, 6, 11, 120, 195, 195, 120, 193, 119, 1, 0.448925
66, 6, wb, attraction, a-b-db, 9, 1, 6, 12, 60, 135, 135, 60, 57, 129, 3, 2.42867
66, 6, wb, attraction, a-b-db, 9, 1, 6, 12, 60, 135, 135, 60, 57, 129, 1, 1.76999
66, 6, wb, filler, NA, 999, 999, 6, 13, 127, 126, 150, 99, 157, 155, 2, 3.48865
66, 6, wb, filler, NA, 999, 999, 6, 13, 127, 126, 150, 99, 157, 155, 3, 1.62688
66, 6, wb, attraction, a-b-da, 5, 2, 6, 14, 165, 90, 161, 88, 90, 165, 2, 1.51095
66, 6, wb, attraction, a-b-da, 5, 2, 6, 14, 165, 90, 161, 88, 90, 165, 1, 0.497131
66, 6, wb, attraction, a-b-db, 5, 3, 6, 15, 120, 195, 117, 190, 195, 120, 2, 1.76294
66, 6, wb, attraction, a-b-db, 5, 3, 6, 15, 120, 195, 117, 190, 195, 120, 3, 0.371048
66, 6, wb, attraction, a-b-db, 14, 2, 6, 16, 165, 90, 90, 165, 83, 153, 1, 1.78622
66, 6, wb, attraction, a-b-db, 14, 2, 6, 16, 165, 90, 90, 165, 83, 153, 2, 2.80173
66, 6, wb, attraction, a-b-db, 2, 1, 6, 17, 60, 135, 59, 134, 135, 60, 2, 3.09461
66, 6, wb, attraction, a-b-db, 2, 1, 6, 17, 60, 135, 59, 134, 135, 60, 3, 0.721051
66, 6, wb, catch, NA, 999, 999, 6, 18, 184, 131, 63, 132, 151, 104, 2, 1.54603
66, 6, wb, catch, NA, 999, 999, 6, 18, 184, 131, 63, 132, 151, 104, 1, 0.402848
66, 6, wb, attraction, a-b-da, 5, 3, 6, 19, 195, 120, 120, 195, 190, 117, 3, 21.1767
66, 6, wb, attraction, a-b-da, 5, 3, 6, 19, 195, 120, 120, 195, 190, 117, 2, 2.21876
66, 6, wb, attraction, a-b-da, 14, 2, 6, 20, 90, 165, 153, 83, 165, 90, 2, 2.37529
66, 6, wb, attraction, a-b-da, 14, 2, 6, 20, 90, 165, 153, 83, 165, 90, 3, 0.590575
66, 6, wb, attraction, a-b-da, 2, 2, 6, 21, 163, 89, 90, 165, 165, 90, 2, 3.25226
66, 6, wb, attraction, a-b-da, 2, 2, 6, 21, 163, 89, 90, 165, 165, 90, 1, 2.01664
66, 6, wb, attraction, a-b-db, 9, 2, 6, 22, 90, 165, 86, 157, 165, 90, 2, 1.36516
66, 6, wb, attraction, a-b-db, 9, 2, 6, 22, 90, 165, 86, 157, 165, 90, 1, 0.469399
66, 6, wb, attraction, a-b-db, 2, 3, 6, 23, 120, 195, 119, 193, 195, 120, 2, 2.37658
66, 6, wb, attraction, a-b-db, 2, 3, 6, 23, 120, 195, 119, 193, 195, 120, 1, 0.463915
66, 6, wb, filler, NA, 999, 999, 6, 24, 61, 122, 61, 86, 99, 122, 2, 0.730925
66, 6, wb, filler, NA, 999, 999, 6, 24, 61, 122, 61, 86, 99, 122, 3, 0.996815
66, 6, wb, catch, NA, 999, 999, 6, 25, 126, 189, 128, 67, 129, 126, 2, 1.21033
66, 6, wb, catch, NA, 999, 999, 6, 25, 126, 189, 128, 67, 129, 126, 1, 0.320534
66, 6, wb, filler, NA, 999, 999, 6, 26, 67, 176, 105, 159, 167, 67, 3, 2.56984
66, 6, wb, filler, NA, 999, 999, 6, 26, 67, 176, 105, 159, 167, 67, 2, 0.329688
66, 6, wb, filler, NA, 999, 999, 6, 27, 75, 96, 190, 176, 133, 192, 1, 0.810138
66, 6, wb, filler, NA, 999, 999, 6, 27, 75, 96, 190, 176, 133, 192, 2, 0.496473
66, 6, wb, filler, NA, 999, 999, 6, 28, 147, 187, 100, 99, 117, 169, 2, 0.810249
66, 6, wb, filler, NA, 999, 999, 6, 28, 147, 187, 100, 99, 117, 169, 1, 0.688649
66, 6, wb, filler, NA, 999, 999, 6, 29, 60, 157, 64, 136, 118, 91, 2, 1.40317
66, 6, wb, filler, NA, 999, 999, 6, 29, 60, 157, 64, 136, 118, 91, 3, 0.329918
66, 6, wb, attraction, a-b-db, 5, 1, 6, 30, 58, 132, 135, 60, 60, 135, 1, 3.29833
66, 6, wb, attraction, a-b-db, 5, 1, 6, 30, 58, 132, 135, 60, 60, 135, 2, 0.388678
66, 6, wb, catch, NA, 999, 999, 6, 31, 118, 77, 127, 128, 148, 167, 1, 0.971198
66, 6, wb, catch, NA, 999, 999, 6, 31, 118, 77, 127, 128, 148, 167, 3, 0.338901
66, 6, wb, attraction, a-b-da, 14, 1, 6, 32, 135, 60, 125, 56, 60, 135, 3, 2.44334
66, 6, wb, attraction, a-b-da, 14, 1, 6, 32, 135, 60, 125, 56, 60, 135, 1, 0.727842
66, 6, wb, attraction, a-b-da, 9, 3, 6, 33, 120, 195, 186, 114, 195, 120, 2, 1.80821
66, 6, wb, attraction, a-b-da, 9, 3, 6, 33, 120, 195, 186, 114, 195, 120, 1, 0.382363
66, 6, wb, attraction, a-b-db, 9, 3, 6, 34, 195, 120, 114, 186, 120, 195, 3, 9.82888
66, 6, wb, attraction, a-b-db, 9, 3, 6, 34, 195, 120, 114, 186, 120, 195, 1, 1.45572
66, 6, wb, attraction, a-b-da, 14, 3, 6, 35, 195, 120, 120, 195, 181, 111, 3, 0.94725
66, 6, wb, attraction, a-b-da, 14, 3, 6, 35, 195, 120, 120, 195, 181, 111, 2, 2.00427
66, 6, wb, attraction, a-b-da, 9, 1, 6, 36, 129, 57, 135, 60, 60, 135, 1, 1.8656
66, 6, wb, attraction, a-b-da, 9, 1, 6, 36, 129, 57, 135, 60, 60, 135, 2, 0.669592
66, 6, wb, filler, NA, 999, 999, 6, 37, 139, 85, 180, 187, 147, 76, 1, 4.28886
66, 6, wb, filler, NA, 999, 999, 6, 37, 139, 85, 180, 187, 147, 76, 2, 0.338582
66, 6, wb, filler, NA, 999, 999, 7, 1, 126, 167, 155, 131, 189, 180, 2, 4.65119
66, 6, wb, filler, NA, 999, 999, 7, 1, 126, 167, 155, 131, 189, 180, 3, 0.502999
66, 6, wb, attraction, a-b-db, 9, 2, 7, 2, 90, 165, 165, 90, 86, 157, 3, 1.49677
66, 6, wb, attraction, a-b-db, 9, 2, 7, 2, 90, 165, 165, 90, 86, 157, 1, 3.47554
66, 6, wb, attraction, a-b-da, 5, 2, 7, 3, 90, 165, 165, 90, 161, 88, 2, 0.933331
66, 6, wb, attraction, a-b-da, 5, 2, 7, 3, 90, 165, 165, 90, 161, 88, 3, 0.414867
66, 6, wb, attraction, a-b-da, 14, 3, 7, 4, 120, 195, 181, 111, 195, 120, 2, 0.651973
66, 6, wb, attraction, a-b-da, 14, 3, 7, 4, 120, 195, 181, 111, 195, 120, 1, 1.64105
66, 6, wb, filler, NA, 999, 999, 7, 5, 140, 74, 151, 63, 115, 115, 2, 1.5405
66, 6, wb, filler, NA, 999, 999, 7, 5, 140, 74, 151, 63, 115, 115, 3, 9.74933
66, 6, wb, filler, NA, 999, 999, 7, 6, 87, 153, 95, 82, 156, 130, 2, 0.786223
66, 6, wb, filler, NA, 999, 999, 7, 6, 87, 153, 95, 82, 156, 130, 3, 0.401935
66, 6, wb, attraction, a-b-db, 14, 3, 7, 7, 111, 181, 120, 195, 195, 120, 2, 0.895689
66, 6, wb, attraction, a-b-db, 14, 3, 7, 7, 111, 181, 120, 195, 195, 120, 3, 0.39483
66, 6, wb, attraction, a-b-da, 9, 2, 7, 8, 157, 86, 90, 165, 165, 90, 2, 0.616584
66, 6, wb, attraction, a-b-da, 9, 2, 7, 8, 157, 86, 90, 165, 165, 90, 1, 0.655103
66, 6, wb, attraction, a-b-db, 9, 3, 7, 9, 120, 195, 195, 120, 114, 186, 2, 0.586744
66, 6, wb, attraction, a-b-db, 9, 3, 7, 9, 120, 195, 195, 120, 114, 186, 3, 0.410654
66, 6, wb, attraction, a-b-da, 5, 1, 7, 10, 132, 58, 135, 60, 60, 135, 2, 0.847816
66, 6, wb, attraction, a-b-da, 5, 1, 7, 10, 132, 58, 135, 60, 60, 135, 1, 1.53283
66, 6, wb, attraction, a-b-da, 9, 1, 7, 11, 129, 57, 60, 135, 135, 60, 2, 0.636912
66, 6, wb, attraction, a-b-da, 9, 1, 7, 11, 129, 57, 60, 135, 135, 60, 3, 0.986827
66, 6, wb, attraction, a-b-da, 5, 3, 7, 12, 120, 195, 195, 120, 190, 117, 3, 5.67299
66, 6, wb, attraction, a-b-da, 5, 3, 7, 12, 120, 195, 195, 120, 190, 117, 2, 0.251252
66, 6, wb, attraction, a-b-db, 2, 2, 7, 13, 89, 163, 165, 90, 90, 165, 1, 1.28699
66, 6, wb, attraction, a-b-db, 2, 2, 7, 13, 89, 163, 165, 90, 90, 165, 3, 0.826601
66, 6, wb, attraction, a-b-db, 5, 2, 7, 14, 165, 90, 88, 161, 90, 165, 2, 1.55102
66, 6, wb, attraction, a-b-db, 5, 2, 7, 14, 165, 90, 88, 161, 90, 165, 1, 0.279879
66, 6, wb, catch, NA, 999, 999, 7, 15, 166, 149, 64, 131, 162, 93, 2, 0.890332
66, 6, wb, catch, NA, 999, 999, 7, 15, 166, 149, 64, 131, 162, 93, 1, 0.349344
66, 6, wb, attraction, a-b-da, 14, 2, 7, 16, 153, 83, 90, 165, 165, 90, 1, 1.35715
66, 6, wb, attraction, a-b-da, 14, 2, 7, 16, 153, 83, 90, 165, 165, 90, 3, 3.17341
66, 6, wb, attraction, a-b-db, 5, 1, 7, 17, 58, 132, 135, 60, 60, 135, 3, 2.20296
66, 6, wb, attraction, a-b-db, 5, 1, 7, 17, 58, 132, 135, 60, 60, 135, 1, 2.20958
66, 6, wb, filler, NA, 999, 999, 7, 18, 108, 195, 179, 136, 103, 166, 3, 1.31032
66, 6, wb, filler, NA, 999, 999, 7, 18, 108, 195, 179, 136, 103, 166, 2, 1.2324
66, 6, wb, attraction, a-b-db, 2, 1, 7, 19, 59, 134, 60, 135, 135, 60, 2, 1.82061
66, 6, wb, attraction, a-b-db, 2, 1, 7, 19, 59, 134, 60, 135, 135, 60, 1, 0.434003
66, 6, wb, attraction, a-b-db, 14, 2, 7, 20, 83, 153, 165, 90, 90, 165, 1, 17.8385
66, 6, wb, attraction, a-b-db, 14, 2, 7, 20, 83, 153, 165, 90, 90, 165, 3, 0.766938
66, 6, wb, filler, NA, 999, 999, 7, 21, 192, 57, 57, 137, 134, 158, 2, 0.845993
66, 6, wb, filler, NA, 999, 999, 7, 21, 192, 57, 57, 137, 134, 158, 3, 0.882949
66, 6, wb, filler, NA, 999, 999, 7, 22, 101, 123, 170, 62, 105, 150, 2, 1.82939
66, 6, wb, filler, NA, 999, 999, 7, 22, 101, 123, 170, 62, 105, 150, 3, 0.682815
66, 6, wb, catch, NA, 999, 999, 7, 23, 78, 117, 154, 161, 140, 115, 1, 0.84513
66, 6, wb, catch, NA, 999, 999, 7, 23, 78, 117, 154, 161, 140, 115, 2, 0.466327
66, 6, wb, attraction, a-b-da, 2, 1, 7, 24, 135, 60, 134, 59, 60, 135, 2, 2.30924
66, 6, wb, attraction, a-b-da, 2, 1, 7, 24, 135, 60, 134, 59, 60, 135, 3, 0.711303
66, 6, wb, attraction, a-b-da, 14, 1, 7, 25, 60, 135, 135, 60, 125, 56, 2, 1.94432
66, 6, wb, attraction, a-b-da, 14, 1, 7, 25, 60, 135, 135, 60, 125, 56, 1, 0.409055
66, 6, wb, catch, NA, 999, 999, 7, 26, 98, 157, 132, 63, 161, 154, 2, 0.694104
66, 6, wb, catch, NA, 999, 999, 7, 26, 98, 157, 132, 63, 161, 154, 3, 0.745172
66, 6, wb, attraction, a-b-db, 2, 3, 7, 27, 195, 120, 120, 195, 119, 193, 2, 13.945
66, 6, wb, attraction, a-b-db, 2, 3, 7, 27, 195, 120, 120, 195, 119, 193, 1, 0.365813
66, 6, wb, attraction, a-b-da, 2, 2, 7, 28, 165, 90, 163, 89, 90, 165, 3, 1.06899
66, 6, wb, attraction, a-b-da, 2, 2, 7, 28, 165, 90, 163, 89, 90, 165, 1, 0.67329
66, 6, wb, filler, NA, 999, 999, 7, 29, 188, 125, 141, 105, 104, 178, 2, 3.0278
66, 6, wb, filler, NA, 999, 999, 7, 29, 188, 125, 141, 105, 104, 178, 1, 0.288733
66, 6, wb, filler, NA, 999, 999, 7, 30, 84, 150, 178, 159, 156, 117, 1, 1.02736
66, 6, wb, filler, NA, 999, 999, 7, 30, 84, 150, 178, 159, 156, 117, 2, 0.904995
66, 6, wb, attraction, a-b-da, 2, 3, 7, 31, 193, 119, 120, 195, 195, 120, 2, 3.69059
66, 6, wb, attraction, a-b-da, 2, 3, 7, 31, 193, 119, 120, 195, 195, 120, 1, 0.340805
66, 6, wb, attraction, a-b-db, 9, 1, 7, 32, 57, 129, 60, 135, 135, 60, 1, 1.42857
66, 6, wb, attraction, a-b-db, 9, 1, 7, 32, 57, 129, 60, 135, 135, 60, 2, 0.954324
66, 6, wb, filler, NA, 999, 999, 7, 33, 151, 76, 153, 64, 191, 67, 2, 2.47381
66, 6, wb, filler, NA, 999, 999, 7, 33, 151, 76, 153, 64, 191, 67, 3, 0.397049
66, 6, wb, attraction, a-b-db, 14, 1, 7, 34, 60, 135, 135, 60, 56, 125, 3, 1.56272
66, 6, wb, attraction, a-b-db, 14, 1, 7, 34, 60, 135, 135, 60, 56, 125, 1, 0.386911
66, 6, wb, filler, NA, 999, 999, 7, 35, 100, 170, 93, 186, 103, 127, 3, 1.92945
66, 6, wb, filler, NA, 999, 999, 7, 35, 100, 170, 93, 186, 103, 127, 2, 0.37876
66, 6, wb, attraction, a-b-da, 9, 3, 7, 36, 195, 120, 186, 114, 120, 195, 3, 3.87336
66, 6, wb, attraction, a-b-da, 9, 3, 7, 36, 195, 120, 186, 114, 120, 195, 1, 1.03603
66, 6, wb, attraction, a-b-db, 5, 3, 7, 37, 117, 190, 120, 195, 195, 120, 2, 2.87244
66, 6, wb, attraction, a-b-db, 5, 3, 7, 37, 117, 190, 120, 195, 195, 120, 3, 0.315412
66, 6, wb, filler, NA, 999, 999, 8, 1, 75, 82, 121, 70, 142, 146, 1, 0.900537
66, 6, wb, filler, NA, 999, 999, 8, 1, 75, 82, 121, 70, 142, 146, 3, 0.295712
66, 6, wb, filler, NA, 999, 999, 8, 2, 112, 90, 118, 78, 71, 154, 2, 2.7535
66, 6, wb, filler, NA, 999, 999, 8, 2, 112, 90, 118, 78, 71, 154, 3, 0.305891
66, 6, wb, attraction, a-b-db, 5, 1, 8, 3, 58, 132, 135, 60, 60, 135, 2, 1.09974
66, 6, wb, attraction, a-b-db, 5, 1, 8, 3, 58, 132, 135, 60, 60, 135, 1, 0.614799
66, 6, wb, filler, NA, 999, 999, 8, 4, 175, 117, 105, 161, 160, 143, 2, 4.7078
66, 6, wb, filler, NA, 999, 999, 8, 4, 175, 117, 105, 161, 160, 143, 1, 0.316929
66, 6, wb, filler, NA, 999, 999, 8, 5, 76, 67, 132, 65, 160, 155, 1, 0.766193
66, 6, wb, filler, NA, 999, 999, 8, 5, 76, 67, 132, 65, 160, 155, 3, 0.302588
66, 6, wb, attraction, a-b-da, 9, 2, 8, 6, 157, 86, 165, 90, 90, 165, 1, 4.59242
66, 6, wb, attraction, a-b-da, 9, 2, 8, 6, 157, 86, 165, 90, 90, 165, 3, 0.459345
66, 6, wb, filler, NA, 999, 999, 8, 7, 61, 183, 153, 96, 107, 118, 3, 22.5615
66, 6, wb, filler, NA, 999, 999, 8, 7, 61, 183, 153, 96, 107, 118, 1, 5.17899
66, 6, wb, attraction, a-b-da, 2, 3, 8, 8, 193, 119, 120, 195, 195, 120, 2, 7.47993
66, 6, wb, attraction, a-b-da, 2, 3, 8, 8, 193, 119, 120, 195, 195, 120, 1, 0.585635
66, 6, wb, attraction, a-b-da, 2, 1, 8, 9, 60, 135, 135, 60, 134, 59, 3, 1.27999
66, 6, wb, attraction, a-b-da, 2, 1, 8, 9, 60, 135, 135, 60, 134, 59, 2, 0.555526
66, 6, wb, catch, NA, 999, 999, 8, 10, 104, 151, 126, 69, 172, 143, 2, 0.523302
66, 6, wb, catch, NA, 999, 999, 8, 10, 104, 151, 126, 69, 172, 143, 3, 0.429113
66, 6, wb, attraction, a-b-da, 9, 1, 8, 11, 129, 57, 60, 135, 135, 60, 2, 0.633633
66, 6, wb, attraction, a-b-da, 9, 1, 8, 11, 129, 57, 60, 135, 135, 60, 1, 0.527501
66, 6, wb, attraction, a-b-db, 14, 1, 8, 12, 135, 60, 56, 125, 60, 135, 2, 1.02376
66, 6, wb, attraction, a-b-db, 14, 1, 8, 12, 135, 60, 56, 125, 60, 135, 1, 0.453523
66, 6, wb, filler, NA, 999, 999, 8, 13, 167, 182, 183, 180, 58, 160, 3, 0.833338
66, 6, wb, filler, NA, 999, 999, 8, 13, 167, 182, 183, 180, 58, 160, 2, 2.13504
66, 6, wb, attraction, a-b-da, 2, 2, 8, 14, 163, 89, 165, 90, 90, 165, 3, 2.43908
66, 6, wb, attraction, a-b-da, 2, 2, 8, 14, 163, 89, 165, 90, 90, 165, 1, 0.339497
66, 6, wb, attraction, a-b-db, 9, 1, 8, 15, 60, 135, 57, 129, 135, 60, 2, 0.947257
66, 6, wb, attraction, a-b-db, 9, 1, 8, 15, 60, 135, 57, 129, 135, 60, 3, 0.700366
66, 6, wb, attraction, a-b-da, 14, 2, 8, 16, 165, 90, 90, 165, 153, 83, 2, 0.558186
66, 6, wb, attraction, a-b-da, 14, 2, 8, 16, 165, 90, 90, 165, 153, 83, 3, 0.894554
66, 6, wb, attraction, a-b-db, 9, 3, 8, 17, 120, 195, 114, 186, 195, 120, 2, 1.17618
66, 6, wb, attraction, a-b-db, 9, 3, 8, 17, 120, 195, 114, 186, 195, 120, 3, 0.655816
66, 6, wb, filler, NA, 999, 999, 8, 18, 102, 152, 137, 117, 84, 182, 2, 0.643503
66, 6, wb, filler, NA, 999, 999, 8, 18, 102, 152, 137, 117, 84, 182, 3, 1.20865
66, 6, wb, filler, NA, 999, 999, 8, 19, 191, 183, 105, 162, 170, 184, 2, 0.461538
66, 6, wb, filler, NA, 999, 999, 8, 19, 191, 183, 105, 162, 170, 184, 1, 0.802219
66, 6, wb, filler, NA, 999, 999, 8, 20, 186, 139, 180, 144, 95, 122, 3, 0.815881
66, 6, wb, filler, NA, 999, 999, 8, 20, 186, 139, 180, 144, 95, 122, 1, 1.09418
66, 6, wb, attraction, a-b-db, 2, 1, 8, 21, 59, 134, 135, 60, 60, 135, 2, 1.44783
66, 6, wb, attraction, a-b-db, 2, 1, 8, 21, 59, 134, 135, 60, 60, 135, 3, 0.692607
66, 6, wb, catch, NA, 999, 999, 8, 22, 131, 124, 113, 82, 127, 188, 2, 0.590311
66, 6, wb, catch, NA, 999, 999, 8, 22, 131, 124, 113, 82, 127, 188, 3, 0.829425
66, 6, wb, attraction, a-b-db, 5, 3, 8, 23, 120, 195, 117, 190, 195, 120, 2, 1.94579
66, 6, wb, attraction, a-b-db, 5, 3, 8, 23, 120, 195, 117, 190, 195, 120, 3, 2.50645
66, 6, wb, attraction, a-b-da, 5, 2, 8, 24, 90, 165, 165, 90, 161, 88, 3, 0.875554
66, 6, wb, attraction, a-b-da, 5, 2, 8, 24, 90, 165, 165, 90, 161, 88, 1, 0.575249
66, 6, wb, attraction, a-b-da, 14, 3, 8, 25, 181, 111, 120, 195, 195, 120, 2, 0.701703
66, 6, wb, attraction, a-b-da, 14, 3, 8, 25, 181, 111, 120, 195, 195, 120, 3, 2.929
66, 6, wb, filler, NA, 999, 999, 8, 26, 124, 173, 101, 90, 113, 165, 2, 0.560599
66, 6, wb, filler, NA, 999, 999, 8, 26, 124, 173, 101, 90, 113, 165, 1, 0.384961
66, 6, wb, attraction, a-b-da, 5, 1, 8, 27, 60, 135, 132, 58, 135, 60, 1, 1.39947
66, 6, wb, attraction, a-b-da, 5, 1, 8, 27, 60, 135, 132, 58, 135, 60, 3, 0.358478
66, 6, wb, attraction, a-b-db, 14, 2, 8, 28, 165, 90, 83, 153, 90, 165, 2, 0.845554
66, 6, wb, attraction, a-b-db, 14, 2, 8, 28, 165, 90, 83, 153, 90, 165, 1, 0.362509
66, 6, wb, attraction, a-b-da, 5, 3, 8, 29, 120, 195, 195, 120, 190, 117, 2, 1.24177
66, 6, wb, attraction, a-b-da, 5, 3, 8, 29, 120, 195, 195, 120, 190, 117, 1, 0.974664
66, 6, wb, attraction, a-b-db, 2, 2, 8, 30, 89, 163, 90, 165, 165, 90, 2, 0.588949
66, 6, wb, attraction, a-b-db, 2, 2, 8, 30, 89, 163, 90, 165, 165, 90, 3, 1.57203
66, 6, wb, attraction, a-b-db, 14, 3, 8, 31, 195, 120, 111, 181, 120, 195, 2, 1.9229
66, 6, wb, attraction, a-b-db, 14, 3, 8, 31, 195, 120, 111, 181, 120, 195, 1, 0.268132
66, 6, wb, attraction, a-b-da, 9, 3, 8, 32, 120, 195, 186, 114, 195, 120, 2, 1.7754
66, 6, wb, attraction, a-b-da, 9, 3, 8, 32, 120, 195, 186, 114, 195, 120, 1, 0.334758
66, 6, wb, attraction, a-b-db, 9, 2, 8, 33, 90, 165, 165, 90, 86, 157, 2, 0.439285
66, 6, wb, attraction, a-b-db, 9, 2, 8, 33, 90, 165, 165, 90, 86, 157, 1, 1.22853
66, 6, wb, catch, NA, 999, 999, 8, 34, 61, 134, 138, 117, 122, 193, 1, 0.880719
66, 6, wb, catch, NA, 999, 999, 8, 34, 61, 134, 138, 117, 122, 193, 3, 0.369837
66, 6, wb, attraction, a-b-db, 2, 3, 8, 35, 195, 120, 119, 193, 120, 195, 2, 0.491547
66, 6, wb, attraction, a-b-db, 2, 3, 8, 35, 195, 120, 119, 193, 120, 195, 1, 0.566858
66, 6, wb, attraction, a-b-da, 14, 1, 8, 36, 60, 135, 125, 56, 135, 60, 2, 0.709806
66, 6, wb, attraction, a-b-da, 14, 1, 8, 36, 60, 135, 125, 56, 135, 60, 3, 0.624224
66, 6, wb, attraction, a-b-db, 5, 2, 8, 37, 90, 165, 88, 161, 165, 90, 2, 0.564654
66, 6, wb, attraction, a-b-db, 5, 2, 8, 37, 90, 165, 88, 161, 165, 90, 3, 1.26118
