sub_n, computer_n, bw_cond, effect, set, distance, diag, block_n, trial_n, h1, w1, h2, w2, h3, w3, choice, rt 
74, 6, wb, practice, NA, 999, 999, 0, 1, 104, 60, 189, 80, 90, 181, 1, 3.25856
74, 6, wb, practice, NA, 999, 999, 0, 1, 104, 60, 189, 80, 90, 181, 3, 3.56382
74, 6, wb, practice, NA, 999, 999, 0, 2, 183, 194, 73, 145, 88, 167, 2, 1.8725
74, 6, wb, practice, NA, 999, 999, 0, 2, 183, 194, 73, 145, 88, 167, 1, 1.4984
74, 6, wb, practice, NA, 999, 999, 0, 3, 155, 156, 152, 94, 154, 91, 2, 5.05774
74, 6, wb, practice, NA, 999, 999, 0, 3, 155, 156, 152, 94, 154, 91, 1, 1.44532
74, 6, wb, attraction, a-b-db, 5, 3, 1, 1, 120, 195, 117, 190, 195, 120, 3, 7.36715
74, 6, wb, attraction, a-b-db, 5, 3, 1, 1, 120, 195, 117, 190, 195, 120, 1, 1.17354
74, 6, wb, catch, NA, 999, 999, 1, 2, 158, 157, 90, 105, 103, 152, 2, 0.915654
74, 6, wb, catch, NA, 999, 999, 1, 2, 158, 157, 90, 105, 103, 152, 1, 0.750089
74, 6, wb, attraction, a-b-db, 2, 1, 1, 3, 135, 60, 60, 135, 59, 134, 3, 2.0939
74, 6, wb, attraction, a-b-db, 2, 1, 1, 3, 135, 60, 60, 135, 59, 134, 1, 0.856515
74, 6, wb, filler, NA, 999, 999, 1, 4, 120, 72, 173, 177, 70, 187, 1, 1.28347
74, 6, wb, filler, NA, 999, 999, 1, 4, 120, 72, 173, 177, 70, 187, 2, 0.543136
74, 6, wb, attraction, a-b-db, 2, 3, 1, 5, 120, 195, 119, 193, 195, 120, 3, 2.09471
74, 6, wb, attraction, a-b-db, 2, 3, 1, 5, 120, 195, 119, 193, 195, 120, 2, 0.785364
74, 6, wb, attraction, a-b-da, 5, 1, 1, 6, 60, 135, 132, 58, 135, 60, 1, 1.35169
74, 6, wb, attraction, a-b-da, 5, 1, 1, 6, 60, 135, 132, 58, 135, 60, 3, 0.704831
74, 6, wb, filler, NA, 999, 999, 1, 7, 180, 138, 180, 151, 176, 72, 3, 1.1544
74, 6, wb, filler, NA, 999, 999, 1, 7, 180, 138, 180, 151, 176, 72, 2, 0.450629
74, 6, wb, attraction, a-b-db, 14, 3, 1, 8, 111, 181, 195, 120, 120, 195, 1, 1.41441
74, 6, wb, attraction, a-b-db, 14, 3, 1, 8, 111, 181, 195, 120, 120, 195, 3, 0.820811
74, 6, wb, attraction, a-b-da, 2, 2, 1, 9, 163, 89, 90, 165, 165, 90, 1, 3.30581
74, 6, wb, attraction, a-b-da, 2, 2, 1, 9, 163, 89, 90, 165, 165, 90, 2, 0.691192
74, 6, wb, attraction, a-b-da, 9, 1, 1, 10, 129, 57, 135, 60, 60, 135, 3, 1.837
74, 6, wb, attraction, a-b-da, 9, 1, 1, 10, 129, 57, 135, 60, 60, 135, 1, 0.946325
74, 6, wb, attraction, a-b-da, 9, 2, 1, 11, 165, 90, 90, 165, 157, 86, 3, 1.53806
74, 6, wb, attraction, a-b-da, 9, 2, 1, 11, 165, 90, 90, 165, 157, 86, 2, 1.01083
74, 6, wb, filler, NA, 999, 999, 1, 12, 107, 128, 147, 186, 96, 195, 1, 1.05582
74, 6, wb, filler, NA, 999, 999, 1, 12, 107, 128, 147, 186, 96, 195, 2, 1.04409
74, 6, wb, filler, NA, 999, 999, 1, 13, 60, 74, 171, 98, 129, 152, 1, 1.15167
74, 6, wb, filler, NA, 999, 999, 1, 13, 60, 74, 171, 98, 129, 152, 3, 0.536771
74, 6, wb, attraction, a-b-db, 14, 2, 1, 14, 83, 153, 90, 165, 165, 90, 3, 0.977132
74, 6, wb, attraction, a-b-db, 14, 2, 1, 14, 83, 153, 90, 165, 165, 90, 2, 0.744801
74, 6, wb, attraction, a-b-da, 2, 3, 1, 15, 193, 119, 120, 195, 195, 120, 1, 0.936395
74, 6, wb, attraction, a-b-da, 2, 3, 1, 15, 193, 119, 120, 195, 195, 120, 2, 0.953564
74, 6, wb, attraction, a-b-da, 14, 3, 1, 16, 120, 195, 195, 120, 181, 111, 3, 0.817134
74, 6, wb, attraction, a-b-da, 14, 3, 1, 16, 120, 195, 195, 120, 181, 111, 1, 0.519683
74, 6, wb, attraction, a-b-db, 2, 2, 1, 17, 89, 163, 165, 90, 90, 165, 2, 1.17669
74, 6, wb, attraction, a-b-db, 2, 2, 1, 17, 89, 163, 165, 90, 90, 165, 3, 0.400247
74, 6, wb, attraction, a-b-db, 5, 1, 1, 18, 135, 60, 58, 132, 60, 135, 3, 1.11014
74, 6, wb, attraction, a-b-db, 5, 1, 1, 18, 135, 60, 58, 132, 60, 135, 1, 0.968316
74, 6, wb, attraction, a-b-db, 9, 1, 1, 19, 135, 60, 60, 135, 57, 129, 3, 1.75938
74, 6, wb, attraction, a-b-db, 9, 1, 1, 19, 135, 60, 60, 135, 57, 129, 1, 0.711425
74, 6, wb, attraction, a-b-da, 2, 1, 1, 20, 135, 60, 134, 59, 60, 135, 3, 1.31252
74, 6, wb, attraction, a-b-da, 2, 1, 1, 20, 135, 60, 134, 59, 60, 135, 1, 0.75467
74, 6, wb, attraction, a-b-da, 9, 3, 1, 21, 195, 120, 120, 195, 186, 114, 3, 1.62645
74, 6, wb, attraction, a-b-da, 9, 3, 1, 21, 195, 120, 120, 195, 186, 114, 2, 0.591823
74, 6, wb, attraction, a-b-da, 14, 2, 1, 22, 90, 165, 165, 90, 153, 83, 3, 0.829767
74, 6, wb, attraction, a-b-da, 14, 2, 1, 22, 90, 165, 165, 90, 153, 83, 1, 1.20341
74, 6, wb, filler, NA, 999, 999, 1, 23, 93, 147, 63, 77, 187, 153, 2, 0.976944
74, 6, wb, filler, NA, 999, 999, 1, 23, 93, 147, 63, 77, 187, 153, 3, 0.712644
74, 6, wb, filler, NA, 999, 999, 1, 24, 192, 175, 102, 177, 64, 147, 3, 1.19366
74, 6, wb, filler, NA, 999, 999, 1, 24, 192, 175, 102, 177, 64, 147, 1, 0.840604
74, 6, wb, filler, NA, 999, 999, 1, 25, 103, 169, 81, 179, 87, 161, 3, 1.29227
74, 6, wb, filler, NA, 999, 999, 1, 25, 103, 169, 81, 179, 87, 161, 1, 3.93516
74, 6, wb, attraction, a-b-db, 9, 3, 1, 26, 195, 120, 114, 186, 120, 195, 3, 15.2545
74, 6, wb, attraction, a-b-db, 9, 3, 1, 26, 195, 120, 114, 186, 120, 195, 1, 2.26307
74, 6, wb, attraction, a-b-da, 5, 3, 1, 27, 195, 120, 120, 195, 190, 117, 2, 4.93769
74, 6, wb, attraction, a-b-da, 5, 3, 1, 27, 195, 120, 120, 195, 190, 117, 3, 0.634115
74, 6, wb, filler, NA, 999, 999, 1, 28, 189, 178, 125, 88, 72, 128, 3, 1.29452
74, 6, wb, filler, NA, 999, 999, 1, 28, 189, 178, 125, 88, 72, 128, 1, 0.465436
74, 6, wb, catch, NA, 999, 999, 1, 29, 180, 135, 114, 141, 95, 100, 3, 0.852528
74, 6, wb, catch, NA, 999, 999, 1, 29, 180, 135, 114, 141, 95, 100, 1, 0.673505
74, 6, wb, attraction, a-b-db, 9, 2, 1, 30, 90, 165, 86, 157, 165, 90, 3, 1.80407
74, 6, wb, attraction, a-b-db, 9, 2, 1, 30, 90, 165, 86, 157, 165, 90, 2, 0.354723
74, 6, wb, attraction, a-b-da, 14, 1, 1, 31, 135, 60, 60, 135, 125, 56, 3, 1.13055
74, 6, wb, attraction, a-b-da, 14, 1, 1, 31, 135, 60, 60, 135, 125, 56, 2, 0.556155
74, 6, wb, attraction, a-b-db, 14, 1, 1, 32, 135, 60, 56, 125, 60, 135, 3, 0.619278
74, 6, wb, attraction, a-b-db, 14, 1, 1, 32, 135, 60, 56, 125, 60, 135, 1, 0.457837
74, 6, wb, filler, NA, 999, 999, 1, 33, 141, 174, 148, 76, 118, 149, 2, 1.55693
74, 6, wb, filler, NA, 999, 999, 1, 33, 141, 174, 148, 76, 118, 149, 1, 0.437019
74, 6, wb, filler, NA, 999, 999, 1, 34, 109, 158, 181, 90, 100, 112, 3, 0.809394
74, 6, wb, filler, NA, 999, 999, 1, 34, 109, 158, 181, 90, 100, 112, 1, 0.887814
74, 6, wb, catch, NA, 999, 999, 1, 35, 172, 143, 96, 159, 61, 134, 3, 0.594123
74, 6, wb, catch, NA, 999, 999, 1, 35, 172, 143, 96, 159, 61, 134, 1, 0.761299
74, 6, wb, attraction, a-b-da, 5, 2, 1, 36, 161, 88, 90, 165, 165, 90, 1, 0.920227
74, 6, wb, attraction, a-b-da, 5, 2, 1, 36, 161, 88, 90, 165, 165, 90, 3, 0.442013
74, 6, wb, attraction, a-b-db, 5, 2, 1, 37, 88, 161, 165, 90, 90, 165, 1, 0.565763
74, 6, wb, attraction, a-b-db, 5, 2, 1, 37, 88, 161, 165, 90, 90, 165, 3, 0.486353
74, 6, wb, attraction, a-b-da, 2, 1, 2, 1, 134, 59, 135, 60, 60, 135, 1, 0.58475
74, 6, wb, attraction, a-b-da, 2, 1, 2, 1, 134, 59, 135, 60, 60, 135, 2, 0.312469
74, 6, wb, attraction, a-b-db, 2, 3, 2, 2, 195, 120, 120, 195, 119, 193, 3, 1.38566
74, 6, wb, attraction, a-b-db, 2, 3, 2, 2, 195, 120, 120, 195, 119, 193, 1, 0.529191
74, 6, wb, filler, NA, 999, 999, 2, 3, 158, 184, 181, 68, 129, 157, 2, 0.697754
74, 6, wb, filler, NA, 999, 999, 2, 3, 158, 184, 181, 68, 129, 157, 1, 0.324772
74, 6, wb, filler, NA, 999, 999, 2, 4, 149, 157, 88, 59, 170, 183, 2, 0.869225
74, 6, wb, filler, NA, 999, 999, 2, 4, 149, 157, 88, 59, 170, 183, 3, 0.305619
74, 6, wb, catch, NA, 999, 999, 2, 5, 68, 127, 150, 165, 155, 100, 1, 0.771562
74, 6, wb, catch, NA, 999, 999, 2, 5, 68, 127, 150, 165, 155, 100, 2, 0.315253
74, 6, wb, attraction, a-b-da, 2, 3, 2, 6, 120, 195, 193, 119, 195, 120, 3, 1.18846
74, 6, wb, attraction, a-b-da, 2, 3, 2, 6, 120, 195, 193, 119, 195, 120, 1, 0.851385
74, 6, wb, attraction, a-b-da, 14, 1, 2, 7, 135, 60, 125, 56, 60, 135, 1, 1.71914
74, 6, wb, attraction, a-b-da, 14, 1, 2, 7, 135, 60, 125, 56, 60, 135, 3, 0.721068
74, 6, wb, filler, NA, 999, 999, 2, 8, 102, 182, 174, 154, 161, 67, 3, 0.882166
74, 6, wb, filler, NA, 999, 999, 2, 8, 102, 182, 174, 154, 161, 67, 2, 0.333978
74, 6, wb, attraction, a-b-db, 9, 3, 2, 9, 195, 120, 120, 195, 114, 186, 3, 1.15833
74, 6, wb, attraction, a-b-db, 9, 3, 2, 9, 195, 120, 120, 195, 114, 186, 2, 0.926666
74, 6, wb, catch, NA, 999, 999, 2, 10, 66, 129, 182, 133, 141, 114, 1, 0.926993
74, 6, wb, catch, NA, 999, 999, 2, 10, 66, 129, 182, 133, 141, 114, 2, 0.60878
74, 6, wb, filler, NA, 999, 999, 2, 11, 101, 178, 70, 78, 171, 100, 2, 1.08573
74, 6, wb, filler, NA, 999, 999, 2, 11, 101, 178, 70, 78, 171, 100, 1, 0.513364
74, 6, wb, attraction, a-b-db, 5, 2, 2, 12, 165, 90, 90, 165, 88, 161, 2, 2.03448
74, 6, wb, attraction, a-b-db, 5, 2, 2, 12, 165, 90, 90, 165, 88, 161, 1, 0.511873
74, 6, wb, attraction, a-b-db, 14, 3, 2, 13, 111, 181, 195, 120, 120, 195, 1, 1.23297
74, 6, wb, attraction, a-b-db, 14, 3, 2, 13, 111, 181, 195, 120, 120, 195, 2, 0.39054
74, 6, wb, attraction, a-b-db, 5, 3, 2, 14, 117, 190, 120, 195, 195, 120, 1, 1.48431
74, 6, wb, attraction, a-b-db, 5, 3, 2, 14, 117, 190, 120, 195, 195, 120, 2, 0.599878
74, 6, wb, attraction, a-b-da, 2, 2, 2, 15, 163, 89, 90, 165, 165, 90, 1, 0.693563
74, 6, wb, attraction, a-b-da, 2, 2, 2, 15, 163, 89, 90, 165, 165, 90, 2, 0.400766
74, 6, wb, attraction, a-b-da, 9, 3, 2, 16, 195, 120, 120, 195, 186, 114, 3, 0.598517
74, 6, wb, attraction, a-b-da, 9, 3, 2, 16, 195, 120, 120, 195, 186, 114, 2, 0.357845
74, 6, wb, attraction, a-b-db, 9, 1, 2, 17, 135, 60, 57, 129, 60, 135, 1, 0.70084
74, 6, wb, attraction, a-b-db, 9, 1, 2, 17, 135, 60, 57, 129, 60, 135, 2, 2.14386
74, 6, wb, attraction, a-b-da, 5, 2, 2, 18, 90, 165, 165, 90, 161, 88, 3, 1.31915
74, 6, wb, attraction, a-b-da, 5, 2, 2, 18, 90, 165, 165, 90, 161, 88, 2, 0.481395
74, 6, wb, filler, NA, 999, 999, 2, 19, 147, 190, 188, 149, 130, 156, 3, 0.491851
74, 6, wb, filler, NA, 999, 999, 2, 19, 147, 190, 188, 149, 130, 156, 2, 0.446997
74, 6, wb, attraction, a-b-db, 14, 1, 2, 20, 56, 125, 60, 135, 135, 60, 3, 0.466744
74, 6, wb, attraction, a-b-db, 14, 1, 2, 20, 56, 125, 60, 135, 135, 60, 2, 0.391304
74, 6, wb, attraction, a-b-db, 2, 1, 2, 21, 135, 60, 59, 134, 60, 135, 3, 0.629194
74, 6, wb, attraction, a-b-db, 2, 1, 2, 21, 135, 60, 59, 134, 60, 135, 2, 0.450889
74, 6, wb, attraction, a-b-da, 5, 3, 2, 22, 190, 117, 195, 120, 120, 195, 1, 0.590673
74, 6, wb, attraction, a-b-da, 5, 3, 2, 22, 190, 117, 195, 120, 120, 195, 2, 0.325859
74, 6, wb, attraction, a-b-da, 14, 2, 2, 23, 165, 90, 153, 83, 90, 165, 3, 0.638292
74, 6, wb, attraction, a-b-da, 14, 2, 2, 23, 165, 90, 153, 83, 90, 165, 2, 0.52342
74, 6, wb, attraction, a-b-db, 2, 2, 2, 24, 89, 163, 90, 165, 165, 90, 3, 0.875794
74, 6, wb, attraction, a-b-db, 2, 2, 2, 24, 89, 163, 90, 165, 165, 90, 2, 0.439546
74, 6, wb, attraction, a-b-da, 14, 3, 2, 25, 195, 120, 120, 195, 181, 111, 1, 0.78734
74, 6, wb, attraction, a-b-da, 14, 3, 2, 25, 195, 120, 120, 195, 181, 111, 2, 0.410366
74, 6, wb, attraction, a-b-db, 14, 2, 2, 26, 90, 165, 165, 90, 83, 153, 1, 0.727573
74, 6, wb, attraction, a-b-db, 14, 2, 2, 26, 90, 165, 165, 90, 83, 153, 2, 0.609303
74, 6, wb, filler, NA, 999, 999, 2, 27, 78, 133, 102, 154, 123, 168, 3, 0.542449
74, 6, wb, filler, NA, 999, 999, 2, 27, 78, 133, 102, 154, 123, 168, 1, 0.8155
74, 6, wb, filler, NA, 999, 999, 2, 28, 158, 106, 140, 121, 159, 73, 2, 0.740466
74, 6, wb, filler, NA, 999, 999, 2, 28, 158, 106, 140, 121, 159, 73, 3, 0.605617
74, 6, wb, filler, NA, 999, 999, 2, 29, 99, 154, 163, 140, 63, 140, 3, 1.17932
74, 6, wb, filler, NA, 999, 999, 2, 29, 99, 154, 163, 140, 63, 140, 2, 0.442909
74, 6, wb, filler, NA, 999, 999, 2, 30, 69, 127, 74, 150, 154, 83, 1, 0.80692
74, 6, wb, filler, NA, 999, 999, 2, 30, 69, 127, 74, 150, 154, 83, 2, 0.693321
74, 6, wb, attraction, a-b-db, 9, 2, 2, 31, 86, 157, 90, 165, 165, 90, 1, 0.934887
74, 6, wb, attraction, a-b-db, 9, 2, 2, 31, 86, 157, 90, 165, 165, 90, 2, 0.856498
74, 6, wb, attraction, a-b-da, 5, 1, 2, 32, 132, 58, 60, 135, 135, 60, 1, 1.81171
74, 6, wb, attraction, a-b-da, 5, 1, 2, 32, 132, 58, 60, 135, 135, 60, 2, 0.433814
74, 6, wb, attraction, a-b-db, 5, 1, 2, 33, 58, 132, 135, 60, 60, 135, 3, 0.630131
74, 6, wb, attraction, a-b-db, 5, 1, 2, 33, 58, 132, 135, 60, 60, 135, 2, 0.715867
74, 6, wb, catch, NA, 999, 999, 2, 34, 153, 102, 155, 160, 117, 78, 3, 0.556908
74, 6, wb, catch, NA, 999, 999, 2, 34, 153, 102, 155, 160, 117, 78, 2, 0.47744
74, 6, wb, filler, NA, 999, 999, 2, 35, 95, 173, 120, 180, 136, 76, 3, 0.959836
74, 6, wb, filler, NA, 999, 999, 2, 35, 95, 173, 120, 180, 136, 76, 2, 0.360199
74, 6, wb, attraction, a-b-da, 9, 1, 2, 36, 129, 57, 135, 60, 60, 135, 1, 0.903301
74, 6, wb, attraction, a-b-da, 9, 1, 2, 36, 129, 57, 135, 60, 60, 135, 2, 0.554392
74, 6, wb, attraction, a-b-da, 9, 2, 2, 37, 165, 90, 90, 165, 157, 86, 1, 0.90616
74, 6, wb, attraction, a-b-da, 9, 2, 2, 37, 165, 90, 90, 165, 157, 86, 2, 0.852578
74, 6, wb, attraction, a-b-db, 14, 3, 3, 1, 111, 181, 195, 120, 120, 195, 1, 0.97616
74, 6, wb, attraction, a-b-db, 14, 3, 3, 1, 111, 181, 195, 120, 120, 195, 2, 0.303909
74, 6, wb, attraction, a-b-da, 5, 2, 3, 2, 165, 90, 90, 165, 161, 88, 3, 0.745686
74, 6, wb, attraction, a-b-da, 5, 2, 3, 2, 165, 90, 90, 165, 161, 88, 2, 0.410933
74, 6, wb, filler, NA, 999, 999, 3, 3, 164, 130, 146, 113, 70, 139, 3, 0.608091
74, 6, wb, filler, NA, 999, 999, 3, 3, 164, 130, 146, 113, 70, 139, 2, 0.366515
74, 6, wb, catch, NA, 999, 999, 3, 4, 145, 170, 120, 135, 122, 73, 3, 0.581548
74, 6, wb, catch, NA, 999, 999, 3, 4, 145, 170, 120, 135, 122, 73, 1, 0.845313
74, 6, wb, filler, NA, 999, 999, 3, 5, 72, 139, 139, 155, 69, 90, 3, 0.721016
74, 6, wb, filler, NA, 999, 999, 3, 5, 72, 139, 139, 155, 69, 90, 2, 0.450871
74, 6, wb, attraction, a-b-db, 2, 1, 3, 6, 60, 135, 59, 134, 135, 60, 3, 0.590565
74, 6, wb, attraction, a-b-db, 2, 1, 3, 6, 60, 135, 59, 134, 135, 60, 1, 0.501658
74, 6, wb, attraction, a-b-da, 2, 2, 3, 7, 163, 89, 165, 90, 90, 165, 2, 1.28752
74, 6, wb, attraction, a-b-da, 2, 2, 3, 7, 163, 89, 165, 90, 90, 165, 1, 0.578348
74, 6, wb, attraction, a-b-da, 9, 1, 3, 8, 60, 135, 135, 60, 129, 57, 3, 0.632825
74, 6, wb, attraction, a-b-da, 9, 1, 3, 8, 60, 135, 135, 60, 129, 57, 2, 0.518549
74, 6, wb, attraction, a-b-da, 9, 3, 3, 9, 195, 120, 120, 195, 186, 114, 3, 0.519654
74, 6, wb, attraction, a-b-da, 9, 3, 3, 9, 195, 120, 120, 195, 186, 114, 2, 0.410134
74, 6, wb, attraction, a-b-da, 14, 1, 3, 10, 60, 135, 135, 60, 125, 56, 3, 0.495278
74, 6, wb, attraction, a-b-da, 14, 1, 3, 10, 60, 135, 135, 60, 125, 56, 1, 1.09047
74, 6, wb, filler, NA, 999, 999, 3, 11, 133, 98, 166, 110, 111, 95, 3, 0.708075
74, 6, wb, filler, NA, 999, 999, 3, 11, 133, 98, 166, 110, 111, 95, 2, 0.38247
74, 6, wb, attraction, a-b-db, 9, 3, 3, 12, 195, 120, 120, 195, 114, 186, 3, 0.868931
74, 6, wb, attraction, a-b-db, 9, 3, 3, 12, 195, 120, 120, 195, 114, 186, 2, 0.361361
74, 6, wb, attraction, a-b-db, 9, 2, 3, 13, 90, 165, 86, 157, 165, 90, 2, 1.38457
74, 6, wb, attraction, a-b-db, 9, 2, 3, 13, 90, 165, 86, 157, 165, 90, 3, 0.368069
74, 6, wb, attraction, a-b-da, 5, 1, 3, 14, 60, 135, 135, 60, 132, 58, 3, 1.42322
74, 6, wb, attraction, a-b-da, 5, 1, 3, 14, 60, 135, 135, 60, 132, 58, 2, 0.524708
74, 6, wb, attraction, a-b-db, 14, 2, 3, 15, 83, 153, 90, 165, 165, 90, 1, 1.03713
74, 6, wb, attraction, a-b-db, 14, 2, 3, 15, 83, 153, 90, 165, 165, 90, 2, 0.306144
74, 6, wb, attraction, a-b-da, 14, 2, 3, 16, 165, 90, 153, 83, 90, 165, 1, 0.89936
74, 6, wb, attraction, a-b-da, 14, 2, 3, 16, 165, 90, 153, 83, 90, 165, 2, 1.39033
74, 6, wb, attraction, a-b-db, 5, 2, 3, 17, 90, 165, 165, 90, 88, 161, 1, 0.971821
74, 6, wb, attraction, a-b-db, 5, 2, 3, 17, 90, 165, 165, 90, 88, 161, 2, 0.307574
74, 6, wb, catch, NA, 999, 999, 3, 18, 117, 78, 91, 164, 159, 156, 1, 1.24481
74, 6, wb, catch, NA, 999, 999, 3, 18, 117, 78, 91, 164, 159, 156, 3, 0.505602
74, 6, wb, filler, NA, 999, 999, 3, 19, 185, 95, 102, 146, 193, 155, 1, 2.00345
74, 6, wb, filler, NA, 999, 999, 3, 19, 185, 95, 102, 146, 193, 155, 3, 0.682094
74, 6, wb, attraction, a-b-da, 2, 1, 3, 20, 134, 59, 135, 60, 60, 135, 2, 1.65244
74, 6, wb, attraction, a-b-da, 2, 1, 3, 20, 134, 59, 135, 60, 60, 135, 3, 0.4332
74, 6, wb, filler, NA, 999, 999, 3, 21, 104, 165, 103, 105, 132, 56, 2, 2.13368
74, 6, wb, filler, NA, 999, 999, 3, 21, 104, 165, 103, 105, 132, 56, 1, 0.879071
74, 6, wb, filler, NA, 999, 999, 3, 22, 109, 134, 159, 70, 122, 152, 2, 0.721508
74, 6, wb, filler, NA, 999, 999, 3, 22, 109, 134, 159, 70, 122, 152, 3, 0.603114
74, 6, wb, attraction, a-b-db, 2, 2, 3, 23, 165, 90, 89, 163, 90, 165, 2, 0.592852
74, 6, wb, attraction, a-b-db, 2, 2, 3, 23, 165, 90, 89, 163, 90, 165, 3, 2.16801
74, 6, wb, attraction, a-b-db, 2, 3, 3, 24, 120, 195, 195, 120, 119, 193, 2, 1.6466
74, 6, wb, attraction, a-b-db, 2, 3, 3, 24, 120, 195, 195, 120, 119, 193, 1, 0.339373
74, 6, wb, filler, NA, 999, 999, 3, 25, 163, 173, 80, 111, 103, 124, 2, 0.811244
74, 6, wb, filler, NA, 999, 999, 3, 25, 163, 173, 80, 111, 103, 124, 1, 0.297672
74, 6, wb, attraction, a-b-da, 9, 2, 3, 26, 165, 90, 157, 86, 90, 165, 2, 0.875515
74, 6, wb, attraction, a-b-da, 9, 2, 3, 26, 165, 90, 157, 86, 90, 165, 3, 0.391153
74, 6, wb, catch, NA, 999, 999, 3, 27, 90, 165, 170, 145, 61, 134, 3, 1.15701
74, 6, wb, catch, NA, 999, 999, 3, 27, 90, 165, 170, 145, 61, 134, 2, 0.309207
74, 6, wb, filler, NA, 999, 999, 3, 28, 104, 97, 67, 124, 88, 80, 3, 1.55839
74, 6, wb, filler, NA, 999, 999, 3, 28, 104, 97, 67, 124, 88, 80, 1, 0.598585
74, 6, wb, filler, NA, 999, 999, 3, 29, 178, 107, 105, 153, 157, 150, 1, 1.91629
74, 6, wb, filler, NA, 999, 999, 3, 29, 178, 107, 105, 153, 157, 150, 3, 0.542458
74, 6, wb, attraction, a-b-da, 5, 3, 3, 30, 195, 120, 120, 195, 190, 117, 2, 1.68623
74, 6, wb, attraction, a-b-da, 5, 3, 3, 30, 195, 120, 120, 195, 190, 117, 3, 0.321572
74, 6, wb, attraction, a-b-da, 2, 3, 3, 31, 120, 195, 195, 120, 193, 119, 3, 1.0588
74, 6, wb, attraction, a-b-da, 2, 3, 3, 31, 120, 195, 195, 120, 193, 119, 2, 0.351207
74, 6, wb, filler, NA, 999, 999, 3, 32, 155, 190, 181, 60, 179, 158, 2, 1.04693
74, 6, wb, filler, NA, 999, 999, 3, 32, 155, 190, 181, 60, 179, 158, 3, 0.339922
74, 6, wb, attraction, a-b-da, 14, 3, 3, 33, 195, 120, 181, 111, 120, 195, 2, 1.21172
74, 6, wb, attraction, a-b-da, 14, 3, 3, 33, 195, 120, 181, 111, 120, 195, 1, 0.80201
74, 6, wb, attraction, a-b-db, 9, 1, 3, 34, 57, 129, 60, 135, 135, 60, 2, 1.40768
74, 6, wb, attraction, a-b-db, 9, 1, 3, 34, 57, 129, 60, 135, 135, 60, 3, 0.405866
74, 6, wb, attraction, a-b-db, 5, 3, 3, 35, 120, 195, 117, 190, 195, 120, 2, 0.883078
74, 6, wb, attraction, a-b-db, 5, 3, 3, 35, 120, 195, 117, 190, 195, 120, 3, 0.358727
74, 6, wb, attraction, a-b-db, 14, 1, 3, 36, 60, 135, 135, 60, 56, 125, 2, 0.893885
74, 6, wb, attraction, a-b-db, 14, 1, 3, 36, 60, 135, 135, 60, 56, 125, 3, 0.584907
74, 6, wb, attraction, a-b-db, 5, 1, 3, 37, 60, 135, 58, 132, 135, 60, 2, 0.74329
74, 6, wb, attraction, a-b-db, 5, 1, 3, 37, 60, 135, 58, 132, 135, 60, 3, 0.416375
74, 6, wb, filler, NA, 999, 999, 4, 1, 190, 110, 136, 189, 100, 138, 1, 0.661473
74, 6, wb, filler, NA, 999, 999, 4, 1, 190, 110, 136, 189, 100, 138, 2, 1.138
74, 6, wb, attraction, a-b-db, 5, 3, 4, 2, 117, 190, 120, 195, 195, 120, 1, 0.730253
74, 6, wb, attraction, a-b-db, 5, 3, 4, 2, 117, 190, 120, 195, 195, 120, 2, 0.948127
74, 6, wb, attraction, a-b-da, 5, 3, 4, 3, 190, 117, 195, 120, 120, 195, 1, 0.651644
74, 6, wb, attraction, a-b-da, 5, 3, 4, 3, 190, 117, 195, 120, 120, 195, 2, 0.792832
74, 6, wb, attraction, a-b-da, 14, 3, 4, 4, 195, 120, 181, 111, 120, 195, 3, 1.19041
74, 6, wb, attraction, a-b-da, 14, 3, 4, 4, 195, 120, 181, 111, 120, 195, 1, 0.717351
74, 6, wb, filler, NA, 999, 999, 4, 5, 148, 96, 113, 77, 116, 86, 2, 1.3424
74, 6, wb, filler, NA, 999, 999, 4, 5, 148, 96, 113, 77, 116, 86, 1, 0.479311
74, 6, wb, catch, NA, 999, 999, 4, 6, 101, 154, 87, 108, 150, 165, 2, 0.721694
74, 6, wb, catch, NA, 999, 999, 4, 6, 101, 154, 87, 108, 150, 165, 3, 0.395628
74, 6, wb, attraction, a-b-db, 9, 1, 4, 7, 60, 135, 57, 129, 135, 60, 2, 2.67329
74, 6, wb, attraction, a-b-db, 9, 1, 4, 7, 60, 135, 57, 129, 135, 60, 1, 0.500446
74, 6, wb, attraction, a-b-da, 5, 2, 4, 8, 161, 88, 165, 90, 90, 165, 2, 0.98218
74, 6, wb, attraction, a-b-da, 5, 2, 4, 8, 161, 88, 165, 90, 90, 165, 1, 0.333933
74, 6, wb, catch, NA, 999, 999, 4, 9, 103, 152, 181, 134, 80, 115, 3, 0.446495
74, 6, wb, catch, NA, 999, 999, 4, 9, 103, 152, 181, 134, 80, 115, 2, 0.251585
74, 6, wb, attraction, a-b-db, 9, 3, 4, 10, 114, 186, 195, 120, 120, 195, 3, 1.63947
74, 6, wb, attraction, a-b-db, 9, 3, 4, 10, 114, 186, 195, 120, 120, 195, 2, 0.276198
74, 6, wb, attraction, a-b-db, 2, 3, 4, 11, 120, 195, 119, 193, 195, 120, 2, 1.53489
74, 6, wb, attraction, a-b-db, 2, 3, 4, 11, 120, 195, 119, 193, 195, 120, 3, 0.288449
74, 6, wb, attraction, a-b-da, 9, 3, 4, 12, 120, 195, 186, 114, 195, 120, 3, 1.35479
74, 6, wb, attraction, a-b-da, 9, 3, 4, 12, 120, 195, 186, 114, 195, 120, 2, 0.307081
74, 6, wb, attraction, a-b-db, 14, 2, 4, 13, 90, 165, 165, 90, 83, 153, 3, 0.524171
74, 6, wb, attraction, a-b-db, 14, 2, 4, 13, 90, 165, 165, 90, 83, 153, 2, 0.70991
74, 6, wb, attraction, a-b-db, 5, 1, 4, 14, 58, 132, 135, 60, 60, 135, 3, 0.73505
74, 6, wb, attraction, a-b-db, 5, 1, 4, 14, 58, 132, 135, 60, 60, 135, 2, 0.496743
74, 6, wb, attraction, a-b-db, 2, 1, 4, 15, 60, 135, 59, 134, 135, 60, 3, 0.57855
74, 6, wb, attraction, a-b-db, 2, 1, 4, 15, 60, 135, 59, 134, 135, 60, 2, 0.626316
74, 6, wb, attraction, a-b-db, 9, 2, 4, 16, 165, 90, 90, 165, 86, 157, 2, 0.702756
74, 6, wb, attraction, a-b-db, 9, 2, 4, 16, 165, 90, 90, 165, 86, 157, 3, 0.38587
74, 6, wb, attraction, a-b-db, 5, 2, 4, 17, 88, 161, 165, 90, 90, 165, 2, 0.600348
74, 6, wb, attraction, a-b-db, 5, 2, 4, 17, 88, 161, 165, 90, 90, 165, 3, 0.671492
74, 6, wb, filler, NA, 999, 999, 4, 18, 168, 183, 148, 83, 187, 166, 2, 1.48254
74, 6, wb, filler, NA, 999, 999, 4, 18, 168, 183, 148, 83, 187, 166, 3, 1.15009
74, 6, wb, attraction, a-b-da, 2, 3, 4, 19, 193, 119, 195, 120, 120, 195, 2, 0.773679
74, 6, wb, attraction, a-b-da, 2, 3, 4, 19, 193, 119, 195, 120, 120, 195, 3, 1.0134
74, 6, wb, attraction, a-b-da, 2, 2, 4, 20, 163, 89, 165, 90, 90, 165, 2, 0.642328
74, 6, wb, attraction, a-b-da, 2, 2, 4, 20, 163, 89, 165, 90, 90, 165, 3, 0.319425
74, 6, wb, attraction, a-b-da, 14, 2, 4, 21, 90, 165, 153, 83, 165, 90, 2, 1.06464
74, 6, wb, attraction, a-b-da, 14, 2, 4, 21, 90, 165, 153, 83, 165, 90, 3, 0.644955
74, 6, wb, attraction, a-b-da, 9, 2, 4, 22, 165, 90, 90, 165, 157, 86, 2, 1.64864
74, 6, wb, attraction, a-b-da, 9, 2, 4, 22, 165, 90, 90, 165, 157, 86, 3, 0.533387
74, 6, wb, attraction, a-b-da, 5, 1, 4, 23, 135, 60, 60, 135, 132, 58, 2, 1.01386
74, 6, wb, attraction, a-b-da, 5, 1, 4, 23, 135, 60, 60, 135, 132, 58, 1, 0.460189
74, 6, wb, attraction, a-b-db, 14, 3, 4, 24, 111, 181, 120, 195, 195, 120, 2, 0.783342
74, 6, wb, attraction, a-b-db, 14, 3, 4, 24, 111, 181, 120, 195, 195, 120, 3, 0.431063
74, 6, wb, filler, NA, 999, 999, 4, 25, 65, 158, 110, 156, 88, 148, 2, 0.603523
74, 6, wb, filler, NA, 999, 999, 4, 25, 65, 158, 110, 156, 88, 148, 3, 1.78664
74, 6, wb, filler, NA, 999, 999, 4, 26, 72, 180, 88, 106, 62, 140, 2, 0.49666
74, 6, wb, filler, NA, 999, 999, 4, 26, 72, 180, 88, 106, 62, 140, 3, 0.451867
74, 6, wb, filler, NA, 999, 999, 4, 27, 71, 156, 121, 100, 136, 132, 2, 0.823632
74, 6, wb, filler, NA, 999, 999, 4, 27, 71, 156, 121, 100, 136, 132, 3, 0.461406
74, 6, wb, attraction, a-b-da, 9, 1, 4, 28, 135, 60, 129, 57, 60, 135, 2, 1.02447
74, 6, wb, attraction, a-b-da, 9, 1, 4, 28, 135, 60, 129, 57, 60, 135, 3, 0.630091
74, 6, wb, catch, NA, 999, 999, 4, 29, 155, 100, 150, 165, 87, 108, 2, 0.538483
74, 6, wb, catch, NA, 999, 999, 4, 29, 155, 100, 150, 165, 87, 108, 3, 2.53164
74, 6, wb, filler, NA, 999, 999, 4, 30, 183, 96, 133, 72, 171, 91, 2, 0.851439
74, 6, wb, filler, NA, 999, 999, 4, 30, 183, 96, 133, 72, 171, 91, 3, 1.32858
74, 6, wb, attraction, a-b-da, 14, 1, 4, 31, 135, 60, 60, 135, 125, 56, 3, 2.1047
74, 6, wb, attraction, a-b-da, 14, 1, 4, 31, 135, 60, 60, 135, 125, 56, 2, 0.386701
74, 6, wb, attraction, a-b-da, 2, 1, 4, 32, 134, 59, 60, 135, 135, 60, 3, 0.801353
74, 6, wb, attraction, a-b-da, 2, 1, 4, 32, 134, 59, 60, 135, 135, 60, 2, 0.344271
74, 6, wb, filler, NA, 999, 999, 4, 33, 185, 110, 86, 111, 189, 113, 2, 1.2641
74, 6, wb, filler, NA, 999, 999, 4, 33, 185, 110, 86, 111, 189, 113, 3, 0.388305
74, 6, wb, filler, NA, 999, 999, 4, 34, 149, 99, 88, 101, 186, 194, 2, 0.570857
74, 6, wb, filler, NA, 999, 999, 4, 34, 149, 99, 88, 101, 186, 194, 3, 0.306782
74, 6, wb, filler, NA, 999, 999, 4, 35, 113, 102, 61, 135, 135, 92, 1, 2.05994
74, 6, wb, filler, NA, 999, 999, 4, 35, 113, 102, 61, 135, 135, 92, 3, 0.58388
74, 6, wb, attraction, a-b-db, 14, 1, 4, 36, 60, 135, 135, 60, 56, 125, 3, 1.1342
74, 6, wb, attraction, a-b-db, 14, 1, 4, 36, 60, 135, 135, 60, 56, 125, 2, 0.575814
74, 6, wb, attraction, a-b-db, 2, 2, 4, 37, 165, 90, 89, 163, 90, 165, 1, 0.758339
74, 6, wb, attraction, a-b-db, 2, 2, 4, 37, 165, 90, 89, 163, 90, 165, 2, 0.262633
74, 6, wb, filler, NA, 999, 999, 5, 1, 95, 186, 89, 185, 57, 73, 3, 2.32843
74, 6, wb, filler, NA, 999, 999, 5, 1, 95, 186, 89, 185, 57, 73, 1, 0.865716
74, 6, wb, attraction, a-b-db, 9, 1, 5, 2, 135, 60, 57, 129, 60, 135, 2, 1.31675
74, 6, wb, attraction, a-b-db, 9, 1, 5, 2, 135, 60, 57, 129, 60, 135, 3, 0.710949
74, 6, wb, attraction, a-b-db, 5, 2, 5, 3, 90, 165, 165, 90, 88, 161, 2, 0.759964
74, 6, wb, attraction, a-b-db, 5, 2, 5, 3, 90, 165, 165, 90, 88, 161, 3, 0.376456
74, 6, wb, filler, NA, 999, 999, 5, 4, 86, 149, 172, 132, 160, 85, 1, 1.25484
74, 6, wb, filler, NA, 999, 999, 5, 4, 86, 149, 172, 132, 160, 85, 2, 0.395144
74, 6, wb, attraction, a-b-db, 9, 3, 5, 5, 120, 195, 195, 120, 114, 186, 1, 0.672892
74, 6, wb, attraction, a-b-db, 9, 3, 5, 5, 120, 195, 195, 120, 114, 186, 2, 0.764799
74, 6, wb, filler, NA, 999, 999, 5, 6, 59, 110, 75, 84, 162, 147, 2, 1.3718
74, 6, wb, filler, NA, 999, 999, 5, 6, 59, 110, 75, 84, 162, 147, 3, 0.267267
74, 6, wb, attraction, a-b-da, 5, 2, 5, 7, 165, 90, 161, 88, 90, 165, 3, 0.69446
74, 6, wb, attraction, a-b-da, 5, 2, 5, 7, 165, 90, 161, 88, 90, 165, 2, 0.25758
74, 6, wb, attraction, a-b-da, 2, 1, 5, 8, 135, 60, 60, 135, 134, 59, 2, 0.812762
74, 6, wb, attraction, a-b-da, 2, 1, 5, 8, 135, 60, 60, 135, 134, 59, 3, 0.291203
74, 6, wb, filler, NA, 999, 999, 5, 9, 56, 114, 75, 71, 85, 146, 2, 0.901047
74, 6, wb, filler, NA, 999, 999, 5, 9, 56, 114, 75, 71, 85, 146, 3, 0.272228
74, 6, wb, attraction, a-b-db, 2, 3, 5, 10, 119, 193, 120, 195, 195, 120, 1, 0.771217
74, 6, wb, attraction, a-b-db, 2, 3, 5, 10, 119, 193, 120, 195, 195, 120, 3, 0.87498
74, 6, wb, attraction, a-b-db, 5, 1, 5, 11, 135, 60, 58, 132, 60, 135, 2, 1.11723
74, 6, wb, attraction, a-b-db, 5, 1, 5, 11, 135, 60, 58, 132, 60, 135, 1, 0.647678
74, 6, wb, attraction, a-b-da, 9, 2, 5, 12, 157, 86, 90, 165, 165, 90, 2, 0.515318
74, 6, wb, attraction, a-b-da, 9, 2, 5, 12, 157, 86, 90, 165, 165, 90, 3, 0.773976
74, 6, wb, filler, NA, 999, 999, 5, 13, 75, 150, 152, 176, 83, 146, 3, 0.844234
74, 6, wb, filler, NA, 999, 999, 5, 13, 75, 150, 152, 176, 83, 146, 2, 0.265313
74, 6, wb, attraction, a-b-db, 14, 1, 5, 14, 135, 60, 60, 135, 56, 125, 3, 0.620427
74, 6, wb, attraction, a-b-db, 14, 1, 5, 14, 135, 60, 60, 135, 56, 125, 1, 0.594182
74, 6, wb, attraction, a-b-db, 9, 2, 5, 15, 90, 165, 86, 157, 165, 90, 3, 2.01916
74, 6, wb, attraction, a-b-db, 9, 2, 5, 15, 90, 165, 86, 157, 165, 90, 2, 0.581341
74, 6, wb, attraction, a-b-da, 5, 1, 5, 16, 60, 135, 132, 58, 135, 60, 3, 0.867715
74, 6, wb, attraction, a-b-da, 5, 1, 5, 16, 60, 135, 132, 58, 135, 60, 2, 0.408192
74, 6, wb, filler, NA, 999, 999, 5, 17, 58, 101, 137, 65, 77, 93, 1, 1.13332
74, 6, wb, filler, NA, 999, 999, 5, 17, 58, 101, 137, 65, 77, 93, 2, 0.422891
74, 6, wb, attraction, a-b-da, 2, 2, 5, 18, 163, 89, 90, 165, 165, 90, 3, 0.675304
74, 6, wb, attraction, a-b-da, 2, 2, 5, 18, 163, 89, 90, 165, 165, 90, 2, 0.471054
74, 6, wb, attraction, a-b-db, 2, 2, 5, 19, 165, 90, 90, 165, 89, 163, 1, 1.48222
74, 6, wb, attraction, a-b-db, 2, 2, 5, 19, 165, 90, 90, 165, 89, 163, 2, 0.661704
74, 6, wb, attraction, a-b-da, 14, 3, 5, 20, 195, 120, 120, 195, 181, 111, 3, 1.56078
74, 6, wb, attraction, a-b-da, 14, 3, 5, 20, 195, 120, 120, 195, 181, 111, 2, 0.51297
74, 6, wb, filler, NA, 999, 999, 5, 21, 92, 97, 143, 195, 105, 191, 1, 0.914061
74, 6, wb, filler, NA, 999, 999, 5, 21, 92, 97, 143, 195, 105, 191, 2, 0.308403
74, 6, wb, filler, NA, 999, 999, 5, 22, 75, 78, 59, 182, 73, 176, 1, 0.973574
74, 6, wb, filler, NA, 999, 999, 5, 22, 75, 78, 59, 182, 73, 176, 3, 0.893335
74, 6, wb, attraction, a-b-da, 14, 2, 5, 23, 165, 90, 153, 83, 90, 165, 3, 0.974892
74, 6, wb, attraction, a-b-da, 14, 2, 5, 23, 165, 90, 153, 83, 90, 165, 2, 0.318725
74, 6, wb, catch, NA, 999, 999, 5, 24, 148, 167, 119, 136, 98, 97, 3, 0.559857
74, 6, wb, catch, NA, 999, 999, 5, 24, 148, 167, 119, 136, 98, 97, 1, 0.424193
74, 6, wb, attraction, a-b-da, 9, 3, 5, 25, 186, 114, 195, 120, 120, 195, 1, 0.876643
74, 6, wb, attraction, a-b-da, 9, 3, 5, 25, 186, 114, 195, 120, 120, 195, 3, 0.320393
74, 6, wb, attraction, a-b-db, 14, 3, 5, 26, 195, 120, 120, 195, 111, 181, 1, 0.537561
74, 6, wb, attraction, a-b-db, 14, 3, 5, 26, 195, 120, 120, 195, 111, 181, 3, 0.42669
74, 6, wb, attraction, a-b-da, 5, 3, 5, 27, 120, 195, 190, 117, 195, 120, 1, 0.535173
74, 6, wb, attraction, a-b-da, 5, 3, 5, 27, 120, 195, 190, 117, 195, 120, 2, 0.361047
74, 6, wb, filler, NA, 999, 999, 5, 28, 90, 122, 73, 172, 124, 65, 3, 1.41625
74, 6, wb, filler, NA, 999, 999, 5, 28, 90, 122, 73, 172, 124, 65, 1, 0.894308
74, 6, wb, attraction, a-b-da, 9, 1, 5, 29, 135, 60, 60, 135, 129, 57, 3, 0.528024
74, 6, wb, attraction, a-b-da, 9, 1, 5, 29, 135, 60, 60, 135, 129, 57, 1, 1.11383
74, 6, wb, catch, NA, 999, 999, 5, 30, 144, 171, 106, 89, 114, 141, 3, 0.490755
74, 6, wb, catch, NA, 999, 999, 5, 30, 144, 171, 106, 89, 114, 141, 1, 0.701859
74, 6, wb, attraction, a-b-da, 2, 3, 5, 31, 195, 120, 193, 119, 120, 195, 3, 0.975571
74, 6, wb, attraction, a-b-da, 2, 3, 5, 31, 195, 120, 193, 119, 120, 195, 1, 1.11924
74, 6, wb, attraction, a-b-db, 14, 2, 5, 32, 90, 165, 165, 90, 83, 153, 3, 0.656201
74, 6, wb, attraction, a-b-db, 14, 2, 5, 32, 90, 165, 165, 90, 83, 153, 1, 0.716584
74, 6, wb, attraction, a-b-db, 2, 1, 5, 33, 135, 60, 60, 135, 59, 134, 3, 0.725737
74, 6, wb, attraction, a-b-db, 2, 1, 5, 33, 135, 60, 60, 135, 59, 134, 2, 0.615459
74, 6, wb, catch, NA, 999, 999, 5, 34, 115, 80, 92, 163, 176, 139, 1, 1.10058
74, 6, wb, catch, NA, 999, 999, 5, 34, 115, 80, 92, 163, 176, 139, 3, 0.335562
74, 6, wb, filler, NA, 999, 999, 5, 35, 145, 124, 95, 117, 152, 63, 3, 0.895988
74, 6, wb, filler, NA, 999, 999, 5, 35, 145, 124, 95, 117, 152, 63, 1, 0.491014
74, 6, wb, attraction, a-b-db, 5, 3, 5, 36, 195, 120, 117, 190, 120, 195, 3, 0.948792
74, 6, wb, attraction, a-b-db, 5, 3, 5, 36, 195, 120, 117, 190, 120, 195, 1, 0.5098
74, 6, wb, attraction, a-b-da, 14, 1, 5, 37, 60, 135, 125, 56, 135, 60, 3, 0.65495
74, 6, wb, attraction, a-b-da, 14, 1, 5, 37, 60, 135, 125, 56, 135, 60, 2, 0.491524
74, 6, wb, attraction, a-b-da, 14, 2, 6, 1, 165, 90, 90, 165, 153, 83, 3, 0.477164
74, 6, wb, attraction, a-b-da, 14, 2, 6, 1, 165, 90, 90, 165, 153, 83, 2, 0.33701
74, 6, wb, attraction, a-b-da, 9, 3, 6, 2, 195, 120, 186, 114, 120, 195, 3, 0.465604
74, 6, wb, attraction, a-b-da, 9, 3, 6, 2, 195, 120, 186, 114, 120, 195, 2, 0.278085
74, 6, wb, catch, NA, 999, 999, 6, 3, 111, 144, 185, 130, 109, 86, 3, 0.520495
74, 6, wb, catch, NA, 999, 999, 6, 3, 111, 144, 185, 130, 109, 86, 2, 0.274313
74, 6, wb, filler, NA, 999, 999, 6, 4, 169, 140, 92, 166, 182, 61, 3, 1.28491
74, 6, wb, filler, NA, 999, 999, 6, 4, 169, 140, 92, 166, 182, 61, 1, 0.472486
74, 6, wb, filler, NA, 999, 999, 6, 5, 124, 120, 133, 165, 80, 149, 3, 0.627555
74, 6, wb, filler, NA, 999, 999, 6, 5, 124, 120, 133, 165, 80, 149, 1, 0.793291
74, 6, wb, attraction, a-b-db, 2, 3, 6, 6, 119, 193, 120, 195, 195, 120, 3, 0.471034
74, 6, wb, attraction, a-b-db, 2, 3, 6, 6, 119, 193, 120, 195, 195, 120, 2, 0.378932
74, 6, wb, attraction, a-b-db, 9, 3, 6, 7, 120, 195, 195, 120, 114, 186, 3, 0.489377
74, 6, wb, attraction, a-b-db, 9, 3, 6, 7, 120, 195, 195, 120, 114, 186, 1, 1.05255
74, 6, wb, filler, NA, 999, 999, 6, 8, 194, 107, 98, 115, 193, 160, 2, 0.872213
74, 6, wb, filler, NA, 999, 999, 6, 8, 194, 107, 98, 115, 193, 160, 3, 0.315767
74, 6, wb, attraction, a-b-da, 2, 1, 6, 9, 135, 60, 60, 135, 134, 59, 2, 0.708938
74, 6, wb, attraction, a-b-da, 2, 1, 6, 9, 135, 60, 60, 135, 134, 59, 3, 0.431389
74, 6, wb, catch, NA, 999, 999, 6, 10, 154, 161, 107, 88, 124, 131, 2, 0.531904
74, 6, wb, catch, NA, 999, 999, 6, 10, 154, 161, 107, 88, 124, 131, 1, 0.373663
74, 6, wb, catch, NA, 999, 999, 6, 11, 127, 188, 161, 94, 67, 128, 3, 0.956145
74, 6, wb, catch, NA, 999, 999, 6, 11, 127, 188, 161, 94, 67, 128, 1, 0.372489
74, 6, wb, filler, NA, 999, 999, 6, 12, 175, 66, 75, 59, 146, 158, 2, 1.19561
74, 6, wb, filler, NA, 999, 999, 6, 12, 175, 66, 75, 59, 146, 158, 3, 0.69866
74, 6, wb, attraction, a-b-db, 5, 1, 6, 13, 60, 135, 135, 60, 58, 132, 3, 2.1084
74, 6, wb, attraction, a-b-db, 5, 1, 6, 13, 60, 135, 135, 60, 58, 132, 2, 0.310231
74, 6, wb, attraction, a-b-da, 5, 1, 6, 14, 60, 135, 132, 58, 135, 60, 3, 0.85539
74, 6, wb, attraction, a-b-da, 5, 1, 6, 14, 60, 135, 132, 58, 135, 60, 2, 0.307817
74, 6, wb, attraction, a-b-db, 9, 2, 6, 15, 86, 157, 90, 165, 165, 90, 1, 2.76505
74, 6, wb, attraction, a-b-db, 9, 2, 6, 15, 86, 157, 90, 165, 165, 90, 2, 0.284959
74, 6, wb, filler, NA, 999, 999, 6, 16, 77, 117, 98, 176, 138, 62, 1, 0.951243
74, 6, wb, filler, NA, 999, 999, 6, 16, 77, 117, 98, 176, 138, 62, 2, 0.30424
74, 6, wb, filler, NA, 999, 999, 6, 17, 124, 108, 137, 168, 67, 190, 1, 0.770163
74, 6, wb, filler, NA, 999, 999, 6, 17, 124, 108, 137, 168, 67, 190, 2, 0.290529
74, 6, wb, filler, NA, 999, 999, 6, 18, 150, 151, 190, 167, 107, 116, 3, 0.756404
74, 6, wb, filler, NA, 999, 999, 6, 18, 150, 151, 190, 167, 107, 116, 2, 0.380985
74, 6, wb, attraction, a-b-da, 2, 2, 6, 19, 90, 165, 163, 89, 165, 90, 3, 1.55533
74, 6, wb, attraction, a-b-da, 2, 2, 6, 19, 90, 165, 163, 89, 165, 90, 2, 0.315535
74, 6, wb, attraction, a-b-da, 5, 2, 6, 20, 165, 90, 90, 165, 161, 88, 2, 1.8606
74, 6, wb, attraction, a-b-da, 5, 2, 6, 20, 165, 90, 90, 165, 161, 88, 3, 0.31271
74, 6, wb, attraction, a-b-db, 5, 2, 6, 21, 165, 90, 90, 165, 88, 161, 2, 0.490011
74, 6, wb, attraction, a-b-db, 5, 2, 6, 21, 165, 90, 90, 165, 88, 161, 3, 0.317
74, 6, wb, attraction, a-b-da, 9, 2, 6, 22, 157, 86, 90, 165, 165, 90, 1, 0.518244
74, 6, wb, attraction, a-b-da, 9, 2, 6, 22, 157, 86, 90, 165, 165, 90, 2, 0.256693
74, 6, wb, attraction, a-b-db, 9, 1, 6, 23, 135, 60, 57, 129, 60, 135, 3, 0.643823
74, 6, wb, attraction, a-b-db, 9, 1, 6, 23, 135, 60, 57, 129, 60, 135, 2, 1.617
74, 6, wb, attraction, a-b-da, 14, 3, 6, 24, 195, 120, 181, 111, 120, 195, 2, 2.3417
74, 6, wb, attraction, a-b-da, 14, 3, 6, 24, 195, 120, 181, 111, 120, 195, 3, 0.526286
74, 6, wb, attraction, a-b-db, 5, 3, 6, 25, 120, 195, 117, 190, 195, 120, 2, 1.52674
74, 6, wb, attraction, a-b-db, 5, 3, 6, 25, 120, 195, 117, 190, 195, 120, 1, 0.352262
74, 6, wb, filler, NA, 999, 999, 6, 26, 149, 194, 104, 65, 74, 74, 3, 0.90404
74, 6, wb, filler, NA, 999, 999, 6, 26, 149, 194, 104, 65, 74, 74, 1, 0.410395
74, 6, wb, attraction, a-b-da, 5, 3, 6, 27, 190, 117, 120, 195, 195, 120, 1, 1.88761
74, 6, wb, attraction, a-b-da, 5, 3, 6, 27, 190, 117, 120, 195, 195, 120, 2, 0.610393
74, 6, wb, attraction, a-b-db, 2, 1, 6, 28, 59, 134, 60, 135, 135, 60, 2, 2.56733
74, 6, wb, attraction, a-b-db, 2, 1, 6, 28, 59, 134, 60, 135, 135, 60, 3, 0.607268
74, 6, wb, attraction, a-b-db, 2, 2, 6, 29, 89, 163, 165, 90, 90, 165, 1, 1.09231
74, 6, wb, attraction, a-b-db, 2, 2, 6, 29, 89, 163, 165, 90, 90, 165, 2, 0.327269
74, 6, wb, attraction, a-b-da, 14, 1, 6, 30, 125, 56, 60, 135, 135, 60, 1, 1.73578
74, 6, wb, attraction, a-b-da, 14, 1, 6, 30, 125, 56, 60, 135, 135, 60, 2, 0.305222
74, 6, wb, filler, NA, 999, 999, 6, 31, 72, 152, 69, 66, 91, 75, 2, 0.947057
74, 6, wb, filler, NA, 999, 999, 6, 31, 72, 152, 69, 66, 91, 75, 1, 0.308055
74, 6, wb, attraction, a-b-da, 9, 1, 6, 32, 135, 60, 60, 135, 129, 57, 2, 2.26929
74, 6, wb, attraction, a-b-da, 9, 1, 6, 32, 135, 60, 60, 135, 129, 57, 1, 0.497094
74, 6, wb, attraction, a-b-db, 14, 1, 6, 33, 60, 135, 56, 125, 135, 60, 2, 1.25894
74, 6, wb, attraction, a-b-db, 14, 1, 6, 33, 60, 135, 56, 125, 135, 60, 1, 0.711152
74, 6, wb, attraction, a-b-da, 2, 3, 6, 34, 193, 119, 120, 195, 195, 120, 3, 1.03221
74, 6, wb, attraction, a-b-da, 2, 3, 6, 34, 193, 119, 120, 195, 195, 120, 2, 0.413861
74, 6, wb, attraction, a-b-db, 14, 3, 6, 35, 120, 195, 111, 181, 195, 120, 2, 0.482996
74, 6, wb, attraction, a-b-db, 14, 3, 6, 35, 120, 195, 111, 181, 195, 120, 3, 0.334898
74, 6, wb, filler, NA, 999, 999, 6, 36, 154, 133, 90, 75, 113, 88, 2, 0.759365
74, 6, wb, filler, NA, 999, 999, 6, 36, 154, 133, 90, 75, 113, 88, 1, 0.343733
74, 6, wb, attraction, a-b-db, 14, 2, 6, 37, 165, 90, 90, 165, 83, 153, 3, 1.02359
74, 6, wb, attraction, a-b-db, 14, 2, 6, 37, 165, 90, 90, 165, 83, 153, 2, 0.293213
74, 6, wb, attraction, a-b-da, 5, 2, 7, 1, 161, 88, 165, 90, 90, 165, 3, 1.11912
74, 6, wb, attraction, a-b-da, 5, 2, 7, 1, 161, 88, 165, 90, 90, 165, 2, 0.489415
74, 6, wb, attraction, a-b-db, 5, 1, 7, 2, 135, 60, 60, 135, 58, 132, 3, 1.17922
74, 6, wb, attraction, a-b-db, 5, 1, 7, 2, 135, 60, 60, 135, 58, 132, 2, 0.914757
74, 6, wb, attraction, a-b-db, 2, 1, 7, 3, 135, 60, 60, 135, 59, 134, 3, 1.0438
74, 6, wb, attraction, a-b-db, 2, 1, 7, 3, 135, 60, 60, 135, 59, 134, 2, 0.784802
74, 6, wb, attraction, a-b-db, 9, 1, 7, 4, 60, 135, 57, 129, 135, 60, 2, 0.759207
74, 6, wb, attraction, a-b-db, 9, 1, 7, 4, 60, 135, 57, 129, 135, 60, 1, 0.551643
74, 6, wb, attraction, a-b-db, 14, 2, 7, 5, 90, 165, 165, 90, 83, 153, 3, 2.42344
74, 6, wb, attraction, a-b-db, 14, 2, 7, 5, 90, 165, 165, 90, 83, 153, 2, 0.308524
74, 6, wb, attraction, a-b-da, 9, 3, 7, 6, 195, 120, 186, 114, 120, 195, 3, 1.0937
74, 6, wb, attraction, a-b-da, 9, 3, 7, 6, 195, 120, 186, 114, 120, 195, 2, 0.272684
74, 6, wb, filler, NA, 999, 999, 7, 7, 97, 176, 190, 176, 107, 96, 3, 1.38713
74, 6, wb, filler, NA, 999, 999, 7, 7, 97, 176, 190, 176, 107, 96, 2, 0.274688
74, 6, wb, filler, NA, 999, 999, 7, 8, 114, 145, 111, 165, 132, 147, 1, 2.22127
74, 6, wb, filler, NA, 999, 999, 7, 8, 114, 145, 111, 165, 132, 147, 3, 0.930542
74, 6, wb, filler, NA, 999, 999, 7, 9, 154, 70, 74, 99, 130, 156, 2, 2.03483
74, 6, wb, filler, NA, 999, 999, 7, 9, 154, 70, 74, 99, 130, 156, 3, 0.600303
74, 6, wb, filler, NA, 999, 999, 7, 10, 186, 163, 169, 80, 138, 117, 3, 1.26991
74, 6, wb, filler, NA, 999, 999, 7, 10, 186, 163, 169, 80, 138, 117, 1, 0.354303
74, 6, wb, catch, NA, 999, 999, 7, 11, 78, 117, 165, 150, 119, 136, 1, 0.92998
74, 6, wb, catch, NA, 999, 999, 7, 11, 78, 117, 165, 150, 119, 136, 2, 0.41177
74, 6, wb, attraction, a-b-db, 14, 1, 7, 12, 56, 125, 60, 135, 135, 60, 2, 0.968792
74, 6, wb, attraction, a-b-db, 14, 1, 7, 12, 56, 125, 60, 135, 135, 60, 1, 0.465221
74, 6, wb, filler, NA, 999, 999, 7, 13, 113, 123, 112, 109, 184, 67, 2, 0.636296
74, 6, wb, filler, NA, 999, 999, 7, 13, 113, 123, 112, 109, 184, 67, 3, 1.47416
74, 6, wb, attraction, a-b-db, 5, 3, 7, 14, 117, 190, 195, 120, 120, 195, 2, 0.596193
74, 6, wb, attraction, a-b-db, 5, 3, 7, 14, 117, 190, 195, 120, 120, 195, 3, 1.22742
74, 6, wb, attraction, a-b-da, 14, 2, 7, 15, 153, 83, 90, 165, 165, 90, 1, 4.03954
74, 6, wb, attraction, a-b-da, 14, 2, 7, 15, 153, 83, 90, 165, 165, 90, 3, 0.867624
74, 6, wb, attraction, a-b-da, 2, 2, 7, 16, 165, 90, 90, 165, 163, 89, 1, 0.606604
74, 6, wb, attraction, a-b-da, 2, 2, 7, 16, 165, 90, 90, 165, 163, 89, 2, 1.0931
74, 6, wb, filler, NA, 999, 999, 7, 17, 183, 63, 119, 102, 163, 68, 3, 2.27872
74, 6, wb, filler, NA, 999, 999, 7, 17, 183, 63, 119, 102, 163, 68, 2, 0.449902
74, 6, wb, attraction, a-b-da, 2, 1, 7, 18, 60, 135, 134, 59, 135, 60, 2, 0.80572
74, 6, wb, attraction, a-b-da, 2, 1, 7, 18, 60, 135, 134, 59, 135, 60, 3, 0.420125
74, 6, wb, attraction, a-b-da, 5, 3, 7, 19, 120, 195, 195, 120, 190, 117, 2, 0.673267
74, 6, wb, attraction, a-b-da, 5, 3, 7, 19, 120, 195, 195, 120, 190, 117, 1, 0.620975
74, 6, wb, attraction, a-b-da, 9, 1, 7, 20, 129, 57, 135, 60, 60, 135, 1, 1.20205
74, 6, wb, attraction, a-b-da, 9, 1, 7, 20, 129, 57, 135, 60, 60, 135, 2, 0.464997
74, 6, wb, filler, NA, 999, 999, 7, 21, 60, 126, 134, 130, 84, 65, 3, 0.804226
74, 6, wb, filler, NA, 999, 999, 7, 21, 60, 126, 134, 130, 84, 65, 2, 0.346511
74, 6, wb, attraction, a-b-da, 14, 3, 7, 22, 120, 195, 195, 120, 181, 111, 3, 0.714376
74, 6, wb, attraction, a-b-da, 14, 3, 7, 22, 120, 195, 195, 120, 181, 111, 2, 0.596818
74, 6, wb, attraction, a-b-db, 2, 3, 7, 23, 195, 120, 120, 195, 119, 193, 3, 1.00261
74, 6, wb, attraction, a-b-db, 2, 3, 7, 23, 195, 120, 120, 195, 119, 193, 2, 0.433528
74, 6, wb, attraction, a-b-db, 5, 2, 7, 24, 165, 90, 88, 161, 90, 165, 1, 0.59005
74, 6, wb, attraction, a-b-db, 5, 2, 7, 24, 165, 90, 88, 161, 90, 165, 2, 0.285122
74, 6, wb, catch, NA, 999, 999, 7, 25, 66, 129, 158, 157, 158, 97, 1, 0.847654
74, 6, wb, catch, NA, 999, 999, 7, 25, 66, 129, 158, 157, 158, 97, 2, 0.34075
74, 6, wb, attraction, a-b-da, 5, 1, 7, 26, 60, 135, 135, 60, 132, 58, 3, 0.604593
74, 6, wb, attraction, a-b-da, 5, 1, 7, 26, 60, 135, 135, 60, 132, 58, 1, 0.419007
74, 6, wb, attraction, a-b-db, 9, 2, 7, 27, 86, 157, 165, 90, 90, 165, 1, 0.680036
74, 6, wb, attraction, a-b-db, 9, 2, 7, 27, 86, 157, 165, 90, 90, 165, 2, 0.355917
74, 6, wb, attraction, a-b-db, 2, 2, 7, 28, 165, 90, 90, 165, 89, 163, 3, 0.715049
74, 6, wb, attraction, a-b-db, 2, 2, 7, 28, 165, 90, 90, 165, 89, 163, 2, 0.39746
74, 6, wb, attraction, a-b-db, 14, 3, 7, 29, 111, 181, 195, 120, 120, 195, 1, 0.491275
74, 6, wb, attraction, a-b-db, 14, 3, 7, 29, 111, 181, 195, 120, 120, 195, 2, 0.478508
74, 6, wb, catch, NA, 999, 999, 7, 30, 158, 97, 176, 139, 113, 82, 3, 0.560969
74, 6, wb, catch, NA, 999, 999, 7, 30, 158, 97, 176, 139, 113, 82, 2, 0.297313
74, 6, wb, attraction, a-b-da, 14, 1, 7, 31, 135, 60, 125, 56, 60, 135, 1, 1.49914
74, 6, wb, attraction, a-b-da, 14, 1, 7, 31, 135, 60, 125, 56, 60, 135, 2, 0.742066
74, 6, wb, attraction, a-b-db, 9, 3, 7, 32, 120, 195, 114, 186, 195, 120, 1, 1.18981
74, 6, wb, attraction, a-b-db, 9, 3, 7, 32, 120, 195, 114, 186, 195, 120, 2, 0.580734
74, 6, wb, filler, NA, 999, 999, 7, 33, 108, 57, 97, 113, 93, 176, 1, 0.715209
74, 6, wb, filler, NA, 999, 999, 7, 33, 108, 57, 97, 113, 93, 176, 2, 0.765693
74, 6, wb, attraction, a-b-da, 9, 2, 7, 34, 157, 86, 165, 90, 90, 165, 1, 0.7726
74, 6, wb, attraction, a-b-da, 9, 2, 7, 34, 157, 86, 165, 90, 90, 165, 2, 0.540246
74, 6, wb, filler, NA, 999, 999, 7, 35, 113, 174, 73, 120, 77, 131, 3, 0.572017
74, 6, wb, filler, NA, 999, 999, 7, 35, 113, 174, 73, 120, 77, 131, 1, 0.395805
74, 6, wb, filler, NA, 999, 999, 7, 36, 107, 154, 188, 139, 81, 100, 3, 0.545717
74, 6, wb, filler, NA, 999, 999, 7, 36, 107, 154, 188, 139, 81, 100, 2, 0.530851
74, 6, wb, attraction, a-b-da, 2, 3, 7, 37, 120, 195, 195, 120, 193, 119, 3, 1.85127
74, 6, wb, attraction, a-b-da, 2, 3, 7, 37, 120, 195, 195, 120, 193, 119, 2, 0.728097
74, 6, wb, attraction, a-b-db, 14, 3, 8, 1, 111, 181, 120, 195, 195, 120, 1, 1.2323
74, 6, wb, attraction, a-b-db, 14, 3, 8, 1, 111, 181, 120, 195, 195, 120, 2, 0.397953
74, 6, wb, filler, NA, 999, 999, 8, 2, 156, 75, 99, 163, 103, 87, 3, 0.563754
74, 6, wb, filler, NA, 999, 999, 8, 2, 156, 75, 99, 163, 103, 87, 2, 0.364256
74, 6, wb, attraction, a-b-db, 9, 3, 8, 3, 114, 186, 195, 120, 120, 195, 3, 1.08348
74, 6, wb, attraction, a-b-db, 9, 3, 8, 3, 114, 186, 195, 120, 120, 195, 2, 1.3991
74, 6, wb, attraction, a-b-da, 5, 1, 8, 4, 60, 135, 135, 60, 132, 58, 3, 0.708547
74, 6, wb, attraction, a-b-da, 5, 1, 8, 4, 60, 135, 135, 60, 132, 58, 2, 0.414877
74, 6, wb, attraction, a-b-da, 9, 2, 8, 5, 90, 165, 157, 86, 165, 90, 3, 0.620143
74, 6, wb, attraction, a-b-da, 9, 2, 8, 5, 90, 165, 157, 86, 165, 90, 2, 0.426522
74, 6, wb, attraction, a-b-db, 5, 2, 8, 6, 90, 165, 88, 161, 165, 90, 3, 0.727104
74, 6, wb, attraction, a-b-db, 5, 2, 8, 6, 90, 165, 88, 161, 165, 90, 1, 0.928696
74, 6, wb, catch, NA, 999, 999, 8, 7, 129, 66, 148, 167, 147, 108, 1, 0.753005
74, 6, wb, catch, NA, 999, 999, 8, 7, 129, 66, 148, 167, 147, 108, 2, 0.69829
74, 6, wb, catch, NA, 999, 999, 8, 8, 138, 177, 121, 74, 152, 103, 2, 0.635867
74, 6, wb, catch, NA, 999, 999, 8, 8, 138, 177, 121, 74, 152, 103, 1, 0.345583
74, 6, wb, attraction, a-b-da, 9, 3, 8, 9, 195, 120, 186, 114, 120, 195, 3, 1.02552
74, 6, wb, attraction, a-b-da, 9, 3, 8, 9, 195, 120, 186, 114, 120, 195, 2, 1.24716
74, 6, wb, filler, NA, 999, 999, 8, 10, 144, 149, 148, 70, 168, 146, 2, 0.666718
74, 6, wb, filler, NA, 999, 999, 8, 10, 144, 149, 148, 70, 168, 146, 3, 0.399068
74, 6, wb, attraction, a-b-db, 5, 3, 8, 11, 195, 120, 117, 190, 120, 195, 1, 1.80494
74, 6, wb, attraction, a-b-db, 5, 3, 8, 11, 195, 120, 117, 190, 120, 195, 2, 0.499002
74, 6, wb, attraction, a-b-da, 14, 2, 8, 12, 90, 165, 165, 90, 153, 83, 3, 0.876758
74, 6, wb, attraction, a-b-da, 14, 2, 8, 12, 90, 165, 165, 90, 153, 83, 2, 0.512471
74, 6, wb, attraction, a-b-db, 14, 2, 8, 13, 90, 165, 165, 90, 83, 153, 1, 0.617588
74, 6, wb, attraction, a-b-db, 14, 2, 8, 13, 90, 165, 165, 90, 83, 153, 2, 0.376051
74, 6, wb, filler, NA, 999, 999, 8, 14, 179, 83, 174, 176, 147, 68, 3, 0.654548
74, 6, wb, filler, NA, 999, 999, 8, 14, 179, 83, 174, 176, 147, 68, 2, 0.498999
74, 6, wb, filler, NA, 999, 999, 8, 15, 122, 118, 166, 83, 103, 160, 2, 1.00476
74, 6, wb, filler, NA, 999, 999, 8, 15, 122, 118, 166, 83, 103, 160, 3, 0.363147
74, 6, wb, attraction, a-b-da, 14, 3, 8, 16, 181, 111, 195, 120, 120, 195, 1, 1.90623
74, 6, wb, attraction, a-b-da, 14, 3, 8, 16, 181, 111, 195, 120, 120, 195, 3, 0.93229
74, 6, wb, filler, NA, 999, 999, 8, 17, 137, 95, 175, 56, 94, 192, 1, 1.1246
74, 6, wb, filler, NA, 999, 999, 8, 17, 137, 95, 175, 56, 94, 192, 3, 0.406195
74, 6, wb, attraction, a-b-da, 2, 2, 8, 18, 90, 165, 163, 89, 165, 90, 3, 1.72339
74, 6, wb, attraction, a-b-da, 2, 2, 8, 18, 90, 165, 163, 89, 165, 90, 2, 0.420878
74, 6, wb, filler, NA, 999, 999, 8, 19, 165, 161, 132, 175, 167, 101, 3, 0.61788
74, 6, wb, filler, NA, 999, 999, 8, 19, 165, 161, 132, 175, 167, 101, 1, 0.37637
74, 6, wb, attraction, a-b-db, 2, 2, 8, 20, 165, 90, 89, 163, 90, 165, 3, 0.614894
74, 6, wb, attraction, a-b-db, 2, 2, 8, 20, 165, 90, 89, 163, 90, 165, 2, 0.397308
74, 6, wb, attraction, a-b-da, 14, 1, 8, 21, 125, 56, 60, 135, 135, 60, 3, 0.627145
74, 6, wb, attraction, a-b-da, 14, 1, 8, 21, 125, 56, 60, 135, 135, 60, 1, 0.576871
74, 6, wb, filler, NA, 999, 999, 8, 22, 156, 73, 193, 82, 57, 56, 3, 0.607435
74, 6, wb, filler, NA, 999, 999, 8, 22, 156, 73, 193, 82, 57, 56, 2, 0.245828
74, 6, wb, attraction, a-b-db, 9, 1, 8, 23, 57, 129, 135, 60, 60, 135, 3, 0.657747
74, 6, wb, attraction, a-b-db, 9, 1, 8, 23, 57, 129, 135, 60, 60, 135, 1, 0.398134
74, 6, wb, attraction, a-b-da, 5, 2, 8, 24, 165, 90, 90, 165, 161, 88, 3, 0.516031
74, 6, wb, attraction, a-b-da, 5, 2, 8, 24, 165, 90, 90, 165, 161, 88, 1, 0.574445
74, 6, wb, attraction, a-b-db, 14, 1, 8, 25, 60, 135, 135, 60, 56, 125, 3, 0.620944
74, 6, wb, attraction, a-b-db, 14, 1, 8, 25, 60, 135, 135, 60, 56, 125, 1, 0.346573
74, 6, wb, filler, NA, 999, 999, 8, 26, 152, 115, 131, 58, 67, 189, 3, 0.506532
74, 6, wb, filler, NA, 999, 999, 8, 26, 152, 115, 131, 58, 67, 189, 1, 1.54098
74, 6, wb, attraction, a-b-da, 2, 3, 8, 27, 120, 195, 193, 119, 195, 120, 3, 0.740442
74, 6, wb, attraction, a-b-da, 2, 3, 8, 27, 120, 195, 193, 119, 195, 120, 2, 0.277523
74, 6, wb, attraction, a-b-da, 2, 1, 8, 28, 60, 135, 134, 59, 135, 60, 3, 0.543937
74, 6, wb, attraction, a-b-da, 2, 1, 8, 28, 60, 135, 134, 59, 135, 60, 2, 0.617248
74, 6, wb, attraction, a-b-db, 2, 3, 8, 29, 195, 120, 119, 193, 120, 195, 2, 0.926198
74, 6, wb, attraction, a-b-db, 2, 3, 8, 29, 195, 120, 119, 193, 120, 195, 3, 0.45587
74, 6, wb, attraction, a-b-db, 9, 2, 8, 30, 165, 90, 90, 165, 86, 157, 3, 1.09093
74, 6, wb, attraction, a-b-db, 9, 2, 8, 30, 165, 90, 90, 165, 86, 157, 2, 0.493935
74, 6, wb, filler, NA, 999, 999, 8, 31, 67, 172, 67, 159, 163, 122, 1, 1.76777
74, 6, wb, filler, NA, 999, 999, 8, 31, 67, 172, 67, 159, 163, 122, 2, 0.391799
74, 6, wb, attraction, a-b-da, 5, 3, 8, 32, 120, 195, 195, 120, 190, 117, 3, 0.55766
74, 6, wb, attraction, a-b-da, 5, 3, 8, 32, 120, 195, 195, 120, 190, 117, 2, 0.366065
74, 6, wb, attraction, a-b-db, 2, 1, 8, 33, 135, 60, 60, 135, 59, 134, 3, 0.573252
74, 6, wb, attraction, a-b-db, 2, 1, 8, 33, 135, 60, 60, 135, 59, 134, 2, 0.365216
74, 6, wb, attraction, a-b-da, 9, 1, 8, 34, 129, 57, 135, 60, 60, 135, 3, 0.380376
74, 6, wb, attraction, a-b-da, 9, 1, 8, 34, 129, 57, 135, 60, 60, 135, 1, 0.548056
74, 6, wb, filler, NA, 999, 999, 8, 35, 64, 188, 117, 89, 137, 79, 1, 0.507819
74, 6, wb, filler, NA, 999, 999, 8, 35, 64, 188, 117, 89, 137, 79, 2, 0.830348
74, 6, wb, catch, NA, 999, 999, 8, 36, 94, 161, 98, 97, 131, 184, 3, 1.52275
74, 6, wb, catch, NA, 999, 999, 8, 36, 94, 161, 98, 97, 131, 184, 2, 0.700276
74, 6, wb, attraction, a-b-db, 5, 1, 8, 37, 60, 135, 58, 132, 135, 60, 3, 0.813862
74, 6, wb, attraction, a-b-db, 5, 1, 8, 37, 60, 135, 58, 132, 135, 60, 2, 0.428405
