sub_n, computer_n, bw_cond, effect, set, distance, diag, block_n, trial_n, h1, w1, h2, w2, h3, w3, choice, rt 
70, 6, wb, practice, NA, 999, 999, 0, 1, 162, 88, 92, 169, 134, 141, 1, 13.6038
70, 6, wb, practice, NA, 999, 999, 0, 1, 162, 88, 92, 169, 134, 141, 3, 2.50325
70, 6, wb, practice, NA, 999, 999, 0, 2, 71, 94, 131, 85, 98, 138, 1, 3.94162
70, 6, wb, practice, NA, 999, 999, 0, 2, 71, 94, 131, 85, 98, 138, 3, 3.51718
70, 6, wb, practice, NA, 999, 999, 0, 3, 158, 92, 177, 134, 155, 89, 3, 3.23461
70, 6, wb, practice, NA, 999, 999, 0, 3, 158, 92, 177, 134, 155, 89, 2, 1.61659
70, 6, wb, attraction, a-b-da, 9, 3, 1, 1, 186, 114, 120, 195, 195, 120, 1, 1.94404
70, 6, wb, attraction, a-b-da, 9, 3, 1, 1, 186, 114, 120, 195, 195, 120, 2, 3.55273
70, 6, wb, attraction, a-b-db, 14, 1, 1, 2, 60, 135, 135, 60, 56, 125, 3, 3.63166
70, 6, wb, attraction, a-b-db, 14, 1, 1, 2, 60, 135, 135, 60, 56, 125, 1, 3.26044
70, 6, wb, attraction, a-b-da, 5, 1, 1, 3, 135, 60, 60, 135, 132, 58, 2, 4.98272
70, 6, wb, attraction, a-b-da, 5, 1, 1, 3, 135, 60, 60, 135, 132, 58, 1, 4.36506
70, 6, wb, filler, NA, 999, 999, 1, 4, 97, 195, 83, 82, 124, 112, 2, 1.32308
70, 6, wb, filler, NA, 999, 999, 1, 4, 97, 195, 83, 82, 124, 112, 1, 2.90859
70, 6, wb, attraction, a-b-da, 2, 3, 1, 5, 195, 120, 193, 119, 120, 195, 1, 10.7971
70, 6, wb, attraction, a-b-da, 2, 3, 1, 5, 195, 120, 193, 119, 120, 195, 3, 1.90488
70, 6, wb, attraction, a-b-db, 2, 2, 1, 6, 89, 163, 90, 165, 165, 90, 1, 5.93019
70, 6, wb, attraction, a-b-db, 2, 2, 1, 6, 89, 163, 90, 165, 165, 90, 2, 1.53834
70, 6, wb, attraction, a-b-db, 9, 2, 1, 7, 86, 157, 90, 165, 165, 90, 3, 10.8425
70, 6, wb, attraction, a-b-db, 9, 2, 1, 7, 86, 157, 90, 165, 165, 90, 2, 1.18836
70, 6, wb, attraction, a-b-da, 14, 1, 1, 8, 135, 60, 125, 56, 60, 135, 2, 2.79484
70, 6, wb, attraction, a-b-da, 14, 1, 1, 8, 135, 60, 125, 56, 60, 135, 3, 1.04104
70, 6, wb, attraction, a-b-da, 9, 2, 1, 9, 90, 165, 157, 86, 165, 90, 2, 2.56478
70, 6, wb, attraction, a-b-da, 9, 2, 1, 9, 90, 165, 157, 86, 165, 90, 1, 0.708627
70, 6, wb, filler, NA, 999, 999, 1, 10, 106, 189, 195, 134, 187, 177, 1, 3.3255
70, 6, wb, filler, NA, 999, 999, 1, 10, 106, 189, 195, 134, 187, 177, 3, 0.942496
70, 6, wb, filler, NA, 999, 999, 1, 11, 89, 194, 99, 61, 76, 105, 2, 2.97414
70, 6, wb, filler, NA, 999, 999, 1, 11, 89, 194, 99, 61, 76, 105, 1, 1.18116
70, 6, wb, attraction, a-b-db, 5, 1, 1, 12, 135, 60, 58, 132, 60, 135, 1, 12.4754
70, 6, wb, attraction, a-b-db, 5, 1, 1, 12, 135, 60, 58, 132, 60, 135, 3, 1.05145
70, 6, wb, attraction, a-b-db, 2, 1, 1, 13, 59, 134, 60, 135, 135, 60, 1, 3.30319
70, 6, wb, attraction, a-b-db, 2, 1, 1, 13, 59, 134, 60, 135, 135, 60, 2, 0.833563
70, 6, wb, catch, NA, 999, 999, 1, 14, 164, 151, 159, 96, 96, 99, 3, 1.35776
70, 6, wb, catch, NA, 999, 999, 1, 14, 164, 151, 159, 96, 96, 99, 1, 0.741954
70, 6, wb, attraction, a-b-db, 14, 3, 1, 15, 195, 120, 120, 195, 111, 181, 3, 2.92566
70, 6, wb, attraction, a-b-db, 14, 3, 1, 15, 195, 120, 120, 195, 111, 181, 1, 0.846825
70, 6, wb, filler, NA, 999, 999, 1, 16, 106, 128, 156, 109, 150, 109, 1, 2.41841
70, 6, wb, filler, NA, 999, 999, 1, 16, 106, 128, 156, 109, 150, 109, 2, 2.35237
70, 6, wb, attraction, a-b-da, 2, 1, 1, 17, 134, 59, 60, 135, 135, 60, 1, 2.97547
70, 6, wb, attraction, a-b-da, 2, 1, 1, 17, 134, 59, 60, 135, 135, 60, 2, 2.66246
70, 6, wb, filler, NA, 999, 999, 1, 18, 71, 76, 144, 139, 136, 106, 1, 1.01694
70, 6, wb, filler, NA, 999, 999, 1, 18, 71, 76, 144, 139, 136, 106, 2, 0.663312
70, 6, wb, attraction, a-b-da, 9, 1, 1, 19, 135, 60, 60, 135, 129, 57, 3, 2.05044
70, 6, wb, attraction, a-b-da, 9, 1, 1, 19, 135, 60, 60, 135, 129, 57, 1, 3.45502
70, 6, wb, attraction, a-b-db, 5, 3, 1, 20, 120, 195, 195, 120, 117, 190, 3, 10.1778
70, 6, wb, attraction, a-b-db, 5, 3, 1, 20, 120, 195, 195, 120, 117, 190, 1, 1.48667
70, 6, wb, attraction, a-b-da, 5, 3, 1, 21, 190, 117, 120, 195, 195, 120, 2, 5.04878
70, 6, wb, attraction, a-b-da, 5, 3, 1, 21, 190, 117, 120, 195, 195, 120, 3, 1.69255
70, 6, wb, attraction, a-b-da, 14, 2, 1, 22, 165, 90, 153, 83, 90, 165, 3, 2.14199
70, 6, wb, attraction, a-b-da, 14, 2, 1, 22, 165, 90, 153, 83, 90, 165, 1, 1.45457
70, 6, wb, filler, NA, 999, 999, 1, 23, 130, 159, 109, 123, 134, 101, 2, 3.93813
70, 6, wb, filler, NA, 999, 999, 1, 23, 130, 159, 109, 123, 134, 101, 1, 1.19414
70, 6, wb, filler, NA, 999, 999, 1, 24, 107, 108, 97, 56, 105, 69, 2, 3.92783
70, 6, wb, filler, NA, 999, 999, 1, 24, 107, 108, 97, 56, 105, 69, 1, 0.512585
70, 6, wb, attraction, a-b-db, 9, 1, 1, 25, 135, 60, 60, 135, 57, 129, 3, 2.12959
70, 6, wb, attraction, a-b-db, 9, 1, 1, 25, 135, 60, 60, 135, 57, 129, 1, 0.683063
70, 6, wb, filler, NA, 999, 999, 1, 26, 194, 62, 162, 81, 146, 71, 3, 3.12532
70, 6, wb, filler, NA, 999, 999, 1, 26, 194, 62, 162, 81, 146, 71, 1, 0.782347
70, 6, wb, attraction, a-b-db, 9, 3, 1, 27, 195, 120, 114, 186, 120, 195, 2, 7.81267
70, 6, wb, attraction, a-b-db, 9, 3, 1, 27, 195, 120, 114, 186, 120, 195, 3, 0.896906
70, 6, wb, attraction, a-b-db, 2, 3, 1, 28, 119, 193, 120, 195, 195, 120, 2, 8.89857
70, 6, wb, attraction, a-b-db, 2, 3, 1, 28, 119, 193, 120, 195, 195, 120, 3, 0.459087
70, 6, wb, filler, NA, 999, 999, 1, 29, 66, 63, 66, 80, 82, 89, 1, 2.59811
70, 6, wb, filler, NA, 999, 999, 1, 29, 66, 63, 66, 80, 82, 89, 3, 0.620612
70, 6, wb, catch, NA, 999, 999, 1, 30, 165, 150, 66, 129, 93, 162, 2, 1.80176
70, 6, wb, catch, NA, 999, 999, 1, 30, 165, 150, 66, 129, 93, 162, 1, 0.456507
70, 6, wb, attraction, a-b-da, 2, 2, 1, 31, 165, 90, 90, 165, 163, 89, 3, 3.07563
70, 6, wb, attraction, a-b-da, 2, 2, 1, 31, 165, 90, 90, 165, 163, 89, 2, 1.5186
70, 6, wb, catch, NA, 999, 999, 1, 32, 129, 66, 106, 149, 159, 156, 1, 1.03138
70, 6, wb, catch, NA, 999, 999, 1, 32, 129, 66, 106, 149, 159, 156, 3, 2.1091
70, 6, wb, attraction, a-b-db, 14, 2, 1, 33, 165, 90, 90, 165, 83, 153, 3, 3.94985
70, 6, wb, attraction, a-b-db, 14, 2, 1, 33, 165, 90, 90, 165, 83, 153, 1, 1.88586
70, 6, wb, filler, NA, 999, 999, 1, 34, 103, 112, 89, 124, 195, 117, 2, 1.98379
70, 6, wb, filler, NA, 999, 999, 1, 34, 103, 112, 89, 124, 195, 117, 3, 0.63114
70, 6, wb, attraction, a-b-db, 5, 2, 1, 35, 165, 90, 90, 165, 88, 161, 3, 13.4835
70, 6, wb, attraction, a-b-db, 5, 2, 1, 35, 165, 90, 90, 165, 88, 161, 1, 0.683408
70, 6, wb, attraction, a-b-da, 14, 3, 1, 36, 195, 120, 120, 195, 181, 111, 3, 2.03774
70, 6, wb, attraction, a-b-da, 14, 3, 1, 36, 195, 120, 120, 195, 181, 111, 2, 0.602409
70, 6, wb, attraction, a-b-da, 5, 2, 1, 37, 161, 88, 165, 90, 90, 165, 2, 6.64823
70, 6, wb, attraction, a-b-da, 5, 2, 1, 37, 161, 88, 165, 90, 90, 165, 3, 0.403565
70, 6, wb, attraction, a-b-da, 5, 3, 2, 1, 190, 117, 120, 195, 195, 120, 1, 7.45717
70, 6, wb, attraction, a-b-da, 5, 3, 2, 1, 190, 117, 120, 195, 195, 120, 2, 0.483604
70, 6, wb, attraction, a-b-db, 5, 2, 2, 2, 90, 165, 165, 90, 88, 161, 3, 6.27802
70, 6, wb, attraction, a-b-db, 5, 2, 2, 2, 90, 165, 165, 90, 88, 161, 1, 0.959936
70, 6, wb, attraction, a-b-db, 9, 1, 2, 3, 60, 135, 135, 60, 57, 129, 3, 6.39099
70, 6, wb, attraction, a-b-db, 9, 1, 2, 3, 60, 135, 135, 60, 57, 129, 2, 2.71629
70, 6, wb, catch, NA, 999, 999, 2, 4, 111, 144, 116, 79, 189, 126, 2, 2.36467
70, 6, wb, catch, NA, 999, 999, 2, 4, 111, 144, 116, 79, 189, 126, 3, 0.492514
70, 6, wb, attraction, a-b-db, 14, 1, 2, 5, 135, 60, 60, 135, 56, 125, 3, 6.55841
70, 6, wb, attraction, a-b-db, 14, 1, 2, 5, 135, 60, 60, 135, 56, 125, 1, 0.604923
70, 6, wb, attraction, a-b-da, 5, 2, 2, 6, 90, 165, 165, 90, 161, 88, 1, 16.1708
70, 6, wb, attraction, a-b-da, 5, 2, 2, 6, 90, 165, 165, 90, 161, 88, 3, 0.758287
70, 6, wb, attraction, a-b-db, 5, 1, 2, 7, 60, 135, 135, 60, 58, 132, 2, 4.86929
70, 6, wb, attraction, a-b-db, 5, 1, 2, 7, 60, 135, 135, 60, 58, 132, 1, 1.85654
70, 6, wb, attraction, a-b-db, 2, 1, 2, 8, 60, 135, 59, 134, 135, 60, 2, 2.89116
70, 6, wb, attraction, a-b-db, 2, 1, 2, 8, 60, 135, 59, 134, 135, 60, 3, 5.91763
70, 6, wb, filler, NA, 999, 999, 2, 9, 150, 63, 170, 148, 97, 58, 3, 1.39694
70, 6, wb, filler, NA, 999, 999, 2, 9, 150, 63, 170, 148, 97, 58, 2, 0.819841
70, 6, wb, attraction, a-b-da, 9, 2, 2, 10, 157, 86, 90, 165, 165, 90, 1, 5.67297
70, 6, wb, attraction, a-b-da, 9, 2, 2, 10, 157, 86, 90, 165, 165, 90, 3, 0.843105
70, 6, wb, filler, NA, 999, 999, 2, 11, 84, 150, 78, 126, 147, 175, 2, 1.04674
70, 6, wb, filler, NA, 999, 999, 2, 11, 84, 150, 78, 126, 147, 175, 3, 0.403717
70, 6, wb, attraction, a-b-db, 5, 3, 2, 12, 120, 195, 195, 120, 117, 190, 3, 8.12954
70, 6, wb, attraction, a-b-db, 5, 3, 2, 12, 120, 195, 195, 120, 117, 190, 1, 0.848915
70, 6, wb, catch, NA, 999, 999, 2, 13, 182, 133, 112, 143, 119, 76, 3, 1.80469
70, 6, wb, catch, NA, 999, 999, 2, 13, 182, 133, 112, 143, 119, 76, 1, 0.762684
70, 6, wb, attraction, a-b-da, 2, 2, 2, 14, 163, 89, 165, 90, 90, 165, 2, 8.23376
70, 6, wb, attraction, a-b-da, 2, 2, 2, 14, 163, 89, 165, 90, 90, 165, 3, 0.949165
70, 6, wb, filler, NA, 999, 999, 2, 15, 182, 82, 194, 130, 58, 74, 3, 1.82076
70, 6, wb, filler, NA, 999, 999, 2, 15, 182, 82, 194, 130, 58, 74, 2, 0.706786
70, 6, wb, attraction, a-b-da, 14, 3, 2, 16, 195, 120, 181, 111, 120, 195, 2, 10.3001
70, 6, wb, attraction, a-b-da, 14, 3, 2, 16, 195, 120, 181, 111, 120, 195, 3, 1.32407
70, 6, wb, filler, NA, 999, 999, 2, 17, 182, 88, 192, 139, 59, 163, 3, 4.78826
70, 6, wb, filler, NA, 999, 999, 2, 17, 182, 88, 192, 139, 59, 163, 2, 0.418021
70, 6, wb, attraction, a-b-db, 9, 2, 2, 18, 165, 90, 86, 157, 90, 165, 2, 7.06331
70, 6, wb, attraction, a-b-db, 9, 2, 2, 18, 165, 90, 86, 157, 90, 165, 1, 0.833529
70, 6, wb, attraction, a-b-da, 14, 2, 2, 19, 165, 90, 90, 165, 153, 83, 3, 4.70995
70, 6, wb, attraction, a-b-da, 14, 2, 2, 19, 165, 90, 90, 165, 153, 83, 1, 0.735103
70, 6, wb, attraction, a-b-db, 2, 3, 2, 20, 120, 195, 119, 193, 195, 120, 2, 7.85552
70, 6, wb, attraction, a-b-db, 2, 3, 2, 20, 120, 195, 119, 193, 195, 120, 3, 0.610389
70, 6, wb, attraction, a-b-db, 14, 3, 2, 21, 111, 181, 195, 120, 120, 195, 1, 2.23943
70, 6, wb, attraction, a-b-db, 14, 3, 2, 21, 111, 181, 195, 120, 120, 195, 2, 0.516045
70, 6, wb, filler, NA, 999, 999, 2, 22, 135, 153, 180, 63, 167, 103, 2, 3.77328
70, 6, wb, filler, NA, 999, 999, 2, 22, 135, 153, 180, 63, 167, 103, 1, 3.75596
70, 6, wb, attraction, a-b-da, 5, 1, 2, 23, 60, 135, 132, 58, 135, 60, 2, 3.53879
70, 6, wb, attraction, a-b-da, 5, 1, 2, 23, 60, 135, 132, 58, 135, 60, 3, 2.427
70, 6, wb, catch, NA, 999, 999, 2, 24, 116, 79, 155, 100, 159, 156, 1, 2.11884
70, 6, wb, catch, NA, 999, 999, 2, 24, 116, 79, 155, 100, 159, 156, 3, 0.488821
70, 6, wb, attraction, a-b-db, 9, 3, 2, 25, 195, 120, 120, 195, 114, 186, 3, 6.49918
70, 6, wb, attraction, a-b-db, 9, 3, 2, 25, 195, 120, 120, 195, 114, 186, 1, 1.86843
70, 6, wb, filler, NA, 999, 999, 2, 26, 151, 113, 133, 137, 113, 180, 1, 5.55118
70, 6, wb, filler, NA, 999, 999, 2, 26, 151, 113, 133, 137, 113, 180, 3, 0.454706
70, 6, wb, attraction, a-b-da, 9, 3, 2, 27, 120, 195, 186, 114, 195, 120, 2, 10.2427
70, 6, wb, attraction, a-b-da, 9, 3, 2, 27, 120, 195, 186, 114, 195, 120, 1, 0.516578
70, 6, wb, filler, NA, 999, 999, 2, 28, 60, 160, 56, 119, 120, 118, 2, 3.94992
70, 6, wb, filler, NA, 999, 999, 2, 28, 60, 160, 56, 119, 120, 118, 3, 3.38998
70, 6, wb, attraction, a-b-db, 14, 2, 2, 29, 165, 90, 90, 165, 83, 153, 3, 7.72345
70, 6, wb, attraction, a-b-db, 14, 2, 2, 29, 165, 90, 90, 165, 83, 153, 1, 0.795061
70, 6, wb, filler, NA, 999, 999, 2, 30, 103, 81, 183, 66, 177, 170, 1, 1.26464
70, 6, wb, filler, NA, 999, 999, 2, 30, 103, 81, 183, 66, 177, 170, 3, 0.916905
70, 6, wb, filler, NA, 999, 999, 2, 31, 60, 80, 132, 87, 127, 68, 1, 2.30187
70, 6, wb, filler, NA, 999, 999, 2, 31, 60, 80, 132, 87, 127, 68, 2, 0.42447
70, 6, wb, attraction, a-b-db, 2, 2, 2, 32, 90, 165, 165, 90, 89, 163, 3, 22.701
70, 6, wb, attraction, a-b-db, 2, 2, 2, 32, 90, 165, 165, 90, 89, 163, 2, 2.53717
70, 6, wb, filler, NA, 999, 999, 2, 33, 74, 148, 151, 110, 56, 152, 3, 1.54493
70, 6, wb, filler, NA, 999, 999, 2, 33, 74, 148, 151, 110, 56, 152, 2, 0.58573
70, 6, wb, attraction, a-b-da, 14, 1, 2, 34, 60, 135, 125, 56, 135, 60, 2, 5.04825
70, 6, wb, attraction, a-b-da, 14, 1, 2, 34, 60, 135, 125, 56, 135, 60, 1, 3.14012
70, 6, wb, attraction, a-b-da, 9, 1, 2, 35, 129, 57, 135, 60, 60, 135, 1, 4.26683
70, 6, wb, attraction, a-b-da, 9, 1, 2, 35, 129, 57, 135, 60, 60, 135, 2, 2.71023
70, 6, wb, attraction, a-b-da, 2, 3, 2, 36, 195, 120, 120, 195, 193, 119, 3, 17.8386
70, 6, wb, attraction, a-b-da, 2, 3, 2, 36, 195, 120, 120, 195, 193, 119, 1, 1.96724
70, 6, wb, attraction, a-b-da, 2, 1, 2, 37, 60, 135, 134, 59, 135, 60, 3, 4.22969
70, 6, wb, attraction, a-b-da, 2, 1, 2, 37, 60, 135, 134, 59, 135, 60, 1, 2.07429
70, 6, wb, catch, NA, 999, 999, 3, 1, 165, 90, 150, 165, 106, 89, 3, 1.18036
70, 6, wb, catch, NA, 999, 999, 3, 1, 165, 90, 150, 165, 106, 89, 2, 0.411932
70, 6, wb, catch, NA, 999, 999, 3, 2, 96, 159, 164, 151, 125, 70, 3, 1.83304
70, 6, wb, catch, NA, 999, 999, 3, 2, 96, 159, 164, 151, 125, 70, 2, 0.462477
70, 6, wb, filler, NA, 999, 999, 3, 3, 127, 126, 102, 175, 111, 181, 2, 8.47363
70, 6, wb, filler, NA, 999, 999, 3, 3, 127, 126, 102, 175, 111, 181, 1, 2.86695
70, 6, wb, attraction, a-b-db, 14, 1, 3, 4, 56, 125, 135, 60, 60, 135, 1, 2.04525
70, 6, wb, attraction, a-b-db, 14, 1, 3, 4, 56, 125, 135, 60, 60, 135, 2, 1.94606
70, 6, wb, attraction, a-b-da, 2, 2, 3, 5, 90, 165, 165, 90, 163, 89, 3, 2.07339
70, 6, wb, attraction, a-b-da, 2, 2, 3, 5, 90, 165, 165, 90, 163, 89, 1, 0.428612
70, 6, wb, attraction, a-b-db, 5, 3, 3, 6, 120, 195, 117, 190, 195, 120, 1, 6.37706
70, 6, wb, attraction, a-b-db, 5, 3, 3, 6, 120, 195, 117, 190, 195, 120, 3, 0.631184
70, 6, wb, attraction, a-b-db, 2, 1, 3, 7, 60, 135, 135, 60, 59, 134, 3, 3.22747
70, 6, wb, attraction, a-b-db, 2, 1, 3, 7, 60, 135, 135, 60, 59, 134, 2, 2.5205
70, 6, wb, attraction, a-b-db, 5, 1, 3, 8, 135, 60, 58, 132, 60, 135, 2, 5.44901
70, 6, wb, attraction, a-b-db, 5, 1, 3, 8, 135, 60, 58, 132, 60, 135, 3, 1.1246
70, 6, wb, attraction, a-b-da, 9, 2, 3, 9, 165, 90, 157, 86, 90, 165, 3, 2.31682
70, 6, wb, attraction, a-b-da, 9, 2, 3, 9, 165, 90, 157, 86, 90, 165, 1, 0.638709
70, 6, wb, filler, NA, 999, 999, 3, 10, 65, 195, 170, 160, 193, 117, 1, 1.37111
70, 6, wb, filler, NA, 999, 999, 3, 10, 65, 195, 170, 160, 193, 117, 2, 0.426723
70, 6, wb, attraction, a-b-da, 9, 1, 3, 11, 60, 135, 135, 60, 129, 57, 3, 6.10317
70, 6, wb, attraction, a-b-da, 9, 1, 3, 11, 60, 135, 135, 60, 129, 57, 1, 0.688618
70, 6, wb, filler, NA, 999, 999, 3, 12, 169, 174, 155, 181, 188, 108, 3, 3.24304
70, 6, wb, filler, NA, 999, 999, 3, 12, 169, 174, 155, 181, 188, 108, 1, 0.535211
70, 6, wb, attraction, a-b-db, 2, 3, 3, 13, 120, 195, 119, 193, 195, 120, 2, 10.5757
70, 6, wb, attraction, a-b-db, 2, 3, 3, 13, 120, 195, 119, 193, 195, 120, 1, 2.73249
70, 6, wb, filler, NA, 999, 999, 3, 14, 64, 76, 65, 135, 130, 69, 1, 2.2122
70, 6, wb, filler, NA, 999, 999, 3, 14, 64, 76, 65, 135, 130, 69, 3, 5.49815
70, 6, wb, attraction, a-b-db, 2, 2, 3, 15, 89, 163, 90, 165, 165, 90, 3, 3.04222
70, 6, wb, attraction, a-b-db, 2, 2, 3, 15, 89, 163, 90, 165, 165, 90, 1, 0.966661
70, 6, wb, attraction, a-b-db, 5, 2, 3, 16, 90, 165, 165, 90, 88, 161, 3, 2.01362
70, 6, wb, attraction, a-b-db, 5, 2, 3, 16, 90, 165, 165, 90, 88, 161, 1, 0.651727
70, 6, wb, attraction, a-b-db, 9, 1, 3, 17, 60, 135, 57, 129, 135, 60, 2, 5.94334
70, 6, wb, attraction, a-b-db, 9, 1, 3, 17, 60, 135, 57, 129, 135, 60, 3, 1.3189
70, 6, wb, attraction, a-b-db, 9, 2, 3, 18, 90, 165, 86, 157, 165, 90, 2, 2.07165
70, 6, wb, attraction, a-b-db, 9, 2, 3, 18, 90, 165, 86, 157, 165, 90, 3, 1.21103
70, 6, wb, filler, NA, 999, 999, 3, 19, 181, 104, 101, 157, 134, 140, 2, 6.82396
70, 6, wb, filler, NA, 999, 999, 3, 19, 181, 104, 101, 157, 134, 140, 3, 1.89178
70, 6, wb, attraction, a-b-db, 14, 2, 3, 20, 83, 153, 90, 165, 165, 90, 1, 1.86107
70, 6, wb, attraction, a-b-db, 14, 2, 3, 20, 83, 153, 90, 165, 165, 90, 2, 0.713096
70, 6, wb, filler, NA, 999, 999, 3, 21, 90, 150, 67, 120, 160, 180, 2, 1.05821
70, 6, wb, filler, NA, 999, 999, 3, 21, 90, 150, 67, 120, 160, 180, 3, 0.74248
70, 6, wb, attraction, a-b-da, 14, 1, 3, 22, 135, 60, 60, 135, 125, 56, 3, 4.40632
70, 6, wb, attraction, a-b-da, 14, 1, 3, 22, 135, 60, 60, 135, 125, 56, 1, 0.707495
70, 6, wb, attraction, a-b-da, 2, 3, 3, 23, 193, 119, 120, 195, 195, 120, 2, 13.9486
70, 6, wb, attraction, a-b-da, 2, 3, 3, 23, 193, 119, 120, 195, 195, 120, 1, 5.62554
70, 6, wb, attraction, a-b-da, 5, 1, 3, 24, 132, 58, 60, 135, 135, 60, 3, 20.4844
70, 6, wb, attraction, a-b-da, 5, 1, 3, 24, 132, 58, 60, 135, 135, 60, 1, 0.481791
70, 6, wb, filler, NA, 999, 999, 3, 25, 140, 139, 192, 104, 86, 142, 3, 5.64424
70, 6, wb, filler, NA, 999, 999, 3, 25, 140, 139, 192, 104, 86, 142, 1, 0.479945
70, 6, wb, filler, NA, 999, 999, 3, 26, 69, 190, 68, 130, 88, 69, 3, 2.72246
70, 6, wb, filler, NA, 999, 999, 3, 26, 69, 190, 68, 130, 88, 69, 1, 0.595405
70, 6, wb, attraction, a-b-da, 14, 3, 3, 27, 120, 195, 181, 111, 195, 120, 1, 8.24923
70, 6, wb, attraction, a-b-da, 14, 3, 3, 27, 120, 195, 181, 111, 195, 120, 3, 0.499929
70, 6, wb, attraction, a-b-da, 14, 2, 3, 28, 153, 83, 90, 165, 165, 90, 1, 2.30178
70, 6, wb, attraction, a-b-da, 14, 2, 3, 28, 153, 83, 90, 165, 165, 90, 3, 0.85634
70, 6, wb, filler, NA, 999, 999, 3, 29, 189, 92, 159, 139, 80, 94, 3, 0.963321
70, 6, wb, filler, NA, 999, 999, 3, 29, 189, 92, 159, 139, 80, 94, 2, 0.443615
70, 6, wb, attraction, a-b-db, 14, 3, 3, 30, 111, 181, 195, 120, 120, 195, 1, 5.39148
70, 6, wb, attraction, a-b-db, 14, 3, 3, 30, 111, 181, 195, 120, 120, 195, 3, 0.357075
70, 6, wb, attraction, a-b-da, 5, 3, 3, 31, 190, 117, 120, 195, 195, 120, 1, 4.15627
70, 6, wb, attraction, a-b-da, 5, 3, 3, 31, 190, 117, 120, 195, 195, 120, 3, 0.635585
70, 6, wb, filler, NA, 999, 999, 3, 32, 97, 114, 70, 163, 89, 128, 1, 11.248
70, 6, wb, filler, NA, 999, 999, 3, 32, 97, 114, 70, 163, 89, 128, 2, 0.673847
70, 6, wb, attraction, a-b-db, 9, 3, 3, 33, 120, 195, 195, 120, 114, 186, 3, 5.06029
70, 6, wb, attraction, a-b-db, 9, 3, 3, 33, 120, 195, 195, 120, 114, 186, 1, 1.70324
70, 6, wb, attraction, a-b-da, 5, 2, 3, 34, 90, 165, 161, 88, 165, 90, 2, 7.48872
70, 6, wb, attraction, a-b-da, 5, 2, 3, 34, 90, 165, 161, 88, 165, 90, 1, 2.99424
70, 6, wb, catch, NA, 999, 999, 3, 35, 125, 190, 161, 94, 113, 82, 3, 0.743216
70, 6, wb, catch, NA, 999, 999, 3, 35, 125, 190, 161, 94, 113, 82, 1, 0.576334
70, 6, wb, attraction, a-b-da, 2, 1, 3, 36, 134, 59, 60, 135, 135, 60, 3, 2.78277
70, 6, wb, attraction, a-b-da, 2, 1, 3, 36, 134, 59, 60, 135, 135, 60, 1, 0.845888
70, 6, wb, attraction, a-b-da, 9, 3, 3, 37, 195, 120, 186, 114, 120, 195, 3, 2.1056
70, 6, wb, attraction, a-b-da, 9, 3, 3, 37, 195, 120, 186, 114, 120, 195, 1, 1.13166
70, 6, wb, attraction, a-b-db, 5, 2, 4, 1, 165, 90, 88, 161, 90, 165, 1, 2.40378
70, 6, wb, attraction, a-b-db, 5, 2, 4, 1, 165, 90, 88, 161, 90, 165, 2, 0.946367
70, 6, wb, attraction, a-b-db, 14, 3, 4, 2, 195, 120, 111, 181, 120, 195, 1, 2.48203
70, 6, wb, attraction, a-b-db, 14, 3, 4, 2, 195, 120, 111, 181, 120, 195, 2, 1.13317
70, 6, wb, filler, NA, 999, 999, 4, 3, 158, 195, 79, 90, 190, 98, 2, 0.845447
70, 6, wb, filler, NA, 999, 999, 4, 3, 158, 195, 79, 90, 190, 98, 1, 0.394429
70, 6, wb, attraction, a-b-da, 5, 2, 4, 4, 90, 165, 165, 90, 161, 88, 1, 6.81631
70, 6, wb, attraction, a-b-da, 5, 2, 4, 4, 90, 165, 165, 90, 161, 88, 3, 0.388867
70, 6, wb, attraction, a-b-db, 14, 2, 4, 5, 90, 165, 165, 90, 83, 153, 3, 2.45941
70, 6, wb, attraction, a-b-db, 14, 2, 4, 5, 90, 165, 165, 90, 83, 153, 1, 2.1352
70, 6, wb, attraction, a-b-db, 14, 1, 4, 6, 135, 60, 60, 135, 56, 125, 1, 1.3991
70, 6, wb, attraction, a-b-db, 14, 1, 4, 6, 135, 60, 60, 135, 56, 125, 2, 0.406
70, 6, wb, attraction, a-b-da, 14, 3, 4, 7, 120, 195, 181, 111, 195, 120, 2, 4.70721
70, 6, wb, attraction, a-b-da, 14, 3, 4, 7, 120, 195, 181, 111, 195, 120, 1, 1.08433
70, 6, wb, catch, NA, 999, 999, 4, 8, 173, 142, 115, 80, 103, 152, 2, 0.854514
70, 6, wb, catch, NA, 999, 999, 4, 8, 173, 142, 115, 80, 103, 152, 1, 0.514921
70, 6, wb, filler, NA, 999, 999, 4, 9, 182, 89, 192, 150, 195, 98, 1, 1.46802
70, 6, wb, filler, NA, 999, 999, 4, 9, 182, 89, 192, 150, 195, 98, 2, 0.63228
70, 6, wb, attraction, a-b-da, 2, 2, 4, 10, 165, 90, 163, 89, 90, 165, 3, 1.50062
70, 6, wb, attraction, a-b-da, 2, 2, 4, 10, 165, 90, 163, 89, 90, 165, 1, 0.647478
70, 6, wb, filler, NA, 999, 999, 4, 11, 155, 185, 141, 64, 169, 156, 2, 0.787327
70, 6, wb, filler, NA, 999, 999, 4, 11, 155, 185, 141, 64, 169, 156, 1, 2.79427
70, 6, wb, attraction, a-b-db, 9, 3, 4, 12, 120, 195, 114, 186, 195, 120, 3, 4.1914
70, 6, wb, attraction, a-b-db, 9, 3, 4, 12, 120, 195, 114, 186, 195, 120, 1, 0.685519
70, 6, wb, attraction, a-b-da, 9, 3, 4, 13, 120, 195, 186, 114, 195, 120, 2, 4.50373
70, 6, wb, attraction, a-b-da, 9, 3, 4, 13, 120, 195, 186, 114, 195, 120, 1, 1.15363
70, 6, wb, filler, NA, 999, 999, 4, 14, 78, 180, 64, 76, 147, 116, 2, 3.90534
70, 6, wb, filler, NA, 999, 999, 4, 14, 78, 180, 64, 76, 147, 116, 3, 0.642661
70, 6, wb, attraction, a-b-da, 14, 1, 4, 15, 135, 60, 60, 135, 125, 56, 3, 1.67841
70, 6, wb, attraction, a-b-da, 14, 1, 4, 15, 135, 60, 60, 135, 125, 56, 1, 0.737886
70, 6, wb, attraction, a-b-da, 2, 1, 4, 16, 135, 60, 60, 135, 134, 59, 2, 8.60225
70, 6, wb, attraction, a-b-da, 2, 1, 4, 16, 135, 60, 60, 135, 134, 59, 1, 0.710983
70, 6, wb, filler, NA, 999, 999, 4, 17, 173, 68, 58, 116, 86, 84, 2, 7.3039
70, 6, wb, filler, NA, 999, 999, 4, 17, 173, 68, 58, 116, 86, 84, 3, 1.16101
70, 6, wb, filler, NA, 999, 999, 4, 18, 143, 130, 186, 129, 172, 147, 1, 1.15975
70, 6, wb, filler, NA, 999, 999, 4, 18, 143, 130, 186, 129, 172, 147, 3, 0.544052
70, 6, wb, filler, NA, 999, 999, 4, 19, 144, 161, 117, 94, 94, 117, 2, 6.92783
70, 6, wb, filler, NA, 999, 999, 4, 19, 144, 161, 117, 94, 94, 117, 1, 0.439648
70, 6, wb, filler, NA, 999, 999, 4, 20, 192, 144, 82, 111, 105, 192, 2, 2.55573
70, 6, wb, filler, NA, 999, 999, 4, 20, 192, 144, 82, 111, 105, 192, 1, 0.347362
70, 6, wb, filler, NA, 999, 999, 4, 21, 143, 121, 80, 62, 60, 142, 2, 1.02719
70, 6, wb, filler, NA, 999, 999, 4, 21, 143, 121, 80, 62, 60, 142, 1, 0.488823
70, 6, wb, attraction, a-b-da, 2, 3, 4, 22, 120, 195, 195, 120, 193, 119, 2, 4.28322
70, 6, wb, attraction, a-b-da, 2, 3, 4, 22, 120, 195, 195, 120, 193, 119, 1, 0.413867
70, 6, wb, attraction, a-b-da, 9, 2, 4, 23, 157, 86, 165, 90, 90, 165, 1, 3.28301
70, 6, wb, attraction, a-b-da, 9, 2, 4, 23, 157, 86, 165, 90, 90, 165, 3, 0.534109
70, 6, wb, attraction, a-b-db, 9, 1, 4, 24, 135, 60, 60, 135, 57, 129, 3, 2.91041
70, 6, wb, attraction, a-b-db, 9, 1, 4, 24, 135, 60, 60, 135, 57, 129, 1, 0.704089
70, 6, wb, attraction, a-b-da, 9, 1, 4, 25, 135, 60, 129, 57, 60, 135, 3, 4.32995
70, 6, wb, attraction, a-b-da, 9, 1, 4, 25, 135, 60, 129, 57, 60, 135, 1, 0.802612
70, 6, wb, attraction, a-b-da, 14, 2, 4, 26, 153, 83, 90, 165, 165, 90, 1, 1.20018
70, 6, wb, attraction, a-b-da, 14, 2, 4, 26, 153, 83, 90, 165, 165, 90, 3, 1.08709
70, 6, wb, attraction, a-b-db, 2, 3, 4, 27, 195, 120, 120, 195, 119, 193, 3, 2.41745
70, 6, wb, attraction, a-b-db, 2, 3, 4, 27, 195, 120, 120, 195, 119, 193, 1, 0.727292
70, 6, wb, attraction, a-b-db, 2, 2, 4, 28, 165, 90, 90, 165, 89, 163, 2, 4.37564
70, 6, wb, attraction, a-b-db, 2, 2, 4, 28, 165, 90, 90, 165, 89, 163, 1, 0.630265
70, 6, wb, catch, NA, 999, 999, 4, 29, 190, 125, 135, 120, 91, 104, 3, 0.586694
70, 6, wb, catch, NA, 999, 999, 4, 29, 190, 125, 135, 120, 91, 104, 1, 0.721775
70, 6, wb, catch, NA, 999, 999, 4, 30, 172, 143, 91, 164, 127, 68, 3, 0.746864
70, 6, wb, catch, NA, 999, 999, 4, 30, 172, 143, 91, 164, 127, 68, 1, 0.339884
70, 6, wb, attraction, a-b-da, 5, 3, 4, 31, 120, 195, 190, 117, 195, 120, 1, 1.65971
70, 6, wb, attraction, a-b-da, 5, 3, 4, 31, 120, 195, 190, 117, 195, 120, 2, 0.703831
70, 6, wb, filler, NA, 999, 999, 4, 32, 129, 162, 159, 163, 64, 96, 3, 0.78557
70, 6, wb, filler, NA, 999, 999, 4, 32, 129, 162, 159, 163, 64, 96, 2, 0.313296
70, 6, wb, attraction, a-b-db, 5, 1, 4, 33, 60, 135, 58, 132, 135, 60, 2, 2.73848
70, 6, wb, attraction, a-b-db, 5, 1, 4, 33, 60, 135, 58, 132, 135, 60, 1, 2.635
70, 6, wb, attraction, a-b-da, 5, 1, 4, 34, 60, 135, 132, 58, 135, 60, 3, 2.94276
70, 6, wb, attraction, a-b-da, 5, 1, 4, 34, 60, 135, 132, 58, 135, 60, 2, 0.879121
70, 6, wb, attraction, a-b-db, 9, 2, 4, 35, 90, 165, 165, 90, 86, 157, 2, 2.71345
70, 6, wb, attraction, a-b-db, 9, 2, 4, 35, 90, 165, 165, 90, 86, 157, 1, 0.403221
70, 6, wb, attraction, a-b-db, 2, 1, 4, 36, 60, 135, 59, 134, 135, 60, 3, 2.03313
70, 6, wb, attraction, a-b-db, 2, 1, 4, 36, 60, 135, 59, 134, 135, 60, 1, 0.510349
70, 6, wb, attraction, a-b-db, 5, 3, 4, 37, 120, 195, 117, 190, 195, 120, 3, 2.00747
70, 6, wb, attraction, a-b-db, 5, 3, 4, 37, 120, 195, 117, 190, 195, 120, 1, 0.437502
70, 6, wb, catch, NA, 999, 999, 5, 1, 133, 62, 148, 107, 161, 154, 1, 5.52795
70, 6, wb, catch, NA, 999, 999, 5, 1, 133, 62, 148, 107, 161, 154, 3, 0.808175
70, 6, wb, filler, NA, 999, 999, 5, 2, 124, 102, 146, 110, 82, 75, 3, 1.26115
70, 6, wb, filler, NA, 999, 999, 5, 2, 124, 102, 146, 110, 82, 75, 2, 0.537412
70, 6, wb, attraction, a-b-da, 2, 3, 5, 3, 195, 120, 120, 195, 193, 119, 3, 5.19389
70, 6, wb, attraction, a-b-da, 2, 3, 5, 3, 195, 120, 120, 195, 193, 119, 2, 0.495531
70, 6, wb, attraction, a-b-da, 2, 2, 5, 4, 163, 89, 90, 165, 165, 90, 1, 3.53737
70, 6, wb, attraction, a-b-da, 2, 2, 5, 4, 163, 89, 90, 165, 165, 90, 3, 0.466215
70, 6, wb, catch, NA, 999, 999, 5, 5, 136, 179, 105, 150, 69, 126, 3, 0.781373
70, 6, wb, catch, NA, 999, 999, 5, 5, 136, 179, 105, 150, 69, 126, 1, 0.389195
70, 6, wb, attraction, a-b-db, 5, 2, 5, 6, 88, 161, 165, 90, 90, 165, 2, 4.61167
70, 6, wb, attraction, a-b-db, 5, 2, 5, 6, 88, 161, 165, 90, 90, 165, 3, 0.40084
70, 6, wb, attraction, a-b-da, 14, 3, 5, 7, 195, 120, 120, 195, 181, 111, 3, 0.8786
70, 6, wb, attraction, a-b-da, 14, 3, 5, 7, 195, 120, 120, 195, 181, 111, 1, 0.442221
70, 6, wb, filler, NA, 999, 999, 5, 8, 186, 60, 145, 90, 150, 131, 1, 2.03806
70, 6, wb, filler, NA, 999, 999, 5, 8, 186, 60, 145, 90, 150, 131, 3, 0.354727
70, 6, wb, attraction, a-b-db, 14, 2, 5, 9, 83, 153, 165, 90, 90, 165, 1, 1.78659
70, 6, wb, attraction, a-b-db, 14, 2, 5, 9, 83, 153, 165, 90, 90, 165, 3, 0.441996
70, 6, wb, attraction, a-b-da, 9, 1, 5, 10, 135, 60, 60, 135, 129, 57, 3, 4.8539
70, 6, wb, attraction, a-b-da, 9, 1, 5, 10, 135, 60, 60, 135, 129, 57, 1, 0.705673
70, 6, wb, attraction, a-b-db, 9, 2, 5, 11, 90, 165, 165, 90, 86, 157, 3, 3.14741
70, 6, wb, attraction, a-b-db, 9, 2, 5, 11, 90, 165, 165, 90, 86, 157, 1, 0.459671
70, 6, wb, filler, NA, 999, 999, 5, 12, 93, 61, 129, 109, 83, 194, 1, 1.12681
70, 6, wb, filler, NA, 999, 999, 5, 12, 93, 61, 129, 109, 83, 194, 2, 0.448454
70, 6, wb, attraction, a-b-db, 5, 1, 5, 13, 135, 60, 58, 132, 60, 135, 2, 4.04425
70, 6, wb, attraction, a-b-db, 5, 1, 5, 13, 135, 60, 58, 132, 60, 135, 1, 0.560328
70, 6, wb, attraction, a-b-db, 2, 3, 5, 14, 195, 120, 120, 195, 119, 193, 3, 0.855314
70, 6, wb, attraction, a-b-db, 2, 3, 5, 14, 195, 120, 120, 195, 119, 193, 1, 0.45171
70, 6, wb, attraction, a-b-db, 9, 3, 5, 15, 120, 195, 195, 120, 114, 186, 2, 3.88747
70, 6, wb, attraction, a-b-db, 9, 3, 5, 15, 120, 195, 195, 120, 114, 186, 1, 0.666292
70, 6, wb, attraction, a-b-db, 14, 3, 5, 16, 120, 195, 195, 120, 111, 181, 3, 4.03744
70, 6, wb, attraction, a-b-db, 14, 3, 5, 16, 120, 195, 195, 120, 111, 181, 1, 0.898103
70, 6, wb, filler, NA, 999, 999, 5, 17, 98, 173, 59, 166, 76, 138, 2, 1.28374
70, 6, wb, filler, NA, 999, 999, 5, 17, 98, 173, 59, 166, 76, 138, 1, 0.69531
70, 6, wb, attraction, a-b-da, 9, 3, 5, 18, 186, 114, 195, 120, 120, 195, 1, 6.19305
70, 6, wb, attraction, a-b-da, 9, 3, 5, 18, 186, 114, 195, 120, 120, 195, 3, 0.438349
70, 6, wb, catch, NA, 999, 999, 5, 19, 116, 139, 166, 149, 128, 67, 3, 1.37085
70, 6, wb, catch, NA, 999, 999, 5, 19, 116, 139, 166, 149, 128, 67, 2, 0.434355
70, 6, wb, filler, NA, 999, 999, 5, 20, 56, 73, 191, 141, 70, 126, 1, 1.14298
70, 6, wb, filler, NA, 999, 999, 5, 20, 56, 73, 191, 141, 70, 126, 2, 0.431854
70, 6, wb, attraction, a-b-db, 5, 3, 5, 21, 117, 190, 195, 120, 120, 195, 2, 6.67639
70, 6, wb, attraction, a-b-db, 5, 3, 5, 21, 117, 190, 195, 120, 120, 195, 3, 0.406202
70, 6, wb, attraction, a-b-da, 9, 2, 5, 22, 165, 90, 90, 165, 157, 86, 3, 1.80329
70, 6, wb, attraction, a-b-da, 9, 2, 5, 22, 165, 90, 90, 165, 157, 86, 2, 0.386132
70, 6, wb, filler, NA, 999, 999, 5, 23, 174, 124, 115, 124, 113, 151, 2, 1.6086
70, 6, wb, filler, NA, 999, 999, 5, 23, 174, 124, 115, 124, 113, 151, 1, 0.470684
70, 6, wb, attraction, a-b-da, 14, 2, 5, 24, 90, 165, 153, 83, 165, 90, 2, 10.9378
70, 6, wb, attraction, a-b-da, 14, 2, 5, 24, 90, 165, 153, 83, 165, 90, 1, 0.736413
70, 6, wb, attraction, a-b-db, 2, 1, 5, 25, 135, 60, 60, 135, 59, 134, 1, 1.72876
70, 6, wb, attraction, a-b-db, 2, 1, 5, 25, 135, 60, 60, 135, 59, 134, 3, 1.94625
70, 6, wb, attraction, a-b-da, 5, 1, 5, 26, 135, 60, 60, 135, 132, 58, 3, 1.55357
70, 6, wb, attraction, a-b-da, 5, 1, 5, 26, 135, 60, 60, 135, 132, 58, 1, 1.88965
70, 6, wb, attraction, a-b-db, 14, 1, 5, 27, 56, 125, 60, 135, 135, 60, 3, 2.459
70, 6, wb, attraction, a-b-db, 14, 1, 5, 27, 56, 125, 60, 135, 135, 60, 2, 0.678901
70, 6, wb, filler, NA, 999, 999, 5, 28, 70, 195, 62, 160, 66, 192, 2, 2.73732
70, 6, wb, filler, NA, 999, 999, 5, 28, 70, 195, 62, 160, 66, 192, 1, 0.449808
70, 6, wb, attraction, a-b-da, 5, 3, 5, 29, 190, 117, 195, 120, 120, 195, 2, 2.86961
70, 6, wb, attraction, a-b-da, 5, 3, 5, 29, 190, 117, 195, 120, 120, 195, 3, 0.489323
70, 6, wb, attraction, a-b-da, 5, 2, 5, 30, 90, 165, 165, 90, 161, 88, 2, 3.62001
70, 6, wb, attraction, a-b-da, 5, 2, 5, 30, 90, 165, 165, 90, 161, 88, 1, 0.449282
70, 6, wb, attraction, a-b-da, 14, 1, 5, 31, 125, 56, 135, 60, 60, 135, 1, 8.54918
70, 6, wb, attraction, a-b-da, 14, 1, 5, 31, 125, 56, 135, 60, 60, 135, 2, 0.643652
70, 6, wb, attraction, a-b-db, 2, 2, 5, 32, 165, 90, 89, 163, 90, 165, 2, 9.22358
70, 6, wb, attraction, a-b-db, 2, 2, 5, 32, 165, 90, 89, 163, 90, 165, 1, 0.523219
70, 6, wb, filler, NA, 999, 999, 5, 33, 61, 97, 153, 64, 103, 96, 1, 2.01965
70, 6, wb, filler, NA, 999, 999, 5, 33, 61, 97, 153, 64, 103, 96, 3, 0.561647
70, 6, wb, attraction, a-b-db, 9, 1, 5, 34, 60, 135, 57, 129, 135, 60, 2, 2.06472
70, 6, wb, attraction, a-b-db, 9, 1, 5, 34, 60, 135, 57, 129, 135, 60, 3, 0.652697
70, 6, wb, filler, NA, 999, 999, 5, 35, 122, 68, 100, 135, 157, 111, 1, 1.17653
70, 6, wb, filler, NA, 999, 999, 5, 35, 122, 68, 100, 135, 157, 111, 3, 0.504257
70, 6, wb, filler, NA, 999, 999, 5, 36, 77, 157, 83, 162, 147, 134, 1, 1.54589
70, 6, wb, filler, NA, 999, 999, 5, 36, 77, 157, 83, 162, 147, 134, 3, 0.546741
70, 6, wb, attraction, a-b-da, 2, 1, 5, 37, 134, 59, 135, 60, 60, 135, 3, 2.3625
70, 6, wb, attraction, a-b-da, 2, 1, 5, 37, 134, 59, 135, 60, 60, 135, 1, 0.978502
70, 6, wb, filler, NA, 999, 999, 6, 1, 171, 188, 72, 69, 148, 82, 2, 0.864618
70, 6, wb, filler, NA, 999, 999, 6, 1, 171, 188, 72, 69, 148, 82, 1, 0.340965
70, 6, wb, attraction, a-b-db, 2, 1, 6, 2, 135, 60, 60, 135, 59, 134, 3, 5.21303
70, 6, wb, attraction, a-b-db, 2, 1, 6, 2, 135, 60, 60, 135, 59, 134, 2, 0.433806
70, 6, wb, attraction, a-b-db, 14, 2, 6, 3, 165, 90, 90, 165, 83, 153, 3, 3.0225
70, 6, wb, attraction, a-b-db, 14, 2, 6, 3, 165, 90, 90, 165, 83, 153, 2, 4.83547
70, 6, wb, attraction, a-b-da, 2, 3, 6, 4, 193, 119, 195, 120, 120, 195, 2, 11.7427
70, 6, wb, attraction, a-b-da, 2, 3, 6, 4, 193, 119, 195, 120, 120, 195, 1, 0.620073
70, 6, wb, attraction, a-b-db, 2, 2, 6, 5, 165, 90, 90, 165, 89, 163, 2, 4.36125
70, 6, wb, attraction, a-b-db, 2, 2, 6, 5, 165, 90, 90, 165, 89, 163, 1, 0.568655
70, 6, wb, filler, NA, 999, 999, 6, 6, 171, 130, 141, 191, 65, 192, 3, 1.39965
70, 6, wb, filler, NA, 999, 999, 6, 6, 171, 130, 141, 191, 65, 192, 2, 0.726453
70, 6, wb, attraction, a-b-da, 5, 1, 6, 7, 135, 60, 60, 135, 132, 58, 2, 5.34294
70, 6, wb, attraction, a-b-da, 5, 1, 6, 7, 135, 60, 60, 135, 132, 58, 1, 0.870445
70, 6, wb, attraction, a-b-da, 14, 1, 6, 8, 60, 135, 135, 60, 125, 56, 1, 6.39358
70, 6, wb, attraction, a-b-da, 14, 1, 6, 8, 60, 135, 135, 60, 125, 56, 2, 0.454763
70, 6, wb, attraction, a-b-db, 5, 2, 6, 9, 165, 90, 88, 161, 90, 165, 2, 3.21864
70, 6, wb, attraction, a-b-db, 5, 2, 6, 9, 165, 90, 88, 161, 90, 165, 1, 0.728267
70, 6, wb, filler, NA, 999, 999, 6, 10, 159, 191, 159, 189, 133, 188, 3, 1.2806
70, 6, wb, filler, NA, 999, 999, 6, 10, 159, 191, 159, 189, 133, 188, 1, 0.612182
70, 6, wb, catch, NA, 999, 999, 6, 11, 165, 150, 131, 64, 134, 121, 2, 3.42534
70, 6, wb, catch, NA, 999, 999, 6, 11, 165, 150, 131, 64, 134, 121, 1, 0.470237
70, 6, wb, attraction, a-b-da, 5, 3, 6, 12, 120, 195, 190, 117, 195, 120, 2, 6.28127
70, 6, wb, attraction, a-b-da, 5, 3, 6, 12, 120, 195, 190, 117, 195, 120, 1, 1.69134
70, 6, wb, attraction, a-b-db, 9, 3, 6, 13, 114, 186, 195, 120, 120, 195, 1, 7.39675
70, 6, wb, attraction, a-b-db, 9, 3, 6, 13, 114, 186, 195, 120, 120, 195, 3, 0.769797
70, 6, wb, attraction, a-b-da, 9, 2, 6, 14, 165, 90, 90, 165, 157, 86, 3, 1.27277
70, 6, wb, attraction, a-b-da, 9, 2, 6, 14, 165, 90, 90, 165, 157, 86, 1, 6.01236
70, 6, wb, attraction, a-b-da, 9, 1, 6, 15, 60, 135, 129, 57, 135, 60, 3, 9.23975
70, 6, wb, attraction, a-b-da, 9, 1, 6, 15, 60, 135, 129, 57, 135, 60, 1, 4.88283
70, 6, wb, attraction, a-b-db, 5, 3, 6, 16, 195, 120, 117, 190, 120, 195, 2, 3.03593
70, 6, wb, attraction, a-b-db, 5, 3, 6, 16, 195, 120, 117, 190, 120, 195, 1, 0.616904
70, 6, wb, attraction, a-b-db, 14, 1, 6, 17, 56, 125, 135, 60, 60, 135, 1, 2.55798
70, 6, wb, attraction, a-b-db, 14, 1, 6, 17, 56, 125, 135, 60, 60, 135, 3, 0.845984
70, 6, wb, attraction, a-b-da, 14, 2, 6, 18, 90, 165, 153, 83, 165, 90, 1, 2.26547
70, 6, wb, attraction, a-b-da, 14, 2, 6, 18, 90, 165, 153, 83, 165, 90, 3, 0.4854
70, 6, wb, filler, NA, 999, 999, 6, 19, 90, 185, 162, 175, 165, 141, 1, 1.29594
70, 6, wb, filler, NA, 999, 999, 6, 19, 90, 185, 162, 175, 165, 141, 2, 0.362806
70, 6, wb, filler, NA, 999, 999, 6, 20, 59, 142, 136, 114, 84, 85, 3, 1.00996
70, 6, wb, filler, NA, 999, 999, 6, 20, 59, 142, 136, 114, 84, 85, 2, 0.632312
70, 6, wb, catch, NA, 999, 999, 6, 21, 122, 193, 134, 61, 134, 121, 2, 3.14071
70, 6, wb, catch, NA, 999, 999, 6, 21, 122, 193, 134, 61, 134, 121, 1, 0.381138
70, 6, wb, attraction, a-b-db, 2, 3, 6, 22, 120, 195, 119, 193, 195, 120, 3, 3.26748
70, 6, wb, attraction, a-b-db, 2, 3, 6, 22, 120, 195, 119, 193, 195, 120, 1, 0.591242
70, 6, wb, attraction, a-b-da, 2, 1, 6, 23, 60, 135, 134, 59, 135, 60, 3, 4.46901
70, 6, wb, attraction, a-b-da, 2, 1, 6, 23, 60, 135, 134, 59, 135, 60, 2, 6.55217
70, 6, wb, filler, NA, 999, 999, 6, 24, 140, 68, 86, 163, 184, 185, 1, 1.70212
70, 6, wb, filler, NA, 999, 999, 6, 24, 140, 68, 86, 163, 184, 185, 3, 0.640941
70, 6, wb, attraction, a-b-da, 14, 3, 6, 25, 195, 120, 120, 195, 181, 111, 3, 4.77258
70, 6, wb, attraction, a-b-da, 14, 3, 6, 25, 195, 120, 120, 195, 181, 111, 1, 0.595018
70, 6, wb, filler, NA, 999, 999, 6, 26, 156, 107, 138, 69, 115, 85, 3, 1.45673
70, 6, wb, filler, NA, 999, 999, 6, 26, 156, 107, 138, 69, 115, 85, 1, 0.764967
70, 6, wb, catch, NA, 999, 999, 6, 27, 173, 142, 107, 88, 116, 139, 2, 3.29198
70, 6, wb, catch, NA, 999, 999, 6, 27, 173, 142, 107, 88, 116, 139, 1, 0.758237
70, 6, wb, attraction, a-b-db, 14, 3, 6, 28, 195, 120, 120, 195, 111, 181, 3, 5.33334
70, 6, wb, attraction, a-b-db, 14, 3, 6, 28, 195, 120, 120, 195, 111, 181, 1, 0.637736
70, 6, wb, attraction, a-b-da, 9, 3, 6, 29, 186, 114, 195, 120, 120, 195, 1, 3.91412
70, 6, wb, attraction, a-b-da, 9, 3, 6, 29, 186, 114, 195, 120, 120, 195, 3, 0.515614
70, 6, wb, filler, NA, 999, 999, 6, 30, 153, 100, 195, 73, 120, 192, 2, 3.62858
70, 6, wb, filler, NA, 999, 999, 6, 30, 153, 100, 195, 73, 120, 192, 3, 0.921491
70, 6, wb, attraction, a-b-db, 5, 1, 6, 31, 60, 135, 135, 60, 58, 132, 3, 8.23454
70, 6, wb, attraction, a-b-db, 5, 1, 6, 31, 60, 135, 135, 60, 58, 132, 2, 0.701919
70, 6, wb, attraction, a-b-db, 9, 2, 6, 32, 86, 157, 90, 165, 165, 90, 1, 2.78347
70, 6, wb, attraction, a-b-db, 9, 2, 6, 32, 86, 157, 90, 165, 165, 90, 3, 0.535382
70, 6, wb, attraction, a-b-da, 2, 2, 6, 33, 163, 89, 90, 165, 165, 90, 2, 2.75106
70, 6, wb, attraction, a-b-da, 2, 2, 6, 33, 163, 89, 90, 165, 165, 90, 3, 0.679493
70, 6, wb, filler, NA, 999, 999, 6, 34, 71, 94, 131, 100, 167, 58, 1, 5.04188
70, 6, wb, filler, NA, 999, 999, 6, 34, 71, 94, 131, 100, 167, 58, 2, 0.517605
70, 6, wb, attraction, a-b-db, 9, 1, 6, 35, 60, 135, 135, 60, 57, 129, 3, 5.51087
70, 6, wb, attraction, a-b-db, 9, 1, 6, 35, 60, 135, 135, 60, 57, 129, 2, 0.583609
70, 6, wb, attraction, a-b-da, 5, 2, 6, 36, 165, 90, 161, 88, 90, 165, 2, 6.70204
70, 6, wb, attraction, a-b-da, 5, 2, 6, 36, 165, 90, 161, 88, 90, 165, 3, 0.863303
70, 6, wb, filler, NA, 999, 999, 6, 37, 74, 115, 172, 126, 125, 82, 1, 1.0024
70, 6, wb, filler, NA, 999, 999, 6, 37, 74, 115, 172, 126, 125, 82, 2, 0.313269
70, 6, wb, filler, NA, 999, 999, 7, 1, 67, 61, 163, 97, 137, 153, 1, 0.978425
70, 6, wb, filler, NA, 999, 999, 7, 1, 67, 61, 163, 97, 137, 153, 3, 0.338124
70, 6, wb, attraction, a-b-db, 14, 1, 7, 2, 135, 60, 60, 135, 56, 125, 3, 4.17873
70, 6, wb, attraction, a-b-db, 14, 1, 7, 2, 135, 60, 60, 135, 56, 125, 1, 0.377304
70, 6, wb, filler, NA, 999, 999, 7, 3, 124, 102, 64, 185, 58, 189, 1, 7.23185
70, 6, wb, filler, NA, 999, 999, 7, 3, 124, 102, 64, 185, 58, 189, 2, 0.595536
70, 6, wb, attraction, a-b-da, 9, 2, 7, 4, 157, 86, 165, 90, 90, 165, 1, 8.04132
70, 6, wb, attraction, a-b-da, 9, 2, 7, 4, 157, 86, 165, 90, 90, 165, 2, 0.876101
70, 6, wb, attraction, a-b-da, 14, 2, 7, 5, 153, 83, 165, 90, 90, 165, 1, 6.11039
70, 6, wb, attraction, a-b-da, 14, 2, 7, 5, 153, 83, 165, 90, 90, 165, 3, 0.487098
70, 6, wb, catch, NA, 999, 999, 7, 6, 70, 125, 190, 125, 125, 130, 1, 1.31371
70, 6, wb, catch, NA, 999, 999, 7, 6, 70, 125, 190, 125, 125, 130, 2, 0.427859
70, 6, wb, attraction, a-b-db, 5, 1, 7, 7, 135, 60, 58, 132, 60, 135, 2, 5.64025
70, 6, wb, attraction, a-b-db, 5, 1, 7, 7, 135, 60, 58, 132, 60, 135, 1, 0.619861
70, 6, wb, filler, NA, 999, 999, 7, 8, 83, 127, 115, 68, 170, 190, 2, 1.21698
70, 6, wb, filler, NA, 999, 999, 7, 8, 83, 127, 115, 68, 170, 190, 3, 0.439154
70, 6, wb, filler, NA, 999, 999, 7, 9, 169, 129, 105, 108, 172, 117, 2, 1.3157
70, 6, wb, filler, NA, 999, 999, 7, 9, 169, 129, 105, 108, 172, 117, 1, 0.36596
70, 6, wb, catch, NA, 999, 999, 7, 10, 106, 149, 66, 129, 155, 160, 2, 3.33313
70, 6, wb, catch, NA, 999, 999, 7, 10, 106, 149, 66, 129, 155, 160, 3, 0.461966
70, 6, wb, attraction, a-b-da, 14, 1, 7, 11, 60, 135, 135, 60, 125, 56, 1, 3.60919
70, 6, wb, attraction, a-b-da, 14, 1, 7, 11, 60, 135, 135, 60, 125, 56, 2, 0.414652
70, 6, wb, attraction, a-b-da, 5, 3, 7, 12, 120, 195, 190, 117, 195, 120, 2, 4.90778
70, 6, wb, attraction, a-b-da, 5, 3, 7, 12, 120, 195, 190, 117, 195, 120, 1, 0.356891
70, 6, wb, attraction, a-b-db, 2, 3, 7, 13, 195, 120, 119, 193, 120, 195, 1, 3.42014
70, 6, wb, attraction, a-b-db, 2, 3, 7, 13, 195, 120, 119, 193, 120, 195, 2, 0.353644
70, 6, wb, attraction, a-b-da, 5, 1, 7, 14, 132, 58, 135, 60, 60, 135, 3, 7.40149
70, 6, wb, attraction, a-b-da, 5, 1, 7, 14, 132, 58, 135, 60, 60, 135, 1, 0.622424
70, 6, wb, attraction, a-b-da, 9, 3, 7, 15, 186, 114, 120, 195, 195, 120, 1, 3.88352
70, 6, wb, attraction, a-b-da, 9, 3, 7, 15, 186, 114, 120, 195, 195, 120, 3, 1.48632
70, 6, wb, attraction, a-b-da, 2, 2, 7, 16, 165, 90, 90, 165, 163, 89, 3, 7.0325
70, 6, wb, attraction, a-b-da, 2, 2, 7, 16, 165, 90, 90, 165, 163, 89, 2, 0.428167
70, 6, wb, attraction, a-b-db, 9, 3, 7, 17, 114, 186, 195, 120, 120, 195, 1, 2.47261
70, 6, wb, attraction, a-b-db, 9, 3, 7, 17, 114, 186, 195, 120, 120, 195, 3, 0.420025
70, 6, wb, attraction, a-b-db, 2, 1, 7, 18, 135, 60, 60, 135, 59, 134, 2, 2.68914
70, 6, wb, attraction, a-b-db, 2, 1, 7, 18, 135, 60, 60, 135, 59, 134, 1, 0.403485
70, 6, wb, attraction, a-b-db, 5, 2, 7, 19, 90, 165, 88, 161, 165, 90, 2, 6.86535
70, 6, wb, attraction, a-b-db, 5, 2, 7, 19, 90, 165, 88, 161, 165, 90, 3, 0.499832
70, 6, wb, catch, NA, 999, 999, 7, 20, 98, 157, 123, 72, 144, 171, 2, 0.869565
70, 6, wb, catch, NA, 999, 999, 7, 20, 98, 157, 123, 72, 144, 171, 3, 0.441972
70, 6, wb, attraction, a-b-da, 5, 2, 7, 21, 90, 165, 165, 90, 161, 88, 1, 15.6537
70, 6, wb, attraction, a-b-da, 5, 2, 7, 21, 90, 165, 165, 90, 161, 88, 2, 0.42209
70, 6, wb, attraction, a-b-db, 14, 3, 7, 22, 120, 195, 195, 120, 111, 181, 3, 3.28334
70, 6, wb, attraction, a-b-db, 14, 3, 7, 22, 120, 195, 195, 120, 111, 181, 1, 0.702291
70, 6, wb, attraction, a-b-db, 5, 3, 7, 23, 120, 195, 195, 120, 117, 190, 3, 6.44806
70, 6, wb, attraction, a-b-db, 5, 3, 7, 23, 120, 195, 195, 120, 117, 190, 2, 0.811282
70, 6, wb, filler, NA, 999, 999, 7, 24, 89, 144, 75, 132, 181, 69, 2, 4.82442
70, 6, wb, filler, NA, 999, 999, 7, 24, 89, 144, 75, 132, 181, 69, 1, 0.596733
70, 6, wb, attraction, a-b-db, 2, 2, 7, 25, 89, 163, 165, 90, 90, 165, 1, 2.37058
70, 6, wb, attraction, a-b-db, 2, 2, 7, 25, 89, 163, 165, 90, 90, 165, 2, 4.22587
70, 6, wb, attraction, a-b-db, 14, 2, 7, 26, 90, 165, 165, 90, 83, 153, 3, 2.47716
70, 6, wb, attraction, a-b-db, 14, 2, 7, 26, 90, 165, 165, 90, 83, 153, 1, 3.70443
70, 6, wb, attraction, a-b-db, 9, 1, 7, 27, 60, 135, 57, 129, 135, 60, 2, 4.92118
70, 6, wb, attraction, a-b-db, 9, 1, 7, 27, 60, 135, 57, 129, 135, 60, 3, 1.43412
70, 6, wb, filler, NA, 999, 999, 7, 28, 128, 191, 110, 143, 58, 179, 3, 1.03036
70, 6, wb, filler, NA, 999, 999, 7, 28, 128, 191, 110, 143, 58, 179, 1, 0.476008
70, 6, wb, filler, NA, 999, 999, 7, 29, 138, 100, 167, 166, 111, 109, 3, 1.11839
70, 6, wb, filler, NA, 999, 999, 7, 29, 138, 100, 167, 166, 111, 109, 2, 0.776658
70, 6, wb, filler, NA, 999, 999, 7, 30, 127, 112, 167, 187, 76, 176, 3, 6.04708
70, 6, wb, filler, NA, 999, 999, 7, 30, 127, 112, 167, 187, 76, 176, 2, 0.562474
70, 6, wb, attraction, a-b-db, 9, 2, 7, 31, 86, 157, 90, 165, 165, 90, 3, 7.77757
70, 6, wb, attraction, a-b-db, 9, 2, 7, 31, 86, 157, 90, 165, 165, 90, 1, 0.51105
70, 6, wb, filler, NA, 999, 999, 7, 32, 188, 61, 75, 158, 141, 89, 3, 17.3523
70, 6, wb, filler, NA, 999, 999, 7, 32, 188, 61, 75, 158, 141, 89, 1, 0.564296
70, 6, wb, attraction, a-b-da, 2, 1, 7, 33, 134, 59, 135, 60, 60, 135, 3, 7.89115
70, 6, wb, attraction, a-b-da, 2, 1, 7, 33, 134, 59, 135, 60, 60, 135, 1, 0.356094
70, 6, wb, attraction, a-b-da, 14, 3, 7, 34, 181, 111, 195, 120, 120, 195, 1, 5.30725
70, 6, wb, attraction, a-b-da, 14, 3, 7, 34, 181, 111, 195, 120, 120, 195, 3, 1.10837
70, 6, wb, filler, NA, 999, 999, 7, 35, 154, 94, 117, 59, 119, 155, 2, 1.1891
70, 6, wb, filler, NA, 999, 999, 7, 35, 154, 94, 117, 59, 119, 155, 3, 1.11604
70, 6, wb, attraction, a-b-da, 2, 3, 7, 36, 120, 195, 193, 119, 195, 120, 1, 5.73306
70, 6, wb, attraction, a-b-da, 2, 3, 7, 36, 120, 195, 193, 119, 195, 120, 2, 0.701281
70, 6, wb, attraction, a-b-da, 9, 1, 7, 37, 60, 135, 135, 60, 129, 57, 2, 6.70295
70, 6, wb, attraction, a-b-da, 9, 1, 7, 37, 60, 135, 135, 60, 129, 57, 1, 0.560115
70, 6, wb, filler, NA, 999, 999, 8, 1, 123, 103, 150, 169, 94, 75, 3, 0.9352
70, 6, wb, filler, NA, 999, 999, 8, 1, 123, 103, 150, 169, 94, 75, 2, 0.432844
70, 6, wb, catch, NA, 999, 999, 8, 2, 132, 123, 108, 87, 132, 183, 2, 0.845253
70, 6, wb, catch, NA, 999, 999, 8, 2, 132, 123, 108, 87, 132, 183, 3, 0.81038
70, 6, wb, filler, NA, 999, 999, 8, 3, 173, 182, 57, 124, 129, 193, 2, 0.935455
70, 6, wb, filler, NA, 999, 999, 8, 3, 173, 182, 57, 124, 129, 193, 1, 0.513219
70, 6, wb, attraction, a-b-da, 5, 2, 8, 4, 161, 88, 165, 90, 90, 165, 3, 10.2582
70, 6, wb, attraction, a-b-da, 5, 2, 8, 4, 161, 88, 165, 90, 90, 165, 1, 0.763724
70, 6, wb, attraction, a-b-da, 2, 1, 8, 5, 134, 59, 60, 135, 135, 60, 2, 9.21075
70, 6, wb, attraction, a-b-da, 2, 1, 8, 5, 134, 59, 60, 135, 135, 60, 3, 0.854466
70, 6, wb, filler, NA, 999, 999, 8, 6, 78, 72, 88, 93, 60, 86, 3, 5.62617
70, 6, wb, filler, NA, 999, 999, 8, 6, 78, 72, 88, 93, 60, 86, 2, 0.67835
70, 6, wb, attraction, a-b-db, 5, 1, 8, 7, 60, 135, 58, 132, 135, 60, 2, 8.07268
70, 6, wb, attraction, a-b-db, 5, 1, 8, 7, 60, 135, 58, 132, 135, 60, 3, 0.562815
70, 6, wb, attraction, a-b-db, 2, 2, 8, 8, 90, 165, 165, 90, 89, 163, 1, 1.68184
70, 6, wb, attraction, a-b-db, 2, 2, 8, 8, 90, 165, 165, 90, 89, 163, 2, 0.645481
70, 6, wb, filler, NA, 999, 999, 8, 9, 128, 164, 191, 124, 85, 98, 3, 0.977069
70, 6, wb, filler, NA, 999, 999, 8, 9, 128, 164, 191, 124, 85, 98, 1, 0.392959
70, 6, wb, attraction, a-b-db, 2, 3, 8, 10, 195, 120, 120, 195, 119, 193, 2, 4.71876
70, 6, wb, attraction, a-b-db, 2, 3, 8, 10, 195, 120, 120, 195, 119, 193, 3, 1.96784
70, 6, wb, attraction, a-b-db, 9, 2, 8, 11, 86, 157, 165, 90, 90, 165, 1, 1.25453
70, 6, wb, attraction, a-b-db, 9, 2, 8, 11, 86, 157, 165, 90, 90, 165, 3, 0.954784
70, 6, wb, attraction, a-b-db, 14, 2, 8, 12, 165, 90, 90, 165, 83, 153, 3, 4.29835
70, 6, wb, attraction, a-b-db, 14, 2, 8, 12, 165, 90, 90, 165, 83, 153, 1, 0.516314
70, 6, wb, filler, NA, 999, 999, 8, 13, 94, 115, 186, 122, 85, 110, 3, 1.87754
70, 6, wb, filler, NA, 999, 999, 8, 13, 94, 115, 186, 122, 85, 110, 2, 0.616758
70, 6, wb, attraction, a-b-db, 14, 1, 8, 14, 56, 125, 135, 60, 60, 135, 1, 1.6458
70, 6, wb, attraction, a-b-db, 14, 1, 8, 14, 56, 125, 135, 60, 60, 135, 3, 0.586658
70, 6, wb, attraction, a-b-da, 14, 1, 8, 15, 135, 60, 125, 56, 60, 135, 2, 5.26508
70, 6, wb, attraction, a-b-da, 14, 1, 8, 15, 135, 60, 125, 56, 60, 135, 1, 0.436059
70, 6, wb, attraction, a-b-da, 2, 3, 8, 16, 120, 195, 193, 119, 195, 120, 2, 5.12856
70, 6, wb, attraction, a-b-da, 2, 3, 8, 16, 120, 195, 193, 119, 195, 120, 1, 0.433072
70, 6, wb, attraction, a-b-da, 14, 2, 8, 17, 165, 90, 90, 165, 153, 83, 3, 2.28549
70, 6, wb, attraction, a-b-da, 14, 2, 8, 17, 165, 90, 90, 165, 153, 83, 1, 0.488682
70, 6, wb, catch, NA, 999, 999, 8, 18, 132, 63, 123, 192, 94, 161, 1, 1.05906
70, 6, wb, catch, NA, 999, 999, 8, 18, 132, 63, 123, 192, 94, 161, 2, 0.319381
70, 6, wb, filler, NA, 999, 999, 8, 19, 105, 130, 79, 123, 92, 120, 2, 1.91263
70, 6, wb, filler, NA, 999, 999, 8, 19, 105, 130, 79, 123, 92, 120, 1, 0.714693
70, 6, wb, attraction, a-b-db, 2, 1, 8, 20, 60, 135, 59, 134, 135, 60, 3, 5.16369
70, 6, wb, attraction, a-b-db, 2, 1, 8, 20, 60, 135, 59, 134, 135, 60, 1, 0.578743
70, 6, wb, attraction, a-b-da, 2, 2, 8, 21, 165, 90, 90, 165, 163, 89, 3, 8.86524
70, 6, wb, attraction, a-b-da, 2, 2, 8, 21, 165, 90, 90, 165, 163, 89, 1, 0.474985
70, 6, wb, attraction, a-b-db, 9, 3, 8, 22, 120, 195, 195, 120, 114, 186, 3, 6.13343
70, 6, wb, attraction, a-b-db, 9, 3, 8, 22, 120, 195, 195, 120, 114, 186, 1, 3.53349
70, 6, wb, attraction, a-b-db, 14, 3, 8, 23, 120, 195, 111, 181, 195, 120, 2, 5.66903
70, 6, wb, attraction, a-b-db, 14, 3, 8, 23, 120, 195, 111, 181, 195, 120, 1, 0.415913
70, 6, wb, attraction, a-b-db, 5, 3, 8, 24, 195, 120, 120, 195, 117, 190, 3, 5.17312
70, 6, wb, attraction, a-b-db, 5, 3, 8, 24, 195, 120, 120, 195, 117, 190, 1, 0.571428
70, 6, wb, attraction, a-b-da, 14, 3, 8, 25, 120, 195, 181, 111, 195, 120, 2, 3.35454
70, 6, wb, attraction, a-b-da, 14, 3, 8, 25, 120, 195, 181, 111, 195, 120, 1, 0.426781
70, 6, wb, attraction, a-b-da, 9, 2, 8, 26, 157, 86, 90, 165, 165, 90, 1, 2.4873
70, 6, wb, attraction, a-b-da, 9, 2, 8, 26, 157, 86, 90, 165, 165, 90, 2, 0.777745
70, 6, wb, filler, NA, 999, 999, 8, 27, 152, 59, 185, 123, 99, 108, 1, 3.6802
70, 6, wb, filler, NA, 999, 999, 8, 27, 152, 59, 185, 123, 99, 108, 2, 0.434971
70, 6, wb, filler, NA, 999, 999, 8, 28, 85, 192, 106, 193, 58, 193, 3, 1.46344
70, 6, wb, filler, NA, 999, 999, 8, 28, 85, 192, 106, 193, 58, 193, 2, 0.763585
70, 6, wb, filler, NA, 999, 999, 8, 29, 64, 181, 88, 82, 88, 87, 2, 2.40272
70, 6, wb, filler, NA, 999, 999, 8, 29, 64, 181, 88, 82, 88, 87, 1, 1.63322
70, 6, wb, catch, NA, 999, 999, 8, 30, 135, 120, 71, 124, 149, 166, 2, 1.90135
70, 6, wb, catch, NA, 999, 999, 8, 30, 135, 120, 71, 124, 149, 166, 3, 0.576053
70, 6, wb, attraction, a-b-da, 9, 1, 8, 31, 60, 135, 129, 57, 135, 60, 1, 5.62252
70, 6, wb, attraction, a-b-da, 9, 1, 8, 31, 60, 135, 129, 57, 135, 60, 3, 0.418683
70, 6, wb, filler, NA, 999, 999, 8, 32, 142, 76, 141, 110, 86, 65, 3, 3.09589
70, 6, wb, filler, NA, 999, 999, 8, 32, 142, 76, 141, 110, 86, 65, 2, 0.410199
70, 6, wb, attraction, a-b-db, 9, 1, 8, 33, 60, 135, 57, 129, 135, 60, 2, 4.82331
70, 6, wb, attraction, a-b-db, 9, 1, 8, 33, 60, 135, 57, 129, 135, 60, 3, 0.435718
70, 6, wb, attraction, a-b-da, 9, 3, 8, 34, 120, 195, 195, 120, 186, 114, 3, 3.54418
70, 6, wb, attraction, a-b-da, 9, 3, 8, 34, 120, 195, 195, 120, 186, 114, 1, 0.376442
70, 6, wb, attraction, a-b-da, 5, 3, 8, 35, 195, 120, 120, 195, 190, 117, 3, 2.27893
70, 6, wb, attraction, a-b-da, 5, 3, 8, 35, 195, 120, 120, 195, 190, 117, 1, 0.44216
70, 6, wb, attraction, a-b-da, 5, 1, 8, 36, 132, 58, 135, 60, 60, 135, 3, 5.83805
70, 6, wb, attraction, a-b-da, 5, 1, 8, 36, 132, 58, 135, 60, 60, 135, 2, 0.530148
70, 6, wb, attraction, a-b-db, 5, 2, 8, 37, 165, 90, 88, 161, 90, 165, 2, 4.94667
70, 6, wb, attraction, a-b-db, 5, 2, 8, 37, 165, 90, 88, 161, 90, 165, 1, 0.418398
