sub_n, computer_n, bw_cond, effect, set, distance, diag, block_n, trial_n, h1, w1, h2, w2, h3, w3, choice, rt 
88, 6, wb, practice, NA, 999, 999, 0, 1, 155, 116, 162, 65, 105, 159, 2, 6.07391
88, 6, wb, practice, NA, 999, 999, 0, 1, 155, 116, 162, 65, 105, 159, 1, 4.91539
88, 6, wb, practice, NA, 999, 999, 0, 2, 79, 81, 118, 129, 105, 118, 1, 2.51107
88, 6, wb, practice, NA, 999, 999, 0, 2, 79, 81, 118, 129, 105, 118, 2, 2.17057
88, 6, wb, practice, NA, 999, 999, 0, 3, 102, 101, 163, 182, 160, 176, 1, 2.10749
88, 6, wb, practice, NA, 999, 999, 0, 3, 102, 101, 163, 182, 160, 176, 2, 1.74334
88, 6, wb, catch, NA, 999, 999, 1, 1, 117, 78, 173, 142, 93, 162, 1, 2.45574
88, 6, wb, catch, NA, 999, 999, 1, 1, 117, 78, 173, 142, 93, 162, 2, 1.62766
88, 6, wb, attraction, a-b-db, 14, 2, 1, 2, 90, 165, 83, 153, 165, 90, 2, 4.43976
88, 6, wb, attraction, a-b-db, 14, 2, 1, 2, 90, 165, 83, 153, 165, 90, 3, 6.09968
88, 6, wb, attraction, a-b-db, 5, 3, 1, 3, 195, 120, 120, 195, 117, 190, 1, 3.43571
88, 6, wb, attraction, a-b-db, 5, 3, 1, 3, 195, 120, 120, 195, 117, 190, 3, 2.22481
88, 6, wb, attraction, a-b-db, 2, 1, 1, 4, 60, 135, 135, 60, 59, 134, 1, 2.13245
88, 6, wb, attraction, a-b-db, 2, 1, 1, 4, 60, 135, 135, 60, 59, 134, 3, 1.5418
88, 6, wb, attraction, a-b-db, 9, 1, 1, 5, 60, 135, 57, 129, 135, 60, 2, 2.9814
88, 6, wb, attraction, a-b-db, 9, 1, 1, 5, 60, 135, 57, 129, 135, 60, 1, 0.852361
88, 6, wb, filler, NA, 999, 999, 1, 6, 174, 118, 131, 99, 74, 114, 3, 2.19997
88, 6, wb, filler, NA, 999, 999, 1, 6, 174, 118, 131, 99, 74, 114, 1, 1.24655
88, 6, wb, attraction, a-b-db, 14, 1, 1, 7, 56, 125, 60, 135, 135, 60, 1, 2.8423
88, 6, wb, attraction, a-b-db, 14, 1, 1, 7, 56, 125, 60, 135, 135, 60, 3, 2.15062
88, 6, wb, attraction, a-b-da, 14, 3, 1, 8, 181, 111, 120, 195, 195, 120, 1, 2.99793
88, 6, wb, attraction, a-b-da, 14, 3, 1, 8, 181, 111, 120, 195, 195, 120, 2, 0.812191
88, 6, wb, filler, NA, 999, 999, 1, 9, 110, 125, 83, 139, 151, 133, 2, 1.39328
88, 6, wb, filler, NA, 999, 999, 1, 9, 110, 125, 83, 139, 151, 133, 3, 0.792132
88, 6, wb, filler, NA, 999, 999, 1, 10, 115, 63, 64, 106, 134, 60, 2, 1.62174
88, 6, wb, filler, NA, 999, 999, 1, 10, 115, 63, 64, 106, 134, 60, 1, 3.65128
88, 6, wb, attraction, a-b-da, 14, 1, 1, 11, 60, 135, 125, 56, 135, 60, 2, 2.00603
88, 6, wb, attraction, a-b-da, 14, 1, 1, 11, 60, 135, 125, 56, 135, 60, 1, 0.980093
88, 6, wb, attraction, a-b-db, 2, 3, 1, 12, 120, 195, 119, 193, 195, 120, 3, 1.78636
88, 6, wb, attraction, a-b-db, 2, 3, 1, 12, 120, 195, 119, 193, 195, 120, 1, 1.48983
88, 6, wb, filler, NA, 999, 999, 1, 13, 56, 75, 166, 117, 187, 176, 1, 0.947261
88, 6, wb, filler, NA, 999, 999, 1, 13, 56, 75, 166, 117, 187, 176, 3, 0.740287
88, 6, wb, attraction, a-b-da, 2, 2, 1, 14, 163, 89, 90, 165, 165, 90, 1, 3.26006
88, 6, wb, attraction, a-b-da, 2, 2, 1, 14, 163, 89, 90, 165, 165, 90, 2, 1.07965
88, 6, wb, filler, NA, 999, 999, 1, 15, 105, 170, 147, 62, 157, 123, 2, 1.53
88, 6, wb, filler, NA, 999, 999, 1, 15, 105, 170, 147, 62, 157, 123, 1, 1.60337
88, 6, wb, attraction, a-b-db, 14, 3, 1, 16, 120, 195, 195, 120, 111, 181, 3, 1.82474
88, 6, wb, attraction, a-b-db, 14, 3, 1, 16, 120, 195, 195, 120, 111, 181, 1, 1.21416
88, 6, wb, filler, NA, 999, 999, 1, 17, 153, 80, 72, 119, 149, 191, 2, 1.33111
88, 6, wb, filler, NA, 999, 999, 1, 17, 153, 80, 72, 119, 149, 191, 3, 0.484629
88, 6, wb, attraction, a-b-db, 5, 1, 1, 18, 58, 132, 135, 60, 60, 135, 3, 2.74316
88, 6, wb, attraction, a-b-db, 5, 1, 1, 18, 58, 132, 135, 60, 60, 135, 1, 0.991646
88, 6, wb, filler, NA, 999, 999, 1, 19, 130, 138, 121, 168, 127, 59, 3, 2.56522
88, 6, wb, filler, NA, 999, 999, 1, 19, 130, 138, 121, 168, 127, 59, 2, 1.17304
88, 6, wb, attraction, a-b-da, 5, 3, 1, 20, 120, 195, 195, 120, 190, 117, 2, 2.60324
88, 6, wb, attraction, a-b-da, 5, 3, 1, 20, 120, 195, 195, 120, 190, 117, 1, 0.921749
88, 6, wb, attraction, a-b-da, 9, 1, 1, 21, 135, 60, 129, 57, 60, 135, 3, 1.69887
88, 6, wb, attraction, a-b-da, 9, 1, 1, 21, 135, 60, 129, 57, 60, 135, 1, 0.90153
88, 6, wb, attraction, a-b-da, 9, 2, 1, 22, 90, 165, 157, 86, 165, 90, 2, 2.5592
88, 6, wb, attraction, a-b-da, 9, 2, 1, 22, 90, 165, 157, 86, 165, 90, 1, 0.727008
88, 6, wb, attraction, a-b-da, 14, 2, 1, 23, 153, 83, 90, 165, 165, 90, 1, 1.55145
88, 6, wb, attraction, a-b-da, 14, 2, 1, 23, 153, 83, 90, 165, 165, 90, 2, 0.880188
88, 6, wb, filler, NA, 999, 999, 1, 24, 61, 86, 180, 96, 74, 193, 1, 0.938534
88, 6, wb, filler, NA, 999, 999, 1, 24, 61, 86, 180, 96, 74, 193, 2, 0.691591
88, 6, wb, attraction, a-b-da, 5, 2, 1, 25, 161, 88, 165, 90, 90, 165, 2, 3.78124
88, 6, wb, attraction, a-b-da, 5, 2, 1, 25, 161, 88, 165, 90, 90, 165, 3, 0.916069
88, 6, wb, attraction, a-b-da, 9, 3, 1, 26, 195, 120, 186, 114, 120, 195, 2, 8.8051
88, 6, wb, attraction, a-b-da, 9, 3, 1, 26, 195, 120, 186, 114, 120, 195, 3, 1.12967
88, 6, wb, attraction, a-b-db, 5, 2, 1, 27, 165, 90, 88, 161, 90, 165, 1, 2.44184
88, 6, wb, attraction, a-b-db, 5, 2, 1, 27, 165, 90, 88, 161, 90, 165, 3, 1.02246
88, 6, wb, attraction, a-b-db, 9, 2, 1, 28, 86, 157, 165, 90, 90, 165, 1, 2.05952
88, 6, wb, attraction, a-b-db, 9, 2, 1, 28, 86, 157, 165, 90, 90, 165, 3, 4.14337
88, 6, wb, attraction, a-b-db, 9, 3, 1, 29, 114, 186, 195, 120, 120, 195, 1, 4.68607
88, 6, wb, attraction, a-b-db, 9, 3, 1, 29, 114, 186, 195, 120, 120, 195, 3, 0.824578
88, 6, wb, filler, NA, 999, 999, 1, 30, 114, 126, 78, 160, 167, 166, 2, 1.1729
88, 6, wb, filler, NA, 999, 999, 1, 30, 114, 126, 78, 160, 167, 166, 3, 2.44449
88, 6, wb, catch, NA, 999, 999, 1, 31, 159, 96, 128, 187, 96, 99, 3, 1.35164
88, 6, wb, catch, NA, 999, 999, 1, 31, 159, 96, 128, 187, 96, 99, 2, 0.504548
88, 6, wb, filler, NA, 999, 999, 1, 32, 154, 78, 93, 63, 183, 162, 2, 0.930276
88, 6, wb, filler, NA, 999, 999, 1, 32, 154, 78, 93, 63, 183, 162, 3, 0.907947
88, 6, wb, attraction, a-b-da, 2, 3, 1, 33, 193, 119, 195, 120, 120, 195, 1, 2.02908
88, 6, wb, attraction, a-b-da, 2, 3, 1, 33, 193, 119, 195, 120, 120, 195, 3, 2.95435
88, 6, wb, catch, NA, 999, 999, 1, 34, 85, 110, 134, 121, 171, 144, 1, 1.52137
88, 6, wb, catch, NA, 999, 999, 1, 34, 85, 110, 134, 121, 171, 144, 3, 1.13097
88, 6, wb, attraction, a-b-da, 2, 1, 1, 35, 135, 60, 134, 59, 60, 135, 1, 1.65127
88, 6, wb, attraction, a-b-da, 2, 1, 1, 35, 135, 60, 134, 59, 60, 135, 3, 1.44801
88, 6, wb, attraction, a-b-da, 5, 1, 1, 36, 60, 135, 132, 58, 135, 60, 2, 3.6195
88, 6, wb, attraction, a-b-da, 5, 1, 1, 36, 60, 135, 132, 58, 135, 60, 1, 0.712919
88, 6, wb, attraction, a-b-db, 2, 2, 1, 37, 165, 90, 89, 163, 90, 165, 3, 1.69799
88, 6, wb, attraction, a-b-db, 2, 2, 1, 37, 165, 90, 89, 163, 90, 165, 1, 0.628795
88, 6, wb, attraction, a-b-db, 5, 3, 2, 1, 120, 195, 117, 190, 195, 120, 2, 1.89719
88, 6, wb, attraction, a-b-db, 5, 3, 2, 1, 120, 195, 117, 190, 195, 120, 1, 1.2039
88, 6, wb, attraction, a-b-da, 2, 1, 2, 2, 135, 60, 60, 135, 134, 59, 2, 1.89756
88, 6, wb, attraction, a-b-da, 2, 1, 2, 2, 135, 60, 60, 135, 134, 59, 1, 1.35618
88, 6, wb, attraction, a-b-db, 9, 1, 2, 3, 135, 60, 60, 135, 57, 129, 3, 5.06696
88, 6, wb, attraction, a-b-db, 9, 1, 2, 3, 135, 60, 60, 135, 57, 129, 1, 0.974042
88, 6, wb, filler, NA, 999, 999, 2, 4, 56, 134, 181, 160, 148, 101, 1, 1.2844
88, 6, wb, filler, NA, 999, 999, 2, 4, 56, 134, 181, 160, 148, 101, 2, 0.543974
88, 6, wb, filler, NA, 999, 999, 2, 5, 70, 89, 76, 148, 167, 195, 1, 0.815685
88, 6, wb, filler, NA, 999, 999, 2, 5, 70, 89, 76, 148, 167, 195, 3, 0.622219
88, 6, wb, attraction, a-b-da, 14, 2, 2, 6, 165, 90, 153, 83, 90, 165, 2, 4.01915
88, 6, wb, attraction, a-b-da, 14, 2, 2, 6, 165, 90, 153, 83, 90, 165, 3, 0.752554
88, 6, wb, filler, NA, 999, 999, 2, 7, 93, 180, 77, 142, 121, 61, 3, 2.08021
88, 6, wb, filler, NA, 999, 999, 2, 7, 93, 180, 77, 142, 121, 61, 1, 0.947544
88, 6, wb, filler, NA, 999, 999, 2, 8, 134, 68, 161, 138, 190, 177, 1, 1.12321
88, 6, wb, filler, NA, 999, 999, 2, 8, 134, 68, 161, 138, 190, 177, 3, 0.612861
88, 6, wb, attraction, a-b-db, 14, 1, 2, 9, 135, 60, 56, 125, 60, 135, 2, 1.42618
88, 6, wb, attraction, a-b-db, 14, 1, 2, 9, 135, 60, 56, 125, 60, 135, 1, 1.03956
88, 6, wb, attraction, a-b-da, 5, 3, 2, 10, 120, 195, 190, 117, 195, 120, 2, 1.5311
88, 6, wb, attraction, a-b-da, 5, 3, 2, 10, 120, 195, 190, 117, 195, 120, 3, 3.19663
88, 6, wb, filler, NA, 999, 999, 2, 11, 174, 151, 169, 116, 146, 102, 3, 1.52965
88, 6, wb, filler, NA, 999, 999, 2, 11, 174, 151, 169, 116, 146, 102, 1, 0.706948
88, 6, wb, attraction, a-b-db, 14, 3, 2, 12, 111, 181, 120, 195, 195, 120, 1, 4.42806
88, 6, wb, attraction, a-b-db, 14, 3, 2, 12, 111, 181, 120, 195, 195, 120, 3, 0.664679
88, 6, wb, attraction, a-b-da, 14, 1, 2, 13, 60, 135, 135, 60, 125, 56, 1, 2.10774
88, 6, wb, attraction, a-b-da, 14, 1, 2, 13, 60, 135, 135, 60, 125, 56, 3, 1.82989
88, 6, wb, catch, NA, 999, 999, 2, 14, 110, 145, 157, 158, 105, 90, 3, 3.02566
88, 6, wb, catch, NA, 999, 999, 2, 14, 110, 145, 157, 158, 105, 90, 2, 0.670669
88, 6, wb, attraction, a-b-db, 2, 1, 2, 15, 59, 134, 60, 135, 135, 60, 3, 6.08188
88, 6, wb, attraction, a-b-db, 2, 1, 2, 15, 59, 134, 60, 135, 135, 60, 1, 4.57996
88, 6, wb, filler, NA, 999, 999, 2, 16, 93, 96, 84, 81, 161, 148, 2, 0.985122
88, 6, wb, filler, NA, 999, 999, 2, 16, 93, 96, 84, 81, 161, 148, 3, 0.432763
88, 6, wb, attraction, a-b-db, 9, 3, 2, 17, 120, 195, 195, 120, 114, 186, 3, 1.98132
88, 6, wb, attraction, a-b-db, 9, 3, 2, 17, 120, 195, 195, 120, 114, 186, 1, 0.932773
88, 6, wb, attraction, a-b-da, 9, 3, 2, 18, 186, 114, 120, 195, 195, 120, 1, 2.42886
88, 6, wb, attraction, a-b-da, 9, 3, 2, 18, 186, 114, 120, 195, 195, 120, 2, 1.53013
88, 6, wb, catch, NA, 999, 999, 2, 19, 61, 134, 182, 133, 121, 134, 1, 2.70618
88, 6, wb, catch, NA, 999, 999, 2, 19, 61, 134, 182, 133, 121, 134, 2, 0.43625
88, 6, wb, attraction, a-b-da, 2, 3, 2, 20, 195, 120, 120, 195, 193, 119, 2, 2.6325
88, 6, wb, attraction, a-b-da, 2, 3, 2, 20, 195, 120, 120, 195, 193, 119, 1, 1.61369
88, 6, wb, filler, NA, 999, 999, 2, 21, 119, 109, 76, 193, 138, 72, 3, 2.2904
88, 6, wb, filler, NA, 999, 999, 2, 21, 119, 109, 76, 193, 138, 72, 2, 1.50894
88, 6, wb, attraction, a-b-db, 2, 2, 2, 22, 90, 165, 89, 163, 165, 90, 3, 4.33384
88, 6, wb, attraction, a-b-db, 2, 2, 2, 22, 90, 165, 89, 163, 165, 90, 1, 0.710403
88, 6, wb, attraction, a-b-da, 2, 2, 2, 23, 165, 90, 163, 89, 90, 165, 1, 2.39156
88, 6, wb, attraction, a-b-da, 2, 2, 2, 23, 165, 90, 163, 89, 90, 165, 3, 0.933993
88, 6, wb, attraction, a-b-db, 5, 1, 2, 24, 60, 135, 135, 60, 58, 132, 3, 3.99036
88, 6, wb, attraction, a-b-db, 5, 1, 2, 24, 60, 135, 135, 60, 58, 132, 2, 0.66852
88, 6, wb, filler, NA, 999, 999, 2, 25, 188, 149, 100, 93, 191, 111, 2, 2.01544
88, 6, wb, filler, NA, 999, 999, 2, 25, 188, 149, 100, 93, 191, 111, 1, 0.653556
88, 6, wb, attraction, a-b-db, 5, 2, 2, 26, 165, 90, 88, 161, 90, 165, 2, 3.37739
88, 6, wb, attraction, a-b-db, 5, 2, 2, 26, 165, 90, 88, 161, 90, 165, 3, 0.584108
88, 6, wb, filler, NA, 999, 999, 2, 27, 62, 59, 67, 134, 137, 155, 1, 0.974634
88, 6, wb, filler, NA, 999, 999, 2, 27, 62, 59, 67, 134, 137, 155, 3, 0.742288
88, 6, wb, attraction, a-b-da, 9, 1, 2, 28, 129, 57, 60, 135, 135, 60, 2, 0.958023
88, 6, wb, attraction, a-b-da, 9, 1, 2, 28, 129, 57, 60, 135, 135, 60, 3, 1.30233
88, 6, wb, attraction, a-b-db, 2, 3, 2, 29, 120, 195, 119, 193, 195, 120, 3, 1.27979
88, 6, wb, attraction, a-b-db, 2, 3, 2, 29, 120, 195, 119, 193, 195, 120, 2, 3.05942
88, 6, wb, attraction, a-b-da, 5, 2, 2, 30, 161, 88, 165, 90, 90, 165, 2, 2.46166
88, 6, wb, attraction, a-b-da, 5, 2, 2, 30, 161, 88, 165, 90, 90, 165, 3, 0.53763
88, 6, wb, attraction, a-b-db, 9, 2, 2, 31, 165, 90, 90, 165, 86, 157, 2, 1.09001
88, 6, wb, attraction, a-b-db, 9, 2, 2, 31, 165, 90, 90, 165, 86, 157, 3, 0.885055
88, 6, wb, attraction, a-b-da, 9, 2, 2, 32, 90, 165, 157, 86, 165, 90, 2, 1.15132
88, 6, wb, attraction, a-b-da, 9, 2, 2, 32, 90, 165, 157, 86, 165, 90, 1, 0.640218
88, 6, wb, attraction, a-b-db, 14, 2, 2, 33, 83, 153, 165, 90, 90, 165, 1, 2.36409
88, 6, wb, attraction, a-b-db, 14, 2, 2, 33, 83, 153, 165, 90, 90, 165, 3, 0.492058
88, 6, wb, attraction, a-b-da, 14, 3, 2, 34, 120, 195, 195, 120, 181, 111, 3, 1.43774
88, 6, wb, attraction, a-b-da, 14, 3, 2, 34, 120, 195, 195, 120, 181, 111, 1, 0.88257
88, 6, wb, attraction, a-b-da, 5, 1, 2, 35, 132, 58, 135, 60, 60, 135, 2, 3.7969
88, 6, wb, attraction, a-b-da, 5, 1, 2, 35, 132, 58, 135, 60, 60, 135, 3, 0.778975
88, 6, wb, catch, NA, 999, 999, 2, 36, 126, 189, 119, 136, 113, 82, 3, 1.97737
88, 6, wb, catch, NA, 999, 999, 2, 36, 126, 189, 119, 136, 113, 82, 1, 0.584649
88, 6, wb, filler, NA, 999, 999, 2, 37, 70, 169, 180, 124, 108, 161, 1, 1.19923
88, 6, wb, filler, NA, 999, 999, 2, 37, 70, 169, 180, 124, 108, 161, 2, 0.766105
88, 6, wb, attraction, a-b-da, 9, 2, 3, 1, 157, 86, 165, 90, 90, 165, 1, 1.55718
88, 6, wb, attraction, a-b-da, 9, 2, 3, 1, 157, 86, 165, 90, 90, 165, 3, 1.56532
88, 6, wb, attraction, a-b-da, 9, 1, 3, 2, 135, 60, 60, 135, 129, 57, 3, 1.87613
88, 6, wb, attraction, a-b-da, 9, 1, 3, 2, 135, 60, 60, 135, 129, 57, 2, 2.4715
88, 6, wb, filler, NA, 999, 999, 3, 3, 82, 73, 173, 101, 92, 116, 1, 0.889984
88, 6, wb, filler, NA, 999, 999, 3, 3, 82, 73, 173, 101, 92, 116, 2, 0.557059
88, 6, wb, filler, NA, 999, 999, 3, 4, 82, 128, 167, 162, 194, 114, 1, 1.41205
88, 6, wb, filler, NA, 999, 999, 3, 4, 82, 128, 167, 162, 194, 114, 2, 3.8343
88, 6, wb, filler, NA, 999, 999, 3, 5, 174, 136, 156, 132, 185, 153, 2, 2.76563
88, 6, wb, filler, NA, 999, 999, 3, 5, 174, 136, 156, 132, 185, 153, 3, 0.509466
88, 6, wb, attraction, a-b-db, 14, 3, 3, 6, 120, 195, 195, 120, 111, 181, 3, 11.9106
88, 6, wb, attraction, a-b-db, 14, 3, 3, 6, 120, 195, 195, 120, 111, 181, 1, 0.861448
88, 6, wb, attraction, a-b-db, 14, 2, 3, 7, 165, 90, 83, 153, 90, 165, 2, 1.60046
88, 6, wb, attraction, a-b-db, 14, 2, 3, 7, 165, 90, 83, 153, 90, 165, 3, 0.775307
88, 6, wb, attraction, a-b-db, 5, 1, 3, 8, 60, 135, 135, 60, 58, 132, 1, 1.97367
88, 6, wb, attraction, a-b-db, 5, 1, 3, 8, 60, 135, 135, 60, 58, 132, 3, 0.933044
88, 6, wb, filler, NA, 999, 999, 3, 9, 185, 123, 82, 114, 185, 148, 2, 0.60544
88, 6, wb, filler, NA, 999, 999, 3, 9, 185, 123, 82, 114, 185, 148, 3, 0.651711
88, 6, wb, attraction, a-b-db, 2, 2, 3, 10, 90, 165, 165, 90, 89, 163, 1, 1.03156
88, 6, wb, attraction, a-b-db, 2, 2, 3, 10, 90, 165, 165, 90, 89, 163, 3, 0.877182
88, 6, wb, attraction, a-b-da, 2, 1, 3, 11, 134, 59, 60, 135, 135, 60, 2, 1.07953
88, 6, wb, attraction, a-b-da, 2, 1, 3, 11, 134, 59, 60, 135, 135, 60, 1, 0.507148
88, 6, wb, filler, NA, 999, 999, 3, 12, 63, 59, 111, 149, 85, 175, 1, 1.10818
88, 6, wb, filler, NA, 999, 999, 3, 12, 63, 59, 111, 149, 85, 175, 2, 1.20655
88, 6, wb, attraction, a-b-db, 9, 1, 3, 13, 135, 60, 57, 129, 60, 135, 3, 1.47547
88, 6, wb, attraction, a-b-db, 9, 1, 3, 13, 135, 60, 57, 129, 60, 135, 1, 0.958907
88, 6, wb, attraction, a-b-da, 14, 1, 3, 14, 135, 60, 125, 56, 60, 135, 2, 0.902036
88, 6, wb, attraction, a-b-da, 14, 1, 3, 14, 135, 60, 125, 56, 60, 135, 3, 2.649
88, 6, wb, attraction, a-b-da, 2, 2, 3, 15, 165, 90, 90, 165, 163, 89, 2, 5.27603
88, 6, wb, attraction, a-b-da, 2, 2, 3, 15, 165, 90, 90, 165, 163, 89, 1, 1.04655
88, 6, wb, filler, NA, 999, 999, 3, 16, 195, 57, 167, 77, 179, 88, 1, 2.03402
88, 6, wb, filler, NA, 999, 999, 3, 16, 195, 57, 167, 77, 179, 88, 3, 0.743347
88, 6, wb, catch, NA, 999, 999, 3, 17, 91, 104, 98, 157, 156, 159, 1, 1.03899
88, 6, wb, catch, NA, 999, 999, 3, 17, 91, 104, 98, 157, 156, 159, 3, 0.868103
88, 6, wb, filler, NA, 999, 999, 3, 18, 93, 191, 174, 172, 139, 181, 1, 0.703233
88, 6, wb, filler, NA, 999, 999, 3, 18, 93, 191, 174, 172, 139, 181, 3, 1.60151
88, 6, wb, attraction, a-b-db, 5, 2, 3, 19, 88, 161, 90, 165, 165, 90, 1, 2.999
88, 6, wb, attraction, a-b-db, 5, 2, 3, 19, 88, 161, 90, 165, 165, 90, 2, 2.70923
88, 6, wb, attraction, a-b-db, 9, 3, 3, 20, 120, 195, 195, 120, 114, 186, 3, 4.6617
88, 6, wb, attraction, a-b-db, 9, 3, 3, 20, 120, 195, 195, 120, 114, 186, 2, 2.38497
88, 6, wb, attraction, a-b-da, 5, 1, 3, 21, 60, 135, 132, 58, 135, 60, 3, 2.48685
88, 6, wb, attraction, a-b-da, 5, 1, 3, 21, 60, 135, 132, 58, 135, 60, 1, 1.56994
88, 6, wb, attraction, a-b-da, 5, 2, 3, 22, 90, 165, 165, 90, 161, 88, 2, 3.86477
88, 6, wb, attraction, a-b-da, 5, 2, 3, 22, 90, 165, 165, 90, 161, 88, 1, 1.62822
88, 6, wb, attraction, a-b-db, 2, 1, 3, 23, 135, 60, 59, 134, 60, 135, 2, 4.90428
88, 6, wb, attraction, a-b-db, 2, 1, 3, 23, 135, 60, 59, 134, 60, 135, 1, 0.97805
88, 6, wb, filler, NA, 999, 999, 3, 24, 118, 83, 70, 171, 77, 166, 2, 1.66445
88, 6, wb, filler, NA, 999, 999, 3, 24, 118, 83, 70, 171, 77, 166, 3, 0.988563
88, 6, wb, attraction, a-b-db, 9, 2, 3, 25, 90, 165, 86, 157, 165, 90, 3, 7.17077
88, 6, wb, attraction, a-b-db, 9, 2, 3, 25, 90, 165, 86, 157, 165, 90, 1, 1.43326
88, 6, wb, attraction, a-b-db, 5, 3, 3, 26, 117, 190, 195, 120, 120, 195, 3, 1.47738
88, 6, wb, attraction, a-b-db, 5, 3, 3, 26, 117, 190, 195, 120, 120, 195, 2, 0.776895
88, 6, wb, catch, NA, 999, 999, 3, 27, 148, 107, 88, 107, 180, 135, 2, 1.09529
88, 6, wb, catch, NA, 999, 999, 3, 27, 148, 107, 88, 107, 180, 135, 3, 0.442168
88, 6, wb, attraction, a-b-da, 2, 3, 3, 28, 193, 119, 120, 195, 195, 120, 3, 2.46213
88, 6, wb, attraction, a-b-da, 2, 3, 3, 28, 193, 119, 120, 195, 195, 120, 2, 1.71387
88, 6, wb, attraction, a-b-da, 5, 3, 3, 29, 120, 195, 195, 120, 190, 117, 3, 1.13851
88, 6, wb, attraction, a-b-da, 5, 3, 3, 29, 120, 195, 195, 120, 190, 117, 2, 0.947666
88, 6, wb, filler, NA, 999, 999, 3, 30, 188, 163, 146, 82, 92, 75, 3, 2.22716
88, 6, wb, filler, NA, 999, 999, 3, 30, 188, 163, 146, 82, 92, 75, 1, 0.880457
88, 6, wb, attraction, a-b-da, 14, 3, 3, 31, 120, 195, 181, 111, 195, 120, 3, 4.1387
88, 6, wb, attraction, a-b-da, 14, 3, 3, 31, 120, 195, 181, 111, 195, 120, 1, 0.730875
88, 6, wb, filler, NA, 999, 999, 3, 32, 93, 69, 146, 103, 108, 145, 1, 1.24315
88, 6, wb, filler, NA, 999, 999, 3, 32, 93, 69, 146, 103, 108, 145, 3, 0.864077
88, 6, wb, attraction, a-b-db, 14, 1, 3, 33, 135, 60, 56, 125, 60, 135, 2, 3.10721
88, 6, wb, attraction, a-b-db, 14, 1, 3, 33, 135, 60, 56, 125, 60, 135, 3, 5.1088
88, 6, wb, attraction, a-b-db, 2, 3, 3, 34, 195, 120, 119, 193, 120, 195, 2, 1.98853
88, 6, wb, attraction, a-b-db, 2, 3, 3, 34, 195, 120, 119, 193, 120, 195, 3, 1.4911
88, 6, wb, catch, NA, 999, 999, 3, 35, 164, 91, 160, 155, 123, 72, 3, 1.0925
88, 6, wb, catch, NA, 999, 999, 3, 35, 164, 91, 160, 155, 123, 72, 2, 0.607547
88, 6, wb, attraction, a-b-da, 14, 2, 3, 36, 153, 83, 90, 165, 165, 90, 1, 2.14867
88, 6, wb, attraction, a-b-da, 14, 2, 3, 36, 153, 83, 90, 165, 165, 90, 2, 1.4453
88, 6, wb, attraction, a-b-da, 9, 3, 3, 37, 186, 114, 120, 195, 195, 120, 1, 2.52078
88, 6, wb, attraction, a-b-da, 9, 3, 3, 37, 186, 114, 120, 195, 195, 120, 3, 3.40194
88, 6, wb, attraction, a-b-da, 14, 1, 4, 1, 135, 60, 60, 135, 125, 56, 3, 2.02288
88, 6, wb, attraction, a-b-da, 14, 1, 4, 1, 135, 60, 60, 135, 125, 56, 2, 0.9403
88, 6, wb, attraction, a-b-db, 14, 1, 4, 2, 56, 125, 135, 60, 60, 135, 1, 2.31585
88, 6, wb, attraction, a-b-db, 14, 1, 4, 2, 56, 125, 135, 60, 60, 135, 3, 3.10977
88, 6, wb, attraction, a-b-db, 9, 3, 4, 3, 120, 195, 195, 120, 114, 186, 3, 6.14205
88, 6, wb, attraction, a-b-db, 9, 3, 4, 3, 120, 195, 195, 120, 114, 186, 2, 1.13342
88, 6, wb, attraction, a-b-da, 5, 1, 4, 4, 132, 58, 60, 135, 135, 60, 2, 2.78964
88, 6, wb, attraction, a-b-da, 5, 1, 4, 4, 132, 58, 60, 135, 135, 60, 1, 0.548175
88, 6, wb, attraction, a-b-db, 5, 1, 4, 5, 60, 135, 135, 60, 58, 132, 3, 2.40391
88, 6, wb, attraction, a-b-db, 5, 1, 4, 5, 60, 135, 135, 60, 58, 132, 2, 0.6418
88, 6, wb, filler, NA, 999, 999, 4, 6, 124, 109, 61, 85, 118, 63, 2, 1.1016
88, 6, wb, filler, NA, 999, 999, 4, 6, 124, 109, 61, 85, 118, 63, 1, 0.57653
88, 6, wb, attraction, a-b-da, 14, 3, 4, 7, 120, 195, 181, 111, 195, 120, 3, 0.926977
88, 6, wb, attraction, a-b-da, 14, 3, 4, 7, 120, 195, 181, 111, 195, 120, 2, 0.640716
88, 6, wb, attraction, a-b-da, 14, 2, 4, 8, 153, 83, 165, 90, 90, 165, 1, 36.6443
88, 6, wb, attraction, a-b-da, 14, 2, 4, 8, 153, 83, 165, 90, 90, 165, 3, 0.686796
88, 6, wb, attraction, a-b-db, 14, 2, 4, 9, 165, 90, 90, 165, 83, 153, 3, 2.28136
88, 6, wb, attraction, a-b-db, 14, 2, 4, 9, 165, 90, 90, 165, 83, 153, 2, 1.19652
88, 6, wb, attraction, a-b-da, 2, 3, 4, 10, 120, 195, 193, 119, 195, 120, 3, 1.37007
88, 6, wb, attraction, a-b-da, 2, 3, 4, 10, 120, 195, 193, 119, 195, 120, 2, 0.618276
88, 6, wb, attraction, a-b-da, 9, 3, 4, 11, 186, 114, 195, 120, 120, 195, 1, 0.695375
88, 6, wb, attraction, a-b-da, 9, 3, 4, 11, 186, 114, 195, 120, 120, 195, 3, 0.530444
88, 6, wb, attraction, a-b-db, 2, 1, 4, 12, 60, 135, 59, 134, 135, 60, 2, 2.77091
88, 6, wb, attraction, a-b-db, 2, 1, 4, 12, 60, 135, 59, 134, 135, 60, 3, 0.922696
88, 6, wb, attraction, a-b-db, 9, 1, 4, 13, 60, 135, 135, 60, 57, 129, 1, 1.89155
88, 6, wb, attraction, a-b-db, 9, 1, 4, 13, 60, 135, 135, 60, 57, 129, 2, 1.07836
88, 6, wb, attraction, a-b-db, 2, 2, 4, 14, 89, 163, 165, 90, 90, 165, 1, 2.17665
88, 6, wb, attraction, a-b-db, 2, 2, 4, 14, 89, 163, 165, 90, 90, 165, 2, 1.21606
88, 6, wb, attraction, a-b-da, 2, 2, 4, 15, 165, 90, 163, 89, 90, 165, 1, 1.15678
88, 6, wb, attraction, a-b-da, 2, 2, 4, 15, 165, 90, 163, 89, 90, 165, 3, 0.829137
88, 6, wb, attraction, a-b-da, 9, 2, 4, 16, 90, 165, 165, 90, 157, 86, 3, 2.33764
88, 6, wb, attraction, a-b-da, 9, 2, 4, 16, 90, 165, 165, 90, 157, 86, 1, 0.658109
88, 6, wb, catch, NA, 999, 999, 4, 17, 134, 181, 81, 114, 98, 157, 2, 1.02116
88, 6, wb, catch, NA, 999, 999, 4, 17, 134, 181, 81, 114, 98, 157, 1, 0.410665
88, 6, wb, attraction, a-b-da, 5, 2, 4, 18, 161, 88, 90, 165, 165, 90, 1, 1.77587
88, 6, wb, attraction, a-b-da, 5, 2, 4, 18, 161, 88, 90, 165, 165, 90, 2, 2.39936
88, 6, wb, filler, NA, 999, 999, 4, 19, 91, 92, 107, 173, 192, 102, 1, 1.82851
88, 6, wb, filler, NA, 999, 999, 4, 19, 91, 92, 107, 173, 192, 102, 3, 0.769933
88, 6, wb, filler, NA, 999, 999, 4, 20, 114, 147, 187, 124, 89, 103, 3, 1.13687
88, 6, wb, filler, NA, 999, 999, 4, 20, 114, 147, 187, 124, 89, 103, 2, 0.794496
88, 6, wb, catch, NA, 999, 999, 4, 21, 138, 117, 85, 110, 153, 162, 2, 1.89626
88, 6, wb, catch, NA, 999, 999, 4, 21, 138, 117, 85, 110, 153, 162, 3, 0.722963
88, 6, wb, attraction, a-b-db, 14, 3, 4, 22, 195, 120, 111, 181, 120, 195, 1, 1.06742
88, 6, wb, attraction, a-b-db, 14, 3, 4, 22, 195, 120, 111, 181, 120, 195, 3, 0.607754
88, 6, wb, filler, NA, 999, 999, 4, 23, 125, 65, 61, 152, 58, 100, 3, 0.940715
88, 6, wb, filler, NA, 999, 999, 4, 23, 125, 65, 61, 152, 58, 100, 2, 0.981857
88, 6, wb, catch, NA, 999, 999, 4, 24, 104, 91, 136, 119, 194, 121, 1, 0.763994
88, 6, wb, catch, NA, 999, 999, 4, 24, 104, 91, 136, 119, 194, 121, 3, 0.572421
88, 6, wb, filler, NA, 999, 999, 4, 25, 165, 73, 164, 66, 181, 115, 2, 0.923695
88, 6, wb, filler, NA, 999, 999, 4, 25, 165, 73, 164, 66, 181, 115, 3, 0.621215
88, 6, wb, attraction, a-b-da, 2, 1, 4, 26, 134, 59, 60, 135, 135, 60, 3, 2.07429
88, 6, wb, attraction, a-b-da, 2, 1, 4, 26, 134, 59, 60, 135, 135, 60, 2, 2.10177
88, 6, wb, filler, NA, 999, 999, 4, 27, 162, 190, 153, 146, 159, 117, 3, 1.62304
88, 6, wb, filler, NA, 999, 999, 4, 27, 162, 190, 153, 146, 159, 117, 1, 0.812402
88, 6, wb, filler, NA, 999, 999, 4, 28, 158, 171, 127, 58, 180, 73, 2, 1.04937
88, 6, wb, filler, NA, 999, 999, 4, 28, 158, 171, 127, 58, 180, 73, 1, 0.590373
88, 6, wb, attraction, a-b-db, 2, 3, 4, 29, 119, 193, 120, 195, 195, 120, 1, 1.61223
88, 6, wb, attraction, a-b-db, 2, 3, 4, 29, 119, 193, 120, 195, 195, 120, 3, 0.562284
88, 6, wb, attraction, a-b-da, 5, 3, 4, 30, 120, 195, 195, 120, 190, 117, 2, 0.905378
88, 6, wb, attraction, a-b-da, 5, 3, 4, 30, 120, 195, 195, 120, 190, 117, 1, 0.907767
88, 6, wb, attraction, a-b-db, 9, 2, 4, 31, 90, 165, 165, 90, 86, 157, 3, 1.10076
88, 6, wb, attraction, a-b-db, 9, 2, 4, 31, 90, 165, 165, 90, 86, 157, 2, 0.895802
88, 6, wb, attraction, a-b-db, 5, 2, 4, 32, 165, 90, 90, 165, 88, 161, 1, 1.50529
88, 6, wb, attraction, a-b-db, 5, 2, 4, 32, 165, 90, 90, 165, 88, 161, 2, 0.475465
88, 6, wb, filler, NA, 999, 999, 4, 33, 171, 116, 101, 161, 187, 109, 2, 2.39801
88, 6, wb, filler, NA, 999, 999, 4, 33, 171, 116, 101, 161, 187, 109, 3, 1.01258
88, 6, wb, filler, NA, 999, 999, 4, 34, 110, 172, 56, 90, 156, 121, 2, 1.06549
88, 6, wb, filler, NA, 999, 999, 4, 34, 110, 172, 56, 90, 156, 121, 1, 0.917799
88, 6, wb, attraction, a-b-da, 9, 1, 4, 35, 129, 57, 60, 135, 135, 60, 2, 0.806762
88, 6, wb, attraction, a-b-da, 9, 1, 4, 35, 129, 57, 60, 135, 135, 60, 1, 0.581128
88, 6, wb, attraction, a-b-db, 5, 3, 4, 36, 120, 195, 195, 120, 117, 190, 3, 1.09157
88, 6, wb, attraction, a-b-db, 5, 3, 4, 36, 120, 195, 195, 120, 117, 190, 1, 0.806501
88, 6, wb, filler, NA, 999, 999, 4, 37, 155, 142, 145, 114, 160, 178, 2, 0.891618
88, 6, wb, filler, NA, 999, 999, 4, 37, 155, 142, 145, 114, 160, 178, 3, 0.486593
88, 6, wb, filler, NA, 999, 999, 5, 1, 114, 142, 156, 76, 174, 112, 2, 8.6232
88, 6, wb, filler, NA, 999, 999, 5, 1, 114, 142, 156, 76, 174, 112, 3, 0.730959
88, 6, wb, attraction, a-b-da, 9, 1, 5, 2, 60, 135, 135, 60, 129, 57, 3, 1.82738
88, 6, wb, attraction, a-b-da, 9, 1, 5, 2, 60, 135, 135, 60, 129, 57, 1, 0.696703
88, 6, wb, attraction, a-b-db, 9, 2, 5, 3, 90, 165, 86, 157, 165, 90, 3, 2.20243
88, 6, wb, attraction, a-b-db, 9, 2, 5, 3, 90, 165, 86, 157, 165, 90, 1, 0.785268
88, 6, wb, attraction, a-b-da, 5, 1, 5, 4, 132, 58, 60, 135, 135, 60, 1, 1.48744
88, 6, wb, attraction, a-b-da, 5, 1, 5, 4, 132, 58, 60, 135, 135, 60, 2, 1.90635
88, 6, wb, attraction, a-b-db, 14, 1, 5, 5, 135, 60, 60, 135, 56, 125, 3, 0.947615
88, 6, wb, attraction, a-b-db, 14, 1, 5, 5, 135, 60, 60, 135, 56, 125, 2, 1.9007
88, 6, wb, attraction, a-b-db, 5, 2, 5, 6, 165, 90, 90, 165, 88, 161, 3, 3.65394
88, 6, wb, attraction, a-b-db, 5, 2, 5, 6, 165, 90, 90, 165, 88, 161, 2, 0.874176
88, 6, wb, filler, NA, 999, 999, 5, 7, 148, 153, 162, 186, 139, 118, 3, 1.28459
88, 6, wb, filler, NA, 999, 999, 5, 7, 148, 153, 162, 186, 139, 118, 2, 1.23203
88, 6, wb, attraction, a-b-da, 5, 2, 5, 8, 90, 165, 165, 90, 161, 88, 1, 0.852237
88, 6, wb, attraction, a-b-da, 5, 2, 5, 8, 90, 165, 165, 90, 161, 88, 2, 0.89736
88, 6, wb, catch, NA, 999, 999, 5, 9, 96, 159, 176, 139, 74, 121, 3, 0.739046
88, 6, wb, catch, NA, 999, 999, 5, 9, 96, 159, 176, 139, 74, 121, 2, 0.708095
88, 6, wb, attraction, a-b-da, 9, 2, 5, 10, 165, 90, 90, 165, 157, 86, 3, 2.15716
88, 6, wb, attraction, a-b-da, 9, 2, 5, 10, 165, 90, 90, 165, 157, 86, 2, 0.493087
88, 6, wb, attraction, a-b-da, 2, 1, 5, 11, 135, 60, 60, 135, 134, 59, 3, 3.27092
88, 6, wb, attraction, a-b-da, 2, 1, 5, 11, 135, 60, 60, 135, 134, 59, 1, 1.01855
88, 6, wb, attraction, a-b-da, 14, 1, 5, 12, 125, 56, 60, 135, 135, 60, 1, 1.73545
88, 6, wb, attraction, a-b-da, 14, 1, 5, 12, 125, 56, 60, 135, 135, 60, 2, 1.19303
88, 6, wb, filler, NA, 999, 999, 5, 13, 81, 147, 144, 121, 185, 62, 3, 0.942551
88, 6, wb, filler, NA, 999, 999, 5, 13, 81, 147, 144, 121, 185, 62, 2, 0.599413
88, 6, wb, catch, NA, 999, 999, 5, 14, 101, 94, 124, 191, 145, 110, 1, 0.837286
88, 6, wb, catch, NA, 999, 999, 5, 14, 101, 94, 124, 191, 145, 110, 2, 0.922282
88, 6, wb, attraction, a-b-db, 14, 2, 5, 15, 83, 153, 90, 165, 165, 90, 3, 0.747247
88, 6, wb, attraction, a-b-db, 14, 2, 5, 15, 83, 153, 90, 165, 165, 90, 2, 0.828287
88, 6, wb, filler, NA, 999, 999, 5, 16, 137, 182, 149, 166, 94, 160, 3, 1.4888
88, 6, wb, filler, NA, 999, 999, 5, 16, 137, 182, 149, 166, 94, 160, 1, 0.499543
88, 6, wb, attraction, a-b-da, 14, 3, 5, 17, 120, 195, 195, 120, 181, 111, 3, 3.63734
88, 6, wb, attraction, a-b-da, 14, 3, 5, 17, 120, 195, 195, 120, 181, 111, 1, 0.754094
88, 6, wb, attraction, a-b-db, 5, 3, 5, 18, 120, 195, 195, 120, 117, 190, 3, 3.01795
88, 6, wb, attraction, a-b-db, 5, 3, 5, 18, 120, 195, 195, 120, 117, 190, 2, 4.65564
88, 6, wb, attraction, a-b-db, 9, 3, 5, 19, 195, 120, 120, 195, 114, 186, 3, 2.60206
88, 6, wb, attraction, a-b-db, 9, 3, 5, 19, 195, 120, 120, 195, 114, 186, 1, 3.96056
88, 6, wb, attraction, a-b-db, 9, 1, 5, 20, 57, 129, 135, 60, 60, 135, 1, 0.974607
88, 6, wb, attraction, a-b-db, 9, 1, 5, 20, 57, 129, 135, 60, 60, 135, 2, 0.67824
88, 6, wb, attraction, a-b-db, 2, 3, 5, 21, 195, 120, 119, 193, 120, 195, 1, 1.48057
88, 6, wb, attraction, a-b-db, 2, 3, 5, 21, 195, 120, 119, 193, 120, 195, 2, 1.78822
88, 6, wb, catch, NA, 999, 999, 5, 22, 156, 99, 192, 123, 80, 115, 3, 1.43425
88, 6, wb, catch, NA, 999, 999, 5, 22, 156, 99, 192, 123, 80, 115, 2, 1.51177
88, 6, wb, filler, NA, 999, 999, 5, 23, 72, 174, 124, 171, 84, 160, 1, 0.800494
88, 6, wb, filler, NA, 999, 999, 5, 23, 72, 174, 124, 171, 84, 160, 2, 2.25561
88, 6, wb, filler, NA, 999, 999, 5, 24, 89, 116, 170, 74, 65, 194, 1, 2.91494
88, 6, wb, filler, NA, 999, 999, 5, 24, 89, 116, 170, 74, 65, 194, 2, 2.49268
88, 6, wb, attraction, a-b-da, 2, 2, 5, 25, 90, 165, 165, 90, 163, 89, 2, 3.04574
88, 6, wb, attraction, a-b-da, 2, 2, 5, 25, 90, 165, 165, 90, 163, 89, 1, 1.10603
88, 6, wb, attraction, a-b-db, 14, 3, 5, 26, 120, 195, 195, 120, 111, 181, 2, 6.00365
88, 6, wb, attraction, a-b-db, 14, 3, 5, 26, 120, 195, 195, 120, 111, 181, 1, 1.9611
88, 6, wb, filler, NA, 999, 999, 5, 27, 171, 194, 142, 121, 118, 126, 3, 1.60782
88, 6, wb, filler, NA, 999, 999, 5, 27, 171, 194, 142, 121, 118, 126, 1, 0.821897
88, 6, wb, attraction, a-b-da, 2, 3, 5, 28, 193, 119, 120, 195, 195, 120, 1, 5.2591
88, 6, wb, attraction, a-b-da, 2, 3, 5, 28, 193, 119, 120, 195, 195, 120, 2, 0.621866
88, 6, wb, attraction, a-b-da, 14, 2, 5, 29, 165, 90, 90, 165, 153, 83, 3, 2.98715
88, 6, wb, attraction, a-b-da, 14, 2, 5, 29, 165, 90, 90, 165, 153, 83, 1, 1.01001
88, 6, wb, attraction, a-b-db, 5, 1, 5, 30, 60, 135, 58, 132, 135, 60, 2, 2.33496
88, 6, wb, attraction, a-b-db, 5, 1, 5, 30, 60, 135, 58, 132, 135, 60, 3, 2.47221
88, 6, wb, filler, NA, 999, 999, 5, 31, 93, 128, 95, 147, 133, 135, 1, 1.16271
88, 6, wb, filler, NA, 999, 999, 5, 31, 93, 128, 95, 147, 133, 135, 3, 0.970978
88, 6, wb, filler, NA, 999, 999, 5, 32, 100, 131, 58, 67, 66, 195, 2, 1.33806
88, 6, wb, filler, NA, 999, 999, 5, 32, 100, 131, 58, 67, 66, 195, 1, 0.802813
88, 6, wb, attraction, a-b-da, 5, 3, 5, 33, 190, 117, 195, 120, 120, 195, 2, 3.33659
88, 6, wb, attraction, a-b-da, 5, 3, 5, 33, 190, 117, 195, 120, 120, 195, 3, 0.881567
88, 6, wb, attraction, a-b-db, 2, 1, 5, 34, 59, 134, 60, 135, 135, 60, 2, 1.52385
88, 6, wb, attraction, a-b-db, 2, 1, 5, 34, 59, 134, 60, 135, 135, 60, 3, 0.709301
88, 6, wb, filler, NA, 999, 999, 5, 35, 160, 88, 59, 170, 74, 82, 3, 1.23834
88, 6, wb, filler, NA, 999, 999, 5, 35, 160, 88, 59, 170, 74, 82, 1, 0.763217
88, 6, wb, attraction, a-b-db, 2, 2, 5, 36, 89, 163, 90, 165, 165, 90, 1, 1.20228
88, 6, wb, attraction, a-b-db, 2, 2, 5, 36, 89, 163, 90, 165, 165, 90, 3, 0.61719
88, 6, wb, attraction, a-b-da, 9, 3, 5, 37, 186, 114, 120, 195, 195, 120, 1, 1.26239
88, 6, wb, attraction, a-b-da, 9, 3, 5, 37, 186, 114, 120, 195, 195, 120, 2, 0.842561
88, 6, wb, catch, NA, 999, 999, 6, 1, 82, 113, 121, 134, 180, 135, 1, 0.702243
88, 6, wb, catch, NA, 999, 999, 6, 1, 82, 113, 121, 134, 180, 135, 3, 0.569312
88, 6, wb, filler, NA, 999, 999, 6, 2, 141, 136, 113, 126, 85, 166, 2, 1.61655
88, 6, wb, filler, NA, 999, 999, 6, 2, 141, 136, 113, 126, 85, 166, 1, 0.718609
88, 6, wb, attraction, a-b-da, 2, 3, 6, 3, 120, 195, 193, 119, 195, 120, 1, 1.88757
88, 6, wb, attraction, a-b-da, 2, 3, 6, 3, 120, 195, 193, 119, 195, 120, 3, 0.730424
88, 6, wb, attraction, a-b-da, 9, 1, 6, 4, 135, 60, 60, 135, 129, 57, 3, 1.25878
88, 6, wb, attraction, a-b-da, 9, 1, 6, 4, 135, 60, 60, 135, 129, 57, 1, 2.91911
88, 6, wb, attraction, a-b-db, 5, 2, 6, 5, 88, 161, 90, 165, 165, 90, 1, 1.12734
88, 6, wb, attraction, a-b-db, 5, 2, 6, 5, 88, 161, 90, 165, 165, 90, 2, 1.14502
88, 6, wb, attraction, a-b-da, 2, 1, 6, 6, 135, 60, 60, 135, 134, 59, 3, 1.13658
88, 6, wb, attraction, a-b-da, 2, 1, 6, 6, 135, 60, 60, 135, 134, 59, 1, 1.84218
88, 6, wb, attraction, a-b-db, 9, 2, 6, 7, 90, 165, 165, 90, 86, 157, 3, 1.94969
88, 6, wb, attraction, a-b-db, 9, 2, 6, 7, 90, 165, 165, 90, 86, 157, 2, 1.70243
88, 6, wb, filler, NA, 999, 999, 6, 8, 152, 80, 173, 168, 181, 127, 1, 1.2157
88, 6, wb, filler, NA, 999, 999, 6, 8, 152, 80, 173, 168, 181, 127, 2, 0.485892
88, 6, wb, attraction, a-b-db, 9, 1, 6, 9, 57, 129, 135, 60, 60, 135, 1, 1.0563
88, 6, wb, attraction, a-b-db, 9, 1, 6, 9, 57, 129, 135, 60, 60, 135, 2, 2.14079
88, 6, wb, filler, NA, 999, 999, 6, 10, 175, 161, 95, 98, 100, 73, 3, 1.06002
88, 6, wb, filler, NA, 999, 999, 6, 10, 175, 161, 95, 98, 100, 73, 1, 0.624246
88, 6, wb, attraction, a-b-db, 14, 3, 6, 11, 120, 195, 195, 120, 111, 181, 3, 1.30875
88, 6, wb, attraction, a-b-db, 14, 3, 6, 11, 120, 195, 195, 120, 111, 181, 2, 0.702899
88, 6, wb, attraction, a-b-da, 2, 2, 6, 12, 90, 165, 165, 90, 163, 89, 3, 1.04863
88, 6, wb, attraction, a-b-da, 2, 2, 6, 12, 90, 165, 165, 90, 163, 89, 1, 0.901621
88, 6, wb, attraction, a-b-da, 5, 1, 6, 13, 135, 60, 132, 58, 60, 135, 2, 2.19129
88, 6, wb, attraction, a-b-da, 5, 1, 6, 13, 135, 60, 132, 58, 60, 135, 3, 1.07791
88, 6, wb, attraction, a-b-da, 5, 3, 6, 14, 195, 120, 190, 117, 120, 195, 2, 2.09615
88, 6, wb, attraction, a-b-da, 5, 3, 6, 14, 195, 120, 190, 117, 120, 195, 3, 0.506984
88, 6, wb, filler, NA, 999, 999, 6, 15, 63, 98, 73, 167, 133, 171, 1, 0.899876
88, 6, wb, filler, NA, 999, 999, 6, 15, 63, 98, 73, 167, 133, 171, 3, 0.582924
88, 6, wb, attraction, a-b-da, 9, 3, 6, 16, 120, 195, 186, 114, 195, 120, 3, 1.74934
88, 6, wb, attraction, a-b-da, 9, 3, 6, 16, 120, 195, 186, 114, 195, 120, 1, 0.630136
88, 6, wb, attraction, a-b-db, 2, 1, 6, 17, 135, 60, 59, 134, 60, 135, 2, 1.23456
88, 6, wb, attraction, a-b-db, 2, 1, 6, 17, 135, 60, 59, 134, 60, 135, 1, 0.528234
88, 6, wb, attraction, a-b-da, 14, 1, 6, 18, 125, 56, 135, 60, 60, 135, 3, 1.32069
88, 6, wb, attraction, a-b-da, 14, 1, 6, 18, 125, 56, 135, 60, 60, 135, 1, 0.530925
88, 6, wb, attraction, a-b-db, 14, 2, 6, 19, 165, 90, 83, 153, 90, 165, 2, 1.34731
88, 6, wb, attraction, a-b-db, 14, 2, 6, 19, 165, 90, 83, 153, 90, 165, 3, 0.556125
88, 6, wb, attraction, a-b-da, 9, 2, 6, 20, 90, 165, 165, 90, 157, 86, 3, 1.09924
88, 6, wb, attraction, a-b-da, 9, 2, 6, 20, 90, 165, 165, 90, 157, 86, 1, 0.782307
88, 6, wb, attraction, a-b-db, 9, 3, 6, 21, 195, 120, 114, 186, 120, 195, 2, 1.87651
88, 6, wb, attraction, a-b-db, 9, 3, 6, 21, 195, 120, 114, 186, 120, 195, 1, 0.767878
88, 6, wb, attraction, a-b-db, 5, 3, 6, 22, 195, 120, 120, 195, 117, 190, 3, 1.33493
88, 6, wb, attraction, a-b-db, 5, 3, 6, 22, 195, 120, 120, 195, 117, 190, 1, 1.20848
88, 6, wb, catch, NA, 999, 999, 6, 23, 102, 153, 81, 114, 177, 138, 2, 0.749362
88, 6, wb, catch, NA, 999, 999, 6, 23, 102, 153, 81, 114, 177, 138, 3, 0.422455
88, 6, wb, filler, NA, 999, 999, 6, 24, 137, 99, 156, 122, 91, 140, 3, 1.08364
88, 6, wb, filler, NA, 999, 999, 6, 24, 137, 99, 156, 122, 91, 140, 2, 1.16733
88, 6, wb, attraction, a-b-db, 14, 1, 6, 25, 60, 135, 135, 60, 56, 125, 3, 1.3982
88, 6, wb, attraction, a-b-db, 14, 1, 6, 25, 60, 135, 135, 60, 56, 125, 2, 0.765201
88, 6, wb, filler, NA, 999, 999, 6, 26, 167, 121, 122, 192, 151, 99, 3, 0.92405
88, 6, wb, filler, NA, 999, 999, 6, 26, 167, 121, 122, 192, 151, 99, 2, 0.741782
88, 6, wb, attraction, a-b-db, 2, 3, 6, 27, 119, 193, 195, 120, 120, 195, 1, 5.90147
88, 6, wb, attraction, a-b-db, 2, 3, 6, 27, 119, 193, 195, 120, 120, 195, 2, 0.487043
88, 6, wb, attraction, a-b-da, 14, 2, 6, 28, 165, 90, 90, 165, 153, 83, 3, 1.64946
88, 6, wb, attraction, a-b-da, 14, 2, 6, 28, 165, 90, 90, 165, 153, 83, 1, 1.87015
88, 6, wb, catch, NA, 999, 999, 6, 29, 177, 138, 142, 113, 113, 82, 3, 1.033
88, 6, wb, catch, NA, 999, 999, 6, 29, 177, 138, 142, 113, 113, 82, 1, 0.478498
88, 6, wb, attraction, a-b-da, 5, 2, 6, 30, 90, 165, 165, 90, 161, 88, 3, 1.46496
88, 6, wb, attraction, a-b-da, 5, 2, 6, 30, 90, 165, 165, 90, 161, 88, 2, 0.605169
88, 6, wb, filler, NA, 999, 999, 6, 31, 61, 70, 91, 72, 142, 106, 1, 2.16288
88, 6, wb, filler, NA, 999, 999, 6, 31, 61, 70, 91, 72, 142, 106, 3, 0.578914
88, 6, wb, attraction, a-b-db, 2, 2, 6, 32, 165, 90, 89, 163, 90, 165, 2, 3.41733
88, 6, wb, attraction, a-b-db, 2, 2, 6, 32, 165, 90, 89, 163, 90, 165, 1, 1.07891
88, 6, wb, filler, NA, 999, 999, 6, 33, 85, 128, 185, 121, 186, 58, 3, 1.28127
88, 6, wb, filler, NA, 999, 999, 6, 33, 85, 128, 185, 121, 186, 58, 2, 0.484736
88, 6, wb, filler, NA, 999, 999, 6, 34, 83, 94, 91, 148, 94, 160, 1, 1.27916
88, 6, wb, filler, NA, 999, 999, 6, 34, 83, 94, 91, 148, 94, 160, 3, 0.770768
88, 6, wb, filler, NA, 999, 999, 6, 35, 163, 171, 169, 80, 132, 156, 2, 0.873847
88, 6, wb, filler, NA, 999, 999, 6, 35, 163, 171, 169, 80, 132, 156, 1, 0.877668
88, 6, wb, attraction, a-b-db, 5, 1, 6, 36, 58, 132, 135, 60, 60, 135, 1, 1.11991
88, 6, wb, attraction, a-b-db, 5, 1, 6, 36, 58, 132, 135, 60, 60, 135, 2, 0.834177
88, 6, wb, attraction, a-b-da, 14, 3, 6, 37, 181, 111, 195, 120, 120, 195, 1, 1.09443
88, 6, wb, attraction, a-b-da, 14, 3, 6, 37, 181, 111, 195, 120, 120, 195, 3, 0.745441
88, 6, wb, attraction, a-b-da, 9, 2, 7, 1, 165, 90, 90, 165, 157, 86, 3, 1.44918
88, 6, wb, attraction, a-b-da, 9, 2, 7, 1, 165, 90, 90, 165, 157, 86, 2, 0.814001
88, 6, wb, filler, NA, 999, 999, 7, 2, 123, 189, 132, 89, 171, 152, 2, 0.690959
88, 6, wb, filler, NA, 999, 999, 7, 2, 123, 189, 132, 89, 171, 152, 3, 0.694122
88, 6, wb, attraction, a-b-da, 14, 2, 7, 3, 165, 90, 90, 165, 153, 83, 3, 1.13582
88, 6, wb, attraction, a-b-da, 14, 2, 7, 3, 165, 90, 90, 165, 153, 83, 1, 2.33745
88, 6, wb, attraction, a-b-db, 14, 2, 7, 4, 90, 165, 83, 153, 165, 90, 3, 2.61734
88, 6, wb, attraction, a-b-db, 14, 2, 7, 4, 90, 165, 83, 153, 165, 90, 1, 2.1592
88, 6, wb, attraction, a-b-da, 5, 3, 7, 5, 190, 117, 120, 195, 195, 120, 2, 1.29388
88, 6, wb, attraction, a-b-da, 5, 3, 7, 5, 190, 117, 120, 195, 195, 120, 3, 5.08073
88, 6, wb, attraction, a-b-da, 14, 1, 7, 6, 125, 56, 60, 135, 135, 60, 2, 4.2417
88, 6, wb, attraction, a-b-da, 14, 1, 7, 6, 125, 56, 60, 135, 135, 60, 3, 0.621669
88, 6, wb, attraction, a-b-da, 5, 1, 7, 7, 135, 60, 60, 135, 132, 58, 2, 1.1468
88, 6, wb, attraction, a-b-da, 5, 1, 7, 7, 135, 60, 60, 135, 132, 58, 3, 0.555676
88, 6, wb, attraction, a-b-da, 2, 3, 7, 8, 195, 120, 193, 119, 120, 195, 2, 1.97155
88, 6, wb, attraction, a-b-da, 2, 3, 7, 8, 195, 120, 193, 119, 120, 195, 1, 2.72281
88, 6, wb, filler, NA, 999, 999, 7, 9, 109, 89, 131, 118, 124, 157, 1, 1.57116
88, 6, wb, filler, NA, 999, 999, 7, 9, 109, 89, 131, 118, 124, 157, 3, 0.618888
88, 6, wb, catch, NA, 999, 999, 7, 10, 172, 143, 115, 140, 79, 116, 3, 0.767757
88, 6, wb, catch, NA, 999, 999, 7, 10, 172, 143, 115, 140, 79, 116, 1, 0.41617
88, 6, wb, filler, NA, 999, 999, 7, 11, 136, 134, 112, 92, 56, 72, 3, 0.645341
88, 6, wb, filler, NA, 999, 999, 7, 11, 136, 134, 112, 92, 56, 72, 1, 0.442554
88, 6, wb, filler, NA, 999, 999, 7, 12, 185, 70, 82, 59, 68, 192, 2, 1.08616
88, 6, wb, filler, NA, 999, 999, 7, 12, 185, 70, 82, 59, 68, 192, 3, 2.48994
88, 6, wb, attraction, a-b-db, 9, 1, 7, 13, 60, 135, 135, 60, 57, 129, 3, 0.955757
88, 6, wb, attraction, a-b-db, 9, 1, 7, 13, 60, 135, 135, 60, 57, 129, 2, 1.0681
88, 6, wb, attraction, a-b-db, 5, 1, 7, 14, 58, 132, 135, 60, 60, 135, 3, 1.23904
88, 6, wb, attraction, a-b-db, 5, 1, 7, 14, 58, 132, 135, 60, 60, 135, 2, 0.835934
88, 6, wb, attraction, a-b-da, 9, 1, 7, 15, 129, 57, 60, 135, 135, 60, 1, 2.26431
88, 6, wb, attraction, a-b-da, 9, 1, 7, 15, 129, 57, 60, 135, 135, 60, 3, 1.10828
88, 6, wb, attraction, a-b-db, 2, 2, 7, 16, 89, 163, 90, 165, 165, 90, 1, 0.837116
88, 6, wb, attraction, a-b-db, 2, 2, 7, 16, 89, 163, 90, 165, 165, 90, 3, 0.938799
88, 6, wb, attraction, a-b-da, 5, 2, 7, 17, 165, 90, 90, 165, 161, 88, 3, 1.64324
88, 6, wb, attraction, a-b-da, 5, 2, 7, 17, 165, 90, 90, 165, 161, 88, 2, 0.672035
88, 6, wb, attraction, a-b-db, 14, 3, 7, 18, 195, 120, 111, 181, 120, 195, 2, 2.13905
88, 6, wb, attraction, a-b-db, 14, 3, 7, 18, 195, 120, 111, 181, 120, 195, 1, 1.37975
88, 6, wb, attraction, a-b-db, 9, 3, 7, 19, 120, 195, 195, 120, 114, 186, 3, 1.88983
88, 6, wb, attraction, a-b-db, 9, 3, 7, 19, 120, 195, 195, 120, 114, 186, 2, 0.932528
88, 6, wb, attraction, a-b-da, 2, 1, 7, 20, 135, 60, 60, 135, 134, 59, 3, 2.75693
88, 6, wb, attraction, a-b-da, 2, 1, 7, 20, 135, 60, 60, 135, 134, 59, 1, 3.20478
88, 6, wb, attraction, a-b-da, 2, 2, 7, 21, 165, 90, 90, 165, 163, 89, 1, 2.61762
88, 6, wb, attraction, a-b-da, 2, 2, 7, 21, 165, 90, 90, 165, 163, 89, 2, 1.4554
88, 6, wb, filler, NA, 999, 999, 7, 22, 179, 60, 145, 142, 137, 110, 1, 1.29897
88, 6, wb, filler, NA, 999, 999, 7, 22, 179, 60, 145, 142, 137, 110, 2, 0.805762
88, 6, wb, filler, NA, 999, 999, 7, 23, 132, 99, 91, 124, 120, 145, 2, 1.68356
88, 6, wb, filler, NA, 999, 999, 7, 23, 132, 99, 91, 124, 120, 145, 3, 0.598916
88, 6, wb, filler, NA, 999, 999, 7, 24, 85, 137, 84, 150, 94, 101, 3, 0.82075
88, 6, wb, filler, NA, 999, 999, 7, 24, 85, 137, 84, 150, 94, 101, 2, 0.786377
88, 6, wb, catch, NA, 999, 999, 7, 25, 138, 177, 142, 113, 106, 89, 3, 0.712766
88, 6, wb, catch, NA, 999, 999, 7, 25, 138, 177, 142, 113, 106, 89, 1, 0.715215
88, 6, wb, attraction, a-b-db, 5, 3, 7, 26, 195, 120, 120, 195, 117, 190, 3, 2.31624
88, 6, wb, attraction, a-b-db, 5, 3, 7, 26, 195, 120, 120, 195, 117, 190, 1, 0.934175
88, 6, wb, attraction, a-b-da, 14, 3, 7, 27, 181, 111, 120, 195, 195, 120, 1, 3.15046
88, 6, wb, attraction, a-b-da, 14, 3, 7, 27, 181, 111, 120, 195, 195, 120, 3, 0.510896
88, 6, wb, attraction, a-b-db, 5, 2, 7, 28, 88, 161, 90, 165, 165, 90, 3, 0.863938
88, 6, wb, attraction, a-b-db, 5, 2, 7, 28, 88, 161, 90, 165, 165, 90, 2, 0.956357
88, 6, wb, attraction, a-b-db, 14, 1, 7, 29, 60, 135, 56, 125, 135, 60, 2, 1.49925
88, 6, wb, attraction, a-b-db, 14, 1, 7, 29, 60, 135, 56, 125, 135, 60, 3, 0.998074
88, 6, wb, attraction, a-b-db, 2, 3, 7, 30, 119, 193, 195, 120, 120, 195, 1, 5.13176
88, 6, wb, attraction, a-b-db, 2, 3, 7, 30, 119, 193, 195, 120, 120, 195, 2, 0.588071
88, 6, wb, filler, NA, 999, 999, 7, 31, 189, 60, 191, 165, 167, 93, 1, 1.01049
88, 6, wb, filler, NA, 999, 999, 7, 31, 189, 60, 191, 165, 167, 93, 2, 0.464849
88, 6, wb, attraction, a-b-db, 9, 2, 7, 32, 86, 157, 90, 165, 165, 90, 1, 1.748
88, 6, wb, attraction, a-b-db, 9, 2, 7, 32, 86, 157, 90, 165, 165, 90, 2, 3.0129
88, 6, wb, filler, NA, 999, 999, 7, 33, 95, 188, 157, 59, 157, 56, 2, 2.14516
88, 6, wb, filler, NA, 999, 999, 7, 33, 95, 188, 157, 59, 157, 56, 1, 0.529791
88, 6, wb, filler, NA, 999, 999, 7, 34, 95, 134, 184, 143, 119, 189, 1, 0.810138
88, 6, wb, filler, NA, 999, 999, 7, 34, 95, 134, 184, 143, 119, 189, 2, 1.02448
88, 6, wb, attraction, a-b-da, 9, 3, 7, 35, 120, 195, 186, 114, 195, 120, 3, 1.30078
88, 6, wb, attraction, a-b-da, 9, 3, 7, 35, 120, 195, 186, 114, 195, 120, 1, 2.87174
88, 6, wb, catch, NA, 999, 999, 7, 36, 165, 90, 195, 120, 116, 79, 3, 0.93804
88, 6, wb, catch, NA, 999, 999, 7, 36, 165, 90, 195, 120, 116, 79, 2, 0.579223
88, 6, wb, attraction, a-b-db, 2, 1, 7, 37, 135, 60, 60, 135, 59, 134, 1, 1.01754
88, 6, wb, attraction, a-b-db, 2, 1, 7, 37, 135, 60, 60, 135, 59, 134, 3, 0.919911
88, 6, wb, attraction, a-b-db, 5, 2, 8, 1, 90, 165, 165, 90, 88, 161, 2, 1.26486
88, 6, wb, attraction, a-b-db, 5, 2, 8, 1, 90, 165, 165, 90, 88, 161, 1, 0.749133
88, 6, wb, attraction, a-b-da, 9, 2, 8, 2, 157, 86, 165, 90, 90, 165, 1, 1.05288
88, 6, wb, attraction, a-b-da, 9, 2, 8, 2, 157, 86, 165, 90, 90, 165, 3, 0.537832
88, 6, wb, attraction, a-b-db, 14, 1, 8, 3, 60, 135, 56, 125, 135, 60, 2, 0.754293
88, 6, wb, attraction, a-b-db, 14, 1, 8, 3, 60, 135, 56, 125, 135, 60, 3, 0.754698
88, 6, wb, catch, NA, 999, 999, 8, 4, 86, 109, 129, 186, 140, 115, 1, 0.69033
88, 6, wb, catch, NA, 999, 999, 8, 4, 86, 109, 129, 186, 140, 115, 2, 0.525428
88, 6, wb, filler, NA, 999, 999, 8, 5, 91, 144, 188, 92, 88, 155, 3, 1.33388
88, 6, wb, filler, NA, 999, 999, 8, 5, 91, 144, 188, 92, 88, 155, 2, 0.615412
88, 6, wb, attraction, a-b-da, 5, 1, 8, 6, 132, 58, 60, 135, 135, 60, 2, 0.980486
88, 6, wb, attraction, a-b-da, 5, 1, 8, 6, 132, 58, 60, 135, 135, 60, 1, 0.476189
88, 6, wb, catch, NA, 999, 999, 8, 7, 75, 120, 133, 182, 99, 156, 1, 0.806634
88, 6, wb, catch, NA, 999, 999, 8, 7, 75, 120, 133, 182, 99, 156, 2, 0.340967
88, 6, wb, attraction, a-b-db, 2, 2, 8, 8, 90, 165, 165, 90, 89, 163, 2, 0.836938
88, 6, wb, attraction, a-b-db, 2, 2, 8, 8, 90, 165, 165, 90, 89, 163, 1, 0.618521
88, 6, wb, catch, NA, 999, 999, 8, 9, 74, 121, 111, 144, 152, 163, 1, 0.911568
88, 6, wb, catch, NA, 999, 999, 8, 9, 74, 121, 111, 144, 152, 163, 3, 0.466137
88, 6, wb, attraction, a-b-db, 5, 1, 8, 10, 60, 135, 135, 60, 58, 132, 3, 0.997214
88, 6, wb, attraction, a-b-db, 5, 1, 8, 10, 60, 135, 135, 60, 58, 132, 1, 1.41212
88, 6, wb, attraction, a-b-da, 2, 3, 8, 11, 195, 120, 193, 119, 120, 195, 2, 0.94506
88, 6, wb, attraction, a-b-da, 2, 3, 8, 11, 195, 120, 193, 119, 120, 195, 1, 0.681906
88, 6, wb, filler, NA, 999, 999, 8, 12, 117, 58, 155, 159, 157, 80, 1, 0.820312
88, 6, wb, filler, NA, 999, 999, 8, 12, 117, 58, 155, 159, 157, 80, 2, 0.410729
88, 6, wb, attraction, a-b-da, 14, 2, 8, 13, 153, 83, 90, 165, 165, 90, 1, 1.47994
88, 6, wb, attraction, a-b-da, 14, 2, 8, 13, 153, 83, 90, 165, 165, 90, 3, 1.85142
88, 6, wb, filler, NA, 999, 999, 8, 14, 174, 114, 56, 156, 93, 101, 2, 0.77474
88, 6, wb, filler, NA, 999, 999, 8, 14, 174, 114, 56, 156, 93, 101, 1, 0.774431
88, 6, wb, attraction, a-b-da, 14, 3, 8, 15, 195, 120, 120, 195, 181, 111, 3, 1.92488
88, 6, wb, attraction, a-b-da, 14, 3, 8, 15, 195, 120, 120, 195, 181, 111, 2, 1.35821
88, 6, wb, attraction, a-b-da, 2, 2, 8, 16, 165, 90, 90, 165, 163, 89, 2, 1.15711
88, 6, wb, attraction, a-b-da, 2, 2, 8, 16, 165, 90, 90, 165, 163, 89, 1, 0.533309
88, 6, wb, attraction, a-b-da, 14, 1, 8, 17, 135, 60, 125, 56, 60, 135, 3, 1.18189
88, 6, wb, attraction, a-b-da, 14, 1, 8, 17, 135, 60, 125, 56, 60, 135, 1, 0.981438
88, 6, wb, attraction, a-b-da, 2, 1, 8, 18, 60, 135, 134, 59, 135, 60, 2, 0.995699
88, 6, wb, attraction, a-b-da, 2, 1, 8, 18, 60, 135, 134, 59, 135, 60, 1, 0.970668
88, 6, wb, filler, NA, 999, 999, 8, 19, 162, 117, 179, 70, 118, 185, 2, 1.80163
88, 6, wb, filler, NA, 999, 999, 8, 19, 162, 117, 179, 70, 118, 185, 1, 2.37655
88, 6, wb, attraction, a-b-db, 2, 3, 8, 20, 119, 193, 120, 195, 195, 120, 3, 1.92632
88, 6, wb, attraction, a-b-db, 2, 3, 8, 20, 119, 193, 120, 195, 195, 120, 2, 0.607672
88, 6, wb, attraction, a-b-da, 9, 3, 8, 21, 195, 120, 120, 195, 186, 114, 3, 1.36467
88, 6, wb, attraction, a-b-da, 9, 3, 8, 21, 195, 120, 120, 195, 186, 114, 1, 1.17297
88, 6, wb, attraction, a-b-db, 9, 3, 8, 22, 114, 186, 120, 195, 195, 120, 2, 2.99526
88, 6, wb, attraction, a-b-db, 9, 3, 8, 22, 114, 186, 120, 195, 195, 120, 3, 0.409563
88, 6, wb, attraction, a-b-db, 9, 2, 8, 23, 86, 157, 165, 90, 90, 165, 2, 0.854663
88, 6, wb, attraction, a-b-db, 9, 2, 8, 23, 86, 157, 165, 90, 90, 165, 3, 1.1072
88, 6, wb, attraction, a-b-da, 9, 1, 8, 24, 60, 135, 135, 60, 129, 57, 3, 0.947981
88, 6, wb, attraction, a-b-da, 9, 1, 8, 24, 60, 135, 135, 60, 129, 57, 2, 1.60495
88, 6, wb, attraction, a-b-db, 14, 3, 8, 25, 111, 181, 195, 120, 120, 195, 2, 1.83443
88, 6, wb, attraction, a-b-db, 14, 3, 8, 25, 111, 181, 195, 120, 120, 195, 1, 0.527921
88, 6, wb, attraction, a-b-db, 14, 2, 8, 26, 83, 153, 90, 165, 165, 90, 1, 0.880263
88, 6, wb, attraction, a-b-db, 14, 2, 8, 26, 83, 153, 90, 165, 165, 90, 3, 0.52401
88, 6, wb, filler, NA, 999, 999, 8, 27, 102, 108, 115, 174, 82, 88, 3, 0.9805
88, 6, wb, filler, NA, 999, 999, 8, 27, 102, 108, 115, 174, 82, 88, 2, 0.46004
88, 6, wb, filler, NA, 999, 999, 8, 28, 194, 179, 134, 185, 76, 81, 3, 0.911222
88, 6, wb, filler, NA, 999, 999, 8, 28, 194, 179, 134, 185, 76, 81, 1, 0.681536
88, 6, wb, attraction, a-b-db, 9, 1, 8, 29, 57, 129, 135, 60, 60, 135, 1, 1.22816
88, 6, wb, attraction, a-b-db, 9, 1, 8, 29, 57, 129, 135, 60, 60, 135, 2, 0.753518
88, 6, wb, filler, NA, 999, 999, 8, 30, 64, 160, 178, 172, 157, 58, 3, 2.84129
88, 6, wb, filler, NA, 999, 999, 8, 30, 64, 160, 178, 172, 157, 58, 2, 0.813694
88, 6, wb, attraction, a-b-da, 5, 2, 8, 31, 161, 88, 165, 90, 90, 165, 2, 1.90689
88, 6, wb, attraction, a-b-da, 5, 2, 8, 31, 161, 88, 165, 90, 90, 165, 3, 1.48478
88, 6, wb, filler, NA, 999, 999, 8, 32, 186, 67, 111, 75, 147, 187, 2, 0.774903
88, 6, wb, filler, NA, 999, 999, 8, 32, 186, 67, 111, 75, 147, 187, 3, 0.40663
88, 6, wb, filler, NA, 999, 999, 8, 33, 157, 105, 59, 175, 120, 72, 2, 0.795723
88, 6, wb, filler, NA, 999, 999, 8, 33, 157, 105, 59, 175, 120, 72, 1, 0.450835
88, 6, wb, attraction, a-b-da, 5, 3, 8, 34, 120, 195, 195, 120, 190, 117, 2, 1.51081
88, 6, wb, attraction, a-b-da, 5, 3, 8, 34, 120, 195, 195, 120, 190, 117, 3, 0.51279
88, 6, wb, filler, NA, 999, 999, 8, 35, 169, 90, 79, 68, 165, 142, 2, 0.937934
88, 6, wb, filler, NA, 999, 999, 8, 35, 169, 90, 79, 68, 165, 142, 3, 0.611097
88, 6, wb, attraction, a-b-db, 5, 3, 8, 36, 120, 195, 195, 120, 117, 190, 2, 1.55218
88, 6, wb, attraction, a-b-db, 5, 3, 8, 36, 120, 195, 195, 120, 117, 190, 1, 1.47279
88, 6, wb, attraction, a-b-db, 2, 1, 8, 37, 60, 135, 59, 134, 135, 60, 2, 0.971715
88, 6, wb, attraction, a-b-db, 2, 1, 8, 37, 60, 135, 59, 134, 135, 60, 3, 0.651481
