sub_n, computer_n, bw_cond, effect, set, distance, diag, block_n, trial_n, h1, w1, h2, w2, h3, w3, choice, rt 
82, 6, wb, practice, NA, 999, 999, 0, 1, 124, 65, 140, 136, 139, 78, 1, 5.07309
82, 6, wb, practice, NA, 999, 999, 0, 1, 124, 65, 140, 136, 139, 78, 2, 5.18865
82, 6, wb, practice, NA, 999, 999, 0, 2, 142, 84, 171, 132, 87, 65, 3, 3.74097
82, 6, wb, practice, NA, 999, 999, 0, 2, 142, 84, 171, 132, 87, 65, 2, 4.25591
82, 6, wb, practice, NA, 999, 999, 0, 3, 176, 142, 149, 64, 181, 86, 2, 3.88505
82, 6, wb, practice, NA, 999, 999, 0, 3, 176, 142, 149, 64, 181, 86, 1, 1.15336
82, 6, wb, attraction, a-b-db, 5, 1, 1, 1, 60, 135, 135, 60, 58, 132, 2, 6.17932
82, 6, wb, attraction, a-b-db, 5, 1, 1, 1, 60, 135, 135, 60, 58, 132, 1, 5.86516
82, 6, wb, attraction, a-b-db, 9, 2, 1, 2, 90, 165, 165, 90, 86, 157, 2, 8.22667
82, 6, wb, attraction, a-b-db, 9, 2, 1, 2, 90, 165, 165, 90, 86, 157, 1, 4.43015
82, 6, wb, attraction, a-b-db, 5, 3, 1, 3, 120, 195, 117, 190, 195, 120, 2, 11.1852
82, 6, wb, attraction, a-b-db, 5, 3, 1, 3, 120, 195, 117, 190, 195, 120, 3, 1.67775
82, 6, wb, attraction, a-b-da, 2, 2, 1, 4, 165, 90, 163, 89, 90, 165, 2, 6.74386
82, 6, wb, attraction, a-b-da, 2, 2, 1, 4, 165, 90, 163, 89, 90, 165, 3, 11.6791
82, 6, wb, catch, NA, 999, 999, 1, 5, 96, 159, 143, 172, 73, 122, 3, 2.35807
82, 6, wb, catch, NA, 999, 999, 1, 5, 96, 159, 143, 172, 73, 122, 2, 1.24584
82, 6, wb, catch, NA, 999, 999, 1, 6, 126, 129, 91, 104, 130, 185, 2, 2.39343
82, 6, wb, catch, NA, 999, 999, 1, 6, 126, 129, 91, 104, 130, 185, 3, 0.840057
82, 6, wb, filler, NA, 999, 999, 1, 7, 166, 76, 109, 95, 72, 109, 3, 3.06768
82, 6, wb, filler, NA, 999, 999, 1, 7, 166, 76, 109, 95, 72, 109, 1, 1.64731
82, 6, wb, filler, NA, 999, 999, 1, 8, 180, 93, 58, 60, 168, 121, 2, 1.9309
82, 6, wb, filler, NA, 999, 999, 1, 8, 180, 93, 58, 60, 168, 121, 3, 7.88431
82, 6, wb, filler, NA, 999, 999, 1, 9, 171, 92, 60, 62, 156, 97, 2, 1.8523
82, 6, wb, filler, NA, 999, 999, 1, 9, 171, 92, 60, 62, 156, 97, 1, 9.46513
82, 6, wb, attraction, a-b-db, 2, 1, 1, 10, 59, 134, 135, 60, 60, 135, 2, 18.3453
82, 6, wb, attraction, a-b-db, 2, 1, 1, 10, 59, 134, 135, 60, 60, 135, 3, 0.868968
82, 6, wb, filler, NA, 999, 999, 1, 11, 68, 178, 192, 153, 111, 133, 1, 2.14403
82, 6, wb, filler, NA, 999, 999, 1, 11, 68, 178, 192, 153, 111, 133, 2, 1.28051
82, 6, wb, attraction, a-b-da, 5, 2, 1, 12, 161, 88, 165, 90, 90, 165, 2, 9.65882
82, 6, wb, attraction, a-b-da, 5, 2, 1, 12, 161, 88, 165, 90, 90, 165, 3, 0.964443
82, 6, wb, attraction, a-b-db, 9, 3, 1, 13, 114, 186, 120, 195, 195, 120, 1, 5.97148
82, 6, wb, attraction, a-b-db, 9, 3, 1, 13, 114, 186, 120, 195, 195, 120, 3, 2.3535
82, 6, wb, filler, NA, 999, 999, 1, 14, 140, 171, 74, 183, 85, 135, 3, 11.8327
82, 6, wb, filler, NA, 999, 999, 1, 14, 140, 171, 74, 183, 85, 135, 1, 0.979007
82, 6, wb, attraction, a-b-da, 5, 3, 1, 15, 195, 120, 190, 117, 120, 195, 1, 7.3212
82, 6, wb, attraction, a-b-da, 5, 3, 1, 15, 195, 120, 190, 117, 120, 195, 3, 1.04956
82, 6, wb, filler, NA, 999, 999, 1, 16, 187, 67, 153, 146, 176, 112, 1, 5.06917
82, 6, wb, filler, NA, 999, 999, 1, 16, 187, 67, 153, 146, 176, 112, 2, 1.28825
82, 6, wb, attraction, a-b-da, 9, 2, 1, 17, 165, 90, 157, 86, 90, 165, 2, 3.01054
82, 6, wb, attraction, a-b-da, 9, 2, 1, 17, 165, 90, 157, 86, 90, 165, 1, 4.84821
82, 6, wb, attraction, a-b-da, 9, 3, 1, 18, 120, 195, 195, 120, 186, 114, 3, 7.63479
82, 6, wb, attraction, a-b-da, 9, 3, 1, 18, 120, 195, 195, 120, 186, 114, 1, 0.734161
82, 6, wb, attraction, a-b-da, 2, 1, 1, 19, 134, 59, 135, 60, 60, 135, 2, 6.08655
82, 6, wb, attraction, a-b-da, 2, 1, 1, 19, 134, 59, 135, 60, 60, 135, 3, 4.9607
82, 6, wb, attraction, a-b-db, 14, 2, 1, 20, 83, 153, 165, 90, 90, 165, 1, 3.5504
82, 6, wb, attraction, a-b-db, 14, 2, 1, 20, 83, 153, 165, 90, 90, 165, 3, 2.71057
82, 6, wb, attraction, a-b-db, 14, 1, 1, 21, 60, 135, 56, 125, 135, 60, 2, 8.51096
82, 6, wb, attraction, a-b-db, 14, 1, 1, 21, 60, 135, 56, 125, 135, 60, 1, 0.654913
82, 6, wb, attraction, a-b-da, 14, 2, 1, 22, 90, 165, 165, 90, 153, 83, 3, 4.08275
82, 6, wb, attraction, a-b-da, 14, 2, 1, 22, 90, 165, 165, 90, 153, 83, 1, 2.82948
82, 6, wb, attraction, a-b-da, 14, 1, 1, 23, 135, 60, 60, 135, 125, 56, 3, 3.07311
82, 6, wb, attraction, a-b-da, 14, 1, 1, 23, 135, 60, 60, 135, 125, 56, 1, 1.0362
82, 6, wb, filler, NA, 999, 999, 1, 24, 194, 141, 121, 179, 165, 190, 2, 4.9845
82, 6, wb, filler, NA, 999, 999, 1, 24, 194, 141, 121, 179, 165, 190, 3, 4.79894
82, 6, wb, filler, NA, 999, 999, 1, 25, 173, 66, 92, 115, 111, 182, 2, 4.51542
82, 6, wb, filler, NA, 999, 999, 1, 25, 173, 66, 92, 115, 111, 182, 3, 0.788554
82, 6, wb, attraction, a-b-db, 2, 2, 1, 26, 89, 163, 165, 90, 90, 165, 1, 8.01086
82, 6, wb, attraction, a-b-db, 2, 2, 1, 26, 89, 163, 165, 90, 90, 165, 3, 1.18303
82, 6, wb, attraction, a-b-db, 9, 1, 1, 27, 60, 135, 135, 60, 57, 129, 3, 5.30122
82, 6, wb, attraction, a-b-db, 9, 1, 1, 27, 60, 135, 135, 60, 57, 129, 2, 0.934876
82, 6, wb, catch, NA, 999, 999, 1, 28, 138, 177, 70, 125, 109, 146, 2, 1.81517
82, 6, wb, catch, NA, 999, 999, 1, 28, 138, 177, 70, 125, 109, 146, 1, 0.845256
82, 6, wb, attraction, a-b-da, 9, 1, 1, 29, 135, 60, 129, 57, 60, 135, 2, 9.36117
82, 6, wb, attraction, a-b-da, 9, 1, 1, 29, 135, 60, 129, 57, 60, 135, 1, 0.702706
82, 6, wb, attraction, a-b-db, 2, 3, 1, 30, 195, 120, 119, 193, 120, 195, 2, 6.28841
82, 6, wb, attraction, a-b-db, 2, 3, 1, 30, 195, 120, 119, 193, 120, 195, 1, 0.866539
82, 6, wb, attraction, a-b-da, 5, 1, 1, 31, 60, 135, 132, 58, 135, 60, 2, 4.38949
82, 6, wb, attraction, a-b-da, 5, 1, 1, 31, 60, 135, 132, 58, 135, 60, 3, 0.803311
82, 6, wb, attraction, a-b-da, 14, 3, 1, 32, 120, 195, 181, 111, 195, 120, 2, 4.05704
82, 6, wb, attraction, a-b-da, 14, 3, 1, 32, 120, 195, 181, 111, 195, 120, 1, 1.14842
82, 6, wb, attraction, a-b-db, 14, 3, 1, 33, 120, 195, 195, 120, 111, 181, 2, 8.01207
82, 6, wb, attraction, a-b-db, 14, 3, 1, 33, 120, 195, 195, 120, 111, 181, 1, 1.29625
82, 6, wb, attraction, a-b-db, 5, 2, 1, 34, 88, 161, 165, 90, 90, 165, 1, 5.83369
82, 6, wb, attraction, a-b-db, 5, 2, 1, 34, 88, 161, 165, 90, 90, 165, 3, 0.725773
82, 6, wb, filler, NA, 999, 999, 1, 35, 166, 142, 183, 184, 63, 185, 3, 1.14225
82, 6, wb, filler, NA, 999, 999, 1, 35, 166, 142, 183, 184, 63, 185, 2, 0.455113
82, 6, wb, attraction, a-b-da, 2, 3, 1, 36, 120, 195, 195, 120, 193, 119, 2, 4.25114
82, 6, wb, attraction, a-b-da, 2, 3, 1, 36, 120, 195, 195, 120, 193, 119, 1, 2.51894
82, 6, wb, filler, NA, 999, 999, 1, 37, 97, 69, 161, 90, 169, 142, 1, 1.39943
82, 6, wb, filler, NA, 999, 999, 1, 37, 97, 69, 161, 90, 169, 142, 3, 0.718319
82, 6, wb, attraction, a-b-da, 2, 2, 2, 1, 90, 165, 163, 89, 165, 90, 2, 4.59947
82, 6, wb, attraction, a-b-da, 2, 2, 2, 1, 90, 165, 163, 89, 165, 90, 1, 3.22925
82, 6, wb, filler, NA, 999, 999, 2, 2, 74, 69, 90, 76, 99, 111, 1, 1.78482
82, 6, wb, filler, NA, 999, 999, 2, 2, 74, 69, 90, 76, 99, 111, 3, 0.656221
82, 6, wb, attraction, a-b-db, 14, 2, 2, 3, 83, 153, 165, 90, 90, 165, 1, 1.5073
82, 6, wb, attraction, a-b-db, 14, 2, 2, 3, 83, 153, 165, 90, 90, 165, 3, 0.717505
82, 6, wb, attraction, a-b-db, 9, 3, 2, 4, 195, 120, 114, 186, 120, 195, 2, 4.35055
82, 6, wb, attraction, a-b-db, 9, 3, 2, 4, 195, 120, 114, 186, 120, 195, 1, 0.470464
82, 6, wb, filler, NA, 999, 999, 2, 5, 60, 102, 161, 99, 91, 140, 1, 1.68155
82, 6, wb, filler, NA, 999, 999, 2, 5, 60, 102, 161, 99, 91, 140, 2, 2.57312
82, 6, wb, attraction, a-b-db, 9, 1, 2, 6, 57, 129, 60, 135, 135, 60, 1, 2.47483
82, 6, wb, attraction, a-b-db, 9, 1, 2, 6, 57, 129, 60, 135, 135, 60, 3, 1.08608
82, 6, wb, attraction, a-b-da, 14, 1, 2, 7, 135, 60, 125, 56, 60, 135, 2, 5.65641
82, 6, wb, attraction, a-b-da, 14, 1, 2, 7, 135, 60, 125, 56, 60, 135, 1, 2.75523
82, 6, wb, attraction, a-b-db, 2, 2, 2, 8, 90, 165, 165, 90, 89, 163, 3, 6.75432
82, 6, wb, attraction, a-b-db, 2, 2, 2, 8, 90, 165, 165, 90, 89, 163, 1, 1.36951
82, 6, wb, attraction, a-b-da, 2, 1, 2, 9, 60, 135, 135, 60, 134, 59, 1, 6.79228
82, 6, wb, attraction, a-b-da, 2, 1, 2, 9, 60, 135, 135, 60, 134, 59, 3, 0.605533
82, 6, wb, attraction, a-b-db, 14, 1, 2, 10, 60, 135, 56, 125, 135, 60, 2, 2.95525
82, 6, wb, attraction, a-b-db, 14, 1, 2, 10, 60, 135, 56, 125, 135, 60, 3, 0.619003
82, 6, wb, filler, NA, 999, 999, 2, 11, 88, 172, 166, 158, 136, 118, 1, 3.60013
82, 6, wb, filler, NA, 999, 999, 2, 11, 88, 172, 166, 158, 136, 118, 2, 0.630216
82, 6, wb, attraction, a-b-da, 5, 1, 2, 12, 135, 60, 60, 135, 132, 58, 2, 1.6027
82, 6, wb, attraction, a-b-da, 5, 1, 2, 12, 135, 60, 60, 135, 132, 58, 1, 1.04951
82, 6, wb, attraction, a-b-db, 2, 3, 2, 13, 120, 195, 195, 120, 119, 193, 2, 6.01309
82, 6, wb, attraction, a-b-db, 2, 3, 2, 13, 120, 195, 195, 120, 119, 193, 1, 0.849778
82, 6, wb, attraction, a-b-da, 14, 2, 2, 14, 90, 165, 165, 90, 153, 83, 3, 7.02987
82, 6, wb, attraction, a-b-da, 14, 2, 2, 14, 90, 165, 165, 90, 153, 83, 1, 0.657326
82, 6, wb, attraction, a-b-da, 9, 2, 2, 15, 165, 90, 157, 86, 90, 165, 2, 2.34861
82, 6, wb, attraction, a-b-da, 9, 2, 2, 15, 165, 90, 157, 86, 90, 165, 3, 1.12496
82, 6, wb, attraction, a-b-db, 5, 1, 2, 16, 60, 135, 58, 132, 135, 60, 1, 2.9332
82, 6, wb, attraction, a-b-db, 5, 1, 2, 16, 60, 135, 58, 132, 135, 60, 3, 0.742253
82, 6, wb, attraction, a-b-db, 5, 3, 2, 17, 195, 120, 117, 190, 120, 195, 2, 5.82197
82, 6, wb, attraction, a-b-db, 5, 3, 2, 17, 195, 120, 117, 190, 120, 195, 1, 0.442165
82, 6, wb, attraction, a-b-db, 14, 3, 2, 18, 111, 181, 195, 120, 120, 195, 1, 2.69397
82, 6, wb, attraction, a-b-db, 14, 3, 2, 18, 111, 181, 195, 120, 120, 195, 3, 2.38437
82, 6, wb, attraction, a-b-da, 2, 3, 2, 19, 120, 195, 193, 119, 195, 120, 2, 3.02221
82, 6, wb, attraction, a-b-da, 2, 3, 2, 19, 120, 195, 193, 119, 195, 120, 1, 1.60334
82, 6, wb, attraction, a-b-db, 2, 1, 2, 20, 135, 60, 59, 134, 60, 135, 2, 11.6489
82, 6, wb, attraction, a-b-db, 2, 1, 2, 20, 135, 60, 59, 134, 60, 135, 1, 0.898277
82, 6, wb, catch, NA, 999, 999, 2, 21, 78, 117, 93, 162, 178, 137, 1, 1.444
82, 6, wb, catch, NA, 999, 999, 2, 21, 78, 117, 93, 162, 178, 137, 3, 0.625005
82, 6, wb, filler, NA, 999, 999, 2, 22, 170, 118, 166, 110, 105, 73, 3, 0.973379
82, 6, wb, filler, NA, 999, 999, 2, 22, 170, 118, 166, 110, 105, 73, 1, 0.541065
82, 6, wb, catch, NA, 999, 999, 2, 23, 84, 111, 182, 133, 114, 141, 1, 1.57279
82, 6, wb, catch, NA, 999, 999, 2, 23, 84, 111, 182, 133, 114, 141, 2, 0.588253
82, 6, wb, attraction, a-b-db, 9, 2, 2, 24, 90, 165, 165, 90, 86, 157, 3, 2.85079
82, 6, wb, attraction, a-b-db, 9, 2, 2, 24, 90, 165, 165, 90, 86, 157, 1, 0.423053
82, 6, wb, attraction, a-b-da, 5, 2, 2, 25, 161, 88, 90, 165, 165, 90, 1, 2.37152
82, 6, wb, attraction, a-b-da, 5, 2, 2, 25, 161, 88, 90, 165, 165, 90, 2, 0.338762
82, 6, wb, attraction, a-b-db, 5, 2, 2, 26, 165, 90, 88, 161, 90, 165, 2, 4.21126
82, 6, wb, attraction, a-b-db, 5, 2, 2, 26, 165, 90, 88, 161, 90, 165, 1, 0.624621
82, 6, wb, attraction, a-b-da, 9, 3, 2, 27, 195, 120, 120, 195, 186, 114, 3, 4.20499
82, 6, wb, attraction, a-b-da, 9, 3, 2, 27, 195, 120, 120, 195, 186, 114, 2, 1.29831
82, 6, wb, filler, NA, 999, 999, 2, 28, 184, 134, 145, 71, 87, 109, 3, 1.35604
82, 6, wb, filler, NA, 999, 999, 2, 28, 184, 134, 145, 71, 87, 109, 1, 0.460065
82, 6, wb, filler, NA, 999, 999, 2, 29, 151, 178, 139, 186, 187, 174, 1, 2.69521
82, 6, wb, filler, NA, 999, 999, 2, 29, 151, 178, 139, 186, 187, 174, 3, 1.00979
82, 6, wb, attraction, a-b-da, 9, 1, 2, 30, 135, 60, 129, 57, 60, 135, 2, 4.19055
82, 6, wb, attraction, a-b-da, 9, 1, 2, 30, 135, 60, 129, 57, 60, 135, 1, 0.628603
82, 6, wb, attraction, a-b-da, 5, 3, 2, 31, 120, 195, 190, 117, 195, 120, 2, 4.96115
82, 6, wb, attraction, a-b-da, 5, 3, 2, 31, 120, 195, 190, 117, 195, 120, 1, 0.424152
82, 6, wb, catch, NA, 999, 999, 2, 32, 161, 94, 77, 118, 164, 151, 2, 1.11655
82, 6, wb, catch, NA, 999, 999, 2, 32, 161, 94, 77, 118, 164, 151, 3, 0.934862
82, 6, wb, attraction, a-b-da, 14, 3, 2, 33, 120, 195, 195, 120, 181, 111, 1, 3.63911
82, 6, wb, attraction, a-b-da, 14, 3, 2, 33, 120, 195, 195, 120, 181, 111, 2, 0.371414
82, 6, wb, filler, NA, 999, 999, 2, 34, 177, 108, 148, 59, 169, 105, 2, 1.76265
82, 6, wb, filler, NA, 999, 999, 2, 34, 177, 108, 148, 59, 169, 105, 1, 0.490739
82, 6, wb, filler, NA, 999, 999, 2, 35, 111, 120, 65, 183, 93, 147, 2, 7.91665
82, 6, wb, filler, NA, 999, 999, 2, 35, 111, 120, 65, 183, 93, 147, 3, 0.572685
82, 6, wb, filler, NA, 999, 999, 2, 36, 144, 93, 81, 65, 118, 155, 2, 1.05964
82, 6, wb, filler, NA, 999, 999, 2, 36, 144, 93, 81, 65, 118, 155, 3, 0.58396
82, 6, wb, filler, NA, 999, 999, 2, 37, 117, 106, 150, 145, 75, 190, 1, 2.1504
82, 6, wb, filler, NA, 999, 999, 2, 37, 117, 106, 150, 145, 75, 190, 2, 1.4793
82, 6, wb, attraction, a-b-db, 5, 2, 3, 1, 88, 161, 90, 165, 165, 90, 1, 2.11318
82, 6, wb, attraction, a-b-db, 5, 2, 3, 1, 88, 161, 90, 165, 165, 90, 3, 0.883167
82, 6, wb, filler, NA, 999, 999, 3, 2, 62, 83, 123, 188, 134, 65, 1, 0.933626
82, 6, wb, filler, NA, 999, 999, 3, 2, 62, 83, 123, 188, 134, 65, 2, 0.399197
82, 6, wb, filler, NA, 999, 999, 3, 3, 162, 114, 97, 173, 110, 105, 3, 1.07708
82, 6, wb, filler, NA, 999, 999, 3, 3, 162, 114, 97, 173, 110, 105, 1, 3.19281
82, 6, wb, filler, NA, 999, 999, 3, 4, 144, 59, 61, 74, 169, 186, 2, 0.893574
82, 6, wb, filler, NA, 999, 999, 3, 4, 144, 59, 61, 74, 169, 186, 3, 0.58464
82, 6, wb, catch, NA, 999, 999, 3, 5, 106, 89, 163, 92, 144, 171, 1, 1.19903
82, 6, wb, catch, NA, 999, 999, 3, 5, 106, 89, 163, 92, 144, 171, 3, 0.477947
82, 6, wb, filler, NA, 999, 999, 3, 6, 91, 57, 121, 118, 93, 134, 1, 1.1444
82, 6, wb, filler, NA, 999, 999, 3, 6, 91, 57, 121, 118, 93, 134, 2, 0.593411
82, 6, wb, attraction, a-b-da, 5, 2, 3, 7, 165, 90, 161, 88, 90, 165, 3, 4.18312
82, 6, wb, attraction, a-b-da, 5, 2, 3, 7, 165, 90, 161, 88, 90, 165, 1, 0.661887
82, 6, wb, attraction, a-b-da, 2, 1, 3, 8, 134, 59, 60, 135, 135, 60, 3, 1.3609
82, 6, wb, attraction, a-b-da, 2, 1, 3, 8, 134, 59, 60, 135, 135, 60, 2, 1.67309
82, 6, wb, attraction, a-b-db, 9, 1, 3, 9, 60, 135, 57, 129, 135, 60, 1, 2.3712
82, 6, wb, attraction, a-b-db, 9, 1, 3, 9, 60, 135, 57, 129, 135, 60, 2, 0.434369
82, 6, wb, filler, NA, 999, 999, 3, 10, 135, 141, 178, 164, 141, 189, 1, 2.90292
82, 6, wb, filler, NA, 999, 999, 3, 10, 135, 141, 178, 164, 141, 189, 3, 0.593364
82, 6, wb, filler, NA, 999, 999, 3, 11, 72, 152, 168, 164, 150, 165, 1, 1.5751
82, 6, wb, filler, NA, 999, 999, 3, 11, 72, 152, 168, 164, 150, 165, 2, 0.446481
82, 6, wb, attraction, a-b-db, 14, 3, 3, 12, 111, 181, 120, 195, 195, 120, 1, 1.14627
82, 6, wb, attraction, a-b-db, 14, 3, 3, 12, 111, 181, 120, 195, 195, 120, 2, 0.731198
82, 6, wb, attraction, a-b-db, 5, 1, 3, 13, 135, 60, 60, 135, 58, 132, 3, 2.53966
82, 6, wb, attraction, a-b-db, 5, 1, 3, 13, 135, 60, 60, 135, 58, 132, 1, 0.580257
82, 6, wb, filler, NA, 999, 999, 3, 14, 126, 193, 80, 57, 88, 133, 2, 0.954497
82, 6, wb, filler, NA, 999, 999, 3, 14, 126, 193, 80, 57, 88, 133, 1, 0.578982
82, 6, wb, attraction, a-b-da, 9, 2, 3, 15, 165, 90, 157, 86, 90, 165, 2, 1.55338
82, 6, wb, attraction, a-b-da, 9, 2, 3, 15, 165, 90, 157, 86, 90, 165, 1, 0.522161
82, 6, wb, filler, NA, 999, 999, 3, 16, 129, 89, 109, 115, 181, 56, 3, 9.89947
82, 6, wb, filler, NA, 999, 999, 3, 16, 129, 89, 109, 115, 181, 56, 2, 0.403478
82, 6, wb, attraction, a-b-db, 5, 3, 3, 17, 117, 190, 195, 120, 120, 195, 2, 0.889327
82, 6, wb, attraction, a-b-db, 5, 3, 3, 17, 117, 190, 195, 120, 120, 195, 1, 0.62847
82, 6, wb, attraction, a-b-da, 2, 3, 3, 18, 193, 119, 120, 195, 195, 120, 3, 2.11273
82, 6, wb, attraction, a-b-da, 2, 3, 3, 18, 193, 119, 120, 195, 195, 120, 1, 0.514655
82, 6, wb, attraction, a-b-db, 14, 1, 3, 19, 56, 125, 60, 135, 135, 60, 1, 3.27603
82, 6, wb, attraction, a-b-db, 14, 1, 3, 19, 56, 125, 60, 135, 135, 60, 2, 0.390882
82, 6, wb, attraction, a-b-db, 2, 1, 3, 20, 135, 60, 59, 134, 60, 135, 3, 5.59656
82, 6, wb, attraction, a-b-db, 2, 1, 3, 20, 135, 60, 59, 134, 60, 135, 1, 0.658205
82, 6, wb, attraction, a-b-da, 14, 1, 3, 21, 135, 60, 60, 135, 125, 56, 3, 1.66922
82, 6, wb, attraction, a-b-da, 14, 1, 3, 21, 135, 60, 60, 135, 125, 56, 1, 0.513421
82, 6, wb, filler, NA, 999, 999, 3, 22, 97, 79, 160, 100, 149, 77, 1, 1.22652
82, 6, wb, filler, NA, 999, 999, 3, 22, 97, 79, 160, 100, 149, 77, 2, 0.384081
82, 6, wb, attraction, a-b-db, 9, 2, 3, 23, 165, 90, 86, 157, 90, 165, 2, 0.750539
82, 6, wb, attraction, a-b-db, 9, 2, 3, 23, 165, 90, 86, 157, 90, 165, 1, 0.423669
82, 6, wb, attraction, a-b-da, 14, 3, 3, 24, 195, 120, 181, 111, 120, 195, 2, 1.49211
82, 6, wb, attraction, a-b-da, 14, 3, 3, 24, 195, 120, 181, 111, 120, 195, 1, 0.718933
82, 6, wb, attraction, a-b-da, 2, 2, 3, 25, 90, 165, 165, 90, 163, 89, 2, 1.63997
82, 6, wb, attraction, a-b-da, 2, 2, 3, 25, 90, 165, 165, 90, 163, 89, 1, 0.80478
82, 6, wb, attraction, a-b-da, 5, 3, 3, 26, 195, 120, 120, 195, 190, 117, 3, 1.8906
82, 6, wb, attraction, a-b-da, 5, 3, 3, 26, 195, 120, 120, 195, 190, 117, 1, 1.06134
82, 6, wb, attraction, a-b-db, 2, 3, 3, 27, 120, 195, 119, 193, 195, 120, 2, 3.04819
82, 6, wb, attraction, a-b-db, 2, 3, 3, 27, 120, 195, 119, 193, 195, 120, 1, 0.676434
82, 6, wb, attraction, a-b-da, 5, 1, 3, 28, 132, 58, 135, 60, 60, 135, 3, 2.43097
82, 6, wb, attraction, a-b-da, 5, 1, 3, 28, 132, 58, 135, 60, 60, 135, 2, 0.380111
82, 6, wb, attraction, a-b-db, 9, 3, 3, 29, 114, 186, 195, 120, 120, 195, 3, 1.49068
82, 6, wb, attraction, a-b-db, 9, 3, 3, 29, 114, 186, 195, 120, 120, 195, 2, 3.4935
82, 6, wb, filler, NA, 999, 999, 3, 30, 121, 192, 150, 151, 100, 193, 3, 5.5183
82, 6, wb, filler, NA, 999, 999, 3, 30, 121, 192, 150, 151, 100, 193, 1, 0.527195
82, 6, wb, attraction, a-b-db, 14, 2, 3, 31, 90, 165, 83, 153, 165, 90, 2, 2.21563
82, 6, wb, attraction, a-b-db, 14, 2, 3, 31, 90, 165, 83, 153, 165, 90, 3, 0.461674
82, 6, wb, attraction, a-b-da, 9, 3, 3, 32, 195, 120, 186, 114, 120, 195, 3, 3.3768
82, 6, wb, attraction, a-b-da, 9, 3, 3, 32, 195, 120, 186, 114, 120, 195, 1, 0.767699
82, 6, wb, attraction, a-b-db, 2, 2, 3, 33, 165, 90, 90, 165, 89, 163, 3, 4.58263
82, 6, wb, attraction, a-b-db, 2, 2, 3, 33, 165, 90, 90, 165, 89, 163, 1, 0.541171
82, 6, wb, attraction, a-b-da, 14, 2, 3, 34, 90, 165, 165, 90, 153, 83, 3, 2.76488
82, 6, wb, attraction, a-b-da, 14, 2, 3, 34, 90, 165, 165, 90, 153, 83, 1, 0.436678
82, 6, wb, catch, NA, 999, 999, 3, 35, 143, 112, 80, 115, 171, 144, 2, 1.13718
82, 6, wb, catch, NA, 999, 999, 3, 35, 143, 112, 80, 115, 171, 144, 3, 0.594214
82, 6, wb, catch, NA, 999, 999, 3, 36, 96, 99, 126, 129, 130, 185, 1, 1.27194
82, 6, wb, catch, NA, 999, 999, 3, 36, 96, 99, 126, 129, 130, 185, 3, 0.379524
82, 6, wb, attraction, a-b-da, 9, 1, 3, 37, 129, 57, 135, 60, 60, 135, 2, 8.76192
82, 6, wb, attraction, a-b-da, 9, 1, 3, 37, 129, 57, 135, 60, 60, 135, 1, 0.543815
82, 6, wb, attraction, a-b-da, 14, 1, 4, 1, 135, 60, 125, 56, 60, 135, 2, 2.67188
82, 6, wb, attraction, a-b-da, 14, 1, 4, 1, 135, 60, 125, 56, 60, 135, 1, 0.562741
82, 6, wb, attraction, a-b-db, 9, 1, 4, 2, 57, 129, 135, 60, 60, 135, 2, 1.47396
82, 6, wb, attraction, a-b-db, 9, 1, 4, 2, 57, 129, 135, 60, 60, 135, 3, 0.517376
82, 6, wb, catch, NA, 999, 999, 4, 3, 99, 96, 134, 181, 109, 146, 1, 0.97446
82, 6, wb, catch, NA, 999, 999, 4, 3, 99, 96, 134, 181, 109, 146, 2, 0.406308
82, 6, wb, attraction, a-b-db, 5, 3, 4, 4, 195, 120, 120, 195, 117, 190, 3, 3.56336
82, 6, wb, attraction, a-b-db, 5, 3, 4, 4, 195, 120, 120, 195, 117, 190, 1, 0.76299
82, 6, wb, attraction, a-b-db, 14, 2, 4, 5, 83, 153, 165, 90, 90, 165, 1, 1.72996
82, 6, wb, attraction, a-b-db, 14, 2, 4, 5, 83, 153, 165, 90, 90, 165, 3, 0.571297
82, 6, wb, attraction, a-b-db, 2, 1, 4, 6, 60, 135, 135, 60, 59, 134, 2, 1.89047
82, 6, wb, attraction, a-b-db, 2, 1, 4, 6, 60, 135, 135, 60, 59, 134, 1, 2.27718
82, 6, wb, filler, NA, 999, 999, 4, 7, 72, 103, 169, 84, 186, 153, 1, 1.06305
82, 6, wb, filler, NA, 999, 999, 4, 7, 72, 103, 169, 84, 186, 153, 3, 0.58737
82, 6, wb, attraction, a-b-da, 9, 2, 4, 8, 165, 90, 157, 86, 90, 165, 3, 2.71387
82, 6, wb, attraction, a-b-da, 9, 2, 4, 8, 165, 90, 157, 86, 90, 165, 1, 0.515466
82, 6, wb, filler, NA, 999, 999, 4, 9, 119, 142, 176, 70, 134, 87, 3, 10.6847
82, 6, wb, filler, NA, 999, 999, 4, 9, 119, 142, 176, 70, 134, 87, 1, 1.01347
82, 6, wb, filler, NA, 999, 999, 4, 10, 97, 121, 164, 133, 57, 87, 3, 0.794348
82, 6, wb, filler, NA, 999, 999, 4, 10, 97, 121, 164, 133, 57, 87, 2, 0.345295
82, 6, wb, filler, NA, 999, 999, 4, 11, 70, 106, 68, 98, 179, 185, 2, 1.53728
82, 6, wb, filler, NA, 999, 999, 4, 11, 70, 106, 68, 98, 179, 185, 3, 0.314663
82, 6, wb, attraction, a-b-db, 2, 3, 4, 12, 120, 195, 119, 193, 195, 120, 2, 3.70792
82, 6, wb, attraction, a-b-db, 2, 3, 4, 12, 120, 195, 119, 193, 195, 120, 1, 1.02924
82, 6, wb, attraction, a-b-da, 5, 1, 4, 13, 135, 60, 132, 58, 60, 135, 2, 3.07372
82, 6, wb, attraction, a-b-da, 5, 1, 4, 13, 135, 60, 132, 58, 60, 135, 1, 0.500649
82, 6, wb, attraction, a-b-db, 9, 3, 4, 14, 114, 186, 195, 120, 120, 195, 3, 2.6864
82, 6, wb, attraction, a-b-db, 9, 3, 4, 14, 114, 186, 195, 120, 120, 195, 2, 0.289517
82, 6, wb, attraction, a-b-da, 2, 2, 4, 15, 90, 165, 165, 90, 163, 89, 3, 1.2274
82, 6, wb, attraction, a-b-da, 2, 2, 4, 15, 90, 165, 165, 90, 163, 89, 2, 0.28893
82, 6, wb, attraction, a-b-db, 5, 1, 4, 16, 58, 132, 60, 135, 135, 60, 2, 1.7314
82, 6, wb, attraction, a-b-db, 5, 1, 4, 16, 58, 132, 60, 135, 135, 60, 1, 0.37303
82, 6, wb, catch, NA, 999, 999, 4, 17, 156, 99, 161, 154, 95, 100, 3, 0.955487
82, 6, wb, catch, NA, 999, 999, 4, 17, 156, 99, 161, 154, 95, 100, 2, 0.515876
82, 6, wb, filler, NA, 999, 999, 4, 18, 126, 98, 131, 136, 118, 173, 1, 2.70897
82, 6, wb, filler, NA, 999, 999, 4, 18, 126, 98, 131, 136, 118, 173, 3, 0.422811
82, 6, wb, filler, NA, 999, 999, 4, 19, 78, 130, 195, 75, 107, 113, 1, 3.54707
82, 6, wb, filler, NA, 999, 999, 4, 19, 78, 130, 195, 75, 107, 113, 2, 2.60337
82, 6, wb, catch, NA, 999, 999, 4, 20, 167, 148, 114, 141, 125, 70, 3, 0.904474
82, 6, wb, catch, NA, 999, 999, 4, 20, 167, 148, 114, 141, 125, 70, 1, 0.41879
82, 6, wb, attraction, a-b-db, 2, 2, 4, 21, 165, 90, 90, 165, 89, 163, 3, 2.36001
82, 6, wb, attraction, a-b-db, 2, 2, 4, 21, 165, 90, 90, 165, 89, 163, 1, 0.751814
82, 6, wb, filler, NA, 999, 999, 4, 22, 176, 192, 195, 88, 77, 130, 3, 1.9515
82, 6, wb, filler, NA, 999, 999, 4, 22, 176, 192, 195, 88, 77, 130, 1, 0.504219
82, 6, wb, attraction, a-b-da, 5, 2, 4, 23, 165, 90, 90, 165, 161, 88, 3, 1.05795
82, 6, wb, attraction, a-b-da, 5, 2, 4, 23, 165, 90, 90, 165, 161, 88, 1, 0.478377
82, 6, wb, attraction, a-b-da, 9, 1, 4, 24, 135, 60, 60, 135, 129, 57, 3, 0.720756
82, 6, wb, attraction, a-b-da, 9, 1, 4, 24, 135, 60, 60, 135, 129, 57, 2, 0.482463
82, 6, wb, attraction, a-b-db, 14, 3, 4, 25, 195, 120, 111, 181, 120, 195, 2, 2.765
82, 6, wb, attraction, a-b-db, 14, 3, 4, 25, 195, 120, 111, 181, 120, 195, 1, 0.940763
82, 6, wb, attraction, a-b-db, 5, 2, 4, 26, 165, 90, 90, 165, 88, 161, 1, 5.9885
82, 6, wb, attraction, a-b-db, 5, 2, 4, 26, 165, 90, 90, 165, 88, 161, 2, 0.554471
82, 6, wb, filler, NA, 999, 999, 4, 27, 163, 84, 189, 110, 92, 111, 3, 0.64224
82, 6, wb, filler, NA, 999, 999, 4, 27, 163, 84, 189, 110, 92, 111, 2, 0.271377
82, 6, wb, attraction, a-b-da, 2, 3, 4, 28, 193, 119, 120, 195, 195, 120, 3, 1.35455
82, 6, wb, attraction, a-b-da, 2, 3, 4, 28, 193, 119, 120, 195, 195, 120, 2, 0.378766
82, 6, wb, attraction, a-b-da, 2, 1, 4, 29, 60, 135, 134, 59, 135, 60, 3, 1.64927
82, 6, wb, attraction, a-b-da, 2, 1, 4, 29, 60, 135, 134, 59, 135, 60, 2, 0.750036
82, 6, wb, attraction, a-b-da, 14, 2, 4, 30, 165, 90, 90, 165, 153, 83, 3, 1.64584
82, 6, wb, attraction, a-b-da, 14, 2, 4, 30, 165, 90, 90, 165, 153, 83, 1, 0.362567
82, 6, wb, attraction, a-b-db, 14, 1, 4, 31, 135, 60, 60, 135, 56, 125, 3, 2.44175
82, 6, wb, attraction, a-b-db, 14, 1, 4, 31, 135, 60, 60, 135, 56, 125, 2, 0.310326
82, 6, wb, filler, NA, 999, 999, 4, 32, 135, 111, 63, 126, 148, 166, 2, 0.735567
82, 6, wb, filler, NA, 999, 999, 4, 32, 135, 111, 63, 126, 148, 166, 3, 0.321373
82, 6, wb, attraction, a-b-da, 9, 3, 4, 33, 186, 114, 120, 195, 195, 120, 3, 2.35436
82, 6, wb, attraction, a-b-da, 9, 3, 4, 33, 186, 114, 120, 195, 195, 120, 2, 0.650353
82, 6, wb, attraction, a-b-da, 14, 3, 4, 34, 181, 111, 195, 120, 120, 195, 1, 2.87007
82, 6, wb, attraction, a-b-da, 14, 3, 4, 34, 181, 111, 195, 120, 120, 195, 3, 0.641883
82, 6, wb, attraction, a-b-db, 9, 2, 4, 35, 90, 165, 165, 90, 86, 157, 3, 2.72549
82, 6, wb, attraction, a-b-db, 9, 2, 4, 35, 90, 165, 165, 90, 86, 157, 1, 1.83876
82, 6, wb, filler, NA, 999, 999, 4, 36, 162, 160, 83, 121, 129, 127, 2, 0.922668
82, 6, wb, filler, NA, 999, 999, 4, 36, 162, 160, 83, 121, 129, 127, 1, 0.572365
82, 6, wb, attraction, a-b-da, 5, 3, 4, 37, 120, 195, 190, 117, 195, 120, 3, 3.29158
82, 6, wb, attraction, a-b-da, 5, 3, 4, 37, 120, 195, 190, 117, 195, 120, 2, 0.621722
82, 6, wb, filler, NA, 999, 999, 5, 1, 121, 138, 128, 192, 59, 71, 3, 1.25675
82, 6, wb, filler, NA, 999, 999, 5, 1, 121, 138, 128, 192, 59, 71, 2, 0.268952
82, 6, wb, attraction, a-b-db, 5, 2, 5, 2, 88, 161, 90, 165, 165, 90, 2, 1.7042
82, 6, wb, attraction, a-b-db, 5, 2, 5, 2, 88, 161, 90, 165, 165, 90, 3, 0.57028
82, 6, wb, attraction, a-b-da, 14, 1, 5, 3, 135, 60, 125, 56, 60, 135, 2, 1.47335
82, 6, wb, attraction, a-b-da, 14, 1, 5, 3, 135, 60, 125, 56, 60, 135, 3, 0.89297
82, 6, wb, attraction, a-b-da, 2, 3, 5, 4, 193, 119, 120, 195, 195, 120, 1, 1.17458
82, 6, wb, attraction, a-b-da, 2, 3, 5, 4, 193, 119, 120, 195, 195, 120, 2, 0.494154
82, 6, wb, attraction, a-b-db, 2, 2, 5, 5, 89, 163, 90, 165, 165, 90, 2, 1.44791
82, 6, wb, attraction, a-b-db, 2, 2, 5, 5, 89, 163, 90, 165, 165, 90, 3, 0.940789
82, 6, wb, attraction, a-b-da, 5, 2, 5, 6, 165, 90, 161, 88, 90, 165, 2, 2.7645
82, 6, wb, attraction, a-b-da, 5, 2, 5, 6, 165, 90, 161, 88, 90, 165, 3, 0.73228
82, 6, wb, filler, NA, 999, 999, 5, 7, 133, 93, 109, 162, 98, 65, 3, 0.908594
82, 6, wb, filler, NA, 999, 999, 5, 7, 133, 93, 109, 162, 98, 65, 2, 0.30291
82, 6, wb, catch, NA, 999, 999, 5, 8, 162, 93, 120, 75, 145, 170, 2, 0.984752
82, 6, wb, catch, NA, 999, 999, 5, 8, 162, 93, 120, 75, 145, 170, 3, 0.28061
82, 6, wb, filler, NA, 999, 999, 5, 9, 181, 173, 76, 60, 80, 172, 2, 0.755026
82, 6, wb, filler, NA, 999, 999, 5, 9, 181, 173, 76, 60, 80, 172, 1, 0.267415
82, 6, wb, attraction, a-b-da, 9, 1, 5, 10, 135, 60, 60, 135, 129, 57, 2, 1.28669
82, 6, wb, attraction, a-b-da, 9, 1, 5, 10, 135, 60, 60, 135, 129, 57, 1, 0.594162
82, 6, wb, attraction, a-b-db, 2, 3, 5, 11, 120, 195, 195, 120, 119, 193, 2, 2.67195
82, 6, wb, attraction, a-b-db, 2, 3, 5, 11, 120, 195, 195, 120, 119, 193, 1, 0.347167
82, 6, wb, attraction, a-b-da, 2, 1, 5, 12, 135, 60, 134, 59, 60, 135, 2, 1.59493
82, 6, wb, attraction, a-b-da, 2, 1, 5, 12, 135, 60, 134, 59, 60, 135, 3, 0.473757
82, 6, wb, attraction, a-b-db, 9, 1, 5, 13, 57, 129, 60, 135, 135, 60, 2, 1.09218
82, 6, wb, attraction, a-b-db, 9, 1, 5, 13, 57, 129, 60, 135, 135, 60, 1, 1.16722
82, 6, wb, filler, NA, 999, 999, 5, 14, 168, 87, 76, 75, 116, 131, 2, 1.67006
82, 6, wb, filler, NA, 999, 999, 5, 14, 168, 87, 76, 75, 116, 131, 3, 0.546249
82, 6, wb, filler, NA, 999, 999, 5, 15, 152, 177, 191, 93, 144, 181, 2, 1.57
82, 6, wb, filler, NA, 999, 999, 5, 15, 152, 177, 191, 93, 144, 181, 3, 0.658054
82, 6, wb, catch, NA, 999, 999, 5, 16, 168, 147, 108, 147, 106, 89, 3, 1.03712
82, 6, wb, catch, NA, 999, 999, 5, 16, 168, 147, 108, 147, 106, 89, 1, 0.426783
82, 6, wb, filler, NA, 999, 999, 5, 17, 85, 168, 119, 93, 57, 99, 3, 0.839267
82, 6, wb, filler, NA, 999, 999, 5, 17, 85, 168, 119, 93, 57, 99, 1, 0.380419
82, 6, wb, attraction, a-b-da, 9, 2, 5, 18, 157, 86, 90, 165, 165, 90, 1, 1.41076
82, 6, wb, attraction, a-b-da, 9, 2, 5, 18, 157, 86, 90, 165, 165, 90, 3, 0.760961
82, 6, wb, filler, NA, 999, 999, 5, 19, 194, 57, 137, 118, 162, 119, 1, 2.328
82, 6, wb, filler, NA, 999, 999, 5, 19, 194, 57, 137, 118, 162, 119, 3, 1.2414
82, 6, wb, attraction, a-b-da, 9, 3, 5, 20, 186, 114, 120, 195, 195, 120, 1, 1.04484
82, 6, wb, attraction, a-b-da, 9, 3, 5, 20, 186, 114, 120, 195, 195, 120, 2, 1.56999
82, 6, wb, filler, NA, 999, 999, 5, 21, 119, 181, 103, 127, 71, 144, 3, 0.672601
82, 6, wb, filler, NA, 999, 999, 5, 21, 119, 181, 103, 127, 71, 144, 1, 0.428456
82, 6, wb, attraction, a-b-da, 14, 2, 5, 22, 153, 83, 90, 165, 165, 90, 1, 1.65676
82, 6, wb, attraction, a-b-da, 14, 2, 5, 22, 153, 83, 90, 165, 165, 90, 2, 0.652905
82, 6, wb, attraction, a-b-db, 5, 3, 5, 23, 195, 120, 117, 190, 120, 195, 2, 2.8088
82, 6, wb, attraction, a-b-db, 5, 3, 5, 23, 195, 120, 117, 190, 120, 195, 1, 0.39838
82, 6, wb, filler, NA, 999, 999, 5, 24, 171, 120, 133, 181, 93, 118, 3, 0.892313
82, 6, wb, filler, NA, 999, 999, 5, 24, 171, 120, 133, 181, 93, 118, 2, 0.439269
82, 6, wb, attraction, a-b-db, 14, 3, 5, 25, 195, 120, 111, 181, 120, 195, 2, 4.55575
82, 6, wb, attraction, a-b-db, 14, 3, 5, 25, 195, 120, 111, 181, 120, 195, 1, 0.730974
82, 6, wb, attraction, a-b-da, 5, 3, 5, 26, 190, 117, 120, 195, 195, 120, 3, 3.37138
82, 6, wb, attraction, a-b-da, 5, 3, 5, 26, 190, 117, 120, 195, 195, 120, 2, 0.314235
82, 6, wb, attraction, a-b-db, 9, 3, 5, 27, 195, 120, 120, 195, 114, 186, 3, 1.7234
82, 6, wb, attraction, a-b-db, 9, 3, 5, 27, 195, 120, 120, 195, 114, 186, 2, 0.380893
82, 6, wb, attraction, a-b-da, 2, 2, 5, 28, 90, 165, 165, 90, 163, 89, 2, 3.13139
82, 6, wb, attraction, a-b-da, 2, 2, 5, 28, 90, 165, 165, 90, 163, 89, 1, 0.340515
82, 6, wb, attraction, a-b-db, 14, 1, 5, 29, 56, 125, 60, 135, 135, 60, 1, 2.1004
82, 6, wb, attraction, a-b-db, 14, 1, 5, 29, 56, 125, 60, 135, 135, 60, 2, 0.510944
82, 6, wb, attraction, a-b-db, 14, 2, 5, 30, 165, 90, 83, 153, 90, 165, 2, 2.71988
82, 6, wb, attraction, a-b-db, 14, 2, 5, 30, 165, 90, 83, 153, 90, 165, 1, 0.577801
82, 6, wb, attraction, a-b-db, 9, 2, 5, 31, 165, 90, 90, 165, 86, 157, 3, 1.80821
82, 6, wb, attraction, a-b-db, 9, 2, 5, 31, 165, 90, 90, 165, 86, 157, 2, 0.438293
82, 6, wb, filler, NA, 999, 999, 5, 32, 113, 62, 160, 117, 93, 162, 1, 0.802739
82, 6, wb, filler, NA, 999, 999, 5, 32, 113, 62, 160, 117, 93, 162, 2, 0.393817
82, 6, wb, attraction, a-b-db, 2, 1, 5, 33, 59, 134, 135, 60, 60, 135, 2, 1.07164
82, 6, wb, attraction, a-b-db, 2, 1, 5, 33, 59, 134, 135, 60, 60, 135, 3, 0.667289
82, 6, wb, attraction, a-b-da, 5, 1, 5, 34, 132, 58, 135, 60, 60, 135, 2, 2.67041
82, 6, wb, attraction, a-b-da, 5, 1, 5, 34, 132, 58, 135, 60, 60, 135, 1, 0.929523
82, 6, wb, attraction, a-b-da, 14, 3, 5, 35, 181, 111, 195, 120, 120, 195, 3, 2.48186
82, 6, wb, attraction, a-b-da, 14, 3, 5, 35, 181, 111, 195, 120, 120, 195, 2, 1.99705
82, 6, wb, attraction, a-b-db, 5, 1, 5, 36, 58, 132, 135, 60, 60, 135, 1, 1.58624
82, 6, wb, attraction, a-b-db, 5, 1, 5, 36, 58, 132, 135, 60, 60, 135, 3, 1.06572
82, 6, wb, catch, NA, 999, 999, 5, 37, 98, 157, 60, 135, 141, 174, 2, 0.9088
82, 6, wb, catch, NA, 999, 999, 5, 37, 98, 157, 60, 135, 141, 174, 3, 0.519067
82, 6, wb, attraction, a-b-db, 9, 2, 6, 1, 90, 165, 165, 90, 86, 157, 3, 1.48016
82, 6, wb, attraction, a-b-db, 9, 2, 6, 1, 90, 165, 165, 90, 86, 157, 2, 0.411661
82, 6, wb, filler, NA, 999, 999, 6, 2, 120, 139, 71, 163, 122, 134, 2, 2.34485
82, 6, wb, filler, NA, 999, 999, 6, 2, 120, 139, 71, 163, 122, 134, 1, 0.385415
82, 6, wb, catch, NA, 999, 999, 6, 3, 165, 90, 180, 135, 75, 120, 3, 0.903929
82, 6, wb, catch, NA, 999, 999, 6, 3, 165, 90, 180, 135, 75, 120, 2, 0.522271
82, 6, wb, attraction, a-b-db, 14, 2, 6, 4, 83, 153, 90, 165, 165, 90, 1, 1.79549
82, 6, wb, attraction, a-b-db, 14, 2, 6, 4, 83, 153, 90, 165, 165, 90, 3, 0.962181
82, 6, wb, attraction, a-b-db, 9, 1, 6, 5, 135, 60, 60, 135, 57, 129, 1, 1.9691
82, 6, wb, attraction, a-b-db, 9, 1, 6, 5, 135, 60, 60, 135, 57, 129, 2, 0.521148
82, 6, wb, attraction, a-b-da, 9, 2, 6, 6, 90, 165, 165, 90, 157, 86, 1, 2.9462
82, 6, wb, attraction, a-b-da, 9, 2, 6, 6, 90, 165, 165, 90, 157, 86, 3, 0.466614
82, 6, wb, filler, NA, 999, 999, 6, 7, 125, 133, 123, 144, 154, 195, 1, 2.44571
82, 6, wb, filler, NA, 999, 999, 6, 7, 125, 133, 123, 144, 154, 195, 3, 0.49831
82, 6, wb, catch, NA, 999, 999, 6, 8, 139, 176, 120, 75, 152, 103, 2, 0.684118
82, 6, wb, catch, NA, 999, 999, 6, 8, 139, 176, 120, 75, 152, 103, 1, 0.46384
82, 6, wb, attraction, a-b-da, 2, 2, 6, 9, 165, 90, 163, 89, 90, 165, 2, 1.48294
82, 6, wb, attraction, a-b-da, 2, 2, 6, 9, 165, 90, 163, 89, 90, 165, 1, 0.502463
82, 6, wb, filler, NA, 999, 999, 6, 10, 175, 171, 134, 177, 122, 101, 3, 0.680225
82, 6, wb, filler, NA, 999, 999, 6, 10, 175, 171, 134, 177, 122, 101, 1, 0.708025
82, 6, wb, attraction, a-b-db, 2, 2, 6, 11, 89, 163, 165, 90, 90, 165, 2, 1.48502
82, 6, wb, attraction, a-b-db, 2, 2, 6, 11, 89, 163, 165, 90, 90, 165, 3, 0.55262
82, 6, wb, attraction, a-b-db, 9, 3, 6, 12, 195, 120, 120, 195, 114, 186, 3, 1.62432
82, 6, wb, attraction, a-b-db, 9, 3, 6, 12, 195, 120, 120, 195, 114, 186, 1, 0.517837
82, 6, wb, filler, NA, 999, 999, 6, 13, 167, 132, 93, 179, 180, 164, 2, 0.831058
82, 6, wb, filler, NA, 999, 999, 6, 13, 167, 132, 93, 179, 180, 164, 3, 0.284679
82, 6, wb, attraction, a-b-da, 14, 3, 6, 14, 195, 120, 181, 111, 120, 195, 2, 1.29518
82, 6, wb, attraction, a-b-da, 14, 3, 6, 14, 195, 120, 181, 111, 120, 195, 1, 0.778086
82, 6, wb, attraction, a-b-db, 2, 1, 6, 15, 135, 60, 60, 135, 59, 134, 1, 1.48836
82, 6, wb, attraction, a-b-db, 2, 1, 6, 15, 135, 60, 60, 135, 59, 134, 2, 0.891272
82, 6, wb, attraction, a-b-da, 14, 2, 6, 16, 90, 165, 153, 83, 165, 90, 2, 2.10903
82, 6, wb, attraction, a-b-da, 14, 2, 6, 16, 90, 165, 153, 83, 165, 90, 1, 0.518866
82, 6, wb, filler, NA, 999, 999, 6, 17, 129, 118, 116, 144, 190, 74, 3, 1.60011
82, 6, wb, filler, NA, 999, 999, 6, 17, 129, 118, 116, 144, 190, 74, 2, 0.302773
82, 6, wb, attraction, a-b-da, 2, 3, 6, 18, 193, 119, 120, 195, 195, 120, 3, 1.63275
82, 6, wb, attraction, a-b-da, 2, 3, 6, 18, 193, 119, 120, 195, 195, 120, 2, 0.58216
82, 6, wb, catch, NA, 999, 999, 6, 19, 108, 87, 169, 146, 127, 128, 1, 0.660631
82, 6, wb, catch, NA, 999, 999, 6, 19, 108, 87, 169, 146, 127, 128, 2, 0.368984
82, 6, wb, attraction, a-b-da, 9, 1, 6, 20, 135, 60, 60, 135, 129, 57, 3, 1.08035
82, 6, wb, attraction, a-b-da, 9, 1, 6, 20, 135, 60, 60, 135, 129, 57, 2, 0.828024
82, 6, wb, filler, NA, 999, 999, 6, 21, 135, 146, 83, 110, 170, 135, 2, 0.944166
82, 6, wb, filler, NA, 999, 999, 6, 21, 135, 146, 83, 110, 170, 135, 3, 0.697279
82, 6, wb, filler, NA, 999, 999, 6, 22, 170, 117, 86, 136, 113, 187, 2, 1.6749
82, 6, wb, filler, NA, 999, 999, 6, 22, 170, 117, 86, 136, 113, 187, 1, 1.02247
82, 6, wb, attraction, a-b-db, 5, 3, 6, 23, 120, 195, 195, 120, 117, 190, 2, 2.0674
82, 6, wb, attraction, a-b-db, 5, 3, 6, 23, 120, 195, 195, 120, 117, 190, 1, 0.479317
82, 6, wb, attraction, a-b-db, 2, 3, 6, 24, 120, 195, 119, 193, 195, 120, 2, 2.67374
82, 6, wb, attraction, a-b-db, 2, 3, 6, 24, 120, 195, 119, 193, 195, 120, 1, 0.556943
82, 6, wb, attraction, a-b-db, 5, 1, 6, 25, 135, 60, 60, 135, 58, 132, 3, 1.66006
82, 6, wb, attraction, a-b-db, 5, 1, 6, 25, 135, 60, 60, 135, 58, 132, 2, 0.544168
82, 6, wb, filler, NA, 999, 999, 6, 26, 92, 184, 87, 142, 130, 112, 2, 3.65583
82, 6, wb, filler, NA, 999, 999, 6, 26, 92, 184, 87, 142, 130, 112, 1, 0.499301
82, 6, wb, attraction, a-b-da, 14, 1, 6, 27, 60, 135, 125, 56, 135, 60, 2, 1.45321
82, 6, wb, attraction, a-b-da, 14, 1, 6, 27, 60, 135, 125, 56, 135, 60, 1, 0.57803
82, 6, wb, attraction, a-b-db, 5, 2, 6, 28, 88, 161, 165, 90, 90, 165, 2, 1.36844
82, 6, wb, attraction, a-b-db, 5, 2, 6, 28, 88, 161, 165, 90, 90, 165, 3, 0.376748
82, 6, wb, attraction, a-b-db, 14, 3, 6, 29, 195, 120, 120, 195, 111, 181, 3, 1.42318
82, 6, wb, attraction, a-b-db, 14, 3, 6, 29, 195, 120, 120, 195, 111, 181, 1, 0.740662
82, 6, wb, attraction, a-b-da, 5, 3, 6, 30, 195, 120, 190, 117, 120, 195, 2, 1.53247
82, 6, wb, attraction, a-b-da, 5, 3, 6, 30, 195, 120, 190, 117, 120, 195, 3, 0.341854
82, 6, wb, attraction, a-b-da, 5, 1, 6, 31, 132, 58, 135, 60, 60, 135, 3, 2.74167
82, 6, wb, attraction, a-b-da, 5, 1, 6, 31, 132, 58, 135, 60, 60, 135, 2, 0.366236
82, 6, wb, attraction, a-b-da, 5, 2, 6, 32, 161, 88, 90, 165, 165, 90, 1, 3.09327
82, 6, wb, attraction, a-b-da, 5, 2, 6, 32, 161, 88, 90, 165, 165, 90, 3, 0.89573
82, 6, wb, attraction, a-b-db, 14, 1, 6, 33, 56, 125, 135, 60, 60, 135, 1, 1.31323
82, 6, wb, attraction, a-b-db, 14, 1, 6, 33, 56, 125, 135, 60, 60, 135, 3, 0.371578
82, 6, wb, filler, NA, 999, 999, 6, 34, 128, 61, 60, 185, 70, 171, 3, 1.44269
82, 6, wb, filler, NA, 999, 999, 6, 34, 128, 61, 60, 185, 70, 171, 2, 0.359568
82, 6, wb, attraction, a-b-da, 2, 1, 6, 35, 135, 60, 134, 59, 60, 135, 3, 1.47884
82, 6, wb, attraction, a-b-da, 2, 1, 6, 35, 135, 60, 134, 59, 60, 135, 2, 1.22621
82, 6, wb, attraction, a-b-da, 9, 3, 6, 36, 195, 120, 186, 114, 120, 195, 3, 1.59855
82, 6, wb, attraction, a-b-da, 9, 3, 6, 36, 195, 120, 186, 114, 120, 195, 1, 0.413329
82, 6, wb, filler, NA, 999, 999, 6, 37, 113, 141, 87, 152, 194, 149, 2, 1.07444
82, 6, wb, filler, NA, 999, 999, 6, 37, 113, 141, 87, 152, 194, 149, 3, 0.318049
82, 6, wb, attraction, a-b-db, 2, 3, 7, 1, 120, 195, 195, 120, 119, 193, 3, 3.96722
82, 6, wb, attraction, a-b-db, 2, 3, 7, 1, 120, 195, 195, 120, 119, 193, 1, 1.19061
82, 6, wb, filler, NA, 999, 999, 7, 2, 160, 126, 118, 115, 148, 117, 2, 0.900282
82, 6, wb, filler, NA, 999, 999, 7, 2, 160, 126, 118, 115, 148, 117, 1, 0.679296
82, 6, wb, attraction, a-b-da, 9, 2, 7, 3, 165, 90, 90, 165, 157, 86, 3, 1.88171
82, 6, wb, attraction, a-b-da, 9, 2, 7, 3, 165, 90, 90, 165, 157, 86, 1, 0.75703
82, 6, wb, catch, NA, 999, 999, 7, 4, 149, 166, 115, 80, 162, 93, 2, 0.715987
82, 6, wb, catch, NA, 999, 999, 7, 4, 149, 166, 115, 80, 162, 93, 1, 0.662599
82, 6, wb, attraction, a-b-db, 9, 2, 7, 5, 165, 90, 86, 157, 90, 165, 2, 2.84955
82, 6, wb, attraction, a-b-db, 9, 2, 7, 5, 165, 90, 86, 157, 90, 165, 1, 0.861987
82, 6, wb, attraction, a-b-da, 9, 3, 7, 6, 195, 120, 120, 195, 186, 114, 3, 1.33693
82, 6, wb, attraction, a-b-da, 9, 3, 7, 6, 195, 120, 120, 195, 186, 114, 2, 0.481815
82, 6, wb, attraction, a-b-db, 5, 3, 7, 7, 195, 120, 120, 195, 117, 190, 3, 3.94031
82, 6, wb, attraction, a-b-db, 5, 3, 7, 7, 195, 120, 120, 195, 117, 190, 1, 0.556374
82, 6, wb, attraction, a-b-db, 9, 1, 7, 8, 57, 129, 135, 60, 60, 135, 2, 2.71561
82, 6, wb, attraction, a-b-db, 9, 1, 7, 8, 57, 129, 135, 60, 60, 135, 1, 0.66928
82, 6, wb, attraction, a-b-da, 5, 1, 7, 9, 60, 135, 135, 60, 132, 58, 3, 1.08838
82, 6, wb, attraction, a-b-da, 5, 1, 7, 9, 60, 135, 135, 60, 132, 58, 2, 0.371366
82, 6, wb, attraction, a-b-da, 2, 3, 7, 10, 195, 120, 120, 195, 193, 119, 3, 1.17843
82, 6, wb, attraction, a-b-da, 2, 3, 7, 10, 195, 120, 120, 195, 193, 119, 2, 0.402053
82, 6, wb, attraction, a-b-da, 9, 1, 7, 11, 129, 57, 135, 60, 60, 135, 3, 1.03985
82, 6, wb, attraction, a-b-da, 9, 1, 7, 11, 129, 57, 135, 60, 60, 135, 2, 0.292817
82, 6, wb, filler, NA, 999, 999, 7, 12, 179, 116, 66, 63, 125, 158, 2, 1.17463
82, 6, wb, filler, NA, 999, 999, 7, 12, 179, 116, 66, 63, 125, 158, 1, 1.72631
82, 6, wb, filler, NA, 999, 999, 7, 13, 144, 67, 118, 144, 167, 130, 1, 1.92642
82, 6, wb, filler, NA, 999, 999, 7, 13, 144, 67, 118, 144, 167, 130, 3, 0.999763
82, 6, wb, filler, NA, 999, 999, 7, 14, 179, 190, 138, 99, 94, 143, 3, 0.949315
82, 6, wb, filler, NA, 999, 999, 7, 14, 179, 190, 138, 99, 94, 143, 1, 0.390326
82, 6, wb, filler, NA, 999, 999, 7, 15, 135, 94, 75, 191, 187, 180, 1, 1.30024
82, 6, wb, filler, NA, 999, 999, 7, 15, 135, 94, 75, 191, 187, 180, 3, 0.719105
82, 6, wb, filler, NA, 999, 999, 7, 16, 152, 163, 146, 188, 114, 187, 3, 1.6241
82, 6, wb, filler, NA, 999, 999, 7, 16, 152, 163, 146, 188, 114, 187, 2, 0.373638
82, 6, wb, attraction, a-b-db, 14, 2, 7, 17, 83, 153, 90, 165, 165, 90, 1, 2.84409
82, 6, wb, attraction, a-b-db, 14, 2, 7, 17, 83, 153, 90, 165, 165, 90, 3, 0.928563
82, 6, wb, filler, NA, 999, 999, 7, 18, 154, 118, 56, 184, 193, 80, 2, 1.21679
82, 6, wb, filler, NA, 999, 999, 7, 18, 154, 118, 56, 184, 193, 80, 1, 1.15917
82, 6, wb, attraction, a-b-db, 2, 1, 7, 19, 135, 60, 60, 135, 59, 134, 3, 3.32602
82, 6, wb, attraction, a-b-db, 2, 1, 7, 19, 135, 60, 60, 135, 59, 134, 1, 1.71902
82, 6, wb, attraction, a-b-db, 9, 3, 7, 20, 195, 120, 114, 186, 120, 195, 2, 1.28761
82, 6, wb, attraction, a-b-db, 9, 3, 7, 20, 195, 120, 114, 186, 120, 195, 3, 0.33059
82, 6, wb, attraction, a-b-db, 5, 2, 7, 21, 165, 90, 90, 165, 88, 161, 3, 1.97116
82, 6, wb, attraction, a-b-db, 5, 2, 7, 21, 165, 90, 90, 165, 88, 161, 1, 0.434459
82, 6, wb, attraction, a-b-da, 14, 2, 7, 22, 165, 90, 153, 83, 90, 165, 2, 1.19895
82, 6, wb, attraction, a-b-da, 14, 2, 7, 22, 165, 90, 153, 83, 90, 165, 1, 0.725896
82, 6, wb, attraction, a-b-da, 5, 3, 7, 23, 195, 120, 190, 117, 120, 195, 2, 1.87036
82, 6, wb, attraction, a-b-da, 5, 3, 7, 23, 195, 120, 190, 117, 120, 195, 1, 0.441563
82, 6, wb, attraction, a-b-db, 14, 3, 7, 24, 195, 120, 111, 181, 120, 195, 2, 1.31738
82, 6, wb, attraction, a-b-db, 14, 3, 7, 24, 195, 120, 111, 181, 120, 195, 1, 0.871672
82, 6, wb, catch, NA, 999, 999, 7, 25, 171, 144, 149, 106, 69, 126, 3, 0.770626
82, 6, wb, catch, NA, 999, 999, 7, 25, 171, 144, 149, 106, 69, 126, 1, 0.490381
82, 6, wb, filler, NA, 999, 999, 7, 26, 59, 168, 134, 186, 94, 127, 3, 1.42821
82, 6, wb, filler, NA, 999, 999, 7, 26, 59, 168, 134, 186, 94, 127, 2, 0.337722
82, 6, wb, filler, NA, 999, 999, 7, 27, 155, 102, 177, 184, 63, 111, 3, 0.61812
82, 6, wb, filler, NA, 999, 999, 7, 27, 155, 102, 177, 184, 63, 111, 2, 0.312658
82, 6, wb, attraction, a-b-db, 5, 1, 7, 28, 60, 135, 135, 60, 58, 132, 2, 1.9538
82, 6, wb, attraction, a-b-db, 5, 1, 7, 28, 60, 135, 135, 60, 58, 132, 3, 0.618518
82, 6, wb, catch, NA, 999, 999, 7, 29, 72, 123, 119, 136, 162, 153, 1, 0.831579
82, 6, wb, catch, NA, 999, 999, 7, 29, 72, 123, 119, 136, 162, 153, 3, 0.453444
82, 6, wb, attraction, a-b-db, 2, 2, 7, 30, 165, 90, 89, 163, 90, 165, 3, 3.96916
82, 6, wb, attraction, a-b-db, 2, 2, 7, 30, 165, 90, 89, 163, 90, 165, 1, 0.648531
82, 6, wb, attraction, a-b-db, 14, 1, 7, 31, 60, 135, 56, 125, 135, 60, 2, 1.94026
82, 6, wb, attraction, a-b-db, 14, 1, 7, 31, 60, 135, 56, 125, 135, 60, 3, 0.596937
82, 6, wb, attraction, a-b-da, 14, 1, 7, 32, 135, 60, 60, 135, 125, 56, 3, 1.29072
82, 6, wb, attraction, a-b-da, 14, 1, 7, 32, 135, 60, 60, 135, 125, 56, 2, 0.469657
82, 6, wb, attraction, a-b-da, 2, 1, 7, 33, 60, 135, 134, 59, 135, 60, 2, 1.47272
82, 6, wb, attraction, a-b-da, 2, 1, 7, 33, 60, 135, 134, 59, 135, 60, 3, 0.580238
82, 6, wb, attraction, a-b-da, 2, 2, 7, 34, 90, 165, 165, 90, 163, 89, 2, 2.08265
82, 6, wb, attraction, a-b-da, 2, 2, 7, 34, 90, 165, 165, 90, 163, 89, 3, 0.406124
82, 6, wb, attraction, a-b-da, 14, 3, 7, 35, 195, 120, 120, 195, 181, 111, 3, 1.73914
82, 6, wb, attraction, a-b-da, 14, 3, 7, 35, 195, 120, 120, 195, 181, 111, 2, 0.324027
82, 6, wb, attraction, a-b-da, 5, 2, 7, 36, 161, 88, 90, 165, 165, 90, 3, 2.94856
82, 6, wb, attraction, a-b-da, 5, 2, 7, 36, 161, 88, 90, 165, 165, 90, 1, 1.07683
82, 6, wb, filler, NA, 999, 999, 7, 37, 98, 178, 76, 103, 149, 115, 2, 0.831063
82, 6, wb, filler, NA, 999, 999, 7, 37, 98, 178, 76, 103, 149, 115, 3, 5.2529
82, 6, wb, attraction, a-b-da, 9, 2, 8, 1, 157, 86, 165, 90, 90, 165, 3, 1.58335
82, 6, wb, attraction, a-b-da, 9, 2, 8, 1, 157, 86, 165, 90, 90, 165, 2, 0.502542
82, 6, wb, filler, NA, 999, 999, 8, 2, 149, 189, 91, 143, 125, 134, 2, 0.824416
82, 6, wb, filler, NA, 999, 999, 8, 2, 149, 189, 91, 143, 125, 134, 1, 0.486103
82, 6, wb, attraction, a-b-db, 9, 1, 8, 3, 135, 60, 57, 129, 60, 135, 3, 2.79253
82, 6, wb, attraction, a-b-db, 9, 1, 8, 3, 135, 60, 57, 129, 60, 135, 1, 0.454965
82, 6, wb, filler, NA, 999, 999, 8, 4, 147, 59, 139, 138, 137, 85, 1, 1.36272
82, 6, wb, filler, NA, 999, 999, 8, 4, 147, 59, 139, 138, 137, 85, 2, 0.346914
82, 6, wb, attraction, a-b-da, 9, 3, 8, 5, 195, 120, 120, 195, 186, 114, 3, 1.2029
82, 6, wb, attraction, a-b-da, 9, 3, 8, 5, 195, 120, 120, 195, 186, 114, 1, 1.05778
82, 6, wb, attraction, a-b-db, 14, 3, 8, 6, 111, 181, 195, 120, 120, 195, 1, 2.26067
82, 6, wb, attraction, a-b-db, 14, 3, 8, 6, 111, 181, 195, 120, 120, 195, 3, 0.32057
82, 6, wb, filler, NA, 999, 999, 8, 7, 116, 145, 81, 72, 74, 157, 2, 0.897747
82, 6, wb, filler, NA, 999, 999, 8, 7, 116, 145, 81, 72, 74, 157, 1, 0.324783
82, 6, wb, attraction, a-b-da, 5, 2, 8, 8, 161, 88, 165, 90, 90, 165, 2, 1.71728
82, 6, wb, attraction, a-b-da, 5, 2, 8, 8, 161, 88, 165, 90, 90, 165, 1, 0.439419
82, 6, wb, attraction, a-b-da, 14, 2, 8, 9, 153, 83, 165, 90, 90, 165, 1, 3.19526
82, 6, wb, attraction, a-b-da, 14, 2, 8, 9, 153, 83, 165, 90, 90, 165, 2, 0.457502
82, 6, wb, attraction, a-b-db, 5, 1, 8, 10, 135, 60, 60, 135, 58, 132, 2, 1.46861
82, 6, wb, attraction, a-b-db, 5, 1, 8, 10, 135, 60, 60, 135, 58, 132, 1, 0.328835
82, 6, wb, filler, NA, 999, 999, 8, 11, 167, 89, 111, 77, 62, 115, 3, 0.897319
82, 6, wb, filler, NA, 999, 999, 8, 11, 167, 89, 111, 77, 62, 115, 1, 0.556412
82, 6, wb, attraction, a-b-da, 2, 1, 8, 12, 134, 59, 60, 135, 135, 60, 2, 1.25959
82, 6, wb, attraction, a-b-da, 2, 1, 8, 12, 134, 59, 60, 135, 135, 60, 1, 0.327693
82, 6, wb, attraction, a-b-db, 5, 2, 8, 13, 90, 165, 165, 90, 88, 161, 3, 0.824244
82, 6, wb, attraction, a-b-db, 5, 2, 8, 13, 90, 165, 165, 90, 88, 161, 2, 0.309958
82, 6, wb, filler, NA, 999, 999, 8, 14, 84, 172, 174, 160, 74, 118, 3, 0.815119
82, 6, wb, filler, NA, 999, 999, 8, 14, 84, 172, 174, 160, 74, 118, 2, 0.317468
82, 6, wb, attraction, a-b-da, 5, 1, 8, 15, 135, 60, 132, 58, 60, 135, 2, 0.974763
82, 6, wb, attraction, a-b-da, 5, 1, 8, 15, 135, 60, 132, 58, 60, 135, 1, 0.334349
82, 6, wb, attraction, a-b-db, 14, 2, 8, 16, 165, 90, 83, 153, 90, 165, 2, 1.26287
82, 6, wb, attraction, a-b-db, 14, 2, 8, 16, 165, 90, 83, 153, 90, 165, 1, 0.371111
82, 6, wb, attraction, a-b-da, 9, 1, 8, 17, 135, 60, 60, 135, 129, 57, 3, 1.8903
82, 6, wb, attraction, a-b-da, 9, 1, 8, 17, 135, 60, 60, 135, 129, 57, 2, 0.29301
82, 6, wb, attraction, a-b-da, 2, 2, 8, 18, 163, 89, 165, 90, 90, 165, 2, 1.95873
82, 6, wb, attraction, a-b-da, 2, 2, 8, 18, 163, 89, 165, 90, 90, 165, 1, 0.310853
82, 6, wb, catch, NA, 999, 999, 8, 19, 139, 116, 116, 79, 191, 124, 2, 0.943938
82, 6, wb, catch, NA, 999, 999, 8, 19, 139, 116, 116, 79, 191, 124, 3, 0.353112
82, 6, wb, attraction, a-b-da, 2, 3, 8, 20, 193, 119, 120, 195, 195, 120, 1, 2.06487
82, 6, wb, attraction, a-b-da, 2, 3, 8, 20, 193, 119, 120, 195, 195, 120, 2, 0.397046
82, 6, wb, filler, NA, 999, 999, 8, 21, 94, 190, 167, 170, 121, 113, 3, 1.12267
82, 6, wb, filler, NA, 999, 999, 8, 21, 94, 190, 167, 170, 121, 113, 2, 0.292304
82, 6, wb, attraction, a-b-db, 9, 3, 8, 22, 120, 195, 195, 120, 114, 186, 3, 1.59013
82, 6, wb, attraction, a-b-db, 9, 3, 8, 22, 120, 195, 195, 120, 114, 186, 2, 0.284913
82, 6, wb, attraction, a-b-da, 5, 3, 8, 23, 190, 117, 120, 195, 195, 120, 1, 1.31942
82, 6, wb, attraction, a-b-da, 5, 3, 8, 23, 190, 117, 120, 195, 195, 120, 3, 2.1697
82, 6, wb, filler, NA, 999, 999, 8, 24, 65, 56, 172, 175, 98, 69, 1, 1.4726
82, 6, wb, filler, NA, 999, 999, 8, 24, 65, 56, 172, 175, 98, 69, 2, 0.339808
82, 6, wb, attraction, a-b-db, 5, 3, 8, 25, 195, 120, 117, 190, 120, 195, 2, 1.22766
82, 6, wb, attraction, a-b-db, 5, 3, 8, 25, 195, 120, 117, 190, 120, 195, 1, 0.345365
82, 6, wb, attraction, a-b-db, 2, 2, 8, 26, 165, 90, 89, 163, 90, 165, 3, 2.45725
82, 6, wb, attraction, a-b-db, 2, 2, 8, 26, 165, 90, 89, 163, 90, 165, 1, 0.396852
82, 6, wb, attraction, a-b-db, 2, 3, 8, 27, 195, 120, 120, 195, 119, 193, 2, 1.65871
82, 6, wb, attraction, a-b-db, 2, 3, 8, 27, 195, 120, 120, 195, 119, 193, 1, 0.494825
82, 6, wb, attraction, a-b-db, 9, 2, 8, 28, 86, 157, 90, 165, 165, 90, 1, 1.50463
82, 6, wb, attraction, a-b-db, 9, 2, 8, 28, 86, 157, 90, 165, 165, 90, 3, 0.418871
82, 6, wb, catch, NA, 999, 999, 8, 29, 169, 146, 110, 145, 134, 61, 3, 0.792025
82, 6, wb, catch, NA, 999, 999, 8, 29, 169, 146, 110, 145, 134, 61, 1, 0.462964
82, 6, wb, filler, NA, 999, 999, 8, 30, 183, 132, 101, 182, 108, 85, 3, 0.754157
82, 6, wb, filler, NA, 999, 999, 8, 30, 183, 132, 101, 182, 108, 85, 1, 0.522597
82, 6, wb, attraction, a-b-db, 2, 1, 8, 31, 60, 135, 135, 60, 59, 134, 2, 2.05968
82, 6, wb, attraction, a-b-db, 2, 1, 8, 31, 60, 135, 135, 60, 59, 134, 1, 1.31972
82, 6, wb, attraction, a-b-da, 14, 1, 8, 32, 125, 56, 60, 135, 135, 60, 1, 0.808452
82, 6, wb, attraction, a-b-da, 14, 1, 8, 32, 125, 56, 60, 135, 135, 60, 3, 2.95898
82, 6, wb, filler, NA, 999, 999, 8, 33, 100, 77, 185, 75, 132, 135, 1, 0.749249
82, 6, wb, filler, NA, 999, 999, 8, 33, 100, 77, 185, 75, 132, 135, 3, 0.358431
82, 6, wb, catch, NA, 999, 999, 8, 34, 117, 78, 126, 189, 125, 130, 1, 1.16566
82, 6, wb, catch, NA, 999, 999, 8, 34, 117, 78, 126, 189, 125, 130, 2, 0.277758
82, 6, wb, attraction, a-b-db, 14, 1, 8, 35, 60, 135, 135, 60, 56, 125, 3, 1.31234
82, 6, wb, attraction, a-b-db, 14, 1, 8, 35, 60, 135, 135, 60, 56, 125, 1, 0.594553
82, 6, wb, attraction, a-b-da, 14, 3, 8, 36, 181, 111, 195, 120, 120, 195, 1, 2.40041
82, 6, wb, attraction, a-b-da, 14, 3, 8, 36, 181, 111, 195, 120, 120, 195, 3, 0.590807
82, 6, wb, filler, NA, 999, 999, 8, 37, 75, 113, 146, 180, 142, 99, 1, 0.772515
82, 6, wb, filler, NA, 999, 999, 8, 37, 75, 113, 146, 180, 142, 99, 2, 0.404347
