sub_n, computer_n, bw_cond, effect, set, distance, diag, block_n, trial_n, h1, w1, h2, w2, h3, w3, choice, rt 
91, 6, bw, practice, NA, 999, 999, 0, 1, 79, 155, 194, 148, 155, 102, 2, 2.55896
91, 6, bw, practice, NA, 999, 999, 0, 1, 79, 155, 194, 148, 155, 102, 3, 2.24648
91, 6, bw, practice, NA, 999, 999, 0, 2, 77, 101, 76, 111, 176, 162, 3, 2.30472
91, 6, bw, practice, NA, 999, 999, 0, 2, 77, 101, 76, 111, 176, 162, 1, 1.12013
91, 6, bw, practice, NA, 999, 999, 0, 3, 156, 91, 185, 70, 134, 104, 1, 2.80757
91, 6, bw, practice, NA, 999, 999, 0, 3, 156, 91, 185, 70, 134, 104, 2, 4.65992
91, 6, bw, attraction, a-b-da, 14, 2, 1, 1, 165, 90, 153, 83, 90, 165, 3, 3.80059
91, 6, bw, attraction, a-b-da, 14, 2, 1, 1, 165, 90, 153, 83, 90, 165, 2, 1.46271
91, 6, bw, attraction, a-b-db, 5, 3, 1, 2, 120, 195, 195, 120, 117, 190, 1, 3.63355
91, 6, bw, attraction, a-b-db, 5, 3, 1, 2, 120, 195, 195, 120, 117, 190, 2, 3.57441
91, 6, bw, attraction, a-b-db, 9, 2, 1, 3, 86, 157, 90, 165, 165, 90, 2, 4.48381
91, 6, bw, attraction, a-b-db, 9, 2, 1, 3, 86, 157, 90, 165, 165, 90, 1, 0.54241
91, 6, bw, attraction, a-b-da, 14, 3, 1, 4, 181, 111, 120, 195, 195, 120, 2, 1.7822
91, 6, bw, attraction, a-b-da, 14, 3, 1, 4, 181, 111, 120, 195, 195, 120, 1, 2.75764
91, 6, bw, catch, NA, 999, 999, 1, 5, 60, 135, 111, 144, 194, 121, 3, 1.72394
91, 6, bw, catch, NA, 999, 999, 1, 5, 60, 135, 111, 144, 194, 121, 1, 0.757509
91, 6, bw, attraction, a-b-da, 9, 3, 1, 6, 195, 120, 186, 114, 120, 195, 1, 3.47645
91, 6, bw, attraction, a-b-da, 9, 3, 1, 6, 195, 120, 186, 114, 120, 195, 2, 0.743381
91, 6, bw, attraction, a-b-db, 14, 2, 1, 7, 83, 153, 90, 165, 165, 90, 2, 4.75906
91, 6, bw, attraction, a-b-db, 14, 2, 1, 7, 83, 153, 90, 165, 165, 90, 1, 0.670138
91, 6, bw, attraction, a-b-da, 5, 3, 1, 8, 190, 117, 195, 120, 120, 195, 3, 3.04942
91, 6, bw, attraction, a-b-da, 5, 3, 1, 8, 190, 117, 195, 120, 120, 195, 1, 1.54166
91, 6, bw, attraction, a-b-db, 5, 2, 1, 9, 90, 165, 88, 161, 165, 90, 3, 17.0532
91, 6, bw, attraction, a-b-db, 5, 2, 1, 9, 90, 165, 88, 161, 165, 90, 2, 1.34915
91, 6, bw, filler, NA, 999, 999, 1, 10, 134, 101, 138, 62, 63, 158, 1, 2.11651
91, 6, bw, filler, NA, 999, 999, 1, 10, 134, 101, 138, 62, 63, 158, 2, 0.598545
91, 6, bw, catch, NA, 999, 999, 1, 11, 128, 67, 123, 192, 107, 148, 2, 1.18034
91, 6, bw, catch, NA, 999, 999, 1, 11, 128, 67, 123, 192, 107, 148, 1, 0.643899
91, 6, bw, attraction, a-b-da, 2, 1, 1, 12, 134, 59, 135, 60, 60, 135, 2, 6.35965
91, 6, bw, attraction, a-b-da, 2, 1, 1, 12, 134, 59, 135, 60, 60, 135, 3, 0.806483
91, 6, bw, attraction, a-b-db, 9, 3, 1, 13, 120, 195, 195, 120, 114, 186, 2, 3.45944
91, 6, bw, attraction, a-b-db, 9, 3, 1, 13, 120, 195, 195, 120, 114, 186, 3, 0.767011
91, 6, bw, filler, NA, 999, 999, 1, 14, 59, 65, 129, 187, 100, 72, 2, 1.41392
91, 6, bw, filler, NA, 999, 999, 1, 14, 59, 65, 129, 187, 100, 72, 1, 0.884247
91, 6, bw, attraction, a-b-da, 9, 2, 1, 15, 165, 90, 157, 86, 90, 165, 3, 3.17447
91, 6, bw, attraction, a-b-da, 9, 2, 1, 15, 165, 90, 157, 86, 90, 165, 2, 0.765635
91, 6, bw, filler, NA, 999, 999, 1, 16, 129, 185, 61, 184, 187, 93, 1, 1.29243
91, 6, bw, filler, NA, 999, 999, 1, 16, 129, 185, 61, 184, 187, 93, 2, 1.17536
91, 6, bw, filler, NA, 999, 999, 1, 17, 84, 84, 77, 101, 56, 162, 2, 3.96568
91, 6, bw, filler, NA, 999, 999, 1, 17, 84, 84, 77, 101, 56, 162, 1, 1.85311
91, 6, bw, attraction, a-b-da, 2, 3, 1, 18, 195, 120, 120, 195, 193, 119, 2, 2.01639
91, 6, bw, attraction, a-b-da, 2, 3, 1, 18, 195, 120, 120, 195, 193, 119, 3, 4.32631
91, 6, bw, attraction, a-b-da, 9, 1, 1, 19, 135, 60, 60, 135, 129, 57, 2, 2.47772
91, 6, bw, attraction, a-b-da, 9, 1, 1, 19, 135, 60, 60, 135, 129, 57, 3, 0.672987
91, 6, bw, filler, NA, 999, 999, 1, 20, 102, 115, 90, 177, 186, 70, 2, 2.41133
91, 6, bw, filler, NA, 999, 999, 1, 20, 102, 115, 90, 177, 186, 70, 1, 4.00113
91, 6, bw, filler, NA, 999, 999, 1, 21, 90, 116, 118, 64, 92, 89, 1, 2.08581
91, 6, bw, filler, NA, 999, 999, 1, 21, 90, 116, 118, 64, 92, 89, 2, 1.75322
91, 6, bw, attraction, a-b-da, 5, 1, 1, 22, 132, 58, 60, 135, 135, 60, 2, 4.87248
91, 6, bw, attraction, a-b-da, 5, 1, 1, 22, 132, 58, 60, 135, 135, 60, 3, 0.707007
91, 6, bw, attraction, a-b-da, 14, 1, 1, 23, 135, 60, 60, 135, 125, 56, 2, 2.56412
91, 6, bw, attraction, a-b-da, 14, 1, 1, 23, 135, 60, 60, 135, 125, 56, 3, 0.859851
91, 6, bw, attraction, a-b-db, 2, 2, 1, 24, 165, 90, 89, 163, 90, 165, 1, 5.94293
91, 6, bw, attraction, a-b-db, 2, 2, 1, 24, 165, 90, 89, 163, 90, 165, 3, 1.00628
91, 6, bw, filler, NA, 999, 999, 1, 25, 125, 192, 173, 178, 60, 85, 2, 2.15533
91, 6, bw, filler, NA, 999, 999, 1, 25, 125, 192, 173, 178, 60, 85, 3, 0.547253
91, 6, bw, attraction, a-b-da, 2, 2, 1, 26, 165, 90, 90, 165, 163, 89, 2, 6.19507
91, 6, bw, attraction, a-b-da, 2, 2, 1, 26, 165, 90, 90, 165, 163, 89, 1, 0.72042
91, 6, bw, attraction, a-b-db, 14, 3, 1, 27, 111, 181, 120, 195, 195, 120, 2, 3.07345
91, 6, bw, attraction, a-b-db, 14, 3, 1, 27, 111, 181, 120, 195, 195, 120, 1, 0.580432
91, 6, bw, attraction, a-b-db, 14, 1, 1, 28, 135, 60, 60, 135, 56, 125, 1, 2.78703
91, 6, bw, attraction, a-b-db, 14, 1, 1, 28, 135, 60, 60, 135, 56, 125, 3, 0.59404
91, 6, bw, attraction, a-b-db, 5, 1, 1, 29, 60, 135, 135, 60, 58, 132, 1, 2.03974
91, 6, bw, attraction, a-b-db, 5, 1, 1, 29, 60, 135, 135, 60, 58, 132, 2, 0.404504
91, 6, bw, attraction, a-b-db, 2, 3, 1, 30, 119, 193, 120, 195, 195, 120, 1, 8.86618
91, 6, bw, attraction, a-b-db, 2, 3, 1, 30, 119, 193, 120, 195, 195, 120, 3, 1.27615
91, 6, bw, filler, NA, 999, 999, 1, 31, 58, 97, 84, 81, 170, 174, 3, 0.974347
91, 6, bw, filler, NA, 999, 999, 1, 31, 58, 97, 84, 81, 170, 174, 1, 0.637971
91, 6, bw, filler, NA, 999, 999, 1, 32, 130, 104, 166, 103, 177, 179, 3, 0.946375
91, 6, bw, filler, NA, 999, 999, 1, 32, 130, 104, 166, 103, 177, 179, 1, 0.65938
91, 6, bw, attraction, a-b-db, 2, 1, 1, 33, 59, 134, 60, 135, 135, 60, 3, 2.49445
91, 6, bw, attraction, a-b-db, 2, 1, 1, 33, 59, 134, 60, 135, 135, 60, 1, 0.441004
91, 6, bw, filler, NA, 999, 999, 1, 34, 94, 136, 100, 180, 143, 143, 3, 3.98078
91, 6, bw, filler, NA, 999, 999, 1, 34, 94, 136, 100, 180, 143, 143, 1, 0.363533
91, 6, bw, attraction, a-b-db, 9, 1, 1, 35, 135, 60, 57, 129, 60, 135, 1, 2.21868
91, 6, bw, attraction, a-b-db, 9, 1, 1, 35, 135, 60, 57, 129, 60, 135, 2, 0.760652
91, 6, bw, attraction, a-b-da, 5, 2, 1, 36, 165, 90, 90, 165, 161, 88, 2, 4.31181
91, 6, bw, attraction, a-b-da, 5, 2, 1, 36, 165, 90, 90, 165, 161, 88, 3, 0.440948
91, 6, bw, catch, NA, 999, 999, 1, 37, 140, 175, 73, 122, 151, 104, 1, 1.07668
91, 6, bw, catch, NA, 999, 999, 1, 37, 140, 175, 73, 122, 151, 104, 2, 0.42449
91, 6, bw, attraction, a-b-da, 5, 2, 2, 1, 165, 90, 90, 165, 161, 88, 2, 1.91687
91, 6, bw, attraction, a-b-da, 5, 2, 2, 1, 165, 90, 90, 165, 161, 88, 3, 0.414953
91, 6, bw, filler, NA, 999, 999, 2, 2, 171, 73, 60, 114, 126, 167, 3, 0.844132
91, 6, bw, filler, NA, 999, 999, 2, 2, 171, 73, 60, 114, 126, 167, 2, 0.817276
91, 6, bw, attraction, a-b-db, 5, 3, 2, 3, 117, 190, 195, 120, 120, 195, 3, 1.59806
91, 6, bw, attraction, a-b-db, 5, 3, 2, 3, 117, 190, 195, 120, 120, 195, 1, 0.42084
91, 6, bw, filler, NA, 999, 999, 2, 4, 153, 117, 63, 95, 83, 168, 1, 0.866136
91, 6, bw, filler, NA, 999, 999, 2, 4, 153, 117, 63, 95, 83, 168, 2, 0.534477
91, 6, bw, catch, NA, 999, 999, 2, 5, 161, 94, 80, 115, 127, 188, 3, 0.82298
91, 6, bw, catch, NA, 999, 999, 2, 5, 161, 94, 80, 115, 127, 188, 2, 0.500808
91, 6, bw, filler, NA, 999, 999, 2, 6, 132, 135, 170, 120, 79, 106, 2, 3.12638
91, 6, bw, filler, NA, 999, 999, 2, 6, 132, 135, 170, 120, 79, 106, 3, 0.559428
91, 6, bw, attraction, a-b-db, 9, 1, 2, 7, 57, 129, 60, 135, 135, 60, 3, 6.99049
91, 6, bw, attraction, a-b-db, 9, 1, 2, 7, 57, 129, 60, 135, 135, 60, 2, 0.419598
91, 6, bw, attraction, a-b-da, 14, 2, 2, 8, 153, 83, 90, 165, 165, 90, 2, 1.9207
91, 6, bw, attraction, a-b-da, 14, 2, 2, 8, 153, 83, 90, 165, 165, 90, 1, 0.594749
91, 6, bw, attraction, a-b-db, 14, 3, 2, 9, 195, 120, 111, 181, 120, 195, 3, 2.17654
91, 6, bw, attraction, a-b-db, 14, 3, 2, 9, 195, 120, 111, 181, 120, 195, 2, 0.759827
91, 6, bw, catch, NA, 999, 999, 2, 10, 114, 141, 86, 109, 189, 126, 3, 0.934848
91, 6, bw, catch, NA, 999, 999, 2, 10, 114, 141, 86, 109, 189, 126, 2, 0.472529
91, 6, bw, attraction, a-b-db, 2, 3, 2, 11, 119, 193, 195, 120, 120, 195, 2, 1.80309
91, 6, bw, attraction, a-b-db, 2, 3, 2, 11, 119, 193, 195, 120, 120, 195, 3, 0.465884
91, 6, bw, attraction, a-b-db, 5, 2, 2, 12, 88, 161, 165, 90, 90, 165, 1, 12.9088
91, 6, bw, attraction, a-b-db, 5, 2, 2, 12, 88, 161, 165, 90, 90, 165, 2, 0.515486
91, 6, bw, attraction, a-b-da, 2, 1, 2, 13, 135, 60, 134, 59, 60, 135, 3, 5.38061
91, 6, bw, attraction, a-b-da, 2, 1, 2, 13, 135, 60, 134, 59, 60, 135, 2, 1.49896
91, 6, bw, filler, NA, 999, 999, 2, 14, 127, 174, 93, 96, 122, 128, 1, 0.716322
91, 6, bw, filler, NA, 999, 999, 2, 14, 127, 174, 93, 96, 122, 128, 2, 0.350759
91, 6, bw, attraction, a-b-da, 14, 3, 2, 15, 181, 111, 195, 120, 120, 195, 3, 1.47063
91, 6, bw, attraction, a-b-da, 14, 3, 2, 15, 181, 111, 195, 120, 120, 195, 1, 0.658089
91, 6, bw, attraction, a-b-da, 2, 3, 2, 16, 120, 195, 195, 120, 193, 119, 1, 1.31728
91, 6, bw, attraction, a-b-da, 2, 3, 2, 16, 120, 195, 195, 120, 193, 119, 2, 1.23946
91, 6, bw, attraction, a-b-db, 14, 2, 2, 17, 90, 165, 83, 153, 165, 90, 1, 2.64298
91, 6, bw, attraction, a-b-db, 14, 2, 2, 17, 90, 165, 83, 153, 165, 90, 2, 0.511472
91, 6, bw, attraction, a-b-db, 5, 1, 2, 18, 58, 132, 135, 60, 60, 135, 3, 2.88859
91, 6, bw, attraction, a-b-db, 5, 1, 2, 18, 58, 132, 135, 60, 60, 135, 1, 0.578966
91, 6, bw, filler, NA, 999, 999, 2, 19, 132, 72, 118, 131, 170, 69, 2, 1.04138
91, 6, bw, filler, NA, 999, 999, 2, 19, 132, 72, 118, 131, 170, 69, 1, 0.750315
91, 6, bw, filler, NA, 999, 999, 2, 20, 152, 154, 181, 145, 115, 144, 2, 1.58209
91, 6, bw, filler, NA, 999, 999, 2, 20, 152, 154, 181, 145, 115, 144, 3, 0.661551
91, 6, bw, attraction, a-b-da, 5, 3, 2, 21, 195, 120, 190, 117, 120, 195, 3, 1.52861
91, 6, bw, attraction, a-b-da, 5, 3, 2, 21, 195, 120, 190, 117, 120, 195, 1, 0.76211
91, 6, bw, filler, NA, 999, 999, 2, 22, 113, 60, 182, 137, 193, 127, 2, 2.44915
91, 6, bw, filler, NA, 999, 999, 2, 22, 113, 60, 182, 137, 193, 127, 1, 0.693813
91, 6, bw, filler, NA, 999, 999, 2, 23, 155, 160, 112, 112, 153, 171, 1, 1.25537
91, 6, bw, filler, NA, 999, 999, 2, 23, 155, 160, 112, 112, 153, 171, 2, 0.37963
91, 6, bw, attraction, a-b-da, 2, 2, 2, 24, 165, 90, 90, 165, 163, 89, 2, 1.56213
91, 6, bw, attraction, a-b-da, 2, 2, 2, 24, 165, 90, 90, 165, 163, 89, 1, 0.786267
91, 6, bw, attraction, a-b-da, 5, 1, 2, 25, 60, 135, 135, 60, 132, 58, 1, 1.99279
91, 6, bw, attraction, a-b-da, 5, 1, 2, 25, 60, 135, 135, 60, 132, 58, 2, 0.439348
91, 6, bw, attraction, a-b-db, 9, 3, 2, 26, 195, 120, 114, 186, 120, 195, 3, 1.92387
91, 6, bw, attraction, a-b-db, 9, 3, 2, 26, 195, 120, 114, 186, 120, 195, 2, 3.03715
91, 6, bw, attraction, a-b-da, 14, 1, 2, 27, 135, 60, 60, 135, 125, 56, 2, 2.7608
91, 6, bw, attraction, a-b-da, 14, 1, 2, 27, 135, 60, 60, 135, 125, 56, 3, 1.28361
91, 6, bw, filler, NA, 999, 999, 2, 28, 132, 161, 118, 174, 133, 185, 3, 1.88289
91, 6, bw, filler, NA, 999, 999, 2, 28, 132, 161, 118, 174, 133, 185, 2, 1.95026
91, 6, bw, attraction, a-b-da, 9, 2, 2, 29, 165, 90, 90, 165, 157, 86, 1, 1.2856
91, 6, bw, attraction, a-b-da, 9, 2, 2, 29, 165, 90, 90, 165, 157, 86, 3, 0.817105
91, 6, bw, attraction, a-b-db, 9, 2, 2, 30, 86, 157, 165, 90, 90, 165, 3, 1.47833
91, 6, bw, attraction, a-b-db, 9, 2, 2, 30, 86, 157, 165, 90, 90, 165, 1, 0.585723
91, 6, bw, attraction, a-b-db, 2, 2, 2, 31, 89, 163, 90, 165, 165, 90, 2, 1.30404
91, 6, bw, attraction, a-b-db, 2, 2, 2, 31, 89, 163, 90, 165, 165, 90, 1, 0.754342
91, 6, bw, filler, NA, 999, 999, 2, 32, 97, 191, 167, 172, 180, 194, 3, 0.810045
91, 6, bw, filler, NA, 999, 999, 2, 32, 97, 191, 167, 172, 180, 194, 1, 0.392488
91, 6, bw, catch, NA, 999, 999, 2, 33, 132, 183, 142, 113, 98, 97, 1, 0.806259
91, 6, bw, catch, NA, 999, 999, 2, 33, 132, 183, 142, 113, 98, 97, 3, 0.572639
91, 6, bw, attraction, a-b-da, 9, 3, 2, 34, 186, 114, 120, 195, 195, 120, 2, 1.53176
91, 6, bw, attraction, a-b-da, 9, 3, 2, 34, 186, 114, 120, 195, 195, 120, 1, 1.06125
91, 6, bw, attraction, a-b-db, 2, 1, 2, 35, 135, 60, 60, 135, 59, 134, 2, 1.21617
91, 6, bw, attraction, a-b-db, 2, 1, 2, 35, 135, 60, 60, 135, 59, 134, 3, 0.606442
91, 6, bw, attraction, a-b-db, 14, 1, 2, 36, 56, 125, 135, 60, 60, 135, 2, 1.17947
91, 6, bw, attraction, a-b-db, 14, 1, 2, 36, 56, 125, 135, 60, 60, 135, 1, 0.419199
91, 6, bw, attraction, a-b-da, 9, 1, 2, 37, 60, 135, 129, 57, 135, 60, 1, 1.43225
91, 6, bw, attraction, a-b-da, 9, 1, 2, 37, 60, 135, 129, 57, 135, 60, 2, 0.677814
91, 6, bw, attraction, a-b-db, 14, 1, 3, 1, 135, 60, 60, 135, 56, 125, 1, 2.94413
91, 6, bw, attraction, a-b-db, 14, 1, 3, 1, 135, 60, 60, 135, 56, 125, 3, 0.792547
91, 6, bw, filler, NA, 999, 999, 3, 2, 93, 133, 182, 179, 153, 95, 2, 1.18227
91, 6, bw, filler, NA, 999, 999, 3, 2, 93, 133, 182, 179, 153, 95, 1, 0.437832
91, 6, bw, catch, NA, 999, 999, 3, 3, 148, 107, 76, 119, 155, 160, 3, 1.20232
91, 6, bw, catch, NA, 999, 999, 3, 3, 148, 107, 76, 119, 155, 160, 2, 0.521204
91, 6, bw, attraction, a-b-da, 2, 3, 3, 4, 193, 119, 120, 195, 195, 120, 2, 2.91457
91, 6, bw, attraction, a-b-da, 2, 3, 3, 4, 193, 119, 120, 195, 195, 120, 3, 1.52414
91, 6, bw, filler, NA, 999, 999, 3, 5, 58, 159, 166, 57, 194, 192, 3, 1.10032
91, 6, bw, filler, NA, 999, 999, 3, 5, 58, 159, 166, 57, 194, 192, 1, 0.583229
91, 6, bw, attraction, a-b-da, 14, 3, 3, 6, 181, 111, 120, 195, 195, 120, 2, 2.97375
91, 6, bw, attraction, a-b-da, 14, 3, 3, 6, 181, 111, 120, 195, 195, 120, 1, 1.24482
91, 6, bw, attraction, a-b-db, 9, 1, 3, 7, 60, 135, 57, 129, 135, 60, 3, 8.64025
91, 6, bw, attraction, a-b-db, 9, 1, 3, 7, 60, 135, 57, 129, 135, 60, 1, 0.563453
91, 6, bw, filler, NA, 999, 999, 3, 8, 161, 122, 151, 132, 163, 101, 1, 2.11459
91, 6, bw, filler, NA, 999, 999, 3, 8, 161, 122, 151, 132, 163, 101, 2, 0.932611
91, 6, bw, filler, NA, 999, 999, 3, 9, 98, 87, 119, 104, 66, 133, 2, 3.71693
91, 6, bw, filler, NA, 999, 999, 3, 9, 98, 87, 119, 104, 66, 133, 3, 0.894425
91, 6, bw, attraction, a-b-da, 2, 1, 3, 10, 135, 60, 134, 59, 60, 135, 3, 5.04011
91, 6, bw, attraction, a-b-da, 2, 1, 3, 10, 135, 60, 134, 59, 60, 135, 1, 0.707994
91, 6, bw, attraction, a-b-db, 14, 2, 3, 11, 90, 165, 165, 90, 83, 153, 1, 1.14074
91, 6, bw, attraction, a-b-db, 14, 2, 3, 11, 90, 165, 165, 90, 83, 153, 2, 0.653736
91, 6, bw, attraction, a-b-db, 5, 3, 3, 12, 117, 190, 195, 120, 120, 195, 3, 2.62557
91, 6, bw, attraction, a-b-db, 5, 3, 3, 12, 117, 190, 195, 120, 120, 195, 2, 0.542695
91, 6, bw, attraction, a-b-db, 9, 3, 3, 13, 114, 186, 195, 120, 120, 195, 3, 1.23856
91, 6, bw, attraction, a-b-db, 9, 3, 3, 13, 114, 186, 195, 120, 120, 195, 1, 0.643375
91, 6, bw, attraction, a-b-db, 9, 2, 3, 14, 86, 157, 165, 90, 90, 165, 3, 1.3112
91, 6, bw, attraction, a-b-db, 9, 2, 3, 14, 86, 157, 165, 90, 90, 165, 1, 0.849371
91, 6, bw, attraction, a-b-da, 14, 2, 3, 15, 90, 165, 153, 83, 165, 90, 1, 1.42113
91, 6, bw, attraction, a-b-da, 14, 2, 3, 15, 90, 165, 153, 83, 165, 90, 2, 0.394559
91, 6, bw, attraction, a-b-da, 2, 2, 3, 16, 163, 89, 90, 165, 165, 90, 2, 0.968392
91, 6, bw, attraction, a-b-da, 2, 2, 3, 16, 163, 89, 90, 165, 165, 90, 1, 0.432843
91, 6, bw, filler, NA, 999, 999, 3, 17, 76, 93, 157, 84, 90, 75, 2, 0.79707
91, 6, bw, filler, NA, 999, 999, 3, 17, 76, 93, 157, 84, 90, 75, 3, 5.59634
91, 6, bw, attraction, a-b-db, 2, 2, 3, 18, 89, 163, 90, 165, 165, 90, 2, 1.26435
91, 6, bw, attraction, a-b-db, 2, 2, 3, 18, 89, 163, 90, 165, 165, 90, 3, 0.396667
91, 6, bw, filler, NA, 999, 999, 3, 19, 98, 95, 120, 75, 141, 194, 3, 0.786593
91, 6, bw, filler, NA, 999, 999, 3, 19, 98, 95, 120, 75, 141, 194, 2, 3.00223
91, 6, bw, attraction, a-b-db, 5, 2, 3, 20, 88, 161, 90, 165, 165, 90, 2, 1.3192
91, 6, bw, attraction, a-b-db, 5, 2, 3, 20, 88, 161, 90, 165, 165, 90, 3, 0.625446
91, 6, bw, filler, NA, 999, 999, 3, 21, 75, 186, 63, 57, 153, 186, 3, 0.805821
91, 6, bw, filler, NA, 999, 999, 3, 21, 75, 186, 63, 57, 153, 186, 2, 0.476167
91, 6, bw, catch, NA, 999, 999, 3, 22, 192, 123, 128, 67, 152, 103, 1, 0.982679
91, 6, bw, catch, NA, 999, 999, 3, 22, 192, 123, 128, 67, 152, 103, 2, 0.406315
91, 6, bw, attraction, a-b-db, 5, 1, 3, 23, 135, 60, 60, 135, 58, 132, 2, 1.35556
91, 6, bw, attraction, a-b-db, 5, 1, 3, 23, 135, 60, 60, 135, 58, 132, 3, 0.579698
91, 6, bw, attraction, a-b-da, 9, 1, 3, 24, 135, 60, 129, 57, 60, 135, 3, 2.59409
91, 6, bw, attraction, a-b-da, 9, 1, 3, 24, 135, 60, 129, 57, 60, 135, 2, 1.43269
91, 6, bw, attraction, a-b-db, 2, 1, 3, 25, 59, 134, 135, 60, 60, 135, 2, 1.76476
91, 6, bw, attraction, a-b-db, 2, 1, 3, 25, 59, 134, 135, 60, 60, 135, 1, 0.62527
91, 6, bw, attraction, a-b-da, 9, 3, 3, 26, 195, 120, 186, 114, 120, 195, 3, 1.44933
91, 6, bw, attraction, a-b-da, 9, 3, 3, 26, 195, 120, 186, 114, 120, 195, 2, 1.01422
91, 6, bw, attraction, a-b-da, 14, 1, 3, 27, 135, 60, 125, 56, 60, 135, 3, 1.33127
91, 6, bw, attraction, a-b-da, 14, 1, 3, 27, 135, 60, 125, 56, 60, 135, 1, 0.700876
91, 6, bw, attraction, a-b-db, 2, 3, 3, 28, 119, 193, 120, 195, 195, 120, 2, 1.20647
91, 6, bw, attraction, a-b-db, 2, 3, 3, 28, 119, 193, 120, 195, 195, 120, 3, 0.476693
91, 6, bw, attraction, a-b-da, 5, 3, 3, 29, 190, 117, 120, 195, 195, 120, 2, 0.839166
91, 6, bw, attraction, a-b-da, 5, 3, 3, 29, 190, 117, 120, 195, 195, 120, 3, 0.748141
91, 6, bw, attraction, a-b-da, 9, 2, 3, 30, 165, 90, 157, 86, 90, 165, 3, 1.69981
91, 6, bw, attraction, a-b-da, 9, 2, 3, 30, 165, 90, 157, 86, 90, 165, 2, 0.590582
91, 6, bw, attraction, a-b-da, 5, 1, 3, 31, 132, 58, 60, 135, 135, 60, 2, 3.1323
91, 6, bw, attraction, a-b-da, 5, 1, 3, 31, 132, 58, 60, 135, 135, 60, 3, 0.493449
91, 6, bw, filler, NA, 999, 999, 3, 32, 162, 109, 69, 193, 149, 148, 3, 1.83915
91, 6, bw, filler, NA, 999, 999, 3, 32, 162, 109, 69, 193, 149, 148, 2, 0.515879
91, 6, bw, attraction, a-b-da, 5, 2, 3, 33, 161, 88, 165, 90, 90, 165, 2, 0.852969
91, 6, bw, attraction, a-b-da, 5, 2, 3, 33, 161, 88, 165, 90, 90, 165, 1, 1.70606
91, 6, bw, catch, NA, 999, 999, 3, 34, 83, 112, 129, 126, 144, 171, 3, 0.78741
91, 6, bw, catch, NA, 999, 999, 3, 34, 83, 112, 129, 126, 144, 171, 1, 0.914534
91, 6, bw, filler, NA, 999, 999, 3, 35, 187, 92, 83, 107, 151, 177, 3, 0.627488
91, 6, bw, filler, NA, 999, 999, 3, 35, 187, 92, 83, 107, 151, 177, 2, 0.337335
91, 6, bw, filler, NA, 999, 999, 3, 36, 70, 125, 170, 115, 74, 82, 2, 0.769808
91, 6, bw, filler, NA, 999, 999, 3, 36, 70, 125, 170, 115, 74, 82, 3, 0.394212
91, 6, bw, attraction, a-b-db, 14, 3, 3, 37, 120, 195, 195, 120, 111, 181, 2, 1.22404
91, 6, bw, attraction, a-b-db, 14, 3, 3, 37, 120, 195, 195, 120, 111, 181, 3, 0.445601
91, 6, bw, attraction, a-b-da, 9, 3, 4, 1, 120, 195, 186, 114, 195, 120, 1, 0.89746
91, 6, bw, attraction, a-b-da, 9, 3, 4, 1, 120, 195, 186, 114, 195, 120, 2, 0.428542
91, 6, bw, attraction, a-b-db, 5, 1, 4, 2, 135, 60, 58, 132, 60, 135, 2, 0.832918
91, 6, bw, attraction, a-b-db, 5, 1, 4, 2, 135, 60, 58, 132, 60, 135, 3, 0.68664
91, 6, bw, attraction, a-b-da, 5, 3, 4, 3, 195, 120, 190, 117, 120, 195, 3, 0.897136
91, 6, bw, attraction, a-b-da, 5, 3, 4, 3, 195, 120, 190, 117, 120, 195, 2, 0.540099
91, 6, bw, filler, NA, 999, 999, 4, 4, 149, 193, 110, 185, 68, 165, 1, 0.563863
91, 6, bw, filler, NA, 999, 999, 4, 4, 149, 193, 110, 185, 68, 165, 3, 0.548357
91, 6, bw, catch, NA, 999, 999, 4, 5, 121, 74, 134, 181, 117, 138, 2, 0.692035
91, 6, bw, catch, NA, 999, 999, 4, 5, 121, 74, 134, 181, 117, 138, 1, 0.471125
91, 6, bw, attraction, a-b-db, 14, 3, 4, 6, 120, 195, 195, 120, 111, 181, 1, 0.730198
91, 6, bw, attraction, a-b-db, 14, 3, 4, 6, 120, 195, 195, 120, 111, 181, 2, 0.492074
91, 6, bw, attraction, a-b-da, 2, 3, 4, 7, 193, 119, 195, 120, 120, 195, 3, 0.837868
91, 6, bw, attraction, a-b-da, 2, 3, 4, 7, 193, 119, 195, 120, 120, 195, 1, 0.948364
91, 6, bw, attraction, a-b-db, 2, 1, 4, 8, 59, 134, 135, 60, 60, 135, 3, 1.57047
91, 6, bw, attraction, a-b-db, 2, 1, 4, 8, 59, 134, 135, 60, 60, 135, 2, 0.79403
91, 6, bw, attraction, a-b-db, 5, 3, 4, 9, 120, 195, 195, 120, 117, 190, 2, 1.19966
91, 6, bw, attraction, a-b-db, 5, 3, 4, 9, 120, 195, 195, 120, 117, 190, 1, 0.390547
91, 6, bw, attraction, a-b-db, 14, 1, 4, 10, 135, 60, 60, 135, 56, 125, 2, 0.94835
91, 6, bw, attraction, a-b-db, 14, 1, 4, 10, 135, 60, 60, 135, 56, 125, 3, 0.373383
91, 6, bw, attraction, a-b-da, 5, 2, 4, 11, 161, 88, 90, 165, 165, 90, 1, 0.851887
91, 6, bw, attraction, a-b-da, 5, 2, 4, 11, 161, 88, 90, 165, 165, 90, 3, 0.7844
91, 6, bw, filler, NA, 999, 999, 4, 12, 151, 75, 92, 86, 59, 132, 1, 0.911383
91, 6, bw, filler, NA, 999, 999, 4, 12, 151, 75, 92, 86, 59, 132, 3, 0.537669
91, 6, bw, catch, NA, 999, 999, 4, 13, 117, 138, 65, 130, 171, 144, 3, 0.674213
91, 6, bw, catch, NA, 999, 999, 4, 13, 117, 138, 65, 130, 171, 144, 2, 0.501915
91, 6, bw, attraction, a-b-db, 9, 3, 4, 14, 114, 186, 120, 195, 195, 120, 2, 0.647699
91, 6, bw, attraction, a-b-db, 9, 3, 4, 14, 114, 186, 120, 195, 195, 120, 3, 0.468737
91, 6, bw, catch, NA, 999, 999, 4, 15, 137, 118, 169, 146, 74, 121, 2, 0.983894
91, 6, bw, catch, NA, 999, 999, 4, 15, 137, 118, 169, 146, 74, 121, 3, 0.511651
91, 6, bw, attraction, a-b-da, 2, 1, 4, 16, 60, 135, 134, 59, 135, 60, 3, 1.44074
91, 6, bw, attraction, a-b-da, 2, 1, 4, 16, 60, 135, 134, 59, 135, 60, 2, 0.997583
91, 6, bw, attraction, a-b-da, 2, 2, 4, 17, 163, 89, 90, 165, 165, 90, 2, 0.875238
91, 6, bw, attraction, a-b-da, 2, 2, 4, 17, 163, 89, 90, 165, 165, 90, 1, 0.46296
91, 6, bw, filler, NA, 999, 999, 4, 18, 116, 160, 170, 77, 139, 60, 1, 0.938
91, 6, bw, filler, NA, 999, 999, 4, 18, 116, 160, 170, 77, 139, 60, 3, 0.698993
91, 6, bw, attraction, a-b-da, 9, 1, 4, 19, 60, 135, 129, 57, 135, 60, 1, 1.1967
91, 6, bw, attraction, a-b-da, 9, 1, 4, 19, 60, 135, 129, 57, 135, 60, 2, 0.931611
91, 6, bw, attraction, a-b-db, 9, 2, 4, 20, 90, 165, 86, 157, 165, 90, 2, 0.95595
91, 6, bw, attraction, a-b-db, 9, 2, 4, 20, 90, 165, 86, 157, 165, 90, 3, 0.460293
91, 6, bw, attraction, a-b-da, 14, 3, 4, 21, 195, 120, 181, 111, 120, 195, 1, 0.575583
91, 6, bw, attraction, a-b-da, 14, 3, 4, 21, 195, 120, 181, 111, 120, 195, 2, 0.474574
91, 6, bw, attraction, a-b-da, 14, 2, 4, 22, 153, 83, 90, 165, 165, 90, 2, 0.601677
91, 6, bw, attraction, a-b-da, 14, 2, 4, 22, 153, 83, 90, 165, 165, 90, 3, 0.456855
91, 6, bw, filler, NA, 999, 999, 4, 23, 70, 114, 77, 87, 90, 147, 3, 0.835943
91, 6, bw, filler, NA, 999, 999, 4, 23, 70, 114, 77, 87, 90, 147, 2, 0.505988
91, 6, bw, attraction, a-b-da, 9, 2, 4, 24, 165, 90, 157, 86, 90, 165, 2, 5.17078
91, 6, bw, attraction, a-b-da, 9, 2, 4, 24, 165, 90, 157, 86, 90, 165, 3, 0.641774
91, 6, bw, attraction, a-b-db, 2, 2, 4, 25, 90, 165, 89, 163, 165, 90, 1, 0.589557
91, 6, bw, attraction, a-b-db, 2, 2, 4, 25, 90, 165, 89, 163, 165, 90, 2, 0.628629
91, 6, bw, filler, NA, 999, 999, 4, 26, 73, 107, 62, 92, 182, 64, 3, 1.35302
91, 6, bw, filler, NA, 999, 999, 4, 26, 73, 107, 62, 92, 182, 64, 2, 0.689897
91, 6, bw, attraction, a-b-da, 14, 1, 4, 27, 60, 135, 135, 60, 125, 56, 2, 1.04366
91, 6, bw, attraction, a-b-da, 14, 1, 4, 27, 60, 135, 135, 60, 125, 56, 1, 0.472646
91, 6, bw, attraction, a-b-db, 9, 1, 4, 28, 60, 135, 57, 129, 135, 60, 2, 0.779166
91, 6, bw, attraction, a-b-db, 9, 1, 4, 28, 60, 135, 57, 129, 135, 60, 3, 0.402918
91, 6, bw, filler, NA, 999, 999, 4, 29, 69, 116, 99, 193, 156, 148, 3, 0.912827
91, 6, bw, filler, NA, 999, 999, 4, 29, 69, 116, 99, 193, 156, 148, 1, 0.571
91, 6, bw, filler, NA, 999, 999, 4, 30, 95, 83, 77, 65, 100, 93, 3, 1.03425
91, 6, bw, filler, NA, 999, 999, 4, 30, 95, 83, 77, 65, 100, 93, 2, 0.487926
91, 6, bw, filler, NA, 999, 999, 4, 31, 137, 116, 107, 65, 174, 132, 3, 0.410315
91, 6, bw, filler, NA, 999, 999, 4, 31, 137, 116, 107, 65, 174, 132, 2, 0.480712
91, 6, bw, attraction, a-b-db, 2, 3, 4, 32, 119, 193, 195, 120, 120, 195, 2, 1.45925
91, 6, bw, attraction, a-b-db, 2, 3, 4, 32, 119, 193, 195, 120, 120, 195, 3, 0.327347
91, 6, bw, filler, NA, 999, 999, 4, 33, 98, 76, 69, 131, 110, 138, 3, 0.599813
91, 6, bw, filler, NA, 999, 999, 4, 33, 98, 76, 69, 131, 110, 138, 1, 0.806922
91, 6, bw, filler, NA, 999, 999, 4, 34, 114, 69, 167, 94, 70, 175, 2, 0.908014
91, 6, bw, filler, NA, 999, 999, 4, 34, 114, 69, 167, 94, 70, 175, 1, 0.430444
91, 6, bw, attraction, a-b-da, 5, 1, 4, 35, 60, 135, 132, 58, 135, 60, 2, 0.826946
91, 6, bw, attraction, a-b-da, 5, 1, 4, 35, 60, 135, 132, 58, 135, 60, 3, 0.776639
91, 6, bw, attraction, a-b-db, 14, 2, 4, 36, 90, 165, 165, 90, 83, 153, 2, 0.782916
91, 6, bw, attraction, a-b-db, 14, 2, 4, 36, 90, 165, 165, 90, 83, 153, 3, 0.414614
91, 6, bw, attraction, a-b-db, 5, 2, 4, 37, 88, 161, 90, 165, 165, 90, 2, 0.763798
91, 6, bw, attraction, a-b-db, 5, 2, 4, 37, 88, 161, 90, 165, 165, 90, 1, 0.620336
91, 6, bw, catch, NA, 999, 999, 5, 1, 190, 125, 146, 109, 130, 65, 1, 7.57519
91, 6, bw, catch, NA, 999, 999, 5, 1, 190, 125, 146, 109, 130, 65, 3, 0.6848
91, 6, bw, attraction, a-b-db, 14, 2, 5, 2, 165, 90, 90, 165, 83, 153, 2, 1.23933
91, 6, bw, attraction, a-b-db, 14, 2, 5, 2, 165, 90, 90, 165, 83, 153, 3, 0.57211
91, 6, bw, attraction, a-b-db, 2, 1, 5, 3, 59, 134, 60, 135, 135, 60, 2, 1.4192
91, 6, bw, attraction, a-b-db, 2, 1, 5, 3, 59, 134, 60, 135, 135, 60, 3, 0.657542
91, 6, bw, attraction, a-b-da, 14, 3, 5, 4, 181, 111, 195, 120, 120, 195, 3, 1.34051
91, 6, bw, attraction, a-b-da, 14, 3, 5, 4, 181, 111, 195, 120, 120, 195, 1, 0.637377
91, 6, bw, attraction, a-b-db, 14, 3, 5, 5, 120, 195, 111, 181, 195, 120, 1, 0.88174
91, 6, bw, attraction, a-b-db, 14, 3, 5, 5, 120, 195, 111, 181, 195, 120, 2, 0.389581
91, 6, bw, attraction, a-b-db, 9, 1, 5, 6, 60, 135, 135, 60, 57, 129, 1, 1.42726
91, 6, bw, attraction, a-b-db, 9, 1, 5, 6, 60, 135, 135, 60, 57, 129, 2, 0.632834
91, 6, bw, attraction, a-b-da, 5, 3, 5, 7, 195, 120, 120, 195, 190, 117, 2, 0.685251
91, 6, bw, attraction, a-b-da, 5, 3, 5, 7, 195, 120, 120, 195, 190, 117, 3, 0.721158
91, 6, bw, attraction, a-b-db, 9, 2, 5, 8, 165, 90, 90, 165, 86, 157, 2, 0.626022
91, 6, bw, attraction, a-b-db, 9, 2, 5, 8, 165, 90, 90, 165, 86, 157, 3, 0.919812
91, 6, bw, filler, NA, 999, 999, 5, 9, 84, 72, 96, 72, 180, 129, 3, 0.608875
91, 6, bw, filler, NA, 999, 999, 5, 9, 84, 72, 96, 72, 180, 129, 1, 0.663356
91, 6, bw, attraction, a-b-db, 5, 2, 5, 10, 88, 161, 165, 90, 90, 165, 1, 1.07441
91, 6, bw, attraction, a-b-db, 5, 2, 5, 10, 88, 161, 165, 90, 90, 165, 2, 0.654077
91, 6, bw, filler, NA, 999, 999, 5, 11, 143, 97, 81, 165, 161, 153, 3, 0.849764
91, 6, bw, filler, NA, 999, 999, 5, 11, 143, 97, 81, 165, 161, 153, 1, 0.990803
91, 6, bw, attraction, a-b-db, 14, 1, 5, 12, 56, 125, 60, 135, 135, 60, 2, 1.02038
91, 6, bw, attraction, a-b-db, 14, 1, 5, 12, 56, 125, 60, 135, 135, 60, 1, 2.78673
91, 6, bw, filler, NA, 999, 999, 5, 13, 103, 168, 173, 170, 177, 186, 3, 3.29639
91, 6, bw, filler, NA, 999, 999, 5, 13, 103, 168, 173, 170, 177, 186, 1, 0.554819
91, 6, bw, attraction, a-b-da, 14, 1, 5, 14, 125, 56, 135, 60, 60, 135, 2, 1.1545
91, 6, bw, attraction, a-b-da, 14, 1, 5, 14, 125, 56, 135, 60, 60, 135, 1, 0.41086
91, 6, bw, attraction, a-b-da, 2, 1, 5, 15, 135, 60, 134, 59, 60, 135, 2, 0.90395
91, 6, bw, attraction, a-b-da, 2, 1, 5, 15, 135, 60, 134, 59, 60, 135, 1, 1.12233
91, 6, bw, attraction, a-b-db, 5, 3, 5, 16, 195, 120, 120, 195, 117, 190, 2, 2.53926
91, 6, bw, attraction, a-b-db, 5, 3, 5, 16, 195, 120, 120, 195, 117, 190, 3, 0.667816
91, 6, bw, filler, NA, 999, 999, 5, 17, 81, 155, 148, 188, 192, 141, 2, 1.30279
91, 6, bw, filler, NA, 999, 999, 5, 17, 81, 155, 148, 188, 192, 141, 1, 0.42571
91, 6, bw, attraction, a-b-da, 9, 2, 5, 18, 157, 86, 165, 90, 90, 165, 2, 4.29427
91, 6, bw, attraction, a-b-da, 9, 2, 5, 18, 157, 86, 165, 90, 90, 165, 1, 0.616151
91, 6, bw, filler, NA, 999, 999, 5, 19, 154, 136, 60, 140, 116, 92, 1, 1.18918
91, 6, bw, filler, NA, 999, 999, 5, 19, 154, 136, 60, 140, 116, 92, 2, 0.548181
91, 6, bw, filler, NA, 999, 999, 5, 20, 163, 185, 87, 89, 170, 126, 1, 0.74792
91, 6, bw, filler, NA, 999, 999, 5, 20, 163, 185, 87, 89, 170, 126, 2, 0.540926
91, 6, bw, catch, NA, 999, 999, 5, 21, 179, 136, 68, 127, 117, 138, 1, 0.692722
91, 6, bw, catch, NA, 999, 999, 5, 21, 179, 136, 68, 127, 117, 138, 2, 0.495882
91, 6, bw, attraction, a-b-da, 2, 3, 5, 22, 195, 120, 120, 195, 193, 119, 2, 1.13765
91, 6, bw, attraction, a-b-da, 2, 3, 5, 22, 195, 120, 120, 195, 193, 119, 1, 0.43461
91, 6, bw, attraction, a-b-da, 9, 1, 5, 23, 129, 57, 60, 135, 135, 60, 2, 0.759008
91, 6, bw, attraction, a-b-da, 9, 1, 5, 23, 129, 57, 60, 135, 135, 60, 1, 0.455497
91, 6, bw, filler, NA, 999, 999, 5, 24, 124, 168, 74, 191, 84, 66, 2, 0.667342
91, 6, bw, filler, NA, 999, 999, 5, 24, 124, 168, 74, 191, 84, 66, 3, 1.83981
91, 6, bw, filler, NA, 999, 999, 5, 25, 192, 133, 145, 78, 155, 112, 1, 1.80306
91, 6, bw, filler, NA, 999, 999, 5, 25, 192, 133, 145, 78, 155, 112, 2, 3.60188
91, 6, bw, attraction, a-b-da, 14, 2, 5, 26, 153, 83, 165, 90, 90, 165, 2, 1.3987
91, 6, bw, attraction, a-b-da, 14, 2, 5, 26, 153, 83, 165, 90, 90, 165, 1, 0.925513
91, 6, bw, filler, NA, 999, 999, 5, 27, 154, 96, 156, 118, 176, 75, 2, 0.845933
91, 6, bw, filler, NA, 999, 999, 5, 27, 154, 96, 156, 118, 176, 75, 3, 0.403032
91, 6, bw, attraction, a-b-da, 2, 2, 5, 28, 163, 89, 90, 165, 165, 90, 1, 1.11265
91, 6, bw, attraction, a-b-da, 2, 2, 5, 28, 163, 89, 90, 165, 165, 90, 3, 0.858989
91, 6, bw, filler, NA, 999, 999, 5, 29, 117, 149, 112, 102, 118, 77, 1, 0.733961
91, 6, bw, filler, NA, 999, 999, 5, 29, 117, 149, 112, 102, 118, 77, 2, 0.575688
91, 6, bw, attraction, a-b-db, 5, 1, 5, 30, 135, 60, 60, 135, 58, 132, 2, 2.40605
91, 6, bw, attraction, a-b-db, 5, 1, 5, 30, 135, 60, 60, 135, 58, 132, 3, 1.26
91, 6, bw, attraction, a-b-da, 5, 2, 5, 31, 90, 165, 161, 88, 165, 90, 1, 1.44689
91, 6, bw, attraction, a-b-da, 5, 2, 5, 31, 90, 165, 161, 88, 165, 90, 2, 0.579805
91, 6, bw, attraction, a-b-db, 2, 3, 5, 32, 119, 193, 120, 195, 195, 120, 2, 3.86618
91, 6, bw, attraction, a-b-db, 2, 3, 5, 32, 119, 193, 120, 195, 195, 120, 3, 0.42974
91, 6, bw, attraction, a-b-da, 5, 1, 5, 33, 60, 135, 132, 58, 135, 60, 2, 1.1301
91, 6, bw, attraction, a-b-da, 5, 1, 5, 33, 60, 135, 132, 58, 135, 60, 1, 0.475793
91, 6, bw, attraction, a-b-db, 9, 3, 5, 34, 120, 195, 195, 120, 114, 186, 2, 0.902096
91, 6, bw, attraction, a-b-db, 9, 3, 5, 34, 120, 195, 195, 120, 114, 186, 3, 0.673185
91, 6, bw, attraction, a-b-db, 2, 2, 5, 35, 89, 163, 165, 90, 90, 165, 2, 1.52364
91, 6, bw, attraction, a-b-db, 2, 2, 5, 35, 89, 163, 165, 90, 90, 165, 1, 0.637069
91, 6, bw, attraction, a-b-da, 9, 3, 5, 36, 186, 114, 195, 120, 120, 195, 2, 1.04946
91, 6, bw, attraction, a-b-da, 9, 3, 5, 36, 186, 114, 195, 120, 120, 195, 1, 0.69447
91, 6, bw, catch, NA, 999, 999, 5, 37, 170, 145, 75, 120, 129, 126, 1, 1.03748
91, 6, bw, catch, NA, 999, 999, 5, 37, 170, 145, 75, 120, 129, 126, 2, 1.06113
91, 6, bw, attraction, a-b-db, 14, 1, 6, 1, 56, 125, 135, 60, 60, 135, 2, 1.20822
91, 6, bw, attraction, a-b-db, 14, 1, 6, 1, 56, 125, 135, 60, 60, 135, 1, 0.414635
91, 6, bw, attraction, a-b-da, 14, 3, 6, 2, 195, 120, 181, 111, 120, 195, 1, 2.25976
91, 6, bw, attraction, a-b-da, 14, 3, 6, 2, 195, 120, 181, 111, 120, 195, 2, 0.351547
91, 6, bw, filler, NA, 999, 999, 6, 3, 65, 135, 62, 91, 136, 68, 1, 0.951279
91, 6, bw, filler, NA, 999, 999, 6, 3, 65, 135, 62, 91, 136, 68, 2, 0.448283
91, 6, bw, attraction, a-b-db, 5, 1, 6, 4, 135, 60, 58, 132, 60, 135, 2, 1.14819
91, 6, bw, attraction, a-b-db, 5, 1, 6, 4, 135, 60, 58, 132, 60, 135, 3, 1.38137
91, 6, bw, attraction, a-b-da, 5, 1, 6, 5, 135, 60, 60, 135, 132, 58, 2, 1.09927
91, 6, bw, attraction, a-b-da, 5, 1, 6, 5, 135, 60, 60, 135, 132, 58, 1, 0.470226
91, 6, bw, attraction, a-b-db, 9, 1, 6, 6, 60, 135, 135, 60, 57, 129, 2, 0.905273
91, 6, bw, attraction, a-b-db, 9, 1, 6, 6, 60, 135, 135, 60, 57, 129, 3, 1.25964
91, 6, bw, filler, NA, 999, 999, 6, 7, 164, 148, 101, 107, 79, 95, 1, 0.678581
91, 6, bw, filler, NA, 999, 999, 6, 7, 164, 148, 101, 107, 79, 95, 3, 0.370358
91, 6, bw, attraction, a-b-da, 14, 2, 6, 8, 153, 83, 165, 90, 90, 165, 2, 0.785568
91, 6, bw, attraction, a-b-da, 14, 2, 6, 8, 153, 83, 165, 90, 90, 165, 1, 0.401201
91, 6, bw, attraction, a-b-db, 14, 2, 6, 9, 90, 165, 165, 90, 83, 153, 2, 0.703042
91, 6, bw, attraction, a-b-db, 14, 2, 6, 9, 90, 165, 165, 90, 83, 153, 3, 0.682241
91, 6, bw, attraction, a-b-da, 9, 1, 6, 10, 60, 135, 129, 57, 135, 60, 1, 3.21255
91, 6, bw, attraction, a-b-da, 9, 1, 6, 10, 60, 135, 129, 57, 135, 60, 2, 0.538127
91, 6, bw, attraction, a-b-da, 2, 2, 6, 11, 90, 165, 165, 90, 163, 89, 1, 2.0585
91, 6, bw, attraction, a-b-da, 2, 2, 6, 11, 90, 165, 165, 90, 163, 89, 2, 0.382625
91, 6, bw, attraction, a-b-db, 2, 3, 6, 12, 120, 195, 119, 193, 195, 120, 2, 1.05311
91, 6, bw, attraction, a-b-db, 2, 3, 6, 12, 120, 195, 119, 193, 195, 120, 1, 0.602031
91, 6, bw, attraction, a-b-da, 5, 3, 6, 13, 190, 117, 195, 120, 120, 195, 3, 1.15176
91, 6, bw, attraction, a-b-da, 5, 3, 6, 13, 190, 117, 195, 120, 120, 195, 1, 0.840733
91, 6, bw, filler, NA, 999, 999, 6, 14, 177, 104, 63, 176, 191, 111, 3, 1.88451
91, 6, bw, filler, NA, 999, 999, 6, 14, 177, 104, 63, 176, 191, 111, 2, 0.935919
91, 6, bw, filler, NA, 999, 999, 6, 15, 130, 60, 67, 75, 137, 191, 3, 0.688101
91, 6, bw, filler, NA, 999, 999, 6, 15, 130, 60, 67, 75, 137, 191, 2, 0.54722
91, 6, bw, attraction, a-b-db, 5, 2, 6, 16, 165, 90, 88, 161, 90, 165, 2, 1.39498
91, 6, bw, attraction, a-b-db, 5, 2, 6, 16, 165, 90, 88, 161, 90, 165, 1, 0.642017
91, 6, bw, attraction, a-b-db, 2, 1, 6, 17, 135, 60, 59, 134, 60, 135, 3, 1.24556
91, 6, bw, attraction, a-b-db, 2, 1, 6, 17, 135, 60, 59, 134, 60, 135, 1, 0.586517
91, 6, bw, attraction, a-b-db, 5, 3, 6, 18, 117, 190, 195, 120, 120, 195, 3, 0.937052
91, 6, bw, attraction, a-b-db, 5, 3, 6, 18, 117, 190, 195, 120, 120, 195, 1, 0.978568
91, 6, bw, attraction, a-b-da, 14, 1, 6, 19, 135, 60, 125, 56, 60, 135, 3, 1.55298
91, 6, bw, attraction, a-b-da, 14, 1, 6, 19, 135, 60, 125, 56, 60, 135, 1, 0.993808
91, 6, bw, filler, NA, 999, 999, 6, 20, 182, 171, 167, 167, 153, 142, 1, 2.29546
91, 6, bw, filler, NA, 999, 999, 6, 20, 182, 171, 167, 167, 153, 142, 3, 0.545953
91, 6, bw, attraction, a-b-db, 9, 3, 6, 21, 120, 195, 195, 120, 114, 186, 2, 3.22574
91, 6, bw, attraction, a-b-db, 9, 3, 6, 21, 120, 195, 195, 120, 114, 186, 3, 0.40669
91, 6, bw, attraction, a-b-db, 9, 2, 6, 22, 90, 165, 165, 90, 86, 157, 1, 2.85187
91, 6, bw, attraction, a-b-db, 9, 2, 6, 22, 90, 165, 165, 90, 86, 157, 3, 1.04026
91, 6, bw, filler, NA, 999, 999, 6, 23, 104, 148, 157, 92, 88, 89, 1, 0.739856
91, 6, bw, filler, NA, 999, 999, 6, 23, 104, 148, 157, 92, 88, 89, 3, 0.524894
91, 6, bw, attraction, a-b-da, 9, 2, 6, 24, 157, 86, 165, 90, 90, 165, 3, 1.98143
91, 6, bw, attraction, a-b-da, 9, 2, 6, 24, 157, 86, 165, 90, 90, 165, 1, 0.668748
91, 6, bw, filler, NA, 999, 999, 6, 25, 174, 147, 93, 132, 92, 125, 1, 0.743836
91, 6, bw, filler, NA, 999, 999, 6, 25, 174, 147, 93, 132, 92, 125, 3, 0.480905
91, 6, bw, attraction, a-b-da, 2, 3, 6, 26, 193, 119, 120, 195, 195, 120, 2, 1.29935
91, 6, bw, attraction, a-b-da, 2, 3, 6, 26, 193, 119, 120, 195, 195, 120, 1, 0.462196
91, 6, bw, catch, NA, 999, 999, 6, 27, 156, 99, 76, 119, 135, 180, 3, 0.809368
91, 6, bw, catch, NA, 999, 999, 6, 27, 156, 99, 76, 119, 135, 180, 2, 0.43975
91, 6, bw, attraction, a-b-db, 14, 3, 6, 28, 120, 195, 195, 120, 111, 181, 2, 1.63549
91, 6, bw, attraction, a-b-db, 14, 3, 6, 28, 120, 195, 195, 120, 111, 181, 1, 0.369053
91, 6, bw, filler, NA, 999, 999, 6, 29, 156, 61, 124, 108, 106, 145, 3, 0.880296
91, 6, bw, filler, NA, 999, 999, 6, 29, 156, 61, 124, 108, 106, 145, 1, 0.467941
91, 6, bw, filler, NA, 999, 999, 6, 30, 150, 85, 134, 66, 185, 78, 1, 1.57507
91, 6, bw, filler, NA, 999, 999, 6, 30, 150, 85, 134, 66, 185, 78, 2, 0.398547
91, 6, bw, attraction, a-b-da, 9, 3, 6, 31, 186, 114, 120, 195, 195, 120, 2, 0.88437
91, 6, bw, attraction, a-b-da, 9, 3, 6, 31, 186, 114, 120, 195, 195, 120, 1, 0.472003
91, 6, bw, filler, NA, 999, 999, 6, 32, 56, 138, 100, 188, 176, 119, 3, 1.21119
91, 6, bw, filler, NA, 999, 999, 6, 32, 56, 138, 100, 188, 176, 119, 1, 0.88939
91, 6, bw, attraction, a-b-db, 2, 2, 6, 33, 165, 90, 90, 165, 89, 163, 2, 1.57912
91, 6, bw, attraction, a-b-db, 2, 2, 6, 33, 165, 90, 90, 165, 89, 163, 1, 0.618477
91, 6, bw, attraction, a-b-da, 2, 1, 6, 34, 134, 59, 60, 135, 135, 60, 3, 1.31164
91, 6, bw, attraction, a-b-da, 2, 1, 6, 34, 134, 59, 60, 135, 135, 60, 1, 1.03389
91, 6, bw, catch, NA, 999, 999, 6, 35, 143, 112, 164, 151, 63, 132, 2, 0.790166
91, 6, bw, catch, NA, 999, 999, 6, 35, 143, 112, 164, 151, 63, 132, 3, 0.413241
91, 6, bw, attraction, a-b-da, 5, 2, 6, 36, 161, 88, 165, 90, 90, 165, 2, 0.858342
91, 6, bw, attraction, a-b-da, 5, 2, 6, 36, 161, 88, 165, 90, 90, 165, 1, 0.934746
91, 6, bw, catch, NA, 999, 999, 6, 37, 134, 181, 105, 90, 133, 122, 1, 0.623016
91, 6, bw, catch, NA, 999, 999, 6, 37, 134, 181, 105, 90, 133, 122, 2, 0.340815
91, 6, bw, filler, NA, 999, 999, 7, 1, 117, 57, 181, 81, 91, 144, 2, 0.692649
91, 6, bw, filler, NA, 999, 999, 7, 1, 117, 57, 181, 81, 91, 144, 1, 0.447876
91, 6, bw, attraction, a-b-db, 5, 2, 7, 2, 165, 90, 90, 165, 88, 161, 2, 1.21156
91, 6, bw, attraction, a-b-db, 5, 2, 7, 2, 165, 90, 90, 165, 88, 161, 1, 0.38587
91, 6, bw, attraction, a-b-da, 14, 1, 7, 3, 135, 60, 60, 135, 125, 56, 2, 1.42431
91, 6, bw, attraction, a-b-da, 14, 1, 7, 3, 135, 60, 60, 135, 125, 56, 3, 0.397812
91, 6, bw, attraction, a-b-db, 9, 1, 7, 4, 57, 129, 60, 135, 135, 60, 2, 0.867715
91, 6, bw, attraction, a-b-db, 9, 1, 7, 4, 57, 129, 60, 135, 135, 60, 1, 0.824055
91, 6, bw, catch, NA, 999, 999, 7, 5, 165, 150, 109, 146, 135, 60, 1, 0.740345
91, 6, bw, catch, NA, 999, 999, 7, 5, 165, 150, 109, 146, 135, 60, 3, 0.613571
91, 6, bw, attraction, a-b-da, 9, 3, 7, 6, 120, 195, 195, 120, 186, 114, 1, 1.17054
91, 6, bw, attraction, a-b-da, 9, 3, 7, 6, 120, 195, 195, 120, 186, 114, 2, 0.370848
91, 6, bw, filler, NA, 999, 999, 7, 7, 108, 88, 170, 114, 108, 115, 2, 1.02592
91, 6, bw, filler, NA, 999, 999, 7, 7, 108, 88, 170, 114, 108, 115, 1, 0.399604
91, 6, bw, attraction, a-b-db, 14, 1, 7, 8, 135, 60, 60, 135, 56, 125, 2, 1.04551
91, 6, bw, attraction, a-b-db, 14, 1, 7, 8, 135, 60, 60, 135, 56, 125, 3, 0.96237
91, 6, bw, attraction, a-b-da, 5, 1, 7, 9, 132, 58, 135, 60, 60, 135, 3, 1.04137
91, 6, bw, attraction, a-b-da, 5, 1, 7, 9, 132, 58, 135, 60, 60, 135, 2, 0.702395
91, 6, bw, attraction, a-b-da, 9, 2, 7, 10, 90, 165, 157, 86, 165, 90, 2, 0.544104
91, 6, bw, attraction, a-b-da, 9, 2, 7, 10, 90, 165, 157, 86, 165, 90, 1, 0.745269
91, 6, bw, attraction, a-b-da, 2, 3, 7, 11, 195, 120, 193, 119, 120, 195, 1, 2.37693
91, 6, bw, attraction, a-b-da, 2, 3, 7, 11, 195, 120, 193, 119, 120, 195, 3, 0.336229
91, 6, bw, catch, NA, 999, 999, 7, 12, 145, 170, 98, 157, 81, 114, 1, 0.632614
91, 6, bw, catch, NA, 999, 999, 7, 12, 145, 170, 98, 157, 81, 114, 3, 0.43042
91, 6, bw, attraction, a-b-db, 9, 2, 7, 13, 90, 165, 165, 90, 86, 157, 2, 1.15484
91, 6, bw, attraction, a-b-db, 9, 2, 7, 13, 90, 165, 165, 90, 86, 157, 3, 0.372993
91, 6, bw, attraction, a-b-db, 14, 3, 7, 14, 195, 120, 111, 181, 120, 195, 3, 1.95364
91, 6, bw, attraction, a-b-db, 14, 3, 7, 14, 195, 120, 111, 181, 120, 195, 2, 1.00236
91, 6, bw, attraction, a-b-da, 14, 3, 7, 15, 181, 111, 195, 120, 120, 195, 2, 0.575973
91, 6, bw, attraction, a-b-da, 14, 3, 7, 15, 181, 111, 195, 120, 120, 195, 3, 0.463774
91, 6, bw, attraction, a-b-db, 2, 3, 7, 16, 120, 195, 119, 193, 195, 120, 1, 1.18685
91, 6, bw, attraction, a-b-db, 2, 3, 7, 16, 120, 195, 119, 193, 195, 120, 3, 0.394467
91, 6, bw, attraction, a-b-db, 14, 2, 7, 17, 83, 153, 90, 165, 165, 90, 2, 0.808257
91, 6, bw, attraction, a-b-db, 14, 2, 7, 17, 83, 153, 90, 165, 165, 90, 1, 0.374735
91, 6, bw, attraction, a-b-db, 5, 1, 7, 18, 58, 132, 135, 60, 60, 135, 2, 1.58124
91, 6, bw, attraction, a-b-db, 5, 1, 7, 18, 58, 132, 135, 60, 60, 135, 1, 0.484707
91, 6, bw, attraction, a-b-db, 9, 3, 7, 19, 195, 120, 114, 186, 120, 195, 1, 1.48722
91, 6, bw, attraction, a-b-db, 9, 3, 7, 19, 195, 120, 114, 186, 120, 195, 2, 0.402072
91, 6, bw, catch, NA, 999, 999, 7, 20, 107, 88, 125, 190, 131, 124, 2, 0.583826
91, 6, bw, catch, NA, 999, 999, 7, 20, 107, 88, 125, 190, 131, 124, 1, 0.383598
91, 6, bw, attraction, a-b-db, 2, 2, 7, 21, 165, 90, 89, 163, 90, 165, 3, 1.20616
91, 6, bw, attraction, a-b-db, 2, 2, 7, 21, 165, 90, 89, 163, 90, 165, 2, 0.428349
91, 6, bw, filler, NA, 999, 999, 7, 22, 123, 149, 171, 128, 85, 133, 2, 0.54486
91, 6, bw, filler, NA, 999, 999, 7, 22, 123, 149, 171, 128, 85, 133, 3, 0.377894
91, 6, bw, filler, NA, 999, 999, 7, 23, 173, 161, 121, 145, 183, 107, 1, 0.976501
91, 6, bw, filler, NA, 999, 999, 7, 23, 173, 161, 121, 145, 183, 107, 2, 0.360096
91, 6, bw, filler, NA, 999, 999, 7, 24, 101, 97, 192, 105, 149, 144, 3, 0.887258
91, 6, bw, filler, NA, 999, 999, 7, 24, 101, 97, 192, 105, 149, 144, 2, 0.410359
91, 6, bw, attraction, a-b-da, 2, 1, 7, 25, 135, 60, 134, 59, 60, 135, 2, 0.8794
91, 6, bw, attraction, a-b-da, 2, 1, 7, 25, 135, 60, 134, 59, 60, 135, 1, 0.619197
91, 6, bw, attraction, a-b-db, 2, 1, 7, 26, 59, 134, 60, 135, 135, 60, 1, 1.7362
91, 6, bw, attraction, a-b-db, 2, 1, 7, 26, 59, 134, 60, 135, 135, 60, 3, 0.793639
91, 6, bw, filler, NA, 999, 999, 7, 27, 157, 74, 132, 186, 187, 117, 2, 1.45531
91, 6, bw, filler, NA, 999, 999, 7, 27, 157, 74, 132, 186, 187, 117, 1, 0.707554
91, 6, bw, attraction, a-b-da, 2, 2, 7, 28, 90, 165, 165, 90, 163, 89, 2, 1.75666
91, 6, bw, attraction, a-b-da, 2, 2, 7, 28, 90, 165, 165, 90, 163, 89, 3, 1.77277
91, 6, bw, attraction, a-b-da, 14, 2, 7, 29, 153, 83, 165, 90, 90, 165, 3, 2.98739
91, 6, bw, attraction, a-b-da, 14, 2, 7, 29, 153, 83, 165, 90, 90, 165, 1, 0.634509
91, 6, bw, filler, NA, 999, 999, 7, 30, 109, 112, 93, 78, 84, 165, 1, 1.23885
91, 6, bw, filler, NA, 999, 999, 7, 30, 109, 112, 93, 78, 84, 165, 2, 0.427879
91, 6, bw, filler, NA, 999, 999, 7, 31, 59, 57, 72, 172, 183, 100, 3, 1.94432
91, 6, bw, filler, NA, 999, 999, 7, 31, 59, 57, 72, 172, 183, 100, 1, 0.744879
91, 6, bw, filler, NA, 999, 999, 7, 32, 118, 160, 73, 140, 167, 164, 3, 0.608633
91, 6, bw, filler, NA, 999, 999, 7, 32, 118, 160, 73, 140, 167, 164, 2, 0.655232
91, 6, bw, filler, NA, 999, 999, 7, 33, 156, 92, 152, 139, 99, 111, 2, 0.522853
91, 6, bw, filler, NA, 999, 999, 7, 33, 156, 92, 152, 139, 99, 111, 3, 0.668829
91, 6, bw, attraction, a-b-da, 9, 1, 7, 34, 60, 135, 129, 57, 135, 60, 3, 2.67973
91, 6, bw, attraction, a-b-da, 9, 1, 7, 34, 60, 135, 129, 57, 135, 60, 1, 0.642833
91, 6, bw, attraction, a-b-da, 5, 2, 7, 35, 165, 90, 161, 88, 90, 165, 1, 1.27064
91, 6, bw, attraction, a-b-da, 5, 2, 7, 35, 165, 90, 161, 88, 90, 165, 3, 0.426167
91, 6, bw, attraction, a-b-db, 5, 3, 7, 36, 120, 195, 117, 190, 195, 120, 1, 4.94263
91, 6, bw, attraction, a-b-db, 5, 3, 7, 36, 120, 195, 117, 190, 195, 120, 2, 0.350416
91, 6, bw, attraction, a-b-da, 5, 3, 7, 37, 190, 117, 195, 120, 120, 195, 2, 1.42233
91, 6, bw, attraction, a-b-da, 5, 3, 7, 37, 190, 117, 195, 120, 120, 195, 1, 0.579771
91, 6, bw, filler, NA, 999, 999, 8, 1, 190, 142, 97, 121, 122, 127, 1, 0.754125
91, 6, bw, filler, NA, 999, 999, 8, 1, 190, 142, 97, 121, 122, 127, 2, 0.3466
91, 6, bw, catch, NA, 999, 999, 8, 2, 162, 153, 120, 75, 112, 143, 1, 0.81841
91, 6, bw, catch, NA, 999, 999, 8, 2, 162, 153, 120, 75, 112, 143, 2, 0.712907
91, 6, bw, attraction, a-b-da, 9, 1, 8, 3, 129, 57, 60, 135, 135, 60, 2, 1.40188
91, 6, bw, attraction, a-b-da, 9, 1, 8, 3, 129, 57, 60, 135, 135, 60, 1, 1.06481
91, 6, bw, attraction, a-b-db, 14, 2, 8, 4, 83, 153, 165, 90, 90, 165, 1, 1.05965
91, 6, bw, attraction, a-b-db, 14, 2, 8, 4, 83, 153, 165, 90, 90, 165, 2, 1.14399
91, 6, bw, catch, NA, 999, 999, 8, 5, 155, 100, 133, 62, 154, 161, 3, 0.583538
91, 6, bw, catch, NA, 999, 999, 8, 5, 155, 100, 133, 62, 154, 161, 2, 0.487303
91, 6, bw, attraction, a-b-db, 2, 2, 8, 6, 90, 165, 165, 90, 89, 163, 2, 0.841829
91, 6, bw, attraction, a-b-db, 2, 2, 8, 6, 90, 165, 165, 90, 89, 163, 3, 0.390918
91, 6, bw, filler, NA, 999, 999, 8, 7, 167, 187, 147, 130, 180, 187, 3, 0.636639
91, 6, bw, filler, NA, 999, 999, 8, 7, 167, 187, 147, 130, 180, 187, 2, 0.433744
91, 6, bw, attraction, a-b-db, 5, 2, 8, 8, 90, 165, 165, 90, 88, 161, 1, 0.918174
91, 6, bw, attraction, a-b-db, 5, 2, 8, 8, 90, 165, 165, 90, 88, 161, 3, 0.696633
91, 6, bw, attraction, a-b-da, 2, 3, 8, 9, 120, 195, 193, 119, 195, 120, 1, 1.2103
91, 6, bw, attraction, a-b-da, 2, 3, 8, 9, 120, 195, 193, 119, 195, 120, 2, 0.600605
91, 6, bw, attraction, a-b-da, 14, 3, 8, 10, 195, 120, 181, 111, 120, 195, 1, 0.918379
91, 6, bw, attraction, a-b-da, 14, 3, 8, 10, 195, 120, 181, 111, 120, 195, 2, 0.896728
91, 6, bw, attraction, a-b-db, 9, 3, 8, 11, 195, 120, 120, 195, 114, 186, 2, 1.89836
91, 6, bw, attraction, a-b-db, 9, 3, 8, 11, 195, 120, 120, 195, 114, 186, 3, 0.62907
91, 6, bw, filler, NA, 999, 999, 8, 12, 123, 133, 112, 68, 173, 83, 1, 0.825408
91, 6, bw, filler, NA, 999, 999, 8, 12, 123, 133, 112, 68, 173, 83, 2, 0.727347
91, 6, bw, attraction, a-b-da, 5, 1, 8, 13, 132, 58, 135, 60, 60, 135, 2, 1.7835
91, 6, bw, attraction, a-b-da, 5, 1, 8, 13, 132, 58, 135, 60, 60, 135, 1, 1.00712
91, 6, bw, attraction, a-b-db, 2, 1, 8, 14, 60, 135, 59, 134, 135, 60, 1, 1.7479
91, 6, bw, attraction, a-b-db, 2, 1, 8, 14, 60, 135, 59, 134, 135, 60, 2, 0.996907
91, 6, bw, attraction, a-b-db, 5, 1, 8, 15, 135, 60, 58, 132, 60, 135, 2, 1.1463
91, 6, bw, attraction, a-b-db, 5, 1, 8, 15, 135, 60, 58, 132, 60, 135, 1, 0.691293
91, 6, bw, filler, NA, 999, 999, 8, 16, 109, 182, 72, 97, 104, 118, 1, 0.869012
91, 6, bw, filler, NA, 999, 999, 8, 16, 109, 182, 72, 97, 104, 118, 2, 0.793361
91, 6, bw, attraction, a-b-db, 14, 3, 8, 17, 120, 195, 111, 181, 195, 120, 1, 2.35906
91, 6, bw, attraction, a-b-db, 14, 3, 8, 17, 120, 195, 111, 181, 195, 120, 2, 1.087
91, 6, bw, attraction, a-b-da, 2, 2, 8, 18, 90, 165, 163, 89, 165, 90, 1, 1.18526
91, 6, bw, attraction, a-b-da, 2, 2, 8, 18, 90, 165, 163, 89, 165, 90, 2, 0.3689
91, 6, bw, attraction, a-b-db, 5, 3, 8, 19, 120, 195, 117, 190, 195, 120, 2, 1.48805
91, 6, bw, attraction, a-b-db, 5, 3, 8, 19, 120, 195, 117, 190, 195, 120, 1, 0.594928
91, 6, bw, attraction, a-b-da, 9, 3, 8, 20, 195, 120, 120, 195, 186, 114, 2, 0.712677
91, 6, bw, attraction, a-b-da, 9, 3, 8, 20, 195, 120, 120, 195, 186, 114, 1, 0.475124
91, 6, bw, filler, NA, 999, 999, 8, 21, 78, 186, 170, 162, 113, 82, 2, 0.869564
91, 6, bw, filler, NA, 999, 999, 8, 21, 78, 186, 170, 162, 113, 82, 3, 0.593935
91, 6, bw, attraction, a-b-db, 14, 1, 8, 22, 56, 125, 60, 135, 135, 60, 2, 0.839764
91, 6, bw, attraction, a-b-db, 14, 1, 8, 22, 56, 125, 60, 135, 135, 60, 1, 0.484733
91, 6, bw, filler, NA, 999, 999, 8, 23, 94, 58, 82, 164, 183, 95, 2, 0.7031
91, 6, bw, filler, NA, 999, 999, 8, 23, 94, 58, 82, 164, 183, 95, 1, 0.434163
91, 6, bw, attraction, a-b-da, 5, 3, 8, 24, 195, 120, 190, 117, 120, 195, 3, 0.902653
91, 6, bw, attraction, a-b-da, 5, 3, 8, 24, 195, 120, 190, 117, 120, 195, 2, 0.561726
91, 6, bw, attraction, a-b-da, 14, 2, 8, 25, 90, 165, 165, 90, 153, 83, 1, 0.912819
91, 6, bw, attraction, a-b-da, 14, 2, 8, 25, 90, 165, 165, 90, 153, 83, 2, 0.515098
91, 6, bw, filler, NA, 999, 999, 8, 26, 136, 160, 177, 100, 95, 137, 1, 0.532173
91, 6, bw, filler, NA, 999, 999, 8, 26, 136, 160, 177, 100, 95, 137, 2, 0.470068
91, 6, bw, attraction, a-b-da, 5, 2, 8, 27, 165, 90, 90, 165, 161, 88, 2, 0.897222
91, 6, bw, attraction, a-b-da, 5, 2, 8, 27, 165, 90, 90, 165, 161, 88, 3, 0.4202
91, 6, bw, filler, NA, 999, 999, 8, 28, 65, 173, 181, 136, 170, 172, 3, 0.817312
91, 6, bw, filler, NA, 999, 999, 8, 28, 65, 173, 181, 136, 170, 172, 1, 0.407722
91, 6, bw, attraction, a-b-db, 9, 1, 8, 29, 57, 129, 60, 135, 135, 60, 2, 1.38886
91, 6, bw, attraction, a-b-db, 9, 1, 8, 29, 57, 129, 60, 135, 135, 60, 3, 0.412124
91, 6, bw, attraction, a-b-da, 14, 1, 8, 30, 125, 56, 135, 60, 60, 135, 3, 1.24885
91, 6, bw, attraction, a-b-da, 14, 1, 8, 30, 125, 56, 135, 60, 60, 135, 2, 0.477855
91, 6, bw, attraction, a-b-da, 9, 2, 8, 31, 165, 90, 90, 165, 157, 86, 2, 0.800264
91, 6, bw, attraction, a-b-da, 9, 2, 8, 31, 165, 90, 90, 165, 157, 86, 3, 0.415306
91, 6, bw, attraction, a-b-da, 2, 1, 8, 32, 135, 60, 60, 135, 134, 59, 2, 0.660486
91, 6, bw, attraction, a-b-da, 2, 1, 8, 32, 135, 60, 60, 135, 134, 59, 3, 1.3209
91, 6, bw, catch, NA, 999, 999, 8, 33, 80, 115, 154, 101, 184, 131, 3, 0.729773
91, 6, bw, catch, NA, 999, 999, 8, 33, 80, 115, 154, 101, 184, 131, 1, 0.431806
91, 6, bw, filler, NA, 999, 999, 8, 34, 168, 111, 121, 99, 107, 79, 1, 1.01594
91, 6, bw, filler, NA, 999, 999, 8, 34, 168, 111, 121, 99, 107, 79, 3, 0.910313
91, 6, bw, attraction, a-b-db, 9, 2, 8, 35, 90, 165, 86, 157, 165, 90, 2, 0.919311
91, 6, bw, attraction, a-b-db, 9, 2, 8, 35, 90, 165, 86, 157, 165, 90, 3, 0.937677
91, 6, bw, filler, NA, 999, 999, 8, 36, 149, 86, 133, 180, 186, 137, 3, 1.01794
91, 6, bw, filler, NA, 999, 999, 8, 36, 149, 86, 133, 180, 186, 137, 1, 0.720378
91, 6, bw, attraction, a-b-db, 2, 3, 8, 37, 195, 120, 119, 193, 120, 195, 3, 1.59343
91, 6, bw, attraction, a-b-db, 2, 3, 8, 37, 195, 120, 119, 193, 120, 195, 1, 1.05997
