sub_n, computer_n, bw_cond, effect, set, distance, diag, block_n, trial_n, h1, w1, h2, w2, h3, w3, choice, rt 
146, 3, wb, practice, NA, 999, 999, 0, 1, 59, 117, 175, 186, 169, 83, 1, 4.873
146, 3, wb, practice, NA, 999, 999, 0, 1, 59, 117, 175, 186, 169, 83, 2, 3.3925
146, 3, wb, practice, NA, 999, 999, 0, 2, 95, 104, 166, 89, 119, 183, 2, 6.3871
146, 3, wb, practice, NA, 999, 999, 0, 2, 95, 104, 166, 89, 119, 183, 3, 3.30631
146, 3, wb, practice, NA, 999, 999, 0, 3, 97, 128, 118, 88, 151, 98, 2, 3.87981
146, 3, wb, practice, NA, 999, 999, 0, 3, 97, 128, 118, 88, 151, 98, 3, 1.98836
146, 3, wb, filler, NA, 999, 999, 1, 1, 140, 176, 192, 72, 146, 142, 2, 2.31511
146, 3, wb, filler, NA, 999, 999, 1, 1, 140, 176, 192, 72, 146, 142, 1, 2.03696
146, 3, wb, filler, NA, 999, 999, 1, 2, 140, 132, 110, 92, 162, 114, 2, 1.49692
146, 3, wb, filler, NA, 999, 999, 1, 2, 140, 132, 110, 92, 162, 114, 1, 0.39583
146, 3, wb, attraction, a-b-da, 5, 1, 1, 3, 135, 60, 60, 135, 132, 58, 3, 5.69761
146, 3, wb, attraction, a-b-da, 5, 1, 1, 3, 135, 60, 60, 135, 132, 58, 2, 1.40309
146, 3, wb, attraction, a-b-da, 5, 2, 1, 4, 90, 165, 161, 88, 165, 90, 2, 5.78469
146, 3, wb, attraction, a-b-da, 5, 2, 1, 4, 90, 165, 161, 88, 165, 90, 1, 3.66282
146, 3, wb, attraction, a-b-da, 2, 3, 1, 5, 120, 195, 195, 120, 193, 119, 3, 1.87303
146, 3, wb, attraction, a-b-da, 2, 3, 1, 5, 120, 195, 195, 120, 193, 119, 2, 0.74044
146, 3, wb, attraction, a-b-da, 5, 3, 1, 6, 190, 117, 120, 195, 195, 120, 1, 1.30797
146, 3, wb, attraction, a-b-da, 5, 3, 1, 6, 190, 117, 120, 195, 195, 120, 2, 0.470226
146, 3, wb, attraction, a-b-db, 14, 3, 1, 7, 195, 120, 120, 195, 111, 181, 3, 1.44933
146, 3, wb, attraction, a-b-db, 14, 3, 1, 7, 195, 120, 120, 195, 111, 181, 2, 0.942254
146, 3, wb, attraction, a-b-db, 14, 2, 1, 8, 83, 153, 90, 165, 165, 90, 1, 1.82986
146, 3, wb, attraction, a-b-db, 14, 2, 1, 8, 83, 153, 90, 165, 165, 90, 3, 0.611188
146, 3, wb, attraction, a-b-da, 14, 1, 1, 9, 125, 56, 60, 135, 135, 60, 1, 1.20035
146, 3, wb, attraction, a-b-da, 14, 1, 1, 9, 125, 56, 60, 135, 135, 60, 2, 0.71138
146, 3, wb, filler, NA, 999, 999, 1, 10, 171, 87, 104, 172, 166, 164, 1, 1.1284
146, 3, wb, filler, NA, 999, 999, 1, 10, 171, 87, 104, 172, 166, 164, 3, 0.457997
146, 3, wb, catch, NA, 999, 999, 1, 11, 90, 165, 66, 129, 149, 166, 2, 1.24508
146, 3, wb, catch, NA, 999, 999, 1, 11, 90, 165, 66, 129, 149, 166, 3, 0.561938
146, 3, wb, attraction, a-b-db, 5, 2, 1, 12, 165, 90, 88, 161, 90, 165, 3, 3.01706
146, 3, wb, attraction, a-b-db, 5, 2, 1, 12, 165, 90, 88, 161, 90, 165, 2, 0.974789
146, 3, wb, attraction, a-b-db, 2, 3, 1, 13, 195, 120, 119, 193, 120, 195, 2, 1.30915
146, 3, wb, attraction, a-b-db, 2, 3, 1, 13, 195, 120, 119, 193, 120, 195, 3, 1.73536
146, 3, wb, attraction, a-b-db, 5, 3, 1, 14, 195, 120, 120, 195, 117, 190, 1, 1.20734
146, 3, wb, attraction, a-b-db, 5, 3, 1, 14, 195, 120, 120, 195, 117, 190, 2, 1.00565
146, 3, wb, catch, NA, 999, 999, 1, 15, 112, 83, 155, 100, 150, 165, 1, 0.883244
146, 3, wb, catch, NA, 999, 999, 1, 15, 112, 83, 155, 100, 150, 165, 3, 0.63101
146, 3, wb, filler, NA, 999, 999, 1, 16, 156, 60, 133, 188, 142, 84, 1, 1.60338
146, 3, wb, filler, NA, 999, 999, 1, 16, 156, 60, 133, 188, 142, 84, 2, 1.32219
146, 3, wb, attraction, a-b-db, 2, 2, 1, 17, 89, 163, 165, 90, 90, 165, 2, 0.827178
146, 3, wb, attraction, a-b-db, 2, 2, 1, 17, 89, 163, 165, 90, 90, 165, 1, 0.632793
146, 3, wb, attraction, a-b-db, 9, 1, 1, 18, 57, 129, 135, 60, 60, 135, 2, 0.901223
146, 3, wb, attraction, a-b-db, 9, 1, 1, 18, 57, 129, 135, 60, 60, 135, 3, 0.504333
146, 3, wb, attraction, a-b-da, 2, 1, 1, 19, 135, 60, 60, 135, 134, 59, 2, 0.593911
146, 3, wb, attraction, a-b-da, 2, 1, 1, 19, 135, 60, 60, 135, 134, 59, 1, 0.529097
146, 3, wb, filler, NA, 999, 999, 1, 20, 57, 61, 70, 59, 121, 97, 1, 1.69761
146, 3, wb, filler, NA, 999, 999, 1, 20, 57, 61, 70, 59, 121, 97, 3, 0.484393
146, 3, wb, filler, NA, 999, 999, 1, 21, 80, 189, 98, 72, 182, 174, 2, 0.798749
146, 3, wb, filler, NA, 999, 999, 1, 21, 80, 189, 98, 72, 182, 174, 3, 0.85386
146, 3, wb, attraction, a-b-db, 2, 1, 1, 22, 59, 134, 60, 135, 135, 60, 1, 1.29764
146, 3, wb, attraction, a-b-db, 2, 1, 1, 22, 59, 134, 60, 135, 135, 60, 3, 0.708424
146, 3, wb, attraction, a-b-da, 2, 2, 1, 23, 90, 165, 165, 90, 163, 89, 2, 1.71748
146, 3, wb, attraction, a-b-da, 2, 2, 1, 23, 90, 165, 165, 90, 163, 89, 1, 0.383593
146, 3, wb, attraction, a-b-da, 9, 2, 1, 24, 165, 90, 157, 86, 90, 165, 2, 1.30207
146, 3, wb, attraction, a-b-da, 9, 2, 1, 24, 165, 90, 157, 86, 90, 165, 1, 1.93698
146, 3, wb, filler, NA, 999, 999, 1, 25, 62, 68, 113, 147, 72, 163, 1, 2.06502
146, 3, wb, filler, NA, 999, 999, 1, 25, 62, 68, 113, 147, 72, 163, 2, 0.36497
146, 3, wb, filler, NA, 999, 999, 1, 26, 92, 161, 111, 81, 167, 172, 2, 1.34822
146, 3, wb, filler, NA, 999, 999, 1, 26, 92, 161, 111, 81, 167, 172, 3, 0.573107
146, 3, wb, attraction, a-b-db, 14, 1, 1, 27, 135, 60, 56, 125, 60, 135, 2, 1.07609
146, 3, wb, attraction, a-b-db, 14, 1, 1, 27, 135, 60, 56, 125, 60, 135, 1, 0.631814
146, 3, wb, attraction, a-b-db, 5, 1, 1, 28, 58, 132, 60, 135, 135, 60, 2, 1.14019
146, 3, wb, attraction, a-b-db, 5, 1, 1, 28, 58, 132, 60, 135, 135, 60, 3, 0.613106
146, 3, wb, attraction, a-b-db, 9, 3, 1, 29, 120, 195, 195, 120, 114, 186, 3, 1.84219
146, 3, wb, attraction, a-b-db, 9, 3, 1, 29, 120, 195, 195, 120, 114, 186, 2, 0.446945
146, 3, wb, catch, NA, 999, 999, 1, 30, 92, 103, 181, 134, 119, 136, 1, 1.25081
146, 3, wb, catch, NA, 999, 999, 1, 30, 92, 103, 181, 134, 119, 136, 2, 0.479761
146, 3, wb, attraction, a-b-db, 9, 2, 1, 31, 86, 157, 90, 165, 165, 90, 2, 1.10614
146, 3, wb, attraction, a-b-db, 9, 2, 1, 31, 86, 157, 90, 165, 165, 90, 3, 0.620439
146, 3, wb, attraction, a-b-da, 9, 1, 1, 32, 60, 135, 129, 57, 135, 60, 2, 0.777517
146, 3, wb, attraction, a-b-da, 9, 1, 1, 32, 60, 135, 129, 57, 135, 60, 3, 0.56129
146, 3, wb, filler, NA, 999, 999, 1, 33, 114, 128, 162, 117, 195, 192, 1, 2.97632
146, 3, wb, filler, NA, 999, 999, 1, 33, 114, 128, 162, 117, 195, 192, 3, 0.623327
146, 3, wb, attraction, a-b-da, 14, 2, 1, 34, 90, 165, 165, 90, 153, 83, 2, 0.740387
146, 3, wb, attraction, a-b-da, 14, 2, 1, 34, 90, 165, 165, 90, 153, 83, 1, 0.365539
146, 3, wb, attraction, a-b-da, 9, 3, 1, 35, 120, 195, 195, 120, 186, 114, 2, 0.764681
146, 3, wb, attraction, a-b-da, 9, 3, 1, 35, 120, 195, 195, 120, 186, 114, 3, 0.309154
146, 3, wb, attraction, a-b-da, 14, 3, 1, 36, 120, 195, 181, 111, 195, 120, 2, 0.446176
146, 3, wb, attraction, a-b-da, 14, 3, 1, 36, 120, 195, 181, 111, 195, 120, 1, 0.403311
146, 3, wb, filler, NA, 999, 999, 1, 37, 93, 169, 92, 74, 163, 96, 2, 0.777241
146, 3, wb, filler, NA, 999, 999, 1, 37, 93, 169, 92, 74, 163, 96, 1, 0.39303
146, 3, wb, catch, NA, 999, 999, 2, 1, 173, 142, 120, 135, 122, 73, 3, 1.19885
146, 3, wb, catch, NA, 999, 999, 2, 1, 173, 142, 120, 135, 122, 73, 2, 0.349701
146, 3, wb, attraction, a-b-db, 2, 3, 2, 2, 195, 120, 120, 195, 119, 193, 1, 0.997598
146, 3, wb, attraction, a-b-db, 2, 3, 2, 2, 195, 120, 120, 195, 119, 193, 2, 0.348475
146, 3, wb, attraction, a-b-db, 9, 2, 2, 3, 165, 90, 86, 157, 90, 165, 1, 0.80434
146, 3, wb, attraction, a-b-db, 9, 2, 2, 3, 165, 90, 86, 157, 90, 165, 2, 0.355448
146, 3, wb, attraction, a-b-da, 5, 1, 2, 4, 60, 135, 135, 60, 132, 58, 2, 0.643201
146, 3, wb, attraction, a-b-da, 5, 1, 2, 4, 60, 135, 135, 60, 132, 58, 1, 0.36834
146, 3, wb, attraction, a-b-da, 2, 3, 2, 5, 195, 120, 193, 119, 120, 195, 2, 1.00755
146, 3, wb, attraction, a-b-da, 2, 3, 2, 5, 195, 120, 193, 119, 120, 195, 3, 0.333892
146, 3, wb, attraction, a-b-da, 5, 2, 2, 6, 161, 88, 90, 165, 165, 90, 1, 0.630277
146, 3, wb, attraction, a-b-da, 5, 2, 2, 6, 161, 88, 90, 165, 165, 90, 2, 0.388081
146, 3, wb, attraction, a-b-db, 5, 2, 2, 7, 90, 165, 165, 90, 88, 161, 3, 0.522572
146, 3, wb, attraction, a-b-db, 5, 2, 2, 7, 90, 165, 165, 90, 88, 161, 2, 0.364452
146, 3, wb, filler, NA, 999, 999, 2, 8, 171, 155, 157, 186, 192, 95, 3, 1.01163
146, 3, wb, filler, NA, 999, 999, 2, 8, 171, 155, 157, 186, 192, 95, 2, 0.281919
146, 3, wb, attraction, a-b-da, 14, 1, 2, 9, 125, 56, 135, 60, 60, 135, 1, 0.740381
146, 3, wb, attraction, a-b-da, 14, 1, 2, 9, 125, 56, 135, 60, 60, 135, 3, 0.701611
146, 3, wb, attraction, a-b-da, 14, 3, 2, 10, 195, 120, 120, 195, 181, 111, 3, 2.20725
146, 3, wb, attraction, a-b-da, 14, 3, 2, 10, 195, 120, 120, 195, 181, 111, 2, 0.365391
146, 3, wb, attraction, a-b-db, 2, 1, 2, 11, 59, 134, 135, 60, 60, 135, 2, 1.21229
146, 3, wb, attraction, a-b-db, 2, 1, 2, 11, 59, 134, 135, 60, 60, 135, 1, 0.354584
146, 3, wb, attraction, a-b-db, 14, 2, 2, 12, 83, 153, 90, 165, 165, 90, 1, 1.54645
146, 3, wb, attraction, a-b-db, 14, 2, 2, 12, 83, 153, 90, 165, 165, 90, 2, 0.355248
146, 3, wb, attraction, a-b-da, 2, 1, 2, 13, 60, 135, 134, 59, 135, 60, 1, 0.627229
146, 3, wb, attraction, a-b-da, 2, 1, 2, 13, 60, 135, 134, 59, 135, 60, 2, 0.768873
146, 3, wb, attraction, a-b-db, 5, 1, 2, 14, 60, 135, 58, 132, 135, 60, 1, 0.631884
146, 3, wb, attraction, a-b-db, 5, 1, 2, 14, 60, 135, 58, 132, 135, 60, 3, 0.885712
146, 3, wb, filler, NA, 999, 999, 2, 15, 168, 116, 133, 125, 62, 150, 3, 1.02403
146, 3, wb, filler, NA, 999, 999, 2, 15, 168, 116, 133, 125, 62, 150, 1, 0.621661
146, 3, wb, attraction, a-b-db, 5, 3, 2, 16, 195, 120, 117, 190, 120, 195, 1, 0.762828
146, 3, wb, attraction, a-b-db, 5, 3, 2, 16, 195, 120, 117, 190, 120, 195, 2, 0.382712
146, 3, wb, attraction, a-b-db, 9, 3, 2, 17, 114, 186, 120, 195, 195, 120, 1, 0.529582
146, 3, wb, attraction, a-b-db, 9, 3, 2, 17, 114, 186, 120, 195, 195, 120, 2, 0.275434
146, 3, wb, catch, NA, 999, 999, 2, 18, 136, 179, 162, 93, 120, 75, 3, 1.06995
146, 3, wb, catch, NA, 999, 999, 2, 18, 136, 179, 162, 93, 120, 75, 2, 0.634256
146, 3, wb, attraction, a-b-db, 9, 1, 2, 19, 60, 135, 57, 129, 135, 60, 1, 0.81512
146, 3, wb, attraction, a-b-db, 9, 1, 2, 19, 60, 135, 57, 129, 135, 60, 2, 0.613084
146, 3, wb, attraction, a-b-da, 9, 1, 2, 20, 60, 135, 135, 60, 129, 57, 1, 0.738129
146, 3, wb, attraction, a-b-da, 9, 1, 2, 20, 60, 135, 135, 60, 129, 57, 2, 0.667877
146, 3, wb, attraction, a-b-da, 9, 3, 2, 21, 186, 114, 195, 120, 120, 195, 1, 1.59094
146, 3, wb, attraction, a-b-da, 9, 3, 2, 21, 186, 114, 195, 120, 120, 195, 3, 0.397756
146, 3, wb, attraction, a-b-db, 14, 1, 2, 22, 56, 125, 135, 60, 60, 135, 1, 0.8276
146, 3, wb, attraction, a-b-db, 14, 1, 2, 22, 56, 125, 135, 60, 60, 135, 2, 0.841265
146, 3, wb, filler, NA, 999, 999, 2, 23, 126, 83, 89, 77, 147, 78, 2, 0.836939
146, 3, wb, filler, NA, 999, 999, 2, 23, 126, 83, 89, 77, 147, 78, 3, 0.498745
146, 3, wb, filler, NA, 999, 999, 2, 24, 73, 126, 117, 155, 136, 178, 1, 0.676573
146, 3, wb, filler, NA, 999, 999, 2, 24, 73, 126, 117, 155, 136, 178, 3, 0.616226
146, 3, wb, filler, NA, 999, 999, 2, 25, 172, 107, 118, 126, 136, 181, 2, 1.01338
146, 3, wb, filler, NA, 999, 999, 2, 25, 172, 107, 118, 126, 136, 181, 3, 0.563801
146, 3, wb, attraction, a-b-da, 14, 2, 2, 26, 153, 83, 165, 90, 90, 165, 3, 1.02676
146, 3, wb, attraction, a-b-da, 14, 2, 2, 26, 153, 83, 165, 90, 90, 165, 2, 0.584469
146, 3, wb, filler, NA, 999, 999, 2, 27, 125, 184, 195, 56, 176, 184, 2, 1.5108
146, 3, wb, filler, NA, 999, 999, 2, 27, 125, 184, 195, 56, 176, 184, 3, 0.753136
146, 3, wb, filler, NA, 999, 999, 2, 28, 184, 109, 80, 132, 91, 59, 3, 1.13666
146, 3, wb, filler, NA, 999, 999, 2, 28, 184, 109, 80, 132, 91, 59, 1, 0.698396
146, 3, wb, attraction, a-b-db, 14, 3, 2, 29, 195, 120, 120, 195, 111, 181, 3, 0.844015
146, 3, wb, attraction, a-b-db, 14, 3, 2, 29, 195, 120, 120, 195, 111, 181, 1, 0.585211
146, 3, wb, filler, NA, 999, 999, 2, 30, 156, 190, 90, 123, 154, 162, 2, 1.11953
146, 3, wb, filler, NA, 999, 999, 2, 30, 156, 190, 90, 123, 154, 162, 1, 0.345795
146, 3, wb, attraction, a-b-da, 2, 2, 2, 31, 90, 165, 165, 90, 163, 89, 1, 0.809641
146, 3, wb, attraction, a-b-da, 2, 2, 2, 31, 90, 165, 165, 90, 163, 89, 2, 0.45597
146, 3, wb, attraction, a-b-db, 2, 2, 2, 32, 165, 90, 89, 163, 90, 165, 1, 0.763772
146, 3, wb, attraction, a-b-db, 2, 2, 2, 32, 165, 90, 89, 163, 90, 165, 2, 0.420238
146, 3, wb, catch, NA, 999, 999, 2, 33, 116, 139, 187, 128, 86, 109, 3, 0.881458
146, 3, wb, catch, NA, 999, 999, 2, 33, 116, 139, 187, 128, 86, 109, 2, 0.349074
146, 3, wb, attraction, a-b-da, 5, 3, 2, 34, 120, 195, 195, 120, 190, 117, 3, 0.932877
146, 3, wb, attraction, a-b-da, 5, 3, 2, 34, 120, 195, 195, 120, 190, 117, 2, 0.374577
146, 3, wb, attraction, a-b-da, 9, 2, 2, 35, 157, 86, 90, 165, 165, 90, 3, 0.813031
146, 3, wb, attraction, a-b-da, 9, 2, 2, 35, 157, 86, 90, 165, 165, 90, 2, 0.643416
146, 3, wb, filler, NA, 999, 999, 2, 36, 144, 169, 160, 68, 169, 192, 2, 0.959195
146, 3, wb, filler, NA, 999, 999, 2, 36, 144, 169, 160, 68, 169, 192, 3, 0.327577
146, 3, wb, filler, NA, 999, 999, 2, 37, 118, 70, 83, 156, 88, 85, 3, 0.880092
146, 3, wb, filler, NA, 999, 999, 2, 37, 118, 70, 83, 156, 88, 85, 2, 0.34774
146, 3, wb, filler, NA, 999, 999, 3, 1, 84, 192, 166, 105, 66, 159, 3, 0.603488
146, 3, wb, filler, NA, 999, 999, 3, 1, 84, 192, 166, 105, 66, 159, 2, 0.322782
146, 3, wb, filler, NA, 999, 999, 3, 2, 84, 107, 122, 116, 96, 97, 3, 1.28382
146, 3, wb, filler, NA, 999, 999, 3, 2, 84, 107, 122, 116, 96, 97, 2, 0.335493
146, 3, wb, attraction, a-b-da, 9, 1, 3, 3, 60, 135, 135, 60, 129, 57, 3, 0.807992
146, 3, wb, attraction, a-b-da, 9, 1, 3, 3, 60, 135, 135, 60, 129, 57, 2, 1.1104
146, 3, wb, attraction, a-b-db, 14, 1, 3, 4, 56, 125, 60, 135, 135, 60, 1, 0.831261
146, 3, wb, attraction, a-b-db, 14, 1, 3, 4, 56, 125, 60, 135, 135, 60, 3, 3.41304
146, 3, wb, catch, NA, 999, 999, 3, 5, 88, 107, 143, 172, 131, 124, 1, 1.16916
146, 3, wb, catch, NA, 999, 999, 3, 5, 88, 107, 143, 172, 131, 124, 2, 0.449484
146, 3, wb, attraction, a-b-db, 9, 1, 3, 6, 60, 135, 135, 60, 57, 129, 3, 0.901196
146, 3, wb, attraction, a-b-db, 9, 1, 3, 6, 60, 135, 135, 60, 57, 129, 2, 0.376328
146, 3, wb, attraction, a-b-da, 9, 2, 3, 7, 157, 86, 90, 165, 165, 90, 1, 0.822748
146, 3, wb, attraction, a-b-da, 9, 2, 3, 7, 157, 86, 90, 165, 165, 90, 2, 0.468556
146, 3, wb, attraction, a-b-db, 5, 3, 3, 8, 120, 195, 117, 190, 195, 120, 2, 1.81559
146, 3, wb, attraction, a-b-db, 5, 3, 3, 8, 120, 195, 117, 190, 195, 120, 3, 0.365659
146, 3, wb, attraction, a-b-da, 5, 1, 3, 9, 135, 60, 60, 135, 132, 58, 3, 0.828851
146, 3, wb, attraction, a-b-da, 5, 1, 3, 9, 135, 60, 60, 135, 132, 58, 2, 0.5866
146, 3, wb, attraction, a-b-db, 14, 3, 3, 10, 120, 195, 195, 120, 111, 181, 2, 0.593447
146, 3, wb, attraction, a-b-db, 14, 3, 3, 10, 120, 195, 195, 120, 111, 181, 3, 0.560244
146, 3, wb, attraction, a-b-da, 14, 2, 3, 11, 90, 165, 165, 90, 153, 83, 3, 1.03122
146, 3, wb, attraction, a-b-da, 14, 2, 3, 11, 90, 165, 165, 90, 153, 83, 2, 0.388859
146, 3, wb, attraction, a-b-db, 9, 2, 3, 12, 165, 90, 90, 165, 86, 157, 3, 1.55533
146, 3, wb, attraction, a-b-db, 9, 2, 3, 12, 165, 90, 90, 165, 86, 157, 1, 0.451573
146, 3, wb, attraction, a-b-da, 14, 3, 3, 13, 120, 195, 195, 120, 181, 111, 3, 1.05529
146, 3, wb, attraction, a-b-da, 14, 3, 3, 13, 120, 195, 195, 120, 181, 111, 2, 0.299567
146, 3, wb, attraction, a-b-db, 14, 2, 3, 14, 165, 90, 83, 153, 90, 165, 3, 0.997423
146, 3, wb, attraction, a-b-db, 14, 2, 3, 14, 165, 90, 83, 153, 90, 165, 2, 0.356495
146, 3, wb, filler, NA, 999, 999, 3, 15, 84, 100, 85, 79, 177, 59, 2, 3.29229
146, 3, wb, filler, NA, 999, 999, 3, 15, 84, 100, 85, 79, 177, 59, 3, 0.96663
146, 3, wb, attraction, a-b-da, 9, 3, 3, 16, 120, 195, 186, 114, 195, 120, 2, 2.02961
146, 3, wb, attraction, a-b-da, 9, 3, 3, 16, 120, 195, 186, 114, 195, 120, 1, 0.418962
146, 3, wb, filler, NA, 999, 999, 3, 17, 128, 75, 172, 106, 153, 96, 1, 1.03201
146, 3, wb, filler, NA, 999, 999, 3, 17, 128, 75, 172, 106, 153, 96, 2, 0.461743
146, 3, wb, filler, NA, 999, 999, 3, 18, 59, 61, 190, 125, 102, 148, 1, 0.576755
146, 3, wb, filler, NA, 999, 999, 3, 18, 59, 61, 190, 125, 102, 148, 2, 0.392665
146, 3, wb, attraction, a-b-db, 2, 1, 3, 19, 59, 134, 135, 60, 60, 135, 2, 0.766527
146, 3, wb, attraction, a-b-db, 2, 1, 3, 19, 59, 134, 135, 60, 60, 135, 1, 0.374781
146, 3, wb, catch, NA, 999, 999, 3, 20, 151, 164, 113, 82, 102, 153, 2, 0.453309
146, 3, wb, catch, NA, 999, 999, 3, 20, 151, 164, 113, 82, 102, 153, 1, 1.38657
146, 3, wb, attraction, a-b-db, 9, 3, 3, 21, 120, 195, 114, 186, 195, 120, 2, 0.880645
146, 3, wb, attraction, a-b-db, 9, 3, 3, 21, 120, 195, 114, 186, 195, 120, 3, 0.636366
146, 3, wb, filler, NA, 999, 999, 3, 22, 154, 83, 85, 176, 144, 112, 1, 0.696782
146, 3, wb, filler, NA, 999, 999, 3, 22, 154, 83, 85, 176, 144, 112, 2, 0.419767
146, 3, wb, catch, NA, 999, 999, 3, 23, 96, 159, 112, 83, 164, 151, 2, 1.25691
146, 3, wb, catch, NA, 999, 999, 3, 23, 96, 159, 112, 83, 164, 151, 3, 0.373276
146, 3, wb, filler, NA, 999, 999, 3, 24, 165, 140, 64, 118, 71, 170, 2, 1.53178
146, 3, wb, filler, NA, 999, 999, 3, 24, 165, 140, 64, 118, 71, 170, 1, 0.509172
146, 3, wb, filler, NA, 999, 999, 3, 25, 161, 91, 126, 110, 133, 71, 3, 1.95044
146, 3, wb, filler, NA, 999, 999, 3, 25, 161, 91, 126, 110, 133, 71, 2, 0.359108
146, 3, wb, attraction, a-b-db, 2, 2, 3, 26, 89, 163, 165, 90, 90, 165, 3, 0.870321
146, 3, wb, attraction, a-b-db, 2, 2, 3, 26, 89, 163, 165, 90, 90, 165, 2, 0.658558
146, 3, wb, attraction, a-b-da, 2, 1, 3, 27, 60, 135, 134, 59, 135, 60, 1, 0.853635
146, 3, wb, attraction, a-b-da, 2, 1, 3, 27, 60, 135, 134, 59, 135, 60, 2, 0.458668
146, 3, wb, attraction, a-b-da, 14, 1, 3, 28, 60, 135, 125, 56, 135, 60, 1, 0.653819
146, 3, wb, attraction, a-b-da, 14, 1, 3, 28, 60, 135, 125, 56, 135, 60, 2, 0.402907
146, 3, wb, filler, NA, 999, 999, 3, 29, 73, 74, 152, 109, 195, 184, 1, 0.704741
146, 3, wb, filler, NA, 999, 999, 3, 29, 73, 74, 152, 109, 195, 184, 3, 0.595148
146, 3, wb, filler, NA, 999, 999, 3, 30, 158, 180, 151, 107, 59, 157, 3, 0.792925
146, 3, wb, filler, NA, 999, 999, 3, 30, 158, 180, 151, 107, 59, 157, 1, 0.6799
146, 3, wb, attraction, a-b-da, 5, 2, 3, 31, 161, 88, 90, 165, 165, 90, 2, 1.47441
146, 3, wb, attraction, a-b-da, 5, 2, 3, 31, 161, 88, 90, 165, 165, 90, 3, 0.526033
146, 3, wb, attraction, a-b-da, 2, 2, 3, 32, 163, 89, 165, 90, 90, 165, 1, 0.518271
146, 3, wb, attraction, a-b-da, 2, 2, 3, 32, 163, 89, 165, 90, 90, 165, 2, 0.544818
146, 3, wb, attraction, a-b-db, 5, 1, 3, 33, 60, 135, 135, 60, 58, 132, 2, 1.36062
146, 3, wb, attraction, a-b-db, 5, 1, 3, 33, 60, 135, 135, 60, 58, 132, 3, 0.440815
146, 3, wb, attraction, a-b-db, 2, 3, 3, 34, 119, 193, 195, 120, 120, 195, 2, 0.86853
146, 3, wb, attraction, a-b-db, 2, 3, 3, 34, 119, 193, 195, 120, 120, 195, 3, 0.608897
146, 3, wb, attraction, a-b-db, 5, 2, 3, 35, 88, 161, 90, 165, 165, 90, 3, 0.742046
146, 3, wb, attraction, a-b-db, 5, 2, 3, 35, 88, 161, 90, 165, 165, 90, 2, 0.391062
146, 3, wb, attraction, a-b-da, 2, 3, 3, 36, 193, 119, 195, 120, 120, 195, 1, 0.604851
146, 3, wb, attraction, a-b-da, 2, 3, 3, 36, 193, 119, 195, 120, 120, 195, 3, 0.323454
146, 3, wb, attraction, a-b-da, 5, 3, 3, 37, 195, 120, 190, 117, 120, 195, 3, 1.11592
146, 3, wb, attraction, a-b-da, 5, 3, 3, 37, 195, 120, 190, 117, 120, 195, 1, 0.406207
146, 3, wb, attraction, a-b-db, 5, 2, 4, 1, 165, 90, 90, 165, 88, 161, 1, 1.21198
146, 3, wb, attraction, a-b-db, 5, 2, 4, 1, 165, 90, 90, 165, 88, 161, 3, 0.610208
146, 3, wb, catch, NA, 999, 999, 4, 2, 123, 132, 133, 182, 81, 114, 3, 0.743288
146, 3, wb, catch, NA, 999, 999, 4, 2, 123, 132, 133, 182, 81, 114, 2, 0.592471
146, 3, wb, attraction, a-b-da, 2, 2, 4, 3, 165, 90, 90, 165, 163, 89, 1, 0.862169
146, 3, wb, attraction, a-b-da, 2, 2, 4, 3, 165, 90, 90, 165, 163, 89, 2, 0.562605
146, 3, wb, filler, NA, 999, 999, 4, 4, 94, 84, 117, 99, 186, 112, 1, 0.817546
146, 3, wb, filler, NA, 999, 999, 4, 4, 94, 84, 117, 99, 186, 112, 3, 0.639977
146, 3, wb, attraction, a-b-da, 14, 2, 4, 5, 165, 90, 153, 83, 90, 165, 3, 1.58851
146, 3, wb, attraction, a-b-da, 14, 2, 4, 5, 165, 90, 153, 83, 90, 165, 1, 0.579209
146, 3, wb, filler, NA, 999, 999, 4, 6, 112, 157, 108, 125, 168, 155, 2, 0.785722
146, 3, wb, filler, NA, 999, 999, 4, 6, 112, 157, 108, 125, 168, 155, 3, 0.441406
146, 3, wb, attraction, a-b-db, 9, 3, 4, 7, 195, 120, 120, 195, 114, 186, 3, 1.15724
146, 3, wb, attraction, a-b-db, 9, 3, 4, 7, 195, 120, 120, 195, 114, 186, 1, 1.09342
146, 3, wb, filler, NA, 999, 999, 4, 8, 158, 81, 150, 149, 176, 184, 1, 1.08709
146, 3, wb, filler, NA, 999, 999, 4, 8, 158, 81, 150, 149, 176, 184, 3, 0.634706
146, 3, wb, catch, NA, 999, 999, 4, 9, 113, 82, 164, 91, 132, 183, 1, 0.871181
146, 3, wb, catch, NA, 999, 999, 4, 9, 113, 82, 164, 91, 132, 183, 3, 0.563435
146, 3, wb, attraction, a-b-db, 2, 2, 4, 10, 165, 90, 89, 163, 90, 165, 3, 0.650494
146, 3, wb, attraction, a-b-db, 2, 2, 4, 10, 165, 90, 89, 163, 90, 165, 1, 0.68773
146, 3, wb, attraction, a-b-da, 9, 3, 4, 11, 120, 195, 186, 114, 195, 120, 1, 1.01809
146, 3, wb, attraction, a-b-da, 9, 3, 4, 11, 120, 195, 186, 114, 195, 120, 3, 0.512553
146, 3, wb, filler, NA, 999, 999, 4, 12, 165, 63, 112, 61, 107, 190, 1, 0.865449
146, 3, wb, filler, NA, 999, 999, 4, 12, 165, 63, 112, 61, 107, 190, 2, 1.50189
146, 3, wb, attraction, a-b-da, 9, 1, 4, 13, 60, 135, 129, 57, 135, 60, 2, 1.47132
146, 3, wb, attraction, a-b-da, 9, 1, 4, 13, 60, 135, 129, 57, 135, 60, 3, 0.427583
146, 3, wb, filler, NA, 999, 999, 4, 14, 59, 93, 111, 63, 80, 193, 1, 0.623991
146, 3, wb, filler, NA, 999, 999, 4, 14, 59, 93, 111, 63, 80, 193, 3, 1.29382
146, 3, wb, attraction, a-b-da, 5, 2, 4, 15, 161, 88, 165, 90, 90, 165, 3, 0.935266
146, 3, wb, attraction, a-b-da, 5, 2, 4, 15, 161, 88, 165, 90, 90, 165, 1, 0.529096
146, 3, wb, attraction, a-b-da, 14, 3, 4, 16, 195, 120, 181, 111, 120, 195, 1, 0.953518
146, 3, wb, attraction, a-b-da, 14, 3, 4, 16, 195, 120, 181, 111, 120, 195, 3, 0.426486
146, 3, wb, attraction, a-b-db, 5, 3, 4, 17, 195, 120, 120, 195, 117, 190, 3, 0.846922
146, 3, wb, attraction, a-b-db, 5, 3, 4, 17, 195, 120, 120, 195, 117, 190, 1, 0.435908
146, 3, wb, attraction, a-b-da, 14, 1, 4, 18, 135, 60, 60, 135, 125, 56, 1, 0.776391
146, 3, wb, attraction, a-b-da, 14, 1, 4, 18, 135, 60, 60, 135, 125, 56, 2, 0.41625
146, 3, wb, attraction, a-b-db, 2, 3, 4, 19, 120, 195, 119, 193, 195, 120, 1, 0.99735
146, 3, wb, attraction, a-b-db, 2, 3, 4, 19, 120, 195, 119, 193, 195, 120, 2, 0.412318
146, 3, wb, attraction, a-b-da, 9, 2, 4, 20, 165, 90, 157, 86, 90, 165, 3, 0.745509
146, 3, wb, attraction, a-b-da, 9, 2, 4, 20, 165, 90, 157, 86, 90, 165, 1, 0.658479
146, 3, wb, attraction, a-b-da, 2, 3, 4, 21, 120, 195, 195, 120, 193, 119, 1, 1.48561
146, 3, wb, attraction, a-b-da, 2, 3, 4, 21, 120, 195, 195, 120, 193, 119, 2, 0.393144
146, 3, wb, attraction, a-b-da, 2, 1, 4, 22, 60, 135, 134, 59, 135, 60, 1, 1.68697
146, 3, wb, attraction, a-b-da, 2, 1, 4, 22, 60, 135, 134, 59, 135, 60, 2, 0.578417
146, 3, wb, attraction, a-b-db, 5, 1, 4, 23, 60, 135, 135, 60, 58, 132, 1, 0.664912
146, 3, wb, attraction, a-b-db, 5, 1, 4, 23, 60, 135, 135, 60, 58, 132, 2, 0.613366
146, 3, wb, filler, NA, 999, 999, 4, 24, 168, 88, 122, 155, 170, 187, 1, 1.90632
146, 3, wb, filler, NA, 999, 999, 4, 24, 168, 88, 122, 155, 170, 187, 3, 0.396435
146, 3, wb, filler, NA, 999, 999, 4, 25, 100, 101, 154, 86, 188, 69, 3, 1.15413
146, 3, wb, filler, NA, 999, 999, 4, 25, 100, 101, 154, 86, 188, 69, 2, 0.875162
146, 3, wb, attraction, a-b-da, 5, 3, 4, 26, 190, 117, 195, 120, 120, 195, 1, 0.717487
146, 3, wb, attraction, a-b-da, 5, 3, 4, 26, 190, 117, 195, 120, 120, 195, 3, 0.463857
146, 3, wb, attraction, a-b-db, 14, 2, 4, 27, 90, 165, 165, 90, 83, 153, 1, 0.475071
146, 3, wb, attraction, a-b-db, 14, 2, 4, 27, 90, 165, 165, 90, 83, 153, 2, 0.558836
146, 3, wb, attraction, a-b-db, 2, 1, 4, 28, 135, 60, 60, 135, 59, 134, 1, 0.81394
146, 3, wb, attraction, a-b-db, 2, 1, 4, 28, 135, 60, 60, 135, 59, 134, 2, 0.540323
146, 3, wb, filler, NA, 999, 999, 4, 29, 177, 185, 168, 192, 130, 133, 3, 1.1962
146, 3, wb, filler, NA, 999, 999, 4, 29, 177, 185, 168, 192, 130, 133, 2, 0.403101
146, 3, wb, filler, NA, 999, 999, 4, 30, 187, 173, 142, 165, 169, 127, 3, 3.28088
146, 3, wb, filler, NA, 999, 999, 4, 30, 187, 173, 142, 165, 169, 127, 1, 0.499835
146, 3, wb, catch, NA, 999, 999, 4, 31, 166, 149, 60, 135, 158, 97, 3, 1.62966
146, 3, wb, catch, NA, 999, 999, 4, 31, 166, 149, 60, 135, 158, 97, 2, 0.434996
146, 3, wb, attraction, a-b-db, 9, 1, 4, 32, 57, 129, 60, 135, 135, 60, 1, 0.807615
146, 3, wb, attraction, a-b-db, 9, 1, 4, 32, 57, 129, 60, 135, 135, 60, 2, 0.413846
146, 3, wb, attraction, a-b-db, 14, 3, 4, 33, 120, 195, 195, 120, 111, 181, 3, 0.803053
146, 3, wb, attraction, a-b-db, 14, 3, 4, 33, 120, 195, 195, 120, 111, 181, 2, 0.498177
146, 3, wb, attraction, a-b-db, 9, 2, 4, 34, 86, 157, 165, 90, 90, 165, 3, 0.595892
146, 3, wb, attraction, a-b-db, 9, 2, 4, 34, 86, 157, 165, 90, 90, 165, 2, 0.427099
146, 3, wb, attraction, a-b-da, 5, 1, 4, 35, 132, 58, 135, 60, 60, 135, 1, 0.895535
146, 3, wb, attraction, a-b-da, 5, 1, 4, 35, 132, 58, 135, 60, 60, 135, 3, 0.730668
146, 3, wb, attraction, a-b-db, 14, 1, 4, 36, 60, 135, 56, 125, 135, 60, 2, 0.578879
146, 3, wb, attraction, a-b-db, 14, 1, 4, 36, 60, 135, 56, 125, 135, 60, 3, 1.33874
146, 3, wb, filler, NA, 999, 999, 4, 37, 107, 185, 177, 179, 69, 89, 3, 1.12292
146, 3, wb, filler, NA, 999, 999, 4, 37, 107, 185, 177, 179, 69, 89, 2, 0.412471
146, 3, wb, catch, NA, 999, 999, 5, 1, 144, 171, 81, 114, 142, 113, 2, 1.28829
146, 3, wb, catch, NA, 999, 999, 5, 1, 144, 171, 81, 114, 142, 113, 1, 0.795127
146, 3, wb, filler, NA, 999, 999, 5, 2, 179, 79, 112, 88, 109, 183, 2, 2.40086
146, 3, wb, filler, NA, 999, 999, 5, 2, 179, 79, 112, 88, 109, 183, 3, 0.455369
146, 3, wb, attraction, a-b-db, 5, 1, 5, 3, 135, 60, 60, 135, 58, 132, 3, 4.89117
146, 3, wb, attraction, a-b-db, 5, 1, 5, 3, 135, 60, 60, 135, 58, 132, 2, 0.461025
146, 3, wb, attraction, a-b-da, 5, 2, 5, 4, 161, 88, 90, 165, 165, 90, 3, 1.86411
146, 3, wb, attraction, a-b-da, 5, 2, 5, 4, 161, 88, 90, 165, 165, 90, 2, 0.468136
146, 3, wb, attraction, a-b-da, 2, 1, 5, 5, 60, 135, 134, 59, 135, 60, 1, 0.78323
146, 3, wb, attraction, a-b-da, 2, 1, 5, 5, 60, 135, 134, 59, 135, 60, 2, 0.447026
146, 3, wb, attraction, a-b-db, 2, 3, 5, 6, 195, 120, 120, 195, 119, 193, 3, 0.874812
146, 3, wb, attraction, a-b-db, 2, 3, 5, 6, 195, 120, 120, 195, 119, 193, 2, 0.318676
146, 3, wb, attraction, a-b-db, 14, 3, 5, 7, 111, 181, 120, 195, 195, 120, 1, 0.983714
146, 3, wb, attraction, a-b-db, 14, 3, 5, 7, 111, 181, 120, 195, 195, 120, 2, 0.431376
146, 3, wb, filler, NA, 999, 999, 5, 8, 168, 65, 193, 86, 119, 163, 1, 0.643855
146, 3, wb, filler, NA, 999, 999, 5, 8, 168, 65, 193, 86, 119, 163, 3, 0.69697
146, 3, wb, filler, NA, 999, 999, 5, 9, 86, 188, 76, 59, 78, 177, 2, 1.05865
146, 3, wb, filler, NA, 999, 999, 5, 9, 86, 188, 76, 59, 78, 177, 1, 0.446939
146, 3, wb, attraction, a-b-da, 2, 2, 5, 10, 165, 90, 90, 165, 163, 89, 2, 3.05079
146, 3, wb, attraction, a-b-da, 2, 2, 5, 10, 165, 90, 90, 165, 163, 89, 1, 0.447104
146, 3, wb, attraction, a-b-db, 14, 1, 5, 11, 56, 125, 60, 135, 135, 60, 1, 3.73894
146, 3, wb, attraction, a-b-db, 14, 1, 5, 11, 56, 125, 60, 135, 135, 60, 3, 0.539683
146, 3, wb, attraction, a-b-da, 2, 3, 5, 12, 195, 120, 120, 195, 193, 119, 2, 0.852317
146, 3, wb, attraction, a-b-da, 2, 3, 5, 12, 195, 120, 120, 195, 193, 119, 1, 0.465391
146, 3, wb, attraction, a-b-db, 5, 3, 5, 13, 117, 190, 120, 195, 195, 120, 2, 0.628385
146, 3, wb, attraction, a-b-db, 5, 3, 5, 13, 117, 190, 120, 195, 195, 120, 3, 0.298103
146, 3, wb, attraction, a-b-da, 14, 3, 5, 14, 195, 120, 120, 195, 181, 111, 2, 0.660069
146, 3, wb, attraction, a-b-da, 14, 3, 5, 14, 195, 120, 120, 195, 181, 111, 3, 0.328432
146, 3, wb, filler, NA, 999, 999, 5, 15, 75, 136, 103, 69, 149, 110, 2, 0.616974
146, 3, wb, filler, NA, 999, 999, 5, 15, 75, 136, 103, 69, 149, 110, 1, 0.783436
146, 3, wb, catch, NA, 999, 999, 5, 16, 127, 128, 111, 84, 130, 185, 2, 1.23787
146, 3, wb, catch, NA, 999, 999, 5, 16, 127, 128, 111, 84, 130, 185, 3, 0.331417
146, 3, wb, filler, NA, 999, 999, 5, 17, 56, 142, 157, 176, 192, 180, 1, 0.707881
146, 3, wb, filler, NA, 999, 999, 5, 17, 56, 142, 157, 176, 192, 180, 2, 0.45426
146, 3, wb, attraction, a-b-db, 2, 2, 5, 18, 90, 165, 165, 90, 89, 163, 2, 1.03404
146, 3, wb, attraction, a-b-db, 2, 2, 5, 18, 90, 165, 165, 90, 89, 163, 3, 0.551743
146, 3, wb, attraction, a-b-da, 14, 1, 5, 19, 125, 56, 135, 60, 60, 135, 1, 0.68756
146, 3, wb, attraction, a-b-da, 14, 1, 5, 19, 125, 56, 135, 60, 60, 135, 3, 0.491185
146, 3, wb, filler, NA, 999, 999, 5, 20, 142, 68, 185, 102, 83, 185, 1, 0.580948
146, 3, wb, filler, NA, 999, 999, 5, 20, 142, 68, 185, 102, 83, 185, 3, 0.476778
146, 3, wb, attraction, a-b-db, 14, 2, 5, 21, 165, 90, 90, 165, 83, 153, 2, 1.64734
146, 3, wb, attraction, a-b-db, 14, 2, 5, 21, 165, 90, 90, 165, 83, 153, 3, 0.372152
146, 3, wb, attraction, a-b-db, 5, 2, 5, 22, 165, 90, 90, 165, 88, 161, 3, 2.13137
146, 3, wb, attraction, a-b-db, 5, 2, 5, 22, 165, 90, 90, 165, 88, 161, 2, 0.38855
146, 3, wb, filler, NA, 999, 999, 5, 23, 89, 169, 121, 178, 130, 96, 3, 1.09104
146, 3, wb, filler, NA, 999, 999, 5, 23, 89, 169, 121, 178, 130, 96, 2, 0.301964
146, 3, wb, filler, NA, 999, 999, 5, 24, 91, 70, 172, 185, 82, 82, 3, 1.18388
146, 3, wb, filler, NA, 999, 999, 5, 24, 91, 70, 172, 185, 82, 82, 2, 0.327479
146, 3, wb, attraction, a-b-db, 9, 1, 5, 25, 60, 135, 57, 129, 135, 60, 2, 0.768117
146, 3, wb, attraction, a-b-db, 9, 1, 5, 25, 60, 135, 57, 129, 135, 60, 3, 0.320381
146, 3, wb, attraction, a-b-da, 5, 1, 5, 26, 132, 58, 135, 60, 60, 135, 2, 0.72155
146, 3, wb, attraction, a-b-da, 5, 1, 5, 26, 132, 58, 135, 60, 60, 135, 3, 0.715331
146, 3, wb, filler, NA, 999, 999, 5, 27, 119, 192, 183, 190, 69, 128, 3, 1.21231
146, 3, wb, filler, NA, 999, 999, 5, 27, 119, 192, 183, 190, 69, 128, 2, 0.442549
146, 3, wb, attraction, a-b-da, 5, 3, 5, 28, 190, 117, 195, 120, 120, 195, 2, 2.56636
146, 3, wb, attraction, a-b-da, 5, 3, 5, 28, 190, 117, 195, 120, 120, 195, 3, 3.49431
146, 3, wb, attraction, a-b-da, 9, 1, 5, 29, 60, 135, 129, 57, 135, 60, 2, 1.52713
146, 3, wb, attraction, a-b-da, 9, 1, 5, 29, 60, 135, 129, 57, 135, 60, 3, 1.9767
146, 3, wb, attraction, a-b-db, 2, 1, 5, 30, 135, 60, 59, 134, 60, 135, 2, 1.09457
146, 3, wb, attraction, a-b-db, 2, 1, 5, 30, 135, 60, 59, 134, 60, 135, 3, 0.489633
146, 3, wb, attraction, a-b-da, 9, 3, 5, 31, 195, 120, 186, 114, 120, 195, 2, 1.556
146, 3, wb, attraction, a-b-da, 9, 3, 5, 31, 195, 120, 186, 114, 120, 195, 3, 0.340157
146, 3, wb, catch, NA, 999, 999, 5, 32, 142, 173, 108, 147, 107, 88, 3, 0.660056
146, 3, wb, catch, NA, 999, 999, 5, 32, 142, 173, 108, 147, 107, 88, 1, 0.648327
146, 3, wb, attraction, a-b-da, 9, 2, 5, 33, 165, 90, 157, 86, 90, 165, 1, 0.988267
146, 3, wb, attraction, a-b-da, 9, 2, 5, 33, 165, 90, 157, 86, 90, 165, 3, 0.363106
146, 3, wb, attraction, a-b-db, 9, 2, 5, 34, 86, 157, 90, 165, 165, 90, 1, 1.41831
146, 3, wb, attraction, a-b-db, 9, 2, 5, 34, 86, 157, 90, 165, 165, 90, 3, 0.872486
146, 3, wb, attraction, a-b-da, 14, 2, 5, 35, 90, 165, 153, 83, 165, 90, 2, 0.843475
146, 3, wb, attraction, a-b-da, 14, 2, 5, 35, 90, 165, 153, 83, 165, 90, 3, 0.344631
146, 3, wb, filler, NA, 999, 999, 5, 36, 176, 163, 172, 165, 82, 162, 3, 0.760321
146, 3, wb, filler, NA, 999, 999, 5, 36, 176, 163, 172, 165, 82, 162, 2, 0.376739
146, 3, wb, attraction, a-b-db, 9, 3, 5, 37, 195, 120, 120, 195, 114, 186, 3, 0.927243
146, 3, wb, attraction, a-b-db, 9, 3, 5, 37, 195, 120, 120, 195, 114, 186, 2, 0.576867
146, 3, wb, attraction, a-b-db, 2, 3, 6, 1, 195, 120, 119, 193, 120, 195, 2, 3.0874
146, 3, wb, attraction, a-b-db, 2, 3, 6, 1, 195, 120, 119, 193, 120, 195, 1, 0.578436
146, 3, wb, filler, NA, 999, 999, 6, 2, 139, 77, 88, 112, 64, 127, 3, 1.19274
146, 3, wb, filler, NA, 999, 999, 6, 2, 139, 77, 88, 112, 64, 127, 2, 0.863787
146, 3, wb, catch, NA, 999, 999, 6, 3, 152, 103, 137, 178, 129, 66, 2, 1.01884
146, 3, wb, catch, NA, 999, 999, 6, 3, 152, 103, 137, 178, 129, 66, 1, 4.48105
146, 3, wb, attraction, a-b-db, 2, 2, 6, 4, 90, 165, 89, 163, 165, 90, 1, 1.42626
146, 3, wb, attraction, a-b-db, 2, 2, 6, 4, 90, 165, 89, 163, 165, 90, 3, 0.799875
146, 3, wb, attraction, a-b-da, 14, 3, 6, 5, 195, 120, 120, 195, 181, 111, 3, 1.61352
146, 3, wb, attraction, a-b-da, 14, 3, 6, 5, 195, 120, 120, 195, 181, 111, 2, 0.331609
146, 3, wb, attraction, a-b-db, 5, 2, 6, 6, 165, 90, 88, 161, 90, 165, 2, 2.12423
146, 3, wb, attraction, a-b-db, 5, 2, 6, 6, 165, 90, 88, 161, 90, 165, 1, 0.485536
146, 3, wb, attraction, a-b-da, 5, 2, 6, 7, 165, 90, 161, 88, 90, 165, 1, 2.34392
146, 3, wb, attraction, a-b-da, 5, 2, 6, 7, 165, 90, 161, 88, 90, 165, 2, 1.56066
146, 3, wb, attraction, a-b-da, 2, 3, 6, 8, 120, 195, 193, 119, 195, 120, 3, 2.15939
146, 3, wb, attraction, a-b-da, 2, 3, 6, 8, 120, 195, 193, 119, 195, 120, 2, 0.471392
146, 3, wb, attraction, a-b-db, 14, 1, 6, 9, 56, 125, 135, 60, 60, 135, 1, 0.962369
146, 3, wb, attraction, a-b-db, 14, 1, 6, 9, 56, 125, 135, 60, 60, 135, 2, 0.410602
146, 3, wb, attraction, a-b-db, 9, 1, 6, 10, 135, 60, 57, 129, 60, 135, 3, 1.09587
146, 3, wb, attraction, a-b-db, 9, 1, 6, 10, 135, 60, 57, 129, 60, 135, 2, 0.33089
146, 3, wb, attraction, a-b-db, 5, 1, 6, 11, 60, 135, 58, 132, 135, 60, 1, 1.13129
146, 3, wb, attraction, a-b-db, 5, 1, 6, 11, 60, 135, 58, 132, 135, 60, 3, 1.02886
146, 3, wb, attraction, a-b-da, 14, 1, 6, 12, 135, 60, 60, 135, 125, 56, 3, 2.50528
146, 3, wb, attraction, a-b-da, 14, 1, 6, 12, 135, 60, 60, 135, 125, 56, 1, 1.15512
146, 3, wb, attraction, a-b-db, 5, 3, 6, 13, 195, 120, 117, 190, 120, 195, 3, 2.45064
146, 3, wb, attraction, a-b-db, 5, 3, 6, 13, 195, 120, 117, 190, 120, 195, 2, 0.671408
146, 3, wb, filler, NA, 999, 999, 6, 14, 97, 195, 82, 125, 139, 121, 2, 1.09018
146, 3, wb, filler, NA, 999, 999, 6, 14, 97, 195, 82, 125, 139, 121, 1, 0.366838
146, 3, wb, attraction, a-b-db, 14, 3, 6, 15, 195, 120, 120, 195, 111, 181, 3, 1.01243
146, 3, wb, attraction, a-b-db, 14, 3, 6, 15, 195, 120, 120, 195, 111, 181, 2, 0.522689
146, 3, wb, attraction, a-b-da, 9, 1, 6, 16, 60, 135, 129, 57, 135, 60, 1, 1.90789
146, 3, wb, attraction, a-b-da, 9, 1, 6, 16, 60, 135, 129, 57, 135, 60, 3, 0.565922
146, 3, wb, catch, NA, 999, 999, 6, 17, 157, 158, 109, 86, 98, 157, 2, 0.836982
146, 3, wb, catch, NA, 999, 999, 6, 17, 157, 158, 109, 86, 98, 157, 1, 0.666697
146, 3, wb, filler, NA, 999, 999, 6, 18, 107, 133, 103, 116, 165, 132, 2, 1.22178
146, 3, wb, filler, NA, 999, 999, 6, 18, 107, 133, 103, 116, 165, 132, 3, 0.459391
146, 3, wb, attraction, a-b-db, 9, 2, 6, 19, 86, 157, 90, 165, 165, 90, 3, 1.1345
146, 3, wb, attraction, a-b-db, 9, 2, 6, 19, 86, 157, 90, 165, 165, 90, 2, 0.448067
146, 3, wb, filler, NA, 999, 999, 6, 20, 76, 87, 98, 165, 155, 106, 1, 0.779897
146, 3, wb, filler, NA, 999, 999, 6, 20, 76, 87, 98, 165, 155, 106, 2, 0.515662
146, 3, wb, attraction, a-b-da, 2, 2, 6, 21, 165, 90, 163, 89, 90, 165, 3, 1.3808
146, 3, wb, attraction, a-b-da, 2, 2, 6, 21, 165, 90, 163, 89, 90, 165, 2, 0.668267
146, 3, wb, attraction, a-b-da, 9, 3, 6, 22, 195, 120, 120, 195, 186, 114, 3, 0.823392
146, 3, wb, attraction, a-b-da, 9, 3, 6, 22, 195, 120, 120, 195, 186, 114, 2, 0.349078
146, 3, wb, filler, NA, 999, 999, 6, 23, 84, 79, 195, 64, 169, 125, 1, 0.732926
146, 3, wb, filler, NA, 999, 999, 6, 23, 84, 79, 195, 64, 169, 125, 3, 0.494562
146, 3, wb, filler, NA, 999, 999, 6, 24, 124, 118, 100, 153, 91, 183, 2, 0.768383
146, 3, wb, filler, NA, 999, 999, 6, 24, 124, 118, 100, 153, 91, 183, 1, 0.920749
146, 3, wb, attraction, a-b-da, 5, 3, 6, 25, 190, 117, 120, 195, 195, 120, 1, 2.92988
146, 3, wb, attraction, a-b-da, 5, 3, 6, 25, 190, 117, 120, 195, 195, 120, 2, 0.523011
146, 3, wb, attraction, a-b-da, 2, 1, 6, 26, 135, 60, 60, 135, 134, 59, 2, 1.37998
146, 3, wb, attraction, a-b-da, 2, 1, 6, 26, 135, 60, 60, 135, 134, 59, 1, 0.69165
146, 3, wb, attraction, a-b-db, 14, 2, 6, 27, 83, 153, 90, 165, 165, 90, 1, 1.40529
146, 3, wb, attraction, a-b-db, 14, 2, 6, 27, 83, 153, 90, 165, 165, 90, 3, 0.571481
146, 3, wb, attraction, a-b-db, 9, 3, 6, 28, 195, 120, 120, 195, 114, 186, 3, 4.41058
146, 3, wb, attraction, a-b-db, 9, 3, 6, 28, 195, 120, 120, 195, 114, 186, 1, 0.607827
146, 3, wb, filler, NA, 999, 999, 6, 29, 127, 174, 72, 194, 136, 175, 2, 0.860903
146, 3, wb, filler, NA, 999, 999, 6, 29, 127, 174, 72, 194, 136, 175, 3, 0.56933
146, 3, wb, filler, NA, 999, 999, 6, 30, 185, 75, 187, 114, 139, 91, 3, 0.648288
146, 3, wb, filler, NA, 999, 999, 6, 30, 185, 75, 187, 114, 139, 91, 2, 0.469444
146, 3, wb, catch, NA, 999, 999, 6, 31, 161, 94, 148, 167, 83, 112, 3, 0.928571
146, 3, wb, catch, NA, 999, 999, 6, 31, 161, 94, 148, 167, 83, 112, 2, 0.426272
146, 3, wb, filler, NA, 999, 999, 6, 32, 185, 75, 178, 192, 195, 101, 1, 1.0709
146, 3, wb, filler, NA, 999, 999, 6, 32, 185, 75, 178, 192, 195, 101, 2, 0.898468
146, 3, wb, attraction, a-b-da, 9, 2, 6, 33, 157, 86, 165, 90, 90, 165, 1, 1.81209
146, 3, wb, attraction, a-b-da, 9, 2, 6, 33, 157, 86, 165, 90, 90, 165, 3, 0.425008
146, 3, wb, filler, NA, 999, 999, 6, 34, 134, 117, 118, 118, 94, 75, 3, 1.1188
146, 3, wb, filler, NA, 999, 999, 6, 34, 134, 117, 118, 118, 94, 75, 1, 0.672851
146, 3, wb, attraction, a-b-db, 2, 1, 6, 35, 59, 134, 60, 135, 135, 60, 1, 1.13995
146, 3, wb, attraction, a-b-db, 2, 1, 6, 35, 59, 134, 60, 135, 135, 60, 2, 1.17293
146, 3, wb, attraction, a-b-da, 5, 1, 6, 36, 132, 58, 60, 135, 135, 60, 1, 1.48388
146, 3, wb, attraction, a-b-da, 5, 1, 6, 36, 132, 58, 60, 135, 135, 60, 2, 0.47126
146, 3, wb, attraction, a-b-da, 14, 2, 6, 37, 90, 165, 165, 90, 153, 83, 3, 0.906424
146, 3, wb, attraction, a-b-da, 14, 2, 6, 37, 90, 165, 165, 90, 153, 83, 2, 0.340891
146, 3, wb, attraction, a-b-db, 14, 1, 7, 1, 60, 135, 56, 125, 135, 60, 2, 2.02868
146, 3, wb, attraction, a-b-db, 14, 1, 7, 1, 60, 135, 56, 125, 135, 60, 3, 0.857924
146, 3, wb, attraction, a-b-da, 2, 3, 7, 2, 120, 195, 193, 119, 195, 120, 2, 1.90103
146, 3, wb, attraction, a-b-da, 2, 3, 7, 2, 120, 195, 193, 119, 195, 120, 1, 0.583688
146, 3, wb, attraction, a-b-db, 9, 2, 7, 3, 86, 157, 90, 165, 165, 90, 3, 2.05415
146, 3, wb, attraction, a-b-db, 9, 2, 7, 3, 86, 157, 90, 165, 165, 90, 2, 0.538888
146, 3, wb, attraction, a-b-da, 5, 1, 7, 4, 132, 58, 135, 60, 60, 135, 2, 1.47522
146, 3, wb, attraction, a-b-da, 5, 1, 7, 4, 132, 58, 135, 60, 60, 135, 3, 0.518782
146, 3, wb, attraction, a-b-db, 14, 2, 7, 5, 83, 153, 165, 90, 90, 165, 2, 1.26386
146, 3, wb, attraction, a-b-db, 14, 2, 7, 5, 83, 153, 165, 90, 90, 165, 3, 0.692108
146, 3, wb, attraction, a-b-db, 5, 1, 7, 6, 58, 132, 135, 60, 60, 135, 2, 0.853849
146, 3, wb, attraction, a-b-db, 5, 1, 7, 6, 58, 132, 135, 60, 60, 135, 3, 0.530897
146, 3, wb, attraction, a-b-db, 2, 1, 7, 7, 135, 60, 59, 134, 60, 135, 2, 0.907281
146, 3, wb, attraction, a-b-db, 2, 1, 7, 7, 135, 60, 59, 134, 60, 135, 3, 0.909705
146, 3, wb, attraction, a-b-db, 5, 3, 7, 8, 120, 195, 117, 190, 195, 120, 3, 0.902743
146, 3, wb, attraction, a-b-db, 5, 3, 7, 8, 120, 195, 117, 190, 195, 120, 2, 0.345618
146, 3, wb, filler, NA, 999, 999, 7, 9, 164, 144, 89, 122, 177, 194, 2, 0.697504
146, 3, wb, filler, NA, 999, 999, 7, 9, 164, 144, 89, 122, 177, 194, 3, 0.364683
146, 3, wb, attraction, a-b-db, 2, 3, 7, 10, 195, 120, 120, 195, 119, 193, 1, 2.9638
146, 3, wb, attraction, a-b-db, 2, 3, 7, 10, 195, 120, 120, 195, 119, 193, 2, 0.843503
146, 3, wb, attraction, a-b-da, 9, 3, 7, 11, 195, 120, 120, 195, 186, 114, 3, 0.927092
146, 3, wb, attraction, a-b-da, 9, 3, 7, 11, 195, 120, 120, 195, 186, 114, 2, 0.392892
146, 3, wb, attraction, a-b-da, 2, 2, 7, 12, 90, 165, 163, 89, 165, 90, 1, 1.77463
146, 3, wb, attraction, a-b-da, 2, 2, 7, 12, 90, 165, 163, 89, 165, 90, 2, 0.478062
146, 3, wb, catch, NA, 999, 999, 7, 13, 102, 93, 133, 122, 150, 165, 1, 1.03246
146, 3, wb, catch, NA, 999, 999, 7, 13, 102, 93, 133, 122, 150, 165, 3, 0.438332
146, 3, wb, filler, NA, 999, 999, 7, 14, 177, 136, 109, 169, 144, 123, 3, 0.874628
146, 3, wb, filler, NA, 999, 999, 7, 14, 177, 136, 109, 169, 144, 123, 1, 0.438264
146, 3, wb, attraction, a-b-da, 5, 3, 7, 15, 190, 117, 120, 195, 195, 120, 1, 1.62674
146, 3, wb, attraction, a-b-da, 5, 3, 7, 15, 190, 117, 120, 195, 195, 120, 2, 0.568296
146, 3, wb, attraction, a-b-da, 14, 3, 7, 16, 181, 111, 120, 195, 195, 120, 1, 0.687392
146, 3, wb, attraction, a-b-da, 14, 3, 7, 16, 181, 111, 120, 195, 195, 120, 2, 0.419184
146, 3, wb, filler, NA, 999, 999, 7, 17, 72, 145, 87, 77, 155, 154, 2, 0.712232
146, 3, wb, filler, NA, 999, 999, 7, 17, 72, 145, 87, 77, 155, 154, 3, 0.426625
146, 3, wb, filler, NA, 999, 999, 7, 18, 159, 75, 180, 177, 97, 68, 3, 0.671145
146, 3, wb, filler, NA, 999, 999, 7, 18, 159, 75, 180, 177, 97, 68, 2, 0.34772
146, 3, wb, attraction, a-b-da, 9, 1, 7, 19, 129, 57, 135, 60, 60, 135, 2, 0.755456
146, 3, wb, attraction, a-b-da, 9, 1, 7, 19, 129, 57, 135, 60, 60, 135, 3, 0.419937
146, 3, wb, filler, NA, 999, 999, 7, 20, 74, 188, 70, 193, 102, 94, 3, 1.21706
146, 3, wb, filler, NA, 999, 999, 7, 20, 74, 188, 70, 193, 102, 94, 2, 0.423261
146, 3, wb, filler, NA, 999, 999, 7, 21, 145, 135, 178, 111, 60, 177, 3, 2.85182
146, 3, wb, filler, NA, 999, 999, 7, 21, 145, 135, 178, 111, 60, 177, 1, 0.440219
146, 3, wb, catch, NA, 999, 999, 7, 22, 96, 99, 118, 137, 146, 169, 1, 1.13192
146, 3, wb, catch, NA, 999, 999, 7, 22, 96, 99, 118, 137, 146, 169, 3, 0.99752
146, 3, wb, catch, NA, 999, 999, 7, 23, 188, 127, 133, 62, 158, 97, 2, 0.563294
146, 3, wb, catch, NA, 999, 999, 7, 23, 188, 127, 133, 62, 158, 97, 1, 0.483657
146, 3, wb, attraction, a-b-da, 14, 1, 7, 24, 60, 135, 135, 60, 125, 56, 3, 0.662125
146, 3, wb, attraction, a-b-da, 14, 1, 7, 24, 60, 135, 135, 60, 125, 56, 2, 0.530579
146, 3, wb, filler, NA, 999, 999, 7, 25, 82, 77, 121, 120, 176, 125, 1, 0.738923
146, 3, wb, filler, NA, 999, 999, 7, 25, 82, 77, 121, 120, 176, 125, 3, 0.572042
146, 3, wb, attraction, a-b-da, 5, 2, 7, 26, 161, 88, 90, 165, 165, 90, 3, 1.58717
146, 3, wb, attraction, a-b-da, 5, 2, 7, 26, 161, 88, 90, 165, 165, 90, 2, 0.67411
146, 3, wb, attraction, a-b-db, 5, 2, 7, 27, 90, 165, 88, 161, 165, 90, 3, 0.724364
146, 3, wb, attraction, a-b-db, 5, 2, 7, 27, 90, 165, 88, 161, 165, 90, 2, 0.510091
146, 3, wb, filler, NA, 999, 999, 7, 28, 67, 125, 190, 177, 147, 128, 1, 0.823177
146, 3, wb, filler, NA, 999, 999, 7, 28, 67, 125, 190, 177, 147, 128, 2, 0.340914
146, 3, wb, filler, NA, 999, 999, 7, 29, 149, 185, 157, 157, 194, 191, 2, 1.79695
146, 3, wb, filler, NA, 999, 999, 7, 29, 149, 185, 157, 157, 194, 191, 3, 0.523503
146, 3, wb, attraction, a-b-db, 2, 2, 7, 30, 165, 90, 90, 165, 89, 163, 1, 0.859973
146, 3, wb, attraction, a-b-db, 2, 2, 7, 30, 165, 90, 90, 165, 89, 163, 2, 0.400449
146, 3, wb, filler, NA, 999, 999, 7, 31, 73, 108, 81, 139, 155, 79, 1, 0.598149
146, 3, wb, filler, NA, 999, 999, 7, 31, 73, 108, 81, 139, 155, 79, 2, 0.381437
146, 3, wb, attraction, a-b-db, 9, 1, 7, 32, 57, 129, 60, 135, 135, 60, 3, 0.667857
146, 3, wb, attraction, a-b-db, 9, 1, 7, 32, 57, 129, 60, 135, 135, 60, 2, 0.7362
146, 3, wb, attraction, a-b-da, 9, 2, 7, 33, 165, 90, 90, 165, 157, 86, 3, 0.888588
146, 3, wb, attraction, a-b-da, 9, 2, 7, 33, 165, 90, 90, 165, 157, 86, 2, 0.379615
146, 3, wb, attraction, a-b-db, 14, 3, 7, 34, 120, 195, 111, 181, 195, 120, 3, 0.73005
146, 3, wb, attraction, a-b-db, 14, 3, 7, 34, 120, 195, 111, 181, 195, 120, 1, 1.43584
146, 3, wb, attraction, a-b-da, 2, 1, 7, 35, 134, 59, 135, 60, 60, 135, 1, 1.12807
146, 3, wb, attraction, a-b-da, 2, 1, 7, 35, 134, 59, 135, 60, 60, 135, 3, 0.489712
146, 3, wb, attraction, a-b-db, 9, 3, 7, 36, 195, 120, 120, 195, 114, 186, 3, 1.00421
146, 3, wb, attraction, a-b-db, 9, 3, 7, 36, 195, 120, 120, 195, 114, 186, 2, 0.386496
146, 3, wb, attraction, a-b-da, 14, 2, 7, 37, 165, 90, 153, 83, 90, 165, 2, 1.58488
146, 3, wb, attraction, a-b-da, 14, 2, 7, 37, 165, 90, 153, 83, 90, 165, 3, 0.544442
146, 3, wb, attraction, a-b-da, 2, 2, 8, 1, 163, 89, 165, 90, 90, 165, 2, 0.7442
146, 3, wb, attraction, a-b-da, 2, 2, 8, 1, 163, 89, 165, 90, 90, 165, 3, 0.2892
146, 3, wb, filler, NA, 999, 999, 8, 2, 59, 141, 98, 103, 171, 172, 1, 1.48364
146, 3, wb, filler, NA, 999, 999, 8, 2, 59, 141, 98, 103, 171, 172, 3, 0.335187
146, 3, wb, attraction, a-b-da, 5, 2, 8, 3, 161, 88, 90, 165, 165, 90, 3, 0.80766
146, 3, wb, attraction, a-b-da, 5, 2, 8, 3, 161, 88, 90, 165, 165, 90, 2, 0.278116
146, 3, wb, attraction, a-b-da, 5, 1, 8, 4, 132, 58, 60, 135, 135, 60, 3, 0.99272
146, 3, wb, attraction, a-b-da, 5, 1, 8, 4, 132, 58, 60, 135, 135, 60, 2, 1.16757
146, 3, wb, attraction, a-b-db, 2, 3, 8, 5, 119, 193, 195, 120, 120, 195, 3, 0.870667
146, 3, wb, attraction, a-b-db, 2, 3, 8, 5, 119, 193, 195, 120, 120, 195, 2, 0.754976
146, 3, wb, attraction, a-b-db, 2, 2, 8, 6, 165, 90, 90, 165, 89, 163, 3, 0.626569
146, 3, wb, attraction, a-b-db, 2, 2, 8, 6, 165, 90, 90, 165, 89, 163, 2, 0.504439
146, 3, wb, filler, NA, 999, 999, 8, 7, 181, 68, 61, 187, 74, 108, 2, 1.64222
146, 3, wb, filler, NA, 999, 999, 8, 7, 181, 68, 61, 187, 74, 108, 3, 0.647147
146, 3, wb, attraction, a-b-db, 5, 2, 8, 8, 88, 161, 90, 165, 165, 90, 3, 1.65874
146, 3, wb, attraction, a-b-db, 5, 2, 8, 8, 88, 161, 90, 165, 165, 90, 2, 0.310803
146, 3, wb, attraction, a-b-da, 9, 1, 8, 9, 135, 60, 129, 57, 60, 135, 2, 0.816036
146, 3, wb, attraction, a-b-da, 9, 1, 8, 9, 135, 60, 129, 57, 60, 135, 3, 0.566491
146, 3, wb, filler, NA, 999, 999, 8, 10, 109, 194, 94, 142, 175, 187, 2, 3.22159
146, 3, wb, filler, NA, 999, 999, 8, 10, 109, 194, 94, 142, 175, 187, 3, 0.571373
146, 3, wb, attraction, a-b-db, 14, 3, 8, 11, 111, 181, 195, 120, 120, 195, 1, 1.78621
146, 3, wb, attraction, a-b-db, 14, 3, 8, 11, 111, 181, 195, 120, 120, 195, 2, 1.01774
146, 3, wb, attraction, a-b-da, 9, 3, 8, 12, 120, 195, 195, 120, 186, 114, 3, 1.82263
146, 3, wb, attraction, a-b-da, 9, 3, 8, 12, 120, 195, 195, 120, 186, 114, 2, 0.580051
146, 3, wb, filler, NA, 999, 999, 8, 13, 118, 84, 126, 121, 159, 178, 1, 0.802416
146, 3, wb, filler, NA, 999, 999, 8, 13, 118, 84, 126, 121, 159, 178, 3, 0.401496
146, 3, wb, catch, NA, 999, 999, 8, 14, 115, 140, 97, 98, 166, 149, 2, 0.527318
146, 3, wb, catch, NA, 999, 999, 8, 14, 115, 140, 97, 98, 166, 149, 3, 0.857165
146, 3, wb, attraction, a-b-da, 14, 3, 8, 15, 195, 120, 120, 195, 181, 111, 3, 0.876175
146, 3, wb, attraction, a-b-da, 14, 3, 8, 15, 195, 120, 120, 195, 181, 111, 2, 0.35985
146, 3, wb, catch, NA, 999, 999, 8, 16, 137, 178, 94, 161, 75, 120, 3, 0.703098
146, 3, wb, catch, NA, 999, 999, 8, 16, 137, 178, 94, 161, 75, 120, 1, 1.17814
146, 3, wb, filler, NA, 999, 999, 8, 17, 76, 155, 74, 173, 179, 93, 1, 0.984293
146, 3, wb, filler, NA, 999, 999, 8, 17, 76, 155, 74, 173, 179, 93, 3, 0.791993
146, 3, wb, filler, NA, 999, 999, 8, 18, 88, 160, 133, 56, 76, 141, 2, 0.829794
146, 3, wb, filler, NA, 999, 999, 8, 18, 88, 160, 133, 56, 76, 141, 1, 0.411406
146, 3, wb, catch, NA, 999, 999, 8, 19, 131, 124, 84, 111, 166, 149, 2, 0.616652
146, 3, wb, catch, NA, 999, 999, 8, 19, 131, 124, 84, 111, 166, 149, 3, 0.366923
146, 3, wb, attraction, a-b-da, 2, 3, 8, 20, 193, 119, 120, 195, 195, 120, 3, 1.07016
146, 3, wb, attraction, a-b-da, 2, 3, 8, 20, 193, 119, 120, 195, 195, 120, 2, 1.03445
146, 3, wb, attraction, a-b-db, 9, 1, 8, 21, 57, 129, 60, 135, 135, 60, 3, 1.13481
146, 3, wb, attraction, a-b-db, 9, 1, 8, 21, 57, 129, 60, 135, 135, 60, 2, 0.680367
146, 3, wb, attraction, a-b-db, 9, 2, 8, 22, 90, 165, 86, 157, 165, 90, 3, 1.07493
146, 3, wb, attraction, a-b-db, 9, 2, 8, 22, 90, 165, 86, 157, 165, 90, 2, 0.670517
146, 3, wb, attraction, a-b-db, 2, 1, 8, 23, 59, 134, 60, 135, 135, 60, 2, 1.33757
146, 3, wb, attraction, a-b-db, 2, 1, 8, 23, 59, 134, 60, 135, 135, 60, 3, 0.491016
146, 3, wb, attraction, a-b-db, 5, 1, 8, 24, 60, 135, 135, 60, 58, 132, 1, 1.09286
146, 3, wb, attraction, a-b-db, 5, 1, 8, 24, 60, 135, 135, 60, 58, 132, 2, 0.543902
146, 3, wb, attraction, a-b-da, 14, 1, 8, 25, 125, 56, 60, 135, 135, 60, 3, 0.855605
146, 3, wb, attraction, a-b-da, 14, 1, 8, 25, 125, 56, 60, 135, 135, 60, 2, 0.379894
146, 3, wb, attraction, a-b-da, 2, 1, 8, 26, 135, 60, 134, 59, 60, 135, 2, 0.578393
146, 3, wb, attraction, a-b-da, 2, 1, 8, 26, 135, 60, 134, 59, 60, 135, 3, 0.426309
146, 3, wb, attraction, a-b-db, 9, 3, 8, 27, 120, 195, 195, 120, 114, 186, 3, 2.44662
146, 3, wb, attraction, a-b-db, 9, 3, 8, 27, 120, 195, 195, 120, 114, 186, 2, 0.619296
146, 3, wb, filler, NA, 999, 999, 8, 28, 156, 72, 136, 91, 142, 119, 1, 1.50426
146, 3, wb, filler, NA, 999, 999, 8, 28, 156, 72, 136, 91, 142, 119, 2, 0.355131
146, 3, wb, attraction, a-b-da, 14, 2, 8, 29, 153, 83, 165, 90, 90, 165, 1, 0.69904
146, 3, wb, attraction, a-b-da, 14, 2, 8, 29, 153, 83, 165, 90, 90, 165, 2, 0.462016
146, 3, wb, attraction, a-b-db, 14, 2, 8, 30, 90, 165, 165, 90, 83, 153, 3, 2.92932
146, 3, wb, attraction, a-b-db, 14, 2, 8, 30, 90, 165, 165, 90, 83, 153, 2, 0.506392
146, 3, wb, attraction, a-b-da, 9, 2, 8, 31, 90, 165, 165, 90, 157, 86, 3, 1.60421
146, 3, wb, attraction, a-b-da, 9, 2, 8, 31, 90, 165, 165, 90, 157, 86, 2, 0.38615
146, 3, wb, filler, NA, 999, 999, 8, 32, 87, 192, 92, 94, 171, 115, 2, 0.800628
146, 3, wb, filler, NA, 999, 999, 8, 32, 87, 192, 92, 94, 171, 115, 3, 0.703718
146, 3, wb, filler, NA, 999, 999, 8, 33, 63, 97, 147, 97, 84, 176, 1, 0.945452
146, 3, wb, filler, NA, 999, 999, 8, 33, 63, 97, 147, 97, 84, 176, 3, 0.546447
146, 3, wb, attraction, a-b-db, 5, 3, 8, 34, 117, 190, 120, 195, 195, 120, 1, 1.19424
146, 3, wb, attraction, a-b-db, 5, 3, 8, 34, 117, 190, 120, 195, 195, 120, 3, 0.489248
146, 3, wb, attraction, a-b-db, 14, 1, 8, 35, 56, 125, 60, 135, 135, 60, 1, 1.97965
146, 3, wb, attraction, a-b-db, 14, 1, 8, 35, 56, 125, 60, 135, 135, 60, 3, 0.562921
146, 3, wb, filler, NA, 999, 999, 8, 36, 108, 141, 114, 123, 60, 184, 3, 1.60218
146, 3, wb, filler, NA, 999, 999, 8, 36, 108, 141, 114, 123, 60, 184, 1, 0.416897
146, 3, wb, attraction, a-b-da, 5, 3, 8, 37, 120, 195, 195, 120, 190, 117, 1, 1.078
146, 3, wb, attraction, a-b-da, 5, 3, 8, 37, 120, 195, 195, 120, 190, 117, 3, 1.53771
