sub_n, computer_n, bw_cond, effect, set, distance, diag, block_n, trial_n, h1, w1, h2, w2, h3, w3, choice, rt 
143, 3, bw, practice, NA, 999, 999, 0, 1, 192, 171, 125, 173, 117, 155, 1, 2.48066
143, 3, bw, practice, NA, 999, 999, 0, 1, 192, 171, 125, 173, 117, 155, 3, 2.26804
143, 3, bw, practice, NA, 999, 999, 0, 2, 132, 184, 59, 129, 165, 159, 3, 2.45847
143, 3, bw, practice, NA, 999, 999, 0, 2, 132, 184, 59, 129, 165, 159, 2, 1.64846
143, 3, bw, practice, NA, 999, 999, 0, 3, 61, 100, 82, 175, 121, 109, 2, 3.57696
143, 3, bw, practice, NA, 999, 999, 0, 3, 61, 100, 82, 175, 121, 109, 1, 2.00415
143, 3, bw, filler, NA, 999, 999, 1, 1, 80, 85, 131, 95, 169, 116, 3, 1.74623
143, 3, bw, filler, NA, 999, 999, 1, 1, 80, 85, 131, 95, 169, 116, 1, 1.46694
143, 3, bw, attraction, a-b-db, 5, 3, 1, 2, 117, 190, 195, 120, 120, 195, 3, 3.33383
143, 3, bw, attraction, a-b-db, 5, 3, 1, 2, 117, 190, 195, 120, 120, 195, 1, 2.3108
143, 3, bw, filler, NA, 999, 999, 1, 3, 123, 131, 145, 100, 59, 170, 1, 6.34352
143, 3, bw, filler, NA, 999, 999, 1, 3, 123, 131, 145, 100, 59, 170, 3, 1.88658
143, 3, bw, filler, NA, 999, 999, 1, 4, 187, 158, 61, 151, 88, 69, 1, 1.19273
143, 3, bw, filler, NA, 999, 999, 1, 4, 187, 158, 61, 151, 88, 69, 3, 1.17563
143, 3, bw, attraction, a-b-db, 9, 2, 1, 5, 165, 90, 90, 165, 86, 157, 2, 4.62991
143, 3, bw, attraction, a-b-db, 9, 2, 1, 5, 165, 90, 90, 165, 86, 157, 3, 1.87434
143, 3, bw, filler, NA, 999, 999, 1, 6, 70, 75, 67, 74, 123, 181, 3, 1.54842
143, 3, bw, filler, NA, 999, 999, 1, 6, 70, 75, 67, 74, 123, 181, 2, 5.43724
143, 3, bw, attraction, a-b-db, 9, 1, 1, 7, 60, 135, 135, 60, 57, 129, 1, 4.77615
143, 3, bw, attraction, a-b-db, 9, 1, 1, 7, 60, 135, 135, 60, 57, 129, 3, 1.79066
143, 3, bw, attraction, a-b-da, 14, 3, 1, 8, 120, 195, 181, 111, 195, 120, 3, 2.964
143, 3, bw, attraction, a-b-da, 14, 3, 1, 8, 120, 195, 181, 111, 195, 120, 2, 1.08366
143, 3, bw, attraction, a-b-db, 9, 3, 1, 9, 195, 120, 114, 186, 120, 195, 3, 2.85392
143, 3, bw, attraction, a-b-db, 9, 3, 1, 9, 195, 120, 114, 186, 120, 195, 2, 1.35446
143, 3, bw, filler, NA, 999, 999, 1, 10, 92, 173, 74, 180, 72, 58, 1, 1.29796
143, 3, bw, filler, NA, 999, 999, 1, 10, 92, 173, 74, 180, 72, 58, 3, 1.31679
143, 3, bw, filler, NA, 999, 999, 1, 11, 190, 178, 157, 98, 81, 145, 1, 0.829647
143, 3, bw, filler, NA, 999, 999, 1, 11, 190, 178, 157, 98, 81, 145, 3, 1.7394
143, 3, bw, attraction, a-b-da, 5, 2, 1, 12, 90, 165, 161, 88, 165, 90, 1, 2.40349
143, 3, bw, attraction, a-b-da, 5, 2, 1, 12, 90, 165, 161, 88, 165, 90, 2, 1.26604
143, 3, bw, catch, NA, 999, 999, 1, 13, 114, 81, 146, 169, 145, 110, 2, 1.07704
143, 3, bw, catch, NA, 999, 999, 1, 13, 114, 81, 146, 169, 145, 110, 1, 0.984471
143, 3, bw, attraction, a-b-db, 14, 3, 1, 14, 195, 120, 111, 181, 120, 195, 3, 2.58286
143, 3, bw, attraction, a-b-db, 14, 3, 1, 14, 195, 120, 111, 181, 120, 195, 1, 3.97396
143, 3, bw, filler, NA, 999, 999, 1, 15, 81, 113, 124, 93, 150, 83, 2, 7.06013
143, 3, bw, filler, NA, 999, 999, 1, 15, 81, 113, 124, 93, 150, 83, 1, 0.718382
143, 3, bw, attraction, a-b-db, 2, 3, 1, 16, 120, 195, 119, 193, 195, 120, 1, 2.09554
143, 3, bw, attraction, a-b-db, 2, 3, 1, 16, 120, 195, 119, 193, 195, 120, 3, 1.66622
143, 3, bw, filler, NA, 999, 999, 1, 17, 60, 61, 119, 195, 144, 177, 2, 2.909
143, 3, bw, filler, NA, 999, 999, 1, 17, 60, 61, 119, 195, 144, 177, 1, 0.79867
143, 3, bw, attraction, a-b-da, 9, 1, 1, 18, 135, 60, 129, 57, 60, 135, 2, 3.49239
143, 3, bw, attraction, a-b-da, 9, 1, 1, 18, 135, 60, 129, 57, 60, 135, 1, 0.982516
143, 3, bw, attraction, a-b-db, 5, 2, 1, 19, 165, 90, 90, 165, 88, 161, 2, 3.26885
143, 3, bw, attraction, a-b-db, 5, 2, 1, 19, 165, 90, 90, 165, 88, 161, 3, 1.47248
143, 3, bw, attraction, a-b-da, 2, 2, 1, 20, 165, 90, 90, 165, 163, 89, 2, 2.40324
143, 3, bw, attraction, a-b-da, 2, 2, 1, 20, 165, 90, 90, 165, 163, 89, 1, 1.58579
143, 3, bw, attraction, a-b-da, 9, 2, 1, 21, 90, 165, 157, 86, 165, 90, 1, 1.62391
143, 3, bw, attraction, a-b-da, 9, 2, 1, 21, 90, 165, 157, 86, 165, 90, 2, 1.45341
143, 3, bw, catch, NA, 999, 999, 1, 22, 121, 74, 90, 165, 160, 155, 3, 1.47294
143, 3, bw, catch, NA, 999, 999, 1, 22, 121, 74, 90, 165, 160, 155, 1, 1.08447
143, 3, bw, filler, NA, 999, 999, 1, 23, 186, 120, 73, 194, 185, 165, 3, 1.4627
143, 3, bw, filler, NA, 999, 999, 1, 23, 186, 120, 73, 194, 185, 165, 2, 1.11488
143, 3, bw, attraction, a-b-db, 14, 1, 1, 24, 135, 60, 60, 135, 56, 125, 2, 8.73182
143, 3, bw, attraction, a-b-db, 14, 1, 1, 24, 135, 60, 60, 135, 56, 125, 3, 1.24311
143, 3, bw, attraction, a-b-da, 5, 1, 1, 25, 60, 135, 132, 58, 135, 60, 1, 3.72658
143, 3, bw, attraction, a-b-da, 5, 1, 1, 25, 60, 135, 132, 58, 135, 60, 2, 0.839552
143, 3, bw, attraction, a-b-da, 14, 2, 1, 26, 165, 90, 153, 83, 90, 165, 3, 1.77179
143, 3, bw, attraction, a-b-da, 14, 2, 1, 26, 165, 90, 153, 83, 90, 165, 2, 1.0911
143, 3, bw, attraction, a-b-da, 9, 3, 1, 27, 120, 195, 186, 114, 195, 120, 1, 1.98874
143, 3, bw, attraction, a-b-da, 9, 3, 1, 27, 120, 195, 186, 114, 195, 120, 2, 0.699385
143, 3, bw, attraction, a-b-db, 5, 1, 1, 28, 60, 135, 58, 132, 135, 60, 3, 2.50913
143, 3, bw, attraction, a-b-db, 5, 1, 1, 28, 60, 135, 58, 132, 135, 60, 2, 1.07096
143, 3, bw, filler, NA, 999, 999, 1, 29, 105, 187, 59, 92, 154, 123, 3, 1.32189
143, 3, bw, filler, NA, 999, 999, 1, 29, 105, 187, 59, 92, 154, 123, 2, 1.35549
143, 3, bw, attraction, a-b-da, 14, 1, 1, 30, 125, 56, 135, 60, 60, 135, 3, 2.05099
143, 3, bw, attraction, a-b-da, 14, 1, 1, 30, 125, 56, 135, 60, 60, 135, 1, 1.47966
143, 3, bw, attraction, a-b-db, 2, 1, 1, 31, 135, 60, 60, 135, 59, 134, 2, 2.44983
143, 3, bw, attraction, a-b-db, 2, 1, 1, 31, 135, 60, 60, 135, 59, 134, 1, 1.15038
143, 3, bw, attraction, a-b-da, 5, 3, 1, 32, 195, 120, 120, 195, 190, 117, 2, 2.13389
143, 3, bw, attraction, a-b-da, 5, 3, 1, 32, 195, 120, 120, 195, 190, 117, 3, 1.20728
143, 3, bw, attraction, a-b-db, 2, 2, 1, 33, 90, 165, 165, 90, 89, 163, 3, 2.47614
143, 3, bw, attraction, a-b-db, 2, 2, 1, 33, 90, 165, 165, 90, 89, 163, 2, 1.17548
143, 3, bw, attraction, a-b-da, 2, 1, 1, 34, 134, 59, 135, 60, 60, 135, 3, 4.79763
143, 3, bw, attraction, a-b-da, 2, 1, 1, 34, 134, 59, 135, 60, 60, 135, 2, 1.11544
143, 3, bw, attraction, a-b-db, 14, 2, 1, 35, 165, 90, 83, 153, 90, 165, 3, 2.28443
143, 3, bw, attraction, a-b-db, 14, 2, 1, 35, 165, 90, 83, 153, 90, 165, 2, 2.24771
143, 3, bw, catch, NA, 999, 999, 1, 36, 62, 133, 151, 104, 186, 129, 3, 0.986775
143, 3, bw, catch, NA, 999, 999, 1, 36, 62, 133, 151, 104, 186, 129, 1, 0.762626
143, 3, bw, attraction, a-b-da, 2, 3, 1, 37, 193, 119, 195, 120, 120, 195, 3, 2.26561
143, 3, bw, attraction, a-b-da, 2, 3, 1, 37, 193, 119, 195, 120, 120, 195, 2, 1.69344
143, 3, bw, attraction, a-b-db, 5, 1, 2, 1, 60, 135, 58, 132, 135, 60, 3, 2.6389
143, 3, bw, attraction, a-b-db, 5, 1, 2, 1, 60, 135, 58, 132, 135, 60, 2, 0.963475
143, 3, bw, filler, NA, 999, 999, 2, 2, 74, 173, 56, 80, 74, 162, 1, 3.35444
143, 3, bw, filler, NA, 999, 999, 2, 2, 74, 173, 56, 80, 74, 162, 2, 0.834632
143, 3, bw, attraction, a-b-da, 14, 3, 2, 3, 120, 195, 195, 120, 181, 111, 1, 2.81497
143, 3, bw, attraction, a-b-da, 14, 3, 2, 3, 120, 195, 195, 120, 181, 111, 3, 2.0527
143, 3, bw, attraction, a-b-da, 9, 3, 2, 4, 120, 195, 186, 114, 195, 120, 3, 3.68003
143, 3, bw, attraction, a-b-da, 9, 3, 2, 4, 120, 195, 186, 114, 195, 120, 2, 0.9628
143, 3, bw, attraction, a-b-db, 9, 2, 2, 5, 90, 165, 165, 90, 86, 157, 2, 3.72979
143, 3, bw, attraction, a-b-db, 9, 2, 2, 5, 90, 165, 165, 90, 86, 157, 3, 0.634587
143, 3, bw, catch, NA, 999, 999, 2, 6, 150, 165, 97, 158, 90, 105, 1, 0.975023
143, 3, bw, catch, NA, 999, 999, 2, 6, 150, 165, 97, 158, 90, 105, 3, 1.03087
143, 3, bw, attraction, a-b-da, 14, 2, 2, 7, 153, 83, 165, 90, 90, 165, 3, 2.23495
143, 3, bw, attraction, a-b-da, 14, 2, 2, 7, 153, 83, 165, 90, 90, 165, 1, 1.28036
143, 3, bw, attraction, a-b-da, 9, 1, 2, 8, 135, 60, 129, 57, 60, 135, 3, 2.20245
143, 3, bw, attraction, a-b-da, 9, 1, 2, 8, 135, 60, 129, 57, 60, 135, 2, 1.04907
143, 3, bw, attraction, a-b-db, 5, 3, 2, 9, 195, 120, 120, 195, 117, 190, 2, 1.90887
143, 3, bw, attraction, a-b-db, 5, 3, 2, 9, 195, 120, 120, 195, 117, 190, 1, 1.07871
143, 3, bw, catch, NA, 999, 999, 2, 10, 80, 115, 108, 147, 178, 137, 3, 1.63305
143, 3, bw, catch, NA, 999, 999, 2, 10, 80, 115, 108, 147, 178, 137, 1, 0.950489
143, 3, bw, catch, NA, 999, 999, 2, 11, 147, 168, 150, 105, 89, 106, 1, 1.13406
143, 3, bw, catch, NA, 999, 999, 2, 11, 147, 168, 150, 105, 89, 106, 3, 0.655926
143, 3, bw, attraction, a-b-da, 5, 1, 2, 12, 60, 135, 135, 60, 132, 58, 1, 4.2515
143, 3, bw, attraction, a-b-da, 5, 1, 2, 12, 60, 135, 135, 60, 132, 58, 3, 0.855422
143, 3, bw, attraction, a-b-db, 5, 2, 2, 13, 88, 161, 90, 165, 165, 90, 2, 2.11529
143, 3, bw, attraction, a-b-db, 5, 2, 2, 13, 88, 161, 90, 165, 165, 90, 1, 1.60508
143, 3, bw, attraction, a-b-da, 2, 1, 2, 14, 60, 135, 135, 60, 134, 59, 1, 4.11451
143, 3, bw, attraction, a-b-da, 2, 1, 2, 14, 60, 135, 135, 60, 134, 59, 2, 1.80395
143, 3, bw, filler, NA, 999, 999, 2, 15, 113, 134, 86, 83, 104, 101, 1, 1.56139
143, 3, bw, filler, NA, 999, 999, 2, 15, 113, 134, 86, 83, 104, 101, 2, 0.729527
143, 3, bw, filler, NA, 999, 999, 2, 16, 57, 163, 145, 195, 182, 133, 2, 1.75377
143, 3, bw, filler, NA, 999, 999, 2, 16, 57, 163, 145, 195, 182, 133, 1, 0.634539
143, 3, bw, filler, NA, 999, 999, 2, 17, 111, 56, 69, 137, 78, 157, 3, 1.87106
143, 3, bw, filler, NA, 999, 999, 2, 17, 111, 56, 69, 137, 78, 157, 1, 1.17901
143, 3, bw, filler, NA, 999, 999, 2, 18, 137, 117, 57, 58, 78, 104, 1, 1.60927
143, 3, bw, filler, NA, 999, 999, 2, 18, 137, 117, 57, 58, 78, 104, 2, 0.887497
143, 3, bw, attraction, a-b-db, 2, 3, 2, 19, 195, 120, 119, 193, 120, 195, 3, 2.522
143, 3, bw, attraction, a-b-db, 2, 3, 2, 19, 195, 120, 119, 193, 120, 195, 1, 2.45142
143, 3, bw, attraction, a-b-db, 9, 3, 2, 20, 195, 120, 120, 195, 114, 186, 2, 2.11022
143, 3, bw, attraction, a-b-db, 9, 3, 2, 20, 195, 120, 120, 195, 114, 186, 1, 1.76812
143, 3, bw, attraction, a-b-da, 2, 3, 2, 21, 193, 119, 120, 195, 195, 120, 2, 2.07089
143, 3, bw, attraction, a-b-da, 2, 3, 2, 21, 193, 119, 120, 195, 195, 120, 1, 1.45877
143, 3, bw, filler, NA, 999, 999, 2, 22, 97, 98, 110, 61, 107, 154, 3, 1.20561
143, 3, bw, filler, NA, 999, 999, 2, 22, 97, 98, 110, 61, 107, 154, 2, 1.83598
143, 3, bw, attraction, a-b-db, 9, 1, 2, 23, 60, 135, 57, 129, 135, 60, 3, 2.95992
143, 3, bw, attraction, a-b-db, 9, 1, 2, 23, 60, 135, 57, 129, 135, 60, 2, 0.999665
143, 3, bw, attraction, a-b-db, 14, 1, 2, 24, 56, 125, 135, 60, 60, 135, 3, 2.41333
143, 3, bw, attraction, a-b-db, 14, 1, 2, 24, 56, 125, 135, 60, 60, 135, 2, 0.867305
143, 3, bw, filler, NA, 999, 999, 2, 25, 130, 92, 90, 104, 114, 98, 1, 2.27316
143, 3, bw, filler, NA, 999, 999, 2, 25, 130, 92, 90, 104, 114, 98, 2, 0.953469
143, 3, bw, filler, NA, 999, 999, 2, 26, 130, 62, 65, 136, 94, 165, 3, 1.20106
143, 3, bw, filler, NA, 999, 999, 2, 26, 130, 62, 65, 136, 94, 165, 1, 0.880028
143, 3, bw, attraction, a-b-db, 14, 3, 2, 27, 195, 120, 111, 181, 120, 195, 3, 2.08236
143, 3, bw, attraction, a-b-db, 14, 3, 2, 27, 195, 120, 111, 181, 120, 195, 2, 6.88569
143, 3, bw, attraction, a-b-da, 5, 3, 2, 28, 120, 195, 190, 117, 195, 120, 2, 3.31015
143, 3, bw, attraction, a-b-da, 5, 3, 2, 28, 120, 195, 190, 117, 195, 120, 3, 1.63178
143, 3, bw, attraction, a-b-db, 2, 1, 2, 29, 135, 60, 60, 135, 59, 134, 2, 3.51603
143, 3, bw, attraction, a-b-db, 2, 1, 2, 29, 135, 60, 60, 135, 59, 134, 1, 3.22938
143, 3, bw, attraction, a-b-da, 9, 2, 2, 30, 157, 86, 90, 165, 165, 90, 2, 2.23301
143, 3, bw, attraction, a-b-da, 9, 2, 2, 30, 157, 86, 90, 165, 165, 90, 3, 1.10226
143, 3, bw, attraction, a-b-da, 14, 1, 2, 31, 125, 56, 60, 135, 135, 60, 2, 5.02394
143, 3, bw, attraction, a-b-da, 14, 1, 2, 31, 125, 56, 60, 135, 135, 60, 1, 0.636254
143, 3, bw, attraction, a-b-db, 14, 2, 2, 32, 165, 90, 90, 165, 83, 153, 2, 2.04859
143, 3, bw, attraction, a-b-db, 14, 2, 2, 32, 165, 90, 90, 165, 83, 153, 3, 1.38138
143, 3, bw, filler, NA, 999, 999, 2, 33, 71, 100, 92, 84, 186, 191, 3, 1.37954
143, 3, bw, filler, NA, 999, 999, 2, 33, 71, 100, 92, 84, 186, 191, 1, 1.00307
143, 3, bw, filler, NA, 999, 999, 2, 34, 138, 87, 181, 66, 170, 195, 3, 1.2966
143, 3, bw, filler, NA, 999, 999, 2, 34, 138, 87, 181, 66, 170, 195, 1, 4.45962
143, 3, bw, attraction, a-b-da, 2, 2, 2, 35, 90, 165, 165, 90, 163, 89, 1, 3.44562
143, 3, bw, attraction, a-b-da, 2, 2, 2, 35, 90, 165, 165, 90, 163, 89, 3, 2.38571
143, 3, bw, attraction, a-b-da, 5, 2, 2, 36, 90, 165, 161, 88, 165, 90, 1, 3.95164
143, 3, bw, attraction, a-b-da, 5, 2, 2, 36, 90, 165, 161, 88, 165, 90, 3, 1.3117
143, 3, bw, attraction, a-b-db, 2, 2, 2, 37, 90, 165, 165, 90, 89, 163, 1, 1.62455
143, 3, bw, attraction, a-b-db, 2, 2, 2, 37, 90, 165, 165, 90, 89, 163, 2, 3.50198
143, 3, bw, attraction, a-b-da, 9, 1, 3, 1, 135, 60, 129, 57, 60, 135, 1, 4.7829
143, 3, bw, attraction, a-b-da, 9, 1, 3, 1, 135, 60, 129, 57, 60, 135, 3, 1.30934
143, 3, bw, attraction, a-b-db, 2, 3, 3, 2, 120, 195, 195, 120, 119, 193, 2, 3.07009
143, 3, bw, attraction, a-b-db, 2, 3, 3, 2, 120, 195, 195, 120, 119, 193, 1, 1.21804
143, 3, bw, attraction, a-b-db, 14, 2, 3, 3, 83, 153, 165, 90, 90, 165, 3, 2.03872
143, 3, bw, attraction, a-b-db, 14, 2, 3, 3, 83, 153, 165, 90, 90, 165, 1, 1.03554
143, 3, bw, attraction, a-b-da, 5, 1, 3, 4, 135, 60, 132, 58, 60, 135, 3, 4.51973
143, 3, bw, attraction, a-b-da, 5, 1, 3, 4, 135, 60, 132, 58, 60, 135, 2, 1.64091
143, 3, bw, catch, NA, 999, 999, 3, 5, 102, 153, 60, 135, 193, 122, 3, 1.21235
143, 3, bw, catch, NA, 999, 999, 3, 5, 102, 153, 60, 135, 193, 122, 2, 0.746722
143, 3, bw, attraction, a-b-db, 2, 2, 3, 6, 90, 165, 89, 163, 165, 90, 2, 4.25834
143, 3, bw, attraction, a-b-db, 2, 2, 3, 6, 90, 165, 89, 163, 165, 90, 1, 1.4377
143, 3, bw, attraction, a-b-da, 2, 1, 3, 7, 135, 60, 60, 135, 134, 59, 3, 3.39377
143, 3, bw, attraction, a-b-da, 2, 1, 3, 7, 135, 60, 60, 135, 134, 59, 1, 1.51996
143, 3, bw, attraction, a-b-da, 5, 2, 3, 8, 90, 165, 165, 90, 161, 88, 1, 2.93681
143, 3, bw, attraction, a-b-da, 5, 2, 3, 8, 90, 165, 165, 90, 161, 88, 3, 1.45786
143, 3, bw, attraction, a-b-db, 14, 1, 3, 9, 60, 135, 135, 60, 56, 125, 1, 2.30085
143, 3, bw, attraction, a-b-db, 14, 1, 3, 9, 60, 135, 135, 60, 56, 125, 3, 1.14337
143, 3, bw, catch, NA, 999, 999, 3, 10, 94, 101, 167, 148, 129, 126, 2, 1.2629
143, 3, bw, catch, NA, 999, 999, 3, 10, 94, 101, 167, 148, 129, 126, 1, 0.89101
143, 3, bw, attraction, a-b-db, 9, 2, 3, 11, 86, 157, 90, 165, 165, 90, 2, 2.34871
143, 3, bw, attraction, a-b-db, 9, 2, 3, 11, 86, 157, 90, 165, 165, 90, 3, 1.65332
143, 3, bw, attraction, a-b-db, 9, 1, 3, 12, 135, 60, 57, 129, 60, 135, 1, 1.62482
143, 3, bw, attraction, a-b-db, 9, 1, 3, 12, 135, 60, 57, 129, 60, 135, 2, 1.31826
143, 3, bw, filler, NA, 999, 999, 3, 13, 183, 146, 161, 164, 150, 118, 1, 2.60714
143, 3, bw, filler, NA, 999, 999, 3, 13, 183, 146, 161, 164, 150, 118, 3, 0.685061
143, 3, bw, attraction, a-b-da, 2, 2, 3, 14, 165, 90, 163, 89, 90, 165, 3, 2.86335
143, 3, bw, attraction, a-b-da, 2, 2, 3, 14, 165, 90, 163, 89, 90, 165, 2, 1.50723
143, 3, bw, attraction, a-b-db, 5, 1, 3, 15, 135, 60, 60, 135, 58, 132, 2, 2.34782
143, 3, bw, attraction, a-b-db, 5, 1, 3, 15, 135, 60, 60, 135, 58, 132, 1, 0.828463
143, 3, bw, filler, NA, 999, 999, 3, 16, 76, 192, 84, 184, 92, 151, 2, 2.0489
143, 3, bw, filler, NA, 999, 999, 3, 16, 76, 192, 84, 184, 92, 151, 3, 0.837409
143, 3, bw, attraction, a-b-db, 5, 3, 3, 17, 120, 195, 117, 190, 195, 120, 2, 1.6499
143, 3, bw, attraction, a-b-db, 5, 3, 3, 17, 120, 195, 117, 190, 195, 120, 1, 1.82258
143, 3, bw, attraction, a-b-db, 5, 2, 3, 18, 88, 161, 90, 165, 165, 90, 2, 4.77925
143, 3, bw, attraction, a-b-db, 5, 2, 3, 18, 88, 161, 90, 165, 165, 90, 1, 1.23388
143, 3, bw, catch, NA, 999, 999, 3, 19, 108, 147, 112, 83, 192, 123, 3, 1.158
143, 3, bw, catch, NA, 999, 999, 3, 19, 108, 147, 112, 83, 192, 123, 2, 0.646342
143, 3, bw, attraction, a-b-db, 14, 3, 3, 20, 111, 181, 195, 120, 120, 195, 2, 1.68997
143, 3, bw, attraction, a-b-db, 14, 3, 3, 20, 111, 181, 195, 120, 120, 195, 1, 1.06887
143, 3, bw, filler, NA, 999, 999, 3, 21, 121, 186, 59, 158, 145, 88, 1, 1.51975
143, 3, bw, filler, NA, 999, 999, 3, 21, 121, 186, 59, 158, 145, 88, 2, 0.977888
143, 3, bw, filler, NA, 999, 999, 3, 22, 123, 187, 183, 62, 187, 151, 3, 1.26423
143, 3, bw, filler, NA, 999, 999, 3, 22, 123, 187, 183, 62, 187, 151, 2, 1.38849
143, 3, bw, attraction, a-b-da, 14, 3, 3, 23, 181, 111, 120, 195, 195, 120, 2, 3.13062
143, 3, bw, attraction, a-b-da, 14, 3, 3, 23, 181, 111, 120, 195, 195, 120, 1, 1.01161
143, 3, bw, attraction, a-b-da, 2, 3, 3, 24, 120, 195, 193, 119, 195, 120, 1, 3.04053
143, 3, bw, attraction, a-b-da, 2, 3, 3, 24, 120, 195, 193, 119, 195, 120, 3, 0.997087
143, 3, bw, attraction, a-b-db, 9, 3, 3, 25, 120, 195, 114, 186, 195, 120, 1, 3.14652
143, 3, bw, attraction, a-b-db, 9, 3, 3, 25, 120, 195, 114, 186, 195, 120, 3, 1.56306
143, 3, bw, filler, NA, 999, 999, 3, 26, 120, 181, 59, 114, 104, 178, 1, 1.60964
143, 3, bw, filler, NA, 999, 999, 3, 26, 120, 181, 59, 114, 104, 178, 2, 0.719792
143, 3, bw, attraction, a-b-da, 9, 2, 3, 27, 90, 165, 165, 90, 157, 86, 1, 2.23281
143, 3, bw, attraction, a-b-da, 9, 2, 3, 27, 90, 165, 165, 90, 157, 86, 3, 1.02214
143, 3, bw, attraction, a-b-da, 14, 1, 3, 28, 60, 135, 125, 56, 135, 60, 2, 2.26708
143, 3, bw, attraction, a-b-da, 14, 1, 3, 28, 60, 135, 125, 56, 135, 60, 3, 0.855022
143, 3, bw, filler, NA, 999, 999, 3, 29, 138, 171, 66, 147, 102, 152, 1, 1.80267
143, 3, bw, filler, NA, 999, 999, 3, 29, 138, 171, 66, 147, 102, 152, 2, 0.697522
143, 3, bw, attraction, a-b-da, 9, 3, 3, 30, 186, 114, 120, 195, 195, 120, 2, 1.97918
143, 3, bw, attraction, a-b-da, 9, 3, 3, 30, 186, 114, 120, 195, 195, 120, 1, 1.43459
143, 3, bw, attraction, a-b-da, 14, 2, 3, 31, 165, 90, 90, 165, 153, 83, 2, 2.95069
143, 3, bw, attraction, a-b-da, 14, 2, 3, 31, 165, 90, 90, 165, 153, 83, 3, 0.71105
143, 3, bw, filler, NA, 999, 999, 3, 32, 143, 99, 93, 134, 166, 146, 3, 1.29606
143, 3, bw, filler, NA, 999, 999, 3, 32, 143, 99, 93, 134, 166, 146, 2, 0.699057
143, 3, bw, filler, NA, 999, 999, 3, 33, 72, 151, 144, 85, 140, 91, 2, 2.56471
143, 3, bw, filler, NA, 999, 999, 3, 33, 72, 151, 144, 85, 140, 91, 1, 1.0286
143, 3, bw, attraction, a-b-da, 5, 3, 3, 34, 120, 195, 190, 117, 195, 120, 1, 2.0809
143, 3, bw, attraction, a-b-da, 5, 3, 3, 34, 120, 195, 190, 117, 195, 120, 2, 0.788178
143, 3, bw, attraction, a-b-db, 2, 1, 3, 35, 59, 134, 60, 135, 135, 60, 2, 2.57865
143, 3, bw, attraction, a-b-db, 2, 1, 3, 35, 59, 134, 60, 135, 135, 60, 3, 1.10579
143, 3, bw, filler, NA, 999, 999, 3, 36, 137, 169, 188, 87, 136, 177, 3, 1.61941
143, 3, bw, filler, NA, 999, 999, 3, 36, 137, 169, 188, 87, 136, 177, 2, 1.52153
143, 3, bw, filler, NA, 999, 999, 3, 37, 81, 126, 64, 143, 117, 173, 3, 1.20232
143, 3, bw, filler, NA, 999, 999, 3, 37, 81, 126, 64, 143, 117, 173, 2, 1.16123
143, 3, bw, filler, NA, 999, 999, 4, 1, 149, 181, 159, 82, 153, 152, 1, 1.92011
143, 3, bw, filler, NA, 999, 999, 4, 1, 149, 181, 159, 82, 153, 152, 2, 0.794119
143, 3, bw, catch, NA, 999, 999, 4, 2, 120, 75, 143, 172, 141, 114, 2, 1.99181
143, 3, bw, catch, NA, 999, 999, 4, 2, 120, 75, 143, 172, 141, 114, 1, 0.638528
143, 3, bw, attraction, a-b-db, 5, 1, 4, 3, 135, 60, 58, 132, 60, 135, 1, 1.80284
143, 3, bw, attraction, a-b-db, 5, 1, 4, 3, 135, 60, 58, 132, 60, 135, 3, 1.0657
143, 3, bw, attraction, a-b-db, 9, 3, 4, 4, 114, 186, 120, 195, 195, 120, 2, 5.30868
143, 3, bw, attraction, a-b-db, 9, 3, 4, 4, 114, 186, 120, 195, 195, 120, 1, 0.589665
143, 3, bw, filler, NA, 999, 999, 4, 5, 60, 78, 63, 177, 165, 56, 2, 1.57209
143, 3, bw, filler, NA, 999, 999, 4, 5, 60, 78, 63, 177, 165, 56, 1, 0.5315
143, 3, bw, attraction, a-b-da, 14, 2, 4, 6, 153, 83, 165, 90, 90, 165, 3, 3.61199
143, 3, bw, attraction, a-b-da, 14, 2, 4, 6, 153, 83, 165, 90, 90, 165, 1, 0.969451
143, 3, bw, attraction, a-b-db, 14, 2, 4, 7, 90, 165, 165, 90, 83, 153, 1, 3.96047
143, 3, bw, attraction, a-b-db, 14, 2, 4, 7, 90, 165, 165, 90, 83, 153, 3, 0.911824
143, 3, bw, filler, NA, 999, 999, 4, 8, 172, 83, 102, 189, 109, 161, 2, 2.40888
143, 3, bw, filler, NA, 999, 999, 4, 8, 172, 83, 102, 189, 109, 161, 1, 0.918717
143, 3, bw, attraction, a-b-da, 5, 1, 4, 9, 60, 135, 132, 58, 135, 60, 1, 1.90376
143, 3, bw, attraction, a-b-da, 5, 1, 4, 9, 60, 135, 132, 58, 135, 60, 3, 0.810536
143, 3, bw, catch, NA, 999, 999, 4, 10, 175, 140, 114, 141, 72, 123, 1, 1.85547
143, 3, bw, catch, NA, 999, 999, 4, 10, 175, 140, 114, 141, 72, 123, 3, 0.923525
143, 3, bw, attraction, a-b-da, 14, 1, 4, 11, 125, 56, 60, 135, 135, 60, 3, 2.62779
143, 3, bw, attraction, a-b-da, 14, 1, 4, 11, 125, 56, 60, 135, 135, 60, 1, 1.30495
143, 3, bw, attraction, a-b-db, 14, 3, 4, 12, 195, 120, 120, 195, 111, 181, 2, 1.51457
143, 3, bw, attraction, a-b-db, 14, 3, 4, 12, 195, 120, 120, 195, 111, 181, 3, 3.87667
143, 3, bw, attraction, a-b-da, 2, 1, 4, 13, 135, 60, 134, 59, 60, 135, 1, 3.16609
143, 3, bw, attraction, a-b-da, 2, 1, 4, 13, 135, 60, 134, 59, 60, 135, 3, 0.71775
143, 3, bw, attraction, a-b-db, 2, 1, 4, 14, 59, 134, 135, 60, 60, 135, 2, 2.75886
143, 3, bw, attraction, a-b-db, 2, 1, 4, 14, 59, 134, 135, 60, 60, 135, 3, 0.702597
143, 3, bw, attraction, a-b-da, 2, 3, 4, 15, 193, 119, 120, 195, 195, 120, 2, 1.82427
143, 3, bw, attraction, a-b-da, 2, 3, 4, 15, 193, 119, 120, 195, 195, 120, 3, 1.01369
143, 3, bw, filler, NA, 999, 999, 4, 16, 75, 153, 173, 71, 144, 182, 3, 1.20256
143, 3, bw, filler, NA, 999, 999, 4, 16, 75, 153, 173, 71, 144, 182, 1, 1.34559
143, 3, bw, attraction, a-b-da, 2, 2, 4, 17, 163, 89, 90, 165, 165, 90, 2, 2.74502
143, 3, bw, attraction, a-b-da, 2, 2, 4, 17, 163, 89, 90, 165, 165, 90, 1, 1.20959
143, 3, bw, attraction, a-b-db, 2, 2, 4, 18, 89, 163, 90, 165, 165, 90, 2, 1.59044
143, 3, bw, attraction, a-b-db, 2, 2, 4, 18, 89, 163, 90, 165, 165, 90, 3, 0.973259
143, 3, bw, attraction, a-b-da, 9, 1, 4, 19, 60, 135, 129, 57, 135, 60, 1, 2.07616
143, 3, bw, attraction, a-b-da, 9, 1, 4, 19, 60, 135, 129, 57, 135, 60, 2, 1.19153
143, 3, bw, attraction, a-b-db, 9, 2, 4, 20, 90, 165, 165, 90, 86, 157, 1, 2.89313
143, 3, bw, attraction, a-b-db, 9, 2, 4, 20, 90, 165, 165, 90, 86, 157, 3, 1.25557
143, 3, bw, attraction, a-b-da, 9, 3, 4, 21, 186, 114, 195, 120, 120, 195, 3, 1.37909
143, 3, bw, attraction, a-b-da, 9, 3, 4, 21, 186, 114, 195, 120, 120, 195, 1, 0.874676
143, 3, bw, attraction, a-b-db, 9, 1, 4, 22, 135, 60, 60, 135, 57, 129, 1, 1.46109
143, 3, bw, attraction, a-b-db, 9, 1, 4, 22, 135, 60, 60, 135, 57, 129, 3, 1.09712
143, 3, bw, attraction, a-b-db, 14, 1, 4, 23, 60, 135, 135, 60, 56, 125, 2, 1.92268
143, 3, bw, attraction, a-b-db, 14, 1, 4, 23, 60, 135, 135, 60, 56, 125, 3, 0.756161
143, 3, bw, filler, NA, 999, 999, 4, 24, 195, 175, 60, 189, 162, 185, 1, 0.963871
143, 3, bw, filler, NA, 999, 999, 4, 24, 195, 175, 60, 189, 162, 185, 2, 0.740116
143, 3, bw, attraction, a-b-da, 9, 2, 4, 25, 157, 86, 165, 90, 90, 165, 3, 2.25978
143, 3, bw, attraction, a-b-da, 9, 2, 4, 25, 157, 86, 165, 90, 90, 165, 1, 0.831776
143, 3, bw, catch, NA, 999, 999, 4, 26, 151, 104, 117, 78, 127, 188, 3, 1.2041
143, 3, bw, catch, NA, 999, 999, 4, 26, 151, 104, 117, 78, 127, 188, 2, 1.3303
143, 3, bw, attraction, a-b-da, 14, 3, 4, 27, 195, 120, 120, 195, 181, 111, 2, 1.2905
143, 3, bw, attraction, a-b-da, 14, 3, 4, 27, 195, 120, 120, 195, 181, 111, 3, 0.717514
143, 3, bw, attraction, a-b-da, 5, 3, 4, 28, 190, 117, 120, 195, 195, 120, 2, 1.31051
143, 3, bw, attraction, a-b-da, 5, 3, 4, 28, 190, 117, 120, 195, 195, 120, 1, 1.44077
143, 3, bw, filler, NA, 999, 999, 4, 29, 172, 96, 65, 89, 171, 146, 3, 1.42836
143, 3, bw, filler, NA, 999, 999, 4, 29, 172, 96, 65, 89, 171, 146, 2, 1.61784
143, 3, bw, attraction, a-b-da, 5, 2, 4, 30, 165, 90, 161, 88, 90, 165, 3, 2.45454
143, 3, bw, attraction, a-b-da, 5, 2, 4, 30, 165, 90, 161, 88, 90, 165, 2, 0.827102
143, 3, bw, filler, NA, 999, 999, 4, 31, 62, 102, 104, 172, 160, 126, 2, 2.18346
143, 3, bw, filler, NA, 999, 999, 4, 31, 62, 102, 104, 172, 160, 126, 1, 0.990803
143, 3, bw, filler, NA, 999, 999, 4, 32, 156, 71, 167, 129, 89, 106, 2, 1.82039
143, 3, bw, filler, NA, 999, 999, 4, 32, 156, 71, 167, 129, 89, 106, 3, 0.586403
143, 3, bw, attraction, a-b-db, 5, 3, 4, 33, 120, 195, 117, 190, 195, 120, 3, 3.94499
143, 3, bw, attraction, a-b-db, 5, 3, 4, 33, 120, 195, 117, 190, 195, 120, 1, 1.45695
143, 3, bw, attraction, a-b-db, 5, 2, 4, 34, 90, 165, 165, 90, 88, 161, 1, 1.72372
143, 3, bw, attraction, a-b-db, 5, 2, 4, 34, 90, 165, 165, 90, 88, 161, 2, 2.55718
143, 3, bw, attraction, a-b-db, 2, 3, 4, 35, 120, 195, 119, 193, 195, 120, 3, 3.87631
143, 3, bw, attraction, a-b-db, 2, 3, 4, 35, 120, 195, 119, 193, 195, 120, 1, 1.64707
143, 3, bw, filler, NA, 999, 999, 4, 36, 140, 81, 132, 173, 187, 114, 2, 2.38651
143, 3, bw, filler, NA, 999, 999, 4, 36, 140, 81, 132, 173, 187, 114, 1, 0.969719
143, 3, bw, filler, NA, 999, 999, 4, 37, 88, 81, 166, 154, 179, 143, 3, 3.04075
143, 3, bw, filler, NA, 999, 999, 4, 37, 88, 81, 166, 154, 179, 143, 1, 1.10916
143, 3, bw, attraction, a-b-db, 9, 3, 5, 1, 120, 195, 195, 120, 114, 186, 1, 3.88469
143, 3, bw, attraction, a-b-db, 9, 3, 5, 1, 120, 195, 195, 120, 114, 186, 2, 3.72745
143, 3, bw, filler, NA, 999, 999, 5, 2, 180, 145, 103, 158, 83, 68, 1, 1.34286
143, 3, bw, filler, NA, 999, 999, 5, 2, 180, 145, 103, 158, 83, 68, 3, 0.903735
143, 3, bw, attraction, a-b-db, 14, 3, 5, 3, 111, 181, 195, 120, 120, 195, 3, 1.69738
143, 3, bw, attraction, a-b-db, 14, 3, 5, 3, 111, 181, 195, 120, 120, 195, 1, 0.572295
143, 3, bw, attraction, a-b-da, 2, 2, 5, 4, 165, 90, 163, 89, 90, 165, 3, 2.86726
143, 3, bw, attraction, a-b-da, 2, 2, 5, 4, 165, 90, 163, 89, 90, 165, 1, 1.36699
143, 3, bw, attraction, a-b-da, 14, 1, 5, 5, 135, 60, 125, 56, 60, 135, 3, 2.33383
143, 3, bw, attraction, a-b-da, 14, 1, 5, 5, 135, 60, 125, 56, 60, 135, 2, 1.24707
143, 3, bw, catch, NA, 999, 999, 5, 6, 99, 96, 191, 124, 160, 95, 2, 1.09059
143, 3, bw, catch, NA, 999, 999, 5, 6, 99, 96, 191, 124, 160, 95, 1, 0.709542
143, 3, bw, attraction, a-b-da, 5, 1, 5, 7, 60, 135, 135, 60, 132, 58, 1, 1.75061
143, 3, bw, attraction, a-b-da, 5, 1, 5, 7, 60, 135, 135, 60, 132, 58, 2, 0.64742
143, 3, bw, filler, NA, 999, 999, 5, 8, 178, 68, 103, 124, 182, 162, 3, 1.05921
143, 3, bw, filler, NA, 999, 999, 5, 8, 178, 68, 103, 124, 182, 162, 1, 3.07155
143, 3, bw, catch, NA, 999, 999, 5, 9, 136, 179, 63, 132, 95, 160, 1, 2.90582
143, 3, bw, catch, NA, 999, 999, 5, 9, 136, 179, 63, 132, 95, 160, 2, 1.46757
143, 3, bw, attraction, a-b-db, 5, 1, 5, 10, 58, 132, 135, 60, 60, 135, 3, 2.64632
143, 3, bw, attraction, a-b-db, 5, 1, 5, 10, 58, 132, 135, 60, 60, 135, 2, 0.642777
143, 3, bw, attraction, a-b-da, 14, 3, 5, 11, 181, 111, 120, 195, 195, 120, 2, 2.15047
143, 3, bw, attraction, a-b-da, 14, 3, 5, 11, 181, 111, 120, 195, 195, 120, 1, 0.919183
143, 3, bw, attraction, a-b-da, 2, 1, 5, 12, 60, 135, 134, 59, 135, 60, 1, 3.08025
143, 3, bw, attraction, a-b-da, 2, 1, 5, 12, 60, 135, 134, 59, 135, 60, 2, 1.24315
143, 3, bw, filler, NA, 999, 999, 5, 13, 149, 104, 133, 117, 69, 112, 1, 3.03073
143, 3, bw, filler, NA, 999, 999, 5, 13, 149, 104, 133, 117, 69, 112, 3, 0.987796
143, 3, bw, attraction, a-b-db, 5, 3, 5, 14, 117, 190, 120, 195, 195, 120, 2, 2.57805
143, 3, bw, attraction, a-b-db, 5, 3, 5, 14, 117, 190, 120, 195, 195, 120, 1, 2.21728
143, 3, bw, attraction, a-b-da, 2, 3, 5, 15, 193, 119, 120, 195, 195, 120, 2, 2.20582
143, 3, bw, attraction, a-b-da, 2, 3, 5, 15, 193, 119, 120, 195, 195, 120, 1, 1.67564
143, 3, bw, filler, NA, 999, 999, 5, 16, 101, 191, 91, 173, 173, 133, 3, 1.91792
143, 3, bw, filler, NA, 999, 999, 5, 16, 101, 191, 91, 173, 173, 133, 2, 1.27999
143, 3, bw, attraction, a-b-db, 5, 2, 5, 17, 88, 161, 90, 165, 165, 90, 2, 2.87412
143, 3, bw, attraction, a-b-db, 5, 2, 5, 17, 88, 161, 90, 165, 165, 90, 1, 3.12511
143, 3, bw, filler, NA, 999, 999, 5, 18, 183, 127, 68, 174, 100, 68, 1, 1.85279
143, 3, bw, filler, NA, 999, 999, 5, 18, 183, 127, 68, 174, 100, 68, 3, 0.937532
143, 3, bw, attraction, a-b-db, 2, 1, 5, 19, 135, 60, 60, 135, 59, 134, 2, 2.56988
143, 3, bw, attraction, a-b-db, 2, 1, 5, 19, 135, 60, 60, 135, 59, 134, 1, 1.67359
143, 3, bw, filler, NA, 999, 999, 5, 20, 152, 175, 74, 133, 180, 120, 1, 1.78836
143, 3, bw, filler, NA, 999, 999, 5, 20, 152, 175, 74, 133, 180, 120, 2, 0.739267
143, 3, bw, attraction, a-b-da, 5, 3, 5, 21, 195, 120, 190, 117, 120, 195, 3, 3.29157
143, 3, bw, attraction, a-b-da, 5, 3, 5, 21, 195, 120, 190, 117, 120, 195, 1, 2.1338
143, 3, bw, attraction, a-b-db, 2, 2, 5, 22, 165, 90, 90, 165, 89, 163, 2, 2.45384
143, 3, bw, attraction, a-b-db, 2, 2, 5, 22, 165, 90, 90, 165, 89, 163, 1, 0.890339
143, 3, bw, filler, NA, 999, 999, 5, 23, 147, 138, 93, 138, 146, 115, 1, 1.97999
143, 3, bw, filler, NA, 999, 999, 5, 23, 147, 138, 93, 138, 146, 115, 2, 0.947409
143, 3, bw, attraction, a-b-db, 2, 3, 5, 24, 195, 120, 119, 193, 120, 195, 2, 3.05142
143, 3, bw, attraction, a-b-db, 2, 3, 5, 24, 195, 120, 119, 193, 120, 195, 1, 1.39144
143, 3, bw, attraction, a-b-da, 9, 1, 5, 25, 60, 135, 129, 57, 135, 60, 1, 2.6049
143, 3, bw, attraction, a-b-da, 9, 1, 5, 25, 60, 135, 129, 57, 135, 60, 2, 1.89939
143, 3, bw, attraction, a-b-da, 9, 3, 5, 26, 186, 114, 195, 120, 120, 195, 3, 1.91674
143, 3, bw, attraction, a-b-da, 9, 3, 5, 26, 186, 114, 195, 120, 120, 195, 1, 0.886715
143, 3, bw, attraction, a-b-da, 14, 2, 5, 27, 153, 83, 90, 165, 165, 90, 2, 3.31301
143, 3, bw, attraction, a-b-da, 14, 2, 5, 27, 153, 83, 90, 165, 165, 90, 1, 1.02665
143, 3, bw, attraction, a-b-db, 14, 1, 5, 28, 135, 60, 56, 125, 60, 135, 1, 2.93501
143, 3, bw, attraction, a-b-db, 14, 1, 5, 28, 135, 60, 56, 125, 60, 135, 2, 1.89601
143, 3, bw, filler, NA, 999, 999, 5, 29, 189, 160, 145, 178, 114, 186, 1, 1.22545
143, 3, bw, filler, NA, 999, 999, 5, 29, 189, 160, 145, 178, 114, 186, 3, 0.791009
143, 3, bw, attraction, a-b-db, 14, 2, 5, 30, 83, 153, 90, 165, 165, 90, 2, 2.43674
143, 3, bw, attraction, a-b-db, 14, 2, 5, 30, 83, 153, 90, 165, 165, 90, 1, 1.49799
143, 3, bw, filler, NA, 999, 999, 5, 31, 149, 96, 130, 179, 97, 164, 2, 1.21932
143, 3, bw, filler, NA, 999, 999, 5, 31, 149, 96, 130, 179, 97, 164, 1, 1.02549
143, 3, bw, filler, NA, 999, 999, 5, 32, 136, 67, 168, 105, 102, 120, 2, 2.20599
143, 3, bw, filler, NA, 999, 999, 5, 32, 136, 67, 168, 105, 102, 120, 1, 0.787831
143, 3, bw, attraction, a-b-da, 5, 2, 5, 33, 90, 165, 165, 90, 161, 88, 1, 3.23409
143, 3, bw, attraction, a-b-da, 5, 2, 5, 33, 90, 165, 165, 90, 161, 88, 2, 1.82323
143, 3, bw, catch, NA, 999, 999, 5, 34, 132, 63, 134, 121, 195, 120, 3, 1.47592
143, 3, bw, catch, NA, 999, 999, 5, 34, 132, 63, 134, 121, 195, 120, 1, 0.807432
143, 3, bw, attraction, a-b-db, 9, 1, 5, 35, 60, 135, 57, 129, 135, 60, 1, 3.05249
143, 3, bw, attraction, a-b-db, 9, 1, 5, 35, 60, 135, 57, 129, 135, 60, 2, 1.44087
143, 3, bw, attraction, a-b-da, 9, 2, 5, 36, 90, 165, 165, 90, 157, 86, 1, 2.57229
143, 3, bw, attraction, a-b-da, 9, 2, 5, 36, 90, 165, 165, 90, 157, 86, 2, 1.13936
143, 3, bw, attraction, a-b-db, 9, 2, 5, 37, 90, 165, 165, 90, 86, 157, 1, 2.78767
143, 3, bw, attraction, a-b-db, 9, 2, 5, 37, 90, 165, 165, 90, 86, 157, 3, 1.17075
143, 3, bw, attraction, a-b-da, 5, 3, 6, 1, 195, 120, 120, 195, 190, 117, 2, 2.05779
143, 3, bw, attraction, a-b-da, 5, 3, 6, 1, 195, 120, 120, 195, 190, 117, 1, 2.01362
143, 3, bw, filler, NA, 999, 999, 6, 2, 89, 146, 77, 88, 133, 171, 3, 1.29023
143, 3, bw, filler, NA, 999, 999, 6, 2, 89, 146, 77, 88, 133, 171, 2, 0.893159
143, 3, bw, filler, NA, 999, 999, 6, 3, 186, 168, 86, 72, 60, 128, 1, 1.10282
143, 3, bw, filler, NA, 999, 999, 6, 3, 186, 168, 86, 72, 60, 128, 2, 0.977866
143, 3, bw, attraction, a-b-db, 5, 1, 6, 4, 60, 135, 135, 60, 58, 132, 2, 2.64824
143, 3, bw, attraction, a-b-db, 5, 1, 6, 4, 60, 135, 135, 60, 58, 132, 3, 0.828585
143, 3, bw, filler, NA, 999, 999, 6, 5, 63, 93, 87, 142, 158, 137, 3, 0.984963
143, 3, bw, filler, NA, 999, 999, 6, 5, 63, 93, 87, 142, 158, 137, 1, 1.44862
143, 3, bw, filler, NA, 999, 999, 6, 6, 122, 57, 111, 83, 194, 191, 3, 1.80406
143, 3, bw, filler, NA, 999, 999, 6, 6, 122, 57, 111, 83, 194, 191, 1, 1.23489
143, 3, bw, attraction, a-b-da, 9, 2, 6, 7, 165, 90, 157, 86, 90, 165, 3, 2.59115
143, 3, bw, attraction, a-b-da, 9, 2, 6, 7, 165, 90, 157, 86, 90, 165, 2, 1.61373
143, 3, bw, attraction, a-b-db, 14, 2, 6, 8, 83, 153, 165, 90, 90, 165, 3, 1.61045
143, 3, bw, attraction, a-b-db, 14, 2, 6, 8, 83, 153, 165, 90, 90, 165, 1, 3.48849
143, 3, bw, filler, NA, 999, 999, 6, 9, 136, 88, 159, 95, 195, 151, 3, 0.977929
143, 3, bw, filler, NA, 999, 999, 6, 9, 136, 88, 159, 95, 195, 151, 1, 0.921634
143, 3, bw, attraction, a-b-db, 9, 2, 6, 10, 165, 90, 86, 157, 90, 165, 3, 2.77078
143, 3, bw, attraction, a-b-db, 9, 2, 6, 10, 165, 90, 86, 157, 90, 165, 1, 1.36251
143, 3, bw, attraction, a-b-da, 14, 2, 6, 11, 90, 165, 165, 90, 153, 83, 1, 2.04942
143, 3, bw, attraction, a-b-da, 14, 2, 6, 11, 90, 165, 165, 90, 153, 83, 3, 0.813892
143, 3, bw, attraction, a-b-da, 9, 3, 6, 12, 186, 114, 120, 195, 195, 120, 2, 1.41902
143, 3, bw, attraction, a-b-da, 9, 3, 6, 12, 186, 114, 120, 195, 195, 120, 1, 0.841129
143, 3, bw, attraction, a-b-da, 5, 2, 6, 13, 90, 165, 165, 90, 161, 88, 1, 2.98095
143, 3, bw, attraction, a-b-da, 5, 2, 6, 13, 90, 165, 165, 90, 161, 88, 2, 1.00391
143, 3, bw, attraction, a-b-db, 2, 3, 6, 14, 195, 120, 120, 195, 119, 193, 2, 2.52162
143, 3, bw, attraction, a-b-db, 2, 3, 6, 14, 195, 120, 120, 195, 119, 193, 1, 0.867332
143, 3, bw, attraction, a-b-da, 14, 3, 6, 15, 195, 120, 181, 111, 120, 195, 3, 2.95872
143, 3, bw, attraction, a-b-da, 14, 3, 6, 15, 195, 120, 181, 111, 120, 195, 2, 2.16608
143, 3, bw, filler, NA, 999, 999, 6, 16, 80, 82, 137, 80, 91, 141, 3, 1.38087
143, 3, bw, filler, NA, 999, 999, 6, 16, 80, 82, 137, 80, 91, 141, 1, 0.724245
143, 3, bw, filler, NA, 999, 999, 6, 17, 169, 150, 121, 59, 59, 150, 1, 1.18054
143, 3, bw, filler, NA, 999, 999, 6, 17, 169, 150, 121, 59, 59, 150, 2, 1.00419
143, 3, bw, attraction, a-b-da, 5, 1, 6, 18, 60, 135, 135, 60, 132, 58, 1, 3.80983
143, 3, bw, attraction, a-b-da, 5, 1, 6, 18, 60, 135, 135, 60, 132, 58, 2, 2.09532
143, 3, bw, attraction, a-b-db, 5, 3, 6, 19, 120, 195, 195, 120, 117, 190, 1, 3.58467
143, 3, bw, attraction, a-b-db, 5, 3, 6, 19, 120, 195, 195, 120, 117, 190, 2, 1.01553
143, 3, bw, attraction, a-b-db, 9, 1, 6, 20, 135, 60, 57, 129, 60, 135, 1, 3.28449
143, 3, bw, attraction, a-b-db, 9, 1, 6, 20, 135, 60, 57, 129, 60, 135, 2, 1.17531
143, 3, bw, attraction, a-b-da, 14, 1, 6, 21, 135, 60, 60, 135, 125, 56, 1, 2.15757
143, 3, bw, attraction, a-b-da, 14, 1, 6, 21, 135, 60, 60, 135, 125, 56, 2, 0.701665
143, 3, bw, attraction, a-b-db, 14, 3, 6, 22, 111, 181, 120, 195, 195, 120, 2, 2.63128
143, 3, bw, attraction, a-b-db, 14, 3, 6, 22, 111, 181, 120, 195, 195, 120, 1, 0.708383
143, 3, bw, filler, NA, 999, 999, 6, 23, 105, 171, 90, 167, 61, 69, 1, 1.27762
143, 3, bw, filler, NA, 999, 999, 6, 23, 105, 171, 90, 167, 61, 69, 3, 1.17706
143, 3, bw, catch, NA, 999, 999, 6, 24, 131, 124, 162, 153, 73, 122, 2, 1.36738
143, 3, bw, catch, NA, 999, 999, 6, 24, 131, 124, 162, 153, 73, 122, 3, 0.831481
143, 3, bw, catch, NA, 999, 999, 6, 25, 161, 94, 162, 153, 79, 116, 2, 1.33188
143, 3, bw, catch, NA, 999, 999, 6, 25, 161, 94, 162, 153, 79, 116, 3, 0.613353
143, 3, bw, attraction, a-b-db, 2, 1, 6, 26, 135, 60, 59, 134, 60, 135, 1, 1.98648
143, 3, bw, attraction, a-b-db, 2, 1, 6, 26, 135, 60, 59, 134, 60, 135, 3, 1.8498
143, 3, bw, attraction, a-b-db, 2, 2, 6, 27, 165, 90, 90, 165, 89, 163, 2, 2.66924
143, 3, bw, attraction, a-b-db, 2, 2, 6, 27, 165, 90, 90, 165, 89, 163, 1, 2.56096
143, 3, bw, catch, NA, 999, 999, 6, 28, 144, 171, 80, 115, 161, 94, 1, 1.69552
143, 3, bw, catch, NA, 999, 999, 6, 28, 144, 171, 80, 115, 161, 94, 2, 1.13036
143, 3, bw, filler, NA, 999, 999, 6, 29, 111, 132, 187, 99, 156, 67, 2, 1.81042
143, 3, bw, filler, NA, 999, 999, 6, 29, 111, 132, 187, 99, 156, 67, 3, 0.624779
143, 3, bw, attraction, a-b-da, 9, 1, 6, 30, 129, 57, 60, 135, 135, 60, 3, 2.96509
143, 3, bw, attraction, a-b-da, 9, 1, 6, 30, 129, 57, 60, 135, 135, 60, 1, 0.852785
143, 3, bw, attraction, a-b-db, 14, 1, 6, 31, 56, 125, 135, 60, 60, 135, 2, 2.18448
143, 3, bw, attraction, a-b-db, 14, 1, 6, 31, 56, 125, 135, 60, 60, 135, 1, 1.12767
143, 3, bw, attraction, a-b-da, 2, 2, 6, 32, 163, 89, 165, 90, 90, 165, 3, 2.68794
143, 3, bw, attraction, a-b-da, 2, 2, 6, 32, 163, 89, 165, 90, 90, 165, 2, 1.011
143, 3, bw, filler, NA, 999, 999, 6, 33, 161, 187, 67, 119, 148, 119, 1, 1.04822
143, 3, bw, filler, NA, 999, 999, 6, 33, 161, 187, 67, 119, 148, 119, 2, 0.732945
143, 3, bw, attraction, a-b-db, 5, 2, 6, 34, 165, 90, 90, 165, 88, 161, 2, 2.8454
143, 3, bw, attraction, a-b-db, 5, 2, 6, 34, 165, 90, 90, 165, 88, 161, 1, 0.985841
143, 3, bw, attraction, a-b-da, 2, 1, 6, 35, 60, 135, 135, 60, 134, 59, 3, 3.85625
143, 3, bw, attraction, a-b-da, 2, 1, 6, 35, 60, 135, 135, 60, 134, 59, 1, 0.811658
143, 3, bw, attraction, a-b-db, 9, 3, 6, 36, 195, 120, 120, 195, 114, 186, 3, 2.36851
143, 3, bw, attraction, a-b-db, 9, 3, 6, 36, 195, 120, 120, 195, 114, 186, 1, 1.17642
143, 3, bw, attraction, a-b-da, 2, 3, 6, 37, 193, 119, 195, 120, 120, 195, 1, 4.20681
143, 3, bw, attraction, a-b-da, 2, 3, 6, 37, 193, 119, 195, 120, 120, 195, 2, 2.14003
143, 3, bw, filler, NA, 999, 999, 7, 1, 175, 103, 122, 122, 193, 178, 3, 1.00397
143, 3, bw, filler, NA, 999, 999, 7, 1, 175, 103, 122, 122, 193, 178, 2, 0.86695
143, 3, bw, attraction, a-b-db, 9, 3, 7, 2, 114, 186, 195, 120, 120, 195, 3, 3.51794
143, 3, bw, attraction, a-b-db, 9, 3, 7, 2, 114, 186, 195, 120, 120, 195, 1, 0.623514
143, 3, bw, attraction, a-b-db, 5, 1, 7, 3, 135, 60, 58, 132, 60, 135, 1, 2.004
143, 3, bw, attraction, a-b-db, 5, 1, 7, 3, 135, 60, 58, 132, 60, 135, 2, 1.79464
143, 3, bw, attraction, a-b-da, 14, 2, 7, 4, 153, 83, 165, 90, 90, 165, 3, 4.28001
143, 3, bw, attraction, a-b-da, 14, 2, 7, 4, 153, 83, 165, 90, 90, 165, 1, 0.906619
143, 3, bw, attraction, a-b-da, 5, 2, 7, 5, 90, 165, 161, 88, 165, 90, 1, 2.05961
143, 3, bw, attraction, a-b-da, 5, 2, 7, 5, 90, 165, 161, 88, 165, 90, 3, 1.74364
143, 3, bw, attraction, a-b-da, 2, 3, 7, 6, 193, 119, 120, 195, 195, 120, 2, 1.77499
143, 3, bw, attraction, a-b-da, 2, 3, 7, 6, 193, 119, 120, 195, 195, 120, 1, 3.69446
143, 3, bw, filler, NA, 999, 999, 7, 7, 126, 165, 82, 58, 60, 115, 1, 1.07926
143, 3, bw, filler, NA, 999, 999, 7, 7, 126, 165, 82, 58, 60, 115, 2, 0.690945
143, 3, bw, attraction, a-b-db, 5, 2, 7, 8, 90, 165, 165, 90, 88, 161, 2, 1.45254
143, 3, bw, attraction, a-b-db, 5, 2, 7, 8, 90, 165, 165, 90, 88, 161, 1, 1.49734
143, 3, bw, attraction, a-b-da, 9, 1, 7, 9, 60, 135, 129, 57, 135, 60, 2, 1.07479
143, 3, bw, attraction, a-b-da, 9, 1, 7, 9, 60, 135, 129, 57, 135, 60, 1, 1.36647
143, 3, bw, attraction, a-b-da, 5, 3, 7, 10, 120, 195, 190, 117, 195, 120, 3, 3.82135
143, 3, bw, attraction, a-b-da, 5, 3, 7, 10, 120, 195, 190, 117, 195, 120, 2, 1.37089
143, 3, bw, filler, NA, 999, 999, 7, 11, 158, 58, 83, 56, 107, 105, 3, 1.36965
143, 3, bw, filler, NA, 999, 999, 7, 11, 158, 58, 83, 56, 107, 105, 2, 1.82596
143, 3, bw, attraction, a-b-db, 2, 1, 7, 12, 59, 134, 135, 60, 60, 135, 2, 2.50996
143, 3, bw, attraction, a-b-db, 2, 1, 7, 12, 59, 134, 135, 60, 60, 135, 1, 1.95171
143, 3, bw, catch, NA, 999, 999, 7, 13, 186, 129, 88, 107, 120, 135, 1, 0.951193
143, 3, bw, catch, NA, 999, 999, 7, 13, 186, 129, 88, 107, 120, 135, 2, 0.936108
143, 3, bw, attraction, a-b-da, 2, 2, 7, 14, 165, 90, 163, 89, 90, 165, 3, 1.77646
143, 3, bw, attraction, a-b-da, 2, 2, 7, 14, 165, 90, 163, 89, 90, 165, 1, 1.23978
143, 3, bw, attraction, a-b-db, 14, 1, 7, 15, 135, 60, 56, 125, 60, 135, 1, 1.66011
143, 3, bw, attraction, a-b-db, 14, 1, 7, 15, 135, 60, 56, 125, 60, 135, 2, 0.864312
143, 3, bw, attraction, a-b-da, 2, 1, 7, 16, 134, 59, 135, 60, 60, 135, 3, 2.8912
143, 3, bw, attraction, a-b-da, 2, 1, 7, 16, 134, 59, 135, 60, 60, 135, 1, 1.57358
143, 3, bw, catch, NA, 999, 999, 7, 17, 132, 123, 104, 91, 158, 157, 3, 0.923678
143, 3, bw, catch, NA, 999, 999, 7, 17, 132, 123, 104, 91, 158, 157, 2, 0.941422
143, 3, bw, filler, NA, 999, 999, 7, 18, 116, 95, 107, 156, 79, 85, 2, 1.70913
143, 3, bw, filler, NA, 999, 999, 7, 18, 116, 95, 107, 156, 79, 85, 3, 0.96715
143, 3, bw, attraction, a-b-db, 9, 2, 7, 19, 165, 90, 86, 157, 90, 165, 3, 2.95021
143, 3, bw, attraction, a-b-db, 9, 2, 7, 19, 165, 90, 86, 157, 90, 165, 2, 0.846431
143, 3, bw, catch, NA, 999, 999, 7, 20, 139, 116, 170, 145, 114, 81, 2, 1.11424
143, 3, bw, catch, NA, 999, 999, 7, 20, 139, 116, 170, 145, 114, 81, 3, 0.684562
143, 3, bw, attraction, a-b-da, 9, 3, 7, 21, 186, 114, 120, 195, 195, 120, 2, 3.19091
143, 3, bw, attraction, a-b-da, 9, 3, 7, 21, 186, 114, 120, 195, 195, 120, 1, 0.805144
143, 3, bw, filler, NA, 999, 999, 7, 22, 175, 149, 83, 133, 67, 194, 1, 1.2589
143, 3, bw, filler, NA, 999, 999, 7, 22, 175, 149, 83, 133, 67, 194, 2, 0.839055
143, 3, bw, attraction, a-b-db, 5, 3, 7, 23, 195, 120, 117, 190, 120, 195, 3, 2.00345
143, 3, bw, attraction, a-b-db, 5, 3, 7, 23, 195, 120, 117, 190, 120, 195, 1, 1.34614
143, 3, bw, attraction, a-b-db, 14, 2, 7, 24, 83, 153, 90, 165, 165, 90, 3, 1.09764
143, 3, bw, attraction, a-b-db, 14, 2, 7, 24, 83, 153, 90, 165, 165, 90, 1, 2.06866
143, 3, bw, attraction, a-b-db, 2, 3, 7, 25, 195, 120, 120, 195, 119, 193, 2, 2.51124
143, 3, bw, attraction, a-b-db, 2, 3, 7, 25, 195, 120, 120, 195, 119, 193, 1, 1.48917
143, 3, bw, attraction, a-b-da, 9, 2, 7, 26, 165, 90, 157, 86, 90, 165, 3, 3.21136
143, 3, bw, attraction, a-b-da, 9, 2, 7, 26, 165, 90, 157, 86, 90, 165, 2, 1.45698
143, 3, bw, attraction, a-b-db, 9, 1, 7, 27, 57, 129, 135, 60, 60, 135, 3, 4.99565
143, 3, bw, attraction, a-b-db, 9, 1, 7, 27, 57, 129, 135, 60, 60, 135, 1, 0.545469
143, 3, bw, filler, NA, 999, 999, 7, 28, 75, 185, 135, 178, 164, 57, 2, 1.4972
143, 3, bw, filler, NA, 999, 999, 7, 28, 75, 185, 135, 178, 164, 57, 3, 1.54002
143, 3, bw, attraction, a-b-da, 14, 3, 7, 29, 195, 120, 181, 111, 120, 195, 3, 1.8041
143, 3, bw, attraction, a-b-da, 14, 3, 7, 29, 195, 120, 181, 111, 120, 195, 2, 0.874958
143, 3, bw, filler, NA, 999, 999, 7, 30, 72, 166, 141, 103, 71, 58, 2, 1.5573
143, 3, bw, filler, NA, 999, 999, 7, 30, 72, 166, 141, 103, 71, 58, 3, 0.645442
143, 3, bw, attraction, a-b-db, 14, 3, 7, 31, 111, 181, 120, 195, 195, 120, 3, 3.00921
143, 3, bw, attraction, a-b-db, 14, 3, 7, 31, 111, 181, 120, 195, 195, 120, 1, 0.622878
143, 3, bw, filler, NA, 999, 999, 7, 32, 75, 166, 161, 124, 118, 104, 2, 1.476
143, 3, bw, filler, NA, 999, 999, 7, 32, 75, 166, 161, 124, 118, 104, 3, 0.751534
143, 3, bw, attraction, a-b-db, 2, 2, 7, 33, 165, 90, 89, 163, 90, 165, 1, 3.17521
143, 3, bw, attraction, a-b-db, 2, 2, 7, 33, 165, 90, 89, 163, 90, 165, 3, 0.886299
143, 3, bw, filler, NA, 999, 999, 7, 34, 56, 177, 173, 187, 164, 88, 2, 0.86451
143, 3, bw, filler, NA, 999, 999, 7, 34, 56, 177, 173, 187, 164, 88, 1, 0.676882
143, 3, bw, attraction, a-b-da, 14, 1, 7, 35, 135, 60, 125, 56, 60, 135, 2, 3.29534
143, 3, bw, attraction, a-b-da, 14, 1, 7, 35, 135, 60, 125, 56, 60, 135, 3, 2.75365
143, 3, bw, attraction, a-b-da, 5, 1, 7, 36, 60, 135, 132, 58, 135, 60, 2, 1.84865
143, 3, bw, attraction, a-b-da, 5, 1, 7, 36, 60, 135, 132, 58, 135, 60, 3, 0.949316
143, 3, bw, filler, NA, 999, 999, 7, 37, 87, 96, 128, 57, 129, 171, 3, 0.964969
143, 3, bw, filler, NA, 999, 999, 7, 37, 87, 96, 128, 57, 129, 171, 2, 2.39738
143, 3, bw, attraction, a-b-db, 5, 1, 8, 1, 60, 135, 135, 60, 58, 132, 2, 2.77048
143, 3, bw, attraction, a-b-db, 5, 1, 8, 1, 60, 135, 135, 60, 58, 132, 3, 1.07428
143, 3, bw, attraction, a-b-db, 9, 2, 8, 2, 86, 157, 90, 165, 165, 90, 2, 2.18061
143, 3, bw, attraction, a-b-db, 9, 2, 8, 2, 86, 157, 90, 165, 165, 90, 1, 0.803896
143, 3, bw, attraction, a-b-db, 5, 2, 8, 3, 88, 161, 165, 90, 90, 165, 3, 2.52173
143, 3, bw, attraction, a-b-db, 5, 2, 8, 3, 88, 161, 165, 90, 90, 165, 2, 0.730813
143, 3, bw, filler, NA, 999, 999, 8, 4, 172, 171, 71, 98, 125, 195, 1, 1.14709
143, 3, bw, filler, NA, 999, 999, 8, 4, 172, 171, 71, 98, 125, 195, 2, 0.492084
143, 3, bw, attraction, a-b-da, 5, 2, 8, 5, 90, 165, 165, 90, 161, 88, 2, 3.27779
143, 3, bw, attraction, a-b-da, 5, 2, 8, 5, 90, 165, 165, 90, 161, 88, 3, 0.808908
143, 3, bw, attraction, a-b-db, 9, 1, 8, 6, 57, 129, 135, 60, 60, 135, 2, 2.02184
143, 3, bw, attraction, a-b-db, 9, 1, 8, 6, 57, 129, 135, 60, 60, 135, 1, 1.42712
143, 3, bw, attraction, a-b-db, 2, 3, 8, 7, 119, 193, 195, 120, 120, 195, 1, 3.8313
143, 3, bw, attraction, a-b-db, 2, 3, 8, 7, 119, 193, 195, 120, 120, 195, 2, 1.1642
143, 3, bw, filler, NA, 999, 999, 8, 8, 165, 157, 178, 155, 195, 61, 2, 1.67493
143, 3, bw, filler, NA, 999, 999, 8, 8, 165, 157, 178, 155, 195, 61, 3, 0.758443
143, 3, bw, filler, NA, 999, 999, 8, 9, 129, 106, 182, 93, 176, 111, 3, 1.29356
143, 3, bw, filler, NA, 999, 999, 8, 9, 129, 106, 182, 93, 176, 111, 1, 0.568305
143, 3, bw, attraction, a-b-da, 5, 3, 8, 10, 190, 117, 195, 120, 120, 195, 3, 2.41549
143, 3, bw, attraction, a-b-da, 5, 3, 8, 10, 190, 117, 195, 120, 120, 195, 1, 0.941343
143, 3, bw, attraction, a-b-db, 9, 3, 8, 11, 120, 195, 195, 120, 114, 186, 2, 2.01299
143, 3, bw, attraction, a-b-db, 9, 3, 8, 11, 120, 195, 195, 120, 114, 186, 3, 0.611061
143, 3, bw, filler, NA, 999, 999, 8, 12, 127, 158, 160, 132, 107, 161, 2, 1.83207
143, 3, bw, filler, NA, 999, 999, 8, 12, 127, 158, 160, 132, 107, 161, 3, 0.613571
143, 3, bw, attraction, a-b-da, 14, 2, 8, 13, 90, 165, 153, 83, 165, 90, 1, 1.71469
143, 3, bw, attraction, a-b-da, 14, 2, 8, 13, 90, 165, 153, 83, 165, 90, 2, 1.09274
143, 3, bw, attraction, a-b-da, 14, 1, 8, 14, 135, 60, 60, 135, 125, 56, 2, 2.34223
143, 3, bw, attraction, a-b-da, 14, 1, 8, 14, 135, 60, 60, 135, 125, 56, 3, 1.02283
143, 3, bw, filler, NA, 999, 999, 8, 15, 162, 104, 153, 84, 92, 150, 1, 1.23573
143, 3, bw, filler, NA, 999, 999, 8, 15, 162, 104, 153, 84, 92, 150, 3, 0.721506
143, 3, bw, attraction, a-b-db, 2, 1, 8, 16, 135, 60, 60, 135, 59, 134, 1, 2.37046
143, 3, bw, attraction, a-b-db, 2, 1, 8, 16, 135, 60, 60, 135, 59, 134, 3, 0.882385
143, 3, bw, filler, NA, 999, 999, 8, 17, 103, 110, 116, 100, 76, 152, 3, 2.6927
143, 3, bw, filler, NA, 999, 999, 8, 17, 103, 110, 116, 100, 76, 152, 1, 1.23119
143, 3, bw, attraction, a-b-db, 14, 3, 8, 18, 195, 120, 111, 181, 120, 195, 3, 1.93941
143, 3, bw, attraction, a-b-db, 14, 3, 8, 18, 195, 120, 111, 181, 120, 195, 2, 1.78825
143, 3, bw, filler, NA, 999, 999, 8, 19, 64, 163, 181, 190, 165, 148, 2, 0.906164
143, 3, bw, filler, NA, 999, 999, 8, 19, 64, 163, 181, 190, 165, 148, 1, 0.500592
143, 3, bw, filler, NA, 999, 999, 8, 20, 71, 148, 62, 77, 191, 131, 3, 0.982194
143, 3, bw, filler, NA, 999, 999, 8, 20, 71, 148, 62, 77, 191, 131, 2, 0.645899
143, 3, bw, attraction, a-b-da, 2, 3, 8, 21, 195, 120, 120, 195, 193, 119, 2, 1.51382
143, 3, bw, attraction, a-b-da, 2, 3, 8, 21, 195, 120, 120, 195, 193, 119, 3, 0.923884
143, 3, bw, catch, NA, 999, 999, 8, 22, 123, 192, 98, 157, 134, 61, 1, 0.948304
143, 3, bw, catch, NA, 999, 999, 8, 22, 123, 192, 98, 157, 134, 61, 3, 1.42119
143, 3, bw, filler, NA, 999, 999, 8, 23, 59, 170, 164, 102, 143, 71, 2, 1.28213
143, 3, bw, filler, NA, 999, 999, 8, 23, 59, 170, 164, 102, 143, 71, 3, 0.741514
143, 3, bw, attraction, a-b-da, 2, 2, 8, 24, 90, 165, 163, 89, 165, 90, 1, 1.66925
143, 3, bw, attraction, a-b-da, 2, 2, 8, 24, 90, 165, 163, 89, 165, 90, 2, 1.90546
143, 3, bw, attraction, a-b-da, 9, 2, 8, 25, 157, 86, 90, 165, 165, 90, 2, 1.48299
143, 3, bw, attraction, a-b-da, 9, 2, 8, 25, 157, 86, 90, 165, 165, 90, 1, 0.798287
143, 3, bw, attraction, a-b-da, 9, 3, 8, 26, 186, 114, 195, 120, 120, 195, 3, 1.25204
143, 3, bw, attraction, a-b-da, 9, 3, 8, 26, 186, 114, 195, 120, 120, 195, 1, 1.00088
143, 3, bw, filler, NA, 999, 999, 8, 27, 177, 78, 82, 116, 91, 75, 1, 0.966611
143, 3, bw, filler, NA, 999, 999, 8, 27, 177, 78, 82, 116, 91, 75, 3, 0.766851
143, 3, bw, attraction, a-b-db, 2, 2, 8, 28, 165, 90, 90, 165, 89, 163, 2, 2.5739
143, 3, bw, attraction, a-b-db, 2, 2, 8, 28, 165, 90, 90, 165, 89, 163, 1, 1.13305
143, 3, bw, catch, NA, 999, 999, 8, 29, 145, 110, 99, 96, 176, 139, 3, 0.957233
143, 3, bw, catch, NA, 999, 999, 8, 29, 145, 110, 99, 96, 176, 139, 2, 0.573676
143, 3, bw, attraction, a-b-db, 5, 3, 8, 30, 117, 190, 195, 120, 120, 195, 3, 1.66808
143, 3, bw, attraction, a-b-db, 5, 3, 8, 30, 117, 190, 195, 120, 120, 195, 2, 1.75227
143, 3, bw, attraction, a-b-da, 5, 1, 8, 31, 60, 135, 135, 60, 132, 58, 1, 2.43157
143, 3, bw, attraction, a-b-da, 5, 1, 8, 31, 60, 135, 135, 60, 132, 58, 2, 0.604817
143, 3, bw, attraction, a-b-da, 14, 3, 8, 32, 120, 195, 181, 111, 195, 120, 1, 1.15452
143, 3, bw, attraction, a-b-da, 14, 3, 8, 32, 120, 195, 181, 111, 195, 120, 2, 1.44352
143, 3, bw, attraction, a-b-da, 9, 1, 8, 33, 60, 135, 135, 60, 129, 57, 2, 1.07902
143, 3, bw, attraction, a-b-da, 9, 1, 8, 33, 60, 135, 135, 60, 129, 57, 3, 0.618751
143, 3, bw, catch, NA, 999, 999, 8, 34, 99, 156, 135, 60, 149, 166, 3, 1.05575
143, 3, bw, catch, NA, 999, 999, 8, 34, 99, 156, 135, 60, 149, 166, 2, 0.484047
143, 3, bw, attraction, a-b-da, 2, 1, 8, 35, 134, 59, 135, 60, 60, 135, 3, 2.5826
143, 3, bw, attraction, a-b-da, 2, 1, 8, 35, 134, 59, 135, 60, 60, 135, 1, 0.813673
143, 3, bw, attraction, a-b-db, 14, 1, 8, 36, 56, 125, 135, 60, 60, 135, 2, 2.57868
143, 3, bw, attraction, a-b-db, 14, 1, 8, 36, 56, 125, 135, 60, 60, 135, 1, 1.03385
143, 3, bw, attraction, a-b-db, 14, 2, 8, 37, 165, 90, 90, 165, 83, 153, 2, 1.68605
143, 3, bw, attraction, a-b-db, 14, 2, 8, 37, 165, 90, 90, 165, 83, 153, 3, 1.34555
