sub_n, computer_n, bw_cond, effect, set, distance, diag, block_n, trial_n, h1, w1, h2, w2, h3, w3, choice, rt 
131, 3, bw, practice, NA, 999, 999, 0, 1, 60, 134, 115, 121, 138, 132, 3, 3.43558
131, 3, bw, practice, NA, 999, 999, 0, 1, 60, 134, 115, 121, 138, 132, 1, 3.16096
131, 3, bw, practice, NA, 999, 999, 0, 2, 163, 101, 59, 195, 142, 133, 3, 5.26159
131, 3, bw, practice, NA, 999, 999, 0, 2, 163, 101, 59, 195, 142, 133, 2, 2.02514
131, 3, bw, practice, NA, 999, 999, 0, 3, 177, 58, 109, 193, 100, 74, 2, 3.12123
131, 3, bw, practice, NA, 999, 999, 0, 3, 177, 58, 109, 193, 100, 74, 3, 1.51466
131, 3, bw, filler, NA, 999, 999, 1, 1, 186, 97, 60, 184, 74, 63, 1, 1.77222
131, 3, bw, filler, NA, 999, 999, 1, 1, 186, 97, 60, 184, 74, 63, 3, 1.4597
131, 3, bw, attraction, a-b-db, 5, 1, 1, 2, 60, 135, 135, 60, 58, 132, 2, 11.2306
131, 3, bw, attraction, a-b-db, 5, 1, 1, 2, 60, 135, 135, 60, 58, 132, 3, 1.32097
131, 3, bw, filler, NA, 999, 999, 1, 3, 157, 141, 157, 187, 185, 103, 2, 1.67382
131, 3, bw, filler, NA, 999, 999, 1, 3, 157, 141, 157, 187, 185, 103, 3, 8.12521
131, 3, bw, attraction, a-b-db, 14, 3, 1, 4, 120, 195, 195, 120, 111, 181, 1, 2.45195
131, 3, bw, attraction, a-b-db, 14, 3, 1, 4, 120, 195, 195, 120, 111, 181, 3, 2.41658
131, 3, bw, attraction, a-b-db, 14, 2, 1, 5, 165, 90, 90, 165, 83, 153, 2, 3.19705
131, 3, bw, attraction, a-b-db, 14, 2, 1, 5, 165, 90, 90, 165, 83, 153, 3, 0.867338
131, 3, bw, attraction, a-b-db, 9, 1, 1, 6, 60, 135, 135, 60, 57, 129, 3, 3.86234
131, 3, bw, attraction, a-b-db, 9, 1, 1, 6, 60, 135, 135, 60, 57, 129, 2, 1.41779
131, 3, bw, filler, NA, 999, 999, 1, 7, 120, 123, 86, 184, 100, 134, 2, 5.87067
131, 3, bw, filler, NA, 999, 999, 1, 7, 120, 123, 86, 184, 100, 134, 3, 1.16941
131, 3, bw, attraction, a-b-da, 14, 3, 1, 8, 181, 111, 120, 195, 195, 120, 2, 2.20049
131, 3, bw, attraction, a-b-da, 14, 3, 1, 8, 181, 111, 120, 195, 195, 120, 1, 1.76703
131, 3, bw, attraction, a-b-db, 2, 3, 1, 9, 195, 120, 120, 195, 119, 193, 2, 6.66973
131, 3, bw, attraction, a-b-db, 2, 3, 1, 9, 195, 120, 120, 195, 119, 193, 1, 2.17095
131, 3, bw, attraction, a-b-da, 9, 3, 1, 10, 186, 114, 195, 120, 120, 195, 3, 3.19877
131, 3, bw, attraction, a-b-da, 9, 3, 1, 10, 186, 114, 195, 120, 120, 195, 2, 2.23718
131, 3, bw, attraction, a-b-da, 2, 3, 1, 11, 195, 120, 120, 195, 193, 119, 2, 2.23306
131, 3, bw, attraction, a-b-da, 2, 3, 1, 11, 195, 120, 120, 195, 193, 119, 1, 2.03048
131, 3, bw, attraction, a-b-da, 9, 1, 1, 12, 135, 60, 60, 135, 129, 57, 2, 5.05031
131, 3, bw, attraction, a-b-da, 9, 1, 1, 12, 135, 60, 60, 135, 129, 57, 3, 0.80608
131, 3, bw, filler, NA, 999, 999, 1, 13, 191, 102, 143, 189, 125, 142, 2, 1.97972
131, 3, bw, filler, NA, 999, 999, 1, 13, 191, 102, 143, 189, 125, 142, 1, 3.35509
131, 3, bw, attraction, a-b-db, 2, 1, 1, 14, 59, 134, 135, 60, 60, 135, 3, 3.754
131, 3, bw, attraction, a-b-db, 2, 1, 1, 14, 59, 134, 135, 60, 60, 135, 2, 0.642143
131, 3, bw, attraction, a-b-da, 5, 2, 1, 15, 165, 90, 90, 165, 161, 88, 2, 2.46991
131, 3, bw, attraction, a-b-da, 5, 2, 1, 15, 165, 90, 90, 165, 161, 88, 1, 2.25772
131, 3, bw, attraction, a-b-db, 14, 1, 1, 16, 60, 135, 56, 125, 135, 60, 1, 4.05229
131, 3, bw, attraction, a-b-db, 14, 1, 1, 16, 60, 135, 56, 125, 135, 60, 3, 1.68842
131, 3, bw, attraction, a-b-db, 9, 3, 1, 17, 120, 195, 114, 186, 195, 120, 1, 3.63441
131, 3, bw, attraction, a-b-db, 9, 3, 1, 17, 120, 195, 114, 186, 195, 120, 3, 0.695343
131, 3, bw, catch, NA, 999, 999, 1, 18, 143, 112, 137, 178, 127, 68, 2, 2.44101
131, 3, bw, catch, NA, 999, 999, 1, 18, 143, 112, 137, 178, 127, 68, 3, 0.877662
131, 3, bw, filler, NA, 999, 999, 1, 19, 101, 137, 64, 154, 181, 92, 1, 10.6079
131, 3, bw, filler, NA, 999, 999, 1, 19, 101, 137, 64, 154, 181, 92, 2, 0.571189
131, 3, bw, filler, NA, 999, 999, 1, 20, 78, 181, 168, 157, 120, 63, 2, 0.906244
131, 3, bw, filler, NA, 999, 999, 1, 20, 78, 181, 168, 157, 120, 63, 3, 0.588614
131, 3, bw, attraction, a-b-da, 2, 2, 1, 21, 165, 90, 163, 89, 90, 165, 3, 3.05114
131, 3, bw, attraction, a-b-da, 2, 2, 1, 21, 165, 90, 163, 89, 90, 165, 2, 0.999375
131, 3, bw, filler, NA, 999, 999, 1, 22, 122, 61, 168, 162, 87, 124, 2, 0.709109
131, 3, bw, filler, NA, 999, 999, 1, 22, 122, 61, 168, 162, 87, 124, 1, 0.767591
131, 3, bw, filler, NA, 999, 999, 1, 23, 76, 122, 61, 77, 100, 87, 1, 3.47846
131, 3, bw, filler, NA, 999, 999, 1, 23, 76, 122, 61, 77, 100, 87, 2, 1.18538
131, 3, bw, filler, NA, 999, 999, 1, 24, 57, 94, 184, 110, 166, 168, 3, 0.839739
131, 3, bw, filler, NA, 999, 999, 1, 24, 57, 94, 184, 110, 166, 168, 1, 1.86066
131, 3, bw, filler, NA, 999, 999, 1, 25, 100, 115, 61, 123, 176, 109, 3, 3.54343
131, 3, bw, filler, NA, 999, 999, 1, 25, 100, 115, 61, 123, 176, 109, 2, 0.503508
131, 3, bw, attraction, a-b-db, 2, 2, 1, 26, 90, 165, 89, 163, 165, 90, 2, 2.48934
131, 3, bw, attraction, a-b-db, 2, 2, 1, 26, 90, 165, 89, 163, 165, 90, 3, 0.411927
131, 3, bw, attraction, a-b-db, 5, 3, 1, 27, 195, 120, 117, 190, 120, 195, 1, 4.86497
131, 3, bw, attraction, a-b-db, 5, 3, 1, 27, 195, 120, 117, 190, 120, 195, 3, 1.65226
131, 3, bw, attraction, a-b-db, 5, 2, 1, 28, 90, 165, 88, 161, 165, 90, 1, 1.49556
131, 3, bw, attraction, a-b-db, 5, 2, 1, 28, 90, 165, 88, 161, 165, 90, 3, 0.938587
131, 3, bw, attraction, a-b-da, 14, 2, 1, 29, 90, 165, 153, 83, 165, 90, 1, 1.99476
131, 3, bw, attraction, a-b-da, 14, 2, 1, 29, 90, 165, 153, 83, 165, 90, 2, 0.505359
131, 3, bw, catch, NA, 999, 999, 1, 30, 97, 98, 194, 121, 137, 118, 2, 1.40324
131, 3, bw, catch, NA, 999, 999, 1, 30, 97, 98, 194, 121, 137, 118, 1, 0.730086
131, 3, bw, attraction, a-b-da, 2, 1, 1, 31, 135, 60, 60, 135, 134, 59, 1, 3.94641
131, 3, bw, attraction, a-b-da, 2, 1, 1, 31, 135, 60, 60, 135, 134, 59, 3, 0.40251
131, 3, bw, attraction, a-b-da, 14, 1, 1, 32, 135, 60, 60, 135, 125, 56, 2, 3.00033
131, 3, bw, attraction, a-b-da, 14, 1, 1, 32, 135, 60, 60, 135, 125, 56, 3, 0.502756
131, 3, bw, attraction, a-b-db, 9, 2, 1, 33, 86, 157, 90, 165, 165, 90, 2, 2.29645
131, 3, bw, attraction, a-b-db, 9, 2, 1, 33, 86, 157, 90, 165, 165, 90, 3, 0.507052
131, 3, bw, attraction, a-b-da, 5, 3, 1, 34, 120, 195, 190, 117, 195, 120, 1, 1.37215
131, 3, bw, attraction, a-b-da, 5, 3, 1, 34, 120, 195, 190, 117, 195, 120, 2, 0.395662
131, 3, bw, attraction, a-b-da, 5, 1, 1, 35, 132, 58, 60, 135, 135, 60, 1, 2.88152
131, 3, bw, attraction, a-b-da, 5, 1, 1, 35, 132, 58, 60, 135, 135, 60, 2, 0.64475
131, 3, bw, catch, NA, 999, 999, 1, 36, 85, 110, 150, 165, 141, 114, 2, 1.00828
131, 3, bw, catch, NA, 999, 999, 1, 36, 85, 110, 150, 165, 141, 114, 1, 0.510677
131, 3, bw, attraction, a-b-da, 9, 2, 1, 37, 157, 86, 90, 165, 165, 90, 2, 2.12788
131, 3, bw, attraction, a-b-da, 9, 2, 1, 37, 157, 86, 90, 165, 165, 90, 3, 2.46516
131, 3, bw, attraction, a-b-db, 14, 3, 2, 1, 120, 195, 111, 181, 195, 120, 1, 1.8437
131, 3, bw, attraction, a-b-db, 14, 3, 2, 1, 120, 195, 111, 181, 195, 120, 3, 0.800319
131, 3, bw, attraction, a-b-db, 9, 1, 2, 2, 57, 129, 135, 60, 60, 135, 3, 2.38208
131, 3, bw, attraction, a-b-db, 9, 1, 2, 2, 57, 129, 135, 60, 60, 135, 2, 0.47718
131, 3, bw, attraction, a-b-db, 2, 3, 2, 3, 195, 120, 120, 195, 119, 193, 2, 2.54363
131, 3, bw, attraction, a-b-db, 2, 3, 2, 3, 195, 120, 120, 195, 119, 193, 1, 1.46428
131, 3, bw, attraction, a-b-db, 9, 2, 2, 4, 165, 90, 86, 157, 90, 165, 2, 2.08298
131, 3, bw, attraction, a-b-db, 9, 2, 2, 4, 165, 90, 86, 157, 90, 165, 1, 0.590302
131, 3, bw, attraction, a-b-db, 5, 1, 2, 5, 135, 60, 58, 132, 60, 135, 1, 2.63628
131, 3, bw, attraction, a-b-db, 5, 1, 2, 5, 135, 60, 58, 132, 60, 135, 3, 0.788211
131, 3, bw, catch, NA, 999, 999, 2, 6, 102, 93, 122, 193, 120, 135, 2, 0.943694
131, 3, bw, catch, NA, 999, 999, 2, 6, 102, 93, 122, 193, 120, 135, 1, 0.504828
131, 3, bw, attraction, a-b-da, 9, 1, 2, 7, 135, 60, 129, 57, 60, 135, 3, 1.92243
131, 3, bw, attraction, a-b-da, 9, 1, 2, 7, 135, 60, 129, 57, 60, 135, 2, 0.499819
131, 3, bw, attraction, a-b-da, 14, 2, 2, 8, 153, 83, 165, 90, 90, 165, 3, 2.05358
131, 3, bw, attraction, a-b-da, 14, 2, 2, 8, 153, 83, 165, 90, 90, 165, 1, 0.586312
131, 3, bw, attraction, a-b-da, 9, 3, 2, 9, 120, 195, 195, 120, 186, 114, 1, 2.19267
131, 3, bw, attraction, a-b-da, 9, 3, 2, 9, 120, 195, 195, 120, 186, 114, 3, 0.559409
131, 3, bw, filler, NA, 999, 999, 2, 10, 169, 192, 123, 101, 94, 77, 1, 0.726365
131, 3, bw, filler, NA, 999, 999, 2, 10, 169, 192, 123, 101, 94, 77, 3, 0.512137
131, 3, bw, attraction, a-b-db, 9, 3, 2, 11, 120, 195, 114, 186, 195, 120, 1, 1.68936
131, 3, bw, attraction, a-b-db, 9, 3, 2, 11, 120, 195, 114, 186, 195, 120, 3, 1.58805
131, 3, bw, catch, NA, 999, 999, 2, 12, 121, 134, 62, 133, 133, 182, 3, 1.39409
131, 3, bw, catch, NA, 999, 999, 2, 12, 121, 134, 62, 133, 133, 182, 2, 0.393003
131, 3, bw, attraction, a-b-db, 14, 2, 2, 13, 165, 90, 90, 165, 83, 153, 2, 2.69485
131, 3, bw, attraction, a-b-db, 14, 2, 2, 13, 165, 90, 90, 165, 83, 153, 3, 0.401225
131, 3, bw, attraction, a-b-da, 14, 3, 2, 14, 181, 111, 120, 195, 195, 120, 2, 1.60713
131, 3, bw, attraction, a-b-da, 14, 3, 2, 14, 181, 111, 120, 195, 195, 120, 1, 0.437471
131, 3, bw, attraction, a-b-db, 2, 1, 2, 15, 60, 135, 59, 134, 135, 60, 1, 1.81786
131, 3, bw, attraction, a-b-db, 2, 1, 2, 15, 60, 135, 59, 134, 135, 60, 3, 0.600007
131, 3, bw, filler, NA, 999, 999, 2, 16, 111, 178, 67, 69, 184, 183, 3, 0.589617
131, 3, bw, filler, NA, 999, 999, 2, 16, 111, 178, 67, 69, 184, 183, 2, 0.532616
131, 3, bw, attraction, a-b-da, 2, 2, 2, 17, 165, 90, 90, 165, 163, 89, 2, 3.07719
131, 3, bw, attraction, a-b-da, 2, 2, 2, 17, 165, 90, 90, 165, 163, 89, 1, 0.760216
131, 3, bw, filler, NA, 999, 999, 2, 18, 72, 86, 149, 89, 164, 56, 2, 1.80723
131, 3, bw, filler, NA, 999, 999, 2, 18, 72, 86, 149, 89, 164, 56, 1, 0.565299
131, 3, bw, filler, NA, 999, 999, 2, 19, 153, 164, 160, 98, 56, 118, 1, 0.940285
131, 3, bw, filler, NA, 999, 999, 2, 19, 153, 164, 160, 98, 56, 118, 3, 0.501312
131, 3, bw, filler, NA, 999, 999, 2, 20, 168, 179, 107, 118, 59, 122, 1, 0.695046
131, 3, bw, filler, NA, 999, 999, 2, 20, 168, 179, 107, 118, 59, 122, 3, 0.402184
131, 3, bw, filler, NA, 999, 999, 2, 21, 70, 78, 177, 108, 135, 176, 3, 0.608145
131, 3, bw, filler, NA, 999, 999, 2, 21, 70, 78, 177, 108, 135, 176, 1, 0.630414
131, 3, bw, attraction, a-b-da, 14, 1, 2, 22, 60, 135, 135, 60, 125, 56, 1, 2.58689
131, 3, bw, attraction, a-b-da, 14, 1, 2, 22, 60, 135, 135, 60, 125, 56, 2, 0.730254
131, 3, bw, attraction, a-b-da, 2, 1, 2, 23, 134, 59, 60, 135, 135, 60, 3, 1.42644
131, 3, bw, attraction, a-b-da, 2, 1, 2, 23, 134, 59, 60, 135, 135, 60, 2, 0.440002
131, 3, bw, filler, NA, 999, 999, 2, 24, 129, 158, 67, 70, 143, 103, 1, 1.07589
131, 3, bw, filler, NA, 999, 999, 2, 24, 129, 158, 67, 70, 143, 103, 2, 0.583517
131, 3, bw, attraction, a-b-da, 5, 2, 2, 25, 165, 90, 161, 88, 90, 165, 3, 1.34188
131, 3, bw, attraction, a-b-da, 5, 2, 2, 25, 165, 90, 161, 88, 90, 165, 1, 0.510767
131, 3, bw, attraction, a-b-db, 2, 2, 2, 26, 89, 163, 90, 165, 165, 90, 2, 2.31991
131, 3, bw, attraction, a-b-db, 2, 2, 2, 26, 89, 163, 90, 165, 165, 90, 3, 0.401774
131, 3, bw, attraction, a-b-da, 2, 3, 2, 27, 193, 119, 195, 120, 120, 195, 3, 1.76759
131, 3, bw, attraction, a-b-da, 2, 3, 2, 27, 193, 119, 195, 120, 120, 195, 2, 0.367656
131, 3, bw, filler, NA, 999, 999, 2, 28, 81, 185, 140, 123, 78, 117, 2, 1.75081
131, 3, bw, filler, NA, 999, 999, 2, 28, 81, 185, 140, 123, 78, 117, 3, 0.471604
131, 3, bw, attraction, a-b-da, 5, 3, 2, 29, 190, 117, 195, 120, 120, 195, 3, 1.65872
131, 3, bw, attraction, a-b-da, 5, 3, 2, 29, 190, 117, 195, 120, 120, 195, 2, 0.350837
131, 3, bw, catch, NA, 999, 999, 2, 30, 143, 112, 156, 159, 98, 97, 2, 0.886592
131, 3, bw, catch, NA, 999, 999, 2, 30, 143, 112, 156, 159, 98, 97, 3, 0.738436
131, 3, bw, attraction, a-b-db, 14, 1, 2, 31, 60, 135, 56, 125, 135, 60, 1, 1.4427
131, 3, bw, attraction, a-b-db, 14, 1, 2, 31, 60, 135, 56, 125, 135, 60, 2, 0.343616
131, 3, bw, attraction, a-b-db, 5, 2, 2, 32, 90, 165, 88, 161, 165, 90, 1, 1.12756
131, 3, bw, attraction, a-b-db, 5, 2, 2, 32, 90, 165, 88, 161, 165, 90, 3, 0.497171
131, 3, bw, attraction, a-b-da, 5, 1, 2, 33, 132, 58, 60, 135, 135, 60, 2, 1.22683
131, 3, bw, attraction, a-b-da, 5, 1, 2, 33, 132, 58, 60, 135, 135, 60, 3, 0.504522
131, 3, bw, filler, NA, 999, 999, 2, 34, 119, 112, 98, 195, 177, 136, 3, 1.04223
131, 3, bw, filler, NA, 999, 999, 2, 34, 119, 112, 98, 195, 177, 136, 1, 0.551308
131, 3, bw, attraction, a-b-da, 9, 2, 2, 35, 90, 165, 157, 86, 165, 90, 3, 0.991158
131, 3, bw, attraction, a-b-da, 9, 2, 2, 35, 90, 165, 157, 86, 165, 90, 2, 0.358001
131, 3, bw, filler, NA, 999, 999, 2, 36, 193, 152, 102, 68, 173, 182, 1, 1.14118
131, 3, bw, filler, NA, 999, 999, 2, 36, 193, 152, 102, 68, 173, 182, 2, 0.894034
131, 3, bw, attraction, a-b-db, 5, 3, 2, 37, 195, 120, 120, 195, 117, 190, 2, 1.79182
131, 3, bw, attraction, a-b-db, 5, 3, 2, 37, 195, 120, 120, 195, 117, 190, 1, 0.454467
131, 3, bw, filler, NA, 999, 999, 3, 1, 111, 149, 68, 92, 105, 93, 1, 1.05824
131, 3, bw, filler, NA, 999, 999, 3, 1, 111, 149, 68, 92, 105, 93, 2, 0.446627
131, 3, bw, attraction, a-b-db, 14, 3, 3, 2, 111, 181, 195, 120, 120, 195, 3, 2.15431
131, 3, bw, attraction, a-b-db, 14, 3, 3, 2, 111, 181, 195, 120, 120, 195, 1, 0.411023
131, 3, bw, attraction, a-b-da, 5, 2, 3, 3, 165, 90, 161, 88, 90, 165, 3, 1.6081
131, 3, bw, attraction, a-b-da, 5, 2, 3, 3, 165, 90, 161, 88, 90, 165, 2, 0.670222
131, 3, bw, filler, NA, 999, 999, 3, 4, 186, 154, 90, 174, 185, 103, 1, 0.873371
131, 3, bw, filler, NA, 999, 999, 3, 4, 186, 154, 90, 174, 185, 103, 2, 0.405097
131, 3, bw, attraction, a-b-da, 2, 1, 3, 5, 134, 59, 135, 60, 60, 135, 3, 1.26691
131, 3, bw, attraction, a-b-da, 2, 1, 3, 5, 134, 59, 135, 60, 60, 135, 1, 0.559203
131, 3, bw, attraction, a-b-db, 9, 2, 3, 6, 90, 165, 86, 157, 165, 90, 1, 2.11831
131, 3, bw, attraction, a-b-db, 9, 2, 3, 6, 90, 165, 86, 157, 165, 90, 3, 0.432358
131, 3, bw, filler, NA, 999, 999, 3, 7, 159, 152, 63, 151, 99, 71, 1, 0.980702
131, 3, bw, filler, NA, 999, 999, 3, 7, 159, 152, 63, 151, 99, 71, 3, 0.444411
131, 3, bw, attraction, a-b-db, 5, 1, 3, 8, 60, 135, 58, 132, 135, 60, 3, 1.16822
131, 3, bw, attraction, a-b-db, 5, 1, 3, 8, 60, 135, 58, 132, 135, 60, 2, 0.400348
131, 3, bw, attraction, a-b-db, 5, 3, 3, 9, 120, 195, 117, 190, 195, 120, 2, 2.4623
131, 3, bw, attraction, a-b-db, 5, 3, 3, 9, 120, 195, 117, 190, 195, 120, 3, 0.65822
131, 3, bw, attraction, a-b-db, 2, 3, 3, 10, 195, 120, 119, 193, 120, 195, 2, 1.86129
131, 3, bw, attraction, a-b-db, 2, 3, 3, 10, 195, 120, 119, 193, 120, 195, 3, 1.00929
131, 3, bw, filler, NA, 999, 999, 3, 11, 138, 109, 173, 176, 167, 111, 2, 0.718204
131, 3, bw, filler, NA, 999, 999, 3, 11, 138, 109, 173, 176, 167, 111, 1, 0.424515
131, 3, bw, attraction, a-b-da, 9, 1, 3, 12, 60, 135, 135, 60, 129, 57, 2, 0.941015
131, 3, bw, attraction, a-b-da, 9, 1, 3, 12, 60, 135, 135, 60, 129, 57, 1, 0.502056
131, 3, bw, filler, NA, 999, 999, 3, 13, 188, 183, 159, 110, 141, 138, 1, 1.06389
131, 3, bw, filler, NA, 999, 999, 3, 13, 188, 183, 159, 110, 141, 138, 2, 0.5003
131, 3, bw, attraction, a-b-da, 14, 3, 3, 14, 195, 120, 120, 195, 181, 111, 2, 1.55803
131, 3, bw, attraction, a-b-da, 14, 3, 3, 14, 195, 120, 120, 195, 181, 111, 3, 1.06209
131, 3, bw, attraction, a-b-da, 2, 2, 3, 15, 163, 89, 90, 165, 165, 90, 2, 1.62496
131, 3, bw, attraction, a-b-da, 2, 2, 3, 15, 163, 89, 90, 165, 165, 90, 1, 2.51059
131, 3, bw, attraction, a-b-da, 9, 2, 3, 16, 90, 165, 165, 90, 157, 86, 1, 1.55106
131, 3, bw, attraction, a-b-da, 9, 2, 3, 16, 90, 165, 165, 90, 157, 86, 2, 0.543859
131, 3, bw, filler, NA, 999, 999, 3, 17, 116, 79, 94, 96, 186, 145, 3, 0.935603
131, 3, bw, filler, NA, 999, 999, 3, 17, 116, 79, 94, 96, 186, 145, 1, 1.71324
131, 3, bw, attraction, a-b-da, 14, 1, 3, 18, 60, 135, 135, 60, 125, 56, 1, 1.13014
131, 3, bw, attraction, a-b-da, 14, 1, 3, 18, 60, 135, 135, 60, 125, 56, 2, 0.459577
131, 3, bw, catch, NA, 999, 999, 3, 19, 152, 103, 108, 87, 139, 176, 3, 1.15073
131, 3, bw, catch, NA, 999, 999, 3, 19, 152, 103, 108, 87, 139, 176, 2, 0.463677
131, 3, bw, attraction, a-b-da, 2, 3, 3, 20, 195, 120, 120, 195, 193, 119, 2, 1.89887
131, 3, bw, attraction, a-b-da, 2, 3, 3, 20, 195, 120, 120, 195, 193, 119, 3, 0.573629
131, 3, bw, attraction, a-b-db, 2, 2, 3, 21, 90, 165, 89, 163, 165, 90, 2, 1.80407
131, 3, bw, attraction, a-b-db, 2, 2, 3, 21, 90, 165, 89, 163, 165, 90, 3, 1.1387
131, 3, bw, attraction, a-b-da, 5, 3, 3, 22, 195, 120, 190, 117, 120, 195, 3, 1.52313
131, 3, bw, attraction, a-b-da, 5, 3, 3, 22, 195, 120, 190, 117, 120, 195, 2, 0.348454
131, 3, bw, attraction, a-b-db, 5, 2, 3, 23, 90, 165, 88, 161, 165, 90, 2, 0.972274
131, 3, bw, attraction, a-b-db, 5, 2, 3, 23, 90, 165, 88, 161, 165, 90, 3, 0.340051
131, 3, bw, attraction, a-b-db, 14, 1, 3, 24, 60, 135, 135, 60, 56, 125, 2, 0.763782
131, 3, bw, attraction, a-b-db, 14, 1, 3, 24, 60, 135, 135, 60, 56, 125, 3, 0.436204
131, 3, bw, catch, NA, 999, 999, 3, 25, 98, 97, 126, 189, 120, 135, 2, 0.856686
131, 3, bw, catch, NA, 999, 999, 3, 25, 98, 97, 126, 189, 120, 135, 1, 0.405169
131, 3, bw, filler, NA, 999, 999, 3, 26, 73, 158, 100, 184, 126, 188, 3, 0.898889
131, 3, bw, filler, NA, 999, 999, 3, 26, 73, 158, 100, 184, 126, 188, 1, 0.469872
131, 3, bw, filler, NA, 999, 999, 3, 27, 166, 187, 81, 98, 59, 132, 1, 0.768964
131, 3, bw, filler, NA, 999, 999, 3, 27, 166, 187, 81, 98, 59, 132, 2, 0.553481
131, 3, bw, filler, NA, 999, 999, 3, 28, 137, 167, 91, 191, 102, 104, 1, 1.07316
131, 3, bw, filler, NA, 999, 999, 3, 28, 137, 167, 91, 191, 102, 104, 3, 0.908821
131, 3, bw, attraction, a-b-db, 2, 1, 3, 29, 59, 134, 135, 60, 60, 135, 2, 1.44585
131, 3, bw, attraction, a-b-db, 2, 1, 3, 29, 59, 134, 135, 60, 60, 135, 1, 1.31471
131, 3, bw, attraction, a-b-da, 14, 2, 3, 30, 165, 90, 153, 83, 90, 165, 3, 1.4835
131, 3, bw, attraction, a-b-da, 14, 2, 3, 30, 165, 90, 153, 83, 90, 165, 2, 0.351073
131, 3, bw, attraction, a-b-da, 9, 3, 3, 31, 195, 120, 186, 114, 120, 195, 1, 1.88691
131, 3, bw, attraction, a-b-da, 9, 3, 3, 31, 195, 120, 186, 114, 120, 195, 2, 0.290282
131, 3, bw, attraction, a-b-db, 9, 3, 3, 32, 195, 120, 114, 186, 120, 195, 2, 1.17216
131, 3, bw, attraction, a-b-db, 9, 3, 3, 32, 195, 120, 114, 186, 120, 195, 1, 1.14775
131, 3, bw, attraction, a-b-da, 5, 1, 3, 33, 132, 58, 60, 135, 135, 60, 3, 2.04354
131, 3, bw, attraction, a-b-da, 5, 1, 3, 33, 132, 58, 60, 135, 135, 60, 2, 0.415916
131, 3, bw, attraction, a-b-db, 9, 1, 3, 34, 135, 60, 60, 135, 57, 129, 2, 1.83716
131, 3, bw, attraction, a-b-db, 9, 1, 3, 34, 135, 60, 60, 135, 57, 129, 1, 0.546801
131, 3, bw, filler, NA, 999, 999, 3, 35, 157, 184, 111, 135, 168, 59, 1, 0.82627
131, 3, bw, filler, NA, 999, 999, 3, 35, 157, 184, 111, 135, 168, 59, 2, 0.272017
131, 3, bw, attraction, a-b-db, 14, 2, 3, 36, 83, 153, 90, 165, 165, 90, 3, 1.1552
131, 3, bw, attraction, a-b-db, 14, 2, 3, 36, 83, 153, 90, 165, 165, 90, 2, 0.315508
131, 3, bw, catch, NA, 999, 999, 3, 37, 130, 125, 82, 113, 147, 168, 3, 0.804754
131, 3, bw, catch, NA, 999, 999, 3, 37, 130, 125, 82, 113, 147, 168, 2, 0.53174
131, 3, bw, attraction, a-b-da, 5, 1, 4, 1, 132, 58, 135, 60, 60, 135, 1, 1.34016
131, 3, bw, attraction, a-b-da, 5, 1, 4, 1, 132, 58, 135, 60, 60, 135, 2, 0.749142
131, 3, bw, attraction, a-b-db, 2, 2, 4, 2, 165, 90, 90, 165, 89, 163, 2, 1.15683
131, 3, bw, attraction, a-b-db, 2, 2, 4, 2, 165, 90, 90, 165, 89, 163, 1, 0.397234
131, 3, bw, attraction, a-b-da, 2, 1, 4, 3, 60, 135, 135, 60, 134, 59, 1, 1.77101
131, 3, bw, attraction, a-b-da, 2, 1, 4, 3, 60, 135, 135, 60, 134, 59, 3, 0.443006
131, 3, bw, attraction, a-b-db, 2, 3, 4, 4, 195, 120, 120, 195, 119, 193, 2, 1.77477
131, 3, bw, attraction, a-b-db, 2, 3, 4, 4, 195, 120, 120, 195, 119, 193, 1, 0.566314
131, 3, bw, attraction, a-b-da, 14, 1, 4, 5, 135, 60, 60, 135, 125, 56, 2, 1.02932
131, 3, bw, attraction, a-b-da, 14, 1, 4, 5, 135, 60, 60, 135, 125, 56, 3, 0.699065
131, 3, bw, attraction, a-b-db, 14, 2, 4, 6, 165, 90, 83, 153, 90, 165, 1, 1.29261
131, 3, bw, attraction, a-b-db, 14, 2, 4, 6, 165, 90, 83, 153, 90, 165, 2, 1.22348
131, 3, bw, attraction, a-b-db, 9, 1, 4, 7, 60, 135, 135, 60, 57, 129, 1, 1.44378
131, 3, bw, attraction, a-b-db, 9, 1, 4, 7, 60, 135, 135, 60, 57, 129, 2, 0.544697
131, 3, bw, filler, NA, 999, 999, 4, 8, 60, 143, 186, 172, 176, 193, 3, 1.09642
131, 3, bw, filler, NA, 999, 999, 4, 8, 60, 143, 186, 172, 176, 193, 1, 0.731345
131, 3, bw, filler, NA, 999, 999, 4, 9, 109, 120, 172, 142, 69, 150, 2, 1.29966
131, 3, bw, filler, NA, 999, 999, 4, 9, 109, 120, 172, 142, 69, 150, 3, 0.998639
131, 3, bw, attraction, a-b-db, 5, 2, 4, 10, 165, 90, 88, 161, 90, 165, 2, 1.18828
131, 3, bw, attraction, a-b-db, 5, 2, 4, 10, 165, 90, 88, 161, 90, 165, 1, 0.595229
131, 3, bw, filler, NA, 999, 999, 4, 11, 123, 114, 87, 77, 62, 81, 1, 0.993034
131, 3, bw, filler, NA, 999, 999, 4, 11, 123, 114, 87, 77, 62, 81, 3, 0.896026
131, 3, bw, attraction, a-b-da, 2, 3, 4, 12, 195, 120, 120, 195, 193, 119, 2, 1.20167
131, 3, bw, attraction, a-b-da, 2, 3, 4, 12, 195, 120, 120, 195, 193, 119, 3, 0.63259
131, 3, bw, attraction, a-b-db, 5, 1, 4, 13, 135, 60, 60, 135, 58, 132, 2, 1.26097
131, 3, bw, attraction, a-b-db, 5, 1, 4, 13, 135, 60, 60, 135, 58, 132, 1, 0.409379
131, 3, bw, attraction, a-b-da, 5, 2, 4, 14, 161, 88, 90, 165, 165, 90, 2, 1.79045
131, 3, bw, attraction, a-b-da, 5, 2, 4, 14, 161, 88, 90, 165, 165, 90, 1, 0.581141
131, 3, bw, filler, NA, 999, 999, 4, 15, 166, 165, 58, 179, 147, 113, 1, 0.795475
131, 3, bw, filler, NA, 999, 999, 4, 15, 166, 165, 58, 179, 147, 113, 2, 0.698601
131, 3, bw, filler, NA, 999, 999, 4, 16, 164, 71, 86, 125, 83, 164, 3, 2.38031
131, 3, bw, filler, NA, 999, 999, 4, 16, 164, 71, 86, 125, 83, 164, 2, 0.715556
131, 3, bw, filler, NA, 999, 999, 4, 17, 173, 115, 186, 92, 168, 91, 1, 2.26071
131, 3, bw, filler, NA, 999, 999, 4, 17, 173, 115, 186, 92, 168, 91, 2, 0.680586
131, 3, bw, attraction, a-b-da, 9, 2, 4, 18, 157, 86, 165, 90, 90, 165, 3, 2.259
131, 3, bw, attraction, a-b-da, 9, 2, 4, 18, 157, 86, 165, 90, 90, 165, 1, 0.774781
131, 3, bw, attraction, a-b-db, 2, 1, 4, 19, 60, 135, 135, 60, 59, 134, 1, 1.50129
131, 3, bw, attraction, a-b-db, 2, 1, 4, 19, 60, 135, 135, 60, 59, 134, 2, 0.568165
131, 3, bw, attraction, a-b-da, 9, 1, 4, 20, 129, 57, 60, 135, 135, 60, 2, 2.29513
131, 3, bw, attraction, a-b-da, 9, 1, 4, 20, 129, 57, 60, 135, 135, 60, 3, 0.401721
131, 3, bw, filler, NA, 999, 999, 4, 21, 113, 158, 137, 60, 190, 59, 1, 1.27151
131, 3, bw, filler, NA, 999, 999, 4, 21, 113, 158, 137, 60, 190, 59, 2, 0.539073
131, 3, bw, attraction, a-b-db, 5, 3, 4, 22, 117, 190, 120, 195, 195, 120, 1, 2.06763
131, 3, bw, attraction, a-b-db, 5, 3, 4, 22, 117, 190, 120, 195, 195, 120, 3, 0.847729
131, 3, bw, attraction, a-b-da, 9, 3, 4, 23, 120, 195, 195, 120, 186, 114, 2, 1.71523
131, 3, bw, attraction, a-b-da, 9, 3, 4, 23, 120, 195, 195, 120, 186, 114, 1, 0.437308
131, 3, bw, catch, NA, 999, 999, 4, 24, 90, 165, 193, 122, 134, 61, 2, 1.00991
131, 3, bw, catch, NA, 999, 999, 4, 24, 90, 165, 193, 122, 134, 61, 3, 0.432261
131, 3, bw, attraction, a-b-da, 2, 2, 4, 25, 165, 90, 163, 89, 90, 165, 3, 2.28455
131, 3, bw, attraction, a-b-da, 2, 2, 4, 25, 165, 90, 163, 89, 90, 165, 2, 0.431876
131, 3, bw, attraction, a-b-db, 14, 3, 4, 26, 120, 195, 111, 181, 195, 120, 1, 1.15633
131, 3, bw, attraction, a-b-db, 14, 3, 4, 26, 120, 195, 111, 181, 195, 120, 3, 0.812659
131, 3, bw, filler, NA, 999, 999, 4, 27, 154, 195, 155, 143, 70, 161, 1, 0.673709
131, 3, bw, filler, NA, 999, 999, 4, 27, 154, 195, 155, 143, 70, 161, 3, 1.30138
131, 3, bw, filler, NA, 999, 999, 4, 28, 195, 89, 131, 154, 59, 124, 2, 1.39104
131, 3, bw, filler, NA, 999, 999, 4, 28, 195, 89, 131, 154, 59, 124, 1, 0.829856
131, 3, bw, catch, NA, 999, 999, 4, 29, 171, 144, 109, 146, 66, 129, 1, 0.914109
131, 3, bw, catch, NA, 999, 999, 4, 29, 171, 144, 109, 146, 66, 129, 3, 0.396441
131, 3, bw, attraction, a-b-da, 5, 3, 4, 30, 195, 120, 120, 195, 190, 117, 2, 1.2023
131, 3, bw, attraction, a-b-da, 5, 3, 4, 30, 195, 120, 120, 195, 190, 117, 3, 0.537322
131, 3, bw, attraction, a-b-db, 14, 1, 4, 31, 60, 135, 56, 125, 135, 60, 1, 1.80179
131, 3, bw, attraction, a-b-db, 14, 1, 4, 31, 60, 135, 56, 125, 135, 60, 2, 0.632531
131, 3, bw, attraction, a-b-da, 14, 3, 4, 32, 120, 195, 195, 120, 181, 111, 1, 2.06887
131, 3, bw, attraction, a-b-da, 14, 3, 4, 32, 120, 195, 195, 120, 181, 111, 3, 0.681029
131, 3, bw, attraction, a-b-db, 9, 3, 4, 33, 114, 186, 195, 120, 120, 195, 3, 1.17117
131, 3, bw, attraction, a-b-db, 9, 3, 4, 33, 114, 186, 195, 120, 120, 195, 2, 0.555556
131, 3, bw, filler, NA, 999, 999, 4, 34, 86, 138, 143, 185, 147, 190, 3, 2.05945
131, 3, bw, filler, NA, 999, 999, 4, 34, 86, 138, 143, 185, 147, 190, 1, 0.367275
131, 3, bw, attraction, a-b-db, 9, 2, 4, 35, 86, 157, 90, 165, 165, 90, 2, 2.03054
131, 3, bw, attraction, a-b-db, 9, 2, 4, 35, 86, 157, 90, 165, 165, 90, 3, 0.483793
131, 3, bw, catch, NA, 999, 999, 4, 36, 142, 113, 123, 72, 179, 136, 3, 1.59027
131, 3, bw, catch, NA, 999, 999, 4, 36, 142, 113, 123, 72, 179, 136, 2, 0.349018
131, 3, bw, attraction, a-b-da, 14, 2, 4, 37, 90, 165, 153, 83, 165, 90, 1, 2.03689
131, 3, bw, attraction, a-b-da, 14, 2, 4, 37, 90, 165, 153, 83, 165, 90, 2, 0.562168
131, 3, bw, attraction, a-b-da, 5, 3, 5, 1, 190, 117, 195, 120, 120, 195, 3, 2.90391
131, 3, bw, attraction, a-b-da, 5, 3, 5, 1, 190, 117, 195, 120, 120, 195, 2, 0.426521
131, 3, bw, attraction, a-b-da, 2, 3, 5, 2, 193, 119, 120, 195, 195, 120, 2, 1.66282
131, 3, bw, attraction, a-b-da, 2, 3, 5, 2, 193, 119, 120, 195, 195, 120, 3, 0.387049
131, 3, bw, attraction, a-b-da, 9, 2, 5, 3, 90, 165, 165, 90, 157, 86, 2, 2.18542
131, 3, bw, attraction, a-b-da, 9, 2, 5, 3, 90, 165, 165, 90, 157, 86, 3, 0.472737
131, 3, bw, filler, NA, 999, 999, 5, 4, 73, 90, 82, 177, 97, 94, 2, 1.81195
131, 3, bw, filler, NA, 999, 999, 5, 4, 73, 90, 82, 177, 97, 94, 1, 0.353886
131, 3, bw, attraction, a-b-db, 5, 1, 5, 5, 60, 135, 58, 132, 135, 60, 3, 0.849749
131, 3, bw, attraction, a-b-db, 5, 1, 5, 5, 60, 135, 58, 132, 135, 60, 2, 0.295004
131, 3, bw, filler, NA, 999, 999, 5, 6, 145, 169, 166, 74, 152, 157, 1, 1.44068
131, 3, bw, filler, NA, 999, 999, 5, 6, 145, 169, 166, 74, 152, 157, 2, 0.501487
131, 3, bw, attraction, a-b-db, 2, 1, 5, 7, 135, 60, 59, 134, 60, 135, 2, 1.83123
131, 3, bw, attraction, a-b-db, 2, 1, 5, 7, 135, 60, 59, 134, 60, 135, 1, 0.692629
131, 3, bw, catch, NA, 999, 999, 5, 8, 127, 128, 98, 97, 170, 145, 3, 0.854509
131, 3, bw, catch, NA, 999, 999, 5, 8, 127, 128, 98, 97, 170, 145, 2, 0.531418
131, 3, bw, attraction, a-b-db, 2, 3, 5, 9, 120, 195, 195, 120, 119, 193, 3, 1.33211
131, 3, bw, attraction, a-b-db, 2, 3, 5, 9, 120, 195, 195, 120, 119, 193, 2, 0.301547
131, 3, bw, filler, NA, 999, 999, 5, 10, 180, 194, 69, 126, 156, 126, 1, 0.711309
131, 3, bw, filler, NA, 999, 999, 5, 10, 180, 194, 69, 126, 156, 126, 2, 0.441756
131, 3, bw, filler, NA, 999, 999, 5, 11, 65, 166, 77, 58, 68, 193, 3, 0.893492
131, 3, bw, filler, NA, 999, 999, 5, 11, 65, 166, 77, 58, 68, 193, 2, 0.720506
131, 3, bw, filler, NA, 999, 999, 5, 12, 119, 116, 59, 110, 93, 65, 1, 1.17759
131, 3, bw, filler, NA, 999, 999, 5, 12, 119, 116, 59, 110, 93, 65, 3, 0.505355
131, 3, bw, attraction, a-b-db, 5, 3, 5, 13, 117, 190, 195, 120, 120, 195, 2, 2.25914
131, 3, bw, attraction, a-b-db, 5, 3, 5, 13, 117, 190, 195, 120, 120, 195, 1, 0.782948
131, 3, bw, attraction, a-b-da, 5, 2, 5, 14, 90, 165, 165, 90, 161, 88, 2, 1.54943
131, 3, bw, attraction, a-b-da, 5, 2, 5, 14, 90, 165, 165, 90, 161, 88, 3, 0.518115
131, 3, bw, attraction, a-b-da, 5, 1, 5, 15, 135, 60, 60, 135, 132, 58, 2, 0.999179
131, 3, bw, attraction, a-b-da, 5, 1, 5, 15, 135, 60, 60, 135, 132, 58, 3, 0.454188
131, 3, bw, attraction, a-b-db, 5, 2, 5, 16, 90, 165, 88, 161, 165, 90, 2, 1.21015
131, 3, bw, attraction, a-b-db, 5, 2, 5, 16, 90, 165, 88, 161, 165, 90, 3, 0.480307
131, 3, bw, attraction, a-b-db, 9, 3, 5, 17, 114, 186, 195, 120, 120, 195, 1, 1.89076
131, 3, bw, attraction, a-b-db, 9, 3, 5, 17, 114, 186, 195, 120, 120, 195, 3, 0.797421
131, 3, bw, attraction, a-b-da, 2, 1, 5, 18, 135, 60, 60, 135, 134, 59, 2, 1.23508
131, 3, bw, attraction, a-b-da, 2, 1, 5, 18, 135, 60, 60, 135, 134, 59, 1, 0.456749
131, 3, bw, attraction, a-b-db, 14, 2, 5, 19, 83, 153, 90, 165, 165, 90, 2, 1.94797
131, 3, bw, attraction, a-b-db, 14, 2, 5, 19, 83, 153, 90, 165, 165, 90, 1, 0.708522
131, 3, bw, attraction, a-b-da, 14, 1, 5, 20, 125, 56, 135, 60, 60, 135, 3, 2.66175
131, 3, bw, attraction, a-b-da, 14, 1, 5, 20, 125, 56, 135, 60, 60, 135, 2, 0.529459
131, 3, bw, catch, NA, 999, 999, 5, 21, 118, 77, 102, 153, 152, 163, 3, 1.00985
131, 3, bw, catch, NA, 999, 999, 5, 21, 118, 77, 102, 153, 152, 163, 1, 0.592212
131, 3, bw, filler, NA, 999, 999, 5, 22, 163, 143, 107, 104, 107, 87, 1, 0.917899
131, 3, bw, filler, NA, 999, 999, 5, 22, 163, 143, 107, 104, 107, 87, 3, 0.936239
131, 3, bw, attraction, a-b-da, 14, 2, 5, 23, 165, 90, 153, 83, 90, 165, 1, 1.80072
131, 3, bw, attraction, a-b-da, 14, 2, 5, 23, 165, 90, 153, 83, 90, 165, 2, 0.50342
131, 3, bw, attraction, a-b-da, 2, 2, 5, 24, 163, 89, 90, 165, 165, 90, 3, 0.993092
131, 3, bw, attraction, a-b-da, 2, 2, 5, 24, 163, 89, 90, 165, 165, 90, 2, 0.624266
131, 3, bw, filler, NA, 999, 999, 5, 25, 108, 146, 112, 184, 114, 115, 2, 0.892587
131, 3, bw, filler, NA, 999, 999, 5, 25, 108, 146, 112, 184, 114, 115, 3, 0.407503
131, 3, bw, attraction, a-b-da, 14, 3, 5, 26, 181, 111, 195, 120, 120, 195, 2, 1.49281
131, 3, bw, attraction, a-b-da, 14, 3, 5, 26, 181, 111, 195, 120, 120, 195, 1, 0.599683
131, 3, bw, attraction, a-b-db, 9, 2, 5, 27, 86, 157, 165, 90, 90, 165, 2, 2.22929
131, 3, bw, attraction, a-b-db, 9, 2, 5, 27, 86, 157, 165, 90, 90, 165, 1, 0.698797
131, 3, bw, attraction, a-b-db, 2, 2, 5, 28, 90, 165, 89, 163, 165, 90, 2, 1.63631
131, 3, bw, attraction, a-b-db, 2, 2, 5, 28, 90, 165, 89, 163, 165, 90, 3, 0.36171
131, 3, bw, attraction, a-b-da, 9, 1, 5, 29, 135, 60, 60, 135, 129, 57, 2, 1.4889
131, 3, bw, attraction, a-b-da, 9, 1, 5, 29, 135, 60, 60, 135, 129, 57, 3, 1.01177
131, 3, bw, filler, NA, 999, 999, 5, 30, 96, 145, 169, 140, 110, 171, 2, 1.46486
131, 3, bw, filler, NA, 999, 999, 5, 30, 96, 145, 169, 140, 110, 171, 1, 1.26089
131, 3, bw, attraction, a-b-db, 14, 3, 5, 31, 111, 181, 195, 120, 120, 195, 3, 1.7759
131, 3, bw, attraction, a-b-db, 14, 3, 5, 31, 111, 181, 195, 120, 120, 195, 1, 1.34334
131, 3, bw, attraction, a-b-da, 9, 3, 5, 32, 186, 114, 195, 120, 120, 195, 3, 1.59077
131, 3, bw, attraction, a-b-da, 9, 3, 5, 32, 186, 114, 195, 120, 120, 195, 1, 0.845593
131, 3, bw, filler, NA, 999, 999, 5, 33, 189, 105, 138, 69, 57, 80, 1, 1.23346
131, 3, bw, filler, NA, 999, 999, 5, 33, 189, 105, 138, 69, 57, 80, 3, 0.41485
131, 3, bw, filler, NA, 999, 999, 5, 34, 127, 111, 68, 116, 164, 178, 3, 1.98
131, 3, bw, filler, NA, 999, 999, 5, 34, 127, 111, 68, 116, 164, 178, 2, 0.46745
131, 3, bw, attraction, a-b-db, 9, 1, 5, 35, 135, 60, 57, 129, 60, 135, 3, 2.41458
131, 3, bw, attraction, a-b-db, 9, 1, 5, 35, 135, 60, 57, 129, 60, 135, 2, 1.6444
131, 3, bw, catch, NA, 999, 999, 5, 36, 95, 160, 171, 144, 120, 75, 2, 0.911832
131, 3, bw, catch, NA, 999, 999, 5, 36, 95, 160, 171, 144, 120, 75, 3, 0.826164
131, 3, bw, attraction, a-b-db, 14, 1, 5, 37, 56, 125, 60, 135, 135, 60, 3, 1.33452
131, 3, bw, attraction, a-b-db, 14, 1, 5, 37, 56, 125, 60, 135, 135, 60, 1, 0.743975
131, 3, bw, attraction, a-b-da, 9, 3, 6, 1, 120, 195, 195, 120, 186, 114, 1, 1.72781
131, 3, bw, attraction, a-b-da, 9, 3, 6, 1, 120, 195, 195, 120, 186, 114, 3, 0.473253
131, 3, bw, attraction, a-b-db, 9, 1, 6, 2, 60, 135, 57, 129, 135, 60, 2, 1.2203
131, 3, bw, attraction, a-b-db, 9, 1, 6, 2, 60, 135, 57, 129, 135, 60, 3, 0.458687
131, 3, bw, filler, NA, 999, 999, 6, 3, 78, 127, 163, 103, 119, 122, 2, 1.67781
131, 3, bw, filler, NA, 999, 999, 6, 3, 78, 127, 163, 103, 119, 122, 1, 0.457116
131, 3, bw, filler, NA, 999, 999, 6, 4, 120, 168, 137, 152, 97, 73, 2, 1.46828
131, 3, bw, filler, NA, 999, 999, 6, 4, 120, 168, 137, 152, 97, 73, 3, 0.80054
131, 3, bw, attraction, a-b-db, 14, 3, 6, 5, 195, 120, 120, 195, 111, 181, 2, 2.79823
131, 3, bw, attraction, a-b-db, 14, 3, 6, 5, 195, 120, 120, 195, 111, 181, 3, 0.98063
131, 3, bw, attraction, a-b-da, 5, 3, 6, 6, 195, 120, 120, 195, 190, 117, 1, 2.371
131, 3, bw, attraction, a-b-da, 5, 3, 6, 6, 195, 120, 120, 195, 190, 117, 3, 0.427036
131, 3, bw, attraction, a-b-db, 5, 3, 6, 7, 117, 190, 195, 120, 120, 195, 2, 1.91125
131, 3, bw, attraction, a-b-db, 5, 3, 6, 7, 117, 190, 195, 120, 120, 195, 3, 0.473242
131, 3, bw, filler, NA, 999, 999, 6, 8, 152, 67, 88, 179, 88, 152, 2, 1.35573
131, 3, bw, filler, NA, 999, 999, 6, 8, 152, 67, 88, 179, 88, 152, 1, 0.475989
131, 3, bw, filler, NA, 999, 999, 6, 9, 142, 89, 159, 186, 100, 186, 2, 0.686409
131, 3, bw, filler, NA, 999, 999, 6, 9, 142, 89, 159, 186, 100, 186, 1, 0.418204
131, 3, bw, attraction, a-b-da, 2, 3, 6, 10, 120, 195, 193, 119, 195, 120, 2, 2.52743
131, 3, bw, attraction, a-b-da, 2, 3, 6, 10, 120, 195, 193, 119, 195, 120, 3, 0.336628
131, 3, bw, attraction, a-b-db, 9, 2, 6, 11, 86, 157, 90, 165, 165, 90, 2, 1.40905
131, 3, bw, attraction, a-b-db, 9, 2, 6, 11, 86, 157, 90, 165, 165, 90, 1, 0.55923
131, 3, bw, attraction, a-b-db, 2, 3, 6, 12, 119, 193, 195, 120, 120, 195, 3, 1.92675
131, 3, bw, attraction, a-b-db, 2, 3, 6, 12, 119, 193, 195, 120, 120, 195, 2, 0.4236
131, 3, bw, attraction, a-b-da, 2, 1, 6, 13, 135, 60, 60, 135, 134, 59, 2, 2.02828
131, 3, bw, attraction, a-b-da, 2, 1, 6, 13, 135, 60, 60, 135, 134, 59, 3, 0.60956
131, 3, bw, attraction, a-b-db, 14, 2, 6, 14, 83, 153, 165, 90, 90, 165, 3, 2.0308
131, 3, bw, attraction, a-b-db, 14, 2, 6, 14, 83, 153, 165, 90, 90, 165, 1, 0.803844
131, 3, bw, attraction, a-b-da, 14, 1, 6, 15, 60, 135, 125, 56, 135, 60, 1, 2.09763
131, 3, bw, attraction, a-b-da, 14, 1, 6, 15, 60, 135, 125, 56, 135, 60, 2, 0.436454
131, 3, bw, catch, NA, 999, 999, 6, 16, 148, 167, 128, 127, 120, 75, 1, 1.25663
131, 3, bw, catch, NA, 999, 999, 6, 16, 148, 167, 128, 127, 120, 75, 3, 0.453022
131, 3, bw, attraction, a-b-db, 9, 3, 6, 17, 114, 186, 120, 195, 195, 120, 2, 2.38475
131, 3, bw, attraction, a-b-db, 9, 3, 6, 17, 114, 186, 120, 195, 195, 120, 3, 0.520001
131, 3, bw, attraction, a-b-db, 5, 2, 6, 18, 88, 161, 90, 165, 165, 90, 2, 2.23303
131, 3, bw, attraction, a-b-db, 5, 2, 6, 18, 88, 161, 90, 165, 165, 90, 1, 0.798439
131, 3, bw, filler, NA, 999, 999, 6, 19, 60, 116, 162, 125, 193, 78, 2, 1.65223
131, 3, bw, filler, NA, 999, 999, 6, 19, 60, 116, 162, 125, 193, 78, 1, 0.448999
131, 3, bw, attraction, a-b-da, 2, 2, 6, 20, 90, 165, 165, 90, 163, 89, 3, 2.43684
131, 3, bw, attraction, a-b-da, 2, 2, 6, 20, 90, 165, 165, 90, 163, 89, 2, 1.23407
131, 3, bw, filler, NA, 999, 999, 6, 21, 147, 64, 173, 122, 70, 126, 2, 0.710258
131, 3, bw, filler, NA, 999, 999, 6, 21, 147, 64, 173, 122, 70, 126, 3, 1.8805
131, 3, bw, filler, NA, 999, 999, 6, 22, 174, 133, 188, 151, 165, 81, 2, 0.954735
131, 3, bw, filler, NA, 999, 999, 6, 22, 174, 133, 188, 151, 165, 81, 3, 0.499549
131, 3, bw, attraction, a-b-da, 9, 2, 6, 23, 157, 86, 165, 90, 90, 165, 3, 1.31743
131, 3, bw, attraction, a-b-da, 9, 2, 6, 23, 157, 86, 165, 90, 90, 165, 2, 0.415605
131, 3, bw, attraction, a-b-da, 14, 3, 6, 24, 120, 195, 181, 111, 195, 120, 3, 2.05282
131, 3, bw, attraction, a-b-da, 14, 3, 6, 24, 120, 195, 181, 111, 195, 120, 2, 0.345533
131, 3, bw, attraction, a-b-da, 5, 2, 6, 25, 165, 90, 90, 165, 161, 88, 2, 1.14539
131, 3, bw, attraction, a-b-da, 5, 2, 6, 25, 165, 90, 90, 165, 161, 88, 3, 0.410294
131, 3, bw, filler, NA, 999, 999, 6, 26, 157, 160, 109, 187, 92, 162, 1, 0.959363
131, 3, bw, filler, NA, 999, 999, 6, 26, 157, 160, 109, 187, 92, 162, 3, 0.575702
131, 3, bw, attraction, a-b-da, 14, 2, 6, 27, 153, 83, 90, 165, 165, 90, 2, 1.60619
131, 3, bw, attraction, a-b-da, 14, 2, 6, 27, 153, 83, 90, 165, 165, 90, 1, 0.548339
131, 3, bw, attraction, a-b-da, 5, 1, 6, 28, 132, 58, 135, 60, 60, 135, 3, 1.5642
131, 3, bw, attraction, a-b-da, 5, 1, 6, 28, 132, 58, 135, 60, 60, 135, 2, 0.33213
131, 3, bw, attraction, a-b-db, 5, 1, 6, 29, 60, 135, 135, 60, 58, 132, 3, 1.68464
131, 3, bw, attraction, a-b-db, 5, 1, 6, 29, 60, 135, 135, 60, 58, 132, 2, 0.464085
131, 3, bw, attraction, a-b-da, 9, 1, 6, 30, 135, 60, 129, 57, 60, 135, 3, 0.88326
131, 3, bw, attraction, a-b-da, 9, 1, 6, 30, 135, 60, 129, 57, 60, 135, 2, 0.670919
131, 3, bw, catch, NA, 999, 999, 6, 31, 181, 134, 120, 135, 121, 74, 1, 0.666028
131, 3, bw, catch, NA, 999, 999, 6, 31, 181, 134, 120, 135, 121, 74, 3, 0.686376
131, 3, bw, attraction, a-b-db, 2, 2, 6, 32, 90, 165, 165, 90, 89, 163, 3, 0.9768
131, 3, bw, attraction, a-b-db, 2, 2, 6, 32, 90, 165, 165, 90, 89, 163, 2, 0.432444
131, 3, bw, attraction, a-b-db, 2, 1, 6, 33, 60, 135, 135, 60, 59, 134, 3, 0.780919
131, 3, bw, attraction, a-b-db, 2, 1, 6, 33, 60, 135, 135, 60, 59, 134, 2, 0.316625
131, 3, bw, filler, NA, 999, 999, 6, 34, 184, 119, 107, 177, 119, 113, 1, 1.17394
131, 3, bw, filler, NA, 999, 999, 6, 34, 184, 119, 107, 177, 119, 113, 3, 0.461585
131, 3, bw, filler, NA, 999, 999, 6, 35, 170, 159, 141, 193, 62, 141, 2, 1.97686
131, 3, bw, filler, NA, 999, 999, 6, 35, 170, 159, 141, 193, 62, 141, 3, 0.456072
131, 3, bw, catch, NA, 999, 999, 6, 36, 116, 139, 172, 143, 133, 62, 2, 1.45183
131, 3, bw, catch, NA, 999, 999, 6, 36, 116, 139, 172, 143, 133, 62, 3, 0.672749
131, 3, bw, attraction, a-b-db, 14, 1, 6, 37, 56, 125, 60, 135, 135, 60, 2, 1.20366
131, 3, bw, attraction, a-b-db, 14, 1, 6, 37, 56, 125, 60, 135, 135, 60, 3, 0.60267
131, 3, bw, filler, NA, 999, 999, 7, 1, 147, 175, 148, 187, 62, 177, 2, 2.74441
131, 3, bw, filler, NA, 999, 999, 7, 1, 147, 175, 148, 187, 62, 177, 3, 0.520828
131, 3, bw, attraction, a-b-da, 5, 3, 7, 2, 190, 117, 195, 120, 120, 195, 3, 1.23393
131, 3, bw, attraction, a-b-da, 5, 3, 7, 2, 190, 117, 195, 120, 120, 195, 1, 0.583449
131, 3, bw, attraction, a-b-da, 2, 1, 7, 3, 135, 60, 134, 59, 60, 135, 3, 1.22201
131, 3, bw, attraction, a-b-da, 2, 1, 7, 3, 135, 60, 134, 59, 60, 135, 2, 0.331537
131, 3, bw, attraction, a-b-da, 2, 2, 7, 4, 163, 89, 165, 90, 90, 165, 3, 1.2681
131, 3, bw, attraction, a-b-da, 2, 2, 7, 4, 163, 89, 165, 90, 90, 165, 2, 0.472327
131, 3, bw, attraction, a-b-da, 5, 1, 7, 5, 60, 135, 135, 60, 132, 58, 1, 2.05942
131, 3, bw, attraction, a-b-da, 5, 1, 7, 5, 60, 135, 135, 60, 132, 58, 3, 0.407415
131, 3, bw, attraction, a-b-db, 5, 1, 7, 6, 58, 132, 135, 60, 60, 135, 3, 1.02054
131, 3, bw, attraction, a-b-db, 5, 1, 7, 6, 58, 132, 135, 60, 60, 135, 2, 0.314936
131, 3, bw, attraction, a-b-da, 9, 1, 7, 7, 129, 57, 60, 135, 135, 60, 2, 0.812088
131, 3, bw, attraction, a-b-da, 9, 1, 7, 7, 129, 57, 60, 135, 135, 60, 3, 0.402432
131, 3, bw, attraction, a-b-da, 5, 2, 7, 8, 90, 165, 161, 88, 165, 90, 3, 1.45645
131, 3, bw, attraction, a-b-da, 5, 2, 7, 8, 90, 165, 161, 88, 165, 90, 2, 0.300541
131, 3, bw, filler, NA, 999, 999, 7, 9, 116, 128, 70, 73, 143, 160, 3, 0.734359
131, 3, bw, filler, NA, 999, 999, 7, 9, 116, 128, 70, 73, 143, 160, 2, 0.408009
131, 3, bw, attraction, a-b-da, 14, 3, 7, 10, 181, 111, 195, 120, 120, 195, 2, 1.30117
131, 3, bw, attraction, a-b-da, 14, 3, 7, 10, 181, 111, 195, 120, 120, 195, 3, 0.896028
131, 3, bw, catch, NA, 999, 999, 7, 11, 142, 173, 125, 130, 63, 132, 1, 0.713875
131, 3, bw, catch, NA, 999, 999, 7, 11, 142, 173, 125, 130, 63, 132, 3, 0.420099
131, 3, bw, filler, NA, 999, 999, 7, 12, 94, 118, 189, 171, 135, 178, 2, 1.05746
131, 3, bw, filler, NA, 999, 999, 7, 12, 94, 118, 189, 171, 135, 178, 1, 0.517546
131, 3, bw, attraction, a-b-da, 14, 1, 7, 13, 60, 135, 135, 60, 125, 56, 1, 1.13478
131, 3, bw, attraction, a-b-da, 14, 1, 7, 13, 60, 135, 135, 60, 125, 56, 2, 0.376314
131, 3, bw, attraction, a-b-db, 2, 2, 7, 14, 90, 165, 165, 90, 89, 163, 2, 0.99087
131, 3, bw, attraction, a-b-db, 2, 2, 7, 14, 90, 165, 165, 90, 89, 163, 1, 0.621773
131, 3, bw, attraction, a-b-db, 5, 2, 7, 15, 88, 161, 165, 90, 90, 165, 3, 0.970858
131, 3, bw, attraction, a-b-db, 5, 2, 7, 15, 88, 161, 165, 90, 90, 165, 2, 0.523327
131, 3, bw, catch, NA, 999, 999, 7, 16, 194, 121, 124, 71, 164, 91, 1, 0.987789
131, 3, bw, catch, NA, 999, 999, 7, 16, 194, 121, 124, 71, 164, 91, 2, 0.35532
131, 3, bw, filler, NA, 999, 999, 7, 17, 183, 77, 163, 139, 132, 161, 2, 0.995304
131, 3, bw, filler, NA, 999, 999, 7, 17, 183, 77, 163, 139, 132, 161, 1, 0.394142
131, 3, bw, attraction, a-b-db, 9, 2, 7, 18, 165, 90, 90, 165, 86, 157, 2, 2.12802
131, 3, bw, attraction, a-b-db, 9, 2, 7, 18, 165, 90, 90, 165, 86, 157, 3, 0.313399
131, 3, bw, attraction, a-b-da, 2, 3, 7, 19, 195, 120, 120, 195, 193, 119, 2, 1.55452
131, 3, bw, attraction, a-b-da, 2, 3, 7, 19, 195, 120, 120, 195, 193, 119, 1, 0.299353
131, 3, bw, attraction, a-b-db, 14, 3, 7, 20, 195, 120, 120, 195, 111, 181, 2, 1.48537
131, 3, bw, attraction, a-b-db, 14, 3, 7, 20, 195, 120, 120, 195, 111, 181, 3, 0.784815
131, 3, bw, attraction, a-b-db, 5, 3, 7, 21, 120, 195, 117, 190, 195, 120, 1, 2.29505
131, 3, bw, attraction, a-b-db, 5, 3, 7, 21, 120, 195, 117, 190, 195, 120, 2, 0.313643
131, 3, bw, filler, NA, 999, 999, 7, 22, 172, 143, 117, 124, 113, 70, 1, 0.922844
131, 3, bw, filler, NA, 999, 999, 7, 22, 172, 143, 117, 124, 113, 70, 3, 0.452613
131, 3, bw, attraction, a-b-db, 9, 1, 7, 23, 60, 135, 135, 60, 57, 129, 3, 0.984251
131, 3, bw, attraction, a-b-db, 9, 1, 7, 23, 60, 135, 135, 60, 57, 129, 2, 0.656064
131, 3, bw, catch, NA, 999, 999, 7, 24, 73, 122, 101, 154, 139, 176, 3, 0.819668
131, 3, bw, catch, NA, 999, 999, 7, 24, 73, 122, 101, 154, 139, 176, 1, 0.434234
131, 3, bw, attraction, a-b-da, 9, 2, 7, 25, 90, 165, 165, 90, 157, 86, 1, 1.71848
131, 3, bw, attraction, a-b-da, 9, 2, 7, 25, 90, 165, 165, 90, 157, 86, 3, 0.384655
131, 3, bw, attraction, a-b-da, 9, 3, 7, 26, 186, 114, 195, 120, 120, 195, 1, 1.46331
131, 3, bw, attraction, a-b-da, 9, 3, 7, 26, 186, 114, 195, 120, 120, 195, 2, 0.355376
131, 3, bw, attraction, a-b-da, 14, 2, 7, 27, 90, 165, 153, 83, 165, 90, 3, 1.25135
131, 3, bw, attraction, a-b-da, 14, 2, 7, 27, 90, 165, 153, 83, 165, 90, 2, 0.336254
131, 3, bw, attraction, a-b-db, 9, 3, 7, 28, 195, 120, 120, 195, 114, 186, 1, 0.85657
131, 3, bw, attraction, a-b-db, 9, 3, 7, 28, 195, 120, 120, 195, 114, 186, 2, 0.284926
131, 3, bw, filler, NA, 999, 999, 7, 29, 103, 183, 59, 77, 162, 183, 3, 0.783657
131, 3, bw, filler, NA, 999, 999, 7, 29, 103, 183, 59, 77, 162, 183, 2, 0.4392
131, 3, bw, filler, NA, 999, 999, 7, 30, 69, 58, 145, 179, 134, 111, 2, 0.891706
131, 3, bw, filler, NA, 999, 999, 7, 30, 69, 58, 145, 179, 134, 111, 1, 0.350686
131, 3, bw, attraction, a-b-db, 2, 3, 7, 31, 195, 120, 120, 195, 119, 193, 2, 0.95064
131, 3, bw, attraction, a-b-db, 2, 3, 7, 31, 195, 120, 120, 195, 119, 193, 3, 0.767662
131, 3, bw, attraction, a-b-db, 14, 2, 7, 32, 90, 165, 83, 153, 165, 90, 1, 1.77461
131, 3, bw, attraction, a-b-db, 14, 2, 7, 32, 90, 165, 83, 153, 165, 90, 2, 0.350165
131, 3, bw, attraction, a-b-db, 2, 1, 7, 33, 135, 60, 60, 135, 59, 134, 2, 0.797821
131, 3, bw, attraction, a-b-db, 2, 1, 7, 33, 135, 60, 60, 135, 59, 134, 1, 0.460909
131, 3, bw, attraction, a-b-db, 14, 1, 7, 34, 60, 135, 56, 125, 135, 60, 2, 0.672084
131, 3, bw, attraction, a-b-db, 14, 1, 7, 34, 60, 135, 56, 125, 135, 60, 3, 0.379725
131, 3, bw, filler, NA, 999, 999, 7, 35, 91, 195, 150, 88, 112, 101, 1, 1.94627
131, 3, bw, filler, NA, 999, 999, 7, 35, 91, 195, 150, 88, 112, 101, 3, 0.387121
131, 3, bw, filler, NA, 999, 999, 7, 36, 118, 143, 125, 130, 130, 90, 2, 0.953584
131, 3, bw, filler, NA, 999, 999, 7, 36, 118, 143, 125, 130, 130, 90, 3, 0.410497
131, 3, bw, filler, NA, 999, 999, 7, 37, 146, 181, 116, 154, 117, 76, 1, 0.831581
131, 3, bw, filler, NA, 999, 999, 7, 37, 146, 181, 116, 154, 117, 76, 3, 1.20533
131, 3, bw, filler, NA, 999, 999, 8, 1, 157, 121, 82, 140, 126, 141, 1, 1.56299
131, 3, bw, filler, NA, 999, 999, 8, 1, 157, 121, 82, 140, 126, 141, 2, 0.291155
131, 3, bw, attraction, a-b-da, 2, 1, 8, 2, 60, 135, 134, 59, 135, 60, 1, 1.82907
131, 3, bw, attraction, a-b-da, 2, 1, 8, 2, 60, 135, 134, 59, 135, 60, 3, 0.738358
131, 3, bw, attraction, a-b-da, 9, 1, 8, 3, 135, 60, 129, 57, 60, 135, 3, 1.32265
131, 3, bw, attraction, a-b-da, 9, 1, 8, 3, 135, 60, 129, 57, 60, 135, 2, 0.444366
131, 3, bw, attraction, a-b-db, 2, 2, 8, 4, 165, 90, 89, 163, 90, 165, 2, 1.80801
131, 3, bw, attraction, a-b-db, 2, 2, 8, 4, 165, 90, 89, 163, 90, 165, 1, 0.478189
131, 3, bw, attraction, a-b-da, 14, 3, 8, 5, 181, 111, 120, 195, 195, 120, 2, 3.53657
131, 3, bw, attraction, a-b-da, 14, 3, 8, 5, 181, 111, 120, 195, 195, 120, 3, 1.26543
131, 3, bw, catch, NA, 999, 999, 8, 6, 123, 192, 111, 84, 163, 92, 1, 1.17223
131, 3, bw, catch, NA, 999, 999, 8, 6, 123, 192, 111, 84, 163, 92, 2, 0.651964
131, 3, bw, attraction, a-b-da, 9, 2, 8, 7, 90, 165, 157, 86, 165, 90, 1, 2.04777
131, 3, bw, attraction, a-b-da, 9, 2, 8, 7, 90, 165, 157, 86, 165, 90, 2, 0.580256
131, 3, bw, attraction, a-b-db, 14, 3, 8, 8, 120, 195, 111, 181, 195, 120, 3, 1.20287
131, 3, bw, attraction, a-b-db, 14, 3, 8, 8, 120, 195, 111, 181, 195, 120, 2, 0.305684
131, 3, bw, filler, NA, 999, 999, 8, 9, 72, 121, 102, 106, 139, 182, 3, 0.603525
131, 3, bw, filler, NA, 999, 999, 8, 9, 72, 121, 102, 106, 139, 182, 2, 0.738668
131, 3, bw, attraction, a-b-db, 2, 1, 8, 10, 135, 60, 60, 135, 59, 134, 2, 0.97111
131, 3, bw, attraction, a-b-db, 2, 1, 8, 10, 135, 60, 60, 135, 59, 134, 3, 0.355423
131, 3, bw, filler, NA, 999, 999, 8, 11, 134, 184, 100, 114, 69, 115, 1, 0.611169
131, 3, bw, filler, NA, 999, 999, 8, 11, 134, 184, 100, 114, 69, 115, 2, 0.265619
131, 3, bw, attraction, a-b-db, 9, 1, 8, 12, 135, 60, 57, 129, 60, 135, 2, 1.06899
131, 3, bw, attraction, a-b-db, 9, 1, 8, 12, 135, 60, 57, 129, 60, 135, 1, 0.817279
131, 3, bw, catch, NA, 999, 999, 8, 13, 111, 144, 72, 123, 172, 143, 3, 1.35027
131, 3, bw, catch, NA, 999, 999, 8, 13, 111, 144, 72, 123, 172, 143, 2, 0.776398
131, 3, bw, filler, NA, 999, 999, 8, 14, 74, 75, 167, 70, 75, 145, 2, 0.797496
131, 3, bw, filler, NA, 999, 999, 8, 14, 74, 75, 167, 70, 75, 145, 1, 1.06059
131, 3, bw, attraction, a-b-da, 2, 2, 8, 15, 90, 165, 163, 89, 165, 90, 1, 1.27148
131, 3, bw, attraction, a-b-da, 2, 2, 8, 15, 90, 165, 163, 89, 165, 90, 2, 0.355014
131, 3, bw, attraction, a-b-da, 2, 3, 8, 16, 195, 120, 120, 195, 193, 119, 2, 1.62699
131, 3, bw, attraction, a-b-da, 2, 3, 8, 16, 195, 120, 120, 195, 193, 119, 3, 0.416472
131, 3, bw, attraction, a-b-db, 14, 2, 8, 17, 90, 165, 165, 90, 83, 153, 3, 1.99744
131, 3, bw, attraction, a-b-db, 14, 2, 8, 17, 90, 165, 165, 90, 83, 153, 2, 0.316257
131, 3, bw, attraction, a-b-da, 5, 3, 8, 18, 120, 195, 190, 117, 195, 120, 1, 0.885279
131, 3, bw, attraction, a-b-da, 5, 3, 8, 18, 120, 195, 190, 117, 195, 120, 2, 0.369046
131, 3, bw, attraction, a-b-da, 5, 2, 8, 19, 90, 165, 165, 90, 161, 88, 1, 1.0162
131, 3, bw, attraction, a-b-da, 5, 2, 8, 19, 90, 165, 165, 90, 161, 88, 2, 0.454447
131, 3, bw, attraction, a-b-db, 5, 1, 8, 20, 60, 135, 135, 60, 58, 132, 3, 1.02637
131, 3, bw, attraction, a-b-db, 5, 1, 8, 20, 60, 135, 135, 60, 58, 132, 2, 0.39193
131, 3, bw, attraction, a-b-da, 5, 1, 8, 21, 132, 58, 60, 135, 135, 60, 3, 0.877831
131, 3, bw, attraction, a-b-da, 5, 1, 8, 21, 132, 58, 60, 135, 135, 60, 2, 0.50543
131, 3, bw, filler, NA, 999, 999, 8, 22, 129, 132, 78, 94, 160, 183, 3, 0.851302
131, 3, bw, filler, NA, 999, 999, 8, 22, 129, 132, 78, 94, 160, 183, 2, 0.576476
131, 3, bw, attraction, a-b-db, 14, 1, 8, 23, 135, 60, 60, 135, 56, 125, 2, 1.92679
131, 3, bw, attraction, a-b-db, 14, 1, 8, 23, 135, 60, 60, 135, 56, 125, 3, 0.472138
131, 3, bw, attraction, a-b-db, 2, 3, 8, 24, 120, 195, 119, 193, 195, 120, 3, 0.891242
131, 3, bw, attraction, a-b-db, 2, 3, 8, 24, 120, 195, 119, 193, 195, 120, 2, 0.270192
131, 3, bw, attraction, a-b-da, 14, 2, 8, 25, 165, 90, 153, 83, 90, 165, 1, 0.977389
131, 3, bw, attraction, a-b-da, 14, 2, 8, 25, 165, 90, 153, 83, 90, 165, 2, 0.337051
131, 3, bw, catch, NA, 999, 999, 8, 26, 99, 96, 189, 126, 113, 142, 2, 0.98563
131, 3, bw, catch, NA, 999, 999, 8, 26, 99, 96, 189, 126, 113, 142, 1, 0.369318
131, 3, bw, attraction, a-b-db, 5, 3, 8, 27, 195, 120, 117, 190, 120, 195, 2, 0.960423
131, 3, bw, attraction, a-b-db, 5, 3, 8, 27, 195, 120, 117, 190, 120, 195, 1, 0.544753
131, 3, bw, filler, NA, 999, 999, 8, 28, 165, 136, 110, 167, 66, 131, 1, 1.02461
131, 3, bw, filler, NA, 999, 999, 8, 28, 165, 136, 110, 167, 66, 131, 3, 0.350312
131, 3, bw, attraction, a-b-db, 5, 2, 8, 29, 165, 90, 90, 165, 88, 161, 2, 1.39005
131, 3, bw, attraction, a-b-db, 5, 2, 8, 29, 165, 90, 90, 165, 88, 161, 1, 0.34888
131, 3, bw, filler, NA, 999, 999, 8, 30, 109, 82, 71, 135, 127, 154, 3, 0.636757
131, 3, bw, filler, NA, 999, 999, 8, 30, 109, 82, 71, 135, 127, 154, 2, 0.906844
131, 3, bw, attraction, a-b-da, 9, 3, 8, 31, 120, 195, 195, 120, 186, 114, 2, 0.852168
131, 3, bw, attraction, a-b-da, 9, 3, 8, 31, 120, 195, 195, 120, 186, 114, 3, 0.905333
131, 3, bw, attraction, a-b-db, 9, 3, 8, 32, 120, 195, 114, 186, 195, 120, 1, 1.80298
131, 3, bw, attraction, a-b-db, 9, 3, 8, 32, 120, 195, 114, 186, 195, 120, 3, 0.521684
131, 3, bw, attraction, a-b-db, 9, 2, 8, 33, 86, 157, 165, 90, 90, 165, 3, 1.33088
131, 3, bw, attraction, a-b-db, 9, 2, 8, 33, 86, 157, 165, 90, 90, 165, 2, 0.452296
131, 3, bw, filler, NA, 999, 999, 8, 34, 61, 80, 80, 184, 156, 146, 3, 2.13622
131, 3, bw, filler, NA, 999, 999, 8, 34, 61, 80, 80, 184, 156, 146, 1, 0.497414
131, 3, bw, attraction, a-b-da, 14, 1, 8, 35, 125, 56, 135, 60, 60, 135, 3, 1.01127
131, 3, bw, attraction, a-b-da, 14, 1, 8, 35, 125, 56, 135, 60, 60, 135, 2, 0.369565
131, 3, bw, filler, NA, 999, 999, 8, 36, 101, 69, 160, 106, 80, 69, 2, 0.992735
131, 3, bw, filler, NA, 999, 999, 8, 36, 101, 69, 160, 106, 80, 69, 3, 0.303673
131, 3, bw, filler, NA, 999, 999, 8, 37, 80, 104, 65, 58, 162, 188, 3, 0.697508
131, 3, bw, filler, NA, 999, 999, 8, 37, 80, 104, 65, 58, 162, 188, 2, 0.324724
