sub_n, computer_n, bw_cond, effect, set, distance, diag, block_n, trial_n, h1, w1, h2, w2, h3, w3, choice, rt 
12, 3, wb, practice, NA, 999, 999, 0, 1, 174, 96, 182, 135, 192, 153, 1, 5.1245
12, 3, wb, practice, NA, 999, 999, 0, 1, 174, 96, 182, 135, 192, 153, 3, 6.55775
12, 3, wb, practice, NA, 999, 999, 0, 2, 189, 122, 117, 116, 76, 86, 3, 2.96689
12, 3, wb, practice, NA, 999, 999, 0, 2, 189, 122, 117, 116, 76, 86, 1, 2.00895
12, 3, wb, practice, NA, 999, 999, 0, 3, 112, 90, 149, 110, 188, 82, 1, 4.85751
12, 3, wb, practice, NA, 999, 999, 0, 3, 112, 90, 149, 110, 188, 82, 2, 2.21955
12, 3, wb, attraction, a-b-da, 5, 2, 1, 1, 165, 90, 90, 165, 161, 88, 3, 5.77519
12, 3, wb, attraction, a-b-da, 5, 2, 1, 1, 165, 90, 90, 165, 161, 88, 2, 1.46976
12, 3, wb, catch, NA, 999, 999, 1, 2, 129, 186, 101, 154, 62, 133, 3, 2.281
12, 3, wb, catch, NA, 999, 999, 1, 2, 129, 186, 101, 154, 62, 133, 1, 1.34081
12, 3, wb, attraction, a-b-db, 9, 3, 1, 3, 195, 120, 120, 195, 114, 186, 3, 6.56249
12, 3, wb, attraction, a-b-db, 9, 3, 1, 3, 195, 120, 120, 195, 114, 186, 1, 1.779
12, 3, wb, filler, NA, 999, 999, 1, 4, 150, 165, 101, 169, 90, 118, 3, 2.67999
12, 3, wb, filler, NA, 999, 999, 1, 4, 150, 165, 101, 169, 90, 118, 1, 2.21319
12, 3, wb, catch, NA, 999, 999, 1, 5, 106, 149, 72, 123, 153, 162, 2, 2.07546
12, 3, wb, catch, NA, 999, 999, 1, 5, 106, 149, 72, 123, 153, 162, 3, 1.35806
12, 3, wb, attraction, a-b-db, 2, 1, 1, 6, 59, 134, 60, 135, 135, 60, 1, 1.5978
12, 3, wb, attraction, a-b-db, 2, 1, 1, 6, 59, 134, 60, 135, 135, 60, 3, 1.88427
12, 3, wb, attraction, a-b-da, 2, 2, 1, 7, 165, 90, 90, 165, 163, 89, 3, 4.07066
12, 3, wb, attraction, a-b-da, 2, 2, 1, 7, 165, 90, 90, 165, 163, 89, 2, 4.33698
12, 3, wb, filler, NA, 999, 999, 1, 8, 71, 133, 117, 115, 106, 104, 1, 1.77677
12, 3, wb, filler, NA, 999, 999, 1, 8, 71, 133, 117, 115, 106, 104, 2, 1.9991
12, 3, wb, attraction, a-b-db, 5, 3, 1, 9, 117, 190, 195, 120, 120, 195, 1, 3.80644
12, 3, wb, attraction, a-b-db, 5, 3, 1, 9, 117, 190, 195, 120, 120, 195, 2, 1.97128
12, 3, wb, filler, NA, 999, 999, 1, 10, 89, 77, 98, 56, 122, 122, 1, 1.37916
12, 3, wb, filler, NA, 999, 999, 1, 10, 89, 77, 98, 56, 122, 122, 3, 0.770802
12, 3, wb, attraction, a-b-da, 14, 3, 1, 11, 120, 195, 181, 111, 195, 120, 1, 3.73596
12, 3, wb, attraction, a-b-da, 14, 3, 1, 11, 120, 195, 181, 111, 195, 120, 3, 1.26641
12, 3, wb, attraction, a-b-da, 2, 3, 1, 12, 193, 119, 120, 195, 195, 120, 1, 4.48531
12, 3, wb, attraction, a-b-da, 2, 3, 1, 12, 193, 119, 120, 195, 195, 120, 3, 2.03013
12, 3, wb, attraction, a-b-da, 2, 1, 1, 13, 134, 59, 135, 60, 60, 135, 1, 2.42156
12, 3, wb, attraction, a-b-da, 2, 1, 1, 13, 134, 59, 135, 60, 60, 135, 2, 2.79321
12, 3, wb, attraction, a-b-da, 9, 1, 1, 14, 135, 60, 60, 135, 129, 57, 3, 3.03185
12, 3, wb, attraction, a-b-da, 9, 1, 1, 14, 135, 60, 60, 135, 129, 57, 2, 1.02712
12, 3, wb, attraction, a-b-da, 9, 2, 1, 15, 165, 90, 90, 165, 157, 86, 1, 2.36197
12, 3, wb, attraction, a-b-da, 9, 2, 1, 15, 165, 90, 90, 165, 157, 86, 3, 2.26622
12, 3, wb, attraction, a-b-da, 5, 1, 1, 16, 132, 58, 60, 135, 135, 60, 1, 2.64572
12, 3, wb, attraction, a-b-da, 5, 1, 1, 16, 132, 58, 60, 135, 135, 60, 3, 0.824572
12, 3, wb, attraction, a-b-db, 14, 3, 1, 17, 111, 181, 195, 120, 120, 195, 1, 1.49592
12, 3, wb, attraction, a-b-db, 14, 3, 1, 17, 111, 181, 195, 120, 120, 195, 2, 1.27494
12, 3, wb, filler, NA, 999, 999, 1, 18, 150, 194, 115, 95, 153, 159, 2, 2.24337
12, 3, wb, filler, NA, 999, 999, 1, 18, 150, 194, 115, 95, 153, 159, 1, 1.63287
12, 3, wb, filler, NA, 999, 999, 1, 19, 126, 100, 138, 91, 148, 131, 1, 2.35767
12, 3, wb, filler, NA, 999, 999, 1, 19, 126, 100, 138, 91, 148, 131, 3, 0.783712
12, 3, wb, catch, NA, 999, 999, 1, 20, 132, 63, 126, 129, 122, 193, 1, 1.85141
12, 3, wb, catch, NA, 999, 999, 1, 20, 132, 63, 126, 129, 122, 193, 3, 1.05888
12, 3, wb, filler, NA, 999, 999, 1, 21, 143, 120, 110, 83, 97, 132, 2, 1.58122
12, 3, wb, filler, NA, 999, 999, 1, 21, 143, 120, 110, 83, 97, 132, 1, 0.780855
12, 3, wb, attraction, a-b-db, 5, 2, 1, 22, 88, 161, 90, 165, 165, 90, 1, 2.71674
12, 3, wb, attraction, a-b-db, 5, 2, 1, 22, 88, 161, 90, 165, 165, 90, 3, 0.77318
12, 3, wb, attraction, a-b-da, 9, 3, 1, 23, 120, 195, 186, 114, 195, 120, 1, 4.26023
12, 3, wb, attraction, a-b-da, 9, 3, 1, 23, 120, 195, 186, 114, 195, 120, 2, 1.93677
12, 3, wb, filler, NA, 999, 999, 1, 24, 178, 103, 153, 93, 81, 160, 3, 2.64676
12, 3, wb, filler, NA, 999, 999, 1, 24, 178, 103, 153, 93, 81, 160, 1, 3.06839
12, 3, wb, filler, NA, 999, 999, 1, 25, 191, 117, 73, 87, 95, 66, 2, 2.55012
12, 3, wb, filler, NA, 999, 999, 1, 25, 191, 117, 73, 87, 95, 66, 1, 1.93654
12, 3, wb, attraction, a-b-da, 14, 2, 1, 26, 90, 165, 165, 90, 153, 83, 3, 4.8463
12, 3, wb, attraction, a-b-da, 14, 2, 1, 26, 90, 165, 165, 90, 153, 83, 1, 2.43506
12, 3, wb, attraction, a-b-da, 5, 3, 1, 27, 195, 120, 120, 195, 190, 117, 2, 5.95032
12, 3, wb, attraction, a-b-da, 5, 3, 1, 27, 195, 120, 120, 195, 190, 117, 1, 1.19228
12, 3, wb, attraction, a-b-db, 14, 1, 1, 28, 60, 135, 135, 60, 56, 125, 1, 1.78923
12, 3, wb, attraction, a-b-db, 14, 1, 1, 28, 60, 135, 135, 60, 56, 125, 3, 1.65388
12, 3, wb, attraction, a-b-da, 14, 1, 1, 29, 135, 60, 125, 56, 60, 135, 3, 2.4213
12, 3, wb, attraction, a-b-da, 14, 1, 1, 29, 135, 60, 125, 56, 60, 135, 1, 0.893921
12, 3, wb, filler, NA, 999, 999, 1, 30, 109, 67, 171, 161, 94, 98, 1, 1.44098
12, 3, wb, filler, NA, 999, 999, 1, 30, 109, 67, 171, 161, 94, 98, 2, 1.00671
12, 3, wb, attraction, a-b-db, 2, 2, 1, 31, 89, 163, 165, 90, 90, 165, 3, 3.85901
12, 3, wb, attraction, a-b-db, 2, 2, 1, 31, 89, 163, 165, 90, 90, 165, 2, 0.869
12, 3, wb, attraction, a-b-db, 5, 1, 1, 32, 58, 132, 135, 60, 60, 135, 1, 1.30747
12, 3, wb, attraction, a-b-db, 5, 1, 1, 32, 58, 132, 135, 60, 60, 135, 3, 1.66831
12, 3, wb, attraction, a-b-db, 9, 2, 1, 33, 165, 90, 90, 165, 86, 157, 2, 3.71082
12, 3, wb, attraction, a-b-db, 9, 2, 1, 33, 165, 90, 90, 165, 86, 157, 1, 5.88879
12, 3, wb, filler, NA, 999, 999, 1, 34, 144, 163, 147, 146, 133, 82, 3, 1.84835
12, 3, wb, filler, NA, 999, 999, 1, 34, 144, 163, 147, 146, 133, 82, 1, 1.23277
12, 3, wb, attraction, a-b-db, 2, 3, 1, 35, 119, 193, 120, 195, 195, 120, 2, 4.80379
12, 3, wb, attraction, a-b-db, 2, 3, 1, 35, 119, 193, 120, 195, 195, 120, 1, 1.62469
12, 3, wb, attraction, a-b-db, 9, 1, 1, 36, 60, 135, 57, 129, 135, 60, 1, 1.43736
12, 3, wb, attraction, a-b-db, 9, 1, 1, 36, 60, 135, 57, 129, 135, 60, 3, 0.754591
12, 3, wb, attraction, a-b-db, 14, 2, 1, 37, 90, 165, 83, 153, 165, 90, 3, 1.81006
12, 3, wb, attraction, a-b-db, 14, 2, 1, 37, 90, 165, 83, 153, 165, 90, 1, 0.84077
12, 3, wb, filler, NA, 999, 999, 2, 1, 71, 121, 132, 159, 56, 150, 1, 1.22235
12, 3, wb, filler, NA, 999, 999, 2, 1, 71, 121, 132, 159, 56, 150, 2, 0.602896
12, 3, wb, filler, NA, 999, 999, 2, 2, 129, 65, 179, 190, 171, 160, 1, 1.96339
12, 3, wb, filler, NA, 999, 999, 2, 2, 129, 65, 179, 190, 171, 160, 2, 2.41768
12, 3, wb, attraction, a-b-db, 5, 3, 2, 3, 117, 190, 195, 120, 120, 195, 1, 2.11898
12, 3, wb, attraction, a-b-db, 5, 3, 2, 3, 117, 190, 195, 120, 120, 195, 2, 3.73781
12, 3, wb, attraction, a-b-db, 2, 1, 2, 4, 59, 134, 60, 135, 135, 60, 1, 1.51232
12, 3, wb, attraction, a-b-db, 2, 1, 2, 4, 59, 134, 60, 135, 135, 60, 3, 2.53057
12, 3, wb, filler, NA, 999, 999, 2, 5, 116, 164, 72, 143, 147, 136, 2, 2.44933
12, 3, wb, filler, NA, 999, 999, 2, 5, 116, 164, 72, 143, 147, 136, 3, 1.01549
12, 3, wb, attraction, a-b-db, 2, 2, 2, 6, 90, 165, 89, 163, 165, 90, 1, 3.60389
12, 3, wb, attraction, a-b-db, 2, 2, 2, 6, 90, 165, 89, 163, 165, 90, 3, 0.908097
12, 3, wb, attraction, a-b-da, 9, 1, 2, 7, 129, 57, 135, 60, 60, 135, 1, 2.18715
12, 3, wb, attraction, a-b-da, 9, 1, 2, 7, 129, 57, 135, 60, 60, 135, 3, 0.714279
12, 3, wb, attraction, a-b-db, 14, 1, 2, 8, 60, 135, 135, 60, 56, 125, 3, 4.12616
12, 3, wb, attraction, a-b-db, 14, 1, 2, 8, 60, 135, 135, 60, 56, 125, 2, 1.18083
12, 3, wb, filler, NA, 999, 999, 2, 9, 64, 178, 76, 173, 195, 91, 2, 2.91864
12, 3, wb, filler, NA, 999, 999, 2, 9, 64, 178, 76, 173, 195, 91, 3, 1.7426
12, 3, wb, attraction, a-b-db, 14, 2, 2, 10, 90, 165, 83, 153, 165, 90, 1, 3.25398
12, 3, wb, attraction, a-b-db, 14, 2, 2, 10, 90, 165, 83, 153, 165, 90, 3, 0.699445
12, 3, wb, attraction, a-b-da, 9, 3, 2, 11, 195, 120, 186, 114, 120, 195, 1, 2.80643
12, 3, wb, attraction, a-b-da, 9, 3, 2, 11, 195, 120, 186, 114, 120, 195, 3, 0.803098
12, 3, wb, attraction, a-b-da, 9, 2, 2, 12, 165, 90, 157, 86, 90, 165, 2, 1.71244
12, 3, wb, attraction, a-b-da, 9, 2, 2, 12, 165, 90, 157, 86, 90, 165, 3, 2.02687
12, 3, wb, attraction, a-b-da, 14, 2, 2, 13, 165, 90, 90, 165, 153, 83, 1, 3.4158
12, 3, wb, attraction, a-b-da, 14, 2, 2, 13, 165, 90, 90, 165, 153, 83, 3, 1.27825
12, 3, wb, catch, NA, 999, 999, 2, 14, 110, 145, 100, 95, 168, 147, 2, 1.79254
12, 3, wb, catch, NA, 999, 999, 2, 14, 110, 145, 100, 95, 168, 147, 3, 0.769497
12, 3, wb, attraction, a-b-da, 5, 2, 2, 15, 165, 90, 161, 88, 90, 165, 1, 4.34152
12, 3, wb, attraction, a-b-da, 5, 2, 2, 15, 165, 90, 161, 88, 90, 165, 3, 0.759473
12, 3, wb, attraction, a-b-db, 5, 1, 2, 16, 135, 60, 60, 135, 58, 132, 1, 1.98375
12, 3, wb, attraction, a-b-db, 5, 1, 2, 16, 135, 60, 60, 135, 58, 132, 2, 0.783326
12, 3, wb, attraction, a-b-da, 2, 1, 2, 17, 60, 135, 134, 59, 135, 60, 3, 1.64463
12, 3, wb, attraction, a-b-da, 2, 1, 2, 17, 60, 135, 134, 59, 135, 60, 1, 1.54698
12, 3, wb, filler, NA, 999, 999, 2, 18, 56, 178, 140, 155, 171, 174, 1, 1.42764
12, 3, wb, filler, NA, 999, 999, 2, 18, 56, 178, 140, 155, 171, 174, 3, 0.783715
12, 3, wb, attraction, a-b-db, 9, 2, 2, 19, 86, 157, 165, 90, 90, 165, 1, 4.1648
12, 3, wb, attraction, a-b-db, 9, 2, 2, 19, 86, 157, 165, 90, 90, 165, 2, 0.573222
12, 3, wb, attraction, a-b-da, 2, 3, 2, 20, 193, 119, 120, 195, 195, 120, 1, 2.77265
12, 3, wb, attraction, a-b-da, 2, 3, 2, 20, 193, 119, 120, 195, 195, 120, 2, 0.715976
12, 3, wb, filler, NA, 999, 999, 2, 21, 180, 72, 145, 95, 133, 140, 1, 1.11744
12, 3, wb, filler, NA, 999, 999, 2, 21, 180, 72, 145, 95, 133, 140, 3, 0.752871
12, 3, wb, filler, NA, 999, 999, 2, 22, 98, 112, 153, 60, 107, 168, 1, 5.37669
12, 3, wb, filler, NA, 999, 999, 2, 22, 98, 112, 153, 60, 107, 168, 3, 0.807566
12, 3, wb, attraction, a-b-da, 14, 3, 2, 23, 181, 111, 120, 195, 195, 120, 1, 8.46137
12, 3, wb, attraction, a-b-da, 14, 3, 2, 23, 181, 111, 120, 195, 195, 120, 2, 0.814285
12, 3, wb, attraction, a-b-da, 14, 1, 2, 24, 135, 60, 125, 56, 60, 135, 1, 5.47014
12, 3, wb, attraction, a-b-da, 14, 1, 2, 24, 135, 60, 125, 56, 60, 135, 3, 0.751619
12, 3, wb, catch, NA, 999, 999, 2, 25, 107, 88, 145, 110, 192, 123, 1, 1.39963
12, 3, wb, catch, NA, 999, 999, 2, 25, 107, 88, 145, 110, 192, 123, 3, 0.724631
12, 3, wb, attraction, a-b-db, 9, 1, 2, 26, 57, 129, 60, 135, 135, 60, 1, 2.04683
12, 3, wb, attraction, a-b-db, 9, 1, 2, 26, 57, 129, 60, 135, 135, 60, 3, 0.6928
12, 3, wb, attraction, a-b-da, 2, 2, 2, 27, 163, 89, 165, 90, 90, 165, 1, 2.89424
12, 3, wb, attraction, a-b-da, 2, 2, 2, 27, 163, 89, 165, 90, 90, 165, 3, 0.729925
12, 3, wb, catch, NA, 999, 999, 2, 28, 155, 100, 89, 106, 150, 165, 2, 1.22523
12, 3, wb, catch, NA, 999, 999, 2, 28, 155, 100, 89, 106, 150, 165, 3, 0.73547
12, 3, wb, filler, NA, 999, 999, 2, 29, 65, 175, 182, 127, 123, 158, 1, 1.23408
12, 3, wb, filler, NA, 999, 999, 2, 29, 65, 175, 182, 127, 123, 158, 2, 1.02332
12, 3, wb, attraction, a-b-db, 14, 3, 2, 30, 120, 195, 195, 120, 111, 181, 1, 2.53912
12, 3, wb, attraction, a-b-db, 14, 3, 2, 30, 120, 195, 195, 120, 111, 181, 2, 1.02041
12, 3, wb, filler, NA, 999, 999, 2, 31, 83, 162, 133, 177, 137, 119, 1, 1.24974
12, 3, wb, filler, NA, 999, 999, 2, 31, 83, 162, 133, 177, 137, 119, 2, 0.613982
12, 3, wb, attraction, a-b-db, 2, 3, 2, 32, 120, 195, 119, 193, 195, 120, 2, 2.05363
12, 3, wb, attraction, a-b-db, 2, 3, 2, 32, 120, 195, 119, 193, 195, 120, 1, 0.827001
12, 3, wb, attraction, a-b-da, 5, 1, 2, 33, 60, 135, 135, 60, 132, 58, 1, 2.446
12, 3, wb, attraction, a-b-da, 5, 1, 2, 33, 60, 135, 135, 60, 132, 58, 3, 0.713324
12, 3, wb, attraction, a-b-db, 9, 3, 2, 34, 114, 186, 195, 120, 120, 195, 1, 1.85901
12, 3, wb, attraction, a-b-db, 9, 3, 2, 34, 114, 186, 195, 120, 120, 195, 2, 0.521032
12, 3, wb, attraction, a-b-da, 5, 3, 2, 35, 190, 117, 195, 120, 120, 195, 2, 5.07273
12, 3, wb, attraction, a-b-da, 5, 3, 2, 35, 190, 117, 195, 120, 120, 195, 3, 0.805464
12, 3, wb, filler, NA, 999, 999, 2, 36, 139, 191, 160, 91, 134, 164, 2, 1.81799
12, 3, wb, filler, NA, 999, 999, 2, 36, 139, 191, 160, 91, 134, 164, 1, 0.841768
12, 3, wb, attraction, a-b-db, 5, 2, 2, 37, 90, 165, 165, 90, 88, 161, 1, 1.44514
12, 3, wb, attraction, a-b-db, 5, 2, 2, 37, 90, 165, 165, 90, 88, 161, 2, 1.19494
12, 3, wb, attraction, a-b-db, 9, 2, 3, 1, 165, 90, 90, 165, 86, 157, 1, 1.56795
12, 3, wb, attraction, a-b-db, 9, 2, 3, 1, 165, 90, 90, 165, 86, 157, 2, 2.2499
12, 3, wb, attraction, a-b-da, 14, 3, 3, 2, 181, 111, 120, 195, 195, 120, 3, 4.01418
12, 3, wb, attraction, a-b-da, 14, 3, 3, 2, 181, 111, 120, 195, 195, 120, 2, 0.633871
12, 3, wb, attraction, a-b-da, 14, 2, 3, 3, 165, 90, 90, 165, 153, 83, 3, 2.30155
12, 3, wb, attraction, a-b-da, 14, 2, 3, 3, 165, 90, 90, 165, 153, 83, 1, 2.47216
12, 3, wb, filler, NA, 999, 999, 3, 4, 187, 138, 67, 87, 88, 93, 2, 1.65903
12, 3, wb, filler, NA, 999, 999, 3, 4, 187, 138, 67, 87, 88, 93, 1, 0.582542
12, 3, wb, attraction, a-b-db, 14, 1, 3, 5, 135, 60, 60, 135, 56, 125, 3, 2.22183
12, 3, wb, attraction, a-b-db, 14, 1, 3, 5, 135, 60, 60, 135, 56, 125, 2, 1.22769
12, 3, wb, filler, NA, 999, 999, 3, 6, 128, 103, 58, 94, 169, 105, 2, 1.62406
12, 3, wb, filler, NA, 999, 999, 3, 6, 128, 103, 58, 94, 169, 105, 3, 0.702606
12, 3, wb, attraction, a-b-db, 14, 3, 3, 7, 111, 181, 195, 120, 120, 195, 1, 4.51282
12, 3, wb, attraction, a-b-db, 14, 3, 3, 7, 111, 181, 195, 120, 120, 195, 3, 1.20192
12, 3, wb, attraction, a-b-db, 2, 1, 3, 8, 59, 134, 60, 135, 135, 60, 1, 4.23331
12, 3, wb, attraction, a-b-db, 2, 1, 3, 8, 59, 134, 60, 135, 135, 60, 3, 1.8381
12, 3, wb, catch, NA, 999, 999, 3, 9, 143, 112, 125, 70, 183, 132, 2, 1.17639
12, 3, wb, catch, NA, 999, 999, 3, 9, 143, 112, 125, 70, 183, 132, 3, 0.75399
12, 3, wb, attraction, a-b-da, 14, 1, 3, 10, 135, 60, 60, 135, 125, 56, 3, 1.74571
12, 3, wb, attraction, a-b-da, 14, 1, 3, 10, 135, 60, 60, 135, 125, 56, 1, 1.30333
12, 3, wb, catch, NA, 999, 999, 3, 11, 141, 174, 101, 154, 130, 65, 3, 1.32598
12, 3, wb, catch, NA, 999, 999, 3, 11, 141, 174, 101, 154, 130, 65, 1, 0.700248
12, 3, wb, attraction, a-b-db, 2, 3, 3, 12, 120, 195, 119, 193, 195, 120, 3, 2.26942
12, 3, wb, attraction, a-b-db, 2, 3, 3, 12, 120, 195, 119, 193, 195, 120, 1, 0.963453
12, 3, wb, attraction, a-b-da, 5, 2, 3, 13, 90, 165, 161, 88, 165, 90, 3, 1.89157
12, 3, wb, attraction, a-b-da, 5, 2, 3, 13, 90, 165, 161, 88, 165, 90, 2, 1.39104
12, 3, wb, filler, NA, 999, 999, 3, 14, 191, 163, 77, 79, 64, 113, 2, 1.55806
12, 3, wb, filler, NA, 999, 999, 3, 14, 191, 163, 77, 79, 64, 113, 1, 0.700568
12, 3, wb, filler, NA, 999, 999, 3, 15, 193, 181, 192, 129, 87, 114, 3, 1.38292
12, 3, wb, filler, NA, 999, 999, 3, 15, 193, 181, 192, 129, 87, 114, 1, 0.687039
12, 3, wb, attraction, a-b-da, 9, 2, 3, 16, 90, 165, 165, 90, 157, 86, 3, 1.546
12, 3, wb, attraction, a-b-da, 9, 2, 3, 16, 90, 165, 165, 90, 157, 86, 1, 1.67236
12, 3, wb, attraction, a-b-db, 5, 3, 3, 17, 120, 195, 117, 190, 195, 120, 1, 3.91709
12, 3, wb, attraction, a-b-db, 5, 3, 3, 17, 120, 195, 117, 190, 195, 120, 3, 1.53446
12, 3, wb, attraction, a-b-da, 5, 3, 3, 18, 120, 195, 195, 120, 190, 117, 1, 2.23091
12, 3, wb, attraction, a-b-da, 5, 3, 3, 18, 120, 195, 195, 120, 190, 117, 2, 0.755728
12, 3, wb, attraction, a-b-da, 2, 3, 3, 19, 120, 195, 195, 120, 193, 119, 1, 2.18679
12, 3, wb, attraction, a-b-da, 2, 3, 3, 19, 120, 195, 195, 120, 193, 119, 3, 0.539138
12, 3, wb, filler, NA, 999, 999, 3, 20, 57, 113, 139, 101, 70, 108, 1, 1.19534
12, 3, wb, filler, NA, 999, 999, 3, 20, 57, 113, 139, 101, 70, 108, 2, 0.747382
12, 3, wb, attraction, a-b-da, 2, 1, 3, 21, 60, 135, 135, 60, 134, 59, 1, 1.4001
12, 3, wb, attraction, a-b-da, 2, 1, 3, 21, 60, 135, 135, 60, 134, 59, 3, 1.27272
12, 3, wb, attraction, a-b-da, 2, 2, 3, 22, 163, 89, 165, 90, 90, 165, 1, 7.91648
12, 3, wb, attraction, a-b-da, 2, 2, 3, 22, 163, 89, 165, 90, 90, 165, 2, 1.28354
12, 3, wb, catch, NA, 999, 999, 3, 23, 87, 108, 104, 151, 154, 161, 1, 1.21476
12, 3, wb, catch, NA, 999, 999, 3, 23, 87, 108, 104, 151, 154, 161, 3, 1.26658
12, 3, wb, filler, NA, 999, 999, 3, 24, 93, 166, 138, 98, 184, 158, 2, 2.98405
12, 3, wb, filler, NA, 999, 999, 3, 24, 93, 166, 138, 98, 184, 158, 3, 0.7031
12, 3, wb, attraction, a-b-db, 14, 2, 3, 25, 83, 153, 90, 165, 165, 90, 1, 1.33838
12, 3, wb, attraction, a-b-db, 14, 2, 3, 25, 83, 153, 90, 165, 165, 90, 2, 1.52082
12, 3, wb, attraction, a-b-db, 5, 2, 3, 26, 88, 161, 90, 165, 165, 90, 1, 1.35266
12, 3, wb, attraction, a-b-db, 5, 2, 3, 26, 88, 161, 90, 165, 165, 90, 2, 1.32419
12, 3, wb, attraction, a-b-db, 9, 1, 3, 27, 135, 60, 60, 135, 57, 129, 1, 2.46114
12, 3, wb, attraction, a-b-db, 9, 1, 3, 27, 135, 60, 60, 135, 57, 129, 2, 1.80082
12, 3, wb, attraction, a-b-db, 2, 2, 3, 28, 89, 163, 90, 165, 165, 90, 1, 3.4923
12, 3, wb, attraction, a-b-db, 2, 2, 3, 28, 89, 163, 90, 165, 165, 90, 3, 0.689071
12, 3, wb, attraction, a-b-da, 9, 1, 3, 29, 135, 60, 129, 57, 60, 135, 3, 5.96946
12, 3, wb, attraction, a-b-da, 9, 1, 3, 29, 135, 60, 129, 57, 60, 135, 1, 1.4266
12, 3, wb, filler, NA, 999, 999, 3, 30, 112, 190, 155, 73, 127, 64, 3, 1.92585
12, 3, wb, filler, NA, 999, 999, 3, 30, 112, 190, 155, 73, 127, 64, 1, 0.720101
12, 3, wb, attraction, a-b-db, 9, 3, 3, 31, 120, 195, 195, 120, 114, 186, 3, 2.02544
12, 3, wb, attraction, a-b-db, 9, 3, 3, 31, 120, 195, 195, 120, 114, 186, 1, 0.992482
12, 3, wb, attraction, a-b-da, 9, 3, 3, 32, 195, 120, 186, 114, 120, 195, 3, 2.81344
12, 3, wb, attraction, a-b-da, 9, 3, 3, 32, 195, 120, 186, 114, 120, 195, 1, 0.86893
12, 3, wb, attraction, a-b-db, 5, 1, 3, 33, 58, 132, 60, 135, 135, 60, 1, 2.35713
12, 3, wb, attraction, a-b-db, 5, 1, 3, 33, 58, 132, 60, 135, 135, 60, 3, 1.36519
12, 3, wb, attraction, a-b-da, 5, 1, 3, 34, 60, 135, 135, 60, 132, 58, 1, 1.78967
12, 3, wb, attraction, a-b-da, 5, 1, 3, 34, 60, 135, 135, 60, 132, 58, 3, 0.886044
12, 3, wb, filler, NA, 999, 999, 3, 35, 181, 63, 165, 159, 86, 163, 1, 2.79329
12, 3, wb, filler, NA, 999, 999, 3, 35, 181, 63, 165, 159, 86, 163, 3, 2.71843
12, 3, wb, filler, NA, 999, 999, 3, 36, 100, 129, 195, 102, 179, 84, 1, 1.37488
12, 3, wb, filler, NA, 999, 999, 3, 36, 100, 129, 195, 102, 179, 84, 2, 2.89515
12, 3, wb, filler, NA, 999, 999, 3, 37, 88, 71, 117, 115, 146, 142, 1, 1.21076
12, 3, wb, filler, NA, 999, 999, 3, 37, 88, 71, 117, 115, 146, 142, 3, 0.791212
12, 3, wb, attraction, a-b-da, 9, 2, 4, 1, 157, 86, 90, 165, 165, 90, 2, 2.24547
12, 3, wb, attraction, a-b-da, 9, 2, 4, 1, 157, 86, 90, 165, 165, 90, 1, 0.748442
12, 3, wb, catch, NA, 999, 999, 4, 2, 183, 132, 129, 66, 111, 144, 2, 1.24353
12, 3, wb, catch, NA, 999, 999, 4, 2, 183, 132, 129, 66, 111, 144, 1, 0.673489
12, 3, wb, filler, NA, 999, 999, 4, 3, 102, 150, 59, 130, 117, 173, 2, 1.05898
12, 3, wb, filler, NA, 999, 999, 4, 3, 102, 150, 59, 130, 117, 173, 3, 0.657412
12, 3, wb, attraction, a-b-da, 5, 3, 4, 4, 195, 120, 190, 117, 120, 195, 2, 5.33377
12, 3, wb, attraction, a-b-da, 5, 3, 4, 4, 195, 120, 190, 117, 120, 195, 1, 1.57211
12, 3, wb, attraction, a-b-db, 9, 3, 4, 5, 120, 195, 114, 186, 195, 120, 2, 4.73902
12, 3, wb, attraction, a-b-db, 9, 3, 4, 5, 120, 195, 114, 186, 195, 120, 1, 0.715593
12, 3, wb, filler, NA, 999, 999, 4, 6, 131, 126, 147, 126, 168, 138, 2, 2.91582
12, 3, wb, filler, NA, 999, 999, 4, 6, 131, 126, 147, 126, 168, 138, 3, 0.908599
12, 3, wb, attraction, a-b-db, 9, 1, 4, 7, 57, 129, 135, 60, 60, 135, 2, 3.24705
12, 3, wb, attraction, a-b-db, 9, 1, 4, 7, 57, 129, 135, 60, 60, 135, 3, 1.05385
12, 3, wb, catch, NA, 999, 999, 4, 8, 66, 129, 102, 153, 135, 180, 1, 1.41613
12, 3, wb, catch, NA, 999, 999, 4, 8, 66, 129, 102, 153, 135, 180, 3, 0.975011
12, 3, wb, filler, NA, 999, 999, 4, 9, 72, 193, 150, 82, 59, 89, 3, 1.50774
12, 3, wb, filler, NA, 999, 999, 4, 9, 72, 193, 150, 82, 59, 89, 1, 0.784548
12, 3, wb, attraction, a-b-da, 14, 2, 4, 10, 90, 165, 165, 90, 153, 83, 3, 1.71137
12, 3, wb, attraction, a-b-da, 14, 2, 4, 10, 90, 165, 165, 90, 153, 83, 1, 1.08879
12, 3, wb, attraction, a-b-da, 5, 1, 4, 11, 132, 58, 60, 135, 135, 60, 1, 1.99675
12, 3, wb, attraction, a-b-da, 5, 1, 4, 11, 132, 58, 60, 135, 135, 60, 2, 1.07155
12, 3, wb, attraction, a-b-da, 2, 3, 4, 12, 195, 120, 193, 119, 120, 195, 3, 3.20357
12, 3, wb, attraction, a-b-da, 2, 3, 4, 12, 195, 120, 193, 119, 120, 195, 1, 0.721706
12, 3, wb, filler, NA, 999, 999, 4, 13, 159, 176, 94, 106, 104, 78, 3, 1.87416
12, 3, wb, filler, NA, 999, 999, 4, 13, 159, 176, 94, 106, 104, 78, 1, 0.696543
12, 3, wb, attraction, a-b-db, 14, 2, 4, 14, 90, 165, 165, 90, 83, 153, 3, 1.65845
12, 3, wb, attraction, a-b-db, 14, 2, 4, 14, 90, 165, 165, 90, 83, 153, 1, 0.814425
12, 3, wb, attraction, a-b-db, 5, 1, 4, 15, 58, 132, 60, 135, 135, 60, 1, 1.24513
12, 3, wb, attraction, a-b-db, 5, 1, 4, 15, 58, 132, 60, 135, 135, 60, 2, 1.25032
12, 3, wb, filler, NA, 999, 999, 4, 16, 142, 108, 189, 176, 119, 101, 3, 1.5893
12, 3, wb, filler, NA, 999, 999, 4, 16, 142, 108, 189, 176, 119, 101, 2, 0.646214
12, 3, wb, attraction, a-b-db, 9, 2, 4, 17, 86, 157, 165, 90, 90, 165, 1, 2.3363
12, 3, wb, attraction, a-b-db, 9, 2, 4, 17, 86, 157, 165, 90, 90, 165, 3, 1.12454
12, 3, wb, attraction, a-b-da, 9, 1, 4, 18, 129, 57, 135, 60, 60, 135, 1, 2.40389
12, 3, wb, attraction, a-b-da, 9, 1, 4, 18, 129, 57, 135, 60, 60, 135, 3, 0.994986
12, 3, wb, catch, NA, 999, 999, 4, 19, 72, 123, 191, 124, 120, 135, 1, 1.08729
12, 3, wb, catch, NA, 999, 999, 4, 19, 72, 123, 191, 124, 120, 135, 2, 0.532388
12, 3, wb, filler, NA, 999, 999, 4, 20, 73, 108, 111, 71, 164, 120, 1, 1.19731
12, 3, wb, filler, NA, 999, 999, 4, 20, 73, 108, 111, 71, 164, 120, 3, 0.691577
12, 3, wb, filler, NA, 999, 999, 4, 21, 185, 180, 66, 120, 98, 158, 2, 1.15889
12, 3, wb, filler, NA, 999, 999, 4, 21, 185, 180, 66, 120, 98, 158, 1, 0.669866
12, 3, wb, attraction, a-b-da, 2, 1, 4, 22, 135, 60, 134, 59, 60, 135, 3, 1.87405
12, 3, wb, attraction, a-b-da, 2, 1, 4, 22, 135, 60, 134, 59, 60, 135, 1, 0.820595
12, 3, wb, attraction, a-b-db, 5, 2, 4, 23, 165, 90, 90, 165, 88, 161, 3, 1.47653
12, 3, wb, attraction, a-b-db, 5, 2, 4, 23, 165, 90, 90, 165, 88, 161, 1, 0.550196
12, 3, wb, attraction, a-b-db, 14, 1, 4, 24, 56, 125, 60, 135, 135, 60, 3, 1.30081
12, 3, wb, attraction, a-b-db, 14, 1, 4, 24, 56, 125, 60, 135, 135, 60, 1, 1.44062
12, 3, wb, attraction, a-b-db, 5, 3, 4, 25, 195, 120, 120, 195, 117, 190, 2, 4.13341
12, 3, wb, attraction, a-b-db, 5, 3, 4, 25, 195, 120, 120, 195, 117, 190, 1, 1.65334
12, 3, wb, attraction, a-b-db, 14, 3, 4, 26, 111, 181, 195, 120, 120, 195, 1, 1.62572
12, 3, wb, attraction, a-b-db, 14, 3, 4, 26, 111, 181, 195, 120, 120, 195, 2, 0.832959
12, 3, wb, filler, NA, 999, 999, 4, 27, 90, 121, 161, 65, 182, 138, 1, 2.88232
12, 3, wb, filler, NA, 999, 999, 4, 27, 90, 121, 161, 65, 182, 138, 3, 1.54943
12, 3, wb, attraction, a-b-da, 9, 3, 4, 28, 186, 114, 120, 195, 195, 120, 2, 4.4765
12, 3, wb, attraction, a-b-da, 9, 3, 4, 28, 186, 114, 120, 195, 195, 120, 3, 0.760826
12, 3, wb, attraction, a-b-da, 14, 1, 4, 29, 125, 56, 135, 60, 60, 135, 3, 4.54539
12, 3, wb, attraction, a-b-da, 14, 1, 4, 29, 125, 56, 135, 60, 60, 135, 1, 1.01082
12, 3, wb, attraction, a-b-da, 2, 2, 4, 30, 90, 165, 163, 89, 165, 90, 1, 1.70395
12, 3, wb, attraction, a-b-da, 2, 2, 4, 30, 90, 165, 163, 89, 165, 90, 3, 0.745965
12, 3, wb, attraction, a-b-db, 2, 3, 4, 31, 120, 195, 195, 120, 119, 193, 3, 3.54074
12, 3, wb, attraction, a-b-db, 2, 3, 4, 31, 120, 195, 195, 120, 119, 193, 2, 0.756483
12, 3, wb, attraction, a-b-da, 14, 3, 4, 32, 120, 195, 195, 120, 181, 111, 3, 2.62837
12, 3, wb, attraction, a-b-da, 14, 3, 4, 32, 120, 195, 195, 120, 181, 111, 1, 0.56234
12, 3, wb, attraction, a-b-db, 2, 1, 4, 33, 135, 60, 60, 135, 59, 134, 3, 3.33741
12, 3, wb, attraction, a-b-db, 2, 1, 4, 33, 135, 60, 60, 135, 59, 134, 1, 0.67318
12, 3, wb, filler, NA, 999, 999, 4, 34, 166, 58, 159, 86, 94, 76, 3, 1.71786
12, 3, wb, filler, NA, 999, 999, 4, 34, 166, 58, 159, 86, 94, 76, 2, 1.24849
12, 3, wb, filler, NA, 999, 999, 4, 35, 74, 161, 86, 122, 135, 112, 2, 3.37953
12, 3, wb, filler, NA, 999, 999, 4, 35, 74, 161, 86, 122, 135, 112, 3, 0.666785
12, 3, wb, attraction, a-b-db, 2, 2, 4, 36, 90, 165, 89, 163, 165, 90, 3, 3.03774
12, 3, wb, attraction, a-b-db, 2, 2, 4, 36, 90, 165, 89, 163, 165, 90, 1, 0.576898
12, 3, wb, attraction, a-b-da, 5, 2, 4, 37, 161, 88, 90, 165, 165, 90, 2, 1.52072
12, 3, wb, attraction, a-b-da, 5, 2, 4, 37, 161, 88, 90, 165, 165, 90, 3, 1.42617
12, 3, wb, attraction, a-b-db, 9, 1, 5, 1, 60, 135, 135, 60, 57, 129, 1, 6.02152
12, 3, wb, attraction, a-b-db, 9, 1, 5, 1, 60, 135, 135, 60, 57, 129, 3, 0.716207
12, 3, wb, attraction, a-b-da, 2, 1, 5, 2, 60, 135, 134, 59, 135, 60, 2, 6.79608
12, 3, wb, attraction, a-b-da, 2, 1, 5, 2, 60, 135, 134, 59, 135, 60, 3, 1.2885
12, 3, wb, attraction, a-b-db, 2, 1, 5, 3, 60, 135, 59, 134, 135, 60, 2, 4.42739
12, 3, wb, attraction, a-b-db, 2, 1, 5, 3, 60, 135, 59, 134, 135, 60, 3, 1.75328
12, 3, wb, catch, NA, 999, 999, 5, 4, 88, 107, 142, 173, 160, 95, 1, 1.24056
12, 3, wb, catch, NA, 999, 999, 5, 4, 88, 107, 142, 173, 160, 95, 2, 0.797064
12, 3, wb, attraction, a-b-db, 9, 2, 5, 5, 90, 165, 165, 90, 86, 157, 3, 1.8614
12, 3, wb, attraction, a-b-db, 9, 2, 5, 5, 90, 165, 165, 90, 86, 157, 1, 0.560403
12, 3, wb, attraction, a-b-da, 5, 1, 5, 6, 132, 58, 60, 135, 135, 60, 3, 4.81686
12, 3, wb, attraction, a-b-da, 5, 1, 5, 6, 132, 58, 60, 135, 135, 60, 2, 1.58899
12, 3, wb, attraction, a-b-da, 2, 2, 5, 7, 163, 89, 90, 165, 165, 90, 2, 7.08498
12, 3, wb, attraction, a-b-da, 2, 2, 5, 7, 163, 89, 90, 165, 165, 90, 1, 0.981206
12, 3, wb, filler, NA, 999, 999, 5, 8, 180, 59, 70, 184, 82, 87, 3, 1.26147
12, 3, wb, filler, NA, 999, 999, 5, 8, 180, 59, 70, 184, 82, 87, 2, 1.13
12, 3, wb, filler, NA, 999, 999, 5, 9, 125, 124, 115, 120, 86, 181, 3, 3.74844
12, 3, wb, filler, NA, 999, 999, 5, 9, 125, 124, 115, 120, 86, 181, 1, 0.748121
12, 3, wb, attraction, a-b-da, 9, 1, 5, 10, 135, 60, 60, 135, 129, 57, 3, 2.89052
12, 3, wb, attraction, a-b-da, 9, 1, 5, 10, 135, 60, 60, 135, 129, 57, 1, 1.06348
12, 3, wb, attraction, a-b-da, 2, 3, 5, 11, 120, 195, 193, 119, 195, 120, 3, 5.83273
12, 3, wb, attraction, a-b-da, 2, 3, 5, 11, 120, 195, 193, 119, 195, 120, 1, 0.741695
12, 3, wb, filler, NA, 999, 999, 5, 12, 195, 64, 91, 129, 148, 110, 2, 1.76455
12, 3, wb, filler, NA, 999, 999, 5, 12, 195, 64, 91, 129, 148, 110, 3, 1.11662
12, 3, wb, attraction, a-b-da, 14, 1, 5, 13, 60, 135, 125, 56, 135, 60, 1, 3.47166
12, 3, wb, attraction, a-b-da, 14, 1, 5, 13, 60, 135, 125, 56, 135, 60, 3, 0.793769
12, 3, wb, attraction, a-b-db, 5, 2, 5, 14, 90, 165, 165, 90, 88, 161, 3, 2.33544
12, 3, wb, attraction, a-b-db, 5, 2, 5, 14, 90, 165, 165, 90, 88, 161, 1, 1.25701
12, 3, wb, attraction, a-b-da, 9, 2, 5, 15, 165, 90, 90, 165, 157, 86, 3, 2.80591
12, 3, wb, attraction, a-b-da, 9, 2, 5, 15, 165, 90, 90, 165, 157, 86, 1, 0.780122
12, 3, wb, attraction, a-b-da, 5, 3, 5, 16, 195, 120, 190, 117, 120, 195, 2, 4.82914
12, 3, wb, attraction, a-b-da, 5, 3, 5, 16, 195, 120, 190, 117, 120, 195, 1, 0.633277
12, 3, wb, filler, NA, 999, 999, 5, 17, 104, 142, 87, 194, 188, 72, 1, 1.66129
12, 3, wb, filler, NA, 999, 999, 5, 17, 104, 142, 87, 194, 188, 72, 3, 0.673227
12, 3, wb, attraction, a-b-db, 14, 2, 5, 18, 83, 153, 90, 165, 165, 90, 1, 3.27526
12, 3, wb, attraction, a-b-db, 14, 2, 5, 18, 83, 153, 90, 165, 165, 90, 3, 1.49379
12, 3, wb, attraction, a-b-da, 5, 2, 5, 19, 161, 88, 165, 90, 90, 165, 3, 4.40749
12, 3, wb, attraction, a-b-da, 5, 2, 5, 19, 161, 88, 165, 90, 90, 165, 1, 2.38317
12, 3, wb, attraction, a-b-db, 14, 3, 5, 20, 195, 120, 120, 195, 111, 181, 3, 3.15683
12, 3, wb, attraction, a-b-db, 14, 3, 5, 20, 195, 120, 120, 195, 111, 181, 1, 0.940926
12, 3, wb, attraction, a-b-db, 5, 1, 5, 21, 60, 135, 58, 132, 135, 60, 2, 2.29347
12, 3, wb, attraction, a-b-db, 5, 1, 5, 21, 60, 135, 58, 132, 135, 60, 3, 2.06531
12, 3, wb, attraction, a-b-da, 14, 3, 5, 22, 120, 195, 181, 111, 195, 120, 1, 3.18735
12, 3, wb, attraction, a-b-da, 14, 3, 5, 22, 120, 195, 181, 111, 195, 120, 3, 0.745203
12, 3, wb, filler, NA, 999, 999, 5, 23, 72, 86, 90, 65, 77, 77, 1, 2.37201
12, 3, wb, filler, NA, 999, 999, 5, 23, 72, 86, 90, 65, 77, 77, 2, 0.842914
12, 3, wb, filler, NA, 999, 999, 5, 24, 95, 74, 181, 143, 166, 141, 1, 1.15953
12, 3, wb, filler, NA, 999, 999, 5, 24, 95, 74, 181, 143, 166, 141, 2, 2.05805
12, 3, wb, attraction, a-b-db, 2, 2, 5, 25, 90, 165, 89, 163, 165, 90, 1, 2.75554
12, 3, wb, attraction, a-b-db, 2, 2, 5, 25, 90, 165, 89, 163, 165, 90, 3, 0.675023
12, 3, wb, filler, NA, 999, 999, 5, 26, 127, 110, 121, 78, 85, 133, 2, 1.25409
12, 3, wb, filler, NA, 999, 999, 5, 26, 127, 110, 121, 78, 85, 133, 1, 0.756502
12, 3, wb, filler, NA, 999, 999, 5, 27, 140, 102, 138, 87, 166, 117, 2, 1.33914
12, 3, wb, filler, NA, 999, 999, 5, 27, 140, 102, 138, 87, 166, 117, 3, 0.797732
12, 3, wb, attraction, a-b-db, 2, 3, 5, 28, 119, 193, 195, 120, 120, 195, 1, 2.23448
12, 3, wb, attraction, a-b-db, 2, 3, 5, 28, 119, 193, 195, 120, 120, 195, 3, 0.728024
12, 3, wb, filler, NA, 999, 999, 5, 29, 59, 75, 58, 84, 145, 170, 1, 2.30682
12, 3, wb, filler, NA, 999, 999, 5, 29, 59, 75, 58, 84, 145, 170, 3, 1.30963
12, 3, wb, attraction, a-b-db, 9, 3, 5, 30, 120, 195, 114, 186, 195, 120, 2, 2.78944
12, 3, wb, attraction, a-b-db, 9, 3, 5, 30, 120, 195, 114, 186, 195, 120, 3, 0.692732
12, 3, wb, attraction, a-b-da, 14, 2, 5, 31, 165, 90, 153, 83, 90, 165, 2, 3.41606
12, 3, wb, attraction, a-b-da, 14, 2, 5, 31, 165, 90, 153, 83, 90, 165, 1, 0.725465
12, 3, wb, attraction, a-b-da, 9, 3, 5, 32, 186, 114, 120, 195, 195, 120, 2, 2.47687
12, 3, wb, attraction, a-b-da, 9, 3, 5, 32, 186, 114, 120, 195, 195, 120, 3, 0.632655
12, 3, wb, attraction, a-b-db, 5, 3, 5, 33, 120, 195, 195, 120, 117, 190, 1, 1.35889
12, 3, wb, attraction, a-b-db, 5, 3, 5, 33, 120, 195, 195, 120, 117, 190, 3, 0.718253
12, 3, wb, catch, NA, 999, 999, 5, 34, 122, 73, 122, 193, 94, 161, 1, 1.04881
12, 3, wb, catch, NA, 999, 999, 5, 34, 122, 73, 122, 193, 94, 161, 2, 0.774771
12, 3, wb, filler, NA, 999, 999, 5, 35, 74, 102, 116, 147, 103, 73, 1, 1.35699
12, 3, wb, filler, NA, 999, 999, 5, 35, 74, 102, 116, 147, 103, 73, 2, 0.677935
12, 3, wb, attraction, a-b-db, 14, 1, 5, 36, 56, 125, 135, 60, 60, 135, 1, 3.0799
12, 3, wb, attraction, a-b-db, 14, 1, 5, 36, 56, 125, 135, 60, 60, 135, 2, 1.47387
12, 3, wb, catch, NA, 999, 999, 5, 37, 95, 160, 133, 62, 173, 142, 1, 1.32715
12, 3, wb, catch, NA, 999, 999, 5, 37, 95, 160, 133, 62, 173, 142, 3, 0.775909
12, 3, wb, attraction, a-b-da, 14, 2, 6, 1, 90, 165, 165, 90, 153, 83, 1, 3.63165
12, 3, wb, attraction, a-b-da, 14, 2, 6, 1, 90, 165, 165, 90, 153, 83, 2, 0.733429
12, 3, wb, attraction, a-b-db, 14, 3, 6, 2, 120, 195, 195, 120, 111, 181, 1, 1.54841
12, 3, wb, attraction, a-b-db, 14, 3, 6, 2, 120, 195, 195, 120, 111, 181, 2, 1.11152
12, 3, wb, attraction, a-b-db, 14, 1, 6, 3, 56, 125, 135, 60, 60, 135, 1, 1.3275
12, 3, wb, attraction, a-b-db, 14, 1, 6, 3, 56, 125, 135, 60, 60, 135, 3, 1.27511
12, 3, wb, attraction, a-b-db, 5, 3, 6, 4, 195, 120, 117, 190, 120, 195, 2, 2.78068
12, 3, wb, attraction, a-b-db, 5, 3, 6, 4, 195, 120, 117, 190, 120, 195, 1, 0.603624
12, 3, wb, attraction, a-b-da, 5, 1, 6, 5, 135, 60, 132, 58, 60, 135, 1, 1.31491
12, 3, wb, attraction, a-b-da, 5, 1, 6, 5, 135, 60, 132, 58, 60, 135, 2, 0.940367
12, 3, wb, filler, NA, 999, 999, 6, 6, 78, 122, 139, 118, 177, 103, 1, 1.16401
12, 3, wb, filler, NA, 999, 999, 6, 6, 78, 122, 139, 118, 177, 103, 2, 0.851367
12, 3, wb, attraction, a-b-da, 2, 2, 6, 7, 165, 90, 90, 165, 163, 89, 2, 4.57696
12, 3, wb, attraction, a-b-da, 2, 2, 6, 7, 165, 90, 90, 165, 163, 89, 1, 1.92854
12, 3, wb, filler, NA, 999, 999, 6, 8, 195, 111, 60, 189, 181, 138, 2, 2.47233
12, 3, wb, filler, NA, 999, 999, 6, 8, 195, 111, 60, 189, 181, 138, 3, 0.796496
12, 3, wb, attraction, a-b-da, 14, 1, 6, 9, 125, 56, 60, 135, 135, 60, 1, 4.54592
12, 3, wb, attraction, a-b-da, 14, 1, 6, 9, 125, 56, 60, 135, 135, 60, 2, 0.779398
12, 3, wb, attraction, a-b-da, 9, 2, 6, 10, 157, 86, 90, 165, 165, 90, 1, 6.82633
12, 3, wb, attraction, a-b-da, 9, 2, 6, 10, 157, 86, 90, 165, 165, 90, 2, 0.727073
12, 3, wb, attraction, a-b-db, 5, 1, 6, 11, 135, 60, 58, 132, 60, 135, 2, 4.42417
12, 3, wb, attraction, a-b-db, 5, 1, 6, 11, 135, 60, 58, 132, 60, 135, 3, 0.867429
12, 3, wb, attraction, a-b-da, 2, 1, 6, 12, 134, 59, 60, 135, 135, 60, 2, 2.04643
12, 3, wb, attraction, a-b-da, 2, 1, 6, 12, 134, 59, 60, 135, 135, 60, 3, 1.49907
12, 3, wb, attraction, a-b-db, 2, 3, 6, 13, 195, 120, 120, 195, 119, 193, 1, 4.08709
12, 3, wb, attraction, a-b-db, 2, 3, 6, 13, 195, 120, 120, 195, 119, 193, 2, 1.11134
12, 3, wb, attraction, a-b-da, 2, 3, 6, 14, 120, 195, 195, 120, 193, 119, 1, 1.4665
12, 3, wb, attraction, a-b-da, 2, 3, 6, 14, 120, 195, 195, 120, 193, 119, 2, 0.7183
12, 3, wb, filler, NA, 999, 999, 6, 15, 65, 189, 91, 81, 189, 129, 2, 1.81555
12, 3, wb, filler, NA, 999, 999, 6, 15, 65, 189, 91, 81, 189, 129, 3, 2.15885
12, 3, wb, attraction, a-b-da, 9, 3, 6, 16, 195, 120, 186, 114, 120, 195, 2, 5.25136
12, 3, wb, attraction, a-b-da, 9, 3, 6, 16, 195, 120, 186, 114, 120, 195, 1, 0.801116
12, 3, wb, catch, NA, 999, 999, 6, 17, 140, 115, 137, 178, 104, 91, 3, 1.36474
12, 3, wb, catch, NA, 999, 999, 6, 17, 140, 115, 137, 178, 104, 91, 1, 0.846172
12, 3, wb, filler, NA, 999, 999, 6, 18, 60, 80, 108, 169, 125, 96, 1, 1.55434
12, 3, wb, filler, NA, 999, 999, 6, 18, 60, 80, 108, 169, 125, 96, 2, 0.612674
12, 3, wb, attraction, a-b-da, 5, 3, 6, 19, 190, 117, 195, 120, 120, 195, 3, 3.90579
12, 3, wb, attraction, a-b-da, 5, 3, 6, 19, 190, 117, 195, 120, 120, 195, 1, 0.964285
12, 3, wb, catch, NA, 999, 999, 6, 20, 112, 83, 128, 127, 148, 167, 1, 1.15521
12, 3, wb, catch, NA, 999, 999, 6, 20, 112, 83, 128, 127, 148, 167, 3, 0.692726
12, 3, wb, filler, NA, 999, 999, 6, 21, 127, 138, 104, 195, 75, 189, 3, 1.5579
12, 3, wb, filler, NA, 999, 999, 6, 21, 127, 138, 104, 195, 75, 189, 1, 0.735704
12, 3, wb, filler, NA, 999, 999, 6, 22, 178, 107, 140, 172, 61, 185, 3, 1.21342
12, 3, wb, filler, NA, 999, 999, 6, 22, 178, 107, 140, 172, 61, 185, 2, 1.90343
12, 3, wb, attraction, a-b-db, 14, 2, 6, 23, 165, 90, 90, 165, 83, 153, 3, 1.59065
12, 3, wb, attraction, a-b-db, 14, 2, 6, 23, 165, 90, 90, 165, 83, 153, 1, 0.85317
12, 3, wb, filler, NA, 999, 999, 6, 24, 122, 160, 187, 186, 166, 85, 3, 1.07349
12, 3, wb, filler, NA, 999, 999, 6, 24, 122, 160, 187, 186, 166, 85, 2, 0.678843
12, 3, wb, filler, NA, 999, 999, 6, 25, 141, 98, 158, 103, 93, 75, 3, 1.33616
12, 3, wb, filler, NA, 999, 999, 6, 25, 141, 98, 158, 103, 93, 75, 2, 2.23602
12, 3, wb, attraction, a-b-db, 5, 2, 6, 26, 88, 161, 165, 90, 90, 165, 3, 4.33522
12, 3, wb, attraction, a-b-db, 5, 2, 6, 26, 88, 161, 165, 90, 90, 165, 1, 0.878801
12, 3, wb, attraction, a-b-da, 9, 1, 6, 27, 135, 60, 129, 57, 60, 135, 3, 3.3846
12, 3, wb, attraction, a-b-da, 9, 1, 6, 27, 135, 60, 129, 57, 60, 135, 1, 0.897821
12, 3, wb, attraction, a-b-da, 5, 2, 6, 28, 165, 90, 90, 165, 161, 88, 3, 2.56387
12, 3, wb, attraction, a-b-da, 5, 2, 6, 28, 165, 90, 90, 165, 161, 88, 1, 1.26022
12, 3, wb, attraction, a-b-db, 9, 2, 6, 29, 165, 90, 86, 157, 90, 165, 2, 4.74167
12, 3, wb, attraction, a-b-db, 9, 2, 6, 29, 165, 90, 86, 157, 90, 165, 1, 0.767841
12, 3, wb, attraction, a-b-da, 14, 3, 6, 30, 195, 120, 181, 111, 120, 195, 3, 2.35822
12, 3, wb, attraction, a-b-da, 14, 3, 6, 30, 195, 120, 181, 111, 120, 195, 1, 2.08691
12, 3, wb, attraction, a-b-db, 9, 1, 6, 31, 60, 135, 135, 60, 57, 129, 2, 1.22579
12, 3, wb, attraction, a-b-db, 9, 1, 6, 31, 60, 135, 135, 60, 57, 129, 1, 0.670393
12, 3, wb, filler, NA, 999, 999, 6, 32, 175, 64, 103, 109, 189, 160, 1, 1.45083
12, 3, wb, filler, NA, 999, 999, 6, 32, 175, 64, 103, 109, 189, 160, 3, 0.790924
12, 3, wb, filler, NA, 999, 999, 6, 33, 172, 73, 165, 88, 83, 192, 1, 1.32545
12, 3, wb, filler, NA, 999, 999, 6, 33, 172, 73, 165, 88, 83, 192, 2, 0.66586
12, 3, wb, attraction, a-b-db, 9, 3, 6, 34, 195, 120, 120, 195, 114, 186, 3, 1.45812
12, 3, wb, attraction, a-b-db, 9, 3, 6, 34, 195, 120, 120, 195, 114, 186, 1, 0.584413
12, 3, wb, attraction, a-b-db, 2, 1, 6, 35, 60, 135, 135, 60, 59, 134, 2, 1.27701
12, 3, wb, attraction, a-b-db, 2, 1, 6, 35, 60, 135, 135, 60, 59, 134, 1, 2.0909
12, 3, wb, attraction, a-b-db, 2, 2, 6, 36, 165, 90, 89, 163, 90, 165, 2, 2.47836
12, 3, wb, attraction, a-b-db, 2, 2, 6, 36, 165, 90, 89, 163, 90, 165, 1, 0.968927
12, 3, wb, catch, NA, 999, 999, 6, 37, 140, 115, 71, 124, 175, 140, 2, 0.967357
12, 3, wb, catch, NA, 999, 999, 6, 37, 140, 115, 71, 124, 175, 140, 3, 0.792044
12, 3, wb, attraction, a-b-da, 14, 1, 7, 1, 60, 135, 135, 60, 125, 56, 1, 2.23702
12, 3, wb, attraction, a-b-da, 14, 1, 7, 1, 60, 135, 135, 60, 125, 56, 2, 0.684076
12, 3, wb, attraction, a-b-da, 14, 3, 7, 2, 181, 111, 195, 120, 120, 195, 1, 2.53397
12, 3, wb, attraction, a-b-da, 14, 3, 7, 2, 181, 111, 195, 120, 120, 195, 3, 0.760125
12, 3, wb, attraction, a-b-da, 2, 3, 7, 3, 195, 120, 193, 119, 120, 195, 1, 1.35028
12, 3, wb, attraction, a-b-da, 2, 3, 7, 3, 195, 120, 193, 119, 120, 195, 3, 0.879589
12, 3, wb, catch, NA, 999, 999, 7, 4, 127, 188, 156, 99, 73, 122, 3, 1.58654
12, 3, wb, catch, NA, 999, 999, 7, 4, 127, 188, 156, 99, 73, 122, 1, 0.665189
12, 3, wb, attraction, a-b-da, 2, 2, 7, 5, 163, 89, 90, 165, 165, 90, 1, 2.06117
12, 3, wb, attraction, a-b-da, 2, 2, 7, 5, 163, 89, 90, 165, 165, 90, 2, 0.602788
12, 3, wb, attraction, a-b-db, 2, 3, 7, 6, 119, 193, 195, 120, 120, 195, 1, 2.62423
12, 3, wb, attraction, a-b-db, 2, 3, 7, 6, 119, 193, 195, 120, 120, 195, 3, 0.804808
12, 3, wb, filler, NA, 999, 999, 7, 7, 189, 125, 116, 56, 103, 162, 2, 1.2751
12, 3, wb, filler, NA, 999, 999, 7, 7, 189, 125, 116, 56, 103, 162, 1, 0.678174
12, 3, wb, attraction, a-b-db, 2, 2, 7, 8, 90, 165, 165, 90, 89, 163, 3, 1.95438
12, 3, wb, attraction, a-b-db, 2, 2, 7, 8, 90, 165, 165, 90, 89, 163, 1, 0.721127
12, 3, wb, attraction, a-b-da, 5, 1, 7, 9, 60, 135, 135, 60, 132, 58, 1, 1.31497
12, 3, wb, attraction, a-b-da, 5, 1, 7, 9, 60, 135, 135, 60, 132, 58, 2, 1.25634
12, 3, wb, attraction, a-b-db, 9, 1, 7, 10, 60, 135, 57, 129, 135, 60, 1, 1.16272
12, 3, wb, attraction, a-b-db, 9, 1, 7, 10, 60, 135, 57, 129, 135, 60, 3, 0.706185
12, 3, wb, attraction, a-b-db, 9, 2, 7, 11, 90, 165, 165, 90, 86, 157, 2, 2.97199
12, 3, wb, attraction, a-b-db, 9, 2, 7, 11, 90, 165, 165, 90, 86, 157, 1, 1.86877
12, 3, wb, attraction, a-b-db, 9, 3, 7, 12, 120, 195, 114, 186, 195, 120, 2, 3.23083
12, 3, wb, attraction, a-b-db, 9, 3, 7, 12, 120, 195, 114, 186, 195, 120, 3, 0.570886
12, 3, wb, attraction, a-b-db, 5, 1, 7, 13, 60, 135, 58, 132, 135, 60, 1, 1.42436
12, 3, wb, attraction, a-b-db, 5, 1, 7, 13, 60, 135, 58, 132, 135, 60, 3, 0.855685
12, 3, wb, attraction, a-b-da, 9, 3, 7, 14, 120, 195, 186, 114, 195, 120, 2, 3.00453
12, 3, wb, attraction, a-b-da, 9, 3, 7, 14, 120, 195, 186, 114, 195, 120, 3, 0.753989
12, 3, wb, attraction, a-b-da, 2, 1, 7, 15, 135, 60, 60, 135, 134, 59, 1, 1.61775
12, 3, wb, attraction, a-b-da, 2, 1, 7, 15, 135, 60, 60, 135, 134, 59, 3, 0.990781
12, 3, wb, filler, NA, 999, 999, 7, 16, 144, 77, 165, 178, 169, 145, 1, 1.07122
12, 3, wb, filler, NA, 999, 999, 7, 16, 144, 77, 165, 178, 169, 145, 2, 0.731043
12, 3, wb, attraction, a-b-da, 9, 1, 7, 17, 60, 135, 129, 57, 135, 60, 1, 1.20438
12, 3, wb, attraction, a-b-da, 9, 1, 7, 17, 60, 135, 129, 57, 135, 60, 2, 2.22706
12, 3, wb, attraction, a-b-da, 9, 2, 7, 18, 157, 86, 165, 90, 90, 165, 1, 1.31935
12, 3, wb, attraction, a-b-da, 9, 2, 7, 18, 157, 86, 165, 90, 90, 165, 3, 0.599754
12, 3, wb, attraction, a-b-db, 5, 2, 7, 19, 90, 165, 165, 90, 88, 161, 2, 2.43985
12, 3, wb, attraction, a-b-db, 5, 2, 7, 19, 90, 165, 165, 90, 88, 161, 3, 1.7983
12, 3, wb, attraction, a-b-db, 2, 1, 7, 20, 60, 135, 59, 134, 135, 60, 1, 1.21885
12, 3, wb, attraction, a-b-db, 2, 1, 7, 20, 60, 135, 59, 134, 135, 60, 3, 0.710605
12, 3, wb, attraction, a-b-db, 14, 3, 7, 21, 120, 195, 195, 120, 111, 181, 2, 1.67533
12, 3, wb, attraction, a-b-db, 14, 3, 7, 21, 120, 195, 195, 120, 111, 181, 1, 0.951733
12, 3, wb, filler, NA, 999, 999, 7, 22, 87, 92, 140, 154, 177, 184, 1, 1.18017
12, 3, wb, filler, NA, 999, 999, 7, 22, 87, 92, 140, 154, 177, 184, 3, 0.811651
12, 3, wb, attraction, a-b-da, 5, 3, 7, 23, 120, 195, 190, 117, 195, 120, 2, 1.78123
12, 3, wb, attraction, a-b-da, 5, 3, 7, 23, 120, 195, 190, 117, 195, 120, 3, 0.683115
12, 3, wb, filler, NA, 999, 999, 7, 24, 97, 180, 161, 59, 177, 111, 2, 1.14085
12, 3, wb, filler, NA, 999, 999, 7, 24, 97, 180, 161, 59, 177, 111, 3, 2.23833
12, 3, wb, filler, NA, 999, 999, 7, 25, 121, 82, 180, 83, 154, 166, 1, 1.33177
12, 3, wb, filler, NA, 999, 999, 7, 25, 121, 82, 180, 83, 154, 166, 3, 0.620632
12, 3, wb, attraction, a-b-db, 5, 3, 7, 26, 195, 120, 120, 195, 117, 190, 3, 4.20751
12, 3, wb, attraction, a-b-db, 5, 3, 7, 26, 195, 120, 120, 195, 117, 190, 1, 0.615133
12, 3, wb, filler, NA, 999, 999, 7, 27, 176, 101, 161, 156, 115, 90, 3, 1.29186
12, 3, wb, filler, NA, 999, 999, 7, 27, 176, 101, 161, 156, 115, 90, 1, 1.15302
12, 3, wb, attraction, a-b-da, 5, 2, 7, 28, 90, 165, 165, 90, 161, 88, 3, 1.43152
12, 3, wb, attraction, a-b-da, 5, 2, 7, 28, 90, 165, 165, 90, 161, 88, 1, 1.22758
12, 3, wb, catch, NA, 999, 999, 7, 29, 84, 111, 150, 165, 126, 129, 1, 1.20034
12, 3, wb, catch, NA, 999, 999, 7, 29, 84, 111, 150, 165, 126, 129, 2, 0.656482
12, 3, wb, filler, NA, 999, 999, 7, 30, 182, 155, 124, 84, 95, 168, 2, 2.95711
12, 3, wb, filler, NA, 999, 999, 7, 30, 182, 155, 124, 84, 95, 168, 1, 0.653311
12, 3, wb, catch, NA, 999, 999, 7, 31, 118, 137, 112, 83, 158, 157, 2, 1.04931
12, 3, wb, catch, NA, 999, 999, 7, 31, 118, 137, 112, 83, 158, 157, 3, 0.73269
12, 3, wb, attraction, a-b-db, 14, 1, 7, 32, 135, 60, 56, 125, 60, 135, 2, 2.25325
12, 3, wb, attraction, a-b-db, 14, 1, 7, 32, 135, 60, 56, 125, 60, 135, 1, 1.37022
12, 3, wb, attraction, a-b-db, 14, 2, 7, 33, 165, 90, 83, 153, 90, 165, 2, 2.79406
12, 3, wb, attraction, a-b-db, 14, 2, 7, 33, 165, 90, 83, 153, 90, 165, 1, 0.681858
12, 3, wb, filler, NA, 999, 999, 7, 34, 83, 147, 120, 76, 170, 161, 2, 1.07547
12, 3, wb, filler, NA, 999, 999, 7, 34, 83, 147, 120, 76, 170, 161, 3, 0.590125
12, 3, wb, attraction, a-b-da, 14, 2, 7, 35, 90, 165, 153, 83, 165, 90, 2, 2.6704
12, 3, wb, attraction, a-b-da, 14, 2, 7, 35, 90, 165, 153, 83, 165, 90, 1, 0.753334
12, 3, wb, filler, NA, 999, 999, 7, 36, 139, 175, 80, 73, 172, 121, 2, 0.977902
12, 3, wb, filler, NA, 999, 999, 7, 36, 139, 175, 80, 73, 172, 121, 1, 0.739105
12, 3, wb, filler, NA, 999, 999, 7, 37, 84, 150, 117, 166, 85, 106, 3, 1.41656
12, 3, wb, filler, NA, 999, 999, 7, 37, 84, 150, 117, 166, 85, 106, 2, 0.591845
12, 3, wb, attraction, a-b-db, 2, 3, 8, 1, 120, 195, 195, 120, 119, 193, 3, 2.56678
12, 3, wb, attraction, a-b-db, 2, 3, 8, 1, 120, 195, 195, 120, 119, 193, 1, 0.798661
12, 3, wb, attraction, a-b-da, 2, 2, 8, 2, 163, 89, 165, 90, 90, 165, 3, 1.49982
12, 3, wb, attraction, a-b-da, 2, 2, 8, 2, 163, 89, 165, 90, 90, 165, 1, 1.62382
12, 3, wb, attraction, a-b-db, 5, 3, 8, 3, 117, 190, 120, 195, 195, 120, 2, 4.05928
12, 3, wb, attraction, a-b-db, 5, 3, 8, 3, 117, 190, 120, 195, 195, 120, 3, 1.23885
12, 3, wb, filler, NA, 999, 999, 8, 4, 70, 101, 142, 89, 177, 188, 1, 1.13973
12, 3, wb, filler, NA, 999, 999, 8, 4, 70, 101, 142, 89, 177, 188, 3, 0.637169
12, 3, wb, attraction, a-b-db, 9, 3, 8, 5, 120, 195, 114, 186, 195, 120, 2, 2.09712
12, 3, wb, attraction, a-b-db, 9, 3, 8, 5, 120, 195, 114, 186, 195, 120, 3, 0.579435
12, 3, wb, filler, NA, 999, 999, 8, 6, 138, 114, 187, 77, 177, 126, 1, 1.56992
12, 3, wb, filler, NA, 999, 999, 8, 6, 138, 114, 187, 77, 177, 126, 3, 0.675596
12, 3, wb, filler, NA, 999, 999, 8, 7, 174, 91, 139, 163, 177, 138, 1, 1.19901
12, 3, wb, filler, NA, 999, 999, 8, 7, 174, 91, 139, 163, 177, 138, 3, 0.679216
12, 3, wb, attraction, a-b-db, 14, 3, 8, 8, 195, 120, 120, 195, 111, 181, 3, 1.61684
12, 3, wb, attraction, a-b-db, 14, 3, 8, 8, 195, 120, 120, 195, 111, 181, 1, 0.624493
12, 3, wb, attraction, a-b-db, 14, 2, 8, 9, 83, 153, 165, 90, 90, 165, 1, 1.38804
12, 3, wb, attraction, a-b-db, 14, 2, 8, 9, 83, 153, 165, 90, 90, 165, 2, 0.779195
12, 3, wb, attraction, a-b-da, 5, 2, 8, 10, 161, 88, 90, 165, 165, 90, 3, 1.31534
12, 3, wb, attraction, a-b-da, 5, 2, 8, 10, 161, 88, 90, 165, 165, 90, 2, 1.01987
12, 3, wb, attraction, a-b-db, 14, 1, 8, 11, 135, 60, 56, 125, 60, 135, 2, 1.44104
12, 3, wb, attraction, a-b-db, 14, 1, 8, 11, 135, 60, 56, 125, 60, 135, 3, 0.729469
12, 3, wb, filler, NA, 999, 999, 8, 12, 98, 77, 157, 183, 156, 103, 1, 1.03124
12, 3, wb, filler, NA, 999, 999, 8, 12, 98, 77, 157, 183, 156, 103, 2, 0.719148
12, 3, wb, filler, NA, 999, 999, 8, 13, 142, 106, 142, 183, 186, 153, 1, 1.12589
12, 3, wb, filler, NA, 999, 999, 8, 13, 142, 106, 142, 183, 186, 153, 3, 0.568164
12, 3, wb, attraction, a-b-da, 5, 1, 8, 14, 132, 58, 135, 60, 60, 135, 3, 3.01703
12, 3, wb, attraction, a-b-da, 5, 1, 8, 14, 132, 58, 135, 60, 60, 135, 2, 0.616412
12, 3, wb, attraction, a-b-da, 9, 2, 8, 15, 165, 90, 90, 165, 157, 86, 3, 1.66633
12, 3, wb, attraction, a-b-da, 9, 2, 8, 15, 165, 90, 90, 165, 157, 86, 1, 1.29404
12, 3, wb, attraction, a-b-db, 5, 2, 8, 16, 88, 161, 90, 165, 165, 90, 3, 5.37138
12, 3, wb, attraction, a-b-db, 5, 2, 8, 16, 88, 161, 90, 165, 165, 90, 1, 1.33738
12, 3, wb, filler, NA, 999, 999, 8, 17, 89, 71, 118, 141, 160, 76, 1, 1.45511
12, 3, wb, filler, NA, 999, 999, 8, 17, 89, 71, 118, 141, 160, 76, 2, 0.710976
12, 3, wb, attraction, a-b-da, 2, 3, 8, 18, 195, 120, 193, 119, 120, 195, 3, 4.91838
12, 3, wb, attraction, a-b-da, 2, 3, 8, 18, 195, 120, 193, 119, 120, 195, 2, 1.08005
12, 3, wb, filler, NA, 999, 999, 8, 19, 140, 88, 69, 166, 145, 99, 2, 1.35647
12, 3, wb, filler, NA, 999, 999, 8, 19, 140, 88, 69, 166, 145, 99, 3, 2.09981
12, 3, wb, attraction, a-b-db, 9, 2, 8, 20, 165, 90, 86, 157, 90, 165, 2, 2.62191
12, 3, wb, attraction, a-b-db, 9, 2, 8, 20, 165, 90, 86, 157, 90, 165, 1, 0.780929
12, 3, wb, attraction, a-b-da, 9, 1, 8, 21, 60, 135, 135, 60, 129, 57, 1, 1.81955
12, 3, wb, attraction, a-b-da, 9, 1, 8, 21, 60, 135, 135, 60, 129, 57, 2, 0.760227
12, 3, wb, catch, NA, 999, 999, 8, 22, 183, 132, 84, 111, 99, 156, 2, 1.22247
12, 3, wb, catch, NA, 999, 999, 8, 22, 183, 132, 84, 111, 99, 156, 1, 1.07133
12, 3, wb, attraction, a-b-db, 2, 2, 8, 23, 89, 163, 90, 165, 165, 90, 2, 3.33599
12, 3, wb, attraction, a-b-db, 2, 2, 8, 23, 89, 163, 90, 165, 165, 90, 3, 0.896749
12, 3, wb, attraction, a-b-da, 14, 2, 8, 24, 153, 83, 165, 90, 90, 165, 1, 3.35625
12, 3, wb, attraction, a-b-da, 14, 2, 8, 24, 153, 83, 165, 90, 90, 165, 2, 0.661236
12, 3, wb, attraction, a-b-da, 14, 1, 8, 25, 135, 60, 60, 135, 125, 56, 3, 2.07346
12, 3, wb, attraction, a-b-da, 14, 1, 8, 25, 135, 60, 60, 135, 125, 56, 1, 0.612181
12, 3, wb, catch, NA, 999, 999, 8, 26, 88, 107, 95, 160, 145, 170, 1, 1.96239
12, 3, wb, catch, NA, 999, 999, 8, 26, 88, 107, 95, 160, 145, 170, 3, 0.808818
12, 3, wb, attraction, a-b-db, 5, 1, 8, 27, 58, 132, 135, 60, 60, 135, 2, 7.88931
12, 3, wb, attraction, a-b-db, 5, 1, 8, 27, 58, 132, 135, 60, 60, 135, 3, 1.84234
12, 3, wb, filler, NA, 999, 999, 8, 28, 195, 164, 149, 149, 140, 63, 3, 1.49363
12, 3, wb, filler, NA, 999, 999, 8, 28, 195, 164, 149, 149, 140, 63, 1, 0.752036
12, 3, wb, attraction, a-b-da, 5, 3, 8, 29, 120, 195, 195, 120, 190, 117, 3, 7.38569
12, 3, wb, attraction, a-b-da, 5, 3, 8, 29, 120, 195, 195, 120, 190, 117, 2, 0.718108
12, 3, wb, attraction, a-b-da, 14, 3, 8, 30, 120, 195, 195, 120, 181, 111, 3, 3.953
12, 3, wb, attraction, a-b-da, 14, 3, 8, 30, 120, 195, 195, 120, 181, 111, 2, 0.703631
12, 3, wb, attraction, a-b-da, 2, 1, 8, 31, 134, 59, 60, 135, 135, 60, 2, 1.985
12, 3, wb, attraction, a-b-da, 2, 1, 8, 31, 134, 59, 60, 135, 135, 60, 1, 0.586262
12, 3, wb, attraction, a-b-da, 9, 3, 8, 32, 186, 114, 120, 195, 195, 120, 3, 6.5043
12, 3, wb, attraction, a-b-da, 9, 3, 8, 32, 186, 114, 120, 195, 195, 120, 1, 1.5836
12, 3, wb, catch, NA, 999, 999, 8, 33, 122, 73, 103, 152, 175, 140, 1, 1.26966
12, 3, wb, catch, NA, 999, 999, 8, 33, 122, 73, 103, 152, 175, 140, 3, 0.640946
12, 3, wb, attraction, a-b-db, 9, 1, 8, 34, 135, 60, 60, 135, 57, 129, 3, 1.76602
12, 3, wb, attraction, a-b-db, 9, 1, 8, 34, 135, 60, 60, 135, 57, 129, 1, 0.686702
12, 3, wb, filler, NA, 999, 999, 8, 35, 63, 188, 188, 173, 69, 171, 3, 1.77896
12, 3, wb, filler, NA, 999, 999, 8, 35, 63, 188, 188, 173, 69, 171, 2, 0.705401
12, 3, wb, attraction, a-b-db, 2, 1, 8, 36, 60, 135, 59, 134, 135, 60, 1, 2.22683
12, 3, wb, attraction, a-b-db, 2, 1, 8, 36, 60, 135, 59, 134, 135, 60, 3, 0.705925
12, 3, wb, filler, NA, 999, 999, 8, 37, 110, 161, 147, 78, 143, 153, 2, 1.29887
12, 3, wb, filler, NA, 999, 999, 8, 37, 110, 161, 147, 78, 143, 153, 3, 0.581732
