sub_n, computer_n, bw_cond, effect, set, distance, diag, block_n, trial_n, h1, w1, h2, w2, h3, w3, choice, rt 
109, 3, bw, practice, NA, 999, 999, 0, 1, 89, 72, 188, 150, 184, 122, 2, 4.41737
109, 3, bw, practice, NA, 999, 999, 0, 1, 89, 72, 188, 150, 184, 122, 1, 3.44005
109, 3, bw, practice, NA, 999, 999, 0, 2, 135, 141, 130, 170, 137, 56, 2, 4.31976
109, 3, bw, practice, NA, 999, 999, 0, 2, 135, 141, 130, 170, 137, 56, 3, 2.19359
109, 3, bw, practice, NA, 999, 999, 0, 3, 185, 71, 151, 90, 157, 126, 3, 2.40241
109, 3, bw, practice, NA, 999, 999, 0, 3, 185, 71, 151, 90, 157, 126, 2, 4.51397
109, 3, bw, filler, NA, 999, 999, 1, 1, 115, 174, 62, 60, 72, 112, 1, 2.59719
109, 3, bw, filler, NA, 999, 999, 1, 1, 115, 174, 62, 60, 72, 112, 2, 1.70764
109, 3, bw, attraction, a-b-db, 14, 2, 1, 2, 165, 90, 83, 153, 90, 165, 1, 6.44432
109, 3, bw, attraction, a-b-db, 14, 2, 1, 2, 165, 90, 83, 153, 90, 165, 2, 1.14371
109, 3, bw, filler, NA, 999, 999, 1, 3, 154, 104, 58, 89, 118, 74, 1, 1.23925
109, 3, bw, filler, NA, 999, 999, 1, 3, 154, 104, 58, 89, 118, 74, 2, 0.636134
109, 3, bw, attraction, a-b-da, 14, 3, 1, 4, 195, 120, 181, 111, 120, 195, 1, 1.74463
109, 3, bw, attraction, a-b-da, 14, 3, 1, 4, 195, 120, 181, 111, 120, 195, 2, 2.76149
109, 3, bw, filler, NA, 999, 999, 1, 5, 155, 72, 108, 156, 64, 85, 2, 1.26389
109, 3, bw, filler, NA, 999, 999, 1, 5, 155, 72, 108, 156, 64, 85, 3, 0.860071
109, 3, bw, attraction, a-b-da, 2, 1, 1, 6, 134, 59, 60, 135, 135, 60, 1, 2.95099
109, 3, bw, attraction, a-b-da, 2, 1, 1, 6, 134, 59, 60, 135, 135, 60, 2, 0.615513
109, 3, bw, catch, NA, 999, 999, 1, 7, 105, 150, 174, 141, 106, 89, 2, 1.82053
109, 3, bw, catch, NA, 999, 999, 1, 7, 105, 150, 174, 141, 106, 89, 3, 0.770658
109, 3, bw, attraction, a-b-da, 14, 1, 1, 8, 125, 56, 135, 60, 60, 135, 3, 3.5137
109, 3, bw, attraction, a-b-da, 14, 1, 1, 8, 125, 56, 135, 60, 60, 135, 2, 0.795118
109, 3, bw, attraction, a-b-da, 5, 3, 1, 9, 195, 120, 120, 195, 190, 117, 2, 1.94481
109, 3, bw, attraction, a-b-da, 5, 3, 1, 9, 195, 120, 120, 195, 190, 117, 3, 0.673516
109, 3, bw, attraction, a-b-db, 5, 2, 1, 10, 88, 161, 165, 90, 90, 165, 2, 2.04399
109, 3, bw, attraction, a-b-db, 5, 2, 1, 10, 88, 161, 165, 90, 90, 165, 1, 1.22475
109, 3, bw, attraction, a-b-da, 2, 2, 1, 11, 163, 89, 165, 90, 90, 165, 2, 1.92485
109, 3, bw, attraction, a-b-da, 2, 2, 1, 11, 163, 89, 165, 90, 90, 165, 1, 0.558192
109, 3, bw, filler, NA, 999, 999, 1, 12, 73, 133, 97, 189, 109, 154, 2, 1.06935
109, 3, bw, filler, NA, 999, 999, 1, 12, 73, 133, 97, 189, 109, 154, 1, 0.977656
109, 3, bw, filler, NA, 999, 999, 1, 13, 164, 158, 107, 60, 173, 177, 3, 1.83184
109, 3, bw, filler, NA, 999, 999, 1, 13, 164, 158, 107, 60, 173, 177, 2, 1.58929
109, 3, bw, attraction, a-b-db, 9, 3, 1, 14, 195, 120, 120, 195, 114, 186, 1, 1.2514
109, 3, bw, attraction, a-b-db, 9, 3, 1, 14, 195, 120, 120, 195, 114, 186, 2, 0.584389
109, 3, bw, attraction, a-b-db, 5, 1, 1, 15, 60, 135, 58, 132, 135, 60, 3, 1.83092
109, 3, bw, attraction, a-b-db, 5, 1, 1, 15, 60, 135, 58, 132, 135, 60, 1, 0.532182
109, 3, bw, attraction, a-b-db, 2, 3, 1, 16, 195, 120, 120, 195, 119, 193, 1, 1.24465
109, 3, bw, attraction, a-b-db, 2, 3, 1, 16, 195, 120, 120, 195, 119, 193, 3, 0.91362
109, 3, bw, attraction, a-b-db, 9, 1, 1, 17, 135, 60, 57, 129, 60, 135, 3, 2.98655
109, 3, bw, attraction, a-b-db, 9, 1, 1, 17, 135, 60, 57, 129, 60, 135, 2, 1.56155
109, 3, bw, attraction, a-b-db, 2, 1, 1, 18, 59, 134, 135, 60, 60, 135, 1, 1.06439
109, 3, bw, attraction, a-b-db, 2, 1, 1, 18, 59, 134, 135, 60, 60, 135, 2, 1.23676
109, 3, bw, attraction, a-b-da, 5, 2, 1, 19, 161, 88, 90, 165, 165, 90, 2, 1.15288
109, 3, bw, attraction, a-b-da, 5, 2, 1, 19, 161, 88, 90, 165, 165, 90, 3, 0.673857
109, 3, bw, attraction, a-b-da, 9, 3, 1, 20, 120, 195, 195, 120, 186, 114, 2, 0.908278
109, 3, bw, attraction, a-b-da, 9, 3, 1, 20, 120, 195, 195, 120, 186, 114, 3, 1.23068
109, 3, bw, attraction, a-b-db, 14, 3, 1, 21, 195, 120, 111, 181, 120, 195, 1, 0.922796
109, 3, bw, attraction, a-b-db, 14, 3, 1, 21, 195, 120, 111, 181, 120, 195, 2, 2.24447
109, 3, bw, filler, NA, 999, 999, 1, 22, 81, 86, 179, 179, 142, 194, 2, 0.823797
109, 3, bw, filler, NA, 999, 999, 1, 22, 81, 86, 179, 179, 142, 194, 1, 0.509434
109, 3, bw, filler, NA, 999, 999, 1, 23, 184, 178, 70, 112, 187, 86, 1, 2.06253
109, 3, bw, filler, NA, 999, 999, 1, 23, 184, 178, 70, 112, 187, 86, 2, 0.794619
109, 3, bw, attraction, a-b-db, 5, 3, 1, 24, 120, 195, 117, 190, 195, 120, 1, 1.9282
109, 3, bw, attraction, a-b-db, 5, 3, 1, 24, 120, 195, 117, 190, 195, 120, 3, 0.881663
109, 3, bw, attraction, a-b-db, 9, 2, 1, 25, 165, 90, 90, 165, 86, 157, 1, 1.80394
109, 3, bw, attraction, a-b-db, 9, 2, 1, 25, 165, 90, 90, 165, 86, 157, 3, 0.978652
109, 3, bw, attraction, a-b-db, 2, 2, 1, 26, 165, 90, 90, 165, 89, 163, 2, 2.05705
109, 3, bw, attraction, a-b-db, 2, 2, 1, 26, 165, 90, 90, 165, 89, 163, 3, 0.964937
109, 3, bw, filler, NA, 999, 999, 1, 27, 183, 155, 67, 80, 122, 156, 1, 0.683904
109, 3, bw, filler, NA, 999, 999, 1, 27, 183, 155, 67, 80, 122, 156, 2, 0.751703
109, 3, bw, catch, NA, 999, 999, 1, 28, 144, 171, 146, 109, 92, 103, 1, 0.975469
109, 3, bw, catch, NA, 999, 999, 1, 28, 144, 171, 146, 109, 92, 103, 3, 0.951197
109, 3, bw, attraction, a-b-da, 2, 3, 1, 29, 193, 119, 120, 195, 195, 120, 3, 1.52673
109, 3, bw, attraction, a-b-da, 2, 3, 1, 29, 193, 119, 120, 195, 195, 120, 1, 0.840371
109, 3, bw, attraction, a-b-da, 9, 2, 1, 30, 90, 165, 165, 90, 157, 86, 1, 1.12388
109, 3, bw, attraction, a-b-da, 9, 2, 1, 30, 90, 165, 165, 90, 157, 86, 2, 0.597742
109, 3, bw, attraction, a-b-da, 9, 1, 1, 31, 60, 135, 135, 60, 129, 57, 1, 1.80327
109, 3, bw, attraction, a-b-da, 9, 1, 1, 31, 60, 135, 135, 60, 129, 57, 2, 0.578049
109, 3, bw, attraction, a-b-db, 14, 1, 1, 32, 60, 135, 56, 125, 135, 60, 1, 0.880572
109, 3, bw, attraction, a-b-db, 14, 1, 1, 32, 60, 135, 56, 125, 135, 60, 2, 1.10006
109, 3, bw, attraction, a-b-da, 5, 1, 1, 33, 60, 135, 132, 58, 135, 60, 2, 1.5978
109, 3, bw, attraction, a-b-da, 5, 1, 1, 33, 60, 135, 132, 58, 135, 60, 1, 1.14058
109, 3, bw, filler, NA, 999, 999, 1, 34, 126, 88, 149, 192, 164, 71, 2, 0.668077
109, 3, bw, filler, NA, 999, 999, 1, 34, 126, 88, 149, 192, 164, 71, 1, 1.94456
109, 3, bw, filler, NA, 999, 999, 1, 35, 165, 146, 107, 111, 91, 174, 1, 1.72793
109, 3, bw, filler, NA, 999, 999, 1, 35, 165, 146, 107, 111, 91, 174, 2, 0.793321
109, 3, bw, attraction, a-b-da, 14, 2, 1, 36, 153, 83, 165, 90, 90, 165, 3, 2.62294
109, 3, bw, attraction, a-b-da, 14, 2, 1, 36, 153, 83, 165, 90, 90, 165, 2, 1.3402
109, 3, bw, catch, NA, 999, 999, 1, 37, 64, 131, 91, 164, 185, 130, 3, 0.763613
109, 3, bw, catch, NA, 999, 999, 1, 37, 64, 131, 91, 164, 185, 130, 1, 0.716121
109, 3, bw, attraction, a-b-db, 14, 3, 2, 1, 111, 181, 195, 120, 120, 195, 3, 1.38118
109, 3, bw, attraction, a-b-db, 14, 3, 2, 1, 111, 181, 195, 120, 120, 195, 2, 1.09279
109, 3, bw, attraction, a-b-da, 2, 3, 2, 2, 193, 119, 195, 120, 120, 195, 3, 1.21426
109, 3, bw, attraction, a-b-da, 2, 3, 2, 2, 193, 119, 195, 120, 120, 195, 2, 0.52458
109, 3, bw, attraction, a-b-db, 9, 1, 2, 3, 60, 135, 135, 60, 57, 129, 1, 1.87706
109, 3, bw, attraction, a-b-db, 9, 1, 2, 3, 60, 135, 135, 60, 57, 129, 3, 1.10446
109, 3, bw, attraction, a-b-db, 14, 2, 2, 4, 83, 153, 165, 90, 90, 165, 3, 1.05003
109, 3, bw, attraction, a-b-db, 14, 2, 2, 4, 83, 153, 165, 90, 90, 165, 2, 0.871017
109, 3, bw, filler, NA, 999, 999, 2, 5, 191, 98, 87, 132, 192, 135, 3, 1.16999
109, 3, bw, filler, NA, 999, 999, 2, 5, 191, 98, 87, 132, 192, 135, 2, 0.498273
109, 3, bw, attraction, a-b-da, 9, 3, 2, 6, 195, 120, 120, 195, 186, 114, 3, 1.42009
109, 3, bw, attraction, a-b-da, 9, 3, 2, 6, 195, 120, 120, 195, 186, 114, 2, 0.818216
109, 3, bw, attraction, a-b-db, 5, 2, 2, 7, 165, 90, 88, 161, 90, 165, 1, 2.5514
109, 3, bw, attraction, a-b-db, 5, 2, 2, 7, 165, 90, 88, 161, 90, 165, 2, 0.567717
109, 3, bw, filler, NA, 999, 999, 2, 8, 137, 139, 57, 128, 57, 73, 1, 0.718887
109, 3, bw, filler, NA, 999, 999, 2, 8, 137, 139, 57, 128, 57, 73, 3, 0.665297
109, 3, bw, filler, NA, 999, 999, 2, 9, 93, 112, 91, 149, 173, 79, 2, 1.9963
109, 3, bw, filler, NA, 999, 999, 2, 9, 93, 112, 91, 149, 173, 79, 1, 0.939102
109, 3, bw, attraction, a-b-db, 2, 3, 2, 10, 120, 195, 119, 193, 195, 120, 2, 1.57937
109, 3, bw, attraction, a-b-db, 2, 3, 2, 10, 120, 195, 119, 193, 195, 120, 3, 0.450795
109, 3, bw, attraction, a-b-db, 2, 2, 2, 11, 89, 163, 165, 90, 90, 165, 2, 0.982534
109, 3, bw, attraction, a-b-db, 2, 2, 2, 11, 89, 163, 165, 90, 90, 165, 3, 0.662349
109, 3, bw, attraction, a-b-da, 2, 2, 2, 12, 90, 165, 165, 90, 163, 89, 3, 1.50542
109, 3, bw, attraction, a-b-da, 2, 2, 2, 12, 90, 165, 165, 90, 163, 89, 2, 0.66752
109, 3, bw, filler, NA, 999, 999, 2, 13, 100, 154, 160, 159, 150, 78, 2, 0.726696
109, 3, bw, filler, NA, 999, 999, 2, 13, 100, 154, 160, 159, 150, 78, 1, 0.952399
109, 3, bw, catch, NA, 999, 999, 2, 14, 141, 174, 122, 133, 86, 109, 1, 1.06394
109, 3, bw, catch, NA, 999, 999, 2, 14, 141, 174, 122, 133, 86, 109, 3, 0.716432
109, 3, bw, attraction, a-b-db, 9, 3, 2, 15, 114, 186, 195, 120, 120, 195, 3, 6.07736
109, 3, bw, attraction, a-b-db, 9, 3, 2, 15, 114, 186, 195, 120, 120, 195, 2, 0.76739
109, 3, bw, attraction, a-b-db, 9, 2, 2, 16, 165, 90, 86, 157, 90, 165, 1, 1.87836
109, 3, bw, attraction, a-b-db, 9, 2, 2, 16, 165, 90, 86, 157, 90, 165, 2, 0.449775
109, 3, bw, attraction, a-b-da, 14, 1, 2, 17, 135, 60, 60, 135, 125, 56, 1, 0.861547
109, 3, bw, attraction, a-b-da, 14, 1, 2, 17, 135, 60, 60, 135, 125, 56, 2, 0.554085
109, 3, bw, attraction, a-b-da, 14, 2, 2, 18, 90, 165, 165, 90, 153, 83, 1, 0.833759
109, 3, bw, attraction, a-b-da, 14, 2, 2, 18, 90, 165, 165, 90, 153, 83, 2, 0.52763
109, 3, bw, attraction, a-b-da, 5, 2, 2, 19, 90, 165, 165, 90, 161, 88, 1, 0.559902
109, 3, bw, attraction, a-b-da, 5, 2, 2, 19, 90, 165, 165, 90, 161, 88, 2, 0.416542
109, 3, bw, attraction, a-b-da, 14, 3, 2, 20, 195, 120, 181, 111, 120, 195, 3, 1.62962
109, 3, bw, attraction, a-b-da, 14, 3, 2, 20, 195, 120, 181, 111, 120, 195, 2, 1.39504
109, 3, bw, filler, NA, 999, 999, 2, 21, 63, 94, 134, 68, 78, 62, 2, 2.20061
109, 3, bw, filler, NA, 999, 999, 2, 21, 63, 94, 134, 68, 78, 62, 3, 1.71118
109, 3, bw, filler, NA, 999, 999, 2, 22, 84, 157, 79, 115, 61, 99, 1, 0.631918
109, 3, bw, filler, NA, 999, 999, 2, 22, 84, 157, 79, 115, 61, 99, 3, 0.629773
109, 3, bw, attraction, a-b-db, 5, 1, 2, 23, 58, 132, 135, 60, 60, 135, 1, 1.15408
109, 3, bw, attraction, a-b-db, 5, 1, 2, 23, 58, 132, 135, 60, 60, 135, 3, 0.659033
109, 3, bw, attraction, a-b-da, 9, 1, 2, 24, 129, 57, 135, 60, 60, 135, 2, 1.67804
109, 3, bw, attraction, a-b-da, 9, 1, 2, 24, 129, 57, 135, 60, 60, 135, 1, 0.521504
109, 3, bw, attraction, a-b-da, 9, 2, 2, 25, 157, 86, 90, 165, 165, 90, 2, 1.29058
109, 3, bw, attraction, a-b-da, 9, 2, 2, 25, 157, 86, 90, 165, 165, 90, 3, 0.429518
109, 3, bw, attraction, a-b-da, 5, 1, 2, 26, 132, 58, 135, 60, 60, 135, 2, 1.14617
109, 3, bw, attraction, a-b-da, 5, 1, 2, 26, 132, 58, 135, 60, 60, 135, 1, 0.514916
109, 3, bw, filler, NA, 999, 999, 2, 27, 186, 104, 189, 152, 114, 154, 2, 0.59601
109, 3, bw, filler, NA, 999, 999, 2, 27, 186, 104, 189, 152, 114, 154, 3, 0.963196
109, 3, bw, catch, NA, 999, 999, 2, 28, 191, 124, 98, 157, 100, 95, 1, 0.786147
109, 3, bw, catch, NA, 999, 999, 2, 28, 191, 124, 98, 157, 100, 95, 3, 0.689917
109, 3, bw, filler, NA, 999, 999, 2, 29, 76, 82, 117, 107, 66, 85, 2, 1.01959
109, 3, bw, filler, NA, 999, 999, 2, 29, 76, 82, 117, 107, 66, 85, 3, 1.17789
109, 3, bw, attraction, a-b-db, 14, 1, 2, 30, 135, 60, 56, 125, 60, 135, 1, 1.31213
109, 3, bw, attraction, a-b-db, 14, 1, 2, 30, 135, 60, 56, 125, 60, 135, 3, 0.546394
109, 3, bw, catch, NA, 999, 999, 2, 31, 138, 117, 130, 65, 141, 174, 3, 1.0982
109, 3, bw, catch, NA, 999, 999, 2, 31, 138, 117, 130, 65, 141, 174, 2, 0.653216
109, 3, bw, attraction, a-b-da, 5, 3, 2, 32, 120, 195, 195, 120, 190, 117, 2, 1.38485
109, 3, bw, attraction, a-b-da, 5, 3, 2, 32, 120, 195, 195, 120, 190, 117, 1, 0.800418
109, 3, bw, filler, NA, 999, 999, 2, 33, 176, 188, 153, 138, 96, 122, 1, 1.27008
109, 3, bw, filler, NA, 999, 999, 2, 33, 176, 188, 153, 138, 96, 122, 3, 0.650349
109, 3, bw, filler, NA, 999, 999, 2, 34, 170, 133, 195, 133, 107, 143, 2, 0.886149
109, 3, bw, filler, NA, 999, 999, 2, 34, 170, 133, 195, 133, 107, 143, 3, 0.641799
109, 3, bw, attraction, a-b-db, 5, 3, 2, 35, 117, 190, 195, 120, 120, 195, 2, 1.44559
109, 3, bw, attraction, a-b-db, 5, 3, 2, 35, 117, 190, 195, 120, 120, 195, 3, 0.586344
109, 3, bw, attraction, a-b-db, 2, 1, 2, 36, 135, 60, 60, 135, 59, 134, 1, 1.2728
109, 3, bw, attraction, a-b-db, 2, 1, 2, 36, 135, 60, 60, 135, 59, 134, 2, 0.476489
109, 3, bw, attraction, a-b-da, 2, 1, 2, 37, 135, 60, 60, 135, 134, 59, 1, 0.64684
109, 3, bw, attraction, a-b-da, 2, 1, 2, 37, 135, 60, 60, 135, 134, 59, 2, 0.916122
109, 3, bw, filler, NA, 999, 999, 3, 1, 59, 122, 189, 99, 158, 161, 3, 2.10898
109, 3, bw, filler, NA, 999, 999, 3, 1, 59, 122, 189, 99, 158, 161, 1, 0.590937
109, 3, bw, filler, NA, 999, 999, 3, 2, 102, 112, 148, 119, 156, 161, 3, 1.05264
109, 3, bw, filler, NA, 999, 999, 3, 2, 102, 112, 148, 119, 156, 161, 1, 0.609628
109, 3, bw, attraction, a-b-da, 14, 1, 3, 3, 135, 60, 125, 56, 60, 135, 2, 1.1348
109, 3, bw, attraction, a-b-da, 14, 1, 3, 3, 135, 60, 125, 56, 60, 135, 1, 0.784333
109, 3, bw, attraction, a-b-db, 2, 3, 3, 4, 195, 120, 120, 195, 119, 193, 1, 1.27879
109, 3, bw, attraction, a-b-db, 2, 3, 3, 4, 195, 120, 120, 195, 119, 193, 3, 0.442434
109, 3, bw, attraction, a-b-da, 2, 3, 3, 5, 120, 195, 195, 120, 193, 119, 1, 1.73411
109, 3, bw, attraction, a-b-da, 2, 3, 3, 5, 120, 195, 195, 120, 193, 119, 2, 0.479625
109, 3, bw, attraction, a-b-da, 5, 1, 3, 6, 135, 60, 60, 135, 132, 58, 3, 0.946043
109, 3, bw, attraction, a-b-da, 5, 1, 3, 6, 135, 60, 60, 135, 132, 58, 2, 0.939028
109, 3, bw, attraction, a-b-da, 14, 3, 3, 7, 120, 195, 181, 111, 195, 120, 1, 0.955388
109, 3, bw, attraction, a-b-da, 14, 3, 3, 7, 120, 195, 181, 111, 195, 120, 2, 0.435626
109, 3, bw, attraction, a-b-db, 5, 1, 3, 8, 58, 132, 60, 135, 135, 60, 1, 0.968249
109, 3, bw, attraction, a-b-db, 5, 1, 3, 8, 58, 132, 60, 135, 135, 60, 3, 0.464547
109, 3, bw, attraction, a-b-da, 5, 3, 3, 9, 195, 120, 190, 117, 120, 195, 3, 1.1957
109, 3, bw, attraction, a-b-da, 5, 3, 3, 9, 195, 120, 190, 117, 120, 195, 2, 0.914515
109, 3, bw, attraction, a-b-db, 2, 1, 3, 10, 135, 60, 60, 135, 59, 134, 1, 0.571522
109, 3, bw, attraction, a-b-db, 2, 1, 3, 10, 135, 60, 60, 135, 59, 134, 2, 0.579285
109, 3, bw, attraction, a-b-da, 9, 3, 3, 11, 195, 120, 120, 195, 186, 114, 1, 0.553737
109, 3, bw, attraction, a-b-da, 9, 3, 3, 11, 195, 120, 120, 195, 186, 114, 2, 0.426285
109, 3, bw, filler, NA, 999, 999, 3, 12, 112, 84, 172, 136, 130, 141, 2, 1.19068
109, 3, bw, filler, NA, 999, 999, 3, 12, 112, 84, 172, 136, 130, 141, 1, 0.669607
109, 3, bw, attraction, a-b-db, 14, 1, 3, 13, 56, 125, 135, 60, 60, 135, 1, 2.2327
109, 3, bw, attraction, a-b-db, 14, 1, 3, 13, 56, 125, 135, 60, 60, 135, 2, 0.757993
109, 3, bw, attraction, a-b-da, 9, 2, 3, 14, 157, 86, 165, 90, 90, 165, 3, 1.20503
109, 3, bw, attraction, a-b-da, 9, 2, 3, 14, 157, 86, 165, 90, 90, 165, 2, 0.771278
109, 3, bw, filler, NA, 999, 999, 3, 15, 83, 99, 90, 137, 123, 72, 2, 1.09831
109, 3, bw, filler, NA, 999, 999, 3, 15, 83, 99, 90, 137, 123, 72, 1, 0.597227
109, 3, bw, attraction, a-b-db, 14, 2, 3, 16, 90, 165, 83, 153, 165, 90, 1, 0.923105
109, 3, bw, attraction, a-b-db, 14, 2, 3, 16, 90, 165, 83, 153, 165, 90, 2, 0.636759
109, 3, bw, attraction, a-b-db, 5, 3, 3, 17, 117, 190, 120, 195, 195, 120, 2, 0.969212
109, 3, bw, attraction, a-b-db, 5, 3, 3, 17, 117, 190, 120, 195, 195, 120, 3, 0.913466
109, 3, bw, filler, NA, 999, 999, 3, 18, 99, 151, 74, 176, 150, 153, 3, 1.03446
109, 3, bw, filler, NA, 999, 999, 3, 18, 99, 151, 74, 176, 150, 153, 2, 2.32811
109, 3, bw, attraction, a-b-da, 2, 1, 3, 19, 134, 59, 135, 60, 60, 135, 3, 4.43197
109, 3, bw, attraction, a-b-da, 2, 1, 3, 19, 134, 59, 135, 60, 60, 135, 2, 0.964518
109, 3, bw, attraction, a-b-db, 9, 1, 3, 20, 135, 60, 60, 135, 57, 129, 1, 0.54776
109, 3, bw, attraction, a-b-db, 9, 1, 3, 20, 135, 60, 60, 135, 57, 129, 2, 0.508767
109, 3, bw, filler, NA, 999, 999, 3, 21, 73, 57, 87, 93, 108, 131, 3, 1.02187
109, 3, bw, filler, NA, 999, 999, 3, 21, 73, 57, 87, 93, 108, 131, 1, 1.21152
109, 3, bw, catch, NA, 999, 999, 3, 22, 137, 118, 138, 177, 72, 123, 2, 2.69631
109, 3, bw, catch, NA, 999, 999, 3, 22, 137, 118, 138, 177, 72, 123, 3, 0.41086
109, 3, bw, filler, NA, 999, 999, 3, 23, 186, 128, 162, 129, 113, 120, 1, 0.919911
109, 3, bw, filler, NA, 999, 999, 3, 23, 186, 128, 162, 129, 113, 120, 3, 0.922315
109, 3, bw, attraction, a-b-db, 2, 2, 3, 24, 89, 163, 165, 90, 90, 165, 1, 0.683495
109, 3, bw, attraction, a-b-db, 2, 2, 3, 24, 89, 163, 165, 90, 90, 165, 2, 0.591049
109, 3, bw, attraction, a-b-db, 9, 2, 3, 25, 165, 90, 86, 157, 90, 165, 3, 0.836835
109, 3, bw, attraction, a-b-db, 9, 2, 3, 25, 165, 90, 86, 157, 90, 165, 2, 0.466535
109, 3, bw, attraction, a-b-db, 14, 3, 3, 26, 120, 195, 111, 181, 195, 120, 3, 0.925732
109, 3, bw, attraction, a-b-db, 14, 3, 3, 26, 120, 195, 111, 181, 195, 120, 2, 0.759349
109, 3, bw, attraction, a-b-da, 5, 2, 3, 27, 161, 88, 90, 165, 165, 90, 1, 0.510355
109, 3, bw, attraction, a-b-da, 5, 2, 3, 27, 161, 88, 90, 165, 165, 90, 2, 0.520832
109, 3, bw, catch, NA, 999, 999, 3, 28, 115, 140, 120, 195, 81, 114, 2, 1.05014
109, 3, bw, catch, NA, 999, 999, 3, 28, 115, 140, 120, 195, 81, 114, 3, 0.582943
109, 3, bw, catch, NA, 999, 999, 3, 29, 149, 106, 106, 89, 194, 121, 3, 1.21336
109, 3, bw, catch, NA, 999, 999, 3, 29, 149, 106, 106, 89, 194, 121, 2, 0.699644
109, 3, bw, filler, NA, 999, 999, 3, 30, 136, 112, 145, 161, 83, 136, 2, 1.50138
109, 3, bw, filler, NA, 999, 999, 3, 30, 136, 112, 145, 161, 83, 136, 3, 0.496183
109, 3, bw, attraction, a-b-db, 5, 2, 3, 31, 165, 90, 88, 161, 90, 165, 1, 0.706055
109, 3, bw, attraction, a-b-db, 5, 2, 3, 31, 165, 90, 88, 161, 90, 165, 2, 0.436412
109, 3, bw, attraction, a-b-da, 9, 1, 3, 32, 129, 57, 135, 60, 60, 135, 3, 0.832983
109, 3, bw, attraction, a-b-da, 9, 1, 3, 32, 129, 57, 135, 60, 60, 135, 2, 0.958565
109, 3, bw, filler, NA, 999, 999, 3, 33, 62, 129, 146, 112, 171, 92, 2, 0.893482
109, 3, bw, filler, NA, 999, 999, 3, 33, 62, 129, 146, 112, 171, 92, 1, 0.600489
109, 3, bw, filler, NA, 999, 999, 3, 34, 95, 190, 134, 188, 169, 152, 2, 0.654255
109, 3, bw, filler, NA, 999, 999, 3, 34, 95, 190, 134, 188, 169, 152, 1, 0.418778
109, 3, bw, attraction, a-b-da, 2, 2, 3, 35, 165, 90, 163, 89, 90, 165, 2, 0.703973
109, 3, bw, attraction, a-b-da, 2, 2, 3, 35, 165, 90, 163, 89, 90, 165, 3, 1.76307
109, 3, bw, attraction, a-b-da, 14, 2, 3, 36, 165, 90, 153, 83, 90, 165, 3, 0.985818
109, 3, bw, attraction, a-b-da, 14, 2, 3, 36, 165, 90, 153, 83, 90, 165, 2, 0.417335
109, 3, bw, attraction, a-b-db, 9, 3, 3, 37, 195, 120, 114, 186, 120, 195, 1, 1.72656
109, 3, bw, attraction, a-b-db, 9, 3, 3, 37, 195, 120, 114, 186, 120, 195, 2, 0.383957
109, 3, bw, filler, NA, 999, 999, 4, 1, 147, 122, 104, 105, 110, 79, 1, 0.574387
109, 3, bw, filler, NA, 999, 999, 4, 1, 147, 122, 104, 105, 110, 79, 3, 0.710344
109, 3, bw, attraction, a-b-da, 14, 3, 4, 2, 120, 195, 195, 120, 181, 111, 2, 1.39943
109, 3, bw, attraction, a-b-da, 14, 3, 4, 2, 120, 195, 195, 120, 181, 111, 1, 0.526349
109, 3, bw, catch, NA, 999, 999, 4, 3, 97, 98, 150, 165, 150, 105, 2, 0.518569
109, 3, bw, catch, NA, 999, 999, 4, 3, 97, 98, 150, 165, 150, 105, 1, 0.393012
109, 3, bw, attraction, a-b-da, 2, 3, 4, 4, 120, 195, 193, 119, 195, 120, 2, 0.758884
109, 3, bw, attraction, a-b-da, 2, 3, 4, 4, 120, 195, 193, 119, 195, 120, 1, 0.695345
109, 3, bw, attraction, a-b-db, 2, 1, 4, 5, 60, 135, 59, 134, 135, 60, 2, 0.721156
109, 3, bw, attraction, a-b-db, 2, 1, 4, 5, 60, 135, 59, 134, 135, 60, 1, 0.45071
109, 3, bw, filler, NA, 999, 999, 4, 6, 191, 124, 69, 59, 176, 161, 3, 2.03853
109, 3, bw, filler, NA, 999, 999, 4, 6, 191, 124, 69, 59, 176, 161, 2, 0.467203
109, 3, bw, attraction, a-b-db, 14, 1, 4, 7, 56, 125, 60, 135, 135, 60, 2, 1.12656
109, 3, bw, attraction, a-b-db, 14, 1, 4, 7, 56, 125, 60, 135, 135, 60, 3, 0.45595
109, 3, bw, attraction, a-b-da, 2, 1, 4, 8, 135, 60, 134, 59, 60, 135, 2, 0.971792
109, 3, bw, attraction, a-b-da, 2, 1, 4, 8, 135, 60, 134, 59, 60, 135, 3, 0.491534
109, 3, bw, catch, NA, 999, 999, 4, 9, 92, 163, 139, 176, 80, 115, 2, 0.525287
109, 3, bw, catch, NA, 999, 999, 4, 9, 92, 163, 139, 176, 80, 115, 3, 0.479091
109, 3, bw, filler, NA, 999, 999, 4, 10, 173, 62, 123, 96, 121, 142, 3, 1.24154
109, 3, bw, filler, NA, 999, 999, 4, 10, 173, 62, 123, 96, 121, 142, 2, 0.990446
109, 3, bw, filler, NA, 999, 999, 4, 11, 135, 102, 89, 132, 70, 101, 1, 1.73214
109, 3, bw, filler, NA, 999, 999, 4, 11, 135, 102, 89, 132, 70, 101, 3, 0.509444
109, 3, bw, attraction, a-b-da, 14, 2, 4, 12, 165, 90, 153, 83, 90, 165, 3, 0.91078
109, 3, bw, attraction, a-b-da, 14, 2, 4, 12, 165, 90, 153, 83, 90, 165, 2, 0.440982
109, 3, bw, attraction, a-b-da, 5, 2, 4, 13, 161, 88, 165, 90, 90, 165, 3, 0.636893
109, 3, bw, attraction, a-b-da, 5, 2, 4, 13, 161, 88, 165, 90, 90, 165, 1, 0.986594
109, 3, bw, filler, NA, 999, 999, 4, 14, 122, 194, 152, 92, 153, 77, 1, 0.792827
109, 3, bw, filler, NA, 999, 999, 4, 14, 122, 194, 152, 92, 153, 77, 3, 0.663943
109, 3, bw, attraction, a-b-db, 5, 1, 4, 15, 58, 132, 60, 135, 135, 60, 3, 1.02695
109, 3, bw, attraction, a-b-db, 5, 1, 4, 15, 58, 132, 60, 135, 135, 60, 2, 0.71269
109, 3, bw, filler, NA, 999, 999, 4, 16, 128, 108, 154, 70, 126, 194, 3, 1.03369
109, 3, bw, filler, NA, 999, 999, 4, 16, 128, 108, 154, 70, 126, 194, 2, 0.551346
109, 3, bw, attraction, a-b-db, 5, 2, 4, 17, 88, 161, 90, 165, 165, 90, 1, 1.21517
109, 3, bw, attraction, a-b-db, 5, 2, 4, 17, 88, 161, 90, 165, 165, 90, 3, 0.485358
109, 3, bw, attraction, a-b-da, 9, 3, 4, 18, 120, 195, 186, 114, 195, 120, 2, 0.615842
109, 3, bw, attraction, a-b-da, 9, 3, 4, 18, 120, 195, 186, 114, 195, 120, 3, 0.894245
109, 3, bw, attraction, a-b-db, 2, 2, 4, 19, 89, 163, 90, 165, 165, 90, 1, 0.592087
109, 3, bw, attraction, a-b-db, 2, 2, 4, 19, 89, 163, 90, 165, 165, 90, 2, 0.599206
109, 3, bw, attraction, a-b-db, 9, 2, 4, 20, 86, 157, 90, 165, 165, 90, 2, 0.74081
109, 3, bw, attraction, a-b-db, 9, 2, 4, 20, 86, 157, 90, 165, 165, 90, 3, 0.326057
109, 3, bw, filler, NA, 999, 999, 4, 21, 115, 68, 120, 182, 118, 175, 2, 1.32636
109, 3, bw, filler, NA, 999, 999, 4, 21, 115, 68, 120, 182, 118, 175, 1, 0.656016
109, 3, bw, attraction, a-b-db, 2, 3, 4, 22, 120, 195, 119, 193, 195, 120, 2, 0.515605
109, 3, bw, attraction, a-b-db, 2, 3, 4, 22, 120, 195, 119, 193, 195, 120, 1, 1.15014
109, 3, bw, filler, NA, 999, 999, 4, 23, 179, 156, 99, 93, 135, 127, 1, 0.917721
109, 3, bw, filler, NA, 999, 999, 4, 23, 179, 156, 99, 93, 135, 127, 2, 0.472236
109, 3, bw, attraction, a-b-da, 9, 1, 4, 24, 135, 60, 60, 135, 129, 57, 2, 2.29129
109, 3, bw, attraction, a-b-da, 9, 1, 4, 24, 135, 60, 60, 135, 129, 57, 1, 0.709828
109, 3, bw, attraction, a-b-da, 2, 2, 4, 25, 163, 89, 90, 165, 165, 90, 2, 0.846818
109, 3, bw, attraction, a-b-da, 2, 2, 4, 25, 163, 89, 90, 165, 165, 90, 3, 0.739922
109, 3, bw, attraction, a-b-da, 5, 1, 4, 26, 60, 135, 132, 58, 135, 60, 1, 0.612253
109, 3, bw, attraction, a-b-da, 5, 1, 4, 26, 60, 135, 132, 58, 135, 60, 2, 0.506728
109, 3, bw, attraction, a-b-db, 14, 2, 4, 27, 90, 165, 83, 153, 165, 90, 3, 1.06786
109, 3, bw, attraction, a-b-db, 14, 2, 4, 27, 90, 165, 83, 153, 165, 90, 1, 0.600169
109, 3, bw, filler, NA, 999, 999, 4, 28, 88, 165, 56, 148, 134, 181, 3, 0.965871
109, 3, bw, filler, NA, 999, 999, 4, 28, 88, 165, 56, 148, 134, 181, 2, 0.454186
109, 3, bw, attraction, a-b-da, 5, 3, 4, 29, 120, 195, 195, 120, 190, 117, 1, 0.569957
109, 3, bw, attraction, a-b-da, 5, 3, 4, 29, 120, 195, 195, 120, 190, 117, 2, 0.82648
109, 3, bw, attraction, a-b-db, 5, 3, 4, 30, 195, 120, 117, 190, 120, 195, 1, 0.63098
109, 3, bw, attraction, a-b-db, 5, 3, 4, 30, 195, 120, 117, 190, 120, 195, 2, 0.716778
109, 3, bw, attraction, a-b-db, 14, 3, 4, 31, 195, 120, 120, 195, 111, 181, 1, 0.913272
109, 3, bw, attraction, a-b-db, 14, 3, 4, 31, 195, 120, 120, 195, 111, 181, 3, 0.544193
109, 3, bw, catch, NA, 999, 999, 4, 32, 127, 68, 129, 126, 153, 162, 3, 1.1439
109, 3, bw, catch, NA, 999, 999, 4, 32, 127, 68, 129, 126, 153, 162, 1, 0.504854
109, 3, bw, attraction, a-b-da, 9, 2, 4, 33, 90, 165, 165, 90, 157, 86, 1, 0.866531
109, 3, bw, attraction, a-b-da, 9, 2, 4, 33, 90, 165, 165, 90, 157, 86, 2, 0.646858
109, 3, bw, filler, NA, 999, 999, 4, 34, 175, 147, 80, 136, 189, 87, 1, 0.586723
109, 3, bw, filler, NA, 999, 999, 4, 34, 175, 147, 80, 136, 189, 87, 2, 0.585005
109, 3, bw, attraction, a-b-db, 9, 1, 4, 35, 60, 135, 135, 60, 57, 129, 1, 0.552879
109, 3, bw, attraction, a-b-db, 9, 1, 4, 35, 60, 135, 135, 60, 57, 129, 2, 0.538028
109, 3, bw, attraction, a-b-da, 14, 1, 4, 36, 135, 60, 60, 135, 125, 56, 1, 0.698543
109, 3, bw, attraction, a-b-da, 14, 1, 4, 36, 135, 60, 60, 135, 125, 56, 2, 1.20565
109, 3, bw, attraction, a-b-db, 9, 3, 4, 37, 120, 195, 114, 186, 195, 120, 3, 0.707174
109, 3, bw, attraction, a-b-db, 9, 3, 4, 37, 120, 195, 114, 186, 195, 120, 2, 0.565524
109, 3, bw, filler, NA, 999, 999, 5, 1, 86, 61, 70, 124, 117, 194, 3, 8.13925
109, 3, bw, filler, NA, 999, 999, 5, 1, 86, 61, 70, 124, 117, 194, 1, 0.562716
109, 3, bw, attraction, a-b-da, 9, 1, 5, 2, 135, 60, 129, 57, 60, 135, 3, 1.30574
109, 3, bw, attraction, a-b-da, 9, 1, 5, 2, 135, 60, 129, 57, 60, 135, 2, 0.396044
109, 3, bw, filler, NA, 999, 999, 5, 3, 60, 142, 151, 158, 193, 167, 3, 0.769792
109, 3, bw, filler, NA, 999, 999, 5, 3, 60, 142, 151, 158, 193, 167, 1, 0.746262
109, 3, bw, attraction, a-b-db, 14, 3, 5, 4, 120, 195, 111, 181, 195, 120, 1, 0.833948
109, 3, bw, attraction, a-b-db, 14, 3, 5, 4, 120, 195, 111, 181, 195, 120, 3, 0.679581
109, 3, bw, attraction, a-b-db, 2, 2, 5, 5, 165, 90, 90, 165, 89, 163, 2, 1.62595
109, 3, bw, attraction, a-b-db, 2, 2, 5, 5, 165, 90, 90, 165, 89, 163, 1, 0.599598
109, 3, bw, filler, NA, 999, 999, 5, 6, 170, 171, 121, 144, 159, 121, 1, 0.701315
109, 3, bw, filler, NA, 999, 999, 5, 6, 170, 171, 121, 144, 159, 121, 2, 1.4083
109, 3, bw, filler, NA, 999, 999, 5, 7, 158, 71, 70, 131, 155, 156, 3, 0.70112
109, 3, bw, filler, NA, 999, 999, 5, 7, 158, 71, 70, 131, 155, 156, 1, 0.608236
109, 3, bw, filler, NA, 999, 999, 5, 8, 166, 65, 75, 105, 85, 86, 1, 1.03738
109, 3, bw, filler, NA, 999, 999, 5, 8, 166, 65, 75, 105, 85, 86, 3, 0.795009
109, 3, bw, attraction, a-b-da, 2, 3, 5, 9, 195, 120, 193, 119, 120, 195, 2, 1.2567
109, 3, bw, attraction, a-b-da, 2, 3, 5, 9, 195, 120, 193, 119, 120, 195, 3, 0.676985
109, 3, bw, attraction, a-b-da, 5, 3, 5, 10, 120, 195, 195, 120, 190, 117, 3, 0.935407
109, 3, bw, attraction, a-b-da, 5, 3, 5, 10, 120, 195, 195, 120, 190, 117, 1, 0.48912
109, 3, bw, attraction, a-b-db, 2, 3, 5, 11, 195, 120, 119, 193, 120, 195, 1, 0.803537
109, 3, bw, attraction, a-b-db, 2, 3, 5, 11, 195, 120, 119, 193, 120, 195, 2, 0.434566
109, 3, bw, attraction, a-b-db, 14, 2, 5, 12, 83, 153, 90, 165, 165, 90, 2, 2.17523
109, 3, bw, attraction, a-b-db, 14, 2, 5, 12, 83, 153, 90, 165, 165, 90, 1, 0.81438
109, 3, bw, attraction, a-b-db, 14, 1, 5, 13, 135, 60, 56, 125, 60, 135, 1, 0.923326
109, 3, bw, attraction, a-b-db, 14, 1, 5, 13, 135, 60, 56, 125, 60, 135, 2, 1.005
109, 3, bw, attraction, a-b-da, 2, 1, 5, 14, 60, 135, 134, 59, 135, 60, 1, 0.722599
109, 3, bw, attraction, a-b-da, 2, 1, 5, 14, 60, 135, 134, 59, 135, 60, 2, 0.908424
109, 3, bw, attraction, a-b-da, 14, 2, 5, 15, 165, 90, 153, 83, 90, 165, 3, 0.76546
109, 3, bw, attraction, a-b-da, 14, 2, 5, 15, 165, 90, 153, 83, 90, 165, 2, 0.477764
109, 3, bw, attraction, a-b-da, 9, 2, 5, 16, 165, 90, 90, 165, 157, 86, 2, 1.74438
109, 3, bw, attraction, a-b-da, 9, 2, 5, 16, 165, 90, 90, 165, 157, 86, 1, 0.449009
109, 3, bw, attraction, a-b-db, 5, 2, 5, 17, 165, 90, 90, 165, 88, 161, 2, 0.900787
109, 3, bw, attraction, a-b-db, 5, 2, 5, 17, 165, 90, 90, 165, 88, 161, 3, 0.647902
109, 3, bw, attraction, a-b-db, 9, 2, 5, 18, 90, 165, 165, 90, 86, 157, 1, 0.619491
109, 3, bw, attraction, a-b-db, 9, 2, 5, 18, 90, 165, 165, 90, 86, 157, 2, 0.385983
109, 3, bw, attraction, a-b-db, 5, 1, 5, 19, 135, 60, 58, 132, 60, 135, 1, 0.664439
109, 3, bw, attraction, a-b-db, 5, 1, 5, 19, 135, 60, 58, 132, 60, 135, 2, 0.381079
109, 3, bw, attraction, a-b-db, 9, 3, 5, 20, 195, 120, 114, 186, 120, 195, 2, 1.43556
109, 3, bw, attraction, a-b-db, 9, 3, 5, 20, 195, 120, 114, 186, 120, 195, 1, 0.568861
109, 3, bw, filler, NA, 999, 999, 5, 21, 103, 90, 180, 167, 98, 118, 2, 0.496059
109, 3, bw, filler, NA, 999, 999, 5, 21, 103, 90, 180, 167, 98, 118, 1, 0.451206
109, 3, bw, attraction, a-b-da, 14, 1, 5, 22, 60, 135, 125, 56, 135, 60, 1, 0.702958
109, 3, bw, attraction, a-b-da, 14, 1, 5, 22, 60, 135, 125, 56, 135, 60, 2, 0.938075
109, 3, bw, attraction, a-b-da, 5, 1, 5, 23, 60, 135, 132, 58, 135, 60, 3, 1.45041
109, 3, bw, attraction, a-b-da, 5, 1, 5, 23, 60, 135, 132, 58, 135, 60, 2, 0.439366
109, 3, bw, attraction, a-b-db, 9, 1, 5, 24, 135, 60, 60, 135, 57, 129, 1, 0.539728
109, 3, bw, attraction, a-b-db, 9, 1, 5, 24, 135, 60, 60, 135, 57, 129, 2, 0.884907
109, 3, bw, filler, NA, 999, 999, 5, 25, 161, 159, 70, 67, 146, 132, 1, 0.711185
109, 3, bw, filler, NA, 999, 999, 5, 25, 161, 159, 70, 67, 146, 132, 2, 0.56965
109, 3, bw, catch, NA, 999, 999, 5, 26, 123, 192, 70, 125, 101, 154, 1, 0.472616
109, 3, bw, catch, NA, 999, 999, 5, 26, 123, 192, 70, 125, 101, 154, 2, 0.420658
109, 3, bw, attraction, a-b-da, 2, 2, 5, 27, 90, 165, 163, 89, 165, 90, 1, 1.11361
109, 3, bw, attraction, a-b-da, 2, 2, 5, 27, 90, 165, 163, 89, 165, 90, 2, 0.716006
109, 3, bw, attraction, a-b-da, 14, 3, 5, 28, 195, 120, 120, 195, 181, 111, 2, 1.09316
109, 3, bw, attraction, a-b-da, 14, 3, 5, 28, 195, 120, 120, 195, 181, 111, 3, 0.360043
109, 3, bw, catch, NA, 999, 999, 5, 29, 96, 159, 184, 131, 119, 76, 2, 0.655207
109, 3, bw, catch, NA, 999, 999, 5, 29, 96, 159, 184, 131, 119, 76, 3, 0.363576
109, 3, bw, attraction, a-b-da, 9, 3, 5, 30, 186, 114, 120, 195, 195, 120, 2, 0.546741
109, 3, bw, attraction, a-b-da, 9, 3, 5, 30, 186, 114, 120, 195, 195, 120, 3, 0.41203
109, 3, bw, attraction, a-b-db, 2, 1, 5, 31, 60, 135, 59, 134, 135, 60, 1, 0.673035
109, 3, bw, attraction, a-b-db, 2, 1, 5, 31, 60, 135, 59, 134, 135, 60, 2, 0.428807
109, 3, bw, attraction, a-b-da, 5, 2, 5, 32, 90, 165, 161, 88, 165, 90, 1, 0.489252
109, 3, bw, attraction, a-b-da, 5, 2, 5, 32, 90, 165, 161, 88, 165, 90, 2, 0.464278
109, 3, bw, catch, NA, 999, 999, 5, 33, 179, 136, 102, 93, 106, 149, 1, 0.535524
109, 3, bw, catch, NA, 999, 999, 5, 33, 179, 136, 102, 93, 106, 149, 2, 0.44927
109, 3, bw, filler, NA, 999, 999, 5, 34, 142, 105, 156, 128, 144, 130, 2, 0.829136
109, 3, bw, filler, NA, 999, 999, 5, 34, 142, 105, 156, 128, 144, 130, 1, 0.730939
109, 3, bw, attraction, a-b-db, 5, 3, 5, 35, 120, 195, 117, 190, 195, 120, 2, 1.79533
109, 3, bw, attraction, a-b-db, 5, 3, 5, 35, 120, 195, 117, 190, 195, 120, 3, 0.329946
109, 3, bw, filler, NA, 999, 999, 5, 36, 156, 125, 153, 166, 173, 180, 2, 0.714464
109, 3, bw, filler, NA, 999, 999, 5, 36, 156, 125, 153, 166, 173, 180, 1, 0.436872
109, 3, bw, filler, NA, 999, 999, 5, 37, 87, 160, 169, 180, 107, 166, 2, 0.641355
109, 3, bw, filler, NA, 999, 999, 5, 37, 87, 160, 169, 180, 107, 166, 1, 0.638441
109, 3, bw, filler, NA, 999, 999, 6, 1, 165, 100, 108, 122, 160, 140, 3, 1.20294
109, 3, bw, filler, NA, 999, 999, 6, 1, 165, 100, 108, 122, 160, 140, 2, 0.585905
109, 3, bw, attraction, a-b-db, 5, 2, 6, 2, 90, 165, 88, 161, 165, 90, 1, 0.57617
109, 3, bw, attraction, a-b-db, 5, 2, 6, 2, 90, 165, 88, 161, 165, 90, 3, 1.71215
109, 3, bw, attraction, a-b-da, 9, 1, 6, 3, 129, 57, 60, 135, 135, 60, 1, 0.544757
109, 3, bw, attraction, a-b-da, 9, 1, 6, 3, 129, 57, 60, 135, 135, 60, 2, 0.457905
109, 3, bw, attraction, a-b-da, 5, 2, 6, 4, 165, 90, 161, 88, 90, 165, 2, 0.757126
109, 3, bw, attraction, a-b-da, 5, 2, 6, 4, 165, 90, 161, 88, 90, 165, 3, 0.525423
109, 3, bw, attraction, a-b-da, 2, 2, 6, 5, 90, 165, 165, 90, 163, 89, 1, 0.678056
109, 3, bw, attraction, a-b-da, 2, 2, 6, 5, 90, 165, 165, 90, 163, 89, 2, 0.449582
109, 3, bw, attraction, a-b-da, 9, 3, 6, 6, 186, 114, 120, 195, 195, 120, 2, 1.05346
109, 3, bw, attraction, a-b-da, 9, 3, 6, 6, 186, 114, 120, 195, 195, 120, 1, 0.75438
109, 3, bw, filler, NA, 999, 999, 6, 7, 97, 109, 83, 134, 135, 144, 3, 1.49825
109, 3, bw, filler, NA, 999, 999, 6, 7, 97, 109, 83, 134, 135, 144, 1, 0.428965
109, 3, bw, attraction, a-b-da, 2, 1, 6, 8, 60, 135, 135, 60, 134, 59, 2, 0.889439
109, 3, bw, attraction, a-b-da, 2, 1, 6, 8, 60, 135, 135, 60, 134, 59, 3, 0.628601
109, 3, bw, attraction, a-b-da, 14, 2, 6, 9, 165, 90, 153, 83, 90, 165, 2, 0.65685
109, 3, bw, attraction, a-b-da, 14, 2, 6, 9, 165, 90, 153, 83, 90, 165, 1, 0.541386
109, 3, bw, attraction, a-b-db, 5, 3, 6, 10, 195, 120, 117, 190, 120, 195, 3, 1.47718
109, 3, bw, attraction, a-b-db, 5, 3, 6, 10, 195, 120, 117, 190, 120, 195, 1, 0.528662
109, 3, bw, attraction, a-b-da, 5, 3, 6, 11, 190, 117, 120, 195, 195, 120, 2, 0.449124
109, 3, bw, attraction, a-b-da, 5, 3, 6, 11, 190, 117, 120, 195, 195, 120, 1, 0.678327
109, 3, bw, attraction, a-b-db, 2, 1, 6, 12, 135, 60, 60, 135, 59, 134, 2, 0.680579
109, 3, bw, attraction, a-b-db, 2, 1, 6, 12, 135, 60, 60, 135, 59, 134, 1, 0.612384
109, 3, bw, attraction, a-b-db, 2, 3, 6, 13, 120, 195, 195, 120, 119, 193, 1, 0.601465
109, 3, bw, attraction, a-b-db, 2, 3, 6, 13, 120, 195, 195, 120, 119, 193, 2, 0.344544
109, 3, bw, attraction, a-b-db, 14, 2, 6, 14, 83, 153, 165, 90, 90, 165, 1, 0.448595
109, 3, bw, attraction, a-b-db, 14, 2, 6, 14, 83, 153, 165, 90, 90, 165, 2, 0.477536
109, 3, bw, attraction, a-b-da, 14, 1, 6, 15, 60, 135, 135, 60, 125, 56, 1, 0.648108
109, 3, bw, attraction, a-b-da, 14, 1, 6, 15, 60, 135, 135, 60, 125, 56, 2, 1.22114
109, 3, bw, attraction, a-b-db, 5, 1, 6, 16, 60, 135, 135, 60, 58, 132, 2, 0.666037
109, 3, bw, attraction, a-b-db, 5, 1, 6, 16, 60, 135, 135, 60, 58, 132, 1, 0.462504
109, 3, bw, filler, NA, 999, 999, 6, 17, 151, 100, 75, 133, 64, 136, 1, 1.52164
109, 3, bw, filler, NA, 999, 999, 6, 17, 151, 100, 75, 133, 64, 136, 2, 0.579037
109, 3, bw, filler, NA, 999, 999, 6, 18, 93, 192, 148, 169, 115, 122, 2, 0.529641
109, 3, bw, filler, NA, 999, 999, 6, 18, 93, 192, 148, 169, 115, 122, 1, 0.435302
109, 3, bw, filler, NA, 999, 999, 6, 19, 139, 141, 111, 118, 158, 118, 3, 2.2718
109, 3, bw, filler, NA, 999, 999, 6, 19, 139, 141, 111, 118, 158, 118, 2, 0.56311
109, 3, bw, filler, NA, 999, 999, 6, 20, 66, 121, 158, 139, 60, 171, 2, 0.610171
109, 3, bw, filler, NA, 999, 999, 6, 20, 66, 121, 158, 139, 60, 171, 1, 0.704568
109, 3, bw, attraction, a-b-db, 14, 1, 6, 21, 135, 60, 56, 125, 60, 135, 1, 1.43444
109, 3, bw, attraction, a-b-db, 14, 1, 6, 21, 135, 60, 56, 125, 60, 135, 2, 0.399941
109, 3, bw, attraction, a-b-da, 14, 3, 6, 22, 195, 120, 181, 111, 120, 195, 3, 1.42967
109, 3, bw, attraction, a-b-da, 14, 3, 6, 22, 195, 120, 181, 111, 120, 195, 2, 0.475272
109, 3, bw, filler, NA, 999, 999, 6, 23, 147, 153, 173, 98, 57, 173, 1, 0.701666
109, 3, bw, filler, NA, 999, 999, 6, 23, 147, 153, 173, 98, 57, 173, 3, 0.672759
109, 3, bw, catch, NA, 999, 999, 6, 24, 77, 118, 131, 184, 108, 147, 2, 0.771942
109, 3, bw, catch, NA, 999, 999, 6, 24, 77, 118, 131, 184, 108, 147, 1, 0.459587
109, 3, bw, attraction, a-b-db, 9, 3, 6, 25, 114, 186, 120, 195, 195, 120, 3, 1.35079
109, 3, bw, attraction, a-b-db, 9, 3, 6, 25, 114, 186, 120, 195, 195, 120, 1, 0.58364
109, 3, bw, catch, NA, 999, 999, 6, 26, 139, 116, 144, 171, 62, 133, 2, 1.06994
109, 3, bw, catch, NA, 999, 999, 6, 26, 139, 116, 144, 171, 62, 133, 3, 0.65844
109, 3, bw, attraction, a-b-da, 5, 1, 6, 27, 132, 58, 135, 60, 60, 135, 2, 0.709337
109, 3, bw, attraction, a-b-da, 5, 1, 6, 27, 132, 58, 135, 60, 60, 135, 3, 0.799927
109, 3, bw, attraction, a-b-db, 9, 2, 6, 28, 90, 165, 165, 90, 86, 157, 1, 1.2215
109, 3, bw, attraction, a-b-db, 9, 2, 6, 28, 90, 165, 165, 90, 86, 157, 2, 0.363066
109, 3, bw, catch, NA, 999, 999, 6, 29, 190, 125, 159, 96, 127, 68, 1, 0.666231
109, 3, bw, catch, NA, 999, 999, 6, 29, 190, 125, 159, 96, 127, 68, 3, 0.646693
109, 3, bw, filler, NA, 999, 999, 6, 30, 93, 118, 191, 135, 130, 194, 2, 0.818351
109, 3, bw, filler, NA, 999, 999, 6, 30, 93, 118, 191, 135, 130, 194, 1, 0.448939
109, 3, bw, attraction, a-b-db, 14, 3, 6, 31, 195, 120, 120, 195, 111, 181, 1, 2.18063
109, 3, bw, attraction, a-b-db, 14, 3, 6, 31, 195, 120, 120, 195, 111, 181, 2, 0.587885
109, 3, bw, attraction, a-b-db, 2, 2, 6, 32, 165, 90, 89, 163, 90, 165, 1, 2.39432
109, 3, bw, attraction, a-b-db, 2, 2, 6, 32, 165, 90, 89, 163, 90, 165, 2, 0.408816
109, 3, bw, attraction, a-b-db, 9, 1, 6, 33, 135, 60, 60, 135, 57, 129, 2, 1.07814
109, 3, bw, attraction, a-b-db, 9, 1, 6, 33, 135, 60, 60, 135, 57, 129, 1, 0.71367
109, 3, bw, attraction, a-b-da, 2, 3, 6, 34, 193, 119, 120, 195, 195, 120, 2, 0.706733
109, 3, bw, attraction, a-b-da, 2, 3, 6, 34, 193, 119, 120, 195, 195, 120, 1, 0.405136
109, 3, bw, filler, NA, 999, 999, 6, 35, 87, 154, 130, 111, 138, 83, 2, 0.64295
109, 3, bw, filler, NA, 999, 999, 6, 35, 87, 154, 130, 111, 138, 83, 3, 0.840014
109, 3, bw, filler, NA, 999, 999, 6, 36, 89, 118, 128, 117, 132, 60, 2, 2.21232
109, 3, bw, filler, NA, 999, 999, 6, 36, 89, 118, 128, 117, 132, 60, 1, 0.730339
109, 3, bw, attraction, a-b-da, 9, 2, 6, 37, 157, 86, 90, 165, 165, 90, 2, 0.594633
109, 3, bw, attraction, a-b-da, 9, 2, 6, 37, 157, 86, 90, 165, 165, 90, 1, 0.44182
109, 3, bw, attraction, a-b-da, 2, 3, 7, 1, 195, 120, 193, 119, 120, 195, 1, 0.693705
109, 3, bw, attraction, a-b-da, 2, 3, 7, 1, 195, 120, 193, 119, 120, 195, 2, 0.368684
109, 3, bw, attraction, a-b-da, 14, 1, 7, 2, 125, 56, 135, 60, 60, 135, 3, 1.43182
109, 3, bw, attraction, a-b-da, 14, 1, 7, 2, 125, 56, 135, 60, 60, 135, 2, 0.805396
109, 3, bw, attraction, a-b-db, 5, 1, 7, 3, 58, 132, 135, 60, 60, 135, 3, 1.09123
109, 3, bw, attraction, a-b-db, 5, 1, 7, 3, 58, 132, 135, 60, 60, 135, 2, 0.654092
109, 3, bw, filler, NA, 999, 999, 7, 4, 110, 162, 189, 177, 117, 60, 2, 0.569944
109, 3, bw, filler, NA, 999, 999, 7, 4, 110, 162, 189, 177, 117, 60, 3, 1.02629
109, 3, bw, catch, NA, 999, 999, 7, 5, 114, 81, 121, 134, 138, 177, 3, 0.718517
109, 3, bw, catch, NA, 999, 999, 7, 5, 114, 81, 121, 134, 138, 177, 1, 0.889002
109, 3, bw, attraction, a-b-da, 5, 2, 7, 6, 161, 88, 165, 90, 90, 165, 3, 0.747294
109, 3, bw, attraction, a-b-da, 5, 2, 7, 6, 161, 88, 165, 90, 90, 165, 2, 0.556529
109, 3, bw, filler, NA, 999, 999, 7, 7, 165, 91, 99, 181, 113, 107, 2, 0.852249
109, 3, bw, filler, NA, 999, 999, 7, 7, 165, 91, 99, 181, 113, 107, 3, 0.633234
109, 3, bw, attraction, a-b-da, 2, 2, 7, 8, 165, 90, 163, 89, 90, 165, 1, 0.573595
109, 3, bw, attraction, a-b-da, 2, 2, 7, 8, 165, 90, 163, 89, 90, 165, 3, 1.02136
109, 3, bw, attraction, a-b-db, 9, 3, 7, 9, 114, 186, 195, 120, 120, 195, 2, 0.514355
109, 3, bw, attraction, a-b-db, 9, 3, 7, 9, 114, 186, 195, 120, 120, 195, 1, 1.89291
109, 3, bw, attraction, a-b-da, 2, 1, 7, 10, 135, 60, 134, 59, 60, 135, 3, 0.678236
109, 3, bw, attraction, a-b-da, 2, 1, 7, 10, 135, 60, 134, 59, 60, 135, 2, 0.530099
109, 3, bw, attraction, a-b-db, 5, 2, 7, 11, 90, 165, 165, 90, 88, 161, 1, 0.922411
109, 3, bw, attraction, a-b-db, 5, 2, 7, 11, 90, 165, 165, 90, 88, 161, 2, 0.459283
109, 3, bw, attraction, a-b-db, 2, 2, 7, 12, 165, 90, 89, 163, 90, 165, 2, 0.975219
109, 3, bw, attraction, a-b-db, 2, 2, 7, 12, 165, 90, 89, 163, 90, 165, 1, 0.718943
109, 3, bw, filler, NA, 999, 999, 7, 13, 60, 171, 72, 194, 147, 193, 3, 0.863969
109, 3, bw, filler, NA, 999, 999, 7, 13, 60, 171, 72, 194, 147, 193, 1, 0.620295
109, 3, bw, attraction, a-b-db, 14, 3, 7, 14, 120, 195, 195, 120, 111, 181, 3, 0.769348
109, 3, bw, attraction, a-b-db, 14, 3, 7, 14, 120, 195, 195, 120, 111, 181, 2, 0.769796
109, 3, bw, attraction, a-b-da, 5, 1, 7, 15, 135, 60, 132, 58, 60, 135, 1, 0.696717
109, 3, bw, attraction, a-b-da, 5, 1, 7, 15, 135, 60, 132, 58, 60, 135, 3, 0.539852
109, 3, bw, attraction, a-b-da, 9, 3, 7, 16, 195, 120, 186, 114, 120, 195, 2, 0.732249
109, 3, bw, attraction, a-b-da, 9, 3, 7, 16, 195, 120, 186, 114, 120, 195, 1, 1.00604
109, 3, bw, attraction, a-b-da, 9, 1, 7, 17, 135, 60, 129, 57, 60, 135, 3, 0.923786
109, 3, bw, attraction, a-b-da, 9, 1, 7, 17, 135, 60, 129, 57, 60, 135, 2, 0.789438
109, 3, bw, attraction, a-b-db, 14, 1, 7, 18, 135, 60, 60, 135, 56, 125, 3, 0.787759
109, 3, bw, attraction, a-b-db, 14, 1, 7, 18, 135, 60, 60, 135, 56, 125, 1, 0.539457
109, 3, bw, attraction, a-b-da, 14, 3, 7, 19, 195, 120, 181, 111, 120, 195, 3, 0.804018
109, 3, bw, attraction, a-b-da, 14, 3, 7, 19, 195, 120, 181, 111, 120, 195, 1, 0.722419
109, 3, bw, catch, NA, 999, 999, 7, 20, 95, 100, 124, 131, 177, 138, 3, 0.651538
109, 3, bw, catch, NA, 999, 999, 7, 20, 95, 100, 124, 131, 177, 138, 1, 0.560475
109, 3, bw, catch, NA, 999, 999, 7, 21, 153, 102, 184, 131, 103, 92, 2, 1.1436
109, 3, bw, catch, NA, 999, 999, 7, 21, 153, 102, 184, 131, 103, 92, 3, 0.400667
109, 3, bw, filler, NA, 999, 999, 7, 22, 117, 69, 178, 195, 88, 130, 2, 0.702418
109, 3, bw, filler, NA, 999, 999, 7, 22, 117, 69, 178, 195, 88, 130, 1, 0.777388
109, 3, bw, attraction, a-b-db, 14, 2, 7, 23, 165, 90, 83, 153, 90, 165, 3, 0.879842
109, 3, bw, attraction, a-b-db, 14, 2, 7, 23, 165, 90, 83, 153, 90, 165, 1, 0.595554
109, 3, bw, attraction, a-b-da, 5, 3, 7, 24, 190, 117, 195, 120, 120, 195, 3, 1.42528
109, 3, bw, attraction, a-b-da, 5, 3, 7, 24, 190, 117, 195, 120, 120, 195, 1, 0.838763
109, 3, bw, attraction, a-b-db, 9, 1, 7, 25, 60, 135, 135, 60, 57, 129, 2, 1.54706
109, 3, bw, attraction, a-b-db, 9, 1, 7, 25, 60, 135, 135, 60, 57, 129, 1, 0.451985
109, 3, bw, attraction, a-b-da, 9, 2, 7, 26, 157, 86, 90, 165, 165, 90, 2, 0.871749
109, 3, bw, attraction, a-b-da, 9, 2, 7, 26, 157, 86, 90, 165, 165, 90, 1, 0.691482
109, 3, bw, attraction, a-b-db, 2, 3, 7, 27, 119, 193, 195, 120, 120, 195, 1, 1.02919
109, 3, bw, attraction, a-b-db, 2, 3, 7, 27, 119, 193, 195, 120, 120, 195, 2, 0.378811
109, 3, bw, filler, NA, 999, 999, 7, 28, 188, 172, 194, 184, 167, 176, 1, 0.529436
109, 3, bw, filler, NA, 999, 999, 7, 28, 188, 172, 194, 184, 167, 176, 3, 1.16319
109, 3, bw, attraction, a-b-db, 2, 1, 7, 29, 59, 134, 135, 60, 60, 135, 1, 0.834051
109, 3, bw, attraction, a-b-db, 2, 1, 7, 29, 59, 134, 135, 60, 60, 135, 2, 0.439818
109, 3, bw, filler, NA, 999, 999, 7, 30, 85, 139, 185, 129, 147, 107, 2, 1.76421
109, 3, bw, filler, NA, 999, 999, 7, 30, 85, 139, 185, 129, 147, 107, 1, 0.604762
109, 3, bw, filler, NA, 999, 999, 7, 31, 103, 105, 138, 75, 168, 173, 3, 0.650056
109, 3, bw, filler, NA, 999, 999, 7, 31, 103, 105, 138, 75, 168, 173, 2, 0.679212
109, 3, bw, attraction, a-b-da, 14, 2, 7, 32, 90, 165, 165, 90, 153, 83, 1, 0.921487
109, 3, bw, attraction, a-b-da, 14, 2, 7, 32, 90, 165, 165, 90, 153, 83, 3, 1.16331
109, 3, bw, attraction, a-b-db, 5, 3, 7, 33, 195, 120, 120, 195, 117, 190, 2, 0.498149
109, 3, bw, attraction, a-b-db, 5, 3, 7, 33, 195, 120, 120, 195, 117, 190, 1, 0.43744
109, 3, bw, attraction, a-b-db, 9, 2, 7, 34, 90, 165, 86, 157, 165, 90, 3, 0.929796
109, 3, bw, attraction, a-b-db, 9, 2, 7, 34, 90, 165, 86, 157, 165, 90, 1, 0.467561
109, 3, bw, filler, NA, 999, 999, 7, 35, 146, 59, 69, 82, 69, 141, 3, 1.71055
109, 3, bw, filler, NA, 999, 999, 7, 35, 146, 59, 69, 82, 69, 141, 2, 0.416753
109, 3, bw, filler, NA, 999, 999, 7, 36, 138, 158, 173, 84, 174, 163, 1, 0.61382
109, 3, bw, filler, NA, 999, 999, 7, 36, 138, 158, 173, 84, 174, 163, 2, 0.724359
109, 3, bw, filler, NA, 999, 999, 7, 37, 88, 169, 70, 74, 114, 116, 3, 1.38072
109, 3, bw, filler, NA, 999, 999, 7, 37, 88, 169, 70, 74, 114, 116, 2, 0.668221
109, 3, bw, attraction, a-b-db, 5, 2, 8, 1, 165, 90, 90, 165, 88, 161, 1, 0.919229
109, 3, bw, attraction, a-b-db, 5, 2, 8, 1, 165, 90, 90, 165, 88, 161, 2, 0.44978
109, 3, bw, filler, NA, 999, 999, 8, 2, 168, 62, 154, 145, 121, 76, 2, 0.749463
109, 3, bw, filler, NA, 999, 999, 8, 2, 168, 62, 154, 145, 121, 76, 3, 0.374594
109, 3, bw, attraction, a-b-db, 5, 1, 8, 3, 135, 60, 60, 135, 58, 132, 1, 0.701136
109, 3, bw, attraction, a-b-db, 5, 1, 8, 3, 135, 60, 60, 135, 58, 132, 2, 0.384134
109, 3, bw, attraction, a-b-da, 14, 3, 8, 4, 195, 120, 181, 111, 120, 195, 2, 0.670645
109, 3, bw, attraction, a-b-da, 14, 3, 8, 4, 195, 120, 181, 111, 120, 195, 1, 0.379028
109, 3, bw, attraction, a-b-da, 9, 3, 8, 5, 120, 195, 195, 120, 186, 114, 3, 0.723193
109, 3, bw, attraction, a-b-da, 9, 3, 8, 5, 120, 195, 195, 120, 186, 114, 1, 0.48331
109, 3, bw, filler, NA, 999, 999, 8, 6, 72, 83, 171, 180, 98, 142, 2, 1.0457
109, 3, bw, filler, NA, 999, 999, 8, 6, 72, 83, 171, 180, 98, 142, 1, 0.498744
109, 3, bw, filler, NA, 999, 999, 8, 7, 179, 131, 142, 151, 153, 135, 1, 0.996593
109, 3, bw, filler, NA, 999, 999, 8, 7, 179, 131, 142, 151, 153, 135, 2, 0.611479
109, 3, bw, catch, NA, 999, 999, 8, 8, 126, 189, 77, 118, 148, 107, 1, 1.12864
109, 3, bw, catch, NA, 999, 999, 8, 8, 126, 189, 77, 118, 148, 107, 2, 0.434154
109, 3, bw, filler, NA, 999, 999, 8, 9, 72, 180, 125, 120, 78, 84, 2, 1.57469
109, 3, bw, filler, NA, 999, 999, 8, 9, 72, 180, 125, 120, 78, 84, 3, 0.670266
109, 3, bw, attraction, a-b-da, 5, 3, 8, 10, 190, 117, 195, 120, 120, 195, 3, 1.40926
109, 3, bw, attraction, a-b-da, 5, 3, 8, 10, 190, 117, 195, 120, 120, 195, 1, 0.775354
109, 3, bw, attraction, a-b-db, 2, 3, 8, 11, 120, 195, 195, 120, 119, 193, 2, 0.773798
109, 3, bw, attraction, a-b-db, 2, 3, 8, 11, 120, 195, 195, 120, 119, 193, 1, 0.453611
109, 3, bw, attraction, a-b-da, 9, 2, 8, 12, 90, 165, 157, 86, 165, 90, 3, 0.689306
109, 3, bw, attraction, a-b-da, 9, 2, 8, 12, 90, 165, 157, 86, 165, 90, 2, 0.428295
109, 3, bw, attraction, a-b-da, 5, 2, 8, 13, 161, 88, 90, 165, 165, 90, 2, 0.720792
109, 3, bw, attraction, a-b-da, 5, 2, 8, 13, 161, 88, 90, 165, 165, 90, 1, 0.779229
109, 3, bw, attraction, a-b-da, 5, 1, 8, 14, 132, 58, 135, 60, 60, 135, 3, 1.68968
109, 3, bw, attraction, a-b-da, 5, 1, 8, 14, 132, 58, 135, 60, 60, 135, 2, 0.404506
109, 3, bw, attraction, a-b-da, 2, 1, 8, 15, 60, 135, 134, 59, 135, 60, 3, 0.594243
109, 3, bw, attraction, a-b-da, 2, 1, 8, 15, 60, 135, 134, 59, 135, 60, 2, 0.873413
109, 3, bw, attraction, a-b-db, 14, 2, 8, 16, 90, 165, 165, 90, 83, 153, 1, 0.835626
109, 3, bw, attraction, a-b-db, 14, 2, 8, 16, 90, 165, 165, 90, 83, 153, 2, 0.85745
109, 3, bw, attraction, a-b-db, 9, 1, 8, 17, 60, 135, 135, 60, 57, 129, 3, 0.724464
109, 3, bw, attraction, a-b-db, 9, 1, 8, 17, 60, 135, 135, 60, 57, 129, 2, 0.534177
109, 3, bw, attraction, a-b-db, 2, 2, 8, 18, 165, 90, 89, 163, 90, 165, 1, 0.702602
109, 3, bw, attraction, a-b-db, 2, 2, 8, 18, 165, 90, 89, 163, 90, 165, 2, 0.513584
109, 3, bw, filler, NA, 999, 999, 8, 19, 167, 124, 150, 95, 147, 171, 1, 0.466851
109, 3, bw, filler, NA, 999, 999, 8, 19, 167, 124, 150, 95, 147, 171, 2, 0.623299
109, 3, bw, attraction, a-b-db, 9, 2, 8, 20, 165, 90, 86, 157, 90, 165, 3, 1.2757
109, 3, bw, attraction, a-b-db, 9, 2, 8, 20, 165, 90, 86, 157, 90, 165, 2, 0.599288
109, 3, bw, filler, NA, 999, 999, 8, 21, 132, 175, 86, 190, 72, 156, 1, 1.63695
109, 3, bw, filler, NA, 999, 999, 8, 21, 132, 175, 86, 190, 72, 156, 3, 0.698409
109, 3, bw, attraction, a-b-da, 14, 2, 8, 22, 165, 90, 153, 83, 90, 165, 3, 0.892167
109, 3, bw, attraction, a-b-da, 14, 2, 8, 22, 165, 90, 153, 83, 90, 165, 2, 0.487292
109, 3, bw, catch, NA, 999, 999, 8, 23, 128, 127, 182, 133, 74, 121, 2, 1.27375
109, 3, bw, catch, NA, 999, 999, 8, 23, 128, 127, 182, 133, 74, 121, 3, 0.477236
109, 3, bw, attraction, a-b-db, 5, 3, 8, 24, 195, 120, 117, 190, 120, 195, 1, 0.735813
109, 3, bw, attraction, a-b-db, 5, 3, 8, 24, 195, 120, 117, 190, 120, 195, 2, 1.21748
109, 3, bw, attraction, a-b-da, 2, 2, 8, 25, 165, 90, 163, 89, 90, 165, 1, 0.830392
109, 3, bw, attraction, a-b-da, 2, 2, 8, 25, 165, 90, 163, 89, 90, 165, 2, 0.57214
109, 3, bw, catch, NA, 999, 999, 8, 26, 127, 188, 114, 81, 159, 96, 1, 0.683161
109, 3, bw, catch, NA, 999, 999, 8, 26, 127, 188, 114, 81, 159, 96, 2, 0.814852
109, 3, bw, attraction, a-b-da, 14, 1, 8, 27, 125, 56, 60, 135, 135, 60, 2, 1.09198
109, 3, bw, attraction, a-b-da, 14, 1, 8, 27, 125, 56, 60, 135, 135, 60, 1, 0.430964
109, 3, bw, filler, NA, 999, 999, 8, 28, 85, 108, 174, 75, 178, 163, 3, 0.643411
109, 3, bw, filler, NA, 999, 999, 8, 28, 85, 108, 174, 75, 178, 163, 1, 0.488551
109, 3, bw, filler, NA, 999, 999, 8, 29, 164, 150, 83, 111, 57, 108, 1, 0.722972
109, 3, bw, filler, NA, 999, 999, 8, 29, 164, 150, 83, 111, 57, 108, 3, 0.572712
109, 3, bw, filler, NA, 999, 999, 8, 30, 168, 85, 62, 64, 89, 71, 1, 0.739727
109, 3, bw, filler, NA, 999, 999, 8, 30, 168, 85, 62, 64, 89, 71, 2, 0.58889
109, 3, bw, attraction, a-b-da, 9, 1, 8, 31, 135, 60, 60, 135, 129, 57, 3, 0.747329
109, 3, bw, attraction, a-b-da, 9, 1, 8, 31, 135, 60, 60, 135, 129, 57, 2, 0.396318
109, 3, bw, filler, NA, 999, 999, 8, 32, 156, 64, 87, 133, 81, 102, 2, 1.8102
109, 3, bw, filler, NA, 999, 999, 8, 32, 156, 64, 87, 133, 81, 102, 1, 1.53631
109, 3, bw, attraction, a-b-db, 9, 3, 8, 33, 114, 186, 120, 195, 195, 120, 3, 1.20842
109, 3, bw, attraction, a-b-db, 9, 3, 8, 33, 114, 186, 120, 195, 195, 120, 1, 0.478641
109, 3, bw, attraction, a-b-db, 14, 3, 8, 34, 120, 195, 195, 120, 111, 181, 2, 0.849036
109, 3, bw, attraction, a-b-db, 14, 3, 8, 34, 120, 195, 195, 120, 111, 181, 1, 0.438123
109, 3, bw, attraction, a-b-db, 2, 1, 8, 35, 135, 60, 59, 134, 60, 135, 1, 0.978667
109, 3, bw, attraction, a-b-db, 2, 1, 8, 35, 135, 60, 59, 134, 60, 135, 3, 0.466273
109, 3, bw, attraction, a-b-db, 14, 1, 8, 36, 135, 60, 60, 135, 56, 125, 1, 0.701418
109, 3, bw, attraction, a-b-db, 14, 1, 8, 36, 135, 60, 60, 135, 56, 125, 2, 0.608526
109, 3, bw, attraction, a-b-da, 2, 3, 8, 37, 120, 195, 193, 119, 195, 120, 2, 1.40581
109, 3, bw, attraction, a-b-da, 2, 3, 8, 37, 120, 195, 193, 119, 195, 120, 3, 0.731944
