sub_n, computer_n, bw_cond, effect, set, distance, diag, block_n, trial_n, h1, w1, h2, w2, h3, w3, choice, rt 
104, 3, wb, practice, NA, 999, 999, 0, 1, 142, 126, 68, 87, 82, 173, 2, 1.3232
104, 3, wb, practice, NA, 999, 999, 0, 1, 142, 126, 68, 87, 82, 173, 1, 5.3259
104, 3, wb, practice, NA, 999, 999, 0, 2, 91, 77, 156, 180, 125, 153, 1, 2.50554
104, 3, wb, practice, NA, 999, 999, 0, 2, 91, 77, 156, 180, 125, 153, 2, 1.39769
104, 3, wb, practice, NA, 999, 999, 0, 3, 178, 140, 69, 135, 117, 76, 3, 3.83985
104, 3, wb, practice, NA, 999, 999, 0, 3, 178, 140, 69, 135, 117, 76, 1, 2.49781
104, 3, wb, attraction, a-b-da, 9, 2, 1, 1, 165, 90, 157, 86, 90, 165, 2, 4.55986
104, 3, wb, attraction, a-b-da, 9, 2, 1, 1, 165, 90, 157, 86, 90, 165, 3, 1.01497
104, 3, wb, attraction, a-b-db, 14, 3, 1, 2, 120, 195, 195, 120, 111, 181, 3, 2.83593
104, 3, wb, attraction, a-b-db, 14, 3, 1, 2, 120, 195, 195, 120, 111, 181, 2, 1.84098
104, 3, wb, filler, NA, 999, 999, 1, 3, 128, 105, 145, 177, 157, 140, 1, 1.43633
104, 3, wb, filler, NA, 999, 999, 1, 3, 128, 105, 145, 177, 157, 140, 2, 1.15392
104, 3, wb, catch, NA, 999, 999, 1, 4, 117, 138, 136, 179, 104, 91, 3, 1.92138
104, 3, wb, catch, NA, 999, 999, 1, 4, 117, 138, 136, 179, 104, 91, 2, 0.515467
104, 3, wb, attraction, a-b-da, 5, 1, 1, 5, 60, 135, 132, 58, 135, 60, 1, 3.04458
104, 3, wb, attraction, a-b-da, 5, 1, 1, 5, 60, 135, 132, 58, 135, 60, 3, 1.63297
104, 3, wb, filler, NA, 999, 999, 1, 6, 97, 100, 74, 98, 58, 111, 2, 2.46107
104, 3, wb, filler, NA, 999, 999, 1, 6, 97, 100, 74, 98, 58, 111, 1, 1.08101
104, 3, wb, filler, NA, 999, 999, 1, 7, 148, 116, 92, 179, 67, 147, 3, 1.66713
104, 3, wb, filler, NA, 999, 999, 1, 7, 148, 116, 92, 179, 67, 147, 1, 2.1034
104, 3, wb, attraction, a-b-da, 14, 2, 1, 8, 153, 83, 90, 165, 165, 90, 1, 2.55258
104, 3, wb, attraction, a-b-da, 14, 2, 1, 8, 153, 83, 90, 165, 165, 90, 2, 1.04915
104, 3, wb, attraction, a-b-db, 9, 2, 1, 9, 165, 90, 90, 165, 86, 157, 3, 3.42072
104, 3, wb, attraction, a-b-db, 9, 2, 1, 9, 165, 90, 90, 165, 86, 157, 2, 1.88241
104, 3, wb, attraction, a-b-db, 5, 3, 1, 10, 195, 120, 117, 190, 120, 195, 2, 5.26844
104, 3, wb, attraction, a-b-db, 5, 3, 1, 10, 195, 120, 117, 190, 120, 195, 3, 1.03932
104, 3, wb, attraction, a-b-db, 14, 1, 1, 11, 135, 60, 56, 125, 60, 135, 2, 2.09165
104, 3, wb, attraction, a-b-db, 14, 1, 1, 11, 135, 60, 56, 125, 60, 135, 3, 2.19827
104, 3, wb, attraction, a-b-da, 9, 1, 1, 12, 129, 57, 60, 135, 135, 60, 1, 3.97142
104, 3, wb, attraction, a-b-da, 9, 1, 1, 12, 129, 57, 60, 135, 135, 60, 3, 0.947058
104, 3, wb, attraction, a-b-db, 14, 2, 1, 13, 90, 165, 83, 153, 165, 90, 2, 4.02657
104, 3, wb, attraction, a-b-db, 14, 2, 1, 13, 90, 165, 83, 153, 165, 90, 3, 1.97544
104, 3, wb, attraction, a-b-da, 14, 3, 1, 14, 181, 111, 120, 195, 195, 120, 1, 1.71735
104, 3, wb, attraction, a-b-da, 14, 3, 1, 14, 181, 111, 120, 195, 195, 120, 2, 0.527342
104, 3, wb, attraction, a-b-da, 14, 1, 1, 15, 135, 60, 60, 135, 125, 56, 3, 2.95179
104, 3, wb, attraction, a-b-da, 14, 1, 1, 15, 135, 60, 60, 135, 125, 56, 2, 0.488385
104, 3, wb, attraction, a-b-db, 2, 1, 1, 16, 135, 60, 60, 135, 59, 134, 3, 5.23478
104, 3, wb, attraction, a-b-db, 2, 1, 1, 16, 135, 60, 60, 135, 59, 134, 1, 2.80698
104, 3, wb, attraction, a-b-da, 2, 1, 1, 17, 134, 59, 60, 135, 135, 60, 1, 3.96409
104, 3, wb, attraction, a-b-da, 2, 1, 1, 17, 134, 59, 60, 135, 135, 60, 2, 0.659489
104, 3, wb, catch, NA, 999, 999, 1, 18, 131, 184, 161, 94, 87, 108, 3, 2.43846
104, 3, wb, catch, NA, 999, 999, 1, 18, 131, 184, 161, 94, 87, 108, 1, 0.651719
104, 3, wb, attraction, a-b-db, 2, 2, 1, 19, 90, 165, 165, 90, 89, 163, 1, 3.63948
104, 3, wb, attraction, a-b-db, 2, 2, 1, 19, 90, 165, 165, 90, 89, 163, 3, 2.93165
104, 3, wb, attraction, a-b-db, 9, 3, 1, 20, 114, 186, 120, 195, 195, 120, 1, 3.45951
104, 3, wb, attraction, a-b-db, 9, 3, 1, 20, 114, 186, 120, 195, 195, 120, 2, 0.918827
104, 3, wb, filler, NA, 999, 999, 1, 21, 132, 73, 68, 100, 123, 188, 2, 1.23187
104, 3, wb, filler, NA, 999, 999, 1, 21, 132, 73, 68, 100, 123, 188, 3, 0.60548
104, 3, wb, filler, NA, 999, 999, 1, 22, 67, 158, 87, 122, 144, 162, 1, 2.86739
104, 3, wb, filler, NA, 999, 999, 1, 22, 67, 158, 87, 122, 144, 162, 3, 0.735173
104, 3, wb, filler, NA, 999, 999, 1, 23, 155, 165, 68, 148, 171, 122, 2, 4.77535
104, 3, wb, filler, NA, 999, 999, 1, 23, 155, 165, 68, 148, 171, 122, 1, 2.30982
104, 3, wb, filler, NA, 999, 999, 1, 24, 169, 94, 61, 155, 151, 124, 2, 3.51838
104, 3, wb, filler, NA, 999, 999, 1, 24, 169, 94, 61, 155, 151, 124, 3, 0.53586
104, 3, wb, filler, NA, 999, 999, 1, 25, 179, 115, 138, 162, 108, 193, 1, 2.89641
104, 3, wb, filler, NA, 999, 999, 1, 25, 179, 115, 138, 162, 108, 193, 2, 1.25879
104, 3, wb, attraction, a-b-db, 9, 1, 1, 26, 60, 135, 135, 60, 57, 129, 2, 3.88566
104, 3, wb, attraction, a-b-db, 9, 1, 1, 26, 60, 135, 135, 60, 57, 129, 1, 0.824391
104, 3, wb, catch, NA, 999, 999, 1, 27, 91, 104, 154, 161, 141, 114, 1, 1.6687
104, 3, wb, catch, NA, 999, 999, 1, 27, 91, 104, 154, 161, 141, 114, 2, 0.528787
104, 3, wb, filler, NA, 999, 999, 1, 28, 57, 143, 192, 103, 82, 107, 1, 2.38536
104, 3, wb, filler, NA, 999, 999, 1, 28, 57, 143, 192, 103, 82, 107, 2, 0.400633
104, 3, wb, attraction, a-b-db, 5, 1, 1, 29, 135, 60, 60, 135, 58, 132, 3, 2.56628
104, 3, wb, attraction, a-b-db, 5, 1, 1, 29, 135, 60, 60, 135, 58, 132, 2, 0.57415
104, 3, wb, filler, NA, 999, 999, 1, 30, 65, 145, 107, 169, 121, 82, 1, 1.21262
104, 3, wb, filler, NA, 999, 999, 1, 30, 65, 145, 107, 169, 121, 82, 2, 0.666906
104, 3, wb, attraction, a-b-da, 2, 3, 1, 31, 193, 119, 195, 120, 120, 195, 2, 2.62993
104, 3, wb, attraction, a-b-da, 2, 3, 1, 31, 193, 119, 195, 120, 120, 195, 3, 0.395175
104, 3, wb, attraction, a-b-da, 5, 2, 1, 32, 161, 88, 90, 165, 165, 90, 1, 3.64088
104, 3, wb, attraction, a-b-da, 5, 2, 1, 32, 161, 88, 90, 165, 165, 90, 3, 1.48519
104, 3, wb, attraction, a-b-da, 2, 2, 1, 33, 163, 89, 165, 90, 90, 165, 1, 2.42319
104, 3, wb, attraction, a-b-da, 2, 2, 1, 33, 163, 89, 165, 90, 90, 165, 3, 0.412536
104, 3, wb, attraction, a-b-db, 5, 2, 1, 34, 90, 165, 165, 90, 88, 161, 3, 1.96974
104, 3, wb, attraction, a-b-db, 5, 2, 1, 34, 90, 165, 165, 90, 88, 161, 1, 0.913581
104, 3, wb, attraction, a-b-da, 9, 3, 1, 35, 120, 195, 195, 120, 186, 114, 2, 3.33065
104, 3, wb, attraction, a-b-da, 9, 3, 1, 35, 120, 195, 195, 120, 186, 114, 1, 0.363513
104, 3, wb, attraction, a-b-da, 5, 3, 1, 36, 120, 195, 190, 117, 195, 120, 2, 5.63475
104, 3, wb, attraction, a-b-da, 5, 3, 1, 36, 120, 195, 190, 117, 195, 120, 1, 0.470917
104, 3, wb, attraction, a-b-db, 2, 3, 1, 37, 119, 193, 195, 120, 120, 195, 2, 2.13006
104, 3, wb, attraction, a-b-db, 2, 3, 1, 37, 119, 193, 195, 120, 120, 195, 3, 0.419405
104, 3, wb, catch, NA, 999, 999, 2, 1, 173, 142, 126, 69, 117, 138, 2, 1.04047
104, 3, wb, catch, NA, 999, 999, 2, 1, 173, 142, 126, 69, 117, 138, 1, 0.725552
104, 3, wb, attraction, a-b-db, 5, 2, 2, 2, 165, 90, 88, 161, 90, 165, 1, 1.64585
104, 3, wb, attraction, a-b-db, 5, 2, 2, 2, 165, 90, 88, 161, 90, 165, 3, 0.418663
104, 3, wb, filler, NA, 999, 999, 2, 3, 154, 142, 95, 73, 185, 191, 2, 0.719763
104, 3, wb, filler, NA, 999, 999, 2, 3, 154, 142, 95, 73, 185, 191, 3, 0.442264
104, 3, wb, attraction, a-b-db, 14, 2, 2, 4, 165, 90, 90, 165, 83, 153, 3, 2.24601
104, 3, wb, attraction, a-b-db, 14, 2, 2, 4, 165, 90, 90, 165, 83, 153, 1, 0.546614
104, 3, wb, attraction, a-b-da, 9, 2, 2, 5, 165, 90, 157, 86, 90, 165, 1, 3.0104
104, 3, wb, attraction, a-b-da, 9, 2, 2, 5, 165, 90, 157, 86, 90, 165, 3, 0.600315
104, 3, wb, attraction, a-b-db, 5, 1, 2, 6, 60, 135, 58, 132, 135, 60, 1, 1.70984
104, 3, wb, attraction, a-b-db, 5, 1, 2, 6, 60, 135, 58, 132, 135, 60, 3, 0.504034
104, 3, wb, filler, NA, 999, 999, 2, 7, 124, 57, 120, 80, 132, 72, 1, 1.44979
104, 3, wb, filler, NA, 999, 999, 2, 7, 124, 57, 120, 80, 132, 72, 2, 2.3986
104, 3, wb, attraction, a-b-da, 2, 1, 2, 8, 60, 135, 135, 60, 134, 59, 1, 4.08382
104, 3, wb, attraction, a-b-da, 2, 1, 2, 8, 60, 135, 135, 60, 134, 59, 2, 0.406441
104, 3, wb, attraction, a-b-db, 2, 3, 2, 9, 119, 193, 120, 195, 195, 120, 3, 4.02026
104, 3, wb, attraction, a-b-db, 2, 3, 2, 9, 119, 193, 120, 195, 195, 120, 2, 0.345978
104, 3, wb, attraction, a-b-da, 5, 2, 2, 10, 90, 165, 161, 88, 165, 90, 1, 2.00949
104, 3, wb, attraction, a-b-da, 5, 2, 2, 10, 90, 165, 161, 88, 165, 90, 2, 0.423537
104, 3, wb, filler, NA, 999, 999, 2, 11, 121, 149, 97, 145, 185, 166, 2, 1.42799
104, 3, wb, filler, NA, 999, 999, 2, 11, 121, 149, 97, 145, 185, 166, 3, 0.457548
104, 3, wb, attraction, a-b-da, 2, 2, 2, 12, 163, 89, 165, 90, 90, 165, 1, 1.65272
104, 3, wb, attraction, a-b-da, 2, 2, 2, 12, 163, 89, 165, 90, 90, 165, 3, 0.425513
104, 3, wb, attraction, a-b-da, 2, 3, 2, 13, 193, 119, 195, 120, 120, 195, 1, 1.8059
104, 3, wb, attraction, a-b-da, 2, 3, 2, 13, 193, 119, 195, 120, 120, 195, 3, 0.508041
104, 3, wb, attraction, a-b-da, 14, 1, 2, 14, 135, 60, 125, 56, 60, 135, 2, 3.65322
104, 3, wb, attraction, a-b-da, 14, 1, 2, 14, 135, 60, 125, 56, 60, 135, 3, 0.497359
104, 3, wb, attraction, a-b-da, 14, 2, 2, 15, 153, 83, 165, 90, 90, 165, 1, 3.87498
104, 3, wb, attraction, a-b-da, 14, 2, 2, 15, 153, 83, 165, 90, 90, 165, 3, 0.461948
104, 3, wb, attraction, a-b-da, 14, 3, 2, 16, 120, 195, 181, 111, 195, 120, 2, 4.43292
104, 3, wb, attraction, a-b-da, 14, 3, 2, 16, 120, 195, 181, 111, 195, 120, 1, 0.493642
104, 3, wb, catch, NA, 999, 999, 2, 17, 183, 132, 145, 110, 125, 70, 3, 2.81537
104, 3, wb, catch, NA, 999, 999, 2, 17, 183, 132, 145, 110, 125, 70, 1, 0.60522
104, 3, wb, attraction, a-b-da, 9, 1, 2, 18, 60, 135, 129, 57, 135, 60, 2, 1.13087
104, 3, wb, attraction, a-b-da, 9, 1, 2, 18, 60, 135, 129, 57, 135, 60, 1, 0.420389
104, 3, wb, attraction, a-b-db, 9, 2, 2, 19, 86, 157, 90, 165, 165, 90, 1, 2.35365
104, 3, wb, attraction, a-b-db, 9, 2, 2, 19, 86, 157, 90, 165, 165, 90, 3, 0.810283
104, 3, wb, attraction, a-b-da, 5, 1, 2, 20, 132, 58, 60, 135, 135, 60, 1, 4.38324
104, 3, wb, attraction, a-b-da, 5, 1, 2, 20, 132, 58, 60, 135, 135, 60, 2, 0.357899
104, 3, wb, attraction, a-b-db, 5, 3, 2, 21, 117, 190, 195, 120, 120, 195, 2, 5.91709
104, 3, wb, attraction, a-b-db, 5, 3, 2, 21, 117, 190, 195, 120, 120, 195, 1, 0.933737
104, 3, wb, filler, NA, 999, 999, 2, 22, 137, 78, 122, 192, 120, 164, 1, 1.23808
104, 3, wb, filler, NA, 999, 999, 2, 22, 137, 78, 122, 192, 120, 164, 2, 0.4277
104, 3, wb, filler, NA, 999, 999, 2, 23, 127, 160, 111, 125, 92, 180, 2, 1.51215
104, 3, wb, filler, NA, 999, 999, 2, 23, 127, 160, 111, 125, 92, 180, 1, 1.05823
104, 3, wb, attraction, a-b-db, 14, 3, 2, 24, 120, 195, 195, 120, 111, 181, 3, 4.58133
104, 3, wb, attraction, a-b-db, 14, 3, 2, 24, 120, 195, 195, 120, 111, 181, 1, 1.73992
104, 3, wb, filler, NA, 999, 999, 2, 25, 136, 164, 193, 159, 144, 122, 3, 1.4998
104, 3, wb, filler, NA, 999, 999, 2, 25, 136, 164, 193, 159, 144, 122, 2, 0.430664
104, 3, wb, filler, NA, 999, 999, 2, 26, 94, 72, 164, 190, 172, 171, 1, 0.9871
104, 3, wb, filler, NA, 999, 999, 2, 26, 94, 72, 164, 190, 172, 171, 2, 0.506872
104, 3, wb, attraction, a-b-db, 9, 3, 2, 27, 195, 120, 120, 195, 114, 186, 2, 3.89992
104, 3, wb, attraction, a-b-db, 9, 3, 2, 27, 195, 120, 120, 195, 114, 186, 1, 0.918072
104, 3, wb, attraction, a-b-db, 14, 1, 2, 28, 60, 135, 56, 125, 135, 60, 2, 1.35908
104, 3, wb, attraction, a-b-db, 14, 1, 2, 28, 60, 135, 56, 125, 135, 60, 1, 0.463211
104, 3, wb, filler, NA, 999, 999, 2, 29, 90, 179, 192, 57, 188, 71, 2, 1.85832
104, 3, wb, filler, NA, 999, 999, 2, 29, 90, 179, 192, 57, 188, 71, 1, 0.374549
104, 3, wb, attraction, a-b-db, 2, 1, 2, 30, 60, 135, 135, 60, 59, 134, 2, 1.44492
104, 3, wb, attraction, a-b-db, 2, 1, 2, 30, 60, 135, 135, 60, 59, 134, 1, 0.737798
104, 3, wb, catch, NA, 999, 999, 2, 31, 156, 159, 133, 122, 82, 113, 3, 0.906086
104, 3, wb, catch, NA, 999, 999, 2, 31, 156, 159, 133, 122, 82, 113, 1, 0.516535
104, 3, wb, attraction, a-b-da, 9, 3, 2, 32, 120, 195, 186, 114, 195, 120, 2, 2.7176
104, 3, wb, attraction, a-b-da, 9, 3, 2, 32, 120, 195, 186, 114, 195, 120, 3, 0.535552
104, 3, wb, attraction, a-b-db, 2, 2, 2, 33, 165, 90, 89, 163, 90, 165, 1, 2.48781
104, 3, wb, attraction, a-b-db, 2, 2, 2, 33, 165, 90, 89, 163, 90, 165, 3, 0.659067
104, 3, wb, filler, NA, 999, 999, 2, 34, 152, 128, 183, 107, 155, 186, 1, 2.02212
104, 3, wb, filler, NA, 999, 999, 2, 34, 152, 128, 183, 107, 155, 186, 3, 0.411626
104, 3, wb, filler, NA, 999, 999, 2, 35, 126, 163, 174, 96, 77, 114, 3, 0.696526
104, 3, wb, filler, NA, 999, 999, 2, 35, 126, 163, 174, 96, 77, 114, 1, 0.619729
104, 3, wb, attraction, a-b-db, 9, 1, 2, 36, 135, 60, 57, 129, 60, 135, 1, 1.36093
104, 3, wb, attraction, a-b-db, 9, 1, 2, 36, 135, 60, 57, 129, 60, 135, 2, 0.360921
104, 3, wb, attraction, a-b-da, 5, 3, 2, 37, 195, 120, 190, 117, 120, 195, 1, 3.84817
104, 3, wb, attraction, a-b-da, 5, 3, 2, 37, 195, 120, 190, 117, 120, 195, 3, 0.34019
104, 3, wb, attraction, a-b-db, 9, 2, 3, 1, 86, 157, 165, 90, 90, 165, 1, 2.49207
104, 3, wb, attraction, a-b-db, 9, 2, 3, 1, 86, 157, 165, 90, 90, 165, 3, 2.68665
104, 3, wb, attraction, a-b-db, 14, 2, 3, 2, 83, 153, 90, 165, 165, 90, 1, 4.04841
104, 3, wb, attraction, a-b-db, 14, 2, 3, 2, 83, 153, 90, 165, 165, 90, 2, 0.852374
104, 3, wb, attraction, a-b-da, 5, 3, 3, 3, 120, 195, 190, 117, 195, 120, 2, 4.41621
104, 3, wb, attraction, a-b-da, 5, 3, 3, 3, 120, 195, 190, 117, 195, 120, 1, 0.661379
104, 3, wb, filler, NA, 999, 999, 3, 4, 126, 192, 115, 63, 186, 109, 2, 0.936563
104, 3, wb, filler, NA, 999, 999, 3, 4, 126, 192, 115, 63, 186, 109, 1, 0.898147
104, 3, wb, attraction, a-b-db, 9, 1, 3, 5, 135, 60, 57, 129, 60, 135, 1, 5.9078
104, 3, wb, attraction, a-b-db, 9, 1, 3, 5, 135, 60, 57, 129, 60, 135, 3, 0.876678
104, 3, wb, attraction, a-b-db, 5, 3, 3, 6, 120, 195, 117, 190, 195, 120, 1, 2.21501
104, 3, wb, attraction, a-b-db, 5, 3, 3, 6, 120, 195, 117, 190, 195, 120, 3, 0.372887
104, 3, wb, filler, NA, 999, 999, 3, 7, 178, 90, 160, 107, 175, 77, 3, 2.00408
104, 3, wb, filler, NA, 999, 999, 3, 7, 178, 90, 160, 107, 175, 77, 2, 0.762694
104, 3, wb, attraction, a-b-db, 14, 1, 3, 8, 135, 60, 56, 125, 60, 135, 1, 2.96183
104, 3, wb, attraction, a-b-db, 14, 1, 3, 8, 135, 60, 56, 125, 60, 135, 3, 0.489508
104, 3, wb, attraction, a-b-da, 14, 1, 3, 9, 60, 135, 125, 56, 135, 60, 2, 7.88392
104, 3, wb, attraction, a-b-da, 14, 1, 3, 9, 60, 135, 125, 56, 135, 60, 3, 0.541448
104, 3, wb, filler, NA, 999, 999, 3, 10, 79, 172, 111, 94, 88, 169, 2, 0.853137
104, 3, wb, filler, NA, 999, 999, 3, 10, 79, 172, 111, 94, 88, 169, 3, 0.482246
104, 3, wb, filler, NA, 999, 999, 3, 11, 157, 65, 109, 81, 177, 154, 2, 1.10083
104, 3, wb, filler, NA, 999, 999, 3, 11, 157, 65, 109, 81, 177, 154, 3, 0.343573
104, 3, wb, attraction, a-b-da, 14, 3, 3, 12, 181, 111, 120, 195, 195, 120, 1, 2.16758
104, 3, wb, attraction, a-b-da, 14, 3, 3, 12, 181, 111, 120, 195, 195, 120, 2, 0.303488
104, 3, wb, attraction, a-b-da, 5, 2, 3, 13, 161, 88, 165, 90, 90, 165, 2, 5.31348
104, 3, wb, attraction, a-b-da, 5, 2, 3, 13, 161, 88, 165, 90, 90, 165, 3, 0.33035
104, 3, wb, attraction, a-b-da, 9, 2, 3, 14, 90, 165, 157, 86, 165, 90, 2, 2.75486
104, 3, wb, attraction, a-b-da, 9, 2, 3, 14, 90, 165, 157, 86, 165, 90, 3, 0.626548
104, 3, wb, filler, NA, 999, 999, 3, 15, 157, 73, 108, 101, 111, 68, 3, 1.58302
104, 3, wb, filler, NA, 999, 999, 3, 15, 157, 73, 108, 101, 111, 68, 2, 1.46258
104, 3, wb, filler, NA, 999, 999, 3, 16, 116, 129, 176, 59, 189, 152, 2, 3.50525
104, 3, wb, filler, NA, 999, 999, 3, 16, 116, 129, 176, 59, 189, 152, 3, 0.339519
104, 3, wb, filler, NA, 999, 999, 3, 17, 77, 96, 140, 136, 171, 150, 1, 2.88401
104, 3, wb, filler, NA, 999, 999, 3, 17, 77, 96, 140, 136, 171, 150, 3, 0.455052
104, 3, wb, attraction, a-b-da, 14, 2, 3, 18, 153, 83, 90, 165, 165, 90, 1, 3.77887
104, 3, wb, attraction, a-b-da, 14, 2, 3, 18, 153, 83, 90, 165, 165, 90, 2, 0.54561
104, 3, wb, attraction, a-b-da, 5, 1, 3, 19, 135, 60, 60, 135, 132, 58, 2, 5.72947
104, 3, wb, attraction, a-b-da, 5, 1, 3, 19, 135, 60, 60, 135, 132, 58, 1, 1.00163
104, 3, wb, catch, NA, 999, 999, 3, 20, 92, 103, 99, 156, 185, 130, 1, 1.23125
104, 3, wb, catch, NA, 999, 999, 3, 20, 92, 103, 99, 156, 185, 130, 3, 0.444828
104, 3, wb, catch, NA, 999, 999, 3, 21, 121, 194, 107, 148, 91, 104, 3, 0.816648
104, 3, wb, catch, NA, 999, 999, 3, 21, 121, 194, 107, 148, 91, 104, 1, 0.487003
104, 3, wb, filler, NA, 999, 999, 3, 22, 85, 160, 153, 118, 108, 96, 3, 1.42538
104, 3, wb, filler, NA, 999, 999, 3, 22, 85, 160, 153, 118, 108, 96, 2, 0.375124
104, 3, wb, filler, NA, 999, 999, 3, 23, 115, 186, 178, 88, 155, 60, 3, 3.95753
104, 3, wb, filler, NA, 999, 999, 3, 23, 115, 186, 178, 88, 155, 60, 1, 0.540947
104, 3, wb, attraction, a-b-da, 9, 1, 3, 24, 60, 135, 135, 60, 129, 57, 2, 4.67663
104, 3, wb, attraction, a-b-da, 9, 1, 3, 24, 60, 135, 135, 60, 129, 57, 1, 0.447294
104, 3, wb, attraction, a-b-da, 2, 3, 3, 25, 193, 119, 120, 195, 195, 120, 1, 6.04302
104, 3, wb, attraction, a-b-da, 2, 3, 3, 25, 193, 119, 120, 195, 195, 120, 2, 0.32646
104, 3, wb, attraction, a-b-db, 9, 3, 3, 26, 114, 186, 195, 120, 120, 195, 1, 4.3428
104, 3, wb, attraction, a-b-db, 9, 3, 3, 26, 114, 186, 195, 120, 120, 195, 3, 0.830791
104, 3, wb, attraction, a-b-db, 2, 3, 3, 27, 120, 195, 119, 193, 195, 120, 3, 3.48331
104, 3, wb, attraction, a-b-db, 2, 3, 3, 27, 120, 195, 119, 193, 195, 120, 1, 0.43004
104, 3, wb, attraction, a-b-db, 2, 1, 3, 28, 135, 60, 60, 135, 59, 134, 1, 3.3306
104, 3, wb, attraction, a-b-db, 2, 1, 3, 28, 135, 60, 60, 135, 59, 134, 3, 0.451542
104, 3, wb, catch, NA, 999, 999, 3, 29, 129, 66, 90, 165, 166, 149, 1, 0.871409
104, 3, wb, catch, NA, 999, 999, 3, 29, 129, 66, 90, 165, 166, 149, 3, 0.427737
104, 3, wb, attraction, a-b-db, 5, 1, 3, 30, 135, 60, 60, 135, 58, 132, 3, 4.82418
104, 3, wb, attraction, a-b-db, 5, 1, 3, 30, 135, 60, 60, 135, 58, 132, 2, 0.372516
104, 3, wb, attraction, a-b-db, 5, 2, 3, 31, 90, 165, 88, 161, 165, 90, 2, 7.84382
104, 3, wb, attraction, a-b-db, 5, 2, 3, 31, 90, 165, 88, 161, 165, 90, 3, 0.459197
104, 3, wb, filler, NA, 999, 999, 3, 32, 174, 124, 135, 181, 67, 75, 3, 1.11367
104, 3, wb, filler, NA, 999, 999, 3, 32, 174, 124, 135, 181, 67, 75, 2, 0.372021
104, 3, wb, attraction, a-b-da, 2, 1, 3, 33, 60, 135, 134, 59, 135, 60, 1, 3.39514
104, 3, wb, attraction, a-b-da, 2, 1, 3, 33, 60, 135, 134, 59, 135, 60, 2, 0.697589
104, 3, wb, attraction, a-b-da, 2, 2, 3, 34, 165, 90, 90, 165, 163, 89, 1, 3.97912
104, 3, wb, attraction, a-b-da, 2, 2, 3, 34, 165, 90, 90, 165, 163, 89, 2, 0.465837
104, 3, wb, attraction, a-b-da, 9, 3, 3, 35, 195, 120, 120, 195, 186, 114, 1, 8.45294
104, 3, wb, attraction, a-b-da, 9, 3, 3, 35, 195, 120, 120, 195, 186, 114, 2, 0.383602
104, 3, wb, attraction, a-b-db, 14, 3, 3, 36, 120, 195, 195, 120, 111, 181, 3, 1.72621
104, 3, wb, attraction, a-b-db, 14, 3, 3, 36, 120, 195, 195, 120, 111, 181, 2, 0.303581
104, 3, wb, attraction, a-b-db, 2, 2, 3, 37, 89, 163, 165, 90, 90, 165, 2, 1.44148
104, 3, wb, attraction, a-b-db, 2, 2, 3, 37, 89, 163, 165, 90, 90, 165, 3, 0.42236
104, 3, wb, attraction, a-b-da, 9, 2, 4, 1, 165, 90, 157, 86, 90, 165, 2, 2.10744
104, 3, wb, attraction, a-b-da, 9, 2, 4, 1, 165, 90, 157, 86, 90, 165, 3, 0.365452
104, 3, wb, filler, NA, 999, 999, 4, 2, 169, 161, 102, 168, 94, 67, 3, 1.06055
104, 3, wb, filler, NA, 999, 999, 4, 2, 169, 161, 102, 168, 94, 67, 1, 0.408865
104, 3, wb, attraction, a-b-da, 5, 2, 4, 3, 90, 165, 165, 90, 161, 88, 1, 1.80608
104, 3, wb, attraction, a-b-da, 5, 2, 4, 3, 90, 165, 165, 90, 161, 88, 2, 3.22837
104, 3, wb, filler, NA, 999, 999, 4, 4, 73, 88, 109, 89, 116, 71, 1, 0.863736
104, 3, wb, filler, NA, 999, 999, 4, 4, 73, 88, 109, 89, 116, 71, 2, 0.596094
104, 3, wb, attraction, a-b-db, 9, 1, 4, 5, 57, 129, 60, 135, 135, 60, 3, 3.00993
104, 3, wb, attraction, a-b-db, 9, 1, 4, 5, 57, 129, 60, 135, 135, 60, 2, 0.391536
104, 3, wb, attraction, a-b-db, 2, 1, 4, 6, 60, 135, 59, 134, 135, 60, 3, 0.821344
104, 3, wb, attraction, a-b-db, 2, 1, 4, 6, 60, 135, 59, 134, 135, 60, 2, 0.483797
104, 3, wb, attraction, a-b-da, 9, 3, 4, 7, 186, 114, 120, 195, 195, 120, 1, 1.25417
104, 3, wb, attraction, a-b-da, 9, 3, 4, 7, 186, 114, 120, 195, 195, 120, 2, 0.395092
104, 3, wb, attraction, a-b-db, 5, 3, 4, 8, 117, 190, 195, 120, 120, 195, 1, 1.26498
104, 3, wb, attraction, a-b-db, 5, 3, 4, 8, 117, 190, 195, 120, 120, 195, 2, 0.773353
104, 3, wb, attraction, a-b-db, 14, 3, 4, 9, 120, 195, 195, 120, 111, 181, 2, 1.70027
104, 3, wb, attraction, a-b-db, 14, 3, 4, 9, 120, 195, 195, 120, 111, 181, 1, 0.374979
104, 3, wb, attraction, a-b-da, 2, 1, 4, 10, 134, 59, 135, 60, 60, 135, 2, 5.0776
104, 3, wb, attraction, a-b-da, 2, 1, 4, 10, 134, 59, 135, 60, 60, 135, 3, 0.392015
104, 3, wb, filler, NA, 999, 999, 4, 11, 115, 71, 179, 71, 99, 143, 1, 1.08578
104, 3, wb, filler, NA, 999, 999, 4, 11, 115, 71, 179, 71, 99, 143, 3, 0.697414
104, 3, wb, attraction, a-b-db, 14, 2, 4, 12, 83, 153, 165, 90, 90, 165, 1, 3.10704
104, 3, wb, attraction, a-b-db, 14, 2, 4, 12, 83, 153, 165, 90, 90, 165, 3, 0.372722
104, 3, wb, catch, NA, 999, 999, 4, 13, 98, 97, 149, 106, 157, 158, 1, 1.33185
104, 3, wb, catch, NA, 999, 999, 4, 13, 98, 97, 149, 106, 157, 158, 3, 0.309439
104, 3, wb, attraction, a-b-db, 14, 1, 4, 14, 60, 135, 135, 60, 56, 125, 2, 3.26263
104, 3, wb, attraction, a-b-db, 14, 1, 4, 14, 60, 135, 135, 60, 56, 125, 3, 0.330329
104, 3, wb, filler, NA, 999, 999, 4, 15, 80, 151, 119, 105, 179, 165, 2, 3.8828
104, 3, wb, filler, NA, 999, 999, 4, 15, 80, 151, 119, 105, 179, 165, 3, 1.24549
104, 3, wb, filler, NA, 999, 999, 4, 16, 167, 144, 170, 141, 149, 187, 2, 7.48107
104, 3, wb, filler, NA, 999, 999, 4, 16, 167, 144, 170, 141, 149, 187, 3, 0.378678
104, 3, wb, attraction, a-b-da, 14, 2, 4, 17, 165, 90, 153, 83, 90, 165, 2, 4.3852
104, 3, wb, attraction, a-b-da, 14, 2, 4, 17, 165, 90, 153, 83, 90, 165, 3, 0.327813
104, 3, wb, attraction, a-b-db, 2, 3, 4, 18, 120, 195, 119, 193, 195, 120, 3, 1.66439
104, 3, wb, attraction, a-b-db, 2, 3, 4, 18, 120, 195, 119, 193, 195, 120, 2, 0.324331
104, 3, wb, attraction, a-b-da, 14, 1, 4, 19, 135, 60, 125, 56, 60, 135, 2, 0.732822
104, 3, wb, attraction, a-b-da, 14, 1, 4, 19, 135, 60, 125, 56, 60, 135, 3, 0.366709
104, 3, wb, attraction, a-b-da, 14, 3, 4, 20, 195, 120, 120, 195, 181, 111, 3, 4.05385
104, 3, wb, attraction, a-b-da, 14, 3, 4, 20, 195, 120, 120, 195, 181, 111, 2, 0.657897
104, 3, wb, catch, NA, 999, 999, 4, 21, 186, 129, 64, 131, 91, 164, 2, 2.05299
104, 3, wb, catch, NA, 999, 999, 4, 21, 186, 129, 64, 131, 91, 164, 1, 0.377585
104, 3, wb, attraction, a-b-da, 2, 2, 4, 22, 165, 90, 90, 165, 163, 89, 1, 5.04016
104, 3, wb, attraction, a-b-da, 2, 2, 4, 22, 165, 90, 90, 165, 163, 89, 2, 0.299822
104, 3, wb, filler, NA, 999, 999, 4, 23, 90, 176, 77, 128, 58, 113, 3, 0.749766
104, 3, wb, filler, NA, 999, 999, 4, 23, 90, 176, 77, 128, 58, 113, 1, 0.446698
104, 3, wb, attraction, a-b-da, 2, 3, 4, 24, 195, 120, 193, 119, 120, 195, 2, 2.93859
104, 3, wb, attraction, a-b-da, 2, 3, 4, 24, 195, 120, 193, 119, 120, 195, 3, 0.267585
104, 3, wb, attraction, a-b-db, 9, 2, 4, 25, 90, 165, 165, 90, 86, 157, 3, 1.60687
104, 3, wb, attraction, a-b-db, 9, 2, 4, 25, 90, 165, 165, 90, 86, 157, 2, 0.308819
104, 3, wb, filler, NA, 999, 999, 4, 26, 62, 93, 181, 80, 61, 169, 1, 0.894017
104, 3, wb, filler, NA, 999, 999, 4, 26, 62, 93, 181, 80, 61, 169, 2, 0.593199
104, 3, wb, filler, NA, 999, 999, 4, 27, 187, 161, 139, 119, 176, 81, 2, 1.52694
104, 3, wb, filler, NA, 999, 999, 4, 27, 187, 161, 139, 119, 176, 81, 1, 0.392451
104, 3, wb, attraction, a-b-da, 9, 1, 4, 28, 60, 135, 129, 57, 135, 60, 2, 3.27014
104, 3, wb, attraction, a-b-da, 9, 1, 4, 28, 60, 135, 129, 57, 135, 60, 1, 0.481919
104, 3, wb, attraction, a-b-db, 9, 3, 4, 29, 195, 120, 120, 195, 114, 186, 1, 1.36426
104, 3, wb, attraction, a-b-db, 9, 3, 4, 29, 195, 120, 120, 195, 114, 186, 2, 0.412483
104, 3, wb, filler, NA, 999, 999, 4, 30, 177, 79, 145, 129, 93, 194, 1, 3.10573
104, 3, wb, filler, NA, 999, 999, 4, 30, 177, 79, 145, 129, 93, 194, 2, 0.779444
104, 3, wb, filler, NA, 999, 999, 4, 31, 102, 117, 185, 168, 151, 169, 1, 0.865857
104, 3, wb, filler, NA, 999, 999, 4, 31, 102, 117, 185, 168, 151, 169, 2, 0.725956
104, 3, wb, attraction, a-b-da, 5, 1, 4, 32, 135, 60, 132, 58, 60, 135, 2, 3.52649
104, 3, wb, attraction, a-b-da, 5, 1, 4, 32, 135, 60, 132, 58, 60, 135, 3, 0.343438
104, 3, wb, attraction, a-b-da, 5, 3, 4, 33, 195, 120, 120, 195, 190, 117, 1, 1.96717
104, 3, wb, attraction, a-b-da, 5, 3, 4, 33, 195, 120, 120, 195, 190, 117, 2, 0.319201
104, 3, wb, attraction, a-b-db, 5, 1, 4, 34, 58, 132, 60, 135, 135, 60, 3, 2.39225
104, 3, wb, attraction, a-b-db, 5, 1, 4, 34, 58, 132, 60, 135, 135, 60, 2, 0.343014
104, 3, wb, catch, NA, 999, 999, 4, 35, 111, 84, 125, 190, 138, 117, 1, 3.03079
104, 3, wb, catch, NA, 999, 999, 4, 35, 111, 84, 125, 190, 138, 117, 2, 0.4598
104, 3, wb, attraction, a-b-db, 5, 2, 4, 36, 88, 161, 165, 90, 90, 165, 2, 1.74288
104, 3, wb, attraction, a-b-db, 5, 2, 4, 36, 88, 161, 165, 90, 90, 165, 1, 0.471587
104, 3, wb, attraction, a-b-db, 2, 2, 4, 37, 165, 90, 89, 163, 90, 165, 2, 6.75489
104, 3, wb, attraction, a-b-db, 2, 2, 4, 37, 165, 90, 89, 163, 90, 165, 3, 0.345972
104, 3, wb, filler, NA, 999, 999, 5, 1, 168, 136, 72, 176, 59, 66, 3, 2.11247
104, 3, wb, filler, NA, 999, 999, 5, 1, 168, 136, 72, 176, 59, 66, 1, 0.346342
104, 3, wb, attraction, a-b-db, 14, 3, 5, 2, 111, 181, 195, 120, 120, 195, 2, 1.21826
104, 3, wb, attraction, a-b-db, 14, 3, 5, 2, 111, 181, 195, 120, 120, 195, 3, 0.480518
104, 3, wb, filler, NA, 999, 999, 5, 3, 147, 115, 77, 158, 61, 123, 3, 0.779077
104, 3, wb, filler, NA, 999, 999, 5, 3, 147, 115, 77, 158, 61, 123, 1, 0.586747
104, 3, wb, attraction, a-b-da, 9, 3, 5, 4, 186, 114, 195, 120, 120, 195, 2, 1.35314
104, 3, wb, attraction, a-b-da, 9, 3, 5, 4, 186, 114, 195, 120, 120, 195, 3, 0.298017
104, 3, wb, attraction, a-b-db, 9, 3, 5, 5, 195, 120, 114, 186, 120, 195, 2, 2.46786
104, 3, wb, attraction, a-b-db, 9, 3, 5, 5, 195, 120, 114, 186, 120, 195, 3, 0.287765
104, 3, wb, attraction, a-b-db, 2, 1, 5, 6, 60, 135, 59, 134, 135, 60, 3, 2.35421
104, 3, wb, attraction, a-b-db, 2, 1, 5, 6, 60, 135, 59, 134, 135, 60, 1, 0.538865
104, 3, wb, attraction, a-b-da, 9, 2, 5, 7, 157, 86, 165, 90, 90, 165, 1, 3.25124
104, 3, wb, attraction, a-b-da, 9, 2, 5, 7, 157, 86, 165, 90, 90, 165, 3, 0.41572
104, 3, wb, attraction, a-b-da, 14, 1, 5, 8, 60, 135, 125, 56, 135, 60, 2, 0.932848
104, 3, wb, attraction, a-b-da, 14, 1, 5, 8, 60, 135, 125, 56, 135, 60, 1, 0.494336
104, 3, wb, attraction, a-b-da, 2, 1, 5, 9, 135, 60, 134, 59, 60, 135, 2, 1.40025
104, 3, wb, attraction, a-b-da, 2, 1, 5, 9, 135, 60, 134, 59, 60, 135, 3, 0.407142
104, 3, wb, attraction, a-b-db, 5, 1, 5, 10, 58, 132, 60, 135, 135, 60, 1, 2.38015
104, 3, wb, attraction, a-b-db, 5, 1, 5, 10, 58, 132, 60, 135, 135, 60, 2, 0.555383
104, 3, wb, attraction, a-b-db, 14, 1, 5, 11, 60, 135, 56, 125, 135, 60, 2, 1.0752
104, 3, wb, attraction, a-b-db, 14, 1, 5, 11, 60, 135, 56, 125, 135, 60, 1, 0.806872
104, 3, wb, attraction, a-b-db, 9, 2, 5, 12, 90, 165, 86, 157, 165, 90, 1, 1.74793
104, 3, wb, attraction, a-b-db, 9, 2, 5, 12, 90, 165, 86, 157, 165, 90, 3, 0.356663
104, 3, wb, attraction, a-b-da, 5, 1, 5, 13, 132, 58, 60, 135, 135, 60, 1, 1.82776
104, 3, wb, attraction, a-b-da, 5, 1, 5, 13, 132, 58, 60, 135, 135, 60, 2, 0.489207
104, 3, wb, attraction, a-b-db, 5, 3, 5, 14, 195, 120, 120, 195, 117, 190, 1, 1.67564
104, 3, wb, attraction, a-b-db, 5, 3, 5, 14, 195, 120, 120, 195, 117, 190, 2, 0.415071
104, 3, wb, attraction, a-b-da, 14, 3, 5, 15, 120, 195, 195, 120, 181, 111, 3, 2.46017
104, 3, wb, attraction, a-b-da, 14, 3, 5, 15, 120, 195, 195, 120, 181, 111, 1, 0.368115
104, 3, wb, filler, NA, 999, 999, 5, 16, 132, 166, 173, 148, 195, 185, 1, 1.02333
104, 3, wb, filler, NA, 999, 999, 5, 16, 132, 166, 173, 148, 195, 185, 3, 0.301088
104, 3, wb, filler, NA, 999, 999, 5, 17, 122, 142, 158, 61, 112, 83, 3, 1.35873
104, 3, wb, filler, NA, 999, 999, 5, 17, 122, 142, 158, 61, 112, 83, 1, 0.582989
104, 3, wb, catch, NA, 999, 999, 5, 18, 140, 115, 92, 103, 124, 191, 2, 1.34137
104, 3, wb, catch, NA, 999, 999, 5, 18, 140, 115, 92, 103, 124, 191, 3, 0.286262
104, 3, wb, attraction, a-b-da, 2, 3, 5, 19, 195, 120, 193, 119, 120, 195, 2, 1.74476
104, 3, wb, attraction, a-b-da, 2, 3, 5, 19, 195, 120, 193, 119, 120, 195, 3, 0.37137
104, 3, wb, filler, NA, 999, 999, 5, 20, 73, 124, 101, 160, 167, 144, 1, 0.864697
104, 3, wb, filler, NA, 999, 999, 5, 20, 73, 124, 101, 160, 167, 144, 3, 0.317144
104, 3, wb, catch, NA, 999, 999, 5, 21, 160, 155, 98, 157, 113, 82, 3, 0.750358
104, 3, wb, catch, NA, 999, 999, 5, 21, 160, 155, 98, 157, 113, 82, 1, 0.327356
104, 3, wb, filler, NA, 999, 999, 5, 22, 102, 111, 170, 69, 158, 174, 1, 1.05578
104, 3, wb, filler, NA, 999, 999, 5, 22, 102, 111, 170, 69, 158, 174, 3, 0.268214
104, 3, wb, attraction, a-b-da, 14, 2, 5, 23, 153, 83, 165, 90, 90, 165, 1, 3.85523
104, 3, wb, attraction, a-b-da, 14, 2, 5, 23, 153, 83, 165, 90, 90, 165, 3, 0.330743
104, 3, wb, attraction, a-b-db, 14, 2, 5, 24, 165, 90, 83, 153, 90, 165, 1, 1.01125
104, 3, wb, attraction, a-b-db, 14, 2, 5, 24, 165, 90, 83, 153, 90, 165, 3, 0.337577
104, 3, wb, attraction, a-b-da, 2, 2, 5, 25, 165, 90, 163, 89, 90, 165, 1, 1.69813
104, 3, wb, attraction, a-b-da, 2, 2, 5, 25, 165, 90, 163, 89, 90, 165, 3, 0.612844
104, 3, wb, filler, NA, 999, 999, 5, 26, 122, 156, 127, 193, 132, 188, 1, 1.12998
104, 3, wb, filler, NA, 999, 999, 5, 26, 122, 156, 127, 193, 132, 188, 3, 0.507537
104, 3, wb, attraction, a-b-db, 2, 2, 5, 27, 165, 90, 89, 163, 90, 165, 1, 1.32469
104, 3, wb, attraction, a-b-db, 2, 2, 5, 27, 165, 90, 89, 163, 90, 165, 3, 0.438289
104, 3, wb, attraction, a-b-da, 9, 1, 5, 28, 60, 135, 129, 57, 135, 60, 2, 2.06667
104, 3, wb, attraction, a-b-da, 9, 1, 5, 28, 60, 135, 129, 57, 135, 60, 1, 0.510705
104, 3, wb, attraction, a-b-db, 2, 3, 5, 29, 195, 120, 119, 193, 120, 195, 1, 2.67985
104, 3, wb, attraction, a-b-db, 2, 3, 5, 29, 195, 120, 119, 193, 120, 195, 3, 0.370933
104, 3, wb, filler, NA, 999, 999, 5, 30, 67, 72, 146, 116, 57, 80, 1, 1.01815
104, 3, wb, filler, NA, 999, 999, 5, 30, 67, 72, 146, 116, 57, 80, 2, 0.360431
104, 3, wb, attraction, a-b-db, 5, 2, 5, 31, 165, 90, 90, 165, 88, 161, 1, 1.39156
104, 3, wb, attraction, a-b-db, 5, 2, 5, 31, 165, 90, 90, 165, 88, 161, 3, 0.678495
104, 3, wb, filler, NA, 999, 999, 5, 32, 58, 87, 114, 155, 126, 90, 1, 0.808861
104, 3, wb, filler, NA, 999, 999, 5, 32, 58, 87, 114, 155, 126, 90, 2, 0.351281
104, 3, wb, catch, NA, 999, 999, 5, 33, 174, 141, 159, 96, 107, 88, 3, 1.47104
104, 3, wb, catch, NA, 999, 999, 5, 33, 174, 141, 159, 96, 107, 88, 1, 0.427339
104, 3, wb, filler, NA, 999, 999, 5, 34, 158, 186, 79, 112, 152, 156, 2, 1.27179
104, 3, wb, filler, NA, 999, 999, 5, 34, 158, 186, 79, 112, 152, 156, 1, 0.515406
104, 3, wb, attraction, a-b-db, 9, 1, 5, 35, 135, 60, 57, 129, 60, 135, 2, 1.69246
104, 3, wb, attraction, a-b-db, 9, 1, 5, 35, 135, 60, 57, 129, 60, 135, 1, 0.551264
104, 3, wb, attraction, a-b-da, 5, 3, 5, 36, 195, 120, 120, 195, 190, 117, 1, 1.94297
104, 3, wb, attraction, a-b-da, 5, 3, 5, 36, 195, 120, 120, 195, 190, 117, 2, 0.415749
104, 3, wb, attraction, a-b-da, 5, 2, 5, 37, 165, 90, 161, 88, 90, 165, 2, 2.8128
104, 3, wb, attraction, a-b-da, 5, 2, 5, 37, 165, 90, 161, 88, 90, 165, 3, 0.346685
104, 3, wb, attraction, a-b-db, 14, 2, 6, 1, 83, 153, 90, 165, 165, 90, 1, 1.9064
104, 3, wb, attraction, a-b-db, 14, 2, 6, 1, 83, 153, 90, 165, 165, 90, 2, 2.01255
104, 3, wb, attraction, a-b-db, 14, 3, 6, 2, 195, 120, 111, 181, 120, 195, 1, 2.24104
104, 3, wb, attraction, a-b-db, 14, 3, 6, 2, 195, 120, 111, 181, 120, 195, 3, 0.357653
104, 3, wb, filler, NA, 999, 999, 6, 3, 182, 113, 66, 75, 142, 134, 2, 0.66101
104, 3, wb, filler, NA, 999, 999, 6, 3, 182, 113, 66, 75, 142, 134, 3, 0.369368
104, 3, wb, filler, NA, 999, 999, 6, 4, 58, 65, 114, 193, 77, 154, 1, 2.7366
104, 3, wb, filler, NA, 999, 999, 6, 4, 58, 65, 114, 193, 77, 154, 2, 0.361611
104, 3, wb, attraction, a-b-db, 14, 1, 6, 5, 60, 135, 135, 60, 56, 125, 2, 1.25679
104, 3, wb, attraction, a-b-db, 14, 1, 6, 5, 60, 135, 135, 60, 56, 125, 1, 0.428953
104, 3, wb, attraction, a-b-da, 14, 1, 6, 6, 125, 56, 135, 60, 60, 135, 1, 1.82543
104, 3, wb, attraction, a-b-da, 14, 1, 6, 6, 125, 56, 135, 60, 60, 135, 3, 1.423
104, 3, wb, attraction, a-b-db, 5, 3, 6, 7, 120, 195, 195, 120, 117, 190, 2, 3.91568
104, 3, wb, attraction, a-b-db, 5, 3, 6, 7, 120, 195, 195, 120, 117, 190, 1, 0.341043
104, 3, wb, filler, NA, 999, 999, 6, 8, 102, 122, 97, 118, 120, 72, 3, 2.5409
104, 3, wb, filler, NA, 999, 999, 6, 8, 102, 122, 97, 118, 120, 72, 2, 0.71751
104, 3, wb, filler, NA, 999, 999, 6, 9, 126, 150, 104, 84, 58, 87, 3, 0.638513
104, 3, wb, filler, NA, 999, 999, 6, 9, 126, 150, 104, 84, 58, 87, 1, 0.411685
104, 3, wb, filler, NA, 999, 999, 6, 10, 152, 157, 129, 91, 156, 193, 2, 0.600816
104, 3, wb, filler, NA, 999, 999, 6, 10, 152, 157, 129, 91, 156, 193, 3, 0.32793
104, 3, wb, attraction, a-b-da, 9, 1, 6, 11, 129, 57, 60, 135, 135, 60, 2, 1.72835
104, 3, wb, attraction, a-b-da, 9, 1, 6, 11, 129, 57, 60, 135, 135, 60, 1, 0.377819
104, 3, wb, attraction, a-b-da, 2, 2, 6, 12, 165, 90, 90, 165, 163, 89, 1, 1.43241
104, 3, wb, attraction, a-b-da, 2, 2, 6, 12, 165, 90, 90, 165, 163, 89, 2, 0.477855
104, 3, wb, catch, NA, 999, 999, 6, 13, 100, 155, 167, 148, 96, 99, 3, 0.872328
104, 3, wb, catch, NA, 999, 999, 6, 13, 100, 155, 167, 148, 96, 99, 2, 0.315893
104, 3, wb, attraction, a-b-db, 9, 1, 6, 14, 60, 135, 135, 60, 57, 129, 2, 0.725177
104, 3, wb, attraction, a-b-db, 9, 1, 6, 14, 60, 135, 135, 60, 57, 129, 1, 0.382848
104, 3, wb, attraction, a-b-da, 5, 3, 6, 15, 195, 120, 190, 117, 120, 195, 2, 0.957461
104, 3, wb, attraction, a-b-da, 5, 3, 6, 15, 195, 120, 190, 117, 120, 195, 3, 0.333688
104, 3, wb, attraction, a-b-db, 2, 1, 6, 16, 59, 134, 135, 60, 60, 135, 2, 0.694199
104, 3, wb, attraction, a-b-db, 2, 1, 6, 16, 59, 134, 135, 60, 60, 135, 1, 0.649354
104, 3, wb, attraction, a-b-da, 5, 1, 6, 17, 132, 58, 60, 135, 135, 60, 1, 1.36518
104, 3, wb, attraction, a-b-da, 5, 1, 6, 17, 132, 58, 60, 135, 135, 60, 2, 0.3173
104, 3, wb, filler, NA, 999, 999, 6, 18, 91, 176, 132, 118, 118, 120, 1, 8.93464
104, 3, wb, filler, NA, 999, 999, 6, 18, 91, 176, 132, 118, 118, 120, 2, 0.669711
104, 3, wb, attraction, a-b-da, 14, 3, 6, 19, 195, 120, 181, 111, 120, 195, 2, 2.91277
104, 3, wb, attraction, a-b-da, 14, 3, 6, 19, 195, 120, 181, 111, 120, 195, 1, 0.458426
104, 3, wb, filler, NA, 999, 999, 6, 20, 171, 86, 104, 162, 65, 136, 3, 0.813557
104, 3, wb, filler, NA, 999, 999, 6, 20, 171, 86, 104, 162, 65, 136, 2, 0.523874
104, 3, wb, attraction, a-b-db, 5, 1, 6, 21, 60, 135, 58, 132, 135, 60, 3, 1.90033
104, 3, wb, attraction, a-b-db, 5, 1, 6, 21, 60, 135, 58, 132, 135, 60, 1, 0.711071
104, 3, wb, attraction, a-b-db, 2, 3, 6, 22, 119, 193, 195, 120, 120, 195, 2, 3.3842
104, 3, wb, attraction, a-b-db, 2, 3, 6, 22, 119, 193, 195, 120, 120, 195, 3, 0.39109
104, 3, wb, attraction, a-b-db, 5, 2, 6, 23, 165, 90, 88, 161, 90, 165, 1, 1.06089
104, 3, wb, attraction, a-b-db, 5, 2, 6, 23, 165, 90, 88, 161, 90, 165, 2, 0.345211
104, 3, wb, attraction, a-b-db, 9, 2, 6, 24, 90, 165, 165, 90, 86, 157, 2, 1.57698
104, 3, wb, attraction, a-b-db, 9, 2, 6, 24, 90, 165, 165, 90, 86, 157, 1, 0.344492
104, 3, wb, attraction, a-b-da, 14, 2, 6, 25, 165, 90, 90, 165, 153, 83, 1, 1.71232
104, 3, wb, attraction, a-b-da, 14, 2, 6, 25, 165, 90, 90, 165, 153, 83, 2, 0.434859
104, 3, wb, filler, NA, 999, 999, 6, 26, 63, 177, 161, 82, 146, 129, 1, 0.766883
104, 3, wb, filler, NA, 999, 999, 6, 26, 63, 177, 161, 82, 146, 129, 3, 0.631323
104, 3, wb, attraction, a-b-da, 2, 1, 6, 27, 60, 135, 135, 60, 134, 59, 2, 1.30768
104, 3, wb, attraction, a-b-da, 2, 1, 6, 27, 60, 135, 135, 60, 134, 59, 1, 0.413921
104, 3, wb, attraction, a-b-da, 9, 3, 6, 28, 120, 195, 186, 114, 195, 120, 2, 1.21115
104, 3, wb, attraction, a-b-da, 9, 3, 6, 28, 120, 195, 186, 114, 195, 120, 1, 0.305384
104, 3, wb, filler, NA, 999, 999, 6, 29, 187, 185, 77, 140, 193, 194, 2, 0.747298
104, 3, wb, filler, NA, 999, 999, 6, 29, 187, 185, 77, 140, 193, 194, 3, 0.316329
104, 3, wb, attraction, a-b-da, 9, 2, 6, 30, 157, 86, 165, 90, 90, 165, 2, 1.10948
104, 3, wb, attraction, a-b-da, 9, 2, 6, 30, 157, 86, 165, 90, 90, 165, 3, 0.295787
104, 3, wb, attraction, a-b-da, 2, 3, 6, 31, 195, 120, 120, 195, 193, 119, 3, 1.3056
104, 3, wb, attraction, a-b-da, 2, 3, 6, 31, 195, 120, 120, 195, 193, 119, 2, 0.347975
104, 3, wb, attraction, a-b-db, 9, 3, 6, 32, 114, 186, 120, 195, 195, 120, 1, 1.49961
104, 3, wb, attraction, a-b-db, 9, 3, 6, 32, 114, 186, 120, 195, 195, 120, 2, 0.366509
104, 3, wb, filler, NA, 999, 999, 6, 33, 83, 80, 129, 195, 183, 187, 1, 0.837643
104, 3, wb, filler, NA, 999, 999, 6, 33, 83, 80, 129, 195, 183, 187, 3, 0.418697
104, 3, wb, catch, NA, 999, 999, 6, 34, 105, 150, 181, 134, 85, 110, 3, 1.15982
104, 3, wb, catch, NA, 999, 999, 6, 34, 105, 150, 181, 134, 85, 110, 2, 0.312113
104, 3, wb, catch, NA, 999, 999, 6, 35, 67, 128, 157, 98, 157, 158, 1, 1.37728
104, 3, wb, catch, NA, 999, 999, 6, 35, 67, 128, 157, 98, 157, 158, 3, 0.456931
104, 3, wb, attraction, a-b-db, 2, 2, 6, 36, 89, 163, 90, 165, 165, 90, 3, 1.61196
104, 3, wb, attraction, a-b-db, 2, 2, 6, 36, 89, 163, 90, 165, 165, 90, 2, 0.3942
104, 3, wb, attraction, a-b-da, 5, 2, 6, 37, 165, 90, 161, 88, 90, 165, 2, 2.32005
104, 3, wb, attraction, a-b-da, 5, 2, 6, 37, 165, 90, 161, 88, 90, 165, 3, 0.313839
104, 3, wb, catch, NA, 999, 999, 7, 1, 110, 85, 123, 192, 108, 147, 1, 1.12303
104, 3, wb, catch, NA, 999, 999, 7, 1, 110, 85, 123, 192, 108, 147, 2, 0.340679
104, 3, wb, attraction, a-b-db, 9, 2, 7, 2, 90, 165, 165, 90, 86, 157, 2, 0.676471
104, 3, wb, attraction, a-b-db, 9, 2, 7, 2, 90, 165, 165, 90, 86, 157, 3, 0.696332
104, 3, wb, attraction, a-b-db, 14, 1, 7, 3, 135, 60, 60, 135, 56, 125, 2, 1.6581
104, 3, wb, attraction, a-b-db, 14, 1, 7, 3, 135, 60, 60, 135, 56, 125, 1, 0.430292
104, 3, wb, attraction, a-b-da, 5, 3, 7, 4, 195, 120, 120, 195, 190, 117, 3, 3.59454
104, 3, wb, attraction, a-b-da, 5, 3, 7, 4, 195, 120, 120, 195, 190, 117, 2, 0.336656
104, 3, wb, attraction, a-b-db, 9, 1, 7, 5, 60, 135, 57, 129, 135, 60, 3, 3.55323
104, 3, wb, attraction, a-b-db, 9, 1, 7, 5, 60, 135, 57, 129, 135, 60, 2, 0.329432
104, 3, wb, attraction, a-b-db, 2, 2, 7, 6, 89, 163, 165, 90, 90, 165, 2, 8.53791
104, 3, wb, attraction, a-b-db, 2, 2, 7, 6, 89, 163, 165, 90, 90, 165, 3, 0.569274
104, 3, wb, attraction, a-b-da, 14, 1, 7, 7, 60, 135, 135, 60, 125, 56, 2, 1.3283
104, 3, wb, attraction, a-b-da, 14, 1, 7, 7, 60, 135, 135, 60, 125, 56, 1, 0.425905
104, 3, wb, filler, NA, 999, 999, 7, 8, 124, 135, 178, 169, 153, 139, 1, 1.15033
104, 3, wb, filler, NA, 999, 999, 7, 8, 124, 135, 178, 169, 153, 139, 2, 0.63131
104, 3, wb, attraction, a-b-da, 5, 1, 7, 9, 132, 58, 60, 135, 135, 60, 1, 1.77173
104, 3, wb, attraction, a-b-da, 5, 1, 7, 9, 132, 58, 60, 135, 135, 60, 2, 0.339794
104, 3, wb, filler, NA, 999, 999, 7, 10, 178, 135, 191, 192, 184, 84, 3, 2.23637
104, 3, wb, filler, NA, 999, 999, 7, 10, 178, 135, 191, 192, 184, 84, 2, 0.337639
104, 3, wb, attraction, a-b-da, 9, 2, 7, 11, 90, 165, 165, 90, 157, 86, 2, 4.06608
104, 3, wb, attraction, a-b-da, 9, 2, 7, 11, 90, 165, 165, 90, 157, 86, 1, 1.59751
104, 3, wb, filler, NA, 999, 999, 7, 12, 143, 132, 59, 133, 76, 82, 3, 0.971068
104, 3, wb, filler, NA, 999, 999, 7, 12, 143, 132, 59, 133, 76, 82, 1, 0.436136
104, 3, wb, attraction, a-b-db, 5, 1, 7, 13, 58, 132, 135, 60, 60, 135, 2, 1.25576
104, 3, wb, attraction, a-b-db, 5, 1, 7, 13, 58, 132, 135, 60, 60, 135, 3, 0.628195
104, 3, wb, attraction, a-b-db, 9, 3, 7, 14, 120, 195, 114, 186, 195, 120, 2, 3.65644
104, 3, wb, attraction, a-b-db, 9, 3, 7, 14, 120, 195, 114, 186, 195, 120, 1, 1.364
104, 3, wb, attraction, a-b-db, 2, 3, 7, 15, 119, 193, 195, 120, 120, 195, 1, 2.54671
104, 3, wb, attraction, a-b-db, 2, 3, 7, 15, 119, 193, 195, 120, 120, 195, 3, 0.691224
104, 3, wb, catch, NA, 999, 999, 7, 16, 164, 151, 132, 123, 96, 99, 3, 0.733107
104, 3, wb, catch, NA, 999, 999, 7, 16, 164, 151, 132, 123, 96, 99, 1, 0.39068
104, 3, wb, filler, NA, 999, 999, 7, 17, 179, 130, 174, 58, 154, 111, 2, 0.836495
104, 3, wb, filler, NA, 999, 999, 7, 17, 179, 130, 174, 58, 154, 111, 1, 0.370403
104, 3, wb, filler, NA, 999, 999, 7, 18, 136, 166, 132, 155, 134, 182, 3, 1.5136
104, 3, wb, filler, NA, 999, 999, 7, 18, 136, 166, 132, 155, 134, 182, 1, 0.395517
104, 3, wb, attraction, a-b-da, 14, 3, 7, 19, 195, 120, 181, 111, 120, 195, 2, 2.0415
104, 3, wb, attraction, a-b-da, 14, 3, 7, 19, 195, 120, 181, 111, 120, 195, 3, 0.310022
104, 3, wb, attraction, a-b-db, 14, 2, 7, 20, 83, 153, 90, 165, 165, 90, 2, 1.15143
104, 3, wb, attraction, a-b-db, 14, 2, 7, 20, 83, 153, 90, 165, 165, 90, 3, 0.496203
104, 3, wb, attraction, a-b-db, 5, 2, 7, 21, 165, 90, 88, 161, 90, 165, 1, 1.41807
104, 3, wb, attraction, a-b-db, 5, 2, 7, 21, 165, 90, 88, 161, 90, 165, 2, 0.592179
104, 3, wb, filler, NA, 999, 999, 7, 22, 89, 179, 82, 193, 105, 88, 3, 1.14995
104, 3, wb, filler, NA, 999, 999, 7, 22, 89, 179, 82, 193, 105, 88, 1, 0.430851
104, 3, wb, attraction, a-b-db, 5, 3, 7, 23, 195, 120, 117, 190, 120, 195, 1, 1.45937
104, 3, wb, attraction, a-b-db, 5, 3, 7, 23, 195, 120, 117, 190, 120, 195, 3, 0.903687
104, 3, wb, catch, NA, 999, 999, 7, 24, 176, 139, 85, 110, 116, 139, 2, 0.649324
104, 3, wb, catch, NA, 999, 999, 7, 24, 176, 139, 85, 110, 116, 139, 1, 0.622216
104, 3, wb, filler, NA, 999, 999, 7, 25, 137, 64, 84, 77, 90, 190, 2, 0.691335
104, 3, wb, filler, NA, 999, 999, 7, 25, 137, 64, 84, 77, 90, 190, 3, 0.542606
104, 3, wb, attraction, a-b-da, 5, 2, 7, 26, 161, 88, 165, 90, 90, 165, 1, 1.71833
104, 3, wb, attraction, a-b-da, 5, 2, 7, 26, 161, 88, 165, 90, 90, 165, 2, 0.648324
104, 3, wb, attraction, a-b-da, 14, 2, 7, 27, 90, 165, 165, 90, 153, 83, 3, 2.01214
104, 3, wb, attraction, a-b-da, 14, 2, 7, 27, 90, 165, 165, 90, 153, 83, 1, 0.434133
104, 3, wb, filler, NA, 999, 999, 7, 28, 66, 121, 139, 179, 163, 98, 1, 0.654627
104, 3, wb, filler, NA, 999, 999, 7, 28, 66, 121, 139, 179, 163, 98, 2, 0.30705
104, 3, wb, filler, NA, 999, 999, 7, 29, 98, 166, 117, 86, 104, 118, 2, 0.73219
104, 3, wb, filler, NA, 999, 999, 7, 29, 98, 166, 117, 86, 104, 118, 1, 0.358034
104, 3, wb, attraction, a-b-da, 9, 1, 7, 30, 135, 60, 129, 57, 60, 135, 2, 0.661057
104, 3, wb, attraction, a-b-da, 9, 1, 7, 30, 135, 60, 129, 57, 60, 135, 1, 1.06564
104, 3, wb, attraction, a-b-da, 9, 3, 7, 31, 195, 120, 186, 114, 120, 195, 2, 2.06045
104, 3, wb, attraction, a-b-da, 9, 3, 7, 31, 195, 120, 186, 114, 120, 195, 3, 0.360479
104, 3, wb, attraction, a-b-db, 2, 1, 7, 32, 59, 134, 60, 135, 135, 60, 1, 2.82358
104, 3, wb, attraction, a-b-db, 2, 1, 7, 32, 59, 134, 60, 135, 135, 60, 2, 0.364643
104, 3, wb, attraction, a-b-da, 2, 2, 7, 33, 163, 89, 165, 90, 90, 165, 1, 3.68391
104, 3, wb, attraction, a-b-da, 2, 2, 7, 33, 163, 89, 165, 90, 90, 165, 3, 0.654818
104, 3, wb, attraction, a-b-da, 2, 1, 7, 34, 134, 59, 60, 135, 135, 60, 1, 2.31446
104, 3, wb, attraction, a-b-da, 2, 1, 7, 34, 134, 59, 60, 135, 135, 60, 3, 0.804529
104, 3, wb, attraction, a-b-db, 14, 3, 7, 35, 111, 181, 120, 195, 195, 120, 1, 3.18608
104, 3, wb, attraction, a-b-db, 14, 3, 7, 35, 111, 181, 120, 195, 195, 120, 2, 0.401438
104, 3, wb, attraction, a-b-da, 2, 3, 7, 36, 120, 195, 195, 120, 193, 119, 2, 4.16683
104, 3, wb, attraction, a-b-da, 2, 3, 7, 36, 120, 195, 195, 120, 193, 119, 1, 0.358231
104, 3, wb, filler, NA, 999, 999, 7, 37, 62, 86, 154, 95, 165, 75, 1, 0.853378
104, 3, wb, filler, NA, 999, 999, 7, 37, 62, 86, 154, 95, 165, 75, 2, 0.51446
104, 3, wb, catch, NA, 999, 999, 8, 1, 110, 145, 66, 129, 160, 155, 2, 1.06743
104, 3, wb, catch, NA, 999, 999, 8, 1, 110, 145, 66, 129, 160, 155, 3, 0.391761
104, 3, wb, attraction, a-b-db, 9, 3, 8, 2, 114, 186, 120, 195, 195, 120, 1, 8.44568
104, 3, wb, attraction, a-b-db, 9, 3, 8, 2, 114, 186, 120, 195, 195, 120, 2, 0.400383
104, 3, wb, catch, NA, 999, 999, 8, 3, 106, 149, 81, 114, 135, 180, 2, 0.742262
104, 3, wb, catch, NA, 999, 999, 8, 3, 106, 149, 81, 114, 135, 180, 3, 0.455314
104, 3, wb, filler, NA, 999, 999, 8, 4, 60, 135, 115, 87, 176, 57, 1, 0.666985
104, 3, wb, filler, NA, 999, 999, 8, 4, 60, 135, 115, 87, 176, 57, 3, 0.743497
104, 3, wb, attraction, a-b-da, 14, 3, 8, 5, 181, 111, 195, 120, 120, 195, 1, 4.17521
104, 3, wb, attraction, a-b-da, 14, 3, 8, 5, 181, 111, 195, 120, 120, 195, 3, 0.333812
104, 3, wb, filler, NA, 999, 999, 8, 6, 146, 66, 102, 116, 88, 146, 1, 7.6786
104, 3, wb, filler, NA, 999, 999, 8, 6, 146, 66, 102, 116, 88, 146, 3, 1.32787
104, 3, wb, attraction, a-b-db, 2, 2, 8, 7, 90, 165, 89, 163, 165, 90, 3, 7.32018
104, 3, wb, attraction, a-b-db, 2, 2, 8, 7, 90, 165, 89, 163, 165, 90, 2, 0.336435
104, 3, wb, attraction, a-b-db, 5, 1, 8, 8, 60, 135, 135, 60, 58, 132, 2, 2.82492
104, 3, wb, attraction, a-b-db, 5, 1, 8, 8, 60, 135, 135, 60, 58, 132, 1, 0.749956
104, 3, wb, attraction, a-b-db, 2, 3, 8, 9, 195, 120, 119, 193, 120, 195, 1, 2.70981
104, 3, wb, attraction, a-b-db, 2, 3, 8, 9, 195, 120, 119, 193, 120, 195, 2, 0.479506
104, 3, wb, filler, NA, 999, 999, 8, 10, 161, 183, 107, 167, 124, 111, 3, 1.1621
104, 3, wb, filler, NA, 999, 999, 8, 10, 161, 183, 107, 167, 124, 111, 1, 0.554335
104, 3, wb, attraction, a-b-db, 9, 1, 8, 11, 135, 60, 57, 129, 60, 135, 2, 0.986065
104, 3, wb, attraction, a-b-db, 9, 1, 8, 11, 135, 60, 57, 129, 60, 135, 1, 0.421219
104, 3, wb, filler, NA, 999, 999, 8, 12, 179, 111, 125, 182, 61, 191, 3, 1.35091
104, 3, wb, filler, NA, 999, 999, 8, 12, 179, 111, 125, 182, 61, 191, 2, 0.35168
104, 3, wb, attraction, a-b-db, 5, 2, 8, 13, 165, 90, 90, 165, 88, 161, 1, 1.10354
104, 3, wb, attraction, a-b-db, 5, 2, 8, 13, 165, 90, 90, 165, 88, 161, 2, 0.602488
104, 3, wb, filler, NA, 999, 999, 8, 14, 69, 129, 149, 170, 149, 177, 1, 0.81629
104, 3, wb, filler, NA, 999, 999, 8, 14, 69, 129, 149, 170, 149, 177, 2, 1.0867
104, 3, wb, filler, NA, 999, 999, 8, 15, 180, 180, 168, 60, 119, 180, 2, 0.720933
104, 3, wb, filler, NA, 999, 999, 8, 15, 180, 180, 168, 60, 119, 180, 1, 0.387287
104, 3, wb, attraction, a-b-db, 14, 3, 8, 16, 195, 120, 111, 181, 120, 195, 1, 1.32986
104, 3, wb, attraction, a-b-db, 14, 3, 8, 16, 195, 120, 111, 181, 120, 195, 3, 0.387379
104, 3, wb, attraction, a-b-da, 14, 2, 8, 17, 153, 83, 165, 90, 90, 165, 1, 0.921946
104, 3, wb, attraction, a-b-da, 14, 2, 8, 17, 153, 83, 165, 90, 90, 165, 3, 0.515626
104, 3, wb, catch, NA, 999, 999, 8, 18, 149, 106, 144, 171, 125, 70, 3, 0.732623
104, 3, wb, catch, NA, 999, 999, 8, 18, 149, 106, 144, 171, 125, 70, 2, 0.422427
104, 3, wb, attraction, a-b-da, 9, 3, 8, 19, 186, 114, 195, 120, 120, 195, 2, 1.07561
104, 3, wb, attraction, a-b-da, 9, 3, 8, 19, 186, 114, 195, 120, 120, 195, 3, 0.343248
104, 3, wb, filler, NA, 999, 999, 8, 20, 109, 142, 85, 191, 76, 130, 3, 0.910992
104, 3, wb, filler, NA, 999, 999, 8, 20, 109, 142, 85, 191, 76, 130, 2, 0.377519
104, 3, wb, attraction, a-b-da, 2, 2, 8, 21, 163, 89, 165, 90, 90, 165, 2, 2.01598
104, 3, wb, attraction, a-b-da, 2, 2, 8, 21, 163, 89, 165, 90, 90, 165, 3, 0.333939
104, 3, wb, attraction, a-b-db, 2, 1, 8, 22, 135, 60, 59, 134, 60, 135, 1, 0.878517
104, 3, wb, attraction, a-b-db, 2, 1, 8, 22, 135, 60, 59, 134, 60, 135, 3, 0.522232
104, 3, wb, filler, NA, 999, 999, 8, 23, 193, 165, 81, 79, 194, 156, 2, 0.7712
104, 3, wb, filler, NA, 999, 999, 8, 23, 193, 165, 81, 79, 194, 156, 3, 0.379579
104, 3, wb, filler, NA, 999, 999, 8, 24, 73, 141, 77, 175, 130, 187, 1, 0.978076
104, 3, wb, filler, NA, 999, 999, 8, 24, 73, 141, 77, 175, 130, 187, 3, 0.393774
104, 3, wb, attraction, a-b-da, 9, 1, 8, 25, 135, 60, 129, 57, 60, 135, 2, 1.0955
104, 3, wb, attraction, a-b-da, 9, 1, 8, 25, 135, 60, 129, 57, 60, 135, 3, 0.39451
104, 3, wb, attraction, a-b-da, 2, 1, 8, 26, 60, 135, 135, 60, 134, 59, 2, 3.11241
104, 3, wb, attraction, a-b-da, 2, 1, 8, 26, 60, 135, 135, 60, 134, 59, 1, 0.41804
104, 3, wb, attraction, a-b-db, 14, 2, 8, 27, 165, 90, 90, 165, 83, 153, 3, 4.19917
104, 3, wb, attraction, a-b-db, 14, 2, 8, 27, 165, 90, 90, 165, 83, 153, 2, 0.517118
104, 3, wb, attraction, a-b-da, 2, 3, 8, 28, 195, 120, 120, 195, 193, 119, 1, 1.59822
104, 3, wb, attraction, a-b-da, 2, 3, 8, 28, 195, 120, 120, 195, 193, 119, 2, 0.605198
104, 3, wb, attraction, a-b-db, 14, 1, 8, 29, 60, 135, 135, 60, 56, 125, 2, 0.786949
104, 3, wb, attraction, a-b-db, 14, 1, 8, 29, 60, 135, 135, 60, 56, 125, 1, 0.522595
104, 3, wb, attraction, a-b-da, 5, 1, 8, 30, 135, 60, 60, 135, 132, 58, 1, 1.51571
104, 3, wb, attraction, a-b-da, 5, 1, 8, 30, 135, 60, 60, 135, 132, 58, 3, 0.829977
104, 3, wb, attraction, a-b-da, 14, 1, 8, 31, 60, 135, 135, 60, 125, 56, 2, 0.986205
104, 3, wb, attraction, a-b-da, 14, 1, 8, 31, 60, 135, 135, 60, 125, 56, 3, 0.922024
104, 3, wb, attraction, a-b-db, 5, 3, 8, 32, 117, 190, 195, 120, 120, 195, 2, 0.78692
104, 3, wb, attraction, a-b-db, 5, 3, 8, 32, 117, 190, 195, 120, 120, 195, 3, 0.434522
104, 3, wb, attraction, a-b-da, 9, 2, 8, 33, 165, 90, 90, 165, 157, 86, 1, 1.23109
104, 3, wb, attraction, a-b-da, 9, 2, 8, 33, 165, 90, 90, 165, 157, 86, 2, 0.804605
104, 3, wb, attraction, a-b-db, 9, 2, 8, 34, 165, 90, 90, 165, 86, 157, 2, 0.802321
104, 3, wb, attraction, a-b-db, 9, 2, 8, 34, 165, 90, 90, 165, 86, 157, 3, 1.28144
104, 3, wb, attraction, a-b-da, 5, 3, 8, 35, 195, 120, 120, 195, 190, 117, 1, 4.49172
104, 3, wb, attraction, a-b-da, 5, 3, 8, 35, 195, 120, 120, 195, 190, 117, 2, 0.797462
104, 3, wb, attraction, a-b-da, 5, 2, 8, 36, 90, 165, 165, 90, 161, 88, 2, 3.84327
104, 3, wb, attraction, a-b-da, 5, 2, 8, 36, 90, 165, 165, 90, 161, 88, 3, 0.551389
104, 3, wb, filler, NA, 999, 999, 8, 37, 176, 108, 172, 165, 146, 82, 3, 1.40741
104, 3, wb, filler, NA, 999, 999, 8, 37, 176, 108, 172, 165, 146, 82, 2, 0.35724
