sub_n, computer_n, bw_cond, effect, set, distance, diag, block_n, trial_n, h1, w1, h2, w2, h3, w3, choice, rt 
198, 3, wb, practice, NA, 999, 999, 0, 1, 153, 144, 75, 144, 148, 176, 2, 1.86742
198, 3, wb, practice, NA, 999, 999, 0, 1, 153, 144, 75, 144, 148, 176, 3, 2.31002
198, 3, wb, practice, NA, 999, 999, 0, 2, 85, 91, 85, 146, 121, 172, 1, 2.00244
198, 3, wb, practice, NA, 999, 999, 0, 2, 85, 91, 85, 146, 121, 172, 3, 1.50712
198, 3, wb, practice, NA, 999, 999, 0, 3, 185, 154, 141, 138, 121, 79, 3, 1.96869
198, 3, wb, practice, NA, 999, 999, 0, 3, 185, 154, 141, 138, 121, 79, 1, 1.0017
198, 3, wb, attraction, a-b-da, 2, 3, 1, 1, 195, 120, 120, 195, 193, 119, 3, 7.58642
198, 3, wb, attraction, a-b-da, 2, 3, 1, 1, 195, 120, 120, 195, 193, 119, 2, 1.50401
198, 3, wb, filler, NA, 999, 999, 1, 2, 89, 131, 126, 147, 94, 74, 3, 1.95351
198, 3, wb, filler, NA, 999, 999, 1, 2, 89, 131, 126, 147, 94, 74, 2, 3.32215
198, 3, wb, filler, NA, 999, 999, 1, 3, 70, 136, 91, 116, 185, 111, 2, 1.80239
198, 3, wb, filler, NA, 999, 999, 1, 3, 70, 136, 91, 116, 185, 111, 3, 1.5692
198, 3, wb, filler, NA, 999, 999, 1, 4, 64, 131, 176, 74, 170, 95, 1, 1.68793
198, 3, wb, filler, NA, 999, 999, 1, 4, 64, 131, 176, 74, 170, 95, 3, 3.20371
198, 3, wb, attraction, a-b-da, 2, 1, 1, 5, 60, 135, 135, 60, 134, 59, 3, 5.9204
198, 3, wb, attraction, a-b-da, 2, 1, 1, 5, 60, 135, 135, 60, 134, 59, 1, 2.21718
198, 3, wb, attraction, a-b-db, 2, 2, 1, 6, 165, 90, 89, 163, 90, 165, 1, 2.8617
198, 3, wb, attraction, a-b-db, 2, 2, 1, 6, 165, 90, 89, 163, 90, 165, 3, 3.57755
198, 3, wb, attraction, a-b-db, 2, 3, 1, 7, 119, 193, 195, 120, 120, 195, 1, 2.35907
198, 3, wb, attraction, a-b-db, 2, 3, 1, 7, 119, 193, 195, 120, 120, 195, 2, 0.846967
198, 3, wb, attraction, a-b-da, 9, 1, 1, 8, 135, 60, 129, 57, 60, 135, 2, 1.51449
198, 3, wb, attraction, a-b-da, 9, 1, 1, 8, 135, 60, 129, 57, 60, 135, 1, 1.07666
198, 3, wb, attraction, a-b-db, 9, 3, 1, 9, 120, 195, 195, 120, 114, 186, 2, 1.69502
198, 3, wb, attraction, a-b-db, 9, 3, 1, 9, 120, 195, 195, 120, 114, 186, 1, 0.769736
198, 3, wb, attraction, a-b-da, 5, 3, 1, 10, 195, 120, 190, 117, 120, 195, 1, 2.08881
198, 3, wb, attraction, a-b-da, 5, 3, 1, 10, 195, 120, 190, 117, 120, 195, 2, 1.25943
198, 3, wb, attraction, a-b-da, 5, 1, 1, 11, 135, 60, 132, 58, 60, 135, 1, 1.0944
198, 3, wb, attraction, a-b-da, 5, 1, 1, 11, 135, 60, 132, 58, 60, 135, 2, 0.769382
198, 3, wb, attraction, a-b-db, 9, 1, 1, 12, 135, 60, 60, 135, 57, 129, 1, 1.56834
198, 3, wb, attraction, a-b-db, 9, 1, 1, 12, 135, 60, 60, 135, 57, 129, 2, 0.896477
198, 3, wb, attraction, a-b-db, 2, 1, 1, 13, 60, 135, 135, 60, 59, 134, 1, 1.70614
198, 3, wb, attraction, a-b-db, 2, 1, 1, 13, 60, 135, 135, 60, 59, 134, 2, 0.7162
198, 3, wb, filler, NA, 999, 999, 1, 14, 155, 187, 164, 164, 186, 101, 3, 1.44539
198, 3, wb, filler, NA, 999, 999, 1, 14, 155, 187, 164, 164, 186, 101, 1, 0.890103
198, 3, wb, attraction, a-b-db, 14, 2, 1, 15, 165, 90, 90, 165, 83, 153, 3, 3.24375
198, 3, wb, attraction, a-b-db, 14, 2, 1, 15, 165, 90, 90, 165, 83, 153, 2, 0.672027
198, 3, wb, attraction, a-b-da, 9, 2, 1, 16, 157, 86, 90, 165, 165, 90, 1, 1.13916
198, 3, wb, attraction, a-b-da, 9, 2, 1, 16, 157, 86, 90, 165, 165, 90, 2, 0.556147
198, 3, wb, filler, NA, 999, 999, 1, 17, 181, 171, 99, 110, 110, 67, 3, 1.0839
198, 3, wb, filler, NA, 999, 999, 1, 17, 181, 171, 99, 110, 110, 67, 1, 0.575472
198, 3, wb, attraction, a-b-da, 5, 2, 1, 18, 165, 90, 161, 88, 90, 165, 1, 1.67794
198, 3, wb, attraction, a-b-da, 5, 2, 1, 18, 165, 90, 161, 88, 90, 165, 3, 1.02533
198, 3, wb, filler, NA, 999, 999, 1, 19, 56, 92, 125, 86, 161, 72, 1, 0.701733
198, 3, wb, filler, NA, 999, 999, 1, 19, 56, 92, 125, 86, 161, 72, 3, 0.688916
198, 3, wb, attraction, a-b-da, 9, 3, 1, 20, 186, 114, 195, 120, 120, 195, 1, 2.36327
198, 3, wb, attraction, a-b-da, 9, 3, 1, 20, 186, 114, 195, 120, 120, 195, 2, 0.915064
198, 3, wb, attraction, a-b-da, 14, 3, 1, 21, 195, 120, 120, 195, 181, 111, 3, 1.17219
198, 3, wb, attraction, a-b-da, 14, 3, 1, 21, 195, 120, 120, 195, 181, 111, 1, 0.659671
198, 3, wb, attraction, a-b-db, 5, 3, 1, 22, 120, 195, 117, 190, 195, 120, 1, 1.89479
198, 3, wb, attraction, a-b-db, 5, 3, 1, 22, 120, 195, 117, 190, 195, 120, 3, 0.56952
198, 3, wb, attraction, a-b-db, 9, 2, 1, 23, 90, 165, 86, 157, 165, 90, 1, 0.896524
198, 3, wb, attraction, a-b-db, 9, 2, 1, 23, 90, 165, 86, 157, 165, 90, 2, 0.947534
198, 3, wb, attraction, a-b-da, 2, 2, 1, 24, 90, 165, 163, 89, 165, 90, 1, 1.0032
198, 3, wb, attraction, a-b-da, 2, 2, 1, 24, 90, 165, 163, 89, 165, 90, 3, 0.722294
198, 3, wb, filler, NA, 999, 999, 1, 25, 193, 73, 161, 87, 181, 107, 1, 1.25136
198, 3, wb, filler, NA, 999, 999, 1, 25, 193, 73, 161, 87, 181, 107, 3, 0.528258
198, 3, wb, attraction, a-b-da, 14, 2, 1, 26, 90, 165, 165, 90, 153, 83, 3, 2.85667
198, 3, wb, attraction, a-b-da, 14, 2, 1, 26, 90, 165, 165, 90, 153, 83, 1, 0.556482
198, 3, wb, attraction, a-b-db, 5, 1, 1, 27, 135, 60, 58, 132, 60, 135, 1, 2.60417
198, 3, wb, attraction, a-b-db, 5, 1, 1, 27, 135, 60, 58, 132, 60, 135, 3, 0.738647
198, 3, wb, attraction, a-b-db, 14, 1, 1, 28, 135, 60, 60, 135, 56, 125, 1, 8.05097
198, 3, wb, attraction, a-b-db, 14, 1, 1, 28, 135, 60, 60, 135, 56, 125, 2, 0.549749
198, 3, wb, catch, NA, 999, 999, 1, 29, 131, 184, 97, 98, 111, 144, 2, 3.3656
198, 3, wb, catch, NA, 999, 999, 1, 29, 131, 184, 97, 98, 111, 144, 1, 1.01323
198, 3, wb, attraction, a-b-db, 5, 2, 1, 30, 165, 90, 88, 161, 90, 165, 2, 1.91405
198, 3, wb, attraction, a-b-db, 5, 2, 1, 30, 165, 90, 88, 161, 90, 165, 3, 0.668175
198, 3, wb, catch, NA, 999, 999, 1, 31, 178, 137, 116, 139, 67, 128, 3, 1.33526
198, 3, wb, catch, NA, 999, 999, 1, 31, 178, 137, 116, 139, 67, 128, 1, 0.768807
198, 3, wb, attraction, a-b-db, 14, 3, 1, 32, 111, 181, 120, 195, 195, 120, 1, 1.05578
198, 3, wb, attraction, a-b-db, 14, 3, 1, 32, 111, 181, 120, 195, 195, 120, 2, 0.708125
198, 3, wb, filler, NA, 999, 999, 1, 33, 143, 85, 153, 157, 165, 116, 1, 0.725195
198, 3, wb, filler, NA, 999, 999, 1, 33, 143, 85, 153, 157, 165, 116, 2, 1.41513
198, 3, wb, filler, NA, 999, 999, 1, 34, 61, 104, 60, 100, 63, 162, 2, 2.22774
198, 3, wb, filler, NA, 999, 999, 1, 34, 61, 104, 60, 100, 63, 162, 3, 0.593093
198, 3, wb, attraction, a-b-da, 14, 1, 1, 35, 135, 60, 125, 56, 60, 135, 2, 1.17482
198, 3, wb, attraction, a-b-da, 14, 1, 1, 35, 135, 60, 125, 56, 60, 135, 3, 0.870389
198, 3, wb, filler, NA, 999, 999, 1, 36, 138, 180, 63, 143, 71, 161, 2, 0.833568
198, 3, wb, filler, NA, 999, 999, 1, 36, 138, 180, 63, 143, 71, 161, 1, 0.799127
198, 3, wb, catch, NA, 999, 999, 1, 37, 81, 114, 164, 151, 141, 114, 1, 0.764773
198, 3, wb, catch, NA, 999, 999, 1, 37, 81, 114, 164, 151, 141, 114, 2, 0.877149
198, 3, wb, catch, NA, 999, 999, 2, 1, 154, 101, 132, 63, 194, 121, 2, 3.24755
198, 3, wb, catch, NA, 999, 999, 2, 1, 154, 101, 132, 63, 194, 121, 3, 0.475818
198, 3, wb, filler, NA, 999, 999, 2, 2, 101, 175, 114, 74, 170, 195, 2, 0.902195
198, 3, wb, filler, NA, 999, 999, 2, 2, 101, 175, 114, 74, 170, 195, 3, 0.409297
198, 3, wb, filler, NA, 999, 999, 2, 3, 122, 137, 124, 57, 58, 150, 2, 0.83057
198, 3, wb, filler, NA, 999, 999, 2, 3, 122, 137, 124, 57, 58, 150, 1, 0.436083
198, 3, wb, attraction, a-b-da, 9, 3, 2, 4, 186, 114, 120, 195, 195, 120, 1, 1.52857
198, 3, wb, attraction, a-b-da, 9, 3, 2, 4, 186, 114, 120, 195, 195, 120, 2, 0.746195
198, 3, wb, filler, NA, 999, 999, 2, 5, 162, 163, 145, 132, 175, 74, 3, 1.29785
198, 3, wb, filler, NA, 999, 999, 2, 5, 162, 163, 145, 132, 175, 74, 1, 0.420717
198, 3, wb, attraction, a-b-da, 14, 1, 2, 6, 60, 135, 125, 56, 135, 60, 2, 1.80179
198, 3, wb, attraction, a-b-da, 14, 1, 2, 6, 60, 135, 125, 56, 135, 60, 3, 2.95259
198, 3, wb, attraction, a-b-da, 5, 3, 2, 7, 190, 117, 120, 195, 195, 120, 2, 1.87191
198, 3, wb, attraction, a-b-da, 5, 3, 2, 7, 190, 117, 120, 195, 195, 120, 3, 0.987058
198, 3, wb, attraction, a-b-da, 14, 3, 2, 8, 120, 195, 195, 120, 181, 111, 2, 1.24942
198, 3, wb, attraction, a-b-da, 14, 3, 2, 8, 120, 195, 195, 120, 181, 111, 3, 1.15826
198, 3, wb, attraction, a-b-da, 2, 3, 2, 9, 120, 195, 195, 120, 193, 119, 1, 0.725115
198, 3, wb, attraction, a-b-da, 2, 3, 2, 9, 120, 195, 195, 120, 193, 119, 2, 1.19889
198, 3, wb, filler, NA, 999, 999, 2, 10, 193, 86, 71, 189, 81, 166, 2, 0.820385
198, 3, wb, filler, NA, 999, 999, 2, 10, 193, 86, 71, 189, 81, 166, 1, 0.570884
198, 3, wb, attraction, a-b-db, 5, 2, 2, 11, 90, 165, 165, 90, 88, 161, 2, 0.793931
198, 3, wb, attraction, a-b-db, 5, 2, 2, 11, 90, 165, 165, 90, 88, 161, 3, 1.22504
198, 3, wb, filler, NA, 999, 999, 2, 12, 77, 168, 58, 75, 170, 60, 2, 0.949404
198, 3, wb, filler, NA, 999, 999, 2, 12, 77, 168, 58, 75, 170, 60, 1, 0.846323
198, 3, wb, filler, NA, 999, 999, 2, 13, 150, 97, 77, 162, 70, 174, 2, 2.20198
198, 3, wb, filler, NA, 999, 999, 2, 13, 150, 97, 77, 162, 70, 174, 1, 0.440662
198, 3, wb, attraction, a-b-db, 9, 2, 2, 14, 86, 157, 90, 165, 165, 90, 2, 1.46835
198, 3, wb, attraction, a-b-db, 9, 2, 2, 14, 86, 157, 90, 165, 165, 90, 3, 1.0166
198, 3, wb, attraction, a-b-db, 2, 1, 2, 15, 60, 135, 59, 134, 135, 60, 1, 0.853474
198, 3, wb, attraction, a-b-db, 2, 1, 2, 15, 60, 135, 59, 134, 135, 60, 3, 1.46656
198, 3, wb, attraction, a-b-da, 5, 1, 2, 16, 132, 58, 60, 135, 135, 60, 1, 1.93335
198, 3, wb, attraction, a-b-da, 5, 1, 2, 16, 132, 58, 60, 135, 135, 60, 3, 1.5188
198, 3, wb, attraction, a-b-da, 9, 1, 2, 17, 135, 60, 129, 57, 60, 135, 2, 0.927634
198, 3, wb, attraction, a-b-da, 9, 1, 2, 17, 135, 60, 129, 57, 60, 135, 1, 0.433201
198, 3, wb, attraction, a-b-db, 14, 1, 2, 18, 135, 60, 60, 135, 56, 125, 3, 1.64569
198, 3, wb, attraction, a-b-db, 14, 1, 2, 18, 135, 60, 60, 135, 56, 125, 2, 0.714499
198, 3, wb, attraction, a-b-db, 2, 2, 2, 19, 165, 90, 89, 163, 90, 165, 1, 1.20354
198, 3, wb, attraction, a-b-db, 2, 2, 2, 19, 165, 90, 89, 163, 90, 165, 3, 0.618493
198, 3, wb, filler, NA, 999, 999, 2, 20, 150, 138, 163, 94, 155, 162, 2, 0.903513
198, 3, wb, filler, NA, 999, 999, 2, 20, 150, 138, 163, 94, 155, 162, 3, 0.450618
198, 3, wb, filler, NA, 999, 999, 2, 21, 157, 186, 91, 57, 168, 77, 2, 0.974431
198, 3, wb, filler, NA, 999, 999, 2, 21, 157, 186, 91, 57, 168, 77, 1, 0.822136
198, 3, wb, attraction, a-b-db, 14, 3, 2, 22, 120, 195, 195, 120, 111, 181, 2, 3.0111
198, 3, wb, attraction, a-b-db, 14, 3, 2, 22, 120, 195, 195, 120, 111, 181, 1, 1.3607
198, 3, wb, attraction, a-b-db, 9, 3, 2, 23, 120, 195, 195, 120, 114, 186, 3, 2.35956
198, 3, wb, attraction, a-b-db, 9, 3, 2, 23, 120, 195, 195, 120, 114, 186, 1, 0.479469
198, 3, wb, filler, NA, 999, 999, 2, 24, 115, 178, 168, 130, 113, 143, 3, 1.11393
198, 3, wb, filler, NA, 999, 999, 2, 24, 115, 178, 168, 130, 113, 143, 1, 0.948198
198, 3, wb, attraction, a-b-da, 9, 2, 2, 25, 90, 165, 165, 90, 157, 86, 2, 1.46786
198, 3, wb, attraction, a-b-da, 9, 2, 2, 25, 90, 165, 165, 90, 157, 86, 1, 0.912047
198, 3, wb, attraction, a-b-db, 5, 3, 2, 26, 120, 195, 117, 190, 195, 120, 2, 0.816973
198, 3, wb, attraction, a-b-db, 5, 3, 2, 26, 120, 195, 117, 190, 195, 120, 3, 0.479456
198, 3, wb, attraction, a-b-da, 2, 2, 2, 27, 163, 89, 165, 90, 90, 165, 2, 0.769932
198, 3, wb, attraction, a-b-da, 2, 2, 2, 27, 163, 89, 165, 90, 90, 165, 1, 0.51426
198, 3, wb, filler, NA, 999, 999, 2, 28, 177, 190, 189, 187, 89, 160, 3, 1.32339
198, 3, wb, filler, NA, 999, 999, 2, 28, 177, 190, 189, 187, 89, 160, 2, 1.48506
198, 3, wb, catch, NA, 999, 999, 2, 29, 121, 74, 168, 147, 107, 148, 1, 1.30305
198, 3, wb, catch, NA, 999, 999, 2, 29, 121, 74, 168, 147, 107, 148, 2, 0.610023
198, 3, wb, attraction, a-b-db, 14, 2, 2, 30, 90, 165, 165, 90, 83, 153, 1, 1.88723
198, 3, wb, attraction, a-b-db, 14, 2, 2, 30, 90, 165, 165, 90, 83, 153, 3, 0.698576
198, 3, wb, attraction, a-b-da, 2, 1, 2, 31, 134, 59, 60, 135, 135, 60, 2, 1.42025
198, 3, wb, attraction, a-b-da, 2, 1, 2, 31, 134, 59, 60, 135, 135, 60, 1, 0.522464
198, 3, wb, catch, NA, 999, 999, 2, 32, 107, 88, 165, 150, 154, 101, 1, 0.891526
198, 3, wb, catch, NA, 999, 999, 2, 32, 107, 88, 165, 150, 154, 101, 2, 0.638611
198, 3, wb, attraction, a-b-da, 5, 2, 2, 33, 165, 90, 161, 88, 90, 165, 2, 0.874977
198, 3, wb, attraction, a-b-da, 5, 2, 2, 33, 165, 90, 161, 88, 90, 165, 1, 0.414684
198, 3, wb, attraction, a-b-db, 9, 1, 2, 34, 60, 135, 57, 129, 135, 60, 2, 0.779836
198, 3, wb, attraction, a-b-db, 9, 1, 2, 34, 60, 135, 57, 129, 135, 60, 1, 1.10749
198, 3, wb, attraction, a-b-da, 14, 2, 2, 35, 165, 90, 90, 165, 153, 83, 2, 0.964505
198, 3, wb, attraction, a-b-da, 14, 2, 2, 35, 165, 90, 90, 165, 153, 83, 1, 0.748826
198, 3, wb, attraction, a-b-db, 5, 1, 2, 36, 135, 60, 58, 132, 60, 135, 2, 1.26046
198, 3, wb, attraction, a-b-db, 5, 1, 2, 36, 135, 60, 58, 132, 60, 135, 1, 0.488706
198, 3, wb, attraction, a-b-db, 2, 3, 2, 37, 120, 195, 119, 193, 195, 120, 3, 1.68333
198, 3, wb, attraction, a-b-db, 2, 3, 2, 37, 120, 195, 119, 193, 195, 120, 1, 0.630865
198, 3, wb, attraction, a-b-db, 2, 1, 3, 1, 60, 135, 135, 60, 59, 134, 2, 0.971096
198, 3, wb, attraction, a-b-db, 2, 1, 3, 1, 60, 135, 135, 60, 59, 134, 3, 0.867504
198, 3, wb, filler, NA, 999, 999, 3, 2, 184, 162, 145, 74, 75, 148, 2, 1.27848
198, 3, wb, filler, NA, 999, 999, 3, 2, 184, 162, 145, 74, 75, 148, 1, 0.441956
198, 3, wb, filler, NA, 999, 999, 3, 3, 180, 59, 183, 128, 118, 171, 1, 1.17388
198, 3, wb, filler, NA, 999, 999, 3, 3, 180, 59, 183, 128, 118, 171, 2, 0.589421
198, 3, wb, attraction, a-b-da, 9, 3, 3, 4, 186, 114, 120, 195, 195, 120, 1, 1.55578
198, 3, wb, attraction, a-b-da, 9, 3, 3, 4, 186, 114, 120, 195, 195, 120, 2, 0.803996
198, 3, wb, attraction, a-b-db, 5, 2, 3, 5, 165, 90, 88, 161, 90, 165, 1, 2.08167
198, 3, wb, attraction, a-b-db, 5, 2, 3, 5, 165, 90, 88, 161, 90, 165, 2, 0.669001
198, 3, wb, attraction, a-b-db, 5, 3, 3, 6, 195, 120, 120, 195, 117, 190, 1, 2.56012
198, 3, wb, attraction, a-b-db, 5, 3, 3, 6, 195, 120, 120, 195, 117, 190, 2, 0.712091
198, 3, wb, attraction, a-b-da, 9, 2, 3, 7, 90, 165, 165, 90, 157, 86, 2, 1.46494
198, 3, wb, attraction, a-b-da, 9, 2, 3, 7, 90, 165, 165, 90, 157, 86, 1, 0.365125
198, 3, wb, filler, NA, 999, 999, 3, 8, 138, 113, 94, 73, 151, 77, 2, 0.956371
198, 3, wb, filler, NA, 999, 999, 3, 8, 138, 113, 94, 73, 151, 77, 1, 0.62875
198, 3, wb, filler, NA, 999, 999, 3, 9, 101, 59, 68, 169, 57, 195, 1, 0.961126
198, 3, wb, filler, NA, 999, 999, 3, 9, 101, 59, 68, 169, 57, 195, 2, 0.401391
198, 3, wb, attraction, a-b-db, 14, 1, 3, 10, 60, 135, 56, 125, 135, 60, 3, 1.23923
198, 3, wb, attraction, a-b-db, 14, 1, 3, 10, 60, 135, 56, 125, 135, 60, 1, 0.828113
198, 3, wb, attraction, a-b-da, 14, 1, 3, 11, 60, 135, 125, 56, 135, 60, 2, 1.07254
198, 3, wb, attraction, a-b-da, 14, 1, 3, 11, 60, 135, 125, 56, 135, 60, 3, 0.916189
198, 3, wb, attraction, a-b-db, 2, 3, 3, 12, 120, 195, 195, 120, 119, 193, 2, 0.685249
198, 3, wb, attraction, a-b-db, 2, 3, 3, 12, 120, 195, 195, 120, 119, 193, 1, 0.808843
198, 3, wb, attraction, a-b-db, 5, 1, 3, 13, 135, 60, 60, 135, 58, 132, 1, 0.957965
198, 3, wb, attraction, a-b-db, 5, 1, 3, 13, 135, 60, 60, 135, 58, 132, 2, 0.854158
198, 3, wb, attraction, a-b-da, 9, 1, 3, 14, 135, 60, 129, 57, 60, 135, 1, 0.705816
198, 3, wb, attraction, a-b-da, 9, 1, 3, 14, 135, 60, 129, 57, 60, 135, 2, 0.356241
198, 3, wb, attraction, a-b-da, 2, 2, 3, 15, 90, 165, 165, 90, 163, 89, 1, 0.572106
198, 3, wb, attraction, a-b-da, 2, 2, 3, 15, 90, 165, 165, 90, 163, 89, 2, 0.411903
198, 3, wb, attraction, a-b-db, 14, 2, 3, 16, 83, 153, 165, 90, 90, 165, 1, 0.497079
198, 3, wb, attraction, a-b-db, 14, 2, 3, 16, 83, 153, 165, 90, 90, 165, 2, 0.868281
198, 3, wb, attraction, a-b-da, 2, 3, 3, 17, 195, 120, 120, 195, 193, 119, 1, 0.495322
198, 3, wb, attraction, a-b-da, 2, 3, 3, 17, 195, 120, 120, 195, 193, 119, 2, 0.370346
198, 3, wb, attraction, a-b-da, 5, 2, 3, 18, 165, 90, 90, 165, 161, 88, 1, 0.697591
198, 3, wb, attraction, a-b-da, 5, 2, 3, 18, 165, 90, 90, 165, 161, 88, 2, 0.70058
198, 3, wb, attraction, a-b-db, 14, 3, 3, 19, 195, 120, 111, 181, 120, 195, 1, 0.470344
198, 3, wb, attraction, a-b-db, 14, 3, 3, 19, 195, 120, 111, 181, 120, 195, 2, 0.586895
198, 3, wb, attraction, a-b-db, 2, 2, 3, 20, 90, 165, 89, 163, 165, 90, 1, 1.2492
198, 3, wb, attraction, a-b-db, 2, 2, 3, 20, 90, 165, 89, 163, 165, 90, 2, 0.518135
198, 3, wb, catch, NA, 999, 999, 3, 21, 134, 121, 164, 151, 81, 114, 3, 1.08729
198, 3, wb, catch, NA, 999, 999, 3, 21, 134, 121, 164, 151, 81, 114, 2, 0.370939
198, 3, wb, catch, NA, 999, 999, 3, 22, 95, 160, 134, 181, 100, 95, 3, 1.83405
198, 3, wb, catch, NA, 999, 999, 3, 22, 95, 160, 134, 181, 100, 95, 2, 0.775422
198, 3, wb, filler, NA, 999, 999, 3, 23, 78, 123, 131, 164, 72, 149, 1, 0.701793
198, 3, wb, filler, NA, 999, 999, 3, 23, 78, 123, 131, 164, 72, 149, 2, 0.672957
198, 3, wb, catch, NA, 999, 999, 3, 24, 165, 150, 74, 121, 94, 161, 2, 0.79528
198, 3, wb, catch, NA, 999, 999, 3, 24, 165, 150, 74, 121, 94, 161, 1, 0.434333
198, 3, wb, filler, NA, 999, 999, 3, 25, 69, 168, 126, 157, 133, 99, 1, 1.01501
198, 3, wb, filler, NA, 999, 999, 3, 25, 69, 168, 126, 157, 133, 99, 2, 1.18129
198, 3, wb, attraction, a-b-da, 2, 1, 3, 26, 135, 60, 60, 135, 134, 59, 2, 0.971417
198, 3, wb, attraction, a-b-da, 2, 1, 3, 26, 135, 60, 60, 135, 134, 59, 1, 0.75584
198, 3, wb, attraction, a-b-da, 14, 3, 3, 27, 195, 120, 120, 195, 181, 111, 3, 2.08354
198, 3, wb, attraction, a-b-da, 14, 3, 3, 27, 195, 120, 120, 195, 181, 111, 2, 0.486762
198, 3, wb, attraction, a-b-db, 9, 1, 3, 28, 57, 129, 60, 135, 135, 60, 1, 1.33729
198, 3, wb, attraction, a-b-db, 9, 1, 3, 28, 57, 129, 60, 135, 135, 60, 2, 0.68221
198, 3, wb, filler, NA, 999, 999, 3, 29, 108, 195, 106, 101, 67, 171, 2, 1.06058
198, 3, wb, filler, NA, 999, 999, 3, 29, 108, 195, 106, 101, 67, 171, 1, 0.504933
198, 3, wb, attraction, a-b-db, 9, 3, 3, 30, 120, 195, 195, 120, 114, 186, 3, 1.87471
198, 3, wb, attraction, a-b-db, 9, 3, 3, 30, 120, 195, 195, 120, 114, 186, 1, 0.862031
198, 3, wb, filler, NA, 999, 999, 3, 31, 158, 56, 155, 91, 128, 62, 3, 1.96098
198, 3, wb, filler, NA, 999, 999, 3, 31, 158, 56, 155, 91, 128, 62, 2, 0.401201
198, 3, wb, filler, NA, 999, 999, 3, 32, 110, 65, 101, 176, 100, 146, 1, 0.830884
198, 3, wb, filler, NA, 999, 999, 3, 32, 110, 65, 101, 176, 100, 146, 2, 0.412648
198, 3, wb, attraction, a-b-da, 5, 1, 3, 33, 60, 135, 132, 58, 135, 60, 1, 1.86588
198, 3, wb, attraction, a-b-da, 5, 1, 3, 33, 60, 135, 132, 58, 135, 60, 2, 0.374017
198, 3, wb, attraction, a-b-db, 9, 2, 3, 34, 90, 165, 86, 157, 165, 90, 1, 0.964356
198, 3, wb, attraction, a-b-db, 9, 2, 3, 34, 90, 165, 86, 157, 165, 90, 3, 0.580732
198, 3, wb, filler, NA, 999, 999, 3, 35, 65, 195, 97, 157, 130, 149, 1, 1.46706
198, 3, wb, filler, NA, 999, 999, 3, 35, 65, 195, 97, 157, 130, 149, 3, 0.67923
198, 3, wb, attraction, a-b-da, 14, 2, 3, 36, 90, 165, 165, 90, 153, 83, 2, 2.16968
198, 3, wb, attraction, a-b-da, 14, 2, 3, 36, 90, 165, 165, 90, 153, 83, 1, 0.393793
198, 3, wb, attraction, a-b-da, 5, 3, 3, 37, 190, 117, 120, 195, 195, 120, 1, 2.02337
198, 3, wb, attraction, a-b-da, 5, 3, 3, 37, 190, 117, 120, 195, 195, 120, 2, 0.476808
198, 3, wb, attraction, a-b-da, 14, 2, 4, 1, 165, 90, 90, 165, 153, 83, 3, 0.815264
198, 3, wb, attraction, a-b-da, 14, 2, 4, 1, 165, 90, 90, 165, 153, 83, 1, 0.837587
198, 3, wb, filler, NA, 999, 999, 4, 2, 166, 61, 114, 82, 179, 127, 2, 1.13811
198, 3, wb, filler, NA, 999, 999, 4, 2, 166, 61, 114, 82, 179, 127, 3, 1.59563
198, 3, wb, attraction, a-b-da, 5, 3, 4, 3, 195, 120, 190, 117, 120, 195, 3, 1.65702
198, 3, wb, attraction, a-b-da, 5, 3, 4, 3, 195, 120, 190, 117, 120, 195, 2, 0.437176
198, 3, wb, catch, NA, 999, 999, 4, 4, 128, 187, 92, 103, 155, 100, 2, 1.08158
198, 3, wb, catch, NA, 999, 999, 4, 4, 128, 187, 92, 103, 155, 100, 1, 0.541234
198, 3, wb, attraction, a-b-da, 9, 3, 4, 5, 120, 195, 186, 114, 195, 120, 1, 1.48502
198, 3, wb, attraction, a-b-da, 9, 3, 4, 5, 120, 195, 186, 114, 195, 120, 3, 0.992544
198, 3, wb, filler, NA, 999, 999, 4, 6, 175, 170, 88, 67, 98, 161, 2, 0.678179
198, 3, wb, filler, NA, 999, 999, 4, 6, 175, 170, 88, 67, 98, 161, 1, 0.385842
198, 3, wb, attraction, a-b-db, 2, 3, 4, 7, 195, 120, 119, 193, 120, 195, 1, 0.872491
198, 3, wb, attraction, a-b-db, 2, 3, 4, 7, 195, 120, 119, 193, 120, 195, 2, 0.396168
198, 3, wb, filler, NA, 999, 999, 4, 8, 64, 161, 59, 168, 167, 143, 1, 0.97799
198, 3, wb, filler, NA, 999, 999, 4, 8, 64, 161, 59, 168, 167, 143, 3, 0.953584
198, 3, wb, attraction, a-b-da, 2, 1, 4, 9, 134, 59, 135, 60, 60, 135, 3, 0.897219
198, 3, wb, attraction, a-b-da, 2, 1, 4, 9, 134, 59, 135, 60, 60, 135, 1, 0.940321
198, 3, wb, filler, NA, 999, 999, 4, 10, 91, 94, 128, 62, 187, 110, 1, 0.835998
198, 3, wb, filler, NA, 999, 999, 4, 10, 91, 94, 128, 62, 187, 110, 3, 0.841558
198, 3, wb, attraction, a-b-da, 9, 2, 4, 11, 90, 165, 157, 86, 165, 90, 3, 1.31721
198, 3, wb, attraction, a-b-da, 9, 2, 4, 11, 90, 165, 157, 86, 165, 90, 2, 0.431608
198, 3, wb, catch, NA, 999, 999, 4, 12, 129, 66, 182, 133, 141, 114, 1, 1.02006
198, 3, wb, catch, NA, 999, 999, 4, 12, 129, 66, 182, 133, 141, 114, 2, 0.354492
198, 3, wb, attraction, a-b-db, 9, 2, 4, 13, 90, 165, 165, 90, 86, 157, 1, 0.698303
198, 3, wb, attraction, a-b-db, 9, 2, 4, 13, 90, 165, 165, 90, 86, 157, 2, 0.445313
198, 3, wb, filler, NA, 999, 999, 4, 14, 113, 170, 158, 72, 128, 103, 2, 2.52913
198, 3, wb, filler, NA, 999, 999, 4, 14, 113, 170, 158, 72, 128, 103, 1, 0.634388
198, 3, wb, catch, NA, 999, 999, 4, 15, 183, 132, 148, 107, 85, 110, 3, 0.886784
198, 3, wb, catch, NA, 999, 999, 4, 15, 183, 132, 148, 107, 85, 110, 1, 0.482338
198, 3, wb, attraction, a-b-db, 14, 1, 4, 16, 56, 125, 60, 135, 135, 60, 1, 0.932757
198, 3, wb, attraction, a-b-db, 14, 1, 4, 16, 56, 125, 60, 135, 135, 60, 2, 4.97458
198, 3, wb, attraction, a-b-da, 9, 1, 4, 17, 135, 60, 60, 135, 129, 57, 1, 2.02022
198, 3, wb, attraction, a-b-da, 9, 1, 4, 17, 135, 60, 60, 135, 129, 57, 2, 0.738339
198, 3, wb, attraction, a-b-db, 5, 1, 4, 18, 60, 135, 58, 132, 135, 60, 1, 1.71457
198, 3, wb, attraction, a-b-db, 5, 1, 4, 18, 60, 135, 58, 132, 135, 60, 2, 0.748697
198, 3, wb, attraction, a-b-da, 5, 1, 4, 19, 135, 60, 132, 58, 60, 135, 3, 1.00436
198, 3, wb, attraction, a-b-da, 5, 1, 4, 19, 135, 60, 132, 58, 60, 135, 2, 0.963528
198, 3, wb, filler, NA, 999, 999, 4, 20, 101, 147, 56, 98, 127, 57, 2, 0.690312
198, 3, wb, filler, NA, 999, 999, 4, 20, 101, 147, 56, 98, 127, 57, 1, 0.749607
198, 3, wb, attraction, a-b-da, 2, 2, 4, 21, 163, 89, 90, 165, 165, 90, 1, 1.60512
198, 3, wb, attraction, a-b-da, 2, 2, 4, 21, 163, 89, 90, 165, 165, 90, 2, 0.539333
198, 3, wb, attraction, a-b-da, 5, 2, 4, 22, 90, 165, 165, 90, 161, 88, 1, 1.32379
198, 3, wb, attraction, a-b-da, 5, 2, 4, 22, 90, 165, 165, 90, 161, 88, 3, 0.86926
198, 3, wb, attraction, a-b-db, 2, 1, 4, 23, 59, 134, 60, 135, 135, 60, 1, 2.63233
198, 3, wb, attraction, a-b-db, 2, 1, 4, 23, 59, 134, 60, 135, 135, 60, 3, 0.565505
198, 3, wb, attraction, a-b-db, 14, 3, 4, 24, 111, 181, 120, 195, 195, 120, 1, 0.940589
198, 3, wb, attraction, a-b-db, 14, 3, 4, 24, 111, 181, 120, 195, 195, 120, 2, 2.36559
198, 3, wb, attraction, a-b-db, 5, 2, 4, 25, 90, 165, 88, 161, 165, 90, 2, 1.86013
198, 3, wb, attraction, a-b-db, 5, 2, 4, 25, 90, 165, 88, 161, 165, 90, 3, 0.560272
198, 3, wb, attraction, a-b-db, 9, 3, 4, 26, 114, 186, 120, 195, 195, 120, 2, 1.19927
198, 3, wb, attraction, a-b-db, 9, 3, 4, 26, 114, 186, 120, 195, 195, 120, 3, 0.870153
198, 3, wb, filler, NA, 999, 999, 4, 27, 174, 139, 69, 123, 113, 148, 2, 0.769175
198, 3, wb, filler, NA, 999, 999, 4, 27, 174, 139, 69, 123, 113, 148, 1, 0.329616
198, 3, wb, filler, NA, 999, 999, 4, 28, 104, 195, 143, 56, 118, 61, 2, 4.9301
198, 3, wb, filler, NA, 999, 999, 4, 28, 104, 195, 143, 56, 118, 61, 1, 0.33857
198, 3, wb, attraction, a-b-db, 5, 3, 4, 29, 195, 120, 120, 195, 117, 190, 1, 2.2511
198, 3, wb, attraction, a-b-db, 5, 3, 4, 29, 195, 120, 120, 195, 117, 190, 2, 0.407757
198, 3, wb, attraction, a-b-da, 14, 1, 4, 30, 125, 56, 135, 60, 60, 135, 1, 1.10881
198, 3, wb, attraction, a-b-da, 14, 1, 4, 30, 125, 56, 135, 60, 60, 135, 2, 0.735202
198, 3, wb, attraction, a-b-da, 2, 3, 4, 31, 120, 195, 195, 120, 193, 119, 1, 0.999445
198, 3, wb, attraction, a-b-da, 2, 3, 4, 31, 120, 195, 195, 120, 193, 119, 3, 0.726537
198, 3, wb, filler, NA, 999, 999, 4, 32, 187, 128, 64, 181, 125, 134, 2, 1.13487
198, 3, wb, filler, NA, 999, 999, 4, 32, 187, 128, 64, 181, 125, 134, 1, 0.480507
198, 3, wb, attraction, a-b-db, 14, 2, 4, 33, 165, 90, 90, 165, 83, 153, 1, 2.14689
198, 3, wb, attraction, a-b-db, 14, 2, 4, 33, 165, 90, 90, 165, 83, 153, 2, 0.50769
198, 3, wb, filler, NA, 999, 999, 4, 34, 111, 126, 168, 137, 112, 183, 1, 1.10081
198, 3, wb, filler, NA, 999, 999, 4, 34, 111, 126, 168, 137, 112, 183, 2, 0.855739
198, 3, wb, attraction, a-b-db, 2, 2, 4, 35, 90, 165, 89, 163, 165, 90, 2, 1.83524
198, 3, wb, attraction, a-b-db, 2, 2, 4, 35, 90, 165, 89, 163, 165, 90, 1, 0.624712
198, 3, wb, attraction, a-b-db, 9, 1, 4, 36, 135, 60, 60, 135, 57, 129, 3, 2.3411
198, 3, wb, attraction, a-b-db, 9, 1, 4, 36, 135, 60, 60, 135, 57, 129, 2, 0.581652
198, 3, wb, attraction, a-b-da, 14, 3, 4, 37, 195, 120, 181, 111, 120, 195, 2, 2.6602
198, 3, wb, attraction, a-b-da, 14, 3, 4, 37, 195, 120, 181, 111, 120, 195, 3, 0.359924
198, 3, wb, attraction, a-b-db, 14, 2, 5, 1, 83, 153, 90, 165, 165, 90, 1, 2.66185
198, 3, wb, attraction, a-b-db, 14, 2, 5, 1, 83, 153, 90, 165, 165, 90, 3, 0.921602
198, 3, wb, filler, NA, 999, 999, 5, 2, 141, 182, 130, 111, 99, 78, 3, 1.28255
198, 3, wb, filler, NA, 999, 999, 5, 2, 141, 182, 130, 111, 99, 78, 1, 0.430123
198, 3, wb, catch, NA, 999, 999, 5, 3, 190, 125, 105, 150, 72, 123, 3, 0.802553
198, 3, wb, catch, NA, 999, 999, 5, 3, 190, 125, 105, 150, 72, 123, 1, 0.457753
198, 3, wb, attraction, a-b-db, 5, 1, 5, 4, 135, 60, 60, 135, 58, 132, 2, 0.748811
198, 3, wb, attraction, a-b-db, 5, 1, 5, 4, 135, 60, 60, 135, 58, 132, 1, 1.06185
198, 3, wb, attraction, a-b-db, 2, 2, 5, 5, 165, 90, 90, 165, 89, 163, 1, 0.8008
198, 3, wb, attraction, a-b-db, 2, 2, 5, 5, 165, 90, 90, 165, 89, 163, 2, 0.343946
198, 3, wb, attraction, a-b-da, 9, 1, 5, 6, 129, 57, 60, 135, 135, 60, 1, 0.655727
198, 3, wb, attraction, a-b-da, 9, 1, 5, 6, 129, 57, 60, 135, 135, 60, 3, 0.564246
198, 3, wb, attraction, a-b-db, 5, 3, 5, 7, 120, 195, 117, 190, 195, 120, 2, 1.09123
198, 3, wb, attraction, a-b-db, 5, 3, 5, 7, 120, 195, 117, 190, 195, 120, 3, 0.35016
198, 3, wb, attraction, a-b-db, 5, 2, 5, 8, 88, 161, 90, 165, 165, 90, 1, 0.60595
198, 3, wb, attraction, a-b-db, 5, 2, 5, 8, 88, 161, 90, 165, 165, 90, 3, 0.692552
198, 3, wb, attraction, a-b-db, 2, 3, 5, 9, 120, 195, 119, 193, 195, 120, 1, 0.694076
198, 3, wb, attraction, a-b-db, 2, 3, 5, 9, 120, 195, 119, 193, 195, 120, 3, 0.369338
198, 3, wb, attraction, a-b-db, 14, 3, 5, 10, 195, 120, 111, 181, 120, 195, 1, 0.664358
198, 3, wb, attraction, a-b-db, 14, 3, 5, 10, 195, 120, 111, 181, 120, 195, 3, 0.356889
198, 3, wb, filler, NA, 999, 999, 5, 11, 137, 180, 182, 98, 59, 99, 3, 0.708054
198, 3, wb, filler, NA, 999, 999, 5, 11, 137, 180, 182, 98, 59, 99, 1, 0.318363
198, 3, wb, attraction, a-b-da, 14, 3, 5, 12, 181, 111, 195, 120, 120, 195, 1, 0.855644
198, 3, wb, attraction, a-b-da, 14, 3, 5, 12, 181, 111, 195, 120, 120, 195, 3, 0.363987
198, 3, wb, filler, NA, 999, 999, 5, 13, 88, 189, 58, 129, 124, 192, 2, 1.02721
198, 3, wb, filler, NA, 999, 999, 5, 13, 88, 189, 58, 129, 124, 192, 3, 0.336821
198, 3, wb, attraction, a-b-db, 14, 1, 5, 14, 60, 135, 135, 60, 56, 125, 2, 1.63329
198, 3, wb, attraction, a-b-db, 14, 1, 5, 14, 60, 135, 135, 60, 56, 125, 1, 0.390747
198, 3, wb, attraction, a-b-db, 2, 1, 5, 15, 59, 134, 135, 60, 60, 135, 2, 0.820615
198, 3, wb, attraction, a-b-db, 2, 1, 5, 15, 59, 134, 135, 60, 60, 135, 3, 0.458368
198, 3, wb, attraction, a-b-da, 5, 1, 5, 16, 135, 60, 60, 135, 132, 58, 1, 2.51737
198, 3, wb, attraction, a-b-da, 5, 1, 5, 16, 135, 60, 60, 135, 132, 58, 3, 0.831235
198, 3, wb, filler, NA, 999, 999, 5, 17, 167, 135, 70, 152, 125, 177, 2, 0.811643
198, 3, wb, filler, NA, 999, 999, 5, 17, 167, 135, 70, 152, 125, 177, 1, 3.04213
198, 3, wb, filler, NA, 999, 999, 5, 18, 162, 177, 152, 163, 187, 87, 3, 1.08502
198, 3, wb, filler, NA, 999, 999, 5, 18, 162, 177, 152, 163, 187, 87, 1, 0.552653
198, 3, wb, attraction, a-b-da, 9, 2, 5, 19, 157, 86, 90, 165, 165, 90, 1, 1.70442
198, 3, wb, attraction, a-b-da, 9, 2, 5, 19, 157, 86, 90, 165, 165, 90, 3, 0.835194
198, 3, wb, attraction, a-b-db, 9, 2, 5, 20, 165, 90, 90, 165, 86, 157, 2, 0.895531
198, 3, wb, attraction, a-b-db, 9, 2, 5, 20, 165, 90, 90, 165, 86, 157, 1, 0.434602
198, 3, wb, attraction, a-b-da, 14, 2, 5, 21, 90, 165, 165, 90, 153, 83, 2, 0.847134
198, 3, wb, attraction, a-b-da, 14, 2, 5, 21, 90, 165, 165, 90, 153, 83, 3, 0.388087
198, 3, wb, catch, NA, 999, 999, 5, 22, 141, 114, 75, 120, 178, 137, 2, 0.818545
198, 3, wb, catch, NA, 999, 999, 5, 22, 141, 114, 75, 120, 178, 137, 3, 0.648973
198, 3, wb, attraction, a-b-da, 5, 3, 5, 23, 195, 120, 190, 117, 120, 195, 2, 2.53259
198, 3, wb, attraction, a-b-da, 5, 3, 5, 23, 195, 120, 190, 117, 120, 195, 3, 0.677872
198, 3, wb, attraction, a-b-da, 2, 2, 5, 24, 90, 165, 165, 90, 163, 89, 1, 0.72024
198, 3, wb, attraction, a-b-da, 2, 2, 5, 24, 90, 165, 165, 90, 163, 89, 3, 0.70666
198, 3, wb, filler, NA, 999, 999, 5, 25, 157, 183, 89, 69, 99, 126, 2, 0.86767
198, 3, wb, filler, NA, 999, 999, 5, 25, 157, 183, 89, 69, 99, 126, 1, 0.336122
198, 3, wb, attraction, a-b-da, 5, 2, 5, 26, 90, 165, 161, 88, 165, 90, 1, 0.744524
198, 3, wb, attraction, a-b-da, 5, 2, 5, 26, 90, 165, 161, 88, 165, 90, 3, 0.537621
198, 3, wb, attraction, a-b-da, 9, 3, 5, 27, 120, 195, 186, 114, 195, 120, 1, 0.810089
198, 3, wb, attraction, a-b-da, 9, 3, 5, 27, 120, 195, 186, 114, 195, 120, 3, 0.328615
198, 3, wb, filler, NA, 999, 999, 5, 28, 128, 132, 59, 113, 78, 76, 3, 0.904915
198, 3, wb, filler, NA, 999, 999, 5, 28, 128, 132, 59, 113, 78, 76, 1, 0.419447
198, 3, wb, catch, NA, 999, 999, 5, 29, 130, 125, 63, 132, 192, 123, 2, 1.19252
198, 3, wb, catch, NA, 999, 999, 5, 29, 130, 125, 63, 132, 192, 123, 3, 0.687523
198, 3, wb, filler, NA, 999, 999, 5, 30, 180, 61, 187, 166, 141, 98, 1, 0.873902
198, 3, wb, filler, NA, 999, 999, 5, 30, 180, 61, 187, 166, 141, 98, 2, 0.405568
198, 3, wb, filler, NA, 999, 999, 5, 31, 126, 80, 182, 104, 138, 140, 1, 0.875462
198, 3, wb, filler, NA, 999, 999, 5, 31, 126, 80, 182, 104, 138, 140, 3, 2.30303
198, 3, wb, attraction, a-b-da, 2, 1, 5, 32, 135, 60, 60, 135, 134, 59, 2, 0.792435
198, 3, wb, attraction, a-b-da, 2, 1, 5, 32, 135, 60, 60, 135, 134, 59, 3, 0.471411
198, 3, wb, filler, NA, 999, 999, 5, 33, 122, 155, 137, 84, 68, 146, 3, 1.2745
198, 3, wb, filler, NA, 999, 999, 5, 33, 122, 155, 137, 84, 68, 146, 1, 0.357982
198, 3, wb, attraction, a-b-da, 2, 3, 5, 34, 120, 195, 193, 119, 195, 120, 1, 1.06123
198, 3, wb, attraction, a-b-da, 2, 3, 5, 34, 120, 195, 193, 119, 195, 120, 3, 0.361621
198, 3, wb, attraction, a-b-db, 9, 1, 5, 35, 57, 129, 135, 60, 60, 135, 2, 0.904633
198, 3, wb, attraction, a-b-db, 9, 1, 5, 35, 57, 129, 135, 60, 60, 135, 3, 0.483756
198, 3, wb, attraction, a-b-da, 14, 1, 5, 36, 60, 135, 125, 56, 135, 60, 2, 1.96617
198, 3, wb, attraction, a-b-da, 14, 1, 5, 36, 60, 135, 125, 56, 135, 60, 3, 0.78213
198, 3, wb, attraction, a-b-db, 9, 3, 5, 37, 195, 120, 114, 186, 120, 195, 2, 0.764572
198, 3, wb, attraction, a-b-db, 9, 3, 5, 37, 195, 120, 114, 186, 120, 195, 1, 0.404944
198, 3, wb, filler, NA, 999, 999, 6, 1, 90, 131, 166, 156, 152, 77, 1, 1.47477
198, 3, wb, filler, NA, 999, 999, 6, 1, 90, 131, 166, 156, 152, 77, 2, 0.334301
198, 3, wb, attraction, a-b-db, 5, 2, 6, 2, 90, 165, 165, 90, 88, 161, 2, 0.630768
198, 3, wb, attraction, a-b-db, 5, 2, 6, 2, 90, 165, 165, 90, 88, 161, 3, 1.38067
198, 3, wb, attraction, a-b-da, 9, 1, 6, 3, 135, 60, 129, 57, 60, 135, 2, 1.05071
198, 3, wb, attraction, a-b-da, 9, 1, 6, 3, 135, 60, 129, 57, 60, 135, 1, 0.503687
198, 3, wb, catch, NA, 999, 999, 6, 4, 120, 75, 96, 159, 160, 155, 1, 0.969588
198, 3, wb, catch, NA, 999, 999, 6, 4, 120, 75, 96, 159, 160, 155, 3, 0.36978
198, 3, wb, filler, NA, 999, 999, 6, 5, 105, 152, 157, 124, 162, 120, 1, 0.784899
198, 3, wb, filler, NA, 999, 999, 6, 5, 105, 152, 157, 124, 162, 120, 3, 0.464656
198, 3, wb, catch, NA, 999, 999, 6, 6, 118, 137, 117, 78, 187, 128, 2, 0.93988
198, 3, wb, catch, NA, 999, 999, 6, 6, 118, 137, 117, 78, 187, 128, 3, 0.708846
198, 3, wb, attraction, a-b-da, 5, 3, 6, 7, 120, 195, 195, 120, 190, 117, 2, 1.18987
198, 3, wb, attraction, a-b-da, 5, 3, 6, 7, 120, 195, 195, 120, 190, 117, 3, 0.621036
198, 3, wb, filler, NA, 999, 999, 6, 8, 191, 65, 194, 122, 179, 119, 1, 0.633915
198, 3, wb, filler, NA, 999, 999, 6, 8, 191, 65, 194, 122, 179, 119, 2, 0.599677
198, 3, wb, attraction, a-b-db, 9, 2, 6, 9, 165, 90, 90, 165, 86, 157, 1, 0.789473
198, 3, wb, attraction, a-b-db, 9, 2, 6, 9, 165, 90, 90, 165, 86, 157, 2, 0.46861
198, 3, wb, attraction, a-b-da, 2, 3, 6, 10, 195, 120, 193, 119, 120, 195, 1, 0.631623
198, 3, wb, attraction, a-b-da, 2, 3, 6, 10, 195, 120, 193, 119, 120, 195, 2, 0.445414
198, 3, wb, attraction, a-b-da, 14, 3, 6, 11, 195, 120, 120, 195, 181, 111, 1, 0.625264
198, 3, wb, attraction, a-b-da, 14, 3, 6, 11, 195, 120, 120, 195, 181, 111, 2, 2.07902
198, 3, wb, filler, NA, 999, 999, 6, 12, 133, 120, 134, 152, 195, 56, 3, 1.27293
198, 3, wb, filler, NA, 999, 999, 6, 12, 133, 120, 134, 152, 195, 56, 2, 0.508552
198, 3, wb, filler, NA, 999, 999, 6, 13, 69, 62, 126, 187, 178, 134, 1, 1.72556
198, 3, wb, filler, NA, 999, 999, 6, 13, 69, 62, 126, 187, 178, 134, 2, 1.94304
198, 3, wb, attraction, a-b-db, 14, 2, 6, 14, 90, 165, 165, 90, 83, 153, 3, 1.3504
198, 3, wb, attraction, a-b-db, 14, 2, 6, 14, 90, 165, 165, 90, 83, 153, 1, 1.04746
198, 3, wb, attraction, a-b-db, 2, 2, 6, 15, 90, 165, 165, 90, 89, 163, 2, 0.802941
198, 3, wb, attraction, a-b-db, 2, 2, 6, 15, 90, 165, 165, 90, 89, 163, 1, 0.786015
198, 3, wb, attraction, a-b-db, 14, 3, 6, 16, 195, 120, 111, 181, 120, 195, 2, 1.8643
198, 3, wb, attraction, a-b-db, 14, 3, 6, 16, 195, 120, 111, 181, 120, 195, 1, 0.356405
198, 3, wb, attraction, a-b-da, 5, 2, 6, 17, 161, 88, 90, 165, 165, 90, 1, 1.13223
198, 3, wb, attraction, a-b-da, 5, 2, 6, 17, 161, 88, 90, 165, 165, 90, 2, 0.533764
198, 3, wb, attraction, a-b-db, 9, 1, 6, 18, 135, 60, 57, 129, 60, 135, 1, 1.0624
198, 3, wb, attraction, a-b-db, 9, 1, 6, 18, 135, 60, 57, 129, 60, 135, 2, 0.522679
198, 3, wb, attraction, a-b-da, 2, 2, 6, 19, 163, 89, 90, 165, 165, 90, 1, 0.675836
198, 3, wb, attraction, a-b-da, 2, 2, 6, 19, 163, 89, 90, 165, 165, 90, 2, 0.583488
198, 3, wb, filler, NA, 999, 999, 6, 20, 190, 61, 71, 194, 98, 136, 1, 0.525862
198, 3, wb, filler, NA, 999, 999, 6, 20, 190, 61, 71, 194, 98, 136, 2, 0.623734
198, 3, wb, filler, NA, 999, 999, 6, 21, 146, 63, 136, 93, 93, 91, 1, 0.684221
198, 3, wb, filler, NA, 999, 999, 6, 21, 146, 63, 136, 93, 93, 91, 2, 0.663945
198, 3, wb, catch, NA, 999, 999, 6, 22, 115, 80, 135, 120, 188, 127, 1, 0.570937
198, 3, wb, catch, NA, 999, 999, 6, 22, 115, 80, 135, 120, 188, 127, 3, 0.835356
198, 3, wb, attraction, a-b-da, 5, 1, 6, 23, 135, 60, 132, 58, 60, 135, 2, 0.751707
198, 3, wb, attraction, a-b-da, 5, 1, 6, 23, 135, 60, 132, 58, 60, 135, 1, 1.04877
198, 3, wb, filler, NA, 999, 999, 6, 24, 157, 132, 95, 142, 62, 128, 3, 0.700449
198, 3, wb, filler, NA, 999, 999, 6, 24, 157, 132, 95, 142, 62, 128, 1, 0.415577
198, 3, wb, attraction, a-b-da, 2, 1, 6, 25, 60, 135, 134, 59, 135, 60, 2, 1.22062
198, 3, wb, attraction, a-b-da, 2, 1, 6, 25, 60, 135, 134, 59, 135, 60, 1, 0.714856
198, 3, wb, filler, NA, 999, 999, 6, 26, 134, 182, 147, 167, 175, 91, 3, 0.8679
198, 3, wb, filler, NA, 999, 999, 6, 26, 134, 182, 147, 167, 175, 91, 2, 0.7684
198, 3, wb, attraction, a-b-db, 14, 1, 6, 27, 56, 125, 135, 60, 60, 135, 1, 0.783358
198, 3, wb, attraction, a-b-db, 14, 1, 6, 27, 56, 125, 135, 60, 60, 135, 3, 0.503137
198, 3, wb, attraction, a-b-db, 9, 3, 6, 28, 114, 186, 120, 195, 195, 120, 1, 0.61684
198, 3, wb, attraction, a-b-db, 9, 3, 6, 28, 114, 186, 120, 195, 195, 120, 3, 0.73546
198, 3, wb, attraction, a-b-da, 9, 2, 6, 29, 157, 86, 90, 165, 165, 90, 1, 0.839817
198, 3, wb, attraction, a-b-da, 9, 2, 6, 29, 157, 86, 90, 165, 165, 90, 2, 0.572819
198, 3, wb, attraction, a-b-db, 2, 3, 6, 30, 195, 120, 119, 193, 120, 195, 1, 1.32382
198, 3, wb, attraction, a-b-db, 2, 3, 6, 30, 195, 120, 119, 193, 120, 195, 2, 0.317439
198, 3, wb, filler, NA, 999, 999, 6, 31, 194, 154, 103, 142, 60, 122, 3, 0.76676
198, 3, wb, filler, NA, 999, 999, 6, 31, 194, 154, 103, 142, 60, 122, 1, 0.583161
198, 3, wb, attraction, a-b-da, 14, 2, 6, 32, 90, 165, 153, 83, 165, 90, 1, 0.925438
198, 3, wb, attraction, a-b-da, 14, 2, 6, 32, 90, 165, 153, 83, 165, 90, 2, 0.999153
198, 3, wb, attraction, a-b-da, 9, 3, 6, 33, 195, 120, 186, 114, 120, 195, 2, 1.34886
198, 3, wb, attraction, a-b-da, 9, 3, 6, 33, 195, 120, 186, 114, 120, 195, 3, 0.821729
198, 3, wb, attraction, a-b-db, 5, 3, 6, 34, 117, 190, 195, 120, 120, 195, 2, 2.12268
198, 3, wb, attraction, a-b-db, 5, 3, 6, 34, 117, 190, 195, 120, 120, 195, 3, 0.419999
198, 3, wb, attraction, a-b-db, 5, 1, 6, 35, 58, 132, 135, 60, 60, 135, 2, 1.95316
198, 3, wb, attraction, a-b-db, 5, 1, 6, 35, 58, 132, 135, 60, 60, 135, 3, 0.545806
198, 3, wb, attraction, a-b-db, 2, 1, 6, 36, 60, 135, 59, 134, 135, 60, 2, 1.12956
198, 3, wb, attraction, a-b-db, 2, 1, 6, 36, 60, 135, 59, 134, 135, 60, 3, 0.611235
198, 3, wb, attraction, a-b-da, 14, 1, 6, 37, 125, 56, 60, 135, 135, 60, 1, 1.63227
198, 3, wb, attraction, a-b-da, 14, 1, 6, 37, 125, 56, 60, 135, 135, 60, 3, 0.581809
198, 3, wb, attraction, a-b-da, 9, 1, 7, 1, 135, 60, 129, 57, 60, 135, 2, 0.924323
198, 3, wb, attraction, a-b-da, 9, 1, 7, 1, 135, 60, 129, 57, 60, 135, 3, 0.997873
198, 3, wb, filler, NA, 999, 999, 7, 2, 80, 145, 126, 138, 75, 126, 3, 1.76358
198, 3, wb, filler, NA, 999, 999, 7, 2, 80, 145, 126, 138, 75, 126, 2, 0.355563
198, 3, wb, attraction, a-b-db, 14, 2, 7, 3, 90, 165, 165, 90, 83, 153, 3, 1.44337
198, 3, wb, attraction, a-b-db, 14, 2, 7, 3, 90, 165, 165, 90, 83, 153, 1, 0.712189
198, 3, wb, filler, NA, 999, 999, 7, 4, 177, 129, 139, 79, 131, 87, 2, 0.873408
198, 3, wb, filler, NA, 999, 999, 7, 4, 177, 129, 139, 79, 131, 87, 1, 0.413006
198, 3, wb, attraction, a-b-da, 2, 2, 7, 5, 163, 89, 90, 165, 165, 90, 1, 1.93807
198, 3, wb, attraction, a-b-da, 2, 2, 7, 5, 163, 89, 90, 165, 165, 90, 2, 0.395564
198, 3, wb, attraction, a-b-db, 5, 2, 7, 6, 88, 161, 165, 90, 90, 165, 1, 0.673373
198, 3, wb, attraction, a-b-db, 5, 2, 7, 6, 88, 161, 165, 90, 90, 165, 2, 0.365089
198, 3, wb, filler, NA, 999, 999, 7, 7, 141, 152, 69, 90, 129, 156, 2, 1.23618
198, 3, wb, filler, NA, 999, 999, 7, 7, 141, 152, 69, 90, 129, 156, 1, 0.417917
198, 3, wb, attraction, a-b-da, 9, 2, 7, 8, 165, 90, 157, 86, 90, 165, 2, 1.25491
198, 3, wb, attraction, a-b-da, 9, 2, 7, 8, 165, 90, 157, 86, 90, 165, 1, 0.555305
198, 3, wb, filler, NA, 999, 999, 7, 9, 157, 113, 84, 178, 141, 98, 3, 1.60298
198, 3, wb, filler, NA, 999, 999, 7, 9, 157, 113, 84, 178, 141, 98, 1, 0.49778
198, 3, wb, attraction, a-b-db, 2, 2, 7, 10, 89, 163, 90, 165, 165, 90, 1, 1.02776
198, 3, wb, attraction, a-b-db, 2, 2, 7, 10, 89, 163, 90, 165, 165, 90, 2, 0.425201
198, 3, wb, attraction, a-b-db, 9, 3, 7, 11, 114, 186, 195, 120, 120, 195, 1, 1.9978
198, 3, wb, attraction, a-b-db, 9, 3, 7, 11, 114, 186, 195, 120, 120, 195, 2, 0.700452
198, 3, wb, attraction, a-b-da, 9, 3, 7, 12, 120, 195, 195, 120, 186, 114, 2, 1.52607
198, 3, wb, attraction, a-b-da, 9, 3, 7, 12, 120, 195, 195, 120, 186, 114, 1, 0.519608
198, 3, wb, attraction, a-b-db, 5, 1, 7, 13, 135, 60, 58, 132, 60, 135, 2, 0.992815
198, 3, wb, attraction, a-b-db, 5, 1, 7, 13, 135, 60, 58, 132, 60, 135, 3, 0.519766
198, 3, wb, filler, NA, 999, 999, 7, 14, 95, 187, 158, 187, 192, 91, 1, 3.80898
198, 3, wb, filler, NA, 999, 999, 7, 14, 95, 187, 158, 187, 192, 91, 2, 0.310385
198, 3, wb, attraction, a-b-db, 2, 3, 7, 15, 195, 120, 119, 193, 120, 195, 3, 1.81549
198, 3, wb, attraction, a-b-db, 2, 3, 7, 15, 195, 120, 119, 193, 120, 195, 2, 0.909591
198, 3, wb, attraction, a-b-da, 14, 2, 7, 16, 165, 90, 90, 165, 153, 83, 3, 1.29447
198, 3, wb, attraction, a-b-da, 14, 2, 7, 16, 165, 90, 90, 165, 153, 83, 2, 0.569443
198, 3, wb, attraction, a-b-db, 14, 1, 7, 17, 56, 125, 135, 60, 60, 135, 1, 1.00058
198, 3, wb, attraction, a-b-db, 14, 1, 7, 17, 56, 125, 135, 60, 60, 135, 3, 0.479682
198, 3, wb, catch, NA, 999, 999, 7, 18, 140, 115, 149, 166, 79, 116, 3, 1.82601
198, 3, wb, catch, NA, 999, 999, 7, 18, 140, 115, 149, 166, 79, 116, 1, 0.46342
198, 3, wb, filler, NA, 999, 999, 7, 19, 83, 148, 124, 151, 120, 176, 1, 1.29863
198, 3, wb, filler, NA, 999, 999, 7, 19, 83, 148, 124, 151, 120, 176, 3, 0.637381
198, 3, wb, attraction, a-b-db, 2, 1, 7, 20, 135, 60, 59, 134, 60, 135, 2, 1.08975
198, 3, wb, attraction, a-b-db, 2, 1, 7, 20, 135, 60, 59, 134, 60, 135, 1, 0.836945
198, 3, wb, attraction, a-b-db, 9, 2, 7, 21, 165, 90, 86, 157, 90, 165, 2, 0.817102
198, 3, wb, attraction, a-b-db, 9, 2, 7, 21, 165, 90, 86, 157, 90, 165, 1, 1.38356
198, 3, wb, attraction, a-b-da, 5, 1, 7, 22, 132, 58, 60, 135, 135, 60, 1, 1.30968
198, 3, wb, attraction, a-b-da, 5, 1, 7, 22, 132, 58, 60, 135, 135, 60, 3, 0.639895
198, 3, wb, filler, NA, 999, 999, 7, 23, 87, 70, 158, 162, 81, 99, 1, 0.908375
198, 3, wb, filler, NA, 999, 999, 7, 23, 87, 70, 158, 162, 81, 99, 2, 0.286622
198, 3, wb, filler, NA, 999, 999, 7, 24, 105, 141, 168, 101, 83, 110, 3, 0.865306
198, 3, wb, filler, NA, 999, 999, 7, 24, 105, 141, 168, 101, 83, 110, 1, 0.397608
198, 3, wb, filler, NA, 999, 999, 7, 25, 116, 155, 120, 61, 129, 169, 2, 0.95556
198, 3, wb, filler, NA, 999, 999, 7, 25, 116, 155, 120, 61, 129, 169, 3, 0.331768
198, 3, wb, attraction, a-b-da, 14, 1, 7, 26, 60, 135, 125, 56, 135, 60, 2, 0.732216
198, 3, wb, attraction, a-b-da, 14, 1, 7, 26, 60, 135, 125, 56, 135, 60, 1, 0.309966
198, 3, wb, attraction, a-b-db, 9, 1, 7, 27, 135, 60, 60, 135, 57, 129, 1, 0.959194
198, 3, wb, attraction, a-b-db, 9, 1, 7, 27, 135, 60, 60, 135, 57, 129, 2, 0.367479
198, 3, wb, attraction, a-b-da, 5, 2, 7, 28, 90, 165, 161, 88, 165, 90, 1, 1.15062
198, 3, wb, attraction, a-b-da, 5, 2, 7, 28, 90, 165, 161, 88, 165, 90, 3, 0.639676
198, 3, wb, attraction, a-b-db, 14, 3, 7, 29, 120, 195, 195, 120, 111, 181, 3, 1.00397
198, 3, wb, attraction, a-b-db, 14, 3, 7, 29, 120, 195, 195, 120, 111, 181, 1, 0.299029
198, 3, wb, attraction, a-b-da, 2, 1, 7, 30, 60, 135, 134, 59, 135, 60, 1, 1.12485
198, 3, wb, attraction, a-b-da, 2, 1, 7, 30, 60, 135, 134, 59, 135, 60, 2, 0.286575
198, 3, wb, attraction, a-b-da, 2, 3, 7, 31, 193, 119, 195, 120, 120, 195, 1, 1.06511
198, 3, wb, attraction, a-b-da, 2, 3, 7, 31, 193, 119, 195, 120, 120, 195, 2, 0.525468
198, 3, wb, filler, NA, 999, 999, 7, 32, 180, 155, 101, 73, 133, 57, 2, 1.4618
198, 3, wb, filler, NA, 999, 999, 7, 32, 180, 155, 101, 73, 133, 57, 1, 0.705909
198, 3, wb, attraction, a-b-da, 14, 3, 7, 33, 195, 120, 120, 195, 181, 111, 1, 0.691704
198, 3, wb, attraction, a-b-da, 14, 3, 7, 33, 195, 120, 120, 195, 181, 111, 2, 0.286871
198, 3, wb, attraction, a-b-da, 5, 3, 7, 34, 190, 117, 195, 120, 120, 195, 2, 0.569376
198, 3, wb, attraction, a-b-da, 5, 3, 7, 34, 190, 117, 195, 120, 120, 195, 1, 0.345752
198, 3, wb, catch, NA, 999, 999, 7, 35, 146, 109, 159, 156, 65, 130, 3, 0.649624
198, 3, wb, catch, NA, 999, 999, 7, 35, 146, 109, 159, 156, 65, 130, 2, 0.718801
198, 3, wb, attraction, a-b-db, 5, 3, 7, 36, 120, 195, 117, 190, 195, 120, 2, 1.66369
198, 3, wb, attraction, a-b-db, 5, 3, 7, 36, 120, 195, 117, 190, 195, 120, 1, 0.339819
198, 3, wb, catch, NA, 999, 999, 7, 37, 156, 159, 115, 140, 75, 120, 3, 0.580493
198, 3, wb, catch, NA, 999, 999, 7, 37, 156, 159, 115, 140, 75, 120, 1, 0.324064
198, 3, wb, filler, NA, 999, 999, 8, 1, 135, 190, 192, 100, 90, 73, 3, 0.708758
198, 3, wb, filler, NA, 999, 999, 8, 1, 135, 190, 192, 100, 90, 73, 1, 0.295153
198, 3, wb, catch, NA, 999, 999, 8, 2, 120, 195, 93, 162, 126, 69, 3, 0.649043
198, 3, wb, catch, NA, 999, 999, 8, 2, 120, 195, 93, 162, 126, 69, 1, 0.310119
198, 3, wb, filler, NA, 999, 999, 8, 3, 58, 90, 127, 156, 166, 190, 1, 0.727191
198, 3, wb, filler, NA, 999, 999, 8, 3, 58, 90, 127, 156, 166, 190, 3, 0.34496
198, 3, wb, filler, NA, 999, 999, 8, 4, 140, 88, 166, 125, 85, 128, 3, 1.66488
198, 3, wb, filler, NA, 999, 999, 8, 4, 140, 88, 166, 125, 85, 128, 2, 0.309021
198, 3, wb, attraction, a-b-da, 2, 3, 8, 5, 193, 119, 120, 195, 195, 120, 1, 2.34213
198, 3, wb, attraction, a-b-da, 2, 3, 8, 5, 193, 119, 120, 195, 195, 120, 2, 0.302623
198, 3, wb, filler, NA, 999, 999, 8, 6, 96, 155, 161, 169, 126, 92, 3, 0.704534
198, 3, wb, filler, NA, 999, 999, 8, 6, 96, 155, 161, 169, 126, 92, 2, 0.675079
198, 3, wb, filler, NA, 999, 999, 8, 7, 161, 151, 62, 158, 112, 146, 2, 0.797399
198, 3, wb, filler, NA, 999, 999, 8, 7, 161, 151, 62, 158, 112, 146, 1, 0.316493
198, 3, wb, filler, NA, 999, 999, 8, 8, 183, 169, 130, 97, 157, 178, 2, 0.66955
198, 3, wb, filler, NA, 999, 999, 8, 8, 183, 169, 130, 97, 157, 178, 1, 0.337989
198, 3, wb, catch, NA, 999, 999, 8, 9, 124, 131, 127, 188, 125, 70, 3, 0.674489
198, 3, wb, catch, NA, 999, 999, 8, 9, 124, 131, 127, 188, 125, 70, 2, 0.310278
198, 3, wb, attraction, a-b-db, 14, 1, 8, 10, 60, 135, 56, 125, 135, 60, 2, 1.80752
198, 3, wb, attraction, a-b-db, 14, 1, 8, 10, 60, 135, 56, 125, 135, 60, 1, 0.813437
198, 3, wb, catch, NA, 999, 999, 8, 11, 115, 140, 67, 128, 122, 193, 2, 0.778633
198, 3, wb, catch, NA, 999, 999, 8, 11, 115, 140, 67, 128, 122, 193, 3, 0.378255
198, 3, wb, attraction, a-b-db, 9, 1, 8, 12, 57, 129, 135, 60, 60, 135, 3, 1.16069
198, 3, wb, attraction, a-b-db, 9, 1, 8, 12, 57, 129, 135, 60, 60, 135, 2, 0.369022
198, 3, wb, attraction, a-b-db, 2, 2, 8, 13, 90, 165, 89, 163, 165, 90, 2, 1.2242
198, 3, wb, attraction, a-b-db, 2, 2, 8, 13, 90, 165, 89, 163, 165, 90, 3, 0.693927
198, 3, wb, attraction, a-b-da, 5, 1, 8, 14, 60, 135, 135, 60, 132, 58, 1, 1.42348
198, 3, wb, attraction, a-b-da, 5, 1, 8, 14, 60, 135, 135, 60, 132, 58, 2, 0.701163
198, 3, wb, filler, NA, 999, 999, 8, 15, 115, 82, 136, 179, 97, 95, 3, 0.822902
198, 3, wb, filler, NA, 999, 999, 8, 15, 115, 82, 136, 179, 97, 95, 2, 0.700606
198, 3, wb, attraction, a-b-db, 5, 2, 8, 16, 88, 161, 90, 165, 165, 90, 2, 0.830294
198, 3, wb, attraction, a-b-db, 5, 2, 8, 16, 88, 161, 90, 165, 165, 90, 1, 0.387941
198, 3, wb, attraction, a-b-db, 9, 2, 8, 17, 86, 157, 90, 165, 165, 90, 2, 1.13036
198, 3, wb, attraction, a-b-db, 9, 2, 8, 17, 86, 157, 90, 165, 165, 90, 1, 0.340016
198, 3, wb, attraction, a-b-db, 14, 2, 8, 18, 165, 90, 83, 153, 90, 165, 2, 0.707811
198, 3, wb, attraction, a-b-db, 14, 2, 8, 18, 165, 90, 83, 153, 90, 165, 3, 0.342244
198, 3, wb, attraction, a-b-da, 9, 1, 8, 19, 60, 135, 129, 57, 135, 60, 2, 1.43801
198, 3, wb, attraction, a-b-da, 9, 1, 8, 19, 60, 135, 129, 57, 135, 60, 1, 0.523582
198, 3, wb, attraction, a-b-db, 14, 3, 8, 20, 195, 120, 120, 195, 111, 181, 2, 0.924118
198, 3, wb, attraction, a-b-db, 14, 3, 8, 20, 195, 120, 120, 195, 111, 181, 1, 0.581713
198, 3, wb, attraction, a-b-db, 5, 1, 8, 21, 58, 132, 60, 135, 135, 60, 2, 0.820324
198, 3, wb, attraction, a-b-db, 5, 1, 8, 21, 58, 132, 60, 135, 135, 60, 1, 0.442595
198, 3, wb, attraction, a-b-da, 5, 3, 8, 22, 195, 120, 120, 195, 190, 117, 2, 0.766367
198, 3, wb, attraction, a-b-da, 5, 3, 8, 22, 195, 120, 120, 195, 190, 117, 3, 0.678809
198, 3, wb, attraction, a-b-db, 2, 3, 8, 23, 119, 193, 195, 120, 120, 195, 2, 0.657204
198, 3, wb, attraction, a-b-db, 2, 3, 8, 23, 119, 193, 195, 120, 120, 195, 1, 0.333629
198, 3, wb, attraction, a-b-db, 5, 3, 8, 24, 120, 195, 117, 190, 195, 120, 2, 1.04614
198, 3, wb, attraction, a-b-db, 5, 3, 8, 24, 120, 195, 117, 190, 195, 120, 1, 0.41099
198, 3, wb, attraction, a-b-da, 2, 2, 8, 25, 165, 90, 163, 89, 90, 165, 2, 1.75222
198, 3, wb, attraction, a-b-da, 2, 2, 8, 25, 165, 90, 163, 89, 90, 165, 3, 1.01694
198, 3, wb, attraction, a-b-da, 9, 2, 8, 26, 90, 165, 165, 90, 157, 86, 2, 0.701885
198, 3, wb, attraction, a-b-da, 9, 2, 8, 26, 90, 165, 165, 90, 157, 86, 1, 0.672969
198, 3, wb, attraction, a-b-da, 5, 2, 8, 27, 161, 88, 90, 165, 165, 90, 2, 0.900224
198, 3, wb, attraction, a-b-da, 5, 2, 8, 27, 161, 88, 90, 165, 165, 90, 3, 0.591104
198, 3, wb, attraction, a-b-da, 9, 3, 8, 28, 186, 114, 195, 120, 120, 195, 2, 0.869027
198, 3, wb, attraction, a-b-da, 9, 3, 8, 28, 186, 114, 195, 120, 120, 195, 1, 0.721349
198, 3, wb, attraction, a-b-db, 9, 3, 8, 29, 114, 186, 120, 195, 195, 120, 1, 0.842368
198, 3, wb, attraction, a-b-db, 9, 3, 8, 29, 114, 186, 120, 195, 195, 120, 2, 0.311506
198, 3, wb, attraction, a-b-da, 14, 3, 8, 30, 181, 111, 195, 120, 120, 195, 1, 1.96844
198, 3, wb, attraction, a-b-da, 14, 3, 8, 30, 181, 111, 195, 120, 120, 195, 3, 0.320505
198, 3, wb, attraction, a-b-da, 14, 1, 8, 31, 60, 135, 125, 56, 135, 60, 2, 1.12165
198, 3, wb, attraction, a-b-da, 14, 1, 8, 31, 60, 135, 125, 56, 135, 60, 1, 0.339409
198, 3, wb, filler, NA, 999, 999, 8, 32, 157, 152, 194, 146, 166, 151, 2, 0.963885
198, 3, wb, filler, NA, 999, 999, 8, 32, 157, 152, 194, 146, 166, 151, 3, 0.940309
198, 3, wb, filler, NA, 999, 999, 8, 33, 62, 111, 61, 107, 99, 151, 2, 1.77194
198, 3, wb, filler, NA, 999, 999, 8, 33, 62, 111, 61, 107, 99, 151, 3, 0.339216
198, 3, wb, attraction, a-b-da, 2, 1, 8, 34, 60, 135, 135, 60, 134, 59, 2, 0.835708
198, 3, wb, attraction, a-b-da, 2, 1, 8, 34, 60, 135, 135, 60, 134, 59, 1, 0.321464
198, 3, wb, filler, NA, 999, 999, 8, 35, 190, 174, 178, 100, 178, 171, 2, 0.778655
198, 3, wb, filler, NA, 999, 999, 8, 35, 190, 174, 178, 100, 178, 171, 1, 0.306414
198, 3, wb, attraction, a-b-db, 2, 1, 8, 36, 59, 134, 60, 135, 135, 60, 2, 0.780292
198, 3, wb, attraction, a-b-db, 2, 1, 8, 36, 59, 134, 60, 135, 135, 60, 1, 0.563983
198, 3, wb, attraction, a-b-da, 14, 2, 8, 37, 90, 165, 153, 83, 165, 90, 2, 0.651068
198, 3, wb, attraction, a-b-da, 14, 2, 8, 37, 90, 165, 153, 83, 165, 90, 1, 0.320383
