sub_n, computer_n, bw_cond, effect, set, distance, diag, block_n, trial_n, h1, w1, h2, w2, h3, w3, choice, rt 
149, 3, bw, practice, NA, 999, 999, 0, 1, 74, 194, 59, 118, 160, 150, 3, 4.84344
149, 3, bw, practice, NA, 999, 999, 0, 1, 74, 194, 59, 118, 160, 150, 2, 1.30307
149, 3, bw, practice, NA, 999, 999, 0, 2, 89, 180, 108, 142, 60, 126, 1, 6.88366
149, 3, bw, practice, NA, 999, 999, 0, 2, 89, 180, 108, 142, 60, 126, 3, 1.01756
149, 3, bw, practice, NA, 999, 999, 0, 3, 195, 106, 107, 138, 162, 185, 3, 7.31121
149, 3, bw, practice, NA, 999, 999, 0, 3, 195, 106, 107, 138, 162, 185, 2, 1.05943
149, 3, bw, catch, NA, 999, 999, 1, 1, 155, 160, 142, 113, 135, 60, 1, 2.07448
149, 3, bw, catch, NA, 999, 999, 1, 1, 155, 160, 142, 113, 135, 60, 3, 1.15797
149, 3, bw, filler, NA, 999, 999, 1, 2, 156, 90, 179, 108, 56, 107, 2, 1.34069
149, 3, bw, filler, NA, 999, 999, 1, 2, 156, 90, 179, 108, 56, 107, 3, 0.629671
149, 3, bw, filler, NA, 999, 999, 1, 3, 170, 185, 161, 194, 65, 87, 2, 4.46605
149, 3, bw, filler, NA, 999, 999, 1, 3, 170, 185, 161, 194, 65, 87, 3, 0.837382
149, 3, bw, filler, NA, 999, 999, 1, 4, 195, 69, 78, 86, 81, 141, 1, 3.57763
149, 3, bw, filler, NA, 999, 999, 1, 4, 195, 69, 78, 86, 81, 141, 2, 1.20067
149, 3, bw, attraction, a-b-db, 2, 2, 1, 5, 89, 163, 165, 90, 90, 165, 2, 2.59014
149, 3, bw, attraction, a-b-db, 2, 2, 1, 5, 89, 163, 165, 90, 90, 165, 1, 1.02055
149, 3, bw, attraction, a-b-db, 14, 2, 1, 6, 165, 90, 90, 165, 83, 153, 2, 4.04159
149, 3, bw, attraction, a-b-db, 14, 2, 1, 6, 165, 90, 90, 165, 83, 153, 3, 1.36569
149, 3, bw, filler, NA, 999, 999, 1, 7, 90, 70, 180, 156, 121, 187, 2, 1.45249
149, 3, bw, filler, NA, 999, 999, 1, 7, 90, 70, 180, 156, 121, 187, 1, 0.585231
149, 3, bw, attraction, a-b-db, 2, 1, 1, 8, 60, 135, 59, 134, 135, 60, 3, 4.76774
149, 3, bw, attraction, a-b-db, 2, 1, 1, 8, 60, 135, 59, 134, 135, 60, 2, 0.494854
149, 3, bw, attraction, a-b-da, 5, 3, 1, 9, 120, 195, 190, 117, 195, 120, 1, 7.35265
149, 3, bw, attraction, a-b-da, 5, 3, 1, 9, 120, 195, 190, 117, 195, 120, 2, 1.07179
149, 3, bw, attraction, a-b-db, 2, 3, 1, 10, 195, 120, 119, 193, 120, 195, 2, 1.48259
149, 3, bw, attraction, a-b-db, 2, 3, 1, 10, 195, 120, 119, 193, 120, 195, 1, 0.582221
149, 3, bw, attraction, a-b-db, 14, 3, 1, 11, 120, 195, 195, 120, 111, 181, 1, 1.7886
149, 3, bw, attraction, a-b-db, 14, 3, 1, 11, 120, 195, 195, 120, 111, 181, 3, 1.44329
149, 3, bw, attraction, a-b-da, 14, 1, 1, 12, 135, 60, 125, 56, 60, 135, 1, 2.44684
149, 3, bw, attraction, a-b-da, 14, 1, 1, 12, 135, 60, 125, 56, 60, 135, 2, 1.93152
149, 3, bw, attraction, a-b-db, 5, 1, 1, 13, 60, 135, 135, 60, 58, 132, 2, 9.49133
149, 3, bw, attraction, a-b-db, 5, 1, 1, 13, 60, 135, 135, 60, 58, 132, 3, 0.69968
149, 3, bw, attraction, a-b-db, 9, 1, 1, 14, 60, 135, 135, 60, 57, 129, 2, 2.93346
149, 3, bw, attraction, a-b-db, 9, 1, 1, 14, 60, 135, 135, 60, 57, 129, 1, 0.990562
149, 3, bw, catch, NA, 999, 999, 1, 15, 146, 169, 129, 66, 133, 122, 1, 1.24409
149, 3, bw, catch, NA, 999, 999, 1, 15, 146, 169, 129, 66, 133, 122, 2, 0.913107
149, 3, bw, filler, NA, 999, 999, 1, 16, 188, 124, 175, 77, 59, 79, 1, 1.44996
149, 3, bw, filler, NA, 999, 999, 1, 16, 188, 124, 175, 77, 59, 79, 3, 0.678972
149, 3, bw, attraction, a-b-da, 14, 3, 1, 17, 195, 120, 120, 195, 181, 111, 2, 2.34533
149, 3, bw, attraction, a-b-da, 14, 3, 1, 17, 195, 120, 120, 195, 181, 111, 3, 0.71392
149, 3, bw, attraction, a-b-da, 5, 1, 1, 18, 132, 58, 135, 60, 60, 135, 2, 2.36305
149, 3, bw, attraction, a-b-da, 5, 1, 1, 18, 132, 58, 135, 60, 60, 135, 3, 0.658803
149, 3, bw, attraction, a-b-da, 9, 1, 1, 19, 129, 57, 135, 60, 60, 135, 2, 1.58187
149, 3, bw, attraction, a-b-da, 9, 1, 1, 19, 129, 57, 135, 60, 60, 135, 1, 0.965526
149, 3, bw, attraction, a-b-da, 2, 3, 1, 20, 195, 120, 120, 195, 193, 119, 2, 2.85237
149, 3, bw, attraction, a-b-da, 2, 3, 1, 20, 195, 120, 120, 195, 193, 119, 3, 1.19281
149, 3, bw, filler, NA, 999, 999, 1, 21, 139, 59, 116, 103, 74, 129, 2, 4.76637
149, 3, bw, filler, NA, 999, 999, 1, 21, 139, 59, 116, 103, 74, 129, 1, 1.90138
149, 3, bw, attraction, a-b-da, 2, 1, 1, 22, 60, 135, 135, 60, 134, 59, 2, 2.39878
149, 3, bw, attraction, a-b-da, 2, 1, 1, 22, 60, 135, 135, 60, 134, 59, 1, 0.693454
149, 3, bw, filler, NA, 999, 999, 1, 23, 170, 66, 141, 158, 64, 192, 2, 2.11104
149, 3, bw, filler, NA, 999, 999, 1, 23, 170, 66, 141, 158, 64, 192, 1, 0.865046
149, 3, bw, filler, NA, 999, 999, 1, 24, 57, 140, 169, 155, 118, 69, 2, 0.988129
149, 3, bw, filler, NA, 999, 999, 1, 24, 57, 140, 169, 155, 118, 69, 3, 1.22708
149, 3, bw, attraction, a-b-db, 9, 3, 1, 25, 120, 195, 114, 186, 195, 120, 1, 2.51125
149, 3, bw, attraction, a-b-db, 9, 3, 1, 25, 120, 195, 114, 186, 195, 120, 2, 0.745119
149, 3, bw, attraction, a-b-da, 9, 2, 1, 26, 157, 86, 90, 165, 165, 90, 2, 1.46481
149, 3, bw, attraction, a-b-da, 9, 2, 1, 26, 157, 86, 90, 165, 165, 90, 1, 1.66113
149, 3, bw, catch, NA, 999, 999, 1, 27, 115, 140, 128, 187, 78, 117, 2, 1.19175
149, 3, bw, catch, NA, 999, 999, 1, 27, 115, 140, 128, 187, 78, 117, 3, 0.646628
149, 3, bw, attraction, a-b-db, 14, 1, 1, 28, 56, 125, 60, 135, 135, 60, 3, 1.4105
149, 3, bw, attraction, a-b-db, 14, 1, 1, 28, 56, 125, 60, 135, 135, 60, 1, 1.0087
149, 3, bw, filler, NA, 999, 999, 1, 29, 121, 117, 118, 81, 156, 195, 3, 1.34167
149, 3, bw, filler, NA, 999, 999, 1, 29, 121, 117, 118, 81, 156, 195, 2, 1.5425
149, 3, bw, attraction, a-b-da, 9, 3, 1, 30, 195, 120, 120, 195, 186, 114, 2, 1.80588
149, 3, bw, attraction, a-b-da, 9, 3, 1, 30, 195, 120, 120, 195, 186, 114, 3, 0.539978
149, 3, bw, attraction, a-b-db, 9, 2, 1, 31, 86, 157, 90, 165, 165, 90, 2, 1.97175
149, 3, bw, attraction, a-b-db, 9, 2, 1, 31, 86, 157, 90, 165, 165, 90, 3, 1.13116
149, 3, bw, attraction, a-b-da, 5, 2, 1, 32, 161, 88, 90, 165, 165, 90, 2, 3.19546
149, 3, bw, attraction, a-b-da, 5, 2, 1, 32, 161, 88, 90, 165, 165, 90, 1, 1.56964
149, 3, bw, filler, NA, 999, 999, 1, 33, 140, 66, 131, 147, 180, 111, 3, 1.81646
149, 3, bw, filler, NA, 999, 999, 1, 33, 140, 66, 131, 147, 180, 111, 1, 1.21449
149, 3, bw, attraction, a-b-db, 5, 3, 1, 34, 117, 190, 120, 195, 195, 120, 3, 1.65944
149, 3, bw, attraction, a-b-db, 5, 3, 1, 34, 117, 190, 120, 195, 195, 120, 1, 2.38354
149, 3, bw, attraction, a-b-da, 14, 2, 1, 35, 90, 165, 153, 83, 165, 90, 1, 2.67744
149, 3, bw, attraction, a-b-da, 14, 2, 1, 35, 90, 165, 153, 83, 165, 90, 2, 0.424644
149, 3, bw, attraction, a-b-da, 2, 2, 1, 36, 163, 89, 90, 165, 165, 90, 2, 2.021
149, 3, bw, attraction, a-b-da, 2, 2, 1, 36, 163, 89, 90, 165, 165, 90, 1, 1.1632
149, 3, bw, attraction, a-b-db, 5, 2, 1, 37, 88, 161, 90, 165, 165, 90, 2, 1.96988
149, 3, bw, attraction, a-b-db, 5, 2, 1, 37, 88, 161, 90, 165, 165, 90, 3, 1.226
149, 3, bw, attraction, a-b-da, 5, 2, 2, 1, 165, 90, 90, 165, 161, 88, 2, 2.84627
149, 3, bw, attraction, a-b-da, 5, 2, 2, 1, 165, 90, 90, 165, 161, 88, 3, 2.33065
149, 3, bw, catch, NA, 999, 999, 2, 2, 145, 110, 61, 134, 189, 126, 3, 0.970521
149, 3, bw, catch, NA, 999, 999, 2, 2, 145, 110, 61, 134, 189, 126, 2, 0.690833
149, 3, bw, attraction, a-b-da, 14, 1, 2, 3, 60, 135, 135, 60, 125, 56, 2, 1.86068
149, 3, bw, attraction, a-b-da, 14, 1, 2, 3, 60, 135, 135, 60, 125, 56, 3, 0.888687
149, 3, bw, attraction, a-b-db, 5, 1, 2, 4, 60, 135, 58, 132, 135, 60, 3, 3.83498
149, 3, bw, attraction, a-b-db, 5, 1, 2, 4, 60, 135, 58, 132, 135, 60, 1, 0.655785
149, 3, bw, attraction, a-b-da, 2, 3, 2, 5, 193, 119, 120, 195, 195, 120, 2, 1.82768
149, 3, bw, attraction, a-b-da, 2, 3, 2, 5, 193, 119, 120, 195, 195, 120, 3, 0.840965
149, 3, bw, filler, NA, 999, 999, 2, 6, 154, 57, 150, 84, 154, 100, 3, 1.44457
149, 3, bw, filler, NA, 999, 999, 2, 6, 154, 57, 150, 84, 154, 100, 1, 0.769462
149, 3, bw, attraction, a-b-da, 9, 2, 2, 7, 165, 90, 157, 86, 90, 165, 3, 2.32042
149, 3, bw, attraction, a-b-da, 9, 2, 2, 7, 165, 90, 157, 86, 90, 165, 2, 1.3785
149, 3, bw, catch, NA, 999, 999, 2, 8, 147, 168, 88, 107, 116, 139, 1, 0.720531
149, 3, bw, catch, NA, 999, 999, 2, 8, 147, 168, 88, 107, 116, 139, 2, 1.11497
149, 3, bw, filler, NA, 999, 999, 2, 9, 58, 175, 166, 116, 184, 139, 3, 0.852041
149, 3, bw, filler, NA, 999, 999, 2, 9, 58, 175, 166, 116, 184, 139, 1, 0.496969
149, 3, bw, attraction, a-b-db, 9, 2, 2, 10, 165, 90, 90, 165, 86, 157, 2, 3.60286
149, 3, bw, attraction, a-b-db, 9, 2, 2, 10, 165, 90, 90, 165, 86, 157, 3, 0.59294
149, 3, bw, attraction, a-b-db, 2, 1, 2, 11, 60, 135, 59, 134, 135, 60, 3, 4.27863
149, 3, bw, attraction, a-b-db, 2, 1, 2, 11, 60, 135, 59, 134, 135, 60, 1, 0.617286
149, 3, bw, attraction, a-b-db, 9, 1, 2, 12, 57, 129, 135, 60, 60, 135, 3, 3.49428
149, 3, bw, attraction, a-b-db, 9, 1, 2, 12, 57, 129, 135, 60, 60, 135, 1, 0.40056
149, 3, bw, filler, NA, 999, 999, 2, 13, 137, 75, 169, 183, 190, 190, 3, 1.03846
149, 3, bw, filler, NA, 999, 999, 2, 13, 137, 75, 169, 183, 190, 190, 1, 0.7076
149, 3, bw, filler, NA, 999, 999, 2, 14, 190, 161, 194, 157, 191, 79, 1, 1.70049
149, 3, bw, filler, NA, 999, 999, 2, 14, 190, 161, 194, 157, 191, 79, 3, 0.631273
149, 3, bw, attraction, a-b-da, 5, 1, 2, 15, 135, 60, 132, 58, 60, 135, 1, 2.39558
149, 3, bw, attraction, a-b-da, 5, 1, 2, 15, 135, 60, 132, 58, 60, 135, 3, 0.802099
149, 3, bw, attraction, a-b-db, 14, 2, 2, 16, 83, 153, 90, 165, 165, 90, 3, 3.43983
149, 3, bw, attraction, a-b-db, 14, 2, 2, 16, 83, 153, 90, 165, 165, 90, 1, 1.69202
149, 3, bw, filler, NA, 999, 999, 2, 17, 132, 188, 166, 188, 136, 115, 2, 0.837475
149, 3, bw, filler, NA, 999, 999, 2, 17, 132, 188, 166, 188, 136, 115, 3, 1.0994
149, 3, bw, attraction, a-b-da, 2, 2, 2, 18, 90, 165, 165, 90, 163, 89, 1, 1.49279
149, 3, bw, attraction, a-b-da, 2, 2, 2, 18, 90, 165, 165, 90, 163, 89, 3, 0.83957
149, 3, bw, attraction, a-b-da, 14, 3, 2, 19, 181, 111, 120, 195, 195, 120, 2, 1.09209
149, 3, bw, attraction, a-b-da, 14, 3, 2, 19, 181, 111, 120, 195, 195, 120, 1, 0.982959
149, 3, bw, catch, NA, 999, 999, 2, 20, 194, 121, 117, 78, 150, 105, 1, 1.0373
149, 3, bw, catch, NA, 999, 999, 2, 20, 194, 121, 117, 78, 150, 105, 2, 0.986285
149, 3, bw, attraction, a-b-da, 5, 3, 2, 21, 195, 120, 120, 195, 190, 117, 2, 1.34475
149, 3, bw, attraction, a-b-da, 5, 3, 2, 21, 195, 120, 120, 195, 190, 117, 3, 0.417416
149, 3, bw, attraction, a-b-db, 9, 3, 2, 22, 114, 186, 120, 195, 195, 120, 2, 0.918642
149, 3, bw, attraction, a-b-db, 9, 3, 2, 22, 114, 186, 120, 195, 195, 120, 3, 0.464905
149, 3, bw, attraction, a-b-db, 2, 3, 2, 23, 119, 193, 120, 195, 195, 120, 2, 0.900158
149, 3, bw, attraction, a-b-db, 2, 3, 2, 23, 119, 193, 120, 195, 195, 120, 3, 0.695188
149, 3, bw, attraction, a-b-db, 14, 3, 2, 24, 195, 120, 111, 181, 120, 195, 3, 1.36889
149, 3, bw, attraction, a-b-db, 14, 3, 2, 24, 195, 120, 111, 181, 120, 195, 1, 0.576981
149, 3, bw, filler, NA, 999, 999, 2, 25, 69, 146, 79, 153, 150, 157, 3, 0.999453
149, 3, bw, filler, NA, 999, 999, 2, 25, 69, 146, 79, 153, 150, 157, 1, 0.566508
149, 3, bw, filler, NA, 999, 999, 2, 26, 120, 141, 86, 109, 193, 140, 3, 1.6856
149, 3, bw, filler, NA, 999, 999, 2, 26, 120, 141, 86, 109, 193, 140, 2, 0.624974
149, 3, bw, attraction, a-b-da, 9, 3, 2, 27, 186, 114, 195, 120, 120, 195, 3, 1.42939
149, 3, bw, attraction, a-b-da, 9, 3, 2, 27, 186, 114, 195, 120, 120, 195, 2, 0.763083
149, 3, bw, attraction, a-b-da, 14, 2, 2, 28, 153, 83, 165, 90, 90, 165, 2, 2.05001
149, 3, bw, attraction, a-b-da, 14, 2, 2, 28, 153, 83, 165, 90, 90, 165, 1, 0.918603
149, 3, bw, filler, NA, 999, 999, 2, 29, 194, 166, 62, 115, 79, 181, 1, 0.695638
149, 3, bw, filler, NA, 999, 999, 2, 29, 194, 166, 62, 115, 79, 181, 2, 0.650738
149, 3, bw, attraction, a-b-db, 5, 2, 2, 30, 88, 161, 165, 90, 90, 165, 3, 2.15048
149, 3, bw, attraction, a-b-db, 5, 2, 2, 30, 88, 161, 165, 90, 90, 165, 2, 0.815165
149, 3, bw, attraction, a-b-db, 14, 1, 2, 31, 56, 125, 135, 60, 60, 135, 3, 1.05216
149, 3, bw, attraction, a-b-db, 14, 1, 2, 31, 56, 125, 135, 60, 60, 135, 1, 0.681081
149, 3, bw, attraction, a-b-da, 2, 1, 2, 32, 135, 60, 60, 135, 134, 59, 3, 4.60345
149, 3, bw, attraction, a-b-da, 2, 1, 2, 32, 135, 60, 60, 135, 134, 59, 2, 0.353269
149, 3, bw, attraction, a-b-da, 9, 1, 2, 33, 129, 57, 135, 60, 60, 135, 2, 1.68929
149, 3, bw, attraction, a-b-da, 9, 1, 2, 33, 129, 57, 135, 60, 60, 135, 1, 0.779925
149, 3, bw, attraction, a-b-db, 2, 2, 2, 34, 90, 165, 165, 90, 89, 163, 1, 1.4503
149, 3, bw, attraction, a-b-db, 2, 2, 2, 34, 90, 165, 165, 90, 89, 163, 2, 0.60722
149, 3, bw, filler, NA, 999, 999, 2, 35, 103, 165, 118, 62, 60, 96, 1, 2.06827
149, 3, bw, filler, NA, 999, 999, 2, 35, 103, 165, 118, 62, 60, 96, 3, 0.480266
149, 3, bw, attraction, a-b-db, 5, 3, 2, 36, 195, 120, 117, 190, 120, 195, 2, 2.10683
149, 3, bw, attraction, a-b-db, 5, 3, 2, 36, 195, 120, 117, 190, 120, 195, 3, 0.556693
149, 3, bw, filler, NA, 999, 999, 2, 37, 145, 71, 179, 158, 86, 79, 2, 1.41178
149, 3, bw, filler, NA, 999, 999, 2, 37, 145, 71, 179, 158, 86, 79, 3, 0.85802
149, 3, bw, filler, NA, 999, 999, 3, 1, 114, 59, 86, 163, 177, 146, 3, 0.741053
149, 3, bw, filler, NA, 999, 999, 3, 1, 114, 59, 86, 163, 177, 146, 1, 0.542074
149, 3, bw, catch, NA, 999, 999, 3, 2, 175, 140, 115, 140, 76, 119, 1, 0.789966
149, 3, bw, catch, NA, 999, 999, 3, 2, 175, 140, 115, 140, 76, 119, 3, 0.660972
149, 3, bw, attraction, a-b-db, 5, 2, 3, 3, 90, 165, 165, 90, 88, 161, 1, 1.27997
149, 3, bw, attraction, a-b-db, 5, 2, 3, 3, 90, 165, 165, 90, 88, 161, 2, 0.475689
149, 3, bw, catch, NA, 999, 999, 3, 4, 60, 135, 147, 108, 176, 139, 3, 0.718058
149, 3, bw, catch, NA, 999, 999, 3, 4, 60, 135, 147, 108, 176, 139, 1, 0.824391
149, 3, bw, attraction, a-b-da, 5, 1, 3, 5, 135, 60, 132, 58, 60, 135, 2, 0.900862
149, 3, bw, attraction, a-b-da, 5, 1, 3, 5, 135, 60, 132, 58, 60, 135, 1, 0.647869
149, 3, bw, attraction, a-b-db, 2, 2, 3, 6, 90, 165, 165, 90, 89, 163, 2, 0.579565
149, 3, bw, attraction, a-b-db, 2, 2, 3, 6, 90, 165, 165, 90, 89, 163, 1, 0.811295
149, 3, bw, filler, NA, 999, 999, 3, 7, 149, 178, 169, 59, 56, 94, 1, 1.14427
149, 3, bw, filler, NA, 999, 999, 3, 7, 149, 178, 169, 59, 56, 94, 3, 0.625301
149, 3, bw, attraction, a-b-db, 9, 2, 3, 8, 86, 157, 90, 165, 165, 90, 2, 2.83775
149, 3, bw, attraction, a-b-db, 9, 2, 3, 8, 86, 157, 90, 165, 165, 90, 1, 0.954756
149, 3, bw, attraction, a-b-da, 2, 3, 3, 9, 195, 120, 120, 195, 193, 119, 2, 1.65043
149, 3, bw, attraction, a-b-da, 2, 3, 3, 9, 195, 120, 120, 195, 193, 119, 1, 0.303313
149, 3, bw, attraction, a-b-db, 14, 3, 3, 10, 195, 120, 120, 195, 111, 181, 2, 0.785055
149, 3, bw, attraction, a-b-db, 14, 3, 3, 10, 195, 120, 120, 195, 111, 181, 3, 0.832844
149, 3, bw, attraction, a-b-da, 14, 1, 3, 11, 60, 135, 125, 56, 135, 60, 3, 1.15713
149, 3, bw, attraction, a-b-da, 14, 1, 3, 11, 60, 135, 125, 56, 135, 60, 1, 0.301408
149, 3, bw, attraction, a-b-da, 5, 2, 3, 12, 90, 165, 165, 90, 161, 88, 1, 1.34331
149, 3, bw, attraction, a-b-da, 5, 2, 3, 12, 90, 165, 165, 90, 161, 88, 3, 0.616203
149, 3, bw, attraction, a-b-da, 2, 2, 3, 13, 163, 89, 90, 165, 165, 90, 2, 1.86131
149, 3, bw, attraction, a-b-da, 2, 2, 3, 13, 163, 89, 90, 165, 165, 90, 3, 0.593296
149, 3, bw, filler, NA, 999, 999, 3, 14, 86, 69, 129, 91, 156, 134, 3, 0.719112
149, 3, bw, filler, NA, 999, 999, 3, 14, 86, 69, 129, 91, 156, 134, 1, 0.889509
149, 3, bw, filler, NA, 999, 999, 3, 15, 131, 132, 65, 117, 194, 182, 3, 3.58791
149, 3, bw, filler, NA, 999, 999, 3, 15, 131, 132, 65, 117, 194, 182, 2, 0.858638
149, 3, bw, attraction, a-b-da, 9, 3, 3, 16, 186, 114, 195, 120, 120, 195, 2, 2.10979
149, 3, bw, attraction, a-b-da, 9, 3, 3, 16, 186, 114, 195, 120, 120, 195, 1, 0.479704
149, 3, bw, attraction, a-b-db, 5, 3, 3, 17, 195, 120, 117, 190, 120, 195, 2, 1.74618
149, 3, bw, attraction, a-b-db, 5, 3, 3, 17, 195, 120, 117, 190, 120, 195, 1, 0.426901
149, 3, bw, filler, NA, 999, 999, 3, 18, 78, 156, 100, 185, 190, 171, 3, 0.911393
149, 3, bw, filler, NA, 999, 999, 3, 18, 78, 156, 100, 185, 190, 171, 1, 0.449742
149, 3, bw, attraction, a-b-da, 2, 1, 3, 19, 135, 60, 60, 135, 134, 59, 2, 0.949437
149, 3, bw, attraction, a-b-da, 2, 1, 3, 19, 135, 60, 60, 135, 134, 59, 1, 0.686486
149, 3, bw, attraction, a-b-db, 14, 1, 3, 20, 56, 125, 135, 60, 60, 135, 2, 0.872845
149, 3, bw, attraction, a-b-db, 14, 1, 3, 20, 56, 125, 135, 60, 60, 135, 3, 0.740661
149, 3, bw, attraction, a-b-da, 14, 2, 3, 21, 153, 83, 165, 90, 90, 165, 3, 1.28442
149, 3, bw, attraction, a-b-da, 14, 2, 3, 21, 153, 83, 165, 90, 90, 165, 1, 0.495918
149, 3, bw, attraction, a-b-da, 9, 1, 3, 22, 135, 60, 129, 57, 60, 135, 2, 2.12174
149, 3, bw, attraction, a-b-da, 9, 1, 3, 22, 135, 60, 129, 57, 60, 135, 1, 0.674983
149, 3, bw, attraction, a-b-db, 2, 1, 3, 23, 135, 60, 60, 135, 59, 134, 2, 0.669339
149, 3, bw, attraction, a-b-db, 2, 1, 3, 23, 135, 60, 60, 135, 59, 134, 1, 0.529739
149, 3, bw, filler, NA, 999, 999, 3, 24, 156, 98, 67, 97, 74, 191, 1, 2.10623
149, 3, bw, filler, NA, 999, 999, 3, 24, 156, 98, 67, 97, 74, 191, 2, 0.532232
149, 3, bw, catch, NA, 999, 999, 3, 25, 183, 132, 108, 87, 163, 92, 1, 0.924653
149, 3, bw, catch, NA, 999, 999, 3, 25, 183, 132, 108, 87, 163, 92, 2, 0.686423
149, 3, bw, attraction, a-b-db, 14, 2, 3, 26, 165, 90, 83, 153, 90, 165, 3, 1.7367
149, 3, bw, attraction, a-b-db, 14, 2, 3, 26, 165, 90, 83, 153, 90, 165, 1, 0.562361
149, 3, bw, attraction, a-b-db, 9, 3, 3, 27, 195, 120, 120, 195, 114, 186, 1, 0.977255
149, 3, bw, attraction, a-b-db, 9, 3, 3, 27, 195, 120, 120, 195, 114, 186, 3, 1.35303
149, 3, bw, attraction, a-b-da, 5, 3, 3, 28, 120, 195, 190, 117, 195, 120, 1, 1.04049
149, 3, bw, attraction, a-b-da, 5, 3, 3, 28, 120, 195, 190, 117, 195, 120, 2, 1.74952
149, 3, bw, attraction, a-b-db, 5, 1, 3, 29, 58, 132, 60, 135, 135, 60, 1, 0.708824
149, 3, bw, attraction, a-b-db, 5, 1, 3, 29, 58, 132, 60, 135, 135, 60, 3, 1.44728
149, 3, bw, attraction, a-b-da, 9, 2, 3, 30, 90, 165, 165, 90, 157, 86, 2, 0.898705
149, 3, bw, attraction, a-b-da, 9, 2, 3, 30, 90, 165, 165, 90, 157, 86, 3, 1.00576
149, 3, bw, filler, NA, 999, 999, 3, 31, 58, 124, 129, 182, 139, 66, 2, 0.627445
149, 3, bw, filler, NA, 999, 999, 3, 31, 58, 124, 129, 182, 139, 66, 1, 0.513152
149, 3, bw, filler, NA, 999, 999, 3, 32, 168, 147, 85, 133, 126, 72, 1, 0.962685
149, 3, bw, filler, NA, 999, 999, 3, 32, 168, 147, 85, 133, 126, 72, 3, 1.21073
149, 3, bw, filler, NA, 999, 999, 3, 33, 108, 97, 104, 124, 175, 145, 3, 1.57555
149, 3, bw, filler, NA, 999, 999, 3, 33, 108, 97, 104, 124, 175, 145, 1, 0.750964
149, 3, bw, attraction, a-b-db, 2, 3, 3, 34, 195, 120, 119, 193, 120, 195, 1, 1.08682
149, 3, bw, attraction, a-b-db, 2, 3, 3, 34, 195, 120, 119, 193, 120, 195, 2, 0.41839
149, 3, bw, attraction, a-b-db, 9, 1, 3, 35, 135, 60, 60, 135, 57, 129, 2, 0.615421
149, 3, bw, attraction, a-b-db, 9, 1, 3, 35, 135, 60, 60, 135, 57, 129, 3, 1.08597
149, 3, bw, filler, NA, 999, 999, 3, 36, 74, 139, 141, 164, 163, 90, 2, 0.80022
149, 3, bw, filler, NA, 999, 999, 3, 36, 74, 139, 141, 164, 163, 90, 1, 0.535424
149, 3, bw, attraction, a-b-da, 14, 3, 3, 37, 195, 120, 181, 111, 120, 195, 2, 0.863903
149, 3, bw, attraction, a-b-da, 14, 3, 3, 37, 195, 120, 181, 111, 120, 195, 1, 0.356032
149, 3, bw, attraction, a-b-db, 2, 3, 4, 1, 119, 193, 120, 195, 195, 120, 2, 0.635866
149, 3, bw, attraction, a-b-db, 2, 3, 4, 1, 119, 193, 120, 195, 195, 120, 1, 0.817744
149, 3, bw, filler, NA, 999, 999, 4, 2, 95, 170, 184, 137, 150, 131, 2, 1.61471
149, 3, bw, filler, NA, 999, 999, 4, 2, 95, 170, 184, 137, 150, 131, 1, 0.620792
149, 3, bw, attraction, a-b-da, 2, 1, 4, 3, 134, 59, 135, 60, 60, 135, 1, 1.44201
149, 3, bw, attraction, a-b-da, 2, 1, 4, 3, 134, 59, 135, 60, 60, 135, 3, 0.838843
149, 3, bw, attraction, a-b-db, 14, 1, 4, 4, 56, 125, 60, 135, 135, 60, 3, 1.70718
149, 3, bw, attraction, a-b-db, 14, 1, 4, 4, 56, 125, 60, 135, 135, 60, 1, 0.549253
149, 3, bw, attraction, a-b-da, 2, 2, 4, 5, 165, 90, 90, 165, 163, 89, 1, 1.59698
149, 3, bw, attraction, a-b-da, 2, 2, 4, 5, 165, 90, 90, 165, 163, 89, 3, 0.579868
149, 3, bw, attraction, a-b-da, 5, 1, 4, 6, 60, 135, 132, 58, 135, 60, 1, 1.12226
149, 3, bw, attraction, a-b-da, 5, 1, 4, 6, 60, 135, 132, 58, 135, 60, 2, 0.428017
149, 3, bw, attraction, a-b-da, 9, 3, 4, 7, 195, 120, 120, 195, 186, 114, 2, 1.9124
149, 3, bw, attraction, a-b-da, 9, 3, 4, 7, 195, 120, 120, 195, 186, 114, 3, 0.562346
149, 3, bw, filler, NA, 999, 999, 4, 8, 86, 178, 110, 91, 181, 115, 3, 0.881413
149, 3, bw, filler, NA, 999, 999, 4, 8, 86, 178, 110, 91, 181, 115, 2, 0.789176
149, 3, bw, filler, NA, 999, 999, 4, 9, 150, 105, 71, 102, 78, 57, 1, 0.675595
149, 3, bw, filler, NA, 999, 999, 4, 9, 150, 105, 71, 102, 78, 57, 3, 0.407428
149, 3, bw, catch, NA, 999, 999, 4, 10, 155, 160, 118, 137, 94, 101, 1, 0.748493
149, 3, bw, catch, NA, 999, 999, 4, 10, 155, 160, 118, 137, 94, 101, 3, 0.613558
149, 3, bw, attraction, a-b-db, 9, 1, 4, 11, 57, 129, 60, 135, 135, 60, 1, 0.698649
149, 3, bw, attraction, a-b-db, 9, 1, 4, 11, 57, 129, 60, 135, 135, 60, 2, 0.373748
149, 3, bw, attraction, a-b-da, 14, 3, 4, 12, 195, 120, 120, 195, 181, 111, 2, 1.04426
149, 3, bw, attraction, a-b-da, 14, 3, 4, 12, 195, 120, 120, 195, 181, 111, 3, 0.601193
149, 3, bw, attraction, a-b-da, 9, 2, 4, 13, 157, 86, 165, 90, 90, 165, 3, 1.61514
149, 3, bw, attraction, a-b-da, 9, 2, 4, 13, 157, 86, 165, 90, 90, 165, 1, 0.797209
149, 3, bw, attraction, a-b-db, 5, 1, 4, 14, 135, 60, 58, 132, 60, 135, 2, 1.49872
149, 3, bw, attraction, a-b-db, 5, 1, 4, 14, 135, 60, 58, 132, 60, 135, 1, 0.525635
149, 3, bw, attraction, a-b-db, 9, 2, 4, 15, 90, 165, 165, 90, 86, 157, 2, 0.894193
149, 3, bw, attraction, a-b-db, 9, 2, 4, 15, 90, 165, 165, 90, 86, 157, 3, 0.545088
149, 3, bw, attraction, a-b-da, 14, 2, 4, 16, 153, 83, 90, 165, 165, 90, 2, 0.632858
149, 3, bw, attraction, a-b-da, 14, 2, 4, 16, 153, 83, 90, 165, 165, 90, 1, 0.422606
149, 3, bw, attraction, a-b-da, 5, 2, 4, 17, 161, 88, 165, 90, 90, 165, 2, 0.795805
149, 3, bw, attraction, a-b-da, 5, 2, 4, 17, 161, 88, 165, 90, 90, 165, 3, 0.634808
149, 3, bw, attraction, a-b-db, 2, 2, 4, 18, 90, 165, 165, 90, 89, 163, 2, 0.591246
149, 3, bw, attraction, a-b-db, 2, 2, 4, 18, 90, 165, 165, 90, 89, 163, 1, 0.526404
149, 3, bw, filler, NA, 999, 999, 4, 19, 117, 135, 147, 130, 170, 66, 2, 1.1348
149, 3, bw, filler, NA, 999, 999, 4, 19, 117, 135, 147, 130, 170, 66, 3, 0.848483
149, 3, bw, filler, NA, 999, 999, 4, 20, 124, 140, 61, 77, 180, 191, 3, 1.0042
149, 3, bw, filler, NA, 999, 999, 4, 20, 124, 140, 61, 77, 180, 191, 2, 0.618484
149, 3, bw, attraction, a-b-db, 14, 3, 4, 21, 120, 195, 111, 181, 195, 120, 2, 1.03151
149, 3, bw, attraction, a-b-db, 14, 3, 4, 21, 120, 195, 111, 181, 195, 120, 1, 0.405205
149, 3, bw, catch, NA, 999, 999, 4, 22, 109, 86, 184, 131, 148, 107, 2, 1.15497
149, 3, bw, catch, NA, 999, 999, 4, 22, 109, 86, 184, 131, 148, 107, 1, 0.779289
149, 3, bw, filler, NA, 999, 999, 4, 23, 172, 148, 187, 109, 157, 161, 1, 1.61763
149, 3, bw, filler, NA, 999, 999, 4, 23, 172, 148, 187, 109, 157, 161, 2, 0.823698
149, 3, bw, filler, NA, 999, 999, 4, 24, 135, 188, 180, 156, 59, 194, 2, 1.24408
149, 3, bw, filler, NA, 999, 999, 4, 24, 135, 188, 180, 156, 59, 194, 3, 1.04906
149, 3, bw, catch, NA, 999, 999, 4, 25, 82, 113, 128, 127, 163, 152, 3, 1.49252
149, 3, bw, catch, NA, 999, 999, 4, 25, 82, 113, 128, 127, 163, 152, 1, 0.647369
149, 3, bw, attraction, a-b-da, 2, 3, 4, 26, 193, 119, 195, 120, 120, 195, 2, 2.26733
149, 3, bw, attraction, a-b-da, 2, 3, 4, 26, 193, 119, 195, 120, 120, 195, 3, 0.399109
149, 3, bw, attraction, a-b-da, 14, 1, 4, 27, 135, 60, 125, 56, 60, 135, 3, 2.10894
149, 3, bw, attraction, a-b-da, 14, 1, 4, 27, 135, 60, 125, 56, 60, 135, 2, 0.750971
149, 3, bw, attraction, a-b-db, 5, 3, 4, 28, 120, 195, 195, 120, 117, 190, 2, 0.942645
149, 3, bw, attraction, a-b-db, 5, 3, 4, 28, 120, 195, 195, 120, 117, 190, 1, 0.359629
149, 3, bw, attraction, a-b-db, 5, 2, 4, 29, 165, 90, 88, 161, 90, 165, 2, 1.11074
149, 3, bw, attraction, a-b-db, 5, 2, 4, 29, 165, 90, 88, 161, 90, 165, 1, 0.337093
149, 3, bw, attraction, a-b-db, 2, 1, 4, 30, 60, 135, 135, 60, 59, 134, 2, 0.61752
149, 3, bw, attraction, a-b-db, 2, 1, 4, 30, 60, 135, 135, 60, 59, 134, 3, 0.464018
149, 3, bw, attraction, a-b-db, 14, 2, 4, 31, 83, 153, 90, 165, 165, 90, 2, 0.483182
149, 3, bw, attraction, a-b-db, 14, 2, 4, 31, 83, 153, 90, 165, 165, 90, 3, 0.399063
149, 3, bw, filler, NA, 999, 999, 4, 32, 63, 183, 152, 110, 99, 151, 3, 1.73278
149, 3, bw, filler, NA, 999, 999, 4, 32, 63, 183, 152, 110, 99, 151, 1, 0.470226
149, 3, bw, filler, NA, 999, 999, 4, 33, 102, 147, 193, 77, 100, 75, 1, 0.897331
149, 3, bw, filler, NA, 999, 999, 4, 33, 102, 147, 193, 77, 100, 75, 3, 0.420401
149, 3, bw, attraction, a-b-da, 9, 1, 4, 34, 60, 135, 129, 57, 135, 60, 3, 0.985489
149, 3, bw, attraction, a-b-da, 9, 1, 4, 34, 60, 135, 129, 57, 135, 60, 1, 0.417118
149, 3, bw, attraction, a-b-da, 5, 3, 4, 35, 120, 195, 190, 117, 195, 120, 2, 0.726347
149, 3, bw, attraction, a-b-da, 5, 3, 4, 35, 120, 195, 190, 117, 195, 120, 1, 0.408169
149, 3, bw, filler, NA, 999, 999, 4, 36, 134, 71, 60, 159, 64, 56, 2, 1.38919
149, 3, bw, filler, NA, 999, 999, 4, 36, 134, 71, 60, 159, 64, 56, 3, 0.700164
149, 3, bw, attraction, a-b-db, 9, 3, 4, 37, 195, 120, 120, 195, 114, 186, 3, 0.885844
149, 3, bw, attraction, a-b-db, 9, 3, 4, 37, 195, 120, 120, 195, 114, 186, 1, 0.433514
149, 3, bw, attraction, a-b-da, 5, 2, 5, 1, 161, 88, 165, 90, 90, 165, 3, 10.4366
149, 3, bw, attraction, a-b-da, 5, 2, 5, 1, 161, 88, 165, 90, 90, 165, 1, 0.9431
149, 3, bw, attraction, a-b-da, 2, 1, 5, 2, 135, 60, 134, 59, 60, 135, 2, 3.07906
149, 3, bw, attraction, a-b-da, 2, 1, 5, 2, 135, 60, 134, 59, 60, 135, 1, 0.410088
149, 3, bw, filler, NA, 999, 999, 5, 3, 102, 177, 186, 160, 102, 146, 2, 1.00722
149, 3, bw, filler, NA, 999, 999, 5, 3, 102, 177, 186, 160, 102, 146, 3, 0.517462
149, 3, bw, catch, NA, 999, 999, 5, 4, 138, 177, 103, 152, 75, 120, 1, 1.32663
149, 3, bw, catch, NA, 999, 999, 5, 4, 138, 177, 103, 152, 75, 120, 3, 0.808202
149, 3, bw, attraction, a-b-db, 9, 3, 5, 5, 120, 195, 195, 120, 114, 186, 2, 1.12516
149, 3, bw, attraction, a-b-db, 9, 3, 5, 5, 120, 195, 195, 120, 114, 186, 1, 0.34288
149, 3, bw, filler, NA, 999, 999, 5, 6, 101, 64, 153, 79, 87, 65, 2, 0.694577
149, 3, bw, filler, NA, 999, 999, 5, 6, 101, 64, 153, 79, 87, 65, 3, 1.2417
149, 3, bw, attraction, a-b-da, 2, 3, 5, 7, 193, 119, 120, 195, 195, 120, 2, 0.549258
149, 3, bw, attraction, a-b-da, 2, 3, 5, 7, 193, 119, 120, 195, 195, 120, 1, 0.5184
149, 3, bw, attraction, a-b-da, 9, 3, 5, 8, 186, 114, 195, 120, 120, 195, 3, 0.807631
149, 3, bw, attraction, a-b-da, 9, 3, 5, 8, 186, 114, 195, 120, 120, 195, 1, 0.309875
149, 3, bw, attraction, a-b-da, 5, 1, 5, 9, 60, 135, 132, 58, 135, 60, 2, 0.935223
149, 3, bw, attraction, a-b-da, 5, 1, 5, 9, 60, 135, 132, 58, 135, 60, 3, 0.296717
149, 3, bw, filler, NA, 999, 999, 5, 10, 117, 140, 172, 104, 194, 63, 2, 1.81059
149, 3, bw, filler, NA, 999, 999, 5, 10, 117, 140, 172, 104, 194, 63, 3, 0.480708
149, 3, bw, attraction, a-b-db, 9, 2, 5, 11, 90, 165, 165, 90, 86, 157, 2, 0.571128
149, 3, bw, attraction, a-b-db, 9, 2, 5, 11, 90, 165, 165, 90, 86, 157, 1, 0.339554
149, 3, bw, attraction, a-b-db, 14, 3, 5, 12, 120, 195, 195, 120, 111, 181, 2, 0.676109
149, 3, bw, attraction, a-b-db, 14, 3, 5, 12, 120, 195, 195, 120, 111, 181, 3, 0.303792
149, 3, bw, attraction, a-b-da, 5, 3, 5, 13, 190, 117, 120, 195, 195, 120, 2, 0.49776
149, 3, bw, attraction, a-b-da, 5, 3, 5, 13, 190, 117, 120, 195, 195, 120, 1, 0.340822
149, 3, bw, attraction, a-b-da, 14, 2, 5, 14, 90, 165, 165, 90, 153, 83, 2, 0.61279
149, 3, bw, attraction, a-b-da, 14, 2, 5, 14, 90, 165, 165, 90, 153, 83, 3, 0.331149
149, 3, bw, attraction, a-b-da, 9, 1, 5, 15, 129, 57, 60, 135, 135, 60, 2, 1.47567
149, 3, bw, attraction, a-b-da, 9, 1, 5, 15, 129, 57, 60, 135, 135, 60, 1, 0.511194
149, 3, bw, attraction, a-b-da, 9, 2, 5, 16, 165, 90, 90, 165, 157, 86, 2, 0.504307
149, 3, bw, attraction, a-b-da, 9, 2, 5, 16, 165, 90, 90, 165, 157, 86, 3, 0.387485
149, 3, bw, attraction, a-b-db, 2, 3, 5, 17, 195, 120, 119, 193, 120, 195, 2, 0.753995
149, 3, bw, attraction, a-b-db, 2, 3, 5, 17, 195, 120, 119, 193, 120, 195, 1, 0.354967
149, 3, bw, attraction, a-b-da, 2, 2, 5, 18, 163, 89, 90, 165, 165, 90, 2, 0.75473
149, 3, bw, attraction, a-b-da, 2, 2, 5, 18, 163, 89, 90, 165, 165, 90, 3, 0.307945
149, 3, bw, attraction, a-b-db, 9, 1, 5, 19, 60, 135, 57, 129, 135, 60, 2, 0.605063
149, 3, bw, attraction, a-b-db, 9, 1, 5, 19, 60, 135, 57, 129, 135, 60, 1, 0.411525
149, 3, bw, attraction, a-b-da, 14, 1, 5, 20, 125, 56, 135, 60, 60, 135, 2, 0.592606
149, 3, bw, attraction, a-b-da, 14, 1, 5, 20, 125, 56, 135, 60, 60, 135, 3, 0.335876
149, 3, bw, attraction, a-b-db, 14, 1, 5, 21, 56, 125, 135, 60, 60, 135, 2, 0.560319
149, 3, bw, attraction, a-b-db, 14, 1, 5, 21, 56, 125, 135, 60, 60, 135, 1, 0.472775
149, 3, bw, attraction, a-b-db, 5, 2, 5, 22, 90, 165, 165, 90, 88, 161, 2, 0.923916
149, 3, bw, attraction, a-b-db, 5, 2, 5, 22, 90, 165, 165, 90, 88, 161, 3, 0.277584
149, 3, bw, catch, NA, 999, 999, 5, 23, 182, 133, 91, 104, 157, 98, 1, 0.912123
149, 3, bw, catch, NA, 999, 999, 5, 23, 182, 133, 91, 104, 157, 98, 2, 0.578472
149, 3, bw, catch, NA, 999, 999, 5, 24, 124, 71, 130, 185, 147, 108, 2, 2.36086
149, 3, bw, catch, NA, 999, 999, 5, 24, 124, 71, 130, 185, 147, 108, 1, 0.504785
149, 3, bw, attraction, a-b-db, 2, 2, 5, 25, 90, 165, 89, 163, 165, 90, 2, 0.642586
149, 3, bw, attraction, a-b-db, 2, 2, 5, 25, 90, 165, 89, 163, 165, 90, 3, 0.351623
149, 3, bw, attraction, a-b-db, 2, 1, 5, 26, 60, 135, 135, 60, 59, 134, 2, 0.575674
149, 3, bw, attraction, a-b-db, 2, 1, 5, 26, 60, 135, 135, 60, 59, 134, 1, 0.383392
149, 3, bw, filler, NA, 999, 999, 5, 27, 177, 66, 183, 65, 168, 87, 3, 1.26992
149, 3, bw, filler, NA, 999, 999, 5, 27, 177, 66, 183, 65, 168, 87, 2, 0.56215
149, 3, bw, filler, NA, 999, 999, 5, 28, 137, 138, 152, 163, 131, 147, 2, 0.993141
149, 3, bw, filler, NA, 999, 999, 5, 28, 137, 138, 152, 163, 131, 147, 1, 0.464128
149, 3, bw, filler, NA, 999, 999, 5, 29, 89, 156, 70, 189, 85, 158, 3, 1.18716
149, 3, bw, filler, NA, 999, 999, 5, 29, 89, 156, 70, 189, 85, 158, 2, 0.522871
149, 3, bw, filler, NA, 999, 999, 5, 30, 160, 163, 152, 138, 114, 176, 1, 3.45217
149, 3, bw, filler, NA, 999, 999, 5, 30, 160, 163, 152, 138, 114, 176, 2, 0.464123
149, 3, bw, filler, NA, 999, 999, 5, 31, 113, 103, 73, 184, 98, 170, 3, 1.95532
149, 3, bw, filler, NA, 999, 999, 5, 31, 113, 103, 73, 184, 98, 170, 1, 0.571335
149, 3, bw, attraction, a-b-db, 14, 2, 5, 32, 83, 153, 90, 165, 165, 90, 2, 1.68247
149, 3, bw, attraction, a-b-db, 14, 2, 5, 32, 83, 153, 90, 165, 165, 90, 1, 0.733914
149, 3, bw, attraction, a-b-db, 5, 3, 5, 33, 195, 120, 117, 190, 120, 195, 1, 1.36627
149, 3, bw, attraction, a-b-db, 5, 3, 5, 33, 195, 120, 117, 190, 120, 195, 3, 0.502577
149, 3, bw, filler, NA, 999, 999, 5, 34, 105, 154, 80, 78, 84, 117, 1, 0.848273
149, 3, bw, filler, NA, 999, 999, 5, 34, 105, 154, 80, 78, 84, 117, 2, 0.565329
149, 3, bw, attraction, a-b-da, 14, 3, 5, 35, 181, 111, 120, 195, 195, 120, 2, 2.77253
149, 3, bw, attraction, a-b-da, 14, 3, 5, 35, 181, 111, 120, 195, 195, 120, 1, 1.30761
149, 3, bw, filler, NA, 999, 999, 5, 36, 150, 77, 151, 172, 79, 84, 2, 1.42849
149, 3, bw, filler, NA, 999, 999, 5, 36, 150, 77, 151, 172, 79, 84, 3, 0.505865
149, 3, bw, attraction, a-b-db, 5, 1, 5, 37, 135, 60, 58, 132, 60, 135, 1, 1.63569
149, 3, bw, attraction, a-b-db, 5, 1, 5, 37, 135, 60, 58, 132, 60, 135, 2, 0.449222
149, 3, bw, filler, NA, 999, 999, 6, 1, 159, 165, 174, 67, 101, 85, 1, 0.668863
149, 3, bw, filler, NA, 999, 999, 6, 1, 159, 165, 174, 67, 101, 85, 3, 0.665536
149, 3, bw, attraction, a-b-db, 2, 2, 6, 2, 165, 90, 90, 165, 89, 163, 2, 1.66046
149, 3, bw, attraction, a-b-db, 2, 2, 6, 2, 165, 90, 90, 165, 89, 163, 1, 0.368582
149, 3, bw, attraction, a-b-da, 2, 2, 6, 3, 163, 89, 90, 165, 165, 90, 2, 0.855749
149, 3, bw, attraction, a-b-da, 2, 2, 6, 3, 163, 89, 90, 165, 165, 90, 3, 0.564028
149, 3, bw, filler, NA, 999, 999, 6, 4, 62, 190, 147, 117, 80, 85, 2, 1.15532
149, 3, bw, filler, NA, 999, 999, 6, 4, 62, 190, 147, 117, 80, 85, 3, 0.323462
149, 3, bw, attraction, a-b-db, 14, 3, 6, 5, 120, 195, 195, 120, 111, 181, 2, 0.675961
149, 3, bw, attraction, a-b-db, 14, 3, 6, 5, 120, 195, 195, 120, 111, 181, 1, 0.919768
149, 3, bw, attraction, a-b-da, 9, 3, 6, 6, 120, 195, 195, 120, 186, 114, 1, 1.52069
149, 3, bw, attraction, a-b-da, 9, 3, 6, 6, 120, 195, 195, 120, 186, 114, 3, 0.73096
149, 3, bw, catch, NA, 999, 999, 6, 7, 105, 90, 150, 165, 136, 119, 2, 1.33926
149, 3, bw, catch, NA, 999, 999, 6, 7, 105, 90, 150, 165, 136, 119, 1, 0.484142
149, 3, bw, attraction, a-b-da, 2, 1, 6, 8, 134, 59, 60, 135, 135, 60, 2, 0.750707
149, 3, bw, attraction, a-b-da, 2, 1, 6, 8, 134, 59, 60, 135, 135, 60, 3, 0.487829
149, 3, bw, attraction, a-b-da, 14, 2, 6, 9, 165, 90, 90, 165, 153, 83, 2, 0.506121
149, 3, bw, attraction, a-b-da, 14, 2, 6, 9, 165, 90, 90, 165, 153, 83, 1, 0.380725
149, 3, bw, attraction, a-b-db, 9, 2, 6, 10, 165, 90, 86, 157, 90, 165, 2, 0.611129
149, 3, bw, attraction, a-b-db, 9, 2, 6, 10, 165, 90, 86, 157, 90, 165, 3, 0.353553
149, 3, bw, attraction, a-b-db, 2, 1, 6, 11, 59, 134, 135, 60, 60, 135, 3, 0.745426
149, 3, bw, attraction, a-b-db, 2, 1, 6, 11, 59, 134, 135, 60, 60, 135, 1, 0.330491
149, 3, bw, attraction, a-b-db, 9, 1, 6, 12, 60, 135, 57, 129, 135, 60, 2, 0.523011
149, 3, bw, attraction, a-b-db, 9, 1, 6, 12, 60, 135, 57, 129, 135, 60, 3, 0.340925
149, 3, bw, filler, NA, 999, 999, 6, 13, 153, 132, 83, 68, 85, 95, 1, 0.740668
149, 3, bw, filler, NA, 999, 999, 6, 13, 153, 132, 83, 68, 85, 95, 2, 0.533683
149, 3, bw, filler, NA, 999, 999, 6, 14, 182, 93, 174, 194, 131, 132, 2, 1.26222
149, 3, bw, filler, NA, 999, 999, 6, 14, 182, 93, 174, 194, 131, 132, 3, 0.322504
149, 3, bw, filler, NA, 999, 999, 6, 15, 58, 103, 117, 114, 102, 192, 3, 0.875648
149, 3, bw, filler, NA, 999, 999, 6, 15, 58, 103, 117, 114, 102, 192, 1, 0.455224
149, 3, bw, attraction, a-b-db, 9, 3, 6, 16, 195, 120, 120, 195, 114, 186, 2, 0.507042
149, 3, bw, attraction, a-b-db, 9, 3, 6, 16, 195, 120, 120, 195, 114, 186, 1, 0.437558
149, 3, bw, filler, NA, 999, 999, 6, 17, 153, 107, 71, 143, 100, 57, 1, 0.857965
149, 3, bw, filler, NA, 999, 999, 6, 17, 153, 107, 71, 143, 100, 57, 3, 0.918522
149, 3, bw, attraction, a-b-da, 5, 1, 6, 18, 135, 60, 132, 58, 60, 135, 3, 0.631563
149, 3, bw, attraction, a-b-da, 5, 1, 6, 18, 135, 60, 132, 58, 60, 135, 1, 0.405218
149, 3, bw, attraction, a-b-da, 14, 3, 6, 19, 181, 111, 120, 195, 195, 120, 2, 0.643085
149, 3, bw, attraction, a-b-da, 14, 3, 6, 19, 181, 111, 120, 195, 195, 120, 1, 0.320186
149, 3, bw, attraction, a-b-da, 5, 2, 6, 20, 165, 90, 161, 88, 90, 165, 3, 0.993302
149, 3, bw, attraction, a-b-da, 5, 2, 6, 20, 165, 90, 161, 88, 90, 165, 2, 0.616293
149, 3, bw, attraction, a-b-db, 5, 1, 6, 21, 58, 132, 135, 60, 60, 135, 2, 0.797407
149, 3, bw, attraction, a-b-db, 5, 1, 6, 21, 58, 132, 135, 60, 60, 135, 1, 0.332299
149, 3, bw, attraction, a-b-db, 5, 3, 6, 22, 117, 190, 195, 120, 120, 195, 2, 0.580825
149, 3, bw, attraction, a-b-db, 5, 3, 6, 22, 117, 190, 195, 120, 120, 195, 1, 0.88477
149, 3, bw, filler, NA, 999, 999, 6, 23, 177, 190, 93, 60, 146, 61, 1, 0.734988
149, 3, bw, filler, NA, 999, 999, 6, 23, 177, 190, 93, 60, 146, 61, 2, 0.937394
149, 3, bw, catch, NA, 999, 999, 6, 24, 156, 159, 116, 79, 106, 149, 1, 1.32912
149, 3, bw, catch, NA, 999, 999, 6, 24, 156, 159, 116, 79, 106, 149, 2, 0.698607
149, 3, bw, attraction, a-b-da, 2, 3, 6, 25, 120, 195, 195, 120, 193, 119, 3, 0.820382
149, 3, bw, attraction, a-b-da, 2, 3, 6, 25, 120, 195, 195, 120, 193, 119, 2, 0.274776
149, 3, bw, attraction, a-b-da, 14, 1, 6, 26, 125, 56, 60, 135, 135, 60, 2, 1.20519
149, 3, bw, attraction, a-b-da, 14, 1, 6, 26, 125, 56, 60, 135, 135, 60, 1, 0.555495
149, 3, bw, attraction, a-b-db, 5, 2, 6, 27, 165, 90, 90, 165, 88, 161, 2, 0.963212
149, 3, bw, attraction, a-b-db, 5, 2, 6, 27, 165, 90, 90, 165, 88, 161, 1, 0.563662
149, 3, bw, attraction, a-b-da, 9, 2, 6, 28, 157, 86, 165, 90, 90, 165, 2, 0.426767
149, 3, bw, attraction, a-b-da, 9, 2, 6, 28, 157, 86, 165, 90, 90, 165, 3, 0.304666
149, 3, bw, attraction, a-b-db, 2, 3, 6, 29, 195, 120, 119, 193, 120, 195, 2, 0.490559
149, 3, bw, attraction, a-b-db, 2, 3, 6, 29, 195, 120, 119, 193, 120, 195, 3, 0.293682
149, 3, bw, attraction, a-b-da, 5, 3, 6, 30, 195, 120, 190, 117, 120, 195, 2, 0.495423
149, 3, bw, attraction, a-b-da, 5, 3, 6, 30, 195, 120, 190, 117, 120, 195, 1, 0.426617
149, 3, bw, filler, NA, 999, 999, 6, 31, 181, 108, 102, 173, 189, 71, 2, 1.41506
149, 3, bw, filler, NA, 999, 999, 6, 31, 181, 108, 102, 173, 189, 71, 3, 0.725273
149, 3, bw, attraction, a-b-db, 14, 1, 6, 32, 135, 60, 60, 135, 56, 125, 2, 0.517654
149, 3, bw, attraction, a-b-db, 14, 1, 6, 32, 135, 60, 60, 135, 56, 125, 3, 0.384106
149, 3, bw, attraction, a-b-db, 14, 2, 6, 33, 83, 153, 90, 165, 165, 90, 2, 0.542647
149, 3, bw, attraction, a-b-db, 14, 2, 6, 33, 83, 153, 90, 165, 165, 90, 1, 0.336056
149, 3, bw, catch, NA, 999, 999, 6, 34, 174, 141, 144, 111, 86, 109, 1, 1.13635
149, 3, bw, catch, NA, 999, 999, 6, 34, 174, 141, 144, 111, 86, 109, 3, 0.658011
149, 3, bw, filler, NA, 999, 999, 6, 35, 160, 152, 76, 143, 192, 132, 3, 0.668953
149, 3, bw, filler, NA, 999, 999, 6, 35, 160, 152, 76, 143, 192, 132, 2, 0.537364
149, 3, bw, attraction, a-b-da, 9, 1, 6, 36, 135, 60, 60, 135, 129, 57, 3, 0.849779
149, 3, bw, attraction, a-b-da, 9, 1, 6, 36, 135, 60, 60, 135, 129, 57, 2, 0.854904
149, 3, bw, filler, NA, 999, 999, 6, 37, 183, 103, 93, 96, 83, 76, 1, 0.730501
149, 3, bw, filler, NA, 999, 999, 6, 37, 183, 103, 93, 96, 83, 76, 3, 0.836287
149, 3, bw, attraction, a-b-da, 2, 2, 7, 1, 90, 165, 163, 89, 165, 90, 1, 0.776683
149, 3, bw, attraction, a-b-da, 2, 2, 7, 1, 90, 165, 163, 89, 165, 90, 2, 0.320365
149, 3, bw, attraction, a-b-db, 14, 2, 7, 2, 90, 165, 83, 153, 165, 90, 2, 0.697525
149, 3, bw, attraction, a-b-db, 14, 2, 7, 2, 90, 165, 83, 153, 165, 90, 3, 0.516679
149, 3, bw, attraction, a-b-db, 2, 1, 7, 3, 60, 135, 59, 134, 135, 60, 2, 0.590244
149, 3, bw, attraction, a-b-db, 2, 1, 7, 3, 60, 135, 59, 134, 135, 60, 1, 0.508922
149, 3, bw, attraction, a-b-db, 9, 2, 7, 4, 165, 90, 90, 165, 86, 157, 2, 0.462035
149, 3, bw, attraction, a-b-db, 9, 2, 7, 4, 165, 90, 90, 165, 86, 157, 3, 0.482558
149, 3, bw, attraction, a-b-da, 9, 2, 7, 5, 165, 90, 157, 86, 90, 165, 2, 0.53305
149, 3, bw, attraction, a-b-da, 9, 2, 7, 5, 165, 90, 157, 86, 90, 165, 1, 0.414722
149, 3, bw, attraction, a-b-db, 2, 2, 7, 6, 90, 165, 89, 163, 165, 90, 2, 0.683795
149, 3, bw, attraction, a-b-db, 2, 2, 7, 6, 90, 165, 89, 163, 165, 90, 3, 0.35181
149, 3, bw, attraction, a-b-db, 5, 1, 7, 7, 58, 132, 135, 60, 60, 135, 2, 0.823528
149, 3, bw, attraction, a-b-db, 5, 1, 7, 7, 58, 132, 135, 60, 60, 135, 1, 0.517242
149, 3, bw, attraction, a-b-db, 5, 3, 7, 8, 117, 190, 195, 120, 120, 195, 3, 0.638295
149, 3, bw, attraction, a-b-db, 5, 3, 7, 8, 117, 190, 195, 120, 120, 195, 2, 0.523488
149, 3, bw, attraction, a-b-da, 5, 2, 7, 9, 165, 90, 90, 165, 161, 88, 3, 0.755827
149, 3, bw, attraction, a-b-da, 5, 2, 7, 9, 165, 90, 90, 165, 161, 88, 1, 0.732322
149, 3, bw, filler, NA, 999, 999, 7, 10, 179, 178, 76, 141, 184, 190, 3, 1.06055
149, 3, bw, filler, NA, 999, 999, 7, 10, 179, 178, 76, 141, 184, 190, 2, 0.368899
149, 3, bw, filler, NA, 999, 999, 7, 11, 169, 71, 103, 106, 83, 142, 3, 1.84818
149, 3, bw, filler, NA, 999, 999, 7, 11, 169, 71, 103, 106, 83, 142, 2, 0.668846
149, 3, bw, filler, NA, 999, 999, 7, 12, 102, 65, 167, 84, 79, 181, 3, 1.80002
149, 3, bw, filler, NA, 999, 999, 7, 12, 102, 65, 167, 84, 79, 181, 1, 0.622637
149, 3, bw, filler, NA, 999, 999, 7, 13, 146, 104, 118, 142, 59, 116, 2, 1.78762
149, 3, bw, filler, NA, 999, 999, 7, 13, 146, 104, 118, 142, 59, 116, 3, 0.515101
149, 3, bw, attraction, a-b-da, 9, 1, 7, 14, 135, 60, 129, 57, 60, 135, 2, 0.572231
149, 3, bw, attraction, a-b-da, 9, 1, 7, 14, 135, 60, 129, 57, 60, 135, 1, 0.66814
149, 3, bw, filler, NA, 999, 999, 7, 15, 56, 98, 192, 188, 102, 139, 2, 0.791161
149, 3, bw, filler, NA, 999, 999, 7, 15, 56, 98, 192, 188, 102, 139, 1, 0.526121
149, 3, bw, attraction, a-b-db, 2, 3, 7, 16, 119, 193, 120, 195, 195, 120, 2, 0.814602
149, 3, bw, attraction, a-b-db, 2, 3, 7, 16, 119, 193, 120, 195, 195, 120, 3, 0.58105
149, 3, bw, attraction, a-b-da, 14, 1, 7, 17, 60, 135, 125, 56, 135, 60, 2, 0.739579
149, 3, bw, attraction, a-b-da, 14, 1, 7, 17, 60, 135, 125, 56, 135, 60, 1, 0.468564
149, 3, bw, filler, NA, 999, 999, 7, 18, 105, 163, 104, 131, 76, 155, 1, 0.935516
149, 3, bw, filler, NA, 999, 999, 7, 18, 105, 163, 104, 131, 76, 155, 2, 0.369238
149, 3, bw, attraction, a-b-da, 5, 1, 7, 19, 132, 58, 60, 135, 135, 60, 3, 0.71243
149, 3, bw, attraction, a-b-da, 5, 1, 7, 19, 132, 58, 60, 135, 135, 60, 2, 0.714985
149, 3, bw, filler, NA, 999, 999, 7, 20, 146, 177, 184, 137, 73, 94, 1, 1.00409
149, 3, bw, filler, NA, 999, 999, 7, 20, 146, 177, 184, 137, 73, 94, 3, 0.562267
149, 3, bw, attraction, a-b-da, 14, 3, 7, 21, 181, 111, 120, 195, 195, 120, 2, 0.52133
149, 3, bw, attraction, a-b-da, 14, 3, 7, 21, 181, 111, 120, 195, 195, 120, 3, 0.411832
149, 3, bw, attraction, a-b-db, 14, 3, 7, 22, 120, 195, 195, 120, 111, 181, 3, 0.616917
149, 3, bw, attraction, a-b-db, 14, 3, 7, 22, 120, 195, 195, 120, 111, 181, 2, 0.335474
149, 3, bw, attraction, a-b-da, 2, 1, 7, 23, 60, 135, 134, 59, 135, 60, 3, 0.551911
149, 3, bw, attraction, a-b-da, 2, 1, 7, 23, 60, 135, 134, 59, 135, 60, 1, 0.497044
149, 3, bw, attraction, a-b-db, 9, 3, 7, 24, 114, 186, 195, 120, 120, 195, 2, 0.459011
149, 3, bw, attraction, a-b-db, 9, 3, 7, 24, 114, 186, 195, 120, 120, 195, 3, 0.375315
149, 3, bw, attraction, a-b-db, 9, 1, 7, 25, 60, 135, 135, 60, 57, 129, 2, 0.413821
149, 3, bw, attraction, a-b-db, 9, 1, 7, 25, 60, 135, 135, 60, 57, 129, 1, 0.692387
149, 3, bw, filler, NA, 999, 999, 7, 26, 166, 154, 146, 117, 123, 61, 1, 0.821982
149, 3, bw, filler, NA, 999, 999, 7, 26, 166, 154, 146, 117, 123, 61, 3, 0.651994
149, 3, bw, catch, NA, 999, 999, 7, 27, 114, 141, 65, 130, 173, 142, 3, 0.767461
149, 3, bw, catch, NA, 999, 999, 7, 27, 114, 141, 65, 130, 173, 142, 2, 1.11994
149, 3, bw, attraction, a-b-db, 14, 1, 7, 28, 60, 135, 135, 60, 56, 125, 3, 1.11286
149, 3, bw, attraction, a-b-db, 14, 1, 7, 28, 60, 135, 135, 60, 56, 125, 2, 0.507149
149, 3, bw, attraction, a-b-da, 14, 2, 7, 29, 153, 83, 165, 90, 90, 165, 3, 1.54835
149, 3, bw, attraction, a-b-da, 14, 2, 7, 29, 153, 83, 165, 90, 90, 165, 1, 0.861116
149, 3, bw, filler, NA, 999, 999, 7, 30, 98, 171, 63, 150, 77, 90, 1, 0.784073
149, 3, bw, filler, NA, 999, 999, 7, 30, 98, 171, 63, 150, 77, 90, 3, 0.687933
149, 3, bw, attraction, a-b-db, 5, 2, 7, 31, 90, 165, 165, 90, 88, 161, 1, 0.562218
149, 3, bw, attraction, a-b-db, 5, 2, 7, 31, 90, 165, 165, 90, 88, 161, 2, 0.650727
149, 3, bw, filler, NA, 999, 999, 7, 32, 143, 180, 60, 131, 117, 125, 1, 0.942363
149, 3, bw, filler, NA, 999, 999, 7, 32, 143, 180, 60, 131, 117, 125, 2, 0.711461
149, 3, bw, attraction, a-b-da, 2, 3, 7, 33, 193, 119, 195, 120, 120, 195, 2, 0.632591
149, 3, bw, attraction, a-b-da, 2, 3, 7, 33, 193, 119, 195, 120, 120, 195, 1, 0.606345
149, 3, bw, attraction, a-b-da, 9, 3, 7, 34, 186, 114, 195, 120, 120, 195, 3, 0.940194
149, 3, bw, attraction, a-b-da, 9, 3, 7, 34, 186, 114, 195, 120, 120, 195, 2, 0.397029
149, 3, bw, attraction, a-b-da, 5, 3, 7, 35, 195, 120, 120, 195, 190, 117, 3, 0.715067
149, 3, bw, attraction, a-b-da, 5, 3, 7, 35, 195, 120, 120, 195, 190, 117, 2, 0.925237
149, 3, bw, catch, NA, 999, 999, 7, 36, 133, 122, 178, 137, 65, 130, 2, 1.48568
149, 3, bw, catch, NA, 999, 999, 7, 36, 133, 122, 178, 137, 65, 130, 3, 0.993067
149, 3, bw, catch, NA, 999, 999, 7, 37, 85, 110, 146, 109, 189, 126, 3, 1.09472
149, 3, bw, catch, NA, 999, 999, 7, 37, 85, 110, 146, 109, 189, 126, 1, 0.529596
149, 3, bw, attraction, a-b-da, 5, 2, 8, 1, 165, 90, 90, 165, 161, 88, 2, 0.754031
149, 3, bw, attraction, a-b-da, 5, 2, 8, 1, 165, 90, 90, 165, 161, 88, 1, 0.819284
149, 3, bw, attraction, a-b-db, 14, 1, 8, 2, 135, 60, 56, 125, 60, 135, 2, 1.96823
149, 3, bw, attraction, a-b-db, 14, 1, 8, 2, 135, 60, 56, 125, 60, 135, 3, 0.736254
149, 3, bw, filler, NA, 999, 999, 8, 3, 154, 138, 137, 56, 61, 85, 1, 0.496617
149, 3, bw, filler, NA, 999, 999, 8, 3, 154, 138, 137, 56, 61, 85, 3, 0.771893
149, 3, bw, filler, NA, 999, 999, 8, 4, 116, 72, 141, 159, 111, 180, 2, 0.498854
149, 3, bw, filler, NA, 999, 999, 8, 4, 116, 72, 141, 159, 111, 180, 1, 0.701895
149, 3, bw, attraction, a-b-db, 14, 3, 8, 5, 111, 181, 195, 120, 120, 195, 2, 0.847745
149, 3, bw, attraction, a-b-db, 14, 3, 8, 5, 111, 181, 195, 120, 120, 195, 3, 0.652787
149, 3, bw, catch, NA, 999, 999, 8, 6, 138, 117, 125, 190, 78, 117, 2, 1.11251
149, 3, bw, catch, NA, 999, 999, 8, 6, 138, 117, 125, 190, 78, 117, 3, 0.402764
149, 3, bw, attraction, a-b-db, 2, 2, 8, 7, 165, 90, 89, 163, 90, 165, 2, 0.488625
149, 3, bw, attraction, a-b-db, 2, 2, 8, 7, 165, 90, 89, 163, 90, 165, 1, 0.347863
149, 3, bw, filler, NA, 999, 999, 8, 8, 143, 187, 56, 72, 110, 153, 1, 1.37154
149, 3, bw, filler, NA, 999, 999, 8, 8, 143, 187, 56, 72, 110, 153, 2, 0.571788
149, 3, bw, attraction, a-b-da, 5, 1, 8, 9, 132, 58, 135, 60, 60, 135, 2, 0.586932
149, 3, bw, attraction, a-b-da, 5, 1, 8, 9, 132, 58, 135, 60, 60, 135, 1, 0.4348
149, 3, bw, attraction, a-b-da, 9, 2, 8, 10, 157, 86, 90, 165, 165, 90, 2, 0.967117
149, 3, bw, attraction, a-b-da, 9, 2, 8, 10, 157, 86, 90, 165, 165, 90, 3, 0.407423
149, 3, bw, attraction, a-b-da, 9, 3, 8, 11, 195, 120, 186, 114, 120, 195, 2, 0.548723
149, 3, bw, attraction, a-b-da, 9, 3, 8, 11, 195, 120, 186, 114, 120, 195, 1, 0.301692
149, 3, bw, attraction, a-b-db, 9, 1, 8, 12, 135, 60, 60, 135, 57, 129, 2, 0.671712
149, 3, bw, attraction, a-b-db, 9, 1, 8, 12, 135, 60, 60, 135, 57, 129, 3, 0.579389
149, 3, bw, attraction, a-b-db, 14, 2, 8, 13, 83, 153, 165, 90, 90, 165, 2, 0.497908
149, 3, bw, attraction, a-b-db, 14, 2, 8, 13, 83, 153, 165, 90, 90, 165, 1, 0.300911
149, 3, bw, filler, NA, 999, 999, 8, 14, 71, 115, 193, 107, 128, 183, 3, 0.839139
149, 3, bw, filler, NA, 999, 999, 8, 14, 71, 115, 193, 107, 128, 183, 1, 0.579846
149, 3, bw, attraction, a-b-db, 9, 3, 8, 15, 195, 120, 120, 195, 114, 186, 1, 0.938271
149, 3, bw, attraction, a-b-db, 9, 3, 8, 15, 195, 120, 120, 195, 114, 186, 2, 0.307275
149, 3, bw, catch, NA, 999, 999, 8, 16, 140, 175, 133, 62, 115, 140, 1, 1.02837
149, 3, bw, catch, NA, 999, 999, 8, 16, 140, 175, 133, 62, 115, 140, 2, 0.610174
149, 3, bw, attraction, a-b-db, 5, 3, 8, 17, 195, 120, 120, 195, 117, 190, 2, 0.519181
149, 3, bw, attraction, a-b-db, 5, 3, 8, 17, 195, 120, 120, 195, 117, 190, 1, 0.497752
149, 3, bw, filler, NA, 999, 999, 8, 18, 154, 106, 112, 131, 88, 142, 1, 0.995452
149, 3, bw, filler, NA, 999, 999, 8, 18, 154, 106, 112, 131, 88, 142, 3, 0.482475
149, 3, bw, attraction, a-b-da, 9, 1, 8, 19, 129, 57, 135, 60, 60, 135, 2, 1.07699
149, 3, bw, attraction, a-b-da, 9, 1, 8, 19, 129, 57, 135, 60, 60, 135, 3, 0.66458
149, 3, bw, attraction, a-b-db, 2, 3, 8, 20, 195, 120, 120, 195, 119, 193, 1, 0.715683
149, 3, bw, attraction, a-b-db, 2, 3, 8, 20, 195, 120, 120, 195, 119, 193, 3, 0.630069
149, 3, bw, attraction, a-b-db, 2, 1, 8, 21, 135, 60, 60, 135, 59, 134, 2, 0.754431
149, 3, bw, attraction, a-b-db, 2, 1, 8, 21, 135, 60, 60, 135, 59, 134, 1, 0.691494
149, 3, bw, attraction, a-b-da, 2, 3, 8, 22, 120, 195, 195, 120, 193, 119, 2, 0.549165
149, 3, bw, attraction, a-b-da, 2, 3, 8, 22, 120, 195, 195, 120, 193, 119, 1, 0.358416
149, 3, bw, attraction, a-b-da, 14, 2, 8, 23, 165, 90, 153, 83, 90, 165, 1, 0.653519
149, 3, bw, attraction, a-b-da, 14, 2, 8, 23, 165, 90, 153, 83, 90, 165, 3, 0.378707
149, 3, bw, catch, NA, 999, 999, 8, 24, 168, 147, 143, 112, 100, 95, 1, 0.657
149, 3, bw, catch, NA, 999, 999, 8, 24, 168, 147, 143, 112, 100, 95, 3, 0.421606
149, 3, bw, attraction, a-b-da, 5, 3, 8, 25, 120, 195, 190, 117, 195, 120, 2, 0.810712
149, 3, bw, attraction, a-b-da, 5, 3, 8, 25, 120, 195, 190, 117, 195, 120, 3, 0.473046
149, 3, bw, filler, NA, 999, 999, 8, 26, 169, 63, 161, 69, 151, 174, 3, 0.916176
149, 3, bw, filler, NA, 999, 999, 8, 26, 169, 63, 161, 69, 151, 174, 2, 0.510585
149, 3, bw, filler, NA, 999, 999, 8, 27, 195, 104, 125, 144, 193, 83, 1, 1.79175
149, 3, bw, filler, NA, 999, 999, 8, 27, 195, 104, 125, 144, 193, 83, 3, 3.77449
149, 3, bw, attraction, a-b-da, 14, 1, 8, 28, 60, 135, 125, 56, 135, 60, 1, 0.571859
149, 3, bw, attraction, a-b-da, 14, 1, 8, 28, 60, 135, 125, 56, 135, 60, 2, 0.675657
149, 3, bw, filler, NA, 999, 999, 8, 29, 101, 162, 86, 160, 113, 117, 1, 3.75805
149, 3, bw, filler, NA, 999, 999, 8, 29, 101, 162, 86, 160, 113, 117, 2, 0.357552
149, 3, bw, attraction, a-b-db, 9, 2, 8, 30, 90, 165, 86, 157, 165, 90, 2, 1.70067
149, 3, bw, attraction, a-b-db, 9, 2, 8, 30, 90, 165, 86, 157, 165, 90, 1, 0.391505
149, 3, bw, attraction, a-b-da, 14, 3, 8, 31, 195, 120, 181, 111, 120, 195, 3, 0.869276
149, 3, bw, attraction, a-b-da, 14, 3, 8, 31, 195, 120, 181, 111, 120, 195, 2, 0.721589
149, 3, bw, attraction, a-b-da, 2, 1, 8, 32, 60, 135, 135, 60, 134, 59, 3, 0.634669
149, 3, bw, attraction, a-b-da, 2, 1, 8, 32, 60, 135, 135, 60, 134, 59, 2, 0.832564
149, 3, bw, attraction, a-b-db, 5, 2, 8, 33, 90, 165, 88, 161, 165, 90, 3, 0.908805
149, 3, bw, attraction, a-b-db, 5, 2, 8, 33, 90, 165, 88, 161, 165, 90, 2, 0.623127
149, 3, bw, attraction, a-b-db, 5, 1, 8, 34, 135, 60, 60, 135, 58, 132, 3, 0.476181
149, 3, bw, attraction, a-b-db, 5, 1, 8, 34, 135, 60, 60, 135, 58, 132, 2, 0.439985
149, 3, bw, attraction, a-b-da, 2, 2, 8, 35, 165, 90, 163, 89, 90, 165, 2, 0.843816
149, 3, bw, attraction, a-b-da, 2, 2, 8, 35, 165, 90, 163, 89, 90, 165, 1, 0.296943
149, 3, bw, filler, NA, 999, 999, 8, 36, 169, 156, 60, 176, 117, 132, 1, 0.922747
149, 3, bw, filler, NA, 999, 999, 8, 36, 169, 156, 60, 176, 117, 132, 3, 2.02856
149, 3, bw, filler, NA, 999, 999, 8, 37, 173, 107, 60, 140, 189, 110, 3, 1.0325
149, 3, bw, filler, NA, 999, 999, 8, 37, 173, 107, 60, 140, 189, 110, 2, 0.438093
