sub_n, computer_n, bw_cond, effect, set, distance, diag, block_n, trial_n, h1, w1, h2, w2, h3, w3, choice, rt 
188, 3, wb, practice, NA, 999, 999, 0, 1, 131, 179, 148, 56, 193, 119, 2, 4.14398
188, 3, wb, practice, NA, 999, 999, 0, 1, 131, 179, 148, 56, 193, 119, 1, 8.82408
188, 3, wb, practice, NA, 999, 999, 0, 2, 87, 162, 75, 163, 69, 88, 3, 2.61553
188, 3, wb, practice, NA, 999, 999, 0, 2, 87, 162, 75, 163, 69, 88, 1, 1.59065
188, 3, wb, practice, NA, 999, 999, 0, 3, 188, 126, 174, 80, 171, 94, 2, 4.0575
188, 3, wb, practice, NA, 999, 999, 0, 3, 188, 126, 174, 80, 171, 94, 1, 1.58665
188, 3, wb, filler, NA, 999, 999, 1, 1, 105, 110, 116, 158, 133, 93, 1, 18.678
188, 3, wb, filler, NA, 999, 999, 1, 1, 105, 110, 116, 158, 133, 93, 2, 1.54023
188, 3, wb, attraction, a-b-db, 14, 2, 1, 2, 83, 153, 165, 90, 90, 165, 1, 3.80378
188, 3, wb, attraction, a-b-db, 14, 2, 1, 2, 83, 153, 165, 90, 90, 165, 3, 4.16984
188, 3, wb, catch, NA, 999, 999, 1, 3, 135, 120, 160, 155, 72, 123, 3, 1.43168
188, 3, wb, catch, NA, 999, 999, 1, 3, 135, 120, 160, 155, 72, 123, 2, 1.30131
188, 3, wb, attraction, a-b-db, 5, 3, 1, 4, 117, 190, 195, 120, 120, 195, 1, 12.5429
188, 3, wb, attraction, a-b-db, 5, 3, 1, 4, 117, 190, 195, 120, 120, 195, 3, 2.78015
188, 3, wb, filler, NA, 999, 999, 1, 5, 156, 85, 191, 173, 112, 152, 1, 2.45788
188, 3, wb, filler, NA, 999, 999, 1, 5, 156, 85, 191, 173, 112, 152, 2, 0.525728
188, 3, wb, attraction, a-b-da, 9, 1, 1, 6, 135, 60, 60, 135, 129, 57, 3, 3.12619
188, 3, wb, attraction, a-b-da, 9, 1, 1, 6, 135, 60, 60, 135, 129, 57, 2, 1.10325
188, 3, wb, attraction, a-b-da, 5, 1, 1, 7, 132, 58, 135, 60, 60, 135, 1, 7.48892
188, 3, wb, attraction, a-b-da, 5, 1, 1, 7, 132, 58, 135, 60, 60, 135, 2, 3.32259
188, 3, wb, attraction, a-b-db, 9, 2, 1, 8, 90, 165, 86, 157, 165, 90, 2, 16.7309
188, 3, wb, attraction, a-b-db, 9, 2, 1, 8, 90, 165, 86, 157, 165, 90, 1, 3.91943
188, 3, wb, filler, NA, 999, 999, 1, 9, 195, 131, 122, 85, 168, 66, 2, 20.3436
188, 3, wb, filler, NA, 999, 999, 1, 9, 195, 131, 122, 85, 168, 66, 1, 0.586421
188, 3, wb, attraction, a-b-db, 14, 1, 1, 10, 56, 125, 60, 135, 135, 60, 1, 2.81689
188, 3, wb, attraction, a-b-db, 14, 1, 1, 10, 56, 125, 60, 135, 135, 60, 2, 2.14275
188, 3, wb, attraction, a-b-da, 5, 3, 1, 11, 195, 120, 190, 117, 120, 195, 2, 18.8299
188, 3, wb, attraction, a-b-da, 5, 3, 1, 11, 195, 120, 190, 117, 120, 195, 3, 0.590019
188, 3, wb, attraction, a-b-db, 5, 2, 1, 12, 90, 165, 88, 161, 165, 90, 3, 12.3558
188, 3, wb, attraction, a-b-db, 5, 2, 1, 12, 90, 165, 88, 161, 165, 90, 2, 4.50523
188, 3, wb, attraction, a-b-db, 2, 2, 1, 13, 89, 163, 165, 90, 90, 165, 1, 2.09762
188, 3, wb, attraction, a-b-db, 2, 2, 1, 13, 89, 163, 165, 90, 90, 165, 3, 1.53238
188, 3, wb, filler, NA, 999, 999, 1, 14, 144, 88, 133, 177, 106, 195, 1, 2.03651
188, 3, wb, filler, NA, 999, 999, 1, 14, 144, 88, 133, 177, 106, 195, 2, 1.17785
188, 3, wb, attraction, a-b-db, 2, 3, 1, 15, 120, 195, 119, 193, 195, 120, 3, 8.10405
188, 3, wb, attraction, a-b-db, 2, 3, 1, 15, 120, 195, 119, 193, 195, 120, 2, 0.848846
188, 3, wb, attraction, a-b-da, 9, 3, 1, 16, 195, 120, 120, 195, 186, 114, 3, 2.36459
188, 3, wb, attraction, a-b-da, 9, 3, 1, 16, 195, 120, 120, 195, 186, 114, 2, 0.9004
188, 3, wb, filler, NA, 999, 999, 1, 17, 69, 128, 62, 188, 183, 174, 1, 2.49418
188, 3, wb, filler, NA, 999, 999, 1, 17, 69, 128, 62, 188, 183, 174, 3, 0.616552
188, 3, wb, attraction, a-b-da, 9, 2, 1, 18, 157, 86, 90, 165, 165, 90, 3, 4.03773
188, 3, wb, attraction, a-b-da, 9, 2, 1, 18, 157, 86, 90, 165, 165, 90, 2, 0.53854
188, 3, wb, filler, NA, 999, 999, 1, 19, 99, 99, 161, 150, 113, 150, 1, 2.93888
188, 3, wb, filler, NA, 999, 999, 1, 19, 99, 99, 161, 150, 113, 150, 2, 0.65923
188, 3, wb, attraction, a-b-da, 2, 1, 1, 20, 134, 59, 60, 135, 135, 60, 1, 6.69432
188, 3, wb, attraction, a-b-da, 2, 1, 1, 20, 134, 59, 60, 135, 135, 60, 2, 0.43164
188, 3, wb, filler, NA, 999, 999, 1, 21, 150, 119, 87, 163, 154, 186, 2, 4.26797
188, 3, wb, filler, NA, 999, 999, 1, 21, 150, 119, 87, 163, 154, 186, 3, 0.999327
188, 3, wb, attraction, a-b-da, 2, 3, 1, 22, 193, 119, 195, 120, 120, 195, 1, 17.7971
188, 3, wb, attraction, a-b-da, 2, 3, 1, 22, 193, 119, 195, 120, 120, 195, 2, 0.430723
188, 3, wb, attraction, a-b-da, 5, 2, 1, 23, 161, 88, 90, 165, 165, 90, 1, 7.06719
188, 3, wb, attraction, a-b-da, 5, 2, 1, 23, 161, 88, 90, 165, 165, 90, 3, 1.42958
188, 3, wb, attraction, a-b-da, 2, 2, 1, 24, 90, 165, 163, 89, 165, 90, 2, 1.58575
188, 3, wb, attraction, a-b-da, 2, 2, 1, 24, 90, 165, 163, 89, 165, 90, 1, 1.82526
188, 3, wb, attraction, a-b-db, 9, 3, 1, 25, 195, 120, 120, 195, 114, 186, 3, 0.965273
188, 3, wb, attraction, a-b-db, 9, 3, 1, 25, 195, 120, 120, 195, 114, 186, 2, 1.31764
188, 3, wb, attraction, a-b-db, 5, 1, 1, 26, 58, 132, 135, 60, 60, 135, 2, 9.30255
188, 3, wb, attraction, a-b-db, 5, 1, 1, 26, 58, 132, 135, 60, 60, 135, 3, 0.494865
188, 3, wb, attraction, a-b-db, 14, 3, 1, 27, 111, 181, 195, 120, 120, 195, 1, 1.64879
188, 3, wb, attraction, a-b-db, 14, 3, 1, 27, 111, 181, 195, 120, 120, 195, 2, 1.91752
188, 3, wb, attraction, a-b-db, 9, 1, 1, 28, 60, 135, 57, 129, 135, 60, 3, 3.06222
188, 3, wb, attraction, a-b-db, 9, 1, 1, 28, 60, 135, 57, 129, 135, 60, 1, 1.11385
188, 3, wb, attraction, a-b-da, 14, 3, 1, 29, 181, 111, 120, 195, 195, 120, 1, 4.21874
188, 3, wb, attraction, a-b-da, 14, 3, 1, 29, 181, 111, 120, 195, 195, 120, 2, 0.792061
188, 3, wb, filler, NA, 999, 999, 1, 30, 175, 185, 136, 116, 107, 190, 3, 1.68574
188, 3, wb, filler, NA, 999, 999, 1, 30, 175, 185, 136, 116, 107, 190, 1, 0.577231
188, 3, wb, attraction, a-b-db, 2, 1, 1, 31, 60, 135, 135, 60, 59, 134, 1, 3.06362
188, 3, wb, attraction, a-b-db, 2, 1, 1, 31, 60, 135, 135, 60, 59, 134, 3, 1.61933
188, 3, wb, filler, NA, 999, 999, 1, 32, 99, 136, 194, 144, 147, 125, 1, 1.14409
188, 3, wb, filler, NA, 999, 999, 1, 32, 99, 136, 194, 144, 147, 125, 2, 0.425148
188, 3, wb, attraction, a-b-da, 14, 1, 1, 33, 125, 56, 135, 60, 60, 135, 1, 3.5815
188, 3, wb, attraction, a-b-da, 14, 1, 1, 33, 125, 56, 135, 60, 60, 135, 3, 1.26835
188, 3, wb, attraction, a-b-da, 14, 2, 1, 34, 165, 90, 153, 83, 90, 165, 2, 3.65525
188, 3, wb, attraction, a-b-da, 14, 2, 1, 34, 165, 90, 153, 83, 90, 165, 1, 1.45941
188, 3, wb, catch, NA, 999, 999, 1, 35, 147, 168, 134, 61, 165, 90, 2, 2.04617
188, 3, wb, catch, NA, 999, 999, 1, 35, 147, 168, 134, 61, 165, 90, 1, 0.498893
188, 3, wb, catch, NA, 999, 999, 1, 36, 121, 194, 97, 158, 101, 94, 3, 0.932633
188, 3, wb, catch, NA, 999, 999, 1, 36, 121, 194, 97, 158, 101, 94, 1, 0.654265
188, 3, wb, filler, NA, 999, 999, 1, 37, 181, 183, 144, 120, 61, 120, 3, 0.666071
188, 3, wb, filler, NA, 999, 999, 1, 37, 181, 183, 144, 120, 61, 120, 1, 0.39045
188, 3, wb, attraction, a-b-da, 14, 2, 2, 1, 153, 83, 165, 90, 90, 165, 1, 1.13238
188, 3, wb, attraction, a-b-da, 14, 2, 2, 1, 153, 83, 165, 90, 90, 165, 3, 0.397918
188, 3, wb, attraction, a-b-da, 5, 2, 2, 2, 90, 165, 161, 88, 165, 90, 3, 1.29182
188, 3, wb, attraction, a-b-da, 5, 2, 2, 2, 90, 165, 161, 88, 165, 90, 1, 0.430724
188, 3, wb, attraction, a-b-da, 9, 2, 2, 3, 90, 165, 165, 90, 157, 86, 3, 2.7152
188, 3, wb, attraction, a-b-da, 9, 2, 2, 3, 90, 165, 165, 90, 157, 86, 1, 1.01335
188, 3, wb, attraction, a-b-db, 14, 2, 2, 4, 165, 90, 90, 165, 83, 153, 3, 9.38588
188, 3, wb, attraction, a-b-db, 14, 2, 2, 4, 165, 90, 90, 165, 83, 153, 2, 0.399064
188, 3, wb, attraction, a-b-da, 2, 2, 2, 5, 163, 89, 90, 165, 165, 90, 1, 1.62874
188, 3, wb, attraction, a-b-da, 2, 2, 2, 5, 163, 89, 90, 165, 165, 90, 2, 0.714201
188, 3, wb, filler, NA, 999, 999, 2, 6, 122, 147, 168, 131, 91, 58, 3, 0.867338
188, 3, wb, filler, NA, 999, 999, 2, 6, 122, 147, 168, 131, 91, 58, 2, 0.47161
188, 3, wb, attraction, a-b-db, 2, 1, 2, 7, 135, 60, 59, 134, 60, 135, 1, 1.06673
188, 3, wb, attraction, a-b-db, 2, 1, 2, 7, 135, 60, 59, 134, 60, 135, 2, 0.575135
188, 3, wb, attraction, a-b-da, 14, 3, 2, 8, 181, 111, 120, 195, 195, 120, 1, 3.56556
188, 3, wb, attraction, a-b-da, 14, 3, 2, 8, 181, 111, 120, 195, 195, 120, 2, 0.789198
188, 3, wb, filler, NA, 999, 999, 2, 9, 175, 74, 186, 95, 99, 108, 1, 6.21949
188, 3, wb, filler, NA, 999, 999, 2, 9, 175, 74, 186, 95, 99, 108, 2, 0.400142
188, 3, wb, catch, NA, 999, 999, 2, 10, 122, 193, 112, 143, 98, 97, 3, 0.805849
188, 3, wb, catch, NA, 999, 999, 2, 10, 122, 193, 112, 143, 98, 97, 1, 0.436239
188, 3, wb, filler, NA, 999, 999, 2, 11, 129, 147, 67, 104, 113, 100, 2, 0.800773
188, 3, wb, filler, NA, 999, 999, 2, 11, 129, 147, 67, 104, 113, 100, 1, 0.423769
188, 3, wb, catch, NA, 999, 999, 2, 12, 71, 124, 123, 132, 125, 190, 1, 0.84436
188, 3, wb, catch, NA, 999, 999, 2, 12, 71, 124, 123, 132, 125, 190, 3, 0.313335
188, 3, wb, filler, NA, 999, 999, 2, 13, 167, 166, 113, 98, 194, 132, 2, 0.826563
188, 3, wb, filler, NA, 999, 999, 2, 13, 167, 166, 113, 98, 194, 132, 1, 2.16022
188, 3, wb, attraction, a-b-da, 14, 1, 2, 14, 135, 60, 60, 135, 125, 56, 3, 1.42275
188, 3, wb, attraction, a-b-da, 14, 1, 2, 14, 135, 60, 60, 135, 125, 56, 1, 0.476374
188, 3, wb, filler, NA, 999, 999, 2, 15, 113, 161, 145, 99, 171, 73, 3, 1.03887
188, 3, wb, filler, NA, 999, 999, 2, 15, 113, 161, 145, 99, 171, 73, 1, 0.571904
188, 3, wb, filler, NA, 999, 999, 2, 16, 106, 63, 78, 77, 66, 64, 3, 0.794913
188, 3, wb, filler, NA, 999, 999, 2, 16, 106, 63, 78, 77, 66, 64, 1, 7.93792
188, 3, wb, attraction, a-b-db, 2, 2, 2, 17, 89, 163, 165, 90, 90, 165, 1, 1.8
188, 3, wb, attraction, a-b-db, 2, 2, 2, 17, 89, 163, 165, 90, 90, 165, 3, 0.582934
188, 3, wb, filler, NA, 999, 999, 2, 18, 165, 160, 148, 104, 131, 152, 2, 1.22933
188, 3, wb, filler, NA, 999, 999, 2, 18, 165, 160, 148, 104, 131, 152, 1, 0.36287
188, 3, wb, attraction, a-b-db, 9, 3, 2, 19, 195, 120, 114, 186, 120, 195, 2, 1.44193
188, 3, wb, attraction, a-b-db, 9, 3, 2, 19, 195, 120, 114, 186, 120, 195, 1, 0.806895
188, 3, wb, filler, NA, 999, 999, 2, 20, 115, 84, 125, 107, 63, 79, 3, 0.659833
188, 3, wb, filler, NA, 999, 999, 2, 20, 115, 84, 125, 107, 63, 79, 2, 0.96835
188, 3, wb, attraction, a-b-da, 9, 3, 2, 21, 186, 114, 195, 120, 120, 195, 3, 1.22343
188, 3, wb, attraction, a-b-da, 9, 3, 2, 21, 186, 114, 195, 120, 120, 195, 1, 0.90887
188, 3, wb, attraction, a-b-da, 9, 1, 2, 22, 60, 135, 129, 57, 135, 60, 3, 2.078
188, 3, wb, attraction, a-b-da, 9, 1, 2, 22, 60, 135, 129, 57, 135, 60, 1, 0.897225
188, 3, wb, attraction, a-b-db, 9, 2, 2, 23, 86, 157, 165, 90, 90, 165, 1, 6.18693
188, 3, wb, attraction, a-b-db, 9, 2, 2, 23, 86, 157, 165, 90, 90, 165, 3, 0.672986
188, 3, wb, catch, NA, 999, 999, 2, 24, 101, 154, 146, 169, 84, 111, 3, 0.820029
188, 3, wb, catch, NA, 999, 999, 2, 24, 101, 154, 146, 169, 84, 111, 2, 0.426297
188, 3, wb, attraction, a-b-da, 5, 3, 2, 25, 190, 117, 120, 195, 195, 120, 3, 7.01482
188, 3, wb, attraction, a-b-da, 5, 3, 2, 25, 190, 117, 120, 195, 195, 120, 2, 1.59528
188, 3, wb, attraction, a-b-db, 14, 3, 2, 26, 111, 181, 120, 195, 195, 120, 1, 5.14477
188, 3, wb, attraction, a-b-db, 14, 3, 2, 26, 111, 181, 120, 195, 195, 120, 2, 0.624495
188, 3, wb, attraction, a-b-db, 9, 1, 2, 27, 135, 60, 57, 129, 60, 135, 1, 1.1969
188, 3, wb, attraction, a-b-db, 9, 1, 2, 27, 135, 60, 57, 129, 60, 135, 3, 0.507859
188, 3, wb, attraction, a-b-db, 5, 3, 2, 28, 120, 195, 117, 190, 195, 120, 3, 4.54892
188, 3, wb, attraction, a-b-db, 5, 3, 2, 28, 120, 195, 117, 190, 195, 120, 1, 0.948775
188, 3, wb, attraction, a-b-db, 5, 2, 2, 29, 90, 165, 88, 161, 165, 90, 2, 2.98039
188, 3, wb, attraction, a-b-db, 5, 2, 2, 29, 90, 165, 88, 161, 165, 90, 1, 0.459492
188, 3, wb, filler, NA, 999, 999, 2, 30, 120, 142, 150, 162, 157, 166, 1, 1.3985
188, 3, wb, filler, NA, 999, 999, 2, 30, 120, 142, 150, 162, 157, 166, 3, 3.08545
188, 3, wb, attraction, a-b-db, 14, 1, 2, 31, 135, 60, 56, 125, 60, 135, 1, 1.81504
188, 3, wb, attraction, a-b-db, 14, 1, 2, 31, 135, 60, 56, 125, 60, 135, 3, 0.909074
188, 3, wb, filler, NA, 999, 999, 2, 32, 158, 118, 74, 139, 66, 159, 3, 0.950149
188, 3, wb, filler, NA, 999, 999, 2, 32, 158, 118, 74, 139, 66, 159, 1, 0.431114
188, 3, wb, attraction, a-b-da, 2, 3, 2, 33, 120, 195, 195, 120, 193, 119, 3, 4.83568
188, 3, wb, attraction, a-b-da, 2, 3, 2, 33, 120, 195, 195, 120, 193, 119, 2, 0.304081
188, 3, wb, attraction, a-b-db, 5, 1, 2, 34, 60, 135, 135, 60, 58, 132, 1, 5.54596
188, 3, wb, attraction, a-b-db, 5, 1, 2, 34, 60, 135, 135, 60, 58, 132, 3, 0.72148
188, 3, wb, attraction, a-b-db, 2, 3, 2, 35, 120, 195, 119, 193, 195, 120, 2, 4.01866
188, 3, wb, attraction, a-b-db, 2, 3, 2, 35, 120, 195, 119, 193, 195, 120, 1, 3.51208
188, 3, wb, attraction, a-b-da, 5, 1, 2, 36, 132, 58, 60, 135, 135, 60, 1, 1.14419
188, 3, wb, attraction, a-b-da, 5, 1, 2, 36, 132, 58, 60, 135, 135, 60, 2, 0.465168
188, 3, wb, attraction, a-b-da, 2, 1, 2, 37, 134, 59, 60, 135, 135, 60, 1, 7.59631
188, 3, wb, attraction, a-b-da, 2, 1, 2, 37, 134, 59, 60, 135, 135, 60, 2, 0.641265
188, 3, wb, attraction, a-b-db, 5, 2, 3, 1, 165, 90, 90, 165, 88, 161, 3, 0.860856
188, 3, wb, attraction, a-b-db, 5, 2, 3, 1, 165, 90, 90, 165, 88, 161, 2, 1.10519
188, 3, wb, filler, NA, 999, 999, 3, 2, 57, 102, 99, 190, 189, 82, 1, 1.44274
188, 3, wb, filler, NA, 999, 999, 3, 2, 57, 102, 99, 190, 189, 82, 2, 0.36778
188, 3, wb, attraction, a-b-db, 2, 1, 3, 3, 60, 135, 135, 60, 59, 134, 3, 4.94297
188, 3, wb, attraction, a-b-db, 2, 1, 3, 3, 60, 135, 135, 60, 59, 134, 1, 2.76661
188, 3, wb, attraction, a-b-db, 14, 3, 3, 4, 120, 195, 195, 120, 111, 181, 3, 3.77305
188, 3, wb, attraction, a-b-db, 14, 3, 3, 4, 120, 195, 195, 120, 111, 181, 1, 2.364
188, 3, wb, attraction, a-b-db, 9, 3, 3, 5, 120, 195, 195, 120, 114, 186, 3, 2.86632
188, 3, wb, attraction, a-b-db, 9, 3, 3, 5, 120, 195, 195, 120, 114, 186, 2, 0.366138
188, 3, wb, attraction, a-b-da, 14, 1, 3, 6, 60, 135, 125, 56, 135, 60, 2, 2.23751
188, 3, wb, attraction, a-b-da, 14, 1, 3, 6, 60, 135, 125, 56, 135, 60, 3, 0.522521
188, 3, wb, filler, NA, 999, 999, 3, 7, 78, 166, 109, 87, 97, 152, 2, 1.69966
188, 3, wb, filler, NA, 999, 999, 3, 7, 78, 166, 109, 87, 97, 152, 3, 0.630469
188, 3, wb, attraction, a-b-da, 14, 2, 3, 8, 165, 90, 90, 165, 153, 83, 3, 2.66692
188, 3, wb, attraction, a-b-da, 14, 2, 3, 8, 165, 90, 90, 165, 153, 83, 2, 0.84687
188, 3, wb, attraction, a-b-db, 2, 2, 3, 9, 89, 163, 165, 90, 90, 165, 2, 3.2423
188, 3, wb, attraction, a-b-db, 2, 2, 3, 9, 89, 163, 165, 90, 90, 165, 1, 0.366737
188, 3, wb, filler, NA, 999, 999, 3, 10, 168, 143, 161, 180, 166, 154, 3, 3.9819
188, 3, wb, filler, NA, 999, 999, 3, 10, 168, 143, 161, 180, 166, 154, 2, 1.03649
188, 3, wb, attraction, a-b-db, 9, 2, 3, 11, 165, 90, 86, 157, 90, 165, 1, 1.86485
188, 3, wb, attraction, a-b-db, 9, 2, 3, 11, 165, 90, 86, 157, 90, 165, 3, 1.06889
188, 3, wb, filler, NA, 999, 999, 3, 12, 170, 86, 115, 128, 89, 176, 3, 2.02375
188, 3, wb, filler, NA, 999, 999, 3, 12, 170, 86, 115, 128, 89, 176, 2, 0.709139
188, 3, wb, attraction, a-b-db, 5, 3, 3, 13, 120, 195, 195, 120, 117, 190, 1, 1.31023
188, 3, wb, attraction, a-b-db, 5, 3, 3, 13, 120, 195, 195, 120, 117, 190, 3, 2.66449
188, 3, wb, attraction, a-b-da, 9, 3, 3, 14, 195, 120, 120, 195, 186, 114, 3, 5.08285
188, 3, wb, attraction, a-b-da, 9, 3, 3, 14, 195, 120, 120, 195, 186, 114, 1, 1.26936
188, 3, wb, attraction, a-b-db, 14, 2, 3, 15, 165, 90, 83, 153, 90, 165, 2, 2.52008
188, 3, wb, attraction, a-b-db, 14, 2, 3, 15, 165, 90, 83, 153, 90, 165, 3, 0.434027
188, 3, wb, attraction, a-b-db, 9, 1, 3, 16, 60, 135, 57, 129, 135, 60, 2, 1.90251
188, 3, wb, attraction, a-b-db, 9, 1, 3, 16, 60, 135, 57, 129, 135, 60, 3, 0.705182
188, 3, wb, attraction, a-b-db, 2, 3, 3, 17, 120, 195, 119, 193, 195, 120, 3, 1.67497
188, 3, wb, attraction, a-b-db, 2, 3, 3, 17, 120, 195, 119, 193, 195, 120, 1, 0.430382
188, 3, wb, filler, NA, 999, 999, 3, 18, 162, 163, 114, 168, 186, 157, 2, 1.4509
188, 3, wb, filler, NA, 999, 999, 3, 18, 162, 163, 114, 168, 186, 157, 3, 0.359862
188, 3, wb, attraction, a-b-db, 14, 1, 3, 19, 56, 125, 135, 60, 60, 135, 1, 1.69481
188, 3, wb, attraction, a-b-db, 14, 1, 3, 19, 56, 125, 135, 60, 60, 135, 2, 0.433728
188, 3, wb, filler, NA, 999, 999, 3, 20, 139, 192, 105, 107, 175, 185, 2, 0.838136
188, 3, wb, filler, NA, 999, 999, 3, 20, 139, 192, 105, 107, 175, 185, 3, 0.331152
188, 3, wb, attraction, a-b-da, 9, 1, 3, 21, 135, 60, 129, 57, 60, 135, 1, 1.45159
188, 3, wb, attraction, a-b-da, 9, 1, 3, 21, 135, 60, 129, 57, 60, 135, 3, 0.656466
188, 3, wb, attraction, a-b-db, 5, 1, 3, 22, 60, 135, 135, 60, 58, 132, 3, 1.62029
188, 3, wb, attraction, a-b-db, 5, 1, 3, 22, 60, 135, 135, 60, 58, 132, 1, 0.67444
188, 3, wb, attraction, a-b-da, 2, 2, 3, 23, 90, 165, 165, 90, 163, 89, 3, 4.66082
188, 3, wb, attraction, a-b-da, 2, 2, 3, 23, 90, 165, 165, 90, 163, 89, 2, 0.655949
188, 3, wb, attraction, a-b-da, 2, 1, 3, 24, 60, 135, 135, 60, 134, 59, 3, 2.31565
188, 3, wb, attraction, a-b-da, 2, 1, 3, 24, 60, 135, 135, 60, 134, 59, 1, 0.341578
188, 3, wb, catch, NA, 999, 999, 3, 25, 147, 168, 148, 107, 87, 108, 3, 0.701504
188, 3, wb, catch, NA, 999, 999, 3, 25, 147, 168, 148, 107, 87, 108, 1, 0.368602
188, 3, wb, filler, NA, 999, 999, 3, 26, 172, 74, 130, 146, 105, 69, 3, 1.94365
188, 3, wb, filler, NA, 999, 999, 3, 26, 172, 74, 130, 146, 105, 69, 2, 0.39242
188, 3, wb, filler, NA, 999, 999, 3, 27, 164, 98, 163, 177, 125, 63, 3, 0.710258
188, 3, wb, filler, NA, 999, 999, 3, 27, 164, 98, 163, 177, 125, 63, 2, 0.272683
188, 3, wb, attraction, a-b-da, 5, 1, 3, 28, 135, 60, 132, 58, 60, 135, 2, 1.23582
188, 3, wb, attraction, a-b-da, 5, 1, 3, 28, 135, 60, 132, 58, 60, 135, 3, 0.321449
188, 3, wb, attraction, a-b-da, 2, 3, 3, 29, 195, 120, 120, 195, 193, 119, 2, 4.45864
188, 3, wb, attraction, a-b-da, 2, 3, 3, 29, 195, 120, 120, 195, 193, 119, 1, 4.18986
188, 3, wb, attraction, a-b-da, 14, 3, 3, 30, 195, 120, 181, 111, 120, 195, 2, 5.05116
188, 3, wb, attraction, a-b-da, 14, 3, 3, 30, 195, 120, 181, 111, 120, 195, 3, 0.454849
188, 3, wb, attraction, a-b-da, 5, 2, 3, 31, 165, 90, 90, 165, 161, 88, 1, 2.88268
188, 3, wb, attraction, a-b-da, 5, 2, 3, 31, 165, 90, 90, 165, 161, 88, 2, 0.925719
188, 3, wb, catch, NA, 999, 999, 3, 32, 96, 99, 126, 129, 175, 140, 1, 0.750076
188, 3, wb, catch, NA, 999, 999, 3, 32, 96, 99, 126, 129, 175, 140, 3, 0.343045
188, 3, wb, catch, NA, 999, 999, 3, 33, 168, 147, 112, 143, 107, 88, 3, 0.846964
188, 3, wb, catch, NA, 999, 999, 3, 33, 168, 147, 112, 143, 107, 88, 1, 0.588128
188, 3, wb, attraction, a-b-da, 5, 3, 3, 34, 195, 120, 190, 117, 120, 195, 2, 4.20247
188, 3, wb, attraction, a-b-da, 5, 3, 3, 34, 195, 120, 190, 117, 120, 195, 3, 0.328432
188, 3, wb, filler, NA, 999, 999, 3, 35, 188, 105, 176, 129, 179, 146, 1, 1.93682
188, 3, wb, filler, NA, 999, 999, 3, 35, 188, 105, 176, 129, 179, 146, 3, 2.70575
188, 3, wb, attraction, a-b-da, 9, 2, 3, 36, 157, 86, 165, 90, 90, 165, 1, 3.07475
188, 3, wb, attraction, a-b-da, 9, 2, 3, 36, 157, 86, 165, 90, 90, 165, 3, 0.525741
188, 3, wb, filler, NA, 999, 999, 3, 37, 107, 69, 189, 128, 134, 169, 1, 0.670194
188, 3, wb, filler, NA, 999, 999, 3, 37, 107, 69, 189, 128, 134, 169, 3, 0.426575
188, 3, wb, attraction, a-b-db, 2, 3, 4, 1, 195, 120, 120, 195, 119, 193, 3, 1.55902
188, 3, wb, attraction, a-b-db, 2, 3, 4, 1, 195, 120, 120, 195, 119, 193, 1, 0.5753
188, 3, wb, attraction, a-b-db, 2, 1, 4, 2, 59, 134, 60, 135, 135, 60, 3, 0.71761
188, 3, wb, attraction, a-b-db, 2, 1, 4, 2, 59, 134, 60, 135, 135, 60, 2, 0.408051
188, 3, wb, attraction, a-b-da, 2, 2, 4, 3, 165, 90, 163, 89, 90, 165, 3, 6.24521
188, 3, wb, attraction, a-b-da, 2, 2, 4, 3, 165, 90, 163, 89, 90, 165, 2, 0.464475
188, 3, wb, filler, NA, 999, 999, 4, 4, 102, 147, 89, 180, 118, 114, 1, 1.21167
188, 3, wb, filler, NA, 999, 999, 4, 4, 102, 147, 89, 180, 118, 114, 2, 2.49797
188, 3, wb, attraction, a-b-db, 5, 2, 4, 5, 165, 90, 88, 161, 90, 165, 2, 2.92303
188, 3, wb, attraction, a-b-db, 5, 2, 4, 5, 165, 90, 88, 161, 90, 165, 3, 0.436331
188, 3, wb, attraction, a-b-da, 5, 2, 4, 6, 161, 88, 165, 90, 90, 165, 3, 1.13655
188, 3, wb, attraction, a-b-da, 5, 2, 4, 6, 161, 88, 165, 90, 90, 165, 1, 0.570224
188, 3, wb, attraction, a-b-db, 5, 3, 4, 7, 117, 190, 120, 195, 195, 120, 2, 2.34536
188, 3, wb, attraction, a-b-db, 5, 3, 4, 7, 117, 190, 120, 195, 195, 120, 3, 0.913974
188, 3, wb, attraction, a-b-da, 14, 2, 4, 8, 90, 165, 165, 90, 153, 83, 3, 3.32307
188, 3, wb, attraction, a-b-da, 14, 2, 4, 8, 90, 165, 165, 90, 153, 83, 1, 0.427908
188, 3, wb, catch, NA, 999, 999, 4, 9, 143, 172, 69, 126, 157, 98, 2, 0.776395
188, 3, wb, catch, NA, 999, 999, 4, 9, 143, 172, 69, 126, 157, 98, 1, 0.31205
188, 3, wb, attraction, a-b-da, 9, 1, 4, 10, 60, 135, 129, 57, 135, 60, 1, 3.69725
188, 3, wb, attraction, a-b-da, 9, 1, 4, 10, 60, 135, 129, 57, 135, 60, 3, 0.771465
188, 3, wb, attraction, a-b-db, 14, 1, 4, 11, 60, 135, 56, 125, 135, 60, 2, 1.75444
188, 3, wb, attraction, a-b-db, 14, 1, 4, 11, 60, 135, 56, 125, 135, 60, 3, 0.378568
188, 3, wb, attraction, a-b-db, 2, 2, 4, 12, 89, 163, 90, 165, 165, 90, 2, 2.5531
188, 3, wb, attraction, a-b-db, 2, 2, 4, 12, 89, 163, 90, 165, 165, 90, 3, 0.633544
188, 3, wb, filler, NA, 999, 999, 4, 13, 80, 84, 172, 109, 152, 99, 1, 0.613915
188, 3, wb, filler, NA, 999, 999, 4, 13, 80, 84, 172, 109, 152, 99, 2, 0.62048
188, 3, wb, attraction, a-b-da, 14, 3, 4, 14, 195, 120, 181, 111, 120, 195, 2, 1.57753
188, 3, wb, attraction, a-b-da, 14, 3, 4, 14, 195, 120, 181, 111, 120, 195, 3, 0.544878
188, 3, wb, attraction, a-b-db, 9, 1, 4, 15, 57, 129, 135, 60, 60, 135, 3, 2.73664
188, 3, wb, attraction, a-b-db, 9, 1, 4, 15, 57, 129, 135, 60, 60, 135, 1, 0.313725
188, 3, wb, filler, NA, 999, 999, 4, 16, 190, 69, 60, 91, 69, 186, 2, 0.811106
188, 3, wb, filler, NA, 999, 999, 4, 16, 190, 69, 60, 91, 69, 186, 3, 0.985519
188, 3, wb, filler, NA, 999, 999, 4, 17, 134, 58, 64, 63, 86, 68, 2, 0.759867
188, 3, wb, filler, NA, 999, 999, 4, 17, 134, 58, 64, 63, 86, 68, 1, 0.960075
188, 3, wb, attraction, a-b-db, 14, 2, 4, 18, 165, 90, 83, 153, 90, 165, 1, 1.84707
188, 3, wb, attraction, a-b-db, 14, 2, 4, 18, 165, 90, 83, 153, 90, 165, 3, 0.515753
188, 3, wb, filler, NA, 999, 999, 4, 19, 168, 78, 58, 77, 148, 64, 2, 0.725013
188, 3, wb, filler, NA, 999, 999, 4, 19, 168, 78, 58, 77, 148, 64, 1, 0.966702
188, 3, wb, filler, NA, 999, 999, 4, 20, 124, 192, 153, 93, 80, 69, 3, 0.837602
188, 3, wb, filler, NA, 999, 999, 4, 20, 124, 192, 153, 93, 80, 69, 1, 0.322733
188, 3, wb, attraction, a-b-da, 9, 2, 4, 21, 90, 165, 157, 86, 165, 90, 1, 0.907894
188, 3, wb, attraction, a-b-da, 9, 2, 4, 21, 90, 165, 157, 86, 165, 90, 3, 0.438245
188, 3, wb, attraction, a-b-da, 14, 1, 4, 22, 60, 135, 125, 56, 135, 60, 1, 0.914589
188, 3, wb, attraction, a-b-da, 14, 1, 4, 22, 60, 135, 125, 56, 135, 60, 3, 0.621105
188, 3, wb, filler, NA, 999, 999, 4, 23, 159, 154, 161, 62, 88, 122, 2, 1.28215
188, 3, wb, filler, NA, 999, 999, 4, 23, 159, 154, 161, 62, 88, 122, 1, 0.341687
188, 3, wb, attraction, a-b-da, 5, 3, 4, 24, 195, 120, 190, 117, 120, 195, 2, 1.9255
188, 3, wb, attraction, a-b-da, 5, 3, 4, 24, 195, 120, 190, 117, 120, 195, 3, 0.390894
188, 3, wb, filler, NA, 999, 999, 4, 25, 88, 67, 179, 118, 65, 144, 1, 0.700627
188, 3, wb, filler, NA, 999, 999, 4, 25, 88, 67, 179, 118, 65, 144, 2, 0.319829
188, 3, wb, attraction, a-b-da, 2, 1, 4, 26, 134, 59, 135, 60, 60, 135, 2, 1.68105
188, 3, wb, attraction, a-b-da, 2, 1, 4, 26, 134, 59, 135, 60, 60, 135, 3, 0.29239
188, 3, wb, filler, NA, 999, 999, 4, 27, 171, 146, 171, 56, 69, 107, 3, 1.18229
188, 3, wb, filler, NA, 999, 999, 4, 27, 171, 146, 171, 56, 69, 107, 1, 0.309881
188, 3, wb, attraction, a-b-db, 5, 1, 4, 28, 135, 60, 58, 132, 60, 135, 3, 3.11113
188, 3, wb, attraction, a-b-db, 5, 1, 4, 28, 135, 60, 58, 132, 60, 135, 1, 0.968786
188, 3, wb, attraction, a-b-da, 5, 1, 4, 29, 60, 135, 132, 58, 135, 60, 3, 0.775704
188, 3, wb, attraction, a-b-da, 5, 1, 4, 29, 60, 135, 132, 58, 135, 60, 2, 0.351435
188, 3, wb, attraction, a-b-db, 14, 3, 4, 30, 120, 195, 195, 120, 111, 181, 3, 2.76723
188, 3, wb, attraction, a-b-db, 14, 3, 4, 30, 120, 195, 195, 120, 111, 181, 1, 0.415028
188, 3, wb, catch, NA, 999, 999, 4, 31, 178, 137, 83, 112, 134, 121, 2, 0.732159
188, 3, wb, catch, NA, 999, 999, 4, 31, 178, 137, 83, 112, 134, 121, 1, 0.381855
188, 3, wb, filler, NA, 999, 999, 4, 32, 74, 156, 191, 112, 184, 165, 1, 0.652416
188, 3, wb, filler, NA, 999, 999, 4, 32, 74, 156, 191, 112, 184, 165, 3, 0.601548
188, 3, wb, attraction, a-b-da, 9, 3, 4, 33, 186, 114, 195, 120, 120, 195, 2, 0.77541
188, 3, wb, attraction, a-b-da, 9, 3, 4, 33, 186, 114, 195, 120, 120, 195, 1, 0.366895
188, 3, wb, attraction, a-b-db, 9, 2, 4, 34, 165, 90, 90, 165, 86, 157, 3, 1.39025
188, 3, wb, attraction, a-b-db, 9, 2, 4, 34, 165, 90, 90, 165, 86, 157, 2, 0.244984
188, 3, wb, catch, NA, 999, 999, 4, 35, 112, 143, 195, 120, 91, 104, 3, 0.544957
188, 3, wb, catch, NA, 999, 999, 4, 35, 112, 143, 195, 120, 91, 104, 2, 0.914093
188, 3, wb, attraction, a-b-da, 2, 3, 4, 36, 120, 195, 195, 120, 193, 119, 3, 0.843212
188, 3, wb, attraction, a-b-da, 2, 3, 4, 36, 120, 195, 195, 120, 193, 119, 2, 0.576105
188, 3, wb, attraction, a-b-db, 9, 3, 4, 37, 120, 195, 195, 120, 114, 186, 1, 0.638335
188, 3, wb, attraction, a-b-db, 9, 3, 4, 37, 120, 195, 195, 120, 114, 186, 3, 0.291512
188, 3, wb, catch, NA, 999, 999, 5, 1, 98, 97, 133, 122, 121, 194, 1, 2.53201
188, 3, wb, catch, NA, 999, 999, 5, 1, 98, 97, 133, 122, 121, 194, 3, 0.453269
188, 3, wb, filler, NA, 999, 999, 5, 2, 108, 188, 149, 74, 159, 167, 2, 1.14502
188, 3, wb, filler, NA, 999, 999, 5, 2, 108, 188, 149, 74, 159, 167, 3, 0.25008
188, 3, wb, attraction, a-b-da, 2, 1, 5, 3, 60, 135, 134, 59, 135, 60, 3, 0.877877
188, 3, wb, attraction, a-b-da, 2, 1, 5, 3, 60, 135, 134, 59, 135, 60, 1, 0.585546
188, 3, wb, filler, NA, 999, 999, 5, 4, 141, 145, 180, 140, 158, 114, 3, 1.79211
188, 3, wb, filler, NA, 999, 999, 5, 4, 141, 145, 180, 140, 158, 114, 2, 0.462855
188, 3, wb, attraction, a-b-da, 9, 1, 5, 5, 129, 57, 135, 60, 60, 135, 1, 0.889844
188, 3, wb, attraction, a-b-da, 9, 1, 5, 5, 129, 57, 135, 60, 60, 135, 3, 0.436923
188, 3, wb, filler, NA, 999, 999, 5, 6, 129, 92, 194, 57, 105, 169, 2, 4.76946
188, 3, wb, filler, NA, 999, 999, 5, 6, 129, 92, 194, 57, 105, 169, 3, 0.448731
188, 3, wb, attraction, a-b-db, 5, 3, 5, 7, 120, 195, 117, 190, 195, 120, 1, 2.94833
188, 3, wb, attraction, a-b-db, 5, 3, 5, 7, 120, 195, 117, 190, 195, 120, 3, 0.604764
188, 3, wb, filler, NA, 999, 999, 5, 8, 116, 163, 98, 170, 191, 61, 3, 1.09055
188, 3, wb, filler, NA, 999, 999, 5, 8, 116, 163, 98, 170, 191, 61, 1, 0.669363
188, 3, wb, attraction, a-b-db, 9, 2, 5, 9, 86, 157, 90, 165, 165, 90, 3, 4.43265
188, 3, wb, attraction, a-b-db, 9, 2, 5, 9, 86, 157, 90, 165, 165, 90, 2, 0.829001
188, 3, wb, attraction, a-b-da, 14, 2, 5, 10, 90, 165, 153, 83, 165, 90, 2, 1.85735
188, 3, wb, attraction, a-b-da, 14, 2, 5, 10, 90, 165, 153, 83, 165, 90, 3, 0.405506
188, 3, wb, attraction, a-b-db, 2, 1, 5, 11, 59, 134, 60, 135, 135, 60, 1, 2.41931
188, 3, wb, attraction, a-b-db, 2, 1, 5, 11, 59, 134, 60, 135, 135, 60, 3, 0.801167
188, 3, wb, attraction, a-b-db, 14, 3, 5, 12, 120, 195, 111, 181, 195, 120, 3, 1.07882
188, 3, wb, attraction, a-b-db, 14, 3, 5, 12, 120, 195, 111, 181, 195, 120, 1, 0.690532
188, 3, wb, attraction, a-b-db, 9, 3, 5, 13, 114, 186, 120, 195, 195, 120, 3, 3.86029
188, 3, wb, attraction, a-b-db, 9, 3, 5, 13, 114, 186, 120, 195, 195, 120, 1, 0.383747
188, 3, wb, filler, NA, 999, 999, 5, 14, 118, 121, 70, 111, 60, 98, 3, 0.702219
188, 3, wb, filler, NA, 999, 999, 5, 14, 118, 121, 70, 111, 60, 98, 1, 0.537253
188, 3, wb, attraction, a-b-da, 9, 3, 5, 15, 195, 120, 120, 195, 186, 114, 3, 1.67374
188, 3, wb, attraction, a-b-da, 9, 3, 5, 15, 195, 120, 120, 195, 186, 114, 1, 0.685185
188, 3, wb, attraction, a-b-da, 9, 2, 5, 16, 90, 165, 165, 90, 157, 86, 3, 3.3436
188, 3, wb, attraction, a-b-da, 9, 2, 5, 16, 90, 165, 165, 90, 157, 86, 1, 2.24786
188, 3, wb, attraction, a-b-da, 5, 1, 5, 17, 60, 135, 132, 58, 135, 60, 2, 1.77903
188, 3, wb, attraction, a-b-da, 5, 1, 5, 17, 60, 135, 132, 58, 135, 60, 3, 0.527949
188, 3, wb, attraction, a-b-da, 2, 3, 5, 18, 195, 120, 193, 119, 120, 195, 3, 1.04297
188, 3, wb, attraction, a-b-da, 2, 3, 5, 18, 195, 120, 193, 119, 120, 195, 1, 0.439861
188, 3, wb, filler, NA, 999, 999, 5, 19, 161, 74, 93, 194, 91, 127, 1, 1.41226
188, 3, wb, filler, NA, 999, 999, 5, 19, 161, 74, 93, 194, 91, 127, 2, 0.658571
188, 3, wb, catch, NA, 999, 999, 5, 20, 148, 107, 104, 91, 130, 185, 2, 1.10199
188, 3, wb, catch, NA, 999, 999, 5, 20, 148, 107, 104, 91, 130, 185, 3, 0.352634
188, 3, wb, attraction, a-b-da, 5, 3, 5, 21, 120, 195, 195, 120, 190, 117, 3, 1.32046
188, 3, wb, attraction, a-b-da, 5, 3, 5, 21, 120, 195, 195, 120, 190, 117, 2, 0.594633
188, 3, wb, attraction, a-b-db, 14, 1, 5, 22, 56, 125, 60, 135, 135, 60, 1, 1.30439
188, 3, wb, attraction, a-b-db, 14, 1, 5, 22, 56, 125, 60, 135, 135, 60, 3, 1.15534
188, 3, wb, filler, NA, 999, 999, 5, 23, 69, 101, 184, 186, 190, 134, 1, 0.60282
188, 3, wb, filler, NA, 999, 999, 5, 23, 69, 101, 184, 186, 190, 134, 2, 0.265928
188, 3, wb, filler, NA, 999, 999, 5, 24, 125, 134, 157, 80, 108, 166, 2, 2.99727
188, 3, wb, filler, NA, 999, 999, 5, 24, 125, 134, 157, 80, 108, 166, 3, 5.60363
188, 3, wb, attraction, a-b-db, 5, 1, 5, 25, 135, 60, 60, 135, 58, 132, 3, 1.0238
188, 3, wb, attraction, a-b-db, 5, 1, 5, 25, 135, 60, 60, 135, 58, 132, 2, 0.997351
188, 3, wb, attraction, a-b-da, 14, 1, 5, 26, 60, 135, 125, 56, 135, 60, 2, 1.90698
188, 3, wb, attraction, a-b-da, 14, 1, 5, 26, 60, 135, 125, 56, 135, 60, 3, 0.357023
188, 3, wb, attraction, a-b-db, 2, 2, 5, 27, 165, 90, 89, 163, 90, 165, 3, 3.20426
188, 3, wb, attraction, a-b-db, 2, 2, 5, 27, 165, 90, 89, 163, 90, 165, 2, 0.754594
188, 3, wb, attraction, a-b-db, 9, 1, 5, 28, 60, 135, 135, 60, 57, 129, 3, 1.67431
188, 3, wb, attraction, a-b-db, 9, 1, 5, 28, 60, 135, 135, 60, 57, 129, 2, 0.453786
188, 3, wb, attraction, a-b-db, 14, 2, 5, 29, 90, 165, 83, 153, 165, 90, 2, 1.57764
188, 3, wb, attraction, a-b-db, 14, 2, 5, 29, 90, 165, 83, 153, 165, 90, 1, 0.312949
188, 3, wb, attraction, a-b-da, 5, 2, 5, 30, 161, 88, 165, 90, 90, 165, 3, 1.61014
188, 3, wb, attraction, a-b-da, 5, 2, 5, 30, 161, 88, 165, 90, 90, 165, 2, 0.440255
188, 3, wb, attraction, a-b-db, 2, 3, 5, 31, 119, 193, 195, 120, 120, 195, 3, 1.85212
188, 3, wb, attraction, a-b-db, 2, 3, 5, 31, 119, 193, 195, 120, 120, 195, 2, 0.496935
188, 3, wb, filler, NA, 999, 999, 5, 32, 90, 115, 83, 65, 62, 66, 3, 1.13064
188, 3, wb, filler, NA, 999, 999, 5, 32, 90, 115, 83, 65, 62, 66, 1, 0.316295
188, 3, wb, attraction, a-b-da, 2, 2, 5, 33, 90, 165, 163, 89, 165, 90, 3, 1.01344
188, 3, wb, attraction, a-b-da, 2, 2, 5, 33, 90, 165, 163, 89, 165, 90, 1, 0.339726
188, 3, wb, filler, NA, 999, 999, 5, 34, 133, 81, 61, 140, 188, 75, 2, 1.98824
188, 3, wb, filler, NA, 999, 999, 5, 34, 133, 81, 61, 140, 188, 75, 3, 0.347673
188, 3, wb, attraction, a-b-db, 5, 2, 5, 35, 90, 165, 165, 90, 88, 161, 3, 3.00343
188, 3, wb, attraction, a-b-db, 5, 2, 5, 35, 90, 165, 165, 90, 88, 161, 1, 0.553735
188, 3, wb, attraction, a-b-da, 14, 3, 5, 36, 181, 111, 120, 195, 195, 120, 1, 1.0975
188, 3, wb, attraction, a-b-da, 14, 3, 5, 36, 181, 111, 120, 195, 195, 120, 3, 0.492562
188, 3, wb, catch, NA, 999, 999, 5, 37, 105, 90, 138, 117, 120, 195, 1, 1.83034
188, 3, wb, catch, NA, 999, 999, 5, 37, 105, 90, 138, 117, 120, 195, 3, 1.19624
188, 3, wb, attraction, a-b-db, 5, 1, 6, 1, 58, 132, 135, 60, 60, 135, 1, 7.70523
188, 3, wb, attraction, a-b-db, 5, 1, 6, 1, 58, 132, 135, 60, 60, 135, 2, 0.3382
188, 3, wb, attraction, a-b-da, 14, 3, 6, 2, 195, 120, 120, 195, 181, 111, 3, 1.0667
188, 3, wb, attraction, a-b-da, 14, 3, 6, 2, 195, 120, 120, 195, 181, 111, 1, 0.535005
188, 3, wb, attraction, a-b-da, 2, 2, 6, 3, 165, 90, 90, 165, 163, 89, 3, 1.48749
188, 3, wb, attraction, a-b-da, 2, 2, 6, 3, 165, 90, 90, 165, 163, 89, 1, 0.418943
188, 3, wb, filler, NA, 999, 999, 6, 4, 136, 99, 135, 84, 147, 112, 2, 4.63219
188, 3, wb, filler, NA, 999, 999, 6, 4, 136, 99, 135, 84, 147, 112, 3, 0.660597
188, 3, wb, attraction, a-b-db, 14, 3, 6, 5, 120, 195, 195, 120, 111, 181, 3, 0.839705
188, 3, wb, attraction, a-b-db, 14, 3, 6, 5, 120, 195, 195, 120, 111, 181, 2, 0.388838
188, 3, wb, attraction, a-b-da, 9, 1, 6, 6, 129, 57, 60, 135, 135, 60, 1, 6.62729
188, 3, wb, attraction, a-b-da, 9, 1, 6, 6, 129, 57, 60, 135, 135, 60, 3, 1.03114
188, 3, wb, attraction, a-b-da, 2, 3, 6, 7, 193, 119, 195, 120, 120, 195, 3, 1.05942
188, 3, wb, attraction, a-b-da, 2, 3, 6, 7, 193, 119, 195, 120, 120, 195, 1, 0.471698
188, 3, wb, attraction, a-b-da, 9, 3, 6, 8, 186, 114, 120, 195, 195, 120, 2, 1.49891
188, 3, wb, attraction, a-b-da, 9, 3, 6, 8, 186, 114, 120, 195, 195, 120, 3, 0.637732
188, 3, wb, filler, NA, 999, 999, 6, 9, 163, 195, 156, 103, 152, 183, 2, 0.698051
188, 3, wb, filler, NA, 999, 999, 6, 9, 163, 195, 156, 103, 152, 183, 1, 0.301228
188, 3, wb, catch, NA, 999, 999, 6, 10, 139, 116, 69, 126, 123, 192, 2, 0.671012
188, 3, wb, catch, NA, 999, 999, 6, 10, 139, 116, 69, 126, 123, 192, 3, 0.315425
188, 3, wb, attraction, a-b-db, 14, 2, 6, 11, 83, 153, 90, 165, 165, 90, 3, 1.22873
188, 3, wb, attraction, a-b-db, 14, 2, 6, 11, 83, 153, 90, 165, 165, 90, 2, 1.01823
188, 3, wb, filler, NA, 999, 999, 6, 12, 162, 137, 59, 94, 104, 157, 2, 0.679333
188, 3, wb, filler, NA, 999, 999, 6, 12, 162, 137, 59, 94, 104, 157, 1, 0.427018
188, 3, wb, attraction, a-b-db, 9, 3, 6, 13, 120, 195, 114, 186, 195, 120, 2, 2.69533
188, 3, wb, attraction, a-b-db, 9, 3, 6, 13, 120, 195, 114, 186, 195, 120, 3, 0.609952
188, 3, wb, attraction, a-b-db, 5, 3, 6, 14, 117, 190, 120, 195, 195, 120, 3, 1.49499
188, 3, wb, attraction, a-b-db, 5, 3, 6, 14, 117, 190, 120, 195, 195, 120, 1, 0.64979
188, 3, wb, attraction, a-b-db, 2, 1, 6, 15, 135, 60, 60, 135, 59, 134, 1, 1.33354
188, 3, wb, attraction, a-b-db, 2, 1, 6, 15, 135, 60, 60, 135, 59, 134, 2, 0.743208
188, 3, wb, attraction, a-b-da, 5, 1, 6, 16, 60, 135, 135, 60, 132, 58, 1, 0.91082
188, 3, wb, attraction, a-b-da, 5, 1, 6, 16, 60, 135, 135, 60, 132, 58, 2, 0.657191
188, 3, wb, filler, NA, 999, 999, 6, 17, 115, 129, 111, 66, 162, 60, 2, 1.0842
188, 3, wb, filler, NA, 999, 999, 6, 17, 115, 129, 111, 66, 162, 60, 1, 0.311815
188, 3, wb, attraction, a-b-da, 5, 2, 6, 18, 161, 88, 165, 90, 90, 165, 1, 1.60909
188, 3, wb, attraction, a-b-da, 5, 2, 6, 18, 161, 88, 165, 90, 90, 165, 3, 0.29514
188, 3, wb, attraction, a-b-da, 14, 1, 6, 19, 60, 135, 125, 56, 135, 60, 2, 1.29703
188, 3, wb, attraction, a-b-da, 14, 1, 6, 19, 60, 135, 125, 56, 135, 60, 3, 0.379902
188, 3, wb, attraction, a-b-db, 14, 1, 6, 20, 135, 60, 60, 135, 56, 125, 3, 0.938499
188, 3, wb, attraction, a-b-db, 14, 1, 6, 20, 135, 60, 60, 135, 56, 125, 2, 0.307629
188, 3, wb, filler, NA, 999, 999, 6, 21, 62, 188, 156, 143, 194, 108, 1, 1.05273
188, 3, wb, filler, NA, 999, 999, 6, 21, 62, 188, 156, 143, 194, 108, 2, 2.61755
188, 3, wb, attraction, a-b-db, 2, 2, 6, 22, 165, 90, 89, 163, 90, 165, 2, 2.87007
188, 3, wb, attraction, a-b-db, 2, 2, 6, 22, 165, 90, 89, 163, 90, 165, 3, 0.385747
188, 3, wb, filler, NA, 999, 999, 6, 23, 120, 76, 120, 93, 103, 119, 1, 2.38438
188, 3, wb, filler, NA, 999, 999, 6, 23, 120, 76, 120, 93, 103, 119, 2, 0.263543
188, 3, wb, attraction, a-b-da, 5, 3, 6, 24, 195, 120, 190, 117, 120, 195, 2, 3.52279
188, 3, wb, attraction, a-b-da, 5, 3, 6, 24, 195, 120, 190, 117, 120, 195, 1, 1.28359
188, 3, wb, attraction, a-b-da, 9, 2, 6, 25, 90, 165, 165, 90, 157, 86, 3, 1.75776
188, 3, wb, attraction, a-b-da, 9, 2, 6, 25, 90, 165, 165, 90, 157, 86, 1, 0.542015
188, 3, wb, catch, NA, 999, 999, 6, 26, 101, 154, 157, 158, 103, 92, 3, 0.637673
188, 3, wb, catch, NA, 999, 999, 6, 26, 101, 154, 157, 158, 103, 92, 2, 0.378801
188, 3, wb, catch, NA, 999, 999, 6, 27, 125, 130, 123, 72, 139, 176, 2, 0.649155
188, 3, wb, catch, NA, 999, 999, 6, 27, 125, 130, 123, 72, 139, 176, 3, 0.34245
188, 3, wb, attraction, a-b-da, 14, 2, 6, 28, 153, 83, 90, 165, 165, 90, 1, 1.06218
188, 3, wb, attraction, a-b-da, 14, 2, 6, 28, 153, 83, 90, 165, 165, 90, 2, 0.338471
188, 3, wb, attraction, a-b-db, 2, 3, 6, 29, 120, 195, 195, 120, 119, 193, 2, 3.28305
188, 3, wb, attraction, a-b-db, 2, 3, 6, 29, 120, 195, 195, 120, 119, 193, 3, 0.886065
188, 3, wb, attraction, a-b-db, 5, 2, 6, 30, 88, 161, 90, 165, 165, 90, 3, 1.53627
188, 3, wb, attraction, a-b-db, 5, 2, 6, 30, 88, 161, 90, 165, 165, 90, 2, 1.3299
188, 3, wb, attraction, a-b-db, 9, 1, 6, 31, 57, 129, 60, 135, 135, 60, 1, 3.5379
188, 3, wb, attraction, a-b-db, 9, 1, 6, 31, 57, 129, 60, 135, 135, 60, 3, 1.78682
188, 3, wb, filler, NA, 999, 999, 6, 32, 125, 147, 73, 129, 71, 63, 3, 1.27288
188, 3, wb, filler, NA, 999, 999, 6, 32, 125, 147, 73, 129, 71, 63, 1, 0.404396
188, 3, wb, filler, NA, 999, 999, 6, 33, 85, 100, 164, 75, 174, 154, 1, 1.2902
188, 3, wb, filler, NA, 999, 999, 6, 33, 85, 100, 164, 75, 174, 154, 3, 0.229135
188, 3, wb, filler, NA, 999, 999, 6, 34, 139, 100, 192, 166, 121, 191, 1, 0.769604
188, 3, wb, filler, NA, 999, 999, 6, 34, 139, 100, 192, 166, 121, 191, 2, 0.394203
188, 3, wb, attraction, a-b-db, 9, 2, 6, 35, 165, 90, 86, 157, 90, 165, 1, 11.5519
188, 3, wb, attraction, a-b-db, 9, 2, 6, 35, 165, 90, 86, 157, 90, 165, 3, 0.837655
188, 3, wb, filler, NA, 999, 999, 6, 36, 83, 65, 164, 181, 191, 131, 1, 0.642083
188, 3, wb, filler, NA, 999, 999, 6, 36, 83, 65, 164, 181, 191, 131, 2, 0.231176
188, 3, wb, attraction, a-b-da, 2, 1, 6, 37, 134, 59, 60, 135, 135, 60, 2, 2.59555
188, 3, wb, attraction, a-b-da, 2, 1, 6, 37, 134, 59, 60, 135, 135, 60, 1, 1.1701
188, 3, wb, filler, NA, 999, 999, 7, 1, 61, 158, 159, 88, 172, 61, 1, 3.76895
188, 3, wb, filler, NA, 999, 999, 7, 1, 61, 158, 159, 88, 172, 61, 2, 0.328474
188, 3, wb, attraction, a-b-db, 2, 2, 7, 2, 165, 90, 89, 163, 90, 165, 2, 4.41707
188, 3, wb, attraction, a-b-db, 2, 2, 7, 2, 165, 90, 89, 163, 90, 165, 3, 1.54233
188, 3, wb, attraction, a-b-db, 9, 2, 7, 3, 165, 90, 86, 157, 90, 165, 2, 7.50167
188, 3, wb, attraction, a-b-db, 9, 2, 7, 3, 165, 90, 86, 157, 90, 165, 1, 0.646691
188, 3, wb, attraction, a-b-da, 5, 3, 7, 4, 195, 120, 190, 117, 120, 195, 2, 2.34644
188, 3, wb, attraction, a-b-da, 5, 3, 7, 4, 195, 120, 190, 117, 120, 195, 3, 1.3391
188, 3, wb, catch, NA, 999, 999, 7, 5, 114, 81, 138, 177, 118, 137, 1, 1.01913
188, 3, wb, catch, NA, 999, 999, 7, 5, 114, 81, 138, 177, 118, 137, 2, 0.399199
188, 3, wb, attraction, a-b-db, 2, 1, 7, 6, 59, 134, 60, 135, 135, 60, 2, 2.35131
188, 3, wb, attraction, a-b-db, 2, 1, 7, 6, 59, 134, 60, 135, 135, 60, 3, 0.503899
188, 3, wb, attraction, a-b-da, 9, 2, 7, 7, 90, 165, 165, 90, 157, 86, 3, 1.34581
188, 3, wb, attraction, a-b-da, 9, 2, 7, 7, 90, 165, 165, 90, 157, 86, 2, 0.346511
188, 3, wb, filler, NA, 999, 999, 7, 8, 58, 92, 136, 115, 160, 125, 1, 0.67432
188, 3, wb, filler, NA, 999, 999, 7, 8, 58, 92, 136, 115, 160, 125, 3, 0.630175
188, 3, wb, filler, NA, 999, 999, 7, 9, 68, 157, 175, 194, 184, 59, 3, 0.906737
188, 3, wb, filler, NA, 999, 999, 7, 9, 68, 157, 175, 194, 184, 59, 2, 0.252939
188, 3, wb, attraction, a-b-da, 2, 2, 7, 10, 165, 90, 163, 89, 90, 165, 2, 1.03278
188, 3, wb, attraction, a-b-da, 2, 2, 7, 10, 165, 90, 163, 89, 90, 165, 3, 0.390467
188, 3, wb, attraction, a-b-da, 9, 3, 7, 11, 186, 114, 195, 120, 120, 195, 2, 1.38822
188, 3, wb, attraction, a-b-da, 9, 3, 7, 11, 186, 114, 195, 120, 120, 195, 3, 0.451802
188, 3, wb, attraction, a-b-da, 2, 1, 7, 12, 135, 60, 60, 135, 134, 59, 3, 2.34365
188, 3, wb, attraction, a-b-da, 2, 1, 7, 12, 135, 60, 60, 135, 134, 59, 1, 0.848229
188, 3, wb, catch, NA, 999, 999, 7, 13, 130, 65, 131, 124, 184, 131, 1, 0.715776
188, 3, wb, catch, NA, 999, 999, 7, 13, 130, 65, 131, 124, 184, 131, 3, 0.494233
188, 3, wb, filler, NA, 999, 999, 7, 14, 190, 114, 129, 112, 119, 105, 3, 0.696111
188, 3, wb, filler, NA, 999, 999, 7, 14, 190, 114, 129, 112, 119, 105, 1, 0.691087
188, 3, wb, attraction, a-b-da, 2, 3, 7, 15, 195, 120, 120, 195, 193, 119, 3, 1.3168
188, 3, wb, attraction, a-b-da, 2, 3, 7, 15, 195, 120, 120, 195, 193, 119, 2, 0.791172
188, 3, wb, attraction, a-b-db, 5, 3, 7, 16, 120, 195, 195, 120, 117, 190, 3, 2.2208
188, 3, wb, attraction, a-b-db, 5, 3, 7, 16, 120, 195, 195, 120, 117, 190, 1, 0.266729
188, 3, wb, attraction, a-b-db, 9, 1, 7, 17, 60, 135, 135, 60, 57, 129, 3, 1.50188
188, 3, wb, attraction, a-b-db, 9, 1, 7, 17, 60, 135, 135, 60, 57, 129, 1, 0.360989
188, 3, wb, attraction, a-b-da, 5, 1, 7, 18, 60, 135, 135, 60, 132, 58, 3, 0.751995
188, 3, wb, attraction, a-b-da, 5, 1, 7, 18, 60, 135, 135, 60, 132, 58, 2, 0.377003
188, 3, wb, attraction, a-b-db, 5, 2, 7, 19, 165, 90, 90, 165, 88, 161, 3, 0.719549
188, 3, wb, attraction, a-b-db, 5, 2, 7, 19, 165, 90, 90, 165, 88, 161, 2, 0.721881
188, 3, wb, filler, NA, 999, 999, 7, 20, 69, 108, 181, 66, 74, 127, 1, 1.1869
188, 3, wb, filler, NA, 999, 999, 7, 20, 69, 108, 181, 66, 74, 127, 2, 1.11461
188, 3, wb, attraction, a-b-da, 5, 2, 7, 21, 161, 88, 165, 90, 90, 165, 1, 1.61153
188, 3, wb, attraction, a-b-da, 5, 2, 7, 21, 161, 88, 165, 90, 90, 165, 3, 0.305687
188, 3, wb, attraction, a-b-db, 5, 1, 7, 22, 58, 132, 60, 135, 135, 60, 3, 0.819542
188, 3, wb, attraction, a-b-db, 5, 1, 7, 22, 58, 132, 60, 135, 135, 60, 2, 0.297798
188, 3, wb, attraction, a-b-da, 9, 1, 7, 23, 60, 135, 135, 60, 129, 57, 1, 1.55569
188, 3, wb, attraction, a-b-da, 9, 1, 7, 23, 60, 135, 135, 60, 129, 57, 2, 0.387836
188, 3, wb, attraction, a-b-db, 9, 3, 7, 24, 120, 195, 195, 120, 114, 186, 3, 2.13847
188, 3, wb, attraction, a-b-db, 9, 3, 7, 24, 120, 195, 195, 120, 114, 186, 1, 0.579051
188, 3, wb, attraction, a-b-da, 14, 2, 7, 25, 90, 165, 153, 83, 165, 90, 2, 1.72933
188, 3, wb, attraction, a-b-da, 14, 2, 7, 25, 90, 165, 153, 83, 165, 90, 3, 0.83483
188, 3, wb, attraction, a-b-db, 14, 3, 7, 26, 195, 120, 111, 181, 120, 195, 3, 1.40717
188, 3, wb, attraction, a-b-db, 14, 3, 7, 26, 195, 120, 111, 181, 120, 195, 1, 0.41334
188, 3, wb, filler, NA, 999, 999, 7, 27, 160, 153, 74, 103, 81, 101, 2, 1.30658
188, 3, wb, filler, NA, 999, 999, 7, 27, 160, 153, 74, 103, 81, 101, 1, 0.492778
188, 3, wb, filler, NA, 999, 999, 7, 28, 127, 185, 117, 173, 151, 111, 3, 0.854564
188, 3, wb, filler, NA, 999, 999, 7, 28, 127, 185, 117, 173, 151, 111, 1, 0.626918
188, 3, wb, attraction, a-b-da, 14, 1, 7, 29, 125, 56, 135, 60, 60, 135, 1, 1.55942
188, 3, wb, attraction, a-b-da, 14, 1, 7, 29, 125, 56, 135, 60, 60, 135, 2, 0.495494
188, 3, wb, filler, NA, 999, 999, 7, 30, 117, 66, 178, 104, 87, 133, 1, 1.04132
188, 3, wb, filler, NA, 999, 999, 7, 30, 117, 66, 178, 104, 87, 133, 2, 0.222331
188, 3, wb, attraction, a-b-db, 14, 2, 7, 31, 83, 153, 90, 165, 165, 90, 1, 2.06756
188, 3, wb, attraction, a-b-db, 14, 2, 7, 31, 83, 153, 90, 165, 165, 90, 2, 0.239464
188, 3, wb, attraction, a-b-db, 2, 3, 7, 32, 195, 120, 120, 195, 119, 193, 3, 1.06802
188, 3, wb, attraction, a-b-db, 2, 3, 7, 32, 195, 120, 120, 195, 119, 193, 2, 0.560274
188, 3, wb, attraction, a-b-db, 14, 1, 7, 33, 135, 60, 56, 125, 60, 135, 2, 1.70338
188, 3, wb, attraction, a-b-db, 14, 1, 7, 33, 135, 60, 56, 125, 60, 135, 3, 0.394122
188, 3, wb, catch, NA, 999, 999, 7, 34, 140, 115, 125, 190, 60, 135, 3, 1.39196
188, 3, wb, catch, NA, 999, 999, 7, 34, 140, 115, 125, 190, 60, 135, 2, 0.742843
188, 3, wb, filler, NA, 999, 999, 7, 35, 66, 120, 143, 137, 184, 63, 1, 2.32659
188, 3, wb, filler, NA, 999, 999, 7, 35, 66, 120, 143, 137, 184, 63, 2, 0.623826
188, 3, wb, filler, NA, 999, 999, 7, 36, 167, 166, 153, 140, 57, 150, 3, 0.828153
188, 3, wb, filler, NA, 999, 999, 7, 36, 167, 166, 153, 140, 57, 150, 1, 0.34588
188, 3, wb, attraction, a-b-da, 14, 3, 7, 37, 120, 195, 195, 120, 181, 111, 3, 0.921727
188, 3, wb, attraction, a-b-da, 14, 3, 7, 37, 120, 195, 195, 120, 181, 111, 2, 0.291457
188, 3, wb, attraction, a-b-db, 2, 3, 8, 1, 195, 120, 120, 195, 119, 193, 2, 1.17337
188, 3, wb, attraction, a-b-db, 2, 3, 8, 1, 195, 120, 120, 195, 119, 193, 3, 0.237003
188, 3, wb, catch, NA, 999, 999, 8, 2, 112, 143, 156, 159, 99, 96, 3, 0.689622
188, 3, wb, catch, NA, 999, 999, 8, 2, 112, 143, 156, 159, 99, 96, 2, 0.308774
188, 3, wb, attraction, a-b-db, 2, 2, 8, 3, 89, 163, 90, 165, 165, 90, 2, 1.53382
188, 3, wb, attraction, a-b-db, 2, 2, 8, 3, 89, 163, 90, 165, 165, 90, 3, 0.287294
188, 3, wb, filler, NA, 999, 999, 8, 4, 152, 195, 167, 101, 92, 143, 3, 1.12181
188, 3, wb, filler, NA, 999, 999, 8, 4, 152, 195, 167, 101, 92, 143, 1, 0.491351
188, 3, wb, attraction, a-b-da, 2, 2, 8, 5, 165, 90, 163, 89, 90, 165, 3, 0.781262
188, 3, wb, attraction, a-b-da, 2, 2, 8, 5, 165, 90, 163, 89, 90, 165, 1, 1.34082
188, 3, wb, attraction, a-b-da, 5, 3, 8, 6, 120, 195, 195, 120, 190, 117, 3, 2.0445
188, 3, wb, attraction, a-b-da, 5, 3, 8, 6, 120, 195, 195, 120, 190, 117, 2, 0.449017
188, 3, wb, attraction, a-b-da, 2, 1, 8, 7, 60, 135, 135, 60, 134, 59, 1, 1.18896
188, 3, wb, attraction, a-b-da, 2, 1, 8, 7, 60, 135, 135, 60, 134, 59, 2, 0.451728
188, 3, wb, attraction, a-b-da, 9, 3, 8, 8, 195, 120, 186, 114, 120, 195, 2, 1.28776
188, 3, wb, attraction, a-b-da, 9, 3, 8, 8, 195, 120, 186, 114, 120, 195, 1, 0.594524
188, 3, wb, attraction, a-b-db, 2, 1, 8, 9, 60, 135, 135, 60, 59, 134, 3, 2.81636
188, 3, wb, attraction, a-b-db, 2, 1, 8, 9, 60, 135, 135, 60, 59, 134, 1, 0.805971
188, 3, wb, filler, NA, 999, 999, 8, 10, 133, 165, 89, 126, 75, 82, 3, 0.691628
188, 3, wb, filler, NA, 999, 999, 8, 10, 133, 165, 89, 126, 75, 82, 1, 0.358745
188, 3, wb, catch, NA, 999, 999, 8, 11, 135, 180, 78, 117, 118, 137, 2, 0.80586
188, 3, wb, catch, NA, 999, 999, 8, 11, 135, 180, 78, 117, 118, 137, 1, 0.380371
188, 3, wb, filler, NA, 999, 999, 8, 12, 155, 71, 130, 174, 107, 146, 1, 0.642812
188, 3, wb, filler, NA, 999, 999, 8, 12, 155, 71, 130, 174, 107, 146, 2, 0.423874
188, 3, wb, attraction, a-b-da, 5, 2, 8, 13, 165, 90, 90, 165, 161, 88, 3, 2.02049
188, 3, wb, attraction, a-b-da, 5, 2, 8, 13, 165, 90, 90, 165, 161, 88, 1, 0.650393
188, 3, wb, attraction, a-b-db, 9, 1, 8, 14, 57, 129, 135, 60, 60, 135, 3, 1.14211
188, 3, wb, attraction, a-b-db, 9, 1, 8, 14, 57, 129, 135, 60, 60, 135, 2, 0.367044
188, 3, wb, filler, NA, 999, 999, 8, 15, 181, 90, 141, 106, 128, 87, 3, 0.694295
188, 3, wb, filler, NA, 999, 999, 8, 15, 181, 90, 141, 106, 128, 87, 2, 0.321363
188, 3, wb, filler, NA, 999, 999, 8, 16, 89, 177, 89, 183, 90, 138, 3, 0.98651
188, 3, wb, filler, NA, 999, 999, 8, 16, 89, 177, 89, 183, 90, 138, 1, 0.386229
188, 3, wb, attraction, a-b-da, 14, 3, 8, 17, 195, 120, 120, 195, 181, 111, 3, 1.91272
188, 3, wb, attraction, a-b-da, 14, 3, 8, 17, 195, 120, 120, 195, 181, 111, 2, 0.634722
188, 3, wb, attraction, a-b-db, 14, 2, 8, 18, 90, 165, 83, 153, 165, 90, 2, 1.03916
188, 3, wb, attraction, a-b-db, 14, 2, 8, 18, 90, 165, 83, 153, 165, 90, 3, 0.940123
188, 3, wb, attraction, a-b-da, 5, 1, 8, 19, 132, 58, 135, 60, 60, 135, 2, 0.875834
188, 3, wb, attraction, a-b-da, 5, 1, 8, 19, 132, 58, 135, 60, 60, 135, 1, 1.64757
188, 3, wb, attraction, a-b-da, 9, 1, 8, 20, 60, 135, 129, 57, 135, 60, 2, 1.25881
188, 3, wb, attraction, a-b-da, 9, 1, 8, 20, 60, 135, 129, 57, 135, 60, 3, 0.623126
188, 3, wb, attraction, a-b-db, 5, 3, 8, 21, 120, 195, 195, 120, 117, 190, 1, 1.58027
188, 3, wb, attraction, a-b-db, 5, 3, 8, 21, 120, 195, 195, 120, 117, 190, 3, 0.488127
188, 3, wb, attraction, a-b-da, 9, 2, 8, 22, 90, 165, 165, 90, 157, 86, 3, 1.99812
188, 3, wb, attraction, a-b-da, 9, 2, 8, 22, 90, 165, 165, 90, 157, 86, 2, 0.348795
188, 3, wb, attraction, a-b-db, 9, 2, 8, 23, 165, 90, 86, 157, 90, 165, 3, 1.93295
188, 3, wb, attraction, a-b-db, 9, 2, 8, 23, 165, 90, 86, 157, 90, 165, 2, 0.478128
188, 3, wb, filler, NA, 999, 999, 8, 24, 106, 188, 103, 126, 128, 58, 3, 1.38461
188, 3, wb, filler, NA, 999, 999, 8, 24, 106, 188, 103, 126, 128, 58, 1, 0.343971
188, 3, wb, attraction, a-b-db, 14, 3, 8, 25, 111, 181, 195, 120, 120, 195, 1, 1.56782
188, 3, wb, attraction, a-b-db, 14, 3, 8, 25, 111, 181, 195, 120, 120, 195, 3, 0.407978
188, 3, wb, attraction, a-b-db, 9, 3, 8, 26, 195, 120, 114, 186, 120, 195, 3, 1.27715
188, 3, wb, attraction, a-b-db, 9, 3, 8, 26, 195, 120, 114, 186, 120, 195, 1, 0.488827
188, 3, wb, catch, NA, 999, 999, 8, 27, 134, 121, 158, 157, 106, 89, 3, 0.635364
188, 3, wb, catch, NA, 999, 999, 8, 27, 134, 121, 158, 157, 106, 89, 2, 0.40099
188, 3, wb, attraction, a-b-da, 14, 2, 8, 28, 153, 83, 90, 165, 165, 90, 1, 1.72689
188, 3, wb, attraction, a-b-da, 14, 2, 8, 28, 153, 83, 90, 165, 165, 90, 2, 0.536373
188, 3, wb, filler, NA, 999, 999, 8, 29, 158, 158, 181, 72, 146, 108, 2, 0.760629
188, 3, wb, filler, NA, 999, 999, 8, 29, 158, 158, 181, 72, 146, 108, 1, 0.34519
188, 3, wb, attraction, a-b-da, 14, 1, 8, 30, 60, 135, 135, 60, 125, 56, 3, 0.784856
188, 3, wb, attraction, a-b-da, 14, 1, 8, 30, 60, 135, 135, 60, 125, 56, 2, 0.304713
188, 3, wb, attraction, a-b-db, 14, 1, 8, 31, 56, 125, 135, 60, 60, 135, 2, 1.59444
188, 3, wb, attraction, a-b-db, 14, 1, 8, 31, 56, 125, 135, 60, 60, 135, 3, 0.641399
188, 3, wb, filler, NA, 999, 999, 8, 32, 134, 80, 128, 191, 178, 89, 1, 0.805077
188, 3, wb, filler, NA, 999, 999, 8, 32, 134, 80, 128, 191, 178, 89, 2, 1.13943
188, 3, wb, attraction, a-b-db, 5, 1, 8, 33, 135, 60, 58, 132, 60, 135, 1, 1.35559
188, 3, wb, attraction, a-b-db, 5, 1, 8, 33, 135, 60, 58, 132, 60, 135, 3, 1.11587
188, 3, wb, attraction, a-b-da, 2, 3, 8, 34, 193, 119, 120, 195, 195, 120, 3, 1.89275
188, 3, wb, attraction, a-b-da, 2, 3, 8, 34, 193, 119, 120, 195, 195, 120, 2, 1.17559
188, 3, wb, filler, NA, 999, 999, 8, 35, 118, 116, 118, 95, 145, 146, 2, 0.725816
188, 3, wb, filler, NA, 999, 999, 8, 35, 118, 116, 118, 95, 145, 146, 3, 0.271476
188, 3, wb, filler, NA, 999, 999, 8, 36, 153, 174, 169, 128, 77, 129, 3, 0.722715
188, 3, wb, filler, NA, 999, 999, 8, 36, 153, 174, 169, 128, 77, 129, 1, 0.628685
188, 3, wb, attraction, a-b-db, 5, 2, 8, 37, 165, 90, 90, 165, 88, 161, 1, 4.17688
188, 3, wb, attraction, a-b-db, 5, 2, 8, 37, 165, 90, 90, 165, 88, 161, 3, 0.983585
