sub_n, computer_n, bw_cond, effect, set, distance, diag, block_n, trial_n, h1, w1, h2, w2, h3, w3, choice, rt 
118, 3, wb, practice, NA, 999, 999, 0, 1, 63, 166, 87, 89, 122, 116, 2, 6.82903
118, 3, wb, practice, NA, 999, 999, 0, 1, 63, 166, 87, 89, 122, 116, 1, 12.4888
118, 3, wb, practice, NA, 999, 999, 0, 2, 101, 83, 113, 76, 114, 169, 1, 5.02924
118, 3, wb, practice, NA, 999, 999, 0, 2, 101, 83, 113, 76, 114, 169, 3, 25.1866
118, 3, wb, practice, NA, 999, 999, 0, 3, 92, 146, 90, 80, 89, 176, 2, 4.36527
118, 3, wb, practice, NA, 999, 999, 0, 3, 92, 146, 90, 80, 89, 176, 3, 4.46093
118, 3, wb, attraction, a-b-db, 9, 1, 1, 1, 57, 129, 60, 135, 135, 60, 1, 8.52522
118, 3, wb, attraction, a-b-db, 9, 1, 1, 1, 57, 129, 60, 135, 135, 60, 3, 9.88442
118, 3, wb, filler, NA, 999, 999, 1, 2, 141, 71, 188, 119, 129, 191, 1, 3.59603
118, 3, wb, filler, NA, 999, 999, 1, 2, 141, 71, 188, 119, 129, 191, 3, 6.5222
118, 3, wb, attraction, a-b-db, 2, 3, 1, 3, 195, 120, 119, 193, 120, 195, 2, 5.83354
118, 3, wb, attraction, a-b-db, 2, 3, 1, 3, 195, 120, 119, 193, 120, 195, 3, 10.7417
118, 3, wb, attraction, a-b-da, 9, 2, 1, 4, 157, 86, 90, 165, 165, 90, 2, 23.5789
118, 3, wb, attraction, a-b-da, 9, 2, 1, 4, 157, 86, 90, 165, 165, 90, 3, 1.3155
118, 3, wb, attraction, a-b-db, 5, 3, 1, 5, 117, 190, 195, 120, 120, 195, 2, 5.8284
118, 3, wb, attraction, a-b-db, 5, 3, 1, 5, 117, 190, 195, 120, 120, 195, 3, 0.672497
118, 3, wb, attraction, a-b-da, 9, 3, 1, 6, 120, 195, 186, 114, 195, 120, 2, 8.95579
118, 3, wb, attraction, a-b-da, 9, 3, 1, 6, 120, 195, 186, 114, 195, 120, 1, 0.290116
118, 3, wb, attraction, a-b-db, 14, 2, 1, 7, 83, 153, 165, 90, 90, 165, 1, 5.57192
118, 3, wb, attraction, a-b-db, 14, 2, 1, 7, 83, 153, 165, 90, 90, 165, 3, 2.61078
118, 3, wb, attraction, a-b-da, 2, 3, 1, 8, 120, 195, 193, 119, 195, 120, 2, 10.5114
118, 3, wb, attraction, a-b-da, 2, 3, 1, 8, 120, 195, 193, 119, 195, 120, 3, 0.686692
118, 3, wb, filler, NA, 999, 999, 1, 9, 152, 69, 195, 80, 106, 116, 1, 1.61704
118, 3, wb, filler, NA, 999, 999, 1, 9, 152, 69, 195, 80, 106, 116, 2, 18.1832
118, 3, wb, catch, NA, 999, 999, 1, 10, 111, 84, 120, 195, 131, 124, 1, 2.61607
118, 3, wb, catch, NA, 999, 999, 1, 10, 111, 84, 120, 195, 131, 124, 2, 2.30205
118, 3, wb, attraction, a-b-db, 9, 2, 1, 11, 165, 90, 86, 157, 90, 165, 2, 5.10304
118, 3, wb, attraction, a-b-db, 9, 2, 1, 11, 165, 90, 86, 157, 90, 165, 3, 2.8008
118, 3, wb, attraction, a-b-db, 2, 1, 1, 12, 59, 134, 135, 60, 60, 135, 1, 6.21399
118, 3, wb, attraction, a-b-db, 2, 1, 1, 12, 59, 134, 135, 60, 60, 135, 2, 1.62653
118, 3, wb, filler, NA, 999, 999, 1, 13, 149, 179, 71, 159, 61, 146, 3, 2.55878
118, 3, wb, filler, NA, 999, 999, 1, 13, 149, 179, 71, 159, 61, 146, 1, 1.48658
118, 3, wb, attraction, a-b-da, 14, 3, 1, 14, 195, 120, 181, 111, 120, 195, 2, 2.83266
118, 3, wb, attraction, a-b-da, 14, 3, 1, 14, 195, 120, 181, 111, 120, 195, 1, 5.14984
118, 3, wb, filler, NA, 999, 999, 1, 15, 176, 107, 186, 139, 102, 123, 3, 2.33207
118, 3, wb, filler, NA, 999, 999, 1, 15, 176, 107, 186, 139, 102, 123, 2, 2.09335
118, 3, wb, attraction, a-b-da, 9, 1, 1, 16, 135, 60, 129, 57, 60, 135, 1, 17.7906
118, 3, wb, attraction, a-b-da, 9, 1, 1, 16, 135, 60, 129, 57, 60, 135, 3, 0.593049
118, 3, wb, filler, NA, 999, 999, 1, 17, 94, 195, 179, 187, 99, 137, 3, 3.27897
118, 3, wb, filler, NA, 999, 999, 1, 17, 94, 195, 179, 187, 99, 137, 2, 0.377742
118, 3, wb, attraction, a-b-da, 14, 2, 1, 18, 90, 165, 153, 83, 165, 90, 2, 2.21641
118, 3, wb, attraction, a-b-da, 14, 2, 1, 18, 90, 165, 153, 83, 165, 90, 3, 1.16614
118, 3, wb, filler, NA, 999, 999, 1, 19, 171, 78, 112, 90, 175, 125, 2, 1.86911
118, 3, wb, filler, NA, 999, 999, 1, 19, 171, 78, 112, 90, 175, 125, 3, 0.233082
118, 3, wb, attraction, a-b-db, 14, 1, 1, 20, 56, 125, 60, 135, 135, 60, 1, 2.84564
118, 3, wb, attraction, a-b-db, 14, 1, 1, 20, 56, 125, 60, 135, 135, 60, 3, 1.40222
118, 3, wb, attraction, a-b-db, 14, 3, 1, 21, 111, 181, 195, 120, 120, 195, 1, 7.6556
118, 3, wb, attraction, a-b-db, 14, 3, 1, 21, 111, 181, 195, 120, 120, 195, 2, 3.49857
118, 3, wb, catch, NA, 999, 999, 1, 22, 165, 150, 125, 70, 97, 158, 2, 1.68346
118, 3, wb, catch, NA, 999, 999, 1, 22, 165, 150, 125, 70, 97, 158, 1, 0.454828
118, 3, wb, filler, NA, 999, 999, 1, 23, 128, 177, 105, 175, 77, 102, 3, 0.674637
118, 3, wb, filler, NA, 999, 999, 1, 23, 128, 177, 105, 175, 77, 102, 1, 0.830494
118, 3, wb, attraction, a-b-da, 2, 1, 1, 24, 60, 135, 135, 60, 134, 59, 2, 9.77883
118, 3, wb, attraction, a-b-da, 2, 1, 1, 24, 60, 135, 135, 60, 134, 59, 3, 0.47166
118, 3, wb, attraction, a-b-db, 9, 3, 1, 25, 120, 195, 195, 120, 114, 186, 3, 3.87499
118, 3, wb, attraction, a-b-db, 9, 3, 1, 25, 120, 195, 195, 120, 114, 186, 2, 0.373533
118, 3, wb, attraction, a-b-db, 5, 2, 1, 26, 165, 90, 88, 161, 90, 165, 2, 11.276
118, 3, wb, attraction, a-b-db, 5, 2, 1, 26, 165, 90, 88, 161, 90, 165, 3, 3.76449
118, 3, wb, filler, NA, 999, 999, 1, 27, 83, 142, 189, 187, 71, 74, 3, 2.58647
118, 3, wb, filler, NA, 999, 999, 1, 27, 83, 142, 189, 187, 71, 74, 2, 0.377743
118, 3, wb, attraction, a-b-db, 5, 1, 1, 28, 135, 60, 58, 132, 60, 135, 2, 3.63219
118, 3, wb, attraction, a-b-db, 5, 1, 1, 28, 135, 60, 58, 132, 60, 135, 3, 4.50908
118, 3, wb, attraction, a-b-da, 14, 1, 1, 29, 60, 135, 135, 60, 125, 56, 2, 4.34103
118, 3, wb, attraction, a-b-da, 14, 1, 1, 29, 60, 135, 135, 60, 125, 56, 1, 5.59682
118, 3, wb, filler, NA, 999, 999, 1, 30, 93, 192, 168, 185, 110, 139, 3, 2.94507
118, 3, wb, filler, NA, 999, 999, 1, 30, 93, 192, 168, 185, 110, 139, 2, 0.417523
118, 3, wb, attraction, a-b-da, 2, 2, 1, 31, 165, 90, 90, 165, 163, 89, 1, 20.0066
118, 3, wb, attraction, a-b-da, 2, 2, 1, 31, 165, 90, 90, 165, 163, 89, 2, 3.0716
118, 3, wb, attraction, a-b-db, 2, 2, 1, 32, 89, 163, 165, 90, 90, 165, 2, 3.85792
118, 3, wb, attraction, a-b-db, 2, 2, 1, 32, 89, 163, 165, 90, 90, 165, 3, 11.4374
118, 3, wb, attraction, a-b-da, 5, 1, 1, 33, 132, 58, 135, 60, 60, 135, 1, 1.95846
118, 3, wb, attraction, a-b-da, 5, 1, 1, 33, 132, 58, 135, 60, 60, 135, 3, 2.2385
118, 3, wb, attraction, a-b-da, 5, 3, 1, 34, 190, 117, 120, 195, 195, 120, 1, 9.93037
118, 3, wb, attraction, a-b-da, 5, 3, 1, 34, 190, 117, 120, 195, 195, 120, 2, 0.249266
118, 3, wb, catch, NA, 999, 999, 1, 35, 129, 186, 106, 149, 93, 102, 3, 2.21307
118, 3, wb, catch, NA, 999, 999, 1, 35, 129, 186, 106, 149, 93, 102, 1, 0.963041
118, 3, wb, filler, NA, 999, 999, 1, 36, 148, 126, 159, 134, 190, 174, 1, 2.52206
118, 3, wb, filler, NA, 999, 999, 1, 36, 148, 126, 159, 134, 190, 174, 3, 0.987284
118, 3, wb, attraction, a-b-da, 5, 2, 1, 37, 161, 88, 165, 90, 90, 165, 1, 2.08958
118, 3, wb, attraction, a-b-da, 5, 2, 1, 37, 161, 88, 165, 90, 90, 165, 3, 0.772226
118, 3, wb, attraction, a-b-db, 5, 3, 2, 1, 117, 190, 120, 195, 195, 120, 1, 30.7712
118, 3, wb, attraction, a-b-db, 5, 3, 2, 1, 117, 190, 120, 195, 195, 120, 2, 1.50623
118, 3, wb, catch, NA, 999, 999, 2, 2, 154, 101, 103, 92, 126, 189, 2, 0.73172
118, 3, wb, catch, NA, 999, 999, 2, 2, 154, 101, 103, 92, 126, 189, 3, 0.813473
118, 3, wb, attraction, a-b-db, 14, 3, 2, 3, 111, 181, 195, 120, 120, 195, 1, 5.42642
118, 3, wb, attraction, a-b-db, 14, 3, 2, 3, 111, 181, 195, 120, 120, 195, 3, 5.5348
118, 3, wb, attraction, a-b-da, 5, 2, 2, 4, 165, 90, 90, 165, 161, 88, 3, 8.26963
118, 3, wb, attraction, a-b-da, 5, 2, 2, 4, 165, 90, 90, 165, 161, 88, 1, 0.591815
118, 3, wb, attraction, a-b-da, 9, 1, 2, 5, 60, 135, 129, 57, 135, 60, 2, 6.53336
118, 3, wb, attraction, a-b-da, 9, 1, 2, 5, 60, 135, 129, 57, 135, 60, 3, 6.60544
118, 3, wb, catch, NA, 999, 999, 2, 6, 117, 138, 167, 148, 104, 91, 3, 1.24917
118, 3, wb, catch, NA, 999, 999, 2, 6, 117, 138, 167, 148, 104, 91, 2, 0.494115
118, 3, wb, filler, NA, 999, 999, 2, 7, 65, 69, 135, 79, 100, 138, 1, 0.671957
118, 3, wb, filler, NA, 999, 999, 2, 7, 65, 69, 135, 79, 100, 138, 3, 4.49989
118, 3, wb, attraction, a-b-db, 9, 1, 2, 8, 60, 135, 135, 60, 57, 129, 2, 4.68439
118, 3, wb, attraction, a-b-db, 9, 1, 2, 8, 60, 135, 135, 60, 57, 129, 1, 2.79877
118, 3, wb, filler, NA, 999, 999, 2, 9, 105, 60, 115, 140, 166, 66, 1, 2.33194
118, 3, wb, filler, NA, 999, 999, 2, 9, 105, 60, 115, 140, 166, 66, 2, 0.389024
118, 3, wb, attraction, a-b-da, 9, 2, 2, 10, 165, 90, 90, 165, 157, 86, 3, 8.47563
118, 3, wb, attraction, a-b-da, 9, 2, 2, 10, 165, 90, 90, 165, 157, 86, 2, 5.34099
118, 3, wb, attraction, a-b-da, 9, 3, 2, 11, 120, 195, 195, 120, 186, 114, 3, 6.79585
118, 3, wb, attraction, a-b-da, 9, 3, 2, 11, 120, 195, 195, 120, 186, 114, 1, 0.553109
118, 3, wb, attraction, a-b-da, 5, 1, 2, 12, 60, 135, 132, 58, 135, 60, 2, 7.01682
118, 3, wb, attraction, a-b-da, 5, 1, 2, 12, 60, 135, 132, 58, 135, 60, 3, 3.30133
118, 3, wb, attraction, a-b-da, 2, 3, 2, 13, 193, 119, 195, 120, 120, 195, 1, 6.82215
118, 3, wb, attraction, a-b-da, 2, 3, 2, 13, 193, 119, 195, 120, 120, 195, 3, 12.9307
118, 3, wb, attraction, a-b-da, 14, 2, 2, 14, 165, 90, 153, 83, 90, 165, 2, 5.3033
118, 3, wb, attraction, a-b-da, 14, 2, 2, 14, 165, 90, 153, 83, 90, 165, 3, 0.624857
118, 3, wb, filler, NA, 999, 999, 2, 15, 60, 103, 106, 142, 159, 140, 1, 0.789314
118, 3, wb, filler, NA, 999, 999, 2, 15, 60, 103, 106, 142, 159, 140, 3, 0.500329
118, 3, wb, filler, NA, 999, 999, 2, 16, 110, 129, 189, 68, 184, 117, 2, 1.0542
118, 3, wb, filler, NA, 999, 999, 2, 16, 110, 129, 189, 68, 184, 117, 3, 7.09934
118, 3, wb, attraction, a-b-db, 9, 3, 2, 17, 114, 186, 195, 120, 120, 195, 1, 10.459
118, 3, wb, attraction, a-b-db, 9, 3, 2, 17, 114, 186, 195, 120, 120, 195, 3, 0.796241
118, 3, wb, attraction, a-b-db, 5, 1, 2, 18, 135, 60, 60, 135, 58, 132, 3, 4.06585
118, 3, wb, attraction, a-b-db, 5, 1, 2, 18, 135, 60, 60, 135, 58, 132, 1, 3.5493
118, 3, wb, filler, NA, 999, 999, 2, 19, 107, 132, 193, 121, 188, 71, 1, 3.18812
118, 3, wb, filler, NA, 999, 999, 2, 19, 107, 132, 193, 121, 188, 71, 2, 0.907013
118, 3, wb, filler, NA, 999, 999, 2, 20, 147, 176, 70, 165, 150, 175, 2, 4.94816
118, 3, wb, filler, NA, 999, 999, 2, 20, 147, 176, 70, 165, 150, 175, 3, 10.8521
118, 3, wb, attraction, a-b-da, 5, 3, 2, 21, 120, 195, 195, 120, 190, 117, 2, 4.19648
118, 3, wb, attraction, a-b-da, 5, 3, 2, 21, 120, 195, 195, 120, 190, 117, 1, 3.73035
118, 3, wb, attraction, a-b-da, 2, 2, 2, 22, 90, 165, 165, 90, 163, 89, 2, 2.16183
118, 3, wb, attraction, a-b-da, 2, 2, 2, 22, 90, 165, 165, 90, 163, 89, 1, 0.601738
118, 3, wb, catch, NA, 999, 999, 2, 23, 148, 167, 106, 89, 115, 140, 2, 0.759636
118, 3, wb, catch, NA, 999, 999, 2, 23, 148, 167, 106, 89, 115, 140, 1, 0.599983
118, 3, wb, attraction, a-b-db, 9, 2, 2, 24, 90, 165, 165, 90, 86, 157, 2, 0.741754
118, 3, wb, attraction, a-b-db, 9, 2, 2, 24, 90, 165, 165, 90, 86, 157, 1, 0.782833
118, 3, wb, attraction, a-b-da, 2, 1, 2, 25, 60, 135, 134, 59, 135, 60, 1, 8.04518
118, 3, wb, attraction, a-b-da, 2, 1, 2, 25, 60, 135, 134, 59, 135, 60, 2, 3.07199
118, 3, wb, attraction, a-b-da, 14, 3, 2, 26, 120, 195, 195, 120, 181, 111, 3, 8.25837
118, 3, wb, attraction, a-b-da, 14, 3, 2, 26, 120, 195, 195, 120, 181, 111, 1, 2.36435
118, 3, wb, attraction, a-b-db, 14, 2, 2, 27, 90, 165, 165, 90, 83, 153, 3, 7.09879
118, 3, wb, attraction, a-b-db, 14, 2, 2, 27, 90, 165, 165, 90, 83, 153, 1, 0.475956
118, 3, wb, attraction, a-b-db, 2, 1, 2, 28, 59, 134, 135, 60, 60, 135, 1, 2.59848
118, 3, wb, attraction, a-b-db, 2, 1, 2, 28, 59, 134, 135, 60, 60, 135, 3, 1.81285
118, 3, wb, attraction, a-b-da, 14, 1, 2, 29, 135, 60, 125, 56, 60, 135, 2, 11.5295
118, 3, wb, attraction, a-b-da, 14, 1, 2, 29, 135, 60, 125, 56, 60, 135, 1, 2.87203
118, 3, wb, attraction, a-b-db, 5, 2, 2, 30, 165, 90, 88, 161, 90, 165, 2, 11.1623
118, 3, wb, attraction, a-b-db, 5, 2, 2, 30, 165, 90, 88, 161, 90, 165, 1, 0.351503
118, 3, wb, attraction, a-b-db, 2, 3, 2, 31, 119, 193, 195, 120, 120, 195, 2, 13.8156
118, 3, wb, attraction, a-b-db, 2, 3, 2, 31, 119, 193, 195, 120, 120, 195, 3, 4.0417
118, 3, wb, filler, NA, 999, 999, 2, 32, 83, 157, 155, 174, 68, 78, 3, 0.948332
118, 3, wb, filler, NA, 999, 999, 2, 32, 83, 157, 155, 174, 68, 78, 2, 0.757324
118, 3, wb, filler, NA, 999, 999, 2, 33, 180, 96, 131, 166, 145, 180, 2, 2.2523
118, 3, wb, filler, NA, 999, 999, 2, 33, 180, 96, 131, 166, 145, 180, 3, 1.12913
118, 3, wb, attraction, a-b-db, 2, 2, 2, 34, 90, 165, 89, 163, 165, 90, 3, 2.19326
118, 3, wb, attraction, a-b-db, 2, 2, 2, 34, 90, 165, 89, 163, 165, 90, 2, 2.20784
118, 3, wb, filler, NA, 999, 999, 2, 35, 149, 171, 141, 109, 179, 138, 2, 1.49247
118, 3, wb, filler, NA, 999, 999, 2, 35, 149, 171, 141, 109, 179, 138, 3, 0.599392
118, 3, wb, filler, NA, 999, 999, 2, 36, 75, 144, 117, 139, 58, 135, 3, 1.525
118, 3, wb, filler, NA, 999, 999, 2, 36, 75, 144, 117, 139, 58, 135, 2, 0.798472
118, 3, wb, attraction, a-b-db, 14, 1, 2, 37, 135, 60, 60, 135, 56, 125, 3, 2.89233
118, 3, wb, attraction, a-b-db, 14, 1, 2, 37, 135, 60, 60, 135, 56, 125, 1, 4.43861
118, 3, wb, attraction, a-b-da, 2, 1, 3, 1, 60, 135, 135, 60, 134, 59, 2, 2.43384
118, 3, wb, attraction, a-b-da, 2, 1, 3, 1, 60, 135, 135, 60, 134, 59, 3, 5.87912
118, 3, wb, attraction, a-b-db, 2, 1, 3, 2, 135, 60, 60, 135, 59, 134, 2, 14.2398
118, 3, wb, attraction, a-b-db, 2, 1, 3, 2, 135, 60, 60, 135, 59, 134, 1, 4.53737
118, 3, wb, attraction, a-b-da, 9, 1, 3, 3, 129, 57, 60, 135, 135, 60, 1, 20.5765
118, 3, wb, attraction, a-b-da, 9, 1, 3, 3, 129, 57, 60, 135, 135, 60, 3, 1.54676
118, 3, wb, catch, NA, 999, 999, 3, 4, 87, 108, 127, 128, 178, 137, 1, 1.57022
118, 3, wb, catch, NA, 999, 999, 3, 4, 87, 108, 127, 128, 178, 137, 3, 0.562305
118, 3, wb, catch, NA, 999, 999, 3, 5, 193, 122, 118, 77, 118, 137, 2, 1.60143
118, 3, wb, catch, NA, 999, 999, 3, 5, 193, 122, 118, 77, 118, 137, 1, 0.720354
118, 3, wb, filler, NA, 999, 999, 3, 6, 88, 167, 147, 60, 128, 98, 2, 4.60942
118, 3, wb, filler, NA, 999, 999, 3, 6, 88, 167, 147, 60, 128, 98, 1, 0.638525
118, 3, wb, filler, NA, 999, 999, 3, 7, 68, 94, 121, 133, 127, 127, 1, 0.627022
118, 3, wb, filler, NA, 999, 999, 3, 7, 68, 94, 121, 133, 127, 127, 2, 4.02478
118, 3, wb, attraction, a-b-da, 2, 3, 3, 8, 120, 195, 193, 119, 195, 120, 2, 2.15617
118, 3, wb, attraction, a-b-da, 2, 3, 3, 8, 120, 195, 193, 119, 195, 120, 1, 5.16416
118, 3, wb, attraction, a-b-db, 14, 2, 3, 9, 90, 165, 165, 90, 83, 153, 1, 9.66584
118, 3, wb, attraction, a-b-db, 14, 2, 3, 9, 90, 165, 165, 90, 83, 153, 2, 8.08329
118, 3, wb, attraction, a-b-db, 5, 3, 3, 10, 195, 120, 120, 195, 117, 190, 3, 10.9074
118, 3, wb, attraction, a-b-db, 5, 3, 3, 10, 195, 120, 120, 195, 117, 190, 1, 4.92336
118, 3, wb, filler, NA, 999, 999, 3, 11, 87, 83, 144, 165, 155, 97, 1, 0.898929
118, 3, wb, filler, NA, 999, 999, 3, 11, 87, 83, 144, 165, 155, 97, 2, 0.686114
118, 3, wb, filler, NA, 999, 999, 3, 12, 56, 161, 62, 146, 140, 111, 2, 2.74455
118, 3, wb, filler, NA, 999, 999, 3, 12, 56, 161, 62, 146, 140, 111, 3, 2.43295
118, 3, wb, filler, NA, 999, 999, 3, 13, 112, 107, 132, 152, 78, 69, 3, 0.836893
118, 3, wb, filler, NA, 999, 999, 3, 13, 112, 107, 132, 152, 78, 69, 2, 0.585929
118, 3, wb, attraction, a-b-db, 14, 3, 3, 14, 120, 195, 111, 181, 195, 120, 2, 9.48033
118, 3, wb, attraction, a-b-db, 14, 3, 3, 14, 120, 195, 111, 181, 195, 120, 3, 2.50522
118, 3, wb, attraction, a-b-da, 2, 2, 3, 15, 90, 165, 165, 90, 163, 89, 2, 4.7464
118, 3, wb, attraction, a-b-da, 2, 2, 3, 15, 90, 165, 165, 90, 163, 89, 1, 1.35422
118, 3, wb, attraction, a-b-db, 5, 1, 3, 16, 60, 135, 135, 60, 58, 132, 2, 2.14565
118, 3, wb, attraction, a-b-db, 5, 1, 3, 16, 60, 135, 135, 60, 58, 132, 1, 8.93838
118, 3, wb, attraction, a-b-da, 5, 2, 3, 17, 165, 90, 90, 165, 161, 88, 3, 6.40827
118, 3, wb, attraction, a-b-da, 5, 2, 3, 17, 165, 90, 90, 165, 161, 88, 2, 0.596854
118, 3, wb, attraction, a-b-db, 2, 2, 3, 18, 165, 90, 90, 165, 89, 163, 1, 13.8426
118, 3, wb, attraction, a-b-db, 2, 2, 3, 18, 165, 90, 90, 165, 89, 163, 2, 2.10768
118, 3, wb, attraction, a-b-da, 9, 3, 3, 19, 195, 120, 120, 195, 186, 114, 3, 4.71616
118, 3, wb, attraction, a-b-da, 9, 3, 3, 19, 195, 120, 120, 195, 186, 114, 2, 0.285282
118, 3, wb, attraction, a-b-db, 14, 1, 3, 20, 56, 125, 60, 135, 135, 60, 1, 2.29599
118, 3, wb, attraction, a-b-db, 14, 1, 3, 20, 56, 125, 60, 135, 135, 60, 3, 1.32249
118, 3, wb, filler, NA, 999, 999, 3, 21, 160, 169, 155, 130, 90, 176, 3, 2.86724
118, 3, wb, filler, NA, 999, 999, 3, 21, 160, 169, 155, 130, 90, 176, 1, 0.239264
118, 3, wb, attraction, a-b-da, 9, 2, 3, 22, 90, 165, 165, 90, 157, 86, 2, 3.74767
118, 3, wb, attraction, a-b-da, 9, 2, 3, 22, 90, 165, 165, 90, 157, 86, 1, 0.675666
118, 3, wb, attraction, a-b-db, 9, 1, 3, 23, 57, 129, 60, 135, 135, 60, 1, 3.29412
118, 3, wb, attraction, a-b-db, 9, 1, 3, 23, 57, 129, 60, 135, 135, 60, 2, 0.232375
118, 3, wb, attraction, a-b-da, 5, 3, 3, 24, 195, 120, 120, 195, 190, 117, 1, 2.60504
118, 3, wb, attraction, a-b-da, 5, 3, 3, 24, 195, 120, 120, 195, 190, 117, 3, 3.64348
118, 3, wb, catch, NA, 999, 999, 3, 25, 100, 95, 148, 107, 147, 168, 1, 0.606137
118, 3, wb, catch, NA, 999, 999, 3, 25, 100, 95, 148, 107, 147, 168, 3, 0.724657
118, 3, wb, attraction, a-b-da, 14, 2, 3, 26, 165, 90, 90, 165, 153, 83, 3, 1.55705
118, 3, wb, attraction, a-b-da, 14, 2, 3, 26, 165, 90, 90, 165, 153, 83, 1, 1.60534
118, 3, wb, attraction, a-b-da, 14, 3, 3, 27, 195, 120, 120, 195, 181, 111, 3, 1.28257
118, 3, wb, attraction, a-b-da, 14, 3, 3, 27, 195, 120, 120, 195, 181, 111, 1, 1.18221
118, 3, wb, attraction, a-b-db, 5, 2, 3, 28, 88, 161, 165, 90, 90, 165, 2, 7.62051
118, 3, wb, attraction, a-b-db, 5, 2, 3, 28, 88, 161, 165, 90, 90, 165, 1, 1.13674
118, 3, wb, attraction, a-b-da, 5, 1, 3, 29, 135, 60, 132, 58, 60, 135, 2, 10.433
118, 3, wb, attraction, a-b-da, 5, 1, 3, 29, 135, 60, 132, 58, 60, 135, 3, 6.23564
118, 3, wb, filler, NA, 999, 999, 3, 30, 118, 114, 101, 182, 62, 113, 3, 0.83033
118, 3, wb, filler, NA, 999, 999, 3, 30, 118, 114, 101, 182, 62, 113, 2, 1.00398
118, 3, wb, filler, NA, 999, 999, 3, 31, 133, 183, 182, 195, 81, 157, 3, 1.0418
118, 3, wb, filler, NA, 999, 999, 3, 31, 133, 183, 182, 195, 81, 157, 2, 0.414768
118, 3, wb, attraction, a-b-da, 14, 1, 3, 32, 125, 56, 60, 135, 135, 60, 1, 6.89191
118, 3, wb, attraction, a-b-da, 14, 1, 3, 32, 125, 56, 60, 135, 135, 60, 3, 6.42106
118, 3, wb, attraction, a-b-db, 9, 2, 3, 33, 86, 157, 165, 90, 90, 165, 1, 12.1762
118, 3, wb, attraction, a-b-db, 9, 2, 3, 33, 86, 157, 165, 90, 90, 165, 3, 3.09238
118, 3, wb, filler, NA, 999, 999, 3, 34, 186, 128, 170, 98, 78, 184, 3, 3.46136
118, 3, wb, filler, NA, 999, 999, 3, 34, 186, 128, 170, 98, 78, 184, 1, 0.56095
118, 3, wb, attraction, a-b-db, 2, 3, 3, 35, 195, 120, 120, 195, 119, 193, 2, 13.552
118, 3, wb, attraction, a-b-db, 2, 3, 3, 35, 195, 120, 120, 195, 119, 193, 1, 0.461176
118, 3, wb, filler, NA, 999, 999, 3, 36, 164, 74, 130, 153, 174, 125, 1, 1.09623
118, 3, wb, filler, NA, 999, 999, 3, 36, 164, 74, 130, 153, 174, 125, 3, 3.62736
118, 3, wb, attraction, a-b-db, 9, 3, 3, 37, 120, 195, 114, 186, 195, 120, 2, 7.92664
118, 3, wb, attraction, a-b-db, 9, 3, 3, 37, 120, 195, 114, 186, 195, 120, 3, 2.95832
118, 3, wb, filler, NA, 999, 999, 4, 1, 193, 188, 133, 172, 77, 69, 3, 1.34052
118, 3, wb, filler, NA, 999, 999, 4, 1, 193, 188, 133, 172, 77, 69, 1, 0.517383
118, 3, wb, filler, NA, 999, 999, 4, 2, 183, 167, 176, 107, 170, 75, 3, 1.17453
118, 3, wb, filler, NA, 999, 999, 4, 2, 183, 167, 176, 107, 170, 75, 1, 0.510124
118, 3, wb, attraction, a-b-da, 5, 2, 4, 3, 161, 88, 165, 90, 90, 165, 1, 1.43927
118, 3, wb, attraction, a-b-da, 5, 2, 4, 3, 161, 88, 165, 90, 90, 165, 3, 0.932038
118, 3, wb, catch, NA, 999, 999, 4, 4, 121, 74, 105, 150, 176, 139, 1, 2.06832
118, 3, wb, catch, NA, 999, 999, 4, 4, 121, 74, 105, 150, 176, 139, 3, 0.664366
118, 3, wb, attraction, a-b-da, 5, 1, 4, 5, 60, 135, 135, 60, 132, 58, 3, 3.81949
118, 3, wb, attraction, a-b-da, 5, 1, 4, 5, 60, 135, 135, 60, 132, 58, 1, 0.520858
118, 3, wb, filler, NA, 999, 999, 4, 6, 87, 86, 126, 68, 102, 165, 1, 0.737941
118, 3, wb, filler, NA, 999, 999, 4, 6, 87, 86, 126, 68, 102, 165, 3, 0.299752
118, 3, wb, filler, NA, 999, 999, 4, 7, 75, 131, 74, 110, 135, 108, 2, 1.33358
118, 3, wb, filler, NA, 999, 999, 4, 7, 75, 131, 74, 110, 135, 108, 3, 1.02312
118, 3, wb, filler, NA, 999, 999, 4, 8, 76, 143, 147, 67, 147, 114, 2, 1.89213
118, 3, wb, filler, NA, 999, 999, 4, 8, 76, 143, 147, 67, 147, 114, 3, 0.254856
118, 3, wb, attraction, a-b-db, 9, 2, 4, 9, 86, 157, 165, 90, 90, 165, 2, 2.90681
118, 3, wb, attraction, a-b-db, 9, 2, 4, 9, 86, 157, 165, 90, 90, 165, 3, 1.67651
118, 3, wb, attraction, a-b-db, 5, 2, 4, 10, 90, 165, 88, 161, 165, 90, 2, 3.55849
118, 3, wb, attraction, a-b-db, 5, 2, 4, 10, 90, 165, 88, 161, 165, 90, 1, 1.86206
118, 3, wb, attraction, a-b-da, 2, 3, 4, 11, 193, 119, 195, 120, 120, 195, 2, 6.21673
118, 3, wb, attraction, a-b-da, 2, 3, 4, 11, 193, 119, 195, 120, 120, 195, 1, 0.341479
118, 3, wb, catch, NA, 999, 999, 4, 12, 160, 155, 107, 148, 93, 102, 3, 0.885208
118, 3, wb, catch, NA, 999, 999, 4, 12, 160, 155, 107, 148, 93, 102, 1, 0.264949
118, 3, wb, attraction, a-b-db, 14, 1, 4, 13, 60, 135, 135, 60, 56, 125, 2, 1.49222
118, 3, wb, attraction, a-b-db, 14, 1, 4, 13, 60, 135, 135, 60, 56, 125, 1, 1.53501
118, 3, wb, filler, NA, 999, 999, 4, 14, 63, 118, 187, 79, 76, 97, 3, 1.87924
118, 3, wb, filler, NA, 999, 999, 4, 14, 63, 118, 187, 79, 76, 97, 2, 2.00257
118, 3, wb, attraction, a-b-da, 2, 2, 4, 15, 90, 165, 163, 89, 165, 90, 2, 5.55994
118, 3, wb, attraction, a-b-da, 2, 2, 4, 15, 90, 165, 163, 89, 165, 90, 1, 3.53487
118, 3, wb, attraction, a-b-db, 2, 1, 4, 16, 60, 135, 135, 60, 59, 134, 2, 2.90234
118, 3, wb, attraction, a-b-db, 2, 1, 4, 16, 60, 135, 135, 60, 59, 134, 3, 1.51261
118, 3, wb, attraction, a-b-db, 2, 3, 4, 17, 195, 120, 120, 195, 119, 193, 1, 8.87341
118, 3, wb, attraction, a-b-db, 2, 3, 4, 17, 195, 120, 120, 195, 119, 193, 2, 0.419416
118, 3, wb, attraction, a-b-da, 9, 2, 4, 18, 165, 90, 90, 165, 157, 86, 3, 1.77649
118, 3, wb, attraction, a-b-da, 9, 2, 4, 18, 165, 90, 90, 165, 157, 86, 2, 0.695878
118, 3, wb, attraction, a-b-db, 9, 1, 4, 19, 135, 60, 57, 129, 60, 135, 1, 1.44167
118, 3, wb, attraction, a-b-db, 9, 1, 4, 19, 135, 60, 57, 129, 60, 135, 2, 0.382685
118, 3, wb, attraction, a-b-da, 9, 1, 4, 20, 60, 135, 129, 57, 135, 60, 2, 4.63699
118, 3, wb, attraction, a-b-da, 9, 1, 4, 20, 60, 135, 129, 57, 135, 60, 1, 3.44958
118, 3, wb, attraction, a-b-db, 5, 3, 4, 21, 120, 195, 195, 120, 117, 190, 2, 2.31649
118, 3, wb, attraction, a-b-db, 5, 3, 4, 21, 120, 195, 195, 120, 117, 190, 1, 0.646337
118, 3, wb, filler, NA, 999, 999, 4, 22, 90, 146, 84, 148, 114, 89, 3, 3.01016
118, 3, wb, filler, NA, 999, 999, 4, 22, 90, 146, 84, 148, 114, 89, 1, 0.77572
118, 3, wb, filler, NA, 999, 999, 4, 23, 190, 170, 139, 133, 123, 139, 3, 2.74215
118, 3, wb, filler, NA, 999, 999, 4, 23, 190, 170, 139, 133, 123, 139, 1, 0.630491
118, 3, wb, attraction, a-b-da, 2, 1, 4, 24, 135, 60, 60, 135, 134, 59, 2, 2.06699
118, 3, wb, attraction, a-b-da, 2, 1, 4, 24, 135, 60, 60, 135, 134, 59, 3, 9.5029
118, 3, wb, filler, NA, 999, 999, 4, 25, 157, 59, 121, 110, 182, 122, 1, 19.894
118, 3, wb, filler, NA, 999, 999, 4, 25, 157, 59, 121, 110, 182, 122, 3, 0.819087
118, 3, wb, attraction, a-b-da, 14, 2, 4, 26, 90, 165, 153, 83, 165, 90, 2, 2.66402
118, 3, wb, attraction, a-b-da, 14, 2, 4, 26, 90, 165, 153, 83, 165, 90, 1, 1.54786
118, 3, wb, attraction, a-b-db, 14, 2, 4, 27, 165, 90, 90, 165, 83, 153, 3, 1.81936
118, 3, wb, attraction, a-b-db, 14, 2, 4, 27, 165, 90, 90, 165, 83, 153, 2, 1.2654
118, 3, wb, attraction, a-b-db, 2, 2, 4, 28, 90, 165, 89, 163, 165, 90, 3, 1.25225
118, 3, wb, attraction, a-b-db, 2, 2, 4, 28, 90, 165, 89, 163, 165, 90, 1, 1.13711
118, 3, wb, attraction, a-b-db, 5, 1, 4, 29, 58, 132, 60, 135, 135, 60, 2, 5.54541
118, 3, wb, attraction, a-b-db, 5, 1, 4, 29, 58, 132, 60, 135, 135, 60, 3, 0.768997
118, 3, wb, attraction, a-b-db, 14, 3, 4, 30, 195, 120, 120, 195, 111, 181, 3, 3.78401
118, 3, wb, attraction, a-b-db, 14, 3, 4, 30, 195, 120, 120, 195, 111, 181, 2, 0.654799
118, 3, wb, attraction, a-b-da, 5, 3, 4, 31, 120, 195, 190, 117, 195, 120, 2, 1.45857
118, 3, wb, attraction, a-b-da, 5, 3, 4, 31, 120, 195, 190, 117, 195, 120, 1, 3.79875
118, 3, wb, attraction, a-b-da, 14, 3, 4, 32, 181, 111, 195, 120, 120, 195, 1, 1.26762
118, 3, wb, attraction, a-b-da, 14, 3, 4, 32, 181, 111, 195, 120, 120, 195, 2, 0.927759
118, 3, wb, filler, NA, 999, 999, 4, 33, 89, 192, 98, 178, 134, 186, 3, 1.19196
118, 3, wb, filler, NA, 999, 999, 4, 33, 89, 192, 98, 178, 134, 186, 1, 3.99097
118, 3, wb, attraction, a-b-da, 9, 3, 4, 34, 186, 114, 120, 195, 195, 120, 1, 1.77961
118, 3, wb, attraction, a-b-da, 9, 3, 4, 34, 186, 114, 120, 195, 195, 120, 2, 1.80311
118, 3, wb, catch, NA, 999, 999, 4, 35, 134, 181, 73, 122, 117, 138, 2, 0.648389
118, 3, wb, catch, NA, 999, 999, 4, 35, 134, 181, 73, 122, 117, 138, 1, 0.317496
118, 3, wb, attraction, a-b-da, 14, 1, 4, 36, 125, 56, 60, 135, 135, 60, 1, 2.7268
118, 3, wb, attraction, a-b-da, 14, 1, 4, 36, 125, 56, 60, 135, 135, 60, 3, 1.57589
118, 3, wb, attraction, a-b-db, 9, 3, 4, 37, 120, 195, 114, 186, 195, 120, 2, 1.73398
118, 3, wb, attraction, a-b-db, 9, 3, 4, 37, 120, 195, 114, 186, 195, 120, 3, 1.31144
118, 3, wb, attraction, a-b-db, 2, 1, 5, 1, 135, 60, 59, 134, 60, 135, 2, 11.9751
118, 3, wb, attraction, a-b-db, 2, 1, 5, 1, 135, 60, 59, 134, 60, 135, 3, 0.891178
118, 3, wb, attraction, a-b-db, 2, 2, 5, 2, 90, 165, 165, 90, 89, 163, 2, 1.8929
118, 3, wb, attraction, a-b-db, 2, 2, 5, 2, 90, 165, 165, 90, 89, 163, 3, 0.727579
118, 3, wb, filler, NA, 999, 999, 5, 3, 172, 129, 176, 151, 104, 62, 3, 0.811602
118, 3, wb, filler, NA, 999, 999, 5, 3, 172, 129, 176, 151, 104, 62, 2, 0.294232
118, 3, wb, filler, NA, 999, 999, 5, 4, 63, 57, 84, 190, 92, 174, 1, 1.73608
118, 3, wb, filler, NA, 999, 999, 5, 4, 63, 57, 84, 190, 92, 174, 2, 2.73762
118, 3, wb, catch, NA, 999, 999, 5, 5, 94, 161, 125, 190, 75, 120, 3, 1.09721
118, 3, wb, catch, NA, 999, 999, 5, 5, 94, 161, 125, 190, 75, 120, 2, 0.332371
118, 3, wb, attraction, a-b-db, 9, 1, 5, 6, 135, 60, 57, 129, 60, 135, 2, 2.01274
118, 3, wb, attraction, a-b-db, 9, 1, 5, 6, 135, 60, 57, 129, 60, 135, 3, 0.242714
118, 3, wb, attraction, a-b-da, 9, 2, 5, 7, 157, 86, 165, 90, 90, 165, 1, 3.15865
118, 3, wb, attraction, a-b-da, 9, 2, 5, 7, 157, 86, 165, 90, 90, 165, 3, 0.502312
118, 3, wb, attraction, a-b-db, 14, 3, 5, 8, 120, 195, 111, 181, 195, 120, 2, 2.68011
118, 3, wb, attraction, a-b-db, 14, 3, 5, 8, 120, 195, 111, 181, 195, 120, 3, 1.57132
118, 3, wb, attraction, a-b-da, 14, 1, 5, 9, 60, 135, 125, 56, 135, 60, 2, 1.68212
118, 3, wb, attraction, a-b-da, 14, 1, 5, 9, 60, 135, 125, 56, 135, 60, 3, 0.685397
118, 3, wb, attraction, a-b-db, 9, 3, 5, 10, 114, 186, 120, 195, 195, 120, 1, 1.40776
118, 3, wb, attraction, a-b-db, 9, 3, 5, 10, 114, 186, 120, 195, 195, 120, 3, 2.4142
118, 3, wb, attraction, a-b-da, 5, 2, 5, 11, 90, 165, 161, 88, 165, 90, 2, 10.5465
118, 3, wb, attraction, a-b-da, 5, 2, 5, 11, 90, 165, 161, 88, 165, 90, 1, 0.392584
118, 3, wb, attraction, a-b-da, 14, 3, 5, 12, 195, 120, 120, 195, 181, 111, 3, 2.80641
118, 3, wb, attraction, a-b-da, 14, 3, 5, 12, 195, 120, 120, 195, 181, 111, 2, 3.14021
118, 3, wb, attraction, a-b-da, 5, 1, 5, 13, 60, 135, 132, 58, 135, 60, 2, 2.27589
118, 3, wb, attraction, a-b-da, 5, 1, 5, 13, 60, 135, 132, 58, 135, 60, 3, 6.28709
118, 3, wb, attraction, a-b-da, 2, 2, 5, 14, 90, 165, 165, 90, 163, 89, 3, 2.63988
118, 3, wb, attraction, a-b-da, 2, 2, 5, 14, 90, 165, 165, 90, 163, 89, 1, 0.812199
118, 3, wb, attraction, a-b-db, 14, 1, 5, 15, 60, 135, 56, 125, 135, 60, 2, 2.34518
118, 3, wb, attraction, a-b-db, 14, 1, 5, 15, 60, 135, 56, 125, 135, 60, 3, 0.52179
118, 3, wb, filler, NA, 999, 999, 5, 16, 179, 125, 141, 77, 131, 97, 2, 2.15482
118, 3, wb, filler, NA, 999, 999, 5, 16, 179, 125, 141, 77, 131, 97, 1, 0.563559
118, 3, wb, filler, NA, 999, 999, 5, 17, 58, 147, 147, 145, 128, 129, 1, 0.802688
118, 3, wb, filler, NA, 999, 999, 5, 17, 58, 147, 147, 145, 128, 129, 2, 0.793655
118, 3, wb, filler, NA, 999, 999, 5, 18, 144, 145, 184, 164, 133, 73, 3, 0.58334
118, 3, wb, filler, NA, 999, 999, 5, 18, 144, 145, 184, 164, 133, 73, 2, 0.711118
118, 3, wb, attraction, a-b-db, 2, 3, 5, 19, 119, 193, 195, 120, 120, 195, 2, 1.56023
118, 3, wb, attraction, a-b-db, 2, 3, 5, 19, 119, 193, 195, 120, 120, 195, 1, 1.04037
118, 3, wb, attraction, a-b-db, 5, 3, 5, 20, 120, 195, 117, 190, 195, 120, 2, 5.15595
118, 3, wb, attraction, a-b-db, 5, 3, 5, 20, 120, 195, 117, 190, 195, 120, 1, 0.347657
118, 3, wb, attraction, a-b-da, 2, 1, 5, 21, 135, 60, 60, 135, 134, 59, 1, 1.31551
118, 3, wb, attraction, a-b-da, 2, 1, 5, 21, 135, 60, 60, 135, 134, 59, 2, 7.45378
118, 3, wb, filler, NA, 999, 999, 5, 22, 185, 173, 58, 168, 88, 99, 3, 0.935315
118, 3, wb, filler, NA, 999, 999, 5, 22, 185, 173, 58, 168, 88, 99, 1, 0.264928
118, 3, wb, attraction, a-b-da, 2, 3, 5, 23, 193, 119, 120, 195, 195, 120, 2, 15.3564
118, 3, wb, attraction, a-b-da, 2, 3, 5, 23, 193, 119, 120, 195, 195, 120, 1, 0.992841
118, 3, wb, filler, NA, 999, 999, 5, 24, 190, 136, 173, 118, 165, 112, 3, 3.13438
118, 3, wb, filler, NA, 999, 999, 5, 24, 190, 136, 173, 118, 165, 112, 1, 0.327507
118, 3, wb, catch, NA, 999, 999, 5, 25, 61, 134, 96, 159, 176, 139, 1, 0.783721
118, 3, wb, catch, NA, 999, 999, 5, 25, 61, 134, 96, 159, 176, 139, 3, 0.37562
118, 3, wb, attraction, a-b-db, 14, 2, 5, 26, 90, 165, 83, 153, 165, 90, 2, 2.35803
118, 3, wb, attraction, a-b-db, 14, 2, 5, 26, 90, 165, 83, 153, 165, 90, 3, 12.838
118, 3, wb, filler, NA, 999, 999, 5, 27, 110, 129, 90, 152, 182, 81, 1, 17.0947
118, 3, wb, filler, NA, 999, 999, 5, 27, 110, 129, 90, 152, 182, 81, 3, 0.67657
118, 3, wb, attraction, a-b-da, 14, 2, 5, 28, 165, 90, 153, 83, 90, 165, 2, 1.48688
118, 3, wb, attraction, a-b-da, 14, 2, 5, 28, 165, 90, 153, 83, 90, 165, 3, 0.266374
118, 3, wb, catch, NA, 999, 999, 5, 29, 81, 114, 157, 98, 143, 172, 1, 0.72565
118, 3, wb, catch, NA, 999, 999, 5, 29, 81, 114, 157, 98, 143, 172, 3, 0.559342
118, 3, wb, attraction, a-b-da, 5, 3, 5, 30, 195, 120, 120, 195, 190, 117, 1, 2.39846
118, 3, wb, attraction, a-b-da, 5, 3, 5, 30, 195, 120, 120, 195, 190, 117, 3, 1.08514
118, 3, wb, filler, NA, 999, 999, 5, 31, 128, 89, 148, 68, 123, 181, 1, 7.77533
118, 3, wb, filler, NA, 999, 999, 5, 31, 128, 89, 148, 68, 123, 181, 3, 0.452791
118, 3, wb, attraction, a-b-db, 5, 1, 5, 32, 58, 132, 60, 135, 135, 60, 3, 1.10466
118, 3, wb, attraction, a-b-db, 5, 1, 5, 32, 58, 132, 60, 135, 135, 60, 2, 0.979015
118, 3, wb, attraction, a-b-da, 9, 1, 5, 33, 60, 135, 129, 57, 135, 60, 2, 3.45739
118, 3, wb, attraction, a-b-da, 9, 1, 5, 33, 60, 135, 129, 57, 135, 60, 3, 0.260808
118, 3, wb, attraction, a-b-db, 5, 2, 5, 34, 88, 161, 90, 165, 165, 90, 1, 3.07201
118, 3, wb, attraction, a-b-db, 5, 2, 5, 34, 88, 161, 90, 165, 165, 90, 3, 3.10705
118, 3, wb, filler, NA, 999, 999, 5, 35, 180, 148, 74, 147, 166, 67, 2, 3.81203
118, 3, wb, filler, NA, 999, 999, 5, 35, 180, 148, 74, 147, 166, 67, 1, 0.361461
118, 3, wb, attraction, a-b-db, 9, 2, 5, 36, 165, 90, 86, 157, 90, 165, 2, 5.03267
118, 3, wb, attraction, a-b-db, 9, 2, 5, 36, 165, 90, 86, 157, 90, 165, 3, 0.324933
118, 3, wb, attraction, a-b-da, 9, 3, 5, 37, 120, 195, 186, 114, 195, 120, 2, 3.01356
118, 3, wb, attraction, a-b-da, 9, 3, 5, 37, 120, 195, 186, 114, 195, 120, 3, 5.09916
118, 3, wb, filler, NA, 999, 999, 6, 1, 103, 80, 77, 85, 127, 56, 2, 2.26763
118, 3, wb, filler, NA, 999, 999, 6, 1, 103, 80, 77, 85, 127, 56, 1, 7.47166
118, 3, wb, filler, NA, 999, 999, 6, 2, 133, 107, 109, 180, 114, 84, 3, 1.56042
118, 3, wb, filler, NA, 999, 999, 6, 2, 133, 107, 109, 180, 114, 84, 2, 0.440779
118, 3, wb, attraction, a-b-da, 2, 1, 6, 3, 60, 135, 135, 60, 134, 59, 3, 2.27636
118, 3, wb, attraction, a-b-da, 2, 1, 6, 3, 60, 135, 135, 60, 134, 59, 2, 3.51183
118, 3, wb, filler, NA, 999, 999, 6, 4, 151, 176, 163, 77, 193, 73, 2, 5.80797
118, 3, wb, filler, NA, 999, 999, 6, 4, 151, 176, 163, 77, 193, 73, 1, 0.292629
118, 3, wb, filler, NA, 999, 999, 6, 5, 88, 165, 81, 130, 63, 90, 3, 1.10247
118, 3, wb, filler, NA, 999, 999, 6, 5, 88, 165, 81, 130, 63, 90, 1, 0.28158
118, 3, wb, attraction, a-b-da, 5, 2, 6, 6, 165, 90, 161, 88, 90, 165, 1, 4.49207
118, 3, wb, attraction, a-b-da, 5, 2, 6, 6, 165, 90, 161, 88, 90, 165, 3, 0.509896
118, 3, wb, filler, NA, 999, 999, 6, 7, 141, 88, 154, 89, 98, 86, 3, 0.751013
118, 3, wb, filler, NA, 999, 999, 6, 7, 141, 88, 154, 89, 98, 86, 2, 8.12818
118, 3, wb, attraction, a-b-db, 14, 2, 6, 8, 165, 90, 90, 165, 83, 153, 3, 8.94216
118, 3, wb, attraction, a-b-db, 14, 2, 6, 8, 165, 90, 90, 165, 83, 153, 2, 0.460631
118, 3, wb, attraction, a-b-db, 14, 3, 6, 9, 195, 120, 120, 195, 111, 181, 3, 3.84786
118, 3, wb, attraction, a-b-db, 14, 3, 6, 9, 195, 120, 120, 195, 111, 181, 2, 5.99602
118, 3, wb, filler, NA, 999, 999, 6, 10, 160, 145, 126, 146, 99, 114, 3, 0.728031
118, 3, wb, filler, NA, 999, 999, 6, 10, 160, 145, 126, 146, 99, 114, 1, 0.289723
118, 3, wb, attraction, a-b-da, 14, 2, 6, 11, 153, 83, 90, 165, 165, 90, 1, 1.19552
118, 3, wb, attraction, a-b-da, 14, 2, 6, 11, 153, 83, 90, 165, 165, 90, 2, 0.314504
118, 3, wb, attraction, a-b-da, 2, 2, 6, 12, 90, 165, 163, 89, 165, 90, 2, 2.33164
118, 3, wb, attraction, a-b-da, 2, 2, 6, 12, 90, 165, 163, 89, 165, 90, 1, 2.46896
118, 3, wb, filler, NA, 999, 999, 6, 13, 95, 154, 194, 152, 109, 81, 3, 0.6874
118, 3, wb, filler, NA, 999, 999, 6, 13, 95, 154, 194, 152, 109, 81, 2, 0.443145
118, 3, wb, catch, NA, 999, 999, 6, 14, 76, 119, 183, 132, 159, 96, 1, 0.854921
118, 3, wb, catch, NA, 999, 999, 6, 14, 76, 119, 183, 132, 159, 96, 2, 0.843399
118, 3, wb, attraction, a-b-da, 9, 3, 6, 15, 186, 114, 120, 195, 195, 120, 3, 4.78305
118, 3, wb, attraction, a-b-da, 9, 3, 6, 15, 186, 114, 120, 195, 195, 120, 2, 4.44545
118, 3, wb, catch, NA, 999, 999, 6, 16, 153, 102, 169, 146, 81, 114, 3, 1.65598
118, 3, wb, catch, NA, 999, 999, 6, 16, 153, 102, 169, 146, 81, 114, 2, 0.316106
118, 3, wb, attraction, a-b-db, 9, 1, 6, 17, 57, 129, 60, 135, 135, 60, 1, 3.63738
118, 3, wb, attraction, a-b-db, 9, 1, 6, 17, 57, 129, 60, 135, 135, 60, 3, 0.69027
118, 3, wb, attraction, a-b-db, 14, 1, 6, 18, 60, 135, 135, 60, 56, 125, 3, 3.55595
118, 3, wb, attraction, a-b-db, 14, 1, 6, 18, 60, 135, 135, 60, 56, 125, 2, 2.12353
118, 3, wb, filler, NA, 999, 999, 6, 19, 182, 124, 136, 156, 183, 110, 3, 10.2281
118, 3, wb, filler, NA, 999, 999, 6, 19, 182, 124, 136, 156, 183, 110, 2, 0.902781
118, 3, wb, attraction, a-b-db, 2, 1, 6, 20, 135, 60, 59, 134, 60, 135, 1, 8.40851
118, 3, wb, attraction, a-b-db, 2, 1, 6, 20, 135, 60, 59, 134, 60, 135, 3, 4.83652
118, 3, wb, filler, NA, 999, 999, 6, 21, 193, 132, 143, 85, 103, 77, 3, 1.92018
118, 3, wb, filler, NA, 999, 999, 6, 21, 193, 132, 143, 85, 103, 77, 1, 0.393639
118, 3, wb, attraction, a-b-da, 2, 3, 6, 22, 195, 120, 193, 119, 120, 195, 2, 6.54339
118, 3, wb, attraction, a-b-da, 2, 3, 6, 22, 195, 120, 193, 119, 120, 195, 3, 0.262744
118, 3, wb, attraction, a-b-db, 2, 3, 6, 23, 195, 120, 119, 193, 120, 195, 1, 1.00191
118, 3, wb, attraction, a-b-db, 2, 3, 6, 23, 195, 120, 119, 193, 120, 195, 3, 0.720888
118, 3, wb, attraction, a-b-da, 5, 3, 6, 24, 195, 120, 120, 195, 190, 117, 3, 2.24199
118, 3, wb, attraction, a-b-da, 5, 3, 6, 24, 195, 120, 120, 195, 190, 117, 1, 0.302449
118, 3, wb, attraction, a-b-da, 14, 1, 6, 25, 60, 135, 125, 56, 135, 60, 2, 2.74436
118, 3, wb, attraction, a-b-da, 14, 1, 6, 25, 60, 135, 125, 56, 135, 60, 3, 1.16889
118, 3, wb, attraction, a-b-db, 5, 1, 6, 26, 58, 132, 60, 135, 135, 60, 1, 2.40798
118, 3, wb, attraction, a-b-db, 5, 1, 6, 26, 58, 132, 60, 135, 135, 60, 2, 3.92573
118, 3, wb, filler, NA, 999, 999, 6, 27, 168, 145, 190, 97, 161, 82, 3, 1.84505
118, 3, wb, filler, NA, 999, 999, 6, 27, 168, 145, 190, 97, 161, 82, 1, 0.449876
118, 3, wb, attraction, a-b-db, 5, 3, 6, 28, 195, 120, 120, 195, 117, 190, 3, 10.4136
118, 3, wb, attraction, a-b-db, 5, 3, 6, 28, 195, 120, 120, 195, 117, 190, 2, 0.904975
118, 3, wb, catch, NA, 999, 999, 6, 29, 93, 162, 114, 81, 132, 183, 2, 0.722616
118, 3, wb, catch, NA, 999, 999, 6, 29, 93, 162, 114, 81, 132, 183, 3, 0.268392
118, 3, wb, attraction, a-b-da, 9, 1, 6, 30, 135, 60, 60, 135, 129, 57, 3, 0.799562
118, 3, wb, attraction, a-b-da, 9, 1, 6, 30, 135, 60, 60, 135, 129, 57, 2, 0.678585
118, 3, wb, attraction, a-b-da, 14, 3, 6, 31, 120, 195, 181, 111, 195, 120, 2, 1.77708
118, 3, wb, attraction, a-b-da, 14, 3, 6, 31, 120, 195, 181, 111, 195, 120, 1, 0.600392
118, 3, wb, attraction, a-b-db, 9, 3, 6, 32, 120, 195, 114, 186, 195, 120, 3, 2.29419
118, 3, wb, attraction, a-b-db, 9, 3, 6, 32, 120, 195, 114, 186, 195, 120, 1, 2.16081
118, 3, wb, attraction, a-b-db, 2, 2, 6, 33, 90, 165, 165, 90, 89, 163, 2, 1.25555
118, 3, wb, attraction, a-b-db, 2, 2, 6, 33, 90, 165, 165, 90, 89, 163, 1, 6.17164
118, 3, wb, attraction, a-b-db, 5, 2, 6, 34, 165, 90, 90, 165, 88, 161, 1, 2.10489
118, 3, wb, attraction, a-b-db, 5, 2, 6, 34, 165, 90, 90, 165, 88, 161, 3, 0.611684
118, 3, wb, attraction, a-b-da, 5, 1, 6, 35, 132, 58, 135, 60, 60, 135, 2, 7.5368
118, 3, wb, attraction, a-b-da, 5, 1, 6, 35, 132, 58, 135, 60, 60, 135, 3, 0.25626
118, 3, wb, attraction, a-b-da, 9, 2, 6, 36, 165, 90, 157, 86, 90, 165, 2, 3.70015
118, 3, wb, attraction, a-b-da, 9, 2, 6, 36, 165, 90, 157, 86, 90, 165, 3, 0.702302
118, 3, wb, attraction, a-b-db, 9, 2, 6, 37, 165, 90, 90, 165, 86, 157, 1, 23.0801
118, 3, wb, attraction, a-b-db, 9, 2, 6, 37, 165, 90, 90, 165, 86, 157, 2, 0.204744
118, 3, wb, attraction, a-b-db, 9, 2, 7, 1, 165, 90, 90, 165, 86, 157, 1, 2.90666
118, 3, wb, attraction, a-b-db, 9, 2, 7, 1, 165, 90, 90, 165, 86, 157, 2, 1.33239
118, 3, wb, filler, NA, 999, 999, 7, 2, 97, 123, 71, 116, 152, 97, 2, 1.53255
118, 3, wb, filler, NA, 999, 999, 7, 2, 97, 123, 71, 116, 152, 97, 3, 1.64611
118, 3, wb, attraction, a-b-da, 5, 1, 7, 3, 132, 58, 135, 60, 60, 135, 1, 2.67352
118, 3, wb, attraction, a-b-da, 5, 1, 7, 3, 132, 58, 135, 60, 60, 135, 3, 6.10869
118, 3, wb, attraction, a-b-da, 5, 2, 7, 4, 161, 88, 165, 90, 90, 165, 2, 1.55608
118, 3, wb, attraction, a-b-da, 5, 2, 7, 4, 161, 88, 165, 90, 90, 165, 3, 0.55615
118, 3, wb, attraction, a-b-db, 14, 3, 7, 5, 120, 195, 195, 120, 111, 181, 1, 1.73193
118, 3, wb, attraction, a-b-db, 14, 3, 7, 5, 120, 195, 195, 120, 111, 181, 2, 0.301372
118, 3, wb, attraction, a-b-db, 14, 1, 7, 6, 56, 125, 60, 135, 135, 60, 2, 0.807273
118, 3, wb, attraction, a-b-db, 14, 1, 7, 6, 56, 125, 60, 135, 135, 60, 3, 1.01371
118, 3, wb, attraction, a-b-db, 2, 3, 7, 7, 119, 193, 195, 120, 120, 195, 2, 0.426527
118, 3, wb, attraction, a-b-db, 2, 3, 7, 7, 119, 193, 195, 120, 120, 195, 3, 1.35246
118, 3, wb, attraction, a-b-da, 14, 3, 7, 8, 120, 195, 181, 111, 195, 120, 2, 1.48784
118, 3, wb, attraction, a-b-da, 14, 3, 7, 8, 120, 195, 181, 111, 195, 120, 1, 0.835366
118, 3, wb, filler, NA, 999, 999, 7, 9, 90, 69, 128, 176, 71, 65, 3, 0.783886
118, 3, wb, filler, NA, 999, 999, 7, 9, 90, 69, 128, 176, 71, 65, 2, 0.727533
118, 3, wb, attraction, a-b-db, 9, 3, 7, 10, 114, 186, 120, 195, 195, 120, 3, 2.64794
118, 3, wb, attraction, a-b-db, 9, 3, 7, 10, 114, 186, 120, 195, 195, 120, 1, 0.612468
118, 3, wb, filler, NA, 999, 999, 7, 11, 105, 192, 89, 110, 72, 138, 2, 2.59343
118, 3, wb, filler, NA, 999, 999, 7, 11, 105, 192, 89, 110, 72, 138, 1, 0.431959
118, 3, wb, attraction, a-b-db, 14, 2, 7, 12, 90, 165, 83, 153, 165, 90, 2, 2.66053
118, 3, wb, attraction, a-b-db, 14, 2, 7, 12, 90, 165, 83, 153, 165, 90, 3, 0.456251
118, 3, wb, filler, NA, 999, 999, 7, 13, 80, 119, 63, 110, 182, 164, 2, 0.700014
118, 3, wb, filler, NA, 999, 999, 7, 13, 80, 119, 63, 110, 182, 164, 3, 0.343131
118, 3, wb, filler, NA, 999, 999, 7, 14, 130, 156, 137, 176, 113, 134, 3, 0.710998
118, 3, wb, filler, NA, 999, 999, 7, 14, 130, 156, 137, 176, 113, 134, 2, 0.905361
118, 3, wb, attraction, a-b-da, 2, 1, 7, 15, 134, 59, 135, 60, 60, 135, 2, 7.71505
118, 3, wb, attraction, a-b-da, 2, 1, 7, 15, 134, 59, 135, 60, 60, 135, 1, 1.89924
118, 3, wb, attraction, a-b-db, 9, 1, 7, 16, 60, 135, 135, 60, 57, 129, 2, 2.43667
118, 3, wb, attraction, a-b-db, 9, 1, 7, 16, 60, 135, 135, 60, 57, 129, 1, 0.569723
118, 3, wb, filler, NA, 999, 999, 7, 17, 127, 79, 135, 146, 110, 108, 1, 3.22502
118, 3, wb, filler, NA, 999, 999, 7, 17, 127, 79, 135, 146, 110, 108, 2, 0.253936
118, 3, wb, filler, NA, 999, 999, 7, 18, 142, 59, 88, 126, 56, 86, 3, 0.817716
118, 3, wb, filler, NA, 999, 999, 7, 18, 142, 59, 88, 126, 56, 86, 2, 4.08817
118, 3, wb, attraction, a-b-da, 2, 3, 7, 19, 195, 120, 193, 119, 120, 195, 1, 3.28158
118, 3, wb, attraction, a-b-da, 2, 3, 7, 19, 195, 120, 193, 119, 120, 195, 3, 0.500385
118, 3, wb, attraction, a-b-da, 9, 1, 7, 20, 129, 57, 60, 135, 135, 60, 2, 0.670146
118, 3, wb, attraction, a-b-da, 9, 1, 7, 20, 129, 57, 60, 135, 135, 60, 3, 0.898755
118, 3, wb, attraction, a-b-da, 5, 3, 7, 21, 120, 195, 195, 120, 190, 117, 3, 2.94032
118, 3, wb, attraction, a-b-da, 5, 3, 7, 21, 120, 195, 195, 120, 190, 117, 1, 0.292754
118, 3, wb, attraction, a-b-db, 5, 2, 7, 22, 90, 165, 165, 90, 88, 161, 3, 1.23863
118, 3, wb, attraction, a-b-db, 5, 2, 7, 22, 90, 165, 165, 90, 88, 161, 1, 2.32342
118, 3, wb, catch, NA, 999, 999, 7, 23, 94, 161, 73, 122, 141, 174, 2, 0.963986
118, 3, wb, catch, NA, 999, 999, 7, 23, 94, 161, 73, 122, 141, 174, 3, 0.340308
118, 3, wb, attraction, a-b-db, 2, 1, 7, 24, 135, 60, 59, 134, 60, 135, 2, 4.0523
118, 3, wb, attraction, a-b-db, 2, 1, 7, 24, 135, 60, 59, 134, 60, 135, 1, 3.19238
118, 3, wb, catch, NA, 999, 999, 7, 25, 139, 116, 101, 94, 121, 194, 2, 1.02114
118, 3, wb, catch, NA, 999, 999, 7, 25, 139, 116, 101, 94, 121, 194, 3, 0.675495
118, 3, wb, attraction, a-b-da, 9, 3, 7, 26, 186, 114, 120, 195, 195, 120, 3, 4.2538
118, 3, wb, attraction, a-b-da, 9, 3, 7, 26, 186, 114, 120, 195, 195, 120, 2, 1.00188
118, 3, wb, attraction, a-b-da, 14, 2, 7, 27, 90, 165, 153, 83, 165, 90, 2, 1.41548
118, 3, wb, attraction, a-b-da, 14, 2, 7, 27, 90, 165, 153, 83, 165, 90, 1, 1.33365
118, 3, wb, attraction, a-b-db, 5, 3, 7, 28, 120, 195, 195, 120, 117, 190, 2, 1.10188
118, 3, wb, attraction, a-b-db, 5, 3, 7, 28, 120, 195, 195, 120, 117, 190, 3, 0.368819
118, 3, wb, filler, NA, 999, 999, 7, 29, 193, 84, 162, 118, 65, 136, 3, 0.568015
118, 3, wb, filler, NA, 999, 999, 7, 29, 193, 84, 162, 118, 65, 136, 2, 7.95248
118, 3, wb, attraction, a-b-db, 2, 2, 7, 30, 89, 163, 165, 90, 90, 165, 2, 1.89392
118, 3, wb, attraction, a-b-db, 2, 2, 7, 30, 89, 163, 165, 90, 90, 165, 3, 0.224668
118, 3, wb, attraction, a-b-db, 5, 1, 7, 31, 60, 135, 58, 132, 135, 60, 2, 2.44524
118, 3, wb, attraction, a-b-db, 5, 1, 7, 31, 60, 135, 58, 132, 135, 60, 3, 1.00177
118, 3, wb, attraction, a-b-da, 2, 2, 7, 32, 163, 89, 90, 165, 165, 90, 2, 3.71135
118, 3, wb, attraction, a-b-da, 2, 2, 7, 32, 163, 89, 90, 165, 165, 90, 3, 0.232872
118, 3, wb, filler, NA, 999, 999, 7, 33, 184, 167, 72, 57, 166, 97, 2, 0.770989
118, 3, wb, filler, NA, 999, 999, 7, 33, 184, 167, 72, 57, 166, 97, 1, 0.285054
118, 3, wb, attraction, a-b-da, 14, 1, 7, 34, 60, 135, 135, 60, 125, 56, 1, 1.60771
118, 3, wb, attraction, a-b-da, 14, 1, 7, 34, 60, 135, 135, 60, 125, 56, 2, 0.373784
118, 3, wb, catch, NA, 999, 999, 7, 35, 111, 84, 127, 128, 190, 125, 1, 0.956243
118, 3, wb, catch, NA, 999, 999, 7, 35, 111, 84, 127, 128, 190, 125, 3, 0.252614
118, 3, wb, attraction, a-b-da, 9, 2, 7, 36, 157, 86, 165, 90, 90, 165, 3, 1.25646
118, 3, wb, attraction, a-b-da, 9, 2, 7, 36, 157, 86, 165, 90, 90, 165, 1, 0.81273
118, 3, wb, filler, NA, 999, 999, 7, 37, 189, 69, 91, 82, 66, 65, 3, 1.95371
118, 3, wb, filler, NA, 999, 999, 7, 37, 189, 69, 91, 82, 66, 65, 2, 0.282311
118, 3, wb, filler, NA, 999, 999, 8, 1, 176, 82, 159, 192, 96, 107, 3, 0.860908
118, 3, wb, filler, NA, 999, 999, 8, 1, 176, 82, 159, 192, 96, 107, 2, 0.553391
118, 3, wb, attraction, a-b-db, 5, 1, 8, 2, 58, 132, 135, 60, 60, 135, 3, 1.20117
118, 3, wb, attraction, a-b-db, 5, 1, 8, 2, 58, 132, 135, 60, 60, 135, 2, 2.86415
118, 3, wb, attraction, a-b-da, 2, 2, 8, 3, 163, 89, 90, 165, 165, 90, 3, 2.56248
118, 3, wb, attraction, a-b-da, 2, 2, 8, 3, 163, 89, 90, 165, 165, 90, 2, 1.13821
118, 3, wb, filler, NA, 999, 999, 8, 4, 171, 155, 150, 144, 73, 122, 3, 0.802473
118, 3, wb, filler, NA, 999, 999, 8, 4, 171, 155, 150, 144, 73, 122, 1, 0.52969
118, 3, wb, attraction, a-b-db, 2, 3, 8, 5, 119, 193, 120, 195, 195, 120, 3, 0.722178
118, 3, wb, attraction, a-b-db, 2, 3, 8, 5, 119, 193, 120, 195, 195, 120, 2, 0.483776
118, 3, wb, attraction, a-b-da, 5, 1, 8, 6, 132, 58, 135, 60, 60, 135, 3, 1.54224
118, 3, wb, attraction, a-b-da, 5, 1, 8, 6, 132, 58, 135, 60, 60, 135, 1, 0.487011
118, 3, wb, attraction, a-b-da, 9, 1, 8, 7, 129, 57, 135, 60, 60, 135, 3, 0.657451
118, 3, wb, attraction, a-b-da, 9, 1, 8, 7, 129, 57, 135, 60, 60, 135, 1, 0.41393
118, 3, wb, attraction, a-b-da, 5, 3, 8, 8, 195, 120, 190, 117, 120, 195, 2, 1.73122
118, 3, wb, attraction, a-b-da, 5, 3, 8, 8, 195, 120, 190, 117, 120, 195, 1, 1.30852
118, 3, wb, filler, NA, 999, 999, 8, 9, 117, 127, 190, 93, 134, 111, 1, 5.48544
118, 3, wb, filler, NA, 999, 999, 8, 9, 117, 127, 190, 93, 134, 111, 2, 0.991703
118, 3, wb, attraction, a-b-da, 14, 1, 8, 10, 125, 56, 60, 135, 135, 60, 1, 1.25322
118, 3, wb, attraction, a-b-da, 14, 1, 8, 10, 125, 56, 60, 135, 135, 60, 2, 0.290316
118, 3, wb, attraction, a-b-db, 9, 3, 8, 11, 114, 186, 195, 120, 120, 195, 1, 4.48407
118, 3, wb, attraction, a-b-db, 9, 3, 8, 11, 114, 186, 195, 120, 120, 195, 2, 1.48664
118, 3, wb, attraction, a-b-da, 9, 3, 8, 12, 120, 195, 195, 120, 186, 114, 3, 1.95274
118, 3, wb, attraction, a-b-da, 9, 3, 8, 12, 120, 195, 195, 120, 186, 114, 1, 0.297383
118, 3, wb, attraction, a-b-da, 5, 2, 8, 13, 90, 165, 161, 88, 165, 90, 2, 2.95521
118, 3, wb, attraction, a-b-da, 5, 2, 8, 13, 90, 165, 161, 88, 165, 90, 1, 0.618957
118, 3, wb, attraction, a-b-db, 14, 3, 8, 14, 111, 181, 195, 120, 120, 195, 2, 3.54408
118, 3, wb, attraction, a-b-db, 14, 3, 8, 14, 111, 181, 195, 120, 120, 195, 3, 0.264282
118, 3, wb, filler, NA, 999, 999, 8, 15, 191, 193, 70, 113, 178, 131, 2, 0.57143
118, 3, wb, filler, NA, 999, 999, 8, 15, 191, 193, 70, 113, 178, 131, 1, 0.35526
118, 3, wb, attraction, a-b-db, 14, 2, 8, 16, 83, 153, 90, 165, 165, 90, 3, 3.89118
118, 3, wb, attraction, a-b-db, 14, 2, 8, 16, 83, 153, 90, 165, 165, 90, 2, 1.16523
118, 3, wb, filler, NA, 999, 999, 8, 17, 94, 78, 168, 175, 91, 168, 1, 1.06011
118, 3, wb, filler, NA, 999, 999, 8, 17, 94, 78, 168, 175, 91, 168, 2, 0.544459
118, 3, wb, filler, NA, 999, 999, 8, 18, 107, 164, 143, 76, 191, 75, 2, 1.35215
118, 3, wb, filler, NA, 999, 999, 8, 18, 107, 164, 143, 76, 191, 75, 1, 0.377055
118, 3, wb, attraction, a-b-db, 5, 2, 8, 19, 165, 90, 90, 165, 88, 161, 2, 1.63961
118, 3, wb, attraction, a-b-db, 5, 2, 8, 19, 165, 90, 90, 165, 88, 161, 3, 0.236311
118, 3, wb, filler, NA, 999, 999, 8, 20, 76, 99, 102, 95, 99, 164, 1, 0.736894
118, 3, wb, filler, NA, 999, 999, 8, 20, 76, 99, 102, 95, 99, 164, 3, 0.274668
118, 3, wb, filler, NA, 999, 999, 8, 21, 109, 90, 187, 166, 144, 193, 1, 0.733251
118, 3, wb, filler, NA, 999, 999, 8, 21, 109, 90, 187, 166, 144, 193, 3, 0.247054
118, 3, wb, attraction, a-b-db, 2, 2, 8, 22, 90, 165, 165, 90, 89, 163, 2, 1.63478
118, 3, wb, attraction, a-b-db, 2, 2, 8, 22, 90, 165, 165, 90, 89, 163, 1, 1.32833
118, 3, wb, attraction, a-b-db, 2, 1, 8, 23, 60, 135, 59, 134, 135, 60, 2, 1.14445
118, 3, wb, attraction, a-b-db, 2, 1, 8, 23, 60, 135, 59, 134, 135, 60, 3, 0.305298
118, 3, wb, filler, NA, 999, 999, 8, 24, 86, 127, 88, 71, 115, 148, 3, 0.883138
118, 3, wb, filler, NA, 999, 999, 8, 24, 86, 127, 88, 71, 115, 148, 2, 1.03892
118, 3, wb, attraction, a-b-da, 14, 2, 8, 25, 153, 83, 165, 90, 90, 165, 2, 1.14719
118, 3, wb, attraction, a-b-da, 14, 2, 8, 25, 153, 83, 165, 90, 90, 165, 3, 1.10012
118, 3, wb, attraction, a-b-da, 14, 3, 8, 26, 120, 195, 195, 120, 181, 111, 2, 1.28581
118, 3, wb, attraction, a-b-da, 14, 3, 8, 26, 120, 195, 195, 120, 181, 111, 3, 0.257395
118, 3, wb, attraction, a-b-db, 5, 3, 8, 27, 120, 195, 195, 120, 117, 190, 2, 0.996535
118, 3, wb, attraction, a-b-db, 5, 3, 8, 27, 120, 195, 195, 120, 117, 190, 1, 1.09951
118, 3, wb, attraction, a-b-da, 2, 1, 8, 28, 60, 135, 134, 59, 135, 60, 2, 1.46118
118, 3, wb, attraction, a-b-da, 2, 1, 8, 28, 60, 135, 134, 59, 135, 60, 3, 0.209389
118, 3, wb, catch, NA, 999, 999, 8, 29, 122, 133, 94, 101, 145, 170, 2, 1.21481
118, 3, wb, catch, NA, 999, 999, 8, 29, 122, 133, 94, 101, 145, 170, 3, 0.220738
118, 3, wb, catch, NA, 999, 999, 8, 30, 140, 115, 172, 143, 93, 102, 3, 0.922034
118, 3, wb, catch, NA, 999, 999, 8, 30, 140, 115, 172, 143, 93, 102, 2, 0.499607
118, 3, wb, filler, NA, 999, 999, 8, 31, 90, 112, 60, 141, 120, 134, 2, 5.41337
118, 3, wb, filler, NA, 999, 999, 8, 31, 90, 112, 60, 141, 120, 134, 3, 0.738408
118, 3, wb, attraction, a-b-db, 14, 1, 8, 32, 60, 135, 135, 60, 56, 125, 2, 4.2667
118, 3, wb, attraction, a-b-db, 14, 1, 8, 32, 60, 135, 135, 60, 56, 125, 1, 1.03
118, 3, wb, attraction, a-b-da, 9, 2, 8, 33, 165, 90, 157, 86, 90, 165, 2, 3.63435
118, 3, wb, attraction, a-b-da, 9, 2, 8, 33, 165, 90, 157, 86, 90, 165, 1, 1.41519
118, 3, wb, catch, NA, 999, 999, 8, 34, 181, 134, 117, 138, 134, 61, 3, 0.908131
118, 3, wb, catch, NA, 999, 999, 8, 34, 181, 134, 117, 138, 134, 61, 1, 0.550312
118, 3, wb, attraction, a-b-db, 9, 1, 8, 35, 60, 135, 57, 129, 135, 60, 3, 3.89424
118, 3, wb, attraction, a-b-db, 9, 1, 8, 35, 60, 135, 57, 129, 135, 60, 2, 0.35226
118, 3, wb, attraction, a-b-da, 2, 3, 8, 36, 120, 195, 193, 119, 195, 120, 2, 12.0721
118, 3, wb, attraction, a-b-da, 2, 3, 8, 36, 120, 195, 193, 119, 195, 120, 1, 0.457047
118, 3, wb, attraction, a-b-db, 9, 2, 8, 37, 165, 90, 90, 165, 86, 157, 3, 1.94
118, 3, wb, attraction, a-b-db, 9, 2, 8, 37, 165, 90, 90, 165, 86, 157, 1, 1.94076
