sub_n, computer_n, bw_cond, effect, set, distance, diag, block_n, trial_n, h1, w1, h2, w2, h3, w3, choice, rt 
161, 3, bw, practice, NA, 999, 999, 0, 1, 72, 142, 100, 150, 110, 194, 3, 3.67088
161, 3, bw, practice, NA, 999, 999, 0, 1, 72, 142, 100, 150, 110, 194, 1, 1.87423
161, 3, bw, practice, NA, 999, 999, 0, 2, 70, 122, 80, 86, 70, 121, 1, 5.13835
161, 3, bw, practice, NA, 999, 999, 0, 2, 70, 122, 80, 86, 70, 121, 2, 1.54691
161, 3, bw, practice, NA, 999, 999, 0, 3, 182, 125, 155, 113, 157, 87, 1, 2.36656
161, 3, bw, practice, NA, 999, 999, 0, 3, 182, 125, 155, 113, 157, 87, 3, 1.82335
161, 3, bw, attraction, a-b-db, 14, 1, 1, 1, 60, 135, 135, 60, 56, 125, 1, 3.20953
161, 3, bw, attraction, a-b-db, 14, 1, 1, 1, 60, 135, 135, 60, 56, 125, 3, 2.88713
161, 3, bw, attraction, a-b-da, 5, 3, 1, 2, 195, 120, 120, 195, 190, 117, 2, 1.80103
161, 3, bw, attraction, a-b-da, 5, 3, 1, 2, 195, 120, 120, 195, 190, 117, 3, 0.959655
161, 3, bw, attraction, a-b-db, 9, 2, 1, 3, 86, 157, 165, 90, 90, 165, 3, 2.59866
161, 3, bw, attraction, a-b-db, 9, 2, 1, 3, 86, 157, 165, 90, 90, 165, 2, 1.00506
161, 3, bw, attraction, a-b-da, 2, 2, 1, 4, 165, 90, 90, 165, 163, 89, 2, 1.33873
161, 3, bw, attraction, a-b-da, 2, 2, 1, 4, 165, 90, 90, 165, 163, 89, 1, 1.67561
161, 3, bw, attraction, a-b-da, 5, 2, 1, 5, 90, 165, 165, 90, 161, 88, 1, 1.76568
161, 3, bw, attraction, a-b-da, 5, 2, 1, 5, 90, 165, 165, 90, 161, 88, 2, 0.589802
161, 3, bw, attraction, a-b-db, 9, 1, 1, 6, 135, 60, 57, 129, 60, 135, 3, 1.95621
161, 3, bw, attraction, a-b-db, 9, 1, 1, 6, 135, 60, 57, 129, 60, 135, 2, 2.53239
161, 3, bw, catch, NA, 999, 999, 1, 7, 112, 143, 74, 121, 156, 159, 3, 0.916151
161, 3, bw, catch, NA, 999, 999, 1, 7, 112, 143, 74, 121, 156, 159, 2, 1.40641
161, 3, bw, attraction, a-b-da, 9, 3, 1, 8, 186, 114, 120, 195, 195, 120, 2, 2.03593
161, 3, bw, attraction, a-b-da, 9, 3, 1, 8, 186, 114, 120, 195, 195, 120, 3, 1.19324
161, 3, bw, attraction, a-b-db, 14, 2, 1, 9, 83, 153, 90, 165, 165, 90, 2, 2.0148
161, 3, bw, attraction, a-b-db, 14, 2, 1, 9, 83, 153, 90, 165, 165, 90, 1, 0.844847
161, 3, bw, filler, NA, 999, 999, 1, 10, 86, 114, 90, 138, 187, 125, 3, 1.12852
161, 3, bw, filler, NA, 999, 999, 1, 10, 86, 114, 90, 138, 187, 125, 1, 1.39407
161, 3, bw, attraction, a-b-db, 14, 3, 1, 11, 120, 195, 195, 120, 111, 181, 1, 1.56769
161, 3, bw, attraction, a-b-db, 14, 3, 1, 11, 120, 195, 195, 120, 111, 181, 3, 0.655717
161, 3, bw, filler, NA, 999, 999, 1, 12, 185, 91, 142, 105, 176, 62, 1, 2.27552
161, 3, bw, filler, NA, 999, 999, 1, 12, 185, 91, 142, 105, 176, 62, 3, 1.53487
161, 3, bw, filler, NA, 999, 999, 1, 13, 190, 131, 179, 138, 81, 99, 2, 1.39092
161, 3, bw, filler, NA, 999, 999, 1, 13, 190, 131, 179, 138, 81, 99, 3, 0.645767
161, 3, bw, filler, NA, 999, 999, 1, 14, 62, 79, 94, 105, 161, 95, 3, 2.01763
161, 3, bw, filler, NA, 999, 999, 1, 14, 62, 79, 94, 105, 161, 95, 1, 0.639534
161, 3, bw, filler, NA, 999, 999, 1, 15, 102, 59, 102, 73, 140, 167, 3, 0.715951
161, 3, bw, filler, NA, 999, 999, 1, 15, 102, 59, 102, 73, 140, 167, 1, 1.80637
161, 3, bw, attraction, a-b-db, 9, 3, 1, 16, 114, 186, 195, 120, 120, 195, 3, 1.21167
161, 3, bw, attraction, a-b-db, 9, 3, 1, 16, 114, 186, 195, 120, 120, 195, 1, 0.746111
161, 3, bw, attraction, a-b-da, 2, 3, 1, 17, 120, 195, 193, 119, 195, 120, 3, 1.93765
161, 3, bw, attraction, a-b-da, 2, 3, 1, 17, 120, 195, 193, 119, 195, 120, 1, 0.554995
161, 3, bw, attraction, a-b-da, 2, 1, 1, 18, 60, 135, 134, 59, 135, 60, 1, 2.09879
161, 3, bw, attraction, a-b-da, 2, 1, 1, 18, 60, 135, 134, 59, 135, 60, 3, 0.757538
161, 3, bw, attraction, a-b-da, 5, 1, 1, 19, 135, 60, 60, 135, 132, 58, 2, 8.14051
161, 3, bw, attraction, a-b-da, 5, 1, 1, 19, 135, 60, 60, 135, 132, 58, 3, 0.891267
161, 3, bw, filler, NA, 999, 999, 1, 20, 172, 171, 129, 119, 195, 60, 1, 8.14103
161, 3, bw, filler, NA, 999, 999, 1, 20, 172, 171, 129, 119, 195, 60, 3, 1.1078
161, 3, bw, attraction, a-b-db, 2, 2, 1, 21, 90, 165, 165, 90, 89, 163, 3, 1.58071
161, 3, bw, attraction, a-b-db, 2, 2, 1, 21, 90, 165, 165, 90, 89, 163, 2, 0.708176
161, 3, bw, catch, NA, 999, 999, 1, 22, 160, 95, 86, 109, 170, 145, 3, 1.11724
161, 3, bw, catch, NA, 999, 999, 1, 22, 160, 95, 86, 109, 170, 145, 2, 0.775491
161, 3, bw, attraction, a-b-da, 14, 3, 1, 23, 195, 120, 181, 111, 120, 195, 1, 1.38183
161, 3, bw, attraction, a-b-da, 14, 3, 1, 23, 195, 120, 181, 111, 120, 195, 2, 1.46948
161, 3, bw, filler, NA, 999, 999, 1, 24, 151, 120, 144, 96, 166, 184, 3, 1.16819
161, 3, bw, filler, NA, 999, 999, 1, 24, 151, 120, 144, 96, 166, 184, 2, 0.65649
161, 3, bw, attraction, a-b-db, 5, 3, 1, 25, 195, 120, 120, 195, 117, 190, 1, 2.42037
161, 3, bw, attraction, a-b-db, 5, 3, 1, 25, 195, 120, 120, 195, 117, 190, 3, 1.2982
161, 3, bw, attraction, a-b-db, 2, 3, 1, 26, 119, 193, 195, 120, 120, 195, 3, 1.11566
161, 3, bw, attraction, a-b-db, 2, 3, 1, 26, 119, 193, 195, 120, 120, 195, 2, 0.366056
161, 3, bw, attraction, a-b-da, 9, 1, 1, 27, 135, 60, 129, 57, 60, 135, 1, 0.89309
161, 3, bw, attraction, a-b-da, 9, 1, 1, 27, 135, 60, 129, 57, 60, 135, 2, 0.464054
161, 3, bw, filler, NA, 999, 999, 1, 28, 173, 193, 188, 167, 131, 160, 2, 0.891208
161, 3, bw, filler, NA, 999, 999, 1, 28, 173, 193, 188, 167, 131, 160, 3, 0.662348
161, 3, bw, attraction, a-b-db, 5, 1, 1, 29, 58, 132, 135, 60, 60, 135, 1, 0.665287
161, 3, bw, attraction, a-b-db, 5, 1, 1, 29, 58, 132, 135, 60, 60, 135, 3, 0.565695
161, 3, bw, attraction, a-b-db, 5, 2, 1, 30, 165, 90, 90, 165, 88, 161, 1, 1.19684
161, 3, bw, attraction, a-b-db, 5, 2, 1, 30, 165, 90, 90, 165, 88, 161, 2, 0.475776
161, 3, bw, attraction, a-b-db, 2, 1, 1, 31, 60, 135, 59, 134, 135, 60, 3, 1.48621
161, 3, bw, attraction, a-b-db, 2, 1, 1, 31, 60, 135, 59, 134, 135, 60, 2, 0.465741
161, 3, bw, attraction, a-b-da, 9, 2, 1, 32, 157, 86, 90, 165, 165, 90, 3, 1.06088
161, 3, bw, attraction, a-b-da, 9, 2, 1, 32, 157, 86, 90, 165, 165, 90, 2, 0.617308
161, 3, bw, attraction, a-b-da, 14, 2, 1, 33, 153, 83, 165, 90, 90, 165, 3, 2.08623
161, 3, bw, attraction, a-b-da, 14, 2, 1, 33, 153, 83, 165, 90, 90, 165, 1, 0.641727
161, 3, bw, filler, NA, 999, 999, 1, 34, 139, 193, 188, 113, 122, 112, 1, 1.06928
161, 3, bw, filler, NA, 999, 999, 1, 34, 139, 193, 188, 113, 122, 112, 3, 1.19364
161, 3, bw, attraction, a-b-da, 14, 1, 1, 35, 125, 56, 60, 135, 135, 60, 3, 2.03124
161, 3, bw, attraction, a-b-da, 14, 1, 1, 35, 125, 56, 60, 135, 135, 60, 1, 0.596499
161, 3, bw, catch, NA, 999, 999, 1, 36, 140, 115, 126, 69, 167, 148, 3, 0.738364
161, 3, bw, catch, NA, 999, 999, 1, 36, 140, 115, 126, 69, 167, 148, 2, 0.795628
161, 3, bw, filler, NA, 999, 999, 1, 37, 185, 187, 69, 59, 75, 105, 1, 0.657197
161, 3, bw, filler, NA, 999, 999, 1, 37, 185, 187, 69, 59, 75, 105, 2, 0.997647
161, 3, bw, attraction, a-b-da, 9, 2, 2, 1, 165, 90, 90, 165, 157, 86, 2, 1.41912
161, 3, bw, attraction, a-b-da, 9, 2, 2, 1, 165, 90, 90, 165, 157, 86, 3, 0.697281
161, 3, bw, filler, NA, 999, 999, 2, 2, 195, 143, 176, 92, 145, 129, 1, 1.09906
161, 3, bw, filler, NA, 999, 999, 2, 2, 195, 143, 176, 92, 145, 129, 2, 0.902128
161, 3, bw, attraction, a-b-db, 9, 3, 2, 3, 120, 195, 114, 186, 195, 120, 3, 1.0797
161, 3, bw, attraction, a-b-db, 9, 3, 2, 3, 120, 195, 114, 186, 195, 120, 1, 0.627344
161, 3, bw, attraction, a-b-db, 14, 1, 2, 4, 56, 125, 135, 60, 60, 135, 3, 2.15988
161, 3, bw, attraction, a-b-db, 14, 1, 2, 4, 56, 125, 135, 60, 60, 135, 1, 0.679694
161, 3, bw, attraction, a-b-da, 2, 2, 2, 5, 90, 165, 165, 90, 163, 89, 2, 2.53011
161, 3, bw, attraction, a-b-da, 2, 2, 2, 5, 90, 165, 165, 90, 163, 89, 1, 0.675433
161, 3, bw, attraction, a-b-db, 2, 2, 2, 6, 89, 163, 90, 165, 165, 90, 3, 0.837645
161, 3, bw, attraction, a-b-db, 2, 2, 2, 6, 89, 163, 90, 165, 165, 90, 2, 0.426733
161, 3, bw, attraction, a-b-da, 5, 3, 2, 7, 120, 195, 195, 120, 190, 117, 2, 1.20722
161, 3, bw, attraction, a-b-da, 5, 3, 2, 7, 120, 195, 195, 120, 190, 117, 1, 0.813576
161, 3, bw, catch, NA, 999, 999, 2, 8, 175, 140, 135, 120, 106, 89, 1, 1.0984
161, 3, bw, catch, NA, 999, 999, 2, 8, 175, 140, 135, 120, 106, 89, 3, 0.789391
161, 3, bw, filler, NA, 999, 999, 2, 9, 161, 134, 154, 103, 59, 146, 1, 0.995719
161, 3, bw, filler, NA, 999, 999, 2, 9, 161, 134, 154, 103, 59, 146, 3, 0.522904
161, 3, bw, attraction, a-b-db, 14, 2, 2, 10, 90, 165, 165, 90, 83, 153, 2, 1.20383
161, 3, bw, attraction, a-b-db, 14, 2, 2, 10, 90, 165, 165, 90, 83, 153, 1, 0.578782
161, 3, bw, filler, NA, 999, 999, 2, 11, 123, 120, 186, 191, 64, 154, 2, 0.681214
161, 3, bw, filler, NA, 999, 999, 2, 11, 123, 120, 186, 191, 64, 154, 3, 0.637002
161, 3, bw, attraction, a-b-da, 14, 1, 2, 12, 135, 60, 125, 56, 60, 135, 1, 1.80935
161, 3, bw, attraction, a-b-da, 14, 1, 2, 12, 135, 60, 125, 56, 60, 135, 2, 0.543443
161, 3, bw, attraction, a-b-db, 5, 1, 2, 13, 58, 132, 60, 135, 135, 60, 3, 1.03125
161, 3, bw, attraction, a-b-db, 5, 1, 2, 13, 58, 132, 60, 135, 135, 60, 2, 0.476953
161, 3, bw, attraction, a-b-db, 5, 3, 2, 14, 117, 190, 195, 120, 120, 195, 3, 0.927477
161, 3, bw, attraction, a-b-db, 5, 3, 2, 14, 117, 190, 195, 120, 120, 195, 1, 0.4972
161, 3, bw, attraction, a-b-db, 9, 2, 2, 15, 165, 90, 86, 157, 90, 165, 3, 1.89891
161, 3, bw, attraction, a-b-db, 9, 2, 2, 15, 165, 90, 86, 157, 90, 165, 1, 0.549575
161, 3, bw, attraction, a-b-da, 14, 3, 2, 16, 195, 120, 181, 111, 120, 195, 3, 0.925449
161, 3, bw, attraction, a-b-da, 14, 3, 2, 16, 195, 120, 181, 111, 120, 195, 1, 0.535034
161, 3, bw, attraction, a-b-da, 9, 3, 2, 17, 120, 195, 195, 120, 186, 114, 2, 0.663482
161, 3, bw, attraction, a-b-da, 9, 3, 2, 17, 120, 195, 195, 120, 186, 114, 3, 0.451825
161, 3, bw, attraction, a-b-da, 5, 2, 2, 18, 165, 90, 90, 165, 161, 88, 1, 0.935659
161, 3, bw, attraction, a-b-da, 5, 2, 2, 18, 165, 90, 90, 165, 161, 88, 2, 0.609591
161, 3, bw, attraction, a-b-db, 14, 3, 2, 19, 111, 181, 120, 195, 195, 120, 2, 1.03852
161, 3, bw, attraction, a-b-db, 14, 3, 2, 19, 111, 181, 120, 195, 195, 120, 3, 0.411455
161, 3, bw, attraction, a-b-db, 9, 1, 2, 20, 135, 60, 60, 135, 57, 129, 2, 0.584564
161, 3, bw, attraction, a-b-db, 9, 1, 2, 20, 135, 60, 60, 135, 57, 129, 3, 0.488429
161, 3, bw, catch, NA, 999, 999, 2, 21, 97, 98, 163, 152, 128, 127, 2, 0.914909
161, 3, bw, catch, NA, 999, 999, 2, 21, 97, 98, 163, 152, 128, 127, 1, 0.525223
161, 3, bw, catch, NA, 999, 999, 2, 22, 192, 123, 133, 122, 127, 68, 1, 0.941627
161, 3, bw, catch, NA, 999, 999, 2, 22, 192, 123, 133, 122, 127, 68, 3, 0.566692
161, 3, bw, attraction, a-b-da, 2, 3, 2, 23, 193, 119, 120, 195, 195, 120, 3, 0.869762
161, 3, bw, attraction, a-b-da, 2, 3, 2, 23, 193, 119, 120, 195, 195, 120, 1, 0.442145
161, 3, bw, filler, NA, 999, 999, 2, 24, 195, 186, 64, 74, 116, 92, 1, 0.933952
161, 3, bw, filler, NA, 999, 999, 2, 24, 195, 186, 64, 74, 116, 92, 2, 0.751675
161, 3, bw, attraction, a-b-db, 2, 3, 2, 25, 119, 193, 120, 195, 195, 120, 2, 1.42328
161, 3, bw, attraction, a-b-db, 2, 3, 2, 25, 119, 193, 120, 195, 195, 120, 1, 0.500929
161, 3, bw, attraction, a-b-db, 5, 2, 2, 26, 88, 161, 90, 165, 165, 90, 2, 1.03059
161, 3, bw, attraction, a-b-db, 5, 2, 2, 26, 88, 161, 90, 165, 165, 90, 1, 0.452214
161, 3, bw, filler, NA, 999, 999, 2, 27, 122, 74, 106, 178, 118, 173, 2, 0.992069
161, 3, bw, filler, NA, 999, 999, 2, 27, 122, 74, 106, 178, 118, 173, 1, 0.719201
161, 3, bw, filler, NA, 999, 999, 2, 28, 148, 80, 106, 147, 163, 101, 2, 0.824151
161, 3, bw, filler, NA, 999, 999, 2, 28, 148, 80, 106, 147, 163, 101, 1, 0.933937
161, 3, bw, filler, NA, 999, 999, 2, 29, 139, 133, 148, 185, 127, 149, 2, 0.670101
161, 3, bw, filler, NA, 999, 999, 2, 29, 139, 133, 148, 185, 127, 149, 1, 0.754644
161, 3, bw, attraction, a-b-da, 14, 2, 2, 30, 165, 90, 153, 83, 90, 165, 3, 0.970332
161, 3, bw, attraction, a-b-da, 14, 2, 2, 30, 165, 90, 153, 83, 90, 165, 1, 0.794646
161, 3, bw, attraction, a-b-da, 2, 1, 2, 31, 134, 59, 135, 60, 60, 135, 2, 1.17637
161, 3, bw, attraction, a-b-da, 2, 1, 2, 31, 134, 59, 135, 60, 60, 135, 1, 0.89598
161, 3, bw, filler, NA, 999, 999, 2, 32, 99, 73, 140, 71, 127, 146, 3, 0.897659
161, 3, bw, filler, NA, 999, 999, 2, 32, 99, 73, 140, 71, 127, 146, 1, 0.572614
161, 3, bw, filler, NA, 999, 999, 2, 33, 123, 103, 73, 73, 177, 125, 3, 0.899736
161, 3, bw, filler, NA, 999, 999, 2, 33, 123, 103, 73, 73, 177, 125, 2, 0.710869
161, 3, bw, filler, NA, 999, 999, 2, 34, 163, 109, 124, 164, 115, 119, 2, 1.5598
161, 3, bw, filler, NA, 999, 999, 2, 34, 163, 109, 124, 164, 115, 119, 3, 0.503995
161, 3, bw, attraction, a-b-db, 2, 1, 2, 35, 135, 60, 59, 134, 60, 135, 1, 0.90581
161, 3, bw, attraction, a-b-db, 2, 1, 2, 35, 135, 60, 59, 134, 60, 135, 2, 0.5721
161, 3, bw, attraction, a-b-da, 5, 1, 2, 36, 60, 135, 132, 58, 135, 60, 3, 6.09118
161, 3, bw, attraction, a-b-da, 5, 1, 2, 36, 60, 135, 132, 58, 135, 60, 2, 0.524616
161, 3, bw, attraction, a-b-da, 9, 1, 2, 37, 135, 60, 60, 135, 129, 57, 1, 1.03697
161, 3, bw, attraction, a-b-da, 9, 1, 2, 37, 135, 60, 60, 135, 129, 57, 3, 0.650648
161, 3, bw, attraction, a-b-da, 14, 1, 3, 1, 135, 60, 60, 135, 125, 56, 1, 0.982392
161, 3, bw, attraction, a-b-da, 14, 1, 3, 1, 135, 60, 60, 135, 125, 56, 2, 0.358032
161, 3, bw, filler, NA, 999, 999, 3, 2, 142, 114, 182, 154, 172, 106, 2, 0.89333
161, 3, bw, filler, NA, 999, 999, 3, 2, 142, 114, 182, 154, 172, 106, 1, 0.728254
161, 3, bw, attraction, a-b-db, 14, 3, 3, 3, 120, 195, 195, 120, 111, 181, 3, 1.01661
161, 3, bw, attraction, a-b-db, 14, 3, 3, 3, 120, 195, 195, 120, 111, 181, 2, 1.103
161, 3, bw, attraction, a-b-db, 14, 2, 3, 4, 90, 165, 165, 90, 83, 153, 2, 11.7606
161, 3, bw, attraction, a-b-db, 14, 2, 3, 4, 90, 165, 165, 90, 83, 153, 1, 0.621604
161, 3, bw, attraction, a-b-da, 9, 2, 3, 5, 157, 86, 90, 165, 165, 90, 2, 0.522662
161, 3, bw, attraction, a-b-da, 9, 2, 3, 5, 157, 86, 90, 165, 165, 90, 1, 0.468453
161, 3, bw, attraction, a-b-da, 14, 3, 3, 6, 120, 195, 181, 111, 195, 120, 2, 0.639583
161, 3, bw, attraction, a-b-da, 14, 3, 3, 6, 120, 195, 181, 111, 195, 120, 1, 0.420763
161, 3, bw, attraction, a-b-db, 9, 2, 3, 7, 86, 157, 90, 165, 165, 90, 2, 1.04978
161, 3, bw, attraction, a-b-db, 9, 2, 3, 7, 86, 157, 90, 165, 165, 90, 1, 0.486912
161, 3, bw, attraction, a-b-db, 2, 1, 3, 8, 135, 60, 59, 134, 60, 135, 1, 1.04124
161, 3, bw, attraction, a-b-db, 2, 1, 3, 8, 135, 60, 59, 134, 60, 135, 2, 0.758293
161, 3, bw, attraction, a-b-da, 14, 2, 3, 9, 153, 83, 165, 90, 90, 165, 1, 0.613251
161, 3, bw, attraction, a-b-da, 14, 2, 3, 9, 153, 83, 165, 90, 90, 165, 2, 0.731807
161, 3, bw, attraction, a-b-db, 2, 3, 3, 10, 119, 193, 120, 195, 195, 120, 2, 1.14809
161, 3, bw, attraction, a-b-db, 2, 3, 3, 10, 119, 193, 120, 195, 195, 120, 3, 0.637015
161, 3, bw, filler, NA, 999, 999, 3, 11, 75, 181, 149, 98, 86, 74, 1, 1.9134
161, 3, bw, filler, NA, 999, 999, 3, 11, 75, 181, 149, 98, 86, 74, 3, 3.38747
161, 3, bw, filler, NA, 999, 999, 3, 12, 76, 126, 101, 166, 132, 123, 3, 0.937055
161, 3, bw, filler, NA, 999, 999, 3, 12, 76, 126, 101, 166, 132, 123, 1, 0.466895
161, 3, bw, attraction, a-b-da, 9, 3, 3, 13, 120, 195, 186, 114, 195, 120, 1, 0.861881
161, 3, bw, attraction, a-b-da, 9, 3, 3, 13, 120, 195, 186, 114, 195, 120, 2, 0.51425
161, 3, bw, filler, NA, 999, 999, 3, 14, 177, 127, 149, 80, 189, 164, 1, 0.635364
161, 3, bw, filler, NA, 999, 999, 3, 14, 177, 127, 149, 80, 189, 164, 2, 1.21715
161, 3, bw, filler, NA, 999, 999, 3, 15, 157, 57, 129, 185, 192, 59, 2, 13.942
161, 3, bw, filler, NA, 999, 999, 3, 15, 157, 57, 129, 185, 192, 59, 1, 1.20384
161, 3, bw, attraction, a-b-db, 2, 2, 3, 16, 90, 165, 89, 163, 165, 90, 1, 1.35332
161, 3, bw, attraction, a-b-db, 2, 2, 3, 16, 90, 165, 89, 163, 165, 90, 2, 0.466209
161, 3, bw, attraction, a-b-db, 9, 1, 3, 17, 135, 60, 57, 129, 60, 135, 1, 1.32518
161, 3, bw, attraction, a-b-db, 9, 1, 3, 17, 135, 60, 57, 129, 60, 135, 2, 0.6708
161, 3, bw, attraction, a-b-da, 2, 1, 3, 18, 60, 135, 135, 60, 134, 59, 3, 1.11392
161, 3, bw, attraction, a-b-da, 2, 1, 3, 18, 60, 135, 135, 60, 134, 59, 2, 0.828185
161, 3, bw, filler, NA, 999, 999, 3, 19, 59, 104, 186, 109, 92, 150, 2, 0.984478
161, 3, bw, filler, NA, 999, 999, 3, 19, 59, 104, 186, 109, 92, 150, 1, 0.672147
161, 3, bw, filler, NA, 999, 999, 3, 20, 114, 171, 71, 130, 68, 195, 1, 0.971185
161, 3, bw, filler, NA, 999, 999, 3, 20, 114, 171, 71, 130, 68, 195, 2, 1.1876
161, 3, bw, attraction, a-b-db, 14, 1, 3, 21, 60, 135, 135, 60, 56, 125, 1, 0.953819
161, 3, bw, attraction, a-b-db, 14, 1, 3, 21, 60, 135, 135, 60, 56, 125, 2, 0.506789
161, 3, bw, attraction, a-b-da, 9, 1, 3, 22, 60, 135, 129, 57, 135, 60, 3, 1.17986
161, 3, bw, attraction, a-b-da, 9, 1, 3, 22, 60, 135, 129, 57, 135, 60, 2, 0.755515
161, 3, bw, filler, NA, 999, 999, 3, 23, 75, 95, 164, 72, 82, 164, 3, 1.32318
161, 3, bw, filler, NA, 999, 999, 3, 23, 75, 95, 164, 72, 82, 164, 1, 0.708921
161, 3, bw, attraction, a-b-db, 5, 1, 3, 24, 135, 60, 58, 132, 60, 135, 1, 0.957918
161, 3, bw, attraction, a-b-db, 5, 1, 3, 24, 135, 60, 58, 132, 60, 135, 2, 0.654294
161, 3, bw, filler, NA, 999, 999, 3, 25, 151, 124, 130, 63, 124, 81, 1, 0.585832
161, 3, bw, filler, NA, 999, 999, 3, 25, 151, 124, 130, 63, 124, 81, 2, 0.69782
161, 3, bw, attraction, a-b-da, 2, 2, 3, 26, 165, 90, 90, 165, 163, 89, 1, 0.779379
161, 3, bw, attraction, a-b-da, 2, 2, 3, 26, 165, 90, 90, 165, 163, 89, 2, 0.779192
161, 3, bw, attraction, a-b-da, 2, 3, 3, 27, 120, 195, 195, 120, 193, 119, 1, 1.20949
161, 3, bw, attraction, a-b-da, 2, 3, 3, 27, 120, 195, 195, 120, 193, 119, 2, 0.96778
161, 3, bw, catch, NA, 999, 999, 3, 28, 112, 83, 144, 171, 99, 156, 2, 1.08674
161, 3, bw, catch, NA, 999, 999, 3, 28, 112, 83, 144, 171, 99, 156, 1, 0.754506
161, 3, bw, attraction, a-b-db, 9, 3, 3, 29, 114, 186, 120, 195, 195, 120, 2, 0.858239
161, 3, bw, attraction, a-b-db, 9, 3, 3, 29, 114, 186, 120, 195, 195, 120, 3, 0.598615
161, 3, bw, catch, NA, 999, 999, 3, 30, 106, 89, 132, 183, 118, 137, 2, 1.02835
161, 3, bw, catch, NA, 999, 999, 3, 30, 106, 89, 132, 183, 118, 137, 1, 0.633872
161, 3, bw, attraction, a-b-da, 5, 1, 3, 31, 60, 135, 135, 60, 132, 58, 1, 0.846412
161, 3, bw, attraction, a-b-da, 5, 1, 3, 31, 60, 135, 135, 60, 132, 58, 2, 0.611353
161, 3, bw, attraction, a-b-db, 5, 3, 3, 32, 120, 195, 117, 190, 195, 120, 2, 1.2484
161, 3, bw, attraction, a-b-db, 5, 3, 3, 32, 120, 195, 117, 190, 195, 120, 3, 0.533305
161, 3, bw, attraction, a-b-da, 5, 3, 3, 33, 120, 195, 190, 117, 195, 120, 1, 0.685774
161, 3, bw, attraction, a-b-da, 5, 3, 3, 33, 120, 195, 190, 117, 195, 120, 2, 0.673644
161, 3, bw, attraction, a-b-db, 5, 2, 3, 34, 165, 90, 90, 165, 88, 161, 1, 1.65991
161, 3, bw, attraction, a-b-db, 5, 2, 3, 34, 165, 90, 90, 165, 88, 161, 2, 0.864013
161, 3, bw, filler, NA, 999, 999, 3, 35, 164, 165, 165, 133, 137, 139, 1, 0.707105
161, 3, bw, filler, NA, 999, 999, 3, 35, 164, 165, 165, 133, 137, 139, 2, 0.925537
161, 3, bw, catch, NA, 999, 999, 3, 36, 131, 124, 116, 79, 195, 120, 1, 0.629858
161, 3, bw, catch, NA, 999, 999, 3, 36, 131, 124, 116, 79, 195, 120, 2, 0.515595
161, 3, bw, attraction, a-b-da, 5, 2, 3, 37, 161, 88, 165, 90, 90, 165, 1, 0.708659
161, 3, bw, attraction, a-b-da, 5, 2, 3, 37, 161, 88, 165, 90, 90, 165, 2, 0.431108
161, 3, bw, attraction, a-b-da, 2, 3, 4, 1, 195, 120, 120, 195, 193, 119, 2, 0.84356
161, 3, bw, attraction, a-b-da, 2, 3, 4, 1, 195, 120, 120, 195, 193, 119, 1, 0.70459
161, 3, bw, filler, NA, 999, 999, 4, 2, 171, 117, 56, 71, 108, 177, 1, 0.650317
161, 3, bw, filler, NA, 999, 999, 4, 2, 171, 117, 56, 71, 108, 177, 2, 0.591701
161, 3, bw, attraction, a-b-db, 9, 1, 4, 3, 135, 60, 60, 135, 57, 129, 2, 1.3092
161, 3, bw, attraction, a-b-db, 9, 1, 4, 3, 135, 60, 60, 135, 57, 129, 1, 0.679529
161, 3, bw, attraction, a-b-da, 14, 3, 4, 4, 181, 111, 120, 195, 195, 120, 1, 1.2578
161, 3, bw, attraction, a-b-da, 14, 3, 4, 4, 181, 111, 120, 195, 195, 120, 2, 1.00604
161, 3, bw, filler, NA, 999, 999, 4, 5, 79, 95, 114, 170, 70, 61, 2, 1.17974
161, 3, bw, filler, NA, 999, 999, 4, 5, 79, 95, 114, 170, 70, 61, 1, 0.651286
161, 3, bw, attraction, a-b-db, 14, 3, 4, 6, 111, 181, 120, 195, 195, 120, 2, 1.0151
161, 3, bw, attraction, a-b-db, 14, 3, 4, 6, 111, 181, 120, 195, 195, 120, 1, 0.637321
161, 3, bw, attraction, a-b-db, 2, 1, 4, 7, 60, 135, 59, 134, 135, 60, 2, 1.0899
161, 3, bw, attraction, a-b-db, 2, 1, 4, 7, 60, 135, 59, 134, 135, 60, 1, 0.58883
161, 3, bw, attraction, a-b-da, 5, 1, 4, 8, 60, 135, 132, 58, 135, 60, 2, 0.723191
161, 3, bw, attraction, a-b-da, 5, 1, 4, 8, 60, 135, 132, 58, 135, 60, 1, 0.621114
161, 3, bw, filler, NA, 999, 999, 4, 9, 94, 103, 93, 127, 175, 180, 3, 1.41824
161, 3, bw, filler, NA, 999, 999, 4, 9, 94, 103, 93, 127, 175, 180, 1, 0.904193
161, 3, bw, filler, NA, 999, 999, 4, 10, 156, 64, 84, 128, 154, 123, 3, 1.60182
161, 3, bw, filler, NA, 999, 999, 4, 10, 156, 64, 84, 128, 154, 123, 1, 1.14471
161, 3, bw, attraction, a-b-da, 2, 1, 4, 11, 135, 60, 60, 135, 134, 59, 1, 0.856306
161, 3, bw, attraction, a-b-da, 2, 1, 4, 11, 135, 60, 60, 135, 134, 59, 2, 0.516653
161, 3, bw, attraction, a-b-da, 5, 2, 4, 12, 161, 88, 90, 165, 165, 90, 1, 0.973653
161, 3, bw, attraction, a-b-da, 5, 2, 4, 12, 161, 88, 90, 165, 165, 90, 2, 0.533382
161, 3, bw, filler, NA, 999, 999, 4, 13, 164, 68, 134, 64, 90, 181, 2, 1.454
161, 3, bw, filler, NA, 999, 999, 4, 13, 164, 68, 134, 64, 90, 181, 1, 0.818679
161, 3, bw, attraction, a-b-db, 14, 1, 4, 14, 60, 135, 56, 125, 135, 60, 2, 0.983731
161, 3, bw, attraction, a-b-db, 14, 1, 4, 14, 60, 135, 56, 125, 135, 60, 1, 0.711578
161, 3, bw, attraction, a-b-db, 14, 2, 4, 15, 83, 153, 165, 90, 90, 165, 2, 0.736514
161, 3, bw, attraction, a-b-db, 14, 2, 4, 15, 83, 153, 165, 90, 90, 165, 1, 0.586289
161, 3, bw, attraction, a-b-db, 5, 1, 4, 16, 135, 60, 60, 135, 58, 132, 2, 0.368756
161, 3, bw, attraction, a-b-db, 5, 1, 4, 16, 135, 60, 60, 135, 58, 132, 1, 0.78526
161, 3, bw, attraction, a-b-da, 9, 3, 4, 17, 186, 114, 120, 195, 195, 120, 2, 0.591466
161, 3, bw, attraction, a-b-da, 9, 3, 4, 17, 186, 114, 120, 195, 195, 120, 1, 0.886595
161, 3, bw, filler, NA, 999, 999, 4, 18, 122, 111, 56, 91, 119, 117, 1, 1.16103
161, 3, bw, filler, NA, 999, 999, 4, 18, 122, 111, 56, 91, 119, 117, 2, 0.601248
161, 3, bw, filler, NA, 999, 999, 4, 19, 76, 84, 79, 69, 167, 180, 3, 0.623033
161, 3, bw, filler, NA, 999, 999, 4, 19, 76, 84, 79, 69, 167, 180, 2, 0.780734
161, 3, bw, catch, NA, 999, 999, 4, 20, 124, 191, 114, 81, 91, 164, 1, 0.787099
161, 3, bw, catch, NA, 999, 999, 4, 20, 124, 191, 114, 81, 91, 164, 2, 0.466805
161, 3, bw, attraction, a-b-da, 5, 3, 4, 21, 195, 120, 120, 195, 190, 117, 2, 0.974116
161, 3, bw, attraction, a-b-da, 5, 3, 4, 21, 195, 120, 120, 195, 190, 117, 1, 0.53367
161, 3, bw, attraction, a-b-da, 9, 1, 4, 22, 60, 135, 129, 57, 135, 60, 2, 0.670062
161, 3, bw, attraction, a-b-da, 9, 1, 4, 22, 60, 135, 129, 57, 135, 60, 1, 0.490636
161, 3, bw, filler, NA, 999, 999, 4, 23, 56, 117, 195, 124, 154, 154, 2, 0.380311
161, 3, bw, filler, NA, 999, 999, 4, 23, 56, 117, 195, 124, 154, 154, 1, 0.916303
161, 3, bw, attraction, a-b-db, 5, 3, 4, 24, 195, 120, 117, 190, 120, 195, 1, 1.26119
161, 3, bw, attraction, a-b-db, 5, 3, 4, 24, 195, 120, 117, 190, 120, 195, 2, 0.697423
161, 3, bw, attraction, a-b-db, 2, 3, 4, 25, 119, 193, 195, 120, 120, 195, 2, 0.675138
161, 3, bw, attraction, a-b-db, 2, 3, 4, 25, 119, 193, 195, 120, 120, 195, 1, 0.550892
161, 3, bw, attraction, a-b-db, 9, 2, 4, 26, 90, 165, 86, 157, 165, 90, 3, 1.39865
161, 3, bw, attraction, a-b-db, 9, 2, 4, 26, 90, 165, 86, 157, 165, 90, 2, 0.60553
161, 3, bw, attraction, a-b-da, 14, 2, 4, 27, 90, 165, 165, 90, 153, 83, 2, 1.28328
161, 3, bw, attraction, a-b-da, 14, 2, 4, 27, 90, 165, 165, 90, 153, 83, 1, 0.646957
161, 3, bw, filler, NA, 999, 999, 4, 28, 84, 73, 189, 103, 132, 65, 2, 0.890523
161, 3, bw, filler, NA, 999, 999, 4, 28, 84, 73, 189, 103, 132, 65, 1, 0.741694
161, 3, bw, attraction, a-b-da, 14, 1, 4, 29, 60, 135, 135, 60, 125, 56, 2, 0.773272
161, 3, bw, attraction, a-b-da, 14, 1, 4, 29, 60, 135, 135, 60, 125, 56, 1, 0.645191
161, 3, bw, attraction, a-b-db, 9, 3, 4, 30, 120, 195, 195, 120, 114, 186, 2, 0.63286
161, 3, bw, attraction, a-b-db, 9, 3, 4, 30, 120, 195, 195, 120, 114, 186, 1, 0.454701
161, 3, bw, catch, NA, 999, 999, 4, 31, 90, 105, 122, 133, 162, 153, 3, 1.70635
161, 3, bw, catch, NA, 999, 999, 4, 31, 90, 105, 122, 133, 162, 153, 1, 1.74055
161, 3, bw, catch, NA, 999, 999, 4, 32, 131, 64, 171, 144, 124, 131, 2, 0.971779
161, 3, bw, catch, NA, 999, 999, 4, 32, 131, 64, 171, 144, 124, 131, 1, 1.05956
161, 3, bw, attraction, a-b-da, 2, 2, 4, 33, 90, 165, 165, 90, 163, 89, 2, 0.518546
161, 3, bw, attraction, a-b-da, 2, 2, 4, 33, 90, 165, 165, 90, 163, 89, 1, 0.544974
161, 3, bw, attraction, a-b-db, 5, 2, 4, 34, 90, 165, 165, 90, 88, 161, 2, 0.440678
161, 3, bw, attraction, a-b-db, 5, 2, 4, 34, 90, 165, 165, 90, 88, 161, 1, 0.64595
161, 3, bw, filler, NA, 999, 999, 4, 35, 128, 95, 124, 154, 121, 97, 2, 0.705685
161, 3, bw, filler, NA, 999, 999, 4, 35, 128, 95, 124, 154, 121, 97, 3, 1.42009
161, 3, bw, attraction, a-b-db, 2, 2, 4, 36, 89, 163, 90, 165, 165, 90, 2, 0.62492
161, 3, bw, attraction, a-b-db, 2, 2, 4, 36, 89, 163, 90, 165, 165, 90, 1, 0.566686
161, 3, bw, attraction, a-b-da, 9, 2, 4, 37, 157, 86, 165, 90, 90, 165, 2, 0.541703
161, 3, bw, attraction, a-b-da, 9, 2, 4, 37, 157, 86, 165, 90, 90, 165, 1, 0.646907
161, 3, bw, attraction, a-b-da, 14, 1, 5, 1, 60, 135, 125, 56, 135, 60, 1, 1.93728
161, 3, bw, attraction, a-b-da, 14, 1, 5, 1, 60, 135, 125, 56, 135, 60, 2, 0.466652
161, 3, bw, attraction, a-b-da, 5, 1, 5, 2, 132, 58, 135, 60, 60, 135, 1, 0.58178
161, 3, bw, attraction, a-b-da, 5, 1, 5, 2, 132, 58, 135, 60, 60, 135, 2, 0.357584
161, 3, bw, catch, NA, 999, 999, 5, 3, 125, 130, 122, 193, 79, 116, 2, 0.676712
161, 3, bw, catch, NA, 999, 999, 5, 3, 125, 130, 122, 193, 79, 116, 3, 0.408473
161, 3, bw, attraction, a-b-da, 9, 2, 5, 4, 165, 90, 90, 165, 157, 86, 2, 0.637654
161, 3, bw, attraction, a-b-da, 9, 2, 5, 4, 165, 90, 90, 165, 157, 86, 1, 0.68278
161, 3, bw, attraction, a-b-da, 14, 3, 5, 5, 120, 195, 181, 111, 195, 120, 2, 1.15707
161, 3, bw, attraction, a-b-da, 14, 3, 5, 5, 120, 195, 181, 111, 195, 120, 1, 0.733325
161, 3, bw, attraction, a-b-da, 9, 1, 5, 6, 135, 60, 60, 135, 129, 57, 3, 1.80573
161, 3, bw, attraction, a-b-da, 9, 1, 5, 6, 135, 60, 60, 135, 129, 57, 2, 0.683808
161, 3, bw, attraction, a-b-db, 5, 3, 5, 7, 117, 190, 120, 195, 195, 120, 2, 1.20618
161, 3, bw, attraction, a-b-db, 5, 3, 5, 7, 117, 190, 120, 195, 195, 120, 1, 0.725349
161, 3, bw, attraction, a-b-db, 9, 3, 5, 8, 120, 195, 114, 186, 195, 120, 2, 0.660936
161, 3, bw, attraction, a-b-db, 9, 3, 5, 8, 120, 195, 114, 186, 195, 120, 1, 0.537373
161, 3, bw, attraction, a-b-db, 2, 2, 5, 9, 89, 163, 165, 90, 90, 165, 2, 0.905842
161, 3, bw, attraction, a-b-db, 2, 2, 5, 9, 89, 163, 165, 90, 90, 165, 1, 0.676177
161, 3, bw, attraction, a-b-db, 9, 2, 5, 10, 165, 90, 86, 157, 90, 165, 1, 6.07855
161, 3, bw, attraction, a-b-db, 9, 2, 5, 10, 165, 90, 86, 157, 90, 165, 2, 0.480644
161, 3, bw, attraction, a-b-db, 5, 2, 5, 11, 165, 90, 88, 161, 90, 165, 1, 0.491037
161, 3, bw, attraction, a-b-db, 5, 2, 5, 11, 165, 90, 88, 161, 90, 165, 2, 0.398152
161, 3, bw, attraction, a-b-da, 9, 3, 5, 12, 186, 114, 120, 195, 195, 120, 1, 0.372091
161, 3, bw, attraction, a-b-da, 9, 3, 5, 12, 186, 114, 120, 195, 195, 120, 2, 0.563912
161, 3, bw, catch, NA, 999, 999, 5, 13, 77, 118, 157, 158, 112, 143, 2, 1.13889
161, 3, bw, catch, NA, 999, 999, 5, 13, 77, 118, 157, 158, 112, 143, 1, 0.515913
161, 3, bw, filler, NA, 999, 999, 5, 14, 98, 102, 109, 129, 147, 89, 3, 1.35708
161, 3, bw, filler, NA, 999, 999, 5, 14, 98, 102, 109, 129, 147, 89, 1, 1.04524
161, 3, bw, attraction, a-b-db, 14, 2, 5, 15, 165, 90, 90, 165, 83, 153, 2, 2.08895
161, 3, bw, attraction, a-b-db, 14, 2, 5, 15, 165, 90, 90, 165, 83, 153, 3, 0.587611
161, 3, bw, attraction, a-b-da, 2, 3, 5, 16, 193, 119, 120, 195, 195, 120, 2, 0.890041
161, 3, bw, attraction, a-b-da, 2, 3, 5, 16, 193, 119, 120, 195, 195, 120, 1, 0.860973
161, 3, bw, filler, NA, 999, 999, 5, 17, 163, 154, 176, 85, 79, 89, 1, 0.751952
161, 3, bw, filler, NA, 999, 999, 5, 17, 163, 154, 176, 85, 79, 89, 3, 0.593033
161, 3, bw, filler, NA, 999, 999, 5, 18, 177, 115, 164, 137, 163, 116, 2, 1.44689
161, 3, bw, filler, NA, 999, 999, 5, 18, 177, 115, 164, 137, 163, 116, 1, 1.00374
161, 3, bw, filler, NA, 999, 999, 5, 19, 153, 132, 159, 77, 166, 104, 1, 0.969265
161, 3, bw, filler, NA, 999, 999, 5, 19, 153, 132, 159, 77, 166, 104, 2, 0.497638
161, 3, bw, attraction, a-b-da, 14, 2, 5, 20, 153, 83, 165, 90, 90, 165, 2, 1.19552
161, 3, bw, attraction, a-b-da, 14, 2, 5, 20, 153, 83, 165, 90, 90, 165, 3, 0.402461
161, 3, bw, attraction, a-b-db, 14, 3, 5, 21, 111, 181, 120, 195, 195, 120, 3, 0.952124
161, 3, bw, attraction, a-b-db, 14, 3, 5, 21, 111, 181, 120, 195, 195, 120, 1, 0.449201
161, 3, bw, attraction, a-b-db, 9, 1, 5, 22, 60, 135, 135, 60, 57, 129, 1, 0.732875
161, 3, bw, attraction, a-b-db, 9, 1, 5, 22, 60, 135, 135, 60, 57, 129, 2, 0.406662
161, 3, bw, filler, NA, 999, 999, 5, 23, 122, 101, 159, 192, 86, 98, 2, 0.699782
161, 3, bw, filler, NA, 999, 999, 5, 23, 122, 101, 159, 192, 86, 98, 3, 0.678891
161, 3, bw, catch, NA, 999, 999, 5, 24, 159, 156, 164, 91, 87, 108, 1, 0.697317
161, 3, bw, catch, NA, 999, 999, 5, 24, 159, 156, 164, 91, 87, 108, 3, 0.596424
161, 3, bw, attraction, a-b-db, 2, 1, 5, 25, 59, 134, 135, 60, 60, 135, 1, 1.08221
161, 3, bw, attraction, a-b-db, 2, 1, 5, 25, 59, 134, 135, 60, 60, 135, 2, 0.73406
161, 3, bw, attraction, a-b-da, 2, 2, 5, 26, 165, 90, 163, 89, 90, 165, 2, 1.21435
161, 3, bw, attraction, a-b-da, 2, 2, 5, 26, 165, 90, 163, 89, 90, 165, 1, 0.59649
161, 3, bw, filler, NA, 999, 999, 5, 27, 121, 145, 172, 74, 145, 173, 3, 0.882345
161, 3, bw, filler, NA, 999, 999, 5, 27, 121, 145, 172, 74, 145, 173, 2, 0.477875
161, 3, bw, attraction, a-b-db, 2, 3, 5, 28, 195, 120, 119, 193, 120, 195, 1, 4.7524
161, 3, bw, attraction, a-b-db, 2, 3, 5, 28, 195, 120, 119, 193, 120, 195, 2, 0.768237
161, 3, bw, filler, NA, 999, 999, 5, 29, 59, 158, 83, 56, 137, 102, 3, 3.58329
161, 3, bw, filler, NA, 999, 999, 5, 29, 59, 158, 83, 56, 137, 102, 2, 0.718106
161, 3, bw, attraction, a-b-db, 14, 1, 5, 30, 60, 135, 135, 60, 56, 125, 2, 0.831084
161, 3, bw, attraction, a-b-db, 14, 1, 5, 30, 60, 135, 135, 60, 56, 125, 1, 0.484918
161, 3, bw, attraction, a-b-db, 5, 1, 5, 31, 58, 132, 135, 60, 60, 135, 2, 0.615298
161, 3, bw, attraction, a-b-db, 5, 1, 5, 31, 58, 132, 135, 60, 60, 135, 1, 0.541801
161, 3, bw, filler, NA, 999, 999, 5, 32, 168, 181, 65, 129, 166, 71, 1, 0.765532
161, 3, bw, filler, NA, 999, 999, 5, 32, 168, 181, 65, 129, 166, 71, 2, 0.453911
161, 3, bw, filler, NA, 999, 999, 5, 33, 146, 67, 94, 70, 174, 94, 3, 1.58571
161, 3, bw, filler, NA, 999, 999, 5, 33, 146, 67, 94, 70, 174, 94, 2, 0.569344
161, 3, bw, attraction, a-b-da, 5, 3, 5, 34, 195, 120, 190, 117, 120, 195, 3, 0.728303
161, 3, bw, attraction, a-b-da, 5, 3, 5, 34, 195, 120, 190, 117, 120, 195, 1, 0.498082
161, 3, bw, attraction, a-b-da, 5, 2, 5, 35, 161, 88, 90, 165, 165, 90, 3, 0.995847
161, 3, bw, attraction, a-b-da, 5, 2, 5, 35, 161, 88, 90, 165, 165, 90, 2, 0.450875
161, 3, bw, attraction, a-b-da, 2, 1, 5, 36, 135, 60, 60, 135, 134, 59, 3, 0.638624
161, 3, bw, attraction, a-b-da, 2, 1, 5, 36, 135, 60, 60, 135, 134, 59, 2, 0.579845
161, 3, bw, filler, NA, 999, 999, 5, 37, 153, 151, 65, 103, 79, 124, 1, 0.88211
161, 3, bw, filler, NA, 999, 999, 5, 37, 153, 151, 65, 103, 79, 124, 2, 0.805932
161, 3, bw, attraction, a-b-da, 9, 3, 6, 1, 195, 120, 186, 114, 120, 195, 3, 1.61958
161, 3, bw, attraction, a-b-da, 9, 3, 6, 1, 195, 120, 186, 114, 120, 195, 2, 1.40965
161, 3, bw, attraction, a-b-da, 5, 1, 6, 2, 60, 135, 135, 60, 132, 58, 1, 1.05464
161, 3, bw, attraction, a-b-da, 5, 1, 6, 2, 60, 135, 135, 60, 132, 58, 2, 0.586972
161, 3, bw, attraction, a-b-da, 14, 3, 6, 3, 120, 195, 181, 111, 195, 120, 3, 1.28933
161, 3, bw, attraction, a-b-da, 14, 3, 6, 3, 120, 195, 181, 111, 195, 120, 2, 0.788117
161, 3, bw, catch, NA, 999, 999, 6, 4, 69, 126, 165, 90, 158, 157, 3, 1.0985
161, 3, bw, catch, NA, 999, 999, 6, 4, 69, 126, 165, 90, 158, 157, 1, 1.11762
161, 3, bw, attraction, a-b-db, 14, 1, 6, 5, 135, 60, 56, 125, 60, 135, 1, 1.3664
161, 3, bw, attraction, a-b-db, 14, 1, 6, 5, 135, 60, 56, 125, 60, 135, 2, 0.614679
161, 3, bw, filler, NA, 999, 999, 6, 6, 57, 75, 169, 165, 70, 131, 2, 0.635702
161, 3, bw, filler, NA, 999, 999, 6, 6, 57, 75, 169, 165, 70, 131, 1, 0.60152
161, 3, bw, attraction, a-b-da, 5, 3, 6, 7, 190, 117, 120, 195, 195, 120, 3, 0.895223
161, 3, bw, attraction, a-b-da, 5, 3, 6, 7, 190, 117, 120, 195, 195, 120, 2, 0.498302
161, 3, bw, attraction, a-b-da, 5, 2, 6, 8, 161, 88, 165, 90, 90, 165, 1, 0.804055
161, 3, bw, attraction, a-b-da, 5, 2, 6, 8, 161, 88, 165, 90, 90, 165, 3, 0.651149
161, 3, bw, filler, NA, 999, 999, 6, 9, 160, 141, 70, 178, 192, 67, 1, 0.950912
161, 3, bw, filler, NA, 999, 999, 6, 9, 160, 141, 70, 178, 192, 67, 2, 0.799888
161, 3, bw, filler, NA, 999, 999, 6, 10, 112, 75, 179, 138, 146, 185, 3, 1.46952
161, 3, bw, filler, NA, 999, 999, 6, 10, 112, 75, 179, 138, 146, 185, 1, 0.809902
161, 3, bw, filler, NA, 999, 999, 6, 11, 119, 80, 180, 154, 171, 172, 2, 0.846771
161, 3, bw, filler, NA, 999, 999, 6, 11, 119, 80, 180, 154, 171, 172, 1, 0.483889
161, 3, bw, attraction, a-b-db, 5, 1, 6, 12, 60, 135, 135, 60, 58, 132, 3, 0.870342
161, 3, bw, attraction, a-b-db, 5, 1, 6, 12, 60, 135, 135, 60, 58, 132, 2, 0.546592
161, 3, bw, attraction, a-b-da, 14, 2, 6, 13, 165, 90, 153, 83, 90, 165, 3, 0.53848
161, 3, bw, attraction, a-b-da, 14, 2, 6, 13, 165, 90, 153, 83, 90, 165, 2, 0.683485
161, 3, bw, attraction, a-b-db, 14, 3, 6, 14, 111, 181, 120, 195, 195, 120, 3, 0.597996
161, 3, bw, attraction, a-b-db, 14, 3, 6, 14, 111, 181, 120, 195, 195, 120, 1, 0.493065
161, 3, bw, catch, NA, 999, 999, 6, 15, 174, 141, 108, 147, 107, 88, 1, 0.75878
161, 3, bw, catch, NA, 999, 999, 6, 15, 174, 141, 108, 147, 107, 88, 3, 0.655318
161, 3, bw, attraction, a-b-db, 2, 2, 6, 16, 90, 165, 165, 90, 89, 163, 2, 1.2509
161, 3, bw, attraction, a-b-db, 2, 2, 6, 16, 90, 165, 165, 90, 89, 163, 1, 0.647936
161, 3, bw, attraction, a-b-da, 14, 1, 6, 17, 135, 60, 60, 135, 125, 56, 2, 0.96361
161, 3, bw, attraction, a-b-da, 14, 1, 6, 17, 135, 60, 60, 135, 125, 56, 1, 0.772094
161, 3, bw, filler, NA, 999, 999, 6, 18, 110, 145, 186, 90, 120, 95, 1, 0.994946
161, 3, bw, filler, NA, 999, 999, 6, 18, 110, 145, 186, 90, 120, 95, 3, 1.22604
161, 3, bw, attraction, a-b-db, 14, 2, 6, 19, 90, 165, 83, 153, 165, 90, 3, 0.974384
161, 3, bw, attraction, a-b-db, 14, 2, 6, 19, 90, 165, 83, 153, 165, 90, 2, 0.461899
161, 3, bw, attraction, a-b-da, 2, 1, 6, 20, 60, 135, 135, 60, 134, 59, 1, 0.632984
161, 3, bw, attraction, a-b-da, 2, 1, 6, 20, 60, 135, 135, 60, 134, 59, 2, 0.382807
161, 3, bw, filler, NA, 999, 999, 6, 21, 101, 67, 155, 92, 116, 149, 1, 0.685225
161, 3, bw, filler, NA, 999, 999, 6, 21, 101, 67, 155, 92, 116, 149, 2, 0.601048
161, 3, bw, attraction, a-b-da, 9, 2, 6, 22, 165, 90, 157, 86, 90, 165, 1, 0.7508
161, 3, bw, attraction, a-b-da, 9, 2, 6, 22, 165, 90, 157, 86, 90, 165, 3, 0.91991
161, 3, bw, filler, NA, 999, 999, 6, 23, 127, 182, 104, 88, 93, 78, 1, 1.18689
161, 3, bw, filler, NA, 999, 999, 6, 23, 127, 182, 104, 88, 93, 78, 3, 0.75984
161, 3, bw, attraction, a-b-da, 9, 1, 6, 24, 129, 57, 135, 60, 60, 135, 3, 1.5349
161, 3, bw, attraction, a-b-da, 9, 1, 6, 24, 129, 57, 135, 60, 60, 135, 2, 1.2243
161, 3, bw, attraction, a-b-da, 2, 3, 6, 25, 193, 119, 120, 195, 195, 120, 3, 0.628503
161, 3, bw, attraction, a-b-da, 2, 3, 6, 25, 193, 119, 120, 195, 195, 120, 2, 0.60232
161, 3, bw, attraction, a-b-db, 5, 2, 6, 26, 88, 161, 90, 165, 165, 90, 3, 1.67202
161, 3, bw, attraction, a-b-db, 5, 2, 6, 26, 88, 161, 90, 165, 165, 90, 1, 0.451489
161, 3, bw, attraction, a-b-db, 2, 1, 6, 27, 135, 60, 59, 134, 60, 135, 1, 1.85011
161, 3, bw, attraction, a-b-db, 2, 1, 6, 27, 135, 60, 59, 134, 60, 135, 2, 0.724193
161, 3, bw, attraction, a-b-db, 9, 3, 6, 28, 195, 120, 120, 195, 114, 186, 1, 1.5085
161, 3, bw, attraction, a-b-db, 9, 3, 6, 28, 195, 120, 120, 195, 114, 186, 2, 1.15076
161, 3, bw, attraction, a-b-db, 5, 3, 6, 29, 117, 190, 120, 195, 195, 120, 3, 1.03827
161, 3, bw, attraction, a-b-db, 5, 3, 6, 29, 117, 190, 120, 195, 195, 120, 1, 0.715164
161, 3, bw, attraction, a-b-db, 9, 2, 6, 30, 86, 157, 90, 165, 165, 90, 3, 1.66832
161, 3, bw, attraction, a-b-db, 9, 2, 6, 30, 86, 157, 90, 165, 165, 90, 1, 0.648418
161, 3, bw, attraction, a-b-da, 2, 2, 6, 31, 165, 90, 163, 89, 90, 165, 1, 0.692065
161, 3, bw, attraction, a-b-da, 2, 2, 6, 31, 165, 90, 163, 89, 90, 165, 2, 0.327207
161, 3, bw, filler, NA, 999, 999, 6, 32, 122, 131, 57, 153, 79, 89, 1, 0.863693
161, 3, bw, filler, NA, 999, 999, 6, 32, 122, 131, 57, 153, 79, 89, 3, 0.55615
161, 3, bw, attraction, a-b-db, 2, 3, 6, 33, 119, 193, 120, 195, 195, 120, 3, 0.756035
161, 3, bw, attraction, a-b-db, 2, 3, 6, 33, 119, 193, 120, 195, 195, 120, 1, 0.532303
161, 3, bw, attraction, a-b-db, 9, 1, 6, 34, 135, 60, 60, 135, 57, 129, 1, 0.812628
161, 3, bw, attraction, a-b-db, 9, 1, 6, 34, 135, 60, 60, 135, 57, 129, 2, 0.387006
161, 3, bw, filler, NA, 999, 999, 6, 35, 168, 190, 82, 186, 65, 92, 1, 0.593515
161, 3, bw, filler, NA, 999, 999, 6, 35, 168, 190, 82, 186, 65, 92, 3, 0.496721
161, 3, bw, catch, NA, 999, 999, 6, 36, 94, 101, 161, 154, 153, 102, 2, 0.778437
161, 3, bw, catch, NA, 999, 999, 6, 36, 94, 101, 161, 154, 153, 102, 1, 0.482156
161, 3, bw, filler, NA, 999, 999, 6, 37, 183, 126, 98, 67, 122, 171, 1, 0.804758
161, 3, bw, filler, NA, 999, 999, 6, 37, 183, 126, 98, 67, 122, 171, 2, 0.459046
161, 3, bw, attraction, a-b-db, 9, 1, 7, 1, 57, 129, 60, 135, 135, 60, 1, 1.04625
161, 3, bw, attraction, a-b-db, 9, 1, 7, 1, 57, 129, 60, 135, 135, 60, 3, 1.01138
161, 3, bw, filler, NA, 999, 999, 7, 2, 166, 95, 189, 161, 114, 164, 2, 0.872204
161, 3, bw, filler, NA, 999, 999, 7, 2, 166, 95, 189, 161, 114, 164, 1, 0.435803
161, 3, bw, attraction, a-b-da, 5, 1, 7, 3, 60, 135, 132, 58, 135, 60, 3, 0.864398
161, 3, bw, attraction, a-b-da, 5, 1, 7, 3, 60, 135, 132, 58, 135, 60, 2, 0.5966
161, 3, bw, attraction, a-b-db, 2, 2, 7, 4, 89, 163, 90, 165, 165, 90, 3, 0.594439
161, 3, bw, attraction, a-b-db, 2, 2, 7, 4, 89, 163, 90, 165, 165, 90, 2, 0.76148
161, 3, bw, filler, NA, 999, 999, 7, 5, 173, 63, 189, 181, 170, 108, 2, 0.84047
161, 3, bw, filler, NA, 999, 999, 7, 5, 173, 63, 189, 181, 170, 108, 1, 0.525514
161, 3, bw, attraction, a-b-da, 2, 2, 7, 6, 163, 89, 165, 90, 90, 165, 3, 0.686106
161, 3, bw, attraction, a-b-da, 2, 2, 7, 6, 163, 89, 165, 90, 90, 165, 2, 0.441782
161, 3, bw, filler, NA, 999, 999, 7, 7, 67, 164, 82, 192, 160, 169, 3, 0.725608
161, 3, bw, filler, NA, 999, 999, 7, 7, 67, 164, 82, 192, 160, 169, 1, 0.647405
161, 3, bw, attraction, a-b-db, 14, 3, 7, 8, 120, 195, 195, 120, 111, 181, 3, 0.971157
161, 3, bw, attraction, a-b-db, 14, 3, 7, 8, 120, 195, 195, 120, 111, 181, 2, 0.722683
161, 3, bw, attraction, a-b-da, 14, 1, 7, 9, 135, 60, 125, 56, 60, 135, 3, 0.579914
161, 3, bw, attraction, a-b-da, 14, 1, 7, 9, 135, 60, 125, 56, 60, 135, 2, 0.587654
161, 3, bw, attraction, a-b-db, 14, 1, 7, 10, 60, 135, 56, 125, 135, 60, 3, 1.40198
161, 3, bw, attraction, a-b-db, 14, 1, 7, 10, 60, 135, 56, 125, 135, 60, 2, 0.680889
161, 3, bw, attraction, a-b-da, 9, 3, 7, 11, 195, 120, 186, 114, 120, 195, 3, 0.571293
161, 3, bw, attraction, a-b-da, 9, 3, 7, 11, 195, 120, 186, 114, 120, 195, 1, 0.451222
161, 3, bw, attraction, a-b-da, 5, 3, 7, 12, 190, 117, 195, 120, 120, 195, 3, 0.558835
161, 3, bw, attraction, a-b-da, 5, 3, 7, 12, 190, 117, 195, 120, 120, 195, 1, 0.479354
161, 3, bw, attraction, a-b-db, 5, 1, 7, 13, 60, 135, 58, 132, 135, 60, 3, 0.88979
161, 3, bw, attraction, a-b-db, 5, 1, 7, 13, 60, 135, 58, 132, 135, 60, 1, 0.628917
161, 3, bw, attraction, a-b-db, 2, 1, 7, 14, 135, 60, 60, 135, 59, 134, 3, 0.50536
161, 3, bw, attraction, a-b-db, 2, 1, 7, 14, 135, 60, 60, 135, 59, 134, 1, 0.627738
161, 3, bw, attraction, a-b-db, 14, 2, 7, 15, 83, 153, 90, 165, 165, 90, 3, 0.62411
161, 3, bw, attraction, a-b-db, 14, 2, 7, 15, 83, 153, 90, 165, 165, 90, 1, 0.590006
161, 3, bw, attraction, a-b-da, 9, 1, 7, 16, 60, 135, 129, 57, 135, 60, 3, 0.699762
161, 3, bw, attraction, a-b-da, 9, 1, 7, 16, 60, 135, 129, 57, 135, 60, 1, 0.878826
161, 3, bw, attraction, a-b-da, 2, 1, 7, 17, 134, 59, 60, 135, 135, 60, 3, 0.657226
161, 3, bw, attraction, a-b-da, 2, 1, 7, 17, 134, 59, 60, 135, 135, 60, 1, 0.693479
161, 3, bw, attraction, a-b-db, 2, 3, 7, 18, 195, 120, 119, 193, 120, 195, 3, 0.759256
161, 3, bw, attraction, a-b-db, 2, 3, 7, 18, 195, 120, 119, 193, 120, 195, 1, 0.679597
161, 3, bw, attraction, a-b-db, 9, 2, 7, 19, 165, 90, 90, 165, 86, 157, 3, 0.698025
161, 3, bw, attraction, a-b-db, 9, 2, 7, 19, 165, 90, 90, 165, 86, 157, 1, 0.477185
161, 3, bw, filler, NA, 999, 999, 7, 20, 120, 113, 189, 127, 129, 143, 3, 0.599539
161, 3, bw, filler, NA, 999, 999, 7, 20, 120, 113, 189, 127, 129, 143, 1, 0.422871
161, 3, bw, catch, NA, 999, 999, 7, 21, 169, 146, 101, 94, 134, 121, 1, 1.22784
161, 3, bw, catch, NA, 999, 999, 7, 21, 169, 146, 101, 94, 134, 121, 2, 0.369479
161, 3, bw, attraction, a-b-da, 9, 2, 7, 22, 90, 165, 165, 90, 157, 86, 1, 0.584557
161, 3, bw, attraction, a-b-da, 9, 2, 7, 22, 90, 165, 165, 90, 157, 86, 3, 1.01644
161, 3, bw, attraction, a-b-da, 14, 2, 7, 23, 90, 165, 165, 90, 153, 83, 1, 0.789279
161, 3, bw, attraction, a-b-da, 14, 2, 7, 23, 90, 165, 165, 90, 153, 83, 2, 0.580346
161, 3, bw, catch, NA, 999, 999, 7, 24, 187, 128, 162, 93, 83, 112, 1, 0.578927
161, 3, bw, catch, NA, 999, 999, 7, 24, 187, 128, 162, 93, 83, 112, 3, 0.922631
161, 3, bw, filler, NA, 999, 999, 7, 25, 83, 178, 111, 89, 78, 81, 1, 1.0038
161, 3, bw, filler, NA, 999, 999, 7, 25, 83, 178, 111, 89, 78, 81, 3, 1.43473
161, 3, bw, attraction, a-b-db, 5, 3, 7, 26, 120, 195, 117, 190, 195, 120, 3, 1.54287
161, 3, bw, attraction, a-b-db, 5, 3, 7, 26, 120, 195, 117, 190, 195, 120, 1, 0.551522
161, 3, bw, attraction, a-b-db, 5, 2, 7, 27, 88, 161, 90, 165, 165, 90, 3, 0.711422
161, 3, bw, attraction, a-b-db, 5, 2, 7, 27, 88, 161, 90, 165, 165, 90, 1, 0.449784
161, 3, bw, filler, NA, 999, 999, 7, 28, 133, 62, 159, 128, 112, 139, 3, 0.541568
161, 3, bw, filler, NA, 999, 999, 7, 28, 133, 62, 159, 128, 112, 139, 1, 0.566811
161, 3, bw, attraction, a-b-da, 14, 3, 7, 29, 195, 120, 120, 195, 181, 111, 2, 0.821815
161, 3, bw, attraction, a-b-da, 14, 3, 7, 29, 195, 120, 120, 195, 181, 111, 3, 0.91555
161, 3, bw, filler, NA, 999, 999, 7, 30, 142, 142, 193, 168, 101, 165, 2, 1.16453
161, 3, bw, filler, NA, 999, 999, 7, 30, 142, 142, 193, 168, 101, 165, 3, 1.05271
161, 3, bw, catch, NA, 999, 999, 7, 31, 137, 178, 122, 73, 150, 105, 1, 0.864454
161, 3, bw, catch, NA, 999, 999, 7, 31, 137, 178, 122, 73, 150, 105, 2, 0.796791
161, 3, bw, attraction, a-b-db, 9, 3, 7, 32, 120, 195, 114, 186, 195, 120, 1, 0.778502
161, 3, bw, attraction, a-b-db, 9, 3, 7, 32, 120, 195, 114, 186, 195, 120, 2, 0.578362
161, 3, bw, filler, NA, 999, 999, 7, 33, 84, 182, 109, 145, 167, 188, 3, 1.28063
161, 3, bw, filler, NA, 999, 999, 7, 33, 84, 182, 109, 145, 167, 188, 2, 1.14811
161, 3, bw, filler, NA, 999, 999, 7, 34, 105, 113, 189, 190, 92, 192, 2, 0.851832
161, 3, bw, filler, NA, 999, 999, 7, 34, 105, 113, 189, 190, 92, 192, 1, 0.54486
161, 3, bw, filler, NA, 999, 999, 7, 35, 79, 102, 120, 122, 57, 166, 2, 0.648547
161, 3, bw, filler, NA, 999, 999, 7, 35, 79, 102, 120, 122, 57, 166, 1, 0.54979
161, 3, bw, attraction, a-b-da, 5, 2, 7, 36, 165, 90, 90, 165, 161, 88, 2, 0.757428
161, 3, bw, attraction, a-b-da, 5, 2, 7, 36, 165, 90, 90, 165, 161, 88, 1, 0.62183
161, 3, bw, attraction, a-b-da, 2, 3, 7, 37, 195, 120, 193, 119, 120, 195, 2, 0.546969
161, 3, bw, attraction, a-b-da, 2, 3, 7, 37, 195, 120, 193, 119, 120, 195, 1, 0.412105
161, 3, bw, attraction, a-b-db, 5, 3, 8, 1, 195, 120, 117, 190, 120, 195, 2, 0.545232
161, 3, bw, attraction, a-b-db, 5, 3, 8, 1, 195, 120, 117, 190, 120, 195, 1, 0.4744
161, 3, bw, attraction, a-b-db, 9, 1, 8, 2, 57, 129, 60, 135, 135, 60, 3, 1.59687
161, 3, bw, attraction, a-b-db, 9, 1, 8, 2, 57, 129, 60, 135, 135, 60, 1, 0.787605
161, 3, bw, attraction, a-b-db, 14, 3, 8, 3, 120, 195, 195, 120, 111, 181, 2, 0.610119
161, 3, bw, attraction, a-b-db, 14, 3, 8, 3, 120, 195, 195, 120, 111, 181, 1, 0.400597
161, 3, bw, catch, NA, 999, 999, 8, 4, 102, 93, 185, 130, 125, 130, 2, 0.670291
161, 3, bw, catch, NA, 999, 999, 8, 4, 102, 93, 185, 130, 125, 130, 1, 0.498662
161, 3, bw, attraction, a-b-da, 2, 1, 8, 5, 60, 135, 135, 60, 134, 59, 3, 2.10053
161, 3, bw, attraction, a-b-da, 2, 1, 8, 5, 60, 135, 135, 60, 134, 59, 2, 0.735134
161, 3, bw, attraction, a-b-da, 14, 1, 8, 6, 60, 135, 125, 56, 135, 60, 3, 5.95958
161, 3, bw, attraction, a-b-da, 14, 1, 8, 6, 60, 135, 125, 56, 135, 60, 2, 0.726364
161, 3, bw, catch, NA, 999, 999, 8, 7, 193, 122, 156, 99, 125, 70, 1, 1.45473
161, 3, bw, catch, NA, 999, 999, 8, 7, 193, 122, 156, 99, 125, 70, 3, 0.947022
161, 3, bw, attraction, a-b-da, 9, 1, 8, 8, 129, 57, 60, 135, 135, 60, 1, 0.74656
161, 3, bw, attraction, a-b-da, 9, 1, 8, 8, 129, 57, 60, 135, 135, 60, 2, 0.651604
161, 3, bw, attraction, a-b-db, 2, 2, 8, 9, 165, 90, 89, 163, 90, 165, 1, 0.511407
161, 3, bw, attraction, a-b-db, 2, 2, 8, 9, 165, 90, 89, 163, 90, 165, 2, 0.913902
161, 3, bw, filler, NA, 999, 999, 8, 10, 188, 66, 182, 85, 139, 104, 1, 0.73076
161, 3, bw, filler, NA, 999, 999, 8, 10, 188, 66, 182, 85, 139, 104, 2, 0.620662
161, 3, bw, attraction, a-b-db, 2, 1, 8, 11, 60, 135, 59, 134, 135, 60, 1, 0.793607
161, 3, bw, attraction, a-b-db, 2, 1, 8, 11, 60, 135, 59, 134, 135, 60, 2, 0.800872
161, 3, bw, catch, NA, 999, 999, 8, 12, 63, 132, 190, 125, 149, 106, 2, 1.07173
161, 3, bw, catch, NA, 999, 999, 8, 12, 63, 132, 190, 125, 149, 106, 1, 0.482083
161, 3, bw, filler, NA, 999, 999, 8, 13, 87, 118, 160, 177, 108, 158, 2, 12.6686
161, 3, bw, filler, NA, 999, 999, 8, 13, 87, 118, 160, 177, 108, 158, 1, 0.701341
161, 3, bw, attraction, a-b-da, 14, 2, 8, 14, 90, 165, 165, 90, 153, 83, 2, 1.18302
161, 3, bw, attraction, a-b-da, 14, 2, 8, 14, 90, 165, 165, 90, 153, 83, 1, 0.710445
161, 3, bw, attraction, a-b-da, 2, 3, 8, 15, 195, 120, 120, 195, 193, 119, 2, 0.575516
161, 3, bw, attraction, a-b-da, 2, 3, 8, 15, 195, 120, 120, 195, 193, 119, 1, 0.623472
161, 3, bw, filler, NA, 999, 999, 8, 16, 156, 80, 189, 58, 116, 176, 3, 0.667864
161, 3, bw, filler, NA, 999, 999, 8, 16, 156, 80, 189, 58, 116, 176, 2, 0.624127
161, 3, bw, filler, NA, 999, 999, 8, 17, 119, 81, 134, 191, 156, 102, 2, 0.82861
161, 3, bw, filler, NA, 999, 999, 8, 17, 119, 81, 134, 191, 156, 102, 1, 0.57021
161, 3, bw, attraction, a-b-db, 5, 2, 8, 18, 90, 165, 165, 90, 88, 161, 3, 0.849469
161, 3, bw, attraction, a-b-db, 5, 2, 8, 18, 90, 165, 165, 90, 88, 161, 2, 0.446453
161, 3, bw, filler, NA, 999, 999, 8, 19, 113, 129, 167, 109, 113, 100, 2, 1.22616
161, 3, bw, filler, NA, 999, 999, 8, 19, 113, 129, 167, 109, 113, 100, 3, 0.671865
161, 3, bw, filler, NA, 999, 999, 8, 20, 111, 170, 69, 140, 99, 87, 1, 0.826947
161, 3, bw, filler, NA, 999, 999, 8, 20, 111, 170, 69, 140, 99, 87, 2, 0.520549
161, 3, bw, attraction, a-b-db, 5, 1, 8, 21, 58, 132, 60, 135, 135, 60, 1, 1.36172
161, 3, bw, attraction, a-b-db, 5, 1, 8, 21, 58, 132, 60, 135, 135, 60, 2, 0.417938
161, 3, bw, attraction, a-b-db, 14, 1, 8, 22, 135, 60, 56, 125, 60, 135, 1, 0.831046
161, 3, bw, attraction, a-b-db, 14, 1, 8, 22, 135, 60, 56, 125, 60, 135, 2, 0.532867
161, 3, bw, filler, NA, 999, 999, 8, 23, 122, 88, 174, 192, 106, 103, 2, 1.00526
161, 3, bw, filler, NA, 999, 999, 8, 23, 122, 88, 174, 192, 106, 103, 1, 0.451587
161, 3, bw, attraction, a-b-db, 14, 2, 8, 24, 90, 165, 83, 153, 165, 90, 3, 1.02331
161, 3, bw, attraction, a-b-db, 14, 2, 8, 24, 90, 165, 83, 153, 165, 90, 2, 0.388943
161, 3, bw, filler, NA, 999, 999, 8, 25, 73, 90, 167, 104, 68, 79, 2, 0.763499
161, 3, bw, filler, NA, 999, 999, 8, 25, 73, 90, 167, 104, 68, 79, 3, 0.555834
161, 3, bw, attraction, a-b-da, 5, 1, 8, 26, 135, 60, 132, 58, 60, 135, 2, 0.659739
161, 3, bw, attraction, a-b-da, 5, 1, 8, 26, 135, 60, 132, 58, 60, 135, 1, 0.440187
161, 3, bw, attraction, a-b-da, 2, 2, 8, 27, 163, 89, 165, 90, 90, 165, 2, 0.499915
161, 3, bw, attraction, a-b-da, 2, 2, 8, 27, 163, 89, 165, 90, 90, 165, 1, 0.559045
161, 3, bw, attraction, a-b-da, 5, 2, 8, 28, 90, 165, 161, 88, 165, 90, 2, 0.534079
161, 3, bw, attraction, a-b-da, 5, 2, 8, 28, 90, 165, 161, 88, 165, 90, 1, 0.463926
161, 3, bw, filler, NA, 999, 999, 8, 29, 74, 66, 64, 121, 122, 92, 3, 0.89101
161, 3, bw, filler, NA, 999, 999, 8, 29, 74, 66, 64, 121, 122, 92, 2, 0.510069
161, 3, bw, attraction, a-b-da, 9, 2, 8, 30, 90, 165, 157, 86, 165, 90, 3, 0.511212
161, 3, bw, attraction, a-b-da, 9, 2, 8, 30, 90, 165, 157, 86, 165, 90, 2, 0.529746
161, 3, bw, attraction, a-b-db, 9, 3, 8, 31, 195, 120, 120, 195, 114, 186, 1, 1.02625
161, 3, bw, attraction, a-b-db, 9, 3, 8, 31, 195, 120, 120, 195, 114, 186, 2, 0.367881
161, 3, bw, attraction, a-b-da, 5, 3, 8, 32, 120, 195, 195, 120, 190, 117, 1, 0.518901
161, 3, bw, attraction, a-b-da, 5, 3, 8, 32, 120, 195, 195, 120, 190, 117, 2, 0.409411
161, 3, bw, attraction, a-b-da, 14, 3, 8, 33, 195, 120, 181, 111, 120, 195, 1, 0.390509
161, 3, bw, attraction, a-b-da, 14, 3, 8, 33, 195, 120, 181, 111, 120, 195, 2, 0.693777
161, 3, bw, attraction, a-b-da, 9, 3, 8, 34, 186, 114, 120, 195, 195, 120, 3, 2.61549
161, 3, bw, attraction, a-b-da, 9, 3, 8, 34, 186, 114, 120, 195, 195, 120, 2, 0.717443
161, 3, bw, attraction, a-b-db, 9, 2, 8, 35, 86, 157, 165, 90, 90, 165, 2, 0.574321
161, 3, bw, attraction, a-b-db, 9, 2, 8, 35, 86, 157, 165, 90, 90, 165, 3, 0.398142
161, 3, bw, attraction, a-b-db, 2, 3, 8, 36, 195, 120, 119, 193, 120, 195, 2, 0.564143
161, 3, bw, attraction, a-b-db, 2, 3, 8, 36, 195, 120, 119, 193, 120, 195, 3, 0.388389
161, 3, bw, filler, NA, 999, 999, 8, 37, 143, 114, 154, 60, 175, 146, 1, 1.18697
161, 3, bw, filler, NA, 999, 999, 8, 37, 143, 114, 154, 60, 175, 146, 2, 1.15461
