sub_n, computer_n, bw_cond, effect, set, distance, diag, block_n, trial_n, h1, w1, h2, w2, h3, w3, choice, rt 
196, 3, wb, practice, NA, 999, 999, 0, 1, 59, 134, 185, 77, 150, 93, 1, 2.70169
196, 3, wb, practice, NA, 999, 999, 0, 1, 59, 134, 185, 77, 150, 93, 2, 7.30404
196, 3, wb, practice, NA, 999, 999, 0, 2, 57, 96, 130, 92, 135, 69, 1, 3.20526
196, 3, wb, practice, NA, 999, 999, 0, 2, 57, 96, 130, 92, 135, 69, 2, 2.08997
196, 3, wb, practice, NA, 999, 999, 0, 3, 113, 71, 114, 66, 127, 166, 2, 2.21655
196, 3, wb, practice, NA, 999, 999, 0, 3, 113, 71, 114, 66, 127, 166, 3, 1.41481
196, 3, wb, attraction, a-b-db, 14, 2, 1, 1, 83, 153, 90, 165, 165, 90, 1, 2.6467
196, 3, wb, attraction, a-b-db, 14, 2, 1, 1, 83, 153, 90, 165, 165, 90, 2, 1.37122
196, 3, wb, filler, NA, 999, 999, 1, 2, 78, 180, 78, 72, 164, 180, 2, 1.54597
196, 3, wb, filler, NA, 999, 999, 1, 2, 78, 180, 78, 72, 164, 180, 3, 3.10685
196, 3, wb, attraction, a-b-db, 5, 2, 1, 3, 90, 165, 165, 90, 88, 161, 3, 3.77185
196, 3, wb, attraction, a-b-db, 5, 2, 1, 3, 90, 165, 165, 90, 88, 161, 1, 1.02667
196, 3, wb, attraction, a-b-db, 2, 1, 1, 4, 60, 135, 135, 60, 59, 134, 2, 2.99087
196, 3, wb, attraction, a-b-db, 2, 1, 1, 4, 60, 135, 135, 60, 59, 134, 3, 0.989205
196, 3, wb, attraction, a-b-da, 2, 2, 1, 5, 90, 165, 165, 90, 163, 89, 2, 3.33158
196, 3, wb, attraction, a-b-da, 2, 2, 1, 5, 90, 165, 165, 90, 163, 89, 1, 0.692546
196, 3, wb, catch, NA, 999, 999, 1, 6, 86, 109, 194, 121, 135, 120, 1, 1.37419
196, 3, wb, catch, NA, 999, 999, 1, 6, 86, 109, 194, 121, 135, 120, 2, 0.765774
196, 3, wb, filler, NA, 999, 999, 1, 7, 112, 148, 121, 101, 114, 170, 2, 1.07668
196, 3, wb, filler, NA, 999, 999, 1, 7, 112, 148, 121, 101, 114, 170, 3, 0.456355
196, 3, wb, attraction, a-b-da, 5, 3, 1, 8, 120, 195, 190, 117, 195, 120, 2, 1.5963
196, 3, wb, attraction, a-b-da, 5, 3, 1, 8, 120, 195, 190, 117, 195, 120, 1, 0.851136
196, 3, wb, attraction, a-b-db, 14, 3, 1, 9, 111, 181, 120, 195, 195, 120, 1, 1.66276
196, 3, wb, attraction, a-b-db, 14, 3, 1, 9, 111, 181, 120, 195, 195, 120, 2, 0.482884
196, 3, wb, attraction, a-b-db, 2, 2, 1, 10, 165, 90, 89, 163, 90, 165, 2, 1.83736
196, 3, wb, attraction, a-b-db, 2, 2, 1, 10, 165, 90, 89, 163, 90, 165, 3, 1.01872
196, 3, wb, filler, NA, 999, 999, 1, 11, 122, 95, 165, 177, 86, 79, 3, 1.15168
196, 3, wb, filler, NA, 999, 999, 1, 11, 122, 95, 165, 177, 86, 79, 2, 0.480513
196, 3, wb, attraction, a-b-da, 9, 2, 1, 12, 90, 165, 157, 86, 165, 90, 2, 3.10704
196, 3, wb, attraction, a-b-da, 9, 2, 1, 12, 90, 165, 157, 86, 165, 90, 3, 0.716805
196, 3, wb, attraction, a-b-db, 2, 3, 1, 13, 120, 195, 119, 193, 195, 120, 3, 5.85371
196, 3, wb, attraction, a-b-db, 2, 3, 1, 13, 120, 195, 119, 193, 195, 120, 1, 0.793243
196, 3, wb, attraction, a-b-db, 14, 1, 1, 14, 135, 60, 56, 125, 60, 135, 2, 1.99903
196, 3, wb, attraction, a-b-db, 14, 1, 1, 14, 135, 60, 56, 125, 60, 135, 3, 1.0377
196, 3, wb, filler, NA, 999, 999, 1, 15, 136, 123, 126, 175, 71, 94, 3, 1.08181
196, 3, wb, filler, NA, 999, 999, 1, 15, 136, 123, 126, 175, 71, 94, 2, 0.477489
196, 3, wb, attraction, a-b-db, 5, 3, 1, 16, 120, 195, 195, 120, 117, 190, 2, 3.00804
196, 3, wb, attraction, a-b-db, 5, 3, 1, 16, 120, 195, 195, 120, 117, 190, 1, 0.869889
196, 3, wb, filler, NA, 999, 999, 1, 17, 91, 123, 71, 153, 159, 159, 1, 4.24868
196, 3, wb, filler, NA, 999, 999, 1, 17, 91, 123, 71, 153, 159, 159, 3, 1.01271
196, 3, wb, attraction, a-b-da, 9, 3, 1, 18, 195, 120, 120, 195, 186, 114, 3, 4.24966
196, 3, wb, attraction, a-b-da, 9, 3, 1, 18, 195, 120, 120, 195, 186, 114, 2, 0.46965
196, 3, wb, attraction, a-b-da, 2, 1, 1, 19, 134, 59, 60, 135, 135, 60, 3, 7.11284
196, 3, wb, attraction, a-b-da, 2, 1, 1, 19, 134, 59, 60, 135, 135, 60, 2, 0.577151
196, 3, wb, filler, NA, 999, 999, 1, 20, 174, 75, 128, 122, 185, 101, 1, 14.7196
196, 3, wb, filler, NA, 999, 999, 1, 20, 174, 75, 128, 122, 185, 101, 3, 3.22968
196, 3, wb, attraction, a-b-da, 5, 1, 1, 21, 60, 135, 132, 58, 135, 60, 2, 2.0252
196, 3, wb, attraction, a-b-da, 5, 1, 1, 21, 60, 135, 132, 58, 135, 60, 1, 1.27854
196, 3, wb, attraction, a-b-da, 14, 3, 1, 22, 120, 195, 195, 120, 181, 111, 3, 1.42477
196, 3, wb, attraction, a-b-da, 14, 3, 1, 22, 120, 195, 195, 120, 181, 111, 1, 1.4783
196, 3, wb, attraction, a-b-db, 9, 1, 1, 23, 135, 60, 57, 129, 60, 135, 2, 1.53641
196, 3, wb, attraction, a-b-db, 9, 1, 1, 23, 135, 60, 57, 129, 60, 135, 1, 0.594004
196, 3, wb, attraction, a-b-da, 9, 1, 1, 24, 60, 135, 129, 57, 135, 60, 2, 1.47971
196, 3, wb, attraction, a-b-da, 9, 1, 1, 24, 60, 135, 129, 57, 135, 60, 3, 0.963245
196, 3, wb, filler, NA, 999, 999, 1, 25, 192, 176, 185, 124, 151, 113, 3, 0.946211
196, 3, wb, filler, NA, 999, 999, 1, 25, 192, 176, 185, 124, 151, 113, 1, 0.491095
196, 3, wb, attraction, a-b-db, 9, 2, 1, 26, 165, 90, 86, 157, 90, 165, 2, 4.42894
196, 3, wb, attraction, a-b-db, 9, 2, 1, 26, 165, 90, 86, 157, 90, 165, 1, 0.785573
196, 3, wb, attraction, a-b-da, 14, 2, 1, 27, 90, 165, 153, 83, 165, 90, 2, 1.13597
196, 3, wb, attraction, a-b-da, 14, 2, 1, 27, 90, 165, 153, 83, 165, 90, 1, 0.665561
196, 3, wb, attraction, a-b-da, 2, 3, 1, 28, 120, 195, 195, 120, 193, 119, 3, 1.52464
196, 3, wb, attraction, a-b-da, 2, 3, 1, 28, 120, 195, 195, 120, 193, 119, 1, 0.734065
196, 3, wb, attraction, a-b-da, 14, 1, 1, 29, 135, 60, 125, 56, 60, 135, 3, 1.30247
196, 3, wb, attraction, a-b-da, 14, 1, 1, 29, 135, 60, 125, 56, 60, 135, 1, 1.29742
196, 3, wb, filler, NA, 999, 999, 1, 30, 99, 117, 154, 158, 165, 195, 1, 1.02711
196, 3, wb, filler, NA, 999, 999, 1, 30, 99, 117, 154, 158, 165, 195, 3, 0.544582
196, 3, wb, filler, NA, 999, 999, 1, 31, 83, 182, 138, 175, 71, 186, 3, 1.54426
196, 3, wb, filler, NA, 999, 999, 1, 31, 83, 182, 138, 175, 71, 186, 2, 0.513279
196, 3, wb, catch, NA, 999, 999, 1, 32, 87, 108, 92, 163, 150, 165, 1, 1.1863
196, 3, wb, catch, NA, 999, 999, 1, 32, 87, 108, 92, 163, 150, 165, 3, 0.553914
196, 3, wb, attraction, a-b-db, 5, 1, 1, 33, 58, 132, 135, 60, 60, 135, 1, 2.45767
196, 3, wb, attraction, a-b-db, 5, 1, 1, 33, 58, 132, 135, 60, 60, 135, 3, 0.901592
196, 3, wb, catch, NA, 999, 999, 1, 34, 73, 122, 127, 128, 187, 128, 1, 0.991195
196, 3, wb, catch, NA, 999, 999, 1, 34, 73, 122, 127, 128, 187, 128, 3, 0.53415
196, 3, wb, attraction, a-b-db, 9, 3, 1, 35, 120, 195, 195, 120, 114, 186, 3, 2.21462
196, 3, wb, attraction, a-b-db, 9, 3, 1, 35, 120, 195, 195, 120, 114, 186, 1, 0.460538
196, 3, wb, attraction, a-b-da, 5, 2, 1, 36, 165, 90, 161, 88, 90, 165, 2, 1.92775
196, 3, wb, attraction, a-b-da, 5, 2, 1, 36, 165, 90, 161, 88, 90, 165, 3, 0.753239
196, 3, wb, filler, NA, 999, 999, 1, 37, 190, 66, 122, 171, 158, 74, 3, 1.67271
196, 3, wb, filler, NA, 999, 999, 1, 37, 190, 66, 122, 171, 158, 74, 2, 0.484183
196, 3, wb, filler, NA, 999, 999, 2, 1, 140, 195, 188, 160, 125, 142, 3, 0.958656
196, 3, wb, filler, NA, 999, 999, 2, 1, 140, 195, 188, 160, 125, 142, 2, 0.967224
196, 3, wb, attraction, a-b-da, 9, 2, 2, 2, 157, 86, 90, 165, 165, 90, 1, 1.34995
196, 3, wb, attraction, a-b-da, 9, 2, 2, 2, 157, 86, 90, 165, 165, 90, 2, 0.558881
196, 3, wb, attraction, a-b-da, 9, 3, 2, 3, 120, 195, 195, 120, 186, 114, 3, 1.54202
196, 3, wb, attraction, a-b-da, 9, 3, 2, 3, 120, 195, 195, 120, 186, 114, 2, 0.494812
196, 3, wb, attraction, a-b-db, 9, 3, 2, 4, 120, 195, 195, 120, 114, 186, 1, 1.78456
196, 3, wb, attraction, a-b-db, 9, 3, 2, 4, 120, 195, 195, 120, 114, 186, 2, 0.528132
196, 3, wb, attraction, a-b-da, 14, 3, 2, 5, 181, 111, 195, 120, 120, 195, 1, 1.43256
196, 3, wb, attraction, a-b-da, 14, 3, 2, 5, 181, 111, 195, 120, 120, 195, 2, 0.87004
196, 3, wb, attraction, a-b-da, 5, 1, 2, 6, 132, 58, 135, 60, 60, 135, 2, 1.96094
196, 3, wb, attraction, a-b-da, 5, 1, 2, 6, 132, 58, 135, 60, 60, 135, 3, 0.968974
196, 3, wb, attraction, a-b-da, 5, 2, 2, 7, 161, 88, 165, 90, 90, 165, 1, 2.00809
196, 3, wb, attraction, a-b-da, 5, 2, 2, 7, 161, 88, 165, 90, 90, 165, 3, 0.574152
196, 3, wb, filler, NA, 999, 999, 2, 8, 133, 128, 188, 184, 81, 59, 3, 0.916491
196, 3, wb, filler, NA, 999, 999, 2, 8, 133, 128, 188, 184, 81, 59, 2, 0.550916
196, 3, wb, attraction, a-b-db, 5, 3, 2, 9, 120, 195, 195, 120, 117, 190, 2, 1.59856
196, 3, wb, attraction, a-b-db, 5, 3, 2, 9, 120, 195, 195, 120, 117, 190, 1, 0.405412
196, 3, wb, filler, NA, 999, 999, 2, 10, 164, 105, 70, 82, 113, 160, 2, 1.11521
196, 3, wb, filler, NA, 999, 999, 2, 10, 164, 105, 70, 82, 113, 160, 1, 1.12557
196, 3, wb, filler, NA, 999, 999, 2, 11, 113, 149, 76, 180, 124, 80, 3, 0.98169
196, 3, wb, filler, NA, 999, 999, 2, 11, 113, 149, 76, 180, 124, 80, 1, 0.493402
196, 3, wb, attraction, a-b-db, 2, 3, 2, 12, 120, 195, 195, 120, 119, 193, 2, 1.66315
196, 3, wb, attraction, a-b-db, 2, 3, 2, 12, 120, 195, 195, 120, 119, 193, 3, 0.467254
196, 3, wb, attraction, a-b-da, 2, 2, 2, 13, 165, 90, 90, 165, 163, 89, 3, 1.80638
196, 3, wb, attraction, a-b-da, 2, 2, 2, 13, 165, 90, 90, 165, 163, 89, 2, 0.636593
196, 3, wb, attraction, a-b-da, 9, 1, 2, 14, 60, 135, 135, 60, 129, 57, 3, 1.35292
196, 3, wb, attraction, a-b-da, 9, 1, 2, 14, 60, 135, 135, 60, 129, 57, 1, 0.953962
196, 3, wb, filler, NA, 999, 999, 2, 15, 92, 169, 185, 145, 156, 98, 3, 1.16156
196, 3, wb, filler, NA, 999, 999, 2, 15, 92, 169, 185, 145, 156, 98, 2, 0.857898
196, 3, wb, attraction, a-b-da, 14, 2, 2, 16, 153, 83, 90, 165, 165, 90, 1, 1.58885
196, 3, wb, attraction, a-b-da, 14, 2, 2, 16, 153, 83, 90, 165, 165, 90, 2, 1.01959
196, 3, wb, attraction, a-b-da, 2, 1, 2, 17, 60, 135, 135, 60, 134, 59, 3, 1.85645
196, 3, wb, attraction, a-b-da, 2, 1, 2, 17, 60, 135, 135, 60, 134, 59, 2, 0.836652
196, 3, wb, catch, NA, 999, 999, 2, 18, 149, 106, 98, 97, 150, 165, 2, 0.904849
196, 3, wb, catch, NA, 999, 999, 2, 18, 149, 106, 98, 97, 150, 165, 3, 0.379237
196, 3, wb, attraction, a-b-db, 5, 1, 2, 19, 135, 60, 58, 132, 60, 135, 3, 1.20967
196, 3, wb, attraction, a-b-db, 5, 1, 2, 19, 135, 60, 58, 132, 60, 135, 1, 0.712121
196, 3, wb, attraction, a-b-db, 2, 2, 2, 20, 90, 165, 89, 163, 165, 90, 2, 2.00102
196, 3, wb, attraction, a-b-db, 2, 2, 2, 20, 90, 165, 89, 163, 165, 90, 3, 0.799802
196, 3, wb, attraction, a-b-db, 14, 1, 2, 21, 56, 125, 60, 135, 135, 60, 1, 1.30146
196, 3, wb, attraction, a-b-db, 14, 1, 2, 21, 56, 125, 60, 135, 135, 60, 2, 0.552426
196, 3, wb, attraction, a-b-db, 9, 2, 2, 22, 86, 157, 90, 165, 165, 90, 3, 1.88006
196, 3, wb, attraction, a-b-db, 9, 2, 2, 22, 86, 157, 90, 165, 165, 90, 2, 0.507492
196, 3, wb, attraction, a-b-da, 14, 1, 2, 23, 135, 60, 60, 135, 125, 56, 3, 1.34062
196, 3, wb, attraction, a-b-da, 14, 1, 2, 23, 135, 60, 60, 135, 125, 56, 2, 0.501493
196, 3, wb, attraction, a-b-db, 2, 1, 2, 24, 59, 134, 60, 135, 135, 60, 3, 1.46333
196, 3, wb, attraction, a-b-db, 2, 1, 2, 24, 59, 134, 60, 135, 135, 60, 2, 0.58747
196, 3, wb, catch, NA, 999, 999, 2, 25, 77, 118, 153, 162, 149, 106, 1, 0.849989
196, 3, wb, catch, NA, 999, 999, 2, 25, 77, 118, 153, 162, 149, 106, 2, 0.574844
196, 3, wb, attraction, a-b-db, 9, 1, 2, 26, 135, 60, 60, 135, 57, 129, 3, 1.04535
196, 3, wb, attraction, a-b-db, 9, 1, 2, 26, 135, 60, 60, 135, 57, 129, 2, 0.730335
196, 3, wb, filler, NA, 999, 999, 2, 27, 166, 163, 68, 64, 98, 116, 2, 1.28279
196, 3, wb, filler, NA, 999, 999, 2, 27, 166, 163, 68, 64, 98, 116, 1, 0.478325
196, 3, wb, filler, NA, 999, 999, 2, 28, 83, 96, 131, 80, 77, 177, 1, 1.70472
196, 3, wb, filler, NA, 999, 999, 2, 28, 83, 96, 131, 80, 77, 177, 3, 0.515568
196, 3, wb, attraction, a-b-da, 5, 3, 2, 29, 195, 120, 120, 195, 190, 117, 3, 1.74878
196, 3, wb, attraction, a-b-da, 5, 3, 2, 29, 195, 120, 120, 195, 190, 117, 2, 0.525347
196, 3, wb, attraction, a-b-da, 2, 3, 2, 30, 193, 119, 120, 195, 195, 120, 3, 1.62983
196, 3, wb, attraction, a-b-da, 2, 3, 2, 30, 193, 119, 120, 195, 195, 120, 2, 0.699353
196, 3, wb, catch, NA, 999, 999, 2, 31, 163, 152, 77, 118, 92, 163, 2, 0.884929
196, 3, wb, catch, NA, 999, 999, 2, 31, 163, 152, 77, 118, 92, 163, 1, 0.520655
196, 3, wb, filler, NA, 999, 999, 2, 32, 135, 165, 176, 189, 58, 130, 3, 0.95398
196, 3, wb, filler, NA, 999, 999, 2, 32, 135, 165, 176, 189, 58, 130, 2, 0.506872
196, 3, wb, attraction, a-b-db, 5, 2, 2, 33, 88, 161, 165, 90, 90, 165, 1, 2.03602
196, 3, wb, attraction, a-b-db, 5, 2, 2, 33, 88, 161, 165, 90, 90, 165, 3, 0.561248
196, 3, wb, attraction, a-b-db, 14, 3, 2, 34, 111, 181, 120, 195, 195, 120, 1, 1.89645
196, 3, wb, attraction, a-b-db, 14, 3, 2, 34, 111, 181, 120, 195, 195, 120, 2, 0.475166
196, 3, wb, filler, NA, 999, 999, 2, 35, 164, 94, 127, 87, 139, 75, 3, 1.18957
196, 3, wb, filler, NA, 999, 999, 2, 35, 164, 94, 127, 87, 139, 75, 1, 0.58847
196, 3, wb, attraction, a-b-db, 14, 2, 2, 36, 165, 90, 83, 153, 90, 165, 2, 1.06688
196, 3, wb, attraction, a-b-db, 14, 2, 2, 36, 165, 90, 83, 153, 90, 165, 1, 0.767186
196, 3, wb, filler, NA, 999, 999, 2, 37, 129, 145, 112, 130, 68, 112, 3, 0.694203
196, 3, wb, filler, NA, 999, 999, 2, 37, 129, 145, 112, 130, 68, 112, 1, 0.521523
196, 3, wb, attraction, a-b-db, 14, 3, 3, 1, 195, 120, 111, 181, 120, 195, 2, 1.47461
196, 3, wb, attraction, a-b-db, 14, 3, 3, 1, 195, 120, 111, 181, 120, 195, 1, 0.5822
196, 3, wb, catch, NA, 999, 999, 3, 2, 105, 150, 83, 112, 132, 183, 2, 0.740478
196, 3, wb, catch, NA, 999, 999, 3, 2, 105, 150, 83, 112, 132, 183, 3, 0.445461
196, 3, wb, attraction, a-b-db, 5, 1, 3, 3, 135, 60, 58, 132, 60, 135, 2, 1.6093
196, 3, wb, attraction, a-b-db, 5, 1, 3, 3, 135, 60, 58, 132, 60, 135, 1, 0.583342
196, 3, wb, attraction, a-b-da, 14, 1, 3, 4, 125, 56, 135, 60, 60, 135, 1, 1.06993
196, 3, wb, attraction, a-b-da, 14, 1, 3, 4, 125, 56, 135, 60, 60, 135, 2, 0.434233
196, 3, wb, attraction, a-b-da, 9, 1, 3, 5, 135, 60, 129, 57, 60, 135, 2, 1.00672
196, 3, wb, attraction, a-b-da, 9, 1, 3, 5, 135, 60, 129, 57, 60, 135, 3, 0.445073
196, 3, wb, attraction, a-b-da, 2, 2, 3, 6, 165, 90, 163, 89, 90, 165, 2, 1.29679
196, 3, wb, attraction, a-b-da, 2, 2, 3, 6, 165, 90, 163, 89, 90, 165, 3, 0.403709
196, 3, wb, attraction, a-b-db, 2, 1, 3, 7, 135, 60, 60, 135, 59, 134, 3, 0.953452
196, 3, wb, attraction, a-b-db, 2, 1, 3, 7, 135, 60, 60, 135, 59, 134, 1, 0.722427
196, 3, wb, catch, NA, 999, 999, 3, 8, 156, 159, 139, 116, 91, 104, 3, 0.747536
196, 3, wb, catch, NA, 999, 999, 3, 8, 156, 159, 139, 116, 91, 104, 1, 0.436633
196, 3, wb, filler, NA, 999, 999, 3, 9, 175, 106, 195, 135, 95, 122, 3, 0.881077
196, 3, wb, filler, NA, 999, 999, 3, 9, 175, 106, 195, 135, 95, 122, 2, 0.372828
196, 3, wb, attraction, a-b-da, 2, 1, 3, 10, 134, 59, 135, 60, 60, 135, 2, 1.07604
196, 3, wb, attraction, a-b-da, 2, 1, 3, 10, 134, 59, 135, 60, 60, 135, 3, 0.671554
196, 3, wb, attraction, a-b-db, 9, 3, 3, 11, 195, 120, 120, 195, 114, 186, 3, 0.874566
196, 3, wb, attraction, a-b-db, 9, 3, 3, 11, 195, 120, 120, 195, 114, 186, 1, 0.518344
196, 3, wb, catch, NA, 999, 999, 3, 12, 99, 156, 182, 133, 105, 90, 3, 0.751421
196, 3, wb, catch, NA, 999, 999, 3, 12, 99, 156, 182, 133, 105, 90, 2, 0.400526
196, 3, wb, attraction, a-b-db, 2, 2, 3, 13, 89, 163, 165, 90, 90, 165, 2, 1.39048
196, 3, wb, attraction, a-b-db, 2, 2, 3, 13, 89, 163, 165, 90, 90, 165, 3, 0.805209
196, 3, wb, filler, NA, 999, 999, 3, 14, 169, 174, 116, 178, 144, 174, 2, 0.994953
196, 3, wb, filler, NA, 999, 999, 3, 14, 169, 174, 116, 178, 144, 174, 1, 0.521965
196, 3, wb, attraction, a-b-db, 14, 2, 3, 15, 83, 153, 165, 90, 90, 165, 1, 1.22707
196, 3, wb, attraction, a-b-db, 14, 2, 3, 15, 83, 153, 165, 90, 90, 165, 2, 0.52079
196, 3, wb, filler, NA, 999, 999, 3, 16, 98, 91, 143, 139, 179, 58, 1, 2.58574
196, 3, wb, filler, NA, 999, 999, 3, 16, 98, 91, 143, 139, 179, 58, 2, 0.456838
196, 3, wb, attraction, a-b-db, 2, 3, 3, 17, 195, 120, 119, 193, 120, 195, 1, 3.15613
196, 3, wb, attraction, a-b-db, 2, 3, 3, 17, 195, 120, 119, 193, 120, 195, 3, 1.15576
196, 3, wb, attraction, a-b-da, 5, 1, 3, 18, 135, 60, 60, 135, 132, 58, 3, 1.3473
196, 3, wb, attraction, a-b-da, 5, 1, 3, 18, 135, 60, 60, 135, 132, 58, 1, 0.788164
196, 3, wb, attraction, a-b-da, 5, 2, 3, 19, 90, 165, 161, 88, 165, 90, 2, 1.73863
196, 3, wb, attraction, a-b-da, 5, 2, 3, 19, 90, 165, 161, 88, 165, 90, 3, 0.851249
196, 3, wb, attraction, a-b-da, 5, 3, 3, 20, 190, 117, 195, 120, 120, 195, 1, 2.35099
196, 3, wb, attraction, a-b-da, 5, 3, 3, 20, 190, 117, 195, 120, 120, 195, 3, 0.463571
196, 3, wb, attraction, a-b-da, 9, 3, 3, 21, 186, 114, 195, 120, 120, 195, 1, 1.26663
196, 3, wb, attraction, a-b-da, 9, 3, 3, 21, 186, 114, 195, 120, 120, 195, 3, 0.966879
196, 3, wb, attraction, a-b-da, 14, 3, 3, 22, 195, 120, 181, 111, 120, 195, 2, 1.72592
196, 3, wb, attraction, a-b-da, 14, 3, 3, 22, 195, 120, 181, 111, 120, 195, 1, 2.33545
196, 3, wb, filler, NA, 999, 999, 3, 23, 150, 193, 88, 122, 126, 150, 2, 1.0952
196, 3, wb, filler, NA, 999, 999, 3, 23, 150, 193, 88, 122, 126, 150, 1, 0.338107
196, 3, wb, attraction, a-b-db, 9, 2, 3, 24, 90, 165, 165, 90, 86, 157, 1, 1.46661
196, 3, wb, attraction, a-b-db, 9, 2, 3, 24, 90, 165, 165, 90, 86, 157, 2, 1.27084
196, 3, wb, filler, NA, 999, 999, 3, 25, 164, 177, 67, 66, 116, 101, 2, 0.793754
196, 3, wb, filler, NA, 999, 999, 3, 25, 164, 177, 67, 66, 116, 101, 1, 0.848827
196, 3, wb, attraction, a-b-db, 5, 2, 3, 26, 90, 165, 165, 90, 88, 161, 1, 1.57253
196, 3, wb, attraction, a-b-db, 5, 2, 3, 26, 90, 165, 165, 90, 88, 161, 2, 1.17988
196, 3, wb, attraction, a-b-db, 9, 1, 3, 27, 57, 129, 60, 135, 135, 60, 2, 1.33828
196, 3, wb, attraction, a-b-db, 9, 1, 3, 27, 57, 129, 60, 135, 135, 60, 1, 0.971085
196, 3, wb, filler, NA, 999, 999, 3, 28, 179, 137, 72, 117, 141, 121, 2, 0.802092
196, 3, wb, filler, NA, 999, 999, 3, 28, 179, 137, 72, 117, 141, 121, 1, 0.393008
196, 3, wb, attraction, a-b-db, 5, 3, 3, 29, 120, 195, 117, 190, 195, 120, 1, 2.5189
196, 3, wb, attraction, a-b-db, 5, 3, 3, 29, 120, 195, 117, 190, 195, 120, 2, 0.448856
196, 3, wb, filler, NA, 999, 999, 3, 30, 91, 109, 71, 137, 121, 106, 1, 1.02846
196, 3, wb, filler, NA, 999, 999, 3, 30, 91, 109, 71, 137, 121, 106, 3, 0.498143
196, 3, wb, filler, NA, 999, 999, 3, 31, 75, 103, 59, 191, 128, 177, 1, 2.00406
196, 3, wb, filler, NA, 999, 999, 3, 31, 75, 103, 59, 191, 128, 177, 3, 0.450775
196, 3, wb, filler, NA, 999, 999, 3, 32, 145, 177, 190, 183, 130, 162, 3, 1.47055
196, 3, wb, filler, NA, 999, 999, 3, 32, 145, 177, 190, 183, 130, 162, 2, 0.650689
196, 3, wb, attraction, a-b-db, 14, 1, 3, 33, 135, 60, 60, 135, 56, 125, 3, 1.85444
196, 3, wb, attraction, a-b-db, 14, 1, 3, 33, 135, 60, 60, 135, 56, 125, 1, 0.715167
196, 3, wb, attraction, a-b-da, 2, 3, 3, 34, 120, 195, 195, 120, 193, 119, 3, 3.63616
196, 3, wb, attraction, a-b-da, 2, 3, 3, 34, 120, 195, 195, 120, 193, 119, 2, 0.912986
196, 3, wb, attraction, a-b-da, 9, 2, 3, 35, 157, 86, 90, 165, 165, 90, 1, 1.13804
196, 3, wb, attraction, a-b-da, 9, 2, 3, 35, 157, 86, 90, 165, 165, 90, 2, 0.602901
196, 3, wb, attraction, a-b-da, 14, 2, 3, 36, 153, 83, 90, 165, 165, 90, 1, 1.40865
196, 3, wb, attraction, a-b-da, 14, 2, 3, 36, 153, 83, 90, 165, 165, 90, 2, 0.607062
196, 3, wb, filler, NA, 999, 999, 3, 37, 192, 160, 136, 167, 104, 78, 3, 1.188
196, 3, wb, filler, NA, 999, 999, 3, 37, 192, 160, 136, 167, 104, 78, 1, 0.530872
196, 3, wb, filler, NA, 999, 999, 4, 1, 156, 130, 130, 126, 176, 162, 2, 0.795371
196, 3, wb, filler, NA, 999, 999, 4, 1, 156, 130, 130, 126, 176, 162, 3, 0.506377
196, 3, wb, attraction, a-b-db, 9, 3, 4, 2, 120, 195, 114, 186, 195, 120, 2, 1.32418
196, 3, wb, attraction, a-b-db, 9, 3, 4, 2, 120, 195, 114, 186, 195, 120, 3, 0.453795
196, 3, wb, filler, NA, 999, 999, 4, 3, 85, 140, 105, 91, 64, 109, 3, 1.20149
196, 3, wb, filler, NA, 999, 999, 4, 3, 85, 140, 105, 91, 64, 109, 1, 0.520419
196, 3, wb, catch, NA, 999, 999, 4, 4, 109, 146, 100, 95, 177, 138, 2, 0.689522
196, 3, wb, catch, NA, 999, 999, 4, 4, 109, 146, 100, 95, 177, 138, 3, 0.396683
196, 3, wb, attraction, a-b-db, 2, 3, 4, 5, 120, 195, 119, 193, 195, 120, 3, 1.57862
196, 3, wb, attraction, a-b-db, 2, 3, 4, 5, 120, 195, 119, 193, 195, 120, 2, 0.442037
196, 3, wb, filler, NA, 999, 999, 4, 6, 149, 84, 92, 150, 97, 116, 3, 0.981816
196, 3, wb, filler, NA, 999, 999, 4, 6, 149, 84, 92, 150, 97, 116, 1, 0.501406
196, 3, wb, attraction, a-b-da, 5, 2, 4, 7, 165, 90, 161, 88, 90, 165, 3, 1.11921
196, 3, wb, attraction, a-b-da, 5, 2, 4, 7, 165, 90, 161, 88, 90, 165, 2, 0.641558
196, 3, wb, filler, NA, 999, 999, 4, 8, 130, 84, 105, 59, 76, 117, 2, 0.805226
196, 3, wb, filler, NA, 999, 999, 4, 8, 130, 84, 105, 59, 76, 117, 1, 0.379662
196, 3, wb, attraction, a-b-da, 9, 2, 4, 9, 90, 165, 165, 90, 157, 86, 3, 1.09821
196, 3, wb, attraction, a-b-da, 9, 2, 4, 9, 90, 165, 165, 90, 157, 86, 2, 0.557158
196, 3, wb, filler, NA, 999, 999, 4, 10, 158, 100, 138, 165, 94, 66, 3, 0.884207
196, 3, wb, filler, NA, 999, 999, 4, 10, 158, 100, 138, 165, 94, 66, 2, 0.455865
196, 3, wb, attraction, a-b-db, 5, 3, 4, 11, 117, 190, 195, 120, 120, 195, 1, 1.26773
196, 3, wb, attraction, a-b-db, 5, 3, 4, 11, 117, 190, 195, 120, 120, 195, 3, 0.463972
196, 3, wb, attraction, a-b-db, 9, 1, 4, 12, 60, 135, 135, 60, 57, 129, 3, 1.05113
196, 3, wb, attraction, a-b-db, 9, 1, 4, 12, 60, 135, 135, 60, 57, 129, 2, 0.672108
196, 3, wb, attraction, a-b-db, 2, 2, 4, 13, 90, 165, 165, 90, 89, 163, 3, 1.81925
196, 3, wb, attraction, a-b-db, 2, 2, 4, 13, 90, 165, 165, 90, 89, 163, 2, 0.425198
196, 3, wb, attraction, a-b-db, 14, 3, 4, 14, 120, 195, 195, 120, 111, 181, 3, 1.63777
196, 3, wb, attraction, a-b-db, 14, 3, 4, 14, 120, 195, 195, 120, 111, 181, 2, 1.18715
196, 3, wb, filler, NA, 999, 999, 4, 15, 130, 82, 71, 140, 159, 93, 2, 1.24148
196, 3, wb, filler, NA, 999, 999, 4, 15, 130, 82, 71, 140, 159, 93, 3, 0.446342
196, 3, wb, attraction, a-b-db, 9, 2, 4, 16, 165, 90, 90, 165, 86, 157, 3, 1.30613
196, 3, wb, attraction, a-b-db, 9, 2, 4, 16, 165, 90, 90, 165, 86, 157, 1, 0.48442
196, 3, wb, attraction, a-b-db, 5, 2, 4, 17, 90, 165, 88, 161, 165, 90, 1, 1.3668
196, 3, wb, attraction, a-b-db, 5, 2, 4, 17, 90, 165, 88, 161, 165, 90, 3, 0.719044
196, 3, wb, attraction, a-b-da, 14, 3, 4, 18, 195, 120, 181, 111, 120, 195, 2, 0.936036
196, 3, wb, attraction, a-b-da, 14, 3, 4, 18, 195, 120, 181, 111, 120, 195, 3, 0.937721
196, 3, wb, attraction, a-b-da, 2, 2, 4, 19, 165, 90, 163, 89, 90, 165, 2, 1.99404
196, 3, wb, attraction, a-b-da, 2, 2, 4, 19, 165, 90, 163, 89, 90, 165, 3, 0.448774
196, 3, wb, filler, NA, 999, 999, 4, 20, 66, 65, 152, 142, 191, 57, 1, 1.28461
196, 3, wb, filler, NA, 999, 999, 4, 20, 66, 65, 152, 142, 191, 57, 2, 0.448089
196, 3, wb, attraction, a-b-db, 2, 1, 4, 21, 60, 135, 59, 134, 135, 60, 3, 2.26801
196, 3, wb, attraction, a-b-db, 2, 1, 4, 21, 60, 135, 59, 134, 135, 60, 2, 0.79179
196, 3, wb, attraction, a-b-db, 5, 1, 4, 22, 60, 135, 58, 132, 135, 60, 3, 1.50169
196, 3, wb, attraction, a-b-db, 5, 1, 4, 22, 60, 135, 58, 132, 135, 60, 2, 1.06444
196, 3, wb, attraction, a-b-da, 9, 1, 4, 23, 129, 57, 135, 60, 60, 135, 2, 1.21937
196, 3, wb, attraction, a-b-da, 9, 1, 4, 23, 129, 57, 135, 60, 60, 135, 3, 1.14559
196, 3, wb, attraction, a-b-da, 2, 3, 4, 24, 193, 119, 195, 120, 120, 195, 2, 2.39323
196, 3, wb, attraction, a-b-da, 2, 3, 4, 24, 193, 119, 195, 120, 120, 195, 3, 0.407826
196, 3, wb, attraction, a-b-da, 5, 3, 4, 25, 120, 195, 190, 117, 195, 120, 3, 2.58897
196, 3, wb, attraction, a-b-da, 5, 3, 4, 25, 120, 195, 190, 117, 195, 120, 1, 0.443431
196, 3, wb, attraction, a-b-da, 14, 1, 4, 26, 135, 60, 60, 135, 125, 56, 3, 1.62331
196, 3, wb, attraction, a-b-da, 14, 1, 4, 26, 135, 60, 60, 135, 125, 56, 1, 0.556842
196, 3, wb, filler, NA, 999, 999, 4, 27, 154, 151, 89, 69, 83, 89, 2, 0.827651
196, 3, wb, filler, NA, 999, 999, 4, 27, 154, 151, 89, 69, 83, 89, 1, 0.497481
196, 3, wb, catch, NA, 999, 999, 4, 28, 163, 152, 101, 154, 60, 135, 3, 0.891297
196, 3, wb, catch, NA, 999, 999, 4, 28, 163, 152, 101, 154, 60, 135, 1, 0.422247
196, 3, wb, attraction, a-b-db, 14, 1, 4, 29, 135, 60, 56, 125, 60, 135, 2, 1.0354
196, 3, wb, attraction, a-b-db, 14, 1, 4, 29, 135, 60, 56, 125, 60, 135, 1, 0.737443
196, 3, wb, catch, NA, 999, 999, 4, 30, 90, 105, 184, 131, 137, 118, 1, 0.897335
196, 3, wb, catch, NA, 999, 999, 4, 30, 90, 105, 184, 131, 137, 118, 2, 0.404488
196, 3, wb, attraction, a-b-da, 14, 2, 4, 31, 90, 165, 165, 90, 153, 83, 3, 0.970246
196, 3, wb, attraction, a-b-da, 14, 2, 4, 31, 90, 165, 165, 90, 153, 83, 2, 0.426597
196, 3, wb, attraction, a-b-da, 2, 1, 4, 32, 135, 60, 60, 135, 134, 59, 3, 1.60712
196, 3, wb, attraction, a-b-da, 2, 1, 4, 32, 135, 60, 60, 135, 134, 59, 1, 0.773169
196, 3, wb, filler, NA, 999, 999, 4, 33, 67, 162, 78, 137, 96, 57, 3, 1.1083
196, 3, wb, filler, NA, 999, 999, 4, 33, 67, 162, 78, 137, 96, 57, 2, 0.406621
196, 3, wb, attraction, a-b-db, 14, 2, 4, 34, 165, 90, 90, 165, 83, 153, 3, 1.21173
196, 3, wb, attraction, a-b-db, 14, 2, 4, 34, 165, 90, 90, 165, 83, 153, 2, 1.33811
196, 3, wb, filler, NA, 999, 999, 4, 35, 144, 96, 193, 152, 119, 101, 3, 1.49031
196, 3, wb, filler, NA, 999, 999, 4, 35, 144, 96, 193, 152, 119, 101, 2, 0.533024
196, 3, wb, attraction, a-b-da, 9, 3, 4, 36, 186, 114, 195, 120, 120, 195, 1, 2.65348
196, 3, wb, attraction, a-b-da, 9, 3, 4, 36, 186, 114, 195, 120, 120, 195, 3, 1.09795
196, 3, wb, attraction, a-b-da, 5, 1, 4, 37, 132, 58, 60, 135, 135, 60, 1, 1.26753
196, 3, wb, attraction, a-b-da, 5, 1, 4, 37, 132, 58, 60, 135, 135, 60, 2, 0.847825
196, 3, wb, attraction, a-b-db, 9, 1, 5, 1, 57, 129, 60, 135, 135, 60, 1, 2.82614
196, 3, wb, attraction, a-b-db, 9, 1, 5, 1, 57, 129, 60, 135, 135, 60, 2, 0.47114
196, 3, wb, attraction, a-b-da, 9, 1, 5, 2, 129, 57, 135, 60, 60, 135, 3, 1.29036
196, 3, wb, attraction, a-b-da, 9, 1, 5, 2, 129, 57, 135, 60, 60, 135, 2, 0.709348
196, 3, wb, attraction, a-b-db, 5, 3, 5, 3, 120, 195, 195, 120, 117, 190, 1, 2.74223
196, 3, wb, attraction, a-b-db, 5, 3, 5, 3, 120, 195, 195, 120, 117, 190, 2, 0.494619
196, 3, wb, attraction, a-b-da, 5, 3, 5, 4, 195, 120, 190, 117, 120, 195, 2, 1.1525
196, 3, wb, attraction, a-b-da, 5, 3, 5, 4, 195, 120, 190, 117, 120, 195, 3, 0.465432
196, 3, wb, attraction, a-b-db, 14, 1, 5, 5, 60, 135, 56, 125, 135, 60, 2, 1.53252
196, 3, wb, attraction, a-b-db, 14, 1, 5, 5, 60, 135, 56, 125, 135, 60, 3, 0.598096
196, 3, wb, attraction, a-b-db, 14, 3, 5, 6, 120, 195, 195, 120, 111, 181, 3, 2.09984
196, 3, wb, attraction, a-b-db, 14, 3, 5, 6, 120, 195, 195, 120, 111, 181, 2, 0.726519
196, 3, wb, attraction, a-b-db, 2, 3, 5, 7, 195, 120, 120, 195, 119, 193, 3, 1.96698
196, 3, wb, attraction, a-b-db, 2, 3, 5, 7, 195, 120, 120, 195, 119, 193, 2, 0.542876
196, 3, wb, filler, NA, 999, 999, 5, 8, 169, 104, 98, 61, 136, 83, 2, 0.87068
196, 3, wb, filler, NA, 999, 999, 5, 8, 169, 104, 98, 61, 136, 83, 1, 0.395008
196, 3, wb, filler, NA, 999, 999, 5, 9, 144, 130, 140, 171, 79, 148, 3, 1.21673
196, 3, wb, filler, NA, 999, 999, 5, 9, 144, 130, 140, 171, 79, 148, 2, 0.343063
196, 3, wb, attraction, a-b-db, 9, 2, 5, 10, 86, 157, 165, 90, 90, 165, 2, 2.37491
196, 3, wb, attraction, a-b-db, 9, 2, 5, 10, 86, 157, 165, 90, 90, 165, 3, 0.81417
196, 3, wb, filler, NA, 999, 999, 5, 11, 146, 168, 79, 94, 112, 127, 2, 0.779184
196, 3, wb, filler, NA, 999, 999, 5, 11, 146, 168, 79, 94, 112, 127, 1, 0.403011
196, 3, wb, filler, NA, 999, 999, 5, 12, 109, 155, 68, 137, 93, 107, 3, 1.04075
196, 3, wb, filler, NA, 999, 999, 5, 12, 109, 155, 68, 137, 93, 107, 1, 0.725694
196, 3, wb, attraction, a-b-da, 9, 3, 5, 13, 120, 195, 186, 114, 195, 120, 2, 1.13396
196, 3, wb, attraction, a-b-da, 9, 3, 5, 13, 120, 195, 186, 114, 195, 120, 1, 0.479791
196, 3, wb, filler, NA, 999, 999, 5, 14, 148, 98, 170, 89, 106, 134, 1, 1.28215
196, 3, wb, filler, NA, 999, 999, 5, 14, 148, 98, 170, 89, 106, 134, 2, 1.30175
196, 3, wb, filler, NA, 999, 999, 5, 15, 136, 180, 177, 188, 108, 72, 3, 1.15923
196, 3, wb, filler, NA, 999, 999, 5, 15, 136, 180, 177, 188, 108, 72, 2, 0.447579
196, 3, wb, attraction, a-b-da, 14, 2, 5, 16, 165, 90, 153, 83, 90, 165, 2, 1.04336
196, 3, wb, attraction, a-b-da, 14, 2, 5, 16, 165, 90, 153, 83, 90, 165, 3, 0.464355
196, 3, wb, catch, NA, 999, 999, 5, 17, 106, 89, 121, 194, 153, 102, 1, 1.44333
196, 3, wb, catch, NA, 999, 999, 5, 17, 106, 89, 121, 194, 153, 102, 2, 0.800311
196, 3, wb, attraction, a-b-db, 2, 2, 5, 18, 90, 165, 165, 90, 89, 163, 3, 1.11805
196, 3, wb, attraction, a-b-db, 2, 2, 5, 18, 90, 165, 165, 90, 89, 163, 2, 0.504286
196, 3, wb, catch, NA, 999, 999, 5, 19, 164, 151, 88, 107, 159, 96, 2, 0.85812
196, 3, wb, catch, NA, 999, 999, 5, 19, 164, 151, 88, 107, 159, 96, 1, 0.35845
196, 3, wb, filler, NA, 999, 999, 5, 20, 76, 188, 188, 101, 179, 67, 1, 2.52561
196, 3, wb, filler, NA, 999, 999, 5, 20, 76, 188, 188, 101, 179, 67, 2, 0.518749
196, 3, wb, attraction, a-b-da, 2, 2, 5, 21, 90, 165, 165, 90, 163, 89, 1, 1.01609
196, 3, wb, attraction, a-b-da, 2, 2, 5, 21, 90, 165, 165, 90, 163, 89, 2, 0.614202
196, 3, wb, attraction, a-b-db, 2, 1, 5, 22, 59, 134, 60, 135, 135, 60, 2, 1.20325
196, 3, wb, attraction, a-b-db, 2, 1, 5, 22, 59, 134, 60, 135, 135, 60, 1, 0.922392
196, 3, wb, attraction, a-b-db, 5, 1, 5, 23, 135, 60, 58, 132, 60, 135, 1, 1.89137
196, 3, wb, attraction, a-b-db, 5, 1, 5, 23, 135, 60, 58, 132, 60, 135, 2, 0.485958
196, 3, wb, attraction, a-b-da, 2, 3, 5, 24, 193, 119, 120, 195, 195, 120, 3, 1.36034
196, 3, wb, attraction, a-b-da, 2, 3, 5, 24, 193, 119, 120, 195, 195, 120, 2, 0.560613
196, 3, wb, attraction, a-b-da, 2, 1, 5, 25, 60, 135, 134, 59, 135, 60, 2, 1.85567
196, 3, wb, attraction, a-b-da, 2, 1, 5, 25, 60, 135, 134, 59, 135, 60, 1, 0.691697
196, 3, wb, filler, NA, 999, 999, 5, 26, 149, 80, 73, 61, 181, 81, 2, 0.805414
196, 3, wb, filler, NA, 999, 999, 5, 26, 149, 80, 73, 61, 181, 81, 3, 0.548003
196, 3, wb, attraction, a-b-da, 5, 2, 5, 27, 165, 90, 161, 88, 90, 165, 2, 1.49173
196, 3, wb, attraction, a-b-da, 5, 2, 5, 27, 165, 90, 161, 88, 90, 165, 3, 0.670533
196, 3, wb, catch, NA, 999, 999, 5, 28, 122, 73, 91, 164, 128, 187, 1, 0.761486
196, 3, wb, catch, NA, 999, 999, 5, 28, 122, 73, 91, 164, 128, 187, 3, 0.522003
196, 3, wb, attraction, a-b-da, 14, 1, 5, 29, 135, 60, 125, 56, 60, 135, 3, 0.97916
196, 3, wb, attraction, a-b-da, 14, 1, 5, 29, 135, 60, 125, 56, 60, 135, 2, 0.458733
196, 3, wb, attraction, a-b-da, 14, 3, 5, 30, 181, 111, 120, 195, 195, 120, 1, 1.46985
196, 3, wb, attraction, a-b-da, 14, 3, 5, 30, 181, 111, 120, 195, 195, 120, 2, 0.450038
196, 3, wb, attraction, a-b-db, 9, 3, 5, 31, 195, 120, 114, 186, 120, 195, 2, 2.40595
196, 3, wb, attraction, a-b-db, 9, 3, 5, 31, 195, 120, 114, 186, 120, 195, 3, 0.395747
196, 3, wb, attraction, a-b-db, 14, 2, 5, 32, 90, 165, 165, 90, 83, 153, 3, 1.95361
196, 3, wb, attraction, a-b-db, 14, 2, 5, 32, 90, 165, 165, 90, 83, 153, 2, 0.778246
196, 3, wb, attraction, a-b-da, 9, 2, 5, 33, 157, 86, 90, 165, 165, 90, 1, 1.05654
196, 3, wb, attraction, a-b-da, 9, 2, 5, 33, 157, 86, 90, 165, 165, 90, 2, 0.668884
196, 3, wb, filler, NA, 999, 999, 5, 34, 98, 192, 194, 123, 56, 87, 3, 0.73607
196, 3, wb, filler, NA, 999, 999, 5, 34, 98, 192, 194, 123, 56, 87, 2, 0.38567
196, 3, wb, attraction, a-b-db, 5, 2, 5, 35, 90, 165, 165, 90, 88, 161, 2, 1.3364
196, 3, wb, attraction, a-b-db, 5, 2, 5, 35, 90, 165, 165, 90, 88, 161, 3, 0.441736
196, 3, wb, attraction, a-b-da, 5, 1, 5, 36, 60, 135, 135, 60, 132, 58, 1, 0.973598
196, 3, wb, attraction, a-b-da, 5, 1, 5, 36, 60, 135, 135, 60, 132, 58, 2, 0.469292
196, 3, wb, filler, NA, 999, 999, 5, 37, 111, 143, 187, 113, 137, 97, 3, 1.05642
196, 3, wb, filler, NA, 999, 999, 5, 37, 111, 143, 187, 113, 137, 97, 2, 0.396731
196, 3, wb, attraction, a-b-da, 2, 1, 6, 1, 134, 59, 60, 135, 135, 60, 2, 1.8267
196, 3, wb, attraction, a-b-da, 2, 1, 6, 1, 134, 59, 60, 135, 135, 60, 3, 1.50386
196, 3, wb, catch, NA, 999, 999, 6, 2, 95, 100, 142, 113, 159, 156, 1, 1.0653
196, 3, wb, catch, NA, 999, 999, 6, 2, 95, 100, 142, 113, 159, 156, 3, 0.661689
196, 3, wb, attraction, a-b-db, 14, 1, 6, 3, 60, 135, 56, 125, 135, 60, 2, 1.96874
196, 3, wb, attraction, a-b-db, 14, 1, 6, 3, 60, 135, 56, 125, 135, 60, 1, 0.512757
196, 3, wb, attraction, a-b-da, 5, 3, 6, 4, 190, 117, 195, 120, 120, 195, 2, 1.57001
196, 3, wb, attraction, a-b-da, 5, 3, 6, 4, 190, 117, 195, 120, 120, 195, 3, 0.426014
196, 3, wb, filler, NA, 999, 999, 6, 5, 91, 194, 82, 151, 77, 62, 3, 1.02258
196, 3, wb, filler, NA, 999, 999, 6, 5, 91, 194, 82, 151, 77, 62, 1, 0.556159
196, 3, wb, filler, NA, 999, 999, 6, 6, 126, 193, 125, 98, 155, 96, 2, 1.01996
196, 3, wb, filler, NA, 999, 999, 6, 6, 126, 193, 125, 98, 155, 96, 1, 0.474284
196, 3, wb, attraction, a-b-da, 9, 3, 6, 7, 195, 120, 120, 195, 186, 114, 3, 1.74068
196, 3, wb, attraction, a-b-da, 9, 3, 6, 7, 195, 120, 120, 195, 186, 114, 2, 0.42144
196, 3, wb, attraction, a-b-db, 9, 3, 6, 8, 120, 195, 195, 120, 114, 186, 3, 1.00275
196, 3, wb, attraction, a-b-db, 9, 3, 6, 8, 120, 195, 195, 120, 114, 186, 2, 0.529783
196, 3, wb, attraction, a-b-db, 14, 2, 6, 9, 165, 90, 83, 153, 90, 165, 3, 0.914172
196, 3, wb, attraction, a-b-db, 14, 2, 6, 9, 165, 90, 83, 153, 90, 165, 2, 0.404381
196, 3, wb, attraction, a-b-da, 5, 2, 6, 10, 161, 88, 165, 90, 90, 165, 3, 1.05819
196, 3, wb, attraction, a-b-da, 5, 2, 6, 10, 161, 88, 165, 90, 90, 165, 2, 0.766558
196, 3, wb, attraction, a-b-da, 14, 3, 6, 11, 181, 111, 120, 195, 195, 120, 1, 1.0136
196, 3, wb, attraction, a-b-da, 14, 3, 6, 11, 181, 111, 120, 195, 195, 120, 2, 0.627904
196, 3, wb, attraction, a-b-db, 2, 3, 6, 12, 119, 193, 195, 120, 120, 195, 1, 1.18431
196, 3, wb, attraction, a-b-db, 2, 3, 6, 12, 119, 193, 195, 120, 120, 195, 2, 0.607911
196, 3, wb, attraction, a-b-db, 5, 3, 6, 13, 117, 190, 120, 195, 195, 120, 3, 0.868979
196, 3, wb, attraction, a-b-db, 5, 3, 6, 13, 117, 190, 120, 195, 195, 120, 2, 0.473369
196, 3, wb, filler, NA, 999, 999, 6, 14, 114, 126, 159, 171, 175, 109, 1, 0.723767
196, 3, wb, filler, NA, 999, 999, 6, 14, 114, 126, 159, 171, 175, 109, 2, 0.533665
196, 3, wb, attraction, a-b-db, 2, 2, 6, 15, 89, 163, 90, 165, 165, 90, 3, 1.07016
196, 3, wb, attraction, a-b-db, 2, 2, 6, 15, 89, 163, 90, 165, 165, 90, 2, 0.578384
196, 3, wb, filler, NA, 999, 999, 6, 16, 179, 98, 91, 72, 115, 188, 2, 0.99279
196, 3, wb, filler, NA, 999, 999, 6, 16, 179, 98, 91, 72, 115, 188, 3, 0.464045
196, 3, wb, filler, NA, 999, 999, 6, 17, 155, 68, 63, 72, 144, 80, 2, 0.674803
196, 3, wb, filler, NA, 999, 999, 6, 17, 155, 68, 63, 72, 144, 80, 3, 0.598624
196, 3, wb, attraction, a-b-db, 5, 2, 6, 18, 165, 90, 88, 161, 90, 165, 2, 1.00446
196, 3, wb, attraction, a-b-db, 5, 2, 6, 18, 165, 90, 88, 161, 90, 165, 1, 0.515453
196, 3, wb, attraction, a-b-da, 2, 3, 6, 19, 193, 119, 120, 195, 195, 120, 3, 1.84447
196, 3, wb, attraction, a-b-da, 2, 3, 6, 19, 193, 119, 120, 195, 195, 120, 2, 0.449216
196, 3, wb, attraction, a-b-da, 2, 2, 6, 20, 90, 165, 165, 90, 163, 89, 1, 1.02112
196, 3, wb, attraction, a-b-da, 2, 2, 6, 20, 90, 165, 165, 90, 163, 89, 2, 0.587266
196, 3, wb, catch, NA, 999, 999, 6, 21, 100, 95, 110, 145, 129, 186, 1, 0.841687
196, 3, wb, catch, NA, 999, 999, 6, 21, 100, 95, 110, 145, 129, 186, 3, 0.478801
196, 3, wb, attraction, a-b-da, 5, 1, 6, 22, 60, 135, 132, 58, 135, 60, 1, 1.33725
196, 3, wb, attraction, a-b-da, 5, 1, 6, 22, 60, 135, 132, 58, 135, 60, 2, 0.482894
196, 3, wb, attraction, a-b-db, 5, 1, 6, 23, 60, 135, 135, 60, 58, 132, 1, 0.965264
196, 3, wb, attraction, a-b-db, 5, 1, 6, 23, 60, 135, 135, 60, 58, 132, 2, 0.64567
196, 3, wb, filler, NA, 999, 999, 6, 24, 65, 81, 110, 158, 158, 158, 1, 0.841326
196, 3, wb, filler, NA, 999, 999, 6, 24, 65, 81, 110, 158, 158, 158, 3, 0.710472
196, 3, wb, attraction, a-b-da, 9, 2, 6, 25, 90, 165, 165, 90, 157, 86, 3, 4.74351
196, 3, wb, attraction, a-b-da, 9, 2, 6, 25, 90, 165, 165, 90, 157, 86, 1, 0.407242
196, 3, wb, catch, NA, 999, 999, 6, 26, 146, 169, 128, 127, 105, 90, 3, 0.604579
196, 3, wb, catch, NA, 999, 999, 6, 26, 146, 169, 128, 127, 105, 90, 1, 0.362906
196, 3, wb, attraction, a-b-db, 2, 1, 6, 27, 60, 135, 59, 134, 135, 60, 2, 1.61803
196, 3, wb, attraction, a-b-db, 2, 1, 6, 27, 60, 135, 59, 134, 135, 60, 1, 0.504325
196, 3, wb, filler, NA, 999, 999, 6, 28, 156, 185, 187, 111, 150, 138, 3, 1.87399
196, 3, wb, filler, NA, 999, 999, 6, 28, 156, 185, 187, 111, 150, 138, 1, 0.405312
196, 3, wb, attraction, a-b-da, 9, 1, 6, 29, 135, 60, 60, 135, 129, 57, 3, 1.51524
196, 3, wb, attraction, a-b-da, 9, 1, 6, 29, 135, 60, 60, 135, 129, 57, 2, 0.445367
196, 3, wb, filler, NA, 999, 999, 6, 30, 118, 59, 145, 143, 130, 130, 1, 0.697123
196, 3, wb, filler, NA, 999, 999, 6, 30, 118, 59, 145, 143, 130, 130, 2, 0.908218
196, 3, wb, attraction, a-b-da, 14, 1, 6, 31, 60, 135, 135, 60, 125, 56, 3, 1.03726
196, 3, wb, attraction, a-b-da, 14, 1, 6, 31, 60, 135, 135, 60, 125, 56, 1, 0.514882
196, 3, wb, attraction, a-b-db, 14, 3, 6, 32, 120, 195, 195, 120, 111, 181, 3, 1.17202
196, 3, wb, attraction, a-b-db, 14, 3, 6, 32, 120, 195, 195, 120, 111, 181, 1, 0.811561
196, 3, wb, attraction, a-b-da, 14, 2, 6, 33, 153, 83, 165, 90, 90, 165, 1, 1.73662
196, 3, wb, attraction, a-b-da, 14, 2, 6, 33, 153, 83, 165, 90, 90, 165, 3, 0.578252
196, 3, wb, filler, NA, 999, 999, 6, 34, 93, 147, 158, 142, 95, 72, 3, 0.848551
196, 3, wb, filler, NA, 999, 999, 6, 34, 93, 147, 158, 142, 95, 72, 2, 0.325511
196, 3, wb, attraction, a-b-db, 9, 1, 6, 35, 60, 135, 57, 129, 135, 60, 3, 2.65404
196, 3, wb, attraction, a-b-db, 9, 1, 6, 35, 60, 135, 57, 129, 135, 60, 1, 0.586597
196, 3, wb, attraction, a-b-db, 9, 2, 6, 36, 165, 90, 90, 165, 86, 157, 3, 1.03288
196, 3, wb, attraction, a-b-db, 9, 2, 6, 36, 165, 90, 90, 165, 86, 157, 2, 0.390613
196, 3, wb, filler, NA, 999, 999, 6, 37, 106, 83, 149, 154, 70, 160, 1, 0.644354
196, 3, wb, filler, NA, 999, 999, 6, 37, 106, 83, 149, 154, 70, 160, 2, 0.425683
196, 3, wb, attraction, a-b-da, 9, 1, 7, 1, 129, 57, 60, 135, 135, 60, 3, 1.02206
196, 3, wb, attraction, a-b-da, 9, 1, 7, 1, 129, 57, 60, 135, 135, 60, 2, 0.491626
196, 3, wb, filler, NA, 999, 999, 7, 2, 160, 91, 192, 101, 125, 194, 1, 0.837417
196, 3, wb, filler, NA, 999, 999, 7, 2, 160, 91, 192, 101, 125, 194, 3, 0.483034
196, 3, wb, attraction, a-b-da, 2, 2, 7, 3, 163, 89, 90, 165, 165, 90, 1, 1.47772
196, 3, wb, attraction, a-b-da, 2, 2, 7, 3, 163, 89, 90, 165, 165, 90, 2, 0.545247
196, 3, wb, attraction, a-b-db, 9, 1, 7, 4, 135, 60, 57, 129, 60, 135, 2, 1.44089
196, 3, wb, attraction, a-b-db, 9, 1, 7, 4, 135, 60, 57, 129, 60, 135, 3, 0.76578
196, 3, wb, attraction, a-b-da, 9, 3, 7, 5, 120, 195, 195, 120, 186, 114, 3, 2.02876
196, 3, wb, attraction, a-b-da, 9, 3, 7, 5, 120, 195, 195, 120, 186, 114, 1, 0.530228
196, 3, wb, attraction, a-b-da, 14, 2, 7, 6, 90, 165, 153, 83, 165, 90, 2, 1.51456
196, 3, wb, attraction, a-b-da, 14, 2, 7, 6, 90, 165, 153, 83, 165, 90, 3, 0.428759
196, 3, wb, attraction, a-b-da, 2, 3, 7, 7, 195, 120, 193, 119, 120, 195, 1, 1.34519
196, 3, wb, attraction, a-b-da, 2, 3, 7, 7, 195, 120, 193, 119, 120, 195, 3, 0.530066
196, 3, wb, attraction, a-b-db, 9, 3, 7, 8, 114, 186, 195, 120, 120, 195, 1, 1.21856
196, 3, wb, attraction, a-b-db, 9, 3, 7, 8, 114, 186, 195, 120, 120, 195, 2, 0.512672
196, 3, wb, filler, NA, 999, 999, 7, 9, 61, 61, 74, 161, 57, 186, 1, 0.833885
196, 3, wb, filler, NA, 999, 999, 7, 9, 61, 61, 74, 161, 57, 186, 2, 0.783567
196, 3, wb, attraction, a-b-db, 5, 1, 7, 10, 58, 132, 60, 135, 135, 60, 1, 0.877983
196, 3, wb, attraction, a-b-db, 5, 1, 7, 10, 58, 132, 60, 135, 135, 60, 3, 0.689723
196, 3, wb, attraction, a-b-db, 9, 2, 7, 11, 165, 90, 86, 157, 90, 165, 2, 1.17206
196, 3, wb, attraction, a-b-db, 9, 2, 7, 11, 165, 90, 86, 157, 90, 165, 1, 0.483661
196, 3, wb, attraction, a-b-db, 2, 3, 7, 12, 119, 193, 195, 120, 120, 195, 2, 0.870208
196, 3, wb, attraction, a-b-db, 2, 3, 7, 12, 119, 193, 195, 120, 120, 195, 1, 0.466603
196, 3, wb, attraction, a-b-db, 5, 3, 7, 13, 117, 190, 195, 120, 120, 195, 1, 1.66156
196, 3, wb, attraction, a-b-db, 5, 3, 7, 13, 117, 190, 195, 120, 120, 195, 2, 0.401803
196, 3, wb, filler, NA, 999, 999, 7, 14, 110, 67, 166, 100, 170, 134, 1, 0.759508
196, 3, wb, filler, NA, 999, 999, 7, 14, 110, 67, 166, 100, 170, 134, 3, 0.3759
196, 3, wb, attraction, a-b-db, 5, 2, 7, 15, 88, 161, 165, 90, 90, 165, 2, 2.88649
196, 3, wb, attraction, a-b-db, 5, 2, 7, 15, 88, 161, 165, 90, 90, 165, 3, 0.713592
196, 3, wb, filler, NA, 999, 999, 7, 16, 76, 116, 121, 104, 91, 194, 1, 0.898498
196, 3, wb, filler, NA, 999, 999, 7, 16, 76, 116, 121, 104, 91, 194, 3, 0.645668
196, 3, wb, attraction, a-b-db, 2, 2, 7, 17, 165, 90, 90, 165, 89, 163, 1, 1.21725
196, 3, wb, attraction, a-b-db, 2, 2, 7, 17, 165, 90, 90, 165, 89, 163, 2, 0.399601
196, 3, wb, attraction, a-b-db, 14, 2, 7, 18, 90, 165, 165, 90, 83, 153, 3, 1.10946
196, 3, wb, attraction, a-b-db, 14, 2, 7, 18, 90, 165, 165, 90, 83, 153, 2, 0.407906
196, 3, wb, attraction, a-b-da, 9, 2, 7, 19, 90, 165, 165, 90, 157, 86, 3, 2.37293
196, 3, wb, attraction, a-b-da, 9, 2, 7, 19, 90, 165, 165, 90, 157, 86, 1, 0.388057
196, 3, wb, attraction, a-b-db, 14, 1, 7, 20, 135, 60, 60, 135, 56, 125, 3, 0.946673
196, 3, wb, attraction, a-b-db, 14, 1, 7, 20, 135, 60, 60, 135, 56, 125, 1, 0.587546
196, 3, wb, filler, NA, 999, 999, 7, 21, 159, 146, 172, 149, 81, 157, 3, 0.986084
196, 3, wb, filler, NA, 999, 999, 7, 21, 159, 146, 172, 149, 81, 157, 2, 0.393698
196, 3, wb, catch, NA, 999, 999, 7, 22, 179, 136, 101, 94, 134, 121, 2, 0.879436
196, 3, wb, catch, NA, 999, 999, 7, 22, 179, 136, 101, 94, 134, 121, 1, 0.523173
196, 3, wb, filler, NA, 999, 999, 7, 23, 91, 181, 193, 97, 65, 58, 3, 0.835725
196, 3, wb, filler, NA, 999, 999, 7, 23, 91, 181, 193, 97, 65, 58, 2, 0.681462
196, 3, wb, attraction, a-b-da, 5, 3, 7, 24, 195, 120, 120, 195, 190, 117, 3, 2.27595
196, 3, wb, attraction, a-b-da, 5, 3, 7, 24, 195, 120, 120, 195, 190, 117, 2, 0.543005
196, 3, wb, filler, NA, 999, 999, 7, 25, 95, 131, 98, 78, 104, 103, 2, 0.982959
196, 3, wb, filler, NA, 999, 999, 7, 25, 95, 131, 98, 78, 104, 103, 1, 0.606339
196, 3, wb, attraction, a-b-da, 5, 2, 7, 26, 161, 88, 90, 165, 165, 90, 1, 1.25225
196, 3, wb, attraction, a-b-da, 5, 2, 7, 26, 161, 88, 90, 165, 165, 90, 2, 0.585224
196, 3, wb, catch, NA, 999, 999, 7, 27, 116, 139, 60, 135, 134, 181, 2, 0.751586
196, 3, wb, catch, NA, 999, 999, 7, 27, 116, 139, 60, 135, 134, 181, 3, 0.392666
196, 3, wb, attraction, a-b-da, 5, 1, 7, 28, 132, 58, 60, 135, 135, 60, 3, 1.07845
196, 3, wb, attraction, a-b-da, 5, 1, 7, 28, 132, 58, 60, 135, 135, 60, 2, 0.586219
196, 3, wb, attraction, a-b-db, 2, 1, 7, 29, 59, 134, 60, 135, 135, 60, 3, 1.32052
196, 3, wb, attraction, a-b-db, 2, 1, 7, 29, 59, 134, 60, 135, 135, 60, 2, 0.602804
196, 3, wb, attraction, a-b-da, 14, 3, 7, 30, 120, 195, 195, 120, 181, 111, 3, 0.912402
196, 3, wb, attraction, a-b-da, 14, 3, 7, 30, 120, 195, 195, 120, 181, 111, 1, 0.538857
196, 3, wb, attraction, a-b-da, 14, 1, 7, 31, 60, 135, 125, 56, 135, 60, 2, 1.03553
196, 3, wb, attraction, a-b-da, 14, 1, 7, 31, 60, 135, 125, 56, 135, 60, 1, 0.449155
196, 3, wb, filler, NA, 999, 999, 7, 32, 124, 89, 176, 174, 98, 184, 1, 0.884676
196, 3, wb, filler, NA, 999, 999, 7, 32, 124, 89, 176, 174, 98, 184, 2, 0.464449
196, 3, wb, attraction, a-b-db, 14, 3, 7, 33, 120, 195, 111, 181, 195, 120, 2, 1.34752
196, 3, wb, attraction, a-b-db, 14, 3, 7, 33, 120, 195, 111, 181, 195, 120, 3, 0.404475
196, 3, wb, attraction, a-b-da, 2, 1, 7, 34, 134, 59, 135, 60, 60, 135, 3, 0.946253
196, 3, wb, attraction, a-b-da, 2, 1, 7, 34, 134, 59, 135, 60, 60, 135, 2, 0.387269
196, 3, wb, filler, NA, 999, 999, 7, 35, 145, 93, 136, 95, 99, 89, 3, 0.761663
196, 3, wb, filler, NA, 999, 999, 7, 35, 145, 93, 136, 95, 99, 89, 1, 0.578134
196, 3, wb, catch, NA, 999, 999, 7, 36, 161, 154, 114, 141, 126, 69, 3, 0.616573
196, 3, wb, catch, NA, 999, 999, 7, 36, 161, 154, 114, 141, 126, 69, 1, 0.478972
196, 3, wb, filler, NA, 999, 999, 7, 37, 123, 94, 96, 107, 76, 179, 2, 1.03349
196, 3, wb, filler, NA, 999, 999, 7, 37, 123, 94, 96, 107, 76, 179, 3, 0.599292
196, 3, wb, attraction, a-b-db, 5, 1, 8, 1, 135, 60, 60, 135, 58, 132, 3, 0.852907
196, 3, wb, attraction, a-b-db, 5, 1, 8, 1, 135, 60, 60, 135, 58, 132, 1, 0.681937
196, 3, wb, catch, NA, 999, 999, 8, 2, 109, 86, 123, 132, 143, 172, 1, 0.724289
196, 3, wb, catch, NA, 999, 999, 8, 2, 109, 86, 123, 132, 143, 172, 3, 0.518199
196, 3, wb, attraction, a-b-da, 5, 3, 8, 3, 190, 117, 120, 195, 195, 120, 3, 1.18317
196, 3, wb, attraction, a-b-da, 5, 3, 8, 3, 190, 117, 120, 195, 195, 120, 2, 0.358738
196, 3, wb, filler, NA, 999, 999, 8, 4, 193, 136, 160, 59, 94, 129, 2, 0.854085
196, 3, wb, filler, NA, 999, 999, 8, 4, 193, 136, 160, 59, 94, 129, 1, 0.362296
196, 3, wb, filler, NA, 999, 999, 8, 5, 153, 74, 105, 123, 107, 62, 3, 0.633422
196, 3, wb, filler, NA, 999, 999, 8, 5, 153, 74, 105, 123, 107, 62, 2, 0.407298
196, 3, wb, attraction, a-b-da, 9, 1, 8, 6, 129, 57, 60, 135, 135, 60, 1, 1.42834
196, 3, wb, attraction, a-b-da, 9, 1, 8, 6, 129, 57, 60, 135, 135, 60, 2, 0.497922
196, 3, wb, attraction, a-b-db, 14, 1, 8, 7, 56, 125, 60, 135, 135, 60, 1, 1.00363
196, 3, wb, attraction, a-b-db, 14, 1, 8, 7, 56, 125, 60, 135, 135, 60, 3, 0.73074
196, 3, wb, attraction, a-b-db, 9, 3, 8, 8, 114, 186, 195, 120, 120, 195, 1, 1.49119
196, 3, wb, attraction, a-b-db, 9, 3, 8, 8, 114, 186, 195, 120, 120, 195, 2, 0.461922
196, 3, wb, attraction, a-b-db, 2, 2, 8, 9, 90, 165, 89, 163, 165, 90, 2, 1.36119
196, 3, wb, attraction, a-b-db, 2, 2, 8, 9, 90, 165, 89, 163, 165, 90, 3, 0.681201
196, 3, wb, attraction, a-b-da, 9, 2, 8, 10, 165, 90, 90, 165, 157, 86, 3, 1.76379
196, 3, wb, attraction, a-b-da, 9, 2, 8, 10, 165, 90, 90, 165, 157, 86, 2, 0.387769
196, 3, wb, attraction, a-b-da, 2, 2, 8, 11, 90, 165, 163, 89, 165, 90, 1, 0.850368
196, 3, wb, attraction, a-b-da, 2, 2, 8, 11, 90, 165, 163, 89, 165, 90, 3, 0.487305
196, 3, wb, attraction, a-b-da, 2, 1, 8, 12, 135, 60, 134, 59, 60, 135, 3, 1.31383
196, 3, wb, attraction, a-b-da, 2, 1, 8, 12, 135, 60, 134, 59, 60, 135, 2, 0.428028
196, 3, wb, attraction, a-b-db, 9, 1, 8, 13, 135, 60, 60, 135, 57, 129, 3, 0.840483
196, 3, wb, attraction, a-b-db, 9, 1, 8, 13, 135, 60, 60, 135, 57, 129, 2, 0.477553
196, 3, wb, attraction, a-b-db, 14, 2, 8, 14, 165, 90, 90, 165, 83, 153, 3, 0.952035
196, 3, wb, attraction, a-b-db, 14, 2, 8, 14, 165, 90, 90, 165, 83, 153, 2, 0.497007
196, 3, wb, filler, NA, 999, 999, 8, 15, 74, 86, 125, 185, 139, 164, 1, 0.858757
196, 3, wb, filler, NA, 999, 999, 8, 15, 74, 86, 125, 185, 139, 164, 2, 0.519097
196, 3, wb, attraction, a-b-da, 14, 1, 8, 16, 60, 135, 135, 60, 125, 56, 3, 1.05633
196, 3, wb, attraction, a-b-da, 14, 1, 8, 16, 60, 135, 135, 60, 125, 56, 1, 0.644578
196, 3, wb, attraction, a-b-db, 9, 2, 8, 17, 165, 90, 86, 157, 90, 165, 3, 0.664206
196, 3, wb, attraction, a-b-db, 9, 2, 8, 17, 165, 90, 86, 157, 90, 165, 2, 0.604748
196, 3, wb, attraction, a-b-da, 9, 3, 8, 18, 186, 114, 195, 120, 120, 195, 1, 0.826655
196, 3, wb, attraction, a-b-da, 9, 3, 8, 18, 186, 114, 195, 120, 120, 195, 3, 0.392336
196, 3, wb, attraction, a-b-db, 2, 3, 8, 19, 119, 193, 195, 120, 120, 195, 2, 1.33395
196, 3, wb, attraction, a-b-db, 2, 3, 8, 19, 119, 193, 195, 120, 120, 195, 1, 0.423571
196, 3, wb, filler, NA, 999, 999, 8, 20, 162, 125, 127, 145, 188, 148, 2, 0.948127
196, 3, wb, filler, NA, 999, 999, 8, 20, 162, 125, 127, 145, 188, 148, 3, 0.373119
196, 3, wb, filler, NA, 999, 999, 8, 21, 164, 131, 139, 180, 195, 179, 1, 1.20418
196, 3, wb, filler, NA, 999, 999, 8, 21, 164, 131, 139, 180, 195, 179, 3, 0.76315
196, 3, wb, filler, NA, 999, 999, 8, 22, 186, 123, 124, 117, 165, 68, 3, 0.986164
196, 3, wb, filler, NA, 999, 999, 8, 22, 186, 123, 124, 117, 165, 68, 1, 0.361819
196, 3, wb, attraction, a-b-da, 14, 2, 8, 23, 90, 165, 153, 83, 165, 90, 2, 1.05707
196, 3, wb, attraction, a-b-da, 14, 2, 8, 23, 90, 165, 153, 83, 165, 90, 3, 0.525421
196, 3, wb, filler, NA, 999, 999, 8, 24, 100, 148, 162, 89, 71, 81, 3, 0.861805
196, 3, wb, filler, NA, 999, 999, 8, 24, 100, 148, 162, 89, 71, 81, 1, 0.410173
196, 3, wb, attraction, a-b-da, 5, 2, 8, 25, 90, 165, 161, 88, 165, 90, 3, 1.86321
196, 3, wb, attraction, a-b-da, 5, 2, 8, 25, 90, 165, 161, 88, 165, 90, 1, 0.387302
196, 3, wb, filler, NA, 999, 999, 8, 26, 144, 167, 131, 190, 162, 85, 3, 0.833838
196, 3, wb, filler, NA, 999, 999, 8, 26, 144, 167, 131, 190, 162, 85, 2, 0.343564
196, 3, wb, catch, NA, 999, 999, 8, 27, 135, 180, 70, 125, 93, 162, 2, 0.695316
196, 3, wb, catch, NA, 999, 999, 8, 27, 135, 180, 70, 125, 93, 162, 1, 0.29851
196, 3, wb, attraction, a-b-db, 5, 2, 8, 28, 90, 165, 165, 90, 88, 161, 3, 0.908392
196, 3, wb, attraction, a-b-db, 5, 2, 8, 28, 90, 165, 165, 90, 88, 161, 2, 0.350651
196, 3, wb, attraction, a-b-da, 5, 1, 8, 29, 135, 60, 60, 135, 132, 58, 3, 1.34248
196, 3, wb, attraction, a-b-da, 5, 1, 8, 29, 135, 60, 60, 135, 132, 58, 2, 0.415408
196, 3, wb, attraction, a-b-da, 14, 3, 8, 30, 120, 195, 181, 111, 195, 120, 2, 1.33254
196, 3, wb, attraction, a-b-da, 14, 3, 8, 30, 120, 195, 181, 111, 195, 120, 1, 0.398061
196, 3, wb, filler, NA, 999, 999, 8, 31, 190, 148, 177, 172, 126, 176, 3, 0.91594
196, 3, wb, filler, NA, 999, 999, 8, 31, 190, 148, 177, 172, 126, 176, 2, 0.37424
196, 3, wb, catch, NA, 999, 999, 8, 32, 135, 180, 126, 129, 86, 109, 3, 0.740728
196, 3, wb, catch, NA, 999, 999, 8, 32, 135, 180, 126, 129, 86, 109, 1, 0.373783
196, 3, wb, attraction, a-b-da, 2, 3, 8, 33, 120, 195, 195, 120, 193, 119, 2, 1.25233
196, 3, wb, attraction, a-b-da, 2, 3, 8, 33, 120, 195, 195, 120, 193, 119, 1, 0.457335
196, 3, wb, attraction, a-b-db, 2, 1, 8, 34, 59, 134, 60, 135, 135, 60, 1, 0.83645
196, 3, wb, attraction, a-b-db, 2, 1, 8, 34, 59, 134, 60, 135, 135, 60, 2, 0.506088
196, 3, wb, attraction, a-b-db, 14, 3, 8, 35, 120, 195, 195, 120, 111, 181, 3, 0.771125
196, 3, wb, attraction, a-b-db, 14, 3, 8, 35, 120, 195, 195, 120, 111, 181, 2, 0.426937
196, 3, wb, attraction, a-b-db, 5, 3, 8, 36, 117, 190, 120, 195, 195, 120, 3, 1.6635
196, 3, wb, attraction, a-b-db, 5, 3, 8, 36, 117, 190, 120, 195, 195, 120, 2, 0.947541
196, 3, wb, filler, NA, 999, 999, 8, 37, 57, 162, 173, 99, 95, 111, 1, 0.699149
196, 3, wb, filler, NA, 999, 999, 8, 37, 57, 162, 173, 99, 95, 111, 2, 0.558191
