sub_n, computer_n, bw_cond, effect, set, distance, diag, block_n, trial_n, h1, w1, h2, w2, h3, w3, choice, rt 
169, 3, bw, practice, NA, 999, 999, 0, 1, 180, 151, 161, 67, 99, 160, 1, 2.37225
169, 3, bw, practice, NA, 999, 999, 0, 1, 180, 151, 161, 67, 99, 160, 3, 0.869525
169, 3, bw, practice, NA, 999, 999, 0, 2, 93, 80, 108, 98, 83, 89, 2, 3.0853
169, 3, bw, practice, NA, 999, 999, 0, 2, 93, 80, 108, 98, 83, 89, 3, 4.72818
169, 3, bw, practice, NA, 999, 999, 0, 3, 191, 130, 154, 144, 151, 89, 1, 2.72539
169, 3, bw, practice, NA, 999, 999, 0, 3, 191, 130, 154, 144, 151, 89, 3, 0.896371
169, 3, bw, catch, NA, 999, 999, 1, 1, 74, 121, 110, 145, 150, 165, 3, 1.24415
169, 3, bw, catch, NA, 999, 999, 1, 1, 74, 121, 110, 145, 150, 165, 1, 0.617005
169, 3, bw, filler, NA, 999, 999, 1, 2, 171, 181, 145, 104, 192, 170, 3, 1.2861
169, 3, bw, filler, NA, 999, 999, 1, 2, 171, 181, 145, 104, 192, 170, 2, 0.561621
169, 3, bw, catch, NA, 999, 999, 1, 3, 119, 136, 69, 126, 133, 182, 3, 1.05684
169, 3, bw, catch, NA, 999, 999, 1, 3, 119, 136, 69, 126, 133, 182, 2, 0.509045
169, 3, bw, filler, NA, 999, 999, 1, 4, 76, 195, 185, 141, 63, 125, 2, 1.09421
169, 3, bw, filler, NA, 999, 999, 1, 4, 76, 195, 185, 141, 63, 125, 3, 0.305115
169, 3, bw, attraction, a-b-da, 9, 2, 1, 5, 157, 86, 165, 90, 90, 165, 3, 10.7551
169, 3, bw, attraction, a-b-da, 9, 2, 1, 5, 157, 86, 165, 90, 90, 165, 1, 1.67292
169, 3, bw, attraction, a-b-db, 14, 1, 1, 6, 60, 135, 135, 60, 56, 125, 1, 4.89973
169, 3, bw, attraction, a-b-db, 14, 1, 1, 6, 60, 135, 135, 60, 56, 125, 3, 0.66153
169, 3, bw, attraction, a-b-da, 14, 1, 1, 7, 135, 60, 60, 135, 125, 56, 2, 2.99256
169, 3, bw, attraction, a-b-da, 14, 1, 1, 7, 135, 60, 60, 135, 125, 56, 3, 0.446852
169, 3, bw, attraction, a-b-db, 2, 3, 1, 8, 120, 195, 119, 193, 195, 120, 3, 1.45884
169, 3, bw, attraction, a-b-db, 2, 3, 1, 8, 120, 195, 119, 193, 195, 120, 2, 0.366991
169, 3, bw, attraction, a-b-db, 14, 3, 1, 9, 120, 195, 111, 181, 195, 120, 3, 1.0701
169, 3, bw, attraction, a-b-db, 14, 3, 1, 9, 120, 195, 111, 181, 195, 120, 1, 0.882386
169, 3, bw, attraction, a-b-da, 2, 3, 1, 10, 195, 120, 193, 119, 120, 195, 3, 5.0607
169, 3, bw, attraction, a-b-da, 2, 3, 1, 10, 195, 120, 193, 119, 120, 195, 2, 0.967794
169, 3, bw, attraction, a-b-da, 5, 1, 1, 11, 135, 60, 132, 58, 60, 135, 3, 2.11068
169, 3, bw, attraction, a-b-da, 5, 1, 1, 11, 135, 60, 132, 58, 60, 135, 2, 0.624656
169, 3, bw, attraction, a-b-db, 2, 2, 1, 12, 90, 165, 89, 163, 165, 90, 2, 1.88559
169, 3, bw, attraction, a-b-db, 2, 2, 1, 12, 90, 165, 89, 163, 165, 90, 3, 0.304482
169, 3, bw, attraction, a-b-da, 2, 2, 1, 13, 90, 165, 163, 89, 165, 90, 1, 0.906481
169, 3, bw, attraction, a-b-da, 2, 2, 1, 13, 90, 165, 163, 89, 165, 90, 2, 0.340672
169, 3, bw, filler, NA, 999, 999, 1, 14, 72, 189, 135, 105, 148, 113, 3, 0.668507
169, 3, bw, filler, NA, 999, 999, 1, 14, 72, 189, 135, 105, 148, 113, 1, 0.345038
169, 3, bw, filler, NA, 999, 999, 1, 15, 118, 185, 178, 150, 166, 68, 2, 0.816731
169, 3, bw, filler, NA, 999, 999, 1, 15, 118, 185, 178, 150, 166, 68, 3, 0.263191
169, 3, bw, attraction, a-b-da, 9, 3, 1, 16, 120, 195, 186, 114, 195, 120, 3, 0.834465
169, 3, bw, attraction, a-b-da, 9, 3, 1, 16, 120, 195, 186, 114, 195, 120, 2, 0.80808
169, 3, bw, filler, NA, 999, 999, 1, 17, 62, 93, 82, 157, 105, 143, 3, 0.741037
169, 3, bw, filler, NA, 999, 999, 1, 17, 62, 93, 82, 157, 105, 143, 1, 0.350246
169, 3, bw, attraction, a-b-da, 2, 1, 1, 18, 135, 60, 134, 59, 60, 135, 3, 1.35013
169, 3, bw, attraction, a-b-da, 2, 1, 1, 18, 135, 60, 134, 59, 60, 135, 2, 0.910949
169, 3, bw, attraction, a-b-db, 2, 1, 1, 19, 59, 134, 60, 135, 135, 60, 2, 0.783897
169, 3, bw, attraction, a-b-db, 2, 1, 1, 19, 59, 134, 60, 135, 135, 60, 3, 0.37558
169, 3, bw, attraction, a-b-db, 9, 1, 1, 20, 60, 135, 57, 129, 135, 60, 1, 0.694118
169, 3, bw, attraction, a-b-db, 9, 1, 1, 20, 60, 135, 57, 129, 135, 60, 3, 0.337988
169, 3, bw, filler, NA, 999, 999, 1, 21, 184, 59, 64, 142, 181, 81, 3, 0.91378
169, 3, bw, filler, NA, 999, 999, 1, 21, 184, 59, 64, 142, 181, 81, 1, 0.636014
169, 3, bw, attraction, a-b-db, 5, 1, 1, 22, 58, 132, 135, 60, 60, 135, 3, 1.51251
169, 3, bw, attraction, a-b-db, 5, 1, 1, 22, 58, 132, 135, 60, 60, 135, 2, 0.346847
169, 3, bw, filler, NA, 999, 999, 1, 23, 101, 120, 56, 170, 112, 120, 3, 0.658482
169, 3, bw, filler, NA, 999, 999, 1, 23, 101, 120, 56, 170, 112, 120, 2, 0.303002
169, 3, bw, attraction, a-b-db, 14, 2, 1, 24, 83, 153, 90, 165, 165, 90, 2, 0.648845
169, 3, bw, attraction, a-b-db, 14, 2, 1, 24, 83, 153, 90, 165, 165, 90, 1, 0.757872
169, 3, bw, attraction, a-b-da, 5, 3, 1, 25, 120, 195, 190, 117, 195, 120, 3, 0.90902
169, 3, bw, attraction, a-b-da, 5, 3, 1, 25, 120, 195, 190, 117, 195, 120, 2, 0.335264
169, 3, bw, filler, NA, 999, 999, 1, 26, 194, 96, 119, 190, 56, 162, 2, 0.847749
169, 3, bw, filler, NA, 999, 999, 1, 26, 194, 96, 119, 190, 56, 162, 3, 0.260928
169, 3, bw, attraction, a-b-da, 14, 3, 1, 27, 195, 120, 120, 195, 181, 111, 2, 1.36002
169, 3, bw, attraction, a-b-da, 14, 3, 1, 27, 195, 120, 120, 195, 181, 111, 3, 1.15225
169, 3, bw, attraction, a-b-da, 9, 1, 1, 28, 129, 57, 135, 60, 60, 135, 3, 1.55985
169, 3, bw, attraction, a-b-da, 9, 1, 1, 28, 129, 57, 135, 60, 60, 135, 2, 0.40793
169, 3, bw, attraction, a-b-da, 14, 2, 1, 29, 165, 90, 90, 165, 153, 83, 2, 2.46106
169, 3, bw, attraction, a-b-da, 14, 2, 1, 29, 165, 90, 90, 165, 153, 83, 3, 0.88905
169, 3, bw, attraction, a-b-db, 5, 3, 1, 30, 117, 190, 120, 195, 195, 120, 2, 4.03522
169, 3, bw, attraction, a-b-db, 5, 3, 1, 30, 117, 190, 120, 195, 195, 120, 1, 0.312031
169, 3, bw, attraction, a-b-db, 9, 3, 1, 31, 120, 195, 114, 186, 195, 120, 3, 1.09728
169, 3, bw, attraction, a-b-db, 9, 3, 1, 31, 120, 195, 114, 186, 195, 120, 2, 0.372058
169, 3, bw, attraction, a-b-da, 5, 2, 1, 32, 90, 165, 165, 90, 161, 88, 2, 5.78728
169, 3, bw, attraction, a-b-da, 5, 2, 1, 32, 90, 165, 165, 90, 161, 88, 3, 2.07346
169, 3, bw, filler, NA, 999, 999, 1, 33, 171, 74, 81, 120, 117, 74, 1, 0.852112
169, 3, bw, filler, NA, 999, 999, 1, 33, 171, 74, 81, 120, 117, 74, 3, 0.32111
169, 3, bw, attraction, a-b-db, 9, 2, 1, 34, 165, 90, 86, 157, 90, 165, 3, 1.15433
169, 3, bw, attraction, a-b-db, 9, 2, 1, 34, 165, 90, 86, 157, 90, 165, 1, 0.87653
169, 3, bw, filler, NA, 999, 999, 1, 35, 58, 183, 137, 121, 73, 182, 3, 0.781628
169, 3, bw, filler, NA, 999, 999, 1, 35, 58, 183, 137, 121, 73, 182, 1, 0.381384
169, 3, bw, attraction, a-b-db, 5, 2, 1, 36, 165, 90, 88, 161, 90, 165, 2, 0.939825
169, 3, bw, attraction, a-b-db, 5, 2, 1, 36, 165, 90, 88, 161, 90, 165, 1, 0.316823
169, 3, bw, catch, NA, 999, 999, 1, 37, 101, 94, 148, 107, 138, 177, 3, 0.741977
169, 3, bw, catch, NA, 999, 999, 1, 37, 101, 94, 148, 107, 138, 177, 1, 0.599098
169, 3, bw, attraction, a-b-da, 14, 1, 2, 1, 60, 135, 135, 60, 125, 56, 1, 1.24478
169, 3, bw, attraction, a-b-da, 14, 1, 2, 1, 60, 135, 135, 60, 125, 56, 3, 0.379347
169, 3, bw, attraction, a-b-da, 9, 2, 2, 2, 90, 165, 165, 90, 157, 86, 1, 1.39218
169, 3, bw, attraction, a-b-da, 9, 2, 2, 2, 90, 165, 165, 90, 157, 86, 3, 0.32723
169, 3, bw, filler, NA, 999, 999, 2, 3, 121, 132, 154, 151, 142, 155, 3, 1.32753
169, 3, bw, filler, NA, 999, 999, 2, 3, 121, 132, 154, 151, 142, 155, 1, 0.393362
169, 3, bw, attraction, a-b-db, 9, 1, 2, 4, 60, 135, 57, 129, 135, 60, 1, 0.806977
169, 3, bw, attraction, a-b-db, 9, 1, 2, 4, 60, 135, 57, 129, 135, 60, 3, 0.261346
169, 3, bw, attraction, a-b-db, 2, 1, 2, 5, 60, 135, 59, 134, 135, 60, 3, 1.29667
169, 3, bw, attraction, a-b-db, 2, 1, 2, 5, 60, 135, 59, 134, 135, 60, 2, 0.779539
169, 3, bw, attraction, a-b-db, 2, 3, 2, 6, 119, 193, 120, 195, 195, 120, 3, 0.825913
169, 3, bw, attraction, a-b-db, 2, 3, 2, 6, 119, 193, 120, 195, 195, 120, 1, 3.52771
169, 3, bw, catch, NA, 999, 999, 2, 7, 133, 122, 95, 100, 179, 136, 3, 0.783024
169, 3, bw, catch, NA, 999, 999, 2, 7, 133, 122, 95, 100, 179, 136, 2, 0.262865
169, 3, bw, attraction, a-b-da, 5, 1, 2, 8, 60, 135, 132, 58, 135, 60, 1, 1.39395
169, 3, bw, attraction, a-b-da, 5, 1, 2, 8, 60, 135, 132, 58, 135, 60, 3, 0.312933
169, 3, bw, filler, NA, 999, 999, 2, 9, 61, 82, 61, 192, 172, 75, 3, 0.874129
169, 3, bw, filler, NA, 999, 999, 2, 9, 61, 82, 61, 192, 172, 75, 1, 0.501711
169, 3, bw, attraction, a-b-db, 9, 2, 2, 10, 165, 90, 90, 165, 86, 157, 1, 1.70363
169, 3, bw, attraction, a-b-db, 9, 2, 2, 10, 165, 90, 90, 165, 86, 157, 3, 0.818498
169, 3, bw, attraction, a-b-da, 14, 2, 2, 11, 153, 83, 90, 165, 165, 90, 2, 1.13539
169, 3, bw, attraction, a-b-da, 14, 2, 2, 11, 153, 83, 90, 165, 165, 90, 1, 0.457036
169, 3, bw, filler, NA, 999, 999, 2, 12, 164, 166, 92, 120, 80, 132, 1, 0.84405
169, 3, bw, filler, NA, 999, 999, 2, 12, 164, 166, 92, 120, 80, 132, 3, 1.12113
169, 3, bw, filler, NA, 999, 999, 2, 13, 68, 101, 144, 166, 174, 109, 2, 0.88204
169, 3, bw, filler, NA, 999, 999, 2, 13, 68, 101, 144, 166, 174, 109, 1, 1.02975
169, 3, bw, filler, NA, 999, 999, 2, 14, 64, 142, 86, 170, 174, 95, 3, 0.826023
169, 3, bw, filler, NA, 999, 999, 2, 14, 64, 142, 86, 170, 174, 95, 1, 0.631759
169, 3, bw, attraction, a-b-da, 9, 1, 2, 15, 135, 60, 60, 135, 129, 57, 1, 2.93215
169, 3, bw, attraction, a-b-da, 9, 1, 2, 15, 135, 60, 60, 135, 129, 57, 2, 0.277173
169, 3, bw, attraction, a-b-db, 14, 2, 2, 16, 83, 153, 90, 165, 165, 90, 3, 2.87974
169, 3, bw, attraction, a-b-db, 14, 2, 2, 16, 83, 153, 90, 165, 165, 90, 1, 0.442854
169, 3, bw, filler, NA, 999, 999, 2, 17, 145, 178, 75, 186, 159, 164, 3, 3.15862
169, 3, bw, filler, NA, 999, 999, 2, 17, 145, 178, 75, 186, 159, 164, 2, 0.486289
169, 3, bw, attraction, a-b-db, 5, 3, 2, 18, 195, 120, 120, 195, 117, 190, 1, 0.816871
169, 3, bw, attraction, a-b-db, 5, 3, 2, 18, 195, 120, 120, 195, 117, 190, 3, 0.431053
169, 3, bw, attraction, a-b-db, 5, 2, 2, 19, 88, 161, 165, 90, 90, 165, 3, 0.803647
169, 3, bw, attraction, a-b-db, 5, 2, 2, 19, 88, 161, 165, 90, 90, 165, 2, 0.314644
169, 3, bw, attraction, a-b-da, 2, 1, 2, 20, 135, 60, 134, 59, 60, 135, 1, 0.683791
169, 3, bw, attraction, a-b-da, 2, 1, 2, 20, 135, 60, 134, 59, 60, 135, 3, 0.295601
169, 3, bw, attraction, a-b-da, 5, 3, 2, 21, 190, 117, 195, 120, 120, 195, 2, 0.681501
169, 3, bw, attraction, a-b-da, 5, 3, 2, 21, 190, 117, 195, 120, 120, 195, 3, 0.309122
169, 3, bw, attraction, a-b-da, 2, 2, 2, 22, 90, 165, 163, 89, 165, 90, 3, 0.950245
169, 3, bw, attraction, a-b-da, 2, 2, 2, 22, 90, 165, 163, 89, 165, 90, 2, 0.263334
169, 3, bw, filler, NA, 999, 999, 2, 23, 67, 129, 190, 120, 123, 174, 3, 0.610586
169, 3, bw, filler, NA, 999, 999, 2, 23, 67, 129, 190, 120, 123, 174, 1, 0.273025
169, 3, bw, attraction, a-b-db, 9, 3, 2, 24, 120, 195, 195, 120, 114, 186, 1, 0.772214
169, 3, bw, attraction, a-b-db, 9, 3, 2, 24, 120, 195, 195, 120, 114, 186, 3, 0.763996
169, 3, bw, filler, NA, 999, 999, 2, 25, 143, 183, 107, 182, 56, 62, 1, 0.563025
169, 3, bw, filler, NA, 999, 999, 2, 25, 143, 183, 107, 182, 56, 62, 3, 1.05148
169, 3, bw, attraction, a-b-da, 9, 3, 2, 26, 195, 120, 186, 114, 120, 195, 3, 0.807065
169, 3, bw, attraction, a-b-da, 9, 3, 2, 26, 195, 120, 186, 114, 120, 195, 1, 0.549383
169, 3, bw, attraction, a-b-db, 14, 3, 2, 27, 195, 120, 120, 195, 111, 181, 3, 0.853172
169, 3, bw, attraction, a-b-db, 14, 3, 2, 27, 195, 120, 120, 195, 111, 181, 1, 0.378171
169, 3, bw, attraction, a-b-da, 2, 3, 2, 28, 195, 120, 120, 195, 193, 119, 3, 3.97676
169, 3, bw, attraction, a-b-da, 2, 3, 2, 28, 195, 120, 120, 195, 193, 119, 1, 0.599476
169, 3, bw, attraction, a-b-db, 14, 1, 2, 29, 135, 60, 60, 135, 56, 125, 1, 1.06118
169, 3, bw, attraction, a-b-db, 14, 1, 2, 29, 135, 60, 60, 135, 56, 125, 3, 0.633458
169, 3, bw, filler, NA, 999, 999, 2, 30, 70, 61, 143, 168, 150, 91, 3, 0.805937
169, 3, bw, filler, NA, 999, 999, 2, 30, 70, 61, 143, 168, 150, 91, 1, 0.396284
169, 3, bw, attraction, a-b-db, 2, 2, 2, 31, 90, 165, 165, 90, 89, 163, 1, 0.682135
169, 3, bw, attraction, a-b-db, 2, 2, 2, 31, 90, 165, 165, 90, 89, 163, 3, 0.317941
169, 3, bw, catch, NA, 999, 999, 2, 32, 94, 161, 81, 114, 138, 177, 3, 0.775002
169, 3, bw, catch, NA, 999, 999, 2, 32, 94, 161, 81, 114, 138, 177, 2, 0.318749
169, 3, bw, filler, NA, 999, 999, 2, 33, 172, 170, 131, 180, 190, 88, 1, 1.49603
169, 3, bw, filler, NA, 999, 999, 2, 33, 172, 170, 131, 180, 190, 88, 3, 0.554907
169, 3, bw, attraction, a-b-db, 5, 1, 2, 34, 60, 135, 58, 132, 135, 60, 3, 0.95456
169, 3, bw, attraction, a-b-db, 5, 1, 2, 34, 60, 135, 58, 132, 135, 60, 2, 0.330904
169, 3, bw, attraction, a-b-da, 5, 2, 2, 35, 165, 90, 161, 88, 90, 165, 3, 1.41143
169, 3, bw, attraction, a-b-da, 5, 2, 2, 35, 165, 90, 161, 88, 90, 165, 2, 0.379615
169, 3, bw, catch, NA, 999, 999, 2, 36, 91, 104, 189, 126, 108, 147, 2, 0.552142
169, 3, bw, catch, NA, 999, 999, 2, 36, 91, 104, 189, 126, 108, 147, 1, 0.297205
169, 3, bw, attraction, a-b-da, 14, 3, 2, 37, 120, 195, 195, 120, 181, 111, 1, 1.61908
169, 3, bw, attraction, a-b-da, 14, 3, 2, 37, 120, 195, 195, 120, 181, 111, 3, 0.329282
169, 3, bw, attraction, a-b-db, 14, 3, 3, 1, 120, 195, 111, 181, 195, 120, 3, 1.39369
169, 3, bw, attraction, a-b-db, 14, 3, 3, 1, 120, 195, 111, 181, 195, 120, 2, 0.312572
169, 3, bw, filler, NA, 999, 999, 3, 2, 109, 88, 97, 90, 162, 145, 3, 0.641801
169, 3, bw, filler, NA, 999, 999, 3, 2, 109, 88, 97, 90, 162, 145, 2, 0.710807
169, 3, bw, attraction, a-b-db, 9, 3, 3, 3, 195, 120, 120, 195, 114, 186, 2, 2.42386
169, 3, bw, attraction, a-b-db, 9, 3, 3, 3, 195, 120, 120, 195, 114, 186, 3, 1.28515
169, 3, bw, catch, NA, 999, 999, 3, 4, 136, 119, 61, 134, 138, 177, 3, 0.791349
169, 3, bw, catch, NA, 999, 999, 3, 4, 136, 119, 61, 134, 138, 177, 2, 0.382481
169, 3, bw, attraction, a-b-da, 9, 2, 3, 5, 90, 165, 157, 86, 165, 90, 1, 10.757
169, 3, bw, attraction, a-b-da, 9, 2, 3, 5, 90, 165, 157, 86, 165, 90, 2, 0.690851
169, 3, bw, filler, NA, 999, 999, 3, 6, 183, 69, 182, 171, 186, 181, 2, 1.37252
169, 3, bw, filler, NA, 999, 999, 3, 6, 183, 69, 182, 171, 186, 181, 1, 0.292073
169, 3, bw, filler, NA, 999, 999, 3, 7, 176, 121, 123, 194, 180, 171, 3, 1.3659
169, 3, bw, filler, NA, 999, 999, 3, 7, 176, 121, 123, 194, 180, 171, 1, 0.342126
169, 3, bw, catch, NA, 999, 999, 3, 8, 168, 147, 77, 118, 165, 90, 1, 1.01409
169, 3, bw, catch, NA, 999, 999, 3, 8, 168, 147, 77, 118, 165, 90, 2, 0.716286
169, 3, bw, attraction, a-b-db, 5, 2, 3, 9, 90, 165, 88, 161, 165, 90, 2, 3.85349
169, 3, bw, attraction, a-b-db, 5, 2, 3, 9, 90, 165, 88, 161, 165, 90, 3, 0.329576
169, 3, bw, attraction, a-b-da, 9, 1, 3, 10, 135, 60, 129, 57, 60, 135, 3, 1.37803
169, 3, bw, attraction, a-b-da, 9, 1, 3, 10, 135, 60, 129, 57, 60, 135, 2, 0.625566
169, 3, bw, attraction, a-b-da, 2, 1, 3, 11, 134, 59, 60, 135, 135, 60, 3, 0.95005
169, 3, bw, attraction, a-b-da, 2, 1, 3, 11, 134, 59, 60, 135, 135, 60, 1, 0.359039
169, 3, bw, attraction, a-b-da, 14, 3, 3, 12, 120, 195, 195, 120, 181, 111, 2, 20.9101
169, 3, bw, attraction, a-b-da, 14, 3, 3, 12, 120, 195, 195, 120, 181, 111, 3, 0.506806
169, 3, bw, attraction, a-b-da, 5, 1, 3, 13, 135, 60, 132, 58, 60, 135, 3, 2.00391
169, 3, bw, attraction, a-b-da, 5, 1, 3, 13, 135, 60, 132, 58, 60, 135, 2, 0.658645
169, 3, bw, filler, NA, 999, 999, 3, 14, 80, 117, 160, 178, 156, 171, 3, 0.549847
169, 3, bw, filler, NA, 999, 999, 3, 14, 80, 117, 160, 178, 156, 171, 1, 1.71097
169, 3, bw, filler, NA, 999, 999, 3, 15, 194, 140, 162, 102, 142, 99, 1, 1.03983
169, 3, bw, filler, NA, 999, 999, 3, 15, 194, 140, 162, 102, 142, 99, 3, 0.588816
169, 3, bw, attraction, a-b-db, 5, 1, 3, 16, 60, 135, 135, 60, 58, 132, 3, 1.57097
169, 3, bw, attraction, a-b-db, 5, 1, 3, 16, 60, 135, 135, 60, 58, 132, 1, 0.747174
169, 3, bw, attraction, a-b-db, 5, 3, 3, 17, 120, 195, 117, 190, 195, 120, 3, 1.33094
169, 3, bw, attraction, a-b-db, 5, 3, 3, 17, 120, 195, 117, 190, 195, 120, 2, 0.484395
169, 3, bw, attraction, a-b-db, 9, 1, 3, 18, 135, 60, 60, 135, 57, 129, 2, 1.20691
169, 3, bw, attraction, a-b-db, 9, 1, 3, 18, 135, 60, 60, 135, 57, 129, 3, 0.533122
169, 3, bw, attraction, a-b-db, 2, 1, 3, 19, 135, 60, 60, 135, 59, 134, 2, 1.02969
169, 3, bw, attraction, a-b-db, 2, 1, 3, 19, 135, 60, 60, 135, 59, 134, 3, 1.05141
169, 3, bw, attraction, a-b-da, 14, 1, 3, 20, 125, 56, 135, 60, 60, 135, 3, 1.17481
169, 3, bw, attraction, a-b-da, 14, 1, 3, 20, 125, 56, 135, 60, 60, 135, 2, 0.414458
169, 3, bw, filler, NA, 999, 999, 3, 21, 132, 125, 81, 181, 105, 96, 1, 0.883787
169, 3, bw, filler, NA, 999, 999, 3, 21, 132, 125, 81, 181, 105, 96, 3, 1.36896
169, 3, bw, filler, NA, 999, 999, 3, 22, 148, 75, 82, 147, 66, 176, 2, 1.76619
169, 3, bw, filler, NA, 999, 999, 3, 22, 148, 75, 82, 147, 66, 176, 1, 0.614387
169, 3, bw, attraction, a-b-da, 5, 3, 3, 23, 190, 117, 195, 120, 120, 195, 1, 1.68343
169, 3, bw, attraction, a-b-da, 5, 3, 3, 23, 190, 117, 195, 120, 120, 195, 3, 0.326888
169, 3, bw, filler, NA, 999, 999, 3, 24, 118, 87, 94, 193, 192, 66, 2, 1.01529
169, 3, bw, filler, NA, 999, 999, 3, 24, 118, 87, 94, 193, 192, 66, 1, 0.477602
169, 3, bw, attraction, a-b-da, 9, 3, 3, 25, 186, 114, 120, 195, 195, 120, 2, 1.41602
169, 3, bw, attraction, a-b-da, 9, 3, 3, 25, 186, 114, 120, 195, 195, 120, 3, 0.598237
169, 3, bw, attraction, a-b-db, 14, 1, 3, 26, 56, 125, 135, 60, 60, 135, 2, 1.79605
169, 3, bw, attraction, a-b-db, 14, 1, 3, 26, 56, 125, 135, 60, 60, 135, 1, 0.362811
169, 3, bw, attraction, a-b-da, 2, 3, 3, 27, 195, 120, 193, 119, 120, 195, 3, 5.45007
169, 3, bw, attraction, a-b-da, 2, 3, 3, 27, 195, 120, 193, 119, 120, 195, 2, 1.33361
169, 3, bw, filler, NA, 999, 999, 3, 28, 119, 187, 61, 179, 183, 164, 3, 0.893899
169, 3, bw, filler, NA, 999, 999, 3, 28, 119, 187, 61, 179, 183, 164, 2, 1.24076
169, 3, bw, attraction, a-b-db, 2, 3, 3, 29, 195, 120, 119, 193, 120, 195, 2, 3.20426
169, 3, bw, attraction, a-b-db, 2, 3, 3, 29, 195, 120, 119, 193, 120, 195, 1, 0.794698
169, 3, bw, attraction, a-b-db, 14, 2, 3, 30, 83, 153, 165, 90, 90, 165, 3, 2.9124
169, 3, bw, attraction, a-b-db, 14, 2, 3, 30, 83, 153, 165, 90, 90, 165, 1, 0.362136
169, 3, bw, attraction, a-b-da, 14, 2, 3, 31, 165, 90, 90, 165, 153, 83, 1, 2.03327
169, 3, bw, attraction, a-b-da, 14, 2, 3, 31, 165, 90, 90, 165, 153, 83, 3, 0.558552
169, 3, bw, filler, NA, 999, 999, 3, 32, 56, 185, 70, 90, 88, 183, 3, 1.10163
169, 3, bw, filler, NA, 999, 999, 3, 32, 56, 185, 70, 90, 88, 183, 2, 0.328616
169, 3, bw, attraction, a-b-da, 5, 2, 3, 33, 90, 165, 161, 88, 165, 90, 1, 3.33712
169, 3, bw, attraction, a-b-da, 5, 2, 3, 33, 90, 165, 161, 88, 165, 90, 3, 0.290049
169, 3, bw, attraction, a-b-db, 2, 2, 3, 34, 165, 90, 89, 163, 90, 165, 3, 1.62866
169, 3, bw, attraction, a-b-db, 2, 2, 3, 34, 165, 90, 89, 163, 90, 165, 1, 0.970042
169, 3, bw, catch, NA, 999, 999, 3, 35, 130, 65, 133, 122, 189, 126, 3, 0.897011
169, 3, bw, catch, NA, 999, 999, 3, 35, 130, 65, 133, 122, 189, 126, 1, 0.476182
169, 3, bw, attraction, a-b-db, 9, 2, 3, 36, 165, 90, 90, 165, 86, 157, 3, 1.80661
169, 3, bw, attraction, a-b-db, 9, 2, 3, 36, 165, 90, 90, 165, 86, 157, 2, 0.340713
169, 3, bw, attraction, a-b-da, 2, 2, 3, 37, 90, 165, 163, 89, 165, 90, 1, 2.70036
169, 3, bw, attraction, a-b-da, 2, 2, 3, 37, 90, 165, 163, 89, 165, 90, 3, 0.486842
169, 3, bw, catch, NA, 999, 999, 4, 1, 144, 111, 189, 126, 63, 132, 2, 1.13734
169, 3, bw, catch, NA, 999, 999, 4, 1, 144, 111, 189, 126, 63, 132, 3, 0.499023
169, 3, bw, attraction, a-b-da, 2, 3, 4, 2, 195, 120, 193, 119, 120, 195, 2, 2.74077
169, 3, bw, attraction, a-b-da, 2, 3, 4, 2, 195, 120, 193, 119, 120, 195, 3, 2.78912
169, 3, bw, attraction, a-b-da, 9, 3, 4, 3, 195, 120, 120, 195, 186, 114, 1, 1.52299
169, 3, bw, attraction, a-b-da, 9, 3, 4, 3, 195, 120, 120, 195, 186, 114, 2, 0.292406
169, 3, bw, filler, NA, 999, 999, 4, 4, 80, 170, 122, 94, 71, 109, 1, 0.934184
169, 3, bw, filler, NA, 999, 999, 4, 4, 80, 170, 122, 94, 71, 109, 3, 0.327972
169, 3, bw, attraction, a-b-db, 2, 1, 4, 5, 60, 135, 135, 60, 59, 134, 2, 1.28038
169, 3, bw, attraction, a-b-db, 2, 1, 4, 5, 60, 135, 135, 60, 59, 134, 1, 0.348026
169, 3, bw, filler, NA, 999, 999, 4, 6, 110, 167, 139, 117, 87, 192, 1, 3.53988
169, 3, bw, filler, NA, 999, 999, 4, 6, 110, 167, 139, 117, 87, 192, 3, 0.500106
169, 3, bw, filler, NA, 999, 999, 4, 7, 118, 139, 100, 170, 129, 117, 1, 3.98189
169, 3, bw, filler, NA, 999, 999, 4, 7, 118, 139, 100, 170, 129, 117, 3, 0.756539
169, 3, bw, attraction, a-b-da, 14, 1, 4, 8, 125, 56, 135, 60, 60, 135, 2, 1.90823
169, 3, bw, attraction, a-b-da, 14, 1, 4, 8, 125, 56, 135, 60, 60, 135, 1, 0.774332
169, 3, bw, attraction, a-b-da, 5, 3, 4, 9, 195, 120, 190, 117, 120, 195, 3, 8.08468
169, 3, bw, attraction, a-b-da, 5, 3, 4, 9, 195, 120, 190, 117, 120, 195, 2, 0.91032
169, 3, bw, filler, NA, 999, 999, 4, 10, 139, 82, 168, 134, 170, 125, 3, 0.879055
169, 3, bw, filler, NA, 999, 999, 4, 10, 139, 82, 168, 134, 170, 125, 1, 0.410825
169, 3, bw, attraction, a-b-db, 14, 1, 4, 11, 60, 135, 135, 60, 56, 125, 2, 0.919915
169, 3, bw, attraction, a-b-db, 14, 1, 4, 11, 60, 135, 135, 60, 56, 125, 3, 0.93831
169, 3, bw, filler, NA, 999, 999, 4, 12, 168, 108, 71, 176, 191, 77, 1, 1.33066
169, 3, bw, filler, NA, 999, 999, 4, 12, 168, 108, 71, 176, 191, 77, 2, 0.508202
169, 3, bw, attraction, a-b-db, 14, 2, 4, 13, 83, 153, 165, 90, 90, 165, 3, 0.781278
169, 3, bw, attraction, a-b-db, 14, 2, 4, 13, 83, 153, 165, 90, 90, 165, 1, 0.629193
169, 3, bw, filler, NA, 999, 999, 4, 14, 116, 103, 182, 152, 189, 161, 3, 0.889435
169, 3, bw, filler, NA, 999, 999, 4, 14, 116, 103, 182, 152, 189, 161, 1, 0.268394
169, 3, bw, attraction, a-b-da, 14, 2, 4, 15, 90, 165, 165, 90, 153, 83, 1, 1.45566
169, 3, bw, attraction, a-b-da, 14, 2, 4, 15, 90, 165, 165, 90, 153, 83, 3, 0.779993
169, 3, bw, attraction, a-b-db, 14, 3, 4, 16, 111, 181, 120, 195, 195, 120, 2, 0.794273
169, 3, bw, attraction, a-b-db, 14, 3, 4, 16, 111, 181, 120, 195, 195, 120, 1, 0.313253
169, 3, bw, attraction, a-b-da, 9, 2, 4, 17, 165, 90, 157, 86, 90, 165, 1, 0.962489
169, 3, bw, attraction, a-b-da, 9, 2, 4, 17, 165, 90, 157, 86, 90, 165, 3, 0.469834
169, 3, bw, attraction, a-b-da, 9, 1, 4, 18, 129, 57, 135, 60, 60, 135, 2, 0.981873
169, 3, bw, attraction, a-b-da, 9, 1, 4, 18, 129, 57, 135, 60, 60, 135, 3, 0.813738
169, 3, bw, attraction, a-b-da, 14, 3, 4, 19, 181, 111, 195, 120, 120, 195, 3, 0.778533
169, 3, bw, attraction, a-b-da, 14, 3, 4, 19, 181, 111, 195, 120, 120, 195, 2, 0.306374
169, 3, bw, filler, NA, 999, 999, 4, 20, 56, 118, 171, 190, 73, 150, 2, 0.700067
169, 3, bw, filler, NA, 999, 999, 4, 20, 56, 118, 171, 190, 73, 150, 1, 0.655269
169, 3, bw, attraction, a-b-da, 2, 2, 4, 21, 165, 90, 163, 89, 90, 165, 1, 3.21901
169, 3, bw, attraction, a-b-da, 2, 2, 4, 21, 165, 90, 163, 89, 90, 165, 3, 1.05659
169, 3, bw, attraction, a-b-db, 9, 1, 4, 22, 60, 135, 57, 129, 135, 60, 3, 3.79622
169, 3, bw, attraction, a-b-db, 9, 1, 4, 22, 60, 135, 57, 129, 135, 60, 2, 0.922331
169, 3, bw, filler, NA, 999, 999, 4, 23, 57, 149, 190, 117, 88, 187, 2, 2.3394
169, 3, bw, filler, NA, 999, 999, 4, 23, 57, 149, 190, 117, 88, 187, 1, 0.459893
169, 3, bw, attraction, a-b-db, 9, 3, 4, 24, 195, 120, 114, 186, 120, 195, 1, 5.00709
169, 3, bw, attraction, a-b-db, 9, 3, 4, 24, 195, 120, 114, 186, 120, 195, 3, 2.07629
169, 3, bw, attraction, a-b-da, 5, 2, 4, 25, 90, 165, 165, 90, 161, 88, 2, 3.68603
169, 3, bw, attraction, a-b-da, 5, 2, 4, 25, 90, 165, 165, 90, 161, 88, 3, 0.736908
169, 3, bw, attraction, a-b-db, 5, 3, 4, 26, 117, 190, 195, 120, 120, 195, 2, 2.69736
169, 3, bw, attraction, a-b-db, 5, 3, 4, 26, 117, 190, 195, 120, 120, 195, 3, 0.275737
169, 3, bw, attraction, a-b-db, 2, 3, 4, 27, 195, 120, 120, 195, 119, 193, 1, 0.750333
169, 3, bw, attraction, a-b-db, 2, 3, 4, 27, 195, 120, 120, 195, 119, 193, 2, 0.295464
169, 3, bw, attraction, a-b-da, 2, 1, 4, 28, 135, 60, 134, 59, 60, 135, 2, 0.753322
169, 3, bw, attraction, a-b-da, 2, 1, 4, 28, 135, 60, 134, 59, 60, 135, 1, 0.250347
169, 3, bw, catch, NA, 999, 999, 4, 29, 184, 131, 105, 150, 78, 117, 1, 0.662134
169, 3, bw, catch, NA, 999, 999, 4, 29, 184, 131, 105, 150, 78, 117, 3, 0.298598
169, 3, bw, filler, NA, 999, 999, 4, 30, 150, 88, 153, 194, 171, 90, 2, 0.580372
169, 3, bw, filler, NA, 999, 999, 4, 30, 150, 88, 153, 194, 171, 90, 1, 1.07625
169, 3, bw, attraction, a-b-db, 2, 2, 4, 31, 90, 165, 165, 90, 89, 163, 3, 0.934502
169, 3, bw, attraction, a-b-db, 2, 2, 4, 31, 90, 165, 165, 90, 89, 163, 2, 0.312186
169, 3, bw, attraction, a-b-db, 5, 1, 4, 32, 135, 60, 60, 135, 58, 132, 1, 2.60947
169, 3, bw, attraction, a-b-db, 5, 1, 4, 32, 135, 60, 60, 135, 58, 132, 3, 0.831164
169, 3, bw, catch, NA, 999, 999, 4, 33, 187, 128, 63, 132, 97, 158, 1, 1.32356
169, 3, bw, catch, NA, 999, 999, 4, 33, 187, 128, 63, 132, 97, 158, 2, 0.389083
169, 3, bw, attraction, a-b-db, 9, 2, 4, 34, 90, 165, 165, 90, 86, 157, 2, 1.28355
169, 3, bw, attraction, a-b-db, 9, 2, 4, 34, 90, 165, 165, 90, 86, 157, 1, 0.639352
169, 3, bw, filler, NA, 999, 999, 4, 35, 81, 75, 132, 79, 104, 68, 2, 0.915624
169, 3, bw, filler, NA, 999, 999, 4, 35, 81, 75, 132, 79, 104, 68, 1, 0.685939
169, 3, bw, attraction, a-b-db, 5, 2, 4, 36, 165, 90, 88, 161, 90, 165, 1, 4.03223
169, 3, bw, attraction, a-b-db, 5, 2, 4, 36, 165, 90, 88, 161, 90, 165, 2, 0.253063
169, 3, bw, attraction, a-b-da, 5, 1, 4, 37, 60, 135, 132, 58, 135, 60, 3, 0.672832
169, 3, bw, attraction, a-b-da, 5, 1, 4, 37, 60, 135, 132, 58, 135, 60, 2, 0.573039
169, 3, bw, attraction, a-b-db, 14, 3, 5, 1, 111, 181, 195, 120, 120, 195, 2, 17.0897
169, 3, bw, attraction, a-b-db, 14, 3, 5, 1, 111, 181, 195, 120, 120, 195, 1, 0.544282
169, 3, bw, attraction, a-b-da, 14, 3, 5, 2, 181, 111, 120, 195, 195, 120, 3, 1.39226
169, 3, bw, attraction, a-b-da, 14, 3, 5, 2, 181, 111, 120, 195, 195, 120, 1, 0.614908
169, 3, bw, attraction, a-b-db, 5, 2, 5, 3, 88, 161, 90, 165, 165, 90, 3, 2.44406
169, 3, bw, attraction, a-b-db, 5, 2, 5, 3, 88, 161, 90, 165, 165, 90, 1, 0.784538
169, 3, bw, filler, NA, 999, 999, 5, 4, 60, 149, 177, 143, 137, 166, 2, 1.12688
169, 3, bw, filler, NA, 999, 999, 5, 4, 60, 149, 177, 143, 137, 166, 1, 0.624515
169, 3, bw, attraction, a-b-da, 2, 2, 5, 5, 165, 90, 90, 165, 163, 89, 2, 6.46097
169, 3, bw, attraction, a-b-da, 2, 2, 5, 5, 165, 90, 90, 165, 163, 89, 3, 0.375572
169, 3, bw, attraction, a-b-da, 5, 1, 5, 6, 135, 60, 60, 135, 132, 58, 2, 2.7101
169, 3, bw, attraction, a-b-da, 5, 1, 5, 6, 135, 60, 60, 135, 132, 58, 3, 0.695862
169, 3, bw, attraction, a-b-da, 14, 2, 5, 7, 153, 83, 165, 90, 90, 165, 3, 1.78555
169, 3, bw, attraction, a-b-da, 14, 2, 5, 7, 153, 83, 165, 90, 90, 165, 1, 0.504992
169, 3, bw, catch, NA, 999, 999, 5, 8, 103, 92, 166, 149, 95, 160, 2, 0.994859
169, 3, bw, catch, NA, 999, 999, 5, 8, 103, 92, 166, 149, 95, 160, 1, 0.713775
169, 3, bw, attraction, a-b-da, 5, 3, 5, 9, 190, 117, 120, 195, 195, 120, 2, 1.25087
169, 3, bw, attraction, a-b-da, 5, 3, 5, 9, 190, 117, 120, 195, 195, 120, 1, 0.319726
169, 3, bw, attraction, a-b-da, 9, 3, 5, 10, 195, 120, 186, 114, 120, 195, 1, 1.20898
169, 3, bw, attraction, a-b-da, 9, 3, 5, 10, 195, 120, 186, 114, 120, 195, 3, 0.231286
169, 3, bw, attraction, a-b-db, 2, 2, 5, 11, 90, 165, 89, 163, 165, 90, 3, 0.571818
169, 3, bw, attraction, a-b-db, 2, 2, 5, 11, 90, 165, 89, 163, 165, 90, 2, 0.211504
169, 3, bw, filler, NA, 999, 999, 5, 12, 163, 101, 80, 135, 65, 62, 1, 0.808671
169, 3, bw, filler, NA, 999, 999, 5, 12, 163, 101, 80, 135, 65, 62, 3, 0.631221
169, 3, bw, attraction, a-b-db, 2, 3, 5, 13, 195, 120, 119, 193, 120, 195, 3, 0.947504
169, 3, bw, attraction, a-b-db, 2, 3, 5, 13, 195, 120, 119, 193, 120, 195, 1, 1.07661
169, 3, bw, filler, NA, 999, 999, 5, 14, 169, 107, 171, 184, 62, 169, 2, 0.801686
169, 3, bw, filler, NA, 999, 999, 5, 14, 169, 107, 171, 184, 62, 169, 3, 0.365877
169, 3, bw, filler, NA, 999, 999, 5, 15, 88, 77, 186, 151, 165, 167, 3, 0.708979
169, 3, bw, filler, NA, 999, 999, 5, 15, 88, 77, 186, 151, 165, 167, 1, 1.23142
169, 3, bw, filler, NA, 999, 999, 5, 16, 180, 173, 190, 69, 72, 115, 1, 1.02764
169, 3, bw, filler, NA, 999, 999, 5, 16, 180, 173, 190, 69, 72, 115, 3, 0.553259
169, 3, bw, attraction, a-b-da, 2, 1, 5, 17, 60, 135, 134, 59, 135, 60, 1, 4.41714
169, 3, bw, attraction, a-b-da, 2, 1, 5, 17, 60, 135, 134, 59, 135, 60, 3, 0.758517
169, 3, bw, attraction, a-b-db, 5, 3, 5, 18, 117, 190, 195, 120, 120, 195, 3, 2.46154
169, 3, bw, attraction, a-b-db, 5, 3, 5, 18, 117, 190, 195, 120, 120, 195, 2, 0.425247
169, 3, bw, filler, NA, 999, 999, 5, 19, 91, 158, 104, 126, 161, 158, 3, 0.853716
169, 3, bw, filler, NA, 999, 999, 5, 19, 91, 158, 104, 126, 161, 158, 1, 0.666765
169, 3, bw, attraction, a-b-db, 9, 2, 5, 20, 165, 90, 90, 165, 86, 157, 3, 1.11788
169, 3, bw, attraction, a-b-db, 9, 2, 5, 20, 165, 90, 90, 165, 86, 157, 2, 3.82415
169, 3, bw, filler, NA, 999, 999, 5, 21, 96, 143, 143, 175, 172, 68, 2, 1.33215
169, 3, bw, filler, NA, 999, 999, 5, 21, 96, 143, 143, 175, 172, 68, 3, 0.229735
169, 3, bw, attraction, a-b-db, 9, 3, 5, 22, 114, 186, 120, 195, 195, 120, 2, 5.10629
169, 3, bw, attraction, a-b-db, 9, 3, 5, 22, 114, 186, 120, 195, 195, 120, 3, 0.339484
169, 3, bw, filler, NA, 999, 999, 5, 23, 147, 72, 76, 99, 105, 162, 3, 0.755898
169, 3, bw, filler, NA, 999, 999, 5, 23, 147, 72, 76, 99, 105, 162, 2, 0.204285
169, 3, bw, catch, NA, 999, 999, 5, 24, 170, 145, 119, 76, 120, 135, 1, 0.64209
169, 3, bw, catch, NA, 999, 999, 5, 24, 170, 145, 119, 76, 120, 135, 3, 0.287251
169, 3, bw, attraction, a-b-db, 14, 1, 5, 25, 56, 125, 135, 60, 60, 135, 2, 0.761844
169, 3, bw, attraction, a-b-db, 14, 1, 5, 25, 56, 125, 135, 60, 60, 135, 3, 0.290651
169, 3, bw, attraction, a-b-da, 14, 1, 5, 26, 125, 56, 135, 60, 60, 135, 3, 0.84402
169, 3, bw, attraction, a-b-da, 14, 1, 5, 26, 125, 56, 135, 60, 60, 135, 1, 0.665018
169, 3, bw, attraction, a-b-da, 9, 1, 5, 27, 135, 60, 129, 57, 60, 135, 2, 0.628311
169, 3, bw, attraction, a-b-da, 9, 1, 5, 27, 135, 60, 129, 57, 60, 135, 3, 1.56214
169, 3, bw, attraction, a-b-da, 9, 2, 5, 28, 90, 165, 157, 86, 165, 90, 3, 7.76077
169, 3, bw, attraction, a-b-da, 9, 2, 5, 28, 90, 165, 157, 86, 165, 90, 2, 0.630865
169, 3, bw, attraction, a-b-da, 5, 2, 5, 29, 161, 88, 165, 90, 90, 165, 3, 1.46732
169, 3, bw, attraction, a-b-da, 5, 2, 5, 29, 161, 88, 165, 90, 90, 165, 2, 0.959575
169, 3, bw, attraction, a-b-da, 2, 3, 5, 30, 195, 120, 193, 119, 120, 195, 3, 3.53455
169, 3, bw, attraction, a-b-da, 2, 3, 5, 30, 195, 120, 193, 119, 120, 195, 2, 0.455415
169, 3, bw, attraction, a-b-db, 9, 1, 5, 31, 60, 135, 57, 129, 135, 60, 1, 1.53919
169, 3, bw, attraction, a-b-db, 9, 1, 5, 31, 60, 135, 57, 129, 135, 60, 3, 0.541269
169, 3, bw, attraction, a-b-db, 2, 1, 5, 32, 59, 134, 60, 135, 135, 60, 1, 0.96228
169, 3, bw, attraction, a-b-db, 2, 1, 5, 32, 59, 134, 60, 135, 135, 60, 3, 1.1321
169, 3, bw, catch, NA, 999, 999, 5, 33, 99, 156, 175, 140, 71, 124, 2, 0.76429
169, 3, bw, catch, NA, 999, 999, 5, 33, 99, 156, 175, 140, 71, 124, 3, 0.58869
169, 3, bw, attraction, a-b-db, 5, 1, 5, 34, 58, 132, 135, 60, 60, 135, 1, 1.29109
169, 3, bw, attraction, a-b-db, 5, 1, 5, 34, 58, 132, 135, 60, 60, 135, 3, 0.630245
169, 3, bw, filler, NA, 999, 999, 5, 35, 66, 181, 129, 97, 88, 60, 2, 2.00244
169, 3, bw, filler, NA, 999, 999, 5, 35, 66, 181, 129, 97, 88, 60, 3, 2.30515
169, 3, bw, filler, NA, 999, 999, 5, 36, 172, 86, 134, 147, 58, 76, 2, 2.33845
169, 3, bw, filler, NA, 999, 999, 5, 36, 172, 86, 134, 147, 58, 76, 3, 0.451033
169, 3, bw, attraction, a-b-db, 14, 2, 5, 37, 165, 90, 83, 153, 90, 165, 1, 3.08682
169, 3, bw, attraction, a-b-db, 14, 2, 5, 37, 165, 90, 83, 153, 90, 165, 2, 0.489717
169, 3, bw, attraction, a-b-db, 5, 1, 6, 1, 135, 60, 58, 132, 60, 135, 1, 4.87633
169, 3, bw, attraction, a-b-db, 5, 1, 6, 1, 135, 60, 58, 132, 60, 135, 2, 1.02273
169, 3, bw, filler, NA, 999, 999, 6, 2, 188, 109, 158, 91, 182, 192, 3, 0.86766
169, 3, bw, filler, NA, 999, 999, 6, 2, 188, 109, 158, 91, 182, 192, 2, 0.328025
169, 3, bw, attraction, a-b-da, 14, 1, 6, 3, 60, 135, 125, 56, 135, 60, 2, 0.88853
169, 3, bw, attraction, a-b-da, 14, 1, 6, 3, 60, 135, 125, 56, 135, 60, 3, 0.379508
169, 3, bw, filler, NA, 999, 999, 6, 4, 80, 133, 78, 68, 181, 169, 3, 0.906105
169, 3, bw, filler, NA, 999, 999, 6, 4, 80, 133, 78, 68, 181, 169, 2, 0.852358
169, 3, bw, attraction, a-b-db, 2, 2, 6, 5, 89, 163, 90, 165, 165, 90, 2, 11.44
169, 3, bw, attraction, a-b-db, 2, 2, 6, 5, 89, 163, 90, 165, 165, 90, 3, 0.538594
169, 3, bw, attraction, a-b-da, 9, 3, 6, 6, 120, 195, 195, 120, 186, 114, 2, 1.5309
169, 3, bw, attraction, a-b-da, 9, 3, 6, 6, 120, 195, 195, 120, 186, 114, 3, 0.364448
169, 3, bw, filler, NA, 999, 999, 6, 7, 81, 177, 115, 145, 181, 97, 2, 2.25155
169, 3, bw, filler, NA, 999, 999, 6, 7, 81, 177, 115, 145, 181, 97, 1, 0.304179
169, 3, bw, attraction, a-b-db, 5, 2, 6, 8, 88, 161, 90, 165, 165, 90, 2, 2.97021
169, 3, bw, attraction, a-b-db, 5, 2, 6, 8, 88, 161, 90, 165, 165, 90, 1, 0.497738
169, 3, bw, attraction, a-b-da, 14, 3, 6, 9, 195, 120, 120, 195, 181, 111, 2, 2.40355
169, 3, bw, attraction, a-b-da, 14, 3, 6, 9, 195, 120, 120, 195, 181, 111, 3, 0.474037
169, 3, bw, attraction, a-b-db, 9, 1, 6, 10, 57, 129, 135, 60, 60, 135, 2, 3.74854
169, 3, bw, attraction, a-b-db, 9, 1, 6, 10, 57, 129, 135, 60, 60, 135, 1, 0.268847
169, 3, bw, attraction, a-b-db, 2, 3, 6, 11, 119, 193, 195, 120, 120, 195, 3, 1.16791
169, 3, bw, attraction, a-b-db, 2, 3, 6, 11, 119, 193, 195, 120, 120, 195, 2, 2.33621
169, 3, bw, attraction, a-b-da, 5, 3, 6, 12, 190, 117, 195, 120, 120, 195, 1, 1.16797
169, 3, bw, attraction, a-b-da, 5, 3, 6, 12, 190, 117, 195, 120, 120, 195, 3, 0.304223
169, 3, bw, attraction, a-b-db, 14, 3, 6, 13, 120, 195, 111, 181, 195, 120, 3, 0.730124
169, 3, bw, attraction, a-b-db, 14, 3, 6, 13, 120, 195, 111, 181, 195, 120, 1, 0.659881
169, 3, bw, attraction, a-b-db, 14, 1, 6, 14, 60, 135, 56, 125, 135, 60, 3, 1.08695
169, 3, bw, attraction, a-b-db, 14, 1, 6, 14, 60, 135, 56, 125, 135, 60, 1, 0.610687
169, 3, bw, attraction, a-b-da, 2, 1, 6, 15, 60, 135, 135, 60, 134, 59, 3, 2.21572
169, 3, bw, attraction, a-b-da, 2, 1, 6, 15, 60, 135, 135, 60, 134, 59, 1, 0.941556
169, 3, bw, attraction, a-b-db, 5, 3, 6, 16, 195, 120, 120, 195, 117, 190, 2, 6.10136
169, 3, bw, attraction, a-b-db, 5, 3, 6, 16, 195, 120, 120, 195, 117, 190, 1, 0.366825
169, 3, bw, attraction, a-b-db, 9, 2, 6, 17, 86, 157, 90, 165, 165, 90, 3, 1.34977
169, 3, bw, attraction, a-b-db, 9, 2, 6, 17, 86, 157, 90, 165, 165, 90, 1, 0.366632
169, 3, bw, attraction, a-b-da, 2, 2, 6, 18, 163, 89, 165, 90, 90, 165, 3, 0.693885
169, 3, bw, attraction, a-b-da, 2, 2, 6, 18, 163, 89, 165, 90, 90, 165, 1, 0.84904
169, 3, bw, attraction, a-b-da, 5, 1, 6, 19, 135, 60, 132, 58, 60, 135, 3, 2.12471
169, 3, bw, attraction, a-b-da, 5, 1, 6, 19, 135, 60, 132, 58, 60, 135, 1, 0.50996
169, 3, bw, catch, NA, 999, 999, 6, 20, 191, 124, 116, 139, 130, 65, 1, 0.815034
169, 3, bw, catch, NA, 999, 999, 6, 20, 191, 124, 116, 139, 130, 65, 3, 0.589422
169, 3, bw, catch, NA, 999, 999, 6, 21, 62, 133, 116, 139, 189, 126, 3, 0.651807
169, 3, bw, catch, NA, 999, 999, 6, 21, 62, 133, 116, 139, 189, 126, 1, 0.329022
169, 3, bw, attraction, a-b-da, 14, 2, 6, 22, 165, 90, 153, 83, 90, 165, 1, 0.857522
169, 3, bw, attraction, a-b-da, 14, 2, 6, 22, 165, 90, 153, 83, 90, 165, 3, 0.749824
169, 3, bw, filler, NA, 999, 999, 6, 23, 135, 117, 107, 182, 177, 75, 2, 1.88574
169, 3, bw, filler, NA, 999, 999, 6, 23, 135, 117, 107, 182, 177, 75, 3, 1.08895
169, 3, bw, attraction, a-b-da, 9, 1, 6, 24, 135, 60, 129, 57, 60, 135, 1, 28.0514
169, 3, bw, attraction, a-b-da, 9, 1, 6, 24, 135, 60, 129, 57, 60, 135, 3, 0.463967
169, 3, bw, filler, NA, 999, 999, 6, 25, 80, 66, 64, 149, 191, 94, 3, 0.786949
169, 3, bw, filler, NA, 999, 999, 6, 25, 80, 66, 64, 149, 191, 94, 1, 0.490634
169, 3, bw, attraction, a-b-da, 9, 2, 6, 26, 157, 86, 165, 90, 90, 165, 1, 21.0446
169, 3, bw, attraction, a-b-da, 9, 2, 6, 26, 157, 86, 165, 90, 90, 165, 2, 4.69116
169, 3, bw, attraction, a-b-db, 2, 1, 6, 27, 60, 135, 59, 134, 135, 60, 2, 1.53957
169, 3, bw, attraction, a-b-db, 2, 1, 6, 27, 60, 135, 59, 134, 135, 60, 3, 0.228472
169, 3, bw, catch, NA, 999, 999, 6, 28, 84, 111, 120, 195, 115, 140, 2, 0.992963
169, 3, bw, catch, NA, 999, 999, 6, 28, 84, 111, 120, 195, 115, 140, 1, 0.31196
169, 3, bw, filler, NA, 999, 999, 6, 29, 173, 86, 77, 90, 165, 120, 3, 0.681208
169, 3, bw, filler, NA, 999, 999, 6, 29, 173, 86, 77, 90, 165, 120, 2, 0.356867
169, 3, bw, filler, NA, 999, 999, 6, 30, 153, 87, 128, 149, 146, 183, 3, 13.8921
169, 3, bw, filler, NA, 999, 999, 6, 30, 153, 87, 128, 149, 146, 183, 1, 0.498969
169, 3, bw, attraction, a-b-da, 5, 2, 6, 31, 161, 88, 165, 90, 90, 165, 2, 4.23677
169, 3, bw, attraction, a-b-da, 5, 2, 6, 31, 161, 88, 165, 90, 90, 165, 3, 85.0337
169, 3, bw, attraction, a-b-db, 14, 2, 6, 32, 165, 90, 83, 153, 90, 165, 3, 0.988175
169, 3, bw, attraction, a-b-db, 14, 2, 6, 32, 165, 90, 83, 153, 90, 165, 2, 0.328031
169, 3, bw, filler, NA, 999, 999, 6, 33, 117, 121, 195, 192, 181, 91, 2, 0.587818
169, 3, bw, filler, NA, 999, 999, 6, 33, 117, 121, 195, 192, 181, 91, 3, 0.25873
169, 3, bw, filler, NA, 999, 999, 6, 34, 146, 193, 92, 92, 84, 71, 1, 1.36593
169, 3, bw, filler, NA, 999, 999, 6, 34, 146, 193, 92, 92, 84, 71, 3, 0.438171
169, 3, bw, attraction, a-b-da, 2, 3, 6, 35, 120, 195, 193, 119, 195, 120, 3, 1.1947
169, 3, bw, attraction, a-b-da, 2, 3, 6, 35, 120, 195, 193, 119, 195, 120, 1, 1.28974
169, 3, bw, attraction, a-b-db, 9, 3, 6, 36, 114, 186, 195, 120, 120, 195, 3, 2.97193
169, 3, bw, attraction, a-b-db, 9, 3, 6, 36, 114, 186, 195, 120, 120, 195, 2, 40.1637
169, 3, bw, filler, NA, 999, 999, 6, 37, 159, 169, 166, 100, 123, 90, 1, 1.3589
169, 3, bw, filler, NA, 999, 999, 6, 37, 159, 169, 166, 100, 123, 90, 3, 391.128
169, 3, bw, attraction, a-b-db, 9, 1, 7, 1, 57, 129, 135, 60, 60, 135, 3, 1.12292
169, 3, bw, attraction, a-b-db, 9, 1, 7, 1, 57, 129, 135, 60, 60, 135, 1, 0.644459
169, 3, bw, attraction, a-b-db, 2, 2, 7, 2, 90, 165, 89, 163, 165, 90, 2, 0.744175
169, 3, bw, attraction, a-b-db, 2, 2, 7, 2, 90, 165, 89, 163, 165, 90, 3, 1.75332
169, 3, bw, attraction, a-b-da, 9, 2, 7, 3, 90, 165, 165, 90, 157, 86, 2, 0.808678
169, 3, bw, attraction, a-b-da, 9, 2, 7, 3, 90, 165, 165, 90, 157, 86, 3, 0.399131
169, 3, bw, attraction, a-b-da, 9, 1, 7, 4, 135, 60, 129, 57, 60, 135, 1, 1.13292
169, 3, bw, attraction, a-b-da, 9, 1, 7, 4, 135, 60, 129, 57, 60, 135, 3, 0.206587
169, 3, bw, attraction, a-b-da, 14, 3, 7, 5, 195, 120, 120, 195, 181, 111, 2, 0.771779
169, 3, bw, attraction, a-b-da, 14, 3, 7, 5, 195, 120, 120, 195, 181, 111, 1, 0.571446
169, 3, bw, attraction, a-b-da, 5, 1, 7, 6, 135, 60, 132, 58, 60, 135, 3, 0.602597
169, 3, bw, attraction, a-b-da, 5, 1, 7, 6, 135, 60, 132, 58, 60, 135, 1, 0.953715
169, 3, bw, filler, NA, 999, 999, 7, 7, 194, 172, 96, 192, 77, 195, 1, 0.641334
169, 3, bw, filler, NA, 999, 999, 7, 7, 194, 172, 96, 192, 77, 195, 3, 0.238451
169, 3, bw, filler, NA, 999, 999, 7, 8, 174, 178, 75, 175, 96, 62, 1, 0.643018
169, 3, bw, filler, NA, 999, 999, 7, 8, 174, 178, 75, 175, 96, 62, 3, 0.552088
169, 3, bw, attraction, a-b-da, 9, 3, 7, 9, 186, 114, 120, 195, 195, 120, 2, 0.776009
169, 3, bw, attraction, a-b-da, 9, 3, 7, 9, 186, 114, 120, 195, 195, 120, 1, 0.655567
169, 3, bw, filler, NA, 999, 999, 7, 10, 100, 166, 88, 92, 62, 146, 1, 0.659355
169, 3, bw, filler, NA, 999, 999, 7, 10, 100, 166, 88, 92, 62, 146, 2, 0.959828
169, 3, bw, filler, NA, 999, 999, 7, 11, 180, 192, 132, 191, 63, 153, 2, 0.606788
169, 3, bw, filler, NA, 999, 999, 7, 11, 180, 192, 132, 191, 63, 153, 3, 0.253281
169, 3, bw, attraction, a-b-db, 14, 2, 7, 12, 90, 165, 83, 153, 165, 90, 2, 0.993037
169, 3, bw, attraction, a-b-db, 14, 2, 7, 12, 90, 165, 83, 153, 165, 90, 1, 0.47199
169, 3, bw, attraction, a-b-db, 14, 3, 7, 13, 120, 195, 195, 120, 111, 181, 2, 0.57122
169, 3, bw, attraction, a-b-db, 14, 3, 7, 13, 120, 195, 195, 120, 111, 181, 3, 0.275695
169, 3, bw, filler, NA, 999, 999, 7, 14, 180, 106, 94, 88, 98, 172, 1, 0.566062
169, 3, bw, filler, NA, 999, 999, 7, 14, 180, 106, 94, 88, 98, 172, 2, 0.814986
169, 3, bw, attraction, a-b-da, 14, 2, 7, 15, 90, 165, 153, 83, 165, 90, 2, 1.54765
169, 3, bw, attraction, a-b-da, 14, 2, 7, 15, 90, 165, 153, 83, 165, 90, 1, 3.04449
169, 3, bw, catch, NA, 999, 999, 7, 16, 140, 175, 103, 152, 101, 94, 1, 7.71145
169, 3, bw, catch, NA, 999, 999, 7, 16, 140, 175, 103, 152, 101, 94, 3, 0.271706
169, 3, bw, attraction, a-b-db, 2, 3, 7, 17, 119, 193, 195, 120, 120, 195, 2, 1.09884
169, 3, bw, attraction, a-b-db, 2, 3, 7, 17, 119, 193, 195, 120, 120, 195, 1, 0.237844
169, 3, bw, attraction, a-b-db, 5, 2, 7, 18, 165, 90, 88, 161, 90, 165, 3, 0.778375
169, 3, bw, attraction, a-b-db, 5, 2, 7, 18, 165, 90, 88, 161, 90, 165, 1, 0.338136
169, 3, bw, attraction, a-b-da, 5, 2, 7, 19, 161, 88, 165, 90, 90, 165, 2, 0.962683
169, 3, bw, attraction, a-b-da, 5, 2, 7, 19, 161, 88, 165, 90, 90, 165, 3, 0.242975
169, 3, bw, attraction, a-b-db, 5, 3, 7, 20, 195, 120, 120, 195, 117, 190, 2, 1.29494
169, 3, bw, attraction, a-b-db, 5, 3, 7, 20, 195, 120, 120, 195, 117, 190, 1, 0.273714
169, 3, bw, catch, NA, 999, 999, 7, 21, 142, 113, 107, 88, 155, 160, 3, 0.764209
169, 3, bw, catch, NA, 999, 999, 7, 21, 142, 113, 107, 88, 155, 160, 2, 0.516688
169, 3, bw, attraction, a-b-db, 2, 1, 7, 22, 60, 135, 135, 60, 59, 134, 2, 0.749725
169, 3, bw, attraction, a-b-db, 2, 1, 7, 22, 60, 135, 135, 60, 59, 134, 3, 0.534827
169, 3, bw, attraction, a-b-da, 2, 1, 7, 23, 135, 60, 60, 135, 134, 59, 1, 10.0312
169, 3, bw, attraction, a-b-da, 2, 1, 7, 23, 135, 60, 60, 135, 134, 59, 3, 0.30609
169, 3, bw, attraction, a-b-da, 14, 1, 7, 24, 135, 60, 125, 56, 60, 135, 1, 1.09189
169, 3, bw, attraction, a-b-da, 14, 1, 7, 24, 135, 60, 125, 56, 60, 135, 2, 0.198903
169, 3, bw, filler, NA, 999, 999, 7, 25, 128, 168, 141, 87, 118, 58, 1, 0.548772
169, 3, bw, filler, NA, 999, 999, 7, 25, 128, 168, 141, 87, 118, 58, 3, 0.229886
169, 3, bw, attraction, a-b-db, 9, 2, 7, 26, 165, 90, 90, 165, 86, 157, 2, 0.666551
169, 3, bw, attraction, a-b-db, 9, 2, 7, 26, 165, 90, 90, 165, 86, 157, 3, 0.550864
169, 3, bw, attraction, a-b-da, 2, 3, 7, 27, 120, 195, 193, 119, 195, 120, 3, 0.934921
169, 3, bw, attraction, a-b-da, 2, 3, 7, 27, 120, 195, 193, 119, 195, 120, 1, 0.264362
169, 3, bw, catch, NA, 999, 999, 7, 28, 148, 107, 127, 188, 90, 105, 2, 0.587542
169, 3, bw, catch, NA, 999, 999, 7, 28, 148, 107, 127, 188, 90, 105, 3, 0.210793
169, 3, bw, attraction, a-b-db, 14, 1, 7, 29, 135, 60, 60, 135, 56, 125, 1, 0.647814
169, 3, bw, attraction, a-b-db, 14, 1, 7, 29, 135, 60, 60, 135, 56, 125, 3, 0.260902
169, 3, bw, attraction, a-b-da, 5, 3, 7, 30, 190, 117, 195, 120, 120, 195, 1, 1.21611
169, 3, bw, attraction, a-b-da, 5, 3, 7, 30, 190, 117, 195, 120, 120, 195, 3, 0.262416
169, 3, bw, filler, NA, 999, 999, 7, 31, 122, 191, 128, 75, 176, 159, 3, 0.713664
169, 3, bw, filler, NA, 999, 999, 7, 31, 122, 191, 128, 75, 176, 159, 2, 0.228017
169, 3, bw, filler, NA, 999, 999, 7, 32, 127, 185, 70, 154, 114, 189, 3, 1.12857
169, 3, bw, filler, NA, 999, 999, 7, 32, 127, 185, 70, 154, 114, 189, 2, 0.298159
169, 3, bw, attraction, a-b-da, 2, 2, 7, 33, 165, 90, 90, 165, 163, 89, 1, 1.18016
169, 3, bw, attraction, a-b-da, 2, 2, 7, 33, 165, 90, 90, 165, 163, 89, 2, 0.763639
169, 3, bw, attraction, a-b-db, 9, 3, 7, 34, 195, 120, 120, 195, 114, 186, 2, 1.35471
169, 3, bw, attraction, a-b-db, 9, 3, 7, 34, 195, 120, 120, 195, 114, 186, 3, 0.266949
169, 3, bw, attraction, a-b-db, 5, 1, 7, 35, 58, 132, 135, 60, 60, 135, 2, 2.48618
169, 3, bw, attraction, a-b-db, 5, 1, 7, 35, 58, 132, 135, 60, 60, 135, 3, 0.681293
169, 3, bw, filler, NA, 999, 999, 7, 36, 103, 146, 88, 90, 110, 155, 3, 0.835656
169, 3, bw, filler, NA, 999, 999, 7, 36, 103, 146, 88, 90, 110, 155, 2, 0.529405
169, 3, bw, filler, NA, 999, 999, 7, 37, 166, 161, 154, 65, 146, 166, 3, 0.673851
169, 3, bw, filler, NA, 999, 999, 7, 37, 166, 161, 154, 65, 146, 166, 2, 0.725612
169, 3, bw, attraction, a-b-db, 9, 2, 8, 1, 165, 90, 90, 165, 86, 157, 3, 0.862074
169, 3, bw, attraction, a-b-db, 9, 2, 8, 1, 165, 90, 90, 165, 86, 157, 1, 0.394294
169, 3, bw, filler, NA, 999, 999, 8, 2, 84, 148, 92, 112, 161, 173, 3, 0.704073
169, 3, bw, filler, NA, 999, 999, 8, 2, 84, 148, 92, 112, 161, 173, 2, 0.323212
169, 3, bw, attraction, a-b-da, 5, 1, 8, 3, 132, 58, 60, 135, 135, 60, 2, 1.50782
169, 3, bw, attraction, a-b-da, 5, 1, 8, 3, 132, 58, 60, 135, 135, 60, 3, 1.07012
169, 3, bw, attraction, a-b-da, 5, 3, 8, 4, 190, 117, 195, 120, 120, 195, 3, 2.75295
169, 3, bw, attraction, a-b-da, 5, 3, 8, 4, 190, 117, 195, 120, 120, 195, 1, 10.2494
169, 3, bw, attraction, a-b-da, 2, 3, 8, 5, 120, 195, 195, 120, 193, 119, 1, 1.77006
169, 3, bw, attraction, a-b-da, 2, 3, 8, 5, 120, 195, 195, 120, 193, 119, 3, 2.03427
169, 3, bw, catch, NA, 999, 999, 8, 6, 69, 126, 164, 91, 175, 140, 3, 0.670188
169, 3, bw, catch, NA, 999, 999, 8, 6, 69, 126, 164, 91, 175, 140, 1, 0.466541
169, 3, bw, filler, NA, 999, 999, 8, 7, 84, 82, 74, 169, 146, 69, 3, 0.645684
169, 3, bw, filler, NA, 999, 999, 8, 7, 84, 82, 74, 169, 146, 69, 1, 0.874823
169, 3, bw, filler, NA, 999, 999, 8, 8, 157, 79, 118, 117, 157, 69, 1, 4.47702
169, 3, bw, filler, NA, 999, 999, 8, 8, 157, 79, 118, 117, 157, 69, 3, 0.471686
169, 3, bw, attraction, a-b-da, 14, 1, 8, 9, 125, 56, 135, 60, 60, 135, 2, 1.68292
169, 3, bw, attraction, a-b-da, 14, 1, 8, 9, 125, 56, 135, 60, 60, 135, 3, 0.286309
169, 3, bw, attraction, a-b-da, 9, 1, 8, 10, 60, 135, 129, 57, 135, 60, 2, 0.769276
169, 3, bw, attraction, a-b-da, 9, 1, 8, 10, 60, 135, 129, 57, 135, 60, 1, 0.585207
169, 3, bw, attraction, a-b-db, 14, 1, 8, 11, 60, 135, 56, 125, 135, 60, 1, 0.92752
169, 3, bw, attraction, a-b-db, 14, 1, 8, 11, 60, 135, 56, 125, 135, 60, 2, 0.337283
169, 3, bw, attraction, a-b-db, 9, 1, 8, 12, 60, 135, 135, 60, 57, 129, 2, 1.10595
169, 3, bw, attraction, a-b-db, 9, 1, 8, 12, 60, 135, 135, 60, 57, 129, 3, 0.220085
169, 3, bw, attraction, a-b-da, 14, 2, 8, 13, 153, 83, 90, 165, 165, 90, 2, 0.913387
169, 3, bw, attraction, a-b-da, 14, 2, 8, 13, 153, 83, 90, 165, 165, 90, 1, 0.307695
169, 3, bw, attraction, a-b-da, 2, 1, 8, 14, 135, 60, 134, 59, 60, 135, 3, 0.708888
169, 3, bw, attraction, a-b-da, 2, 1, 8, 14, 135, 60, 134, 59, 60, 135, 1, 0.319247
169, 3, bw, filler, NA, 999, 999, 8, 15, 159, 182, 102, 178, 163, 162, 3, 0.640384
169, 3, bw, filler, NA, 999, 999, 8, 15, 159, 182, 102, 178, 163, 162, 2, 0.333542
169, 3, bw, filler, NA, 999, 999, 8, 16, 112, 161, 57, 187, 149, 166, 3, 1.478
169, 3, bw, filler, NA, 999, 999, 8, 16, 112, 161, 57, 187, 149, 166, 2, 0.353611
169, 3, bw, attraction, a-b-db, 2, 1, 8, 17, 59, 134, 60, 135, 135, 60, 2, 2.18538
169, 3, bw, attraction, a-b-db, 2, 1, 8, 17, 59, 134, 60, 135, 135, 60, 3, 0.888775
169, 3, bw, catch, NA, 999, 999, 8, 18, 123, 192, 146, 109, 90, 105, 1, 0.987006
169, 3, bw, catch, NA, 999, 999, 8, 18, 123, 192, 146, 109, 90, 105, 3, 1.06673
169, 3, bw, attraction, a-b-db, 14, 3, 8, 19, 195, 120, 120, 195, 111, 181, 1, 4.85366
169, 3, bw, attraction, a-b-db, 14, 3, 8, 19, 195, 120, 120, 195, 111, 181, 3, 1.71337
169, 3, bw, attraction, a-b-db, 5, 3, 8, 20, 117, 190, 120, 195, 195, 120, 2, 1.01019
169, 3, bw, attraction, a-b-db, 5, 3, 8, 20, 117, 190, 120, 195, 195, 120, 3, 0.232482
169, 3, bw, attraction, a-b-db, 5, 1, 8, 21, 135, 60, 60, 135, 58, 132, 3, 0.741168
169, 3, bw, attraction, a-b-db, 5, 1, 8, 21, 135, 60, 60, 135, 58, 132, 2, 0.502128
169, 3, bw, filler, NA, 999, 999, 8, 22, 148, 169, 105, 156, 84, 136, 1, 0.799869
169, 3, bw, filler, NA, 999, 999, 8, 22, 148, 169, 105, 156, 84, 136, 3, 0.590943
169, 3, bw, attraction, a-b-db, 9, 3, 8, 23, 195, 120, 114, 186, 120, 195, 2, 0.724771
169, 3, bw, attraction, a-b-db, 9, 3, 8, 23, 195, 120, 114, 186, 120, 195, 3, 0.470413
169, 3, bw, filler, NA, 999, 999, 8, 24, 56, 143, 101, 132, 163, 175, 3, 0.689648
169, 3, bw, filler, NA, 999, 999, 8, 24, 56, 143, 101, 132, 163, 175, 1, 0.370179
169, 3, bw, attraction, a-b-da, 5, 2, 8, 25, 165, 90, 90, 165, 161, 88, 3, 0.715815
169, 3, bw, attraction, a-b-da, 5, 2, 8, 25, 165, 90, 90, 165, 161, 88, 2, 0.206322
169, 3, bw, filler, NA, 999, 999, 8, 26, 103, 134, 60, 90, 80, 187, 1, 0.936349
169, 3, bw, filler, NA, 999, 999, 8, 26, 103, 134, 60, 90, 80, 187, 2, 0.189773
169, 3, bw, filler, NA, 999, 999, 8, 27, 147, 157, 138, 147, 154, 121, 2, 1.1883
169, 3, bw, filler, NA, 999, 999, 8, 27, 147, 157, 138, 147, 154, 121, 3, 0.547297
169, 3, bw, attraction, a-b-db, 5, 2, 8, 28, 88, 161, 165, 90, 90, 165, 3, 0.642969
169, 3, bw, attraction, a-b-db, 5, 2, 8, 28, 88, 161, 165, 90, 90, 165, 2, 0.240261
169, 3, bw, catch, NA, 999, 999, 8, 29, 60, 135, 157, 98, 157, 158, 3, 0.556111
169, 3, bw, catch, NA, 999, 999, 8, 29, 60, 135, 157, 98, 157, 158, 1, 0.220453
169, 3, bw, attraction, a-b-da, 9, 2, 8, 30, 157, 86, 90, 165, 165, 90, 2, 1.47361
169, 3, bw, attraction, a-b-da, 9, 2, 8, 30, 157, 86, 90, 165, 165, 90, 3, 0.253113
169, 3, bw, attraction, a-b-db, 2, 3, 8, 31, 120, 195, 119, 193, 195, 120, 2, 1.48905
169, 3, bw, attraction, a-b-db, 2, 3, 8, 31, 120, 195, 119, 193, 195, 120, 3, 0.563936
169, 3, bw, attraction, a-b-da, 14, 3, 8, 32, 120, 195, 181, 111, 195, 120, 2, 1.355
169, 3, bw, attraction, a-b-da, 14, 3, 8, 32, 120, 195, 181, 111, 195, 120, 3, 0.555286
169, 3, bw, attraction, a-b-db, 14, 2, 8, 33, 83, 153, 165, 90, 90, 165, 2, 0.866975
169, 3, bw, attraction, a-b-db, 14, 2, 8, 33, 83, 153, 165, 90, 90, 165, 1, 0.831547
169, 3, bw, filler, NA, 999, 999, 8, 34, 129, 165, 61, 73, 98, 84, 1, 0.667853
169, 3, bw, filler, NA, 999, 999, 8, 34, 129, 165, 61, 73, 98, 84, 2, 0.728315
169, 3, bw, attraction, a-b-da, 9, 3, 8, 35, 195, 120, 186, 114, 120, 195, 2, 1.35251
169, 3, bw, attraction, a-b-da, 9, 3, 8, 35, 195, 120, 186, 114, 120, 195, 1, 0.209389
169, 3, bw, attraction, a-b-da, 2, 2, 8, 36, 163, 89, 90, 165, 165, 90, 2, 1.4868
169, 3, bw, attraction, a-b-da, 2, 2, 8, 36, 163, 89, 90, 165, 165, 90, 3, 0.578098
169, 3, bw, attraction, a-b-db, 2, 2, 8, 37, 165, 90, 90, 165, 89, 163, 2, 1.77659
169, 3, bw, attraction, a-b-db, 2, 2, 8, 37, 165, 90, 90, 165, 89, 163, 3, 0.567971
