sub_n, computer_n, bw_cond, effect, set, distance, diag, block_n, trial_n, h1, w1, h2, w2, h3, w3, choice, rt 
112, 3, wb, practice, NA, 999, 999, 0, 1, 73, 178, 78, 98, 152, 58, 3, 6.81671
112, 3, wb, practice, NA, 999, 999, 0, 1, 73, 178, 78, 98, 152, 58, 1, 1.69884
112, 3, wb, practice, NA, 999, 999, 0, 2, 127, 91, 60, 163, 59, 171, 3, 5.1368
112, 3, wb, practice, NA, 999, 999, 0, 2, 127, 91, 60, 163, 59, 171, 1, 2.60907
112, 3, wb, practice, NA, 999, 999, 0, 3, 78, 172, 157, 186, 163, 60, 3, 3.29914
112, 3, wb, practice, NA, 999, 999, 0, 3, 78, 172, 157, 186, 163, 60, 2, 1.14392
112, 3, wb, attraction, a-b-db, 2, 3, 1, 1, 195, 120, 119, 193, 120, 195, 1, 8.69518
112, 3, wb, attraction, a-b-db, 2, 3, 1, 1, 195, 120, 119, 193, 120, 195, 3, 1.58374
112, 3, wb, filler, NA, 999, 999, 1, 2, 140, 134, 109, 174, 160, 95, 3, 2.09394
112, 3, wb, filler, NA, 999, 999, 1, 2, 140, 134, 109, 174, 160, 95, 2, 1.58458
112, 3, wb, attraction, a-b-db, 14, 1, 1, 3, 60, 135, 135, 60, 56, 125, 2, 2.23062
112, 3, wb, attraction, a-b-db, 14, 1, 1, 3, 60, 135, 135, 60, 56, 125, 1, 1.01199
112, 3, wb, catch, NA, 999, 999, 1, 4, 90, 105, 149, 106, 170, 145, 1, 1.93694
112, 3, wb, catch, NA, 999, 999, 1, 4, 90, 105, 149, 106, 170, 145, 3, 2.05025
112, 3, wb, filler, NA, 999, 999, 1, 5, 195, 118, 127, 109, 102, 86, 3, 0.981663
112, 3, wb, filler, NA, 999, 999, 1, 5, 195, 118, 127, 109, 102, 86, 1, 0.797226
112, 3, wb, attraction, a-b-da, 2, 2, 1, 6, 163, 89, 165, 90, 90, 165, 1, 2.78682
112, 3, wb, attraction, a-b-da, 2, 2, 1, 6, 163, 89, 165, 90, 90, 165, 3, 1.00999
112, 3, wb, catch, NA, 999, 999, 1, 7, 161, 94, 178, 137, 99, 96, 3, 0.855104
112, 3, wb, catch, NA, 999, 999, 1, 7, 161, 94, 178, 137, 99, 96, 2, 1.00334
112, 3, wb, attraction, a-b-da, 5, 2, 1, 8, 90, 165, 161, 88, 165, 90, 2, 2.24092
112, 3, wb, attraction, a-b-da, 5, 2, 1, 8, 90, 165, 161, 88, 165, 90, 1, 0.909565
112, 3, wb, attraction, a-b-da, 9, 2, 1, 9, 90, 165, 165, 90, 157, 86, 3, 1.89449
112, 3, wb, attraction, a-b-da, 9, 2, 1, 9, 90, 165, 165, 90, 157, 86, 1, 0.577372
112, 3, wb, filler, NA, 999, 999, 1, 10, 71, 150, 110, 120, 128, 139, 1, 0.863582
112, 3, wb, filler, NA, 999, 999, 1, 10, 71, 150, 110, 120, 128, 139, 3, 1.74036
112, 3, wb, attraction, a-b-da, 5, 3, 1, 11, 195, 120, 120, 195, 190, 117, 1, 2.85937
112, 3, wb, attraction, a-b-da, 5, 3, 1, 11, 195, 120, 120, 195, 190, 117, 2, 0.687319
112, 3, wb, attraction, a-b-da, 9, 1, 1, 12, 135, 60, 129, 57, 60, 135, 3, 2.24956
112, 3, wb, attraction, a-b-da, 9, 1, 1, 12, 135, 60, 129, 57, 60, 135, 1, 1.11021
112, 3, wb, attraction, a-b-db, 5, 1, 1, 13, 60, 135, 135, 60, 58, 132, 1, 1.23919
112, 3, wb, attraction, a-b-db, 5, 1, 1, 13, 60, 135, 135, 60, 58, 132, 3, 0.580032
112, 3, wb, filler, NA, 999, 999, 1, 14, 77, 158, 171, 179, 173, 66, 3, 2.57845
112, 3, wb, filler, NA, 999, 999, 1, 14, 77, 158, 171, 179, 173, 66, 2, 0.57755
112, 3, wb, filler, NA, 999, 999, 1, 15, 100, 191, 152, 178, 143, 176, 1, 2.53607
112, 3, wb, filler, NA, 999, 999, 1, 15, 100, 191, 152, 178, 143, 176, 2, 0.849173
112, 3, wb, attraction, a-b-da, 14, 3, 1, 16, 181, 111, 120, 195, 195, 120, 1, 2.3649
112, 3, wb, attraction, a-b-da, 14, 3, 1, 16, 181, 111, 120, 195, 195, 120, 2, 1.72483
112, 3, wb, filler, NA, 999, 999, 1, 17, 94, 156, 169, 78, 191, 135, 2, 1.13312
112, 3, wb, filler, NA, 999, 999, 1, 17, 94, 156, 169, 78, 191, 135, 3, 0.718497
112, 3, wb, attraction, a-b-da, 14, 1, 1, 18, 135, 60, 125, 56, 60, 135, 3, 0.927638
112, 3, wb, attraction, a-b-da, 14, 1, 1, 18, 135, 60, 125, 56, 60, 135, 1, 0.721235
112, 3, wb, filler, NA, 999, 999, 1, 19, 185, 63, 86, 89, 90, 156, 2, 0.786225
112, 3, wb, filler, NA, 999, 999, 1, 19, 185, 63, 86, 89, 90, 156, 3, 3.33832
112, 3, wb, attraction, a-b-da, 2, 1, 1, 20, 135, 60, 60, 135, 134, 59, 3, 1.44958
112, 3, wb, attraction, a-b-da, 2, 1, 1, 20, 135, 60, 60, 135, 134, 59, 2, 0.966365
112, 3, wb, attraction, a-b-db, 9, 2, 1, 21, 90, 165, 165, 90, 86, 157, 2, 1.06147
112, 3, wb, attraction, a-b-db, 9, 2, 1, 21, 90, 165, 165, 90, 86, 157, 1, 0.56973
112, 3, wb, attraction, a-b-db, 9, 3, 1, 22, 195, 120, 120, 195, 114, 186, 1, 1.26497
112, 3, wb, attraction, a-b-db, 9, 3, 1, 22, 195, 120, 120, 195, 114, 186, 2, 0.477021
112, 3, wb, attraction, a-b-db, 2, 2, 1, 23, 89, 163, 165, 90, 90, 165, 3, 1.02363
112, 3, wb, attraction, a-b-db, 2, 2, 1, 23, 89, 163, 165, 90, 90, 165, 2, 0.445122
112, 3, wb, attraction, a-b-db, 2, 1, 1, 24, 59, 134, 135, 60, 60, 135, 1, 1.63301
112, 3, wb, attraction, a-b-db, 2, 1, 1, 24, 59, 134, 135, 60, 60, 135, 3, 0.782585
112, 3, wb, attraction, a-b-db, 9, 1, 1, 25, 135, 60, 60, 135, 57, 129, 1, 0.796759
112, 3, wb, attraction, a-b-db, 9, 1, 1, 25, 135, 60, 60, 135, 57, 129, 2, 0.547815
112, 3, wb, filler, NA, 999, 999, 1, 26, 119, 66, 103, 128, 139, 123, 1, 0.715682
112, 3, wb, filler, NA, 999, 999, 1, 26, 119, 66, 103, 128, 139, 123, 3, 0.710067
112, 3, wb, attraction, a-b-da, 14, 2, 1, 27, 165, 90, 90, 165, 153, 83, 1, 0.647091
112, 3, wb, attraction, a-b-da, 14, 2, 1, 27, 165, 90, 90, 165, 153, 83, 2, 0.820275
112, 3, wb, filler, NA, 999, 999, 1, 28, 59, 77, 140, 114, 121, 130, 1, 0.633147
112, 3, wb, filler, NA, 999, 999, 1, 28, 59, 77, 140, 114, 121, 130, 2, 0.85497
112, 3, wb, attraction, a-b-db, 5, 3, 1, 29, 120, 195, 195, 120, 117, 190, 1, 1.9146
112, 3, wb, attraction, a-b-db, 5, 3, 1, 29, 120, 195, 195, 120, 117, 190, 2, 0.820633
112, 3, wb, attraction, a-b-da, 5, 1, 1, 30, 60, 135, 132, 58, 135, 60, 2, 1.02585
112, 3, wb, attraction, a-b-da, 5, 1, 1, 30, 60, 135, 132, 58, 135, 60, 3, 0.615421
112, 3, wb, filler, NA, 999, 999, 1, 31, 126, 74, 129, 186, 123, 70, 1, 1.22846
112, 3, wb, filler, NA, 999, 999, 1, 31, 126, 74, 129, 186, 123, 70, 2, 0.658085
112, 3, wb, attraction, a-b-db, 14, 2, 1, 32, 83, 153, 165, 90, 90, 165, 1, 0.517151
112, 3, wb, attraction, a-b-db, 14, 2, 1, 32, 83, 153, 165, 90, 90, 165, 2, 0.42365
112, 3, wb, attraction, a-b-da, 2, 3, 1, 33, 193, 119, 195, 120, 120, 195, 1, 0.612169
112, 3, wb, attraction, a-b-da, 2, 3, 1, 33, 193, 119, 195, 120, 120, 195, 3, 0.634515
112, 3, wb, attraction, a-b-da, 9, 3, 1, 34, 120, 195, 186, 114, 195, 120, 1, 0.534894
112, 3, wb, attraction, a-b-da, 9, 3, 1, 34, 120, 195, 186, 114, 195, 120, 3, 0.512719
112, 3, wb, attraction, a-b-db, 14, 3, 1, 35, 195, 120, 120, 195, 111, 181, 2, 0.63391
112, 3, wb, attraction, a-b-db, 14, 3, 1, 35, 195, 120, 120, 195, 111, 181, 1, 0.807727
112, 3, wb, attraction, a-b-db, 5, 2, 1, 36, 88, 161, 165, 90, 90, 165, 1, 1.18064
112, 3, wb, attraction, a-b-db, 5, 2, 1, 36, 88, 161, 165, 90, 90, 165, 3, 0.540359
112, 3, wb, catch, NA, 999, 999, 1, 37, 150, 165, 125, 70, 160, 95, 2, 0.644045
112, 3, wb, catch, NA, 999, 999, 1, 37, 150, 165, 125, 70, 160, 95, 1, 0.29707
112, 3, wb, attraction, a-b-da, 5, 1, 2, 1, 135, 60, 132, 58, 60, 135, 1, 1.77099
112, 3, wb, attraction, a-b-da, 5, 1, 2, 1, 135, 60, 132, 58, 60, 135, 3, 0.483074
112, 3, wb, attraction, a-b-da, 2, 1, 2, 2, 135, 60, 60, 135, 134, 59, 2, 1.7575
112, 3, wb, attraction, a-b-da, 2, 1, 2, 2, 135, 60, 60, 135, 134, 59, 1, 1.42169
112, 3, wb, filler, NA, 999, 999, 2, 3, 136, 65, 81, 170, 57, 172, 3, 0.906468
112, 3, wb, filler, NA, 999, 999, 2, 3, 136, 65, 81, 170, 57, 172, 2, 0.820921
112, 3, wb, filler, NA, 999, 999, 2, 4, 162, 73, 74, 162, 57, 140, 3, 1.12976
112, 3, wb, filler, NA, 999, 999, 2, 4, 162, 73, 74, 162, 57, 140, 2, 0.507469
112, 3, wb, filler, NA, 999, 999, 2, 5, 169, 95, 95, 160, 143, 167, 2, 1.34049
112, 3, wb, filler, NA, 999, 999, 2, 5, 169, 95, 95, 160, 143, 167, 3, 0.52543
112, 3, wb, attraction, a-b-db, 5, 1, 2, 6, 60, 135, 135, 60, 58, 132, 2, 0.685812
112, 3, wb, attraction, a-b-db, 5, 1, 2, 6, 60, 135, 135, 60, 58, 132, 1, 0.56161
112, 3, wb, attraction, a-b-da, 2, 3, 2, 7, 195, 120, 120, 195, 193, 119, 3, 0.77679
112, 3, wb, attraction, a-b-da, 2, 3, 2, 7, 195, 120, 120, 195, 193, 119, 2, 0.792609
112, 3, wb, attraction, a-b-da, 14, 1, 2, 8, 60, 135, 125, 56, 135, 60, 2, 0.758081
112, 3, wb, attraction, a-b-da, 14, 1, 2, 8, 60, 135, 125, 56, 135, 60, 1, 0.878647
112, 3, wb, filler, NA, 999, 999, 2, 9, 105, 187, 167, 148, 139, 144, 1, 1.48089
112, 3, wb, filler, NA, 999, 999, 2, 9, 105, 187, 167, 148, 139, 144, 2, 0.652573
112, 3, wb, filler, NA, 999, 999, 2, 10, 98, 142, 175, 74, 83, 160, 2, 0.632132
112, 3, wb, filler, NA, 999, 999, 2, 10, 98, 142, 175, 74, 83, 160, 1, 0.493987
112, 3, wb, attraction, a-b-db, 9, 2, 2, 11, 165, 90, 86, 157, 90, 165, 1, 1.2158
112, 3, wb, attraction, a-b-db, 9, 2, 2, 11, 165, 90, 86, 157, 90, 165, 2, 0.485955
112, 3, wb, attraction, a-b-da, 14, 2, 2, 12, 165, 90, 153, 83, 90, 165, 2, 0.624379
112, 3, wb, attraction, a-b-da, 14, 2, 2, 12, 165, 90, 153, 83, 90, 165, 1, 0.326184
112, 3, wb, filler, NA, 999, 999, 2, 13, 174, 70, 191, 111, 145, 66, 3, 1.3027
112, 3, wb, filler, NA, 999, 999, 2, 13, 174, 70, 191, 111, 145, 66, 2, 0.609632
112, 3, wb, attraction, a-b-da, 2, 2, 2, 14, 165, 90, 163, 89, 90, 165, 2, 1.67067
112, 3, wb, attraction, a-b-da, 2, 2, 2, 14, 165, 90, 163, 89, 90, 165, 1, 0.586886
112, 3, wb, attraction, a-b-db, 2, 3, 2, 15, 120, 195, 195, 120, 119, 193, 2, 0.729161
112, 3, wb, attraction, a-b-db, 2, 3, 2, 15, 120, 195, 195, 120, 119, 193, 1, 0.354989
112, 3, wb, attraction, a-b-da, 9, 3, 2, 16, 120, 195, 186, 114, 195, 120, 1, 0.826899
112, 3, wb, attraction, a-b-da, 9, 3, 2, 16, 120, 195, 186, 114, 195, 120, 3, 0.74463
112, 3, wb, attraction, a-b-db, 2, 1, 2, 17, 60, 135, 59, 134, 135, 60, 1, 0.872257
112, 3, wb, attraction, a-b-db, 2, 1, 2, 17, 60, 135, 59, 134, 135, 60, 3, 0.787953
112, 3, wb, attraction, a-b-db, 2, 2, 2, 18, 165, 90, 90, 165, 89, 163, 3, 0.970347
112, 3, wb, attraction, a-b-db, 2, 2, 2, 18, 165, 90, 90, 165, 89, 163, 1, 0.794692
112, 3, wb, attraction, a-b-da, 5, 3, 2, 19, 120, 195, 190, 117, 195, 120, 1, 0.920327
112, 3, wb, attraction, a-b-da, 5, 3, 2, 19, 120, 195, 190, 117, 195, 120, 3, 0.786984
112, 3, wb, attraction, a-b-db, 9, 1, 2, 20, 135, 60, 60, 135, 57, 129, 3, 0.969108
112, 3, wb, attraction, a-b-db, 9, 1, 2, 20, 135, 60, 60, 135, 57, 129, 1, 0.761355
112, 3, wb, filler, NA, 999, 999, 2, 21, 182, 109, 113, 124, 193, 64, 3, 0.776463
112, 3, wb, filler, NA, 999, 999, 2, 21, 182, 109, 113, 124, 193, 64, 1, 0.496105
112, 3, wb, filler, NA, 999, 999, 2, 22, 151, 177, 167, 72, 59, 137, 3, 0.937991
112, 3, wb, filler, NA, 999, 999, 2, 22, 151, 177, 167, 72, 59, 137, 1, 0.563646
112, 3, wb, attraction, a-b-db, 14, 2, 2, 23, 90, 165, 83, 153, 165, 90, 3, 1.75484
112, 3, wb, attraction, a-b-db, 14, 2, 2, 23, 90, 165, 83, 153, 165, 90, 1, 0.5236
112, 3, wb, attraction, a-b-db, 14, 3, 2, 24, 120, 195, 111, 181, 195, 120, 1, 0.659946
112, 3, wb, attraction, a-b-db, 14, 3, 2, 24, 120, 195, 111, 181, 195, 120, 3, 0.400339
112, 3, wb, catch, NA, 999, 999, 2, 25, 139, 116, 151, 164, 87, 108, 3, 0.806352
112, 3, wb, catch, NA, 999, 999, 2, 25, 139, 116, 151, 164, 87, 108, 2, 0.252534
112, 3, wb, attraction, a-b-db, 5, 2, 2, 26, 165, 90, 88, 161, 90, 165, 3, 1.34442
112, 3, wb, attraction, a-b-db, 5, 2, 2, 26, 165, 90, 88, 161, 90, 165, 1, 0.537412
112, 3, wb, catch, NA, 999, 999, 2, 27, 129, 186, 123, 72, 128, 127, 2, 0.649785
112, 3, wb, catch, NA, 999, 999, 2, 27, 129, 186, 123, 72, 128, 127, 1, 0.694909
112, 3, wb, attraction, a-b-db, 5, 3, 2, 28, 117, 190, 195, 120, 120, 195, 2, 1.7766
112, 3, wb, attraction, a-b-db, 5, 3, 2, 28, 117, 190, 195, 120, 120, 195, 1, 0.80816
112, 3, wb, attraction, a-b-db, 9, 3, 2, 29, 120, 195, 114, 186, 195, 120, 1, 2.23697
112, 3, wb, attraction, a-b-db, 9, 3, 2, 29, 120, 195, 114, 186, 195, 120, 3, 0.418256
112, 3, wb, filler, NA, 999, 999, 2, 30, 114, 64, 63, 113, 146, 131, 1, 1.1035
112, 3, wb, filler, NA, 999, 999, 2, 30, 114, 64, 63, 113, 146, 131, 3, 0.546479
112, 3, wb, catch, NA, 999, 999, 2, 31, 91, 104, 158, 97, 131, 184, 1, 0.706226
112, 3, wb, catch, NA, 999, 999, 2, 31, 91, 104, 158, 97, 131, 184, 3, 0.340658
112, 3, wb, attraction, a-b-db, 14, 1, 2, 32, 60, 135, 135, 60, 56, 125, 3, 0.964497
112, 3, wb, attraction, a-b-db, 14, 1, 2, 32, 60, 135, 135, 60, 56, 125, 2, 0.436725
112, 3, wb, attraction, a-b-da, 14, 3, 2, 33, 120, 195, 195, 120, 181, 111, 3, 1.12133
112, 3, wb, attraction, a-b-da, 14, 3, 2, 33, 120, 195, 195, 120, 181, 111, 1, 0.37158
112, 3, wb, attraction, a-b-da, 5, 2, 2, 34, 90, 165, 161, 88, 165, 90, 3, 0.634857
112, 3, wb, attraction, a-b-da, 5, 2, 2, 34, 90, 165, 161, 88, 165, 90, 1, 0.344588
112, 3, wb, filler, NA, 999, 999, 2, 35, 63, 116, 146, 188, 136, 174, 1, 0.696315
112, 3, wb, filler, NA, 999, 999, 2, 35, 63, 116, 146, 188, 136, 174, 2, 0.467327
112, 3, wb, attraction, a-b-da, 9, 2, 2, 36, 157, 86, 90, 165, 165, 90, 1, 1.55047
112, 3, wb, attraction, a-b-da, 9, 2, 2, 36, 157, 86, 90, 165, 165, 90, 2, 0.799414
112, 3, wb, attraction, a-b-da, 9, 1, 2, 37, 129, 57, 135, 60, 60, 135, 1, 2.15702
112, 3, wb, attraction, a-b-da, 9, 1, 2, 37, 129, 57, 135, 60, 60, 135, 2, 0.42103
112, 3, wb, attraction, a-b-da, 5, 2, 3, 1, 165, 90, 161, 88, 90, 165, 1, 0.890249
112, 3, wb, attraction, a-b-da, 5, 2, 3, 1, 165, 90, 161, 88, 90, 165, 2, 0.837215
112, 3, wb, attraction, a-b-db, 14, 3, 3, 2, 120, 195, 111, 181, 195, 120, 3, 0.601543
112, 3, wb, attraction, a-b-db, 14, 3, 3, 2, 120, 195, 111, 181, 195, 120, 1, 0.384806
112, 3, wb, attraction, a-b-da, 14, 3, 3, 3, 120, 195, 195, 120, 181, 111, 3, 0.455152
112, 3, wb, attraction, a-b-da, 14, 3, 3, 3, 120, 195, 195, 120, 181, 111, 1, 0.339786
112, 3, wb, attraction, a-b-da, 2, 1, 3, 4, 134, 59, 60, 135, 135, 60, 1, 1.0122
112, 3, wb, attraction, a-b-da, 2, 1, 3, 4, 134, 59, 60, 135, 135, 60, 2, 0.42655
112, 3, wb, filler, NA, 999, 999, 3, 5, 140, 133, 83, 168, 61, 135, 3, 0.790921
112, 3, wb, filler, NA, 999, 999, 3, 5, 140, 133, 83, 168, 61, 135, 1, 0.414035
112, 3, wb, attraction, a-b-db, 2, 2, 3, 6, 90, 165, 165, 90, 89, 163, 2, 0.443139
112, 3, wb, attraction, a-b-db, 2, 2, 3, 6, 90, 165, 165, 90, 89, 163, 1, 0.384301
112, 3, wb, attraction, a-b-db, 9, 1, 3, 7, 57, 129, 60, 135, 135, 60, 1, 0.694711
112, 3, wb, attraction, a-b-db, 9, 1, 3, 7, 57, 129, 60, 135, 135, 60, 3, 1.88194
112, 3, wb, attraction, a-b-db, 5, 1, 3, 8, 135, 60, 60, 135, 58, 132, 3, 1.29185
112, 3, wb, attraction, a-b-db, 5, 1, 3, 8, 135, 60, 60, 135, 58, 132, 1, 0.710867
112, 3, wb, attraction, a-b-da, 9, 2, 3, 9, 90, 165, 165, 90, 157, 86, 3, 0.583825
112, 3, wb, attraction, a-b-da, 9, 2, 3, 9, 90, 165, 165, 90, 157, 86, 1, 0.391654
112, 3, wb, attraction, a-b-da, 5, 1, 3, 10, 135, 60, 60, 135, 132, 58, 1, 0.685458
112, 3, wb, attraction, a-b-da, 5, 1, 3, 10, 135, 60, 60, 135, 132, 58, 2, 0.737253
112, 3, wb, filler, NA, 999, 999, 3, 11, 155, 164, 80, 114, 189, 66, 2, 1.2336
112, 3, wb, filler, NA, 999, 999, 3, 11, 155, 164, 80, 114, 189, 66, 1, 0.319213
112, 3, wb, catch, NA, 999, 999, 3, 12, 145, 170, 107, 88, 94, 161, 2, 1.17636
112, 3, wb, catch, NA, 999, 999, 3, 12, 145, 170, 107, 88, 94, 161, 1, 0.368019
112, 3, wb, attraction, a-b-da, 9, 3, 3, 13, 120, 195, 186, 114, 195, 120, 3, 1.83117
112, 3, wb, attraction, a-b-da, 9, 3, 3, 13, 120, 195, 186, 114, 195, 120, 1, 0.708542
112, 3, wb, catch, NA, 999, 999, 3, 14, 111, 84, 148, 107, 190, 125, 1, 0.621606
112, 3, wb, catch, NA, 999, 999, 3, 14, 111, 84, 148, 107, 190, 125, 3, 0.371546
112, 3, wb, attraction, a-b-da, 14, 2, 3, 15, 165, 90, 153, 83, 90, 165, 2, 1.39454
112, 3, wb, attraction, a-b-da, 14, 2, 3, 15, 165, 90, 153, 83, 90, 165, 1, 1.0734
112, 3, wb, attraction, a-b-da, 2, 2, 3, 16, 165, 90, 90, 165, 163, 89, 3, 0.764356
112, 3, wb, attraction, a-b-da, 2, 2, 3, 16, 165, 90, 90, 165, 163, 89, 2, 0.404875
112, 3, wb, attraction, a-b-da, 9, 1, 3, 17, 129, 57, 60, 135, 135, 60, 1, 3.90657
112, 3, wb, attraction, a-b-da, 9, 1, 3, 17, 129, 57, 60, 135, 135, 60, 3, 0.755993
112, 3, wb, filler, NA, 999, 999, 3, 18, 143, 149, 125, 65, 125, 160, 2, 0.595674
112, 3, wb, filler, NA, 999, 999, 3, 18, 143, 149, 125, 65, 125, 160, 1, 1.17085
112, 3, wb, filler, NA, 999, 999, 3, 19, 149, 136, 86, 174, 153, 128, 3, 0.78583
112, 3, wb, filler, NA, 999, 999, 3, 19, 149, 136, 86, 174, 153, 128, 1, 0.913438
112, 3, wb, filler, NA, 999, 999, 3, 20, 122, 57, 181, 94, 120, 149, 1, 0.770374
112, 3, wb, filler, NA, 999, 999, 3, 20, 122, 57, 181, 94, 120, 149, 2, 0.77082
112, 3, wb, attraction, a-b-db, 14, 1, 3, 21, 56, 125, 60, 135, 135, 60, 1, 1.99387
112, 3, wb, attraction, a-b-db, 14, 1, 3, 21, 56, 125, 60, 135, 135, 60, 2, 0.584577
112, 3, wb, attraction, a-b-da, 5, 3, 3, 22, 190, 117, 120, 195, 195, 120, 3, 0.991047
112, 3, wb, attraction, a-b-da, 5, 3, 3, 22, 190, 117, 120, 195, 195, 120, 2, 0.645963
112, 3, wb, filler, NA, 999, 999, 3, 23, 112, 63, 107, 88, 190, 178, 1, 1.03378
112, 3, wb, filler, NA, 999, 999, 3, 23, 112, 63, 107, 88, 190, 178, 3, 0.823343
112, 3, wb, attraction, a-b-da, 2, 3, 3, 24, 193, 119, 195, 120, 120, 195, 1, 1.15572
112, 3, wb, attraction, a-b-da, 2, 3, 3, 24, 193, 119, 195, 120, 120, 195, 2, 0.636024
112, 3, wb, attraction, a-b-da, 14, 1, 3, 25, 125, 56, 60, 135, 135, 60, 1, 2.26444
112, 3, wb, attraction, a-b-da, 14, 1, 3, 25, 125, 56, 60, 135, 135, 60, 2, 0.964359
112, 3, wb, attraction, a-b-db, 9, 2, 3, 26, 165, 90, 90, 165, 86, 157, 3, 0.71532
112, 3, wb, attraction, a-b-db, 9, 2, 3, 26, 165, 90, 90, 165, 86, 157, 1, 0.453727
112, 3, wb, filler, NA, 999, 999, 3, 27, 103, 87, 188, 105, 142, 178, 1, 0.857586
112, 3, wb, filler, NA, 999, 999, 3, 27, 103, 87, 188, 105, 142, 178, 3, 2.09399
112, 3, wb, filler, NA, 999, 999, 3, 28, 135, 106, 75, 114, 166, 74, 2, 1.25527
112, 3, wb, filler, NA, 999, 999, 3, 28, 135, 106, 75, 114, 166, 74, 1, 2.53158
112, 3, wb, attraction, a-b-db, 9, 3, 3, 29, 120, 195, 114, 186, 195, 120, 2, 5.15533
112, 3, wb, attraction, a-b-db, 9, 3, 3, 29, 120, 195, 114, 186, 195, 120, 3, 0.498342
112, 3, wb, filler, NA, 999, 999, 3, 30, 126, 148, 191, 66, 173, 134, 2, 0.835992
112, 3, wb, filler, NA, 999, 999, 3, 30, 126, 148, 191, 66, 173, 134, 3, 0.561969
112, 3, wb, catch, NA, 999, 999, 3, 31, 154, 161, 119, 76, 151, 104, 2, 0.64097
112, 3, wb, catch, NA, 999, 999, 3, 31, 154, 161, 119, 76, 151, 104, 1, 0.6459
112, 3, wb, attraction, a-b-db, 5, 3, 3, 32, 195, 120, 120, 195, 117, 190, 1, 1.45012
112, 3, wb, attraction, a-b-db, 5, 3, 3, 32, 195, 120, 120, 195, 117, 190, 2, 0.462576
112, 3, wb, attraction, a-b-db, 14, 2, 3, 33, 165, 90, 83, 153, 90, 165, 1, 2.08973
112, 3, wb, attraction, a-b-db, 14, 2, 3, 33, 165, 90, 83, 153, 90, 165, 3, 1.09237
112, 3, wb, attraction, a-b-db, 2, 1, 3, 34, 135, 60, 59, 134, 60, 135, 1, 1.58198
112, 3, wb, attraction, a-b-db, 2, 1, 3, 34, 135, 60, 59, 134, 60, 135, 2, 1.38154
112, 3, wb, attraction, a-b-db, 2, 3, 3, 35, 195, 120, 120, 195, 119, 193, 3, 1.76365
112, 3, wb, attraction, a-b-db, 2, 3, 3, 35, 195, 120, 120, 195, 119, 193, 1, 1.63581
112, 3, wb, attraction, a-b-db, 5, 2, 3, 36, 90, 165, 88, 161, 165, 90, 1, 1.55987
112, 3, wb, attraction, a-b-db, 5, 2, 3, 36, 90, 165, 88, 161, 165, 90, 3, 0.792021
112, 3, wb, filler, NA, 999, 999, 3, 37, 105, 144, 126, 181, 188, 123, 1, 1.18175
112, 3, wb, filler, NA, 999, 999, 3, 37, 105, 144, 126, 181, 188, 123, 3, 0.76539
112, 3, wb, catch, NA, 999, 999, 4, 1, 165, 150, 111, 84, 128, 127, 2, 0.69237
112, 3, wb, catch, NA, 999, 999, 4, 1, 165, 150, 111, 84, 128, 127, 1, 0.399546
112, 3, wb, filler, NA, 999, 999, 4, 2, 85, 72, 61, 76, 98, 191, 2, 0.997212
112, 3, wb, filler, NA, 999, 999, 4, 2, 85, 72, 61, 76, 98, 191, 3, 0.340178
112, 3, wb, attraction, a-b-db, 5, 1, 4, 3, 135, 60, 60, 135, 58, 132, 3, 1.06813
112, 3, wb, attraction, a-b-db, 5, 1, 4, 3, 135, 60, 60, 135, 58, 132, 1, 0.832348
112, 3, wb, attraction, a-b-da, 2, 3, 4, 4, 120, 195, 193, 119, 195, 120, 3, 1.20465
112, 3, wb, attraction, a-b-da, 2, 3, 4, 4, 120, 195, 193, 119, 195, 120, 1, 0.955602
112, 3, wb, filler, NA, 999, 999, 4, 5, 101, 103, 153, 166, 183, 73, 1, 7.05953
112, 3, wb, filler, NA, 999, 999, 4, 5, 101, 103, 153, 166, 183, 73, 2, 0.374019
112, 3, wb, filler, NA, 999, 999, 4, 6, 101, 143, 114, 75, 78, 135, 2, 1.52417
112, 3, wb, filler, NA, 999, 999, 4, 6, 101, 143, 114, 75, 78, 135, 1, 0.949753
112, 3, wb, attraction, a-b-db, 14, 1, 4, 7, 135, 60, 56, 125, 60, 135, 2, 5.50123
112, 3, wb, attraction, a-b-db, 14, 1, 4, 7, 135, 60, 56, 125, 60, 135, 1, 0.694975
112, 3, wb, attraction, a-b-da, 5, 1, 4, 8, 60, 135, 135, 60, 132, 58, 3, 2.20864
112, 3, wb, attraction, a-b-da, 5, 1, 4, 8, 60, 135, 135, 60, 132, 58, 2, 0.7906
112, 3, wb, attraction, a-b-da, 14, 1, 4, 9, 125, 56, 60, 135, 135, 60, 2, 3.1564
112, 3, wb, attraction, a-b-da, 14, 1, 4, 9, 125, 56, 60, 135, 135, 60, 3, 0.955889
112, 3, wb, attraction, a-b-db, 2, 3, 4, 10, 120, 195, 119, 193, 195, 120, 1, 22.8996
112, 3, wb, attraction, a-b-db, 2, 3, 4, 10, 120, 195, 119, 193, 195, 120, 3, 1.22381
112, 3, wb, attraction, a-b-da, 14, 3, 4, 11, 120, 195, 195, 120, 181, 111, 3, 1.27602
112, 3, wb, attraction, a-b-da, 14, 3, 4, 11, 120, 195, 195, 120, 181, 111, 1, 0.823601
112, 3, wb, attraction, a-b-da, 9, 2, 4, 12, 157, 86, 165, 90, 90, 165, 2, 0.85988
112, 3, wb, attraction, a-b-da, 9, 2, 4, 12, 157, 86, 165, 90, 90, 165, 3, 1.36027
112, 3, wb, catch, NA, 999, 999, 4, 13, 137, 178, 87, 108, 160, 95, 2, 0.711189
112, 3, wb, catch, NA, 999, 999, 4, 13, 137, 178, 87, 108, 160, 95, 1, 0.409634
112, 3, wb, attraction, a-b-da, 2, 2, 4, 14, 163, 89, 90, 165, 165, 90, 2, 0.902682
112, 3, wb, attraction, a-b-da, 2, 2, 4, 14, 163, 89, 90, 165, 165, 90, 1, 0.665582
112, 3, wb, attraction, a-b-db, 2, 1, 4, 15, 135, 60, 59, 134, 60, 135, 1, 1.21263
112, 3, wb, attraction, a-b-db, 2, 1, 4, 15, 135, 60, 59, 134, 60, 135, 2, 0.659104
112, 3, wb, filler, NA, 999, 999, 4, 16, 99, 113, 61, 144, 134, 145, 1, 1.55002
112, 3, wb, filler, NA, 999, 999, 4, 16, 99, 113, 61, 144, 134, 145, 3, 0.49499
112, 3, wb, attraction, a-b-db, 9, 1, 4, 17, 60, 135, 135, 60, 57, 129, 2, 0.83267
112, 3, wb, attraction, a-b-db, 9, 1, 4, 17, 60, 135, 135, 60, 57, 129, 1, 0.374429
112, 3, wb, filler, NA, 999, 999, 4, 18, 113, 186, 61, 127, 174, 134, 2, 1.03687
112, 3, wb, filler, NA, 999, 999, 4, 18, 113, 186, 61, 127, 174, 134, 1, 0.69867
112, 3, wb, attraction, a-b-da, 9, 3, 4, 19, 195, 120, 120, 195, 186, 114, 1, 0.916274
112, 3, wb, attraction, a-b-da, 9, 3, 4, 19, 195, 120, 120, 195, 186, 114, 2, 0.638613
112, 3, wb, attraction, a-b-db, 9, 2, 4, 20, 90, 165, 165, 90, 86, 157, 1, 0.650962
112, 3, wb, attraction, a-b-db, 9, 2, 4, 20, 90, 165, 165, 90, 86, 157, 2, 0.544075
112, 3, wb, filler, NA, 999, 999, 4, 21, 80, 110, 106, 103, 113, 151, 1, 0.75183
112, 3, wb, filler, NA, 999, 999, 4, 21, 80, 110, 106, 103, 113, 151, 3, 0.721099
112, 3, wb, filler, NA, 999, 999, 4, 22, 96, 110, 150, 195, 65, 159, 1, 0.99397
112, 3, wb, filler, NA, 999, 999, 4, 22, 96, 110, 150, 195, 65, 159, 2, 0.233011
112, 3, wb, attraction, a-b-db, 9, 3, 4, 23, 120, 195, 195, 120, 114, 186, 2, 0.741557
112, 3, wb, attraction, a-b-db, 9, 3, 4, 23, 120, 195, 195, 120, 114, 186, 1, 0.5906
112, 3, wb, attraction, a-b-db, 14, 2, 4, 24, 165, 90, 90, 165, 83, 153, 3, 1.30834
112, 3, wb, attraction, a-b-db, 14, 2, 4, 24, 165, 90, 90, 165, 83, 153, 2, 0.526722
112, 3, wb, attraction, a-b-db, 14, 3, 4, 25, 111, 181, 195, 120, 120, 195, 1, 1.2551
112, 3, wb, attraction, a-b-db, 14, 3, 4, 25, 111, 181, 195, 120, 120, 195, 2, 0.563264
112, 3, wb, attraction, a-b-db, 2, 2, 4, 26, 165, 90, 89, 163, 90, 165, 1, 0.938446
112, 3, wb, attraction, a-b-db, 2, 2, 4, 26, 165, 90, 89, 163, 90, 165, 2, 0.379396
112, 3, wb, attraction, a-b-da, 9, 1, 4, 27, 135, 60, 129, 57, 60, 135, 3, 1.02598
112, 3, wb, attraction, a-b-da, 9, 1, 4, 27, 135, 60, 129, 57, 60, 135, 1, 0.543505
112, 3, wb, filler, NA, 999, 999, 4, 28, 138, 174, 165, 175, 184, 90, 3, 3.20729
112, 3, wb, filler, NA, 999, 999, 4, 28, 138, 174, 165, 175, 184, 90, 2, 0.364907
112, 3, wb, attraction, a-b-db, 5, 2, 4, 29, 90, 165, 88, 161, 165, 90, 3, 0.82007
112, 3, wb, attraction, a-b-db, 5, 2, 4, 29, 90, 165, 88, 161, 165, 90, 1, 0.594555
112, 3, wb, filler, NA, 999, 999, 4, 30, 159, 111, 163, 95, 128, 114, 3, 3.92026
112, 3, wb, filler, NA, 999, 999, 4, 30, 159, 111, 163, 95, 128, 114, 1, 0.833649
112, 3, wb, catch, NA, 999, 999, 4, 31, 100, 155, 76, 119, 139, 176, 2, 0.757935
112, 3, wb, catch, NA, 999, 999, 4, 31, 100, 155, 76, 119, 139, 176, 3, 0.670441
112, 3, wb, attraction, a-b-da, 2, 1, 4, 32, 135, 60, 134, 59, 60, 135, 3, 1.54564
112, 3, wb, attraction, a-b-da, 2, 1, 4, 32, 135, 60, 134, 59, 60, 135, 1, 1.3383
112, 3, wb, filler, NA, 999, 999, 4, 33, 92, 73, 79, 92, 69, 150, 1, 1.68257
112, 3, wb, filler, NA, 999, 999, 4, 33, 92, 73, 79, 92, 69, 150, 3, 2.33394
112, 3, wb, attraction, a-b-db, 5, 3, 4, 34, 117, 190, 120, 195, 195, 120, 3, 1.76584
112, 3, wb, attraction, a-b-db, 5, 3, 4, 34, 117, 190, 120, 195, 195, 120, 1, 0.53398
112, 3, wb, attraction, a-b-da, 5, 2, 4, 35, 165, 90, 90, 165, 161, 88, 1, 1.72645
112, 3, wb, attraction, a-b-da, 5, 2, 4, 35, 165, 90, 90, 165, 161, 88, 2, 0.351809
112, 3, wb, attraction, a-b-da, 14, 2, 4, 36, 90, 165, 165, 90, 153, 83, 2, 3.11971
112, 3, wb, attraction, a-b-da, 14, 2, 4, 36, 90, 165, 165, 90, 153, 83, 1, 0.345296
112, 3, wb, attraction, a-b-da, 5, 3, 4, 37, 120, 195, 190, 117, 195, 120, 2, 1.23311
112, 3, wb, attraction, a-b-da, 5, 3, 4, 37, 120, 195, 190, 117, 195, 120, 1, 0.35866
112, 3, wb, attraction, a-b-da, 9, 3, 5, 1, 186, 114, 195, 120, 120, 195, 1, 3.46849
112, 3, wb, attraction, a-b-da, 9, 3, 5, 1, 186, 114, 195, 120, 120, 195, 2, 0.416067
112, 3, wb, attraction, a-b-db, 2, 2, 5, 2, 90, 165, 165, 90, 89, 163, 1, 0.853387
112, 3, wb, attraction, a-b-db, 2, 2, 5, 2, 90, 165, 165, 90, 89, 163, 2, 0.818316
112, 3, wb, attraction, a-b-db, 14, 2, 5, 3, 83, 153, 165, 90, 90, 165, 1, 1.45544
112, 3, wb, attraction, a-b-db, 14, 2, 5, 3, 83, 153, 165, 90, 90, 165, 2, 0.291401
112, 3, wb, attraction, a-b-db, 5, 1, 5, 4, 135, 60, 58, 132, 60, 135, 1, 0.733305
112, 3, wb, attraction, a-b-db, 5, 1, 5, 4, 135, 60, 58, 132, 60, 135, 2, 0.943105
112, 3, wb, attraction, a-b-da, 5, 2, 5, 5, 90, 165, 165, 90, 161, 88, 3, 0.598704
112, 3, wb, attraction, a-b-da, 5, 2, 5, 5, 90, 165, 165, 90, 161, 88, 1, 1.13382
112, 3, wb, attraction, a-b-da, 5, 1, 5, 6, 135, 60, 60, 135, 132, 58, 3, 17.7022
112, 3, wb, attraction, a-b-da, 5, 1, 5, 6, 135, 60, 60, 135, 132, 58, 2, 0.451863
112, 3, wb, attraction, a-b-db, 5, 2, 5, 7, 90, 165, 165, 90, 88, 161, 3, 0.927824
112, 3, wb, attraction, a-b-db, 5, 2, 5, 7, 90, 165, 165, 90, 88, 161, 1, 0.497335
112, 3, wb, filler, NA, 999, 999, 5, 8, 140, 80, 93, 62, 156, 193, 2, 1.52312
112, 3, wb, filler, NA, 999, 999, 5, 8, 140, 80, 93, 62, 156, 193, 3, 0.804622
112, 3, wb, attraction, a-b-db, 9, 2, 5, 9, 90, 165, 86, 157, 165, 90, 3, 1.89041
112, 3, wb, attraction, a-b-db, 9, 2, 5, 9, 90, 165, 86, 157, 165, 90, 2, 1.87703
112, 3, wb, attraction, a-b-db, 9, 3, 5, 10, 114, 186, 195, 120, 120, 195, 1, 0.711037
112, 3, wb, attraction, a-b-db, 9, 3, 5, 10, 114, 186, 195, 120, 120, 195, 2, 0.337438
112, 3, wb, catch, NA, 999, 999, 5, 11, 165, 150, 128, 127, 67, 128, 3, 0.785947
112, 3, wb, catch, NA, 999, 999, 5, 11, 165, 150, 128, 127, 67, 128, 1, 0.545703
112, 3, wb, filler, NA, 999, 999, 5, 12, 86, 124, 120, 176, 148, 78, 1, 1.64942
112, 3, wb, filler, NA, 999, 999, 5, 12, 86, 124, 120, 176, 148, 78, 2, 0.630191
112, 3, wb, attraction, a-b-db, 14, 1, 5, 13, 135, 60, 56, 125, 60, 135, 3, 1.15461
112, 3, wb, attraction, a-b-db, 14, 1, 5, 13, 135, 60, 56, 125, 60, 135, 1, 0.626857
112, 3, wb, attraction, a-b-da, 2, 1, 5, 14, 134, 59, 60, 135, 135, 60, 2, 1.6633
112, 3, wb, attraction, a-b-da, 2, 1, 5, 14, 134, 59, 60, 135, 135, 60, 3, 0.563458
112, 3, wb, attraction, a-b-da, 9, 1, 5, 15, 60, 135, 135, 60, 129, 57, 1, 1.28264
112, 3, wb, attraction, a-b-da, 9, 1, 5, 15, 60, 135, 135, 60, 129, 57, 2, 0.72625
112, 3, wb, attraction, a-b-da, 14, 3, 5, 16, 120, 195, 195, 120, 181, 111, 3, 1.11852
112, 3, wb, attraction, a-b-da, 14, 3, 5, 16, 120, 195, 195, 120, 181, 111, 1, 0.456979
112, 3, wb, attraction, a-b-db, 5, 3, 5, 17, 117, 190, 120, 195, 195, 120, 1, 1.14789
112, 3, wb, attraction, a-b-db, 5, 3, 5, 17, 117, 190, 120, 195, 195, 120, 3, 0.572901
112, 3, wb, attraction, a-b-da, 9, 2, 5, 18, 165, 90, 157, 86, 90, 165, 2, 0.932075
112, 3, wb, attraction, a-b-da, 9, 2, 5, 18, 165, 90, 157, 86, 90, 165, 1, 1.03773
112, 3, wb, filler, NA, 999, 999, 5, 19, 182, 137, 147, 96, 134, 131, 2, 1.09805
112, 3, wb, filler, NA, 999, 999, 5, 19, 182, 137, 147, 96, 134, 131, 1, 0.396888
112, 3, wb, attraction, a-b-da, 14, 2, 5, 20, 165, 90, 90, 165, 153, 83, 3, 2.57073
112, 3, wb, attraction, a-b-da, 14, 2, 5, 20, 165, 90, 90, 165, 153, 83, 2, 0.514566
112, 3, wb, attraction, a-b-da, 2, 3, 5, 21, 120, 195, 193, 119, 195, 120, 3, 1.00371
112, 3, wb, attraction, a-b-da, 2, 3, 5, 21, 120, 195, 193, 119, 195, 120, 2, 0.562874
112, 3, wb, attraction, a-b-da, 14, 1, 5, 22, 60, 135, 135, 60, 125, 56, 3, 0.953803
112, 3, wb, attraction, a-b-da, 14, 1, 5, 22, 60, 135, 135, 60, 125, 56, 1, 0.474771
112, 3, wb, filler, NA, 999, 999, 5, 23, 189, 153, 173, 186, 188, 100, 3, 0.973286
112, 3, wb, filler, NA, 999, 999, 5, 23, 189, 153, 173, 186, 188, 100, 1, 0.796918
112, 3, wb, filler, NA, 999, 999, 5, 24, 92, 74, 118, 120, 90, 73, 1, 1.37065
112, 3, wb, filler, NA, 999, 999, 5, 24, 92, 74, 118, 120, 90, 73, 2, 0.402863
112, 3, wb, filler, NA, 999, 999, 5, 25, 95, 173, 58, 71, 70, 82, 2, 0.992831
112, 3, wb, filler, NA, 999, 999, 5, 25, 95, 173, 58, 71, 70, 82, 1, 0.383623
112, 3, wb, catch, NA, 999, 999, 5, 26, 93, 162, 185, 130, 86, 109, 3, 1.35032
112, 3, wb, catch, NA, 999, 999, 5, 26, 93, 162, 185, 130, 86, 109, 2, 0.455122
112, 3, wb, attraction, a-b-db, 9, 1, 5, 27, 135, 60, 60, 135, 57, 129, 3, 1.12279
112, 3, wb, attraction, a-b-db, 9, 1, 5, 27, 135, 60, 60, 135, 57, 129, 1, 0.59648
112, 3, wb, filler, NA, 999, 999, 5, 28, 130, 165, 173, 170, 183, 162, 1, 1.31424
112, 3, wb, filler, NA, 999, 999, 5, 28, 130, 165, 173, 170, 183, 162, 3, 0.64449
112, 3, wb, filler, NA, 999, 999, 5, 29, 195, 170, 155, 113, 69, 111, 3, 0.848228
112, 3, wb, filler, NA, 999, 999, 5, 29, 195, 170, 155, 113, 69, 111, 1, 0.597272
112, 3, wb, filler, NA, 999, 999, 5, 30, 172, 171, 142, 63, 178, 115, 2, 0.842919
112, 3, wb, filler, NA, 999, 999, 5, 30, 172, 171, 142, 63, 178, 115, 1, 1.01608
112, 3, wb, attraction, a-b-db, 2, 1, 5, 31, 60, 135, 135, 60, 59, 134, 1, 0.964946
112, 3, wb, attraction, a-b-db, 2, 1, 5, 31, 60, 135, 135, 60, 59, 134, 2, 0.997374
112, 3, wb, filler, NA, 999, 999, 5, 32, 136, 143, 84, 101, 194, 68, 2, 1.635
112, 3, wb, filler, NA, 999, 999, 5, 32, 136, 143, 84, 101, 194, 68, 1, 1.55239
112, 3, wb, catch, NA, 999, 999, 5, 33, 157, 158, 127, 128, 98, 97, 3, 1.31191
112, 3, wb, catch, NA, 999, 999, 5, 33, 157, 158, 127, 128, 98, 97, 1, 0.506028
112, 3, wb, attraction, a-b-da, 2, 2, 5, 34, 163, 89, 90, 165, 165, 90, 1, 1.21202
112, 3, wb, attraction, a-b-da, 2, 2, 5, 34, 163, 89, 90, 165, 165, 90, 2, 0.354079
112, 3, wb, attraction, a-b-db, 14, 3, 5, 35, 195, 120, 111, 181, 120, 195, 1, 2.67413
112, 3, wb, attraction, a-b-db, 14, 3, 5, 35, 195, 120, 111, 181, 120, 195, 3, 0.733111
112, 3, wb, attraction, a-b-da, 5, 3, 5, 36, 120, 195, 195, 120, 190, 117, 3, 1.41343
112, 3, wb, attraction, a-b-da, 5, 3, 5, 36, 120, 195, 195, 120, 190, 117, 1, 0.363575
112, 3, wb, attraction, a-b-db, 2, 3, 5, 37, 195, 120, 119, 193, 120, 195, 1, 0.890789
112, 3, wb, attraction, a-b-db, 2, 3, 5, 37, 195, 120, 119, 193, 120, 195, 3, 0.429834
112, 3, wb, attraction, a-b-da, 5, 3, 6, 1, 190, 117, 120, 195, 195, 120, 1, 0.570272
112, 3, wb, attraction, a-b-da, 5, 3, 6, 1, 190, 117, 120, 195, 195, 120, 3, 0.826825
112, 3, wb, attraction, a-b-db, 2, 2, 6, 2, 89, 163, 90, 165, 165, 90, 1, 1.03907
112, 3, wb, attraction, a-b-db, 2, 2, 6, 2, 89, 163, 90, 165, 165, 90, 3, 1.46009
112, 3, wb, filler, NA, 999, 999, 6, 3, 158, 135, 144, 186, 185, 181, 1, 0.718874
112, 3, wb, filler, NA, 999, 999, 6, 3, 158, 135, 144, 186, 185, 181, 3, 0.601419
112, 3, wb, filler, NA, 999, 999, 6, 4, 65, 64, 177, 121, 181, 150, 1, 0.551116
112, 3, wb, filler, NA, 999, 999, 6, 4, 65, 64, 177, 121, 181, 150, 3, 0.576252
112, 3, wb, attraction, a-b-db, 9, 3, 6, 5, 120, 195, 195, 120, 114, 186, 3, 1.28669
112, 3, wb, attraction, a-b-db, 9, 3, 6, 5, 120, 195, 195, 120, 114, 186, 1, 0.690247
112, 3, wb, filler, NA, 999, 999, 6, 6, 123, 158, 153, 114, 89, 87, 3, 0.907899
112, 3, wb, filler, NA, 999, 999, 6, 6, 123, 158, 153, 114, 89, 87, 1, 0.638314
112, 3, wb, attraction, a-b-da, 14, 3, 6, 7, 195, 120, 120, 195, 181, 111, 3, 1.06671
112, 3, wb, attraction, a-b-da, 14, 3, 6, 7, 195, 120, 120, 195, 181, 111, 1, 0.391131
112, 3, wb, attraction, a-b-da, 5, 1, 6, 8, 135, 60, 132, 58, 60, 135, 2, 0.6371
112, 3, wb, attraction, a-b-da, 5, 1, 6, 8, 135, 60, 132, 58, 60, 135, 1, 1.14664
112, 3, wb, attraction, a-b-db, 5, 2, 6, 9, 88, 161, 90, 165, 165, 90, 1, 1.46619
112, 3, wb, attraction, a-b-db, 5, 2, 6, 9, 88, 161, 90, 165, 165, 90, 3, 0.454371
112, 3, wb, filler, NA, 999, 999, 6, 10, 162, 78, 154, 86, 125, 182, 1, 3.2982
112, 3, wb, filler, NA, 999, 999, 6, 10, 162, 78, 154, 86, 125, 182, 3, 0.364585
112, 3, wb, attraction, a-b-da, 9, 2, 6, 11, 165, 90, 90, 165, 157, 86, 3, 1.10776
112, 3, wb, attraction, a-b-da, 9, 2, 6, 11, 165, 90, 90, 165, 157, 86, 1, 0.782035
112, 3, wb, filler, NA, 999, 999, 6, 12, 132, 60, 113, 62, 84, 88, 2, 0.652254
112, 3, wb, filler, NA, 999, 999, 6, 12, 132, 60, 113, 62, 84, 88, 1, 0.625383
112, 3, wb, attraction, a-b-db, 9, 1, 6, 13, 60, 135, 135, 60, 57, 129, 2, 1.04578
112, 3, wb, attraction, a-b-db, 9, 1, 6, 13, 60, 135, 135, 60, 57, 129, 1, 0.402778
112, 3, wb, catch, NA, 999, 999, 6, 14, 108, 147, 143, 172, 60, 135, 3, 0.784632
112, 3, wb, catch, NA, 999, 999, 6, 14, 108, 147, 143, 172, 60, 135, 2, 0.400416
112, 3, wb, attraction, a-b-da, 9, 1, 6, 15, 135, 60, 129, 57, 60, 135, 3, 0.638275
112, 3, wb, attraction, a-b-da, 9, 1, 6, 15, 135, 60, 129, 57, 60, 135, 1, 0.411339
112, 3, wb, attraction, a-b-db, 9, 2, 6, 16, 165, 90, 90, 165, 86, 157, 3, 0.680418
112, 3, wb, attraction, a-b-db, 9, 2, 6, 16, 165, 90, 90, 165, 86, 157, 1, 0.596242
112, 3, wb, filler, NA, 999, 999, 6, 17, 62, 61, 99, 139, 161, 177, 1, 0.609836
112, 3, wb, filler, NA, 999, 999, 6, 17, 62, 61, 99, 139, 161, 177, 3, 0.288372
112, 3, wb, attraction, a-b-db, 5, 3, 6, 18, 117, 190, 195, 120, 120, 195, 2, 0.778897
112, 3, wb, attraction, a-b-db, 5, 3, 6, 18, 117, 190, 195, 120, 120, 195, 1, 0.290615
112, 3, wb, attraction, a-b-db, 14, 2, 6, 19, 90, 165, 165, 90, 83, 153, 2, 0.508475
112, 3, wb, attraction, a-b-db, 14, 2, 6, 19, 90, 165, 165, 90, 83, 153, 1, 0.350935
112, 3, wb, attraction, a-b-db, 2, 1, 6, 20, 59, 134, 135, 60, 60, 135, 2, 0.614767
112, 3, wb, attraction, a-b-db, 2, 1, 6, 20, 59, 134, 135, 60, 60, 135, 1, 0.45324
112, 3, wb, attraction, a-b-da, 5, 2, 6, 21, 165, 90, 90, 165, 161, 88, 1, 2.08101
112, 3, wb, attraction, a-b-da, 5, 2, 6, 21, 165, 90, 90, 165, 161, 88, 2, 0.612335
112, 3, wb, catch, NA, 999, 999, 6, 22, 133, 182, 148, 107, 92, 103, 3, 0.761384
112, 3, wb, catch, NA, 999, 999, 6, 22, 133, 182, 148, 107, 92, 103, 1, 0.433852
112, 3, wb, attraction, a-b-db, 14, 3, 6, 23, 120, 195, 111, 181, 195, 120, 1, 1.39038
112, 3, wb, attraction, a-b-db, 14, 3, 6, 23, 120, 195, 111, 181, 195, 120, 3, 0.397278
112, 3, wb, attraction, a-b-da, 2, 1, 6, 24, 134, 59, 60, 135, 135, 60, 1, 1.62705
112, 3, wb, attraction, a-b-da, 2, 1, 6, 24, 134, 59, 60, 135, 135, 60, 2, 0.584545
112, 3, wb, filler, NA, 999, 999, 6, 25, 112, 114, 158, 104, 117, 158, 1, 1.0229
112, 3, wb, filler, NA, 999, 999, 6, 25, 112, 114, 158, 104, 117, 158, 3, 0.460618
112, 3, wb, filler, NA, 999, 999, 6, 26, 140, 138, 155, 84, 185, 72, 2, 1.10383
112, 3, wb, filler, NA, 999, 999, 6, 26, 140, 138, 155, 84, 185, 72, 1, 0.306681
112, 3, wb, attraction, a-b-da, 14, 2, 6, 27, 153, 83, 165, 90, 90, 165, 3, 0.859797
112, 3, wb, attraction, a-b-da, 14, 2, 6, 27, 153, 83, 165, 90, 90, 165, 1, 0.544155
112, 3, wb, attraction, a-b-db, 14, 1, 6, 28, 56, 125, 60, 135, 135, 60, 1, 0.767861
112, 3, wb, attraction, a-b-db, 14, 1, 6, 28, 56, 125, 60, 135, 135, 60, 3, 0.552364
112, 3, wb, filler, NA, 999, 999, 6, 29, 69, 170, 174, 141, 63, 178, 1, 8.29625
112, 3, wb, filler, NA, 999, 999, 6, 29, 69, 170, 174, 141, 63, 178, 2, 0.888995
112, 3, wb, attraction, a-b-db, 5, 1, 6, 30, 135, 60, 58, 132, 60, 135, 2, 1.70719
112, 3, wb, attraction, a-b-db, 5, 1, 6, 30, 135, 60, 58, 132, 60, 135, 1, 0.373194
112, 3, wb, attraction, a-b-da, 9, 3, 6, 31, 195, 120, 120, 195, 186, 114, 2, 0.908434
112, 3, wb, attraction, a-b-da, 9, 3, 6, 31, 195, 120, 120, 195, 186, 114, 1, 0.302832
112, 3, wb, filler, NA, 999, 999, 6, 32, 107, 147, 182, 95, 145, 80, 3, 1.80069
112, 3, wb, filler, NA, 999, 999, 6, 32, 107, 147, 182, 95, 145, 80, 1, 1.06343
112, 3, wb, attraction, a-b-da, 14, 1, 6, 33, 60, 135, 135, 60, 125, 56, 1, 1.0903
112, 3, wb, attraction, a-b-da, 14, 1, 6, 33, 60, 135, 135, 60, 125, 56, 2, 0.613369
112, 3, wb, catch, NA, 999, 999, 6, 34, 171, 144, 126, 129, 62, 133, 3, 0.698378
112, 3, wb, catch, NA, 999, 999, 6, 34, 171, 144, 126, 129, 62, 133, 1, 0.493469
112, 3, wb, attraction, a-b-da, 2, 3, 6, 35, 195, 120, 120, 195, 193, 119, 3, 1.37525
112, 3, wb, attraction, a-b-da, 2, 3, 6, 35, 195, 120, 120, 195, 193, 119, 2, 0.98278
112, 3, wb, attraction, a-b-db, 2, 3, 6, 36, 119, 193, 120, 195, 195, 120, 1, 1.98902
112, 3, wb, attraction, a-b-db, 2, 3, 6, 36, 119, 193, 120, 195, 195, 120, 3, 0.45173
112, 3, wb, attraction, a-b-da, 2, 2, 6, 37, 163, 89, 165, 90, 90, 165, 1, 1.35155
112, 3, wb, attraction, a-b-da, 2, 2, 6, 37, 163, 89, 165, 90, 90, 165, 3, 0.904481
112, 3, wb, attraction, a-b-db, 5, 3, 7, 1, 117, 190, 195, 120, 120, 195, 1, 1.58612
112, 3, wb, attraction, a-b-db, 5, 3, 7, 1, 117, 190, 195, 120, 120, 195, 2, 0.657641
112, 3, wb, attraction, a-b-da, 9, 1, 7, 2, 135, 60, 60, 135, 129, 57, 1, 0.90869
112, 3, wb, attraction, a-b-da, 9, 1, 7, 2, 135, 60, 60, 135, 129, 57, 2, 0.399014
112, 3, wb, filler, NA, 999, 999, 7, 3, 170, 68, 168, 113, 110, 90, 3, 1.63691
112, 3, wb, filler, NA, 999, 999, 7, 3, 170, 68, 168, 113, 110, 90, 2, 3.19436
112, 3, wb, attraction, a-b-db, 2, 3, 7, 4, 195, 120, 119, 193, 120, 195, 1, 1.15127
112, 3, wb, attraction, a-b-db, 2, 3, 7, 4, 195, 120, 119, 193, 120, 195, 3, 0.824225
112, 3, wb, filler, NA, 999, 999, 7, 5, 161, 87, 176, 110, 117, 128, 1, 4.48475
112, 3, wb, filler, NA, 999, 999, 7, 5, 161, 87, 176, 110, 117, 128, 2, 0.615147
112, 3, wb, catch, NA, 999, 999, 7, 6, 125, 130, 179, 136, 77, 118, 3, 1.93216
112, 3, wb, catch, NA, 999, 999, 7, 6, 125, 130, 179, 136, 77, 118, 2, 0.629506
112, 3, wb, filler, NA, 999, 999, 7, 7, 113, 154, 87, 113, 152, 67, 3, 2.18607
112, 3, wb, filler, NA, 999, 999, 7, 7, 113, 154, 87, 113, 152, 67, 1, 0.745251
112, 3, wb, attraction, a-b-da, 2, 2, 7, 8, 163, 89, 165, 90, 90, 165, 1, 3.20095
112, 3, wb, attraction, a-b-da, 2, 2, 7, 8, 163, 89, 165, 90, 90, 165, 3, 1.27125
112, 3, wb, catch, NA, 999, 999, 7, 9, 64, 131, 128, 127, 189, 126, 1, 0.818072
112, 3, wb, catch, NA, 999, 999, 7, 9, 64, 131, 128, 127, 189, 126, 3, 0.632545
112, 3, wb, attraction, a-b-da, 5, 1, 7, 10, 135, 60, 60, 135, 132, 58, 1, 1.18103
112, 3, wb, attraction, a-b-da, 5, 1, 7, 10, 135, 60, 60, 135, 132, 58, 2, 0.54061
112, 3, wb, attraction, a-b-da, 14, 3, 7, 11, 120, 195, 195, 120, 181, 111, 3, 3.40435
112, 3, wb, attraction, a-b-da, 14, 3, 7, 11, 120, 195, 195, 120, 181, 111, 1, 0.586608
112, 3, wb, attraction, a-b-db, 5, 1, 7, 12, 135, 60, 60, 135, 58, 132, 1, 1.25694
112, 3, wb, attraction, a-b-db, 5, 1, 7, 12, 135, 60, 60, 135, 58, 132, 2, 0.773457
112, 3, wb, filler, NA, 999, 999, 7, 13, 64, 127, 62, 164, 73, 177, 1, 0.771739
112, 3, wb, filler, NA, 999, 999, 7, 13, 64, 127, 62, 164, 73, 177, 3, 0.467493
112, 3, wb, attraction, a-b-db, 9, 1, 7, 14, 57, 129, 135, 60, 60, 135, 1, 0.814586
112, 3, wb, attraction, a-b-db, 9, 1, 7, 14, 57, 129, 135, 60, 60, 135, 2, 0.372874
112, 3, wb, filler, NA, 999, 999, 7, 15, 172, 177, 156, 107, 133, 98, 3, 1.15605
112, 3, wb, filler, NA, 999, 999, 7, 15, 172, 177, 156, 107, 133, 98, 1, 0.428385
112, 3, wb, filler, NA, 999, 999, 7, 16, 138, 65, 83, 108, 122, 100, 1, 1.24886
112, 3, wb, filler, NA, 999, 999, 7, 16, 138, 65, 83, 108, 122, 100, 3, 0.549807
112, 3, wb, attraction, a-b-da, 2, 3, 7, 17, 120, 195, 193, 119, 195, 120, 1, 3.72538
112, 3, wb, attraction, a-b-da, 2, 3, 7, 17, 120, 195, 193, 119, 195, 120, 3, 0.43023
112, 3, wb, attraction, a-b-da, 5, 3, 7, 18, 190, 117, 195, 120, 120, 195, 1, 1.53868
112, 3, wb, attraction, a-b-da, 5, 3, 7, 18, 190, 117, 195, 120, 120, 195, 3, 0.411531
112, 3, wb, attraction, a-b-db, 2, 1, 7, 19, 60, 135, 135, 60, 59, 134, 2, 0.808769
112, 3, wb, attraction, a-b-db, 2, 1, 7, 19, 60, 135, 135, 60, 59, 134, 1, 0.735216
112, 3, wb, attraction, a-b-db, 9, 3, 7, 20, 195, 120, 120, 195, 114, 186, 3, 0.879568
112, 3, wb, attraction, a-b-db, 9, 3, 7, 20, 195, 120, 120, 195, 114, 186, 1, 0.443206
112, 3, wb, attraction, a-b-da, 9, 2, 7, 21, 165, 90, 90, 165, 157, 86, 3, 4.71107
112, 3, wb, attraction, a-b-da, 9, 2, 7, 21, 165, 90, 90, 165, 157, 86, 2, 2.52831
112, 3, wb, attraction, a-b-db, 14, 3, 7, 22, 195, 120, 120, 195, 111, 181, 3, 1.64797
112, 3, wb, attraction, a-b-db, 14, 3, 7, 22, 195, 120, 120, 195, 111, 181, 1, 1.37273
112, 3, wb, attraction, a-b-db, 14, 1, 7, 23, 56, 125, 60, 135, 135, 60, 1, 1.84369
112, 3, wb, attraction, a-b-db, 14, 1, 7, 23, 56, 125, 60, 135, 135, 60, 3, 0.864344
112, 3, wb, attraction, a-b-db, 14, 2, 7, 24, 83, 153, 165, 90, 90, 165, 1, 1.23549
112, 3, wb, attraction, a-b-db, 14, 2, 7, 24, 83, 153, 165, 90, 90, 165, 2, 0.376949
112, 3, wb, attraction, a-b-da, 5, 2, 7, 25, 161, 88, 165, 90, 90, 165, 3, 2.09554
112, 3, wb, attraction, a-b-da, 5, 2, 7, 25, 161, 88, 165, 90, 90, 165, 1, 0.594034
112, 3, wb, filler, NA, 999, 999, 7, 26, 168, 148, 183, 64, 165, 69, 2, 1.27995
112, 3, wb, filler, NA, 999, 999, 7, 26, 168, 148, 183, 64, 165, 69, 1, 0.555477
112, 3, wb, filler, NA, 999, 999, 7, 27, 61, 61, 56, 161, 113, 62, 1, 1.0192
112, 3, wb, filler, NA, 999, 999, 7, 27, 61, 61, 56, 161, 113, 62, 2, 0.713477
112, 3, wb, attraction, a-b-da, 2, 1, 7, 28, 60, 135, 135, 60, 134, 59, 1, 4.61858
112, 3, wb, attraction, a-b-da, 2, 1, 7, 28, 60, 135, 135, 60, 134, 59, 2, 0.735729
112, 3, wb, attraction, a-b-db, 2, 2, 7, 29, 165, 90, 89, 163, 90, 165, 3, 4.60016
112, 3, wb, attraction, a-b-db, 2, 2, 7, 29, 165, 90, 89, 163, 90, 165, 1, 0.493985
112, 3, wb, catch, NA, 999, 999, 7, 30, 151, 164, 122, 73, 133, 122, 2, 1.23181
112, 3, wb, catch, NA, 999, 999, 7, 30, 151, 164, 122, 73, 133, 122, 1, 0.597333
112, 3, wb, attraction, a-b-da, 9, 3, 7, 31, 195, 120, 120, 195, 186, 114, 2, 1.6511
112, 3, wb, attraction, a-b-da, 9, 3, 7, 31, 195, 120, 120, 195, 186, 114, 1, 0.615888
112, 3, wb, attraction, a-b-db, 9, 2, 7, 32, 86, 157, 90, 165, 165, 90, 1, 1.22094
112, 3, wb, attraction, a-b-db, 9, 2, 7, 32, 86, 157, 90, 165, 165, 90, 2, 1.19526
112, 3, wb, filler, NA, 999, 999, 7, 33, 167, 99, 124, 171, 173, 155, 1, 0.880906
112, 3, wb, filler, NA, 999, 999, 7, 33, 167, 99, 124, 171, 173, 155, 3, 0.724597
112, 3, wb, attraction, a-b-db, 5, 2, 7, 34, 90, 165, 165, 90, 88, 161, 1, 0.844994
112, 3, wb, attraction, a-b-db, 5, 2, 7, 34, 90, 165, 165, 90, 88, 161, 2, 0.458029
112, 3, wb, attraction, a-b-da, 14, 2, 7, 35, 153, 83, 90, 165, 165, 90, 1, 1.08515
112, 3, wb, attraction, a-b-da, 14, 2, 7, 35, 153, 83, 90, 165, 165, 90, 2, 1.04871
112, 3, wb, filler, NA, 999, 999, 7, 36, 82, 120, 109, 186, 169, 129, 1, 0.820297
112, 3, wb, filler, NA, 999, 999, 7, 36, 82, 120, 109, 186, 169, 129, 3, 3.23477
112, 3, wb, attraction, a-b-da, 14, 1, 7, 37, 125, 56, 135, 60, 60, 135, 1, 0.806387
112, 3, wb, attraction, a-b-da, 14, 1, 7, 37, 125, 56, 135, 60, 60, 135, 2, 0.596656
112, 3, wb, attraction, a-b-db, 14, 1, 8, 1, 60, 135, 56, 125, 135, 60, 2, 1.22648
112, 3, wb, attraction, a-b-db, 14, 1, 8, 1, 60, 135, 56, 125, 135, 60, 3, 0.576021
112, 3, wb, filler, NA, 999, 999, 8, 2, 178, 139, 127, 163, 134, 171, 2, 6.30243
112, 3, wb, filler, NA, 999, 999, 8, 2, 178, 139, 127, 163, 134, 171, 1, 0.487722
112, 3, wb, attraction, a-b-da, 2, 1, 8, 3, 135, 60, 60, 135, 134, 59, 2, 1.03426
112, 3, wb, attraction, a-b-da, 2, 1, 8, 3, 135, 60, 60, 135, 134, 59, 1, 0.784045
112, 3, wb, attraction, a-b-da, 5, 2, 8, 4, 161, 88, 90, 165, 165, 90, 2, 1.08633
112, 3, wb, attraction, a-b-da, 5, 2, 8, 4, 161, 88, 90, 165, 165, 90, 3, 0.809979
112, 3, wb, filler, NA, 999, 999, 8, 5, 125, 110, 128, 151, 186, 62, 3, 1.11899
112, 3, wb, filler, NA, 999, 999, 8, 5, 125, 110, 128, 151, 186, 62, 2, 0.457285
112, 3, wb, attraction, a-b-db, 5, 2, 8, 6, 90, 165, 165, 90, 88, 161, 3, 1.99631
112, 3, wb, attraction, a-b-db, 5, 2, 8, 6, 90, 165, 165, 90, 88, 161, 1, 0.539154
112, 3, wb, filler, NA, 999, 999, 8, 7, 185, 156, 144, 71, 191, 143, 2, 0.787462
112, 3, wb, filler, NA, 999, 999, 8, 7, 185, 156, 144, 71, 191, 143, 1, 0.683306
112, 3, wb, attraction, a-b-db, 2, 3, 8, 8, 120, 195, 119, 193, 195, 120, 1, 5.20566
112, 3, wb, attraction, a-b-db, 2, 3, 8, 8, 120, 195, 119, 193, 195, 120, 3, 0.562773
112, 3, wb, filler, NA, 999, 999, 8, 9, 79, 81, 145, 68, 83, 165, 1, 1.2417
112, 3, wb, filler, NA, 999, 999, 8, 9, 79, 81, 145, 68, 83, 165, 3, 0.582616
112, 3, wb, attraction, a-b-da, 9, 2, 8, 10, 165, 90, 157, 86, 90, 165, 2, 2.3011
112, 3, wb, attraction, a-b-da, 9, 2, 8, 10, 165, 90, 157, 86, 90, 165, 3, 0.91966
112, 3, wb, attraction, a-b-db, 2, 1, 8, 11, 135, 60, 59, 134, 60, 135, 3, 1.5047
112, 3, wb, attraction, a-b-db, 2, 1, 8, 11, 135, 60, 59, 134, 60, 135, 2, 0.539528
112, 3, wb, attraction, a-b-db, 9, 1, 8, 12, 57, 129, 60, 135, 135, 60, 1, 0.803914
112, 3, wb, attraction, a-b-db, 9, 1, 8, 12, 57, 129, 60, 135, 135, 60, 3, 1.01908
112, 3, wb, catch, NA, 999, 999, 8, 13, 172, 143, 91, 104, 94, 161, 2, 0.872036
112, 3, wb, catch, NA, 999, 999, 8, 13, 172, 143, 91, 104, 94, 161, 1, 0.579622
112, 3, wb, filler, NA, 999, 999, 8, 14, 86, 95, 168, 98, 92, 193, 1, 0.602024
112, 3, wb, filler, NA, 999, 999, 8, 14, 86, 95, 168, 98, 92, 193, 3, 1.06532
112, 3, wb, attraction, a-b-da, 14, 1, 8, 15, 125, 56, 135, 60, 60, 135, 1, 10.4361
112, 3, wb, attraction, a-b-da, 14, 1, 8, 15, 125, 56, 135, 60, 60, 135, 2, 0.422883
112, 3, wb, attraction, a-b-db, 2, 2, 8, 16, 90, 165, 165, 90, 89, 163, 1, 0.916202
112, 3, wb, attraction, a-b-db, 2, 2, 8, 16, 90, 165, 165, 90, 89, 163, 2, 0.966388
112, 3, wb, catch, NA, 999, 999, 8, 17, 71, 124, 184, 131, 143, 112, 1, 0.629369
112, 3, wb, catch, NA, 999, 999, 8, 17, 71, 124, 184, 131, 143, 112, 2, 0.427093
112, 3, wb, attraction, a-b-db, 14, 3, 8, 18, 195, 120, 120, 195, 111, 181, 3, 1.43954
112, 3, wb, attraction, a-b-db, 14, 3, 8, 18, 195, 120, 120, 195, 111, 181, 2, 0.612508
112, 3, wb, filler, NA, 999, 999, 8, 19, 150, 140, 119, 113, 95, 144, 2, 5.59352
112, 3, wb, filler, NA, 999, 999, 8, 19, 150, 140, 119, 113, 95, 144, 1, 0.334965
112, 3, wb, attraction, a-b-da, 9, 1, 8, 20, 129, 57, 135, 60, 60, 135, 2, 0.655571
112, 3, wb, attraction, a-b-da, 9, 1, 8, 20, 129, 57, 135, 60, 60, 135, 3, 0.756086
112, 3, wb, attraction, a-b-db, 9, 3, 8, 21, 195, 120, 114, 186, 120, 195, 1, 0.587609
112, 3, wb, attraction, a-b-db, 9, 3, 8, 21, 195, 120, 114, 186, 120, 195, 2, 0.283633
112, 3, wb, filler, NA, 999, 999, 8, 22, 191, 190, 143, 62, 174, 76, 2, 0.493948
112, 3, wb, filler, NA, 999, 999, 8, 22, 191, 190, 143, 62, 174, 76, 1, 0.233231
112, 3, wb, filler, NA, 999, 999, 8, 23, 94, 103, 162, 139, 98, 142, 1, 0.861758
112, 3, wb, filler, NA, 999, 999, 8, 23, 94, 103, 162, 139, 98, 142, 2, 0.202187
112, 3, wb, attraction, a-b-da, 2, 2, 8, 24, 90, 165, 163, 89, 165, 90, 1, 0.67196
112, 3, wb, attraction, a-b-da, 2, 2, 8, 24, 90, 165, 163, 89, 165, 90, 2, 0.179758
112, 3, wb, attraction, a-b-da, 5, 3, 8, 25, 195, 120, 120, 195, 190, 117, 1, 0.722287
112, 3, wb, attraction, a-b-da, 5, 3, 8, 25, 195, 120, 120, 195, 190, 117, 2, 0.220042
112, 3, wb, attraction, a-b-da, 14, 3, 8, 26, 181, 111, 120, 195, 195, 120, 1, 0.689217
112, 3, wb, attraction, a-b-da, 14, 3, 8, 26, 181, 111, 120, 195, 195, 120, 3, 1.10649
112, 3, wb, attraction, a-b-da, 2, 3, 8, 27, 195, 120, 193, 119, 120, 195, 3, 1.47721
112, 3, wb, attraction, a-b-da, 2, 3, 8, 27, 195, 120, 193, 119, 120, 195, 1, 0.648677
112, 3, wb, attraction, a-b-da, 9, 3, 8, 28, 186, 114, 195, 120, 120, 195, 1, 0.468565
112, 3, wb, attraction, a-b-da, 9, 3, 8, 28, 186, 114, 195, 120, 120, 195, 2, 0.352954
112, 3, wb, attraction, a-b-db, 14, 2, 8, 29, 83, 153, 165, 90, 90, 165, 2, 0.496836
112, 3, wb, attraction, a-b-db, 14, 2, 8, 29, 83, 153, 165, 90, 90, 165, 3, 0.316005
112, 3, wb, attraction, a-b-db, 5, 3, 8, 30, 195, 120, 120, 195, 117, 190, 2, 0.517066
112, 3, wb, attraction, a-b-db, 5, 3, 8, 30, 195, 120, 120, 195, 117, 190, 1, 0.671683
112, 3, wb, catch, NA, 999, 999, 8, 31, 187, 128, 153, 102, 76, 119, 3, 1.06673
112, 3, wb, catch, NA, 999, 999, 8, 31, 187, 128, 153, 102, 76, 119, 1, 0.311096
112, 3, wb, attraction, a-b-da, 14, 2, 8, 32, 90, 165, 165, 90, 153, 83, 1, 0.8563
112, 3, wb, attraction, a-b-da, 14, 2, 8, 32, 90, 165, 165, 90, 153, 83, 2, 0.452501
112, 3, wb, filler, NA, 999, 999, 8, 33, 57, 71, 170, 142, 87, 101, 1, 1.2083
112, 3, wb, filler, NA, 999, 999, 8, 33, 57, 71, 170, 142, 87, 101, 2, 0.326578
112, 3, wb, attraction, a-b-db, 5, 1, 8, 34, 60, 135, 58, 132, 135, 60, 2, 0.967215
112, 3, wb, attraction, a-b-db, 5, 1, 8, 34, 60, 135, 58, 132, 135, 60, 1, 0.335579
112, 3, wb, attraction, a-b-db, 9, 2, 8, 35, 86, 157, 165, 90, 90, 165, 2, 0.663891
112, 3, wb, attraction, a-b-db, 9, 2, 8, 35, 86, 157, 165, 90, 90, 165, 3, 0.52436
112, 3, wb, filler, NA, 999, 999, 8, 36, 130, 129, 167, 78, 71, 96, 3, 0.900911
112, 3, wb, filler, NA, 999, 999, 8, 36, 130, 129, 167, 78, 71, 96, 1, 0.70388
112, 3, wb, attraction, a-b-da, 5, 1, 8, 37, 135, 60, 60, 135, 132, 58, 3, 1.03361
112, 3, wb, attraction, a-b-da, 5, 1, 8, 37, 135, 60, 60, 135, 132, 58, 1, 0.567251
