sub_n, computer_n, bw_cond, effect, set, distance, diag, block_n, trial_n, h1, w1, h2, w2, h3, w3, choice, rt 
114, 3, wb, practice, NA, 999, 999, 0, 1, 94, 171, 177, 128, 182, 138, 1, 4.85116
114, 3, wb, practice, NA, 999, 999, 0, 1, 94, 171, 177, 128, 182, 138, 3, 4.50301
114, 3, wb, practice, NA, 999, 999, 0, 2, 167, 73, 58, 122, 181, 98, 2, 3.82751
114, 3, wb, practice, NA, 999, 999, 0, 2, 167, 73, 58, 122, 181, 98, 3, 5.22327
114, 3, wb, practice, NA, 999, 999, 0, 3, 133, 153, 66, 80, 185, 95, 2, 2.81615
114, 3, wb, practice, NA, 999, 999, 0, 3, 133, 153, 66, 80, 185, 95, 1, 7.02321
114, 3, wb, filler, NA, 999, 999, 1, 1, 166, 147, 133, 186, 169, 57, 3, 3.67566
114, 3, wb, filler, NA, 999, 999, 1, 1, 166, 147, 133, 186, 169, 57, 2, 2.79041
114, 3, wb, filler, NA, 999, 999, 1, 2, 156, 56, 182, 156, 139, 149, 1, 2.32418
114, 3, wb, filler, NA, 999, 999, 1, 2, 156, 56, 182, 156, 139, 149, 2, 1.37341
114, 3, wb, attraction, a-b-da, 5, 3, 1, 3, 190, 117, 195, 120, 120, 195, 3, 9.97231
114, 3, wb, attraction, a-b-da, 5, 3, 1, 3, 190, 117, 195, 120, 120, 195, 2, 2.99385
114, 3, wb, attraction, a-b-db, 5, 2, 1, 4, 88, 161, 90, 165, 165, 90, 3, 8.86278
114, 3, wb, attraction, a-b-db, 5, 2, 1, 4, 88, 161, 90, 165, 165, 90, 2, 1.66466
114, 3, wb, catch, NA, 999, 999, 1, 5, 106, 89, 188, 127, 92, 163, 1, 1.87542
114, 3, wb, catch, NA, 999, 999, 1, 5, 106, 89, 188, 127, 92, 163, 2, 0.854946
114, 3, wb, attraction, a-b-db, 9, 3, 1, 6, 195, 120, 120, 195, 114, 186, 3, 7.5866
114, 3, wb, attraction, a-b-db, 9, 3, 1, 6, 195, 120, 120, 195, 114, 186, 2, 0.880097
114, 3, wb, filler, NA, 999, 999, 1, 7, 183, 117, 69, 120, 112, 132, 2, 1.69836
114, 3, wb, filler, NA, 999, 999, 1, 7, 183, 117, 69, 120, 112, 132, 1, 0.765271
114, 3, wb, attraction, a-b-db, 2, 1, 1, 8, 60, 135, 59, 134, 135, 60, 3, 13.5403
114, 3, wb, attraction, a-b-db, 2, 1, 1, 8, 60, 135, 59, 134, 135, 60, 1, 0.921997
114, 3, wb, attraction, a-b-da, 9, 1, 1, 9, 60, 135, 135, 60, 129, 57, 2, 7.16289
114, 3, wb, attraction, a-b-da, 9, 1, 1, 9, 60, 135, 135, 60, 129, 57, 1, 0.689417
114, 3, wb, attraction, a-b-da, 2, 1, 1, 10, 134, 59, 60, 135, 135, 60, 1, 4.21987
114, 3, wb, attraction, a-b-da, 2, 1, 1, 10, 134, 59, 60, 135, 135, 60, 2, 0.68908
114, 3, wb, attraction, a-b-db, 2, 3, 1, 11, 120, 195, 195, 120, 119, 193, 3, 3.37152
114, 3, wb, attraction, a-b-db, 2, 3, 1, 11, 120, 195, 195, 120, 119, 193, 1, 0.77917
114, 3, wb, attraction, a-b-da, 2, 2, 1, 12, 163, 89, 90, 165, 165, 90, 1, 3.45739
114, 3, wb, attraction, a-b-da, 2, 2, 1, 12, 163, 89, 90, 165, 165, 90, 2, 0.501034
114, 3, wb, attraction, a-b-da, 2, 3, 1, 13, 195, 120, 193, 119, 120, 195, 2, 3.19873
114, 3, wb, attraction, a-b-da, 2, 3, 1, 13, 195, 120, 193, 119, 120, 195, 3, 0.477146
114, 3, wb, catch, NA, 999, 999, 1, 14, 182, 133, 91, 104, 148, 107, 2, 1.33553
114, 3, wb, catch, NA, 999, 999, 1, 14, 182, 133, 91, 104, 148, 107, 1, 0.473122
114, 3, wb, filler, NA, 999, 999, 1, 15, 87, 192, 157, 138, 114, 89, 3, 1.3242
114, 3, wb, filler, NA, 999, 999, 1, 15, 87, 192, 157, 138, 114, 89, 2, 0.341789
114, 3, wb, attraction, a-b-da, 5, 1, 1, 16, 135, 60, 60, 135, 132, 58, 3, 6.62164
114, 3, wb, attraction, a-b-da, 5, 1, 1, 16, 135, 60, 60, 135, 132, 58, 1, 1.29015
114, 3, wb, attraction, a-b-db, 9, 1, 1, 17, 60, 135, 57, 129, 135, 60, 2, 2.05172
114, 3, wb, attraction, a-b-db, 9, 1, 1, 17, 60, 135, 57, 129, 135, 60, 3, 3.30445
114, 3, wb, attraction, a-b-da, 14, 2, 1, 18, 153, 83, 90, 165, 165, 90, 1, 2.59337
114, 3, wb, attraction, a-b-da, 14, 2, 1, 18, 153, 83, 90, 165, 165, 90, 2, 2.57586
114, 3, wb, attraction, a-b-da, 14, 3, 1, 19, 120, 195, 195, 120, 181, 111, 3, 2.35776
114, 3, wb, attraction, a-b-da, 14, 3, 1, 19, 120, 195, 195, 120, 181, 111, 1, 0.78153
114, 3, wb, attraction, a-b-db, 5, 3, 1, 20, 120, 195, 195, 120, 117, 190, 2, 3.30787
114, 3, wb, attraction, a-b-db, 5, 3, 1, 20, 120, 195, 195, 120, 117, 190, 1, 0.405611
114, 3, wb, attraction, a-b-db, 9, 2, 1, 21, 165, 90, 90, 165, 86, 157, 3, 0.851295
114, 3, wb, attraction, a-b-db, 9, 2, 1, 21, 165, 90, 90, 165, 86, 157, 2, 3.97645
114, 3, wb, filler, NA, 999, 999, 1, 22, 149, 80, 66, 70, 131, 149, 2, 0.669641
114, 3, wb, filler, NA, 999, 999, 1, 22, 149, 80, 66, 70, 131, 149, 3, 0.481427
114, 3, wb, attraction, a-b-db, 14, 3, 1, 23, 195, 120, 120, 195, 111, 181, 3, 1.98791
114, 3, wb, attraction, a-b-db, 14, 3, 1, 23, 195, 120, 120, 195, 111, 181, 1, 1.29934
114, 3, wb, catch, NA, 999, 999, 1, 24, 108, 87, 165, 150, 139, 116, 1, 1.1168
114, 3, wb, catch, NA, 999, 999, 1, 24, 108, 87, 165, 150, 139, 116, 2, 0.383043
114, 3, wb, filler, NA, 999, 999, 1, 25, 117, 119, 184, 129, 187, 80, 1, 1.09361
114, 3, wb, filler, NA, 999, 999, 1, 25, 117, 119, 184, 129, 187, 80, 2, 0.392486
114, 3, wb, filler, NA, 999, 999, 1, 26, 128, 121, 134, 99, 78, 154, 3, 4.72629
114, 3, wb, filler, NA, 999, 999, 1, 26, 128, 121, 134, 99, 78, 154, 1, 0.558824
114, 3, wb, attraction, a-b-da, 9, 2, 1, 27, 90, 165, 157, 86, 165, 90, 3, 3.65398
114, 3, wb, attraction, a-b-da, 9, 2, 1, 27, 90, 165, 157, 86, 165, 90, 1, 0.370144
114, 3, wb, attraction, a-b-db, 5, 1, 1, 28, 60, 135, 135, 60, 58, 132, 2, 2.52935
114, 3, wb, attraction, a-b-db, 5, 1, 1, 28, 60, 135, 135, 60, 58, 132, 1, 1.0745
114, 3, wb, attraction, a-b-db, 2, 2, 1, 29, 89, 163, 90, 165, 165, 90, 1, 6.52487
114, 3, wb, attraction, a-b-db, 2, 2, 1, 29, 89, 163, 90, 165, 165, 90, 2, 1.61277
114, 3, wb, filler, NA, 999, 999, 1, 30, 72, 153, 177, 154, 85, 58, 3, 1.51354
114, 3, wb, filler, NA, 999, 999, 1, 30, 72, 153, 177, 154, 85, 58, 2, 0.427716
114, 3, wb, attraction, a-b-da, 9, 3, 1, 31, 195, 120, 186, 114, 120, 195, 2, 2.49622
114, 3, wb, attraction, a-b-da, 9, 3, 1, 31, 195, 120, 186, 114, 120, 195, 3, 0.538594
114, 3, wb, attraction, a-b-da, 14, 1, 1, 32, 125, 56, 60, 135, 135, 60, 1, 3.01901
114, 3, wb, attraction, a-b-da, 14, 1, 1, 32, 125, 56, 60, 135, 135, 60, 2, 0.52869
114, 3, wb, filler, NA, 999, 999, 1, 33, 154, 83, 153, 145, 159, 63, 3, 2.58519
114, 3, wb, filler, NA, 999, 999, 1, 33, 154, 83, 153, 145, 159, 63, 2, 0.472306
114, 3, wb, filler, NA, 999, 999, 1, 34, 106, 135, 85, 169, 112, 57, 3, 1.17145
114, 3, wb, filler, NA, 999, 999, 1, 34, 106, 135, 85, 169, 112, 57, 2, 0.707761
114, 3, wb, attraction, a-b-db, 14, 2, 1, 35, 90, 165, 83, 153, 165, 90, 2, 3.88482
114, 3, wb, attraction, a-b-db, 14, 2, 1, 35, 90, 165, 83, 153, 165, 90, 1, 0.47157
114, 3, wb, attraction, a-b-db, 14, 1, 1, 36, 135, 60, 60, 135, 56, 125, 1, 2.50676
114, 3, wb, attraction, a-b-db, 14, 1, 1, 36, 135, 60, 60, 135, 56, 125, 2, 0.516573
114, 3, wb, attraction, a-b-da, 5, 2, 1, 37, 165, 90, 90, 165, 161, 88, 3, 4.06179
114, 3, wb, attraction, a-b-da, 5, 2, 1, 37, 165, 90, 90, 165, 161, 88, 2, 1.21708
114, 3, wb, attraction, a-b-db, 14, 2, 2, 1, 90, 165, 165, 90, 83, 153, 2, 2.0381
114, 3, wb, attraction, a-b-db, 14, 2, 2, 1, 90, 165, 165, 90, 83, 153, 1, 0.978777
114, 3, wb, attraction, a-b-db, 5, 1, 2, 2, 135, 60, 58, 132, 60, 135, 3, 1.12096
114, 3, wb, attraction, a-b-db, 5, 1, 2, 2, 135, 60, 58, 132, 60, 135, 2, 1.46731
114, 3, wb, attraction, a-b-db, 2, 2, 2, 3, 165, 90, 89, 163, 90, 165, 3, 7.88599
114, 3, wb, attraction, a-b-db, 2, 2, 2, 3, 165, 90, 89, 163, 90, 165, 2, 1.4555
114, 3, wb, catch, NA, 999, 999, 2, 4, 120, 195, 113, 142, 118, 77, 3, 0.875045
114, 3, wb, catch, NA, 999, 999, 2, 4, 120, 195, 113, 142, 118, 77, 1, 2.84678
114, 3, wb, filler, NA, 999, 999, 2, 5, 140, 173, 94, 187, 84, 137, 3, 0.697808
114, 3, wb, filler, NA, 999, 999, 2, 5, 140, 173, 94, 187, 84, 137, 1, 9.28491
114, 3, wb, catch, NA, 999, 999, 2, 6, 87, 108, 125, 190, 102, 153, 1, 1.5405
114, 3, wb, catch, NA, 999, 999, 2, 6, 87, 108, 125, 190, 102, 153, 2, 0.725339
114, 3, wb, attraction, a-b-da, 5, 2, 2, 7, 90, 165, 165, 90, 161, 88, 1, 1.80588
114, 3, wb, attraction, a-b-da, 5, 2, 2, 7, 90, 165, 165, 90, 161, 88, 2, 7.89983
114, 3, wb, attraction, a-b-da, 5, 1, 2, 8, 135, 60, 132, 58, 60, 135, 1, 2.85926
114, 3, wb, attraction, a-b-da, 5, 1, 2, 8, 135, 60, 132, 58, 60, 135, 2, 1.15908
114, 3, wb, attraction, a-b-da, 2, 3, 2, 9, 193, 119, 120, 195, 195, 120, 3, 1.00596
114, 3, wb, attraction, a-b-da, 2, 3, 2, 9, 193, 119, 120, 195, 195, 120, 2, 0.668259
114, 3, wb, catch, NA, 999, 999, 2, 10, 178, 137, 149, 106, 121, 74, 3, 0.679294
114, 3, wb, catch, NA, 999, 999, 2, 10, 178, 137, 149, 106, 121, 74, 1, 0.907147
114, 3, wb, filler, NA, 999, 999, 2, 11, 178, 91, 138, 98, 172, 127, 2, 2.5962
114, 3, wb, filler, NA, 999, 999, 2, 11, 178, 91, 138, 98, 172, 127, 3, 1.05874
114, 3, wb, attraction, a-b-db, 5, 2, 2, 12, 88, 161, 90, 165, 165, 90, 1, 2.58166
114, 3, wb, attraction, a-b-db, 5, 2, 2, 12, 88, 161, 90, 165, 165, 90, 2, 3.63677
114, 3, wb, attraction, a-b-db, 14, 3, 2, 13, 120, 195, 195, 120, 111, 181, 3, 6.36023
114, 3, wb, attraction, a-b-db, 14, 3, 2, 13, 120, 195, 195, 120, 111, 181, 2, 0.814979
114, 3, wb, filler, NA, 999, 999, 2, 14, 183, 168, 119, 191, 116, 70, 3, 2.40383
114, 3, wb, filler, NA, 999, 999, 2, 14, 183, 168, 119, 191, 116, 70, 1, 0.570603
114, 3, wb, attraction, a-b-da, 14, 1, 2, 15, 125, 56, 60, 135, 135, 60, 1, 2.0816
114, 3, wb, attraction, a-b-da, 14, 1, 2, 15, 125, 56, 60, 135, 135, 60, 3, 4.25293
114, 3, wb, attraction, a-b-da, 9, 3, 2, 16, 195, 120, 120, 195, 186, 114, 3, 3.97556
114, 3, wb, attraction, a-b-da, 9, 3, 2, 16, 195, 120, 120, 195, 186, 114, 2, 0.350331
114, 3, wb, filler, NA, 999, 999, 2, 17, 175, 125, 161, 70, 170, 152, 2, 1.17402
114, 3, wb, filler, NA, 999, 999, 2, 17, 175, 125, 161, 70, 170, 152, 3, 1.56577
114, 3, wb, attraction, a-b-db, 9, 2, 2, 18, 86, 157, 90, 165, 165, 90, 1, 1.70056
114, 3, wb, attraction, a-b-db, 9, 2, 2, 18, 86, 157, 90, 165, 165, 90, 3, 9.46337
114, 3, wb, filler, NA, 999, 999, 2, 19, 122, 88, 59, 188, 112, 72, 3, 1.77565
114, 3, wb, filler, NA, 999, 999, 2, 19, 122, 88, 59, 188, 112, 72, 2, 1.43087
114, 3, wb, filler, NA, 999, 999, 2, 20, 141, 90, 195, 143, 171, 150, 1, 1.40308
114, 3, wb, filler, NA, 999, 999, 2, 20, 141, 90, 195, 143, 171, 150, 2, 3.52214
114, 3, wb, attraction, a-b-da, 9, 1, 2, 21, 60, 135, 129, 57, 135, 60, 2, 5.39409
114, 3, wb, attraction, a-b-da, 9, 1, 2, 21, 60, 135, 129, 57, 135, 60, 3, 0.895891
114, 3, wb, attraction, a-b-db, 5, 3, 2, 22, 195, 120, 117, 190, 120, 195, 3, 5.50553
114, 3, wb, attraction, a-b-db, 5, 3, 2, 22, 195, 120, 117, 190, 120, 195, 2, 2.92303
114, 3, wb, attraction, a-b-da, 14, 2, 2, 23, 165, 90, 90, 165, 153, 83, 3, 1.52348
114, 3, wb, attraction, a-b-da, 14, 2, 2, 23, 165, 90, 90, 165, 153, 83, 2, 0.340901
114, 3, wb, attraction, a-b-db, 9, 1, 2, 24, 135, 60, 57, 129, 60, 135, 1, 1.42867
114, 3, wb, attraction, a-b-db, 9, 1, 2, 24, 135, 60, 57, 129, 60, 135, 2, 0.562224
114, 3, wb, attraction, a-b-db, 2, 3, 2, 25, 119, 193, 120, 195, 195, 120, 1, 6.96944
114, 3, wb, attraction, a-b-db, 2, 3, 2, 25, 119, 193, 120, 195, 195, 120, 2, 0.543762
114, 3, wb, filler, NA, 999, 999, 2, 26, 86, 180, 164, 177, 130, 98, 3, 1.63186
114, 3, wb, filler, NA, 999, 999, 2, 26, 86, 180, 164, 177, 130, 98, 2, 0.533083
114, 3, wb, attraction, a-b-db, 14, 1, 2, 27, 135, 60, 60, 135, 56, 125, 3, 3.64566
114, 3, wb, attraction, a-b-db, 14, 1, 2, 27, 135, 60, 60, 135, 56, 125, 2, 0.601667
114, 3, wb, attraction, a-b-da, 5, 3, 2, 28, 120, 195, 190, 117, 195, 120, 2, 6.74334
114, 3, wb, attraction, a-b-da, 5, 3, 2, 28, 120, 195, 190, 117, 195, 120, 3, 0.702508
114, 3, wb, attraction, a-b-db, 2, 1, 2, 29, 60, 135, 59, 134, 135, 60, 1, 1.16056
114, 3, wb, attraction, a-b-db, 2, 1, 2, 29, 60, 135, 59, 134, 135, 60, 2, 5.83266
114, 3, wb, attraction, a-b-da, 14, 3, 2, 30, 120, 195, 195, 120, 181, 111, 3, 2.40437
114, 3, wb, attraction, a-b-da, 14, 3, 2, 30, 120, 195, 195, 120, 181, 111, 1, 0.481436
114, 3, wb, attraction, a-b-db, 9, 3, 2, 31, 120, 195, 114, 186, 195, 120, 2, 4.03567
114, 3, wb, attraction, a-b-db, 9, 3, 2, 31, 120, 195, 114, 186, 195, 120, 1, 4.30451
114, 3, wb, attraction, a-b-da, 2, 1, 2, 32, 60, 135, 135, 60, 134, 59, 1, 2.33709
114, 3, wb, attraction, a-b-da, 2, 1, 2, 32, 60, 135, 135, 60, 134, 59, 2, 0.802274
114, 3, wb, filler, NA, 999, 999, 2, 33, 116, 95, 88, 147, 74, 75, 3, 1.24813
114, 3, wb, filler, NA, 999, 999, 2, 33, 116, 95, 88, 147, 74, 75, 2, 0.636945
114, 3, wb, attraction, a-b-da, 2, 2, 2, 34, 165, 90, 90, 165, 163, 89, 2, 6.2013
114, 3, wb, attraction, a-b-da, 2, 2, 2, 34, 165, 90, 90, 165, 163, 89, 1, 0.670801
114, 3, wb, attraction, a-b-da, 9, 2, 2, 35, 90, 165, 165, 90, 157, 86, 1, 4.51377
114, 3, wb, attraction, a-b-da, 9, 2, 2, 35, 90, 165, 165, 90, 157, 86, 2, 1.78696
114, 3, wb, filler, NA, 999, 999, 2, 36, 110, 188, 94, 123, 140, 187, 2, 0.937017
114, 3, wb, filler, NA, 999, 999, 2, 36, 110, 188, 94, 123, 140, 187, 3, 0.874044
114, 3, wb, filler, NA, 999, 999, 2, 37, 94, 190, 162, 149, 115, 131, 3, 8.12439
114, 3, wb, filler, NA, 999, 999, 2, 37, 94, 190, 162, 149, 115, 131, 2, 0.787735
114, 3, wb, attraction, a-b-db, 5, 1, 3, 1, 135, 60, 60, 135, 58, 132, 3, 2.85015
114, 3, wb, attraction, a-b-db, 5, 1, 3, 1, 135, 60, 60, 135, 58, 132, 2, 0.934608
114, 3, wb, attraction, a-b-db, 2, 1, 3, 2, 135, 60, 59, 134, 60, 135, 3, 2.51897
114, 3, wb, attraction, a-b-db, 2, 1, 3, 2, 135, 60, 59, 134, 60, 135, 1, 1.91275
114, 3, wb, attraction, a-b-db, 9, 2, 3, 3, 90, 165, 86, 157, 165, 90, 1, 5.16145
114, 3, wb, attraction, a-b-db, 9, 2, 3, 3, 90, 165, 86, 157, 165, 90, 3, 1.00843
114, 3, wb, attraction, a-b-db, 5, 2, 3, 4, 90, 165, 165, 90, 88, 161, 1, 4.58136
114, 3, wb, attraction, a-b-db, 5, 2, 3, 4, 90, 165, 165, 90, 88, 161, 2, 0.635942
114, 3, wb, attraction, a-b-db, 9, 1, 3, 5, 57, 129, 135, 60, 60, 135, 1, 2.2564
114, 3, wb, attraction, a-b-db, 9, 1, 3, 5, 57, 129, 135, 60, 60, 135, 3, 0.732344
114, 3, wb, attraction, a-b-da, 9, 3, 3, 6, 186, 114, 195, 120, 120, 195, 1, 3.46074
114, 3, wb, attraction, a-b-da, 9, 3, 3, 6, 186, 114, 195, 120, 120, 195, 2, 0.656263
114, 3, wb, filler, NA, 999, 999, 3, 7, 118, 78, 95, 100, 151, 191, 2, 2.33206
114, 3, wb, filler, NA, 999, 999, 3, 7, 118, 78, 95, 100, 151, 191, 3, 0.389229
114, 3, wb, attraction, a-b-da, 14, 3, 3, 8, 195, 120, 181, 111, 120, 195, 2, 11.9317
114, 3, wb, attraction, a-b-da, 14, 3, 3, 8, 195, 120, 181, 111, 120, 195, 3, 0.330477
114, 3, wb, filler, NA, 999, 999, 3, 9, 132, 73, 60, 146, 177, 183, 2, 6.37048
114, 3, wb, filler, NA, 999, 999, 3, 9, 132, 73, 60, 146, 177, 183, 3, 0.553151
114, 3, wb, catch, NA, 999, 999, 3, 10, 160, 155, 81, 114, 157, 98, 2, 1.21687
114, 3, wb, catch, NA, 999, 999, 3, 10, 160, 155, 81, 114, 157, 98, 1, 0.367219
114, 3, wb, attraction, a-b-da, 9, 2, 3, 11, 157, 86, 90, 165, 165, 90, 1, 1.59045
114, 3, wb, attraction, a-b-da, 9, 2, 3, 11, 157, 86, 90, 165, 165, 90, 2, 0.949128
114, 3, wb, attraction, a-b-db, 2, 2, 3, 12, 89, 163, 165, 90, 90, 165, 1, 2.30886
114, 3, wb, attraction, a-b-db, 2, 2, 3, 12, 89, 163, 165, 90, 90, 165, 3, 1.52668
114, 3, wb, filler, NA, 999, 999, 3, 13, 114, 73, 69, 58, 58, 94, 2, 1.01488
114, 3, wb, filler, NA, 999, 999, 3, 13, 114, 73, 69, 58, 58, 94, 1, 0.701166
114, 3, wb, attraction, a-b-da, 2, 1, 3, 14, 60, 135, 135, 60, 134, 59, 2, 5.97483
114, 3, wb, attraction, a-b-da, 2, 1, 3, 14, 60, 135, 135, 60, 134, 59, 1, 0.372905
114, 3, wb, filler, NA, 999, 999, 3, 15, 122, 67, 89, 92, 61, 62, 3, 1.01222
114, 3, wb, filler, NA, 999, 999, 3, 15, 122, 67, 89, 92, 61, 62, 2, 8.56271
114, 3, wb, filler, NA, 999, 999, 3, 16, 143, 84, 191, 184, 192, 132, 1, 27.847
114, 3, wb, filler, NA, 999, 999, 3, 16, 143, 84, 191, 184, 192, 132, 2, 0.419761
114, 3, wb, attraction, a-b-db, 14, 2, 3, 17, 83, 153, 90, 165, 165, 90, 1, 10.2249
114, 3, wb, attraction, a-b-db, 14, 2, 3, 17, 83, 153, 90, 165, 165, 90, 3, 0.595548
114, 3, wb, catch, NA, 999, 999, 3, 18, 80, 115, 159, 156, 161, 94, 1, 2.32936
114, 3, wb, catch, NA, 999, 999, 3, 18, 80, 115, 159, 156, 161, 94, 2, 0.754607
114, 3, wb, attraction, a-b-db, 5, 3, 3, 19, 120, 195, 195, 120, 117, 190, 1, 14.1702
114, 3, wb, attraction, a-b-db, 5, 3, 3, 19, 120, 195, 195, 120, 117, 190, 2, 4.87052
114, 3, wb, filler, NA, 999, 999, 3, 20, 92, 68, 135, 119, 191, 70, 1, 1.16827
114, 3, wb, filler, NA, 999, 999, 3, 20, 92, 68, 135, 119, 191, 70, 2, 25.8966
114, 3, wb, attraction, a-b-da, 2, 2, 3, 21, 163, 89, 165, 90, 90, 165, 1, 1.33898
114, 3, wb, attraction, a-b-da, 2, 2, 3, 21, 163, 89, 165, 90, 90, 165, 2, 0.372002
114, 3, wb, attraction, a-b-da, 14, 2, 3, 22, 165, 90, 90, 165, 153, 83, 3, 0.91506
114, 3, wb, attraction, a-b-da, 14, 2, 3, 22, 165, 90, 90, 165, 153, 83, 2, 0.501465
114, 3, wb, attraction, a-b-da, 5, 3, 3, 23, 120, 195, 190, 117, 195, 120, 1, 3.47127
114, 3, wb, attraction, a-b-da, 5, 3, 3, 23, 120, 195, 190, 117, 195, 120, 2, 0.650804
114, 3, wb, attraction, a-b-db, 2, 3, 3, 24, 119, 193, 120, 195, 195, 120, 1, 2.28653
114, 3, wb, attraction, a-b-db, 2, 3, 3, 24, 119, 193, 120, 195, 195, 120, 2, 0.265804
114, 3, wb, filler, NA, 999, 999, 3, 25, 123, 92, 85, 121, 170, 89, 2, 0.924947
114, 3, wb, filler, NA, 999, 999, 3, 25, 123, 92, 85, 121, 170, 89, 3, 2.1026
114, 3, wb, filler, NA, 999, 999, 3, 26, 141, 175, 125, 87, 129, 192, 2, 0.800012
114, 3, wb, filler, NA, 999, 999, 3, 26, 141, 175, 125, 87, 129, 192, 1, 2.327
114, 3, wb, catch, NA, 999, 999, 3, 27, 105, 90, 158, 97, 128, 187, 1, 1.2069
114, 3, wb, catch, NA, 999, 999, 3, 27, 105, 90, 158, 97, 128, 187, 3, 0.701186
114, 3, wb, attraction, a-b-da, 5, 1, 3, 28, 60, 135, 132, 58, 135, 60, 2, 1.23081
114, 3, wb, attraction, a-b-da, 5, 1, 3, 28, 60, 135, 132, 58, 135, 60, 3, 1.4604
114, 3, wb, attraction, a-b-da, 9, 1, 3, 29, 129, 57, 60, 135, 135, 60, 2, 1.14319
114, 3, wb, attraction, a-b-da, 9, 1, 3, 29, 129, 57, 60, 135, 135, 60, 1, 0.712305
114, 3, wb, attraction, a-b-da, 5, 2, 3, 30, 161, 88, 165, 90, 90, 165, 3, 7.62531
114, 3, wb, attraction, a-b-da, 5, 2, 3, 30, 161, 88, 165, 90, 90, 165, 2, 1.25281
114, 3, wb, attraction, a-b-db, 14, 1, 3, 31, 60, 135, 56, 125, 135, 60, 2, 1.96833
114, 3, wb, attraction, a-b-db, 14, 1, 3, 31, 60, 135, 56, 125, 135, 60, 1, 0.712571
114, 3, wb, filler, NA, 999, 999, 3, 32, 162, 113, 134, 89, 76, 74, 3, 0.88948
114, 3, wb, filler, NA, 999, 999, 3, 32, 162, 113, 134, 89, 76, 74, 1, 0.420596
114, 3, wb, filler, NA, 999, 999, 3, 33, 176, 104, 91, 158, 125, 185, 1, 2.1216
114, 3, wb, filler, NA, 999, 999, 3, 33, 176, 104, 91, 158, 125, 185, 3, 1.17896
114, 3, wb, attraction, a-b-da, 14, 1, 3, 34, 135, 60, 60, 135, 125, 56, 2, 2.89725
114, 3, wb, attraction, a-b-da, 14, 1, 3, 34, 135, 60, 60, 135, 125, 56, 1, 0.475603
114, 3, wb, attraction, a-b-db, 14, 3, 3, 35, 111, 181, 195, 120, 120, 195, 1, 4.5261
114, 3, wb, attraction, a-b-db, 14, 3, 3, 35, 111, 181, 195, 120, 120, 195, 2, 0.454675
114, 3, wb, attraction, a-b-da, 2, 3, 3, 36, 120, 195, 195, 120, 193, 119, 1, 4.04249
114, 3, wb, attraction, a-b-da, 2, 3, 3, 36, 120, 195, 195, 120, 193, 119, 2, 0.294477
114, 3, wb, attraction, a-b-db, 9, 3, 3, 37, 195, 120, 120, 195, 114, 186, 3, 3.63233
114, 3, wb, attraction, a-b-db, 9, 3, 3, 37, 195, 120, 120, 195, 114, 186, 2, 0.397135
114, 3, wb, attraction, a-b-da, 5, 3, 4, 1, 120, 195, 190, 117, 195, 120, 1, 1.28299
114, 3, wb, attraction, a-b-da, 5, 3, 4, 1, 120, 195, 190, 117, 195, 120, 2, 0.582554
114, 3, wb, attraction, a-b-db, 9, 1, 4, 2, 60, 135, 135, 60, 57, 129, 3, 1.56497
114, 3, wb, attraction, a-b-db, 9, 1, 4, 2, 60, 135, 135, 60, 57, 129, 2, 0.461112
114, 3, wb, attraction, a-b-da, 14, 2, 4, 3, 165, 90, 153, 83, 90, 165, 1, 1.36818
114, 3, wb, attraction, a-b-da, 14, 2, 4, 3, 165, 90, 153, 83, 90, 165, 2, 0.400509
114, 3, wb, attraction, a-b-da, 9, 2, 4, 4, 90, 165, 157, 86, 165, 90, 3, 1.37428
114, 3, wb, attraction, a-b-da, 9, 2, 4, 4, 90, 165, 157, 86, 165, 90, 2, 1.17385
114, 3, wb, attraction, a-b-da, 14, 3, 4, 5, 120, 195, 195, 120, 181, 111, 3, 3.70804
114, 3, wb, attraction, a-b-da, 14, 3, 4, 5, 120, 195, 195, 120, 181, 111, 2, 0.437649
114, 3, wb, filler, NA, 999, 999, 4, 6, 173, 80, 56, 133, 175, 60, 2, 3.49509
114, 3, wb, filler, NA, 999, 999, 4, 6, 173, 80, 56, 133, 175, 60, 1, 0.52423
114, 3, wb, attraction, a-b-da, 14, 1, 4, 7, 125, 56, 60, 135, 135, 60, 1, 1.2608
114, 3, wb, attraction, a-b-da, 14, 1, 4, 7, 125, 56, 60, 135, 135, 60, 2, 0.345005
114, 3, wb, attraction, a-b-da, 5, 2, 4, 8, 90, 165, 165, 90, 161, 88, 1, 3.00868
114, 3, wb, attraction, a-b-da, 5, 2, 4, 8, 90, 165, 165, 90, 161, 88, 2, 1.18244
114, 3, wb, attraction, a-b-da, 2, 1, 4, 9, 60, 135, 134, 59, 135, 60, 1, 1.15668
114, 3, wb, attraction, a-b-da, 2, 1, 4, 9, 60, 135, 134, 59, 135, 60, 2, 0.276968
114, 3, wb, attraction, a-b-da, 2, 2, 4, 10, 163, 89, 165, 90, 90, 165, 3, 1.16742
114, 3, wb, attraction, a-b-da, 2, 2, 4, 10, 163, 89, 165, 90, 90, 165, 2, 0.783784
114, 3, wb, attraction, a-b-db, 5, 1, 4, 11, 58, 132, 60, 135, 135, 60, 1, 0.934181
114, 3, wb, attraction, a-b-db, 5, 1, 4, 11, 58, 132, 60, 135, 135, 60, 2, 1.26379
114, 3, wb, filler, NA, 999, 999, 4, 12, 97, 73, 183, 148, 131, 192, 1, 1.46661
114, 3, wb, filler, NA, 999, 999, 4, 12, 97, 73, 183, 148, 131, 192, 2, 0.422876
114, 3, wb, attraction, a-b-db, 14, 1, 4, 13, 56, 125, 135, 60, 60, 135, 1, 2.75604
114, 3, wb, attraction, a-b-db, 14, 1, 4, 13, 56, 125, 135, 60, 60, 135, 3, 0.451882
114, 3, wb, attraction, a-b-db, 2, 3, 4, 14, 119, 193, 195, 120, 120, 195, 2, 4.5596
114, 3, wb, attraction, a-b-db, 2, 3, 4, 14, 119, 193, 195, 120, 120, 195, 1, 0.22282
114, 3, wb, attraction, a-b-db, 14, 3, 4, 15, 195, 120, 111, 181, 120, 195, 2, 3.14802
114, 3, wb, attraction, a-b-db, 14, 3, 4, 15, 195, 120, 111, 181, 120, 195, 1, 0.460302
114, 3, wb, filler, NA, 999, 999, 4, 16, 174, 142, 150, 164, 117, 189, 1, 3.02348
114, 3, wb, filler, NA, 999, 999, 4, 16, 174, 142, 150, 164, 117, 189, 3, 0.596428
114, 3, wb, filler, NA, 999, 999, 4, 17, 65, 121, 98, 116, 170, 80, 1, 0.642281
114, 3, wb, filler, NA, 999, 999, 4, 17, 65, 121, 98, 116, 170, 80, 2, 3.87143
114, 3, wb, attraction, a-b-db, 2, 1, 4, 18, 135, 60, 59, 134, 60, 135, 3, 2.9694
114, 3, wb, attraction, a-b-db, 2, 1, 4, 18, 135, 60, 59, 134, 60, 135, 1, 1.04922
114, 3, wb, attraction, a-b-da, 9, 3, 4, 19, 186, 114, 195, 120, 120, 195, 1, 6.37291
114, 3, wb, attraction, a-b-da, 9, 3, 4, 19, 186, 114, 195, 120, 120, 195, 2, 0.402759
114, 3, wb, filler, NA, 999, 999, 4, 20, 79, 143, 155, 123, 102, 60, 3, 0.992721
114, 3, wb, filler, NA, 999, 999, 4, 20, 79, 143, 155, 123, 102, 60, 2, 0.399519
114, 3, wb, filler, NA, 999, 999, 4, 21, 72, 184, 85, 68, 184, 72, 2, 1.11735
114, 3, wb, filler, NA, 999, 999, 4, 21, 72, 184, 85, 68, 184, 72, 3, 1.6796
114, 3, wb, catch, NA, 999, 999, 4, 22, 64, 131, 193, 122, 154, 101, 1, 2.64163
114, 3, wb, catch, NA, 999, 999, 4, 22, 64, 131, 193, 122, 154, 101, 2, 0.374183
114, 3, wb, attraction, a-b-da, 2, 3, 4, 23, 120, 195, 195, 120, 193, 119, 1, 4.74863
114, 3, wb, attraction, a-b-da, 2, 3, 4, 23, 120, 195, 195, 120, 193, 119, 2, 0.456895
114, 3, wb, catch, NA, 999, 999, 4, 24, 111, 84, 189, 126, 107, 148, 1, 1.29576
114, 3, wb, catch, NA, 999, 999, 4, 24, 111, 84, 189, 126, 107, 148, 2, 0.482697
114, 3, wb, attraction, a-b-da, 9, 1, 4, 25, 135, 60, 60, 135, 129, 57, 1, 1.69305
114, 3, wb, attraction, a-b-da, 9, 1, 4, 25, 135, 60, 60, 135, 129, 57, 2, 0.751779
114, 3, wb, attraction, a-b-db, 14, 2, 4, 26, 90, 165, 83, 153, 165, 90, 1, 7.35154
114, 3, wb, attraction, a-b-db, 14, 2, 4, 26, 90, 165, 83, 153, 165, 90, 2, 0.478461
114, 3, wb, attraction, a-b-db, 5, 3, 4, 27, 195, 120, 117, 190, 120, 195, 3, 14.177
114, 3, wb, attraction, a-b-db, 5, 3, 4, 27, 195, 120, 117, 190, 120, 195, 2, 0.956549
114, 3, wb, filler, NA, 999, 999, 4, 28, 185, 143, 164, 101, 146, 178, 2, 7.98013
114, 3, wb, filler, NA, 999, 999, 4, 28, 185, 143, 164, 101, 146, 178, 1, 0.473907
114, 3, wb, attraction, a-b-db, 9, 3, 4, 29, 195, 120, 114, 186, 120, 195, 3, 3.16406
114, 3, wb, attraction, a-b-db, 9, 3, 4, 29, 195, 120, 114, 186, 120, 195, 2, 2.0679
114, 3, wb, attraction, a-b-db, 5, 2, 4, 30, 90, 165, 88, 161, 165, 90, 1, 0.822294
114, 3, wb, attraction, a-b-db, 5, 2, 4, 30, 90, 165, 88, 161, 165, 90, 3, 1.34004
114, 3, wb, attraction, a-b-db, 2, 2, 4, 31, 89, 163, 165, 90, 90, 165, 3, 5.22026
114, 3, wb, attraction, a-b-db, 2, 2, 4, 31, 89, 163, 165, 90, 90, 165, 1, 0.673352
114, 3, wb, filler, NA, 999, 999, 4, 32, 107, 72, 158, 82, 100, 75, 1, 1.6197
114, 3, wb, filler, NA, 999, 999, 4, 32, 107, 72, 158, 82, 100, 75, 2, 0.74576
114, 3, wb, attraction, a-b-da, 5, 1, 4, 33, 135, 60, 132, 58, 60, 135, 1, 1.48956
114, 3, wb, attraction, a-b-da, 5, 1, 4, 33, 135, 60, 132, 58, 60, 135, 2, 0.396347
114, 3, wb, filler, NA, 999, 999, 4, 34, 145, 186, 163, 68, 185, 109, 2, 1.8023
114, 3, wb, filler, NA, 999, 999, 4, 34, 145, 186, 163, 68, 185, 109, 1, 0.416881
114, 3, wb, catch, NA, 999, 999, 4, 35, 125, 130, 133, 62, 153, 162, 2, 0.79822
114, 3, wb, catch, NA, 999, 999, 4, 35, 125, 130, 133, 62, 153, 162, 3, 0.293083
114, 3, wb, filler, NA, 999, 999, 4, 36, 115, 92, 65, 84, 180, 85, 2, 2.42307
114, 3, wb, filler, NA, 999, 999, 4, 36, 115, 92, 65, 84, 180, 85, 3, 0.660269
114, 3, wb, attraction, a-b-db, 9, 2, 4, 37, 90, 165, 165, 90, 86, 157, 3, 2.06342
114, 3, wb, attraction, a-b-db, 9, 2, 4, 37, 90, 165, 165, 90, 86, 157, 2, 0.307225
114, 3, wb, filler, NA, 999, 999, 5, 1, 151, 79, 141, 115, 56, 116, 3, 2.94712
114, 3, wb, filler, NA, 999, 999, 5, 1, 151, 79, 141, 115, 56, 116, 2, 0.363506
114, 3, wb, attraction, a-b-db, 5, 1, 5, 2, 60, 135, 58, 132, 135, 60, 1, 2.33064
114, 3, wb, attraction, a-b-db, 5, 1, 5, 2, 60, 135, 58, 132, 135, 60, 3, 0.563963
114, 3, wb, attraction, a-b-da, 9, 3, 5, 3, 195, 120, 120, 195, 186, 114, 3, 2.04288
114, 3, wb, attraction, a-b-da, 9, 3, 5, 3, 195, 120, 120, 195, 186, 114, 2, 0.66363
114, 3, wb, attraction, a-b-db, 14, 2, 5, 4, 83, 153, 90, 165, 165, 90, 1, 1.00266
114, 3, wb, attraction, a-b-db, 14, 2, 5, 4, 83, 153, 90, 165, 165, 90, 2, 2.08164
114, 3, wb, filler, NA, 999, 999, 5, 5, 86, 120, 104, 98, 134, 170, 2, 0.907672
114, 3, wb, filler, NA, 999, 999, 5, 5, 86, 120, 104, 98, 134, 170, 3, 0.278063
114, 3, wb, attraction, a-b-da, 2, 3, 5, 6, 193, 119, 195, 120, 120, 195, 3, 4.08044
114, 3, wb, attraction, a-b-da, 2, 3, 5, 6, 193, 119, 195, 120, 120, 195, 2, 0.347213
114, 3, wb, catch, NA, 999, 999, 5, 7, 94, 101, 112, 143, 146, 169, 1, 1.57903
114, 3, wb, catch, NA, 999, 999, 5, 7, 94, 101, 112, 143, 146, 169, 3, 0.394628
114, 3, wb, filler, NA, 999, 999, 5, 8, 142, 131, 140, 195, 108, 148, 1, 2.57638
114, 3, wb, filler, NA, 999, 999, 5, 8, 142, 131, 140, 195, 108, 148, 2, 0.43154
114, 3, wb, attraction, a-b-db, 5, 3, 5, 9, 195, 120, 117, 190, 120, 195, 3, 7.31608
114, 3, wb, attraction, a-b-db, 5, 3, 5, 9, 195, 120, 117, 190, 120, 195, 2, 0.548474
114, 3, wb, filler, NA, 999, 999, 5, 10, 60, 88, 56, 157, 81, 156, 1, 0.78005
114, 3, wb, filler, NA, 999, 999, 5, 10, 60, 88, 56, 157, 81, 156, 3, 0.395818
114, 3, wb, attraction, a-b-db, 2, 1, 5, 11, 135, 60, 60, 135, 59, 134, 3, 1.62568
114, 3, wb, attraction, a-b-db, 2, 1, 5, 11, 135, 60, 60, 135, 59, 134, 2, 0.527178
114, 3, wb, attraction, a-b-da, 2, 1, 5, 12, 134, 59, 135, 60, 60, 135, 3, 2.07165
114, 3, wb, attraction, a-b-da, 2, 1, 5, 12, 134, 59, 135, 60, 60, 135, 1, 0.643
114, 3, wb, attraction, a-b-da, 2, 2, 5, 13, 163, 89, 165, 90, 90, 165, 3, 0.782625
114, 3, wb, attraction, a-b-da, 2, 2, 5, 13, 163, 89, 165, 90, 90, 165, 2, 0.790401
114, 3, wb, attraction, a-b-da, 5, 1, 5, 14, 60, 135, 135, 60, 132, 58, 3, 0.764063
114, 3, wb, attraction, a-b-da, 5, 1, 5, 14, 60, 135, 135, 60, 132, 58, 2, 0.532602
114, 3, wb, attraction, a-b-da, 9, 2, 5, 15, 90, 165, 157, 86, 165, 90, 1, 1.26078
114, 3, wb, attraction, a-b-da, 9, 2, 5, 15, 90, 165, 157, 86, 165, 90, 3, 0.737231
114, 3, wb, catch, NA, 999, 999, 5, 16, 163, 92, 125, 190, 63, 132, 3, 0.785717
114, 3, wb, catch, NA, 999, 999, 5, 16, 163, 92, 125, 190, 63, 132, 2, 0.321401
114, 3, wb, attraction, a-b-da, 14, 2, 5, 17, 165, 90, 153, 83, 90, 165, 3, 1.51439
114, 3, wb, attraction, a-b-da, 14, 2, 5, 17, 165, 90, 153, 83, 90, 165, 2, 0.380572
114, 3, wb, attraction, a-b-da, 5, 3, 5, 18, 190, 117, 120, 195, 195, 120, 3, 0.763051
114, 3, wb, attraction, a-b-da, 5, 3, 5, 18, 190, 117, 120, 195, 195, 120, 1, 0.411629
114, 3, wb, attraction, a-b-db, 9, 3, 5, 19, 120, 195, 114, 186, 195, 120, 1, 3.32865
114, 3, wb, attraction, a-b-db, 9, 3, 5, 19, 120, 195, 114, 186, 195, 120, 3, 4.88967
114, 3, wb, attraction, a-b-db, 2, 2, 5, 20, 89, 163, 165, 90, 90, 165, 1, 1.62678
114, 3, wb, attraction, a-b-db, 2, 2, 5, 20, 89, 163, 165, 90, 90, 165, 2, 0.632232
114, 3, wb, filler, NA, 999, 999, 5, 21, 70, 167, 79, 121, 97, 157, 2, 0.796494
114, 3, wb, filler, NA, 999, 999, 5, 21, 70, 167, 79, 121, 97, 157, 3, 0.683511
114, 3, wb, catch, NA, 999, 999, 5, 22, 69, 126, 124, 191, 160, 95, 1, 0.94194
114, 3, wb, catch, NA, 999, 999, 5, 22, 69, 126, 124, 191, 160, 95, 2, 0.742994
114, 3, wb, filler, NA, 999, 999, 5, 23, 132, 65, 150, 174, 86, 163, 1, 1.45474
114, 3, wb, filler, NA, 999, 999, 5, 23, 132, 65, 150, 174, 86, 163, 2, 0.370861
114, 3, wb, attraction, a-b-db, 14, 3, 5, 24, 111, 181, 120, 195, 195, 120, 1, 2.2101
114, 3, wb, attraction, a-b-db, 14, 3, 5, 24, 111, 181, 120, 195, 195, 120, 2, 0.680005
114, 3, wb, attraction, a-b-db, 5, 2, 5, 25, 90, 165, 88, 161, 165, 90, 1, 3.37838
114, 3, wb, attraction, a-b-db, 5, 2, 5, 25, 90, 165, 88, 161, 165, 90, 3, 0.593364
114, 3, wb, attraction, a-b-db, 2, 3, 5, 26, 119, 193, 120, 195, 195, 120, 1, 1.27893
114, 3, wb, attraction, a-b-db, 2, 3, 5, 26, 119, 193, 120, 195, 195, 120, 2, 1.62669
114, 3, wb, attraction, a-b-db, 9, 2, 5, 27, 90, 165, 165, 90, 86, 157, 1, 1.03864
114, 3, wb, attraction, a-b-db, 9, 2, 5, 27, 90, 165, 165, 90, 86, 157, 3, 2.42776
114, 3, wb, filler, NA, 999, 999, 5, 28, 192, 60, 158, 58, 122, 67, 3, 1.10349
114, 3, wb, filler, NA, 999, 999, 5, 28, 192, 60, 158, 58, 122, 67, 1, 0.946544
114, 3, wb, attraction, a-b-da, 5, 2, 5, 29, 165, 90, 161, 88, 90, 165, 1, 3.49032
114, 3, wb, attraction, a-b-da, 5, 2, 5, 29, 165, 90, 161, 88, 90, 165, 3, 1.29246
114, 3, wb, filler, NA, 999, 999, 5, 30, 144, 124, 176, 176, 165, 170, 1, 1.01392
114, 3, wb, filler, NA, 999, 999, 5, 30, 144, 124, 176, 176, 165, 170, 2, 0.708262
114, 3, wb, attraction, a-b-da, 14, 1, 5, 31, 125, 56, 135, 60, 60, 135, 1, 1.74925
114, 3, wb, attraction, a-b-da, 14, 1, 5, 31, 125, 56, 135, 60, 60, 135, 3, 1.03798
114, 3, wb, attraction, a-b-db, 14, 1, 5, 32, 135, 60, 60, 135, 56, 125, 3, 1.38638
114, 3, wb, attraction, a-b-db, 14, 1, 5, 32, 135, 60, 60, 135, 56, 125, 2, 1.36206
114, 3, wb, attraction, a-b-da, 14, 3, 5, 33, 195, 120, 181, 111, 120, 195, 3, 3.23281
114, 3, wb, attraction, a-b-da, 14, 3, 5, 33, 195, 120, 181, 111, 120, 195, 1, 0.653692
114, 3, wb, filler, NA, 999, 999, 5, 34, 89, 158, 117, 71, 57, 71, 3, 0.681513
114, 3, wb, filler, NA, 999, 999, 5, 34, 89, 158, 117, 71, 57, 71, 1, 0.5972
114, 3, wb, filler, NA, 999, 999, 5, 35, 127, 106, 193, 99, 156, 135, 1, 1.14685
114, 3, wb, filler, NA, 999, 999, 5, 35, 127, 106, 193, 99, 156, 135, 2, 5.72389
114, 3, wb, attraction, a-b-db, 9, 1, 5, 36, 57, 129, 135, 60, 60, 135, 1, 1.54731
114, 3, wb, attraction, a-b-db, 9, 1, 5, 36, 57, 129, 135, 60, 60, 135, 3, 0.580229
114, 3, wb, attraction, a-b-da, 9, 1, 5, 37, 60, 135, 129, 57, 135, 60, 3, 1.08259
114, 3, wb, attraction, a-b-da, 9, 1, 5, 37, 60, 135, 129, 57, 135, 60, 2, 0.470215
114, 3, wb, filler, NA, 999, 999, 6, 1, 129, 97, 178, 87, 127, 111, 1, 1.9773
114, 3, wb, filler, NA, 999, 999, 6, 1, 129, 97, 178, 87, 127, 111, 2, 0.56868
114, 3, wb, catch, NA, 999, 999, 6, 2, 136, 179, 104, 91, 156, 99, 2, 0.820384
114, 3, wb, catch, NA, 999, 999, 6, 2, 136, 179, 104, 91, 156, 99, 1, 0.89348
114, 3, wb, attraction, a-b-da, 14, 2, 6, 3, 165, 90, 153, 83, 90, 165, 3, 2.51924
114, 3, wb, attraction, a-b-da, 14, 2, 6, 3, 165, 90, 153, 83, 90, 165, 1, 0.833118
114, 3, wb, attraction, a-b-da, 5, 3, 6, 4, 120, 195, 195, 120, 190, 117, 3, 2.01342
114, 3, wb, attraction, a-b-da, 5, 3, 6, 4, 120, 195, 195, 120, 190, 117, 1, 0.363444
114, 3, wb, attraction, a-b-db, 14, 3, 6, 5, 195, 120, 120, 195, 111, 181, 3, 0.634516
114, 3, wb, attraction, a-b-db, 14, 3, 6, 5, 195, 120, 120, 195, 111, 181, 2, 0.38436
114, 3, wb, attraction, a-b-db, 2, 2, 6, 6, 89, 163, 165, 90, 90, 165, 1, 0.854939
114, 3, wb, attraction, a-b-db, 2, 2, 6, 6, 89, 163, 165, 90, 90, 165, 2, 0.507235
114, 3, wb, filler, NA, 999, 999, 6, 7, 182, 161, 95, 99, 72, 102, 3, 3.29237
114, 3, wb, filler, NA, 999, 999, 6, 7, 182, 161, 95, 99, 72, 102, 1, 0.862602
114, 3, wb, attraction, a-b-da, 2, 1, 6, 8, 135, 60, 60, 135, 134, 59, 3, 1.04157
114, 3, wb, attraction, a-b-da, 2, 1, 6, 8, 135, 60, 60, 135, 134, 59, 2, 0.686586
114, 3, wb, filler, NA, 999, 999, 6, 9, 193, 123, 123, 111, 175, 63, 3, 6.81711
114, 3, wb, filler, NA, 999, 999, 6, 9, 193, 123, 123, 111, 175, 63, 1, 0.517484
114, 3, wb, filler, NA, 999, 999, 6, 10, 137, 87, 112, 106, 155, 160, 1, 1.90268
114, 3, wb, filler, NA, 999, 999, 6, 10, 137, 87, 112, 106, 155, 160, 3, 0.369491
114, 3, wb, catch, NA, 999, 999, 6, 11, 64, 131, 192, 123, 142, 113, 1, 1.37663
114, 3, wb, catch, NA, 999, 999, 6, 11, 64, 131, 192, 123, 142, 113, 2, 0.336038
114, 3, wb, attraction, a-b-db, 2, 3, 6, 12, 120, 195, 195, 120, 119, 193, 3, 2.46469
114, 3, wb, attraction, a-b-db, 2, 3, 6, 12, 120, 195, 195, 120, 119, 193, 2, 0.348361
114, 3, wb, attraction, a-b-db, 5, 3, 6, 13, 117, 190, 195, 120, 120, 195, 1, 2.1322
114, 3, wb, attraction, a-b-db, 5, 3, 6, 13, 117, 190, 195, 120, 120, 195, 3, 0.741595
114, 3, wb, attraction, a-b-db, 2, 1, 6, 14, 135, 60, 59, 134, 60, 135, 3, 1.48531
114, 3, wb, attraction, a-b-db, 2, 1, 6, 14, 135, 60, 59, 134, 60, 135, 1, 0.384712
114, 3, wb, attraction, a-b-db, 9, 2, 6, 15, 165, 90, 86, 157, 90, 165, 1, 2.51133
114, 3, wb, attraction, a-b-db, 9, 2, 6, 15, 165, 90, 86, 157, 90, 165, 2, 0.581911
114, 3, wb, attraction, a-b-da, 2, 3, 6, 16, 120, 195, 195, 120, 193, 119, 1, 0.839636
114, 3, wb, attraction, a-b-da, 2, 3, 6, 16, 120, 195, 195, 120, 193, 119, 2, 0.46864
114, 3, wb, attraction, a-b-db, 5, 2, 6, 17, 165, 90, 88, 161, 90, 165, 1, 0.655637
114, 3, wb, attraction, a-b-db, 5, 2, 6, 17, 165, 90, 88, 161, 90, 165, 2, 0.404206
114, 3, wb, attraction, a-b-da, 14, 1, 6, 18, 60, 135, 125, 56, 135, 60, 1, 0.665946
114, 3, wb, attraction, a-b-da, 14, 1, 6, 18, 60, 135, 125, 56, 135, 60, 2, 0.382495
114, 3, wb, attraction, a-b-da, 14, 3, 6, 19, 181, 111, 120, 195, 195, 120, 1, 0.588881
114, 3, wb, attraction, a-b-da, 14, 3, 6, 19, 181, 111, 120, 195, 195, 120, 2, 0.371985
114, 3, wb, attraction, a-b-da, 9, 2, 6, 20, 90, 165, 157, 86, 165, 90, 3, 0.731157
114, 3, wb, attraction, a-b-da, 9, 2, 6, 20, 90, 165, 157, 86, 165, 90, 2, 0.748935
114, 3, wb, attraction, a-b-db, 14, 2, 6, 21, 83, 153, 90, 165, 165, 90, 1, 0.668649
114, 3, wb, attraction, a-b-db, 14, 2, 6, 21, 83, 153, 90, 165, 165, 90, 2, 0.31299
114, 3, wb, filler, NA, 999, 999, 6, 22, 87, 74, 131, 93, 168, 160, 1, 1.01825
114, 3, wb, filler, NA, 999, 999, 6, 22, 87, 74, 131, 93, 168, 160, 3, 0.416552
114, 3, wb, attraction, a-b-db, 14, 1, 6, 23, 56, 125, 135, 60, 60, 135, 3, 1.24569
114, 3, wb, attraction, a-b-db, 14, 1, 6, 23, 56, 125, 135, 60, 60, 135, 2, 0.38662
114, 3, wb, filler, NA, 999, 999, 6, 24, 151, 89, 169, 75, 74, 72, 3, 0.977062
114, 3, wb, filler, NA, 999, 999, 6, 24, 151, 89, 169, 75, 74, 72, 2, 0.68889
114, 3, wb, attraction, a-b-db, 9, 1, 6, 25, 135, 60, 60, 135, 57, 129, 3, 0.915175
114, 3, wb, attraction, a-b-db, 9, 1, 6, 25, 135, 60, 60, 135, 57, 129, 1, 0.469542
114, 3, wb, attraction, a-b-db, 5, 1, 6, 26, 58, 132, 60, 135, 135, 60, 3, 0.776716
114, 3, wb, attraction, a-b-db, 5, 1, 6, 26, 58, 132, 60, 135, 135, 60, 2, 0.376344
114, 3, wb, filler, NA, 999, 999, 6, 27, 109, 96, 195, 80, 183, 77, 3, 7.20684
114, 3, wb, filler, NA, 999, 999, 6, 27, 109, 96, 195, 80, 183, 77, 2, 3.52322
114, 3, wb, attraction, a-b-db, 9, 3, 6, 28, 120, 195, 195, 120, 114, 186, 3, 4.81945
114, 3, wb, attraction, a-b-db, 9, 3, 6, 28, 120, 195, 195, 120, 114, 186, 2, 0.376584
114, 3, wb, filler, NA, 999, 999, 6, 29, 90, 95, 109, 188, 92, 144, 1, 0.927093
114, 3, wb, filler, NA, 999, 999, 6, 29, 90, 95, 109, 188, 92, 144, 2, 0.328804
114, 3, wb, catch, NA, 999, 999, 6, 30, 165, 150, 151, 104, 134, 61, 3, 1.13726
114, 3, wb, catch, NA, 999, 999, 6, 30, 165, 150, 151, 104, 134, 61, 1, 0.674874
114, 3, wb, attraction, a-b-da, 9, 1, 6, 31, 129, 57, 60, 135, 135, 60, 1, 3.38918
114, 3, wb, attraction, a-b-da, 9, 1, 6, 31, 129, 57, 60, 135, 135, 60, 2, 0.603491
114, 3, wb, attraction, a-b-da, 5, 2, 6, 32, 90, 165, 161, 88, 165, 90, 1, 2.16124
114, 3, wb, attraction, a-b-da, 5, 2, 6, 32, 90, 165, 161, 88, 165, 90, 3, 1.11329
114, 3, wb, attraction, a-b-da, 5, 1, 6, 33, 135, 60, 60, 135, 132, 58, 3, 1.89814
114, 3, wb, attraction, a-b-da, 5, 1, 6, 33, 135, 60, 60, 135, 132, 58, 1, 2.80483
114, 3, wb, attraction, a-b-da, 2, 2, 6, 34, 163, 89, 165, 90, 90, 165, 1, 4.00207
114, 3, wb, attraction, a-b-da, 2, 2, 6, 34, 163, 89, 165, 90, 90, 165, 3, 0.432053
114, 3, wb, filler, NA, 999, 999, 6, 35, 169, 81, 160, 164, 95, 101, 3, 1.19649
114, 3, wb, filler, NA, 999, 999, 6, 35, 169, 81, 160, 164, 95, 101, 2, 0.30742
114, 3, wb, filler, NA, 999, 999, 6, 36, 127, 107, 191, 105, 82, 194, 1, 0.76454
114, 3, wb, filler, NA, 999, 999, 6, 36, 127, 107, 191, 105, 82, 194, 2, 0.381044
114, 3, wb, attraction, a-b-da, 9, 3, 6, 37, 186, 114, 195, 120, 120, 195, 1, 2.92345
114, 3, wb, attraction, a-b-da, 9, 3, 6, 37, 186, 114, 195, 120, 120, 195, 3, 1.80453
114, 3, wb, filler, NA, 999, 999, 7, 1, 98, 156, 124, 103, 173, 158, 2, 1.40994
114, 3, wb, filler, NA, 999, 999, 7, 1, 98, 156, 124, 103, 173, 158, 3, 4.96822
114, 3, wb, filler, NA, 999, 999, 7, 2, 128, 107, 103, 184, 182, 107, 1, 1.90977
114, 3, wb, filler, NA, 999, 999, 7, 2, 128, 107, 103, 184, 182, 107, 2, 1.47184
114, 3, wb, filler, NA, 999, 999, 7, 3, 131, 119, 92, 62, 147, 97, 2, 0.730726
114, 3, wb, filler, NA, 999, 999, 7, 3, 131, 119, 92, 62, 147, 97, 1, 0.753016
114, 3, wb, attraction, a-b-da, 9, 3, 7, 4, 186, 114, 195, 120, 120, 195, 3, 2.29215
114, 3, wb, attraction, a-b-da, 9, 3, 7, 4, 186, 114, 195, 120, 120, 195, 2, 0.350653
114, 3, wb, attraction, a-b-db, 2, 1, 7, 5, 59, 134, 60, 135, 135, 60, 1, 1.08663
114, 3, wb, attraction, a-b-db, 2, 1, 7, 5, 59, 134, 60, 135, 135, 60, 3, 0.482207
114, 3, wb, attraction, a-b-db, 14, 3, 7, 6, 195, 120, 120, 195, 111, 181, 2, 0.852633
114, 3, wb, attraction, a-b-db, 14, 3, 7, 6, 195, 120, 120, 195, 111, 181, 1, 0.297688
114, 3, wb, catch, NA, 999, 999, 7, 7, 105, 90, 127, 188, 130, 125, 1, 0.923503
114, 3, wb, catch, NA, 999, 999, 7, 7, 105, 90, 127, 188, 130, 125, 2, 0.277147
114, 3, wb, attraction, a-b-db, 14, 2, 7, 8, 165, 90, 83, 153, 90, 165, 3, 0.807775
114, 3, wb, attraction, a-b-db, 14, 2, 7, 8, 165, 90, 83, 153, 90, 165, 2, 0.51015
114, 3, wb, attraction, a-b-db, 2, 3, 7, 9, 195, 120, 119, 193, 120, 195, 1, 0.703259
114, 3, wb, attraction, a-b-db, 2, 3, 7, 9, 195, 120, 119, 193, 120, 195, 2, 0.41033
114, 3, wb, attraction, a-b-da, 14, 3, 7, 10, 181, 111, 195, 120, 120, 195, 1, 0.783508
114, 3, wb, attraction, a-b-da, 14, 3, 7, 10, 181, 111, 195, 120, 120, 195, 2, 0.527194
114, 3, wb, attraction, a-b-da, 5, 1, 7, 11, 135, 60, 132, 58, 60, 135, 3, 0.879766
114, 3, wb, attraction, a-b-da, 5, 1, 7, 11, 135, 60, 132, 58, 60, 135, 2, 0.563329
114, 3, wb, attraction, a-b-da, 2, 1, 7, 12, 60, 135, 134, 59, 135, 60, 3, 0.698502
114, 3, wb, attraction, a-b-da, 2, 1, 7, 12, 60, 135, 134, 59, 135, 60, 2, 0.413592
114, 3, wb, filler, NA, 999, 999, 7, 13, 117, 146, 144, 190, 182, 69, 1, 3.36275
114, 3, wb, filler, NA, 999, 999, 7, 13, 117, 146, 144, 190, 182, 69, 2, 0.290223
114, 3, wb, attraction, a-b-da, 9, 1, 7, 14, 135, 60, 60, 135, 129, 57, 1, 1.63686
114, 3, wb, attraction, a-b-da, 9, 1, 7, 14, 135, 60, 60, 135, 129, 57, 2, 0.768958
114, 3, wb, catch, NA, 999, 999, 7, 15, 133, 122, 160, 155, 84, 111, 3, 1.0879
114, 3, wb, catch, NA, 999, 999, 7, 15, 133, 122, 160, 155, 84, 111, 2, 0.259069
114, 3, wb, attraction, a-b-da, 9, 2, 7, 16, 165, 90, 157, 86, 90, 165, 3, 0.998032
114, 3, wb, attraction, a-b-da, 9, 2, 7, 16, 165, 90, 157, 86, 90, 165, 2, 0.605157
114, 3, wb, attraction, a-b-db, 9, 2, 7, 17, 90, 165, 165, 90, 86, 157, 3, 0.810914
114, 3, wb, attraction, a-b-db, 9, 2, 7, 17, 90, 165, 165, 90, 86, 157, 2, 0.329244
114, 3, wb, attraction, a-b-db, 5, 1, 7, 18, 135, 60, 58, 132, 60, 135, 1, 0.913683
114, 3, wb, attraction, a-b-db, 5, 1, 7, 18, 135, 60, 58, 132, 60, 135, 2, 0.66004
114, 3, wb, catch, NA, 999, 999, 7, 19, 108, 147, 92, 103, 167, 148, 2, 1.19909
114, 3, wb, catch, NA, 999, 999, 7, 19, 108, 147, 92, 103, 167, 148, 3, 7.81417
114, 3, wb, attraction, a-b-da, 5, 2, 7, 20, 161, 88, 90, 165, 165, 90, 2, 1.67297
114, 3, wb, attraction, a-b-da, 5, 2, 7, 20, 161, 88, 90, 165, 165, 90, 3, 0.620495
114, 3, wb, attraction, a-b-db, 9, 3, 7, 21, 114, 186, 195, 120, 120, 195, 2, 0.681379
114, 3, wb, attraction, a-b-db, 9, 3, 7, 21, 114, 186, 195, 120, 120, 195, 1, 0.365251
114, 3, wb, attraction, a-b-da, 2, 3, 7, 22, 120, 195, 195, 120, 193, 119, 2, 0.732391
114, 3, wb, attraction, a-b-da, 2, 3, 7, 22, 120, 195, 195, 120, 193, 119, 3, 0.382066
114, 3, wb, attraction, a-b-db, 5, 2, 7, 23, 88, 161, 90, 165, 165, 90, 3, 1.18871
114, 3, wb, attraction, a-b-db, 5, 2, 7, 23, 88, 161, 90, 165, 165, 90, 2, 0.331554
114, 3, wb, filler, NA, 999, 999, 7, 24, 122, 107, 156, 87, 56, 188, 1, 6.11622
114, 3, wb, filler, NA, 999, 999, 7, 24, 122, 107, 156, 87, 56, 188, 2, 5.26885
114, 3, wb, filler, NA, 999, 999, 7, 25, 88, 189, 148, 181, 92, 155, 3, 2.51849
114, 3, wb, filler, NA, 999, 999, 7, 25, 88, 189, 148, 181, 92, 155, 2, 0.416276
114, 3, wb, attraction, a-b-db, 14, 1, 7, 26, 60, 135, 135, 60, 56, 125, 3, 1.13341
114, 3, wb, attraction, a-b-db, 14, 1, 7, 26, 60, 135, 135, 60, 56, 125, 1, 0.527117
114, 3, wb, attraction, a-b-da, 14, 2, 7, 27, 153, 83, 90, 165, 165, 90, 3, 0.559569
114, 3, wb, attraction, a-b-da, 14, 2, 7, 27, 153, 83, 90, 165, 165, 90, 2, 0.359921
114, 3, wb, filler, NA, 999, 999, 7, 28, 158, 77, 101, 66, 110, 62, 3, 0.719043
114, 3, wb, filler, NA, 999, 999, 7, 28, 158, 77, 101, 66, 110, 62, 1, 0.481576
114, 3, wb, attraction, a-b-db, 9, 1, 7, 29, 60, 135, 57, 129, 135, 60, 3, 0.684047
114, 3, wb, attraction, a-b-db, 9, 1, 7, 29, 60, 135, 57, 129, 135, 60, 2, 0.895758
114, 3, wb, attraction, a-b-da, 5, 3, 7, 30, 120, 195, 195, 120, 190, 117, 3, 0.713345
114, 3, wb, attraction, a-b-da, 5, 3, 7, 30, 120, 195, 195, 120, 190, 117, 2, 0.603912
114, 3, wb, filler, NA, 999, 999, 7, 31, 147, 75, 179, 73, 150, 99, 1, 1.32955
114, 3, wb, filler, NA, 999, 999, 7, 31, 147, 75, 179, 73, 150, 99, 3, 0.69107
114, 3, wb, attraction, a-b-da, 14, 1, 7, 32, 135, 60, 60, 135, 125, 56, 3, 0.92487
114, 3, wb, attraction, a-b-da, 14, 1, 7, 32, 135, 60, 60, 135, 125, 56, 2, 0.638595
114, 3, wb, filler, NA, 999, 999, 7, 33, 162, 162, 168, 192, 97, 174, 3, 0.907002
114, 3, wb, filler, NA, 999, 999, 7, 33, 162, 162, 168, 192, 97, 174, 2, 0.35744
114, 3, wb, attraction, a-b-db, 5, 3, 7, 34, 120, 195, 117, 190, 195, 120, 1, 0.852446
114, 3, wb, attraction, a-b-db, 5, 3, 7, 34, 120, 195, 117, 190, 195, 120, 2, 0.465519
114, 3, wb, filler, NA, 999, 999, 7, 35, 67, 143, 93, 96, 145, 62, 2, 0.908649
114, 3, wb, filler, NA, 999, 999, 7, 35, 67, 143, 93, 96, 145, 62, 1, 0.407004
114, 3, wb, attraction, a-b-db, 2, 2, 7, 36, 90, 165, 89, 163, 165, 90, 2, 0.84411
114, 3, wb, attraction, a-b-db, 2, 2, 7, 36, 90, 165, 89, 163, 165, 90, 1, 0.361121
114, 3, wb, attraction, a-b-da, 2, 2, 7, 37, 165, 90, 90, 165, 163, 89, 2, 0.664333
114, 3, wb, attraction, a-b-da, 2, 2, 7, 37, 165, 90, 90, 165, 163, 89, 3, 0.41283
114, 3, wb, attraction, a-b-db, 9, 3, 8, 1, 195, 120, 114, 186, 120, 195, 2, 0.449929
114, 3, wb, attraction, a-b-db, 9, 3, 8, 1, 195, 120, 114, 186, 120, 195, 1, 0.711102
114, 3, wb, catch, NA, 999, 999, 8, 2, 72, 123, 129, 126, 162, 153, 2, 0.552128
114, 3, wb, catch, NA, 999, 999, 8, 2, 72, 123, 129, 126, 162, 153, 1, 0.465242
114, 3, wb, filler, NA, 999, 999, 8, 3, 165, 173, 88, 162, 177, 109, 1, 0.780425
114, 3, wb, filler, NA, 999, 999, 8, 3, 165, 173, 88, 162, 177, 109, 2, 0.372237
114, 3, wb, attraction, a-b-db, 5, 3, 8, 4, 195, 120, 117, 190, 120, 195, 3, 0.523348
114, 3, wb, attraction, a-b-db, 5, 3, 8, 4, 195, 120, 117, 190, 120, 195, 2, 0.38113
114, 3, wb, filler, NA, 999, 999, 8, 5, 93, 164, 128, 188, 70, 73, 2, 0.611719
114, 3, wb, filler, NA, 999, 999, 8, 5, 93, 164, 128, 188, 70, 73, 3, 0.570083
114, 3, wb, attraction, a-b-db, 2, 3, 8, 6, 119, 193, 195, 120, 120, 195, 2, 1.24114
114, 3, wb, attraction, a-b-db, 2, 3, 8, 6, 119, 193, 195, 120, 120, 195, 1, 0.702036
114, 3, wb, attraction, a-b-da, 2, 1, 8, 7, 135, 60, 60, 135, 134, 59, 2, 0.543688
114, 3, wb, attraction, a-b-da, 2, 1, 8, 7, 135, 60, 60, 135, 134, 59, 3, 0.537017
114, 3, wb, filler, NA, 999, 999, 8, 8, 93, 100, 99, 143, 75, 163, 2, 0.377422
114, 3, wb, filler, NA, 999, 999, 8, 8, 93, 100, 99, 143, 75, 163, 1, 0.425159
114, 3, wb, filler, NA, 999, 999, 8, 9, 70, 126, 176, 106, 71, 128, 3, 0.749617
114, 3, wb, filler, NA, 999, 999, 8, 9, 70, 126, 176, 106, 71, 128, 2, 0.37479
114, 3, wb, filler, NA, 999, 999, 8, 10, 101, 159, 178, 168, 110, 108, 1, 0.954989
114, 3, wb, filler, NA, 999, 999, 8, 10, 101, 159, 178, 168, 110, 108, 2, 0.445605
114, 3, wb, attraction, a-b-da, 14, 2, 8, 11, 90, 165, 153, 83, 165, 90, 3, 0.401566
114, 3, wb, attraction, a-b-da, 14, 2, 8, 11, 90, 165, 153, 83, 165, 90, 2, 0.440571
114, 3, wb, attraction, a-b-db, 9, 1, 8, 12, 60, 135, 57, 129, 135, 60, 2, 0.812366
114, 3, wb, attraction, a-b-db, 9, 1, 8, 12, 60, 135, 57, 129, 135, 60, 1, 0.61078
114, 3, wb, attraction, a-b-da, 9, 1, 8, 13, 135, 60, 129, 57, 60, 135, 3, 0.599936
114, 3, wb, attraction, a-b-da, 9, 1, 8, 13, 135, 60, 129, 57, 60, 135, 2, 0.422939
114, 3, wb, attraction, a-b-da, 2, 3, 8, 14, 195, 120, 193, 119, 120, 195, 1, 0.660122
114, 3, wb, attraction, a-b-da, 2, 3, 8, 14, 195, 120, 193, 119, 120, 195, 3, 0.360652
114, 3, wb, filler, NA, 999, 999, 8, 15, 115, 132, 129, 101, 177, 116, 3, 0.847726
114, 3, wb, filler, NA, 999, 999, 8, 15, 115, 132, 129, 101, 177, 116, 1, 6.94091
114, 3, wb, attraction, a-b-da, 5, 1, 8, 16, 132, 58, 60, 135, 135, 60, 1, 2.29912
114, 3, wb, attraction, a-b-da, 5, 1, 8, 16, 132, 58, 60, 135, 135, 60, 3, 0.613797
114, 3, wb, attraction, a-b-da, 9, 2, 8, 17, 165, 90, 90, 165, 157, 86, 1, 1.57095
114, 3, wb, attraction, a-b-da, 9, 2, 8, 17, 165, 90, 90, 165, 157, 86, 2, 0.363026
114, 3, wb, filler, NA, 999, 999, 8, 18, 91, 163, 98, 151, 150, 151, 2, 2.95414
114, 3, wb, filler, NA, 999, 999, 8, 18, 91, 163, 98, 151, 150, 151, 3, 0.274556
114, 3, wb, attraction, a-b-da, 5, 2, 8, 19, 90, 165, 161, 88, 165, 90, 2, 1.21306
114, 3, wb, attraction, a-b-da, 5, 2, 8, 19, 90, 165, 161, 88, 165, 90, 3, 0.859416
114, 3, wb, attraction, a-b-db, 5, 1, 8, 20, 60, 135, 58, 132, 135, 60, 2, 0.662439
114, 3, wb, attraction, a-b-db, 5, 1, 8, 20, 60, 135, 58, 132, 135, 60, 3, 0.650763
114, 3, wb, attraction, a-b-da, 14, 3, 8, 21, 195, 120, 120, 195, 181, 111, 1, 0.702409
114, 3, wb, attraction, a-b-da, 14, 3, 8, 21, 195, 120, 120, 195, 181, 111, 2, 0.72173
114, 3, wb, attraction, a-b-da, 2, 2, 8, 22, 165, 90, 90, 165, 163, 89, 3, 0.666705
114, 3, wb, attraction, a-b-da, 2, 2, 8, 22, 165, 90, 90, 165, 163, 89, 2, 0.407193
114, 3, wb, catch, NA, 999, 999, 8, 23, 109, 146, 116, 79, 164, 151, 2, 1.89232
114, 3, wb, catch, NA, 999, 999, 8, 23, 109, 146, 116, 79, 164, 151, 3, 0.382946
114, 3, wb, attraction, a-b-db, 14, 1, 8, 24, 135, 60, 60, 135, 56, 125, 2, 0.925351
114, 3, wb, attraction, a-b-db, 14, 1, 8, 24, 135, 60, 60, 135, 56, 125, 1, 2.03905
114, 3, wb, attraction, a-b-db, 5, 2, 8, 25, 88, 161, 165, 90, 90, 165, 1, 1.6832
114, 3, wb, attraction, a-b-db, 5, 2, 8, 25, 88, 161, 165, 90, 90, 165, 2, 0.366634
114, 3, wb, filler, NA, 999, 999, 8, 26, 108, 67, 151, 83, 136, 109, 1, 0.861824
114, 3, wb, filler, NA, 999, 999, 8, 26, 108, 67, 151, 83, 136, 109, 3, 0.498287
114, 3, wb, filler, NA, 999, 999, 8, 27, 128, 93, 177, 142, 158, 169, 1, 0.995934
114, 3, wb, filler, NA, 999, 999, 8, 27, 128, 93, 177, 142, 158, 169, 3, 0.410903
114, 3, wb, attraction, a-b-db, 14, 2, 8, 28, 83, 153, 90, 165, 165, 90, 1, 2.28
114, 3, wb, attraction, a-b-db, 14, 2, 8, 28, 83, 153, 90, 165, 165, 90, 2, 0.451345
114, 3, wb, attraction, a-b-db, 9, 2, 8, 29, 86, 157, 90, 165, 165, 90, 1, 1.19106
114, 3, wb, attraction, a-b-db, 9, 2, 8, 29, 86, 157, 90, 165, 165, 90, 2, 0.350122
114, 3, wb, attraction, a-b-db, 14, 3, 8, 30, 120, 195, 111, 181, 195, 120, 2, 1.88584
114, 3, wb, attraction, a-b-db, 14, 3, 8, 30, 120, 195, 111, 181, 195, 120, 3, 0.721195
114, 3, wb, catch, NA, 999, 999, 8, 31, 133, 182, 84, 111, 126, 129, 2, 0.642326
114, 3, wb, catch, NA, 999, 999, 8, 31, 133, 182, 84, 111, 126, 129, 1, 0.303402
114, 3, wb, filler, NA, 999, 999, 8, 32, 59, 167, 136, 104, 190, 88, 1, 1.10521
114, 3, wb, filler, NA, 999, 999, 8, 32, 59, 167, 136, 104, 190, 88, 3, 3.22761
114, 3, wb, attraction, a-b-da, 14, 1, 8, 33, 60, 135, 125, 56, 135, 60, 1, 1.43118
114, 3, wb, attraction, a-b-da, 14, 1, 8, 33, 60, 135, 125, 56, 135, 60, 3, 0.628699
114, 3, wb, attraction, a-b-da, 5, 3, 8, 34, 195, 120, 120, 195, 190, 117, 1, 6.84919
114, 3, wb, attraction, a-b-da, 5, 3, 8, 34, 195, 120, 120, 195, 190, 117, 2, 0.772271
114, 3, wb, attraction, a-b-db, 2, 2, 8, 35, 90, 165, 165, 90, 89, 163, 1, 2.98743
114, 3, wb, attraction, a-b-db, 2, 2, 8, 35, 90, 165, 165, 90, 89, 163, 2, 3.50633
114, 3, wb, attraction, a-b-db, 2, 1, 8, 36, 60, 135, 59, 134, 135, 60, 1, 0.971079
114, 3, wb, attraction, a-b-db, 2, 1, 8, 36, 60, 135, 59, 134, 135, 60, 2, 0.290774
114, 3, wb, attraction, a-b-da, 9, 3, 8, 37, 195, 120, 120, 195, 186, 114, 1, 1.25265
114, 3, wb, attraction, a-b-da, 9, 3, 8, 37, 195, 120, 120, 195, 186, 114, 2, 0.345498
