sub_n, computer_n, bw_cond, effect, set, distance, diag, block_n, trial_n, h1, w1, h2, w2, h3, w3, choice, rt 
177, 3, bw, practice, NA, 999, 999, 0, 1, 153, 61, 121, 178, 156, 159, 2, 10.2485
177, 3, bw, practice, NA, 999, 999, 0, 1, 153, 61, 121, 178, 156, 159, 1, 2.6266
177, 3, bw, practice, NA, 999, 999, 0, 2, 62, 104, 59, 59, 107, 73, 3, 2.53163
177, 3, bw, practice, NA, 999, 999, 0, 2, 62, 104, 59, 59, 107, 73, 2, 1.70202
177, 3, bw, practice, NA, 999, 999, 0, 3, 161, 65, 153, 131, 83, 73, 2, 3.20322
177, 3, bw, practice, NA, 999, 999, 0, 3, 161, 65, 153, 131, 83, 73, 3, 2.36262
177, 3, bw, attraction, a-b-db, 5, 1, 1, 1, 60, 135, 58, 132, 135, 60, 1, 4.5671
177, 3, bw, attraction, a-b-db, 5, 1, 1, 1, 60, 135, 58, 132, 135, 60, 3, 1.91035
177, 3, bw, attraction, a-b-da, 9, 3, 1, 2, 195, 120, 186, 114, 120, 195, 3, 3.15104
177, 3, bw, attraction, a-b-da, 9, 3, 1, 2, 195, 120, 186, 114, 120, 195, 2, 1.59926
177, 3, bw, attraction, a-b-da, 9, 1, 1, 3, 60, 135, 129, 57, 135, 60, 1, 2.59666
177, 3, bw, attraction, a-b-da, 9, 1, 1, 3, 60, 135, 129, 57, 135, 60, 2, 0.939212
177, 3, bw, attraction, a-b-da, 14, 1, 1, 4, 125, 56, 60, 135, 135, 60, 3, 2.3076
177, 3, bw, attraction, a-b-da, 14, 1, 1, 4, 125, 56, 60, 135, 135, 60, 1, 0.885523
177, 3, bw, filler, NA, 999, 999, 1, 5, 151, 150, 194, 191, 188, 103, 2, 2.89588
177, 3, bw, filler, NA, 999, 999, 1, 5, 151, 150, 194, 191, 188, 103, 3, 1.9303
177, 3, bw, attraction, a-b-da, 2, 2, 1, 6, 165, 90, 163, 89, 90, 165, 3, 1.63414
177, 3, bw, attraction, a-b-da, 2, 2, 1, 6, 165, 90, 163, 89, 90, 165, 2, 1.03959
177, 3, bw, attraction, a-b-db, 9, 1, 1, 7, 135, 60, 60, 135, 57, 129, 2, 2.98783
177, 3, bw, attraction, a-b-db, 9, 1, 1, 7, 135, 60, 60, 135, 57, 129, 3, 1.66699
177, 3, bw, attraction, a-b-da, 5, 2, 1, 8, 161, 88, 165, 90, 90, 165, 1, 1.98974
177, 3, bw, attraction, a-b-da, 5, 2, 1, 8, 161, 88, 165, 90, 90, 165, 2, 1.82033
177, 3, bw, filler, NA, 999, 999, 1, 9, 71, 104, 123, 175, 125, 79, 2, 1.72102
177, 3, bw, filler, NA, 999, 999, 1, 9, 71, 104, 123, 175, 125, 79, 1, 1.61914
177, 3, bw, attraction, a-b-da, 14, 3, 1, 10, 195, 120, 120, 195, 181, 111, 1, 1.91994
177, 3, bw, attraction, a-b-da, 14, 3, 1, 10, 195, 120, 120, 195, 181, 111, 3, 1.54607
177, 3, bw, catch, NA, 999, 999, 1, 11, 128, 187, 154, 101, 116, 79, 1, 2.80951
177, 3, bw, catch, NA, 999, 999, 1, 11, 128, 187, 154, 101, 116, 79, 3, 0.879243
177, 3, bw, attraction, a-b-da, 9, 2, 1, 12, 157, 86, 165, 90, 90, 165, 3, 1.4175
177, 3, bw, attraction, a-b-da, 9, 2, 1, 12, 157, 86, 165, 90, 90, 165, 2, 1.32786
177, 3, bw, attraction, a-b-db, 2, 2, 1, 13, 89, 163, 90, 165, 165, 90, 2, 1.99987
177, 3, bw, attraction, a-b-db, 2, 2, 1, 13, 89, 163, 90, 165, 165, 90, 1, 1.33459
177, 3, bw, filler, NA, 999, 999, 1, 14, 164, 185, 145, 139, 183, 74, 1, 1.43873
177, 3, bw, filler, NA, 999, 999, 1, 14, 164, 185, 145, 139, 183, 74, 3, 1.17964
177, 3, bw, attraction, a-b-db, 9, 3, 1, 15, 120, 195, 195, 120, 114, 186, 3, 2.14604
177, 3, bw, attraction, a-b-db, 9, 3, 1, 15, 120, 195, 195, 120, 114, 186, 2, 1.13069
177, 3, bw, attraction, a-b-db, 2, 3, 1, 16, 120, 195, 195, 120, 119, 193, 3, 1.27488
177, 3, bw, attraction, a-b-db, 2, 3, 1, 16, 120, 195, 195, 120, 119, 193, 2, 2.48645
177, 3, bw, filler, NA, 999, 999, 1, 17, 75, 144, 147, 190, 57, 121, 2, 1.3442
177, 3, bw, filler, NA, 999, 999, 1, 17, 75, 144, 147, 190, 57, 121, 3, 0.585227
177, 3, bw, filler, NA, 999, 999, 1, 18, 150, 149, 151, 103, 158, 86, 1, 1.31155
177, 3, bw, filler, NA, 999, 999, 1, 18, 150, 149, 151, 103, 158, 86, 3, 1.26577
177, 3, bw, attraction, a-b-db, 14, 3, 1, 19, 195, 120, 111, 181, 120, 195, 3, 1.95667
177, 3, bw, attraction, a-b-db, 14, 3, 1, 19, 195, 120, 111, 181, 120, 195, 2, 1.26866
177, 3, bw, attraction, a-b-da, 2, 3, 1, 20, 195, 120, 193, 119, 120, 195, 3, 1.53546
177, 3, bw, attraction, a-b-da, 2, 3, 1, 20, 195, 120, 193, 119, 120, 195, 2, 1.88909
177, 3, bw, filler, NA, 999, 999, 1, 21, 128, 182, 141, 63, 60, 93, 1, 1.29127
177, 3, bw, filler, NA, 999, 999, 1, 21, 128, 182, 141, 63, 60, 93, 3, 0.990096
177, 3, bw, attraction, a-b-db, 2, 1, 1, 22, 59, 134, 60, 135, 135, 60, 1, 2.1157
177, 3, bw, attraction, a-b-db, 2, 1, 1, 22, 59, 134, 60, 135, 135, 60, 3, 2.28559
177, 3, bw, attraction, a-b-db, 5, 3, 1, 23, 117, 190, 195, 120, 120, 195, 3, 1.83153
177, 3, bw, attraction, a-b-db, 5, 3, 1, 23, 117, 190, 195, 120, 120, 195, 2, 1.18094
177, 3, bw, filler, NA, 999, 999, 1, 24, 72, 134, 167, 94, 194, 187, 3, 1.3631
177, 3, bw, filler, NA, 999, 999, 1, 24, 72, 134, 167, 94, 194, 187, 1, 1.24326
177, 3, bw, attraction, a-b-da, 2, 1, 1, 25, 60, 135, 135, 60, 134, 59, 1, 2.5748
177, 3, bw, attraction, a-b-da, 2, 1, 1, 25, 60, 135, 135, 60, 134, 59, 3, 0.806148
177, 3, bw, attraction, a-b-da, 5, 3, 1, 26, 195, 120, 120, 195, 190, 117, 2, 1.45968
177, 3, bw, attraction, a-b-da, 5, 3, 1, 26, 195, 120, 120, 195, 190, 117, 3, 0.935961
177, 3, bw, attraction, a-b-da, 14, 2, 1, 27, 165, 90, 90, 165, 153, 83, 2, 2.17631
177, 3, bw, attraction, a-b-da, 14, 2, 1, 27, 165, 90, 90, 165, 153, 83, 3, 0.911702
177, 3, bw, catch, NA, 999, 999, 1, 28, 150, 165, 100, 155, 85, 110, 1, 1.39256
177, 3, bw, catch, NA, 999, 999, 1, 28, 150, 165, 100, 155, 85, 110, 3, 0.535357
177, 3, bw, attraction, a-b-db, 14, 2, 1, 29, 83, 153, 165, 90, 90, 165, 3, 1.31189
177, 3, bw, attraction, a-b-db, 14, 2, 1, 29, 83, 153, 165, 90, 90, 165, 1, 1.45021
177, 3, bw, attraction, a-b-db, 5, 2, 1, 30, 90, 165, 165, 90, 88, 161, 1, 1.41363
177, 3, bw, attraction, a-b-db, 5, 2, 1, 30, 90, 165, 165, 90, 88, 161, 3, 0.819807
177, 3, bw, filler, NA, 999, 999, 1, 31, 96, 167, 138, 154, 121, 116, 2, 0.888752
177, 3, bw, filler, NA, 999, 999, 1, 31, 96, 167, 138, 154, 121, 116, 3, 0.876029
177, 3, bw, attraction, a-b-db, 14, 1, 1, 32, 135, 60, 60, 135, 56, 125, 2, 1.30204
177, 3, bw, attraction, a-b-db, 14, 1, 1, 32, 135, 60, 60, 135, 56, 125, 1, 0.641008
177, 3, bw, attraction, a-b-da, 5, 1, 1, 33, 60, 135, 135, 60, 132, 58, 1, 3.92485
177, 3, bw, attraction, a-b-da, 5, 1, 1, 33, 60, 135, 135, 60, 132, 58, 3, 0.629735
177, 3, bw, filler, NA, 999, 999, 1, 34, 155, 97, 151, 174, 138, 114, 2, 0.79388
177, 3, bw, filler, NA, 999, 999, 1, 34, 155, 97, 151, 174, 138, 114, 1, 0.881058
177, 3, bw, catch, NA, 999, 999, 1, 35, 114, 141, 144, 171, 70, 125, 2, 1.41929
177, 3, bw, catch, NA, 999, 999, 1, 35, 114, 141, 144, 171, 70, 125, 3, 1.38551
177, 3, bw, attraction, a-b-db, 9, 2, 1, 36, 165, 90, 90, 165, 86, 157, 3, 1.27159
177, 3, bw, attraction, a-b-db, 9, 2, 1, 36, 165, 90, 90, 165, 86, 157, 1, 1.25185
177, 3, bw, filler, NA, 999, 999, 1, 37, 162, 59, 161, 145, 180, 93, 2, 1.25549
177, 3, bw, filler, NA, 999, 999, 1, 37, 162, 59, 161, 145, 180, 93, 1, 0.63579
177, 3, bw, attraction, a-b-da, 2, 2, 2, 1, 165, 90, 163, 89, 90, 165, 3, 1.82428
177, 3, bw, attraction, a-b-da, 2, 2, 2, 1, 165, 90, 163, 89, 90, 165, 2, 0.757622
177, 3, bw, attraction, a-b-db, 9, 3, 2, 2, 114, 186, 120, 195, 195, 120, 3, 0.876889
177, 3, bw, attraction, a-b-db, 9, 3, 2, 2, 114, 186, 120, 195, 195, 120, 1, 2.96832
177, 3, bw, filler, NA, 999, 999, 2, 3, 130, 188, 76, 105, 122, 176, 1, 2.16674
177, 3, bw, filler, NA, 999, 999, 2, 3, 130, 188, 76, 105, 122, 176, 2, 0.50276
177, 3, bw, attraction, a-b-db, 5, 2, 2, 4, 88, 161, 165, 90, 90, 165, 3, 1.8725
177, 3, bw, attraction, a-b-db, 5, 2, 2, 4, 88, 161, 165, 90, 90, 165, 1, 0.459816
177, 3, bw, filler, NA, 999, 999, 2, 5, 162, 168, 110, 187, 69, 148, 1, 1.2629
177, 3, bw, filler, NA, 999, 999, 2, 5, 162, 168, 110, 187, 69, 148, 3, 1.1231
177, 3, bw, attraction, a-b-da, 14, 2, 2, 6, 165, 90, 153, 83, 90, 165, 3, 1.22798
177, 3, bw, attraction, a-b-da, 14, 2, 2, 6, 165, 90, 153, 83, 90, 165, 2, 1.17772
177, 3, bw, catch, NA, 999, 999, 2, 7, 148, 107, 193, 122, 110, 85, 2, 1.14382
177, 3, bw, catch, NA, 999, 999, 2, 7, 148, 107, 193, 122, 110, 85, 3, 0.584761
177, 3, bw, attraction, a-b-db, 14, 1, 2, 8, 56, 125, 135, 60, 60, 135, 3, 2.23923
177, 3, bw, attraction, a-b-db, 14, 1, 2, 8, 56, 125, 135, 60, 60, 135, 2, 0.452077
177, 3, bw, attraction, a-b-db, 2, 2, 2, 9, 90, 165, 89, 163, 165, 90, 3, 0.983701
177, 3, bw, attraction, a-b-db, 2, 2, 2, 9, 90, 165, 89, 163, 165, 90, 2, 1.76737
177, 3, bw, filler, NA, 999, 999, 2, 10, 175, 86, 87, 78, 85, 73, 1, 1.23004
177, 3, bw, filler, NA, 999, 999, 2, 10, 175, 86, 87, 78, 85, 73, 3, 1.25163
177, 3, bw, filler, NA, 999, 999, 2, 11, 58, 68, 166, 56, 113, 190, 3, 0.999193
177, 3, bw, filler, NA, 999, 999, 2, 11, 58, 68, 166, 56, 113, 190, 1, 0.81414
177, 3, bw, filler, NA, 999, 999, 2, 12, 80, 82, 97, 56, 143, 158, 3, 0.971258
177, 3, bw, filler, NA, 999, 999, 2, 12, 80, 82, 97, 56, 143, 158, 2, 0.658854
177, 3, bw, filler, NA, 999, 999, 2, 13, 117, 194, 194, 168, 140, 70, 2, 1.83799
177, 3, bw, filler, NA, 999, 999, 2, 13, 117, 194, 194, 168, 140, 70, 3, 0.826618
177, 3, bw, attraction, a-b-da, 2, 1, 2, 14, 135, 60, 134, 59, 60, 135, 3, 2.86295
177, 3, bw, attraction, a-b-da, 2, 1, 2, 14, 135, 60, 134, 59, 60, 135, 2, 1.0107
177, 3, bw, attraction, a-b-db, 2, 1, 2, 15, 60, 135, 59, 134, 135, 60, 2, 3.73575
177, 3, bw, attraction, a-b-db, 2, 1, 2, 15, 60, 135, 59, 134, 135, 60, 1, 0.824517
177, 3, bw, attraction, a-b-db, 5, 1, 2, 16, 60, 135, 58, 132, 135, 60, 3, 1.29289
177, 3, bw, attraction, a-b-db, 5, 1, 2, 16, 60, 135, 58, 132, 135, 60, 2, 1.58383
177, 3, bw, attraction, a-b-da, 9, 2, 2, 17, 90, 165, 157, 86, 165, 90, 1, 1.68597
177, 3, bw, attraction, a-b-da, 9, 2, 2, 17, 90, 165, 157, 86, 165, 90, 2, 1.76934
177, 3, bw, filler, NA, 999, 999, 2, 18, 70, 117, 112, 146, 137, 128, 2, 1.13611
177, 3, bw, filler, NA, 999, 999, 2, 18, 70, 117, 112, 146, 137, 128, 1, 0.865656
177, 3, bw, attraction, a-b-da, 14, 1, 2, 19, 125, 56, 60, 135, 135, 60, 3, 1.52471
177, 3, bw, attraction, a-b-da, 14, 1, 2, 19, 125, 56, 60, 135, 135, 60, 2, 0.51026
177, 3, bw, attraction, a-b-da, 5, 1, 2, 20, 135, 60, 132, 58, 60, 135, 3, 1.76742
177, 3, bw, attraction, a-b-da, 5, 1, 2, 20, 135, 60, 132, 58, 60, 135, 2, 0.599457
177, 3, bw, catch, NA, 999, 999, 2, 21, 109, 146, 100, 95, 165, 150, 3, 1.61324
177, 3, bw, catch, NA, 999, 999, 2, 21, 109, 146, 100, 95, 165, 150, 2, 1.45142
177, 3, bw, attraction, a-b-da, 9, 3, 2, 22, 120, 195, 195, 120, 186, 114, 1, 1.07874
177, 3, bw, attraction, a-b-da, 9, 3, 2, 22, 120, 195, 195, 120, 186, 114, 3, 0.802362
177, 3, bw, attraction, a-b-da, 2, 3, 2, 23, 120, 195, 195, 120, 193, 119, 1, 1.12808
177, 3, bw, attraction, a-b-da, 2, 3, 2, 23, 120, 195, 195, 120, 193, 119, 3, 0.577808
177, 3, bw, attraction, a-b-db, 14, 2, 2, 24, 83, 153, 90, 165, 165, 90, 2, 1.59211
177, 3, bw, attraction, a-b-db, 14, 2, 2, 24, 83, 153, 90, 165, 165, 90, 3, 0.702926
177, 3, bw, filler, NA, 999, 999, 2, 25, 143, 187, 67, 138, 63, 106, 1, 0.696769
177, 3, bw, filler, NA, 999, 999, 2, 25, 143, 187, 67, 138, 63, 106, 3, 0.50775
177, 3, bw, attraction, a-b-da, 5, 3, 2, 26, 195, 120, 190, 117, 120, 195, 3, 1.26101
177, 3, bw, attraction, a-b-da, 5, 3, 2, 26, 195, 120, 190, 117, 120, 195, 2, 0.401047
177, 3, bw, attraction, a-b-db, 9, 1, 2, 27, 57, 129, 60, 135, 135, 60, 1, 0.990935
177, 3, bw, attraction, a-b-db, 9, 1, 2, 27, 57, 129, 60, 135, 135, 60, 3, 0.845985
177, 3, bw, attraction, a-b-da, 5, 2, 2, 28, 90, 165, 165, 90, 161, 88, 1, 0.793707
177, 3, bw, attraction, a-b-da, 5, 2, 2, 28, 90, 165, 165, 90, 161, 88, 3, 0.88874
177, 3, bw, attraction, a-b-da, 9, 1, 2, 29, 129, 57, 60, 135, 135, 60, 3, 1.10695
177, 3, bw, attraction, a-b-da, 9, 1, 2, 29, 129, 57, 60, 135, 135, 60, 1, 0.965402
177, 3, bw, filler, NA, 999, 999, 2, 30, 99, 77, 141, 174, 94, 92, 2, 0.668203
177, 3, bw, filler, NA, 999, 999, 2, 30, 99, 77, 141, 174, 94, 92, 1, 0.688707
177, 3, bw, attraction, a-b-db, 14, 3, 2, 31, 195, 120, 111, 181, 120, 195, 1, 1.08314
177, 3, bw, attraction, a-b-db, 14, 3, 2, 31, 195, 120, 111, 181, 120, 195, 2, 0.782787
177, 3, bw, attraction, a-b-db, 9, 2, 2, 32, 86, 157, 165, 90, 90, 165, 1, 1.55715
177, 3, bw, attraction, a-b-db, 9, 2, 2, 32, 86, 157, 165, 90, 90, 165, 3, 0.781217
177, 3, bw, filler, NA, 999, 999, 2, 33, 191, 88, 147, 105, 88, 185, 3, 2.38765
177, 3, bw, filler, NA, 999, 999, 2, 33, 191, 88, 147, 105, 88, 185, 1, 0.570959
177, 3, bw, attraction, a-b-db, 2, 3, 2, 34, 120, 195, 195, 120, 119, 193, 1, 5.20197
177, 3, bw, attraction, a-b-db, 2, 3, 2, 34, 120, 195, 195, 120, 119, 193, 2, 0.791674
177, 3, bw, attraction, a-b-db, 5, 3, 2, 35, 195, 120, 117, 190, 120, 195, 1, 0.805356
177, 3, bw, attraction, a-b-db, 5, 3, 2, 35, 195, 120, 117, 190, 120, 195, 3, 0.883648
177, 3, bw, catch, NA, 999, 999, 2, 36, 122, 133, 190, 125, 65, 130, 2, 2.70205
177, 3, bw, catch, NA, 999, 999, 2, 36, 122, 133, 190, 125, 65, 130, 3, 0.512465
177, 3, bw, attraction, a-b-da, 14, 3, 2, 37, 181, 111, 120, 195, 195, 120, 3, 0.929642
177, 3, bw, attraction, a-b-da, 14, 3, 2, 37, 181, 111, 120, 195, 195, 120, 2, 0.907242
177, 3, bw, attraction, a-b-db, 2, 3, 3, 1, 120, 195, 119, 193, 195, 120, 3, 0.92434
177, 3, bw, attraction, a-b-db, 2, 3, 3, 1, 120, 195, 119, 193, 195, 120, 2, 0.957996
177, 3, bw, filler, NA, 999, 999, 3, 2, 177, 148, 161, 156, 122, 70, 1, 2.18885
177, 3, bw, filler, NA, 999, 999, 3, 2, 177, 148, 161, 156, 122, 70, 3, 0.531705
177, 3, bw, attraction, a-b-db, 14, 2, 3, 3, 83, 153, 165, 90, 90, 165, 3, 1.42007
177, 3, bw, attraction, a-b-db, 14, 2, 3, 3, 83, 153, 165, 90, 90, 165, 2, 0.466192
177, 3, bw, attraction, a-b-da, 9, 1, 3, 4, 135, 60, 60, 135, 129, 57, 2, 1.08531
177, 3, bw, attraction, a-b-da, 9, 1, 3, 4, 135, 60, 60, 135, 129, 57, 1, 0.744994
177, 3, bw, attraction, a-b-da, 14, 3, 3, 5, 195, 120, 120, 195, 181, 111, 3, 0.888843
177, 3, bw, attraction, a-b-da, 14, 3, 3, 5, 195, 120, 120, 195, 181, 111, 1, 2.29966
177, 3, bw, catch, NA, 999, 999, 3, 6, 138, 117, 100, 95, 126, 189, 3, 1.29289
177, 3, bw, catch, NA, 999, 999, 3, 6, 138, 117, 100, 95, 126, 189, 2, 0.975908
177, 3, bw, catch, NA, 999, 999, 3, 7, 70, 125, 162, 153, 92, 163, 2, 0.806079
177, 3, bw, catch, NA, 999, 999, 3, 7, 70, 125, 162, 153, 92, 163, 1, 0.564626
177, 3, bw, attraction, a-b-db, 14, 1, 3, 8, 56, 125, 135, 60, 60, 135, 3, 0.803595
177, 3, bw, attraction, a-b-db, 14, 1, 3, 8, 56, 125, 135, 60, 60, 135, 1, 0.878826
177, 3, bw, attraction, a-b-da, 5, 2, 3, 9, 165, 90, 90, 165, 161, 88, 2, 0.820948
177, 3, bw, attraction, a-b-da, 5, 2, 3, 9, 165, 90, 90, 165, 161, 88, 1, 0.787308
177, 3, bw, attraction, a-b-da, 14, 1, 3, 10, 125, 56, 135, 60, 60, 135, 2, 1.29769
177, 3, bw, attraction, a-b-da, 14, 1, 3, 10, 125, 56, 135, 60, 60, 135, 1, 1.19662
177, 3, bw, filler, NA, 999, 999, 3, 11, 146, 171, 104, 153, 170, 131, 1, 0.850207
177, 3, bw, filler, NA, 999, 999, 3, 11, 146, 171, 104, 153, 170, 131, 2, 1.23931
177, 3, bw, attraction, a-b-da, 2, 1, 3, 12, 134, 59, 135, 60, 60, 135, 3, 1.2755
177, 3, bw, attraction, a-b-da, 2, 1, 3, 12, 134, 59, 135, 60, 60, 135, 1, 0.671062
177, 3, bw, catch, NA, 999, 999, 3, 13, 141, 174, 144, 111, 103, 92, 1, 0.954161
177, 3, bw, catch, NA, 999, 999, 3, 13, 141, 174, 144, 111, 103, 92, 3, 0.54709
177, 3, bw, attraction, a-b-db, 2, 1, 3, 14, 59, 134, 135, 60, 60, 135, 1, 2.54691
177, 3, bw, attraction, a-b-db, 2, 1, 3, 14, 59, 134, 135, 60, 60, 135, 2, 0.691568
177, 3, bw, attraction, a-b-da, 2, 3, 3, 15, 195, 120, 120, 195, 193, 119, 1, 1.34119
177, 3, bw, attraction, a-b-da, 2, 3, 3, 15, 195, 120, 120, 195, 193, 119, 2, 0.422031
177, 3, bw, attraction, a-b-da, 2, 2, 3, 16, 90, 165, 165, 90, 163, 89, 1, 1.58742
177, 3, bw, attraction, a-b-da, 2, 2, 3, 16, 90, 165, 165, 90, 163, 89, 2, 0.546692
177, 3, bw, filler, NA, 999, 999, 3, 17, 160, 177, 118, 76, 67, 166, 1, 1.59447
177, 3, bw, filler, NA, 999, 999, 3, 17, 160, 177, 118, 76, 67, 166, 3, 1.77728
177, 3, bw, attraction, a-b-db, 2, 2, 3, 18, 89, 163, 165, 90, 90, 165, 1, 1.56731
177, 3, bw, attraction, a-b-db, 2, 2, 3, 18, 89, 163, 165, 90, 90, 165, 2, 1.1435
177, 3, bw, attraction, a-b-da, 14, 2, 3, 19, 153, 83, 90, 165, 165, 90, 1, 2.32719
177, 3, bw, attraction, a-b-da, 14, 2, 3, 19, 153, 83, 90, 165, 165, 90, 3, 1.59221
177, 3, bw, attraction, a-b-da, 5, 3, 3, 20, 190, 117, 120, 195, 195, 120, 1, 0.925686
177, 3, bw, attraction, a-b-da, 5, 3, 3, 20, 190, 117, 120, 195, 195, 120, 3, 1.15149
177, 3, bw, filler, NA, 999, 999, 3, 21, 143, 109, 78, 71, 63, 65, 1, 1.26308
177, 3, bw, filler, NA, 999, 999, 3, 21, 143, 109, 78, 71, 63, 65, 3, 0.547302
177, 3, bw, attraction, a-b-da, 9, 2, 3, 22, 165, 90, 157, 86, 90, 165, 3, 1.21102
177, 3, bw, attraction, a-b-da, 9, 2, 3, 22, 165, 90, 157, 86, 90, 165, 2, 1.11332
177, 3, bw, attraction, a-b-db, 5, 2, 3, 23, 90, 165, 165, 90, 88, 161, 1, 0.810185
177, 3, bw, attraction, a-b-db, 5, 2, 3, 23, 90, 165, 165, 90, 88, 161, 2, 1.15258
177, 3, bw, filler, NA, 999, 999, 3, 24, 149, 81, 165, 159, 80, 176, 2, 2.46423
177, 3, bw, filler, NA, 999, 999, 3, 24, 149, 81, 165, 159, 80, 176, 1, 0.508049
177, 3, bw, filler, NA, 999, 999, 3, 25, 86, 115, 182, 165, 86, 108, 2, 0.877172
177, 3, bw, filler, NA, 999, 999, 3, 25, 86, 115, 182, 165, 86, 108, 1, 0.616817
177, 3, bw, attraction, a-b-db, 9, 1, 3, 26, 57, 129, 60, 135, 135, 60, 3, 0.81397
177, 3, bw, attraction, a-b-db, 9, 1, 3, 26, 57, 129, 60, 135, 135, 60, 1, 0.644222
177, 3, bw, filler, NA, 999, 999, 3, 27, 171, 59, 81, 116, 179, 169, 3, 0.887955
177, 3, bw, filler, NA, 999, 999, 3, 27, 171, 59, 81, 116, 179, 169, 1, 2.01966
177, 3, bw, attraction, a-b-db, 9, 3, 3, 28, 195, 120, 120, 195, 114, 186, 2, 1.57651
177, 3, bw, attraction, a-b-db, 9, 3, 3, 28, 195, 120, 120, 195, 114, 186, 3, 1.27184
177, 3, bw, attraction, a-b-db, 5, 3, 3, 29, 120, 195, 117, 190, 195, 120, 3, 0.962775
177, 3, bw, attraction, a-b-db, 5, 3, 3, 29, 120, 195, 117, 190, 195, 120, 1, 0.523004
177, 3, bw, attraction, a-b-db, 14, 3, 3, 30, 195, 120, 111, 181, 120, 195, 3, 1.64419
177, 3, bw, attraction, a-b-db, 14, 3, 3, 30, 195, 120, 111, 181, 120, 195, 1, 0.817063
177, 3, bw, attraction, a-b-da, 5, 1, 3, 31, 132, 58, 135, 60, 60, 135, 3, 1.37401
177, 3, bw, attraction, a-b-da, 5, 1, 3, 31, 132, 58, 135, 60, 60, 135, 1, 0.741495
177, 3, bw, attraction, a-b-db, 9, 2, 3, 32, 165, 90, 86, 157, 90, 165, 3, 1.49339
177, 3, bw, attraction, a-b-db, 9, 2, 3, 32, 165, 90, 86, 157, 90, 165, 2, 0.848145
177, 3, bw, filler, NA, 999, 999, 3, 33, 189, 109, 186, 152, 184, 142, 2, 1.21968
177, 3, bw, filler, NA, 999, 999, 3, 33, 189, 109, 186, 152, 184, 142, 1, 0.770098
177, 3, bw, filler, NA, 999, 999, 3, 34, 120, 57, 68, 126, 155, 118, 3, 1.12116
177, 3, bw, filler, NA, 999, 999, 3, 34, 120, 57, 68, 126, 155, 118, 1, 0.538678
177, 3, bw, attraction, a-b-db, 5, 1, 3, 35, 60, 135, 135, 60, 58, 132, 1, 2.12313
177, 3, bw, attraction, a-b-db, 5, 1, 3, 35, 60, 135, 135, 60, 58, 132, 3, 0.484593
177, 3, bw, filler, NA, 999, 999, 3, 36, 145, 75, 192, 82, 179, 168, 3, 0.950829
177, 3, bw, filler, NA, 999, 999, 3, 36, 145, 75, 192, 82, 179, 168, 1, 0.911861
177, 3, bw, attraction, a-b-da, 9, 3, 3, 37, 195, 120, 186, 114, 120, 195, 1, 1.17698
177, 3, bw, attraction, a-b-da, 9, 3, 3, 37, 195, 120, 186, 114, 120, 195, 2, 1.21657
177, 3, bw, attraction, a-b-da, 2, 2, 4, 1, 163, 89, 165, 90, 90, 165, 3, 1.33338
177, 3, bw, attraction, a-b-da, 2, 2, 4, 1, 163, 89, 165, 90, 90, 165, 2, 0.391019
177, 3, bw, filler, NA, 999, 999, 4, 2, 184, 122, 81, 151, 128, 83, 1, 0.860811
177, 3, bw, filler, NA, 999, 999, 4, 2, 184, 122, 81, 151, 128, 83, 3, 0.617147
177, 3, bw, attraction, a-b-da, 14, 2, 4, 3, 90, 165, 165, 90, 153, 83, 1, 0.758274
177, 3, bw, attraction, a-b-da, 14, 2, 4, 3, 90, 165, 165, 90, 153, 83, 3, 0.678607
177, 3, bw, attraction, a-b-da, 2, 1, 4, 4, 135, 60, 134, 59, 60, 135, 3, 0.969053
177, 3, bw, attraction, a-b-da, 2, 1, 4, 4, 135, 60, 134, 59, 60, 135, 2, 0.513372
177, 3, bw, attraction, a-b-db, 9, 1, 4, 5, 60, 135, 57, 129, 135, 60, 3, 1.37055
177, 3, bw, attraction, a-b-db, 9, 1, 4, 5, 60, 135, 57, 129, 135, 60, 2, 0.466638
177, 3, bw, attraction, a-b-db, 14, 2, 4, 6, 165, 90, 83, 153, 90, 165, 1, 1.06992
177, 3, bw, attraction, a-b-db, 14, 2, 4, 6, 165, 90, 83, 153, 90, 165, 2, 0.626152
177, 3, bw, filler, NA, 999, 999, 4, 7, 101, 132, 77, 82, 66, 130, 1, 1.00646
177, 3, bw, filler, NA, 999, 999, 4, 7, 101, 132, 77, 82, 66, 130, 2, 0.933012
177, 3, bw, filler, NA, 999, 999, 4, 8, 117, 75, 165, 125, 126, 192, 3, 0.965122
177, 3, bw, filler, NA, 999, 999, 4, 8, 117, 75, 165, 125, 126, 192, 1, 0.517595
177, 3, bw, attraction, a-b-da, 2, 3, 4, 9, 120, 195, 195, 120, 193, 119, 3, 0.678666
177, 3, bw, attraction, a-b-da, 2, 3, 4, 9, 120, 195, 195, 120, 193, 119, 2, 0.626396
177, 3, bw, attraction, a-b-db, 9, 3, 4, 10, 120, 195, 195, 120, 114, 186, 1, 1.6307
177, 3, bw, attraction, a-b-db, 9, 3, 4, 10, 120, 195, 195, 120, 114, 186, 2, 0.580359
177, 3, bw, catch, NA, 999, 999, 4, 11, 79, 116, 94, 161, 155, 160, 3, 0.954631
177, 3, bw, catch, NA, 999, 999, 4, 11, 79, 116, 94, 161, 155, 160, 1, 1.62712
177, 3, bw, attraction, a-b-da, 5, 3, 4, 12, 120, 195, 190, 117, 195, 120, 1, 5.73516
177, 3, bw, attraction, a-b-da, 5, 3, 4, 12, 120, 195, 190, 117, 195, 120, 3, 0.783301
177, 3, bw, attraction, a-b-db, 5, 2, 4, 13, 90, 165, 88, 161, 165, 90, 2, 1.11768
177, 3, bw, attraction, a-b-db, 5, 2, 4, 13, 90, 165, 88, 161, 165, 90, 3, 0.48807
177, 3, bw, attraction, a-b-da, 9, 2, 4, 14, 165, 90, 157, 86, 90, 165, 1, 0.770492
177, 3, bw, attraction, a-b-da, 9, 2, 4, 14, 165, 90, 157, 86, 90, 165, 3, 0.738842
177, 3, bw, attraction, a-b-db, 14, 3, 4, 15, 195, 120, 120, 195, 111, 181, 1, 1.01128
177, 3, bw, attraction, a-b-db, 14, 3, 4, 15, 195, 120, 120, 195, 111, 181, 3, 1.15356
177, 3, bw, attraction, a-b-da, 9, 1, 4, 16, 135, 60, 60, 135, 129, 57, 1, 1.08111
177, 3, bw, attraction, a-b-da, 9, 1, 4, 16, 135, 60, 60, 135, 129, 57, 3, 1.12485
177, 3, bw, filler, NA, 999, 999, 4, 17, 97, 56, 128, 103, 188, 131, 3, 0.909061
177, 3, bw, filler, NA, 999, 999, 4, 17, 97, 56, 128, 103, 188, 131, 1, 0.599398
177, 3, bw, filler, NA, 999, 999, 4, 18, 188, 132, 64, 107, 145, 61, 1, 0.829041
177, 3, bw, filler, NA, 999, 999, 4, 18, 188, 132, 64, 107, 145, 61, 2, 0.650754
177, 3, bw, attraction, a-b-da, 14, 3, 4, 19, 195, 120, 120, 195, 181, 111, 2, 0.982528
177, 3, bw, attraction, a-b-da, 14, 3, 4, 19, 195, 120, 120, 195, 181, 111, 3, 0.422237
177, 3, bw, filler, NA, 999, 999, 4, 20, 144, 116, 183, 68, 145, 96, 1, 1.16345
177, 3, bw, filler, NA, 999, 999, 4, 20, 144, 116, 183, 68, 145, 96, 2, 0.539608
177, 3, bw, catch, NA, 999, 999, 4, 21, 158, 157, 115, 140, 64, 131, 1, 0.9481
177, 3, bw, catch, NA, 999, 999, 4, 21, 158, 157, 115, 140, 64, 131, 3, 0.453228
177, 3, bw, filler, NA, 999, 999, 4, 22, 185, 125, 130, 105, 111, 136, 1, 0.616885
177, 3, bw, filler, NA, 999, 999, 4, 22, 185, 125, 130, 105, 111, 136, 3, 0.391362
177, 3, bw, attraction, a-b-da, 5, 1, 4, 23, 132, 58, 60, 135, 135, 60, 3, 1.1011
177, 3, bw, attraction, a-b-da, 5, 1, 4, 23, 132, 58, 60, 135, 135, 60, 2, 0.408239
177, 3, bw, attraction, a-b-da, 14, 1, 4, 24, 125, 56, 60, 135, 135, 60, 3, 1.66135
177, 3, bw, attraction, a-b-da, 14, 1, 4, 24, 125, 56, 60, 135, 135, 60, 1, 0.665486
177, 3, bw, attraction, a-b-db, 2, 3, 4, 25, 120, 195, 195, 120, 119, 193, 3, 0.740656
177, 3, bw, attraction, a-b-db, 2, 3, 4, 25, 120, 195, 195, 120, 119, 193, 2, 0.597637
177, 3, bw, attraction, a-b-db, 5, 3, 4, 26, 120, 195, 195, 120, 117, 190, 1, 0.683198
177, 3, bw, attraction, a-b-db, 5, 3, 4, 26, 120, 195, 195, 120, 117, 190, 2, 1.47918
177, 3, bw, attraction, a-b-db, 2, 2, 4, 27, 89, 163, 90, 165, 165, 90, 1, 1.68913
177, 3, bw, attraction, a-b-db, 2, 2, 4, 27, 89, 163, 90, 165, 165, 90, 3, 0.692079
177, 3, bw, filler, NA, 999, 999, 4, 28, 167, 108, 86, 80, 73, 106, 1, 1.41382
177, 3, bw, filler, NA, 999, 999, 4, 28, 167, 108, 86, 80, 73, 106, 2, 0.539969
177, 3, bw, attraction, a-b-db, 9, 2, 4, 29, 165, 90, 90, 165, 86, 157, 2, 1.58767
177, 3, bw, attraction, a-b-db, 9, 2, 4, 29, 165, 90, 90, 165, 86, 157, 3, 0.698513
177, 3, bw, attraction, a-b-db, 14, 1, 4, 30, 135, 60, 60, 135, 56, 125, 2, 1.86028
177, 3, bw, attraction, a-b-db, 14, 1, 4, 30, 135, 60, 60, 135, 56, 125, 1, 0.504355
177, 3, bw, catch, NA, 999, 999, 4, 31, 159, 156, 67, 128, 140, 115, 1, 0.833986
177, 3, bw, catch, NA, 999, 999, 4, 31, 159, 156, 67, 128, 140, 115, 2, 0.43178
177, 3, bw, filler, NA, 999, 999, 4, 32, 162, 157, 143, 91, 61, 109, 1, 0.996234
177, 3, bw, filler, NA, 999, 999, 4, 32, 162, 157, 143, 91, 61, 109, 3, 0.339185
177, 3, bw, attraction, a-b-da, 9, 3, 4, 33, 120, 195, 195, 120, 186, 114, 2, 1.59567
177, 3, bw, attraction, a-b-da, 9, 3, 4, 33, 120, 195, 195, 120, 186, 114, 1, 0.258491
177, 3, bw, attraction, a-b-db, 2, 1, 4, 34, 135, 60, 59, 134, 60, 135, 3, 1.32578
177, 3, bw, attraction, a-b-db, 2, 1, 4, 34, 135, 60, 59, 134, 60, 135, 2, 0.311421
177, 3, bw, filler, NA, 999, 999, 4, 35, 98, 168, 126, 101, 105, 156, 3, 0.87251
177, 3, bw, filler, NA, 999, 999, 4, 35, 98, 168, 126, 101, 105, 156, 1, 0.292186
177, 3, bw, attraction, a-b-db, 5, 1, 4, 36, 58, 132, 135, 60, 60, 135, 3, 1.46209
177, 3, bw, attraction, a-b-db, 5, 1, 4, 36, 58, 132, 135, 60, 60, 135, 1, 0.442239
177, 3, bw, attraction, a-b-da, 5, 2, 4, 37, 165, 90, 161, 88, 90, 165, 3, 0.97397
177, 3, bw, attraction, a-b-da, 5, 2, 4, 37, 165, 90, 161, 88, 90, 165, 2, 0.357635
177, 3, bw, attraction, a-b-db, 2, 1, 5, 1, 135, 60, 60, 135, 59, 134, 3, 3.01956
177, 3, bw, attraction, a-b-db, 2, 1, 5, 1, 135, 60, 60, 135, 59, 134, 2, 0.577218
177, 3, bw, attraction, a-b-db, 5, 1, 5, 2, 135, 60, 58, 132, 60, 135, 1, 1.39153
177, 3, bw, attraction, a-b-db, 5, 1, 5, 2, 135, 60, 58, 132, 60, 135, 2, 0.422417
177, 3, bw, filler, NA, 999, 999, 5, 3, 76, 186, 143, 60, 67, 122, 1, 0.875537
177, 3, bw, filler, NA, 999, 999, 5, 3, 76, 186, 143, 60, 67, 122, 3, 0.951256
177, 3, bw, attraction, a-b-da, 14, 1, 5, 4, 125, 56, 135, 60, 60, 135, 3, 0.807007
177, 3, bw, attraction, a-b-da, 14, 1, 5, 4, 125, 56, 135, 60, 60, 135, 1, 0.589333
177, 3, bw, attraction, a-b-db, 9, 2, 5, 5, 86, 157, 165, 90, 90, 165, 3, 1.28372
177, 3, bw, attraction, a-b-db, 9, 2, 5, 5, 86, 157, 165, 90, 90, 165, 1, 0.639266
177, 3, bw, attraction, a-b-db, 5, 3, 5, 6, 120, 195, 117, 190, 195, 120, 3, 0.883658
177, 3, bw, attraction, a-b-db, 5, 3, 5, 6, 120, 195, 117, 190, 195, 120, 1, 0.559492
177, 3, bw, filler, NA, 999, 999, 5, 7, 95, 62, 96, 133, 81, 148, 3, 0.894464
177, 3, bw, filler, NA, 999, 999, 5, 7, 95, 62, 96, 133, 81, 148, 1, 0.977642
177, 3, bw, attraction, a-b-db, 9, 1, 5, 8, 57, 129, 60, 135, 135, 60, 3, 1.76002
177, 3, bw, attraction, a-b-db, 9, 1, 5, 8, 57, 129, 60, 135, 135, 60, 1, 0.495974
177, 3, bw, filler, NA, 999, 999, 5, 9, 181, 132, 190, 152, 79, 148, 2, 0.889654
177, 3, bw, filler, NA, 999, 999, 5, 9, 181, 132, 190, 152, 79, 148, 3, 0.580732
177, 3, bw, attraction, a-b-db, 14, 1, 5, 10, 60, 135, 56, 125, 135, 60, 3, 0.971132
177, 3, bw, attraction, a-b-db, 14, 1, 5, 10, 60, 135, 56, 125, 135, 60, 2, 0.499515
177, 3, bw, attraction, a-b-da, 9, 3, 5, 11, 120, 195, 195, 120, 186, 114, 3, 0.749307
177, 3, bw, attraction, a-b-da, 9, 3, 5, 11, 120, 195, 195, 120, 186, 114, 2, 1.34234
177, 3, bw, attraction, a-b-db, 5, 2, 5, 12, 165, 90, 88, 161, 90, 165, 3, 0.781913
177, 3, bw, attraction, a-b-db, 5, 2, 5, 12, 165, 90, 88, 161, 90, 165, 2, 0.429637
177, 3, bw, attraction, a-b-db, 14, 2, 5, 13, 83, 153, 165, 90, 90, 165, 3, 0.53002
177, 3, bw, attraction, a-b-db, 14, 2, 5, 13, 83, 153, 165, 90, 90, 165, 2, 0.771842
177, 3, bw, attraction, a-b-da, 9, 1, 5, 14, 135, 60, 60, 135, 129, 57, 3, 0.682909
177, 3, bw, attraction, a-b-da, 9, 1, 5, 14, 135, 60, 60, 135, 129, 57, 2, 0.454681
177, 3, bw, catch, NA, 999, 999, 5, 15, 106, 89, 177, 138, 130, 125, 2, 0.666495
177, 3, bw, catch, NA, 999, 999, 5, 15, 106, 89, 177, 138, 130, 125, 1, 0.455011
177, 3, bw, filler, NA, 999, 999, 5, 16, 147, 191, 73, 191, 181, 146, 3, 0.5789
177, 3, bw, filler, NA, 999, 999, 5, 16, 147, 191, 73, 191, 181, 146, 2, 0.34665
177, 3, bw, filler, NA, 999, 999, 5, 17, 130, 62, 146, 156, 76, 76, 2, 0.858389
177, 3, bw, filler, NA, 999, 999, 5, 17, 130, 62, 146, 156, 76, 76, 3, 0.430798
177, 3, bw, attraction, a-b-da, 2, 2, 5, 18, 165, 90, 163, 89, 90, 165, 1, 2.09921
177, 3, bw, attraction, a-b-da, 2, 2, 5, 18, 165, 90, 163, 89, 90, 165, 2, 0.357886
177, 3, bw, filler, NA, 999, 999, 5, 19, 183, 98, 70, 107, 177, 179, 3, 0.70105
177, 3, bw, filler, NA, 999, 999, 5, 19, 183, 98, 70, 107, 177, 179, 2, 0.480127
177, 3, bw, attraction, a-b-db, 2, 2, 5, 20, 165, 90, 89, 163, 90, 165, 2, 1.11473
177, 3, bw, attraction, a-b-db, 2, 2, 5, 20, 165, 90, 89, 163, 90, 165, 3, 0.388834
177, 3, bw, catch, NA, 999, 999, 5, 21, 159, 156, 99, 96, 152, 103, 1, 0.739297
177, 3, bw, catch, NA, 999, 999, 5, 21, 159, 156, 99, 96, 152, 103, 2, 0.404558
177, 3, bw, filler, NA, 999, 999, 5, 22, 99, 146, 123, 96, 80, 186, 1, 1.21027
177, 3, bw, filler, NA, 999, 999, 5, 22, 99, 146, 123, 96, 80, 186, 3, 1.81652
177, 3, bw, filler, NA, 999, 999, 5, 23, 123, 57, 183, 192, 105, 69, 2, 1.60532
177, 3, bw, filler, NA, 999, 999, 5, 23, 123, 57, 183, 192, 105, 69, 1, 0.571473
177, 3, bw, filler, NA, 999, 999, 5, 24, 119, 185, 137, 90, 195, 149, 3, 0.914493
177, 3, bw, filler, NA, 999, 999, 5, 24, 119, 185, 137, 90, 195, 149, 2, 0.444772
177, 3, bw, attraction, a-b-da, 14, 2, 5, 25, 90, 165, 153, 83, 165, 90, 1, 1.11266
177, 3, bw, attraction, a-b-da, 14, 2, 5, 25, 90, 165, 153, 83, 165, 90, 2, 0.882932
177, 3, bw, attraction, a-b-db, 2, 3, 5, 26, 119, 193, 195, 120, 120, 195, 1, 1.46124
177, 3, bw, attraction, a-b-db, 2, 3, 5, 26, 119, 193, 195, 120, 120, 195, 2, 1.48948
177, 3, bw, attraction, a-b-db, 14, 3, 5, 27, 120, 195, 195, 120, 111, 181, 1, 1.11566
177, 3, bw, attraction, a-b-db, 14, 3, 5, 27, 120, 195, 195, 120, 111, 181, 2, 0.357816
177, 3, bw, filler, NA, 999, 999, 5, 28, 66, 116, 132, 59, 121, 88, 3, 1.04499
177, 3, bw, filler, NA, 999, 999, 5, 28, 66, 116, 132, 59, 121, 88, 2, 0.761951
177, 3, bw, attraction, a-b-da, 5, 3, 5, 29, 190, 117, 195, 120, 120, 195, 3, 1.05696
177, 3, bw, attraction, a-b-da, 5, 3, 5, 29, 190, 117, 195, 120, 120, 195, 2, 1.14134
177, 3, bw, attraction, a-b-da, 2, 3, 5, 30, 195, 120, 193, 119, 120, 195, 3, 1.19698
177, 3, bw, attraction, a-b-da, 2, 3, 5, 30, 195, 120, 193, 119, 120, 195, 1, 0.635833
177, 3, bw, attraction, a-b-da, 5, 1, 5, 31, 135, 60, 60, 135, 132, 58, 3, 0.784229
177, 3, bw, attraction, a-b-da, 5, 1, 5, 31, 135, 60, 60, 135, 132, 58, 1, 0.767958
177, 3, bw, attraction, a-b-da, 2, 1, 5, 32, 134, 59, 135, 60, 60, 135, 3, 1.09515
177, 3, bw, attraction, a-b-da, 2, 1, 5, 32, 134, 59, 135, 60, 60, 135, 2, 1.42606
177, 3, bw, attraction, a-b-da, 9, 2, 5, 33, 165, 90, 90, 165, 157, 86, 2, 1.46212
177, 3, bw, attraction, a-b-da, 9, 2, 5, 33, 165, 90, 90, 165, 157, 86, 3, 0.794328
177, 3, bw, attraction, a-b-da, 5, 2, 5, 34, 161, 88, 90, 165, 165, 90, 2, 2.09616
177, 3, bw, attraction, a-b-da, 5, 2, 5, 34, 161, 88, 90, 165, 165, 90, 1, 0.994819
177, 3, bw, catch, NA, 999, 999, 5, 35, 120, 135, 160, 155, 110, 85, 2, 0.84834
177, 3, bw, catch, NA, 999, 999, 5, 35, 120, 135, 160, 155, 110, 85, 3, 0.429408
177, 3, bw, attraction, a-b-db, 9, 3, 5, 36, 120, 195, 114, 186, 195, 120, 3, 0.881911
177, 3, bw, attraction, a-b-db, 9, 3, 5, 36, 120, 195, 114, 186, 195, 120, 2, 0.31768
177, 3, bw, attraction, a-b-da, 14, 3, 5, 37, 195, 120, 181, 111, 120, 195, 3, 0.766823
177, 3, bw, attraction, a-b-da, 14, 3, 5, 37, 195, 120, 181, 111, 120, 195, 2, 0.823173
177, 3, bw, filler, NA, 999, 999, 6, 1, 184, 195, 156, 178, 92, 159, 1, 3.18816
177, 3, bw, filler, NA, 999, 999, 6, 1, 184, 195, 156, 178, 92, 159, 3, 0.571126
177, 3, bw, attraction, a-b-da, 5, 3, 6, 2, 120, 195, 195, 120, 190, 117, 1, 0.938161
177, 3, bw, attraction, a-b-da, 5, 3, 6, 2, 120, 195, 195, 120, 190, 117, 3, 1.29928
177, 3, bw, attraction, a-b-db, 9, 2, 6, 3, 86, 157, 165, 90, 90, 165, 3, 1.05293
177, 3, bw, attraction, a-b-db, 9, 2, 6, 3, 86, 157, 165, 90, 90, 165, 1, 0.561732
177, 3, bw, attraction, a-b-db, 9, 1, 6, 4, 60, 135, 135, 60, 57, 129, 3, 1.67286
177, 3, bw, attraction, a-b-db, 9, 1, 6, 4, 60, 135, 135, 60, 57, 129, 2, 0.324391
177, 3, bw, filler, NA, 999, 999, 6, 5, 128, 88, 161, 125, 168, 126, 3, 0.660875
177, 3, bw, filler, NA, 999, 999, 6, 5, 128, 88, 161, 125, 168, 126, 1, 0.625261
177, 3, bw, attraction, a-b-db, 14, 1, 6, 6, 56, 125, 135, 60, 60, 135, 3, 0.669703
177, 3, bw, attraction, a-b-db, 14, 1, 6, 6, 56, 125, 135, 60, 60, 135, 2, 0.409982
177, 3, bw, attraction, a-b-da, 9, 3, 6, 7, 195, 120, 186, 114, 120, 195, 3, 1.15116
177, 3, bw, attraction, a-b-da, 9, 3, 6, 7, 195, 120, 186, 114, 120, 195, 1, 0.504304
177, 3, bw, attraction, a-b-da, 9, 1, 6, 8, 135, 60, 60, 135, 129, 57, 3, 0.825874
177, 3, bw, attraction, a-b-da, 9, 1, 6, 8, 135, 60, 60, 135, 129, 57, 2, 0.623817
177, 3, bw, filler, NA, 999, 999, 6, 9, 118, 122, 195, 149, 159, 174, 3, 0.636325
177, 3, bw, filler, NA, 999, 999, 6, 9, 118, 122, 195, 149, 159, 174, 1, 1.27396
177, 3, bw, attraction, a-b-db, 14, 3, 6, 10, 120, 195, 195, 120, 111, 181, 1, 1.50024
177, 3, bw, attraction, a-b-db, 14, 3, 6, 10, 120, 195, 195, 120, 111, 181, 3, 0.438843
177, 3, bw, attraction, a-b-da, 2, 2, 6, 11, 165, 90, 90, 165, 163, 89, 3, 0.963472
177, 3, bw, attraction, a-b-da, 2, 2, 6, 11, 165, 90, 90, 165, 163, 89, 1, 1.09184
177, 3, bw, attraction, a-b-da, 2, 3, 6, 12, 120, 195, 195, 120, 193, 119, 1, 1.66154
177, 3, bw, attraction, a-b-da, 2, 3, 6, 12, 120, 195, 195, 120, 193, 119, 3, 0.513436
177, 3, bw, catch, NA, 999, 999, 6, 13, 98, 157, 102, 93, 125, 190, 3, 0.738492
177, 3, bw, catch, NA, 999, 999, 6, 13, 98, 157, 102, 93, 125, 190, 2, 0.483586
177, 3, bw, filler, NA, 999, 999, 6, 14, 72, 143, 73, 182, 56, 133, 2, 1.46201
177, 3, bw, filler, NA, 999, 999, 6, 14, 72, 143, 73, 182, 56, 133, 3, 0.482337
177, 3, bw, attraction, a-b-da, 9, 2, 6, 15, 165, 90, 90, 165, 157, 86, 1, 0.9886
177, 3, bw, attraction, a-b-da, 9, 2, 6, 15, 165, 90, 90, 165, 157, 86, 3, 0.699637
177, 3, bw, filler, NA, 999, 999, 6, 16, 170, 156, 190, 133, 192, 94, 1, 0.757386
177, 3, bw, filler, NA, 999, 999, 6, 16, 170, 156, 190, 133, 192, 94, 3, 0.965852
177, 3, bw, attraction, a-b-db, 5, 2, 6, 17, 90, 165, 165, 90, 88, 161, 2, 0.836909
177, 3, bw, attraction, a-b-db, 5, 2, 6, 17, 90, 165, 165, 90, 88, 161, 3, 0.722553
177, 3, bw, filler, NA, 999, 999, 6, 18, 192, 143, 57, 74, 60, 116, 1, 1.04363
177, 3, bw, filler, NA, 999, 999, 6, 18, 192, 143, 57, 74, 60, 116, 2, 0.440487
177, 3, bw, filler, NA, 999, 999, 6, 19, 148, 96, 145, 140, 192, 175, 3, 0.876431
177, 3, bw, filler, NA, 999, 999, 6, 19, 148, 96, 145, 140, 192, 175, 1, 0.512154
177, 3, bw, attraction, a-b-db, 9, 3, 6, 20, 114, 186, 120, 195, 195, 120, 2, 1.28114
177, 3, bw, attraction, a-b-db, 9, 3, 6, 20, 114, 186, 120, 195, 195, 120, 3, 0.34089
177, 3, bw, filler, NA, 999, 999, 6, 21, 190, 102, 180, 169, 124, 128, 2, 1.57257
177, 3, bw, filler, NA, 999, 999, 6, 21, 190, 102, 180, 169, 124, 128, 3, 0.284185
177, 3, bw, attraction, a-b-db, 2, 2, 6, 22, 89, 163, 165, 90, 90, 165, 3, 1.26273
177, 3, bw, attraction, a-b-db, 2, 2, 6, 22, 89, 163, 165, 90, 90, 165, 2, 0.602843
177, 3, bw, attraction, a-b-da, 5, 1, 6, 23, 132, 58, 135, 60, 60, 135, 2, 0.77652
177, 3, bw, attraction, a-b-da, 5, 1, 6, 23, 132, 58, 135, 60, 60, 135, 1, 0.392292
177, 3, bw, filler, NA, 999, 999, 6, 24, 124, 166, 191, 143, 73, 168, 2, 0.894146
177, 3, bw, filler, NA, 999, 999, 6, 24, 124, 166, 191, 143, 73, 168, 3, 0.393188
177, 3, bw, attraction, a-b-db, 2, 1, 6, 25, 59, 134, 60, 135, 135, 60, 3, 0.943033
177, 3, bw, attraction, a-b-db, 2, 1, 6, 25, 59, 134, 60, 135, 135, 60, 2, 0.336107
177, 3, bw, attraction, a-b-da, 14, 2, 6, 26, 165, 90, 90, 165, 153, 83, 2, 0.760522
177, 3, bw, attraction, a-b-da, 14, 2, 6, 26, 165, 90, 90, 165, 153, 83, 3, 0.600981
177, 3, bw, attraction, a-b-da, 2, 1, 6, 27, 135, 60, 60, 135, 134, 59, 3, 0.910785
177, 3, bw, attraction, a-b-da, 2, 1, 6, 27, 135, 60, 60, 135, 134, 59, 2, 0.377087
177, 3, bw, attraction, a-b-db, 5, 3, 6, 28, 117, 190, 195, 120, 120, 195, 1, 0.775588
177, 3, bw, attraction, a-b-db, 5, 3, 6, 28, 117, 190, 195, 120, 120, 195, 3, 0.583288
177, 3, bw, catch, NA, 999, 999, 6, 29, 74, 121, 107, 148, 189, 126, 3, 0.749727
177, 3, bw, catch, NA, 999, 999, 6, 29, 74, 121, 107, 148, 189, 126, 1, 1.31872
177, 3, bw, filler, NA, 999, 999, 6, 30, 181, 61, 180, 169, 96, 175, 2, 0.559603
177, 3, bw, filler, NA, 999, 999, 6, 30, 181, 61, 180, 169, 96, 175, 1, 0.983994
177, 3, bw, attraction, a-b-db, 14, 2, 6, 31, 90, 165, 83, 153, 165, 90, 3, 0.774261
177, 3, bw, attraction, a-b-db, 14, 2, 6, 31, 90, 165, 83, 153, 165, 90, 2, 0.694047
177, 3, bw, catch, NA, 999, 999, 6, 32, 135, 180, 89, 106, 92, 163, 1, 0.9038
177, 3, bw, catch, NA, 999, 999, 6, 32, 135, 180, 89, 106, 92, 163, 2, 0.434765
177, 3, bw, attraction, a-b-db, 5, 1, 6, 33, 60, 135, 58, 132, 135, 60, 2, 1.20729
177, 3, bw, attraction, a-b-db, 5, 1, 6, 33, 60, 135, 58, 132, 135, 60, 3, 0.469548
177, 3, bw, attraction, a-b-da, 14, 1, 6, 34, 125, 56, 135, 60, 60, 135, 2, 1.64875
177, 3, bw, attraction, a-b-da, 14, 1, 6, 34, 125, 56, 135, 60, 60, 135, 3, 0.365502
177, 3, bw, attraction, a-b-da, 5, 2, 6, 35, 161, 88, 165, 90, 90, 165, 3, 1.12469
177, 3, bw, attraction, a-b-da, 5, 2, 6, 35, 161, 88, 165, 90, 90, 165, 2, 0.406294
177, 3, bw, attraction, a-b-da, 14, 3, 6, 36, 120, 195, 195, 120, 181, 111, 2, 0.948095
177, 3, bw, attraction, a-b-da, 14, 3, 6, 36, 120, 195, 195, 120, 181, 111, 1, 0.333065
177, 3, bw, attraction, a-b-db, 2, 3, 6, 37, 119, 193, 195, 120, 120, 195, 3, 0.581615
177, 3, bw, attraction, a-b-db, 2, 3, 6, 37, 119, 193, 195, 120, 120, 195, 2, 0.333375
177, 3, bw, attraction, a-b-da, 5, 1, 7, 1, 60, 135, 135, 60, 132, 58, 3, 0.885957
177, 3, bw, attraction, a-b-da, 5, 1, 7, 1, 60, 135, 135, 60, 132, 58, 2, 1.02561
177, 3, bw, attraction, a-b-da, 14, 3, 7, 2, 181, 111, 195, 120, 120, 195, 2, 0.71785
177, 3, bw, attraction, a-b-da, 14, 3, 7, 2, 181, 111, 195, 120, 120, 195, 1, 0.552279
177, 3, bw, attraction, a-b-da, 14, 2, 7, 3, 165, 90, 90, 165, 153, 83, 2, 1.4641
177, 3, bw, attraction, a-b-da, 14, 2, 7, 3, 165, 90, 90, 165, 153, 83, 3, 0.316346
177, 3, bw, attraction, a-b-da, 2, 3, 7, 4, 120, 195, 195, 120, 193, 119, 3, 0.909581
177, 3, bw, attraction, a-b-da, 2, 3, 7, 4, 120, 195, 195, 120, 193, 119, 2, 1.37589
177, 3, bw, attraction, a-b-da, 9, 1, 7, 5, 129, 57, 135, 60, 60, 135, 3, 1.67
177, 3, bw, attraction, a-b-da, 9, 1, 7, 5, 129, 57, 135, 60, 60, 135, 2, 0.986094
177, 3, bw, attraction, a-b-da, 5, 3, 7, 6, 120, 195, 195, 120, 190, 117, 2, 1.0484
177, 3, bw, attraction, a-b-da, 5, 3, 7, 6, 120, 195, 195, 120, 190, 117, 3, 1.42161
177, 3, bw, attraction, a-b-da, 5, 2, 7, 7, 161, 88, 165, 90, 90, 165, 3, 1.46638
177, 3, bw, attraction, a-b-da, 5, 2, 7, 7, 161, 88, 165, 90, 90, 165, 2, 1.07046
177, 3, bw, attraction, a-b-db, 2, 3, 7, 8, 119, 193, 195, 120, 120, 195, 1, 1.44935
177, 3, bw, attraction, a-b-db, 2, 3, 7, 8, 119, 193, 195, 120, 120, 195, 3, 0.374246
177, 3, bw, filler, NA, 999, 999, 7, 9, 182, 156, 71, 75, 157, 97, 1, 1.03676
177, 3, bw, filler, NA, 999, 999, 7, 9, 182, 156, 71, 75, 157, 97, 2, 0.346392
177, 3, bw, attraction, a-b-db, 2, 2, 7, 10, 165, 90, 90, 165, 89, 163, 2, 1.13819
177, 3, bw, attraction, a-b-db, 2, 2, 7, 10, 165, 90, 90, 165, 89, 163, 1, 0.323026
177, 3, bw, filler, NA, 999, 999, 7, 11, 179, 113, 134, 122, 179, 191, 3, 0.964241
177, 3, bw, filler, NA, 999, 999, 7, 11, 179, 113, 134, 122, 179, 191, 2, 0.789061
177, 3, bw, filler, NA, 999, 999, 7, 12, 63, 163, 101, 115, 119, 89, 1, 1.17894
177, 3, bw, filler, NA, 999, 999, 7, 12, 63, 163, 101, 115, 119, 89, 2, 0.282586
177, 3, bw, attraction, a-b-db, 14, 2, 7, 13, 90, 165, 83, 153, 165, 90, 3, 1.74905
177, 3, bw, attraction, a-b-db, 14, 2, 7, 13, 90, 165, 83, 153, 165, 90, 2, 0.293812
177, 3, bw, filler, NA, 999, 999, 7, 14, 97, 119, 110, 143, 57, 118, 2, 1.12771
177, 3, bw, filler, NA, 999, 999, 7, 14, 97, 119, 110, 143, 57, 118, 3, 0.361258
177, 3, bw, catch, NA, 999, 999, 7, 15, 61, 134, 106, 149, 144, 171, 3, 1.1925
177, 3, bw, catch, NA, 999, 999, 7, 15, 61, 134, 106, 149, 144, 171, 1, 0.879427
177, 3, bw, filler, NA, 999, 999, 7, 16, 170, 193, 142, 173, 143, 145, 1, 1.64176
177, 3, bw, filler, NA, 999, 999, 7, 16, 170, 193, 142, 173, 143, 145, 3, 0.694759
177, 3, bw, attraction, a-b-da, 9, 3, 7, 17, 186, 114, 195, 120, 120, 195, 2, 2.1522
177, 3, bw, attraction, a-b-da, 9, 3, 7, 17, 186, 114, 195, 120, 120, 195, 1, 0.720943
177, 3, bw, catch, NA, 999, 999, 7, 18, 194, 121, 106, 149, 132, 63, 1, 2.49006
177, 3, bw, catch, NA, 999, 999, 7, 18, 194, 121, 106, 149, 132, 63, 3, 0.652481
177, 3, bw, filler, NA, 999, 999, 7, 19, 82, 63, 177, 82, 63, 112, 2, 2.1602
177, 3, bw, filler, NA, 999, 999, 7, 19, 82, 63, 177, 82, 63, 112, 1, 1.60819
177, 3, bw, catch, NA, 999, 999, 7, 20, 142, 113, 86, 109, 184, 131, 3, 1.49295
177, 3, bw, catch, NA, 999, 999, 7, 20, 142, 113, 86, 109, 184, 131, 2, 0.471834
177, 3, bw, attraction, a-b-db, 9, 1, 7, 21, 135, 60, 57, 129, 60, 135, 1, 1.65894
177, 3, bw, attraction, a-b-db, 9, 1, 7, 21, 135, 60, 57, 129, 60, 135, 3, 0.607002
177, 3, bw, attraction, a-b-db, 2, 1, 7, 22, 135, 60, 59, 134, 60, 135, 2, 1.42007
177, 3, bw, attraction, a-b-db, 2, 1, 7, 22, 135, 60, 59, 134, 60, 135, 3, 0.298243
177, 3, bw, attraction, a-b-db, 14, 1, 7, 23, 56, 125, 60, 135, 135, 60, 3, 1.14021
177, 3, bw, attraction, a-b-db, 14, 1, 7, 23, 56, 125, 60, 135, 135, 60, 2, 0.341154
177, 3, bw, attraction, a-b-da, 2, 2, 7, 24, 165, 90, 163, 89, 90, 165, 1, 1.27691
177, 3, bw, attraction, a-b-da, 2, 2, 7, 24, 165, 90, 163, 89, 90, 165, 2, 0.504601
177, 3, bw, attraction, a-b-db, 5, 3, 7, 25, 117, 190, 195, 120, 120, 195, 2, 0.94627
177, 3, bw, attraction, a-b-db, 5, 3, 7, 25, 117, 190, 195, 120, 120, 195, 3, 0.315422
177, 3, bw, filler, NA, 999, 999, 7, 26, 103, 147, 176, 183, 164, 76, 2, 1.05259
177, 3, bw, filler, NA, 999, 999, 7, 26, 103, 147, 176, 183, 164, 76, 3, 0.41748
177, 3, bw, attraction, a-b-db, 9, 3, 7, 27, 195, 120, 114, 186, 120, 195, 3, 1.11867
177, 3, bw, attraction, a-b-db, 9, 3, 7, 27, 195, 120, 114, 186, 120, 195, 1, 0.840963
177, 3, bw, attraction, a-b-da, 14, 1, 7, 28, 125, 56, 60, 135, 135, 60, 2, 0.668525
177, 3, bw, attraction, a-b-da, 14, 1, 7, 28, 125, 56, 60, 135, 135, 60, 3, 0.720978
177, 3, bw, attraction, a-b-da, 9, 2, 7, 29, 165, 90, 90, 165, 157, 86, 2, 0.578063
177, 3, bw, attraction, a-b-da, 9, 2, 7, 29, 165, 90, 90, 165, 157, 86, 3, 0.37782
177, 3, bw, filler, NA, 999, 999, 7, 30, 146, 121, 78, 90, 154, 192, 3, 0.87231
177, 3, bw, filler, NA, 999, 999, 7, 30, 146, 121, 78, 90, 154, 192, 2, 0.291999
177, 3, bw, filler, NA, 999, 999, 7, 31, 166, 108, 114, 85, 138, 158, 3, 1.14983
177, 3, bw, filler, NA, 999, 999, 7, 31, 166, 108, 114, 85, 138, 158, 2, 0.582857
177, 3, bw, attraction, a-b-db, 5, 1, 7, 32, 135, 60, 58, 132, 60, 135, 2, 0.781273
177, 3, bw, attraction, a-b-db, 5, 1, 7, 32, 135, 60, 58, 132, 60, 135, 3, 0.477068
177, 3, bw, attraction, a-b-db, 9, 2, 7, 33, 165, 90, 86, 157, 90, 165, 1, 1.1354
177, 3, bw, attraction, a-b-db, 9, 2, 7, 33, 165, 90, 86, 157, 90, 165, 2, 0.417105
177, 3, bw, filler, NA, 999, 999, 7, 34, 153, 146, 123, 127, 80, 72, 1, 1.19029
177, 3, bw, filler, NA, 999, 999, 7, 34, 153, 146, 123, 127, 80, 72, 3, 0.429234
177, 3, bw, attraction, a-b-db, 5, 2, 7, 35, 90, 165, 88, 161, 165, 90, 3, 1.2416
177, 3, bw, attraction, a-b-db, 5, 2, 7, 35, 90, 165, 88, 161, 165, 90, 2, 0.334675
177, 3, bw, attraction, a-b-da, 2, 1, 7, 36, 135, 60, 60, 135, 134, 59, 3, 0.975101
177, 3, bw, attraction, a-b-da, 2, 1, 7, 36, 135, 60, 60, 135, 134, 59, 2, 0.51081
177, 3, bw, attraction, a-b-db, 14, 3, 7, 37, 111, 181, 120, 195, 195, 120, 3, 3.87194
177, 3, bw, attraction, a-b-db, 14, 3, 7, 37, 111, 181, 120, 195, 195, 120, 2, 0.451245
177, 3, bw, filler, NA, 999, 999, 8, 1, 154, 119, 89, 60, 145, 183, 3, 2.00703
177, 3, bw, filler, NA, 999, 999, 8, 1, 154, 119, 89, 60, 145, 183, 2, 0.453384
177, 3, bw, filler, NA, 999, 999, 8, 2, 83, 83, 188, 170, 131, 191, 2, 1.20889
177, 3, bw, filler, NA, 999, 999, 8, 2, 83, 83, 188, 170, 131, 191, 1, 0.495201
177, 3, bw, attraction, a-b-da, 2, 3, 8, 3, 193, 119, 120, 195, 195, 120, 3, 0.712886
177, 3, bw, attraction, a-b-da, 2, 3, 8, 3, 193, 119, 120, 195, 195, 120, 2, 0.819546
177, 3, bw, attraction, a-b-db, 14, 3, 8, 4, 111, 181, 195, 120, 120, 195, 3, 0.744444
177, 3, bw, attraction, a-b-db, 14, 3, 8, 4, 111, 181, 195, 120, 120, 195, 1, 0.601399
177, 3, bw, attraction, a-b-db, 9, 1, 8, 5, 135, 60, 60, 135, 57, 129, 1, 1.24724
177, 3, bw, attraction, a-b-db, 9, 1, 8, 5, 135, 60, 60, 135, 57, 129, 3, 0.684026
177, 3, bw, attraction, a-b-da, 5, 2, 8, 6, 165, 90, 161, 88, 90, 165, 3, 1.19061
177, 3, bw, attraction, a-b-da, 5, 2, 8, 6, 165, 90, 161, 88, 90, 165, 2, 0.50149
177, 3, bw, attraction, a-b-db, 9, 2, 8, 7, 86, 157, 165, 90, 90, 165, 3, 1.5192
177, 3, bw, attraction, a-b-db, 9, 2, 8, 7, 86, 157, 165, 90, 90, 165, 2, 1.00936
177, 3, bw, filler, NA, 999, 999, 8, 8, 154, 65, 170, 143, 148, 109, 2, 0.982432
177, 3, bw, filler, NA, 999, 999, 8, 8, 154, 65, 170, 143, 148, 109, 1, 0.397929
177, 3, bw, attraction, a-b-db, 5, 1, 8, 9, 58, 132, 60, 135, 135, 60, 3, 2.34794
177, 3, bw, attraction, a-b-db, 5, 1, 8, 9, 58, 132, 60, 135, 135, 60, 2, 0.596409
177, 3, bw, attraction, a-b-da, 2, 1, 8, 10, 134, 59, 60, 135, 135, 60, 3, 0.970234
177, 3, bw, attraction, a-b-da, 2, 1, 8, 10, 134, 59, 60, 135, 135, 60, 2, 0.554561
177, 3, bw, attraction, a-b-db, 5, 2, 8, 11, 165, 90, 88, 161, 90, 165, 3, 2.85028
177, 3, bw, attraction, a-b-db, 5, 2, 8, 11, 165, 90, 88, 161, 90, 165, 2, 0.454625
177, 3, bw, filler, NA, 999, 999, 8, 12, 153, 75, 182, 150, 172, 179, 3, 1.08244
177, 3, bw, filler, NA, 999, 999, 8, 12, 153, 75, 182, 150, 172, 179, 1, 0.630056
177, 3, bw, attraction, a-b-da, 14, 1, 8, 13, 125, 56, 60, 135, 135, 60, 3, 1.57853
177, 3, bw, attraction, a-b-da, 14, 1, 8, 13, 125, 56, 60, 135, 135, 60, 2, 0.322096
177, 3, bw, attraction, a-b-db, 14, 1, 8, 14, 60, 135, 56, 125, 135, 60, 3, 1.13927
177, 3, bw, attraction, a-b-db, 14, 1, 8, 14, 60, 135, 56, 125, 135, 60, 2, 0.42015
177, 3, bw, filler, NA, 999, 999, 8, 15, 178, 103, 146, 173, 129, 188, 2, 1.24949
177, 3, bw, filler, NA, 999, 999, 8, 15, 178, 103, 146, 173, 129, 188, 1, 0.638188
177, 3, bw, attraction, a-b-da, 2, 2, 8, 16, 163, 89, 90, 165, 165, 90, 3, 0.93862
177, 3, bw, attraction, a-b-da, 2, 2, 8, 16, 163, 89, 90, 165, 165, 90, 2, 0.539544
177, 3, bw, attraction, a-b-da, 5, 1, 8, 17, 60, 135, 135, 60, 132, 58, 3, 0.924065
177, 3, bw, attraction, a-b-da, 5, 1, 8, 17, 60, 135, 135, 60, 132, 58, 1, 0.565762
177, 3, bw, catch, NA, 999, 999, 8, 18, 151, 104, 141, 174, 65, 130, 2, 0.868803
177, 3, bw, catch, NA, 999, 999, 8, 18, 151, 104, 141, 174, 65, 130, 3, 0.785224
177, 3, bw, attraction, a-b-da, 5, 3, 8, 19, 120, 195, 195, 120, 190, 117, 3, 0.935579
177, 3, bw, attraction, a-b-da, 5, 3, 8, 19, 120, 195, 195, 120, 190, 117, 2, 0.353207
177, 3, bw, attraction, a-b-db, 2, 1, 8, 20, 60, 135, 59, 134, 135, 60, 3, 0.817106
177, 3, bw, attraction, a-b-db, 2, 1, 8, 20, 60, 135, 59, 134, 135, 60, 2, 0.367502
177, 3, bw, attraction, a-b-db, 9, 3, 8, 21, 120, 195, 195, 120, 114, 186, 2, 0.878581
177, 3, bw, attraction, a-b-db, 9, 3, 8, 21, 120, 195, 195, 120, 114, 186, 3, 0.258278
177, 3, bw, catch, NA, 999, 999, 8, 22, 124, 191, 117, 138, 121, 74, 1, 1.14163
177, 3, bw, catch, NA, 999, 999, 8, 22, 124, 191, 117, 138, 121, 74, 3, 0.430527
177, 3, bw, attraction, a-b-db, 5, 3, 8, 23, 195, 120, 117, 190, 120, 195, 3, 0.82698
177, 3, bw, attraction, a-b-db, 5, 3, 8, 23, 195, 120, 117, 190, 120, 195, 1, 0.520697
177, 3, bw, attraction, a-b-da, 9, 1, 8, 24, 60, 135, 135, 60, 129, 57, 3, 0.601785
177, 3, bw, attraction, a-b-da, 9, 1, 8, 24, 60, 135, 135, 60, 129, 57, 2, 0.392945
177, 3, bw, attraction, a-b-db, 2, 2, 8, 25, 165, 90, 89, 163, 90, 165, 3, 1.81475
177, 3, bw, attraction, a-b-db, 2, 2, 8, 25, 165, 90, 89, 163, 90, 165, 1, 0.484808
177, 3, bw, filler, NA, 999, 999, 8, 26, 173, 133, 134, 187, 169, 58, 2, 0.943245
177, 3, bw, filler, NA, 999, 999, 8, 26, 173, 133, 134, 187, 169, 58, 3, 0.504274
177, 3, bw, filler, NA, 999, 999, 8, 27, 85, 119, 180, 93, 175, 106, 3, 0.666119
177, 3, bw, filler, NA, 999, 999, 8, 27, 85, 119, 180, 93, 175, 106, 1, 0.382537
177, 3, bw, filler, NA, 999, 999, 8, 28, 172, 88, 170, 112, 113, 85, 2, 0.90096
177, 3, bw, filler, NA, 999, 999, 8, 28, 172, 88, 170, 112, 113, 85, 3, 0.600029
177, 3, bw, attraction, a-b-db, 2, 3, 8, 29, 195, 120, 120, 195, 119, 193, 3, 0.861874
177, 3, bw, attraction, a-b-db, 2, 3, 8, 29, 195, 120, 120, 195, 119, 193, 2, 0.362259
177, 3, bw, attraction, a-b-da, 14, 3, 8, 30, 181, 111, 195, 120, 120, 195, 3, 0.529219
177, 3, bw, attraction, a-b-da, 14, 3, 8, 30, 181, 111, 195, 120, 120, 195, 2, 0.28313
177, 3, bw, filler, NA, 999, 999, 8, 31, 109, 144, 119, 162, 171, 149, 3, 0.517671
177, 3, bw, filler, NA, 999, 999, 8, 31, 109, 144, 119, 162, 171, 149, 2, 0.27205
177, 3, bw, attraction, a-b-da, 9, 2, 8, 32, 157, 86, 90, 165, 165, 90, 2, 1.5874
177, 3, bw, attraction, a-b-da, 9, 2, 8, 32, 157, 86, 90, 165, 165, 90, 3, 0.482068
177, 3, bw, catch, NA, 999, 999, 8, 33, 133, 182, 95, 100, 116, 139, 1, 1.02868
177, 3, bw, catch, NA, 999, 999, 8, 33, 133, 182, 95, 100, 116, 139, 2, 0.322281
177, 3, bw, attraction, a-b-db, 14, 2, 8, 34, 90, 165, 83, 153, 165, 90, 3, 0.699413
177, 3, bw, attraction, a-b-db, 14, 2, 8, 34, 90, 165, 83, 153, 165, 90, 2, 0.43847
177, 3, bw, attraction, a-b-da, 9, 3, 8, 35, 120, 195, 195, 120, 186, 114, 3, 1.37107
177, 3, bw, attraction, a-b-da, 9, 3, 8, 35, 120, 195, 195, 120, 186, 114, 2, 0.378405
177, 3, bw, attraction, a-b-da, 14, 2, 8, 36, 153, 83, 90, 165, 165, 90, 3, 1.26498
177, 3, bw, attraction, a-b-da, 14, 2, 8, 36, 153, 83, 90, 165, 165, 90, 2, 0.437185
177, 3, bw, filler, NA, 999, 999, 8, 37, 177, 178, 165, 191, 92, 76, 2, 0.777647
177, 3, bw, filler, NA, 999, 999, 8, 37, 177, 178, 165, 191, 92, 76, 3, 0.393407
