sub_n, computer_n, bw_cond, effect, set, distance, diag, block_n, trial_n, h1, w1, h2, w2, h3, w3, choice, rt 
127, 3, bw, practice, NA, 999, 999, 0, 1, 104, 69, 70, 61, 85, 188, 3, 3.49939
127, 3, bw, practice, NA, 999, 999, 0, 1, 104, 69, 70, 61, 85, 188, 2, 2.61462
127, 3, bw, practice, NA, 999, 999, 0, 2, 102, 124, 165, 123, 110, 95, 2, 1.48789
127, 3, bw, practice, NA, 999, 999, 0, 2, 102, 124, 165, 123, 110, 95, 3, 2.13069
127, 3, bw, practice, NA, 999, 999, 0, 3, 191, 144, 85, 142, 142, 78, 1, 1.44796
127, 3, bw, practice, NA, 999, 999, 0, 3, 191, 144, 85, 142, 142, 78, 3, 2.34348
127, 3, bw, filler, NA, 999, 999, 1, 1, 147, 81, 76, 76, 170, 187, 3, 1.81869
127, 3, bw, filler, NA, 999, 999, 1, 1, 147, 81, 76, 76, 170, 187, 2, 1.54468
127, 3, bw, filler, NA, 999, 999, 1, 2, 93, 77, 157, 146, 69, 139, 2, 1.15214
127, 3, bw, filler, NA, 999, 999, 1, 2, 93, 77, 157, 146, 69, 139, 1, 1.52918
127, 3, bw, filler, NA, 999, 999, 1, 3, 60, 126, 178, 135, 189, 184, 3, 1.33729
127, 3, bw, filler, NA, 999, 999, 1, 3, 60, 126, 178, 135, 189, 184, 1, 1.70692
127, 3, bw, attraction, a-b-db, 5, 2, 1, 4, 165, 90, 88, 161, 90, 165, 2, 2.65231
127, 3, bw, attraction, a-b-db, 5, 2, 1, 4, 165, 90, 88, 161, 90, 165, 1, 2.25669
127, 3, bw, filler, NA, 999, 999, 1, 5, 93, 166, 168, 177, 111, 134, 2, 1.10797
127, 3, bw, filler, NA, 999, 999, 1, 5, 93, 166, 168, 177, 111, 134, 3, 4.6943
127, 3, bw, attraction, a-b-db, 5, 1, 1, 6, 58, 132, 135, 60, 60, 135, 3, 2.67879
127, 3, bw, attraction, a-b-db, 5, 1, 1, 6, 58, 132, 135, 60, 60, 135, 1, 2.41786
127, 3, bw, attraction, a-b-db, 2, 2, 1, 7, 90, 165, 89, 163, 165, 90, 2, 2.51037
127, 3, bw, attraction, a-b-db, 2, 2, 1, 7, 90, 165, 89, 163, 165, 90, 3, 1.1603
127, 3, bw, attraction, a-b-db, 9, 3, 1, 8, 114, 186, 195, 120, 120, 195, 2, 1.36704
127, 3, bw, attraction, a-b-db, 9, 3, 1, 8, 114, 186, 195, 120, 120, 195, 1, 0.919476
127, 3, bw, attraction, a-b-db, 5, 3, 1, 9, 195, 120, 117, 190, 120, 195, 2, 4.7205
127, 3, bw, attraction, a-b-db, 5, 3, 1, 9, 195, 120, 117, 190, 120, 195, 1, 1.60952
127, 3, bw, attraction, a-b-da, 5, 3, 1, 10, 120, 195, 195, 120, 190, 117, 2, 1.35033
127, 3, bw, attraction, a-b-da, 5, 3, 1, 10, 120, 195, 195, 120, 190, 117, 3, 0.655226
127, 3, bw, attraction, a-b-db, 14, 2, 1, 11, 83, 153, 165, 90, 90, 165, 2, 1.955
127, 3, bw, attraction, a-b-db, 14, 2, 1, 11, 83, 153, 165, 90, 90, 165, 1, 0.81894
127, 3, bw, attraction, a-b-da, 9, 2, 1, 12, 157, 86, 165, 90, 90, 165, 3, 1.73595
127, 3, bw, attraction, a-b-da, 9, 2, 1, 12, 157, 86, 165, 90, 90, 165, 1, 0.809315
127, 3, bw, attraction, a-b-da, 14, 1, 1, 13, 125, 56, 135, 60, 60, 135, 2, 2.39044
127, 3, bw, attraction, a-b-da, 14, 1, 1, 13, 125, 56, 135, 60, 60, 135, 1, 2.09303
127, 3, bw, attraction, a-b-db, 14, 3, 1, 14, 120, 195, 111, 181, 195, 120, 1, 1.92624
127, 3, bw, attraction, a-b-db, 14, 3, 1, 14, 120, 195, 111, 181, 195, 120, 3, 1.35967
127, 3, bw, filler, NA, 999, 999, 1, 15, 67, 135, 130, 58, 108, 98, 3, 1.23041
127, 3, bw, filler, NA, 999, 999, 1, 15, 67, 135, 130, 58, 108, 98, 2, 1.56402
127, 3, bw, catch, NA, 999, 999, 1, 16, 96, 99, 140, 175, 114, 141, 2, 0.890873
127, 3, bw, catch, NA, 999, 999, 1, 16, 96, 99, 140, 175, 114, 141, 1, 0.797824
127, 3, bw, filler, NA, 999, 999, 1, 17, 136, 114, 101, 137, 149, 100, 1, 1.61945
127, 3, bw, filler, NA, 999, 999, 1, 17, 136, 114, 101, 137, 149, 100, 3, 0.993723
127, 3, bw, attraction, a-b-db, 2, 1, 1, 18, 59, 134, 135, 60, 60, 135, 2, 1.57539
127, 3, bw, attraction, a-b-db, 2, 1, 1, 18, 59, 134, 135, 60, 60, 135, 1, 1.08684
127, 3, bw, filler, NA, 999, 999, 1, 19, 156, 87, 127, 137, 102, 164, 2, 1.24908
127, 3, bw, filler, NA, 999, 999, 1, 19, 156, 87, 127, 137, 102, 164, 1, 1.12605
127, 3, bw, filler, NA, 999, 999, 1, 20, 94, 81, 103, 194, 144, 163, 3, 1.11824
127, 3, bw, filler, NA, 999, 999, 1, 20, 94, 81, 103, 194, 144, 163, 1, 0.848539
127, 3, bw, attraction, a-b-da, 14, 3, 1, 21, 120, 195, 195, 120, 181, 111, 1, 1.0123
127, 3, bw, attraction, a-b-da, 14, 3, 1, 21, 120, 195, 195, 120, 181, 111, 3, 0.77856
127, 3, bw, attraction, a-b-da, 9, 1, 1, 22, 135, 60, 129, 57, 60, 135, 3, 1.92907
127, 3, bw, attraction, a-b-da, 9, 1, 1, 22, 135, 60, 129, 57, 60, 135, 1, 0.786296
127, 3, bw, attraction, a-b-da, 14, 2, 1, 23, 90, 165, 165, 90, 153, 83, 1, 1.7126
127, 3, bw, attraction, a-b-da, 14, 2, 1, 23, 90, 165, 165, 90, 153, 83, 3, 0.954686
127, 3, bw, attraction, a-b-da, 2, 2, 1, 24, 165, 90, 90, 165, 163, 89, 2, 1.0344
127, 3, bw, attraction, a-b-da, 2, 2, 1, 24, 165, 90, 90, 165, 163, 89, 3, 0.600015
127, 3, bw, catch, NA, 999, 999, 1, 25, 99, 96, 155, 100, 165, 150, 3, 0.741799
127, 3, bw, catch, NA, 999, 999, 1, 25, 99, 96, 155, 100, 165, 150, 1, 0.662848
127, 3, bw, attraction, a-b-db, 14, 1, 1, 26, 135, 60, 56, 125, 60, 135, 3, 3.79393
127, 3, bw, attraction, a-b-db, 14, 1, 1, 26, 135, 60, 56, 125, 60, 135, 2, 0.640132
127, 3, bw, attraction, a-b-da, 9, 3, 1, 27, 186, 114, 120, 195, 195, 120, 2, 1.00376
127, 3, bw, attraction, a-b-da, 9, 3, 1, 27, 186, 114, 120, 195, 195, 120, 1, 0.618791
127, 3, bw, attraction, a-b-db, 2, 3, 1, 28, 195, 120, 120, 195, 119, 193, 2, 2.07195
127, 3, bw, attraction, a-b-db, 2, 3, 1, 28, 195, 120, 120, 195, 119, 193, 1, 0.683226
127, 3, bw, attraction, a-b-da, 2, 1, 1, 29, 135, 60, 134, 59, 60, 135, 2, 10.2376
127, 3, bw, attraction, a-b-da, 2, 1, 1, 29, 135, 60, 134, 59, 60, 135, 1, 0.840343
127, 3, bw, filler, NA, 999, 999, 1, 30, 142, 131, 191, 119, 155, 150, 2, 1.74814
127, 3, bw, filler, NA, 999, 999, 1, 30, 142, 131, 191, 119, 155, 150, 1, 0.796782
127, 3, bw, filler, NA, 999, 999, 1, 31, 69, 185, 92, 120, 193, 100, 3, 1.96259
127, 3, bw, filler, NA, 999, 999, 1, 31, 69, 185, 92, 120, 193, 100, 2, 0.978544
127, 3, bw, catch, NA, 999, 999, 1, 32, 105, 150, 72, 123, 162, 153, 3, 1.05684
127, 3, bw, catch, NA, 999, 999, 1, 32, 105, 150, 72, 123, 162, 153, 2, 0.981283
127, 3, bw, attraction, a-b-da, 5, 2, 1, 33, 165, 90, 90, 165, 161, 88, 2, 2.33151
127, 3, bw, attraction, a-b-da, 5, 2, 1, 33, 165, 90, 90, 165, 161, 88, 1, 0.836909
127, 3, bw, attraction, a-b-db, 9, 1, 1, 34, 57, 129, 135, 60, 60, 135, 3, 2.11318
127, 3, bw, attraction, a-b-db, 9, 1, 1, 34, 57, 129, 135, 60, 60, 135, 1, 1.65896
127, 3, bw, attraction, a-b-da, 2, 3, 1, 35, 193, 119, 195, 120, 120, 195, 3, 4.64574
127, 3, bw, attraction, a-b-da, 2, 3, 1, 35, 193, 119, 195, 120, 120, 195, 1, 1.28962
127, 3, bw, attraction, a-b-db, 9, 2, 1, 36, 86, 157, 165, 90, 90, 165, 3, 2.85983
127, 3, bw, attraction, a-b-db, 9, 2, 1, 36, 86, 157, 165, 90, 90, 165, 1, 0.75951
127, 3, bw, attraction, a-b-da, 5, 1, 1, 37, 135, 60, 132, 58, 60, 135, 3, 5.52666
127, 3, bw, attraction, a-b-da, 5, 1, 1, 37, 135, 60, 132, 58, 60, 135, 2, 0.990805
127, 3, bw, attraction, a-b-da, 5, 2, 2, 1, 165, 90, 90, 165, 161, 88, 2, 1.79707
127, 3, bw, attraction, a-b-da, 5, 2, 2, 1, 165, 90, 90, 165, 161, 88, 1, 1.7633
127, 3, bw, attraction, a-b-db, 14, 1, 2, 2, 56, 125, 60, 135, 135, 60, 2, 1.59403
127, 3, bw, attraction, a-b-db, 14, 1, 2, 2, 56, 125, 60, 135, 135, 60, 1, 1.07282
127, 3, bw, attraction, a-b-da, 5, 3, 2, 3, 190, 117, 195, 120, 120, 195, 2, 3.0758
127, 3, bw, attraction, a-b-da, 5, 3, 2, 3, 190, 117, 195, 120, 120, 195, 1, 0.814648
127, 3, bw, catch, NA, 999, 999, 2, 4, 91, 104, 145, 110, 166, 149, 3, 0.859743
127, 3, bw, catch, NA, 999, 999, 2, 4, 91, 104, 145, 110, 166, 149, 1, 0.84011
127, 3, bw, filler, NA, 999, 999, 2, 5, 195, 81, 82, 56, 128, 87, 1, 1.11577
127, 3, bw, filler, NA, 999, 999, 2, 5, 195, 81, 82, 56, 128, 87, 2, 0.862054
127, 3, bw, attraction, a-b-da, 2, 2, 2, 6, 163, 89, 90, 165, 165, 90, 2, 1.30513
127, 3, bw, attraction, a-b-da, 2, 2, 2, 6, 163, 89, 90, 165, 165, 90, 3, 0.931429
127, 3, bw, attraction, a-b-da, 2, 1, 2, 7, 134, 59, 135, 60, 60, 135, 3, 4.64379
127, 3, bw, attraction, a-b-da, 2, 1, 2, 7, 134, 59, 135, 60, 60, 135, 2, 2.1994
127, 3, bw, filler, NA, 999, 999, 2, 8, 89, 192, 87, 164, 127, 89, 1, 1.22867
127, 3, bw, filler, NA, 999, 999, 2, 8, 89, 192, 87, 164, 127, 89, 3, 0.882461
127, 3, bw, attraction, a-b-db, 9, 1, 2, 9, 135, 60, 57, 129, 60, 135, 3, 4.5166
127, 3, bw, attraction, a-b-db, 9, 1, 2, 9, 135, 60, 57, 129, 60, 135, 2, 1.10192
127, 3, bw, filler, NA, 999, 999, 2, 10, 112, 100, 100, 114, 186, 124, 3, 1.77548
127, 3, bw, filler, NA, 999, 999, 2, 10, 112, 100, 100, 114, 186, 124, 2, 3.46294
127, 3, bw, catch, NA, 999, 999, 2, 11, 110, 145, 118, 77, 189, 126, 3, 0.833065
127, 3, bw, catch, NA, 999, 999, 2, 11, 110, 145, 118, 77, 189, 126, 2, 1.07877
127, 3, bw, attraction, a-b-db, 5, 1, 2, 12, 60, 135, 135, 60, 58, 132, 2, 2.89708
127, 3, bw, attraction, a-b-db, 5, 1, 2, 12, 60, 135, 135, 60, 58, 132, 3, 0.883531
127, 3, bw, filler, NA, 999, 999, 2, 13, 157, 159, 119, 141, 156, 64, 1, 0.989839
127, 3, bw, filler, NA, 999, 999, 2, 13, 157, 159, 119, 141, 156, 64, 3, 0.924872
127, 3, bw, attraction, a-b-da, 14, 3, 2, 14, 181, 111, 120, 195, 195, 120, 3, 1.76512
127, 3, bw, attraction, a-b-da, 14, 3, 2, 14, 181, 111, 120, 195, 195, 120, 1, 3.21329
127, 3, bw, filler, NA, 999, 999, 2, 15, 95, 164, 144, 89, 69, 164, 1, 2.07347
127, 3, bw, filler, NA, 999, 999, 2, 15, 95, 164, 144, 89, 69, 164, 3, 0.604925
127, 3, bw, filler, NA, 999, 999, 2, 16, 77, 158, 131, 111, 118, 142, 3, 1.46654
127, 3, bw, filler, NA, 999, 999, 2, 16, 77, 158, 131, 111, 118, 142, 1, 1.08682
127, 3, bw, attraction, a-b-db, 2, 3, 2, 17, 119, 193, 120, 195, 195, 120, 2, 1.49693
127, 3, bw, attraction, a-b-db, 2, 3, 2, 17, 119, 193, 120, 195, 195, 120, 1, 2.33193
127, 3, bw, filler, NA, 999, 999, 2, 18, 57, 132, 177, 93, 116, 155, 3, 1.2757
127, 3, bw, filler, NA, 999, 999, 2, 18, 57, 132, 177, 93, 116, 155, 1, 0.775328
127, 3, bw, attraction, a-b-db, 9, 2, 2, 19, 90, 165, 165, 90, 86, 157, 3, 2.98188
127, 3, bw, attraction, a-b-db, 9, 2, 2, 19, 90, 165, 165, 90, 86, 157, 2, 1.01285
127, 3, bw, attraction, a-b-da, 2, 3, 2, 20, 195, 120, 120, 195, 193, 119, 1, 2.67368
127, 3, bw, attraction, a-b-da, 2, 3, 2, 20, 195, 120, 120, 195, 193, 119, 2, 0.564771
127, 3, bw, attraction, a-b-db, 5, 3, 2, 21, 195, 120, 120, 195, 117, 190, 2, 1.18796
127, 3, bw, attraction, a-b-db, 5, 3, 2, 21, 195, 120, 120, 195, 117, 190, 3, 1.61158
127, 3, bw, attraction, a-b-db, 2, 2, 2, 22, 90, 165, 165, 90, 89, 163, 2, 2.08024
127, 3, bw, attraction, a-b-db, 2, 2, 2, 22, 90, 165, 165, 90, 89, 163, 1, 0.731636
127, 3, bw, attraction, a-b-db, 9, 3, 2, 23, 195, 120, 114, 186, 120, 195, 3, 2.57215
127, 3, bw, attraction, a-b-db, 9, 3, 2, 23, 195, 120, 114, 186, 120, 195, 1, 0.715115
127, 3, bw, filler, NA, 999, 999, 2, 24, 59, 160, 126, 98, 96, 114, 2, 1.21224
127, 3, bw, filler, NA, 999, 999, 2, 24, 59, 160, 126, 98, 96, 114, 1, 3.42656
127, 3, bw, attraction, a-b-da, 9, 1, 2, 25, 129, 57, 60, 135, 135, 60, 3, 3.90999
127, 3, bw, attraction, a-b-da, 9, 1, 2, 25, 129, 57, 60, 135, 135, 60, 1, 1.98341
127, 3, bw, attraction, a-b-db, 14, 3, 2, 26, 120, 195, 195, 120, 111, 181, 2, 2.04539
127, 3, bw, attraction, a-b-db, 14, 3, 2, 26, 120, 195, 195, 120, 111, 181, 3, 0.994144
127, 3, bw, attraction, a-b-db, 14, 2, 2, 27, 83, 153, 90, 165, 165, 90, 2, 1.55166
127, 3, bw, attraction, a-b-db, 14, 2, 2, 27, 83, 153, 90, 165, 165, 90, 1, 1.09663
127, 3, bw, attraction, a-b-db, 2, 1, 2, 28, 60, 135, 135, 60, 59, 134, 1, 2.32211
127, 3, bw, attraction, a-b-db, 2, 1, 2, 28, 60, 135, 135, 60, 59, 134, 2, 1.53937
127, 3, bw, attraction, a-b-da, 9, 2, 2, 29, 157, 86, 90, 165, 165, 90, 2, 1.54755
127, 3, bw, attraction, a-b-da, 9, 2, 2, 29, 157, 86, 90, 165, 165, 90, 1, 0.908253
127, 3, bw, attraction, a-b-da, 14, 1, 2, 30, 125, 56, 135, 60, 60, 135, 2, 2.00533
127, 3, bw, attraction, a-b-da, 14, 1, 2, 30, 125, 56, 135, 60, 60, 135, 3, 1.04337
127, 3, bw, attraction, a-b-da, 5, 1, 2, 31, 60, 135, 132, 58, 135, 60, 1, 9.86288
127, 3, bw, attraction, a-b-da, 5, 1, 2, 31, 60, 135, 132, 58, 135, 60, 2, 0.760541
127, 3, bw, filler, NA, 999, 999, 2, 32, 164, 56, 115, 77, 159, 91, 3, 1.06369
127, 3, bw, filler, NA, 999, 999, 2, 32, 164, 56, 115, 77, 159, 91, 2, 1.33982
127, 3, bw, attraction, a-b-da, 9, 3, 2, 33, 186, 114, 195, 120, 120, 195, 2, 3.41999
127, 3, bw, attraction, a-b-da, 9, 3, 2, 33, 186, 114, 195, 120, 120, 195, 1, 0.913676
127, 3, bw, attraction, a-b-da, 14, 2, 2, 34, 153, 83, 165, 90, 90, 165, 3, 1.67468
127, 3, bw, attraction, a-b-da, 14, 2, 2, 34, 153, 83, 165, 90, 90, 165, 1, 0.726201
127, 3, bw, filler, NA, 999, 999, 2, 35, 149, 131, 96, 146, 160, 114, 1, 1.31845
127, 3, bw, filler, NA, 999, 999, 2, 35, 149, 131, 96, 146, 160, 114, 2, 0.552652
127, 3, bw, catch, NA, 999, 999, 2, 36, 169, 146, 163, 92, 123, 72, 1, 0.80033
127, 3, bw, catch, NA, 999, 999, 2, 36, 169, 146, 163, 92, 123, 72, 3, 1.23152
127, 3, bw, attraction, a-b-db, 5, 2, 2, 37, 165, 90, 88, 161, 90, 165, 3, 18.6757
127, 3, bw, attraction, a-b-db, 5, 2, 2, 37, 165, 90, 88, 161, 90, 165, 1, 1.0905
127, 3, bw, attraction, a-b-da, 9, 2, 3, 1, 90, 165, 157, 86, 165, 90, 1, 1.02012
127, 3, bw, attraction, a-b-da, 9, 2, 3, 1, 90, 165, 157, 86, 165, 90, 3, 0.938453
127, 3, bw, attraction, a-b-db, 5, 1, 3, 2, 60, 135, 135, 60, 58, 132, 1, 1.40267
127, 3, bw, attraction, a-b-db, 5, 1, 3, 2, 60, 135, 135, 60, 58, 132, 2, 0.601629
127, 3, bw, attraction, a-b-da, 5, 2, 3, 3, 161, 88, 165, 90, 90, 165, 3, 2.75131
127, 3, bw, attraction, a-b-da, 5, 2, 3, 3, 161, 88, 165, 90, 90, 165, 2, 0.839888
127, 3, bw, catch, NA, 999, 999, 3, 4, 111, 144, 193, 122, 116, 79, 2, 1.43617
127, 3, bw, catch, NA, 999, 999, 3, 4, 111, 144, 193, 122, 116, 79, 3, 0.865687
127, 3, bw, filler, NA, 999, 999, 3, 5, 171, 140, 108, 150, 58, 187, 1, 1.02865
127, 3, bw, filler, NA, 999, 999, 3, 5, 171, 140, 108, 150, 58, 187, 3, 2.67449
127, 3, bw, attraction, a-b-db, 2, 2, 3, 6, 89, 163, 90, 165, 165, 90, 3, 1.94813
127, 3, bw, attraction, a-b-db, 2, 2, 3, 6, 89, 163, 90, 165, 165, 90, 2, 1.01295
127, 3, bw, attraction, a-b-da, 2, 1, 3, 7, 135, 60, 60, 135, 134, 59, 2, 1.96184
127, 3, bw, attraction, a-b-da, 2, 1, 3, 7, 135, 60, 60, 135, 134, 59, 3, 2.44189
127, 3, bw, filler, NA, 999, 999, 3, 8, 146, 187, 102, 87, 99, 90, 1, 0.853113
127, 3, bw, filler, NA, 999, 999, 3, 8, 146, 187, 102, 87, 99, 90, 2, 0.81812
127, 3, bw, attraction, a-b-db, 9, 3, 3, 9, 114, 186, 120, 195, 195, 120, 3, 1.64706
127, 3, bw, attraction, a-b-db, 9, 3, 3, 9, 114, 186, 120, 195, 195, 120, 1, 0.811761
127, 3, bw, filler, NA, 999, 999, 3, 10, 122, 138, 118, 61, 103, 68, 1, 0.760837
127, 3, bw, filler, NA, 999, 999, 3, 10, 122, 138, 118, 61, 103, 68, 2, 1.40122
127, 3, bw, attraction, a-b-da, 14, 1, 3, 11, 125, 56, 135, 60, 60, 135, 2, 2.16673
127, 3, bw, attraction, a-b-da, 14, 1, 3, 11, 125, 56, 135, 60, 60, 135, 1, 0.534702
127, 3, bw, attraction, a-b-db, 14, 2, 3, 12, 165, 90, 83, 153, 90, 165, 3, 5.29511
127, 3, bw, attraction, a-b-db, 14, 2, 3, 12, 165, 90, 83, 153, 90, 165, 2, 1.57694
127, 3, bw, filler, NA, 999, 999, 3, 13, 153, 109, 156, 91, 161, 133, 3, 1.439
127, 3, bw, filler, NA, 999, 999, 3, 13, 153, 109, 156, 91, 161, 133, 2, 0.979864
127, 3, bw, attraction, a-b-db, 2, 1, 3, 14, 135, 60, 59, 134, 60, 135, 2, 2.00212
127, 3, bw, attraction, a-b-db, 2, 1, 3, 14, 135, 60, 59, 134, 60, 135, 1, 1.23276
127, 3, bw, attraction, a-b-da, 5, 3, 3, 15, 190, 117, 195, 120, 120, 195, 3, 2.86098
127, 3, bw, attraction, a-b-da, 5, 3, 3, 15, 190, 117, 195, 120, 120, 195, 1, 1.33686
127, 3, bw, attraction, a-b-db, 2, 3, 3, 16, 195, 120, 120, 195, 119, 193, 2, 1.17689
127, 3, bw, attraction, a-b-db, 2, 3, 3, 16, 195, 120, 120, 195, 119, 193, 1, 1.57662
127, 3, bw, attraction, a-b-da, 2, 3, 3, 17, 195, 120, 193, 119, 120, 195, 3, 1.87874
127, 3, bw, attraction, a-b-da, 2, 3, 3, 17, 195, 120, 193, 119, 120, 195, 2, 1.69805
127, 3, bw, attraction, a-b-db, 5, 3, 3, 18, 117, 190, 120, 195, 195, 120, 2, 1.45961
127, 3, bw, attraction, a-b-db, 5, 3, 3, 18, 117, 190, 120, 195, 195, 120, 1, 1.90367
127, 3, bw, filler, NA, 999, 999, 3, 19, 80, 161, 110, 150, 194, 142, 3, 1.08099
127, 3, bw, filler, NA, 999, 999, 3, 19, 80, 161, 110, 150, 194, 142, 1, 0.780727
127, 3, bw, attraction, a-b-da, 14, 2, 3, 20, 90, 165, 165, 90, 153, 83, 2, 1.179
127, 3, bw, attraction, a-b-da, 14, 2, 3, 20, 90, 165, 165, 90, 153, 83, 3, 1.26654
127, 3, bw, attraction, a-b-db, 5, 2, 3, 21, 165, 90, 88, 161, 90, 165, 1, 2.45348
127, 3, bw, attraction, a-b-db, 5, 2, 3, 21, 165, 90, 88, 161, 90, 165, 3, 0.762037
127, 3, bw, attraction, a-b-db, 9, 2, 3, 22, 86, 157, 90, 165, 165, 90, 2, 1.36894
127, 3, bw, attraction, a-b-db, 9, 2, 3, 22, 86, 157, 90, 165, 165, 90, 3, 0.84922
127, 3, bw, catch, NA, 999, 999, 3, 23, 76, 119, 154, 161, 158, 97, 2, 0.893024
127, 3, bw, catch, NA, 999, 999, 3, 23, 76, 119, 154, 161, 158, 97, 1, 0.615876
127, 3, bw, filler, NA, 999, 999, 3, 24, 119, 87, 124, 75, 129, 94, 3, 0.924992
127, 3, bw, filler, NA, 999, 999, 3, 24, 119, 87, 124, 75, 129, 94, 2, 0.854715
127, 3, bw, attraction, a-b-db, 14, 1, 3, 25, 56, 125, 60, 135, 135, 60, 2, 0.946362
127, 3, bw, attraction, a-b-db, 14, 1, 3, 25, 56, 125, 60, 135, 135, 60, 1, 0.715394
127, 3, bw, attraction, a-b-da, 9, 1, 3, 26, 129, 57, 135, 60, 60, 135, 2, 1.29262
127, 3, bw, attraction, a-b-da, 9, 1, 3, 26, 129, 57, 135, 60, 60, 135, 1, 0.487339
127, 3, bw, filler, NA, 999, 999, 3, 27, 98, 175, 90, 156, 134, 193, 3, 0.913815
127, 3, bw, filler, NA, 999, 999, 3, 27, 98, 175, 90, 156, 134, 193, 2, 0.484149
127, 3, bw, filler, NA, 999, 999, 3, 28, 107, 101, 149, 82, 189, 139, 3, 0.742611
127, 3, bw, filler, NA, 999, 999, 3, 28, 107, 101, 149, 82, 189, 139, 1, 0.647687
127, 3, bw, attraction, a-b-db, 14, 3, 3, 29, 195, 120, 120, 195, 111, 181, 1, 0.971563
127, 3, bw, attraction, a-b-db, 14, 3, 3, 29, 195, 120, 120, 195, 111, 181, 3, 0.451148
127, 3, bw, filler, NA, 999, 999, 3, 30, 84, 194, 79, 65, 77, 130, 1, 0.670956
127, 3, bw, filler, NA, 999, 999, 3, 30, 84, 194, 79, 65, 77, 130, 2, 0.402674
127, 3, bw, filler, NA, 999, 999, 3, 31, 129, 91, 106, 113, 189, 103, 3, 0.896515
127, 3, bw, filler, NA, 999, 999, 3, 31, 129, 91, 106, 113, 189, 103, 2, 0.507513
127, 3, bw, attraction, a-b-da, 14, 3, 3, 32, 120, 195, 181, 111, 195, 120, 1, 0.916695
127, 3, bw, attraction, a-b-da, 14, 3, 3, 32, 120, 195, 181, 111, 195, 120, 2, 0.759135
127, 3, bw, attraction, a-b-da, 9, 3, 3, 33, 186, 114, 120, 195, 195, 120, 2, 1.24603
127, 3, bw, attraction, a-b-da, 9, 3, 3, 33, 186, 114, 120, 195, 195, 120, 1, 0.874942
127, 3, bw, attraction, a-b-da, 2, 2, 3, 34, 165, 90, 90, 165, 163, 89, 2, 0.901273
127, 3, bw, attraction, a-b-da, 2, 2, 3, 34, 165, 90, 90, 165, 163, 89, 1, 1.20049
127, 3, bw, attraction, a-b-db, 9, 1, 3, 35, 135, 60, 60, 135, 57, 129, 2, 0.933886
127, 3, bw, attraction, a-b-db, 9, 1, 3, 35, 135, 60, 60, 135, 57, 129, 1, 0.775606
127, 3, bw, attraction, a-b-da, 5, 1, 3, 36, 60, 135, 132, 58, 135, 60, 3, 2.22195
127, 3, bw, attraction, a-b-da, 5, 1, 3, 36, 60, 135, 132, 58, 135, 60, 2, 0.627189
127, 3, bw, catch, NA, 999, 999, 3, 37, 137, 118, 176, 139, 120, 75, 2, 0.767867
127, 3, bw, catch, NA, 999, 999, 3, 37, 137, 118, 176, 139, 120, 75, 3, 0.59194
127, 3, bw, attraction, a-b-da, 9, 2, 4, 1, 165, 90, 90, 165, 157, 86, 2, 1.53366
127, 3, bw, attraction, a-b-da, 9, 2, 4, 1, 165, 90, 90, 165, 157, 86, 3, 1.03144
127, 3, bw, filler, NA, 999, 999, 4, 2, 176, 194, 114, 65, 162, 71, 1, 0.6755
127, 3, bw, filler, NA, 999, 999, 4, 2, 176, 194, 114, 65, 162, 71, 2, 0.583367
127, 3, bw, attraction, a-b-db, 2, 1, 4, 3, 60, 135, 59, 134, 135, 60, 2, 1.33382
127, 3, bw, attraction, a-b-db, 2, 1, 4, 3, 60, 135, 59, 134, 135, 60, 1, 0.615235
127, 3, bw, attraction, a-b-da, 14, 1, 4, 4, 60, 135, 135, 60, 125, 56, 2, 1.45235
127, 3, bw, attraction, a-b-da, 14, 1, 4, 4, 60, 135, 135, 60, 125, 56, 3, 0.721197
127, 3, bw, catch, NA, 999, 999, 4, 5, 107, 88, 143, 112, 177, 138, 3, 0.898234
127, 3, bw, catch, NA, 999, 999, 4, 5, 107, 88, 143, 112, 177, 138, 1, 1.51724
127, 3, bw, filler, NA, 999, 999, 4, 6, 113, 77, 69, 109, 183, 120, 3, 0.646071
127, 3, bw, filler, NA, 999, 999, 4, 6, 113, 77, 69, 109, 183, 120, 2, 0.531192
127, 3, bw, attraction, a-b-db, 9, 2, 4, 7, 165, 90, 86, 157, 90, 165, 1, 1.19577
127, 3, bw, attraction, a-b-db, 9, 2, 4, 7, 165, 90, 86, 157, 90, 165, 2, 1.16262
127, 3, bw, attraction, a-b-db, 14, 3, 4, 8, 195, 120, 111, 181, 120, 195, 1, 1.40154
127, 3, bw, attraction, a-b-db, 14, 3, 4, 8, 195, 120, 111, 181, 120, 195, 2, 0.624412
127, 3, bw, attraction, a-b-da, 2, 1, 4, 9, 134, 59, 60, 135, 135, 60, 2, 1.04472
127, 3, bw, attraction, a-b-da, 2, 1, 4, 9, 134, 59, 60, 135, 135, 60, 1, 0.76175
127, 3, bw, filler, NA, 999, 999, 4, 10, 152, 92, 56, 124, 125, 105, 1, 1.02491
127, 3, bw, filler, NA, 999, 999, 4, 10, 152, 92, 56, 124, 125, 105, 2, 2.79842
127, 3, bw, attraction, a-b-db, 9, 1, 4, 11, 57, 129, 60, 135, 135, 60, 2, 1.31542
127, 3, bw, attraction, a-b-db, 9, 1, 4, 11, 57, 129, 60, 135, 135, 60, 3, 0.813792
127, 3, bw, filler, NA, 999, 999, 4, 12, 139, 143, 89, 104, 180, 73, 1, 1.14688
127, 3, bw, filler, NA, 999, 999, 4, 12, 139, 143, 89, 104, 180, 73, 2, 0.771708
127, 3, bw, filler, NA, 999, 999, 4, 13, 91, 105, 167, 113, 162, 192, 3, 0.762897
127, 3, bw, filler, NA, 999, 999, 4, 13, 91, 105, 167, 113, 162, 192, 1, 1.04316
127, 3, bw, filler, NA, 999, 999, 4, 14, 151, 118, 144, 81, 66, 106, 1, 0.798823
127, 3, bw, filler, NA, 999, 999, 4, 14, 151, 118, 144, 81, 66, 106, 3, 0.637907
127, 3, bw, attraction, a-b-da, 14, 3, 4, 15, 195, 120, 181, 111, 120, 195, 3, 6.73826
127, 3, bw, attraction, a-b-da, 14, 3, 4, 15, 195, 120, 181, 111, 120, 195, 2, 0.482107
127, 3, bw, catch, NA, 999, 999, 4, 16, 155, 100, 98, 97, 141, 174, 3, 0.67659
127, 3, bw, catch, NA, 999, 999, 4, 16, 155, 100, 98, 97, 141, 174, 2, 0.904344
127, 3, bw, attraction, a-b-da, 5, 2, 4, 17, 165, 90, 90, 165, 161, 88, 2, 1.91413
127, 3, bw, attraction, a-b-da, 5, 2, 4, 17, 165, 90, 90, 165, 161, 88, 1, 0.540036
127, 3, bw, attraction, a-b-db, 14, 2, 4, 18, 83, 153, 90, 165, 165, 90, 2, 1.22775
127, 3, bw, attraction, a-b-db, 14, 2, 4, 18, 83, 153, 90, 165, 165, 90, 3, 0.673309
127, 3, bw, attraction, a-b-da, 5, 3, 4, 19, 190, 117, 120, 195, 195, 120, 2, 0.835905
127, 3, bw, attraction, a-b-da, 5, 3, 4, 19, 190, 117, 120, 195, 195, 120, 1, 0.473419
127, 3, bw, filler, NA, 999, 999, 4, 20, 99, 60, 158, 107, 163, 165, 3, 0.780109
127, 3, bw, filler, NA, 999, 999, 4, 20, 99, 60, 158, 107, 163, 165, 1, 0.915638
127, 3, bw, attraction, a-b-db, 5, 1, 4, 21, 60, 135, 135, 60, 58, 132, 2, 0.900727
127, 3, bw, attraction, a-b-db, 5, 1, 4, 21, 60, 135, 135, 60, 58, 132, 1, 0.479833
127, 3, bw, attraction, a-b-db, 5, 3, 4, 22, 117, 190, 120, 195, 195, 120, 2, 2.88213
127, 3, bw, attraction, a-b-db, 5, 3, 4, 22, 117, 190, 120, 195, 195, 120, 3, 0.877366
127, 3, bw, attraction, a-b-db, 9, 3, 4, 23, 195, 120, 114, 186, 120, 195, 3, 2.38364
127, 3, bw, attraction, a-b-db, 9, 3, 4, 23, 195, 120, 114, 186, 120, 195, 1, 0.550953
127, 3, bw, attraction, a-b-da, 14, 2, 4, 24, 165, 90, 90, 165, 153, 83, 2, 1.31855
127, 3, bw, attraction, a-b-da, 14, 2, 4, 24, 165, 90, 90, 165, 153, 83, 1, 0.464884
127, 3, bw, attraction, a-b-db, 2, 2, 4, 25, 165, 90, 90, 165, 89, 163, 2, 1.516
127, 3, bw, attraction, a-b-db, 2, 2, 4, 25, 165, 90, 90, 165, 89, 163, 1, 0.486127
127, 3, bw, attraction, a-b-da, 2, 2, 4, 26, 165, 90, 163, 89, 90, 165, 3, 5.50468
127, 3, bw, attraction, a-b-da, 2, 2, 4, 26, 165, 90, 163, 89, 90, 165, 1, 0.850131
127, 3, bw, filler, NA, 999, 999, 4, 27, 81, 176, 126, 157, 63, 142, 2, 0.765847
127, 3, bw, filler, NA, 999, 999, 4, 27, 81, 176, 126, 157, 63, 142, 3, 0.398274
127, 3, bw, catch, NA, 999, 999, 4, 28, 103, 92, 136, 119, 187, 128, 3, 1.05201
127, 3, bw, catch, NA, 999, 999, 4, 28, 103, 92, 136, 119, 187, 128, 1, 0.569227
127, 3, bw, filler, NA, 999, 999, 4, 29, 107, 93, 56, 78, 166, 75, 1, 1.22417
127, 3, bw, filler, NA, 999, 999, 4, 29, 107, 93, 56, 78, 166, 75, 2, 0.597773
127, 3, bw, attraction, a-b-da, 9, 3, 4, 30, 195, 120, 120, 195, 186, 114, 2, 1.62752
127, 3, bw, attraction, a-b-da, 9, 3, 4, 30, 195, 120, 120, 195, 186, 114, 1, 0.496984
127, 3, bw, attraction, a-b-da, 2, 3, 4, 31, 120, 195, 193, 119, 195, 120, 1, 1.30676
127, 3, bw, attraction, a-b-da, 2, 3, 4, 31, 120, 195, 193, 119, 195, 120, 3, 0.460998
127, 3, bw, attraction, a-b-db, 5, 2, 4, 32, 165, 90, 90, 165, 88, 161, 2, 0.696071
127, 3, bw, attraction, a-b-db, 5, 2, 4, 32, 165, 90, 90, 165, 88, 161, 1, 1.49911
127, 3, bw, attraction, a-b-db, 14, 1, 4, 33, 60, 135, 56, 125, 135, 60, 2, 0.988646
127, 3, bw, attraction, a-b-db, 14, 1, 4, 33, 60, 135, 56, 125, 135, 60, 3, 0.523542
127, 3, bw, attraction, a-b-db, 2, 3, 4, 34, 195, 120, 120, 195, 119, 193, 2, 2.16408
127, 3, bw, attraction, a-b-db, 2, 3, 4, 34, 195, 120, 120, 195, 119, 193, 1, 1.07607
127, 3, bw, attraction, a-b-da, 5, 1, 4, 35, 132, 58, 60, 135, 135, 60, 2, 0.934484
127, 3, bw, attraction, a-b-da, 5, 1, 4, 35, 132, 58, 60, 135, 135, 60, 1, 0.48807
127, 3, bw, filler, NA, 999, 999, 4, 36, 65, 170, 184, 87, 97, 125, 2, 5.47442
127, 3, bw, filler, NA, 999, 999, 4, 36, 65, 170, 184, 87, 97, 125, 3, 0.820719
127, 3, bw, attraction, a-b-da, 9, 1, 4, 37, 129, 57, 135, 60, 60, 135, 3, 2.36183
127, 3, bw, attraction, a-b-da, 9, 1, 4, 37, 129, 57, 135, 60, 60, 135, 1, 0.905648
127, 3, bw, catch, NA, 999, 999, 5, 1, 122, 193, 90, 165, 108, 87, 1, 2.61719
127, 3, bw, catch, NA, 999, 999, 5, 1, 122, 193, 90, 165, 108, 87, 3, 1.43115
127, 3, bw, filler, NA, 999, 999, 5, 2, 132, 126, 182, 181, 81, 189, 2, 0.931403
127, 3, bw, filler, NA, 999, 999, 5, 2, 132, 126, 182, 181, 81, 189, 3, 1.15697
127, 3, bw, attraction, a-b-db, 5, 1, 5, 3, 135, 60, 60, 135, 58, 132, 2, 0.875816
127, 3, bw, attraction, a-b-db, 5, 1, 5, 3, 135, 60, 60, 135, 58, 132, 1, 0.519563
127, 3, bw, filler, NA, 999, 999, 5, 4, 117, 181, 76, 101, 125, 58, 1, 0.680626
127, 3, bw, filler, NA, 999, 999, 5, 4, 117, 181, 76, 101, 125, 58, 2, 0.388355
127, 3, bw, attraction, a-b-da, 2, 2, 5, 5, 90, 165, 163, 89, 165, 90, 2, 0.85896
127, 3, bw, attraction, a-b-da, 2, 2, 5, 5, 90, 165, 163, 89, 165, 90, 3, 0.479289
127, 3, bw, attraction, a-b-da, 5, 3, 5, 6, 120, 195, 190, 117, 195, 120, 2, 0.657693
127, 3, bw, attraction, a-b-da, 5, 3, 5, 6, 120, 195, 190, 117, 195, 120, 1, 0.782222
127, 3, bw, attraction, a-b-db, 5, 2, 5, 7, 88, 161, 165, 90, 90, 165, 2, 1.3086
127, 3, bw, attraction, a-b-db, 5, 2, 5, 7, 88, 161, 165, 90, 90, 165, 3, 0.48685
127, 3, bw, filler, NA, 999, 999, 5, 8, 128, 62, 135, 120, 184, 120, 3, 0.889122
127, 3, bw, filler, NA, 999, 999, 5, 8, 128, 62, 135, 120, 184, 120, 1, 0.860198
127, 3, bw, attraction, a-b-db, 9, 2, 5, 9, 86, 157, 90, 165, 165, 90, 2, 0.671237
127, 3, bw, attraction, a-b-db, 9, 2, 5, 9, 86, 157, 90, 165, 165, 90, 1, 0.4837
127, 3, bw, attraction, a-b-db, 2, 3, 5, 10, 120, 195, 119, 193, 195, 120, 2, 0.926088
127, 3, bw, attraction, a-b-db, 2, 3, 5, 10, 120, 195, 119, 193, 195, 120, 3, 0.399946
127, 3, bw, attraction, a-b-db, 14, 1, 5, 11, 56, 125, 135, 60, 60, 135, 2, 1.0216
127, 3, bw, attraction, a-b-db, 14, 1, 5, 11, 56, 125, 135, 60, 60, 135, 1, 0.627294
127, 3, bw, filler, NA, 999, 999, 5, 12, 183, 193, 76, 58, 62, 162, 1, 0.607692
127, 3, bw, filler, NA, 999, 999, 5, 12, 183, 193, 76, 58, 62, 162, 2, 0.470026
127, 3, bw, attraction, a-b-da, 14, 3, 5, 13, 181, 111, 120, 195, 195, 120, 2, 0.753206
127, 3, bw, attraction, a-b-da, 14, 3, 5, 13, 181, 111, 120, 195, 195, 120, 3, 0.386443
127, 3, bw, attraction, a-b-db, 9, 1, 5, 14, 60, 135, 135, 60, 57, 129, 2, 0.704758
127, 3, bw, attraction, a-b-db, 9, 1, 5, 14, 60, 135, 135, 60, 57, 129, 1, 0.475854
127, 3, bw, attraction, a-b-da, 9, 2, 5, 15, 90, 165, 157, 86, 165, 90, 1, 1.31843
127, 3, bw, attraction, a-b-da, 9, 2, 5, 15, 90, 165, 157, 86, 165, 90, 2, 0.440628
127, 3, bw, attraction, a-b-da, 5, 1, 5, 16, 60, 135, 132, 58, 135, 60, 2, 0.996508
127, 3, bw, attraction, a-b-da, 5, 1, 5, 16, 60, 135, 132, 58, 135, 60, 1, 0.411359
127, 3, bw, attraction, a-b-da, 2, 1, 5, 17, 135, 60, 134, 59, 60, 135, 2, 0.65647
127, 3, bw, attraction, a-b-da, 2, 1, 5, 17, 135, 60, 134, 59, 60, 135, 1, 0.412969
127, 3, bw, filler, NA, 999, 999, 5, 18, 142, 170, 111, 62, 183, 135, 1, 1.14605
127, 3, bw, filler, NA, 999, 999, 5, 18, 142, 170, 111, 62, 183, 135, 2, 0.699075
127, 3, bw, filler, NA, 999, 999, 5, 19, 172, 64, 179, 112, 98, 113, 2, 1.26881
127, 3, bw, filler, NA, 999, 999, 5, 19, 172, 64, 179, 112, 98, 113, 1, 1.52912
127, 3, bw, attraction, a-b-db, 14, 2, 5, 20, 90, 165, 83, 153, 165, 90, 2, 0.985281
127, 3, bw, attraction, a-b-db, 14, 2, 5, 20, 90, 165, 83, 153, 165, 90, 3, 0.504895
127, 3, bw, attraction, a-b-db, 2, 1, 5, 21, 135, 60, 60, 135, 59, 134, 2, 1.36264
127, 3, bw, attraction, a-b-db, 2, 1, 5, 21, 135, 60, 60, 135, 59, 134, 1, 0.410826
127, 3, bw, attraction, a-b-da, 9, 1, 5, 22, 129, 57, 60, 135, 135, 60, 2, 0.751937
127, 3, bw, attraction, a-b-da, 9, 1, 5, 22, 129, 57, 60, 135, 135, 60, 1, 0.761177
127, 3, bw, attraction, a-b-db, 9, 3, 5, 23, 120, 195, 114, 186, 195, 120, 2, 1.06403
127, 3, bw, attraction, a-b-db, 9, 3, 5, 23, 120, 195, 114, 186, 195, 120, 3, 0.452368
127, 3, bw, filler, NA, 999, 999, 5, 24, 189, 103, 102, 72, 70, 110, 1, 0.680151
127, 3, bw, filler, NA, 999, 999, 5, 24, 189, 103, 102, 72, 70, 110, 2, 0.675844
127, 3, bw, attraction, a-b-db, 14, 3, 5, 25, 120, 195, 195, 120, 111, 181, 2, 0.870326
127, 3, bw, attraction, a-b-db, 14, 3, 5, 25, 120, 195, 195, 120, 111, 181, 3, 0.762747
127, 3, bw, attraction, a-b-da, 14, 1, 5, 26, 125, 56, 135, 60, 60, 135, 2, 1.16975
127, 3, bw, attraction, a-b-da, 14, 1, 5, 26, 125, 56, 135, 60, 60, 135, 1, 0.490165
127, 3, bw, filler, NA, 999, 999, 5, 27, 78, 136, 187, 70, 119, 194, 3, 0.995783
127, 3, bw, filler, NA, 999, 999, 5, 27, 78, 136, 187, 70, 119, 194, 1, 1.21883
127, 3, bw, catch, NA, 999, 999, 5, 28, 60, 135, 162, 153, 96, 159, 2, 0.935715
127, 3, bw, catch, NA, 999, 999, 5, 28, 60, 135, 162, 153, 96, 159, 1, 0.561556
127, 3, bw, filler, NA, 999, 999, 5, 29, 161, 151, 163, 173, 93, 73, 2, 0.544437
127, 3, bw, filler, NA, 999, 999, 5, 29, 161, 151, 163, 173, 93, 73, 3, 0.38563
127, 3, bw, filler, NA, 999, 999, 5, 30, 183, 93, 58, 63, 138, 70, 1, 1.17614
127, 3, bw, filler, NA, 999, 999, 5, 30, 183, 93, 58, 63, 138, 70, 2, 0.503692
127, 3, bw, attraction, a-b-da, 5, 2, 5, 31, 165, 90, 161, 88, 90, 165, 2, 0.809461
127, 3, bw, attraction, a-b-da, 5, 2, 5, 31, 165, 90, 161, 88, 90, 165, 1, 1.23995
127, 3, bw, attraction, a-b-db, 2, 2, 5, 32, 90, 165, 89, 163, 165, 90, 2, 0.748111
127, 3, bw, attraction, a-b-db, 2, 2, 5, 32, 90, 165, 89, 163, 165, 90, 3, 0.605253
127, 3, bw, attraction, a-b-db, 5, 3, 5, 33, 120, 195, 195, 120, 117, 190, 2, 0.538867
127, 3, bw, attraction, a-b-db, 5, 3, 5, 33, 120, 195, 195, 120, 117, 190, 1, 0.396049
127, 3, bw, catch, NA, 999, 999, 5, 34, 98, 97, 155, 100, 148, 167, 3, 0.705869
127, 3, bw, catch, NA, 999, 999, 5, 34, 98, 97, 155, 100, 148, 167, 1, 0.828392
127, 3, bw, attraction, a-b-da, 2, 3, 5, 35, 193, 119, 120, 195, 195, 120, 2, 0.744785
127, 3, bw, attraction, a-b-da, 2, 3, 5, 35, 193, 119, 120, 195, 195, 120, 1, 0.449876
127, 3, bw, attraction, a-b-da, 9, 3, 5, 36, 186, 114, 195, 120, 120, 195, 2, 0.725661
127, 3, bw, attraction, a-b-da, 9, 3, 5, 36, 186, 114, 195, 120, 120, 195, 3, 0.335275
127, 3, bw, attraction, a-b-da, 14, 2, 5, 37, 153, 83, 165, 90, 90, 165, 2, 0.831718
127, 3, bw, attraction, a-b-da, 14, 2, 5, 37, 153, 83, 165, 90, 90, 165, 1, 0.373482
127, 3, bw, attraction, a-b-db, 14, 3, 6, 1, 120, 195, 195, 120, 111, 181, 2, 0.555911
127, 3, bw, attraction, a-b-db, 14, 3, 6, 1, 120, 195, 195, 120, 111, 181, 1, 0.41242
127, 3, bw, attraction, a-b-db, 9, 2, 6, 2, 90, 165, 86, 157, 165, 90, 2, 0.697532
127, 3, bw, attraction, a-b-db, 9, 2, 6, 2, 90, 165, 86, 157, 165, 90, 3, 0.532654
127, 3, bw, attraction, a-b-db, 5, 3, 6, 3, 120, 195, 195, 120, 117, 190, 2, 0.525078
127, 3, bw, attraction, a-b-db, 5, 3, 6, 3, 120, 195, 195, 120, 117, 190, 1, 0.342869
127, 3, bw, attraction, a-b-db, 14, 2, 6, 4, 90, 165, 165, 90, 83, 153, 1, 1.7507
127, 3, bw, attraction, a-b-db, 14, 2, 6, 4, 90, 165, 165, 90, 83, 153, 3, 0.559632
127, 3, bw, attraction, a-b-da, 9, 2, 6, 5, 165, 90, 90, 165, 157, 86, 2, 0.862712
127, 3, bw, attraction, a-b-da, 9, 2, 6, 5, 165, 90, 90, 165, 157, 86, 3, 0.442934
127, 3, bw, attraction, a-b-db, 2, 2, 6, 6, 89, 163, 90, 165, 165, 90, 2, 0.686927
127, 3, bw, attraction, a-b-db, 2, 2, 6, 6, 89, 163, 90, 165, 165, 90, 3, 0.738549
127, 3, bw, catch, NA, 999, 999, 6, 7, 80, 115, 184, 131, 103, 152, 2, 0.490874
127, 3, bw, catch, NA, 999, 999, 6, 7, 80, 115, 184, 131, 103, 152, 1, 0.342095
127, 3, bw, filler, NA, 999, 999, 6, 8, 65, 119, 96, 154, 72, 192, 2, 1.39788
127, 3, bw, filler, NA, 999, 999, 6, 8, 65, 119, 96, 154, 72, 192, 1, 0.772794
127, 3, bw, filler, NA, 999, 999, 6, 9, 125, 80, 75, 66, 172, 124, 3, 0.915818
127, 3, bw, filler, NA, 999, 999, 6, 9, 125, 80, 75, 66, 172, 124, 2, 0.662336
127, 3, bw, attraction, a-b-da, 14, 2, 6, 10, 165, 90, 90, 165, 153, 83, 2, 0.809369
127, 3, bw, attraction, a-b-da, 14, 2, 6, 10, 165, 90, 90, 165, 153, 83, 3, 0.871668
127, 3, bw, attraction, a-b-da, 14, 1, 6, 11, 125, 56, 60, 135, 135, 60, 2, 0.794733
127, 3, bw, attraction, a-b-da, 14, 1, 6, 11, 125, 56, 60, 135, 135, 60, 3, 0.721697
127, 3, bw, attraction, a-b-da, 5, 1, 6, 12, 60, 135, 135, 60, 132, 58, 2, 0.986779
127, 3, bw, attraction, a-b-da, 5, 1, 6, 12, 60, 135, 135, 60, 132, 58, 3, 1.0504
127, 3, bw, attraction, a-b-da, 5, 2, 6, 13, 161, 88, 165, 90, 90, 165, 2, 0.573976
127, 3, bw, attraction, a-b-da, 5, 2, 6, 13, 161, 88, 165, 90, 90, 165, 1, 0.317771
127, 3, bw, attraction, a-b-db, 14, 1, 6, 14, 56, 125, 135, 60, 60, 135, 2, 1.13506
127, 3, bw, attraction, a-b-db, 14, 1, 6, 14, 56, 125, 135, 60, 60, 135, 3, 0.752634
127, 3, bw, filler, NA, 999, 999, 6, 15, 89, 146, 62, 56, 128, 165, 3, 1.32042
127, 3, bw, filler, NA, 999, 999, 6, 15, 89, 146, 62, 56, 128, 165, 2, 0.882589
127, 3, bw, filler, NA, 999, 999, 6, 16, 105, 81, 74, 114, 166, 149, 3, 1.2129
127, 3, bw, filler, NA, 999, 999, 6, 16, 105, 81, 74, 114, 166, 149, 1, 0.483175
127, 3, bw, attraction, a-b-db, 5, 1, 6, 17, 135, 60, 60, 135, 58, 132, 2, 0.989744
127, 3, bw, attraction, a-b-db, 5, 1, 6, 17, 135, 60, 60, 135, 58, 132, 1, 3.59676
127, 3, bw, filler, NA, 999, 999, 6, 18, 159, 76, 133, 103, 85, 195, 2, 1.44143
127, 3, bw, filler, NA, 999, 999, 6, 18, 159, 76, 133, 103, 85, 195, 1, 0.398208
127, 3, bw, filler, NA, 999, 999, 6, 19, 82, 92, 171, 140, 119, 140, 2, 0.556203
127, 3, bw, filler, NA, 999, 999, 6, 19, 82, 92, 171, 140, 119, 140, 1, 0.900554
127, 3, bw, filler, NA, 999, 999, 6, 20, 59, 166, 95, 60, 160, 91, 3, 0.686213
127, 3, bw, filler, NA, 999, 999, 6, 20, 59, 166, 95, 60, 160, 91, 2, 0.778028
127, 3, bw, attraction, a-b-da, 9, 1, 6, 21, 135, 60, 60, 135, 129, 57, 2, 0.824339
127, 3, bw, attraction, a-b-da, 9, 1, 6, 21, 135, 60, 60, 135, 129, 57, 3, 0.638106
127, 3, bw, attraction, a-b-da, 2, 3, 6, 22, 120, 195, 195, 120, 193, 119, 2, 0.75445
127, 3, bw, attraction, a-b-da, 2, 3, 6, 22, 120, 195, 195, 120, 193, 119, 3, 0.379534
127, 3, bw, attraction, a-b-da, 2, 1, 6, 23, 60, 135, 134, 59, 135, 60, 2, 1.33005
127, 3, bw, attraction, a-b-da, 2, 1, 6, 23, 60, 135, 134, 59, 135, 60, 1, 0.467622
127, 3, bw, attraction, a-b-db, 9, 3, 6, 24, 114, 186, 120, 195, 195, 120, 2, 0.822752
127, 3, bw, attraction, a-b-db, 9, 3, 6, 24, 114, 186, 120, 195, 195, 120, 3, 0.500396
127, 3, bw, filler, NA, 999, 999, 6, 25, 79, 86, 92, 104, 135, 145, 3, 1.05423
127, 3, bw, filler, NA, 999, 999, 6, 25, 79, 86, 92, 104, 135, 145, 1, 0.619171
127, 3, bw, filler, NA, 999, 999, 6, 26, 120, 189, 59, 66, 132, 93, 1, 0.984178
127, 3, bw, filler, NA, 999, 999, 6, 26, 120, 189, 59, 66, 132, 93, 2, 0.647913
127, 3, bw, attraction, a-b-da, 2, 2, 6, 27, 90, 165, 163, 89, 165, 90, 2, 0.883604
127, 3, bw, attraction, a-b-da, 2, 2, 6, 27, 90, 165, 163, 89, 165, 90, 3, 0.519436
127, 3, bw, attraction, a-b-da, 9, 3, 6, 28, 120, 195, 195, 120, 186, 114, 2, 0.62453
127, 3, bw, attraction, a-b-da, 9, 3, 6, 28, 120, 195, 195, 120, 186, 114, 3, 0.582213
127, 3, bw, filler, NA, 999, 999, 6, 29, 60, 171, 67, 121, 112, 77, 1, 1.43669
127, 3, bw, filler, NA, 999, 999, 6, 29, 60, 171, 67, 121, 112, 77, 3, 0.778247
127, 3, bw, attraction, a-b-db, 9, 1, 6, 30, 60, 135, 57, 129, 135, 60, 1, 0.928554
127, 3, bw, attraction, a-b-db, 9, 1, 6, 30, 60, 135, 57, 129, 135, 60, 2, 0.802274
127, 3, bw, attraction, a-b-db, 5, 2, 6, 31, 165, 90, 90, 165, 88, 161, 2, 1.04
127, 3, bw, attraction, a-b-db, 5, 2, 6, 31, 165, 90, 90, 165, 88, 161, 1, 0.469115
127, 3, bw, attraction, a-b-da, 14, 3, 6, 32, 120, 195, 195, 120, 181, 111, 2, 1.91206
127, 3, bw, attraction, a-b-da, 14, 3, 6, 32, 120, 195, 195, 120, 181, 111, 3, 0.922146
127, 3, bw, attraction, a-b-db, 2, 3, 6, 33, 120, 195, 119, 193, 195, 120, 2, 1.02728
127, 3, bw, attraction, a-b-db, 2, 3, 6, 33, 120, 195, 119, 193, 195, 120, 3, 0.464777
127, 3, bw, catch, NA, 999, 999, 6, 34, 123, 192, 119, 76, 147, 108, 1, 0.87583
127, 3, bw, catch, NA, 999, 999, 6, 34, 123, 192, 119, 76, 147, 108, 2, 0.487545
127, 3, bw, catch, NA, 999, 999, 6, 35, 123, 192, 115, 140, 75, 120, 1, 1.0981
127, 3, bw, catch, NA, 999, 999, 6, 35, 123, 192, 115, 140, 75, 120, 3, 0.50104
127, 3, bw, attraction, a-b-da, 5, 3, 6, 36, 120, 195, 190, 117, 195, 120, 2, 0.998753
127, 3, bw, attraction, a-b-da, 5, 3, 6, 36, 120, 195, 190, 117, 195, 120, 3, 0.477726
127, 3, bw, attraction, a-b-db, 2, 1, 6, 37, 135, 60, 60, 135, 59, 134, 2, 0.928239
127, 3, bw, attraction, a-b-db, 2, 1, 6, 37, 135, 60, 60, 135, 59, 134, 1, 0.44193
127, 3, bw, filler, NA, 999, 999, 7, 1, 94, 133, 187, 85, 73, 96, 2, 0.581718
127, 3, bw, filler, NA, 999, 999, 7, 1, 94, 133, 187, 85, 73, 96, 3, 2.51759
127, 3, bw, filler, NA, 999, 999, 7, 2, 180, 194, 185, 134, 165, 88, 1, 0.805951
127, 3, bw, filler, NA, 999, 999, 7, 2, 180, 194, 185, 134, 165, 88, 3, 1.1007
127, 3, bw, attraction, a-b-db, 5, 3, 7, 3, 195, 120, 120, 195, 117, 190, 1, 1.91807
127, 3, bw, attraction, a-b-db, 5, 3, 7, 3, 195, 120, 120, 195, 117, 190, 2, 0.511986
127, 3, bw, filler, NA, 999, 999, 7, 4, 82, 75, 131, 105, 172, 190, 3, 0.689107
127, 3, bw, filler, NA, 999, 999, 7, 4, 82, 75, 131, 105, 172, 190, 1, 0.628164
127, 3, bw, attraction, a-b-da, 9, 1, 7, 5, 60, 135, 135, 60, 129, 57, 1, 1.15263
127, 3, bw, attraction, a-b-da, 9, 1, 7, 5, 60, 135, 135, 60, 129, 57, 3, 0.51366
127, 3, bw, attraction, a-b-da, 5, 3, 7, 6, 190, 117, 120, 195, 195, 120, 2, 1.01074
127, 3, bw, attraction, a-b-da, 5, 3, 7, 6, 190, 117, 120, 195, 195, 120, 3, 0.601086
127, 3, bw, attraction, a-b-db, 14, 1, 7, 7, 135, 60, 56, 125, 60, 135, 2, 1.16681
127, 3, bw, attraction, a-b-db, 14, 1, 7, 7, 135, 60, 56, 125, 60, 135, 1, 0.407052
127, 3, bw, attraction, a-b-db, 5, 2, 7, 8, 165, 90, 90, 165, 88, 161, 2, 0.668181
127, 3, bw, attraction, a-b-db, 5, 2, 7, 8, 165, 90, 90, 165, 88, 161, 1, 0.440666
127, 3, bw, attraction, a-b-da, 9, 3, 7, 9, 195, 120, 186, 114, 120, 195, 2, 1.02056
127, 3, bw, attraction, a-b-da, 9, 3, 7, 9, 195, 120, 186, 114, 120, 195, 3, 0.346079
127, 3, bw, attraction, a-b-db, 14, 2, 7, 10, 165, 90, 83, 153, 90, 165, 1, 2.19403
127, 3, bw, attraction, a-b-db, 14, 2, 7, 10, 165, 90, 83, 153, 90, 165, 2, 0.544555
127, 3, bw, attraction, a-b-db, 9, 1, 7, 11, 60, 135, 57, 129, 135, 60, 2, 0.928311
127, 3, bw, attraction, a-b-db, 9, 1, 7, 11, 60, 135, 57, 129, 135, 60, 3, 0.92332
127, 3, bw, attraction, a-b-db, 2, 3, 7, 12, 119, 193, 120, 195, 195, 120, 2, 1.05838
127, 3, bw, attraction, a-b-db, 2, 3, 7, 12, 119, 193, 120, 195, 195, 120, 1, 0.518615
127, 3, bw, filler, NA, 999, 999, 7, 13, 91, 172, 156, 132, 147, 67, 2, 0.783684
127, 3, bw, filler, NA, 999, 999, 7, 13, 91, 172, 156, 132, 147, 67, 3, 0.487709
127, 3, bw, attraction, a-b-da, 2, 3, 7, 14, 193, 119, 195, 120, 120, 195, 2, 0.673887
127, 3, bw, attraction, a-b-da, 2, 3, 7, 14, 193, 119, 195, 120, 120, 195, 1, 0.581811
127, 3, bw, attraction, a-b-da, 5, 1, 7, 15, 132, 58, 60, 135, 135, 60, 2, 0.780217
127, 3, bw, attraction, a-b-da, 5, 1, 7, 15, 132, 58, 60, 135, 135, 60, 1, 1.34788
127, 3, bw, attraction, a-b-da, 14, 1, 7, 16, 135, 60, 60, 135, 125, 56, 2, 0.731329
127, 3, bw, attraction, a-b-da, 14, 1, 7, 16, 135, 60, 60, 135, 125, 56, 3, 1.48516
127, 3, bw, attraction, a-b-db, 5, 1, 7, 17, 60, 135, 135, 60, 58, 132, 2, 1.41538
127, 3, bw, attraction, a-b-db, 5, 1, 7, 17, 60, 135, 135, 60, 58, 132, 3, 0.429924
127, 3, bw, catch, NA, 999, 999, 7, 18, 156, 99, 175, 140, 122, 73, 2, 0.56996
127, 3, bw, catch, NA, 999, 999, 7, 18, 156, 99, 175, 140, 122, 73, 3, 0.698445
127, 3, bw, catch, NA, 999, 999, 7, 19, 149, 166, 135, 60, 146, 109, 1, 1.42012
127, 3, bw, catch, NA, 999, 999, 7, 19, 149, 166, 135, 60, 146, 109, 2, 0.506421
127, 3, bw, attraction, a-b-db, 14, 3, 7, 20, 120, 195, 111, 181, 195, 120, 2, 0.732067
127, 3, bw, attraction, a-b-db, 14, 3, 7, 20, 120, 195, 111, 181, 195, 120, 3, 0.557952
127, 3, bw, filler, NA, 999, 999, 7, 21, 163, 191, 67, 58, 108, 117, 1, 0.676875
127, 3, bw, filler, NA, 999, 999, 7, 21, 163, 191, 67, 58, 108, 117, 2, 0.440652
127, 3, bw, attraction, a-b-db, 2, 2, 7, 22, 165, 90, 89, 163, 90, 165, 2, 1.01249
127, 3, bw, attraction, a-b-db, 2, 2, 7, 22, 165, 90, 89, 163, 90, 165, 3, 0.986875
127, 3, bw, attraction, a-b-da, 2, 1, 7, 23, 135, 60, 134, 59, 60, 135, 2, 0.961232
127, 3, bw, attraction, a-b-da, 2, 1, 7, 23, 135, 60, 134, 59, 60, 135, 3, 0.633493
127, 3, bw, catch, NA, 999, 999, 7, 24, 155, 100, 82, 113, 163, 152, 3, 0.637896
127, 3, bw, catch, NA, 999, 999, 7, 24, 155, 100, 82, 113, 163, 152, 2, 0.459684
127, 3, bw, attraction, a-b-db, 9, 3, 7, 25, 120, 195, 195, 120, 114, 186, 2, 0.76682
127, 3, bw, attraction, a-b-db, 9, 3, 7, 25, 120, 195, 195, 120, 114, 186, 3, 0.471244
127, 3, bw, attraction, a-b-da, 14, 2, 7, 26, 165, 90, 153, 83, 90, 165, 2, 0.922306
127, 3, bw, attraction, a-b-da, 14, 2, 7, 26, 165, 90, 153, 83, 90, 165, 3, 0.524024
127, 3, bw, attraction, a-b-db, 2, 1, 7, 27, 135, 60, 59, 134, 60, 135, 2, 1.30043
127, 3, bw, attraction, a-b-db, 2, 1, 7, 27, 135, 60, 59, 134, 60, 135, 1, 0.439351
127, 3, bw, attraction, a-b-da, 14, 3, 7, 28, 195, 120, 120, 195, 181, 111, 2, 0.691809
127, 3, bw, attraction, a-b-da, 14, 3, 7, 28, 195, 120, 120, 195, 181, 111, 3, 1.05502
127, 3, bw, filler, NA, 999, 999, 7, 29, 189, 157, 194, 70, 57, 171, 1, 0.914629
127, 3, bw, filler, NA, 999, 999, 7, 29, 189, 157, 194, 70, 57, 171, 3, 0.716865
127, 3, bw, filler, NA, 999, 999, 7, 30, 81, 126, 73, 90, 72, 141, 1, 1.96611
127, 3, bw, filler, NA, 999, 999, 7, 30, 81, 126, 73, 90, 72, 141, 2, 0.461977
127, 3, bw, attraction, a-b-da, 2, 2, 7, 31, 165, 90, 163, 89, 90, 165, 2, 1.24901
127, 3, bw, attraction, a-b-da, 2, 2, 7, 31, 165, 90, 163, 89, 90, 165, 1, 0.398031
127, 3, bw, attraction, a-b-da, 5, 2, 7, 32, 161, 88, 165, 90, 90, 165, 2, 1.11585
127, 3, bw, attraction, a-b-da, 5, 2, 7, 32, 161, 88, 165, 90, 90, 165, 1, 0.974142
127, 3, bw, attraction, a-b-da, 9, 2, 7, 33, 165, 90, 90, 165, 157, 86, 2, 0.700353
127, 3, bw, attraction, a-b-da, 9, 2, 7, 33, 165, 90, 90, 165, 157, 86, 1, 0.767561
127, 3, bw, filler, NA, 999, 999, 7, 34, 152, 156, 158, 169, 108, 117, 2, 0.846578
127, 3, bw, filler, NA, 999, 999, 7, 34, 152, 156, 158, 169, 108, 117, 3, 0.899601
127, 3, bw, filler, NA, 999, 999, 7, 35, 190, 148, 103, 76, 145, 147, 1, 0.693311
127, 3, bw, filler, NA, 999, 999, 7, 35, 190, 148, 103, 76, 145, 147, 2, 0.608622
127, 3, bw, attraction, a-b-db, 9, 2, 7, 36, 86, 157, 90, 165, 165, 90, 2, 1.06145
127, 3, bw, attraction, a-b-db, 9, 2, 7, 36, 86, 157, 90, 165, 165, 90, 3, 0.393681
127, 3, bw, filler, NA, 999, 999, 7, 37, 191, 87, 150, 148, 141, 178, 3, 1.44764
127, 3, bw, filler, NA, 999, 999, 7, 37, 191, 87, 150, 148, 141, 178, 1, 1.0844
127, 3, bw, attraction, a-b-da, 14, 3, 8, 1, 181, 111, 195, 120, 120, 195, 3, 0.966609
127, 3, bw, attraction, a-b-da, 14, 3, 8, 1, 181, 111, 195, 120, 120, 195, 1, 0.687019
127, 3, bw, catch, NA, 999, 999, 8, 2, 148, 167, 157, 98, 99, 96, 1, 0.905348
127, 3, bw, catch, NA, 999, 999, 8, 2, 148, 167, 157, 98, 99, 96, 3, 0.755798
127, 3, bw, filler, NA, 999, 999, 8, 3, 190, 186, 191, 98, 166, 99, 1, 0.683544
127, 3, bw, filler, NA, 999, 999, 8, 3, 190, 186, 191, 98, 166, 99, 3, 0.479244
127, 3, bw, filler, NA, 999, 999, 8, 4, 78, 184, 67, 60, 130, 135, 3, 2.21762
127, 3, bw, filler, NA, 999, 999, 8, 4, 78, 184, 67, 60, 130, 135, 2, 0.607685
127, 3, bw, attraction, a-b-da, 14, 1, 8, 5, 60, 135, 125, 56, 135, 60, 1, 2.10879
127, 3, bw, attraction, a-b-da, 14, 1, 8, 5, 60, 135, 125, 56, 135, 60, 2, 0.494673
127, 3, bw, attraction, a-b-da, 2, 3, 8, 6, 193, 119, 120, 195, 195, 120, 2, 1.32841
127, 3, bw, attraction, a-b-da, 2, 3, 8, 6, 193, 119, 120, 195, 195, 120, 1, 0.473975
127, 3, bw, attraction, a-b-da, 9, 2, 8, 7, 157, 86, 165, 90, 90, 165, 2, 3.50848
127, 3, bw, attraction, a-b-da, 9, 2, 8, 7, 157, 86, 165, 90, 90, 165, 1, 0.430054
127, 3, bw, filler, NA, 999, 999, 8, 8, 94, 147, 138, 149, 132, 70, 2, 0.602622
127, 3, bw, filler, NA, 999, 999, 8, 8, 94, 147, 138, 149, 132, 70, 3, 0.905662
127, 3, bw, catch, NA, 999, 999, 8, 9, 172, 143, 111, 84, 105, 150, 1, 0.675286
127, 3, bw, catch, NA, 999, 999, 8, 9, 172, 143, 111, 84, 105, 150, 2, 0.463068
127, 3, bw, catch, NA, 999, 999, 8, 10, 123, 132, 180, 135, 125, 70, 2, 0.546186
127, 3, bw, catch, NA, 999, 999, 8, 10, 123, 132, 180, 135, 125, 70, 3, 0.499483
127, 3, bw, attraction, a-b-da, 5, 1, 8, 11, 135, 60, 132, 58, 60, 135, 2, 0.765136
127, 3, bw, attraction, a-b-da, 5, 1, 8, 11, 135, 60, 132, 58, 60, 135, 1, 0.693675
127, 3, bw, attraction, a-b-db, 5, 1, 8, 12, 60, 135, 135, 60, 58, 132, 2, 0.527223
127, 3, bw, attraction, a-b-db, 5, 1, 8, 12, 60, 135, 135, 60, 58, 132, 3, 0.721076
127, 3, bw, attraction, a-b-db, 5, 2, 8, 13, 165, 90, 90, 165, 88, 161, 2, 0.818105
127, 3, bw, attraction, a-b-db, 5, 2, 8, 13, 165, 90, 90, 165, 88, 161, 3, 0.464524
127, 3, bw, attraction, a-b-db, 2, 1, 8, 14, 135, 60, 59, 134, 60, 135, 2, 0.78764
127, 3, bw, attraction, a-b-db, 2, 1, 8, 14, 135, 60, 59, 134, 60, 135, 3, 1.12333
127, 3, bw, filler, NA, 999, 999, 8, 15, 75, 83, 72, 72, 177, 137, 3, 1.14819
127, 3, bw, filler, NA, 999, 999, 8, 15, 75, 83, 72, 72, 177, 137, 2, 0.469188
127, 3, bw, attraction, a-b-da, 9, 1, 8, 16, 135, 60, 60, 135, 129, 57, 2, 1.20044
127, 3, bw, attraction, a-b-da, 9, 1, 8, 16, 135, 60, 60, 135, 129, 57, 3, 1.19928
127, 3, bw, attraction, a-b-db, 9, 1, 8, 17, 60, 135, 57, 129, 135, 60, 2, 0.860825
127, 3, bw, attraction, a-b-db, 9, 1, 8, 17, 60, 135, 57, 129, 135, 60, 3, 0.497205
127, 3, bw, filler, NA, 999, 999, 8, 18, 89, 104, 153, 135, 115, 195, 2, 1.85096
127, 3, bw, filler, NA, 999, 999, 8, 18, 89, 104, 153, 135, 115, 195, 1, 0.639681
127, 3, bw, attraction, a-b-da, 2, 2, 8, 19, 163, 89, 90, 165, 165, 90, 2, 0.780198
127, 3, bw, attraction, a-b-da, 2, 2, 8, 19, 163, 89, 90, 165, 165, 90, 3, 0.579859
127, 3, bw, attraction, a-b-da, 2, 1, 8, 20, 134, 59, 135, 60, 60, 135, 2, 0.810319
127, 3, bw, attraction, a-b-da, 2, 1, 8, 20, 134, 59, 135, 60, 60, 135, 1, 0.720635
127, 3, bw, attraction, a-b-db, 2, 2, 8, 21, 90, 165, 165, 90, 89, 163, 2, 0.529873
127, 3, bw, attraction, a-b-db, 2, 2, 8, 21, 90, 165, 165, 90, 89, 163, 1, 0.707553
127, 3, bw, attraction, a-b-db, 14, 3, 8, 22, 120, 195, 195, 120, 111, 181, 2, 1.34075
127, 3, bw, attraction, a-b-db, 14, 3, 8, 22, 120, 195, 195, 120, 111, 181, 3, 0.781459
127, 3, bw, filler, NA, 999, 999, 8, 23, 131, 166, 71, 69, 175, 134, 3, 0.875887
127, 3, bw, filler, NA, 999, 999, 8, 23, 131, 166, 71, 69, 175, 134, 2, 0.687553
127, 3, bw, attraction, a-b-db, 9, 2, 8, 24, 165, 90, 86, 157, 90, 165, 2, 0.801947
127, 3, bw, attraction, a-b-db, 9, 2, 8, 24, 165, 90, 86, 157, 90, 165, 1, 0.689162
127, 3, bw, attraction, a-b-db, 14, 1, 8, 25, 56, 125, 135, 60, 60, 135, 2, 1.69944
127, 3, bw, attraction, a-b-db, 14, 1, 8, 25, 56, 125, 135, 60, 60, 135, 3, 0.654295
127, 3, bw, attraction, a-b-da, 9, 3, 8, 26, 195, 120, 120, 195, 186, 114, 2, 0.569841
127, 3, bw, attraction, a-b-da, 9, 3, 8, 26, 195, 120, 120, 195, 186, 114, 1, 0.466517
127, 3, bw, filler, NA, 999, 999, 8, 27, 169, 123, 161, 156, 180, 74, 2, 1.11748
127, 3, bw, filler, NA, 999, 999, 8, 27, 169, 123, 161, 156, 180, 74, 3, 0.759817
127, 3, bw, attraction, a-b-db, 2, 3, 8, 28, 120, 195, 119, 193, 195, 120, 2, 0.630815
127, 3, bw, attraction, a-b-db, 2, 3, 8, 28, 120, 195, 119, 193, 195, 120, 3, 0.428703
127, 3, bw, attraction, a-b-da, 5, 2, 8, 29, 161, 88, 165, 90, 90, 165, 2, 0.905193
127, 3, bw, attraction, a-b-da, 5, 2, 8, 29, 161, 88, 165, 90, 90, 165, 3, 0.467514
127, 3, bw, attraction, a-b-da, 5, 3, 8, 30, 190, 117, 195, 120, 120, 195, 2, 0.854528
127, 3, bw, attraction, a-b-da, 5, 3, 8, 30, 190, 117, 195, 120, 120, 195, 1, 0.866851
127, 3, bw, filler, NA, 999, 999, 8, 31, 89, 190, 179, 136, 123, 75, 2, 0.725933
127, 3, bw, filler, NA, 999, 999, 8, 31, 89, 190, 179, 136, 123, 75, 3, 0.70367
127, 3, bw, filler, NA, 999, 999, 8, 32, 107, 145, 118, 181, 158, 166, 3, 1.36939
127, 3, bw, filler, NA, 999, 999, 8, 32, 107, 145, 118, 181, 158, 166, 1, 0.625584
127, 3, bw, filler, NA, 999, 999, 8, 33, 148, 133, 70, 61, 139, 121, 1, 0.98199
127, 3, bw, filler, NA, 999, 999, 8, 33, 148, 133, 70, 61, 139, 121, 2, 0.677752
127, 3, bw, attraction, a-b-db, 9, 3, 8, 34, 120, 195, 195, 120, 114, 186, 2, 0.671994
127, 3, bw, attraction, a-b-db, 9, 3, 8, 34, 120, 195, 195, 120, 114, 186, 3, 0.555844
127, 3, bw, attraction, a-b-db, 14, 2, 8, 35, 83, 153, 90, 165, 165, 90, 2, 1.25157
127, 3, bw, attraction, a-b-db, 14, 2, 8, 35, 83, 153, 90, 165, 165, 90, 1, 0.792539
127, 3, bw, attraction, a-b-db, 5, 3, 8, 36, 120, 195, 195, 120, 117, 190, 1, 3.15024
127, 3, bw, attraction, a-b-db, 5, 3, 8, 36, 120, 195, 195, 120, 117, 190, 2, 0.70257
127, 3, bw, attraction, a-b-da, 14, 2, 8, 37, 90, 165, 165, 90, 153, 83, 2, 0.960255
127, 3, bw, attraction, a-b-da, 14, 2, 8, 37, 90, 165, 165, 90, 153, 83, 3, 0.40867
