sub_n, computer_n, bw_cond, effect, set, distance, diag, block_n, trial_n, h1, w1, h2, w2, h3, w3, choice, rt 
137, 3, bw, practice, NA, 999, 999, 0, 1, 165, 111, 160, 88, 153, 126, 1, 3.02222
137, 3, bw, practice, NA, 999, 999, 0, 1, 165, 111, 160, 88, 153, 126, 2, 3.13295
137, 3, bw, practice, NA, 999, 999, 0, 2, 166, 112, 85, 96, 75, 143, 1, 2.62527
137, 3, bw, practice, NA, 999, 999, 0, 2, 166, 112, 85, 96, 75, 143, 2, 1.80648
137, 3, bw, practice, NA, 999, 999, 0, 3, 179, 87, 66, 155, 57, 120, 1, 2.95436
137, 3, bw, practice, NA, 999, 999, 0, 3, 179, 87, 66, 155, 57, 120, 3, 1.67157
137, 3, bw, filler, NA, 999, 999, 1, 1, 188, 87, 102, 137, 132, 175, 3, 1.60099
137, 3, bw, filler, NA, 999, 999, 1, 1, 188, 87, 102, 137, 132, 175, 2, 3.08769
137, 3, bw, catch, NA, 999, 999, 1, 2, 163, 152, 132, 63, 115, 140, 1, 2.05741
137, 3, bw, catch, NA, 999, 999, 1, 2, 163, 152, 132, 63, 115, 140, 2, 1.57353
137, 3, bw, attraction, a-b-da, 5, 1, 1, 3, 60, 135, 132, 58, 135, 60, 1, 2.39555
137, 3, bw, attraction, a-b-da, 5, 1, 1, 3, 60, 135, 132, 58, 135, 60, 2, 28.6581
137, 3, bw, attraction, a-b-da, 14, 1, 1, 4, 135, 60, 125, 56, 60, 135, 3, 6.95701
137, 3, bw, attraction, a-b-da, 14, 1, 1, 4, 135, 60, 125, 56, 60, 135, 2, 1.19554
137, 3, bw, filler, NA, 999, 999, 1, 5, 66, 91, 111, 69, 61, 152, 3, 4.08114
137, 3, bw, filler, NA, 999, 999, 1, 5, 66, 91, 111, 69, 61, 152, 1, 0.763813
137, 3, bw, filler, NA, 999, 999, 1, 6, 101, 120, 182, 157, 77, 83, 2, 2.6588
137, 3, bw, filler, NA, 999, 999, 1, 6, 101, 120, 182, 157, 77, 83, 3, 1.2146
137, 3, bw, filler, NA, 999, 999, 1, 7, 130, 191, 155, 172, 151, 77, 2, 25.9954
137, 3, bw, filler, NA, 999, 999, 1, 7, 130, 191, 155, 172, 151, 77, 3, 0.915344
137, 3, bw, filler, NA, 999, 999, 1, 8, 99, 125, 179, 126, 123, 73, 2, 1.8845
137, 3, bw, filler, NA, 999, 999, 1, 8, 99, 125, 179, 126, 123, 73, 1, 1.70382
137, 3, bw, attraction, a-b-db, 14, 3, 1, 9, 120, 195, 195, 120, 111, 181, 1, 4.91318
137, 3, bw, attraction, a-b-db, 14, 3, 1, 9, 120, 195, 195, 120, 111, 181, 2, 2.60238
137, 3, bw, attraction, a-b-db, 9, 2, 1, 10, 86, 157, 165, 90, 90, 165, 3, 14.0557
137, 3, bw, attraction, a-b-db, 9, 2, 1, 10, 86, 157, 165, 90, 90, 165, 1, 2.51225
137, 3, bw, attraction, a-b-da, 14, 2, 1, 11, 165, 90, 90, 165, 153, 83, 2, 3.36877
137, 3, bw, attraction, a-b-da, 14, 2, 1, 11, 165, 90, 90, 165, 153, 83, 3, 0.816463
137, 3, bw, attraction, a-b-db, 2, 2, 1, 12, 90, 165, 165, 90, 89, 163, 3, 9.14943
137, 3, bw, attraction, a-b-db, 2, 2, 1, 12, 90, 165, 165, 90, 89, 163, 2, 1.56381
137, 3, bw, attraction, a-b-db, 9, 3, 1, 13, 114, 186, 120, 195, 195, 120, 2, 5.02681
137, 3, bw, attraction, a-b-db, 9, 3, 1, 13, 114, 186, 120, 195, 195, 120, 1, 0.791037
137, 3, bw, filler, NA, 999, 999, 1, 14, 179, 78, 195, 175, 63, 115, 2, 2.38873
137, 3, bw, filler, NA, 999, 999, 1, 14, 179, 78, 195, 175, 63, 115, 3, 0.739316
137, 3, bw, attraction, a-b-da, 5, 3, 1, 15, 120, 195, 190, 117, 195, 120, 1, 96.8517
137, 3, bw, attraction, a-b-da, 5, 3, 1, 15, 120, 195, 190, 117, 195, 120, 2, 3.51544
137, 3, bw, attraction, a-b-db, 14, 1, 1, 16, 60, 135, 135, 60, 56, 125, 1, 5.29147
137, 3, bw, attraction, a-b-db, 14, 1, 1, 16, 60, 135, 135, 60, 56, 125, 3, 5.49329
137, 3, bw, attraction, a-b-da, 2, 1, 1, 17, 135, 60, 134, 59, 60, 135, 3, 2.57349
137, 3, bw, attraction, a-b-da, 2, 1, 1, 17, 135, 60, 134, 59, 60, 135, 2, 2.9888
137, 3, bw, attraction, a-b-db, 9, 1, 1, 18, 60, 135, 135, 60, 57, 129, 1, 2.57843
137, 3, bw, attraction, a-b-db, 9, 1, 1, 18, 60, 135, 135, 60, 57, 129, 3, 0.753432
137, 3, bw, attraction, a-b-da, 5, 2, 1, 19, 165, 90, 161, 88, 90, 165, 3, 13.6012
137, 3, bw, attraction, a-b-da, 5, 2, 1, 19, 165, 90, 161, 88, 90, 165, 2, 1.10025
137, 3, bw, attraction, a-b-da, 9, 1, 1, 20, 60, 135, 129, 57, 135, 60, 1, 25.5017
137, 3, bw, attraction, a-b-da, 9, 1, 1, 20, 60, 135, 129, 57, 135, 60, 2, 1.01717
137, 3, bw, attraction, a-b-db, 5, 3, 1, 21, 195, 120, 117, 190, 120, 195, 3, 7.15011
137, 3, bw, attraction, a-b-db, 5, 3, 1, 21, 195, 120, 117, 190, 120, 195, 1, 2.05327
137, 3, bw, filler, NA, 999, 999, 1, 22, 73, 106, 89, 187, 185, 88, 2, 3.53644
137, 3, bw, filler, NA, 999, 999, 1, 22, 73, 106, 89, 187, 185, 88, 1, 0.985429
137, 3, bw, attraction, a-b-da, 2, 3, 1, 23, 195, 120, 120, 195, 193, 119, 2, 16.2078
137, 3, bw, attraction, a-b-da, 2, 3, 1, 23, 195, 120, 120, 195, 193, 119, 1, 3.57799
137, 3, bw, attraction, a-b-da, 14, 3, 1, 24, 195, 120, 120, 195, 181, 111, 2, 4.58336
137, 3, bw, attraction, a-b-da, 14, 3, 1, 24, 195, 120, 120, 195, 181, 111, 3, 1.51006
137, 3, bw, attraction, a-b-db, 2, 1, 1, 25, 60, 135, 135, 60, 59, 134, 3, 10.1027
137, 3, bw, attraction, a-b-db, 2, 1, 1, 25, 60, 135, 135, 60, 59, 134, 2, 0.854963
137, 3, bw, attraction, a-b-db, 14, 2, 1, 26, 83, 153, 165, 90, 90, 165, 3, 2.65052
137, 3, bw, attraction, a-b-db, 14, 2, 1, 26, 83, 153, 165, 90, 90, 165, 1, 1.09501
137, 3, bw, filler, NA, 999, 999, 1, 27, 155, 100, 83, 190, 97, 165, 2, 7.40873
137, 3, bw, filler, NA, 999, 999, 1, 27, 155, 100, 83, 190, 97, 165, 1, 0.788967
137, 3, bw, attraction, a-b-da, 9, 3, 1, 28, 120, 195, 186, 114, 195, 120, 1, 8.03531
137, 3, bw, attraction, a-b-da, 9, 3, 1, 28, 120, 195, 186, 114, 195, 120, 2, 1.98271
137, 3, bw, catch, NA, 999, 999, 1, 29, 129, 186, 162, 93, 96, 99, 1, 1.89278
137, 3, bw, catch, NA, 999, 999, 1, 29, 129, 186, 162, 93, 96, 99, 3, 0.991633
137, 3, bw, attraction, a-b-db, 5, 1, 1, 30, 60, 135, 58, 132, 135, 60, 1, 6.44518
137, 3, bw, attraction, a-b-db, 5, 1, 1, 30, 60, 135, 58, 132, 135, 60, 3, 1.04837
137, 3, bw, attraction, a-b-da, 2, 2, 1, 31, 90, 165, 165, 90, 163, 89, 1, 8.22806
137, 3, bw, attraction, a-b-da, 2, 2, 1, 31, 90, 165, 165, 90, 163, 89, 3, 0.775446
137, 3, bw, attraction, a-b-db, 2, 3, 1, 32, 120, 195, 195, 120, 119, 193, 3, 4.22175
137, 3, bw, attraction, a-b-db, 2, 3, 1, 32, 120, 195, 195, 120, 119, 193, 1, 0.699069
137, 3, bw, catch, NA, 999, 999, 1, 33, 134, 181, 158, 97, 132, 63, 1, 1.55686
137, 3, bw, catch, NA, 999, 999, 1, 33, 134, 181, 158, 97, 132, 63, 3, 0.852988
137, 3, bw, filler, NA, 999, 999, 1, 34, 128, 157, 86, 96, 75, 168, 1, 1.4167
137, 3, bw, filler, NA, 999, 999, 1, 34, 128, 157, 86, 96, 75, 168, 2, 0.886846
137, 3, bw, attraction, a-b-db, 5, 2, 1, 35, 90, 165, 165, 90, 88, 161, 3, 2.33719
137, 3, bw, attraction, a-b-db, 5, 2, 1, 35, 90, 165, 165, 90, 88, 161, 2, 0.594457
137, 3, bw, filler, NA, 999, 999, 1, 36, 176, 80, 155, 135, 195, 146, 3, 1.99218
137, 3, bw, filler, NA, 999, 999, 1, 36, 176, 80, 155, 135, 195, 146, 1, 0.718887
137, 3, bw, attraction, a-b-da, 9, 2, 1, 37, 157, 86, 165, 90, 90, 165, 3, 11.304
137, 3, bw, attraction, a-b-da, 9, 2, 1, 37, 157, 86, 165, 90, 90, 165, 1, 0.751687
137, 3, bw, catch, NA, 999, 999, 2, 1, 79, 116, 137, 178, 114, 141, 2, 1.69534
137, 3, bw, catch, NA, 999, 999, 2, 1, 79, 116, 137, 178, 114, 141, 1, 0.618194
137, 3, bw, filler, NA, 999, 999, 2, 2, 123, 142, 151, 172, 168, 57, 2, 1.41531
137, 3, bw, filler, NA, 999, 999, 2, 2, 123, 142, 151, 172, 168, 57, 3, 0.525511
137, 3, bw, attraction, a-b-da, 2, 2, 2, 3, 163, 89, 165, 90, 90, 165, 1, 8.59808
137, 3, bw, attraction, a-b-da, 2, 2, 2, 3, 163, 89, 165, 90, 90, 165, 2, 8.63454
137, 3, bw, filler, NA, 999, 999, 2, 4, 135, 68, 88, 88, 183, 168, 3, 1.50048
137, 3, bw, filler, NA, 999, 999, 2, 4, 135, 68, 88, 88, 183, 168, 2, 0.67926
137, 3, bw, attraction, a-b-da, 2, 3, 2, 5, 195, 120, 193, 119, 120, 195, 3, 38.3938
137, 3, bw, attraction, a-b-da, 2, 3, 2, 5, 195, 120, 193, 119, 120, 195, 1, 1.02157
137, 3, bw, filler, NA, 999, 999, 2, 6, 114, 127, 155, 100, 95, 60, 2, 1.36251
137, 3, bw, filler, NA, 999, 999, 2, 6, 114, 127, 155, 100, 95, 60, 3, 0.698853
137, 3, bw, attraction, a-b-da, 2, 1, 2, 7, 60, 135, 134, 59, 135, 60, 1, 2.99661
137, 3, bw, attraction, a-b-da, 2, 1, 2, 7, 60, 135, 134, 59, 135, 60, 2, 0.514912
137, 3, bw, attraction, a-b-db, 14, 3, 2, 8, 111, 181, 120, 195, 195, 120, 2, 2.81201
137, 3, bw, attraction, a-b-db, 14, 3, 2, 8, 111, 181, 120, 195, 195, 120, 3, 0.465872
137, 3, bw, attraction, a-b-db, 5, 1, 2, 9, 60, 135, 135, 60, 58, 132, 1, 2.29296
137, 3, bw, attraction, a-b-db, 5, 1, 2, 9, 60, 135, 135, 60, 58, 132, 2, 1.46345
137, 3, bw, attraction, a-b-da, 14, 2, 2, 10, 165, 90, 90, 165, 153, 83, 2, 3.39437
137, 3, bw, attraction, a-b-da, 14, 2, 2, 10, 165, 90, 90, 165, 153, 83, 3, 2.28061
137, 3, bw, attraction, a-b-db, 2, 3, 2, 11, 119, 193, 120, 195, 195, 120, 2, 3.57847
137, 3, bw, attraction, a-b-db, 2, 3, 2, 11, 119, 193, 120, 195, 195, 120, 3, 0.817253
137, 3, bw, attraction, a-b-db, 14, 1, 2, 12, 56, 125, 135, 60, 60, 135, 1, 3.07032
137, 3, bw, attraction, a-b-db, 14, 1, 2, 12, 56, 125, 135, 60, 60, 135, 2, 0.482171
137, 3, bw, attraction, a-b-db, 2, 1, 2, 13, 59, 134, 60, 135, 135, 60, 2, 2.9964
137, 3, bw, attraction, a-b-db, 2, 1, 2, 13, 59, 134, 60, 135, 135, 60, 3, 0.498915
137, 3, bw, filler, NA, 999, 999, 2, 14, 57, 163, 68, 176, 78, 115, 2, 2.82065
137, 3, bw, filler, NA, 999, 999, 2, 14, 57, 163, 68, 176, 78, 115, 1, 0.834379
137, 3, bw, attraction, a-b-db, 9, 1, 2, 15, 60, 135, 135, 60, 57, 129, 3, 5.23083
137, 3, bw, attraction, a-b-db, 9, 1, 2, 15, 60, 135, 135, 60, 57, 129, 2, 0.907077
137, 3, bw, attraction, a-b-da, 14, 3, 2, 16, 120, 195, 195, 120, 181, 111, 1, 14.0602
137, 3, bw, attraction, a-b-da, 14, 3, 2, 16, 120, 195, 195, 120, 181, 111, 3, 0.612244
137, 3, bw, catch, NA, 999, 999, 2, 17, 133, 62, 141, 114, 175, 140, 3, 1.60138
137, 3, bw, catch, NA, 999, 999, 2, 17, 133, 62, 141, 114, 175, 140, 1, 0.760267
137, 3, bw, attraction, a-b-da, 5, 2, 2, 18, 90, 165, 161, 88, 165, 90, 1, 5.57521
137, 3, bw, attraction, a-b-da, 5, 2, 2, 18, 90, 165, 161, 88, 165, 90, 3, 0.757468
137, 3, bw, filler, NA, 999, 999, 2, 19, 64, 114, 92, 154, 113, 83, 2, 1.29256
137, 3, bw, filler, NA, 999, 999, 2, 19, 64, 114, 92, 154, 113, 83, 1, 1.14345
137, 3, bw, filler, NA, 999, 999, 2, 20, 81, 81, 88, 151, 176, 91, 3, 2.15908
137, 3, bw, filler, NA, 999, 999, 2, 20, 81, 81, 88, 151, 176, 91, 1, 0.655095
137, 3, bw, attraction, a-b-db, 5, 2, 2, 21, 88, 161, 165, 90, 90, 165, 2, 4.86678
137, 3, bw, attraction, a-b-db, 5, 2, 2, 21, 88, 161, 165, 90, 90, 165, 3, 0.49377
137, 3, bw, attraction, a-b-da, 9, 2, 2, 22, 165, 90, 90, 165, 157, 86, 2, 90.8236
137, 3, bw, attraction, a-b-da, 9, 2, 2, 22, 165, 90, 90, 165, 157, 86, 3, 0.762579
137, 3, bw, attraction, a-b-db, 5, 3, 2, 23, 195, 120, 117, 190, 120, 195, 2, 7.29756
137, 3, bw, attraction, a-b-db, 5, 3, 2, 23, 195, 120, 117, 190, 120, 195, 1, 0.482584
137, 3, bw, attraction, a-b-da, 9, 3, 2, 24, 195, 120, 120, 195, 186, 114, 2, 1.89301
137, 3, bw, attraction, a-b-da, 9, 3, 2, 24, 195, 120, 120, 195, 186, 114, 3, 0.463721
137, 3, bw, attraction, a-b-db, 14, 2, 2, 25, 165, 90, 83, 153, 90, 165, 1, 2.50689
137, 3, bw, attraction, a-b-db, 14, 2, 2, 25, 165, 90, 83, 153, 90, 165, 2, 0.388817
137, 3, bw, attraction, a-b-da, 5, 1, 2, 26, 60, 135, 132, 58, 135, 60, 1, 1.82719
137, 3, bw, attraction, a-b-da, 5, 1, 2, 26, 60, 135, 132, 58, 135, 60, 2, 6.66464
137, 3, bw, attraction, a-b-da, 14, 1, 2, 27, 60, 135, 125, 56, 135, 60, 1, 2.01775
137, 3, bw, attraction, a-b-da, 14, 1, 2, 27, 60, 135, 125, 56, 135, 60, 2, 0.40782
137, 3, bw, filler, NA, 999, 999, 2, 28, 146, 87, 107, 75, 104, 121, 1, 2.49296
137, 3, bw, filler, NA, 999, 999, 2, 28, 146, 87, 107, 75, 104, 121, 2, 0.431508
137, 3, bw, attraction, a-b-db, 2, 2, 2, 29, 165, 90, 89, 163, 90, 165, 2, 2.25194
137, 3, bw, attraction, a-b-db, 2, 2, 2, 29, 165, 90, 89, 163, 90, 165, 1, 0.520554
137, 3, bw, catch, NA, 999, 999, 2, 30, 100, 95, 143, 172, 106, 149, 2, 1.05769
137, 3, bw, catch, NA, 999, 999, 2, 30, 100, 95, 143, 172, 106, 149, 1, 0.606178
137, 3, bw, attraction, a-b-db, 9, 2, 2, 31, 86, 157, 165, 90, 90, 165, 3, 2.41196
137, 3, bw, attraction, a-b-db, 9, 2, 2, 31, 86, 157, 165, 90, 90, 165, 1, 0.72164
137, 3, bw, attraction, a-b-da, 9, 1, 2, 32, 60, 135, 135, 60, 129, 57, 1, 2.09064
137, 3, bw, attraction, a-b-da, 9, 1, 2, 32, 60, 135, 135, 60, 129, 57, 3, 0.709373
137, 3, bw, attraction, a-b-da, 5, 3, 2, 33, 120, 195, 190, 117, 195, 120, 2, 2.63855
137, 3, bw, attraction, a-b-da, 5, 3, 2, 33, 120, 195, 190, 117, 195, 120, 1, 1.46763
137, 3, bw, attraction, a-b-db, 9, 3, 2, 34, 114, 186, 195, 120, 120, 195, 3, 2.12638
137, 3, bw, attraction, a-b-db, 9, 3, 2, 34, 114, 186, 195, 120, 120, 195, 1, 0.407841
137, 3, bw, filler, NA, 999, 999, 2, 35, 184, 170, 142, 70, 152, 154, 1, 1.0688
137, 3, bw, filler, NA, 999, 999, 2, 35, 184, 170, 142, 70, 152, 154, 2, 0.497041
137, 3, bw, filler, NA, 999, 999, 2, 36, 141, 140, 128, 69, 115, 72, 1, 0.994899
137, 3, bw, filler, NA, 999, 999, 2, 36, 141, 140, 128, 69, 115, 72, 3, 0.43392
137, 3, bw, filler, NA, 999, 999, 2, 37, 190, 100, 57, 78, 98, 91, 1, 0.9584
137, 3, bw, filler, NA, 999, 999, 2, 37, 190, 100, 57, 78, 98, 91, 3, 0.478714
137, 3, bw, attraction, a-b-db, 14, 2, 3, 1, 90, 165, 165, 90, 83, 153, 1, 2.52131
137, 3, bw, attraction, a-b-db, 14, 2, 3, 1, 90, 165, 165, 90, 83, 153, 3, 0.466422
137, 3, bw, attraction, a-b-da, 14, 2, 3, 2, 165, 90, 153, 83, 90, 165, 1, 2.28556
137, 3, bw, attraction, a-b-da, 14, 2, 3, 2, 165, 90, 153, 83, 90, 165, 2, 0.608735
137, 3, bw, attraction, a-b-db, 5, 2, 3, 3, 88, 161, 90, 165, 165, 90, 2, 1.8698
137, 3, bw, attraction, a-b-db, 5, 2, 3, 3, 88, 161, 90, 165, 165, 90, 1, 0.713869
137, 3, bw, filler, NA, 999, 999, 3, 4, 99, 78, 95, 187, 161, 110, 2, 1.31505
137, 3, bw, filler, NA, 999, 999, 3, 4, 99, 78, 95, 187, 161, 110, 1, 0.485261
137, 3, bw, catch, NA, 999, 999, 3, 5, 162, 153, 86, 109, 121, 134, 1, 1.06356
137, 3, bw, catch, NA, 999, 999, 3, 5, 162, 153, 86, 109, 121, 134, 2, 0.451919
137, 3, bw, filler, NA, 999, 999, 3, 6, 136, 145, 184, 122, 73, 166, 2, 1.66383
137, 3, bw, filler, NA, 999, 999, 3, 6, 136, 145, 184, 122, 73, 166, 3, 0.523905
137, 3, bw, attraction, a-b-da, 5, 2, 3, 7, 161, 88, 165, 90, 90, 165, 3, 4.66835
137, 3, bw, attraction, a-b-da, 5, 2, 3, 7, 161, 88, 165, 90, 90, 165, 1, 1.05551
137, 3, bw, attraction, a-b-db, 14, 1, 3, 8, 56, 125, 60, 135, 135, 60, 2, 1.85912
137, 3, bw, attraction, a-b-db, 14, 1, 3, 8, 56, 125, 60, 135, 135, 60, 1, 0.711146
137, 3, bw, filler, NA, 999, 999, 3, 9, 105, 178, 134, 147, 153, 173, 3, 2.54428
137, 3, bw, filler, NA, 999, 999, 3, 9, 105, 178, 134, 147, 153, 173, 1, 0.960873
137, 3, bw, filler, NA, 999, 999, 3, 10, 184, 194, 141, 121, 115, 180, 1, 1.41576
137, 3, bw, filler, NA, 999, 999, 3, 10, 184, 194, 141, 121, 115, 180, 2, 0.549941
137, 3, bw, attraction, a-b-da, 2, 1, 3, 11, 134, 59, 60, 135, 135, 60, 3, 3.67781
137, 3, bw, attraction, a-b-da, 2, 1, 3, 11, 134, 59, 60, 135, 135, 60, 2, 0.776959
137, 3, bw, filler, NA, 999, 999, 3, 12, 80, 65, 167, 102, 88, 73, 2, 1.28687
137, 3, bw, filler, NA, 999, 999, 3, 12, 80, 65, 167, 102, 88, 73, 1, 0.754409
137, 3, bw, attraction, a-b-db, 2, 2, 3, 13, 165, 90, 90, 165, 89, 163, 2, 8.06608
137, 3, bw, attraction, a-b-db, 2, 2, 3, 13, 165, 90, 90, 165, 89, 163, 3, 1.10034
137, 3, bw, attraction, a-b-db, 9, 2, 3, 14, 165, 90, 90, 165, 86, 157, 2, 2.78184
137, 3, bw, attraction, a-b-db, 9, 2, 3, 14, 165, 90, 90, 165, 86, 157, 1, 1.36497
137, 3, bw, attraction, a-b-da, 5, 3, 3, 15, 120, 195, 195, 120, 190, 117, 2, 4.43599
137, 3, bw, attraction, a-b-da, 5, 3, 3, 15, 120, 195, 195, 120, 190, 117, 3, 1.08033
137, 3, bw, catch, NA, 999, 999, 3, 16, 140, 175, 110, 145, 135, 60, 1, 1.68261
137, 3, bw, catch, NA, 999, 999, 3, 16, 140, 175, 110, 145, 135, 60, 3, 1.10212
137, 3, bw, attraction, a-b-da, 9, 2, 3, 17, 157, 86, 165, 90, 90, 165, 3, 1.85572
137, 3, bw, attraction, a-b-da, 9, 2, 3, 17, 157, 86, 165, 90, 90, 165, 1, 0.851783
137, 3, bw, filler, NA, 999, 999, 3, 18, 111, 61, 116, 161, 80, 171, 2, 1.35142
137, 3, bw, filler, NA, 999, 999, 3, 18, 111, 61, 116, 161, 80, 171, 1, 0.720265
137, 3, bw, filler, NA, 999, 999, 3, 19, 120, 167, 94, 72, 103, 173, 1, 1.0976
137, 3, bw, filler, NA, 999, 999, 3, 19, 120, 167, 94, 72, 103, 173, 2, 0.732351
137, 3, bw, attraction, a-b-db, 5, 3, 3, 20, 117, 190, 195, 120, 120, 195, 2, 4.8768
137, 3, bw, attraction, a-b-db, 5, 3, 3, 20, 117, 190, 195, 120, 120, 195, 1, 0.607209
137, 3, bw, attraction, a-b-da, 9, 3, 3, 21, 195, 120, 120, 195, 186, 114, 2, 2.07632
137, 3, bw, attraction, a-b-da, 9, 3, 3, 21, 195, 120, 120, 195, 186, 114, 3, 1.31965
137, 3, bw, attraction, a-b-db, 9, 1, 3, 22, 57, 129, 60, 135, 135, 60, 2, 2.34461
137, 3, bw, attraction, a-b-db, 9, 1, 3, 22, 57, 129, 60, 135, 135, 60, 1, 0.68916
137, 3, bw, attraction, a-b-da, 14, 1, 3, 23, 60, 135, 135, 60, 125, 56, 1, 2.58755
137, 3, bw, attraction, a-b-da, 14, 1, 3, 23, 60, 135, 135, 60, 125, 56, 2, 0.45059
137, 3, bw, filler, NA, 999, 999, 3, 24, 164, 150, 84, 188, 98, 166, 1, 1.11039
137, 3, bw, filler, NA, 999, 999, 3, 24, 164, 150, 84, 188, 98, 166, 3, 0.46474
137, 3, bw, attraction, a-b-da, 2, 3, 3, 25, 120, 195, 195, 120, 193, 119, 2, 1.75581
137, 3, bw, attraction, a-b-da, 2, 3, 3, 25, 120, 195, 195, 120, 193, 119, 1, 1.316
137, 3, bw, attraction, a-b-db, 2, 1, 3, 26, 59, 134, 135, 60, 60, 135, 1, 12.1007
137, 3, bw, attraction, a-b-db, 2, 1, 3, 26, 59, 134, 135, 60, 60, 135, 2, 0.668376
137, 3, bw, attraction, a-b-db, 14, 3, 3, 27, 120, 195, 111, 181, 195, 120, 1, 2.06331
137, 3, bw, attraction, a-b-db, 14, 3, 3, 27, 120, 195, 111, 181, 195, 120, 3, 0.707299
137, 3, bw, attraction, a-b-db, 9, 3, 3, 28, 195, 120, 120, 195, 114, 186, 2, 2.87644
137, 3, bw, attraction, a-b-db, 9, 3, 3, 28, 195, 120, 120, 195, 114, 186, 3, 1.31157
137, 3, bw, attraction, a-b-da, 14, 3, 3, 29, 120, 195, 195, 120, 181, 111, 2, 3.18435
137, 3, bw, attraction, a-b-da, 14, 3, 3, 29, 120, 195, 195, 120, 181, 111, 1, 0.719296
137, 3, bw, filler, NA, 999, 999, 3, 30, 129, 165, 80, 127, 125, 98, 1, 1.1525
137, 3, bw, filler, NA, 999, 999, 3, 30, 129, 165, 80, 127, 125, 98, 2, 0.761307
137, 3, bw, attraction, a-b-da, 2, 2, 3, 31, 90, 165, 163, 89, 165, 90, 1, 6.11247
137, 3, bw, attraction, a-b-da, 2, 2, 3, 31, 90, 165, 163, 89, 165, 90, 2, 0.697019
137, 3, bw, attraction, a-b-da, 9, 1, 3, 32, 129, 57, 135, 60, 60, 135, 2, 2.20275
137, 3, bw, attraction, a-b-da, 9, 1, 3, 32, 129, 57, 135, 60, 60, 135, 1, 0.521379
137, 3, bw, attraction, a-b-db, 5, 1, 3, 33, 135, 60, 58, 132, 60, 135, 1, 2.65855
137, 3, bw, attraction, a-b-db, 5, 1, 3, 33, 135, 60, 58, 132, 60, 135, 3, 0.486351
137, 3, bw, catch, NA, 999, 999, 3, 34, 91, 104, 161, 94, 181, 134, 3, 1.28076
137, 3, bw, catch, NA, 999, 999, 3, 34, 91, 104, 161, 94, 181, 134, 1, 1.02039
137, 3, bw, attraction, a-b-da, 5, 1, 3, 35, 132, 58, 135, 60, 60, 135, 3, 4.24935
137, 3, bw, attraction, a-b-da, 5, 1, 3, 35, 132, 58, 135, 60, 60, 135, 1, 0.949304
137, 3, bw, attraction, a-b-db, 2, 3, 3, 36, 195, 120, 120, 195, 119, 193, 2, 5.89297
137, 3, bw, attraction, a-b-db, 2, 3, 3, 36, 195, 120, 120, 195, 119, 193, 1, 1.17446
137, 3, bw, filler, NA, 999, 999, 3, 37, 71, 105, 75, 165, 142, 166, 3, 1.3647
137, 3, bw, filler, NA, 999, 999, 3, 37, 71, 105, 75, 165, 142, 166, 1, 0.804902
137, 3, bw, filler, NA, 999, 999, 4, 1, 98, 176, 87, 123, 164, 102, 3, 1.92259
137, 3, bw, filler, NA, 999, 999, 4, 1, 98, 176, 87, 123, 164, 102, 2, 0.484046
137, 3, bw, attraction, a-b-db, 14, 1, 4, 2, 60, 135, 135, 60, 56, 125, 1, 4.8304
137, 3, bw, attraction, a-b-db, 14, 1, 4, 2, 60, 135, 135, 60, 56, 125, 3, 0.906834
137, 3, bw, filler, NA, 999, 999, 4, 3, 124, 123, 99, 125, 148, 101, 3, 2.87587
137, 3, bw, filler, NA, 999, 999, 4, 3, 124, 123, 99, 125, 148, 101, 2, 0.974947
137, 3, bw, attraction, a-b-db, 5, 1, 4, 4, 135, 60, 58, 132, 60, 135, 3, 3.96524
137, 3, bw, attraction, a-b-db, 5, 1, 4, 4, 135, 60, 58, 132, 60, 135, 2, 0.572687
137, 3, bw, catch, NA, 999, 999, 4, 5, 166, 149, 123, 132, 130, 65, 1, 1.12367
137, 3, bw, catch, NA, 999, 999, 4, 5, 166, 149, 123, 132, 130, 65, 3, 0.54137
137, 3, bw, filler, NA, 999, 999, 4, 6, 187, 139, 166, 63, 145, 138, 1, 2.69321
137, 3, bw, filler, NA, 999, 999, 4, 6, 187, 139, 166, 63, 145, 138, 2, 0.607563
137, 3, bw, attraction, a-b-db, 2, 1, 4, 7, 135, 60, 59, 134, 60, 135, 2, 109.789
137, 3, bw, attraction, a-b-db, 2, 1, 4, 7, 135, 60, 59, 134, 60, 135, 3, 0.715717
137, 3, bw, attraction, a-b-db, 5, 3, 4, 8, 117, 190, 195, 120, 120, 195, 3, 1.99675
137, 3, bw, attraction, a-b-db, 5, 3, 4, 8, 117, 190, 195, 120, 120, 195, 2, 0.707445
137, 3, bw, attraction, a-b-da, 9, 1, 4, 9, 135, 60, 129, 57, 60, 135, 1, 1.78046
137, 3, bw, attraction, a-b-da, 9, 1, 4, 9, 135, 60, 129, 57, 60, 135, 2, 1.39586
137, 3, bw, attraction, a-b-db, 9, 1, 4, 10, 60, 135, 135, 60, 57, 129, 1, 1.49744
137, 3, bw, attraction, a-b-db, 9, 1, 4, 10, 60, 135, 135, 60, 57, 129, 3, 0.540297
137, 3, bw, attraction, a-b-da, 2, 1, 4, 11, 60, 135, 134, 59, 135, 60, 2, 2.12397
137, 3, bw, attraction, a-b-da, 2, 1, 4, 11, 60, 135, 134, 59, 135, 60, 1, 0.517318
137, 3, bw, filler, NA, 999, 999, 4, 12, 121, 113, 158, 56, 194, 194, 3, 0.998414
137, 3, bw, filler, NA, 999, 999, 4, 12, 121, 113, 158, 56, 194, 194, 1, 0.557502
137, 3, bw, attraction, a-b-db, 14, 2, 4, 13, 90, 165, 165, 90, 83, 153, 2, 1.54049
137, 3, bw, attraction, a-b-db, 14, 2, 4, 13, 90, 165, 165, 90, 83, 153, 1, 2.78929
137, 3, bw, filler, NA, 999, 999, 4, 14, 162, 195, 183, 77, 136, 187, 1, 1.20303
137, 3, bw, filler, NA, 999, 999, 4, 14, 162, 195, 183, 77, 136, 187, 2, 0.785995
137, 3, bw, catch, NA, 999, 999, 4, 15, 129, 126, 131, 64, 169, 146, 3, 0.976497
137, 3, bw, catch, NA, 999, 999, 4, 15, 129, 126, 131, 64, 169, 146, 2, 1.67207
137, 3, bw, attraction, a-b-da, 14, 3, 4, 16, 120, 195, 181, 111, 195, 120, 1, 15.0669
137, 3, bw, attraction, a-b-da, 14, 3, 4, 16, 120, 195, 181, 111, 195, 120, 2, 0.738657
137, 3, bw, attraction, a-b-da, 5, 1, 4, 17, 135, 60, 60, 135, 132, 58, 2, 2.1711
137, 3, bw, attraction, a-b-da, 5, 1, 4, 17, 135, 60, 60, 135, 132, 58, 1, 1.12309
137, 3, bw, attraction, a-b-db, 2, 3, 4, 18, 195, 120, 120, 195, 119, 193, 2, 14.1319
137, 3, bw, attraction, a-b-db, 2, 3, 4, 18, 195, 120, 120, 195, 119, 193, 3, 1.18554
137, 3, bw, filler, NA, 999, 999, 4, 19, 87, 138, 179, 132, 143, 165, 2, 1.61585
137, 3, bw, filler, NA, 999, 999, 4, 19, 87, 138, 179, 132, 143, 165, 1, 0.74191
137, 3, bw, attraction, a-b-da, 14, 1, 4, 20, 125, 56, 135, 60, 60, 135, 2, 1.98175
137, 3, bw, attraction, a-b-da, 14, 1, 4, 20, 125, 56, 135, 60, 60, 135, 1, 1.10097
137, 3, bw, attraction, a-b-da, 2, 2, 4, 21, 90, 165, 163, 89, 165, 90, 2, 2.91073
137, 3, bw, attraction, a-b-da, 2, 2, 4, 21, 90, 165, 163, 89, 165, 90, 1, 7.4483
137, 3, bw, attraction, a-b-da, 9, 3, 4, 22, 186, 114, 195, 120, 120, 195, 2, 2.79402
137, 3, bw, attraction, a-b-da, 9, 3, 4, 22, 186, 114, 195, 120, 120, 195, 1, 0.904386
137, 3, bw, filler, NA, 999, 999, 4, 23, 100, 106, 115, 165, 103, 185, 3, 5.14603
137, 3, bw, filler, NA, 999, 999, 4, 23, 100, 106, 115, 165, 103, 185, 1, 0.537694
137, 3, bw, filler, NA, 999, 999, 4, 24, 102, 87, 115, 95, 154, 165, 3, 1.25017
137, 3, bw, filler, NA, 999, 999, 4, 24, 102, 87, 115, 95, 154, 165, 1, 0.727068
137, 3, bw, attraction, a-b-db, 14, 3, 4, 25, 120, 195, 195, 120, 111, 181, 1, 31.8635
137, 3, bw, attraction, a-b-db, 14, 3, 4, 25, 120, 195, 195, 120, 111, 181, 2, 0.418852
137, 3, bw, attraction, a-b-da, 5, 3, 4, 26, 120, 195, 195, 120, 190, 117, 1, 1.37592
137, 3, bw, attraction, a-b-da, 5, 3, 4, 26, 120, 195, 195, 120, 190, 117, 2, 0.68753
137, 3, bw, attraction, a-b-db, 9, 2, 4, 27, 165, 90, 90, 165, 86, 157, 2, 1.16987
137, 3, bw, attraction, a-b-db, 9, 2, 4, 27, 165, 90, 90, 165, 86, 157, 1, 0.490177
137, 3, bw, attraction, a-b-db, 5, 2, 4, 28, 165, 90, 90, 165, 88, 161, 2, 1.81994
137, 3, bw, attraction, a-b-db, 5, 2, 4, 28, 165, 90, 90, 165, 88, 161, 1, 0.866131
137, 3, bw, attraction, a-b-da, 9, 2, 4, 29, 165, 90, 157, 86, 90, 165, 3, 1.70116
137, 3, bw, attraction, a-b-da, 9, 2, 4, 29, 165, 90, 157, 86, 90, 165, 2, 0.535841
137, 3, bw, attraction, a-b-da, 14, 2, 4, 30, 153, 83, 165, 90, 90, 165, 3, 1.48032
137, 3, bw, attraction, a-b-da, 14, 2, 4, 30, 153, 83, 165, 90, 90, 165, 1, 0.363685
137, 3, bw, attraction, a-b-da, 5, 2, 4, 31, 90, 165, 161, 88, 165, 90, 3, 1.80288
137, 3, bw, attraction, a-b-da, 5, 2, 4, 31, 90, 165, 161, 88, 165, 90, 1, 0.481661
137, 3, bw, attraction, a-b-da, 2, 3, 4, 32, 193, 119, 195, 120, 120, 195, 3, 3.41213
137, 3, bw, attraction, a-b-da, 2, 3, 4, 32, 193, 119, 195, 120, 120, 195, 1, 1.08167
137, 3, bw, filler, NA, 999, 999, 4, 33, 129, 149, 93, 103, 133, 185, 3, 1.15595
137, 3, bw, filler, NA, 999, 999, 4, 33, 129, 149, 93, 103, 133, 185, 2, 0.42037
137, 3, bw, attraction, a-b-db, 2, 2, 4, 34, 165, 90, 90, 165, 89, 163, 1, 3.66542
137, 3, bw, attraction, a-b-db, 2, 2, 4, 34, 165, 90, 90, 165, 89, 163, 3, 0.588951
137, 3, bw, attraction, a-b-db, 9, 3, 4, 35, 120, 195, 195, 120, 114, 186, 1, 2.08324
137, 3, bw, attraction, a-b-db, 9, 3, 4, 35, 120, 195, 195, 120, 114, 186, 3, 0.710639
137, 3, bw, catch, NA, 999, 999, 4, 36, 159, 96, 124, 71, 148, 167, 3, 0.919741
137, 3, bw, catch, NA, 999, 999, 4, 36, 159, 96, 124, 71, 148, 167, 2, 0.762022
137, 3, bw, filler, NA, 999, 999, 4, 37, 167, 193, 124, 118, 78, 183, 1, 0.961145
137, 3, bw, filler, NA, 999, 999, 4, 37, 167, 193, 124, 118, 78, 183, 3, 0.457436
137, 3, bw, filler, NA, 999, 999, 5, 1, 57, 137, 119, 140, 128, 110, 2, 63.1952
137, 3, bw, filler, NA, 999, 999, 5, 1, 57, 137, 119, 140, 128, 110, 1, 0.479404
137, 3, bw, filler, NA, 999, 999, 5, 2, 131, 147, 75, 135, 158, 181, 3, 1.08199
137, 3, bw, filler, NA, 999, 999, 5, 2, 131, 147, 75, 135, 158, 181, 2, 0.493543
137, 3, bw, attraction, a-b-da, 9, 2, 5, 3, 90, 165, 165, 90, 157, 86, 2, 2.27931
137, 3, bw, attraction, a-b-da, 9, 2, 5, 3, 90, 165, 165, 90, 157, 86, 3, 0.498562
137, 3, bw, attraction, a-b-db, 14, 2, 5, 4, 83, 153, 165, 90, 90, 165, 3, 2.32446
137, 3, bw, attraction, a-b-db, 14, 2, 5, 4, 83, 153, 165, 90, 90, 165, 1, 0.405722
137, 3, bw, attraction, a-b-db, 5, 3, 5, 5, 195, 120, 120, 195, 117, 190, 2, 2.57927
137, 3, bw, attraction, a-b-db, 5, 3, 5, 5, 195, 120, 120, 195, 117, 190, 3, 0.570843
137, 3, bw, attraction, a-b-db, 2, 2, 5, 6, 165, 90, 89, 163, 90, 165, 1, 2.75376
137, 3, bw, attraction, a-b-db, 2, 2, 5, 6, 165, 90, 89, 163, 90, 165, 3, 0.346113
137, 3, bw, attraction, a-b-db, 9, 3, 5, 7, 120, 195, 114, 186, 195, 120, 3, 8.08997
137, 3, bw, attraction, a-b-db, 9, 3, 5, 7, 120, 195, 114, 186, 195, 120, 1, 0.427494
137, 3, bw, filler, NA, 999, 999, 5, 8, 134, 156, 159, 82, 105, 128, 1, 1.55991
137, 3, bw, filler, NA, 999, 999, 5, 8, 134, 156, 159, 82, 105, 128, 3, 0.608029
137, 3, bw, filler, NA, 999, 999, 5, 9, 168, 128, 66, 164, 161, 179, 3, 1.41307
137, 3, bw, filler, NA, 999, 999, 5, 9, 168, 128, 66, 164, 161, 179, 2, 0.643254
137, 3, bw, catch, NA, 999, 999, 5, 10, 189, 126, 133, 62, 145, 110, 1, 1.47897
137, 3, bw, catch, NA, 999, 999, 5, 10, 189, 126, 133, 62, 145, 110, 2, 0.49063
137, 3, bw, attraction, a-b-da, 5, 2, 5, 11, 90, 165, 165, 90, 161, 88, 1, 2.71629
137, 3, bw, attraction, a-b-da, 5, 2, 5, 11, 90, 165, 165, 90, 161, 88, 2, 0.542139
137, 3, bw, attraction, a-b-db, 5, 2, 5, 12, 88, 161, 165, 90, 90, 165, 3, 3.07796
137, 3, bw, attraction, a-b-db, 5, 2, 5, 12, 88, 161, 165, 90, 90, 165, 2, 0.497048
137, 3, bw, attraction, a-b-db, 14, 1, 5, 13, 135, 60, 56, 125, 60, 135, 1, 2.58673
137, 3, bw, attraction, a-b-db, 14, 1, 5, 13, 135, 60, 56, 125, 60, 135, 2, 0.585852
137, 3, bw, catch, NA, 999, 999, 5, 14, 123, 132, 173, 142, 123, 72, 2, 1.45628
137, 3, bw, catch, NA, 999, 999, 5, 14, 123, 132, 173, 142, 123, 72, 3, 0.548447
137, 3, bw, filler, NA, 999, 999, 5, 15, 98, 160, 103, 90, 156, 186, 3, 1.4284
137, 3, bw, filler, NA, 999, 999, 5, 15, 98, 160, 103, 90, 156, 186, 2, 0.633801
137, 3, bw, attraction, a-b-da, 5, 3, 5, 16, 190, 117, 195, 120, 120, 195, 3, 2.60631
137, 3, bw, attraction, a-b-da, 5, 3, 5, 16, 190, 117, 195, 120, 120, 195, 1, 0.4202
137, 3, bw, filler, NA, 999, 999, 5, 17, 61, 75, 121, 165, 187, 111, 2, 3.43314
137, 3, bw, filler, NA, 999, 999, 5, 17, 61, 75, 121, 165, 187, 111, 1, 1.05411
137, 3, bw, attraction, a-b-db, 14, 3, 5, 18, 195, 120, 111, 181, 120, 195, 3, 3.50569
137, 3, bw, attraction, a-b-db, 14, 3, 5, 18, 195, 120, 111, 181, 120, 195, 1, 0.595227
137, 3, bw, filler, NA, 999, 999, 5, 19, 163, 118, 173, 170, 136, 185, 2, 1.52092
137, 3, bw, filler, NA, 999, 999, 5, 19, 163, 118, 173, 170, 136, 185, 1, 0.57918
137, 3, bw, attraction, a-b-da, 2, 2, 5, 20, 165, 90, 163, 89, 90, 165, 3, 9.39362
137, 3, bw, attraction, a-b-da, 2, 2, 5, 20, 165, 90, 163, 89, 90, 165, 1, 0.821941
137, 3, bw, filler, NA, 999, 999, 5, 21, 90, 167, 174, 90, 182, 101, 3, 2.88304
137, 3, bw, filler, NA, 999, 999, 5, 21, 90, 167, 174, 90, 182, 101, 2, 0.613968
137, 3, bw, attraction, a-b-db, 2, 3, 5, 22, 120, 195, 195, 120, 119, 193, 3, 1.8431
137, 3, bw, attraction, a-b-db, 2, 3, 5, 22, 120, 195, 195, 120, 119, 193, 2, 0.415884
137, 3, bw, attraction, a-b-da, 5, 1, 5, 23, 135, 60, 60, 135, 132, 58, 2, 1.65311
137, 3, bw, attraction, a-b-da, 5, 1, 5, 23, 135, 60, 60, 135, 132, 58, 3, 0.857779
137, 3, bw, filler, NA, 999, 999, 5, 24, 166, 164, 146, 119, 108, 79, 1, 0.916888
137, 3, bw, filler, NA, 999, 999, 5, 24, 166, 164, 146, 119, 108, 79, 3, 0.479143
137, 3, bw, attraction, a-b-da, 9, 3, 5, 25, 120, 195, 195, 120, 186, 114, 2, 3.44963
137, 3, bw, attraction, a-b-da, 9, 3, 5, 25, 120, 195, 195, 120, 186, 114, 3, 0.637975
137, 3, bw, attraction, a-b-da, 2, 3, 5, 26, 195, 120, 193, 119, 120, 195, 3, 1.40235
137, 3, bw, attraction, a-b-da, 2, 3, 5, 26, 195, 120, 193, 119, 120, 195, 1, 1.04913
137, 3, bw, attraction, a-b-db, 9, 1, 5, 27, 60, 135, 135, 60, 57, 129, 1, 1.84472
137, 3, bw, attraction, a-b-db, 9, 1, 5, 27, 60, 135, 135, 60, 57, 129, 3, 0.465408
137, 3, bw, attraction, a-b-db, 9, 2, 5, 28, 90, 165, 86, 157, 165, 90, 1, 1.7086
137, 3, bw, attraction, a-b-db, 9, 2, 5, 28, 90, 165, 86, 157, 165, 90, 2, 0.510697
137, 3, bw, filler, NA, 999, 999, 5, 29, 152, 121, 86, 96, 183, 63, 1, 0.863739
137, 3, bw, filler, NA, 999, 999, 5, 29, 152, 121, 86, 96, 183, 63, 2, 0.364204
137, 3, bw, attraction, a-b-db, 2, 1, 5, 30, 59, 134, 135, 60, 60, 135, 1, 0.891272
137, 3, bw, attraction, a-b-db, 2, 1, 5, 30, 59, 134, 135, 60, 60, 135, 3, 0.574303
137, 3, bw, attraction, a-b-da, 14, 3, 5, 31, 120, 195, 181, 111, 195, 120, 3, 2.86082
137, 3, bw, attraction, a-b-da, 14, 3, 5, 31, 120, 195, 181, 111, 195, 120, 2, 0.336521
137, 3, bw, catch, NA, 999, 999, 5, 32, 121, 74, 144, 111, 195, 120, 3, 0.769035
137, 3, bw, catch, NA, 999, 999, 5, 32, 121, 74, 144, 111, 195, 120, 1, 1.00153
137, 3, bw, attraction, a-b-da, 14, 2, 5, 33, 165, 90, 153, 83, 90, 165, 1, 1.52706
137, 3, bw, attraction, a-b-da, 14, 2, 5, 33, 165, 90, 153, 83, 90, 165, 2, 0.616618
137, 3, bw, attraction, a-b-da, 14, 1, 5, 34, 125, 56, 60, 135, 135, 60, 2, 1.4936
137, 3, bw, attraction, a-b-da, 14, 1, 5, 34, 125, 56, 60, 135, 135, 60, 1, 1.00061
137, 3, bw, attraction, a-b-da, 2, 1, 5, 35, 60, 135, 134, 59, 135, 60, 1, 4.20622
137, 3, bw, attraction, a-b-da, 2, 1, 5, 35, 60, 135, 134, 59, 135, 60, 2, 0.371386
137, 3, bw, attraction, a-b-db, 5, 1, 5, 36, 60, 135, 135, 60, 58, 132, 1, 1.48263
137, 3, bw, attraction, a-b-db, 5, 1, 5, 36, 60, 135, 135, 60, 58, 132, 2, 0.718228
137, 3, bw, attraction, a-b-da, 9, 1, 5, 37, 129, 57, 60, 135, 135, 60, 2, 1.39917
137, 3, bw, attraction, a-b-da, 9, 1, 5, 37, 129, 57, 60, 135, 135, 60, 1, 0.478107
137, 3, bw, attraction, a-b-db, 14, 2, 6, 1, 90, 165, 165, 90, 83, 153, 1, 1.65652
137, 3, bw, attraction, a-b-db, 14, 2, 6, 1, 90, 165, 165, 90, 83, 153, 3, 0.348619
137, 3, bw, attraction, a-b-db, 9, 2, 6, 2, 86, 157, 165, 90, 90, 165, 3, 1.43652
137, 3, bw, attraction, a-b-db, 9, 2, 6, 2, 86, 157, 165, 90, 90, 165, 1, 0.738006
137, 3, bw, attraction, a-b-da, 14, 1, 6, 3, 125, 56, 135, 60, 60, 135, 2, 2.67432
137, 3, bw, attraction, a-b-da, 14, 1, 6, 3, 125, 56, 135, 60, 60, 135, 1, 0.421553
137, 3, bw, attraction, a-b-db, 14, 3, 6, 4, 111, 181, 120, 195, 195, 120, 2, 2.01864
137, 3, bw, attraction, a-b-db, 14, 3, 6, 4, 111, 181, 120, 195, 195, 120, 1, 0.400623
137, 3, bw, attraction, a-b-db, 2, 2, 6, 5, 89, 163, 165, 90, 90, 165, 3, 2.04646
137, 3, bw, attraction, a-b-db, 2, 2, 6, 5, 89, 163, 165, 90, 90, 165, 2, 0.627234
137, 3, bw, attraction, a-b-da, 9, 2, 6, 6, 90, 165, 157, 86, 165, 90, 3, 3.20768
137, 3, bw, attraction, a-b-da, 9, 2, 6, 6, 90, 165, 157, 86, 165, 90, 1, 0.501145
137, 3, bw, filler, NA, 999, 999, 6, 7, 177, 64, 178, 117, 185, 114, 2, 1.56697
137, 3, bw, filler, NA, 999, 999, 6, 7, 177, 64, 178, 117, 185, 114, 1, 0.647141
137, 3, bw, attraction, a-b-db, 2, 3, 6, 8, 195, 120, 119, 193, 120, 195, 2, 2.15482
137, 3, bw, attraction, a-b-db, 2, 3, 6, 8, 195, 120, 119, 193, 120, 195, 1, 0.475459
137, 3, bw, attraction, a-b-da, 2, 2, 6, 9, 90, 165, 165, 90, 163, 89, 1, 1.63791
137, 3, bw, attraction, a-b-da, 2, 2, 6, 9, 90, 165, 165, 90, 163, 89, 2, 0.499443
137, 3, bw, attraction, a-b-da, 9, 3, 6, 10, 120, 195, 195, 120, 186, 114, 2, 4.37333
137, 3, bw, attraction, a-b-da, 9, 3, 6, 10, 120, 195, 195, 120, 186, 114, 3, 0.531762
137, 3, bw, catch, NA, 999, 999, 6, 11, 145, 170, 161, 94, 75, 120, 1, 0.884162
137, 3, bw, catch, NA, 999, 999, 6, 11, 145, 170, 161, 94, 75, 120, 3, 0.975835
137, 3, bw, filler, NA, 999, 999, 6, 12, 90, 180, 163, 59, 189, 174, 3, 1.10215
137, 3, bw, filler, NA, 999, 999, 6, 12, 90, 180, 163, 59, 189, 174, 2, 0.409122
137, 3, bw, filler, NA, 999, 999, 6, 13, 136, 85, 191, 130, 71, 164, 2, 1.43834
137, 3, bw, filler, NA, 999, 999, 6, 13, 136, 85, 191, 130, 71, 164, 1, 0.427249
137, 3, bw, filler, NA, 999, 999, 6, 14, 180, 149, 164, 107, 68, 73, 1, 1.11976
137, 3, bw, filler, NA, 999, 999, 6, 14, 180, 149, 164, 107, 68, 73, 3, 0.513908
137, 3, bw, attraction, a-b-db, 9, 1, 6, 15, 57, 129, 135, 60, 60, 135, 3, 2.30713
137, 3, bw, attraction, a-b-db, 9, 1, 6, 15, 57, 129, 135, 60, 60, 135, 2, 0.701045
137, 3, bw, attraction, a-b-da, 2, 3, 6, 16, 195, 120, 193, 119, 120, 195, 3, 2.35068
137, 3, bw, attraction, a-b-da, 2, 3, 6, 16, 195, 120, 193, 119, 120, 195, 2, 0.439458
137, 3, bw, filler, NA, 999, 999, 6, 17, 161, 126, 97, 88, 129, 177, 1, 2.18766
137, 3, bw, filler, NA, 999, 999, 6, 17, 161, 126, 97, 88, 129, 177, 2, 0.651036
137, 3, bw, filler, NA, 999, 999, 6, 18, 178, 103, 74, 75, 138, 166, 3, 1.31076
137, 3, bw, filler, NA, 999, 999, 6, 18, 178, 103, 74, 75, 138, 166, 2, 0.529064
137, 3, bw, attraction, a-b-da, 5, 1, 6, 19, 132, 58, 60, 135, 135, 60, 2, 1.92145
137, 3, bw, attraction, a-b-da, 5, 1, 6, 19, 132, 58, 60, 135, 135, 60, 1, 0.571548
137, 3, bw, attraction, a-b-db, 14, 1, 6, 20, 60, 135, 56, 125, 135, 60, 1, 2.07457
137, 3, bw, attraction, a-b-db, 14, 1, 6, 20, 60, 135, 56, 125, 135, 60, 2, 0.485835
137, 3, bw, filler, NA, 999, 999, 6, 21, 155, 166, 155, 73, 89, 72, 1, 0.816353
137, 3, bw, filler, NA, 999, 999, 6, 21, 155, 166, 155, 73, 89, 72, 3, 1.35091
137, 3, bw, filler, NA, 999, 999, 6, 22, 131, 122, 166, 113, 190, 179, 3, 1.8063
137, 3, bw, filler, NA, 999, 999, 6, 22, 131, 122, 166, 113, 190, 179, 1, 0.484338
137, 3, bw, attraction, a-b-da, 14, 2, 6, 23, 153, 83, 90, 165, 165, 90, 2, 2.64682
137, 3, bw, attraction, a-b-da, 14, 2, 6, 23, 153, 83, 90, 165, 165, 90, 1, 0.475335
137, 3, bw, attraction, a-b-da, 14, 3, 6, 24, 195, 120, 120, 195, 181, 111, 2, 2.42974
137, 3, bw, attraction, a-b-da, 14, 3, 6, 24, 195, 120, 120, 195, 181, 111, 1, 0.570973
137, 3, bw, catch, NA, 999, 999, 6, 25, 92, 163, 84, 111, 156, 159, 3, 0.850035
137, 3, bw, catch, NA, 999, 999, 6, 25, 92, 163, 84, 111, 156, 159, 2, 0.543171
137, 3, bw, attraction, a-b-da, 5, 2, 6, 26, 161, 88, 90, 165, 165, 90, 2, 2.27886
137, 3, bw, attraction, a-b-da, 5, 2, 6, 26, 161, 88, 90, 165, 165, 90, 3, 0.56218
137, 3, bw, filler, NA, 999, 999, 6, 27, 150, 183, 102, 191, 143, 140, 1, 1.58535
137, 3, bw, filler, NA, 999, 999, 6, 27, 150, 183, 102, 191, 143, 140, 3, 0.680709
137, 3, bw, attraction, a-b-da, 9, 1, 6, 28, 60, 135, 135, 60, 129, 57, 1, 2.21912
137, 3, bw, attraction, a-b-da, 9, 1, 6, 28, 60, 135, 135, 60, 129, 57, 3, 1.00105
137, 3, bw, filler, NA, 999, 999, 6, 29, 83, 62, 86, 193, 146, 125, 2, 4.1987
137, 3, bw, filler, NA, 999, 999, 6, 29, 83, 62, 86, 193, 146, 125, 1, 0.500767
137, 3, bw, attraction, a-b-db, 2, 1, 6, 30, 60, 135, 59, 134, 135, 60, 1, 6.63849
137, 3, bw, attraction, a-b-db, 2, 1, 6, 30, 60, 135, 59, 134, 135, 60, 2, 0.610326
137, 3, bw, attraction, a-b-da, 2, 1, 6, 31, 134, 59, 135, 60, 60, 135, 3, 3.03147
137, 3, bw, attraction, a-b-da, 2, 1, 6, 31, 134, 59, 135, 60, 60, 135, 2, 0.588421
137, 3, bw, attraction, a-b-db, 5, 2, 6, 32, 165, 90, 88, 161, 90, 165, 2, 2.09098
137, 3, bw, attraction, a-b-db, 5, 2, 6, 32, 165, 90, 88, 161, 90, 165, 1, 1.62959
137, 3, bw, attraction, a-b-db, 5, 1, 6, 33, 58, 132, 135, 60, 60, 135, 1, 62.1857
137, 3, bw, attraction, a-b-db, 5, 1, 6, 33, 58, 132, 135, 60, 60, 135, 2, 0.614778
137, 3, bw, attraction, a-b-da, 5, 3, 6, 34, 195, 120, 120, 195, 190, 117, 2, 0.947954
137, 3, bw, attraction, a-b-da, 5, 3, 6, 34, 195, 120, 120, 195, 190, 117, 3, 0.70899
137, 3, bw, attraction, a-b-db, 9, 3, 6, 35, 114, 186, 195, 120, 120, 195, 2, 1.25401
137, 3, bw, attraction, a-b-db, 9, 3, 6, 35, 114, 186, 195, 120, 120, 195, 1, 0.618281
137, 3, bw, attraction, a-b-db, 5, 3, 6, 36, 195, 120, 117, 190, 120, 195, 1, 3.11136
137, 3, bw, attraction, a-b-db, 5, 3, 6, 36, 195, 120, 117, 190, 120, 195, 2, 0.768978
137, 3, bw, catch, NA, 999, 999, 6, 37, 147, 108, 74, 121, 134, 181, 3, 1.18412
137, 3, bw, catch, NA, 999, 999, 6, 37, 147, 108, 74, 121, 134, 181, 2, 0.551626
137, 3, bw, attraction, a-b-db, 5, 3, 7, 1, 117, 190, 195, 120, 120, 195, 2, 1.13544
137, 3, bw, attraction, a-b-db, 5, 3, 7, 1, 117, 190, 195, 120, 120, 195, 3, 0.985009
137, 3, bw, filler, NA, 999, 999, 7, 2, 66, 129, 153, 98, 66, 120, 2, 1.23136
137, 3, bw, filler, NA, 999, 999, 7, 2, 66, 129, 153, 98, 66, 120, 3, 0.517023
137, 3, bw, attraction, a-b-db, 5, 2, 7, 3, 88, 161, 165, 90, 90, 165, 1, 1.71025
137, 3, bw, attraction, a-b-db, 5, 2, 7, 3, 88, 161, 165, 90, 90, 165, 2, 0.400206
137, 3, bw, filler, NA, 999, 999, 7, 4, 62, 160, 78, 97, 123, 182, 3, 0.901975
137, 3, bw, filler, NA, 999, 999, 7, 4, 62, 160, 78, 97, 123, 182, 2, 0.360979
137, 3, bw, filler, NA, 999, 999, 7, 5, 107, 91, 63, 73, 173, 88, 3, 1.89615
137, 3, bw, filler, NA, 999, 999, 7, 5, 107, 91, 63, 73, 173, 88, 2, 0.650844
137, 3, bw, filler, NA, 999, 999, 7, 6, 67, 70, 73, 120, 61, 91, 2, 1.5586
137, 3, bw, filler, NA, 999, 999, 7, 6, 67, 70, 73, 120, 61, 91, 1, 1.32679
137, 3, bw, attraction, a-b-da, 9, 3, 7, 7, 186, 114, 120, 195, 195, 120, 2, 1.90299
137, 3, bw, attraction, a-b-da, 9, 3, 7, 7, 186, 114, 120, 195, 195, 120, 1, 0.649641
137, 3, bw, attraction, a-b-da, 9, 2, 7, 8, 157, 86, 165, 90, 90, 165, 3, 2.37342
137, 3, bw, attraction, a-b-da, 9, 2, 7, 8, 157, 86, 165, 90, 90, 165, 1, 0.74081
137, 3, bw, attraction, a-b-db, 14, 2, 7, 9, 83, 153, 165, 90, 90, 165, 3, 5.06828
137, 3, bw, attraction, a-b-db, 14, 2, 7, 9, 83, 153, 165, 90, 90, 165, 2, 0.423407
137, 3, bw, filler, NA, 999, 999, 7, 10, 114, 79, 118, 129, 63, 85, 2, 0.899938
137, 3, bw, filler, NA, 999, 999, 7, 10, 114, 79, 118, 129, 63, 85, 3, 0.758897
137, 3, bw, attraction, a-b-da, 5, 1, 7, 11, 135, 60, 60, 135, 132, 58, 1, 2.01394
137, 3, bw, attraction, a-b-da, 5, 1, 7, 11, 135, 60, 60, 135, 132, 58, 2, 0.611636
137, 3, bw, attraction, a-b-db, 9, 2, 7, 12, 86, 157, 165, 90, 90, 165, 3, 2.13701
137, 3, bw, attraction, a-b-db, 9, 2, 7, 12, 86, 157, 165, 90, 90, 165, 1, 0.594351
137, 3, bw, attraction, a-b-db, 2, 3, 7, 13, 119, 193, 195, 120, 120, 195, 2, 2.08822
137, 3, bw, attraction, a-b-db, 2, 3, 7, 13, 119, 193, 195, 120, 120, 195, 1, 0.41942
137, 3, bw, attraction, a-b-db, 5, 1, 7, 14, 135, 60, 60, 135, 58, 132, 1, 2.35267
137, 3, bw, attraction, a-b-db, 5, 1, 7, 14, 135, 60, 60, 135, 58, 132, 3, 0.689147
137, 3, bw, attraction, a-b-da, 2, 1, 7, 15, 134, 59, 135, 60, 60, 135, 1, 1.29157
137, 3, bw, attraction, a-b-da, 2, 1, 7, 15, 134, 59, 135, 60, 60, 135, 2, 0.590496
137, 3, bw, filler, NA, 999, 999, 7, 16, 101, 127, 189, 189, 194, 84, 2, 31.6603
137, 3, bw, filler, NA, 999, 999, 7, 16, 101, 127, 189, 189, 194, 84, 1, 0.72757
137, 3, bw, attraction, a-b-db, 14, 3, 7, 17, 195, 120, 120, 195, 111, 181, 2, 2.47208
137, 3, bw, attraction, a-b-db, 14, 3, 7, 17, 195, 120, 120, 195, 111, 181, 1, 0.923377
137, 3, bw, attraction, a-b-da, 5, 3, 7, 18, 120, 195, 195, 120, 190, 117, 2, 2.23547
137, 3, bw, attraction, a-b-da, 5, 3, 7, 18, 120, 195, 195, 120, 190, 117, 3, 2.96077
137, 3, bw, attraction, a-b-da, 14, 1, 7, 19, 125, 56, 135, 60, 60, 135, 3, 2.54324
137, 3, bw, attraction, a-b-da, 14, 1, 7, 19, 125, 56, 135, 60, 60, 135, 1, 0.663627
137, 3, bw, filler, NA, 999, 999, 7, 20, 157, 78, 178, 117, 147, 171, 3, 3.55477
137, 3, bw, filler, NA, 999, 999, 7, 20, 157, 78, 178, 117, 147, 171, 1, 1.05827
137, 3, bw, attraction, a-b-db, 9, 1, 7, 21, 57, 129, 135, 60, 60, 135, 1, 2.71718
137, 3, bw, attraction, a-b-db, 9, 1, 7, 21, 57, 129, 135, 60, 60, 135, 3, 0.91105
137, 3, bw, attraction, a-b-db, 14, 1, 7, 22, 60, 135, 135, 60, 56, 125, 1, 2.976
137, 3, bw, attraction, a-b-db, 14, 1, 7, 22, 60, 135, 135, 60, 56, 125, 2, 0.310993
137, 3, bw, attraction, a-b-da, 2, 2, 7, 23, 165, 90, 163, 89, 90, 165, 3, 1.5523
137, 3, bw, attraction, a-b-da, 2, 2, 7, 23, 165, 90, 163, 89, 90, 165, 1, 0.625051
137, 3, bw, catch, NA, 999, 999, 7, 24, 187, 128, 142, 113, 66, 129, 1, 0.965394
137, 3, bw, catch, NA, 999, 999, 7, 24, 187, 128, 142, 113, 66, 129, 3, 0.373886
137, 3, bw, filler, NA, 999, 999, 7, 25, 96, 151, 69, 83, 98, 63, 1, 0.916137
137, 3, bw, filler, NA, 999, 999, 7, 25, 96, 151, 69, 83, 98, 63, 2, 0.494555
137, 3, bw, attraction, a-b-db, 2, 1, 7, 26, 135, 60, 60, 135, 59, 134, 3, 4.68042
137, 3, bw, attraction, a-b-db, 2, 1, 7, 26, 135, 60, 60, 135, 59, 134, 1, 1.08287
137, 3, bw, attraction, a-b-db, 2, 2, 7, 27, 90, 165, 165, 90, 89, 163, 1, 5.2293
137, 3, bw, attraction, a-b-db, 2, 2, 7, 27, 90, 165, 165, 90, 89, 163, 2, 0.537562
137, 3, bw, catch, NA, 999, 999, 7, 28, 140, 115, 90, 105, 189, 126, 3, 0.881917
137, 3, bw, catch, NA, 999, 999, 7, 28, 140, 115, 90, 105, 189, 126, 2, 1.02174
137, 3, bw, attraction, a-b-da, 14, 2, 7, 29, 153, 83, 165, 90, 90, 165, 2, 1.49075
137, 3, bw, attraction, a-b-da, 14, 2, 7, 29, 153, 83, 165, 90, 90, 165, 1, 0.469417
137, 3, bw, attraction, a-b-da, 5, 2, 7, 30, 161, 88, 165, 90, 90, 165, 3, 4.26468
137, 3, bw, attraction, a-b-da, 5, 2, 7, 30, 161, 88, 165, 90, 90, 165, 2, 0.491795
137, 3, bw, attraction, a-b-da, 9, 1, 7, 31, 60, 135, 129, 57, 135, 60, 1, 1.30175
137, 3, bw, attraction, a-b-da, 9, 1, 7, 31, 60, 135, 129, 57, 135, 60, 2, 0.560542
137, 3, bw, attraction, a-b-da, 14, 3, 7, 32, 181, 111, 195, 120, 120, 195, 2, 1.57568
137, 3, bw, attraction, a-b-da, 14, 3, 7, 32, 181, 111, 195, 120, 120, 195, 1, 0.495155
137, 3, bw, filler, NA, 999, 999, 7, 33, 174, 111, 164, 136, 98, 128, 2, 1.32895
137, 3, bw, filler, NA, 999, 999, 7, 33, 174, 111, 164, 136, 98, 128, 3, 0.394471
137, 3, bw, attraction, a-b-da, 2, 3, 7, 34, 195, 120, 193, 119, 120, 195, 3, 4.48043
137, 3, bw, attraction, a-b-da, 2, 3, 7, 34, 195, 120, 193, 119, 120, 195, 1, 0.514955
137, 3, bw, catch, NA, 999, 999, 7, 35, 165, 150, 104, 91, 97, 158, 1, 1.044
137, 3, bw, catch, NA, 999, 999, 7, 35, 165, 150, 104, 91, 97, 158, 2, 0.376973
137, 3, bw, attraction, a-b-db, 9, 3, 7, 36, 114, 186, 120, 195, 195, 120, 2, 1.71142
137, 3, bw, attraction, a-b-db, 9, 3, 7, 36, 114, 186, 120, 195, 195, 120, 1, 0.849466
137, 3, bw, filler, NA, 999, 999, 7, 37, 160, 114, 172, 122, 141, 138, 2, 1.95724
137, 3, bw, filler, NA, 999, 999, 7, 37, 160, 114, 172, 122, 141, 138, 3, 0.461296
137, 3, bw, filler, NA, 999, 999, 8, 1, 134, 56, 174, 129, 150, 147, 2, 1.57639
137, 3, bw, filler, NA, 999, 999, 8, 1, 134, 56, 174, 129, 150, 147, 1, 0.679895
137, 3, bw, attraction, a-b-db, 14, 1, 8, 2, 60, 135, 56, 125, 135, 60, 1, 3.09826
137, 3, bw, attraction, a-b-db, 14, 1, 8, 2, 60, 135, 56, 125, 135, 60, 3, 0.580591
137, 3, bw, filler, NA, 999, 999, 8, 3, 153, 188, 143, 138, 176, 181, 3, 1.73905
137, 3, bw, filler, NA, 999, 999, 8, 3, 153, 188, 143, 138, 176, 181, 2, 0.483813
137, 3, bw, attraction, a-b-db, 9, 2, 8, 4, 165, 90, 90, 165, 86, 157, 2, 1.75823
137, 3, bw, attraction, a-b-db, 9, 2, 8, 4, 165, 90, 90, 165, 86, 157, 1, 0.734358
137, 3, bw, attraction, a-b-da, 9, 1, 8, 5, 135, 60, 129, 57, 60, 135, 3, 1.69477
137, 3, bw, attraction, a-b-da, 9, 1, 8, 5, 135, 60, 129, 57, 60, 135, 1, 0.945493
137, 3, bw, attraction, a-b-db, 5, 2, 8, 6, 90, 165, 88, 161, 165, 90, 2, 1.54522
137, 3, bw, attraction, a-b-db, 5, 2, 8, 6, 90, 165, 88, 161, 165, 90, 1, 0.586007
137, 3, bw, attraction, a-b-da, 5, 3, 8, 7, 120, 195, 190, 117, 195, 120, 2, 1.94436
137, 3, bw, attraction, a-b-da, 5, 3, 8, 7, 120, 195, 190, 117, 195, 120, 1, 1.53719
137, 3, bw, catch, NA, 999, 999, 8, 8, 153, 162, 128, 127, 69, 126, 1, 1.08929
137, 3, bw, catch, NA, 999, 999, 8, 8, 153, 162, 128, 127, 69, 126, 3, 0.820269
137, 3, bw, filler, NA, 999, 999, 8, 9, 171, 132, 161, 122, 111, 183, 1, 1.81726
137, 3, bw, filler, NA, 999, 999, 8, 9, 171, 132, 161, 122, 111, 183, 2, 0.671358
137, 3, bw, filler, NA, 999, 999, 8, 10, 187, 106, 56, 61, 186, 88, 1, 1.05833
137, 3, bw, filler, NA, 999, 999, 8, 10, 187, 106, 56, 61, 186, 88, 2, 0.726606
137, 3, bw, attraction, a-b-db, 14, 3, 8, 11, 111, 181, 120, 195, 195, 120, 2, 1.37509
137, 3, bw, attraction, a-b-db, 14, 3, 8, 11, 111, 181, 120, 195, 195, 120, 1, 1.27874
137, 3, bw, attraction, a-b-da, 14, 1, 8, 12, 60, 135, 135, 60, 125, 56, 2, 3.40882
137, 3, bw, attraction, a-b-da, 14, 1, 8, 12, 60, 135, 135, 60, 125, 56, 3, 0.566366
137, 3, bw, filler, NA, 999, 999, 8, 13, 131, 118, 125, 160, 129, 148, 2, 3.14143
137, 3, bw, filler, NA, 999, 999, 8, 13, 131, 118, 125, 160, 129, 148, 1, 0.589945
137, 3, bw, filler, NA, 999, 999, 8, 14, 89, 180, 97, 176, 190, 130, 3, 2.55618
137, 3, bw, filler, NA, 999, 999, 8, 14, 89, 180, 97, 176, 190, 130, 1, 0.572035
137, 3, bw, attraction, a-b-da, 9, 2, 8, 15, 165, 90, 90, 165, 157, 86, 2, 1.92321
137, 3, bw, attraction, a-b-da, 9, 2, 8, 15, 165, 90, 90, 165, 157, 86, 3, 0.660569
137, 3, bw, catch, NA, 999, 999, 8, 16, 121, 194, 80, 115, 164, 91, 1, 0.999681
137, 3, bw, catch, NA, 999, 999, 8, 16, 121, 194, 80, 115, 164, 91, 2, 0.446557
137, 3, bw, attraction, a-b-db, 2, 2, 8, 17, 90, 165, 89, 163, 165, 90, 2, 1.85031
137, 3, bw, attraction, a-b-db, 2, 2, 8, 17, 90, 165, 89, 163, 165, 90, 1, 1.39122
137, 3, bw, attraction, a-b-db, 5, 3, 8, 18, 195, 120, 117, 190, 120, 195, 3, 2.52472
137, 3, bw, attraction, a-b-db, 5, 3, 8, 18, 195, 120, 117, 190, 120, 195, 1, 0.621948
137, 3, bw, catch, NA, 999, 999, 8, 19, 103, 92, 139, 116, 156, 159, 3, 1.33897
137, 3, bw, catch, NA, 999, 999, 8, 19, 103, 92, 139, 116, 156, 159, 1, 0.675766
137, 3, bw, filler, NA, 999, 999, 8, 20, 100, 115, 104, 181, 82, 80, 2, 1.03022
137, 3, bw, filler, NA, 999, 999, 8, 20, 100, 115, 104, 181, 82, 80, 3, 0.459814
137, 3, bw, attraction, a-b-db, 2, 1, 8, 21, 135, 60, 59, 134, 60, 135, 3, 4.14288
137, 3, bw, attraction, a-b-db, 2, 1, 8, 21, 135, 60, 59, 134, 60, 135, 2, 0.438978
137, 3, bw, attraction, a-b-da, 2, 3, 8, 22, 120, 195, 193, 119, 195, 120, 1, 1.45939
137, 3, bw, attraction, a-b-da, 2, 3, 8, 22, 120, 195, 193, 119, 195, 120, 2, 0.570282
137, 3, bw, attraction, a-b-db, 14, 2, 8, 23, 165, 90, 83, 153, 90, 165, 3, 94.2228
137, 3, bw, attraction, a-b-db, 14, 2, 8, 23, 165, 90, 83, 153, 90, 165, 1, 0.680581
137, 3, bw, attraction, a-b-da, 14, 2, 8, 24, 165, 90, 90, 165, 153, 83, 2, 1.25097
137, 3, bw, attraction, a-b-da, 14, 2, 8, 24, 165, 90, 90, 165, 153, 83, 3, 0.439985
137, 3, bw, attraction, a-b-db, 9, 3, 8, 25, 120, 195, 114, 186, 195, 120, 1, 1.69171
137, 3, bw, attraction, a-b-db, 9, 3, 8, 25, 120, 195, 114, 186, 195, 120, 2, 0.398523
137, 3, bw, attraction, a-b-da, 5, 2, 8, 26, 90, 165, 161, 88, 165, 90, 2, 1.18037
137, 3, bw, attraction, a-b-da, 5, 2, 8, 26, 90, 165, 161, 88, 165, 90, 1, 0.307866
137, 3, bw, attraction, a-b-da, 2, 2, 8, 27, 163, 89, 165, 90, 90, 165, 3, 1.70914
137, 3, bw, attraction, a-b-da, 2, 2, 8, 27, 163, 89, 165, 90, 90, 165, 1, 0.847169
137, 3, bw, filler, NA, 999, 999, 8, 28, 145, 109, 98, 126, 59, 96, 1, 0.906736
137, 3, bw, filler, NA, 999, 999, 8, 28, 145, 109, 98, 126, 59, 96, 3, 0.621213
137, 3, bw, attraction, a-b-da, 14, 3, 8, 29, 120, 195, 195, 120, 181, 111, 1, 1.9783
137, 3, bw, attraction, a-b-da, 14, 3, 8, 29, 120, 195, 195, 120, 181, 111, 2, 0.481549
137, 3, bw, attraction, a-b-db, 5, 1, 8, 30, 135, 60, 58, 132, 60, 135, 1, 1.68403
137, 3, bw, attraction, a-b-db, 5, 1, 8, 30, 135, 60, 58, 132, 60, 135, 2, 0.423488
137, 3, bw, filler, NA, 999, 999, 8, 31, 141, 57, 61, 150, 138, 157, 3, 1.02806
137, 3, bw, filler, NA, 999, 999, 8, 31, 141, 57, 61, 150, 138, 157, 1, 0.529619
137, 3, bw, attraction, a-b-db, 9, 1, 8, 32, 135, 60, 60, 135, 57, 129, 1, 1.48218
137, 3, bw, attraction, a-b-db, 9, 1, 8, 32, 135, 60, 60, 135, 57, 129, 3, 0.325591
137, 3, bw, attraction, a-b-da, 2, 1, 8, 33, 60, 135, 135, 60, 134, 59, 1, 1.25408
137, 3, bw, attraction, a-b-da, 2, 1, 8, 33, 60, 135, 135, 60, 134, 59, 3, 0.425689
137, 3, bw, attraction, a-b-da, 9, 3, 8, 34, 195, 120, 186, 114, 120, 195, 3, 1.77553
137, 3, bw, attraction, a-b-da, 9, 3, 8, 34, 195, 120, 186, 114, 120, 195, 2, 0.390913
137, 3, bw, attraction, a-b-db, 2, 3, 8, 35, 195, 120, 119, 193, 120, 195, 1, 3.05275
137, 3, bw, attraction, a-b-db, 2, 3, 8, 35, 195, 120, 119, 193, 120, 195, 2, 0.393076
137, 3, bw, filler, NA, 999, 999, 8, 36, 112, 137, 181, 71, 146, 113, 1, 4.72694
137, 3, bw, filler, NA, 999, 999, 8, 36, 112, 137, 181, 71, 146, 113, 2, 0.487537
137, 3, bw, attraction, a-b-da, 5, 1, 8, 37, 132, 58, 135, 60, 60, 135, 2, 3.19383
137, 3, bw, attraction, a-b-da, 5, 1, 8, 37, 132, 58, 135, 60, 60, 135, 1, 0.768246
