sub_n, computer_n, bw_cond, effect, set, distance, diag, block_n, trial_n, h1, w1, h2, w2, h3, w3, choice, rt 
157, 3, bw, practice, NA, 999, 999, 0, 1, 132, 173, 96, 188, 95, 71, 1, 3.13941
157, 3, bw, practice, NA, 999, 999, 0, 1, 132, 173, 96, 188, 95, 71, 3, 2.09198
157, 3, bw, practice, NA, 999, 999, 0, 2, 177, 138, 117, 172, 133, 158, 1, 3.62638
157, 3, bw, practice, NA, 999, 999, 0, 2, 177, 138, 117, 172, 133, 158, 3, 1.76848
157, 3, bw, practice, NA, 999, 999, 0, 3, 187, 139, 155, 172, 131, 120, 1, 1.58569
157, 3, bw, practice, NA, 999, 999, 0, 3, 187, 139, 155, 172, 131, 120, 3, 1.20174
157, 3, bw, filler, NA, 999, 999, 1, 1, 162, 165, 175, 100, 192, 86, 1, 2.3623
157, 3, bw, filler, NA, 999, 999, 1, 1, 162, 165, 175, 100, 192, 86, 3, 0.802761
157, 3, bw, attraction, a-b-db, 5, 1, 1, 2, 58, 132, 135, 60, 60, 135, 1, 4.87189
157, 3, bw, attraction, a-b-db, 5, 1, 1, 2, 58, 132, 135, 60, 60, 135, 2, 2.0663
157, 3, bw, attraction, a-b-da, 14, 3, 1, 3, 195, 120, 120, 195, 181, 111, 2, 2.87706
157, 3, bw, attraction, a-b-da, 14, 3, 1, 3, 195, 120, 120, 195, 181, 111, 3, 2.52022
157, 3, bw, attraction, a-b-da, 14, 1, 1, 4, 125, 56, 135, 60, 60, 135, 3, 2.00851
157, 3, bw, attraction, a-b-da, 14, 1, 1, 4, 125, 56, 135, 60, 60, 135, 2, 0.902549
157, 3, bw, attraction, a-b-da, 2, 1, 1, 5, 135, 60, 60, 135, 134, 59, 3, 2.3602
157, 3, bw, attraction, a-b-da, 2, 1, 1, 5, 135, 60, 60, 135, 134, 59, 2, 1.57619
157, 3, bw, filler, NA, 999, 999, 1, 6, 190, 153, 78, 91, 95, 169, 1, 1.2304
157, 3, bw, filler, NA, 999, 999, 1, 6, 190, 153, 78, 91, 95, 169, 2, 0.907837
157, 3, bw, filler, NA, 999, 999, 1, 7, 168, 86, 97, 92, 150, 179, 3, 1.14886
157, 3, bw, filler, NA, 999, 999, 1, 7, 168, 86, 97, 92, 150, 179, 2, 0.821879
157, 3, bw, attraction, a-b-da, 5, 1, 1, 8, 135, 60, 60, 135, 132, 58, 1, 2.42673
157, 3, bw, attraction, a-b-da, 5, 1, 1, 8, 135, 60, 60, 135, 132, 58, 2, 0.720021
157, 3, bw, attraction, a-b-db, 2, 3, 1, 9, 119, 193, 195, 120, 120, 195, 3, 1.52901
157, 3, bw, attraction, a-b-db, 2, 3, 1, 9, 119, 193, 195, 120, 120, 195, 2, 0.842759
157, 3, bw, attraction, a-b-da, 9, 1, 1, 10, 129, 57, 135, 60, 60, 135, 1, 1.95023
157, 3, bw, attraction, a-b-da, 9, 1, 1, 10, 129, 57, 135, 60, 60, 135, 3, 1.271
157, 3, bw, attraction, a-b-da, 5, 3, 1, 11, 190, 117, 120, 195, 195, 120, 1, 1.00985
157, 3, bw, attraction, a-b-da, 5, 3, 1, 11, 190, 117, 120, 195, 195, 120, 3, 2.11228
157, 3, bw, attraction, a-b-db, 14, 3, 1, 12, 195, 120, 120, 195, 111, 181, 1, 1.32874
157, 3, bw, attraction, a-b-db, 14, 3, 1, 12, 195, 120, 120, 195, 111, 181, 2, 0.474277
157, 3, bw, attraction, a-b-db, 14, 2, 1, 13, 165, 90, 90, 165, 83, 153, 2, 1.22871
157, 3, bw, attraction, a-b-db, 14, 2, 1, 13, 165, 90, 90, 165, 83, 153, 1, 0.298271
157, 3, bw, catch, NA, 999, 999, 1, 14, 95, 160, 64, 131, 166, 149, 3, 0.892325
157, 3, bw, catch, NA, 999, 999, 1, 14, 95, 160, 64, 131, 166, 149, 2, 0.487295
157, 3, bw, attraction, a-b-da, 14, 2, 1, 15, 90, 165, 165, 90, 153, 83, 1, 1.82566
157, 3, bw, attraction, a-b-da, 14, 2, 1, 15, 90, 165, 165, 90, 153, 83, 3, 1.35915
157, 3, bw, filler, NA, 999, 999, 1, 16, 190, 120, 136, 93, 155, 141, 3, 1.89394
157, 3, bw, filler, NA, 999, 999, 1, 16, 190, 120, 136, 93, 155, 141, 2, 0.56073
157, 3, bw, attraction, a-b-db, 9, 3, 1, 17, 195, 120, 114, 186, 120, 195, 1, 1.71976
157, 3, bw, attraction, a-b-db, 9, 3, 1, 17, 195, 120, 114, 186, 120, 195, 2, 0.489962
157, 3, bw, filler, NA, 999, 999, 1, 18, 153, 191, 140, 100, 163, 81, 1, 0.91566
157, 3, bw, filler, NA, 999, 999, 1, 18, 153, 191, 140, 100, 163, 81, 3, 2.71802
157, 3, bw, attraction, a-b-da, 2, 2, 1, 19, 163, 89, 165, 90, 90, 165, 3, 1.02241
157, 3, bw, attraction, a-b-da, 2, 2, 1, 19, 163, 89, 165, 90, 90, 165, 1, 0.580174
157, 3, bw, filler, NA, 999, 999, 1, 20, 188, 147, 149, 180, 150, 101, 2, 1.42643
157, 3, bw, filler, NA, 999, 999, 1, 20, 188, 147, 149, 180, 150, 101, 3, 0.624111
157, 3, bw, attraction, a-b-db, 9, 2, 1, 21, 90, 165, 86, 157, 165, 90, 1, 1.24444
157, 3, bw, attraction, a-b-db, 9, 2, 1, 21, 90, 165, 86, 157, 165, 90, 2, 0.377273
157, 3, bw, attraction, a-b-da, 9, 2, 1, 22, 157, 86, 90, 165, 165, 90, 3, 1.4639
157, 3, bw, attraction, a-b-da, 9, 2, 1, 22, 157, 86, 90, 165, 165, 90, 1, 0.619999
157, 3, bw, attraction, a-b-db, 2, 1, 1, 23, 60, 135, 135, 60, 59, 134, 1, 1.72122
157, 3, bw, attraction, a-b-db, 2, 1, 1, 23, 60, 135, 135, 60, 59, 134, 2, 0.491205
157, 3, bw, attraction, a-b-da, 9, 3, 1, 24, 120, 195, 195, 120, 186, 114, 3, 0.940931
157, 3, bw, attraction, a-b-da, 9, 3, 1, 24, 120, 195, 195, 120, 186, 114, 2, 0.374005
157, 3, bw, filler, NA, 999, 999, 1, 25, 101, 130, 106, 102, 184, 123, 3, 1.03647
157, 3, bw, filler, NA, 999, 999, 1, 25, 101, 130, 106, 102, 184, 123, 2, 0.490235
157, 3, bw, attraction, a-b-da, 5, 2, 1, 26, 165, 90, 161, 88, 90, 165, 1, 1.46003
157, 3, bw, attraction, a-b-da, 5, 2, 1, 26, 165, 90, 161, 88, 90, 165, 2, 0.568056
157, 3, bw, filler, NA, 999, 999, 1, 27, 69, 158, 62, 92, 132, 165, 3, 0.791241
157, 3, bw, filler, NA, 999, 999, 1, 27, 69, 158, 62, 92, 132, 165, 2, 0.502297
157, 3, bw, attraction, a-b-da, 2, 3, 1, 28, 120, 195, 195, 120, 193, 119, 1, 0.871999
157, 3, bw, attraction, a-b-da, 2, 3, 1, 28, 120, 195, 195, 120, 193, 119, 3, 1.08386
157, 3, bw, filler, NA, 999, 999, 1, 29, 112, 159, 112, 90, 75, 157, 1, 0.76606
157, 3, bw, filler, NA, 999, 999, 1, 29, 112, 159, 112, 90, 75, 157, 2, 0.910436
157, 3, bw, filler, NA, 999, 999, 1, 30, 122, 66, 139, 105, 183, 79, 2, 1.3514
157, 3, bw, filler, NA, 999, 999, 1, 30, 122, 66, 139, 105, 183, 79, 1, 0.76034
157, 3, bw, attraction, a-b-db, 5, 3, 1, 31, 195, 120, 120, 195, 117, 190, 2, 0.791399
157, 3, bw, attraction, a-b-db, 5, 3, 1, 31, 195, 120, 120, 195, 117, 190, 1, 0.566522
157, 3, bw, attraction, a-b-db, 9, 1, 1, 32, 135, 60, 60, 135, 57, 129, 2, 1.21353
157, 3, bw, attraction, a-b-db, 9, 1, 1, 32, 135, 60, 60, 135, 57, 129, 1, 0.707774
157, 3, bw, catch, NA, 999, 999, 1, 33, 116, 139, 164, 151, 101, 94, 2, 0.700736
157, 3, bw, catch, NA, 999, 999, 1, 33, 116, 139, 164, 151, 101, 94, 3, 0.583858
157, 3, bw, attraction, a-b-db, 5, 2, 1, 34, 90, 165, 88, 161, 165, 90, 2, 1.42229
157, 3, bw, attraction, a-b-db, 5, 2, 1, 34, 90, 165, 88, 161, 165, 90, 3, 0.65992
157, 3, bw, attraction, a-b-db, 2, 2, 1, 35, 89, 163, 165, 90, 90, 165, 1, 1.04681
157, 3, bw, attraction, a-b-db, 2, 2, 1, 35, 89, 163, 165, 90, 90, 165, 2, 0.947905
157, 3, bw, attraction, a-b-db, 14, 1, 1, 36, 60, 135, 56, 125, 135, 60, 3, 0.891546
157, 3, bw, attraction, a-b-db, 14, 1, 1, 36, 60, 135, 56, 125, 135, 60, 2, 0.326492
157, 3, bw, catch, NA, 999, 999, 1, 37, 113, 82, 192, 123, 149, 106, 2, 0.646951
157, 3, bw, catch, NA, 999, 999, 1, 37, 113, 82, 192, 123, 149, 106, 1, 0.596148
157, 3, bw, attraction, a-b-da, 2, 3, 2, 1, 120, 195, 195, 120, 193, 119, 2, 0.6179
157, 3, bw, attraction, a-b-da, 2, 3, 2, 1, 120, 195, 195, 120, 193, 119, 1, 0.488489
157, 3, bw, attraction, a-b-db, 14, 2, 2, 2, 90, 165, 83, 153, 165, 90, 2, 1.33891
157, 3, bw, attraction, a-b-db, 14, 2, 2, 2, 90, 165, 83, 153, 165, 90, 3, 0.291723
157, 3, bw, attraction, a-b-db, 5, 3, 2, 3, 120, 195, 117, 190, 195, 120, 1, 0.613684
157, 3, bw, attraction, a-b-db, 5, 3, 2, 3, 120, 195, 117, 190, 195, 120, 3, 0.580015
157, 3, bw, attraction, a-b-db, 9, 3, 2, 4, 195, 120, 114, 186, 120, 195, 1, 0.866431
157, 3, bw, attraction, a-b-db, 9, 3, 2, 4, 195, 120, 114, 186, 120, 195, 2, 0.310872
157, 3, bw, attraction, a-b-db, 14, 3, 2, 5, 111, 181, 195, 120, 120, 195, 2, 0.528063
157, 3, bw, attraction, a-b-db, 14, 3, 2, 5, 111, 181, 195, 120, 120, 195, 3, 0.289824
157, 3, bw, attraction, a-b-da, 2, 2, 2, 6, 165, 90, 90, 165, 163, 89, 1, 0.828314
157, 3, bw, attraction, a-b-da, 2, 2, 2, 6, 165, 90, 90, 165, 163, 89, 2, 0.290147
157, 3, bw, filler, NA, 999, 999, 2, 7, 139, 77, 181, 103, 122, 63, 2, 0.77198
157, 3, bw, filler, NA, 999, 999, 2, 7, 139, 77, 181, 103, 122, 63, 3, 0.915576
157, 3, bw, attraction, a-b-da, 14, 2, 2, 8, 90, 165, 165, 90, 153, 83, 2, 1.38857
157, 3, bw, attraction, a-b-da, 14, 2, 2, 8, 90, 165, 165, 90, 153, 83, 1, 0.675529
157, 3, bw, attraction, a-b-db, 9, 1, 2, 9, 60, 135, 57, 129, 135, 60, 2, 0.902046
157, 3, bw, attraction, a-b-db, 9, 1, 2, 9, 60, 135, 57, 129, 135, 60, 3, 0.840805
157, 3, bw, filler, NA, 999, 999, 2, 10, 95, 141, 131, 124, 181, 147, 3, 1.36462
157, 3, bw, filler, NA, 999, 999, 2, 10, 95, 141, 131, 124, 181, 147, 2, 0.2928
157, 3, bw, attraction, a-b-db, 2, 3, 2, 11, 119, 193, 120, 195, 195, 120, 1, 0.590499
157, 3, bw, attraction, a-b-db, 2, 3, 2, 11, 119, 193, 120, 195, 195, 120, 2, 0.477779
157, 3, bw, filler, NA, 999, 999, 2, 12, 194, 183, 195, 168, 137, 124, 1, 0.536194
157, 3, bw, filler, NA, 999, 999, 2, 12, 194, 183, 195, 168, 137, 124, 3, 0.545952
157, 3, bw, attraction, a-b-db, 9, 2, 2, 13, 90, 165, 86, 157, 165, 90, 2, 1.2499
157, 3, bw, attraction, a-b-db, 9, 2, 2, 13, 90, 165, 86, 157, 165, 90, 3, 0.270654
157, 3, bw, catch, NA, 999, 999, 2, 14, 174, 141, 159, 96, 118, 77, 1, 0.506017
157, 3, bw, catch, NA, 999, 999, 2, 14, 174, 141, 159, 96, 118, 77, 3, 0.62846
157, 3, bw, attraction, a-b-da, 5, 3, 2, 15, 195, 120, 120, 195, 190, 117, 1, 0.680694
157, 3, bw, attraction, a-b-da, 5, 3, 2, 15, 195, 120, 120, 195, 190, 117, 2, 0.236448
157, 3, bw, attraction, a-b-da, 14, 1, 2, 16, 135, 60, 60, 135, 125, 56, 1, 0.777062
157, 3, bw, attraction, a-b-da, 14, 1, 2, 16, 135, 60, 60, 135, 125, 56, 2, 0.552796
157, 3, bw, filler, NA, 999, 999, 2, 17, 59, 155, 56, 163, 125, 116, 3, 0.744573
157, 3, bw, filler, NA, 999, 999, 2, 17, 59, 155, 56, 163, 125, 116, 2, 0.41762
157, 3, bw, attraction, a-b-da, 5, 1, 2, 18, 60, 135, 135, 60, 132, 58, 1, 0.5107
157, 3, bw, attraction, a-b-da, 5, 1, 2, 18, 60, 135, 135, 60, 132, 58, 2, 0.961297
157, 3, bw, attraction, a-b-da, 14, 3, 2, 19, 181, 111, 120, 195, 195, 120, 2, 0.704228
157, 3, bw, attraction, a-b-da, 14, 3, 2, 19, 181, 111, 120, 195, 195, 120, 1, 0.315322
157, 3, bw, attraction, a-b-db, 2, 1, 2, 20, 59, 134, 135, 60, 60, 135, 1, 0.716419
157, 3, bw, attraction, a-b-db, 2, 1, 2, 20, 59, 134, 135, 60, 60, 135, 2, 0.511034
157, 3, bw, attraction, a-b-da, 9, 3, 2, 21, 195, 120, 120, 195, 186, 114, 1, 0.567994
157, 3, bw, attraction, a-b-da, 9, 3, 2, 21, 195, 120, 120, 195, 186, 114, 2, 0.248498
157, 3, bw, attraction, a-b-db, 5, 2, 2, 22, 90, 165, 88, 161, 165, 90, 1, 0.460447
157, 3, bw, attraction, a-b-db, 5, 2, 2, 22, 90, 165, 88, 161, 165, 90, 2, 0.857015
157, 3, bw, catch, NA, 999, 999, 2, 23, 73, 122, 105, 150, 169, 146, 3, 1.16384
157, 3, bw, catch, NA, 999, 999, 2, 23, 73, 122, 105, 150, 169, 146, 2, 0.300104
157, 3, bw, attraction, a-b-db, 5, 1, 2, 24, 58, 132, 60, 135, 135, 60, 2, 0.965978
157, 3, bw, attraction, a-b-db, 5, 1, 2, 24, 58, 132, 60, 135, 135, 60, 1, 0.310319
157, 3, bw, attraction, a-b-db, 2, 2, 2, 25, 89, 163, 165, 90, 90, 165, 2, 0.591549
157, 3, bw, attraction, a-b-db, 2, 2, 2, 25, 89, 163, 165, 90, 90, 165, 3, 0.335191
157, 3, bw, attraction, a-b-db, 14, 1, 2, 26, 56, 125, 60, 135, 135, 60, 1, 0.375062
157, 3, bw, attraction, a-b-db, 14, 1, 2, 26, 56, 125, 60, 135, 135, 60, 2, 0.287054
157, 3, bw, filler, NA, 999, 999, 2, 27, 110, 72, 186, 122, 122, 124, 2, 0.721531
157, 3, bw, filler, NA, 999, 999, 2, 27, 110, 72, 186, 122, 122, 124, 3, 0.211429
157, 3, bw, attraction, a-b-da, 5, 2, 2, 28, 165, 90, 90, 165, 161, 88, 1, 0.424393
157, 3, bw, attraction, a-b-da, 5, 2, 2, 28, 165, 90, 90, 165, 161, 88, 2, 0.542851
157, 3, bw, attraction, a-b-da, 9, 1, 2, 29, 135, 60, 60, 135, 129, 57, 1, 0.670007
157, 3, bw, attraction, a-b-da, 9, 1, 2, 29, 135, 60, 60, 135, 129, 57, 2, 0.330444
157, 3, bw, filler, NA, 999, 999, 2, 30, 132, 134, 125, 132, 163, 67, 1, 0.786979
157, 3, bw, filler, NA, 999, 999, 2, 30, 132, 134, 125, 132, 163, 67, 3, 0.450699
157, 3, bw, filler, NA, 999, 999, 2, 31, 112, 79, 93, 175, 110, 179, 3, 0.702462
157, 3, bw, filler, NA, 999, 999, 2, 31, 112, 79, 93, 175, 110, 179, 1, 0.441705
157, 3, bw, filler, NA, 999, 999, 2, 32, 75, 81, 175, 74, 102, 134, 3, 0.741334
157, 3, bw, filler, NA, 999, 999, 2, 32, 75, 81, 175, 74, 102, 134, 1, 0.582522
157, 3, bw, catch, NA, 999, 999, 2, 33, 124, 131, 142, 173, 70, 125, 2, 0.789022
157, 3, bw, catch, NA, 999, 999, 2, 33, 124, 131, 142, 173, 70, 125, 3, 0.2041
157, 3, bw, attraction, a-b-da, 9, 2, 2, 34, 157, 86, 90, 165, 165, 90, 1, 0.633852
157, 3, bw, attraction, a-b-da, 9, 2, 2, 34, 157, 86, 90, 165, 165, 90, 2, 0.687684
157, 3, bw, filler, NA, 999, 999, 2, 35, 96, 121, 163, 151, 93, 183, 2, 0.714115
157, 3, bw, filler, NA, 999, 999, 2, 35, 96, 121, 163, 151, 93, 183, 1, 0.612525
157, 3, bw, filler, NA, 999, 999, 2, 36, 56, 59, 165, 109, 143, 124, 3, 0.617555
157, 3, bw, filler, NA, 999, 999, 2, 36, 56, 59, 165, 109, 143, 124, 1, 1.48828
157, 3, bw, attraction, a-b-da, 2, 1, 2, 37, 135, 60, 134, 59, 60, 135, 1, 1.13006
157, 3, bw, attraction, a-b-da, 2, 1, 2, 37, 135, 60, 134, 59, 60, 135, 3, 0.611795
157, 3, bw, attraction, a-b-da, 9, 1, 3, 1, 129, 57, 135, 60, 60, 135, 1, 0.608758
157, 3, bw, attraction, a-b-da, 9, 1, 3, 1, 129, 57, 135, 60, 60, 135, 2, 0.639248
157, 3, bw, attraction, a-b-db, 14, 2, 3, 2, 90, 165, 83, 153, 165, 90, 1, 0.771613
157, 3, bw, attraction, a-b-db, 14, 2, 3, 2, 90, 165, 83, 153, 165, 90, 3, 0.307349
157, 3, bw, attraction, a-b-db, 9, 1, 3, 3, 60, 135, 135, 60, 57, 129, 1, 0.572653
157, 3, bw, attraction, a-b-db, 9, 1, 3, 3, 60, 135, 135, 60, 57, 129, 2, 0.412502
157, 3, bw, catch, NA, 999, 999, 3, 4, 95, 100, 170, 145, 146, 109, 2, 0.969566
157, 3, bw, catch, NA, 999, 999, 3, 4, 95, 100, 170, 145, 146, 109, 1, 0.761974
157, 3, bw, filler, NA, 999, 999, 3, 5, 160, 58, 103, 70, 113, 73, 1, 0.880956
157, 3, bw, filler, NA, 999, 999, 3, 5, 160, 58, 103, 70, 113, 73, 2, 0.756688
157, 3, bw, filler, NA, 999, 999, 3, 6, 68, 141, 129, 73, 127, 178, 3, 0.555671
157, 3, bw, filler, NA, 999, 999, 3, 6, 68, 141, 129, 73, 127, 178, 2, 0.604129
157, 3, bw, attraction, a-b-da, 5, 3, 3, 7, 120, 195, 190, 117, 195, 120, 1, 0.561838
157, 3, bw, attraction, a-b-da, 5, 3, 3, 7, 120, 195, 190, 117, 195, 120, 3, 0.2825
157, 3, bw, filler, NA, 999, 999, 3, 8, 178, 172, 90, 78, 129, 139, 1, 0.476818
157, 3, bw, filler, NA, 999, 999, 3, 8, 178, 172, 90, 78, 129, 139, 2, 0.536663
157, 3, bw, attraction, a-b-db, 2, 2, 3, 9, 165, 90, 89, 163, 90, 165, 2, 0.721038
157, 3, bw, attraction, a-b-db, 2, 2, 3, 9, 165, 90, 89, 163, 90, 165, 1, 0.354855
157, 3, bw, attraction, a-b-da, 2, 3, 3, 10, 193, 119, 195, 120, 120, 195, 2, 0.498669
157, 3, bw, attraction, a-b-da, 2, 3, 3, 10, 193, 119, 195, 120, 120, 195, 1, 0.501831
157, 3, bw, filler, NA, 999, 999, 3, 11, 194, 192, 69, 194, 188, 170, 1, 0.639713
157, 3, bw, filler, NA, 999, 999, 3, 11, 194, 192, 69, 194, 188, 170, 2, 0.268658
157, 3, bw, filler, NA, 999, 999, 3, 12, 161, 161, 93, 91, 174, 155, 1, 0.591828
157, 3, bw, filler, NA, 999, 999, 3, 12, 161, 161, 93, 91, 174, 155, 2, 0.511188
157, 3, bw, attraction, a-b-db, 14, 3, 3, 13, 195, 120, 111, 181, 120, 195, 1, 0.384092
157, 3, bw, attraction, a-b-db, 14, 3, 3, 13, 195, 120, 111, 181, 120, 195, 2, 0.304017
157, 3, bw, attraction, a-b-da, 5, 2, 3, 14, 161, 88, 165, 90, 90, 165, 1, 0.465781
157, 3, bw, attraction, a-b-da, 5, 2, 3, 14, 161, 88, 165, 90, 90, 165, 2, 0.294438
157, 3, bw, filler, NA, 999, 999, 3, 15, 191, 125, 182, 130, 169, 128, 1, 0.672165
157, 3, bw, filler, NA, 999, 999, 3, 15, 191, 125, 182, 130, 169, 128, 2, 0.259926
157, 3, bw, attraction, a-b-da, 9, 3, 3, 16, 120, 195, 186, 114, 195, 120, 1, 0.519209
157, 3, bw, attraction, a-b-da, 9, 3, 3, 16, 120, 195, 186, 114, 195, 120, 2, 0.321595
157, 3, bw, attraction, a-b-db, 2, 1, 3, 17, 135, 60, 60, 135, 59, 134, 2, 0.986844
157, 3, bw, attraction, a-b-db, 2, 1, 3, 17, 135, 60, 60, 135, 59, 134, 1, 0.554426
157, 3, bw, attraction, a-b-da, 2, 2, 3, 18, 165, 90, 90, 165, 163, 89, 1, 1.16223
157, 3, bw, attraction, a-b-da, 2, 2, 3, 18, 165, 90, 90, 165, 163, 89, 2, 0.994479
157, 3, bw, catch, NA, 999, 999, 3, 19, 68, 127, 136, 179, 109, 146, 2, 0.608253
157, 3, bw, catch, NA, 999, 999, 3, 19, 68, 127, 136, 179, 109, 146, 1, 0.254586
157, 3, bw, attraction, a-b-da, 14, 3, 3, 20, 120, 195, 195, 120, 181, 111, 1, 0.922426
157, 3, bw, attraction, a-b-da, 14, 3, 3, 20, 120, 195, 195, 120, 181, 111, 2, 0.300136
157, 3, bw, attraction, a-b-db, 14, 1, 3, 21, 60, 135, 135, 60, 56, 125, 1, 0.63799
157, 3, bw, attraction, a-b-db, 14, 1, 3, 21, 60, 135, 135, 60, 56, 125, 2, 0.755158
157, 3, bw, attraction, a-b-db, 5, 3, 3, 22, 195, 120, 117, 190, 120, 195, 1, 0.482811
157, 3, bw, attraction, a-b-db, 5, 3, 3, 22, 195, 120, 117, 190, 120, 195, 2, 0.302564
157, 3, bw, catch, NA, 999, 999, 3, 23, 163, 152, 91, 104, 155, 100, 1, 0.4085
157, 3, bw, catch, NA, 999, 999, 3, 23, 163, 152, 91, 104, 155, 100, 2, 0.310961
157, 3, bw, attraction, a-b-db, 5, 2, 3, 24, 90, 165, 88, 161, 165, 90, 1, 0.512105
157, 3, bw, attraction, a-b-db, 5, 2, 3, 24, 90, 165, 88, 161, 165, 90, 2, 0.290567
157, 3, bw, attraction, a-b-da, 5, 1, 3, 25, 60, 135, 132, 58, 135, 60, 1, 0.532449
157, 3, bw, attraction, a-b-da, 5, 1, 3, 25, 60, 135, 132, 58, 135, 60, 2, 0.286303
157, 3, bw, attraction, a-b-da, 14, 1, 3, 26, 135, 60, 125, 56, 60, 135, 1, 0.600843
157, 3, bw, attraction, a-b-da, 14, 1, 3, 26, 135, 60, 125, 56, 60, 135, 2, 0.552044
157, 3, bw, attraction, a-b-db, 2, 3, 3, 27, 120, 195, 195, 120, 119, 193, 1, 0.55179
157, 3, bw, attraction, a-b-db, 2, 3, 3, 27, 120, 195, 195, 120, 119, 193, 2, 0.312956
157, 3, bw, attraction, a-b-db, 9, 2, 3, 28, 165, 90, 90, 165, 86, 157, 1, 0.449925
157, 3, bw, attraction, a-b-db, 9, 2, 3, 28, 165, 90, 90, 165, 86, 157, 2, 0.559213
157, 3, bw, attraction, a-b-db, 9, 3, 3, 29, 120, 195, 114, 186, 195, 120, 1, 0.430312
157, 3, bw, attraction, a-b-db, 9, 3, 3, 29, 120, 195, 114, 186, 195, 120, 2, 0.460212
157, 3, bw, filler, NA, 999, 999, 3, 30, 179, 149, 163, 101, 100, 148, 1, 0.351267
157, 3, bw, filler, NA, 999, 999, 3, 30, 179, 149, 163, 101, 100, 148, 2, 0.496475
157, 3, bw, attraction, a-b-db, 5, 1, 3, 31, 60, 135, 135, 60, 58, 132, 1, 0.602273
157, 3, bw, attraction, a-b-db, 5, 1, 3, 31, 60, 135, 135, 60, 58, 132, 2, 0.441475
157, 3, bw, attraction, a-b-da, 14, 2, 3, 32, 165, 90, 90, 165, 153, 83, 2, 0.909255
157, 3, bw, attraction, a-b-da, 14, 2, 3, 32, 165, 90, 90, 165, 153, 83, 1, 0.535535
157, 3, bw, filler, NA, 999, 999, 3, 33, 164, 123, 155, 103, 192, 167, 3, 0.37604
157, 3, bw, filler, NA, 999, 999, 3, 33, 164, 123, 155, 103, 192, 167, 2, 0.399849
157, 3, bw, attraction, a-b-da, 9, 2, 3, 34, 157, 86, 165, 90, 90, 165, 1, 0.70165
157, 3, bw, attraction, a-b-da, 9, 2, 3, 34, 157, 86, 165, 90, 90, 165, 2, 0.256764
157, 3, bw, filler, NA, 999, 999, 3, 35, 143, 180, 193, 79, 193, 80, 1, 0.916034
157, 3, bw, filler, NA, 999, 999, 3, 35, 143, 180, 193, 79, 193, 80, 3, 0.566283
157, 3, bw, attraction, a-b-da, 2, 1, 3, 36, 134, 59, 60, 135, 135, 60, 3, 1.94141
157, 3, bw, attraction, a-b-da, 2, 1, 3, 36, 134, 59, 60, 135, 135, 60, 2, 1.44607
157, 3, bw, filler, NA, 999, 999, 3, 37, 116, 78, 127, 90, 104, 120, 1, 1.08959
157, 3, bw, filler, NA, 999, 999, 3, 37, 116, 78, 127, 90, 104, 120, 2, 1.12459
157, 3, bw, attraction, a-b-da, 14, 1, 4, 1, 125, 56, 60, 135, 135, 60, 2, 1.10872
157, 3, bw, attraction, a-b-da, 14, 1, 4, 1, 125, 56, 60, 135, 135, 60, 1, 0.42314
157, 3, bw, attraction, a-b-da, 9, 3, 4, 2, 195, 120, 186, 114, 120, 195, 1, 0.940286
157, 3, bw, attraction, a-b-da, 9, 3, 4, 2, 195, 120, 186, 114, 120, 195, 2, 0.213198
157, 3, bw, attraction, a-b-da, 2, 1, 4, 3, 135, 60, 134, 59, 60, 135, 3, 0.57854
157, 3, bw, attraction, a-b-da, 2, 1, 4, 3, 135, 60, 134, 59, 60, 135, 2, 0.314279
157, 3, bw, attraction, a-b-da, 9, 2, 4, 4, 157, 86, 165, 90, 90, 165, 1, 0.875421
157, 3, bw, attraction, a-b-da, 9, 2, 4, 4, 157, 86, 165, 90, 90, 165, 2, 0.263088
157, 3, bw, filler, NA, 999, 999, 4, 5, 69, 112, 163, 179, 159, 181, 3, 0.47434
157, 3, bw, filler, NA, 999, 999, 4, 5, 69, 112, 163, 179, 159, 181, 1, 0.342098
157, 3, bw, attraction, a-b-db, 5, 2, 4, 6, 90, 165, 88, 161, 165, 90, 3, 0.46212
157, 3, bw, attraction, a-b-db, 5, 2, 4, 6, 90, 165, 88, 161, 165, 90, 1, 0.714491
157, 3, bw, attraction, a-b-da, 2, 2, 4, 7, 90, 165, 165, 90, 163, 89, 3, 0.435623
157, 3, bw, attraction, a-b-da, 2, 2, 4, 7, 90, 165, 165, 90, 163, 89, 2, 0.441479
157, 3, bw, attraction, a-b-db, 14, 2, 4, 8, 83, 153, 90, 165, 165, 90, 1, 0.309211
157, 3, bw, attraction, a-b-db, 14, 2, 4, 8, 83, 153, 90, 165, 165, 90, 2, 0.295675
157, 3, bw, filler, NA, 999, 999, 4, 9, 125, 109, 194, 125, 75, 86, 2, 0.721498
157, 3, bw, filler, NA, 999, 999, 4, 9, 125, 109, 194, 125, 75, 86, 3, 0.619307
157, 3, bw, attraction, a-b-db, 14, 3, 4, 10, 195, 120, 111, 181, 120, 195, 1, 0.440417
157, 3, bw, attraction, a-b-db, 14, 3, 4, 10, 195, 120, 111, 181, 120, 195, 2, 0.565507
157, 3, bw, filler, NA, 999, 999, 4, 11, 113, 157, 100, 178, 146, 176, 2, 0.500558
157, 3, bw, filler, NA, 999, 999, 4, 11, 113, 157, 100, 178, 146, 176, 1, 1.9358
157, 3, bw, filler, NA, 999, 999, 4, 12, 77, 63, 137, 172, 60, 136, 2, 0.959916
157, 3, bw, filler, NA, 999, 999, 4, 12, 77, 63, 137, 172, 60, 136, 1, 0.688103
157, 3, bw, attraction, a-b-db, 5, 1, 4, 13, 135, 60, 58, 132, 60, 135, 1, 1.1545
157, 3, bw, attraction, a-b-db, 5, 1, 4, 13, 135, 60, 58, 132, 60, 135, 2, 0.819509
157, 3, bw, attraction, a-b-db, 9, 2, 4, 14, 90, 165, 86, 157, 165, 90, 3, 6.16068
157, 3, bw, attraction, a-b-db, 9, 2, 4, 14, 90, 165, 86, 157, 165, 90, 2, 0.463177
157, 3, bw, attraction, a-b-da, 5, 3, 4, 15, 195, 120, 120, 195, 190, 117, 2, 1.0743
157, 3, bw, attraction, a-b-da, 5, 3, 4, 15, 195, 120, 120, 195, 190, 117, 1, 0.573869
157, 3, bw, catch, NA, 999, 999, 4, 16, 116, 79, 145, 170, 102, 153, 2, 0.59639
157, 3, bw, catch, NA, 999, 999, 4, 16, 116, 79, 145, 170, 102, 153, 1, 0.395446
157, 3, bw, attraction, a-b-db, 9, 3, 4, 17, 114, 186, 120, 195, 195, 120, 2, 2.00133
157, 3, bw, attraction, a-b-db, 9, 3, 4, 17, 114, 186, 120, 195, 195, 120, 1, 0.303982
157, 3, bw, attraction, a-b-db, 2, 3, 4, 18, 119, 193, 195, 120, 120, 195, 1, 0.681852
157, 3, bw, attraction, a-b-db, 2, 3, 4, 18, 119, 193, 195, 120, 120, 195, 2, 0.253546
157, 3, bw, filler, NA, 999, 999, 4, 19, 154, 148, 163, 81, 124, 168, 1, 0.809482
157, 3, bw, filler, NA, 999, 999, 4, 19, 154, 148, 163, 81, 124, 168, 2, 0.543854
157, 3, bw, attraction, a-b-da, 14, 2, 4, 20, 165, 90, 90, 165, 153, 83, 1, 0.503617
157, 3, bw, attraction, a-b-da, 14, 2, 4, 20, 165, 90, 90, 165, 153, 83, 2, 0.442828
157, 3, bw, attraction, a-b-db, 14, 1, 4, 21, 60, 135, 135, 60, 56, 125, 1, 0.440219
157, 3, bw, attraction, a-b-db, 14, 1, 4, 21, 60, 135, 135, 60, 56, 125, 2, 0.755789
157, 3, bw, filler, NA, 999, 999, 4, 22, 90, 88, 58, 139, 175, 110, 3, 1.06746
157, 3, bw, filler, NA, 999, 999, 4, 22, 90, 88, 58, 139, 175, 110, 1, 0.887801
157, 3, bw, filler, NA, 999, 999, 4, 23, 58, 75, 159, 64, 178, 162, 3, 0.802095
157, 3, bw, filler, NA, 999, 999, 4, 23, 58, 75, 159, 64, 178, 162, 1, 1.01715
157, 3, bw, attraction, a-b-da, 2, 3, 4, 24, 120, 195, 193, 119, 195, 120, 1, 0.790094
157, 3, bw, attraction, a-b-da, 2, 3, 4, 24, 120, 195, 193, 119, 195, 120, 2, 0.365131
157, 3, bw, attraction, a-b-da, 14, 3, 4, 25, 195, 120, 181, 111, 120, 195, 1, 0.420281
157, 3, bw, attraction, a-b-da, 14, 3, 4, 25, 195, 120, 181, 111, 120, 195, 3, 0.426958
157, 3, bw, attraction, a-b-db, 2, 2, 4, 26, 165, 90, 89, 163, 90, 165, 1, 0.567301
157, 3, bw, attraction, a-b-db, 2, 2, 4, 26, 165, 90, 89, 163, 90, 165, 2, 0.367754
157, 3, bw, attraction, a-b-db, 2, 1, 4, 27, 60, 135, 135, 60, 59, 134, 1, 0.766892
157, 3, bw, attraction, a-b-db, 2, 1, 4, 27, 60, 135, 135, 60, 59, 134, 2, 0.383311
157, 3, bw, filler, NA, 999, 999, 4, 28, 75, 124, 124, 182, 120, 71, 2, 0.573771
157, 3, bw, filler, NA, 999, 999, 4, 28, 75, 124, 124, 182, 120, 71, 1, 1.94158
157, 3, bw, attraction, a-b-da, 9, 1, 4, 29, 129, 57, 60, 135, 135, 60, 1, 0.773151
157, 3, bw, attraction, a-b-da, 9, 1, 4, 29, 129, 57, 60, 135, 135, 60, 2, 0.236824
157, 3, bw, attraction, a-b-da, 5, 2, 4, 30, 161, 88, 90, 165, 165, 90, 1, 0.985217
157, 3, bw, attraction, a-b-da, 5, 2, 4, 30, 161, 88, 90, 165, 165, 90, 2, 0.304834
157, 3, bw, catch, NA, 999, 999, 4, 31, 145, 170, 126, 69, 146, 109, 1, 0.402675
157, 3, bw, catch, NA, 999, 999, 4, 31, 145, 170, 126, 69, 146, 109, 2, 0.353926
157, 3, bw, filler, NA, 999, 999, 4, 32, 190, 177, 172, 190, 132, 134, 1, 0.433779
157, 3, bw, filler, NA, 999, 999, 4, 32, 190, 177, 172, 190, 132, 134, 3, 0.775837
157, 3, bw, filler, NA, 999, 999, 4, 33, 176, 84, 139, 149, 155, 189, 3, 1.91798
157, 3, bw, filler, NA, 999, 999, 4, 33, 176, 84, 139, 149, 155, 189, 2, 2.12805
157, 3, bw, attraction, a-b-da, 5, 1, 4, 34, 132, 58, 135, 60, 60, 135, 1, 0.759961
157, 3, bw, attraction, a-b-da, 5, 1, 4, 34, 132, 58, 135, 60, 60, 135, 3, 0.768378
157, 3, bw, catch, NA, 999, 999, 4, 35, 130, 185, 60, 135, 121, 134, 1, 0.799516
157, 3, bw, catch, NA, 999, 999, 4, 35, 130, 185, 60, 135, 121, 134, 2, 1.02244
157, 3, bw, attraction, a-b-db, 5, 3, 4, 36, 117, 190, 120, 195, 195, 120, 1, 0.883357
157, 3, bw, attraction, a-b-db, 5, 3, 4, 36, 117, 190, 120, 195, 195, 120, 3, 0.671079
157, 3, bw, attraction, a-b-db, 9, 1, 4, 37, 57, 129, 60, 135, 135, 60, 3, 1.12223
157, 3, bw, attraction, a-b-db, 9, 1, 4, 37, 57, 129, 60, 135, 135, 60, 2, 0.363749
157, 3, bw, filler, NA, 999, 999, 5, 1, 58, 159, 153, 152, 101, 185, 2, 2.83367
157, 3, bw, filler, NA, 999, 999, 5, 1, 58, 159, 153, 152, 101, 185, 1, 0.542762
157, 3, bw, catch, NA, 999, 999, 5, 2, 95, 100, 145, 110, 156, 159, 3, 0.750524
157, 3, bw, catch, NA, 999, 999, 5, 2, 95, 100, 145, 110, 156, 159, 1, 0.871529
157, 3, bw, filler, NA, 999, 999, 5, 3, 161, 62, 115, 62, 123, 64, 1, 0.754676
157, 3, bw, filler, NA, 999, 999, 5, 3, 161, 62, 115, 62, 123, 64, 2, 1.01206
157, 3, bw, attraction, a-b-db, 14, 1, 5, 4, 60, 135, 135, 60, 56, 125, 1, 1.27256
157, 3, bw, attraction, a-b-db, 14, 1, 5, 4, 60, 135, 135, 60, 56, 125, 2, 0.652123
157, 3, bw, filler, NA, 999, 999, 5, 5, 116, 181, 195, 64, 132, 70, 1, 0.527888
157, 3, bw, filler, NA, 999, 999, 5, 5, 116, 181, 195, 64, 132, 70, 3, 0.497589
157, 3, bw, attraction, a-b-db, 14, 2, 5, 6, 90, 165, 83, 153, 165, 90, 3, 0.883501
157, 3, bw, attraction, a-b-db, 14, 2, 5, 6, 90, 165, 83, 153, 165, 90, 2, 0.559151
157, 3, bw, attraction, a-b-da, 9, 3, 5, 7, 186, 114, 195, 120, 120, 195, 2, 0.726252
157, 3, bw, attraction, a-b-da, 9, 3, 5, 7, 186, 114, 195, 120, 120, 195, 3, 0.271994
157, 3, bw, attraction, a-b-da, 14, 3, 5, 8, 195, 120, 120, 195, 181, 111, 2, 0.771115
157, 3, bw, attraction, a-b-da, 14, 3, 5, 8, 195, 120, 120, 195, 181, 111, 1, 0.291618
157, 3, bw, catch, NA, 999, 999, 5, 9, 160, 95, 129, 66, 131, 184, 1, 0.749397
157, 3, bw, catch, NA, 999, 999, 5, 9, 160, 95, 129, 66, 131, 184, 2, 0.854657
157, 3, bw, filler, NA, 999, 999, 5, 10, 63, 143, 119, 115, 153, 180, 3, 0.658166
157, 3, bw, filler, NA, 999, 999, 5, 10, 63, 143, 119, 115, 153, 180, 2, 0.52671
157, 3, bw, attraction, a-b-da, 14, 1, 5, 11, 125, 56, 60, 135, 135, 60, 1, 0.711058
157, 3, bw, attraction, a-b-da, 14, 1, 5, 11, 125, 56, 60, 135, 135, 60, 2, 0.913535
157, 3, bw, filler, NA, 999, 999, 5, 12, 192, 88, 151, 99, 147, 59, 1, 2.13044
157, 3, bw, filler, NA, 999, 999, 5, 12, 192, 88, 151, 99, 147, 59, 3, 0.803858
157, 3, bw, attraction, a-b-da, 5, 2, 5, 13, 90, 165, 161, 88, 165, 90, 3, 1.32948
157, 3, bw, attraction, a-b-da, 5, 2, 5, 13, 90, 165, 161, 88, 165, 90, 1, 0.45108
157, 3, bw, filler, NA, 999, 999, 5, 14, 62, 185, 188, 140, 179, 74, 2, 0.42285
157, 3, bw, filler, NA, 999, 999, 5, 14, 62, 185, 188, 140, 179, 74, 1, 1.00475
157, 3, bw, attraction, a-b-db, 2, 3, 5, 15, 120, 195, 119, 193, 195, 120, 2, 0.930331
157, 3, bw, attraction, a-b-db, 2, 3, 5, 15, 120, 195, 119, 193, 195, 120, 1, 0.700003
157, 3, bw, attraction, a-b-db, 5, 2, 5, 16, 90, 165, 165, 90, 88, 161, 3, 0.741696
157, 3, bw, attraction, a-b-db, 5, 2, 5, 16, 90, 165, 165, 90, 88, 161, 1, 0.446749
157, 3, bw, attraction, a-b-da, 5, 3, 5, 17, 120, 195, 195, 120, 190, 117, 2, 0.402563
157, 3, bw, attraction, a-b-da, 5, 3, 5, 17, 120, 195, 195, 120, 190, 117, 1, 0.793762
157, 3, bw, attraction, a-b-db, 2, 1, 5, 18, 59, 134, 60, 135, 135, 60, 3, 1.13551
157, 3, bw, attraction, a-b-db, 2, 1, 5, 18, 59, 134, 60, 135, 135, 60, 2, 0.273058
157, 3, bw, filler, NA, 999, 999, 5, 19, 192, 99, 127, 129, 114, 160, 2, 0.868217
157, 3, bw, filler, NA, 999, 999, 5, 19, 192, 99, 127, 129, 114, 160, 1, 1.28862
157, 3, bw, filler, NA, 999, 999, 5, 20, 142, 195, 123, 118, 108, 67, 1, 0.73886
157, 3, bw, filler, NA, 999, 999, 5, 20, 142, 195, 123, 118, 108, 67, 3, 0.932033
157, 3, bw, attraction, a-b-da, 2, 2, 5, 21, 90, 165, 163, 89, 165, 90, 3, 0.932205
157, 3, bw, attraction, a-b-da, 2, 2, 5, 21, 90, 165, 163, 89, 165, 90, 1, 0.32585
157, 3, bw, attraction, a-b-db, 9, 3, 5, 22, 195, 120, 114, 186, 120, 195, 2, 2.47046
157, 3, bw, attraction, a-b-db, 9, 3, 5, 22, 195, 120, 114, 186, 120, 195, 1, 0.546403
157, 3, bw, attraction, a-b-da, 9, 2, 5, 23, 165, 90, 157, 86, 90, 165, 1, 0.80214
157, 3, bw, attraction, a-b-da, 9, 2, 5, 23, 165, 90, 157, 86, 90, 165, 2, 0.529121
157, 3, bw, attraction, a-b-da, 2, 3, 5, 24, 195, 120, 120, 195, 193, 119, 2, 0.617544
157, 3, bw, attraction, a-b-da, 2, 3, 5, 24, 195, 120, 120, 195, 193, 119, 1, 0.608009
157, 3, bw, catch, NA, 999, 999, 5, 25, 107, 148, 185, 130, 109, 86, 2, 0.661178
157, 3, bw, catch, NA, 999, 999, 5, 25, 107, 148, 185, 130, 109, 86, 3, 0.409654
157, 3, bw, attraction, a-b-db, 9, 2, 5, 26, 86, 157, 165, 90, 90, 165, 1, 0.574645
157, 3, bw, attraction, a-b-db, 9, 2, 5, 26, 86, 157, 165, 90, 90, 165, 2, 0.246484
157, 3, bw, attraction, a-b-da, 14, 2, 5, 27, 165, 90, 90, 165, 153, 83, 2, 0.562332
157, 3, bw, attraction, a-b-da, 14, 2, 5, 27, 165, 90, 90, 165, 153, 83, 1, 0.306738
157, 3, bw, attraction, a-b-da, 2, 1, 5, 28, 135, 60, 60, 135, 134, 59, 1, 0.875977
157, 3, bw, attraction, a-b-da, 2, 1, 5, 28, 135, 60, 60, 135, 134, 59, 2, 0.575762
157, 3, bw, filler, NA, 999, 999, 5, 29, 104, 119, 184, 183, 170, 99, 2, 0.486209
157, 3, bw, filler, NA, 999, 999, 5, 29, 104, 119, 184, 183, 170, 99, 1, 0.538042
157, 3, bw, attraction, a-b-db, 2, 2, 5, 30, 90, 165, 89, 163, 165, 90, 2, 0.418535
157, 3, bw, attraction, a-b-db, 2, 2, 5, 30, 90, 165, 89, 163, 165, 90, 1, 0.544858
157, 3, bw, attraction, a-b-db, 5, 1, 5, 31, 135, 60, 60, 135, 58, 132, 1, 0.872578
157, 3, bw, attraction, a-b-db, 5, 1, 5, 31, 135, 60, 60, 135, 58, 132, 2, 0.340418
157, 3, bw, attraction, a-b-db, 5, 3, 5, 32, 117, 190, 120, 195, 195, 120, 2, 0.460185
157, 3, bw, attraction, a-b-db, 5, 3, 5, 32, 117, 190, 120, 195, 195, 120, 1, 0.464732
157, 3, bw, attraction, a-b-da, 5, 1, 5, 33, 132, 58, 60, 135, 135, 60, 2, 0.659856
157, 3, bw, attraction, a-b-da, 5, 1, 5, 33, 132, 58, 60, 135, 135, 60, 1, 0.440392
157, 3, bw, attraction, a-b-db, 9, 1, 5, 34, 57, 129, 135, 60, 60, 135, 1, 0.852034
157, 3, bw, attraction, a-b-db, 9, 1, 5, 34, 57, 129, 135, 60, 60, 135, 2, 0.321104
157, 3, bw, filler, NA, 999, 999, 5, 35, 152, 146, 64, 76, 100, 176, 1, 0.610249
157, 3, bw, filler, NA, 999, 999, 5, 35, 152, 146, 64, 76, 100, 176, 2, 0.408709
157, 3, bw, attraction, a-b-da, 9, 1, 5, 36, 135, 60, 129, 57, 60, 135, 1, 0.421931
157, 3, bw, attraction, a-b-da, 9, 1, 5, 36, 135, 60, 129, 57, 60, 135, 2, 0.267681
157, 3, bw, attraction, a-b-db, 14, 3, 5, 37, 120, 195, 195, 120, 111, 181, 1, 0.550845
157, 3, bw, attraction, a-b-db, 14, 3, 5, 37, 120, 195, 195, 120, 111, 181, 2, 0.264047
157, 3, bw, filler, NA, 999, 999, 6, 1, 125, 100, 160, 90, 167, 57, 2, 0.915197
157, 3, bw, filler, NA, 999, 999, 6, 1, 125, 100, 160, 90, 167, 57, 1, 0.757659
157, 3, bw, attraction, a-b-da, 5, 2, 6, 2, 90, 165, 165, 90, 161, 88, 2, 1.04458
157, 3, bw, attraction, a-b-da, 5, 2, 6, 2, 90, 165, 165, 90, 161, 88, 1, 0.513647
157, 3, bw, attraction, a-b-da, 14, 3, 6, 3, 181, 111, 195, 120, 120, 195, 3, 1.36281
157, 3, bw, attraction, a-b-da, 14, 3, 6, 3, 181, 111, 195, 120, 120, 195, 2, 0.762978
157, 3, bw, catch, NA, 999, 999, 6, 4, 140, 175, 130, 125, 74, 121, 2, 0.521949
157, 3, bw, catch, NA, 999, 999, 6, 4, 140, 175, 130, 125, 74, 121, 3, 0.619902
157, 3, bw, attraction, a-b-da, 2, 2, 6, 5, 163, 89, 90, 165, 165, 90, 2, 0.712776
157, 3, bw, attraction, a-b-da, 2, 2, 6, 5, 163, 89, 90, 165, 165, 90, 1, 1.0192
157, 3, bw, attraction, a-b-db, 2, 1, 6, 6, 60, 135, 59, 134, 135, 60, 2, 0.624207
157, 3, bw, attraction, a-b-db, 2, 1, 6, 6, 60, 135, 59, 134, 135, 60, 1, 0.629996
157, 3, bw, attraction, a-b-db, 14, 1, 6, 7, 56, 125, 135, 60, 60, 135, 1, 0.922347
157, 3, bw, attraction, a-b-db, 14, 1, 6, 7, 56, 125, 135, 60, 60, 135, 2, 0.652149
157, 3, bw, attraction, a-b-db, 2, 3, 6, 8, 120, 195, 195, 120, 119, 193, 1, 0.903806
157, 3, bw, attraction, a-b-db, 2, 3, 6, 8, 120, 195, 195, 120, 119, 193, 2, 1.6029
157, 3, bw, filler, NA, 999, 999, 6, 9, 187, 61, 192, 169, 131, 106, 2, 0.832297
157, 3, bw, filler, NA, 999, 999, 6, 9, 187, 61, 192, 169, 131, 106, 3, 0.493937
157, 3, bw, attraction, a-b-db, 5, 2, 6, 10, 165, 90, 90, 165, 88, 161, 2, 0.783745
157, 3, bw, attraction, a-b-db, 5, 2, 6, 10, 165, 90, 90, 165, 88, 161, 3, 0.631536
157, 3, bw, attraction, a-b-da, 9, 1, 6, 11, 129, 57, 60, 135, 135, 60, 2, 0.61191
157, 3, bw, attraction, a-b-da, 9, 1, 6, 11, 129, 57, 60, 135, 135, 60, 1, 0.354468
157, 3, bw, filler, NA, 999, 999, 6, 12, 88, 81, 173, 89, 139, 171, 3, 0.98619
157, 3, bw, filler, NA, 999, 999, 6, 12, 88, 81, 173, 89, 139, 171, 1, 0.68989
157, 3, bw, catch, NA, 999, 999, 6, 13, 79, 116, 189, 126, 114, 141, 2, 2.12431
157, 3, bw, catch, NA, 999, 999, 6, 13, 79, 116, 189, 126, 114, 141, 1, 0.773588
157, 3, bw, attraction, a-b-db, 14, 3, 6, 14, 195, 120, 111, 181, 120, 195, 1, 1.7639
157, 3, bw, attraction, a-b-db, 14, 3, 6, 14, 195, 120, 111, 181, 120, 195, 2, 1.12414
157, 3, bw, catch, NA, 999, 999, 6, 15, 183, 132, 121, 134, 133, 62, 1, 0.756266
157, 3, bw, catch, NA, 999, 999, 6, 15, 183, 132, 121, 134, 133, 62, 3, 0.652624
157, 3, bw, attraction, a-b-da, 5, 3, 6, 16, 195, 120, 190, 117, 120, 195, 2, 0.776495
157, 3, bw, attraction, a-b-da, 5, 3, 6, 16, 195, 120, 190, 117, 120, 195, 1, 0.528157
157, 3, bw, attraction, a-b-da, 5, 1, 6, 17, 132, 58, 135, 60, 60, 135, 2, 0.560571
157, 3, bw, attraction, a-b-da, 5, 1, 6, 17, 132, 58, 135, 60, 60, 135, 1, 0.65709
157, 3, bw, filler, NA, 999, 999, 6, 18, 176, 94, 151, 182, 141, 127, 2, 0.396135
157, 3, bw, filler, NA, 999, 999, 6, 18, 176, 94, 151, 182, 141, 127, 1, 2.04333
157, 3, bw, filler, NA, 999, 999, 6, 19, 149, 143, 82, 176, 69, 124, 1, 0.790559
157, 3, bw, filler, NA, 999, 999, 6, 19, 149, 143, 82, 176, 69, 124, 3, 0.653668
157, 3, bw, attraction, a-b-db, 14, 2, 6, 20, 90, 165, 83, 153, 165, 90, 2, 0.929551
157, 3, bw, attraction, a-b-db, 14, 2, 6, 20, 90, 165, 83, 153, 165, 90, 1, 0.627125
157, 3, bw, filler, NA, 999, 999, 6, 21, 84, 74, 158, 104, 91, 91, 2, 0.455463
157, 3, bw, filler, NA, 999, 999, 6, 21, 84, 74, 158, 104, 91, 91, 1, 0.948087
157, 3, bw, attraction, a-b-da, 2, 3, 6, 22, 195, 120, 193, 119, 120, 195, 2, 1.6276
157, 3, bw, attraction, a-b-da, 2, 3, 6, 22, 195, 120, 193, 119, 120, 195, 1, 0.409288
157, 3, bw, attraction, a-b-da, 14, 1, 6, 23, 125, 56, 60, 135, 135, 60, 2, 0.598193
157, 3, bw, attraction, a-b-da, 14, 1, 6, 23, 125, 56, 60, 135, 135, 60, 1, 0.549313
157, 3, bw, filler, NA, 999, 999, 6, 24, 138, 186, 138, 194, 75, 100, 2, 0.477163
157, 3, bw, filler, NA, 999, 999, 6, 24, 138, 186, 138, 194, 75, 100, 3, 0.416941
157, 3, bw, attraction, a-b-da, 9, 2, 6, 25, 90, 165, 165, 90, 157, 86, 2, 0.710086
157, 3, bw, attraction, a-b-da, 9, 2, 6, 25, 90, 165, 165, 90, 157, 86, 1, 0.392527
157, 3, bw, attraction, a-b-da, 9, 3, 6, 26, 186, 114, 195, 120, 120, 195, 2, 0.622424
157, 3, bw, attraction, a-b-da, 9, 3, 6, 26, 186, 114, 195, 120, 120, 195, 1, 0.660147
157, 3, bw, attraction, a-b-db, 9, 2, 6, 27, 90, 165, 165, 90, 86, 157, 2, 0.623268
157, 3, bw, attraction, a-b-db, 9, 2, 6, 27, 90, 165, 165, 90, 86, 157, 1, 0.532981
157, 3, bw, filler, NA, 999, 999, 6, 28, 145, 190, 179, 192, 180, 102, 2, 0.517484
157, 3, bw, filler, NA, 999, 999, 6, 28, 145, 190, 179, 192, 180, 102, 3, 2.19994
157, 3, bw, filler, NA, 999, 999, 6, 29, 102, 185, 60, 71, 121, 187, 3, 1.46116
157, 3, bw, filler, NA, 999, 999, 6, 29, 102, 185, 60, 71, 121, 187, 2, 0.497354
157, 3, bw, attraction, a-b-db, 9, 1, 6, 30, 135, 60, 57, 129, 60, 135, 2, 1.05109
157, 3, bw, attraction, a-b-db, 9, 1, 6, 30, 135, 60, 57, 129, 60, 135, 3, 0.608209
157, 3, bw, attraction, a-b-db, 5, 1, 6, 31, 58, 132, 135, 60, 60, 135, 3, 1.30919
157, 3, bw, attraction, a-b-db, 5, 1, 6, 31, 58, 132, 135, 60, 60, 135, 1, 0.599432
157, 3, bw, attraction, a-b-db, 9, 3, 6, 32, 195, 120, 120, 195, 114, 186, 2, 0.733267
157, 3, bw, attraction, a-b-db, 9, 3, 6, 32, 195, 120, 120, 195, 114, 186, 3, 0.406901
157, 3, bw, filler, NA, 999, 999, 6, 33, 88, 126, 176, 112, 131, 87, 2, 0.79616
157, 3, bw, filler, NA, 999, 999, 6, 33, 88, 126, 176, 112, 131, 87, 1, 0.371206
157, 3, bw, attraction, a-b-da, 2, 1, 6, 34, 135, 60, 134, 59, 60, 135, 2, 0.682204
157, 3, bw, attraction, a-b-da, 2, 1, 6, 34, 135, 60, 134, 59, 60, 135, 1, 0.397933
157, 3, bw, attraction, a-b-db, 2, 2, 6, 35, 90, 165, 89, 163, 165, 90, 2, 0.483823
157, 3, bw, attraction, a-b-db, 2, 2, 6, 35, 90, 165, 89, 163, 165, 90, 1, 0.791732
157, 3, bw, attraction, a-b-da, 14, 2, 6, 36, 165, 90, 90, 165, 153, 83, 2, 0.693357
157, 3, bw, attraction, a-b-da, 14, 2, 6, 36, 165, 90, 90, 165, 153, 83, 1, 0.768514
157, 3, bw, attraction, a-b-db, 5, 3, 6, 37, 120, 195, 195, 120, 117, 190, 2, 0.767537
157, 3, bw, attraction, a-b-db, 5, 3, 6, 37, 120, 195, 195, 120, 117, 190, 1, 0.527936
157, 3, bw, attraction, a-b-da, 5, 1, 7, 1, 60, 135, 135, 60, 132, 58, 2, 0.648549
157, 3, bw, attraction, a-b-da, 5, 1, 7, 1, 60, 135, 135, 60, 132, 58, 1, 0.805399
157, 3, bw, attraction, a-b-da, 2, 2, 7, 2, 165, 90, 90, 165, 163, 89, 2, 0.555152
157, 3, bw, attraction, a-b-da, 2, 2, 7, 2, 165, 90, 90, 165, 163, 89, 1, 0.819699
157, 3, bw, attraction, a-b-db, 14, 3, 7, 3, 195, 120, 120, 195, 111, 181, 2, 0.344681
157, 3, bw, attraction, a-b-db, 14, 3, 7, 3, 195, 120, 120, 195, 111, 181, 1, 0.561823
157, 3, bw, attraction, a-b-da, 9, 3, 7, 4, 195, 120, 120, 195, 186, 114, 2, 0.665053
157, 3, bw, attraction, a-b-da, 9, 3, 7, 4, 195, 120, 120, 195, 186, 114, 1, 0.493327
157, 3, bw, catch, NA, 999, 999, 7, 5, 84, 111, 174, 141, 151, 104, 2, 0.535037
157, 3, bw, catch, NA, 999, 999, 7, 5, 84, 111, 174, 141, 151, 104, 1, 0.872996
157, 3, bw, filler, NA, 999, 999, 7, 6, 107, 69, 95, 127, 151, 186, 3, 1.05991
157, 3, bw, filler, NA, 999, 999, 7, 6, 107, 69, 95, 127, 151, 186, 1, 0.728428
157, 3, bw, attraction, a-b-da, 9, 2, 7, 7, 157, 86, 90, 165, 165, 90, 2, 0.864717
157, 3, bw, attraction, a-b-da, 9, 2, 7, 7, 157, 86, 90, 165, 165, 90, 1, 0.364968
157, 3, bw, attraction, a-b-db, 14, 1, 7, 8, 56, 125, 135, 60, 60, 135, 1, 1.07612
157, 3, bw, attraction, a-b-db, 14, 1, 7, 8, 56, 125, 135, 60, 60, 135, 2, 1.01594
157, 3, bw, attraction, a-b-db, 9, 1, 7, 9, 60, 135, 135, 60, 57, 129, 2, 0.61312
157, 3, bw, attraction, a-b-db, 9, 1, 7, 9, 60, 135, 135, 60, 57, 129, 1, 0.395221
157, 3, bw, attraction, a-b-db, 9, 2, 7, 10, 165, 90, 86, 157, 90, 165, 2, 0.577141
157, 3, bw, attraction, a-b-db, 9, 2, 7, 10, 165, 90, 86, 157, 90, 165, 3, 0.632872
157, 3, bw, attraction, a-b-da, 5, 2, 7, 11, 161, 88, 90, 165, 165, 90, 2, 0.48533
157, 3, bw, attraction, a-b-da, 5, 2, 7, 11, 161, 88, 90, 165, 165, 90, 1, 0.409068
157, 3, bw, filler, NA, 999, 999, 7, 12, 104, 138, 58, 86, 127, 100, 1, 0.806328
157, 3, bw, filler, NA, 999, 999, 7, 12, 104, 138, 58, 86, 127, 100, 2, 0.428606
157, 3, bw, filler, NA, 999, 999, 7, 13, 126, 195, 61, 137, 124, 175, 1, 0.961012
157, 3, bw, filler, NA, 999, 999, 7, 13, 126, 195, 61, 137, 124, 175, 2, 1.00941
157, 3, bw, filler, NA, 999, 999, 7, 14, 93, 145, 89, 125, 72, 164, 1, 0.526486
157, 3, bw, filler, NA, 999, 999, 7, 14, 93, 145, 89, 125, 72, 164, 2, 0.656188
157, 3, bw, attraction, a-b-db, 2, 3, 7, 15, 119, 193, 195, 120, 120, 195, 1, 0.524004
157, 3, bw, attraction, a-b-db, 2, 3, 7, 15, 119, 193, 195, 120, 120, 195, 2, 0.549717
157, 3, bw, filler, NA, 999, 999, 7, 16, 115, 58, 176, 168, 175, 186, 2, 0.765572
157, 3, bw, filler, NA, 999, 999, 7, 16, 115, 58, 176, 168, 175, 186, 1, 0.62998
157, 3, bw, filler, NA, 999, 999, 7, 17, 138, 165, 175, 156, 154, 110, 2, 0.554418
157, 3, bw, filler, NA, 999, 999, 7, 17, 138, 165, 175, 156, 154, 110, 3, 0.595438
157, 3, bw, attraction, a-b-da, 2, 1, 7, 18, 134, 59, 135, 60, 60, 135, 2, 0.977304
157, 3, bw, attraction, a-b-da, 2, 1, 7, 18, 134, 59, 135, 60, 60, 135, 1, 0.48892
157, 3, bw, attraction, a-b-db, 14, 2, 7, 19, 165, 90, 83, 153, 90, 165, 3, 1.17127
157, 3, bw, attraction, a-b-db, 14, 2, 7, 19, 165, 90, 83, 153, 90, 165, 2, 0.899658
157, 3, bw, filler, NA, 999, 999, 7, 20, 112, 174, 145, 91, 118, 96, 1, 0.645185
157, 3, bw, filler, NA, 999, 999, 7, 20, 112, 174, 145, 91, 118, 96, 2, 0.842515
157, 3, bw, attraction, a-b-db, 5, 3, 7, 21, 117, 190, 120, 195, 195, 120, 2, 0.526031
157, 3, bw, attraction, a-b-db, 5, 3, 7, 21, 117, 190, 120, 195, 195, 120, 1, 0.519837
157, 3, bw, filler, NA, 999, 999, 7, 22, 134, 85, 63, 173, 126, 106, 3, 1.28089
157, 3, bw, filler, NA, 999, 999, 7, 22, 134, 85, 63, 173, 126, 106, 1, 0.364479
157, 3, bw, catch, NA, 999, 999, 7, 23, 124, 191, 106, 149, 102, 93, 1, 1.0358
157, 3, bw, catch, NA, 999, 999, 7, 23, 124, 191, 106, 149, 102, 93, 3, 0.4574
157, 3, bw, attraction, a-b-db, 2, 2, 7, 24, 90, 165, 165, 90, 89, 163, 1, 0.692572
157, 3, bw, attraction, a-b-db, 2, 2, 7, 24, 90, 165, 165, 90, 89, 163, 2, 0.359598
157, 3, bw, filler, NA, 999, 999, 7, 25, 195, 103, 190, 92, 181, 120, 1, 0.582731
157, 3, bw, filler, NA, 999, 999, 7, 25, 195, 103, 190, 92, 181, 120, 2, 0.814526
157, 3, bw, attraction, a-b-da, 2, 3, 7, 26, 195, 120, 120, 195, 193, 119, 1, 0.547474
157, 3, bw, attraction, a-b-da, 2, 3, 7, 26, 195, 120, 120, 195, 193, 119, 2, 0.404632
157, 3, bw, attraction, a-b-db, 2, 1, 7, 27, 59, 134, 60, 135, 135, 60, 2, 0.794531
157, 3, bw, attraction, a-b-db, 2, 1, 7, 27, 59, 134, 60, 135, 135, 60, 1, 1.06551
157, 3, bw, attraction, a-b-db, 5, 2, 7, 28, 88, 161, 165, 90, 90, 165, 2, 0.484487
157, 3, bw, attraction, a-b-db, 5, 2, 7, 28, 88, 161, 165, 90, 90, 165, 1, 0.49658
157, 3, bw, attraction, a-b-db, 5, 1, 7, 29, 135, 60, 60, 135, 58, 132, 2, 0.53007
157, 3, bw, attraction, a-b-db, 5, 1, 7, 29, 135, 60, 60, 135, 58, 132, 1, 1.09188
157, 3, bw, attraction, a-b-da, 9, 1, 7, 30, 135, 60, 129, 57, 60, 135, 3, 0.741647
157, 3, bw, attraction, a-b-da, 9, 1, 7, 30, 135, 60, 129, 57, 60, 135, 1, 1.63053
157, 3, bw, attraction, a-b-da, 14, 1, 7, 31, 60, 135, 135, 60, 125, 56, 2, 0.506736
157, 3, bw, attraction, a-b-da, 14, 1, 7, 31, 60, 135, 135, 60, 125, 56, 1, 0.44526
157, 3, bw, attraction, a-b-da, 14, 2, 7, 32, 153, 83, 90, 165, 165, 90, 2, 0.457075
157, 3, bw, attraction, a-b-da, 14, 2, 7, 32, 153, 83, 90, 165, 165, 90, 1, 0.501549
157, 3, bw, attraction, a-b-db, 9, 3, 7, 33, 195, 120, 120, 195, 114, 186, 2, 0.367212
157, 3, bw, attraction, a-b-db, 9, 3, 7, 33, 195, 120, 120, 195, 114, 186, 1, 0.535705
157, 3, bw, filler, NA, 999, 999, 7, 34, 192, 187, 171, 184, 128, 125, 2, 0.368171
157, 3, bw, filler, NA, 999, 999, 7, 34, 192, 187, 171, 184, 128, 125, 1, 1.04868
157, 3, bw, attraction, a-b-da, 5, 3, 7, 35, 120, 195, 195, 120, 190, 117, 1, 0.820281
157, 3, bw, attraction, a-b-da, 5, 3, 7, 35, 120, 195, 195, 120, 190, 117, 2, 0.418697
157, 3, bw, catch, NA, 999, 999, 7, 36, 163, 92, 174, 141, 123, 72, 2, 0.911904
157, 3, bw, catch, NA, 999, 999, 7, 36, 163, 92, 174, 141, 123, 72, 3, 0.698226
157, 3, bw, attraction, a-b-da, 14, 3, 7, 37, 181, 111, 120, 195, 195, 120, 2, 0.748159
157, 3, bw, attraction, a-b-da, 14, 3, 7, 37, 181, 111, 120, 195, 195, 120, 1, 0.653112
157, 3, bw, attraction, a-b-db, 14, 2, 8, 1, 83, 153, 90, 165, 165, 90, 1, 0.81673
157, 3, bw, attraction, a-b-db, 14, 2, 8, 1, 83, 153, 90, 165, 165, 90, 2, 0.607104
157, 3, bw, attraction, a-b-da, 2, 3, 8, 2, 193, 119, 195, 120, 120, 195, 1, 0.804174
157, 3, bw, attraction, a-b-da, 2, 3, 8, 2, 193, 119, 195, 120, 120, 195, 2, 0.699219
157, 3, bw, attraction, a-b-da, 14, 1, 8, 3, 125, 56, 60, 135, 135, 60, 1, 0.637016
157, 3, bw, attraction, a-b-da, 14, 1, 8, 3, 125, 56, 60, 135, 135, 60, 2, 0.426848
157, 3, bw, attraction, a-b-db, 9, 3, 8, 4, 114, 186, 195, 120, 120, 195, 2, 0.8392
157, 3, bw, attraction, a-b-db, 9, 3, 8, 4, 114, 186, 195, 120, 120, 195, 1, 0.340308
157, 3, bw, attraction, a-b-db, 14, 3, 8, 5, 111, 181, 120, 195, 195, 120, 2, 0.540263
157, 3, bw, attraction, a-b-db, 14, 3, 8, 5, 111, 181, 120, 195, 195, 120, 3, 0.333428
157, 3, bw, attraction, a-b-da, 14, 2, 8, 6, 165, 90, 153, 83, 90, 165, 1, 0.749889
157, 3, bw, attraction, a-b-da, 14, 2, 8, 6, 165, 90, 153, 83, 90, 165, 2, 1.13494
157, 3, bw, filler, NA, 999, 999, 8, 7, 122, 99, 156, 125, 155, 133, 3, 1.1191
157, 3, bw, filler, NA, 999, 999, 8, 7, 122, 99, 156, 125, 155, 133, 1, 0.529476
157, 3, bw, filler, NA, 999, 999, 8, 8, 57, 67, 154, 75, 112, 192, 3, 0.681879
157, 3, bw, filler, NA, 999, 999, 8, 8, 57, 67, 154, 75, 112, 192, 1, 0.597558
157, 3, bw, filler, NA, 999, 999, 8, 9, 152, 134, 93, 126, 113, 131, 1, 0.84348
157, 3, bw, filler, NA, 999, 999, 8, 9, 152, 134, 93, 126, 113, 131, 2, 0.536377
157, 3, bw, filler, NA, 999, 999, 8, 10, 79, 76, 160, 192, 164, 116, 2, 1.14495
157, 3, bw, filler, NA, 999, 999, 8, 10, 79, 76, 160, 192, 164, 116, 1, 0.585754
157, 3, bw, attraction, a-b-da, 5, 2, 8, 11, 161, 88, 165, 90, 90, 165, 2, 0.688155
157, 3, bw, attraction, a-b-da, 5, 2, 8, 11, 161, 88, 165, 90, 90, 165, 1, 0.443231
157, 3, bw, filler, NA, 999, 999, 8, 12, 86, 103, 91, 93, 116, 182, 3, 0.919089
157, 3, bw, filler, NA, 999, 999, 8, 12, 86, 103, 91, 93, 116, 182, 2, 0.449488
157, 3, bw, attraction, a-b-da, 9, 2, 8, 13, 90, 165, 157, 86, 165, 90, 1, 0.549288
157, 3, bw, attraction, a-b-da, 9, 2, 8, 13, 90, 165, 157, 86, 165, 90, 2, 0.366298
157, 3, bw, attraction, a-b-db, 5, 3, 8, 14, 120, 195, 117, 190, 195, 120, 3, 1.23754
157, 3, bw, attraction, a-b-db, 5, 3, 8, 14, 120, 195, 117, 190, 195, 120, 2, 0.28314
157, 3, bw, filler, NA, 999, 999, 8, 15, 81, 104, 174, 133, 64, 75, 2, 0.76566
157, 3, bw, filler, NA, 999, 999, 8, 15, 81, 104, 174, 133, 64, 75, 3, 0.702078
157, 3, bw, filler, NA, 999, 999, 8, 16, 86, 121, 111, 63, 184, 149, 3, 1.11179
157, 3, bw, filler, NA, 999, 999, 8, 16, 86, 121, 111, 63, 184, 149, 2, 0.522043
157, 3, bw, filler, NA, 999, 999, 8, 17, 118, 189, 136, 58, 103, 82, 1, 0.61923
157, 3, bw, filler, NA, 999, 999, 8, 17, 118, 189, 136, 58, 103, 82, 2, 0.441716
157, 3, bw, attraction, a-b-db, 5, 2, 8, 18, 88, 161, 90, 165, 165, 90, 3, 0.669464
157, 3, bw, attraction, a-b-db, 5, 2, 8, 18, 88, 161, 90, 165, 165, 90, 2, 0.601852
157, 3, bw, attraction, a-b-da, 5, 1, 8, 19, 132, 58, 135, 60, 60, 135, 3, 2.12914
157, 3, bw, attraction, a-b-da, 5, 1, 8, 19, 132, 58, 135, 60, 60, 135, 2, 0.26486
157, 3, bw, attraction, a-b-db, 2, 2, 8, 20, 165, 90, 89, 163, 90, 165, 2, 0.700023
157, 3, bw, attraction, a-b-db, 2, 2, 8, 20, 165, 90, 89, 163, 90, 165, 1, 0.295355
157, 3, bw, attraction, a-b-db, 2, 1, 8, 21, 135, 60, 60, 135, 59, 134, 1, 0.753087
157, 3, bw, attraction, a-b-db, 2, 1, 8, 21, 135, 60, 60, 135, 59, 134, 2, 0.306225
157, 3, bw, attraction, a-b-db, 14, 1, 8, 22, 135, 60, 56, 125, 60, 135, 1, 0.52403
157, 3, bw, attraction, a-b-db, 14, 1, 8, 22, 135, 60, 56, 125, 60, 135, 2, 0.285882
157, 3, bw, attraction, a-b-db, 9, 2, 8, 23, 165, 90, 90, 165, 86, 157, 1, 0.512337
157, 3, bw, attraction, a-b-db, 9, 2, 8, 23, 165, 90, 90, 165, 86, 157, 2, 0.346757
157, 3, bw, attraction, a-b-da, 5, 3, 8, 24, 190, 117, 120, 195, 195, 120, 2, 0.890667
157, 3, bw, attraction, a-b-da, 5, 3, 8, 24, 190, 117, 120, 195, 195, 120, 1, 0.557671
157, 3, bw, attraction, a-b-da, 9, 1, 8, 25, 60, 135, 135, 60, 129, 57, 1, 0.652654
157, 3, bw, attraction, a-b-da, 9, 1, 8, 25, 60, 135, 135, 60, 129, 57, 2, 1.1539
157, 3, bw, attraction, a-b-da, 2, 1, 8, 26, 60, 135, 134, 59, 135, 60, 1, 0.737484
157, 3, bw, attraction, a-b-da, 2, 1, 8, 26, 60, 135, 134, 59, 135, 60, 3, 0.491245
157, 3, bw, filler, NA, 999, 999, 8, 27, 112, 151, 123, 179, 138, 67, 2, 0.532917
157, 3, bw, filler, NA, 999, 999, 8, 27, 112, 151, 123, 179, 138, 67, 3, 1.30279
157, 3, bw, attraction, a-b-da, 9, 3, 8, 28, 195, 120, 186, 114, 120, 195, 1, 0.672257
157, 3, bw, attraction, a-b-da, 9, 3, 8, 28, 195, 120, 186, 114, 120, 195, 2, 0.484169
157, 3, bw, catch, NA, 999, 999, 8, 29, 149, 106, 72, 123, 165, 150, 3, 0.982544
157, 3, bw, catch, NA, 999, 999, 8, 29, 149, 106, 72, 123, 165, 150, 2, 0.590162
157, 3, bw, attraction, a-b-db, 2, 3, 8, 30, 195, 120, 119, 193, 120, 195, 1, 1.02798
157, 3, bw, attraction, a-b-db, 2, 3, 8, 30, 195, 120, 119, 193, 120, 195, 2, 0.729684
157, 3, bw, catch, NA, 999, 999, 8, 31, 126, 69, 191, 124, 156, 99, 3, 1.00997
157, 3, bw, catch, NA, 999, 999, 8, 31, 126, 69, 191, 124, 156, 99, 2, 0.320241
157, 3, bw, attraction, a-b-da, 14, 3, 8, 32, 181, 111, 120, 195, 195, 120, 1, 1.64151
157, 3, bw, attraction, a-b-da, 14, 3, 8, 32, 181, 111, 120, 195, 195, 120, 2, 0.670241
157, 3, bw, attraction, a-b-db, 5, 1, 8, 33, 58, 132, 60, 135, 135, 60, 2, 0.769369
157, 3, bw, attraction, a-b-db, 5, 1, 8, 33, 58, 132, 60, 135, 135, 60, 3, 1.0898
157, 3, bw, attraction, a-b-db, 9, 1, 8, 34, 60, 135, 57, 129, 135, 60, 2, 0.660065
157, 3, bw, attraction, a-b-db, 9, 1, 8, 34, 60, 135, 57, 129, 135, 60, 3, 0.344496
157, 3, bw, attraction, a-b-da, 2, 2, 8, 35, 165, 90, 163, 89, 90, 165, 2, 1.4882
157, 3, bw, attraction, a-b-da, 2, 2, 8, 35, 165, 90, 163, 89, 90, 165, 1, 1.18709
157, 3, bw, filler, NA, 999, 999, 8, 36, 187, 128, 63, 59, 177, 59, 1, 0.945296
157, 3, bw, filler, NA, 999, 999, 8, 36, 187, 128, 63, 59, 177, 59, 2, 0.402466
157, 3, bw, catch, NA, 999, 999, 8, 37, 159, 96, 109, 86, 193, 122, 1, 0.917028
157, 3, bw, catch, NA, 999, 999, 8, 37, 159, 96, 109, 86, 193, 122, 2, 1.0105
