sub_n, computer_n, bw_cond, effect, set, distance, diag, block_n, trial_n, h1, w1, h2, w2, h3, w3, choice, rt 
192, 3, wb, practice, NA, 999, 999, 0, 1, 141, 90, 184, 184, 184, 67, 3, 4.67306
192, 3, wb, practice, NA, 999, 999, 0, 1, 141, 90, 184, 184, 184, 67, 2, 3.0843
192, 3, wb, practice, NA, 999, 999, 0, 2, 120, 84, 179, 163, 120, 118, 1, 2.45736
192, 3, wb, practice, NA, 999, 999, 0, 2, 120, 84, 179, 163, 120, 118, 2, 1.45339
192, 3, wb, practice, NA, 999, 999, 0, 3, 191, 79, 60, 157, 180, 172, 2, 2.8003
192, 3, wb, practice, NA, 999, 999, 0, 3, 191, 79, 60, 157, 180, 172, 3, 1.0201
192, 3, wb, attraction, a-b-da, 9, 1, 1, 1, 129, 57, 60, 135, 135, 60, 1, 2.92288
192, 3, wb, attraction, a-b-da, 9, 1, 1, 1, 129, 57, 60, 135, 135, 60, 2, 4.88407
192, 3, wb, filler, NA, 999, 999, 1, 2, 131, 130, 182, 80, 131, 171, 2, 5.8051
192, 3, wb, filler, NA, 999, 999, 1, 2, 131, 130, 182, 80, 131, 171, 3, 0.986506
192, 3, wb, attraction, a-b-db, 9, 1, 1, 3, 57, 129, 60, 135, 135, 60, 3, 3.5369
192, 3, wb, attraction, a-b-db, 9, 1, 1, 3, 57, 129, 60, 135, 135, 60, 2, 1.93782
192, 3, wb, attraction, a-b-da, 2, 1, 1, 4, 134, 59, 60, 135, 135, 60, 1, 2.95376
192, 3, wb, attraction, a-b-da, 2, 1, 1, 4, 134, 59, 60, 135, 135, 60, 2, 1.29814
192, 3, wb, attraction, a-b-db, 5, 2, 1, 5, 165, 90, 90, 165, 88, 161, 3, 8.44372
192, 3, wb, attraction, a-b-db, 5, 2, 1, 5, 165, 90, 90, 165, 88, 161, 1, 0.974303
192, 3, wb, attraction, a-b-da, 5, 3, 1, 6, 190, 117, 195, 120, 120, 195, 1, 2.26852
192, 3, wb, attraction, a-b-da, 5, 3, 1, 6, 190, 117, 195, 120, 120, 195, 3, 0.936632
192, 3, wb, catch, NA, 999, 999, 1, 7, 122, 193, 78, 117, 163, 92, 2, 2.91292
192, 3, wb, catch, NA, 999, 999, 1, 7, 122, 193, 78, 117, 163, 92, 1, 1.0746
192, 3, wb, attraction, a-b-db, 14, 2, 1, 8, 90, 165, 165, 90, 83, 153, 3, 2.93288
192, 3, wb, attraction, a-b-db, 14, 2, 1, 8, 90, 165, 165, 90, 83, 153, 1, 1.15791
192, 3, wb, filler, NA, 999, 999, 1, 9, 192, 70, 66, 116, 123, 119, 2, 3.41286
192, 3, wb, filler, NA, 999, 999, 1, 9, 192, 70, 66, 116, 123, 119, 3, 1.77849
192, 3, wb, filler, NA, 999, 999, 1, 10, 64, 177, 63, 178, 105, 105, 3, 3.24047
192, 3, wb, filler, NA, 999, 999, 1, 10, 64, 177, 63, 178, 105, 105, 1, 1.15679
192, 3, wb, catch, NA, 999, 999, 1, 11, 116, 139, 85, 110, 172, 143, 2, 1.55583
192, 3, wb, catch, NA, 999, 999, 1, 11, 116, 139, 85, 110, 172, 143, 3, 0.61179
192, 3, wb, filler, NA, 999, 999, 1, 12, 114, 78, 191, 186, 110, 68, 3, 2.11297
192, 3, wb, filler, NA, 999, 999, 1, 12, 114, 78, 191, 186, 110, 68, 2, 0.394922
192, 3, wb, catch, NA, 999, 999, 1, 13, 193, 122, 138, 117, 71, 124, 3, 1.84083
192, 3, wb, catch, NA, 999, 999, 1, 13, 193, 122, 138, 117, 71, 124, 1, 0.517483
192, 3, wb, attraction, a-b-da, 2, 2, 1, 14, 90, 165, 163, 89, 165, 90, 1, 3.81453
192, 3, wb, attraction, a-b-da, 2, 2, 1, 14, 90, 165, 163, 89, 165, 90, 3, 1.34801
192, 3, wb, attraction, a-b-db, 14, 1, 1, 15, 135, 60, 60, 135, 56, 125, 1, 2.73139
192, 3, wb, attraction, a-b-db, 14, 1, 1, 15, 135, 60, 60, 135, 56, 125, 2, 2.64466
192, 3, wb, attraction, a-b-db, 5, 1, 1, 16, 58, 132, 60, 135, 135, 60, 1, 2.10373
192, 3, wb, attraction, a-b-db, 5, 1, 1, 16, 58, 132, 60, 135, 135, 60, 2, 2.56233
192, 3, wb, attraction, a-b-da, 14, 3, 1, 17, 181, 111, 120, 195, 195, 120, 1, 1.84084
192, 3, wb, attraction, a-b-da, 14, 3, 1, 17, 181, 111, 120, 195, 195, 120, 3, 0.941494
192, 3, wb, attraction, a-b-db, 5, 3, 1, 18, 195, 120, 117, 190, 120, 195, 2, 3.05331
192, 3, wb, attraction, a-b-db, 5, 3, 1, 18, 195, 120, 117, 190, 120, 195, 1, 0.793637
192, 3, wb, attraction, a-b-da, 9, 3, 1, 19, 120, 195, 195, 120, 186, 114, 3, 1.69524
192, 3, wb, attraction, a-b-da, 9, 3, 1, 19, 120, 195, 195, 120, 186, 114, 1, 0.45804
192, 3, wb, attraction, a-b-da, 5, 1, 1, 20, 60, 135, 135, 60, 132, 58, 2, 1.02113
192, 3, wb, attraction, a-b-da, 5, 1, 1, 20, 60, 135, 135, 60, 132, 58, 1, 0.675442
192, 3, wb, attraction, a-b-db, 2, 2, 1, 21, 90, 165, 89, 163, 165, 90, 2, 1.98187
192, 3, wb, attraction, a-b-db, 2, 2, 1, 21, 90, 165, 89, 163, 165, 90, 3, 1.50136
192, 3, wb, attraction, a-b-da, 14, 2, 1, 22, 90, 165, 153, 83, 165, 90, 2, 1.50271
192, 3, wb, attraction, a-b-da, 14, 2, 1, 22, 90, 165, 153, 83, 165, 90, 1, 0.38555
192, 3, wb, filler, NA, 999, 999, 1, 23, 83, 134, 154, 60, 193, 193, 2, 1.136
192, 3, wb, filler, NA, 999, 999, 1, 23, 83, 134, 154, 60, 193, 193, 1, 0.585738
192, 3, wb, attraction, a-b-db, 2, 1, 1, 24, 59, 134, 60, 135, 135, 60, 1, 5.60823
192, 3, wb, attraction, a-b-db, 2, 1, 1, 24, 59, 134, 60, 135, 135, 60, 3, 0.72513
192, 3, wb, filler, NA, 999, 999, 1, 25, 172, 136, 170, 146, 83, 170, 3, 1.11735
192, 3, wb, filler, NA, 999, 999, 1, 25, 172, 136, 170, 146, 83, 170, 2, 0.519714
192, 3, wb, attraction, a-b-db, 2, 3, 1, 26, 119, 193, 195, 120, 120, 195, 2, 2.43275
192, 3, wb, attraction, a-b-db, 2, 3, 1, 26, 119, 193, 195, 120, 120, 195, 3, 2.02197
192, 3, wb, attraction, a-b-da, 2, 3, 1, 27, 193, 119, 195, 120, 120, 195, 1, 3.33865
192, 3, wb, attraction, a-b-da, 2, 3, 1, 27, 193, 119, 195, 120, 120, 195, 3, 1.55491
192, 3, wb, attraction, a-b-da, 14, 1, 1, 28, 60, 135, 135, 60, 125, 56, 3, 1.66644
192, 3, wb, attraction, a-b-da, 14, 1, 1, 28, 60, 135, 135, 60, 125, 56, 1, 1.17448
192, 3, wb, attraction, a-b-db, 14, 3, 1, 29, 120, 195, 195, 120, 111, 181, 3, 1.3007
192, 3, wb, attraction, a-b-db, 14, 3, 1, 29, 120, 195, 195, 120, 111, 181, 1, 0.607746
192, 3, wb, filler, NA, 999, 999, 1, 30, 60, 88, 118, 66, 156, 173, 1, 0.95673
192, 3, wb, filler, NA, 999, 999, 1, 30, 60, 88, 118, 66, 156, 173, 3, 0.685174
192, 3, wb, filler, NA, 999, 999, 1, 31, 111, 125, 189, 81, 73, 57, 3, 1.20758
192, 3, wb, filler, NA, 999, 999, 1, 31, 111, 125, 189, 81, 73, 57, 2, 2.58182
192, 3, wb, attraction, a-b-db, 9, 2, 1, 32, 165, 90, 90, 165, 86, 157, 3, 3.04351
192, 3, wb, attraction, a-b-db, 9, 2, 1, 32, 165, 90, 90, 165, 86, 157, 1, 0.567788
192, 3, wb, attraction, a-b-da, 9, 2, 1, 33, 165, 90, 90, 165, 157, 86, 3, 1.95885
192, 3, wb, attraction, a-b-da, 9, 2, 1, 33, 165, 90, 90, 165, 157, 86, 1, 0.790925
192, 3, wb, attraction, a-b-da, 5, 2, 1, 34, 165, 90, 90, 165, 161, 88, 1, 1.22065
192, 3, wb, attraction, a-b-da, 5, 2, 1, 34, 165, 90, 90, 165, 161, 88, 2, 0.475023
192, 3, wb, attraction, a-b-db, 9, 3, 1, 35, 195, 120, 114, 186, 120, 195, 1, 1.6134
192, 3, wb, attraction, a-b-db, 9, 3, 1, 35, 195, 120, 114, 186, 120, 195, 2, 0.523653
192, 3, wb, filler, NA, 999, 999, 1, 36, 63, 95, 175, 115, 95, 78, 1, 1.56396
192, 3, wb, filler, NA, 999, 999, 1, 36, 63, 95, 175, 115, 95, 78, 2, 0.700146
192, 3, wb, filler, NA, 999, 999, 1, 37, 158, 119, 101, 142, 69, 152, 3, 1.94187
192, 3, wb, filler, NA, 999, 999, 1, 37, 158, 119, 101, 142, 69, 152, 1, 0.606481
192, 3, wb, filler, NA, 999, 999, 2, 1, 57, 90, 123, 157, 88, 195, 1, 1.18018
192, 3, wb, filler, NA, 999, 999, 2, 1, 57, 90, 123, 157, 88, 195, 2, 1.40382
192, 3, wb, attraction, a-b-db, 14, 2, 2, 2, 83, 153, 90, 165, 165, 90, 1, 3.20935
192, 3, wb, attraction, a-b-db, 14, 2, 2, 2, 83, 153, 90, 165, 165, 90, 3, 0.494999
192, 3, wb, filler, NA, 999, 999, 2, 3, 146, 104, 134, 145, 118, 91, 3, 2.98534
192, 3, wb, filler, NA, 999, 999, 2, 3, 146, 104, 134, 145, 118, 91, 2, 0.799971
192, 3, wb, attraction, a-b-db, 14, 1, 2, 4, 60, 135, 56, 125, 135, 60, 2, 1.91746
192, 3, wb, attraction, a-b-db, 14, 1, 2, 4, 60, 135, 56, 125, 135, 60, 1, 1.39963
192, 3, wb, attraction, a-b-db, 5, 1, 2, 5, 60, 135, 58, 132, 135, 60, 3, 2.17309
192, 3, wb, attraction, a-b-db, 5, 1, 2, 5, 60, 135, 58, 132, 135, 60, 1, 0.540387
192, 3, wb, attraction, a-b-db, 14, 3, 2, 6, 111, 181, 120, 195, 195, 120, 1, 1.18833
192, 3, wb, attraction, a-b-db, 14, 3, 2, 6, 111, 181, 120, 195, 195, 120, 2, 0.507118
192, 3, wb, attraction, a-b-da, 5, 3, 2, 7, 120, 195, 190, 117, 195, 120, 2, 2.22016
192, 3, wb, attraction, a-b-da, 5, 3, 2, 7, 120, 195, 190, 117, 195, 120, 1, 0.570113
192, 3, wb, attraction, a-b-da, 5, 1, 2, 8, 132, 58, 135, 60, 60, 135, 1, 1.61724
192, 3, wb, attraction, a-b-da, 5, 1, 2, 8, 132, 58, 135, 60, 60, 135, 2, 0.847539
192, 3, wb, attraction, a-b-da, 9, 3, 2, 9, 120, 195, 195, 120, 186, 114, 3, 4.33104
192, 3, wb, attraction, a-b-da, 9, 3, 2, 9, 120, 195, 195, 120, 186, 114, 1, 3.09974
192, 3, wb, filler, NA, 999, 999, 2, 10, 185, 151, 130, 190, 178, 163, 2, 4.7567
192, 3, wb, filler, NA, 999, 999, 2, 10, 185, 151, 130, 190, 178, 163, 3, 3.79576
192, 3, wb, attraction, a-b-db, 5, 2, 2, 11, 90, 165, 165, 90, 88, 161, 1, 3.66457
192, 3, wb, attraction, a-b-db, 5, 2, 2, 11, 90, 165, 165, 90, 88, 161, 2, 1.84416
192, 3, wb, attraction, a-b-da, 2, 1, 2, 12, 134, 59, 60, 135, 135, 60, 1, 1.71143
192, 3, wb, attraction, a-b-da, 2, 1, 2, 12, 134, 59, 60, 135, 135, 60, 2, 0.609608
192, 3, wb, attraction, a-b-da, 5, 2, 2, 13, 165, 90, 161, 88, 90, 165, 2, 5.8096
192, 3, wb, attraction, a-b-da, 5, 2, 2, 13, 165, 90, 161, 88, 90, 165, 3, 0.523404
192, 3, wb, catch, NA, 999, 999, 2, 14, 99, 96, 190, 125, 137, 118, 1, 0.963978
192, 3, wb, catch, NA, 999, 999, 2, 14, 99, 96, 190, 125, 137, 118, 2, 1.03632
192, 3, wb, attraction, a-b-da, 2, 2, 2, 15, 165, 90, 90, 165, 163, 89, 1, 5.30458
192, 3, wb, attraction, a-b-da, 2, 2, 2, 15, 165, 90, 90, 165, 163, 89, 2, 1.13819
192, 3, wb, catch, NA, 999, 999, 2, 16, 113, 142, 128, 67, 137, 178, 2, 2.93047
192, 3, wb, catch, NA, 999, 999, 2, 16, 113, 142, 128, 67, 137, 178, 3, 0.491504
192, 3, wb, filler, NA, 999, 999, 2, 17, 192, 87, 141, 69, 81, 186, 2, 2.96523
192, 3, wb, filler, NA, 999, 999, 2, 17, 192, 87, 141, 69, 81, 186, 1, 1.32502
192, 3, wb, attraction, a-b-db, 5, 3, 2, 18, 120, 195, 117, 190, 195, 120, 3, 2.98127
192, 3, wb, attraction, a-b-db, 5, 3, 2, 18, 120, 195, 117, 190, 195, 120, 1, 1.18021
192, 3, wb, attraction, a-b-da, 14, 3, 2, 19, 195, 120, 181, 111, 120, 195, 1, 4.13055
192, 3, wb, attraction, a-b-da, 14, 3, 2, 19, 195, 120, 181, 111, 120, 195, 3, 0.643128
192, 3, wb, attraction, a-b-da, 2, 3, 2, 20, 193, 119, 120, 195, 195, 120, 3, 3.82288
192, 3, wb, attraction, a-b-da, 2, 3, 2, 20, 193, 119, 120, 195, 195, 120, 2, 0.515604
192, 3, wb, catch, NA, 999, 999, 2, 21, 164, 91, 129, 66, 132, 183, 2, 0.884878
192, 3, wb, catch, NA, 999, 999, 2, 21, 164, 91, 129, 66, 132, 183, 3, 0.424491
192, 3, wb, filler, NA, 999, 999, 2, 22, 146, 91, 148, 192, 102, 158, 1, 2.36488
192, 3, wb, filler, NA, 999, 999, 2, 22, 146, 91, 148, 192, 102, 158, 2, 0.485277
192, 3, wb, attraction, a-b-da, 9, 2, 2, 23, 157, 86, 165, 90, 90, 165, 1, 1.72736
192, 3, wb, attraction, a-b-da, 9, 2, 2, 23, 157, 86, 165, 90, 90, 165, 3, 1.00933
192, 3, wb, attraction, a-b-db, 9, 2, 2, 24, 90, 165, 86, 157, 165, 90, 2, 3.77377
192, 3, wb, attraction, a-b-db, 9, 2, 2, 24, 90, 165, 86, 157, 165, 90, 1, 0.532526
192, 3, wb, attraction, a-b-da, 14, 2, 2, 25, 165, 90, 153, 83, 90, 165, 2, 2.66888
192, 3, wb, attraction, a-b-da, 14, 2, 2, 25, 165, 90, 153, 83, 90, 165, 3, 0.808771
192, 3, wb, filler, NA, 999, 999, 2, 26, 128, 119, 160, 77, 108, 88, 3, 1.41376
192, 3, wb, filler, NA, 999, 999, 2, 26, 128, 119, 160, 77, 108, 88, 1, 0.811945
192, 3, wb, filler, NA, 999, 999, 2, 27, 178, 163, 112, 122, 190, 96, 2, 2.14506
192, 3, wb, filler, NA, 999, 999, 2, 27, 178, 163, 112, 122, 190, 96, 1, 0.577657
192, 3, wb, attraction, a-b-db, 9, 1, 2, 28, 57, 129, 135, 60, 60, 135, 3, 1.34405
192, 3, wb, attraction, a-b-db, 9, 1, 2, 28, 57, 129, 135, 60, 60, 135, 2, 0.448927
192, 3, wb, filler, NA, 999, 999, 2, 29, 186, 114, 110, 151, 59, 107, 3, 2.83661
192, 3, wb, filler, NA, 999, 999, 2, 29, 186, 114, 110, 151, 59, 107, 1, 0.537959
192, 3, wb, attraction, a-b-db, 9, 3, 2, 30, 114, 186, 195, 120, 120, 195, 1, 1.71433
192, 3, wb, attraction, a-b-db, 9, 3, 2, 30, 114, 186, 195, 120, 120, 195, 3, 0.452383
192, 3, wb, attraction, a-b-db, 2, 1, 2, 31, 60, 135, 59, 134, 135, 60, 2, 2.16011
192, 3, wb, attraction, a-b-db, 2, 1, 2, 31, 60, 135, 59, 134, 135, 60, 3, 0.440047
192, 3, wb, attraction, a-b-db, 2, 2, 2, 32, 165, 90, 89, 163, 90, 165, 3, 1.12388
192, 3, wb, attraction, a-b-db, 2, 2, 2, 32, 165, 90, 89, 163, 90, 165, 2, 4.13359
192, 3, wb, attraction, a-b-db, 2, 3, 2, 33, 120, 195, 195, 120, 119, 193, 3, 3.48488
192, 3, wb, attraction, a-b-db, 2, 3, 2, 33, 120, 195, 195, 120, 119, 193, 1, 0.543746
192, 3, wb, filler, NA, 999, 999, 2, 34, 171, 100, 79, 87, 171, 123, 2, 1.58348
192, 3, wb, filler, NA, 999, 999, 2, 34, 171, 100, 79, 87, 171, 123, 3, 0.471003
192, 3, wb, attraction, a-b-da, 9, 1, 2, 35, 60, 135, 135, 60, 129, 57, 3, 2.21014
192, 3, wb, attraction, a-b-da, 9, 1, 2, 35, 60, 135, 135, 60, 129, 57, 1, 1.86408
192, 3, wb, filler, NA, 999, 999, 2, 36, 119, 150, 182, 125, 177, 86, 3, 2.76279
192, 3, wb, filler, NA, 999, 999, 2, 36, 119, 150, 182, 125, 177, 86, 2, 0.554561
192, 3, wb, attraction, a-b-da, 14, 1, 2, 37, 60, 135, 135, 60, 125, 56, 2, 4.51433
192, 3, wb, attraction, a-b-da, 14, 1, 2, 37, 60, 135, 135, 60, 125, 56, 1, 0.395643
192, 3, wb, attraction, a-b-da, 2, 3, 3, 1, 195, 120, 120, 195, 193, 119, 1, 1.36141
192, 3, wb, attraction, a-b-da, 2, 3, 3, 1, 195, 120, 120, 195, 193, 119, 2, 0.569638
192, 3, wb, attraction, a-b-db, 5, 2, 3, 2, 88, 161, 165, 90, 90, 165, 2, 2.04861
192, 3, wb, attraction, a-b-db, 5, 2, 3, 2, 88, 161, 165, 90, 90, 165, 1, 0.773352
192, 3, wb, catch, NA, 999, 999, 3, 3, 145, 110, 126, 69, 140, 175, 2, 0.955742
192, 3, wb, catch, NA, 999, 999, 3, 3, 145, 110, 126, 69, 140, 175, 3, 0.276092
192, 3, wb, attraction, a-b-db, 5, 3, 3, 4, 117, 190, 195, 120, 120, 195, 1, 2.7825
192, 3, wb, attraction, a-b-db, 5, 3, 3, 4, 117, 190, 195, 120, 120, 195, 3, 0.733714
192, 3, wb, attraction, a-b-da, 9, 3, 3, 5, 120, 195, 195, 120, 186, 114, 3, 4.782
192, 3, wb, attraction, a-b-da, 9, 3, 3, 5, 120, 195, 195, 120, 186, 114, 1, 0.52444
192, 3, wb, attraction, a-b-da, 5, 1, 3, 6, 135, 60, 132, 58, 60, 135, 1, 1.3809
192, 3, wb, attraction, a-b-da, 5, 1, 3, 6, 135, 60, 132, 58, 60, 135, 3, 0.356441
192, 3, wb, filler, NA, 999, 999, 3, 7, 170, 121, 162, 170, 159, 164, 1, 0.820307
192, 3, wb, filler, NA, 999, 999, 3, 7, 170, 121, 162, 170, 159, 164, 2, 0.402868
192, 3, wb, attraction, a-b-db, 14, 1, 3, 8, 56, 125, 60, 135, 135, 60, 1, 2.21658
192, 3, wb, attraction, a-b-db, 14, 1, 3, 8, 56, 125, 60, 135, 135, 60, 2, 0.630494
192, 3, wb, attraction, a-b-db, 14, 3, 3, 9, 120, 195, 111, 181, 195, 120, 2, 1.8749
192, 3, wb, attraction, a-b-db, 14, 3, 3, 9, 120, 195, 111, 181, 195, 120, 3, 0.870299
192, 3, wb, filler, NA, 999, 999, 3, 10, 114, 166, 130, 149, 82, 158, 3, 1.29724
192, 3, wb, filler, NA, 999, 999, 3, 10, 114, 166, 130, 149, 82, 158, 1, 0.644163
192, 3, wb, filler, NA, 999, 999, 3, 11, 113, 167, 111, 94, 74, 104, 3, 1.31993
192, 3, wb, filler, NA, 999, 999, 3, 11, 113, 167, 111, 94, 74, 104, 1, 1.09019
192, 3, wb, attraction, a-b-db, 9, 2, 3, 12, 86, 157, 165, 90, 90, 165, 1, 6.79586
192, 3, wb, attraction, a-b-db, 9, 2, 3, 12, 86, 157, 165, 90, 90, 165, 3, 7.35308
192, 3, wb, attraction, a-b-da, 2, 2, 3, 13, 165, 90, 163, 89, 90, 165, 3, 2.16664
192, 3, wb, attraction, a-b-da, 2, 2, 3, 13, 165, 90, 163, 89, 90, 165, 1, 1.18266
192, 3, wb, attraction, a-b-da, 5, 3, 3, 14, 190, 117, 195, 120, 120, 195, 1, 3.03679
192, 3, wb, attraction, a-b-da, 5, 3, 3, 14, 190, 117, 195, 120, 120, 195, 3, 2.70584
192, 3, wb, catch, NA, 999, 999, 3, 15, 118, 77, 174, 141, 98, 157, 1, 0.938926
192, 3, wb, catch, NA, 999, 999, 3, 15, 118, 77, 174, 141, 98, 157, 2, 0.779906
192, 3, wb, attraction, a-b-db, 9, 1, 3, 16, 60, 135, 57, 129, 135, 60, 2, 1.58631
192, 3, wb, attraction, a-b-db, 9, 1, 3, 16, 60, 135, 57, 129, 135, 60, 1, 0.61793
192, 3, wb, attraction, a-b-db, 2, 2, 3, 17, 165, 90, 90, 165, 89, 163, 1, 3.17491
192, 3, wb, attraction, a-b-db, 2, 2, 3, 17, 165, 90, 90, 165, 89, 163, 2, 0.405915
192, 3, wb, filler, NA, 999, 999, 3, 18, 179, 185, 113, 141, 110, 185, 2, 1.18757
192, 3, wb, filler, NA, 999, 999, 3, 18, 179, 185, 113, 141, 110, 185, 1, 0.770607
192, 3, wb, attraction, a-b-da, 14, 2, 3, 19, 90, 165, 153, 83, 165, 90, 2, 2.32961
192, 3, wb, attraction, a-b-da, 14, 2, 3, 19, 90, 165, 153, 83, 165, 90, 1, 0.498959
192, 3, wb, attraction, a-b-da, 9, 1, 3, 20, 135, 60, 60, 135, 129, 57, 3, 2.30864
192, 3, wb, attraction, a-b-da, 9, 1, 3, 20, 135, 60, 60, 135, 129, 57, 2, 0.782537
192, 3, wb, filler, NA, 999, 999, 3, 21, 175, 151, 120, 82, 182, 174, 2, 1.10093
192, 3, wb, filler, NA, 999, 999, 3, 21, 175, 151, 120, 82, 182, 174, 3, 0.672034
192, 3, wb, attraction, a-b-da, 2, 1, 3, 22, 134, 59, 60, 135, 135, 60, 1, 3.56319
192, 3, wb, attraction, a-b-da, 2, 1, 3, 22, 134, 59, 60, 135, 135, 60, 2, 1.6425
192, 3, wb, filler, NA, 999, 999, 3, 23, 61, 129, 130, 85, 59, 175, 1, 0.757915
192, 3, wb, filler, NA, 999, 999, 3, 23, 61, 129, 130, 85, 59, 175, 2, 0.430337
192, 3, wb, catch, NA, 999, 999, 3, 24, 108, 147, 159, 156, 71, 124, 3, 0.954821
192, 3, wb, catch, NA, 999, 999, 3, 24, 108, 147, 159, 156, 71, 124, 2, 0.491177
192, 3, wb, filler, NA, 999, 999, 3, 25, 175, 79, 106, 175, 100, 174, 1, 5.13293
192, 3, wb, filler, NA, 999, 999, 3, 25, 175, 79, 106, 175, 100, 174, 2, 0.437278
192, 3, wb, filler, NA, 999, 999, 3, 26, 156, 188, 164, 168, 146, 65, 3, 1.44174
192, 3, wb, filler, NA, 999, 999, 3, 26, 156, 188, 164, 168, 146, 65, 1, 1.4786
192, 3, wb, attraction, a-b-db, 2, 3, 3, 27, 120, 195, 195, 120, 119, 193, 3, 4.28076
192, 3, wb, attraction, a-b-db, 2, 3, 3, 27, 120, 195, 195, 120, 119, 193, 1, 1.21952
192, 3, wb, filler, NA, 999, 999, 3, 28, 61, 156, 177, 147, 106, 147, 1, 0.904266
192, 3, wb, filler, NA, 999, 999, 3, 28, 61, 156, 177, 147, 106, 147, 2, 0.467371
192, 3, wb, filler, NA, 999, 999, 3, 29, 104, 111, 119, 167, 194, 60, 3, 1.16642
192, 3, wb, filler, NA, 999, 999, 3, 29, 104, 111, 119, 167, 194, 60, 2, 0.42287
192, 3, wb, attraction, a-b-db, 9, 3, 3, 30, 195, 120, 114, 186, 120, 195, 3, 5.25998
192, 3, wb, attraction, a-b-db, 9, 3, 3, 30, 195, 120, 114, 186, 120, 195, 2, 0.598931
192, 3, wb, attraction, a-b-db, 5, 1, 3, 31, 58, 132, 135, 60, 60, 135, 1, 0.684664
192, 3, wb, attraction, a-b-db, 5, 1, 3, 31, 58, 132, 135, 60, 60, 135, 2, 0.864444
192, 3, wb, attraction, a-b-da, 9, 2, 3, 32, 90, 165, 165, 90, 157, 86, 3, 1.87548
192, 3, wb, attraction, a-b-da, 9, 2, 3, 32, 90, 165, 165, 90, 157, 86, 2, 2.27081
192, 3, wb, attraction, a-b-da, 5, 2, 3, 33, 165, 90, 90, 165, 161, 88, 3, 2.17755
192, 3, wb, attraction, a-b-da, 5, 2, 3, 33, 165, 90, 90, 165, 161, 88, 2, 0.592705
192, 3, wb, attraction, a-b-da, 14, 1, 3, 34, 135, 60, 125, 56, 60, 135, 2, 1.06237
192, 3, wb, attraction, a-b-da, 14, 1, 3, 34, 135, 60, 125, 56, 60, 135, 3, 0.69882
192, 3, wb, attraction, a-b-db, 14, 2, 3, 35, 83, 153, 165, 90, 90, 165, 1, 1.34046
192, 3, wb, attraction, a-b-db, 14, 2, 3, 35, 83, 153, 165, 90, 90, 165, 3, 2.2293
192, 3, wb, attraction, a-b-da, 14, 3, 3, 36, 195, 120, 181, 111, 120, 195, 2, 4.09719
192, 3, wb, attraction, a-b-da, 14, 3, 3, 36, 195, 120, 181, 111, 120, 195, 3, 1.9872
192, 3, wb, attraction, a-b-db, 2, 1, 3, 37, 59, 134, 135, 60, 60, 135, 1, 4.16922
192, 3, wb, attraction, a-b-db, 2, 1, 3, 37, 59, 134, 135, 60, 60, 135, 2, 0.368568
192, 3, wb, attraction, a-b-db, 14, 1, 4, 1, 135, 60, 56, 125, 60, 135, 3, 1.59971
192, 3, wb, attraction, a-b-db, 14, 1, 4, 1, 135, 60, 56, 125, 60, 135, 1, 0.574567
192, 3, wb, attraction, a-b-db, 5, 2, 4, 2, 90, 165, 88, 161, 165, 90, 3, 1.57296
192, 3, wb, attraction, a-b-db, 5, 2, 4, 2, 90, 165, 88, 161, 165, 90, 2, 0.588486
192, 3, wb, attraction, a-b-da, 9, 2, 4, 3, 90, 165, 165, 90, 157, 86, 3, 4.6109
192, 3, wb, attraction, a-b-da, 9, 2, 4, 3, 90, 165, 165, 90, 157, 86, 1, 1.98417
192, 3, wb, attraction, a-b-da, 5, 2, 4, 4, 165, 90, 161, 88, 90, 165, 2, 5.58212
192, 3, wb, attraction, a-b-da, 5, 2, 4, 4, 165, 90, 161, 88, 90, 165, 3, 0.492339
192, 3, wb, attraction, a-b-db, 14, 2, 4, 5, 165, 90, 90, 165, 83, 153, 3, 1.23802
192, 3, wb, attraction, a-b-db, 14, 2, 4, 5, 165, 90, 90, 165, 83, 153, 2, 0.467647
192, 3, wb, filler, NA, 999, 999, 4, 6, 95, 106, 141, 67, 169, 112, 1, 3.72673
192, 3, wb, filler, NA, 999, 999, 4, 6, 95, 106, 141, 67, 169, 112, 2, 0.447598
192, 3, wb, filler, NA, 999, 999, 4, 7, 152, 129, 90, 68, 168, 178, 2, 0.875355
192, 3, wb, filler, NA, 999, 999, 4, 7, 152, 129, 90, 68, 168, 178, 3, 0.439033
192, 3, wb, attraction, a-b-da, 14, 2, 4, 8, 90, 165, 165, 90, 153, 83, 3, 2.70755
192, 3, wb, attraction, a-b-da, 14, 2, 4, 8, 90, 165, 165, 90, 153, 83, 1, 0.461344
192, 3, wb, attraction, a-b-da, 5, 1, 4, 9, 60, 135, 132, 58, 135, 60, 1, 1.70445
192, 3, wb, attraction, a-b-da, 5, 1, 4, 9, 60, 135, 132, 58, 135, 60, 3, 0.90682
192, 3, wb, attraction, a-b-da, 9, 1, 4, 10, 135, 60, 60, 135, 129, 57, 3, 0.987593
192, 3, wb, attraction, a-b-da, 9, 1, 4, 10, 135, 60, 60, 135, 129, 57, 2, 0.762584
192, 3, wb, catch, NA, 999, 999, 4, 11, 131, 184, 112, 83, 134, 121, 2, 0.937608
192, 3, wb, catch, NA, 999, 999, 4, 11, 131, 184, 112, 83, 134, 121, 1, 0.419234
192, 3, wb, attraction, a-b-db, 9, 2, 4, 12, 90, 165, 86, 157, 165, 90, 3, 1.86455
192, 3, wb, attraction, a-b-db, 9, 2, 4, 12, 90, 165, 86, 157, 165, 90, 2, 0.452593
192, 3, wb, attraction, a-b-db, 9, 3, 4, 13, 114, 186, 195, 120, 120, 195, 1, 1.86427
192, 3, wb, attraction, a-b-db, 9, 3, 4, 13, 114, 186, 195, 120, 120, 195, 3, 0.796523
192, 3, wb, filler, NA, 999, 999, 4, 14, 83, 152, 167, 63, 138, 119, 1, 2.23408
192, 3, wb, filler, NA, 999, 999, 4, 14, 83, 152, 167, 63, 138, 119, 3, 0.887371
192, 3, wb, attraction, a-b-da, 2, 3, 4, 15, 120, 195, 195, 120, 193, 119, 3, 2.91381
192, 3, wb, attraction, a-b-da, 2, 3, 4, 15, 120, 195, 195, 120, 193, 119, 1, 0.419402
192, 3, wb, attraction, a-b-db, 5, 3, 4, 16, 117, 190, 195, 120, 120, 195, 1, 4.08866
192, 3, wb, attraction, a-b-db, 5, 3, 4, 16, 117, 190, 195, 120, 120, 195, 2, 0.627402
192, 3, wb, filler, NA, 999, 999, 4, 17, 67, 120, 175, 108, 124, 184, 1, 0.783684
192, 3, wb, filler, NA, 999, 999, 4, 17, 67, 120, 175, 108, 124, 184, 3, 0.823452
192, 3, wb, catch, NA, 999, 999, 4, 18, 177, 138, 114, 141, 132, 63, 3, 9.45185
192, 3, wb, catch, NA, 999, 999, 4, 18, 177, 138, 114, 141, 132, 63, 1, 0.478009
192, 3, wb, attraction, a-b-da, 5, 3, 4, 19, 120, 195, 195, 120, 190, 117, 1, 1.93653
192, 3, wb, attraction, a-b-da, 5, 3, 4, 19, 120, 195, 195, 120, 190, 117, 2, 1.04983
192, 3, wb, catch, NA, 999, 999, 4, 20, 157, 98, 169, 146, 111, 84, 3, 1.14959
192, 3, wb, catch, NA, 999, 999, 4, 20, 157, 98, 169, 146, 111, 84, 2, 0.5025
192, 3, wb, attraction, a-b-db, 2, 1, 4, 21, 60, 135, 59, 134, 135, 60, 3, 3.25629
192, 3, wb, attraction, a-b-db, 2, 1, 4, 21, 60, 135, 59, 134, 135, 60, 1, 0.596018
192, 3, wb, attraction, a-b-db, 2, 2, 4, 22, 165, 90, 89, 163, 90, 165, 1, 2.26564
192, 3, wb, attraction, a-b-db, 2, 2, 4, 22, 165, 90, 89, 163, 90, 165, 2, 0.757661
192, 3, wb, attraction, a-b-da, 14, 3, 4, 23, 120, 195, 195, 120, 181, 111, 3, 0.828574
192, 3, wb, attraction, a-b-da, 14, 3, 4, 23, 120, 195, 195, 120, 181, 111, 2, 0.490303
192, 3, wb, attraction, a-b-db, 14, 3, 4, 24, 111, 181, 120, 195, 195, 120, 1, 2.18038
192, 3, wb, attraction, a-b-db, 14, 3, 4, 24, 111, 181, 120, 195, 195, 120, 2, 0.467567
192, 3, wb, filler, NA, 999, 999, 4, 25, 93, 144, 186, 162, 158, 99, 1, 0.694457
192, 3, wb, filler, NA, 999, 999, 4, 25, 93, 144, 186, 162, 158, 99, 2, 0.425599
192, 3, wb, attraction, a-b-db, 9, 1, 4, 26, 57, 129, 135, 60, 60, 135, 2, 1.24629
192, 3, wb, attraction, a-b-db, 9, 1, 4, 26, 57, 129, 135, 60, 60, 135, 3, 0.451024
192, 3, wb, attraction, a-b-db, 5, 1, 4, 27, 60, 135, 135, 60, 58, 132, 2, 1.55874
192, 3, wb, attraction, a-b-db, 5, 1, 4, 27, 60, 135, 135, 60, 58, 132, 3, 0.463018
192, 3, wb, attraction, a-b-db, 2, 3, 4, 28, 119, 193, 195, 120, 120, 195, 3, 5.41819
192, 3, wb, attraction, a-b-db, 2, 3, 4, 28, 119, 193, 195, 120, 120, 195, 1, 1.52713
192, 3, wb, attraction, a-b-da, 14, 1, 4, 29, 125, 56, 60, 135, 135, 60, 1, 3.51918
192, 3, wb, attraction, a-b-da, 14, 1, 4, 29, 125, 56, 60, 135, 135, 60, 3, 0.592809
192, 3, wb, attraction, a-b-da, 9, 3, 4, 30, 195, 120, 120, 195, 186, 114, 3, 1.46249
192, 3, wb, attraction, a-b-da, 9, 3, 4, 30, 195, 120, 120, 195, 186, 114, 2, 1.26684
192, 3, wb, filler, NA, 999, 999, 4, 31, 68, 154, 78, 174, 169, 58, 3, 1.63146
192, 3, wb, filler, NA, 999, 999, 4, 31, 68, 154, 78, 174, 169, 58, 2, 2.43511
192, 3, wb, attraction, a-b-da, 2, 1, 4, 32, 60, 135, 135, 60, 134, 59, 1, 1.2468
192, 3, wb, attraction, a-b-da, 2, 1, 4, 32, 60, 135, 135, 60, 134, 59, 2, 0.483811
192, 3, wb, filler, NA, 999, 999, 4, 33, 60, 59, 88, 84, 119, 86, 1, 0.85418
192, 3, wb, filler, NA, 999, 999, 4, 33, 60, 59, 88, 84, 119, 86, 3, 0.731291
192, 3, wb, filler, NA, 999, 999, 4, 34, 66, 132, 58, 128, 114, 90, 2, 3.43566
192, 3, wb, filler, NA, 999, 999, 4, 34, 66, 132, 58, 128, 114, 90, 3, 1.34459
192, 3, wb, attraction, a-b-da, 2, 2, 4, 35, 165, 90, 90, 165, 163, 89, 2, 2.03205
192, 3, wb, attraction, a-b-da, 2, 2, 4, 35, 165, 90, 90, 165, 163, 89, 1, 0.389381
192, 3, wb, filler, NA, 999, 999, 4, 36, 97, 95, 183, 108, 142, 115, 1, 0.931891
192, 3, wb, filler, NA, 999, 999, 4, 36, 97, 95, 183, 108, 142, 115, 3, 0.573642
192, 3, wb, filler, NA, 999, 999, 4, 37, 135, 65, 160, 179, 129, 156, 1, 0.907983
192, 3, wb, filler, NA, 999, 999, 4, 37, 135, 65, 160, 179, 129, 156, 2, 0.574336
192, 3, wb, attraction, a-b-db, 5, 2, 5, 1, 90, 165, 165, 90, 88, 161, 3, 4.38742
192, 3, wb, attraction, a-b-db, 5, 2, 5, 1, 90, 165, 165, 90, 88, 161, 1, 0.698004
192, 3, wb, filler, NA, 999, 999, 5, 2, 150, 166, 125, 166, 118, 76, 3, 1.16373
192, 3, wb, filler, NA, 999, 999, 5, 2, 150, 166, 125, 166, 118, 76, 2, 0.364048
192, 3, wb, attraction, a-b-da, 14, 2, 5, 3, 153, 83, 165, 90, 90, 165, 1, 1.55527
192, 3, wb, attraction, a-b-da, 14, 2, 5, 3, 153, 83, 165, 90, 90, 165, 3, 0.611276
192, 3, wb, attraction, a-b-db, 9, 3, 5, 4, 114, 186, 120, 195, 195, 120, 3, 1.7124
192, 3, wb, attraction, a-b-db, 9, 3, 5, 4, 114, 186, 120, 195, 195, 120, 2, 0.36241
192, 3, wb, attraction, a-b-da, 2, 3, 5, 5, 120, 195, 193, 119, 195, 120, 3, 1.03369
192, 3, wb, attraction, a-b-da, 2, 3, 5, 5, 120, 195, 193, 119, 195, 120, 2, 0.439424
192, 3, wb, filler, NA, 999, 999, 5, 6, 78, 139, 96, 181, 126, 172, 1, 0.699764
192, 3, wb, filler, NA, 999, 999, 5, 6, 78, 139, 96, 181, 126, 172, 3, 0.479038
192, 3, wb, attraction, a-b-db, 14, 1, 5, 7, 56, 125, 135, 60, 60, 135, 1, 0.753267
192, 3, wb, attraction, a-b-db, 14, 1, 5, 7, 56, 125, 135, 60, 60, 135, 3, 0.842506
192, 3, wb, attraction, a-b-da, 2, 2, 5, 8, 90, 165, 163, 89, 165, 90, 3, 0.990188
192, 3, wb, attraction, a-b-da, 2, 2, 5, 8, 90, 165, 163, 89, 165, 90, 1, 0.349021
192, 3, wb, attraction, a-b-db, 5, 3, 5, 9, 120, 195, 117, 190, 195, 120, 1, 5.1252
192, 3, wb, attraction, a-b-db, 5, 3, 5, 9, 120, 195, 117, 190, 195, 120, 2, 0.333395
192, 3, wb, attraction, a-b-db, 5, 1, 5, 10, 135, 60, 60, 135, 58, 132, 1, 2.01381
192, 3, wb, attraction, a-b-db, 5, 1, 5, 10, 135, 60, 60, 135, 58, 132, 2, 0.435864
192, 3, wb, filler, NA, 999, 999, 5, 11, 184, 126, 148, 129, 108, 140, 3, 0.880227
192, 3, wb, filler, NA, 999, 999, 5, 11, 184, 126, 148, 129, 108, 140, 1, 2.26814
192, 3, wb, attraction, a-b-da, 5, 1, 5, 12, 132, 58, 135, 60, 60, 135, 3, 1.23059
192, 3, wb, attraction, a-b-da, 5, 1, 5, 12, 132, 58, 135, 60, 60, 135, 2, 0.65212
192, 3, wb, attraction, a-b-db, 9, 2, 5, 13, 86, 157, 90, 165, 165, 90, 3, 1.19983
192, 3, wb, attraction, a-b-db, 9, 2, 5, 13, 86, 157, 90, 165, 165, 90, 2, 0.430889
192, 3, wb, filler, NA, 999, 999, 5, 14, 75, 139, 121, 164, 146, 137, 1, 0.891256
192, 3, wb, filler, NA, 999, 999, 5, 14, 75, 139, 121, 164, 146, 137, 3, 0.870342
192, 3, wb, filler, NA, 999, 999, 5, 15, 69, 91, 168, 194, 170, 101, 1, 0.697364
192, 3, wb, filler, NA, 999, 999, 5, 15, 69, 91, 168, 194, 170, 101, 2, 0.636387
192, 3, wb, attraction, a-b-db, 9, 1, 5, 16, 60, 135, 57, 129, 135, 60, 2, 0.896795
192, 3, wb, attraction, a-b-db, 9, 1, 5, 16, 60, 135, 57, 129, 135, 60, 3, 0.387769
192, 3, wb, catch, NA, 999, 999, 5, 17, 193, 122, 106, 149, 110, 85, 3, 1.06628
192, 3, wb, catch, NA, 999, 999, 5, 17, 193, 122, 106, 149, 110, 85, 1, 0.438565
192, 3, wb, catch, NA, 999, 999, 5, 18, 107, 88, 115, 140, 124, 191, 1, 0.787063
192, 3, wb, catch, NA, 999, 999, 5, 18, 107, 88, 115, 140, 124, 191, 3, 0.322753
192, 3, wb, attraction, a-b-da, 14, 3, 5, 19, 120, 195, 195, 120, 181, 111, 3, 1.82791
192, 3, wb, attraction, a-b-da, 14, 3, 5, 19, 120, 195, 195, 120, 181, 111, 1, 0.769424
192, 3, wb, attraction, a-b-da, 9, 1, 5, 20, 129, 57, 60, 135, 135, 60, 2, 0.82443
192, 3, wb, attraction, a-b-da, 9, 1, 5, 20, 129, 57, 60, 135, 135, 60, 1, 1.07021
192, 3, wb, attraction, a-b-da, 14, 1, 5, 21, 125, 56, 60, 135, 135, 60, 1, 1.26515
192, 3, wb, attraction, a-b-da, 14, 1, 5, 21, 125, 56, 60, 135, 135, 60, 2, 0.733426
192, 3, wb, attraction, a-b-da, 9, 3, 5, 22, 195, 120, 120, 195, 186, 114, 3, 2.17383
192, 3, wb, attraction, a-b-da, 9, 3, 5, 22, 195, 120, 120, 195, 186, 114, 2, 0.813112
192, 3, wb, filler, NA, 999, 999, 5, 23, 165, 70, 118, 136, 141, 92, 3, 4.35402
192, 3, wb, filler, NA, 999, 999, 5, 23, 165, 70, 118, 136, 141, 92, 2, 0.625911
192, 3, wb, filler, NA, 999, 999, 5, 24, 119, 118, 147, 89, 194, 185, 1, 0.950421
192, 3, wb, filler, NA, 999, 999, 5, 24, 119, 118, 147, 89, 194, 185, 3, 0.471352
192, 3, wb, attraction, a-b-db, 14, 2, 5, 25, 165, 90, 83, 153, 90, 165, 1, 2.33852
192, 3, wb, attraction, a-b-db, 14, 2, 5, 25, 165, 90, 83, 153, 90, 165, 3, 0.531815
192, 3, wb, attraction, a-b-da, 5, 3, 5, 26, 190, 117, 120, 195, 195, 120, 3, 1.62832
192, 3, wb, attraction, a-b-da, 5, 3, 5, 26, 190, 117, 120, 195, 195, 120, 2, 0.42579
192, 3, wb, catch, NA, 999, 999, 5, 27, 132, 123, 134, 181, 131, 64, 3, 0.870064
192, 3, wb, catch, NA, 999, 999, 5, 27, 132, 123, 134, 181, 131, 64, 2, 0.610517
192, 3, wb, attraction, a-b-db, 14, 3, 5, 28, 195, 120, 120, 195, 111, 181, 3, 1.23164
192, 3, wb, attraction, a-b-db, 14, 3, 5, 28, 195, 120, 120, 195, 111, 181, 2, 0.541184
192, 3, wb, attraction, a-b-da, 5, 2, 5, 29, 90, 165, 165, 90, 161, 88, 3, 2.70899
192, 3, wb, attraction, a-b-da, 5, 2, 5, 29, 90, 165, 165, 90, 161, 88, 1, 1.00667
192, 3, wb, filler, NA, 999, 999, 5, 30, 107, 174, 140, 170, 94, 118, 3, 0.588497
192, 3, wb, filler, NA, 999, 999, 5, 30, 107, 174, 140, 170, 94, 118, 2, 0.339547
192, 3, wb, filler, NA, 999, 999, 5, 31, 112, 81, 183, 188, 195, 71, 1, 1.90798
192, 3, wb, filler, NA, 999, 999, 5, 31, 112, 81, 183, 188, 195, 71, 2, 0.654141
192, 3, wb, attraction, a-b-da, 2, 1, 5, 32, 134, 59, 60, 135, 135, 60, 3, 3.5298
192, 3, wb, attraction, a-b-da, 2, 1, 5, 32, 134, 59, 60, 135, 135, 60, 2, 0.450671
192, 3, wb, attraction, a-b-db, 2, 3, 5, 33, 120, 195, 119, 193, 195, 120, 3, 1.92651
192, 3, wb, attraction, a-b-db, 2, 3, 5, 33, 120, 195, 119, 193, 195, 120, 1, 1.55185
192, 3, wb, attraction, a-b-da, 9, 2, 5, 34, 157, 86, 165, 90, 90, 165, 1, 1.59936
192, 3, wb, attraction, a-b-da, 9, 2, 5, 34, 157, 86, 165, 90, 90, 165, 3, 0.60607
192, 3, wb, filler, NA, 999, 999, 5, 35, 92, 93, 131, 186, 112, 149, 1, 0.659746
192, 3, wb, filler, NA, 999, 999, 5, 35, 92, 93, 131, 186, 112, 149, 2, 0.416464
192, 3, wb, attraction, a-b-db, 2, 1, 5, 36, 60, 135, 135, 60, 59, 134, 1, 0.677457
192, 3, wb, attraction, a-b-db, 2, 1, 5, 36, 60, 135, 135, 60, 59, 134, 2, 0.44119
192, 3, wb, attraction, a-b-db, 2, 2, 5, 37, 165, 90, 89, 163, 90, 165, 3, 3.41311
192, 3, wb, attraction, a-b-db, 2, 2, 5, 37, 165, 90, 89, 163, 90, 165, 2, 0.722511
192, 3, wb, filler, NA, 999, 999, 6, 1, 112, 140, 155, 192, 135, 179, 1, 1.0436
192, 3, wb, filler, NA, 999, 999, 6, 1, 112, 140, 155, 192, 135, 179, 2, 0.512614
192, 3, wb, filler, NA, 999, 999, 6, 2, 89, 187, 60, 160, 75, 113, 2, 1.56164
192, 3, wb, filler, NA, 999, 999, 6, 2, 89, 187, 60, 160, 75, 113, 1, 0.74591
192, 3, wb, attraction, a-b-da, 5, 1, 6, 3, 60, 135, 135, 60, 132, 58, 2, 0.88972
192, 3, wb, attraction, a-b-da, 5, 1, 6, 3, 60, 135, 135, 60, 132, 58, 3, 0.548607
192, 3, wb, attraction, a-b-da, 2, 1, 6, 4, 134, 59, 60, 135, 135, 60, 2, 1.11641
192, 3, wb, attraction, a-b-da, 2, 1, 6, 4, 134, 59, 60, 135, 135, 60, 3, 0.638746
192, 3, wb, attraction, a-b-db, 9, 1, 6, 5, 60, 135, 135, 60, 57, 129, 2, 1.61101
192, 3, wb, attraction, a-b-db, 9, 1, 6, 5, 60, 135, 135, 60, 57, 129, 1, 0.833194
192, 3, wb, attraction, a-b-db, 2, 1, 6, 6, 59, 134, 135, 60, 60, 135, 1, 1.70947
192, 3, wb, attraction, a-b-db, 2, 1, 6, 6, 59, 134, 135, 60, 60, 135, 2, 0.343613
192, 3, wb, attraction, a-b-da, 5, 2, 6, 7, 90, 165, 165, 90, 161, 88, 3, 1.21556
192, 3, wb, attraction, a-b-da, 5, 2, 6, 7, 90, 165, 165, 90, 161, 88, 2, 0.741799
192, 3, wb, catch, NA, 999, 999, 6, 8, 185, 130, 99, 96, 93, 162, 2, 0.821437
192, 3, wb, catch, NA, 999, 999, 6, 8, 185, 130, 99, 96, 93, 162, 1, 0.363843
192, 3, wb, attraction, a-b-db, 5, 1, 6, 9, 60, 135, 58, 132, 135, 60, 2, 0.851003
192, 3, wb, attraction, a-b-db, 5, 1, 6, 9, 60, 135, 58, 132, 135, 60, 3, 0.616014
192, 3, wb, attraction, a-b-db, 14, 2, 6, 10, 90, 165, 83, 153, 165, 90, 2, 4.67706
192, 3, wb, attraction, a-b-db, 14, 2, 6, 10, 90, 165, 83, 153, 165, 90, 1, 0.543582
192, 3, wb, filler, NA, 999, 999, 6, 11, 101, 129, 180, 164, 75, 133, 3, 1.50338
192, 3, wb, filler, NA, 999, 999, 6, 11, 101, 129, 180, 164, 75, 133, 2, 0.938193
192, 3, wb, catch, NA, 999, 999, 6, 12, 194, 121, 112, 83, 161, 94, 2, 0.778533
192, 3, wb, catch, NA, 999, 999, 6, 12, 194, 121, 112, 83, 161, 94, 1, 0.33831
192, 3, wb, attraction, a-b-db, 9, 2, 6, 13, 86, 157, 90, 165, 165, 90, 1, 0.906888
192, 3, wb, attraction, a-b-db, 9, 2, 6, 13, 86, 157, 90, 165, 165, 90, 2, 0.29321
192, 3, wb, attraction, a-b-da, 5, 3, 6, 14, 190, 117, 120, 195, 195, 120, 1, 2.34322
192, 3, wb, attraction, a-b-da, 5, 3, 6, 14, 190, 117, 120, 195, 195, 120, 2, 0.343621
192, 3, wb, attraction, a-b-da, 2, 3, 6, 15, 195, 120, 193, 119, 120, 195, 3, 1.02351
192, 3, wb, attraction, a-b-da, 2, 3, 6, 15, 195, 120, 193, 119, 120, 195, 2, 0.309145
192, 3, wb, attraction, a-b-db, 9, 3, 6, 16, 114, 186, 195, 120, 120, 195, 2, 0.582257
192, 3, wb, attraction, a-b-db, 9, 3, 6, 16, 114, 186, 195, 120, 120, 195, 1, 0.29403
192, 3, wb, attraction, a-b-da, 2, 2, 6, 17, 165, 90, 90, 165, 163, 89, 1, 1.12788
192, 3, wb, attraction, a-b-da, 2, 2, 6, 17, 165, 90, 90, 165, 163, 89, 3, 0.777448
192, 3, wb, attraction, a-b-db, 2, 2, 6, 18, 165, 90, 90, 165, 89, 163, 3, 2.07181
192, 3, wb, attraction, a-b-db, 2, 2, 6, 18, 165, 90, 90, 165, 89, 163, 2, 0.96386
192, 3, wb, attraction, a-b-da, 14, 1, 6, 19, 135, 60, 60, 135, 125, 56, 3, 1.0348
192, 3, wb, attraction, a-b-da, 14, 1, 6, 19, 135, 60, 60, 135, 125, 56, 2, 0.568471
192, 3, wb, attraction, a-b-db, 5, 3, 6, 20, 195, 120, 117, 190, 120, 195, 3, 2.05565
192, 3, wb, attraction, a-b-db, 5, 3, 6, 20, 195, 120, 117, 190, 120, 195, 1, 0.811538
192, 3, wb, filler, NA, 999, 999, 6, 21, 116, 81, 76, 194, 83, 88, 3, 1.45657
192, 3, wb, filler, NA, 999, 999, 6, 21, 116, 81, 76, 194, 83, 88, 2, 0.46082
192, 3, wb, attraction, a-b-da, 9, 3, 6, 22, 195, 120, 120, 195, 186, 114, 3, 1.16791
192, 3, wb, attraction, a-b-da, 9, 3, 6, 22, 195, 120, 120, 195, 186, 114, 2, 0.760819
192, 3, wb, attraction, a-b-da, 14, 2, 6, 23, 153, 83, 90, 165, 165, 90, 1, 1.66327
192, 3, wb, attraction, a-b-da, 14, 2, 6, 23, 153, 83, 90, 165, 165, 90, 2, 0.62743
192, 3, wb, attraction, a-b-db, 2, 3, 6, 24, 120, 195, 195, 120, 119, 193, 3, 3.37583
192, 3, wb, attraction, a-b-db, 2, 3, 6, 24, 120, 195, 195, 120, 119, 193, 1, 0.886706
192, 3, wb, filler, NA, 999, 999, 6, 25, 112, 82, 102, 100, 104, 79, 3, 0.937061
192, 3, wb, filler, NA, 999, 999, 6, 25, 112, 82, 102, 100, 104, 79, 2, 0.482734
192, 3, wb, attraction, a-b-da, 14, 3, 6, 26, 181, 111, 195, 120, 120, 195, 1, 1.22106
192, 3, wb, attraction, a-b-da, 14, 3, 6, 26, 181, 111, 195, 120, 120, 195, 2, 0.45148
192, 3, wb, filler, NA, 999, 999, 6, 27, 167, 129, 134, 106, 156, 159, 2, 1.70321
192, 3, wb, filler, NA, 999, 999, 6, 27, 167, 129, 134, 106, 156, 159, 3, 0.417998
192, 3, wb, attraction, a-b-da, 9, 2, 6, 28, 90, 165, 157, 86, 165, 90, 1, 1.26313
192, 3, wb, attraction, a-b-da, 9, 2, 6, 28, 90, 165, 157, 86, 165, 90, 2, 0.419382
192, 3, wb, attraction, a-b-db, 14, 1, 6, 29, 60, 135, 135, 60, 56, 125, 3, 1.63247
192, 3, wb, attraction, a-b-db, 14, 1, 6, 29, 60, 135, 135, 60, 56, 125, 1, 1.77403
192, 3, wb, filler, NA, 999, 999, 6, 30, 108, 101, 163, 156, 69, 74, 3, 0.876016
192, 3, wb, filler, NA, 999, 999, 6, 30, 108, 101, 163, 156, 69, 74, 2, 0.58378
192, 3, wb, filler, NA, 999, 999, 6, 31, 83, 61, 122, 103, 83, 116, 1, 0.830322
192, 3, wb, filler, NA, 999, 999, 6, 31, 83, 61, 122, 103, 83, 116, 2, 0.33991
192, 3, wb, filler, NA, 999, 999, 6, 32, 163, 148, 136, 158, 148, 135, 3, 0.915793
192, 3, wb, filler, NA, 999, 999, 6, 32, 163, 148, 136, 158, 148, 135, 2, 0.390081
192, 3, wb, attraction, a-b-da, 9, 1, 6, 33, 60, 135, 129, 57, 135, 60, 3, 0.667876
192, 3, wb, attraction, a-b-da, 9, 1, 6, 33, 60, 135, 129, 57, 135, 60, 1, 0.496317
192, 3, wb, catch, NA, 999, 999, 6, 34, 194, 121, 110, 145, 113, 82, 3, 1.01805
192, 3, wb, catch, NA, 999, 999, 6, 34, 194, 121, 110, 145, 113, 82, 1, 0.912489
192, 3, wb, filler, NA, 999, 999, 6, 35, 127, 88, 194, 104, 105, 160, 1, 0.985417
192, 3, wb, filler, NA, 999, 999, 6, 35, 127, 88, 194, 104, 105, 160, 2, 1.20112
192, 3, wb, attraction, a-b-db, 14, 3, 6, 36, 195, 120, 111, 181, 120, 195, 2, 2.14268
192, 3, wb, attraction, a-b-db, 14, 3, 6, 36, 195, 120, 111, 181, 120, 195, 3, 2.27138
192, 3, wb, attraction, a-b-db, 5, 2, 6, 37, 165, 90, 88, 161, 90, 165, 1, 2.04188
192, 3, wb, attraction, a-b-db, 5, 2, 6, 37, 165, 90, 88, 161, 90, 165, 2, 0.334562
192, 3, wb, filler, NA, 999, 999, 7, 1, 75, 130, 178, 63, 165, 78, 1, 0.679052
192, 3, wb, filler, NA, 999, 999, 7, 1, 75, 130, 178, 63, 165, 78, 3, 0.666708
192, 3, wb, attraction, a-b-db, 5, 3, 7, 2, 120, 195, 117, 190, 195, 120, 3, 1.44584
192, 3, wb, attraction, a-b-db, 5, 3, 7, 2, 120, 195, 117, 190, 195, 120, 1, 0.634836
192, 3, wb, catch, NA, 999, 999, 7, 3, 118, 77, 116, 139, 187, 128, 1, 0.751122
192, 3, wb, catch, NA, 999, 999, 7, 3, 118, 77, 116, 139, 187, 128, 3, 0.531097
192, 3, wb, filler, NA, 999, 999, 7, 4, 81, 143, 182, 148, 138, 77, 3, 0.784675
192, 3, wb, filler, NA, 999, 999, 7, 4, 81, 143, 182, 148, 138, 77, 2, 0.584459
192, 3, wb, attraction, a-b-da, 14, 2, 7, 5, 153, 83, 165, 90, 90, 165, 1, 1.11079
192, 3, wb, attraction, a-b-da, 14, 2, 7, 5, 153, 83, 165, 90, 90, 165, 3, 0.561128
192, 3, wb, filler, NA, 999, 999, 7, 6, 78, 154, 56, 188, 125, 108, 2, 0.920236
192, 3, wb, filler, NA, 999, 999, 7, 6, 78, 154, 56, 188, 125, 108, 3, 0.434522
192, 3, wb, attraction, a-b-db, 9, 3, 7, 7, 114, 186, 195, 120, 120, 195, 1, 0.91916
192, 3, wb, attraction, a-b-db, 9, 3, 7, 7, 114, 186, 195, 120, 120, 195, 2, 0.529404
192, 3, wb, attraction, a-b-da, 9, 1, 7, 8, 129, 57, 135, 60, 60, 135, 1, 1.58587
192, 3, wb, attraction, a-b-da, 9, 1, 7, 8, 129, 57, 135, 60, 60, 135, 2, 0.513263
192, 3, wb, attraction, a-b-db, 9, 2, 7, 9, 90, 165, 86, 157, 165, 90, 3, 1.33037
192, 3, wb, attraction, a-b-db, 9, 2, 7, 9, 90, 165, 86, 157, 165, 90, 1, 0.39594
192, 3, wb, attraction, a-b-db, 5, 1, 7, 10, 135, 60, 60, 135, 58, 132, 2, 0.633818
192, 3, wb, attraction, a-b-db, 5, 1, 7, 10, 135, 60, 60, 135, 58, 132, 3, 1.0396
192, 3, wb, filler, NA, 999, 999, 7, 11, 67, 115, 84, 60, 147, 185, 2, 0.747799
192, 3, wb, filler, NA, 999, 999, 7, 11, 67, 115, 84, 60, 147, 185, 3, 0.460986
192, 3, wb, filler, NA, 999, 999, 7, 12, 78, 116, 104, 174, 120, 179, 1, 0.632024
192, 3, wb, filler, NA, 999, 999, 7, 12, 78, 116, 104, 174, 120, 179, 3, 0.613757
192, 3, wb, attraction, a-b-db, 2, 1, 7, 13, 59, 134, 60, 135, 135, 60, 2, 4.8829
192, 3, wb, attraction, a-b-db, 2, 1, 7, 13, 59, 134, 60, 135, 135, 60, 3, 0.525334
192, 3, wb, attraction, a-b-da, 5, 2, 7, 14, 90, 165, 165, 90, 161, 88, 2, 1.63783
192, 3, wb, attraction, a-b-da, 5, 2, 7, 14, 90, 165, 165, 90, 161, 88, 1, 0.346561
192, 3, wb, attraction, a-b-da, 9, 2, 7, 15, 90, 165, 157, 86, 165, 90, 2, 0.810575
192, 3, wb, attraction, a-b-da, 9, 2, 7, 15, 90, 165, 157, 86, 165, 90, 1, 0.856812
192, 3, wb, attraction, a-b-db, 2, 3, 7, 16, 119, 193, 120, 195, 195, 120, 3, 3.52449
192, 3, wb, attraction, a-b-db, 2, 3, 7, 16, 119, 193, 120, 195, 195, 120, 1, 1.82938
192, 3, wb, attraction, a-b-db, 14, 1, 7, 17, 135, 60, 56, 125, 60, 135, 2, 0.929387
192, 3, wb, attraction, a-b-db, 14, 1, 7, 17, 135, 60, 56, 125, 60, 135, 3, 0.827173
192, 3, wb, attraction, a-b-da, 9, 3, 7, 18, 186, 114, 195, 120, 120, 195, 1, 1.06341
192, 3, wb, attraction, a-b-da, 9, 3, 7, 18, 186, 114, 195, 120, 120, 195, 3, 0.499739
192, 3, wb, attraction, a-b-da, 14, 3, 7, 19, 181, 111, 195, 120, 120, 195, 1, 3.29346
192, 3, wb, attraction, a-b-da, 14, 3, 7, 19, 181, 111, 195, 120, 120, 195, 2, 0.447882
192, 3, wb, filler, NA, 999, 999, 7, 20, 195, 192, 191, 60, 131, 137, 2, 0.755662
192, 3, wb, filler, NA, 999, 999, 7, 20, 195, 192, 191, 60, 131, 137, 1, 0.324049
192, 3, wb, attraction, a-b-da, 2, 3, 7, 21, 193, 119, 120, 195, 195, 120, 3, 1.0765
192, 3, wb, attraction, a-b-da, 2, 3, 7, 21, 193, 119, 120, 195, 195, 120, 1, 1.01619
192, 3, wb, attraction, a-b-db, 5, 2, 7, 22, 165, 90, 90, 165, 88, 161, 3, 1.47715
192, 3, wb, attraction, a-b-db, 5, 2, 7, 22, 165, 90, 90, 165, 88, 161, 1, 1.21678
192, 3, wb, catch, NA, 999, 999, 7, 23, 141, 114, 73, 122, 175, 140, 2, 0.549501
192, 3, wb, catch, NA, 999, 999, 7, 23, 141, 114, 73, 122, 175, 140, 3, 0.38271
192, 3, wb, attraction, a-b-db, 9, 1, 7, 24, 60, 135, 135, 60, 57, 129, 2, 0.765187
192, 3, wb, attraction, a-b-db, 9, 1, 7, 24, 60, 135, 135, 60, 57, 129, 3, 0.397674
192, 3, wb, attraction, a-b-da, 2, 2, 7, 25, 163, 89, 90, 165, 165, 90, 2, 1.43818
192, 3, wb, attraction, a-b-da, 2, 2, 7, 25, 163, 89, 90, 165, 165, 90, 3, 0.400157
192, 3, wb, attraction, a-b-db, 14, 2, 7, 26, 165, 90, 83, 153, 90, 165, 2, 0.845977
192, 3, wb, attraction, a-b-db, 14, 2, 7, 26, 165, 90, 83, 153, 90, 165, 1, 0.587032
192, 3, wb, attraction, a-b-da, 5, 1, 7, 27, 135, 60, 132, 58, 60, 135, 2, 0.585581
192, 3, wb, attraction, a-b-da, 5, 1, 7, 27, 135, 60, 132, 58, 60, 135, 1, 0.673333
192, 3, wb, filler, NA, 999, 999, 7, 28, 169, 148, 134, 186, 62, 185, 3, 0.691752
192, 3, wb, filler, NA, 999, 999, 7, 28, 169, 148, 134, 186, 62, 185, 2, 0.414794
192, 3, wb, filler, NA, 999, 999, 7, 29, 194, 112, 183, 150, 94, 105, 3, 0.515916
192, 3, wb, filler, NA, 999, 999, 7, 29, 194, 112, 183, 150, 94, 105, 2, 0.382434
192, 3, wb, filler, NA, 999, 999, 7, 30, 160, 161, 114, 102, 144, 169, 2, 0.796904
192, 3, wb, filler, NA, 999, 999, 7, 30, 160, 161, 114, 102, 144, 169, 1, 0.659913
192, 3, wb, attraction, a-b-db, 14, 3, 7, 31, 195, 120, 111, 181, 120, 195, 2, 0.902988
192, 3, wb, attraction, a-b-db, 14, 3, 7, 31, 195, 120, 111, 181, 120, 195, 3, 1.06619
192, 3, wb, attraction, a-b-da, 14, 1, 7, 32, 125, 56, 135, 60, 60, 135, 3, 0.868878
192, 3, wb, attraction, a-b-da, 14, 1, 7, 32, 125, 56, 135, 60, 60, 135, 2, 1.28142
192, 3, wb, filler, NA, 999, 999, 7, 33, 82, 75, 159, 175, 173, 105, 1, 0.659501
192, 3, wb, filler, NA, 999, 999, 7, 33, 82, 75, 159, 175, 173, 105, 2, 0.336001
192, 3, wb, attraction, a-b-da, 5, 3, 7, 34, 120, 195, 190, 117, 195, 120, 3, 0.768524
192, 3, wb, attraction, a-b-da, 5, 3, 7, 34, 120, 195, 190, 117, 195, 120, 2, 0.400928
192, 3, wb, attraction, a-b-db, 2, 2, 7, 35, 89, 163, 165, 90, 90, 165, 2, 0.782765
192, 3, wb, attraction, a-b-db, 2, 2, 7, 35, 89, 163, 165, 90, 90, 165, 3, 0.574497
192, 3, wb, catch, NA, 999, 999, 7, 36, 157, 158, 106, 149, 112, 83, 3, 0.988983
192, 3, wb, catch, NA, 999, 999, 7, 36, 157, 158, 106, 149, 112, 83, 1, 0.491805
192, 3, wb, attraction, a-b-da, 2, 1, 7, 37, 60, 135, 135, 60, 134, 59, 1, 0.765638
192, 3, wb, attraction, a-b-da, 2, 1, 7, 37, 60, 135, 135, 60, 134, 59, 3, 0.909981
192, 3, wb, filler, NA, 999, 999, 8, 1, 110, 121, 137, 152, 195, 81, 1, 0.64699
192, 3, wb, filler, NA, 999, 999, 8, 1, 110, 121, 137, 152, 195, 81, 2, 3.01224
192, 3, wb, attraction, a-b-db, 9, 2, 8, 2, 165, 90, 90, 165, 86, 157, 1, 2.6404
192, 3, wb, attraction, a-b-db, 9, 2, 8, 2, 165, 90, 90, 165, 86, 157, 2, 0.66089
192, 3, wb, attraction, a-b-da, 2, 1, 8, 3, 134, 59, 60, 135, 135, 60, 1, 1.13602
192, 3, wb, attraction, a-b-da, 2, 1, 8, 3, 134, 59, 60, 135, 135, 60, 3, 0.977767
192, 3, wb, attraction, a-b-da, 9, 1, 8, 4, 129, 57, 135, 60, 60, 135, 2, 0.855947
192, 3, wb, attraction, a-b-da, 9, 1, 8, 4, 129, 57, 135, 60, 60, 135, 1, 1.04428
192, 3, wb, filler, NA, 999, 999, 8, 5, 61, 74, 56, 121, 101, 191, 1, 0.983962
192, 3, wb, filler, NA, 999, 999, 8, 5, 61, 74, 56, 121, 101, 191, 3, 0.527531
192, 3, wb, attraction, a-b-da, 9, 2, 8, 6, 165, 90, 90, 165, 157, 86, 3, 2.00799
192, 3, wb, attraction, a-b-da, 9, 2, 8, 6, 165, 90, 90, 165, 157, 86, 2, 0.438119
192, 3, wb, attraction, a-b-da, 2, 3, 8, 7, 120, 195, 195, 120, 193, 119, 3, 2.49047
192, 3, wb, attraction, a-b-da, 2, 3, 8, 7, 120, 195, 195, 120, 193, 119, 2, 0.517002
192, 3, wb, attraction, a-b-da, 5, 3, 8, 8, 190, 117, 120, 195, 195, 120, 1, 1.27819
192, 3, wb, attraction, a-b-da, 5, 3, 8, 8, 190, 117, 120, 195, 195, 120, 2, 0.793719
192, 3, wb, attraction, a-b-db, 2, 2, 8, 9, 89, 163, 90, 165, 165, 90, 3, 2.03956
192, 3, wb, attraction, a-b-db, 2, 2, 8, 9, 89, 163, 90, 165, 165, 90, 2, 1.37215
192, 3, wb, attraction, a-b-db, 2, 3, 8, 10, 195, 120, 120, 195, 119, 193, 3, 4.99491
192, 3, wb, attraction, a-b-db, 2, 3, 8, 10, 195, 120, 120, 195, 119, 193, 2, 0.776871
192, 3, wb, attraction, a-b-db, 9, 3, 8, 11, 120, 195, 114, 186, 195, 120, 3, 1.04701
192, 3, wb, attraction, a-b-db, 9, 3, 8, 11, 120, 195, 114, 186, 195, 120, 2, 0.636079
192, 3, wb, attraction, a-b-da, 5, 2, 8, 12, 161, 88, 90, 165, 165, 90, 1, 4.4485
192, 3, wb, attraction, a-b-da, 5, 2, 8, 12, 161, 88, 90, 165, 165, 90, 2, 0.500307
192, 3, wb, filler, NA, 999, 999, 8, 13, 166, 182, 166, 135, 122, 84, 3, 0.838107
192, 3, wb, filler, NA, 999, 999, 8, 13, 166, 182, 166, 135, 122, 84, 1, 0.523308
192, 3, wb, attraction, a-b-db, 5, 1, 8, 14, 58, 132, 60, 135, 135, 60, 3, 1.45168
192, 3, wb, attraction, a-b-db, 5, 1, 8, 14, 58, 132, 60, 135, 135, 60, 2, 0.5685
192, 3, wb, attraction, a-b-da, 5, 1, 8, 15, 135, 60, 60, 135, 132, 58, 3, 0.671629
192, 3, wb, attraction, a-b-da, 5, 1, 8, 15, 135, 60, 60, 135, 132, 58, 1, 0.507475
192, 3, wb, catch, NA, 999, 999, 8, 16, 131, 184, 130, 65, 133, 122, 2, 0.596588
192, 3, wb, catch, NA, 999, 999, 8, 16, 131, 184, 130, 65, 133, 122, 3, 0.435568
192, 3, wb, attraction, a-b-da, 14, 3, 8, 17, 120, 195, 181, 111, 195, 120, 2, 1.67205
192, 3, wb, attraction, a-b-da, 14, 3, 8, 17, 120, 195, 181, 111, 195, 120, 1, 0.603675
192, 3, wb, attraction, a-b-db, 5, 2, 8, 18, 90, 165, 88, 161, 165, 90, 3, 0.753379
192, 3, wb, attraction, a-b-db, 5, 2, 8, 18, 90, 165, 88, 161, 165, 90, 2, 1.52234
192, 3, wb, attraction, a-b-db, 14, 3, 8, 19, 111, 181, 120, 195, 195, 120, 3, 1.51525
192, 3, wb, attraction, a-b-db, 14, 3, 8, 19, 111, 181, 120, 195, 195, 120, 2, 0.581213
192, 3, wb, attraction, a-b-db, 14, 2, 8, 20, 83, 153, 90, 165, 165, 90, 1, 0.812401
192, 3, wb, attraction, a-b-db, 14, 2, 8, 20, 83, 153, 90, 165, 165, 90, 2, 0.666093
192, 3, wb, filler, NA, 999, 999, 8, 21, 99, 172, 72, 133, 96, 73, 3, 1.41319
192, 3, wb, filler, NA, 999, 999, 8, 21, 99, 172, 72, 133, 96, 73, 1, 0.547493
192, 3, wb, attraction, a-b-da, 14, 1, 8, 22, 135, 60, 60, 135, 125, 56, 3, 0.651068
192, 3, wb, attraction, a-b-da, 14, 1, 8, 22, 135, 60, 60, 135, 125, 56, 1, 0.464312
192, 3, wb, attraction, a-b-db, 9, 1, 8, 23, 135, 60, 57, 129, 60, 135, 2, 0.731402
192, 3, wb, attraction, a-b-db, 9, 1, 8, 23, 135, 60, 57, 129, 60, 135, 3, 0.349086
192, 3, wb, filler, NA, 999, 999, 8, 24, 194, 134, 127, 139, 90, 186, 3, 0.852969
192, 3, wb, filler, NA, 999, 999, 8, 24, 194, 134, 127, 139, 90, 186, 1, 0.370006
192, 3, wb, catch, NA, 999, 999, 8, 25, 127, 128, 123, 192, 101, 94, 3, 0.705227
192, 3, wb, catch, NA, 999, 999, 8, 25, 127, 128, 123, 192, 101, 94, 2, 2.31558
192, 3, wb, attraction, a-b-db, 14, 1, 8, 26, 60, 135, 135, 60, 56, 125, 3, 0.676077
192, 3, wb, attraction, a-b-db, 14, 1, 8, 26, 60, 135, 135, 60, 56, 125, 2, 0.799853
192, 3, wb, filler, NA, 999, 999, 8, 27, 153, 178, 195, 176, 91, 142, 3, 0.581526
192, 3, wb, filler, NA, 999, 999, 8, 27, 153, 178, 195, 176, 91, 142, 2, 0.661309
192, 3, wb, filler, NA, 999, 999, 8, 28, 176, 165, 192, 105, 147, 85, 3, 0.584403
192, 3, wb, filler, NA, 999, 999, 8, 28, 176, 165, 192, 105, 147, 85, 1, 0.456213
192, 3, wb, filler, NA, 999, 999, 8, 29, 114, 153, 97, 157, 162, 74, 3, 1.01211
192, 3, wb, filler, NA, 999, 999, 8, 29, 114, 153, 97, 157, 162, 74, 1, 0.634354
192, 3, wb, attraction, a-b-da, 9, 3, 8, 30, 186, 114, 120, 195, 195, 120, 2, 1.03081
192, 3, wb, attraction, a-b-da, 9, 3, 8, 30, 186, 114, 120, 195, 195, 120, 3, 0.420388
192, 3, wb, attraction, a-b-da, 2, 2, 8, 31, 90, 165, 165, 90, 163, 89, 3, 0.665544
192, 3, wb, attraction, a-b-da, 2, 2, 8, 31, 90, 165, 165, 90, 163, 89, 2, 0.453994
192, 3, wb, catch, NA, 999, 999, 8, 32, 159, 156, 123, 132, 106, 89, 3, 0.553752
192, 3, wb, catch, NA, 999, 999, 8, 32, 159, 156, 123, 132, 106, 89, 1, 0.386902
192, 3, wb, filler, NA, 999, 999, 8, 33, 99, 85, 167, 104, 156, 115, 1, 0.737418
192, 3, wb, filler, NA, 999, 999, 8, 33, 99, 85, 167, 104, 156, 115, 3, 0.299161
192, 3, wb, attraction, a-b-db, 5, 3, 8, 34, 117, 190, 195, 120, 120, 195, 3, 0.748968
192, 3, wb, attraction, a-b-db, 5, 3, 8, 34, 117, 190, 195, 120, 120, 195, 2, 0.614134
192, 3, wb, attraction, a-b-db, 2, 1, 8, 35, 59, 134, 60, 135, 135, 60, 3, 0.659262
192, 3, wb, attraction, a-b-db, 2, 1, 8, 35, 59, 134, 60, 135, 135, 60, 1, 0.375627
192, 3, wb, filler, NA, 999, 999, 8, 36, 137, 61, 138, 139, 96, 157, 3, 0.342318
192, 3, wb, filler, NA, 999, 999, 8, 36, 137, 61, 138, 139, 96, 157, 2, 1.37527
192, 3, wb, attraction, a-b-da, 14, 2, 8, 37, 153, 83, 90, 165, 165, 90, 2, 3.1495
192, 3, wb, attraction, a-b-da, 14, 2, 8, 37, 153, 83, 90, 165, 165, 90, 1, 0.445812
