sub_n, computer_n, bw_cond, effect, set, distance, diag, block_n, trial_n, h1, w1, h2, w2, h3, w3, choice, rt 
164, 3, wb, practice, NA, 999, 999, 0, 1, 71, 186, 98, 129, 79, 181, 1, 11.0122
164, 3, wb, practice, NA, 999, 999, 0, 1, 71, 186, 98, 129, 79, 181, 3, 4.19195
164, 3, wb, practice, NA, 999, 999, 0, 2, 162, 167, 157, 79, 95, 89, 3, 3.50646
164, 3, wb, practice, NA, 999, 999, 0, 2, 162, 167, 157, 79, 95, 89, 1, 1.22941
164, 3, wb, practice, NA, 999, 999, 0, 3, 145, 62, 72, 97, 148, 157, 2, 2.58091
164, 3, wb, practice, NA, 999, 999, 0, 3, 145, 62, 72, 97, 148, 157, 3, 1.07982
164, 3, wb, attraction, a-b-da, 14, 2, 1, 1, 153, 83, 90, 165, 165, 90, 1, 3.56569
164, 3, wb, attraction, a-b-da, 14, 2, 1, 1, 153, 83, 90, 165, 165, 90, 2, 1.07738
164, 3, wb, filler, NA, 999, 999, 1, 2, 98, 169, 153, 70, 56, 191, 2, 2.57547
164, 3, wb, filler, NA, 999, 999, 1, 2, 98, 169, 153, 70, 56, 191, 1, 0.582641
164, 3, wb, filler, NA, 999, 999, 1, 3, 193, 128, 152, 90, 158, 70, 3, 1.10109
164, 3, wb, filler, NA, 999, 999, 1, 3, 193, 128, 152, 90, 158, 70, 1, 0.376029
164, 3, wb, attraction, a-b-da, 2, 2, 1, 4, 165, 90, 90, 165, 163, 89, 1, 3.31863
164, 3, wb, attraction, a-b-da, 2, 2, 1, 4, 165, 90, 90, 165, 163, 89, 2, 2.38406
164, 3, wb, attraction, a-b-db, 14, 1, 1, 5, 60, 135, 135, 60, 56, 125, 3, 1.93395
164, 3, wb, attraction, a-b-db, 14, 1, 1, 5, 60, 135, 135, 60, 56, 125, 1, 1.06337
164, 3, wb, filler, NA, 999, 999, 1, 6, 92, 191, 56, 178, 100, 192, 2, 1.17019
164, 3, wb, filler, NA, 999, 999, 1, 6, 92, 191, 56, 178, 100, 192, 3, 0.442538
164, 3, wb, filler, NA, 999, 999, 1, 7, 149, 124, 174, 56, 132, 163, 2, 1.27044
164, 3, wb, filler, NA, 999, 999, 1, 7, 149, 124, 174, 56, 132, 163, 3, 0.242687
164, 3, wb, attraction, a-b-da, 5, 2, 1, 8, 161, 88, 165, 90, 90, 165, 1, 1.94245
164, 3, wb, attraction, a-b-da, 5, 2, 1, 8, 161, 88, 165, 90, 90, 165, 3, 0.415163
164, 3, wb, attraction, a-b-db, 14, 2, 1, 9, 90, 165, 83, 153, 165, 90, 2, 1.37229
164, 3, wb, attraction, a-b-db, 14, 2, 1, 9, 90, 165, 83, 153, 165, 90, 1, 0.427775
164, 3, wb, catch, NA, 999, 999, 1, 10, 108, 87, 164, 151, 154, 101, 1, 1.00081
164, 3, wb, catch, NA, 999, 999, 1, 10, 108, 87, 164, 151, 154, 101, 2, 0.335335
164, 3, wb, attraction, a-b-da, 14, 3, 1, 11, 181, 111, 195, 120, 120, 195, 1, 1.68793
164, 3, wb, attraction, a-b-da, 14, 3, 1, 11, 181, 111, 195, 120, 120, 195, 3, 0.266556
164, 3, wb, attraction, a-b-db, 5, 3, 1, 12, 120, 195, 117, 190, 195, 120, 2, 3.42179
164, 3, wb, attraction, a-b-db, 5, 3, 1, 12, 120, 195, 117, 190, 195, 120, 1, 0.298727
164, 3, wb, filler, NA, 999, 999, 1, 13, 187, 102, 149, 95, 113, 173, 2, 1.81253
164, 3, wb, filler, NA, 999, 999, 1, 13, 187, 102, 149, 95, 113, 173, 1, 0.346563
164, 3, wb, attraction, a-b-db, 9, 2, 1, 14, 86, 157, 165, 90, 90, 165, 1, 3.28248
164, 3, wb, attraction, a-b-db, 9, 2, 1, 14, 86, 157, 165, 90, 90, 165, 3, 0.309382
164, 3, wb, filler, NA, 999, 999, 1, 15, 178, 100, 174, 193, 78, 153, 3, 0.910548
164, 3, wb, filler, NA, 999, 999, 1, 15, 178, 100, 174, 193, 78, 153, 2, 0.553053
164, 3, wb, catch, NA, 999, 999, 1, 16, 146, 169, 130, 125, 61, 134, 3, 2.01663
164, 3, wb, catch, NA, 999, 999, 1, 16, 146, 169, 130, 125, 61, 134, 1, 0.486665
164, 3, wb, attraction, a-b-da, 9, 3, 1, 17, 186, 114, 195, 120, 120, 195, 1, 1.94508
164, 3, wb, attraction, a-b-da, 9, 3, 1, 17, 186, 114, 195, 120, 120, 195, 3, 0.849799
164, 3, wb, attraction, a-b-db, 2, 3, 1, 18, 120, 195, 119, 193, 195, 120, 3, 3.39759
164, 3, wb, attraction, a-b-db, 2, 3, 1, 18, 120, 195, 119, 193, 195, 120, 1, 0.355777
164, 3, wb, attraction, a-b-da, 9, 1, 1, 19, 60, 135, 129, 57, 135, 60, 3, 4.88368
164, 3, wb, attraction, a-b-da, 9, 1, 1, 19, 60, 135, 129, 57, 135, 60, 1, 0.358
164, 3, wb, filler, NA, 999, 999, 1, 20, 71, 119, 74, 170, 124, 180, 1, 1.09321
164, 3, wb, filler, NA, 999, 999, 1, 20, 71, 119, 74, 170, 124, 180, 3, 0.488205
164, 3, wb, attraction, a-b-db, 14, 3, 1, 21, 111, 181, 195, 120, 120, 195, 1, 1.67458
164, 3, wb, attraction, a-b-db, 14, 3, 1, 21, 111, 181, 195, 120, 120, 195, 3, 0.598184
164, 3, wb, attraction, a-b-da, 2, 3, 1, 22, 195, 120, 120, 195, 193, 119, 3, 2.77984
164, 3, wb, attraction, a-b-da, 2, 3, 1, 22, 195, 120, 120, 195, 193, 119, 1, 0.322915
164, 3, wb, attraction, a-b-db, 9, 3, 1, 23, 195, 120, 114, 186, 120, 195, 2, 3.03622
164, 3, wb, attraction, a-b-db, 9, 3, 1, 23, 195, 120, 114, 186, 120, 195, 1, 0.473231
164, 3, wb, attraction, a-b-da, 5, 1, 1, 24, 135, 60, 132, 58, 60, 135, 1, 1.18036
164, 3, wb, attraction, a-b-da, 5, 1, 1, 24, 135, 60, 132, 58, 60, 135, 3, 1.10787
164, 3, wb, attraction, a-b-db, 2, 1, 1, 25, 59, 134, 60, 135, 135, 60, 3, 1.88483
164, 3, wb, attraction, a-b-db, 2, 1, 1, 25, 59, 134, 60, 135, 135, 60, 2, 0.552095
164, 3, wb, attraction, a-b-da, 5, 3, 1, 26, 190, 117, 120, 195, 195, 120, 3, 5.96797
164, 3, wb, attraction, a-b-da, 5, 3, 1, 26, 190, 117, 120, 195, 195, 120, 2, 0.350871
164, 3, wb, attraction, a-b-da, 14, 1, 1, 27, 135, 60, 60, 135, 125, 56, 3, 1.34258
164, 3, wb, attraction, a-b-da, 14, 1, 1, 27, 135, 60, 60, 135, 125, 56, 2, 0.839616
164, 3, wb, attraction, a-b-db, 2, 2, 1, 28, 165, 90, 89, 163, 90, 165, 1, 2.61985
164, 3, wb, attraction, a-b-db, 2, 2, 1, 28, 165, 90, 89, 163, 90, 165, 2, 0.561668
164, 3, wb, catch, NA, 999, 999, 1, 29, 115, 140, 121, 194, 60, 135, 3, 1.17677
164, 3, wb, catch, NA, 999, 999, 1, 29, 115, 140, 121, 194, 60, 135, 2, 0.376336
164, 3, wb, attraction, a-b-da, 2, 1, 1, 30, 135, 60, 60, 135, 134, 59, 2, 4.8149
164, 3, wb, attraction, a-b-da, 2, 1, 1, 30, 135, 60, 60, 135, 134, 59, 1, 1.09195
164, 3, wb, attraction, a-b-db, 5, 2, 1, 31, 88, 161, 90, 165, 165, 90, 2, 1.89352
164, 3, wb, attraction, a-b-db, 5, 2, 1, 31, 88, 161, 90, 165, 165, 90, 3, 0.336276
164, 3, wb, attraction, a-b-da, 9, 2, 1, 32, 157, 86, 165, 90, 90, 165, 1, 1.44081
164, 3, wb, attraction, a-b-da, 9, 2, 1, 32, 157, 86, 165, 90, 90, 165, 3, 1.10971
164, 3, wb, filler, NA, 999, 999, 1, 33, 159, 188, 78, 87, 164, 121, 2, 0.766536
164, 3, wb, filler, NA, 999, 999, 1, 33, 159, 188, 78, 87, 164, 121, 1, 0.447129
164, 3, wb, filler, NA, 999, 999, 1, 34, 166, 76, 81, 175, 166, 82, 3, 2.40269
164, 3, wb, filler, NA, 999, 999, 1, 34, 166, 76, 81, 175, 166, 82, 2, 0.89736
164, 3, wb, attraction, a-b-db, 5, 1, 1, 35, 135, 60, 58, 132, 60, 135, 1, 2.07507
164, 3, wb, attraction, a-b-db, 5, 1, 1, 35, 135, 60, 58, 132, 60, 135, 3, 0.510357
164, 3, wb, filler, NA, 999, 999, 1, 36, 144, 190, 86, 89, 111, 79, 2, 0.759376
164, 3, wb, filler, NA, 999, 999, 1, 36, 144, 190, 86, 89, 111, 79, 1, 0.351882
164, 3, wb, attraction, a-b-db, 9, 1, 1, 37, 60, 135, 135, 60, 57, 129, 3, 1.57561
164, 3, wb, attraction, a-b-db, 9, 1, 1, 37, 60, 135, 135, 60, 57, 129, 1, 0.351134
164, 3, wb, filler, NA, 999, 999, 2, 1, 73, 144, 140, 175, 115, 133, 1, 0.638938
164, 3, wb, filler, NA, 999, 999, 2, 1, 73, 144, 140, 175, 115, 133, 2, 0.260051
164, 3, wb, attraction, a-b-da, 9, 3, 2, 2, 186, 114, 120, 195, 195, 120, 1, 1.39926
164, 3, wb, attraction, a-b-da, 9, 3, 2, 2, 186, 114, 120, 195, 195, 120, 2, 0.358083
164, 3, wb, attraction, a-b-da, 2, 2, 2, 3, 163, 89, 90, 165, 165, 90, 3, 2.1253
164, 3, wb, attraction, a-b-da, 2, 2, 2, 3, 163, 89, 90, 165, 165, 90, 2, 0.614621
164, 3, wb, attraction, a-b-da, 2, 1, 2, 4, 134, 59, 60, 135, 135, 60, 3, 3.39592
164, 3, wb, attraction, a-b-da, 2, 1, 2, 4, 134, 59, 60, 135, 135, 60, 2, 1.88186
164, 3, wb, filler, NA, 999, 999, 2, 5, 180, 145, 59, 97, 175, 178, 2, 1.53212
164, 3, wb, filler, NA, 999, 999, 2, 5, 180, 145, 59, 97, 175, 178, 3, 0.445657
164, 3, wb, attraction, a-b-db, 5, 1, 2, 6, 58, 132, 135, 60, 60, 135, 1, 1.19335
164, 3, wb, attraction, a-b-db, 5, 1, 2, 6, 58, 132, 135, 60, 60, 135, 3, 0.512378
164, 3, wb, attraction, a-b-db, 2, 1, 2, 7, 59, 134, 60, 135, 135, 60, 3, 1.21741
164, 3, wb, attraction, a-b-db, 2, 1, 2, 7, 59, 134, 60, 135, 135, 60, 1, 0.655607
164, 3, wb, filler, NA, 999, 999, 2, 8, 101, 87, 84, 141, 94, 60, 3, 1.04321
164, 3, wb, filler, NA, 999, 999, 2, 8, 101, 87, 84, 141, 94, 60, 2, 0.224295
164, 3, wb, attraction, a-b-da, 9, 1, 2, 9, 60, 135, 135, 60, 129, 57, 3, 1.57297
164, 3, wb, attraction, a-b-da, 9, 1, 2, 9, 60, 135, 135, 60, 129, 57, 1, 0.44421
164, 3, wb, attraction, a-b-db, 9, 3, 2, 10, 120, 195, 195, 120, 114, 186, 3, 1.49618
164, 3, wb, attraction, a-b-db, 9, 3, 2, 10, 120, 195, 195, 120, 114, 186, 1, 0.299103
164, 3, wb, attraction, a-b-db, 14, 1, 2, 11, 60, 135, 56, 125, 135, 60, 2, 1.42077
164, 3, wb, attraction, a-b-db, 14, 1, 2, 11, 60, 135, 56, 125, 135, 60, 3, 1.10705
164, 3, wb, catch, NA, 999, 999, 2, 12, 107, 148, 179, 136, 106, 89, 3, 0.787953
164, 3, wb, catch, NA, 999, 999, 2, 12, 107, 148, 179, 136, 106, 89, 2, 0.307025
164, 3, wb, filler, NA, 999, 999, 2, 13, 185, 65, 181, 172, 105, 94, 3, 2.25215
164, 3, wb, filler, NA, 999, 999, 2, 13, 185, 65, 181, 172, 105, 94, 2, 0.304837
164, 3, wb, attraction, a-b-da, 2, 3, 2, 14, 195, 120, 120, 195, 193, 119, 3, 1.41874
164, 3, wb, attraction, a-b-da, 2, 3, 2, 14, 195, 120, 120, 195, 193, 119, 1, 0.504799
164, 3, wb, attraction, a-b-db, 14, 3, 2, 15, 111, 181, 120, 195, 195, 120, 1, 1.08277
164, 3, wb, attraction, a-b-db, 14, 3, 2, 15, 111, 181, 120, 195, 195, 120, 3, 0.782174
164, 3, wb, attraction, a-b-db, 9, 2, 2, 16, 86, 157, 90, 165, 165, 90, 1, 1.50856
164, 3, wb, attraction, a-b-db, 9, 2, 2, 16, 86, 157, 90, 165, 165, 90, 2, 1.42272
164, 3, wb, attraction, a-b-db, 5, 2, 2, 17, 90, 165, 88, 161, 165, 90, 3, 3.79574
164, 3, wb, attraction, a-b-db, 5, 2, 2, 17, 90, 165, 88, 161, 165, 90, 2, 0.28163
164, 3, wb, attraction, a-b-db, 2, 3, 2, 18, 195, 120, 120, 195, 119, 193, 1, 1.7002
164, 3, wb, attraction, a-b-db, 2, 3, 2, 18, 195, 120, 120, 195, 119, 193, 2, 0.342998
164, 3, wb, attraction, a-b-da, 5, 2, 2, 19, 165, 90, 161, 88, 90, 165, 2, 3.18283
164, 3, wb, attraction, a-b-da, 5, 2, 2, 19, 165, 90, 161, 88, 90, 165, 3, 0.453807
164, 3, wb, filler, NA, 999, 999, 2, 20, 66, 77, 173, 83, 74, 92, 1, 0.905644
164, 3, wb, filler, NA, 999, 999, 2, 20, 66, 77, 173, 83, 74, 92, 2, 0.420089
164, 3, wb, filler, NA, 999, 999, 2, 21, 175, 108, 78, 166, 174, 125, 2, 0.961197
164, 3, wb, filler, NA, 999, 999, 2, 21, 175, 108, 78, 166, 174, 125, 3, 0.385487
164, 3, wb, attraction, a-b-da, 5, 3, 2, 22, 195, 120, 120, 195, 190, 117, 2, 1.66398
164, 3, wb, attraction, a-b-da, 5, 3, 2, 22, 195, 120, 120, 195, 190, 117, 1, 0.828269
164, 3, wb, filler, NA, 999, 999, 2, 23, 84, 195, 161, 182, 160, 172, 1, 1.21638
164, 3, wb, filler, NA, 999, 999, 2, 23, 84, 195, 161, 182, 160, 172, 2, 0.318678
164, 3, wb, attraction, a-b-db, 5, 3, 2, 24, 117, 190, 120, 195, 195, 120, 1, 1.48787
164, 3, wb, attraction, a-b-db, 5, 3, 2, 24, 117, 190, 120, 195, 195, 120, 3, 0.651401
164, 3, wb, attraction, a-b-da, 5, 1, 2, 25, 135, 60, 132, 58, 60, 135, 1, 1.87914
164, 3, wb, attraction, a-b-da, 5, 1, 2, 25, 135, 60, 132, 58, 60, 135, 3, 0.730539
164, 3, wb, filler, NA, 999, 999, 2, 26, 63, 110, 153, 93, 162, 72, 1, 0.683125
164, 3, wb, filler, NA, 999, 999, 2, 26, 63, 110, 153, 93, 162, 72, 2, 0.366626
164, 3, wb, filler, NA, 999, 999, 2, 27, 153, 68, 185, 106, 170, 92, 1, 0.701828
164, 3, wb, filler, NA, 999, 999, 2, 27, 153, 68, 185, 106, 170, 92, 2, 0.400888
164, 3, wb, attraction, a-b-db, 14, 2, 2, 28, 90, 165, 83, 153, 165, 90, 2, 1.21468
164, 3, wb, attraction, a-b-db, 14, 2, 2, 28, 90, 165, 83, 153, 165, 90, 1, 0.324891
164, 3, wb, attraction, a-b-da, 9, 2, 2, 29, 90, 165, 157, 86, 165, 90, 2, 1.47746
164, 3, wb, attraction, a-b-da, 9, 2, 2, 29, 90, 165, 157, 86, 165, 90, 1, 0.376994
164, 3, wb, catch, NA, 999, 999, 2, 30, 90, 165, 108, 87, 162, 153, 2, 0.703499
164, 3, wb, catch, NA, 999, 999, 2, 30, 90, 165, 108, 87, 162, 153, 3, 0.298711
164, 3, wb, attraction, a-b-da, 14, 2, 2, 31, 165, 90, 90, 165, 153, 83, 3, 0.852504
164, 3, wb, attraction, a-b-da, 14, 2, 2, 31, 165, 90, 90, 165, 153, 83, 1, 0.993529
164, 3, wb, attraction, a-b-da, 14, 3, 2, 32, 120, 195, 195, 120, 181, 111, 3, 1.89514
164, 3, wb, attraction, a-b-da, 14, 3, 2, 32, 120, 195, 195, 120, 181, 111, 1, 0.92981
164, 3, wb, attraction, a-b-da, 14, 1, 2, 33, 125, 56, 135, 60, 60, 135, 1, 1.58604
164, 3, wb, attraction, a-b-da, 14, 1, 2, 33, 125, 56, 135, 60, 60, 135, 2, 0.329541
164, 3, wb, attraction, a-b-db, 9, 1, 2, 34, 57, 129, 135, 60, 60, 135, 1, 1.32209
164, 3, wb, attraction, a-b-db, 9, 1, 2, 34, 57, 129, 135, 60, 60, 135, 3, 0.947587
164, 3, wb, catch, NA, 999, 999, 2, 35, 120, 75, 136, 119, 164, 151, 1, 0.651214
164, 3, wb, catch, NA, 999, 999, 2, 35, 120, 75, 136, 119, 164, 151, 3, 0.344467
164, 3, wb, attraction, a-b-db, 2, 2, 2, 36, 165, 90, 89, 163, 90, 165, 1, 4.99219
164, 3, wb, attraction, a-b-db, 2, 2, 2, 36, 165, 90, 89, 163, 90, 165, 2, 0.277919
164, 3, wb, filler, NA, 999, 999, 2, 37, 94, 152, 60, 97, 102, 88, 1, 0.86451
164, 3, wb, filler, NA, 999, 999, 2, 37, 94, 152, 60, 97, 102, 88, 2, 0.900883
164, 3, wb, attraction, a-b-da, 2, 2, 3, 1, 90, 165, 165, 90, 163, 89, 1, 0.670503
164, 3, wb, attraction, a-b-da, 2, 2, 3, 1, 90, 165, 165, 90, 163, 89, 2, 0.266322
164, 3, wb, filler, NA, 999, 999, 3, 2, 122, 102, 91, 109, 101, 194, 2, 0.88543
164, 3, wb, filler, NA, 999, 999, 3, 2, 122, 102, 91, 109, 101, 194, 3, 0.393175
164, 3, wb, attraction, a-b-db, 9, 3, 3, 3, 114, 186, 195, 120, 120, 195, 1, 1.68699
164, 3, wb, attraction, a-b-db, 9, 3, 3, 3, 114, 186, 195, 120, 120, 195, 2, 0.370445
164, 3, wb, filler, NA, 999, 999, 3, 4, 110, 189, 132, 137, 195, 113, 1, 5.33758
164, 3, wb, filler, NA, 999, 999, 3, 4, 110, 189, 132, 137, 195, 113, 3, 0.642023
164, 3, wb, filler, NA, 999, 999, 3, 5, 58, 70, 172, 185, 109, 84, 1, 0.6457
164, 3, wb, filler, NA, 999, 999, 3, 5, 58, 70, 172, 185, 109, 84, 2, 0.274772
164, 3, wb, filler, NA, 999, 999, 3, 6, 120, 57, 122, 171, 124, 73, 3, 0.933242
164, 3, wb, filler, NA, 999, 999, 3, 6, 120, 57, 122, 171, 124, 73, 2, 0.319003
164, 3, wb, filler, NA, 999, 999, 3, 7, 162, 191, 73, 69, 56, 113, 2, 0.816071
164, 3, wb, filler, NA, 999, 999, 3, 7, 162, 191, 73, 69, 56, 113, 1, 0.390533
164, 3, wb, attraction, a-b-db, 5, 3, 3, 8, 120, 195, 195, 120, 117, 190, 1, 1.49237
164, 3, wb, attraction, a-b-db, 5, 3, 3, 8, 120, 195, 195, 120, 117, 190, 2, 0.311154
164, 3, wb, attraction, a-b-db, 14, 2, 3, 9, 165, 90, 83, 153, 90, 165, 2, 2.5525
164, 3, wb, attraction, a-b-db, 14, 2, 3, 9, 165, 90, 83, 153, 90, 165, 1, 0.648855
164, 3, wb, attraction, a-b-da, 2, 1, 3, 10, 60, 135, 135, 60, 134, 59, 1, 1.06861
164, 3, wb, attraction, a-b-da, 2, 1, 3, 10, 60, 135, 135, 60, 134, 59, 2, 0.440893
164, 3, wb, attraction, a-b-db, 9, 2, 3, 11, 90, 165, 165, 90, 86, 157, 3, 1.20473
164, 3, wb, attraction, a-b-db, 9, 2, 3, 11, 90, 165, 165, 90, 86, 157, 2, 1.77112
164, 3, wb, attraction, a-b-da, 14, 1, 3, 12, 60, 135, 135, 60, 125, 56, 1, 1.42566
164, 3, wb, attraction, a-b-da, 14, 1, 3, 12, 60, 135, 135, 60, 125, 56, 2, 0.327194
164, 3, wb, filler, NA, 999, 999, 3, 13, 177, 80, 179, 79, 117, 184, 1, 1.57564
164, 3, wb, filler, NA, 999, 999, 3, 13, 177, 80, 179, 79, 117, 184, 3, 0.319241
164, 3, wb, filler, NA, 999, 999, 3, 14, 130, 164, 127, 194, 69, 76, 3, 1.37644
164, 3, wb, filler, NA, 999, 999, 3, 14, 130, 164, 127, 194, 69, 76, 2, 0.223916
164, 3, wb, attraction, a-b-db, 5, 1, 3, 15, 135, 60, 60, 135, 58, 132, 2, 1.19659
164, 3, wb, attraction, a-b-db, 5, 1, 3, 15, 135, 60, 60, 135, 58, 132, 1, 0.595345
164, 3, wb, attraction, a-b-da, 9, 2, 3, 16, 157, 86, 165, 90, 90, 165, 1, 0.961275
164, 3, wb, attraction, a-b-da, 9, 2, 3, 16, 157, 86, 165, 90, 90, 165, 3, 0.641479
164, 3, wb, attraction, a-b-db, 9, 1, 3, 17, 60, 135, 135, 60, 57, 129, 1, 0.92531
164, 3, wb, attraction, a-b-db, 9, 1, 3, 17, 60, 135, 135, 60, 57, 129, 2, 0.318931
164, 3, wb, filler, NA, 999, 999, 3, 18, 181, 58, 61, 177, 168, 58, 3, 1.37614
164, 3, wb, filler, NA, 999, 999, 3, 18, 181, 58, 61, 177, 168, 58, 2, 0.351711
164, 3, wb, attraction, a-b-db, 2, 2, 3, 19, 90, 165, 89, 163, 165, 90, 1, 1.19153
164, 3, wb, attraction, a-b-db, 2, 2, 3, 19, 90, 165, 89, 163, 165, 90, 2, 0.366478
164, 3, wb, catch, NA, 999, 999, 3, 20, 188, 127, 94, 161, 98, 97, 3, 1.14952
164, 3, wb, catch, NA, 999, 999, 3, 20, 188, 127, 94, 161, 98, 97, 1, 0.702497
164, 3, wb, attraction, a-b-da, 9, 3, 3, 21, 186, 114, 195, 120, 120, 195, 1, 1.23217
164, 3, wb, attraction, a-b-da, 9, 3, 3, 21, 186, 114, 195, 120, 120, 195, 3, 0.293935
164, 3, wb, attraction, a-b-da, 2, 3, 3, 22, 120, 195, 195, 120, 193, 119, 1, 1.03161
164, 3, wb, attraction, a-b-da, 2, 3, 3, 22, 120, 195, 195, 120, 193, 119, 2, 0.35735
164, 3, wb, attraction, a-b-da, 14, 3, 3, 23, 120, 195, 195, 120, 181, 111, 3, 1.26054
164, 3, wb, attraction, a-b-da, 14, 3, 3, 23, 120, 195, 195, 120, 181, 111, 2, 1.15273
164, 3, wb, filler, NA, 999, 999, 3, 24, 195, 126, 145, 134, 147, 112, 3, 0.984331
164, 3, wb, filler, NA, 999, 999, 3, 24, 195, 126, 145, 134, 147, 112, 1, 0.855997
164, 3, wb, attraction, a-b-da, 5, 2, 3, 25, 161, 88, 90, 165, 165, 90, 1, 1.55566
164, 3, wb, attraction, a-b-da, 5, 2, 3, 25, 161, 88, 90, 165, 165, 90, 3, 1.29174
164, 3, wb, filler, NA, 999, 999, 3, 26, 190, 190, 71, 121, 156, 87, 2, 0.637264
164, 3, wb, filler, NA, 999, 999, 3, 26, 190, 190, 71, 121, 156, 87, 1, 0.323065
164, 3, wb, catch, NA, 999, 999, 3, 27, 140, 175, 137, 118, 134, 61, 3, 0.860466
164, 3, wb, catch, NA, 999, 999, 3, 27, 140, 175, 137, 118, 134, 61, 1, 0.336647
164, 3, wb, attraction, a-b-da, 5, 1, 3, 28, 60, 135, 132, 58, 135, 60, 1, 0.657061
164, 3, wb, attraction, a-b-da, 5, 1, 3, 28, 60, 135, 132, 58, 135, 60, 3, 0.853605
164, 3, wb, attraction, a-b-da, 14, 2, 3, 29, 165, 90, 90, 165, 153, 83, 3, 1.23319
164, 3, wb, attraction, a-b-da, 14, 2, 3, 29, 165, 90, 90, 165, 153, 83, 1, 0.478796
164, 3, wb, attraction, a-b-db, 2, 1, 3, 30, 135, 60, 60, 135, 59, 134, 3, 1.72948
164, 3, wb, attraction, a-b-db, 2, 1, 3, 30, 135, 60, 60, 135, 59, 134, 1, 1.94677
164, 3, wb, attraction, a-b-db, 14, 3, 3, 31, 111, 181, 120, 195, 195, 120, 1, 0.602011
164, 3, wb, attraction, a-b-db, 14, 3, 3, 31, 111, 181, 120, 195, 195, 120, 3, 0.345296
164, 3, wb, catch, NA, 999, 999, 3, 32, 123, 192, 165, 90, 106, 89, 3, 0.600999
164, 3, wb, catch, NA, 999, 999, 3, 32, 123, 192, 165, 90, 106, 89, 1, 0.248306
164, 3, wb, attraction, a-b-da, 5, 3, 3, 33, 120, 195, 195, 120, 190, 117, 1, 0.636068
164, 3, wb, attraction, a-b-da, 5, 3, 3, 33, 120, 195, 195, 120, 190, 117, 3, 0.28179
164, 3, wb, attraction, a-b-db, 14, 1, 3, 34, 135, 60, 56, 125, 60, 135, 3, 1.14827
164, 3, wb, attraction, a-b-db, 14, 1, 3, 34, 135, 60, 56, 125, 60, 135, 1, 0.453301
164, 3, wb, attraction, a-b-db, 2, 3, 3, 35, 120, 195, 119, 193, 195, 120, 3, 1.62513
164, 3, wb, attraction, a-b-db, 2, 3, 3, 35, 120, 195, 119, 193, 195, 120, 1, 0.270466
164, 3, wb, attraction, a-b-db, 5, 2, 3, 36, 88, 161, 165, 90, 90, 165, 3, 1.97778
164, 3, wb, attraction, a-b-db, 5, 2, 3, 36, 88, 161, 165, 90, 90, 165, 1, 0.305147
164, 3, wb, attraction, a-b-da, 9, 1, 3, 37, 60, 135, 129, 57, 135, 60, 1, 1.13912
164, 3, wb, attraction, a-b-da, 9, 1, 3, 37, 60, 135, 129, 57, 135, 60, 3, 0.523941
164, 3, wb, attraction, a-b-da, 9, 3, 4, 1, 120, 195, 195, 120, 186, 114, 3, 1.88451
164, 3, wb, attraction, a-b-da, 9, 3, 4, 1, 120, 195, 195, 120, 186, 114, 1, 0.631717
164, 3, wb, filler, NA, 999, 999, 4, 2, 59, 75, 81, 62, 186, 119, 1, 0.916256
164, 3, wb, filler, NA, 999, 999, 4, 2, 59, 75, 81, 62, 186, 119, 3, 0.278568
164, 3, wb, attraction, a-b-db, 9, 3, 4, 3, 195, 120, 114, 186, 120, 195, 3, 2.52903
164, 3, wb, attraction, a-b-db, 9, 3, 4, 3, 195, 120, 114, 186, 120, 195, 1, 0.546101
164, 3, wb, filler, NA, 999, 999, 4, 4, 69, 68, 107, 130, 190, 148, 1, 0.642014
164, 3, wb, filler, NA, 999, 999, 4, 4, 69, 68, 107, 130, 190, 148, 3, 0.287047
164, 3, wb, catch, NA, 999, 999, 4, 5, 112, 83, 140, 175, 120, 135, 1, 0.593573
164, 3, wb, catch, NA, 999, 999, 4, 5, 112, 83, 140, 175, 120, 135, 2, 0.24867
164, 3, wb, attraction, a-b-db, 14, 3, 4, 6, 195, 120, 111, 181, 120, 195, 3, 0.940641
164, 3, wb, attraction, a-b-db, 14, 3, 4, 6, 195, 120, 111, 181, 120, 195, 1, 0.397517
164, 3, wb, catch, NA, 999, 999, 4, 7, 142, 113, 152, 163, 121, 74, 3, 0.699351
164, 3, wb, catch, NA, 999, 999, 4, 7, 142, 113, 152, 163, 121, 74, 2, 0.230427
164, 3, wb, filler, NA, 999, 999, 4, 8, 68, 185, 179, 72, 95, 94, 3, 2.41111
164, 3, wb, filler, NA, 999, 999, 4, 8, 68, 185, 179, 72, 95, 94, 1, 0.33678
164, 3, wb, filler, NA, 999, 999, 4, 9, 74, 174, 168, 60, 136, 86, 2, 3.16942
164, 3, wb, filler, NA, 999, 999, 4, 9, 74, 174, 168, 60, 136, 86, 3, 0.201096
164, 3, wb, attraction, a-b-da, 2, 3, 4, 10, 195, 120, 193, 119, 120, 195, 3, 0.974883
164, 3, wb, attraction, a-b-da, 2, 3, 4, 10, 195, 120, 193, 119, 120, 195, 1, 0.470689
164, 3, wb, filler, NA, 999, 999, 4, 11, 62, 142, 72, 143, 112, 78, 3, 1.28975
164, 3, wb, filler, NA, 999, 999, 4, 11, 62, 142, 72, 143, 112, 78, 1, 0.548657
164, 3, wb, attraction, a-b-da, 14, 2, 4, 12, 90, 165, 165, 90, 153, 83, 3, 1.04443
164, 3, wb, attraction, a-b-da, 14, 2, 4, 12, 90, 165, 165, 90, 153, 83, 1, 0.289373
164, 3, wb, attraction, a-b-da, 14, 1, 4, 13, 60, 135, 125, 56, 135, 60, 2, 0.939966
164, 3, wb, attraction, a-b-da, 14, 1, 4, 13, 60, 135, 125, 56, 135, 60, 3, 0.468902
164, 3, wb, filler, NA, 999, 999, 4, 14, 86, 61, 126, 187, 137, 131, 1, 0.512074
164, 3, wb, filler, NA, 999, 999, 4, 14, 86, 61, 126, 187, 137, 131, 2, 0.258579
164, 3, wb, attraction, a-b-da, 5, 2, 4, 15, 161, 88, 90, 165, 165, 90, 3, 1.13369
164, 3, wb, attraction, a-b-da, 5, 2, 4, 15, 161, 88, 90, 165, 165, 90, 1, 0.407361
164, 3, wb, attraction, a-b-db, 9, 1, 4, 16, 57, 129, 60, 135, 135, 60, 3, 1.10052
164, 3, wb, attraction, a-b-db, 9, 1, 4, 16, 57, 129, 60, 135, 135, 60, 1, 0.831423
164, 3, wb, filler, NA, 999, 999, 4, 17, 187, 82, 109, 72, 142, 132, 2, 1.47601
164, 3, wb, filler, NA, 999, 999, 4, 17, 187, 82, 109, 72, 142, 132, 3, 0.535268
164, 3, wb, attraction, a-b-da, 2, 2, 4, 18, 90, 165, 165, 90, 163, 89, 3, 1.08774
164, 3, wb, attraction, a-b-da, 2, 2, 4, 18, 90, 165, 165, 90, 163, 89, 1, 0.370622
164, 3, wb, attraction, a-b-da, 9, 1, 4, 19, 135, 60, 60, 135, 129, 57, 3, 1.09005
164, 3, wb, attraction, a-b-da, 9, 1, 4, 19, 135, 60, 60, 135, 129, 57, 1, 0.54086
164, 3, wb, attraction, a-b-da, 14, 3, 4, 20, 120, 195, 195, 120, 181, 111, 3, 1.04465
164, 3, wb, attraction, a-b-da, 14, 3, 4, 20, 120, 195, 195, 120, 181, 111, 1, 0.697589
164, 3, wb, attraction, a-b-db, 9, 2, 4, 21, 165, 90, 86, 157, 90, 165, 1, 1.75522
164, 3, wb, attraction, a-b-db, 9, 2, 4, 21, 165, 90, 86, 157, 90, 165, 2, 0.827471
164, 3, wb, attraction, a-b-db, 14, 1, 4, 22, 135, 60, 56, 125, 60, 135, 2, 1.55184
164, 3, wb, attraction, a-b-db, 14, 1, 4, 22, 135, 60, 56, 125, 60, 135, 1, 0.920561
164, 3, wb, attraction, a-b-db, 14, 2, 4, 23, 165, 90, 90, 165, 83, 153, 3, 0.99358
164, 3, wb, attraction, a-b-db, 14, 2, 4, 23, 165, 90, 90, 165, 83, 153, 1, 0.41648
164, 3, wb, attraction, a-b-da, 2, 1, 4, 24, 135, 60, 134, 59, 60, 135, 3, 0.789598
164, 3, wb, attraction, a-b-da, 2, 1, 4, 24, 135, 60, 134, 59, 60, 135, 1, 0.308837
164, 3, wb, catch, NA, 999, 999, 4, 25, 157, 158, 101, 94, 93, 162, 2, 0.557828
164, 3, wb, catch, NA, 999, 999, 4, 25, 157, 158, 101, 94, 93, 162, 1, 0.254326
164, 3, wb, attraction, a-b-da, 9, 2, 4, 26, 157, 86, 165, 90, 90, 165, 2, 1.28229
164, 3, wb, attraction, a-b-da, 9, 2, 4, 26, 157, 86, 165, 90, 90, 165, 3, 0.293844
164, 3, wb, attraction, a-b-da, 5, 3, 4, 27, 195, 120, 190, 117, 120, 195, 3, 1.20783
164, 3, wb, attraction, a-b-da, 5, 3, 4, 27, 195, 120, 190, 117, 120, 195, 1, 0.261912
164, 3, wb, attraction, a-b-db, 2, 2, 4, 28, 165, 90, 89, 163, 90, 165, 1, 2.4411
164, 3, wb, attraction, a-b-db, 2, 2, 4, 28, 165, 90, 89, 163, 90, 165, 2, 0.285605
164, 3, wb, attraction, a-b-db, 5, 2, 4, 29, 90, 165, 88, 161, 165, 90, 3, 0.800171
164, 3, wb, attraction, a-b-db, 5, 2, 4, 29, 90, 165, 88, 161, 165, 90, 1, 0.295389
164, 3, wb, filler, NA, 999, 999, 4, 30, 102, 95, 150, 123, 74, 92, 3, 0.649225
164, 3, wb, filler, NA, 999, 999, 4, 30, 102, 95, 150, 123, 74, 92, 2, 0.222206
164, 3, wb, attraction, a-b-db, 5, 1, 4, 31, 135, 60, 58, 132, 60, 135, 2, 1.18744
164, 3, wb, attraction, a-b-db, 5, 1, 4, 31, 135, 60, 58, 132, 60, 135, 3, 0.18704
164, 3, wb, attraction, a-b-da, 5, 1, 4, 32, 60, 135, 135, 60, 132, 58, 1, 1.00151
164, 3, wb, attraction, a-b-da, 5, 1, 4, 32, 60, 135, 135, 60, 132, 58, 3, 0.504483
164, 3, wb, attraction, a-b-db, 5, 3, 4, 33, 195, 120, 120, 195, 117, 190, 3, 0.914347
164, 3, wb, attraction, a-b-db, 5, 3, 4, 33, 195, 120, 120, 195, 117, 190, 1, 0.268735
164, 3, wb, filler, NA, 999, 999, 4, 34, 137, 163, 192, 72, 114, 170, 3, 1.27196
164, 3, wb, filler, NA, 999, 999, 4, 34, 137, 163, 192, 72, 114, 170, 1, 0.339449
164, 3, wb, attraction, a-b-db, 2, 3, 4, 35, 119, 193, 120, 195, 195, 120, 1, 0.804021
164, 3, wb, attraction, a-b-db, 2, 3, 4, 35, 119, 193, 120, 195, 195, 120, 2, 0.275081
164, 3, wb, attraction, a-b-db, 2, 1, 4, 36, 60, 135, 59, 134, 135, 60, 1, 0.821606
164, 3, wb, attraction, a-b-db, 2, 1, 4, 36, 60, 135, 59, 134, 135, 60, 2, 0.627306
164, 3, wb, filler, NA, 999, 999, 4, 37, 96, 104, 195, 110, 125, 191, 1, 0.727685
164, 3, wb, filler, NA, 999, 999, 4, 37, 96, 104, 195, 110, 125, 191, 3, 0.42533
164, 3, wb, attraction, a-b-db, 5, 2, 5, 1, 90, 165, 88, 161, 165, 90, 1, 1.54058
164, 3, wb, attraction, a-b-db, 5, 2, 5, 1, 90, 165, 88, 161, 165, 90, 2, 0.293276
164, 3, wb, attraction, a-b-db, 14, 2, 5, 2, 165, 90, 90, 165, 83, 153, 1, 0.903196
164, 3, wb, attraction, a-b-db, 14, 2, 5, 2, 165, 90, 90, 165, 83, 153, 2, 0.602221
164, 3, wb, attraction, a-b-db, 2, 3, 5, 3, 120, 195, 195, 120, 119, 193, 3, 1.12806
164, 3, wb, attraction, a-b-db, 2, 3, 5, 3, 120, 195, 195, 120, 119, 193, 1, 0.225585
164, 3, wb, attraction, a-b-da, 2, 2, 5, 4, 165, 90, 90, 165, 163, 89, 3, 1.17418
164, 3, wb, attraction, a-b-da, 2, 2, 5, 4, 165, 90, 90, 165, 163, 89, 2, 0.261672
164, 3, wb, filler, NA, 999, 999, 5, 5, 99, 124, 144, 57, 108, 147, 2, 2.56092
164, 3, wb, filler, NA, 999, 999, 5, 5, 99, 124, 144, 57, 108, 147, 3, 0.43273
164, 3, wb, attraction, a-b-db, 14, 3, 5, 6, 120, 195, 111, 181, 195, 120, 2, 1.18931
164, 3, wb, attraction, a-b-db, 14, 3, 5, 6, 120, 195, 111, 181, 195, 120, 1, 0.284184
164, 3, wb, attraction, a-b-da, 5, 2, 5, 7, 161, 88, 90, 165, 165, 90, 3, 0.862629
164, 3, wb, attraction, a-b-da, 5, 2, 5, 7, 161, 88, 90, 165, 165, 90, 1, 0.411023
164, 3, wb, attraction, a-b-db, 5, 3, 5, 8, 195, 120, 117, 190, 120, 195, 1, 0.984143
164, 3, wb, attraction, a-b-db, 5, 3, 5, 8, 195, 120, 117, 190, 120, 195, 2, 0.271819
164, 3, wb, filler, NA, 999, 999, 5, 9, 59, 101, 104, 91, 182, 177, 1, 0.906982
164, 3, wb, filler, NA, 999, 999, 5, 9, 59, 101, 104, 91, 182, 177, 3, 0.221668
164, 3, wb, attraction, a-b-da, 9, 3, 5, 10, 186, 114, 120, 195, 195, 120, 3, 0.770722
164, 3, wb, attraction, a-b-da, 9, 3, 5, 10, 186, 114, 120, 195, 195, 120, 2, 1.17107
164, 3, wb, filler, NA, 999, 999, 5, 11, 56, 88, 154, 99, 89, 131, 1, 0.62592
164, 3, wb, filler, NA, 999, 999, 5, 11, 56, 88, 154, 99, 89, 131, 2, 0.24766
164, 3, wb, attraction, a-b-db, 9, 2, 5, 12, 90, 165, 86, 157, 165, 90, 3, 0.883587
164, 3, wb, attraction, a-b-db, 9, 2, 5, 12, 90, 165, 86, 157, 165, 90, 1, 0.623352
164, 3, wb, attraction, a-b-da, 9, 1, 5, 13, 60, 135, 129, 57, 135, 60, 2, 1.09973
164, 3, wb, attraction, a-b-da, 9, 1, 5, 13, 60, 135, 129, 57, 135, 60, 1, 0.222686
164, 3, wb, attraction, a-b-da, 14, 2, 5, 14, 165, 90, 153, 83, 90, 165, 3, 1.20406
164, 3, wb, attraction, a-b-da, 14, 2, 5, 14, 165, 90, 153, 83, 90, 165, 1, 0.450989
164, 3, wb, attraction, a-b-db, 5, 1, 5, 15, 58, 132, 60, 135, 135, 60, 3, 2.12669
164, 3, wb, attraction, a-b-db, 5, 1, 5, 15, 58, 132, 60, 135, 135, 60, 2, 0.367823
164, 3, wb, catch, NA, 999, 999, 5, 16, 117, 78, 160, 95, 189, 126, 1, 0.614971
164, 3, wb, catch, NA, 999, 999, 5, 16, 117, 78, 160, 95, 189, 126, 3, 0.25346
164, 3, wb, attraction, a-b-da, 2, 1, 5, 17, 60, 135, 135, 60, 134, 59, 3, 0.945395
164, 3, wb, attraction, a-b-da, 2, 1, 5, 17, 60, 135, 135, 60, 134, 59, 1, 0.298629
164, 3, wb, attraction, a-b-db, 2, 2, 5, 18, 90, 165, 89, 163, 165, 90, 3, 1.52424
164, 3, wb, attraction, a-b-db, 2, 2, 5, 18, 90, 165, 89, 163, 165, 90, 1, 0.30178
164, 3, wb, attraction, a-b-db, 9, 3, 5, 19, 195, 120, 120, 195, 114, 186, 3, 1.00757
164, 3, wb, attraction, a-b-db, 9, 3, 5, 19, 195, 120, 120, 195, 114, 186, 1, 0.638013
164, 3, wb, attraction, a-b-da, 14, 1, 5, 20, 135, 60, 60, 135, 125, 56, 3, 0.754284
164, 3, wb, attraction, a-b-da, 14, 1, 5, 20, 135, 60, 60, 135, 125, 56, 1, 0.851639
164, 3, wb, filler, NA, 999, 999, 5, 21, 180, 186, 106, 90, 183, 91, 2, 0.823178
164, 3, wb, filler, NA, 999, 999, 5, 21, 180, 186, 106, 90, 183, 91, 1, 0.212855
164, 3, wb, attraction, a-b-db, 9, 1, 5, 22, 60, 135, 57, 129, 135, 60, 2, 1.81799
164, 3, wb, attraction, a-b-db, 9, 1, 5, 22, 60, 135, 57, 129, 135, 60, 1, 0.288096
164, 3, wb, filler, NA, 999, 999, 5, 23, 161, 64, 60, 155, 130, 132, 2, 1.54666
164, 3, wb, filler, NA, 999, 999, 5, 23, 161, 64, 60, 155, 130, 132, 3, 1.22746
164, 3, wb, filler, NA, 999, 999, 5, 24, 175, 115, 89, 111, 86, 159, 2, 0.735628
164, 3, wb, filler, NA, 999, 999, 5, 24, 175, 115, 89, 111, 86, 159, 1, 0.289438
164, 3, wb, attraction, a-b-da, 9, 2, 5, 25, 157, 86, 165, 90, 90, 165, 1, 0.931838
164, 3, wb, attraction, a-b-da, 9, 2, 5, 25, 157, 86, 165, 90, 90, 165, 2, 0.285471
164, 3, wb, filler, NA, 999, 999, 5, 26, 127, 92, 91, 102, 107, 57, 3, 0.93604
164, 3, wb, filler, NA, 999, 999, 5, 26, 127, 92, 91, 102, 107, 57, 1, 0.561737
164, 3, wb, filler, NA, 999, 999, 5, 27, 167, 87, 186, 149, 160, 77, 3, 0.720963
164, 3, wb, filler, NA, 999, 999, 5, 27, 167, 87, 186, 149, 160, 77, 2, 0.219366
164, 3, wb, attraction, a-b-db, 2, 1, 5, 28, 59, 134, 60, 135, 135, 60, 2, 0.992584
164, 3, wb, attraction, a-b-db, 2, 1, 5, 28, 59, 134, 60, 135, 135, 60, 1, 0.607439
164, 3, wb, catch, NA, 999, 999, 5, 29, 131, 184, 112, 83, 162, 93, 2, 0.620664
164, 3, wb, catch, NA, 999, 999, 5, 29, 131, 184, 112, 83, 162, 93, 1, 0.306958
164, 3, wb, filler, NA, 999, 999, 5, 30, 114, 129, 65, 63, 120, 155, 2, 0.580197
164, 3, wb, filler, NA, 999, 999, 5, 30, 114, 129, 65, 63, 120, 155, 3, 0.21193
164, 3, wb, attraction, a-b-db, 14, 1, 5, 31, 135, 60, 56, 125, 60, 135, 2, 0.673201
164, 3, wb, attraction, a-b-db, 14, 1, 5, 31, 135, 60, 56, 125, 60, 135, 1, 0.413013
164, 3, wb, attraction, a-b-da, 14, 3, 5, 32, 195, 120, 181, 111, 120, 195, 2, 0.698158
164, 3, wb, attraction, a-b-da, 14, 3, 5, 32, 195, 120, 181, 111, 120, 195, 1, 0.341245
164, 3, wb, catch, NA, 999, 999, 5, 33, 72, 123, 97, 158, 167, 148, 1, 0.66108
164, 3, wb, catch, NA, 999, 999, 5, 33, 72, 123, 97, 158, 167, 148, 3, 0.409466
164, 3, wb, filler, NA, 999, 999, 5, 34, 65, 179, 63, 150, 156, 147, 2, 0.718638
164, 3, wb, filler, NA, 999, 999, 5, 34, 65, 179, 63, 150, 156, 147, 3, 0.265169
164, 3, wb, attraction, a-b-da, 5, 1, 5, 35, 60, 135, 135, 60, 132, 58, 3, 1.58025
164, 3, wb, attraction, a-b-da, 5, 1, 5, 35, 60, 135, 135, 60, 132, 58, 1, 0.275712
164, 3, wb, attraction, a-b-da, 2, 3, 5, 36, 120, 195, 195, 120, 193, 119, 2, 0.92628
164, 3, wb, attraction, a-b-da, 2, 3, 5, 36, 120, 195, 195, 120, 193, 119, 1, 0.359867
164, 3, wb, attraction, a-b-da, 5, 3, 5, 37, 120, 195, 190, 117, 195, 120, 2, 1.45518
164, 3, wb, attraction, a-b-da, 5, 3, 5, 37, 120, 195, 190, 117, 195, 120, 1, 0.315381
164, 3, wb, filler, NA, 999, 999, 6, 1, 56, 59, 188, 162, 182, 101, 1, 0.828407
164, 3, wb, filler, NA, 999, 999, 6, 1, 56, 59, 188, 162, 182, 101, 2, 0.194127
164, 3, wb, attraction, a-b-da, 9, 3, 6, 2, 120, 195, 186, 114, 195, 120, 1, 1.94414
164, 3, wb, attraction, a-b-da, 9, 3, 6, 2, 120, 195, 186, 114, 195, 120, 3, 0.28076
164, 3, wb, attraction, a-b-da, 2, 3, 6, 3, 193, 119, 120, 195, 195, 120, 3, 1.18721
164, 3, wb, attraction, a-b-da, 2, 3, 6, 3, 193, 119, 120, 195, 195, 120, 2, 0.234862
164, 3, wb, filler, NA, 999, 999, 6, 4, 102, 77, 153, 128, 123, 180, 1, 0.727353
164, 3, wb, filler, NA, 999, 999, 6, 4, 102, 77, 153, 128, 123, 180, 3, 0.249202
164, 3, wb, attraction, a-b-db, 2, 2, 6, 5, 165, 90, 90, 165, 89, 163, 2, 0.70898
164, 3, wb, attraction, a-b-db, 2, 2, 6, 5, 165, 90, 90, 165, 89, 163, 1, 0.2875
164, 3, wb, catch, NA, 999, 999, 6, 6, 111, 144, 83, 112, 176, 139, 2, 0.497913
164, 3, wb, catch, NA, 999, 999, 6, 6, 111, 144, 83, 112, 176, 139, 3, 0.245095
164, 3, wb, attraction, a-b-da, 2, 1, 6, 7, 134, 59, 60, 135, 135, 60, 3, 1.05701
164, 3, wb, attraction, a-b-da, 2, 1, 6, 7, 134, 59, 60, 135, 135, 60, 1, 0.549338
164, 3, wb, attraction, a-b-db, 5, 1, 6, 8, 58, 132, 135, 60, 60, 135, 3, 1.65316
164, 3, wb, attraction, a-b-db, 5, 1, 6, 8, 58, 132, 135, 60, 60, 135, 2, 0.185721
164, 3, wb, filler, NA, 999, 999, 6, 9, 177, 59, 124, 117, 86, 160, 1, 1.26447
164, 3, wb, filler, NA, 999, 999, 6, 9, 177, 59, 124, 117, 86, 160, 2, 0.884722
164, 3, wb, filler, NA, 999, 999, 6, 10, 72, 155, 165, 145, 158, 117, 1, 0.550925
164, 3, wb, filler, NA, 999, 999, 6, 10, 72, 155, 165, 145, 158, 117, 2, 0.216155
164, 3, wb, attraction, a-b-db, 5, 3, 6, 11, 117, 190, 120, 195, 195, 120, 2, 2.12525
164, 3, wb, attraction, a-b-db, 5, 3, 6, 11, 117, 190, 120, 195, 195, 120, 3, 0.750726
164, 3, wb, attraction, a-b-da, 14, 1, 6, 12, 125, 56, 60, 135, 135, 60, 1, 2.06241
164, 3, wb, attraction, a-b-da, 14, 1, 6, 12, 125, 56, 60, 135, 135, 60, 2, 0.586436
164, 3, wb, filler, NA, 999, 999, 6, 13, 168, 174, 144, 113, 64, 156, 3, 0.608816
164, 3, wb, filler, NA, 999, 999, 6, 13, 168, 174, 144, 113, 64, 156, 1, 0.231378
164, 3, wb, attraction, a-b-db, 14, 2, 6, 14, 90, 165, 83, 153, 165, 90, 2, 1.70783
164, 3, wb, attraction, a-b-db, 14, 2, 6, 14, 90, 165, 83, 153, 165, 90, 1, 0.253832
164, 3, wb, attraction, a-b-da, 2, 2, 6, 15, 163, 89, 90, 165, 165, 90, 2, 1.4097
164, 3, wb, attraction, a-b-da, 2, 2, 6, 15, 163, 89, 90, 165, 165, 90, 1, 0.391908
164, 3, wb, filler, NA, 999, 999, 6, 16, 154, 112, 64, 112, 153, 124, 2, 0.645813
164, 3, wb, filler, NA, 999, 999, 6, 16, 154, 112, 64, 112, 153, 124, 3, 0.386751
164, 3, wb, attraction, a-b-db, 9, 3, 6, 17, 195, 120, 120, 195, 114, 186, 2, 0.905244
164, 3, wb, attraction, a-b-db, 9, 3, 6, 17, 195, 120, 120, 195, 114, 186, 1, 0.267709
164, 3, wb, filler, NA, 999, 999, 6, 18, 155, 167, 88, 118, 120, 173, 2, 0.61486
164, 3, wb, filler, NA, 999, 999, 6, 18, 155, 167, 88, 118, 120, 173, 1, 0.237285
164, 3, wb, attraction, a-b-da, 9, 2, 6, 19, 90, 165, 157, 86, 165, 90, 2, 1.20176
164, 3, wb, attraction, a-b-da, 9, 2, 6, 19, 90, 165, 157, 86, 165, 90, 3, 0.304786
164, 3, wb, filler, NA, 999, 999, 6, 20, 132, 149, 71, 160, 72, 85, 3, 0.642692
164, 3, wb, filler, NA, 999, 999, 6, 20, 132, 149, 71, 160, 72, 85, 1, 0.231662
164, 3, wb, catch, NA, 999, 999, 6, 21, 157, 158, 112, 143, 89, 106, 3, 0.468254
164, 3, wb, catch, NA, 999, 999, 6, 21, 157, 158, 112, 143, 89, 106, 1, 0.288732
164, 3, wb, filler, NA, 999, 999, 6, 22, 136, 119, 92, 157, 61, 110, 3, 0.571304
164, 3, wb, filler, NA, 999, 999, 6, 22, 136, 119, 92, 157, 61, 110, 1, 0.315776
164, 3, wb, attraction, a-b-db, 9, 1, 6, 23, 57, 129, 135, 60, 60, 135, 1, 1.06893
164, 3, wb, attraction, a-b-db, 9, 1, 6, 23, 57, 129, 135, 60, 60, 135, 2, 0.305253
164, 3, wb, attraction, a-b-da, 9, 1, 6, 24, 135, 60, 60, 135, 129, 57, 3, 1.13119
164, 3, wb, attraction, a-b-da, 9, 1, 6, 24, 135, 60, 60, 135, 129, 57, 1, 0.492633
164, 3, wb, attraction, a-b-db, 9, 2, 6, 25, 165, 90, 90, 165, 86, 157, 3, 0.678457
164, 3, wb, attraction, a-b-db, 9, 2, 6, 25, 165, 90, 90, 165, 86, 157, 1, 0.394219
164, 3, wb, attraction, a-b-db, 5, 2, 6, 26, 88, 161, 90, 165, 165, 90, 1, 1.24799
164, 3, wb, attraction, a-b-db, 5, 2, 6, 26, 88, 161, 90, 165, 165, 90, 2, 0.452889
164, 3, wb, attraction, a-b-da, 14, 2, 6, 27, 90, 165, 165, 90, 153, 83, 3, 1.0328
164, 3, wb, attraction, a-b-da, 14, 2, 6, 27, 90, 165, 165, 90, 153, 83, 2, 0.262461
164, 3, wb, filler, NA, 999, 999, 6, 28, 76, 114, 140, 71, 156, 123, 1, 0.569575
164, 3, wb, filler, NA, 999, 999, 6, 28, 76, 114, 140, 71, 156, 123, 3, 0.210032
164, 3, wb, attraction, a-b-da, 14, 3, 6, 29, 120, 195, 181, 111, 195, 120, 1, 1.00732
164, 3, wb, attraction, a-b-da, 14, 3, 6, 29, 120, 195, 181, 111, 195, 120, 3, 0.509609
164, 3, wb, attraction, a-b-db, 14, 1, 6, 30, 56, 125, 135, 60, 60, 135, 1, 1.06269
164, 3, wb, attraction, a-b-db, 14, 1, 6, 30, 56, 125, 135, 60, 60, 135, 3, 0.394961
164, 3, wb, attraction, a-b-da, 5, 2, 6, 31, 90, 165, 161, 88, 165, 90, 1, 0.784796
164, 3, wb, attraction, a-b-da, 5, 2, 6, 31, 90, 165, 161, 88, 165, 90, 2, 0.328513
164, 3, wb, catch, NA, 999, 999, 6, 32, 100, 95, 126, 189, 130, 125, 1, 0.561087
164, 3, wb, catch, NA, 999, 999, 6, 32, 100, 95, 126, 189, 130, 125, 2, 0.209465
164, 3, wb, attraction, a-b-da, 5, 1, 6, 33, 60, 135, 132, 58, 135, 60, 1, 0.926856
164, 3, wb, attraction, a-b-da, 5, 1, 6, 33, 60, 135, 132, 58, 135, 60, 2, 1.5125
164, 3, wb, attraction, a-b-db, 14, 3, 6, 34, 111, 181, 120, 195, 195, 120, 1, 1.09713
164, 3, wb, attraction, a-b-db, 14, 3, 6, 34, 111, 181, 120, 195, 195, 120, 3, 0.412203
164, 3, wb, attraction, a-b-da, 5, 3, 6, 35, 195, 120, 120, 195, 190, 117, 3, 1.40134
164, 3, wb, attraction, a-b-da, 5, 3, 6, 35, 195, 120, 120, 195, 190, 117, 1, 0.520376
164, 3, wb, attraction, a-b-db, 2, 3, 6, 36, 120, 195, 119, 193, 195, 120, 2, 2.10534
164, 3, wb, attraction, a-b-db, 2, 3, 6, 36, 120, 195, 119, 193, 195, 120, 1, 0.29937
164, 3, wb, attraction, a-b-db, 2, 1, 6, 37, 59, 134, 135, 60, 60, 135, 2, 0.949173
164, 3, wb, attraction, a-b-db, 2, 1, 6, 37, 59, 134, 135, 60, 60, 135, 1, 0.334158
164, 3, wb, attraction, a-b-da, 9, 3, 7, 1, 120, 195, 186, 114, 195, 120, 1, 0.886639
164, 3, wb, attraction, a-b-da, 9, 3, 7, 1, 120, 195, 186, 114, 195, 120, 2, 0.210326
164, 3, wb, attraction, a-b-da, 14, 1, 7, 2, 135, 60, 125, 56, 60, 135, 3, 1.48756
164, 3, wb, attraction, a-b-da, 14, 1, 7, 2, 135, 60, 125, 56, 60, 135, 1, 0.355049
164, 3, wb, attraction, a-b-db, 14, 1, 7, 3, 60, 135, 135, 60, 56, 125, 3, 0.778966
164, 3, wb, attraction, a-b-db, 14, 1, 7, 3, 60, 135, 135, 60, 56, 125, 1, 0.426632
164, 3, wb, filler, NA, 999, 999, 7, 4, 109, 152, 137, 58, 146, 136, 2, 0.559027
164, 3, wb, filler, NA, 999, 999, 7, 4, 109, 152, 137, 58, 146, 136, 3, 0.199567
164, 3, wb, attraction, a-b-da, 14, 2, 7, 5, 90, 165, 153, 83, 165, 90, 2, 0.613402
164, 3, wb, attraction, a-b-da, 14, 2, 7, 5, 90, 165, 153, 83, 165, 90, 1, 0.291862
164, 3, wb, filler, NA, 999, 999, 7, 6, 183, 65, 141, 147, 158, 74, 3, 0.941835
164, 3, wb, filler, NA, 999, 999, 7, 6, 183, 65, 141, 147, 158, 74, 2, 0.310706
164, 3, wb, attraction, a-b-db, 14, 2, 7, 7, 90, 165, 83, 153, 165, 90, 2, 2.27989
164, 3, wb, attraction, a-b-db, 14, 2, 7, 7, 90, 165, 83, 153, 165, 90, 1, 1.0433
164, 3, wb, filler, NA, 999, 999, 7, 8, 168, 180, 166, 124, 115, 145, 3, 0.78294
164, 3, wb, filler, NA, 999, 999, 7, 8, 168, 180, 166, 124, 115, 145, 1, 0.26257
164, 3, wb, attraction, a-b-da, 5, 1, 7, 9, 132, 58, 60, 135, 135, 60, 3, 2.68978
164, 3, wb, attraction, a-b-da, 5, 1, 7, 9, 132, 58, 60, 135, 135, 60, 1, 0.372283
164, 3, wb, attraction, a-b-da, 5, 2, 7, 10, 161, 88, 165, 90, 90, 165, 3, 0.843395
164, 3, wb, attraction, a-b-da, 5, 2, 7, 10, 161, 88, 165, 90, 90, 165, 1, 0.520426
164, 3, wb, attraction, a-b-db, 9, 2, 7, 11, 90, 165, 165, 90, 86, 157, 3, 1.19366
164, 3, wb, attraction, a-b-db, 9, 2, 7, 11, 90, 165, 165, 90, 86, 157, 2, 0.792462
164, 3, wb, attraction, a-b-db, 5, 2, 7, 12, 165, 90, 90, 165, 88, 161, 2, 1.39023
164, 3, wb, attraction, a-b-db, 5, 2, 7, 12, 165, 90, 90, 165, 88, 161, 1, 0.389033
164, 3, wb, attraction, a-b-db, 2, 3, 7, 13, 195, 120, 119, 193, 120, 195, 2, 1.03549
164, 3, wb, attraction, a-b-db, 2, 3, 7, 13, 195, 120, 119, 193, 120, 195, 1, 0.393161
164, 3, wb, catch, NA, 999, 999, 7, 14, 182, 133, 96, 159, 122, 73, 3, 0.686965
164, 3, wb, catch, NA, 999, 999, 7, 14, 182, 133, 96, 159, 122, 73, 1, 0.570672
164, 3, wb, filler, NA, 999, 999, 7, 15, 177, 168, 114, 170, 152, 186, 2, 1.65773
164, 3, wb, filler, NA, 999, 999, 7, 15, 177, 168, 114, 170, 152, 186, 1, 0.270078
164, 3, wb, attraction, a-b-db, 5, 1, 7, 16, 58, 132, 135, 60, 60, 135, 2, 0.721165
164, 3, wb, attraction, a-b-db, 5, 1, 7, 16, 58, 132, 135, 60, 60, 135, 1, 0.259598
164, 3, wb, attraction, a-b-db, 2, 1, 7, 17, 60, 135, 135, 60, 59, 134, 1, 1.49485
164, 3, wb, attraction, a-b-db, 2, 1, 7, 17, 60, 135, 135, 60, 59, 134, 2, 0.161703
164, 3, wb, attraction, a-b-da, 2, 2, 7, 18, 90, 165, 163, 89, 165, 90, 3, 0.776936
164, 3, wb, attraction, a-b-da, 2, 2, 7, 18, 90, 165, 163, 89, 165, 90, 2, 0.640549
164, 3, wb, filler, NA, 999, 999, 7, 19, 127, 152, 129, 181, 98, 123, 3, 0.972332
164, 3, wb, filler, NA, 999, 999, 7, 19, 127, 152, 129, 181, 98, 123, 2, 0.203946
164, 3, wb, attraction, a-b-da, 14, 3, 7, 20, 120, 195, 181, 111, 195, 120, 1, 0.673972
164, 3, wb, attraction, a-b-da, 14, 3, 7, 20, 120, 195, 181, 111, 195, 120, 2, 0.693567
164, 3, wb, catch, NA, 999, 999, 7, 21, 72, 123, 191, 124, 140, 115, 1, 0.61527
164, 3, wb, catch, NA, 999, 999, 7, 21, 72, 123, 191, 124, 140, 115, 2, 0.293846
164, 3, wb, attraction, a-b-db, 5, 3, 7, 22, 117, 190, 120, 195, 195, 120, 1, 0.7117
164, 3, wb, attraction, a-b-db, 5, 3, 7, 22, 117, 190, 120, 195, 195, 120, 2, 0.202072
164, 3, wb, filler, NA, 999, 999, 7, 23, 109, 152, 86, 94, 181, 130, 2, 0.599943
164, 3, wb, filler, NA, 999, 999, 7, 23, 109, 152, 86, 94, 181, 130, 3, 0.206984
164, 3, wb, attraction, a-b-db, 14, 3, 7, 24, 120, 195, 195, 120, 111, 181, 3, 0.884298
164, 3, wb, attraction, a-b-db, 14, 3, 7, 24, 120, 195, 195, 120, 111, 181, 2, 0.384071
164, 3, wb, attraction, a-b-da, 2, 1, 7, 25, 135, 60, 134, 59, 60, 135, 2, 0.766341
164, 3, wb, attraction, a-b-da, 2, 1, 7, 25, 135, 60, 134, 59, 60, 135, 1, 0.302917
164, 3, wb, attraction, a-b-da, 5, 3, 7, 26, 190, 117, 120, 195, 195, 120, 2, 0.568682
164, 3, wb, attraction, a-b-da, 5, 3, 7, 26, 190, 117, 120, 195, 195, 120, 1, 0.681144
164, 3, wb, filler, NA, 999, 999, 7, 27, 152, 147, 126, 78, 181, 147, 2, 0.523518
164, 3, wb, filler, NA, 999, 999, 7, 27, 152, 147, 126, 78, 181, 147, 3, 0.197363
164, 3, wb, attraction, a-b-da, 9, 1, 7, 28, 135, 60, 129, 57, 60, 135, 2, 0.763255
164, 3, wb, attraction, a-b-da, 9, 1, 7, 28, 135, 60, 129, 57, 60, 135, 1, 0.331669
164, 3, wb, attraction, a-b-da, 2, 3, 7, 29, 193, 119, 195, 120, 120, 195, 3, 0.764157
164, 3, wb, attraction, a-b-da, 2, 3, 7, 29, 193, 119, 195, 120, 120, 195, 2, 0.572507
164, 3, wb, attraction, a-b-db, 9, 3, 7, 30, 120, 195, 114, 186, 195, 120, 2, 1.45173
164, 3, wb, attraction, a-b-db, 9, 3, 7, 30, 120, 195, 114, 186, 195, 120, 3, 0.288483
164, 3, wb, filler, NA, 999, 999, 7, 31, 162, 185, 60, 162, 76, 174, 2, 0.499066
164, 3, wb, filler, NA, 999, 999, 7, 31, 162, 185, 60, 162, 76, 174, 1, 0.25419
164, 3, wb, catch, NA, 999, 999, 7, 32, 115, 80, 97, 158, 148, 167, 1, 0.618165
164, 3, wb, catch, NA, 999, 999, 7, 32, 115, 80, 97, 158, 148, 167, 3, 0.264396
164, 3, wb, attraction, a-b-da, 9, 2, 7, 33, 165, 90, 90, 165, 157, 86, 3, 0.611852
164, 3, wb, attraction, a-b-da, 9, 2, 7, 33, 165, 90, 90, 165, 157, 86, 1, 0.498094
164, 3, wb, attraction, a-b-db, 9, 1, 7, 34, 60, 135, 135, 60, 57, 129, 3, 0.939878
164, 3, wb, attraction, a-b-db, 9, 1, 7, 34, 60, 135, 135, 60, 57, 129, 1, 0.517025
164, 3, wb, attraction, a-b-db, 2, 2, 7, 35, 165, 90, 89, 163, 90, 165, 2, 0.60612
164, 3, wb, attraction, a-b-db, 2, 2, 7, 35, 165, 90, 89, 163, 90, 165, 1, 0.236437
164, 3, wb, filler, NA, 999, 999, 7, 36, 128, 154, 149, 122, 97, 148, 3, 0.585021
164, 3, wb, filler, NA, 999, 999, 7, 36, 128, 154, 149, 122, 97, 148, 1, 0.320763
164, 3, wb, filler, NA, 999, 999, 7, 37, 125, 151, 182, 187, 65, 103, 3, 0.67405
164, 3, wb, filler, NA, 999, 999, 7, 37, 125, 151, 182, 187, 65, 103, 2, 0.229762
164, 3, wb, attraction, a-b-da, 5, 1, 8, 1, 132, 58, 135, 60, 60, 135, 3, 0.746293
164, 3, wb, attraction, a-b-da, 5, 1, 8, 1, 132, 58, 135, 60, 60, 135, 2, 0.307305
164, 3, wb, filler, NA, 999, 999, 8, 2, 99, 88, 88, 153, 66, 179, 1, 0.98871
164, 3, wb, filler, NA, 999, 999, 8, 2, 99, 88, 88, 153, 66, 179, 2, 0.219567
164, 3, wb, attraction, a-b-da, 5, 3, 8, 3, 120, 195, 190, 117, 195, 120, 1, 0.848678
164, 3, wb, attraction, a-b-da, 5, 3, 8, 3, 120, 195, 190, 117, 195, 120, 2, 0.389776
164, 3, wb, attraction, a-b-db, 5, 1, 8, 4, 60, 135, 58, 132, 135, 60, 2, 1.70035
164, 3, wb, attraction, a-b-db, 5, 1, 8, 4, 60, 135, 58, 132, 135, 60, 3, 0.303029
164, 3, wb, filler, NA, 999, 999, 8, 5, 74, 63, 103, 116, 134, 95, 1, 0.544845
164, 3, wb, filler, NA, 999, 999, 8, 5, 74, 63, 103, 116, 134, 95, 2, 1.33819
164, 3, wb, filler, NA, 999, 999, 8, 6, 190, 150, 141, 140, 121, 133, 3, 0.954143
164, 3, wb, filler, NA, 999, 999, 8, 6, 190, 150, 141, 140, 121, 133, 1, 0.29124
164, 3, wb, attraction, a-b-da, 9, 3, 8, 7, 120, 195, 195, 120, 186, 114, 1, 1.33309
164, 3, wb, attraction, a-b-da, 9, 3, 8, 7, 120, 195, 195, 120, 186, 114, 2, 0.390567
164, 3, wb, attraction, a-b-da, 2, 2, 8, 8, 163, 89, 90, 165, 165, 90, 1, 3.62054
164, 3, wb, attraction, a-b-da, 2, 2, 8, 8, 163, 89, 90, 165, 165, 90, 3, 0.385916
164, 3, wb, attraction, a-b-db, 9, 2, 8, 9, 86, 157, 165, 90, 90, 165, 1, 0.872428
164, 3, wb, attraction, a-b-db, 9, 2, 8, 9, 86, 157, 165, 90, 90, 165, 3, 0.484066
164, 3, wb, filler, NA, 999, 999, 8, 10, 116, 165, 95, 101, 165, 125, 2, 0.60661
164, 3, wb, filler, NA, 999, 999, 8, 10, 116, 165, 95, 101, 165, 125, 3, 0.26103
164, 3, wb, attraction, a-b-db, 5, 2, 8, 11, 165, 90, 90, 165, 88, 161, 1, 1.1924
164, 3, wb, attraction, a-b-db, 5, 2, 8, 11, 165, 90, 90, 165, 88, 161, 2, 0.327224
164, 3, wb, filler, NA, 999, 999, 8, 12, 93, 96, 118, 142, 97, 137, 1, 0.60773
164, 3, wb, filler, NA, 999, 999, 8, 12, 93, 96, 118, 142, 97, 137, 2, 0.310199
164, 3, wb, attraction, a-b-da, 2, 3, 8, 13, 120, 195, 193, 119, 195, 120, 1, 1.09534
164, 3, wb, attraction, a-b-da, 2, 3, 8, 13, 120, 195, 193, 119, 195, 120, 2, 0.378205
164, 3, wb, attraction, a-b-db, 9, 1, 8, 14, 135, 60, 60, 135, 57, 129, 3, 0.952663
164, 3, wb, attraction, a-b-db, 9, 1, 8, 14, 135, 60, 60, 135, 57, 129, 1, 0.62585
164, 3, wb, attraction, a-b-db, 5, 3, 8, 15, 195, 120, 117, 190, 120, 195, 3, 1.48625
164, 3, wb, attraction, a-b-db, 5, 3, 8, 15, 195, 120, 117, 190, 120, 195, 1, 0.297665
164, 3, wb, attraction, a-b-db, 14, 3, 8, 16, 111, 181, 120, 195, 195, 120, 1, 0.65155
164, 3, wb, attraction, a-b-db, 14, 3, 8, 16, 111, 181, 120, 195, 195, 120, 3, 0.360646
164, 3, wb, attraction, a-b-da, 9, 2, 8, 17, 90, 165, 165, 90, 157, 86, 3, 0.991749
164, 3, wb, attraction, a-b-da, 9, 2, 8, 17, 90, 165, 165, 90, 157, 86, 2, 0.286842
164, 3, wb, attraction, a-b-db, 14, 2, 8, 18, 83, 153, 90, 165, 165, 90, 1, 0.761523
164, 3, wb, attraction, a-b-db, 14, 2, 8, 18, 83, 153, 90, 165, 165, 90, 2, 0.337631
164, 3, wb, filler, NA, 999, 999, 8, 19, 185, 150, 61, 113, 108, 182, 2, 0.586171
164, 3, wb, filler, NA, 999, 999, 8, 19, 185, 150, 61, 113, 108, 182, 1, 0.249948
164, 3, wb, attraction, a-b-db, 2, 2, 8, 20, 90, 165, 89, 163, 165, 90, 1, 0.701782
164, 3, wb, attraction, a-b-db, 2, 2, 8, 20, 90, 165, 89, 163, 165, 90, 2, 0.384956
164, 3, wb, filler, NA, 999, 999, 8, 21, 102, 102, 120, 183, 118, 192, 1, 0.599451
164, 3, wb, filler, NA, 999, 999, 8, 21, 102, 102, 120, 183, 118, 192, 2, 0.310576
164, 3, wb, attraction, a-b-da, 14, 2, 8, 22, 165, 90, 90, 165, 153, 83, 3, 1.08781
164, 3, wb, attraction, a-b-da, 14, 2, 8, 22, 165, 90, 90, 165, 153, 83, 2, 0.811489
164, 3, wb, attraction, a-b-da, 14, 3, 8, 23, 195, 120, 120, 195, 181, 111, 3, 1.17639
164, 3, wb, attraction, a-b-da, 14, 3, 8, 23, 195, 120, 120, 195, 181, 111, 1, 0.663926
164, 3, wb, catch, NA, 999, 999, 8, 24, 192, 123, 123, 132, 81, 114, 3, 0.467126
164, 3, wb, catch, NA, 999, 999, 8, 24, 192, 123, 123, 132, 81, 114, 1, 0.351503
164, 3, wb, attraction, a-b-da, 14, 1, 8, 25, 60, 135, 125, 56, 135, 60, 2, 0.895339
164, 3, wb, attraction, a-b-da, 14, 1, 8, 25, 60, 135, 125, 56, 135, 60, 1, 1.17839
164, 3, wb, catch, NA, 999, 999, 8, 26, 101, 94, 138, 117, 137, 178, 1, 0.496661
164, 3, wb, catch, NA, 999, 999, 8, 26, 101, 94, 138, 117, 137, 178, 3, 0.524038
164, 3, wb, attraction, a-b-db, 9, 3, 8, 27, 114, 186, 120, 195, 195, 120, 1, 0.700487
164, 3, wb, attraction, a-b-db, 9, 3, 8, 27, 114, 186, 120, 195, 195, 120, 3, 0.279548
164, 3, wb, attraction, a-b-db, 14, 1, 8, 28, 56, 125, 60, 135, 135, 60, 1, 0.562089
164, 3, wb, attraction, a-b-db, 14, 1, 8, 28, 56, 125, 60, 135, 135, 60, 2, 0.29842
164, 3, wb, attraction, a-b-db, 2, 1, 8, 29, 60, 135, 135, 60, 59, 134, 2, 0.644221
164, 3, wb, attraction, a-b-db, 2, 1, 8, 29, 60, 135, 135, 60, 59, 134, 1, 0.377311
164, 3, wb, catch, NA, 999, 999, 8, 30, 125, 130, 92, 103, 129, 186, 2, 0.607708
164, 3, wb, catch, NA, 999, 999, 8, 30, 125, 130, 92, 103, 129, 186, 3, 0.238201
164, 3, wb, filler, NA, 999, 999, 8, 31, 173, 127, 182, 192, 187, 98, 3, 0.698759
164, 3, wb, filler, NA, 999, 999, 8, 31, 173, 127, 182, 192, 187, 98, 2, 0.333882
164, 3, wb, attraction, a-b-db, 2, 3, 8, 32, 195, 120, 119, 193, 120, 195, 1, 1.02238
164, 3, wb, attraction, a-b-db, 2, 3, 8, 32, 195, 120, 119, 193, 120, 195, 3, 0.700027
164, 3, wb, filler, NA, 999, 999, 8, 33, 104, 188, 194, 154, 175, 176, 1, 0.573751
164, 3, wb, filler, NA, 999, 999, 8, 33, 104, 188, 194, 154, 175, 176, 2, 0.637582
164, 3, wb, attraction, a-b-da, 2, 1, 8, 34, 60, 135, 134, 59, 135, 60, 1, 0.657845
164, 3, wb, attraction, a-b-da, 2, 1, 8, 34, 60, 135, 134, 59, 135, 60, 3, 0.462512
164, 3, wb, attraction, a-b-da, 5, 2, 8, 35, 90, 165, 165, 90, 161, 88, 1, 0.689459
164, 3, wb, attraction, a-b-da, 5, 2, 8, 35, 90, 165, 165, 90, 161, 88, 3, 0.276602
164, 3, wb, filler, NA, 999, 999, 8, 36, 150, 141, 127, 137, 170, 182, 2, 1.32718
164, 3, wb, filler, NA, 999, 999, 8, 36, 150, 141, 127, 137, 170, 182, 3, 0.160645
164, 3, wb, attraction, a-b-da, 9, 1, 8, 37, 60, 135, 129, 57, 135, 60, 1, 0.719925
164, 3, wb, attraction, a-b-da, 9, 1, 8, 37, 60, 135, 129, 57, 135, 60, 3, 0.402264
