sub_n, computer_n, bw_cond, effect, set, distance, diag, block_n, trial_n, h1, w1, h2, w2, h3, w3, choice, rt 
152, 3, wb, practice, NA, 999, 999, 0, 1, 156, 169, 66, 81, 183, 148, 2, 9.0991
152, 3, wb, practice, NA, 999, 999, 0, 1, 156, 169, 66, 81, 183, 148, 3, 2.82015
152, 3, wb, practice, NA, 999, 999, 0, 2, 176, 180, 167, 148, 75, 169, 3, 4.17154
152, 3, wb, practice, NA, 999, 999, 0, 2, 176, 180, 167, 148, 75, 169, 2, 1.51487
152, 3, wb, practice, NA, 999, 999, 0, 3, 186, 192, 156, 102, 176, 107, 2, 2.05464
152, 3, wb, practice, NA, 999, 999, 0, 3, 186, 192, 156, 102, 176, 107, 1, 1.17976
152, 3, wb, attraction, a-b-da, 9, 2, 1, 1, 157, 86, 90, 165, 165, 90, 1, 1.50222
152, 3, wb, attraction, a-b-da, 9, 2, 1, 1, 157, 86, 90, 165, 165, 90, 2, 1.00907
152, 3, wb, filler, NA, 999, 999, 1, 2, 151, 149, 68, 143, 176, 186, 2, 1.50196
152, 3, wb, filler, NA, 999, 999, 1, 2, 151, 149, 68, 143, 176, 186, 3, 0.488762
152, 3, wb, catch, NA, 999, 999, 1, 3, 119, 136, 131, 64, 151, 164, 2, 1.24334
152, 3, wb, catch, NA, 999, 999, 1, 3, 119, 136, 131, 64, 151, 164, 3, 0.760184
152, 3, wb, filler, NA, 999, 999, 1, 4, 61, 168, 180, 154, 131, 97, 1, 1.0712
152, 3, wb, filler, NA, 999, 999, 1, 4, 61, 168, 180, 154, 131, 97, 2, 0.54684
152, 3, wb, filler, NA, 999, 999, 1, 5, 59, 121, 142, 168, 174, 172, 1, 1.48255
152, 3, wb, filler, NA, 999, 999, 1, 5, 59, 121, 142, 168, 174, 172, 3, 0.542178
152, 3, wb, attraction, a-b-db, 5, 2, 1, 6, 88, 161, 165, 90, 90, 165, 2, 1.43789
152, 3, wb, attraction, a-b-db, 5, 2, 1, 6, 88, 161, 165, 90, 90, 165, 3, 0.563397
152, 3, wb, filler, NA, 999, 999, 1, 7, 171, 147, 184, 57, 121, 93, 2, 1.51461
152, 3, wb, filler, NA, 999, 999, 1, 7, 171, 147, 184, 57, 121, 93, 1, 0.628778
152, 3, wb, attraction, a-b-db, 14, 3, 1, 8, 111, 181, 120, 195, 195, 120, 1, 2.5051
152, 3, wb, attraction, a-b-db, 14, 3, 1, 8, 111, 181, 120, 195, 195, 120, 2, 1.20357
152, 3, wb, attraction, a-b-da, 5, 1, 1, 9, 60, 135, 135, 60, 132, 58, 3, 1.64111
152, 3, wb, attraction, a-b-da, 5, 1, 1, 9, 60, 135, 135, 60, 132, 58, 2, 1.56602
152, 3, wb, attraction, a-b-da, 9, 3, 1, 10, 120, 195, 195, 120, 186, 114, 1, 2.12484
152, 3, wb, attraction, a-b-da, 9, 3, 1, 10, 120, 195, 195, 120, 186, 114, 2, 0.766154
152, 3, wb, attraction, a-b-db, 2, 2, 1, 11, 165, 90, 90, 165, 89, 163, 1, 2.00523
152, 3, wb, attraction, a-b-db, 2, 2, 1, 11, 165, 90, 90, 165, 89, 163, 2, 0.995176
152, 3, wb, attraction, a-b-db, 2, 1, 1, 12, 135, 60, 59, 134, 60, 135, 1, 1.72081
152, 3, wb, attraction, a-b-db, 2, 1, 1, 12, 135, 60, 59, 134, 60, 135, 2, 0.610873
152, 3, wb, catch, NA, 999, 999, 1, 13, 93, 162, 71, 124, 161, 154, 2, 2.26386
152, 3, wb, catch, NA, 999, 999, 1, 13, 93, 162, 71, 124, 161, 154, 3, 0.707877
152, 3, wb, attraction, a-b-db, 2, 3, 1, 14, 120, 195, 119, 193, 195, 120, 1, 2.00498
152, 3, wb, attraction, a-b-db, 2, 3, 1, 14, 120, 195, 119, 193, 195, 120, 3, 0.611049
152, 3, wb, attraction, a-b-da, 9, 1, 1, 15, 60, 135, 129, 57, 135, 60, 1, 0.711947
152, 3, wb, attraction, a-b-da, 9, 1, 1, 15, 60, 135, 129, 57, 135, 60, 2, 0.914404
152, 3, wb, attraction, a-b-da, 2, 1, 1, 16, 134, 59, 60, 135, 135, 60, 1, 0.899351
152, 3, wb, attraction, a-b-da, 2, 1, 1, 16, 134, 59, 60, 135, 135, 60, 3, 0.950399
152, 3, wb, attraction, a-b-db, 14, 2, 1, 17, 83, 153, 90, 165, 165, 90, 1, 1.15016
152, 3, wb, attraction, a-b-db, 14, 2, 1, 17, 83, 153, 90, 165, 165, 90, 3, 1.16728
152, 3, wb, attraction, a-b-da, 2, 2, 1, 18, 90, 165, 165, 90, 163, 89, 1, 1.37396
152, 3, wb, attraction, a-b-da, 2, 2, 1, 18, 90, 165, 165, 90, 163, 89, 3, 0.645524
152, 3, wb, attraction, a-b-db, 9, 1, 1, 19, 60, 135, 57, 129, 135, 60, 1, 0.753229
152, 3, wb, attraction, a-b-db, 9, 1, 1, 19, 60, 135, 57, 129, 135, 60, 2, 0.53045
152, 3, wb, filler, NA, 999, 999, 1, 20, 161, 159, 173, 69, 83, 83, 3, 1.1867
152, 3, wb, filler, NA, 999, 999, 1, 20, 161, 159, 173, 69, 83, 83, 1, 0.410345
152, 3, wb, catch, NA, 999, 999, 1, 21, 101, 154, 136, 179, 115, 80, 3, 0.975483
152, 3, wb, catch, NA, 999, 999, 1, 21, 101, 154, 136, 179, 115, 80, 2, 0.423114
152, 3, wb, filler, NA, 999, 999, 1, 22, 119, 128, 170, 76, 141, 69, 3, 1.57227
152, 3, wb, filler, NA, 999, 999, 1, 22, 119, 128, 170, 76, 141, 69, 1, 0.395768
152, 3, wb, attraction, a-b-da, 5, 3, 1, 23, 195, 120, 190, 117, 120, 195, 1, 1.00972
152, 3, wb, attraction, a-b-da, 5, 3, 1, 23, 195, 120, 190, 117, 120, 195, 3, 0.463931
152, 3, wb, attraction, a-b-da, 2, 3, 1, 24, 193, 119, 195, 120, 120, 195, 2, 0.939079
152, 3, wb, attraction, a-b-da, 2, 3, 1, 24, 193, 119, 195, 120, 120, 195, 3, 0.420234
152, 3, wb, attraction, a-b-da, 14, 2, 1, 25, 153, 83, 90, 165, 165, 90, 1, 0.825316
152, 3, wb, attraction, a-b-da, 14, 2, 1, 25, 153, 83, 90, 165, 165, 90, 2, 1.25498
152, 3, wb, attraction, a-b-db, 14, 1, 1, 26, 56, 125, 60, 135, 135, 60, 1, 0.930503
152, 3, wb, attraction, a-b-db, 14, 1, 1, 26, 56, 125, 60, 135, 135, 60, 3, 1.26814
152, 3, wb, attraction, a-b-da, 14, 1, 1, 27, 135, 60, 60, 135, 125, 56, 1, 0.879114
152, 3, wb, attraction, a-b-da, 14, 1, 1, 27, 135, 60, 60, 135, 125, 56, 2, 0.778716
152, 3, wb, filler, NA, 999, 999, 1, 28, 167, 190, 133, 136, 63, 84, 3, 1.42503
152, 3, wb, filler, NA, 999, 999, 1, 28, 167, 190, 133, 136, 63, 84, 1, 0.486783
152, 3, wb, attraction, a-b-db, 9, 3, 1, 29, 114, 186, 195, 120, 120, 195, 1, 1.17708
152, 3, wb, attraction, a-b-db, 9, 3, 1, 29, 114, 186, 195, 120, 120, 195, 2, 0.504774
152, 3, wb, filler, NA, 999, 999, 1, 30, 182, 65, 165, 129, 95, 158, 1, 0.562427
152, 3, wb, filler, NA, 999, 999, 1, 30, 182, 65, 165, 129, 95, 158, 2, 0.562956
152, 3, wb, attraction, a-b-da, 5, 2, 1, 31, 161, 88, 165, 90, 90, 165, 1, 0.522187
152, 3, wb, attraction, a-b-da, 5, 2, 1, 31, 161, 88, 165, 90, 90, 165, 3, 0.467835
152, 3, wb, attraction, a-b-da, 14, 3, 1, 32, 195, 120, 181, 111, 120, 195, 1, 0.326991
152, 3, wb, attraction, a-b-da, 14, 3, 1, 32, 195, 120, 181, 111, 120, 195, 3, 0.632953
152, 3, wb, filler, NA, 999, 999, 1, 33, 63, 189, 75, 180, 181, 172, 1, 0.669354
152, 3, wb, filler, NA, 999, 999, 1, 33, 63, 189, 75, 180, 181, 172, 3, 0.809797
152, 3, wb, filler, NA, 999, 999, 1, 34, 66, 56, 162, 98, 185, 151, 1, 0.694737
152, 3, wb, filler, NA, 999, 999, 1, 34, 66, 56, 162, 98, 185, 151, 3, 0.489804
152, 3, wb, attraction, a-b-db, 9, 2, 1, 35, 165, 90, 86, 157, 90, 165, 1, 0.540168
152, 3, wb, attraction, a-b-db, 9, 2, 1, 35, 165, 90, 86, 157, 90, 165, 3, 0.557595
152, 3, wb, attraction, a-b-db, 5, 1, 1, 36, 60, 135, 58, 132, 135, 60, 1, 1.16459
152, 3, wb, attraction, a-b-db, 5, 1, 1, 36, 60, 135, 58, 132, 135, 60, 3, 0.700828
152, 3, wb, attraction, a-b-db, 5, 3, 1, 37, 195, 120, 117, 190, 120, 195, 1, 0.526483
152, 3, wb, attraction, a-b-db, 5, 3, 1, 37, 195, 120, 117, 190, 120, 195, 3, 0.53636
152, 3, wb, attraction, a-b-da, 5, 3, 2, 1, 190, 117, 195, 120, 120, 195, 1, 0.528746
152, 3, wb, attraction, a-b-da, 5, 3, 2, 1, 190, 117, 195, 120, 120, 195, 2, 0.73056
152, 3, wb, attraction, a-b-da, 2, 3, 2, 2, 120, 195, 195, 120, 193, 119, 1, 0.61106
152, 3, wb, attraction, a-b-da, 2, 3, 2, 2, 120, 195, 195, 120, 193, 119, 3, 0.617357
152, 3, wb, attraction, a-b-db, 14, 3, 2, 3, 195, 120, 111, 181, 120, 195, 1, 0.886436
152, 3, wb, attraction, a-b-db, 14, 3, 2, 3, 195, 120, 111, 181, 120, 195, 3, 0.38624
152, 3, wb, attraction, a-b-db, 2, 3, 2, 4, 195, 120, 119, 193, 120, 195, 2, 0.512668
152, 3, wb, attraction, a-b-db, 2, 3, 2, 4, 195, 120, 119, 193, 120, 195, 1, 0.92329
152, 3, wb, attraction, a-b-da, 2, 1, 2, 5, 134, 59, 135, 60, 60, 135, 2, 0.788134
152, 3, wb, attraction, a-b-da, 2, 1, 2, 5, 134, 59, 135, 60, 60, 135, 1, 0.611278
152, 3, wb, attraction, a-b-db, 5, 1, 2, 6, 135, 60, 60, 135, 58, 132, 2, 0.544333
152, 3, wb, attraction, a-b-db, 5, 1, 2, 6, 135, 60, 60, 135, 58, 132, 1, 0.977427
152, 3, wb, catch, NA, 999, 999, 2, 7, 111, 144, 148, 167, 134, 61, 1, 1.03172
152, 3, wb, catch, NA, 999, 999, 2, 7, 111, 144, 148, 167, 134, 61, 2, 0.485383
152, 3, wb, attraction, a-b-da, 14, 2, 2, 8, 153, 83, 165, 90, 90, 165, 1, 1.73587
152, 3, wb, attraction, a-b-da, 14, 2, 2, 8, 153, 83, 165, 90, 90, 165, 3, 0.473213
152, 3, wb, catch, NA, 999, 999, 2, 9, 117, 138, 61, 134, 121, 194, 2, 1.09183
152, 3, wb, catch, NA, 999, 999, 2, 9, 117, 138, 61, 134, 121, 194, 3, 0.49475
152, 3, wb, attraction, a-b-da, 9, 2, 2, 10, 165, 90, 90, 165, 157, 86, 1, 0.904443
152, 3, wb, attraction, a-b-da, 9, 2, 2, 10, 165, 90, 90, 165, 157, 86, 2, 1.5869
152, 3, wb, attraction, a-b-da, 14, 3, 2, 11, 181, 111, 120, 195, 195, 120, 1, 0.752873
152, 3, wb, attraction, a-b-da, 14, 3, 2, 11, 181, 111, 120, 195, 195, 120, 2, 0.818196
152, 3, wb, attraction, a-b-da, 5, 1, 2, 12, 135, 60, 132, 58, 60, 135, 1, 0.678954
152, 3, wb, attraction, a-b-da, 5, 1, 2, 12, 135, 60, 132, 58, 60, 135, 2, 0.850889
152, 3, wb, filler, NA, 999, 999, 2, 13, 123, 139, 75, 93, 151, 89, 1, 0.462444
152, 3, wb, filler, NA, 999, 999, 2, 13, 123, 139, 75, 93, 151, 89, 3, 0.762935
152, 3, wb, attraction, a-b-db, 9, 2, 2, 14, 90, 165, 86, 157, 165, 90, 1, 0.609991
152, 3, wb, attraction, a-b-db, 9, 2, 2, 14, 90, 165, 86, 157, 165, 90, 3, 1.16848
152, 3, wb, filler, NA, 999, 999, 2, 15, 123, 155, 107, 71, 92, 159, 1, 0.527413
152, 3, wb, filler, NA, 999, 999, 2, 15, 123, 155, 107, 71, 92, 159, 3, 0.745191
152, 3, wb, filler, NA, 999, 999, 2, 16, 91, 57, 57, 187, 112, 88, 1, 0.664907
152, 3, wb, filler, NA, 999, 999, 2, 16, 91, 57, 57, 187, 112, 88, 3, 0.997455
152, 3, wb, attraction, a-b-da, 5, 2, 2, 17, 161, 88, 165, 90, 90, 165, 1, 0.442913
152, 3, wb, attraction, a-b-da, 5, 2, 2, 17, 161, 88, 165, 90, 90, 165, 3, 0.592072
152, 3, wb, attraction, a-b-db, 5, 3, 2, 18, 117, 190, 195, 120, 120, 195, 1, 0.461779
152, 3, wb, attraction, a-b-db, 5, 3, 2, 18, 117, 190, 195, 120, 120, 195, 3, 0.514481
152, 3, wb, attraction, a-b-db, 14, 1, 2, 19, 56, 125, 135, 60, 60, 135, 1, 0.827387
152, 3, wb, attraction, a-b-db, 14, 1, 2, 19, 56, 125, 135, 60, 60, 135, 2, 0.529262
152, 3, wb, catch, NA, 999, 999, 2, 20, 103, 92, 128, 187, 103, 152, 1, 0.505655
152, 3, wb, catch, NA, 999, 999, 2, 20, 103, 92, 128, 187, 103, 152, 2, 0.780095
152, 3, wb, attraction, a-b-db, 2, 2, 2, 21, 165, 90, 89, 163, 90, 165, 1, 0.546455
152, 3, wb, attraction, a-b-db, 2, 2, 2, 21, 165, 90, 89, 163, 90, 165, 3, 0.579569
152, 3, wb, attraction, a-b-db, 5, 2, 2, 22, 165, 90, 90, 165, 88, 161, 1, 0.490025
152, 3, wb, attraction, a-b-db, 5, 2, 2, 22, 165, 90, 90, 165, 88, 161, 2, 0.6452
152, 3, wb, filler, NA, 999, 999, 2, 23, 184, 154, 174, 139, 122, 149, 1, 0.488895
152, 3, wb, filler, NA, 999, 999, 2, 23, 184, 154, 174, 139, 122, 149, 3, 1.35602
152, 3, wb, attraction, a-b-da, 9, 3, 2, 24, 186, 114, 120, 195, 195, 120, 1, 0.691684
152, 3, wb, attraction, a-b-da, 9, 3, 2, 24, 186, 114, 120, 195, 195, 120, 2, 0.470685
152, 3, wb, attraction, a-b-db, 9, 3, 2, 25, 120, 195, 195, 120, 114, 186, 1, 0.465924
152, 3, wb, attraction, a-b-db, 9, 3, 2, 25, 120, 195, 195, 120, 114, 186, 2, 0.462372
152, 3, wb, attraction, a-b-db, 2, 1, 2, 26, 59, 134, 60, 135, 135, 60, 1, 0.657481
152, 3, wb, attraction, a-b-db, 2, 1, 2, 26, 59, 134, 60, 135, 135, 60, 3, 0.66196
152, 3, wb, filler, NA, 999, 999, 2, 27, 67, 103, 149, 110, 176, 96, 1, 0.48886
152, 3, wb, filler, NA, 999, 999, 2, 27, 67, 103, 149, 110, 176, 96, 2, 0.796116
152, 3, wb, attraction, a-b-da, 2, 2, 2, 28, 90, 165, 163, 89, 165, 90, 1, 0.497919
152, 3, wb, attraction, a-b-da, 2, 2, 2, 28, 90, 165, 163, 89, 165, 90, 3, 0.98092
152, 3, wb, attraction, a-b-db, 14, 2, 2, 29, 83, 153, 90, 165, 165, 90, 1, 1.04312
152, 3, wb, attraction, a-b-db, 14, 2, 2, 29, 83, 153, 90, 165, 165, 90, 3, 0.728209
152, 3, wb, filler, NA, 999, 999, 2, 30, 157, 114, 97, 110, 102, 135, 1, 0.496637
152, 3, wb, filler, NA, 999, 999, 2, 30, 157, 114, 97, 110, 102, 135, 3, 0.619711
152, 3, wb, attraction, a-b-da, 14, 1, 2, 31, 135, 60, 125, 56, 60, 135, 1, 0.936807
152, 3, wb, attraction, a-b-da, 14, 1, 2, 31, 135, 60, 125, 56, 60, 135, 3, 0.466504
152, 3, wb, attraction, a-b-da, 9, 1, 2, 32, 60, 135, 135, 60, 129, 57, 1, 0.589546
152, 3, wb, attraction, a-b-da, 9, 1, 2, 32, 60, 135, 135, 60, 129, 57, 3, 0.556712
152, 3, wb, attraction, a-b-db, 9, 1, 2, 33, 135, 60, 60, 135, 57, 129, 1, 0.731769
152, 3, wb, attraction, a-b-db, 9, 1, 2, 33, 135, 60, 60, 135, 57, 129, 3, 0.637619
152, 3, wb, filler, NA, 999, 999, 2, 34, 187, 160, 117, 130, 83, 186, 3, 1.48997
152, 3, wb, filler, NA, 999, 999, 2, 34, 187, 160, 117, 130, 83, 186, 1, 0.37284
152, 3, wb, filler, NA, 999, 999, 2, 35, 148, 72, 103, 76, 108, 161, 1, 0.699364
152, 3, wb, filler, NA, 999, 999, 2, 35, 148, 72, 103, 76, 108, 161, 3, 0.510556
152, 3, wb, filler, NA, 999, 999, 2, 36, 139, 93, 78, 158, 193, 120, 1, 0.495466
152, 3, wb, filler, NA, 999, 999, 2, 36, 139, 93, 78, 158, 193, 120, 3, 0.442674
152, 3, wb, filler, NA, 999, 999, 2, 37, 99, 101, 98, 116, 190, 182, 1, 1.0945
152, 3, wb, filler, NA, 999, 999, 2, 37, 99, 101, 98, 116, 190, 182, 3, 0.401508
152, 3, wb, attraction, a-b-da, 14, 3, 3, 1, 195, 120, 120, 195, 181, 111, 3, 1.95144
152, 3, wb, attraction, a-b-da, 14, 3, 3, 1, 195, 120, 120, 195, 181, 111, 1, 0.463941
152, 3, wb, catch, NA, 999, 999, 3, 2, 152, 163, 126, 69, 132, 123, 3, 0.483109
152, 3, wb, catch, NA, 999, 999, 3, 2, 152, 163, 126, 69, 132, 123, 1, 0.439081
152, 3, wb, filler, NA, 999, 999, 3, 3, 135, 167, 78, 143, 76, 181, 3, 0.74736
152, 3, wb, filler, NA, 999, 999, 3, 3, 135, 167, 78, 143, 76, 181, 1, 0.492651
152, 3, wb, filler, NA, 999, 999, 3, 4, 58, 160, 81, 120, 144, 146, 1, 0.798214
152, 3, wb, filler, NA, 999, 999, 3, 4, 58, 160, 81, 120, 144, 146, 3, 0.757369
152, 3, wb, filler, NA, 999, 999, 3, 5, 83, 128, 77, 58, 193, 136, 2, 0.876419
152, 3, wb, filler, NA, 999, 999, 3, 5, 83, 128, 77, 58, 193, 136, 3, 0.656184
152, 3, wb, attraction, a-b-db, 2, 1, 3, 6, 59, 134, 60, 135, 135, 60, 1, 0.691848
152, 3, wb, attraction, a-b-db, 2, 1, 3, 6, 59, 134, 60, 135, 135, 60, 3, 0.470794
152, 3, wb, attraction, a-b-db, 9, 1, 3, 7, 60, 135, 57, 129, 135, 60, 1, 0.521983
152, 3, wb, attraction, a-b-db, 9, 1, 3, 7, 60, 135, 57, 129, 135, 60, 3, 0.419817
152, 3, wb, attraction, a-b-db, 2, 3, 3, 8, 195, 120, 120, 195, 119, 193, 1, 1.03301
152, 3, wb, attraction, a-b-db, 2, 3, 3, 8, 195, 120, 120, 195, 119, 193, 3, 0.470699
152, 3, wb, filler, NA, 999, 999, 3, 9, 126, 173, 97, 192, 168, 120, 1, 0.433671
152, 3, wb, filler, NA, 999, 999, 3, 9, 126, 173, 97, 192, 168, 120, 3, 0.471524
152, 3, wb, attraction, a-b-da, 2, 1, 3, 10, 134, 59, 60, 135, 135, 60, 1, 0.730692
152, 3, wb, attraction, a-b-da, 2, 1, 3, 10, 134, 59, 60, 135, 135, 60, 3, 0.780452
152, 3, wb, attraction, a-b-db, 2, 2, 3, 11, 165, 90, 90, 165, 89, 163, 1, 0.642726
152, 3, wb, attraction, a-b-db, 2, 2, 3, 11, 165, 90, 90, 165, 89, 163, 3, 0.639948
152, 3, wb, attraction, a-b-da, 14, 1, 3, 12, 125, 56, 60, 135, 135, 60, 1, 0.564323
152, 3, wb, attraction, a-b-da, 14, 1, 3, 12, 125, 56, 60, 135, 135, 60, 2, 0.66885
152, 3, wb, filler, NA, 999, 999, 3, 13, 64, 139, 190, 190, 150, 69, 1, 0.487892
152, 3, wb, filler, NA, 999, 999, 3, 13, 64, 139, 190, 190, 150, 69, 2, 0.387694
152, 3, wb, attraction, a-b-db, 9, 3, 3, 14, 114, 186, 120, 195, 195, 120, 1, 0.506214
152, 3, wb, attraction, a-b-db, 9, 3, 3, 14, 114, 186, 120, 195, 195, 120, 3, 0.596755
152, 3, wb, attraction, a-b-db, 9, 2, 3, 15, 86, 157, 90, 165, 165, 90, 1, 0.322412
152, 3, wb, attraction, a-b-db, 9, 2, 3, 15, 86, 157, 90, 165, 165, 90, 2, 0.588396
152, 3, wb, attraction, a-b-da, 2, 2, 3, 16, 165, 90, 90, 165, 163, 89, 1, 0.474832
152, 3, wb, attraction, a-b-da, 2, 2, 3, 16, 165, 90, 90, 165, 163, 89, 3, 0.710623
152, 3, wb, catch, NA, 999, 999, 3, 17, 62, 133, 135, 120, 145, 170, 1, 0.372456
152, 3, wb, catch, NA, 999, 999, 3, 17, 62, 133, 135, 120, 145, 170, 2, 0.487553
152, 3, wb, attraction, a-b-da, 14, 2, 3, 18, 90, 165, 165, 90, 153, 83, 1, 0.521964
152, 3, wb, attraction, a-b-da, 14, 2, 3, 18, 90, 165, 165, 90, 153, 83, 3, 0.587704
152, 3, wb, attraction, a-b-db, 14, 3, 3, 19, 195, 120, 120, 195, 111, 181, 1, 0.362198
152, 3, wb, attraction, a-b-db, 14, 3, 3, 19, 195, 120, 120, 195, 111, 181, 2, 0.450729
152, 3, wb, catch, NA, 999, 999, 3, 20, 120, 195, 130, 65, 130, 125, 1, 0.502514
152, 3, wb, catch, NA, 999, 999, 3, 20, 120, 195, 130, 65, 130, 125, 3, 0.857672
152, 3, wb, attraction, a-b-db, 5, 1, 3, 21, 60, 135, 135, 60, 58, 132, 1, 0.580636
152, 3, wb, attraction, a-b-db, 5, 1, 3, 21, 60, 135, 135, 60, 58, 132, 3, 0.524508
152, 3, wb, attraction, a-b-da, 2, 3, 3, 22, 195, 120, 193, 119, 120, 195, 1, 0.476976
152, 3, wb, attraction, a-b-da, 2, 3, 3, 22, 195, 120, 193, 119, 120, 195, 3, 0.416787
152, 3, wb, attraction, a-b-da, 5, 2, 3, 23, 90, 165, 161, 88, 165, 90, 1, 0.317843
152, 3, wb, attraction, a-b-da, 5, 2, 3, 23, 90, 165, 161, 88, 165, 90, 2, 0.728328
152, 3, wb, filler, NA, 999, 999, 3, 24, 58, 146, 68, 152, 188, 173, 1, 0.496626
152, 3, wb, filler, NA, 999, 999, 3, 24, 58, 146, 68, 152, 188, 173, 3, 0.435921
152, 3, wb, filler, NA, 999, 999, 3, 25, 121, 67, 167, 152, 174, 195, 1, 0.352303
152, 3, wb, filler, NA, 999, 999, 3, 25, 121, 67, 167, 152, 174, 195, 3, 0.465713
152, 3, wb, attraction, a-b-db, 14, 1, 3, 26, 56, 125, 135, 60, 60, 135, 1, 0.524648
152, 3, wb, attraction, a-b-db, 14, 1, 3, 26, 56, 125, 135, 60, 60, 135, 3, 0.462668
152, 3, wb, attraction, a-b-da, 5, 1, 3, 27, 135, 60, 132, 58, 60, 135, 1, 0.521752
152, 3, wb, attraction, a-b-da, 5, 1, 3, 27, 135, 60, 132, 58, 60, 135, 3, 0.451532
152, 3, wb, attraction, a-b-da, 5, 3, 3, 28, 190, 117, 120, 195, 195, 120, 1, 0.463326
152, 3, wb, attraction, a-b-da, 5, 3, 3, 28, 190, 117, 120, 195, 195, 120, 2, 0.643672
152, 3, wb, filler, NA, 999, 999, 3, 29, 162, 70, 180, 173, 146, 96, 1, 0.783408
152, 3, wb, filler, NA, 999, 999, 3, 29, 162, 70, 180, 173, 146, 96, 2, 0.463223
152, 3, wb, filler, NA, 999, 999, 3, 30, 185, 94, 118, 144, 85, 115, 1, 0.426351
152, 3, wb, filler, NA, 999, 999, 3, 30, 185, 94, 118, 144, 85, 115, 2, 0.464112
152, 3, wb, attraction, a-b-da, 9, 1, 3, 31, 129, 57, 60, 135, 135, 60, 1, 0.643235
152, 3, wb, attraction, a-b-da, 9, 1, 3, 31, 129, 57, 60, 135, 135, 60, 3, 0.760381
152, 3, wb, attraction, a-b-db, 14, 2, 3, 32, 90, 165, 83, 153, 165, 90, 1, 0.383432
152, 3, wb, attraction, a-b-db, 14, 2, 3, 32, 90, 165, 83, 153, 165, 90, 3, 0.711246
152, 3, wb, filler, NA, 999, 999, 3, 33, 124, 142, 93, 151, 158, 124, 1, 0.48839
152, 3, wb, filler, NA, 999, 999, 3, 33, 124, 142, 93, 151, 158, 124, 3, 0.835527
152, 3, wb, attraction, a-b-da, 9, 3, 3, 34, 186, 114, 120, 195, 195, 120, 1, 0.359854
152, 3, wb, attraction, a-b-da, 9, 3, 3, 34, 186, 114, 120, 195, 195, 120, 2, 0.528351
152, 3, wb, attraction, a-b-db, 5, 3, 3, 35, 117, 190, 195, 120, 120, 195, 1, 0.480912
152, 3, wb, attraction, a-b-db, 5, 3, 3, 35, 117, 190, 195, 120, 120, 195, 2, 0.468697
152, 3, wb, attraction, a-b-db, 5, 2, 3, 36, 165, 90, 88, 161, 90, 165, 1, 1.83978
152, 3, wb, attraction, a-b-db, 5, 2, 3, 36, 165, 90, 88, 161, 90, 165, 3, 1.1405
152, 3, wb, attraction, a-b-da, 9, 2, 3, 37, 157, 86, 90, 165, 165, 90, 1, 0.700164
152, 3, wb, attraction, a-b-da, 9, 2, 3, 37, 157, 86, 90, 165, 165, 90, 2, 0.487205
152, 3, wb, attraction, a-b-da, 5, 2, 4, 1, 161, 88, 165, 90, 90, 165, 1, 0.457651
152, 3, wb, attraction, a-b-da, 5, 2, 4, 1, 161, 88, 165, 90, 90, 165, 2, 0.486214
152, 3, wb, attraction, a-b-db, 9, 1, 4, 2, 57, 129, 60, 135, 135, 60, 1, 0.928612
152, 3, wb, attraction, a-b-db, 9, 1, 4, 2, 57, 129, 60, 135, 135, 60, 3, 1.31431
152, 3, wb, attraction, a-b-db, 14, 2, 4, 3, 165, 90, 83, 153, 90, 165, 1, 0.811246
152, 3, wb, attraction, a-b-db, 14, 2, 4, 3, 165, 90, 83, 153, 90, 165, 3, 0.48164
152, 3, wb, filler, NA, 999, 999, 4, 4, 107, 147, 166, 93, 155, 107, 1, 0.315988
152, 3, wb, filler, NA, 999, 999, 4, 4, 107, 147, 166, 93, 155, 107, 2, 0.654539
152, 3, wb, attraction, a-b-db, 5, 3, 4, 5, 195, 120, 117, 190, 120, 195, 1, 0.338245
152, 3, wb, attraction, a-b-db, 5, 3, 4, 5, 195, 120, 117, 190, 120, 195, 3, 0.459524
152, 3, wb, attraction, a-b-da, 5, 1, 4, 6, 132, 58, 135, 60, 60, 135, 1, 0.934706
152, 3, wb, attraction, a-b-da, 5, 1, 4, 6, 132, 58, 135, 60, 60, 135, 3, 0.38429
152, 3, wb, attraction, a-b-db, 2, 2, 4, 7, 90, 165, 89, 163, 165, 90, 1, 0.438784
152, 3, wb, attraction, a-b-db, 2, 2, 4, 7, 90, 165, 89, 163, 165, 90, 3, 0.635907
152, 3, wb, attraction, a-b-da, 5, 3, 4, 8, 195, 120, 190, 117, 120, 195, 1, 0.288302
152, 3, wb, attraction, a-b-da, 5, 3, 4, 8, 195, 120, 190, 117, 120, 195, 2, 0.467586
152, 3, wb, attraction, a-b-da, 9, 1, 4, 9, 60, 135, 135, 60, 129, 57, 1, 1.11862
152, 3, wb, attraction, a-b-da, 9, 1, 4, 9, 60, 135, 135, 60, 129, 57, 3, 0.472883
152, 3, wb, attraction, a-b-da, 2, 3, 4, 10, 195, 120, 193, 119, 120, 195, 1, 0.41201
152, 3, wb, attraction, a-b-da, 2, 3, 4, 10, 195, 120, 193, 119, 120, 195, 2, 0.78656
152, 3, wb, attraction, a-b-db, 5, 2, 4, 11, 90, 165, 165, 90, 88, 161, 1, 0.416945
152, 3, wb, attraction, a-b-db, 5, 2, 4, 11, 90, 165, 165, 90, 88, 161, 3, 0.655438
152, 3, wb, attraction, a-b-db, 9, 3, 4, 12, 195, 120, 120, 195, 114, 186, 1, 0.49925
152, 3, wb, attraction, a-b-db, 9, 3, 4, 12, 195, 120, 120, 195, 114, 186, 2, 0.422432
152, 3, wb, filler, NA, 999, 999, 4, 13, 172, 115, 86, 106, 193, 156, 1, 0.435536
152, 3, wb, filler, NA, 999, 999, 4, 13, 172, 115, 86, 106, 193, 156, 3, 0.401403
152, 3, wb, attraction, a-b-da, 14, 1, 4, 14, 125, 56, 60, 135, 135, 60, 1, 0.67111
152, 3, wb, attraction, a-b-da, 14, 1, 4, 14, 125, 56, 60, 135, 135, 60, 2, 0.555011
152, 3, wb, attraction, a-b-da, 14, 3, 4, 15, 195, 120, 120, 195, 181, 111, 1, 0.578853
152, 3, wb, attraction, a-b-da, 14, 3, 4, 15, 195, 120, 120, 195, 181, 111, 2, 0.7065
152, 3, wb, attraction, a-b-db, 14, 3, 4, 16, 111, 181, 120, 195, 195, 120, 1, 0.620242
152, 3, wb, attraction, a-b-db, 14, 3, 4, 16, 111, 181, 120, 195, 195, 120, 3, 0.762699
152, 3, wb, attraction, a-b-da, 9, 3, 4, 17, 195, 120, 186, 114, 120, 195, 1, 0.673752
152, 3, wb, attraction, a-b-da, 9, 3, 4, 17, 195, 120, 186, 114, 120, 195, 2, 0.501544
152, 3, wb, attraction, a-b-db, 5, 1, 4, 18, 135, 60, 60, 135, 58, 132, 1, 0.495236
152, 3, wb, attraction, a-b-db, 5, 1, 4, 18, 135, 60, 60, 135, 58, 132, 3, 0.50648
152, 3, wb, catch, NA, 999, 999, 4, 19, 135, 120, 125, 190, 101, 94, 1, 0.38812
152, 3, wb, catch, NA, 999, 999, 4, 19, 135, 120, 125, 190, 101, 94, 2, 0.651436
152, 3, wb, attraction, a-b-db, 2, 3, 4, 20, 195, 120, 119, 193, 120, 195, 1, 0.367164
152, 3, wb, attraction, a-b-db, 2, 3, 4, 20, 195, 120, 119, 193, 120, 195, 3, 0.431632
152, 3, wb, filler, NA, 999, 999, 4, 21, 142, 139, 134, 91, 146, 89, 1, 0.276089
152, 3, wb, filler, NA, 999, 999, 4, 21, 142, 139, 134, 91, 146, 89, 2, 0.440007
152, 3, wb, filler, NA, 999, 999, 4, 22, 170, 164, 79, 131, 99, 188, 1, 0.772542
152, 3, wb, filler, NA, 999, 999, 4, 22, 170, 164, 79, 131, 99, 188, 3, 0.38031
152, 3, wb, catch, NA, 999, 999, 4, 23, 116, 79, 180, 135, 116, 139, 1, 0.450764
152, 3, wb, catch, NA, 999, 999, 4, 23, 116, 79, 180, 135, 116, 139, 2, 0.359955
152, 3, wb, filler, NA, 999, 999, 4, 24, 180, 179, 66, 83, 100, 76, 1, 0.31899
152, 3, wb, filler, NA, 999, 999, 4, 24, 180, 179, 66, 83, 100, 76, 3, 0.561689
152, 3, wb, attraction, a-b-db, 2, 1, 4, 25, 59, 134, 135, 60, 60, 135, 1, 0.296551
152, 3, wb, attraction, a-b-db, 2, 1, 4, 25, 59, 134, 135, 60, 60, 135, 2, 0.643826
152, 3, wb, filler, NA, 999, 999, 4, 26, 89, 79, 63, 156, 193, 158, 1, 0.519546
152, 3, wb, filler, NA, 999, 999, 4, 26, 89, 79, 63, 156, 193, 158, 3, 0.418046
152, 3, wb, filler, NA, 999, 999, 4, 27, 82, 140, 130, 194, 105, 146, 1, 0.447404
152, 3, wb, filler, NA, 999, 999, 4, 27, 82, 140, 130, 194, 105, 146, 3, 0.436549
152, 3, wb, filler, NA, 999, 999, 4, 28, 176, 154, 129, 91, 64, 143, 1, 0.360883
152, 3, wb, filler, NA, 999, 999, 4, 28, 176, 154, 129, 91, 64, 143, 3, 0.41747
152, 3, wb, catch, NA, 999, 999, 4, 29, 170, 145, 96, 99, 104, 151, 1, 0.302512
152, 3, wb, catch, NA, 999, 999, 4, 29, 170, 145, 96, 99, 104, 151, 3, 0.521806
152, 3, wb, filler, NA, 999, 999, 4, 30, 87, 162, 178, 71, 138, 173, 1, 0.698874
152, 3, wb, filler, NA, 999, 999, 4, 30, 87, 162, 178, 71, 138, 173, 3, 1.15008
152, 3, wb, attraction, a-b-da, 2, 1, 4, 31, 134, 59, 60, 135, 135, 60, 1, 0.557452
152, 3, wb, attraction, a-b-da, 2, 1, 4, 31, 134, 59, 60, 135, 135, 60, 2, 0.622113
152, 3, wb, attraction, a-b-db, 9, 2, 4, 32, 165, 90, 86, 157, 90, 165, 1, 0.45911
152, 3, wb, attraction, a-b-db, 9, 2, 4, 32, 165, 90, 86, 157, 90, 165, 2, 0.495633
152, 3, wb, attraction, a-b-db, 14, 1, 4, 33, 56, 125, 60, 135, 135, 60, 1, 0.561355
152, 3, wb, attraction, a-b-db, 14, 1, 4, 33, 56, 125, 60, 135, 135, 60, 3, 0.481957
152, 3, wb, attraction, a-b-da, 14, 2, 4, 34, 90, 165, 153, 83, 165, 90, 1, 0.30028
152, 3, wb, attraction, a-b-da, 14, 2, 4, 34, 90, 165, 153, 83, 165, 90, 3, 0.743565
152, 3, wb, attraction, a-b-da, 2, 2, 4, 35, 90, 165, 163, 89, 165, 90, 1, 0.399619
152, 3, wb, attraction, a-b-da, 2, 2, 4, 35, 90, 165, 163, 89, 165, 90, 2, 0.534419
152, 3, wb, filler, NA, 999, 999, 4, 36, 62, 70, 132, 122, 151, 129, 1, 0.558822
152, 3, wb, filler, NA, 999, 999, 4, 36, 62, 70, 132, 122, 151, 129, 3, 0.439337
152, 3, wb, attraction, a-b-da, 9, 2, 4, 37, 165, 90, 157, 86, 90, 165, 1, 0.963746
152, 3, wb, attraction, a-b-da, 9, 2, 4, 37, 165, 90, 157, 86, 90, 165, 2, 0.396184
152, 3, wb, filler, NA, 999, 999, 5, 1, 129, 65, 66, 124, 109, 153, 1, 2.62463
152, 3, wb, filler, NA, 999, 999, 5, 1, 129, 65, 66, 124, 109, 153, 2, 0.669728
152, 3, wb, filler, NA, 999, 999, 5, 2, 182, 146, 66, 150, 97, 156, 2, 0.981576
152, 3, wb, filler, NA, 999, 999, 5, 2, 182, 146, 66, 150, 97, 156, 1, 0.360401
152, 3, wb, attraction, a-b-da, 2, 2, 5, 3, 165, 90, 90, 165, 163, 89, 1, 1.14357
152, 3, wb, attraction, a-b-da, 2, 2, 5, 3, 165, 90, 90, 165, 163, 89, 2, 0.808513
152, 3, wb, attraction, a-b-da, 5, 2, 5, 4, 165, 90, 90, 165, 161, 88, 1, 0.41358
152, 3, wb, attraction, a-b-da, 5, 2, 5, 4, 165, 90, 90, 165, 161, 88, 2, 0.604162
152, 3, wb, filler, NA, 999, 999, 5, 5, 79, 146, 77, 142, 183, 79, 1, 0.592674
152, 3, wb, filler, NA, 999, 999, 5, 5, 79, 146, 77, 142, 183, 79, 3, 0.752985
152, 3, wb, catch, NA, 999, 999, 5, 6, 172, 143, 120, 135, 87, 108, 1, 0.304702
152, 3, wb, catch, NA, 999, 999, 5, 6, 172, 143, 120, 135, 87, 108, 2, 0.475194
152, 3, wb, filler, NA, 999, 999, 5, 7, 177, 194, 190, 84, 161, 124, 1, 0.365755
152, 3, wb, filler, NA, 999, 999, 5, 7, 177, 194, 190, 84, 161, 124, 3, 0.454204
152, 3, wb, attraction, a-b-db, 2, 3, 5, 8, 195, 120, 119, 193, 120, 195, 1, 0.377985
152, 3, wb, attraction, a-b-db, 2, 3, 5, 8, 195, 120, 119, 193, 120, 195, 2, 0.633851
152, 3, wb, attraction, a-b-db, 9, 2, 5, 9, 90, 165, 165, 90, 86, 157, 1, 0.390263
152, 3, wb, attraction, a-b-db, 9, 2, 5, 9, 90, 165, 165, 90, 86, 157, 2, 0.773569
152, 3, wb, attraction, a-b-da, 9, 2, 5, 10, 165, 90, 157, 86, 90, 165, 1, 1.65181
152, 3, wb, attraction, a-b-da, 9, 2, 5, 10, 165, 90, 157, 86, 90, 165, 2, 0.536733
152, 3, wb, attraction, a-b-da, 14, 1, 5, 11, 135, 60, 125, 56, 60, 135, 1, 0.473026
152, 3, wb, attraction, a-b-da, 14, 1, 5, 11, 135, 60, 125, 56, 60, 135, 3, 0.564945
152, 3, wb, filler, NA, 999, 999, 5, 12, 74, 182, 128, 81, 133, 192, 1, 0.324069
152, 3, wb, filler, NA, 999, 999, 5, 12, 74, 182, 128, 81, 133, 192, 3, 0.41384
152, 3, wb, attraction, a-b-db, 9, 1, 5, 13, 60, 135, 135, 60, 57, 129, 1, 0.826967
152, 3, wb, attraction, a-b-db, 9, 1, 5, 13, 60, 135, 135, 60, 57, 129, 2, 0.464676
152, 3, wb, attraction, a-b-da, 14, 3, 5, 14, 195, 120, 120, 195, 181, 111, 1, 0.435814
152, 3, wb, attraction, a-b-da, 14, 3, 5, 14, 195, 120, 120, 195, 181, 111, 2, 0.489734
152, 3, wb, attraction, a-b-db, 5, 3, 5, 15, 117, 190, 195, 120, 120, 195, 1, 0.476049
152, 3, wb, attraction, a-b-db, 5, 3, 5, 15, 117, 190, 195, 120, 120, 195, 2, 0.447998
152, 3, wb, attraction, a-b-db, 2, 1, 5, 16, 135, 60, 59, 134, 60, 135, 1, 1.59578
152, 3, wb, attraction, a-b-db, 2, 1, 5, 16, 135, 60, 59, 134, 60, 135, 2, 0.610588
152, 3, wb, filler, NA, 999, 999, 5, 17, 92, 153, 84, 177, 191, 141, 1, 0.487591
152, 3, wb, filler, NA, 999, 999, 5, 17, 92, 153, 84, 177, 191, 141, 3, 0.571461
152, 3, wb, filler, NA, 999, 999, 5, 18, 75, 116, 118, 157, 88, 175, 1, 0.65856
152, 3, wb, filler, NA, 999, 999, 5, 18, 75, 116, 118, 157, 88, 175, 2, 0.606965
152, 3, wb, attraction, a-b-db, 14, 1, 5, 19, 60, 135, 56, 125, 135, 60, 1, 0.500069
152, 3, wb, attraction, a-b-db, 14, 1, 5, 19, 60, 135, 56, 125, 135, 60, 3, 0.535272
152, 3, wb, filler, NA, 999, 999, 5, 20, 173, 125, 130, 151, 77, 145, 1, 0.367678
152, 3, wb, filler, NA, 999, 999, 5, 20, 173, 125, 130, 151, 77, 145, 2, 0.424266
152, 3, wb, filler, NA, 999, 999, 5, 21, 140, 170, 186, 157, 84, 131, 1, 0.380663
152, 3, wb, filler, NA, 999, 999, 5, 21, 140, 170, 186, 157, 84, 131, 2, 0.452721
152, 3, wb, attraction, a-b-db, 2, 2, 5, 22, 165, 90, 89, 163, 90, 165, 1, 0.512237
152, 3, wb, attraction, a-b-db, 2, 2, 5, 22, 165, 90, 89, 163, 90, 165, 2, 0.746765
152, 3, wb, filler, NA, 999, 999, 5, 23, 169, 136, 99, 115, 179, 102, 1, 0.274605
152, 3, wb, filler, NA, 999, 999, 5, 23, 169, 136, 99, 115, 179, 102, 3, 0.406449
152, 3, wb, catch, NA, 999, 999, 5, 24, 102, 153, 171, 144, 107, 88, 1, 0.452293
152, 3, wb, catch, NA, 999, 999, 5, 24, 102, 153, 171, 144, 107, 88, 2, 0.377427
152, 3, wb, attraction, a-b-da, 2, 3, 5, 25, 120, 195, 195, 120, 193, 119, 1, 0.951864
152, 3, wb, attraction, a-b-da, 2, 3, 5, 25, 120, 195, 195, 120, 193, 119, 3, 0.440914
152, 3, wb, attraction, a-b-db, 5, 2, 5, 26, 165, 90, 88, 161, 90, 165, 1, 0.932724
152, 3, wb, attraction, a-b-db, 5, 2, 5, 26, 165, 90, 88, 161, 90, 165, 2, 0.550471
152, 3, wb, attraction, a-b-da, 5, 1, 5, 27, 135, 60, 60, 135, 132, 58, 1, 0.446054
152, 3, wb, attraction, a-b-da, 5, 1, 5, 27, 135, 60, 60, 135, 132, 58, 2, 0.91538
152, 3, wb, attraction, a-b-db, 14, 3, 5, 28, 111, 181, 195, 120, 120, 195, 1, 0.612365
152, 3, wb, attraction, a-b-db, 14, 3, 5, 28, 111, 181, 195, 120, 120, 195, 2, 0.882813
152, 3, wb, attraction, a-b-da, 9, 3, 5, 29, 195, 120, 186, 114, 120, 195, 1, 0.349172
152, 3, wb, attraction, a-b-da, 9, 3, 5, 29, 195, 120, 186, 114, 120, 195, 3, 0.534237
152, 3, wb, attraction, a-b-db, 9, 3, 5, 30, 120, 195, 114, 186, 195, 120, 1, 1.03872
152, 3, wb, attraction, a-b-db, 9, 3, 5, 30, 120, 195, 114, 186, 195, 120, 2, 0.54096
152, 3, wb, attraction, a-b-da, 2, 1, 5, 31, 135, 60, 60, 135, 134, 59, 1, 0.595468
152, 3, wb, attraction, a-b-da, 2, 1, 5, 31, 135, 60, 60, 135, 134, 59, 2, 0.810754
152, 3, wb, attraction, a-b-da, 9, 1, 5, 32, 129, 57, 60, 135, 135, 60, 1, 1.36759
152, 3, wb, attraction, a-b-da, 9, 1, 5, 32, 129, 57, 60, 135, 135, 60, 3, 0.879803
152, 3, wb, attraction, a-b-da, 5, 3, 5, 33, 190, 117, 195, 120, 120, 195, 1, 0.394197
152, 3, wb, attraction, a-b-da, 5, 3, 5, 33, 190, 117, 195, 120, 120, 195, 2, 0.665511
152, 3, wb, attraction, a-b-db, 5, 1, 5, 34, 135, 60, 58, 132, 60, 135, 1, 0.892371
152, 3, wb, attraction, a-b-db, 5, 1, 5, 34, 135, 60, 58, 132, 60, 135, 2, 0.623386
152, 3, wb, attraction, a-b-db, 14, 2, 5, 35, 165, 90, 83, 153, 90, 165, 1, 0.459747
152, 3, wb, attraction, a-b-db, 14, 2, 5, 35, 165, 90, 83, 153, 90, 165, 3, 0.504268
152, 3, wb, catch, NA, 999, 999, 5, 36, 134, 181, 102, 93, 130, 125, 1, 0.354166
152, 3, wb, catch, NA, 999, 999, 5, 36, 134, 181, 102, 93, 130, 125, 3, 0.635348
152, 3, wb, attraction, a-b-da, 14, 2, 5, 37, 153, 83, 165, 90, 90, 165, 1, 0.375788
152, 3, wb, attraction, a-b-da, 14, 2, 5, 37, 153, 83, 165, 90, 90, 165, 3, 0.455599
152, 3, wb, attraction, a-b-da, 2, 2, 6, 1, 90, 165, 165, 90, 163, 89, 1, 0.379385
152, 3, wb, attraction, a-b-da, 2, 2, 6, 1, 90, 165, 165, 90, 163, 89, 2, 0.683243
152, 3, wb, attraction, a-b-db, 14, 2, 6, 2, 165, 90, 90, 165, 83, 153, 1, 0.517604
152, 3, wb, attraction, a-b-db, 14, 2, 6, 2, 165, 90, 90, 165, 83, 153, 3, 0.712114
152, 3, wb, filler, NA, 999, 999, 6, 3, 194, 64, 148, 152, 144, 185, 2, 1.00128
152, 3, wb, filler, NA, 999, 999, 6, 3, 194, 64, 148, 152, 144, 185, 3, 0.656358
152, 3, wb, attraction, a-b-da, 14, 1, 6, 4, 60, 135, 125, 56, 135, 60, 1, 0.611914
152, 3, wb, attraction, a-b-da, 14, 1, 6, 4, 60, 135, 125, 56, 135, 60, 3, 0.514407
152, 3, wb, attraction, a-b-db, 5, 1, 6, 5, 58, 132, 135, 60, 60, 135, 1, 0.747405
152, 3, wb, attraction, a-b-db, 5, 1, 6, 5, 58, 132, 135, 60, 60, 135, 2, 0.428529
152, 3, wb, attraction, a-b-db, 5, 3, 6, 6, 195, 120, 120, 195, 117, 190, 1, 0.497047
152, 3, wb, attraction, a-b-db, 5, 3, 6, 6, 195, 120, 120, 195, 117, 190, 2, 0.444216
152, 3, wb, filler, NA, 999, 999, 6, 7, 93, 149, 67, 104, 66, 142, 1, 0.455953
152, 3, wb, filler, NA, 999, 999, 6, 7, 93, 149, 67, 104, 66, 142, 2, 0.468484
152, 3, wb, attraction, a-b-db, 9, 1, 6, 8, 135, 60, 60, 135, 57, 129, 1, 0.503619
152, 3, wb, attraction, a-b-db, 9, 1, 6, 8, 135, 60, 60, 135, 57, 129, 2, 0.610757
152, 3, wb, catch, NA, 999, 999, 6, 9, 132, 123, 112, 83, 180, 135, 1, 0.487826
152, 3, wb, catch, NA, 999, 999, 6, 9, 132, 123, 112, 83, 180, 135, 3, 0.435678
152, 3, wb, attraction, a-b-da, 9, 3, 6, 10, 195, 120, 186, 114, 120, 195, 1, 0.44811
152, 3, wb, attraction, a-b-da, 9, 3, 6, 10, 195, 120, 186, 114, 120, 195, 2, 0.589359
152, 3, wb, filler, NA, 999, 999, 6, 11, 76, 114, 186, 190, 107, 75, 1, 0.435674
152, 3, wb, filler, NA, 999, 999, 6, 11, 76, 114, 186, 190, 107, 75, 2, 1.07364
152, 3, wb, attraction, a-b-da, 5, 3, 6, 12, 195, 120, 190, 117, 120, 195, 1, 0.315793
152, 3, wb, attraction, a-b-da, 5, 3, 6, 12, 195, 120, 190, 117, 120, 195, 3, 0.438429
152, 3, wb, attraction, a-b-db, 14, 1, 6, 13, 135, 60, 60, 135, 56, 125, 1, 0.674847
152, 3, wb, attraction, a-b-db, 14, 1, 6, 13, 135, 60, 60, 135, 56, 125, 2, 0.486642
152, 3, wb, attraction, a-b-da, 9, 1, 6, 14, 60, 135, 135, 60, 129, 57, 1, 0.56906
152, 3, wb, attraction, a-b-da, 9, 1, 6, 14, 60, 135, 135, 60, 129, 57, 2, 0.457444
152, 3, wb, catch, NA, 999, 999, 6, 15, 102, 153, 137, 178, 87, 108, 1, 0.492636
152, 3, wb, catch, NA, 999, 999, 6, 15, 102, 153, 137, 178, 87, 108, 2, 0.35182
152, 3, wb, attraction, a-b-da, 14, 2, 6, 16, 165, 90, 90, 165, 153, 83, 1, 0.383664
152, 3, wb, attraction, a-b-da, 14, 2, 6, 16, 165, 90, 90, 165, 153, 83, 2, 0.407479
152, 3, wb, attraction, a-b-db, 2, 1, 6, 17, 135, 60, 60, 135, 59, 134, 1, 0.468573
152, 3, wb, attraction, a-b-db, 2, 1, 6, 17, 135, 60, 60, 135, 59, 134, 2, 0.649285
152, 3, wb, attraction, a-b-db, 9, 3, 6, 18, 114, 186, 195, 120, 120, 195, 1, 0.324787
152, 3, wb, attraction, a-b-db, 9, 3, 6, 18, 114, 186, 195, 120, 120, 195, 2, 0.598708
152, 3, wb, attraction, a-b-db, 5, 2, 6, 19, 90, 165, 88, 161, 165, 90, 1, 0.580656
152, 3, wb, attraction, a-b-db, 5, 2, 6, 19, 90, 165, 88, 161, 165, 90, 2, 0.55624
152, 3, wb, attraction, a-b-db, 2, 2, 6, 20, 90, 165, 165, 90, 89, 163, 1, 0.628156
152, 3, wb, attraction, a-b-db, 2, 2, 6, 20, 90, 165, 165, 90, 89, 163, 3, 0.593856
152, 3, wb, attraction, a-b-db, 2, 3, 6, 21, 195, 120, 120, 195, 119, 193, 1, 1.26366
152, 3, wb, attraction, a-b-db, 2, 3, 6, 21, 195, 120, 120, 195, 119, 193, 2, 0.371856
152, 3, wb, attraction, a-b-da, 5, 2, 6, 22, 165, 90, 90, 165, 161, 88, 1, 0.81099
152, 3, wb, attraction, a-b-da, 5, 2, 6, 22, 165, 90, 90, 165, 161, 88, 2, 0.449379
152, 3, wb, attraction, a-b-da, 14, 3, 6, 23, 120, 195, 181, 111, 195, 120, 1, 0.27726
152, 3, wb, attraction, a-b-da, 14, 3, 6, 23, 120, 195, 181, 111, 195, 120, 2, 0.353043
152, 3, wb, attraction, a-b-db, 9, 2, 6, 24, 86, 157, 165, 90, 90, 165, 1, 0.664863
152, 3, wb, attraction, a-b-db, 9, 2, 6, 24, 86, 157, 165, 90, 90, 165, 2, 0.405324
152, 3, wb, filler, NA, 999, 999, 6, 25, 156, 165, 187, 165, 190, 92, 2, 1.18729
152, 3, wb, filler, NA, 999, 999, 6, 25, 156, 165, 187, 165, 190, 92, 1, 0.770719
152, 3, wb, filler, NA, 999, 999, 6, 26, 136, 119, 181, 193, 62, 183, 1, 0.713825
152, 3, wb, filler, NA, 999, 999, 6, 26, 136, 119, 181, 193, 62, 183, 2, 0.86832
152, 3, wb, attraction, a-b-da, 9, 2, 6, 27, 90, 165, 165, 90, 157, 86, 1, 0.375201
152, 3, wb, attraction, a-b-da, 9, 2, 6, 27, 90, 165, 165, 90, 157, 86, 2, 0.535125
152, 3, wb, attraction, a-b-db, 14, 3, 6, 28, 111, 181, 120, 195, 195, 120, 1, 0.527513
152, 3, wb, attraction, a-b-db, 14, 3, 6, 28, 111, 181, 120, 195, 195, 120, 2, 0.609275
152, 3, wb, attraction, a-b-da, 5, 1, 6, 29, 135, 60, 132, 58, 60, 135, 1, 0.422467
152, 3, wb, attraction, a-b-da, 5, 1, 6, 29, 135, 60, 132, 58, 60, 135, 2, 0.732287
152, 3, wb, filler, NA, 999, 999, 6, 30, 88, 189, 113, 176, 125, 194, 1, 2.3166
152, 3, wb, filler, NA, 999, 999, 6, 30, 88, 189, 113, 176, 125, 194, 2, 0.478549
152, 3, wb, filler, NA, 999, 999, 6, 31, 73, 103, 193, 116, 134, 121, 1, 0.953083
152, 3, wb, filler, NA, 999, 999, 6, 31, 73, 103, 193, 116, 134, 121, 3, 1.16204
152, 3, wb, filler, NA, 999, 999, 6, 32, 67, 154, 174, 116, 136, 89, 1, 0.816905
152, 3, wb, filler, NA, 999, 999, 6, 32, 67, 154, 174, 116, 136, 89, 2, 0.855323
152, 3, wb, catch, NA, 999, 999, 6, 33, 106, 149, 136, 179, 126, 69, 3, 1.54702
152, 3, wb, catch, NA, 999, 999, 6, 33, 106, 149, 136, 179, 126, 69, 2, 0.679255
152, 3, wb, filler, NA, 999, 999, 6, 34, 161, 153, 104, 179, 59, 72, 3, 1.55819
152, 3, wb, filler, NA, 999, 999, 6, 34, 161, 153, 104, 179, 59, 72, 2, 0.4464
152, 3, wb, filler, NA, 999, 999, 6, 35, 187, 158, 186, 74, 82, 147, 1, 0.434178
152, 3, wb, filler, NA, 999, 999, 6, 35, 187, 158, 186, 74, 82, 147, 2, 0.640091
152, 3, wb, attraction, a-b-da, 2, 3, 6, 36, 120, 195, 193, 119, 195, 120, 1, 0.451685
152, 3, wb, attraction, a-b-da, 2, 3, 6, 36, 120, 195, 193, 119, 195, 120, 2, 0.416987
152, 3, wb, attraction, a-b-da, 2, 1, 6, 37, 134, 59, 60, 135, 135, 60, 1, 0.965993
152, 3, wb, attraction, a-b-da, 2, 1, 6, 37, 134, 59, 60, 135, 135, 60, 2, 0.710363
152, 3, wb, attraction, a-b-db, 2, 2, 7, 1, 89, 163, 90, 165, 165, 90, 3, 0.599428
152, 3, wb, attraction, a-b-db, 2, 2, 7, 1, 89, 163, 90, 165, 165, 90, 2, 0.958621
152, 3, wb, attraction, a-b-da, 5, 1, 7, 2, 132, 58, 135, 60, 60, 135, 1, 1.20552
152, 3, wb, attraction, a-b-da, 5, 1, 7, 2, 132, 58, 135, 60, 60, 135, 3, 0.619749
152, 3, wb, attraction, a-b-da, 14, 3, 7, 3, 181, 111, 120, 195, 195, 120, 1, 0.920806
152, 3, wb, attraction, a-b-da, 14, 3, 7, 3, 181, 111, 120, 195, 195, 120, 2, 0.411335
152, 3, wb, attraction, a-b-da, 9, 1, 7, 4, 60, 135, 135, 60, 129, 57, 1, 0.352431
152, 3, wb, attraction, a-b-da, 9, 1, 7, 4, 60, 135, 135, 60, 129, 57, 2, 0.473672
152, 3, wb, filler, NA, 999, 999, 7, 5, 95, 124, 143, 101, 183, 187, 1, 1.89199
152, 3, wb, filler, NA, 999, 999, 7, 5, 95, 124, 143, 101, 183, 187, 3, 0.606835
152, 3, wb, attraction, a-b-db, 9, 2, 7, 6, 165, 90, 90, 165, 86, 157, 1, 0.451771
152, 3, wb, attraction, a-b-db, 9, 2, 7, 6, 165, 90, 90, 165, 86, 157, 2, 0.568997
152, 3, wb, attraction, a-b-db, 5, 3, 7, 7, 195, 120, 117, 190, 120, 195, 1, 0.40004
152, 3, wb, attraction, a-b-db, 5, 3, 7, 7, 195, 120, 117, 190, 120, 195, 2, 0.55125
152, 3, wb, attraction, a-b-da, 9, 3, 7, 8, 186, 114, 195, 120, 120, 195, 1, 0.495033
152, 3, wb, attraction, a-b-da, 9, 3, 7, 8, 186, 114, 195, 120, 120, 195, 2, 0.426296
152, 3, wb, attraction, a-b-db, 2, 3, 7, 9, 195, 120, 120, 195, 119, 193, 1, 0.502649
152, 3, wb, attraction, a-b-db, 2, 3, 7, 9, 195, 120, 120, 195, 119, 193, 2, 0.60986
152, 3, wb, attraction, a-b-db, 14, 1, 7, 10, 60, 135, 56, 125, 135, 60, 2, 1.42284
152, 3, wb, attraction, a-b-db, 14, 1, 7, 10, 60, 135, 56, 125, 135, 60, 1, 0.572428
152, 3, wb, filler, NA, 999, 999, 7, 11, 117, 187, 126, 69, 97, 146, 1, 0.611527
152, 3, wb, filler, NA, 999, 999, 7, 11, 117, 187, 126, 69, 97, 146, 2, 0.593927
152, 3, wb, attraction, a-b-db, 9, 1, 7, 12, 57, 129, 135, 60, 60, 135, 1, 0.399712
152, 3, wb, attraction, a-b-db, 9, 1, 7, 12, 57, 129, 135, 60, 60, 135, 2, 0.486979
152, 3, wb, attraction, a-b-db, 2, 1, 7, 13, 60, 135, 59, 134, 135, 60, 1, 0.401374
152, 3, wb, attraction, a-b-db, 2, 1, 7, 13, 60, 135, 59, 134, 135, 60, 2, 0.720602
152, 3, wb, attraction, a-b-da, 2, 3, 7, 14, 193, 119, 195, 120, 120, 195, 1, 0.41773
152, 3, wb, attraction, a-b-da, 2, 3, 7, 14, 193, 119, 195, 120, 120, 195, 3, 0.464065
152, 3, wb, catch, NA, 999, 999, 7, 15, 86, 109, 142, 113, 169, 146, 1, 0.331308
152, 3, wb, catch, NA, 999, 999, 7, 15, 86, 109, 142, 113, 169, 146, 2, 0.709187
152, 3, wb, attraction, a-b-db, 14, 3, 7, 16, 195, 120, 120, 195, 111, 181, 1, 0.502106
152, 3, wb, attraction, a-b-db, 14, 3, 7, 16, 195, 120, 120, 195, 111, 181, 3, 0.58534
152, 3, wb, filler, NA, 999, 999, 7, 17, 92, 84, 56, 190, 152, 159, 1, 0.72785
152, 3, wb, filler, NA, 999, 999, 7, 17, 92, 84, 56, 190, 152, 159, 2, 0.70549
152, 3, wb, attraction, a-b-db, 14, 2, 7, 18, 90, 165, 83, 153, 165, 90, 1, 0.451145
152, 3, wb, attraction, a-b-db, 14, 2, 7, 18, 90, 165, 83, 153, 165, 90, 2, 0.592402
152, 3, wb, attraction, a-b-da, 14, 1, 7, 19, 60, 135, 125, 56, 135, 60, 1, 0.470132
152, 3, wb, attraction, a-b-da, 14, 1, 7, 19, 60, 135, 125, 56, 135, 60, 2, 0.474662
152, 3, wb, attraction, a-b-da, 2, 1, 7, 20, 135, 60, 134, 59, 60, 135, 1, 0.453145
152, 3, wb, attraction, a-b-da, 2, 1, 7, 20, 135, 60, 134, 59, 60, 135, 2, 0.626225
152, 3, wb, catch, NA, 999, 999, 7, 21, 166, 149, 80, 115, 165, 90, 1, 0.406691
152, 3, wb, catch, NA, 999, 999, 7, 21, 166, 149, 80, 115, 165, 90, 2, 0.573129
152, 3, wb, catch, NA, 999, 999, 7, 22, 185, 130, 149, 106, 118, 77, 1, 0.332246
152, 3, wb, catch, NA, 999, 999, 7, 22, 185, 130, 149, 106, 118, 77, 2, 0.934137
152, 3, wb, attraction, a-b-da, 5, 2, 7, 23, 161, 88, 165, 90, 90, 165, 1, 0.422483
152, 3, wb, attraction, a-b-da, 5, 2, 7, 23, 161, 88, 165, 90, 90, 165, 2, 0.604381
152, 3, wb, attraction, a-b-da, 5, 3, 7, 24, 190, 117, 120, 195, 195, 120, 1, 0.50601
152, 3, wb, attraction, a-b-da, 5, 3, 7, 24, 190, 117, 120, 195, 195, 120, 2, 0.716485
152, 3, wb, attraction, a-b-da, 9, 2, 7, 25, 157, 86, 165, 90, 90, 165, 1, 0.421537
152, 3, wb, attraction, a-b-da, 9, 2, 7, 25, 157, 86, 165, 90, 90, 165, 2, 0.491453
152, 3, wb, filler, NA, 999, 999, 7, 26, 127, 163, 157, 187, 87, 102, 1, 0.501243
152, 3, wb, filler, NA, 999, 999, 7, 26, 127, 163, 157, 187, 87, 102, 2, 0.424334
152, 3, wb, attraction, a-b-db, 5, 1, 7, 27, 60, 135, 135, 60, 58, 132, 1, 0.43687
152, 3, wb, attraction, a-b-db, 5, 1, 7, 27, 60, 135, 135, 60, 58, 132, 2, 0.722777
152, 3, wb, filler, NA, 999, 999, 7, 28, 173, 164, 81, 151, 71, 64, 1, 0.628052
152, 3, wb, filler, NA, 999, 999, 7, 28, 173, 164, 81, 151, 71, 64, 2, 0.601532
152, 3, wb, filler, NA, 999, 999, 7, 29, 69, 93, 95, 107, 59, 58, 1, 0.687252
152, 3, wb, filler, NA, 999, 999, 7, 29, 69, 93, 95, 107, 59, 58, 2, 0.627018
152, 3, wb, attraction, a-b-db, 9, 3, 7, 30, 114, 186, 120, 195, 195, 120, 1, 0.527617
152, 3, wb, attraction, a-b-db, 9, 3, 7, 30, 114, 186, 120, 195, 195, 120, 2, 0.481249
152, 3, wb, filler, NA, 999, 999, 7, 31, 125, 87, 194, 73, 136, 122, 1, 1.11564
152, 3, wb, filler, NA, 999, 999, 7, 31, 125, 87, 194, 73, 136, 122, 2, 0.558099
152, 3, wb, attraction, a-b-da, 2, 2, 7, 32, 163, 89, 165, 90, 90, 165, 1, 0.485089
152, 3, wb, attraction, a-b-da, 2, 2, 7, 32, 163, 89, 165, 90, 90, 165, 2, 0.57691
152, 3, wb, filler, NA, 999, 999, 7, 33, 153, 65, 143, 194, 95, 151, 1, 0.40731
152, 3, wb, filler, NA, 999, 999, 7, 33, 153, 65, 143, 194, 95, 151, 2, 0.469776
152, 3, wb, attraction, a-b-db, 5, 2, 7, 34, 88, 161, 165, 90, 90, 165, 1, 0.352957
152, 3, wb, attraction, a-b-db, 5, 2, 7, 34, 88, 161, 165, 90, 90, 165, 2, 0.562783
152, 3, wb, attraction, a-b-da, 14, 2, 7, 35, 90, 165, 165, 90, 153, 83, 1, 0.497223
152, 3, wb, attraction, a-b-da, 14, 2, 7, 35, 90, 165, 165, 90, 153, 83, 3, 0.55646
152, 3, wb, filler, NA, 999, 999, 7, 36, 59, 107, 106, 88, 157, 160, 1, 0.348153
152, 3, wb, filler, NA, 999, 999, 7, 36, 59, 107, 106, 88, 157, 160, 2, 0.629386
152, 3, wb, filler, NA, 999, 999, 7, 37, 149, 143, 172, 174, 138, 161, 1, 0.401759
152, 3, wb, filler, NA, 999, 999, 7, 37, 149, 143, 172, 174, 138, 161, 2, 0.53706
152, 3, wb, attraction, a-b-db, 2, 2, 8, 1, 90, 165, 165, 90, 89, 163, 1, 0.305459
152, 3, wb, attraction, a-b-db, 2, 2, 8, 1, 90, 165, 165, 90, 89, 163, 2, 0.500015
152, 3, wb, filler, NA, 999, 999, 8, 2, 181, 92, 91, 164, 142, 123, 1, 0.389712
152, 3, wb, filler, NA, 999, 999, 8, 2, 181, 92, 91, 164, 142, 123, 2, 0.460993
152, 3, wb, attraction, a-b-db, 14, 1, 8, 3, 56, 125, 60, 135, 135, 60, 1, 0.552083
152, 3, wb, attraction, a-b-db, 14, 1, 8, 3, 56, 125, 60, 135, 135, 60, 2, 1.05723
152, 3, wb, filler, NA, 999, 999, 8, 4, 142, 186, 98, 118, 101, 79, 1, 0.300079
152, 3, wb, filler, NA, 999, 999, 8, 4, 142, 186, 98, 118, 101, 79, 3, 2.03136
152, 3, wb, filler, NA, 999, 999, 8, 5, 63, 106, 136, 86, 188, 89, 1, 0.63545
152, 3, wb, filler, NA, 999, 999, 8, 5, 63, 106, 136, 86, 188, 89, 2, 0.39686
152, 3, wb, attraction, a-b-da, 9, 1, 8, 6, 135, 60, 129, 57, 60, 135, 1, 0.270876
152, 3, wb, attraction, a-b-da, 9, 1, 8, 6, 135, 60, 129, 57, 60, 135, 2, 0.507535
152, 3, wb, attraction, a-b-da, 14, 2, 8, 7, 165, 90, 153, 83, 90, 165, 1, 0.420586
152, 3, wb, attraction, a-b-da, 14, 2, 8, 7, 165, 90, 153, 83, 90, 165, 2, 0.45129
152, 3, wb, catch, NA, 999, 999, 8, 8, 90, 165, 114, 81, 165, 150, 1, 0.926969
152, 3, wb, catch, NA, 999, 999, 8, 8, 90, 165, 114, 81, 165, 150, 3, 0.320642
152, 3, wb, attraction, a-b-da, 14, 1, 8, 9, 60, 135, 125, 56, 135, 60, 1, 0.297766
152, 3, wb, attraction, a-b-da, 14, 1, 8, 9, 60, 135, 125, 56, 135, 60, 3, 0.596995
152, 3, wb, attraction, a-b-da, 5, 1, 8, 10, 60, 135, 135, 60, 132, 58, 1, 0.306684
152, 3, wb, attraction, a-b-da, 5, 1, 8, 10, 60, 135, 135, 60, 132, 58, 3, 0.589363
152, 3, wb, attraction, a-b-da, 2, 2, 8, 11, 90, 165, 165, 90, 163, 89, 1, 0.331776
152, 3, wb, attraction, a-b-da, 2, 2, 8, 11, 90, 165, 165, 90, 163, 89, 3, 0.461528
152, 3, wb, filler, NA, 999, 999, 8, 12, 172, 128, 68, 93, 115, 71, 1, 0.296678
152, 3, wb, filler, NA, 999, 999, 8, 12, 172, 128, 68, 93, 115, 71, 3, 0.707958
152, 3, wb, filler, NA, 999, 999, 8, 13, 74, 113, 106, 110, 100, 72, 1, 0.420985
152, 3, wb, filler, NA, 999, 999, 8, 13, 74, 113, 106, 110, 100, 72, 2, 0.626792
152, 3, wb, attraction, a-b-db, 2, 3, 8, 14, 119, 193, 195, 120, 120, 195, 1, 0.439143
152, 3, wb, attraction, a-b-db, 2, 3, 8, 14, 119, 193, 195, 120, 120, 195, 2, 0.436535
152, 3, wb, attraction, a-b-da, 2, 1, 8, 15, 60, 135, 135, 60, 134, 59, 1, 0.464879
152, 3, wb, attraction, a-b-da, 2, 1, 8, 15, 60, 135, 135, 60, 134, 59, 2, 0.453337
152, 3, wb, attraction, a-b-db, 5, 1, 8, 16, 60, 135, 135, 60, 58, 132, 1, 0.321211
152, 3, wb, attraction, a-b-db, 5, 1, 8, 16, 60, 135, 135, 60, 58, 132, 2, 0.411693
152, 3, wb, attraction, a-b-da, 9, 3, 8, 17, 195, 120, 120, 195, 186, 114, 1, 0.593063
152, 3, wb, attraction, a-b-da, 9, 3, 8, 17, 195, 120, 120, 195, 186, 114, 2, 0.39206
152, 3, wb, attraction, a-b-da, 2, 3, 8, 18, 120, 195, 193, 119, 195, 120, 1, 0.373952
152, 3, wb, attraction, a-b-da, 2, 3, 8, 18, 120, 195, 193, 119, 195, 120, 2, 0.453694
152, 3, wb, attraction, a-b-db, 9, 2, 8, 19, 86, 157, 90, 165, 165, 90, 1, 0.761418
152, 3, wb, attraction, a-b-db, 9, 2, 8, 19, 86, 157, 90, 165, 165, 90, 2, 0.465883
152, 3, wb, catch, NA, 999, 999, 8, 20, 119, 136, 116, 79, 177, 138, 1, 0.40495
152, 3, wb, catch, NA, 999, 999, 8, 20, 119, 136, 116, 79, 177, 138, 3, 0.379499
152, 3, wb, attraction, a-b-db, 2, 1, 8, 21, 60, 135, 135, 60, 59, 134, 1, 0.37003
152, 3, wb, attraction, a-b-db, 2, 1, 8, 21, 60, 135, 135, 60, 59, 134, 3, 0.450566
152, 3, wb, filler, NA, 999, 999, 8, 22, 142, 140, 159, 65, 133, 175, 1, 0.390322
152, 3, wb, filler, NA, 999, 999, 8, 22, 142, 140, 159, 65, 133, 175, 3, 0.437465
152, 3, wb, attraction, a-b-db, 5, 3, 8, 23, 195, 120, 120, 195, 117, 190, 1, 0.601979
152, 3, wb, attraction, a-b-db, 5, 3, 8, 23, 195, 120, 120, 195, 117, 190, 2, 0.72114
152, 3, wb, catch, NA, 999, 999, 8, 24, 100, 95, 108, 147, 192, 123, 1, 0.53819
152, 3, wb, catch, NA, 999, 999, 8, 24, 100, 95, 108, 147, 192, 123, 2, 1.13935
152, 3, wb, filler, NA, 999, 999, 8, 25, 171, 108, 80, 75, 66, 109, 1, 1.90753
152, 3, wb, filler, NA, 999, 999, 8, 25, 171, 108, 80, 75, 66, 109, 2, 0.949598
152, 3, wb, attraction, a-b-da, 5, 3, 8, 26, 195, 120, 190, 117, 120, 195, 1, 0.47728
152, 3, wb, attraction, a-b-da, 5, 3, 8, 26, 195, 120, 190, 117, 120, 195, 3, 0.433168
152, 3, wb, attraction, a-b-db, 9, 1, 8, 27, 135, 60, 60, 135, 57, 129, 1, 0.701429
152, 3, wb, attraction, a-b-db, 9, 1, 8, 27, 135, 60, 60, 135, 57, 129, 2, 0.848596
152, 3, wb, attraction, a-b-da, 14, 3, 8, 28, 181, 111, 120, 195, 195, 120, 1, 0.484324
152, 3, wb, attraction, a-b-da, 14, 3, 8, 28, 181, 111, 120, 195, 195, 120, 2, 0.456129
152, 3, wb, attraction, a-b-db, 5, 2, 8, 29, 88, 161, 165, 90, 90, 165, 1, 0.459904
152, 3, wb, attraction, a-b-db, 5, 2, 8, 29, 88, 161, 165, 90, 90, 165, 2, 0.39246
152, 3, wb, attraction, a-b-db, 14, 3, 8, 30, 195, 120, 120, 195, 111, 181, 1, 0.438243
152, 3, wb, attraction, a-b-db, 14, 3, 8, 30, 195, 120, 120, 195, 111, 181, 2, 0.459467
152, 3, wb, filler, NA, 999, 999, 8, 31, 115, 86, 80, 171, 79, 144, 1, 0.534487
152, 3, wb, filler, NA, 999, 999, 8, 31, 115, 86, 80, 171, 79, 144, 2, 0.424347
152, 3, wb, attraction, a-b-da, 9, 2, 8, 32, 157, 86, 90, 165, 165, 90, 1, 0.37283
152, 3, wb, attraction, a-b-da, 9, 2, 8, 32, 157, 86, 90, 165, 165, 90, 3, 1.06879
152, 3, wb, attraction, a-b-db, 14, 2, 8, 33, 90, 165, 165, 90, 83, 153, 1, 0.559491
152, 3, wb, attraction, a-b-db, 14, 2, 8, 33, 90, 165, 165, 90, 83, 153, 2, 0.504209
152, 3, wb, filler, NA, 999, 999, 8, 34, 141, 98, 158, 160, 74, 91, 1, 0.625962
152, 3, wb, filler, NA, 999, 999, 8, 34, 141, 98, 158, 160, 74, 91, 2, 0.495629
152, 3, wb, filler, NA, 999, 999, 8, 35, 133, 84, 134, 115, 87, 186, 1, 0.449426
152, 3, wb, filler, NA, 999, 999, 8, 35, 133, 84, 134, 115, 87, 186, 2, 0.430547
152, 3, wb, attraction, a-b-db, 9, 3, 8, 36, 195, 120, 120, 195, 114, 186, 1, 0.875178
152, 3, wb, attraction, a-b-db, 9, 3, 8, 36, 195, 120, 120, 195, 114, 186, 2, 0.614803
152, 3, wb, attraction, a-b-da, 5, 2, 8, 37, 161, 88, 165, 90, 90, 165, 1, 0.371883
152, 3, wb, attraction, a-b-da, 5, 2, 8, 37, 161, 88, 165, 90, 90, 165, 2, 0.515684
