sub_n, computer_n, bw_cond, effect, set, distance, diag, block_n, trial_n, h1, w1, h2, w2, h3, w3, choice, rt 
16, 3, wb, practice, NA, 999, 999, 0, 1, 148, 120, 159, 97, 57, 158, 3, 4.04114
16, 3, wb, practice, NA, 999, 999, 0, 1, 148, 120, 159, 97, 57, 158, 1, 2.93327
16, 3, wb, practice, NA, 999, 999, 0, 2, 172, 104, 66, 90, 79, 184, 2, 3.84103
16, 3, wb, practice, NA, 999, 999, 0, 2, 172, 104, 66, 90, 79, 184, 1, 2.67786
16, 3, wb, practice, NA, 999, 999, 0, 3, 90, 182, 70, 170, 116, 138, 2, 3.79749
16, 3, wb, practice, NA, 999, 999, 0, 3, 90, 182, 70, 170, 116, 138, 3, 3.81126
16, 3, wb, attraction, a-b-db, 5, 1, 1, 1, 58, 132, 60, 135, 135, 60, 3, 4.58806
16, 3, wb, attraction, a-b-db, 5, 1, 1, 1, 58, 132, 60, 135, 135, 60, 2, 3.57769
16, 3, wb, filler, NA, 999, 999, 1, 2, 181, 126, 148, 89, 82, 150, 2, 3.06479
16, 3, wb, filler, NA, 999, 999, 1, 2, 181, 126, 148, 89, 82, 150, 1, 1.7894
16, 3, wb, attraction, a-b-da, 14, 3, 1, 3, 181, 111, 195, 120, 120, 195, 1, 3.76912
16, 3, wb, attraction, a-b-da, 14, 3, 1, 3, 181, 111, 195, 120, 120, 195, 3, 3.53238
16, 3, wb, attraction, a-b-db, 5, 2, 1, 4, 165, 90, 88, 161, 90, 165, 2, 5.41768
16, 3, wb, attraction, a-b-db, 5, 2, 1, 4, 165, 90, 88, 161, 90, 165, 3, 4.2222
16, 3, wb, filler, NA, 999, 999, 1, 5, 100, 91, 192, 178, 123, 136, 1, 2.41033
16, 3, wb, filler, NA, 999, 999, 1, 5, 100, 91, 192, 178, 123, 136, 2, 1.71893
16, 3, wb, filler, NA, 999, 999, 1, 6, 172, 71, 120, 163, 129, 119, 1, 3.63436
16, 3, wb, filler, NA, 999, 999, 1, 6, 172, 71, 120, 163, 129, 119, 2, 1.58842
16, 3, wb, filler, NA, 999, 999, 1, 7, 114, 132, 78, 59, 70, 118, 2, 1.95008
16, 3, wb, filler, NA, 999, 999, 1, 7, 114, 132, 78, 59, 70, 118, 1, 1.58927
16, 3, wb, attraction, a-b-da, 5, 2, 1, 8, 90, 165, 165, 90, 161, 88, 3, 2.92357
16, 3, wb, attraction, a-b-da, 5, 2, 1, 8, 90, 165, 165, 90, 161, 88, 1, 2.82019
16, 3, wb, attraction, a-b-da, 2, 1, 1, 9, 60, 135, 134, 59, 135, 60, 2, 3.6002
16, 3, wb, attraction, a-b-da, 2, 1, 1, 9, 60, 135, 134, 59, 135, 60, 1, 2.759
16, 3, wb, attraction, a-b-da, 9, 1, 1, 10, 135, 60, 60, 135, 129, 57, 3, 3.67076
16, 3, wb, attraction, a-b-da, 9, 1, 1, 10, 135, 60, 60, 135, 129, 57, 1, 1.99227
16, 3, wb, filler, NA, 999, 999, 1, 11, 101, 90, 159, 128, 110, 140, 1, 2.27105
16, 3, wb, filler, NA, 999, 999, 1, 11, 101, 90, 159, 128, 110, 140, 2, 1.35391
16, 3, wb, attraction, a-b-db, 5, 3, 1, 12, 195, 120, 120, 195, 117, 190, 3, 4.56311
16, 3, wb, attraction, a-b-db, 5, 3, 1, 12, 195, 120, 120, 195, 117, 190, 2, 1.98671
16, 3, wb, catch, NA, 999, 999, 1, 13, 190, 125, 147, 108, 76, 119, 3, 1.72214
16, 3, wb, catch, NA, 999, 999, 1, 13, 190, 125, 147, 108, 76, 119, 1, 1.82759
16, 3, wb, attraction, a-b-db, 9, 1, 1, 14, 57, 129, 60, 135, 135, 60, 1, 4.25621
16, 3, wb, attraction, a-b-db, 9, 1, 1, 14, 57, 129, 60, 135, 135, 60, 3, 5.20613
16, 3, wb, catch, NA, 999, 999, 1, 15, 129, 186, 90, 105, 151, 104, 2, 2.8812
16, 3, wb, catch, NA, 999, 999, 1, 15, 129, 186, 90, 105, 151, 104, 1, 2.12446
16, 3, wb, attraction, a-b-da, 2, 2, 1, 16, 165, 90, 90, 165, 163, 89, 1, 8.46663
16, 3, wb, attraction, a-b-da, 2, 2, 1, 16, 165, 90, 90, 165, 163, 89, 2, 2.51781
16, 3, wb, catch, NA, 999, 999, 1, 17, 143, 112, 108, 87, 123, 192, 2, 2.21458
16, 3, wb, catch, NA, 999, 999, 1, 17, 143, 112, 108, 87, 123, 192, 3, 2.29198
16, 3, wb, filler, NA, 999, 999, 1, 18, 110, 125, 122, 105, 156, 177, 2, 3.4523
16, 3, wb, filler, NA, 999, 999, 1, 18, 110, 125, 122, 105, 156, 177, 3, 2.50697
16, 3, wb, attraction, a-b-da, 9, 3, 1, 19, 186, 114, 120, 195, 195, 120, 1, 5.01743
16, 3, wb, attraction, a-b-da, 9, 3, 1, 19, 186, 114, 120, 195, 195, 120, 2, 7.71333
16, 3, wb, filler, NA, 999, 999, 1, 20, 59, 60, 192, 139, 97, 171, 1, 1.83907
16, 3, wb, filler, NA, 999, 999, 1, 20, 59, 60, 192, 139, 97, 171, 2, 2.72387
16, 3, wb, filler, NA, 999, 999, 1, 21, 58, 175, 148, 162, 164, 146, 1, 4.60612
16, 3, wb, filler, NA, 999, 999, 1, 21, 58, 175, 148, 162, 164, 146, 3, 2.49353
16, 3, wb, attraction, a-b-db, 2, 1, 1, 22, 60, 135, 59, 134, 135, 60, 1, 8.19736
16, 3, wb, attraction, a-b-db, 2, 1, 1, 22, 60, 135, 59, 134, 135, 60, 2, 2.78606
16, 3, wb, attraction, a-b-db, 14, 2, 1, 23, 90, 165, 165, 90, 83, 153, 1, 3.44792
16, 3, wb, attraction, a-b-db, 14, 2, 1, 23, 90, 165, 165, 90, 83, 153, 2, 2.95725
16, 3, wb, attraction, a-b-db, 14, 3, 1, 24, 111, 181, 195, 120, 120, 195, 1, 3.40175
16, 3, wb, attraction, a-b-db, 14, 3, 1, 24, 111, 181, 195, 120, 120, 195, 2, 5.31298
16, 3, wb, attraction, a-b-da, 5, 1, 1, 25, 132, 58, 60, 135, 135, 60, 3, 3.60804
16, 3, wb, attraction, a-b-da, 5, 1, 1, 25, 132, 58, 60, 135, 135, 60, 1, 3.63829
16, 3, wb, attraction, a-b-db, 14, 1, 1, 26, 56, 125, 60, 135, 135, 60, 1, 3.42721
16, 3, wb, attraction, a-b-db, 14, 1, 1, 26, 56, 125, 60, 135, 135, 60, 2, 3.27116
16, 3, wb, attraction, a-b-da, 14, 1, 1, 27, 135, 60, 60, 135, 125, 56, 3, 2.87321
16, 3, wb, attraction, a-b-da, 14, 1, 1, 27, 135, 60, 60, 135, 125, 56, 2, 8.10177
16, 3, wb, attraction, a-b-db, 2, 3, 1, 28, 120, 195, 195, 120, 119, 193, 3, 8.39728
16, 3, wb, attraction, a-b-db, 2, 3, 1, 28, 120, 195, 195, 120, 119, 193, 2, 3.23482
16, 3, wb, attraction, a-b-da, 9, 2, 1, 29, 90, 165, 165, 90, 157, 86, 3, 4.69386
16, 3, wb, attraction, a-b-da, 9, 2, 1, 29, 90, 165, 165, 90, 157, 86, 2, 4.4392
16, 3, wb, attraction, a-b-db, 9, 3, 1, 30, 195, 120, 120, 195, 114, 186, 3, 3.44529
16, 3, wb, attraction, a-b-db, 9, 3, 1, 30, 195, 120, 120, 195, 114, 186, 2, 4.63999
16, 3, wb, attraction, a-b-da, 2, 3, 1, 31, 120, 195, 193, 119, 195, 120, 1, 5.94723
16, 3, wb, attraction, a-b-da, 2, 3, 1, 31, 120, 195, 193, 119, 195, 120, 2, 3.01703
16, 3, wb, filler, NA, 999, 999, 1, 32, 56, 139, 112, 155, 68, 77, 3, 2.79841
16, 3, wb, filler, NA, 999, 999, 1, 32, 56, 139, 112, 155, 68, 77, 2, 2.21455
16, 3, wb, attraction, a-b-da, 14, 2, 1, 33, 153, 83, 90, 165, 165, 90, 1, 4.99309
16, 3, wb, attraction, a-b-da, 14, 2, 1, 33, 153, 83, 90, 165, 165, 90, 3, 3.74545
16, 3, wb, attraction, a-b-da, 5, 3, 1, 34, 195, 120, 120, 195, 190, 117, 3, 5.88118
16, 3, wb, attraction, a-b-da, 5, 3, 1, 34, 195, 120, 120, 195, 190, 117, 2, 7.40535
16, 3, wb, attraction, a-b-db, 9, 2, 1, 35, 90, 165, 165, 90, 86, 157, 3, 5.0052
16, 3, wb, attraction, a-b-db, 9, 2, 1, 35, 90, 165, 165, 90, 86, 157, 1, 3.9879
16, 3, wb, attraction, a-b-db, 2, 2, 1, 36, 89, 163, 165, 90, 90, 165, 1, 4.80183
16, 3, wb, attraction, a-b-db, 2, 2, 1, 36, 89, 163, 165, 90, 90, 165, 2, 3.08813
16, 3, wb, filler, NA, 999, 999, 1, 37, 81, 60, 189, 70, 93, 61, 1, 3.10545
16, 3, wb, filler, NA, 999, 999, 1, 37, 81, 60, 189, 70, 93, 61, 2, 2.45829
16, 3, wb, attraction, a-b-da, 9, 3, 2, 1, 186, 114, 195, 120, 120, 195, 1, 4.91115
16, 3, wb, attraction, a-b-da, 9, 3, 2, 1, 186, 114, 195, 120, 120, 195, 2, 2.99971
16, 3, wb, attraction, a-b-da, 5, 3, 2, 2, 190, 117, 195, 120, 120, 195, 3, 6.38088
16, 3, wb, attraction, a-b-da, 5, 3, 2, 2, 190, 117, 195, 120, 120, 195, 2, 3.19505
16, 3, wb, catch, NA, 999, 999, 2, 3, 188, 127, 123, 132, 96, 99, 3, 2.66591
16, 3, wb, catch, NA, 999, 999, 2, 3, 188, 127, 123, 132, 96, 99, 1, 1.9424
16, 3, wb, attraction, a-b-db, 5, 1, 2, 4, 135, 60, 58, 132, 60, 135, 3, 7.52348
16, 3, wb, attraction, a-b-db, 5, 1, 2, 4, 135, 60, 58, 132, 60, 135, 1, 7.31031
16, 3, wb, attraction, a-b-db, 5, 2, 2, 5, 165, 90, 90, 165, 88, 161, 3, 7.55043
16, 3, wb, attraction, a-b-db, 5, 2, 2, 5, 165, 90, 90, 165, 88, 161, 2, 2.88404
16, 3, wb, attraction, a-b-db, 14, 3, 2, 6, 195, 120, 120, 195, 111, 181, 3, 6.60541
16, 3, wb, attraction, a-b-db, 14, 3, 2, 6, 195, 120, 120, 195, 111, 181, 2, 3.07431
16, 3, wb, catch, NA, 999, 999, 2, 7, 62, 133, 94, 161, 128, 187, 1, 2.63008
16, 3, wb, catch, NA, 999, 999, 2, 7, 62, 133, 94, 161, 128, 187, 3, 2.49036
16, 3, wb, attraction, a-b-db, 9, 2, 2, 8, 90, 165, 165, 90, 86, 157, 3, 5.3308
16, 3, wb, attraction, a-b-db, 9, 2, 2, 8, 90, 165, 165, 90, 86, 157, 2, 2.74754
16, 3, wb, attraction, a-b-da, 9, 1, 2, 9, 129, 57, 60, 135, 135, 60, 1, 4.07607
16, 3, wb, attraction, a-b-da, 9, 1, 2, 9, 129, 57, 60, 135, 135, 60, 3, 5.27295
16, 3, wb, filler, NA, 999, 999, 2, 10, 133, 109, 74, 75, 68, 114, 2, 2.16007
16, 3, wb, filler, NA, 999, 999, 2, 10, 133, 109, 74, 75, 68, 114, 1, 2.3946
16, 3, wb, attraction, a-b-da, 14, 2, 2, 11, 165, 90, 90, 165, 153, 83, 3, 3.27944
16, 3, wb, attraction, a-b-da, 14, 2, 2, 11, 165, 90, 90, 165, 153, 83, 2, 2.46857
16, 3, wb, attraction, a-b-da, 5, 2, 2, 12, 165, 90, 90, 165, 161, 88, 3, 5.678
16, 3, wb, attraction, a-b-da, 5, 2, 2, 12, 165, 90, 90, 165, 161, 88, 2, 4.81603
16, 3, wb, attraction, a-b-db, 14, 1, 2, 13, 56, 125, 135, 60, 60, 135, 1, 2.94057
16, 3, wb, attraction, a-b-db, 14, 1, 2, 13, 56, 125, 135, 60, 60, 135, 3, 1.94701
16, 3, wb, attraction, a-b-da, 2, 1, 2, 14, 135, 60, 134, 59, 60, 135, 1, 3.01907
16, 3, wb, attraction, a-b-da, 2, 1, 2, 14, 135, 60, 134, 59, 60, 135, 2, 5.48332
16, 3, wb, filler, NA, 999, 999, 2, 15, 111, 106, 104, 180, 144, 80, 1, 17.4914
16, 3, wb, filler, NA, 999, 999, 2, 15, 111, 106, 104, 180, 144, 80, 2, 1.99427
16, 3, wb, attraction, a-b-db, 9, 1, 2, 16, 135, 60, 57, 129, 60, 135, 2, 2.84688
16, 3, wb, attraction, a-b-db, 9, 1, 2, 16, 135, 60, 57, 129, 60, 135, 3, 5.57248
16, 3, wb, attraction, a-b-db, 5, 3, 2, 17, 117, 190, 195, 120, 120, 195, 1, 3.25851
16, 3, wb, attraction, a-b-db, 5, 3, 2, 17, 117, 190, 195, 120, 120, 195, 3, 5.30106
16, 3, wb, filler, NA, 999, 999, 2, 18, 179, 139, 168, 184, 153, 192, 1, 3.18886
16, 3, wb, filler, NA, 999, 999, 2, 18, 179, 139, 168, 184, 153, 192, 3, 5.4282
16, 3, wb, attraction, a-b-da, 9, 2, 2, 19, 157, 86, 90, 165, 165, 90, 1, 3.19139
16, 3, wb, attraction, a-b-da, 9, 2, 2, 19, 157, 86, 90, 165, 165, 90, 2, 4.47893
16, 3, wb, attraction, a-b-db, 2, 2, 2, 20, 89, 163, 165, 90, 90, 165, 1, 4.91422
16, 3, wb, attraction, a-b-db, 2, 2, 2, 20, 89, 163, 165, 90, 90, 165, 2, 3.32365
16, 3, wb, filler, NA, 999, 999, 2, 21, 134, 129, 59, 120, 150, 172, 2, 1.97879
16, 3, wb, filler, NA, 999, 999, 2, 21, 134, 129, 59, 120, 150, 172, 3, 1.57031
16, 3, wb, filler, NA, 999, 999, 2, 22, 116, 162, 74, 60, 96, 143, 2, 2.59439
16, 3, wb, filler, NA, 999, 999, 2, 22, 116, 162, 74, 60, 96, 143, 1, 1.81593
16, 3, wb, filler, NA, 999, 999, 2, 23, 62, 74, 66, 121, 78, 135, 1, 3.35005
16, 3, wb, filler, NA, 999, 999, 2, 23, 62, 74, 66, 121, 78, 135, 3, 2.19071
16, 3, wb, filler, NA, 999, 999, 2, 24, 62, 130, 73, 61, 165, 166, 2, 3.22043
16, 3, wb, filler, NA, 999, 999, 2, 24, 62, 130, 73, 61, 165, 166, 3, 2.56152
16, 3, wb, attraction, a-b-da, 2, 3, 2, 25, 120, 195, 193, 119, 195, 120, 3, 9.74395
16, 3, wb, attraction, a-b-da, 2, 3, 2, 25, 120, 195, 193, 119, 195, 120, 2, 4.18435
16, 3, wb, filler, NA, 999, 999, 2, 26, 63, 177, 179, 162, 136, 124, 1, 2.45219
16, 3, wb, filler, NA, 999, 999, 2, 26, 63, 177, 179, 162, 136, 124, 2, 1.80233
16, 3, wb, filler, NA, 999, 999, 2, 27, 100, 178, 96, 132, 135, 117, 2, 2.16489
16, 3, wb, filler, NA, 999, 999, 2, 27, 100, 178, 96, 132, 135, 117, 1, 2.87726
16, 3, wb, attraction, a-b-da, 14, 1, 2, 28, 135, 60, 60, 135, 125, 56, 3, 2.22548
16, 3, wb, attraction, a-b-da, 14, 1, 2, 28, 135, 60, 60, 135, 125, 56, 1, 5.68836
16, 3, wb, attraction, a-b-da, 2, 2, 2, 29, 165, 90, 90, 165, 163, 89, 3, 11.5336
16, 3, wb, attraction, a-b-da, 2, 2, 2, 29, 165, 90, 90, 165, 163, 89, 2, 2.0624
16, 3, wb, attraction, a-b-db, 9, 3, 2, 30, 114, 186, 120, 195, 195, 120, 1, 2.60174
16, 3, wb, attraction, a-b-db, 9, 3, 2, 30, 114, 186, 120, 195, 195, 120, 2, 5.9041
16, 3, wb, attraction, a-b-db, 14, 2, 2, 31, 83, 153, 165, 90, 90, 165, 1, 2.86417
16, 3, wb, attraction, a-b-db, 14, 2, 2, 31, 83, 153, 165, 90, 90, 165, 3, 3.38778
16, 3, wb, catch, NA, 999, 999, 2, 32, 195, 120, 126, 69, 109, 146, 2, 4.17871
16, 3, wb, catch, NA, 999, 999, 2, 32, 195, 120, 126, 69, 109, 146, 1, 1.6013
16, 3, wb, attraction, a-b-da, 14, 3, 2, 33, 181, 111, 195, 120, 120, 195, 1, 2.9094
16, 3, wb, attraction, a-b-da, 14, 3, 2, 33, 181, 111, 195, 120, 120, 195, 2, 1.80673
16, 3, wb, attraction, a-b-da, 5, 1, 2, 34, 60, 135, 135, 60, 132, 58, 3, 3.32587
16, 3, wb, attraction, a-b-da, 5, 1, 2, 34, 60, 135, 135, 60, 132, 58, 2, 3.67923
16, 3, wb, attraction, a-b-db, 2, 1, 2, 35, 135, 60, 60, 135, 59, 134, 2, 3.88901
16, 3, wb, attraction, a-b-db, 2, 1, 2, 35, 135, 60, 60, 135, 59, 134, 1, 1.93937
16, 3, wb, filler, NA, 999, 999, 2, 36, 156, 134, 114, 186, 165, 172, 1, 4.46742
16, 3, wb, filler, NA, 999, 999, 2, 36, 156, 134, 114, 186, 165, 172, 3, 2.59779
16, 3, wb, attraction, a-b-db, 2, 3, 2, 37, 119, 193, 120, 195, 195, 120, 1, 2.8437
16, 3, wb, attraction, a-b-db, 2, 3, 2, 37, 119, 193, 120, 195, 195, 120, 3, 2.32298
16, 3, wb, filler, NA, 999, 999, 3, 1, 169, 138, 127, 81, 141, 121, 2, 1.92232
16, 3, wb, filler, NA, 999, 999, 3, 1, 169, 138, 127, 81, 141, 121, 1, 2.12447
16, 3, wb, attraction, a-b-db, 9, 3, 3, 2, 195, 120, 114, 186, 120, 195, 2, 3.75621
16, 3, wb, attraction, a-b-db, 9, 3, 3, 2, 195, 120, 114, 186, 120, 195, 3, 2.26249
16, 3, wb, attraction, a-b-db, 14, 3, 3, 3, 111, 181, 195, 120, 120, 195, 1, 3.51307
16, 3, wb, attraction, a-b-db, 14, 3, 3, 3, 111, 181, 195, 120, 120, 195, 3, 2.29137
16, 3, wb, filler, NA, 999, 999, 3, 4, 172, 187, 173, 192, 154, 172, 3, 3.24391
16, 3, wb, filler, NA, 999, 999, 3, 4, 172, 187, 173, 192, 154, 172, 2, 2.11492
16, 3, wb, attraction, a-b-da, 14, 2, 3, 5, 90, 165, 165, 90, 153, 83, 3, 2.45262
16, 3, wb, attraction, a-b-da, 14, 2, 3, 5, 90, 165, 165, 90, 153, 83, 2, 2.37426
16, 3, wb, attraction, a-b-db, 14, 1, 3, 6, 60, 135, 56, 125, 135, 60, 2, 4.54816
16, 3, wb, attraction, a-b-db, 14, 1, 3, 6, 60, 135, 56, 125, 135, 60, 3, 2.15989
16, 3, wb, attraction, a-b-da, 5, 3, 3, 7, 195, 120, 120, 195, 190, 117, 3, 11.8777
16, 3, wb, attraction, a-b-da, 5, 3, 3, 7, 195, 120, 120, 195, 190, 117, 2, 2.51726
16, 3, wb, attraction, a-b-da, 5, 2, 3, 8, 165, 90, 90, 165, 161, 88, 3, 3.26121
16, 3, wb, attraction, a-b-da, 5, 2, 3, 8, 165, 90, 90, 165, 161, 88, 2, 3.08333
16, 3, wb, filler, NA, 999, 999, 3, 9, 69, 101, 191, 100, 104, 156, 1, 2.34013
16, 3, wb, filler, NA, 999, 999, 3, 9, 69, 101, 191, 100, 104, 156, 3, 4.16623
16, 3, wb, attraction, a-b-da, 9, 1, 3, 10, 60, 135, 135, 60, 129, 57, 1, 7.73888
16, 3, wb, attraction, a-b-da, 9, 1, 3, 10, 60, 135, 135, 60, 129, 57, 3, 4.86072
16, 3, wb, catch, NA, 999, 999, 3, 11, 158, 97, 148, 167, 94, 101, 3, 1.90118
16, 3, wb, catch, NA, 999, 999, 3, 11, 158, 97, 148, 167, 94, 101, 2, 1.7755
16, 3, wb, filler, NA, 999, 999, 3, 12, 95, 132, 81, 161, 180, 164, 1, 2.7835
16, 3, wb, filler, NA, 999, 999, 3, 12, 95, 132, 81, 161, 180, 164, 3, 1.84587
16, 3, wb, attraction, a-b-db, 5, 1, 3, 13, 135, 60, 58, 132, 60, 135, 2, 3.06579
16, 3, wb, attraction, a-b-db, 5, 1, 3, 13, 135, 60, 58, 132, 60, 135, 3, 1.98038
16, 3, wb, attraction, a-b-db, 14, 2, 3, 14, 90, 165, 165, 90, 83, 153, 3, 2.70982
16, 3, wb, attraction, a-b-db, 14, 2, 3, 14, 90, 165, 165, 90, 83, 153, 2, 1.97357
16, 3, wb, catch, NA, 999, 999, 3, 15, 129, 66, 121, 134, 162, 153, 1, 2.4289
16, 3, wb, catch, NA, 999, 999, 3, 15, 129, 66, 121, 134, 162, 153, 3, 2.27393
16, 3, wb, attraction, a-b-da, 2, 3, 3, 16, 120, 195, 193, 119, 195, 120, 1, 4.1724
16, 3, wb, attraction, a-b-da, 2, 3, 3, 16, 120, 195, 193, 119, 195, 120, 2, 2.0852
16, 3, wb, attraction, a-b-db, 2, 1, 3, 17, 135, 60, 60, 135, 59, 134, 3, 2.26342
16, 3, wb, attraction, a-b-db, 2, 1, 3, 17, 135, 60, 60, 135, 59, 134, 1, 2.34713
16, 3, wb, filler, NA, 999, 999, 3, 18, 69, 93, 98, 162, 157, 97, 1, 4.27497
16, 3, wb, filler, NA, 999, 999, 3, 18, 69, 93, 98, 162, 157, 97, 2, 2.53546
16, 3, wb, attraction, a-b-da, 14, 1, 3, 19, 60, 135, 125, 56, 135, 60, 2, 5.74955
16, 3, wb, attraction, a-b-da, 14, 1, 3, 19, 60, 135, 125, 56, 135, 60, 1, 4.09319
16, 3, wb, attraction, a-b-da, 2, 1, 3, 20, 135, 60, 134, 59, 60, 135, 2, 3.9812
16, 3, wb, attraction, a-b-da, 2, 1, 3, 20, 135, 60, 134, 59, 60, 135, 3, 4.67766
16, 3, wb, attraction, a-b-db, 5, 2, 3, 21, 88, 161, 165, 90, 90, 165, 1, 3.09542
16, 3, wb, attraction, a-b-db, 5, 2, 3, 21, 88, 161, 165, 90, 90, 165, 2, 2.39327
16, 3, wb, attraction, a-b-da, 5, 1, 3, 22, 60, 135, 132, 58, 135, 60, 1, 3.1888
16, 3, wb, attraction, a-b-da, 5, 1, 3, 22, 60, 135, 132, 58, 135, 60, 3, 2.66182
16, 3, wb, filler, NA, 999, 999, 3, 23, 193, 105, 124, 103, 147, 194, 2, 2.80192
16, 3, wb, filler, NA, 999, 999, 3, 23, 193, 105, 124, 103, 147, 194, 3, 1.90406
16, 3, wb, catch, NA, 999, 999, 3, 24, 114, 141, 112, 83, 146, 169, 2, 2.24003
16, 3, wb, catch, NA, 999, 999, 3, 24, 114, 141, 112, 83, 146, 169, 3, 2.59043
16, 3, wb, attraction, a-b-da, 2, 2, 3, 25, 163, 89, 165, 90, 90, 165, 3, 3.50738
16, 3, wb, attraction, a-b-da, 2, 2, 3, 25, 163, 89, 165, 90, 90, 165, 2, 1.92505
16, 3, wb, attraction, a-b-da, 14, 3, 3, 26, 195, 120, 181, 111, 120, 195, 2, 2.34418
16, 3, wb, attraction, a-b-da, 14, 3, 3, 26, 195, 120, 181, 111, 120, 195, 3, 2.46327
16, 3, wb, attraction, a-b-db, 2, 3, 3, 27, 120, 195, 195, 120, 119, 193, 3, 2.93008
16, 3, wb, attraction, a-b-db, 2, 3, 3, 27, 120, 195, 195, 120, 119, 193, 1, 2.19476
16, 3, wb, attraction, a-b-db, 5, 3, 3, 28, 195, 120, 117, 190, 120, 195, 3, 3.48146
16, 3, wb, attraction, a-b-db, 5, 3, 3, 28, 195, 120, 117, 190, 120, 195, 1, 2.63837
16, 3, wb, attraction, a-b-da, 9, 2, 3, 29, 90, 165, 157, 86, 165, 90, 2, 2.2821
16, 3, wb, attraction, a-b-da, 9, 2, 3, 29, 90, 165, 157, 86, 165, 90, 3, 2.93125
16, 3, wb, filler, NA, 999, 999, 3, 30, 98, 157, 167, 174, 106, 77, 3, 2.12425
16, 3, wb, filler, NA, 999, 999, 3, 30, 98, 157, 167, 174, 106, 77, 2, 1.53485
16, 3, wb, attraction, a-b-da, 9, 3, 3, 31, 120, 195, 186, 114, 195, 120, 2, 2.27992
16, 3, wb, attraction, a-b-da, 9, 3, 3, 31, 120, 195, 186, 114, 195, 120, 3, 1.41684
16, 3, wb, filler, NA, 999, 999, 3, 32, 76, 186, 186, 185, 127, 191, 1, 1.8234
16, 3, wb, filler, NA, 999, 999, 3, 32, 76, 186, 186, 185, 127, 191, 2, 1.34949
16, 3, wb, attraction, a-b-db, 9, 2, 3, 33, 165, 90, 86, 157, 90, 165, 2, 1.94863
16, 3, wb, attraction, a-b-db, 9, 2, 3, 33, 165, 90, 86, 157, 90, 165, 3, 1.58169
16, 3, wb, attraction, a-b-db, 9, 1, 3, 34, 135, 60, 60, 135, 57, 129, 3, 2.44093
16, 3, wb, attraction, a-b-db, 9, 1, 3, 34, 135, 60, 60, 135, 57, 129, 2, 1.16893
16, 3, wb, attraction, a-b-db, 2, 2, 3, 35, 89, 163, 165, 90, 90, 165, 3, 3.18423
16, 3, wb, attraction, a-b-db, 2, 2, 3, 35, 89, 163, 165, 90, 90, 165, 2, 2.71833
16, 3, wb, filler, NA, 999, 999, 3, 36, 95, 65, 136, 183, 143, 99, 1, 3.18289
16, 3, wb, filler, NA, 999, 999, 3, 36, 95, 65, 136, 183, 143, 99, 2, 1.87583
16, 3, wb, filler, NA, 999, 999, 3, 37, 195, 67, 155, 63, 148, 120, 2, 2.58574
16, 3, wb, filler, NA, 999, 999, 3, 37, 195, 67, 155, 63, 148, 120, 3, 1.9512
16, 3, wb, filler, NA, 999, 999, 4, 1, 183, 75, 119, 151, 167, 170, 1, 5.18342
16, 3, wb, filler, NA, 999, 999, 4, 1, 183, 75, 119, 151, 167, 170, 3, 1.47716
16, 3, wb, filler, NA, 999, 999, 4, 2, 80, 158, 135, 119, 183, 76, 1, 2.56059
16, 3, wb, filler, NA, 999, 999, 4, 2, 80, 158, 135, 119, 183, 76, 2, 1.56902
16, 3, wb, attraction, a-b-db, 2, 3, 4, 3, 119, 193, 120, 195, 195, 120, 1, 3.24889
16, 3, wb, attraction, a-b-db, 2, 3, 4, 3, 119, 193, 120, 195, 195, 120, 2, 4.13084
16, 3, wb, catch, NA, 999, 999, 4, 4, 156, 99, 135, 60, 129, 186, 2, 1.78928
16, 3, wb, catch, NA, 999, 999, 4, 4, 156, 99, 135, 60, 129, 186, 3, 2.03399
16, 3, wb, attraction, a-b-da, 5, 1, 4, 5, 60, 135, 135, 60, 132, 58, 1, 2.63737
16, 3, wb, attraction, a-b-da, 5, 1, 4, 5, 60, 135, 135, 60, 132, 58, 2, 4.78749
16, 3, wb, attraction, a-b-db, 9, 3, 4, 6, 195, 120, 120, 195, 114, 186, 3, 2.36942
16, 3, wb, attraction, a-b-db, 9, 3, 4, 6, 195, 120, 120, 195, 114, 186, 1, 2.56936
16, 3, wb, attraction, a-b-da, 14, 2, 4, 7, 90, 165, 153, 83, 165, 90, 2, 2.88604
16, 3, wb, attraction, a-b-da, 14, 2, 4, 7, 90, 165, 153, 83, 165, 90, 3, 2.41782
16, 3, wb, attraction, a-b-db, 14, 2, 4, 8, 83, 153, 90, 165, 165, 90, 1, 2.66237
16, 3, wb, attraction, a-b-db, 14, 2, 4, 8, 83, 153, 90, 165, 165, 90, 2, 2.22883
16, 3, wb, attraction, a-b-db, 5, 1, 4, 9, 58, 132, 135, 60, 60, 135, 1, 3.55998
16, 3, wb, attraction, a-b-db, 5, 1, 4, 9, 58, 132, 135, 60, 60, 135, 2, 3.76063
16, 3, wb, attraction, a-b-db, 5, 3, 4, 10, 120, 195, 195, 120, 117, 190, 3, 2.51946
16, 3, wb, attraction, a-b-db, 5, 3, 4, 10, 120, 195, 195, 120, 117, 190, 2, 2.12122
16, 3, wb, catch, NA, 999, 999, 4, 11, 139, 176, 135, 60, 98, 157, 2, 2.1692
16, 3, wb, catch, NA, 999, 999, 4, 11, 139, 176, 135, 60, 98, 157, 1, 1.48237
16, 3, wb, attraction, a-b-db, 9, 1, 4, 12, 57, 129, 135, 60, 60, 135, 1, 2.26015
16, 3, wb, attraction, a-b-db, 9, 1, 4, 12, 57, 129, 135, 60, 60, 135, 2, 1.64935
16, 3, wb, filler, NA, 999, 999, 4, 13, 113, 59, 182, 110, 77, 177, 1, 1.68362
16, 3, wb, filler, NA, 999, 999, 4, 13, 113, 59, 182, 110, 77, 177, 2, 1.75195
16, 3, wb, filler, NA, 999, 999, 4, 14, 181, 151, 155, 88, 91, 149, 3, 1.93368
16, 3, wb, filler, NA, 999, 999, 4, 14, 181, 151, 155, 88, 91, 149, 1, 1.28061
16, 3, wb, catch, NA, 999, 999, 4, 15, 149, 106, 148, 167, 130, 65, 3, 1.7093
16, 3, wb, catch, NA, 999, 999, 4, 15, 149, 106, 148, 167, 130, 65, 2, 1.717
16, 3, wb, attraction, a-b-da, 5, 2, 4, 16, 165, 90, 90, 165, 161, 88, 3, 4.13517
16, 3, wb, attraction, a-b-da, 5, 2, 4, 16, 165, 90, 90, 165, 161, 88, 2, 1.37555
16, 3, wb, filler, NA, 999, 999, 4, 17, 182, 91, 128, 186, 184, 185, 1, 2.57445
16, 3, wb, filler, NA, 999, 999, 4, 17, 182, 91, 128, 186, 184, 185, 3, 1.75633
16, 3, wb, filler, NA, 999, 999, 4, 18, 164, 124, 117, 138, 106, 104, 3, 1.86014
16, 3, wb, filler, NA, 999, 999, 4, 18, 164, 124, 117, 138, 106, 104, 1, 1.93217
16, 3, wb, attraction, a-b-da, 5, 3, 4, 19, 120, 195, 190, 117, 195, 120, 3, 2.77864
16, 3, wb, attraction, a-b-da, 5, 3, 4, 19, 120, 195, 190, 117, 195, 120, 2, 1.41073
16, 3, wb, attraction, a-b-da, 9, 2, 4, 20, 165, 90, 157, 86, 90, 165, 3, 3.39195
16, 3, wb, attraction, a-b-da, 9, 2, 4, 20, 165, 90, 157, 86, 90, 165, 1, 2.83179
16, 3, wb, attraction, a-b-da, 2, 1, 4, 21, 60, 135, 134, 59, 135, 60, 3, 4.65031
16, 3, wb, attraction, a-b-da, 2, 1, 4, 21, 60, 135, 134, 59, 135, 60, 2, 4.26353
16, 3, wb, attraction, a-b-db, 2, 2, 4, 22, 89, 163, 165, 90, 90, 165, 3, 3.77774
16, 3, wb, attraction, a-b-db, 2, 2, 4, 22, 89, 163, 165, 90, 90, 165, 2, 1.97643
16, 3, wb, attraction, a-b-db, 2, 1, 4, 23, 60, 135, 59, 134, 135, 60, 3, 2.40782
16, 3, wb, attraction, a-b-db, 2, 1, 4, 23, 60, 135, 59, 134, 135, 60, 2, 1.94977
16, 3, wb, attraction, a-b-da, 14, 3, 4, 24, 120, 195, 181, 111, 195, 120, 2, 5.68512
16, 3, wb, attraction, a-b-da, 14, 3, 4, 24, 120, 195, 181, 111, 195, 120, 1, 1.5189
16, 3, wb, filler, NA, 999, 999, 4, 25, 90, 138, 134, 116, 122, 67, 3, 2.27102
16, 3, wb, filler, NA, 999, 999, 4, 25, 90, 138, 134, 116, 122, 67, 2, 1.90862
16, 3, wb, attraction, a-b-da, 2, 3, 4, 26, 120, 195, 195, 120, 193, 119, 1, 7.67035
16, 3, wb, attraction, a-b-da, 2, 3, 4, 26, 120, 195, 195, 120, 193, 119, 2, 1.37576
16, 3, wb, filler, NA, 999, 999, 4, 27, 185, 184, 133, 152, 68, 61, 3, 1.95905
16, 3, wb, filler, NA, 999, 999, 4, 27, 185, 184, 133, 152, 68, 61, 1, 1.36722
16, 3, wb, attraction, a-b-da, 2, 2, 4, 28, 90, 165, 163, 89, 165, 90, 1, 4.15795
16, 3, wb, attraction, a-b-da, 2, 2, 4, 28, 90, 165, 163, 89, 165, 90, 2, 1.58842
16, 3, wb, attraction, a-b-da, 14, 1, 4, 29, 135, 60, 125, 56, 60, 135, 2, 2.14771
16, 3, wb, attraction, a-b-da, 14, 1, 4, 29, 135, 60, 125, 56, 60, 135, 3, 1.37169
16, 3, wb, attraction, a-b-db, 9, 2, 4, 30, 90, 165, 86, 157, 165, 90, 1, 2.21134
16, 3, wb, attraction, a-b-db, 9, 2, 4, 30, 90, 165, 86, 157, 165, 90, 3, 2.34738
16, 3, wb, attraction, a-b-db, 14, 3, 4, 31, 195, 120, 120, 195, 111, 181, 3, 2.60302
16, 3, wb, attraction, a-b-db, 14, 3, 4, 31, 195, 120, 120, 195, 111, 181, 2, 1.15135
16, 3, wb, filler, NA, 999, 999, 4, 32, 127, 122, 83, 115, 137, 165, 2, 1.77602
16, 3, wb, filler, NA, 999, 999, 4, 32, 127, 122, 83, 115, 137, 165, 3, 1.0965
16, 3, wb, attraction, a-b-db, 14, 1, 4, 33, 60, 135, 56, 125, 135, 60, 2, 1.73911
16, 3, wb, attraction, a-b-db, 14, 1, 4, 33, 60, 135, 56, 125, 135, 60, 3, 1.75643
16, 3, wb, filler, NA, 999, 999, 4, 34, 124, 185, 182, 158, 162, 166, 1, 2.26662
16, 3, wb, filler, NA, 999, 999, 4, 34, 124, 185, 182, 158, 162, 166, 2, 1.28682
16, 3, wb, attraction, a-b-da, 9, 1, 4, 35, 60, 135, 135, 60, 129, 57, 1, 1.51991
16, 3, wb, attraction, a-b-da, 9, 1, 4, 35, 60, 135, 135, 60, 129, 57, 2, 4.11382
16, 3, wb, attraction, a-b-db, 5, 2, 4, 36, 90, 165, 88, 161, 165, 90, 1, 1.88363
16, 3, wb, attraction, a-b-db, 5, 2, 4, 36, 90, 165, 88, 161, 165, 90, 3, 1.48772
16, 3, wb, attraction, a-b-da, 9, 3, 4, 37, 120, 195, 195, 120, 186, 114, 1, 3.13026
16, 3, wb, attraction, a-b-da, 9, 3, 4, 37, 120, 195, 195, 120, 186, 114, 2, 1.94649
16, 3, wb, attraction, a-b-da, 5, 3, 5, 1, 120, 195, 195, 120, 190, 117, 3, 7.3211
16, 3, wb, attraction, a-b-da, 5, 3, 5, 1, 120, 195, 195, 120, 190, 117, 2, 2.81746
16, 3, wb, filler, NA, 999, 999, 5, 2, 191, 176, 193, 96, 185, 164, 2, 2.22075
16, 3, wb, filler, NA, 999, 999, 5, 2, 191, 176, 193, 96, 185, 164, 1, 3.57776
16, 3, wb, filler, NA, 999, 999, 5, 3, 167, 182, 168, 168, 133, 79, 3, 4.37702
16, 3, wb, filler, NA, 999, 999, 5, 3, 167, 182, 168, 168, 133, 79, 1, 4.1452
16, 3, wb, attraction, a-b-db, 14, 1, 5, 4, 60, 135, 56, 125, 135, 60, 2, 3.66523
16, 3, wb, attraction, a-b-db, 14, 1, 5, 4, 60, 135, 56, 125, 135, 60, 3, 3.30922
16, 3, wb, attraction, a-b-db, 9, 2, 5, 5, 90, 165, 165, 90, 86, 157, 3, 3.55485
16, 3, wb, attraction, a-b-db, 9, 2, 5, 5, 90, 165, 165, 90, 86, 157, 2, 2.52422
16, 3, wb, catch, NA, 999, 999, 5, 6, 104, 91, 128, 127, 166, 149, 1, 2.13538
16, 3, wb, catch, NA, 999, 999, 5, 6, 104, 91, 128, 127, 166, 149, 3, 2.19804
16, 3, wb, attraction, a-b-da, 9, 3, 5, 7, 120, 195, 195, 120, 186, 114, 3, 4.68252
16, 3, wb, attraction, a-b-da, 9, 3, 5, 7, 120, 195, 195, 120, 186, 114, 2, 2.25507
16, 3, wb, attraction, a-b-da, 14, 3, 5, 8, 120, 195, 195, 120, 181, 111, 3, 8.82684
16, 3, wb, attraction, a-b-da, 14, 3, 5, 8, 120, 195, 195, 120, 181, 111, 2, 14.0368
16, 3, wb, attraction, a-b-db, 9, 1, 5, 9, 60, 135, 57, 129, 135, 60, 3, 9.80655
16, 3, wb, attraction, a-b-db, 9, 1, 5, 9, 60, 135, 57, 129, 135, 60, 1, 2.73953
16, 3, wb, attraction, a-b-db, 5, 1, 5, 10, 60, 135, 135, 60, 58, 132, 3, 3.24867
16, 3, wb, attraction, a-b-db, 5, 1, 5, 10, 60, 135, 135, 60, 58, 132, 2, 1.98353
16, 3, wb, attraction, a-b-db, 5, 2, 5, 11, 165, 90, 88, 161, 90, 165, 3, 4.2827
16, 3, wb, attraction, a-b-db, 5, 2, 5, 11, 165, 90, 88, 161, 90, 165, 1, 4.56072
16, 3, wb, filler, NA, 999, 999, 5, 12, 188, 183, 129, 190, 81, 168, 3, 1.7748
16, 3, wb, filler, NA, 999, 999, 5, 12, 188, 183, 129, 190, 81, 168, 1, 2.14031
16, 3, wb, attraction, a-b-db, 9, 3, 5, 13, 195, 120, 114, 186, 120, 195, 2, 3.24791
16, 3, wb, attraction, a-b-db, 9, 3, 5, 13, 195, 120, 114, 186, 120, 195, 3, 2.71394
16, 3, wb, filler, NA, 999, 999, 5, 14, 90, 82, 155, 113, 166, 137, 1, 1.96165
16, 3, wb, filler, NA, 999, 999, 5, 14, 90, 82, 155, 113, 166, 137, 3, 1.62077
16, 3, wb, filler, NA, 999, 999, 5, 15, 147, 96, 182, 69, 114, 108, 3, 2.46604
16, 3, wb, filler, NA, 999, 999, 5, 15, 147, 96, 182, 69, 114, 108, 1, 7.02828
16, 3, wb, attraction, a-b-da, 5, 2, 5, 16, 90, 165, 161, 88, 165, 90, 1, 4.10998
16, 3, wb, attraction, a-b-da, 5, 2, 5, 16, 90, 165, 161, 88, 165, 90, 3, 1.8566
16, 3, wb, catch, NA, 999, 999, 5, 17, 138, 117, 104, 91, 128, 187, 2, 2.22216
16, 3, wb, catch, NA, 999, 999, 5, 17, 138, 117, 104, 91, 128, 187, 3, 2.69041
16, 3, wb, attraction, a-b-da, 2, 1, 5, 18, 134, 59, 60, 135, 135, 60, 3, 3.93181
16, 3, wb, attraction, a-b-da, 2, 1, 5, 18, 134, 59, 60, 135, 135, 60, 2, 3.16441
16, 3, wb, attraction, a-b-da, 9, 1, 5, 19, 135, 60, 129, 57, 60, 135, 2, 4.9553
16, 3, wb, attraction, a-b-da, 9, 1, 5, 19, 135, 60, 129, 57, 60, 135, 1, 2.48345
16, 3, wb, attraction, a-b-da, 2, 2, 5, 20, 90, 165, 163, 89, 165, 90, 2, 6.74926
16, 3, wb, attraction, a-b-da, 2, 2, 5, 20, 90, 165, 163, 89, 165, 90, 3, 4.4212
16, 3, wb, attraction, a-b-db, 2, 2, 5, 21, 90, 165, 89, 163, 165, 90, 2, 3.48852
16, 3, wb, attraction, a-b-db, 2, 2, 5, 21, 90, 165, 89, 163, 165, 90, 3, 3.34808
16, 3, wb, attraction, a-b-da, 14, 2, 5, 22, 153, 83, 90, 165, 165, 90, 1, 3.17971
16, 3, wb, attraction, a-b-da, 14, 2, 5, 22, 153, 83, 90, 165, 165, 90, 3, 1.83474
16, 3, wb, filler, NA, 999, 999, 5, 23, 65, 102, 107, 90, 61, 72, 3, 1.73402
16, 3, wb, filler, NA, 999, 999, 5, 23, 65, 102, 107, 90, 61, 72, 2, 1.59001
16, 3, wb, filler, NA, 999, 999, 5, 24, 116, 156, 100, 144, 72, 114, 3, 2.49481
16, 3, wb, filler, NA, 999, 999, 5, 24, 116, 156, 100, 144, 72, 114, 1, 1.61665
16, 3, wb, attraction, a-b-db, 2, 3, 5, 25, 195, 120, 120, 195, 119, 193, 3, 2.46292
16, 3, wb, attraction, a-b-db, 2, 3, 5, 25, 195, 120, 120, 195, 119, 193, 2, 1.41685
16, 3, wb, filler, NA, 999, 999, 5, 26, 122, 92, 150, 78, 157, 137, 1, 1.46383
16, 3, wb, filler, NA, 999, 999, 5, 26, 122, 92, 150, 78, 157, 137, 3, 1.67554
16, 3, wb, attraction, a-b-db, 14, 3, 5, 27, 111, 181, 120, 195, 195, 120, 1, 1.81335
16, 3, wb, attraction, a-b-db, 14, 3, 5, 27, 111, 181, 120, 195, 195, 120, 3, 2.19453
16, 3, wb, attraction, a-b-da, 14, 1, 5, 28, 60, 135, 135, 60, 125, 56, 3, 2.9132
16, 3, wb, attraction, a-b-da, 14, 1, 5, 28, 60, 135, 135, 60, 125, 56, 1, 2.49078
16, 3, wb, attraction, a-b-da, 2, 3, 5, 29, 120, 195, 195, 120, 193, 119, 1, 2.15031
16, 3, wb, attraction, a-b-da, 2, 3, 5, 29, 120, 195, 195, 120, 193, 119, 3, 2.0793
16, 3, wb, filler, NA, 999, 999, 5, 30, 98, 91, 179, 126, 183, 120, 1, 2.73654
16, 3, wb, filler, NA, 999, 999, 5, 30, 98, 91, 179, 126, 183, 120, 2, 2.24955
16, 3, wb, attraction, a-b-db, 5, 3, 5, 31, 117, 190, 120, 195, 195, 120, 1, 3.73393
16, 3, wb, attraction, a-b-db, 5, 3, 5, 31, 117, 190, 120, 195, 195, 120, 2, 3.95118
16, 3, wb, catch, NA, 999, 999, 5, 32, 77, 118, 129, 126, 165, 150, 1, 2.53473
16, 3, wb, catch, NA, 999, 999, 5, 32, 77, 118, 129, 126, 165, 150, 3, 1.92517
16, 3, wb, filler, NA, 999, 999, 5, 33, 74, 99, 153, 112, 91, 182, 1, 4.2712
16, 3, wb, filler, NA, 999, 999, 5, 33, 74, 99, 153, 112, 91, 182, 3, 2.29059
16, 3, wb, attraction, a-b-da, 5, 1, 5, 34, 132, 58, 135, 60, 60, 135, 1, 2.82758
16, 3, wb, attraction, a-b-da, 5, 1, 5, 34, 132, 58, 135, 60, 60, 135, 2, 4.70649
16, 3, wb, attraction, a-b-db, 14, 2, 5, 35, 83, 153, 90, 165, 165, 90, 1, 2.52124
16, 3, wb, attraction, a-b-db, 14, 2, 5, 35, 83, 153, 90, 165, 165, 90, 2, 1.89913
16, 3, wb, attraction, a-b-db, 2, 1, 5, 36, 59, 134, 135, 60, 60, 135, 1, 2.04512
16, 3, wb, attraction, a-b-db, 2, 1, 5, 36, 59, 134, 135, 60, 60, 135, 3, 2.85134
16, 3, wb, attraction, a-b-da, 9, 2, 5, 37, 165, 90, 90, 165, 157, 86, 3, 2.18344
16, 3, wb, attraction, a-b-da, 9, 2, 5, 37, 165, 90, 90, 165, 157, 86, 1, 2.63793
16, 3, wb, attraction, a-b-da, 2, 1, 6, 1, 134, 59, 60, 135, 135, 60, 3, 2.78537
16, 3, wb, attraction, a-b-da, 2, 1, 6, 1, 134, 59, 60, 135, 135, 60, 1, 5.13692
16, 3, wb, attraction, a-b-da, 2, 2, 6, 2, 90, 165, 165, 90, 163, 89, 1, 3.15013
16, 3, wb, attraction, a-b-da, 2, 2, 6, 2, 90, 165, 165, 90, 163, 89, 2, 2.51938
16, 3, wb, catch, NA, 999, 999, 6, 3, 186, 129, 105, 90, 122, 133, 2, 2.31296
16, 3, wb, catch, NA, 999, 999, 6, 3, 186, 129, 105, 90, 122, 133, 1, 2.41109
16, 3, wb, filler, NA, 999, 999, 6, 4, 129, 132, 137, 146, 98, 116, 3, 2.04744
16, 3, wb, filler, NA, 999, 999, 6, 4, 129, 132, 137, 146, 98, 116, 2, 2.91586
16, 3, wb, attraction, a-b-db, 2, 2, 6, 5, 89, 163, 165, 90, 90, 165, 1, 4.44388
16, 3, wb, attraction, a-b-db, 2, 2, 6, 5, 89, 163, 165, 90, 90, 165, 2, 4.16958
16, 3, wb, attraction, a-b-db, 5, 1, 6, 6, 58, 132, 135, 60, 60, 135, 1, 3.26424
16, 3, wb, attraction, a-b-db, 5, 1, 6, 6, 58, 132, 135, 60, 60, 135, 3, 2.4843
16, 3, wb, attraction, a-b-da, 9, 3, 6, 7, 195, 120, 120, 195, 186, 114, 3, 14.8432
16, 3, wb, attraction, a-b-da, 9, 3, 6, 7, 195, 120, 120, 195, 186, 114, 1, 3.63825
16, 3, wb, attraction, a-b-db, 5, 3, 6, 8, 120, 195, 195, 120, 117, 190, 3, 4.68825
16, 3, wb, attraction, a-b-db, 5, 3, 6, 8, 120, 195, 195, 120, 117, 190, 2, 3.22843
16, 3, wb, catch, NA, 999, 999, 6, 9, 87, 108, 90, 165, 173, 142, 1, 2.10417
16, 3, wb, catch, NA, 999, 999, 6, 9, 87, 108, 90, 165, 173, 142, 3, 3.10743
16, 3, wb, attraction, a-b-db, 9, 3, 6, 10, 114, 186, 195, 120, 120, 195, 1, 3.52363
16, 3, wb, attraction, a-b-db, 9, 3, 6, 10, 114, 186, 195, 120, 120, 195, 3, 4.0697
16, 3, wb, attraction, a-b-db, 2, 1, 6, 11, 59, 134, 135, 60, 60, 135, 1, 6.23368
16, 3, wb, attraction, a-b-db, 2, 1, 6, 11, 59, 134, 135, 60, 60, 135, 3, 2.75512
16, 3, wb, filler, NA, 999, 999, 6, 12, 184, 146, 190, 90, 91, 161, 3, 1.97832
16, 3, wb, filler, NA, 999, 999, 6, 12, 184, 146, 190, 90, 91, 161, 1, 2.70885
16, 3, wb, attraction, a-b-da, 2, 3, 6, 13, 193, 119, 195, 120, 120, 195, 1, 3.62023
16, 3, wb, attraction, a-b-da, 2, 3, 6, 13, 193, 119, 195, 120, 120, 195, 3, 4.73747
16, 3, wb, filler, NA, 999, 999, 6, 14, 149, 192, 138, 110, 178, 195, 2, 2.02448
16, 3, wb, filler, NA, 999, 999, 6, 14, 149, 192, 138, 110, 178, 195, 3, 2.11923
16, 3, wb, attraction, a-b-da, 5, 3, 6, 15, 120, 195, 190, 117, 195, 120, 2, 5.68068
16, 3, wb, attraction, a-b-da, 5, 3, 6, 15, 120, 195, 190, 117, 195, 120, 1, 5.79405
16, 3, wb, attraction, a-b-db, 2, 3, 6, 16, 195, 120, 119, 193, 120, 195, 3, 2.87982
16, 3, wb, attraction, a-b-db, 2, 3, 6, 16, 195, 120, 119, 193, 120, 195, 1, 3.8269
16, 3, wb, filler, NA, 999, 999, 6, 17, 91, 173, 184, 184, 85, 70, 3, 2.18175
16, 3, wb, filler, NA, 999, 999, 6, 17, 91, 173, 184, 184, 85, 70, 2, 2.11669
16, 3, wb, filler, NA, 999, 999, 6, 18, 117, 115, 187, 100, 83, 130, 3, 2.52557
16, 3, wb, filler, NA, 999, 999, 6, 18, 117, 115, 187, 100, 83, 130, 2, 3.61551
16, 3, wb, filler, NA, 999, 999, 6, 19, 187, 135, 116, 129, 86, 58, 3, 2.78833
16, 3, wb, filler, NA, 999, 999, 6, 19, 187, 135, 116, 129, 86, 58, 1, 5.95686
16, 3, wb, filler, NA, 999, 999, 6, 20, 96, 127, 75, 164, 181, 121, 1, 2.75301
16, 3, wb, filler, NA, 999, 999, 6, 20, 96, 127, 75, 164, 181, 121, 3, 2.72841
16, 3, wb, filler, NA, 999, 999, 6, 21, 182, 78, 148, 113, 102, 102, 3, 3.32785
16, 3, wb, filler, NA, 999, 999, 6, 21, 182, 78, 148, 113, 102, 102, 2, 2.82599
16, 3, wb, attraction, a-b-db, 5, 2, 6, 22, 90, 165, 165, 90, 88, 161, 1, 4.27323
16, 3, wb, attraction, a-b-db, 5, 2, 6, 22, 90, 165, 165, 90, 88, 161, 3, 2.88891
16, 3, wb, catch, NA, 999, 999, 6, 23, 125, 190, 133, 62, 101, 154, 2, 3.26065
16, 3, wb, catch, NA, 999, 999, 6, 23, 125, 190, 133, 62, 101, 154, 1, 3.88739
16, 3, wb, attraction, a-b-db, 14, 2, 6, 24, 83, 153, 90, 165, 165, 90, 1, 4.36974
16, 3, wb, attraction, a-b-db, 14, 2, 6, 24, 83, 153, 90, 165, 165, 90, 3, 4.89952
16, 3, wb, filler, NA, 999, 999, 6, 25, 156, 130, 75, 162, 102, 95, 3, 2.57038
16, 3, wb, filler, NA, 999, 999, 6, 25, 156, 130, 75, 162, 102, 95, 1, 2.02487
16, 3, wb, attraction, a-b-da, 5, 1, 6, 26, 132, 58, 60, 135, 135, 60, 1, 4.85594
16, 3, wb, attraction, a-b-da, 5, 1, 6, 26, 132, 58, 60, 135, 135, 60, 2, 2.97038
16, 3, wb, attraction, a-b-db, 9, 1, 6, 27, 57, 129, 135, 60, 60, 135, 1, 2.4317
16, 3, wb, attraction, a-b-db, 9, 1, 6, 27, 57, 129, 135, 60, 60, 135, 2, 3.26938
16, 3, wb, attraction, a-b-db, 9, 2, 6, 28, 86, 157, 90, 165, 165, 90, 1, 2.81551
16, 3, wb, attraction, a-b-db, 9, 2, 6, 28, 86, 157, 90, 165, 165, 90, 2, 10.7602
16, 3, wb, filler, NA, 999, 999, 6, 29, 186, 105, 140, 104, 139, 168, 2, 2.74778
16, 3, wb, filler, NA, 999, 999, 6, 29, 186, 105, 140, 104, 139, 168, 3, 1.81031
16, 3, wb, attraction, a-b-da, 14, 3, 6, 30, 120, 195, 181, 111, 195, 120, 1, 3.25577
16, 3, wb, attraction, a-b-da, 14, 3, 6, 30, 120, 195, 181, 111, 195, 120, 3, 2.66135
16, 3, wb, attraction, a-b-da, 14, 1, 6, 31, 60, 135, 125, 56, 135, 60, 2, 5.04071
16, 3, wb, attraction, a-b-da, 14, 1, 6, 31, 60, 135, 125, 56, 135, 60, 1, 1.73951
16, 3, wb, attraction, a-b-db, 14, 1, 6, 32, 56, 125, 135, 60, 60, 135, 1, 5.50813
16, 3, wb, attraction, a-b-db, 14, 1, 6, 32, 56, 125, 135, 60, 60, 135, 3, 2.82914
16, 3, wb, attraction, a-b-da, 9, 1, 6, 33, 135, 60, 60, 135, 129, 57, 3, 3.85762
16, 3, wb, attraction, a-b-da, 9, 1, 6, 33, 135, 60, 60, 135, 129, 57, 1, 2.83932
16, 3, wb, attraction, a-b-da, 5, 2, 6, 34, 165, 90, 90, 165, 161, 88, 3, 2.835
16, 3, wb, attraction, a-b-da, 5, 2, 6, 34, 165, 90, 90, 165, 161, 88, 2, 2.81453
16, 3, wb, attraction, a-b-db, 14, 3, 6, 35, 111, 181, 195, 120, 120, 195, 1, 3.24433
16, 3, wb, attraction, a-b-db, 14, 3, 6, 35, 111, 181, 195, 120, 120, 195, 2, 2.6342
16, 3, wb, attraction, a-b-da, 9, 2, 6, 36, 157, 86, 165, 90, 90, 165, 1, 3.30839
16, 3, wb, attraction, a-b-da, 9, 2, 6, 36, 157, 86, 165, 90, 90, 165, 2, 2.78405
16, 3, wb, attraction, a-b-da, 14, 2, 6, 37, 90, 165, 153, 83, 165, 90, 2, 3.38749
16, 3, wb, attraction, a-b-da, 14, 2, 6, 37, 90, 165, 153, 83, 165, 90, 3, 2.26759
16, 3, wb, attraction, a-b-db, 9, 2, 7, 1, 165, 90, 86, 157, 90, 165, 2, 4.26307
16, 3, wb, attraction, a-b-db, 9, 2, 7, 1, 165, 90, 86, 157, 90, 165, 1, 4.18387
16, 3, wb, filler, NA, 999, 999, 7, 2, 148, 81, 129, 73, 143, 148, 2, 1.74176
16, 3, wb, filler, NA, 999, 999, 7, 2, 148, 81, 129, 73, 143, 148, 3, 1.73711
16, 3, wb, filler, NA, 999, 999, 7, 3, 81, 166, 143, 145, 95, 81, 3, 2.35135
16, 3, wb, filler, NA, 999, 999, 7, 3, 81, 166, 143, 145, 95, 81, 2, 1.8569
16, 3, wb, catch, NA, 999, 999, 7, 4, 120, 135, 127, 188, 100, 95, 3, 2.27638
16, 3, wb, catch, NA, 999, 999, 7, 4, 120, 135, 127, 188, 100, 95, 2, 2.13659
16, 3, wb, attraction, a-b-db, 5, 2, 7, 5, 90, 165, 165, 90, 88, 161, 3, 13.7517
16, 3, wb, attraction, a-b-db, 5, 2, 7, 5, 90, 165, 165, 90, 88, 161, 2, 3.39688
16, 3, wb, attraction, a-b-db, 2, 3, 7, 6, 120, 195, 195, 120, 119, 193, 2, 8.92329
16, 3, wb, attraction, a-b-db, 2, 3, 7, 6, 120, 195, 195, 120, 119, 193, 3, 2.28143
16, 3, wb, attraction, a-b-da, 5, 2, 7, 7, 90, 165, 161, 88, 165, 90, 1, 4.01432
16, 3, wb, attraction, a-b-da, 5, 2, 7, 7, 90, 165, 161, 88, 165, 90, 3, 1.89858
16, 3, wb, attraction, a-b-db, 14, 1, 7, 8, 60, 135, 56, 125, 135, 60, 2, 2.57823
16, 3, wb, attraction, a-b-db, 14, 1, 7, 8, 60, 135, 56, 125, 135, 60, 3, 1.46635
16, 3, wb, attraction, a-b-db, 2, 1, 7, 9, 135, 60, 60, 135, 59, 134, 2, 2.98307
16, 3, wb, attraction, a-b-db, 2, 1, 7, 9, 135, 60, 60, 135, 59, 134, 1, 2.30829
16, 3, wb, attraction, a-b-da, 9, 3, 7, 10, 186, 114, 195, 120, 120, 195, 1, 5.13338
16, 3, wb, attraction, a-b-da, 9, 3, 7, 10, 186, 114, 195, 120, 120, 195, 2, 1.88732
16, 3, wb, catch, NA, 999, 999, 7, 11, 162, 153, 83, 112, 141, 114, 2, 2.15338
16, 3, wb, catch, NA, 999, 999, 7, 11, 162, 153, 83, 112, 141, 114, 1, 2.5691
16, 3, wb, attraction, a-b-da, 5, 3, 7, 12, 195, 120, 190, 117, 120, 195, 1, 2.43993
16, 3, wb, attraction, a-b-da, 5, 3, 7, 12, 195, 120, 190, 117, 120, 195, 3, 3.82228
16, 3, wb, attraction, a-b-db, 14, 2, 7, 13, 90, 165, 83, 153, 165, 90, 2, 2.31419
16, 3, wb, attraction, a-b-db, 14, 2, 7, 13, 90, 165, 83, 153, 165, 90, 1, 3.36984
16, 3, wb, filler, NA, 999, 999, 7, 14, 115, 148, 83, 180, 100, 168, 2, 2.87222
16, 3, wb, filler, NA, 999, 999, 7, 14, 115, 148, 83, 180, 100, 168, 1, 4.26055
16, 3, wb, attraction, a-b-da, 2, 1, 7, 15, 134, 59, 60, 135, 135, 60, 3, 3.23372
16, 3, wb, attraction, a-b-da, 2, 1, 7, 15, 134, 59, 60, 135, 135, 60, 1, 3.30893
16, 3, wb, attraction, a-b-db, 5, 1, 7, 16, 135, 60, 60, 135, 58, 132, 3, 3.14301
16, 3, wb, attraction, a-b-db, 5, 1, 7, 16, 135, 60, 60, 135, 58, 132, 1, 4.19987
16, 3, wb, attraction, a-b-da, 2, 3, 7, 17, 195, 120, 193, 119, 120, 195, 2, 4.86063
16, 3, wb, attraction, a-b-da, 2, 3, 7, 17, 195, 120, 193, 119, 120, 195, 3, 4.55006
16, 3, wb, attraction, a-b-db, 9, 3, 7, 18, 120, 195, 195, 120, 114, 186, 3, 6.89338
16, 3, wb, attraction, a-b-db, 9, 3, 7, 18, 120, 195, 195, 120, 114, 186, 2, 4.03976
16, 3, wb, attraction, a-b-db, 9, 1, 7, 19, 60, 135, 135, 60, 57, 129, 3, 2.83446
16, 3, wb, attraction, a-b-db, 9, 1, 7, 19, 60, 135, 135, 60, 57, 129, 1, 4.47124
16, 3, wb, filler, NA, 999, 999, 7, 20, 93, 57, 103, 111, 116, 61, 1, 2.26593
16, 3, wb, filler, NA, 999, 999, 7, 20, 93, 57, 103, 111, 116, 61, 2, 2.21431
16, 3, wb, filler, NA, 999, 999, 7, 21, 183, 166, 180, 139, 105, 165, 3, 1.82717
16, 3, wb, filler, NA, 999, 999, 7, 21, 183, 166, 180, 139, 105, 165, 1, 2.09774
16, 3, wb, filler, NA, 999, 999, 7, 22, 155, 190, 160, 118, 192, 127, 2, 2.62778
16, 3, wb, filler, NA, 999, 999, 7, 22, 155, 190, 160, 118, 192, 127, 1, 2.65632
16, 3, wb, attraction, a-b-db, 14, 3, 7, 23, 111, 181, 195, 120, 120, 195, 1, 3.20496
16, 3, wb, attraction, a-b-db, 14, 3, 7, 23, 111, 181, 195, 120, 120, 195, 3, 4.55452
16, 3, wb, filler, NA, 999, 999, 7, 24, 177, 131, 175, 69, 175, 120, 2, 2.36015
16, 3, wb, filler, NA, 999, 999, 7, 24, 177, 131, 175, 69, 175, 120, 1, 2.16126
16, 3, wb, catch, NA, 999, 999, 7, 25, 116, 79, 122, 193, 160, 95, 1, 2.20135
16, 3, wb, catch, NA, 999, 999, 7, 25, 116, 79, 122, 193, 160, 95, 2, 2.14351
16, 3, wb, attraction, a-b-db, 2, 2, 7, 26, 89, 163, 165, 90, 90, 165, 1, 2.15043
16, 3, wb, attraction, a-b-db, 2, 2, 7, 26, 89, 163, 165, 90, 90, 165, 2, 2.912
16, 3, wb, filler, NA, 999, 999, 7, 27, 56, 191, 122, 88, 187, 194, 1, 2.05647
16, 3, wb, filler, NA, 999, 999, 7, 27, 56, 191, 122, 88, 187, 194, 3, 1.59164
16, 3, wb, attraction, a-b-da, 14, 2, 7, 28, 165, 90, 90, 165, 153, 83, 3, 2.13996
16, 3, wb, attraction, a-b-da, 14, 2, 7, 28, 165, 90, 90, 165, 153, 83, 2, 3.78131
16, 3, wb, attraction, a-b-db, 5, 3, 7, 29, 120, 195, 195, 120, 117, 190, 3, 2.34017
16, 3, wb, attraction, a-b-db, 5, 3, 7, 29, 120, 195, 195, 120, 117, 190, 2, 3.02147
16, 3, wb, attraction, a-b-da, 9, 1, 7, 30, 129, 57, 60, 135, 135, 60, 3, 2.25791
16, 3, wb, attraction, a-b-da, 9, 1, 7, 30, 129, 57, 60, 135, 135, 60, 2, 2.60642
16, 3, wb, attraction, a-b-da, 14, 3, 7, 31, 181, 111, 195, 120, 120, 195, 1, 2.15288
16, 3, wb, attraction, a-b-da, 14, 3, 7, 31, 181, 111, 195, 120, 120, 195, 2, 4.4839
16, 3, wb, attraction, a-b-da, 14, 1, 7, 32, 135, 60, 60, 135, 125, 56, 3, 2.2775
16, 3, wb, attraction, a-b-da, 14, 1, 7, 32, 135, 60, 60, 135, 125, 56, 1, 3.15121
16, 3, wb, attraction, a-b-da, 9, 2, 7, 33, 90, 165, 157, 86, 165, 90, 1, 2.66415
16, 3, wb, attraction, a-b-da, 9, 2, 7, 33, 90, 165, 157, 86, 165, 90, 3, 2.3724
16, 3, wb, attraction, a-b-da, 2, 2, 7, 34, 165, 90, 163, 89, 90, 165, 1, 2.55341
16, 3, wb, attraction, a-b-da, 2, 2, 7, 34, 165, 90, 163, 89, 90, 165, 3, 2.71501
16, 3, wb, filler, NA, 999, 999, 7, 35, 127, 180, 76, 193, 148, 110, 2, 4.25939
16, 3, wb, filler, NA, 999, 999, 7, 35, 127, 180, 76, 193, 148, 110, 1, 3.02436
16, 3, wb, filler, NA, 999, 999, 7, 36, 179, 188, 131, 77, 138, 160, 2, 2.85844
16, 3, wb, filler, NA, 999, 999, 7, 36, 179, 188, 131, 77, 138, 160, 1, 3.03288
16, 3, wb, attraction, a-b-da, 5, 1, 7, 37, 135, 60, 60, 135, 132, 58, 2, 3.09278
16, 3, wb, attraction, a-b-da, 5, 1, 7, 37, 135, 60, 60, 135, 132, 58, 1, 2.05296
16, 3, wb, attraction, a-b-db, 9, 2, 8, 1, 165, 90, 86, 157, 90, 165, 2, 2.75452
16, 3, wb, attraction, a-b-db, 9, 2, 8, 1, 165, 90, 86, 157, 90, 165, 1, 2.97015
16, 3, wb, filler, NA, 999, 999, 8, 2, 73, 123, 120, 96, 71, 58, 3, 1.84003
16, 3, wb, filler, NA, 999, 999, 8, 2, 73, 123, 120, 96, 71, 58, 2, 2.27098
16, 3, wb, attraction, a-b-da, 9, 1, 8, 3, 129, 57, 60, 135, 135, 60, 2, 2.3998
16, 3, wb, attraction, a-b-da, 9, 1, 8, 3, 129, 57, 60, 135, 135, 60, 3, 1.89674
16, 3, wb, attraction, a-b-da, 5, 3, 8, 4, 120, 195, 195, 120, 190, 117, 1, 3.8029
16, 3, wb, attraction, a-b-da, 5, 3, 8, 4, 120, 195, 195, 120, 190, 117, 2, 2.04793
16, 3, wb, attraction, a-b-db, 2, 1, 8, 5, 60, 135, 59, 134, 135, 60, 3, 3.51644
16, 3, wb, attraction, a-b-db, 2, 1, 8, 5, 60, 135, 59, 134, 135, 60, 2, 2.27608
16, 3, wb, attraction, a-b-da, 2, 1, 8, 6, 134, 59, 60, 135, 135, 60, 3, 2.68862
16, 3, wb, attraction, a-b-da, 2, 1, 8, 6, 134, 59, 60, 135, 135, 60, 1, 2.6355
16, 3, wb, attraction, a-b-da, 5, 1, 8, 7, 132, 58, 135, 60, 60, 135, 1, 2.52771
16, 3, wb, attraction, a-b-da, 5, 1, 8, 7, 132, 58, 135, 60, 60, 135, 3, 3.51146
16, 3, wb, filler, NA, 999, 999, 8, 8, 62, 102, 171, 112, 100, 141, 1, 1.66429
16, 3, wb, filler, NA, 999, 999, 8, 8, 62, 102, 171, 112, 100, 141, 2, 3.94899
16, 3, wb, attraction, a-b-db, 9, 3, 8, 9, 195, 120, 120, 195, 114, 186, 3, 2.41983
16, 3, wb, attraction, a-b-db, 9, 3, 8, 9, 195, 120, 120, 195, 114, 186, 2, 1.62613
16, 3, wb, filler, NA, 999, 999, 8, 10, 148, 67, 113, 141, 140, 162, 1, 2.05682
16, 3, wb, filler, NA, 999, 999, 8, 10, 148, 67, 113, 141, 140, 162, 3, 1.77125
16, 3, wb, attraction, a-b-da, 2, 2, 8, 11, 90, 165, 165, 90, 163, 89, 1, 2.23445
16, 3, wb, attraction, a-b-da, 2, 2, 8, 11, 90, 165, 165, 90, 163, 89, 2, 1.84642
16, 3, wb, attraction, a-b-da, 14, 3, 8, 12, 120, 195, 181, 111, 195, 120, 2, 2.71526
16, 3, wb, attraction, a-b-da, 14, 3, 8, 12, 120, 195, 181, 111, 195, 120, 3, 2.00584
16, 3, wb, attraction, a-b-db, 5, 3, 8, 13, 120, 195, 117, 190, 195, 120, 2, 2.28916
16, 3, wb, attraction, a-b-db, 5, 3, 8, 13, 120, 195, 117, 190, 195, 120, 3, 1.63764
16, 3, wb, attraction, a-b-da, 2, 3, 8, 14, 120, 195, 195, 120, 193, 119, 1, 2.54705
16, 3, wb, attraction, a-b-da, 2, 3, 8, 14, 120, 195, 195, 120, 193, 119, 2, 1.69087
16, 3, wb, attraction, a-b-da, 14, 1, 8, 15, 60, 135, 135, 60, 125, 56, 3, 2.22136
16, 3, wb, attraction, a-b-da, 14, 1, 8, 15, 60, 135, 135, 60, 125, 56, 1, 2.23294
16, 3, wb, attraction, a-b-da, 9, 3, 8, 16, 186, 114, 120, 195, 195, 120, 1, 5.07162
16, 3, wb, attraction, a-b-da, 9, 3, 8, 16, 186, 114, 120, 195, 195, 120, 3, 3.16171
16, 3, wb, attraction, a-b-da, 14, 2, 8, 17, 153, 83, 165, 90, 90, 165, 1, 2.4962
16, 3, wb, attraction, a-b-da, 14, 2, 8, 17, 153, 83, 165, 90, 90, 165, 3, 3.13006
16, 3, wb, attraction, a-b-da, 9, 2, 8, 18, 157, 86, 90, 165, 165, 90, 1, 2.53921
16, 3, wb, attraction, a-b-da, 9, 2, 8, 18, 157, 86, 90, 165, 165, 90, 3, 2.36437
16, 3, wb, attraction, a-b-db, 9, 1, 8, 19, 57, 129, 60, 135, 135, 60, 1, 2.64334
16, 3, wb, attraction, a-b-db, 9, 1, 8, 19, 57, 129, 60, 135, 135, 60, 2, 2.79957
16, 3, wb, filler, NA, 999, 999, 8, 20, 134, 173, 59, 75, 137, 99, 2, 2.28782
16, 3, wb, filler, NA, 999, 999, 8, 20, 134, 173, 59, 75, 137, 99, 1, 1.9358
16, 3, wb, filler, NA, 999, 999, 8, 21, 57, 76, 90, 156, 91, 153, 1, 2.67389
16, 3, wb, filler, NA, 999, 999, 8, 21, 57, 76, 90, 156, 91, 153, 2, 2.05998
16, 3, wb, attraction, a-b-db, 14, 2, 8, 22, 90, 165, 165, 90, 83, 153, 3, 8.33562
16, 3, wb, attraction, a-b-db, 14, 2, 8, 22, 90, 165, 165, 90, 83, 153, 2, 2.65338
16, 3, wb, catch, NA, 999, 999, 8, 23, 80, 115, 153, 162, 101, 154, 1, 2.8726
16, 3, wb, catch, NA, 999, 999, 8, 23, 80, 115, 153, 162, 101, 154, 2, 1.75793
16, 3, wb, attraction, a-b-db, 2, 2, 8, 24, 165, 90, 89, 163, 90, 165, 3, 2.10182
16, 3, wb, attraction, a-b-db, 2, 2, 8, 24, 165, 90, 89, 163, 90, 165, 2, 2.19135
16, 3, wb, catch, NA, 999, 999, 8, 25, 130, 185, 101, 94, 97, 158, 2, 2.11744
16, 3, wb, catch, NA, 999, 999, 8, 25, 130, 185, 101, 94, 97, 158, 1, 1.70474
16, 3, wb, attraction, a-b-db, 5, 2, 8, 26, 88, 161, 90, 165, 165, 90, 1, 1.84102
16, 3, wb, attraction, a-b-db, 5, 2, 8, 26, 88, 161, 90, 165, 165, 90, 2, 2.0298
16, 3, wb, filler, NA, 999, 999, 8, 27, 82, 95, 127, 57, 133, 86, 2, 2.84315
16, 3, wb, filler, NA, 999, 999, 8, 27, 82, 95, 127, 57, 133, 86, 3, 2.0321
16, 3, wb, filler, NA, 999, 999, 8, 28, 126, 136, 194, 99, 161, 112, 1, 3.51747
16, 3, wb, filler, NA, 999, 999, 8, 28, 126, 136, 194, 99, 161, 112, 2, 2.53396
16, 3, wb, attraction, a-b-db, 5, 1, 8, 29, 58, 132, 135, 60, 60, 135, 1, 3.46195
16, 3, wb, attraction, a-b-db, 5, 1, 8, 29, 58, 132, 135, 60, 60, 135, 2, 1.80835
16, 3, wb, filler, NA, 999, 999, 8, 30, 147, 161, 124, 164, 187, 128, 2, 4.24812
16, 3, wb, filler, NA, 999, 999, 8, 30, 147, 161, 124, 164, 187, 128, 3, 3.491
16, 3, wb, attraction, a-b-da, 5, 2, 8, 31, 161, 88, 90, 165, 165, 90, 3, 2.53211
16, 3, wb, attraction, a-b-da, 5, 2, 8, 31, 161, 88, 90, 165, 165, 90, 2, 1.75904
16, 3, wb, filler, NA, 999, 999, 8, 32, 195, 104, 141, 159, 131, 144, 3, 2.32647
16, 3, wb, filler, NA, 999, 999, 8, 32, 195, 104, 141, 159, 131, 144, 1, 4.07089
16, 3, wb, catch, NA, 999, 999, 8, 33, 111, 144, 189, 126, 86, 109, 3, 1.9629
16, 3, wb, catch, NA, 999, 999, 8, 33, 111, 144, 189, 126, 86, 109, 2, 1.90802
16, 3, wb, attraction, a-b-db, 14, 1, 8, 34, 135, 60, 60, 135, 56, 125, 3, 2.02613
16, 3, wb, attraction, a-b-db, 14, 1, 8, 34, 135, 60, 60, 135, 56, 125, 2, 2.0872
16, 3, wb, attraction, a-b-db, 14, 3, 8, 35, 111, 181, 195, 120, 120, 195, 1, 2.27349
16, 3, wb, attraction, a-b-db, 14, 3, 8, 35, 111, 181, 195, 120, 120, 195, 3, 2.19236
16, 3, wb, filler, NA, 999, 999, 8, 36, 155, 115, 165, 150, 159, 168, 1, 1.67608
16, 3, wb, filler, NA, 999, 999, 8, 36, 155, 115, 165, 150, 159, 168, 3, 2.47404
16, 3, wb, attraction, a-b-db, 2, 3, 8, 37, 119, 193, 195, 120, 120, 195, 1, 1.8924
16, 3, wb, attraction, a-b-db, 2, 3, 8, 37, 119, 193, 195, 120, 120, 195, 3, 2.05684
