sub_n, computer_n, bw_cond, effect, set, distance, diag, block_n, trial_n, h1, w1, h2, w2, h3, w3, choice, rt 
184, 3, wb, practice, NA, 999, 999, 0, 1, 115, 135, 110, 114, 135, 163, 2, 3.51392
184, 3, wb, practice, NA, 999, 999, 0, 1, 115, 135, 110, 114, 135, 163, 3, 9.52918
184, 3, wb, practice, NA, 999, 999, 0, 2, 126, 138, 87, 95, 99, 57, 3, 2.59565
184, 3, wb, practice, NA, 999, 999, 0, 2, 126, 138, 87, 95, 99, 57, 1, 1.80972
184, 3, wb, practice, NA, 999, 999, 0, 3, 132, 77, 56, 56, 82, 126, 2, 1.49266
184, 3, wb, practice, NA, 999, 999, 0, 3, 132, 77, 56, 56, 82, 126, 1, 4.75241
184, 3, wb, attraction, a-b-db, 5, 3, 1, 1, 117, 190, 195, 120, 120, 195, 1, 10.0245
184, 3, wb, attraction, a-b-db, 5, 3, 1, 1, 117, 190, 195, 120, 120, 195, 2, 4.86733
184, 3, wb, attraction, a-b-db, 9, 2, 1, 2, 86, 157, 165, 90, 90, 165, 1, 2.74111
184, 3, wb, attraction, a-b-db, 9, 2, 1, 2, 86, 157, 165, 90, 90, 165, 3, 6.68546
184, 3, wb, filler, NA, 999, 999, 1, 3, 84, 88, 56, 195, 174, 56, 1, 2.59806
184, 3, wb, filler, NA, 999, 999, 1, 3, 84, 88, 56, 195, 174, 56, 2, 0.628538
184, 3, wb, attraction, a-b-db, 2, 2, 1, 4, 165, 90, 90, 165, 89, 163, 2, 5.20094
184, 3, wb, attraction, a-b-db, 2, 2, 1, 4, 165, 90, 90, 165, 89, 163, 1, 1.71862
184, 3, wb, attraction, a-b-db, 9, 3, 1, 5, 114, 186, 120, 195, 195, 120, 1, 5.7674
184, 3, wb, attraction, a-b-db, 9, 3, 1, 5, 114, 186, 120, 195, 195, 120, 2, 1.41411
184, 3, wb, attraction, a-b-da, 9, 3, 1, 6, 195, 120, 186, 114, 120, 195, 3, 1.835
184, 3, wb, attraction, a-b-da, 9, 3, 1, 6, 195, 120, 186, 114, 120, 195, 1, 0.664357
184, 3, wb, filler, NA, 999, 999, 1, 7, 147, 177, 134, 179, 155, 124, 3, 1.99553
184, 3, wb, filler, NA, 999, 999, 1, 7, 147, 177, 134, 179, 155, 124, 1, 0.874175
184, 3, wb, attraction, a-b-da, 2, 3, 1, 8, 120, 195, 195, 120, 193, 119, 1, 14.9084
184, 3, wb, attraction, a-b-da, 2, 3, 1, 8, 120, 195, 195, 120, 193, 119, 2, 0.571079
184, 3, wb, attraction, a-b-db, 2, 1, 1, 9, 59, 134, 135, 60, 60, 135, 1, 1.95419
184, 3, wb, attraction, a-b-db, 2, 1, 1, 9, 59, 134, 135, 60, 60, 135, 3, 1.57894
184, 3, wb, attraction, a-b-db, 5, 1, 1, 10, 60, 135, 135, 60, 58, 132, 2, 1.77708
184, 3, wb, attraction, a-b-db, 5, 1, 1, 10, 60, 135, 135, 60, 58, 132, 1, 2.78454
184, 3, wb, attraction, a-b-da, 14, 2, 1, 11, 165, 90, 90, 165, 153, 83, 3, 1.48624
184, 3, wb, attraction, a-b-da, 14, 2, 1, 11, 165, 90, 90, 165, 153, 83, 1, 1.16185
184, 3, wb, attraction, a-b-db, 2, 3, 1, 12, 195, 120, 119, 193, 120, 195, 1, 1.64854
184, 3, wb, attraction, a-b-db, 2, 3, 1, 12, 195, 120, 119, 193, 120, 195, 2, 1.00533
184, 3, wb, filler, NA, 999, 999, 1, 13, 172, 78, 96, 190, 58, 148, 3, 1.10704
184, 3, wb, filler, NA, 999, 999, 1, 13, 172, 78, 96, 190, 58, 148, 2, 1.09327
184, 3, wb, filler, NA, 999, 999, 1, 14, 195, 125, 158, 154, 189, 169, 2, 6.32701
184, 3, wb, filler, NA, 999, 999, 1, 14, 195, 125, 158, 154, 189, 169, 3, 1.64703
184, 3, wb, attraction, a-b-da, 5, 1, 1, 15, 135, 60, 60, 135, 132, 58, 1, 1.96248
184, 3, wb, attraction, a-b-da, 5, 1, 1, 15, 135, 60, 60, 135, 132, 58, 3, 0.770455
184, 3, wb, attraction, a-b-da, 2, 1, 1, 16, 135, 60, 60, 135, 134, 59, 2, 1.04151
184, 3, wb, attraction, a-b-da, 2, 1, 1, 16, 135, 60, 60, 135, 134, 59, 3, 2.85438
184, 3, wb, catch, NA, 999, 999, 1, 17, 128, 67, 148, 107, 174, 141, 1, 0.905365
184, 3, wb, catch, NA, 999, 999, 1, 17, 128, 67, 148, 107, 174, 141, 3, 0.739921
184, 3, wb, attraction, a-b-db, 14, 1, 1, 18, 60, 135, 56, 125, 135, 60, 3, 1.34818
184, 3, wb, attraction, a-b-db, 14, 1, 1, 18, 60, 135, 56, 125, 135, 60, 1, 1.14115
184, 3, wb, filler, NA, 999, 999, 1, 19, 125, 127, 193, 189, 184, 105, 1, 1.38066
184, 3, wb, filler, NA, 999, 999, 1, 19, 125, 127, 193, 189, 184, 105, 2, 0.356176
184, 3, wb, attraction, a-b-db, 9, 1, 1, 20, 60, 135, 135, 60, 57, 129, 2, 2.68408
184, 3, wb, attraction, a-b-db, 9, 1, 1, 20, 60, 135, 135, 60, 57, 129, 1, 0.639396
184, 3, wb, filler, NA, 999, 999, 1, 21, 190, 100, 145, 160, 62, 89, 3, 1.07552
184, 3, wb, filler, NA, 999, 999, 1, 21, 190, 100, 145, 160, 62, 89, 2, 0.719188
184, 3, wb, catch, NA, 999, 999, 1, 22, 188, 127, 90, 105, 102, 153, 2, 1.67233
184, 3, wb, catch, NA, 999, 999, 1, 22, 188, 127, 90, 105, 102, 153, 1, 0.57167
184, 3, wb, filler, NA, 999, 999, 1, 23, 141, 112, 125, 75, 98, 109, 2, 2.47476
184, 3, wb, filler, NA, 999, 999, 1, 23, 141, 112, 125, 75, 98, 109, 1, 2.23008
184, 3, wb, attraction, a-b-db, 5, 2, 1, 24, 88, 161, 165, 90, 90, 165, 1, 4.34597
184, 3, wb, attraction, a-b-db, 5, 2, 1, 24, 88, 161, 165, 90, 90, 165, 3, 0.809835
184, 3, wb, filler, NA, 999, 999, 1, 25, 98, 58, 99, 99, 56, 116, 1, 1.84704
184, 3, wb, filler, NA, 999, 999, 1, 25, 98, 58, 99, 99, 56, 116, 2, 1.03564
184, 3, wb, filler, NA, 999, 999, 1, 26, 175, 169, 149, 114, 59, 142, 3, 1.60798
184, 3, wb, filler, NA, 999, 999, 1, 26, 175, 169, 149, 114, 59, 142, 1, 0.790053
184, 3, wb, filler, NA, 999, 999, 1, 27, 150, 65, 85, 141, 158, 85, 1, 2.16408
184, 3, wb, filler, NA, 999, 999, 1, 27, 150, 65, 85, 141, 158, 85, 3, 1.29182
184, 3, wb, attraction, a-b-da, 9, 2, 1, 28, 165, 90, 90, 165, 157, 86, 3, 7.49328
184, 3, wb, attraction, a-b-da, 9, 2, 1, 28, 165, 90, 90, 165, 157, 86, 1, 0.734259
184, 3, wb, attraction, a-b-db, 14, 2, 1, 29, 165, 90, 83, 153, 90, 165, 2, 12.7648
184, 3, wb, attraction, a-b-db, 14, 2, 1, 29, 165, 90, 83, 153, 90, 165, 1, 2.13919
184, 3, wb, attraction, a-b-da, 5, 2, 1, 30, 161, 88, 90, 165, 165, 90, 1, 2.30708
184, 3, wb, attraction, a-b-da, 5, 2, 1, 30, 161, 88, 90, 165, 165, 90, 2, 1.22904
184, 3, wb, attraction, a-b-da, 5, 3, 1, 31, 120, 195, 195, 120, 190, 117, 3, 1.25724
184, 3, wb, attraction, a-b-da, 5, 3, 1, 31, 120, 195, 195, 120, 190, 117, 1, 1.06151
184, 3, wb, attraction, a-b-db, 14, 3, 1, 32, 195, 120, 120, 195, 111, 181, 3, 1.52047
184, 3, wb, attraction, a-b-db, 14, 3, 1, 32, 195, 120, 120, 195, 111, 181, 1, 0.56269
184, 3, wb, attraction, a-b-da, 9, 1, 1, 33, 129, 57, 135, 60, 60, 135, 1, 0.953794
184, 3, wb, attraction, a-b-da, 9, 1, 1, 33, 129, 57, 135, 60, 60, 135, 3, 0.834241
184, 3, wb, attraction, a-b-da, 2, 2, 1, 34, 90, 165, 163, 89, 165, 90, 3, 1.25438
184, 3, wb, attraction, a-b-da, 2, 2, 1, 34, 90, 165, 163, 89, 165, 90, 1, 0.82745
184, 3, wb, attraction, a-b-da, 14, 1, 1, 35, 125, 56, 135, 60, 60, 135, 1, 0.967799
184, 3, wb, attraction, a-b-da, 14, 1, 1, 35, 125, 56, 135, 60, 60, 135, 2, 1.56007
184, 3, wb, attraction, a-b-da, 14, 3, 1, 36, 120, 195, 181, 111, 195, 120, 3, 1.36691
184, 3, wb, attraction, a-b-da, 14, 3, 1, 36, 120, 195, 181, 111, 195, 120, 1, 0.48713
184, 3, wb, catch, NA, 999, 999, 1, 37, 139, 176, 86, 109, 151, 104, 2, 1.29756
184, 3, wb, catch, NA, 999, 999, 1, 37, 139, 176, 86, 109, 151, 104, 1, 0.572491
184, 3, wb, attraction, a-b-da, 14, 1, 2, 1, 125, 56, 135, 60, 60, 135, 1, 1.33946
184, 3, wb, attraction, a-b-da, 14, 1, 2, 1, 125, 56, 135, 60, 60, 135, 3, 0.58053
184, 3, wb, attraction, a-b-db, 14, 1, 2, 2, 60, 135, 56, 125, 135, 60, 3, 0.802874
184, 3, wb, attraction, a-b-db, 14, 1, 2, 2, 60, 135, 56, 125, 135, 60, 1, 0.641983
184, 3, wb, attraction, a-b-db, 9, 3, 2, 3, 120, 195, 195, 120, 114, 186, 2, 1.23753
184, 3, wb, attraction, a-b-db, 9, 3, 2, 3, 120, 195, 195, 120, 114, 186, 1, 0.56316
184, 3, wb, attraction, a-b-db, 2, 2, 2, 4, 165, 90, 90, 165, 89, 163, 1, 1.05042
184, 3, wb, attraction, a-b-db, 2, 2, 2, 4, 165, 90, 90, 165, 89, 163, 3, 1.07132
184, 3, wb, attraction, a-b-db, 2, 3, 2, 5, 119, 193, 120, 195, 195, 120, 3, 2.96224
184, 3, wb, attraction, a-b-db, 2, 3, 2, 5, 119, 193, 120, 195, 195, 120, 1, 0.577936
184, 3, wb, attraction, a-b-da, 5, 2, 2, 6, 161, 88, 90, 165, 165, 90, 1, 2.05639
184, 3, wb, attraction, a-b-da, 5, 2, 2, 6, 161, 88, 90, 165, 165, 90, 2, 0.644387
184, 3, wb, attraction, a-b-db, 2, 1, 2, 7, 59, 134, 135, 60, 60, 135, 2, 0.888167
184, 3, wb, attraction, a-b-db, 2, 1, 2, 7, 59, 134, 135, 60, 60, 135, 3, 2.1552
184, 3, wb, attraction, a-b-da, 2, 1, 2, 8, 60, 135, 135, 60, 134, 59, 3, 3.59442
184, 3, wb, attraction, a-b-da, 2, 1, 2, 8, 60, 135, 135, 60, 134, 59, 1, 1.98473
184, 3, wb, filler, NA, 999, 999, 2, 9, 139, 175, 171, 70, 157, 100, 2, 1.41463
184, 3, wb, filler, NA, 999, 999, 2, 9, 139, 175, 171, 70, 157, 100, 1, 0.556781
184, 3, wb, attraction, a-b-db, 9, 2, 2, 10, 165, 90, 86, 157, 90, 165, 2, 2.93986
184, 3, wb, attraction, a-b-db, 9, 2, 2, 10, 165, 90, 86, 157, 90, 165, 1, 0.780201
184, 3, wb, filler, NA, 999, 999, 2, 11, 169, 178, 193, 68, 78, 135, 3, 2.33867
184, 3, wb, filler, NA, 999, 999, 2, 11, 169, 178, 193, 68, 78, 135, 1, 1.33921
184, 3, wb, filler, NA, 999, 999, 2, 12, 194, 103, 194, 58, 135, 130, 2, 11.5953
184, 3, wb, filler, NA, 999, 999, 2, 12, 194, 103, 194, 58, 135, 130, 1, 9.98323
184, 3, wb, catch, NA, 999, 999, 2, 13, 144, 111, 147, 168, 127, 68, 3, 1.38666
184, 3, wb, catch, NA, 999, 999, 2, 13, 144, 111, 147, 168, 127, 68, 2, 1.09808
184, 3, wb, filler, NA, 999, 999, 2, 14, 89, 156, 119, 157, 187, 101, 1, 3.96376
184, 3, wb, filler, NA, 999, 999, 2, 14, 89, 156, 119, 157, 187, 101, 3, 1.37112
184, 3, wb, attraction, a-b-da, 9, 1, 2, 15, 129, 57, 135, 60, 60, 135, 1, 4.21786
184, 3, wb, attraction, a-b-da, 9, 1, 2, 15, 129, 57, 135, 60, 60, 135, 3, 3.71124
184, 3, wb, catch, NA, 999, 999, 2, 16, 173, 142, 121, 134, 95, 100, 3, 0.839333
184, 3, wb, catch, NA, 999, 999, 2, 16, 173, 142, 121, 134, 95, 100, 1, 0.828497
184, 3, wb, attraction, a-b-db, 9, 1, 2, 17, 57, 129, 135, 60, 60, 135, 1, 2.12883
184, 3, wb, attraction, a-b-db, 9, 1, 2, 17, 57, 129, 135, 60, 60, 135, 3, 0.650038
184, 3, wb, attraction, a-b-da, 9, 3, 2, 18, 186, 114, 195, 120, 120, 195, 1, 2.61393
184, 3, wb, attraction, a-b-da, 9, 3, 2, 18, 186, 114, 195, 120, 120, 195, 3, 0.667706
184, 3, wb, filler, NA, 999, 999, 2, 19, 156, 140, 110, 138, 58, 82, 3, 1.17476
184, 3, wb, filler, NA, 999, 999, 2, 19, 156, 140, 110, 138, 58, 82, 1, 1.42226
184, 3, wb, attraction, a-b-db, 14, 2, 2, 20, 90, 165, 83, 153, 165, 90, 2, 1.77909
184, 3, wb, attraction, a-b-db, 14, 2, 2, 20, 90, 165, 83, 153, 165, 90, 3, 1.21055
184, 3, wb, attraction, a-b-db, 5, 3, 2, 21, 195, 120, 120, 195, 117, 190, 3, 16.2795
184, 3, wb, attraction, a-b-db, 5, 3, 2, 21, 195, 120, 120, 195, 117, 190, 1, 2.55035
184, 3, wb, filler, NA, 999, 999, 2, 22, 164, 165, 77, 106, 118, 172, 2, 0.84539
184, 3, wb, filler, NA, 999, 999, 2, 22, 164, 165, 77, 106, 118, 172, 1, 1.01064
184, 3, wb, filler, NA, 999, 999, 2, 23, 62, 67, 127, 188, 173, 179, 1, 0.799596
184, 3, wb, filler, NA, 999, 999, 2, 23, 62, 67, 127, 188, 173, 179, 3, 0.934636
184, 3, wb, attraction, a-b-da, 14, 3, 2, 24, 120, 195, 181, 111, 195, 120, 3, 2.2308
184, 3, wb, attraction, a-b-da, 14, 3, 2, 24, 120, 195, 181, 111, 195, 120, 1, 2.1482
184, 3, wb, filler, NA, 999, 999, 2, 25, 67, 105, 89, 97, 72, 156, 1, 2.7555
184, 3, wb, filler, NA, 999, 999, 2, 25, 67, 105, 89, 97, 72, 156, 3, 1.31529
184, 3, wb, filler, NA, 999, 999, 2, 26, 138, 176, 132, 71, 108, 171, 2, 1.26802
184, 3, wb, filler, NA, 999, 999, 2, 26, 138, 176, 132, 71, 108, 171, 1, 0.600411
184, 3, wb, attraction, a-b-db, 5, 1, 2, 27, 60, 135, 58, 132, 135, 60, 2, 1.59816
184, 3, wb, attraction, a-b-db, 5, 1, 2, 27, 60, 135, 58, 132, 135, 60, 1, 1.42886
184, 3, wb, attraction, a-b-da, 2, 3, 2, 28, 193, 119, 120, 195, 195, 120, 2, 3.24904
184, 3, wb, attraction, a-b-da, 2, 3, 2, 28, 193, 119, 120, 195, 195, 120, 3, 1.3094
184, 3, wb, attraction, a-b-da, 5, 3, 2, 29, 190, 117, 120, 195, 195, 120, 2, 4.19029
184, 3, wb, attraction, a-b-da, 5, 3, 2, 29, 190, 117, 120, 195, 195, 120, 3, 0.692275
184, 3, wb, attraction, a-b-da, 9, 2, 2, 30, 157, 86, 90, 165, 165, 90, 2, 0.861898
184, 3, wb, attraction, a-b-da, 9, 2, 2, 30, 157, 86, 90, 165, 165, 90, 1, 1.29023
184, 3, wb, catch, NA, 999, 999, 2, 31, 139, 116, 76, 119, 135, 180, 2, 1.69174
184, 3, wb, catch, NA, 999, 999, 2, 31, 139, 116, 76, 119, 135, 180, 3, 0.766601
184, 3, wb, attraction, a-b-da, 5, 1, 2, 32, 135, 60, 60, 135, 132, 58, 3, 3.26342
184, 3, wb, attraction, a-b-da, 5, 1, 2, 32, 135, 60, 60, 135, 132, 58, 2, 2.2493
184, 3, wb, attraction, a-b-da, 2, 2, 2, 33, 90, 165, 163, 89, 165, 90, 3, 1.39649
184, 3, wb, attraction, a-b-da, 2, 2, 2, 33, 90, 165, 163, 89, 165, 90, 1, 0.811412
184, 3, wb, filler, NA, 999, 999, 2, 34, 119, 125, 160, 70, 113, 72, 3, 2.16836
184, 3, wb, filler, NA, 999, 999, 2, 34, 119, 125, 160, 70, 113, 72, 1, 1.0163
184, 3, wb, attraction, a-b-db, 5, 2, 2, 35, 165, 90, 90, 165, 88, 161, 1, 2.13332
184, 3, wb, attraction, a-b-db, 5, 2, 2, 35, 165, 90, 90, 165, 88, 161, 3, 0.478625
184, 3, wb, attraction, a-b-da, 14, 2, 2, 36, 165, 90, 90, 165, 153, 83, 3, 1.48906
184, 3, wb, attraction, a-b-da, 14, 2, 2, 36, 165, 90, 90, 165, 153, 83, 1, 0.827861
184, 3, wb, attraction, a-b-db, 14, 3, 2, 37, 195, 120, 111, 181, 120, 195, 2, 0.904153
184, 3, wb, attraction, a-b-db, 14, 3, 2, 37, 195, 120, 111, 181, 120, 195, 3, 1.15464
184, 3, wb, filler, NA, 999, 999, 3, 1, 156, 184, 172, 167, 56, 145, 3, 0.882123
184, 3, wb, filler, NA, 999, 999, 3, 1, 156, 184, 172, 167, 56, 145, 1, 0.645912
184, 3, wb, filler, NA, 999, 999, 3, 2, 110, 102, 177, 59, 188, 95, 2, 0.889535
184, 3, wb, filler, NA, 999, 999, 3, 2, 110, 102, 177, 59, 188, 95, 3, 2.08471
184, 3, wb, filler, NA, 999, 999, 3, 3, 129, 87, 104, 179, 104, 170, 1, 0.846692
184, 3, wb, filler, NA, 999, 999, 3, 3, 129, 87, 104, 179, 104, 170, 2, 1.23578
184, 3, wb, attraction, a-b-da, 2, 1, 3, 4, 134, 59, 60, 135, 135, 60, 2, 3.67185
184, 3, wb, attraction, a-b-da, 2, 1, 3, 4, 134, 59, 60, 135, 135, 60, 1, 0.419428
184, 3, wb, attraction, a-b-da, 9, 3, 3, 5, 186, 114, 120, 195, 195, 120, 1, 2.28051
184, 3, wb, attraction, a-b-da, 9, 3, 3, 5, 186, 114, 120, 195, 195, 120, 3, 0.883832
184, 3, wb, filler, NA, 999, 999, 3, 6, 112, 146, 78, 177, 66, 148, 3, 1.61412
184, 3, wb, filler, NA, 999, 999, 3, 6, 112, 146, 78, 177, 66, 148, 1, 0.492149
184, 3, wb, attraction, a-b-da, 5, 3, 3, 7, 195, 120, 120, 195, 190, 117, 1, 1.47807
184, 3, wb, attraction, a-b-da, 5, 3, 3, 7, 195, 120, 120, 195, 190, 117, 2, 0.513606
184, 3, wb, attraction, a-b-da, 14, 2, 3, 8, 90, 165, 153, 83, 165, 90, 2, 1.50689
184, 3, wb, attraction, a-b-da, 14, 2, 3, 8, 90, 165, 153, 83, 165, 90, 1, 0.340918
184, 3, wb, filler, NA, 999, 999, 3, 9, 162, 165, 120, 157, 99, 164, 3, 1.58865
184, 3, wb, filler, NA, 999, 999, 3, 9, 162, 165, 120, 157, 99, 164, 1, 0.691592
184, 3, wb, attraction, a-b-da, 9, 2, 3, 10, 165, 90, 90, 165, 157, 86, 1, 1.27721
184, 3, wb, attraction, a-b-da, 9, 2, 3, 10, 165, 90, 90, 165, 157, 86, 2, 0.512711
184, 3, wb, attraction, a-b-db, 2, 3, 3, 11, 120, 195, 195, 120, 119, 193, 2, 1.47394
184, 3, wb, attraction, a-b-db, 2, 3, 3, 11, 120, 195, 195, 120, 119, 193, 1, 0.885385
184, 3, wb, attraction, a-b-da, 14, 1, 3, 12, 135, 60, 125, 56, 60, 135, 2, 6.95969
184, 3, wb, attraction, a-b-da, 14, 1, 3, 12, 135, 60, 125, 56, 60, 135, 1, 0.438181
184, 3, wb, filler, NA, 999, 999, 3, 13, 93, 159, 107, 84, 124, 84, 3, 1.69065
184, 3, wb, filler, NA, 999, 999, 3, 13, 93, 159, 107, 84, 124, 84, 1, 2.16551
184, 3, wb, filler, NA, 999, 999, 3, 14, 79, 104, 161, 60, 169, 141, 2, 0.947981
184, 3, wb, filler, NA, 999, 999, 3, 14, 79, 104, 161, 60, 169, 141, 3, 0.581043
184, 3, wb, attraction, a-b-db, 14, 2, 3, 15, 83, 153, 165, 90, 90, 165, 1, 2.04366
184, 3, wb, attraction, a-b-db, 14, 2, 3, 15, 83, 153, 165, 90, 90, 165, 3, 0.888277
184, 3, wb, catch, NA, 999, 999, 3, 16, 102, 93, 179, 136, 159, 96, 1, 1.85042
184, 3, wb, catch, NA, 999, 999, 3, 16, 102, 93, 179, 136, 159, 96, 2, 0.54324
184, 3, wb, attraction, a-b-db, 2, 2, 3, 17, 89, 163, 90, 165, 165, 90, 3, 2.711
184, 3, wb, attraction, a-b-db, 2, 2, 3, 17, 89, 163, 90, 165, 165, 90, 2, 0.696663
184, 3, wb, attraction, a-b-da, 5, 2, 3, 18, 165, 90, 161, 88, 90, 165, 2, 1.35453
184, 3, wb, attraction, a-b-da, 5, 2, 3, 18, 165, 90, 161, 88, 90, 165, 1, 0.755313
184, 3, wb, filler, NA, 999, 999, 3, 19, 67, 71, 93, 188, 154, 79, 1, 1.08322
184, 3, wb, filler, NA, 999, 999, 3, 19, 67, 71, 93, 188, 154, 79, 2, 0.630745
184, 3, wb, filler, NA, 999, 999, 3, 20, 180, 100, 112, 144, 101, 144, 1, 0.931055
184, 3, wb, filler, NA, 999, 999, 3, 20, 180, 100, 112, 144, 101, 144, 2, 3.33292
184, 3, wb, attraction, a-b-db, 5, 2, 3, 21, 88, 161, 90, 165, 165, 90, 1, 2.84437
184, 3, wb, attraction, a-b-db, 5, 2, 3, 21, 88, 161, 90, 165, 165, 90, 2, 0.352894
184, 3, wb, filler, NA, 999, 999, 3, 22, 190, 162, 131, 87, 136, 193, 2, 1.31264
184, 3, wb, filler, NA, 999, 999, 3, 22, 190, 162, 131, 87, 136, 193, 1, 0.378956
184, 3, wb, attraction, a-b-db, 14, 1, 3, 23, 56, 125, 60, 135, 135, 60, 3, 0.993295
184, 3, wb, attraction, a-b-db, 14, 1, 3, 23, 56, 125, 60, 135, 135, 60, 2, 0.696351
184, 3, wb, attraction, a-b-db, 9, 2, 3, 24, 90, 165, 86, 157, 165, 90, 2, 1.10607
184, 3, wb, attraction, a-b-db, 9, 2, 3, 24, 90, 165, 86, 157, 165, 90, 1, 0.500309
184, 3, wb, catch, NA, 999, 999, 3, 25, 103, 92, 142, 113, 153, 162, 1, 5.31815
184, 3, wb, catch, NA, 999, 999, 3, 25, 103, 92, 142, 113, 153, 162, 3, 0.6071
184, 3, wb, attraction, a-b-db, 5, 1, 3, 26, 135, 60, 60, 135, 58, 132, 1, 1.30029
184, 3, wb, attraction, a-b-db, 5, 1, 3, 26, 135, 60, 60, 135, 58, 132, 3, 1.10314
184, 3, wb, attraction, a-b-db, 5, 3, 3, 27, 120, 195, 195, 120, 117, 190, 2, 2.15271
184, 3, wb, attraction, a-b-db, 5, 3, 3, 27, 120, 195, 195, 120, 117, 190, 3, 0.393359
184, 3, wb, attraction, a-b-da, 2, 2, 3, 28, 163, 89, 90, 165, 165, 90, 1, 0.94319
184, 3, wb, attraction, a-b-da, 2, 2, 3, 28, 163, 89, 90, 165, 165, 90, 2, 0.376274
184, 3, wb, attraction, a-b-da, 5, 1, 3, 29, 60, 135, 135, 60, 132, 58, 2, 1.25472
184, 3, wb, attraction, a-b-da, 5, 1, 3, 29, 60, 135, 135, 60, 132, 58, 3, 0.675574
184, 3, wb, attraction, a-b-db, 9, 3, 3, 30, 120, 195, 195, 120, 114, 186, 2, 1.75803
184, 3, wb, attraction, a-b-db, 9, 3, 3, 30, 120, 195, 195, 120, 114, 186, 3, 0.326013
184, 3, wb, catch, NA, 999, 999, 3, 31, 164, 151, 127, 128, 123, 72, 3, 1.11859
184, 3, wb, catch, NA, 999, 999, 3, 31, 164, 151, 127, 128, 123, 72, 1, 0.816778
184, 3, wb, attraction, a-b-da, 14, 3, 3, 32, 195, 120, 181, 111, 120, 195, 1, 1.22181
184, 3, wb, attraction, a-b-da, 14, 3, 3, 32, 195, 120, 181, 111, 120, 195, 3, 0.403427
184, 3, wb, attraction, a-b-da, 9, 1, 3, 33, 129, 57, 60, 135, 135, 60, 1, 1.22526
184, 3, wb, attraction, a-b-da, 9, 1, 3, 33, 129, 57, 60, 135, 135, 60, 2, 0.734816
184, 3, wb, attraction, a-b-db, 2, 1, 3, 34, 135, 60, 60, 135, 59, 134, 1, 1.16726
184, 3, wb, attraction, a-b-db, 2, 1, 3, 34, 135, 60, 60, 135, 59, 134, 2, 0.559455
184, 3, wb, attraction, a-b-db, 14, 3, 3, 35, 111, 181, 120, 195, 195, 120, 3, 0.894661
184, 3, wb, attraction, a-b-db, 14, 3, 3, 35, 111, 181, 120, 195, 195, 120, 1, 0.977702
184, 3, wb, attraction, a-b-db, 9, 1, 3, 36, 135, 60, 60, 135, 57, 129, 1, 2.04018
184, 3, wb, attraction, a-b-db, 9, 1, 3, 36, 135, 60, 60, 135, 57, 129, 3, 1.37253
184, 3, wb, attraction, a-b-da, 2, 3, 3, 37, 193, 119, 120, 195, 195, 120, 2, 1.83543
184, 3, wb, attraction, a-b-da, 2, 3, 3, 37, 193, 119, 120, 195, 195, 120, 1, 0.896916
184, 3, wb, attraction, a-b-da, 9, 3, 4, 1, 195, 120, 186, 114, 120, 195, 2, 3.62666
184, 3, wb, attraction, a-b-da, 9, 3, 4, 1, 195, 120, 186, 114, 120, 195, 1, 3.19942
184, 3, wb, attraction, a-b-db, 5, 2, 4, 2, 165, 90, 88, 161, 90, 165, 2, 1.47631
184, 3, wb, attraction, a-b-db, 5, 2, 4, 2, 165, 90, 88, 161, 90, 165, 3, 2.872
184, 3, wb, filler, NA, 999, 999, 4, 3, 92, 136, 105, 173, 174, 89, 1, 0.882125
184, 3, wb, filler, NA, 999, 999, 4, 3, 92, 136, 105, 173, 174, 89, 2, 0.50195
184, 3, wb, attraction, a-b-da, 5, 3, 4, 4, 190, 117, 120, 195, 195, 120, 1, 1.33569
184, 3, wb, attraction, a-b-da, 5, 3, 4, 4, 190, 117, 120, 195, 195, 120, 2, 0.865263
184, 3, wb, attraction, a-b-da, 14, 3, 4, 5, 120, 195, 181, 111, 195, 120, 2, 1.26027
184, 3, wb, attraction, a-b-da, 14, 3, 4, 5, 120, 195, 181, 111, 195, 120, 1, 0.376557
184, 3, wb, filler, NA, 999, 999, 4, 6, 181, 118, 93, 161, 132, 172, 2, 1.96692
184, 3, wb, filler, NA, 999, 999, 4, 6, 181, 118, 93, 161, 132, 172, 1, 2.11102
184, 3, wb, filler, NA, 999, 999, 4, 7, 98, 110, 113, 145, 110, 134, 1, 1.1516
184, 3, wb, filler, NA, 999, 999, 4, 7, 98, 110, 113, 145, 110, 134, 2, 1.37648
184, 3, wb, catch, NA, 999, 999, 4, 8, 110, 85, 152, 163, 120, 135, 1, 0.750712
184, 3, wb, catch, NA, 999, 999, 4, 8, 110, 85, 152, 163, 120, 135, 2, 0.599747
184, 3, wb, attraction, a-b-db, 2, 2, 4, 9, 90, 165, 165, 90, 89, 163, 2, 1.16557
184, 3, wb, attraction, a-b-db, 2, 2, 4, 9, 90, 165, 165, 90, 89, 163, 3, 1.58187
184, 3, wb, filler, NA, 999, 999, 4, 10, 103, 75, 129, 150, 64, 85, 1, 0.948047
184, 3, wb, filler, NA, 999, 999, 4, 10, 103, 75, 129, 150, 64, 85, 3, 0.565041
184, 3, wb, attraction, a-b-db, 2, 3, 4, 11, 120, 195, 195, 120, 119, 193, 1, 3.7722
184, 3, wb, attraction, a-b-db, 2, 3, 4, 11, 120, 195, 195, 120, 119, 193, 2, 0.347015
184, 3, wb, attraction, a-b-db, 9, 2, 4, 12, 90, 165, 165, 90, 86, 157, 2, 6.44282
184, 3, wb, attraction, a-b-db, 9, 2, 4, 12, 90, 165, 165, 90, 86, 157, 1, 0.429997
184, 3, wb, attraction, a-b-db, 14, 2, 4, 13, 90, 165, 165, 90, 83, 153, 2, 3.10642
184, 3, wb, attraction, a-b-db, 14, 2, 4, 13, 90, 165, 165, 90, 83, 153, 1, 1.0527
184, 3, wb, catch, NA, 999, 999, 4, 14, 157, 158, 123, 132, 115, 80, 3, 1.39176
184, 3, wb, catch, NA, 999, 999, 4, 14, 157, 158, 123, 132, 115, 80, 1, 0.750679
184, 3, wb, attraction, a-b-db, 14, 3, 4, 15, 195, 120, 120, 195, 111, 181, 1, 2.17434
184, 3, wb, attraction, a-b-db, 14, 3, 4, 15, 195, 120, 120, 195, 111, 181, 2, 0.389544
184, 3, wb, attraction, a-b-db, 2, 1, 4, 16, 60, 135, 135, 60, 59, 134, 2, 1.07607
184, 3, wb, attraction, a-b-db, 2, 1, 4, 16, 60, 135, 135, 60, 59, 134, 3, 1.23976
184, 3, wb, filler, NA, 999, 999, 4, 17, 129, 168, 163, 153, 120, 166, 3, 1.87601
184, 3, wb, filler, NA, 999, 999, 4, 17, 129, 168, 163, 153, 120, 166, 1, 0.559414
184, 3, wb, attraction, a-b-db, 14, 1, 4, 18, 56, 125, 60, 135, 135, 60, 1, 1.21451
184, 3, wb, attraction, a-b-db, 14, 1, 4, 18, 56, 125, 60, 135, 135, 60, 2, 0.732663
184, 3, wb, attraction, a-b-db, 9, 3, 4, 19, 195, 120, 114, 186, 120, 195, 2, 1.51705
184, 3, wb, attraction, a-b-db, 9, 3, 4, 19, 195, 120, 114, 186, 120, 195, 3, 0.327181
184, 3, wb, attraction, a-b-da, 14, 1, 4, 20, 60, 135, 135, 60, 125, 56, 2, 2.32787
184, 3, wb, attraction, a-b-da, 14, 1, 4, 20, 60, 135, 135, 60, 125, 56, 3, 1.11304
184, 3, wb, filler, NA, 999, 999, 4, 21, 73, 148, 105, 150, 83, 182, 1, 4.11396
184, 3, wb, filler, NA, 999, 999, 4, 21, 73, 148, 105, 150, 83, 182, 3, 1.45937
184, 3, wb, attraction, a-b-da, 9, 1, 4, 22, 129, 57, 60, 135, 135, 60, 1, 1.61404
184, 3, wb, attraction, a-b-da, 9, 1, 4, 22, 129, 57, 60, 135, 135, 60, 3, 2.15627
184, 3, wb, filler, NA, 999, 999, 4, 23, 164, 192, 92, 177, 114, 180, 2, 1.95555
184, 3, wb, filler, NA, 999, 999, 4, 23, 164, 192, 92, 177, 114, 180, 1, 0.515614
184, 3, wb, attraction, a-b-da, 5, 1, 4, 24, 132, 58, 60, 135, 135, 60, 1, 1.61282
184, 3, wb, attraction, a-b-da, 5, 1, 4, 24, 132, 58, 60, 135, 135, 60, 3, 0.586826
184, 3, wb, attraction, a-b-da, 5, 2, 4, 25, 165, 90, 161, 88, 90, 165, 1, 3.25735
184, 3, wb, attraction, a-b-da, 5, 2, 4, 25, 165, 90, 161, 88, 90, 165, 3, 1.14082
184, 3, wb, attraction, a-b-da, 9, 2, 4, 26, 157, 86, 165, 90, 90, 165, 1, 1.01258
184, 3, wb, attraction, a-b-da, 9, 2, 4, 26, 157, 86, 165, 90, 90, 165, 2, 0.738869
184, 3, wb, attraction, a-b-da, 2, 3, 4, 27, 193, 119, 120, 195, 195, 120, 1, 0.987115
184, 3, wb, attraction, a-b-da, 2, 3, 4, 27, 193, 119, 120, 195, 195, 120, 2, 0.506865
184, 3, wb, attraction, a-b-da, 14, 2, 4, 28, 165, 90, 153, 83, 90, 165, 2, 1.15602
184, 3, wb, attraction, a-b-da, 14, 2, 4, 28, 165, 90, 153, 83, 90, 165, 3, 0.676284
184, 3, wb, attraction, a-b-db, 9, 1, 4, 29, 57, 129, 135, 60, 60, 135, 2, 1.51862
184, 3, wb, attraction, a-b-db, 9, 1, 4, 29, 57, 129, 135, 60, 60, 135, 3, 0.536858
184, 3, wb, attraction, a-b-db, 5, 1, 4, 30, 60, 135, 58, 132, 135, 60, 2, 1.07329
184, 3, wb, attraction, a-b-db, 5, 1, 4, 30, 60, 135, 58, 132, 135, 60, 1, 0.47684
184, 3, wb, attraction, a-b-da, 2, 2, 4, 31, 90, 165, 165, 90, 163, 89, 2, 0.783254
184, 3, wb, attraction, a-b-da, 2, 2, 4, 31, 90, 165, 165, 90, 163, 89, 1, 0.415
184, 3, wb, catch, NA, 999, 999, 4, 32, 174, 141, 76, 119, 102, 153, 1, 1.07617
184, 3, wb, catch, NA, 999, 999, 4, 32, 174, 141, 76, 119, 102, 153, 2, 1.43187
184, 3, wb, filler, NA, 999, 999, 4, 33, 175, 77, 63, 130, 190, 177, 2, 1.82799
184, 3, wb, filler, NA, 999, 999, 4, 33, 175, 77, 63, 130, 190, 177, 3, 0.593366
184, 3, wb, filler, NA, 999, 999, 4, 34, 173, 163, 127, 116, 139, 117, 2, 4.07114
184, 3, wb, filler, NA, 999, 999, 4, 34, 173, 163, 127, 116, 139, 117, 1, 0.898512
184, 3, wb, attraction, a-b-da, 2, 1, 4, 35, 60, 135, 134, 59, 135, 60, 2, 0.732188
184, 3, wb, attraction, a-b-da, 2, 1, 4, 35, 60, 135, 134, 59, 135, 60, 3, 0.629942
184, 3, wb, attraction, a-b-db, 5, 3, 4, 36, 120, 195, 195, 120, 117, 190, 2, 1.18623
184, 3, wb, attraction, a-b-db, 5, 3, 4, 36, 120, 195, 195, 120, 117, 190, 1, 0.610015
184, 3, wb, filler, NA, 999, 999, 4, 37, 176, 110, 98, 72, 64, 84, 3, 1.887
184, 3, wb, filler, NA, 999, 999, 4, 37, 176, 110, 98, 72, 64, 84, 1, 1.00231
184, 3, wb, attraction, a-b-da, 5, 1, 5, 1, 60, 135, 132, 58, 135, 60, 3, 4.8386
184, 3, wb, attraction, a-b-da, 5, 1, 5, 1, 60, 135, 132, 58, 135, 60, 1, 0.619087
184, 3, wb, attraction, a-b-da, 5, 3, 5, 2, 120, 195, 195, 120, 190, 117, 3, 1.54419
184, 3, wb, attraction, a-b-da, 5, 3, 5, 2, 120, 195, 195, 120, 190, 117, 1, 0.521007
184, 3, wb, attraction, a-b-da, 9, 3, 5, 3, 120, 195, 195, 120, 186, 114, 3, 1.17807
184, 3, wb, attraction, a-b-da, 9, 3, 5, 3, 120, 195, 195, 120, 186, 114, 1, 0.681846
184, 3, wb, attraction, a-b-da, 9, 1, 5, 4, 135, 60, 129, 57, 60, 135, 2, 1.96289
184, 3, wb, attraction, a-b-da, 9, 1, 5, 4, 135, 60, 129, 57, 60, 135, 1, 0.50823
184, 3, wb, attraction, a-b-da, 14, 1, 5, 5, 60, 135, 135, 60, 125, 56, 3, 0.685331
184, 3, wb, attraction, a-b-da, 14, 1, 5, 5, 60, 135, 135, 60, 125, 56, 1, 0.416985
184, 3, wb, attraction, a-b-da, 14, 3, 5, 6, 195, 120, 181, 111, 120, 195, 2, 0.870109
184, 3, wb, attraction, a-b-da, 14, 3, 5, 6, 195, 120, 181, 111, 120, 195, 1, 0.538611
184, 3, wb, attraction, a-b-db, 14, 3, 5, 7, 120, 195, 195, 120, 111, 181, 3, 0.835028
184, 3, wb, attraction, a-b-db, 14, 3, 5, 7, 120, 195, 195, 120, 111, 181, 1, 0.424698
184, 3, wb, attraction, a-b-da, 2, 3, 5, 8, 195, 120, 120, 195, 193, 119, 3, 1.66922
184, 3, wb, attraction, a-b-da, 2, 3, 5, 8, 195, 120, 120, 195, 193, 119, 2, 0.553276
184, 3, wb, attraction, a-b-db, 5, 3, 5, 9, 195, 120, 117, 190, 120, 195, 1, 0.673034
184, 3, wb, attraction, a-b-db, 5, 3, 5, 9, 195, 120, 117, 190, 120, 195, 2, 0.452761
184, 3, wb, attraction, a-b-db, 9, 2, 5, 10, 165, 90, 86, 157, 90, 165, 2, 0.8165
184, 3, wb, attraction, a-b-db, 9, 2, 5, 10, 165, 90, 86, 157, 90, 165, 1, 0.310935
184, 3, wb, attraction, a-b-db, 9, 1, 5, 11, 60, 135, 135, 60, 57, 129, 2, 0.68816
184, 3, wb, attraction, a-b-db, 9, 1, 5, 11, 60, 135, 135, 60, 57, 129, 1, 0.355916
184, 3, wb, attraction, a-b-db, 2, 3, 5, 12, 195, 120, 119, 193, 120, 195, 3, 0.787743
184, 3, wb, attraction, a-b-db, 2, 3, 5, 12, 195, 120, 119, 193, 120, 195, 2, 1.40298
184, 3, wb, filler, NA, 999, 999, 5, 13, 160, 91, 101, 140, 175, 77, 3, 2.43247
184, 3, wb, filler, NA, 999, 999, 5, 13, 160, 91, 101, 140, 175, 77, 2, 0.581609
184, 3, wb, attraction, a-b-db, 5, 2, 5, 14, 88, 161, 165, 90, 90, 165, 2, 0.955911
184, 3, wb, attraction, a-b-db, 5, 2, 5, 14, 88, 161, 165, 90, 90, 165, 3, 0.716317
184, 3, wb, attraction, a-b-da, 9, 2, 5, 15, 165, 90, 90, 165, 157, 86, 3, 0.805377
184, 3, wb, attraction, a-b-da, 9, 2, 5, 15, 165, 90, 90, 165, 157, 86, 2, 0.443806
184, 3, wb, filler, NA, 999, 999, 5, 16, 63, 191, 124, 107, 71, 67, 3, 0.831676
184, 3, wb, filler, NA, 999, 999, 5, 16, 63, 191, 124, 107, 71, 67, 1, 3.4293
184, 3, wb, catch, NA, 999, 999, 5, 17, 111, 144, 86, 109, 165, 150, 2, 1.00878
184, 3, wb, catch, NA, 999, 999, 5, 17, 111, 144, 86, 109, 165, 150, 3, 0.415085
184, 3, wb, attraction, a-b-da, 2, 1, 5, 18, 60, 135, 134, 59, 135, 60, 3, 1.01231
184, 3, wb, attraction, a-b-da, 2, 1, 5, 18, 60, 135, 134, 59, 135, 60, 2, 0.442692
184, 3, wb, filler, NA, 999, 999, 5, 19, 129, 139, 74, 114, 65, 158, 2, 2.16632
184, 3, wb, filler, NA, 999, 999, 5, 19, 129, 139, 74, 114, 65, 158, 1, 0.3585
184, 3, wb, filler, NA, 999, 999, 5, 20, 124, 88, 184, 93, 88, 188, 1, 2.34948
184, 3, wb, filler, NA, 999, 999, 5, 20, 124, 88, 184, 93, 88, 188, 3, 0.574168
184, 3, wb, filler, NA, 999, 999, 5, 21, 183, 118, 96, 146, 116, 184, 2, 4.35655
184, 3, wb, filler, NA, 999, 999, 5, 21, 183, 118, 96, 146, 116, 184, 1, 0.475735
184, 3, wb, attraction, a-b-db, 2, 2, 5, 22, 165, 90, 90, 165, 89, 163, 2, 2.79828
184, 3, wb, attraction, a-b-db, 2, 2, 5, 22, 165, 90, 90, 165, 89, 163, 1, 1.13267
184, 3, wb, attraction, a-b-da, 5, 2, 5, 23, 90, 165, 161, 88, 165, 90, 1, 1.54106
184, 3, wb, attraction, a-b-da, 5, 2, 5, 23, 90, 165, 161, 88, 165, 90, 3, 0.589865
184, 3, wb, filler, NA, 999, 999, 5, 24, 58, 126, 128, 69, 63, 170, 2, 0.859542
184, 3, wb, filler, NA, 999, 999, 5, 24, 58, 126, 128, 69, 63, 170, 3, 0.640009
184, 3, wb, attraction, a-b-db, 14, 2, 5, 25, 83, 153, 165, 90, 90, 165, 2, 0.827546
184, 3, wb, attraction, a-b-db, 14, 2, 5, 25, 83, 153, 165, 90, 90, 165, 3, 1.14545
184, 3, wb, filler, NA, 999, 999, 5, 26, 161, 193, 152, 177, 175, 190, 2, 1.62488
184, 3, wb, filler, NA, 999, 999, 5, 26, 161, 193, 152, 177, 175, 190, 3, 0.406436
184, 3, wb, catch, NA, 999, 999, 5, 27, 95, 160, 91, 104, 162, 153, 2, 0.676144
184, 3, wb, catch, NA, 999, 999, 5, 27, 95, 160, 91, 104, 162, 153, 3, 0.375909
184, 3, wb, attraction, a-b-da, 14, 2, 5, 28, 90, 165, 165, 90, 153, 83, 3, 2.72649
184, 3, wb, attraction, a-b-da, 14, 2, 5, 28, 90, 165, 165, 90, 153, 83, 1, 0.935636
184, 3, wb, filler, NA, 999, 999, 5, 29, 133, 84, 169, 179, 184, 140, 1, 1.48803
184, 3, wb, filler, NA, 999, 999, 5, 29, 133, 84, 169, 179, 184, 140, 2, 0.498733
184, 3, wb, attraction, a-b-db, 2, 1, 5, 30, 60, 135, 59, 134, 135, 60, 3, 0.892556
184, 3, wb, attraction, a-b-db, 2, 1, 5, 30, 60, 135, 59, 134, 135, 60, 1, 1.71155
184, 3, wb, attraction, a-b-db, 9, 3, 5, 31, 114, 186, 120, 195, 195, 120, 1, 2.20826
184, 3, wb, attraction, a-b-db, 9, 3, 5, 31, 114, 186, 120, 195, 195, 120, 3, 0.982242
184, 3, wb, attraction, a-b-db, 14, 1, 5, 32, 135, 60, 56, 125, 60, 135, 3, 1.71653
184, 3, wb, attraction, a-b-db, 14, 1, 5, 32, 135, 60, 56, 125, 60, 135, 1, 0.686609
184, 3, wb, attraction, a-b-db, 5, 1, 5, 33, 60, 135, 58, 132, 135, 60, 2, 4.48914
184, 3, wb, attraction, a-b-db, 5, 1, 5, 33, 60, 135, 58, 132, 135, 60, 1, 0.874869
184, 3, wb, attraction, a-b-da, 2, 2, 5, 34, 163, 89, 90, 165, 165, 90, 1, 5.68523
184, 3, wb, attraction, a-b-da, 2, 2, 5, 34, 163, 89, 90, 165, 165, 90, 3, 0.983482
184, 3, wb, filler, NA, 999, 999, 5, 35, 68, 184, 118, 121, 129, 79, 2, 6.36589
184, 3, wb, filler, NA, 999, 999, 5, 35, 68, 184, 118, 121, 129, 79, 1, 0.940591
184, 3, wb, filler, NA, 999, 999, 5, 36, 190, 100, 181, 123, 125, 101, 3, 1.78015
184, 3, wb, filler, NA, 999, 999, 5, 36, 190, 100, 181, 123, 125, 101, 2, 0.691527
184, 3, wb, catch, NA, 999, 999, 5, 37, 132, 123, 125, 70, 129, 186, 2, 1.29322
184, 3, wb, catch, NA, 999, 999, 5, 37, 132, 123, 125, 70, 129, 186, 3, 1.36807
184, 3, wb, attraction, a-b-db, 14, 3, 6, 1, 195, 120, 111, 181, 120, 195, 1, 6.55901
184, 3, wb, attraction, a-b-db, 14, 3, 6, 1, 195, 120, 111, 181, 120, 195, 3, 0.381525
184, 3, wb, filler, NA, 999, 999, 6, 2, 145, 65, 110, 127, 162, 135, 1, 0.852142
184, 3, wb, filler, NA, 999, 999, 6, 2, 145, 65, 110, 127, 162, 135, 3, 1.21707
184, 3, wb, filler, NA, 999, 999, 6, 3, 61, 57, 76, 171, 191, 173, 1, 0.870001
184, 3, wb, filler, NA, 999, 999, 6, 3, 61, 57, 76, 171, 191, 173, 3, 0.402387
184, 3, wb, attraction, a-b-db, 9, 1, 6, 4, 57, 129, 135, 60, 60, 135, 2, 1.00837
184, 3, wb, attraction, a-b-db, 9, 1, 6, 4, 57, 129, 135, 60, 60, 135, 3, 1.32657
184, 3, wb, catch, NA, 999, 999, 6, 5, 142, 173, 137, 118, 106, 89, 3, 0.614621
184, 3, wb, catch, NA, 999, 999, 6, 5, 142, 173, 137, 118, 106, 89, 1, 0.341079
184, 3, wb, attraction, a-b-da, 9, 3, 6, 6, 195, 120, 120, 195, 186, 114, 1, 0.988967
184, 3, wb, attraction, a-b-da, 9, 3, 6, 6, 195, 120, 120, 195, 186, 114, 2, 0.363999
184, 3, wb, attraction, a-b-da, 5, 2, 6, 7, 90, 165, 161, 88, 165, 90, 3, 0.907334
184, 3, wb, attraction, a-b-da, 5, 2, 6, 7, 90, 165, 161, 88, 165, 90, 1, 0.581529
184, 3, wb, attraction, a-b-da, 14, 3, 6, 8, 195, 120, 120, 195, 181, 111, 1, 1.12397
184, 3, wb, attraction, a-b-da, 14, 3, 6, 8, 195, 120, 120, 195, 181, 111, 2, 0.317432
184, 3, wb, attraction, a-b-da, 5, 1, 6, 9, 60, 135, 135, 60, 132, 58, 2, 0.870673
184, 3, wb, attraction, a-b-da, 5, 1, 6, 9, 60, 135, 135, 60, 132, 58, 1, 0.339052
184, 3, wb, catch, NA, 999, 999, 6, 10, 189, 126, 66, 129, 116, 139, 2, 1.37959
184, 3, wb, catch, NA, 999, 999, 6, 10, 189, 126, 66, 129, 116, 139, 1, 1.05105
184, 3, wb, attraction, a-b-db, 9, 2, 6, 11, 90, 165, 165, 90, 86, 157, 3, 2.29468
184, 3, wb, attraction, a-b-db, 9, 2, 6, 11, 90, 165, 165, 90, 86, 157, 1, 0.609248
184, 3, wb, filler, NA, 999, 999, 6, 12, 92, 60, 112, 161, 83, 106, 1, 0.982389
184, 3, wb, filler, NA, 999, 999, 6, 12, 92, 60, 112, 161, 83, 106, 2, 0.302022
184, 3, wb, attraction, a-b-da, 14, 1, 6, 13, 60, 135, 135, 60, 125, 56, 3, 0.712005
184, 3, wb, attraction, a-b-da, 14, 1, 6, 13, 60, 135, 135, 60, 125, 56, 1, 0.410379
184, 3, wb, attraction, a-b-db, 5, 3, 6, 14, 117, 190, 120, 195, 195, 120, 3, 1.27144
184, 3, wb, attraction, a-b-db, 5, 3, 6, 14, 117, 190, 120, 195, 195, 120, 2, 0.419726
184, 3, wb, attraction, a-b-db, 5, 2, 6, 15, 90, 165, 165, 90, 88, 161, 2, 1.02475
184, 3, wb, attraction, a-b-db, 5, 2, 6, 15, 90, 165, 165, 90, 88, 161, 1, 0.422417
184, 3, wb, filler, NA, 999, 999, 6, 16, 147, 133, 103, 100, 125, 108, 2, 1.53975
184, 3, wb, filler, NA, 999, 999, 6, 16, 147, 133, 103, 100, 125, 108, 1, 0.38055
184, 3, wb, attraction, a-b-db, 14, 1, 6, 17, 60, 135, 135, 60, 56, 125, 2, 1.06703
184, 3, wb, attraction, a-b-db, 14, 1, 6, 17, 60, 135, 135, 60, 56, 125, 3, 0.823354
184, 3, wb, attraction, a-b-da, 5, 3, 6, 18, 195, 120, 190, 117, 120, 195, 2, 2.27572
184, 3, wb, attraction, a-b-da, 5, 3, 6, 18, 195, 120, 190, 117, 120, 195, 1, 1.64697
184, 3, wb, attraction, a-b-db, 5, 1, 6, 19, 60, 135, 58, 132, 135, 60, 3, 1.25823
184, 3, wb, attraction, a-b-db, 5, 1, 6, 19, 60, 135, 58, 132, 135, 60, 1, 0.486567
184, 3, wb, attraction, a-b-da, 14, 2, 6, 20, 153, 83, 165, 90, 90, 165, 2, 0.89714
184, 3, wb, attraction, a-b-da, 14, 2, 6, 20, 153, 83, 165, 90, 90, 165, 1, 1.55601
184, 3, wb, filler, NA, 999, 999, 6, 21, 193, 117, 66, 160, 117, 64, 3, 0.763473
184, 3, wb, filler, NA, 999, 999, 6, 21, 193, 117, 66, 160, 117, 64, 1, 0.315813
184, 3, wb, filler, NA, 999, 999, 6, 22, 162, 67, 178, 116, 139, 155, 1, 0.885288
184, 3, wb, filler, NA, 999, 999, 6, 22, 162, 67, 178, 116, 139, 155, 3, 0.632908
184, 3, wb, attraction, a-b-db, 9, 3, 6, 23, 114, 186, 120, 195, 195, 120, 3, 1.23715
184, 3, wb, attraction, a-b-db, 9, 3, 6, 23, 114, 186, 120, 195, 195, 120, 1, 0.658903
184, 3, wb, attraction, a-b-da, 2, 1, 6, 24, 135, 60, 134, 59, 60, 135, 2, 0.781889
184, 3, wb, attraction, a-b-da, 2, 1, 6, 24, 135, 60, 134, 59, 60, 135, 3, 1.28562
184, 3, wb, filler, NA, 999, 999, 6, 25, 75, 179, 169, 116, 102, 104, 3, 0.751821
184, 3, wb, filler, NA, 999, 999, 6, 25, 75, 179, 169, 116, 102, 104, 2, 0.408838
184, 3, wb, filler, NA, 999, 999, 6, 26, 94, 127, 99, 188, 165, 116, 1, 1.06207
184, 3, wb, filler, NA, 999, 999, 6, 26, 94, 127, 99, 188, 165, 116, 3, 0.314214
184, 3, wb, attraction, a-b-da, 9, 1, 6, 27, 60, 135, 135, 60, 129, 57, 3, 0.88341
184, 3, wb, attraction, a-b-da, 9, 1, 6, 27, 60, 135, 135, 60, 129, 57, 2, 0.423236
184, 3, wb, attraction, a-b-da, 9, 2, 6, 28, 90, 165, 157, 86, 165, 90, 1, 1.21231
184, 3, wb, attraction, a-b-da, 9, 2, 6, 28, 90, 165, 157, 86, 165, 90, 3, 0.690682
184, 3, wb, filler, NA, 999, 999, 6, 29, 80, 83, 102, 179, 149, 143, 1, 0.628267
184, 3, wb, filler, NA, 999, 999, 6, 29, 80, 83, 102, 179, 149, 143, 3, 0.642095
184, 3, wb, attraction, a-b-db, 2, 3, 6, 30, 119, 193, 195, 120, 120, 195, 2, 1.47778
184, 3, wb, attraction, a-b-db, 2, 3, 6, 30, 119, 193, 195, 120, 120, 195, 3, 0.369322
184, 3, wb, catch, NA, 999, 999, 6, 31, 104, 91, 189, 126, 109, 146, 1, 1.18452
184, 3, wb, catch, NA, 999, 999, 6, 31, 104, 91, 189, 126, 109, 146, 2, 0.328094
184, 3, wb, filler, NA, 999, 999, 6, 32, 195, 177, 62, 63, 186, 91, 2, 0.936728
184, 3, wb, filler, NA, 999, 999, 6, 32, 195, 177, 62, 63, 186, 91, 1, 0.45834
184, 3, wb, attraction, a-b-da, 2, 3, 6, 33, 193, 119, 195, 120, 120, 195, 3, 1.22941
184, 3, wb, attraction, a-b-da, 2, 3, 6, 33, 193, 119, 195, 120, 120, 195, 1, 0.37909
184, 3, wb, attraction, a-b-db, 2, 2, 6, 34, 89, 163, 165, 90, 90, 165, 2, 0.689533
184, 3, wb, attraction, a-b-db, 2, 2, 6, 34, 89, 163, 165, 90, 90, 165, 1, 0.404533
184, 3, wb, attraction, a-b-db, 2, 1, 6, 35, 60, 135, 59, 134, 135, 60, 2, 1.89838
184, 3, wb, attraction, a-b-db, 2, 1, 6, 35, 60, 135, 59, 134, 135, 60, 1, 0.453105
184, 3, wb, attraction, a-b-db, 14, 2, 6, 36, 83, 153, 165, 90, 90, 165, 2, 0.936859
184, 3, wb, attraction, a-b-db, 14, 2, 6, 36, 83, 153, 165, 90, 90, 165, 3, 0.970593
184, 3, wb, attraction, a-b-da, 2, 2, 6, 37, 90, 165, 163, 89, 165, 90, 1, 0.673579
184, 3, wb, attraction, a-b-da, 2, 2, 6, 37, 90, 165, 163, 89, 165, 90, 2, 2.30148
184, 3, wb, attraction, a-b-db, 5, 2, 7, 1, 90, 165, 88, 161, 165, 90, 2, 1.39063
184, 3, wb, attraction, a-b-db, 5, 2, 7, 1, 90, 165, 88, 161, 165, 90, 1, 0.365445
184, 3, wb, filler, NA, 999, 999, 7, 2, 172, 136, 89, 167, 114, 61, 3, 2.58861
184, 3, wb, filler, NA, 999, 999, 7, 2, 172, 136, 89, 167, 114, 61, 1, 0.643106
184, 3, wb, attraction, a-b-da, 2, 1, 7, 3, 135, 60, 60, 135, 134, 59, 2, 2.83096
184, 3, wb, attraction, a-b-da, 2, 1, 7, 3, 135, 60, 60, 135, 134, 59, 1, 1.29989
184, 3, wb, attraction, a-b-db, 9, 2, 7, 4, 86, 157, 90, 165, 165, 90, 2, 2.24547
184, 3, wb, attraction, a-b-db, 9, 2, 7, 4, 86, 157, 90, 165, 165, 90, 1, 0.322054
184, 3, wb, attraction, a-b-db, 5, 3, 7, 5, 195, 120, 117, 190, 120, 195, 1, 0.979229
184, 3, wb, attraction, a-b-db, 5, 3, 7, 5, 195, 120, 117, 190, 120, 195, 2, 0.482892
184, 3, wb, attraction, a-b-da, 14, 3, 7, 6, 181, 111, 120, 195, 195, 120, 3, 1.2694
184, 3, wb, attraction, a-b-da, 14, 3, 7, 6, 181, 111, 120, 195, 195, 120, 2, 0.88963
184, 3, wb, filler, NA, 999, 999, 7, 7, 79, 142, 143, 144, 105, 148, 1, 1.38788
184, 3, wb, filler, NA, 999, 999, 7, 7, 79, 142, 143, 144, 105, 148, 2, 0.371463
184, 3, wb, attraction, a-b-db, 14, 3, 7, 8, 111, 181, 195, 120, 120, 195, 1, 0.746611
184, 3, wb, attraction, a-b-db, 14, 3, 7, 8, 111, 181, 195, 120, 120, 195, 2, 0.340396
184, 3, wb, filler, NA, 999, 999, 7, 9, 148, 159, 180, 166, 95, 121, 3, 0.851502
184, 3, wb, filler, NA, 999, 999, 7, 9, 148, 159, 180, 166, 95, 121, 2, 0.536646
184, 3, wb, catch, NA, 999, 999, 7, 10, 154, 161, 134, 121, 134, 61, 3, 0.873061
184, 3, wb, catch, NA, 999, 999, 7, 10, 154, 161, 134, 121, 134, 61, 1, 0.684794
184, 3, wb, filler, NA, 999, 999, 7, 11, 57, 162, 192, 174, 100, 194, 1, 1.14323
184, 3, wb, filler, NA, 999, 999, 7, 11, 57, 162, 192, 174, 100, 194, 2, 0.352103
184, 3, wb, attraction, a-b-db, 9, 1, 7, 12, 60, 135, 135, 60, 57, 129, 2, 0.703856
184, 3, wb, attraction, a-b-db, 9, 1, 7, 12, 60, 135, 135, 60, 57, 129, 1, 0.515002
184, 3, wb, attraction, a-b-db, 14, 2, 7, 13, 90, 165, 83, 153, 165, 90, 3, 1.02012
184, 3, wb, attraction, a-b-db, 14, 2, 7, 13, 90, 165, 83, 153, 165, 90, 1, 0.338719
184, 3, wb, attraction, a-b-da, 14, 2, 7, 14, 165, 90, 90, 165, 153, 83, 3, 1.17107
184, 3, wb, attraction, a-b-da, 14, 2, 7, 14, 165, 90, 90, 165, 153, 83, 2, 0.619251
184, 3, wb, attraction, a-b-da, 9, 1, 7, 15, 60, 135, 135, 60, 129, 57, 2, 1.96838
184, 3, wb, attraction, a-b-da, 9, 1, 7, 15, 60, 135, 135, 60, 129, 57, 1, 0.368406
184, 3, wb, catch, NA, 999, 999, 7, 16, 193, 122, 141, 114, 84, 111, 3, 0.991594
184, 3, wb, catch, NA, 999, 999, 7, 16, 193, 122, 141, 114, 84, 111, 1, 0.934518
184, 3, wb, filler, NA, 999, 999, 7, 17, 119, 138, 105, 155, 162, 115, 2, 2.8708
184, 3, wb, filler, NA, 999, 999, 7, 17, 119, 138, 105, 155, 162, 115, 3, 0.938622
184, 3, wb, attraction, a-b-db, 2, 2, 7, 18, 89, 163, 90, 165, 165, 90, 1, 2.09899
184, 3, wb, attraction, a-b-db, 2, 2, 7, 18, 89, 163, 90, 165, 165, 90, 3, 1.37364
184, 3, wb, attraction, a-b-da, 5, 3, 7, 19, 120, 195, 195, 120, 190, 117, 3, 3.19564
184, 3, wb, attraction, a-b-da, 5, 3, 7, 19, 120, 195, 195, 120, 190, 117, 1, 0.353885
184, 3, wb, attraction, a-b-db, 2, 1, 7, 20, 135, 60, 59, 134, 60, 135, 1, 1.49798
184, 3, wb, attraction, a-b-db, 2, 1, 7, 20, 135, 60, 59, 134, 60, 135, 3, 0.804761
184, 3, wb, catch, NA, 999, 999, 7, 21, 160, 95, 156, 159, 78, 117, 1, 3.06645
184, 3, wb, catch, NA, 999, 999, 7, 21, 160, 95, 156, 159, 78, 117, 2, 1.11005
184, 3, wb, attraction, a-b-db, 9, 3, 7, 22, 120, 195, 114, 186, 195, 120, 3, 2.33511
184, 3, wb, attraction, a-b-db, 9, 3, 7, 22, 120, 195, 114, 186, 195, 120, 1, 0.480178
184, 3, wb, filler, NA, 999, 999, 7, 23, 77, 97, 187, 61, 92, 182, 1, 1.25076
184, 3, wb, filler, NA, 999, 999, 7, 23, 77, 97, 187, 61, 92, 182, 3, 0.407667
184, 3, wb, filler, NA, 999, 999, 7, 24, 67, 184, 62, 166, 66, 79, 3, 1.6768
184, 3, wb, filler, NA, 999, 999, 7, 24, 67, 184, 62, 166, 66, 79, 1, 0.456161
184, 3, wb, attraction, a-b-da, 2, 2, 7, 25, 163, 89, 165, 90, 90, 165, 1, 1.54011
184, 3, wb, attraction, a-b-da, 2, 2, 7, 25, 163, 89, 165, 90, 90, 165, 3, 0.836882
184, 3, wb, attraction, a-b-da, 5, 1, 7, 26, 132, 58, 60, 135, 135, 60, 2, 0.857205
184, 3, wb, attraction, a-b-da, 5, 1, 7, 26, 132, 58, 60, 135, 135, 60, 3, 0.389631
184, 3, wb, attraction, a-b-db, 5, 1, 7, 27, 58, 132, 60, 135, 135, 60, 1, 1.86811
184, 3, wb, attraction, a-b-db, 5, 1, 7, 27, 58, 132, 60, 135, 135, 60, 3, 0.520099
184, 3, wb, attraction, a-b-da, 9, 3, 7, 28, 186, 114, 195, 120, 120, 195, 3, 1.24926
184, 3, wb, attraction, a-b-da, 9, 3, 7, 28, 186, 114, 195, 120, 120, 195, 1, 0.398122
184, 3, wb, filler, NA, 999, 999, 7, 29, 87, 121, 146, 153, 86, 96, 2, 1.1
184, 3, wb, filler, NA, 999, 999, 7, 29, 87, 121, 146, 153, 86, 96, 3, 3.83092
184, 3, wb, attraction, a-b-db, 14, 1, 7, 30, 56, 125, 60, 135, 135, 60, 3, 1.4183
184, 3, wb, attraction, a-b-db, 14, 1, 7, 30, 56, 125, 60, 135, 135, 60, 2, 1.0245
184, 3, wb, filler, NA, 999, 999, 7, 31, 130, 85, 143, 102, 57, 90, 3, 0.476706
184, 3, wb, filler, NA, 999, 999, 7, 31, 130, 85, 143, 102, 57, 90, 2, 0.672536
184, 3, wb, attraction, a-b-da, 14, 1, 7, 32, 60, 135, 125, 56, 135, 60, 3, 0.771805
184, 3, wb, attraction, a-b-da, 14, 1, 7, 32, 60, 135, 125, 56, 135, 60, 2, 1.26737
184, 3, wb, attraction, a-b-db, 2, 3, 7, 33, 120, 195, 119, 193, 195, 120, 3, 1.25425
184, 3, wb, attraction, a-b-db, 2, 3, 7, 33, 120, 195, 119, 193, 195, 120, 2, 0.450531
184, 3, wb, attraction, a-b-da, 2, 3, 7, 34, 193, 119, 120, 195, 195, 120, 1, 1.51032
184, 3, wb, attraction, a-b-da, 2, 3, 7, 34, 193, 119, 120, 195, 195, 120, 2, 0.392508
184, 3, wb, filler, NA, 999, 999, 7, 35, 134, 180, 81, 124, 78, 181, 3, 1.20634
184, 3, wb, filler, NA, 999, 999, 7, 35, 134, 180, 81, 124, 78, 181, 1, 0.964555
184, 3, wb, attraction, a-b-da, 9, 2, 7, 36, 90, 165, 165, 90, 157, 86, 2, 1.05145
184, 3, wb, attraction, a-b-da, 9, 2, 7, 36, 90, 165, 165, 90, 157, 86, 3, 0.31249
184, 3, wb, attraction, a-b-da, 5, 2, 7, 37, 161, 88, 90, 165, 165, 90, 2, 0.777688
184, 3, wb, attraction, a-b-da, 5, 2, 7, 37, 161, 88, 90, 165, 165, 90, 3, 0.553431
184, 3, wb, catch, NA, 999, 999, 8, 1, 128, 187, 130, 125, 90, 105, 3, 0.585195
184, 3, wb, catch, NA, 999, 999, 8, 1, 128, 187, 130, 125, 90, 105, 1, 0.561037
184, 3, wb, filler, NA, 999, 999, 8, 2, 85, 167, 103, 62, 105, 151, 2, 1.08813
184, 3, wb, filler, NA, 999, 999, 8, 2, 85, 167, 103, 62, 105, 151, 3, 1.01906
184, 3, wb, attraction, a-b-da, 2, 1, 8, 3, 134, 59, 135, 60, 60, 135, 1, 0.839906
184, 3, wb, attraction, a-b-da, 2, 1, 8, 3, 134, 59, 135, 60, 60, 135, 3, 0.653048
184, 3, wb, filler, NA, 999, 999, 8, 4, 103, 171, 195, 81, 166, 58, 3, 1.42491
184, 3, wb, filler, NA, 999, 999, 8, 4, 103, 171, 195, 81, 166, 58, 1, 0.366322
184, 3, wb, attraction, a-b-db, 9, 3, 8, 5, 120, 195, 114, 186, 195, 120, 2, 1.08557
184, 3, wb, attraction, a-b-db, 9, 3, 8, 5, 120, 195, 114, 186, 195, 120, 1, 0.401093
184, 3, wb, filler, NA, 999, 999, 8, 6, 91, 157, 86, 175, 110, 138, 3, 1.639
184, 3, wb, filler, NA, 999, 999, 8, 6, 91, 157, 86, 175, 110, 138, 1, 2.16387
184, 3, wb, attraction, a-b-db, 5, 2, 8, 7, 90, 165, 88, 161, 165, 90, 2, 2.93035
184, 3, wb, attraction, a-b-db, 5, 2, 8, 7, 90, 165, 88, 161, 165, 90, 1, 0.563368
184, 3, wb, attraction, a-b-db, 9, 1, 8, 8, 135, 60, 60, 135, 57, 129, 1, 1.10656
184, 3, wb, attraction, a-b-db, 9, 1, 8, 8, 135, 60, 60, 135, 57, 129, 3, 0.924814
184, 3, wb, attraction, a-b-da, 14, 1, 8, 9, 60, 135, 135, 60, 125, 56, 3, 0.981212
184, 3, wb, attraction, a-b-da, 14, 1, 8, 9, 60, 135, 135, 60, 125, 56, 2, 0.756763
184, 3, wb, attraction, a-b-db, 9, 2, 8, 10, 86, 157, 165, 90, 90, 165, 2, 1.19583
184, 3, wb, attraction, a-b-db, 9, 2, 8, 10, 86, 157, 165, 90, 90, 165, 1, 1.16271
184, 3, wb, catch, NA, 999, 999, 8, 11, 179, 136, 107, 88, 125, 130, 2, 0.737731
184, 3, wb, catch, NA, 999, 999, 8, 11, 179, 136, 107, 88, 125, 130, 1, 0.450708
184, 3, wb, filler, NA, 999, 999, 8, 12, 93, 127, 63, 190, 62, 172, 3, 2.14262
184, 3, wb, filler, NA, 999, 999, 8, 12, 93, 127, 63, 190, 62, 172, 1, 0.42313
184, 3, wb, attraction, a-b-da, 9, 3, 8, 13, 195, 120, 186, 114, 120, 195, 2, 0.964184
184, 3, wb, attraction, a-b-da, 9, 3, 8, 13, 195, 120, 186, 114, 120, 195, 1, 0.500593
184, 3, wb, attraction, a-b-da, 5, 2, 8, 14, 90, 165, 161, 88, 165, 90, 3, 0.734385
184, 3, wb, attraction, a-b-da, 5, 2, 8, 14, 90, 165, 161, 88, 165, 90, 2, 0.472109
184, 3, wb, attraction, a-b-da, 2, 3, 8, 15, 120, 195, 193, 119, 195, 120, 2, 0.675285
184, 3, wb, attraction, a-b-da, 2, 3, 8, 15, 120, 195, 193, 119, 195, 120, 3, 0.255092
184, 3, wb, attraction, a-b-da, 5, 1, 8, 16, 60, 135, 132, 58, 135, 60, 2, 0.802881
184, 3, wb, attraction, a-b-da, 5, 1, 8, 16, 60, 135, 132, 58, 135, 60, 3, 1.09799
184, 3, wb, attraction, a-b-db, 2, 2, 8, 17, 90, 165, 89, 163, 165, 90, 1, 0.579675
184, 3, wb, attraction, a-b-db, 2, 2, 8, 17, 90, 165, 89, 163, 165, 90, 2, 0.539419
184, 3, wb, attraction, a-b-da, 9, 2, 8, 18, 157, 86, 90, 165, 165, 90, 1, 1.51574
184, 3, wb, attraction, a-b-da, 9, 2, 8, 18, 157, 86, 90, 165, 165, 90, 2, 1.062
184, 3, wb, attraction, a-b-da, 9, 1, 8, 19, 135, 60, 60, 135, 129, 57, 1, 2.37691
184, 3, wb, attraction, a-b-da, 9, 1, 8, 19, 135, 60, 60, 135, 129, 57, 2, 0.544134
184, 3, wb, attraction, a-b-da, 14, 3, 8, 20, 195, 120, 120, 195, 181, 111, 1, 0.823914
184, 3, wb, attraction, a-b-da, 14, 3, 8, 20, 195, 120, 120, 195, 181, 111, 2, 0.749637
184, 3, wb, filler, NA, 999, 999, 8, 21, 59, 79, 80, 158, 125, 93, 1, 1.59727
184, 3, wb, filler, NA, 999, 999, 8, 21, 59, 79, 80, 158, 125, 93, 3, 0.732159
184, 3, wb, catch, NA, 999, 999, 8, 22, 182, 133, 113, 142, 82, 113, 3, 1.2845
184, 3, wb, catch, NA, 999, 999, 8, 22, 182, 133, 113, 142, 82, 113, 1, 0.504051
184, 3, wb, filler, NA, 999, 999, 8, 23, 127, 124, 70, 112, 169, 193, 2, 0.969911
184, 3, wb, filler, NA, 999, 999, 8, 23, 127, 124, 70, 112, 169, 193, 3, 0.450174
184, 3, wb, attraction, a-b-da, 14, 2, 8, 24, 165, 90, 153, 83, 90, 165, 2, 2.55808
184, 3, wb, attraction, a-b-da, 14, 2, 8, 24, 165, 90, 153, 83, 90, 165, 1, 0.597857
184, 3, wb, filler, NA, 999, 999, 8, 25, 114, 102, 75, 153, 187, 67, 1, 2.6996
184, 3, wb, filler, NA, 999, 999, 8, 25, 114, 102, 75, 153, 187, 67, 3, 0.806023
184, 3, wb, attraction, a-b-db, 2, 3, 8, 26, 195, 120, 119, 193, 120, 195, 2, 1.63577
184, 3, wb, attraction, a-b-db, 2, 3, 8, 26, 195, 120, 119, 193, 120, 195, 1, 0.561273
184, 3, wb, attraction, a-b-db, 5, 3, 8, 27, 195, 120, 120, 195, 117, 190, 3, 1.20844
184, 3, wb, attraction, a-b-db, 5, 3, 8, 27, 195, 120, 120, 195, 117, 190, 2, 0.486675
184, 3, wb, attraction, a-b-da, 5, 3, 8, 28, 120, 195, 190, 117, 195, 120, 3, 1.47313
184, 3, wb, attraction, a-b-da, 5, 3, 8, 28, 120, 195, 190, 117, 195, 120, 2, 0.644503
184, 3, wb, filler, NA, 999, 999, 8, 29, 188, 71, 141, 160, 85, 177, 1, 1.06428
184, 3, wb, filler, NA, 999, 999, 8, 29, 188, 71, 141, 160, 85, 177, 2, 1.1407
184, 3, wb, attraction, a-b-da, 2, 2, 8, 30, 165, 90, 163, 89, 90, 165, 3, 2.41233
184, 3, wb, attraction, a-b-da, 2, 2, 8, 30, 165, 90, 163, 89, 90, 165, 2, 0.627796
184, 3, wb, attraction, a-b-db, 14, 2, 8, 31, 165, 90, 90, 165, 83, 153, 3, 1.84657
184, 3, wb, attraction, a-b-db, 14, 2, 8, 31, 165, 90, 90, 165, 83, 153, 1, 1.37919
184, 3, wb, filler, NA, 999, 999, 8, 32, 119, 68, 112, 153, 139, 140, 1, 0.769368
184, 3, wb, filler, NA, 999, 999, 8, 32, 119, 68, 112, 153, 139, 140, 3, 0.833871
184, 3, wb, attraction, a-b-db, 5, 1, 8, 33, 135, 60, 60, 135, 58, 132, 2, 1.70228
184, 3, wb, attraction, a-b-db, 5, 1, 8, 33, 135, 60, 60, 135, 58, 132, 1, 0.472918
184, 3, wb, attraction, a-b-db, 14, 3, 8, 34, 120, 195, 195, 120, 111, 181, 2, 1.85999
184, 3, wb, attraction, a-b-db, 14, 3, 8, 34, 120, 195, 195, 120, 111, 181, 3, 0.680219
184, 3, wb, attraction, a-b-db, 2, 1, 8, 35, 59, 134, 135, 60, 60, 135, 3, 0.802471
184, 3, wb, attraction, a-b-db, 2, 1, 8, 35, 59, 134, 135, 60, 60, 135, 1, 1.4256
184, 3, wb, filler, NA, 999, 999, 8, 36, 66, 156, 147, 186, 137, 141, 1, 2.59773
184, 3, wb, filler, NA, 999, 999, 8, 36, 66, 156, 147, 186, 137, 141, 2, 0.564196
184, 3, wb, attraction, a-b-db, 14, 1, 8, 37, 135, 60, 56, 125, 60, 135, 2, 1.99532
184, 3, wb, attraction, a-b-db, 14, 1, 8, 37, 135, 60, 56, 125, 60, 135, 1, 0.602109
