sub_n, computer_n, bw_cond, effect, set, distance, diag, block_n, trial_n, h1, w1, h2, w2, h3, w3, choice, rt 
173, 3, bw, practice, NA, 999, 999, 0, 1, 71, 126, 73, 58, 107, 60, 1, 3.0341
173, 3, bw, practice, NA, 999, 999, 0, 1, 71, 126, 73, 58, 107, 60, 2, 3.10306
173, 3, bw, practice, NA, 999, 999, 0, 2, 195, 139, 144, 61, 115, 76, 1, 2.62887
173, 3, bw, practice, NA, 999, 999, 0, 2, 195, 139, 144, 61, 115, 76, 3, 4.12991
173, 3, bw, practice, NA, 999, 999, 0, 3, 162, 117, 62, 121, 128, 109, 1, 1.97205
173, 3, bw, practice, NA, 999, 999, 0, 3, 162, 117, 62, 121, 128, 109, 2, 4.07038
173, 3, bw, attraction, a-b-db, 14, 1, 1, 1, 60, 135, 56, 125, 135, 60, 1, 11.5598
173, 3, bw, attraction, a-b-db, 14, 1, 1, 1, 60, 135, 56, 125, 135, 60, 2, 1.35666
173, 3, bw, catch, NA, 999, 999, 1, 2, 69, 126, 109, 146, 153, 162, 3, 1.36435
173, 3, bw, catch, NA, 999, 999, 1, 2, 69, 126, 109, 146, 153, 162, 1, 1.07648
173, 3, bw, catch, NA, 999, 999, 1, 3, 137, 118, 133, 62, 133, 182, 3, 1.15085
173, 3, bw, catch, NA, 999, 999, 1, 3, 137, 118, 133, 62, 133, 182, 2, 1.06372
173, 3, bw, attraction, a-b-da, 2, 2, 1, 4, 90, 165, 165, 90, 163, 89, 1, 3.61067
173, 3, bw, attraction, a-b-da, 2, 2, 1, 4, 90, 165, 165, 90, 163, 89, 2, 2.04017
173, 3, bw, filler, NA, 999, 999, 1, 5, 114, 85, 126, 61, 98, 105, 1, 3.74814
173, 3, bw, filler, NA, 999, 999, 1, 5, 114, 85, 126, 61, 98, 105, 2, 2.69232
173, 3, bw, attraction, a-b-da, 5, 2, 1, 6, 161, 88, 90, 165, 165, 90, 2, 2.72533
173, 3, bw, attraction, a-b-da, 5, 2, 1, 6, 161, 88, 90, 165, 165, 90, 1, 3.59052
173, 3, bw, attraction, a-b-da, 9, 2, 1, 7, 165, 90, 157, 86, 90, 165, 1, 3.07606
173, 3, bw, attraction, a-b-da, 9, 2, 1, 7, 165, 90, 157, 86, 90, 165, 2, 0.782999
173, 3, bw, attraction, a-b-da, 14, 2, 1, 8, 165, 90, 153, 83, 90, 165, 3, 1.85332
173, 3, bw, attraction, a-b-da, 14, 2, 1, 8, 165, 90, 153, 83, 90, 165, 2, 0.95409
173, 3, bw, attraction, a-b-db, 5, 2, 1, 9, 90, 165, 165, 90, 88, 161, 1, 1.78563
173, 3, bw, attraction, a-b-db, 5, 2, 1, 9, 90, 165, 165, 90, 88, 161, 3, 1.65716
173, 3, bw, attraction, a-b-db, 5, 3, 1, 10, 120, 195, 117, 190, 195, 120, 3, 5.37985
173, 3, bw, attraction, a-b-db, 5, 3, 1, 10, 120, 195, 117, 190, 195, 120, 2, 2.0822
173, 3, bw, filler, NA, 999, 999, 1, 11, 185, 61, 105, 97, 86, 132, 1, 2.38809
173, 3, bw, filler, NA, 999, 999, 1, 11, 185, 61, 105, 97, 86, 132, 3, 1.57153
173, 3, bw, attraction, a-b-db, 5, 1, 1, 12, 58, 132, 135, 60, 60, 135, 3, 2.00212
173, 3, bw, attraction, a-b-db, 5, 1, 1, 12, 58, 132, 135, 60, 60, 135, 2, 1.37679
173, 3, bw, attraction, a-b-da, 2, 1, 1, 13, 134, 59, 135, 60, 60, 135, 1, 2.49511
173, 3, bw, attraction, a-b-da, 2, 1, 1, 13, 134, 59, 135, 60, 60, 135, 3, 0.60952
173, 3, bw, attraction, a-b-db, 14, 3, 1, 14, 120, 195, 111, 181, 195, 120, 3, 3.11065
173, 3, bw, attraction, a-b-db, 14, 3, 1, 14, 120, 195, 111, 181, 195, 120, 2, 0.688335
173, 3, bw, filler, NA, 999, 999, 1, 15, 106, 71, 175, 81, 135, 188, 3, 1.04265
173, 3, bw, filler, NA, 999, 999, 1, 15, 106, 71, 175, 81, 135, 188, 1, 0.719787
173, 3, bw, filler, NA, 999, 999, 1, 16, 133, 157, 145, 164, 111, 69, 2, 2.3527
173, 3, bw, filler, NA, 999, 999, 1, 16, 133, 157, 145, 164, 111, 69, 3, 0.713247
173, 3, bw, attraction, a-b-da, 5, 1, 1, 17, 60, 135, 132, 58, 135, 60, 3, 2.86634
173, 3, bw, attraction, a-b-da, 5, 1, 1, 17, 60, 135, 132, 58, 135, 60, 2, 0.590044
173, 3, bw, attraction, a-b-db, 2, 1, 1, 18, 60, 135, 135, 60, 59, 134, 1, 5.24382
173, 3, bw, attraction, a-b-db, 2, 1, 1, 18, 60, 135, 135, 60, 59, 134, 2, 1.05572
173, 3, bw, attraction, a-b-db, 9, 3, 1, 19, 114, 186, 195, 120, 120, 195, 3, 5.16309
173, 3, bw, attraction, a-b-db, 9, 3, 1, 19, 114, 186, 195, 120, 120, 195, 1, 0.858247
173, 3, bw, attraction, a-b-da, 14, 1, 1, 20, 135, 60, 125, 56, 60, 135, 1, 2.94115
173, 3, bw, attraction, a-b-da, 14, 1, 1, 20, 135, 60, 125, 56, 60, 135, 2, 0.54155
173, 3, bw, catch, NA, 999, 999, 1, 21, 98, 157, 63, 132, 135, 180, 3, 1.22128
173, 3, bw, catch, NA, 999, 999, 1, 21, 98, 157, 63, 132, 135, 180, 2, 1.49951
173, 3, bw, attraction, a-b-db, 9, 1, 1, 22, 135, 60, 57, 129, 60, 135, 2, 4.02108
173, 3, bw, attraction, a-b-db, 9, 1, 1, 22, 135, 60, 57, 129, 60, 135, 1, 0.642345
173, 3, bw, filler, NA, 999, 999, 1, 23, 184, 126, 104, 86, 123, 139, 1, 2.34216
173, 3, bw, filler, NA, 999, 999, 1, 23, 184, 126, 104, 86, 123, 139, 2, 1.13482
173, 3, bw, filler, NA, 999, 999, 1, 24, 112, 174, 100, 57, 156, 127, 3, 1.53499
173, 3, bw, filler, NA, 999, 999, 1, 24, 112, 174, 100, 57, 156, 127, 2, 1.16052
173, 3, bw, filler, NA, 999, 999, 1, 25, 182, 121, 153, 129, 72, 90, 1, 1.55948
173, 3, bw, filler, NA, 999, 999, 1, 25, 182, 121, 153, 129, 72, 90, 3, 0.479609
173, 3, bw, attraction, a-b-db, 2, 3, 1, 26, 120, 195, 119, 193, 195, 120, 3, 2.05807
173, 3, bw, attraction, a-b-db, 2, 3, 1, 26, 120, 195, 119, 193, 195, 120, 2, 0.942115
173, 3, bw, attraction, a-b-da, 9, 1, 1, 27, 60, 135, 129, 57, 135, 60, 3, 1.88566
173, 3, bw, attraction, a-b-da, 9, 1, 1, 27, 60, 135, 129, 57, 135, 60, 2, 0.745014
173, 3, bw, attraction, a-b-da, 9, 3, 1, 28, 186, 114, 120, 195, 195, 120, 3, 1.78477
173, 3, bw, attraction, a-b-da, 9, 3, 1, 28, 186, 114, 120, 195, 195, 120, 1, 1.27222
173, 3, bw, attraction, a-b-db, 2, 2, 1, 29, 165, 90, 90, 165, 89, 163, 2, 2.02708
173, 3, bw, attraction, a-b-db, 2, 2, 1, 29, 165, 90, 90, 165, 89, 163, 3, 0.568518
173, 3, bw, attraction, a-b-da, 5, 3, 1, 30, 120, 195, 190, 117, 195, 120, 1, 3.1995
173, 3, bw, attraction, a-b-da, 5, 3, 1, 30, 120, 195, 190, 117, 195, 120, 2, 0.597784
173, 3, bw, attraction, a-b-db, 9, 2, 1, 31, 86, 157, 165, 90, 90, 165, 3, 2.57169
173, 3, bw, attraction, a-b-db, 9, 2, 1, 31, 86, 157, 165, 90, 90, 165, 2, 0.859389
173, 3, bw, attraction, a-b-db, 14, 2, 1, 32, 165, 90, 83, 153, 90, 165, 3, 5.83045
173, 3, bw, attraction, a-b-db, 14, 2, 1, 32, 165, 90, 83, 153, 90, 165, 2, 0.658499
173, 3, bw, attraction, a-b-da, 14, 3, 1, 33, 195, 120, 181, 111, 120, 195, 3, 5.95761
173, 3, bw, attraction, a-b-da, 14, 3, 1, 33, 195, 120, 181, 111, 120, 195, 2, 0.580384
173, 3, bw, filler, NA, 999, 999, 1, 34, 155, 163, 148, 63, 187, 115, 1, 6.47483
173, 3, bw, filler, NA, 999, 999, 1, 34, 155, 163, 148, 63, 187, 115, 2, 0.564816
173, 3, bw, filler, NA, 999, 999, 1, 35, 136, 59, 91, 78, 101, 177, 3, 1.11669
173, 3, bw, filler, NA, 999, 999, 1, 35, 136, 59, 91, 78, 101, 177, 2, 0.630156
173, 3, bw, filler, NA, 999, 999, 1, 36, 185, 57, 81, 137, 120, 84, 2, 5.61849
173, 3, bw, filler, NA, 999, 999, 1, 36, 185, 57, 81, 137, 120, 84, 1, 0.815496
173, 3, bw, attraction, a-b-da, 2, 3, 1, 37, 120, 195, 193, 119, 195, 120, 1, 4.93244
173, 3, bw, attraction, a-b-da, 2, 3, 1, 37, 120, 195, 193, 119, 195, 120, 2, 2.09295
173, 3, bw, attraction, a-b-da, 2, 1, 2, 1, 60, 135, 135, 60, 134, 59, 1, 4.39833
173, 3, bw, attraction, a-b-da, 2, 1, 2, 1, 60, 135, 135, 60, 134, 59, 2, 1.01214
173, 3, bw, catch, NA, 999, 999, 2, 2, 158, 97, 191, 124, 116, 79, 2, 1.84104
173, 3, bw, catch, NA, 999, 999, 2, 2, 158, 97, 191, 124, 116, 79, 3, 0.813782
173, 3, bw, attraction, a-b-db, 2, 2, 2, 3, 90, 165, 89, 163, 165, 90, 3, 2.25082
173, 3, bw, attraction, a-b-db, 2, 2, 2, 3, 90, 165, 89, 163, 165, 90, 1, 0.67943
173, 3, bw, attraction, a-b-db, 14, 3, 2, 4, 120, 195, 111, 181, 195, 120, 3, 3.10585
173, 3, bw, attraction, a-b-db, 14, 3, 2, 4, 120, 195, 111, 181, 195, 120, 2, 1.08354
173, 3, bw, catch, NA, 999, 999, 2, 5, 194, 121, 64, 131, 93, 162, 1, 1.68575
173, 3, bw, catch, NA, 999, 999, 2, 5, 194, 121, 64, 131, 93, 162, 2, 0.753288
173, 3, bw, attraction, a-b-db, 2, 1, 2, 6, 60, 135, 135, 60, 59, 134, 1, 2.53687
173, 3, bw, attraction, a-b-db, 2, 1, 2, 6, 60, 135, 135, 60, 59, 134, 3, 0.85009
173, 3, bw, filler, NA, 999, 999, 2, 7, 131, 83, 86, 168, 100, 133, 2, 5.71775
173, 3, bw, filler, NA, 999, 999, 2, 7, 131, 83, 86, 168, 100, 133, 1, 1.06275
173, 3, bw, attraction, a-b-da, 5, 2, 2, 8, 165, 90, 161, 88, 90, 165, 1, 1.67371
173, 3, bw, attraction, a-b-da, 5, 2, 2, 8, 165, 90, 161, 88, 90, 165, 2, 1.49298
173, 3, bw, attraction, a-b-da, 14, 3, 2, 9, 120, 195, 195, 120, 181, 111, 2, 2.15861
173, 3, bw, attraction, a-b-da, 14, 3, 2, 9, 120, 195, 195, 120, 181, 111, 3, 0.950525
173, 3, bw, attraction, a-b-da, 9, 1, 2, 10, 129, 57, 60, 135, 135, 60, 2, 2.02207
173, 3, bw, attraction, a-b-da, 9, 1, 2, 10, 129, 57, 60, 135, 135, 60, 1, 0.443452
173, 3, bw, attraction, a-b-da, 5, 1, 2, 11, 132, 58, 60, 135, 135, 60, 2, 1.27124
173, 3, bw, attraction, a-b-da, 5, 1, 2, 11, 132, 58, 60, 135, 135, 60, 1, 4.13081
173, 3, bw, attraction, a-b-db, 9, 1, 2, 12, 57, 129, 135, 60, 60, 135, 3, 2.46614
173, 3, bw, attraction, a-b-db, 9, 1, 2, 12, 57, 129, 135, 60, 60, 135, 1, 0.814023
173, 3, bw, attraction, a-b-da, 2, 3, 2, 13, 195, 120, 120, 195, 193, 119, 2, 2.13096
173, 3, bw, attraction, a-b-da, 2, 3, 2, 13, 195, 120, 120, 195, 193, 119, 1, 0.708309
173, 3, bw, attraction, a-b-db, 9, 2, 2, 14, 165, 90, 90, 165, 86, 157, 2, 5.07741
173, 3, bw, attraction, a-b-db, 9, 2, 2, 14, 165, 90, 90, 165, 86, 157, 3, 0.775718
173, 3, bw, attraction, a-b-db, 14, 1, 2, 15, 56, 125, 135, 60, 60, 135, 3, 1.77416
173, 3, bw, attraction, a-b-db, 14, 1, 2, 15, 56, 125, 135, 60, 60, 135, 1, 1.07761
173, 3, bw, filler, NA, 999, 999, 2, 16, 129, 72, 89, 139, 70, 105, 2, 2.11985
173, 3, bw, filler, NA, 999, 999, 2, 16, 129, 72, 89, 139, 70, 105, 3, 0.857842
173, 3, bw, filler, NA, 999, 999, 2, 17, 96, 117, 72, 108, 144, 121, 3, 1.16477
173, 3, bw, filler, NA, 999, 999, 2, 17, 96, 117, 72, 108, 144, 121, 2, 0.773104
173, 3, bw, attraction, a-b-db, 5, 2, 2, 18, 88, 161, 90, 165, 165, 90, 2, 3.03609
173, 3, bw, attraction, a-b-db, 5, 2, 2, 18, 88, 161, 90, 165, 165, 90, 1, 1.51314
173, 3, bw, filler, NA, 999, 999, 2, 19, 114, 75, 184, 63, 112, 137, 3, 4.22596
173, 3, bw, filler, NA, 999, 999, 2, 19, 114, 75, 184, 63, 112, 137, 1, 1.01461
173, 3, bw, filler, NA, 999, 999, 2, 20, 100, 129, 85, 60, 193, 137, 3, 1.38746
173, 3, bw, filler, NA, 999, 999, 2, 20, 100, 129, 85, 60, 193, 137, 2, 0.611196
173, 3, bw, filler, NA, 999, 999, 2, 21, 79, 141, 149, 169, 147, 172, 3, 2.93621
173, 3, bw, filler, NA, 999, 999, 2, 21, 79, 141, 149, 169, 147, 172, 1, 0.617351
173, 3, bw, filler, NA, 999, 999, 2, 22, 61, 158, 100, 117, 163, 115, 3, 1.01438
173, 3, bw, filler, NA, 999, 999, 2, 22, 61, 158, 100, 117, 163, 115, 1, 0.564714
173, 3, bw, attraction, a-b-db, 5, 1, 2, 23, 58, 132, 60, 135, 135, 60, 3, 1.51574
173, 3, bw, attraction, a-b-db, 5, 1, 2, 23, 58, 132, 60, 135, 135, 60, 1, 0.493909
173, 3, bw, filler, NA, 999, 999, 2, 24, 85, 60, 90, 87, 75, 134, 3, 1.08776
173, 3, bw, filler, NA, 999, 999, 2, 24, 85, 60, 90, 87, 75, 134, 1, 0.435298
173, 3, bw, attraction, a-b-da, 9, 2, 2, 25, 157, 86, 165, 90, 90, 165, 2, 2.88792
173, 3, bw, attraction, a-b-da, 9, 2, 2, 25, 157, 86, 165, 90, 90, 165, 3, 0.482181
173, 3, bw, catch, NA, 999, 999, 2, 26, 151, 164, 105, 150, 81, 114, 1, 0.72463
173, 3, bw, catch, NA, 999, 999, 2, 26, 151, 164, 105, 150, 81, 114, 3, 0.470451
173, 3, bw, attraction, a-b-da, 2, 2, 2, 27, 90, 165, 165, 90, 163, 89, 3, 1.04949
173, 3, bw, attraction, a-b-da, 2, 2, 2, 27, 90, 165, 165, 90, 163, 89, 1, 0.406501
173, 3, bw, attraction, a-b-da, 5, 3, 2, 28, 195, 120, 120, 195, 190, 117, 3, 8.38836
173, 3, bw, attraction, a-b-da, 5, 3, 2, 28, 195, 120, 120, 195, 190, 117, 2, 0.737715
173, 3, bw, attraction, a-b-db, 14, 2, 2, 29, 165, 90, 83, 153, 90, 165, 1, 1.59404
173, 3, bw, attraction, a-b-db, 14, 2, 2, 29, 165, 90, 83, 153, 90, 165, 2, 0.856895
173, 3, bw, filler, NA, 999, 999, 2, 30, 154, 165, 176, 192, 85, 142, 2, 1.17983
173, 3, bw, filler, NA, 999, 999, 2, 30, 154, 165, 176, 192, 85, 142, 3, 0.523477
173, 3, bw, filler, NA, 999, 999, 2, 31, 123, 99, 160, 56, 195, 105, 3, 1.64383
173, 3, bw, filler, NA, 999, 999, 2, 31, 123, 99, 160, 56, 195, 105, 2, 0.472704
173, 3, bw, attraction, a-b-db, 5, 3, 2, 32, 117, 190, 120, 195, 195, 120, 2, 5.90791
173, 3, bw, attraction, a-b-db, 5, 3, 2, 32, 117, 190, 120, 195, 195, 120, 3, 1.2366
173, 3, bw, attraction, a-b-db, 2, 3, 2, 33, 120, 195, 119, 193, 195, 120, 2, 1.33672
173, 3, bw, attraction, a-b-db, 2, 3, 2, 33, 120, 195, 119, 193, 195, 120, 3, 0.418521
173, 3, bw, attraction, a-b-da, 14, 2, 2, 34, 90, 165, 153, 83, 165, 90, 1, 2.75158
173, 3, bw, attraction, a-b-da, 14, 2, 2, 34, 90, 165, 153, 83, 165, 90, 2, 0.984139
173, 3, bw, attraction, a-b-db, 9, 3, 2, 35, 120, 195, 195, 120, 114, 186, 1, 2.59038
173, 3, bw, attraction, a-b-db, 9, 3, 2, 35, 120, 195, 195, 120, 114, 186, 3, 1.14886
173, 3, bw, attraction, a-b-da, 9, 3, 2, 36, 186, 114, 195, 120, 120, 195, 3, 2.22038
173, 3, bw, attraction, a-b-da, 9, 3, 2, 36, 186, 114, 195, 120, 120, 195, 1, 0.858562
173, 3, bw, attraction, a-b-da, 14, 1, 2, 37, 125, 56, 60, 135, 135, 60, 3, 1.74136
173, 3, bw, attraction, a-b-da, 14, 1, 2, 37, 125, 56, 60, 135, 135, 60, 1, 0.910139
173, 3, bw, filler, NA, 999, 999, 3, 1, 171, 148, 102, 70, 178, 82, 1, 1.73517
173, 3, bw, filler, NA, 999, 999, 3, 1, 171, 148, 102, 70, 178, 82, 2, 0.656526
173, 3, bw, attraction, a-b-da, 14, 1, 3, 2, 125, 56, 60, 135, 135, 60, 3, 4.20431
173, 3, bw, attraction, a-b-da, 14, 1, 3, 2, 125, 56, 60, 135, 135, 60, 1, 2.80241
173, 3, bw, attraction, a-b-db, 2, 2, 3, 3, 90, 165, 165, 90, 89, 163, 1, 4.72733
173, 3, bw, attraction, a-b-db, 2, 2, 3, 3, 90, 165, 165, 90, 89, 163, 2, 0.791766
173, 3, bw, attraction, a-b-db, 9, 2, 3, 4, 86, 157, 90, 165, 165, 90, 3, 2.74151
173, 3, bw, attraction, a-b-db, 9, 2, 3, 4, 86, 157, 90, 165, 165, 90, 1, 0.797917
173, 3, bw, attraction, a-b-db, 2, 1, 3, 5, 59, 134, 135, 60, 60, 135, 3, 1.07579
173, 3, bw, attraction, a-b-db, 2, 1, 3, 5, 59, 134, 135, 60, 60, 135, 1, 0.615339
173, 3, bw, attraction, a-b-da, 2, 1, 3, 6, 60, 135, 134, 59, 135, 60, 3, 1.23648
173, 3, bw, attraction, a-b-da, 2, 1, 3, 6, 60, 135, 134, 59, 135, 60, 2, 2.23397
173, 3, bw, catch, NA, 999, 999, 3, 7, 133, 122, 189, 126, 96, 99, 2, 1.22981
173, 3, bw, catch, NA, 999, 999, 3, 7, 133, 122, 189, 126, 96, 99, 3, 0.459491
173, 3, bw, attraction, a-b-da, 9, 2, 3, 8, 157, 86, 165, 90, 90, 165, 3, 4.35861
173, 3, bw, attraction, a-b-da, 9, 2, 3, 8, 157, 86, 165, 90, 90, 165, 1, 0.574064
173, 3, bw, attraction, a-b-da, 5, 1, 3, 9, 60, 135, 135, 60, 132, 58, 1, 2.40439
173, 3, bw, attraction, a-b-da, 5, 1, 3, 9, 60, 135, 135, 60, 132, 58, 3, 1.06618
173, 3, bw, attraction, a-b-db, 9, 3, 3, 10, 120, 195, 195, 120, 114, 186, 1, 0.669217
173, 3, bw, attraction, a-b-db, 9, 3, 3, 10, 120, 195, 195, 120, 114, 186, 2, 3.11365
173, 3, bw, filler, NA, 999, 999, 3, 11, 88, 162, 188, 145, 142, 189, 3, 1.3699
173, 3, bw, filler, NA, 999, 999, 3, 11, 88, 162, 188, 145, 142, 189, 1, 1.29006
173, 3, bw, attraction, a-b-da, 5, 3, 3, 12, 195, 120, 120, 195, 190, 117, 3, 1.54827
173, 3, bw, attraction, a-b-da, 5, 3, 3, 12, 195, 120, 120, 195, 190, 117, 1, 0.637158
173, 3, bw, attraction, a-b-db, 14, 1, 3, 13, 135, 60, 60, 135, 56, 125, 2, 2.09756
173, 3, bw, attraction, a-b-db, 14, 1, 3, 13, 135, 60, 60, 135, 56, 125, 3, 0.492283
173, 3, bw, attraction, a-b-da, 5, 2, 3, 14, 90, 165, 161, 88, 165, 90, 3, 0.917971
173, 3, bw, attraction, a-b-da, 5, 2, 3, 14, 90, 165, 161, 88, 165, 90, 2, 0.536343
173, 3, bw, filler, NA, 999, 999, 3, 15, 120, 189, 86, 131, 144, 64, 1, 0.736872
173, 3, bw, filler, NA, 999, 999, 3, 15, 120, 189, 86, 131, 144, 64, 2, 2.10651
173, 3, bw, filler, NA, 999, 999, 3, 16, 111, 160, 64, 60, 150, 142, 3, 1.51584
173, 3, bw, filler, NA, 999, 999, 3, 16, 111, 160, 64, 60, 150, 142, 2, 0.565919
173, 3, bw, attraction, a-b-db, 14, 2, 3, 17, 165, 90, 83, 153, 90, 165, 1, 1.133
173, 3, bw, attraction, a-b-db, 14, 2, 3, 17, 165, 90, 83, 153, 90, 165, 2, 0.510642
173, 3, bw, attraction, a-b-db, 5, 3, 3, 18, 195, 120, 117, 190, 120, 195, 1, 0.871679
173, 3, bw, attraction, a-b-db, 5, 3, 3, 18, 195, 120, 117, 190, 120, 195, 3, 0.611577
173, 3, bw, attraction, a-b-da, 14, 3, 3, 19, 181, 111, 195, 120, 120, 195, 2, 0.912758
173, 3, bw, attraction, a-b-da, 14, 3, 3, 19, 181, 111, 195, 120, 120, 195, 1, 0.586907
173, 3, bw, attraction, a-b-db, 14, 3, 3, 20, 120, 195, 195, 120, 111, 181, 1, 1.04135
173, 3, bw, attraction, a-b-db, 14, 3, 3, 20, 120, 195, 195, 120, 111, 181, 3, 1.0463
173, 3, bw, filler, NA, 999, 999, 3, 21, 61, 170, 159, 71, 124, 82, 3, 2.66599
173, 3, bw, filler, NA, 999, 999, 3, 21, 61, 170, 159, 71, 124, 82, 1, 0.621871
173, 3, bw, attraction, a-b-da, 9, 3, 3, 22, 120, 195, 195, 120, 186, 114, 1, 3.1709
173, 3, bw, attraction, a-b-da, 9, 3, 3, 22, 120, 195, 195, 120, 186, 114, 3, 0.738542
173, 3, bw, attraction, a-b-db, 5, 2, 3, 23, 165, 90, 88, 161, 90, 165, 1, 1.16284
173, 3, bw, attraction, a-b-db, 5, 2, 3, 23, 165, 90, 88, 161, 90, 165, 3, 1.81119
173, 3, bw, catch, NA, 999, 999, 3, 24, 140, 175, 83, 112, 122, 133, 1, 1.02383
173, 3, bw, catch, NA, 999, 999, 3, 24, 140, 175, 83, 112, 122, 133, 2, 0.509643
173, 3, bw, attraction, a-b-da, 2, 3, 3, 25, 120, 195, 195, 120, 193, 119, 3, 1.46262
173, 3, bw, attraction, a-b-da, 2, 3, 3, 25, 120, 195, 195, 120, 193, 119, 1, 0.498799
173, 3, bw, filler, NA, 999, 999, 3, 26, 140, 133, 104, 173, 174, 148, 3, 1.00459
173, 3, bw, filler, NA, 999, 999, 3, 26, 140, 133, 104, 173, 174, 148, 1, 1.94684
173, 3, bw, catch, NA, 999, 999, 3, 27, 163, 152, 105, 150, 74, 121, 1, 0.970223
173, 3, bw, catch, NA, 999, 999, 3, 27, 163, 152, 105, 150, 74, 121, 3, 0.562608
173, 3, bw, attraction, a-b-da, 14, 2, 3, 28, 90, 165, 165, 90, 153, 83, 3, 1.14573
173, 3, bw, attraction, a-b-da, 14, 2, 3, 28, 90, 165, 165, 90, 153, 83, 1, 0.378616
173, 3, bw, filler, NA, 999, 999, 3, 29, 93, 158, 191, 163, 93, 134, 2, 2.25711
173, 3, bw, filler, NA, 999, 999, 3, 29, 93, 158, 191, 163, 93, 134, 3, 0.669059
173, 3, bw, filler, NA, 999, 999, 3, 30, 178, 114, 128, 91, 172, 87, 1, 0.856086
173, 3, bw, filler, NA, 999, 999, 3, 30, 178, 114, 128, 91, 172, 87, 2, 0.580517
173, 3, bw, attraction, a-b-da, 2, 2, 3, 31, 163, 89, 165, 90, 90, 165, 3, 2.29095
173, 3, bw, attraction, a-b-da, 2, 2, 3, 31, 163, 89, 165, 90, 90, 165, 1, 0.453564
173, 3, bw, attraction, a-b-db, 5, 1, 3, 32, 60, 135, 135, 60, 58, 132, 2, 1.23336
173, 3, bw, attraction, a-b-db, 5, 1, 3, 32, 60, 135, 135, 60, 58, 132, 1, 0.766863
173, 3, bw, attraction, a-b-da, 9, 1, 3, 33, 129, 57, 135, 60, 60, 135, 3, 2.51792
173, 3, bw, attraction, a-b-da, 9, 1, 3, 33, 129, 57, 135, 60, 60, 135, 2, 0.503788
173, 3, bw, filler, NA, 999, 999, 3, 34, 93, 129, 194, 100, 58, 112, 1, 0.865519
173, 3, bw, filler, NA, 999, 999, 3, 34, 93, 129, 194, 100, 58, 112, 3, 2.49399
173, 3, bw, attraction, a-b-db, 9, 1, 3, 35, 60, 135, 135, 60, 57, 129, 1, 1.11905
173, 3, bw, attraction, a-b-db, 9, 1, 3, 35, 60, 135, 135, 60, 57, 129, 2, 0.417372
173, 3, bw, filler, NA, 999, 999, 3, 36, 106, 176, 66, 80, 163, 104, 1, 2.27055
173, 3, bw, filler, NA, 999, 999, 3, 36, 106, 176, 66, 80, 163, 104, 2, 0.354438
173, 3, bw, attraction, a-b-db, 2, 3, 3, 37, 119, 193, 120, 195, 195, 120, 2, 1.52227
173, 3, bw, attraction, a-b-db, 2, 3, 3, 37, 119, 193, 120, 195, 195, 120, 1, 0.339916
173, 3, bw, attraction, a-b-db, 2, 1, 4, 1, 59, 134, 135, 60, 60, 135, 2, 1.02771
173, 3, bw, attraction, a-b-db, 2, 1, 4, 1, 59, 134, 135, 60, 60, 135, 3, 1.37724
173, 3, bw, attraction, a-b-db, 14, 1, 4, 2, 56, 125, 135, 60, 60, 135, 1, 0.69538
173, 3, bw, attraction, a-b-db, 14, 1, 4, 2, 56, 125, 135, 60, 60, 135, 2, 0.618623
173, 3, bw, attraction, a-b-db, 9, 1, 4, 3, 57, 129, 135, 60, 60, 135, 3, 0.959576
173, 3, bw, attraction, a-b-db, 9, 1, 4, 3, 57, 129, 135, 60, 60, 135, 1, 0.543912
173, 3, bw, attraction, a-b-db, 14, 3, 4, 4, 120, 195, 111, 181, 195, 120, 3, 3.20776
173, 3, bw, attraction, a-b-db, 14, 3, 4, 4, 120, 195, 111, 181, 195, 120, 2, 0.74135
173, 3, bw, filler, NA, 999, 999, 4, 5, 143, 170, 187, 131, 161, 185, 3, 1.12506
173, 3, bw, filler, NA, 999, 999, 4, 5, 143, 170, 187, 131, 161, 185, 1, 1.47868
173, 3, bw, attraction, a-b-da, 5, 1, 4, 6, 132, 58, 60, 135, 135, 60, 2, 1.23286
173, 3, bw, attraction, a-b-da, 5, 1, 4, 6, 132, 58, 60, 135, 135, 60, 1, 0.838427
173, 3, bw, attraction, a-b-da, 2, 2, 4, 7, 165, 90, 163, 89, 90, 165, 1, 1.04283
173, 3, bw, attraction, a-b-da, 2, 2, 4, 7, 165, 90, 163, 89, 90, 165, 2, 1.46373
173, 3, bw, filler, NA, 999, 999, 4, 8, 83, 184, 99, 88, 154, 156, 3, 1.08255
173, 3, bw, filler, NA, 999, 999, 4, 8, 83, 184, 99, 88, 154, 156, 2, 0.4393
173, 3, bw, attraction, a-b-db, 14, 2, 4, 9, 83, 153, 90, 165, 165, 90, 3, 2.63464
173, 3, bw, attraction, a-b-db, 14, 2, 4, 9, 83, 153, 90, 165, 165, 90, 1, 0.583939
173, 3, bw, filler, NA, 999, 999, 4, 10, 186, 77, 78, 175, 192, 90, 3, 1.92639
173, 3, bw, filler, NA, 999, 999, 4, 10, 186, 77, 78, 175, 192, 90, 2, 2.17578
173, 3, bw, attraction, a-b-da, 9, 2, 4, 11, 157, 86, 165, 90, 90, 165, 2, 3.71773
173, 3, bw, attraction, a-b-da, 9, 2, 4, 11, 157, 86, 165, 90, 90, 165, 1, 0.58305
173, 3, bw, attraction, a-b-da, 2, 3, 4, 12, 120, 195, 195, 120, 193, 119, 1, 3.21359
173, 3, bw, attraction, a-b-da, 2, 3, 4, 12, 120, 195, 195, 120, 193, 119, 3, 0.923199
173, 3, bw, attraction, a-b-da, 14, 1, 4, 13, 135, 60, 125, 56, 60, 135, 3, 2.21215
173, 3, bw, attraction, a-b-da, 14, 1, 4, 13, 135, 60, 125, 56, 60, 135, 2, 1.14614
173, 3, bw, attraction, a-b-db, 2, 3, 4, 14, 120, 195, 195, 120, 119, 193, 1, 1.65766
173, 3, bw, attraction, a-b-db, 2, 3, 4, 14, 120, 195, 195, 120, 119, 193, 2, 0.525889
173, 3, bw, attraction, a-b-db, 9, 3, 4, 15, 120, 195, 195, 120, 114, 186, 1, 1.50231
173, 3, bw, attraction, a-b-db, 9, 3, 4, 15, 120, 195, 195, 120, 114, 186, 2, 0.369029
173, 3, bw, attraction, a-b-da, 14, 3, 4, 16, 195, 120, 181, 111, 120, 195, 3, 1.81622
173, 3, bw, attraction, a-b-da, 14, 3, 4, 16, 195, 120, 181, 111, 120, 195, 2, 0.862321
173, 3, bw, attraction, a-b-db, 9, 2, 4, 17, 90, 165, 165, 90, 86, 157, 1, 1.66521
173, 3, bw, attraction, a-b-db, 9, 2, 4, 17, 90, 165, 165, 90, 86, 157, 3, 0.693347
173, 3, bw, attraction, a-b-da, 9, 3, 4, 18, 186, 114, 120, 195, 195, 120, 3, 2.55909
173, 3, bw, attraction, a-b-da, 9, 3, 4, 18, 186, 114, 120, 195, 195, 120, 2, 0.350912
173, 3, bw, filler, NA, 999, 999, 4, 19, 156, 73, 162, 181, 184, 118, 2, 2.2948
173, 3, bw, filler, NA, 999, 999, 4, 19, 156, 73, 162, 181, 184, 118, 1, 0.721374
173, 3, bw, attraction, a-b-da, 5, 3, 4, 20, 120, 195, 195, 120, 190, 117, 1, 1.3064
173, 3, bw, attraction, a-b-da, 5, 3, 4, 20, 120, 195, 195, 120, 190, 117, 2, 0.860646
173, 3, bw, filler, NA, 999, 999, 4, 21, 102, 117, 102, 94, 193, 68, 1, 1.75965
173, 3, bw, filler, NA, 999, 999, 4, 21, 102, 117, 102, 94, 193, 68, 2, 0.615687
173, 3, bw, catch, NA, 999, 999, 4, 22, 141, 114, 116, 79, 158, 157, 3, 1.30078
173, 3, bw, catch, NA, 999, 999, 4, 22, 141, 114, 116, 79, 158, 157, 2, 0.527694
173, 3, bw, filler, NA, 999, 999, 4, 23, 146, 159, 152, 160, 187, 184, 3, 1.11207
173, 3, bw, filler, NA, 999, 999, 4, 23, 146, 159, 152, 160, 187, 184, 1, 7.25043
173, 3, bw, filler, NA, 999, 999, 4, 24, 114, 123, 73, 195, 173, 112, 3, 2.51615
173, 3, bw, filler, NA, 999, 999, 4, 24, 114, 123, 73, 195, 173, 112, 2, 0.382017
173, 3, bw, attraction, a-b-da, 5, 2, 4, 25, 161, 88, 90, 165, 165, 90, 2, 1.61247
173, 3, bw, attraction, a-b-da, 5, 2, 4, 25, 161, 88, 90, 165, 165, 90, 3, 0.499655
173, 3, bw, attraction, a-b-da, 2, 1, 4, 26, 60, 135, 134, 59, 135, 60, 3, 1.10037
173, 3, bw, attraction, a-b-da, 2, 1, 4, 26, 60, 135, 134, 59, 135, 60, 1, 0.392429
173, 3, bw, filler, NA, 999, 999, 4, 27, 94, 80, 150, 106, 178, 123, 3, 0.869139
173, 3, bw, filler, NA, 999, 999, 4, 27, 94, 80, 150, 106, 178, 123, 1, 0.633501
173, 3, bw, attraction, a-b-db, 5, 3, 4, 28, 120, 195, 117, 190, 195, 120, 3, 4.60591
173, 3, bw, attraction, a-b-db, 5, 3, 4, 28, 120, 195, 117, 190, 195, 120, 2, 0.315181
173, 3, bw, attraction, a-b-db, 5, 1, 4, 29, 60, 135, 58, 132, 135, 60, 3, 0.876374
173, 3, bw, attraction, a-b-db, 5, 1, 4, 29, 60, 135, 58, 132, 135, 60, 1, 0.560158
173, 3, bw, attraction, a-b-da, 14, 2, 4, 30, 90, 165, 153, 83, 165, 90, 3, 0.999138
173, 3, bw, attraction, a-b-da, 14, 2, 4, 30, 90, 165, 153, 83, 165, 90, 2, 0.406124
173, 3, bw, filler, NA, 999, 999, 4, 31, 106, 124, 102, 87, 89, 102, 1, 0.835925
173, 3, bw, filler, NA, 999, 999, 4, 31, 106, 124, 102, 87, 89, 102, 3, 0.81783
173, 3, bw, catch, NA, 999, 999, 4, 32, 87, 108, 153, 162, 117, 138, 2, 0.774673
173, 3, bw, catch, NA, 999, 999, 4, 32, 87, 108, 153, 162, 117, 138, 1, 0.398651
173, 3, bw, attraction, a-b-da, 9, 1, 4, 33, 129, 57, 135, 60, 60, 135, 1, 0.92424
173, 3, bw, attraction, a-b-da, 9, 1, 4, 33, 129, 57, 135, 60, 60, 135, 2, 0.405905
173, 3, bw, filler, NA, 999, 999, 4, 34, 191, 120, 75, 101, 165, 189, 3, 0.96373
173, 3, bw, filler, NA, 999, 999, 4, 34, 191, 120, 75, 101, 165, 189, 2, 0.45208
173, 3, bw, attraction, a-b-db, 5, 2, 4, 35, 90, 165, 88, 161, 165, 90, 2, 0.911886
173, 3, bw, attraction, a-b-db, 5, 2, 4, 35, 90, 165, 88, 161, 165, 90, 3, 0.474237
173, 3, bw, attraction, a-b-db, 2, 2, 4, 36, 89, 163, 165, 90, 90, 165, 1, 1.48469
173, 3, bw, attraction, a-b-db, 2, 2, 4, 36, 89, 163, 165, 90, 90, 165, 2, 0.312292
173, 3, bw, catch, NA, 999, 999, 4, 37, 61, 134, 135, 120, 142, 173, 3, 0.609379
173, 3, bw, catch, NA, 999, 999, 4, 37, 61, 134, 135, 120, 142, 173, 1, 0.495862
173, 3, bw, attraction, a-b-da, 5, 3, 5, 1, 120, 195, 190, 117, 195, 120, 2, 3.1122
173, 3, bw, attraction, a-b-da, 5, 3, 5, 1, 120, 195, 190, 117, 195, 120, 1, 0.625842
173, 3, bw, filler, NA, 999, 999, 5, 2, 174, 111, 77, 85, 140, 108, 1, 0.758303
173, 3, bw, filler, NA, 999, 999, 5, 2, 174, 111, 77, 85, 140, 108, 2, 0.502668
173, 3, bw, attraction, a-b-da, 2, 3, 5, 3, 120, 195, 193, 119, 195, 120, 2, 0.752508
173, 3, bw, attraction, a-b-da, 2, 3, 5, 3, 120, 195, 193, 119, 195, 120, 1, 0.545721
173, 3, bw, attraction, a-b-da, 14, 2, 5, 4, 153, 83, 90, 165, 165, 90, 2, 1.14532
173, 3, bw, attraction, a-b-da, 14, 2, 5, 4, 153, 83, 90, 165, 165, 90, 1, 0.970244
173, 3, bw, attraction, a-b-db, 14, 1, 5, 5, 135, 60, 56, 125, 60, 135, 3, 1.22528
173, 3, bw, attraction, a-b-db, 14, 1, 5, 5, 135, 60, 56, 125, 60, 135, 2, 0.486936
173, 3, bw, catch, NA, 999, 999, 5, 6, 135, 180, 64, 131, 104, 151, 1, 0.601246
173, 3, bw, catch, NA, 999, 999, 5, 6, 135, 180, 64, 131, 104, 151, 2, 0.456414
173, 3, bw, attraction, a-b-db, 2, 2, 5, 7, 165, 90, 90, 165, 89, 163, 2, 0.900261
173, 3, bw, attraction, a-b-db, 2, 2, 5, 7, 165, 90, 90, 165, 89, 163, 1, 0.375279
173, 3, bw, filler, NA, 999, 999, 5, 8, 76, 101, 87, 125, 161, 185, 3, 0.565698
173, 3, bw, filler, NA, 999, 999, 5, 8, 76, 101, 87, 125, 161, 185, 1, 0.39816
173, 3, bw, filler, NA, 999, 999, 5, 9, 164, 58, 113, 67, 86, 130, 3, 1.38801
173, 3, bw, filler, NA, 999, 999, 5, 9, 164, 58, 113, 67, 86, 130, 2, 0.587567
173, 3, bw, attraction, a-b-db, 5, 1, 5, 10, 60, 135, 58, 132, 135, 60, 2, 1.50603
173, 3, bw, attraction, a-b-db, 5, 1, 5, 10, 60, 135, 58, 132, 135, 60, 1, 0.43614
173, 3, bw, filler, NA, 999, 999, 5, 11, 65, 78, 157, 110, 74, 65, 2, 0.632622
173, 3, bw, filler, NA, 999, 999, 5, 11, 65, 78, 157, 110, 74, 65, 1, 1.2864
173, 3, bw, attraction, a-b-db, 5, 3, 5, 12, 117, 190, 195, 120, 120, 195, 1, 1.23259
173, 3, bw, attraction, a-b-db, 5, 3, 5, 12, 117, 190, 195, 120, 120, 195, 2, 0.2862
173, 3, bw, attraction, a-b-db, 5, 2, 5, 13, 88, 161, 90, 165, 165, 90, 2, 1.48087
173, 3, bw, attraction, a-b-db, 5, 2, 5, 13, 88, 161, 90, 165, 165, 90, 1, 0.380224
173, 3, bw, attraction, a-b-da, 9, 3, 5, 14, 120, 195, 186, 114, 195, 120, 3, 0.834746
173, 3, bw, attraction, a-b-da, 9, 3, 5, 14, 120, 195, 186, 114, 195, 120, 2, 0.280509
173, 3, bw, attraction, a-b-db, 2, 1, 5, 15, 59, 134, 60, 135, 135, 60, 2, 0.946974
173, 3, bw, attraction, a-b-db, 2, 1, 5, 15, 59, 134, 60, 135, 135, 60, 1, 0.275975
173, 3, bw, attraction, a-b-da, 9, 1, 5, 16, 60, 135, 135, 60, 129, 57, 1, 2.12646
173, 3, bw, attraction, a-b-da, 9, 1, 5, 16, 60, 135, 135, 60, 129, 57, 2, 0.679815
173, 3, bw, attraction, a-b-db, 14, 3, 5, 17, 120, 195, 195, 120, 111, 181, 1, 0.874115
173, 3, bw, attraction, a-b-db, 14, 3, 5, 17, 120, 195, 195, 120, 111, 181, 3, 0.493927
173, 3, bw, filler, NA, 999, 999, 5, 18, 123, 90, 91, 145, 64, 140, 1, 0.719673
173, 3, bw, filler, NA, 999, 999, 5, 18, 123, 90, 91, 145, 64, 140, 3, 0.450087
173, 3, bw, attraction, a-b-db, 2, 3, 5, 19, 119, 193, 120, 195, 195, 120, 3, 3.91783
173, 3, bw, attraction, a-b-db, 2, 3, 5, 19, 119, 193, 120, 195, 195, 120, 1, 0.303357
173, 3, bw, attraction, a-b-da, 9, 2, 5, 20, 90, 165, 157, 86, 165, 90, 3, 0.905245
173, 3, bw, attraction, a-b-da, 9, 2, 5, 20, 90, 165, 157, 86, 165, 90, 2, 0.723503
173, 3, bw, filler, NA, 999, 999, 5, 21, 192, 147, 113, 59, 71, 132, 1, 0.963916
173, 3, bw, filler, NA, 999, 999, 5, 21, 192, 147, 113, 59, 71, 132, 2, 0.812223
173, 3, bw, attraction, a-b-da, 14, 3, 5, 22, 120, 195, 195, 120, 181, 111, 1, 0.905203
173, 3, bw, attraction, a-b-da, 14, 3, 5, 22, 120, 195, 195, 120, 181, 111, 3, 0.451549
173, 3, bw, attraction, a-b-da, 2, 2, 5, 23, 90, 165, 163, 89, 165, 90, 3, 2.87141
173, 3, bw, attraction, a-b-da, 2, 2, 5, 23, 90, 165, 163, 89, 165, 90, 2, 0.411186
173, 3, bw, catch, NA, 999, 999, 5, 24, 86, 109, 156, 99, 157, 158, 3, 0.584337
173, 3, bw, catch, NA, 999, 999, 5, 24, 86, 109, 156, 99, 157, 158, 1, 0.336132
173, 3, bw, filler, NA, 999, 999, 5, 25, 144, 58, 127, 139, 146, 143, 3, 1.37668
173, 3, bw, filler, NA, 999, 999, 5, 25, 144, 58, 127, 139, 146, 143, 1, 0.416156
173, 3, bw, filler, NA, 999, 999, 5, 26, 180, 117, 82, 107, 61, 160, 1, 0.773295
173, 3, bw, filler, NA, 999, 999, 5, 26, 180, 117, 82, 107, 61, 160, 3, 0.741011
173, 3, bw, attraction, a-b-da, 14, 1, 5, 27, 60, 135, 135, 60, 125, 56, 2, 1.52471
173, 3, bw, attraction, a-b-da, 14, 1, 5, 27, 60, 135, 135, 60, 125, 56, 1, 0.46244
173, 3, bw, attraction, a-b-da, 5, 1, 5, 28, 132, 58, 60, 135, 135, 60, 1, 1.57743
173, 3, bw, attraction, a-b-da, 5, 1, 5, 28, 132, 58, 60, 135, 135, 60, 2, 0.448853
173, 3, bw, attraction, a-b-db, 9, 2, 5, 29, 165, 90, 86, 157, 90, 165, 1, 1.49258
173, 3, bw, attraction, a-b-db, 9, 2, 5, 29, 165, 90, 86, 157, 90, 165, 2, 0.575423
173, 3, bw, attraction, a-b-da, 2, 1, 5, 30, 134, 59, 60, 135, 135, 60, 3, 1.47786
173, 3, bw, attraction, a-b-da, 2, 1, 5, 30, 134, 59, 60, 135, 135, 60, 1, 0.641366
173, 3, bw, filler, NA, 999, 999, 5, 31, 145, 148, 89, 115, 158, 110, 1, 0.925224
173, 3, bw, filler, NA, 999, 999, 5, 31, 145, 148, 89, 115, 158, 110, 2, 0.582838
173, 3, bw, attraction, a-b-db, 14, 2, 5, 32, 90, 165, 83, 153, 165, 90, 1, 0.973209
173, 3, bw, attraction, a-b-db, 14, 2, 5, 32, 90, 165, 83, 153, 165, 90, 2, 0.396839
173, 3, bw, attraction, a-b-db, 9, 3, 5, 33, 195, 120, 114, 186, 120, 195, 3, 2.31469
173, 3, bw, attraction, a-b-db, 9, 3, 5, 33, 195, 120, 114, 186, 120, 195, 2, 1.66866
173, 3, bw, filler, NA, 999, 999, 5, 34, 140, 115, 120, 147, 83, 63, 1, 0.887516
173, 3, bw, filler, NA, 999, 999, 5, 34, 140, 115, 120, 147, 83, 63, 3, 0.554503
173, 3, bw, attraction, a-b-da, 5, 2, 5, 35, 161, 88, 165, 90, 90, 165, 1, 1.04237
173, 3, bw, attraction, a-b-da, 5, 2, 5, 35, 161, 88, 165, 90, 90, 165, 2, 0.407174
173, 3, bw, attraction, a-b-db, 9, 1, 5, 36, 135, 60, 60, 135, 57, 129, 1, 1.02836
173, 3, bw, attraction, a-b-db, 9, 1, 5, 36, 135, 60, 60, 135, 57, 129, 3, 0.610058
173, 3, bw, catch, NA, 999, 999, 5, 37, 161, 154, 139, 116, 115, 80, 1, 0.719026
173, 3, bw, catch, NA, 999, 999, 5, 37, 161, 154, 139, 116, 115, 80, 3, 0.545519
173, 3, bw, attraction, a-b-da, 14, 2, 6, 1, 165, 90, 90, 165, 153, 83, 1, 2.12923
173, 3, bw, attraction, a-b-da, 14, 2, 6, 1, 165, 90, 90, 165, 153, 83, 2, 0.530525
173, 3, bw, attraction, a-b-db, 14, 2, 6, 2, 165, 90, 90, 165, 83, 153, 1, 1.1471
173, 3, bw, attraction, a-b-db, 14, 2, 6, 2, 165, 90, 90, 165, 83, 153, 3, 0.63589
173, 3, bw, attraction, a-b-da, 2, 3, 6, 3, 195, 120, 120, 195, 193, 119, 1, 1.1523
173, 3, bw, attraction, a-b-da, 2, 3, 6, 3, 195, 120, 120, 195, 193, 119, 3, 3.8815
173, 3, bw, catch, NA, 999, 999, 6, 4, 121, 134, 96, 99, 164, 151, 3, 0.954653
173, 3, bw, catch, NA, 999, 999, 6, 4, 121, 134, 96, 99, 164, 151, 2, 0.403032
173, 3, bw, filler, NA, 999, 999, 6, 5, 120, 65, 60, 66, 98, 160, 3, 2.16895
173, 3, bw, filler, NA, 999, 999, 6, 5, 120, 65, 60, 66, 98, 160, 2, 0.56086
173, 3, bw, filler, NA, 999, 999, 6, 6, 176, 63, 148, 105, 112, 93, 2, 0.791878
173, 3, bw, filler, NA, 999, 999, 6, 6, 176, 63, 148, 105, 112, 93, 1, 0.527037
173, 3, bw, attraction, a-b-da, 5, 1, 6, 7, 135, 60, 60, 135, 132, 58, 3, 0.927411
173, 3, bw, attraction, a-b-da, 5, 1, 6, 7, 135, 60, 60, 135, 132, 58, 2, 0.337093
173, 3, bw, attraction, a-b-db, 5, 1, 6, 8, 58, 132, 60, 135, 135, 60, 3, 0.905639
173, 3, bw, attraction, a-b-db, 5, 1, 6, 8, 58, 132, 60, 135, 135, 60, 1, 0.315927
173, 3, bw, attraction, a-b-da, 5, 2, 6, 9, 165, 90, 161, 88, 90, 165, 1, 0.965239
173, 3, bw, attraction, a-b-da, 5, 2, 6, 9, 165, 90, 161, 88, 90, 165, 2, 0.269481
173, 3, bw, attraction, a-b-da, 9, 1, 6, 10, 129, 57, 135, 60, 60, 135, 1, 0.712629
173, 3, bw, attraction, a-b-da, 9, 1, 6, 10, 129, 57, 135, 60, 60, 135, 3, 0.427283
173, 3, bw, catch, NA, 999, 999, 6, 11, 147, 168, 133, 122, 113, 82, 1, 0.751662
173, 3, bw, catch, NA, 999, 999, 6, 11, 147, 168, 133, 122, 113, 82, 3, 0.57666
173, 3, bw, attraction, a-b-db, 2, 1, 6, 12, 59, 134, 60, 135, 135, 60, 1, 0.631152
173, 3, bw, attraction, a-b-db, 2, 1, 6, 12, 59, 134, 60, 135, 135, 60, 2, 0.540937
173, 3, bw, attraction, a-b-da, 9, 2, 6, 13, 165, 90, 157, 86, 90, 165, 1, 0.828603
173, 3, bw, attraction, a-b-da, 9, 2, 6, 13, 165, 90, 157, 86, 90, 165, 2, 0.546419
173, 3, bw, filler, NA, 999, 999, 6, 14, 101, 130, 111, 146, 133, 145, 3, 0.706181
173, 3, bw, filler, NA, 999, 999, 6, 14, 101, 130, 111, 146, 133, 145, 1, 0.45251
173, 3, bw, attraction, a-b-da, 5, 3, 6, 15, 120, 195, 190, 117, 195, 120, 1, 0.952347
173, 3, bw, attraction, a-b-da, 5, 3, 6, 15, 120, 195, 190, 117, 195, 120, 2, 0.529353
173, 3, bw, attraction, a-b-da, 2, 1, 6, 16, 135, 60, 60, 135, 134, 59, 1, 0.745852
173, 3, bw, attraction, a-b-da, 2, 1, 6, 16, 135, 60, 60, 135, 134, 59, 2, 0.49876
173, 3, bw, filler, NA, 999, 999, 6, 17, 169, 105, 141, 170, 155, 192, 3, 0.724721
173, 3, bw, filler, NA, 999, 999, 6, 17, 169, 105, 141, 170, 155, 192, 1, 0.406364
173, 3, bw, attraction, a-b-db, 5, 3, 6, 18, 195, 120, 120, 195, 117, 190, 2, 1.55785
173, 3, bw, attraction, a-b-db, 5, 3, 6, 18, 195, 120, 120, 195, 117, 190, 3, 0.668333
173, 3, bw, attraction, a-b-da, 9, 3, 6, 19, 195, 120, 186, 114, 120, 195, 1, 1.0794
173, 3, bw, attraction, a-b-da, 9, 3, 6, 19, 195, 120, 186, 114, 120, 195, 2, 0.483069
173, 3, bw, attraction, a-b-da, 2, 2, 6, 20, 90, 165, 165, 90, 163, 89, 3, 3.42946
173, 3, bw, attraction, a-b-da, 2, 2, 6, 20, 90, 165, 165, 90, 163, 89, 1, 0.25047
173, 3, bw, filler, NA, 999, 999, 6, 21, 104, 137, 125, 146, 79, 175, 2, 1.53437
173, 3, bw, filler, NA, 999, 999, 6, 21, 104, 137, 125, 146, 79, 175, 1, 2.40785
173, 3, bw, filler, NA, 999, 999, 6, 22, 186, 134, 168, 187, 104, 137, 2, 0.996298
173, 3, bw, filler, NA, 999, 999, 6, 22, 186, 134, 168, 187, 104, 137, 3, 0.315273
173, 3, bw, filler, NA, 999, 999, 6, 23, 135, 160, 184, 169, 75, 152, 2, 0.668427
173, 3, bw, filler, NA, 999, 999, 6, 23, 135, 160, 184, 169, 75, 152, 3, 0.520885
173, 3, bw, attraction, a-b-da, 14, 3, 6, 24, 120, 195, 195, 120, 181, 111, 1, 1.76209
173, 3, bw, attraction, a-b-da, 14, 3, 6, 24, 120, 195, 195, 120, 181, 111, 2, 1.19417
173, 3, bw, attraction, a-b-da, 14, 1, 6, 25, 125, 56, 135, 60, 60, 135, 1, 0.887829
173, 3, bw, attraction, a-b-da, 14, 1, 6, 25, 125, 56, 135, 60, 60, 135, 3, 0.411323
173, 3, bw, attraction, a-b-db, 5, 2, 6, 26, 165, 90, 90, 165, 88, 161, 2, 1.55256
173, 3, bw, attraction, a-b-db, 5, 2, 6, 26, 165, 90, 90, 165, 88, 161, 1, 0.281465
173, 3, bw, attraction, a-b-db, 9, 3, 6, 27, 195, 120, 120, 195, 114, 186, 1, 1.02783
173, 3, bw, attraction, a-b-db, 9, 3, 6, 27, 195, 120, 120, 195, 114, 186, 3, 0.561531
173, 3, bw, attraction, a-b-db, 14, 1, 6, 28, 60, 135, 56, 125, 135, 60, 1, 1.78464
173, 3, bw, attraction, a-b-db, 14, 1, 6, 28, 60, 135, 56, 125, 135, 60, 2, 0.463948
173, 3, bw, attraction, a-b-db, 2, 3, 6, 29, 119, 193, 195, 120, 120, 195, 3, 0.755305
173, 3, bw, attraction, a-b-db, 2, 3, 6, 29, 119, 193, 195, 120, 120, 195, 1, 0.339594
173, 3, bw, filler, NA, 999, 999, 6, 30, 92, 133, 116, 88, 77, 127, 1, 1.19601
173, 3, bw, filler, NA, 999, 999, 6, 30, 92, 133, 116, 88, 77, 127, 3, 0.946997
173, 3, bw, attraction, a-b-db, 2, 2, 6, 31, 165, 90, 90, 165, 89, 163, 2, 1.29877
173, 3, bw, attraction, a-b-db, 2, 2, 6, 31, 165, 90, 90, 165, 89, 163, 1, 0.509495
173, 3, bw, catch, NA, 999, 999, 6, 32, 87, 108, 109, 146, 176, 139, 3, 0.606604
173, 3, bw, catch, NA, 999, 999, 6, 32, 87, 108, 109, 146, 176, 139, 1, 0.381274
173, 3, bw, attraction, a-b-db, 9, 1, 6, 33, 57, 129, 60, 135, 135, 60, 3, 1.92367
173, 3, bw, attraction, a-b-db, 9, 1, 6, 33, 57, 129, 60, 135, 135, 60, 1, 0.421067
173, 3, bw, attraction, a-b-db, 9, 2, 6, 34, 86, 157, 165, 90, 90, 165, 1, 0.850126
173, 3, bw, attraction, a-b-db, 9, 2, 6, 34, 86, 157, 165, 90, 90, 165, 3, 0.479172
173, 3, bw, filler, NA, 999, 999, 6, 35, 139, 172, 60, 171, 74, 105, 1, 0.673609
173, 3, bw, filler, NA, 999, 999, 6, 35, 139, 172, 60, 171, 74, 105, 3, 0.42136
173, 3, bw, attraction, a-b-db, 14, 3, 6, 36, 111, 181, 120, 195, 195, 120, 3, 0.834502
173, 3, bw, attraction, a-b-db, 14, 3, 6, 36, 111, 181, 120, 195, 195, 120, 1, 0.456262
173, 3, bw, filler, NA, 999, 999, 6, 37, 170, 195, 182, 145, 128, 124, 1, 1.18801
173, 3, bw, filler, NA, 999, 999, 6, 37, 170, 195, 182, 145, 128, 124, 3, 0.443701
173, 3, bw, filler, NA, 999, 999, 7, 1, 131, 81, 190, 78, 168, 123, 3, 0.815391
173, 3, bw, filler, NA, 999, 999, 7, 1, 131, 81, 190, 78, 168, 123, 1, 0.55788
173, 3, bw, attraction, a-b-db, 9, 3, 7, 2, 195, 120, 120, 195, 114, 186, 1, 0.948894
173, 3, bw, attraction, a-b-db, 9, 3, 7, 2, 195, 120, 120, 195, 114, 186, 3, 0.398057
173, 3, bw, attraction, a-b-db, 14, 1, 7, 3, 56, 125, 60, 135, 135, 60, 2, 0.963732
173, 3, bw, attraction, a-b-db, 14, 1, 7, 3, 56, 125, 60, 135, 135, 60, 1, 0.532112
173, 3, bw, filler, NA, 999, 999, 7, 4, 144, 128, 141, 186, 167, 180, 3, 0.532512
173, 3, bw, filler, NA, 999, 999, 7, 4, 144, 128, 141, 186, 167, 180, 1, 0.478446
173, 3, bw, filler, NA, 999, 999, 7, 5, 73, 141, 128, 87, 147, 153, 3, 0.784783
173, 3, bw, filler, NA, 999, 999, 7, 5, 73, 141, 128, 87, 147, 153, 1, 0.64847
173, 3, bw, attraction, a-b-db, 5, 2, 7, 6, 90, 165, 165, 90, 88, 161, 2, 1.29224
173, 3, bw, attraction, a-b-db, 5, 2, 7, 6, 90, 165, 165, 90, 88, 161, 1, 0.791151
173, 3, bw, attraction, a-b-db, 2, 3, 7, 7, 120, 195, 195, 120, 119, 193, 2, 1.62879
173, 3, bw, attraction, a-b-db, 2, 3, 7, 7, 120, 195, 195, 120, 119, 193, 1, 1.06631
173, 3, bw, attraction, a-b-da, 2, 3, 7, 8, 120, 195, 193, 119, 195, 120, 3, 0.757306
173, 3, bw, attraction, a-b-da, 2, 3, 7, 8, 120, 195, 193, 119, 195, 120, 1, 1.26164
173, 3, bw, filler, NA, 999, 999, 7, 9, 145, 165, 85, 120, 99, 189, 1, 0.744536
173, 3, bw, filler, NA, 999, 999, 7, 9, 145, 165, 85, 120, 99, 189, 2, 0.26571
173, 3, bw, catch, NA, 999, 999, 7, 10, 96, 99, 139, 116, 159, 156, 3, 0.813165
173, 3, bw, catch, NA, 999, 999, 7, 10, 96, 99, 139, 116, 159, 156, 1, 0.411187
173, 3, bw, attraction, a-b-db, 2, 2, 7, 11, 165, 90, 89, 163, 90, 165, 1, 0.968426
173, 3, bw, attraction, a-b-db, 2, 2, 7, 11, 165, 90, 89, 163, 90, 165, 3, 0.600696
173, 3, bw, attraction, a-b-da, 14, 2, 7, 12, 153, 83, 90, 165, 165, 90, 3, 2.60638
173, 3, bw, attraction, a-b-da, 14, 2, 7, 12, 153, 83, 90, 165, 165, 90, 1, 0.860356
173, 3, bw, attraction, a-b-da, 5, 3, 7, 13, 120, 195, 195, 120, 190, 117, 3, 2.91935
173, 3, bw, attraction, a-b-da, 5, 3, 7, 13, 120, 195, 195, 120, 190, 117, 1, 1.16101
173, 3, bw, attraction, a-b-da, 14, 3, 7, 14, 181, 111, 120, 195, 195, 120, 3, 1.79185
173, 3, bw, attraction, a-b-da, 14, 3, 7, 14, 181, 111, 120, 195, 195, 120, 1, 0.646651
173, 3, bw, attraction, a-b-db, 14, 2, 7, 15, 165, 90, 90, 165, 83, 153, 1, 3.07432
173, 3, bw, attraction, a-b-db, 14, 2, 7, 15, 165, 90, 90, 165, 83, 153, 3, 0.541345
173, 3, bw, catch, NA, 999, 999, 7, 16, 60, 135, 142, 113, 136, 179, 3, 1.08514
173, 3, bw, catch, NA, 999, 999, 7, 16, 60, 135, 142, 113, 136, 179, 1, 0.848784
173, 3, bw, attraction, a-b-da, 9, 3, 7, 17, 186, 114, 120, 195, 195, 120, 3, 2.32458
173, 3, bw, attraction, a-b-da, 9, 3, 7, 17, 186, 114, 120, 195, 195, 120, 1, 1.74172
173, 3, bw, attraction, a-b-da, 2, 1, 7, 18, 134, 59, 135, 60, 60, 135, 1, 2.2291
173, 3, bw, attraction, a-b-da, 2, 1, 7, 18, 134, 59, 135, 60, 60, 135, 2, 0.595595
173, 3, bw, filler, NA, 999, 999, 7, 19, 147, 123, 89, 133, 193, 60, 1, 1.12014
173, 3, bw, filler, NA, 999, 999, 7, 19, 147, 123, 89, 133, 193, 60, 3, 0.618468
173, 3, bw, attraction, a-b-da, 9, 2, 7, 20, 90, 165, 157, 86, 165, 90, 3, 1.37556
173, 3, bw, attraction, a-b-da, 9, 2, 7, 20, 90, 165, 157, 86, 165, 90, 2, 0.399086
173, 3, bw, attraction, a-b-db, 14, 3, 7, 21, 120, 195, 111, 181, 195, 120, 3, 1.51686
173, 3, bw, attraction, a-b-db, 14, 3, 7, 21, 120, 195, 111, 181, 195, 120, 1, 0.422988
173, 3, bw, catch, NA, 999, 999, 7, 22, 96, 99, 151, 104, 182, 133, 3, 0.700277
173, 3, bw, catch, NA, 999, 999, 7, 22, 96, 99, 151, 104, 182, 133, 1, 0.51924
173, 3, bw, attraction, a-b-da, 14, 1, 7, 23, 125, 56, 135, 60, 60, 135, 1, 0.648409
173, 3, bw, attraction, a-b-da, 14, 1, 7, 23, 125, 56, 135, 60, 60, 135, 2, 0.549488
173, 3, bw, attraction, a-b-da, 2, 2, 7, 24, 165, 90, 163, 89, 90, 165, 1, 0.877229
173, 3, bw, attraction, a-b-da, 2, 2, 7, 24, 165, 90, 163, 89, 90, 165, 3, 0.473083
173, 3, bw, filler, NA, 999, 999, 7, 25, 92, 64, 143, 68, 91, 57, 1, 0.668152
173, 3, bw, filler, NA, 999, 999, 7, 25, 92, 64, 143, 68, 91, 57, 3, 1.90458
173, 3, bw, attraction, a-b-db, 2, 1, 7, 26, 135, 60, 59, 134, 60, 135, 1, 2.8259
173, 3, bw, attraction, a-b-db, 2, 1, 7, 26, 135, 60, 59, 134, 60, 135, 3, 0.366934
173, 3, bw, attraction, a-b-db, 9, 2, 7, 27, 90, 165, 165, 90, 86, 157, 1, 1.54209
173, 3, bw, attraction, a-b-db, 9, 2, 7, 27, 90, 165, 165, 90, 86, 157, 3, 0.543035
173, 3, bw, attraction, a-b-db, 5, 1, 7, 28, 58, 132, 135, 60, 60, 135, 3, 2.05478
173, 3, bw, attraction, a-b-db, 5, 1, 7, 28, 58, 132, 135, 60, 60, 135, 2, 0.69071
173, 3, bw, filler, NA, 999, 999, 7, 29, 90, 152, 168, 131, 155, 120, 2, 0.836352
173, 3, bw, filler, NA, 999, 999, 7, 29, 90, 152, 168, 131, 155, 120, 1, 0.51419
173, 3, bw, attraction, a-b-db, 9, 1, 7, 30, 135, 60, 57, 129, 60, 135, 2, 1.53128
173, 3, bw, attraction, a-b-db, 9, 1, 7, 30, 135, 60, 57, 129, 60, 135, 1, 0.460769
173, 3, bw, filler, NA, 999, 999, 7, 31, 94, 139, 101, 102, 181, 152, 3, 0.823954
173, 3, bw, filler, NA, 999, 999, 7, 31, 94, 139, 101, 102, 181, 152, 2, 0.34965
173, 3, bw, attraction, a-b-da, 5, 2, 7, 32, 90, 165, 165, 90, 161, 88, 2, 1.46956
173, 3, bw, attraction, a-b-da, 5, 2, 7, 32, 90, 165, 165, 90, 161, 88, 3, 0.417695
173, 3, bw, attraction, a-b-da, 5, 1, 7, 33, 132, 58, 135, 60, 60, 135, 1, 0.886677
173, 3, bw, attraction, a-b-da, 5, 1, 7, 33, 132, 58, 135, 60, 60, 135, 3, 0.674432
173, 3, bw, filler, NA, 999, 999, 7, 34, 163, 174, 108, 189, 90, 167, 1, 0.700756
173, 3, bw, filler, NA, 999, 999, 7, 34, 163, 174, 108, 189, 90, 167, 3, 0.399869
173, 3, bw, filler, NA, 999, 999, 7, 35, 116, 63, 65, 88, 65, 132, 1, 0.717813
173, 3, bw, filler, NA, 999, 999, 7, 35, 116, 63, 65, 88, 65, 132, 2, 0.376367
173, 3, bw, attraction, a-b-da, 9, 1, 7, 36, 135, 60, 129, 57, 60, 135, 1, 0.734706
173, 3, bw, attraction, a-b-da, 9, 1, 7, 36, 135, 60, 129, 57, 60, 135, 3, 0.520499
173, 3, bw, attraction, a-b-db, 5, 3, 7, 37, 117, 190, 195, 120, 120, 195, 3, 1.26553
173, 3, bw, attraction, a-b-db, 5, 3, 7, 37, 117, 190, 195, 120, 120, 195, 2, 0.349823
173, 3, bw, filler, NA, 999, 999, 8, 1, 124, 133, 123, 152, 153, 133, 3, 0.765722
173, 3, bw, filler, NA, 999, 999, 8, 1, 124, 133, 123, 152, 153, 133, 1, 0.350006
173, 3, bw, attraction, a-b-db, 2, 1, 8, 2, 59, 134, 60, 135, 135, 60, 3, 0.733805
173, 3, bw, attraction, a-b-db, 2, 1, 8, 2, 59, 134, 60, 135, 135, 60, 1, 0.655524
173, 3, bw, filler, NA, 999, 999, 8, 3, 158, 104, 160, 113, 84, 102, 1, 1.37125
173, 3, bw, filler, NA, 999, 999, 8, 3, 158, 104, 160, 113, 84, 102, 3, 0.811541
173, 3, bw, attraction, a-b-db, 5, 1, 8, 4, 135, 60, 60, 135, 58, 132, 1, 0.800646
173, 3, bw, attraction, a-b-db, 5, 1, 8, 4, 135, 60, 60, 135, 58, 132, 3, 0.415712
173, 3, bw, attraction, a-b-db, 9, 2, 8, 5, 86, 157, 165, 90, 90, 165, 3, 2.42875
173, 3, bw, attraction, a-b-db, 9, 2, 8, 5, 86, 157, 165, 90, 90, 165, 2, 0.594192
173, 3, bw, attraction, a-b-da, 9, 2, 8, 6, 157, 86, 165, 90, 90, 165, 1, 0.967716
173, 3, bw, attraction, a-b-da, 9, 2, 8, 6, 157, 86, 165, 90, 90, 165, 3, 0.352127
173, 3, bw, filler, NA, 999, 999, 8, 7, 132, 152, 103, 139, 107, 177, 1, 0.975898
173, 3, bw, filler, NA, 999, 999, 8, 7, 132, 152, 103, 139, 107, 177, 2, 1.73571
173, 3, bw, attraction, a-b-da, 14, 2, 8, 8, 153, 83, 90, 165, 165, 90, 3, 0.863649
173, 3, bw, attraction, a-b-da, 14, 2, 8, 8, 153, 83, 90, 165, 165, 90, 1, 1.16404
173, 3, bw, attraction, a-b-da, 9, 1, 8, 9, 129, 57, 135, 60, 60, 135, 1, 0.978902
173, 3, bw, attraction, a-b-da, 9, 1, 8, 9, 129, 57, 135, 60, 60, 135, 2, 0.570579
173, 3, bw, catch, NA, 999, 999, 8, 10, 67, 128, 163, 152, 106, 149, 2, 1.00169
173, 3, bw, catch, NA, 999, 999, 8, 10, 67, 128, 163, 152, 106, 149, 1, 0.488678
173, 3, bw, attraction, a-b-da, 2, 3, 8, 11, 193, 119, 195, 120, 120, 195, 3, 1.15519
173, 3, bw, attraction, a-b-da, 2, 3, 8, 11, 193, 119, 195, 120, 120, 195, 2, 0.70747
173, 3, bw, filler, NA, 999, 999, 8, 12, 138, 176, 146, 68, 172, 68, 1, 0.844456
173, 3, bw, filler, NA, 999, 999, 8, 12, 138, 176, 146, 68, 172, 68, 2, 0.377418
173, 3, bw, attraction, a-b-db, 2, 2, 8, 13, 165, 90, 90, 165, 89, 163, 2, 1.00001
173, 3, bw, attraction, a-b-db, 2, 2, 8, 13, 165, 90, 90, 165, 89, 163, 3, 0.391118
173, 3, bw, attraction, a-b-da, 2, 2, 8, 14, 90, 165, 165, 90, 163, 89, 1, 1.75682
173, 3, bw, attraction, a-b-da, 2, 2, 8, 14, 90, 165, 165, 90, 163, 89, 2, 0.324912
173, 3, bw, filler, NA, 999, 999, 8, 15, 86, 129, 102, 83, 144, 143, 3, 0.949448
173, 3, bw, filler, NA, 999, 999, 8, 15, 86, 129, 102, 83, 144, 143, 2, 0.342426
173, 3, bw, attraction, a-b-db, 9, 3, 8, 16, 120, 195, 114, 186, 195, 120, 3, 1.07828
173, 3, bw, attraction, a-b-db, 9, 3, 8, 16, 120, 195, 114, 186, 195, 120, 2, 0.274012
173, 3, bw, attraction, a-b-da, 9, 3, 8, 17, 186, 114, 195, 120, 120, 195, 2, 1.06042
173, 3, bw, attraction, a-b-da, 9, 3, 8, 17, 186, 114, 195, 120, 120, 195, 1, 0.320776
173, 3, bw, filler, NA, 999, 999, 8, 18, 153, 98, 78, 112, 57, 109, 1, 0.81787
173, 3, bw, filler, NA, 999, 999, 8, 18, 153, 98, 78, 112, 57, 109, 3, 0.344427
173, 3, bw, attraction, a-b-da, 2, 1, 8, 19, 134, 59, 60, 135, 135, 60, 3, 1.07207
173, 3, bw, attraction, a-b-da, 2, 1, 8, 19, 134, 59, 60, 135, 135, 60, 2, 0.419705
173, 3, bw, attraction, a-b-db, 5, 2, 8, 20, 88, 161, 90, 165, 165, 90, 2, 1.433
173, 3, bw, attraction, a-b-db, 5, 2, 8, 20, 88, 161, 90, 165, 165, 90, 1, 0.462357
173, 3, bw, attraction, a-b-db, 9, 1, 8, 21, 60, 135, 135, 60, 57, 129, 3, 1.26555
173, 3, bw, attraction, a-b-db, 9, 1, 8, 21, 60, 135, 135, 60, 57, 129, 2, 0.40584
173, 3, bw, filler, NA, 999, 999, 8, 22, 60, 170, 130, 159, 156, 103, 2, 1.10772
173, 3, bw, filler, NA, 999, 999, 8, 22, 60, 170, 130, 159, 156, 103, 1, 0.565917
173, 3, bw, attraction, a-b-db, 14, 1, 8, 23, 60, 135, 56, 125, 135, 60, 2, 1.28506
173, 3, bw, attraction, a-b-db, 14, 1, 8, 23, 60, 135, 56, 125, 135, 60, 3, 1.59258
173, 3, bw, attraction, a-b-da, 5, 3, 8, 24, 195, 120, 190, 117, 120, 195, 1, 0.902069
173, 3, bw, attraction, a-b-da, 5, 3, 8, 24, 195, 120, 190, 117, 120, 195, 2, 0.385006
173, 3, bw, attraction, a-b-db, 14, 2, 8, 25, 165, 90, 83, 153, 90, 165, 1, 0.943434
173, 3, bw, attraction, a-b-db, 14, 2, 8, 25, 165, 90, 83, 153, 90, 165, 2, 0.496593
173, 3, bw, attraction, a-b-da, 14, 3, 8, 26, 120, 195, 195, 120, 181, 111, 1, 1.45831
173, 3, bw, attraction, a-b-da, 14, 3, 8, 26, 120, 195, 195, 120, 181, 111, 3, 0.926506
173, 3, bw, attraction, a-b-da, 14, 1, 8, 27, 60, 135, 135, 60, 125, 56, 1, 2.17487
173, 3, bw, attraction, a-b-da, 14, 1, 8, 27, 60, 135, 135, 60, 125, 56, 2, 0.454185
173, 3, bw, attraction, a-b-da, 5, 1, 8, 28, 132, 58, 135, 60, 60, 135, 3, 1.33802
173, 3, bw, attraction, a-b-da, 5, 1, 8, 28, 132, 58, 135, 60, 60, 135, 1, 1.34684
173, 3, bw, filler, NA, 999, 999, 8, 29, 84, 185, 121, 195, 134, 58, 2, 0.938272
173, 3, bw, filler, NA, 999, 999, 8, 29, 84, 185, 121, 195, 134, 58, 3, 0.723347
173, 3, bw, attraction, a-b-db, 5, 3, 8, 30, 117, 190, 120, 195, 195, 120, 3, 3.42775
173, 3, bw, attraction, a-b-db, 5, 3, 8, 30, 117, 190, 120, 195, 195, 120, 1, 0.424765
173, 3, bw, attraction, a-b-db, 14, 3, 8, 31, 120, 195, 111, 181, 195, 120, 3, 2.49309
173, 3, bw, attraction, a-b-db, 14, 3, 8, 31, 120, 195, 111, 181, 195, 120, 2, 0.287706
173, 3, bw, filler, NA, 999, 999, 8, 32, 88, 141, 107, 185, 125, 141, 2, 2.29016
173, 3, bw, filler, NA, 999, 999, 8, 32, 88, 141, 107, 185, 125, 141, 1, 0.340661
173, 3, bw, filler, NA, 999, 999, 8, 33, 169, 69, 113, 174, 188, 96, 2, 5.08468
173, 3, bw, filler, NA, 999, 999, 8, 33, 169, 69, 113, 174, 188, 96, 1, 0.622924
173, 3, bw, attraction, a-b-db, 2, 3, 8, 34, 120, 195, 119, 193, 195, 120, 1, 2.79617
173, 3, bw, attraction, a-b-db, 2, 3, 8, 34, 120, 195, 119, 193, 195, 120, 2, 0.618411
173, 3, bw, catch, NA, 999, 999, 8, 35, 87, 108, 138, 117, 142, 173, 3, 1.0715
173, 3, bw, catch, NA, 999, 999, 8, 35, 87, 108, 138, 117, 142, 173, 1, 0.619142
173, 3, bw, attraction, a-b-da, 5, 2, 8, 36, 165, 90, 90, 165, 161, 88, 1, 1.72821
173, 3, bw, attraction, a-b-da, 5, 2, 8, 36, 165, 90, 90, 165, 161, 88, 2, 0.481668
173, 3, bw, catch, NA, 999, 999, 8, 37, 116, 139, 123, 192, 87, 108, 2, 0.948129
173, 3, bw, catch, NA, 999, 999, 8, 37, 116, 139, 123, 192, 87, 108, 3, 0.429246
