sub_n, computer_n, bw_cond, effect, set, distance, diag, block_n, trial_n, h1, w1, h2, w2, h3, w3, choice, rt 
123, 3, bw, practice, NA, 999, 999, 0, 1, 175, 65, 169, 163, 174, 167, 3, 11.8357
123, 3, bw, practice, NA, 999, 999, 0, 1, 175, 65, 169, 163, 174, 167, 1, 2.10056
123, 3, bw, practice, NA, 999, 999, 0, 2, 124, 84, 163, 84, 190, 85, 3, 4.55719
123, 3, bw, practice, NA, 999, 999, 0, 2, 124, 84, 163, 84, 190, 85, 1, 1.70769
123, 3, bw, practice, NA, 999, 999, 0, 3, 150, 88, 79, 70, 102, 88, 1, 4.03504
123, 3, bw, practice, NA, 999, 999, 0, 3, 150, 88, 79, 70, 102, 88, 2, 1.55999
123, 3, bw, filler, NA, 999, 999, 1, 1, 191, 61, 136, 175, 84, 77, 2, 1.6558
123, 3, bw, filler, NA, 999, 999, 1, 1, 191, 61, 136, 175, 84, 77, 3, 2.67611
123, 3, bw, attraction, a-b-db, 9, 2, 1, 2, 90, 165, 165, 90, 86, 157, 1, 6.08568
123, 3, bw, attraction, a-b-db, 9, 2, 1, 2, 90, 165, 165, 90, 86, 157, 2, 1.52787
123, 3, bw, attraction, a-b-da, 2, 2, 1, 3, 163, 89, 165, 90, 90, 165, 3, 4.12804
123, 3, bw, attraction, a-b-da, 2, 2, 1, 3, 163, 89, 165, 90, 90, 165, 1, 1.44074
123, 3, bw, attraction, a-b-da, 14, 2, 1, 4, 90, 165, 165, 90, 153, 83, 1, 8.676
123, 3, bw, attraction, a-b-da, 14, 2, 1, 4, 90, 165, 165, 90, 153, 83, 3, 1.04549
123, 3, bw, filler, NA, 999, 999, 1, 5, 195, 149, 176, 98, 135, 60, 1, 1.60898
123, 3, bw, filler, NA, 999, 999, 1, 5, 195, 149, 176, 98, 135, 60, 3, 0.799134
123, 3, bw, attraction, a-b-db, 9, 1, 1, 6, 60, 135, 135, 60, 57, 129, 3, 4.8209
123, 3, bw, attraction, a-b-db, 9, 1, 1, 6, 60, 135, 135, 60, 57, 129, 2, 0.793972
123, 3, bw, filler, NA, 999, 999, 1, 7, 98, 160, 189, 74, 188, 177, 3, 1.87964
123, 3, bw, filler, NA, 999, 999, 1, 7, 98, 160, 189, 74, 188, 177, 2, 1.07507
123, 3, bw, attraction, a-b-db, 2, 3, 1, 8, 119, 193, 195, 120, 120, 195, 1, 12.2054
123, 3, bw, attraction, a-b-db, 2, 3, 1, 8, 119, 193, 195, 120, 120, 195, 2, 1.4488
123, 3, bw, filler, NA, 999, 999, 1, 9, 167, 70, 113, 79, 150, 67, 1, 6.71625
123, 3, bw, filler, NA, 999, 999, 1, 9, 167, 70, 113, 79, 150, 67, 2, 0.844944
123, 3, bw, attraction, a-b-da, 9, 2, 1, 10, 165, 90, 90, 165, 157, 86, 2, 10.2646
123, 3, bw, attraction, a-b-da, 9, 2, 1, 10, 165, 90, 90, 165, 157, 86, 3, 1.71392
123, 3, bw, attraction, a-b-da, 2, 3, 1, 11, 120, 195, 193, 119, 195, 120, 1, 3.03482
123, 3, bw, attraction, a-b-da, 2, 3, 1, 11, 120, 195, 193, 119, 195, 120, 2, 1.03969
123, 3, bw, attraction, a-b-da, 9, 3, 1, 12, 120, 195, 195, 120, 186, 114, 1, 9.76403
123, 3, bw, attraction, a-b-da, 9, 3, 1, 12, 120, 195, 195, 120, 186, 114, 2, 0.465598
123, 3, bw, attraction, a-b-db, 14, 1, 1, 13, 60, 135, 135, 60, 56, 125, 1, 8.35687
123, 3, bw, attraction, a-b-db, 14, 1, 1, 13, 60, 135, 135, 60, 56, 125, 2, 0.650654
123, 3, bw, attraction, a-b-da, 14, 1, 1, 14, 60, 135, 135, 60, 125, 56, 1, 3.71845
123, 3, bw, attraction, a-b-da, 14, 1, 1, 14, 60, 135, 135, 60, 125, 56, 2, 1.32
123, 3, bw, catch, NA, 999, 999, 1, 15, 120, 75, 152, 163, 118, 137, 2, 1.64075
123, 3, bw, catch, NA, 999, 999, 1, 15, 120, 75, 152, 163, 118, 137, 1, 0.773594
123, 3, bw, attraction, a-b-da, 5, 2, 1, 16, 161, 88, 165, 90, 90, 165, 3, 10.532
123, 3, bw, attraction, a-b-da, 5, 2, 1, 16, 161, 88, 165, 90, 90, 165, 1, 1.21862
123, 3, bw, filler, NA, 999, 999, 1, 17, 92, 69, 57, 128, 83, 167, 3, 1.45567
123, 3, bw, filler, NA, 999, 999, 1, 17, 92, 69, 57, 128, 83, 167, 1, 1.23571
123, 3, bw, catch, NA, 999, 999, 1, 18, 122, 193, 161, 94, 79, 116, 1, 2.89593
123, 3, bw, catch, NA, 999, 999, 1, 18, 122, 193, 161, 94, 79, 116, 3, 0.594375
123, 3, bw, attraction, a-b-da, 5, 3, 1, 19, 195, 120, 120, 195, 190, 117, 2, 3.64009
123, 3, bw, attraction, a-b-da, 5, 3, 1, 19, 195, 120, 120, 195, 190, 117, 1, 0.772404
123, 3, bw, attraction, a-b-da, 5, 1, 1, 20, 60, 135, 132, 58, 135, 60, 3, 13.9233
123, 3, bw, attraction, a-b-da, 5, 1, 1, 20, 60, 135, 132, 58, 135, 60, 1, 0.545546
123, 3, bw, attraction, a-b-da, 14, 3, 1, 21, 195, 120, 120, 195, 181, 111, 2, 9.88939
123, 3, bw, attraction, a-b-da, 14, 3, 1, 21, 195, 120, 120, 195, 181, 111, 3, 1.01763
123, 3, bw, attraction, a-b-db, 5, 3, 1, 22, 117, 190, 195, 120, 120, 195, 3, 12.8626
123, 3, bw, attraction, a-b-db, 5, 3, 1, 22, 117, 190, 195, 120, 120, 195, 1, 1.41521
123, 3, bw, filler, NA, 999, 999, 1, 23, 192, 166, 83, 180, 161, 58, 1, 1.45203
123, 3, bw, filler, NA, 999, 999, 1, 23, 192, 166, 83, 180, 161, 58, 3, 0.848964
123, 3, bw, catch, NA, 999, 999, 1, 24, 188, 127, 144, 111, 66, 129, 1, 1.94056
123, 3, bw, catch, NA, 999, 999, 1, 24, 188, 127, 144, 111, 66, 129, 3, 0.781281
123, 3, bw, attraction, a-b-da, 2, 1, 1, 25, 135, 60, 60, 135, 134, 59, 2, 5.93161
123, 3, bw, attraction, a-b-da, 2, 1, 1, 25, 135, 60, 60, 135, 134, 59, 1, 1.51573
123, 3, bw, attraction, a-b-da, 9, 1, 1, 26, 129, 57, 135, 60, 60, 135, 3, 3.10868
123, 3, bw, attraction, a-b-da, 9, 1, 1, 26, 129, 57, 135, 60, 60, 135, 1, 0.422238
123, 3, bw, attraction, a-b-db, 2, 2, 1, 27, 90, 165, 89, 163, 165, 90, 3, 10.4594
123, 3, bw, attraction, a-b-db, 2, 2, 1, 27, 90, 165, 89, 163, 165, 90, 1, 0.964673
123, 3, bw, filler, NA, 999, 999, 1, 28, 60, 145, 94, 88, 147, 73, 3, 6.54779
123, 3, bw, filler, NA, 999, 999, 1, 28, 60, 145, 94, 88, 147, 73, 1, 2.79496
123, 3, bw, filler, NA, 999, 999, 1, 29, 62, 74, 128, 158, 171, 159, 3, 1.57618
123, 3, bw, filler, NA, 999, 999, 1, 29, 62, 74, 128, 158, 171, 159, 1, 0.983418
123, 3, bw, attraction, a-b-db, 5, 2, 1, 30, 88, 161, 90, 165, 165, 90, 3, 9.55782
123, 3, bw, attraction, a-b-db, 5, 2, 1, 30, 88, 161, 90, 165, 165, 90, 2, 1.17139
123, 3, bw, attraction, a-b-db, 5, 1, 1, 31, 58, 132, 60, 135, 135, 60, 1, 8.70636
123, 3, bw, attraction, a-b-db, 5, 1, 1, 31, 58, 132, 60, 135, 135, 60, 2, 1.60297
123, 3, bw, filler, NA, 999, 999, 1, 32, 154, 193, 149, 160, 163, 109, 1, 2.95234
123, 3, bw, filler, NA, 999, 999, 1, 32, 154, 193, 149, 160, 163, 109, 3, 0.84083
123, 3, bw, filler, NA, 999, 999, 1, 33, 174, 103, 102, 72, 182, 146, 3, 2.31644
123, 3, bw, filler, NA, 999, 999, 1, 33, 174, 103, 102, 72, 182, 146, 2, 1.4544
123, 3, bw, attraction, a-b-db, 2, 1, 1, 34, 59, 134, 60, 135, 135, 60, 1, 7.44182
123, 3, bw, attraction, a-b-db, 2, 1, 1, 34, 59, 134, 60, 135, 135, 60, 2, 1.10092
123, 3, bw, attraction, a-b-db, 14, 3, 1, 35, 195, 120, 111, 181, 120, 195, 1, 2.91041
123, 3, bw, attraction, a-b-db, 14, 3, 1, 35, 195, 120, 111, 181, 120, 195, 2, 0.936132
123, 3, bw, attraction, a-b-db, 14, 2, 1, 36, 83, 153, 165, 90, 90, 165, 3, 2.65644
123, 3, bw, attraction, a-b-db, 14, 2, 1, 36, 83, 153, 165, 90, 90, 165, 1, 0.684175
123, 3, bw, attraction, a-b-db, 9, 3, 1, 37, 120, 195, 195, 120, 114, 186, 2, 7.54273
123, 3, bw, attraction, a-b-db, 9, 3, 1, 37, 120, 195, 195, 120, 114, 186, 1, 0.413646
123, 3, bw, attraction, a-b-da, 9, 2, 2, 1, 90, 165, 157, 86, 165, 90, 3, 5.31483
123, 3, bw, attraction, a-b-da, 9, 2, 2, 1, 90, 165, 157, 86, 165, 90, 1, 0.995776
123, 3, bw, catch, NA, 999, 999, 2, 2, 69, 126, 191, 124, 126, 129, 2, 1.52941
123, 3, bw, catch, NA, 999, 999, 2, 2, 69, 126, 191, 124, 126, 129, 1, 0.64291
123, 3, bw, attraction, a-b-da, 14, 1, 2, 3, 60, 135, 125, 56, 135, 60, 3, 7.75075
123, 3, bw, attraction, a-b-da, 14, 1, 2, 3, 60, 135, 125, 56, 135, 60, 1, 0.605448
123, 3, bw, catch, NA, 999, 999, 2, 4, 168, 147, 159, 96, 86, 109, 1, 1.48333
123, 3, bw, catch, NA, 999, 999, 2, 4, 168, 147, 159, 96, 86, 109, 3, 0.51874
123, 3, bw, attraction, a-b-db, 14, 3, 2, 5, 111, 181, 120, 195, 195, 120, 3, 1.51187
123, 3, bw, attraction, a-b-db, 14, 3, 2, 5, 111, 181, 120, 195, 195, 120, 1, 0.618084
123, 3, bw, catch, NA, 999, 999, 2, 6, 180, 135, 97, 158, 86, 109, 1, 1.31911
123, 3, bw, catch, NA, 999, 999, 2, 6, 180, 135, 97, 158, 86, 109, 3, 0.593364
123, 3, bw, attraction, a-b-db, 2, 2, 2, 7, 165, 90, 90, 165, 89, 163, 1, 4.05518
123, 3, bw, attraction, a-b-db, 2, 2, 2, 7, 165, 90, 90, 165, 89, 163, 2, 0.883235
123, 3, bw, attraction, a-b-db, 2, 3, 2, 8, 195, 120, 119, 193, 120, 195, 3, 3.64548
123, 3, bw, attraction, a-b-db, 2, 3, 2, 8, 195, 120, 119, 193, 120, 195, 1, 2.8897
123, 3, bw, attraction, a-b-da, 9, 1, 2, 9, 129, 57, 135, 60, 60, 135, 2, 6.35547
123, 3, bw, attraction, a-b-da, 9, 1, 2, 9, 129, 57, 135, 60, 60, 135, 1, 0.402637
123, 3, bw, filler, NA, 999, 999, 2, 10, 120, 69, 74, 106, 151, 154, 3, 2.39255
123, 3, bw, filler, NA, 999, 999, 2, 10, 120, 69, 74, 106, 151, 154, 2, 10.7833
123, 3, bw, attraction, a-b-da, 2, 3, 2, 11, 193, 119, 120, 195, 195, 120, 2, 3.54631
123, 3, bw, attraction, a-b-da, 2, 3, 2, 11, 193, 119, 120, 195, 195, 120, 1, 1.09054
123, 3, bw, attraction, a-b-db, 9, 2, 2, 12, 165, 90, 86, 157, 90, 165, 1, 2.77206
123, 3, bw, attraction, a-b-db, 9, 2, 2, 12, 165, 90, 86, 157, 90, 165, 2, 0.643185
123, 3, bw, attraction, a-b-da, 2, 2, 2, 13, 165, 90, 90, 165, 163, 89, 3, 10.8951
123, 3, bw, attraction, a-b-da, 2, 2, 2, 13, 165, 90, 90, 165, 163, 89, 2, 0.758785
123, 3, bw, attraction, a-b-da, 14, 2, 2, 14, 153, 83, 90, 165, 165, 90, 3, 1.62191
123, 3, bw, attraction, a-b-da, 14, 2, 2, 14, 153, 83, 90, 165, 165, 90, 1, 0.715376
123, 3, bw, attraction, a-b-da, 2, 1, 2, 15, 134, 59, 60, 135, 135, 60, 1, 9.0765
123, 3, bw, attraction, a-b-da, 2, 1, 2, 15, 134, 59, 60, 135, 135, 60, 3, 1.38164
123, 3, bw, attraction, a-b-db, 14, 1, 2, 16, 56, 125, 135, 60, 60, 135, 3, 2.49173
123, 3, bw, attraction, a-b-db, 14, 1, 2, 16, 56, 125, 135, 60, 60, 135, 1, 0.49435
123, 3, bw, attraction, a-b-da, 14, 3, 2, 17, 195, 120, 120, 195, 181, 111, 1, 2.83197
123, 3, bw, attraction, a-b-da, 14, 3, 2, 17, 195, 120, 120, 195, 181, 111, 2, 0.46907
123, 3, bw, attraction, a-b-db, 5, 2, 2, 18, 90, 165, 88, 161, 165, 90, 2, 20.1282
123, 3, bw, attraction, a-b-db, 5, 2, 2, 18, 90, 165, 88, 161, 165, 90, 3, 0.955924
123, 3, bw, attraction, a-b-db, 2, 1, 2, 19, 135, 60, 60, 135, 59, 134, 1, 2.37152
123, 3, bw, attraction, a-b-db, 2, 1, 2, 19, 135, 60, 60, 135, 59, 134, 3, 0.899664
123, 3, bw, filler, NA, 999, 999, 2, 20, 186, 73, 186, 125, 62, 154, 2, 0.877138
123, 3, bw, filler, NA, 999, 999, 2, 20, 186, 73, 186, 125, 62, 154, 3, 1.52089
123, 3, bw, filler, NA, 999, 999, 2, 21, 95, 61, 161, 175, 66, 154, 2, 0.841563
123, 3, bw, filler, NA, 999, 999, 2, 21, 95, 61, 161, 175, 66, 154, 1, 0.398575
123, 3, bw, filler, NA, 999, 999, 2, 22, 57, 98, 114, 136, 165, 181, 3, 0.676548
123, 3, bw, filler, NA, 999, 999, 2, 22, 57, 98, 114, 136, 165, 181, 1, 0.792312
123, 3, bw, attraction, a-b-db, 5, 3, 2, 23, 120, 195, 195, 120, 117, 190, 1, 1.60601
123, 3, bw, attraction, a-b-db, 5, 3, 2, 23, 120, 195, 195, 120, 117, 190, 2, 0.692129
123, 3, bw, filler, NA, 999, 999, 2, 24, 171, 77, 119, 120, 180, 142, 3, 1.08596
123, 3, bw, filler, NA, 999, 999, 2, 24, 171, 77, 119, 120, 180, 142, 1, 0.537434
123, 3, bw, filler, NA, 999, 999, 2, 25, 172, 128, 99, 86, 64, 145, 1, 0.68979
123, 3, bw, filler, NA, 999, 999, 2, 25, 172, 128, 99, 86, 64, 145, 2, 0.68507
123, 3, bw, attraction, a-b-da, 5, 3, 2, 26, 190, 117, 120, 195, 195, 120, 2, 3.18333
123, 3, bw, attraction, a-b-da, 5, 3, 2, 26, 190, 117, 120, 195, 195, 120, 3, 0.526519
123, 3, bw, filler, NA, 999, 999, 2, 27, 113, 154, 175, 120, 194, 56, 2, 1.68679
123, 3, bw, filler, NA, 999, 999, 2, 27, 113, 154, 175, 120, 194, 56, 3, 0.498242
123, 3, bw, attraction, a-b-db, 5, 1, 2, 28, 60, 135, 135, 60, 58, 132, 1, 1.60402
123, 3, bw, attraction, a-b-db, 5, 1, 2, 28, 60, 135, 135, 60, 58, 132, 2, 1.73816
123, 3, bw, attraction, a-b-db, 9, 1, 2, 29, 57, 129, 135, 60, 60, 135, 1, 1.9942
123, 3, bw, attraction, a-b-db, 9, 1, 2, 29, 57, 129, 135, 60, 60, 135, 2, 0.408909
123, 3, bw, attraction, a-b-db, 14, 2, 2, 30, 83, 153, 90, 165, 165, 90, 2, 2.054
123, 3, bw, attraction, a-b-db, 14, 2, 2, 30, 83, 153, 90, 165, 165, 90, 1, 1.03471
123, 3, bw, attraction, a-b-da, 9, 3, 2, 31, 186, 114, 120, 195, 195, 120, 2, 4.33504
123, 3, bw, attraction, a-b-da, 9, 3, 2, 31, 186, 114, 120, 195, 195, 120, 1, 0.727628
123, 3, bw, attraction, a-b-da, 5, 1, 2, 32, 60, 135, 132, 58, 135, 60, 2, 5.09599
123, 3, bw, attraction, a-b-da, 5, 1, 2, 32, 60, 135, 132, 58, 135, 60, 1, 0.34569
123, 3, bw, attraction, a-b-db, 9, 3, 2, 33, 120, 195, 195, 120, 114, 186, 1, 6.65752
123, 3, bw, attraction, a-b-db, 9, 3, 2, 33, 120, 195, 195, 120, 114, 186, 2, 0.26826
123, 3, bw, filler, NA, 999, 999, 2, 34, 113, 83, 117, 152, 165, 145, 3, 1.04733
123, 3, bw, filler, NA, 999, 999, 2, 34, 113, 83, 117, 152, 165, 145, 1, 0.604362
123, 3, bw, filler, NA, 999, 999, 2, 35, 130, 195, 88, 116, 132, 60, 1, 0.697998
123, 3, bw, filler, NA, 999, 999, 2, 35, 130, 195, 88, 116, 132, 60, 3, 0.765284
123, 3, bw, attraction, a-b-da, 5, 2, 2, 36, 165, 90, 161, 88, 90, 165, 1, 0.940261
123, 3, bw, attraction, a-b-da, 5, 2, 2, 36, 165, 90, 161, 88, 90, 165, 2, 0.389105
123, 3, bw, filler, NA, 999, 999, 2, 37, 178, 102, 173, 120, 181, 71, 2, 1.21156
123, 3, bw, filler, NA, 999, 999, 2, 37, 178, 102, 173, 120, 181, 71, 3, 0.409861
123, 3, bw, attraction, a-b-da, 14, 2, 3, 1, 90, 165, 165, 90, 153, 83, 1, 1.99901
123, 3, bw, attraction, a-b-da, 14, 2, 3, 1, 90, 165, 165, 90, 153, 83, 2, 0.469727
123, 3, bw, filler, NA, 999, 999, 3, 2, 105, 105, 177, 177, 111, 144, 2, 1.15287
123, 3, bw, filler, NA, 999, 999, 3, 2, 105, 105, 177, 177, 111, 144, 1, 0.329853
123, 3, bw, attraction, a-b-db, 9, 3, 3, 3, 120, 195, 114, 186, 195, 120, 3, 0.650439
123, 3, bw, attraction, a-b-db, 9, 3, 3, 3, 120, 195, 114, 186, 195, 120, 2, 0.343593
123, 3, bw, attraction, a-b-db, 14, 3, 3, 4, 195, 120, 111, 181, 120, 195, 1, 3.26339
123, 3, bw, attraction, a-b-db, 14, 3, 3, 4, 195, 120, 111, 181, 120, 195, 3, 1.05893
123, 3, bw, filler, NA, 999, 999, 3, 5, 102, 152, 187, 179, 141, 150, 2, 1.50985
123, 3, bw, filler, NA, 999, 999, 3, 5, 102, 152, 187, 179, 141, 150, 1, 0.535934
123, 3, bw, attraction, a-b-da, 9, 2, 3, 6, 157, 86, 165, 90, 90, 165, 3, 0.960437
123, 3, bw, attraction, a-b-da, 9, 2, 3, 6, 157, 86, 165, 90, 90, 165, 1, 0.696718
123, 3, bw, filler, NA, 999, 999, 3, 7, 165, 171, 146, 193, 97, 140, 1, 0.858433
123, 3, bw, filler, NA, 999, 999, 3, 7, 165, 171, 146, 193, 97, 140, 3, 0.614851
123, 3, bw, attraction, a-b-da, 2, 3, 3, 8, 120, 195, 195, 120, 193, 119, 3, 1.25994
123, 3, bw, attraction, a-b-da, 2, 3, 3, 8, 120, 195, 195, 120, 193, 119, 2, 0.800374
123, 3, bw, attraction, a-b-db, 2, 2, 3, 9, 89, 163, 165, 90, 90, 165, 1, 1.22201
123, 3, bw, attraction, a-b-db, 2, 2, 3, 9, 89, 163, 165, 90, 90, 165, 2, 0.379453
123, 3, bw, attraction, a-b-da, 9, 1, 3, 10, 135, 60, 60, 135, 129, 57, 2, 0.858057
123, 3, bw, attraction, a-b-da, 9, 1, 3, 10, 135, 60, 60, 135, 129, 57, 1, 1.35032
123, 3, bw, catch, NA, 999, 999, 3, 11, 186, 129, 97, 98, 95, 160, 1, 0.877864
123, 3, bw, catch, NA, 999, 999, 3, 11, 186, 129, 97, 98, 95, 160, 2, 0.745533
123, 3, bw, filler, NA, 999, 999, 3, 12, 111, 116, 126, 119, 59, 86, 2, 0.673254
123, 3, bw, filler, NA, 999, 999, 3, 12, 111, 116, 126, 119, 59, 86, 3, 0.796983
123, 3, bw, filler, NA, 999, 999, 3, 13, 63, 158, 164, 158, 192, 115, 2, 0.890681
123, 3, bw, filler, NA, 999, 999, 3, 13, 63, 158, 164, 158, 192, 115, 1, 0.877792
123, 3, bw, attraction, a-b-db, 5, 1, 3, 14, 60, 135, 58, 132, 135, 60, 2, 5.37605
123, 3, bw, attraction, a-b-db, 5, 1, 3, 14, 60, 135, 58, 132, 135, 60, 1, 0.502422
123, 3, bw, filler, NA, 999, 999, 3, 15, 122, 111, 91, 160, 163, 185, 3, 0.808165
123, 3, bw, filler, NA, 999, 999, 3, 15, 122, 111, 91, 160, 163, 185, 1, 0.702574
123, 3, bw, attraction, a-b-db, 14, 1, 3, 16, 135, 60, 56, 125, 60, 135, 1, 1.46442
123, 3, bw, attraction, a-b-db, 14, 1, 3, 16, 135, 60, 56, 125, 60, 135, 2, 0.620442
123, 3, bw, attraction, a-b-da, 9, 3, 3, 17, 120, 195, 195, 120, 186, 114, 2, 1.76955
123, 3, bw, attraction, a-b-da, 9, 3, 3, 17, 120, 195, 195, 120, 186, 114, 1, 0.297593
123, 3, bw, attraction, a-b-db, 2, 3, 3, 18, 119, 193, 120, 195, 195, 120, 2, 10.0354
123, 3, bw, attraction, a-b-db, 2, 3, 3, 18, 119, 193, 120, 195, 195, 120, 1, 0.510319
123, 3, bw, filler, NA, 999, 999, 3, 19, 65, 106, 68, 193, 115, 79, 2, 1.28752
123, 3, bw, filler, NA, 999, 999, 3, 19, 65, 106, 68, 193, 115, 79, 1, 0.891025
123, 3, bw, attraction, a-b-da, 2, 2, 3, 20, 163, 89, 165, 90, 90, 165, 1, 7.92465
123, 3, bw, attraction, a-b-da, 2, 2, 3, 20, 163, 89, 165, 90, 90, 165, 3, 0.332209
123, 3, bw, attraction, a-b-db, 9, 2, 3, 21, 165, 90, 86, 157, 90, 165, 1, 1.57263
123, 3, bw, attraction, a-b-db, 9, 2, 3, 21, 165, 90, 86, 157, 90, 165, 3, 0.604259
123, 3, bw, attraction, a-b-da, 14, 1, 3, 22, 135, 60, 60, 135, 125, 56, 2, 1.75388
123, 3, bw, attraction, a-b-da, 14, 1, 3, 22, 135, 60, 60, 135, 125, 56, 3, 0.65066
123, 3, bw, catch, NA, 999, 999, 3, 23, 138, 117, 173, 142, 113, 82, 2, 1.03046
123, 3, bw, catch, NA, 999, 999, 3, 23, 138, 117, 173, 142, 113, 82, 3, 0.595994
123, 3, bw, catch, NA, 999, 999, 3, 24, 112, 83, 121, 134, 163, 152, 3, 1.0418
123, 3, bw, catch, NA, 999, 999, 3, 24, 112, 83, 121, 134, 163, 152, 1, 0.598764
123, 3, bw, attraction, a-b-db, 5, 3, 3, 25, 195, 120, 117, 190, 120, 195, 1, 1.36456
123, 3, bw, attraction, a-b-db, 5, 3, 3, 25, 195, 120, 117, 190, 120, 195, 2, 0.516763
123, 3, bw, attraction, a-b-db, 14, 2, 3, 26, 90, 165, 83, 153, 165, 90, 3, 1.42995
123, 3, bw, attraction, a-b-db, 14, 2, 3, 26, 90, 165, 83, 153, 165, 90, 2, 0.515435
123, 3, bw, filler, NA, 999, 999, 3, 27, 182, 140, 120, 107, 65, 144, 1, 0.964394
123, 3, bw, filler, NA, 999, 999, 3, 27, 182, 140, 120, 107, 65, 144, 3, 0.48482
123, 3, bw, attraction, a-b-da, 2, 1, 3, 28, 60, 135, 135, 60, 134, 59, 3, 0.871247
123, 3, bw, attraction, a-b-da, 2, 1, 3, 28, 60, 135, 135, 60, 134, 59, 1, 0.549829
123, 3, bw, filler, NA, 999, 999, 3, 29, 158, 79, 105, 81, 82, 98, 1, 1.70682
123, 3, bw, filler, NA, 999, 999, 3, 29, 158, 79, 105, 81, 82, 98, 3, 0.596777
123, 3, bw, attraction, a-b-da, 5, 3, 3, 30, 195, 120, 120, 195, 190, 117, 2, 1.62665
123, 3, bw, attraction, a-b-da, 5, 3, 3, 30, 195, 120, 120, 195, 190, 117, 1, 0.640116
123, 3, bw, attraction, a-b-da, 5, 2, 3, 31, 165, 90, 161, 88, 90, 165, 2, 1.38795
123, 3, bw, attraction, a-b-da, 5, 2, 3, 31, 165, 90, 161, 88, 90, 165, 3, 0.707545
123, 3, bw, attraction, a-b-db, 9, 1, 3, 32, 60, 135, 57, 129, 135, 60, 3, 2.42042
123, 3, bw, attraction, a-b-db, 9, 1, 3, 32, 60, 135, 57, 129, 135, 60, 1, 0.410232
123, 3, bw, attraction, a-b-da, 5, 1, 3, 33, 132, 58, 135, 60, 60, 135, 3, 1.73551
123, 3, bw, attraction, a-b-da, 5, 1, 3, 33, 132, 58, 135, 60, 60, 135, 1, 0.576865
123, 3, bw, attraction, a-b-da, 14, 3, 3, 34, 181, 111, 120, 195, 195, 120, 2, 2.80727
123, 3, bw, attraction, a-b-da, 14, 3, 3, 34, 181, 111, 120, 195, 195, 120, 1, 0.805048
123, 3, bw, filler, NA, 999, 999, 3, 35, 173, 166, 175, 194, 74, 178, 2, 1.04276
123, 3, bw, filler, NA, 999, 999, 3, 35, 173, 166, 175, 194, 74, 178, 3, 1.32793
123, 3, bw, attraction, a-b-db, 5, 2, 3, 36, 88, 161, 165, 90, 90, 165, 3, 5.752
123, 3, bw, attraction, a-b-db, 5, 2, 3, 36, 88, 161, 165, 90, 90, 165, 1, 0.415469
123, 3, bw, attraction, a-b-db, 2, 1, 3, 37, 60, 135, 135, 60, 59, 134, 2, 1.61261
123, 3, bw, attraction, a-b-db, 2, 1, 3, 37, 60, 135, 135, 60, 59, 134, 1, 0.466738
123, 3, bw, attraction, a-b-da, 5, 1, 4, 1, 135, 60, 60, 135, 132, 58, 3, 2.23802
123, 3, bw, attraction, a-b-da, 5, 1, 4, 1, 135, 60, 60, 135, 132, 58, 1, 1.07504
123, 3, bw, attraction, a-b-da, 2, 3, 4, 2, 193, 119, 195, 120, 120, 195, 3, 4.26146
123, 3, bw, attraction, a-b-da, 2, 3, 4, 2, 193, 119, 195, 120, 120, 195, 1, 0.424775
123, 3, bw, catch, NA, 999, 999, 4, 3, 92, 163, 106, 89, 174, 141, 3, 0.621209
123, 3, bw, catch, NA, 999, 999, 4, 3, 92, 163, 106, 89, 174, 141, 2, 0.675021
123, 3, bw, attraction, a-b-db, 5, 2, 4, 4, 90, 165, 165, 90, 88, 161, 2, 0.893326
123, 3, bw, attraction, a-b-db, 5, 2, 4, 4, 90, 165, 165, 90, 88, 161, 3, 1.80048
123, 3, bw, filler, NA, 999, 999, 4, 5, 189, 168, 113, 170, 163, 101, 1, 1.15775
123, 3, bw, filler, NA, 999, 999, 4, 5, 189, 168, 113, 170, 163, 101, 3, 0.686124
123, 3, bw, catch, NA, 999, 999, 4, 6, 123, 132, 133, 182, 89, 106, 1, 0.696391
123, 3, bw, catch, NA, 999, 999, 4, 6, 123, 132, 133, 182, 89, 106, 3, 1.01959
123, 3, bw, attraction, a-b-db, 9, 3, 4, 7, 114, 186, 120, 195, 195, 120, 2, 1.77661
123, 3, bw, attraction, a-b-db, 9, 3, 4, 7, 114, 186, 120, 195, 195, 120, 1, 0.343989
123, 3, bw, filler, NA, 999, 999, 4, 8, 189, 124, 163, 58, 56, 131, 1, 0.735719
123, 3, bw, filler, NA, 999, 999, 4, 8, 189, 124, 163, 58, 56, 131, 3, 0.68142
123, 3, bw, attraction, a-b-db, 2, 1, 4, 9, 135, 60, 59, 134, 60, 135, 1, 1.3014
123, 3, bw, attraction, a-b-db, 2, 1, 4, 9, 135, 60, 59, 134, 60, 135, 3, 1.23888
123, 3, bw, attraction, a-b-db, 2, 2, 4, 10, 90, 165, 89, 163, 165, 90, 3, 2.03497
123, 3, bw, attraction, a-b-db, 2, 2, 4, 10, 90, 165, 89, 163, 165, 90, 2, 0.888404
123, 3, bw, filler, NA, 999, 999, 4, 11, 127, 141, 182, 102, 154, 88, 2, 2.66671
123, 3, bw, filler, NA, 999, 999, 4, 11, 127, 141, 182, 102, 154, 88, 3, 0.366544
123, 3, bw, attraction, a-b-db, 5, 3, 4, 12, 117, 190, 195, 120, 120, 195, 2, 4.66967
123, 3, bw, attraction, a-b-db, 5, 3, 4, 12, 117, 190, 195, 120, 120, 195, 1, 0.84887
123, 3, bw, attraction, a-b-db, 5, 1, 4, 13, 60, 135, 58, 132, 135, 60, 1, 2.62061
123, 3, bw, attraction, a-b-db, 5, 1, 4, 13, 60, 135, 58, 132, 135, 60, 3, 0.618335
123, 3, bw, attraction, a-b-da, 14, 2, 4, 14, 90, 165, 153, 83, 165, 90, 1, 3.38337
123, 3, bw, attraction, a-b-da, 14, 2, 4, 14, 90, 165, 153, 83, 165, 90, 2, 0.502291
123, 3, bw, attraction, a-b-db, 14, 1, 4, 15, 135, 60, 56, 125, 60, 135, 3, 2.72023
123, 3, bw, attraction, a-b-db, 14, 1, 4, 15, 135, 60, 56, 125, 60, 135, 2, 0.386097
123, 3, bw, filler, NA, 999, 999, 4, 16, 64, 131, 91, 170, 58, 111, 2, 1.74448
123, 3, bw, filler, NA, 999, 999, 4, 16, 64, 131, 91, 170, 58, 111, 3, 2.65712
123, 3, bw, attraction, a-b-da, 9, 3, 4, 17, 186, 114, 195, 120, 120, 195, 2, 2.78761
123, 3, bw, attraction, a-b-da, 9, 3, 4, 17, 186, 114, 195, 120, 120, 195, 1, 0.410685
123, 3, bw, attraction, a-b-da, 5, 3, 4, 18, 190, 117, 120, 195, 195, 120, 2, 2.83179
123, 3, bw, attraction, a-b-da, 5, 3, 4, 18, 190, 117, 120, 195, 195, 120, 3, 0.324854
123, 3, bw, attraction, a-b-db, 14, 3, 4, 19, 111, 181, 120, 195, 195, 120, 2, 3.32542
123, 3, bw, attraction, a-b-db, 14, 3, 4, 19, 111, 181, 120, 195, 195, 120, 1, 0.470411
123, 3, bw, filler, NA, 999, 999, 4, 20, 104, 148, 150, 78, 125, 100, 1, 3.38542
123, 3, bw, filler, NA, 999, 999, 4, 20, 104, 148, 150, 78, 125, 100, 3, 0.920343
123, 3, bw, filler, NA, 999, 999, 4, 21, 146, 101, 154, 101, 113, 177, 2, 3.04142
123, 3, bw, filler, NA, 999, 999, 4, 21, 146, 101, 154, 101, 113, 177, 1, 0.430006
123, 3, bw, attraction, a-b-da, 2, 1, 4, 22, 135, 60, 60, 135, 134, 59, 1, 2.13825
123, 3, bw, attraction, a-b-da, 2, 1, 4, 22, 135, 60, 60, 135, 134, 59, 2, 1.37157
123, 3, bw, attraction, a-b-db, 2, 3, 4, 23, 195, 120, 119, 193, 120, 195, 2, 1.21032
123, 3, bw, attraction, a-b-db, 2, 3, 4, 23, 195, 120, 119, 193, 120, 195, 3, 0.936726
123, 3, bw, filler, NA, 999, 999, 4, 24, 142, 153, 137, 63, 177, 161, 3, 1.03304
123, 3, bw, filler, NA, 999, 999, 4, 24, 142, 153, 137, 63, 177, 161, 2, 0.590673
123, 3, bw, attraction, a-b-da, 9, 1, 4, 25, 135, 60, 129, 57, 60, 135, 2, 1.02037
123, 3, bw, attraction, a-b-da, 9, 1, 4, 25, 135, 60, 129, 57, 60, 135, 3, 0.732093
123, 3, bw, catch, NA, 999, 999, 4, 26, 102, 93, 140, 115, 121, 194, 3, 1.63526
123, 3, bw, catch, NA, 999, 999, 4, 26, 102, 93, 140, 115, 121, 194, 1, 0.608487
123, 3, bw, attraction, a-b-db, 14, 2, 4, 27, 83, 153, 165, 90, 90, 165, 2, 1.24566
123, 3, bw, attraction, a-b-db, 14, 2, 4, 27, 83, 153, 165, 90, 90, 165, 3, 0.586569
123, 3, bw, attraction, a-b-da, 9, 2, 4, 28, 157, 86, 90, 165, 165, 90, 1, 2.81694
123, 3, bw, attraction, a-b-da, 9, 2, 4, 28, 157, 86, 90, 165, 165, 90, 3, 0.590767
123, 3, bw, attraction, a-b-da, 5, 2, 4, 29, 165, 90, 90, 165, 161, 88, 2, 1.46043
123, 3, bw, attraction, a-b-da, 5, 2, 4, 29, 165, 90, 90, 165, 161, 88, 1, 0.488696
123, 3, bw, attraction, a-b-db, 9, 2, 4, 30, 165, 90, 90, 165, 86, 157, 3, 1.26708
123, 3, bw, attraction, a-b-db, 9, 2, 4, 30, 165, 90, 90, 165, 86, 157, 2, 1.4713
123, 3, bw, filler, NA, 999, 999, 4, 31, 139, 96, 193, 89, 61, 129, 2, 2.72209
123, 3, bw, filler, NA, 999, 999, 4, 31, 139, 96, 193, 89, 61, 129, 3, 1.04323
123, 3, bw, attraction, a-b-da, 2, 2, 4, 32, 163, 89, 165, 90, 90, 165, 3, 3.35896
123, 3, bw, attraction, a-b-da, 2, 2, 4, 32, 163, 89, 165, 90, 90, 165, 1, 0.80648
123, 3, bw, attraction, a-b-da, 14, 1, 4, 33, 135, 60, 60, 135, 125, 56, 2, 1.61218
123, 3, bw, attraction, a-b-da, 14, 1, 4, 33, 135, 60, 60, 135, 125, 56, 3, 0.578395
123, 3, bw, filler, NA, 999, 999, 4, 34, 83, 144, 188, 187, 111, 110, 2, 0.744745
123, 3, bw, filler, NA, 999, 999, 4, 34, 83, 144, 188, 187, 111, 110, 3, 0.89793
123, 3, bw, attraction, a-b-da, 14, 3, 4, 35, 120, 195, 195, 120, 181, 111, 1, 1.89151
123, 3, bw, attraction, a-b-da, 14, 3, 4, 35, 120, 195, 195, 120, 181, 111, 3, 0.758225
123, 3, bw, attraction, a-b-db, 9, 1, 4, 36, 57, 129, 60, 135, 135, 60, 2, 3.23724
123, 3, bw, attraction, a-b-db, 9, 1, 4, 36, 57, 129, 60, 135, 135, 60, 1, 1.05834
123, 3, bw, filler, NA, 999, 999, 4, 37, 176, 94, 113, 181, 129, 169, 3, 1.34106
123, 3, bw, filler, NA, 999, 999, 4, 37, 176, 94, 113, 181, 129, 169, 1, 0.65401
123, 3, bw, attraction, a-b-da, 14, 2, 5, 1, 153, 83, 165, 90, 90, 165, 2, 2.76045
123, 3, bw, attraction, a-b-da, 14, 2, 5, 1, 153, 83, 165, 90, 90, 165, 1, 0.936281
123, 3, bw, attraction, a-b-db, 5, 2, 5, 2, 90, 165, 165, 90, 88, 161, 2, 1.28852
123, 3, bw, attraction, a-b-db, 5, 2, 5, 2, 90, 165, 165, 90, 88, 161, 3, 0.395409
123, 3, bw, filler, NA, 999, 999, 5, 3, 194, 170, 152, 100, 84, 65, 1, 1.18511
123, 3, bw, filler, NA, 999, 999, 5, 3, 194, 170, 152, 100, 84, 65, 3, 0.776877
123, 3, bw, attraction, a-b-db, 14, 3, 5, 4, 195, 120, 111, 181, 120, 195, 3, 2.79926
123, 3, bw, attraction, a-b-db, 14, 3, 5, 4, 195, 120, 111, 181, 120, 195, 1, 0.917581
123, 3, bw, attraction, a-b-da, 2, 2, 5, 5, 165, 90, 90, 165, 163, 89, 1, 1.80665
123, 3, bw, attraction, a-b-da, 2, 2, 5, 5, 165, 90, 90, 165, 163, 89, 2, 1.02874
123, 3, bw, filler, NA, 999, 999, 5, 6, 80, 147, 60, 81, 130, 153, 3, 1.35296
123, 3, bw, filler, NA, 999, 999, 5, 6, 80, 147, 60, 81, 130, 153, 2, 0.721803
123, 3, bw, filler, NA, 999, 999, 5, 7, 68, 137, 57, 164, 121, 139, 3, 1.53895
123, 3, bw, filler, NA, 999, 999, 5, 7, 68, 137, 57, 164, 121, 139, 1, 0.667743
123, 3, bw, attraction, a-b-db, 9, 2, 5, 8, 165, 90, 86, 157, 90, 165, 1, 5.4148
123, 3, bw, attraction, a-b-db, 9, 2, 5, 8, 165, 90, 86, 157, 90, 165, 2, 0.451748
123, 3, bw, attraction, a-b-da, 5, 2, 5, 9, 90, 165, 161, 88, 165, 90, 2, 1.96754
123, 3, bw, attraction, a-b-da, 5, 2, 5, 9, 90, 165, 161, 88, 165, 90, 1, 0.567618
123, 3, bw, attraction, a-b-da, 9, 1, 5, 10, 60, 135, 135, 60, 129, 57, 1, 1.13475
123, 3, bw, attraction, a-b-da, 9, 1, 5, 10, 60, 135, 135, 60, 129, 57, 3, 0.376358
123, 3, bw, filler, NA, 999, 999, 5, 11, 172, 150, 162, 114, 114, 169, 1, 1.5427
123, 3, bw, filler, NA, 999, 999, 5, 11, 172, 150, 162, 114, 114, 169, 3, 0.319614
123, 3, bw, filler, NA, 999, 999, 5, 12, 108, 68, 97, 106, 120, 102, 3, 1.72084
123, 3, bw, filler, NA, 999, 999, 5, 12, 108, 68, 97, 106, 120, 102, 1, 0.890995
123, 3, bw, attraction, a-b-db, 2, 2, 5, 13, 90, 165, 165, 90, 89, 163, 1, 2.12453
123, 3, bw, attraction, a-b-db, 2, 2, 5, 13, 90, 165, 165, 90, 89, 163, 3, 0.293864
123, 3, bw, catch, NA, 999, 999, 5, 14, 180, 135, 151, 104, 112, 83, 1, 1.42381
123, 3, bw, catch, NA, 999, 999, 5, 14, 180, 135, 151, 104, 112, 83, 3, 0.861269
123, 3, bw, attraction, a-b-db, 2, 3, 5, 15, 119, 193, 195, 120, 120, 195, 3, 3.55234
123, 3, bw, attraction, a-b-db, 2, 3, 5, 15, 119, 193, 195, 120, 120, 195, 1, 0.72042
123, 3, bw, attraction, a-b-da, 9, 2, 5, 16, 157, 86, 90, 165, 165, 90, 2, 4.34564
123, 3, bw, attraction, a-b-da, 9, 2, 5, 16, 157, 86, 90, 165, 165, 90, 1, 0.633394
123, 3, bw, attraction, a-b-da, 5, 3, 5, 17, 120, 195, 195, 120, 190, 117, 1, 7.32587
123, 3, bw, attraction, a-b-da, 5, 3, 5, 17, 120, 195, 195, 120, 190, 117, 3, 0.965587
123, 3, bw, attraction, a-b-db, 5, 3, 5, 18, 117, 190, 120, 195, 195, 120, 2, 4.16461
123, 3, bw, attraction, a-b-db, 5, 3, 5, 18, 117, 190, 120, 195, 195, 120, 3, 1.02796
123, 3, bw, attraction, a-b-da, 14, 1, 5, 19, 135, 60, 60, 135, 125, 56, 1, 2.80012
123, 3, bw, attraction, a-b-da, 14, 1, 5, 19, 135, 60, 60, 135, 125, 56, 3, 1.39883
123, 3, bw, attraction, a-b-da, 5, 1, 5, 20, 135, 60, 132, 58, 60, 135, 1, 2.46815
123, 3, bw, attraction, a-b-da, 5, 1, 5, 20, 135, 60, 132, 58, 60, 135, 3, 0.768442
123, 3, bw, filler, NA, 999, 999, 5, 21, 87, 88, 97, 56, 85, 154, 3, 1.1112
123, 3, bw, filler, NA, 999, 999, 5, 21, 87, 88, 97, 56, 85, 154, 2, 1.08122
123, 3, bw, filler, NA, 999, 999, 5, 22, 64, 151, 116, 160, 92, 163, 2, 1.06745
123, 3, bw, filler, NA, 999, 999, 5, 22, 64, 151, 116, 160, 92, 163, 1, 0.415903
123, 3, bw, filler, NA, 999, 999, 5, 23, 113, 62, 92, 83, 94, 191, 3, 0.732939
123, 3, bw, filler, NA, 999, 999, 5, 23, 113, 62, 92, 83, 94, 191, 1, 2.46274
123, 3, bw, attraction, a-b-da, 2, 3, 5, 24, 120, 195, 195, 120, 193, 119, 1, 2.48915
123, 3, bw, attraction, a-b-da, 2, 3, 5, 24, 120, 195, 195, 120, 193, 119, 3, 0.835902
123, 3, bw, attraction, a-b-db, 14, 2, 5, 25, 165, 90, 90, 165, 83, 153, 2, 1.49627
123, 3, bw, attraction, a-b-db, 14, 2, 5, 25, 165, 90, 90, 165, 83, 153, 3, 1.139
123, 3, bw, filler, NA, 999, 999, 5, 26, 57, 119, 112, 58, 188, 169, 3, 0.77124
123, 3, bw, filler, NA, 999, 999, 5, 26, 57, 119, 112, 58, 188, 169, 1, 0.70769
123, 3, bw, attraction, a-b-db, 14, 1, 5, 27, 60, 135, 56, 125, 135, 60, 1, 1.44462
123, 3, bw, attraction, a-b-db, 14, 1, 5, 27, 60, 135, 56, 125, 135, 60, 3, 0.769563
123, 3, bw, attraction, a-b-db, 5, 1, 5, 28, 135, 60, 60, 135, 58, 132, 3, 1.26457
123, 3, bw, attraction, a-b-db, 5, 1, 5, 28, 135, 60, 60, 135, 58, 132, 1, 1.58077
123, 3, bw, attraction, a-b-da, 14, 3, 5, 29, 195, 120, 181, 111, 120, 195, 1, 1.07479
123, 3, bw, attraction, a-b-da, 14, 3, 5, 29, 195, 120, 181, 111, 120, 195, 2, 0.438599
123, 3, bw, attraction, a-b-db, 9, 3, 5, 30, 120, 195, 114, 186, 195, 120, 2, 0.907023
123, 3, bw, attraction, a-b-db, 9, 3, 5, 30, 120, 195, 114, 186, 195, 120, 3, 0.46129
123, 3, bw, attraction, a-b-db, 2, 1, 5, 31, 135, 60, 59, 134, 60, 135, 2, 3.00054
123, 3, bw, attraction, a-b-db, 2, 1, 5, 31, 135, 60, 59, 134, 60, 135, 3, 0.398794
123, 3, bw, attraction, a-b-da, 9, 3, 5, 32, 120, 195, 186, 114, 195, 120, 1, 4.50873
123, 3, bw, attraction, a-b-da, 9, 3, 5, 32, 120, 195, 186, 114, 195, 120, 2, 0.565879
123, 3, bw, attraction, a-b-db, 9, 1, 5, 33, 60, 135, 57, 129, 135, 60, 3, 2.421
123, 3, bw, attraction, a-b-db, 9, 1, 5, 33, 60, 135, 57, 129, 135, 60, 1, 0.562903
123, 3, bw, attraction, a-b-da, 2, 1, 5, 34, 60, 135, 135, 60, 134, 59, 3, 1.426
123, 3, bw, attraction, a-b-da, 2, 1, 5, 34, 60, 135, 135, 60, 134, 59, 2, 0.56752
123, 3, bw, filler, NA, 999, 999, 5, 35, 85, 165, 89, 75, 193, 64, 1, 1.04665
123, 3, bw, filler, NA, 999, 999, 5, 35, 85, 165, 89, 75, 193, 64, 2, 0.55556
123, 3, bw, catch, NA, 999, 999, 5, 36, 147, 168, 165, 90, 105, 90, 1, 1.09136
123, 3, bw, catch, NA, 999, 999, 5, 36, 147, 168, 165, 90, 105, 90, 3, 0.598381
123, 3, bw, catch, NA, 999, 999, 5, 37, 175, 140, 130, 65, 164, 91, 1, 0.820056
123, 3, bw, catch, NA, 999, 999, 5, 37, 175, 140, 130, 65, 164, 91, 2, 0.442428
123, 3, bw, filler, NA, 999, 999, 6, 1, 91, 168, 163, 190, 99, 103, 2, 1.33428
123, 3, bw, filler, NA, 999, 999, 6, 1, 91, 168, 163, 190, 99, 103, 3, 0.399764
123, 3, bw, attraction, a-b-db, 2, 1, 6, 2, 135, 60, 60, 135, 59, 134, 1, 1.84572
123, 3, bw, attraction, a-b-db, 2, 1, 6, 2, 135, 60, 60, 135, 59, 134, 2, 0.506401
123, 3, bw, filler, NA, 999, 999, 6, 3, 58, 137, 59, 119, 154, 102, 3, 0.596318
123, 3, bw, filler, NA, 999, 999, 6, 3, 58, 137, 59, 119, 154, 102, 2, 0.52329
123, 3, bw, catch, NA, 999, 999, 6, 4, 67, 128, 148, 167, 92, 163, 2, 0.628489
123, 3, bw, catch, NA, 999, 999, 6, 4, 67, 128, 148, 167, 92, 163, 1, 0.466228
123, 3, bw, catch, NA, 999, 999, 6, 5, 161, 154, 130, 125, 67, 128, 1, 0.629325
123, 3, bw, catch, NA, 999, 999, 6, 5, 161, 154, 130, 125, 67, 128, 3, 0.427063
123, 3, bw, attraction, a-b-db, 14, 2, 6, 6, 165, 90, 83, 153, 90, 165, 1, 1.39967
123, 3, bw, attraction, a-b-db, 14, 2, 6, 6, 165, 90, 83, 153, 90, 165, 2, 0.446401
123, 3, bw, attraction, a-b-da, 9, 1, 6, 7, 135, 60, 129, 57, 60, 135, 1, 0.642179
123, 3, bw, attraction, a-b-da, 9, 1, 6, 7, 135, 60, 129, 57, 60, 135, 3, 0.34339
123, 3, bw, filler, NA, 999, 999, 6, 8, 157, 146, 78, 56, 59, 130, 1, 0.527199
123, 3, bw, filler, NA, 999, 999, 6, 8, 157, 146, 78, 56, 59, 130, 2, 0.385055
123, 3, bw, attraction, a-b-db, 5, 1, 6, 9, 58, 132, 135, 60, 60, 135, 2, 0.863433
123, 3, bw, attraction, a-b-db, 5, 1, 6, 9, 58, 132, 135, 60, 60, 135, 1, 0.331773
123, 3, bw, filler, NA, 999, 999, 6, 10, 61, 195, 141, 132, 79, 120, 2, 2.07639
123, 3, bw, filler, NA, 999, 999, 6, 10, 61, 195, 141, 132, 79, 120, 3, 0.575621
123, 3, bw, attraction, a-b-da, 14, 2, 6, 11, 153, 83, 90, 165, 165, 90, 1, 0.918092
123, 3, bw, attraction, a-b-da, 14, 2, 6, 11, 153, 83, 90, 165, 165, 90, 3, 0.800474
123, 3, bw, attraction, a-b-da, 5, 3, 6, 12, 190, 117, 195, 120, 120, 195, 2, 1.41413
123, 3, bw, attraction, a-b-da, 5, 3, 6, 12, 190, 117, 195, 120, 120, 195, 1, 0.484275
123, 3, bw, attraction, a-b-da, 14, 1, 6, 13, 125, 56, 135, 60, 60, 135, 1, 1.07094
123, 3, bw, attraction, a-b-da, 14, 1, 6, 13, 125, 56, 135, 60, 60, 135, 2, 0.338412
123, 3, bw, attraction, a-b-db, 2, 3, 6, 14, 120, 195, 119, 193, 195, 120, 1, 2.28293
123, 3, bw, attraction, a-b-db, 2, 3, 6, 14, 120, 195, 119, 193, 195, 120, 3, 0.286293
123, 3, bw, attraction, a-b-da, 2, 1, 6, 15, 60, 135, 135, 60, 134, 59, 3, 1.23273
123, 3, bw, attraction, a-b-da, 2, 1, 6, 15, 60, 135, 135, 60, 134, 59, 2, 0.374317
123, 3, bw, filler, NA, 999, 999, 6, 16, 148, 145, 183, 170, 135, 90, 2, 1.41275
123, 3, bw, filler, NA, 999, 999, 6, 16, 148, 145, 183, 170, 135, 90, 3, 1.35502
123, 3, bw, attraction, a-b-db, 5, 3, 6, 17, 195, 120, 117, 190, 120, 195, 2, 2.02651
123, 3, bw, attraction, a-b-db, 5, 3, 6, 17, 195, 120, 117, 190, 120, 195, 1, 0.463779
123, 3, bw, filler, NA, 999, 999, 6, 18, 113, 126, 192, 118, 163, 69, 2, 2.16297
123, 3, bw, filler, NA, 999, 999, 6, 18, 113, 126, 192, 118, 163, 69, 3, 0.642906
123, 3, bw, attraction, a-b-db, 5, 2, 6, 19, 165, 90, 90, 165, 88, 161, 1, 0.742671
123, 3, bw, attraction, a-b-db, 5, 2, 6, 19, 165, 90, 90, 165, 88, 161, 2, 0.716012
123, 3, bw, attraction, a-b-da, 9, 3, 6, 20, 195, 120, 120, 195, 186, 114, 2, 2.2249
123, 3, bw, attraction, a-b-da, 9, 3, 6, 20, 195, 120, 120, 195, 186, 114, 1, 0.318061
123, 3, bw, filler, NA, 999, 999, 6, 21, 157, 141, 123, 185, 158, 107, 1, 0.759212
123, 3, bw, filler, NA, 999, 999, 6, 21, 157, 141, 123, 185, 158, 107, 3, 0.463697
123, 3, bw, attraction, a-b-db, 2, 2, 6, 22, 90, 165, 165, 90, 89, 163, 2, 0.786758
123, 3, bw, attraction, a-b-db, 2, 2, 6, 22, 90, 165, 165, 90, 89, 163, 1, 0.426559
123, 3, bw, attraction, a-b-da, 14, 3, 6, 23, 181, 111, 120, 195, 195, 120, 2, 1.04698
123, 3, bw, attraction, a-b-da, 14, 3, 6, 23, 181, 111, 120, 195, 195, 120, 1, 1.468
123, 3, bw, attraction, a-b-da, 9, 2, 6, 24, 157, 86, 165, 90, 90, 165, 1, 0.97477
123, 3, bw, attraction, a-b-da, 9, 2, 6, 24, 157, 86, 165, 90, 90, 165, 3, 0.22244
123, 3, bw, attraction, a-b-da, 5, 1, 6, 25, 135, 60, 132, 58, 60, 135, 2, 0.795653
123, 3, bw, attraction, a-b-da, 5, 1, 6, 25, 135, 60, 132, 58, 60, 135, 1, 0.826737
123, 3, bw, catch, NA, 999, 999, 6, 26, 183, 132, 75, 120, 163, 92, 1, 0.863068
123, 3, bw, catch, NA, 999, 999, 6, 26, 183, 132, 75, 120, 163, 92, 2, 0.651443
123, 3, bw, attraction, a-b-db, 14, 3, 6, 27, 195, 120, 120, 195, 111, 181, 2, 1.86325
123, 3, bw, attraction, a-b-db, 14, 3, 6, 27, 195, 120, 120, 195, 111, 181, 3, 0.595317
123, 3, bw, attraction, a-b-da, 2, 2, 6, 28, 165, 90, 163, 89, 90, 165, 2, 1.77698
123, 3, bw, attraction, a-b-da, 2, 2, 6, 28, 165, 90, 163, 89, 90, 165, 1, 0.424444
123, 3, bw, filler, NA, 999, 999, 6, 29, 103, 64, 192, 184, 122, 171, 2, 1.49296
123, 3, bw, filler, NA, 999, 999, 6, 29, 103, 64, 192, 184, 122, 171, 1, 0.607712
123, 3, bw, filler, NA, 999, 999, 6, 30, 152, 153, 92, 123, 147, 181, 3, 3.79685
123, 3, bw, filler, NA, 999, 999, 6, 30, 152, 153, 92, 123, 147, 181, 2, 0.56297
123, 3, bw, attraction, a-b-db, 14, 1, 6, 31, 135, 60, 56, 125, 60, 135, 1, 0.81796
123, 3, bw, attraction, a-b-db, 14, 1, 6, 31, 135, 60, 56, 125, 60, 135, 2, 0.384322
123, 3, bw, attraction, a-b-db, 9, 3, 6, 32, 120, 195, 114, 186, 195, 120, 3, 1.55885
123, 3, bw, attraction, a-b-db, 9, 3, 6, 32, 120, 195, 114, 186, 195, 120, 1, 0.391077
123, 3, bw, attraction, a-b-db, 9, 1, 6, 33, 57, 129, 135, 60, 60, 135, 2, 0.605304
123, 3, bw, attraction, a-b-db, 9, 1, 6, 33, 57, 129, 135, 60, 60, 135, 1, 0.315268
123, 3, bw, attraction, a-b-da, 2, 3, 6, 34, 120, 195, 195, 120, 193, 119, 2, 1.02045
123, 3, bw, attraction, a-b-da, 2, 3, 6, 34, 120, 195, 195, 120, 193, 119, 1, 0.306748
123, 3, bw, filler, NA, 999, 999, 6, 35, 132, 136, 164, 68, 91, 97, 1, 0.908012
123, 3, bw, filler, NA, 999, 999, 6, 35, 132, 136, 164, 68, 91, 97, 3, 0.451923
123, 3, bw, attraction, a-b-da, 5, 2, 6, 36, 161, 88, 90, 165, 165, 90, 1, 0.650107
123, 3, bw, attraction, a-b-da, 5, 2, 6, 36, 161, 88, 90, 165, 165, 90, 2, 0.511272
123, 3, bw, attraction, a-b-db, 9, 2, 6, 37, 90, 165, 165, 90, 86, 157, 2, 1.29636
123, 3, bw, attraction, a-b-db, 9, 2, 6, 37, 90, 165, 165, 90, 86, 157, 3, 0.571294
123, 3, bw, filler, NA, 999, 999, 7, 1, 178, 154, 79, 77, 165, 193, 3, 0.890485
123, 3, bw, filler, NA, 999, 999, 7, 1, 178, 154, 79, 77, 165, 193, 2, 0.389371
123, 3, bw, attraction, a-b-da, 2, 2, 7, 2, 165, 90, 90, 165, 163, 89, 2, 0.979843
123, 3, bw, attraction, a-b-da, 2, 2, 7, 2, 165, 90, 90, 165, 163, 89, 3, 0.763694
123, 3, bw, filler, NA, 999, 999, 7, 3, 183, 147, 147, 169, 91, 152, 1, 1.23461
123, 3, bw, filler, NA, 999, 999, 7, 3, 183, 147, 147, 169, 91, 152, 3, 0.624288
123, 3, bw, filler, NA, 999, 999, 7, 4, 192, 173, 189, 87, 56, 127, 1, 0.804712
123, 3, bw, filler, NA, 999, 999, 7, 4, 192, 173, 189, 87, 56, 127, 3, 0.563763
123, 3, bw, attraction, a-b-db, 2, 1, 7, 5, 59, 134, 135, 60, 60, 135, 2, 1.12265
123, 3, bw, attraction, a-b-db, 2, 1, 7, 5, 59, 134, 135, 60, 60, 135, 1, 0.660356
123, 3, bw, catch, NA, 999, 999, 7, 6, 105, 150, 109, 86, 148, 167, 3, 0.807381
123, 3, bw, catch, NA, 999, 999, 7, 6, 105, 150, 109, 86, 148, 167, 2, 0.389908
123, 3, bw, filler, NA, 999, 999, 7, 7, 159, 85, 118, 61, 77, 81, 1, 0.796379
123, 3, bw, filler, NA, 999, 999, 7, 7, 159, 85, 118, 61, 77, 81, 3, 0.651431
123, 3, bw, catch, NA, 999, 999, 7, 8, 106, 89, 107, 148, 172, 143, 3, 0.671098
123, 3, bw, catch, NA, 999, 999, 7, 8, 106, 89, 107, 148, 172, 143, 1, 0.459591
123, 3, bw, attraction, a-b-db, 9, 3, 7, 9, 114, 186, 195, 120, 120, 195, 2, 3.67086
123, 3, bw, attraction, a-b-db, 9, 3, 7, 9, 114, 186, 195, 120, 120, 195, 1, 0.79418
123, 3, bw, attraction, a-b-da, 14, 3, 7, 10, 181, 111, 195, 120, 120, 195, 2, 1.63189
123, 3, bw, attraction, a-b-da, 14, 3, 7, 10, 181, 111, 195, 120, 120, 195, 1, 0.517297
123, 3, bw, filler, NA, 999, 999, 7, 11, 133, 80, 126, 187, 105, 92, 2, 0.774488
123, 3, bw, filler, NA, 999, 999, 7, 11, 133, 80, 126, 187, 105, 92, 3, 3.31035
123, 3, bw, attraction, a-b-da, 5, 3, 7, 12, 195, 120, 190, 117, 120, 195, 3, 1.67031
123, 3, bw, attraction, a-b-da, 5, 3, 7, 12, 195, 120, 190, 117, 120, 195, 1, 0.834516
123, 3, bw, attraction, a-b-da, 2, 3, 7, 13, 195, 120, 193, 119, 120, 195, 2, 2.73491
123, 3, bw, attraction, a-b-da, 2, 3, 7, 13, 195, 120, 193, 119, 120, 195, 1, 0.552029
123, 3, bw, attraction, a-b-da, 5, 1, 7, 14, 60, 135, 132, 58, 135, 60, 1, 2.23185
123, 3, bw, attraction, a-b-da, 5, 1, 7, 14, 60, 135, 132, 58, 135, 60, 2, 0.669106
123, 3, bw, attraction, a-b-db, 14, 3, 7, 15, 120, 195, 111, 181, 195, 120, 3, 2.4721
123, 3, bw, attraction, a-b-db, 14, 3, 7, 15, 120, 195, 111, 181, 195, 120, 2, 0.323381
123, 3, bw, attraction, a-b-da, 5, 2, 7, 16, 90, 165, 161, 88, 165, 90, 2, 1.0598
123, 3, bw, attraction, a-b-da, 5, 2, 7, 16, 90, 165, 161, 88, 165, 90, 1, 0.26411
123, 3, bw, filler, NA, 999, 999, 7, 17, 76, 101, 161, 69, 163, 123, 3, 0.651322
123, 3, bw, filler, NA, 999, 999, 7, 17, 76, 101, 161, 69, 163, 123, 1, 0.520434
123, 3, bw, filler, NA, 999, 999, 7, 18, 173, 137, 176, 191, 100, 136, 2, 0.985567
123, 3, bw, filler, NA, 999, 999, 7, 18, 173, 137, 176, 191, 100, 136, 3, 0.297163
123, 3, bw, attraction, a-b-db, 5, 2, 7, 19, 88, 161, 90, 165, 165, 90, 3, 0.995015
123, 3, bw, attraction, a-b-db, 5, 2, 7, 19, 88, 161, 90, 165, 165, 90, 2, 0.538117
123, 3, bw, attraction, a-b-da, 14, 1, 7, 20, 125, 56, 135, 60, 60, 135, 1, 0.994559
123, 3, bw, attraction, a-b-da, 14, 1, 7, 20, 125, 56, 135, 60, 60, 135, 3, 1.00145
123, 3, bw, attraction, a-b-db, 2, 3, 7, 21, 195, 120, 120, 195, 119, 193, 2, 1.36707
123, 3, bw, attraction, a-b-db, 2, 3, 7, 21, 195, 120, 120, 195, 119, 193, 1, 0.559291
123, 3, bw, attraction, a-b-db, 5, 3, 7, 22, 117, 190, 195, 120, 120, 195, 2, 1.31843
123, 3, bw, attraction, a-b-db, 5, 3, 7, 22, 117, 190, 195, 120, 120, 195, 1, 0.360651
123, 3, bw, attraction, a-b-db, 2, 2, 7, 23, 89, 163, 90, 165, 165, 90, 1, 3.13583
123, 3, bw, attraction, a-b-db, 2, 2, 7, 23, 89, 163, 90, 165, 165, 90, 2, 0.560765
123, 3, bw, catch, NA, 999, 999, 7, 24, 104, 91, 124, 131, 149, 166, 3, 1.11184
123, 3, bw, catch, NA, 999, 999, 7, 24, 104, 91, 124, 131, 149, 166, 1, 0.410134
123, 3, bw, attraction, a-b-da, 9, 2, 7, 25, 165, 90, 157, 86, 90, 165, 1, 3.14328
123, 3, bw, attraction, a-b-da, 9, 2, 7, 25, 165, 90, 157, 86, 90, 165, 3, 0.463618
123, 3, bw, attraction, a-b-db, 9, 1, 7, 26, 57, 129, 60, 135, 135, 60, 3, 2.53073
123, 3, bw, attraction, a-b-db, 9, 1, 7, 26, 57, 129, 60, 135, 135, 60, 1, 0.564076
123, 3, bw, attraction, a-b-da, 9, 1, 7, 27, 60, 135, 129, 57, 135, 60, 3, 0.979167
123, 3, bw, attraction, a-b-da, 9, 1, 7, 27, 60, 135, 129, 57, 135, 60, 2, 0.794722
123, 3, bw, attraction, a-b-da, 2, 1, 7, 28, 135, 60, 134, 59, 60, 135, 1, 1.02444
123, 3, bw, attraction, a-b-da, 2, 1, 7, 28, 135, 60, 134, 59, 60, 135, 3, 0.790201
123, 3, bw, attraction, a-b-db, 14, 1, 7, 29, 56, 125, 135, 60, 60, 135, 3, 1.23575
123, 3, bw, attraction, a-b-db, 14, 1, 7, 29, 56, 125, 135, 60, 60, 135, 1, 0.433305
123, 3, bw, attraction, a-b-da, 9, 3, 7, 30, 120, 195, 186, 114, 195, 120, 1, 2.48584
123, 3, bw, attraction, a-b-da, 9, 3, 7, 30, 120, 195, 186, 114, 195, 120, 2, 0.385054
123, 3, bw, attraction, a-b-db, 14, 2, 7, 31, 165, 90, 90, 165, 83, 153, 1, 3.86354
123, 3, bw, attraction, a-b-db, 14, 2, 7, 31, 165, 90, 90, 165, 83, 153, 3, 0.378891
123, 3, bw, attraction, a-b-db, 5, 1, 7, 32, 58, 132, 135, 60, 60, 135, 2, 1.85739
123, 3, bw, attraction, a-b-db, 5, 1, 7, 32, 58, 132, 135, 60, 60, 135, 1, 0.317456
123, 3, bw, attraction, a-b-da, 14, 2, 7, 33, 165, 90, 90, 165, 153, 83, 2, 1.40659
123, 3, bw, attraction, a-b-da, 14, 2, 7, 33, 165, 90, 90, 165, 153, 83, 1, 0.500935
123, 3, bw, filler, NA, 999, 999, 7, 34, 56, 92, 59, 138, 187, 175, 3, 0.590726
123, 3, bw, filler, NA, 999, 999, 7, 34, 56, 92, 59, 138, 187, 175, 1, 0.493874
123, 3, bw, filler, NA, 999, 999, 7, 35, 109, 184, 188, 134, 120, 119, 2, 1.19168
123, 3, bw, filler, NA, 999, 999, 7, 35, 109, 184, 188, 134, 120, 119, 3, 0.326528
123, 3, bw, attraction, a-b-db, 9, 2, 7, 36, 165, 90, 90, 165, 86, 157, 1, 1.45495
123, 3, bw, attraction, a-b-db, 9, 2, 7, 36, 165, 90, 90, 165, 86, 157, 3, 0.307805
123, 3, bw, filler, NA, 999, 999, 7, 37, 86, 126, 64, 66, 95, 178, 3, 0.66101
123, 3, bw, filler, NA, 999, 999, 7, 37, 86, 126, 64, 66, 95, 178, 2, 0.401409
123, 3, bw, catch, NA, 999, 999, 8, 1, 155, 100, 123, 72, 156, 159, 3, 1.07925
123, 3, bw, catch, NA, 999, 999, 8, 1, 155, 100, 123, 72, 156, 159, 2, 0.570879
123, 3, bw, attraction, a-b-db, 9, 3, 8, 2, 195, 120, 120, 195, 114, 186, 1, 1.41807
123, 3, bw, attraction, a-b-db, 9, 3, 8, 2, 195, 120, 120, 195, 114, 186, 3, 0.31218
123, 3, bw, attraction, a-b-db, 5, 2, 8, 3, 90, 165, 88, 161, 165, 90, 1, 1.6094
123, 3, bw, attraction, a-b-db, 5, 2, 8, 3, 90, 165, 88, 161, 165, 90, 3, 0.535626
123, 3, bw, attraction, a-b-da, 9, 1, 8, 4, 60, 135, 129, 57, 135, 60, 1, 0.727985
123, 3, bw, attraction, a-b-da, 9, 1, 8, 4, 60, 135, 129, 57, 135, 60, 3, 0.529714
123, 3, bw, filler, NA, 999, 999, 8, 5, 150, 136, 97, 68, 76, 60, 1, 0.586192
123, 3, bw, filler, NA, 999, 999, 8, 5, 150, 136, 97, 68, 76, 60, 3, 0.666011
123, 3, bw, catch, NA, 999, 999, 8, 6, 173, 142, 146, 109, 115, 80, 1, 1.125
123, 3, bw, catch, NA, 999, 999, 8, 6, 173, 142, 146, 109, 115, 80, 3, 0.478645
123, 3, bw, attraction, a-b-db, 14, 1, 8, 7, 56, 125, 60, 135, 135, 60, 3, 1.36913
123, 3, bw, attraction, a-b-db, 14, 1, 8, 7, 56, 125, 60, 135, 135, 60, 1, 0.457363
123, 3, bw, attraction, a-b-da, 14, 1, 8, 8, 60, 135, 135, 60, 125, 56, 2, 1.42044
123, 3, bw, attraction, a-b-da, 14, 1, 8, 8, 60, 135, 135, 60, 125, 56, 1, 0.546737
123, 3, bw, filler, NA, 999, 999, 8, 9, 60, 181, 94, 114, 190, 161, 3, 0.746521
123, 3, bw, filler, NA, 999, 999, 8, 9, 60, 181, 94, 114, 190, 161, 2, 0.395471
123, 3, bw, attraction, a-b-db, 2, 3, 8, 10, 119, 193, 120, 195, 195, 120, 1, 2.56924
123, 3, bw, attraction, a-b-db, 2, 3, 8, 10, 119, 193, 120, 195, 195, 120, 2, 0.929155
123, 3, bw, catch, NA, 999, 999, 8, 11, 125, 70, 101, 154, 177, 138, 3, 1.01753
123, 3, bw, catch, NA, 999, 999, 8, 11, 125, 70, 101, 154, 177, 138, 1, 0.391753
123, 3, bw, filler, NA, 999, 999, 8, 12, 56, 118, 156, 176, 100, 164, 2, 0.789627
123, 3, bw, filler, NA, 999, 999, 8, 12, 56, 118, 156, 176, 100, 164, 1, 0.508639
123, 3, bw, filler, NA, 999, 999, 8, 13, 84, 76, 104, 93, 165, 61, 2, 1.56573
123, 3, bw, filler, NA, 999, 999, 8, 13, 84, 76, 104, 93, 165, 61, 1, 0.829898
123, 3, bw, filler, NA, 999, 999, 8, 14, 160, 180, 83, 168, 132, 74, 1, 0.778268
123, 3, bw, filler, NA, 999, 999, 8, 14, 160, 180, 83, 168, 132, 74, 3, 0.457934
123, 3, bw, attraction, a-b-da, 9, 3, 8, 15, 120, 195, 186, 114, 195, 120, 1, 1.55711
123, 3, bw, attraction, a-b-da, 9, 3, 8, 15, 120, 195, 186, 114, 195, 120, 2, 0.53339
123, 3, bw, attraction, a-b-db, 5, 1, 8, 16, 60, 135, 135, 60, 58, 132, 2, 1.42985
123, 3, bw, attraction, a-b-db, 5, 1, 8, 16, 60, 135, 135, 60, 58, 132, 3, 0.467302
123, 3, bw, attraction, a-b-db, 2, 1, 8, 17, 60, 135, 135, 60, 59, 134, 1, 1.67044
123, 3, bw, attraction, a-b-db, 2, 1, 8, 17, 60, 135, 135, 60, 59, 134, 2, 0.610475
123, 3, bw, filler, NA, 999, 999, 8, 18, 65, 177, 60, 153, 173, 91, 3, 1.92772
123, 3, bw, filler, NA, 999, 999, 8, 18, 65, 177, 60, 153, 173, 91, 2, 0.504861
123, 3, bw, attraction, a-b-db, 14, 2, 8, 19, 165, 90, 90, 165, 83, 153, 2, 1.83472
123, 3, bw, attraction, a-b-db, 14, 2, 8, 19, 165, 90, 90, 165, 83, 153, 3, 0.528204
123, 3, bw, attraction, a-b-da, 14, 2, 8, 20, 165, 90, 153, 83, 90, 165, 1, 1.76064
123, 3, bw, attraction, a-b-da, 14, 2, 8, 20, 165, 90, 153, 83, 90, 165, 2, 0.416641
123, 3, bw, filler, NA, 999, 999, 8, 21, 154, 122, 84, 139, 195, 174, 3, 0.9498
123, 3, bw, filler, NA, 999, 999, 8, 21, 154, 122, 84, 139, 195, 174, 2, 0.526809
123, 3, bw, attraction, a-b-db, 9, 1, 8, 22, 60, 135, 57, 129, 135, 60, 1, 2.63131
123, 3, bw, attraction, a-b-db, 9, 1, 8, 22, 60, 135, 57, 129, 135, 60, 2, 0.324495
123, 3, bw, attraction, a-b-da, 2, 1, 8, 23, 60, 135, 134, 59, 135, 60, 2, 2.56499
123, 3, bw, attraction, a-b-da, 2, 1, 8, 23, 60, 135, 134, 59, 135, 60, 1, 0.252736
123, 3, bw, attraction, a-b-da, 5, 3, 8, 24, 120, 195, 190, 117, 195, 120, 2, 1.46463
123, 3, bw, attraction, a-b-da, 5, 3, 8, 24, 120, 195, 190, 117, 195, 120, 1, 0.276722
123, 3, bw, attraction, a-b-db, 9, 2, 8, 25, 86, 157, 165, 90, 90, 165, 2, 1.0633
123, 3, bw, attraction, a-b-db, 9, 2, 8, 25, 86, 157, 165, 90, 90, 165, 1, 0.227664
123, 3, bw, attraction, a-b-da, 5, 1, 8, 26, 135, 60, 60, 135, 132, 58, 1, 1.86413
123, 3, bw, attraction, a-b-da, 5, 1, 8, 26, 135, 60, 60, 135, 132, 58, 2, 0.316201
123, 3, bw, filler, NA, 999, 999, 8, 27, 180, 98, 149, 140, 99, 128, 2, 0.957438
123, 3, bw, filler, NA, 999, 999, 8, 27, 180, 98, 149, 140, 99, 128, 3, 0.253814
123, 3, bw, attraction, a-b-da, 5, 2, 8, 28, 161, 88, 90, 165, 165, 90, 2, 1.34553
123, 3, bw, attraction, a-b-da, 5, 2, 8, 28, 161, 88, 90, 165, 165, 90, 1, 0.394483
123, 3, bw, filler, NA, 999, 999, 8, 29, 58, 131, 72, 83, 180, 120, 3, 0.600254
123, 3, bw, filler, NA, 999, 999, 8, 29, 58, 131, 72, 83, 180, 120, 2, 0.455505
123, 3, bw, attraction, a-b-da, 14, 3, 8, 30, 181, 111, 195, 120, 120, 195, 2, 1.37937
123, 3, bw, attraction, a-b-da, 14, 3, 8, 30, 181, 111, 195, 120, 120, 195, 1, 0.30673
123, 3, bw, filler, NA, 999, 999, 8, 31, 161, 82, 74, 66, 161, 184, 3, 0.619954
123, 3, bw, filler, NA, 999, 999, 8, 31, 161, 82, 74, 66, 161, 184, 2, 0.57044
123, 3, bw, attraction, a-b-da, 2, 3, 8, 32, 193, 119, 195, 120, 120, 195, 2, 3.02543
123, 3, bw, attraction, a-b-da, 2, 3, 8, 32, 193, 119, 195, 120, 120, 195, 1, 0.198582
123, 3, bw, attraction, a-b-da, 9, 2, 8, 33, 165, 90, 157, 86, 90, 165, 3, 6.66845
123, 3, bw, attraction, a-b-da, 9, 2, 8, 33, 165, 90, 157, 86, 90, 165, 2, 0.631063
123, 3, bw, attraction, a-b-db, 2, 2, 8, 34, 90, 165, 89, 163, 165, 90, 2, 2.61936
123, 3, bw, attraction, a-b-db, 2, 2, 8, 34, 90, 165, 89, 163, 165, 90, 3, 0.465394
123, 3, bw, attraction, a-b-db, 5, 3, 8, 35, 117, 190, 120, 195, 195, 120, 2, 2.1804
123, 3, bw, attraction, a-b-db, 5, 3, 8, 35, 117, 190, 120, 195, 195, 120, 1, 0.339583
123, 3, bw, attraction, a-b-da, 2, 2, 8, 36, 90, 165, 163, 89, 165, 90, 3, 3.1882
123, 3, bw, attraction, a-b-da, 2, 2, 8, 36, 90, 165, 163, 89, 165, 90, 1, 0.483118
123, 3, bw, attraction, a-b-db, 14, 3, 8, 37, 111, 181, 195, 120, 120, 195, 3, 3.82964
123, 3, bw, attraction, a-b-db, 14, 3, 8, 37, 111, 181, 195, 120, 120, 195, 1, 0.330396
