sub_n, computer_n, bw_cond, effect, set, distance, diag, block_n, trial_n, h1, w1, h2, w2, h3, w3, choice, rt 
180, 3, wb, practice, NA, 999, 999, 0, 1, 100, 129, 140, 80, 143, 59, 3, 7.04934
180, 3, wb, practice, NA, 999, 999, 0, 1, 100, 129, 140, 80, 143, 59, 1, 2.73228
180, 3, wb, practice, NA, 999, 999, 0, 2, 66, 91, 131, 89, 186, 157, 1, 2.15412
180, 3, wb, practice, NA, 999, 999, 0, 2, 66, 91, 131, 89, 186, 157, 3, 1.94556
180, 3, wb, practice, NA, 999, 999, 0, 3, 115, 71, 97, 131, 181, 68, 1, 3.04494
180, 3, wb, practice, NA, 999, 999, 0, 3, 115, 71, 97, 131, 181, 68, 2, 1.56896
180, 3, wb, attraction, a-b-db, 14, 1, 1, 1, 135, 60, 56, 125, 60, 135, 2, 3.1664
180, 3, wb, attraction, a-b-db, 14, 1, 1, 1, 135, 60, 56, 125, 60, 135, 3, 1.89411
180, 3, wb, attraction, a-b-db, 5, 3, 1, 2, 120, 195, 117, 190, 195, 120, 2, 4.25541
180, 3, wb, attraction, a-b-db, 5, 3, 1, 2, 120, 195, 117, 190, 195, 120, 1, 1.85883
180, 3, wb, filler, NA, 999, 999, 1, 3, 184, 59, 66, 183, 69, 116, 3, 1.35744
180, 3, wb, filler, NA, 999, 999, 1, 3, 184, 59, 66, 183, 69, 116, 2, 1.4457
180, 3, wb, filler, NA, 999, 999, 1, 4, 92, 123, 88, 115, 143, 174, 2, 1.10521
180, 3, wb, filler, NA, 999, 999, 1, 4, 92, 123, 88, 115, 143, 174, 3, 0.515476
180, 3, wb, attraction, a-b-db, 5, 1, 1, 5, 135, 60, 60, 135, 58, 132, 1, 2.27663
180, 3, wb, attraction, a-b-db, 5, 1, 1, 5, 135, 60, 60, 135, 58, 132, 2, 2.85593
180, 3, wb, attraction, a-b-da, 9, 2, 1, 6, 157, 86, 90, 165, 165, 90, 3, 4.60283
180, 3, wb, attraction, a-b-da, 9, 2, 1, 6, 157, 86, 90, 165, 165, 90, 2, 1.02468
180, 3, wb, filler, NA, 999, 999, 1, 7, 114, 134, 72, 59, 83, 167, 2, 0.933105
180, 3, wb, filler, NA, 999, 999, 1, 7, 114, 134, 72, 59, 83, 167, 1, 0.830707
180, 3, wb, filler, NA, 999, 999, 1, 8, 191, 64, 78, 171, 86, 65, 3, 1.25101
180, 3, wb, filler, NA, 999, 999, 1, 8, 191, 64, 78, 171, 86, 65, 2, 0.871977
180, 3, wb, filler, NA, 999, 999, 1, 9, 170, 163, 164, 165, 134, 82, 3, 1.17899
180, 3, wb, filler, NA, 999, 999, 1, 9, 170, 163, 164, 165, 134, 82, 1, 0.722607
180, 3, wb, filler, NA, 999, 999, 1, 10, 109, 72, 102, 171, 81, 115, 1, 0.811682
180, 3, wb, filler, NA, 999, 999, 1, 10, 109, 72, 102, 171, 81, 115, 2, 0.474132
180, 3, wb, attraction, a-b-db, 9, 2, 1, 11, 90, 165, 86, 157, 165, 90, 2, 2.56452
180, 3, wb, attraction, a-b-db, 9, 2, 1, 11, 90, 165, 86, 157, 165, 90, 1, 0.908313
180, 3, wb, attraction, a-b-db, 9, 3, 1, 12, 114, 186, 120, 195, 195, 120, 1, 1.66125
180, 3, wb, attraction, a-b-db, 9, 3, 1, 12, 114, 186, 120, 195, 195, 120, 2, 0.721492
180, 3, wb, attraction, a-b-da, 9, 1, 1, 13, 60, 135, 135, 60, 129, 57, 1, 1.24248
180, 3, wb, attraction, a-b-da, 9, 1, 1, 13, 60, 135, 135, 60, 129, 57, 2, 0.735363
180, 3, wb, filler, NA, 999, 999, 1, 14, 125, 125, 58, 133, 183, 191, 2, 0.82375
180, 3, wb, filler, NA, 999, 999, 1, 14, 125, 125, 58, 133, 183, 191, 3, 0.957433
180, 3, wb, attraction, a-b-da, 2, 2, 1, 15, 165, 90, 163, 89, 90, 165, 2, 1.37243
180, 3, wb, attraction, a-b-da, 2, 2, 1, 15, 165, 90, 163, 89, 90, 165, 3, 0.580018
180, 3, wb, filler, NA, 999, 999, 1, 16, 149, 80, 144, 167, 156, 165, 1, 0.778418
180, 3, wb, filler, NA, 999, 999, 1, 16, 149, 80, 144, 167, 156, 165, 2, 0.506187
180, 3, wb, attraction, a-b-da, 9, 3, 1, 17, 120, 195, 186, 114, 195, 120, 2, 1.12394
180, 3, wb, attraction, a-b-da, 9, 3, 1, 17, 120, 195, 186, 114, 195, 120, 1, 0.525567
180, 3, wb, filler, NA, 999, 999, 1, 18, 116, 58, 186, 187, 75, 179, 1, 0.85404
180, 3, wb, filler, NA, 999, 999, 1, 18, 116, 58, 186, 187, 75, 179, 2, 0.355054
180, 3, wb, filler, NA, 999, 999, 1, 19, 74, 118, 174, 130, 172, 154, 1, 0.682927
180, 3, wb, filler, NA, 999, 999, 1, 19, 74, 118, 174, 130, 172, 154, 3, 0.446636
180, 3, wb, attraction, a-b-db, 2, 2, 1, 20, 90, 165, 165, 90, 89, 163, 2, 0.754408
180, 3, wb, attraction, a-b-db, 2, 2, 1, 20, 90, 165, 165, 90, 89, 163, 1, 0.603505
180, 3, wb, catch, NA, 999, 999, 1, 21, 60, 135, 146, 169, 136, 119, 1, 0.809298
180, 3, wb, catch, NA, 999, 999, 1, 21, 60, 135, 146, 169, 136, 119, 2, 0.279705
180, 3, wb, attraction, a-b-db, 9, 1, 1, 22, 60, 135, 57, 129, 135, 60, 2, 0.810169
180, 3, wb, attraction, a-b-db, 9, 1, 1, 22, 60, 135, 57, 129, 135, 60, 1, 0.552526
180, 3, wb, attraction, a-b-da, 14, 3, 1, 23, 120, 195, 181, 111, 195, 120, 2, 0.520329
180, 3, wb, attraction, a-b-da, 14, 3, 1, 23, 120, 195, 181, 111, 195, 120, 1, 0.402823
180, 3, wb, attraction, a-b-da, 2, 3, 1, 24, 120, 195, 195, 120, 193, 119, 2, 0.608595
180, 3, wb, attraction, a-b-da, 2, 3, 1, 24, 120, 195, 195, 120, 193, 119, 3, 0.375129
180, 3, wb, attraction, a-b-da, 14, 2, 1, 25, 90, 165, 153, 83, 165, 90, 2, 0.709476
180, 3, wb, attraction, a-b-da, 14, 2, 1, 25, 90, 165, 153, 83, 165, 90, 1, 0.69592
180, 3, wb, attraction, a-b-db, 14, 2, 1, 26, 165, 90, 90, 165, 83, 153, 2, 0.833792
180, 3, wb, attraction, a-b-db, 14, 2, 1, 26, 165, 90, 90, 165, 83, 153, 1, 0.863425
180, 3, wb, catch, NA, 999, 999, 1, 27, 92, 103, 156, 159, 123, 132, 1, 1.02643
180, 3, wb, catch, NA, 999, 999, 1, 27, 92, 103, 156, 159, 123, 132, 2, 0.672086
180, 3, wb, attraction, a-b-db, 2, 3, 1, 28, 195, 120, 120, 195, 119, 193, 1, 1.89912
180, 3, wb, attraction, a-b-db, 2, 3, 1, 28, 195, 120, 120, 195, 119, 193, 2, 0.421952
180, 3, wb, attraction, a-b-da, 5, 2, 1, 29, 165, 90, 90, 165, 161, 88, 1, 0.699045
180, 3, wb, attraction, a-b-da, 5, 2, 1, 29, 165, 90, 90, 165, 161, 88, 2, 0.550222
180, 3, wb, attraction, a-b-da, 5, 3, 1, 30, 120, 195, 195, 120, 190, 117, 2, 0.95798
180, 3, wb, attraction, a-b-da, 5, 3, 1, 30, 120, 195, 195, 120, 190, 117, 1, 0.398195
180, 3, wb, attraction, a-b-db, 2, 1, 1, 31, 60, 135, 59, 134, 135, 60, 2, 0.683997
180, 3, wb, attraction, a-b-db, 2, 1, 1, 31, 60, 135, 59, 134, 135, 60, 3, 0.639845
180, 3, wb, attraction, a-b-da, 5, 1, 1, 32, 135, 60, 60, 135, 132, 58, 2, 0.747495
180, 3, wb, attraction, a-b-da, 5, 1, 1, 32, 135, 60, 60, 135, 132, 58, 1, 0.572496
180, 3, wb, attraction, a-b-db, 5, 2, 1, 33, 90, 165, 88, 161, 165, 90, 3, 1.45977
180, 3, wb, attraction, a-b-db, 5, 2, 1, 33, 90, 165, 88, 161, 165, 90, 2, 0.423808
180, 3, wb, attraction, a-b-da, 14, 1, 1, 34, 135, 60, 125, 56, 60, 135, 2, 0.684267
180, 3, wb, attraction, a-b-da, 14, 1, 1, 34, 135, 60, 125, 56, 60, 135, 3, 0.408014
180, 3, wb, attraction, a-b-da, 2, 1, 1, 35, 135, 60, 134, 59, 60, 135, 2, 0.70921
180, 3, wb, attraction, a-b-da, 2, 1, 1, 35, 135, 60, 134, 59, 60, 135, 3, 0.535755
180, 3, wb, catch, NA, 999, 999, 1, 36, 92, 163, 90, 105, 130, 185, 2, 0.920075
180, 3, wb, catch, NA, 999, 999, 1, 36, 92, 163, 90, 105, 130, 185, 3, 0.338497
180, 3, wb, attraction, a-b-db, 14, 3, 1, 37, 111, 181, 120, 195, 195, 120, 1, 1.04304
180, 3, wb, attraction, a-b-db, 14, 3, 1, 37, 111, 181, 120, 195, 195, 120, 3, 0.42389
180, 3, wb, catch, NA, 999, 999, 2, 1, 128, 127, 179, 136, 117, 78, 3, 1.30044
180, 3, wb, catch, NA, 999, 999, 2, 1, 128, 127, 179, 136, 117, 78, 2, 0.839478
180, 3, wb, filler, NA, 999, 999, 2, 2, 166, 115, 78, 179, 150, 87, 2, 8.02767
180, 3, wb, filler, NA, 999, 999, 2, 2, 166, 115, 78, 179, 150, 87, 1, 0.511149
180, 3, wb, attraction, a-b-da, 14, 2, 2, 3, 90, 165, 153, 83, 165, 90, 2, 0.848208
180, 3, wb, attraction, a-b-da, 14, 2, 2, 3, 90, 165, 153, 83, 165, 90, 1, 0.589345
180, 3, wb, attraction, a-b-db, 14, 3, 2, 4, 195, 120, 111, 181, 120, 195, 2, 0.667632
180, 3, wb, attraction, a-b-db, 14, 3, 2, 4, 195, 120, 111, 181, 120, 195, 3, 0.456093
180, 3, wb, attraction, a-b-da, 5, 2, 2, 5, 161, 88, 165, 90, 90, 165, 2, 0.539949
180, 3, wb, attraction, a-b-da, 5, 2, 2, 5, 161, 88, 165, 90, 90, 165, 3, 0.573172
180, 3, wb, attraction, a-b-db, 2, 1, 2, 6, 135, 60, 59, 134, 60, 135, 2, 0.73151
180, 3, wb, attraction, a-b-db, 2, 1, 2, 6, 135, 60, 59, 134, 60, 135, 3, 0.533238
180, 3, wb, catch, NA, 999, 999, 2, 7, 116, 79, 182, 133, 93, 162, 1, 0.685672
180, 3, wb, catch, NA, 999, 999, 2, 7, 116, 79, 182, 133, 93, 162, 2, 0.377493
180, 3, wb, filler, NA, 999, 999, 2, 8, 110, 143, 62, 176, 63, 184, 2, 0.599853
180, 3, wb, filler, NA, 999, 999, 2, 8, 110, 143, 62, 176, 63, 184, 1, 0.407003
180, 3, wb, attraction, a-b-db, 9, 3, 2, 9, 195, 120, 114, 186, 120, 195, 2, 0.508158
180, 3, wb, attraction, a-b-db, 9, 3, 2, 9, 195, 120, 114, 186, 120, 195, 3, 0.382663
180, 3, wb, attraction, a-b-db, 5, 3, 2, 10, 120, 195, 195, 120, 117, 190, 2, 0.709155
180, 3, wb, attraction, a-b-db, 5, 3, 2, 10, 120, 195, 195, 120, 117, 190, 1, 0.391565
180, 3, wb, attraction, a-b-da, 2, 2, 2, 11, 165, 90, 90, 165, 163, 89, 2, 0.557454
180, 3, wb, attraction, a-b-da, 2, 2, 2, 11, 165, 90, 90, 165, 163, 89, 3, 0.50993
180, 3, wb, filler, NA, 999, 999, 2, 12, 170, 89, 139, 96, 93, 125, 2, 0.471052
180, 3, wb, filler, NA, 999, 999, 2, 12, 170, 89, 139, 96, 93, 125, 3, 0.354785
180, 3, wb, filler, NA, 999, 999, 2, 13, 80, 147, 109, 192, 127, 94, 1, 0.474604
180, 3, wb, filler, NA, 999, 999, 2, 13, 80, 147, 109, 192, 127, 94, 2, 0.342583
180, 3, wb, attraction, a-b-da, 9, 2, 2, 14, 157, 86, 90, 165, 165, 90, 1, 0.822319
180, 3, wb, attraction, a-b-da, 9, 2, 2, 14, 157, 86, 90, 165, 165, 90, 2, 0.396029
180, 3, wb, attraction, a-b-da, 9, 1, 2, 15, 135, 60, 129, 57, 60, 135, 2, 0.633863
180, 3, wb, attraction, a-b-da, 9, 1, 2, 15, 135, 60, 129, 57, 60, 135, 3, 0.543733
180, 3, wb, attraction, a-b-db, 5, 1, 2, 16, 60, 135, 58, 132, 135, 60, 2, 0.583378
180, 3, wb, attraction, a-b-db, 5, 1, 2, 16, 60, 135, 58, 132, 135, 60, 1, 0.479146
180, 3, wb, attraction, a-b-db, 14, 2, 2, 17, 83, 153, 165, 90, 90, 165, 2, 0.497707
180, 3, wb, attraction, a-b-db, 14, 2, 2, 17, 83, 153, 165, 90, 90, 165, 3, 0.372869
180, 3, wb, attraction, a-b-da, 5, 1, 2, 18, 135, 60, 132, 58, 60, 135, 2, 1.10799
180, 3, wb, attraction, a-b-da, 5, 1, 2, 18, 135, 60, 132, 58, 60, 135, 3, 0.390261
180, 3, wb, filler, NA, 999, 999, 2, 19, 162, 125, 133, 109, 153, 152, 2, 0.484035
180, 3, wb, filler, NA, 999, 999, 2, 19, 162, 125, 133, 109, 153, 152, 3, 0.983924
180, 3, wb, attraction, a-b-da, 5, 3, 2, 20, 195, 120, 120, 195, 190, 117, 3, 1.15011
180, 3, wb, attraction, a-b-da, 5, 3, 2, 20, 195, 120, 120, 195, 190, 117, 2, 0.383087
180, 3, wb, attraction, a-b-da, 14, 3, 2, 21, 181, 111, 120, 195, 195, 120, 1, 1.08558
180, 3, wb, attraction, a-b-da, 14, 3, 2, 21, 181, 111, 120, 195, 195, 120, 2, 0.417166
180, 3, wb, attraction, a-b-db, 9, 1, 2, 22, 135, 60, 57, 129, 60, 135, 2, 0.766354
180, 3, wb, attraction, a-b-db, 9, 1, 2, 22, 135, 60, 57, 129, 60, 135, 1, 0.686866
180, 3, wb, attraction, a-b-db, 5, 2, 2, 23, 90, 165, 165, 90, 88, 161, 2, 0.705175
180, 3, wb, attraction, a-b-db, 5, 2, 2, 23, 90, 165, 165, 90, 88, 161, 3, 0.427662
180, 3, wb, catch, NA, 999, 999, 2, 24, 158, 157, 133, 62, 115, 140, 2, 0.528203
180, 3, wb, catch, NA, 999, 999, 2, 24, 158, 157, 133, 62, 115, 140, 1, 0.361912
180, 3, wb, attraction, a-b-da, 2, 1, 2, 25, 134, 59, 60, 135, 135, 60, 2, 0.74501
180, 3, wb, attraction, a-b-da, 2, 1, 2, 25, 134, 59, 60, 135, 135, 60, 1, 0.618102
180, 3, wb, attraction, a-b-db, 14, 1, 2, 26, 56, 125, 60, 135, 135, 60, 2, 0.943251
180, 3, wb, attraction, a-b-db, 14, 1, 2, 26, 56, 125, 60, 135, 135, 60, 3, 0.416198
180, 3, wb, filler, NA, 999, 999, 2, 27, 194, 60, 119, 131, 89, 172, 2, 0.565371
180, 3, wb, filler, NA, 999, 999, 2, 27, 194, 60, 119, 131, 89, 172, 3, 0.845916
180, 3, wb, filler, NA, 999, 999, 2, 28, 123, 154, 99, 189, 124, 164, 2, 0.729644
180, 3, wb, filler, NA, 999, 999, 2, 28, 123, 154, 99, 189, 124, 164, 3, 0.611318
180, 3, wb, attraction, a-b-da, 2, 3, 2, 29, 193, 119, 120, 195, 195, 120, 2, 0.736333
180, 3, wb, attraction, a-b-da, 2, 3, 2, 29, 193, 119, 120, 195, 195, 120, 1, 0.626072
180, 3, wb, attraction, a-b-da, 9, 3, 2, 30, 195, 120, 120, 195, 186, 114, 1, 1.08655
180, 3, wb, attraction, a-b-da, 9, 3, 2, 30, 195, 120, 120, 195, 186, 114, 2, 0.474071
180, 3, wb, filler, NA, 999, 999, 2, 31, 109, 150, 83, 195, 138, 56, 3, 1.1886
180, 3, wb, filler, NA, 999, 999, 2, 31, 109, 150, 83, 195, 138, 56, 2, 3.39545
180, 3, wb, attraction, a-b-db, 2, 3, 2, 32, 120, 195, 119, 193, 195, 120, 3, 1.00039
180, 3, wb, attraction, a-b-db, 2, 3, 2, 32, 120, 195, 119, 193, 195, 120, 2, 0.591377
180, 3, wb, attraction, a-b-da, 14, 1, 2, 33, 135, 60, 60, 135, 125, 56, 1, 0.789227
180, 3, wb, attraction, a-b-da, 14, 1, 2, 33, 135, 60, 60, 135, 125, 56, 2, 0.612215
180, 3, wb, filler, NA, 999, 999, 2, 34, 106, 147, 152, 133, 161, 187, 2, 1.4413
180, 3, wb, filler, NA, 999, 999, 2, 34, 106, 147, 152, 133, 161, 187, 3, 0.366217
180, 3, wb, attraction, a-b-db, 9, 2, 2, 35, 90, 165, 86, 157, 165, 90, 2, 0.669378
180, 3, wb, attraction, a-b-db, 9, 2, 2, 35, 90, 165, 86, 157, 165, 90, 1, 1.07371
180, 3, wb, filler, NA, 999, 999, 2, 36, 194, 117, 183, 134, 157, 60, 3, 0.796049
180, 3, wb, filler, NA, 999, 999, 2, 36, 194, 117, 183, 134, 157, 60, 2, 1.01912
180, 3, wb, attraction, a-b-db, 2, 2, 2, 37, 165, 90, 89, 163, 90, 165, 2, 0.912105
180, 3, wb, attraction, a-b-db, 2, 2, 2, 37, 165, 90, 89, 163, 90, 165, 1, 0.890349
180, 3, wb, catch, NA, 999, 999, 3, 1, 146, 109, 93, 102, 178, 137, 2, 0.57206
180, 3, wb, catch, NA, 999, 999, 3, 1, 146, 109, 93, 102, 178, 137, 3, 0.587914
180, 3, wb, attraction, a-b-da, 5, 1, 3, 2, 135, 60, 132, 58, 60, 135, 2, 0.770303
180, 3, wb, attraction, a-b-da, 5, 1, 3, 2, 135, 60, 132, 58, 60, 135, 3, 0.642853
180, 3, wb, attraction, a-b-da, 9, 2, 3, 3, 157, 86, 90, 165, 165, 90, 2, 0.574382
180, 3, wb, attraction, a-b-da, 9, 2, 3, 3, 157, 86, 90, 165, 165, 90, 3, 0.502232
180, 3, wb, attraction, a-b-da, 9, 1, 3, 4, 129, 57, 135, 60, 60, 135, 2, 0.719907
180, 3, wb, attraction, a-b-da, 9, 1, 3, 4, 129, 57, 135, 60, 60, 135, 3, 0.570366
180, 3, wb, catch, NA, 999, 999, 3, 5, 166, 149, 106, 149, 68, 127, 3, 1.36155
180, 3, wb, catch, NA, 999, 999, 3, 5, 166, 149, 106, 149, 68, 127, 1, 0.681745
180, 3, wb, attraction, a-b-da, 2, 2, 3, 6, 163, 89, 90, 165, 165, 90, 2, 0.572116
180, 3, wb, attraction, a-b-da, 2, 2, 3, 6, 163, 89, 90, 165, 165, 90, 3, 0.515948
180, 3, wb, attraction, a-b-db, 2, 2, 3, 7, 89, 163, 165, 90, 90, 165, 2, 0.613032
180, 3, wb, attraction, a-b-db, 2, 2, 3, 7, 89, 163, 165, 90, 90, 165, 3, 0.419459
180, 3, wb, filler, NA, 999, 999, 3, 8, 68, 155, 90, 58, 110, 133, 2, 0.520601
180, 3, wb, filler, NA, 999, 999, 3, 8, 68, 155, 90, 58, 110, 133, 3, 0.322548
180, 3, wb, attraction, a-b-da, 5, 3, 3, 9, 195, 120, 120, 195, 190, 117, 2, 0.579582
180, 3, wb, attraction, a-b-da, 5, 3, 3, 9, 195, 120, 120, 195, 190, 117, 3, 0.387409
180, 3, wb, filler, NA, 999, 999, 3, 10, 192, 130, 103, 105, 170, 67, 2, 0.649886
180, 3, wb, filler, NA, 999, 999, 3, 10, 192, 130, 103, 105, 170, 67, 1, 0.407001
180, 3, wb, attraction, a-b-da, 14, 3, 3, 11, 181, 111, 120, 195, 195, 120, 2, 0.804175
180, 3, wb, attraction, a-b-da, 14, 3, 3, 11, 181, 111, 120, 195, 195, 120, 3, 0.715193
180, 3, wb, filler, NA, 999, 999, 3, 12, 179, 147, 182, 161, 140, 87, 3, 0.988225
180, 3, wb, filler, NA, 999, 999, 3, 12, 179, 147, 182, 161, 140, 87, 2, 0.403225
180, 3, wb, attraction, a-b-db, 2, 3, 3, 13, 120, 195, 195, 120, 119, 193, 2, 0.848966
180, 3, wb, attraction, a-b-db, 2, 3, 3, 13, 120, 195, 195, 120, 119, 193, 3, 0.398184
180, 3, wb, attraction, a-b-da, 14, 2, 3, 14, 90, 165, 153, 83, 165, 90, 2, 0.979874
180, 3, wb, attraction, a-b-da, 14, 2, 3, 14, 90, 165, 153, 83, 165, 90, 1, 1.55552
180, 3, wb, attraction, a-b-da, 5, 2, 3, 15, 161, 88, 90, 165, 165, 90, 2, 0.634982
180, 3, wb, attraction, a-b-da, 5, 2, 3, 15, 161, 88, 90, 165, 165, 90, 3, 0.648848
180, 3, wb, filler, NA, 999, 999, 3, 16, 193, 180, 124, 109, 106, 63, 3, 0.748558
180, 3, wb, filler, NA, 999, 999, 3, 16, 193, 180, 124, 109, 106, 63, 1, 0.541591
180, 3, wb, attraction, a-b-da, 2, 3, 3, 17, 193, 119, 195, 120, 120, 195, 2, 0.565302
180, 3, wb, attraction, a-b-da, 2, 3, 3, 17, 193, 119, 195, 120, 120, 195, 3, 0.357828
180, 3, wb, attraction, a-b-db, 5, 2, 3, 18, 165, 90, 88, 161, 90, 165, 2, 5.55711
180, 3, wb, attraction, a-b-db, 5, 2, 3, 18, 165, 90, 88, 161, 90, 165, 3, 0.588117
180, 3, wb, filler, NA, 999, 999, 3, 19, 124, 74, 148, 163, 103, 181, 1, 0.858322
180, 3, wb, filler, NA, 999, 999, 3, 19, 124, 74, 148, 163, 103, 181, 2, 0.390922
180, 3, wb, attraction, a-b-db, 5, 3, 3, 20, 117, 190, 195, 120, 120, 195, 2, 0.564484
180, 3, wb, attraction, a-b-db, 5, 3, 3, 20, 117, 190, 195, 120, 120, 195, 3, 0.485012
180, 3, wb, attraction, a-b-db, 14, 1, 3, 21, 56, 125, 135, 60, 60, 135, 2, 0.567421
180, 3, wb, attraction, a-b-db, 14, 1, 3, 21, 56, 125, 135, 60, 60, 135, 3, 0.639914
180, 3, wb, attraction, a-b-db, 14, 2, 3, 22, 165, 90, 90, 165, 83, 153, 2, 0.548308
180, 3, wb, attraction, a-b-db, 14, 2, 3, 22, 165, 90, 90, 165, 83, 153, 3, 0.749495
180, 3, wb, attraction, a-b-da, 14, 1, 3, 23, 135, 60, 125, 56, 60, 135, 2, 0.933297
180, 3, wb, attraction, a-b-da, 14, 1, 3, 23, 135, 60, 125, 56, 60, 135, 3, 0.63885
180, 3, wb, attraction, a-b-da, 2, 1, 3, 24, 60, 135, 135, 60, 134, 59, 2, 1.35521
180, 3, wb, attraction, a-b-da, 2, 1, 3, 24, 60, 135, 135, 60, 134, 59, 1, 0.659444
180, 3, wb, catch, NA, 999, 999, 3, 25, 152, 163, 133, 62, 105, 150, 2, 0.638459
180, 3, wb, catch, NA, 999, 999, 3, 25, 152, 163, 133, 62, 105, 150, 1, 0.37158
180, 3, wb, filler, NA, 999, 999, 3, 26, 63, 158, 126, 188, 71, 114, 3, 0.922871
180, 3, wb, filler, NA, 999, 999, 3, 26, 63, 158, 126, 188, 71, 114, 2, 0.372464
180, 3, wb, attraction, a-b-db, 5, 1, 3, 27, 135, 60, 60, 135, 58, 132, 2, 0.987728
180, 3, wb, attraction, a-b-db, 5, 1, 3, 27, 135, 60, 60, 135, 58, 132, 1, 0.594588
180, 3, wb, attraction, a-b-da, 9, 3, 3, 28, 120, 195, 195, 120, 186, 114, 2, 1.11236
180, 3, wb, attraction, a-b-da, 9, 3, 3, 28, 120, 195, 195, 120, 186, 114, 1, 1.03484
180, 3, wb, filler, NA, 999, 999, 3, 29, 186, 154, 179, 151, 126, 66, 3, 0.743186
180, 3, wb, filler, NA, 999, 999, 3, 29, 186, 154, 179, 151, 126, 66, 1, 0.856132
180, 3, wb, attraction, a-b-db, 9, 3, 3, 30, 195, 120, 120, 195, 114, 186, 2, 1.37177
180, 3, wb, attraction, a-b-db, 9, 3, 3, 30, 195, 120, 120, 195, 114, 186, 3, 0.81133
180, 3, wb, attraction, a-b-db, 2, 1, 3, 31, 59, 134, 135, 60, 60, 135, 2, 0.632406
180, 3, wb, attraction, a-b-db, 2, 1, 3, 31, 59, 134, 135, 60, 60, 135, 3, 0.49403
180, 3, wb, filler, NA, 999, 999, 3, 32, 108, 145, 161, 138, 163, 131, 1, 1.25587
180, 3, wb, filler, NA, 999, 999, 3, 32, 108, 145, 161, 138, 163, 131, 3, 0.668159
180, 3, wb, filler, NA, 999, 999, 3, 33, 90, 134, 138, 181, 152, 119, 1, 0.607151
180, 3, wb, filler, NA, 999, 999, 3, 33, 90, 134, 138, 181, 152, 119, 2, 0.341597
180, 3, wb, attraction, a-b-db, 9, 1, 3, 34, 60, 135, 57, 129, 135, 60, 2, 0.693406
180, 3, wb, attraction, a-b-db, 9, 1, 3, 34, 60, 135, 57, 129, 135, 60, 1, 0.824481
180, 3, wb, filler, NA, 999, 999, 3, 35, 154, 195, 142, 60, 150, 183, 2, 0.660829
180, 3, wb, filler, NA, 999, 999, 3, 35, 154, 195, 142, 60, 150, 183, 3, 0.321507
180, 3, wb, attraction, a-b-db, 14, 3, 3, 36, 111, 181, 195, 120, 120, 195, 2, 0.746532
180, 3, wb, attraction, a-b-db, 14, 3, 3, 36, 111, 181, 195, 120, 120, 195, 1, 0.867632
180, 3, wb, attraction, a-b-db, 9, 2, 3, 37, 165, 90, 86, 157, 90, 165, 2, 0.670605
180, 3, wb, attraction, a-b-db, 9, 2, 3, 37, 165, 90, 86, 157, 90, 165, 3, 0.563034
180, 3, wb, filler, NA, 999, 999, 4, 1, 170, 151, 153, 175, 187, 138, 2, 1.0501
180, 3, wb, filler, NA, 999, 999, 4, 1, 170, 151, 153, 175, 187, 138, 3, 0.45512
180, 3, wb, attraction, a-b-db, 9, 2, 4, 2, 86, 157, 90, 165, 165, 90, 1, 0.834919
180, 3, wb, attraction, a-b-db, 9, 2, 4, 2, 86, 157, 90, 165, 165, 90, 3, 0.576658
180, 3, wb, attraction, a-b-db, 2, 2, 4, 3, 89, 163, 165, 90, 90, 165, 2, 1.76704
180, 3, wb, attraction, a-b-db, 2, 2, 4, 3, 89, 163, 165, 90, 90, 165, 1, 0.407197
180, 3, wb, attraction, a-b-da, 2, 3, 4, 4, 193, 119, 120, 195, 195, 120, 2, 0.892184
180, 3, wb, attraction, a-b-da, 2, 3, 4, 4, 193, 119, 120, 195, 195, 120, 3, 0.31928
180, 3, wb, filler, NA, 999, 999, 4, 5, 99, 107, 161, 140, 77, 148, 1, 1.26439
180, 3, wb, filler, NA, 999, 999, 4, 5, 99, 107, 161, 140, 77, 148, 2, 0.476781
180, 3, wb, catch, NA, 999, 999, 4, 6, 191, 124, 136, 119, 119, 76, 3, 0.927105
180, 3, wb, catch, NA, 999, 999, 4, 6, 191, 124, 136, 119, 119, 76, 1, 0.464869
180, 3, wb, attraction, a-b-da, 14, 3, 4, 7, 195, 120, 181, 111, 120, 195, 1, 2.14007
180, 3, wb, attraction, a-b-da, 14, 3, 4, 7, 195, 120, 181, 111, 120, 195, 3, 0.396698
180, 3, wb, attraction, a-b-da, 5, 1, 4, 8, 60, 135, 135, 60, 132, 58, 2, 12.6425
180, 3, wb, attraction, a-b-da, 5, 1, 4, 8, 60, 135, 135, 60, 132, 58, 1, 0.371688
180, 3, wb, attraction, a-b-da, 2, 1, 4, 9, 60, 135, 134, 59, 135, 60, 2, 1.09905
180, 3, wb, attraction, a-b-da, 2, 1, 4, 9, 60, 135, 134, 59, 135, 60, 1, 1.74993
180, 3, wb, attraction, a-b-db, 5, 2, 4, 10, 90, 165, 88, 161, 165, 90, 2, 1.03739
180, 3, wb, attraction, a-b-db, 5, 2, 4, 10, 90, 165, 88, 161, 165, 90, 3, 0.418989
180, 3, wb, filler, NA, 999, 999, 4, 11, 193, 145, 185, 153, 117, 188, 3, 1.06424
180, 3, wb, filler, NA, 999, 999, 4, 11, 193, 145, 185, 153, 117, 188, 2, 0.460347
180, 3, wb, attraction, a-b-db, 5, 3, 4, 12, 117, 190, 195, 120, 120, 195, 3, 1.20755
180, 3, wb, attraction, a-b-db, 5, 3, 4, 12, 117, 190, 195, 120, 120, 195, 2, 0.445795
180, 3, wb, attraction, a-b-db, 9, 1, 4, 13, 135, 60, 57, 129, 60, 135, 1, 1.38569
180, 3, wb, attraction, a-b-db, 9, 1, 4, 13, 135, 60, 57, 129, 60, 135, 2, 0.62533
180, 3, wb, catch, NA, 999, 999, 4, 14, 73, 122, 138, 177, 147, 108, 1, 0.797561
180, 3, wb, catch, NA, 999, 999, 4, 14, 73, 122, 138, 177, 147, 108, 2, 0.364594
180, 3, wb, filler, NA, 999, 999, 4, 15, 109, 177, 153, 82, 127, 184, 2, 0.803831
180, 3, wb, filler, NA, 999, 999, 4, 15, 109, 177, 153, 82, 127, 184, 3, 0.346968
180, 3, wb, attraction, a-b-da, 5, 2, 4, 16, 161, 88, 90, 165, 165, 90, 2, 0.834721
180, 3, wb, attraction, a-b-da, 5, 2, 4, 16, 161, 88, 90, 165, 165, 90, 1, 0.704442
180, 3, wb, filler, NA, 999, 999, 4, 17, 59, 139, 116, 184, 167, 189, 1, 0.890165
180, 3, wb, filler, NA, 999, 999, 4, 17, 59, 139, 116, 184, 167, 189, 3, 0.373183
180, 3, wb, filler, NA, 999, 999, 4, 18, 78, 130, 159, 167, 168, 173, 1, 0.475635
180, 3, wb, filler, NA, 999, 999, 4, 18, 78, 130, 159, 167, 168, 173, 3, 0.631395
180, 3, wb, attraction, a-b-da, 2, 2, 4, 19, 165, 90, 90, 165, 163, 89, 2, 0.795792
180, 3, wb, attraction, a-b-da, 2, 2, 4, 19, 165, 90, 90, 165, 163, 89, 1, 0.434956
180, 3, wb, attraction, a-b-da, 14, 1, 4, 20, 135, 60, 125, 56, 60, 135, 2, 0.599438
180, 3, wb, attraction, a-b-da, 14, 1, 4, 20, 135, 60, 125, 56, 60, 135, 3, 0.406562
180, 3, wb, attraction, a-b-da, 5, 3, 4, 21, 195, 120, 190, 117, 120, 195, 2, 0.90831
180, 3, wb, attraction, a-b-da, 5, 3, 4, 21, 195, 120, 190, 117, 120, 195, 1, 0.462652
180, 3, wb, filler, NA, 999, 999, 4, 22, 64, 64, 76, 73, 159, 116, 1, 1.03369
180, 3, wb, filler, NA, 999, 999, 4, 22, 64, 64, 76, 73, 159, 116, 3, 0.38344
180, 3, wb, attraction, a-b-da, 9, 3, 4, 23, 195, 120, 186, 114, 120, 195, 2, 0.557935
180, 3, wb, attraction, a-b-da, 9, 3, 4, 23, 195, 120, 186, 114, 120, 195, 3, 0.358485
180, 3, wb, attraction, a-b-db, 14, 3, 4, 24, 120, 195, 111, 181, 195, 120, 2, 0.597487
180, 3, wb, attraction, a-b-db, 14, 3, 4, 24, 120, 195, 111, 181, 195, 120, 3, 0.436635
180, 3, wb, catch, NA, 999, 999, 4, 25, 155, 160, 116, 139, 98, 97, 3, 0.785117
180, 3, wb, catch, NA, 999, 999, 4, 25, 155, 160, 116, 139, 98, 97, 1, 0.568971
180, 3, wb, attraction, a-b-db, 5, 1, 4, 26, 135, 60, 58, 132, 60, 135, 2, 0.543922
180, 3, wb, attraction, a-b-db, 5, 1, 4, 26, 135, 60, 58, 132, 60, 135, 3, 0.50509
180, 3, wb, filler, NA, 999, 999, 4, 27, 152, 60, 133, 169, 78, 108, 3, 0.826885
180, 3, wb, filler, NA, 999, 999, 4, 27, 152, 60, 133, 169, 78, 108, 2, 0.84068
180, 3, wb, filler, NA, 999, 999, 4, 28, 188, 93, 174, 186, 130, 122, 1, 1.46041
180, 3, wb, filler, NA, 999, 999, 4, 28, 188, 93, 174, 186, 130, 122, 2, 0.560458
180, 3, wb, attraction, a-b-db, 9, 3, 4, 29, 120, 195, 114, 186, 195, 120, 3, 0.935605
180, 3, wb, attraction, a-b-db, 9, 3, 4, 29, 120, 195, 114, 186, 195, 120, 2, 0.401306
180, 3, wb, filler, NA, 999, 999, 4, 30, 127, 124, 115, 178, 152, 115, 1, 0.663221
180, 3, wb, filler, NA, 999, 999, 4, 30, 127, 124, 115, 178, 152, 115, 2, 0.699497
180, 3, wb, attraction, a-b-db, 14, 1, 4, 31, 56, 125, 60, 135, 135, 60, 1, 0.765182
180, 3, wb, attraction, a-b-db, 14, 1, 4, 31, 56, 125, 60, 135, 135, 60, 3, 0.541749
180, 3, wb, attraction, a-b-da, 9, 1, 4, 32, 129, 57, 135, 60, 60, 135, 1, 0.805434
180, 3, wb, attraction, a-b-da, 9, 1, 4, 32, 129, 57, 135, 60, 60, 135, 3, 0.627897
180, 3, wb, attraction, a-b-da, 9, 2, 4, 33, 90, 165, 165, 90, 157, 86, 2, 0.920208
180, 3, wb, attraction, a-b-da, 9, 2, 4, 33, 90, 165, 165, 90, 157, 86, 3, 0.514529
180, 3, wb, attraction, a-b-db, 2, 1, 4, 34, 135, 60, 59, 134, 60, 135, 2, 8.3318
180, 3, wb, attraction, a-b-db, 2, 1, 4, 34, 135, 60, 59, 134, 60, 135, 3, 0.37108
180, 3, wb, attraction, a-b-da, 14, 2, 4, 35, 153, 83, 90, 165, 165, 90, 2, 0.658247
180, 3, wb, attraction, a-b-da, 14, 2, 4, 35, 153, 83, 90, 165, 165, 90, 3, 0.430738
180, 3, wb, attraction, a-b-db, 14, 2, 4, 36, 165, 90, 90, 165, 83, 153, 2, 0.571199
180, 3, wb, attraction, a-b-db, 14, 2, 4, 36, 165, 90, 90, 165, 83, 153, 1, 0.499701
180, 3, wb, attraction, a-b-db, 2, 3, 4, 37, 119, 193, 120, 195, 195, 120, 3, 0.861448
180, 3, wb, attraction, a-b-db, 2, 3, 4, 37, 119, 193, 120, 195, 195, 120, 2, 0.417685
180, 3, wb, attraction, a-b-db, 2, 2, 5, 1, 90, 165, 165, 90, 89, 163, 2, 2.14945
180, 3, wb, attraction, a-b-db, 2, 2, 5, 1, 90, 165, 165, 90, 89, 163, 3, 0.710148
180, 3, wb, attraction, a-b-da, 14, 3, 5, 2, 181, 111, 195, 120, 120, 195, 1, 0.983137
180, 3, wb, attraction, a-b-da, 14, 3, 5, 2, 181, 111, 195, 120, 120, 195, 3, 0.766803
180, 3, wb, filler, NA, 999, 999, 5, 3, 139, 153, 66, 125, 70, 127, 2, 0.677885
180, 3, wb, filler, NA, 999, 999, 5, 3, 139, 153, 66, 125, 70, 127, 1, 0.353648
180, 3, wb, filler, NA, 999, 999, 5, 4, 142, 111, 166, 70, 158, 141, 2, 0.64151
180, 3, wb, filler, NA, 999, 999, 5, 4, 142, 111, 166, 70, 158, 141, 3, 0.302557
180, 3, wb, attraction, a-b-db, 14, 3, 5, 5, 120, 195, 195, 120, 111, 181, 2, 0.664392
180, 3, wb, attraction, a-b-db, 14, 3, 5, 5, 120, 195, 195, 120, 111, 181, 3, 0.316844
180, 3, wb, filler, NA, 999, 999, 5, 6, 195, 125, 132, 138, 89, 179, 2, 0.837987
180, 3, wb, filler, NA, 999, 999, 5, 6, 195, 125, 132, 138, 89, 179, 1, 0.34776
180, 3, wb, attraction, a-b-da, 14, 1, 5, 7, 125, 56, 60, 135, 135, 60, 1, 0.603536
180, 3, wb, attraction, a-b-da, 14, 1, 5, 7, 125, 56, 60, 135, 135, 60, 2, 0.370802
180, 3, wb, filler, NA, 999, 999, 5, 8, 92, 96, 161, 175, 127, 91, 1, 0.569835
180, 3, wb, filler, NA, 999, 999, 5, 8, 92, 96, 161, 175, 127, 91, 2, 0.362566
180, 3, wb, attraction, a-b-da, 14, 2, 5, 9, 153, 83, 165, 90, 90, 165, 2, 0.601477
180, 3, wb, attraction, a-b-da, 14, 2, 5, 9, 153, 83, 165, 90, 90, 165, 3, 0.31268
180, 3, wb, filler, NA, 999, 999, 5, 10, 77, 168, 191, 86, 75, 136, 3, 0.969832
180, 3, wb, filler, NA, 999, 999, 5, 10, 77, 168, 191, 86, 75, 136, 1, 0.802178
180, 3, wb, attraction, a-b-da, 2, 1, 5, 11, 60, 135, 135, 60, 134, 59, 2, 0.591842
180, 3, wb, attraction, a-b-da, 2, 1, 5, 11, 60, 135, 135, 60, 134, 59, 3, 0.398916
180, 3, wb, attraction, a-b-da, 9, 2, 5, 12, 90, 165, 165, 90, 157, 86, 1, 0.572853
180, 3, wb, attraction, a-b-da, 9, 2, 5, 12, 90, 165, 165, 90, 157, 86, 3, 0.396572
180, 3, wb, catch, NA, 999, 999, 5, 13, 79, 116, 179, 136, 159, 96, 1, 0.586283
180, 3, wb, catch, NA, 999, 999, 5, 13, 79, 116, 179, 136, 159, 96, 2, 0.298134
180, 3, wb, attraction, a-b-da, 9, 1, 5, 14, 129, 57, 135, 60, 60, 135, 2, 0.788029
180, 3, wb, attraction, a-b-da, 9, 1, 5, 14, 129, 57, 135, 60, 60, 135, 3, 0.307832
180, 3, wb, attraction, a-b-db, 5, 2, 5, 15, 165, 90, 90, 165, 88, 161, 2, 0.596935
180, 3, wb, attraction, a-b-db, 5, 2, 5, 15, 165, 90, 90, 165, 88, 161, 1, 1.03621
180, 3, wb, attraction, a-b-db, 9, 3, 5, 16, 120, 195, 195, 120, 114, 186, 2, 1.02433
180, 3, wb, attraction, a-b-db, 9, 3, 5, 16, 120, 195, 195, 120, 114, 186, 3, 0.446009
180, 3, wb, attraction, a-b-db, 2, 3, 5, 17, 120, 195, 195, 120, 119, 193, 2, 0.50587
180, 3, wb, attraction, a-b-db, 2, 3, 5, 17, 120, 195, 195, 120, 119, 193, 1, 0.572299
180, 3, wb, filler, NA, 999, 999, 5, 18, 112, 82, 123, 99, 62, 71, 3, 0.631618
180, 3, wb, filler, NA, 999, 999, 5, 18, 112, 82, 123, 99, 62, 71, 2, 0.489102
180, 3, wb, catch, NA, 999, 999, 5, 19, 133, 182, 162, 93, 63, 132, 3, 0.699587
180, 3, wb, catch, NA, 999, 999, 5, 19, 133, 182, 162, 93, 63, 132, 1, 0.470646
180, 3, wb, attraction, a-b-db, 2, 1, 5, 20, 135, 60, 59, 134, 60, 135, 1, 0.689904
180, 3, wb, attraction, a-b-db, 2, 1, 5, 20, 135, 60, 59, 134, 60, 135, 2, 0.356881
180, 3, wb, attraction, a-b-da, 9, 3, 5, 21, 195, 120, 186, 114, 120, 195, 2, 0.708197
180, 3, wb, attraction, a-b-da, 9, 3, 5, 21, 195, 120, 186, 114, 120, 195, 3, 0.310488
180, 3, wb, attraction, a-b-da, 2, 2, 5, 22, 90, 165, 163, 89, 165, 90, 2, 0.687613
180, 3, wb, attraction, a-b-da, 2, 2, 5, 22, 90, 165, 163, 89, 165, 90, 1, 0.339367
180, 3, wb, attraction, a-b-db, 5, 1, 5, 23, 60, 135, 58, 132, 135, 60, 2, 0.523929
180, 3, wb, attraction, a-b-db, 5, 1, 5, 23, 60, 135, 58, 132, 135, 60, 1, 0.645649
180, 3, wb, filler, NA, 999, 999, 5, 24, 80, 93, 87, 187, 121, 131, 2, 0.553497
180, 3, wb, filler, NA, 999, 999, 5, 24, 80, 93, 87, 187, 121, 131, 3, 1.69877
180, 3, wb, attraction, a-b-da, 5, 2, 5, 25, 161, 88, 165, 90, 90, 165, 2, 0.564156
180, 3, wb, attraction, a-b-da, 5, 2, 5, 25, 161, 88, 165, 90, 90, 165, 1, 0.380497
180, 3, wb, catch, NA, 999, 999, 5, 26, 138, 117, 78, 117, 149, 166, 2, 0.474979
180, 3, wb, catch, NA, 999, 999, 5, 26, 138, 117, 78, 117, 149, 166, 3, 0.318796
180, 3, wb, attraction, a-b-da, 2, 3, 5, 27, 193, 119, 195, 120, 120, 195, 2, 0.711896
180, 3, wb, attraction, a-b-da, 2, 3, 5, 27, 193, 119, 195, 120, 120, 195, 3, 0.490333
180, 3, wb, attraction, a-b-db, 14, 2, 5, 28, 90, 165, 165, 90, 83, 153, 2, 0.492117
180, 3, wb, attraction, a-b-db, 14, 2, 5, 28, 90, 165, 165, 90, 83, 153, 1, 0.383299
180, 3, wb, attraction, a-b-db, 14, 1, 5, 29, 56, 125, 135, 60, 60, 135, 2, 0.757738
180, 3, wb, attraction, a-b-db, 14, 1, 5, 29, 56, 125, 135, 60, 60, 135, 3, 0.47827
180, 3, wb, attraction, a-b-db, 5, 3, 5, 30, 117, 190, 195, 120, 120, 195, 2, 0.544716
180, 3, wb, attraction, a-b-db, 5, 3, 5, 30, 117, 190, 195, 120, 120, 195, 3, 0.30594
180, 3, wb, attraction, a-b-db, 9, 2, 5, 31, 90, 165, 165, 90, 86, 157, 2, 0.611642
180, 3, wb, attraction, a-b-db, 9, 2, 5, 31, 90, 165, 165, 90, 86, 157, 1, 0.378167
180, 3, wb, attraction, a-b-db, 9, 1, 5, 32, 135, 60, 57, 129, 60, 135, 2, 0.528702
180, 3, wb, attraction, a-b-db, 9, 1, 5, 32, 135, 60, 57, 129, 60, 135, 3, 0.810426
180, 3, wb, attraction, a-b-da, 5, 3, 5, 33, 190, 117, 120, 195, 195, 120, 2, 0.567358
180, 3, wb, attraction, a-b-da, 5, 3, 5, 33, 190, 117, 120, 195, 195, 120, 1, 0.336004
180, 3, wb, filler, NA, 999, 999, 5, 34, 138, 163, 183, 141, 152, 78, 3, 0.888412
180, 3, wb, filler, NA, 999, 999, 5, 34, 138, 163, 183, 141, 152, 78, 1, 0.379455
180, 3, wb, filler, NA, 999, 999, 5, 35, 86, 69, 178, 192, 182, 138, 1, 0.770018
180, 3, wb, filler, NA, 999, 999, 5, 35, 86, 69, 178, 192, 182, 138, 2, 0.354318
180, 3, wb, filler, NA, 999, 999, 5, 36, 58, 123, 174, 85, 68, 116, 3, 0.770154
180, 3, wb, filler, NA, 999, 999, 5, 36, 58, 123, 174, 85, 68, 116, 2, 0.538715
180, 3, wb, attraction, a-b-da, 5, 1, 5, 37, 132, 58, 135, 60, 60, 135, 2, 0.931018
180, 3, wb, attraction, a-b-da, 5, 1, 5, 37, 132, 58, 135, 60, 60, 135, 1, 0.500703
180, 3, wb, attraction, a-b-da, 14, 3, 6, 1, 195, 120, 120, 195, 181, 111, 2, 0.678451
180, 3, wb, attraction, a-b-da, 14, 3, 6, 1, 195, 120, 120, 195, 181, 111, 1, 0.970239
180, 3, wb, attraction, a-b-da, 14, 1, 6, 2, 135, 60, 60, 135, 125, 56, 2, 0.489207
180, 3, wb, attraction, a-b-da, 14, 1, 6, 2, 135, 60, 60, 135, 125, 56, 3, 0.684488
180, 3, wb, filler, NA, 999, 999, 6, 3, 98, 180, 192, 93, 71, 97, 3, 0.750799
180, 3, wb, filler, NA, 999, 999, 6, 3, 98, 180, 192, 93, 71, 97, 1, 0.343715
180, 3, wb, attraction, a-b-da, 5, 2, 6, 4, 90, 165, 161, 88, 165, 90, 2, 0.695589
180, 3, wb, attraction, a-b-da, 5, 2, 6, 4, 90, 165, 161, 88, 165, 90, 3, 0.330908
180, 3, wb, attraction, a-b-db, 2, 1, 6, 5, 60, 135, 59, 134, 135, 60, 2, 0.451189
180, 3, wb, attraction, a-b-db, 2, 1, 6, 5, 60, 135, 59, 134, 135, 60, 1, 0.44046
180, 3, wb, attraction, a-b-da, 14, 2, 6, 6, 90, 165, 165, 90, 153, 83, 2, 0.516153
180, 3, wb, attraction, a-b-da, 14, 2, 6, 6, 90, 165, 165, 90, 153, 83, 3, 0.550845
180, 3, wb, attraction, a-b-da, 9, 2, 6, 7, 157, 86, 90, 165, 165, 90, 2, 0.510438
180, 3, wb, attraction, a-b-da, 9, 2, 6, 7, 157, 86, 90, 165, 165, 90, 1, 0.320976
180, 3, wb, attraction, a-b-db, 14, 1, 6, 8, 135, 60, 60, 135, 56, 125, 2, 0.970074
180, 3, wb, attraction, a-b-db, 14, 1, 6, 8, 135, 60, 60, 135, 56, 125, 3, 0.402391
180, 3, wb, filler, NA, 999, 999, 6, 9, 181, 71, 168, 68, 59, 181, 2, 0.616306
180, 3, wb, filler, NA, 999, 999, 6, 9, 181, 71, 168, 68, 59, 181, 1, 0.358782
180, 3, wb, attraction, a-b-db, 14, 3, 6, 10, 120, 195, 111, 181, 195, 120, 2, 0.533862
180, 3, wb, attraction, a-b-db, 14, 3, 6, 10, 120, 195, 111, 181, 195, 120, 3, 0.351683
180, 3, wb, filler, NA, 999, 999, 6, 11, 71, 142, 135, 95, 154, 86, 2, 0.647433
180, 3, wb, filler, NA, 999, 999, 6, 11, 71, 142, 135, 95, 154, 86, 1, 0.404583
180, 3, wb, attraction, a-b-da, 2, 1, 6, 12, 135, 60, 60, 135, 134, 59, 2, 1.14643
180, 3, wb, attraction, a-b-da, 2, 1, 6, 12, 135, 60, 60, 135, 134, 59, 1, 0.915399
180, 3, wb, attraction, a-b-da, 5, 3, 6, 13, 190, 117, 195, 120, 120, 195, 2, 0.484431
180, 3, wb, attraction, a-b-da, 5, 3, 6, 13, 190, 117, 195, 120, 120, 195, 3, 0.328335
180, 3, wb, attraction, a-b-db, 2, 2, 6, 14, 90, 165, 89, 163, 165, 90, 2, 0.472614
180, 3, wb, attraction, a-b-db, 2, 2, 6, 14, 90, 165, 89, 163, 165, 90, 1, 0.428526
180, 3, wb, attraction, a-b-db, 5, 2, 6, 15, 90, 165, 165, 90, 88, 161, 2, 0.889009
180, 3, wb, attraction, a-b-db, 5, 2, 6, 15, 90, 165, 165, 90, 88, 161, 3, 0.48407
180, 3, wb, filler, NA, 999, 999, 6, 16, 165, 72, 68, 143, 146, 113, 2, 0.718451
180, 3, wb, filler, NA, 999, 999, 6, 16, 165, 72, 68, 143, 146, 113, 3, 0.609018
180, 3, wb, attraction, a-b-db, 5, 1, 6, 17, 58, 132, 135, 60, 60, 135, 2, 0.493989
180, 3, wb, attraction, a-b-db, 5, 1, 6, 17, 58, 132, 135, 60, 60, 135, 3, 0.489143
180, 3, wb, filler, NA, 999, 999, 6, 18, 169, 110, 90, 96, 81, 116, 2, 0.475532
180, 3, wb, filler, NA, 999, 999, 6, 18, 169, 110, 90, 96, 81, 116, 1, 0.831528
180, 3, wb, attraction, a-b-da, 9, 3, 6, 19, 186, 114, 195, 120, 120, 195, 2, 0.563752
180, 3, wb, attraction, a-b-da, 9, 3, 6, 19, 186, 114, 195, 120, 120, 195, 3, 0.324197
180, 3, wb, attraction, a-b-db, 5, 3, 6, 20, 117, 190, 195, 120, 120, 195, 2, 0.612668
180, 3, wb, attraction, a-b-db, 5, 3, 6, 20, 117, 190, 195, 120, 120, 195, 1, 0.363204
180, 3, wb, attraction, a-b-db, 9, 1, 6, 21, 135, 60, 60, 135, 57, 129, 2, 0.546435
180, 3, wb, attraction, a-b-db, 9, 1, 6, 21, 135, 60, 60, 135, 57, 129, 3, 0.355511
180, 3, wb, attraction, a-b-da, 2, 2, 6, 22, 163, 89, 90, 165, 165, 90, 2, 0.467323
180, 3, wb, attraction, a-b-da, 2, 2, 6, 22, 163, 89, 90, 165, 165, 90, 3, 0.583853
180, 3, wb, filler, NA, 999, 999, 6, 23, 166, 161, 115, 170, 185, 98, 2, 0.430312
180, 3, wb, filler, NA, 999, 999, 6, 23, 166, 161, 115, 170, 185, 98, 1, 0.332108
180, 3, wb, attraction, a-b-da, 9, 1, 6, 24, 135, 60, 129, 57, 60, 135, 2, 0.988559
180, 3, wb, attraction, a-b-da, 9, 1, 6, 24, 135, 60, 129, 57, 60, 135, 1, 0.387526
180, 3, wb, attraction, a-b-da, 2, 3, 6, 25, 195, 120, 193, 119, 120, 195, 2, 0.370171
180, 3, wb, attraction, a-b-da, 2, 3, 6, 25, 195, 120, 193, 119, 120, 195, 3, 0.338625
180, 3, wb, attraction, a-b-db, 2, 3, 6, 26, 119, 193, 195, 120, 120, 195, 2, 0.547071
180, 3, wb, attraction, a-b-db, 2, 3, 6, 26, 119, 193, 195, 120, 120, 195, 3, 0.564231
180, 3, wb, attraction, a-b-db, 9, 2, 6, 27, 90, 165, 165, 90, 86, 157, 2, 0.555429
180, 3, wb, attraction, a-b-db, 9, 2, 6, 27, 90, 165, 165, 90, 86, 157, 3, 0.563811
180, 3, wb, catch, NA, 999, 999, 6, 28, 115, 80, 130, 125, 149, 166, 1, 1.02688
180, 3, wb, catch, NA, 999, 999, 6, 28, 115, 80, 130, 125, 149, 166, 3, 0.576758
180, 3, wb, attraction, a-b-db, 14, 2, 6, 29, 165, 90, 83, 153, 90, 165, 2, 0.502964
180, 3, wb, attraction, a-b-db, 14, 2, 6, 29, 165, 90, 83, 153, 90, 165, 3, 0.538103
180, 3, wb, filler, NA, 999, 999, 6, 30, 175, 111, 160, 127, 153, 120, 2, 0.46664
180, 3, wb, filler, NA, 999, 999, 6, 30, 175, 111, 160, 127, 153, 120, 3, 0.51915
180, 3, wb, filler, NA, 999, 999, 6, 31, 120, 64, 136, 67, 149, 178, 1, 1.37613
180, 3, wb, filler, NA, 999, 999, 6, 31, 120, 64, 136, 67, 149, 178, 3, 0.367864
180, 3, wb, attraction, a-b-da, 5, 1, 6, 32, 132, 58, 135, 60, 60, 135, 1, 0.886863
180, 3, wb, attraction, a-b-da, 5, 1, 6, 32, 132, 58, 135, 60, 60, 135, 3, 0.442566
180, 3, wb, catch, NA, 999, 999, 6, 33, 74, 121, 157, 158, 129, 126, 2, 0.422316
180, 3, wb, catch, NA, 999, 999, 6, 33, 74, 121, 157, 158, 129, 126, 3, 1.2683
180, 3, wb, filler, NA, 999, 999, 6, 34, 146, 166, 170, 139, 144, 62, 3, 1.27104
180, 3, wb, filler, NA, 999, 999, 6, 34, 146, 166, 170, 139, 144, 62, 1, 0.491313
180, 3, wb, filler, NA, 999, 999, 6, 35, 138, 73, 187, 99, 60, 188, 1, 0.917099
180, 3, wb, filler, NA, 999, 999, 6, 35, 138, 73, 187, 99, 60, 188, 2, 0.447512
180, 3, wb, catch, NA, 999, 999, 6, 36, 104, 91, 155, 160, 140, 115, 1, 0.55531
180, 3, wb, catch, NA, 999, 999, 6, 36, 104, 91, 155, 160, 140, 115, 2, 0.803774
180, 3, wb, attraction, a-b-db, 9, 3, 6, 37, 195, 120, 114, 186, 120, 195, 2, 0.977586
180, 3, wb, attraction, a-b-db, 9, 3, 6, 37, 195, 120, 114, 186, 120, 195, 3, 0.441196
180, 3, wb, filler, NA, 999, 999, 7, 1, 193, 115, 191, 111, 192, 159, 2, 0.61301
180, 3, wb, filler, NA, 999, 999, 7, 1, 193, 115, 191, 111, 192, 159, 3, 0.331285
180, 3, wb, filler, NA, 999, 999, 7, 2, 167, 160, 125, 132, 163, 97, 2, 0.539995
180, 3, wb, filler, NA, 999, 999, 7, 2, 167, 160, 125, 132, 163, 97, 1, 0.708955
180, 3, wb, attraction, a-b-db, 9, 2, 7, 3, 86, 157, 90, 165, 165, 90, 1, 0.710116
180, 3, wb, attraction, a-b-db, 9, 2, 7, 3, 86, 157, 90, 165, 165, 90, 2, 0.456553
180, 3, wb, attraction, a-b-db, 5, 2, 7, 4, 165, 90, 90, 165, 88, 161, 2, 0.755596
180, 3, wb, attraction, a-b-db, 5, 2, 7, 4, 165, 90, 90, 165, 88, 161, 3, 0.33201
180, 3, wb, filler, NA, 999, 999, 7, 5, 157, 72, 177, 138, 169, 137, 1, 0.652522
180, 3, wb, filler, NA, 999, 999, 7, 5, 157, 72, 177, 138, 169, 137, 3, 1.18564
180, 3, wb, attraction, a-b-da, 5, 3, 7, 6, 190, 117, 195, 120, 120, 195, 2, 0.751779
180, 3, wb, attraction, a-b-da, 5, 3, 7, 6, 190, 117, 195, 120, 120, 195, 3, 0.496926
180, 3, wb, attraction, a-b-da, 14, 3, 7, 7, 195, 120, 181, 111, 120, 195, 2, 0.746657
180, 3, wb, attraction, a-b-da, 14, 3, 7, 7, 195, 120, 181, 111, 120, 195, 3, 0.459805
180, 3, wb, attraction, a-b-da, 14, 1, 7, 8, 60, 135, 135, 60, 125, 56, 2, 0.678843
180, 3, wb, attraction, a-b-da, 14, 1, 7, 8, 60, 135, 135, 60, 125, 56, 3, 0.378654
180, 3, wb, filler, NA, 999, 999, 7, 9, 141, 90, 129, 178, 74, 100, 3, 0.721188
180, 3, wb, filler, NA, 999, 999, 7, 9, 141, 90, 129, 178, 74, 100, 2, 0.339511
180, 3, wb, attraction, a-b-da, 9, 1, 7, 10, 129, 57, 135, 60, 60, 135, 2, 1.00403
180, 3, wb, attraction, a-b-da, 9, 1, 7, 10, 129, 57, 135, 60, 60, 135, 3, 0.595224
180, 3, wb, attraction, a-b-da, 2, 3, 7, 11, 193, 119, 195, 120, 120, 195, 2, 4.92087
180, 3, wb, attraction, a-b-da, 2, 3, 7, 11, 193, 119, 195, 120, 120, 195, 3, 0.441953
180, 3, wb, filler, NA, 999, 999, 7, 12, 166, 171, 94, 148, 134, 165, 2, 0.757819
180, 3, wb, filler, NA, 999, 999, 7, 12, 166, 171, 94, 148, 134, 165, 1, 0.606161
180, 3, wb, attraction, a-b-db, 14, 3, 7, 13, 195, 120, 120, 195, 111, 181, 2, 0.563916
180, 3, wb, attraction, a-b-db, 14, 3, 7, 13, 195, 120, 120, 195, 111, 181, 3, 0.460409
180, 3, wb, catch, NA, 999, 999, 7, 14, 90, 165, 124, 191, 72, 123, 3, 0.855544
180, 3, wb, catch, NA, 999, 999, 7, 14, 90, 165, 124, 191, 72, 123, 2, 0.339848
180, 3, wb, filler, NA, 999, 999, 7, 15, 131, 170, 89, 192, 191, 133, 2, 0.820407
180, 3, wb, filler, NA, 999, 999, 7, 15, 131, 170, 89, 192, 191, 133, 3, 0.482802
180, 3, wb, attraction, a-b-da, 5, 2, 7, 16, 165, 90, 161, 88, 90, 165, 2, 0.893594
180, 3, wb, attraction, a-b-da, 5, 2, 7, 16, 165, 90, 161, 88, 90, 165, 3, 0.320226
180, 3, wb, attraction, a-b-db, 2, 2, 7, 17, 90, 165, 165, 90, 89, 163, 2, 0.417408
180, 3, wb, attraction, a-b-db, 2, 2, 7, 17, 90, 165, 165, 90, 89, 163, 1, 0.39986
180, 3, wb, attraction, a-b-db, 9, 1, 7, 18, 57, 129, 135, 60, 60, 135, 2, 0.597763
180, 3, wb, attraction, a-b-db, 9, 1, 7, 18, 57, 129, 135, 60, 60, 135, 3, 0.764971
180, 3, wb, attraction, a-b-db, 9, 3, 7, 19, 114, 186, 195, 120, 120, 195, 2, 0.499833
180, 3, wb, attraction, a-b-db, 9, 3, 7, 19, 114, 186, 195, 120, 120, 195, 3, 0.343113
180, 3, wb, attraction, a-b-db, 5, 1, 7, 20, 58, 132, 60, 135, 135, 60, 2, 0.534868
180, 3, wb, attraction, a-b-db, 5, 1, 7, 20, 58, 132, 60, 135, 135, 60, 3, 0.600753
180, 3, wb, attraction, a-b-db, 2, 3, 7, 21, 195, 120, 120, 195, 119, 193, 2, 0.430455
180, 3, wb, attraction, a-b-db, 2, 3, 7, 21, 195, 120, 120, 195, 119, 193, 3, 0.404366
180, 3, wb, attraction, a-b-da, 9, 3, 7, 22, 186, 114, 195, 120, 120, 195, 2, 0.514114
180, 3, wb, attraction, a-b-da, 9, 3, 7, 22, 186, 114, 195, 120, 120, 195, 3, 0.428541
180, 3, wb, attraction, a-b-db, 2, 1, 7, 23, 135, 60, 59, 134, 60, 135, 2, 0.497076
180, 3, wb, attraction, a-b-db, 2, 1, 7, 23, 135, 60, 59, 134, 60, 135, 3, 0.404287
180, 3, wb, attraction, a-b-da, 2, 1, 7, 24, 60, 135, 134, 59, 135, 60, 2, 0.513947
180, 3, wb, attraction, a-b-da, 2, 1, 7, 24, 60, 135, 134, 59, 135, 60, 3, 0.532604
180, 3, wb, attraction, a-b-da, 5, 1, 7, 25, 132, 58, 60, 135, 135, 60, 2, 0.452991
180, 3, wb, attraction, a-b-da, 5, 1, 7, 25, 132, 58, 60, 135, 135, 60, 3, 0.554176
180, 3, wb, attraction, a-b-da, 14, 2, 7, 26, 90, 165, 165, 90, 153, 83, 2, 0.417836
180, 3, wb, attraction, a-b-da, 14, 2, 7, 26, 90, 165, 165, 90, 153, 83, 3, 0.560473
180, 3, wb, filler, NA, 999, 999, 7, 27, 182, 96, 142, 136, 76, 178, 3, 1.10356
180, 3, wb, filler, NA, 999, 999, 7, 27, 182, 96, 142, 136, 76, 178, 2, 0.618482
180, 3, wb, catch, NA, 999, 999, 7, 28, 149, 106, 126, 189, 120, 75, 3, 0.6876
180, 3, wb, catch, NA, 999, 999, 7, 28, 149, 106, 126, 189, 120, 75, 2, 0.379349
180, 3, wb, attraction, a-b-db, 14, 2, 7, 29, 90, 165, 83, 153, 165, 90, 2, 0.721765
180, 3, wb, attraction, a-b-db, 14, 2, 7, 29, 90, 165, 83, 153, 165, 90, 1, 0.715536
180, 3, wb, attraction, a-b-db, 14, 1, 7, 30, 56, 125, 60, 135, 135, 60, 2, 0.572731
180, 3, wb, attraction, a-b-db, 14, 1, 7, 30, 56, 125, 60, 135, 135, 60, 3, 0.444308
180, 3, wb, filler, NA, 999, 999, 7, 31, 80, 124, 117, 106, 75, 160, 2, 0.480135
180, 3, wb, filler, NA, 999, 999, 7, 31, 80, 124, 117, 106, 75, 160, 1, 0.66809
180, 3, wb, catch, NA, 999, 999, 7, 32, 108, 87, 163, 92, 161, 154, 2, 0.7432
180, 3, wb, catch, NA, 999, 999, 7, 32, 108, 87, 163, 92, 161, 154, 3, 0.816124
180, 3, wb, attraction, a-b-da, 2, 2, 7, 33, 90, 165, 165, 90, 163, 89, 2, 0.605214
180, 3, wb, attraction, a-b-da, 2, 2, 7, 33, 90, 165, 165, 90, 163, 89, 1, 0.403643
180, 3, wb, filler, NA, 999, 999, 7, 34, 180, 82, 97, 113, 79, 60, 3, 0.641416
180, 3, wb, filler, NA, 999, 999, 7, 34, 180, 82, 97, 113, 79, 60, 1, 0.958599
180, 3, wb, attraction, a-b-db, 5, 3, 7, 35, 117, 190, 120, 195, 195, 120, 1, 0.949471
180, 3, wb, attraction, a-b-db, 5, 3, 7, 35, 117, 190, 120, 195, 195, 120, 3, 1.23057
180, 3, wb, filler, NA, 999, 999, 7, 36, 110, 152, 149, 149, 162, 130, 2, 0.722728
180, 3, wb, filler, NA, 999, 999, 7, 36, 110, 152, 149, 149, 162, 130, 3, 0.332662
180, 3, wb, attraction, a-b-da, 9, 2, 7, 37, 90, 165, 157, 86, 165, 90, 2, 0.581001
180, 3, wb, attraction, a-b-da, 9, 2, 7, 37, 90, 165, 157, 86, 165, 90, 3, 0.340833
180, 3, wb, filler, NA, 999, 999, 8, 1, 92, 112, 100, 61, 114, 157, 2, 0.628604
180, 3, wb, filler, NA, 999, 999, 8, 1, 92, 112, 100, 61, 114, 157, 3, 0.354403
180, 3, wb, filler, NA, 999, 999, 8, 2, 65, 178, 96, 91, 89, 139, 2, 0.594244
180, 3, wb, filler, NA, 999, 999, 8, 2, 65, 178, 96, 91, 89, 139, 3, 0.497474
180, 3, wb, attraction, a-b-db, 14, 3, 8, 3, 111, 181, 195, 120, 120, 195, 2, 0.571065
180, 3, wb, attraction, a-b-db, 14, 3, 8, 3, 111, 181, 195, 120, 120, 195, 3, 0.323558
180, 3, wb, attraction, a-b-da, 14, 2, 8, 4, 90, 165, 153, 83, 165, 90, 2, 0.588074
180, 3, wb, attraction, a-b-da, 14, 2, 8, 4, 90, 165, 153, 83, 165, 90, 1, 0.555875
180, 3, wb, attraction, a-b-da, 9, 1, 8, 5, 60, 135, 129, 57, 135, 60, 2, 0.611782
180, 3, wb, attraction, a-b-da, 9, 1, 8, 5, 60, 135, 129, 57, 135, 60, 3, 0.37009
180, 3, wb, attraction, a-b-da, 14, 1, 8, 6, 125, 56, 60, 135, 135, 60, 2, 0.505232
180, 3, wb, attraction, a-b-da, 14, 1, 8, 6, 125, 56, 60, 135, 135, 60, 3, 0.515804
180, 3, wb, filler, NA, 999, 999, 8, 7, 143, 122, 164, 70, 168, 76, 2, 0.45285
180, 3, wb, filler, NA, 999, 999, 8, 7, 143, 122, 164, 70, 168, 76, 1, 0.386012
180, 3, wb, attraction, a-b-da, 14, 3, 8, 8, 195, 120, 181, 111, 120, 195, 2, 0.680513
180, 3, wb, attraction, a-b-da, 14, 3, 8, 8, 195, 120, 181, 111, 120, 195, 3, 0.300325
180, 3, wb, filler, NA, 999, 999, 8, 9, 118, 81, 132, 85, 128, 162, 2, 0.51005
180, 3, wb, filler, NA, 999, 999, 8, 9, 118, 81, 132, 85, 128, 162, 3, 0.384615
180, 3, wb, filler, NA, 999, 999, 8, 10, 152, 90, 175, 146, 76, 113, 3, 0.767051
180, 3, wb, filler, NA, 999, 999, 8, 10, 152, 90, 175, 146, 76, 113, 2, 0.367496
180, 3, wb, attraction, a-b-db, 5, 1, 8, 11, 135, 60, 58, 132, 60, 135, 2, 0.774688
180, 3, wb, attraction, a-b-db, 5, 1, 8, 11, 135, 60, 58, 132, 60, 135, 1, 0.36646
180, 3, wb, attraction, a-b-db, 2, 3, 8, 12, 195, 120, 120, 195, 119, 193, 2, 0.557554
180, 3, wb, attraction, a-b-db, 2, 3, 8, 12, 195, 120, 120, 195, 119, 193, 3, 0.358024
180, 3, wb, attraction, a-b-db, 5, 2, 8, 13, 165, 90, 90, 165, 88, 161, 2, 0.501284
180, 3, wb, attraction, a-b-db, 5, 2, 8, 13, 165, 90, 90, 165, 88, 161, 3, 0.328333
180, 3, wb, attraction, a-b-da, 5, 1, 8, 14, 60, 135, 132, 58, 135, 60, 2, 0.576878
180, 3, wb, attraction, a-b-da, 5, 1, 8, 14, 60, 135, 132, 58, 135, 60, 3, 0.336617
180, 3, wb, catch, NA, 999, 999, 8, 15, 172, 143, 81, 114, 158, 97, 2, 0.433119
180, 3, wb, catch, NA, 999, 999, 8, 15, 172, 143, 81, 114, 158, 97, 1, 0.319046
180, 3, wb, attraction, a-b-da, 9, 2, 8, 16, 165, 90, 157, 86, 90, 165, 2, 0.792184
180, 3, wb, attraction, a-b-da, 9, 2, 8, 16, 165, 90, 157, 86, 90, 165, 1, 0.543146
180, 3, wb, filler, NA, 999, 999, 8, 17, 138, 79, 89, 139, 155, 112, 2, 0.438903
180, 3, wb, filler, NA, 999, 999, 8, 17, 138, 79, 89, 139, 155, 112, 3, 0.572225
180, 3, wb, attraction, a-b-db, 14, 1, 8, 18, 60, 135, 135, 60, 56, 125, 2, 0.483388
180, 3, wb, attraction, a-b-db, 14, 1, 8, 18, 60, 135, 135, 60, 56, 125, 3, 0.375173
180, 3, wb, attraction, a-b-db, 9, 2, 8, 19, 86, 157, 90, 165, 165, 90, 2, 0.429492
180, 3, wb, attraction, a-b-db, 9, 2, 8, 19, 86, 157, 90, 165, 165, 90, 1, 0.33939
180, 3, wb, catch, NA, 999, 999, 8, 20, 153, 162, 101, 154, 129, 66, 3, 1.01997
180, 3, wb, catch, NA, 999, 999, 8, 20, 153, 162, 101, 154, 129, 66, 1, 0.562275
180, 3, wb, catch, NA, 999, 999, 8, 21, 108, 147, 78, 117, 141, 174, 2, 0.817382
180, 3, wb, catch, NA, 999, 999, 8, 21, 108, 147, 78, 117, 141, 174, 3, 0.335834
180, 3, wb, attraction, a-b-db, 9, 3, 8, 22, 195, 120, 120, 195, 114, 186, 1, 0.856171
180, 3, wb, attraction, a-b-db, 9, 3, 8, 22, 195, 120, 120, 195, 114, 186, 2, 0.492639
180, 3, wb, attraction, a-b-da, 5, 3, 8, 23, 195, 120, 190, 117, 120, 195, 2, 0.822332
180, 3, wb, attraction, a-b-da, 5, 3, 8, 23, 195, 120, 190, 117, 120, 195, 3, 0.292083
180, 3, wb, filler, NA, 999, 999, 8, 24, 60, 121, 77, 144, 152, 158, 1, 0.694013
180, 3, wb, filler, NA, 999, 999, 8, 24, 60, 121, 77, 144, 152, 158, 3, 0.641069
180, 3, wb, attraction, a-b-da, 2, 2, 8, 25, 163, 89, 90, 165, 165, 90, 1, 1.53276
180, 3, wb, attraction, a-b-da, 2, 2, 8, 25, 163, 89, 90, 165, 165, 90, 2, 0.670186
180, 3, wb, attraction, a-b-db, 5, 3, 8, 26, 117, 190, 120, 195, 195, 120, 2, 0.80936
180, 3, wb, attraction, a-b-db, 5, 3, 8, 26, 117, 190, 120, 195, 195, 120, 3, 0.615815
180, 3, wb, attraction, a-b-db, 14, 2, 8, 27, 83, 153, 165, 90, 90, 165, 2, 0.69278
180, 3, wb, attraction, a-b-db, 14, 2, 8, 27, 83, 153, 165, 90, 90, 165, 3, 0.47192
180, 3, wb, attraction, a-b-da, 5, 2, 8, 28, 165, 90, 161, 88, 90, 165, 2, 0.434977
180, 3, wb, attraction, a-b-da, 5, 2, 8, 28, 165, 90, 161, 88, 90, 165, 3, 0.344969
180, 3, wb, attraction, a-b-da, 2, 3, 8, 29, 193, 119, 195, 120, 120, 195, 2, 0.44871
180, 3, wb, attraction, a-b-da, 2, 3, 8, 29, 193, 119, 195, 120, 120, 195, 1, 0.373905
180, 3, wb, attraction, a-b-db, 9, 1, 8, 30, 60, 135, 135, 60, 57, 129, 2, 0.676356
180, 3, wb, attraction, a-b-db, 9, 1, 8, 30, 60, 135, 135, 60, 57, 129, 3, 0.744095
180, 3, wb, attraction, a-b-da, 9, 3, 8, 31, 195, 120, 186, 114, 120, 195, 2, 0.599791
180, 3, wb, attraction, a-b-da, 9, 3, 8, 31, 195, 120, 186, 114, 120, 195, 1, 0.543032
180, 3, wb, filler, NA, 999, 999, 8, 32, 189, 154, 139, 124, 107, 175, 2, 0.542732
180, 3, wb, filler, NA, 999, 999, 8, 32, 189, 154, 139, 124, 107, 175, 1, 0.663826
180, 3, wb, attraction, a-b-db, 2, 2, 8, 33, 89, 163, 90, 165, 165, 90, 2, 7.89893
180, 3, wb, attraction, a-b-db, 2, 2, 8, 33, 89, 163, 90, 165, 165, 90, 3, 0.955762
180, 3, wb, filler, NA, 999, 999, 8, 34, 156, 179, 156, 63, 117, 179, 2, 0.531385
180, 3, wb, filler, NA, 999, 999, 8, 34, 156, 179, 156, 63, 117, 179, 1, 0.389272
180, 3, wb, filler, NA, 999, 999, 8, 35, 148, 56, 136, 194, 70, 143, 1, 0.827674
180, 3, wb, filler, NA, 999, 999, 8, 35, 148, 56, 136, 194, 70, 143, 2, 0.337337
180, 3, wb, attraction, a-b-db, 2, 1, 8, 36, 60, 135, 135, 60, 59, 134, 2, 0.737912
180, 3, wb, attraction, a-b-db, 2, 1, 8, 36, 60, 135, 135, 60, 59, 134, 1, 0.523022
180, 3, wb, attraction, a-b-da, 2, 1, 8, 37, 60, 135, 135, 60, 134, 59, 2, 0.564054
180, 3, wb, attraction, a-b-da, 2, 1, 8, 37, 60, 135, 135, 60, 134, 59, 1, 0.364594
