sub_n, computer_n, bw_cond, effect, set, distance, diag, block_n, trial_n, h1, w1, h2, w2, h3, w3, choice, rt 
102, 3, wb, practice, NA, 999, 999, 0, 1, 135, 112, 58, 61, 179, 108, 2, 2.74082
102, 3, wb, practice, NA, 999, 999, 0, 1, 135, 112, 58, 61, 179, 108, 3, 2.09318
102, 3, wb, practice, NA, 999, 999, 0, 2, 60, 112, 87, 60, 113, 161, 2, 2.42752
102, 3, wb, practice, NA, 999, 999, 0, 2, 60, 112, 87, 60, 113, 161, 3, 1.21707
102, 3, wb, practice, NA, 999, 999, 0, 3, 65, 72, 177, 120, 195, 160, 1, 1.9074
102, 3, wb, practice, NA, 999, 999, 0, 3, 65, 72, 177, 120, 195, 160, 3, 8.81417
102, 3, wb, attraction, a-b-db, 9, 2, 1, 1, 86, 157, 165, 90, 90, 165, 1, 5.47881
102, 3, wb, attraction, a-b-db, 9, 2, 1, 1, 86, 157, 165, 90, 90, 165, 2, 7.21704
102, 3, wb, catch, NA, 999, 999, 1, 2, 92, 163, 125, 70, 166, 149, 2, 1.93205
102, 3, wb, catch, NA, 999, 999, 1, 2, 92, 163, 125, 70, 166, 149, 3, 0.589477
102, 3, wb, attraction, a-b-db, 5, 3, 1, 3, 117, 190, 120, 195, 195, 120, 1, 2.0119
102, 3, wb, attraction, a-b-db, 5, 3, 1, 3, 117, 190, 120, 195, 195, 120, 3, 4.68992
102, 3, wb, attraction, a-b-da, 5, 3, 1, 4, 120, 195, 195, 120, 190, 117, 3, 3.54713
102, 3, wb, attraction, a-b-da, 5, 3, 1, 4, 120, 195, 195, 120, 190, 117, 2, 1.69119
102, 3, wb, attraction, a-b-da, 14, 3, 1, 5, 181, 111, 195, 120, 120, 195, 1, 1.20456
102, 3, wb, attraction, a-b-da, 14, 3, 1, 5, 181, 111, 195, 120, 120, 195, 3, 1.04361
102, 3, wb, attraction, a-b-db, 9, 3, 1, 6, 120, 195, 195, 120, 114, 186, 3, 2.6152
102, 3, wb, attraction, a-b-db, 9, 3, 1, 6, 120, 195, 195, 120, 114, 186, 2, 35.405
102, 3, wb, filler, NA, 999, 999, 1, 7, 108, 143, 74, 59, 155, 91, 2, 1.37582
102, 3, wb, filler, NA, 999, 999, 1, 7, 108, 143, 74, 59, 155, 91, 1, 20.3916
102, 3, wb, filler, NA, 999, 999, 1, 8, 84, 79, 93, 82, 111, 120, 1, 2.44773
102, 3, wb, filler, NA, 999, 999, 1, 8, 84, 79, 93, 82, 111, 120, 3, 1.02021
102, 3, wb, filler, NA, 999, 999, 1, 9, 157, 146, 119, 68, 115, 192, 2, 1.15318
102, 3, wb, filler, NA, 999, 999, 1, 9, 157, 146, 119, 68, 115, 192, 1, 6.50613
102, 3, wb, filler, NA, 999, 999, 1, 10, 127, 61, 120, 185, 189, 148, 1, 1.21802
102, 3, wb, filler, NA, 999, 999, 1, 10, 127, 61, 120, 185, 189, 148, 3, 1.02439
102, 3, wb, attraction, a-b-da, 2, 1, 1, 11, 135, 60, 134, 59, 60, 135, 1, 4.47684
102, 3, wb, attraction, a-b-da, 2, 1, 1, 11, 135, 60, 134, 59, 60, 135, 3, 0.647133
102, 3, wb, filler, NA, 999, 999, 1, 12, 182, 57, 85, 61, 139, 186, 2, 1.03481
102, 3, wb, filler, NA, 999, 999, 1, 12, 182, 57, 85, 61, 139, 186, 3, 0.544507
102, 3, wb, attraction, a-b-da, 2, 2, 1, 13, 163, 89, 165, 90, 90, 165, 1, 22.7363
102, 3, wb, attraction, a-b-da, 2, 2, 1, 13, 163, 89, 165, 90, 90, 165, 3, 0.827274
102, 3, wb, attraction, a-b-da, 9, 2, 1, 14, 165, 90, 90, 165, 157, 86, 3, 3.09563
102, 3, wb, attraction, a-b-da, 9, 2, 1, 14, 165, 90, 90, 165, 157, 86, 2, 0.809838
102, 3, wb, attraction, a-b-da, 14, 2, 1, 15, 153, 83, 165, 90, 90, 165, 1, 3.01505
102, 3, wb, attraction, a-b-da, 14, 2, 1, 15, 153, 83, 165, 90, 90, 165, 2, 1.18061
102, 3, wb, catch, NA, 999, 999, 1, 16, 60, 135, 142, 113, 181, 134, 1, 1.14679
102, 3, wb, catch, NA, 999, 999, 1, 16, 60, 135, 142, 113, 181, 134, 3, 1.0037
102, 3, wb, attraction, a-b-db, 5, 2, 1, 17, 90, 165, 165, 90, 88, 161, 3, 1.94552
102, 3, wb, attraction, a-b-db, 5, 2, 1, 17, 90, 165, 165, 90, 88, 161, 2, 27.3703
102, 3, wb, attraction, a-b-da, 5, 2, 1, 18, 90, 165, 161, 88, 165, 90, 1, 2.19282
102, 3, wb, attraction, a-b-da, 5, 2, 1, 18, 90, 165, 161, 88, 165, 90, 3, 0.615401
102, 3, wb, attraction, a-b-db, 14, 3, 1, 19, 111, 181, 120, 195, 195, 120, 1, 4.10854
102, 3, wb, attraction, a-b-db, 14, 3, 1, 19, 111, 181, 120, 195, 195, 120, 3, 0.869883
102, 3, wb, attraction, a-b-da, 14, 1, 1, 20, 135, 60, 60, 135, 125, 56, 3, 1.54501
102, 3, wb, attraction, a-b-da, 14, 1, 1, 20, 135, 60, 60, 135, 125, 56, 1, 1.20973
102, 3, wb, filler, NA, 999, 999, 1, 21, 102, 96, 139, 148, 93, 99, 3, 1.44666
102, 3, wb, filler, NA, 999, 999, 1, 21, 102, 96, 139, 148, 93, 99, 1, 0.979476
102, 3, wb, filler, NA, 999, 999, 1, 22, 104, 84, 92, 63, 192, 176, 2, 1.44175
102, 3, wb, filler, NA, 999, 999, 1, 22, 104, 84, 92, 63, 192, 176, 3, 0.5746
102, 3, wb, filler, NA, 999, 999, 1, 23, 124, 119, 168, 141, 85, 105, 3, 0.893234
102, 3, wb, filler, NA, 999, 999, 1, 23, 124, 119, 168, 141, 85, 105, 2, 0.8321
102, 3, wb, filler, NA, 999, 999, 1, 24, 71, 74, 185, 147, 79, 190, 1, 1.02049
102, 3, wb, filler, NA, 999, 999, 1, 24, 71, 74, 185, 147, 79, 190, 2, 0.690735
102, 3, wb, catch, NA, 999, 999, 1, 25, 90, 105, 144, 111, 182, 133, 1, 1.15646
102, 3, wb, catch, NA, 999, 999, 1, 25, 90, 105, 144, 111, 182, 133, 3, 0.516698
102, 3, wb, filler, NA, 999, 999, 1, 26, 62, 111, 67, 72, 168, 104, 2, 0.86192
102, 3, wb, filler, NA, 999, 999, 1, 26, 62, 111, 67, 72, 168, 104, 3, 0.394199
102, 3, wb, attraction, a-b-db, 9, 1, 1, 27, 57, 129, 135, 60, 60, 135, 1, 1.24795
102, 3, wb, attraction, a-b-db, 9, 1, 1, 27, 57, 129, 135, 60, 60, 135, 3, 0.460895
102, 3, wb, attraction, a-b-db, 2, 3, 1, 28, 120, 195, 119, 193, 195, 120, 2, 21.8161
102, 3, wb, attraction, a-b-db, 2, 3, 1, 28, 120, 195, 119, 193, 195, 120, 3, 0.743876
102, 3, wb, attraction, a-b-db, 14, 2, 1, 29, 165, 90, 83, 153, 90, 165, 2, 6.56774
102, 3, wb, attraction, a-b-db, 14, 2, 1, 29, 165, 90, 83, 153, 90, 165, 1, 1.27834
102, 3, wb, attraction, a-b-db, 2, 2, 1, 30, 165, 90, 90, 165, 89, 163, 1, 35.9685
102, 3, wb, attraction, a-b-db, 2, 2, 1, 30, 165, 90, 90, 165, 89, 163, 2, 18.1899
102, 3, wb, attraction, a-b-da, 9, 1, 1, 31, 60, 135, 129, 57, 135, 60, 1, 4.67068
102, 3, wb, attraction, a-b-da, 9, 1, 1, 31, 60, 135, 129, 57, 135, 60, 3, 0.794045
102, 3, wb, attraction, a-b-da, 2, 3, 1, 32, 120, 195, 193, 119, 195, 120, 1, 4.44768
102, 3, wb, attraction, a-b-da, 2, 3, 1, 32, 120, 195, 193, 119, 195, 120, 2, 0.947717
102, 3, wb, attraction, a-b-db, 14, 1, 1, 33, 135, 60, 56, 125, 60, 135, 2, 2.26712
102, 3, wb, attraction, a-b-db, 14, 1, 1, 33, 135, 60, 56, 125, 60, 135, 1, 0.647103
102, 3, wb, attraction, a-b-da, 5, 1, 1, 34, 60, 135, 132, 58, 135, 60, 1, 3.33882
102, 3, wb, attraction, a-b-da, 5, 1, 1, 34, 60, 135, 132, 58, 135, 60, 3, 1.69125
102, 3, wb, attraction, a-b-da, 9, 3, 1, 35, 195, 120, 120, 195, 186, 114, 2, 2.6926
102, 3, wb, attraction, a-b-da, 9, 3, 1, 35, 195, 120, 120, 195, 186, 114, 1, 0.734986
102, 3, wb, attraction, a-b-db, 2, 1, 1, 36, 60, 135, 135, 60, 59, 134, 3, 4.22341
102, 3, wb, attraction, a-b-db, 2, 1, 1, 36, 60, 135, 135, 60, 59, 134, 2, 0.756106
102, 3, wb, attraction, a-b-db, 5, 1, 1, 37, 60, 135, 135, 60, 58, 132, 3, 1.38779
102, 3, wb, attraction, a-b-db, 5, 1, 1, 37, 60, 135, 135, 60, 58, 132, 2, 0.819319
102, 3, wb, attraction, a-b-da, 9, 3, 2, 1, 186, 114, 120, 195, 195, 120, 1, 2.95227
102, 3, wb, attraction, a-b-da, 9, 3, 2, 1, 186, 114, 120, 195, 195, 120, 2, 0.488827
102, 3, wb, attraction, a-b-db, 14, 2, 2, 2, 90, 165, 83, 153, 165, 90, 1, 1.57116
102, 3, wb, attraction, a-b-db, 14, 2, 2, 2, 90, 165, 83, 153, 165, 90, 3, 0.755302
102, 3, wb, attraction, a-b-da, 5, 2, 2, 3, 165, 90, 161, 88, 90, 165, 1, 1.67501
102, 3, wb, attraction, a-b-da, 5, 2, 2, 3, 165, 90, 161, 88, 90, 165, 3, 0.470461
102, 3, wb, catch, NA, 999, 999, 2, 4, 64, 131, 94, 161, 192, 123, 1, 0.56956
102, 3, wb, catch, NA, 999, 999, 2, 4, 64, 131, 94, 161, 192, 123, 3, 0.505991
102, 3, wb, attraction, a-b-db, 5, 3, 2, 5, 195, 120, 117, 190, 120, 195, 3, 1.36383
102, 3, wb, attraction, a-b-db, 5, 3, 2, 5, 195, 120, 117, 190, 120, 195, 1, 0.676048
102, 3, wb, attraction, a-b-db, 2, 2, 2, 6, 90, 165, 165, 90, 89, 163, 1, 1.32646
102, 3, wb, attraction, a-b-db, 2, 2, 2, 6, 90, 165, 165, 90, 89, 163, 2, 0.528014
102, 3, wb, catch, NA, 999, 999, 2, 7, 144, 111, 112, 83, 152, 163, 2, 0.7205
102, 3, wb, catch, NA, 999, 999, 2, 7, 144, 111, 112, 83, 152, 163, 3, 0.562868
102, 3, wb, attraction, a-b-da, 2, 1, 2, 8, 135, 60, 60, 135, 134, 59, 1, 1.14592
102, 3, wb, attraction, a-b-da, 2, 1, 2, 8, 135, 60, 60, 135, 134, 59, 2, 0.410921
102, 3, wb, filler, NA, 999, 999, 2, 9, 107, 80, 82, 82, 115, 107, 2, 1.0001
102, 3, wb, filler, NA, 999, 999, 2, 9, 107, 80, 82, 82, 115, 107, 3, 0.503145
102, 3, wb, filler, NA, 999, 999, 2, 10, 88, 90, 81, 137, 160, 80, 1, 1.0568
102, 3, wb, filler, NA, 999, 999, 2, 10, 88, 90, 81, 137, 160, 80, 3, 0.693063
102, 3, wb, filler, NA, 999, 999, 2, 11, 166, 157, 183, 122, 159, 181, 2, 1.215
102, 3, wb, filler, NA, 999, 999, 2, 11, 166, 157, 183, 122, 159, 181, 3, 0.613217
102, 3, wb, attraction, a-b-db, 14, 3, 2, 12, 195, 120, 111, 181, 120, 195, 2, 2.06623
102, 3, wb, attraction, a-b-db, 14, 3, 2, 12, 195, 120, 111, 181, 120, 195, 1, 0.4942
102, 3, wb, attraction, a-b-db, 5, 1, 2, 13, 58, 132, 60, 135, 135, 60, 2, 1.344
102, 3, wb, attraction, a-b-db, 5, 1, 2, 13, 58, 132, 60, 135, 135, 60, 3, 0.784892
102, 3, wb, attraction, a-b-db, 9, 3, 2, 14, 120, 195, 114, 186, 195, 120, 2, 0.879336
102, 3, wb, attraction, a-b-db, 9, 3, 2, 14, 120, 195, 114, 186, 195, 120, 3, 0.682951
102, 3, wb, attraction, a-b-da, 5, 3, 2, 15, 120, 195, 195, 120, 190, 117, 1, 0.853354
102, 3, wb, attraction, a-b-da, 5, 3, 2, 15, 120, 195, 195, 120, 190, 117, 3, 0.746436
102, 3, wb, attraction, a-b-da, 14, 3, 2, 16, 195, 120, 181, 111, 120, 195, 2, 0.706127
102, 3, wb, attraction, a-b-da, 14, 3, 2, 16, 195, 120, 181, 111, 120, 195, 3, 0.58842
102, 3, wb, filler, NA, 999, 999, 2, 17, 140, 190, 89, 140, 177, 192, 2, 0.898863
102, 3, wb, filler, NA, 999, 999, 2, 17, 140, 190, 89, 140, 177, 192, 3, 0.533906
102, 3, wb, filler, NA, 999, 999, 2, 18, 117, 69, 191, 143, 142, 94, 1, 1.18239
102, 3, wb, filler, NA, 999, 999, 2, 18, 117, 69, 191, 143, 142, 94, 2, 0.709993
102, 3, wb, filler, NA, 999, 999, 2, 19, 167, 135, 91, 135, 92, 91, 3, 1.43116
102, 3, wb, filler, NA, 999, 999, 2, 19, 167, 135, 91, 135, 92, 91, 1, 0.764587
102, 3, wb, attraction, a-b-da, 5, 1, 2, 20, 60, 135, 132, 58, 135, 60, 3, 0.931718
102, 3, wb, attraction, a-b-da, 5, 1, 2, 20, 60, 135, 132, 58, 135, 60, 1, 2.16535
102, 3, wb, attraction, a-b-da, 2, 2, 2, 21, 165, 90, 90, 165, 163, 89, 2, 2.27595
102, 3, wb, attraction, a-b-da, 2, 2, 2, 21, 165, 90, 90, 165, 163, 89, 1, 1.91119
102, 3, wb, attraction, a-b-da, 14, 1, 2, 22, 125, 56, 60, 135, 135, 60, 2, 1.10386
102, 3, wb, attraction, a-b-da, 14, 1, 2, 22, 125, 56, 60, 135, 135, 60, 3, 1.74694
102, 3, wb, attraction, a-b-da, 9, 2, 2, 23, 165, 90, 90, 165, 157, 86, 2, 1.51427
102, 3, wb, attraction, a-b-da, 9, 2, 2, 23, 165, 90, 90, 165, 157, 86, 1, 0.636252
102, 3, wb, attraction, a-b-db, 9, 2, 2, 24, 86, 157, 165, 90, 90, 165, 1, 8.24074
102, 3, wb, attraction, a-b-db, 9, 2, 2, 24, 86, 157, 165, 90, 90, 165, 2, 0.80346
102, 3, wb, filler, NA, 999, 999, 2, 25, 137, 113, 110, 177, 163, 128, 1, 1.20121
102, 3, wb, filler, NA, 999, 999, 2, 25, 137, 113, 110, 177, 163, 128, 3, 0.59205
102, 3, wb, attraction, a-b-db, 2, 1, 2, 26, 135, 60, 59, 134, 60, 135, 1, 1.14182
102, 3, wb, attraction, a-b-db, 2, 1, 2, 26, 135, 60, 59, 134, 60, 135, 3, 0.590842
102, 3, wb, filler, NA, 999, 999, 2, 27, 89, 191, 182, 69, 101, 67, 3, 0.820564
102, 3, wb, filler, NA, 999, 999, 2, 27, 89, 191, 182, 69, 101, 67, 1, 0.586972
102, 3, wb, filler, NA, 999, 999, 2, 28, 158, 155, 91, 57, 77, 148, 2, 1.05733
102, 3, wb, filler, NA, 999, 999, 2, 28, 158, 155, 91, 57, 77, 148, 1, 0.421692
102, 3, wb, attraction, a-b-da, 9, 1, 2, 29, 135, 60, 60, 135, 129, 57, 3, 5.53099
102, 3, wb, attraction, a-b-da, 9, 1, 2, 29, 135, 60, 60, 135, 129, 57, 1, 2.09107
102, 3, wb, filler, NA, 999, 999, 2, 30, 125, 152, 70, 168, 149, 79, 2, 1.9243
102, 3, wb, filler, NA, 999, 999, 2, 30, 125, 152, 70, 168, 149, 79, 1, 0.773718
102, 3, wb, attraction, a-b-da, 2, 3, 2, 31, 193, 119, 120, 195, 195, 120, 2, 2.88406
102, 3, wb, attraction, a-b-da, 2, 3, 2, 31, 193, 119, 120, 195, 195, 120, 3, 0.591181
102, 3, wb, attraction, a-b-db, 2, 3, 2, 32, 119, 193, 195, 120, 120, 195, 2, 1.76501
102, 3, wb, attraction, a-b-db, 2, 3, 2, 32, 119, 193, 195, 120, 120, 195, 1, 0.989107
102, 3, wb, attraction, a-b-da, 14, 2, 2, 33, 165, 90, 90, 165, 153, 83, 2, 0.899372
102, 3, wb, attraction, a-b-da, 14, 2, 2, 33, 165, 90, 90, 165, 153, 83, 1, 1.06232
102, 3, wb, attraction, a-b-db, 5, 2, 2, 34, 165, 90, 88, 161, 90, 165, 2, 0.785221
102, 3, wb, attraction, a-b-db, 5, 2, 2, 34, 165, 90, 88, 161, 90, 165, 3, 0.808969
102, 3, wb, attraction, a-b-db, 9, 1, 2, 35, 57, 129, 135, 60, 60, 135, 2, 0.822068
102, 3, wb, attraction, a-b-db, 9, 1, 2, 35, 57, 129, 135, 60, 60, 135, 3, 0.579835
102, 3, wb, catch, NA, 999, 999, 2, 36, 161, 154, 133, 62, 93, 162, 2, 0.626184
102, 3, wb, catch, NA, 999, 999, 2, 36, 161, 154, 133, 62, 93, 162, 1, 0.416005
102, 3, wb, attraction, a-b-db, 14, 1, 2, 37, 60, 135, 56, 125, 135, 60, 2, 0.645027
102, 3, wb, attraction, a-b-db, 14, 1, 2, 37, 60, 135, 56, 125, 135, 60, 3, 0.834144
102, 3, wb, filler, NA, 999, 999, 3, 1, 175, 185, 144, 150, 132, 57, 2, 0.59859
102, 3, wb, filler, NA, 999, 999, 3, 1, 175, 185, 144, 150, 132, 57, 1, 1.26967
102, 3, wb, filler, NA, 999, 999, 3, 2, 116, 101, 174, 84, 163, 162, 1, 2.76059
102, 3, wb, filler, NA, 999, 999, 3, 2, 116, 101, 174, 84, 163, 162, 3, 0.696476
102, 3, wb, attraction, a-b-db, 2, 1, 3, 3, 135, 60, 60, 135, 59, 134, 1, 1.63406
102, 3, wb, attraction, a-b-db, 2, 1, 3, 3, 135, 60, 60, 135, 59, 134, 2, 0.807537
102, 3, wb, attraction, a-b-da, 14, 2, 3, 4, 153, 83, 90, 165, 165, 90, 2, 2.67664
102, 3, wb, attraction, a-b-da, 14, 2, 3, 4, 153, 83, 90, 165, 165, 90, 3, 1.2478
102, 3, wb, attraction, a-b-db, 9, 1, 3, 5, 135, 60, 57, 129, 60, 135, 2, 3.48332
102, 3, wb, attraction, a-b-db, 9, 1, 3, 5, 135, 60, 57, 129, 60, 135, 1, 0.678105
102, 3, wb, filler, NA, 999, 999, 3, 6, 131, 112, 188, 107, 113, 183, 1, 3.59252
102, 3, wb, filler, NA, 999, 999, 3, 6, 131, 112, 188, 107, 113, 183, 2, 1.93463
102, 3, wb, attraction, a-b-db, 14, 2, 3, 7, 90, 165, 165, 90, 83, 153, 3, 1.81466
102, 3, wb, attraction, a-b-db, 14, 2, 3, 7, 90, 165, 165, 90, 83, 153, 1, 1.16471
102, 3, wb, attraction, a-b-db, 2, 2, 3, 8, 165, 90, 89, 163, 90, 165, 2, 3.54778
102, 3, wb, attraction, a-b-db, 2, 2, 3, 8, 165, 90, 89, 163, 90, 165, 1, 0.659989
102, 3, wb, attraction, a-b-da, 14, 3, 3, 9, 195, 120, 120, 195, 181, 111, 2, 1.71113
102, 3, wb, attraction, a-b-da, 14, 3, 3, 9, 195, 120, 120, 195, 181, 111, 1, 0.657149
102, 3, wb, filler, NA, 999, 999, 3, 10, 161, 90, 151, 179, 127, 194, 2, 1.0441
102, 3, wb, filler, NA, 999, 999, 3, 10, 161, 90, 151, 179, 127, 194, 3, 3.59306
102, 3, wb, attraction, a-b-db, 14, 1, 3, 11, 135, 60, 60, 135, 56, 125, 3, 1.41381
102, 3, wb, attraction, a-b-db, 14, 1, 3, 11, 135, 60, 60, 135, 56, 125, 2, 0.564027
102, 3, wb, attraction, a-b-db, 14, 3, 3, 12, 195, 120, 111, 181, 120, 195, 2, 3.82716
102, 3, wb, attraction, a-b-db, 14, 3, 3, 12, 195, 120, 111, 181, 120, 195, 1, 1.26403
102, 3, wb, filler, NA, 999, 999, 3, 13, 136, 64, 187, 65, 119, 108, 1, 1.73088
102, 3, wb, filler, NA, 999, 999, 3, 13, 136, 64, 187, 65, 119, 108, 2, 0.764302
102, 3, wb, filler, NA, 999, 999, 3, 14, 78, 189, 57, 100, 173, 189, 2, 1.30731
102, 3, wb, filler, NA, 999, 999, 3, 14, 78, 189, 57, 100, 173, 189, 3, 0.861544
102, 3, wb, catch, NA, 999, 999, 3, 15, 171, 144, 120, 135, 76, 119, 3, 1.12856
102, 3, wb, catch, NA, 999, 999, 3, 15, 171, 144, 120, 135, 76, 119, 1, 0.642165
102, 3, wb, attraction, a-b-db, 9, 2, 3, 16, 165, 90, 86, 157, 90, 165, 2, 2.52595
102, 3, wb, attraction, a-b-db, 9, 2, 3, 16, 165, 90, 86, 157, 90, 165, 1, 1.07113
102, 3, wb, attraction, a-b-da, 5, 3, 3, 17, 120, 195, 190, 117, 195, 120, 1, 2.84999
102, 3, wb, attraction, a-b-da, 5, 3, 3, 17, 120, 195, 190, 117, 195, 120, 2, 1.52647
102, 3, wb, attraction, a-b-da, 14, 1, 3, 18, 60, 135, 125, 56, 135, 60, 1, 2.07875
102, 3, wb, attraction, a-b-da, 14, 1, 3, 18, 60, 135, 125, 56, 135, 60, 3, 1.12195
102, 3, wb, filler, NA, 999, 999, 3, 19, 136, 177, 86, 79, 156, 187, 2, 0.730767
102, 3, wb, filler, NA, 999, 999, 3, 19, 136, 177, 86, 79, 156, 187, 3, 0.70063
102, 3, wb, attraction, a-b-da, 2, 1, 3, 20, 135, 60, 60, 135, 134, 59, 2, 4.25431
102, 3, wb, attraction, a-b-da, 2, 1, 3, 20, 135, 60, 60, 135, 134, 59, 3, 0.514404
102, 3, wb, filler, NA, 999, 999, 3, 21, 190, 174, 141, 116, 133, 155, 2, 0.78744
102, 3, wb, filler, NA, 999, 999, 3, 21, 190, 174, 141, 116, 133, 155, 1, 0.563288
102, 3, wb, attraction, a-b-db, 5, 2, 3, 22, 88, 161, 90, 165, 165, 90, 1, 3.82636
102, 3, wb, attraction, a-b-db, 5, 2, 3, 22, 88, 161, 90, 165, 165, 90, 2, 0.606946
102, 3, wb, filler, NA, 999, 999, 3, 23, 151, 94, 134, 60, 164, 138, 2, 0.788141
102, 3, wb, filler, NA, 999, 999, 3, 23, 151, 94, 134, 60, 164, 138, 3, 0.491354
102, 3, wb, attraction, a-b-da, 9, 2, 3, 24, 157, 86, 90, 165, 165, 90, 1, 1.83695
102, 3, wb, attraction, a-b-da, 9, 2, 3, 24, 157, 86, 90, 165, 165, 90, 3, 1.14642
102, 3, wb, attraction, a-b-db, 5, 3, 3, 25, 117, 190, 195, 120, 120, 195, 2, 1.8579
102, 3, wb, attraction, a-b-db, 5, 3, 3, 25, 117, 190, 195, 120, 120, 195, 1, 1.15813
102, 3, wb, attraction, a-b-da, 2, 2, 3, 26, 163, 89, 165, 90, 90, 165, 2, 2.40495
102, 3, wb, attraction, a-b-da, 2, 2, 3, 26, 163, 89, 165, 90, 90, 165, 1, 1.64339
102, 3, wb, catch, NA, 999, 999, 3, 27, 144, 171, 165, 90, 77, 118, 3, 1.07882
102, 3, wb, catch, NA, 999, 999, 3, 27, 144, 171, 165, 90, 77, 118, 1, 1.24246
102, 3, wb, attraction, a-b-da, 5, 1, 3, 28, 60, 135, 135, 60, 132, 58, 2, 3.57407
102, 3, wb, attraction, a-b-da, 5, 1, 3, 28, 60, 135, 135, 60, 132, 58, 3, 1.25294
102, 3, wb, attraction, a-b-db, 5, 1, 3, 29, 58, 132, 135, 60, 60, 135, 3, 6.42451
102, 3, wb, attraction, a-b-db, 5, 1, 3, 29, 58, 132, 135, 60, 60, 135, 2, 0.484393
102, 3, wb, filler, NA, 999, 999, 3, 30, 189, 126, 188, 116, 78, 84, 3, 0.878887
102, 3, wb, filler, NA, 999, 999, 3, 30, 189, 126, 188, 116, 78, 84, 1, 0.69862
102, 3, wb, attraction, a-b-da, 9, 1, 3, 31, 60, 135, 129, 57, 135, 60, 3, 1.97243
102, 3, wb, attraction, a-b-da, 9, 1, 3, 31, 60, 135, 129, 57, 135, 60, 1, 0.427611
102, 3, wb, attraction, a-b-db, 2, 3, 3, 32, 119, 193, 120, 195, 195, 120, 2, 1.40024
102, 3, wb, attraction, a-b-db, 2, 3, 3, 32, 119, 193, 120, 195, 195, 120, 3, 0.590965
102, 3, wb, attraction, a-b-da, 9, 3, 3, 33, 120, 195, 186, 114, 195, 120, 2, 0.700774
102, 3, wb, attraction, a-b-da, 9, 3, 3, 33, 120, 195, 186, 114, 195, 120, 1, 0.591781
102, 3, wb, attraction, a-b-db, 9, 3, 3, 34, 195, 120, 114, 186, 120, 195, 2, 0.781631
102, 3, wb, attraction, a-b-db, 9, 3, 3, 34, 195, 120, 114, 186, 120, 195, 1, 0.765305
102, 3, wb, attraction, a-b-da, 2, 3, 3, 35, 120, 195, 195, 120, 193, 119, 3, 1.76443
102, 3, wb, attraction, a-b-da, 2, 3, 3, 35, 120, 195, 195, 120, 193, 119, 2, 0.652461
102, 3, wb, attraction, a-b-da, 5, 2, 3, 36, 165, 90, 90, 165, 161, 88, 2, 2.11217
102, 3, wb, attraction, a-b-da, 5, 2, 3, 36, 165, 90, 90, 165, 161, 88, 1, 0.650188
102, 3, wb, catch, NA, 999, 999, 3, 37, 67, 128, 151, 164, 136, 119, 1, 0.997893
102, 3, wb, catch, NA, 999, 999, 3, 37, 67, 128, 151, 164, 136, 119, 2, 0.581036
102, 3, wb, catch, NA, 999, 999, 4, 1, 120, 195, 60, 135, 135, 120, 2, 0.899354
102, 3, wb, catch, NA, 999, 999, 4, 1, 120, 195, 60, 135, 135, 120, 1, 0.678393
102, 3, wb, filler, NA, 999, 999, 4, 2, 130, 115, 117, 132, 188, 189, 1, 0.920839
102, 3, wb, filler, NA, 999, 999, 4, 2, 130, 115, 117, 132, 188, 189, 3, 0.627263
102, 3, wb, attraction, a-b-db, 2, 2, 4, 3, 165, 90, 90, 165, 89, 163, 3, 1.82359
102, 3, wb, attraction, a-b-db, 2, 2, 4, 3, 165, 90, 90, 165, 89, 163, 1, 0.949
102, 3, wb, catch, NA, 999, 999, 4, 4, 162, 153, 111, 144, 73, 122, 3, 1.16455
102, 3, wb, catch, NA, 999, 999, 4, 4, 162, 153, 111, 144, 73, 122, 1, 0.524948
102, 3, wb, filler, NA, 999, 999, 4, 5, 101, 59, 60, 152, 136, 179, 1, 0.997216
102, 3, wb, filler, NA, 999, 999, 4, 5, 101, 59, 60, 152, 136, 179, 3, 0.556479
102, 3, wb, attraction, a-b-da, 2, 3, 4, 6, 193, 119, 195, 120, 120, 195, 2, 1.8041
102, 3, wb, attraction, a-b-da, 2, 3, 4, 6, 193, 119, 195, 120, 120, 195, 1, 0.490861
102, 3, wb, filler, NA, 999, 999, 4, 7, 132, 63, 182, 93, 59, 175, 1, 0.9887
102, 3, wb, filler, NA, 999, 999, 4, 7, 132, 63, 182, 93, 59, 175, 2, 0.403658
102, 3, wb, filler, NA, 999, 999, 4, 8, 128, 106, 98, 94, 101, 137, 2, 0.737348
102, 3, wb, filler, NA, 999, 999, 4, 8, 128, 106, 98, 94, 101, 137, 1, 2.49912
102, 3, wb, filler, NA, 999, 999, 4, 9, 133, 64, 141, 120, 72, 162, 1, 1.03638
102, 3, wb, filler, NA, 999, 999, 4, 9, 133, 64, 141, 120, 72, 162, 2, 0.385888
102, 3, wb, attraction, a-b-db, 2, 1, 4, 10, 59, 134, 60, 135, 135, 60, 1, 2.12055
102, 3, wb, attraction, a-b-db, 2, 1, 4, 10, 59, 134, 60, 135, 135, 60, 3, 0.602394
102, 3, wb, attraction, a-b-db, 9, 3, 4, 11, 195, 120, 120, 195, 114, 186, 3, 1.8882
102, 3, wb, attraction, a-b-db, 9, 3, 4, 11, 195, 120, 120, 195, 114, 186, 1, 0.531576
102, 3, wb, attraction, a-b-db, 5, 3, 4, 12, 195, 120, 117, 190, 120, 195, 2, 1.13203
102, 3, wb, attraction, a-b-db, 5, 3, 4, 12, 195, 120, 117, 190, 120, 195, 1, 0.605743
102, 3, wb, filler, NA, 999, 999, 4, 13, 136, 146, 101, 76, 71, 189, 2, 0.763306
102, 3, wb, filler, NA, 999, 999, 4, 13, 136, 146, 101, 76, 71, 189, 1, 0.427767
102, 3, wb, filler, NA, 999, 999, 4, 14, 105, 177, 168, 128, 124, 74, 3, 1.26428
102, 3, wb, filler, NA, 999, 999, 4, 14, 105, 177, 168, 128, 124, 74, 2, 1.90853
102, 3, wb, attraction, a-b-db, 14, 3, 4, 15, 120, 195, 195, 120, 111, 181, 3, 1.1892
102, 3, wb, attraction, a-b-db, 14, 3, 4, 15, 120, 195, 195, 120, 111, 181, 1, 0.572242
102, 3, wb, filler, NA, 999, 999, 4, 16, 134, 84, 189, 128, 195, 190, 1, 1.09126
102, 3, wb, filler, NA, 999, 999, 4, 16, 134, 84, 189, 128, 195, 190, 3, 0.438201
102, 3, wb, attraction, a-b-da, 5, 3, 4, 17, 195, 120, 120, 195, 190, 117, 3, 0.898627
102, 3, wb, attraction, a-b-da, 5, 3, 4, 17, 195, 120, 120, 195, 190, 117, 1, 0.72563
102, 3, wb, attraction, a-b-db, 5, 1, 4, 18, 60, 135, 135, 60, 58, 132, 1, 3.88608
102, 3, wb, attraction, a-b-db, 5, 1, 4, 18, 60, 135, 135, 60, 58, 132, 2, 1.64083
102, 3, wb, attraction, a-b-da, 9, 2, 4, 19, 157, 86, 165, 90, 90, 165, 1, 3.08428
102, 3, wb, attraction, a-b-da, 9, 2, 4, 19, 157, 86, 165, 90, 90, 165, 2, 0.687225
102, 3, wb, attraction, a-b-db, 14, 1, 4, 20, 60, 135, 135, 60, 56, 125, 1, 1.12171
102, 3, wb, attraction, a-b-db, 14, 1, 4, 20, 60, 135, 135, 60, 56, 125, 2, 1.07535
102, 3, wb, attraction, a-b-da, 9, 3, 4, 21, 120, 195, 195, 120, 186, 114, 1, 0.885609
102, 3, wb, attraction, a-b-da, 9, 3, 4, 21, 120, 195, 195, 120, 186, 114, 2, 0.601205
102, 3, wb, attraction, a-b-db, 2, 3, 4, 22, 195, 120, 120, 195, 119, 193, 1, 0.870961
102, 3, wb, attraction, a-b-db, 2, 3, 4, 22, 195, 120, 120, 195, 119, 193, 2, 0.683306
102, 3, wb, attraction, a-b-da, 5, 2, 4, 23, 90, 165, 161, 88, 165, 90, 1, 0.869688
102, 3, wb, attraction, a-b-da, 5, 2, 4, 23, 90, 165, 161, 88, 165, 90, 2, 0.714077
102, 3, wb, filler, NA, 999, 999, 4, 24, 189, 142, 101, 131, 99, 77, 3, 1.02715
102, 3, wb, filler, NA, 999, 999, 4, 24, 189, 142, 101, 131, 99, 77, 1, 0.712834
102, 3, wb, filler, NA, 999, 999, 4, 25, 71, 144, 74, 189, 123, 153, 1, 1.12999
102, 3, wb, filler, NA, 999, 999, 4, 25, 71, 144, 74, 189, 123, 153, 3, 0.587439
102, 3, wb, attraction, a-b-da, 14, 1, 4, 26, 125, 56, 60, 135, 135, 60, 2, 13.018
102, 3, wb, attraction, a-b-da, 14, 1, 4, 26, 125, 56, 60, 135, 135, 60, 3, 0.732594
102, 3, wb, attraction, a-b-da, 2, 2, 4, 27, 165, 90, 90, 165, 163, 89, 2, 1.59699
102, 3, wb, attraction, a-b-da, 2, 2, 4, 27, 165, 90, 90, 165, 163, 89, 1, 1.9477
102, 3, wb, attraction, a-b-da, 5, 1, 4, 28, 60, 135, 135, 60, 132, 58, 1, 2.73099
102, 3, wb, attraction, a-b-da, 5, 1, 4, 28, 60, 135, 135, 60, 132, 58, 2, 0.748148
102, 3, wb, attraction, a-b-db, 5, 2, 4, 29, 88, 161, 165, 90, 90, 165, 1, 1.29989
102, 3, wb, attraction, a-b-db, 5, 2, 4, 29, 88, 161, 165, 90, 90, 165, 3, 0.862943
102, 3, wb, attraction, a-b-db, 9, 1, 4, 30, 57, 129, 135, 60, 60, 135, 1, 0.649701
102, 3, wb, attraction, a-b-db, 9, 1, 4, 30, 57, 129, 135, 60, 60, 135, 3, 0.503035
102, 3, wb, attraction, a-b-da, 14, 2, 4, 31, 165, 90, 153, 83, 90, 165, 3, 1.74471
102, 3, wb, attraction, a-b-da, 14, 2, 4, 31, 165, 90, 153, 83, 90, 165, 1, 0.577366
102, 3, wb, attraction, a-b-da, 14, 3, 4, 32, 181, 111, 120, 195, 195, 120, 2, 2.78382
102, 3, wb, attraction, a-b-da, 14, 3, 4, 32, 181, 111, 120, 195, 195, 120, 3, 1.11893
102, 3, wb, catch, NA, 999, 999, 4, 33, 139, 176, 74, 121, 101, 154, 2, 0.671821
102, 3, wb, catch, NA, 999, 999, 4, 33, 139, 176, 74, 121, 101, 154, 1, 0.411601
102, 3, wb, attraction, a-b-db, 9, 2, 4, 34, 90, 165, 86, 157, 165, 90, 1, 1.66481
102, 3, wb, attraction, a-b-db, 9, 2, 4, 34, 90, 165, 86, 157, 165, 90, 3, 1.59684
102, 3, wb, attraction, a-b-da, 9, 1, 4, 35, 129, 57, 60, 135, 135, 60, 2, 1.0983
102, 3, wb, attraction, a-b-da, 9, 1, 4, 35, 129, 57, 60, 135, 135, 60, 3, 0.821278
102, 3, wb, attraction, a-b-db, 14, 2, 4, 36, 83, 153, 90, 165, 165, 90, 2, 1.13855
102, 3, wb, attraction, a-b-db, 14, 2, 4, 36, 83, 153, 90, 165, 165, 90, 3, 0.779257
102, 3, wb, attraction, a-b-da, 2, 1, 4, 37, 60, 135, 134, 59, 135, 60, 1, 2.5537
102, 3, wb, attraction, a-b-da, 2, 1, 4, 37, 60, 135, 134, 59, 135, 60, 3, 1.14612
102, 3, wb, catch, NA, 999, 999, 5, 1, 79, 116, 160, 95, 132, 183, 1, 15.1124
102, 3, wb, catch, NA, 999, 999, 5, 1, 79, 116, 160, 95, 132, 183, 3, 0.894416
102, 3, wb, attraction, a-b-da, 2, 2, 5, 2, 90, 165, 163, 89, 165, 90, 1, 1.688
102, 3, wb, attraction, a-b-da, 2, 2, 5, 2, 90, 165, 163, 89, 165, 90, 3, 2.3308
102, 3, wb, catch, NA, 999, 999, 5, 3, 182, 133, 121, 134, 115, 80, 3, 0.922652
102, 3, wb, catch, NA, 999, 999, 5, 3, 182, 133, 121, 134, 115, 80, 1, 0.524291
102, 3, wb, attraction, a-b-da, 2, 1, 5, 4, 134, 59, 60, 135, 135, 60, 2, 13.1487
102, 3, wb, attraction, a-b-da, 2, 1, 5, 4, 134, 59, 60, 135, 135, 60, 3, 0.786106
102, 3, wb, filler, NA, 999, 999, 5, 5, 96, 103, 140, 100, 75, 171, 1, 1.34426
102, 3, wb, filler, NA, 999, 999, 5, 5, 96, 103, 140, 100, 75, 171, 2, 1.64116
102, 3, wb, attraction, a-b-db, 9, 3, 5, 6, 120, 195, 195, 120, 114, 186, 3, 2.12469
102, 3, wb, attraction, a-b-db, 9, 3, 5, 6, 120, 195, 195, 120, 114, 186, 2, 1.03809
102, 3, wb, filler, NA, 999, 999, 5, 7, 102, 114, 147, 97, 102, 74, 3, 1.53022
102, 3, wb, filler, NA, 999, 999, 5, 7, 102, 114, 147, 97, 102, 74, 2, 1.31576
102, 3, wb, filler, NA, 999, 999, 5, 8, 118, 167, 169, 85, 148, 130, 1, 1.85247
102, 3, wb, filler, NA, 999, 999, 5, 8, 118, 167, 169, 85, 148, 130, 3, 3.10533
102, 3, wb, attraction, a-b-db, 9, 1, 5, 9, 135, 60, 60, 135, 57, 129, 2, 2.09032
102, 3, wb, attraction, a-b-db, 9, 1, 5, 9, 135, 60, 60, 135, 57, 129, 1, 1.19696
102, 3, wb, attraction, a-b-db, 5, 1, 5, 10, 60, 135, 135, 60, 58, 132, 1, 1.73045
102, 3, wb, attraction, a-b-db, 5, 1, 5, 10, 60, 135, 135, 60, 58, 132, 2, 0.603911
102, 3, wb, attraction, a-b-db, 2, 2, 5, 11, 89, 163, 90, 165, 165, 90, 1, 1.09767
102, 3, wb, attraction, a-b-db, 2, 2, 5, 11, 89, 163, 90, 165, 165, 90, 3, 1.27666
102, 3, wb, attraction, a-b-db, 5, 3, 5, 12, 120, 195, 117, 190, 195, 120, 1, 1.82283
102, 3, wb, attraction, a-b-db, 5, 3, 5, 12, 120, 195, 117, 190, 195, 120, 3, 0.548414
102, 3, wb, attraction, a-b-db, 9, 2, 5, 13, 90, 165, 86, 157, 165, 90, 2, 0.819965
102, 3, wb, attraction, a-b-db, 9, 2, 5, 13, 90, 165, 86, 157, 165, 90, 3, 0.610439
102, 3, wb, attraction, a-b-da, 5, 2, 5, 14, 90, 165, 165, 90, 161, 88, 1, 1.45544
102, 3, wb, attraction, a-b-da, 5, 2, 5, 14, 90, 165, 165, 90, 161, 88, 2, 4.17975
102, 3, wb, filler, NA, 999, 999, 5, 15, 97, 151, 192, 164, 129, 73, 3, 1.18488
102, 3, wb, filler, NA, 999, 999, 5, 15, 97, 151, 192, 164, 129, 73, 2, 0.584714
102, 3, wb, attraction, a-b-da, 9, 3, 5, 16, 195, 120, 120, 195, 186, 114, 3, 2.167
102, 3, wb, attraction, a-b-da, 9, 3, 5, 16, 195, 120, 120, 195, 186, 114, 1, 2.495
102, 3, wb, attraction, a-b-da, 14, 3, 5, 17, 120, 195, 195, 120, 181, 111, 1, 1.35215
102, 3, wb, attraction, a-b-da, 14, 3, 5, 17, 120, 195, 195, 120, 181, 111, 3, 1.90504
102, 3, wb, attraction, a-b-da, 9, 1, 5, 18, 60, 135, 135, 60, 129, 57, 1, 1.40249
102, 3, wb, attraction, a-b-da, 9, 1, 5, 18, 60, 135, 135, 60, 129, 57, 3, 0.713268
102, 3, wb, filler, NA, 999, 999, 5, 19, 195, 124, 177, 95, 162, 195, 3, 1.08226
102, 3, wb, filler, NA, 999, 999, 5, 19, 195, 124, 177, 95, 162, 195, 1, 0.493864
102, 3, wb, filler, NA, 999, 999, 5, 20, 181, 161, 145, 189, 166, 180, 2, 31.6557
102, 3, wb, filler, NA, 999, 999, 5, 20, 181, 161, 145, 189, 166, 180, 3, 1.1631
102, 3, wb, attraction, a-b-da, 9, 2, 5, 21, 90, 165, 157, 86, 165, 90, 1, 2.14617
102, 3, wb, attraction, a-b-da, 9, 2, 5, 21, 90, 165, 157, 86, 165, 90, 3, 1.70671
102, 3, wb, filler, NA, 999, 999, 5, 22, 93, 125, 102, 186, 183, 84, 1, 1.85211
102, 3, wb, filler, NA, 999, 999, 5, 22, 93, 125, 102, 186, 183, 84, 2, 0.728784
102, 3, wb, attraction, a-b-da, 14, 1, 5, 23, 125, 56, 135, 60, 60, 135, 3, 4.44923
102, 3, wb, attraction, a-b-da, 14, 1, 5, 23, 125, 56, 135, 60, 60, 135, 1, 1.3571
102, 3, wb, attraction, a-b-db, 14, 3, 5, 24, 120, 195, 111, 181, 195, 120, 3, 1.53991
102, 3, wb, attraction, a-b-db, 14, 3, 5, 24, 120, 195, 111, 181, 195, 120, 1, 2.23684
102, 3, wb, attraction, a-b-da, 5, 3, 5, 25, 195, 120, 190, 117, 120, 195, 3, 1.79273
102, 3, wb, attraction, a-b-da, 5, 3, 5, 25, 195, 120, 190, 117, 120, 195, 1, 1.76755
102, 3, wb, attraction, a-b-da, 14, 2, 5, 26, 90, 165, 153, 83, 165, 90, 1, 1.35828
102, 3, wb, attraction, a-b-da, 14, 2, 5, 26, 90, 165, 153, 83, 165, 90, 3, 1.04646
102, 3, wb, attraction, a-b-db, 5, 2, 5, 27, 90, 165, 165, 90, 88, 161, 3, 3.09
102, 3, wb, attraction, a-b-db, 5, 2, 5, 27, 90, 165, 165, 90, 88, 161, 2, 1.26842
102, 3, wb, filler, NA, 999, 999, 5, 28, 137, 193, 192, 97, 82, 130, 3, 0.863139
102, 3, wb, filler, NA, 999, 999, 5, 28, 137, 193, 192, 97, 82, 130, 1, 0.443503
102, 3, wb, filler, NA, 999, 999, 5, 29, 115, 175, 108, 168, 101, 182, 3, 0.991505
102, 3, wb, filler, NA, 999, 999, 5, 29, 115, 175, 108, 168, 101, 182, 2, 0.790524
102, 3, wb, catch, NA, 999, 999, 5, 30, 86, 109, 147, 168, 130, 125, 1, 1.332
102, 3, wb, catch, NA, 999, 999, 5, 30, 86, 109, 147, 168, 130, 125, 2, 0.437556
102, 3, wb, attraction, a-b-db, 14, 2, 5, 31, 90, 165, 165, 90, 83, 153, 3, 1.56204
102, 3, wb, attraction, a-b-db, 14, 2, 5, 31, 90, 165, 165, 90, 83, 153, 2, 0.474382
102, 3, wb, attraction, a-b-db, 2, 1, 5, 32, 59, 134, 135, 60, 60, 135, 1, 0.860715
102, 3, wb, attraction, a-b-db, 2, 1, 5, 32, 59, 134, 135, 60, 60, 135, 2, 0.601164
102, 3, wb, attraction, a-b-db, 2, 3, 5, 33, 120, 195, 119, 193, 195, 120, 3, 0.870953
102, 3, wb, attraction, a-b-db, 2, 3, 5, 33, 120, 195, 119, 193, 195, 120, 2, 0.491286
102, 3, wb, attraction, a-b-da, 5, 1, 5, 34, 132, 58, 60, 135, 135, 60, 1, 1.07703
102, 3, wb, attraction, a-b-da, 5, 1, 5, 34, 132, 58, 60, 135, 135, 60, 2, 0.584664
102, 3, wb, attraction, a-b-db, 14, 1, 5, 35, 60, 135, 135, 60, 56, 125, 1, 1.44714
102, 3, wb, attraction, a-b-db, 14, 1, 5, 35, 60, 135, 135, 60, 56, 125, 2, 0.611902
102, 3, wb, filler, NA, 999, 999, 5, 36, 177, 176, 178, 159, 95, 131, 3, 1.04901
102, 3, wb, filler, NA, 999, 999, 5, 36, 177, 176, 178, 159, 95, 131, 1, 0.590007
102, 3, wb, attraction, a-b-da, 2, 3, 5, 37, 193, 119, 195, 120, 120, 195, 1, 0.851698
102, 3, wb, attraction, a-b-da, 2, 3, 5, 37, 193, 119, 195, 120, 120, 195, 2, 0.440793
102, 3, wb, attraction, a-b-db, 14, 1, 6, 1, 56, 125, 60, 135, 135, 60, 3, 0.828588
102, 3, wb, attraction, a-b-db, 14, 1, 6, 1, 56, 125, 60, 135, 135, 60, 1, 0.682288
102, 3, wb, filler, NA, 999, 999, 6, 2, 125, 155, 90, 162, 152, 68, 3, 2.13269
102, 3, wb, filler, NA, 999, 999, 6, 2, 125, 155, 90, 162, 152, 68, 1, 0.405933
102, 3, wb, attraction, a-b-da, 5, 3, 6, 3, 190, 117, 195, 120, 120, 195, 3, 0.907822
102, 3, wb, attraction, a-b-da, 5, 3, 6, 3, 190, 117, 195, 120, 120, 195, 2, 0.598125
102, 3, wb, attraction, a-b-db, 9, 1, 6, 4, 57, 129, 60, 135, 135, 60, 1, 1.38791
102, 3, wb, attraction, a-b-db, 9, 1, 6, 4, 57, 129, 60, 135, 135, 60, 2, 0.538778
102, 3, wb, attraction, a-b-da, 5, 1, 6, 5, 135, 60, 60, 135, 132, 58, 3, 1.53126
102, 3, wb, attraction, a-b-da, 5, 1, 6, 5, 135, 60, 60, 135, 132, 58, 1, 0.620758
102, 3, wb, attraction, a-b-db, 5, 3, 6, 6, 117, 190, 120, 195, 195, 120, 3, 1.3538
102, 3, wb, attraction, a-b-db, 5, 3, 6, 6, 117, 190, 120, 195, 195, 120, 2, 0.538869
102, 3, wb, filler, NA, 999, 999, 6, 7, 185, 136, 73, 154, 157, 71, 3, 1.12318
102, 3, wb, filler, NA, 999, 999, 6, 7, 185, 136, 73, 154, 157, 71, 1, 0.644806
102, 3, wb, attraction, a-b-da, 14, 1, 6, 8, 125, 56, 135, 60, 60, 135, 3, 0.880475
102, 3, wb, attraction, a-b-da, 14, 1, 6, 8, 125, 56, 135, 60, 60, 135, 1, 0.65213
102, 3, wb, attraction, a-b-db, 2, 3, 6, 9, 195, 120, 120, 195, 119, 193, 2, 0.799834
102, 3, wb, attraction, a-b-db, 2, 3, 6, 9, 195, 120, 120, 195, 119, 193, 1, 0.559025
102, 3, wb, attraction, a-b-db, 9, 3, 6, 10, 195, 120, 120, 195, 114, 186, 2, 0.830036
102, 3, wb, attraction, a-b-db, 9, 3, 6, 10, 195, 120, 120, 195, 114, 186, 1, 0.443878
102, 3, wb, attraction, a-b-db, 5, 2, 6, 11, 165, 90, 90, 165, 88, 161, 2, 0.61574
102, 3, wb, attraction, a-b-db, 5, 2, 6, 11, 165, 90, 90, 165, 88, 161, 1, 0.525971
102, 3, wb, filler, NA, 999, 999, 6, 12, 86, 86, 188, 185, 107, 122, 1, 1.05439
102, 3, wb, filler, NA, 999, 999, 6, 12, 86, 86, 188, 185, 107, 122, 2, 0.459399
102, 3, wb, attraction, a-b-db, 14, 2, 6, 13, 83, 153, 90, 165, 165, 90, 2, 1.8546
102, 3, wb, attraction, a-b-db, 14, 2, 6, 13, 83, 153, 90, 165, 165, 90, 3, 0.507378
102, 3, wb, attraction, a-b-db, 2, 1, 6, 14, 60, 135, 59, 134, 135, 60, 2, 0.772428
102, 3, wb, attraction, a-b-db, 2, 1, 6, 14, 60, 135, 59, 134, 135, 60, 3, 0.60418
102, 3, wb, attraction, a-b-da, 5, 2, 6, 15, 90, 165, 161, 88, 165, 90, 1, 1.02586
102, 3, wb, attraction, a-b-da, 5, 2, 6, 15, 90, 165, 161, 88, 165, 90, 2, 0.823659
102, 3, wb, attraction, a-b-da, 2, 1, 6, 16, 60, 135, 134, 59, 135, 60, 1, 0.883933
102, 3, wb, attraction, a-b-da, 2, 1, 6, 16, 60, 135, 134, 59, 135, 60, 2, 0.599592
102, 3, wb, attraction, a-b-da, 9, 1, 6, 17, 129, 57, 60, 135, 135, 60, 2, 0.877381
102, 3, wb, attraction, a-b-da, 9, 1, 6, 17, 129, 57, 60, 135, 135, 60, 1, 0.649088
102, 3, wb, filler, NA, 999, 999, 6, 18, 95, 111, 193, 134, 85, 102, 3, 2.3488
102, 3, wb, filler, NA, 999, 999, 6, 18, 95, 111, 193, 134, 85, 102, 2, 0.437344
102, 3, wb, filler, NA, 999, 999, 6, 19, 101, 166, 75, 108, 195, 176, 2, 0.745844
102, 3, wb, filler, NA, 999, 999, 6, 19, 101, 166, 75, 108, 195, 176, 3, 0.386909
102, 3, wb, attraction, a-b-db, 9, 2, 6, 20, 90, 165, 86, 157, 165, 90, 2, 1.47343
102, 3, wb, attraction, a-b-db, 9, 2, 6, 20, 90, 165, 86, 157, 165, 90, 3, 0.469045
102, 3, wb, filler, NA, 999, 999, 6, 21, 137, 135, 95, 172, 189, 174, 2, 0.976194
102, 3, wb, filler, NA, 999, 999, 6, 21, 137, 135, 95, 172, 189, 174, 3, 0.623685
102, 3, wb, attraction, a-b-da, 2, 2, 6, 22, 165, 90, 163, 89, 90, 165, 3, 1.56413
102, 3, wb, attraction, a-b-da, 2, 2, 6, 22, 165, 90, 163, 89, 90, 165, 1, 1.06827
102, 3, wb, attraction, a-b-da, 9, 2, 6, 23, 90, 165, 165, 90, 157, 86, 1, 1.31114
102, 3, wb, attraction, a-b-da, 9, 2, 6, 23, 90, 165, 165, 90, 157, 86, 2, 0.457446
102, 3, wb, attraction, a-b-db, 14, 3, 6, 24, 120, 195, 195, 120, 111, 181, 1, 1.91657
102, 3, wb, attraction, a-b-db, 14, 3, 6, 24, 120, 195, 195, 120, 111, 181, 2, 0.566602
102, 3, wb, catch, NA, 999, 999, 6, 25, 104, 151, 121, 194, 78, 117, 3, 1.22179
102, 3, wb, catch, NA, 999, 999, 6, 25, 104, 151, 121, 194, 78, 117, 2, 0.92343
102, 3, wb, filler, NA, 999, 999, 6, 26, 90, 57, 195, 62, 138, 88, 1, 0.899709
102, 3, wb, filler, NA, 999, 999, 6, 26, 90, 57, 195, 62, 138, 88, 2, 0.414605
102, 3, wb, attraction, a-b-da, 9, 3, 6, 27, 120, 195, 195, 120, 186, 114, 1, 1.63581
102, 3, wb, attraction, a-b-da, 9, 3, 6, 27, 120, 195, 195, 120, 186, 114, 2, 1.32934
102, 3, wb, filler, NA, 999, 999, 6, 28, 168, 124, 105, 167, 188, 176, 2, 0.721437
102, 3, wb, filler, NA, 999, 999, 6, 28, 168, 124, 105, 167, 188, 176, 3, 0.659253
102, 3, wb, attraction, a-b-da, 2, 3, 6, 29, 193, 119, 120, 195, 195, 120, 2, 0.846299
102, 3, wb, attraction, a-b-da, 2, 3, 6, 29, 193, 119, 120, 195, 195, 120, 1, 0.499243
102, 3, wb, attraction, a-b-db, 5, 1, 6, 30, 58, 132, 135, 60, 60, 135, 2, 0.925128
102, 3, wb, attraction, a-b-db, 5, 1, 6, 30, 58, 132, 135, 60, 60, 135, 3, 0.542804
102, 3, wb, filler, NA, 999, 999, 6, 31, 60, 66, 115, 62, 193, 106, 1, 1.04654
102, 3, wb, filler, NA, 999, 999, 6, 31, 60, 66, 115, 62, 193, 106, 3, 0.707559
102, 3, wb, attraction, a-b-da, 14, 2, 6, 32, 165, 90, 90, 165, 153, 83, 2, 1.10065
102, 3, wb, attraction, a-b-da, 14, 2, 6, 32, 165, 90, 90, 165, 153, 83, 1, 0.495535
102, 3, wb, filler, NA, 999, 999, 6, 33, 190, 95, 105, 107, 115, 105, 2, 0.67345
102, 3, wb, filler, NA, 999, 999, 6, 33, 190, 95, 105, 107, 115, 105, 1, 0.581099
102, 3, wb, attraction, a-b-db, 2, 2, 6, 34, 165, 90, 90, 165, 89, 163, 2, 1.4516
102, 3, wb, attraction, a-b-db, 2, 2, 6, 34, 165, 90, 90, 165, 89, 163, 1, 0.632397
102, 3, wb, attraction, a-b-da, 14, 3, 6, 35, 195, 120, 120, 195, 181, 111, 2, 0.636758
102, 3, wb, attraction, a-b-da, 14, 3, 6, 35, 195, 120, 120, 195, 181, 111, 1, 0.522656
102, 3, wb, catch, NA, 999, 999, 6, 36, 134, 121, 94, 101, 167, 148, 2, 0.923809
102, 3, wb, catch, NA, 999, 999, 6, 36, 134, 121, 94, 101, 167, 148, 3, 0.36545
102, 3, wb, catch, NA, 999, 999, 6, 37, 98, 97, 146, 109, 157, 158, 1, 1.42853
102, 3, wb, catch, NA, 999, 999, 6, 37, 98, 97, 146, 109, 157, 158, 3, 0.402045
102, 3, wb, filler, NA, 999, 999, 7, 1, 79, 142, 113, 147, 141, 149, 1, 1.11987
102, 3, wb, filler, NA, 999, 999, 7, 1, 79, 142, 113, 147, 141, 149, 3, 0.410285
102, 3, wb, filler, NA, 999, 999, 7, 2, 76, 112, 110, 117, 97, 102, 1, 1.67134
102, 3, wb, filler, NA, 999, 999, 7, 2, 76, 112, 110, 117, 97, 102, 2, 0.52277
102, 3, wb, attraction, a-b-db, 9, 2, 7, 3, 86, 157, 90, 165, 165, 90, 2, 1.01185
102, 3, wb, attraction, a-b-db, 9, 2, 7, 3, 86, 157, 90, 165, 165, 90, 3, 0.538266
102, 3, wb, attraction, a-b-db, 9, 1, 7, 4, 135, 60, 60, 135, 57, 129, 2, 1.24262
102, 3, wb, attraction, a-b-db, 9, 1, 7, 4, 135, 60, 60, 135, 57, 129, 1, 0.463472
102, 3, wb, attraction, a-b-da, 5, 3, 7, 5, 190, 117, 195, 120, 120, 195, 3, 1.37078
102, 3, wb, attraction, a-b-da, 5, 3, 7, 5, 190, 117, 195, 120, 120, 195, 2, 0.403018
102, 3, wb, attraction, a-b-db, 2, 3, 7, 6, 195, 120, 120, 195, 119, 193, 2, 1.18478
102, 3, wb, attraction, a-b-db, 2, 3, 7, 6, 195, 120, 120, 195, 119, 193, 1, 0.440368
102, 3, wb, attraction, a-b-da, 2, 1, 7, 7, 60, 135, 134, 59, 135, 60, 1, 1.20407
102, 3, wb, attraction, a-b-da, 2, 1, 7, 7, 60, 135, 134, 59, 135, 60, 2, 0.859105
102, 3, wb, filler, NA, 999, 999, 7, 8, 58, 74, 120, 155, 58, 87, 1, 0.742097
102, 3, wb, filler, NA, 999, 999, 7, 8, 58, 74, 120, 155, 58, 87, 2, 0.375052
102, 3, wb, filler, NA, 999, 999, 7, 9, 95, 142, 127, 158, 83, 66, 3, 0.981521
102, 3, wb, filler, NA, 999, 999, 7, 9, 95, 142, 127, 158, 83, 66, 2, 0.38121
102, 3, wb, attraction, a-b-db, 2, 2, 7, 10, 90, 165, 89, 163, 165, 90, 2, 0.923791
102, 3, wb, attraction, a-b-db, 2, 2, 7, 10, 90, 165, 89, 163, 165, 90, 3, 0.733516
102, 3, wb, filler, NA, 999, 999, 7, 11, 86, 188, 130, 147, 193, 123, 1, 2.61389
102, 3, wb, filler, NA, 999, 999, 7, 11, 86, 188, 130, 147, 193, 123, 3, 0.699678
102, 3, wb, catch, NA, 999, 999, 7, 12, 132, 63, 104, 151, 179, 136, 2, 1.16536
102, 3, wb, catch, NA, 999, 999, 7, 12, 132, 63, 104, 151, 179, 136, 1, 0.48583
102, 3, wb, attraction, a-b-db, 5, 2, 7, 13, 90, 165, 88, 161, 165, 90, 3, 2.28005
102, 3, wb, attraction, a-b-db, 5, 2, 7, 13, 90, 165, 88, 161, 165, 90, 2, 0.499297
102, 3, wb, attraction, a-b-db, 2, 1, 7, 14, 135, 60, 60, 135, 59, 134, 2, 1.50916
102, 3, wb, attraction, a-b-db, 2, 1, 7, 14, 135, 60, 60, 135, 59, 134, 1, 0.511442
102, 3, wb, catch, NA, 999, 999, 7, 15, 110, 145, 194, 121, 105, 90, 3, 1.57644
102, 3, wb, catch, NA, 999, 999, 7, 15, 110, 145, 194, 121, 105, 90, 2, 0.623977
102, 3, wb, attraction, a-b-db, 14, 3, 7, 16, 120, 195, 111, 181, 195, 120, 3, 1.12425
102, 3, wb, attraction, a-b-db, 14, 3, 7, 16, 120, 195, 111, 181, 195, 120, 2, 3.01407
102, 3, wb, attraction, a-b-da, 5, 1, 7, 17, 60, 135, 132, 58, 135, 60, 1, 1.40227
102, 3, wb, attraction, a-b-da, 5, 1, 7, 17, 60, 135, 132, 58, 135, 60, 3, 0.953202
102, 3, wb, attraction, a-b-db, 14, 2, 7, 18, 90, 165, 83, 153, 165, 90, 1, 0.824831
102, 3, wb, attraction, a-b-db, 14, 2, 7, 18, 90, 165, 83, 153, 165, 90, 3, 0.534616
102, 3, wb, attraction, a-b-db, 9, 3, 7, 19, 114, 186, 195, 120, 120, 195, 1, 1.27888
102, 3, wb, attraction, a-b-db, 9, 3, 7, 19, 114, 186, 195, 120, 120, 195, 2, 0.378556
102, 3, wb, attraction, a-b-da, 5, 2, 7, 20, 90, 165, 161, 88, 165, 90, 1, 0.960933
102, 3, wb, attraction, a-b-da, 5, 2, 7, 20, 90, 165, 161, 88, 165, 90, 3, 0.929436
102, 3, wb, attraction, a-b-da, 2, 3, 7, 21, 193, 119, 120, 195, 195, 120, 2, 1.40167
102, 3, wb, attraction, a-b-da, 2, 3, 7, 21, 193, 119, 120, 195, 195, 120, 1, 0.488582
102, 3, wb, attraction, a-b-da, 2, 2, 7, 22, 90, 165, 165, 90, 163, 89, 1, 1.09097
102, 3, wb, attraction, a-b-da, 2, 2, 7, 22, 90, 165, 165, 90, 163, 89, 2, 0.438058
102, 3, wb, attraction, a-b-db, 5, 3, 7, 23, 117, 190, 120, 195, 195, 120, 1, 1.65847
102, 3, wb, attraction, a-b-db, 5, 3, 7, 23, 117, 190, 120, 195, 195, 120, 3, 0.494534
102, 3, wb, attraction, a-b-db, 5, 1, 7, 24, 60, 135, 58, 132, 135, 60, 2, 0.968371
102, 3, wb, attraction, a-b-db, 5, 1, 7, 24, 60, 135, 58, 132, 135, 60, 3, 0.544712
102, 3, wb, attraction, a-b-da, 14, 2, 7, 25, 153, 83, 165, 90, 90, 165, 3, 1.37647
102, 3, wb, attraction, a-b-da, 14, 2, 7, 25, 153, 83, 165, 90, 90, 165, 2, 0.488132
102, 3, wb, catch, NA, 999, 999, 7, 26, 115, 80, 173, 142, 118, 137, 1, 1.08251
102, 3, wb, catch, NA, 999, 999, 7, 26, 115, 80, 173, 142, 118, 137, 2, 0.374014
102, 3, wb, attraction, a-b-da, 9, 3, 7, 27, 186, 114, 195, 120, 120, 195, 3, 0.87662
102, 3, wb, attraction, a-b-da, 9, 3, 7, 27, 186, 114, 195, 120, 120, 195, 2, 0.400249
102, 3, wb, filler, NA, 999, 999, 7, 28, 168, 90, 104, 168, 185, 75, 3, 2.01409
102, 3, wb, filler, NA, 999, 999, 7, 28, 168, 90, 104, 168, 185, 75, 2, 0.428142
102, 3, wb, filler, NA, 999, 999, 7, 29, 180, 126, 88, 167, 160, 118, 2, 1.19256
102, 3, wb, filler, NA, 999, 999, 7, 29, 180, 126, 88, 167, 160, 118, 1, 0.919581
102, 3, wb, filler, NA, 999, 999, 7, 30, 74, 57, 86, 127, 184, 103, 1, 0.976545
102, 3, wb, filler, NA, 999, 999, 7, 30, 74, 57, 86, 127, 184, 103, 3, 0.528242
102, 3, wb, attraction, a-b-da, 9, 1, 7, 31, 129, 57, 60, 135, 135, 60, 2, 1.05657
102, 3, wb, attraction, a-b-da, 9, 1, 7, 31, 129, 57, 60, 135, 135, 60, 1, 0.932859
102, 3, wb, filler, NA, 999, 999, 7, 32, 79, 85, 183, 174, 100, 138, 1, 0.973249
102, 3, wb, filler, NA, 999, 999, 7, 32, 79, 85, 183, 174, 100, 138, 2, 0.372837
102, 3, wb, attraction, a-b-da, 14, 1, 7, 33, 60, 135, 125, 56, 135, 60, 1, 1.92411
102, 3, wb, attraction, a-b-da, 14, 1, 7, 33, 60, 135, 125, 56, 135, 60, 3, 0.557472
102, 3, wb, attraction, a-b-da, 9, 2, 7, 34, 90, 165, 165, 90, 157, 86, 1, 0.85263
102, 3, wb, attraction, a-b-da, 9, 2, 7, 34, 90, 165, 165, 90, 157, 86, 3, 0.497582
102, 3, wb, attraction, a-b-da, 14, 3, 7, 35, 181, 111, 120, 195, 195, 120, 2, 1.55529
102, 3, wb, attraction, a-b-da, 14, 3, 7, 35, 181, 111, 120, 195, 195, 120, 3, 0.619465
102, 3, wb, filler, NA, 999, 999, 7, 36, 76, 74, 194, 74, 61, 75, 3, 1.18468
102, 3, wb, filler, NA, 999, 999, 7, 36, 76, 74, 194, 74, 61, 75, 2, 0.384214
102, 3, wb, attraction, a-b-db, 14, 1, 7, 37, 135, 60, 60, 135, 56, 125, 2, 1.23872
102, 3, wb, attraction, a-b-db, 14, 1, 7, 37, 135, 60, 60, 135, 56, 125, 1, 1.87566
102, 3, wb, filler, NA, 999, 999, 8, 1, 109, 74, 131, 94, 125, 99, 1, 1.14184
102, 3, wb, filler, NA, 999, 999, 8, 1, 109, 74, 131, 94, 125, 99, 2, 0.390576
102, 3, wb, attraction, a-b-db, 5, 1, 8, 2, 58, 132, 135, 60, 60, 135, 3, 1.58844
102, 3, wb, attraction, a-b-db, 5, 1, 8, 2, 58, 132, 135, 60, 60, 135, 2, 0.555226
102, 3, wb, filler, NA, 999, 999, 8, 3, 77, 192, 127, 127, 61, 195, 3, 1.93898
102, 3, wb, filler, NA, 999, 999, 8, 3, 77, 192, 127, 127, 61, 195, 2, 1.09974
102, 3, wb, filler, NA, 999, 999, 8, 4, 127, 95, 86, 97, 179, 57, 2, 1.59728
102, 3, wb, filler, NA, 999, 999, 8, 4, 127, 95, 86, 97, 179, 57, 1, 0.884025
102, 3, wb, attraction, a-b-db, 14, 3, 8, 5, 111, 181, 195, 120, 120, 195, 1, 2.01431
102, 3, wb, attraction, a-b-db, 14, 3, 8, 5, 111, 181, 195, 120, 120, 195, 2, 0.596372
102, 3, wb, catch, NA, 999, 999, 8, 6, 67, 128, 133, 182, 109, 146, 1, 0.882095
102, 3, wb, catch, NA, 999, 999, 8, 6, 67, 128, 133, 182, 109, 146, 2, 0.341877
102, 3, wb, filler, NA, 999, 999, 8, 7, 160, 90, 166, 157, 161, 136, 1, 1.58965
102, 3, wb, filler, NA, 999, 999, 8, 7, 160, 90, 166, 157, 161, 136, 2, 0.412576
102, 3, wb, attraction, a-b-da, 14, 1, 8, 8, 60, 135, 125, 56, 135, 60, 1, 1.61777
102, 3, wb, attraction, a-b-da, 14, 1, 8, 8, 60, 135, 125, 56, 135, 60, 2, 0.567669
102, 3, wb, filler, NA, 999, 999, 8, 9, 142, 93, 172, 96, 189, 182, 1, 0.638986
102, 3, wb, filler, NA, 999, 999, 8, 9, 142, 93, 172, 96, 189, 182, 2, 0.524117
102, 3, wb, attraction, a-b-db, 2, 3, 8, 10, 195, 120, 120, 195, 119, 193, 2, 0.908436
102, 3, wb, attraction, a-b-db, 2, 3, 8, 10, 195, 120, 120, 195, 119, 193, 1, 0.422881
102, 3, wb, attraction, a-b-db, 14, 1, 8, 11, 135, 60, 60, 135, 56, 125, 2, 0.851916
102, 3, wb, attraction, a-b-db, 14, 1, 8, 11, 135, 60, 60, 135, 56, 125, 1, 0.448988
102, 3, wb, attraction, a-b-da, 2, 3, 8, 12, 120, 195, 195, 120, 193, 119, 2, 0.660833
102, 3, wb, attraction, a-b-da, 2, 3, 8, 12, 120, 195, 195, 120, 193, 119, 1, 0.481188
102, 3, wb, attraction, a-b-db, 9, 2, 8, 13, 165, 90, 90, 165, 86, 157, 2, 0.587833
102, 3, wb, attraction, a-b-db, 9, 2, 8, 13, 165, 90, 90, 165, 86, 157, 1, 0.650775
102, 3, wb, attraction, a-b-db, 2, 1, 8, 14, 59, 134, 60, 135, 135, 60, 1, 1.61446
102, 3, wb, attraction, a-b-db, 2, 1, 8, 14, 59, 134, 60, 135, 135, 60, 3, 0.884633
102, 3, wb, filler, NA, 999, 999, 8, 15, 83, 63, 165, 131, 135, 87, 1, 0.758904
102, 3, wb, filler, NA, 999, 999, 8, 15, 83, 63, 165, 131, 135, 87, 2, 0.431347
102, 3, wb, attraction, a-b-da, 2, 1, 8, 16, 60, 135, 135, 60, 134, 59, 1, 1.13186
102, 3, wb, attraction, a-b-da, 2, 1, 8, 16, 60, 135, 135, 60, 134, 59, 2, 0.437566
102, 3, wb, filler, NA, 999, 999, 8, 17, 59, 127, 152, 86, 165, 116, 2, 1.14595
102, 3, wb, filler, NA, 999, 999, 8, 17, 59, 127, 152, 86, 165, 116, 1, 0.850888
102, 3, wb, catch, NA, 999, 999, 8, 18, 192, 123, 110, 145, 117, 78, 3, 2.90269
102, 3, wb, catch, NA, 999, 999, 8, 18, 192, 123, 110, 145, 117, 78, 1, 0.601122
102, 3, wb, attraction, a-b-da, 5, 1, 8, 19, 135, 60, 60, 135, 132, 58, 2, 1.63875
102, 3, wb, attraction, a-b-da, 5, 1, 8, 19, 135, 60, 60, 135, 132, 58, 3, 1.13962
102, 3, wb, attraction, a-b-da, 14, 2, 8, 20, 165, 90, 90, 165, 153, 83, 2, 0.69984
102, 3, wb, attraction, a-b-da, 14, 2, 8, 20, 165, 90, 90, 165, 153, 83, 3, 0.398898
102, 3, wb, filler, NA, 999, 999, 8, 21, 101, 76, 113, 75, 155, 194, 1, 0.916671
102, 3, wb, filler, NA, 999, 999, 8, 21, 101, 76, 113, 75, 155, 194, 3, 0.471057
102, 3, wb, attraction, a-b-db, 5, 3, 8, 22, 195, 120, 117, 190, 120, 195, 3, 1.57825
102, 3, wb, attraction, a-b-db, 5, 3, 8, 22, 195, 120, 117, 190, 120, 195, 1, 0.617654
102, 3, wb, attraction, a-b-da, 9, 1, 8, 23, 60, 135, 135, 60, 129, 57, 1, 1.09476
102, 3, wb, attraction, a-b-da, 9, 1, 8, 23, 60, 135, 135, 60, 129, 57, 3, 0.649765
102, 3, wb, attraction, a-b-da, 5, 3, 8, 24, 195, 120, 120, 195, 190, 117, 2, 0.997412
102, 3, wb, attraction, a-b-da, 5, 3, 8, 24, 195, 120, 120, 195, 190, 117, 3, 0.428524
102, 3, wb, catch, NA, 999, 999, 8, 25, 169, 146, 127, 68, 133, 122, 2, 0.648964
102, 3, wb, catch, NA, 999, 999, 8, 25, 169, 146, 127, 68, 133, 122, 1, 0.614072
102, 3, wb, attraction, a-b-da, 9, 3, 8, 26, 195, 120, 186, 114, 120, 195, 2, 0.755069
102, 3, wb, attraction, a-b-da, 9, 3, 8, 26, 195, 120, 186, 114, 120, 195, 1, 0.515492
102, 3, wb, attraction, a-b-da, 14, 3, 8, 27, 181, 111, 120, 195, 195, 120, 2, 1.1727
102, 3, wb, attraction, a-b-da, 14, 3, 8, 27, 181, 111, 120, 195, 195, 120, 3, 0.436223
102, 3, wb, filler, NA, 999, 999, 8, 28, 172, 104, 140, 121, 154, 132, 2, 0.688748
102, 3, wb, filler, NA, 999, 999, 8, 28, 172, 104, 140, 121, 154, 132, 3, 0.347739
102, 3, wb, attraction, a-b-da, 9, 2, 8, 29, 157, 86, 90, 165, 165, 90, 2, 0.699625
102, 3, wb, attraction, a-b-da, 9, 2, 8, 29, 157, 86, 90, 165, 165, 90, 3, 0.686729
102, 3, wb, attraction, a-b-db, 9, 1, 8, 30, 57, 129, 135, 60, 60, 135, 2, 0.609168
102, 3, wb, attraction, a-b-db, 9, 1, 8, 30, 57, 129, 135, 60, 60, 135, 3, 1.50358
102, 3, wb, attraction, a-b-da, 2, 2, 8, 31, 165, 90, 90, 165, 163, 89, 2, 0.577064
102, 3, wb, attraction, a-b-da, 2, 2, 8, 31, 165, 90, 90, 165, 163, 89, 3, 1.37684
102, 3, wb, attraction, a-b-db, 5, 2, 8, 32, 90, 165, 165, 90, 88, 161, 2, 0.479046
102, 3, wb, attraction, a-b-db, 5, 2, 8, 32, 90, 165, 165, 90, 88, 161, 1, 0.554846
102, 3, wb, attraction, a-b-db, 14, 2, 8, 33, 83, 153, 165, 90, 90, 165, 2, 0.570648
102, 3, wb, attraction, a-b-db, 14, 2, 8, 33, 83, 153, 165, 90, 90, 165, 3, 0.827082
102, 3, wb, attraction, a-b-da, 5, 2, 8, 34, 90, 165, 165, 90, 161, 88, 2, 0.479521
102, 3, wb, attraction, a-b-da, 5, 2, 8, 34, 90, 165, 165, 90, 161, 88, 3, 0.61922
102, 3, wb, attraction, a-b-db, 9, 3, 8, 35, 195, 120, 120, 195, 114, 186, 2, 0.520411
102, 3, wb, attraction, a-b-db, 9, 3, 8, 35, 195, 120, 120, 195, 114, 186, 1, 0.538881
102, 3, wb, attraction, a-b-db, 2, 2, 8, 36, 89, 163, 90, 165, 165, 90, 2, 0.555368
102, 3, wb, attraction, a-b-db, 2, 2, 8, 36, 89, 163, 90, 165, 165, 90, 3, 0.371679
102, 3, wb, filler, NA, 999, 999, 8, 37, 69, 140, 90, 158, 96, 121, 2, 0.36281
102, 3, wb, filler, NA, 999, 999, 8, 37, 69, 140, 90, 158, 96, 121, 1, 0.667509
