sub_n, computer_n, bw_cond, effect, set, distance, diag, block_n, trial_n, h1, w1, h2, w2, h3, w3, choice, rt 
140, 3, wb, practice, NA, 999, 999, 0, 1, 180, 85, 127, 175, 67, 153, 3, 3.80547
140, 3, wb, practice, NA, 999, 999, 0, 1, 180, 85, 127, 175, 67, 153, 2, 2.10846
140, 3, wb, practice, NA, 999, 999, 0, 2, 141, 194, 62, 153, 162, 174, 2, 1.92832
140, 3, wb, practice, NA, 999, 999, 0, 2, 141, 194, 62, 153, 162, 174, 3, 6.34631
140, 3, wb, practice, NA, 999, 999, 0, 3, 158, 192, 119, 119, 166, 160, 2, 2.10108
140, 3, wb, practice, NA, 999, 999, 0, 3, 158, 192, 119, 119, 166, 160, 1, 1.50213
140, 3, wb, attraction, a-b-da, 9, 1, 1, 1, 129, 57, 135, 60, 60, 135, 1, 4.1329
140, 3, wb, attraction, a-b-da, 9, 1, 1, 1, 129, 57, 135, 60, 60, 135, 2, 6.80576
140, 3, wb, catch, NA, 999, 999, 1, 2, 78, 117, 103, 152, 148, 167, 1, 1.63344
140, 3, wb, catch, NA, 999, 999, 1, 2, 78, 117, 103, 152, 148, 167, 3, 2.0949
140, 3, wb, catch, NA, 999, 999, 1, 3, 120, 75, 161, 154, 132, 123, 1, 1.31217
140, 3, wb, catch, NA, 999, 999, 1, 3, 120, 75, 161, 154, 132, 123, 2, 1.08246
140, 3, wb, attraction, a-b-db, 14, 3, 1, 4, 195, 120, 120, 195, 111, 181, 1, 4.57271
140, 3, wb, attraction, a-b-db, 14, 3, 1, 4, 195, 120, 120, 195, 111, 181, 2, 0.955377
140, 3, wb, attraction, a-b-da, 9, 3, 1, 5, 186, 114, 120, 195, 195, 120, 1, 1.62693
140, 3, wb, attraction, a-b-da, 9, 3, 1, 5, 186, 114, 120, 195, 195, 120, 2, 1.65642
140, 3, wb, attraction, a-b-da, 5, 2, 1, 6, 165, 90, 90, 165, 161, 88, 3, 2.03584
140, 3, wb, attraction, a-b-da, 5, 2, 1, 6, 165, 90, 90, 165, 161, 88, 2, 1.18511
140, 3, wb, filler, NA, 999, 999, 1, 7, 184, 128, 140, 178, 162, 183, 1, 2.97534
140, 3, wb, filler, NA, 999, 999, 1, 7, 184, 128, 140, 178, 162, 183, 3, 0.958466
140, 3, wb, attraction, a-b-db, 14, 1, 1, 8, 135, 60, 56, 125, 60, 135, 2, 2.99734
140, 3, wb, attraction, a-b-db, 14, 1, 1, 8, 135, 60, 56, 125, 60, 135, 3, 1.81174
140, 3, wb, attraction, a-b-da, 2, 3, 1, 9, 120, 195, 195, 120, 193, 119, 3, 9.11264
140, 3, wb, attraction, a-b-da, 2, 3, 1, 9, 120, 195, 195, 120, 193, 119, 2, 0.792218
140, 3, wb, attraction, a-b-da, 5, 3, 1, 10, 190, 117, 120, 195, 195, 120, 1, 2.64603
140, 3, wb, attraction, a-b-da, 5, 3, 1, 10, 190, 117, 120, 195, 195, 120, 2, 1.16241
140, 3, wb, attraction, a-b-db, 9, 1, 1, 11, 57, 129, 135, 60, 60, 135, 1, 2.20925
140, 3, wb, attraction, a-b-db, 9, 1, 1, 11, 57, 129, 135, 60, 60, 135, 2, 2.11937
140, 3, wb, attraction, a-b-da, 2, 2, 1, 12, 90, 165, 163, 89, 165, 90, 2, 5.97605
140, 3, wb, attraction, a-b-da, 2, 2, 1, 12, 90, 165, 163, 89, 165, 90, 1, 1.68604
140, 3, wb, filler, NA, 999, 999, 1, 13, 77, 163, 144, 142, 177, 158, 1, 1.25603
140, 3, wb, filler, NA, 999, 999, 1, 13, 77, 163, 144, 142, 177, 158, 3, 1.70844
140, 3, wb, filler, NA, 999, 999, 1, 14, 145, 136, 82, 111, 168, 146, 2, 1.45315
140, 3, wb, filler, NA, 999, 999, 1, 14, 145, 136, 82, 111, 168, 146, 3, 1.0019
140, 3, wb, attraction, a-b-db, 5, 3, 1, 15, 117, 190, 120, 195, 195, 120, 3, 3.58349
140, 3, wb, attraction, a-b-db, 5, 3, 1, 15, 117, 190, 120, 195, 195, 120, 2, 0.742314
140, 3, wb, attraction, a-b-db, 9, 2, 1, 16, 90, 165, 86, 157, 165, 90, 3, 2.4061
140, 3, wb, attraction, a-b-db, 9, 2, 1, 16, 90, 165, 86, 157, 165, 90, 1, 3.41994
140, 3, wb, attraction, a-b-db, 5, 2, 1, 17, 90, 165, 88, 161, 165, 90, 3, 3.10419
140, 3, wb, attraction, a-b-db, 5, 2, 1, 17, 90, 165, 88, 161, 165, 90, 2, 1.75453
140, 3, wb, attraction, a-b-da, 14, 3, 1, 18, 195, 120, 181, 111, 120, 195, 2, 2.82591
140, 3, wb, attraction, a-b-da, 14, 3, 1, 18, 195, 120, 181, 111, 120, 195, 3, 3.52711
140, 3, wb, attraction, a-b-da, 2, 1, 1, 19, 60, 135, 134, 59, 135, 60, 1, 2.30251
140, 3, wb, attraction, a-b-da, 2, 1, 1, 19, 60, 135, 134, 59, 135, 60, 3, 3.66517
140, 3, wb, filler, NA, 999, 999, 1, 20, 163, 62, 60, 180, 93, 59, 3, 1.79531
140, 3, wb, filler, NA, 999, 999, 1, 20, 163, 62, 60, 180, 93, 59, 2, 1.05799
140, 3, wb, attraction, a-b-db, 2, 3, 1, 21, 119, 193, 120, 195, 195, 120, 3, 8.04494
140, 3, wb, attraction, a-b-db, 2, 3, 1, 21, 119, 193, 120, 195, 195, 120, 2, 0.831711
140, 3, wb, attraction, a-b-da, 9, 2, 1, 22, 90, 165, 165, 90, 157, 86, 1, 2.54808
140, 3, wb, attraction, a-b-da, 9, 2, 1, 22, 90, 165, 165, 90, 157, 86, 2, 1.90056
140, 3, wb, filler, NA, 999, 999, 1, 23, 97, 132, 181, 190, 180, 191, 1, 2.80597
140, 3, wb, filler, NA, 999, 999, 1, 23, 97, 132, 181, 190, 180, 191, 3, 6.56371
140, 3, wb, attraction, a-b-db, 5, 1, 1, 24, 135, 60, 58, 132, 60, 135, 3, 1.66499
140, 3, wb, attraction, a-b-db, 5, 1, 1, 24, 135, 60, 58, 132, 60, 135, 2, 1.69316
140, 3, wb, filler, NA, 999, 999, 1, 25, 119, 159, 191, 154, 126, 68, 3, 2.80645
140, 3, wb, filler, NA, 999, 999, 1, 25, 119, 159, 191, 154, 126, 68, 2, 0.692186
140, 3, wb, attraction, a-b-da, 5, 1, 1, 26, 132, 58, 60, 135, 135, 60, 3, 2.98998
140, 3, wb, attraction, a-b-da, 5, 1, 1, 26, 132, 58, 60, 135, 135, 60, 2, 0.80427
140, 3, wb, filler, NA, 999, 999, 1, 27, 195, 74, 185, 108, 91, 115, 3, 1.62604
140, 3, wb, filler, NA, 999, 999, 1, 27, 195, 74, 185, 108, 91, 115, 2, 1.01539
140, 3, wb, filler, NA, 999, 999, 1, 28, 63, 190, 138, 147, 111, 144, 1, 3.24443
140, 3, wb, filler, NA, 999, 999, 1, 28, 63, 190, 138, 147, 111, 144, 2, 0.816677
140, 3, wb, attraction, a-b-db, 9, 3, 1, 29, 195, 120, 114, 186, 120, 195, 1, 17.1098
140, 3, wb, attraction, a-b-db, 9, 3, 1, 29, 195, 120, 114, 186, 120, 195, 2, 4.81097
140, 3, wb, catch, NA, 999, 999, 1, 30, 100, 95, 145, 110, 165, 150, 1, 1.56676
140, 3, wb, catch, NA, 999, 999, 1, 30, 100, 95, 145, 110, 165, 150, 3, 0.822936
140, 3, wb, attraction, a-b-db, 14, 2, 1, 31, 90, 165, 165, 90, 83, 153, 3, 5.73205
140, 3, wb, attraction, a-b-db, 14, 2, 1, 31, 90, 165, 165, 90, 83, 153, 1, 1.80417
140, 3, wb, attraction, a-b-db, 2, 1, 1, 32, 135, 60, 60, 135, 59, 134, 3, 2.19357
140, 3, wb, attraction, a-b-db, 2, 1, 1, 32, 135, 60, 60, 135, 59, 134, 2, 0.912169
140, 3, wb, attraction, a-b-da, 14, 1, 1, 33, 60, 135, 125, 56, 135, 60, 2, 2.31307
140, 3, wb, attraction, a-b-da, 14, 1, 1, 33, 60, 135, 125, 56, 135, 60, 1, 1.91506
140, 3, wb, filler, NA, 999, 999, 1, 34, 126, 120, 88, 74, 171, 117, 2, 1.51569
140, 3, wb, filler, NA, 999, 999, 1, 34, 126, 120, 88, 74, 171, 117, 3, 1.37401
140, 3, wb, attraction, a-b-db, 2, 2, 1, 35, 89, 163, 165, 90, 90, 165, 2, 18.9801
140, 3, wb, attraction, a-b-db, 2, 2, 1, 35, 89, 163, 165, 90, 90, 165, 1, 0.798115
140, 3, wb, attraction, a-b-da, 14, 2, 1, 36, 153, 83, 90, 165, 165, 90, 1, 3.15581
140, 3, wb, attraction, a-b-da, 14, 2, 1, 36, 153, 83, 90, 165, 165, 90, 2, 0.715496
140, 3, wb, filler, NA, 999, 999, 1, 37, 171, 146, 85, 191, 87, 149, 3, 3.50057
140, 3, wb, filler, NA, 999, 999, 1, 37, 171, 146, 85, 191, 87, 149, 1, 2.1907
140, 3, wb, filler, NA, 999, 999, 2, 1, 109, 191, 124, 145, 77, 168, 3, 1.98002
140, 3, wb, filler, NA, 999, 999, 2, 1, 109, 191, 124, 145, 77, 168, 2, 9.30735
140, 3, wb, catch, NA, 999, 999, 2, 2, 66, 129, 148, 167, 107, 148, 1, 1.73829
140, 3, wb, catch, NA, 999, 999, 2, 2, 66, 129, 148, 167, 107, 148, 2, 0.819082
140, 3, wb, attraction, a-b-da, 14, 3, 2, 3, 120, 195, 181, 111, 195, 120, 2, 8.77617
140, 3, wb, attraction, a-b-da, 14, 3, 2, 3, 120, 195, 181, 111, 195, 120, 1, 0.445311
140, 3, wb, attraction, a-b-da, 2, 1, 2, 4, 135, 60, 134, 59, 60, 135, 2, 0.9932
140, 3, wb, attraction, a-b-da, 2, 1, 2, 4, 135, 60, 134, 59, 60, 135, 1, 0.528217
140, 3, wb, filler, NA, 999, 999, 2, 5, 67, 162, 97, 79, 141, 128, 2, 2.31276
140, 3, wb, filler, NA, 999, 999, 2, 5, 67, 162, 97, 79, 141, 128, 3, 0.874527
140, 3, wb, catch, NA, 999, 999, 2, 6, 171, 144, 113, 82, 146, 109, 2, 0.924819
140, 3, wb, catch, NA, 999, 999, 2, 6, 171, 144, 113, 82, 146, 109, 1, 0.446616
140, 3, wb, attraction, a-b-db, 14, 2, 2, 7, 83, 153, 165, 90, 90, 165, 1, 1.44223
140, 3, wb, attraction, a-b-db, 14, 2, 2, 7, 83, 153, 165, 90, 90, 165, 3, 0.663146
140, 3, wb, filler, NA, 999, 999, 2, 8, 74, 144, 131, 61, 193, 89, 2, 1.45817
140, 3, wb, filler, NA, 999, 999, 2, 8, 74, 144, 131, 61, 193, 89, 3, 0.598394
140, 3, wb, attraction, a-b-da, 9, 3, 2, 9, 186, 114, 195, 120, 120, 195, 1, 1.18826
140, 3, wb, attraction, a-b-da, 9, 3, 2, 9, 186, 114, 195, 120, 120, 195, 3, 1.78717
140, 3, wb, attraction, a-b-da, 9, 2, 2, 10, 165, 90, 157, 86, 90, 165, 2, 2.40116
140, 3, wb, attraction, a-b-da, 9, 2, 2, 10, 165, 90, 157, 86, 90, 165, 1, 0.535762
140, 3, wb, attraction, a-b-da, 5, 3, 2, 11, 120, 195, 190, 117, 195, 120, 2, 3.15218
140, 3, wb, attraction, a-b-da, 5, 3, 2, 11, 120, 195, 190, 117, 195, 120, 1, 2.08046
140, 3, wb, filler, NA, 999, 999, 2, 12, 189, 192, 122, 149, 58, 92, 3, 1.20248
140, 3, wb, filler, NA, 999, 999, 2, 12, 189, 192, 122, 149, 58, 92, 1, 0.545369
140, 3, wb, attraction, a-b-db, 2, 3, 2, 13, 120, 195, 119, 193, 195, 120, 3, 9.28921
140, 3, wb, attraction, a-b-db, 2, 3, 2, 13, 120, 195, 119, 193, 195, 120, 2, 6.49843
140, 3, wb, attraction, a-b-db, 2, 1, 2, 14, 59, 134, 135, 60, 60, 135, 1, 2.53809
140, 3, wb, attraction, a-b-db, 2, 1, 2, 14, 59, 134, 135, 60, 60, 135, 2, 0.891327
140, 3, wb, attraction, a-b-da, 2, 2, 2, 15, 90, 165, 165, 90, 163, 89, 1, 1.2689
140, 3, wb, attraction, a-b-da, 2, 2, 2, 15, 90, 165, 165, 90, 163, 89, 2, 0.705218
140, 3, wb, attraction, a-b-da, 9, 1, 2, 16, 129, 57, 135, 60, 60, 135, 1, 1.15491
140, 3, wb, attraction, a-b-da, 9, 1, 2, 16, 129, 57, 135, 60, 60, 135, 3, 0.851206
140, 3, wb, attraction, a-b-da, 14, 2, 2, 17, 90, 165, 165, 90, 153, 83, 3, 5.86305
140, 3, wb, attraction, a-b-da, 14, 2, 2, 17, 90, 165, 165, 90, 153, 83, 1, 0.673747
140, 3, wb, attraction, a-b-da, 14, 1, 2, 18, 125, 56, 60, 135, 135, 60, 1, 1.39614
140, 3, wb, attraction, a-b-da, 14, 1, 2, 18, 125, 56, 60, 135, 135, 60, 2, 0.619001
140, 3, wb, attraction, a-b-db, 9, 3, 2, 19, 120, 195, 195, 120, 114, 186, 1, 43.0561
140, 3, wb, attraction, a-b-db, 9, 3, 2, 19, 120, 195, 195, 120, 114, 186, 2, 2.84798
140, 3, wb, filler, NA, 999, 999, 2, 20, 161, 181, 127, 100, 84, 153, 3, 5.16296
140, 3, wb, filler, NA, 999, 999, 2, 20, 161, 181, 127, 100, 84, 153, 1, 0.586163
140, 3, wb, attraction, a-b-db, 5, 2, 2, 21, 165, 90, 88, 161, 90, 165, 1, 3.49657
140, 3, wb, attraction, a-b-db, 5, 2, 2, 21, 165, 90, 88, 161, 90, 165, 3, 1.16268
140, 3, wb, filler, NA, 999, 999, 2, 22, 146, 78, 174, 71, 190, 99, 1, 1.51391
140, 3, wb, filler, NA, 999, 999, 2, 22, 146, 78, 174, 71, 190, 99, 3, 0.64381
140, 3, wb, attraction, a-b-da, 5, 1, 2, 23, 60, 135, 135, 60, 132, 58, 3, 2.42341
140, 3, wb, attraction, a-b-da, 5, 1, 2, 23, 60, 135, 135, 60, 132, 58, 1, 0.604834
140, 3, wb, attraction, a-b-db, 5, 1, 2, 24, 58, 132, 135, 60, 60, 135, 2, 2.49847
140, 3, wb, attraction, a-b-db, 5, 1, 2, 24, 58, 132, 135, 60, 60, 135, 3, 1.14093
140, 3, wb, attraction, a-b-db, 5, 3, 2, 25, 117, 190, 120, 195, 195, 120, 3, 2.17259
140, 3, wb, attraction, a-b-db, 5, 3, 2, 25, 117, 190, 120, 195, 195, 120, 2, 0.859911
140, 3, wb, filler, NA, 999, 999, 2, 26, 157, 163, 114, 154, 79, 192, 3, 39.9909
140, 3, wb, filler, NA, 999, 999, 2, 26, 157, 163, 114, 154, 79, 192, 1, 1.29028
140, 3, wb, catch, NA, 999, 999, 2, 27, 131, 184, 133, 122, 65, 130, 3, 1.0198
140, 3, wb, catch, NA, 999, 999, 2, 27, 131, 184, 133, 122, 65, 130, 1, 0.61027
140, 3, wb, attraction, a-b-db, 9, 2, 2, 28, 165, 90, 90, 165, 86, 157, 1, 2.10328
140, 3, wb, attraction, a-b-db, 9, 2, 2, 28, 165, 90, 90, 165, 86, 157, 2, 1.45809
140, 3, wb, attraction, a-b-db, 14, 3, 2, 29, 195, 120, 120, 195, 111, 181, 1, 2.4128
140, 3, wb, attraction, a-b-db, 14, 3, 2, 29, 195, 120, 120, 195, 111, 181, 2, 0.594635
140, 3, wb, filler, NA, 999, 999, 2, 30, 128, 188, 156, 97, 116, 170, 2, 1.20851
140, 3, wb, filler, NA, 999, 999, 2, 30, 128, 188, 156, 97, 116, 170, 1, 0.870632
140, 3, wb, filler, NA, 999, 999, 2, 31, 162, 76, 153, 123, 90, 158, 1, 1.19382
140, 3, wb, filler, NA, 999, 999, 2, 31, 162, 76, 153, 123, 90, 158, 2, 0.440595
140, 3, wb, attraction, a-b-db, 2, 2, 2, 32, 165, 90, 89, 163, 90, 165, 1, 1.30831
140, 3, wb, attraction, a-b-db, 2, 2, 2, 32, 165, 90, 89, 163, 90, 165, 2, 0.862753
140, 3, wb, filler, NA, 999, 999, 2, 33, 190, 165, 61, 95, 132, 133, 2, 5.55374
140, 3, wb, filler, NA, 999, 999, 2, 33, 190, 165, 61, 95, 132, 133, 1, 0.633235
140, 3, wb, attraction, a-b-da, 5, 2, 2, 34, 161, 88, 90, 165, 165, 90, 1, 2.48569
140, 3, wb, attraction, a-b-da, 5, 2, 2, 34, 161, 88, 90, 165, 165, 90, 2, 0.584735
140, 3, wb, attraction, a-b-da, 2, 3, 2, 35, 195, 120, 120, 195, 193, 119, 1, 8.14324
140, 3, wb, attraction, a-b-da, 2, 3, 2, 35, 195, 120, 120, 195, 193, 119, 2, 0.76605
140, 3, wb, attraction, a-b-db, 9, 1, 2, 36, 57, 129, 135, 60, 60, 135, 1, 0.869155
140, 3, wb, attraction, a-b-db, 9, 1, 2, 36, 57, 129, 135, 60, 60, 135, 2, 0.56934
140, 3, wb, attraction, a-b-db, 14, 1, 2, 37, 56, 125, 135, 60, 60, 135, 1, 0.976415
140, 3, wb, attraction, a-b-db, 14, 1, 2, 37, 56, 125, 135, 60, 60, 135, 2, 0.424069
140, 3, wb, filler, NA, 999, 999, 3, 1, 143, 146, 104, 175, 144, 171, 2, 2.10875
140, 3, wb, filler, NA, 999, 999, 3, 1, 143, 146, 104, 175, 144, 171, 3, 1.39067
140, 3, wb, attraction, a-b-db, 14, 2, 3, 2, 83, 153, 165, 90, 90, 165, 1, 1.93203
140, 3, wb, attraction, a-b-db, 14, 2, 3, 2, 83, 153, 165, 90, 90, 165, 2, 0.661629
140, 3, wb, filler, NA, 999, 999, 3, 3, 164, 101, 112, 125, 124, 99, 3, 1.68051
140, 3, wb, filler, NA, 999, 999, 3, 3, 164, 101, 112, 125, 124, 99, 2, 0.507933
140, 3, wb, catch, NA, 999, 999, 3, 4, 138, 177, 153, 102, 127, 68, 3, 1.49327
140, 3, wb, catch, NA, 999, 999, 3, 4, 138, 177, 153, 102, 127, 68, 1, 0.544064
140, 3, wb, filler, NA, 999, 999, 3, 5, 160, 142, 125, 97, 180, 171, 2, 0.959803
140, 3, wb, filler, NA, 999, 999, 3, 5, 160, 142, 125, 97, 180, 171, 3, 0.560148
140, 3, wb, attraction, a-b-db, 5, 3, 3, 6, 120, 195, 117, 190, 195, 120, 1, 1.09511
140, 3, wb, attraction, a-b-db, 5, 3, 3, 6, 120, 195, 117, 190, 195, 120, 2, 0.986063
140, 3, wb, attraction, a-b-da, 2, 3, 3, 7, 193, 119, 195, 120, 120, 195, 1, 2.87245
140, 3, wb, attraction, a-b-da, 2, 3, 3, 7, 193, 119, 195, 120, 120, 195, 3, 0.787719
140, 3, wb, filler, NA, 999, 999, 3, 8, 149, 179, 92, 65, 118, 150, 2, 1.36982
140, 3, wb, filler, NA, 999, 999, 3, 8, 149, 179, 92, 65, 118, 150, 1, 0.450026
140, 3, wb, attraction, a-b-da, 14, 1, 3, 9, 125, 56, 135, 60, 60, 135, 1, 1.14186
140, 3, wb, attraction, a-b-da, 14, 1, 3, 9, 125, 56, 135, 60, 60, 135, 2, 3.56677
140, 3, wb, catch, NA, 999, 999, 3, 10, 153, 102, 171, 144, 115, 80, 3, 2.56503
140, 3, wb, catch, NA, 999, 999, 3, 10, 153, 102, 171, 144, 115, 80, 2, 0.64479
140, 3, wb, attraction, a-b-da, 14, 3, 3, 11, 195, 120, 120, 195, 181, 111, 3, 4.34451
140, 3, wb, attraction, a-b-da, 14, 3, 3, 11, 195, 120, 120, 195, 181, 111, 2, 0.904429
140, 3, wb, attraction, a-b-da, 9, 3, 3, 12, 195, 120, 186, 114, 120, 195, 2, 5.38619
140, 3, wb, attraction, a-b-da, 9, 3, 3, 12, 195, 120, 186, 114, 120, 195, 3, 0.712462
140, 3, wb, attraction, a-b-da, 2, 2, 3, 13, 163, 89, 90, 165, 165, 90, 1, 1.63349
140, 3, wb, attraction, a-b-da, 2, 2, 3, 13, 163, 89, 90, 165, 165, 90, 2, 0.831017
140, 3, wb, filler, NA, 999, 999, 3, 14, 124, 92, 94, 57, 67, 71, 3, 38.3954
140, 3, wb, filler, NA, 999, 999, 3, 14, 124, 92, 94, 57, 67, 71, 1, 0.727257
140, 3, wb, filler, NA, 999, 999, 3, 15, 139, 142, 141, 109, 58, 193, 3, 17.0399
140, 3, wb, filler, NA, 999, 999, 3, 15, 139, 142, 141, 109, 58, 193, 1, 0.896335
140, 3, wb, attraction, a-b-da, 9, 1, 3, 16, 135, 60, 60, 135, 129, 57, 3, 3.1941
140, 3, wb, attraction, a-b-da, 9, 1, 3, 16, 135, 60, 60, 135, 129, 57, 2, 0.624312
140, 3, wb, filler, NA, 999, 999, 3, 17, 71, 96, 170, 93, 159, 147, 1, 1.05286
140, 3, wb, filler, NA, 999, 999, 3, 17, 71, 96, 170, 93, 159, 147, 3, 1.66576
140, 3, wb, attraction, a-b-da, 5, 2, 3, 18, 90, 165, 161, 88, 165, 90, 2, 1.98062
140, 3, wb, attraction, a-b-da, 5, 2, 3, 18, 90, 165, 161, 88, 165, 90, 3, 0.699833
140, 3, wb, attraction, a-b-db, 2, 3, 3, 19, 119, 193, 120, 195, 195, 120, 3, 5.32562
140, 3, wb, attraction, a-b-db, 2, 3, 3, 19, 119, 193, 120, 195, 195, 120, 2, 0.677726
140, 3, wb, attraction, a-b-db, 2, 1, 3, 20, 60, 135, 59, 134, 135, 60, 3, 2.09627
140, 3, wb, attraction, a-b-db, 2, 1, 3, 20, 60, 135, 59, 134, 135, 60, 2, 0.683006
140, 3, wb, attraction, a-b-db, 9, 3, 3, 21, 120, 195, 195, 120, 114, 186, 3, 3.8214
140, 3, wb, attraction, a-b-db, 9, 3, 3, 21, 120, 195, 195, 120, 114, 186, 2, 3.13869
140, 3, wb, attraction, a-b-da, 2, 1, 3, 22, 135, 60, 134, 59, 60, 135, 1, 2.81063
140, 3, wb, attraction, a-b-da, 2, 1, 3, 22, 135, 60, 134, 59, 60, 135, 2, 0.944223
140, 3, wb, attraction, a-b-da, 5, 3, 3, 23, 120, 195, 190, 117, 195, 120, 3, 3.15173
140, 3, wb, attraction, a-b-da, 5, 3, 3, 23, 120, 195, 190, 117, 195, 120, 1, 0.616229
140, 3, wb, attraction, a-b-db, 5, 2, 3, 24, 165, 90, 90, 165, 88, 161, 3, 11.2532
140, 3, wb, attraction, a-b-db, 5, 2, 3, 24, 165, 90, 90, 165, 88, 161, 2, 0.806927
140, 3, wb, catch, NA, 999, 999, 3, 25, 131, 184, 102, 153, 76, 119, 3, 1.41195
140, 3, wb, catch, NA, 999, 999, 3, 25, 131, 184, 102, 153, 76, 119, 1, 0.786187
140, 3, wb, attraction, a-b-db, 14, 3, 3, 26, 120, 195, 111, 181, 195, 120, 3, 3.7287
140, 3, wb, attraction, a-b-db, 14, 3, 3, 26, 120, 195, 111, 181, 195, 120, 2, 0.617373
140, 3, wb, attraction, a-b-db, 9, 1, 3, 27, 135, 60, 60, 135, 57, 129, 3, 4.1345
140, 3, wb, attraction, a-b-db, 9, 1, 3, 27, 135, 60, 60, 135, 57, 129, 2, 1.01515
140, 3, wb, attraction, a-b-db, 2, 2, 3, 28, 89, 163, 165, 90, 90, 165, 1, 14.3403
140, 3, wb, attraction, a-b-db, 2, 2, 3, 28, 89, 163, 165, 90, 90, 165, 2, 0.96978
140, 3, wb, filler, NA, 999, 999, 3, 29, 165, 130, 190, 86, 107, 167, 2, 7.05666
140, 3, wb, filler, NA, 999, 999, 3, 29, 165, 130, 190, 86, 107, 167, 3, 4.76368
140, 3, wb, attraction, a-b-da, 9, 2, 3, 30, 157, 86, 165, 90, 90, 165, 1, 12.8976
140, 3, wb, attraction, a-b-da, 9, 2, 3, 30, 157, 86, 165, 90, 90, 165, 3, 1.15273
140, 3, wb, filler, NA, 999, 999, 3, 31, 76, 168, 70, 82, 121, 75, 2, 1.16834
140, 3, wb, filler, NA, 999, 999, 3, 31, 76, 168, 70, 82, 121, 75, 1, 0.993025
140, 3, wb, filler, NA, 999, 999, 3, 32, 195, 169, 109, 131, 131, 184, 2, 1.11023
140, 3, wb, filler, NA, 999, 999, 3, 32, 195, 169, 109, 131, 131, 184, 1, 0.792481
140, 3, wb, attraction, a-b-da, 5, 1, 3, 33, 132, 58, 135, 60, 60, 135, 1, 1.49419
140, 3, wb, attraction, a-b-da, 5, 1, 3, 33, 132, 58, 135, 60, 60, 135, 2, 0.464987
140, 3, wb, attraction, a-b-da, 14, 2, 3, 34, 90, 165, 153, 83, 165, 90, 1, 1.97225
140, 3, wb, attraction, a-b-da, 14, 2, 3, 34, 90, 165, 153, 83, 165, 90, 2, 0.603558
140, 3, wb, attraction, a-b-db, 9, 2, 3, 35, 90, 165, 165, 90, 86, 157, 1, 0.929397
140, 3, wb, attraction, a-b-db, 9, 2, 3, 35, 90, 165, 165, 90, 86, 157, 2, 0.779124
140, 3, wb, attraction, a-b-db, 5, 1, 3, 36, 135, 60, 60, 135, 58, 132, 2, 3.28126
140, 3, wb, attraction, a-b-db, 5, 1, 3, 36, 135, 60, 60, 135, 58, 132, 1, 1.83623
140, 3, wb, attraction, a-b-db, 14, 1, 3, 37, 56, 125, 135, 60, 60, 135, 1, 57.2644
140, 3, wb, attraction, a-b-db, 14, 1, 3, 37, 56, 125, 135, 60, 60, 135, 2, 1.55575
140, 3, wb, attraction, a-b-da, 5, 1, 4, 1, 135, 60, 132, 58, 60, 135, 2, 1.60319
140, 3, wb, attraction, a-b-da, 5, 1, 4, 1, 135, 60, 132, 58, 60, 135, 3, 0.570091
140, 3, wb, attraction, a-b-da, 14, 1, 4, 2, 60, 135, 135, 60, 125, 56, 3, 1.36098
140, 3, wb, attraction, a-b-da, 14, 1, 4, 2, 60, 135, 135, 60, 125, 56, 2, 0.849348
140, 3, wb, filler, NA, 999, 999, 4, 3, 111, 80, 112, 170, 167, 88, 1, 1.44492
140, 3, wb, filler, NA, 999, 999, 4, 3, 111, 80, 112, 170, 167, 88, 2, 0.745837
140, 3, wb, filler, NA, 999, 999, 4, 4, 86, 56, 77, 123, 174, 141, 1, 0.889606
140, 3, wb, filler, NA, 999, 999, 4, 4, 86, 56, 77, 123, 174, 141, 3, 0.644575
140, 3, wb, attraction, a-b-da, 2, 3, 4, 5, 120, 195, 195, 120, 193, 119, 3, 3.09632
140, 3, wb, attraction, a-b-da, 2, 3, 4, 5, 120, 195, 195, 120, 193, 119, 1, 1.05064
140, 3, wb, catch, NA, 999, 999, 4, 6, 154, 101, 182, 133, 64, 131, 3, 1.11023
140, 3, wb, catch, NA, 999, 999, 4, 6, 154, 101, 182, 133, 64, 131, 2, 0.480667
140, 3, wb, attraction, a-b-da, 5, 2, 4, 7, 165, 90, 161, 88, 90, 165, 2, 1.58701
140, 3, wb, attraction, a-b-da, 5, 2, 4, 7, 165, 90, 161, 88, 90, 165, 3, 1.64247
140, 3, wb, attraction, a-b-da, 5, 3, 4, 8, 190, 117, 120, 195, 195, 120, 1, 0.829909
140, 3, wb, attraction, a-b-da, 5, 3, 4, 8, 190, 117, 120, 195, 195, 120, 2, 0.723702
140, 3, wb, filler, NA, 999, 999, 4, 9, 138, 185, 138, 112, 73, 71, 3, 0.79609
140, 3, wb, filler, NA, 999, 999, 4, 9, 138, 185, 138, 112, 73, 71, 1, 0.523081
140, 3, wb, filler, NA, 999, 999, 4, 10, 121, 192, 181, 108, 123, 129, 3, 2.35618
140, 3, wb, filler, NA, 999, 999, 4, 10, 121, 192, 181, 108, 123, 129, 1, 0.660065
140, 3, wb, attraction, a-b-db, 2, 3, 4, 11, 195, 120, 119, 193, 120, 195, 1, 4.45509
140, 3, wb, attraction, a-b-db, 2, 3, 4, 11, 195, 120, 119, 193, 120, 195, 2, 0.771013
140, 3, wb, attraction, a-b-db, 9, 1, 4, 12, 60, 135, 57, 129, 135, 60, 2, 3.39406
140, 3, wb, attraction, a-b-db, 9, 1, 4, 12, 60, 135, 57, 129, 135, 60, 3, 1.60036
140, 3, wb, attraction, a-b-da, 2, 2, 4, 13, 90, 165, 165, 90, 163, 89, 1, 2.54981
140, 3, wb, attraction, a-b-da, 2, 2, 4, 13, 90, 165, 165, 90, 163, 89, 2, 0.598318
140, 3, wb, attraction, a-b-db, 9, 2, 4, 14, 90, 165, 165, 90, 86, 157, 3, 1.81207
140, 3, wb, attraction, a-b-db, 9, 2, 4, 14, 90, 165, 165, 90, 86, 157, 2, 0.642234
140, 3, wb, filler, NA, 999, 999, 4, 15, 151, 148, 147, 162, 63, 118, 3, 1.39
140, 3, wb, filler, NA, 999, 999, 4, 15, 151, 148, 147, 162, 63, 118, 2, 0.636761
140, 3, wb, filler, NA, 999, 999, 4, 16, 64, 75, 108, 144, 119, 184, 1, 1.08917
140, 3, wb, filler, NA, 999, 999, 4, 16, 64, 75, 108, 144, 119, 184, 3, 0.612054
140, 3, wb, attraction, a-b-db, 9, 3, 4, 17, 120, 195, 195, 120, 114, 186, 3, 3.88924
140, 3, wb, attraction, a-b-db, 9, 3, 4, 17, 120, 195, 195, 120, 114, 186, 2, 0.7633
140, 3, wb, attraction, a-b-db, 5, 1, 4, 18, 60, 135, 135, 60, 58, 132, 3, 1.33832
140, 3, wb, attraction, a-b-db, 5, 1, 4, 18, 60, 135, 135, 60, 58, 132, 1, 0.723191
140, 3, wb, attraction, a-b-db, 14, 2, 4, 19, 90, 165, 83, 153, 165, 90, 2, 1.82823
140, 3, wb, attraction, a-b-db, 14, 2, 4, 19, 90, 165, 83, 153, 165, 90, 3, 0.825692
140, 3, wb, attraction, a-b-db, 2, 2, 4, 20, 165, 90, 89, 163, 90, 165, 1, 1.28602
140, 3, wb, attraction, a-b-db, 2, 2, 4, 20, 165, 90, 89, 163, 90, 165, 2, 0.609686
140, 3, wb, attraction, a-b-da, 14, 2, 4, 21, 90, 165, 153, 83, 165, 90, 2, 1.02286
140, 3, wb, attraction, a-b-da, 14, 2, 4, 21, 90, 165, 153, 83, 165, 90, 1, 0.708547
140, 3, wb, attraction, a-b-da, 14, 3, 4, 22, 195, 120, 120, 195, 181, 111, 3, 3.3573
140, 3, wb, attraction, a-b-da, 14, 3, 4, 22, 195, 120, 120, 195, 181, 111, 2, 0.572882
140, 3, wb, filler, NA, 999, 999, 4, 23, 110, 75, 195, 165, 123, 175, 1, 1.01996
140, 3, wb, filler, NA, 999, 999, 4, 23, 110, 75, 195, 165, 123, 175, 2, 0.666358
140, 3, wb, attraction, a-b-db, 14, 3, 4, 24, 111, 181, 120, 195, 195, 120, 1, 1.48547
140, 3, wb, attraction, a-b-db, 14, 3, 4, 24, 111, 181, 120, 195, 195, 120, 2, 0.792973
140, 3, wb, filler, NA, 999, 999, 4, 25, 95, 155, 89, 92, 155, 189, 2, 1.31867
140, 3, wb, filler, NA, 999, 999, 4, 25, 95, 155, 89, 92, 155, 189, 3, 0.584945
140, 3, wb, attraction, a-b-da, 9, 2, 4, 26, 90, 165, 157, 86, 165, 90, 3, 3.49543
140, 3, wb, attraction, a-b-da, 9, 2, 4, 26, 90, 165, 157, 86, 165, 90, 1, 0.729761
140, 3, wb, attraction, a-b-da, 2, 1, 4, 27, 134, 59, 135, 60, 60, 135, 1, 2.98592
140, 3, wb, attraction, a-b-da, 2, 1, 4, 27, 134, 59, 135, 60, 60, 135, 2, 0.840889
140, 3, wb, attraction, a-b-da, 9, 1, 4, 28, 60, 135, 135, 60, 129, 57, 3, 1.1566
140, 3, wb, attraction, a-b-da, 9, 1, 4, 28, 60, 135, 135, 60, 129, 57, 1, 4.04493
140, 3, wb, attraction, a-b-db, 5, 3, 4, 29, 117, 190, 120, 195, 195, 120, 3, 3.28767
140, 3, wb, attraction, a-b-db, 5, 3, 4, 29, 117, 190, 120, 195, 195, 120, 2, 0.802516
140, 3, wb, attraction, a-b-db, 5, 2, 4, 30, 90, 165, 88, 161, 165, 90, 3, 5.41616
140, 3, wb, attraction, a-b-db, 5, 2, 4, 30, 90, 165, 88, 161, 165, 90, 2, 0.86913
140, 3, wb, attraction, a-b-da, 9, 3, 4, 31, 195, 120, 186, 114, 120, 195, 2, 4.04055
140, 3, wb, attraction, a-b-da, 9, 3, 4, 31, 195, 120, 186, 114, 120, 195, 3, 0.820214
140, 3, wb, filler, NA, 999, 999, 4, 32, 152, 187, 145, 159, 155, 70, 3, 0.993283
140, 3, wb, filler, NA, 999, 999, 4, 32, 152, 187, 145, 159, 155, 70, 2, 0.552137
140, 3, wb, filler, NA, 999, 999, 4, 33, 180, 81, 171, 159, 136, 147, 1, 0.839955
140, 3, wb, filler, NA, 999, 999, 4, 33, 180, 81, 171, 159, 136, 147, 2, 1.18913
140, 3, wb, catch, NA, 999, 999, 4, 34, 62, 133, 193, 122, 98, 157, 1, 0.76336
140, 3, wb, catch, NA, 999, 999, 4, 34, 62, 133, 193, 122, 98, 157, 2, 1.0678
140, 3, wb, attraction, a-b-db, 14, 1, 4, 35, 60, 135, 56, 125, 135, 60, 1, 2.2146
140, 3, wb, attraction, a-b-db, 14, 1, 4, 35, 60, 135, 56, 125, 135, 60, 3, 1.31703
140, 3, wb, attraction, a-b-db, 2, 1, 4, 36, 135, 60, 60, 135, 59, 134, 1, 14.8617
140, 3, wb, attraction, a-b-db, 2, 1, 4, 36, 135, 60, 60, 135, 59, 134, 2, 0.869343
140, 3, wb, catch, NA, 999, 999, 4, 37, 161, 154, 125, 70, 146, 109, 2, 0.65636
140, 3, wb, catch, NA, 999, 999, 4, 37, 161, 154, 125, 70, 146, 109, 1, 0.516967
140, 3, wb, attraction, a-b-db, 5, 3, 5, 1, 120, 195, 117, 190, 195, 120, 3, 12.0766
140, 3, wb, attraction, a-b-db, 5, 3, 5, 1, 120, 195, 117, 190, 195, 120, 2, 3.17286
140, 3, wb, attraction, a-b-db, 2, 3, 5, 2, 120, 195, 195, 120, 119, 193, 1, 9.70711
140, 3, wb, attraction, a-b-db, 2, 3, 5, 2, 120, 195, 195, 120, 119, 193, 2, 1.09937
140, 3, wb, catch, NA, 999, 999, 5, 3, 110, 85, 152, 103, 167, 148, 1, 0.788916
140, 3, wb, catch, NA, 999, 999, 5, 3, 110, 85, 152, 103, 167, 148, 3, 0.732051
140, 3, wb, attraction, a-b-db, 9, 3, 5, 4, 114, 186, 120, 195, 195, 120, 1, 1.22841
140, 3, wb, attraction, a-b-db, 9, 3, 5, 4, 114, 186, 120, 195, 195, 120, 2, 0.890122
140, 3, wb, attraction, a-b-da, 2, 3, 5, 5, 120, 195, 195, 120, 193, 119, 1, 1.42754
140, 3, wb, attraction, a-b-da, 2, 3, 5, 5, 120, 195, 195, 120, 193, 119, 2, 0.673188
140, 3, wb, attraction, a-b-da, 9, 3, 5, 6, 120, 195, 186, 114, 195, 120, 3, 2.23622
140, 3, wb, attraction, a-b-da, 9, 3, 5, 6, 120, 195, 186, 114, 195, 120, 1, 0.39353
140, 3, wb, attraction, a-b-da, 2, 1, 5, 7, 134, 59, 135, 60, 60, 135, 1, 0.895416
140, 3, wb, attraction, a-b-da, 2, 1, 5, 7, 134, 59, 135, 60, 60, 135, 2, 0.578414
140, 3, wb, attraction, a-b-da, 14, 2, 5, 8, 90, 165, 165, 90, 153, 83, 3, 1.24879
140, 3, wb, attraction, a-b-da, 14, 2, 5, 8, 90, 165, 165, 90, 153, 83, 1, 0.589809
140, 3, wb, attraction, a-b-da, 14, 3, 5, 9, 181, 111, 120, 195, 195, 120, 1, 1.01217
140, 3, wb, attraction, a-b-da, 14, 3, 5, 9, 181, 111, 120, 195, 195, 120, 2, 0.610522
140, 3, wb, catch, NA, 999, 999, 5, 10, 128, 67, 121, 194, 126, 129, 1, 0.775617
140, 3, wb, catch, NA, 999, 999, 5, 10, 128, 67, 121, 194, 126, 129, 2, 1.42331
140, 3, wb, filler, NA, 999, 999, 5, 11, 120, 136, 112, 184, 136, 137, 1, 0.899984
140, 3, wb, filler, NA, 999, 999, 5, 11, 120, 136, 112, 184, 136, 137, 2, 0.727255
140, 3, wb, filler, NA, 999, 999, 5, 12, 186, 142, 62, 170, 99, 185, 2, 1.36014
140, 3, wb, filler, NA, 999, 999, 5, 12, 186, 142, 62, 170, 99, 185, 1, 0.527687
140, 3, wb, attraction, a-b-da, 9, 2, 5, 13, 157, 86, 165, 90, 90, 165, 1, 3.49618
140, 3, wb, attraction, a-b-da, 9, 2, 5, 13, 157, 86, 165, 90, 90, 165, 2, 0.626368
140, 3, wb, attraction, a-b-db, 5, 2, 5, 14, 165, 90, 90, 165, 88, 161, 1, 1.01481
140, 3, wb, attraction, a-b-db, 5, 2, 5, 14, 165, 90, 90, 165, 88, 161, 2, 0.381131
140, 3, wb, attraction, a-b-db, 5, 1, 5, 15, 58, 132, 135, 60, 60, 135, 1, 0.851626
140, 3, wb, attraction, a-b-db, 5, 1, 5, 15, 58, 132, 135, 60, 60, 135, 2, 0.536686
140, 3, wb, filler, NA, 999, 999, 5, 16, 114, 112, 186, 161, 174, 99, 1, 1.00109
140, 3, wb, filler, NA, 999, 999, 5, 16, 114, 112, 186, 161, 174, 99, 2, 0.440056
140, 3, wb, attraction, a-b-da, 9, 1, 5, 17, 129, 57, 135, 60, 60, 135, 1, 1.19667
140, 3, wb, attraction, a-b-da, 9, 1, 5, 17, 129, 57, 135, 60, 60, 135, 2, 0.475531
140, 3, wb, catch, NA, 999, 999, 5, 18, 176, 139, 108, 147, 116, 79, 3, 1.13398
140, 3, wb, catch, NA, 999, 999, 5, 18, 176, 139, 108, 147, 116, 79, 1, 0.751706
140, 3, wb, attraction, a-b-da, 5, 1, 5, 19, 60, 135, 135, 60, 132, 58, 1, 0.823435
140, 3, wb, attraction, a-b-da, 5, 1, 5, 19, 60, 135, 135, 60, 132, 58, 2, 0.684968
140, 3, wb, filler, NA, 999, 999, 5, 20, 169, 122, 180, 128, 163, 129, 1, 1.00735
140, 3, wb, filler, NA, 999, 999, 5, 20, 169, 122, 180, 128, 163, 129, 2, 0.46177
140, 3, wb, attraction, a-b-db, 2, 2, 5, 21, 90, 165, 165, 90, 89, 163, 2, 1.0168
140, 3, wb, attraction, a-b-db, 2, 2, 5, 21, 90, 165, 165, 90, 89, 163, 1, 0.431062
140, 3, wb, attraction, a-b-da, 2, 2, 5, 22, 163, 89, 90, 165, 165, 90, 1, 1.12356
140, 3, wb, attraction, a-b-da, 2, 2, 5, 22, 163, 89, 90, 165, 165, 90, 2, 0.541181
140, 3, wb, filler, NA, 999, 999, 5, 23, 126, 109, 163, 116, 110, 77, 1, 0.668972
140, 3, wb, filler, NA, 999, 999, 5, 23, 126, 109, 163, 116, 110, 77, 2, 0.449382
140, 3, wb, filler, NA, 999, 999, 5, 24, 67, 113, 144, 125, 120, 64, 1, 0.829294
140, 3, wb, filler, NA, 999, 999, 5, 24, 67, 113, 144, 125, 120, 64, 2, 0.538905
140, 3, wb, attraction, a-b-db, 14, 2, 5, 25, 90, 165, 83, 153, 165, 90, 2, 1.81932
140, 3, wb, attraction, a-b-db, 14, 2, 5, 25, 90, 165, 83, 153, 165, 90, 1, 0.449615
140, 3, wb, attraction, a-b-db, 14, 3, 5, 26, 195, 120, 120, 195, 111, 181, 1, 1.05335
140, 3, wb, attraction, a-b-db, 14, 3, 5, 26, 195, 120, 120, 195, 111, 181, 2, 0.682297
140, 3, wb, filler, NA, 999, 999, 5, 27, 125, 92, 195, 129, 102, 78, 1, 1.04469
140, 3, wb, filler, NA, 999, 999, 5, 27, 125, 92, 195, 129, 102, 78, 2, 2.00164
140, 3, wb, attraction, a-b-db, 9, 2, 5, 28, 165, 90, 86, 157, 90, 165, 2, 9.32711
140, 3, wb, attraction, a-b-db, 9, 2, 5, 28, 165, 90, 86, 157, 90, 165, 3, 0.81409
140, 3, wb, attraction, a-b-da, 14, 1, 5, 29, 60, 135, 125, 56, 135, 60, 2, 3.00299
140, 3, wb, attraction, a-b-da, 14, 1, 5, 29, 60, 135, 125, 56, 135, 60, 3, 1.21742
140, 3, wb, filler, NA, 999, 999, 5, 30, 142, 166, 180, 156, 113, 104, 3, 1.56634
140, 3, wb, filler, NA, 999, 999, 5, 30, 142, 166, 180, 156, 113, 104, 2, 0.614517
140, 3, wb, attraction, a-b-da, 5, 3, 5, 31, 120, 195, 190, 117, 195, 120, 2, 13.5955
140, 3, wb, attraction, a-b-da, 5, 3, 5, 31, 120, 195, 190, 117, 195, 120, 3, 0.662613
140, 3, wb, filler, NA, 999, 999, 5, 32, 159, 127, 98, 84, 183, 134, 2, 1.09772
140, 3, wb, filler, NA, 999, 999, 5, 32, 159, 127, 98, 84, 183, 134, 3, 1.25272
140, 3, wb, attraction, a-b-db, 2, 1, 5, 33, 135, 60, 60, 135, 59, 134, 3, 1.97624
140, 3, wb, attraction, a-b-db, 2, 1, 5, 33, 135, 60, 60, 135, 59, 134, 2, 2.15953
140, 3, wb, attraction, a-b-db, 9, 1, 5, 34, 60, 135, 57, 129, 135, 60, 2, 1.96622
140, 3, wb, attraction, a-b-db, 9, 1, 5, 34, 60, 135, 57, 129, 135, 60, 3, 1.47021
140, 3, wb, attraction, a-b-da, 5, 2, 5, 35, 161, 88, 90, 165, 165, 90, 3, 3.369
140, 3, wb, attraction, a-b-da, 5, 2, 5, 35, 161, 88, 90, 165, 165, 90, 2, 0.776748
140, 3, wb, filler, NA, 999, 999, 5, 36, 174, 165, 120, 58, 129, 136, 2, 0.950876
140, 3, wb, filler, NA, 999, 999, 5, 36, 174, 165, 120, 58, 129, 136, 1, 0.503845
140, 3, wb, attraction, a-b-db, 14, 1, 5, 37, 56, 125, 135, 60, 60, 135, 1, 1.13777
140, 3, wb, attraction, a-b-db, 14, 1, 5, 37, 56, 125, 135, 60, 60, 135, 2, 0.611366
140, 3, wb, attraction, a-b-db, 5, 2, 6, 1, 90, 165, 88, 161, 165, 90, 3, 2.74447
140, 3, wb, attraction, a-b-db, 5, 2, 6, 1, 90, 165, 88, 161, 165, 90, 1, 1.74486
140, 3, wb, attraction, a-b-da, 5, 3, 6, 2, 190, 117, 195, 120, 120, 195, 1, 3.08036
140, 3, wb, attraction, a-b-da, 5, 3, 6, 2, 190, 117, 195, 120, 120, 195, 3, 0.931332
140, 3, wb, catch, NA, 999, 999, 6, 3, 99, 156, 118, 77, 174, 141, 2, 1.02769
140, 3, wb, catch, NA, 999, 999, 6, 3, 99, 156, 118, 77, 174, 141, 3, 0.761378
140, 3, wb, catch, NA, 999, 999, 6, 4, 131, 184, 118, 77, 139, 116, 2, 0.688346
140, 3, wb, catch, NA, 999, 999, 6, 4, 131, 184, 118, 77, 139, 116, 1, 0.71536
140, 3, wb, filler, NA, 999, 999, 6, 5, 149, 58, 191, 122, 172, 60, 1, 0.860397
140, 3, wb, filler, NA, 999, 999, 6, 5, 149, 58, 191, 122, 172, 60, 2, 0.488834
140, 3, wb, filler, NA, 999, 999, 6, 6, 122, 195, 107, 113, 152, 187, 2, 1.32328
140, 3, wb, filler, NA, 999, 999, 6, 6, 122, 195, 107, 113, 152, 187, 3, 2.65287
140, 3, wb, filler, NA, 999, 999, 6, 7, 81, 177, 108, 159, 95, 173, 1, 3.12805
140, 3, wb, filler, NA, 999, 999, 6, 7, 81, 177, 108, 159, 95, 173, 2, 1.48904
140, 3, wb, attraction, a-b-da, 14, 2, 6, 8, 90, 165, 153, 83, 165, 90, 2, 2.72311
140, 3, wb, attraction, a-b-da, 14, 2, 6, 8, 90, 165, 153, 83, 165, 90, 1, 0.612145
140, 3, wb, attraction, a-b-db, 9, 1, 6, 9, 135, 60, 57, 129, 60, 135, 2, 0.873182
140, 3, wb, attraction, a-b-db, 9, 1, 6, 9, 135, 60, 57, 129, 60, 135, 1, 1.541
140, 3, wb, attraction, a-b-db, 2, 1, 6, 10, 59, 134, 60, 135, 135, 60, 1, 1.59642
140, 3, wb, attraction, a-b-db, 2, 1, 6, 10, 59, 134, 60, 135, 135, 60, 2, 0.627348
140, 3, wb, attraction, a-b-da, 5, 2, 6, 11, 165, 90, 161, 88, 90, 165, 2, 3.00765
140, 3, wb, attraction, a-b-da, 5, 2, 6, 11, 165, 90, 161, 88, 90, 165, 3, 0.581286
140, 3, wb, filler, NA, 999, 999, 6, 12, 107, 72, 133, 97, 93, 117, 1, 1.0517
140, 3, wb, filler, NA, 999, 999, 6, 12, 107, 72, 133, 97, 93, 117, 2, 0.560707
140, 3, wb, attraction, a-b-db, 2, 2, 6, 13, 90, 165, 89, 163, 165, 90, 3, 26.904
140, 3, wb, attraction, a-b-db, 2, 2, 6, 13, 90, 165, 89, 163, 165, 90, 2, 0.650818
140, 3, wb, attraction, a-b-db, 5, 1, 6, 14, 58, 132, 135, 60, 60, 135, 2, 1.0304
140, 3, wb, attraction, a-b-db, 5, 1, 6, 14, 58, 132, 135, 60, 60, 135, 1, 0.548157
140, 3, wb, attraction, a-b-da, 2, 2, 6, 15, 90, 165, 165, 90, 163, 89, 2, 0.707843
140, 3, wb, attraction, a-b-da, 2, 2, 6, 15, 90, 165, 165, 90, 163, 89, 1, 0.670432
140, 3, wb, filler, NA, 999, 999, 6, 16, 145, 101, 165, 181, 149, 155, 1, 0.937327
140, 3, wb, filler, NA, 999, 999, 6, 16, 145, 101, 165, 181, 149, 155, 2, 0.531023
140, 3, wb, filler, NA, 999, 999, 6, 17, 172, 126, 125, 123, 113, 150, 2, 0.859466
140, 3, wb, filler, NA, 999, 999, 6, 17, 172, 126, 125, 123, 113, 150, 1, 0.647957
140, 3, wb, filler, NA, 999, 999, 6, 18, 83, 170, 106, 78, 175, 193, 2, 1.87566
140, 3, wb, filler, NA, 999, 999, 6, 18, 83, 170, 106, 78, 175, 193, 3, 0.375176
140, 3, wb, attraction, a-b-db, 2, 3, 6, 19, 195, 120, 119, 193, 120, 195, 1, 3.38955
140, 3, wb, attraction, a-b-db, 2, 3, 6, 19, 195, 120, 119, 193, 120, 195, 2, 0.619775
140, 3, wb, filler, NA, 999, 999, 6, 20, 92, 187, 152, 127, 144, 181, 1, 1.09681
140, 3, wb, filler, NA, 999, 999, 6, 20, 92, 187, 152, 127, 144, 181, 3, 0.739897
140, 3, wb, attraction, a-b-da, 14, 3, 6, 21, 181, 111, 195, 120, 120, 195, 1, 2.03624
140, 3, wb, attraction, a-b-da, 14, 3, 6, 21, 181, 111, 195, 120, 120, 195, 2, 0.8415
140, 3, wb, attraction, a-b-da, 9, 3, 6, 22, 120, 195, 195, 120, 186, 114, 2, 0.885193
140, 3, wb, attraction, a-b-da, 9, 3, 6, 22, 120, 195, 195, 120, 186, 114, 1, 1.16887
140, 3, wb, attraction, a-b-db, 14, 1, 6, 23, 60, 135, 56, 125, 135, 60, 2, 0.807835
140, 3, wb, attraction, a-b-db, 14, 1, 6, 23, 60, 135, 56, 125, 135, 60, 3, 0.638147
140, 3, wb, attraction, a-b-db, 14, 3, 6, 24, 111, 181, 195, 120, 120, 195, 1, 2.29062
140, 3, wb, attraction, a-b-db, 14, 3, 6, 24, 111, 181, 195, 120, 120, 195, 2, 0.437241
140, 3, wb, attraction, a-b-db, 9, 3, 6, 25, 114, 186, 120, 195, 195, 120, 1, 2.11363
140, 3, wb, attraction, a-b-db, 9, 3, 6, 25, 114, 186, 120, 195, 195, 120, 2, 0.579658
140, 3, wb, attraction, a-b-da, 9, 2, 6, 26, 157, 86, 165, 90, 90, 165, 1, 0.842057
140, 3, wb, attraction, a-b-da, 9, 2, 6, 26, 157, 86, 165, 90, 90, 165, 2, 0.495132
140, 3, wb, attraction, a-b-da, 9, 1, 6, 27, 60, 135, 129, 57, 135, 60, 2, 0.688921
140, 3, wb, attraction, a-b-da, 9, 1, 6, 27, 60, 135, 129, 57, 135, 60, 1, 0.619983
140, 3, wb, filler, NA, 999, 999, 6, 28, 87, 158, 155, 138, 59, 91, 3, 0.745083
140, 3, wb, filler, NA, 999, 999, 6, 28, 87, 158, 155, 138, 59, 91, 2, 0.514126
140, 3, wb, catch, NA, 999, 999, 6, 29, 155, 100, 174, 141, 103, 92, 3, 0.827282
140, 3, wb, catch, NA, 999, 999, 6, 29, 155, 100, 174, 141, 103, 92, 2, 0.512931
140, 3, wb, attraction, a-b-db, 5, 3, 6, 30, 117, 190, 195, 120, 120, 195, 1, 2.37804
140, 3, wb, attraction, a-b-db, 5, 3, 6, 30, 117, 190, 195, 120, 120, 195, 2, 0.313285
140, 3, wb, attraction, a-b-da, 2, 3, 6, 31, 195, 120, 120, 195, 193, 119, 1, 0.978462
140, 3, wb, attraction, a-b-da, 2, 3, 6, 31, 195, 120, 120, 195, 193, 119, 2, 0.474163
140, 3, wb, attraction, a-b-db, 9, 2, 6, 32, 90, 165, 86, 157, 165, 90, 1, 0.612641
140, 3, wb, attraction, a-b-db, 9, 2, 6, 32, 90, 165, 86, 157, 165, 90, 2, 0.771153
140, 3, wb, attraction, a-b-da, 14, 1, 6, 33, 125, 56, 60, 135, 135, 60, 1, 1.82603
140, 3, wb, attraction, a-b-da, 14, 1, 6, 33, 125, 56, 60, 135, 135, 60, 2, 0.535466
140, 3, wb, attraction, a-b-da, 2, 1, 6, 34, 60, 135, 134, 59, 135, 60, 1, 0.639877
140, 3, wb, attraction, a-b-da, 2, 1, 6, 34, 60, 135, 134, 59, 135, 60, 2, 0.493052
140, 3, wb, attraction, a-b-da, 5, 1, 6, 35, 132, 58, 135, 60, 60, 135, 1, 0.502867
140, 3, wb, attraction, a-b-da, 5, 1, 6, 35, 132, 58, 135, 60, 60, 135, 2, 0.586127
140, 3, wb, filler, NA, 999, 999, 6, 36, 195, 139, 105, 104, 77, 136, 2, 0.968318
140, 3, wb, filler, NA, 999, 999, 6, 36, 195, 139, 105, 104, 77, 136, 1, 0.440722
140, 3, wb, attraction, a-b-db, 14, 2, 6, 37, 90, 165, 83, 153, 165, 90, 1, 1.94851
140, 3, wb, attraction, a-b-db, 14, 2, 6, 37, 90, 165, 83, 153, 165, 90, 2, 0.95731
140, 3, wb, attraction, a-b-db, 14, 1, 7, 1, 60, 135, 56, 125, 135, 60, 1, 1.28432
140, 3, wb, attraction, a-b-db, 14, 1, 7, 1, 60, 135, 56, 125, 135, 60, 2, 0.655754
140, 3, wb, attraction, a-b-db, 14, 3, 7, 2, 120, 195, 111, 181, 195, 120, 1, 1.02753
140, 3, wb, attraction, a-b-db, 14, 3, 7, 2, 120, 195, 111, 181, 195, 120, 2, 0.841234
140, 3, wb, attraction, a-b-db, 5, 2, 7, 3, 90, 165, 88, 161, 165, 90, 2, 1.32524
140, 3, wb, attraction, a-b-db, 5, 2, 7, 3, 90, 165, 88, 161, 165, 90, 1, 0.47833
140, 3, wb, attraction, a-b-da, 2, 2, 7, 4, 165, 90, 163, 89, 90, 165, 1, 0.952808
140, 3, wb, attraction, a-b-da, 2, 2, 7, 4, 165, 90, 163, 89, 90, 165, 2, 1.16182
140, 3, wb, attraction, a-b-db, 9, 1, 7, 5, 135, 60, 57, 129, 60, 135, 1, 1.16074
140, 3, wb, attraction, a-b-db, 9, 1, 7, 5, 135, 60, 57, 129, 60, 135, 2, 0.537082
140, 3, wb, filler, NA, 999, 999, 7, 6, 79, 173, 98, 64, 137, 78, 1, 0.969615
140, 3, wb, filler, NA, 999, 999, 7, 6, 79, 173, 98, 64, 137, 78, 2, 3.26584
140, 3, wb, catch, NA, 999, 999, 7, 7, 158, 157, 97, 158, 115, 80, 3, 1.76425
140, 3, wb, catch, NA, 999, 999, 7, 7, 158, 157, 97, 158, 115, 80, 1, 0.724203
140, 3, wb, attraction, a-b-da, 5, 1, 7, 8, 60, 135, 135, 60, 132, 58, 1, 0.940562
140, 3, wb, attraction, a-b-da, 5, 1, 7, 8, 60, 135, 135, 60, 132, 58, 2, 1.12552
140, 3, wb, filler, NA, 999, 999, 7, 9, 79, 110, 74, 168, 90, 59, 3, 1.82992
140, 3, wb, filler, NA, 999, 999, 7, 9, 79, 110, 74, 168, 90, 59, 2, 0.63527
140, 3, wb, filler, NA, 999, 999, 7, 10, 169, 75, 170, 179, 194, 193, 1, 1.13566
140, 3, wb, filler, NA, 999, 999, 7, 10, 169, 75, 170, 179, 194, 193, 2, 0.833267
140, 3, wb, attraction, a-b-db, 2, 3, 7, 11, 120, 195, 195, 120, 119, 193, 2, 3.07765
140, 3, wb, attraction, a-b-db, 2, 3, 7, 11, 120, 195, 195, 120, 119, 193, 1, 0.656658
140, 3, wb, attraction, a-b-da, 2, 3, 7, 12, 193, 119, 195, 120, 120, 195, 2, 25.8357
140, 3, wb, attraction, a-b-da, 2, 3, 7, 12, 193, 119, 195, 120, 120, 195, 3, 0.425612
140, 3, wb, attraction, a-b-da, 9, 3, 7, 13, 186, 114, 120, 195, 195, 120, 3, 1.72622
140, 3, wb, attraction, a-b-da, 9, 3, 7, 13, 186, 114, 120, 195, 195, 120, 2, 1.09563
140, 3, wb, attraction, a-b-db, 9, 2, 7, 14, 90, 165, 86, 157, 165, 90, 3, 1.83319
140, 3, wb, attraction, a-b-db, 9, 2, 7, 14, 90, 165, 86, 157, 165, 90, 2, 0.814641
140, 3, wb, attraction, a-b-da, 14, 2, 7, 15, 165, 90, 153, 83, 90, 165, 2, 1.43549
140, 3, wb, attraction, a-b-da, 14, 2, 7, 15, 165, 90, 153, 83, 90, 165, 3, 0.833048
140, 3, wb, attraction, a-b-da, 5, 2, 7, 16, 161, 88, 165, 90, 90, 165, 1, 1.98143
140, 3, wb, attraction, a-b-da, 5, 2, 7, 16, 161, 88, 165, 90, 90, 165, 2, 0.652902
140, 3, wb, filler, NA, 999, 999, 7, 17, 152, 149, 123, 128, 120, 128, 2, 1.51263
140, 3, wb, filler, NA, 999, 999, 7, 17, 152, 149, 123, 128, 120, 128, 1, 0.882614
140, 3, wb, attraction, a-b-db, 5, 3, 7, 18, 195, 120, 117, 190, 120, 195, 1, 70.765
140, 3, wb, attraction, a-b-db, 5, 3, 7, 18, 195, 120, 117, 190, 120, 195, 2, 0.416153
140, 3, wb, attraction, a-b-da, 2, 1, 7, 19, 60, 135, 135, 60, 134, 59, 2, 0.869252
140, 3, wb, attraction, a-b-da, 2, 1, 7, 19, 60, 135, 135, 60, 134, 59, 1, 0.513744
140, 3, wb, attraction, a-b-db, 2, 1, 7, 20, 59, 134, 60, 135, 135, 60, 2, 0.818787
140, 3, wb, attraction, a-b-db, 2, 1, 7, 20, 59, 134, 60, 135, 135, 60, 3, 0.529226
140, 3, wb, attraction, a-b-db, 9, 3, 7, 21, 114, 186, 120, 195, 195, 120, 3, 1.63365
140, 3, wb, attraction, a-b-db, 9, 3, 7, 21, 114, 186, 120, 195, 195, 120, 2, 0.575123
140, 3, wb, filler, NA, 999, 999, 7, 22, 68, 79, 121, 194, 127, 151, 1, 0.621461
140, 3, wb, filler, NA, 999, 999, 7, 22, 68, 79, 121, 194, 127, 151, 2, 0.659424
140, 3, wb, filler, NA, 999, 999, 7, 23, 93, 191, 110, 118, 192, 140, 2, 0.76632
140, 3, wb, filler, NA, 999, 999, 7, 23, 93, 191, 110, 118, 192, 140, 3, 0.630745
140, 3, wb, filler, NA, 999, 999, 7, 24, 106, 105, 71, 178, 168, 111, 1, 2.43513
140, 3, wb, filler, NA, 999, 999, 7, 24, 106, 105, 71, 178, 168, 111, 3, 0.656356
140, 3, wb, attraction, a-b-da, 5, 3, 7, 25, 190, 117, 195, 120, 120, 195, 1, 0.948172
140, 3, wb, attraction, a-b-da, 5, 3, 7, 25, 190, 117, 195, 120, 120, 195, 2, 0.421109
140, 3, wb, catch, NA, 999, 999, 7, 26, 162, 93, 77, 118, 160, 155, 2, 0.874237
140, 3, wb, catch, NA, 999, 999, 7, 26, 162, 93, 77, 118, 160, 155, 3, 0.358128
140, 3, wb, attraction, a-b-db, 5, 1, 7, 27, 60, 135, 58, 132, 135, 60, 3, 1.85321
140, 3, wb, attraction, a-b-db, 5, 1, 7, 27, 60, 135, 58, 132, 135, 60, 2, 0.777939
140, 3, wb, attraction, a-b-db, 2, 2, 7, 28, 89, 163, 90, 165, 165, 90, 2, 1.64826
140, 3, wb, attraction, a-b-db, 2, 2, 7, 28, 89, 163, 90, 165, 165, 90, 3, 0.389009
140, 3, wb, attraction, a-b-da, 14, 1, 7, 29, 60, 135, 135, 60, 125, 56, 1, 0.811452
140, 3, wb, attraction, a-b-da, 14, 1, 7, 29, 60, 135, 135, 60, 125, 56, 2, 0.594072
140, 3, wb, catch, NA, 999, 999, 7, 30, 114, 81, 124, 191, 128, 127, 1, 0.647627
140, 3, wb, catch, NA, 999, 999, 7, 30, 114, 81, 124, 191, 128, 127, 2, 0.580888
140, 3, wb, attraction, a-b-da, 14, 3, 7, 31, 181, 111, 195, 120, 120, 195, 1, 0.811235
140, 3, wb, attraction, a-b-da, 14, 3, 7, 31, 181, 111, 195, 120, 120, 195, 2, 0.537721
140, 3, wb, attraction, a-b-da, 9, 2, 7, 32, 90, 165, 157, 86, 165, 90, 1, 0.714087
140, 3, wb, attraction, a-b-da, 9, 2, 7, 32, 90, 165, 157, 86, 165, 90, 2, 0.460599
140, 3, wb, filler, NA, 999, 999, 7, 33, 95, 176, 65, 157, 176, 182, 2, 0.687497
140, 3, wb, filler, NA, 999, 999, 7, 33, 95, 176, 65, 157, 176, 182, 3, 0.515323
140, 3, wb, attraction, a-b-db, 14, 2, 7, 34, 90, 165, 83, 153, 165, 90, 1, 0.804576
140, 3, wb, attraction, a-b-db, 14, 2, 7, 34, 90, 165, 83, 153, 165, 90, 2, 0.603511
140, 3, wb, filler, NA, 999, 999, 7, 35, 87, 110, 107, 81, 144, 174, 1, 0.969213
140, 3, wb, filler, NA, 999, 999, 7, 35, 87, 110, 107, 81, 144, 174, 3, 0.481702
140, 3, wb, filler, NA, 999, 999, 7, 36, 89, 70, 76, 178, 186, 159, 1, 0.948055
140, 3, wb, filler, NA, 999, 999, 7, 36, 89, 70, 76, 178, 186, 159, 3, 0.885153
140, 3, wb, attraction, a-b-da, 9, 1, 7, 37, 129, 57, 60, 135, 135, 60, 1, 0.810935
140, 3, wb, attraction, a-b-da, 9, 1, 7, 37, 129, 57, 60, 135, 135, 60, 2, 0.637763
140, 3, wb, attraction, a-b-da, 14, 3, 8, 1, 195, 120, 181, 111, 120, 195, 2, 1.71422
140, 3, wb, attraction, a-b-da, 14, 3, 8, 1, 195, 120, 181, 111, 120, 195, 3, 0.524286
140, 3, wb, attraction, a-b-db, 2, 3, 8, 2, 195, 120, 119, 193, 120, 195, 1, 0.724729
140, 3, wb, attraction, a-b-db, 2, 3, 8, 2, 195, 120, 119, 193, 120, 195, 2, 0.326771
140, 3, wb, filler, NA, 999, 999, 8, 3, 70, 160, 180, 192, 150, 106, 1, 0.615109
140, 3, wb, filler, NA, 999, 999, 8, 3, 70, 160, 180, 192, 150, 106, 2, 0.829458
140, 3, wb, attraction, a-b-db, 14, 2, 8, 4, 165, 90, 83, 153, 90, 165, 1, 0.769764
140, 3, wb, attraction, a-b-db, 14, 2, 8, 4, 165, 90, 83, 153, 90, 165, 2, 0.506196
140, 3, wb, attraction, a-b-db, 2, 2, 8, 5, 90, 165, 89, 163, 165, 90, 2, 0.916087
140, 3, wb, attraction, a-b-db, 2, 2, 8, 5, 90, 165, 89, 163, 165, 90, 3, 0.550424
140, 3, wb, attraction, a-b-da, 9, 3, 8, 6, 195, 120, 186, 114, 120, 195, 1, 2.62226
140, 3, wb, attraction, a-b-da, 9, 3, 8, 6, 195, 120, 186, 114, 120, 195, 2, 0.619303
140, 3, wb, attraction, a-b-da, 14, 1, 8, 7, 125, 56, 60, 135, 135, 60, 1, 0.824302
140, 3, wb, attraction, a-b-da, 14, 1, 8, 7, 125, 56, 60, 135, 135, 60, 2, 0.622027
140, 3, wb, catch, NA, 999, 999, 8, 8, 122, 193, 69, 126, 103, 152, 2, 0.779093
140, 3, wb, catch, NA, 999, 999, 8, 8, 122, 193, 69, 126, 103, 152, 1, 0.338839
140, 3, wb, attraction, a-b-da, 5, 1, 8, 9, 132, 58, 60, 135, 135, 60, 1, 1.14732
140, 3, wb, attraction, a-b-da, 5, 1, 8, 9, 132, 58, 60, 135, 135, 60, 2, 0.580366
140, 3, wb, filler, NA, 999, 999, 8, 10, 64, 87, 60, 171, 193, 107, 1, 0.842667
140, 3, wb, filler, NA, 999, 999, 8, 10, 64, 87, 60, 171, 193, 107, 2, 0.535761
140, 3, wb, catch, NA, 999, 999, 8, 11, 123, 132, 66, 129, 156, 159, 2, 1.06421
140, 3, wb, catch, NA, 999, 999, 8, 11, 123, 132, 66, 129, 156, 159, 1, 0.404557
140, 3, wb, filler, NA, 999, 999, 8, 12, 78, 84, 76, 63, 104, 195, 2, 1.11435
140, 3, wb, filler, NA, 999, 999, 8, 12, 78, 84, 76, 63, 104, 195, 3, 1.2288
140, 3, wb, attraction, a-b-db, 5, 1, 8, 13, 60, 135, 135, 60, 58, 132, 3, 1.6171
140, 3, wb, attraction, a-b-db, 5, 1, 8, 13, 60, 135, 135, 60, 58, 132, 2, 0.463018
140, 3, wb, attraction, a-b-db, 14, 3, 8, 14, 111, 181, 120, 195, 195, 120, 1, 1.09807
140, 3, wb, attraction, a-b-db, 14, 3, 8, 14, 111, 181, 120, 195, 195, 120, 2, 0.685018
140, 3, wb, filler, NA, 999, 999, 8, 15, 164, 115, 139, 124, 168, 99, 3, 1.85548
140, 3, wb, filler, NA, 999, 999, 8, 15, 164, 115, 139, 124, 168, 99, 2, 0.899652
140, 3, wb, attraction, a-b-db, 5, 2, 8, 16, 165, 90, 88, 161, 90, 165, 2, 1.5653
140, 3, wb, attraction, a-b-db, 5, 2, 8, 16, 165, 90, 88, 161, 90, 165, 1, 0.973505
140, 3, wb, attraction, a-b-da, 14, 2, 8, 17, 165, 90, 153, 83, 90, 165, 2, 0.88376
140, 3, wb, attraction, a-b-da, 14, 2, 8, 17, 165, 90, 153, 83, 90, 165, 1, 0.663401
140, 3, wb, filler, NA, 999, 999, 8, 18, 64, 195, 166, 138, 99, 186, 1, 0.634517
140, 3, wb, filler, NA, 999, 999, 8, 18, 64, 195, 166, 138, 99, 186, 2, 0.664231
140, 3, wb, filler, NA, 999, 999, 8, 19, 193, 114, 80, 188, 123, 148, 2, 2.75525
140, 3, wb, filler, NA, 999, 999, 8, 19, 193, 114, 80, 188, 123, 148, 1, 0.619117
140, 3, wb, attraction, a-b-db, 5, 3, 8, 20, 195, 120, 117, 190, 120, 195, 2, 4.12814
140, 3, wb, attraction, a-b-db, 5, 3, 8, 20, 195, 120, 117, 190, 120, 195, 1, 0.624751
140, 3, wb, attraction, a-b-db, 9, 3, 8, 21, 114, 186, 120, 195, 195, 120, 1, 1.42921
140, 3, wb, attraction, a-b-db, 9, 3, 8, 21, 114, 186, 120, 195, 195, 120, 2, 0.386752
140, 3, wb, attraction, a-b-da, 2, 2, 8, 22, 90, 165, 163, 89, 165, 90, 1, 1.28121
140, 3, wb, attraction, a-b-da, 2, 2, 8, 22, 90, 165, 163, 89, 165, 90, 2, 0.404786
140, 3, wb, attraction, a-b-db, 9, 1, 8, 23, 60, 135, 57, 129, 135, 60, 2, 0.666692
140, 3, wb, attraction, a-b-db, 9, 1, 8, 23, 60, 135, 57, 129, 135, 60, 1, 0.695104
140, 3, wb, filler, NA, 999, 999, 8, 24, 138, 136, 168, 87, 119, 75, 1, 0.984816
140, 3, wb, filler, NA, 999, 999, 8, 24, 138, 136, 168, 87, 119, 75, 2, 0.496469
140, 3, wb, attraction, a-b-da, 5, 2, 8, 25, 161, 88, 165, 90, 90, 165, 2, 1.85836
140, 3, wb, attraction, a-b-da, 5, 2, 8, 25, 161, 88, 165, 90, 90, 165, 1, 0.518243
140, 3, wb, attraction, a-b-db, 9, 2, 8, 26, 90, 165, 86, 157, 165, 90, 1, 0.767354
140, 3, wb, attraction, a-b-db, 9, 2, 8, 26, 90, 165, 86, 157, 165, 90, 2, 0.543943
140, 3, wb, filler, NA, 999, 999, 8, 27, 171, 72, 91, 77, 161, 185, 2, 0.959601
140, 3, wb, filler, NA, 999, 999, 8, 27, 171, 72, 91, 77, 161, 185, 1, 0.560022
140, 3, wb, attraction, a-b-da, 9, 1, 8, 28, 135, 60, 129, 57, 60, 135, 1, 1.42302
140, 3, wb, attraction, a-b-da, 9, 1, 8, 28, 135, 60, 129, 57, 60, 135, 2, 0.652584
140, 3, wb, attraction, a-b-da, 2, 3, 8, 29, 195, 120, 193, 119, 120, 195, 1, 0.80028
140, 3, wb, attraction, a-b-da, 2, 3, 8, 29, 195, 120, 193, 119, 120, 195, 2, 0.647448
140, 3, wb, attraction, a-b-da, 2, 1, 8, 30, 135, 60, 134, 59, 60, 135, 1, 0.699049
140, 3, wb, attraction, a-b-da, 2, 1, 8, 30, 135, 60, 134, 59, 60, 135, 2, 0.69425
140, 3, wb, attraction, a-b-db, 2, 1, 8, 31, 59, 134, 60, 135, 135, 60, 1, 0.951985
140, 3, wb, attraction, a-b-db, 2, 1, 8, 31, 59, 134, 60, 135, 135, 60, 2, 0.72086
140, 3, wb, attraction, a-b-da, 9, 2, 8, 32, 90, 165, 165, 90, 157, 86, 1, 1.41004
140, 3, wb, attraction, a-b-da, 9, 2, 8, 32, 90, 165, 165, 90, 157, 86, 2, 0.328243
140, 3, wb, filler, NA, 999, 999, 8, 33, 94, 89, 78, 106, 179, 149, 2, 1.19265
140, 3, wb, filler, NA, 999, 999, 8, 33, 94, 89, 78, 106, 179, 149, 3, 0.479682
140, 3, wb, catch, NA, 999, 999, 8, 34, 82, 113, 122, 133, 129, 186, 1, 0.78606
140, 3, wb, catch, NA, 999, 999, 8, 34, 82, 113, 122, 133, 129, 186, 3, 1.16188
140, 3, wb, filler, NA, 999, 999, 8, 35, 118, 137, 130, 102, 66, 158, 2, 2.28872
140, 3, wb, filler, NA, 999, 999, 8, 35, 118, 137, 130, 102, 66, 158, 1, 0.691237
140, 3, wb, attraction, a-b-da, 5, 3, 8, 36, 120, 195, 190, 117, 195, 120, 1, 0.764951
140, 3, wb, attraction, a-b-da, 5, 3, 8, 36, 120, 195, 190, 117, 195, 120, 2, 0.885424
140, 3, wb, attraction, a-b-db, 14, 1, 8, 37, 56, 125, 60, 135, 135, 60, 1, 9.79174
140, 3, wb, attraction, a-b-db, 14, 1, 8, 37, 56, 125, 60, 135, 135, 60, 2, 0.60394
