sub_n, computer_n, bw_cond, effect, set, distance, diag, block_n, trial_n, h1, w1, h2, w2, h3, w3, choice, rt 
262, 3, wb, practice, NA, 999, 999, 0, 1, 183, 84, 94, 132, 91, 145, 2, 7.79906
262, 3, wb, practice, NA, 999, 999, 0, 1, 183, 84, 94, 132, 91, 145, 1, 1.84591
262, 3, wb, practice, NA, 999, 999, 0, 2, 75, 133, 66, 142, 108, 180, 2, 3.26308
262, 3, wb, practice, NA, 999, 999, 0, 2, 75, 133, 66, 142, 108, 180, 3, 0.76053
262, 3, wb, practice, NA, 999, 999, 0, 3, 67, 57, 83, 195, 188, 79, 1, 1.66789
262, 3, wb, practice, NA, 999, 999, 0, 3, 67, 57, 83, 195, 188, 79, 2, 6.75176
262, 3, wb, attraction, a-b-da, 9, 2, 1, 1, 90, 165, 157, 86, 165, 90, 2, 2.90595
262, 3, wb, attraction, a-b-da, 9, 2, 1, 1, 90, 165, 157, 86, 165, 90, 1, 1.42749
262, 3, wb, attraction, a-b-db, 9, 3, 1, 2, 114, 186, 195, 120, 120, 195, 2, 3.04768
262, 3, wb, attraction, a-b-db, 9, 3, 1, 2, 114, 186, 195, 120, 120, 195, 3, 0.708061
262, 3, wb, filler, NA, 999, 999, 1, 3, 120, 93, 115, 150, 159, 132, 1, 1.18125
262, 3, wb, filler, NA, 999, 999, 1, 3, 120, 93, 115, 150, 159, 132, 3, 0.780788
262, 3, wb, filler, NA, 999, 999, 1, 4, 144, 152, 112, 143, 194, 82, 2, 2.97124
262, 3, wb, filler, NA, 999, 999, 1, 4, 144, 152, 112, 143, 194, 82, 1, 0.754055
262, 3, wb, attraction, a-b-da, 14, 3, 1, 5, 181, 111, 120, 195, 195, 120, 1, 2.55394
262, 3, wb, attraction, a-b-da, 14, 3, 1, 5, 181, 111, 120, 195, 195, 120, 2, 0.682305
262, 3, wb, filler, NA, 999, 999, 1, 6, 89, 162, 114, 116, 71, 127, 3, 1.10077
262, 3, wb, filler, NA, 999, 999, 1, 6, 89, 162, 114, 116, 71, 127, 1, 1.00777
262, 3, wb, filler, NA, 999, 999, 1, 7, 165, 151, 62, 91, 99, 193, 2, 0.780744
262, 3, wb, filler, NA, 999, 999, 1, 7, 165, 151, 62, 91, 99, 193, 1, 1.10037
262, 3, wb, attraction, a-b-db, 14, 1, 1, 8, 135, 60, 60, 135, 56, 125, 3, 2.95006
262, 3, wb, attraction, a-b-db, 14, 1, 1, 8, 135, 60, 60, 135, 56, 125, 2, 1.93429
262, 3, wb, catch, NA, 999, 999, 1, 9, 165, 150, 155, 100, 113, 82, 3, 0.942301
262, 3, wb, catch, NA, 999, 999, 1, 9, 165, 150, 155, 100, 113, 82, 1, 0.703352
262, 3, wb, filler, NA, 999, 999, 1, 10, 163, 110, 99, 100, 187, 124, 2, 2.53708
262, 3, wb, filler, NA, 999, 999, 1, 10, 163, 110, 99, 100, 187, 124, 3, 0.386326
262, 3, wb, attraction, a-b-da, 2, 3, 1, 11, 193, 119, 120, 195, 195, 120, 1, 4.94474
262, 3, wb, attraction, a-b-da, 2, 3, 1, 11, 193, 119, 120, 195, 195, 120, 2, 1.40056
262, 3, wb, attraction, a-b-db, 9, 1, 1, 12, 57, 129, 60, 135, 135, 60, 1, 2.21402
262, 3, wb, attraction, a-b-db, 9, 1, 1, 12, 57, 129, 60, 135, 135, 60, 3, 1.51605
262, 3, wb, attraction, a-b-da, 9, 1, 1, 13, 135, 60, 60, 135, 129, 57, 1, 0.9968
262, 3, wb, attraction, a-b-da, 9, 1, 1, 13, 135, 60, 60, 135, 129, 57, 2, 0.915773
262, 3, wb, attraction, a-b-da, 5, 1, 1, 14, 135, 60, 60, 135, 132, 58, 3, 1.46072
262, 3, wb, attraction, a-b-da, 5, 1, 1, 14, 135, 60, 60, 135, 132, 58, 1, 0.632871
262, 3, wb, attraction, a-b-da, 5, 2, 1, 15, 90, 165, 161, 88, 165, 90, 2, 1.50144
262, 3, wb, attraction, a-b-da, 5, 2, 1, 15, 90, 165, 161, 88, 165, 90, 3, 1.10435
262, 3, wb, attraction, a-b-da, 5, 3, 1, 16, 120, 195, 190, 117, 195, 120, 1, 1.67379
262, 3, wb, attraction, a-b-da, 5, 3, 1, 16, 120, 195, 190, 117, 195, 120, 3, 0.549286
262, 3, wb, attraction, a-b-da, 2, 2, 1, 17, 90, 165, 163, 89, 165, 90, 1, 0.964967
262, 3, wb, attraction, a-b-da, 2, 2, 1, 17, 90, 165, 163, 89, 165, 90, 3, 0.557319
262, 3, wb, catch, NA, 999, 999, 1, 18, 152, 163, 128, 127, 131, 64, 3, 1.06847
262, 3, wb, catch, NA, 999, 999, 1, 18, 152, 163, 128, 127, 131, 64, 1, 0.912712
262, 3, wb, attraction, a-b-db, 14, 3, 1, 19, 120, 195, 195, 120, 111, 181, 3, 2.2978
262, 3, wb, attraction, a-b-db, 14, 3, 1, 19, 120, 195, 195, 120, 111, 181, 2, 0.540396
262, 3, wb, attraction, a-b-db, 9, 2, 1, 20, 86, 157, 165, 90, 90, 165, 1, 1.63602
262, 3, wb, attraction, a-b-db, 9, 2, 1, 20, 86, 157, 165, 90, 90, 165, 3, 0.889576
262, 3, wb, attraction, a-b-db, 2, 1, 1, 21, 59, 134, 135, 60, 60, 135, 1, 1.07582
262, 3, wb, attraction, a-b-db, 2, 1, 1, 21, 59, 134, 135, 60, 60, 135, 2, 1.47164
262, 3, wb, catch, NA, 999, 999, 1, 22, 108, 147, 108, 87, 181, 134, 2, 1.31439
262, 3, wb, catch, NA, 999, 999, 1, 22, 108, 147, 108, 87, 181, 134, 3, 0.356677
262, 3, wb, filler, NA, 999, 999, 1, 23, 178, 171, 89, 150, 70, 148, 3, 1.07575
262, 3, wb, filler, NA, 999, 999, 1, 23, 178, 171, 89, 150, 70, 148, 1, 0.327333
262, 3, wb, attraction, a-b-db, 5, 3, 1, 24, 120, 195, 117, 190, 195, 120, 1, 2.19989
262, 3, wb, attraction, a-b-db, 5, 3, 1, 24, 120, 195, 117, 190, 195, 120, 3, 0.44653
262, 3, wb, attraction, a-b-da, 14, 2, 1, 25, 153, 83, 165, 90, 90, 165, 1, 0.89823
262, 3, wb, attraction, a-b-da, 14, 2, 1, 25, 153, 83, 165, 90, 90, 165, 2, 0.533291
262, 3, wb, attraction, a-b-db, 5, 1, 1, 26, 135, 60, 58, 132, 60, 135, 1, 0.837768
262, 3, wb, attraction, a-b-db, 5, 1, 1, 26, 135, 60, 58, 132, 60, 135, 3, 0.610823
262, 3, wb, filler, NA, 999, 999, 1, 27, 94, 75, 84, 71, 162, 178, 1, 0.855844
262, 3, wb, filler, NA, 999, 999, 1, 27, 94, 75, 84, 71, 162, 178, 3, 0.452258
262, 3, wb, attraction, a-b-db, 14, 2, 1, 28, 90, 165, 165, 90, 83, 153, 3, 1.37605
262, 3, wb, attraction, a-b-db, 14, 2, 1, 28, 90, 165, 165, 90, 83, 153, 1, 0.487617
262, 3, wb, filler, NA, 999, 999, 1, 29, 131, 179, 115, 141, 143, 124, 3, 1.82603
262, 3, wb, filler, NA, 999, 999, 1, 29, 131, 179, 115, 141, 143, 124, 1, 0.399467
262, 3, wb, attraction, a-b-da, 14, 1, 1, 30, 125, 56, 135, 60, 60, 135, 1, 0.885285
262, 3, wb, attraction, a-b-da, 14, 1, 1, 30, 125, 56, 135, 60, 60, 135, 3, 0.761104
262, 3, wb, filler, NA, 999, 999, 1, 31, 58, 151, 138, 109, 195, 71, 1, 0.576006
262, 3, wb, filler, NA, 999, 999, 1, 31, 58, 151, 138, 109, 195, 71, 2, 0.471981
262, 3, wb, attraction, a-b-db, 2, 2, 1, 32, 90, 165, 165, 90, 89, 163, 1, 0.739005
262, 3, wb, attraction, a-b-db, 2, 2, 1, 32, 90, 165, 165, 90, 89, 163, 2, 0.548251
262, 3, wb, attraction, a-b-da, 9, 3, 1, 33, 120, 195, 195, 120, 186, 114, 3, 0.65985
262, 3, wb, attraction, a-b-da, 9, 3, 1, 33, 120, 195, 195, 120, 186, 114, 1, 0.608227
262, 3, wb, attraction, a-b-db, 2, 3, 1, 34, 195, 120, 120, 195, 119, 193, 2, 1.35724
262, 3, wb, attraction, a-b-db, 2, 3, 1, 34, 195, 120, 120, 195, 119, 193, 1, 0.493529
262, 3, wb, filler, NA, 999, 999, 1, 35, 93, 182, 109, 143, 63, 193, 3, 1.19131
262, 3, wb, filler, NA, 999, 999, 1, 35, 93, 182, 109, 143, 63, 193, 1, 0.438233
262, 3, wb, attraction, a-b-db, 5, 2, 1, 36, 165, 90, 88, 161, 90, 165, 1, 0.770692
262, 3, wb, attraction, a-b-db, 5, 2, 1, 36, 165, 90, 88, 161, 90, 165, 2, 0.435095
262, 3, wb, attraction, a-b-da, 2, 1, 1, 37, 60, 135, 135, 60, 134, 59, 1, 0.65561
262, 3, wb, attraction, a-b-da, 2, 1, 1, 37, 60, 135, 135, 60, 134, 59, 2, 0.476128
262, 3, wb, attraction, a-b-db, 9, 1, 2, 1, 57, 129, 135, 60, 60, 135, 3, 1.24654
262, 3, wb, attraction, a-b-db, 9, 1, 2, 1, 57, 129, 135, 60, 60, 135, 1, 0.739395
262, 3, wb, attraction, a-b-db, 5, 3, 2, 2, 195, 120, 120, 195, 117, 190, 3, 1.14775
262, 3, wb, attraction, a-b-db, 5, 3, 2, 2, 195, 120, 120, 195, 117, 190, 2, 0.724909
262, 3, wb, attraction, a-b-db, 9, 3, 2, 3, 120, 195, 114, 186, 195, 120, 2, 4.56502
262, 3, wb, attraction, a-b-db, 9, 3, 2, 3, 120, 195, 114, 186, 195, 120, 1, 1.46824
262, 3, wb, filler, NA, 999, 999, 2, 4, 160, 136, 88, 173, 78, 179, 3, 0.759131
262, 3, wb, filler, NA, 999, 999, 2, 4, 160, 136, 88, 173, 78, 179, 1, 0.559654
262, 3, wb, attraction, a-b-db, 14, 1, 2, 5, 56, 125, 135, 60, 60, 135, 2, 1.86277
262, 3, wb, attraction, a-b-db, 14, 1, 2, 5, 56, 125, 135, 60, 60, 135, 3, 1.16277
262, 3, wb, attraction, a-b-db, 5, 2, 2, 6, 165, 90, 88, 161, 90, 165, 1, 1.54553
262, 3, wb, attraction, a-b-db, 5, 2, 2, 6, 165, 90, 88, 161, 90, 165, 3, 0.586505
262, 3, wb, attraction, a-b-da, 5, 3, 2, 7, 120, 195, 190, 117, 195, 120, 3, 1.64089
262, 3, wb, attraction, a-b-da, 5, 3, 2, 7, 120, 195, 190, 117, 195, 120, 2, 0.389632
262, 3, wb, filler, NA, 999, 999, 2, 8, 144, 132, 65, 191, 122, 61, 3, 0.748292
262, 3, wb, filler, NA, 999, 999, 2, 8, 144, 132, 65, 191, 122, 61, 1, 0.693159
262, 3, wb, attraction, a-b-da, 9, 3, 2, 9, 186, 114, 195, 120, 120, 195, 1, 1.111
262, 3, wb, attraction, a-b-da, 9, 3, 2, 9, 186, 114, 195, 120, 120, 195, 2, 0.489188
262, 3, wb, attraction, a-b-da, 2, 2, 2, 10, 165, 90, 90, 165, 163, 89, 1, 0.939637
262, 3, wb, attraction, a-b-da, 2, 2, 2, 10, 165, 90, 90, 165, 163, 89, 3, 2.38082
262, 3, wb, attraction, a-b-da, 9, 1, 2, 11, 60, 135, 135, 60, 129, 57, 3, 1.5065
262, 3, wb, attraction, a-b-da, 9, 1, 2, 11, 60, 135, 135, 60, 129, 57, 1, 0.42877
262, 3, wb, attraction, a-b-da, 2, 1, 2, 12, 134, 59, 60, 135, 135, 60, 1, 1.07317
262, 3, wb, attraction, a-b-da, 2, 1, 2, 12, 134, 59, 60, 135, 135, 60, 2, 0.684901
262, 3, wb, attraction, a-b-da, 14, 2, 2, 13, 153, 83, 90, 165, 165, 90, 1, 1.12726
262, 3, wb, attraction, a-b-da, 14, 2, 2, 13, 153, 83, 90, 165, 165, 90, 3, 0.600851
262, 3, wb, filler, NA, 999, 999, 2, 14, 135, 112, 111, 183, 164, 137, 1, 1.04655
262, 3, wb, filler, NA, 999, 999, 2, 14, 135, 112, 111, 183, 164, 137, 2, 0.30752
262, 3, wb, filler, NA, 999, 999, 2, 15, 107, 155, 105, 80, 57, 166, 3, 1.02877
262, 3, wb, filler, NA, 999, 999, 2, 15, 107, 155, 105, 80, 57, 166, 1, 0.602388
262, 3, wb, filler, NA, 999, 999, 2, 16, 153, 172, 101, 90, 115, 58, 3, 0.776112
262, 3, wb, filler, NA, 999, 999, 2, 16, 153, 172, 101, 90, 115, 58, 1, 0.528022
262, 3, wb, attraction, a-b-da, 2, 3, 2, 17, 193, 119, 195, 120, 120, 195, 3, 1.03235
262, 3, wb, attraction, a-b-da, 2, 3, 2, 17, 193, 119, 195, 120, 120, 195, 1, 0.653913
262, 3, wb, filler, NA, 999, 999, 2, 18, 97, 187, 110, 171, 56, 126, 3, 0.64988
262, 3, wb, filler, NA, 999, 999, 2, 18, 97, 187, 110, 171, 56, 126, 2, 0.43091
262, 3, wb, attraction, a-b-db, 2, 1, 2, 19, 135, 60, 59, 134, 60, 135, 1, 0.979437
262, 3, wb, attraction, a-b-db, 2, 1, 2, 19, 135, 60, 59, 134, 60, 135, 3, 0.570957
262, 3, wb, filler, NA, 999, 999, 2, 20, 150, 149, 139, 172, 67, 161, 3, 0.77011
262, 3, wb, filler, NA, 999, 999, 2, 20, 150, 149, 139, 172, 67, 161, 2, 0.290521
262, 3, wb, attraction, a-b-db, 2, 3, 2, 21, 120, 195, 119, 193, 195, 120, 1, 0.772472
262, 3, wb, attraction, a-b-db, 2, 3, 2, 21, 120, 195, 119, 193, 195, 120, 3, 0.668047
262, 3, wb, attraction, a-b-db, 14, 2, 2, 22, 165, 90, 90, 165, 83, 153, 3, 1.07112
262, 3, wb, attraction, a-b-db, 14, 2, 2, 22, 165, 90, 90, 165, 83, 153, 2, 0.715493
262, 3, wb, attraction, a-b-da, 5, 2, 2, 23, 161, 88, 165, 90, 90, 165, 1, 0.996557
262, 3, wb, attraction, a-b-da, 5, 2, 2, 23, 161, 88, 165, 90, 90, 165, 2, 0.731504
262, 3, wb, attraction, a-b-db, 14, 3, 2, 24, 120, 195, 111, 181, 195, 120, 1, 1.68377
262, 3, wb, attraction, a-b-db, 14, 3, 2, 24, 120, 195, 111, 181, 195, 120, 3, 0.487335
262, 3, wb, catch, NA, 999, 999, 2, 25, 137, 178, 114, 81, 113, 142, 2, 0.865811
262, 3, wb, catch, NA, 999, 999, 2, 25, 137, 178, 114, 81, 113, 142, 1, 0.318057
262, 3, wb, attraction, a-b-da, 14, 3, 2, 26, 181, 111, 195, 120, 120, 195, 1, 0.711238
262, 3, wb, attraction, a-b-da, 14, 3, 2, 26, 181, 111, 195, 120, 120, 195, 3, 0.657781
262, 3, wb, attraction, a-b-db, 9, 2, 2, 27, 86, 157, 165, 90, 90, 165, 1, 0.508733
262, 3, wb, attraction, a-b-db, 9, 2, 2, 27, 86, 157, 165, 90, 90, 165, 3, 0.543329
262, 3, wb, catch, NA, 999, 999, 2, 28, 159, 96, 95, 100, 143, 172, 2, 1.25512
262, 3, wb, catch, NA, 999, 999, 2, 28, 159, 96, 95, 100, 143, 172, 3, 0.31539
262, 3, wb, filler, NA, 999, 999, 2, 29, 178, 192, 64, 173, 131, 67, 3, 0.836437
262, 3, wb, filler, NA, 999, 999, 2, 29, 178, 192, 64, 173, 131, 67, 1, 0.322254
262, 3, wb, attraction, a-b-da, 5, 1, 2, 30, 132, 58, 60, 135, 135, 60, 1, 0.771252
262, 3, wb, attraction, a-b-da, 5, 1, 2, 30, 132, 58, 60, 135, 135, 60, 2, 0.26726
262, 3, wb, attraction, a-b-db, 5, 1, 2, 31, 58, 132, 135, 60, 60, 135, 1, 0.662186
262, 3, wb, attraction, a-b-db, 5, 1, 2, 31, 58, 132, 135, 60, 60, 135, 3, 0.386786
262, 3, wb, attraction, a-b-db, 2, 2, 2, 32, 90, 165, 165, 90, 89, 163, 2, 1.93724
262, 3, wb, attraction, a-b-db, 2, 2, 2, 32, 90, 165, 165, 90, 89, 163, 1, 0.522624
262, 3, wb, attraction, a-b-da, 14, 1, 2, 33, 60, 135, 125, 56, 135, 60, 2, 1.05165
262, 3, wb, attraction, a-b-da, 14, 1, 2, 33, 60, 135, 125, 56, 135, 60, 1, 0.344722
262, 3, wb, filler, NA, 999, 999, 2, 34, 109, 171, 96, 124, 60, 145, 3, 0.84069
262, 3, wb, filler, NA, 999, 999, 2, 34, 109, 171, 96, 124, 60, 145, 1, 0.517545
262, 3, wb, filler, NA, 999, 999, 2, 35, 102, 172, 89, 116, 183, 154, 1, 0.814706
262, 3, wb, filler, NA, 999, 999, 2, 35, 102, 172, 89, 116, 183, 154, 3, 0.30104
262, 3, wb, attraction, a-b-da, 9, 2, 2, 36, 157, 86, 90, 165, 165, 90, 1, 0.726979
262, 3, wb, attraction, a-b-da, 9, 2, 2, 36, 157, 86, 90, 165, 165, 90, 2, 0.272669
262, 3, wb, catch, NA, 999, 999, 2, 37, 183, 132, 125, 130, 85, 110, 3, 0.763786
262, 3, wb, catch, NA, 999, 999, 2, 37, 183, 132, 125, 130, 85, 110, 2, 0.284253
262, 3, wb, filler, NA, 999, 999, 3, 1, 160, 74, 89, 61, 79, 155, 2, 0.814696
262, 3, wb, filler, NA, 999, 999, 3, 1, 160, 74, 89, 61, 79, 155, 1, 1.02125
262, 3, wb, attraction, a-b-db, 14, 2, 3, 2, 165, 90, 83, 153, 90, 165, 2, 1.00206
262, 3, wb, attraction, a-b-db, 14, 2, 3, 2, 165, 90, 83, 153, 90, 165, 3, 0.313099
262, 3, wb, attraction, a-b-da, 14, 2, 3, 3, 153, 83, 165, 90, 90, 165, 2, 0.762176
262, 3, wb, attraction, a-b-da, 14, 2, 3, 3, 153, 83, 165, 90, 90, 165, 3, 0.562581
262, 3, wb, attraction, a-b-db, 5, 2, 3, 4, 90, 165, 88, 161, 165, 90, 3, 1.55375
262, 3, wb, attraction, a-b-db, 5, 2, 3, 4, 90, 165, 88, 161, 165, 90, 2, 0.386577
262, 3, wb, attraction, a-b-db, 9, 3, 3, 5, 195, 120, 114, 186, 120, 195, 1, 1.2571
262, 3, wb, attraction, a-b-db, 9, 3, 3, 5, 195, 120, 114, 186, 120, 195, 2, 0.533322
262, 3, wb, attraction, a-b-db, 14, 3, 3, 6, 195, 120, 111, 181, 120, 195, 1, 0.885737
262, 3, wb, attraction, a-b-db, 14, 3, 3, 6, 195, 120, 111, 181, 120, 195, 3, 0.305474
262, 3, wb, filler, NA, 999, 999, 3, 7, 183, 139, 180, 170, 117, 141, 3, 0.707662
262, 3, wb, filler, NA, 999, 999, 3, 7, 183, 139, 180, 170, 117, 141, 2, 0.445844
262, 3, wb, attraction, a-b-db, 5, 3, 3, 8, 120, 195, 117, 190, 195, 120, 2, 0.937465
262, 3, wb, attraction, a-b-db, 5, 3, 3, 8, 120, 195, 117, 190, 195, 120, 3, 3.58664
262, 3, wb, attraction, a-b-db, 9, 1, 3, 9, 135, 60, 60, 135, 57, 129, 3, 0.840076
262, 3, wb, attraction, a-b-db, 9, 1, 3, 9, 135, 60, 60, 135, 57, 129, 1, 0.765065
262, 3, wb, attraction, a-b-da, 14, 3, 3, 10, 195, 120, 181, 111, 120, 195, 1, 0.732067
262, 3, wb, attraction, a-b-da, 14, 3, 3, 10, 195, 120, 181, 111, 120, 195, 2, 0.341937
262, 3, wb, attraction, a-b-db, 2, 1, 3, 11, 60, 135, 135, 60, 59, 134, 2, 2.51763
262, 3, wb, attraction, a-b-db, 2, 1, 3, 11, 60, 135, 135, 60, 59, 134, 3, 0.367503
262, 3, wb, attraction, a-b-da, 5, 1, 3, 12, 135, 60, 60, 135, 132, 58, 3, 0.782643
262, 3, wb, attraction, a-b-da, 5, 1, 3, 12, 135, 60, 60, 135, 132, 58, 2, 0.982423
262, 3, wb, attraction, a-b-da, 9, 2, 3, 13, 165, 90, 157, 86, 90, 165, 3, 0.812705
262, 3, wb, attraction, a-b-da, 9, 2, 3, 13, 165, 90, 157, 86, 90, 165, 2, 0.299061
262, 3, wb, attraction, a-b-da, 2, 2, 3, 14, 163, 89, 90, 165, 165, 90, 3, 0.581028
262, 3, wb, attraction, a-b-da, 2, 2, 3, 14, 163, 89, 90, 165, 165, 90, 2, 0.380688
262, 3, wb, catch, NA, 999, 999, 3, 15, 97, 98, 129, 126, 166, 149, 1, 0.611238
262, 3, wb, catch, NA, 999, 999, 3, 15, 97, 98, 129, 126, 166, 149, 3, 1.1297
262, 3, wb, attraction, a-b-db, 2, 3, 3, 16, 195, 120, 119, 193, 120, 195, 3, 1.08201
262, 3, wb, attraction, a-b-db, 2, 3, 3, 16, 195, 120, 119, 193, 120, 195, 2, 0.909581
262, 3, wb, filler, NA, 999, 999, 3, 17, 126, 148, 181, 120, 61, 128, 3, 1.52665
262, 3, wb, filler, NA, 999, 999, 3, 17, 126, 148, 181, 120, 61, 128, 2, 0.328147
262, 3, wb, attraction, a-b-db, 2, 2, 3, 18, 165, 90, 90, 165, 89, 163, 1, 1.00866
262, 3, wb, attraction, a-b-db, 2, 2, 3, 18, 165, 90, 90, 165, 89, 163, 2, 0.48696
262, 3, wb, filler, NA, 999, 999, 3, 19, 85, 126, 162, 89, 139, 186, 1, 0.993411
262, 3, wb, filler, NA, 999, 999, 3, 19, 85, 126, 162, 89, 139, 186, 3, 0.616312
262, 3, wb, attraction, a-b-da, 5, 2, 3, 20, 90, 165, 165, 90, 161, 88, 3, 0.877479
262, 3, wb, attraction, a-b-da, 5, 2, 3, 20, 90, 165, 165, 90, 161, 88, 1, 0.449248
262, 3, wb, attraction, a-b-db, 14, 1, 3, 21, 135, 60, 60, 135, 56, 125, 3, 0.789053
262, 3, wb, attraction, a-b-db, 14, 1, 3, 21, 135, 60, 60, 135, 56, 125, 2, 0.347979
262, 3, wb, attraction, a-b-da, 9, 3, 3, 22, 120, 195, 195, 120, 186, 114, 3, 0.979902
262, 3, wb, attraction, a-b-da, 9, 3, 3, 22, 120, 195, 195, 120, 186, 114, 2, 0.259504
262, 3, wb, attraction, a-b-da, 2, 3, 3, 23, 120, 195, 193, 119, 195, 120, 3, 1.29465
262, 3, wb, attraction, a-b-da, 2, 3, 3, 23, 120, 195, 193, 119, 195, 120, 1, 0.265582
262, 3, wb, catch, NA, 999, 999, 3, 24, 105, 150, 193, 122, 115, 80, 3, 0.628804
262, 3, wb, catch, NA, 999, 999, 3, 24, 105, 150, 193, 122, 115, 80, 2, 0.31508
262, 3, wb, catch, NA, 999, 999, 3, 25, 87, 108, 151, 164, 159, 96, 1, 0.691835
262, 3, wb, catch, NA, 999, 999, 3, 25, 87, 108, 151, 164, 159, 96, 2, 0.430727
262, 3, wb, attraction, a-b-da, 2, 1, 3, 26, 135, 60, 134, 59, 60, 135, 3, 0.891304
262, 3, wb, attraction, a-b-da, 2, 1, 3, 26, 135, 60, 134, 59, 60, 135, 1, 0.390284
262, 3, wb, attraction, a-b-da, 14, 1, 3, 27, 125, 56, 135, 60, 60, 135, 2, 0.796119
262, 3, wb, attraction, a-b-da, 14, 1, 3, 27, 125, 56, 135, 60, 60, 135, 3, 0.403105
262, 3, wb, attraction, a-b-da, 9, 1, 3, 28, 135, 60, 60, 135, 129, 57, 2, 0.833072
262, 3, wb, attraction, a-b-da, 9, 1, 3, 28, 135, 60, 60, 135, 129, 57, 1, 0.502837
262, 3, wb, filler, NA, 999, 999, 3, 29, 134, 65, 69, 138, 144, 193, 2, 0.464473
262, 3, wb, filler, NA, 999, 999, 3, 29, 134, 65, 69, 138, 144, 193, 3, 0.405077
262, 3, wb, filler, NA, 999, 999, 3, 30, 165, 88, 171, 152, 190, 112, 1, 1.41086
262, 3, wb, filler, NA, 999, 999, 3, 30, 165, 88, 171, 152, 190, 112, 2, 0.521059
262, 3, wb, filler, NA, 999, 999, 3, 31, 168, 147, 120, 114, 158, 149, 2, 0.594228
262, 3, wb, filler, NA, 999, 999, 3, 31, 168, 147, 120, 114, 158, 149, 3, 1.01728
262, 3, wb, filler, NA, 999, 999, 3, 32, 156, 159, 126, 178, 174, 149, 2, 0.534694
262, 3, wb, filler, NA, 999, 999, 3, 32, 156, 159, 126, 178, 174, 149, 3, 0.359961
262, 3, wb, attraction, a-b-db, 5, 1, 3, 33, 60, 135, 135, 60, 58, 132, 3, 0.791162
262, 3, wb, attraction, a-b-db, 5, 1, 3, 33, 60, 135, 135, 60, 58, 132, 2, 0.254172
262, 3, wb, attraction, a-b-da, 5, 3, 3, 34, 120, 195, 195, 120, 190, 117, 3, 1.05024
262, 3, wb, attraction, a-b-da, 5, 3, 3, 34, 120, 195, 195, 120, 190, 117, 2, 0.263058
262, 3, wb, filler, NA, 999, 999, 3, 35, 139, 132, 135, 89, 130, 169, 2, 0.874256
262, 3, wb, filler, NA, 999, 999, 3, 35, 139, 132, 135, 89, 130, 169, 3, 0.49394
262, 3, wb, attraction, a-b-db, 9, 2, 3, 36, 165, 90, 90, 165, 86, 157, 3, 0.783743
262, 3, wb, attraction, a-b-db, 9, 2, 3, 36, 165, 90, 90, 165, 86, 157, 2, 0.583457
262, 3, wb, filler, NA, 999, 999, 3, 37, 183, 123, 81, 83, 177, 125, 2, 0.533921
262, 3, wb, filler, NA, 999, 999, 3, 37, 183, 123, 81, 83, 177, 125, 1, 0.423684
262, 3, wb, attraction, a-b-da, 14, 2, 4, 1, 165, 90, 90, 165, 153, 83, 2, 0.54818
262, 3, wb, attraction, a-b-da, 14, 2, 4, 1, 165, 90, 90, 165, 153, 83, 3, 0.469383
262, 3, wb, attraction, a-b-db, 9, 2, 4, 2, 90, 165, 165, 90, 86, 157, 3, 0.680486
262, 3, wb, attraction, a-b-db, 9, 2, 4, 2, 90, 165, 165, 90, 86, 157, 2, 0.260214
262, 3, wb, attraction, a-b-da, 2, 3, 4, 3, 120, 195, 195, 120, 193, 119, 2, 0.479438
262, 3, wb, attraction, a-b-da, 2, 3, 4, 3, 120, 195, 195, 120, 193, 119, 3, 0.4512
262, 3, wb, attraction, a-b-da, 14, 3, 4, 4, 195, 120, 120, 195, 181, 111, 3, 0.687112
262, 3, wb, attraction, a-b-da, 14, 3, 4, 4, 195, 120, 120, 195, 181, 111, 2, 0.290731
262, 3, wb, attraction, a-b-db, 5, 1, 4, 5, 58, 132, 135, 60, 60, 135, 3, 0.484724
262, 3, wb, attraction, a-b-db, 5, 1, 4, 5, 58, 132, 135, 60, 60, 135, 1, 0.336438
262, 3, wb, attraction, a-b-da, 9, 1, 4, 6, 135, 60, 129, 57, 60, 135, 1, 1.23301
262, 3, wb, attraction, a-b-da, 9, 1, 4, 6, 135, 60, 129, 57, 60, 135, 3, 0.614583
262, 3, wb, attraction, a-b-da, 5, 2, 4, 7, 90, 165, 165, 90, 161, 88, 3, 0.451768
262, 3, wb, attraction, a-b-da, 5, 2, 4, 7, 90, 165, 165, 90, 161, 88, 2, 0.272859
262, 3, wb, filler, NA, 999, 999, 4, 8, 103, 182, 147, 116, 87, 192, 3, 0.428088
262, 3, wb, filler, NA, 999, 999, 4, 8, 103, 182, 147, 116, 87, 192, 2, 0.273841
262, 3, wb, attraction, a-b-db, 9, 1, 4, 9, 57, 129, 135, 60, 60, 135, 3, 0.308299
262, 3, wb, attraction, a-b-db, 9, 1, 4, 9, 57, 129, 135, 60, 60, 135, 1, 0.42292
262, 3, wb, attraction, a-b-db, 2, 2, 4, 10, 90, 165, 165, 90, 89, 163, 1, 0.500101
262, 3, wb, attraction, a-b-db, 2, 2, 4, 10, 90, 165, 165, 90, 89, 163, 2, 0.495283
262, 3, wb, attraction, a-b-db, 5, 2, 4, 11, 90, 165, 165, 90, 88, 161, 2, 0.328974
262, 3, wb, attraction, a-b-db, 5, 2, 4, 11, 90, 165, 165, 90, 88, 161, 3, 0.306826
262, 3, wb, filler, NA, 999, 999, 4, 12, 116, 135, 58, 195, 180, 146, 2, 0.395988
262, 3, wb, filler, NA, 999, 999, 4, 12, 116, 135, 58, 195, 180, 146, 3, 0.267279
262, 3, wb, filler, NA, 999, 999, 4, 13, 88, 65, 187, 160, 154, 87, 1, 1.01439
262, 3, wb, filler, NA, 999, 999, 4, 13, 88, 65, 187, 160, 154, 87, 2, 0.25274
262, 3, wb, filler, NA, 999, 999, 4, 14, 147, 114, 77, 96, 74, 57, 3, 0.63259
262, 3, wb, filler, NA, 999, 999, 4, 14, 147, 114, 77, 96, 74, 57, 1, 0.55035
262, 3, wb, attraction, a-b-db, 2, 1, 4, 15, 60, 135, 135, 60, 59, 134, 3, 0.454164
262, 3, wb, attraction, a-b-db, 2, 1, 4, 15, 60, 135, 135, 60, 59, 134, 2, 0.364184
262, 3, wb, filler, NA, 999, 999, 4, 16, 127, 166, 98, 61, 120, 100, 3, 1.24243
262, 3, wb, filler, NA, 999, 999, 4, 16, 127, 166, 98, 61, 120, 100, 2, 0.847397
262, 3, wb, attraction, a-b-da, 14, 1, 4, 17, 60, 135, 125, 56, 135, 60, 1, 0.883097
262, 3, wb, attraction, a-b-da, 14, 1, 4, 17, 60, 135, 125, 56, 135, 60, 3, 0.6868
262, 3, wb, catch, NA, 999, 999, 4, 18, 98, 97, 133, 182, 122, 133, 1, 1.33713
262, 3, wb, catch, NA, 999, 999, 4, 18, 98, 97, 133, 182, 122, 133, 2, 0.282731
262, 3, wb, attraction, a-b-db, 14, 2, 4, 19, 90, 165, 165, 90, 83, 153, 2, 0.773277
262, 3, wb, attraction, a-b-db, 14, 2, 4, 19, 90, 165, 165, 90, 83, 153, 1, 0.356888
262, 3, wb, filler, NA, 999, 999, 4, 20, 77, 92, 182, 100, 110, 122, 1, 0.660242
262, 3, wb, filler, NA, 999, 999, 4, 20, 77, 92, 182, 100, 110, 122, 2, 0.376589
262, 3, wb, filler, NA, 999, 999, 4, 21, 132, 86, 99, 179, 154, 164, 1, 0.567028
262, 3, wb, filler, NA, 999, 999, 4, 21, 132, 86, 99, 179, 154, 164, 2, 0.319417
262, 3, wb, filler, NA, 999, 999, 4, 22, 142, 173, 63, 57, 83, 132, 2, 1.17663
262, 3, wb, filler, NA, 999, 999, 4, 22, 142, 173, 63, 57, 83, 132, 1, 0.296279
262, 3, wb, catch, NA, 999, 999, 4, 23, 179, 136, 84, 111, 151, 104, 2, 0.45808
262, 3, wb, catch, NA, 999, 999, 4, 23, 179, 136, 84, 111, 151, 104, 1, 0.278626
262, 3, wb, attraction, a-b-da, 5, 3, 4, 24, 190, 117, 120, 195, 195, 120, 1, 0.761102
262, 3, wb, attraction, a-b-da, 5, 3, 4, 24, 190, 117, 120, 195, 195, 120, 2, 0.274246
262, 3, wb, attraction, a-b-db, 14, 3, 4, 25, 111, 181, 120, 195, 195, 120, 1, 0.580039
262, 3, wb, attraction, a-b-db, 14, 3, 4, 25, 111, 181, 120, 195, 195, 120, 2, 0.283876
262, 3, wb, attraction, a-b-db, 5, 3, 4, 26, 120, 195, 195, 120, 117, 190, 1, 0.382382
262, 3, wb, attraction, a-b-db, 5, 3, 4, 26, 120, 195, 195, 120, 117, 190, 2, 0.598284
262, 3, wb, attraction, a-b-db, 2, 3, 4, 27, 119, 193, 195, 120, 120, 195, 1, 0.428052
262, 3, wb, attraction, a-b-db, 2, 3, 4, 27, 119, 193, 195, 120, 120, 195, 2, 0.34582
262, 3, wb, attraction, a-b-da, 9, 2, 4, 28, 157, 86, 90, 165, 165, 90, 1, 0.51364
262, 3, wb, attraction, a-b-da, 9, 2, 4, 28, 157, 86, 90, 165, 165, 90, 2, 0.612129
262, 3, wb, attraction, a-b-da, 9, 3, 4, 29, 186, 114, 195, 120, 120, 195, 3, 0.409156
262, 3, wb, attraction, a-b-da, 9, 3, 4, 29, 186, 114, 195, 120, 120, 195, 2, 0.375692
262, 3, wb, filler, NA, 999, 999, 4, 30, 125, 147, 152, 144, 123, 113, 3, 0.50228
262, 3, wb, filler, NA, 999, 999, 4, 30, 125, 147, 152, 144, 123, 113, 2, 0.265444
262, 3, wb, attraction, a-b-db, 14, 1, 4, 31, 60, 135, 135, 60, 56, 125, 3, 0.54871
262, 3, wb, attraction, a-b-db, 14, 1, 4, 31, 60, 135, 135, 60, 56, 125, 2, 0.325726
262, 3, wb, attraction, a-b-da, 2, 1, 4, 32, 135, 60, 134, 59, 60, 135, 3, 0.542221
262, 3, wb, attraction, a-b-da, 2, 1, 4, 32, 135, 60, 134, 59, 60, 135, 2, 0.655278
262, 3, wb, catch, NA, 999, 999, 4, 33, 125, 130, 164, 151, 120, 75, 3, 0.619082
262, 3, wb, catch, NA, 999, 999, 4, 33, 125, 130, 164, 151, 120, 75, 2, 0.24949
262, 3, wb, attraction, a-b-da, 5, 1, 4, 34, 135, 60, 60, 135, 132, 58, 3, 0.549561
262, 3, wb, attraction, a-b-da, 5, 1, 4, 34, 135, 60, 60, 135, 132, 58, 2, 0.302567
262, 3, wb, attraction, a-b-db, 9, 3, 4, 35, 120, 195, 114, 186, 195, 120, 3, 0.944357
262, 3, wb, attraction, a-b-db, 9, 3, 4, 35, 120, 195, 114, 186, 195, 120, 2, 0.249339
262, 3, wb, filler, NA, 999, 999, 4, 36, 125, 93, 116, 75, 170, 128, 1, 0.893203
262, 3, wb, filler, NA, 999, 999, 4, 36, 125, 93, 116, 75, 170, 128, 2, 0.400381
262, 3, wb, attraction, a-b-da, 2, 2, 4, 37, 90, 165, 165, 90, 163, 89, 3, 1.69413
262, 3, wb, attraction, a-b-da, 2, 2, 4, 37, 90, 165, 165, 90, 163, 89, 2, 0.312906
262, 3, wb, attraction, a-b-db, 2, 2, 5, 1, 165, 90, 90, 165, 89, 163, 1, 1.84873
262, 3, wb, attraction, a-b-db, 2, 2, 5, 1, 165, 90, 90, 165, 89, 163, 2, 0.293413
262, 3, wb, catch, NA, 999, 999, 5, 2, 144, 171, 127, 68, 107, 148, 2, 0.559235
262, 3, wb, catch, NA, 999, 999, 5, 2, 144, 171, 127, 68, 107, 148, 1, 0.255856
262, 3, wb, attraction, a-b-db, 5, 1, 5, 3, 135, 60, 58, 132, 60, 135, 1, 0.651564
262, 3, wb, attraction, a-b-db, 5, 1, 5, 3, 135, 60, 58, 132, 60, 135, 2, 0.392724
262, 3, wb, attraction, a-b-da, 14, 3, 5, 4, 195, 120, 120, 195, 181, 111, 1, 0.558506
262, 3, wb, attraction, a-b-da, 14, 3, 5, 4, 195, 120, 120, 195, 181, 111, 3, 0.294923
262, 3, wb, filler, NA, 999, 999, 5, 5, 99, 67, 165, 158, 150, 73, 1, 0.704389
262, 3, wb, filler, NA, 999, 999, 5, 5, 99, 67, 165, 158, 150, 73, 2, 0.443413
262, 3, wb, attraction, a-b-db, 14, 2, 5, 6, 83, 153, 165, 90, 90, 165, 1, 0.671074
262, 3, wb, attraction, a-b-db, 14, 2, 5, 6, 83, 153, 165, 90, 90, 165, 2, 1.01091
262, 3, wb, filler, NA, 999, 999, 5, 7, 152, 147, 136, 127, 73, 116, 3, 0.82385
262, 3, wb, filler, NA, 999, 999, 5, 7, 152, 147, 136, 127, 73, 116, 2, 0.509497
262, 3, wb, attraction, a-b-db, 5, 3, 5, 8, 117, 190, 195, 120, 120, 195, 2, 0.598621
262, 3, wb, attraction, a-b-db, 5, 3, 5, 8, 117, 190, 195, 120, 120, 195, 1, 0.677692
262, 3, wb, attraction, a-b-db, 14, 1, 5, 9, 56, 125, 135, 60, 60, 135, 2, 0.480486
262, 3, wb, attraction, a-b-db, 14, 1, 5, 9, 56, 125, 135, 60, 60, 135, 3, 0.267942
262, 3, wb, filler, NA, 999, 999, 5, 10, 178, 155, 194, 162, 96, 87, 3, 0.711087
262, 3, wb, filler, NA, 999, 999, 5, 10, 178, 155, 194, 162, 96, 87, 2, 0.281516
262, 3, wb, attraction, a-b-da, 2, 2, 5, 11, 165, 90, 90, 165, 163, 89, 2, 0.644266
262, 3, wb, attraction, a-b-da, 2, 2, 5, 11, 165, 90, 90, 165, 163, 89, 1, 0.289072
262, 3, wb, filler, NA, 999, 999, 5, 12, 135, 188, 169, 88, 100, 144, 2, 0.507814
262, 3, wb, filler, NA, 999, 999, 5, 12, 135, 188, 169, 88, 100, 144, 1, 0.246151
262, 3, wb, attraction, a-b-db, 2, 1, 5, 13, 60, 135, 135, 60, 59, 134, 2, 0.434032
262, 3, wb, attraction, a-b-db, 2, 1, 5, 13, 60, 135, 135, 60, 59, 134, 1, 0.271946
262, 3, wb, attraction, a-b-db, 9, 1, 5, 14, 60, 135, 135, 60, 57, 129, 2, 0.427197
262, 3, wb, attraction, a-b-db, 9, 1, 5, 14, 60, 135, 135, 60, 57, 129, 3, 0.256895
262, 3, wb, filler, NA, 999, 999, 5, 15, 128, 175, 117, 194, 156, 95, 3, 0.604114
262, 3, wb, filler, NA, 999, 999, 5, 15, 128, 175, 117, 194, 156, 95, 2, 0.243223
262, 3, wb, attraction, a-b-da, 5, 2, 5, 16, 90, 165, 165, 90, 161, 88, 3, 0.791141
262, 3, wb, attraction, a-b-da, 5, 2, 5, 16, 90, 165, 165, 90, 161, 88, 2, 0.342066
262, 3, wb, attraction, a-b-da, 9, 2, 5, 17, 165, 90, 157, 86, 90, 165, 3, 0.797936
262, 3, wb, attraction, a-b-da, 9, 2, 5, 17, 165, 90, 157, 86, 90, 165, 2, 0.221143
262, 3, wb, catch, NA, 999, 999, 5, 18, 104, 91, 156, 159, 121, 134, 3, 0.746182
262, 3, wb, catch, NA, 999, 999, 5, 18, 104, 91, 156, 159, 121, 134, 2, 0.307234
262, 3, wb, attraction, a-b-da, 2, 3, 5, 19, 120, 195, 193, 119, 195, 120, 3, 0.588517
262, 3, wb, attraction, a-b-da, 2, 3, 5, 19, 120, 195, 193, 119, 195, 120, 2, 0.643674
262, 3, wb, attraction, a-b-da, 9, 3, 5, 20, 186, 114, 120, 195, 195, 120, 2, 0.591409
262, 3, wb, attraction, a-b-da, 9, 3, 5, 20, 186, 114, 120, 195, 195, 120, 1, 0.270577
262, 3, wb, attraction, a-b-da, 14, 2, 5, 21, 90, 165, 165, 90, 153, 83, 1, 0.785645
262, 3, wb, attraction, a-b-da, 14, 2, 5, 21, 90, 165, 165, 90, 153, 83, 2, 0.329385
262, 3, wb, filler, NA, 999, 999, 5, 22, 150, 77, 65, 153, 156, 146, 1, 0.609926
262, 3, wb, filler, NA, 999, 999, 5, 22, 150, 77, 65, 153, 156, 146, 3, 0.456458
262, 3, wb, filler, NA, 999, 999, 5, 23, 66, 173, 138, 73, 179, 149, 1, 0.483461
262, 3, wb, filler, NA, 999, 999, 5, 23, 66, 173, 138, 73, 179, 149, 3, 0.303252
262, 3, wb, attraction, a-b-da, 2, 1, 5, 24, 135, 60, 134, 59, 60, 135, 1, 0.642894
262, 3, wb, attraction, a-b-da, 2, 1, 5, 24, 135, 60, 134, 59, 60, 135, 3, 0.350267
262, 3, wb, attraction, a-b-da, 14, 1, 5, 25, 135, 60, 60, 135, 125, 56, 1, 0.494045
262, 3, wb, attraction, a-b-da, 14, 1, 5, 25, 135, 60, 60, 135, 125, 56, 2, 0.561252
262, 3, wb, filler, NA, 999, 999, 5, 26, 87, 83, 85, 154, 182, 133, 1, 0.712321
262, 3, wb, filler, NA, 999, 999, 5, 26, 87, 83, 85, 154, 182, 133, 3, 0.706755
262, 3, wb, attraction, a-b-da, 9, 1, 5, 27, 129, 57, 135, 60, 60, 135, 1, 0.428492
262, 3, wb, attraction, a-b-da, 9, 1, 5, 27, 129, 57, 135, 60, 60, 135, 2, 0.354279
262, 3, wb, filler, NA, 999, 999, 5, 28, 168, 145, 139, 158, 82, 186, 1, 0.490115
262, 3, wb, filler, NA, 999, 999, 5, 28, 168, 145, 139, 158, 82, 186, 2, 0.366532
262, 3, wb, attraction, a-b-db, 14, 3, 5, 29, 111, 181, 195, 120, 120, 195, 3, 0.564501
262, 3, wb, attraction, a-b-db, 14, 3, 5, 29, 111, 181, 195, 120, 120, 195, 2, 0.292998
262, 3, wb, attraction, a-b-da, 5, 3, 5, 30, 190, 117, 120, 195, 195, 120, 3, 0.438754
262, 3, wb, attraction, a-b-da, 5, 3, 5, 30, 190, 117, 120, 195, 195, 120, 2, 0.268066
262, 3, wb, attraction, a-b-db, 9, 2, 5, 31, 165, 90, 90, 165, 86, 157, 3, 0.439266
262, 3, wb, attraction, a-b-db, 9, 2, 5, 31, 165, 90, 90, 165, 86, 157, 2, 0.361106
262, 3, wb, attraction, a-b-db, 2, 3, 5, 32, 195, 120, 120, 195, 119, 193, 2, 1.05949
262, 3, wb, attraction, a-b-db, 2, 3, 5, 32, 195, 120, 120, 195, 119, 193, 3, 0.82381
262, 3, wb, filler, NA, 999, 999, 5, 33, 106, 104, 103, 127, 176, 71, 3, 0.684147
262, 3, wb, filler, NA, 999, 999, 5, 33, 106, 104, 103, 127, 176, 71, 2, 1.0558
262, 3, wb, attraction, a-b-db, 5, 2, 5, 34, 165, 90, 90, 165, 88, 161, 3, 0.739475
262, 3, wb, attraction, a-b-db, 5, 2, 5, 34, 165, 90, 90, 165, 88, 161, 1, 0.500552
262, 3, wb, attraction, a-b-da, 5, 1, 5, 35, 135, 60, 60, 135, 132, 58, 3, 0.37443
262, 3, wb, attraction, a-b-da, 5, 1, 5, 35, 135, 60, 60, 135, 132, 58, 2, 0.24629
262, 3, wb, attraction, a-b-db, 9, 3, 5, 36, 195, 120, 114, 186, 120, 195, 3, 0.386048
262, 3, wb, attraction, a-b-db, 9, 3, 5, 36, 195, 120, 114, 186, 120, 195, 2, 0.233914
262, 3, wb, catch, NA, 999, 999, 5, 37, 142, 173, 93, 162, 104, 91, 3, 0.40648
262, 3, wb, catch, NA, 999, 999, 5, 37, 142, 173, 93, 162, 104, 91, 1, 0.260968
262, 3, wb, attraction, a-b-db, 5, 3, 6, 1, 117, 190, 120, 195, 195, 120, 3, 0.992198
262, 3, wb, attraction, a-b-db, 5, 3, 6, 1, 117, 190, 120, 195, 195, 120, 1, 0.271195
262, 3, wb, filler, NA, 999, 999, 6, 2, 151, 65, 167, 160, 111, 129, 1, 1.14632
262, 3, wb, filler, NA, 999, 999, 6, 2, 151, 65, 167, 160, 111, 129, 2, 0.291188
262, 3, wb, attraction, a-b-db, 9, 2, 6, 3, 90, 165, 165, 90, 86, 157, 3, 1.10131
262, 3, wb, attraction, a-b-db, 9, 2, 6, 3, 90, 165, 165, 90, 86, 157, 2, 0.240057
262, 3, wb, catch, NA, 999, 999, 6, 4, 146, 169, 78, 117, 99, 156, 2, 0.435966
262, 3, wb, catch, NA, 999, 999, 6, 4, 146, 169, 78, 117, 99, 156, 1, 0.43386
262, 3, wb, filler, NA, 999, 999, 6, 5, 93, 171, 190, 96, 84, 79, 3, 0.558247
262, 3, wb, filler, NA, 999, 999, 6, 5, 93, 171, 190, 96, 84, 79, 2, 0.198729
262, 3, wb, attraction, a-b-db, 14, 1, 6, 6, 56, 125, 60, 135, 135, 60, 1, 0.716552
262, 3, wb, attraction, a-b-db, 14, 1, 6, 6, 56, 125, 60, 135, 135, 60, 2, 0.351011
262, 3, wb, attraction, a-b-da, 9, 3, 6, 7, 186, 114, 195, 120, 120, 195, 1, 0.758788
262, 3, wb, attraction, a-b-da, 9, 3, 6, 7, 186, 114, 195, 120, 120, 195, 3, 0.271444
262, 3, wb, attraction, a-b-da, 9, 2, 6, 8, 165, 90, 90, 165, 157, 86, 3, 0.799333
262, 3, wb, attraction, a-b-da, 9, 2, 6, 8, 165, 90, 90, 165, 157, 86, 2, 0.505538
262, 3, wb, attraction, a-b-da, 5, 3, 6, 9, 120, 195, 190, 117, 195, 120, 1, 0.811314
262, 3, wb, attraction, a-b-da, 5, 3, 6, 9, 120, 195, 190, 117, 195, 120, 2, 0.625666
262, 3, wb, attraction, a-b-db, 2, 2, 6, 10, 165, 90, 90, 165, 89, 163, 1, 0.574058
262, 3, wb, attraction, a-b-db, 2, 2, 6, 10, 165, 90, 90, 165, 89, 163, 3, 0.277864
262, 3, wb, attraction, a-b-db, 2, 1, 6, 11, 59, 134, 135, 60, 60, 135, 3, 0.616445
262, 3, wb, attraction, a-b-db, 2, 1, 6, 11, 59, 134, 135, 60, 60, 135, 2, 0.478869
262, 3, wb, filler, NA, 999, 999, 6, 12, 103, 188, 194, 62, 119, 172, 3, 0.585394
262, 3, wb, filler, NA, 999, 999, 6, 12, 103, 188, 194, 62, 119, 172, 2, 2.60129
262, 3, wb, filler, NA, 999, 999, 6, 13, 145, 86, 133, 188, 153, 98, 1, 1.46222
262, 3, wb, filler, NA, 999, 999, 6, 13, 145, 86, 133, 188, 153, 98, 2, 0.210344
262, 3, wb, attraction, a-b-da, 2, 1, 6, 14, 134, 59, 60, 135, 135, 60, 2, 0.527657
262, 3, wb, attraction, a-b-da, 2, 1, 6, 14, 134, 59, 60, 135, 135, 60, 3, 0.273577
262, 3, wb, attraction, a-b-da, 2, 2, 6, 15, 163, 89, 90, 165, 165, 90, 3, 0.675903
262, 3, wb, attraction, a-b-da, 2, 2, 6, 15, 163, 89, 90, 165, 165, 90, 2, 0.239673
262, 3, wb, catch, NA, 999, 999, 6, 16, 147, 168, 121, 74, 100, 155, 2, 0.788436
262, 3, wb, catch, NA, 999, 999, 6, 16, 147, 168, 121, 74, 100, 155, 1, 0.21934
262, 3, wb, attraction, a-b-db, 9, 1, 6, 17, 57, 129, 60, 135, 135, 60, 3, 0.904528
262, 3, wb, attraction, a-b-db, 9, 1, 6, 17, 57, 129, 60, 135, 135, 60, 2, 0.226851
262, 3, wb, attraction, a-b-da, 9, 1, 6, 18, 129, 57, 135, 60, 60, 135, 1, 0.527452
262, 3, wb, attraction, a-b-da, 9, 1, 6, 18, 129, 57, 135, 60, 60, 135, 2, 0.345311
262, 3, wb, filler, NA, 999, 999, 6, 19, 63, 189, 123, 168, 171, 100, 1, 0.69706
262, 3, wb, filler, NA, 999, 999, 6, 19, 63, 189, 123, 168, 171, 100, 3, 0.46022
262, 3, wb, attraction, a-b-db, 5, 1, 6, 20, 60, 135, 58, 132, 135, 60, 2, 0.615357
262, 3, wb, attraction, a-b-db, 5, 1, 6, 20, 60, 135, 58, 132, 135, 60, 3, 0.309763
262, 3, wb, filler, NA, 999, 999, 6, 21, 124, 116, 129, 94, 165, 183, 2, 1.04698
262, 3, wb, filler, NA, 999, 999, 6, 21, 124, 116, 129, 94, 165, 183, 3, 0.283889
262, 3, wb, attraction, a-b-da, 14, 1, 6, 22, 135, 60, 60, 135, 125, 56, 3, 0.742406
262, 3, wb, attraction, a-b-da, 14, 1, 6, 22, 135, 60, 60, 135, 125, 56, 2, 0.55146
262, 3, wb, filler, NA, 999, 999, 6, 23, 91, 156, 151, 170, 157, 165, 1, 1.01534
262, 3, wb, filler, NA, 999, 999, 6, 23, 91, 156, 151, 170, 157, 165, 2, 0.229613
262, 3, wb, filler, NA, 999, 999, 6, 24, 193, 187, 79, 79, 112, 140, 2, 0.65554
262, 3, wb, filler, NA, 999, 999, 6, 24, 193, 187, 79, 79, 112, 140, 1, 0.382498
262, 3, wb, filler, NA, 999, 999, 6, 25, 77, 116, 150, 161, 79, 144, 1, 0.604946
262, 3, wb, filler, NA, 999, 999, 6, 25, 77, 116, 150, 161, 79, 144, 2, 0.203567
262, 3, wb, filler, NA, 999, 999, 6, 26, 128, 135, 78, 179, 97, 156, 1, 0.689366
262, 3, wb, filler, NA, 999, 999, 6, 26, 128, 135, 78, 179, 97, 156, 2, 0.228554
262, 3, wb, attraction, a-b-db, 9, 3, 6, 27, 195, 120, 114, 186, 120, 195, 3, 1.449
262, 3, wb, attraction, a-b-db, 9, 3, 6, 27, 195, 120, 114, 186, 120, 195, 1, 0.349833
262, 3, wb, attraction, a-b-da, 14, 2, 6, 28, 90, 165, 165, 90, 153, 83, 3, 0.517776
262, 3, wb, attraction, a-b-da, 14, 2, 6, 28, 90, 165, 165, 90, 153, 83, 2, 0.264202
262, 3, wb, attraction, a-b-db, 2, 3, 6, 29, 195, 120, 119, 193, 120, 195, 3, 1.23533
262, 3, wb, attraction, a-b-db, 2, 3, 6, 29, 195, 120, 119, 193, 120, 195, 2, 0.249
262, 3, wb, attraction, a-b-db, 5, 2, 6, 30, 88, 161, 165, 90, 90, 165, 3, 0.548823
262, 3, wb, attraction, a-b-db, 5, 2, 6, 30, 88, 161, 165, 90, 90, 165, 2, 0.198026
262, 3, wb, attraction, a-b-da, 2, 3, 6, 31, 193, 119, 120, 195, 195, 120, 3, 0.923822
262, 3, wb, attraction, a-b-da, 2, 3, 6, 31, 193, 119, 120, 195, 195, 120, 2, 0.213686
262, 3, wb, attraction, a-b-db, 14, 3, 6, 32, 120, 195, 111, 181, 195, 120, 3, 0.426677
262, 3, wb, attraction, a-b-db, 14, 3, 6, 32, 120, 195, 111, 181, 195, 120, 2, 0.208531
262, 3, wb, attraction, a-b-da, 14, 3, 6, 33, 195, 120, 181, 111, 120, 195, 3, 0.597754
262, 3, wb, attraction, a-b-da, 14, 3, 6, 33, 195, 120, 181, 111, 120, 195, 2, 0.340961
262, 3, wb, attraction, a-b-da, 5, 1, 6, 34, 60, 135, 132, 58, 135, 60, 3, 0.380823
262, 3, wb, attraction, a-b-da, 5, 1, 6, 34, 60, 135, 132, 58, 135, 60, 2, 0.276569
262, 3, wb, attraction, a-b-da, 5, 2, 6, 35, 161, 88, 90, 165, 165, 90, 3, 0.415097
262, 3, wb, attraction, a-b-da, 5, 2, 6, 35, 161, 88, 90, 165, 165, 90, 2, 0.269519
262, 3, wb, attraction, a-b-db, 14, 2, 6, 36, 83, 153, 90, 165, 165, 90, 3, 0.544788
262, 3, wb, attraction, a-b-db, 14, 2, 6, 36, 83, 153, 90, 165, 165, 90, 2, 0.51392
262, 3, wb, catch, NA, 999, 999, 6, 37, 85, 110, 143, 112, 139, 176, 3, 0.650992
262, 3, wb, catch, NA, 999, 999, 6, 37, 85, 110, 143, 112, 139, 176, 2, 0.912166
262, 3, wb, attraction, a-b-da, 5, 1, 7, 1, 132, 58, 60, 135, 135, 60, 3, 0.593146
262, 3, wb, attraction, a-b-da, 5, 1, 7, 1, 132, 58, 60, 135, 135, 60, 2, 0.432254
262, 3, wb, filler, NA, 999, 999, 7, 2, 165, 169, 95, 192, 120, 78, 3, 0.7007
262, 3, wb, filler, NA, 999, 999, 7, 2, 165, 169, 95, 192, 120, 78, 2, 0.599763
262, 3, wb, attraction, a-b-db, 9, 1, 7, 3, 57, 129, 135, 60, 60, 135, 3, 0.477619
262, 3, wb, attraction, a-b-db, 9, 1, 7, 3, 57, 129, 135, 60, 60, 135, 2, 0.409329
262, 3, wb, attraction, a-b-da, 14, 1, 7, 4, 60, 135, 125, 56, 135, 60, 3, 0.390524
262, 3, wb, attraction, a-b-da, 14, 1, 7, 4, 60, 135, 125, 56, 135, 60, 2, 0.373817
262, 3, wb, attraction, a-b-da, 14, 2, 7, 5, 153, 83, 165, 90, 90, 165, 3, 0.484196
262, 3, wb, attraction, a-b-da, 14, 2, 7, 5, 153, 83, 165, 90, 90, 165, 2, 0.304195
262, 3, wb, attraction, a-b-db, 5, 2, 7, 6, 90, 165, 88, 161, 165, 90, 3, 0.873898
262, 3, wb, attraction, a-b-db, 5, 2, 7, 6, 90, 165, 88, 161, 165, 90, 2, 0.633955
262, 3, wb, attraction, a-b-db, 5, 3, 7, 7, 117, 190, 120, 195, 195, 120, 3, 0.425968
262, 3, wb, attraction, a-b-db, 5, 3, 7, 7, 117, 190, 120, 195, 195, 120, 2, 0.431946
262, 3, wb, attraction, a-b-da, 2, 3, 7, 8, 195, 120, 193, 119, 120, 195, 3, 0.388442
262, 3, wb, attraction, a-b-da, 2, 3, 7, 8, 195, 120, 193, 119, 120, 195, 2, 0.291478
262, 3, wb, attraction, a-b-da, 9, 3, 7, 9, 120, 195, 195, 120, 186, 114, 3, 0.32532
262, 3, wb, attraction, a-b-da, 9, 3, 7, 9, 120, 195, 195, 120, 186, 114, 2, 0.431204
262, 3, wb, attraction, a-b-db, 9, 2, 7, 10, 165, 90, 86, 157, 90, 165, 3, 0.451754
262, 3, wb, attraction, a-b-db, 9, 2, 7, 10, 165, 90, 86, 157, 90, 165, 2, 1.00084
262, 3, wb, attraction, a-b-da, 5, 3, 7, 11, 120, 195, 195, 120, 190, 117, 3, 1.01004
262, 3, wb, attraction, a-b-da, 5, 3, 7, 11, 120, 195, 195, 120, 190, 117, 2, 0.586344
262, 3, wb, attraction, a-b-da, 9, 2, 7, 12, 165, 90, 157, 86, 90, 165, 3, 0.379227
262, 3, wb, attraction, a-b-da, 9, 2, 7, 12, 165, 90, 157, 86, 90, 165, 2, 0.635058
262, 3, wb, attraction, a-b-da, 9, 1, 7, 13, 60, 135, 129, 57, 135, 60, 3, 0.31142
262, 3, wb, attraction, a-b-da, 9, 1, 7, 13, 60, 135, 129, 57, 135, 60, 2, 0.538044
262, 3, wb, catch, NA, 999, 999, 7, 14, 159, 96, 74, 121, 186, 129, 2, 1.08248
262, 3, wb, catch, NA, 999, 999, 7, 14, 159, 96, 74, 121, 186, 129, 3, 0.254054
262, 3, wb, attraction, a-b-db, 2, 3, 7, 15, 195, 120, 119, 193, 120, 195, 3, 1.40997
262, 3, wb, attraction, a-b-db, 2, 3, 7, 15, 195, 120, 119, 193, 120, 195, 2, 0.216143
262, 3, wb, attraction, a-b-db, 2, 1, 7, 16, 135, 60, 60, 135, 59, 134, 3, 0.597278
262, 3, wb, attraction, a-b-db, 2, 1, 7, 16, 135, 60, 60, 135, 59, 134, 2, 0.620485
262, 3, wb, filler, NA, 999, 999, 7, 17, 81, 146, 123, 120, 84, 99, 3, 0.577529
262, 3, wb, filler, NA, 999, 999, 7, 17, 81, 146, 123, 120, 84, 99, 2, 0.281374
262, 3, wb, filler, NA, 999, 999, 7, 18, 63, 76, 157, 63, 143, 84, 1, 1.27589
262, 3, wb, filler, NA, 999, 999, 7, 18, 63, 76, 157, 63, 143, 84, 2, 0.447415
262, 3, wb, attraction, a-b-db, 9, 3, 7, 19, 120, 195, 195, 120, 114, 186, 2, 1.29128
262, 3, wb, attraction, a-b-db, 9, 3, 7, 19, 120, 195, 195, 120, 114, 186, 1, 0.302232
262, 3, wb, filler, NA, 999, 999, 7, 20, 145, 98, 99, 112, 134, 57, 3, 0.672162
262, 3, wb, filler, NA, 999, 999, 7, 20, 145, 98, 99, 112, 134, 57, 2, 0.355911
262, 3, wb, attraction, a-b-da, 2, 2, 7, 21, 163, 89, 90, 165, 165, 90, 3, 0.571601
262, 3, wb, attraction, a-b-da, 2, 2, 7, 21, 163, 89, 90, 165, 165, 90, 2, 0.347468
262, 3, wb, attraction, a-b-db, 14, 1, 7, 22, 56, 125, 135, 60, 60, 135, 2, 1.38733
262, 3, wb, attraction, a-b-db, 14, 1, 7, 22, 56, 125, 135, 60, 60, 135, 3, 0.330819
262, 3, wb, attraction, a-b-da, 2, 1, 7, 23, 60, 135, 135, 60, 134, 59, 1, 0.707255
262, 3, wb, attraction, a-b-da, 2, 1, 7, 23, 60, 135, 135, 60, 134, 59, 3, 0.373615
262, 3, wb, filler, NA, 999, 999, 7, 24, 84, 110, 151, 59, 103, 190, 1, 1.10022
262, 3, wb, filler, NA, 999, 999, 7, 24, 84, 110, 151, 59, 103, 190, 3, 0.823148
262, 3, wb, filler, NA, 999, 999, 7, 25, 158, 192, 67, 193, 137, 106, 3, 1.34811
262, 3, wb, filler, NA, 999, 999, 7, 25, 158, 192, 67, 193, 137, 106, 1, 0.348973
262, 3, wb, attraction, a-b-db, 2, 2, 7, 26, 89, 163, 165, 90, 90, 165, 3, 0.932903
262, 3, wb, attraction, a-b-db, 2, 2, 7, 26, 89, 163, 165, 90, 90, 165, 1, 0.318597
262, 3, wb, filler, NA, 999, 999, 7, 27, 73, 169, 96, 82, 89, 162, 3, 0.511817
262, 3, wb, filler, NA, 999, 999, 7, 27, 73, 169, 96, 82, 89, 162, 2, 0.362251
262, 3, wb, attraction, a-b-db, 5, 1, 7, 28, 60, 135, 135, 60, 58, 132, 3, 0.521329
262, 3, wb, attraction, a-b-db, 5, 1, 7, 28, 60, 135, 135, 60, 58, 132, 2, 0.307225
262, 3, wb, attraction, a-b-da, 14, 3, 7, 29, 181, 111, 195, 120, 120, 195, 3, 0.500414
262, 3, wb, attraction, a-b-da, 14, 3, 7, 29, 181, 111, 195, 120, 120, 195, 2, 0.279516
262, 3, wb, catch, NA, 999, 999, 7, 30, 101, 94, 176, 139, 145, 110, 1, 0.818055
262, 3, wb, catch, NA, 999, 999, 7, 30, 101, 94, 176, 139, 145, 110, 3, 0.392418
262, 3, wb, attraction, a-b-db, 14, 2, 7, 31, 83, 153, 165, 90, 90, 165, 2, 1.1503
262, 3, wb, attraction, a-b-db, 14, 2, 7, 31, 83, 153, 165, 90, 90, 165, 3, 0.303189
262, 3, wb, catch, NA, 999, 999, 7, 32, 163, 92, 133, 182, 88, 107, 3, 0.609044
262, 3, wb, catch, NA, 999, 999, 7, 32, 163, 92, 133, 182, 88, 107, 2, 0.255606
262, 3, wb, filler, NA, 999, 999, 7, 33, 106, 147, 172, 165, 170, 159, 3, 0.907303
262, 3, wb, filler, NA, 999, 999, 7, 33, 106, 147, 172, 165, 170, 159, 1, 0.933665
262, 3, wb, filler, NA, 999, 999, 7, 34, 74, 127, 190, 105, 131, 89, 1, 0.726019
262, 3, wb, filler, NA, 999, 999, 7, 34, 74, 127, 190, 105, 131, 89, 2, 0.359959
262, 3, wb, filler, NA, 999, 999, 7, 35, 57, 125, 184, 66, 142, 130, 1, 0.678932
262, 3, wb, filler, NA, 999, 999, 7, 35, 57, 125, 184, 66, 142, 130, 3, 0.2507
262, 3, wb, attraction, a-b-da, 5, 2, 7, 36, 165, 90, 90, 165, 161, 88, 1, 0.934559
262, 3, wb, attraction, a-b-da, 5, 2, 7, 36, 165, 90, 90, 165, 161, 88, 2, 0.264214
262, 3, wb, attraction, a-b-db, 14, 3, 7, 37, 111, 181, 120, 195, 195, 120, 3, 0.851416
262, 3, wb, attraction, a-b-db, 14, 3, 7, 37, 111, 181, 120, 195, 195, 120, 1, 0.584548
262, 3, wb, attraction, a-b-da, 5, 2, 8, 1, 90, 165, 161, 88, 165, 90, 3, 0.4229
262, 3, wb, attraction, a-b-da, 5, 2, 8, 1, 90, 165, 161, 88, 165, 90, 2, 0.572742
262, 3, wb, filler, NA, 999, 999, 8, 2, 162, 131, 121, 177, 134, 153, 2, 0.803826
262, 3, wb, filler, NA, 999, 999, 8, 2, 162, 131, 121, 177, 134, 153, 3, 0.306987
262, 3, wb, filler, NA, 999, 999, 8, 3, 173, 139, 154, 183, 108, 84, 3, 0.540027
262, 3, wb, filler, NA, 999, 999, 8, 3, 173, 139, 154, 183, 108, 84, 2, 0.221256
262, 3, wb, attraction, a-b-db, 14, 1, 8, 4, 135, 60, 60, 135, 56, 125, 3, 0.610648
262, 3, wb, attraction, a-b-db, 14, 1, 8, 4, 135, 60, 60, 135, 56, 125, 2, 0.28895
262, 3, wb, filler, NA, 999, 999, 8, 5, 106, 128, 160, 187, 169, 174, 1, 0.763283
262, 3, wb, filler, NA, 999, 999, 8, 5, 106, 128, 160, 187, 169, 174, 2, 0.251837
262, 3, wb, attraction, a-b-da, 5, 3, 8, 6, 195, 120, 120, 195, 190, 117, 2, 0.743754
262, 3, wb, attraction, a-b-da, 5, 3, 8, 6, 195, 120, 120, 195, 190, 117, 3, 0.544805
262, 3, wb, attraction, a-b-db, 2, 2, 8, 7, 165, 90, 89, 163, 90, 165, 3, 1.10453
262, 3, wb, attraction, a-b-db, 2, 2, 8, 7, 165, 90, 89, 163, 90, 165, 2, 0.267565
262, 3, wb, attraction, a-b-db, 9, 1, 8, 8, 60, 135, 57, 129, 135, 60, 3, 0.526756
262, 3, wb, attraction, a-b-db, 9, 1, 8, 8, 60, 135, 57, 129, 135, 60, 2, 0.304444
262, 3, wb, attraction, a-b-db, 2, 3, 8, 9, 120, 195, 195, 120, 119, 193, 3, 0.53837
262, 3, wb, attraction, a-b-db, 2, 3, 8, 9, 120, 195, 195, 120, 119, 193, 2, 0.595553
262, 3, wb, filler, NA, 999, 999, 8, 10, 75, 139, 149, 171, 92, 106, 3, 0.985253
262, 3, wb, filler, NA, 999, 999, 8, 10, 75, 139, 149, 171, 92, 106, 2, 0.304822
262, 3, wb, filler, NA, 999, 999, 8, 11, 168, 85, 89, 183, 145, 133, 3, 0.523361
262, 3, wb, filler, NA, 999, 999, 8, 11, 168, 85, 89, 183, 145, 133, 2, 0.572514
262, 3, wb, filler, NA, 999, 999, 8, 12, 181, 185, 154, 93, 137, 96, 3, 0.427659
262, 3, wb, filler, NA, 999, 999, 8, 12, 181, 185, 154, 93, 137, 96, 2, 0.521441
262, 3, wb, attraction, a-b-db, 14, 2, 8, 13, 83, 153, 165, 90, 90, 165, 3, 0.434614
262, 3, wb, attraction, a-b-db, 14, 2, 8, 13, 83, 153, 165, 90, 90, 165, 2, 0.224559
262, 3, wb, catch, NA, 999, 999, 8, 14, 110, 85, 140, 175, 106, 149, 1, 0.757003
262, 3, wb, catch, NA, 999, 999, 8, 14, 110, 85, 140, 175, 106, 149, 2, 0.289631
262, 3, wb, filler, NA, 999, 999, 8, 15, 79, 81, 168, 104, 68, 142, 1, 0.607272
262, 3, wb, filler, NA, 999, 999, 8, 15, 79, 81, 168, 104, 68, 142, 2, 0.197708
262, 3, wb, catch, NA, 999, 999, 8, 16, 188, 127, 98, 157, 60, 135, 3, 0.659556
262, 3, wb, catch, NA, 999, 999, 8, 16, 188, 127, 98, 157, 60, 135, 2, 0.300945
262, 3, wb, filler, NA, 999, 999, 8, 17, 186, 107, 153, 71, 143, 111, 2, 0.577772
262, 3, wb, filler, NA, 999, 999, 8, 17, 186, 107, 153, 71, 143, 111, 1, 0.377608
262, 3, wb, attraction, a-b-db, 9, 3, 8, 18, 120, 195, 195, 120, 114, 186, 3, 0.672124
262, 3, wb, attraction, a-b-db, 9, 3, 8, 18, 120, 195, 195, 120, 114, 186, 2, 0.219842
262, 3, wb, attraction, a-b-da, 5, 1, 8, 19, 60, 135, 132, 58, 135, 60, 3, 0.657062
262, 3, wb, attraction, a-b-da, 5, 1, 8, 19, 60, 135, 132, 58, 135, 60, 2, 0.221491
262, 3, wb, attraction, a-b-da, 9, 1, 8, 20, 135, 60, 129, 57, 60, 135, 3, 0.530639
262, 3, wb, attraction, a-b-da, 9, 1, 8, 20, 135, 60, 129, 57, 60, 135, 2, 0.268446
262, 3, wb, attraction, a-b-da, 9, 3, 8, 21, 186, 114, 195, 120, 120, 195, 3, 0.885296
262, 3, wb, attraction, a-b-da, 9, 3, 8, 21, 186, 114, 195, 120, 120, 195, 2, 0.603449
262, 3, wb, attraction, a-b-db, 9, 2, 8, 22, 165, 90, 86, 157, 90, 165, 3, 0.577138
262, 3, wb, attraction, a-b-db, 9, 2, 8, 22, 165, 90, 86, 157, 90, 165, 2, 0.257123
262, 3, wb, attraction, a-b-db, 5, 1, 8, 23, 60, 135, 135, 60, 58, 132, 3, 0.532133
262, 3, wb, attraction, a-b-db, 5, 1, 8, 23, 60, 135, 135, 60, 58, 132, 1, 0.382042
262, 3, wb, attraction, a-b-da, 14, 3, 8, 24, 195, 120, 181, 111, 120, 195, 1, 0.612419
262, 3, wb, attraction, a-b-da, 14, 3, 8, 24, 195, 120, 181, 111, 120, 195, 2, 0.218815
262, 3, wb, attraction, a-b-db, 5, 3, 8, 25, 120, 195, 195, 120, 117, 190, 1, 0.344209
262, 3, wb, attraction, a-b-db, 5, 3, 8, 25, 120, 195, 195, 120, 117, 190, 2, 0.481294
262, 3, wb, filler, NA, 999, 999, 8, 26, 170, 151, 195, 183, 110, 73, 1, 0.355755
262, 3, wb, filler, NA, 999, 999, 8, 26, 170, 151, 195, 183, 110, 73, 2, 0.164268
262, 3, wb, catch, NA, 999, 999, 8, 27, 134, 181, 164, 91, 94, 101, 3, 0.331474
262, 3, wb, catch, NA, 999, 999, 8, 27, 134, 181, 164, 91, 94, 101, 2, 0.653379
262, 3, wb, attraction, a-b-da, 2, 2, 8, 28, 163, 89, 165, 90, 90, 165, 3, 0.785101
262, 3, wb, attraction, a-b-da, 2, 2, 8, 28, 163, 89, 165, 90, 90, 165, 2, 0.224836
262, 3, wb, attraction, a-b-db, 14, 3, 8, 29, 195, 120, 120, 195, 111, 181, 3, 0.389323
262, 3, wb, attraction, a-b-db, 14, 3, 8, 29, 195, 120, 120, 195, 111, 181, 2, 0.18069
262, 3, wb, attraction, a-b-da, 9, 2, 8, 30, 157, 86, 165, 90, 90, 165, 3, 0.299082
262, 3, wb, attraction, a-b-da, 9, 2, 8, 30, 157, 86, 165, 90, 90, 165, 2, 0.526294
262, 3, wb, attraction, a-b-da, 14, 1, 8, 31, 135, 60, 60, 135, 125, 56, 3, 0.592618
262, 3, wb, attraction, a-b-da, 14, 1, 8, 31, 135, 60, 60, 135, 125, 56, 2, 0.581816
262, 3, wb, attraction, a-b-da, 2, 1, 8, 32, 135, 60, 134, 59, 60, 135, 2, 1.0203
262, 3, wb, attraction, a-b-da, 2, 1, 8, 32, 135, 60, 134, 59, 60, 135, 3, 0.314575
262, 3, wb, attraction, a-b-da, 14, 2, 8, 33, 90, 165, 165, 90, 153, 83, 3, 0.523746
262, 3, wb, attraction, a-b-da, 14, 2, 8, 33, 90, 165, 165, 90, 153, 83, 2, 0.173614
262, 3, wb, attraction, a-b-da, 2, 3, 8, 34, 120, 195, 193, 119, 195, 120, 3, 0.468113
262, 3, wb, attraction, a-b-da, 2, 3, 8, 34, 120, 195, 193, 119, 195, 120, 2, 0.472658
262, 3, wb, filler, NA, 999, 999, 8, 35, 87, 135, 195, 152, 61, 109, 3, 0.666883
262, 3, wb, filler, NA, 999, 999, 8, 35, 87, 135, 195, 152, 61, 109, 2, 0.552298
262, 3, wb, attraction, a-b-db, 5, 2, 8, 36, 88, 161, 165, 90, 90, 165, 3, 0.569888
262, 3, wb, attraction, a-b-db, 5, 2, 8, 36, 88, 161, 165, 90, 90, 165, 2, 0.959815
262, 3, wb, attraction, a-b-db, 2, 1, 8, 37, 60, 135, 135, 60, 59, 134, 3, 0.31069
262, 3, wb, attraction, a-b-db, 2, 1, 8, 37, 60, 135, 135, 60, 59, 134, 2, 0.529293
