sub_n, computer_n, bw_cond, effect, set, distance, diag, block_n, trial_n, h1, w1, h2, w2, h3, w3, choice, rt 
229, 3, bw, practice, NA, 999, 999, 0, 1, 106, 173, 92, 183, 132, 73, 1, 2.77243
229, 3, bw, practice, NA, 999, 999, 0, 1, 106, 173, 92, 183, 132, 73, 3, 1.3582
229, 3, bw, practice, NA, 999, 999, 0, 2, 92, 162, 93, 103, 138, 149, 3, 2.49711
229, 3, bw, practice, NA, 999, 999, 0, 2, 92, 162, 93, 103, 138, 149, 2, 1.22215
229, 3, bw, practice, NA, 999, 999, 0, 3, 103, 153, 180, 146, 105, 67, 2, 1.29203
229, 3, bw, practice, NA, 999, 999, 0, 3, 103, 153, 180, 146, 105, 67, 3, 0.890037
229, 3, bw, attraction, a-b-da, 14, 2, 1, 1, 165, 90, 90, 165, 153, 83, 2, 7.55124
229, 3, bw, attraction, a-b-da, 14, 2, 1, 1, 165, 90, 90, 165, 153, 83, 3, 0.982069
229, 3, bw, attraction, a-b-db, 5, 2, 1, 2, 88, 161, 90, 165, 165, 90, 2, 6.04446
229, 3, bw, attraction, a-b-db, 5, 2, 1, 2, 88, 161, 90, 165, 165, 90, 1, 2.66395
229, 3, bw, filler, NA, 999, 999, 1, 3, 128, 161, 116, 175, 140, 153, 3, 35.3943
229, 3, bw, filler, NA, 999, 999, 1, 3, 128, 161, 116, 175, 140, 153, 1, 0.487287
229, 3, bw, attraction, a-b-db, 9, 1, 1, 4, 57, 129, 60, 135, 135, 60, 2, 11.4577
229, 3, bw, attraction, a-b-db, 9, 1, 1, 4, 57, 129, 60, 135, 135, 60, 1, 0.451315
229, 3, bw, attraction, a-b-db, 9, 3, 1, 5, 120, 195, 195, 120, 114, 186, 2, 3.30312
229, 3, bw, attraction, a-b-db, 9, 3, 1, 5, 120, 195, 195, 120, 114, 186, 3, 0.785769
229, 3, bw, attraction, a-b-da, 5, 3, 1, 6, 195, 120, 190, 117, 120, 195, 3, 12.5199
229, 3, bw, attraction, a-b-da, 5, 3, 1, 6, 195, 120, 190, 117, 120, 195, 2, 0.174695
229, 3, bw, attraction, a-b-da, 9, 1, 1, 7, 129, 57, 135, 60, 60, 135, 2, 3.52524
229, 3, bw, attraction, a-b-da, 9, 1, 1, 7, 129, 57, 135, 60, 60, 135, 3, 2.91803
229, 3, bw, attraction, a-b-da, 5, 2, 1, 8, 90, 165, 161, 88, 165, 90, 1, 13.0065
229, 3, bw, attraction, a-b-da, 5, 2, 1, 8, 90, 165, 161, 88, 165, 90, 2, 1.1056
229, 3, bw, catch, NA, 999, 999, 1, 9, 107, 88, 129, 126, 126, 189, 3, 0.763345
229, 3, bw, catch, NA, 999, 999, 1, 9, 107, 88, 129, 126, 126, 189, 1, 0.515597
229, 3, bw, attraction, a-b-da, 5, 1, 1, 10, 135, 60, 60, 135, 132, 58, 1, 3.02074
229, 3, bw, attraction, a-b-da, 5, 1, 1, 10, 135, 60, 60, 135, 132, 58, 2, 1.80273
229, 3, bw, attraction, a-b-da, 2, 1, 1, 11, 60, 135, 135, 60, 134, 59, 1, 2.77578
229, 3, bw, attraction, a-b-da, 2, 1, 1, 11, 60, 135, 135, 60, 134, 59, 3, 1.83106
229, 3, bw, catch, NA, 999, 999, 1, 12, 106, 89, 147, 108, 180, 135, 3, 0.690884
229, 3, bw, catch, NA, 999, 999, 1, 12, 106, 89, 147, 108, 180, 135, 1, 0.294083
229, 3, bw, attraction, a-b-db, 2, 2, 1, 13, 90, 165, 89, 163, 165, 90, 1, 1.02377
229, 3, bw, attraction, a-b-db, 2, 2, 1, 13, 90, 165, 89, 163, 165, 90, 2, 3.03759
229, 3, bw, attraction, a-b-db, 5, 3, 1, 14, 195, 120, 120, 195, 117, 190, 2, 11.0252
229, 3, bw, attraction, a-b-db, 5, 3, 1, 14, 195, 120, 120, 195, 117, 190, 3, 0.483695
229, 3, bw, attraction, a-b-da, 14, 1, 1, 15, 60, 135, 125, 56, 135, 60, 1, 4.56609
229, 3, bw, attraction, a-b-da, 14, 1, 1, 15, 60, 135, 125, 56, 135, 60, 2, 0.75736
229, 3, bw, attraction, a-b-da, 2, 2, 1, 16, 165, 90, 163, 89, 90, 165, 3, 9.7885
229, 3, bw, attraction, a-b-da, 2, 2, 1, 16, 165, 90, 163, 89, 90, 165, 2, 0.249472
229, 3, bw, attraction, a-b-db, 2, 3, 1, 17, 119, 193, 120, 195, 195, 120, 2, 2.86129
229, 3, bw, attraction, a-b-db, 2, 3, 1, 17, 119, 193, 120, 195, 195, 120, 1, 0.256874
229, 3, bw, attraction, a-b-da, 9, 3, 1, 18, 120, 195, 195, 120, 186, 114, 1, 3.6203
229, 3, bw, attraction, a-b-da, 9, 3, 1, 18, 120, 195, 195, 120, 186, 114, 3, 0.25773
229, 3, bw, filler, NA, 999, 999, 1, 19, 86, 74, 173, 109, 83, 104, 2, 1.34882
229, 3, bw, filler, NA, 999, 999, 1, 19, 86, 74, 173, 109, 83, 104, 1, 0.272112
229, 3, bw, filler, NA, 999, 999, 1, 20, 170, 166, 175, 132, 154, 58, 1, 1.61695
229, 3, bw, filler, NA, 999, 999, 1, 20, 170, 166, 175, 132, 154, 58, 3, 0.583017
229, 3, bw, filler, NA, 999, 999, 1, 21, 137, 158, 94, 114, 152, 149, 3, 1.1175
229, 3, bw, filler, NA, 999, 999, 1, 21, 137, 158, 94, 114, 152, 149, 2, 0.719763
229, 3, bw, filler, NA, 999, 999, 1, 22, 58, 166, 121, 110, 90, 175, 3, 1.50474
229, 3, bw, filler, NA, 999, 999, 1, 22, 58, 166, 121, 110, 90, 175, 1, 0.307642
229, 3, bw, filler, NA, 999, 999, 1, 23, 78, 121, 119, 154, 111, 163, 2, 3.34889
229, 3, bw, filler, NA, 999, 999, 1, 23, 78, 121, 119, 154, 111, 163, 1, 0.197067
229, 3, bw, filler, NA, 999, 999, 1, 24, 181, 188, 166, 106, 163, 105, 1, 0.46691
229, 3, bw, filler, NA, 999, 999, 1, 24, 181, 188, 166, 106, 163, 105, 3, 0.61565
229, 3, bw, attraction, a-b-da, 2, 3, 1, 25, 193, 119, 195, 120, 120, 195, 3, 1.40448
229, 3, bw, attraction, a-b-da, 2, 3, 1, 25, 193, 119, 195, 120, 120, 195, 2, 0.755516
229, 3, bw, attraction, a-b-da, 14, 3, 1, 26, 120, 195, 181, 111, 195, 120, 1, 1.06706
229, 3, bw, attraction, a-b-da, 14, 3, 1, 26, 120, 195, 181, 111, 195, 120, 2, 1.1915
229, 3, bw, attraction, a-b-db, 9, 2, 1, 27, 86, 157, 165, 90, 90, 165, 3, 1.349
229, 3, bw, attraction, a-b-db, 9, 2, 1, 27, 86, 157, 165, 90, 90, 165, 2, 0.605912
229, 3, bw, attraction, a-b-da, 9, 2, 1, 28, 165, 90, 157, 86, 90, 165, 3, 1.33166
229, 3, bw, attraction, a-b-da, 9, 2, 1, 28, 165, 90, 157, 86, 90, 165, 2, 0.293262
229, 3, bw, filler, NA, 999, 999, 1, 29, 110, 181, 57, 135, 186, 175, 3, 0.615057
229, 3, bw, filler, NA, 999, 999, 1, 29, 110, 181, 57, 135, 186, 175, 2, 0.365505
229, 3, bw, attraction, a-b-db, 2, 1, 1, 30, 60, 135, 59, 134, 135, 60, 2, 0.812679
229, 3, bw, attraction, a-b-db, 2, 1, 1, 30, 60, 135, 59, 134, 135, 60, 3, 0.194998
229, 3, bw, attraction, a-b-db, 14, 1, 1, 31, 60, 135, 135, 60, 56, 125, 1, 0.888845
229, 3, bw, attraction, a-b-db, 14, 1, 1, 31, 60, 135, 135, 60, 56, 125, 2, 0.436149
229, 3, bw, attraction, a-b-db, 14, 2, 1, 32, 165, 90, 83, 153, 90, 165, 1, 2.6086
229, 3, bw, attraction, a-b-db, 14, 2, 1, 32, 165, 90, 83, 153, 90, 165, 2, 0.494309
229, 3, bw, filler, NA, 999, 999, 1, 33, 72, 148, 184, 191, 158, 97, 2, 0.535968
229, 3, bw, filler, NA, 999, 999, 1, 33, 72, 148, 184, 191, 158, 97, 1, 0.465941
229, 3, bw, attraction, a-b-db, 5, 1, 1, 34, 60, 135, 58, 132, 135, 60, 3, 2.59698
229, 3, bw, attraction, a-b-db, 5, 1, 1, 34, 60, 135, 58, 132, 135, 60, 2, 0.419492
229, 3, bw, filler, NA, 999, 999, 1, 35, 133, 121, 138, 56, 134, 144, 3, 0.864714
229, 3, bw, filler, NA, 999, 999, 1, 35, 133, 121, 138, 56, 134, 144, 2, 0.340991
229, 3, bw, attraction, a-b-db, 14, 3, 1, 36, 120, 195, 111, 181, 195, 120, 1, 1.28484
229, 3, bw, attraction, a-b-db, 14, 3, 1, 36, 120, 195, 111, 181, 195, 120, 2, 0.632388
229, 3, bw, catch, NA, 999, 999, 1, 37, 155, 160, 126, 129, 86, 109, 1, 0.812858
229, 3, bw, catch, NA, 999, 999, 1, 37, 155, 160, 126, 129, 86, 109, 3, 0.363305
229, 3, bw, filler, NA, 999, 999, 2, 1, 134, 150, 145, 190, 93, 179, 2, 0.570389
229, 3, bw, filler, NA, 999, 999, 2, 1, 134, 150, 145, 190, 93, 179, 3, 0.266804
229, 3, bw, attraction, a-b-da, 14, 3, 2, 2, 195, 120, 181, 111, 120, 195, 3, 1.34203
229, 3, bw, attraction, a-b-da, 14, 3, 2, 2, 195, 120, 181, 111, 120, 195, 2, 0.214931
229, 3, bw, attraction, a-b-da, 9, 2, 2, 3, 90, 165, 165, 90, 157, 86, 2, 1.82813
229, 3, bw, attraction, a-b-da, 9, 2, 2, 3, 90, 165, 165, 90, 157, 86, 3, 2.03358
229, 3, bw, attraction, a-b-db, 2, 3, 2, 4, 120, 195, 195, 120, 119, 193, 3, 1.15749
229, 3, bw, attraction, a-b-db, 2, 3, 2, 4, 120, 195, 195, 120, 119, 193, 1, 5.15786
229, 3, bw, attraction, a-b-da, 5, 2, 2, 5, 90, 165, 165, 90, 161, 88, 3, 9.55622
229, 3, bw, attraction, a-b-da, 5, 2, 2, 5, 90, 165, 165, 90, 161, 88, 2, 0.353778
229, 3, bw, attraction, a-b-da, 14, 2, 2, 6, 90, 165, 165, 90, 153, 83, 2, 2.43354
229, 3, bw, attraction, a-b-da, 14, 2, 2, 6, 90, 165, 165, 90, 153, 83, 3, 2.15893
229, 3, bw, attraction, a-b-db, 14, 1, 2, 7, 60, 135, 135, 60, 56, 125, 2, 3.43739
229, 3, bw, attraction, a-b-db, 14, 1, 2, 7, 60, 135, 135, 60, 56, 125, 3, 0.514313
229, 3, bw, attraction, a-b-db, 9, 1, 2, 8, 57, 129, 135, 60, 60, 135, 2, 4.03539
229, 3, bw, attraction, a-b-db, 9, 1, 2, 8, 57, 129, 135, 60, 60, 135, 1, 0.832097
229, 3, bw, filler, NA, 999, 999, 2, 9, 129, 177, 106, 137, 106, 90, 1, 0.612453
229, 3, bw, filler, NA, 999, 999, 2, 9, 129, 177, 106, 137, 106, 90, 3, 0.771035
229, 3, bw, attraction, a-b-da, 5, 3, 2, 10, 195, 120, 190, 117, 120, 195, 3, 2.05005
229, 3, bw, attraction, a-b-da, 5, 3, 2, 10, 195, 120, 190, 117, 120, 195, 2, 0.286658
229, 3, bw, filler, NA, 999, 999, 2, 11, 74, 86, 190, 61, 160, 151, 3, 1.00127
229, 3, bw, filler, NA, 999, 999, 2, 11, 74, 86, 190, 61, 160, 151, 1, 0.480233
229, 3, bw, filler, NA, 999, 999, 2, 12, 68, 169, 120, 76, 79, 184, 3, 1.07466
229, 3, bw, filler, NA, 999, 999, 2, 12, 68, 169, 120, 76, 79, 184, 2, 0.758167
229, 3, bw, filler, NA, 999, 999, 2, 13, 88, 112, 154, 87, 152, 165, 3, 0.541271
229, 3, bw, filler, NA, 999, 999, 2, 13, 88, 112, 154, 87, 152, 165, 1, 0.43035
229, 3, bw, attraction, a-b-db, 5, 2, 2, 14, 90, 165, 88, 161, 165, 90, 2, 1.05096
229, 3, bw, attraction, a-b-db, 5, 2, 2, 14, 90, 165, 88, 161, 165, 90, 1, 0.623935
229, 3, bw, attraction, a-b-da, 2, 2, 2, 15, 165, 90, 90, 165, 163, 89, 2, 0.692259
229, 3, bw, attraction, a-b-da, 2, 2, 2, 15, 165, 90, 90, 165, 163, 89, 3, 0.391411
229, 3, bw, attraction, a-b-da, 5, 1, 2, 16, 132, 58, 135, 60, 60, 135, 3, 1.19712
229, 3, bw, attraction, a-b-da, 5, 1, 2, 16, 132, 58, 135, 60, 60, 135, 2, 0.412126
229, 3, bw, catch, NA, 999, 999, 2, 17, 152, 103, 79, 116, 173, 142, 3, 2.24143
229, 3, bw, catch, NA, 999, 999, 2, 17, 152, 103, 79, 116, 173, 142, 2, 0.365803
229, 3, bw, catch, NA, 999, 999, 2, 18, 160, 155, 143, 112, 99, 96, 1, 0.965059
229, 3, bw, catch, NA, 999, 999, 2, 18, 160, 155, 143, 112, 99, 96, 3, 0.597391
229, 3, bw, attraction, a-b-da, 14, 1, 2, 19, 135, 60, 60, 135, 125, 56, 1, 2.17907
229, 3, bw, attraction, a-b-da, 14, 1, 2, 19, 135, 60, 60, 135, 125, 56, 3, 0.594555
229, 3, bw, filler, NA, 999, 999, 2, 20, 110, 178, 109, 175, 172, 103, 1, 1.54418
229, 3, bw, filler, NA, 999, 999, 2, 20, 110, 178, 109, 175, 172, 103, 2, 0.32098
229, 3, bw, attraction, a-b-db, 14, 3, 2, 21, 120, 195, 195, 120, 111, 181, 1, 2.11414
229, 3, bw, attraction, a-b-db, 14, 3, 2, 21, 120, 195, 195, 120, 111, 181, 3, 0.604116
229, 3, bw, attraction, a-b-da, 9, 3, 2, 22, 195, 120, 186, 114, 120, 195, 3, 1.80994
229, 3, bw, attraction, a-b-da, 9, 3, 2, 22, 195, 120, 186, 114, 120, 195, 2, 1.76002
229, 3, bw, attraction, a-b-db, 14, 2, 2, 23, 83, 153, 165, 90, 90, 165, 2, 2.12664
229, 3, bw, attraction, a-b-db, 14, 2, 2, 23, 83, 153, 165, 90, 90, 165, 1, 0.312021
229, 3, bw, attraction, a-b-da, 2, 3, 2, 24, 193, 119, 195, 120, 120, 195, 1, 3.41719
229, 3, bw, attraction, a-b-da, 2, 3, 2, 24, 193, 119, 195, 120, 120, 195, 2, 0.454741
229, 3, bw, filler, NA, 999, 999, 2, 25, 96, 164, 86, 178, 143, 61, 1, 2.67457
229, 3, bw, filler, NA, 999, 999, 2, 25, 96, 164, 86, 178, 143, 61, 3, 0.461761
229, 3, bw, filler, NA, 999, 999, 2, 26, 76, 111, 192, 184, 68, 79, 2, 0.480836
229, 3, bw, filler, NA, 999, 999, 2, 26, 76, 111, 192, 184, 68, 79, 3, 0.476697
229, 3, bw, attraction, a-b-da, 2, 1, 2, 27, 134, 59, 135, 60, 60, 135, 1, 2.2551
229, 3, bw, attraction, a-b-da, 2, 1, 2, 27, 134, 59, 135, 60, 60, 135, 3, 0.2197
229, 3, bw, filler, NA, 999, 999, 2, 28, 100, 172, 139, 180, 81, 169, 2, 1.08089
229, 3, bw, filler, NA, 999, 999, 2, 28, 100, 172, 139, 180, 81, 169, 3, 0.324506
229, 3, bw, attraction, a-b-db, 2, 1, 2, 29, 60, 135, 59, 134, 135, 60, 2, 2.78923
229, 3, bw, attraction, a-b-db, 2, 1, 2, 29, 60, 135, 59, 134, 135, 60, 1, 0.219484
229, 3, bw, attraction, a-b-db, 9, 2, 2, 30, 90, 165, 86, 157, 165, 90, 1, 2.18466
229, 3, bw, attraction, a-b-db, 9, 2, 2, 30, 90, 165, 86, 157, 165, 90, 2, 0.200016
229, 3, bw, catch, NA, 999, 999, 2, 31, 125, 190, 97, 158, 93, 102, 1, 0.749851
229, 3, bw, catch, NA, 999, 999, 2, 31, 125, 190, 97, 158, 93, 102, 3, 0.390965
229, 3, bw, attraction, a-b-db, 9, 3, 2, 32, 114, 186, 195, 120, 120, 195, 3, 1.21305
229, 3, bw, attraction, a-b-db, 9, 3, 2, 32, 114, 186, 195, 120, 120, 195, 1, 0.73897
229, 3, bw, attraction, a-b-db, 5, 1, 2, 33, 58, 132, 135, 60, 60, 135, 2, 1.75553
229, 3, bw, attraction, a-b-db, 5, 1, 2, 33, 58, 132, 135, 60, 60, 135, 3, 0.419503
229, 3, bw, attraction, a-b-da, 9, 1, 2, 34, 135, 60, 129, 57, 60, 135, 1, 1.72072
229, 3, bw, attraction, a-b-da, 9, 1, 2, 34, 135, 60, 129, 57, 60, 135, 3, 0.170034
229, 3, bw, attraction, a-b-db, 2, 2, 2, 35, 165, 90, 90, 165, 89, 163, 2, 1.35333
229, 3, bw, attraction, a-b-db, 2, 2, 2, 35, 165, 90, 90, 165, 89, 163, 3, 0.210136
229, 3, bw, filler, NA, 999, 999, 2, 36, 168, 59, 176, 171, 102, 167, 2, 0.879303
229, 3, bw, filler, NA, 999, 999, 2, 36, 168, 59, 176, 171, 102, 167, 1, 0.627097
229, 3, bw, attraction, a-b-db, 5, 3, 2, 37, 117, 190, 120, 195, 195, 120, 1, 1.65546
229, 3, bw, attraction, a-b-db, 5, 3, 2, 37, 117, 190, 120, 195, 195, 120, 2, 0.971818
229, 3, bw, attraction, a-b-db, 5, 2, 3, 1, 90, 165, 165, 90, 88, 161, 2, 3.66669
229, 3, bw, attraction, a-b-db, 5, 2, 3, 1, 90, 165, 165, 90, 88, 161, 3, 0.502081
229, 3, bw, attraction, a-b-db, 2, 3, 3, 2, 120, 195, 119, 193, 195, 120, 1, 1.46384
229, 3, bw, attraction, a-b-db, 2, 3, 3, 2, 120, 195, 119, 193, 195, 120, 2, 0.180012
229, 3, bw, attraction, a-b-da, 9, 3, 3, 3, 186, 114, 195, 120, 120, 195, 3, 1.85852
229, 3, bw, attraction, a-b-da, 9, 3, 3, 3, 186, 114, 195, 120, 120, 195, 1, 0.366615
229, 3, bw, attraction, a-b-da, 2, 3, 3, 4, 120, 195, 193, 119, 195, 120, 1, 1.22173
229, 3, bw, attraction, a-b-da, 2, 3, 3, 4, 120, 195, 193, 119, 195, 120, 2, 0.155354
229, 3, bw, catch, NA, 999, 999, 3, 5, 147, 108, 188, 127, 130, 65, 2, 1.04334
229, 3, bw, catch, NA, 999, 999, 3, 5, 147, 108, 188, 127, 130, 65, 3, 0.448291
229, 3, bw, filler, NA, 999, 999, 3, 6, 132, 113, 148, 163, 96, 158, 2, 0.65204
229, 3, bw, filler, NA, 999, 999, 3, 6, 132, 113, 148, 163, 96, 158, 1, 1.62521
229, 3, bw, filler, NA, 999, 999, 3, 7, 81, 79, 191, 193, 183, 135, 2, 0.813687
229, 3, bw, filler, NA, 999, 999, 3, 7, 81, 79, 191, 193, 183, 135, 1, 0.339752
229, 3, bw, attraction, a-b-db, 14, 2, 3, 8, 83, 153, 165, 90, 90, 165, 1, 1.11628
229, 3, bw, attraction, a-b-db, 14, 2, 3, 8, 83, 153, 165, 90, 90, 165, 2, 0.726638
229, 3, bw, filler, NA, 999, 999, 3, 9, 118, 69, 112, 84, 188, 84, 2, 1.43087
229, 3, bw, filler, NA, 999, 999, 3, 9, 118, 69, 112, 84, 188, 84, 1, 0.268387
229, 3, bw, attraction, a-b-db, 2, 1, 3, 10, 135, 60, 60, 135, 59, 134, 2, 0.655725
229, 3, bw, attraction, a-b-db, 2, 1, 3, 10, 135, 60, 60, 135, 59, 134, 3, 0.684057
229, 3, bw, attraction, a-b-da, 5, 1, 3, 11, 132, 58, 60, 135, 135, 60, 1, 1.15044
229, 3, bw, attraction, a-b-da, 5, 1, 3, 11, 132, 58, 60, 135, 135, 60, 3, 0.271405
229, 3, bw, filler, NA, 999, 999, 3, 12, 182, 137, 151, 168, 94, 165, 2, 0.578693
229, 3, bw, filler, NA, 999, 999, 3, 12, 182, 137, 151, 168, 94, 165, 3, 0.522386
229, 3, bw, filler, NA, 999, 999, 3, 13, 154, 132, 147, 162, 56, 154, 2, 0.731493
229, 3, bw, filler, NA, 999, 999, 3, 13, 154, 132, 147, 162, 56, 154, 3, 0.693253
229, 3, bw, attraction, a-b-db, 9, 3, 3, 14, 195, 120, 120, 195, 114, 186, 2, 1.367
229, 3, bw, attraction, a-b-db, 9, 3, 3, 14, 195, 120, 120, 195, 114, 186, 3, 0.559082
229, 3, bw, attraction, a-b-da, 14, 2, 3, 15, 90, 165, 165, 90, 153, 83, 1, 1.86232
229, 3, bw, attraction, a-b-da, 14, 2, 3, 15, 90, 165, 165, 90, 153, 83, 3, 0.370308
229, 3, bw, catch, NA, 999, 999, 3, 16, 71, 124, 160, 155, 95, 160, 2, 0.425391
229, 3, bw, catch, NA, 999, 999, 3, 16, 71, 124, 160, 155, 95, 160, 1, 0.639295
229, 3, bw, attraction, a-b-da, 14, 1, 3, 17, 125, 56, 135, 60, 60, 135, 3, 1.2356
229, 3, bw, attraction, a-b-da, 14, 1, 3, 17, 125, 56, 135, 60, 60, 135, 1, 0.569225
229, 3, bw, attraction, a-b-db, 14, 1, 3, 18, 60, 135, 135, 60, 56, 125, 2, 0.920406
229, 3, bw, attraction, a-b-db, 14, 1, 3, 18, 60, 135, 135, 60, 56, 125, 3, 0.306697
229, 3, bw, filler, NA, 999, 999, 3, 19, 176, 170, 171, 156, 160, 102, 1, 0.755831
229, 3, bw, filler, NA, 999, 999, 3, 19, 176, 170, 171, 156, 160, 102, 3, 0.340327
229, 3, bw, attraction, a-b-da, 14, 3, 3, 20, 181, 111, 195, 120, 120, 195, 3, 1.11627
229, 3, bw, attraction, a-b-da, 14, 3, 3, 20, 181, 111, 195, 120, 120, 195, 1, 0.582414
229, 3, bw, attraction, a-b-db, 14, 3, 3, 21, 120, 195, 111, 181, 195, 120, 1, 1.56485
229, 3, bw, attraction, a-b-db, 14, 3, 3, 21, 120, 195, 111, 181, 195, 120, 2, 0.189161
229, 3, bw, attraction, a-b-da, 2, 2, 3, 22, 165, 90, 90, 165, 163, 89, 3, 2.21958
229, 3, bw, attraction, a-b-da, 2, 2, 3, 22, 165, 90, 90, 165, 163, 89, 2, 0.241461
229, 3, bw, attraction, a-b-db, 5, 3, 3, 23, 120, 195, 117, 190, 195, 120, 1, 1.22133
229, 3, bw, attraction, a-b-db, 5, 3, 3, 23, 120, 195, 117, 190, 195, 120, 2, 0.203612
229, 3, bw, filler, NA, 999, 999, 3, 24, 81, 96, 96, 94, 92, 182, 3, 1.22557
229, 3, bw, filler, NA, 999, 999, 3, 24, 81, 96, 96, 94, 92, 182, 1, 0.695173
229, 3, bw, attraction, a-b-db, 5, 1, 3, 25, 58, 132, 135, 60, 60, 135, 2, 2.84879
229, 3, bw, attraction, a-b-db, 5, 1, 3, 25, 58, 132, 135, 60, 60, 135, 1, 0.501211
229, 3, bw, catch, NA, 999, 999, 3, 26, 131, 124, 101, 94, 195, 120, 1, 0.943122
229, 3, bw, catch, NA, 999, 999, 3, 26, 131, 124, 101, 94, 195, 120, 2, 0.431958
229, 3, bw, attraction, a-b-da, 5, 2, 3, 27, 90, 165, 165, 90, 161, 88, 1, 3.40455
229, 3, bw, attraction, a-b-da, 5, 2, 3, 27, 90, 165, 165, 90, 161, 88, 2, 0.290709
229, 3, bw, filler, NA, 999, 999, 3, 28, 191, 175, 66, 102, 148, 133, 1, 0.54872
229, 3, bw, filler, NA, 999, 999, 3, 28, 191, 175, 66, 102, 148, 133, 2, 0.237753
229, 3, bw, attraction, a-b-da, 5, 3, 3, 29, 195, 120, 120, 195, 190, 117, 1, 2.65825
229, 3, bw, attraction, a-b-da, 5, 3, 3, 29, 195, 120, 120, 195, 190, 117, 3, 0.254107
229, 3, bw, attraction, a-b-da, 2, 1, 3, 30, 134, 59, 135, 60, 60, 135, 1, 1.62587
229, 3, bw, attraction, a-b-da, 2, 1, 3, 30, 134, 59, 135, 60, 60, 135, 2, 0.271421
229, 3, bw, attraction, a-b-da, 9, 1, 3, 31, 60, 135, 129, 57, 135, 60, 1, 0.746663
229, 3, bw, attraction, a-b-da, 9, 1, 3, 31, 60, 135, 129, 57, 135, 60, 2, 0.26767
229, 3, bw, filler, NA, 999, 999, 3, 32, 135, 80, 67, 69, 68, 166, 1, 0.614856
229, 3, bw, filler, NA, 999, 999, 3, 32, 135, 80, 67, 69, 68, 166, 2, 0.725332
229, 3, bw, filler, NA, 999, 999, 3, 33, 185, 191, 82, 96, 79, 89, 1, 0.501653
229, 3, bw, filler, NA, 999, 999, 3, 33, 185, 191, 82, 96, 79, 89, 3, 0.688893
229, 3, bw, attraction, a-b-db, 2, 2, 3, 34, 89, 163, 165, 90, 90, 165, 1, 1.17934
229, 3, bw, attraction, a-b-db, 2, 2, 3, 34, 89, 163, 165, 90, 90, 165, 3, 1.22687
229, 3, bw, attraction, a-b-db, 9, 2, 3, 35, 165, 90, 86, 157, 90, 165, 1, 1.89501
229, 3, bw, attraction, a-b-db, 9, 2, 3, 35, 165, 90, 86, 157, 90, 165, 2, 0.2578
229, 3, bw, attraction, a-b-db, 9, 1, 3, 36, 60, 135, 57, 129, 135, 60, 3, 2.26094
229, 3, bw, attraction, a-b-db, 9, 1, 3, 36, 60, 135, 57, 129, 135, 60, 2, 0.449155
229, 3, bw, attraction, a-b-da, 9, 2, 3, 37, 157, 86, 165, 90, 90, 165, 2, 2.22877
229, 3, bw, attraction, a-b-da, 9, 2, 3, 37, 157, 86, 165, 90, 90, 165, 1, 0.306046
229, 3, bw, attraction, a-b-db, 14, 2, 4, 1, 90, 165, 83, 153, 165, 90, 1, 1.10795
229, 3, bw, attraction, a-b-db, 14, 2, 4, 1, 90, 165, 83, 153, 165, 90, 2, 0.198184
229, 3, bw, attraction, a-b-db, 14, 3, 4, 2, 195, 120, 111, 181, 120, 195, 3, 0.963942
229, 3, bw, attraction, a-b-db, 14, 3, 4, 2, 195, 120, 111, 181, 120, 195, 2, 0.332309
229, 3, bw, filler, NA, 999, 999, 4, 3, 140, 111, 192, 159, 186, 76, 2, 0.74082
229, 3, bw, filler, NA, 999, 999, 4, 3, 140, 111, 192, 159, 186, 76, 3, 5.10215
229, 3, bw, filler, NA, 999, 999, 4, 4, 150, 108, 87, 58, 186, 83, 1, 1.61422
229, 3, bw, filler, NA, 999, 999, 4, 4, 150, 108, 87, 58, 186, 83, 2, 0.524353
229, 3, bw, attraction, a-b-db, 2, 3, 4, 5, 120, 195, 195, 120, 119, 193, 1, 1.54885
229, 3, bw, attraction, a-b-db, 2, 3, 4, 5, 120, 195, 195, 120, 119, 193, 3, 0.17364
229, 3, bw, filler, NA, 999, 999, 4, 6, 178, 175, 98, 143, 95, 127, 1, 0.580259
229, 3, bw, filler, NA, 999, 999, 4, 6, 178, 175, 98, 143, 95, 127, 3, 0.508005
229, 3, bw, attraction, a-b-db, 2, 1, 4, 7, 135, 60, 60, 135, 59, 134, 2, 1.0531
229, 3, bw, attraction, a-b-db, 2, 1, 4, 7, 135, 60, 60, 135, 59, 134, 3, 0.162094
229, 3, bw, attraction, a-b-da, 5, 3, 4, 8, 120, 195, 195, 120, 190, 117, 1, 2.48129
229, 3, bw, attraction, a-b-da, 5, 3, 4, 8, 120, 195, 195, 120, 190, 117, 2, 0.29253
229, 3, bw, attraction, a-b-da, 9, 3, 4, 9, 186, 114, 120, 195, 195, 120, 2, 0.862514
229, 3, bw, attraction, a-b-da, 9, 3, 4, 9, 186, 114, 120, 195, 195, 120, 3, 0.170772
229, 3, bw, catch, NA, 999, 999, 4, 10, 104, 151, 140, 175, 68, 127, 2, 0.490024
229, 3, bw, catch, NA, 999, 999, 4, 10, 104, 151, 140, 175, 68, 127, 3, 0.469096
229, 3, bw, filler, NA, 999, 999, 4, 11, 191, 87, 66, 65, 168, 171, 3, 0.656486
229, 3, bw, filler, NA, 999, 999, 4, 11, 191, 87, 66, 65, 168, 171, 2, 0.268755
229, 3, bw, attraction, a-b-da, 2, 1, 4, 12, 60, 135, 134, 59, 135, 60, 2, 2.67183
229, 3, bw, attraction, a-b-da, 2, 1, 4, 12, 60, 135, 134, 59, 135, 60, 1, 0.227666
229, 3, bw, attraction, a-b-da, 9, 1, 4, 13, 60, 135, 129, 57, 135, 60, 2, 1.11222
229, 3, bw, attraction, a-b-da, 9, 1, 4, 13, 60, 135, 129, 57, 135, 60, 3, 0.170634
229, 3, bw, attraction, a-b-da, 2, 2, 4, 14, 165, 90, 90, 165, 163, 89, 2, 0.857694
229, 3, bw, attraction, a-b-da, 2, 2, 4, 14, 165, 90, 90, 165, 163, 89, 3, 0.198207
229, 3, bw, filler, NA, 999, 999, 4, 15, 156, 193, 121, 192, 56, 78, 1, 0.700023
229, 3, bw, filler, NA, 999, 999, 4, 15, 156, 193, 121, 192, 56, 78, 3, 0.215173
229, 3, bw, filler, NA, 999, 999, 4, 16, 107, 66, 152, 98, 173, 107, 3, 0.612404
229, 3, bw, filler, NA, 999, 999, 4, 16, 107, 66, 152, 98, 173, 107, 2, 0.210762
229, 3, bw, attraction, a-b-da, 14, 3, 4, 17, 181, 111, 120, 195, 195, 120, 2, 1.15995
229, 3, bw, attraction, a-b-da, 14, 3, 4, 17, 181, 111, 120, 195, 195, 120, 3, 0.240364
229, 3, bw, attraction, a-b-db, 5, 1, 4, 18, 135, 60, 58, 132, 60, 135, 3, 0.948155
229, 3, bw, attraction, a-b-db, 5, 1, 4, 18, 135, 60, 58, 132, 60, 135, 2, 0.349162
229, 3, bw, catch, NA, 999, 999, 4, 19, 155, 100, 143, 172, 105, 90, 2, 0.501006
229, 3, bw, catch, NA, 999, 999, 4, 19, 155, 100, 143, 172, 105, 90, 3, 0.272046
229, 3, bw, attraction, a-b-da, 9, 2, 4, 20, 165, 90, 157, 86, 90, 165, 2, 2.30735
229, 3, bw, attraction, a-b-da, 9, 2, 4, 20, 165, 90, 157, 86, 90, 165, 3, 0.653207
229, 3, bw, attraction, a-b-da, 2, 3, 4, 21, 120, 195, 195, 120, 193, 119, 1, 1.00895
229, 3, bw, attraction, a-b-da, 2, 3, 4, 21, 120, 195, 195, 120, 193, 119, 3, 0.631338
229, 3, bw, attraction, a-b-db, 2, 2, 4, 22, 90, 165, 89, 163, 165, 90, 2, 1.00376
229, 3, bw, attraction, a-b-db, 2, 2, 4, 22, 90, 165, 89, 163, 165, 90, 1, 0.194628
229, 3, bw, attraction, a-b-da, 14, 1, 4, 23, 125, 56, 60, 135, 135, 60, 3, 2.16861
229, 3, bw, attraction, a-b-da, 14, 1, 4, 23, 125, 56, 60, 135, 135, 60, 1, 0.376748
229, 3, bw, attraction, a-b-db, 5, 2, 4, 24, 90, 165, 165, 90, 88, 161, 2, 0.566978
229, 3, bw, attraction, a-b-db, 5, 2, 4, 24, 90, 165, 165, 90, 88, 161, 3, 0.279458
229, 3, bw, filler, NA, 999, 999, 4, 25, 184, 147, 167, 181, 140, 120, 2, 0.449989
229, 3, bw, filler, NA, 999, 999, 4, 25, 184, 147, 167, 181, 140, 120, 3, 0.367173
229, 3, bw, attraction, a-b-da, 5, 1, 4, 26, 132, 58, 60, 135, 135, 60, 1, 1.67046
229, 3, bw, attraction, a-b-da, 5, 1, 4, 26, 132, 58, 60, 135, 135, 60, 3, 0.482554
229, 3, bw, attraction, a-b-db, 9, 2, 4, 27, 165, 90, 86, 157, 90, 165, 1, 1.4209
229, 3, bw, attraction, a-b-db, 9, 2, 4, 27, 165, 90, 86, 157, 90, 165, 3, 0.555053
229, 3, bw, attraction, a-b-db, 9, 1, 4, 28, 57, 129, 60, 135, 135, 60, 3, 2.34683
229, 3, bw, attraction, a-b-db, 9, 1, 4, 28, 57, 129, 60, 135, 135, 60, 1, 0.259507
229, 3, bw, attraction, a-b-da, 14, 2, 4, 29, 90, 165, 153, 83, 165, 90, 3, 2.02276
229, 3, bw, attraction, a-b-da, 14, 2, 4, 29, 90, 165, 153, 83, 165, 90, 2, 0.187951
229, 3, bw, filler, NA, 999, 999, 4, 30, 134, 85, 146, 60, 75, 57, 2, 1.31451
229, 3, bw, filler, NA, 999, 999, 4, 30, 134, 85, 146, 60, 75, 57, 3, 0.524704
229, 3, bw, catch, NA, 999, 999, 4, 31, 109, 146, 143, 172, 108, 87, 2, 0.541153
229, 3, bw, catch, NA, 999, 999, 4, 31, 109, 146, 143, 172, 108, 87, 3, 0.374292
229, 3, bw, attraction, a-b-db, 9, 3, 4, 32, 195, 120, 114, 186, 120, 195, 2, 2.1969
229, 3, bw, attraction, a-b-db, 9, 3, 4, 32, 195, 120, 114, 186, 120, 195, 3, 0.171547
229, 3, bw, attraction, a-b-db, 5, 3, 4, 33, 120, 195, 117, 190, 195, 120, 3, 0.778683
229, 3, bw, attraction, a-b-db, 5, 3, 4, 33, 120, 195, 117, 190, 195, 120, 2, 0.258371
229, 3, bw, attraction, a-b-da, 5, 2, 4, 34, 161, 88, 90, 165, 165, 90, 1, 0.933631
229, 3, bw, attraction, a-b-da, 5, 2, 4, 34, 161, 88, 90, 165, 165, 90, 3, 0.439297
229, 3, bw, filler, NA, 999, 999, 4, 35, 100, 157, 181, 94, 146, 185, 3, 0.707848
229, 3, bw, filler, NA, 999, 999, 4, 35, 100, 157, 181, 94, 146, 185, 1, 0.590171
229, 3, bw, filler, NA, 999, 999, 4, 36, 163, 188, 69, 163, 105, 112, 1, 0.595824
229, 3, bw, filler, NA, 999, 999, 4, 36, 163, 188, 69, 163, 105, 112, 3, 0.187111
229, 3, bw, attraction, a-b-db, 14, 1, 4, 37, 135, 60, 60, 135, 56, 125, 1, 1.05767
229, 3, bw, attraction, a-b-db, 14, 1, 4, 37, 135, 60, 60, 135, 56, 125, 3, 0.174053
229, 3, bw, filler, NA, 999, 999, 5, 1, 73, 98, 72, 101, 108, 76, 3, 2.61114
229, 3, bw, filler, NA, 999, 999, 5, 1, 73, 98, 72, 101, 108, 76, 1, 0.448819
229, 3, bw, filler, NA, 999, 999, 5, 2, 134, 109, 76, 182, 127, 86, 1, 1.03662
229, 3, bw, filler, NA, 999, 999, 5, 2, 134, 109, 76, 182, 127, 86, 3, 0.37833
229, 3, bw, filler, NA, 999, 999, 5, 3, 162, 174, 131, 193, 65, 105, 1, 2.45687
229, 3, bw, filler, NA, 999, 999, 5, 3, 162, 174, 131, 193, 65, 105, 3, 0.452694
229, 3, bw, attraction, a-b-da, 9, 3, 5, 4, 186, 114, 195, 120, 120, 195, 2, 1.36053
229, 3, bw, attraction, a-b-da, 9, 3, 5, 4, 186, 114, 195, 120, 120, 195, 1, 0.592695
229, 3, bw, attraction, a-b-da, 5, 1, 5, 5, 60, 135, 135, 60, 132, 58, 2, 1.40639
229, 3, bw, attraction, a-b-da, 5, 1, 5, 5, 60, 135, 135, 60, 132, 58, 1, 1.03665
229, 3, bw, attraction, a-b-db, 5, 3, 5, 6, 120, 195, 195, 120, 117, 190, 2, 1.73704
229, 3, bw, attraction, a-b-db, 5, 3, 5, 6, 120, 195, 195, 120, 117, 190, 3, 0.258372
229, 3, bw, attraction, a-b-da, 2, 2, 5, 7, 90, 165, 165, 90, 163, 89, 2, 1.78157
229, 3, bw, attraction, a-b-da, 2, 2, 5, 7, 90, 165, 165, 90, 163, 89, 1, 0.988971
229, 3, bw, catch, NA, 999, 999, 5, 8, 130, 65, 102, 153, 173, 142, 3, 0.571295
229, 3, bw, catch, NA, 999, 999, 5, 8, 130, 65, 102, 153, 173, 142, 1, 0.379194
229, 3, bw, attraction, a-b-db, 2, 3, 5, 9, 119, 193, 120, 195, 195, 120, 1, 2.19358
229, 3, bw, attraction, a-b-db, 2, 3, 5, 9, 119, 193, 120, 195, 195, 120, 2, 1.22426
229, 3, bw, attraction, a-b-db, 9, 1, 5, 10, 135, 60, 57, 129, 60, 135, 1, 1.00454
229, 3, bw, attraction, a-b-db, 9, 1, 5, 10, 135, 60, 57, 129, 60, 135, 2, 0.410747
229, 3, bw, filler, NA, 999, 999, 5, 11, 166, 139, 153, 122, 66, 181, 1, 0.799887
229, 3, bw, filler, NA, 999, 999, 5, 11, 166, 139, 153, 122, 66, 181, 2, 1.62298
229, 3, bw, filler, NA, 999, 999, 5, 12, 89, 184, 89, 160, 159, 98, 1, 2.23567
229, 3, bw, filler, NA, 999, 999, 5, 12, 89, 184, 89, 160, 159, 98, 2, 0.552945
229, 3, bw, attraction, a-b-db, 5, 2, 5, 13, 165, 90, 88, 161, 90, 165, 3, 1.69687
229, 3, bw, attraction, a-b-db, 5, 2, 5, 13, 165, 90, 88, 161, 90, 165, 2, 0.251589
229, 3, bw, attraction, a-b-db, 2, 2, 5, 14, 165, 90, 90, 165, 89, 163, 2, 1.67137
229, 3, bw, attraction, a-b-db, 2, 2, 5, 14, 165, 90, 90, 165, 89, 163, 3, 0.211473
229, 3, bw, attraction, a-b-db, 9, 2, 5, 15, 90, 165, 86, 157, 165, 90, 1, 1.96065
229, 3, bw, attraction, a-b-db, 9, 2, 5, 15, 90, 165, 86, 157, 165, 90, 2, 0.216701
229, 3, bw, attraction, a-b-da, 14, 3, 5, 16, 195, 120, 120, 195, 181, 111, 1, 1.58992
229, 3, bw, attraction, a-b-da, 14, 3, 5, 16, 195, 120, 120, 195, 181, 111, 3, 0.340876
229, 3, bw, attraction, a-b-da, 5, 2, 5, 17, 90, 165, 161, 88, 165, 90, 3, 2.86864
229, 3, bw, attraction, a-b-da, 5, 2, 5, 17, 90, 165, 161, 88, 165, 90, 2, 0.248301
229, 3, bw, filler, NA, 999, 999, 5, 18, 128, 64, 126, 188, 92, 167, 2, 0.84415
229, 3, bw, filler, NA, 999, 999, 5, 18, 128, 64, 126, 188, 92, 167, 1, 1.36127
229, 3, bw, catch, NA, 999, 999, 5, 19, 194, 121, 142, 113, 123, 72, 1, 1.00022
229, 3, bw, catch, NA, 999, 999, 5, 19, 194, 121, 142, 113, 123, 72, 3, 0.231078
229, 3, bw, filler, NA, 999, 999, 5, 20, 150, 84, 56, 191, 64, 127, 1, 1.85971
229, 3, bw, filler, NA, 999, 999, 5, 20, 150, 84, 56, 191, 64, 127, 3, 0.359735
229, 3, bw, attraction, a-b-da, 2, 3, 5, 21, 195, 120, 120, 195, 193, 119, 3, 4.53485
229, 3, bw, attraction, a-b-da, 2, 3, 5, 21, 195, 120, 120, 195, 193, 119, 1, 0.471424
229, 3, bw, attraction, a-b-da, 2, 1, 5, 22, 135, 60, 60, 135, 134, 59, 1, 0.930521
229, 3, bw, attraction, a-b-da, 2, 1, 5, 22, 135, 60, 60, 135, 134, 59, 3, 0.284182
229, 3, bw, attraction, a-b-db, 14, 3, 5, 23, 195, 120, 120, 195, 111, 181, 1, 3.34294
229, 3, bw, attraction, a-b-db, 14, 3, 5, 23, 195, 120, 120, 195, 111, 181, 3, 0.775031
229, 3, bw, attraction, a-b-db, 5, 1, 5, 24, 58, 132, 60, 135, 135, 60, 3, 2.26154
229, 3, bw, attraction, a-b-db, 5, 1, 5, 24, 58, 132, 60, 135, 135, 60, 2, 1.18535
229, 3, bw, attraction, a-b-da, 14, 2, 5, 25, 153, 83, 165, 90, 90, 165, 2, 1.23165
229, 3, bw, attraction, a-b-da, 14, 2, 5, 25, 153, 83, 165, 90, 90, 165, 1, 2.25316
229, 3, bw, attraction, a-b-da, 9, 2, 5, 26, 165, 90, 90, 165, 157, 86, 1, 3.21658
229, 3, bw, attraction, a-b-da, 9, 2, 5, 26, 165, 90, 90, 165, 157, 86, 3, 0.934095
229, 3, bw, attraction, a-b-da, 5, 3, 5, 27, 120, 195, 190, 117, 195, 120, 2, 1.10229
229, 3, bw, attraction, a-b-da, 5, 3, 5, 27, 120, 195, 190, 117, 195, 120, 3, 0.193236
229, 3, bw, attraction, a-b-da, 9, 1, 5, 28, 135, 60, 60, 135, 129, 57, 1, 1.32715
229, 3, bw, attraction, a-b-da, 9, 1, 5, 28, 135, 60, 60, 135, 129, 57, 3, 0.448689
229, 3, bw, filler, NA, 999, 999, 5, 29, 59, 88, 176, 184, 131, 186, 2, 1.10057
229, 3, bw, filler, NA, 999, 999, 5, 29, 59, 88, 176, 184, 131, 186, 1, 0.511478
229, 3, bw, attraction, a-b-db, 2, 1, 5, 30, 135, 60, 59, 134, 60, 135, 2, 1.72067
229, 3, bw, attraction, a-b-db, 2, 1, 5, 30, 135, 60, 59, 134, 60, 135, 3, 0.242622
229, 3, bw, filler, NA, 999, 999, 5, 31, 176, 161, 91, 141, 168, 80, 1, 0.526544
229, 3, bw, filler, NA, 999, 999, 5, 31, 176, 161, 91, 141, 168, 80, 2, 0.672336
229, 3, bw, attraction, a-b-db, 14, 2, 5, 32, 165, 90, 90, 165, 83, 153, 2, 1.0595
229, 3, bw, attraction, a-b-db, 14, 2, 5, 32, 165, 90, 90, 165, 83, 153, 3, 0.727819
229, 3, bw, catch, NA, 999, 999, 5, 33, 125, 70, 163, 152, 164, 91, 2, 0.992133
229, 3, bw, catch, NA, 999, 999, 5, 33, 125, 70, 163, 152, 164, 91, 1, 0.215184
229, 3, bw, attraction, a-b-db, 9, 3, 5, 34, 120, 195, 195, 120, 114, 186, 2, 2.17237
229, 3, bw, attraction, a-b-db, 9, 3, 5, 34, 120, 195, 195, 120, 114, 186, 3, 0.627683
229, 3, bw, filler, NA, 999, 999, 5, 35, 64, 117, 177, 104, 134, 93, 2, 1.08003
229, 3, bw, filler, NA, 999, 999, 5, 35, 64, 117, 177, 104, 134, 93, 3, 0.179614
229, 3, bw, attraction, a-b-db, 14, 1, 5, 36, 56, 125, 60, 135, 135, 60, 3, 2.0023
229, 3, bw, attraction, a-b-db, 14, 1, 5, 36, 56, 125, 60, 135, 135, 60, 2, 0.456877
229, 3, bw, attraction, a-b-da, 14, 1, 5, 37, 60, 135, 125, 56, 135, 60, 3, 1.708
229, 3, bw, attraction, a-b-da, 14, 1, 5, 37, 60, 135, 125, 56, 135, 60, 2, 1.02214
229, 3, bw, attraction, a-b-da, 14, 2, 6, 1, 165, 90, 90, 165, 153, 83, 1, 2.65109
229, 3, bw, attraction, a-b-da, 14, 2, 6, 1, 165, 90, 90, 165, 153, 83, 3, 0.375628
229, 3, bw, attraction, a-b-da, 14, 3, 6, 2, 120, 195, 181, 111, 195, 120, 1, 1.24605
229, 3, bw, attraction, a-b-da, 14, 3, 6, 2, 120, 195, 181, 111, 195, 120, 2, 0.554961
229, 3, bw, attraction, a-b-db, 5, 1, 6, 3, 60, 135, 135, 60, 58, 132, 2, 1.28285
229, 3, bw, attraction, a-b-db, 5, 1, 6, 3, 60, 135, 135, 60, 58, 132, 3, 2.48638
229, 3, bw, filler, NA, 999, 999, 6, 4, 186, 121, 66, 71, 119, 177, 1, 1.21626
229, 3, bw, filler, NA, 999, 999, 6, 4, 186, 121, 66, 71, 119, 177, 2, 0.470463
229, 3, bw, attraction, a-b-da, 9, 1, 6, 5, 135, 60, 60, 135, 129, 57, 1, 3.37752
229, 3, bw, attraction, a-b-da, 9, 1, 6, 5, 135, 60, 60, 135, 129, 57, 3, 0.528464
229, 3, bw, attraction, a-b-db, 2, 2, 6, 6, 89, 163, 165, 90, 90, 165, 1, 1.43298
229, 3, bw, attraction, a-b-db, 2, 2, 6, 6, 89, 163, 165, 90, 90, 165, 2, 0.790495
229, 3, bw, catch, NA, 999, 999, 6, 7, 114, 81, 136, 119, 156, 159, 3, 0.988205
229, 3, bw, catch, NA, 999, 999, 6, 7, 114, 81, 136, 119, 156, 159, 1, 0.243069
229, 3, bw, attraction, a-b-db, 9, 1, 6, 8, 57, 129, 60, 135, 135, 60, 2, 1.439
229, 3, bw, attraction, a-b-db, 9, 1, 6, 8, 57, 129, 60, 135, 135, 60, 1, 1.13996
229, 3, bw, attraction, a-b-da, 2, 1, 6, 9, 60, 135, 134, 59, 135, 60, 3, 1.3881
229, 3, bw, attraction, a-b-da, 2, 1, 6, 9, 60, 135, 134, 59, 135, 60, 2, 0.698933
229, 3, bw, attraction, a-b-da, 2, 3, 6, 10, 193, 119, 120, 195, 195, 120, 3, 2.61282
229, 3, bw, attraction, a-b-da, 2, 3, 6, 10, 193, 119, 120, 195, 195, 120, 1, 0.322631
229, 3, bw, attraction, a-b-da, 9, 2, 6, 11, 165, 90, 157, 86, 90, 165, 3, 1.20371
229, 3, bw, attraction, a-b-da, 9, 2, 6, 11, 165, 90, 157, 86, 90, 165, 2, 0.266611
229, 3, bw, attraction, a-b-db, 5, 3, 6, 12, 117, 190, 195, 120, 120, 195, 1, 1.38988
229, 3, bw, attraction, a-b-db, 5, 3, 6, 12, 117, 190, 195, 120, 120, 195, 2, 0.188846
229, 3, bw, attraction, a-b-da, 14, 1, 6, 13, 60, 135, 125, 56, 135, 60, 3, 1.24325
229, 3, bw, attraction, a-b-da, 14, 1, 6, 13, 60, 135, 125, 56, 135, 60, 2, 0.328223
229, 3, bw, filler, NA, 999, 999, 6, 14, 129, 153, 126, 141, 126, 188, 3, 1.62474
229, 3, bw, filler, NA, 999, 999, 6, 14, 129, 153, 126, 141, 126, 188, 2, 1.00628
229, 3, bw, attraction, a-b-db, 14, 1, 6, 15, 60, 135, 56, 125, 135, 60, 1, 1.38782
229, 3, bw, attraction, a-b-db, 14, 1, 6, 15, 60, 135, 56, 125, 135, 60, 2, 0.328485
229, 3, bw, filler, NA, 999, 999, 6, 16, 141, 124, 186, 84, 92, 195, 1, 2.58711
229, 3, bw, filler, NA, 999, 999, 6, 16, 141, 124, 186, 84, 92, 195, 2, 0.754383
229, 3, bw, filler, NA, 999, 999, 6, 17, 181, 156, 131, 121, 67, 94, 1, 1.14598
229, 3, bw, filler, NA, 999, 999, 6, 17, 181, 156, 131, 121, 67, 94, 3, 0.250935
229, 3, bw, attraction, a-b-db, 2, 1, 6, 18, 60, 135, 135, 60, 59, 134, 3, 1.50292
229, 3, bw, attraction, a-b-db, 2, 1, 6, 18, 60, 135, 135, 60, 59, 134, 2, 0.257595
229, 3, bw, filler, NA, 999, 999, 6, 19, 57, 146, 84, 131, 182, 138, 3, 0.612783
229, 3, bw, filler, NA, 999, 999, 6, 19, 57, 146, 84, 131, 182, 138, 1, 0.419221
229, 3, bw, attraction, a-b-db, 14, 2, 6, 20, 83, 153, 165, 90, 90, 165, 3, 1.32852
229, 3, bw, attraction, a-b-db, 14, 2, 6, 20, 83, 153, 165, 90, 90, 165, 2, 0.209986
229, 3, bw, attraction, a-b-db, 2, 3, 6, 21, 195, 120, 120, 195, 119, 193, 3, 1.04717
229, 3, bw, attraction, a-b-db, 2, 3, 6, 21, 195, 120, 120, 195, 119, 193, 2, 0.56415
229, 3, bw, filler, NA, 999, 999, 6, 22, 118, 116, 152, 65, 74, 70, 2, 1.16327
229, 3, bw, filler, NA, 999, 999, 6, 22, 118, 116, 152, 65, 74, 70, 3, 0.403567
229, 3, bw, attraction, a-b-da, 5, 2, 6, 23, 90, 165, 161, 88, 165, 90, 3, 1.11333
229, 3, bw, attraction, a-b-da, 5, 2, 6, 23, 90, 165, 161, 88, 165, 90, 1, 0.659691
229, 3, bw, attraction, a-b-db, 14, 3, 6, 24, 111, 181, 195, 120, 120, 195, 2, 1.39093
229, 3, bw, attraction, a-b-db, 14, 3, 6, 24, 111, 181, 195, 120, 120, 195, 1, 0.86174
229, 3, bw, attraction, a-b-db, 9, 2, 6, 25, 165, 90, 86, 157, 90, 165, 1, 1.1526
229, 3, bw, attraction, a-b-db, 9, 2, 6, 25, 165, 90, 86, 157, 90, 165, 2, 0.473507
229, 3, bw, attraction, a-b-da, 2, 2, 6, 26, 165, 90, 90, 165, 163, 89, 1, 3.6121
229, 3, bw, attraction, a-b-da, 2, 2, 6, 26, 165, 90, 90, 165, 163, 89, 2, 1.33756
229, 3, bw, attraction, a-b-da, 9, 3, 6, 27, 195, 120, 120, 195, 186, 114, 3, 1.79374
229, 3, bw, attraction, a-b-da, 9, 3, 6, 27, 195, 120, 120, 195, 186, 114, 2, 0.936576
229, 3, bw, attraction, a-b-db, 9, 3, 6, 28, 114, 186, 195, 120, 120, 195, 3, 1.3129
229, 3, bw, attraction, a-b-db, 9, 3, 6, 28, 114, 186, 195, 120, 120, 195, 2, 0.442991
229, 3, bw, filler, NA, 999, 999, 6, 29, 160, 129, 188, 92, 138, 119, 1, 6.63097
229, 3, bw, filler, NA, 999, 999, 6, 29, 160, 129, 188, 92, 138, 119, 3, 0.218815
229, 3, bw, filler, NA, 999, 999, 6, 30, 69, 125, 171, 65, 172, 178, 3, 0.584014
229, 3, bw, filler, NA, 999, 999, 6, 30, 69, 125, 171, 65, 172, 178, 1, 0.623741
229, 3, bw, filler, NA, 999, 999, 6, 31, 183, 81, 128, 116, 183, 81, 3, 2.62819
229, 3, bw, filler, NA, 999, 999, 6, 31, 183, 81, 128, 116, 183, 81, 1, 1.7855
229, 3, bw, attraction, a-b-db, 5, 2, 6, 32, 88, 161, 165, 90, 90, 165, 2, 4.74351
229, 3, bw, attraction, a-b-db, 5, 2, 6, 32, 88, 161, 165, 90, 90, 165, 1, 0.527272
229, 3, bw, attraction, a-b-da, 5, 3, 6, 33, 190, 117, 120, 195, 195, 120, 3, 4.2876
229, 3, bw, attraction, a-b-da, 5, 3, 6, 33, 190, 117, 120, 195, 195, 120, 1, 1.07431
229, 3, bw, filler, NA, 999, 999, 6, 34, 191, 172, 195, 145, 193, 122, 1, 0.708485
229, 3, bw, filler, NA, 999, 999, 6, 34, 191, 172, 195, 145, 193, 122, 3, 0.302891
229, 3, bw, catch, NA, 999, 999, 6, 35, 113, 82, 131, 124, 139, 176, 3, 0.68878
229, 3, bw, catch, NA, 999, 999, 6, 35, 113, 82, 131, 124, 139, 176, 1, 0.467837
229, 3, bw, attraction, a-b-da, 5, 1, 6, 36, 135, 60, 132, 58, 60, 135, 1, 1.48713
229, 3, bw, attraction, a-b-da, 5, 1, 6, 36, 135, 60, 132, 58, 60, 135, 2, 0.306487
229, 3, bw, catch, NA, 999, 999, 6, 37, 145, 170, 94, 161, 92, 103, 1, 0.683694
229, 3, bw, catch, NA, 999, 999, 6, 37, 145, 170, 94, 161, 92, 103, 3, 0.359456
229, 3, bw, attraction, a-b-db, 9, 1, 7, 1, 60, 135, 135, 60, 57, 129, 1, 1.24669
229, 3, bw, attraction, a-b-db, 9, 1, 7, 1, 60, 135, 135, 60, 57, 129, 3, 0.267636
229, 3, bw, attraction, a-b-db, 2, 1, 7, 2, 135, 60, 59, 134, 60, 135, 2, 1.09471
229, 3, bw, attraction, a-b-db, 2, 1, 7, 2, 135, 60, 59, 134, 60, 135, 3, 0.313807
229, 3, bw, catch, NA, 999, 999, 7, 3, 128, 127, 110, 85, 164, 151, 3, 0.698868
229, 3, bw, catch, NA, 999, 999, 7, 3, 128, 127, 110, 85, 164, 151, 2, 0.277987
229, 3, bw, attraction, a-b-db, 9, 2, 7, 4, 165, 90, 86, 157, 90, 165, 2, 1.86449
229, 3, bw, attraction, a-b-db, 9, 2, 7, 4, 165, 90, 86, 157, 90, 165, 3, 0.14848
229, 3, bw, attraction, a-b-da, 5, 1, 7, 5, 60, 135, 135, 60, 132, 58, 1, 0.932467
229, 3, bw, attraction, a-b-da, 5, 1, 7, 5, 60, 135, 135, 60, 132, 58, 3, 0.622236
229, 3, bw, attraction, a-b-da, 9, 3, 7, 6, 120, 195, 186, 114, 195, 120, 1, 1.02714
229, 3, bw, attraction, a-b-da, 9, 3, 7, 6, 120, 195, 186, 114, 195, 120, 2, 0.192832
229, 3, bw, attraction, a-b-da, 5, 3, 7, 7, 195, 120, 120, 195, 190, 117, 2, 0.886726
229, 3, bw, attraction, a-b-da, 5, 3, 7, 7, 195, 120, 120, 195, 190, 117, 3, 0.394426
229, 3, bw, filler, NA, 999, 999, 7, 8, 155, 82, 171, 171, 124, 64, 2, 0.544164
229, 3, bw, filler, NA, 999, 999, 7, 8, 155, 82, 171, 171, 124, 64, 3, 0.209317
229, 3, bw, attraction, a-b-da, 14, 1, 7, 9, 60, 135, 125, 56, 135, 60, 3, 1.35857
229, 3, bw, attraction, a-b-da, 14, 1, 7, 9, 60, 135, 125, 56, 135, 60, 2, 0.190761
229, 3, bw, filler, NA, 999, 999, 7, 10, 154, 101, 96, 133, 186, 151, 3, 0.596576
229, 3, bw, filler, NA, 999, 999, 7, 10, 154, 101, 96, 133, 186, 151, 2, 0.651765
229, 3, bw, attraction, a-b-db, 2, 2, 7, 11, 165, 90, 89, 163, 90, 165, 2, 1.03154
229, 3, bw, attraction, a-b-db, 2, 2, 7, 11, 165, 90, 89, 163, 90, 165, 1, 1.30113
229, 3, bw, filler, NA, 999, 999, 7, 12, 67, 112, 117, 156, 149, 176, 3, 0.726868
229, 3, bw, filler, NA, 999, 999, 7, 12, 67, 112, 117, 156, 149, 176, 1, 0.216352
229, 3, bw, attraction, a-b-da, 9, 2, 7, 13, 157, 86, 90, 165, 165, 90, 2, 0.837618
229, 3, bw, attraction, a-b-da, 9, 2, 7, 13, 157, 86, 90, 165, 165, 90, 1, 0.315357
229, 3, bw, catch, NA, 999, 999, 7, 14, 141, 114, 135, 180, 124, 71, 2, 0.620505
229, 3, bw, catch, NA, 999, 999, 7, 14, 141, 114, 135, 180, 124, 71, 3, 0.170962
229, 3, bw, attraction, a-b-db, 2, 3, 7, 15, 119, 193, 120, 195, 195, 120, 2, 0.474222
229, 3, bw, attraction, a-b-db, 2, 3, 7, 15, 119, 193, 120, 195, 195, 120, 1, 1.278
229, 3, bw, attraction, a-b-da, 5, 2, 7, 16, 161, 88, 90, 165, 165, 90, 1, 1.07223
229, 3, bw, attraction, a-b-da, 5, 2, 7, 16, 161, 88, 90, 165, 165, 90, 3, 0.883889
229, 3, bw, attraction, a-b-da, 2, 3, 7, 17, 195, 120, 120, 195, 193, 119, 2, 1.07033
229, 3, bw, attraction, a-b-da, 2, 3, 7, 17, 195, 120, 120, 195, 193, 119, 3, 1.20259
229, 3, bw, attraction, a-b-da, 14, 3, 7, 18, 195, 120, 181, 111, 120, 195, 1, 1.40003
229, 3, bw, attraction, a-b-da, 14, 3, 7, 18, 195, 120, 181, 111, 120, 195, 2, 0.214963
229, 3, bw, attraction, a-b-db, 14, 3, 7, 19, 120, 195, 111, 181, 195, 120, 3, 3.53227
229, 3, bw, attraction, a-b-db, 14, 3, 7, 19, 120, 195, 111, 181, 195, 120, 2, 0.645092
229, 3, bw, attraction, a-b-da, 14, 2, 7, 20, 153, 83, 165, 90, 90, 165, 2, 1.97681
229, 3, bw, attraction, a-b-da, 14, 2, 7, 20, 153, 83, 165, 90, 90, 165, 1, 0.544147
229, 3, bw, attraction, a-b-db, 14, 1, 7, 21, 60, 135, 135, 60, 56, 125, 2, 2.76001
229, 3, bw, attraction, a-b-db, 14, 1, 7, 21, 60, 135, 135, 60, 56, 125, 3, 0.167696
229, 3, bw, attraction, a-b-db, 5, 3, 7, 22, 117, 190, 195, 120, 120, 195, 3, 4.11891
229, 3, bw, attraction, a-b-db, 5, 3, 7, 22, 117, 190, 195, 120, 120, 195, 2, 0.656278
229, 3, bw, attraction, a-b-db, 5, 2, 7, 23, 88, 161, 165, 90, 90, 165, 3, 3.43619
229, 3, bw, attraction, a-b-db, 5, 2, 7, 23, 88, 161, 165, 90, 90, 165, 2, 0.544858
229, 3, bw, filler, NA, 999, 999, 7, 24, 61, 153, 92, 137, 180, 157, 3, 0.696783
229, 3, bw, filler, NA, 999, 999, 7, 24, 61, 153, 92, 137, 180, 157, 1, 0.251816
229, 3, bw, attraction, a-b-db, 9, 3, 7, 25, 195, 120, 114, 186, 120, 195, 1, 0.743627
229, 3, bw, attraction, a-b-db, 9, 3, 7, 25, 195, 120, 114, 186, 120, 195, 2, 0.46482
229, 3, bw, filler, NA, 999, 999, 7, 26, 191, 133, 67, 174, 169, 130, 1, 1.0678
229, 3, bw, filler, NA, 999, 999, 7, 26, 191, 133, 67, 174, 169, 130, 2, 0.240186
229, 3, bw, filler, NA, 999, 999, 7, 27, 102, 63, 75, 121, 130, 178, 3, 0.692065
229, 3, bw, filler, NA, 999, 999, 7, 27, 102, 63, 75, 121, 130, 178, 1, 0.463112
229, 3, bw, filler, NA, 999, 999, 7, 28, 165, 98, 188, 178, 120, 175, 2, 0.594295
229, 3, bw, filler, NA, 999, 999, 7, 28, 165, 98, 188, 178, 120, 175, 1, 0.737363
229, 3, bw, catch, NA, 999, 999, 7, 29, 130, 125, 71, 124, 160, 155, 3, 0.785701
229, 3, bw, catch, NA, 999, 999, 7, 29, 130, 125, 71, 124, 160, 155, 2, 0.48943
229, 3, bw, filler, NA, 999, 999, 7, 30, 82, 89, 119, 96, 112, 151, 3, 1.52388
229, 3, bw, filler, NA, 999, 999, 7, 30, 82, 89, 119, 96, 112, 151, 1, 0.541393
229, 3, bw, filler, NA, 999, 999, 7, 31, 84, 143, 111, 159, 90, 61, 2, 1.1652
229, 3, bw, filler, NA, 999, 999, 7, 31, 84, 143, 111, 159, 90, 61, 3, 0.493435
229, 3, bw, attraction, a-b-da, 2, 2, 7, 32, 163, 89, 90, 165, 165, 90, 3, 2.98322
229, 3, bw, attraction, a-b-da, 2, 2, 7, 32, 163, 89, 90, 165, 165, 90, 2, 3.05424
229, 3, bw, attraction, a-b-db, 14, 2, 7, 33, 83, 153, 90, 165, 165, 90, 2, 1.23317
229, 3, bw, attraction, a-b-db, 14, 2, 7, 33, 83, 153, 90, 165, 165, 90, 3, 0.198897
229, 3, bw, attraction, a-b-db, 5, 1, 7, 34, 58, 132, 60, 135, 135, 60, 2, 1.58083
229, 3, bw, attraction, a-b-db, 5, 1, 7, 34, 58, 132, 60, 135, 135, 60, 1, 0.188264
229, 3, bw, attraction, a-b-da, 2, 1, 7, 35, 135, 60, 134, 59, 60, 135, 3, 2.33894
229, 3, bw, attraction, a-b-da, 2, 1, 7, 35, 135, 60, 134, 59, 60, 135, 2, 0.803355
229, 3, bw, attraction, a-b-da, 9, 1, 7, 36, 135, 60, 60, 135, 129, 57, 1, 3.26501
229, 3, bw, attraction, a-b-da, 9, 1, 7, 36, 135, 60, 60, 135, 129, 57, 3, 0.820739
229, 3, bw, filler, NA, 999, 999, 7, 37, 185, 112, 128, 59, 85, 158, 1, 0.721715
229, 3, bw, filler, NA, 999, 999, 7, 37, 185, 112, 128, 59, 85, 158, 2, 0.259552
229, 3, bw, filler, NA, 999, 999, 8, 1, 58, 109, 75, 143, 108, 100, 3, 0.89471
229, 3, bw, filler, NA, 999, 999, 8, 1, 58, 109, 75, 143, 108, 100, 1, 0.697661
229, 3, bw, attraction, a-b-db, 2, 2, 8, 2, 89, 163, 90, 165, 165, 90, 3, 2.31549
229, 3, bw, attraction, a-b-db, 2, 2, 8, 2, 89, 163, 90, 165, 165, 90, 1, 0.853349
229, 3, bw, filler, NA, 999, 999, 8, 3, 185, 173, 124, 58, 182, 99, 1, 0.704978
229, 3, bw, filler, NA, 999, 999, 8, 3, 185, 173, 124, 58, 182, 99, 2, 0.427298
229, 3, bw, filler, NA, 999, 999, 8, 4, 147, 148, 87, 117, 80, 128, 1, 1.13581
229, 3, bw, filler, NA, 999, 999, 8, 4, 147, 148, 87, 117, 80, 128, 3, 1.88144
229, 3, bw, filler, NA, 999, 999, 8, 5, 65, 99, 111, 185, 159, 72, 2, 2.12363
229, 3, bw, filler, NA, 999, 999, 8, 5, 65, 99, 111, 185, 159, 72, 1, 0.284783
229, 3, bw, filler, NA, 999, 999, 8, 6, 173, 134, 97, 187, 166, 159, 3, 0.839354
229, 3, bw, filler, NA, 999, 999, 8, 6, 173, 134, 97, 187, 166, 159, 2, 0.300335
229, 3, bw, attraction, a-b-db, 5, 3, 8, 7, 120, 195, 117, 190, 195, 120, 3, 2.14233
229, 3, bw, attraction, a-b-db, 5, 3, 8, 7, 120, 195, 117, 190, 195, 120, 1, 0.454908
229, 3, bw, attraction, a-b-db, 5, 1, 8, 8, 58, 132, 135, 60, 60, 135, 2, 1.49065
229, 3, bw, attraction, a-b-db, 5, 1, 8, 8, 58, 132, 135, 60, 60, 135, 1, 0.42949
229, 3, bw, filler, NA, 999, 999, 8, 9, 101, 151, 110, 69, 76, 132, 1, 0.777987
229, 3, bw, filler, NA, 999, 999, 8, 9, 101, 151, 110, 69, 76, 132, 2, 0.769722
229, 3, bw, attraction, a-b-db, 9, 1, 8, 10, 60, 135, 135, 60, 57, 129, 2, 1.32078
229, 3, bw, attraction, a-b-db, 9, 1, 8, 10, 60, 135, 135, 60, 57, 129, 3, 0.299074
229, 3, bw, attraction, a-b-db, 14, 1, 8, 11, 135, 60, 60, 135, 56, 125, 1, 2.97283
229, 3, bw, attraction, a-b-db, 14, 1, 8, 11, 135, 60, 60, 135, 56, 125, 3, 0.283939
229, 3, bw, attraction, a-b-da, 14, 1, 8, 12, 60, 135, 125, 56, 135, 60, 2, 1.10237
229, 3, bw, attraction, a-b-da, 14, 1, 8, 12, 60, 135, 125, 56, 135, 60, 1, 0.241265
229, 3, bw, catch, NA, 999, 999, 8, 13, 149, 106, 63, 132, 189, 126, 3, 0.757126
229, 3, bw, catch, NA, 999, 999, 8, 13, 149, 106, 63, 132, 189, 126, 2, 0.31757
229, 3, bw, filler, NA, 999, 999, 8, 14, 84, 104, 91, 149, 125, 177, 3, 0.638784
229, 3, bw, filler, NA, 999, 999, 8, 14, 84, 104, 91, 149, 125, 177, 1, 0.32386
229, 3, bw, filler, NA, 999, 999, 8, 15, 71, 83, 144, 133, 99, 147, 2, 0.652345
229, 3, bw, filler, NA, 999, 999, 8, 15, 71, 83, 144, 133, 99, 147, 1, 0.593447
229, 3, bw, attraction, a-b-da, 9, 3, 8, 16, 186, 114, 195, 120, 120, 195, 2, 2.59136
229, 3, bw, attraction, a-b-da, 9, 3, 8, 16, 186, 114, 195, 120, 120, 195, 1, 0.18974
229, 3, bw, attraction, a-b-db, 2, 1, 8, 17, 60, 135, 59, 134, 135, 60, 3, 1.48369
229, 3, bw, attraction, a-b-db, 2, 1, 8, 17, 60, 135, 59, 134, 135, 60, 2, 0.471058
229, 3, bw, attraction, a-b-da, 2, 1, 8, 18, 135, 60, 60, 135, 134, 59, 1, 3.65844
229, 3, bw, attraction, a-b-da, 2, 1, 8, 18, 135, 60, 60, 135, 134, 59, 2, 0.365794
229, 3, bw, attraction, a-b-da, 2, 3, 8, 19, 120, 195, 195, 120, 193, 119, 2, 2.58896
229, 3, bw, attraction, a-b-da, 2, 3, 8, 19, 120, 195, 195, 120, 193, 119, 1, 0.275334
229, 3, bw, filler, NA, 999, 999, 8, 20, 79, 186, 185, 185, 111, 98, 2, 1.00598
229, 3, bw, filler, NA, 999, 999, 8, 20, 79, 186, 185, 185, 111, 98, 3, 2.29249
229, 3, bw, attraction, a-b-db, 14, 2, 8, 21, 83, 153, 165, 90, 90, 165, 3, 1.70158
229, 3, bw, attraction, a-b-db, 14, 2, 8, 21, 83, 153, 165, 90, 90, 165, 1, 0.336288
229, 3, bw, attraction, a-b-da, 5, 3, 8, 22, 190, 117, 120, 195, 195, 120, 1, 3.35275
229, 3, bw, attraction, a-b-da, 5, 3, 8, 22, 190, 117, 120, 195, 195, 120, 3, 0.249039
229, 3, bw, attraction, a-b-db, 9, 2, 8, 23, 165, 90, 86, 157, 90, 165, 1, 2.12483
229, 3, bw, attraction, a-b-db, 9, 2, 8, 23, 165, 90, 86, 157, 90, 165, 3, 0.614336
229, 3, bw, attraction, a-b-da, 9, 1, 8, 24, 135, 60, 60, 135, 129, 57, 1, 3.15522
229, 3, bw, attraction, a-b-da, 9, 1, 8, 24, 135, 60, 60, 135, 129, 57, 3, 0.531591
229, 3, bw, attraction, a-b-db, 5, 2, 8, 25, 88, 161, 90, 165, 165, 90, 2, 9.80407
229, 3, bw, attraction, a-b-db, 5, 2, 8, 25, 88, 161, 90, 165, 165, 90, 1, 0.544284
229, 3, bw, filler, NA, 999, 999, 8, 26, 126, 131, 64, 87, 115, 66, 1, 0.832135
229, 3, bw, filler, NA, 999, 999, 8, 26, 126, 131, 64, 87, 115, 66, 2, 0.989727
229, 3, bw, catch, NA, 999, 999, 8, 27, 112, 83, 182, 133, 110, 145, 2, 1.49202
229, 3, bw, catch, NA, 999, 999, 8, 27, 112, 83, 182, 133, 110, 145, 1, 0.311049
229, 3, bw, attraction, a-b-da, 2, 2, 8, 28, 165, 90, 90, 165, 163, 89, 2, 4.97613
229, 3, bw, attraction, a-b-da, 2, 2, 8, 28, 165, 90, 90, 165, 163, 89, 1, 0.47055
229, 3, bw, attraction, a-b-db, 14, 3, 8, 29, 111, 181, 195, 120, 120, 195, 3, 0.961591
229, 3, bw, attraction, a-b-db, 14, 3, 8, 29, 111, 181, 195, 120, 120, 195, 1, 0.442075
229, 3, bw, attraction, a-b-db, 2, 3, 8, 30, 120, 195, 195, 120, 119, 193, 3, 1.22969
229, 3, bw, attraction, a-b-db, 2, 3, 8, 30, 120, 195, 195, 120, 119, 193, 1, 1.03534
229, 3, bw, attraction, a-b-db, 9, 3, 8, 31, 114, 186, 120, 195, 195, 120, 3, 0.983814
229, 3, bw, attraction, a-b-db, 9, 3, 8, 31, 114, 186, 120, 195, 195, 120, 1, 0.295312
229, 3, bw, catch, NA, 999, 999, 8, 32, 117, 138, 78, 117, 170, 145, 3, 0.617204
229, 3, bw, catch, NA, 999, 999, 8, 32, 117, 138, 78, 117, 170, 145, 2, 0.287624
229, 3, bw, attraction, a-b-da, 5, 1, 8, 33, 135, 60, 132, 58, 60, 135, 2, 1.52208
229, 3, bw, attraction, a-b-da, 5, 1, 8, 33, 135, 60, 132, 58, 60, 135, 3, 0.339598
229, 3, bw, attraction, a-b-da, 14, 2, 8, 34, 90, 165, 165, 90, 153, 83, 2, 1.51608
229, 3, bw, attraction, a-b-da, 14, 2, 8, 34, 90, 165, 165, 90, 153, 83, 1, 0.430363
229, 3, bw, attraction, a-b-da, 9, 2, 8, 35, 90, 165, 157, 86, 165, 90, 3, 1.5069
229, 3, bw, attraction, a-b-da, 9, 2, 8, 35, 90, 165, 157, 86, 165, 90, 2, 0.292967
229, 3, bw, attraction, a-b-da, 5, 2, 8, 36, 165, 90, 90, 165, 161, 88, 3, 1.21477
229, 3, bw, attraction, a-b-da, 5, 2, 8, 36, 165, 90, 90, 165, 161, 88, 1, 0.325078
229, 3, bw, attraction, a-b-da, 14, 3, 8, 37, 120, 195, 181, 111, 195, 120, 3, 0.813595
229, 3, bw, attraction, a-b-da, 14, 3, 8, 37, 120, 195, 181, 111, 195, 120, 2, 0.219934
