sub_n, computer_n, bw_cond, effect, set, distance, diag, block_n, trial_n, h1, w1, h2, w2, h3, w3, choice, rt 
214, 3, wb, practice, NA, 999, 999, 0, 1, 130, 103, 70, 127, 118, 178, 2, 3.42296
214, 3, wb, practice, NA, 999, 999, 0, 1, 130, 103, 70, 127, 118, 178, 3, 1.49861
214, 3, wb, practice, NA, 999, 999, 0, 2, 163, 65, 184, 187, 100, 171, 1, 2.27323
214, 3, wb, practice, NA, 999, 999, 0, 2, 163, 65, 184, 187, 100, 171, 2, 0.758651
214, 3, wb, practice, NA, 999, 999, 0, 3, 154, 178, 143, 193, 60, 192, 3, 1.3704
214, 3, wb, practice, NA, 999, 999, 0, 3, 154, 178, 143, 193, 60, 192, 2, 1.25592
214, 3, wb, catch, NA, 999, 999, 1, 1, 121, 194, 119, 76, 120, 135, 2, 1.37054
214, 3, wb, catch, NA, 999, 999, 1, 1, 121, 194, 119, 76, 120, 135, 1, 0.586689
214, 3, wb, attraction, a-b-db, 9, 2, 1, 2, 90, 165, 86, 157, 165, 90, 2, 1.51316
214, 3, wb, attraction, a-b-db, 9, 2, 1, 2, 90, 165, 86, 157, 165, 90, 1, 1.24336
214, 3, wb, filler, NA, 999, 999, 1, 3, 108, 117, 125, 149, 73, 167, 3, 1.77484
214, 3, wb, filler, NA, 999, 999, 1, 3, 108, 117, 125, 149, 73, 167, 2, 0.430198
214, 3, wb, filler, NA, 999, 999, 1, 4, 155, 166, 176, 161, 175, 119, 3, 1.74666
214, 3, wb, filler, NA, 999, 999, 1, 4, 155, 166, 176, 161, 175, 119, 2, 0.563469
214, 3, wb, attraction, a-b-db, 5, 1, 1, 5, 135, 60, 60, 135, 58, 132, 1, 1.71476
214, 3, wb, attraction, a-b-db, 5, 1, 1, 5, 135, 60, 60, 135, 58, 132, 2, 0.716653
214, 3, wb, attraction, a-b-db, 2, 2, 1, 6, 89, 163, 165, 90, 90, 165, 2, 2.44578
214, 3, wb, attraction, a-b-db, 2, 2, 1, 6, 89, 163, 165, 90, 90, 165, 3, 0.490311
214, 3, wb, attraction, a-b-db, 14, 3, 1, 7, 120, 195, 195, 120, 111, 181, 2, 2.11618
214, 3, wb, attraction, a-b-db, 14, 3, 1, 7, 120, 195, 195, 120, 111, 181, 1, 0.334194
214, 3, wb, attraction, a-b-db, 9, 3, 1, 8, 114, 186, 120, 195, 195, 120, 1, 2.10266
214, 3, wb, attraction, a-b-db, 9, 3, 1, 8, 114, 186, 120, 195, 195, 120, 2, 0.337276
214, 3, wb, attraction, a-b-da, 14, 2, 1, 9, 165, 90, 153, 83, 90, 165, 2, 1.12161
214, 3, wb, attraction, a-b-da, 14, 2, 1, 9, 165, 90, 153, 83, 90, 165, 3, 0.891279
214, 3, wb, attraction, a-b-da, 5, 2, 1, 10, 161, 88, 90, 165, 165, 90, 2, 1.49304
214, 3, wb, attraction, a-b-da, 5, 2, 1, 10, 161, 88, 90, 165, 165, 90, 1, 0.679858
214, 3, wb, attraction, a-b-da, 14, 1, 1, 11, 125, 56, 60, 135, 135, 60, 1, 2.10612
214, 3, wb, attraction, a-b-da, 14, 1, 1, 11, 125, 56, 60, 135, 135, 60, 2, 1.05226
214, 3, wb, attraction, a-b-da, 2, 1, 1, 12, 60, 135, 134, 59, 135, 60, 2, 0.903853
214, 3, wb, attraction, a-b-da, 2, 1, 1, 12, 60, 135, 134, 59, 135, 60, 3, 0.474876
214, 3, wb, attraction, a-b-db, 14, 1, 1, 13, 135, 60, 60, 135, 56, 125, 3, 0.941323
214, 3, wb, attraction, a-b-db, 14, 1, 1, 13, 135, 60, 60, 135, 56, 125, 2, 0.830331
214, 3, wb, filler, NA, 999, 999, 1, 14, 59, 72, 147, 190, 150, 172, 1, 0.770667
214, 3, wb, filler, NA, 999, 999, 1, 14, 59, 72, 147, 190, 150, 172, 2, 1.62711
214, 3, wb, filler, NA, 999, 999, 1, 15, 188, 194, 64, 99, 177, 119, 2, 1.2152
214, 3, wb, filler, NA, 999, 999, 1, 15, 188, 194, 64, 99, 177, 119, 1, 0.38948
214, 3, wb, attraction, a-b-da, 2, 3, 1, 16, 193, 119, 120, 195, 195, 120, 1, 1.44393
214, 3, wb, attraction, a-b-da, 2, 3, 1, 16, 193, 119, 120, 195, 195, 120, 2, 0.752791
214, 3, wb, catch, NA, 999, 999, 1, 17, 104, 91, 164, 151, 106, 149, 1, 0.76039
214, 3, wb, catch, NA, 999, 999, 1, 17, 104, 91, 164, 151, 106, 149, 2, 0.43289
214, 3, wb, filler, NA, 999, 999, 1, 18, 126, 141, 145, 105, 178, 187, 2, 0.6693
214, 3, wb, filler, NA, 999, 999, 1, 18, 126, 141, 145, 105, 178, 187, 3, 0.321739
214, 3, wb, attraction, a-b-da, 9, 3, 1, 19, 186, 114, 195, 120, 120, 195, 1, 1.55493
214, 3, wb, attraction, a-b-da, 9, 3, 1, 19, 186, 114, 195, 120, 120, 195, 3, 1.58776
214, 3, wb, attraction, a-b-db, 14, 2, 1, 20, 165, 90, 83, 153, 90, 165, 2, 0.921825
214, 3, wb, attraction, a-b-db, 14, 2, 1, 20, 165, 90, 83, 153, 90, 165, 1, 0.435506
214, 3, wb, attraction, a-b-db, 2, 1, 1, 21, 135, 60, 60, 135, 59, 134, 1, 2.15208
214, 3, wb, attraction, a-b-db, 2, 1, 1, 21, 135, 60, 60, 135, 59, 134, 3, 0.71264
214, 3, wb, filler, NA, 999, 999, 1, 22, 190, 65, 110, 62, 178, 89, 2, 1.56177
214, 3, wb, filler, NA, 999, 999, 1, 22, 190, 65, 110, 62, 178, 89, 3, 0.873895
214, 3, wb, attraction, a-b-da, 2, 2, 1, 23, 90, 165, 163, 89, 165, 90, 2, 1.98834
214, 3, wb, attraction, a-b-da, 2, 2, 1, 23, 90, 165, 163, 89, 165, 90, 3, 0.458895
214, 3, wb, attraction, a-b-db, 5, 3, 1, 24, 195, 120, 120, 195, 117, 190, 2, 1.07805
214, 3, wb, attraction, a-b-db, 5, 3, 1, 24, 195, 120, 120, 195, 117, 190, 1, 0.641709
214, 3, wb, attraction, a-b-da, 9, 1, 1, 25, 60, 135, 135, 60, 129, 57, 2, 1.22931
214, 3, wb, attraction, a-b-da, 9, 1, 1, 25, 60, 135, 135, 60, 129, 57, 3, 0.451045
214, 3, wb, filler, NA, 999, 999, 1, 26, 85, 90, 116, 113, 149, 139, 1, 0.63082
214, 3, wb, filler, NA, 999, 999, 1, 26, 85, 90, 116, 113, 149, 139, 3, 0.604545
214, 3, wb, attraction, a-b-db, 5, 2, 1, 27, 165, 90, 88, 161, 90, 165, 2, 0.618373
214, 3, wb, attraction, a-b-db, 5, 2, 1, 27, 165, 90, 88, 161, 90, 165, 1, 0.488784
214, 3, wb, attraction, a-b-da, 14, 3, 1, 28, 120, 195, 181, 111, 195, 120, 2, 1.14715
214, 3, wb, attraction, a-b-da, 14, 3, 1, 28, 120, 195, 181, 111, 195, 120, 3, 0.396146
214, 3, wb, attraction, a-b-da, 5, 1, 1, 29, 132, 58, 135, 60, 60, 135, 3, 0.954215
214, 3, wb, attraction, a-b-da, 5, 1, 1, 29, 132, 58, 135, 60, 60, 135, 2, 0.314925
214, 3, wb, attraction, a-b-da, 5, 3, 1, 30, 195, 120, 190, 117, 120, 195, 3, 1.23609
214, 3, wb, attraction, a-b-da, 5, 3, 1, 30, 195, 120, 190, 117, 120, 195, 2, 0.40973
214, 3, wb, attraction, a-b-db, 2, 3, 1, 31, 195, 120, 119, 193, 120, 195, 1, 0.710883
214, 3, wb, attraction, a-b-db, 2, 3, 1, 31, 195, 120, 119, 193, 120, 195, 2, 0.345323
214, 3, wb, catch, NA, 999, 999, 1, 32, 61, 134, 187, 128, 143, 112, 1, 0.521239
214, 3, wb, catch, NA, 999, 999, 1, 32, 61, 134, 187, 128, 143, 112, 2, 0.290996
214, 3, wb, attraction, a-b-db, 9, 1, 1, 33, 135, 60, 57, 129, 60, 135, 1, 1.1968
214, 3, wb, attraction, a-b-db, 9, 1, 1, 33, 135, 60, 57, 129, 60, 135, 3, 0.923867
214, 3, wb, filler, NA, 999, 999, 1, 34, 147, 191, 121, 141, 125, 159, 2, 1.45201
214, 3, wb, filler, NA, 999, 999, 1, 34, 147, 191, 121, 141, 125, 159, 1, 0.321024
214, 3, wb, attraction, a-b-da, 9, 2, 1, 35, 165, 90, 157, 86, 90, 165, 2, 1.14611
214, 3, wb, attraction, a-b-da, 9, 2, 1, 35, 165, 90, 157, 86, 90, 165, 1, 0.507154
214, 3, wb, filler, NA, 999, 999, 1, 36, 67, 131, 145, 149, 121, 73, 1, 1.01223
214, 3, wb, filler, NA, 999, 999, 1, 36, 67, 131, 145, 149, 121, 73, 2, 0.330435
214, 3, wb, filler, NA, 999, 999, 1, 37, 109, 122, 79, 172, 126, 188, 1, 0.922968
214, 3, wb, filler, NA, 999, 999, 1, 37, 109, 122, 79, 172, 126, 188, 3, 0.860802
214, 3, wb, attraction, a-b-da, 5, 2, 2, 1, 165, 90, 161, 88, 90, 165, 2, 0.663594
214, 3, wb, attraction, a-b-da, 5, 2, 2, 1, 165, 90, 161, 88, 90, 165, 1, 0.724106
214, 3, wb, attraction, a-b-da, 14, 2, 2, 2, 165, 90, 153, 83, 90, 165, 2, 0.70048
214, 3, wb, attraction, a-b-da, 14, 2, 2, 2, 165, 90, 153, 83, 90, 165, 3, 0.383747
214, 3, wb, attraction, a-b-db, 14, 1, 2, 3, 60, 135, 56, 125, 135, 60, 2, 0.750212
214, 3, wb, attraction, a-b-db, 14, 1, 2, 3, 60, 135, 56, 125, 135, 60, 1, 0.415143
214, 3, wb, attraction, a-b-db, 5, 2, 2, 4, 90, 165, 165, 90, 88, 161, 2, 0.636342
214, 3, wb, attraction, a-b-db, 5, 2, 2, 4, 90, 165, 165, 90, 88, 161, 3, 0.537999
214, 3, wb, catch, NA, 999, 999, 2, 5, 127, 188, 107, 148, 125, 70, 3, 1.43452
214, 3, wb, catch, NA, 999, 999, 2, 5, 127, 188, 107, 148, 125, 70, 1, 0.367931
214, 3, wb, filler, NA, 999, 999, 2, 6, 80, 59, 144, 123, 175, 156, 1, 0.751128
214, 3, wb, filler, NA, 999, 999, 2, 6, 80, 59, 144, 123, 175, 156, 3, 0.344224
214, 3, wb, attraction, a-b-da, 9, 1, 2, 7, 135, 60, 129, 57, 60, 135, 2, 2.3281
214, 3, wb, attraction, a-b-da, 9, 1, 2, 7, 135, 60, 129, 57, 60, 135, 1, 0.425399
214, 3, wb, filler, NA, 999, 999, 2, 8, 159, 131, 177, 80, 81, 129, 3, 1.36575
214, 3, wb, filler, NA, 999, 999, 2, 8, 159, 131, 177, 80, 81, 129, 1, 0.630044
214, 3, wb, attraction, a-b-db, 14, 2, 2, 9, 90, 165, 83, 153, 165, 90, 2, 1.78641
214, 3, wb, attraction, a-b-db, 14, 2, 2, 9, 90, 165, 83, 153, 165, 90, 1, 1.00995
214, 3, wb, attraction, a-b-db, 2, 1, 2, 10, 59, 134, 60, 135, 135, 60, 2, 0.81485
214, 3, wb, attraction, a-b-db, 2, 1, 2, 10, 59, 134, 60, 135, 135, 60, 3, 0.429221
214, 3, wb, filler, NA, 999, 999, 2, 11, 98, 183, 146, 161, 184, 72, 3, 1.69768
214, 3, wb, filler, NA, 999, 999, 2, 11, 98, 183, 146, 161, 184, 72, 2, 0.796449
214, 3, wb, attraction, a-b-da, 2, 2, 2, 12, 90, 165, 165, 90, 163, 89, 1, 1.28217
214, 3, wb, attraction, a-b-da, 2, 2, 2, 12, 90, 165, 165, 90, 163, 89, 2, 0.477653
214, 3, wb, attraction, a-b-da, 14, 1, 2, 13, 125, 56, 60, 135, 135, 60, 1, 0.784287
214, 3, wb, attraction, a-b-da, 14, 1, 2, 13, 125, 56, 60, 135, 135, 60, 3, 0.503868
214, 3, wb, attraction, a-b-db, 5, 1, 2, 14, 58, 132, 135, 60, 60, 135, 3, 1.18568
214, 3, wb, attraction, a-b-db, 5, 1, 2, 14, 58, 132, 135, 60, 60, 135, 2, 0.465276
214, 3, wb, attraction, a-b-db, 9, 3, 2, 15, 120, 195, 114, 186, 195, 120, 2, 0.980418
214, 3, wb, attraction, a-b-db, 9, 3, 2, 15, 120, 195, 114, 186, 195, 120, 3, 0.852115
214, 3, wb, filler, NA, 999, 999, 2, 16, 150, 141, 77, 115, 183, 186, 1, 1.08775
214, 3, wb, filler, NA, 999, 999, 2, 16, 150, 141, 77, 115, 183, 186, 3, 2.37867
214, 3, wb, filler, NA, 999, 999, 2, 17, 121, 80, 133, 100, 58, 182, 1, 0.944621
214, 3, wb, filler, NA, 999, 999, 2, 17, 121, 80, 133, 100, 58, 182, 2, 0.753582
214, 3, wb, attraction, a-b-db, 2, 2, 2, 18, 165, 90, 89, 163, 90, 165, 2, 1.16125
214, 3, wb, attraction, a-b-db, 2, 2, 2, 18, 165, 90, 89, 163, 90, 165, 1, 0.40961
214, 3, wb, catch, NA, 999, 999, 2, 19, 153, 102, 174, 141, 70, 125, 3, 0.718811
214, 3, wb, catch, NA, 999, 999, 2, 19, 153, 102, 174, 141, 70, 125, 2, 0.409229
214, 3, wb, filler, NA, 999, 999, 2, 20, 176, 139, 62, 154, 163, 172, 2, 1.48621
214, 3, wb, filler, NA, 999, 999, 2, 20, 176, 139, 62, 154, 163, 172, 3, 0.441779
214, 3, wb, attraction, a-b-db, 2, 3, 2, 21, 120, 195, 119, 193, 195, 120, 2, 0.869541
214, 3, wb, attraction, a-b-db, 2, 3, 2, 21, 120, 195, 119, 193, 195, 120, 3, 0.618049
214, 3, wb, filler, NA, 999, 999, 2, 22, 180, 111, 158, 146, 124, 111, 3, 1.55102
214, 3, wb, filler, NA, 999, 999, 2, 22, 180, 111, 158, 146, 124, 111, 2, 0.607832
214, 3, wb, attraction, a-b-da, 2, 1, 2, 23, 60, 135, 135, 60, 134, 59, 1, 0.724906
214, 3, wb, attraction, a-b-da, 2, 1, 2, 23, 60, 135, 135, 60, 134, 59, 3, 0.37482
214, 3, wb, attraction, a-b-db, 9, 2, 2, 24, 86, 157, 90, 165, 165, 90, 2, 0.789264
214, 3, wb, attraction, a-b-db, 9, 2, 2, 24, 86, 157, 90, 165, 165, 90, 1, 0.676172
214, 3, wb, attraction, a-b-da, 9, 3, 2, 25, 120, 195, 186, 114, 195, 120, 3, 1.0868
214, 3, wb, attraction, a-b-da, 9, 3, 2, 25, 120, 195, 186, 114, 195, 120, 1, 1.0665
214, 3, wb, attraction, a-b-db, 5, 3, 2, 26, 117, 190, 120, 195, 195, 120, 1, 1.06927
214, 3, wb, attraction, a-b-db, 5, 3, 2, 26, 117, 190, 120, 195, 195, 120, 2, 0.721584
214, 3, wb, filler, NA, 999, 999, 2, 27, 194, 195, 77, 166, 91, 124, 3, 1.1387
214, 3, wb, filler, NA, 999, 999, 2, 27, 194, 195, 77, 166, 91, 124, 1, 0.387518
214, 3, wb, attraction, a-b-db, 9, 1, 2, 28, 135, 60, 57, 129, 60, 135, 2, 1.18609
214, 3, wb, attraction, a-b-db, 9, 1, 2, 28, 135, 60, 57, 129, 60, 135, 3, 0.385739
214, 3, wb, attraction, a-b-da, 2, 3, 2, 29, 120, 195, 193, 119, 195, 120, 1, 0.536095
214, 3, wb, attraction, a-b-da, 2, 3, 2, 29, 120, 195, 193, 119, 195, 120, 3, 0.393929
214, 3, wb, attraction, a-b-da, 14, 3, 2, 30, 181, 111, 120, 195, 195, 120, 2, 0.711753
214, 3, wb, attraction, a-b-da, 14, 3, 2, 30, 181, 111, 120, 195, 195, 120, 1, 0.474103
214, 3, wb, attraction, a-b-da, 5, 1, 2, 31, 132, 58, 135, 60, 60, 135, 2, 0.748613
214, 3, wb, attraction, a-b-da, 5, 1, 2, 31, 132, 58, 135, 60, 60, 135, 3, 0.421665
214, 3, wb, filler, NA, 999, 999, 2, 32, 81, 101, 121, 85, 175, 117, 2, 0.482793
214, 3, wb, filler, NA, 999, 999, 2, 32, 81, 101, 121, 85, 175, 117, 1, 0.302738
214, 3, wb, catch, NA, 999, 999, 2, 33, 127, 128, 79, 116, 143, 172, 2, 0.784502
214, 3, wb, catch, NA, 999, 999, 2, 33, 127, 128, 79, 116, 143, 172, 3, 0.624227
214, 3, wb, attraction, a-b-db, 14, 3, 2, 34, 195, 120, 111, 181, 120, 195, 1, 0.708706
214, 3, wb, attraction, a-b-db, 14, 3, 2, 34, 195, 120, 111, 181, 120, 195, 2, 0.407135
214, 3, wb, attraction, a-b-da, 5, 3, 2, 35, 190, 117, 120, 195, 195, 120, 2, 0.70034
214, 3, wb, attraction, a-b-da, 5, 3, 2, 35, 190, 117, 120, 195, 195, 120, 3, 0.319355
214, 3, wb, filler, NA, 999, 999, 2, 36, 127, 71, 76, 152, 117, 78, 1, 0.904439
214, 3, wb, filler, NA, 999, 999, 2, 36, 127, 71, 76, 152, 117, 78, 2, 0.379566
214, 3, wb, attraction, a-b-da, 9, 2, 2, 37, 157, 86, 165, 90, 90, 165, 1, 1.63411
214, 3, wb, attraction, a-b-da, 9, 2, 2, 37, 157, 86, 165, 90, 90, 165, 2, 0.551492
214, 3, wb, catch, NA, 999, 999, 3, 1, 85, 110, 130, 185, 159, 96, 1, 1.32727
214, 3, wb, catch, NA, 999, 999, 3, 1, 85, 110, 130, 185, 159, 96, 2, 0.376863
214, 3, wb, attraction, a-b-da, 5, 2, 3, 2, 90, 165, 161, 88, 165, 90, 2, 1.4393
214, 3, wb, attraction, a-b-da, 5, 2, 3, 2, 90, 165, 161, 88, 165, 90, 3, 0.308097
214, 3, wb, attraction, a-b-db, 9, 1, 3, 3, 60, 135, 57, 129, 135, 60, 2, 1.22951
214, 3, wb, attraction, a-b-db, 9, 1, 3, 3, 60, 135, 57, 129, 135, 60, 3, 0.45885
214, 3, wb, catch, NA, 999, 999, 3, 4, 129, 186, 103, 92, 101, 154, 2, 1.47004
214, 3, wb, catch, NA, 999, 999, 3, 4, 129, 186, 103, 92, 101, 154, 1, 0.346203
214, 3, wb, filler, NA, 999, 999, 3, 5, 104, 144, 141, 77, 60, 167, 3, 2.154
214, 3, wb, filler, NA, 999, 999, 3, 5, 104, 144, 141, 77, 60, 167, 1, 0.354013
214, 3, wb, filler, NA, 999, 999, 3, 6, 125, 120, 132, 118, 89, 150, 3, 1.23387
214, 3, wb, filler, NA, 999, 999, 3, 6, 125, 120, 132, 118, 89, 150, 1, 0.447574
214, 3, wb, filler, NA, 999, 999, 3, 7, 185, 72, 162, 147, 101, 151, 1, 1.65927
214, 3, wb, filler, NA, 999, 999, 3, 7, 185, 72, 162, 147, 101, 151, 2, 0.671336
214, 3, wb, filler, NA, 999, 999, 3, 8, 147, 104, 71, 77, 86, 179, 3, 0.898462
214, 3, wb, filler, NA, 999, 999, 3, 8, 147, 104, 71, 77, 86, 179, 2, 0.493417
214, 3, wb, attraction, a-b-db, 9, 3, 3, 9, 120, 195, 195, 120, 114, 186, 1, 0.959176
214, 3, wb, attraction, a-b-db, 9, 3, 3, 9, 120, 195, 195, 120, 114, 186, 3, 0.287596
214, 3, wb, filler, NA, 999, 999, 3, 10, 127, 193, 150, 153, 123, 117, 1, 1.00212
214, 3, wb, filler, NA, 999, 999, 3, 10, 127, 193, 150, 153, 123, 117, 2, 0.297076
214, 3, wb, attraction, a-b-db, 5, 2, 3, 11, 165, 90, 88, 161, 90, 165, 1, 0.530945
214, 3, wb, attraction, a-b-db, 5, 2, 3, 11, 165, 90, 88, 161, 90, 165, 3, 0.508699
214, 3, wb, attraction, a-b-da, 2, 3, 3, 12, 195, 120, 120, 195, 193, 119, 2, 0.501886
214, 3, wb, attraction, a-b-da, 2, 3, 3, 12, 195, 120, 120, 195, 193, 119, 1, 0.329056
214, 3, wb, attraction, a-b-da, 5, 1, 3, 13, 132, 58, 135, 60, 60, 135, 2, 0.561669
214, 3, wb, attraction, a-b-da, 5, 1, 3, 13, 132, 58, 135, 60, 60, 135, 1, 0.745894
214, 3, wb, attraction, a-b-db, 2, 2, 3, 14, 90, 165, 165, 90, 89, 163, 2, 0.497656
214, 3, wb, attraction, a-b-db, 2, 2, 3, 14, 90, 165, 165, 90, 89, 163, 3, 0.468881
214, 3, wb, attraction, a-b-db, 14, 2, 3, 15, 165, 90, 83, 153, 90, 165, 1, 0.744068
214, 3, wb, attraction, a-b-db, 14, 2, 3, 15, 165, 90, 83, 153, 90, 165, 2, 0.689021
214, 3, wb, attraction, a-b-da, 9, 2, 3, 16, 165, 90, 157, 86, 90, 165, 1, 0.931401
214, 3, wb, attraction, a-b-da, 9, 2, 3, 16, 165, 90, 157, 86, 90, 165, 3, 0.277285
214, 3, wb, attraction, a-b-da, 5, 3, 3, 17, 195, 120, 190, 117, 120, 195, 3, 1.01573
214, 3, wb, attraction, a-b-da, 5, 3, 3, 17, 195, 120, 190, 117, 120, 195, 1, 0.393344
214, 3, wb, attraction, a-b-db, 2, 1, 3, 18, 60, 135, 135, 60, 59, 134, 3, 0.515747
214, 3, wb, attraction, a-b-db, 2, 1, 3, 18, 60, 135, 135, 60, 59, 134, 2, 0.222179
214, 3, wb, attraction, a-b-da, 9, 1, 3, 19, 129, 57, 60, 135, 135, 60, 1, 0.475484
214, 3, wb, attraction, a-b-da, 9, 1, 3, 19, 129, 57, 60, 135, 135, 60, 2, 0.271202
214, 3, wb, filler, NA, 999, 999, 3, 20, 136, 113, 158, 89, 75, 118, 2, 0.386464
214, 3, wb, filler, NA, 999, 999, 3, 20, 136, 113, 158, 89, 75, 118, 3, 0.274319
214, 3, wb, attraction, a-b-da, 2, 1, 3, 21, 134, 59, 135, 60, 60, 135, 2, 0.780845
214, 3, wb, attraction, a-b-da, 2, 1, 3, 21, 134, 59, 135, 60, 60, 135, 3, 0.426589
214, 3, wb, attraction, a-b-db, 14, 3, 3, 22, 111, 181, 195, 120, 120, 195, 1, 0.945085
214, 3, wb, attraction, a-b-db, 14, 3, 3, 22, 111, 181, 195, 120, 120, 195, 2, 0.290112
214, 3, wb, attraction, a-b-db, 5, 3, 3, 23, 120, 195, 195, 120, 117, 190, 2, 1.13202
214, 3, wb, attraction, a-b-db, 5, 3, 3, 23, 120, 195, 195, 120, 117, 190, 1, 0.2295
214, 3, wb, filler, NA, 999, 999, 3, 24, 128, 132, 121, 68, 137, 134, 2, 0.490369
214, 3, wb, filler, NA, 999, 999, 3, 24, 128, 132, 121, 68, 137, 134, 3, 0.253282
214, 3, wb, attraction, a-b-db, 14, 1, 3, 25, 56, 125, 60, 135, 135, 60, 1, 0.761084
214, 3, wb, attraction, a-b-db, 14, 1, 3, 25, 56, 125, 60, 135, 135, 60, 2, 0.772678
214, 3, wb, filler, NA, 999, 999, 3, 26, 85, 125, 146, 123, 195, 190, 1, 0.576486
214, 3, wb, filler, NA, 999, 999, 3, 26, 85, 125, 146, 123, 195, 190, 3, 0.208351
214, 3, wb, filler, NA, 999, 999, 3, 27, 145, 60, 158, 106, 72, 171, 1, 1.82955
214, 3, wb, filler, NA, 999, 999, 3, 27, 145, 60, 158, 106, 72, 171, 2, 0.402892
214, 3, wb, catch, NA, 999, 999, 3, 28, 182, 133, 131, 124, 101, 94, 3, 0.77668
214, 3, wb, catch, NA, 999, 999, 3, 28, 182, 133, 131, 124, 101, 94, 1, 0.528455
214, 3, wb, attraction, a-b-da, 14, 1, 3, 29, 125, 56, 60, 135, 135, 60, 1, 0.616957
214, 3, wb, attraction, a-b-da, 14, 1, 3, 29, 125, 56, 60, 135, 135, 60, 3, 0.631374
214, 3, wb, attraction, a-b-db, 2, 3, 3, 30, 195, 120, 119, 193, 120, 195, 2, 0.451835
214, 3, wb, attraction, a-b-db, 2, 3, 3, 30, 195, 120, 119, 193, 120, 195, 3, 0.680911
214, 3, wb, attraction, a-b-da, 9, 3, 3, 31, 120, 195, 195, 120, 186, 114, 3, 1.23532
214, 3, wb, attraction, a-b-da, 9, 3, 3, 31, 120, 195, 195, 120, 186, 114, 2, 0.400884
214, 3, wb, attraction, a-b-db, 5, 1, 3, 32, 60, 135, 135, 60, 58, 132, 1, 0.582743
214, 3, wb, attraction, a-b-db, 5, 1, 3, 32, 60, 135, 135, 60, 58, 132, 2, 0.806538
214, 3, wb, attraction, a-b-da, 2, 2, 3, 33, 165, 90, 163, 89, 90, 165, 1, 0.772271
214, 3, wb, attraction, a-b-da, 2, 2, 3, 33, 165, 90, 163, 89, 90, 165, 2, 0.316025
214, 3, wb, attraction, a-b-da, 14, 2, 3, 34, 90, 165, 153, 83, 165, 90, 3, 0.485073
214, 3, wb, attraction, a-b-da, 14, 2, 3, 34, 90, 165, 153, 83, 165, 90, 2, 0.888955
214, 3, wb, filler, NA, 999, 999, 3, 35, 111, 90, 157, 103, 95, 106, 1, 0.555287
214, 3, wb, filler, NA, 999, 999, 3, 35, 111, 90, 157, 103, 95, 106, 2, 0.547838
214, 3, wb, attraction, a-b-db, 9, 2, 3, 36, 86, 157, 165, 90, 90, 165, 1, 0.675532
214, 3, wb, attraction, a-b-db, 9, 2, 3, 36, 86, 157, 165, 90, 90, 165, 2, 0.687374
214, 3, wb, attraction, a-b-da, 14, 3, 3, 37, 195, 120, 181, 111, 120, 195, 3, 0.881706
214, 3, wb, attraction, a-b-da, 14, 3, 3, 37, 195, 120, 181, 111, 120, 195, 2, 0.429334
214, 3, wb, catch, NA, 999, 999, 4, 1, 141, 174, 95, 160, 113, 82, 3, 0.873799
214, 3, wb, catch, NA, 999, 999, 4, 1, 141, 174, 95, 160, 113, 82, 2, 0.317601
214, 3, wb, attraction, a-b-db, 2, 2, 4, 2, 89, 163, 90, 165, 165, 90, 1, 1.34288
214, 3, wb, attraction, a-b-db, 2, 2, 4, 2, 89, 163, 90, 165, 165, 90, 2, 0.391582
214, 3, wb, filler, NA, 999, 999, 4, 3, 141, 184, 175, 175, 85, 136, 3, 0.78139
214, 3, wb, filler, NA, 999, 999, 4, 3, 141, 184, 175, 175, 85, 136, 1, 0.433482
214, 3, wb, attraction, a-b-db, 5, 1, 4, 4, 58, 132, 135, 60, 60, 135, 1, 0.809617
214, 3, wb, attraction, a-b-db, 5, 1, 4, 4, 58, 132, 135, 60, 60, 135, 2, 0.679987
214, 3, wb, attraction, a-b-db, 14, 2, 4, 5, 90, 165, 83, 153, 165, 90, 1, 0.818497
214, 3, wb, attraction, a-b-db, 14, 2, 4, 5, 90, 165, 83, 153, 165, 90, 3, 0.776861
214, 3, wb, attraction, a-b-da, 2, 1, 4, 6, 135, 60, 134, 59, 60, 135, 2, 0.50322
214, 3, wb, attraction, a-b-da, 2, 1, 4, 6, 135, 60, 134, 59, 60, 135, 3, 0.450324
214, 3, wb, attraction, a-b-db, 14, 1, 4, 7, 56, 125, 135, 60, 60, 135, 1, 0.334176
214, 3, wb, attraction, a-b-db, 14, 1, 4, 7, 56, 125, 135, 60, 60, 135, 2, 0.560016
214, 3, wb, attraction, a-b-db, 9, 1, 4, 8, 135, 60, 57, 129, 60, 135, 2, 0.767014
214, 3, wb, attraction, a-b-db, 9, 1, 4, 8, 135, 60, 57, 129, 60, 135, 1, 0.58349
214, 3, wb, filler, NA, 999, 999, 4, 9, 79, 175, 106, 143, 112, 94, 3, 0.998064
214, 3, wb, filler, NA, 999, 999, 4, 9, 79, 175, 106, 143, 112, 94, 1, 0.492884
214, 3, wb, attraction, a-b-da, 5, 1, 4, 10, 135, 60, 60, 135, 132, 58, 2, 0.5908
214, 3, wb, attraction, a-b-da, 5, 1, 4, 10, 135, 60, 60, 135, 132, 58, 3, 0.43796
214, 3, wb, attraction, a-b-da, 9, 1, 4, 11, 135, 60, 60, 135, 129, 57, 2, 1.10628
214, 3, wb, attraction, a-b-da, 9, 1, 4, 11, 135, 60, 60, 135, 129, 57, 1, 0.516549
214, 3, wb, attraction, a-b-da, 5, 3, 4, 12, 195, 120, 190, 117, 120, 195, 2, 0.429658
214, 3, wb, attraction, a-b-da, 5, 3, 4, 12, 195, 120, 190, 117, 120, 195, 3, 0.307514
214, 3, wb, attraction, a-b-db, 2, 1, 4, 13, 135, 60, 60, 135, 59, 134, 3, 0.948834
214, 3, wb, attraction, a-b-db, 2, 1, 4, 13, 135, 60, 60, 135, 59, 134, 2, 0.397723
214, 3, wb, attraction, a-b-da, 14, 3, 4, 14, 195, 120, 181, 111, 120, 195, 3, 0.459706
214, 3, wb, attraction, a-b-da, 14, 3, 4, 14, 195, 120, 181, 111, 120, 195, 2, 0.321912
214, 3, wb, attraction, a-b-da, 2, 3, 4, 15, 120, 195, 193, 119, 195, 120, 3, 0.593293
214, 3, wb, attraction, a-b-da, 2, 3, 4, 15, 120, 195, 193, 119, 195, 120, 1, 0.344393
214, 3, wb, attraction, a-b-db, 9, 2, 4, 16, 165, 90, 90, 165, 86, 157, 2, 0.560189
214, 3, wb, attraction, a-b-db, 9, 2, 4, 16, 165, 90, 90, 165, 86, 157, 3, 0.368552
214, 3, wb, attraction, a-b-da, 2, 2, 4, 17, 165, 90, 163, 89, 90, 165, 1, 0.399805
214, 3, wb, attraction, a-b-da, 2, 2, 4, 17, 165, 90, 163, 89, 90, 165, 2, 0.287118
214, 3, wb, catch, NA, 999, 999, 4, 18, 153, 162, 120, 135, 101, 94, 3, 0.56941
214, 3, wb, catch, NA, 999, 999, 4, 18, 153, 162, 120, 135, 101, 94, 1, 0.274089
214, 3, wb, attraction, a-b-da, 14, 2, 4, 19, 90, 165, 153, 83, 165, 90, 2, 0.572481
214, 3, wb, attraction, a-b-da, 14, 2, 4, 19, 90, 165, 153, 83, 165, 90, 3, 0.276311
214, 3, wb, filler, NA, 999, 999, 4, 20, 114, 155, 130, 74, 134, 115, 2, 0.622738
214, 3, wb, filler, NA, 999, 999, 4, 20, 114, 155, 130, 74, 134, 115, 1, 0.308526
214, 3, wb, attraction, a-b-db, 2, 3, 4, 21, 120, 195, 195, 120, 119, 193, 2, 0.469826
214, 3, wb, attraction, a-b-db, 2, 3, 4, 21, 120, 195, 195, 120, 119, 193, 3, 0.290336
214, 3, wb, attraction, a-b-da, 9, 3, 4, 22, 120, 195, 186, 114, 195, 120, 1, 0.37202
214, 3, wb, attraction, a-b-da, 9, 3, 4, 22, 120, 195, 186, 114, 195, 120, 2, 0.324077
214, 3, wb, attraction, a-b-da, 5, 2, 4, 23, 165, 90, 90, 165, 161, 88, 2, 0.676405
214, 3, wb, attraction, a-b-da, 5, 2, 4, 23, 165, 90, 90, 165, 161, 88, 1, 0.584152
214, 3, wb, attraction, a-b-db, 9, 3, 4, 24, 195, 120, 114, 186, 120, 195, 3, 0.982712
214, 3, wb, attraction, a-b-db, 9, 3, 4, 24, 195, 120, 114, 186, 120, 195, 1, 0.566284
214, 3, wb, filler, NA, 999, 999, 4, 25, 99, 74, 130, 78, 88, 92, 1, 0.949478
214, 3, wb, filler, NA, 999, 999, 4, 25, 99, 74, 130, 78, 88, 92, 2, 0.3907
214, 3, wb, attraction, a-b-db, 5, 3, 4, 26, 120, 195, 195, 120, 117, 190, 2, 0.532249
214, 3, wb, attraction, a-b-db, 5, 3, 4, 26, 120, 195, 195, 120, 117, 190, 3, 0.310045
214, 3, wb, catch, NA, 999, 999, 4, 27, 145, 110, 60, 135, 125, 190, 2, 1.01513
214, 3, wb, catch, NA, 999, 999, 4, 27, 145, 110, 60, 135, 125, 190, 3, 0.493689
214, 3, wb, filler, NA, 999, 999, 4, 28, 135, 111, 170, 108, 146, 155, 1, 0.735332
214, 3, wb, filler, NA, 999, 999, 4, 28, 135, 111, 170, 108, 146, 155, 3, 0.569055
214, 3, wb, filler, NA, 999, 999, 4, 29, 88, 85, 61, 117, 159, 139, 1, 0.968222
214, 3, wb, filler, NA, 999, 999, 4, 29, 88, 85, 61, 117, 159, 139, 3, 0.328562
214, 3, wb, attraction, a-b-db, 14, 3, 4, 30, 120, 195, 195, 120, 111, 181, 2, 0.553018
214, 3, wb, attraction, a-b-db, 14, 3, 4, 30, 120, 195, 195, 120, 111, 181, 1, 0.338076
214, 3, wb, filler, NA, 999, 999, 4, 31, 104, 150, 115, 113, 136, 69, 3, 0.570686
214, 3, wb, filler, NA, 999, 999, 4, 31, 104, 150, 115, 113, 136, 69, 2, 0.499083
214, 3, wb, filler, NA, 999, 999, 4, 32, 73, 135, 100, 185, 132, 192, 1, 0.716847
214, 3, wb, filler, NA, 999, 999, 4, 32, 73, 135, 100, 185, 132, 192, 3, 0.343314
214, 3, wb, filler, NA, 999, 999, 4, 33, 133, 108, 74, 61, 153, 77, 2, 0.543209
214, 3, wb, filler, NA, 999, 999, 4, 33, 133, 108, 74, 61, 153, 77, 1, 0.456398
214, 3, wb, filler, NA, 999, 999, 4, 34, 93, 135, 77, 94, 71, 190, 2, 0.604021
214, 3, wb, filler, NA, 999, 999, 4, 34, 93, 135, 77, 94, 71, 190, 3, 0.315203
214, 3, wb, attraction, a-b-db, 5, 2, 4, 35, 165, 90, 88, 161, 90, 165, 3, 1.00434
214, 3, wb, attraction, a-b-db, 5, 2, 4, 35, 165, 90, 88, 161, 90, 165, 1, 0.659471
214, 3, wb, attraction, a-b-da, 14, 1, 4, 36, 60, 135, 135, 60, 125, 56, 1, 0.862446
214, 3, wb, attraction, a-b-da, 14, 1, 4, 36, 60, 135, 135, 60, 125, 56, 3, 1.41126
214, 3, wb, attraction, a-b-da, 9, 2, 4, 37, 90, 165, 157, 86, 165, 90, 2, 1.27165
214, 3, wb, attraction, a-b-da, 9, 2, 4, 37, 90, 165, 157, 86, 165, 90, 1, 0.467386
214, 3, wb, attraction, a-b-da, 9, 1, 5, 1, 135, 60, 129, 57, 60, 135, 2, 2.61291
214, 3, wb, attraction, a-b-da, 9, 1, 5, 1, 135, 60, 129, 57, 60, 135, 1, 0.322766
214, 3, wb, filler, NA, 999, 999, 5, 2, 180, 160, 127, 118, 106, 79, 3, 0.811911
214, 3, wb, filler, NA, 999, 999, 5, 2, 180, 160, 127, 118, 106, 79, 1, 0.394346
214, 3, wb, attraction, a-b-db, 14, 3, 5, 3, 111, 181, 120, 195, 195, 120, 1, 0.696227
214, 3, wb, attraction, a-b-db, 14, 3, 5, 3, 111, 181, 120, 195, 195, 120, 3, 0.61932
214, 3, wb, attraction, a-b-db, 9, 1, 5, 4, 135, 60, 60, 135, 57, 129, 1, 0.544321
214, 3, wb, attraction, a-b-db, 9, 1, 5, 4, 135, 60, 60, 135, 57, 129, 2, 0.37759
214, 3, wb, attraction, a-b-da, 2, 1, 5, 5, 134, 59, 60, 135, 135, 60, 1, 0.559971
214, 3, wb, attraction, a-b-da, 2, 1, 5, 5, 134, 59, 60, 135, 135, 60, 2, 0.384531
214, 3, wb, attraction, a-b-da, 14, 3, 5, 6, 181, 111, 195, 120, 120, 195, 3, 0.430882
214, 3, wb, attraction, a-b-da, 14, 3, 5, 6, 181, 111, 195, 120, 120, 195, 2, 0.308854
214, 3, wb, attraction, a-b-da, 2, 2, 5, 7, 90, 165, 165, 90, 163, 89, 3, 0.62192
214, 3, wb, attraction, a-b-da, 2, 2, 5, 7, 90, 165, 165, 90, 163, 89, 2, 0.363718
214, 3, wb, attraction, a-b-db, 2, 1, 5, 8, 60, 135, 59, 134, 135, 60, 1, 0.427066
214, 3, wb, attraction, a-b-db, 2, 1, 5, 8, 60, 135, 59, 134, 135, 60, 2, 0.232736
214, 3, wb, filler, NA, 999, 999, 5, 9, 96, 96, 60, 72, 136, 76, 2, 0.749363
214, 3, wb, filler, NA, 999, 999, 5, 9, 96, 96, 60, 72, 136, 76, 3, 0.32345
214, 3, wb, filler, NA, 999, 999, 5, 10, 138, 147, 90, 146, 65, 160, 2, 0.710818
214, 3, wb, filler, NA, 999, 999, 5, 10, 138, 147, 90, 146, 65, 160, 1, 0.289254
214, 3, wb, attraction, a-b-da, 5, 3, 5, 11, 190, 117, 195, 120, 120, 195, 2, 0.507746
214, 3, wb, attraction, a-b-da, 5, 3, 5, 11, 190, 117, 195, 120, 120, 195, 3, 0.262239
214, 3, wb, attraction, a-b-db, 5, 2, 5, 12, 90, 165, 88, 161, 165, 90, 2, 0.42545
214, 3, wb, attraction, a-b-db, 5, 2, 5, 12, 90, 165, 88, 161, 165, 90, 1, 0.343327
214, 3, wb, catch, NA, 999, 999, 5, 13, 177, 138, 165, 90, 126, 69, 1, 0.431164
214, 3, wb, catch, NA, 999, 999, 5, 13, 177, 138, 165, 90, 126, 69, 2, 0.565011
214, 3, wb, attraction, a-b-da, 5, 2, 5, 14, 90, 165, 161, 88, 165, 90, 2, 0.852163
214, 3, wb, attraction, a-b-da, 5, 2, 5, 14, 90, 165, 161, 88, 165, 90, 3, 0.329199
214, 3, wb, filler, NA, 999, 999, 5, 15, 180, 177, 146, 89, 133, 156, 2, 0.457689
214, 3, wb, filler, NA, 999, 999, 5, 15, 180, 177, 146, 89, 133, 156, 1, 0.302136
214, 3, wb, filler, NA, 999, 999, 5, 16, 158, 67, 100, 98, 150, 124, 2, 0.71188
214, 3, wb, filler, NA, 999, 999, 5, 16, 158, 67, 100, 98, 150, 124, 3, 0.290342
214, 3, wb, attraction, a-b-db, 2, 3, 5, 17, 119, 193, 120, 195, 195, 120, 1, 0.748181
214, 3, wb, attraction, a-b-db, 2, 3, 5, 17, 119, 193, 120, 195, 195, 120, 3, 0.301237
214, 3, wb, attraction, a-b-da, 2, 3, 5, 18, 120, 195, 193, 119, 195, 120, 2, 0.815103
214, 3, wb, attraction, a-b-da, 2, 3, 5, 18, 120, 195, 193, 119, 195, 120, 3, 0.309472
214, 3, wb, attraction, a-b-db, 14, 1, 5, 19, 60, 135, 135, 60, 56, 125, 3, 1.12685
214, 3, wb, attraction, a-b-db, 14, 1, 5, 19, 60, 135, 135, 60, 56, 125, 2, 0.936348
214, 3, wb, filler, NA, 999, 999, 5, 20, 68, 106, 91, 132, 75, 166, 1, 1.23272
214, 3, wb, filler, NA, 999, 999, 5, 20, 68, 106, 91, 132, 75, 166, 3, 0.394181
214, 3, wb, attraction, a-b-db, 2, 2, 5, 21, 90, 165, 89, 163, 165, 90, 2, 0.579958
214, 3, wb, attraction, a-b-db, 2, 2, 5, 21, 90, 165, 89, 163, 165, 90, 3, 0.595806
214, 3, wb, catch, NA, 999, 999, 5, 22, 133, 182, 83, 112, 117, 138, 2, 0.497582
214, 3, wb, catch, NA, 999, 999, 5, 22, 133, 182, 83, 112, 117, 138, 1, 0.364783
214, 3, wb, attraction, a-b-da, 9, 2, 5, 23, 165, 90, 157, 86, 90, 165, 1, 1.11583
214, 3, wb, attraction, a-b-da, 9, 2, 5, 23, 165, 90, 157, 86, 90, 165, 2, 0.270157
214, 3, wb, attraction, a-b-da, 9, 3, 5, 24, 195, 120, 120, 195, 186, 114, 2, 0.841375
214, 3, wb, attraction, a-b-da, 9, 3, 5, 24, 195, 120, 120, 195, 186, 114, 1, 0.486499
214, 3, wb, attraction, a-b-da, 5, 1, 5, 25, 60, 135, 135, 60, 132, 58, 1, 0.952917
214, 3, wb, attraction, a-b-da, 5, 1, 5, 25, 60, 135, 135, 60, 132, 58, 3, 0.353914
214, 3, wb, filler, NA, 999, 999, 5, 26, 126, 101, 149, 143, 88, 185, 1, 1.00172
214, 3, wb, filler, NA, 999, 999, 5, 26, 126, 101, 149, 143, 88, 185, 2, 0.352677
214, 3, wb, catch, NA, 999, 999, 5, 27, 161, 94, 121, 74, 188, 127, 3, 0.888616
214, 3, wb, catch, NA, 999, 999, 5, 27, 161, 94, 121, 74, 188, 127, 2, 4.58765
214, 3, wb, filler, NA, 999, 999, 5, 28, 124, 65, 85, 152, 91, 159, 1, 1.00082
214, 3, wb, filler, NA, 999, 999, 5, 28, 124, 65, 85, 152, 91, 159, 3, 0.503772
214, 3, wb, attraction, a-b-db, 5, 1, 5, 29, 135, 60, 60, 135, 58, 132, 1, 1.20962
214, 3, wb, attraction, a-b-db, 5, 1, 5, 29, 135, 60, 60, 135, 58, 132, 2, 0.719851
214, 3, wb, attraction, a-b-db, 9, 2, 5, 30, 86, 157, 90, 165, 165, 90, 3, 1.41691
214, 3, wb, attraction, a-b-db, 9, 2, 5, 30, 86, 157, 90, 165, 165, 90, 1, 0.5911
214, 3, wb, attraction, a-b-da, 14, 1, 5, 31, 135, 60, 60, 135, 125, 56, 3, 1.06084
214, 3, wb, attraction, a-b-da, 14, 1, 5, 31, 135, 60, 60, 135, 125, 56, 1, 0.897155
214, 3, wb, filler, NA, 999, 999, 5, 32, 130, 122, 123, 160, 136, 151, 1, 1.06679
214, 3, wb, filler, NA, 999, 999, 5, 32, 130, 122, 123, 160, 136, 151, 2, 1.56708
214, 3, wb, attraction, a-b-da, 14, 2, 5, 33, 165, 90, 90, 165, 153, 83, 3, 0.949829
214, 3, wb, attraction, a-b-da, 14, 2, 5, 33, 165, 90, 90, 165, 153, 83, 2, 0.358869
214, 3, wb, attraction, a-b-db, 9, 3, 5, 34, 195, 120, 114, 186, 120, 195, 2, 1.34207
214, 3, wb, attraction, a-b-db, 9, 3, 5, 34, 195, 120, 114, 186, 120, 195, 3, 0.662974
214, 3, wb, attraction, a-b-db, 14, 2, 5, 35, 90, 165, 83, 153, 165, 90, 2, 1.64996
214, 3, wb, attraction, a-b-db, 14, 2, 5, 35, 90, 165, 83, 153, 165, 90, 3, 0.662791
214, 3, wb, filler, NA, 999, 999, 5, 36, 97, 185, 148, 105, 195, 103, 2, 1.28182
214, 3, wb, filler, NA, 999, 999, 5, 36, 97, 185, 148, 105, 195, 103, 1, 0.477378
214, 3, wb, attraction, a-b-db, 5, 3, 5, 37, 195, 120, 120, 195, 117, 190, 2, 1.71987
214, 3, wb, attraction, a-b-db, 5, 3, 5, 37, 195, 120, 120, 195, 117, 190, 1, 0.674029
214, 3, wb, filler, NA, 999, 999, 6, 1, 109, 139, 166, 99, 160, 110, 1, 0.676382
214, 3, wb, filler, NA, 999, 999, 6, 1, 109, 139, 166, 99, 160, 110, 3, 0.776206
214, 3, wb, attraction, a-b-db, 9, 2, 6, 2, 165, 90, 86, 157, 90, 165, 3, 1.07054
214, 3, wb, attraction, a-b-db, 9, 2, 6, 2, 165, 90, 86, 157, 90, 165, 1, 0.618912
214, 3, wb, attraction, a-b-da, 14, 1, 6, 3, 60, 135, 125, 56, 135, 60, 2, 1.38388
214, 3, wb, attraction, a-b-da, 14, 1, 6, 3, 60, 135, 125, 56, 135, 60, 3, 0.639496
214, 3, wb, filler, NA, 999, 999, 6, 4, 113, 164, 177, 93, 151, 155, 2, 2.3398
214, 3, wb, filler, NA, 999, 999, 6, 4, 113, 164, 177, 93, 151, 155, 3, 0.604483
214, 3, wb, attraction, a-b-db, 2, 3, 6, 5, 119, 193, 120, 195, 195, 120, 1, 7.06627
214, 3, wb, attraction, a-b-db, 2, 3, 6, 5, 119, 193, 120, 195, 195, 120, 3, 0.58865
214, 3, wb, attraction, a-b-da, 2, 1, 6, 6, 134, 59, 135, 60, 60, 135, 1, 0.939072
214, 3, wb, attraction, a-b-da, 2, 1, 6, 6, 134, 59, 135, 60, 60, 135, 2, 0.372178
214, 3, wb, filler, NA, 999, 999, 6, 7, 177, 156, 77, 94, 110, 175, 2, 0.683225
214, 3, wb, filler, NA, 999, 999, 6, 7, 177, 156, 77, 94, 110, 175, 1, 0.470976
214, 3, wb, filler, NA, 999, 999, 6, 8, 129, 190, 56, 105, 78, 108, 2, 0.754252
214, 3, wb, filler, NA, 999, 999, 6, 8, 129, 190, 56, 105, 78, 108, 1, 0.842481
214, 3, wb, filler, NA, 999, 999, 6, 9, 105, 166, 172, 112, 193, 98, 2, 0.846102
214, 3, wb, filler, NA, 999, 999, 6, 9, 105, 166, 172, 112, 193, 98, 3, 0.49117
214, 3, wb, catch, NA, 999, 999, 6, 10, 134, 181, 158, 97, 91, 104, 3, 0.724941
214, 3, wb, catch, NA, 999, 999, 6, 10, 134, 181, 158, 97, 91, 104, 1, 0.742789
214, 3, wb, attraction, a-b-db, 5, 3, 6, 11, 195, 120, 117, 190, 120, 195, 2, 0.750465
214, 3, wb, attraction, a-b-db, 5, 3, 6, 11, 195, 120, 117, 190, 120, 195, 3, 0.543469
214, 3, wb, catch, NA, 999, 999, 6, 12, 61, 134, 189, 126, 115, 140, 1, 0.975369
214, 3, wb, catch, NA, 999, 999, 6, 12, 61, 134, 189, 126, 115, 140, 2, 0.295031
214, 3, wb, attraction, a-b-db, 9, 3, 6, 13, 195, 120, 114, 186, 120, 195, 2, 2.6329
214, 3, wb, attraction, a-b-db, 9, 3, 6, 13, 195, 120, 114, 186, 120, 195, 3, 0.725917
214, 3, wb, attraction, a-b-db, 14, 2, 6, 14, 165, 90, 90, 165, 83, 153, 2, 3.11045
214, 3, wb, attraction, a-b-db, 14, 2, 6, 14, 165, 90, 90, 165, 83, 153, 1, 0.639961
214, 3, wb, attraction, a-b-da, 5, 1, 6, 15, 60, 135, 132, 58, 135, 60, 2, 1.21184
214, 3, wb, attraction, a-b-da, 5, 1, 6, 15, 60, 135, 132, 58, 135, 60, 3, 0.354027
214, 3, wb, attraction, a-b-db, 9, 1, 6, 16, 57, 129, 60, 135, 135, 60, 1, 2.17797
214, 3, wb, attraction, a-b-db, 9, 1, 6, 16, 57, 129, 60, 135, 135, 60, 3, 1.04126
214, 3, wb, filler, NA, 999, 999, 6, 17, 135, 56, 119, 90, 148, 195, 1, 1.83804
214, 3, wb, filler, NA, 999, 999, 6, 17, 135, 56, 119, 90, 148, 195, 3, 0.43348
214, 3, wb, attraction, a-b-da, 14, 3, 6, 18, 181, 111, 195, 120, 120, 195, 1, 1.58197
214, 3, wb, attraction, a-b-da, 14, 3, 6, 18, 181, 111, 195, 120, 120, 195, 3, 0.373413
214, 3, wb, filler, NA, 999, 999, 6, 19, 168, 96, 124, 126, 59, 73, 3, 1.2359
214, 3, wb, filler, NA, 999, 999, 6, 19, 168, 96, 124, 126, 59, 73, 2, 2.27361
214, 3, wb, attraction, a-b-db, 5, 2, 6, 20, 165, 90, 90, 165, 88, 161, 2, 4.5641
214, 3, wb, attraction, a-b-db, 5, 2, 6, 20, 165, 90, 90, 165, 88, 161, 1, 0.47524
214, 3, wb, attraction, a-b-db, 5, 1, 6, 21, 58, 132, 60, 135, 135, 60, 3, 1.53384
214, 3, wb, attraction, a-b-db, 5, 1, 6, 21, 58, 132, 60, 135, 135, 60, 1, 0.463297
214, 3, wb, filler, NA, 999, 999, 6, 22, 58, 192, 68, 129, 73, 187, 2, 1.23441
214, 3, wb, filler, NA, 999, 999, 6, 22, 58, 192, 68, 129, 73, 187, 3, 0.656095
214, 3, wb, attraction, a-b-da, 9, 2, 6, 23, 90, 165, 165, 90, 157, 86, 2, 5.50784
214, 3, wb, attraction, a-b-da, 9, 2, 6, 23, 90, 165, 165, 90, 157, 86, 3, 0.532616
214, 3, wb, attraction, a-b-da, 2, 3, 6, 24, 193, 119, 120, 195, 195, 120, 2, 4.4772
214, 3, wb, attraction, a-b-da, 2, 3, 6, 24, 193, 119, 120, 195, 195, 120, 3, 0.455777
214, 3, wb, filler, NA, 999, 999, 6, 25, 78, 136, 66, 189, 62, 162, 2, 1.48354
214, 3, wb, filler, NA, 999, 999, 6, 25, 78, 136, 66, 189, 62, 162, 1, 1.15089
214, 3, wb, catch, NA, 999, 999, 6, 26, 194, 121, 126, 69, 138, 117, 2, 1.10262
214, 3, wb, catch, NA, 999, 999, 6, 26, 194, 121, 126, 69, 138, 117, 1, 0.609524
214, 3, wb, attraction, a-b-db, 2, 1, 6, 27, 135, 60, 60, 135, 59, 134, 3, 2.19869
214, 3, wb, attraction, a-b-db, 2, 1, 6, 27, 135, 60, 60, 135, 59, 134, 1, 0.837229
214, 3, wb, attraction, a-b-da, 9, 1, 6, 28, 135, 60, 129, 57, 60, 135, 2, 1.44166
214, 3, wb, attraction, a-b-da, 9, 1, 6, 28, 135, 60, 129, 57, 60, 135, 1, 0.55839
214, 3, wb, attraction, a-b-db, 2, 2, 6, 29, 165, 90, 89, 163, 90, 165, 2, 1.93351
214, 3, wb, attraction, a-b-db, 2, 2, 6, 29, 165, 90, 89, 163, 90, 165, 1, 0.40685
214, 3, wb, attraction, a-b-db, 14, 3, 6, 30, 120, 195, 195, 120, 111, 181, 3, 3.748
214, 3, wb, attraction, a-b-db, 14, 3, 6, 30, 120, 195, 195, 120, 111, 181, 2, 1.90822
214, 3, wb, attraction, a-b-da, 2, 2, 6, 31, 90, 165, 163, 89, 165, 90, 2, 4.00486
214, 3, wb, attraction, a-b-da, 2, 2, 6, 31, 90, 165, 163, 89, 165, 90, 1, 1.49026
214, 3, wb, attraction, a-b-da, 5, 3, 6, 32, 120, 195, 195, 120, 190, 117, 2, 1.28381
214, 3, wb, attraction, a-b-da, 5, 3, 6, 32, 120, 195, 195, 120, 190, 117, 3, 0.463241
214, 3, wb, attraction, a-b-da, 5, 2, 6, 33, 165, 90, 90, 165, 161, 88, 1, 1.27447
214, 3, wb, attraction, a-b-da, 5, 2, 6, 33, 165, 90, 90, 165, 161, 88, 2, 0.365926
214, 3, wb, attraction, a-b-da, 14, 2, 6, 34, 165, 90, 90, 165, 153, 83, 3, 0.845137
214, 3, wb, attraction, a-b-da, 14, 2, 6, 34, 165, 90, 90, 165, 153, 83, 2, 0.562229
214, 3, wb, attraction, a-b-db, 14, 1, 6, 35, 135, 60, 56, 125, 60, 135, 2, 0.833289
214, 3, wb, attraction, a-b-db, 14, 1, 6, 35, 135, 60, 56, 125, 60, 135, 1, 0.406986
214, 3, wb, filler, NA, 999, 999, 6, 36, 130, 130, 130, 91, 172, 146, 2, 0.876117
214, 3, wb, filler, NA, 999, 999, 6, 36, 130, 130, 130, 91, 172, 146, 3, 0.383848
214, 3, wb, attraction, a-b-da, 9, 3, 6, 37, 120, 195, 186, 114, 195, 120, 2, 1.17426
214, 3, wb, attraction, a-b-da, 9, 3, 6, 37, 120, 195, 186, 114, 195, 120, 3, 0.406007
214, 3, wb, filler, NA, 999, 999, 7, 1, 177, 177, 179, 108, 174, 149, 2, 1.03584
214, 3, wb, filler, NA, 999, 999, 7, 1, 177, 177, 179, 108, 174, 149, 1, 0.513332
214, 3, wb, attraction, a-b-db, 2, 2, 7, 2, 89, 163, 165, 90, 90, 165, 2, 0.722476
214, 3, wb, attraction, a-b-db, 2, 2, 7, 2, 89, 163, 165, 90, 90, 165, 3, 0.404269
214, 3, wb, attraction, a-b-db, 5, 2, 7, 3, 88, 161, 165, 90, 90, 165, 1, 1.63408
214, 3, wb, attraction, a-b-db, 5, 2, 7, 3, 88, 161, 165, 90, 90, 165, 3, 0.711558
214, 3, wb, filler, NA, 999, 999, 7, 4, 161, 159, 77, 153, 111, 79, 3, 1.28861
214, 3, wb, filler, NA, 999, 999, 7, 4, 161, 159, 77, 153, 111, 79, 1, 0.707453
214, 3, wb, attraction, a-b-db, 2, 3, 7, 5, 195, 120, 120, 195, 119, 193, 3, 1.6686
214, 3, wb, attraction, a-b-db, 2, 3, 7, 5, 195, 120, 120, 195, 119, 193, 1, 0.536813
214, 3, wb, attraction, a-b-db, 2, 1, 7, 6, 135, 60, 59, 134, 60, 135, 2, 0.873063
214, 3, wb, attraction, a-b-db, 2, 1, 7, 6, 135, 60, 59, 134, 60, 135, 3, 1.00488
214, 3, wb, attraction, a-b-da, 9, 2, 7, 7, 157, 86, 165, 90, 90, 165, 1, 0.834355
214, 3, wb, attraction, a-b-da, 9, 2, 7, 7, 157, 86, 165, 90, 90, 165, 2, 0.472232
214, 3, wb, attraction, a-b-db, 9, 1, 7, 8, 60, 135, 135, 60, 57, 129, 2, 0.747377
214, 3, wb, attraction, a-b-db, 9, 1, 7, 8, 60, 135, 135, 60, 57, 129, 1, 0.524469
214, 3, wb, attraction, a-b-da, 14, 3, 7, 9, 181, 111, 120, 195, 195, 120, 1, 1.68475
214, 3, wb, attraction, a-b-da, 14, 3, 7, 9, 181, 111, 120, 195, 195, 120, 2, 0.240346
214, 3, wb, attraction, a-b-db, 14, 1, 7, 10, 60, 135, 135, 60, 56, 125, 1, 0.6281
214, 3, wb, attraction, a-b-db, 14, 1, 7, 10, 60, 135, 135, 60, 56, 125, 2, 0.306012
214, 3, wb, attraction, a-b-db, 14, 2, 7, 11, 83, 153, 90, 165, 165, 90, 1, 2.29179
214, 3, wb, attraction, a-b-db, 14, 2, 7, 11, 83, 153, 90, 165, 165, 90, 3, 0.654424
214, 3, wb, attraction, a-b-db, 5, 3, 7, 12, 195, 120, 117, 190, 120, 195, 3, 0.978131
214, 3, wb, attraction, a-b-db, 5, 3, 7, 12, 195, 120, 117, 190, 120, 195, 1, 0.433722
214, 3, wb, attraction, a-b-da, 5, 3, 7, 13, 190, 117, 195, 120, 120, 195, 2, 0.774213
214, 3, wb, attraction, a-b-da, 5, 3, 7, 13, 190, 117, 195, 120, 120, 195, 3, 0.845856
214, 3, wb, attraction, a-b-da, 2, 1, 7, 14, 135, 60, 134, 59, 60, 135, 2, 1.04163
214, 3, wb, attraction, a-b-da, 2, 1, 7, 14, 135, 60, 134, 59, 60, 135, 1, 0.422612
214, 3, wb, catch, NA, 999, 999, 7, 15, 139, 116, 76, 119, 133, 182, 2, 1.06779
214, 3, wb, catch, NA, 999, 999, 7, 15, 139, 116, 76, 119, 133, 182, 3, 0.488083
214, 3, wb, attraction, a-b-db, 9, 2, 7, 16, 86, 157, 90, 165, 165, 90, 1, 1.54654
214, 3, wb, attraction, a-b-db, 9, 2, 7, 16, 86, 157, 90, 165, 165, 90, 3, 0.419402
214, 3, wb, filler, NA, 999, 999, 7, 17, 181, 169, 83, 125, 167, 179, 2, 0.632438
214, 3, wb, filler, NA, 999, 999, 7, 17, 181, 169, 83, 125, 167, 179, 1, 0.438281
214, 3, wb, filler, NA, 999, 999, 7, 18, 125, 170, 191, 63, 183, 83, 2, 1.48265
214, 3, wb, filler, NA, 999, 999, 7, 18, 125, 170, 191, 63, 183, 83, 1, 0.326159
214, 3, wb, filler, NA, 999, 999, 7, 19, 78, 104, 186, 139, 117, 107, 1, 0.814772
214, 3, wb, filler, NA, 999, 999, 7, 19, 78, 104, 186, 139, 117, 107, 2, 0.749491
214, 3, wb, attraction, a-b-da, 9, 1, 7, 20, 135, 60, 129, 57, 60, 135, 2, 1.53285
214, 3, wb, attraction, a-b-da, 9, 1, 7, 20, 135, 60, 129, 57, 60, 135, 1, 0.478467
214, 3, wb, catch, NA, 999, 999, 7, 21, 190, 125, 96, 159, 72, 123, 3, 0.85685
214, 3, wb, catch, NA, 999, 999, 7, 21, 190, 125, 96, 159, 72, 123, 1, 0.40521
214, 3, wb, attraction, a-b-da, 9, 3, 7, 22, 186, 114, 195, 120, 120, 195, 1, 1.06707
214, 3, wb, attraction, a-b-da, 9, 3, 7, 22, 186, 114, 195, 120, 120, 195, 2, 0.431355
214, 3, wb, attraction, a-b-da, 2, 3, 7, 23, 195, 120, 120, 195, 193, 119, 1, 0.811863
214, 3, wb, attraction, a-b-da, 2, 3, 7, 23, 195, 120, 120, 195, 193, 119, 2, 0.466295
214, 3, wb, attraction, a-b-da, 5, 1, 7, 24, 135, 60, 60, 135, 132, 58, 2, 0.685497
214, 3, wb, attraction, a-b-da, 5, 1, 7, 24, 135, 60, 60, 135, 132, 58, 3, 0.713147
214, 3, wb, attraction, a-b-db, 5, 1, 7, 25, 58, 132, 135, 60, 60, 135, 3, 1.25008
214, 3, wb, attraction, a-b-db, 5, 1, 7, 25, 58, 132, 135, 60, 60, 135, 2, 0.727056
214, 3, wb, attraction, a-b-db, 9, 3, 7, 26, 114, 186, 195, 120, 120, 195, 2, 0.567335
214, 3, wb, attraction, a-b-db, 9, 3, 7, 26, 114, 186, 195, 120, 120, 195, 1, 0.663809
214, 3, wb, attraction, a-b-da, 5, 2, 7, 27, 90, 165, 161, 88, 165, 90, 1, 0.650859
214, 3, wb, attraction, a-b-da, 5, 2, 7, 27, 90, 165, 161, 88, 165, 90, 3, 1.27201
214, 3, wb, filler, NA, 999, 999, 7, 28, 62, 181, 159, 62, 64, 138, 3, 0.834916
214, 3, wb, filler, NA, 999, 999, 7, 28, 62, 181, 159, 62, 64, 138, 1, 0.456751
214, 3, wb, filler, NA, 999, 999, 7, 29, 126, 87, 128, 84, 143, 110, 1, 2.41965
214, 3, wb, filler, NA, 999, 999, 7, 29, 126, 87, 128, 84, 143, 110, 3, 0.505655
214, 3, wb, attraction, a-b-da, 14, 1, 7, 30, 125, 56, 135, 60, 60, 135, 3, 0.883404
214, 3, wb, attraction, a-b-da, 14, 1, 7, 30, 125, 56, 135, 60, 60, 135, 1, 0.615134
214, 3, wb, filler, NA, 999, 999, 7, 31, 157, 70, 171, 194, 98, 126, 1, 1.46827
214, 3, wb, filler, NA, 999, 999, 7, 31, 157, 70, 171, 194, 98, 126, 2, 0.256391
214, 3, wb, filler, NA, 999, 999, 7, 32, 69, 64, 60, 159, 128, 142, 1, 0.716248
214, 3, wb, filler, NA, 999, 999, 7, 32, 69, 64, 60, 159, 128, 142, 3, 0.278639
214, 3, wb, catch, NA, 999, 999, 7, 33, 177, 138, 120, 75, 135, 120, 2, 0.961224
214, 3, wb, catch, NA, 999, 999, 7, 33, 177, 138, 120, 75, 135, 120, 1, 0.289461
214, 3, wb, attraction, a-b-da, 14, 2, 7, 34, 153, 83, 90, 165, 165, 90, 2, 0.715953
214, 3, wb, attraction, a-b-da, 14, 2, 7, 34, 153, 83, 90, 165, 165, 90, 3, 0.326463
214, 3, wb, filler, NA, 999, 999, 7, 35, 60, 155, 194, 61, 98, 101, 2, 4.57487
214, 3, wb, filler, NA, 999, 999, 7, 35, 60, 155, 194, 61, 98, 101, 3, 0.285649
214, 3, wb, attraction, a-b-db, 14, 3, 7, 36, 195, 120, 120, 195, 111, 181, 1, 6.71219
214, 3, wb, attraction, a-b-db, 14, 3, 7, 36, 195, 120, 120, 195, 111, 181, 2, 0.408555
214, 3, wb, attraction, a-b-da, 2, 2, 7, 37, 163, 89, 165, 90, 90, 165, 1, 3.02167
214, 3, wb, attraction, a-b-da, 2, 2, 7, 37, 163, 89, 165, 90, 90, 165, 3, 0.34738
214, 3, wb, attraction, a-b-da, 2, 1, 8, 1, 135, 60, 134, 59, 60, 135, 1, 6.10719
214, 3, wb, attraction, a-b-da, 2, 1, 8, 1, 135, 60, 134, 59, 60, 135, 3, 0.419977
214, 3, wb, attraction, a-b-da, 14, 3, 8, 2, 195, 120, 120, 195, 181, 111, 1, 3.62519
214, 3, wb, attraction, a-b-da, 14, 3, 8, 2, 195, 120, 120, 195, 181, 111, 2, 0.67799
214, 3, wb, attraction, a-b-da, 14, 1, 8, 3, 60, 135, 125, 56, 135, 60, 2, 11.9844
214, 3, wb, attraction, a-b-da, 14, 1, 8, 3, 60, 135, 125, 56, 135, 60, 3, 0.684674
214, 3, wb, attraction, a-b-db, 2, 3, 8, 4, 195, 120, 119, 193, 120, 195, 2, 1.65492
214, 3, wb, attraction, a-b-db, 2, 3, 8, 4, 195, 120, 119, 193, 120, 195, 3, 0.619059
214, 3, wb, catch, NA, 999, 999, 8, 5, 123, 72, 146, 169, 153, 102, 1, 2.07229
214, 3, wb, catch, NA, 999, 999, 8, 5, 123, 72, 146, 169, 153, 102, 2, 0.3076
214, 3, wb, filler, NA, 999, 999, 8, 6, 115, 75, 87, 112, 83, 151, 2, 0.772716
214, 3, wb, filler, NA, 999, 999, 8, 6, 115, 75, 87, 112, 83, 151, 1, 0.356594
214, 3, wb, catch, NA, 999, 999, 8, 7, 110, 85, 146, 109, 137, 178, 1, 0.891605
214, 3, wb, catch, NA, 999, 999, 8, 7, 110, 85, 146, 109, 137, 178, 3, 0.454698
214, 3, wb, catch, NA, 999, 999, 8, 8, 187, 128, 107, 88, 164, 91, 2, 0.650285
214, 3, wb, catch, NA, 999, 999, 8, 8, 187, 128, 107, 88, 164, 91, 1, 0.375509
214, 3, wb, attraction, a-b-da, 5, 1, 8, 9, 135, 60, 132, 58, 60, 135, 3, 0.766048
214, 3, wb, attraction, a-b-da, 5, 1, 8, 9, 135, 60, 132, 58, 60, 135, 2, 0.350383
214, 3, wb, attraction, a-b-db, 5, 1, 8, 10, 58, 132, 60, 135, 135, 60, 2, 1.25417
214, 3, wb, attraction, a-b-db, 5, 1, 8, 10, 58, 132, 60, 135, 135, 60, 3, 0.539069
214, 3, wb, filler, NA, 999, 999, 8, 11, 84, 75, 105, 63, 85, 133, 1, 1.2755
214, 3, wb, filler, NA, 999, 999, 8, 11, 84, 75, 105, 63, 85, 133, 3, 0.34327
214, 3, wb, filler, NA, 999, 999, 8, 12, 105, 195, 138, 194, 181, 92, 3, 1.37502
214, 3, wb, filler, NA, 999, 999, 8, 12, 105, 195, 138, 194, 181, 92, 2, 0.462547
214, 3, wb, attraction, a-b-db, 5, 3, 8, 13, 195, 120, 117, 190, 120, 195, 2, 1.33758
214, 3, wb, attraction, a-b-db, 5, 3, 8, 13, 195, 120, 117, 190, 120, 195, 1, 0.435234
214, 3, wb, attraction, a-b-da, 9, 3, 8, 14, 186, 114, 195, 120, 120, 195, 1, 0.871691
214, 3, wb, attraction, a-b-da, 9, 3, 8, 14, 186, 114, 195, 120, 120, 195, 2, 0.299394
214, 3, wb, attraction, a-b-db, 9, 2, 8, 15, 165, 90, 86, 157, 90, 165, 1, 0.813381
214, 3, wb, attraction, a-b-db, 9, 2, 8, 15, 165, 90, 86, 157, 90, 165, 3, 0.363568
214, 3, wb, attraction, a-b-db, 2, 2, 8, 16, 165, 90, 90, 165, 89, 163, 1, 0.802793
214, 3, wb, attraction, a-b-db, 2, 2, 8, 16, 165, 90, 90, 165, 89, 163, 3, 0.841865
214, 3, wb, filler, NA, 999, 999, 8, 17, 100, 77, 155, 150, 113, 91, 1, 0.90945
214, 3, wb, filler, NA, 999, 999, 8, 17, 100, 77, 155, 150, 113, 91, 2, 0.592391
214, 3, wb, attraction, a-b-db, 9, 3, 8, 18, 114, 186, 195, 120, 120, 195, 1, 0.525583
214, 3, wb, attraction, a-b-db, 9, 3, 8, 18, 114, 186, 195, 120, 120, 195, 2, 0.255472
214, 3, wb, attraction, a-b-da, 5, 3, 8, 19, 195, 120, 190, 117, 120, 195, 1, 0.795303
214, 3, wb, attraction, a-b-da, 5, 3, 8, 19, 195, 120, 190, 117, 120, 195, 3, 0.770399
214, 3, wb, attraction, a-b-da, 14, 2, 8, 20, 153, 83, 165, 90, 90, 165, 2, 0.497421
214, 3, wb, attraction, a-b-da, 14, 2, 8, 20, 153, 83, 165, 90, 90, 165, 1, 0.980541
214, 3, wb, filler, NA, 999, 999, 8, 21, 162, 164, 124, 195, 65, 82, 3, 1.04287
214, 3, wb, filler, NA, 999, 999, 8, 21, 162, 164, 124, 195, 65, 82, 1, 0.447822
214, 3, wb, filler, NA, 999, 999, 8, 22, 145, 139, 105, 190, 105, 186, 2, 1.88361
214, 3, wb, filler, NA, 999, 999, 8, 22, 145, 139, 105, 190, 105, 186, 1, 0.935155
214, 3, wb, filler, NA, 999, 999, 8, 23, 147, 83, 66, 67, 98, 143, 2, 0.655224
214, 3, wb, filler, NA, 999, 999, 8, 23, 147, 83, 66, 67, 98, 143, 3, 0.843832
214, 3, wb, attraction, a-b-da, 2, 3, 8, 24, 195, 120, 193, 119, 120, 195, 2, 1.82351
214, 3, wb, attraction, a-b-da, 2, 3, 8, 24, 195, 120, 193, 119, 120, 195, 3, 0.236875
214, 3, wb, filler, NA, 999, 999, 8, 25, 87, 136, 124, 96, 79, 194, 2, 1.02544
214, 3, wb, filler, NA, 999, 999, 8, 25, 87, 136, 124, 96, 79, 194, 3, 0.247037
214, 3, wb, attraction, a-b-da, 5, 2, 8, 26, 161, 88, 165, 90, 90, 165, 1, 1.80292
214, 3, wb, attraction, a-b-da, 5, 2, 8, 26, 161, 88, 165, 90, 90, 165, 3, 0.425782
214, 3, wb, filler, NA, 999, 999, 8, 27, 171, 64, 109, 177, 128, 146, 1, 1.48612
214, 3, wb, filler, NA, 999, 999, 8, 27, 171, 64, 109, 177, 128, 146, 3, 0.665765
214, 3, wb, attraction, a-b-db, 14, 3, 8, 28, 111, 181, 120, 195, 195, 120, 1, 2.38873
214, 3, wb, attraction, a-b-db, 14, 3, 8, 28, 111, 181, 120, 195, 195, 120, 3, 0.45935
214, 3, wb, attraction, a-b-da, 9, 2, 8, 29, 157, 86, 90, 165, 165, 90, 1, 1.15041
214, 3, wb, attraction, a-b-da, 9, 2, 8, 29, 157, 86, 90, 165, 165, 90, 2, 0.879307
214, 3, wb, attraction, a-b-da, 9, 1, 8, 30, 129, 57, 60, 135, 135, 60, 1, 0.777619
214, 3, wb, attraction, a-b-da, 9, 1, 8, 30, 129, 57, 60, 135, 135, 60, 2, 0.601392
214, 3, wb, filler, NA, 999, 999, 8, 31, 157, 136, 59, 87, 91, 172, 2, 1.00726
214, 3, wb, filler, NA, 999, 999, 8, 31, 157, 136, 59, 87, 91, 172, 1, 0.693477
214, 3, wb, attraction, a-b-db, 14, 1, 8, 32, 60, 135, 56, 125, 135, 60, 2, 1.71122
214, 3, wb, attraction, a-b-db, 14, 1, 8, 32, 60, 135, 56, 125, 135, 60, 3, 0.521318
214, 3, wb, attraction, a-b-db, 5, 2, 8, 33, 88, 161, 90, 165, 165, 90, 2, 0.618376
214, 3, wb, attraction, a-b-db, 5, 2, 8, 33, 88, 161, 90, 165, 165, 90, 3, 0.480901
214, 3, wb, attraction, a-b-da, 2, 2, 8, 34, 165, 90, 90, 165, 163, 89, 1, 0.571315
214, 3, wb, attraction, a-b-da, 2, 2, 8, 34, 165, 90, 90, 165, 163, 89, 2, 1.11518
214, 3, wb, attraction, a-b-db, 14, 2, 8, 35, 165, 90, 90, 165, 83, 153, 3, 1.62006
214, 3, wb, attraction, a-b-db, 14, 2, 8, 35, 165, 90, 90, 165, 83, 153, 1, 0.753501
214, 3, wb, attraction, a-b-db, 9, 1, 8, 36, 57, 129, 60, 135, 135, 60, 1, 8.00116
214, 3, wb, attraction, a-b-db, 9, 1, 8, 36, 57, 129, 60, 135, 135, 60, 3, 0.814165
214, 3, wb, attraction, a-b-db, 2, 1, 8, 37, 60, 135, 135, 60, 59, 134, 2, 0.619006
214, 3, wb, attraction, a-b-db, 2, 1, 8, 37, 60, 135, 135, 60, 59, 134, 3, 0.44945
