sub_n, computer_n, bw_cond, effect, set, distance, diag, block_n, trial_n, h1, w1, h2, w2, h3, w3, choice, rt 
272, 3, wb, practice, NA, 999, 999, 0, 1, 60, 83, 72, 166, 188, 144, 1, 2.62719
272, 3, wb, practice, NA, 999, 999, 0, 1, 60, 83, 72, 166, 188, 144, 3, 1.92703
272, 3, wb, practice, NA, 999, 999, 0, 2, 184, 125, 74, 115, 88, 74, 3, 3.59499
272, 3, wb, practice, NA, 999, 999, 0, 2, 184, 125, 74, 115, 88, 74, 1, 1.6343
272, 3, wb, practice, NA, 999, 999, 0, 3, 174, 146, 72, 195, 126, 111, 3, 6.95618
272, 3, wb, practice, NA, 999, 999, 0, 3, 174, 146, 72, 195, 126, 111, 1, 1.44136
272, 3, wb, attraction, a-b-db, 2, 2, 1, 1, 90, 165, 165, 90, 89, 163, 2, 3.06475
272, 3, wb, attraction, a-b-db, 2, 2, 1, 1, 90, 165, 165, 90, 89, 163, 1, 3.06062
272, 3, wb, attraction, a-b-db, 9, 3, 1, 2, 114, 186, 120, 195, 195, 120, 3, 3.00694
272, 3, wb, attraction, a-b-db, 9, 3, 1, 2, 114, 186, 120, 195, 195, 120, 2, 0.900492
272, 3, wb, filler, NA, 999, 999, 1, 3, 171, 166, 96, 177, 169, 191, 2, 2.16615
272, 3, wb, filler, NA, 999, 999, 1, 3, 171, 166, 96, 177, 169, 191, 3, 1.36614
272, 3, wb, attraction, a-b-da, 14, 3, 1, 4, 120, 195, 181, 111, 195, 120, 3, 2.13307
272, 3, wb, attraction, a-b-da, 14, 3, 1, 4, 120, 195, 181, 111, 195, 120, 1, 1.00633
272, 3, wb, catch, NA, 999, 999, 1, 5, 119, 136, 88, 107, 152, 163, 2, 1.37991
272, 3, wb, catch, NA, 999, 999, 1, 5, 119, 136, 88, 107, 152, 163, 3, 0.907497
272, 3, wb, attraction, a-b-db, 14, 2, 1, 6, 90, 165, 83, 153, 165, 90, 3, 2.21242
272, 3, wb, attraction, a-b-db, 14, 2, 1, 6, 90, 165, 83, 153, 165, 90, 1, 1.01043
272, 3, wb, attraction, a-b-da, 9, 2, 1, 7, 90, 165, 157, 86, 165, 90, 3, 1.29526
272, 3, wb, attraction, a-b-da, 9, 2, 1, 7, 90, 165, 157, 86, 165, 90, 1, 0.722293
272, 3, wb, filler, NA, 999, 999, 1, 8, 158, 66, 154, 156, 70, 170, 1, 1.46729
272, 3, wb, filler, NA, 999, 999, 1, 8, 158, 66, 154, 156, 70, 170, 2, 1.13566
272, 3, wb, attraction, a-b-da, 5, 3, 1, 9, 190, 117, 195, 120, 120, 195, 1, 4.15178
272, 3, wb, attraction, a-b-da, 5, 3, 1, 9, 190, 117, 195, 120, 120, 195, 3, 1.65579
272, 3, wb, attraction, a-b-da, 2, 2, 1, 10, 165, 90, 163, 89, 90, 165, 2, 2.15514
272, 3, wb, attraction, a-b-da, 2, 2, 1, 10, 165, 90, 163, 89, 90, 165, 1, 1.2512
272, 3, wb, filler, NA, 999, 999, 1, 11, 143, 94, 166, 153, 94, 89, 3, 1.25469
272, 3, wb, filler, NA, 999, 999, 1, 11, 143, 94, 166, 153, 94, 89, 2, 1.31561
272, 3, wb, attraction, a-b-db, 9, 1, 1, 12, 135, 60, 60, 135, 57, 129, 1, 1.14858
272, 3, wb, attraction, a-b-db, 9, 1, 1, 12, 135, 60, 60, 135, 57, 129, 2, 0.90147
272, 3, wb, attraction, a-b-db, 2, 3, 1, 13, 120, 195, 195, 120, 119, 193, 3, 1.14322
272, 3, wb, attraction, a-b-db, 2, 3, 1, 13, 120, 195, 195, 120, 119, 193, 2, 1.2241
272, 3, wb, attraction, a-b-da, 14, 1, 1, 14, 125, 56, 60, 135, 135, 60, 1, 1.90025
272, 3, wb, attraction, a-b-da, 14, 1, 1, 14, 125, 56, 60, 135, 135, 60, 2, 1.31901
272, 3, wb, filler, NA, 999, 999, 1, 15, 128, 136, 116, 84, 159, 114, 2, 1.59978
272, 3, wb, filler, NA, 999, 999, 1, 15, 128, 136, 116, 84, 159, 114, 3, 4.69485
272, 3, wb, attraction, a-b-da, 9, 1, 1, 16, 135, 60, 129, 57, 60, 135, 2, 1.25525
272, 3, wb, attraction, a-b-da, 9, 1, 1, 16, 135, 60, 129, 57, 60, 135, 3, 0.81146
272, 3, wb, attraction, a-b-db, 2, 1, 1, 17, 60, 135, 59, 134, 135, 60, 2, 1.14433
272, 3, wb, attraction, a-b-db, 2, 1, 1, 17, 60, 135, 59, 134, 135, 60, 1, 0.465237
272, 3, wb, attraction, a-b-db, 5, 2, 1, 18, 90, 165, 88, 161, 165, 90, 1, 1.1884
272, 3, wb, attraction, a-b-db, 5, 2, 1, 18, 90, 165, 88, 161, 165, 90, 3, 0.787305
272, 3, wb, attraction, a-b-da, 9, 3, 1, 19, 195, 120, 186, 114, 120, 195, 2, 0.953785
272, 3, wb, attraction, a-b-da, 9, 3, 1, 19, 195, 120, 186, 114, 120, 195, 3, 1.05883
272, 3, wb, filler, NA, 999, 999, 1, 20, 162, 181, 56, 101, 81, 151, 2, 0.789654
272, 3, wb, filler, NA, 999, 999, 1, 20, 162, 181, 56, 101, 81, 151, 1, 0.364823
272, 3, wb, attraction, a-b-da, 2, 3, 1, 21, 120, 195, 195, 120, 193, 119, 1, 0.939827
272, 3, wb, attraction, a-b-da, 2, 3, 1, 21, 120, 195, 195, 120, 193, 119, 2, 0.492973
272, 3, wb, attraction, a-b-db, 9, 2, 1, 22, 165, 90, 86, 157, 90, 165, 1, 0.966684
272, 3, wb, attraction, a-b-db, 9, 2, 1, 22, 165, 90, 86, 157, 90, 165, 3, 0.599014
272, 3, wb, filler, NA, 999, 999, 1, 23, 56, 162, 113, 69, 93, 163, 2, 0.980796
272, 3, wb, filler, NA, 999, 999, 1, 23, 56, 162, 113, 69, 93, 163, 3, 0.716534
272, 3, wb, attraction, a-b-da, 5, 1, 1, 24, 132, 58, 135, 60, 60, 135, 1, 0.829466
272, 3, wb, attraction, a-b-da, 5, 1, 1, 24, 132, 58, 135, 60, 60, 135, 2, 0.635217
272, 3, wb, filler, NA, 999, 999, 1, 25, 91, 63, 183, 135, 178, 131, 1, 0.991665
272, 3, wb, filler, NA, 999, 999, 1, 25, 91, 63, 183, 135, 178, 131, 2, 0.734626
272, 3, wb, filler, NA, 999, 999, 1, 26, 148, 175, 176, 84, 176, 154, 2, 1.26299
272, 3, wb, filler, NA, 999, 999, 1, 26, 148, 175, 176, 84, 176, 154, 3, 0.467196
272, 3, wb, filler, NA, 999, 999, 1, 27, 183, 187, 185, 140, 192, 195, 2, 1.44632
272, 3, wb, filler, NA, 999, 999, 1, 27, 183, 187, 185, 140, 192, 195, 3, 0.763252
272, 3, wb, attraction, a-b-da, 14, 2, 1, 28, 90, 165, 165, 90, 153, 83, 1, 1.95431
272, 3, wb, attraction, a-b-da, 14, 2, 1, 28, 90, 165, 165, 90, 153, 83, 2, 0.515057
272, 3, wb, filler, NA, 999, 999, 1, 29, 122, 71, 103, 63, 104, 167, 2, 1.81207
272, 3, wb, filler, NA, 999, 999, 1, 29, 122, 71, 103, 63, 104, 167, 3, 0.666169
272, 3, wb, catch, NA, 999, 999, 1, 30, 164, 151, 117, 138, 94, 101, 3, 1.30929
272, 3, wb, catch, NA, 999, 999, 1, 30, 164, 151, 117, 138, 94, 101, 1, 0.447422
272, 3, wb, attraction, a-b-db, 5, 1, 1, 31, 58, 132, 135, 60, 60, 135, 2, 1.2113
272, 3, wb, attraction, a-b-db, 5, 1, 1, 31, 58, 132, 135, 60, 60, 135, 3, 0.505477
272, 3, wb, attraction, a-b-da, 5, 2, 1, 32, 90, 165, 161, 88, 165, 90, 2, 0.651284
272, 3, wb, attraction, a-b-da, 5, 2, 1, 32, 90, 165, 161, 88, 165, 90, 3, 0.632428
272, 3, wb, catch, NA, 999, 999, 1, 33, 90, 165, 119, 76, 184, 131, 2, 0.900769
272, 3, wb, catch, NA, 999, 999, 1, 33, 90, 165, 119, 76, 184, 131, 3, 0.43184
272, 3, wb, attraction, a-b-da, 2, 1, 1, 34, 134, 59, 60, 135, 135, 60, 2, 0.580251
272, 3, wb, attraction, a-b-da, 2, 1, 1, 34, 134, 59, 60, 135, 135, 60, 1, 0.324143
272, 3, wb, attraction, a-b-db, 14, 3, 1, 35, 111, 181, 195, 120, 120, 195, 2, 0.64462
272, 3, wb, attraction, a-b-db, 14, 3, 1, 35, 111, 181, 195, 120, 120, 195, 1, 0.641818
272, 3, wb, attraction, a-b-db, 14, 1, 1, 36, 60, 135, 135, 60, 56, 125, 2, 0.54947
272, 3, wb, attraction, a-b-db, 14, 1, 1, 36, 60, 135, 135, 60, 56, 125, 3, 0.310575
272, 3, wb, attraction, a-b-db, 5, 3, 1, 37, 117, 190, 195, 120, 120, 195, 2, 0.60769
272, 3, wb, attraction, a-b-db, 5, 3, 1, 37, 117, 190, 195, 120, 120, 195, 3, 0.382193
272, 3, wb, filler, NA, 999, 999, 2, 1, 79, 184, 164, 157, 65, 62, 3, 1.02065
272, 3, wb, filler, NA, 999, 999, 2, 1, 79, 184, 164, 157, 65, 62, 2, 0.290306
272, 3, wb, attraction, a-b-db, 14, 2, 2, 2, 165, 90, 83, 153, 90, 165, 1, 1.9802
272, 3, wb, attraction, a-b-db, 14, 2, 2, 2, 165, 90, 83, 153, 90, 165, 3, 0.331581
272, 3, wb, attraction, a-b-da, 14, 2, 2, 3, 90, 165, 153, 83, 165, 90, 2, 0.668089
272, 3, wb, attraction, a-b-da, 14, 2, 2, 3, 90, 165, 153, 83, 165, 90, 3, 0.304513
272, 3, wb, filler, NA, 999, 999, 2, 4, 159, 130, 151, 167, 61, 114, 3, 0.842295
272, 3, wb, filler, NA, 999, 999, 2, 4, 159, 130, 151, 167, 61, 114, 2, 0.23127
272, 3, wb, attraction, a-b-db, 9, 1, 2, 5, 57, 129, 135, 60, 60, 135, 3, 1.41185
272, 3, wb, attraction, a-b-db, 9, 1, 2, 5, 57, 129, 135, 60, 60, 135, 2, 0.834118
272, 3, wb, catch, NA, 999, 999, 2, 6, 153, 102, 112, 83, 170, 145, 2, 0.88651
272, 3, wb, catch, NA, 999, 999, 2, 6, 153, 102, 112, 83, 170, 145, 3, 0.554276
272, 3, wb, filler, NA, 999, 999, 2, 7, 145, 182, 148, 139, 56, 132, 3, 0.81791
272, 3, wb, filler, NA, 999, 999, 2, 7, 145, 182, 148, 139, 56, 132, 1, 0.61628
272, 3, wb, attraction, a-b-db, 5, 3, 2, 8, 117, 190, 195, 120, 120, 195, 2, 1.35735
272, 3, wb, attraction, a-b-db, 5, 3, 2, 8, 117, 190, 195, 120, 120, 195, 3, 0.405633
272, 3, wb, attraction, a-b-da, 14, 3, 2, 9, 120, 195, 181, 111, 195, 120, 2, 0.603492
272, 3, wb, attraction, a-b-da, 14, 3, 2, 9, 120, 195, 181, 111, 195, 120, 3, 0.314532
272, 3, wb, attraction, a-b-da, 9, 3, 2, 10, 186, 114, 120, 195, 195, 120, 3, 0.963676
272, 3, wb, attraction, a-b-da, 9, 3, 2, 10, 186, 114, 120, 195, 195, 120, 2, 0.340012
272, 3, wb, filler, NA, 999, 999, 2, 11, 158, 161, 147, 82, 156, 178, 2, 0.755969
272, 3, wb, filler, NA, 999, 999, 2, 11, 158, 161, 147, 82, 156, 178, 3, 0.308404
272, 3, wb, attraction, a-b-da, 9, 1, 2, 12, 129, 57, 60, 135, 135, 60, 2, 0.565539
272, 3, wb, attraction, a-b-da, 9, 1, 2, 12, 129, 57, 60, 135, 135, 60, 1, 0.429969
272, 3, wb, attraction, a-b-da, 2, 3, 2, 13, 120, 195, 193, 119, 195, 120, 2, 0.458394
272, 3, wb, attraction, a-b-da, 2, 3, 2, 13, 120, 195, 193, 119, 195, 120, 3, 0.287019
272, 3, wb, attraction, a-b-db, 5, 2, 2, 14, 165, 90, 90, 165, 88, 161, 2, 0.4254
272, 3, wb, attraction, a-b-db, 5, 2, 2, 14, 165, 90, 90, 165, 88, 161, 1, 0.4393
272, 3, wb, catch, NA, 999, 999, 2, 15, 145, 170, 102, 93, 113, 142, 2, 1.39575
272, 3, wb, catch, NA, 999, 999, 2, 15, 145, 170, 102, 93, 113, 142, 1, 0.426578
272, 3, wb, filler, NA, 999, 999, 2, 16, 107, 119, 119, 67, 148, 159, 2, 1.56712
272, 3, wb, filler, NA, 999, 999, 2, 16, 107, 119, 119, 67, 148, 159, 3, 0.327289
272, 3, wb, filler, NA, 999, 999, 2, 17, 150, 77, 99, 122, 173, 169, 1, 0.983849
272, 3, wb, filler, NA, 999, 999, 2, 17, 150, 77, 99, 122, 173, 169, 3, 0.447475
272, 3, wb, attraction, a-b-db, 9, 2, 2, 18, 90, 165, 86, 157, 165, 90, 3, 1.00338
272, 3, wb, attraction, a-b-db, 9, 2, 2, 18, 90, 165, 86, 157, 165, 90, 1, 0.59426
272, 3, wb, attraction, a-b-da, 2, 1, 2, 19, 60, 135, 134, 59, 135, 60, 2, 0.535945
272, 3, wb, attraction, a-b-da, 2, 1, 2, 19, 60, 135, 134, 59, 135, 60, 3, 0.65936
272, 3, wb, attraction, a-b-db, 2, 2, 2, 20, 90, 165, 89, 163, 165, 90, 3, 0.932968
272, 3, wb, attraction, a-b-db, 2, 2, 2, 20, 90, 165, 89, 163, 165, 90, 1, 0.310578
272, 3, wb, attraction, a-b-db, 14, 1, 2, 21, 135, 60, 60, 135, 56, 125, 3, 1.38365
272, 3, wb, attraction, a-b-db, 14, 1, 2, 21, 135, 60, 60, 135, 56, 125, 2, 0.391198
272, 3, wb, filler, NA, 999, 999, 2, 22, 155, 91, 174, 80, 185, 64, 3, 1.06912
272, 3, wb, filler, NA, 999, 999, 2, 22, 155, 91, 174, 80, 185, 64, 1, 0.481432
272, 3, wb, attraction, a-b-da, 2, 2, 2, 23, 165, 90, 163, 89, 90, 165, 2, 0.763796
272, 3, wb, attraction, a-b-da, 2, 2, 2, 23, 165, 90, 163, 89, 90, 165, 3, 0.324292
272, 3, wb, filler, NA, 999, 999, 2, 24, 85, 84, 112, 124, 131, 181, 1, 0.572843
272, 3, wb, filler, NA, 999, 999, 2, 24, 85, 84, 112, 124, 131, 181, 3, 0.412657
272, 3, wb, attraction, a-b-db, 2, 3, 2, 25, 119, 193, 195, 120, 120, 195, 2, 0.617723
272, 3, wb, attraction, a-b-db, 2, 3, 2, 25, 119, 193, 195, 120, 120, 195, 3, 0.336137
272, 3, wb, attraction, a-b-da, 5, 2, 2, 26, 90, 165, 165, 90, 161, 88, 2, 0.536588
272, 3, wb, attraction, a-b-da, 5, 2, 2, 26, 90, 165, 165, 90, 161, 88, 1, 0.370374
272, 3, wb, attraction, a-b-da, 5, 3, 2, 27, 190, 117, 120, 195, 195, 120, 3, 0.521595
272, 3, wb, attraction, a-b-da, 5, 3, 2, 27, 190, 117, 120, 195, 195, 120, 1, 0.787841
272, 3, wb, catch, NA, 999, 999, 2, 28, 158, 157, 63, 132, 152, 103, 2, 0.57776
272, 3, wb, catch, NA, 999, 999, 2, 28, 158, 157, 63, 132, 152, 103, 1, 0.337781
272, 3, wb, filler, NA, 999, 999, 2, 29, 75, 87, 75, 141, 133, 188, 1, 1.02618
272, 3, wb, filler, NA, 999, 999, 2, 29, 75, 87, 75, 141, 133, 188, 3, 0.295674
272, 3, wb, attraction, a-b-db, 9, 3, 2, 30, 114, 186, 195, 120, 120, 195, 2, 0.473648
272, 3, wb, attraction, a-b-db, 9, 3, 2, 30, 114, 186, 195, 120, 120, 195, 1, 0.381353
272, 3, wb, attraction, a-b-da, 9, 2, 2, 31, 165, 90, 90, 165, 157, 86, 3, 0.45189
272, 3, wb, attraction, a-b-da, 9, 2, 2, 31, 165, 90, 90, 165, 157, 86, 1, 0.624954
272, 3, wb, attraction, a-b-da, 14, 1, 2, 32, 135, 60, 125, 56, 60, 135, 2, 1.27745
272, 3, wb, attraction, a-b-da, 14, 1, 2, 32, 135, 60, 125, 56, 60, 135, 3, 0.569027
272, 3, wb, attraction, a-b-db, 5, 1, 2, 33, 60, 135, 58, 132, 135, 60, 1, 0.576147
272, 3, wb, attraction, a-b-db, 5, 1, 2, 33, 60, 135, 58, 132, 135, 60, 2, 0.399914
272, 3, wb, attraction, a-b-db, 2, 1, 2, 34, 59, 134, 135, 60, 60, 135, 2, 1.25447
272, 3, wb, attraction, a-b-db, 2, 1, 2, 34, 59, 134, 135, 60, 60, 135, 3, 0.218073
272, 3, wb, attraction, a-b-db, 14, 3, 2, 35, 111, 181, 120, 195, 195, 120, 2, 0.631255
272, 3, wb, attraction, a-b-db, 14, 3, 2, 35, 111, 181, 120, 195, 195, 120, 3, 0.380978
272, 3, wb, filler, NA, 999, 999, 2, 36, 193, 77, 152, 157, 134, 132, 1, 0.467391
272, 3, wb, filler, NA, 999, 999, 2, 36, 193, 77, 152, 157, 134, 132, 2, 0.600039
272, 3, wb, attraction, a-b-da, 5, 1, 2, 37, 132, 58, 60, 135, 135, 60, 1, 0.59769
272, 3, wb, attraction, a-b-da, 5, 1, 2, 37, 132, 58, 60, 135, 135, 60, 2, 0.404905
272, 3, wb, attraction, a-b-da, 2, 3, 3, 1, 120, 195, 193, 119, 195, 120, 3, 0.506673
272, 3, wb, attraction, a-b-da, 2, 3, 3, 1, 120, 195, 193, 119, 195, 120, 1, 0.31721
272, 3, wb, catch, NA, 999, 999, 3, 2, 104, 91, 183, 132, 153, 102, 1, 0.90222
272, 3, wb, catch, NA, 999, 999, 3, 2, 104, 91, 183, 132, 153, 102, 2, 0.257333
272, 3, wb, attraction, a-b-db, 14, 2, 3, 3, 90, 165, 165, 90, 83, 153, 1, 0.476658
272, 3, wb, attraction, a-b-db, 14, 2, 3, 3, 90, 165, 165, 90, 83, 153, 2, 0.248264
272, 3, wb, filler, NA, 999, 999, 3, 4, 128, 107, 169, 194, 96, 167, 1, 0.604264
272, 3, wb, filler, NA, 999, 999, 3, 4, 128, 107, 169, 194, 96, 167, 2, 0.267315
272, 3, wb, filler, NA, 999, 999, 3, 5, 72, 169, 154, 67, 176, 58, 3, 0.454473
272, 3, wb, filler, NA, 999, 999, 3, 5, 72, 169, 154, 67, 176, 58, 1, 0.442967
272, 3, wb, attraction, a-b-db, 9, 1, 3, 6, 57, 129, 60, 135, 135, 60, 2, 0.566811
272, 3, wb, attraction, a-b-db, 9, 1, 3, 6, 57, 129, 60, 135, 135, 60, 3, 0.743227
272, 3, wb, filler, NA, 999, 999, 3, 7, 126, 162, 63, 111, 101, 108, 2, 0.5749
272, 3, wb, filler, NA, 999, 999, 3, 7, 126, 162, 63, 111, 101, 108, 1, 0.534718
272, 3, wb, attraction, a-b-db, 14, 3, 3, 8, 120, 195, 111, 181, 195, 120, 2, 0.511137
272, 3, wb, attraction, a-b-db, 14, 3, 3, 8, 120, 195, 111, 181, 195, 120, 3, 1.12972
272, 3, wb, attraction, a-b-da, 14, 1, 3, 9, 135, 60, 125, 56, 60, 135, 2, 0.513912
272, 3, wb, attraction, a-b-da, 14, 1, 3, 9, 135, 60, 125, 56, 60, 135, 1, 1.17245
272, 3, wb, attraction, a-b-da, 9, 2, 3, 10, 157, 86, 90, 165, 165, 90, 2, 0.427309
272, 3, wb, attraction, a-b-da, 9, 2, 3, 10, 157, 86, 90, 165, 165, 90, 3, 0.417107
272, 3, wb, attraction, a-b-db, 2, 1, 3, 11, 135, 60, 59, 134, 60, 135, 2, 0.382413
272, 3, wb, attraction, a-b-db, 2, 1, 3, 11, 135, 60, 59, 134, 60, 135, 1, 0.262151
272, 3, wb, attraction, a-b-da, 2, 1, 3, 12, 60, 135, 135, 60, 134, 59, 3, 0.481314
272, 3, wb, attraction, a-b-da, 2, 1, 3, 12, 60, 135, 135, 60, 134, 59, 1, 0.333273
272, 3, wb, catch, NA, 999, 999, 3, 13, 132, 183, 68, 127, 154, 101, 2, 0.52564
272, 3, wb, catch, NA, 999, 999, 3, 13, 132, 183, 68, 127, 154, 101, 1, 0.311466
272, 3, wb, filler, NA, 999, 999, 3, 14, 127, 83, 84, 116, 62, 106, 3, 0.752673
272, 3, wb, filler, NA, 999, 999, 3, 14, 127, 83, 84, 116, 62, 106, 1, 0.297716
272, 3, wb, attraction, a-b-db, 5, 2, 3, 15, 88, 161, 165, 90, 90, 165, 2, 0.459547
272, 3, wb, attraction, a-b-db, 5, 2, 3, 15, 88, 161, 165, 90, 90, 165, 1, 0.48006
272, 3, wb, filler, NA, 999, 999, 3, 16, 108, 192, 97, 106, 82, 135, 2, 0.466651
272, 3, wb, filler, NA, 999, 999, 3, 16, 108, 192, 97, 106, 82, 135, 1, 0.62308
272, 3, wb, attraction, a-b-da, 9, 3, 3, 17, 120, 195, 195, 120, 186, 114, 3, 0.484107
272, 3, wb, attraction, a-b-da, 9, 3, 3, 17, 120, 195, 195, 120, 186, 114, 2, 0.263973
272, 3, wb, catch, NA, 999, 999, 3, 18, 162, 153, 103, 92, 95, 160, 2, 0.699175
272, 3, wb, catch, NA, 999, 999, 3, 18, 162, 153, 103, 92, 95, 160, 1, 0.286337
272, 3, wb, filler, NA, 999, 999, 3, 19, 123, 179, 58, 139, 190, 181, 2, 0.920723
272, 3, wb, filler, NA, 999, 999, 3, 19, 123, 179, 58, 139, 190, 181, 3, 0.555189
272, 3, wb, attraction, a-b-da, 5, 2, 3, 20, 90, 165, 161, 88, 165, 90, 2, 1.29899
272, 3, wb, attraction, a-b-da, 5, 2, 3, 20, 90, 165, 161, 88, 165, 90, 1, 0.293833
272, 3, wb, attraction, a-b-db, 9, 2, 3, 21, 86, 157, 90, 165, 165, 90, 3, 0.447615
272, 3, wb, attraction, a-b-db, 9, 2, 3, 21, 86, 157, 90, 165, 165, 90, 1, 0.444864
272, 3, wb, attraction, a-b-da, 14, 3, 3, 22, 181, 111, 195, 120, 120, 195, 1, 0.560702
272, 3, wb, attraction, a-b-da, 14, 3, 3, 22, 181, 111, 195, 120, 120, 195, 2, 0.30502
272, 3, wb, attraction, a-b-da, 2, 2, 3, 23, 90, 165, 163, 89, 165, 90, 1, 0.466829
272, 3, wb, attraction, a-b-da, 2, 2, 3, 23, 90, 165, 163, 89, 165, 90, 3, 0.583389
272, 3, wb, attraction, a-b-db, 9, 3, 3, 24, 114, 186, 120, 195, 195, 120, 2, 0.421782
272, 3, wb, attraction, a-b-db, 9, 3, 3, 24, 114, 186, 120, 195, 195, 120, 3, 0.307612
272, 3, wb, filler, NA, 999, 999, 3, 25, 192, 120, 143, 80, 142, 65, 3, 0.676774
272, 3, wb, filler, NA, 999, 999, 3, 25, 192, 120, 143, 80, 142, 65, 1, 0.272725
272, 3, wb, attraction, a-b-da, 5, 1, 3, 26, 60, 135, 135, 60, 132, 58, 2, 0.659899
272, 3, wb, attraction, a-b-da, 5, 1, 3, 26, 60, 135, 135, 60, 132, 58, 1, 0.328329
272, 3, wb, attraction, a-b-db, 5, 1, 3, 27, 58, 132, 60, 135, 135, 60, 2, 0.552691
272, 3, wb, attraction, a-b-db, 5, 1, 3, 27, 58, 132, 60, 135, 135, 60, 3, 0.313871
272, 3, wb, filler, NA, 999, 999, 3, 28, 96, 60, 180, 112, 135, 75, 1, 0.843202
272, 3, wb, filler, NA, 999, 999, 3, 28, 96, 60, 180, 112, 135, 75, 2, 0.544161
272, 3, wb, attraction, a-b-da, 9, 1, 3, 29, 60, 135, 135, 60, 129, 57, 1, 0.519844
272, 3, wb, attraction, a-b-da, 9, 1, 3, 29, 60, 135, 135, 60, 129, 57, 2, 0.618302
272, 3, wb, attraction, a-b-db, 14, 1, 3, 30, 135, 60, 60, 135, 56, 125, 2, 0.991342
272, 3, wb, attraction, a-b-db, 14, 1, 3, 30, 135, 60, 60, 135, 56, 125, 3, 0.294578
272, 3, wb, attraction, a-b-db, 2, 3, 3, 31, 195, 120, 119, 193, 120, 195, 2, 0.840315
272, 3, wb, attraction, a-b-db, 2, 3, 3, 31, 195, 120, 119, 193, 120, 195, 1, 0.605373
272, 3, wb, attraction, a-b-da, 14, 2, 3, 32, 90, 165, 165, 90, 153, 83, 1, 0.555034
272, 3, wb, attraction, a-b-da, 14, 2, 3, 32, 90, 165, 165, 90, 153, 83, 2, 0.292012
272, 3, wb, attraction, a-b-db, 2, 2, 3, 33, 165, 90, 90, 165, 89, 163, 2, 0.917355
272, 3, wb, attraction, a-b-db, 2, 2, 3, 33, 165, 90, 90, 165, 89, 163, 3, 0.54375
272, 3, wb, attraction, a-b-db, 5, 3, 3, 34, 117, 190, 120, 195, 195, 120, 3, 0.975503
272, 3, wb, attraction, a-b-db, 5, 3, 3, 34, 117, 190, 120, 195, 195, 120, 1, 0.343246
272, 3, wb, attraction, a-b-da, 5, 3, 3, 35, 195, 120, 190, 117, 120, 195, 1, 0.567113
272, 3, wb, attraction, a-b-da, 5, 3, 3, 35, 195, 120, 190, 117, 120, 195, 3, 0.319464
272, 3, wb, filler, NA, 999, 999, 3, 36, 162, 110, 162, 75, 112, 60, 3, 0.904736
272, 3, wb, filler, NA, 999, 999, 3, 36, 162, 110, 162, 75, 112, 60, 1, 0.523218
272, 3, wb, filler, NA, 999, 999, 3, 37, 74, 114, 81, 89, 176, 67, 2, 0.907541
272, 3, wb, filler, NA, 999, 999, 3, 37, 74, 114, 81, 89, 176, 67, 3, 0.925818
272, 3, wb, attraction, a-b-da, 14, 2, 4, 1, 90, 165, 153, 83, 165, 90, 2, 0.518203
272, 3, wb, attraction, a-b-da, 14, 2, 4, 1, 90, 165, 153, 83, 165, 90, 3, 0.280611
272, 3, wb, filler, NA, 999, 999, 4, 2, 98, 118, 112, 160, 159, 105, 2, 0.43514
272, 3, wb, filler, NA, 999, 999, 4, 2, 98, 118, 112, 160, 159, 105, 1, 0.51302
272, 3, wb, catch, NA, 999, 999, 4, 3, 155, 160, 149, 106, 104, 91, 3, 0.626107
272, 3, wb, catch, NA, 999, 999, 4, 3, 155, 160, 149, 106, 104, 91, 1, 0.351891
272, 3, wb, attraction, a-b-db, 2, 3, 4, 4, 119, 193, 195, 120, 120, 195, 2, 0.53568
272, 3, wb, attraction, a-b-db, 2, 3, 4, 4, 119, 193, 195, 120, 120, 195, 3, 0.313527
272, 3, wb, attraction, a-b-db, 5, 3, 4, 5, 120, 195, 195, 120, 117, 190, 2, 0.474739
272, 3, wb, attraction, a-b-db, 5, 3, 4, 5, 120, 195, 195, 120, 117, 190, 1, 0.278532
272, 3, wb, attraction, a-b-da, 5, 1, 4, 6, 60, 135, 135, 60, 132, 58, 1, 0.905116
272, 3, wb, attraction, a-b-da, 5, 1, 4, 6, 60, 135, 135, 60, 132, 58, 3, 0.427488
272, 3, wb, attraction, a-b-da, 2, 3, 4, 7, 195, 120, 193, 119, 120, 195, 2, 0.479798
272, 3, wb, attraction, a-b-da, 2, 3, 4, 7, 195, 120, 193, 119, 120, 195, 1, 0.355653
272, 3, wb, catch, NA, 999, 999, 4, 8, 62, 133, 152, 163, 128, 127, 2, 0.43549
272, 3, wb, catch, NA, 999, 999, 4, 8, 62, 133, 152, 163, 128, 127, 1, 2.76941
272, 3, wb, attraction, a-b-db, 14, 3, 4, 9, 120, 195, 195, 120, 111, 181, 1, 0.615897
272, 3, wb, attraction, a-b-db, 14, 3, 4, 9, 120, 195, 195, 120, 111, 181, 3, 0.270164
272, 3, wb, attraction, a-b-db, 9, 2, 4, 10, 90, 165, 86, 157, 165, 90, 1, 0.465308
272, 3, wb, attraction, a-b-db, 9, 2, 4, 10, 90, 165, 86, 157, 165, 90, 3, 0.630059
272, 3, wb, attraction, a-b-da, 9, 1, 4, 11, 60, 135, 129, 57, 135, 60, 2, 0.482291
272, 3, wb, attraction, a-b-da, 9, 1, 4, 11, 60, 135, 129, 57, 135, 60, 3, 0.238075
272, 3, wb, filler, NA, 999, 999, 4, 12, 190, 58, 187, 115, 166, 147, 1, 0.72267
272, 3, wb, filler, NA, 999, 999, 4, 12, 190, 58, 187, 115, 166, 147, 3, 0.812403
272, 3, wb, attraction, a-b-db, 5, 2, 4, 13, 88, 161, 165, 90, 90, 165, 1, 1.01736
272, 3, wb, attraction, a-b-db, 5, 2, 4, 13, 88, 161, 165, 90, 90, 165, 2, 1.22366
272, 3, wb, filler, NA, 999, 999, 4, 14, 77, 174, 70, 162, 154, 90, 1, 0.484073
272, 3, wb, filler, NA, 999, 999, 4, 14, 77, 174, 70, 162, 154, 90, 3, 0.447802
272, 3, wb, filler, NA, 999, 999, 4, 15, 187, 64, 122, 94, 145, 170, 1, 0.515598
272, 3, wb, filler, NA, 999, 999, 4, 15, 187, 64, 122, 94, 145, 170, 3, 0.414137
272, 3, wb, attraction, a-b-da, 2, 2, 4, 16, 163, 89, 90, 165, 165, 90, 2, 0.63514
272, 3, wb, attraction, a-b-da, 2, 2, 4, 16, 163, 89, 90, 165, 165, 90, 1, 0.264897
272, 3, wb, catch, NA, 999, 999, 4, 17, 141, 174, 107, 148, 61, 134, 3, 1.20412
272, 3, wb, catch, NA, 999, 999, 4, 17, 141, 174, 107, 148, 61, 134, 1, 0.619063
272, 3, wb, attraction, a-b-db, 2, 1, 4, 18, 60, 135, 59, 134, 135, 60, 1, 0.92823
272, 3, wb, attraction, a-b-db, 2, 1, 4, 18, 60, 135, 59, 134, 135, 60, 2, 0.921982
272, 3, wb, attraction, a-b-da, 9, 3, 4, 19, 195, 120, 186, 114, 120, 195, 1, 1.22689
272, 3, wb, attraction, a-b-da, 9, 3, 4, 19, 195, 120, 186, 114, 120, 195, 2, 0.296436
272, 3, wb, filler, NA, 999, 999, 4, 20, 66, 71, 90, 113, 91, 176, 1, 0.666407
272, 3, wb, filler, NA, 999, 999, 4, 20, 66, 71, 90, 113, 91, 176, 3, 0.598722
272, 3, wb, filler, NA, 999, 999, 4, 21, 106, 180, 164, 77, 155, 69, 2, 0.700479
272, 3, wb, filler, NA, 999, 999, 4, 21, 106, 180, 164, 77, 155, 69, 1, 0.767755
272, 3, wb, attraction, a-b-da, 9, 2, 4, 22, 157, 86, 90, 165, 165, 90, 1, 0.702638
272, 3, wb, attraction, a-b-da, 9, 2, 4, 22, 157, 86, 90, 165, 165, 90, 2, 0.281688
272, 3, wb, filler, NA, 999, 999, 4, 23, 155, 106, 159, 124, 188, 86, 3, 0.876362
272, 3, wb, filler, NA, 999, 999, 4, 23, 155, 106, 159, 124, 188, 86, 2, 0.367964
272, 3, wb, attraction, a-b-db, 9, 3, 4, 24, 195, 120, 114, 186, 120, 195, 3, 0.479152
272, 3, wb, attraction, a-b-db, 9, 3, 4, 24, 195, 120, 114, 186, 120, 195, 1, 0.338833
272, 3, wb, filler, NA, 999, 999, 4, 25, 111, 178, 82, 167, 77, 164, 2, 0.39544
272, 3, wb, filler, NA, 999, 999, 4, 25, 111, 178, 82, 167, 77, 164, 1, 0.394908
272, 3, wb, attraction, a-b-db, 9, 1, 4, 26, 60, 135, 57, 129, 135, 60, 3, 0.536472
272, 3, wb, attraction, a-b-db, 9, 1, 4, 26, 60, 135, 57, 129, 135, 60, 2, 0.354285
272, 3, wb, attraction, a-b-db, 5, 1, 4, 27, 60, 135, 58, 132, 135, 60, 3, 0.490167
272, 3, wb, attraction, a-b-db, 5, 1, 4, 27, 60, 135, 58, 132, 135, 60, 1, 0.605261
272, 3, wb, attraction, a-b-da, 5, 2, 4, 28, 165, 90, 90, 165, 161, 88, 2, 0.490987
272, 3, wb, attraction, a-b-da, 5, 2, 4, 28, 165, 90, 90, 165, 161, 88, 1, 0.422176
272, 3, wb, attraction, a-b-db, 14, 2, 4, 29, 90, 165, 165, 90, 83, 153, 2, 0.451337
272, 3, wb, attraction, a-b-db, 14, 2, 4, 29, 90, 165, 165, 90, 83, 153, 3, 0.280506
272, 3, wb, filler, NA, 999, 999, 4, 30, 156, 173, 114, 136, 70, 147, 3, 0.820234
272, 3, wb, filler, NA, 999, 999, 4, 30, 156, 173, 114, 136, 70, 147, 1, 0.296694
272, 3, wb, attraction, a-b-da, 14, 3, 4, 31, 120, 195, 195, 120, 181, 111, 3, 0.418697
272, 3, wb, attraction, a-b-da, 14, 3, 4, 31, 120, 195, 195, 120, 181, 111, 1, 0.584985
272, 3, wb, attraction, a-b-da, 14, 1, 4, 32, 60, 135, 125, 56, 135, 60, 3, 0.439493
272, 3, wb, attraction, a-b-da, 14, 1, 4, 32, 60, 135, 125, 56, 135, 60, 1, 0.396633
272, 3, wb, attraction, a-b-db, 2, 2, 4, 33, 89, 163, 165, 90, 90, 165, 3, 0.594416
272, 3, wb, attraction, a-b-db, 2, 2, 4, 33, 89, 163, 165, 90, 90, 165, 2, 0.425552
272, 3, wb, filler, NA, 999, 999, 4, 34, 156, 111, 143, 143, 153, 137, 1, 0.590081
272, 3, wb, filler, NA, 999, 999, 4, 34, 156, 111, 143, 143, 153, 137, 2, 0.333096
272, 3, wb, attraction, a-b-da, 5, 3, 4, 35, 195, 120, 120, 195, 190, 117, 3, 0.533629
272, 3, wb, attraction, a-b-da, 5, 3, 4, 35, 195, 120, 120, 195, 190, 117, 1, 0.487484
272, 3, wb, attraction, a-b-db, 14, 1, 4, 36, 60, 135, 135, 60, 56, 125, 3, 0.473994
272, 3, wb, attraction, a-b-db, 14, 1, 4, 36, 60, 135, 135, 60, 56, 125, 1, 0.437864
272, 3, wb, attraction, a-b-da, 2, 1, 4, 37, 134, 59, 60, 135, 135, 60, 3, 0.834194
272, 3, wb, attraction, a-b-da, 2, 1, 4, 37, 134, 59, 60, 135, 135, 60, 2, 0.38392
272, 3, wb, attraction, a-b-da, 9, 1, 5, 1, 129, 57, 135, 60, 60, 135, 1, 2.28502
272, 3, wb, attraction, a-b-da, 9, 1, 5, 1, 129, 57, 135, 60, 60, 135, 3, 0.904502
272, 3, wb, attraction, a-b-db, 9, 3, 5, 2, 120, 195, 195, 120, 114, 186, 2, 0.657935
272, 3, wb, attraction, a-b-db, 9, 3, 5, 2, 120, 195, 195, 120, 114, 186, 3, 0.206373
272, 3, wb, attraction, a-b-db, 5, 3, 5, 3, 120, 195, 195, 120, 117, 190, 2, 0.468378
272, 3, wb, attraction, a-b-db, 5, 3, 5, 3, 120, 195, 195, 120, 117, 190, 1, 0.51283
272, 3, wb, attraction, a-b-db, 5, 1, 5, 4, 60, 135, 58, 132, 135, 60, 2, 0.473821
272, 3, wb, attraction, a-b-db, 5, 1, 5, 4, 60, 135, 58, 132, 135, 60, 3, 0.325637
272, 3, wb, filler, NA, 999, 999, 5, 5, 93, 126, 155, 132, 65, 127, 2, 0.278239
272, 3, wb, filler, NA, 999, 999, 5, 5, 93, 126, 155, 132, 65, 127, 3, 0.570078
272, 3, wb, attraction, a-b-db, 2, 1, 5, 6, 59, 134, 135, 60, 60, 135, 3, 0.473199
272, 3, wb, attraction, a-b-db, 2, 1, 5, 6, 59, 134, 135, 60, 60, 135, 1, 0.300941
272, 3, wb, attraction, a-b-da, 14, 2, 5, 7, 153, 83, 165, 90, 90, 165, 2, 0.398824
272, 3, wb, attraction, a-b-da, 14, 2, 5, 7, 153, 83, 165, 90, 90, 165, 1, 0.261955
272, 3, wb, filler, NA, 999, 999, 5, 8, 69, 74, 82, 117, 102, 147, 2, 0.313191
272, 3, wb, filler, NA, 999, 999, 5, 8, 69, 74, 82, 117, 102, 147, 3, 0.867895
272, 3, wb, catch, NA, 999, 999, 5, 9, 95, 100, 119, 136, 145, 170, 1, 0.854774
272, 3, wb, catch, NA, 999, 999, 5, 9, 95, 100, 119, 136, 145, 170, 3, 0.267108
272, 3, wb, attraction, a-b-db, 14, 1, 5, 10, 60, 135, 135, 60, 56, 125, 2, 0.542583
272, 3, wb, attraction, a-b-db, 14, 1, 5, 10, 60, 135, 135, 60, 56, 125, 3, 0.391471
272, 3, wb, attraction, a-b-da, 5, 3, 5, 11, 195, 120, 190, 117, 120, 195, 1, 0.445313
272, 3, wb, attraction, a-b-da, 5, 3, 5, 11, 195, 120, 190, 117, 120, 195, 2, 0.330539
272, 3, wb, filler, NA, 999, 999, 5, 12, 69, 173, 172, 104, 119, 94, 1, 0.602988
272, 3, wb, filler, NA, 999, 999, 5, 12, 69, 173, 172, 104, 119, 94, 3, 0.394259
272, 3, wb, filler, NA, 999, 999, 5, 13, 143, 156, 109, 108, 88, 154, 3, 0.944035
272, 3, wb, filler, NA, 999, 999, 5, 13, 143, 156, 109, 108, 88, 154, 1, 0.30495
272, 3, wb, catch, NA, 999, 999, 5, 14, 65, 130, 186, 129, 113, 142, 1, 0.666746
272, 3, wb, catch, NA, 999, 999, 5, 14, 65, 130, 186, 129, 113, 142, 2, 0.247246
272, 3, wb, attraction, a-b-db, 14, 3, 5, 15, 120, 195, 111, 181, 195, 120, 1, 0.563131
272, 3, wb, attraction, a-b-db, 14, 3, 5, 15, 120, 195, 111, 181, 195, 120, 3, 0.243478
272, 3, wb, attraction, a-b-da, 2, 3, 5, 16, 195, 120, 193, 119, 120, 195, 1, 0.49536
272, 3, wb, attraction, a-b-da, 2, 3, 5, 16, 195, 120, 193, 119, 120, 195, 2, 0.202498
272, 3, wb, attraction, a-b-db, 9, 1, 5, 17, 60, 135, 135, 60, 57, 129, 3, 0.656539
272, 3, wb, attraction, a-b-db, 9, 1, 5, 17, 60, 135, 135, 60, 57, 129, 2, 0.221936
272, 3, wb, filler, NA, 999, 999, 5, 18, 85, 95, 76, 172, 99, 113, 1, 1.08203
272, 3, wb, filler, NA, 999, 999, 5, 18, 85, 95, 76, 172, 99, 113, 3, 0.861653
272, 3, wb, filler, NA, 999, 999, 5, 19, 175, 113, 63, 114, 66, 159, 2, 0.744722
272, 3, wb, filler, NA, 999, 999, 5, 19, 175, 113, 63, 114, 66, 159, 1, 0.265772
272, 3, wb, attraction, a-b-da, 2, 1, 5, 20, 134, 59, 135, 60, 60, 135, 2, 0.55694
272, 3, wb, attraction, a-b-da, 2, 1, 5, 20, 134, 59, 135, 60, 60, 135, 1, 0.581383
272, 3, wb, attraction, a-b-da, 14, 3, 5, 21, 120, 195, 195, 120, 181, 111, 1, 0.539894
272, 3, wb, attraction, a-b-da, 14, 3, 5, 21, 120, 195, 195, 120, 181, 111, 2, 0.577258
272, 3, wb, attraction, a-b-db, 2, 3, 5, 22, 195, 120, 120, 195, 119, 193, 3, 0.483606
272, 3, wb, attraction, a-b-db, 2, 3, 5, 22, 195, 120, 120, 195, 119, 193, 1, 0.591306
272, 3, wb, attraction, a-b-da, 2, 2, 5, 23, 165, 90, 90, 165, 163, 89, 1, 0.717032
272, 3, wb, attraction, a-b-da, 2, 2, 5, 23, 165, 90, 90, 165, 163, 89, 2, 0.535468
272, 3, wb, attraction, a-b-db, 2, 2, 5, 24, 90, 165, 165, 90, 89, 163, 3, 0.51183
272, 3, wb, attraction, a-b-db, 2, 2, 5, 24, 90, 165, 165, 90, 89, 163, 2, 0.266368
272, 3, wb, filler, NA, 999, 999, 5, 25, 193, 107, 58, 145, 71, 132, 3, 0.485544
272, 3, wb, filler, NA, 999, 999, 5, 25, 193, 107, 58, 145, 71, 132, 1, 0.44155
272, 3, wb, attraction, a-b-da, 9, 3, 5, 26, 195, 120, 120, 195, 186, 114, 1, 0.869243
272, 3, wb, attraction, a-b-da, 9, 3, 5, 26, 195, 120, 120, 195, 186, 114, 3, 0.609474
272, 3, wb, attraction, a-b-da, 5, 1, 5, 27, 60, 135, 135, 60, 132, 58, 3, 0.838802
272, 3, wb, attraction, a-b-da, 5, 1, 5, 27, 60, 135, 135, 60, 132, 58, 2, 0.243632
272, 3, wb, attraction, a-b-da, 14, 1, 5, 28, 60, 135, 125, 56, 135, 60, 2, 1.05549
272, 3, wb, attraction, a-b-da, 14, 1, 5, 28, 60, 135, 125, 56, 135, 60, 1, 0.219785
272, 3, wb, attraction, a-b-da, 5, 2, 5, 29, 165, 90, 90, 165, 161, 88, 1, 0.569041
272, 3, wb, attraction, a-b-da, 5, 2, 5, 29, 165, 90, 90, 165, 161, 88, 2, 0.297677
272, 3, wb, attraction, a-b-db, 5, 2, 5, 30, 165, 90, 88, 161, 90, 165, 3, 0.65138
272, 3, wb, attraction, a-b-db, 5, 2, 5, 30, 165, 90, 88, 161, 90, 165, 1, 0.304425
272, 3, wb, filler, NA, 999, 999, 5, 31, 188, 183, 88, 150, 64, 161, 3, 0.858386
272, 3, wb, filler, NA, 999, 999, 5, 31, 188, 183, 88, 150, 64, 161, 1, 0.318632
272, 3, wb, filler, NA, 999, 999, 5, 32, 91, 88, 99, 76, 170, 177, 2, 2.64782
272, 3, wb, filler, NA, 999, 999, 5, 32, 91, 88, 99, 76, 170, 177, 3, 0.27642
272, 3, wb, catch, NA, 999, 999, 5, 33, 98, 157, 94, 101, 164, 151, 2, 0.998924
272, 3, wb, catch, NA, 999, 999, 5, 33, 98, 157, 94, 101, 164, 151, 1, 1.06999
272, 3, wb, attraction, a-b-da, 9, 2, 5, 34, 90, 165, 165, 90, 157, 86, 1, 1.19279
272, 3, wb, attraction, a-b-da, 9, 2, 5, 34, 90, 165, 165, 90, 157, 86, 2, 0.199885
272, 3, wb, attraction, a-b-db, 14, 2, 5, 35, 165, 90, 90, 165, 83, 153, 3, 0.573608
272, 3, wb, attraction, a-b-db, 14, 2, 5, 35, 165, 90, 90, 165, 83, 153, 1, 0.269414
272, 3, wb, attraction, a-b-db, 9, 2, 5, 36, 86, 157, 90, 165, 165, 90, 2, 0.432671
272, 3, wb, attraction, a-b-db, 9, 2, 5, 36, 86, 157, 90, 165, 165, 90, 3, 0.286466
272, 3, wb, filler, NA, 999, 999, 5, 37, 79, 83, 56, 159, 194, 182, 1, 0.496921
272, 3, wb, filler, NA, 999, 999, 5, 37, 79, 83, 56, 159, 194, 182, 3, 0.764087
272, 3, wb, catch, NA, 999, 999, 6, 1, 139, 176, 107, 148, 119, 76, 3, 1.23517
272, 3, wb, catch, NA, 999, 999, 6, 1, 139, 176, 107, 148, 119, 76, 1, 0.528831
272, 3, wb, attraction, a-b-db, 2, 3, 6, 2, 195, 120, 119, 193, 120, 195, 1, 1.28113
272, 3, wb, attraction, a-b-db, 2, 3, 6, 2, 195, 120, 119, 193, 120, 195, 2, 0.412772
272, 3, wb, attraction, a-b-db, 2, 1, 6, 3, 59, 134, 135, 60, 60, 135, 2, 0.593972
272, 3, wb, attraction, a-b-db, 2, 1, 6, 3, 59, 134, 135, 60, 60, 135, 3, 0.24907
272, 3, wb, filler, NA, 999, 999, 6, 4, 194, 82, 118, 130, 127, 189, 1, 1.66888
272, 3, wb, filler, NA, 999, 999, 6, 4, 194, 82, 118, 130, 127, 189, 3, 0.345141
272, 3, wb, filler, NA, 999, 999, 6, 5, 163, 74, 193, 63, 139, 130, 2, 0.872772
272, 3, wb, filler, NA, 999, 999, 6, 5, 163, 74, 193, 63, 139, 130, 3, 0.364504
272, 3, wb, attraction, a-b-db, 9, 3, 6, 6, 114, 186, 195, 120, 120, 195, 2, 0.611631
272, 3, wb, attraction, a-b-db, 9, 3, 6, 6, 114, 186, 195, 120, 120, 195, 1, 0.186061
272, 3, wb, attraction, a-b-db, 5, 2, 6, 7, 88, 161, 90, 165, 165, 90, 3, 0.840601
272, 3, wb, attraction, a-b-db, 5, 2, 6, 7, 88, 161, 90, 165, 165, 90, 2, 0.253654
272, 3, wb, attraction, a-b-da, 9, 3, 6, 8, 186, 114, 120, 195, 195, 120, 1, 2.30564
272, 3, wb, attraction, a-b-da, 9, 3, 6, 8, 186, 114, 120, 195, 195, 120, 2, 0.531569
272, 3, wb, catch, NA, 999, 999, 6, 9, 154, 101, 77, 118, 128, 187, 2, 0.979908
272, 3, wb, catch, NA, 999, 999, 6, 9, 154, 101, 77, 118, 128, 187, 3, 0.307624
272, 3, wb, filler, NA, 999, 999, 6, 10, 87, 65, 167, 67, 181, 127, 1, 0.988771
272, 3, wb, filler, NA, 999, 999, 6, 10, 87, 65, 167, 67, 181, 127, 3, 0.611787
272, 3, wb, attraction, a-b-db, 14, 1, 6, 11, 135, 60, 56, 125, 60, 135, 2, 0.464995
272, 3, wb, attraction, a-b-db, 14, 1, 6, 11, 135, 60, 56, 125, 60, 135, 1, 0.574355
272, 3, wb, attraction, a-b-db, 5, 1, 6, 12, 58, 132, 135, 60, 60, 135, 3, 0.627693
272, 3, wb, attraction, a-b-db, 5, 1, 6, 12, 58, 132, 135, 60, 60, 135, 2, 0.633555
272, 3, wb, attraction, a-b-db, 9, 2, 6, 13, 86, 157, 90, 165, 165, 90, 1, 0.526033
272, 3, wb, attraction, a-b-db, 9, 2, 6, 13, 86, 157, 90, 165, 165, 90, 3, 0.679914
272, 3, wb, attraction, a-b-da, 2, 3, 6, 14, 193, 119, 195, 120, 120, 195, 2, 0.506191
272, 3, wb, attraction, a-b-da, 2, 3, 6, 14, 193, 119, 195, 120, 120, 195, 1, 0.228673
272, 3, wb, attraction, a-b-da, 5, 1, 6, 15, 60, 135, 135, 60, 132, 58, 2, 0.409289
272, 3, wb, attraction, a-b-da, 5, 1, 6, 15, 60, 135, 135, 60, 132, 58, 3, 0.303806
272, 3, wb, attraction, a-b-db, 14, 3, 6, 16, 111, 181, 120, 195, 195, 120, 2, 0.337582
272, 3, wb, attraction, a-b-db, 14, 3, 6, 16, 111, 181, 120, 195, 195, 120, 1, 0.387342
272, 3, wb, attraction, a-b-da, 14, 3, 6, 17, 120, 195, 181, 111, 195, 120, 2, 0.50597
272, 3, wb, attraction, a-b-da, 14, 3, 6, 17, 120, 195, 181, 111, 195, 120, 3, 0.492454
272, 3, wb, attraction, a-b-da, 2, 1, 6, 18, 134, 59, 135, 60, 60, 135, 2, 0.646149
272, 3, wb, attraction, a-b-da, 2, 1, 6, 18, 134, 59, 135, 60, 60, 135, 1, 0.227288
272, 3, wb, attraction, a-b-da, 14, 1, 6, 19, 60, 135, 125, 56, 135, 60, 1, 0.791862
272, 3, wb, attraction, a-b-da, 14, 1, 6, 19, 60, 135, 125, 56, 135, 60, 3, 0.312953
272, 3, wb, attraction, a-b-db, 9, 1, 6, 20, 57, 129, 135, 60, 60, 135, 3, 0.792182
272, 3, wb, attraction, a-b-db, 9, 1, 6, 20, 57, 129, 135, 60, 60, 135, 2, 1.2712
272, 3, wb, filler, NA, 999, 999, 6, 21, 110, 189, 101, 78, 93, 172, 2, 0.914043
272, 3, wb, filler, NA, 999, 999, 6, 21, 110, 189, 101, 78, 93, 172, 1, 0.300362
272, 3, wb, filler, NA, 999, 999, 6, 22, 107, 62, 129, 103, 156, 179, 1, 1.05422
272, 3, wb, filler, NA, 999, 999, 6, 22, 107, 62, 129, 103, 156, 179, 3, 0.259219
272, 3, wb, filler, NA, 999, 999, 6, 23, 98, 163, 122, 155, 168, 136, 1, 0.606346
272, 3, wb, filler, NA, 999, 999, 6, 23, 98, 163, 122, 155, 168, 136, 3, 0.308812
272, 3, wb, attraction, a-b-da, 5, 3, 6, 24, 190, 117, 195, 120, 120, 195, 2, 0.470042
272, 3, wb, attraction, a-b-da, 5, 3, 6, 24, 190, 117, 195, 120, 120, 195, 1, 0.218633
272, 3, wb, attraction, a-b-da, 14, 2, 6, 25, 165, 90, 90, 165, 153, 83, 2, 0.303749
272, 3, wb, attraction, a-b-da, 14, 2, 6, 25, 165, 90, 90, 165, 153, 83, 3, 0.354358
272, 3, wb, attraction, a-b-db, 5, 3, 6, 26, 120, 195, 117, 190, 195, 120, 2, 0.394131
272, 3, wb, attraction, a-b-db, 5, 3, 6, 26, 120, 195, 117, 190, 195, 120, 1, 0.201247
272, 3, wb, attraction, a-b-da, 5, 2, 6, 27, 161, 88, 90, 165, 165, 90, 1, 1.51111
272, 3, wb, attraction, a-b-da, 5, 2, 6, 27, 161, 88, 90, 165, 165, 90, 2, 0.225255
272, 3, wb, filler, NA, 999, 999, 6, 28, 122, 145, 119, 63, 71, 92, 2, 0.397906
272, 3, wb, filler, NA, 999, 999, 6, 28, 122, 145, 119, 63, 71, 92, 1, 0.228976
272, 3, wb, catch, NA, 999, 999, 6, 29, 88, 107, 92, 163, 163, 152, 1, 0.969474
272, 3, wb, catch, NA, 999, 999, 6, 29, 88, 107, 92, 163, 163, 152, 3, 0.25783
272, 3, wb, filler, NA, 999, 999, 6, 30, 110, 175, 81, 173, 125, 150, 2, 1.26916
272, 3, wb, filler, NA, 999, 999, 6, 30, 110, 175, 81, 173, 125, 150, 1, 0.233441
272, 3, wb, attraction, a-b-da, 9, 1, 6, 31, 135, 60, 60, 135, 129, 57, 2, 0.605891
272, 3, wb, attraction, a-b-da, 9, 1, 6, 31, 135, 60, 60, 135, 129, 57, 1, 0.484264
272, 3, wb, filler, NA, 999, 999, 6, 32, 68, 96, 170, 171, 72, 158, 2, 0.470842
272, 3, wb, filler, NA, 999, 999, 6, 32, 68, 96, 170, 171, 72, 158, 3, 2.93141
272, 3, wb, attraction, a-b-db, 14, 2, 6, 33, 165, 90, 90, 165, 83, 153, 2, 0.490916
272, 3, wb, attraction, a-b-db, 14, 2, 6, 33, 165, 90, 90, 165, 83, 153, 1, 0.302145
272, 3, wb, filler, NA, 999, 999, 6, 34, 180, 101, 74, 94, 84, 168, 2, 0.616132
272, 3, wb, filler, NA, 999, 999, 6, 34, 180, 101, 74, 94, 84, 168, 1, 0.542387
272, 3, wb, attraction, a-b-db, 2, 2, 6, 35, 165, 90, 90, 165, 89, 163, 2, 0.510262
272, 3, wb, attraction, a-b-db, 2, 2, 6, 35, 165, 90, 90, 165, 89, 163, 1, 0.296782
272, 3, wb, attraction, a-b-da, 2, 2, 6, 36, 165, 90, 163, 89, 90, 165, 1, 0.570477
272, 3, wb, attraction, a-b-da, 2, 2, 6, 36, 165, 90, 163, 89, 90, 165, 3, 0.259055
272, 3, wb, attraction, a-b-da, 9, 2, 6, 37, 157, 86, 90, 165, 165, 90, 2, 0.894162
272, 3, wb, attraction, a-b-da, 9, 2, 6, 37, 157, 86, 90, 165, 165, 90, 3, 0.289206
272, 3, wb, catch, NA, 999, 999, 7, 1, 115, 140, 61, 134, 181, 134, 2, 1.01172
272, 3, wb, catch, NA, 999, 999, 7, 1, 115, 140, 61, 134, 181, 134, 3, 0.402057
272, 3, wb, attraction, a-b-db, 14, 3, 7, 2, 195, 120, 120, 195, 111, 181, 1, 0.551883
272, 3, wb, attraction, a-b-db, 14, 3, 7, 2, 195, 120, 120, 195, 111, 181, 2, 0.208927
272, 3, wb, attraction, a-b-db, 2, 2, 7, 3, 89, 163, 165, 90, 90, 165, 2, 0.5263
272, 3, wb, attraction, a-b-db, 2, 2, 7, 3, 89, 163, 165, 90, 90, 165, 1, 0.224061
272, 3, wb, filler, NA, 999, 999, 7, 4, 183, 172, 66, 157, 147, 147, 2, 0.452577
272, 3, wb, filler, NA, 999, 999, 7, 4, 183, 172, 66, 157, 147, 147, 1, 0.25768
272, 3, wb, filler, NA, 999, 999, 7, 5, 131, 109, 180, 124, 184, 88, 3, 0.4769
272, 3, wb, filler, NA, 999, 999, 7, 5, 131, 109, 180, 124, 184, 88, 2, 0.344943
272, 3, wb, filler, NA, 999, 999, 7, 6, 126, 66, 63, 127, 194, 168, 2, 0.528664
272, 3, wb, filler, NA, 999, 999, 7, 6, 126, 66, 63, 127, 194, 168, 3, 0.210485
272, 3, wb, catch, NA, 999, 999, 7, 7, 136, 119, 189, 126, 67, 128, 3, 0.743688
272, 3, wb, catch, NA, 999, 999, 7, 7, 136, 119, 189, 126, 67, 128, 2, 0.264614
272, 3, wb, filler, NA, 999, 999, 7, 8, 194, 172, 77, 135, 141, 156, 2, 0.643898
272, 3, wb, filler, NA, 999, 999, 7, 8, 194, 172, 77, 135, 141, 156, 1, 0.232993
272, 3, wb, attraction, a-b-da, 9, 1, 7, 9, 135, 60, 60, 135, 129, 57, 2, 0.437464
272, 3, wb, attraction, a-b-da, 9, 1, 7, 9, 135, 60, 60, 135, 129, 57, 3, 0.499397
272, 3, wb, filler, NA, 999, 999, 7, 10, 92, 90, 76, 72, 185, 101, 2, 0.677047
272, 3, wb, filler, NA, 999, 999, 7, 10, 92, 90, 76, 72, 185, 101, 3, 0.272804
272, 3, wb, attraction, a-b-db, 9, 3, 7, 11, 114, 186, 195, 120, 120, 195, 1, 0.508047
272, 3, wb, attraction, a-b-db, 9, 3, 7, 11, 114, 186, 195, 120, 120, 195, 2, 0.166472
272, 3, wb, attraction, a-b-da, 2, 3, 7, 12, 195, 120, 193, 119, 120, 195, 2, 0.501803
272, 3, wb, attraction, a-b-da, 2, 3, 7, 12, 195, 120, 193, 119, 120, 195, 1, 0.272952
272, 3, wb, filler, NA, 999, 999, 7, 13, 161, 153, 162, 102, 146, 103, 3, 1.36416
272, 3, wb, filler, NA, 999, 999, 7, 13, 161, 153, 162, 102, 146, 103, 1, 0.204342
272, 3, wb, attraction, a-b-da, 9, 3, 7, 14, 186, 114, 195, 120, 120, 195, 1, 1.05824
272, 3, wb, attraction, a-b-da, 9, 3, 7, 14, 186, 114, 195, 120, 120, 195, 3, 0.614634
272, 3, wb, attraction, a-b-db, 5, 2, 7, 15, 88, 161, 165, 90, 90, 165, 2, 1.15562
272, 3, wb, attraction, a-b-db, 5, 2, 7, 15, 88, 161, 165, 90, 90, 165, 3, 0.300075
272, 3, wb, attraction, a-b-db, 9, 2, 7, 16, 165, 90, 86, 157, 90, 165, 2, 0.453775
272, 3, wb, attraction, a-b-db, 9, 2, 7, 16, 165, 90, 86, 157, 90, 165, 1, 0.474839
272, 3, wb, filler, NA, 999, 999, 7, 17, 120, 169, 68, 169, 132, 144, 2, 0.34925
272, 3, wb, filler, NA, 999, 999, 7, 17, 120, 169, 68, 169, 132, 144, 1, 1.95047
272, 3, wb, attraction, a-b-da, 9, 2, 7, 18, 157, 86, 90, 165, 165, 90, 2, 0.477828
272, 3, wb, attraction, a-b-da, 9, 2, 7, 18, 157, 86, 90, 165, 165, 90, 1, 0.409848
272, 3, wb, attraction, a-b-da, 2, 2, 7, 19, 90, 165, 165, 90, 163, 89, 2, 0.446819
272, 3, wb, attraction, a-b-da, 2, 2, 7, 19, 90, 165, 165, 90, 163, 89, 1, 0.323942
272, 3, wb, attraction, a-b-da, 2, 1, 7, 20, 135, 60, 134, 59, 60, 135, 2, 0.596508
272, 3, wb, attraction, a-b-da, 2, 1, 7, 20, 135, 60, 134, 59, 60, 135, 1, 0.459813
272, 3, wb, attraction, a-b-db, 5, 3, 7, 21, 117, 190, 120, 195, 195, 120, 2, 0.510871
272, 3, wb, attraction, a-b-db, 5, 3, 7, 21, 117, 190, 120, 195, 195, 120, 3, 0.257219
272, 3, wb, attraction, a-b-db, 9, 1, 7, 22, 60, 135, 135, 60, 57, 129, 2, 0.452528
272, 3, wb, attraction, a-b-db, 9, 1, 7, 22, 60, 135, 135, 60, 57, 129, 1, 0.5378
272, 3, wb, filler, NA, 999, 999, 7, 23, 66, 152, 88, 82, 170, 79, 2, 0.682055
272, 3, wb, filler, NA, 999, 999, 7, 23, 66, 152, 88, 82, 170, 79, 3, 1.26985
272, 3, wb, attraction, a-b-db, 2, 3, 7, 24, 119, 193, 120, 195, 195, 120, 1, 1.07273
272, 3, wb, attraction, a-b-db, 2, 3, 7, 24, 119, 193, 120, 195, 195, 120, 2, 0.260336
272, 3, wb, attraction, a-b-da, 5, 2, 7, 25, 161, 88, 165, 90, 90, 165, 2, 0.480872
272, 3, wb, attraction, a-b-da, 5, 2, 7, 25, 161, 88, 165, 90, 90, 165, 1, 0.507392
272, 3, wb, attraction, a-b-da, 14, 3, 7, 26, 181, 111, 120, 195, 195, 120, 2, 0.444469
272, 3, wb, attraction, a-b-da, 14, 3, 7, 26, 181, 111, 120, 195, 195, 120, 3, 0.329676
272, 3, wb, attraction, a-b-db, 2, 1, 7, 27, 135, 60, 60, 135, 59, 134, 2, 0.490038
272, 3, wb, attraction, a-b-db, 2, 1, 7, 27, 135, 60, 60, 135, 59, 134, 1, 0.357344
272, 3, wb, attraction, a-b-da, 14, 1, 7, 28, 135, 60, 60, 135, 125, 56, 3, 0.844428
272, 3, wb, attraction, a-b-da, 14, 1, 7, 28, 135, 60, 60, 135, 125, 56, 2, 0.681447
272, 3, wb, attraction, a-b-db, 5, 1, 7, 29, 135, 60, 58, 132, 60, 135, 1, 1.5559
272, 3, wb, attraction, a-b-db, 5, 1, 7, 29, 135, 60, 58, 132, 60, 135, 2, 1.23617
272, 3, wb, filler, NA, 999, 999, 7, 30, 131, 103, 131, 117, 188, 119, 2, 0.856367
272, 3, wb, filler, NA, 999, 999, 7, 30, 131, 103, 131, 117, 188, 119, 3, 0.500718
272, 3, wb, attraction, a-b-da, 5, 1, 7, 31, 60, 135, 135, 60, 132, 58, 2, 0.526478
272, 3, wb, attraction, a-b-da, 5, 1, 7, 31, 60, 135, 135, 60, 132, 58, 1, 0.59224
272, 3, wb, attraction, a-b-da, 5, 3, 7, 32, 195, 120, 120, 195, 190, 117, 2, 0.493962
272, 3, wb, attraction, a-b-da, 5, 3, 7, 32, 195, 120, 120, 195, 190, 117, 1, 0.529286
272, 3, wb, catch, NA, 999, 999, 7, 33, 125, 130, 121, 194, 77, 118, 3, 0.713596
272, 3, wb, catch, NA, 999, 999, 7, 33, 125, 130, 121, 194, 77, 118, 2, 0.331985
272, 3, wb, attraction, a-b-db, 14, 2, 7, 34, 165, 90, 83, 153, 90, 165, 1, 0.860499
272, 3, wb, attraction, a-b-db, 14, 2, 7, 34, 165, 90, 83, 153, 90, 165, 2, 0.344898
272, 3, wb, attraction, a-b-da, 14, 2, 7, 35, 165, 90, 153, 83, 90, 165, 2, 0.968833
272, 3, wb, attraction, a-b-da, 14, 2, 7, 35, 165, 90, 153, 83, 90, 165, 3, 0.29721
272, 3, wb, attraction, a-b-db, 14, 1, 7, 36, 135, 60, 60, 135, 56, 125, 2, 0.442995
272, 3, wb, attraction, a-b-db, 14, 1, 7, 36, 135, 60, 60, 135, 56, 125, 1, 0.240035
272, 3, wb, filler, NA, 999, 999, 7, 37, 121, 136, 154, 57, 194, 102, 2, 0.412011
272, 3, wb, filler, NA, 999, 999, 7, 37, 121, 136, 154, 57, 194, 102, 1, 0.898515
272, 3, wb, filler, NA, 999, 999, 8, 1, 115, 164, 65, 132, 149, 58, 2, 0.420077
272, 3, wb, filler, NA, 999, 999, 8, 1, 115, 164, 65, 132, 149, 58, 1, 1.22658
272, 3, wb, attraction, a-b-db, 5, 1, 8, 2, 60, 135, 58, 132, 135, 60, 2, 0.638801
272, 3, wb, attraction, a-b-db, 5, 1, 8, 2, 60, 135, 58, 132, 135, 60, 3, 0.411886
272, 3, wb, attraction, a-b-db, 5, 2, 8, 3, 90, 165, 165, 90, 88, 161, 2, 0.441113
272, 3, wb, attraction, a-b-db, 5, 2, 8, 3, 90, 165, 165, 90, 88, 161, 1, 0.246279
272, 3, wb, filler, NA, 999, 999, 8, 4, 100, 136, 187, 119, 88, 179, 2, 0.642149
272, 3, wb, filler, NA, 999, 999, 8, 4, 100, 136, 187, 119, 88, 179, 1, 0.687247
272, 3, wb, catch, NA, 999, 999, 8, 5, 150, 105, 185, 130, 84, 111, 3, 0.673598
272, 3, wb, catch, NA, 999, 999, 8, 5, 150, 105, 185, 130, 84, 111, 2, 0.237362
272, 3, wb, attraction, a-b-db, 2, 1, 8, 6, 135, 60, 60, 135, 59, 134, 2, 0.633921
272, 3, wb, attraction, a-b-db, 2, 1, 8, 6, 135, 60, 60, 135, 59, 134, 1, 0.487746
272, 3, wb, filler, NA, 999, 999, 8, 7, 180, 179, 66, 172, 64, 178, 2, 1.03408
272, 3, wb, filler, NA, 999, 999, 8, 7, 180, 179, 66, 172, 64, 178, 1, 0.247724
272, 3, wb, catch, NA, 999, 999, 8, 8, 149, 166, 159, 96, 123, 72, 2, 0.667703
272, 3, wb, catch, NA, 999, 999, 8, 8, 149, 166, 159, 96, 123, 72, 1, 0.272004
272, 3, wb, attraction, a-b-da, 9, 3, 8, 9, 186, 114, 120, 195, 195, 120, 2, 0.467397
272, 3, wb, attraction, a-b-da, 9, 3, 8, 9, 186, 114, 120, 195, 195, 120, 1, 0.34378
272, 3, wb, filler, NA, 999, 999, 8, 10, 77, 189, 157, 92, 115, 154, 2, 0.311541
272, 3, wb, filler, NA, 999, 999, 8, 10, 77, 189, 157, 92, 115, 154, 3, 0.530253
272, 3, wb, attraction, a-b-da, 2, 3, 8, 11, 120, 195, 193, 119, 195, 120, 2, 0.570724
272, 3, wb, attraction, a-b-da, 2, 3, 8, 11, 120, 195, 193, 119, 195, 120, 1, 0.195148
272, 3, wb, catch, NA, 999, 999, 8, 12, 121, 134, 102, 93, 155, 160, 2, 0.728853
272, 3, wb, catch, NA, 999, 999, 8, 12, 121, 134, 102, 93, 155, 160, 3, 0.386733
272, 3, wb, attraction, a-b-db, 5, 3, 8, 13, 117, 190, 195, 120, 120, 195, 2, 0.465159
272, 3, wb, attraction, a-b-db, 5, 3, 8, 13, 117, 190, 195, 120, 120, 195, 1, 0.333604
272, 3, wb, filler, NA, 999, 999, 8, 14, 138, 69, 158, 190, 113, 105, 1, 1.46219
272, 3, wb, filler, NA, 999, 999, 8, 14, 138, 69, 158, 190, 113, 105, 2, 0.330502
272, 3, wb, attraction, a-b-da, 9, 2, 8, 15, 90, 165, 165, 90, 157, 86, 3, 0.394878
272, 3, wb, attraction, a-b-da, 9, 2, 8, 15, 90, 165, 165, 90, 157, 86, 2, 0.322098
272, 3, wb, attraction, a-b-db, 9, 1, 8, 16, 60, 135, 57, 129, 135, 60, 3, 0.563201
272, 3, wb, attraction, a-b-db, 9, 1, 8, 16, 60, 135, 57, 129, 135, 60, 2, 1.40217
272, 3, wb, filler, NA, 999, 999, 8, 17, 103, 75, 136, 162, 103, 61, 2, 1.17717
272, 3, wb, filler, NA, 999, 999, 8, 17, 103, 75, 136, 162, 103, 61, 3, 1.3608
272, 3, wb, filler, NA, 999, 999, 8, 18, 66, 183, 73, 176, 139, 162, 2, 0.487582
272, 3, wb, filler, NA, 999, 999, 8, 18, 66, 183, 73, 176, 139, 162, 3, 0.235566
272, 3, wb, attraction, a-b-da, 14, 1, 8, 19, 60, 135, 125, 56, 135, 60, 2, 0.704013
272, 3, wb, attraction, a-b-da, 14, 1, 8, 19, 60, 135, 125, 56, 135, 60, 1, 0.56313
272, 3, wb, attraction, a-b-da, 2, 1, 8, 20, 134, 59, 135, 60, 60, 135, 3, 0.506184
272, 3, wb, attraction, a-b-da, 2, 1, 8, 20, 134, 59, 135, 60, 60, 135, 1, 0.428659
272, 3, wb, filler, NA, 999, 999, 8, 21, 149, 77, 124, 133, 160, 171, 1, 0.993262
272, 3, wb, filler, NA, 999, 999, 8, 21, 149, 77, 124, 133, 160, 171, 3, 0.90414
272, 3, wb, attraction, a-b-db, 14, 3, 8, 22, 111, 181, 195, 120, 120, 195, 2, 0.441846
272, 3, wb, attraction, a-b-db, 14, 3, 8, 22, 111, 181, 195, 120, 120, 195, 1, 0.214963
272, 3, wb, attraction, a-b-da, 14, 3, 8, 23, 181, 111, 195, 120, 120, 195, 2, 0.732159
272, 3, wb, attraction, a-b-da, 14, 3, 8, 23, 181, 111, 195, 120, 120, 195, 3, 0.269933
272, 3, wb, attraction, a-b-db, 2, 2, 8, 24, 89, 163, 165, 90, 90, 165, 2, 0.585227
272, 3, wb, attraction, a-b-db, 2, 2, 8, 24, 89, 163, 165, 90, 90, 165, 1, 0.233075
272, 3, wb, attraction, a-b-da, 5, 1, 8, 25, 60, 135, 135, 60, 132, 58, 1, 0.533597
272, 3, wb, attraction, a-b-da, 5, 1, 8, 25, 60, 135, 135, 60, 132, 58, 2, 0.215323
272, 3, wb, attraction, a-b-db, 2, 3, 8, 26, 195, 120, 119, 193, 120, 195, 3, 0.420423
272, 3, wb, attraction, a-b-db, 2, 3, 8, 26, 195, 120, 119, 193, 120, 195, 2, 0.226992
272, 3, wb, attraction, a-b-da, 5, 3, 8, 27, 120, 195, 190, 117, 195, 120, 3, 0.887432
272, 3, wb, attraction, a-b-da, 5, 3, 8, 27, 120, 195, 190, 117, 195, 120, 1, 0.259294
272, 3, wb, attraction, a-b-da, 14, 2, 8, 28, 165, 90, 90, 165, 153, 83, 3, 0.446445
272, 3, wb, attraction, a-b-da, 14, 2, 8, 28, 165, 90, 90, 165, 153, 83, 2, 0.523504
272, 3, wb, attraction, a-b-db, 14, 2, 8, 29, 90, 165, 83, 153, 165, 90, 2, 0.508195
272, 3, wb, attraction, a-b-db, 14, 2, 8, 29, 90, 165, 83, 153, 165, 90, 1, 0.18255
272, 3, wb, attraction, a-b-da, 9, 1, 8, 30, 135, 60, 129, 57, 60, 135, 2, 0.453043
272, 3, wb, attraction, a-b-da, 9, 1, 8, 30, 135, 60, 129, 57, 60, 135, 3, 0.250173
272, 3, wb, attraction, a-b-db, 9, 2, 8, 31, 90, 165, 165, 90, 86, 157, 3, 0.517995
272, 3, wb, attraction, a-b-db, 9, 2, 8, 31, 90, 165, 165, 90, 86, 157, 2, 0.184642
272, 3, wb, attraction, a-b-db, 9, 3, 8, 32, 195, 120, 120, 195, 114, 186, 3, 0.463036
272, 3, wb, attraction, a-b-db, 9, 3, 8, 32, 195, 120, 120, 195, 114, 186, 2, 0.307513
272, 3, wb, filler, NA, 999, 999, 8, 33, 96, 134, 186, 102, 171, 166, 3, 0.468796
272, 3, wb, filler, NA, 999, 999, 8, 33, 96, 134, 186, 102, 171, 166, 2, 1.20928
272, 3, wb, attraction, a-b-db, 14, 1, 8, 34, 60, 135, 135, 60, 56, 125, 1, 0.510224
272, 3, wb, attraction, a-b-db, 14, 1, 8, 34, 60, 135, 135, 60, 56, 125, 2, 0.21664
272, 3, wb, attraction, a-b-da, 2, 2, 8, 35, 90, 165, 163, 89, 165, 90, 1, 0.669985
272, 3, wb, attraction, a-b-da, 2, 2, 8, 35, 90, 165, 163, 89, 165, 90, 3, 0.194236
272, 3, wb, attraction, a-b-da, 5, 2, 8, 36, 165, 90, 161, 88, 90, 165, 2, 0.344168
272, 3, wb, attraction, a-b-da, 5, 2, 8, 36, 165, 90, 161, 88, 90, 165, 3, 0.361443
272, 3, wb, filler, NA, 999, 999, 8, 37, 171, 109, 92, 92, 79, 170, 2, 0.704458
272, 3, wb, filler, NA, 999, 999, 8, 37, 171, 109, 92, 92, 79, 170, 1, 0.378882
