sub_n, computer_n, bw_cond, effect, set, distance, diag, block_n, trial_n, h1, w1, h2, w2, h3, w3, choice, rt 
239, 3, bw, practice, NA, 999, 999, 0, 1, 92, 190, 105, 58, 78, 91, 1, 5.58616
239, 3, bw, practice, NA, 999, 999, 0, 1, 92, 190, 105, 58, 78, 91, 2, 8.44643
239, 3, bw, practice, NA, 999, 999, 0, 2, 142, 122, 99, 177, 97, 152, 2, 5.0958
239, 3, bw, practice, NA, 999, 999, 0, 2, 142, 122, 99, 177, 97, 152, 3, 2.84582
239, 3, bw, practice, NA, 999, 999, 0, 3, 115, 115, 114, 170, 165, 182, 3, 5.19038
239, 3, bw, practice, NA, 999, 999, 0, 3, 115, 115, 114, 170, 165, 182, 1, 2.10339
239, 3, bw, filler, NA, 999, 999, 1, 1, 110, 106, 188, 151, 89, 107, 2, 2.24228
239, 3, bw, filler, NA, 999, 999, 1, 1, 110, 106, 188, 151, 89, 107, 3, 1.14274
239, 3, bw, attraction, a-b-da, 9, 3, 1, 2, 186, 114, 195, 120, 120, 195, 2, 6.55032
239, 3, bw, attraction, a-b-da, 9, 3, 1, 2, 186, 114, 195, 120, 120, 195, 1, 3.36545
239, 3, bw, attraction, a-b-da, 5, 2, 1, 3, 161, 88, 90, 165, 165, 90, 2, 2.58775
239, 3, bw, attraction, a-b-da, 5, 2, 1, 3, 161, 88, 90, 165, 165, 90, 1, 1.179
239, 3, bw, attraction, a-b-db, 9, 1, 1, 4, 135, 60, 60, 135, 57, 129, 2, 6.20121
239, 3, bw, attraction, a-b-db, 9, 1, 1, 4, 135, 60, 60, 135, 57, 129, 3, 1.6225
239, 3, bw, attraction, a-b-db, 14, 1, 1, 5, 135, 60, 60, 135, 56, 125, 1, 6.61937
239, 3, bw, attraction, a-b-db, 14, 1, 1, 5, 135, 60, 60, 135, 56, 125, 3, 2.32797
239, 3, bw, attraction, a-b-db, 5, 1, 1, 6, 58, 132, 60, 135, 135, 60, 3, 2.23202
239, 3, bw, attraction, a-b-db, 5, 1, 1, 6, 58, 132, 60, 135, 135, 60, 1, 1.75709
239, 3, bw, attraction, a-b-db, 9, 2, 1, 7, 90, 165, 165, 90, 86, 157, 1, 7.11583
239, 3, bw, attraction, a-b-db, 9, 2, 1, 7, 90, 165, 165, 90, 86, 157, 3, 5.28439
239, 3, bw, attraction, a-b-da, 2, 3, 1, 8, 195, 120, 120, 195, 193, 119, 2, 2.38925
239, 3, bw, attraction, a-b-da, 2, 3, 1, 8, 195, 120, 120, 195, 193, 119, 1, 2.3958
239, 3, bw, attraction, a-b-da, 5, 1, 1, 9, 132, 58, 60, 135, 135, 60, 2, 1.93692
239, 3, bw, attraction, a-b-da, 5, 1, 1, 9, 132, 58, 60, 135, 135, 60, 1, 0.898261
239, 3, bw, filler, NA, 999, 999, 1, 10, 56, 124, 66, 172, 83, 189, 3, 1.54002
239, 3, bw, filler, NA, 999, 999, 1, 10, 56, 124, 66, 172, 83, 189, 1, 1.46089
239, 3, bw, attraction, a-b-db, 14, 3, 1, 11, 120, 195, 111, 181, 195, 120, 1, 3.43955
239, 3, bw, attraction, a-b-db, 14, 3, 1, 11, 120, 195, 111, 181, 195, 120, 3, 3.26776
239, 3, bw, filler, NA, 999, 999, 1, 12, 146, 75, 169, 103, 103, 81, 2, 2.4462
239, 3, bw, filler, NA, 999, 999, 1, 12, 146, 75, 169, 103, 103, 81, 3, 0.698554
239, 3, bw, attraction, a-b-db, 2, 3, 1, 13, 195, 120, 120, 195, 119, 193, 2, 9.2445
239, 3, bw, attraction, a-b-db, 2, 3, 1, 13, 195, 120, 120, 195, 119, 193, 1, 4.84671
239, 3, bw, attraction, a-b-db, 9, 3, 1, 14, 120, 195, 195, 120, 114, 186, 1, 7.57725
239, 3, bw, attraction, a-b-db, 9, 3, 1, 14, 120, 195, 195, 120, 114, 186, 3, 1.39883
239, 3, bw, attraction, a-b-da, 2, 2, 1, 15, 90, 165, 163, 89, 165, 90, 1, 4.03636
239, 3, bw, attraction, a-b-da, 2, 2, 1, 15, 90, 165, 163, 89, 165, 90, 2, 0.75313
239, 3, bw, attraction, a-b-da, 14, 2, 1, 16, 153, 83, 90, 165, 165, 90, 2, 3.42473
239, 3, bw, attraction, a-b-da, 14, 2, 1, 16, 153, 83, 90, 165, 165, 90, 1, 0.837605
239, 3, bw, attraction, a-b-da, 9, 1, 1, 17, 135, 60, 60, 135, 129, 57, 2, 3.08203
239, 3, bw, attraction, a-b-da, 9, 1, 1, 17, 135, 60, 60, 135, 129, 57, 3, 0.700954
239, 3, bw, catch, NA, 999, 999, 1, 18, 120, 195, 153, 102, 80, 115, 1, 1.03862
239, 3, bw, catch, NA, 999, 999, 1, 18, 120, 195, 153, 102, 80, 115, 3, 1.09955
239, 3, bw, filler, NA, 999, 999, 1, 19, 161, 84, 78, 109, 81, 130, 1, 4.20533
239, 3, bw, filler, NA, 999, 999, 1, 19, 161, 84, 78, 109, 81, 130, 2, 0.77931
239, 3, bw, filler, NA, 999, 999, 1, 20, 59, 130, 132, 150, 64, 130, 2, 1.63359
239, 3, bw, filler, NA, 999, 999, 1, 20, 59, 130, 132, 150, 64, 130, 3, 2.31105
239, 3, bw, filler, NA, 999, 999, 1, 21, 181, 140, 191, 114, 81, 58, 1, 11.1757
239, 3, bw, filler, NA, 999, 999, 1, 21, 181, 140, 191, 114, 81, 58, 3, 1.70009
239, 3, bw, filler, NA, 999, 999, 1, 22, 180, 180, 166, 59, 155, 68, 1, 1.07741
239, 3, bw, filler, NA, 999, 999, 1, 22, 180, 180, 166, 59, 155, 68, 3, 4.64121
239, 3, bw, attraction, a-b-db, 2, 2, 1, 23, 90, 165, 89, 163, 165, 90, 1, 6.1956
239, 3, bw, attraction, a-b-db, 2, 2, 1, 23, 90, 165, 89, 163, 165, 90, 2, 1.74512
239, 3, bw, catch, NA, 999, 999, 1, 24, 164, 91, 128, 187, 83, 112, 2, 1.16851
239, 3, bw, catch, NA, 999, 999, 1, 24, 164, 91, 128, 187, 83, 112, 3, 0.672645
239, 3, bw, attraction, a-b-db, 2, 1, 1, 25, 59, 134, 60, 135, 135, 60, 2, 3.57185
239, 3, bw, attraction, a-b-db, 2, 1, 1, 25, 59, 134, 60, 135, 135, 60, 3, 5.15531
239, 3, bw, attraction, a-b-db, 14, 2, 1, 26, 165, 90, 83, 153, 90, 165, 1, 4.37759
239, 3, bw, attraction, a-b-db, 14, 2, 1, 26, 165, 90, 83, 153, 90, 165, 2, 1.58433
239, 3, bw, filler, NA, 999, 999, 1, 27, 129, 99, 76, 95, 168, 77, 3, 3.15039
239, 3, bw, filler, NA, 999, 999, 1, 27, 129, 99, 76, 95, 168, 77, 2, 0.806858
239, 3, bw, attraction, a-b-da, 14, 3, 1, 28, 181, 111, 195, 120, 120, 195, 3, 2.8278
239, 3, bw, attraction, a-b-da, 14, 3, 1, 28, 181, 111, 195, 120, 120, 195, 1, 0.536746
239, 3, bw, attraction, a-b-db, 5, 3, 1, 29, 120, 195, 195, 120, 117, 190, 1, 3.70529
239, 3, bw, attraction, a-b-db, 5, 3, 1, 29, 120, 195, 195, 120, 117, 190, 2, 1.72284
239, 3, bw, filler, NA, 999, 999, 1, 30, 121, 132, 168, 194, 92, 136, 2, 5.13943
239, 3, bw, filler, NA, 999, 999, 1, 30, 121, 132, 168, 194, 92, 136, 3, 1.72318
239, 3, bw, attraction, a-b-db, 5, 2, 1, 31, 88, 161, 90, 165, 165, 90, 2, 3.93996
239, 3, bw, attraction, a-b-db, 5, 2, 1, 31, 88, 161, 90, 165, 165, 90, 3, 1.66794
239, 3, bw, catch, NA, 999, 999, 1, 32, 112, 143, 124, 191, 110, 85, 2, 1.59865
239, 3, bw, catch, NA, 999, 999, 1, 32, 112, 143, 124, 191, 110, 85, 3, 0.629586
239, 3, bw, attraction, a-b-da, 2, 1, 1, 33, 60, 135, 135, 60, 134, 59, 1, 1.59394
239, 3, bw, attraction, a-b-da, 2, 1, 1, 33, 60, 135, 135, 60, 134, 59, 3, 0.88078
239, 3, bw, attraction, a-b-da, 14, 1, 1, 34, 135, 60, 60, 135, 125, 56, 2, 4.18703
239, 3, bw, attraction, a-b-da, 14, 1, 1, 34, 135, 60, 60, 135, 125, 56, 3, 0.665698
239, 3, bw, attraction, a-b-da, 5, 3, 1, 35, 120, 195, 195, 120, 190, 117, 1, 2.27678
239, 3, bw, attraction, a-b-da, 5, 3, 1, 35, 120, 195, 195, 120, 190, 117, 3, 3.25604
239, 3, bw, attraction, a-b-da, 9, 2, 1, 36, 165, 90, 157, 86, 90, 165, 1, 9.30704
239, 3, bw, attraction, a-b-da, 9, 2, 1, 36, 165, 90, 157, 86, 90, 165, 3, 3.68358
239, 3, bw, filler, NA, 999, 999, 1, 37, 178, 121, 104, 121, 164, 80, 1, 2.46881
239, 3, bw, filler, NA, 999, 999, 1, 37, 178, 121, 104, 121, 164, 80, 3, 4.34477
239, 3, bw, filler, NA, 999, 999, 2, 1, 117, 123, 141, 190, 99, 127, 2, 2.5114
239, 3, bw, filler, NA, 999, 999, 2, 1, 117, 123, 141, 190, 99, 127, 3, 1.58521
239, 3, bw, catch, NA, 999, 999, 2, 2, 102, 93, 159, 96, 173, 142, 3, 3.36744
239, 3, bw, catch, NA, 999, 999, 2, 2, 102, 93, 159, 96, 173, 142, 1, 1.71109
239, 3, bw, attraction, a-b-da, 14, 1, 2, 3, 125, 56, 135, 60, 60, 135, 2, 1.72764
239, 3, bw, attraction, a-b-da, 14, 1, 2, 3, 125, 56, 135, 60, 60, 135, 1, 0.632938
239, 3, bw, attraction, a-b-db, 9, 2, 2, 4, 86, 157, 165, 90, 90, 165, 3, 2.30136
239, 3, bw, attraction, a-b-db, 9, 2, 2, 4, 86, 157, 165, 90, 90, 165, 2, 1.59995
239, 3, bw, filler, NA, 999, 999, 2, 5, 74, 87, 93, 128, 106, 99, 2, 1.88567
239, 3, bw, filler, NA, 999, 999, 2, 5, 74, 87, 93, 128, 106, 99, 1, 0.896857
239, 3, bw, filler, NA, 999, 999, 2, 6, 91, 100, 98, 138, 181, 125, 3, 1.35444
239, 3, bw, filler, NA, 999, 999, 2, 6, 91, 100, 98, 138, 181, 125, 1, 1.15542
239, 3, bw, filler, NA, 999, 999, 2, 7, 145, 179, 152, 187, 122, 180, 2, 2.23505
239, 3, bw, filler, NA, 999, 999, 2, 7, 145, 179, 152, 187, 122, 180, 3, 1.18427
239, 3, bw, attraction, a-b-db, 5, 1, 2, 8, 60, 135, 58, 132, 135, 60, 2, 2.05456
239, 3, bw, attraction, a-b-db, 5, 1, 2, 8, 60, 135, 58, 132, 135, 60, 3, 0.554564
239, 3, bw, attraction, a-b-da, 5, 1, 2, 9, 60, 135, 135, 60, 132, 58, 2, 4.45823
239, 3, bw, attraction, a-b-da, 5, 1, 2, 9, 60, 135, 135, 60, 132, 58, 3, 0.805511
239, 3, bw, attraction, a-b-db, 14, 3, 2, 10, 195, 120, 111, 181, 120, 195, 2, 2.84317
239, 3, bw, attraction, a-b-db, 14, 3, 2, 10, 195, 120, 111, 181, 120, 195, 3, 6.98366
239, 3, bw, attraction, a-b-da, 2, 2, 2, 11, 165, 90, 163, 89, 90, 165, 3, 5.08405
239, 3, bw, attraction, a-b-da, 2, 2, 2, 11, 165, 90, 163, 89, 90, 165, 2, 0.830403
239, 3, bw, catch, NA, 999, 999, 2, 12, 157, 98, 142, 173, 124, 71, 2, 3.12272
239, 3, bw, catch, NA, 999, 999, 2, 12, 157, 98, 142, 173, 124, 71, 3, 1.20381
239, 3, bw, attraction, a-b-db, 2, 1, 2, 13, 135, 60, 60, 135, 59, 134, 2, 2.16144
239, 3, bw, attraction, a-b-db, 2, 1, 2, 13, 135, 60, 60, 135, 59, 134, 3, 1.80147
239, 3, bw, attraction, a-b-db, 2, 2, 2, 14, 90, 165, 165, 90, 89, 163, 3, 3.9507
239, 3, bw, attraction, a-b-db, 2, 2, 2, 14, 90, 165, 165, 90, 89, 163, 2, 1.18286
239, 3, bw, attraction, a-b-da, 2, 1, 2, 15, 134, 59, 135, 60, 60, 135, 2, 12.749
239, 3, bw, attraction, a-b-da, 2, 1, 2, 15, 134, 59, 135, 60, 60, 135, 3, 0.882507
239, 3, bw, attraction, a-b-da, 2, 3, 2, 16, 120, 195, 193, 119, 195, 120, 3, 4.31658
239, 3, bw, attraction, a-b-da, 2, 3, 2, 16, 120, 195, 193, 119, 195, 120, 2, 0.622071
239, 3, bw, attraction, a-b-db, 5, 3, 2, 17, 120, 195, 117, 190, 195, 120, 2, 3.41918
239, 3, bw, attraction, a-b-db, 5, 3, 2, 17, 120, 195, 117, 190, 195, 120, 1, 1.14467
239, 3, bw, filler, NA, 999, 999, 2, 18, 124, 82, 110, 112, 160, 176, 3, 1.68817
239, 3, bw, filler, NA, 999, 999, 2, 18, 124, 82, 110, 112, 160, 176, 1, 3.85894
239, 3, bw, attraction, a-b-da, 9, 3, 2, 19, 120, 195, 195, 120, 186, 114, 1, 5.78105
239, 3, bw, attraction, a-b-da, 9, 3, 2, 19, 120, 195, 195, 120, 186, 114, 3, 1.92321
239, 3, bw, attraction, a-b-db, 5, 2, 2, 20, 90, 165, 88, 161, 165, 90, 1, 7.11588
239, 3, bw, attraction, a-b-db, 5, 2, 2, 20, 90, 165, 88, 161, 165, 90, 3, 1.51622
239, 3, bw, filler, NA, 999, 999, 2, 21, 172, 77, 138, 191, 180, 188, 3, 1.4931
239, 3, bw, filler, NA, 999, 999, 2, 21, 172, 77, 138, 191, 180, 188, 1, 1.45601
239, 3, bw, attraction, a-b-da, 9, 1, 2, 22, 60, 135, 129, 57, 135, 60, 3, 3.75541
239, 3, bw, attraction, a-b-da, 9, 1, 2, 22, 60, 135, 129, 57, 135, 60, 2, 2.25094
239, 3, bw, attraction, a-b-da, 14, 2, 2, 23, 90, 165, 165, 90, 153, 83, 2, 3.17416
239, 3, bw, attraction, a-b-da, 14, 2, 2, 23, 90, 165, 165, 90, 153, 83, 3, 1.32506
239, 3, bw, filler, NA, 999, 999, 2, 24, 94, 185, 187, 91, 141, 77, 2, 6.25334
239, 3, bw, filler, NA, 999, 999, 2, 24, 94, 185, 187, 91, 141, 77, 3, 0.66464
239, 3, bw, attraction, a-b-db, 9, 1, 2, 25, 60, 135, 57, 129, 135, 60, 1, 1.96383
239, 3, bw, attraction, a-b-db, 9, 1, 2, 25, 60, 135, 57, 129, 135, 60, 3, 0.667635
239, 3, bw, attraction, a-b-da, 9, 2, 2, 26, 165, 90, 157, 86, 90, 165, 3, 3.91892
239, 3, bw, attraction, a-b-da, 9, 2, 2, 26, 165, 90, 157, 86, 90, 165, 2, 1.33634
239, 3, bw, attraction, a-b-db, 14, 1, 2, 27, 60, 135, 56, 125, 135, 60, 3, 3.49635
239, 3, bw, attraction, a-b-db, 14, 1, 2, 27, 60, 135, 56, 125, 135, 60, 2, 0.91468
239, 3, bw, filler, NA, 999, 999, 2, 28, 192, 104, 160, 131, 102, 186, 2, 2.6598
239, 3, bw, filler, NA, 999, 999, 2, 28, 192, 104, 160, 131, 102, 186, 3, 2.55155
239, 3, bw, attraction, a-b-db, 2, 3, 2, 29, 120, 195, 119, 193, 195, 120, 2, 5.66254
239, 3, bw, attraction, a-b-db, 2, 3, 2, 29, 120, 195, 119, 193, 195, 120, 1, 1.8095
239, 3, bw, attraction, a-b-da, 14, 3, 2, 30, 195, 120, 181, 111, 120, 195, 3, 1.42241
239, 3, bw, attraction, a-b-da, 14, 3, 2, 30, 195, 120, 181, 111, 120, 195, 2, 0.899615
239, 3, bw, attraction, a-b-db, 14, 2, 2, 31, 83, 153, 165, 90, 90, 165, 2, 4.01333
239, 3, bw, attraction, a-b-db, 14, 2, 2, 31, 83, 153, 165, 90, 90, 165, 1, 1.50682
239, 3, bw, filler, NA, 999, 999, 2, 32, 79, 149, 126, 175, 182, 119, 3, 5.90764
239, 3, bw, filler, NA, 999, 999, 2, 32, 79, 149, 126, 175, 182, 119, 1, 0.524386
239, 3, bw, filler, NA, 999, 999, 2, 33, 112, 127, 142, 134, 141, 145, 2, 5.54083
239, 3, bw, filler, NA, 999, 999, 2, 33, 112, 127, 142, 134, 141, 145, 1, 0.892456
239, 3, bw, attraction, a-b-da, 5, 2, 2, 34, 161, 88, 165, 90, 90, 165, 2, 1.862
239, 3, bw, attraction, a-b-da, 5, 2, 2, 34, 161, 88, 165, 90, 90, 165, 3, 1.29006
239, 3, bw, attraction, a-b-da, 5, 3, 2, 35, 195, 120, 190, 117, 120, 195, 1, 3.00425
239, 3, bw, attraction, a-b-da, 5, 3, 2, 35, 195, 120, 190, 117, 120, 195, 2, 1.25065
239, 3, bw, attraction, a-b-db, 9, 3, 2, 36, 195, 120, 120, 195, 114, 186, 2, 1.21416
239, 3, bw, attraction, a-b-db, 9, 3, 2, 36, 195, 120, 120, 195, 114, 186, 3, 1.22849
239, 3, bw, catch, NA, 999, 999, 2, 37, 178, 137, 84, 111, 140, 115, 1, 1.48876
239, 3, bw, catch, NA, 999, 999, 2, 37, 178, 137, 84, 111, 140, 115, 2, 0.667478
239, 3, bw, attraction, a-b-da, 9, 1, 3, 1, 60, 135, 135, 60, 129, 57, 2, 2.67065
239, 3, bw, attraction, a-b-da, 9, 1, 3, 1, 60, 135, 135, 60, 129, 57, 1, 0.634357
239, 3, bw, attraction, a-b-da, 9, 3, 3, 2, 120, 195, 186, 114, 195, 120, 3, 3.36673
239, 3, bw, attraction, a-b-da, 9, 3, 3, 2, 120, 195, 186, 114, 195, 120, 2, 5.69444
239, 3, bw, attraction, a-b-db, 14, 3, 3, 3, 111, 181, 120, 195, 195, 120, 2, 2.16661
239, 3, bw, attraction, a-b-db, 14, 3, 3, 3, 111, 181, 120, 195, 195, 120, 1, 0.846472
239, 3, bw, filler, NA, 999, 999, 3, 4, 195, 138, 66, 101, 134, 103, 1, 1.90615
239, 3, bw, filler, NA, 999, 999, 3, 4, 195, 138, 66, 101, 134, 103, 2, 0.508301
239, 3, bw, filler, NA, 999, 999, 3, 5, 108, 87, 72, 83, 71, 180, 3, 6.4934
239, 3, bw, filler, NA, 999, 999, 3, 5, 108, 87, 72, 83, 71, 180, 2, 0.990625
239, 3, bw, catch, NA, 999, 999, 3, 6, 141, 114, 101, 94, 141, 174, 3, 3.0523
239, 3, bw, catch, NA, 999, 999, 3, 6, 141, 114, 101, 94, 141, 174, 2, 0.67253
239, 3, bw, attraction, a-b-da, 14, 3, 3, 7, 195, 120, 120, 195, 181, 111, 2, 1.69975
239, 3, bw, attraction, a-b-da, 14, 3, 3, 7, 195, 120, 120, 195, 181, 111, 3, 1.27069
239, 3, bw, attraction, a-b-db, 2, 1, 3, 8, 60, 135, 135, 60, 59, 134, 2, 6.19326
239, 3, bw, attraction, a-b-db, 2, 1, 3, 8, 60, 135, 135, 60, 59, 134, 3, 0.686651
239, 3, bw, attraction, a-b-da, 5, 3, 3, 9, 120, 195, 195, 120, 190, 117, 2, 8.00116
239, 3, bw, attraction, a-b-da, 5, 3, 3, 9, 120, 195, 195, 120, 190, 117, 1, 1.4059
239, 3, bw, attraction, a-b-db, 5, 1, 3, 10, 58, 132, 60, 135, 135, 60, 2, 4.58749
239, 3, bw, attraction, a-b-db, 5, 1, 3, 10, 58, 132, 60, 135, 135, 60, 1, 0.850331
239, 3, bw, attraction, a-b-da, 14, 2, 3, 11, 165, 90, 153, 83, 90, 165, 1, 3.98155
239, 3, bw, attraction, a-b-da, 14, 2, 3, 11, 165, 90, 153, 83, 90, 165, 2, 0.804306
239, 3, bw, filler, NA, 999, 999, 3, 12, 59, 131, 138, 65, 105, 120, 3, 1.56216
239, 3, bw, filler, NA, 999, 999, 3, 12, 59, 131, 138, 65, 105, 120, 1, 1.23421
239, 3, bw, attraction, a-b-da, 2, 1, 3, 13, 135, 60, 60, 135, 134, 59, 1, 12.8625
239, 3, bw, attraction, a-b-da, 2, 1, 3, 13, 135, 60, 60, 135, 134, 59, 2, 0.799023
239, 3, bw, attraction, a-b-db, 9, 3, 3, 14, 120, 195, 114, 186, 195, 120, 1, 5.7008
239, 3, bw, attraction, a-b-db, 9, 3, 3, 14, 120, 195, 114, 186, 195, 120, 3, 6.32627
239, 3, bw, catch, NA, 999, 999, 3, 15, 164, 151, 107, 148, 100, 95, 1, 3.18083
239, 3, bw, catch, NA, 999, 999, 3, 15, 164, 151, 107, 148, 100, 95, 3, 0.771908
239, 3, bw, attraction, a-b-db, 2, 2, 3, 16, 89, 163, 90, 165, 165, 90, 2, 4.36301
239, 3, bw, attraction, a-b-db, 2, 2, 3, 16, 89, 163, 90, 165, 165, 90, 3, 0.986282
239, 3, bw, attraction, a-b-da, 5, 1, 3, 17, 135, 60, 60, 135, 132, 58, 1, 7.45641
239, 3, bw, attraction, a-b-da, 5, 1, 3, 17, 135, 60, 60, 135, 132, 58, 3, 1.06742
239, 3, bw, attraction, a-b-db, 14, 2, 3, 18, 90, 165, 165, 90, 83, 153, 1, 2.51853
239, 3, bw, attraction, a-b-db, 14, 2, 3, 18, 90, 165, 165, 90, 83, 153, 3, 0.584287
239, 3, bw, attraction, a-b-db, 9, 1, 3, 19, 135, 60, 57, 129, 60, 135, 3, 3.96663
239, 3, bw, attraction, a-b-db, 9, 1, 3, 19, 135, 60, 57, 129, 60, 135, 2, 1.66207
239, 3, bw, attraction, a-b-db, 9, 2, 3, 20, 165, 90, 86, 157, 90, 165, 1, 2.36877
239, 3, bw, attraction, a-b-db, 9, 2, 3, 20, 165, 90, 86, 157, 90, 165, 2, 0.968766
239, 3, bw, filler, NA, 999, 999, 3, 21, 189, 88, 156, 190, 114, 162, 2, 1.14366
239, 3, bw, filler, NA, 999, 999, 3, 21, 189, 88, 156, 190, 114, 162, 3, 4.5688
239, 3, bw, filler, NA, 999, 999, 3, 22, 167, 129, 181, 121, 155, 168, 3, 16.3825
239, 3, bw, filler, NA, 999, 999, 3, 22, 167, 129, 181, 121, 155, 168, 1, 1.42529
239, 3, bw, attraction, a-b-da, 14, 1, 3, 23, 135, 60, 125, 56, 60, 135, 1, 9.90967
239, 3, bw, attraction, a-b-da, 14, 1, 3, 23, 135, 60, 125, 56, 60, 135, 2, 4.28515
239, 3, bw, attraction, a-b-da, 2, 3, 3, 24, 120, 195, 195, 120, 193, 119, 1, 8.71046
239, 3, bw, attraction, a-b-da, 2, 3, 3, 24, 120, 195, 195, 120, 193, 119, 2, 0.438163
239, 3, bw, filler, NA, 999, 999, 3, 25, 71, 161, 174, 100, 84, 187, 2, 2.7067
239, 3, bw, filler, NA, 999, 999, 3, 25, 71, 161, 174, 100, 84, 187, 1, 0.468477
239, 3, bw, filler, NA, 999, 999, 3, 26, 129, 151, 189, 176, 95, 100, 2, 2.03968
239, 3, bw, filler, NA, 999, 999, 3, 26, 129, 151, 189, 176, 95, 100, 3, 0.596311
239, 3, bw, attraction, a-b-db, 2, 3, 3, 27, 195, 120, 120, 195, 119, 193, 2, 2.186
239, 3, bw, attraction, a-b-db, 2, 3, 3, 27, 195, 120, 120, 195, 119, 193, 3, 1.12931
239, 3, bw, attraction, a-b-da, 9, 2, 3, 28, 165, 90, 90, 165, 157, 86, 2, 2.71367
239, 3, bw, attraction, a-b-da, 9, 2, 3, 28, 165, 90, 90, 165, 157, 86, 3, 0.907548
239, 3, bw, attraction, a-b-db, 14, 1, 3, 29, 60, 135, 135, 60, 56, 125, 1, 1.26836
239, 3, bw, attraction, a-b-db, 14, 1, 3, 29, 60, 135, 135, 60, 56, 125, 3, 1.1207
239, 3, bw, attraction, a-b-db, 5, 3, 3, 30, 117, 190, 120, 195, 195, 120, 2, 2.08156
239, 3, bw, attraction, a-b-db, 5, 3, 3, 30, 117, 190, 120, 195, 195, 120, 3, 0.772946
239, 3, bw, filler, NA, 999, 999, 3, 31, 124, 151, 188, 142, 129, 103, 2, 1.21997
239, 3, bw, filler, NA, 999, 999, 3, 31, 124, 151, 188, 142, 129, 103, 3, 1.55415
239, 3, bw, attraction, a-b-da, 5, 2, 3, 32, 90, 165, 165, 90, 161, 88, 1, 1.75357
239, 3, bw, attraction, a-b-da, 5, 2, 3, 32, 90, 165, 165, 90, 161, 88, 3, 1.08235
239, 3, bw, attraction, a-b-da, 2, 2, 3, 33, 165, 90, 90, 165, 163, 89, 2, 3.80472
239, 3, bw, attraction, a-b-da, 2, 2, 3, 33, 165, 90, 90, 165, 163, 89, 1, 2.09869
239, 3, bw, filler, NA, 999, 999, 3, 34, 152, 130, 127, 61, 62, 102, 1, 1.52409
239, 3, bw, filler, NA, 999, 999, 3, 34, 152, 130, 127, 61, 62, 102, 3, 1.15759
239, 3, bw, catch, NA, 999, 999, 3, 35, 120, 195, 140, 115, 109, 86, 1, 1.33242
239, 3, bw, catch, NA, 999, 999, 3, 35, 120, 195, 140, 115, 109, 86, 3, 0.702097
239, 3, bw, filler, NA, 999, 999, 3, 36, 111, 154, 183, 72, 190, 143, 3, 1.20777
239, 3, bw, filler, NA, 999, 999, 3, 36, 111, 154, 183, 72, 190, 143, 1, 3.71011
239, 3, bw, attraction, a-b-db, 5, 2, 3, 37, 88, 161, 90, 165, 165, 90, 1, 4.04624
239, 3, bw, attraction, a-b-db, 5, 2, 3, 37, 88, 161, 90, 165, 165, 90, 3, 1.45813
239, 3, bw, attraction, a-b-db, 9, 3, 4, 1, 120, 195, 195, 120, 114, 186, 2, 1.81309
239, 3, bw, attraction, a-b-db, 9, 3, 4, 1, 120, 195, 195, 120, 114, 186, 3, 0.939239
239, 3, bw, attraction, a-b-da, 5, 3, 4, 2, 195, 120, 190, 117, 120, 195, 3, 1.57131
239, 3, bw, attraction, a-b-da, 5, 3, 4, 2, 195, 120, 190, 117, 120, 195, 1, 0.498875
239, 3, bw, filler, NA, 999, 999, 4, 3, 165, 129, 127, 110, 174, 58, 1, 1.26862
239, 3, bw, filler, NA, 999, 999, 4, 3, 165, 129, 127, 110, 174, 58, 3, 0.496817
239, 3, bw, attraction, a-b-da, 9, 2, 4, 4, 157, 86, 165, 90, 90, 165, 2, 1.36275
239, 3, bw, attraction, a-b-da, 9, 2, 4, 4, 157, 86, 165, 90, 90, 165, 1, 0.379365
239, 3, bw, filler, NA, 999, 999, 4, 5, 68, 142, 166, 81, 60, 150, 2, 1.64142
239, 3, bw, filler, NA, 999, 999, 4, 5, 68, 142, 166, 81, 60, 150, 3, 3.17428
239, 3, bw, filler, NA, 999, 999, 4, 6, 60, 57, 62, 147, 130, 153, 3, 1.74774
239, 3, bw, filler, NA, 999, 999, 4, 6, 60, 57, 62, 147, 130, 153, 1, 1.2126
239, 3, bw, attraction, a-b-da, 14, 3, 4, 7, 120, 195, 181, 111, 195, 120, 3, 2.42547
239, 3, bw, attraction, a-b-da, 14, 3, 4, 7, 120, 195, 181, 111, 195, 120, 1, 1.75876
239, 3, bw, attraction, a-b-db, 9, 2, 4, 8, 86, 157, 165, 90, 90, 165, 3, 9.21342
239, 3, bw, attraction, a-b-db, 9, 2, 4, 8, 86, 157, 165, 90, 90, 165, 1, 0.561118
239, 3, bw, filler, NA, 999, 999, 4, 9, 186, 166, 112, 109, 178, 123, 1, 1.53619
239, 3, bw, filler, NA, 999, 999, 4, 9, 186, 166, 112, 109, 178, 123, 2, 0.649683
239, 3, bw, attraction, a-b-db, 2, 1, 4, 10, 135, 60, 59, 134, 60, 135, 3, 6.62955
239, 3, bw, attraction, a-b-db, 2, 1, 4, 10, 135, 60, 59, 134, 60, 135, 2, 1.36143
239, 3, bw, attraction, a-b-db, 14, 3, 4, 11, 195, 120, 120, 195, 111, 181, 2, 7.93636
239, 3, bw, attraction, a-b-db, 14, 3, 4, 11, 195, 120, 120, 195, 111, 181, 3, 1.19975
239, 3, bw, attraction, a-b-da, 14, 2, 4, 12, 90, 165, 153, 83, 165, 90, 1, 4.43726
239, 3, bw, attraction, a-b-da, 14, 2, 4, 12, 90, 165, 153, 83, 165, 90, 2, 0.577913
239, 3, bw, attraction, a-b-da, 9, 3, 4, 13, 195, 120, 186, 114, 120, 195, 3, 1.98424
239, 3, bw, attraction, a-b-da, 9, 3, 4, 13, 195, 120, 186, 114, 120, 195, 2, 0.84763
239, 3, bw, filler, NA, 999, 999, 4, 14, 182, 102, 103, 132, 140, 147, 1, 6.2513
239, 3, bw, filler, NA, 999, 999, 4, 14, 182, 102, 103, 132, 140, 147, 2, 0.494721
239, 3, bw, catch, NA, 999, 999, 4, 15, 191, 124, 88, 107, 110, 145, 1, 2.40048
239, 3, bw, catch, NA, 999, 999, 4, 15, 191, 124, 88, 107, 110, 145, 2, 0.783024
239, 3, bw, catch, NA, 999, 999, 4, 16, 138, 117, 123, 72, 120, 195, 3, 1.4934
239, 3, bw, catch, NA, 999, 999, 4, 16, 138, 117, 123, 72, 120, 195, 2, 0.928249
239, 3, bw, attraction, a-b-da, 2, 2, 4, 17, 163, 89, 165, 90, 90, 165, 2, 3.51264
239, 3, bw, attraction, a-b-da, 2, 2, 4, 17, 163, 89, 165, 90, 90, 165, 3, 0.634163
239, 3, bw, attraction, a-b-db, 14, 2, 4, 18, 83, 153, 165, 90, 90, 165, 3, 16.1666
239, 3, bw, attraction, a-b-db, 14, 2, 4, 18, 83, 153, 165, 90, 90, 165, 1, 0.714103
239, 3, bw, attraction, a-b-da, 5, 2, 4, 19, 161, 88, 90, 165, 165, 90, 3, 4.11512
239, 3, bw, attraction, a-b-da, 5, 2, 4, 19, 161, 88, 90, 165, 165, 90, 1, 2.1644
239, 3, bw, attraction, a-b-da, 2, 1, 4, 20, 135, 60, 60, 135, 134, 59, 3, 3.03515
239, 3, bw, attraction, a-b-da, 2, 1, 4, 20, 135, 60, 60, 135, 134, 59, 2, 1.98416
239, 3, bw, attraction, a-b-da, 2, 3, 4, 21, 193, 119, 120, 195, 195, 120, 1, 4.07826
239, 3, bw, attraction, a-b-da, 2, 3, 4, 21, 193, 119, 120, 195, 195, 120, 2, 2.69679
239, 3, bw, filler, NA, 999, 999, 4, 22, 112, 68, 90, 115, 187, 157, 3, 0.92983
239, 3, bw, filler, NA, 999, 999, 4, 22, 112, 68, 90, 115, 187, 157, 1, 1.41957
239, 3, bw, catch, NA, 999, 999, 4, 23, 131, 124, 190, 125, 87, 108, 2, 1.89636
239, 3, bw, catch, NA, 999, 999, 4, 23, 131, 124, 190, 125, 87, 108, 3, 0.867067
239, 3, bw, attraction, a-b-db, 2, 3, 4, 24, 120, 195, 195, 120, 119, 193, 1, 2.52609
239, 3, bw, attraction, a-b-db, 2, 3, 4, 24, 120, 195, 195, 120, 119, 193, 3, 0.991328
239, 3, bw, filler, NA, 999, 999, 4, 25, 160, 172, 178, 66, 115, 145, 1, 1.54901
239, 3, bw, filler, NA, 999, 999, 4, 25, 160, 172, 178, 66, 115, 145, 2, 4.04578
239, 3, bw, attraction, a-b-da, 9, 1, 4, 26, 129, 57, 135, 60, 60, 135, 3, 4.79258
239, 3, bw, attraction, a-b-da, 9, 1, 4, 26, 129, 57, 135, 60, 60, 135, 1, 1.87827
239, 3, bw, attraction, a-b-db, 5, 2, 4, 27, 88, 161, 90, 165, 165, 90, 1, 4.16821
239, 3, bw, attraction, a-b-db, 5, 2, 4, 27, 88, 161, 90, 165, 165, 90, 3, 0.647754
239, 3, bw, attraction, a-b-db, 14, 1, 4, 28, 135, 60, 56, 125, 60, 135, 1, 6.57934
239, 3, bw, attraction, a-b-db, 14, 1, 4, 28, 135, 60, 56, 125, 60, 135, 2, 1.05741
239, 3, bw, filler, NA, 999, 999, 4, 29, 77, 146, 183, 77, 142, 174, 3, 1.04414
239, 3, bw, filler, NA, 999, 999, 4, 29, 77, 146, 183, 77, 142, 174, 1, 0.569123
239, 3, bw, attraction, a-b-db, 2, 2, 4, 30, 89, 163, 165, 90, 90, 165, 2, 2.03239
239, 3, bw, attraction, a-b-db, 2, 2, 4, 30, 89, 163, 165, 90, 90, 165, 1, 1.18972
239, 3, bw, filler, NA, 999, 999, 4, 31, 70, 126, 86, 64, 105, 103, 3, 5.94
239, 3, bw, filler, NA, 999, 999, 4, 31, 70, 126, 86, 64, 105, 103, 2, 0.691323
239, 3, bw, filler, NA, 999, 999, 4, 32, 186, 142, 175, 118, 144, 160, 1, 6.40506
239, 3, bw, filler, NA, 999, 999, 4, 32, 186, 142, 175, 118, 144, 160, 3, 2.92254
239, 3, bw, attraction, a-b-da, 14, 1, 4, 33, 135, 60, 125, 56, 60, 135, 1, 5.29073
239, 3, bw, attraction, a-b-da, 14, 1, 4, 33, 135, 60, 125, 56, 60, 135, 2, 0.604339
239, 3, bw, attraction, a-b-da, 5, 1, 4, 34, 60, 135, 132, 58, 135, 60, 3, 3.28222
239, 3, bw, attraction, a-b-da, 5, 1, 4, 34, 60, 135, 132, 58, 135, 60, 2, 0.629135
239, 3, bw, attraction, a-b-db, 9, 1, 4, 35, 57, 129, 135, 60, 60, 135, 3, 3.96153
239, 3, bw, attraction, a-b-db, 9, 1, 4, 35, 57, 129, 135, 60, 60, 135, 1, 1.17693
239, 3, bw, attraction, a-b-db, 5, 1, 4, 36, 58, 132, 135, 60, 60, 135, 3, 2.83908
239, 3, bw, attraction, a-b-db, 5, 1, 4, 36, 58, 132, 135, 60, 60, 135, 1, 1.63569
239, 3, bw, attraction, a-b-db, 5, 3, 4, 37, 117, 190, 120, 195, 195, 120, 3, 9.03168
239, 3, bw, attraction, a-b-db, 5, 3, 4, 37, 117, 190, 120, 195, 195, 120, 1, 0.618805
239, 3, bw, attraction, a-b-da, 9, 2, 5, 1, 157, 86, 90, 165, 165, 90, 2, 3.31851
239, 3, bw, attraction, a-b-da, 9, 2, 5, 1, 157, 86, 90, 165, 165, 90, 1, 1.69617
239, 3, bw, attraction, a-b-da, 2, 3, 5, 2, 193, 119, 195, 120, 120, 195, 3, 6.50559
239, 3, bw, attraction, a-b-da, 2, 3, 5, 2, 193, 119, 195, 120, 120, 195, 1, 0.666858
239, 3, bw, attraction, a-b-db, 5, 1, 5, 3, 135, 60, 60, 135, 58, 132, 2, 1.75802
239, 3, bw, attraction, a-b-db, 5, 1, 5, 3, 135, 60, 60, 135, 58, 132, 1, 1.47002
239, 3, bw, attraction, a-b-db, 9, 1, 5, 4, 135, 60, 60, 135, 57, 129, 2, 2.87278
239, 3, bw, attraction, a-b-db, 9, 1, 5, 4, 135, 60, 60, 135, 57, 129, 3, 0.564002
239, 3, bw, attraction, a-b-da, 5, 2, 5, 5, 161, 88, 165, 90, 90, 165, 2, 1.46699
239, 3, bw, attraction, a-b-da, 5, 2, 5, 5, 161, 88, 165, 90, 90, 165, 3, 1.59108
239, 3, bw, filler, NA, 999, 999, 5, 6, 182, 176, 67, 185, 99, 138, 1, 1.26865
239, 3, bw, filler, NA, 999, 999, 5, 6, 182, 176, 67, 185, 99, 138, 2, 3.10487
239, 3, bw, attraction, a-b-da, 9, 3, 5, 7, 186, 114, 195, 120, 120, 195, 3, 1.62577
239, 3, bw, attraction, a-b-da, 9, 3, 5, 7, 186, 114, 195, 120, 120, 195, 1, 0.831298
239, 3, bw, attraction, a-b-da, 14, 3, 5, 8, 181, 111, 195, 120, 120, 195, 3, 2.77971
239, 3, bw, attraction, a-b-da, 14, 3, 5, 8, 181, 111, 195, 120, 120, 195, 1, 0.722649
239, 3, bw, attraction, a-b-db, 5, 2, 5, 9, 165, 90, 90, 165, 88, 161, 2, 2.49168
239, 3, bw, attraction, a-b-db, 5, 2, 5, 9, 165, 90, 90, 165, 88, 161, 1, 0.814192
239, 3, bw, catch, NA, 999, 999, 5, 10, 126, 129, 123, 72, 163, 152, 3, 0.939305
239, 3, bw, catch, NA, 999, 999, 5, 10, 126, 129, 123, 72, 163, 152, 2, 0.780416
239, 3, bw, attraction, a-b-db, 14, 3, 5, 11, 120, 195, 195, 120, 111, 181, 1, 1.25057
239, 3, bw, attraction, a-b-db, 14, 3, 5, 11, 120, 195, 195, 120, 111, 181, 3, 1.42352
239, 3, bw, attraction, a-b-db, 9, 2, 5, 12, 90, 165, 86, 157, 165, 90, 2, 1.83584
239, 3, bw, attraction, a-b-db, 9, 2, 5, 12, 90, 165, 86, 157, 165, 90, 3, 2.2572
239, 3, bw, catch, NA, 999, 999, 5, 13, 155, 100, 194, 121, 124, 71, 2, 0.899761
239, 3, bw, catch, NA, 999, 999, 5, 13, 155, 100, 194, 121, 124, 71, 3, 0.918791
239, 3, bw, filler, NA, 999, 999, 5, 14, 71, 102, 151, 85, 105, 191, 3, 0.887744
239, 3, bw, filler, NA, 999, 999, 5, 14, 71, 102, 151, 85, 105, 191, 1, 1.03475
239, 3, bw, attraction, a-b-db, 5, 3, 5, 15, 117, 190, 195, 120, 120, 195, 2, 2.67916
239, 3, bw, attraction, a-b-db, 5, 3, 5, 15, 117, 190, 195, 120, 120, 195, 1, 1.07426
239, 3, bw, attraction, a-b-db, 2, 3, 5, 16, 195, 120, 119, 193, 120, 195, 2, 3.70045
239, 3, bw, attraction, a-b-db, 2, 3, 5, 16, 195, 120, 119, 193, 120, 195, 3, 0.958552
239, 3, bw, filler, NA, 999, 999, 5, 17, 114, 58, 115, 177, 194, 64, 2, 1.52548
239, 3, bw, filler, NA, 999, 999, 5, 17, 114, 58, 115, 177, 194, 64, 1, 0.551024
239, 3, bw, filler, NA, 999, 999, 5, 18, 118, 179, 57, 181, 82, 121, 1, 3.70293
239, 3, bw, filler, NA, 999, 999, 5, 18, 118, 179, 57, 181, 82, 121, 3, 1.05708
239, 3, bw, attraction, a-b-da, 2, 1, 5, 19, 60, 135, 135, 60, 134, 59, 2, 1.53986
239, 3, bw, attraction, a-b-da, 2, 1, 5, 19, 60, 135, 135, 60, 134, 59, 1, 0.572754
239, 3, bw, attraction, a-b-db, 14, 2, 5, 20, 90, 165, 83, 153, 165, 90, 1, 5.78807
239, 3, bw, attraction, a-b-db, 14, 2, 5, 20, 90, 165, 83, 153, 165, 90, 2, 1.03411
239, 3, bw, attraction, a-b-db, 2, 1, 5, 21, 135, 60, 59, 134, 60, 135, 2, 7.91033
239, 3, bw, attraction, a-b-db, 2, 1, 5, 21, 135, 60, 59, 134, 60, 135, 1, 2.71853
239, 3, bw, filler, NA, 999, 999, 5, 22, 159, 130, 69, 182, 173, 162, 3, 1.55886
239, 3, bw, filler, NA, 999, 999, 5, 22, 159, 130, 69, 182, 173, 162, 2, 0.831033
239, 3, bw, attraction, a-b-da, 9, 1, 5, 23, 135, 60, 60, 135, 129, 57, 2, 2.68345
239, 3, bw, attraction, a-b-da, 9, 1, 5, 23, 135, 60, 60, 135, 129, 57, 1, 0.694629
239, 3, bw, attraction, a-b-da, 14, 2, 5, 24, 165, 90, 90, 165, 153, 83, 2, 2.11234
239, 3, bw, attraction, a-b-da, 14, 2, 5, 24, 165, 90, 90, 165, 153, 83, 3, 0.802204
239, 3, bw, catch, NA, 999, 999, 5, 25, 95, 160, 82, 113, 168, 147, 3, 1.43188
239, 3, bw, catch, NA, 999, 999, 5, 25, 95, 160, 82, 113, 168, 147, 2, 0.941418
239, 3, bw, filler, NA, 999, 999, 5, 26, 121, 67, 104, 81, 195, 147, 3, 1.02102
239, 3, bw, filler, NA, 999, 999, 5, 26, 121, 67, 104, 81, 195, 147, 1, 2.65959
239, 3, bw, attraction, a-b-db, 14, 1, 5, 27, 60, 135, 135, 60, 56, 125, 1, 3.81401
239, 3, bw, attraction, a-b-db, 14, 1, 5, 27, 60, 135, 135, 60, 56, 125, 2, 1.17936
239, 3, bw, filler, NA, 999, 999, 5, 28, 83, 57, 89, 153, 162, 92, 2, 1.56151
239, 3, bw, filler, NA, 999, 999, 5, 28, 83, 57, 89, 153, 162, 92, 1, 1.12966
239, 3, bw, attraction, a-b-da, 5, 3, 5, 29, 190, 117, 195, 120, 120, 195, 3, 5.41008
239, 3, bw, attraction, a-b-da, 5, 3, 5, 29, 190, 117, 195, 120, 120, 195, 1, 0.614948
239, 3, bw, filler, NA, 999, 999, 5, 30, 188, 195, 112, 74, 70, 87, 1, 1.30815
239, 3, bw, filler, NA, 999, 999, 5, 30, 188, 195, 112, 74, 70, 87, 3, 3.13435
239, 3, bw, attraction, a-b-da, 2, 2, 5, 31, 165, 90, 163, 89, 90, 165, 3, 16.486
239, 3, bw, attraction, a-b-da, 2, 2, 5, 31, 165, 90, 163, 89, 90, 165, 2, 0.612785
239, 3, bw, attraction, a-b-db, 2, 2, 5, 32, 89, 163, 165, 90, 90, 165, 1, 3.41773
239, 3, bw, attraction, a-b-db, 2, 2, 5, 32, 89, 163, 165, 90, 90, 165, 2, 0.687455
239, 3, bw, attraction, a-b-da, 14, 1, 5, 33, 135, 60, 125, 56, 60, 135, 1, 2.48981
239, 3, bw, attraction, a-b-da, 14, 1, 5, 33, 135, 60, 125, 56, 60, 135, 2, 0.596319
239, 3, bw, attraction, a-b-db, 9, 3, 5, 34, 195, 120, 120, 195, 114, 186, 2, 1.89005
239, 3, bw, attraction, a-b-db, 9, 3, 5, 34, 195, 120, 120, 195, 114, 186, 3, 4.39684
239, 3, bw, filler, NA, 999, 999, 5, 35, 65, 102, 173, 144, 142, 139, 2, 2.42528
239, 3, bw, filler, NA, 999, 999, 5, 35, 65, 102, 173, 144, 142, 139, 1, 3.18257
239, 3, bw, filler, NA, 999, 999, 5, 36, 180, 60, 143, 130, 124, 75, 2, 2.10017
239, 3, bw, filler, NA, 999, 999, 5, 36, 180, 60, 143, 130, 124, 75, 3, 1.39892
239, 3, bw, attraction, a-b-da, 5, 1, 5, 37, 60, 135, 132, 58, 135, 60, 1, 10.8443
239, 3, bw, attraction, a-b-da, 5, 1, 5, 37, 60, 135, 132, 58, 135, 60, 2, 0.486193
239, 3, bw, attraction, a-b-db, 5, 3, 6, 1, 117, 190, 120, 195, 195, 120, 3, 8.19264
239, 3, bw, attraction, a-b-db, 5, 3, 6, 1, 117, 190, 120, 195, 195, 120, 1, 0.813452
239, 3, bw, attraction, a-b-db, 2, 3, 6, 2, 119, 193, 120, 195, 195, 120, 3, 3.61039
239, 3, bw, attraction, a-b-db, 2, 3, 6, 2, 119, 193, 120, 195, 195, 120, 1, 0.695933
239, 3, bw, filler, NA, 999, 999, 6, 3, 182, 175, 115, 61, 144, 146, 1, 1.46571
239, 3, bw, filler, NA, 999, 999, 6, 3, 182, 175, 115, 61, 144, 146, 2, 0.64585
239, 3, bw, attraction, a-b-db, 2, 1, 6, 4, 135, 60, 59, 134, 60, 135, 2, 2.68156
239, 3, bw, attraction, a-b-db, 2, 1, 6, 4, 135, 60, 59, 134, 60, 135, 3, 1.42075
239, 3, bw, filler, NA, 999, 999, 6, 5, 174, 112, 128, 122, 108, 84, 1, 2.64156
239, 3, bw, filler, NA, 999, 999, 6, 5, 174, 112, 128, 122, 108, 84, 3, 0.862002
239, 3, bw, attraction, a-b-db, 9, 2, 6, 6, 165, 90, 90, 165, 86, 157, 2, 2.36106
239, 3, bw, attraction, a-b-db, 9, 2, 6, 6, 165, 90, 90, 165, 86, 157, 3, 0.448925
239, 3, bw, attraction, a-b-da, 5, 1, 6, 7, 135, 60, 132, 58, 60, 135, 2, 3.07676
239, 3, bw, attraction, a-b-da, 5, 1, 6, 7, 135, 60, 132, 58, 60, 135, 3, 1.0879
239, 3, bw, catch, NA, 999, 999, 6, 8, 134, 121, 61, 134, 185, 130, 3, 1.59408
239, 3, bw, catch, NA, 999, 999, 6, 8, 134, 121, 61, 134, 185, 130, 2, 0.6568
239, 3, bw, attraction, a-b-da, 5, 2, 6, 9, 165, 90, 161, 88, 90, 165, 3, 1.71583
239, 3, bw, attraction, a-b-da, 5, 2, 6, 9, 165, 90, 161, 88, 90, 165, 1, 0.750052
239, 3, bw, attraction, a-b-db, 5, 1, 6, 10, 60, 135, 135, 60, 58, 132, 2, 7.83771
239, 3, bw, attraction, a-b-db, 5, 1, 6, 10, 60, 135, 135, 60, 58, 132, 3, 0.705368
239, 3, bw, attraction, a-b-db, 14, 2, 6, 11, 165, 90, 90, 165, 83, 153, 2, 6.05897
239, 3, bw, attraction, a-b-db, 14, 2, 6, 11, 165, 90, 90, 165, 83, 153, 3, 0.773864
239, 3, bw, filler, NA, 999, 999, 6, 12, 151, 126, 165, 117, 85, 165, 2, 1.70016
239, 3, bw, filler, NA, 999, 999, 6, 12, 151, 126, 165, 117, 85, 165, 3, 0.614935
239, 3, bw, filler, NA, 999, 999, 6, 13, 73, 163, 100, 106, 189, 73, 1, 5.49998
239, 3, bw, filler, NA, 999, 999, 6, 13, 73, 163, 100, 106, 189, 73, 2, 3.77349
239, 3, bw, attraction, a-b-db, 14, 3, 6, 14, 195, 120, 120, 195, 111, 181, 2, 3.22766
239, 3, bw, attraction, a-b-db, 14, 3, 6, 14, 195, 120, 120, 195, 111, 181, 3, 0.576529
239, 3, bw, attraction, a-b-da, 14, 1, 6, 15, 125, 56, 60, 135, 135, 60, 3, 4.06304
239, 3, bw, attraction, a-b-da, 14, 1, 6, 15, 125, 56, 60, 135, 135, 60, 1, 0.722361
239, 3, bw, filler, NA, 999, 999, 6, 16, 119, 64, 88, 129, 177, 156, 3, 0.971432
239, 3, bw, filler, NA, 999, 999, 6, 16, 119, 64, 88, 129, 177, 156, 1, 1.77975
239, 3, bw, attraction, a-b-da, 2, 1, 6, 17, 135, 60, 134, 59, 60, 135, 1, 5.10593
239, 3, bw, attraction, a-b-da, 2, 1, 6, 17, 135, 60, 134, 59, 60, 135, 3, 0.55482
239, 3, bw, attraction, a-b-da, 14, 3, 6, 18, 195, 120, 181, 111, 120, 195, 3, 2.69069
239, 3, bw, attraction, a-b-da, 14, 3, 6, 18, 195, 120, 181, 111, 120, 195, 2, 0.92526
239, 3, bw, attraction, a-b-da, 2, 2, 6, 19, 90, 165, 165, 90, 163, 89, 1, 7.05337
239, 3, bw, attraction, a-b-da, 2, 2, 6, 19, 90, 165, 165, 90, 163, 89, 3, 0.776488
239, 3, bw, attraction, a-b-db, 5, 2, 6, 20, 88, 161, 165, 90, 90, 165, 3, 2.59097
239, 3, bw, attraction, a-b-db, 5, 2, 6, 20, 88, 161, 165, 90, 90, 165, 1, 1.12537
239, 3, bw, filler, NA, 999, 999, 6, 21, 85, 89, 156, 123, 133, 129, 2, 1.47774
239, 3, bw, filler, NA, 999, 999, 6, 21, 85, 89, 156, 123, 133, 129, 1, 0.577121
239, 3, bw, attraction, a-b-da, 9, 2, 6, 22, 165, 90, 157, 86, 90, 165, 1, 1.80767
239, 3, bw, attraction, a-b-da, 9, 2, 6, 22, 165, 90, 157, 86, 90, 165, 2, 0.469602
239, 3, bw, attraction, a-b-da, 14, 2, 6, 23, 153, 83, 165, 90, 90, 165, 3, 1.72081
239, 3, bw, attraction, a-b-da, 14, 2, 6, 23, 153, 83, 165, 90, 90, 165, 1, 0.674945
239, 3, bw, attraction, a-b-da, 2, 3, 6, 24, 193, 119, 195, 120, 120, 195, 3, 1.80543
239, 3, bw, attraction, a-b-da, 2, 3, 6, 24, 193, 119, 195, 120, 120, 195, 2, 1.53934
239, 3, bw, attraction, a-b-db, 9, 1, 6, 25, 57, 129, 60, 135, 135, 60, 3, 2.42756
239, 3, bw, attraction, a-b-db, 9, 1, 6, 25, 57, 129, 60, 135, 135, 60, 1, 0.712593
239, 3, bw, attraction, a-b-da, 5, 3, 6, 26, 195, 120, 120, 195, 190, 117, 2, 1.48976
239, 3, bw, attraction, a-b-da, 5, 3, 6, 26, 195, 120, 120, 195, 190, 117, 3, 1.09259
239, 3, bw, filler, NA, 999, 999, 6, 27, 111, 100, 64, 59, 161, 172, 3, 1.47827
239, 3, bw, filler, NA, 999, 999, 6, 27, 111, 100, 64, 59, 161, 172, 2, 0.665631
239, 3, bw, attraction, a-b-db, 14, 1, 6, 28, 56, 125, 60, 135, 135, 60, 3, 3.51685
239, 3, bw, attraction, a-b-db, 14, 1, 6, 28, 56, 125, 60, 135, 135, 60, 1, 0.830368
239, 3, bw, attraction, a-b-db, 2, 2, 6, 29, 165, 90, 89, 163, 90, 165, 2, 3.02662
239, 3, bw, attraction, a-b-db, 2, 2, 6, 29, 165, 90, 89, 163, 90, 165, 3, 1.01575
239, 3, bw, filler, NA, 999, 999, 6, 30, 151, 159, 181, 62, 159, 61, 1, 0.892612
239, 3, bw, filler, NA, 999, 999, 6, 30, 151, 159, 181, 62, 159, 61, 3, 1.11974
239, 3, bw, filler, NA, 999, 999, 6, 31, 82, 89, 118, 121, 97, 195, 3, 1.40856
239, 3, bw, filler, NA, 999, 999, 6, 31, 82, 89, 118, 121, 97, 195, 1, 0.494752
239, 3, bw, filler, NA, 999, 999, 6, 32, 107, 138, 176, 144, 124, 145, 2, 0.864472
239, 3, bw, filler, NA, 999, 999, 6, 32, 107, 138, 176, 144, 124, 145, 1, 3.29295
239, 3, bw, catch, NA, 999, 999, 6, 33, 151, 104, 116, 79, 158, 157, 3, 0.90182
239, 3, bw, catch, NA, 999, 999, 6, 33, 151, 104, 116, 79, 158, 157, 2, 0.665
239, 3, bw, attraction, a-b-da, 9, 3, 6, 34, 120, 195, 186, 114, 195, 120, 1, 2.52394
239, 3, bw, attraction, a-b-da, 9, 3, 6, 34, 120, 195, 186, 114, 195, 120, 2, 0.685185
239, 3, bw, attraction, a-b-da, 9, 1, 6, 35, 135, 60, 129, 57, 60, 135, 1, 2.16756
239, 3, bw, attraction, a-b-da, 9, 1, 6, 35, 135, 60, 129, 57, 60, 135, 2, 0.455618
239, 3, bw, catch, NA, 999, 999, 6, 36, 188, 127, 113, 142, 134, 61, 1, 1.70726
239, 3, bw, catch, NA, 999, 999, 6, 36, 188, 127, 113, 142, 134, 61, 3, 0.989492
239, 3, bw, attraction, a-b-db, 9, 3, 6, 37, 114, 186, 120, 195, 195, 120, 2, 1.73189
239, 3, bw, attraction, a-b-db, 9, 3, 6, 37, 114, 186, 120, 195, 195, 120, 1, 0.581114
239, 3, bw, attraction, a-b-da, 5, 3, 7, 1, 195, 120, 190, 117, 120, 195, 3, 7.76354
239, 3, bw, attraction, a-b-da, 5, 3, 7, 1, 195, 120, 190, 117, 120, 195, 2, 1.19378
239, 3, bw, filler, NA, 999, 999, 7, 2, 188, 65, 107, 165, 73, 170, 2, 1.69532
239, 3, bw, filler, NA, 999, 999, 7, 2, 188, 65, 107, 165, 73, 170, 3, 0.850111
239, 3, bw, filler, NA, 999, 999, 7, 3, 166, 186, 107, 129, 90, 121, 1, 1.1738
239, 3, bw, filler, NA, 999, 999, 7, 3, 166, 186, 107, 129, 90, 121, 3, 1.66946
239, 3, bw, attraction, a-b-da, 14, 2, 7, 4, 165, 90, 90, 165, 153, 83, 1, 3.25612
239, 3, bw, attraction, a-b-da, 14, 2, 7, 4, 165, 90, 90, 165, 153, 83, 3, 0.771826
239, 3, bw, filler, NA, 999, 999, 7, 5, 152, 70, 60, 149, 183, 133, 3, 1.88285
239, 3, bw, filler, NA, 999, 999, 7, 5, 152, 70, 60, 149, 183, 133, 1, 0.822307
239, 3, bw, attraction, a-b-da, 2, 2, 7, 6, 90, 165, 165, 90, 163, 89, 1, 1.17114
239, 3, bw, attraction, a-b-da, 2, 2, 7, 6, 90, 165, 165, 90, 163, 89, 3, 0.802851
239, 3, bw, filler, NA, 999, 999, 7, 7, 108, 131, 98, 156, 147, 180, 3, 1.16859
239, 3, bw, filler, NA, 999, 999, 7, 7, 108, 131, 98, 156, 147, 180, 1, 1.20081
239, 3, bw, attraction, a-b-db, 14, 1, 7, 8, 135, 60, 56, 125, 60, 135, 2, 2.40635
239, 3, bw, attraction, a-b-db, 14, 1, 7, 8, 135, 60, 56, 125, 60, 135, 1, 0.844247
239, 3, bw, attraction, a-b-db, 2, 1, 7, 9, 135, 60, 59, 134, 60, 135, 2, 1.25587
239, 3, bw, attraction, a-b-db, 2, 1, 7, 9, 135, 60, 59, 134, 60, 135, 1, 0.612052
239, 3, bw, attraction, a-b-da, 5, 1, 7, 10, 60, 135, 132, 58, 135, 60, 1, 1.76121
239, 3, bw, attraction, a-b-da, 5, 1, 7, 10, 60, 135, 132, 58, 135, 60, 2, 0.985335
239, 3, bw, attraction, a-b-da, 2, 1, 7, 11, 60, 135, 134, 59, 135, 60, 1, 6.60775
239, 3, bw, attraction, a-b-da, 2, 1, 7, 11, 60, 135, 134, 59, 135, 60, 2, 0.74034
239, 3, bw, catch, NA, 999, 999, 7, 12, 124, 71, 120, 195, 150, 105, 2, 0.899919
239, 3, bw, catch, NA, 999, 999, 7, 12, 124, 71, 120, 195, 150, 105, 1, 1.39104
239, 3, bw, attraction, a-b-db, 2, 3, 7, 13, 119, 193, 195, 120, 120, 195, 1, 2.43639
239, 3, bw, attraction, a-b-db, 2, 3, 7, 13, 119, 193, 195, 120, 120, 195, 2, 0.529623
239, 3, bw, attraction, a-b-da, 9, 2, 7, 14, 165, 90, 157, 86, 90, 165, 3, 6.68204
239, 3, bw, attraction, a-b-da, 9, 2, 7, 14, 165, 90, 157, 86, 90, 165, 2, 1.44412
239, 3, bw, attraction, a-b-db, 9, 2, 7, 15, 165, 90, 86, 157, 90, 165, 2, 1.50346
239, 3, bw, attraction, a-b-db, 9, 2, 7, 15, 165, 90, 86, 157, 90, 165, 3, 0.63442
239, 3, bw, filler, NA, 999, 999, 7, 16, 107, 93, 135, 65, 105, 180, 3, 1.06272
239, 3, bw, filler, NA, 999, 999, 7, 16, 107, 93, 135, 65, 105, 180, 1, 0.843015
239, 3, bw, catch, NA, 999, 999, 7, 17, 123, 192, 123, 72, 101, 154, 1, 1.0067
239, 3, bw, catch, NA, 999, 999, 7, 17, 123, 192, 123, 72, 101, 154, 2, 0.445078
239, 3, bw, filler, NA, 999, 999, 7, 18, 192, 112, 80, 171, 187, 128, 3, 1.11325
239, 3, bw, filler, NA, 999, 999, 7, 18, 192, 112, 80, 171, 187, 128, 2, 0.571112
239, 3, bw, attraction, a-b-da, 14, 3, 7, 19, 181, 111, 195, 120, 120, 195, 2, 5.82615
239, 3, bw, attraction, a-b-da, 14, 3, 7, 19, 181, 111, 195, 120, 120, 195, 1, 0.870397
239, 3, bw, filler, NA, 999, 999, 7, 20, 88, 111, 149, 169, 105, 68, 2, 0.817292
239, 3, bw, filler, NA, 999, 999, 7, 20, 88, 111, 149, 169, 105, 68, 3, 0.439825
239, 3, bw, attraction, a-b-db, 9, 1, 7, 21, 135, 60, 57, 129, 60, 135, 1, 2.74031
239, 3, bw, attraction, a-b-db, 9, 1, 7, 21, 135, 60, 57, 129, 60, 135, 3, 0.516844
239, 3, bw, attraction, a-b-da, 9, 1, 7, 22, 60, 135, 135, 60, 129, 57, 2, 3.3258
239, 3, bw, attraction, a-b-da, 9, 1, 7, 22, 60, 135, 135, 60, 129, 57, 3, 0.91084
239, 3, bw, filler, NA, 999, 999, 7, 23, 61, 128, 126, 156, 194, 149, 3, 0.967818
239, 3, bw, filler, NA, 999, 999, 7, 23, 61, 128, 126, 156, 194, 149, 1, 0.58397
239, 3, bw, attraction, a-b-db, 14, 3, 7, 24, 195, 120, 120, 195, 111, 181, 2, 4.06252
239, 3, bw, attraction, a-b-db, 14, 3, 7, 24, 195, 120, 120, 195, 111, 181, 3, 0.697862
239, 3, bw, attraction, a-b-db, 14, 2, 7, 25, 90, 165, 83, 153, 165, 90, 2, 1.91563
239, 3, bw, attraction, a-b-db, 14, 2, 7, 25, 90, 165, 83, 153, 165, 90, 3, 2.94173
239, 3, bw, filler, NA, 999, 999, 7, 26, 117, 117, 162, 105, 174, 57, 2, 2.32464
239, 3, bw, filler, NA, 999, 999, 7, 26, 117, 117, 162, 105, 174, 57, 1, 1.70988
239, 3, bw, attraction, a-b-da, 5, 2, 7, 27, 165, 90, 161, 88, 90, 165, 1, 3.03867
239, 3, bw, attraction, a-b-da, 5, 2, 7, 27, 165, 90, 161, 88, 90, 165, 2, 1.09971
239, 3, bw, attraction, a-b-db, 5, 3, 7, 28, 117, 190, 195, 120, 120, 195, 1, 5.94922
239, 3, bw, attraction, a-b-db, 5, 3, 7, 28, 117, 190, 195, 120, 120, 195, 3, 0.580743
239, 3, bw, attraction, a-b-db, 5, 2, 7, 29, 88, 161, 165, 90, 90, 165, 1, 1.9951
239, 3, bw, attraction, a-b-db, 5, 2, 7, 29, 88, 161, 165, 90, 90, 165, 2, 0.777833
239, 3, bw, attraction, a-b-db, 5, 1, 7, 30, 58, 132, 60, 135, 135, 60, 1, 3.56017
239, 3, bw, attraction, a-b-db, 5, 1, 7, 30, 58, 132, 60, 135, 135, 60, 2, 1.38377
239, 3, bw, catch, NA, 999, 999, 7, 31, 134, 61, 97, 158, 143, 172, 3, 0.853897
239, 3, bw, catch, NA, 999, 999, 7, 31, 134, 61, 97, 158, 143, 172, 1, 0.92297
239, 3, bw, filler, NA, 999, 999, 7, 32, 181, 77, 123, 191, 176, 156, 3, 0.95602
239, 3, bw, filler, NA, 999, 999, 7, 32, 181, 77, 123, 191, 176, 156, 1, 1.14033
239, 3, bw, attraction, a-b-db, 2, 2, 7, 33, 89, 163, 90, 165, 165, 90, 2, 4.9878
239, 3, bw, attraction, a-b-db, 2, 2, 7, 33, 89, 163, 90, 165, 165, 90, 3, 0.714204
239, 3, bw, attraction, a-b-da, 2, 3, 7, 34, 195, 120, 120, 195, 193, 119, 2, 1.3312
239, 3, bw, attraction, a-b-da, 2, 3, 7, 34, 195, 120, 120, 195, 193, 119, 3, 3.26091
239, 3, bw, attraction, a-b-db, 9, 3, 7, 35, 114, 186, 120, 195, 195, 120, 2, 4.68706
239, 3, bw, attraction, a-b-db, 9, 3, 7, 35, 114, 186, 120, 195, 195, 120, 1, 0.889594
239, 3, bw, attraction, a-b-da, 14, 1, 7, 36, 135, 60, 125, 56, 60, 135, 1, 2.07601
239, 3, bw, attraction, a-b-da, 14, 1, 7, 36, 135, 60, 125, 56, 60, 135, 2, 0.983328
239, 3, bw, attraction, a-b-da, 9, 3, 7, 37, 120, 195, 186, 114, 195, 120, 1, 1.48562
239, 3, bw, attraction, a-b-da, 9, 3, 7, 37, 120, 195, 186, 114, 195, 120, 2, 2.29707
239, 3, bw, filler, NA, 999, 999, 8, 1, 99, 176, 153, 113, 117, 133, 1, 1.5063
239, 3, bw, filler, NA, 999, 999, 8, 1, 99, 176, 153, 113, 117, 133, 3, 0.812572
239, 3, bw, attraction, a-b-db, 9, 1, 8, 2, 57, 129, 135, 60, 60, 135, 2, 1.23362
239, 3, bw, attraction, a-b-db, 9, 1, 8, 2, 57, 129, 135, 60, 60, 135, 1, 1.53527
239, 3, bw, attraction, a-b-da, 5, 3, 8, 3, 195, 120, 120, 195, 190, 117, 2, 1.35127
239, 3, bw, attraction, a-b-da, 5, 3, 8, 3, 195, 120, 120, 195, 190, 117, 3, 0.720133
239, 3, bw, attraction, a-b-da, 5, 2, 8, 4, 165, 90, 90, 165, 161, 88, 2, 1.56119
239, 3, bw, attraction, a-b-da, 5, 2, 8, 4, 165, 90, 90, 165, 161, 88, 3, 2.5933
239, 3, bw, attraction, a-b-db, 9, 2, 8, 5, 90, 165, 86, 157, 165, 90, 1, 2.23052
239, 3, bw, attraction, a-b-db, 9, 2, 8, 5, 90, 165, 86, 157, 165, 90, 3, 1.07573
239, 3, bw, filler, NA, 999, 999, 8, 6, 161, 154, 162, 71, 132, 170, 1, 0.974013
239, 3, bw, filler, NA, 999, 999, 8, 6, 161, 154, 162, 71, 132, 170, 2, 0.933734
239, 3, bw, attraction, a-b-db, 5, 2, 8, 7, 88, 161, 90, 165, 165, 90, 1, 2.366
239, 3, bw, attraction, a-b-db, 5, 2, 8, 7, 88, 161, 90, 165, 165, 90, 3, 1.3099
239, 3, bw, attraction, a-b-db, 14, 2, 8, 8, 90, 165, 165, 90, 83, 153, 1, 1.08677
239, 3, bw, attraction, a-b-db, 14, 2, 8, 8, 90, 165, 165, 90, 83, 153, 3, 0.738317
239, 3, bw, attraction, a-b-da, 2, 1, 8, 9, 134, 59, 60, 135, 135, 60, 1, 1.55483
239, 3, bw, attraction, a-b-da, 2, 1, 8, 9, 134, 59, 60, 135, 135, 60, 3, 1.17166
239, 3, bw, catch, NA, 999, 999, 8, 10, 94, 101, 182, 133, 101, 154, 2, 0.682468
239, 3, bw, catch, NA, 999, 999, 8, 10, 94, 101, 182, 133, 101, 154, 1, 0.518361
239, 3, bw, filler, NA, 999, 999, 8, 11, 97, 150, 166, 105, 147, 93, 2, 1.34334
239, 3, bw, filler, NA, 999, 999, 8, 11, 97, 150, 166, 105, 147, 93, 3, 0.576255
239, 3, bw, attraction, a-b-db, 2, 1, 8, 12, 135, 60, 60, 135, 59, 134, 2, 2.67073
239, 3, bw, attraction, a-b-db, 2, 1, 8, 12, 135, 60, 60, 135, 59, 134, 3, 1.67459
239, 3, bw, attraction, a-b-db, 2, 3, 8, 13, 195, 120, 120, 195, 119, 193, 2, 2.06867
239, 3, bw, attraction, a-b-db, 2, 3, 8, 13, 195, 120, 120, 195, 119, 193, 3, 0.632608
239, 3, bw, filler, NA, 999, 999, 8, 14, 94, 96, 96, 113, 80, 130, 3, 2.52492
239, 3, bw, filler, NA, 999, 999, 8, 14, 94, 96, 96, 113, 80, 130, 1, 0.694199
239, 3, bw, attraction, a-b-db, 5, 3, 8, 15, 117, 190, 195, 120, 120, 195, 3, 3.76793
239, 3, bw, attraction, a-b-db, 5, 3, 8, 15, 117, 190, 195, 120, 120, 195, 1, 0.943299
239, 3, bw, filler, NA, 999, 999, 8, 16, 143, 72, 81, 155, 84, 192, 3, 1.11892
239, 3, bw, filler, NA, 999, 999, 8, 16, 143, 72, 81, 155, 84, 192, 1, 0.593273
239, 3, bw, attraction, a-b-db, 9, 3, 8, 17, 120, 195, 114, 186, 195, 120, 1, 1.83914
239, 3, bw, attraction, a-b-db, 9, 3, 8, 17, 120, 195, 114, 186, 195, 120, 2, 1.06772
239, 3, bw, attraction, a-b-da, 14, 2, 8, 18, 153, 83, 165, 90, 90, 165, 3, 2.9828
239, 3, bw, attraction, a-b-da, 14, 2, 8, 18, 153, 83, 165, 90, 90, 165, 1, 0.741849
239, 3, bw, attraction, a-b-da, 2, 2, 8, 19, 165, 90, 163, 89, 90, 165, 2, 1.88543
239, 3, bw, attraction, a-b-da, 2, 2, 8, 19, 165, 90, 163, 89, 90, 165, 3, 1.39288
239, 3, bw, attraction, a-b-da, 2, 3, 8, 20, 120, 195, 193, 119, 195, 120, 1, 1.63834
239, 3, bw, attraction, a-b-da, 2, 3, 8, 20, 120, 195, 193, 119, 195, 120, 2, 2.69924
239, 3, bw, attraction, a-b-da, 9, 2, 8, 21, 165, 90, 90, 165, 157, 86, 2, 1.8123
239, 3, bw, attraction, a-b-da, 9, 2, 8, 21, 165, 90, 90, 165, 157, 86, 3, 1.20229
239, 3, bw, attraction, a-b-db, 5, 1, 8, 22, 135, 60, 58, 132, 60, 135, 2, 7.64796
239, 3, bw, attraction, a-b-db, 5, 1, 8, 22, 135, 60, 58, 132, 60, 135, 3, 2.06674
239, 3, bw, catch, NA, 999, 999, 8, 23, 110, 85, 93, 162, 143, 172, 3, 1.45347
239, 3, bw, catch, NA, 999, 999, 8, 23, 110, 85, 93, 162, 143, 172, 1, 0.530455
239, 3, bw, filler, NA, 999, 999, 8, 24, 66, 69, 67, 94, 165, 192, 3, 1.16281
239, 3, bw, filler, NA, 999, 999, 8, 24, 66, 69, 67, 94, 165, 192, 1, 0.883163
239, 3, bw, attraction, a-b-da, 9, 1, 8, 25, 135, 60, 60, 135, 129, 57, 1, 3.68569
239, 3, bw, attraction, a-b-da, 9, 1, 8, 25, 135, 60, 60, 135, 129, 57, 3, 1.03234
239, 3, bw, filler, NA, 999, 999, 8, 26, 90, 151, 147, 71, 82, 81, 1, 1.5725
239, 3, bw, filler, NA, 999, 999, 8, 26, 90, 151, 147, 71, 82, 81, 3, 0.771892
239, 3, bw, filler, NA, 999, 999, 8, 27, 193, 140, 175, 80, 115, 56, 1, 1.33097
239, 3, bw, filler, NA, 999, 999, 8, 27, 193, 140, 175, 80, 115, 56, 3, 0.860635
239, 3, bw, attraction, a-b-db, 2, 2, 8, 28, 89, 163, 90, 165, 165, 90, 3, 4.39164
239, 3, bw, attraction, a-b-db, 2, 2, 8, 28, 89, 163, 90, 165, 165, 90, 1, 1.20555
239, 3, bw, catch, NA, 999, 999, 8, 29, 95, 100, 148, 167, 132, 123, 2, 0.995043
239, 3, bw, catch, NA, 999, 999, 8, 29, 95, 100, 148, 167, 132, 123, 1, 0.681961
239, 3, bw, attraction, a-b-da, 14, 3, 8, 30, 120, 195, 181, 111, 195, 120, 3, 2.28435
239, 3, bw, attraction, a-b-da, 14, 3, 8, 30, 120, 195, 181, 111, 195, 120, 2, 0.679643
239, 3, bw, attraction, a-b-da, 5, 1, 8, 31, 60, 135, 135, 60, 132, 58, 2, 1.08213
239, 3, bw, attraction, a-b-da, 5, 1, 8, 31, 60, 135, 135, 60, 132, 58, 1, 0.65373
239, 3, bw, attraction, a-b-db, 14, 1, 8, 32, 135, 60, 56, 125, 60, 135, 1, 2.01738
239, 3, bw, attraction, a-b-db, 14, 1, 8, 32, 135, 60, 56, 125, 60, 135, 2, 1.30344
239, 3, bw, attraction, a-b-db, 14, 3, 8, 33, 195, 120, 120, 195, 111, 181, 2, 3.40112
239, 3, bw, attraction, a-b-db, 14, 3, 8, 33, 195, 120, 120, 195, 111, 181, 3, 1.21516
239, 3, bw, attraction, a-b-da, 9, 3, 8, 34, 195, 120, 186, 114, 120, 195, 3, 3.58814
239, 3, bw, attraction, a-b-da, 9, 3, 8, 34, 195, 120, 186, 114, 120, 195, 2, 0.699013
239, 3, bw, attraction, a-b-da, 14, 1, 8, 35, 125, 56, 60, 135, 135, 60, 3, 2.18076
239, 3, bw, attraction, a-b-da, 14, 1, 8, 35, 125, 56, 60, 135, 135, 60, 1, 0.692016
239, 3, bw, filler, NA, 999, 999, 8, 36, 181, 162, 67, 73, 106, 180, 1, 0.909681
239, 3, bw, filler, NA, 999, 999, 8, 36, 181, 162, 67, 73, 106, 180, 2, 0.968076
239, 3, bw, filler, NA, 999, 999, 8, 37, 105, 130, 148, 149, 133, 128, 2, 1.85502
239, 3, bw, filler, NA, 999, 999, 8, 37, 105, 130, 148, 149, 133, 128, 1, 1.78718
