sub_n, computer_n, bw_cond, effect, set, distance, diag, block_n, trial_n, h1, w1, h2, w2, h3, w3, choice, rt 
206, 3, wb, practice, NA, 999, 999, 0, 1, 178, 153, 110, 90, 151, 159, 2, 5.05994
206, 3, wb, practice, NA, 999, 999, 0, 1, 178, 153, 110, 90, 151, 159, 1, 3.44084
206, 3, wb, practice, NA, 999, 999, 0, 2, 159, 190, 122, 96, 168, 114, 2, 2.20923
206, 3, wb, practice, NA, 999, 999, 0, 2, 159, 190, 122, 96, 168, 114, 1, 1.09551
206, 3, wb, practice, NA, 999, 999, 0, 3, 150, 127, 126, 172, 186, 114, 1, 8.9016
206, 3, wb, practice, NA, 999, 999, 0, 3, 150, 127, 126, 172, 186, 114, 2, 2.02841
206, 3, wb, attraction, a-b-db, 5, 3, 1, 1, 120, 195, 117, 190, 195, 120, 3, 3.99884
206, 3, wb, attraction, a-b-db, 5, 3, 1, 1, 120, 195, 117, 190, 195, 120, 1, 2.35686
206, 3, wb, attraction, a-b-da, 9, 3, 1, 2, 186, 114, 195, 120, 120, 195, 1, 3.39614
206, 3, wb, attraction, a-b-da, 9, 3, 1, 2, 186, 114, 195, 120, 120, 195, 3, 1.92241
206, 3, wb, attraction, a-b-da, 9, 1, 1, 3, 60, 135, 129, 57, 135, 60, 2, 4.88307
206, 3, wb, attraction, a-b-da, 9, 1, 1, 3, 60, 135, 129, 57, 135, 60, 1, 0.90952
206, 3, wb, attraction, a-b-db, 9, 2, 1, 4, 165, 90, 90, 165, 86, 157, 1, 4.5104
206, 3, wb, attraction, a-b-db, 9, 2, 1, 4, 165, 90, 90, 165, 86, 157, 2, 1.03964
206, 3, wb, filler, NA, 999, 999, 1, 5, 79, 61, 87, 190, 195, 75, 1, 2.13999
206, 3, wb, filler, NA, 999, 999, 1, 5, 79, 61, 87, 190, 195, 75, 2, 2.55661
206, 3, wb, attraction, a-b-db, 9, 3, 1, 6, 120, 195, 114, 186, 195, 120, 3, 2.28365
206, 3, wb, attraction, a-b-db, 9, 3, 1, 6, 120, 195, 114, 186, 195, 120, 1, 0.879117
206, 3, wb, filler, NA, 999, 999, 1, 7, 169, 140, 116, 122, 115, 68, 3, 1.16922
206, 3, wb, filler, NA, 999, 999, 1, 7, 169, 140, 116, 122, 115, 68, 1, 0.993577
206, 3, wb, attraction, a-b-db, 2, 1, 1, 8, 135, 60, 60, 135, 59, 134, 1, 4.35127
206, 3, wb, attraction, a-b-db, 2, 1, 1, 8, 135, 60, 60, 135, 59, 134, 2, 0.719128
206, 3, wb, attraction, a-b-da, 14, 3, 1, 9, 195, 120, 181, 111, 120, 195, 2, 3.15228
206, 3, wb, attraction, a-b-da, 14, 3, 1, 9, 195, 120, 181, 111, 120, 195, 3, 1.50462
206, 3, wb, filler, NA, 999, 999, 1, 10, 167, 112, 106, 177, 97, 72, 3, 1.32197
206, 3, wb, filler, NA, 999, 999, 1, 10, 167, 112, 106, 177, 97, 72, 2, 2.60354
206, 3, wb, attraction, a-b-db, 2, 3, 1, 11, 195, 120, 119, 193, 120, 195, 1, 3.12063
206, 3, wb, attraction, a-b-db, 2, 3, 1, 11, 195, 120, 119, 193, 120, 195, 2, 0.730367
206, 3, wb, attraction, a-b-da, 2, 1, 1, 12, 134, 59, 135, 60, 60, 135, 1, 1.60289
206, 3, wb, attraction, a-b-da, 2, 1, 1, 12, 134, 59, 135, 60, 60, 135, 3, 1.17768
206, 3, wb, filler, NA, 999, 999, 1, 13, 59, 72, 169, 142, 114, 155, 1, 0.84782
206, 3, wb, filler, NA, 999, 999, 1, 13, 59, 72, 169, 142, 114, 155, 2, 0.916895
206, 3, wb, attraction, a-b-da, 2, 3, 1, 14, 195, 120, 120, 195, 193, 119, 3, 3.08577
206, 3, wb, attraction, a-b-da, 2, 3, 1, 14, 195, 120, 120, 195, 193, 119, 1, 0.736995
206, 3, wb, attraction, a-b-da, 9, 2, 1, 15, 157, 86, 165, 90, 90, 165, 1, 2.32919
206, 3, wb, attraction, a-b-da, 9, 2, 1, 15, 157, 86, 165, 90, 90, 165, 2, 2.43448
206, 3, wb, filler, NA, 999, 999, 1, 16, 104, 82, 150, 192, 108, 157, 1, 1.07835
206, 3, wb, filler, NA, 999, 999, 1, 16, 104, 82, 150, 192, 108, 157, 2, 0.570044
206, 3, wb, filler, NA, 999, 999, 1, 17, 178, 145, 88, 155, 165, 132, 2, 1.64924
206, 3, wb, filler, NA, 999, 999, 1, 17, 178, 145, 88, 155, 165, 132, 1, 0.493826
206, 3, wb, filler, NA, 999, 999, 1, 18, 132, 108, 62, 180, 58, 115, 3, 1.06372
206, 3, wb, filler, NA, 999, 999, 1, 18, 132, 108, 62, 180, 58, 115, 1, 0.93992
206, 3, wb, filler, NA, 999, 999, 1, 19, 70, 115, 103, 130, 149, 76, 1, 2.16424
206, 3, wb, filler, NA, 999, 999, 1, 19, 70, 115, 103, 130, 149, 76, 2, 0.524195
206, 3, wb, attraction, a-b-db, 14, 2, 1, 20, 83, 153, 90, 165, 165, 90, 1, 1.92475
206, 3, wb, attraction, a-b-db, 14, 2, 1, 20, 83, 153, 90, 165, 165, 90, 2, 1.02211
206, 3, wb, attraction, a-b-da, 14, 1, 1, 21, 125, 56, 135, 60, 60, 135, 1, 2.31495
206, 3, wb, attraction, a-b-da, 14, 1, 1, 21, 125, 56, 135, 60, 60, 135, 2, 0.988914
206, 3, wb, attraction, a-b-db, 14, 1, 1, 22, 60, 135, 135, 60, 56, 125, 3, 1.54724
206, 3, wb, attraction, a-b-db, 14, 1, 1, 22, 60, 135, 135, 60, 56, 125, 1, 0.86009
206, 3, wb, attraction, a-b-db, 9, 1, 1, 23, 135, 60, 57, 129, 60, 135, 1, 3.10298
206, 3, wb, attraction, a-b-db, 9, 1, 1, 23, 135, 60, 57, 129, 60, 135, 3, 0.753406
206, 3, wb, filler, NA, 999, 999, 1, 24, 192, 147, 146, 89, 56, 153, 3, 1.76113
206, 3, wb, filler, NA, 999, 999, 1, 24, 192, 147, 146, 89, 56, 153, 1, 0.553264
206, 3, wb, attraction, a-b-da, 5, 2, 1, 25, 165, 90, 90, 165, 161, 88, 1, 1.82505
206, 3, wb, attraction, a-b-da, 5, 2, 1, 25, 165, 90, 90, 165, 161, 88, 2, 1.68631
206, 3, wb, catch, NA, 999, 999, 1, 26, 146, 109, 172, 143, 75, 120, 3, 0.984406
206, 3, wb, catch, NA, 999, 999, 1, 26, 146, 109, 172, 143, 75, 120, 2, 0.59207
206, 3, wb, attraction, a-b-da, 14, 2, 1, 27, 90, 165, 165, 90, 153, 83, 3, 1.66989
206, 3, wb, attraction, a-b-da, 14, 2, 1, 27, 90, 165, 165, 90, 153, 83, 1, 1.25794
206, 3, wb, attraction, a-b-db, 14, 3, 1, 28, 120, 195, 111, 181, 195, 120, 2, 2.70088
206, 3, wb, attraction, a-b-db, 14, 3, 1, 28, 120, 195, 111, 181, 195, 120, 1, 1.07128
206, 3, wb, attraction, a-b-da, 2, 2, 1, 29, 90, 165, 165, 90, 163, 89, 2, 10.4262
206, 3, wb, attraction, a-b-da, 2, 2, 1, 29, 90, 165, 165, 90, 163, 89, 1, 1.1809
206, 3, wb, attraction, a-b-db, 5, 2, 1, 30, 165, 90, 90, 165, 88, 161, 3, 1.89119
206, 3, wb, attraction, a-b-db, 5, 2, 1, 30, 165, 90, 90, 165, 88, 161, 2, 1.24608
206, 3, wb, catch, NA, 999, 999, 1, 31, 125, 130, 122, 193, 114, 81, 3, 0.721598
206, 3, wb, catch, NA, 999, 999, 1, 31, 125, 130, 122, 193, 114, 81, 2, 0.595276
206, 3, wb, attraction, a-b-db, 5, 1, 1, 32, 60, 135, 135, 60, 58, 132, 3, 1.36089
206, 3, wb, attraction, a-b-db, 5, 1, 1, 32, 60, 135, 135, 60, 58, 132, 2, 0.577515
206, 3, wb, attraction, a-b-da, 5, 3, 1, 33, 190, 117, 195, 120, 120, 195, 1, 1.50358
206, 3, wb, attraction, a-b-da, 5, 3, 1, 33, 190, 117, 195, 120, 120, 195, 3, 0.594492
206, 3, wb, attraction, a-b-db, 2, 2, 1, 34, 165, 90, 90, 165, 89, 163, 1, 2.98423
206, 3, wb, attraction, a-b-db, 2, 2, 1, 34, 165, 90, 90, 165, 89, 163, 3, 0.775269
206, 3, wb, catch, NA, 999, 999, 1, 35, 116, 139, 151, 164, 63, 132, 3, 0.725602
206, 3, wb, catch, NA, 999, 999, 1, 35, 116, 139, 151, 164, 63, 132, 2, 0.319364
206, 3, wb, filler, NA, 999, 999, 1, 36, 109, 191, 179, 180, 178, 154, 1, 0.83251
206, 3, wb, filler, NA, 999, 999, 1, 36, 109, 191, 179, 180, 178, 154, 2, 0.326353
206, 3, wb, attraction, a-b-da, 5, 1, 1, 37, 135, 60, 60, 135, 132, 58, 3, 3.3908
206, 3, wb, attraction, a-b-da, 5, 1, 1, 37, 135, 60, 60, 135, 132, 58, 1, 0.829028
206, 3, wb, attraction, a-b-da, 14, 2, 2, 1, 90, 165, 153, 83, 165, 90, 2, 1.08131
206, 3, wb, attraction, a-b-da, 14, 2, 2, 1, 90, 165, 153, 83, 165, 90, 1, 0.420954
206, 3, wb, filler, NA, 999, 999, 2, 2, 118, 96, 145, 57, 122, 70, 2, 0.86621
206, 3, wb, filler, NA, 999, 999, 2, 2, 118, 96, 145, 57, 122, 70, 3, 1.95861
206, 3, wb, attraction, a-b-db, 9, 1, 2, 3, 60, 135, 135, 60, 57, 129, 3, 2.90116
206, 3, wb, attraction, a-b-db, 9, 1, 2, 3, 60, 135, 135, 60, 57, 129, 2, 0.519619
206, 3, wb, attraction, a-b-da, 5, 3, 2, 4, 190, 117, 195, 120, 120, 195, 1, 1.60862
206, 3, wb, attraction, a-b-da, 5, 3, 2, 4, 190, 117, 195, 120, 120, 195, 3, 0.574827
206, 3, wb, catch, NA, 999, 999, 2, 5, 62, 133, 118, 137, 181, 134, 1, 0.741161
206, 3, wb, catch, NA, 999, 999, 2, 5, 62, 133, 118, 137, 181, 134, 3, 0.41424
206, 3, wb, attraction, a-b-db, 2, 1, 2, 6, 135, 60, 59, 134, 60, 135, 2, 3.53142
206, 3, wb, attraction, a-b-db, 2, 1, 2, 6, 135, 60, 59, 134, 60, 135, 1, 1.19632
206, 3, wb, filler, NA, 999, 999, 2, 7, 143, 140, 155, 92, 60, 184, 3, 2.98589
206, 3, wb, filler, NA, 999, 999, 2, 7, 143, 140, 155, 92, 60, 184, 1, 0.440953
206, 3, wb, attraction, a-b-da, 9, 3, 2, 8, 120, 195, 195, 120, 186, 114, 2, 1.98072
206, 3, wb, attraction, a-b-da, 9, 3, 2, 8, 120, 195, 195, 120, 186, 114, 1, 0.37209
206, 3, wb, attraction, a-b-db, 5, 2, 2, 9, 90, 165, 88, 161, 165, 90, 3, 3.11526
206, 3, wb, attraction, a-b-db, 5, 2, 2, 9, 90, 165, 88, 161, 165, 90, 1, 0.445077
206, 3, wb, attraction, a-b-db, 9, 3, 2, 10, 120, 195, 195, 120, 114, 186, 3, 3.80076
206, 3, wb, attraction, a-b-db, 9, 3, 2, 10, 120, 195, 195, 120, 114, 186, 1, 0.622849
206, 3, wb, filler, NA, 999, 999, 2, 11, 137, 80, 109, 83, 130, 159, 2, 1.60387
206, 3, wb, filler, NA, 999, 999, 2, 11, 137, 80, 109, 83, 130, 159, 3, 0.682794
206, 3, wb, attraction, a-b-da, 5, 1, 2, 12, 135, 60, 60, 135, 132, 58, 1, 2.06114
206, 3, wb, attraction, a-b-da, 5, 1, 2, 12, 135, 60, 60, 135, 132, 58, 3, 0.937076
206, 3, wb, attraction, a-b-db, 9, 2, 2, 13, 165, 90, 90, 165, 86, 157, 3, 2.08943
206, 3, wb, attraction, a-b-db, 9, 2, 2, 13, 165, 90, 90, 165, 86, 157, 1, 0.820083
206, 3, wb, filler, NA, 999, 999, 2, 14, 108, 179, 68, 154, 92, 67, 3, 0.905065
206, 3, wb, filler, NA, 999, 999, 2, 14, 108, 179, 68, 154, 92, 67, 1, 0.651377
206, 3, wb, filler, NA, 999, 999, 2, 15, 161, 157, 145, 62, 106, 99, 2, 1.79916
206, 3, wb, filler, NA, 999, 999, 2, 15, 161, 157, 145, 62, 106, 99, 1, 0.511812
206, 3, wb, attraction, a-b-da, 2, 2, 2, 16, 165, 90, 90, 165, 163, 89, 1, 1.03101
206, 3, wb, attraction, a-b-da, 2, 2, 2, 16, 165, 90, 90, 165, 163, 89, 3, 0.69283
206, 3, wb, attraction, a-b-db, 5, 1, 2, 17, 60, 135, 58, 132, 135, 60, 2, 1.3904
206, 3, wb, attraction, a-b-db, 5, 1, 2, 17, 60, 135, 58, 132, 135, 60, 1, 0.637228
206, 3, wb, attraction, a-b-da, 2, 1, 2, 18, 135, 60, 60, 135, 134, 59, 1, 1.95372
206, 3, wb, attraction, a-b-da, 2, 1, 2, 18, 135, 60, 60, 135, 134, 59, 3, 0.530501
206, 3, wb, attraction, a-b-da, 2, 3, 2, 19, 195, 120, 120, 195, 193, 119, 1, 1.3309
206, 3, wb, attraction, a-b-da, 2, 3, 2, 19, 195, 120, 120, 195, 193, 119, 2, 0.532468
206, 3, wb, attraction, a-b-db, 14, 1, 2, 20, 135, 60, 60, 135, 56, 125, 3, 0.996898
206, 3, wb, attraction, a-b-db, 14, 1, 2, 20, 135, 60, 60, 135, 56, 125, 1, 0.883854
206, 3, wb, attraction, a-b-db, 2, 2, 2, 21, 165, 90, 90, 165, 89, 163, 1, 2.30221
206, 3, wb, attraction, a-b-db, 2, 2, 2, 21, 165, 90, 90, 165, 89, 163, 3, 0.896795
206, 3, wb, attraction, a-b-da, 14, 1, 2, 22, 60, 135, 125, 56, 135, 60, 1, 1.61042
206, 3, wb, attraction, a-b-da, 14, 1, 2, 22, 60, 135, 125, 56, 135, 60, 3, 0.768548
206, 3, wb, attraction, a-b-da, 5, 2, 2, 23, 165, 90, 161, 88, 90, 165, 3, 1.4157
206, 3, wb, attraction, a-b-da, 5, 2, 2, 23, 165, 90, 161, 88, 90, 165, 1, 0.445766
206, 3, wb, filler, NA, 999, 999, 2, 24, 143, 175, 117, 176, 100, 70, 3, 0.705617
206, 3, wb, filler, NA, 999, 999, 2, 24, 143, 175, 117, 176, 100, 70, 1, 1.07608
206, 3, wb, attraction, a-b-db, 2, 3, 2, 25, 120, 195, 119, 193, 195, 120, 3, 1.83827
206, 3, wb, attraction, a-b-db, 2, 3, 2, 25, 120, 195, 119, 193, 195, 120, 2, 0.363839
206, 3, wb, filler, NA, 999, 999, 2, 26, 64, 182, 195, 96, 67, 157, 3, 1.39485
206, 3, wb, filler, NA, 999, 999, 2, 26, 64, 182, 195, 96, 67, 157, 2, 0.561723
206, 3, wb, filler, NA, 999, 999, 2, 27, 169, 125, 78, 175, 97, 66, 3, 0.952814
206, 3, wb, filler, NA, 999, 999, 2, 27, 169, 125, 78, 175, 97, 66, 1, 0.425906
206, 3, wb, attraction, a-b-db, 5, 3, 2, 28, 120, 195, 117, 190, 195, 120, 3, 2.32625
206, 3, wb, attraction, a-b-db, 5, 3, 2, 28, 120, 195, 117, 190, 195, 120, 1, 0.375555
206, 3, wb, attraction, a-b-db, 14, 3, 2, 29, 111, 181, 195, 120, 120, 195, 1, 1.21404
206, 3, wb, attraction, a-b-db, 14, 3, 2, 29, 111, 181, 195, 120, 120, 195, 3, 0.372375
206, 3, wb, catch, NA, 999, 999, 2, 30, 127, 128, 105, 90, 172, 143, 2, 0.843506
206, 3, wb, catch, NA, 999, 999, 2, 30, 127, 128, 105, 90, 172, 143, 3, 0.456449
206, 3, wb, attraction, a-b-da, 14, 3, 2, 31, 120, 195, 195, 120, 181, 111, 3, 1.27633
206, 3, wb, attraction, a-b-da, 14, 3, 2, 31, 120, 195, 195, 120, 181, 111, 1, 0.447941
206, 3, wb, attraction, a-b-da, 9, 1, 2, 32, 129, 57, 60, 135, 135, 60, 2, 1.1477
206, 3, wb, attraction, a-b-da, 9, 1, 2, 32, 129, 57, 60, 135, 135, 60, 3, 0.62856
206, 3, wb, attraction, a-b-db, 14, 2, 2, 33, 83, 153, 165, 90, 90, 165, 1, 1.24098
206, 3, wb, attraction, a-b-db, 14, 2, 2, 33, 83, 153, 165, 90, 90, 165, 3, 0.317884
206, 3, wb, attraction, a-b-da, 9, 2, 2, 34, 157, 86, 90, 165, 165, 90, 1, 0.767047
206, 3, wb, attraction, a-b-da, 9, 2, 2, 34, 157, 86, 90, 165, 165, 90, 3, 0.367445
206, 3, wb, filler, NA, 999, 999, 2, 35, 101, 158, 103, 188, 119, 188, 1, 0.614605
206, 3, wb, filler, NA, 999, 999, 2, 35, 101, 158, 103, 188, 119, 188, 3, 0.421314
206, 3, wb, filler, NA, 999, 999, 2, 36, 121, 181, 188, 59, 141, 117, 2, 0.866325
206, 3, wb, filler, NA, 999, 999, 2, 36, 121, 181, 188, 59, 141, 117, 1, 0.462559
206, 3, wb, catch, NA, 999, 999, 2, 37, 162, 153, 119, 136, 132, 63, 3, 0.697778
206, 3, wb, catch, NA, 999, 999, 2, 37, 162, 153, 119, 136, 132, 63, 1, 0.476995
206, 3, wb, attraction, a-b-db, 2, 2, 3, 1, 90, 165, 89, 163, 165, 90, 1, 0.855247
206, 3, wb, attraction, a-b-db, 2, 2, 3, 1, 90, 165, 89, 163, 165, 90, 3, 0.347682
206, 3, wb, attraction, a-b-db, 9, 3, 3, 2, 195, 120, 114, 186, 120, 195, 1, 1.05149
206, 3, wb, attraction, a-b-db, 9, 3, 3, 2, 195, 120, 114, 186, 120, 195, 3, 0.392489
206, 3, wb, attraction, a-b-da, 5, 1, 3, 3, 132, 58, 135, 60, 60, 135, 3, 1.15835
206, 3, wb, attraction, a-b-da, 5, 1, 3, 3, 132, 58, 135, 60, 60, 135, 2, 0.662756
206, 3, wb, attraction, a-b-da, 5, 3, 3, 4, 195, 120, 120, 195, 190, 117, 1, 3.44168
206, 3, wb, attraction, a-b-da, 5, 3, 3, 4, 195, 120, 120, 195, 190, 117, 2, 1.23007
206, 3, wb, catch, NA, 999, 999, 3, 5, 189, 126, 114, 141, 116, 79, 3, 0.906044
206, 3, wb, catch, NA, 999, 999, 3, 5, 189, 126, 114, 141, 116, 79, 1, 0.356467
206, 3, wb, attraction, a-b-da, 2, 1, 3, 6, 134, 59, 135, 60, 60, 135, 2, 0.931702
206, 3, wb, attraction, a-b-da, 2, 1, 3, 6, 134, 59, 135, 60, 60, 135, 3, 0.637341
206, 3, wb, filler, NA, 999, 999, 3, 7, 188, 113, 117, 184, 77, 78, 3, 0.929738
206, 3, wb, filler, NA, 999, 999, 3, 7, 188, 113, 117, 184, 77, 78, 2, 0.419418
206, 3, wb, attraction, a-b-da, 14, 1, 3, 8, 60, 135, 125, 56, 135, 60, 2, 2.18456
206, 3, wb, attraction, a-b-da, 14, 1, 3, 8, 60, 135, 125, 56, 135, 60, 1, 0.391987
206, 3, wb, attraction, a-b-db, 14, 1, 3, 9, 60, 135, 135, 60, 56, 125, 3, 0.837613
206, 3, wb, attraction, a-b-db, 14, 1, 3, 9, 60, 135, 135, 60, 56, 125, 1, 0.883518
206, 3, wb, attraction, a-b-da, 9, 1, 3, 10, 60, 135, 129, 57, 135, 60, 2, 0.797744
206, 3, wb, attraction, a-b-da, 9, 1, 3, 10, 60, 135, 129, 57, 135, 60, 1, 0.396699
206, 3, wb, attraction, a-b-db, 9, 1, 3, 11, 60, 135, 135, 60, 57, 129, 1, 1.31458
206, 3, wb, attraction, a-b-db, 9, 1, 3, 11, 60, 135, 135, 60, 57, 129, 2, 0.820902
206, 3, wb, filler, NA, 999, 999, 3, 12, 188, 65, 68, 111, 63, 157, 2, 1.08188
206, 3, wb, filler, NA, 999, 999, 3, 12, 188, 65, 68, 111, 63, 157, 1, 0.813628
206, 3, wb, filler, NA, 999, 999, 3, 13, 151, 71, 127, 160, 66, 135, 1, 1.17053
206, 3, wb, filler, NA, 999, 999, 3, 13, 151, 71, 127, 160, 66, 135, 2, 0.434931
206, 3, wb, attraction, a-b-da, 9, 2, 3, 14, 165, 90, 90, 165, 157, 86, 3, 2.27131
206, 3, wb, attraction, a-b-da, 9, 2, 3, 14, 165, 90, 90, 165, 157, 86, 1, 0.35512
206, 3, wb, attraction, a-b-db, 5, 1, 3, 15, 135, 60, 58, 132, 60, 135, 2, 1.18709
206, 3, wb, attraction, a-b-db, 5, 1, 3, 15, 135, 60, 58, 132, 60, 135, 3, 0.466745
206, 3, wb, catch, NA, 999, 999, 3, 16, 105, 90, 165, 90, 190, 125, 1, 0.709737
206, 3, wb, catch, NA, 999, 999, 3, 16, 105, 90, 165, 90, 190, 125, 3, 0.41626
206, 3, wb, catch, NA, 999, 999, 3, 17, 168, 147, 112, 143, 110, 85, 3, 0.845356
206, 3, wb, catch, NA, 999, 999, 3, 17, 168, 147, 112, 143, 110, 85, 1, 0.538346
206, 3, wb, filler, NA, 999, 999, 3, 18, 156, 192, 168, 172, 82, 80, 3, 0.738767
206, 3, wb, filler, NA, 999, 999, 3, 18, 156, 192, 168, 172, 82, 80, 1, 0.427898
206, 3, wb, attraction, a-b-da, 9, 3, 3, 19, 195, 120, 120, 195, 186, 114, 1, 0.936337
206, 3, wb, attraction, a-b-da, 9, 3, 3, 19, 195, 120, 120, 195, 186, 114, 2, 0.561979
206, 3, wb, attraction, a-b-db, 14, 2, 3, 20, 165, 90, 90, 165, 83, 153, 3, 0.873175
206, 3, wb, attraction, a-b-db, 14, 2, 3, 20, 165, 90, 90, 165, 83, 153, 2, 0.348844
206, 3, wb, attraction, a-b-da, 2, 3, 3, 21, 120, 195, 195, 120, 193, 119, 1, 1.01265
206, 3, wb, attraction, a-b-da, 2, 3, 3, 21, 120, 195, 195, 120, 193, 119, 2, 0.52297
206, 3, wb, attraction, a-b-db, 2, 1, 3, 22, 135, 60, 59, 134, 60, 135, 2, 1.80406
206, 3, wb, attraction, a-b-db, 2, 1, 3, 22, 135, 60, 59, 134, 60, 135, 1, 0.642831
206, 3, wb, attraction, a-b-db, 14, 3, 3, 23, 111, 181, 120, 195, 195, 120, 1, 1.15064
206, 3, wb, attraction, a-b-db, 14, 3, 3, 23, 111, 181, 120, 195, 195, 120, 2, 0.423529
206, 3, wb, filler, NA, 999, 999, 3, 24, 186, 134, 115, 119, 151, 156, 2, 1.35602
206, 3, wb, filler, NA, 999, 999, 3, 24, 186, 134, 115, 119, 151, 156, 1, 0.460283
206, 3, wb, filler, NA, 999, 999, 3, 25, 128, 84, 85, 84, 134, 97, 2, 0.84806
206, 3, wb, filler, NA, 999, 999, 3, 25, 128, 84, 85, 84, 134, 97, 3, 0.332359
206, 3, wb, attraction, a-b-da, 14, 2, 3, 26, 153, 83, 165, 90, 90, 165, 1, 0.876855
206, 3, wb, attraction, a-b-da, 14, 2, 3, 26, 153, 83, 165, 90, 90, 165, 2, 0.40867
206, 3, wb, attraction, a-b-da, 5, 2, 3, 27, 90, 165, 161, 88, 165, 90, 3, 0.957771
206, 3, wb, attraction, a-b-da, 5, 2, 3, 27, 90, 165, 161, 88, 165, 90, 2, 0.558094
206, 3, wb, attraction, a-b-da, 2, 2, 3, 28, 165, 90, 163, 89, 90, 165, 1, 1.02913
206, 3, wb, attraction, a-b-da, 2, 2, 3, 28, 165, 90, 163, 89, 90, 165, 2, 0.843082
206, 3, wb, filler, NA, 999, 999, 3, 29, 129, 114, 117, 67, 83, 122, 2, 1.09456
206, 3, wb, filler, NA, 999, 999, 3, 29, 129, 114, 117, 67, 83, 122, 1, 0.353452
206, 3, wb, attraction, a-b-db, 5, 2, 3, 30, 90, 165, 88, 161, 165, 90, 2, 0.92937
206, 3, wb, attraction, a-b-db, 5, 2, 3, 30, 90, 165, 88, 161, 165, 90, 3, 1.01108
206, 3, wb, filler, NA, 999, 999, 3, 31, 145, 109, 62, 138, 87, 70, 3, 0.735976
206, 3, wb, filler, NA, 999, 999, 3, 31, 145, 109, 62, 138, 87, 70, 1, 0.409737
206, 3, wb, attraction, a-b-db, 5, 3, 3, 32, 195, 120, 117, 190, 120, 195, 1, 1.16695
206, 3, wb, attraction, a-b-db, 5, 3, 3, 32, 195, 120, 117, 190, 120, 195, 3, 0.647216
206, 3, wb, attraction, a-b-db, 2, 3, 3, 33, 195, 120, 119, 193, 120, 195, 1, 0.794969
206, 3, wb, attraction, a-b-db, 2, 3, 3, 33, 195, 120, 119, 193, 120, 195, 2, 0.369879
206, 3, wb, filler, NA, 999, 999, 3, 34, 145, 85, 180, 150, 194, 129, 1, 0.92917
206, 3, wb, filler, NA, 999, 999, 3, 34, 145, 85, 180, 150, 194, 129, 2, 0.378804
206, 3, wb, attraction, a-b-da, 14, 3, 3, 35, 181, 111, 120, 195, 195, 120, 1, 0.817177
206, 3, wb, attraction, a-b-da, 14, 3, 3, 35, 181, 111, 120, 195, 195, 120, 2, 0.631749
206, 3, wb, filler, NA, 999, 999, 3, 36, 62, 173, 154, 126, 121, 102, 1, 1.004
206, 3, wb, filler, NA, 999, 999, 3, 36, 62, 173, 154, 126, 121, 102, 2, 0.995126
206, 3, wb, attraction, a-b-db, 9, 2, 3, 37, 90, 165, 165, 90, 86, 157, 3, 2.61672
206, 3, wb, attraction, a-b-db, 9, 2, 3, 37, 90, 165, 165, 90, 86, 157, 2, 0.446504
206, 3, wb, attraction, a-b-da, 14, 3, 4, 1, 181, 111, 120, 195, 195, 120, 1, 1.23435
206, 3, wb, attraction, a-b-da, 14, 3, 4, 1, 181, 111, 120, 195, 195, 120, 2, 0.655872
206, 3, wb, attraction, a-b-da, 2, 2, 4, 2, 90, 165, 165, 90, 163, 89, 1, 0.707547
206, 3, wb, attraction, a-b-da, 2, 2, 4, 2, 90, 165, 165, 90, 163, 89, 2, 0.535312
206, 3, wb, attraction, a-b-da, 2, 3, 4, 3, 195, 120, 120, 195, 193, 119, 3, 1.63058
206, 3, wb, attraction, a-b-da, 2, 3, 4, 3, 195, 120, 120, 195, 193, 119, 2, 0.299898
206, 3, wb, filler, NA, 999, 999, 4, 4, 145, 74, 76, 129, 84, 100, 3, 0.773785
206, 3, wb, filler, NA, 999, 999, 4, 4, 145, 74, 76, 129, 84, 100, 1, 1.00547
206, 3, wb, catch, NA, 999, 999, 4, 5, 125, 130, 108, 87, 149, 166, 2, 1.13918
206, 3, wb, catch, NA, 999, 999, 4, 5, 125, 130, 108, 87, 149, 166, 3, 0.356204
206, 3, wb, attraction, a-b-db, 14, 3, 4, 6, 195, 120, 120, 195, 111, 181, 3, 1.65191
206, 3, wb, attraction, a-b-db, 14, 3, 4, 6, 195, 120, 120, 195, 111, 181, 1, 0.400722
206, 3, wb, attraction, a-b-db, 14, 2, 4, 7, 83, 153, 90, 165, 165, 90, 1, 1.17456
206, 3, wb, attraction, a-b-db, 14, 2, 4, 7, 83, 153, 90, 165, 165, 90, 3, 0.462152
206, 3, wb, filler, NA, 999, 999, 4, 8, 182, 160, 180, 77, 153, 179, 2, 0.937305
206, 3, wb, filler, NA, 999, 999, 4, 8, 182, 160, 180, 77, 153, 179, 3, 0.64302
206, 3, wb, attraction, a-b-da, 14, 2, 4, 9, 90, 165, 153, 83, 165, 90, 1, 1.04672
206, 3, wb, attraction, a-b-da, 14, 2, 4, 9, 90, 165, 153, 83, 165, 90, 3, 0.347672
206, 3, wb, attraction, a-b-da, 5, 1, 4, 10, 132, 58, 135, 60, 60, 135, 2, 1.72342
206, 3, wb, attraction, a-b-da, 5, 1, 4, 10, 132, 58, 135, 60, 60, 135, 3, 0.444881
206, 3, wb, attraction, a-b-db, 9, 1, 4, 11, 135, 60, 57, 129, 60, 135, 2, 1.57681
206, 3, wb, attraction, a-b-db, 9, 1, 4, 11, 135, 60, 57, 129, 60, 135, 1, 0.408252
206, 3, wb, attraction, a-b-da, 9, 2, 4, 12, 165, 90, 90, 165, 157, 86, 2, 0.74939
206, 3, wb, attraction, a-b-da, 9, 2, 4, 12, 165, 90, 90, 165, 157, 86, 1, 1.07041
206, 3, wb, attraction, a-b-db, 9, 3, 4, 13, 120, 195, 114, 186, 195, 120, 2, 0.58548
206, 3, wb, attraction, a-b-db, 9, 3, 4, 13, 120, 195, 114, 186, 195, 120, 3, 0.777115
206, 3, wb, attraction, a-b-da, 2, 1, 4, 14, 135, 60, 60, 135, 134, 59, 2, 0.663554
206, 3, wb, attraction, a-b-da, 2, 1, 4, 14, 135, 60, 60, 135, 134, 59, 1, 0.483981
206, 3, wb, filler, NA, 999, 999, 4, 15, 70, 132, 189, 154, 116, 81, 1, 1.35051
206, 3, wb, filler, NA, 999, 999, 4, 15, 70, 132, 189, 154, 116, 81, 2, 0.775297
206, 3, wb, catch, NA, 999, 999, 4, 16, 149, 166, 155, 100, 60, 135, 3, 1.21363
206, 3, wb, catch, NA, 999, 999, 4, 16, 149, 166, 155, 100, 60, 135, 1, 0.347962
206, 3, wb, attraction, a-b-da, 9, 1, 4, 17, 129, 57, 60, 135, 135, 60, 1, 1.19577
206, 3, wb, attraction, a-b-da, 9, 1, 4, 17, 129, 57, 60, 135, 135, 60, 3, 0.570758
206, 3, wb, attraction, a-b-da, 14, 1, 4, 18, 125, 56, 135, 60, 60, 135, 2, 0.617812
206, 3, wb, attraction, a-b-da, 14, 1, 4, 18, 125, 56, 135, 60, 60, 135, 1, 0.368295
206, 3, wb, filler, NA, 999, 999, 4, 19, 57, 119, 177, 56, 183, 119, 1, 1.07135
206, 3, wb, filler, NA, 999, 999, 4, 19, 57, 119, 177, 56, 183, 119, 3, 0.331683
206, 3, wb, catch, NA, 999, 999, 4, 20, 189, 126, 106, 149, 81, 114, 3, 0.812303
206, 3, wb, catch, NA, 999, 999, 4, 20, 189, 126, 106, 149, 81, 114, 1, 0.402593
206, 3, wb, attraction, a-b-db, 9, 2, 4, 21, 86, 157, 90, 165, 165, 90, 1, 0.728393
206, 3, wb, attraction, a-b-db, 9, 2, 4, 21, 86, 157, 90, 165, 165, 90, 3, 0.386156
206, 3, wb, filler, NA, 999, 999, 4, 22, 119, 58, 149, 81, 161, 120, 1, 0.704683
206, 3, wb, filler, NA, 999, 999, 4, 22, 119, 58, 149, 81, 161, 120, 3, 0.347802
206, 3, wb, filler, NA, 999, 999, 4, 23, 56, 61, 190, 70, 133, 193, 1, 0.571581
206, 3, wb, filler, NA, 999, 999, 4, 23, 56, 61, 190, 70, 133, 193, 3, 0.299399
206, 3, wb, attraction, a-b-da, 5, 2, 4, 24, 161, 88, 90, 165, 165, 90, 3, 0.81326
206, 3, wb, attraction, a-b-da, 5, 2, 4, 24, 161, 88, 90, 165, 165, 90, 1, 0.971687
206, 3, wb, attraction, a-b-db, 14, 1, 4, 25, 60, 135, 56, 125, 135, 60, 3, 1.39461
206, 3, wb, attraction, a-b-db, 14, 1, 4, 25, 60, 135, 56, 125, 135, 60, 1, 0.425454
206, 3, wb, filler, NA, 999, 999, 4, 26, 146, 59, 145, 110, 139, 178, 1, 0.893897
206, 3, wb, filler, NA, 999, 999, 4, 26, 146, 59, 145, 110, 139, 178, 3, 0.29698
206, 3, wb, attraction, a-b-da, 9, 3, 4, 27, 120, 195, 186, 114, 195, 120, 1, 1.00275
206, 3, wb, attraction, a-b-da, 9, 3, 4, 27, 120, 195, 186, 114, 195, 120, 3, 0.401812
206, 3, wb, attraction, a-b-db, 2, 2, 4, 28, 90, 165, 165, 90, 89, 163, 2, 1.71969
206, 3, wb, attraction, a-b-db, 2, 2, 4, 28, 90, 165, 165, 90, 89, 163, 1, 0.337739
206, 3, wb, attraction, a-b-db, 2, 1, 4, 29, 135, 60, 59, 134, 60, 135, 1, 1.00217
206, 3, wb, attraction, a-b-db, 2, 1, 4, 29, 135, 60, 59, 134, 60, 135, 3, 0.577238
206, 3, wb, filler, NA, 999, 999, 4, 30, 144, 172, 151, 103, 56, 123, 3, 0.655578
206, 3, wb, filler, NA, 999, 999, 4, 30, 144, 172, 151, 103, 56, 123, 1, 0.332023
206, 3, wb, attraction, a-b-da, 5, 3, 4, 31, 120, 195, 195, 120, 190, 117, 2, 1.19658
206, 3, wb, attraction, a-b-da, 5, 3, 4, 31, 120, 195, 195, 120, 190, 117, 1, 0.339518
206, 3, wb, filler, NA, 999, 999, 4, 32, 107, 185, 120, 166, 105, 169, 3, 1.684
206, 3, wb, filler, NA, 999, 999, 4, 32, 107, 185, 120, 166, 105, 169, 2, 0.375479
206, 3, wb, attraction, a-b-db, 5, 2, 4, 33, 90, 165, 165, 90, 88, 161, 3, 0.581955
206, 3, wb, attraction, a-b-db, 5, 2, 4, 33, 90, 165, 165, 90, 88, 161, 2, 0.333712
206, 3, wb, attraction, a-b-db, 5, 1, 4, 34, 58, 132, 135, 60, 60, 135, 1, 0.558242
206, 3, wb, attraction, a-b-db, 5, 1, 4, 34, 58, 132, 135, 60, 60, 135, 2, 0.382791
206, 3, wb, filler, NA, 999, 999, 4, 35, 96, 137, 104, 94, 180, 150, 2, 1.10929
206, 3, wb, filler, NA, 999, 999, 4, 35, 96, 137, 104, 94, 180, 150, 3, 0.343652
206, 3, wb, attraction, a-b-db, 2, 3, 4, 36, 195, 120, 120, 195, 119, 193, 1, 1.39937
206, 3, wb, attraction, a-b-db, 2, 3, 4, 36, 195, 120, 120, 195, 119, 193, 2, 0.630215
206, 3, wb, attraction, a-b-db, 5, 3, 4, 37, 117, 190, 195, 120, 120, 195, 3, 0.842648
206, 3, wb, attraction, a-b-db, 5, 3, 4, 37, 117, 190, 195, 120, 120, 195, 2, 0.255712
206, 3, wb, filler, NA, 999, 999, 5, 1, 64, 173, 188, 189, 127, 194, 1, 7.15343
206, 3, wb, filler, NA, 999, 999, 5, 1, 64, 173, 188, 189, 127, 194, 2, 0.272629
206, 3, wb, attraction, a-b-da, 9, 1, 5, 2, 135, 60, 60, 135, 129, 57, 3, 0.875741
206, 3, wb, attraction, a-b-da, 9, 1, 5, 2, 135, 60, 60, 135, 129, 57, 2, 0.351443
206, 3, wb, attraction, a-b-db, 2, 3, 5, 3, 119, 193, 120, 195, 195, 120, 1, 1.62321
206, 3, wb, attraction, a-b-db, 2, 3, 5, 3, 119, 193, 120, 195, 195, 120, 2, 0.220839
206, 3, wb, attraction, a-b-da, 9, 2, 5, 4, 165, 90, 90, 165, 157, 86, 3, 0.769866
206, 3, wb, attraction, a-b-da, 9, 2, 5, 4, 165, 90, 90, 165, 157, 86, 2, 1.01038
206, 3, wb, attraction, a-b-da, 14, 1, 5, 5, 125, 56, 135, 60, 60, 135, 3, 0.863494
206, 3, wb, attraction, a-b-da, 14, 1, 5, 5, 125, 56, 135, 60, 60, 135, 2, 0.307599
206, 3, wb, attraction, a-b-da, 9, 3, 5, 6, 195, 120, 186, 114, 120, 195, 3, 0.484977
206, 3, wb, attraction, a-b-da, 9, 3, 5, 6, 195, 120, 186, 114, 120, 195, 2, 0.41679
206, 3, wb, filler, NA, 999, 999, 5, 7, 182, 95, 105, 60, 87, 60, 3, 0.52585
206, 3, wb, filler, NA, 999, 999, 5, 7, 182, 95, 105, 60, 87, 60, 1, 0.311677
206, 3, wb, attraction, a-b-da, 2, 2, 5, 8, 90, 165, 165, 90, 163, 89, 1, 0.728764
206, 3, wb, attraction, a-b-da, 2, 2, 5, 8, 90, 165, 165, 90, 163, 89, 2, 0.4186
206, 3, wb, filler, NA, 999, 999, 5, 9, 185, 125, 180, 151, 73, 59, 3, 0.503661
206, 3, wb, filler, NA, 999, 999, 5, 9, 185, 125, 180, 151, 73, 59, 2, 0.418789
206, 3, wb, attraction, a-b-db, 2, 2, 5, 10, 89, 163, 90, 165, 165, 90, 2, 0.824016
206, 3, wb, attraction, a-b-db, 2, 2, 5, 10, 89, 163, 90, 165, 165, 90, 3, 0.893705
206, 3, wb, catch, NA, 999, 999, 5, 11, 120, 135, 103, 92, 135, 180, 2, 0.767392
206, 3, wb, catch, NA, 999, 999, 5, 11, 120, 135, 103, 92, 135, 180, 3, 0.287867
206, 3, wb, attraction, a-b-da, 2, 1, 5, 12, 134, 59, 135, 60, 60, 135, 3, 1.39424
206, 3, wb, attraction, a-b-da, 2, 1, 5, 12, 134, 59, 135, 60, 60, 135, 2, 1.0253
206, 3, wb, attraction, a-b-db, 9, 2, 5, 13, 86, 157, 90, 165, 165, 90, 2, 0.989489
206, 3, wb, attraction, a-b-db, 9, 2, 5, 13, 86, 157, 90, 165, 165, 90, 3, 0.356559
206, 3, wb, filler, NA, 999, 999, 5, 14, 112, 81, 135, 84, 117, 89, 1, 0.691633
206, 3, wb, filler, NA, 999, 999, 5, 14, 112, 81, 135, 84, 117, 89, 2, 0.622653
206, 3, wb, filler, NA, 999, 999, 5, 15, 67, 59, 168, 176, 78, 104, 1, 0.755771
206, 3, wb, filler, NA, 999, 999, 5, 15, 67, 59, 168, 176, 78, 104, 2, 0.332183
206, 3, wb, attraction, a-b-db, 2, 1, 5, 16, 60, 135, 59, 134, 135, 60, 3, 0.764798
206, 3, wb, attraction, a-b-db, 2, 1, 5, 16, 60, 135, 59, 134, 135, 60, 2, 0.485038
206, 3, wb, catch, NA, 999, 999, 5, 17, 112, 143, 68, 127, 176, 139, 2, 0.83156
206, 3, wb, catch, NA, 999, 999, 5, 17, 112, 143, 68, 127, 176, 139, 3, 0.43724
206, 3, wb, attraction, a-b-da, 5, 1, 5, 18, 132, 58, 60, 135, 135, 60, 1, 0.849721
206, 3, wb, attraction, a-b-da, 5, 1, 5, 18, 132, 58, 60, 135, 135, 60, 2, 0.37469
206, 3, wb, attraction, a-b-da, 5, 3, 5, 19, 190, 117, 120, 195, 195, 120, 1, 1.10124
206, 3, wb, attraction, a-b-da, 5, 3, 5, 19, 190, 117, 120, 195, 195, 120, 2, 0.517024
206, 3, wb, filler, NA, 999, 999, 5, 20, 105, 59, 169, 158, 108, 79, 1, 0.969358
206, 3, wb, filler, NA, 999, 999, 5, 20, 105, 59, 169, 158, 108, 79, 2, 0.305864
206, 3, wb, attraction, a-b-da, 14, 3, 5, 21, 120, 195, 181, 111, 195, 120, 2, 0.883557
206, 3, wb, attraction, a-b-da, 14, 3, 5, 21, 120, 195, 181, 111, 195, 120, 1, 0.783265
206, 3, wb, attraction, a-b-db, 5, 2, 5, 22, 165, 90, 90, 165, 88, 161, 1, 0.933559
206, 3, wb, attraction, a-b-db, 5, 2, 5, 22, 165, 90, 90, 165, 88, 161, 2, 0.367252
206, 3, wb, attraction, a-b-db, 14, 1, 5, 23, 56, 125, 135, 60, 60, 135, 1, 1.76637
206, 3, wb, attraction, a-b-db, 14, 1, 5, 23, 56, 125, 135, 60, 60, 135, 2, 0.506725
206, 3, wb, attraction, a-b-db, 14, 3, 5, 24, 120, 195, 195, 120, 111, 181, 1, 0.639717
206, 3, wb, attraction, a-b-db, 14, 3, 5, 24, 120, 195, 195, 120, 111, 181, 2, 0.932851
206, 3, wb, attraction, a-b-da, 5, 2, 5, 25, 161, 88, 165, 90, 90, 165, 2, 0.941164
206, 3, wb, attraction, a-b-da, 5, 2, 5, 25, 161, 88, 165, 90, 90, 165, 1, 0.398001
206, 3, wb, attraction, a-b-db, 14, 2, 5, 26, 165, 90, 83, 153, 90, 165, 1, 1.24404
206, 3, wb, attraction, a-b-db, 14, 2, 5, 26, 165, 90, 83, 153, 90, 165, 3, 0.464872
206, 3, wb, filler, NA, 999, 999, 5, 27, 87, 176, 86, 77, 175, 97, 2, 0.835912
206, 3, wb, filler, NA, 999, 999, 5, 27, 87, 176, 86, 77, 175, 97, 1, 0.561658
206, 3, wb, catch, NA, 999, 999, 5, 28, 159, 156, 99, 156, 82, 113, 3, 0.728828
206, 3, wb, catch, NA, 999, 999, 5, 28, 159, 156, 99, 156, 82, 113, 1, 0.722484
206, 3, wb, attraction, a-b-db, 9, 1, 5, 29, 60, 135, 135, 60, 57, 129, 3, 0.771651
206, 3, wb, attraction, a-b-db, 9, 1, 5, 29, 60, 135, 135, 60, 57, 129, 2, 0.563282
206, 3, wb, attraction, a-b-da, 2, 3, 5, 30, 195, 120, 193, 119, 120, 195, 2, 1.41841
206, 3, wb, attraction, a-b-da, 2, 3, 5, 30, 195, 120, 193, 119, 120, 195, 3, 0.600623
206, 3, wb, attraction, a-b-da, 14, 2, 5, 31, 165, 90, 153, 83, 90, 165, 3, 0.84628
206, 3, wb, attraction, a-b-da, 14, 2, 5, 31, 165, 90, 153, 83, 90, 165, 2, 0.571435
206, 3, wb, filler, NA, 999, 999, 5, 32, 140, 62, 90, 129, 159, 147, 1, 0.834402
206, 3, wb, filler, NA, 999, 999, 5, 32, 140, 62, 90, 129, 159, 147, 3, 0.191123
206, 3, wb, filler, NA, 999, 999, 5, 33, 61, 78, 85, 112, 152, 193, 1, 1.08608
206, 3, wb, filler, NA, 999, 999, 5, 33, 61, 78, 85, 112, 152, 193, 3, 0.305646
206, 3, wb, attraction, a-b-db, 5, 1, 5, 34, 135, 60, 58, 132, 60, 135, 3, 0.867676
206, 3, wb, attraction, a-b-db, 5, 1, 5, 34, 135, 60, 58, 132, 60, 135, 1, 0.767988
206, 3, wb, attraction, a-b-db, 5, 3, 5, 35, 120, 195, 117, 190, 195, 120, 3, 0.78294
206, 3, wb, attraction, a-b-db, 5, 3, 5, 35, 120, 195, 117, 190, 195, 120, 1, 0.390724
206, 3, wb, filler, NA, 999, 999, 5, 36, 151, 168, 130, 75, 100, 168, 2, 1.33254
206, 3, wb, filler, NA, 999, 999, 5, 36, 151, 168, 130, 75, 100, 168, 1, 0.318059
206, 3, wb, attraction, a-b-db, 9, 3, 5, 37, 195, 120, 114, 186, 120, 195, 2, 0.655197
206, 3, wb, attraction, a-b-db, 9, 3, 5, 37, 195, 120, 114, 186, 120, 195, 1, 0.755808
206, 3, wb, attraction, a-b-da, 14, 2, 6, 1, 90, 165, 153, 83, 165, 90, 2, 0.739471
206, 3, wb, attraction, a-b-da, 14, 2, 6, 1, 90, 165, 153, 83, 165, 90, 1, 0.412413
206, 3, wb, filler, NA, 999, 999, 6, 2, 177, 193, 106, 102, 92, 73, 3, 0.905655
206, 3, wb, filler, NA, 999, 999, 6, 2, 177, 193, 106, 102, 92, 73, 1, 0.364039
206, 3, wb, attraction, a-b-db, 14, 2, 6, 3, 83, 153, 90, 165, 165, 90, 1, 0.851152
206, 3, wb, attraction, a-b-db, 14, 2, 6, 3, 83, 153, 90, 165, 165, 90, 2, 0.856202
206, 3, wb, attraction, a-b-db, 5, 1, 6, 4, 58, 132, 60, 135, 135, 60, 3, 1.11585
206, 3, wb, attraction, a-b-db, 5, 1, 6, 4, 58, 132, 60, 135, 135, 60, 1, 0.510294
206, 3, wb, attraction, a-b-db, 2, 2, 6, 5, 165, 90, 89, 163, 90, 165, 1, 0.983344
206, 3, wb, attraction, a-b-db, 2, 2, 6, 5, 165, 90, 89, 163, 90, 165, 2, 0.398845
206, 3, wb, filler, NA, 999, 999, 6, 6, 157, 176, 184, 158, 179, 173, 2, 2.68464
206, 3, wb, filler, NA, 999, 999, 6, 6, 157, 176, 184, 158, 179, 173, 1, 0.42383
206, 3, wb, catch, NA, 999, 999, 6, 7, 98, 97, 160, 95, 143, 172, 1, 0.740294
206, 3, wb, catch, NA, 999, 999, 6, 7, 98, 97, 160, 95, 143, 172, 3, 0.469344
206, 3, wb, attraction, a-b-db, 5, 2, 6, 8, 90, 165, 88, 161, 165, 90, 3, 2.48861
206, 3, wb, attraction, a-b-db, 5, 2, 6, 8, 90, 165, 88, 161, 165, 90, 1, 0.419735
206, 3, wb, attraction, a-b-da, 2, 3, 6, 9, 195, 120, 120, 195, 193, 119, 1, 1.10487
206, 3, wb, attraction, a-b-da, 2, 3, 6, 9, 195, 120, 120, 195, 193, 119, 2, 0.347833
206, 3, wb, attraction, a-b-da, 2, 1, 6, 10, 60, 135, 135, 60, 134, 59, 3, 0.65972
206, 3, wb, attraction, a-b-da, 2, 1, 6, 10, 60, 135, 135, 60, 134, 59, 1, 0.408088
206, 3, wb, attraction, a-b-da, 5, 1, 6, 11, 132, 58, 135, 60, 60, 135, 3, 0.573196
206, 3, wb, attraction, a-b-da, 5, 1, 6, 11, 132, 58, 135, 60, 60, 135, 2, 0.381098
206, 3, wb, attraction, a-b-db, 2, 3, 6, 12, 119, 193, 120, 195, 195, 120, 3, 0.595589
206, 3, wb, attraction, a-b-db, 2, 3, 6, 12, 119, 193, 120, 195, 195, 120, 2, 0.362651
206, 3, wb, attraction, a-b-da, 14, 3, 6, 13, 181, 111, 195, 120, 120, 195, 1, 1.27369
206, 3, wb, attraction, a-b-da, 14, 3, 6, 13, 181, 111, 195, 120, 120, 195, 2, 0.381434
206, 3, wb, attraction, a-b-da, 2, 2, 6, 14, 90, 165, 165, 90, 163, 89, 1, 0.667888
206, 3, wb, attraction, a-b-da, 2, 2, 6, 14, 90, 165, 165, 90, 163, 89, 2, 0.360218
206, 3, wb, filler, NA, 999, 999, 6, 15, 132, 98, 133, 135, 106, 189, 1, 0.679457
206, 3, wb, filler, NA, 999, 999, 6, 15, 132, 98, 133, 135, 106, 189, 2, 0.787255
206, 3, wb, attraction, a-b-db, 2, 1, 6, 16, 135, 60, 60, 135, 59, 134, 1, 1.03361
206, 3, wb, attraction, a-b-db, 2, 1, 6, 16, 135, 60, 60, 135, 59, 134, 2, 0.439188
206, 3, wb, attraction, a-b-db, 14, 3, 6, 17, 120, 195, 111, 181, 195, 120, 3, 1.02785
206, 3, wb, attraction, a-b-db, 14, 3, 6, 17, 120, 195, 111, 181, 195, 120, 1, 0.449351
206, 3, wb, attraction, a-b-db, 9, 3, 6, 18, 195, 120, 120, 195, 114, 186, 1, 0.789135
206, 3, wb, attraction, a-b-db, 9, 3, 6, 18, 195, 120, 120, 195, 114, 186, 2, 0.444183
206, 3, wb, catch, NA, 999, 999, 6, 19, 128, 67, 101, 154, 126, 189, 1, 0.584101
206, 3, wb, catch, NA, 999, 999, 6, 19, 128, 67, 101, 154, 126, 189, 2, 0.415779
206, 3, wb, attraction, a-b-da, 5, 3, 6, 20, 120, 195, 195, 120, 190, 117, 3, 0.844982
206, 3, wb, attraction, a-b-da, 5, 3, 6, 20, 120, 195, 195, 120, 190, 117, 1, 0.626063
206, 3, wb, attraction, a-b-da, 14, 1, 6, 21, 60, 135, 135, 60, 125, 56, 3, 0.64642
206, 3, wb, attraction, a-b-da, 14, 1, 6, 21, 60, 135, 135, 60, 125, 56, 1, 0.411494
206, 3, wb, attraction, a-b-da, 9, 1, 6, 22, 60, 135, 135, 60, 129, 57, 3, 0.512736
206, 3, wb, attraction, a-b-da, 9, 1, 6, 22, 60, 135, 135, 60, 129, 57, 1, 0.427099
206, 3, wb, attraction, a-b-db, 5, 3, 6, 23, 195, 120, 117, 190, 120, 195, 3, 0.951683
206, 3, wb, attraction, a-b-db, 5, 3, 6, 23, 195, 120, 117, 190, 120, 195, 2, 0.448615
206, 3, wb, attraction, a-b-db, 14, 1, 6, 24, 56, 125, 60, 135, 135, 60, 1, 1.17264
206, 3, wb, attraction, a-b-db, 14, 1, 6, 24, 56, 125, 60, 135, 135, 60, 3, 0.948063
206, 3, wb, catch, NA, 999, 999, 6, 25, 99, 96, 168, 147, 110, 145, 1, 0.803749
206, 3, wb, catch, NA, 999, 999, 6, 25, 99, 96, 168, 147, 110, 145, 2, 0.346733
206, 3, wb, filler, NA, 999, 999, 6, 26, 129, 73, 180, 183, 86, 165, 3, 1.1066
206, 3, wb, filler, NA, 999, 999, 6, 26, 129, 73, 180, 183, 86, 165, 2, 0.292897
206, 3, wb, filler, NA, 999, 999, 6, 27, 149, 58, 185, 162, 191, 118, 3, 0.894926
206, 3, wb, filler, NA, 999, 999, 6, 27, 149, 58, 185, 162, 191, 118, 2, 0.329759
206, 3, wb, filler, NA, 999, 999, 6, 28, 177, 159, 111, 77, 153, 70, 2, 1.15426
206, 3, wb, filler, NA, 999, 999, 6, 28, 177, 159, 111, 77, 153, 70, 1, 0.322606
206, 3, wb, filler, NA, 999, 999, 6, 29, 169, 167, 121, 62, 138, 161, 2, 0.643698
206, 3, wb, filler, NA, 999, 999, 6, 29, 169, 167, 121, 62, 138, 161, 1, 0.368874
206, 3, wb, attraction, a-b-da, 9, 2, 6, 30, 157, 86, 165, 90, 90, 165, 1, 1.18396
206, 3, wb, attraction, a-b-da, 9, 2, 6, 30, 157, 86, 165, 90, 90, 165, 2, 0.36751
206, 3, wb, attraction, a-b-db, 9, 1, 6, 31, 135, 60, 57, 129, 60, 135, 3, 0.702696
206, 3, wb, attraction, a-b-db, 9, 1, 6, 31, 135, 60, 57, 129, 60, 135, 2, 0.385755
206, 3, wb, filler, NA, 999, 999, 6, 32, 193, 109, 93, 59, 68, 70, 2, 0.880305
206, 3, wb, filler, NA, 999, 999, 6, 32, 193, 109, 93, 59, 68, 70, 1, 0.33198
206, 3, wb, filler, NA, 999, 999, 6, 33, 153, 112, 107, 101, 74, 57, 3, 3.90048
206, 3, wb, filler, NA, 999, 999, 6, 33, 153, 112, 107, 101, 74, 57, 1, 0.862663
206, 3, wb, attraction, a-b-da, 5, 2, 6, 34, 165, 90, 90, 165, 161, 88, 1, 0.929632
206, 3, wb, attraction, a-b-da, 5, 2, 6, 34, 165, 90, 90, 165, 161, 88, 2, 0.771636
206, 3, wb, attraction, a-b-db, 9, 2, 6, 35, 165, 90, 86, 157, 90, 165, 2, 0.618341
206, 3, wb, attraction, a-b-db, 9, 2, 6, 35, 165, 90, 86, 157, 90, 165, 1, 0.368924
206, 3, wb, filler, NA, 999, 999, 6, 36, 195, 167, 130, 56, 62, 60, 3, 0.952096
206, 3, wb, filler, NA, 999, 999, 6, 36, 195, 167, 130, 56, 62, 60, 1, 0.345045
206, 3, wb, attraction, a-b-da, 9, 3, 6, 37, 195, 120, 120, 195, 186, 114, 3, 1.20885
206, 3, wb, attraction, a-b-da, 9, 3, 6, 37, 195, 120, 120, 195, 186, 114, 2, 0.294938
206, 3, wb, attraction, a-b-db, 9, 3, 7, 1, 114, 186, 120, 195, 195, 120, 3, 1.80887
206, 3, wb, attraction, a-b-db, 9, 3, 7, 1, 114, 186, 120, 195, 195, 120, 2, 0.510976
206, 3, wb, catch, NA, 999, 999, 7, 2, 129, 186, 117, 138, 67, 128, 3, 0.648097
206, 3, wb, catch, NA, 999, 999, 7, 2, 129, 186, 117, 138, 67, 128, 1, 0.421161
206, 3, wb, filler, NA, 999, 999, 7, 3, 194, 113, 95, 65, 95, 69, 2, 0.810333
206, 3, wb, filler, NA, 999, 999, 7, 3, 194, 113, 95, 65, 95, 69, 1, 0.720681
206, 3, wb, filler, NA, 999, 999, 7, 4, 157, 110, 84, 108, 135, 133, 2, 0.72172
206, 3, wb, filler, NA, 999, 999, 7, 4, 157, 110, 84, 108, 135, 133, 1, 0.459568
206, 3, wb, attraction, a-b-da, 9, 2, 7, 5, 90, 165, 165, 90, 157, 86, 3, 1.54259
206, 3, wb, attraction, a-b-da, 9, 2, 7, 5, 90, 165, 165, 90, 157, 86, 2, 0.327384
206, 3, wb, catch, NA, 999, 999, 7, 6, 77, 118, 192, 123, 155, 100, 1, 0.98404
206, 3, wb, catch, NA, 999, 999, 7, 6, 77, 118, 192, 123, 155, 100, 2, 0.383658
206, 3, wb, filler, NA, 999, 999, 7, 7, 107, 143, 100, 170, 118, 131, 1, 1.76617
206, 3, wb, filler, NA, 999, 999, 7, 7, 107, 143, 100, 170, 118, 131, 2, 0.438274
206, 3, wb, attraction, a-b-db, 14, 3, 7, 8, 120, 195, 111, 181, 195, 120, 2, 0.818782
206, 3, wb, attraction, a-b-db, 14, 3, 7, 8, 120, 195, 111, 181, 195, 120, 1, 0.321002
206, 3, wb, attraction, a-b-db, 14, 2, 7, 9, 165, 90, 90, 165, 83, 153, 3, 0.706316
206, 3, wb, attraction, a-b-db, 14, 2, 7, 9, 165, 90, 90, 165, 83, 153, 2, 0.39669
206, 3, wb, attraction, a-b-da, 9, 3, 7, 10, 120, 195, 195, 120, 186, 114, 3, 0.562417
206, 3, wb, attraction, a-b-da, 9, 3, 7, 10, 120, 195, 195, 120, 186, 114, 2, 0.722926
206, 3, wb, filler, NA, 999, 999, 7, 11, 169, 110, 159, 61, 162, 118, 2, 0.876036
206, 3, wb, filler, NA, 999, 999, 7, 11, 169, 110, 159, 61, 162, 118, 1, 0.455682
206, 3, wb, attraction, a-b-da, 14, 3, 7, 12, 120, 195, 195, 120, 181, 111, 3, 0.955507
206, 3, wb, attraction, a-b-da, 14, 3, 7, 12, 120, 195, 195, 120, 181, 111, 2, 0.395851
206, 3, wb, attraction, a-b-db, 9, 1, 7, 13, 135, 60, 57, 129, 60, 135, 3, 1.08971
206, 3, wb, attraction, a-b-db, 9, 1, 7, 13, 135, 60, 57, 129, 60, 135, 1, 2.19662
206, 3, wb, attraction, a-b-da, 14, 2, 7, 14, 153, 83, 90, 165, 165, 90, 1, 2.64196
206, 3, wb, attraction, a-b-da, 14, 2, 7, 14, 153, 83, 90, 165, 165, 90, 2, 0.358443
206, 3, wb, attraction, a-b-da, 2, 1, 7, 15, 60, 135, 134, 59, 135, 60, 1, 0.821493
206, 3, wb, attraction, a-b-da, 2, 1, 7, 15, 60, 135, 134, 59, 135, 60, 2, 0.315252
206, 3, wb, attraction, a-b-da, 2, 3, 7, 16, 195, 120, 193, 119, 120, 195, 3, 0.532344
206, 3, wb, attraction, a-b-da, 2, 3, 7, 16, 195, 120, 193, 119, 120, 195, 2, 0.646197
206, 3, wb, attraction, a-b-db, 5, 3, 7, 17, 195, 120, 117, 190, 120, 195, 2, 1.20192
206, 3, wb, attraction, a-b-db, 5, 3, 7, 17, 195, 120, 117, 190, 120, 195, 1, 0.320927
206, 3, wb, filler, NA, 999, 999, 7, 18, 150, 79, 155, 123, 172, 173, 1, 1.56199
206, 3, wb, filler, NA, 999, 999, 7, 18, 150, 79, 155, 123, 172, 173, 3, 0.634184
206, 3, wb, filler, NA, 999, 999, 7, 19, 157, 94, 113, 75, 74, 155, 2, 0.822638
206, 3, wb, filler, NA, 999, 999, 7, 19, 157, 94, 113, 75, 74, 155, 1, 0.356375
206, 3, wb, attraction, a-b-db, 5, 2, 7, 20, 90, 165, 88, 161, 165, 90, 3, 0.675493
206, 3, wb, attraction, a-b-db, 5, 2, 7, 20, 90, 165, 88, 161, 165, 90, 1, 0.607251
206, 3, wb, filler, NA, 999, 999, 7, 21, 100, 137, 70, 142, 176, 118, 2, 0.636304
206, 3, wb, filler, NA, 999, 999, 7, 21, 100, 137, 70, 142, 176, 118, 3, 0.314133
206, 3, wb, filler, NA, 999, 999, 7, 22, 177, 146, 127, 158, 147, 57, 3, 0.747207
206, 3, wb, filler, NA, 999, 999, 7, 22, 177, 146, 127, 158, 147, 57, 1, 0.716515
206, 3, wb, attraction, a-b-db, 5, 1, 7, 23, 60, 135, 135, 60, 58, 132, 2, 0.757451
206, 3, wb, attraction, a-b-db, 5, 1, 7, 23, 60, 135, 135, 60, 58, 132, 1, 0.357807
206, 3, wb, filler, NA, 999, 999, 7, 24, 171, 156, 108, 174, 133, 121, 3, 0.588959
206, 3, wb, filler, NA, 999, 999, 7, 24, 171, 156, 108, 174, 133, 121, 1, 0.404106
206, 3, wb, attraction, a-b-db, 2, 3, 7, 25, 120, 195, 119, 193, 195, 120, 1, 1.42589
206, 3, wb, attraction, a-b-db, 2, 3, 7, 25, 120, 195, 119, 193, 195, 120, 2, 0.439409
206, 3, wb, attraction, a-b-db, 14, 1, 7, 26, 56, 125, 135, 60, 60, 135, 1, 0.747877
206, 3, wb, attraction, a-b-db, 14, 1, 7, 26, 56, 125, 135, 60, 60, 135, 2, 0.452976
206, 3, wb, attraction, a-b-da, 2, 2, 7, 27, 163, 89, 165, 90, 90, 165, 1, 0.768747
206, 3, wb, attraction, a-b-da, 2, 2, 7, 27, 163, 89, 165, 90, 90, 165, 2, 0.561195
206, 3, wb, attraction, a-b-db, 2, 1, 7, 28, 135, 60, 60, 135, 59, 134, 1, 1.71223
206, 3, wb, attraction, a-b-db, 2, 1, 7, 28, 135, 60, 60, 135, 59, 134, 2, 1.17842
206, 3, wb, catch, NA, 999, 999, 7, 29, 124, 71, 175, 140, 164, 91, 1, 0.696616
206, 3, wb, catch, NA, 999, 999, 7, 29, 124, 71, 175, 140, 164, 91, 2, 0.395735
206, 3, wb, attraction, a-b-da, 5, 2, 7, 30, 165, 90, 90, 165, 161, 88, 1, 1.17746
206, 3, wb, attraction, a-b-da, 5, 2, 7, 30, 165, 90, 90, 165, 161, 88, 2, 0.681266
206, 3, wb, attraction, a-b-da, 9, 1, 7, 31, 129, 57, 135, 60, 60, 135, 1, 1.09158
206, 3, wb, attraction, a-b-da, 9, 1, 7, 31, 129, 57, 135, 60, 60, 135, 2, 0.558524
206, 3, wb, attraction, a-b-da, 14, 1, 7, 32, 125, 56, 60, 135, 135, 60, 3, 1.06165
206, 3, wb, attraction, a-b-da, 14, 1, 7, 32, 125, 56, 60, 135, 135, 60, 2, 0.898004
206, 3, wb, filler, NA, 999, 999, 7, 33, 61, 141, 191, 116, 63, 168, 1, 1.66774
206, 3, wb, filler, NA, 999, 999, 7, 33, 61, 141, 191, 116, 63, 168, 2, 0.679667
206, 3, wb, attraction, a-b-da, 5, 1, 7, 34, 135, 60, 132, 58, 60, 135, 3, 2.17007
206, 3, wb, attraction, a-b-da, 5, 1, 7, 34, 135, 60, 132, 58, 60, 135, 2, 0.778094
206, 3, wb, attraction, a-b-da, 5, 3, 7, 35, 120, 195, 195, 120, 190, 117, 1, 0.960391
206, 3, wb, attraction, a-b-da, 5, 3, 7, 35, 120, 195, 195, 120, 190, 117, 2, 0.376691
206, 3, wb, attraction, a-b-db, 2, 2, 7, 36, 165, 90, 89, 163, 90, 165, 1, 1.33523
206, 3, wb, attraction, a-b-db, 2, 2, 7, 36, 165, 90, 89, 163, 90, 165, 2, 0.744771
206, 3, wb, attraction, a-b-db, 9, 2, 7, 37, 90, 165, 165, 90, 86, 157, 2, 1.08057
206, 3, wb, attraction, a-b-db, 9, 2, 7, 37, 90, 165, 165, 90, 86, 157, 1, 0.724242
206, 3, wb, catch, NA, 999, 999, 8, 1, 130, 185, 74, 121, 95, 160, 2, 1.54058
206, 3, wb, catch, NA, 999, 999, 8, 1, 130, 185, 74, 121, 95, 160, 1, 0.325359
206, 3, wb, attraction, a-b-db, 5, 3, 8, 2, 120, 195, 195, 120, 117, 190, 3, 0.717884
206, 3, wb, attraction, a-b-db, 5, 3, 8, 2, 120, 195, 195, 120, 117, 190, 2, 0.272377
206, 3, wb, attraction, a-b-db, 14, 2, 8, 3, 165, 90, 83, 153, 90, 165, 1, 0.779483
206, 3, wb, attraction, a-b-db, 14, 2, 8, 3, 165, 90, 83, 153, 90, 165, 2, 0.331316
206, 3, wb, attraction, a-b-da, 2, 3, 8, 4, 195, 120, 193, 119, 120, 195, 2, 0.515694
206, 3, wb, attraction, a-b-da, 2, 3, 8, 4, 195, 120, 193, 119, 120, 195, 1, 0.390179
206, 3, wb, filler, NA, 999, 999, 8, 5, 181, 166, 76, 120, 181, 136, 2, 0.620086
206, 3, wb, filler, NA, 999, 999, 8, 5, 181, 166, 76, 120, 181, 136, 1, 0.569811
206, 3, wb, attraction, a-b-db, 9, 3, 8, 6, 195, 120, 120, 195, 114, 186, 1, 0.944887
206, 3, wb, attraction, a-b-db, 9, 3, 8, 6, 195, 120, 120, 195, 114, 186, 2, 0.825844
206, 3, wb, filler, NA, 999, 999, 8, 7, 100, 75, 188, 140, 135, 107, 1, 1.35823
206, 3, wb, filler, NA, 999, 999, 8, 7, 100, 75, 188, 140, 135, 107, 2, 0.326493
206, 3, wb, filler, NA, 999, 999, 8, 8, 120, 78, 179, 92, 174, 123, 1, 0.49491
206, 3, wb, filler, NA, 999, 999, 8, 8, 120, 78, 179, 92, 174, 123, 3, 0.410074
206, 3, wb, attraction, a-b-db, 2, 1, 8, 9, 59, 134, 60, 135, 135, 60, 1, 1.37516
206, 3, wb, attraction, a-b-db, 2, 1, 8, 9, 59, 134, 60, 135, 135, 60, 2, 0.470752
206, 3, wb, filler, NA, 999, 999, 8, 10, 57, 67, 63, 158, 61, 104, 1, 0.937869
206, 3, wb, filler, NA, 999, 999, 8, 10, 57, 67, 63, 158, 61, 104, 2, 0.387009
206, 3, wb, attraction, a-b-da, 9, 1, 8, 11, 135, 60, 60, 135, 129, 57, 1, 0.593428
206, 3, wb, attraction, a-b-da, 9, 1, 8, 11, 135, 60, 60, 135, 129, 57, 2, 0.328592
206, 3, wb, filler, NA, 999, 999, 8, 12, 130, 186, 144, 86, 81, 134, 3, 0.777042
206, 3, wb, filler, NA, 999, 999, 8, 12, 130, 186, 144, 86, 81, 134, 1, 0.528888
206, 3, wb, attraction, a-b-db, 14, 1, 8, 13, 56, 125, 135, 60, 60, 135, 2, 0.945209
206, 3, wb, attraction, a-b-db, 14, 1, 8, 13, 56, 125, 135, 60, 60, 135, 1, 0.314221
206, 3, wb, attraction, a-b-db, 14, 3, 8, 14, 111, 181, 195, 120, 120, 195, 2, 0.587403
206, 3, wb, attraction, a-b-db, 14, 3, 8, 14, 111, 181, 195, 120, 120, 195, 3, 0.3392
206, 3, wb, attraction, a-b-da, 2, 1, 8, 15, 134, 59, 135, 60, 60, 135, 2, 0.63573
206, 3, wb, attraction, a-b-da, 2, 1, 8, 15, 134, 59, 135, 60, 60, 135, 1, 0.348417
206, 3, wb, attraction, a-b-da, 5, 2, 8, 16, 165, 90, 161, 88, 90, 165, 2, 0.665379
206, 3, wb, attraction, a-b-da, 5, 2, 8, 16, 165, 90, 161, 88, 90, 165, 3, 0.341704
206, 3, wb, attraction, a-b-da, 2, 2, 8, 17, 163, 89, 90, 165, 165, 90, 2, 0.437628
206, 3, wb, attraction, a-b-da, 2, 2, 8, 17, 163, 89, 90, 165, 165, 90, 1, 0.738674
206, 3, wb, attraction, a-b-da, 14, 2, 8, 18, 165, 90, 90, 165, 153, 83, 2, 0.627111
206, 3, wb, attraction, a-b-da, 14, 2, 8, 18, 165, 90, 90, 165, 153, 83, 3, 0.106211
206, 3, wb, attraction, a-b-da, 5, 1, 8, 19, 132, 58, 60, 135, 135, 60, 2, 1.25816
206, 3, wb, attraction, a-b-da, 5, 1, 8, 19, 132, 58, 60, 135, 135, 60, 3, 0.95035
206, 3, wb, attraction, a-b-db, 9, 2, 8, 20, 165, 90, 86, 157, 90, 165, 2, 1.82997
206, 3, wb, attraction, a-b-db, 9, 2, 8, 20, 165, 90, 86, 157, 90, 165, 1, 0.547377
206, 3, wb, attraction, a-b-db, 2, 2, 8, 21, 90, 165, 89, 163, 165, 90, 1, 1.56316
206, 3, wb, attraction, a-b-db, 2, 2, 8, 21, 90, 165, 89, 163, 165, 90, 2, 0.299303
206, 3, wb, attraction, a-b-da, 9, 3, 8, 22, 195, 120, 186, 114, 120, 195, 1, 0.725396
206, 3, wb, attraction, a-b-da, 9, 3, 8, 22, 195, 120, 186, 114, 120, 195, 3, 0.470928
206, 3, wb, attraction, a-b-db, 5, 2, 8, 23, 165, 90, 90, 165, 88, 161, 1, 0.722019
206, 3, wb, attraction, a-b-db, 5, 2, 8, 23, 165, 90, 90, 165, 88, 161, 2, 0.53183
206, 3, wb, filler, NA, 999, 999, 8, 24, 156, 170, 132, 125, 117, 187, 2, 1.10833
206, 3, wb, filler, NA, 999, 999, 8, 24, 156, 170, 132, 125, 117, 187, 1, 0.358679
206, 3, wb, attraction, a-b-db, 9, 1, 8, 25, 60, 135, 57, 129, 135, 60, 2, 0.718214
206, 3, wb, attraction, a-b-db, 9, 1, 8, 25, 60, 135, 57, 129, 135, 60, 1, 1.33615
206, 3, wb, filler, NA, 999, 999, 8, 26, 111, 142, 180, 115, 141, 68, 3, 1.08029
206, 3, wb, filler, NA, 999, 999, 8, 26, 111, 142, 180, 115, 141, 68, 2, 0.332094
206, 3, wb, filler, NA, 999, 999, 8, 27, 108, 191, 174, 120, 75, 127, 3, 0.740599
206, 3, wb, filler, NA, 999, 999, 8, 27, 108, 191, 174, 120, 75, 127, 2, 0.405496
206, 3, wb, attraction, a-b-da, 5, 3, 8, 28, 190, 117, 120, 195, 195, 120, 1, 1.1473
206, 3, wb, attraction, a-b-da, 5, 3, 8, 28, 190, 117, 120, 195, 195, 120, 2, 0.756344
206, 3, wb, filler, NA, 999, 999, 8, 29, 118, 165, 161, 124, 150, 176, 1, 0.724079
206, 3, wb, filler, NA, 999, 999, 8, 29, 118, 165, 161, 124, 150, 176, 3, 0.749733
206, 3, wb, attraction, a-b-db, 2, 3, 8, 30, 119, 193, 195, 120, 120, 195, 1, 0.861466
206, 3, wb, attraction, a-b-db, 2, 3, 8, 30, 119, 193, 195, 120, 120, 195, 2, 0.721822
206, 3, wb, attraction, a-b-db, 5, 1, 8, 31, 135, 60, 58, 132, 60, 135, 1, 0.754867
206, 3, wb, attraction, a-b-db, 5, 1, 8, 31, 135, 60, 58, 132, 60, 135, 3, 1.08348
206, 3, wb, filler, NA, 999, 999, 8, 32, 172, 121, 62, 193, 90, 82, 3, 1.90153
206, 3, wb, filler, NA, 999, 999, 8, 32, 172, 121, 62, 193, 90, 82, 1, 0.808271
206, 3, wb, catch, NA, 999, 999, 8, 33, 137, 118, 132, 183, 111, 84, 3, 0.549228
206, 3, wb, catch, NA, 999, 999, 8, 33, 137, 118, 132, 183, 111, 84, 2, 0.510742
206, 3, wb, attraction, a-b-da, 9, 2, 8, 34, 165, 90, 157, 86, 90, 165, 1, 1.54876
206, 3, wb, attraction, a-b-da, 9, 2, 8, 34, 165, 90, 157, 86, 90, 165, 3, 0.512313
206, 3, wb, attraction, a-b-da, 14, 1, 8, 35, 60, 135, 125, 56, 135, 60, 2, 0.793399
206, 3, wb, attraction, a-b-da, 14, 1, 8, 35, 60, 135, 125, 56, 135, 60, 1, 0.416575
206, 3, wb, attraction, a-b-da, 14, 3, 8, 36, 195, 120, 181, 111, 120, 195, 2, 1.90168
206, 3, wb, attraction, a-b-da, 14, 3, 8, 36, 195, 120, 181, 111, 120, 195, 3, 0.616439
206, 3, wb, catch, NA, 999, 999, 8, 37, 195, 120, 149, 106, 101, 94, 3, 0.925564
206, 3, wb, catch, NA, 999, 999, 8, 37, 195, 120, 149, 106, 101, 94, 1, 0.487107
