sub_n, computer_n, bw_cond, effect, set, distance, diag, block_n, trial_n, h1, w1, h2, w2, h3, w3, choice, rt 
231, 3, bw, practice, NA, 999, 999, 0, 1, 126, 164, 72, 148, 113, 187, 1, 13.9043
231, 3, bw, practice, NA, 999, 999, 0, 1, 126, 164, 72, 148, 113, 187, 2, 3.73224
231, 3, bw, practice, NA, 999, 999, 0, 2, 163, 91, 88, 155, 72, 179, 2, 18.9211
231, 3, bw, practice, NA, 999, 999, 0, 2, 163, 91, 88, 155, 72, 179, 3, 6.56612
231, 3, bw, practice, NA, 999, 999, 0, 3, 161, 180, 147, 66, 87, 94, 1, 2.5521
231, 3, bw, practice, NA, 999, 999, 0, 3, 161, 180, 147, 66, 87, 94, 3, 4.01632
231, 3, bw, attraction, a-b-db, 5, 1, 1, 1, 135, 60, 60, 135, 58, 132, 3, 12.7145
231, 3, bw, attraction, a-b-db, 5, 1, 1, 1, 135, 60, 60, 135, 58, 132, 1, 5.61711
231, 3, bw, attraction, a-b-db, 2, 2, 1, 2, 89, 163, 165, 90, 90, 165, 3, 6.25261
231, 3, bw, attraction, a-b-db, 2, 2, 1, 2, 89, 163, 165, 90, 90, 165, 2, 3.08792
231, 3, bw, attraction, a-b-db, 5, 2, 1, 3, 165, 90, 88, 161, 90, 165, 2, 5.39366
231, 3, bw, attraction, a-b-db, 5, 2, 1, 3, 165, 90, 88, 161, 90, 165, 1, 2.17539
231, 3, bw, catch, NA, 999, 999, 1, 4, 130, 65, 161, 94, 149, 166, 3, 2.06917
231, 3, bw, catch, NA, 999, 999, 1, 4, 130, 65, 161, 94, 149, 166, 1, 1.7371
231, 3, bw, catch, NA, 999, 999, 1, 5, 151, 104, 194, 121, 99, 96, 2, 2.55321
231, 3, bw, catch, NA, 999, 999, 1, 5, 151, 104, 194, 121, 99, 96, 3, 1.24982
231, 3, bw, filler, NA, 999, 999, 1, 6, 146, 79, 190, 185, 108, 106, 2, 1.66931
231, 3, bw, filler, NA, 999, 999, 1, 6, 146, 79, 190, 185, 108, 106, 1, 1.33741
231, 3, bw, attraction, a-b-da, 14, 1, 1, 7, 125, 56, 135, 60, 60, 135, 3, 6.34557
231, 3, bw, attraction, a-b-da, 14, 1, 1, 7, 125, 56, 135, 60, 60, 135, 1, 1.04085
231, 3, bw, attraction, a-b-da, 2, 2, 1, 8, 165, 90, 90, 165, 163, 89, 2, 7.59664
231, 3, bw, attraction, a-b-da, 2, 2, 1, 8, 165, 90, 90, 165, 163, 89, 1, 0.681482
231, 3, bw, filler, NA, 999, 999, 1, 9, 160, 96, 116, 119, 63, 122, 1, 8.76386
231, 3, bw, filler, NA, 999, 999, 1, 9, 160, 96, 116, 119, 63, 122, 3, 0.849785
231, 3, bw, filler, NA, 999, 999, 1, 10, 74, 126, 167, 146, 150, 189, 3, 6.52548
231, 3, bw, filler, NA, 999, 999, 1, 10, 74, 126, 167, 146, 150, 189, 1, 0.629436
231, 3, bw, catch, NA, 999, 999, 1, 11, 94, 161, 69, 126, 160, 155, 3, 1.9218
231, 3, bw, catch, NA, 999, 999, 1, 11, 94, 161, 69, 126, 160, 155, 2, 0.539132
231, 3, bw, filler, NA, 999, 999, 1, 12, 85, 179, 159, 175, 189, 67, 2, 1.44367
231, 3, bw, filler, NA, 999, 999, 1, 12, 85, 179, 159, 175, 189, 67, 3, 1.04049
231, 3, bw, attraction, a-b-db, 2, 3, 1, 13, 195, 120, 119, 193, 120, 195, 2, 6.38808
231, 3, bw, attraction, a-b-db, 2, 3, 1, 13, 195, 120, 119, 193, 120, 195, 3, 0.818113
231, 3, bw, attraction, a-b-db, 2, 1, 1, 14, 59, 134, 135, 60, 60, 135, 3, 5.17524
231, 3, bw, attraction, a-b-db, 2, 1, 1, 14, 59, 134, 135, 60, 60, 135, 2, 0.461369
231, 3, bw, attraction, a-b-db, 5, 3, 1, 15, 117, 190, 195, 120, 120, 195, 1, 5.78464
231, 3, bw, attraction, a-b-db, 5, 3, 1, 15, 117, 190, 195, 120, 120, 195, 2, 0.694729
231, 3, bw, attraction, a-b-da, 5, 1, 1, 16, 60, 135, 135, 60, 132, 58, 1, 4.3284
231, 3, bw, attraction, a-b-da, 5, 1, 1, 16, 60, 135, 135, 60, 132, 58, 3, 0.689025
231, 3, bw, attraction, a-b-db, 14, 1, 1, 17, 135, 60, 56, 125, 60, 135, 3, 4.0835
231, 3, bw, attraction, a-b-db, 14, 1, 1, 17, 135, 60, 56, 125, 60, 135, 1, 0.598229
231, 3, bw, attraction, a-b-da, 14, 2, 1, 18, 90, 165, 165, 90, 153, 83, 1, 4.0999
231, 3, bw, attraction, a-b-da, 14, 2, 1, 18, 90, 165, 165, 90, 153, 83, 3, 0.934026
231, 3, bw, attraction, a-b-da, 9, 1, 1, 19, 60, 135, 135, 60, 129, 57, 2, 6.87023
231, 3, bw, attraction, a-b-da, 9, 1, 1, 19, 60, 135, 135, 60, 129, 57, 3, 2.06469
231, 3, bw, filler, NA, 999, 999, 1, 20, 124, 148, 114, 131, 115, 188, 3, 2.53147
231, 3, bw, filler, NA, 999, 999, 1, 20, 124, 148, 114, 131, 115, 188, 2, 0.684586
231, 3, bw, filler, NA, 999, 999, 1, 21, 131, 185, 90, 102, 102, 129, 1, 1.27093
231, 3, bw, filler, NA, 999, 999, 1, 21, 131, 185, 90, 102, 102, 129, 2, 0.602494
231, 3, bw, attraction, a-b-da, 2, 3, 1, 22, 120, 195, 195, 120, 193, 119, 2, 1.69629
231, 3, bw, attraction, a-b-da, 2, 3, 1, 22, 120, 195, 195, 120, 193, 119, 1, 0.49105
231, 3, bw, attraction, a-b-da, 5, 2, 1, 23, 161, 88, 90, 165, 165, 90, 2, 2.45282
231, 3, bw, attraction, a-b-da, 5, 2, 1, 23, 161, 88, 90, 165, 165, 90, 3, 0.529449
231, 3, bw, attraction, a-b-da, 2, 1, 1, 24, 135, 60, 134, 59, 60, 135, 3, 2.49793
231, 3, bw, attraction, a-b-da, 2, 1, 1, 24, 135, 60, 134, 59, 60, 135, 2, 0.86034
231, 3, bw, attraction, a-b-da, 14, 3, 1, 25, 181, 111, 120, 195, 195, 120, 2, 2.30344
231, 3, bw, attraction, a-b-da, 14, 3, 1, 25, 181, 111, 120, 195, 195, 120, 3, 0.786009
231, 3, bw, filler, NA, 999, 999, 1, 26, 96, 98, 126, 162, 75, 161, 2, 1.25636
231, 3, bw, filler, NA, 999, 999, 1, 26, 96, 98, 126, 162, 75, 161, 1, 1.25268
231, 3, bw, attraction, a-b-db, 9, 3, 1, 27, 195, 120, 114, 186, 120, 195, 3, 3.88015
231, 3, bw, attraction, a-b-db, 9, 3, 1, 27, 195, 120, 114, 186, 120, 195, 1, 0.386837
231, 3, bw, attraction, a-b-db, 14, 2, 1, 28, 83, 153, 90, 165, 165, 90, 2, 3.13735
231, 3, bw, attraction, a-b-db, 14, 2, 1, 28, 83, 153, 90, 165, 165, 90, 3, 1.39436
231, 3, bw, filler, NA, 999, 999, 1, 29, 83, 64, 132, 99, 147, 117, 3, 1.47196
231, 3, bw, filler, NA, 999, 999, 1, 29, 83, 64, 132, 99, 147, 117, 1, 0.675489
231, 3, bw, attraction, a-b-da, 5, 3, 1, 30, 190, 117, 195, 120, 120, 195, 3, 5.98989
231, 3, bw, attraction, a-b-da, 5, 3, 1, 30, 190, 117, 195, 120, 120, 195, 1, 0.82721
231, 3, bw, attraction, a-b-db, 14, 3, 1, 31, 111, 181, 195, 120, 120, 195, 3, 6.77548
231, 3, bw, attraction, a-b-db, 14, 3, 1, 31, 111, 181, 195, 120, 120, 195, 1, 0.645331
231, 3, bw, attraction, a-b-da, 9, 2, 1, 32, 90, 165, 157, 86, 165, 90, 1, 7.08107
231, 3, bw, attraction, a-b-da, 9, 2, 1, 32, 90, 165, 157, 86, 165, 90, 2, 1.25096
231, 3, bw, attraction, a-b-da, 9, 3, 1, 33, 186, 114, 195, 120, 120, 195, 2, 2.71045
231, 3, bw, attraction, a-b-da, 9, 3, 1, 33, 186, 114, 195, 120, 120, 195, 1, 0.448342
231, 3, bw, filler, NA, 999, 999, 1, 34, 120, 119, 92, 63, 124, 130, 3, 1.38007
231, 3, bw, filler, NA, 999, 999, 1, 34, 120, 119, 92, 63, 124, 130, 2, 0.563523
231, 3, bw, filler, NA, 999, 999, 1, 35, 130, 194, 194, 109, 61, 109, 1, 1.0187
231, 3, bw, filler, NA, 999, 999, 1, 35, 130, 194, 194, 109, 61, 109, 3, 0.800996
231, 3, bw, attraction, a-b-db, 9, 1, 1, 36, 60, 135, 57, 129, 135, 60, 2, 2.25482
231, 3, bw, attraction, a-b-db, 9, 1, 1, 36, 60, 135, 57, 129, 135, 60, 3, 0.635347
231, 3, bw, attraction, a-b-db, 9, 2, 1, 37, 86, 157, 165, 90, 90, 165, 3, 2.88786
231, 3, bw, attraction, a-b-db, 9, 2, 1, 37, 86, 157, 165, 90, 90, 165, 2, 0.971017
231, 3, bw, filler, NA, 999, 999, 2, 1, 189, 177, 138, 82, 89, 194, 1, 0.697963
231, 3, bw, filler, NA, 999, 999, 2, 1, 189, 177, 138, 82, 89, 194, 2, 1.12485
231, 3, bw, attraction, a-b-da, 2, 2, 2, 2, 163, 89, 165, 90, 90, 165, 3, 1.48519
231, 3, bw, attraction, a-b-da, 2, 2, 2, 2, 163, 89, 165, 90, 90, 165, 2, 0.736611
231, 3, bw, attraction, a-b-db, 9, 1, 2, 3, 60, 135, 57, 129, 135, 60, 1, 3.32898
231, 3, bw, attraction, a-b-db, 9, 1, 2, 3, 60, 135, 57, 129, 135, 60, 3, 0.777983
231, 3, bw, attraction, a-b-db, 9, 2, 2, 4, 86, 157, 90, 165, 165, 90, 2, 2.56023
231, 3, bw, attraction, a-b-db, 9, 2, 2, 4, 86, 157, 90, 165, 165, 90, 3, 0.576095
231, 3, bw, filler, NA, 999, 999, 2, 5, 88, 141, 114, 74, 110, 71, 1, 1.27047
231, 3, bw, filler, NA, 999, 999, 2, 5, 88, 141, 114, 74, 110, 71, 2, 0.506848
231, 3, bw, attraction, a-b-db, 2, 2, 2, 6, 90, 165, 89, 163, 165, 90, 1, 5.25202
231, 3, bw, attraction, a-b-db, 2, 2, 2, 6, 90, 165, 89, 163, 165, 90, 3, 0.695581
231, 3, bw, attraction, a-b-db, 2, 3, 2, 7, 120, 195, 119, 193, 195, 120, 2, 1.73734
231, 3, bw, attraction, a-b-db, 2, 3, 2, 7, 120, 195, 119, 193, 195, 120, 3, 0.40285
231, 3, bw, attraction, a-b-db, 9, 3, 2, 8, 120, 195, 114, 186, 195, 120, 1, 2.01656
231, 3, bw, attraction, a-b-db, 9, 3, 2, 8, 120, 195, 114, 186, 195, 120, 3, 0.534583
231, 3, bw, filler, NA, 999, 999, 2, 9, 66, 114, 188, 183, 148, 131, 2, 1.07105
231, 3, bw, filler, NA, 999, 999, 2, 9, 66, 114, 188, 183, 148, 131, 1, 0.739332
231, 3, bw, filler, NA, 999, 999, 2, 10, 122, 114, 107, 58, 112, 166, 3, 1.86795
231, 3, bw, filler, NA, 999, 999, 2, 10, 122, 114, 107, 58, 112, 166, 2, 0.48791
231, 3, bw, filler, NA, 999, 999, 2, 11, 122, 150, 61, 152, 124, 118, 1, 1.52221
231, 3, bw, filler, NA, 999, 999, 2, 11, 122, 150, 61, 152, 124, 118, 2, 0.787778
231, 3, bw, attraction, a-b-db, 5, 1, 2, 12, 135, 60, 60, 135, 58, 132, 2, 2.54611
231, 3, bw, attraction, a-b-db, 5, 1, 2, 12, 135, 60, 60, 135, 58, 132, 3, 0.57865
231, 3, bw, catch, NA, 999, 999, 2, 13, 83, 112, 142, 113, 124, 191, 3, 1.47312
231, 3, bw, catch, NA, 999, 999, 2, 13, 83, 112, 142, 113, 124, 191, 1, 0.460475
231, 3, bw, attraction, a-b-db, 5, 2, 2, 14, 165, 90, 88, 161, 90, 165, 2, 3.97558
231, 3, bw, attraction, a-b-db, 5, 2, 2, 14, 165, 90, 88, 161, 90, 165, 1, 0.454305
231, 3, bw, attraction, a-b-db, 14, 1, 2, 15, 56, 125, 135, 60, 60, 135, 3, 2.17022
231, 3, bw, attraction, a-b-db, 14, 1, 2, 15, 56, 125, 135, 60, 60, 135, 2, 0.602263
231, 3, bw, attraction, a-b-da, 9, 3, 2, 16, 186, 114, 120, 195, 195, 120, 2, 3.79189
231, 3, bw, attraction, a-b-da, 9, 3, 2, 16, 186, 114, 120, 195, 195, 120, 3, 0.510241
231, 3, bw, filler, NA, 999, 999, 2, 17, 118, 146, 110, 173, 182, 144, 3, 1.33518
231, 3, bw, filler, NA, 999, 999, 2, 17, 118, 146, 110, 173, 182, 144, 1, 1.16072
231, 3, bw, filler, NA, 999, 999, 2, 18, 102, 79, 127, 92, 80, 65, 2, 1.2156
231, 3, bw, filler, NA, 999, 999, 2, 18, 102, 79, 127, 92, 80, 65, 3, 0.885889
231, 3, bw, attraction, a-b-db, 5, 3, 2, 19, 120, 195, 117, 190, 195, 120, 2, 4.39218
231, 3, bw, attraction, a-b-db, 5, 3, 2, 19, 120, 195, 117, 190, 195, 120, 3, 0.486214
231, 3, bw, attraction, a-b-da, 9, 1, 2, 20, 135, 60, 60, 135, 129, 57, 2, 1.77672
231, 3, bw, attraction, a-b-da, 9, 1, 2, 20, 135, 60, 60, 135, 129, 57, 3, 0.504051
231, 3, bw, attraction, a-b-da, 2, 3, 2, 21, 195, 120, 193, 119, 120, 195, 1, 4.30576
231, 3, bw, attraction, a-b-da, 2, 3, 2, 21, 195, 120, 193, 119, 120, 195, 2, 5.22776
231, 3, bw, attraction, a-b-da, 14, 3, 2, 22, 195, 120, 120, 195, 181, 111, 2, 2.82283
231, 3, bw, attraction, a-b-da, 14, 3, 2, 22, 195, 120, 120, 195, 181, 111, 3, 1.0518
231, 3, bw, attraction, a-b-da, 2, 1, 2, 23, 134, 59, 60, 135, 135, 60, 2, 2.11167
231, 3, bw, attraction, a-b-da, 2, 1, 2, 23, 134, 59, 60, 135, 135, 60, 3, 0.609436
231, 3, bw, attraction, a-b-db, 14, 3, 2, 24, 111, 181, 120, 195, 195, 120, 2, 3.22256
231, 3, bw, attraction, a-b-db, 14, 3, 2, 24, 111, 181, 120, 195, 195, 120, 3, 0.493888
231, 3, bw, catch, NA, 999, 999, 2, 25, 64, 131, 160, 95, 151, 164, 3, 1.14139
231, 3, bw, catch, NA, 999, 999, 2, 25, 64, 131, 160, 95, 151, 164, 1, 0.910365
231, 3, bw, filler, NA, 999, 999, 2, 26, 192, 87, 118, 68, 70, 105, 1, 5.30312
231, 3, bw, filler, NA, 999, 999, 2, 26, 192, 87, 118, 68, 70, 105, 2, 0.672909
231, 3, bw, attraction, a-b-da, 5, 3, 2, 27, 195, 120, 120, 195, 190, 117, 2, 1.65994
231, 3, bw, attraction, a-b-da, 5, 3, 2, 27, 195, 120, 120, 195, 190, 117, 3, 0.463978
231, 3, bw, attraction, a-b-da, 9, 2, 2, 28, 165, 90, 90, 165, 157, 86, 2, 2.71513
231, 3, bw, attraction, a-b-da, 9, 2, 2, 28, 165, 90, 90, 165, 157, 86, 3, 0.837091
231, 3, bw, attraction, a-b-da, 14, 2, 2, 29, 165, 90, 153, 83, 90, 165, 3, 5.35338
231, 3, bw, attraction, a-b-da, 14, 2, 2, 29, 165, 90, 153, 83, 90, 165, 1, 0.50486
231, 3, bw, filler, NA, 999, 999, 2, 30, 74, 97, 191, 119, 151, 62, 2, 1.41867
231, 3, bw, filler, NA, 999, 999, 2, 30, 74, 97, 191, 119, 151, 62, 1, 0.896946
231, 3, bw, filler, NA, 999, 999, 2, 31, 155, 105, 99, 69, 179, 75, 1, 1.97052
231, 3, bw, filler, NA, 999, 999, 2, 31, 155, 105, 99, 69, 179, 75, 2, 0.514556
231, 3, bw, attraction, a-b-db, 2, 1, 2, 32, 59, 134, 135, 60, 60, 135, 3, 4.90777
231, 3, bw, attraction, a-b-db, 2, 1, 2, 32, 59, 134, 135, 60, 60, 135, 2, 0.516886
231, 3, bw, catch, NA, 999, 999, 2, 33, 110, 85, 149, 166, 93, 162, 2, 1.23805
231, 3, bw, catch, NA, 999, 999, 2, 33, 110, 85, 149, 166, 93, 162, 1, 0.835522
231, 3, bw, attraction, a-b-db, 14, 2, 2, 34, 90, 165, 83, 153, 165, 90, 1, 5.65588
231, 3, bw, attraction, a-b-db, 14, 2, 2, 34, 90, 165, 83, 153, 165, 90, 3, 1.3634
231, 3, bw, attraction, a-b-da, 5, 1, 2, 35, 60, 135, 135, 60, 132, 58, 1, 4.45029
231, 3, bw, attraction, a-b-da, 5, 1, 2, 35, 60, 135, 135, 60, 132, 58, 3, 0.566326
231, 3, bw, attraction, a-b-da, 14, 1, 2, 36, 60, 135, 135, 60, 125, 56, 1, 2.89334
231, 3, bw, attraction, a-b-da, 14, 1, 2, 36, 60, 135, 135, 60, 125, 56, 3, 1.16768
231, 3, bw, attraction, a-b-da, 5, 2, 2, 37, 90, 165, 165, 90, 161, 88, 1, 2.63856
231, 3, bw, attraction, a-b-da, 5, 2, 2, 37, 90, 165, 165, 90, 161, 88, 3, 1.96317
231, 3, bw, filler, NA, 999, 999, 3, 1, 115, 99, 79, 156, 89, 188, 3, 2.23383
231, 3, bw, filler, NA, 999, 999, 3, 1, 115, 99, 79, 156, 89, 188, 1, 0.639043
231, 3, bw, attraction, a-b-da, 14, 3, 3, 2, 120, 195, 195, 120, 181, 111, 1, 1.51536
231, 3, bw, attraction, a-b-da, 14, 3, 3, 2, 120, 195, 195, 120, 181, 111, 3, 0.749531
231, 3, bw, catch, NA, 999, 999, 3, 3, 127, 128, 177, 138, 118, 77, 2, 1.56526
231, 3, bw, catch, NA, 999, 999, 3, 3, 127, 128, 177, 138, 118, 77, 3, 0.69341
231, 3, bw, attraction, a-b-db, 2, 3, 3, 4, 119, 193, 195, 120, 120, 195, 3, 1.80729
231, 3, bw, attraction, a-b-db, 2, 3, 3, 4, 119, 193, 195, 120, 120, 195, 2, 1.5973
231, 3, bw, attraction, a-b-da, 5, 1, 3, 5, 60, 135, 132, 58, 135, 60, 1, 2.89875
231, 3, bw, attraction, a-b-da, 5, 1, 3, 5, 60, 135, 132, 58, 135, 60, 2, 0.797019
231, 3, bw, attraction, a-b-da, 9, 3, 3, 6, 186, 114, 195, 120, 120, 195, 3, 6.40286
231, 3, bw, attraction, a-b-da, 9, 3, 3, 6, 186, 114, 195, 120, 120, 195, 1, 0.712142
231, 3, bw, attraction, a-b-da, 2, 3, 3, 7, 195, 120, 120, 195, 193, 119, 2, 1.75311
231, 3, bw, attraction, a-b-da, 2, 3, 3, 7, 195, 120, 120, 195, 193, 119, 3, 0.489932
231, 3, bw, attraction, a-b-db, 9, 2, 3, 8, 165, 90, 86, 157, 90, 165, 3, 3.59585
231, 3, bw, attraction, a-b-db, 9, 2, 3, 8, 165, 90, 86, 157, 90, 165, 1, 6.3139
231, 3, bw, filler, NA, 999, 999, 3, 9, 186, 164, 113, 68, 155, 100, 1, 1.76916
231, 3, bw, filler, NA, 999, 999, 3, 9, 186, 164, 113, 68, 155, 100, 2, 0.833301
231, 3, bw, attraction, a-b-da, 5, 2, 3, 10, 90, 165, 161, 88, 165, 90, 1, 11.7336
231, 3, bw, attraction, a-b-da, 5, 2, 3, 10, 90, 165, 161, 88, 165, 90, 3, 1.48392
231, 3, bw, attraction, a-b-db, 14, 2, 3, 11, 165, 90, 90, 165, 83, 153, 2, 2.36602
231, 3, bw, attraction, a-b-db, 14, 2, 3, 11, 165, 90, 90, 165, 83, 153, 3, 0.757987
231, 3, bw, catch, NA, 999, 999, 3, 12, 132, 183, 132, 63, 119, 136, 1, 0.71703
231, 3, bw, catch, NA, 999, 999, 3, 12, 132, 183, 132, 63, 119, 136, 2, 0.751358
231, 3, bw, filler, NA, 999, 999, 3, 13, 110, 60, 83, 127, 191, 143, 3, 1.01514
231, 3, bw, filler, NA, 999, 999, 3, 13, 110, 60, 83, 127, 191, 143, 1, 0.501464
231, 3, bw, attraction, a-b-da, 9, 2, 3, 14, 165, 90, 90, 165, 157, 86, 2, 5.07133
231, 3, bw, attraction, a-b-da, 9, 2, 3, 14, 165, 90, 90, 165, 157, 86, 3, 0.738247
231, 3, bw, attraction, a-b-db, 14, 1, 3, 15, 56, 125, 60, 135, 135, 60, 2, 1.52268
231, 3, bw, attraction, a-b-db, 14, 1, 3, 15, 56, 125, 60, 135, 135, 60, 1, 0.74019
231, 3, bw, catch, NA, 999, 999, 3, 16, 101, 154, 83, 112, 144, 171, 3, 1.32386
231, 3, bw, catch, NA, 999, 999, 3, 16, 101, 154, 83, 112, 144, 171, 2, 0.661559
231, 3, bw, filler, NA, 999, 999, 3, 17, 78, 79, 130, 104, 78, 60, 2, 1.40057
231, 3, bw, filler, NA, 999, 999, 3, 17, 78, 79, 130, 104, 78, 60, 3, 0.743367
231, 3, bw, attraction, a-b-da, 14, 1, 3, 18, 60, 135, 125, 56, 135, 60, 1, 2.463
231, 3, bw, attraction, a-b-da, 14, 1, 3, 18, 60, 135, 125, 56, 135, 60, 3, 0.98705
231, 3, bw, attraction, a-b-da, 5, 3, 3, 19, 195, 120, 190, 117, 120, 195, 1, 6.25724
231, 3, bw, attraction, a-b-da, 5, 3, 3, 19, 195, 120, 190, 117, 120, 195, 2, 0.499874
231, 3, bw, attraction, a-b-da, 2, 1, 3, 20, 135, 60, 60, 135, 134, 59, 2, 1.85369
231, 3, bw, attraction, a-b-da, 2, 1, 3, 20, 135, 60, 60, 135, 134, 59, 3, 0.506504
231, 3, bw, filler, NA, 999, 999, 3, 21, 134, 99, 66, 187, 178, 84, 3, 4.1242
231, 3, bw, filler, NA, 999, 999, 3, 21, 134, 99, 66, 187, 178, 84, 1, 2.38903
231, 3, bw, attraction, a-b-db, 9, 1, 3, 22, 60, 135, 135, 60, 57, 129, 1, 1.83479
231, 3, bw, attraction, a-b-db, 9, 1, 3, 22, 60, 135, 135, 60, 57, 129, 2, 0.504128
231, 3, bw, attraction, a-b-db, 9, 3, 3, 23, 195, 120, 114, 186, 120, 195, 3, 5.96196
231, 3, bw, attraction, a-b-db, 9, 3, 3, 23, 195, 120, 114, 186, 120, 195, 2, 0.960691
231, 3, bw, attraction, a-b-db, 5, 1, 3, 24, 135, 60, 60, 135, 58, 132, 2, 6.18367
231, 3, bw, attraction, a-b-db, 5, 1, 3, 24, 135, 60, 60, 135, 58, 132, 1, 0.837759
231, 3, bw, attraction, a-b-da, 9, 1, 3, 25, 60, 135, 129, 57, 135, 60, 1, 1.2501
231, 3, bw, attraction, a-b-da, 9, 1, 3, 25, 60, 135, 129, 57, 135, 60, 2, 0.703048
231, 3, bw, attraction, a-b-db, 2, 2, 3, 26, 165, 90, 90, 165, 89, 163, 2, 2.60877
231, 3, bw, attraction, a-b-db, 2, 2, 3, 26, 165, 90, 90, 165, 89, 163, 1, 1.23856
231, 3, bw, filler, NA, 999, 999, 3, 27, 65, 98, 163, 62, 149, 121, 3, 0.842808
231, 3, bw, filler, NA, 999, 999, 3, 27, 65, 98, 163, 62, 149, 121, 2, 0.511909
231, 3, bw, filler, NA, 999, 999, 3, 28, 85, 61, 63, 175, 163, 172, 3, 2.121
231, 3, bw, filler, NA, 999, 999, 3, 28, 85, 61, 63, 175, 163, 172, 1, 0.698882
231, 3, bw, filler, NA, 999, 999, 3, 29, 77, 156, 71, 63, 153, 135, 3, 1.2526
231, 3, bw, filler, NA, 999, 999, 3, 29, 77, 156, 71, 63, 153, 135, 2, 1.21752
231, 3, bw, attraction, a-b-db, 5, 2, 3, 30, 88, 161, 165, 90, 90, 165, 1, 2.95046
231, 3, bw, attraction, a-b-db, 5, 2, 3, 30, 88, 161, 165, 90, 90, 165, 2, 0.615016
231, 3, bw, attraction, a-b-db, 14, 3, 3, 31, 195, 120, 111, 181, 120, 195, 1, 6.28423
231, 3, bw, attraction, a-b-db, 14, 3, 3, 31, 195, 120, 111, 181, 120, 195, 2, 0.798071
231, 3, bw, filler, NA, 999, 999, 3, 32, 169, 60, 140, 107, 180, 160, 3, 0.603723
231, 3, bw, filler, NA, 999, 999, 3, 32, 169, 60, 140, 107, 180, 160, 1, 0.762721
231, 3, bw, attraction, a-b-da, 2, 2, 3, 33, 163, 89, 165, 90, 90, 165, 3, 7.8978
231, 3, bw, attraction, a-b-da, 2, 2, 3, 33, 163, 89, 165, 90, 90, 165, 2, 0.474728
231, 3, bw, attraction, a-b-db, 5, 3, 3, 34, 195, 120, 120, 195, 117, 190, 2, 4.101
231, 3, bw, attraction, a-b-db, 5, 3, 3, 34, 195, 120, 120, 195, 117, 190, 1, 0.703219
231, 3, bw, attraction, a-b-db, 2, 1, 3, 35, 135, 60, 60, 135, 59, 134, 3, 4.0328
231, 3, bw, attraction, a-b-db, 2, 1, 3, 35, 135, 60, 60, 135, 59, 134, 1, 0.973675
231, 3, bw, filler, NA, 999, 999, 3, 36, 141, 165, 188, 120, 96, 127, 1, 2.13192
231, 3, bw, filler, NA, 999, 999, 3, 36, 141, 165, 188, 120, 96, 127, 3, 0.917196
231, 3, bw, attraction, a-b-da, 14, 2, 3, 37, 165, 90, 153, 83, 90, 165, 3, 6.26218
231, 3, bw, attraction, a-b-da, 14, 2, 3, 37, 165, 90, 153, 83, 90, 165, 2, 0.800839
231, 3, bw, attraction, a-b-db, 5, 2, 4, 1, 90, 165, 165, 90, 88, 161, 1, 6.64659
231, 3, bw, attraction, a-b-db, 5, 2, 4, 1, 90, 165, 165, 90, 88, 161, 2, 0.721692
231, 3, bw, filler, NA, 999, 999, 4, 2, 192, 166, 109, 188, 147, 187, 1, 2.07478
231, 3, bw, filler, NA, 999, 999, 4, 2, 192, 166, 109, 188, 147, 187, 2, 0.478089
231, 3, bw, attraction, a-b-da, 14, 3, 4, 3, 120, 195, 181, 111, 195, 120, 1, 4.25672
231, 3, bw, attraction, a-b-da, 14, 3, 4, 3, 120, 195, 181, 111, 195, 120, 2, 0.595969
231, 3, bw, attraction, a-b-da, 9, 2, 4, 4, 90, 165, 157, 86, 165, 90, 1, 2.15366
231, 3, bw, attraction, a-b-da, 9, 2, 4, 4, 90, 165, 157, 86, 165, 90, 3, 0.506248
231, 3, bw, attraction, a-b-db, 2, 2, 4, 5, 165, 90, 89, 163, 90, 165, 3, 2.59603
231, 3, bw, attraction, a-b-db, 2, 2, 4, 5, 165, 90, 89, 163, 90, 165, 2, 0.68256
231, 3, bw, filler, NA, 999, 999, 4, 6, 147, 65, 150, 99, 56, 129, 2, 0.860866
231, 3, bw, filler, NA, 999, 999, 4, 6, 147, 65, 150, 99, 56, 129, 3, 0.441279
231, 3, bw, filler, NA, 999, 999, 4, 7, 193, 152, 116, 88, 108, 165, 1, 0.989164
231, 3, bw, filler, NA, 999, 999, 4, 7, 193, 152, 116, 88, 108, 165, 2, 0.396185
231, 3, bw, attraction, a-b-da, 2, 3, 4, 8, 193, 119, 195, 120, 120, 195, 3, 1.91402
231, 3, bw, attraction, a-b-da, 2, 3, 4, 8, 193, 119, 195, 120, 120, 195, 2, 0.460191
231, 3, bw, catch, NA, 999, 999, 4, 9, 152, 163, 91, 164, 118, 77, 1, 0.895075
231, 3, bw, catch, NA, 999, 999, 4, 9, 152, 163, 91, 164, 118, 77, 3, 0.690602
231, 3, bw, attraction, a-b-db, 9, 3, 4, 10, 120, 195, 114, 186, 195, 120, 1, 2.21196
231, 3, bw, attraction, a-b-db, 9, 3, 4, 10, 120, 195, 114, 186, 195, 120, 3, 0.977797
231, 3, bw, attraction, a-b-db, 5, 1, 4, 11, 60, 135, 135, 60, 58, 132, 1, 3.10403
231, 3, bw, attraction, a-b-db, 5, 1, 4, 11, 60, 135, 135, 60, 58, 132, 2, 1.40268
231, 3, bw, attraction, a-b-da, 2, 1, 4, 12, 60, 135, 135, 60, 134, 59, 1, 3.19203
231, 3, bw, attraction, a-b-da, 2, 1, 4, 12, 60, 135, 135, 60, 134, 59, 2, 1.47846
231, 3, bw, filler, NA, 999, 999, 4, 13, 82, 57, 161, 182, 189, 177, 3, 9.60855
231, 3, bw, filler, NA, 999, 999, 4, 13, 82, 57, 161, 182, 189, 177, 1, 0.828003
231, 3, bw, attraction, a-b-da, 9, 1, 4, 14, 60, 135, 129, 57, 135, 60, 1, 3.48035
231, 3, bw, attraction, a-b-da, 9, 1, 4, 14, 60, 135, 129, 57, 135, 60, 2, 0.419349
231, 3, bw, attraction, a-b-db, 14, 1, 4, 15, 60, 135, 56, 125, 135, 60, 1, 3.57641
231, 3, bw, attraction, a-b-db, 14, 1, 4, 15, 60, 135, 56, 125, 135, 60, 3, 1.22329
231, 3, bw, attraction, a-b-da, 5, 3, 4, 16, 120, 195, 195, 120, 190, 117, 1, 1.32416
231, 3, bw, attraction, a-b-da, 5, 3, 4, 16, 120, 195, 195, 120, 190, 117, 3, 0.717762
231, 3, bw, attraction, a-b-da, 2, 2, 4, 17, 90, 165, 163, 89, 165, 90, 1, 1.13474
231, 3, bw, attraction, a-b-da, 2, 2, 4, 17, 90, 165, 163, 89, 165, 90, 2, 0.712379
231, 3, bw, filler, NA, 999, 999, 4, 18, 142, 142, 142, 166, 56, 167, 2, 0.961469
231, 3, bw, filler, NA, 999, 999, 4, 18, 142, 142, 142, 166, 56, 167, 3, 0.697877
231, 3, bw, catch, NA, 999, 999, 4, 19, 138, 177, 78, 117, 103, 152, 1, 0.739542
231, 3, bw, catch, NA, 999, 999, 4, 19, 138, 177, 78, 117, 103, 152, 2, 1.04464
231, 3, bw, attraction, a-b-db, 2, 1, 4, 20, 59, 134, 60, 135, 135, 60, 2, 10.1762
231, 3, bw, attraction, a-b-db, 2, 1, 4, 20, 59, 134, 60, 135, 135, 60, 3, 0.764966
231, 3, bw, attraction, a-b-da, 14, 1, 4, 21, 60, 135, 125, 56, 135, 60, 1, 8.24408
231, 3, bw, attraction, a-b-da, 14, 1, 4, 21, 60, 135, 125, 56, 135, 60, 2, 0.638679
231, 3, bw, filler, NA, 999, 999, 4, 22, 170, 64, 154, 142, 180, 90, 2, 1.66725
231, 3, bw, filler, NA, 999, 999, 4, 22, 170, 64, 154, 142, 180, 90, 1, 0.815347
231, 3, bw, attraction, a-b-db, 9, 1, 4, 23, 135, 60, 57, 129, 60, 135, 3, 2.12437
231, 3, bw, attraction, a-b-db, 9, 1, 4, 23, 135, 60, 57, 129, 60, 135, 1, 0.589657
231, 3, bw, filler, NA, 999, 999, 4, 24, 152, 56, 64, 162, 69, 93, 2, 2.21211
231, 3, bw, filler, NA, 999, 999, 4, 24, 152, 56, 64, 162, 69, 93, 3, 2.23417
231, 3, bw, attraction, a-b-da, 14, 2, 4, 25, 90, 165, 165, 90, 153, 83, 1, 1.08593
231, 3, bw, attraction, a-b-da, 14, 2, 4, 25, 90, 165, 165, 90, 153, 83, 3, 0.897591
231, 3, bw, attraction, a-b-db, 2, 3, 4, 26, 195, 120, 120, 195, 119, 193, 2, 2.33135
231, 3, bw, attraction, a-b-db, 2, 3, 4, 26, 195, 120, 120, 195, 119, 193, 3, 0.700437
231, 3, bw, attraction, a-b-db, 14, 2, 4, 27, 83, 153, 90, 165, 165, 90, 2, 3.30217
231, 3, bw, attraction, a-b-db, 14, 2, 4, 27, 83, 153, 90, 165, 165, 90, 1, 0.472447
231, 3, bw, attraction, a-b-da, 5, 1, 4, 28, 60, 135, 132, 58, 135, 60, 1, 23.0677
231, 3, bw, attraction, a-b-da, 5, 1, 4, 28, 60, 135, 132, 58, 135, 60, 2, 0.505005
231, 3, bw, filler, NA, 999, 999, 4, 29, 154, 84, 70, 127, 61, 184, 1, 2.89081
231, 3, bw, filler, NA, 999, 999, 4, 29, 154, 84, 70, 127, 61, 184, 2, 0.717358
231, 3, bw, catch, NA, 999, 999, 4, 30, 81, 114, 174, 141, 108, 147, 2, 0.894246
231, 3, bw, catch, NA, 999, 999, 4, 30, 81, 114, 174, 141, 108, 147, 1, 0.649325
231, 3, bw, attraction, a-b-db, 9, 2, 4, 31, 90, 165, 165, 90, 86, 157, 1, 1.237
231, 3, bw, attraction, a-b-db, 9, 2, 4, 31, 90, 165, 165, 90, 86, 157, 2, 0.602619
231, 3, bw, filler, NA, 999, 999, 4, 32, 104, 99, 182, 178, 138, 76, 2, 1.15236
231, 3, bw, filler, NA, 999, 999, 4, 32, 104, 99, 182, 178, 138, 76, 3, 0.769345
231, 3, bw, attraction, a-b-da, 5, 2, 4, 33, 165, 90, 90, 165, 161, 88, 2, 3.60838
231, 3, bw, attraction, a-b-da, 5, 2, 4, 33, 165, 90, 90, 165, 161, 88, 3, 0.717851
231, 3, bw, filler, NA, 999, 999, 4, 34, 85, 84, 101, 94, 97, 110, 3, 1.3109
231, 3, bw, filler, NA, 999, 999, 4, 34, 85, 84, 101, 94, 97, 110, 1, 0.841177
231, 3, bw, attraction, a-b-db, 14, 3, 4, 35, 120, 195, 111, 181, 195, 120, 1, 1.6449
231, 3, bw, attraction, a-b-db, 14, 3, 4, 35, 120, 195, 111, 181, 195, 120, 3, 3.51359
231, 3, bw, attraction, a-b-db, 5, 3, 4, 36, 117, 190, 120, 195, 195, 120, 2, 1.56979
231, 3, bw, attraction, a-b-db, 5, 3, 4, 36, 117, 190, 120, 195, 195, 120, 1, 0.522
231, 3, bw, attraction, a-b-da, 9, 3, 4, 37, 186, 114, 195, 120, 120, 195, 3, 8.37104
231, 3, bw, attraction, a-b-da, 9, 3, 4, 37, 186, 114, 195, 120, 120, 195, 1, 0.593019
231, 3, bw, filler, NA, 999, 999, 5, 1, 80, 167, 109, 177, 192, 79, 2, 8.98949
231, 3, bw, filler, NA, 999, 999, 5, 1, 80, 167, 109, 177, 192, 79, 3, 0.818587
231, 3, bw, attraction, a-b-db, 9, 1, 5, 2, 135, 60, 57, 129, 60, 135, 3, 4.35982
231, 3, bw, attraction, a-b-db, 9, 1, 5, 2, 135, 60, 57, 129, 60, 135, 1, 0.615086
231, 3, bw, filler, NA, 999, 999, 5, 3, 74, 193, 184, 154, 57, 164, 2, 0.61204
231, 3, bw, filler, NA, 999, 999, 5, 3, 74, 193, 184, 154, 57, 164, 3, 0.626449
231, 3, bw, attraction, a-b-db, 2, 2, 5, 4, 90, 165, 165, 90, 89, 163, 3, 1.44701
231, 3, bw, attraction, a-b-db, 2, 2, 5, 4, 90, 165, 165, 90, 89, 163, 2, 0.363802
231, 3, bw, attraction, a-b-db, 2, 1, 5, 5, 60, 135, 59, 134, 135, 60, 1, 1.77891
231, 3, bw, attraction, a-b-db, 2, 1, 5, 5, 60, 135, 59, 134, 135, 60, 3, 1.08235
231, 3, bw, attraction, a-b-db, 5, 3, 5, 6, 195, 120, 120, 195, 117, 190, 2, 2.6286
231, 3, bw, attraction, a-b-db, 5, 3, 5, 6, 195, 120, 120, 195, 117, 190, 3, 0.601741
231, 3, bw, filler, NA, 999, 999, 5, 7, 182, 191, 76, 150, 58, 172, 1, 0.599472
231, 3, bw, filler, NA, 999, 999, 5, 7, 182, 191, 76, 150, 58, 172, 3, 0.486553
231, 3, bw, attraction, a-b-da, 14, 3, 5, 8, 195, 120, 120, 195, 181, 111, 2, 8.03316
231, 3, bw, attraction, a-b-da, 14, 3, 5, 8, 195, 120, 120, 195, 181, 111, 3, 0.51662
231, 3, bw, attraction, a-b-da, 2, 3, 5, 9, 195, 120, 120, 195, 193, 119, 3, 2.34166
231, 3, bw, attraction, a-b-da, 2, 3, 5, 9, 195, 120, 120, 195, 193, 119, 2, 0.702258
231, 3, bw, attraction, a-b-db, 9, 2, 5, 10, 165, 90, 90, 165, 86, 157, 2, 5.55994
231, 3, bw, attraction, a-b-db, 9, 2, 5, 10, 165, 90, 90, 165, 86, 157, 3, 4.90297
231, 3, bw, filler, NA, 999, 999, 5, 11, 149, 65, 189, 147, 113, 88, 2, 2.61528
231, 3, bw, filler, NA, 999, 999, 5, 11, 149, 65, 189, 147, 113, 88, 3, 1.37319
231, 3, bw, attraction, a-b-da, 2, 1, 5, 12, 135, 60, 134, 59, 60, 135, 3, 2.78001
231, 3, bw, attraction, a-b-da, 2, 1, 5, 12, 135, 60, 134, 59, 60, 135, 2, 0.547096
231, 3, bw, filler, NA, 999, 999, 5, 13, 126, 138, 167, 195, 154, 96, 2, 1.01072
231, 3, bw, filler, NA, 999, 999, 5, 13, 126, 138, 167, 195, 154, 96, 3, 0.777104
231, 3, bw, attraction, a-b-db, 14, 3, 5, 14, 111, 181, 120, 195, 195, 120, 2, 1.61558
231, 3, bw, attraction, a-b-db, 14, 3, 5, 14, 111, 181, 120, 195, 195, 120, 1, 0.405745
231, 3, bw, attraction, a-b-da, 9, 2, 5, 15, 165, 90, 90, 165, 157, 86, 2, 1.64359
231, 3, bw, attraction, a-b-da, 9, 2, 5, 15, 165, 90, 90, 165, 157, 86, 3, 0.864425
231, 3, bw, attraction, a-b-da, 9, 3, 5, 16, 186, 114, 120, 195, 195, 120, 2, 3.52328
231, 3, bw, attraction, a-b-da, 9, 3, 5, 16, 186, 114, 120, 195, 195, 120, 1, 1.62812
231, 3, bw, attraction, a-b-da, 2, 2, 5, 17, 165, 90, 163, 89, 90, 165, 3, 9.60833
231, 3, bw, attraction, a-b-da, 2, 2, 5, 17, 165, 90, 163, 89, 90, 165, 2, 0.836012
231, 3, bw, catch, NA, 999, 999, 5, 18, 124, 191, 122, 73, 144, 111, 1, 0.880174
231, 3, bw, catch, NA, 999, 999, 5, 18, 124, 191, 122, 73, 144, 111, 2, 0.763985
231, 3, bw, catch, NA, 999, 999, 5, 19, 135, 120, 163, 152, 113, 82, 2, 1.15487
231, 3, bw, catch, NA, 999, 999, 5, 19, 135, 120, 163, 152, 113, 82, 3, 0.635323
231, 3, bw, attraction, a-b-db, 14, 2, 5, 20, 83, 153, 165, 90, 90, 165, 3, 1.50357
231, 3, bw, attraction, a-b-db, 14, 2, 5, 20, 83, 153, 165, 90, 90, 165, 1, 1.28268
231, 3, bw, attraction, a-b-db, 5, 2, 5, 21, 88, 161, 165, 90, 90, 165, 3, 4.20461
231, 3, bw, attraction, a-b-db, 5, 2, 5, 21, 88, 161, 165, 90, 90, 165, 2, 1.02666
231, 3, bw, attraction, a-b-da, 5, 2, 5, 22, 161, 88, 90, 165, 165, 90, 2, 7.53493
231, 3, bw, attraction, a-b-da, 5, 2, 5, 22, 161, 88, 90, 165, 165, 90, 3, 1.15859
231, 3, bw, attraction, a-b-db, 5, 1, 5, 23, 135, 60, 60, 135, 58, 132, 2, 5.2136
231, 3, bw, attraction, a-b-db, 5, 1, 5, 23, 135, 60, 60, 135, 58, 132, 3, 0.674484
231, 3, bw, attraction, a-b-db, 14, 1, 5, 24, 56, 125, 60, 135, 135, 60, 2, 3.63687
231, 3, bw, attraction, a-b-db, 14, 1, 5, 24, 56, 125, 60, 135, 135, 60, 1, 3.81764
231, 3, bw, attraction, a-b-da, 5, 1, 5, 25, 60, 135, 135, 60, 132, 58, 2, 2.75779
231, 3, bw, attraction, a-b-da, 5, 1, 5, 25, 60, 135, 135, 60, 132, 58, 3, 1.23761
231, 3, bw, filler, NA, 999, 999, 5, 26, 105, 74, 140, 159, 87, 187, 2, 0.913812
231, 3, bw, filler, NA, 999, 999, 5, 26, 105, 74, 140, 159, 87, 187, 1, 0.772148
231, 3, bw, attraction, a-b-da, 14, 1, 5, 27, 125, 56, 135, 60, 60, 135, 3, 6.11525
231, 3, bw, attraction, a-b-da, 14, 1, 5, 27, 125, 56, 135, 60, 60, 135, 1, 2.80391
231, 3, bw, attraction, a-b-db, 2, 3, 5, 28, 119, 193, 195, 120, 120, 195, 1, 3.53703
231, 3, bw, attraction, a-b-db, 2, 3, 5, 28, 119, 193, 195, 120, 120, 195, 2, 0.554077
231, 3, bw, filler, NA, 999, 999, 5, 29, 108, 152, 171, 150, 80, 82, 2, 0.841653
231, 3, bw, filler, NA, 999, 999, 5, 29, 108, 152, 171, 150, 80, 82, 3, 0.918765
231, 3, bw, catch, NA, 999, 999, 5, 30, 96, 159, 137, 178, 104, 91, 2, 1.25567
231, 3, bw, catch, NA, 999, 999, 5, 30, 96, 159, 137, 178, 104, 91, 3, 0.755969
231, 3, bw, attraction, a-b-da, 9, 1, 5, 31, 135, 60, 60, 135, 129, 57, 2, 27.3236
231, 3, bw, attraction, a-b-da, 9, 1, 5, 31, 135, 60, 60, 135, 129, 57, 3, 0.733718
231, 3, bw, attraction, a-b-da, 5, 3, 5, 32, 190, 117, 195, 120, 120, 195, 2, 5.90213
231, 3, bw, attraction, a-b-da, 5, 3, 5, 32, 190, 117, 195, 120, 120, 195, 1, 0.951651
231, 3, bw, filler, NA, 999, 999, 5, 33, 130, 58, 169, 149, 102, 165, 2, 0.863217
231, 3, bw, filler, NA, 999, 999, 5, 33, 130, 58, 169, 149, 102, 165, 1, 0.755537
231, 3, bw, attraction, a-b-da, 14, 2, 5, 34, 153, 83, 90, 165, 165, 90, 2, 6.51522
231, 3, bw, attraction, a-b-da, 14, 2, 5, 34, 153, 83, 90, 165, 165, 90, 1, 0.524047
231, 3, bw, filler, NA, 999, 999, 5, 35, 180, 128, 128, 62, 171, 152, 3, 0.836417
231, 3, bw, filler, NA, 999, 999, 5, 35, 180, 128, 128, 62, 171, 152, 2, 0.681993
231, 3, bw, attraction, a-b-db, 9, 3, 5, 36, 195, 120, 120, 195, 114, 186, 2, 3.18852
231, 3, bw, attraction, a-b-db, 9, 3, 5, 36, 195, 120, 120, 195, 114, 186, 3, 1.19476
231, 3, bw, filler, NA, 999, 999, 5, 37, 130, 167, 183, 137, 94, 158, 2, 1.13638
231, 3, bw, filler, NA, 999, 999, 5, 37, 130, 167, 183, 137, 94, 158, 3, 0.601976
231, 3, bw, attraction, a-b-db, 14, 2, 6, 1, 90, 165, 83, 153, 165, 90, 3, 8.63968
231, 3, bw, attraction, a-b-db, 14, 2, 6, 1, 90, 165, 83, 153, 165, 90, 2, 0.970986
231, 3, bw, attraction, a-b-da, 5, 3, 6, 2, 120, 195, 190, 117, 195, 120, 2, 1.522
231, 3, bw, attraction, a-b-da, 5, 3, 6, 2, 120, 195, 190, 117, 195, 120, 1, 0.827372
231, 3, bw, attraction, a-b-da, 5, 1, 6, 3, 60, 135, 135, 60, 132, 58, 1, 14.6639
231, 3, bw, attraction, a-b-da, 5, 1, 6, 3, 60, 135, 135, 60, 132, 58, 2, 0.711965
231, 3, bw, catch, NA, 999, 999, 6, 4, 104, 151, 118, 77, 132, 183, 3, 0.72088
231, 3, bw, catch, NA, 999, 999, 6, 4, 104, 151, 118, 77, 132, 183, 2, 0.531507
231, 3, bw, filler, NA, 999, 999, 6, 5, 122, 143, 144, 66, 192, 82, 1, 0.915816
231, 3, bw, filler, NA, 999, 999, 6, 5, 122, 143, 144, 66, 192, 82, 2, 0.574083
231, 3, bw, attraction, a-b-da, 14, 3, 6, 6, 195, 120, 181, 111, 120, 195, 3, 0.732559
231, 3, bw, attraction, a-b-da, 14, 3, 6, 6, 195, 120, 181, 111, 120, 195, 2, 0.534294
231, 3, bw, catch, NA, 999, 999, 6, 7, 87, 108, 152, 163, 93, 162, 2, 0.662725
231, 3, bw, catch, NA, 999, 999, 6, 7, 87, 108, 152, 163, 93, 162, 1, 1.13117
231, 3, bw, attraction, a-b-da, 2, 2, 6, 8, 90, 165, 163, 89, 165, 90, 3, 2.05137
231, 3, bw, attraction, a-b-da, 2, 2, 6, 8, 90, 165, 163, 89, 165, 90, 2, 1.2561
231, 3, bw, attraction, a-b-da, 14, 2, 6, 9, 153, 83, 90, 165, 165, 90, 2, 5.54758
231, 3, bw, attraction, a-b-da, 14, 2, 6, 9, 153, 83, 90, 165, 165, 90, 1, 0.483413
231, 3, bw, filler, NA, 999, 999, 6, 10, 155, 138, 163, 64, 66, 194, 1, 1.01364
231, 3, bw, filler, NA, 999, 999, 6, 10, 155, 138, 163, 64, 66, 194, 2, 0.708084
231, 3, bw, attraction, a-b-db, 5, 3, 6, 11, 120, 195, 117, 190, 195, 120, 1, 1.67697
231, 3, bw, attraction, a-b-db, 5, 3, 6, 11, 120, 195, 117, 190, 195, 120, 3, 0.440517
231, 3, bw, filler, NA, 999, 999, 6, 12, 138, 187, 61, 119, 147, 178, 3, 1.47648
231, 3, bw, filler, NA, 999, 999, 6, 12, 138, 187, 61, 119, 147, 178, 2, 0.919799
231, 3, bw, attraction, a-b-db, 9, 2, 6, 13, 165, 90, 86, 157, 90, 165, 3, 3.22482
231, 3, bw, attraction, a-b-db, 9, 2, 6, 13, 165, 90, 86, 157, 90, 165, 1, 1.10976
231, 3, bw, attraction, a-b-db, 2, 1, 6, 14, 59, 134, 135, 60, 60, 135, 3, 3.63868
231, 3, bw, attraction, a-b-db, 2, 1, 6, 14, 59, 134, 135, 60, 60, 135, 2, 2.12282
231, 3, bw, catch, NA, 999, 999, 6, 15, 146, 169, 158, 97, 78, 117, 1, 1.05953
231, 3, bw, catch, NA, 999, 999, 6, 15, 146, 169, 158, 97, 78, 117, 3, 0.831912
231, 3, bw, attraction, a-b-db, 2, 2, 6, 16, 89, 163, 90, 165, 165, 90, 1, 2.41214
231, 3, bw, attraction, a-b-db, 2, 2, 6, 16, 89, 163, 90, 165, 165, 90, 3, 0.889995
231, 3, bw, attraction, a-b-db, 14, 3, 6, 17, 111, 181, 120, 195, 195, 120, 2, 1.37178
231, 3, bw, attraction, a-b-db, 14, 3, 6, 17, 111, 181, 120, 195, 195, 120, 3, 1.91534
231, 3, bw, attraction, a-b-da, 2, 3, 6, 18, 195, 120, 120, 195, 193, 119, 2, 4.20392
231, 3, bw, attraction, a-b-da, 2, 3, 6, 18, 195, 120, 120, 195, 193, 119, 1, 0.817841
231, 3, bw, filler, NA, 999, 999, 6, 19, 160, 85, 158, 56, 119, 112, 1, 10.8469
231, 3, bw, filler, NA, 999, 999, 6, 19, 160, 85, 158, 56, 119, 112, 2, 0.864856
231, 3, bw, attraction, a-b-db, 9, 3, 6, 20, 114, 186, 195, 120, 120, 195, 3, 8.94784
231, 3, bw, attraction, a-b-db, 9, 3, 6, 20, 114, 186, 195, 120, 120, 195, 2, 0.602392
231, 3, bw, filler, NA, 999, 999, 6, 21, 193, 151, 69, 138, 135, 173, 1, 0.872
231, 3, bw, filler, NA, 999, 999, 6, 21, 193, 151, 69, 138, 135, 173, 2, 0.467874
231, 3, bw, attraction, a-b-da, 9, 3, 6, 22, 120, 195, 195, 120, 186, 114, 2, 1.07897
231, 3, bw, attraction, a-b-da, 9, 3, 6, 22, 120, 195, 195, 120, 186, 114, 3, 2.51455
231, 3, bw, attraction, a-b-db, 14, 1, 6, 23, 135, 60, 56, 125, 60, 135, 3, 2.12308
231, 3, bw, attraction, a-b-db, 14, 1, 6, 23, 135, 60, 56, 125, 60, 135, 1, 0.492357
231, 3, bw, attraction, a-b-db, 2, 3, 6, 24, 195, 120, 120, 195, 119, 193, 2, 4.31818
231, 3, bw, attraction, a-b-db, 2, 3, 6, 24, 195, 120, 120, 195, 119, 193, 3, 0.535339
231, 3, bw, attraction, a-b-db, 5, 1, 6, 25, 58, 132, 60, 135, 135, 60, 2, 1.47187
231, 3, bw, attraction, a-b-db, 5, 1, 6, 25, 58, 132, 60, 135, 135, 60, 3, 3.09135
231, 3, bw, attraction, a-b-da, 9, 1, 6, 26, 135, 60, 129, 57, 60, 135, 3, 2.03641
231, 3, bw, attraction, a-b-da, 9, 1, 6, 26, 135, 60, 129, 57, 60, 135, 2, 0.48992
231, 3, bw, filler, NA, 999, 999, 6, 27, 194, 171, 110, 123, 139, 76, 1, 1.50024
231, 3, bw, filler, NA, 999, 999, 6, 27, 194, 171, 110, 123, 139, 76, 3, 0.766918
231, 3, bw, filler, NA, 999, 999, 6, 28, 110, 85, 103, 163, 163, 189, 3, 0.64609
231, 3, bw, filler, NA, 999, 999, 6, 28, 110, 85, 103, 163, 163, 189, 1, 0.643112
231, 3, bw, attraction, a-b-da, 14, 1, 6, 29, 60, 135, 135, 60, 125, 56, 1, 1.47891
231, 3, bw, attraction, a-b-da, 14, 1, 6, 29, 60, 135, 135, 60, 125, 56, 3, 0.76243
231, 3, bw, attraction, a-b-da, 9, 2, 6, 30, 165, 90, 90, 165, 157, 86, 2, 1.77741
231, 3, bw, attraction, a-b-da, 9, 2, 6, 30, 165, 90, 90, 165, 157, 86, 3, 0.768797
231, 3, bw, attraction, a-b-db, 5, 2, 6, 31, 165, 90, 90, 165, 88, 161, 2, 2.31994
231, 3, bw, attraction, a-b-db, 5, 2, 6, 31, 165, 90, 90, 165, 88, 161, 1, 2.04979
231, 3, bw, filler, NA, 999, 999, 6, 32, 125, 115, 60, 133, 118, 91, 1, 2.149
231, 3, bw, filler, NA, 999, 999, 6, 32, 125, 115, 60, 133, 118, 91, 2, 2.57366
231, 3, bw, attraction, a-b-db, 9, 1, 6, 33, 135, 60, 60, 135, 57, 129, 2, 2.38812
231, 3, bw, attraction, a-b-db, 9, 1, 6, 33, 135, 60, 60, 135, 57, 129, 3, 1.93942
231, 3, bw, filler, NA, 999, 999, 6, 34, 156, 62, 61, 172, 111, 180, 3, 0.899498
231, 3, bw, filler, NA, 999, 999, 6, 34, 156, 62, 61, 172, 111, 180, 2, 1.24656
231, 3, bw, attraction, a-b-da, 2, 1, 6, 35, 135, 60, 134, 59, 60, 135, 1, 4.04198
231, 3, bw, attraction, a-b-da, 2, 1, 6, 35, 135, 60, 134, 59, 60, 135, 3, 4.50203
231, 3, bw, filler, NA, 999, 999, 6, 36, 164, 79, 129, 109, 130, 189, 3, 0.702611
231, 3, bw, filler, NA, 999, 999, 6, 36, 164, 79, 129, 109, 130, 189, 2, 1.1538
231, 3, bw, attraction, a-b-da, 5, 2, 6, 37, 165, 90, 90, 165, 161, 88, 2, 1.9612
231, 3, bw, attraction, a-b-da, 5, 2, 6, 37, 165, 90, 90, 165, 161, 88, 3, 0.8653
231, 3, bw, attraction, a-b-db, 9, 3, 7, 1, 195, 120, 120, 195, 114, 186, 2, 0.948241
231, 3, bw, attraction, a-b-db, 9, 3, 7, 1, 195, 120, 120, 195, 114, 186, 3, 0.805304
231, 3, bw, attraction, a-b-da, 9, 2, 7, 2, 157, 86, 90, 165, 165, 90, 2, 2.603
231, 3, bw, attraction, a-b-da, 9, 2, 7, 2, 157, 86, 90, 165, 165, 90, 1, 1.29747
231, 3, bw, attraction, a-b-db, 2, 2, 7, 3, 165, 90, 90, 165, 89, 163, 3, 4.88306
231, 3, bw, attraction, a-b-db, 2, 2, 7, 3, 165, 90, 90, 165, 89, 163, 1, 1.51825
231, 3, bw, attraction, a-b-da, 5, 2, 7, 4, 165, 90, 90, 165, 161, 88, 2, 2.0863
231, 3, bw, attraction, a-b-da, 5, 2, 7, 4, 165, 90, 90, 165, 161, 88, 3, 0.561671
231, 3, bw, attraction, a-b-da, 14, 3, 7, 5, 195, 120, 120, 195, 181, 111, 2, 2.88072
231, 3, bw, attraction, a-b-da, 14, 3, 7, 5, 195, 120, 120, 195, 181, 111, 3, 0.699869
231, 3, bw, attraction, a-b-db, 9, 2, 7, 6, 165, 90, 86, 157, 90, 165, 3, 5.25346
231, 3, bw, attraction, a-b-db, 9, 2, 7, 6, 165, 90, 86, 157, 90, 165, 2, 0.713172
231, 3, bw, filler, NA, 999, 999, 7, 7, 108, 119, 76, 168, 192, 164, 3, 0.83422
231, 3, bw, filler, NA, 999, 999, 7, 7, 108, 119, 76, 168, 192, 164, 2, 2.49602
231, 3, bw, catch, NA, 999, 999, 7, 8, 92, 163, 132, 183, 104, 91, 2, 3.48099
231, 3, bw, catch, NA, 999, 999, 7, 8, 92, 163, 132, 183, 104, 91, 3, 0.588087
231, 3, bw, filler, NA, 999, 999, 7, 9, 167, 154, 74, 114, 164, 187, 3, 1.02634
231, 3, bw, filler, NA, 999, 999, 7, 9, 167, 154, 74, 114, 164, 187, 2, 0.984133
231, 3, bw, attraction, a-b-da, 5, 3, 7, 10, 120, 195, 190, 117, 195, 120, 1, 2.7424
231, 3, bw, attraction, a-b-da, 5, 3, 7, 10, 120, 195, 190, 117, 195, 120, 3, 0.886893
231, 3, bw, catch, NA, 999, 999, 7, 11, 123, 72, 177, 138, 155, 100, 2, 1.20119
231, 3, bw, catch, NA, 999, 999, 7, 11, 123, 72, 177, 138, 155, 100, 1, 0.68805
231, 3, bw, attraction, a-b-db, 5, 2, 7, 12, 165, 90, 90, 165, 88, 161, 2, 2.64245
231, 3, bw, attraction, a-b-db, 5, 2, 7, 12, 165, 90, 90, 165, 88, 161, 1, 0.75908
231, 3, bw, attraction, a-b-da, 14, 2, 7, 13, 153, 83, 165, 90, 90, 165, 3, 2.30997
231, 3, bw, attraction, a-b-da, 14, 2, 7, 13, 153, 83, 165, 90, 90, 165, 1, 0.983841
231, 3, bw, attraction, a-b-db, 2, 3, 7, 14, 119, 193, 120, 195, 195, 120, 2, 8.38236
231, 3, bw, attraction, a-b-db, 2, 3, 7, 14, 119, 193, 120, 195, 195, 120, 3, 3.06758
231, 3, bw, attraction, a-b-db, 5, 1, 7, 15, 58, 132, 135, 60, 60, 135, 3, 2.22987
231, 3, bw, attraction, a-b-db, 5, 1, 7, 15, 58, 132, 135, 60, 60, 135, 2, 0.611112
231, 3, bw, attraction, a-b-da, 2, 1, 7, 16, 134, 59, 60, 135, 135, 60, 2, 1.29624
231, 3, bw, attraction, a-b-da, 2, 1, 7, 16, 134, 59, 60, 135, 135, 60, 3, 0.475152
231, 3, bw, filler, NA, 999, 999, 7, 17, 121, 76, 83, 122, 108, 117, 3, 0.885705
231, 3, bw, filler, NA, 999, 999, 7, 17, 121, 76, 83, 122, 108, 117, 1, 0.665211
231, 3, bw, filler, NA, 999, 999, 7, 18, 177, 79, 58, 105, 58, 89, 1, 1.03625
231, 3, bw, filler, NA, 999, 999, 7, 18, 177, 79, 58, 105, 58, 89, 3, 1.04196
231, 3, bw, filler, NA, 999, 999, 7, 19, 106, 190, 191, 164, 143, 138, 2, 0.805734
231, 3, bw, filler, NA, 999, 999, 7, 19, 106, 190, 191, 164, 143, 138, 1, 3.30004
231, 3, bw, attraction, a-b-db, 14, 1, 7, 20, 60, 135, 56, 125, 135, 60, 2, 1.49291
231, 3, bw, attraction, a-b-db, 14, 1, 7, 20, 60, 135, 56, 125, 135, 60, 3, 0.567782
231, 3, bw, attraction, a-b-db, 14, 3, 7, 21, 195, 120, 111, 181, 120, 195, 3, 1.84684
231, 3, bw, attraction, a-b-db, 14, 3, 7, 21, 195, 120, 111, 181, 120, 195, 2, 0.811662
231, 3, bw, attraction, a-b-da, 5, 1, 7, 22, 60, 135, 132, 58, 135, 60, 1, 1.99251
231, 3, bw, attraction, a-b-da, 5, 1, 7, 22, 60, 135, 132, 58, 135, 60, 2, 1.53537
231, 3, bw, attraction, a-b-da, 2, 3, 7, 23, 195, 120, 193, 119, 120, 195, 3, 5.12741
231, 3, bw, attraction, a-b-da, 2, 3, 7, 23, 195, 120, 193, 119, 120, 195, 2, 0.68794
231, 3, bw, attraction, a-b-db, 2, 1, 7, 24, 135, 60, 60, 135, 59, 134, 2, 1.33019
231, 3, bw, attraction, a-b-db, 2, 1, 7, 24, 135, 60, 60, 135, 59, 134, 1, 1.18782
231, 3, bw, filler, NA, 999, 999, 7, 25, 137, 77, 158, 170, 179, 59, 2, 1.75397
231, 3, bw, filler, NA, 999, 999, 7, 25, 137, 77, 158, 170, 179, 59, 3, 0.722935
231, 3, bw, filler, NA, 999, 999, 7, 26, 161, 112, 185, 150, 137, 59, 2, 0.995857
231, 3, bw, filler, NA, 999, 999, 7, 26, 161, 112, 185, 150, 137, 59, 3, 0.650707
231, 3, bw, attraction, a-b-db, 9, 1, 7, 27, 60, 135, 135, 60, 57, 129, 1, 1.69461
231, 3, bw, attraction, a-b-db, 9, 1, 7, 27, 60, 135, 135, 60, 57, 129, 2, 0.609298
231, 3, bw, attraction, a-b-da, 9, 3, 7, 28, 195, 120, 186, 114, 120, 195, 3, 2.18248
231, 3, bw, attraction, a-b-da, 9, 3, 7, 28, 195, 120, 186, 114, 120, 195, 2, 0.709754
231, 3, bw, attraction, a-b-db, 5, 3, 7, 29, 195, 120, 117, 190, 120, 195, 2, 3.64678
231, 3, bw, attraction, a-b-db, 5, 3, 7, 29, 195, 120, 117, 190, 120, 195, 1, 0.490898
231, 3, bw, filler, NA, 999, 999, 7, 30, 129, 138, 67, 191, 121, 122, 1, 1.47679
231, 3, bw, filler, NA, 999, 999, 7, 30, 129, 138, 67, 191, 121, 122, 2, 1.05626
231, 3, bw, catch, NA, 999, 999, 7, 31, 127, 68, 124, 131, 165, 150, 3, 1.14771
231, 3, bw, catch, NA, 999, 999, 7, 31, 127, 68, 124, 131, 165, 150, 1, 0.508762
231, 3, bw, filler, NA, 999, 999, 7, 32, 190, 64, 67, 77, 145, 150, 3, 1.10983
231, 3, bw, filler, NA, 999, 999, 7, 32, 190, 64, 67, 77, 145, 150, 2, 0.616232
231, 3, bw, attraction, a-b-da, 9, 1, 7, 33, 129, 57, 60, 135, 135, 60, 2, 4.86925
231, 3, bw, attraction, a-b-da, 9, 1, 7, 33, 129, 57, 60, 135, 135, 60, 1, 0.984483
231, 3, bw, attraction, a-b-da, 14, 1, 7, 34, 135, 60, 60, 135, 125, 56, 2, 2.63868
231, 3, bw, attraction, a-b-da, 14, 1, 7, 34, 135, 60, 60, 135, 125, 56, 3, 0.683184
231, 3, bw, attraction, a-b-db, 14, 2, 7, 35, 90, 165, 165, 90, 83, 153, 1, 1.36548
231, 3, bw, attraction, a-b-db, 14, 2, 7, 35, 90, 165, 165, 90, 83, 153, 2, 0.661869
231, 3, bw, filler, NA, 999, 999, 7, 36, 184, 154, 65, 88, 62, 171, 1, 1.0168
231, 3, bw, filler, NA, 999, 999, 7, 36, 184, 154, 65, 88, 62, 171, 2, 0.927123
231, 3, bw, attraction, a-b-da, 2, 2, 7, 37, 90, 165, 163, 89, 165, 90, 1, 2.62339
231, 3, bw, attraction, a-b-da, 2, 2, 7, 37, 90, 165, 163, 89, 165, 90, 2, 1.72462
231, 3, bw, attraction, a-b-db, 9, 1, 8, 1, 60, 135, 135, 60, 57, 129, 3, 5.7007
231, 3, bw, attraction, a-b-db, 9, 1, 8, 1, 60, 135, 135, 60, 57, 129, 2, 0.942205
231, 3, bw, filler, NA, 999, 999, 8, 2, 92, 179, 113, 158, 187, 107, 2, 1.33377
231, 3, bw, filler, NA, 999, 999, 8, 2, 92, 179, 113, 158, 187, 107, 1, 0.711343
231, 3, bw, attraction, a-b-da, 14, 3, 8, 3, 195, 120, 181, 111, 120, 195, 1, 1.29638
231, 3, bw, attraction, a-b-da, 14, 3, 8, 3, 195, 120, 181, 111, 120, 195, 2, 0.843365
231, 3, bw, attraction, a-b-da, 9, 2, 8, 4, 90, 165, 165, 90, 157, 86, 1, 2.75898
231, 3, bw, attraction, a-b-da, 9, 2, 8, 4, 90, 165, 165, 90, 157, 86, 2, 1.2068
231, 3, bw, attraction, a-b-da, 14, 2, 8, 5, 153, 83, 90, 165, 165, 90, 3, 1.47574
231, 3, bw, attraction, a-b-da, 14, 2, 8, 5, 153, 83, 90, 165, 165, 90, 2, 0.703248
231, 3, bw, filler, NA, 999, 999, 8, 6, 163, 126, 90, 69, 170, 186, 3, 0.792983
231, 3, bw, filler, NA, 999, 999, 8, 6, 163, 126, 90, 69, 170, 186, 2, 0.799996
231, 3, bw, catch, NA, 999, 999, 8, 7, 71, 124, 90, 165, 184, 131, 3, 1.18166
231, 3, bw, catch, NA, 999, 999, 8, 7, 71, 124, 90, 165, 184, 131, 1, 0.517337
231, 3, bw, attraction, a-b-db, 2, 2, 8, 8, 90, 165, 89, 163, 165, 90, 1, 1.47855
231, 3, bw, attraction, a-b-db, 2, 2, 8, 8, 90, 165, 89, 163, 165, 90, 3, 0.689892
231, 3, bw, attraction, a-b-db, 2, 1, 8, 9, 59, 134, 135, 60, 60, 135, 3, 1.90835
231, 3, bw, attraction, a-b-db, 2, 1, 8, 9, 59, 134, 135, 60, 60, 135, 2, 0.574431
231, 3, bw, filler, NA, 999, 999, 8, 10, 169, 58, 106, 93, 189, 180, 3, 0.54078
231, 3, bw, filler, NA, 999, 999, 8, 10, 169, 58, 106, 93, 189, 180, 2, 0.590008
231, 3, bw, attraction, a-b-db, 5, 2, 8, 11, 88, 161, 90, 165, 165, 90, 2, 1.38763
231, 3, bw, attraction, a-b-db, 5, 2, 8, 11, 88, 161, 90, 165, 165, 90, 3, 0.587274
231, 3, bw, attraction, a-b-da, 5, 3, 8, 12, 190, 117, 120, 195, 195, 120, 2, 1.07363
231, 3, bw, attraction, a-b-da, 5, 3, 8, 12, 190, 117, 120, 195, 195, 120, 3, 1.21329
231, 3, bw, filler, NA, 999, 999, 8, 13, 101, 121, 165, 115, 105, 184, 2, 3.52224
231, 3, bw, filler, NA, 999, 999, 8, 13, 101, 121, 165, 115, 105, 184, 1, 1.00303
231, 3, bw, attraction, a-b-db, 5, 1, 8, 14, 58, 132, 60, 135, 135, 60, 1, 3.01666
231, 3, bw, attraction, a-b-db, 5, 1, 8, 14, 58, 132, 60, 135, 135, 60, 3, 0.902374
231, 3, bw, attraction, a-b-da, 5, 1, 8, 15, 132, 58, 60, 135, 135, 60, 2, 1.37622
231, 3, bw, attraction, a-b-da, 5, 1, 8, 15, 132, 58, 60, 135, 135, 60, 3, 1.26361
231, 3, bw, attraction, a-b-da, 5, 2, 8, 16, 90, 165, 161, 88, 165, 90, 1, 0.938463
231, 3, bw, attraction, a-b-da, 5, 2, 8, 16, 90, 165, 161, 88, 165, 90, 2, 0.579444
231, 3, bw, attraction, a-b-da, 2, 2, 8, 17, 165, 90, 163, 89, 90, 165, 3, 1.65794
231, 3, bw, attraction, a-b-da, 2, 2, 8, 17, 165, 90, 163, 89, 90, 165, 2, 0.485964
231, 3, bw, catch, NA, 999, 999, 8, 18, 158, 97, 67, 128, 191, 124, 3, 0.816512
231, 3, bw, catch, NA, 999, 999, 8, 18, 158, 97, 67, 128, 191, 124, 2, 1.64686
231, 3, bw, attraction, a-b-db, 14, 1, 8, 19, 60, 135, 56, 125, 135, 60, 2, 2.20225
231, 3, bw, attraction, a-b-db, 14, 1, 8, 19, 60, 135, 56, 125, 135, 60, 3, 0.657054
231, 3, bw, attraction, a-b-da, 14, 1, 8, 20, 60, 135, 125, 56, 135, 60, 1, 0.79595
231, 3, bw, attraction, a-b-da, 14, 1, 8, 20, 60, 135, 125, 56, 135, 60, 2, 0.554971
231, 3, bw, attraction, a-b-da, 9, 1, 8, 21, 60, 135, 129, 57, 135, 60, 1, 1.28273
231, 3, bw, attraction, a-b-da, 9, 1, 8, 21, 60, 135, 129, 57, 135, 60, 2, 0.606348
231, 3, bw, attraction, a-b-db, 14, 3, 8, 22, 111, 181, 195, 120, 120, 195, 3, 1.67612
231, 3, bw, attraction, a-b-db, 14, 3, 8, 22, 111, 181, 195, 120, 120, 195, 1, 1.38359
231, 3, bw, catch, NA, 999, 999, 8, 23, 85, 110, 162, 93, 168, 147, 3, 0.805845
231, 3, bw, catch, NA, 999, 999, 8, 23, 85, 110, 162, 93, 168, 147, 1, 0.732301
231, 3, bw, attraction, a-b-db, 14, 2, 8, 24, 83, 153, 90, 165, 165, 90, 2, 1.4606
231, 3, bw, attraction, a-b-db, 14, 2, 8, 24, 83, 153, 90, 165, 165, 90, 1, 1.03273
231, 3, bw, attraction, a-b-da, 2, 1, 8, 25, 134, 59, 135, 60, 60, 135, 3, 2.67703
231, 3, bw, attraction, a-b-da, 2, 1, 8, 25, 134, 59, 135, 60, 60, 135, 2, 0.544093
231, 3, bw, attraction, a-b-db, 5, 3, 8, 26, 195, 120, 117, 190, 120, 195, 3, 2.74383
231, 3, bw, attraction, a-b-db, 5, 3, 8, 26, 195, 120, 117, 190, 120, 195, 1, 0.840475
231, 3, bw, attraction, a-b-da, 2, 3, 8, 27, 193, 119, 195, 120, 120, 195, 2, 6.30812
231, 3, bw, attraction, a-b-da, 2, 3, 8, 27, 193, 119, 195, 120, 120, 195, 1, 0.796862
231, 3, bw, filler, NA, 999, 999, 8, 28, 118, 146, 166, 110, 174, 62, 1, 3.28231
231, 3, bw, filler, NA, 999, 999, 8, 28, 118, 146, 166, 110, 174, 62, 3, 0.853336
231, 3, bw, filler, NA, 999, 999, 8, 29, 64, 58, 177, 80, 64, 147, 2, 1.65708
231, 3, bw, filler, NA, 999, 999, 8, 29, 64, 58, 177, 80, 64, 147, 1, 0.7411
231, 3, bw, filler, NA, 999, 999, 8, 30, 164, 128, 188, 174, 128, 145, 2, 0.876964
231, 3, bw, filler, NA, 999, 999, 8, 30, 164, 128, 188, 174, 128, 145, 3, 0.592523
231, 3, bw, attraction, a-b-db, 9, 3, 8, 31, 114, 186, 120, 195, 195, 120, 2, 1.85427
231, 3, bw, attraction, a-b-db, 9, 3, 8, 31, 114, 186, 120, 195, 195, 120, 3, 0.643106
231, 3, bw, attraction, a-b-db, 9, 2, 8, 32, 90, 165, 86, 157, 165, 90, 1, 1.1188
231, 3, bw, attraction, a-b-db, 9, 2, 8, 32, 90, 165, 86, 157, 165, 90, 3, 0.801011
231, 3, bw, filler, NA, 999, 999, 8, 33, 61, 88, 181, 119, 123, 59, 2, 1.39876
231, 3, bw, filler, NA, 999, 999, 8, 33, 61, 88, 181, 119, 123, 59, 1, 0.829634
231, 3, bw, attraction, a-b-db, 2, 3, 8, 34, 119, 193, 120, 195, 195, 120, 1, 1.13009
231, 3, bw, attraction, a-b-db, 2, 3, 8, 34, 119, 193, 120, 195, 195, 120, 3, 0.955529
231, 3, bw, attraction, a-b-da, 9, 3, 8, 35, 195, 120, 120, 195, 186, 114, 2, 1.16328
231, 3, bw, attraction, a-b-da, 9, 3, 8, 35, 195, 120, 120, 195, 186, 114, 3, 0.66751
231, 3, bw, filler, NA, 999, 999, 8, 36, 116, 159, 136, 147, 107, 111, 1, 0.782584
231, 3, bw, filler, NA, 999, 999, 8, 36, 116, 159, 136, 147, 107, 111, 3, 0.598269
231, 3, bw, filler, NA, 999, 999, 8, 37, 142, 102, 131, 132, 76, 111, 2, 1.74815
231, 3, bw, filler, NA, 999, 999, 8, 37, 142, 102, 131, 132, 76, 111, 3, 0.580916
