sub_n, computer_n, bw_cond, effect, set, distance, diag, block_n, trial_n, h1, w1, h2, w2, h3, w3, choice, rt 
218, 3, wb, practice, NA, 999, 999, 0, 1, 195, 186, 100, 125, 138, 146, 2, 2.51652
218, 3, wb, practice, NA, 999, 999, 0, 1, 195, 186, 100, 125, 138, 146, 1, 4.25315
218, 3, wb, practice, NA, 999, 999, 0, 2, 126, 81, 150, 61, 60, 158, 2, 3.27838
218, 3, wb, practice, NA, 999, 999, 0, 2, 126, 81, 150, 61, 60, 158, 1, 1.61791
218, 3, wb, practice, NA, 999, 999, 0, 3, 87, 191, 149, 63, 136, 66, 3, 4.08995
218, 3, wb, practice, NA, 999, 999, 0, 3, 87, 191, 149, 63, 136, 66, 1, 1.20394
218, 3, wb, catch, NA, 999, 999, 1, 1, 128, 67, 125, 190, 134, 121, 1, 1.55795
218, 3, wb, catch, NA, 999, 999, 1, 1, 128, 67, 125, 190, 134, 121, 2, 1.43022
218, 3, wb, attraction, a-b-da, 9, 1, 1, 2, 60, 135, 135, 60, 129, 57, 3, 2.2263
218, 3, wb, attraction, a-b-da, 9, 1, 1, 2, 60, 135, 135, 60, 129, 57, 1, 0.751529
218, 3, wb, attraction, a-b-db, 5, 2, 1, 3, 88, 161, 90, 165, 165, 90, 2, 6.99937
218, 3, wb, attraction, a-b-db, 5, 2, 1, 3, 88, 161, 90, 165, 165, 90, 3, 2.02049
218, 3, wb, filler, NA, 999, 999, 1, 4, 98, 118, 92, 113, 97, 110, 3, 4.96903
218, 3, wb, filler, NA, 999, 999, 1, 4, 98, 118, 92, 113, 97, 110, 1, 0.704142
218, 3, wb, filler, NA, 999, 999, 1, 5, 138, 136, 166, 58, 66, 182, 2, 6.18577
218, 3, wb, filler, NA, 999, 999, 1, 5, 138, 136, 166, 58, 66, 182, 1, 0.895905
218, 3, wb, catch, NA, 999, 999, 1, 6, 64, 131, 131, 124, 179, 136, 1, 1.84948
218, 3, wb, catch, NA, 999, 999, 1, 6, 64, 131, 131, 124, 179, 136, 3, 0.654309
218, 3, wb, attraction, a-b-da, 9, 2, 1, 7, 157, 86, 90, 165, 165, 90, 3, 3.49799
218, 3, wb, attraction, a-b-da, 9, 2, 1, 7, 157, 86, 90, 165, 165, 90, 2, 0.428221
218, 3, wb, attraction, a-b-da, 5, 1, 1, 8, 60, 135, 132, 58, 135, 60, 2, 3.92074
218, 3, wb, attraction, a-b-da, 5, 1, 1, 8, 60, 135, 132, 58, 135, 60, 1, 1.45009
218, 3, wb, attraction, a-b-db, 9, 3, 1, 9, 120, 195, 195, 120, 114, 186, 3, 2.20554
218, 3, wb, attraction, a-b-db, 9, 3, 1, 9, 120, 195, 195, 120, 114, 186, 1, 4.27566
218, 3, wb, attraction, a-b-db, 9, 2, 1, 10, 90, 165, 165, 90, 86, 157, 3, 1.78078
218, 3, wb, attraction, a-b-db, 9, 2, 1, 10, 90, 165, 165, 90, 86, 157, 1, 0.532259
218, 3, wb, filler, NA, 999, 999, 1, 11, 185, 146, 60, 126, 143, 141, 2, 6.53264
218, 3, wb, filler, NA, 999, 999, 1, 11, 185, 146, 60, 126, 143, 141, 1, 0.59667
218, 3, wb, attraction, a-b-da, 2, 2, 1, 12, 165, 90, 163, 89, 90, 165, 3, 3.1785
218, 3, wb, attraction, a-b-da, 2, 2, 1, 12, 165, 90, 163, 89, 90, 165, 1, 3.80128
218, 3, wb, attraction, a-b-da, 14, 3, 1, 13, 120, 195, 181, 111, 195, 120, 2, 2.41403
218, 3, wb, attraction, a-b-da, 14, 3, 1, 13, 120, 195, 181, 111, 195, 120, 1, 0.508149
218, 3, wb, attraction, a-b-db, 2, 3, 1, 14, 119, 193, 120, 195, 195, 120, 3, 9.76516
218, 3, wb, attraction, a-b-db, 2, 3, 1, 14, 119, 193, 120, 195, 195, 120, 1, 0.498606
218, 3, wb, filler, NA, 999, 999, 1, 15, 181, 75, 101, 171, 147, 59, 3, 0.892417
218, 3, wb, filler, NA, 999, 999, 1, 15, 181, 75, 101, 171, 147, 59, 2, 0.423447
218, 3, wb, filler, NA, 999, 999, 1, 16, 130, 173, 70, 95, 101, 78, 2, 1.17191
218, 3, wb, filler, NA, 999, 999, 1, 16, 130, 173, 70, 95, 101, 78, 1, 0.299614
218, 3, wb, filler, NA, 999, 999, 1, 17, 79, 77, 141, 96, 163, 113, 1, 0.901498
218, 3, wb, filler, NA, 999, 999, 1, 17, 79, 77, 141, 96, 163, 113, 3, 0.7845
218, 3, wb, attraction, a-b-db, 5, 1, 1, 18, 60, 135, 135, 60, 58, 132, 3, 1.89482
218, 3, wb, attraction, a-b-db, 5, 1, 1, 18, 60, 135, 135, 60, 58, 132, 2, 0.977573
218, 3, wb, attraction, a-b-db, 14, 1, 1, 19, 56, 125, 135, 60, 60, 135, 1, 4.12775
218, 3, wb, attraction, a-b-db, 14, 1, 1, 19, 56, 125, 135, 60, 60, 135, 2, 0.400559
218, 3, wb, attraction, a-b-db, 2, 1, 1, 20, 60, 135, 59, 134, 135, 60, 1, 10.5024
218, 3, wb, attraction, a-b-db, 2, 1, 1, 20, 60, 135, 59, 134, 135, 60, 3, 0.518523
218, 3, wb, attraction, a-b-da, 5, 2, 1, 21, 90, 165, 165, 90, 161, 88, 3, 1.9835
218, 3, wb, attraction, a-b-da, 5, 2, 1, 21, 90, 165, 165, 90, 161, 88, 1, 0.830881
218, 3, wb, attraction, a-b-db, 14, 3, 1, 22, 111, 181, 120, 195, 195, 120, 1, 8.12311
218, 3, wb, attraction, a-b-db, 14, 3, 1, 22, 111, 181, 120, 195, 195, 120, 3, 0.435287
218, 3, wb, filler, NA, 999, 999, 1, 23, 166, 188, 115, 182, 105, 153, 3, 0.727761
218, 3, wb, filler, NA, 999, 999, 1, 23, 166, 188, 115, 182, 105, 153, 1, 0.53745
218, 3, wb, attraction, a-b-da, 14, 1, 1, 24, 60, 135, 125, 56, 135, 60, 2, 6.60189
218, 3, wb, attraction, a-b-da, 14, 1, 1, 24, 60, 135, 125, 56, 135, 60, 1, 0.591121
218, 3, wb, filler, NA, 999, 999, 1, 25, 167, 66, 83, 60, 164, 176, 2, 0.940878
218, 3, wb, filler, NA, 999, 999, 1, 25, 167, 66, 83, 60, 164, 176, 3, 0.229889
218, 3, wb, attraction, a-b-da, 2, 1, 1, 26, 134, 59, 60, 135, 135, 60, 2, 3.79447
218, 3, wb, attraction, a-b-da, 2, 1, 1, 26, 134, 59, 60, 135, 135, 60, 3, 0.728586
218, 3, wb, attraction, a-b-db, 5, 3, 1, 27, 195, 120, 117, 190, 120, 195, 3, 3.12095
218, 3, wb, attraction, a-b-db, 5, 3, 1, 27, 195, 120, 117, 190, 120, 195, 1, 0.914646
218, 3, wb, attraction, a-b-da, 14, 2, 1, 28, 165, 90, 90, 165, 153, 83, 3, 7.67565
218, 3, wb, attraction, a-b-da, 14, 2, 1, 28, 165, 90, 90, 165, 153, 83, 1, 2.72524
218, 3, wb, attraction, a-b-db, 14, 2, 1, 29, 90, 165, 83, 153, 165, 90, 2, 2.22896
218, 3, wb, attraction, a-b-db, 14, 2, 1, 29, 90, 165, 83, 153, 165, 90, 3, 1.08222
218, 3, wb, catch, NA, 999, 999, 1, 30, 128, 127, 162, 153, 99, 96, 3, 0.756484
218, 3, wb, catch, NA, 999, 999, 1, 30, 128, 127, 162, 153, 99, 96, 2, 0.677047
218, 3, wb, attraction, a-b-db, 9, 1, 1, 31, 57, 129, 60, 135, 135, 60, 1, 2.54334
218, 3, wb, attraction, a-b-db, 9, 1, 1, 31, 57, 129, 60, 135, 135, 60, 3, 1.15985
218, 3, wb, attraction, a-b-da, 5, 3, 1, 32, 120, 195, 190, 117, 195, 120, 3, 8.59078
218, 3, wb, attraction, a-b-da, 5, 3, 1, 32, 120, 195, 190, 117, 195, 120, 1, 3.96342
218, 3, wb, filler, NA, 999, 999, 1, 33, 158, 138, 140, 187, 114, 182, 3, 1.59337
218, 3, wb, filler, NA, 999, 999, 1, 33, 158, 138, 140, 187, 114, 182, 2, 0.864209
218, 3, wb, filler, NA, 999, 999, 1, 34, 154, 142, 190, 107, 156, 150, 2, 5.73125
218, 3, wb, filler, NA, 999, 999, 1, 34, 154, 142, 190, 107, 156, 150, 3, 0.987441
218, 3, wb, attraction, a-b-db, 2, 2, 1, 35, 89, 163, 90, 165, 165, 90, 2, 3.53775
218, 3, wb, attraction, a-b-db, 2, 2, 1, 35, 89, 163, 90, 165, 165, 90, 3, 0.682593
218, 3, wb, attraction, a-b-da, 2, 3, 1, 36, 195, 120, 120, 195, 193, 119, 3, 4.22096
218, 3, wb, attraction, a-b-da, 2, 3, 1, 36, 195, 120, 120, 195, 193, 119, 1, 0.5382
218, 3, wb, attraction, a-b-da, 9, 3, 1, 37, 186, 114, 195, 120, 120, 195, 2, 10.6428
218, 3, wb, attraction, a-b-da, 9, 3, 1, 37, 186, 114, 195, 120, 120, 195, 3, 0.508822
218, 3, wb, attraction, a-b-da, 5, 3, 2, 1, 120, 195, 190, 117, 195, 120, 2, 2.05389
218, 3, wb, attraction, a-b-da, 5, 3, 2, 1, 120, 195, 190, 117, 195, 120, 1, 0.602499
218, 3, wb, attraction, a-b-da, 14, 3, 2, 2, 181, 111, 195, 120, 120, 195, 1, 4.16826
218, 3, wb, attraction, a-b-da, 14, 3, 2, 2, 181, 111, 195, 120, 120, 195, 3, 0.57571
218, 3, wb, attraction, a-b-db, 14, 3, 2, 3, 195, 120, 111, 181, 120, 195, 2, 11.9901
218, 3, wb, attraction, a-b-db, 14, 3, 2, 3, 195, 120, 111, 181, 120, 195, 1, 0.402368
218, 3, wb, attraction, a-b-da, 2, 2, 2, 4, 163, 89, 165, 90, 90, 165, 3, 2.19207
218, 3, wb, attraction, a-b-da, 2, 2, 2, 4, 163, 89, 165, 90, 90, 165, 2, 1.95883
218, 3, wb, attraction, a-b-db, 5, 2, 2, 5, 90, 165, 88, 161, 165, 90, 1, 1.91736
218, 3, wb, attraction, a-b-db, 5, 2, 2, 5, 90, 165, 88, 161, 165, 90, 3, 0.639387
218, 3, wb, filler, NA, 999, 999, 2, 6, 106, 133, 129, 180, 104, 161, 1, 1.3638
218, 3, wb, filler, NA, 999, 999, 2, 6, 106, 133, 129, 180, 104, 161, 2, 0.500185
218, 3, wb, attraction, a-b-da, 2, 1, 2, 7, 60, 135, 135, 60, 134, 59, 2, 15.5418
218, 3, wb, attraction, a-b-da, 2, 1, 2, 7, 60, 135, 135, 60, 134, 59, 3, 0.466939
218, 3, wb, filler, NA, 999, 999, 2, 8, 169, 153, 87, 75, 141, 153, 2, 1.66998
218, 3, wb, filler, NA, 999, 999, 2, 8, 169, 153, 87, 75, 141, 153, 1, 0.754103
218, 3, wb, attraction, a-b-da, 14, 2, 2, 9, 165, 90, 90, 165, 153, 83, 3, 1.87394
218, 3, wb, attraction, a-b-da, 14, 2, 2, 9, 165, 90, 90, 165, 153, 83, 2, 10.7413
218, 3, wb, filler, NA, 999, 999, 2, 10, 117, 81, 146, 87, 69, 62, 3, 0.962521
218, 3, wb, filler, NA, 999, 999, 2, 10, 117, 81, 146, 87, 69, 62, 2, 0.410929
218, 3, wb, attraction, a-b-da, 9, 2, 2, 11, 165, 90, 157, 86, 90, 165, 2, 4.14391
218, 3, wb, attraction, a-b-da, 9, 2, 2, 11, 165, 90, 157, 86, 90, 165, 1, 0.368022
218, 3, wb, catch, NA, 999, 999, 2, 12, 158, 97, 181, 134, 78, 117, 3, 0.639122
218, 3, wb, catch, NA, 999, 999, 2, 12, 158, 97, 181, 134, 78, 117, 2, 0.324291
218, 3, wb, catch, NA, 999, 999, 2, 13, 171, 144, 120, 135, 83, 112, 3, 0.54879
218, 3, wb, catch, NA, 999, 999, 2, 13, 171, 144, 120, 135, 83, 112, 1, 0.766054
218, 3, wb, attraction, a-b-db, 2, 1, 2, 14, 60, 135, 135, 60, 59, 134, 2, 2.37286
218, 3, wb, attraction, a-b-db, 2, 1, 2, 14, 60, 135, 135, 60, 59, 134, 1, 1.10016
218, 3, wb, filler, NA, 999, 999, 2, 15, 91, 67, 96, 188, 56, 89, 3, 3.62969
218, 3, wb, filler, NA, 999, 999, 2, 15, 91, 67, 96, 188, 56, 89, 2, 0.354789
218, 3, wb, catch, NA, 999, 999, 2, 16, 148, 167, 90, 105, 125, 130, 2, 1.02646
218, 3, wb, catch, NA, 999, 999, 2, 16, 148, 167, 90, 105, 125, 130, 1, 0.400122
218, 3, wb, attraction, a-b-da, 9, 1, 2, 17, 60, 135, 129, 57, 135, 60, 2, 29.7979
218, 3, wb, attraction, a-b-da, 9, 1, 2, 17, 60, 135, 129, 57, 135, 60, 3, 1.41984
218, 3, wb, attraction, a-b-db, 9, 3, 2, 18, 195, 120, 114, 186, 120, 195, 2, 3.95279
218, 3, wb, attraction, a-b-db, 9, 3, 2, 18, 195, 120, 114, 186, 120, 195, 1, 0.784901
218, 3, wb, filler, NA, 999, 999, 2, 19, 100, 171, 61, 92, 80, 193, 2, 1.00722
218, 3, wb, filler, NA, 999, 999, 2, 19, 100, 171, 61, 92, 80, 193, 1, 0.341428
218, 3, wb, filler, NA, 999, 999, 2, 20, 193, 68, 102, 124, 166, 60, 3, 0.973388
218, 3, wb, filler, NA, 999, 999, 2, 20, 193, 68, 102, 124, 166, 60, 2, 1.14914
218, 3, wb, attraction, a-b-db, 5, 3, 2, 21, 117, 190, 120, 195, 195, 120, 3, 3.32465
218, 3, wb, attraction, a-b-db, 5, 3, 2, 21, 117, 190, 120, 195, 195, 120, 1, 1.62163
218, 3, wb, filler, NA, 999, 999, 2, 22, 173, 170, 127, 127, 193, 161, 2, 3.2104
218, 3, wb, filler, NA, 999, 999, 2, 22, 173, 170, 127, 127, 193, 161, 3, 0.471906
218, 3, wb, attraction, a-b-db, 2, 3, 2, 23, 119, 193, 120, 195, 195, 120, 2, 1.8831
218, 3, wb, attraction, a-b-db, 2, 3, 2, 23, 119, 193, 120, 195, 195, 120, 3, 0.374482
218, 3, wb, filler, NA, 999, 999, 2, 24, 56, 160, 121, 124, 67, 171, 1, 1.87689
218, 3, wb, filler, NA, 999, 999, 2, 24, 56, 160, 121, 124, 67, 171, 2, 0.640387
218, 3, wb, attraction, a-b-da, 5, 2, 2, 25, 165, 90, 90, 165, 161, 88, 3, 15.0121
218, 3, wb, attraction, a-b-da, 5, 2, 2, 25, 165, 90, 90, 165, 161, 88, 2, 0.397929
218, 3, wb, filler, NA, 999, 999, 2, 26, 180, 191, 112, 88, 111, 185, 2, 1.26772
218, 3, wb, filler, NA, 999, 999, 2, 26, 180, 191, 112, 88, 111, 185, 1, 0.328093
218, 3, wb, attraction, a-b-db, 14, 2, 2, 27, 83, 153, 165, 90, 90, 165, 2, 23.3366
218, 3, wb, attraction, a-b-db, 14, 2, 2, 27, 83, 153, 165, 90, 90, 165, 3, 0.33919
218, 3, wb, attraction, a-b-da, 14, 1, 2, 28, 125, 56, 60, 135, 135, 60, 1, 1.77177
218, 3, wb, attraction, a-b-da, 14, 1, 2, 28, 125, 56, 60, 135, 135, 60, 2, 0.41914
218, 3, wb, attraction, a-b-db, 9, 1, 2, 29, 60, 135, 57, 129, 135, 60, 2, 1.5283
218, 3, wb, attraction, a-b-db, 9, 1, 2, 29, 60, 135, 57, 129, 135, 60, 3, 0.529802
218, 3, wb, attraction, a-b-db, 2, 2, 2, 30, 90, 165, 89, 163, 165, 90, 1, 2.02617
218, 3, wb, attraction, a-b-db, 2, 2, 2, 30, 90, 165, 89, 163, 165, 90, 3, 0.391605
218, 3, wb, attraction, a-b-db, 5, 1, 2, 31, 60, 135, 58, 132, 135, 60, 2, 0.661367
218, 3, wb, attraction, a-b-db, 5, 1, 2, 31, 60, 135, 58, 132, 135, 60, 3, 0.409789
218, 3, wb, filler, NA, 999, 999, 2, 32, 191, 96, 113, 183, 60, 152, 3, 1.03904
218, 3, wb, filler, NA, 999, 999, 2, 32, 191, 96, 113, 183, 60, 152, 2, 0.339992
218, 3, wb, attraction, a-b-db, 14, 1, 2, 33, 135, 60, 60, 135, 56, 125, 2, 2.08382
218, 3, wb, attraction, a-b-db, 14, 1, 2, 33, 135, 60, 60, 135, 56, 125, 1, 0.519133
218, 3, wb, attraction, a-b-da, 9, 3, 2, 34, 195, 120, 186, 114, 120, 195, 2, 4.47239
218, 3, wb, attraction, a-b-da, 9, 3, 2, 34, 195, 120, 186, 114, 120, 195, 3, 1.5629
218, 3, wb, attraction, a-b-db, 9, 2, 2, 35, 165, 90, 86, 157, 90, 165, 2, 3.20963
218, 3, wb, attraction, a-b-db, 9, 2, 2, 35, 165, 90, 86, 157, 90, 165, 1, 0.335249
218, 3, wb, attraction, a-b-da, 2, 3, 2, 36, 193, 119, 195, 120, 120, 195, 2, 2.35187
218, 3, wb, attraction, a-b-da, 2, 3, 2, 36, 193, 119, 195, 120, 120, 195, 1, 0.584351
218, 3, wb, attraction, a-b-da, 5, 1, 2, 37, 60, 135, 135, 60, 132, 58, 2, 1.49474
218, 3, wb, attraction, a-b-da, 5, 1, 2, 37, 60, 135, 135, 60, 132, 58, 1, 0.569561
218, 3, wb, attraction, a-b-db, 14, 2, 3, 1, 90, 165, 83, 153, 165, 90, 2, 1.39268
218, 3, wb, attraction, a-b-db, 14, 2, 3, 1, 90, 165, 83, 153, 165, 90, 1, 0.447566
218, 3, wb, attraction, a-b-da, 5, 3, 3, 2, 195, 120, 120, 195, 190, 117, 2, 3.33134
218, 3, wb, attraction, a-b-da, 5, 3, 3, 2, 195, 120, 120, 195, 190, 117, 3, 0.716384
218, 3, wb, attraction, a-b-da, 9, 2, 3, 3, 90, 165, 165, 90, 157, 86, 3, 1.22136
218, 3, wb, attraction, a-b-da, 9, 2, 3, 3, 90, 165, 165, 90, 157, 86, 1, 0.571646
218, 3, wb, attraction, a-b-da, 14, 2, 3, 4, 153, 83, 165, 90, 90, 165, 3, 19.6188
218, 3, wb, attraction, a-b-da, 14, 2, 3, 4, 153, 83, 165, 90, 90, 165, 1, 0.419179
218, 3, wb, filler, NA, 999, 999, 3, 5, 83, 88, 181, 62, 60, 152, 1, 2.19243
218, 3, wb, filler, NA, 999, 999, 3, 5, 83, 88, 181, 62, 60, 152, 2, 0.887059
218, 3, wb, catch, NA, 999, 999, 3, 6, 133, 182, 120, 135, 90, 105, 3, 1.2414
218, 3, wb, catch, NA, 999, 999, 3, 6, 133, 182, 120, 135, 90, 105, 1, 0.430275
218, 3, wb, attraction, a-b-db, 5, 3, 3, 7, 195, 120, 117, 190, 120, 195, 3, 0.650686
218, 3, wb, attraction, a-b-db, 5, 3, 3, 7, 195, 120, 117, 190, 120, 195, 1, 0.40778
218, 3, wb, attraction, a-b-da, 2, 1, 3, 8, 134, 59, 135, 60, 60, 135, 3, 0.548904
218, 3, wb, attraction, a-b-da, 2, 1, 3, 8, 134, 59, 135, 60, 60, 135, 2, 0.382103
218, 3, wb, attraction, a-b-da, 14, 1, 3, 9, 135, 60, 125, 56, 60, 135, 3, 0.708613
218, 3, wb, attraction, a-b-da, 14, 1, 3, 9, 135, 60, 125, 56, 60, 135, 1, 0.438905
218, 3, wb, attraction, a-b-db, 9, 3, 3, 10, 114, 186, 120, 195, 195, 120, 2, 5.65157
218, 3, wb, attraction, a-b-db, 9, 3, 3, 10, 114, 186, 120, 195, 195, 120, 1, 0.462992
218, 3, wb, attraction, a-b-db, 2, 3, 3, 11, 120, 195, 195, 120, 119, 193, 2, 2.09818
218, 3, wb, attraction, a-b-db, 2, 3, 3, 11, 120, 195, 195, 120, 119, 193, 1, 0.388947
218, 3, wb, filler, NA, 999, 999, 3, 12, 90, 129, 110, 171, 184, 88, 1, 1.09128
218, 3, wb, filler, NA, 999, 999, 3, 12, 90, 129, 110, 171, 184, 88, 2, 0.814211
218, 3, wb, attraction, a-b-db, 5, 1, 3, 13, 60, 135, 135, 60, 58, 132, 1, 16.7552
218, 3, wb, attraction, a-b-db, 5, 1, 3, 13, 60, 135, 135, 60, 58, 132, 3, 2.65542
218, 3, wb, attraction, a-b-da, 5, 1, 3, 14, 132, 58, 135, 60, 60, 135, 3, 16.3304
218, 3, wb, attraction, a-b-da, 5, 1, 3, 14, 132, 58, 135, 60, 60, 135, 1, 0.439243
218, 3, wb, attraction, a-b-da, 5, 2, 3, 15, 161, 88, 90, 165, 165, 90, 3, 2.1478
218, 3, wb, attraction, a-b-da, 5, 2, 3, 15, 161, 88, 90, 165, 165, 90, 2, 0.492443
218, 3, wb, catch, NA, 999, 999, 3, 16, 146, 109, 180, 135, 84, 111, 3, 0.710159
218, 3, wb, catch, NA, 999, 999, 3, 16, 146, 109, 180, 135, 84, 111, 2, 0.400615
218, 3, wb, attraction, a-b-da, 2, 3, 3, 17, 193, 119, 195, 120, 120, 195, 2, 2.02248
218, 3, wb, attraction, a-b-da, 2, 3, 3, 17, 193, 119, 195, 120, 120, 195, 3, 0.667795
218, 3, wb, catch, NA, 999, 999, 3, 18, 126, 129, 89, 106, 180, 135, 2, 0.830965
218, 3, wb, catch, NA, 999, 999, 3, 18, 126, 129, 89, 106, 180, 135, 3, 0.43667
218, 3, wb, filler, NA, 999, 999, 3, 19, 167, 182, 122, 122, 159, 161, 2, 1.23305
218, 3, wb, filler, NA, 999, 999, 3, 19, 167, 182, 122, 122, 159, 161, 1, 0.502646
218, 3, wb, filler, NA, 999, 999, 3, 20, 179, 189, 109, 163, 88, 93, 3, 0.824368
218, 3, wb, filler, NA, 999, 999, 3, 20, 179, 189, 109, 163, 88, 93, 1, 0.398089
218, 3, wb, attraction, a-b-db, 5, 2, 3, 21, 90, 165, 88, 161, 165, 90, 2, 3.29215
218, 3, wb, attraction, a-b-db, 5, 2, 3, 21, 90, 165, 88, 161, 165, 90, 3, 0.510281
218, 3, wb, filler, NA, 999, 999, 3, 22, 108, 90, 84, 147, 187, 117, 2, 3.78331
218, 3, wb, filler, NA, 999, 999, 3, 22, 108, 90, 84, 147, 187, 117, 3, 7.8382
218, 3, wb, attraction, a-b-db, 9, 2, 3, 23, 90, 165, 165, 90, 86, 157, 3, 2.45631
218, 3, wb, attraction, a-b-db, 9, 2, 3, 23, 90, 165, 165, 90, 86, 157, 1, 0.548148
218, 3, wb, attraction, a-b-da, 9, 1, 3, 24, 135, 60, 129, 57, 60, 135, 3, 2.41988
218, 3, wb, attraction, a-b-da, 9, 1, 3, 24, 135, 60, 129, 57, 60, 135, 2, 0.841866
218, 3, wb, attraction, a-b-db, 14, 1, 3, 25, 56, 125, 60, 135, 135, 60, 1, 1.90152
218, 3, wb, attraction, a-b-db, 14, 1, 3, 25, 56, 125, 60, 135, 135, 60, 3, 0.456364
218, 3, wb, filler, NA, 999, 999, 3, 26, 105, 173, 70, 81, 63, 140, 2, 0.755999
218, 3, wb, filler, NA, 999, 999, 3, 26, 105, 173, 70, 81, 63, 140, 1, 0.276411
218, 3, wb, filler, NA, 999, 999, 3, 27, 163, 141, 191, 130, 129, 176, 3, 5.55899
218, 3, wb, filler, NA, 999, 999, 3, 27, 163, 141, 191, 130, 129, 176, 1, 0.525876
218, 3, wb, attraction, a-b-da, 2, 2, 3, 28, 90, 165, 163, 89, 165, 90, 2, 2.37432
218, 3, wb, attraction, a-b-da, 2, 2, 3, 28, 90, 165, 163, 89, 165, 90, 3, 0.709587
218, 3, wb, attraction, a-b-db, 9, 1, 3, 29, 60, 135, 135, 60, 57, 129, 2, 1.64664
218, 3, wb, attraction, a-b-db, 9, 1, 3, 29, 60, 135, 135, 60, 57, 129, 1, 0.651508
218, 3, wb, attraction, a-b-da, 9, 3, 3, 30, 120, 195, 195, 120, 186, 114, 3, 0.975045
218, 3, wb, attraction, a-b-da, 9, 3, 3, 30, 120, 195, 195, 120, 186, 114, 1, 0.382756
218, 3, wb, filler, NA, 999, 999, 3, 31, 188, 163, 72, 132, 172, 95, 2, 1.48528
218, 3, wb, filler, NA, 999, 999, 3, 31, 188, 163, 72, 132, 172, 95, 1, 0.31282
218, 3, wb, attraction, a-b-da, 14, 3, 3, 32, 120, 195, 181, 111, 195, 120, 3, 1.60198
218, 3, wb, attraction, a-b-da, 14, 3, 3, 32, 120, 195, 181, 111, 195, 120, 1, 0.384872
218, 3, wb, attraction, a-b-db, 14, 3, 3, 33, 111, 181, 195, 120, 120, 195, 1, 2.13535
218, 3, wb, attraction, a-b-db, 14, 3, 3, 33, 111, 181, 195, 120, 120, 195, 2, 1.03273
218, 3, wb, attraction, a-b-db, 2, 2, 3, 34, 89, 163, 90, 165, 165, 90, 3, 15.8688
218, 3, wb, attraction, a-b-db, 2, 2, 3, 34, 89, 163, 90, 165, 165, 90, 1, 0.588518
218, 3, wb, filler, NA, 999, 999, 3, 35, 75, 186, 86, 134, 144, 138, 2, 1.09094
218, 3, wb, filler, NA, 999, 999, 3, 35, 75, 186, 86, 134, 144, 138, 3, 0.309844
218, 3, wb, attraction, a-b-db, 2, 1, 3, 36, 135, 60, 60, 135, 59, 134, 3, 1.37509
218, 3, wb, attraction, a-b-db, 2, 1, 3, 36, 135, 60, 60, 135, 59, 134, 1, 0.310639
218, 3, wb, filler, NA, 999, 999, 3, 37, 141, 128, 179, 122, 87, 154, 3, 0.631761
218, 3, wb, filler, NA, 999, 999, 3, 37, 141, 128, 179, 122, 87, 154, 2, 0.325529
218, 3, wb, attraction, a-b-db, 9, 3, 4, 1, 195, 120, 120, 195, 114, 186, 1, 1.18214
218, 3, wb, attraction, a-b-db, 9, 3, 4, 1, 195, 120, 120, 195, 114, 186, 2, 1.70969
218, 3, wb, attraction, a-b-db, 5, 2, 4, 2, 165, 90, 88, 161, 90, 165, 3, 1.60638
218, 3, wb, attraction, a-b-db, 5, 2, 4, 2, 165, 90, 88, 161, 90, 165, 1, 0.540699
218, 3, wb, attraction, a-b-da, 9, 3, 4, 3, 195, 120, 120, 195, 186, 114, 3, 2.30844
218, 3, wb, attraction, a-b-da, 9, 3, 4, 3, 195, 120, 120, 195, 186, 114, 1, 0.966353
218, 3, wb, catch, NA, 999, 999, 4, 4, 151, 104, 171, 144, 68, 127, 3, 0.813296
218, 3, wb, catch, NA, 999, 999, 4, 4, 151, 104, 171, 144, 68, 127, 2, 0.803634
218, 3, wb, attraction, a-b-db, 2, 1, 4, 5, 60, 135, 59, 134, 135, 60, 3, 2.96935
218, 3, wb, attraction, a-b-db, 2, 1, 4, 5, 60, 135, 59, 134, 135, 60, 2, 0.705151
218, 3, wb, attraction, a-b-da, 9, 1, 4, 6, 135, 60, 129, 57, 60, 135, 3, 2.86681
218, 3, wb, attraction, a-b-da, 9, 1, 4, 6, 135, 60, 129, 57, 60, 135, 2, 0.51845
218, 3, wb, filler, NA, 999, 999, 4, 7, 170, 133, 84, 142, 100, 174, 2, 0.9435
218, 3, wb, filler, NA, 999, 999, 4, 7, 170, 133, 84, 142, 100, 174, 1, 0.440618
218, 3, wb, attraction, a-b-db, 2, 2, 4, 8, 165, 90, 89, 163, 90, 165, 2, 2.37244
218, 3, wb, attraction, a-b-db, 2, 2, 4, 8, 165, 90, 89, 163, 90, 165, 1, 0.795724
218, 3, wb, filler, NA, 999, 999, 4, 9, 156, 137, 186, 103, 188, 77, 3, 40.0495
218, 3, wb, filler, NA, 999, 999, 4, 9, 156, 137, 186, 103, 188, 77, 1, 2.77877
218, 3, wb, attraction, a-b-da, 5, 2, 4, 10, 165, 90, 161, 88, 90, 165, 2, 4.10447
218, 3, wb, attraction, a-b-da, 5, 2, 4, 10, 165, 90, 161, 88, 90, 165, 3, 0.514555
218, 3, wb, attraction, a-b-db, 9, 2, 4, 11, 86, 157, 165, 90, 90, 165, 2, 4.99568
218, 3, wb, attraction, a-b-db, 9, 2, 4, 11, 86, 157, 165, 90, 90, 165, 3, 0.361445
218, 3, wb, attraction, a-b-da, 5, 3, 4, 12, 195, 120, 120, 195, 190, 117, 3, 9.66466
218, 3, wb, attraction, a-b-da, 5, 3, 4, 12, 195, 120, 120, 195, 190, 117, 2, 1.25835
218, 3, wb, filler, NA, 999, 999, 4, 13, 126, 131, 134, 185, 170, 117, 1, 4.84519
218, 3, wb, filler, NA, 999, 999, 4, 13, 126, 131, 134, 185, 170, 117, 3, 0.696881
218, 3, wb, attraction, a-b-da, 5, 1, 4, 14, 135, 60, 60, 135, 132, 58, 2, 6.37066
218, 3, wb, attraction, a-b-da, 5, 1, 4, 14, 135, 60, 60, 135, 132, 58, 3, 0.649403
218, 3, wb, catch, NA, 999, 999, 4, 15, 132, 123, 88, 107, 164, 151, 2, 1.16497
218, 3, wb, catch, NA, 999, 999, 4, 15, 132, 123, 88, 107, 164, 151, 3, 2.15725
218, 3, wb, attraction, a-b-db, 9, 1, 4, 16, 135, 60, 57, 129, 60, 135, 2, 3.32381
218, 3, wb, attraction, a-b-db, 9, 1, 4, 16, 135, 60, 57, 129, 60, 135, 3, 2.50882
218, 3, wb, attraction, a-b-da, 14, 3, 4, 17, 181, 111, 120, 195, 195, 120, 1, 9.42123
218, 3, wb, attraction, a-b-da, 14, 3, 4, 17, 181, 111, 120, 195, 195, 120, 2, 2.1131
218, 3, wb, attraction, a-b-da, 2, 3, 4, 18, 195, 120, 193, 119, 120, 195, 3, 18.8816
218, 3, wb, attraction, a-b-da, 2, 3, 4, 18, 195, 120, 193, 119, 120, 195, 2, 0.519646
218, 3, wb, catch, NA, 999, 999, 4, 19, 144, 171, 147, 108, 61, 134, 3, 1.0968
218, 3, wb, catch, NA, 999, 999, 4, 19, 144, 171, 147, 108, 61, 134, 1, 0.851784
218, 3, wb, filler, NA, 999, 999, 4, 20, 95, 136, 99, 191, 144, 172, 1, 1.24738
218, 3, wb, filler, NA, 999, 999, 4, 20, 95, 136, 99, 191, 144, 172, 3, 0.716412
218, 3, wb, filler, NA, 999, 999, 4, 21, 159, 112, 125, 185, 107, 156, 3, 1.18149
218, 3, wb, filler, NA, 999, 999, 4, 21, 159, 112, 125, 185, 107, 156, 2, 0.948972
218, 3, wb, attraction, a-b-da, 2, 2, 4, 22, 165, 90, 163, 89, 90, 165, 2, 4.86071
218, 3, wb, attraction, a-b-da, 2, 2, 4, 22, 165, 90, 163, 89, 90, 165, 1, 0.535763
218, 3, wb, attraction, a-b-da, 2, 1, 4, 23, 60, 135, 134, 59, 135, 60, 2, 1.41623
218, 3, wb, attraction, a-b-da, 2, 1, 4, 23, 60, 135, 134, 59, 135, 60, 3, 0.726449
218, 3, wb, filler, NA, 999, 999, 4, 24, 151, 147, 154, 180, 176, 134, 3, 5.12672
218, 3, wb, filler, NA, 999, 999, 4, 24, 151, 147, 154, 180, 176, 134, 2, 0.591312
218, 3, wb, attraction, a-b-da, 14, 2, 4, 25, 165, 90, 90, 165, 153, 83, 3, 2.01294
218, 3, wb, attraction, a-b-da, 14, 2, 4, 25, 165, 90, 90, 165, 153, 83, 1, 0.914908
218, 3, wb, attraction, a-b-da, 14, 1, 4, 26, 125, 56, 60, 135, 135, 60, 1, 20.2759
218, 3, wb, attraction, a-b-da, 14, 1, 4, 26, 125, 56, 60, 135, 135, 60, 2, 0.362206
218, 3, wb, attraction, a-b-db, 14, 1, 4, 27, 135, 60, 60, 135, 56, 125, 3, 0.713416
218, 3, wb, attraction, a-b-db, 14, 1, 4, 27, 135, 60, 60, 135, 56, 125, 1, 0.28384
218, 3, wb, filler, NA, 999, 999, 4, 28, 151, 129, 187, 99, 137, 78, 3, 0.454392
218, 3, wb, filler, NA, 999, 999, 4, 28, 151, 129, 187, 99, 137, 78, 1, 0.65144
218, 3, wb, attraction, a-b-db, 5, 1, 4, 29, 58, 132, 60, 135, 135, 60, 2, 0.615138
218, 3, wb, attraction, a-b-db, 5, 1, 4, 29, 58, 132, 60, 135, 135, 60, 3, 2.42965
218, 3, wb, filler, NA, 999, 999, 4, 30, 122, 140, 71, 111, 141, 125, 2, 0.961452
218, 3, wb, filler, NA, 999, 999, 4, 30, 122, 140, 71, 111, 141, 125, 3, 0.545934
218, 3, wb, filler, NA, 999, 999, 4, 31, 124, 135, 187, 93, 155, 162, 1, 1.84959
218, 3, wb, filler, NA, 999, 999, 4, 31, 124, 135, 187, 93, 155, 162, 3, 0.438428
218, 3, wb, attraction, a-b-db, 5, 3, 4, 32, 120, 195, 117, 190, 195, 120, 2, 10.8828
218, 3, wb, attraction, a-b-db, 5, 3, 4, 32, 120, 195, 117, 190, 195, 120, 3, 0.7075
218, 3, wb, attraction, a-b-db, 14, 3, 4, 33, 120, 195, 195, 120, 111, 181, 3, 1.16433
218, 3, wb, attraction, a-b-db, 14, 3, 4, 33, 120, 195, 195, 120, 111, 181, 1, 0.324635
218, 3, wb, attraction, a-b-db, 14, 2, 4, 34, 83, 153, 165, 90, 90, 165, 1, 1.15727
218, 3, wb, attraction, a-b-db, 14, 2, 4, 34, 83, 153, 165, 90, 90, 165, 3, 0.366076
218, 3, wb, filler, NA, 999, 999, 4, 35, 74, 181, 92, 169, 166, 185, 1, 1.34068
218, 3, wb, filler, NA, 999, 999, 4, 35, 74, 181, 92, 169, 166, 185, 3, 0.429577
218, 3, wb, attraction, a-b-da, 9, 2, 4, 36, 165, 90, 90, 165, 157, 86, 3, 1.18609
218, 3, wb, attraction, a-b-da, 9, 2, 4, 36, 165, 90, 90, 165, 157, 86, 1, 0.745674
218, 3, wb, attraction, a-b-db, 2, 3, 4, 37, 195, 120, 120, 195, 119, 193, 2, 2.25723
218, 3, wb, attraction, a-b-db, 2, 3, 4, 37, 195, 120, 120, 195, 119, 193, 1, 0.469206
218, 3, wb, attraction, a-b-da, 2, 1, 5, 1, 135, 60, 60, 135, 134, 59, 2, 7.05506
218, 3, wb, attraction, a-b-da, 2, 1, 5, 1, 135, 60, 60, 135, 134, 59, 3, 0.434059
218, 3, wb, attraction, a-b-da, 14, 1, 5, 2, 60, 135, 125, 56, 135, 60, 2, 3.23858
218, 3, wb, attraction, a-b-da, 14, 1, 5, 2, 60, 135, 125, 56, 135, 60, 1, 0.498801
218, 3, wb, attraction, a-b-da, 2, 2, 5, 3, 165, 90, 163, 89, 90, 165, 3, 1.38868
218, 3, wb, attraction, a-b-da, 2, 2, 5, 3, 165, 90, 163, 89, 90, 165, 2, 0.443483
218, 3, wb, attraction, a-b-da, 5, 2, 5, 4, 90, 165, 161, 88, 165, 90, 3, 2.45536
218, 3, wb, attraction, a-b-da, 5, 2, 5, 4, 90, 165, 161, 88, 165, 90, 1, 0.89929
218, 3, wb, filler, NA, 999, 999, 5, 5, 154, 57, 124, 85, 137, 143, 1, 1.17285
218, 3, wb, filler, NA, 999, 999, 5, 5, 154, 57, 124, 85, 137, 143, 3, 0.340516
218, 3, wb, filler, NA, 999, 999, 5, 6, 144, 144, 192, 109, 170, 145, 3, 5.72428
218, 3, wb, filler, NA, 999, 999, 5, 6, 144, 144, 192, 109, 170, 145, 2, 5.05262
218, 3, wb, attraction, a-b-db, 5, 2, 5, 7, 165, 90, 90, 165, 88, 161, 2, 1.60697
218, 3, wb, attraction, a-b-db, 5, 2, 5, 7, 165, 90, 90, 165, 88, 161, 1, 0.444913
218, 3, wb, filler, NA, 999, 999, 5, 8, 105, 177, 107, 58, 141, 92, 2, 0.784702
218, 3, wb, filler, NA, 999, 999, 5, 8, 105, 177, 107, 58, 141, 92, 1, 0.408546
218, 3, wb, attraction, a-b-db, 9, 2, 5, 9, 86, 157, 165, 90, 90, 165, 1, 2.13363
218, 3, wb, attraction, a-b-db, 9, 2, 5, 9, 86, 157, 165, 90, 90, 165, 3, 0.503008
218, 3, wb, attraction, a-b-da, 14, 2, 5, 10, 90, 165, 165, 90, 153, 83, 3, 1.20875
218, 3, wb, attraction, a-b-da, 14, 2, 5, 10, 90, 165, 165, 90, 153, 83, 1, 0.374925
218, 3, wb, filler, NA, 999, 999, 5, 11, 167, 120, 87, 169, 124, 146, 3, 1.50953
218, 3, wb, filler, NA, 999, 999, 5, 11, 167, 120, 87, 169, 124, 146, 1, 0.655705
218, 3, wb, attraction, a-b-db, 9, 3, 5, 12, 120, 195, 114, 186, 195, 120, 2, 3.38757
218, 3, wb, attraction, a-b-db, 9, 3, 5, 12, 120, 195, 114, 186, 195, 120, 1, 0.730359
218, 3, wb, attraction, a-b-db, 14, 1, 5, 13, 56, 125, 60, 135, 135, 60, 1, 0.914645
218, 3, wb, attraction, a-b-db, 14, 1, 5, 13, 56, 125, 60, 135, 135, 60, 3, 0.605189
218, 3, wb, attraction, a-b-db, 2, 3, 5, 14, 120, 195, 119, 193, 195, 120, 2, 1.40279
218, 3, wb, attraction, a-b-db, 2, 3, 5, 14, 120, 195, 119, 193, 195, 120, 3, 0.377637
218, 3, wb, catch, NA, 999, 999, 5, 15, 66, 129, 159, 156, 126, 129, 1, 0.864145
218, 3, wb, catch, NA, 999, 999, 5, 15, 66, 129, 159, 156, 126, 129, 3, 1.64459
218, 3, wb, filler, NA, 999, 999, 5, 16, 129, 106, 138, 81, 74, 139, 2, 1.15196
218, 3, wb, filler, NA, 999, 999, 5, 16, 129, 106, 138, 81, 74, 139, 1, 0.944836
218, 3, wb, attraction, a-b-da, 14, 3, 5, 17, 195, 120, 120, 195, 181, 111, 3, 1.40064
218, 3, wb, attraction, a-b-da, 14, 3, 5, 17, 195, 120, 120, 195, 181, 111, 1, 0.367444
218, 3, wb, filler, NA, 999, 999, 5, 18, 105, 101, 76, 179, 112, 177, 2, 1.41449
218, 3, wb, filler, NA, 999, 999, 5, 18, 105, 101, 76, 179, 112, 177, 3, 0.692759
218, 3, wb, attraction, a-b-db, 14, 2, 5, 19, 165, 90, 83, 153, 90, 165, 2, 0.95061
218, 3, wb, attraction, a-b-db, 14, 2, 5, 19, 165, 90, 83, 153, 90, 165, 3, 0.663569
218, 3, wb, attraction, a-b-da, 2, 3, 5, 20, 193, 119, 195, 120, 120, 195, 3, 1.69857
218, 3, wb, attraction, a-b-da, 2, 3, 5, 20, 193, 119, 195, 120, 120, 195, 1, 0.509413
218, 3, wb, filler, NA, 999, 999, 5, 21, 160, 120, 71, 151, 98, 121, 3, 1.7185
218, 3, wb, filler, NA, 999, 999, 5, 21, 160, 120, 71, 151, 98, 121, 1, 0.544716
218, 3, wb, catch, NA, 999, 999, 5, 22, 131, 64, 160, 95, 140, 175, 1, 0.768432
218, 3, wb, catch, NA, 999, 999, 5, 22, 131, 64, 160, 95, 140, 175, 3, 0.680787
218, 3, wb, attraction, a-b-db, 5, 1, 5, 23, 60, 135, 58, 132, 135, 60, 2, 1.97929
218, 3, wb, attraction, a-b-db, 5, 1, 5, 23, 60, 135, 58, 132, 135, 60, 3, 0.874578
218, 3, wb, filler, NA, 999, 999, 5, 24, 72, 61, 180, 162, 138, 112, 1, 1.14097
218, 3, wb, filler, NA, 999, 999, 5, 24, 72, 61, 180, 162, 138, 112, 2, 0.373748
218, 3, wb, attraction, a-b-da, 9, 1, 5, 25, 129, 57, 135, 60, 60, 135, 3, 2.16422
218, 3, wb, attraction, a-b-da, 9, 1, 5, 25, 129, 57, 135, 60, 60, 135, 1, 0.572251
218, 3, wb, attraction, a-b-db, 9, 1, 5, 26, 60, 135, 135, 60, 57, 129, 3, 0.947321
218, 3, wb, attraction, a-b-db, 9, 1, 5, 26, 60, 135, 135, 60, 57, 129, 1, 0.364302
218, 3, wb, attraction, a-b-db, 5, 3, 5, 27, 195, 120, 120, 195, 117, 190, 2, 1.09952
218, 3, wb, attraction, a-b-db, 5, 3, 5, 27, 195, 120, 120, 195, 117, 190, 1, 0.454516
218, 3, wb, attraction, a-b-da, 9, 2, 5, 28, 90, 165, 157, 86, 165, 90, 2, 1.73044
218, 3, wb, attraction, a-b-da, 9, 2, 5, 28, 90, 165, 157, 86, 165, 90, 1, 2.85172
218, 3, wb, attraction, a-b-da, 5, 1, 5, 29, 135, 60, 60, 135, 132, 58, 3, 2.17475
218, 3, wb, attraction, a-b-da, 5, 1, 5, 29, 135, 60, 60, 135, 132, 58, 1, 0.566141
218, 3, wb, attraction, a-b-da, 9, 3, 5, 30, 186, 114, 195, 120, 120, 195, 3, 1.00514
218, 3, wb, attraction, a-b-da, 9, 3, 5, 30, 186, 114, 195, 120, 120, 195, 2, 0.643456
218, 3, wb, attraction, a-b-db, 14, 3, 5, 31, 195, 120, 120, 195, 111, 181, 3, 1.19938
218, 3, wb, attraction, a-b-db, 14, 3, 5, 31, 195, 120, 120, 195, 111, 181, 1, 0.630117
218, 3, wb, attraction, a-b-da, 5, 3, 5, 32, 120, 195, 195, 120, 190, 117, 3, 0.978593
218, 3, wb, attraction, a-b-da, 5, 3, 5, 32, 120, 195, 195, 120, 190, 117, 1, 0.434153
218, 3, wb, attraction, a-b-db, 2, 2, 5, 33, 89, 163, 90, 165, 165, 90, 3, 0.862715
218, 3, wb, attraction, a-b-db, 2, 2, 5, 33, 89, 163, 90, 165, 165, 90, 1, 1.04302
218, 3, wb, attraction, a-b-db, 2, 1, 5, 34, 135, 60, 59, 134, 60, 135, 3, 1.59083
218, 3, wb, attraction, a-b-db, 2, 1, 5, 34, 135, 60, 59, 134, 60, 135, 1, 0.517635
218, 3, wb, filler, NA, 999, 999, 5, 35, 176, 179, 131, 121, 115, 103, 3, 1.94253
218, 3, wb, filler, NA, 999, 999, 5, 35, 176, 179, 131, 121, 115, 103, 1, 0.383211
218, 3, wb, filler, NA, 999, 999, 5, 36, 184, 88, 56, 153, 112, 89, 3, 1.98988
218, 3, wb, filler, NA, 999, 999, 5, 36, 184, 88, 56, 153, 112, 89, 1, 0.604408
218, 3, wb, catch, NA, 999, 999, 5, 37, 98, 157, 65, 130, 144, 171, 2, 1.94618
218, 3, wb, catch, NA, 999, 999, 5, 37, 98, 157, 65, 130, 144, 171, 3, 0.515076
218, 3, wb, filler, NA, 999, 999, 6, 1, 77, 137, 151, 162, 187, 73, 1, 1.05197
218, 3, wb, filler, NA, 999, 999, 6, 1, 77, 137, 151, 162, 187, 73, 2, 0.625164
218, 3, wb, attraction, a-b-da, 2, 3, 6, 2, 193, 119, 120, 195, 195, 120, 3, 15.7575
218, 3, wb, attraction, a-b-da, 2, 3, 6, 2, 193, 119, 120, 195, 195, 120, 2, 1.40195
218, 3, wb, catch, NA, 999, 999, 6, 3, 125, 130, 120, 195, 131, 64, 3, 1.35943
218, 3, wb, catch, NA, 999, 999, 6, 3, 125, 130, 120, 195, 131, 64, 2, 0.471504
218, 3, wb, filler, NA, 999, 999, 6, 4, 163, 149, 154, 145, 115, 133, 3, 1.61075
218, 3, wb, filler, NA, 999, 999, 6, 4, 163, 149, 154, 145, 115, 133, 1, 0.58475
218, 3, wb, attraction, a-b-da, 9, 1, 6, 5, 129, 57, 135, 60, 60, 135, 3, 1.07116
218, 3, wb, attraction, a-b-da, 9, 1, 6, 5, 129, 57, 135, 60, 60, 135, 2, 0.699523
218, 3, wb, catch, NA, 999, 999, 6, 6, 156, 99, 124, 191, 100, 95, 3, 1.97339
218, 3, wb, catch, NA, 999, 999, 6, 6, 156, 99, 124, 191, 100, 95, 2, 0.436566
218, 3, wb, attraction, a-b-db, 2, 3, 6, 7, 195, 120, 119, 193, 120, 195, 2, 5.61705
218, 3, wb, attraction, a-b-db, 2, 3, 6, 7, 195, 120, 119, 193, 120, 195, 1, 0.702017
218, 3, wb, attraction, a-b-db, 9, 3, 6, 8, 114, 186, 195, 120, 120, 195, 1, 5.87969
218, 3, wb, attraction, a-b-db, 9, 3, 6, 8, 114, 186, 195, 120, 120, 195, 2, 0.497913
218, 3, wb, attraction, a-b-da, 14, 2, 6, 9, 165, 90, 90, 165, 153, 83, 3, 0.939729
218, 3, wb, attraction, a-b-da, 14, 2, 6, 9, 165, 90, 90, 165, 153, 83, 2, 0.61268
218, 3, wb, attraction, a-b-db, 2, 2, 6, 10, 165, 90, 90, 165, 89, 163, 3, 2.33776
218, 3, wb, attraction, a-b-db, 2, 2, 6, 10, 165, 90, 90, 165, 89, 163, 2, 0.891029
218, 3, wb, catch, NA, 999, 999, 6, 11, 102, 93, 94, 161, 174, 141, 1, 1.70851
218, 3, wb, catch, NA, 999, 999, 6, 11, 102, 93, 94, 161, 174, 141, 3, 0.486741
218, 3, wb, filler, NA, 999, 999, 6, 12, 73, 59, 169, 194, 60, 134, 1, 1.52125
218, 3, wb, filler, NA, 999, 999, 6, 12, 73, 59, 169, 194, 60, 134, 2, 0.85939
218, 3, wb, attraction, a-b-db, 9, 1, 6, 13, 60, 135, 135, 60, 57, 129, 3, 1.28637
218, 3, wb, attraction, a-b-db, 9, 1, 6, 13, 60, 135, 135, 60, 57, 129, 2, 0.721896
218, 3, wb, attraction, a-b-db, 14, 1, 6, 14, 60, 135, 56, 125, 135, 60, 2, 1.41101
218, 3, wb, attraction, a-b-db, 14, 1, 6, 14, 60, 135, 56, 125, 135, 60, 1, 0.401228
218, 3, wb, attraction, a-b-db, 5, 1, 6, 15, 60, 135, 58, 132, 135, 60, 1, 1.08709
218, 3, wb, attraction, a-b-db, 5, 1, 6, 15, 60, 135, 58, 132, 135, 60, 3, 0.674817
218, 3, wb, filler, NA, 999, 999, 6, 16, 93, 63, 138, 81, 134, 124, 1, 0.837048
218, 3, wb, filler, NA, 999, 999, 6, 16, 93, 63, 138, 81, 134, 124, 3, 0.370759
218, 3, wb, filler, NA, 999, 999, 6, 17, 133, 66, 77, 178, 180, 133, 1, 0.777815
218, 3, wb, filler, NA, 999, 999, 6, 17, 133, 66, 77, 178, 180, 133, 3, 0.481609
218, 3, wb, attraction, a-b-db, 14, 2, 6, 18, 83, 153, 90, 165, 165, 90, 1, 1.36406
218, 3, wb, attraction, a-b-db, 14, 2, 6, 18, 83, 153, 90, 165, 165, 90, 3, 0.404395
218, 3, wb, filler, NA, 999, 999, 6, 19, 141, 79, 116, 194, 136, 109, 1, 0.642143
218, 3, wb, filler, NA, 999, 999, 6, 19, 141, 79, 116, 194, 136, 109, 3, 0.983232
218, 3, wb, attraction, a-b-db, 9, 2, 6, 20, 90, 165, 165, 90, 86, 157, 2, 0.949517
218, 3, wb, attraction, a-b-db, 9, 2, 6, 20, 90, 165, 165, 90, 86, 157, 1, 0.534555
218, 3, wb, filler, NA, 999, 999, 6, 21, 174, 103, 79, 99, 90, 90, 3, 1.46299
218, 3, wb, filler, NA, 999, 999, 6, 21, 174, 103, 79, 99, 90, 90, 1, 0.331212
218, 3, wb, filler, NA, 999, 999, 6, 22, 134, 85, 185, 161, 75, 140, 3, 1.63567
218, 3, wb, filler, NA, 999, 999, 6, 22, 134, 85, 185, 161, 75, 140, 2, 0.305071
218, 3, wb, attraction, a-b-db, 14, 3, 6, 23, 111, 181, 120, 195, 195, 120, 3, 1.57897
218, 3, wb, attraction, a-b-db, 14, 3, 6, 23, 111, 181, 120, 195, 195, 120, 2, 0.322485
218, 3, wb, attraction, a-b-da, 5, 2, 6, 24, 90, 165, 165, 90, 161, 88, 3, 1.12365
218, 3, wb, attraction, a-b-da, 5, 2, 6, 24, 90, 165, 165, 90, 161, 88, 2, 0.301307
218, 3, wb, attraction, a-b-da, 2, 2, 6, 25, 163, 89, 90, 165, 165, 90, 1, 0.495056
218, 3, wb, attraction, a-b-da, 2, 2, 6, 25, 163, 89, 90, 165, 165, 90, 2, 0.378328
218, 3, wb, attraction, a-b-da, 5, 1, 6, 26, 135, 60, 60, 135, 132, 58, 3, 0.816818
218, 3, wb, attraction, a-b-da, 5, 1, 6, 26, 135, 60, 60, 135, 132, 58, 1, 1.92717
218, 3, wb, attraction, a-b-da, 14, 1, 6, 27, 125, 56, 60, 135, 135, 60, 1, 1.91113
218, 3, wb, attraction, a-b-da, 14, 1, 6, 27, 125, 56, 60, 135, 135, 60, 3, 0.401202
218, 3, wb, filler, NA, 999, 999, 6, 28, 60, 97, 145, 65, 140, 152, 1, 0.622991
218, 3, wb, filler, NA, 999, 999, 6, 28, 60, 97, 145, 65, 140, 152, 3, 0.276836
218, 3, wb, attraction, a-b-da, 9, 3, 6, 29, 195, 120, 120, 195, 186, 114, 3, 1.87128
218, 3, wb, attraction, a-b-da, 9, 3, 6, 29, 195, 120, 120, 195, 186, 114, 1, 0.499384
218, 3, wb, attraction, a-b-da, 9, 2, 6, 30, 157, 86, 90, 165, 165, 90, 3, 3.02117
218, 3, wb, attraction, a-b-da, 9, 2, 6, 30, 157, 86, 90, 165, 165, 90, 2, 0.626848
218, 3, wb, attraction, a-b-db, 2, 1, 6, 31, 59, 134, 60, 135, 135, 60, 2, 1.0632
218, 3, wb, attraction, a-b-db, 2, 1, 6, 31, 59, 134, 60, 135, 135, 60, 1, 0.339604
218, 3, wb, attraction, a-b-db, 5, 3, 6, 32, 117, 190, 120, 195, 195, 120, 2, 0.828123
218, 3, wb, attraction, a-b-db, 5, 3, 6, 32, 117, 190, 120, 195, 195, 120, 3, 0.401818
218, 3, wb, attraction, a-b-da, 14, 3, 6, 33, 120, 195, 195, 120, 181, 111, 1, 0.391609
218, 3, wb, attraction, a-b-da, 14, 3, 6, 33, 120, 195, 195, 120, 181, 111, 3, 0.526784
218, 3, wb, attraction, a-b-da, 5, 3, 6, 34, 190, 117, 195, 120, 120, 195, 1, 0.479212
218, 3, wb, attraction, a-b-da, 5, 3, 6, 34, 190, 117, 195, 120, 120, 195, 3, 0.714977
218, 3, wb, attraction, a-b-db, 5, 2, 6, 35, 165, 90, 88, 161, 90, 165, 2, 1.95626
218, 3, wb, attraction, a-b-db, 5, 2, 6, 35, 165, 90, 88, 161, 90, 165, 1, 0.348124
218, 3, wb, filler, NA, 999, 999, 6, 36, 168, 103, 99, 127, 123, 69, 3, 0.547985
218, 3, wb, filler, NA, 999, 999, 6, 36, 168, 103, 99, 127, 123, 69, 1, 0.372963
218, 3, wb, attraction, a-b-da, 2, 1, 6, 37, 134, 59, 135, 60, 60, 135, 3, 1.50028
218, 3, wb, attraction, a-b-da, 2, 1, 6, 37, 134, 59, 135, 60, 60, 135, 2, 0.743161
218, 3, wb, attraction, a-b-db, 5, 2, 7, 1, 88, 161, 90, 165, 165, 90, 3, 1.0548
218, 3, wb, attraction, a-b-db, 5, 2, 7, 1, 88, 161, 90, 165, 165, 90, 2, 0.347842
218, 3, wb, attraction, a-b-db, 5, 1, 7, 2, 58, 132, 135, 60, 60, 135, 1, 1.98766
218, 3, wb, attraction, a-b-db, 5, 1, 7, 2, 58, 132, 135, 60, 60, 135, 3, 0.482397
218, 3, wb, attraction, a-b-da, 2, 3, 7, 3, 195, 120, 193, 119, 120, 195, 2, 4.96472
218, 3, wb, attraction, a-b-da, 2, 3, 7, 3, 195, 120, 193, 119, 120, 195, 1, 0.307884
218, 3, wb, filler, NA, 999, 999, 7, 4, 183, 153, 64, 194, 188, 97, 2, 3.95706
218, 3, wb, filler, NA, 999, 999, 7, 4, 183, 153, 64, 194, 188, 97, 1, 0.436428
218, 3, wb, attraction, a-b-db, 2, 3, 7, 5, 120, 195, 195, 120, 119, 193, 2, 2.34482
218, 3, wb, attraction, a-b-db, 2, 3, 7, 5, 120, 195, 195, 120, 119, 193, 3, 0.785628
218, 3, wb, catch, NA, 999, 999, 7, 6, 141, 114, 83, 112, 131, 184, 2, 0.59993
218, 3, wb, catch, NA, 999, 999, 7, 6, 141, 114, 83, 112, 131, 184, 3, 0.415007
218, 3, wb, filler, NA, 999, 999, 7, 7, 99, 161, 141, 106, 83, 95, 3, 0.73211
218, 3, wb, filler, NA, 999, 999, 7, 7, 99, 161, 141, 106, 83, 95, 1, 0.397799
218, 3, wb, filler, NA, 999, 999, 7, 8, 124, 185, 164, 83, 111, 57, 3, 1.10773
218, 3, wb, filler, NA, 999, 999, 7, 8, 124, 185, 164, 83, 111, 57, 1, 0.582146
218, 3, wb, attraction, a-b-db, 14, 3, 7, 9, 120, 195, 111, 181, 195, 120, 2, 2.78052
218, 3, wb, attraction, a-b-db, 14, 3, 7, 9, 120, 195, 111, 181, 195, 120, 3, 0.723419
218, 3, wb, attraction, a-b-db, 9, 1, 7, 10, 135, 60, 60, 135, 57, 129, 3, 1.73189
218, 3, wb, attraction, a-b-db, 9, 1, 7, 10, 135, 60, 60, 135, 57, 129, 1, 0.597412
218, 3, wb, filler, NA, 999, 999, 7, 11, 83, 147, 178, 179, 124, 136, 3, 1.55513
218, 3, wb, filler, NA, 999, 999, 7, 11, 83, 147, 178, 179, 124, 136, 2, 0.387131
218, 3, wb, attraction, a-b-db, 14, 2, 7, 12, 90, 165, 83, 153, 165, 90, 2, 1.79368
218, 3, wb, attraction, a-b-db, 14, 2, 7, 12, 90, 165, 83, 153, 165, 90, 3, 0.424426
218, 3, wb, filler, NA, 999, 999, 7, 13, 60, 177, 128, 140, 84, 115, 3, 1.88514
218, 3, wb, filler, NA, 999, 999, 7, 13, 60, 177, 128, 140, 84, 115, 2, 0.368307
218, 3, wb, catch, NA, 999, 999, 7, 14, 105, 90, 91, 164, 125, 190, 1, 1.39167
218, 3, wb, catch, NA, 999, 999, 7, 14, 105, 90, 91, 164, 125, 190, 3, 0.57433
218, 3, wb, attraction, a-b-da, 9, 1, 7, 15, 135, 60, 60, 135, 129, 57, 2, 1.32485
218, 3, wb, attraction, a-b-da, 9, 1, 7, 15, 135, 60, 60, 135, 129, 57, 1, 0.454307
218, 3, wb, attraction, a-b-da, 5, 2, 7, 16, 90, 165, 161, 88, 165, 90, 2, 3.57005
218, 3, wb, attraction, a-b-da, 5, 2, 7, 16, 90, 165, 161, 88, 165, 90, 1, 0.56959
218, 3, wb, attraction, a-b-da, 9, 2, 7, 17, 157, 86, 165, 90, 90, 165, 3, 1.03272
218, 3, wb, attraction, a-b-da, 9, 2, 7, 17, 157, 86, 165, 90, 90, 165, 1, 1.47855
218, 3, wb, attraction, a-b-da, 5, 3, 7, 18, 190, 117, 120, 195, 195, 120, 2, 1.40044
218, 3, wb, attraction, a-b-da, 5, 3, 7, 18, 190, 117, 120, 195, 195, 120, 3, 0.3835
218, 3, wb, attraction, a-b-db, 2, 1, 7, 19, 135, 60, 59, 134, 60, 135, 2, 0.565984
218, 3, wb, attraction, a-b-db, 2, 1, 7, 19, 135, 60, 59, 134, 60, 135, 3, 0.654437
218, 3, wb, filler, NA, 999, 999, 7, 20, 180, 153, 76, 148, 124, 85, 2, 0.578112
218, 3, wb, filler, NA, 999, 999, 7, 20, 180, 153, 76, 148, 124, 85, 1, 0.553864
218, 3, wb, filler, NA, 999, 999, 7, 21, 166, 90, 150, 110, 162, 182, 2, 0.985718
218, 3, wb, filler, NA, 999, 999, 7, 21, 166, 90, 150, 110, 162, 182, 3, 1.01728
218, 3, wb, attraction, a-b-db, 14, 1, 7, 22, 60, 135, 56, 125, 135, 60, 2, 0.686299
218, 3, wb, attraction, a-b-db, 14, 1, 7, 22, 60, 135, 56, 125, 135, 60, 1, 0.418087
218, 3, wb, attraction, a-b-da, 2, 2, 7, 23, 163, 89, 165, 90, 90, 165, 3, 3.33528
218, 3, wb, attraction, a-b-da, 2, 2, 7, 23, 163, 89, 165, 90, 90, 165, 1, 0.384132
218, 3, wb, attraction, a-b-da, 9, 3, 7, 24, 186, 114, 120, 195, 195, 120, 2, 1.88669
218, 3, wb, attraction, a-b-da, 9, 3, 7, 24, 186, 114, 120, 195, 195, 120, 1, 0.313958
218, 3, wb, attraction, a-b-da, 14, 2, 7, 25, 165, 90, 153, 83, 90, 165, 3, 1.56324
218, 3, wb, attraction, a-b-da, 14, 2, 7, 25, 165, 90, 153, 83, 90, 165, 1, 0.715323
218, 3, wb, filler, NA, 999, 999, 7, 26, 104, 178, 171, 66, 163, 115, 2, 1.09238
218, 3, wb, filler, NA, 999, 999, 7, 26, 104, 178, 171, 66, 163, 115, 3, 0.415557
218, 3, wb, attraction, a-b-db, 9, 2, 7, 27, 90, 165, 86, 157, 165, 90, 2, 1.36447
218, 3, wb, attraction, a-b-db, 9, 2, 7, 27, 90, 165, 86, 157, 165, 90, 3, 0.420782
218, 3, wb, filler, NA, 999, 999, 7, 28, 56, 128, 70, 177, 192, 69, 1, 1.3458
218, 3, wb, filler, NA, 999, 999, 7, 28, 56, 128, 70, 177, 192, 69, 2, 0.346732
218, 3, wb, attraction, a-b-db, 9, 3, 7, 29, 195, 120, 114, 186, 120, 195, 2, 2.41855
218, 3, wb, attraction, a-b-db, 9, 3, 7, 29, 195, 120, 114, 186, 120, 195, 3, 0.312624
218, 3, wb, attraction, a-b-da, 2, 1, 7, 30, 60, 135, 134, 59, 135, 60, 2, 0.657753
218, 3, wb, attraction, a-b-da, 2, 1, 7, 30, 60, 135, 134, 59, 135, 60, 3, 0.902251
218, 3, wb, attraction, a-b-db, 2, 2, 7, 31, 165, 90, 89, 163, 90, 165, 2, 1.06386
218, 3, wb, attraction, a-b-db, 2, 2, 7, 31, 165, 90, 89, 163, 90, 165, 3, 0.436041
218, 3, wb, catch, NA, 999, 999, 7, 32, 105, 90, 107, 148, 137, 178, 1, 0.792608
218, 3, wb, catch, NA, 999, 999, 7, 32, 105, 90, 107, 148, 137, 178, 3, 0.51151
218, 3, wb, attraction, a-b-da, 5, 1, 7, 33, 60, 135, 132, 58, 135, 60, 2, 1.16059
218, 3, wb, attraction, a-b-da, 5, 1, 7, 33, 60, 135, 132, 58, 135, 60, 1, 0.992949
218, 3, wb, attraction, a-b-da, 14, 3, 7, 34, 195, 120, 181, 111, 120, 195, 3, 0.510592
218, 3, wb, attraction, a-b-da, 14, 3, 7, 34, 195, 120, 181, 111, 120, 195, 2, 0.305129
218, 3, wb, filler, NA, 999, 999, 7, 35, 127, 104, 75, 163, 112, 173, 1, 0.906947
218, 3, wb, filler, NA, 999, 999, 7, 35, 127, 104, 75, 163, 112, 173, 2, 0.669196
218, 3, wb, attraction, a-b-db, 5, 3, 7, 36, 195, 120, 117, 190, 120, 195, 2, 1.00829
218, 3, wb, attraction, a-b-db, 5, 3, 7, 36, 195, 120, 117, 190, 120, 195, 3, 0.854692
218, 3, wb, attraction, a-b-da, 14, 1, 7, 37, 135, 60, 125, 56, 60, 135, 3, 1.68233
218, 3, wb, attraction, a-b-da, 14, 1, 7, 37, 135, 60, 125, 56, 60, 135, 1, 0.541701
218, 3, wb, filler, NA, 999, 999, 8, 1, 137, 121, 176, 185, 153, 151, 1, 1.17349
218, 3, wb, filler, NA, 999, 999, 8, 1, 137, 121, 176, 185, 153, 151, 2, 0.581127
218, 3, wb, attraction, a-b-db, 5, 1, 8, 2, 58, 132, 60, 135, 135, 60, 2, 1.69153
218, 3, wb, attraction, a-b-db, 5, 1, 8, 2, 58, 132, 60, 135, 135, 60, 3, 0.622344
218, 3, wb, catch, NA, 999, 999, 8, 3, 121, 194, 96, 99, 134, 121, 2, 0.531434
218, 3, wb, catch, NA, 999, 999, 8, 3, 121, 194, 96, 99, 134, 121, 1, 0.365356
218, 3, wb, attraction, a-b-db, 5, 2, 8, 4, 165, 90, 90, 165, 88, 161, 2, 0.96439
218, 3, wb, attraction, a-b-db, 5, 2, 8, 4, 165, 90, 90, 165, 88, 161, 1, 0.38072
218, 3, wb, filler, NA, 999, 999, 8, 5, 178, 176, 108, 102, 192, 120, 1, 0.891147
218, 3, wb, filler, NA, 999, 999, 8, 5, 178, 176, 108, 102, 192, 120, 2, 0.5023
218, 3, wb, attraction, a-b-db, 14, 2, 8, 6, 83, 153, 90, 165, 165, 90, 1, 2.28799
218, 3, wb, attraction, a-b-db, 14, 2, 8, 6, 83, 153, 90, 165, 165, 90, 2, 0.379337
218, 3, wb, filler, NA, 999, 999, 8, 7, 157, 164, 57, 171, 138, 143, 2, 1.11382
218, 3, wb, filler, NA, 999, 999, 8, 7, 157, 164, 57, 171, 138, 143, 1, 1.79616
218, 3, wb, attraction, a-b-db, 9, 2, 8, 8, 165, 90, 86, 157, 90, 165, 2, 1.25741
218, 3, wb, attraction, a-b-db, 9, 2, 8, 8, 165, 90, 86, 157, 90, 165, 1, 0.541761
218, 3, wb, attraction, a-b-da, 14, 3, 8, 9, 181, 111, 195, 120, 120, 195, 3, 2.50153
218, 3, wb, attraction, a-b-da, 14, 3, 8, 9, 181, 111, 195, 120, 120, 195, 1, 0.488034
218, 3, wb, filler, NA, 999, 999, 8, 10, 129, 66, 129, 188, 192, 134, 1, 0.738472
218, 3, wb, filler, NA, 999, 999, 8, 10, 129, 66, 129, 188, 192, 134, 3, 0.587564
218, 3, wb, attraction, a-b-da, 5, 1, 8, 11, 132, 58, 135, 60, 60, 135, 2, 0.753982
218, 3, wb, attraction, a-b-da, 5, 1, 8, 11, 132, 58, 135, 60, 60, 135, 3, 0.699061
218, 3, wb, attraction, a-b-db, 2, 3, 8, 12, 120, 195, 195, 120, 119, 193, 2, 1.1487
218, 3, wb, attraction, a-b-db, 2, 3, 8, 12, 120, 195, 195, 120, 119, 193, 3, 0.581716
218, 3, wb, attraction, a-b-da, 2, 2, 8, 13, 163, 89, 90, 165, 165, 90, 2, 0.852066
218, 3, wb, attraction, a-b-da, 2, 2, 8, 13, 163, 89, 90, 165, 165, 90, 3, 0.74533
218, 3, wb, attraction, a-b-da, 9, 3, 8, 14, 186, 114, 195, 120, 120, 195, 2, 2.03301
218, 3, wb, attraction, a-b-da, 9, 3, 8, 14, 186, 114, 195, 120, 120, 195, 1, 0.534233
218, 3, wb, attraction, a-b-db, 2, 2, 8, 15, 165, 90, 90, 165, 89, 163, 2, 1.75873
218, 3, wb, attraction, a-b-db, 2, 2, 8, 15, 165, 90, 90, 165, 89, 163, 1, 0.534782
218, 3, wb, attraction, a-b-db, 14, 3, 8, 16, 111, 181, 195, 120, 120, 195, 2, 3.46325
218, 3, wb, attraction, a-b-db, 14, 3, 8, 16, 111, 181, 195, 120, 120, 195, 3, 0.538871
218, 3, wb, attraction, a-b-db, 2, 1, 8, 17, 60, 135, 59, 134, 135, 60, 2, 5.73131
218, 3, wb, attraction, a-b-db, 2, 1, 8, 17, 60, 135, 59, 134, 135, 60, 1, 0.435402
218, 3, wb, attraction, a-b-db, 14, 1, 8, 18, 56, 125, 60, 135, 135, 60, 2, 1.45613
218, 3, wb, attraction, a-b-db, 14, 1, 8, 18, 56, 125, 60, 135, 135, 60, 1, 0.292077
218, 3, wb, attraction, a-b-db, 5, 3, 8, 19, 117, 190, 120, 195, 195, 120, 2, 1.85387
218, 3, wb, attraction, a-b-db, 5, 3, 8, 19, 117, 190, 120, 195, 195, 120, 1, 0.338706
218, 3, wb, catch, NA, 999, 999, 8, 20, 140, 115, 144, 171, 114, 81, 3, 0.659217
218, 3, wb, catch, NA, 999, 999, 8, 20, 140, 115, 144, 171, 114, 81, 2, 0.367567
218, 3, wb, attraction, a-b-da, 14, 2, 8, 21, 153, 83, 165, 90, 90, 165, 2, 2.18276
218, 3, wb, attraction, a-b-da, 14, 2, 8, 21, 153, 83, 165, 90, 90, 165, 1, 0.398007
218, 3, wb, attraction, a-b-da, 9, 2, 8, 22, 90, 165, 157, 86, 165, 90, 3, 3.71576
218, 3, wb, attraction, a-b-da, 9, 2, 8, 22, 90, 165, 157, 86, 165, 90, 1, 0.237286
218, 3, wb, attraction, a-b-da, 9, 1, 8, 23, 60, 135, 135, 60, 129, 57, 3, 1.09795
218, 3, wb, attraction, a-b-da, 9, 1, 8, 23, 60, 135, 135, 60, 129, 57, 1, 0.388917
218, 3, wb, filler, NA, 999, 999, 8, 24, 110, 183, 125, 129, 77, 145, 3, 0.507368
218, 3, wb, filler, NA, 999, 999, 8, 24, 110, 183, 125, 129, 77, 145, 2, 0.261799
218, 3, wb, attraction, a-b-da, 5, 2, 8, 25, 161, 88, 90, 165, 165, 90, 3, 2.71298
218, 3, wb, attraction, a-b-da, 5, 2, 8, 25, 161, 88, 90, 165, 165, 90, 2, 0.290916
218, 3, wb, filler, NA, 999, 999, 8, 26, 131, 110, 88, 63, 86, 167, 2, 0.748516
218, 3, wb, filler, NA, 999, 999, 8, 26, 131, 110, 88, 63, 86, 167, 1, 0.421721
218, 3, wb, filler, NA, 999, 999, 8, 27, 103, 167, 112, 101, 68, 188, 2, 1.87482
218, 3, wb, filler, NA, 999, 999, 8, 27, 103, 167, 112, 101, 68, 188, 1, 0.318294
218, 3, wb, attraction, a-b-da, 2, 1, 8, 28, 60, 135, 134, 59, 135, 60, 2, 1.83141
218, 3, wb, attraction, a-b-da, 2, 1, 8, 28, 60, 135, 134, 59, 135, 60, 3, 0.332913
218, 3, wb, filler, NA, 999, 999, 8, 29, 110, 136, 117, 119, 141, 97, 2, 1.80534
218, 3, wb, filler, NA, 999, 999, 8, 29, 110, 136, 117, 119, 141, 97, 1, 0.83541
218, 3, wb, filler, NA, 999, 999, 8, 30, 87, 149, 156, 131, 101, 128, 1, 0.999761
218, 3, wb, filler, NA, 999, 999, 8, 30, 87, 149, 156, 131, 101, 128, 2, 0.598888
218, 3, wb, attraction, a-b-da, 2, 3, 8, 31, 120, 195, 193, 119, 195, 120, 2, 2.58048
218, 3, wb, attraction, a-b-da, 2, 3, 8, 31, 120, 195, 193, 119, 195, 120, 3, 0.491727
218, 3, wb, attraction, a-b-da, 14, 1, 8, 32, 125, 56, 135, 60, 60, 135, 2, 3.53336
218, 3, wb, attraction, a-b-da, 14, 1, 8, 32, 125, 56, 135, 60, 60, 135, 3, 0.374238
218, 3, wb, attraction, a-b-db, 9, 1, 8, 33, 57, 129, 60, 135, 135, 60, 2, 1.34887
218, 3, wb, attraction, a-b-db, 9, 1, 8, 33, 57, 129, 60, 135, 135, 60, 1, 0.541593
218, 3, wb, filler, NA, 999, 999, 8, 34, 178, 102, 193, 127, 114, 62, 3, 0.789527
218, 3, wb, filler, NA, 999, 999, 8, 34, 178, 102, 193, 127, 114, 62, 2, 0.324516
218, 3, wb, catch, NA, 999, 999, 8, 35, 141, 114, 125, 190, 130, 65, 3, 0.932939
218, 3, wb, catch, NA, 999, 999, 8, 35, 141, 114, 125, 190, 130, 65, 2, 0.382784
218, 3, wb, attraction, a-b-da, 5, 3, 8, 36, 195, 120, 120, 195, 190, 117, 2, 1.13321
218, 3, wb, attraction, a-b-da, 5, 3, 8, 36, 195, 120, 120, 195, 190, 117, 3, 0.342815
218, 3, wb, attraction, a-b-db, 9, 3, 8, 37, 120, 195, 195, 120, 114, 186, 2, 4.09458
218, 3, wb, attraction, a-b-db, 9, 3, 8, 37, 120, 195, 195, 120, 114, 186, 3, 0.360771
