sub_n, computer_n, bw_cond, effect, set, distance, diag, block_n, trial_n, h1, w1, h2, w2, h3, w3, choice, rt 
249, 3, bw, practice, NA, 999, 999, 0, 1, 184, 115, 115, 138, 81, 143, 1, 3.74543
249, 3, bw, practice, NA, 999, 999, 0, 1, 184, 115, 115, 138, 81, 143, 3, 4.31454
249, 3, bw, practice, NA, 999, 999, 0, 2, 93, 192, 84, 90, 143, 168, 3, 7.74205
249, 3, bw, practice, NA, 999, 999, 0, 2, 93, 192, 84, 90, 143, 168, 2, 3.99052
249, 3, bw, practice, NA, 999, 999, 0, 3, 157, 178, 146, 157, 56, 120, 1, 4.98561
249, 3, bw, practice, NA, 999, 999, 0, 3, 157, 178, 146, 157, 56, 120, 3, 1.92009
249, 3, bw, attraction, a-b-db, 9, 1, 1, 1, 57, 129, 60, 135, 135, 60, 2, 2.52516
249, 3, bw, attraction, a-b-db, 9, 1, 1, 1, 57, 129, 60, 135, 135, 60, 3, 3.05448
249, 3, bw, attraction, a-b-db, 5, 3, 1, 2, 195, 120, 120, 195, 117, 190, 2, 2.49728
249, 3, bw, attraction, a-b-db, 5, 3, 1, 2, 195, 120, 120, 195, 117, 190, 1, 5.32389
249, 3, bw, attraction, a-b-db, 2, 1, 1, 3, 135, 60, 59, 134, 60, 135, 2, 4.8836
249, 3, bw, attraction, a-b-db, 2, 1, 1, 3, 135, 60, 59, 134, 60, 135, 1, 1.74992
249, 3, bw, attraction, a-b-da, 5, 1, 1, 4, 60, 135, 132, 58, 135, 60, 1, 3.82137
249, 3, bw, attraction, a-b-da, 5, 1, 1, 4, 60, 135, 132, 58, 135, 60, 2, 3.44287
249, 3, bw, attraction, a-b-da, 9, 2, 1, 5, 157, 86, 90, 165, 165, 90, 2, 1.6617
249, 3, bw, attraction, a-b-da, 9, 2, 1, 5, 157, 86, 90, 165, 165, 90, 1, 1.73781
249, 3, bw, attraction, a-b-db, 14, 2, 1, 6, 83, 153, 90, 165, 165, 90, 2, 3.18582
249, 3, bw, attraction, a-b-db, 14, 2, 1, 6, 83, 153, 90, 165, 165, 90, 1, 12.2167
249, 3, bw, filler, NA, 999, 999, 1, 7, 153, 89, 178, 83, 190, 56, 1, 13.5864
249, 3, bw, filler, NA, 999, 999, 1, 7, 153, 89, 178, 83, 190, 56, 3, 1.62209
249, 3, bw, filler, NA, 999, 999, 1, 8, 154, 175, 181, 76, 127, 67, 1, 1.31472
249, 3, bw, filler, NA, 999, 999, 1, 8, 154, 175, 181, 76, 127, 67, 3, 1.31694
249, 3, bw, attraction, a-b-db, 5, 2, 1, 9, 88, 161, 165, 90, 90, 165, 3, 3.27799
249, 3, bw, attraction, a-b-db, 5, 2, 1, 9, 88, 161, 165, 90, 90, 165, 2, 4.72895
249, 3, bw, filler, NA, 999, 999, 1, 10, 104, 93, 110, 110, 61, 59, 2, 1.9679
249, 3, bw, filler, NA, 999, 999, 1, 10, 104, 93, 110, 110, 61, 59, 3, 0.975952
249, 3, bw, attraction, a-b-db, 14, 3, 1, 11, 195, 120, 111, 181, 120, 195, 3, 2.86233
249, 3, bw, attraction, a-b-db, 14, 3, 1, 11, 195, 120, 111, 181, 120, 195, 1, 4.57802
249, 3, bw, attraction, a-b-db, 5, 1, 1, 12, 60, 135, 58, 132, 135, 60, 2, 7.73525
249, 3, bw, attraction, a-b-db, 5, 1, 1, 12, 60, 135, 58, 132, 135, 60, 3, 0.766708
249, 3, bw, attraction, a-b-da, 9, 1, 1, 13, 135, 60, 60, 135, 129, 57, 2, 2.22971
249, 3, bw, attraction, a-b-da, 9, 1, 1, 13, 135, 60, 60, 135, 129, 57, 3, 0.891041
249, 3, bw, attraction, a-b-da, 14, 2, 1, 14, 153, 83, 165, 90, 90, 165, 3, 4.45275
249, 3, bw, attraction, a-b-da, 14, 2, 1, 14, 153, 83, 165, 90, 90, 165, 1, 2.63263
249, 3, bw, filler, NA, 999, 999, 1, 15, 138, 109, 70, 135, 65, 155, 1, 1.80449
249, 3, bw, filler, NA, 999, 999, 1, 15, 138, 109, 70, 135, 65, 155, 2, 1.08325
249, 3, bw, attraction, a-b-da, 14, 1, 1, 16, 135, 60, 125, 56, 60, 135, 3, 4.92553
249, 3, bw, attraction, a-b-da, 14, 1, 1, 16, 135, 60, 125, 56, 60, 135, 2, 0.925795
249, 3, bw, attraction, a-b-da, 2, 2, 1, 17, 163, 89, 165, 90, 90, 165, 3, 4.43027
249, 3, bw, attraction, a-b-da, 2, 2, 1, 17, 163, 89, 165, 90, 90, 165, 1, 0.962767
249, 3, bw, filler, NA, 999, 999, 1, 18, 98, 173, 168, 66, 56, 137, 1, 1.26579
249, 3, bw, filler, NA, 999, 999, 1, 18, 98, 173, 168, 66, 56, 137, 3, 1.07003
249, 3, bw, filler, NA, 999, 999, 1, 19, 183, 112, 158, 102, 82, 64, 1, 1.95285
249, 3, bw, filler, NA, 999, 999, 1, 19, 183, 112, 158, 102, 82, 64, 3, 0.817696
249, 3, bw, attraction, a-b-db, 9, 3, 1, 20, 114, 186, 195, 120, 120, 195, 3, 3.31858
249, 3, bw, attraction, a-b-db, 9, 3, 1, 20, 114, 186, 195, 120, 120, 195, 1, 5.44832
249, 3, bw, catch, NA, 999, 999, 1, 21, 94, 161, 113, 82, 181, 134, 3, 1.13046
249, 3, bw, catch, NA, 999, 999, 1, 21, 94, 161, 113, 82, 181, 134, 2, 0.66023
249, 3, bw, filler, NA, 999, 999, 1, 22, 152, 185, 78, 73, 175, 191, 3, 0.887165
249, 3, bw, filler, NA, 999, 999, 1, 22, 152, 185, 78, 73, 175, 191, 2, 0.978845
249, 3, bw, attraction, a-b-da, 9, 3, 1, 23, 186, 114, 120, 195, 195, 120, 2, 2.7852
249, 3, bw, attraction, a-b-da, 9, 3, 1, 23, 186, 114, 120, 195, 195, 120, 1, 0.976259
249, 3, bw, attraction, a-b-da, 2, 3, 1, 24, 120, 195, 195, 120, 193, 119, 1, 4.53465
249, 3, bw, attraction, a-b-da, 2, 3, 1, 24, 120, 195, 195, 120, 193, 119, 3, 2.43917
249, 3, bw, filler, NA, 999, 999, 1, 25, 64, 112, 134, 187, 172, 77, 2, 0.795032
249, 3, bw, filler, NA, 999, 999, 1, 25, 64, 112, 134, 187, 172, 77, 1, 0.666063
249, 3, bw, attraction, a-b-da, 5, 3, 1, 26, 120, 195, 195, 120, 190, 117, 1, 3.18113
249, 3, bw, attraction, a-b-da, 5, 3, 1, 26, 120, 195, 195, 120, 190, 117, 3, 1.31616
249, 3, bw, attraction, a-b-da, 5, 2, 1, 27, 90, 165, 161, 88, 165, 90, 1, 2.69297
249, 3, bw, attraction, a-b-da, 5, 2, 1, 27, 90, 165, 161, 88, 165, 90, 2, 2.0956
249, 3, bw, attraction, a-b-da, 2, 1, 1, 28, 134, 59, 60, 135, 135, 60, 2, 2.60879
249, 3, bw, attraction, a-b-da, 2, 1, 1, 28, 134, 59, 60, 135, 135, 60, 1, 0.862549
249, 3, bw, filler, NA, 999, 999, 1, 29, 188, 125, 64, 116, 171, 110, 1, 1.12154
249, 3, bw, filler, NA, 999, 999, 1, 29, 188, 125, 64, 116, 171, 110, 2, 0.739898
249, 3, bw, attraction, a-b-db, 14, 1, 1, 30, 56, 125, 60, 135, 135, 60, 2, 1.68432
249, 3, bw, attraction, a-b-db, 14, 1, 1, 30, 56, 125, 60, 135, 135, 60, 1, 6.17567
249, 3, bw, attraction, a-b-da, 14, 3, 1, 31, 195, 120, 120, 195, 181, 111, 2, 1.79646
249, 3, bw, attraction, a-b-da, 14, 3, 1, 31, 195, 120, 120, 195, 181, 111, 3, 0.539113
249, 3, bw, attraction, a-b-db, 2, 3, 1, 32, 195, 120, 119, 193, 120, 195, 2, 4.33162
249, 3, bw, attraction, a-b-db, 2, 3, 1, 32, 195, 120, 119, 193, 120, 195, 1, 1.47614
249, 3, bw, attraction, a-b-db, 2, 2, 1, 33, 90, 165, 165, 90, 89, 163, 1, 4.28628
249, 3, bw, attraction, a-b-db, 2, 2, 1, 33, 90, 165, 165, 90, 89, 163, 2, 1.64094
249, 3, bw, filler, NA, 999, 999, 1, 34, 134, 107, 119, 155, 146, 172, 3, 1.61238
249, 3, bw, filler, NA, 999, 999, 1, 34, 134, 107, 119, 155, 146, 172, 1, 0.666517
249, 3, bw, catch, NA, 999, 999, 1, 35, 184, 131, 140, 115, 76, 119, 1, 1.12565
249, 3, bw, catch, NA, 999, 999, 1, 35, 184, 131, 140, 115, 76, 119, 3, 0.991259
249, 3, bw, catch, NA, 999, 999, 1, 36, 131, 124, 108, 87, 168, 147, 3, 1.08492
249, 3, bw, catch, NA, 999, 999, 1, 36, 131, 124, 108, 87, 168, 147, 2, 0.616449
249, 3, bw, attraction, a-b-db, 9, 2, 1, 37, 165, 90, 90, 165, 86, 157, 2, 1.78953
249, 3, bw, attraction, a-b-db, 9, 2, 1, 37, 165, 90, 90, 165, 86, 157, 1, 0.844283
249, 3, bw, filler, NA, 999, 999, 2, 1, 64, 161, 125, 191, 139, 180, 3, 1.03202
249, 3, bw, filler, NA, 999, 999, 2, 1, 64, 161, 125, 191, 139, 180, 1, 0.557554
249, 3, bw, attraction, a-b-da, 9, 2, 2, 2, 165, 90, 157, 86, 90, 165, 3, 1.89264
249, 3, bw, attraction, a-b-da, 9, 2, 2, 2, 165, 90, 157, 86, 90, 165, 1, 0.72739
249, 3, bw, filler, NA, 999, 999, 2, 3, 162, 64, 122, 87, 129, 81, 2, 0.871949
249, 3, bw, filler, NA, 999, 999, 2, 3, 162, 64, 122, 87, 129, 81, 1, 0.811445
249, 3, bw, attraction, a-b-db, 2, 1, 2, 4, 59, 134, 135, 60, 60, 135, 3, 7.14461
249, 3, bw, attraction, a-b-db, 2, 1, 2, 4, 59, 134, 135, 60, 60, 135, 2, 0.615656
249, 3, bw, attraction, a-b-db, 9, 2, 2, 5, 90, 165, 86, 157, 165, 90, 1, 7.88469
249, 3, bw, attraction, a-b-db, 9, 2, 2, 5, 90, 165, 86, 157, 165, 90, 3, 3.27831
249, 3, bw, filler, NA, 999, 999, 2, 6, 100, 166, 108, 147, 126, 170, 3, 0.863849
249, 3, bw, filler, NA, 999, 999, 2, 6, 100, 166, 108, 147, 126, 170, 1, 1.15636
249, 3, bw, attraction, a-b-db, 9, 3, 2, 7, 120, 195, 195, 120, 114, 186, 1, 5.60384
249, 3, bw, attraction, a-b-db, 9, 3, 2, 7, 120, 195, 195, 120, 114, 186, 3, 1.65729
249, 3, bw, filler, NA, 999, 999, 2, 8, 83, 168, 64, 188, 74, 191, 1, 4.23606
249, 3, bw, filler, NA, 999, 999, 2, 8, 83, 168, 64, 188, 74, 191, 2, 1.18478
249, 3, bw, attraction, a-b-da, 5, 2, 2, 9, 90, 165, 165, 90, 161, 88, 1, 1.71898
249, 3, bw, attraction, a-b-da, 5, 2, 2, 9, 90, 165, 165, 90, 161, 88, 3, 1.90514
249, 3, bw, attraction, a-b-da, 2, 1, 2, 10, 134, 59, 60, 135, 135, 60, 2, 5.02638
249, 3, bw, attraction, a-b-da, 2, 1, 2, 10, 134, 59, 60, 135, 135, 60, 1, 0.542732
249, 3, bw, filler, NA, 999, 999, 2, 11, 96, 132, 92, 171, 115, 103, 2, 2.7506
249, 3, bw, filler, NA, 999, 999, 2, 11, 96, 132, 92, 171, 115, 103, 3, 0.943
249, 3, bw, attraction, a-b-da, 14, 1, 2, 12, 135, 60, 60, 135, 125, 56, 2, 4.10265
249, 3, bw, attraction, a-b-da, 14, 1, 2, 12, 135, 60, 60, 135, 125, 56, 3, 3.53675
249, 3, bw, attraction, a-b-db, 14, 2, 2, 13, 165, 90, 90, 165, 83, 153, 2, 2.40819
249, 3, bw, attraction, a-b-db, 14, 2, 2, 13, 165, 90, 90, 165, 83, 153, 3, 3.51017
249, 3, bw, attraction, a-b-db, 5, 1, 2, 14, 58, 132, 60, 135, 135, 60, 2, 2.58243
249, 3, bw, attraction, a-b-db, 5, 1, 2, 14, 58, 132, 60, 135, 135, 60, 3, 5.49347
249, 3, bw, catch, NA, 999, 999, 2, 15, 120, 195, 82, 113, 114, 141, 1, 3.62164
249, 3, bw, catch, NA, 999, 999, 2, 15, 120, 195, 82, 113, 114, 141, 2, 0.523118
249, 3, bw, attraction, a-b-da, 14, 3, 2, 16, 181, 111, 195, 120, 120, 195, 3, 7.26838
249, 3, bw, attraction, a-b-da, 14, 3, 2, 16, 181, 111, 195, 120, 120, 195, 1, 0.638588
249, 3, bw, attraction, a-b-db, 14, 3, 2, 17, 195, 120, 111, 181, 120, 195, 3, 4.05911
249, 3, bw, attraction, a-b-db, 14, 3, 2, 17, 195, 120, 111, 181, 120, 195, 1, 1.07852
249, 3, bw, attraction, a-b-db, 5, 2, 2, 18, 165, 90, 88, 161, 90, 165, 2, 5.08879
249, 3, bw, attraction, a-b-db, 5, 2, 2, 18, 165, 90, 88, 161, 90, 165, 1, 0.363051
249, 3, bw, filler, NA, 999, 999, 2, 19, 136, 129, 165, 80, 79, 116, 1, 0.866345
249, 3, bw, filler, NA, 999, 999, 2, 19, 136, 129, 165, 80, 79, 116, 3, 1.27068
249, 3, bw, attraction, a-b-da, 5, 3, 2, 20, 120, 195, 190, 117, 195, 120, 1, 6.17754
249, 3, bw, attraction, a-b-da, 5, 3, 2, 20, 120, 195, 190, 117, 195, 120, 2, 1.3836
249, 3, bw, attraction, a-b-db, 2, 3, 2, 21, 119, 193, 195, 120, 120, 195, 3, 3.05362
249, 3, bw, attraction, a-b-db, 2, 3, 2, 21, 119, 193, 195, 120, 120, 195, 2, 16.4901
249, 3, bw, attraction, a-b-da, 5, 1, 2, 22, 132, 58, 135, 60, 60, 135, 2, 16.6475
249, 3, bw, attraction, a-b-da, 5, 1, 2, 22, 132, 58, 135, 60, 60, 135, 3, 0.575598
249, 3, bw, attraction, a-b-db, 5, 3, 2, 23, 117, 190, 195, 120, 120, 195, 3, 13.3181
249, 3, bw, attraction, a-b-db, 5, 3, 2, 23, 117, 190, 195, 120, 120, 195, 2, 0.636463
249, 3, bw, filler, NA, 999, 999, 2, 24, 148, 132, 149, 188, 178, 62, 2, 1.03294
249, 3, bw, filler, NA, 999, 999, 2, 24, 148, 132, 149, 188, 178, 62, 3, 0.766587
249, 3, bw, catch, NA, 999, 999, 2, 25, 124, 131, 149, 166, 105, 90, 2, 1.00566
249, 3, bw, catch, NA, 999, 999, 2, 25, 124, 131, 149, 166, 105, 90, 3, 0.587988
249, 3, bw, attraction, a-b-db, 9, 1, 2, 26, 135, 60, 57, 129, 60, 135, 2, 4.76248
249, 3, bw, attraction, a-b-db, 9, 1, 2, 26, 135, 60, 57, 129, 60, 135, 1, 0.625481
249, 3, bw, attraction, a-b-da, 9, 1, 2, 27, 135, 60, 60, 135, 129, 57, 2, 0.765877
249, 3, bw, attraction, a-b-da, 9, 1, 2, 27, 135, 60, 60, 135, 129, 57, 3, 0.998468
249, 3, bw, attraction, a-b-da, 14, 2, 2, 28, 165, 90, 90, 165, 153, 83, 2, 0.923933
249, 3, bw, attraction, a-b-da, 14, 2, 2, 28, 165, 90, 90, 165, 153, 83, 3, 1.10972
249, 3, bw, catch, NA, 999, 999, 2, 29, 114, 81, 133, 182, 99, 156, 2, 0.598543
249, 3, bw, catch, NA, 999, 999, 2, 29, 114, 81, 133, 182, 99, 156, 1, 1.31769
249, 3, bw, attraction, a-b-da, 2, 2, 2, 30, 163, 89, 90, 165, 165, 90, 2, 2.86269
249, 3, bw, attraction, a-b-da, 2, 2, 2, 30, 163, 89, 90, 165, 165, 90, 3, 0.570389
249, 3, bw, filler, NA, 999, 999, 2, 31, 105, 162, 56, 147, 84, 136, 1, 1.13736
249, 3, bw, filler, NA, 999, 999, 2, 31, 105, 162, 56, 147, 84, 136, 2, 0.835
249, 3, bw, attraction, a-b-da, 2, 3, 2, 32, 193, 119, 120, 195, 195, 120, 2, 0.951508
249, 3, bw, attraction, a-b-da, 2, 3, 2, 32, 193, 119, 120, 195, 195, 120, 1, 0.808378
249, 3, bw, attraction, a-b-da, 9, 3, 2, 33, 186, 114, 120, 195, 195, 120, 2, 2.64554
249, 3, bw, attraction, a-b-da, 9, 3, 2, 33, 186, 114, 120, 195, 195, 120, 1, 0.849888
249, 3, bw, filler, NA, 999, 999, 2, 34, 87, 164, 149, 115, 132, 139, 2, 0.757546
249, 3, bw, filler, NA, 999, 999, 2, 34, 87, 164, 149, 115, 132, 139, 1, 4.05389
249, 3, bw, filler, NA, 999, 999, 2, 35, 157, 82, 75, 149, 104, 77, 2, 1.14464
249, 3, bw, filler, NA, 999, 999, 2, 35, 157, 82, 75, 149, 104, 77, 3, 0.88964
249, 3, bw, attraction, a-b-db, 14, 1, 2, 36, 135, 60, 60, 135, 56, 125, 2, 1.38801
249, 3, bw, attraction, a-b-db, 14, 1, 2, 36, 135, 60, 60, 135, 56, 125, 3, 0.490817
249, 3, bw, attraction, a-b-db, 2, 2, 2, 37, 90, 165, 165, 90, 89, 163, 1, 2.16452
249, 3, bw, attraction, a-b-db, 2, 2, 2, 37, 90, 165, 165, 90, 89, 163, 3, 2.10055
249, 3, bw, attraction, a-b-db, 2, 3, 3, 1, 119, 193, 120, 195, 195, 120, 2, 0.597819
249, 3, bw, attraction, a-b-db, 2, 3, 3, 1, 119, 193, 120, 195, 195, 120, 3, 3.46103
249, 3, bw, attraction, a-b-da, 9, 3, 3, 2, 195, 120, 120, 195, 186, 114, 2, 0.71913
249, 3, bw, attraction, a-b-da, 9, 3, 3, 2, 195, 120, 120, 195, 186, 114, 3, 9.78557
249, 3, bw, catch, NA, 999, 999, 3, 3, 79, 116, 173, 142, 125, 130, 2, 1.12514
249, 3, bw, catch, NA, 999, 999, 3, 3, 79, 116, 173, 142, 125, 130, 1, 0.518712
249, 3, bw, attraction, a-b-da, 9, 1, 3, 4, 129, 57, 135, 60, 60, 135, 2, 1.42394
249, 3, bw, attraction, a-b-da, 9, 1, 3, 4, 129, 57, 135, 60, 60, 135, 1, 0.557274
249, 3, bw, filler, NA, 999, 999, 3, 5, 181, 156, 91, 78, 58, 73, 1, 0.812365
249, 3, bw, filler, NA, 999, 999, 3, 5, 181, 156, 91, 78, 58, 73, 3, 0.746813
249, 3, bw, attraction, a-b-da, 2, 1, 3, 6, 134, 59, 60, 135, 135, 60, 2, 1.21861
249, 3, bw, attraction, a-b-da, 2, 1, 3, 6, 134, 59, 60, 135, 135, 60, 1, 1.55284
249, 3, bw, filler, NA, 999, 999, 3, 7, 57, 137, 87, 103, 76, 181, 3, 2.15227
249, 3, bw, filler, NA, 999, 999, 3, 7, 57, 137, 87, 103, 76, 181, 2, 0.832958
249, 3, bw, attraction, a-b-db, 14, 2, 3, 8, 90, 165, 165, 90, 83, 153, 1, 1.29327
249, 3, bw, attraction, a-b-db, 14, 2, 3, 8, 90, 165, 165, 90, 83, 153, 2, 0.384173
249, 3, bw, filler, NA, 999, 999, 3, 9, 147, 118, 120, 67, 57, 186, 1, 0.838598
249, 3, bw, filler, NA, 999, 999, 3, 9, 147, 118, 120, 67, 57, 186, 2, 0.363811
249, 3, bw, attraction, a-b-db, 2, 1, 3, 10, 59, 134, 60, 135, 135, 60, 2, 7.51493
249, 3, bw, attraction, a-b-db, 2, 1, 3, 10, 59, 134, 60, 135, 135, 60, 1, 0.451136
249, 3, bw, attraction, a-b-db, 2, 2, 3, 11, 90, 165, 165, 90, 89, 163, 1, 19.9591
249, 3, bw, attraction, a-b-db, 2, 2, 3, 11, 90, 165, 165, 90, 89, 163, 2, 1.17794
249, 3, bw, filler, NA, 999, 999, 3, 12, 91, 68, 89, 60, 166, 157, 3, 1.04836
249, 3, bw, filler, NA, 999, 999, 3, 12, 91, 68, 89, 60, 166, 157, 2, 1.47731
249, 3, bw, catch, NA, 999, 999, 3, 13, 130, 125, 103, 92, 140, 175, 3, 2.51137
249, 3, bw, catch, NA, 999, 999, 3, 13, 130, 125, 103, 92, 140, 175, 2, 0.697205
249, 3, bw, filler, NA, 999, 999, 3, 14, 94, 195, 165, 103, 110, 120, 1, 3.01902
249, 3, bw, filler, NA, 999, 999, 3, 14, 94, 195, 165, 103, 110, 120, 3, 0.592798
249, 3, bw, filler, NA, 999, 999, 3, 15, 167, 94, 127, 102, 143, 191, 3, 0.782549
249, 3, bw, filler, NA, 999, 999, 3, 15, 167, 94, 127, 102, 143, 191, 2, 0.606196
249, 3, bw, attraction, a-b-da, 14, 2, 3, 16, 165, 90, 90, 165, 153, 83, 2, 1.43596
249, 3, bw, attraction, a-b-da, 14, 2, 3, 16, 165, 90, 90, 165, 153, 83, 3, 0.97751
249, 3, bw, attraction, a-b-db, 9, 3, 3, 17, 195, 120, 114, 186, 120, 195, 3, 10.9757
249, 3, bw, attraction, a-b-db, 9, 3, 3, 17, 195, 120, 114, 186, 120, 195, 2, 6.56431
249, 3, bw, attraction, a-b-da, 5, 1, 3, 18, 60, 135, 135, 60, 132, 58, 1, 2.55346
249, 3, bw, attraction, a-b-da, 5, 1, 3, 18, 60, 135, 135, 60, 132, 58, 3, 1.11412
249, 3, bw, attraction, a-b-da, 9, 2, 3, 19, 165, 90, 157, 86, 90, 165, 3, 1.78685
249, 3, bw, attraction, a-b-da, 9, 2, 3, 19, 165, 90, 157, 86, 90, 165, 2, 3.20235
249, 3, bw, attraction, a-b-db, 5, 2, 3, 20, 90, 165, 165, 90, 88, 161, 1, 4.61527
249, 3, bw, attraction, a-b-db, 5, 2, 3, 20, 90, 165, 165, 90, 88, 161, 2, 0.748452
249, 3, bw, filler, NA, 999, 999, 3, 21, 166, 161, 167, 114, 144, 144, 1, 1.43621
249, 3, bw, filler, NA, 999, 999, 3, 21, 166, 161, 167, 114, 144, 144, 3, 0.70566
249, 3, bw, attraction, a-b-db, 14, 3, 3, 22, 120, 195, 195, 120, 111, 181, 2, 1.70747
249, 3, bw, attraction, a-b-db, 14, 3, 3, 22, 120, 195, 195, 120, 111, 181, 3, 1.40557
249, 3, bw, attraction, a-b-db, 9, 2, 3, 23, 86, 157, 90, 165, 165, 90, 2, 1.74714
249, 3, bw, attraction, a-b-db, 9, 2, 3, 23, 86, 157, 90, 165, 165, 90, 1, 0.395824
249, 3, bw, attraction, a-b-da, 2, 2, 3, 24, 163, 89, 165, 90, 90, 165, 3, 2.48956
249, 3, bw, attraction, a-b-da, 2, 2, 3, 24, 163, 89, 165, 90, 90, 165, 1, 0.396157
249, 3, bw, filler, NA, 999, 999, 3, 25, 143, 58, 161, 76, 141, 143, 3, 0.961969
249, 3, bw, filler, NA, 999, 999, 3, 25, 143, 58, 161, 76, 141, 143, 1, 0.45029
249, 3, bw, attraction, a-b-da, 14, 3, 3, 26, 181, 111, 195, 120, 120, 195, 3, 1.90211
249, 3, bw, attraction, a-b-da, 14, 3, 3, 26, 181, 111, 195, 120, 120, 195, 1, 0.664774
249, 3, bw, attraction, a-b-db, 14, 1, 3, 27, 135, 60, 60, 135, 56, 125, 2, 1.09992
249, 3, bw, attraction, a-b-db, 14, 1, 3, 27, 135, 60, 60, 135, 56, 125, 3, 1.31107
249, 3, bw, filler, NA, 999, 999, 3, 28, 155, 77, 145, 129, 135, 174, 3, 1.29575
249, 3, bw, filler, NA, 999, 999, 3, 28, 155, 77, 145, 129, 135, 174, 1, 0.946559
249, 3, bw, attraction, a-b-da, 5, 2, 3, 29, 165, 90, 161, 88, 90, 165, 3, 1.84226
249, 3, bw, attraction, a-b-da, 5, 2, 3, 29, 165, 90, 161, 88, 90, 165, 2, 2.02301
249, 3, bw, attraction, a-b-da, 5, 3, 3, 30, 190, 117, 120, 195, 195, 120, 2, 1.67573
249, 3, bw, attraction, a-b-da, 5, 3, 3, 30, 190, 117, 120, 195, 195, 120, 1, 1.53518
249, 3, bw, catch, NA, 999, 999, 3, 31, 130, 65, 177, 138, 145, 110, 2, 0.831238
249, 3, bw, catch, NA, 999, 999, 3, 31, 130, 65, 177, 138, 145, 110, 1, 0.620921
249, 3, bw, filler, NA, 999, 999, 3, 32, 108, 57, 167, 57, 181, 167, 3, 0.714053
249, 3, bw, filler, NA, 999, 999, 3, 32, 108, 57, 167, 57, 181, 167, 1, 0.540404
249, 3, bw, attraction, a-b-db, 9, 1, 3, 33, 60, 135, 57, 129, 135, 60, 2, 2.01227
249, 3, bw, attraction, a-b-db, 9, 1, 3, 33, 60, 135, 57, 129, 135, 60, 3, 1.12231
249, 3, bw, attraction, a-b-da, 14, 1, 3, 34, 125, 56, 135, 60, 60, 135, 3, 1.27516
249, 3, bw, attraction, a-b-da, 14, 1, 3, 34, 125, 56, 135, 60, 60, 135, 1, 0.822797
249, 3, bw, attraction, a-b-db, 5, 3, 3, 35, 195, 120, 120, 195, 117, 190, 2, 1.53984
249, 3, bw, attraction, a-b-db, 5, 3, 3, 35, 195, 120, 120, 195, 117, 190, 1, 2.86864
249, 3, bw, attraction, a-b-db, 5, 1, 3, 36, 60, 135, 135, 60, 58, 132, 1, 4.16693
249, 3, bw, attraction, a-b-db, 5, 1, 3, 36, 60, 135, 135, 60, 58, 132, 3, 0.446406
249, 3, bw, attraction, a-b-da, 2, 3, 3, 37, 195, 120, 193, 119, 120, 195, 3, 1.6741
249, 3, bw, attraction, a-b-da, 2, 3, 3, 37, 195, 120, 193, 119, 120, 195, 2, 1.95756
249, 3, bw, filler, NA, 999, 999, 4, 1, 179, 169, 110, 185, 164, 165, 1, 2.06023
249, 3, bw, filler, NA, 999, 999, 4, 1, 179, 169, 110, 185, 164, 165, 2, 1.43222
249, 3, bw, filler, NA, 999, 999, 4, 2, 66, 131, 171, 129, 148, 101, 2, 1.33236
249, 3, bw, filler, NA, 999, 999, 4, 2, 66, 131, 171, 129, 148, 101, 1, 0.621928
249, 3, bw, attraction, a-b-db, 5, 3, 4, 3, 195, 120, 120, 195, 117, 190, 2, 2.1797
249, 3, bw, attraction, a-b-db, 5, 3, 4, 3, 195, 120, 120, 195, 117, 190, 1, 0.738214
249, 3, bw, filler, NA, 999, 999, 4, 4, 170, 90, 98, 79, 105, 188, 3, 1.95471
249, 3, bw, filler, NA, 999, 999, 4, 4, 170, 90, 98, 79, 105, 188, 2, 0.586655
249, 3, bw, filler, NA, 999, 999, 4, 5, 87, 158, 139, 135, 57, 91, 2, 1.03318
249, 3, bw, filler, NA, 999, 999, 4, 5, 87, 158, 139, 135, 57, 91, 3, 0.526817
249, 3, bw, attraction, a-b-db, 2, 1, 4, 6, 59, 134, 60, 135, 135, 60, 3, 1.15921
249, 3, bw, attraction, a-b-db, 2, 1, 4, 6, 59, 134, 60, 135, 135, 60, 1, 4.18358
249, 3, bw, attraction, a-b-db, 2, 3, 4, 7, 120, 195, 195, 120, 119, 193, 1, 2.67684
249, 3, bw, attraction, a-b-db, 2, 3, 4, 7, 120, 195, 195, 120, 119, 193, 2, 0.647897
249, 3, bw, attraction, a-b-da, 2, 1, 4, 8, 134, 59, 135, 60, 60, 135, 3, 8.93973
249, 3, bw, attraction, a-b-da, 2, 1, 4, 8, 134, 59, 135, 60, 60, 135, 1, 0.914143
249, 3, bw, attraction, a-b-db, 14, 1, 4, 9, 135, 60, 56, 125, 60, 135, 3, 4.22715
249, 3, bw, attraction, a-b-db, 14, 1, 4, 9, 135, 60, 56, 125, 60, 135, 1, 1.1437
249, 3, bw, attraction, a-b-da, 14, 3, 4, 10, 181, 111, 195, 120, 120, 195, 3, 3.6635
249, 3, bw, attraction, a-b-da, 14, 3, 4, 10, 181, 111, 195, 120, 120, 195, 1, 0.74687
249, 3, bw, attraction, a-b-da, 5, 3, 4, 11, 195, 120, 120, 195, 190, 117, 2, 1.68277
249, 3, bw, attraction, a-b-da, 5, 3, 4, 11, 195, 120, 120, 195, 190, 117, 3, 0.670101
249, 3, bw, attraction, a-b-db, 9, 3, 4, 12, 195, 120, 114, 186, 120, 195, 3, 7.12925
249, 3, bw, attraction, a-b-db, 9, 3, 4, 12, 195, 120, 114, 186, 120, 195, 1, 0.656975
249, 3, bw, attraction, a-b-db, 5, 2, 4, 13, 88, 161, 90, 165, 165, 90, 2, 2.21194
249, 3, bw, attraction, a-b-db, 5, 2, 4, 13, 88, 161, 90, 165, 165, 90, 3, 1.24194
249, 3, bw, attraction, a-b-da, 14, 1, 4, 14, 125, 56, 60, 135, 135, 60, 2, 5.49354
249, 3, bw, attraction, a-b-da, 14, 1, 4, 14, 125, 56, 60, 135, 135, 60, 1, 0.647006
249, 3, bw, attraction, a-b-da, 9, 1, 4, 15, 60, 135, 129, 57, 135, 60, 1, 5.69081
249, 3, bw, attraction, a-b-da, 9, 1, 4, 15, 60, 135, 129, 57, 135, 60, 2, 0.884264
249, 3, bw, filler, NA, 999, 999, 4, 16, 133, 190, 157, 98, 59, 76, 1, 0.702585
249, 3, bw, filler, NA, 999, 999, 4, 16, 133, 190, 157, 98, 59, 76, 3, 0.761731
249, 3, bw, attraction, a-b-da, 9, 3, 4, 17, 195, 120, 120, 195, 186, 114, 2, 1.21674
249, 3, bw, attraction, a-b-da, 9, 3, 4, 17, 195, 120, 120, 195, 186, 114, 3, 0.447056
249, 3, bw, attraction, a-b-db, 2, 2, 4, 18, 165, 90, 90, 165, 89, 163, 2, 3.97878
249, 3, bw, attraction, a-b-db, 2, 2, 4, 18, 165, 90, 90, 165, 89, 163, 1, 3.83365
249, 3, bw, filler, NA, 999, 999, 4, 19, 131, 171, 134, 63, 190, 108, 1, 1.66916
249, 3, bw, filler, NA, 999, 999, 4, 19, 131, 171, 134, 63, 190, 108, 2, 0.569072
249, 3, bw, attraction, a-b-db, 9, 1, 4, 20, 60, 135, 57, 129, 135, 60, 1, 18.5441
249, 3, bw, attraction, a-b-db, 9, 1, 4, 20, 60, 135, 57, 129, 135, 60, 2, 0.515815
249, 3, bw, filler, NA, 999, 999, 4, 21, 82, 181, 164, 154, 168, 101, 2, 1.36482
249, 3, bw, filler, NA, 999, 999, 4, 21, 82, 181, 164, 154, 168, 101, 1, 0.525035
249, 3, bw, attraction, a-b-da, 5, 2, 4, 22, 165, 90, 161, 88, 90, 165, 3, 2.24553
249, 3, bw, attraction, a-b-da, 5, 2, 4, 22, 165, 90, 161, 88, 90, 165, 2, 2.4341
249, 3, bw, attraction, a-b-db, 5, 1, 4, 23, 60, 135, 58, 132, 135, 60, 2, 2.45381
249, 3, bw, attraction, a-b-db, 5, 1, 4, 23, 60, 135, 58, 132, 135, 60, 3, 0.394512
249, 3, bw, catch, NA, 999, 999, 4, 24, 107, 88, 156, 99, 137, 178, 3, 0.896262
249, 3, bw, catch, NA, 999, 999, 4, 24, 107, 88, 156, 99, 137, 178, 1, 0.779428
249, 3, bw, attraction, a-b-da, 5, 1, 4, 25, 135, 60, 60, 135, 132, 58, 2, 1.60165
249, 3, bw, attraction, a-b-da, 5, 1, 4, 25, 135, 60, 60, 135, 132, 58, 3, 0.536499
249, 3, bw, catch, NA, 999, 999, 4, 26, 153, 102, 192, 123, 116, 79, 2, 0.608912
249, 3, bw, catch, NA, 999, 999, 4, 26, 153, 102, 192, 123, 116, 79, 3, 0.839316
249, 3, bw, attraction, a-b-db, 14, 3, 4, 27, 120, 195, 111, 181, 195, 120, 1, 2.80372
249, 3, bw, attraction, a-b-db, 14, 3, 4, 27, 120, 195, 111, 181, 195, 120, 3, 0.642251
249, 3, bw, catch, NA, 999, 999, 4, 28, 75, 120, 143, 112, 152, 163, 3, 0.909955
249, 3, bw, catch, NA, 999, 999, 4, 28, 75, 120, 143, 112, 152, 163, 1, 0.432293
249, 3, bw, filler, NA, 999, 999, 4, 29, 141, 71, 95, 175, 107, 144, 2, 3.45271
249, 3, bw, filler, NA, 999, 999, 4, 29, 141, 71, 95, 175, 107, 144, 1, 0.593072
249, 3, bw, attraction, a-b-da, 2, 2, 4, 30, 165, 90, 163, 89, 90, 165, 3, 2.59071
249, 3, bw, attraction, a-b-da, 2, 2, 4, 30, 165, 90, 163, 89, 90, 165, 2, 0.925197
249, 3, bw, attraction, a-b-db, 9, 2, 4, 31, 165, 90, 86, 157, 90, 165, 2, 1.06152
249, 3, bw, attraction, a-b-db, 9, 2, 4, 31, 165, 90, 86, 157, 90, 165, 1, 1.48183
249, 3, bw, attraction, a-b-db, 14, 2, 4, 32, 165, 90, 90, 165, 83, 153, 2, 0.499961
249, 3, bw, attraction, a-b-db, 14, 2, 4, 32, 165, 90, 90, 165, 83, 153, 1, 1.85523
249, 3, bw, filler, NA, 999, 999, 4, 33, 144, 137, 67, 155, 58, 145, 1, 0.746402
249, 3, bw, filler, NA, 999, 999, 4, 33, 144, 137, 67, 155, 58, 145, 3, 0.707506
249, 3, bw, filler, NA, 999, 999, 4, 34, 141, 144, 93, 115, 136, 71, 1, 0.932659
249, 3, bw, filler, NA, 999, 999, 4, 34, 141, 144, 93, 115, 136, 71, 3, 1.87829
249, 3, bw, attraction, a-b-da, 2, 3, 4, 35, 120, 195, 195, 120, 193, 119, 1, 2.36829
249, 3, bw, attraction, a-b-da, 2, 3, 4, 35, 120, 195, 195, 120, 193, 119, 3, 1.06429
249, 3, bw, attraction, a-b-da, 9, 2, 4, 36, 90, 165, 165, 90, 157, 86, 1, 1.98704
249, 3, bw, attraction, a-b-da, 9, 2, 4, 36, 90, 165, 165, 90, 157, 86, 3, 1.19466
249, 3, bw, attraction, a-b-da, 14, 2, 4, 37, 153, 83, 165, 90, 90, 165, 2, 0.848058
249, 3, bw, attraction, a-b-da, 14, 2, 4, 37, 153, 83, 165, 90, 90, 165, 1, 1.99707
249, 3, bw, attraction, a-b-db, 2, 1, 5, 1, 59, 134, 60, 135, 135, 60, 2, 5.15312
249, 3, bw, attraction, a-b-db, 2, 1, 5, 1, 59, 134, 60, 135, 135, 60, 3, 0.6328
249, 3, bw, filler, NA, 999, 999, 5, 2, 74, 92, 193, 91, 129, 184, 3, 1.10113
249, 3, bw, filler, NA, 999, 999, 5, 2, 74, 92, 193, 91, 129, 184, 1, 0.512044
249, 3, bw, attraction, a-b-da, 14, 3, 5, 3, 181, 111, 195, 120, 120, 195, 3, 3.69719
249, 3, bw, attraction, a-b-da, 14, 3, 5, 3, 181, 111, 195, 120, 120, 195, 1, 0.555403
249, 3, bw, attraction, a-b-db, 9, 3, 5, 4, 120, 195, 195, 120, 114, 186, 1, 2.73913
249, 3, bw, attraction, a-b-db, 9, 3, 5, 4, 120, 195, 195, 120, 114, 186, 2, 0.555602
249, 3, bw, attraction, a-b-da, 9, 2, 5, 5, 165, 90, 157, 86, 90, 165, 3, 2.06751
249, 3, bw, attraction, a-b-da, 9, 2, 5, 5, 165, 90, 157, 86, 90, 165, 2, 0.423371
249, 3, bw, attraction, a-b-da, 5, 1, 5, 6, 135, 60, 60, 135, 132, 58, 2, 1.49179
249, 3, bw, attraction, a-b-da, 5, 1, 5, 6, 135, 60, 60, 135, 132, 58, 3, 0.502698
249, 3, bw, attraction, a-b-db, 5, 1, 5, 7, 135, 60, 58, 132, 60, 135, 3, 8.42459
249, 3, bw, attraction, a-b-db, 5, 1, 5, 7, 135, 60, 58, 132, 60, 135, 1, 0.85974
249, 3, bw, attraction, a-b-da, 14, 2, 5, 8, 90, 165, 165, 90, 153, 83, 1, 2.17479
249, 3, bw, attraction, a-b-da, 14, 2, 5, 8, 90, 165, 165, 90, 153, 83, 3, 0.782225
249, 3, bw, catch, NA, 999, 999, 5, 9, 178, 137, 102, 93, 114, 141, 1, 1.09244
249, 3, bw, catch, NA, 999, 999, 5, 9, 178, 137, 102, 93, 114, 141, 2, 0.943433
249, 3, bw, filler, NA, 999, 999, 5, 10, 161, 115, 58, 178, 151, 90, 1, 0.935045
249, 3, bw, filler, NA, 999, 999, 5, 10, 161, 115, 58, 178, 151, 90, 2, 0.94482
249, 3, bw, attraction, a-b-da, 9, 3, 5, 11, 186, 114, 120, 195, 195, 120, 2, 2.46485
249, 3, bw, attraction, a-b-da, 9, 3, 5, 11, 186, 114, 120, 195, 195, 120, 1, 0.604198
249, 3, bw, catch, NA, 999, 999, 5, 12, 65, 130, 154, 161, 116, 139, 2, 0.977934
249, 3, bw, catch, NA, 999, 999, 5, 12, 65, 130, 154, 161, 116, 139, 1, 1.82571
249, 3, bw, attraction, a-b-db, 9, 2, 5, 13, 90, 165, 165, 90, 86, 157, 1, 1.71775
249, 3, bw, attraction, a-b-db, 9, 2, 5, 13, 90, 165, 165, 90, 86, 157, 2, 0.543769
249, 3, bw, filler, NA, 999, 999, 5, 14, 89, 149, 179, 175, 92, 172, 2, 0.98359
249, 3, bw, filler, NA, 999, 999, 5, 14, 89, 149, 179, 175, 92, 172, 1, 0.591228
249, 3, bw, filler, NA, 999, 999, 5, 15, 74, 66, 162, 77, 124, 93, 3, 0.901034
249, 3, bw, filler, NA, 999, 999, 5, 15, 74, 66, 162, 77, 124, 93, 1, 0.544015
249, 3, bw, attraction, a-b-db, 5, 3, 5, 16, 195, 120, 120, 195, 117, 190, 2, 0.879939
249, 3, bw, attraction, a-b-db, 5, 3, 5, 16, 195, 120, 120, 195, 117, 190, 3, 2.78754
249, 3, bw, attraction, a-b-da, 9, 1, 5, 17, 135, 60, 129, 57, 60, 135, 1, 3.06524
249, 3, bw, attraction, a-b-da, 9, 1, 5, 17, 135, 60, 129, 57, 60, 135, 2, 0.541014
249, 3, bw, attraction, a-b-da, 2, 2, 5, 18, 163, 89, 90, 165, 165, 90, 2, 1.98078
249, 3, bw, attraction, a-b-da, 2, 2, 5, 18, 163, 89, 90, 165, 165, 90, 1, 0.756238
249, 3, bw, filler, NA, 999, 999, 5, 19, 162, 118, 99, 134, 183, 147, 3, 1.81974
249, 3, bw, filler, NA, 999, 999, 5, 19, 162, 118, 99, 134, 183, 147, 2, 0.801819
249, 3, bw, attraction, a-b-da, 2, 3, 5, 20, 195, 120, 120, 195, 193, 119, 2, 0.951576
249, 3, bw, attraction, a-b-da, 2, 3, 5, 20, 195, 120, 120, 195, 193, 119, 3, 2.8806
249, 3, bw, attraction, a-b-db, 5, 2, 5, 21, 90, 165, 165, 90, 88, 161, 1, 2.6904
249, 3, bw, attraction, a-b-db, 5, 2, 5, 21, 90, 165, 165, 90, 88, 161, 2, 0.516668
249, 3, bw, attraction, a-b-db, 2, 2, 5, 22, 89, 163, 90, 165, 165, 90, 2, 1.30973
249, 3, bw, attraction, a-b-db, 2, 2, 5, 22, 89, 163, 90, 165, 165, 90, 3, 0.37598
249, 3, bw, filler, NA, 999, 999, 5, 23, 90, 156, 75, 140, 122, 99, 1, 4.62261
249, 3, bw, filler, NA, 999, 999, 5, 23, 90, 156, 75, 140, 122, 99, 3, 11.5392
249, 3, bw, attraction, a-b-da, 5, 3, 5, 24, 190, 117, 195, 120, 120, 195, 2, 1.36011
249, 3, bw, attraction, a-b-da, 5, 3, 5, 24, 190, 117, 195, 120, 120, 195, 1, 0.480221
249, 3, bw, attraction, a-b-db, 14, 2, 5, 25, 83, 153, 165, 90, 90, 165, 3, 2.47472
249, 3, bw, attraction, a-b-db, 14, 2, 5, 25, 83, 153, 165, 90, 90, 165, 1, 14.83
249, 3, bw, attraction, a-b-db, 14, 1, 5, 26, 60, 135, 135, 60, 56, 125, 1, 2.08613
249, 3, bw, attraction, a-b-db, 14, 1, 5, 26, 60, 135, 135, 60, 56, 125, 2, 0.377255
249, 3, bw, filler, NA, 999, 999, 5, 27, 96, 150, 175, 105, 149, 104, 2, 2.99972
249, 3, bw, filler, NA, 999, 999, 5, 27, 96, 150, 175, 105, 149, 104, 1, 0.55007
249, 3, bw, filler, NA, 999, 999, 5, 28, 188, 175, 175, 160, 134, 92, 1, 1.40592
249, 3, bw, filler, NA, 999, 999, 5, 28, 188, 175, 175, 160, 134, 92, 3, 0.524214
249, 3, bw, attraction, a-b-db, 9, 1, 5, 29, 57, 129, 135, 60, 60, 135, 3, 2.54849
249, 3, bw, attraction, a-b-db, 9, 1, 5, 29, 57, 129, 135, 60, 60, 135, 1, 0.461021
249, 3, bw, catch, NA, 999, 999, 5, 30, 146, 169, 127, 68, 157, 98, 1, 0.83227
249, 3, bw, catch, NA, 999, 999, 5, 30, 146, 169, 127, 68, 157, 98, 2, 0.40598
249, 3, bw, filler, NA, 999, 999, 5, 31, 107, 69, 192, 166, 183, 115, 2, 0.923737
249, 3, bw, filler, NA, 999, 999, 5, 31, 107, 69, 192, 166, 183, 115, 1, 0.413392
249, 3, bw, attraction, a-b-da, 5, 2, 5, 32, 165, 90, 90, 165, 161, 88, 2, 1.17848
249, 3, bw, attraction, a-b-da, 5, 2, 5, 32, 165, 90, 90, 165, 161, 88, 3, 0.802218
249, 3, bw, filler, NA, 999, 999, 5, 33, 69, 148, 173, 79, 100, 89, 2, 3.216
249, 3, bw, filler, NA, 999, 999, 5, 33, 69, 148, 173, 79, 100, 89, 3, 0.541487
249, 3, bw, attraction, a-b-db, 14, 3, 5, 34, 195, 120, 111, 181, 120, 195, 2, 1.54938
249, 3, bw, attraction, a-b-db, 14, 3, 5, 34, 195, 120, 111, 181, 120, 195, 1, 2.55031
249, 3, bw, attraction, a-b-db, 2, 3, 5, 35, 195, 120, 120, 195, 119, 193, 2, 17.2052
249, 3, bw, attraction, a-b-db, 2, 3, 5, 35, 195, 120, 120, 195, 119, 193, 1, 0.391148
249, 3, bw, attraction, a-b-da, 14, 1, 5, 36, 135, 60, 60, 135, 125, 56, 2, 2.30099
249, 3, bw, attraction, a-b-da, 14, 1, 5, 36, 135, 60, 60, 135, 125, 56, 3, 0.559718
249, 3, bw, attraction, a-b-da, 2, 1, 5, 37, 60, 135, 135, 60, 134, 59, 3, 1.91868
249, 3, bw, attraction, a-b-da, 2, 1, 5, 37, 60, 135, 135, 60, 134, 59, 1, 5.29669
249, 3, bw, attraction, a-b-db, 2, 1, 6, 1, 60, 135, 135, 60, 59, 134, 3, 21.961
249, 3, bw, attraction, a-b-db, 2, 1, 6, 1, 60, 135, 135, 60, 59, 134, 2, 0.610672
249, 3, bw, attraction, a-b-da, 2, 3, 6, 2, 195, 120, 120, 195, 193, 119, 2, 2.04785
249, 3, bw, attraction, a-b-da, 2, 3, 6, 2, 195, 120, 120, 195, 193, 119, 3, 6.54058
249, 3, bw, attraction, a-b-db, 14, 3, 6, 3, 120, 195, 111, 181, 195, 120, 1, 3.50701
249, 3, bw, attraction, a-b-db, 14, 3, 6, 3, 120, 195, 111, 181, 195, 120, 2, 1.54862
249, 3, bw, filler, NA, 999, 999, 6, 4, 117, 165, 114, 166, 190, 104, 2, 1.2361
249, 3, bw, filler, NA, 999, 999, 6, 4, 117, 165, 114, 166, 190, 104, 3, 0.745814
249, 3, bw, catch, NA, 999, 999, 6, 5, 185, 130, 132, 63, 90, 165, 1, 0.985405
249, 3, bw, catch, NA, 999, 999, 6, 5, 185, 130, 132, 63, 90, 165, 2, 0.697148
249, 3, bw, catch, NA, 999, 999, 6, 6, 117, 138, 195, 120, 82, 113, 2, 1.01873
249, 3, bw, catch, NA, 999, 999, 6, 6, 117, 138, 195, 120, 82, 113, 3, 0.433157
249, 3, bw, filler, NA, 999, 999, 6, 7, 111, 128, 88, 91, 89, 120, 1, 1.4055
249, 3, bw, filler, NA, 999, 999, 6, 7, 111, 128, 88, 91, 89, 120, 2, 0.747833
249, 3, bw, attraction, a-b-da, 14, 3, 6, 8, 120, 195, 195, 120, 181, 111, 1, 3.05953
249, 3, bw, attraction, a-b-da, 14, 3, 6, 8, 120, 195, 195, 120, 181, 111, 3, 0.359317
249, 3, bw, filler, NA, 999, 999, 6, 9, 144, 132, 154, 113, 164, 169, 3, 0.894342
249, 3, bw, filler, NA, 999, 999, 6, 9, 144, 132, 154, 113, 164, 169, 2, 7.35339
249, 3, bw, attraction, a-b-db, 9, 3, 6, 10, 195, 120, 120, 195, 114, 186, 2, 2.82346
249, 3, bw, attraction, a-b-db, 9, 3, 6, 10, 195, 120, 120, 195, 114, 186, 3, 1.38
249, 3, bw, attraction, a-b-db, 2, 3, 6, 11, 120, 195, 195, 120, 119, 193, 3, 2.05834
249, 3, bw, attraction, a-b-db, 2, 3, 6, 11, 120, 195, 195, 120, 119, 193, 2, 0.926294
249, 3, bw, attraction, a-b-da, 14, 2, 6, 12, 90, 165, 153, 83, 165, 90, 1, 1.59072
249, 3, bw, attraction, a-b-da, 14, 2, 6, 12, 90, 165, 153, 83, 165, 90, 2, 0.453317
249, 3, bw, attraction, a-b-da, 2, 1, 6, 13, 135, 60, 134, 59, 60, 135, 2, 1.3532
249, 3, bw, attraction, a-b-da, 2, 1, 6, 13, 135, 60, 134, 59, 60, 135, 3, 0.426059
249, 3, bw, filler, NA, 999, 999, 6, 14, 171, 189, 71, 115, 187, 113, 1, 0.862601
249, 3, bw, filler, NA, 999, 999, 6, 14, 171, 189, 71, 115, 187, 113, 2, 0.418941
249, 3, bw, filler, NA, 999, 999, 6, 15, 119, 108, 177, 109, 116, 87, 2, 0.8961
249, 3, bw, filler, NA, 999, 999, 6, 15, 119, 108, 177, 109, 116, 87, 3, 2.83522
249, 3, bw, attraction, a-b-da, 9, 1, 6, 16, 129, 57, 135, 60, 60, 135, 3, 4.19887
249, 3, bw, attraction, a-b-da, 9, 1, 6, 16, 129, 57, 135, 60, 60, 135, 1, 1.59673
249, 3, bw, attraction, a-b-da, 5, 3, 6, 17, 120, 195, 195, 120, 190, 117, 1, 1.53829
249, 3, bw, attraction, a-b-da, 5, 3, 6, 17, 120, 195, 195, 120, 190, 117, 2, 0.491
249, 3, bw, attraction, a-b-db, 5, 1, 6, 18, 135, 60, 60, 135, 58, 132, 2, 1.54088
249, 3, bw, attraction, a-b-db, 5, 1, 6, 18, 135, 60, 60, 135, 58, 132, 3, 0.549625
249, 3, bw, attraction, a-b-da, 9, 3, 6, 19, 186, 114, 120, 195, 195, 120, 2, 1.34144
249, 3, bw, attraction, a-b-da, 9, 3, 6, 19, 186, 114, 120, 195, 195, 120, 1, 0.678291
249, 3, bw, filler, NA, 999, 999, 6, 20, 68, 167, 73, 118, 160, 107, 3, 1.63273
249, 3, bw, filler, NA, 999, 999, 6, 20, 68, 167, 73, 118, 160, 107, 2, 0.582095
249, 3, bw, attraction, a-b-db, 14, 2, 6, 21, 90, 165, 83, 153, 165, 90, 1, 1.81269
249, 3, bw, attraction, a-b-db, 14, 2, 6, 21, 90, 165, 83, 153, 165, 90, 2, 0.538719
249, 3, bw, attraction, a-b-db, 5, 2, 6, 22, 88, 161, 165, 90, 90, 165, 1, 1.64315
249, 3, bw, attraction, a-b-db, 5, 2, 6, 22, 88, 161, 165, 90, 90, 165, 2, 2.82402
249, 3, bw, attraction, a-b-da, 14, 1, 6, 23, 60, 135, 125, 56, 135, 60, 1, 1.65233
249, 3, bw, attraction, a-b-da, 14, 1, 6, 23, 60, 135, 125, 56, 135, 60, 3, 2.05718
249, 3, bw, attraction, a-b-db, 9, 2, 6, 24, 90, 165, 165, 90, 86, 157, 1, 2.93184
249, 3, bw, attraction, a-b-db, 9, 2, 6, 24, 90, 165, 165, 90, 86, 157, 2, 0.540729
249, 3, bw, attraction, a-b-da, 2, 2, 6, 25, 163, 89, 90, 165, 165, 90, 2, 4.08465
249, 3, bw, attraction, a-b-da, 2, 2, 6, 25, 163, 89, 90, 165, 165, 90, 1, 0.447275
249, 3, bw, attraction, a-b-db, 2, 2, 6, 26, 89, 163, 90, 165, 165, 90, 2, 3.83503
249, 3, bw, attraction, a-b-db, 2, 2, 6, 26, 89, 163, 90, 165, 165, 90, 3, 1.79178
249, 3, bw, filler, NA, 999, 999, 6, 27, 103, 146, 58, 59, 190, 125, 3, 1.19719
249, 3, bw, filler, NA, 999, 999, 6, 27, 103, 146, 58, 59, 190, 125, 2, 0.77206
249, 3, bw, attraction, a-b-db, 9, 1, 6, 28, 57, 129, 135, 60, 60, 135, 3, 4.37917
249, 3, bw, attraction, a-b-db, 9, 1, 6, 28, 57, 129, 135, 60, 60, 135, 2, 1.64184
249, 3, bw, filler, NA, 999, 999, 6, 29, 77, 57, 104, 76, 133, 129, 3, 0.949257
249, 3, bw, filler, NA, 999, 999, 6, 29, 77, 57, 104, 76, 133, 129, 1, 0.798157
249, 3, bw, filler, NA, 999, 999, 6, 30, 76, 103, 126, 104, 167, 149, 3, 0.899835
249, 3, bw, filler, NA, 999, 999, 6, 30, 76, 103, 126, 104, 167, 149, 1, 0.687026
249, 3, bw, attraction, a-b-db, 5, 3, 6, 31, 117, 190, 120, 195, 195, 120, 2, 3.3134
249, 3, bw, attraction, a-b-db, 5, 3, 6, 31, 117, 190, 120, 195, 195, 120, 3, 1.66692
249, 3, bw, filler, NA, 999, 999, 6, 32, 123, 170, 105, 153, 158, 183, 3, 1.06166
249, 3, bw, filler, NA, 999, 999, 6, 32, 123, 170, 105, 153, 158, 183, 2, 0.857989
249, 3, bw, catch, NA, 999, 999, 6, 33, 146, 109, 191, 124, 109, 86, 2, 1.22097
249, 3, bw, catch, NA, 999, 999, 6, 33, 146, 109, 191, 124, 109, 86, 3, 0.571189
249, 3, bw, attraction, a-b-da, 9, 2, 6, 34, 165, 90, 90, 165, 157, 86, 2, 2.45842
249, 3, bw, attraction, a-b-da, 9, 2, 6, 34, 165, 90, 90, 165, 157, 86, 3, 0.374239
249, 3, bw, attraction, a-b-da, 5, 1, 6, 35, 132, 58, 60, 135, 135, 60, 2, 1.83672
249, 3, bw, attraction, a-b-da, 5, 1, 6, 35, 132, 58, 60, 135, 135, 60, 1, 0.530105
249, 3, bw, attraction, a-b-db, 14, 1, 6, 36, 135, 60, 56, 125, 60, 135, 3, 4.3546
249, 3, bw, attraction, a-b-db, 14, 1, 6, 36, 135, 60, 56, 125, 60, 135, 2, 2.05853
249, 3, bw, attraction, a-b-da, 5, 2, 6, 37, 90, 165, 165, 90, 161, 88, 2, 1.10915
249, 3, bw, attraction, a-b-da, 5, 2, 6, 37, 90, 165, 165, 90, 161, 88, 3, 1.48763
249, 3, bw, filler, NA, 999, 999, 7, 1, 193, 74, 83, 101, 189, 86, 2, 0.76955
249, 3, bw, filler, NA, 999, 999, 7, 1, 193, 74, 83, 101, 189, 86, 3, 3.67401
249, 3, bw, filler, NA, 999, 999, 7, 2, 159, 95, 115, 149, 135, 185, 3, 1.11615
249, 3, bw, filler, NA, 999, 999, 7, 2, 159, 95, 115, 149, 135, 185, 1, 0.862525
249, 3, bw, attraction, a-b-da, 14, 2, 7, 3, 153, 83, 90, 165, 165, 90, 2, 0.945481
249, 3, bw, attraction, a-b-da, 14, 2, 7, 3, 153, 83, 90, 165, 165, 90, 1, 0.538563
249, 3, bw, catch, NA, 999, 999, 7, 4, 115, 140, 104, 91, 149, 166, 3, 0.770887
249, 3, bw, catch, NA, 999, 999, 7, 4, 115, 140, 104, 91, 149, 166, 2, 0.571237
249, 3, bw, attraction, a-b-da, 14, 1, 7, 5, 60, 135, 135, 60, 125, 56, 1, 2.00249
249, 3, bw, attraction, a-b-da, 14, 1, 7, 5, 60, 135, 135, 60, 125, 56, 3, 0.873029
249, 3, bw, catch, NA, 999, 999, 7, 6, 86, 109, 157, 98, 126, 189, 3, 1.09214
249, 3, bw, catch, NA, 999, 999, 7, 6, 86, 109, 157, 98, 126, 189, 1, 0.582965
249, 3, bw, attraction, a-b-da, 9, 1, 7, 7, 129, 57, 135, 60, 60, 135, 2, 2.13342
249, 3, bw, attraction, a-b-da, 9, 1, 7, 7, 129, 57, 135, 60, 60, 135, 1, 0.550775
249, 3, bw, filler, NA, 999, 999, 7, 8, 142, 168, 91, 113, 162, 112, 1, 1.73467
249, 3, bw, filler, NA, 999, 999, 7, 8, 142, 168, 91, 113, 162, 112, 2, 0.431958
249, 3, bw, attraction, a-b-db, 14, 3, 7, 9, 195, 120, 120, 195, 111, 181, 2, 3.31638
249, 3, bw, attraction, a-b-db, 14, 3, 7, 9, 195, 120, 120, 195, 111, 181, 3, 0.598253
249, 3, bw, attraction, a-b-db, 2, 1, 7, 10, 59, 134, 60, 135, 135, 60, 3, 16.9478
249, 3, bw, attraction, a-b-db, 2, 1, 7, 10, 59, 134, 60, 135, 135, 60, 2, 8.43981
249, 3, bw, attraction, a-b-db, 9, 3, 7, 11, 120, 195, 114, 186, 195, 120, 1, 15.0498
249, 3, bw, attraction, a-b-db, 9, 3, 7, 11, 120, 195, 114, 186, 195, 120, 2, 0.762308
249, 3, bw, attraction, a-b-da, 2, 3, 7, 12, 193, 119, 120, 195, 195, 120, 2, 2.16943
249, 3, bw, attraction, a-b-da, 2, 3, 7, 12, 193, 119, 120, 195, 195, 120, 1, 1.80146
249, 3, bw, attraction, a-b-db, 5, 1, 7, 13, 135, 60, 60, 135, 58, 132, 2, 1.63071
249, 3, bw, attraction, a-b-db, 5, 1, 7, 13, 135, 60, 60, 135, 58, 132, 1, 1.20417
249, 3, bw, attraction, a-b-da, 5, 2, 7, 14, 165, 90, 161, 88, 90, 165, 3, 6.32192
249, 3, bw, attraction, a-b-da, 5, 2, 7, 14, 165, 90, 161, 88, 90, 165, 2, 0.922532
249, 3, bw, filler, NA, 999, 999, 7, 15, 112, 167, 148, 57, 114, 155, 1, 0.827507
249, 3, bw, filler, NA, 999, 999, 7, 15, 112, 167, 148, 57, 114, 155, 2, 1.61711
249, 3, bw, filler, NA, 999, 999, 7, 16, 159, 81, 92, 172, 83, 146, 2, 1.83005
249, 3, bw, filler, NA, 999, 999, 7, 16, 159, 81, 92, 172, 83, 146, 1, 0.667425
249, 3, bw, attraction, a-b-da, 2, 1, 7, 17, 60, 135, 134, 59, 135, 60, 1, 11.8543
249, 3, bw, attraction, a-b-da, 2, 1, 7, 17, 60, 135, 134, 59, 135, 60, 2, 0.647936
249, 3, bw, attraction, a-b-da, 5, 1, 7, 18, 135, 60, 132, 58, 60, 135, 3, 2.91574
249, 3, bw, attraction, a-b-da, 5, 1, 7, 18, 135, 60, 132, 58, 60, 135, 2, 0.965553
249, 3, bw, filler, NA, 999, 999, 7, 19, 126, 137, 79, 102, 153, 83, 1, 0.87656
249, 3, bw, filler, NA, 999, 999, 7, 19, 126, 137, 79, 102, 153, 83, 2, 0.61614
249, 3, bw, filler, NA, 999, 999, 7, 20, 107, 141, 57, 121, 185, 109, 3, 1.22129
249, 3, bw, filler, NA, 999, 999, 7, 20, 107, 141, 57, 121, 185, 109, 2, 0.955484
249, 3, bw, attraction, a-b-db, 9, 2, 7, 21, 86, 157, 165, 90, 90, 165, 3, 1.86711
249, 3, bw, attraction, a-b-db, 9, 2, 7, 21, 86, 157, 165, 90, 90, 165, 2, 9.51491
249, 3, bw, attraction, a-b-db, 2, 3, 7, 22, 120, 195, 195, 120, 119, 193, 3, 4.22943
249, 3, bw, attraction, a-b-db, 2, 3, 7, 22, 120, 195, 195, 120, 119, 193, 2, 0.762252
249, 3, bw, attraction, a-b-db, 9, 1, 7, 23, 57, 129, 60, 135, 135, 60, 2, 2.3132
249, 3, bw, attraction, a-b-db, 9, 1, 7, 23, 57, 129, 60, 135, 135, 60, 3, 12.0673
249, 3, bw, filler, NA, 999, 999, 7, 24, 83, 93, 132, 75, 187, 64, 2, 2.37065
249, 3, bw, filler, NA, 999, 999, 7, 24, 83, 93, 132, 75, 187, 64, 1, 0.658455
249, 3, bw, attraction, a-b-db, 14, 2, 7, 25, 165, 90, 83, 153, 90, 165, 3, 4.74966
249, 3, bw, attraction, a-b-db, 14, 2, 7, 25, 165, 90, 83, 153, 90, 165, 2, 1.70148
249, 3, bw, attraction, a-b-db, 5, 2, 7, 26, 90, 165, 88, 161, 165, 90, 3, 15.2389
249, 3, bw, attraction, a-b-db, 5, 2, 7, 26, 90, 165, 88, 161, 165, 90, 2, 1.50413
249, 3, bw, attraction, a-b-db, 14, 1, 7, 27, 60, 135, 56, 125, 135, 60, 2, 3.40964
249, 3, bw, attraction, a-b-db, 14, 1, 7, 27, 60, 135, 56, 125, 135, 60, 3, 0.639097
249, 3, bw, attraction, a-b-da, 5, 3, 7, 28, 195, 120, 120, 195, 190, 117, 2, 1.17143
249, 3, bw, attraction, a-b-da, 5, 3, 7, 28, 195, 120, 120, 195, 190, 117, 3, 0.491014
249, 3, bw, attraction, a-b-da, 14, 3, 7, 29, 120, 195, 181, 111, 195, 120, 1, 1.16474
249, 3, bw, attraction, a-b-da, 14, 3, 7, 29, 120, 195, 181, 111, 195, 120, 2, 0.989058
249, 3, bw, attraction, a-b-da, 9, 3, 7, 30, 186, 114, 195, 120, 120, 195, 2, 1.05953
249, 3, bw, attraction, a-b-da, 9, 3, 7, 30, 186, 114, 195, 120, 120, 195, 1, 1.51982
249, 3, bw, attraction, a-b-db, 2, 2, 7, 31, 89, 163, 90, 165, 165, 90, 2, 12.9765
249, 3, bw, attraction, a-b-db, 2, 2, 7, 31, 89, 163, 90, 165, 165, 90, 1, 0.724551
249, 3, bw, attraction, a-b-da, 9, 2, 7, 32, 165, 90, 90, 165, 157, 86, 2, 1.40493
249, 3, bw, attraction, a-b-da, 9, 2, 7, 32, 165, 90, 90, 165, 157, 86, 3, 0.59503
249, 3, bw, attraction, a-b-da, 2, 2, 7, 33, 163, 89, 165, 90, 90, 165, 3, 2.03287
249, 3, bw, attraction, a-b-da, 2, 2, 7, 33, 163, 89, 165, 90, 90, 165, 1, 0.870105
249, 3, bw, attraction, a-b-db, 5, 3, 7, 34, 195, 120, 117, 190, 120, 195, 3, 16.4092
249, 3, bw, attraction, a-b-db, 5, 3, 7, 34, 195, 120, 117, 190, 120, 195, 1, 7.59462
249, 3, bw, catch, NA, 999, 999, 7, 35, 139, 176, 117, 138, 117, 78, 1, 0.758272
249, 3, bw, catch, NA, 999, 999, 7, 35, 139, 176, 117, 138, 117, 78, 3, 0.526727
249, 3, bw, filler, NA, 999, 999, 7, 36, 75, 192, 130, 111, 132, 112, 2, 1.38304
249, 3, bw, filler, NA, 999, 999, 7, 36, 75, 192, 130, 111, 132, 112, 1, 1.99057
249, 3, bw, filler, NA, 999, 999, 7, 37, 186, 100, 131, 121, 96, 114, 2, 1.36399
249, 3, bw, filler, NA, 999, 999, 7, 37, 186, 100, 131, 121, 96, 114, 3, 0.724258
249, 3, bw, attraction, a-b-da, 5, 2, 8, 1, 90, 165, 165, 90, 161, 88, 1, 2.66856
249, 3, bw, attraction, a-b-da, 5, 2, 8, 1, 90, 165, 165, 90, 161, 88, 3, 3.10441
249, 3, bw, filler, NA, 999, 999, 8, 2, 96, 157, 171, 69, 158, 187, 3, 0.7693
249, 3, bw, filler, NA, 999, 999, 8, 2, 96, 157, 171, 69, 158, 187, 2, 0.545707
249, 3, bw, catch, NA, 999, 999, 8, 3, 141, 114, 134, 61, 186, 129, 3, 2.47375
249, 3, bw, catch, NA, 999, 999, 8, 3, 141, 114, 134, 61, 186, 129, 2, 0.500749
249, 3, bw, catch, NA, 999, 999, 8, 4, 131, 124, 167, 148, 120, 75, 2, 0.830515
249, 3, bw, catch, NA, 999, 999, 8, 4, 131, 124, 167, 148, 120, 75, 3, 0.548233
249, 3, bw, filler, NA, 999, 999, 8, 5, 189, 176, 89, 157, 82, 194, 1, 1.40392
249, 3, bw, filler, NA, 999, 999, 8, 5, 189, 176, 89, 157, 82, 194, 2, 0.570831
249, 3, bw, attraction, a-b-da, 5, 3, 8, 6, 120, 195, 195, 120, 190, 117, 1, 1.64985
249, 3, bw, attraction, a-b-da, 5, 3, 8, 6, 120, 195, 195, 120, 190, 117, 3, 2.67873
249, 3, bw, attraction, a-b-da, 2, 3, 8, 7, 195, 120, 120, 195, 193, 119, 2, 0.704573
249, 3, bw, attraction, a-b-da, 2, 3, 8, 7, 195, 120, 120, 195, 193, 119, 3, 1.33899
249, 3, bw, filler, NA, 999, 999, 8, 8, 169, 100, 189, 152, 89, 116, 2, 0.579045
249, 3, bw, filler, NA, 999, 999, 8, 8, 169, 100, 189, 152, 89, 116, 3, 0.482867
249, 3, bw, filler, NA, 999, 999, 8, 9, 118, 77, 110, 169, 168, 67, 2, 0.733522
249, 3, bw, filler, NA, 999, 999, 8, 9, 118, 77, 110, 169, 168, 67, 1, 0.415071
249, 3, bw, attraction, a-b-da, 9, 2, 8, 10, 157, 86, 90, 165, 165, 90, 2, 1.54822
249, 3, bw, attraction, a-b-da, 9, 2, 8, 10, 157, 86, 90, 165, 165, 90, 1, 0.373135
249, 3, bw, attraction, a-b-db, 5, 1, 8, 11, 58, 132, 60, 135, 135, 60, 2, 2.18824
249, 3, bw, attraction, a-b-db, 5, 1, 8, 11, 58, 132, 60, 135, 135, 60, 1, 1.01952
249, 3, bw, attraction, a-b-db, 2, 3, 8, 12, 119, 193, 120, 195, 195, 120, 2, 15.4164
249, 3, bw, attraction, a-b-db, 2, 3, 8, 12, 119, 193, 120, 195, 195, 120, 1, 0.418434
249, 3, bw, attraction, a-b-da, 14, 1, 8, 13, 60, 135, 125, 56, 135, 60, 1, 3.51945
249, 3, bw, attraction, a-b-da, 14, 1, 8, 13, 60, 135, 125, 56, 135, 60, 2, 0.816955
249, 3, bw, attraction, a-b-da, 2, 1, 8, 14, 134, 59, 60, 135, 135, 60, 2, 6.22996
249, 3, bw, attraction, a-b-da, 2, 1, 8, 14, 134, 59, 60, 135, 135, 60, 1, 1.00208
249, 3, bw, attraction, a-b-db, 2, 1, 8, 15, 60, 135, 59, 134, 135, 60, 2, 2.30362
249, 3, bw, attraction, a-b-db, 2, 1, 8, 15, 60, 135, 59, 134, 135, 60, 1, 0.602279
249, 3, bw, attraction, a-b-da, 2, 2, 8, 16, 163, 89, 90, 165, 165, 90, 2, 17.576
249, 3, bw, attraction, a-b-da, 2, 2, 8, 16, 163, 89, 90, 165, 165, 90, 1, 1.56249
249, 3, bw, attraction, a-b-db, 9, 3, 8, 17, 195, 120, 120, 195, 114, 186, 2, 2.4413
249, 3, bw, attraction, a-b-db, 9, 3, 8, 17, 195, 120, 120, 195, 114, 186, 3, 0.565778
249, 3, bw, attraction, a-b-db, 14, 2, 8, 18, 165, 90, 83, 153, 90, 165, 3, 3.17293
249, 3, bw, attraction, a-b-db, 14, 2, 8, 18, 165, 90, 83, 153, 90, 165, 1, 0.635925
249, 3, bw, attraction, a-b-db, 14, 3, 8, 19, 195, 120, 120, 195, 111, 181, 2, 2.27233
249, 3, bw, attraction, a-b-db, 14, 3, 8, 19, 195, 120, 120, 195, 111, 181, 3, 0.611601
249, 3, bw, attraction, a-b-da, 14, 3, 8, 20, 195, 120, 120, 195, 181, 111, 2, 1.69657
249, 3, bw, attraction, a-b-da, 14, 3, 8, 20, 195, 120, 120, 195, 181, 111, 3, 0.595436
249, 3, bw, attraction, a-b-db, 9, 1, 8, 21, 135, 60, 60, 135, 57, 129, 2, 1.42522
249, 3, bw, attraction, a-b-db, 9, 1, 8, 21, 135, 60, 60, 135, 57, 129, 3, 2.23865
249, 3, bw, attraction, a-b-db, 14, 1, 8, 22, 60, 135, 135, 60, 56, 125, 1, 2.85859
249, 3, bw, attraction, a-b-db, 14, 1, 8, 22, 60, 135, 135, 60, 56, 125, 3, 1.6143
249, 3, bw, filler, NA, 999, 999, 8, 23, 171, 167, 108, 137, 193, 91, 1, 0.8672
249, 3, bw, filler, NA, 999, 999, 8, 23, 171, 167, 108, 137, 193, 91, 2, 1.65558
249, 3, bw, attraction, a-b-db, 2, 2, 8, 24, 90, 165, 165, 90, 89, 163, 1, 2.08297
249, 3, bw, attraction, a-b-db, 2, 2, 8, 24, 90, 165, 165, 90, 89, 163, 3, 10.5583
249, 3, bw, filler, NA, 999, 999, 8, 25, 118, 145, 151, 181, 161, 155, 2, 0.794795
249, 3, bw, filler, NA, 999, 999, 8, 25, 118, 145, 151, 181, 161, 155, 1, 1.10604
249, 3, bw, attraction, a-b-da, 9, 3, 8, 26, 195, 120, 186, 114, 120, 195, 3, 1.58771
249, 3, bw, attraction, a-b-da, 9, 3, 8, 26, 195, 120, 186, 114, 120, 195, 2, 1.49904
249, 3, bw, filler, NA, 999, 999, 8, 27, 67, 85, 87, 149, 181, 76, 2, 0.884472
249, 3, bw, filler, NA, 999, 999, 8, 27, 67, 85, 87, 149, 181, 76, 1, 0.656124
249, 3, bw, attraction, a-b-db, 5, 3, 8, 28, 117, 190, 195, 120, 120, 195, 3, 10.0679
249, 3, bw, attraction, a-b-db, 5, 3, 8, 28, 117, 190, 195, 120, 120, 195, 1, 1.04547
249, 3, bw, catch, NA, 999, 999, 8, 29, 62, 133, 130, 185, 164, 91, 2, 0.777076
249, 3, bw, catch, NA, 999, 999, 8, 29, 62, 133, 130, 185, 164, 91, 1, 0.536783
249, 3, bw, attraction, a-b-da, 14, 2, 8, 30, 153, 83, 90, 165, 165, 90, 2, 1.58518
249, 3, bw, attraction, a-b-da, 14, 2, 8, 30, 153, 83, 90, 165, 165, 90, 1, 0.384646
249, 3, bw, filler, NA, 999, 999, 8, 31, 154, 194, 190, 183, 103, 56, 2, 0.783178
249, 3, bw, filler, NA, 999, 999, 8, 31, 154, 194, 190, 183, 103, 56, 3, 0.478935
249, 3, bw, filler, NA, 999, 999, 8, 32, 182, 129, 177, 159, 151, 105, 2, 1.0334
249, 3, bw, filler, NA, 999, 999, 8, 32, 182, 129, 177, 159, 151, 105, 3, 0.454921
249, 3, bw, filler, NA, 999, 999, 8, 33, 161, 166, 173, 134, 74, 158, 1, 1.02679
249, 3, bw, filler, NA, 999, 999, 8, 33, 161, 166, 173, 134, 74, 158, 3, 0.560527
249, 3, bw, attraction, a-b-db, 5, 2, 8, 34, 90, 165, 165, 90, 88, 161, 1, 2.23955
249, 3, bw, attraction, a-b-db, 5, 2, 8, 34, 90, 165, 165, 90, 88, 161, 2, 8.98014
249, 3, bw, attraction, a-b-da, 5, 1, 8, 35, 132, 58, 135, 60, 60, 135, 3, 3.39189
249, 3, bw, attraction, a-b-da, 5, 1, 8, 35, 132, 58, 135, 60, 60, 135, 1, 0.550177
249, 3, bw, attraction, a-b-db, 9, 2, 8, 36, 86, 157, 165, 90, 90, 165, 3, 3.47
249, 3, bw, attraction, a-b-db, 9, 2, 8, 36, 86, 157, 165, 90, 90, 165, 1, 0.569593
249, 3, bw, attraction, a-b-da, 9, 1, 8, 37, 135, 60, 129, 57, 60, 135, 3, 8.12071
249, 3, bw, attraction, a-b-da, 9, 1, 8, 37, 135, 60, 129, 57, 60, 135, 2, 0.592797
