sub_n, computer_n, bw_cond, effect, set, distance, diag, block_n, trial_n, h1, w1, h2, w2, h3, w3, choice, rt 
255, 3, bw, practice, NA, 999, 999, 0, 1, 174, 75, 66, 88, 79, 191, 3, 4.55866
255, 3, bw, practice, NA, 999, 999, 0, 1, 174, 75, 66, 88, 79, 191, 2, 2.6061
255, 3, bw, practice, NA, 999, 999, 0, 2, 119, 152, 66, 155, 137, 180, 3, 2.59788
255, 3, bw, practice, NA, 999, 999, 0, 2, 119, 152, 66, 155, 137, 180, 2, 1.38172
255, 3, bw, practice, NA, 999, 999, 0, 3, 58, 178, 123, 94, 81, 94, 2, 2.95048
255, 3, bw, practice, NA, 999, 999, 0, 3, 58, 178, 123, 94, 81, 94, 1, 2.83226
255, 3, bw, attraction, a-b-da, 2, 3, 1, 1, 193, 119, 120, 195, 195, 120, 2, 3.03317
255, 3, bw, attraction, a-b-da, 2, 3, 1, 1, 193, 119, 120, 195, 195, 120, 1, 1.87007
255, 3, bw, attraction, a-b-db, 2, 1, 1, 2, 59, 134, 135, 60, 60, 135, 3, 3.56872
255, 3, bw, attraction, a-b-db, 2, 1, 1, 2, 59, 134, 135, 60, 60, 135, 2, 0.856256
255, 3, bw, attraction, a-b-db, 2, 3, 1, 3, 120, 195, 195, 120, 119, 193, 1, 3.37204
255, 3, bw, attraction, a-b-db, 2, 3, 1, 3, 120, 195, 195, 120, 119, 193, 2, 0.826878
255, 3, bw, attraction, a-b-da, 2, 1, 1, 4, 60, 135, 135, 60, 134, 59, 1, 5.31921
255, 3, bw, attraction, a-b-da, 2, 1, 1, 4, 60, 135, 135, 60, 134, 59, 3, 2.06413
255, 3, bw, attraction, a-b-db, 5, 2, 1, 5, 90, 165, 88, 161, 165, 90, 1, 2.46682
255, 3, bw, attraction, a-b-db, 5, 2, 1, 5, 90, 165, 88, 161, 165, 90, 2, 0.814783
255, 3, bw, filler, NA, 999, 999, 1, 6, 131, 65, 77, 137, 84, 191, 3, 1.07575
255, 3, bw, filler, NA, 999, 999, 1, 6, 131, 65, 77, 137, 84, 191, 1, 1.03131
255, 3, bw, filler, NA, 999, 999, 1, 7, 86, 194, 161, 166, 120, 120, 2, 1.23564
255, 3, bw, filler, NA, 999, 999, 1, 7, 86, 194, 161, 166, 120, 120, 1, 1.47329
255, 3, bw, filler, NA, 999, 999, 1, 8, 104, 97, 81, 104, 142, 62, 1, 4.08406
255, 3, bw, filler, NA, 999, 999, 1, 8, 104, 97, 81, 104, 142, 62, 2, 2.43076
255, 3, bw, attraction, a-b-db, 5, 3, 1, 9, 195, 120, 120, 195, 117, 190, 2, 2.34657
255, 3, bw, attraction, a-b-db, 5, 3, 1, 9, 195, 120, 120, 195, 117, 190, 1, 1.48322
255, 3, bw, attraction, a-b-db, 9, 2, 1, 10, 165, 90, 86, 157, 90, 165, 1, 4.06927
255, 3, bw, attraction, a-b-db, 9, 2, 1, 10, 165, 90, 86, 157, 90, 165, 2, 0.61662
255, 3, bw, catch, NA, 999, 999, 1, 11, 106, 89, 143, 172, 100, 155, 2, 0.941721
255, 3, bw, catch, NA, 999, 999, 1, 11, 106, 89, 143, 172, 100, 155, 1, 1.32673
255, 3, bw, filler, NA, 999, 999, 1, 12, 60, 153, 186, 91, 117, 82, 2, 3.60688
255, 3, bw, filler, NA, 999, 999, 1, 12, 60, 153, 186, 91, 117, 82, 1, 1.2205
255, 3, bw, attraction, a-b-da, 9, 2, 1, 13, 165, 90, 157, 86, 90, 165, 3, 3.00938
255, 3, bw, attraction, a-b-da, 9, 2, 1, 13, 165, 90, 157, 86, 90, 165, 2, 0.69504
255, 3, bw, attraction, a-b-da, 9, 3, 1, 14, 120, 195, 195, 120, 186, 114, 1, 2.74474
255, 3, bw, attraction, a-b-da, 9, 3, 1, 14, 120, 195, 195, 120, 186, 114, 2, 1.86531
255, 3, bw, filler, NA, 999, 999, 1, 15, 70, 185, 104, 128, 105, 80, 2, 2.03585
255, 3, bw, filler, NA, 999, 999, 1, 15, 70, 185, 104, 128, 105, 80, 3, 0.825219
255, 3, bw, attraction, a-b-da, 5, 2, 1, 16, 165, 90, 90, 165, 161, 88, 2, 2.03772
255, 3, bw, attraction, a-b-da, 5, 2, 1, 16, 165, 90, 90, 165, 161, 88, 3, 0.69897
255, 3, bw, attraction, a-b-db, 14, 1, 1, 17, 56, 125, 135, 60, 60, 135, 3, 9.07678
255, 3, bw, attraction, a-b-db, 14, 1, 1, 17, 56, 125, 135, 60, 60, 135, 2, 0.34985
255, 3, bw, attraction, a-b-db, 9, 3, 1, 18, 114, 186, 195, 120, 120, 195, 2, 1.49367
255, 3, bw, attraction, a-b-db, 9, 3, 1, 18, 114, 186, 195, 120, 120, 195, 3, 0.656791
255, 3, bw, attraction, a-b-db, 14, 2, 1, 19, 90, 165, 165, 90, 83, 153, 1, 5.00361
255, 3, bw, attraction, a-b-db, 14, 2, 1, 19, 90, 165, 165, 90, 83, 153, 2, 1.00139
255, 3, bw, attraction, a-b-db, 2, 2, 1, 20, 90, 165, 165, 90, 89, 163, 1, 2.38288
255, 3, bw, attraction, a-b-db, 2, 2, 1, 20, 90, 165, 165, 90, 89, 163, 2, 0.830291
255, 3, bw, attraction, a-b-da, 14, 1, 1, 21, 125, 56, 60, 135, 135, 60, 3, 2.6507
255, 3, bw, attraction, a-b-da, 14, 1, 1, 21, 125, 56, 60, 135, 135, 60, 1, 0.959062
255, 3, bw, filler, NA, 999, 999, 1, 22, 114, 110, 142, 171, 154, 174, 3, 1.60601
255, 3, bw, filler, NA, 999, 999, 1, 22, 114, 110, 142, 171, 154, 174, 1, 0.796093
255, 3, bw, attraction, a-b-db, 5, 1, 1, 23, 60, 135, 58, 132, 135, 60, 3, 3.54585
255, 3, bw, attraction, a-b-db, 5, 1, 1, 23, 60, 135, 58, 132, 135, 60, 1, 0.897966
255, 3, bw, filler, NA, 999, 999, 1, 24, 100, 95, 189, 89, 99, 185, 3, 3.66772
255, 3, bw, filler, NA, 999, 999, 1, 24, 100, 95, 189, 89, 99, 185, 1, 0.623179
255, 3, bw, filler, NA, 999, 999, 1, 25, 113, 192, 104, 193, 94, 75, 2, 2.2043
255, 3, bw, filler, NA, 999, 999, 1, 25, 113, 192, 104, 193, 94, 75, 3, 0.890847
255, 3, bw, attraction, a-b-da, 5, 1, 1, 26, 135, 60, 60, 135, 132, 58, 2, 5.65259
255, 3, bw, attraction, a-b-da, 5, 1, 1, 26, 135, 60, 60, 135, 132, 58, 3, 1.30412
255, 3, bw, attraction, a-b-db, 14, 3, 1, 27, 195, 120, 120, 195, 111, 181, 1, 3.61763
255, 3, bw, attraction, a-b-db, 14, 3, 1, 27, 195, 120, 120, 195, 111, 181, 3, 0.823124
255, 3, bw, attraction, a-b-db, 9, 1, 1, 28, 57, 129, 135, 60, 60, 135, 3, 1.50017
255, 3, bw, attraction, a-b-db, 9, 1, 1, 28, 57, 129, 135, 60, 60, 135, 2, 0.366914
255, 3, bw, attraction, a-b-da, 2, 2, 1, 29, 163, 89, 165, 90, 90, 165, 3, 2.2702
255, 3, bw, attraction, a-b-da, 2, 2, 1, 29, 163, 89, 165, 90, 90, 165, 2, 0.674037
255, 3, bw, catch, NA, 999, 999, 1, 30, 124, 71, 119, 136, 147, 168, 3, 0.988409
255, 3, bw, catch, NA, 999, 999, 1, 30, 124, 71, 119, 136, 147, 168, 1, 0.715462
255, 3, bw, filler, NA, 999, 999, 1, 31, 76, 141, 76, 140, 160, 86, 3, 1.39651
255, 3, bw, filler, NA, 999, 999, 1, 31, 76, 141, 76, 140, 160, 86, 1, 1.00341
255, 3, bw, catch, NA, 999, 999, 1, 32, 89, 106, 165, 90, 177, 138, 3, 0.992934
255, 3, bw, catch, NA, 999, 999, 1, 32, 89, 106, 165, 90, 177, 138, 1, 0.719993
255, 3, bw, attraction, a-b-da, 9, 1, 1, 33, 135, 60, 129, 57, 60, 135, 3, 3.88096
255, 3, bw, attraction, a-b-da, 9, 1, 1, 33, 135, 60, 129, 57, 60, 135, 1, 0.851821
255, 3, bw, attraction, a-b-da, 14, 2, 1, 34, 165, 90, 90, 165, 153, 83, 1, 1.50344
255, 3, bw, attraction, a-b-da, 14, 2, 1, 34, 165, 90, 90, 165, 153, 83, 3, 0.834333
255, 3, bw, filler, NA, 999, 999, 1, 35, 137, 123, 59, 145, 59, 124, 1, 1.01469
255, 3, bw, filler, NA, 999, 999, 1, 35, 137, 123, 59, 145, 59, 124, 3, 0.709136
255, 3, bw, attraction, a-b-da, 5, 3, 1, 36, 190, 117, 120, 195, 195, 120, 3, 1.10205
255, 3, bw, attraction, a-b-da, 5, 3, 1, 36, 190, 117, 120, 195, 195, 120, 1, 0.625026
255, 3, bw, attraction, a-b-da, 14, 3, 1, 37, 195, 120, 181, 111, 120, 195, 3, 4.50156
255, 3, bw, attraction, a-b-da, 14, 3, 1, 37, 195, 120, 181, 111, 120, 195, 1, 0.927324
255, 3, bw, filler, NA, 999, 999, 2, 1, 111, 163, 162, 89, 183, 98, 1, 3.51156
255, 3, bw, filler, NA, 999, 999, 2, 1, 111, 163, 162, 89, 183, 98, 3, 0.553225
255, 3, bw, attraction, a-b-da, 14, 3, 2, 2, 181, 111, 120, 195, 195, 120, 3, 1.14501
255, 3, bw, attraction, a-b-da, 14, 3, 2, 2, 181, 111, 120, 195, 195, 120, 1, 0.634078
255, 3, bw, attraction, a-b-da, 9, 1, 2, 3, 60, 135, 135, 60, 129, 57, 1, 3.43831
255, 3, bw, attraction, a-b-da, 9, 1, 2, 3, 60, 135, 135, 60, 129, 57, 2, 0.354567
255, 3, bw, filler, NA, 999, 999, 2, 4, 60, 121, 105, 93, 59, 149, 2, 1.05836
255, 3, bw, filler, NA, 999, 999, 2, 4, 60, 121, 105, 93, 59, 149, 1, 1.60669
255, 3, bw, attraction, a-b-db, 9, 1, 2, 5, 60, 135, 135, 60, 57, 129, 1, 2.43619
255, 3, bw, attraction, a-b-db, 9, 1, 2, 5, 60, 135, 135, 60, 57, 129, 3, 0.513314
255, 3, bw, attraction, a-b-db, 14, 3, 2, 6, 120, 195, 195, 120, 111, 181, 2, 3.16238
255, 3, bw, attraction, a-b-db, 14, 3, 2, 6, 120, 195, 195, 120, 111, 181, 3, 0.94614
255, 3, bw, attraction, a-b-db, 5, 3, 2, 7, 195, 120, 117, 190, 120, 195, 1, 4.41775
255, 3, bw, attraction, a-b-db, 5, 3, 2, 7, 195, 120, 117, 190, 120, 195, 3, 0.510937
255, 3, bw, attraction, a-b-db, 14, 2, 2, 8, 165, 90, 90, 165, 83, 153, 2, 1.68812
255, 3, bw, attraction, a-b-db, 14, 2, 2, 8, 165, 90, 90, 165, 83, 153, 3, 0.539751
255, 3, bw, filler, NA, 999, 999, 2, 9, 137, 191, 112, 77, 150, 82, 1, 1.00404
255, 3, bw, filler, NA, 999, 999, 2, 9, 137, 191, 112, 77, 150, 82, 2, 0.762462
255, 3, bw, attraction, a-b-da, 5, 2, 2, 10, 161, 88, 165, 90, 90, 165, 2, 0.673475
255, 3, bw, attraction, a-b-da, 5, 2, 2, 10, 161, 88, 165, 90, 90, 165, 1, 0.573035
255, 3, bw, attraction, a-b-db, 2, 1, 2, 11, 135, 60, 59, 134, 60, 135, 2, 6.35623
255, 3, bw, attraction, a-b-db, 2, 1, 2, 11, 135, 60, 59, 134, 60, 135, 1, 0.459705
255, 3, bw, attraction, a-b-da, 14, 1, 2, 12, 60, 135, 125, 56, 135, 60, 1, 1.55865
255, 3, bw, attraction, a-b-da, 14, 1, 2, 12, 60, 135, 125, 56, 135, 60, 2, 0.8068
255, 3, bw, attraction, a-b-db, 5, 2, 2, 13, 90, 165, 165, 90, 88, 161, 1, 4.43596
255, 3, bw, attraction, a-b-db, 5, 2, 2, 13, 90, 165, 165, 90, 88, 161, 2, 1.08053
255, 3, bw, attraction, a-b-da, 14, 2, 2, 14, 165, 90, 153, 83, 90, 165, 1, 6.00284
255, 3, bw, attraction, a-b-da, 14, 2, 2, 14, 165, 90, 153, 83, 90, 165, 2, 0.576135
255, 3, bw, catch, NA, 999, 999, 2, 15, 106, 149, 157, 158, 82, 113, 2, 0.878545
255, 3, bw, catch, NA, 999, 999, 2, 15, 106, 149, 157, 158, 82, 113, 3, 0.586316
255, 3, bw, attraction, a-b-da, 2, 2, 2, 16, 163, 89, 90, 165, 165, 90, 3, 1.6247
255, 3, bw, attraction, a-b-da, 2, 2, 2, 16, 163, 89, 90, 165, 165, 90, 2, 1.30219
255, 3, bw, attraction, a-b-db, 9, 2, 2, 17, 165, 90, 90, 165, 86, 157, 2, 2.71975
255, 3, bw, attraction, a-b-db, 9, 2, 2, 17, 165, 90, 90, 165, 86, 157, 3, 2.28951
255, 3, bw, filler, NA, 999, 999, 2, 18, 70, 159, 94, 149, 117, 191, 3, 1.43555
255, 3, bw, filler, NA, 999, 999, 2, 18, 70, 159, 94, 149, 117, 191, 1, 0.752832
255, 3, bw, attraction, a-b-db, 5, 1, 2, 19, 135, 60, 58, 132, 60, 135, 3, 8.39267
255, 3, bw, attraction, a-b-db, 5, 1, 2, 19, 135, 60, 58, 132, 60, 135, 1, 0.797517
255, 3, bw, attraction, a-b-db, 2, 3, 2, 20, 120, 195, 119, 193, 195, 120, 3, 1.35496
255, 3, bw, attraction, a-b-db, 2, 3, 2, 20, 120, 195, 119, 193, 195, 120, 1, 1.02719
255, 3, bw, filler, NA, 999, 999, 2, 21, 62, 106, 118, 77, 161, 137, 3, 0.895486
255, 3, bw, filler, NA, 999, 999, 2, 21, 62, 106, 118, 77, 161, 137, 1, 0.826476
255, 3, bw, attraction, a-b-da, 5, 3, 2, 22, 195, 120, 120, 195, 190, 117, 2, 2.99102
255, 3, bw, attraction, a-b-da, 5, 3, 2, 22, 195, 120, 120, 195, 190, 117, 3, 1.49325
255, 3, bw, attraction, a-b-db, 2, 2, 2, 23, 89, 163, 90, 165, 165, 90, 3, 8.51073
255, 3, bw, attraction, a-b-db, 2, 2, 2, 23, 89, 163, 90, 165, 165, 90, 1, 0.710624
255, 3, bw, filler, NA, 999, 999, 2, 24, 194, 153, 94, 134, 150, 147, 1, 0.895751
255, 3, bw, filler, NA, 999, 999, 2, 24, 194, 153, 94, 134, 150, 147, 2, 1.51476
255, 3, bw, filler, NA, 999, 999, 2, 25, 166, 194, 164, 194, 67, 146, 1, 2.05948
255, 3, bw, filler, NA, 999, 999, 2, 25, 166, 194, 164, 194, 67, 146, 3, 0.711547
255, 3, bw, attraction, a-b-da, 2, 1, 2, 26, 134, 59, 60, 135, 135, 60, 3, 1.26456
255, 3, bw, attraction, a-b-da, 2, 1, 2, 26, 134, 59, 60, 135, 135, 60, 2, 0.516875
255, 3, bw, filler, NA, 999, 999, 2, 27, 106, 193, 195, 173, 83, 180, 2, 0.933904
255, 3, bw, filler, NA, 999, 999, 2, 27, 106, 193, 195, 173, 83, 180, 3, 0.607596
255, 3, bw, attraction, a-b-da, 9, 3, 2, 28, 186, 114, 195, 120, 120, 195, 3, 1.45283
255, 3, bw, attraction, a-b-da, 9, 3, 2, 28, 186, 114, 195, 120, 120, 195, 2, 0.425703
255, 3, bw, attraction, a-b-db, 14, 1, 2, 29, 135, 60, 56, 125, 60, 135, 3, 1.53407
255, 3, bw, attraction, a-b-db, 14, 1, 2, 29, 135, 60, 56, 125, 60, 135, 2, 0.479617
255, 3, bw, catch, NA, 999, 999, 2, 30, 109, 146, 110, 85, 171, 144, 3, 0.970024
255, 3, bw, catch, NA, 999, 999, 2, 30, 109, 146, 110, 85, 171, 144, 2, 0.514359
255, 3, bw, catch, NA, 999, 999, 2, 31, 83, 112, 107, 148, 143, 172, 3, 0.867517
255, 3, bw, catch, NA, 999, 999, 2, 31, 83, 112, 107, 148, 143, 172, 1, 0.847861
255, 3, bw, filler, NA, 999, 999, 2, 32, 75, 101, 147, 138, 159, 182, 3, 0.627494
255, 3, bw, filler, NA, 999, 999, 2, 32, 75, 101, 147, 138, 159, 182, 1, 0.601304
255, 3, bw, attraction, a-b-da, 5, 1, 2, 33, 60, 135, 135, 60, 132, 58, 1, 1.06303
255, 3, bw, attraction, a-b-da, 5, 1, 2, 33, 60, 135, 135, 60, 132, 58, 2, 0.979362
255, 3, bw, attraction, a-b-db, 9, 3, 2, 34, 114, 186, 195, 120, 120, 195, 3, 3.46568
255, 3, bw, attraction, a-b-db, 9, 3, 2, 34, 114, 186, 195, 120, 120, 195, 1, 0.333202
255, 3, bw, attraction, a-b-da, 2, 3, 2, 35, 195, 120, 193, 119, 120, 195, 3, 1.46182
255, 3, bw, attraction, a-b-da, 2, 3, 2, 35, 195, 120, 193, 119, 120, 195, 1, 0.321919
255, 3, bw, attraction, a-b-da, 9, 2, 2, 36, 165, 90, 90, 165, 157, 86, 2, 1.96309
255, 3, bw, attraction, a-b-da, 9, 2, 2, 36, 165, 90, 90, 165, 157, 86, 3, 0.355166
255, 3, bw, filler, NA, 999, 999, 2, 37, 106, 170, 181, 167, 167, 148, 2, 2.43495
255, 3, bw, filler, NA, 999, 999, 2, 37, 106, 170, 181, 167, 167, 148, 1, 0.552205
255, 3, bw, attraction, a-b-da, 14, 1, 3, 1, 135, 60, 125, 56, 60, 135, 3, 1.82393
255, 3, bw, attraction, a-b-da, 14, 1, 3, 1, 135, 60, 125, 56, 60, 135, 2, 0.413386
255, 3, bw, filler, NA, 999, 999, 3, 2, 136, 110, 161, 77, 173, 95, 3, 4.82642
255, 3, bw, filler, NA, 999, 999, 3, 2, 136, 110, 161, 77, 173, 95, 2, 0.638851
255, 3, bw, attraction, a-b-db, 9, 2, 3, 3, 165, 90, 90, 165, 86, 157, 2, 3.28345
255, 3, bw, attraction, a-b-db, 9, 2, 3, 3, 165, 90, 90, 165, 86, 157, 1, 0.87827
255, 3, bw, filler, NA, 999, 999, 3, 4, 65, 94, 61, 99, 134, 82, 3, 1.12876
255, 3, bw, filler, NA, 999, 999, 3, 4, 65, 94, 61, 99, 134, 82, 2, 0.698405
255, 3, bw, filler, NA, 999, 999, 3, 5, 172, 150, 159, 83, 96, 83, 1, 0.827976
255, 3, bw, filler, NA, 999, 999, 3, 5, 172, 150, 159, 83, 96, 83, 3, 0.649802
255, 3, bw, attraction, a-b-db, 5, 2, 3, 6, 90, 165, 88, 161, 165, 90, 1, 2.05353
255, 3, bw, attraction, a-b-db, 5, 2, 3, 6, 90, 165, 88, 161, 165, 90, 2, 0.706121
255, 3, bw, filler, NA, 999, 999, 3, 7, 152, 157, 149, 174, 68, 101, 2, 1.1478
255, 3, bw, filler, NA, 999, 999, 3, 7, 152, 157, 149, 174, 68, 101, 3, 0.524921
255, 3, bw, attraction, a-b-db, 2, 2, 3, 8, 90, 165, 89, 163, 165, 90, 3, 4.04527
255, 3, bw, attraction, a-b-db, 2, 2, 3, 8, 90, 165, 89, 163, 165, 90, 2, 0.617217
255, 3, bw, attraction, a-b-da, 2, 1, 3, 9, 135, 60, 60, 135, 134, 59, 2, 4.78229
255, 3, bw, attraction, a-b-da, 2, 1, 3, 9, 135, 60, 60, 135, 134, 59, 3, 0.548787
255, 3, bw, attraction, a-b-db, 5, 3, 3, 10, 117, 190, 120, 195, 195, 120, 2, 5.38058
255, 3, bw, attraction, a-b-db, 5, 3, 3, 10, 117, 190, 120, 195, 195, 120, 1, 1.10701
255, 3, bw, attraction, a-b-db, 2, 1, 3, 11, 59, 134, 135, 60, 60, 135, 3, 1.50788
255, 3, bw, attraction, a-b-db, 2, 1, 3, 11, 59, 134, 135, 60, 60, 135, 2, 0.518159
255, 3, bw, catch, NA, 999, 999, 3, 12, 138, 117, 151, 164, 125, 70, 2, 1.10306
255, 3, bw, catch, NA, 999, 999, 3, 12, 138, 117, 151, 164, 125, 70, 3, 0.530156
255, 3, bw, attraction, a-b-da, 14, 2, 3, 13, 153, 83, 165, 90, 90, 165, 3, 3.25844
255, 3, bw, attraction, a-b-da, 14, 2, 3, 13, 153, 83, 165, 90, 90, 165, 1, 1.30212
255, 3, bw, attraction, a-b-db, 2, 3, 3, 14, 119, 193, 195, 120, 120, 195, 3, 3.19963
255, 3, bw, attraction, a-b-db, 2, 3, 3, 14, 119, 193, 195, 120, 120, 195, 1, 0.989909
255, 3, bw, attraction, a-b-db, 14, 2, 3, 15, 83, 153, 165, 90, 90, 165, 3, 1.06849
255, 3, bw, attraction, a-b-db, 14, 2, 3, 15, 83, 153, 165, 90, 90, 165, 1, 0.424534
255, 3, bw, attraction, a-b-db, 5, 1, 3, 16, 58, 132, 60, 135, 135, 60, 1, 2.06909
255, 3, bw, attraction, a-b-db, 5, 1, 3, 16, 58, 132, 60, 135, 135, 60, 2, 0.417127
255, 3, bw, attraction, a-b-da, 2, 3, 3, 17, 193, 119, 120, 195, 195, 120, 3, 2.64623
255, 3, bw, attraction, a-b-da, 2, 3, 3, 17, 193, 119, 120, 195, 195, 120, 1, 0.698715
255, 3, bw, attraction, a-b-db, 14, 1, 3, 18, 60, 135, 56, 125, 135, 60, 1, 2.92448
255, 3, bw, attraction, a-b-db, 14, 1, 3, 18, 60, 135, 56, 125, 135, 60, 3, 2.19748
255, 3, bw, filler, NA, 999, 999, 3, 19, 183, 159, 63, 148, 158, 103, 1, 0.994671
255, 3, bw, filler, NA, 999, 999, 3, 19, 183, 159, 63, 148, 158, 103, 2, 0.641688
255, 3, bw, filler, NA, 999, 999, 3, 20, 81, 91, 128, 139, 141, 93, 2, 0.941526
255, 3, bw, filler, NA, 999, 999, 3, 20, 81, 91, 128, 139, 141, 93, 1, 0.446474
255, 3, bw, filler, NA, 999, 999, 3, 21, 97, 115, 117, 143, 193, 60, 2, 2.21827
255, 3, bw, filler, NA, 999, 999, 3, 21, 97, 115, 117, 143, 193, 60, 1, 0.81633
255, 3, bw, attraction, a-b-db, 14, 3, 3, 22, 120, 195, 195, 120, 111, 181, 1, 0.789237
255, 3, bw, attraction, a-b-db, 14, 3, 3, 22, 120, 195, 195, 120, 111, 181, 3, 0.980231
255, 3, bw, attraction, a-b-da, 5, 1, 3, 23, 135, 60, 132, 58, 60, 135, 2, 0.866501
255, 3, bw, attraction, a-b-da, 5, 1, 3, 23, 135, 60, 132, 58, 60, 135, 1, 0.494912
255, 3, bw, catch, NA, 999, 999, 3, 24, 65, 130, 152, 103, 171, 144, 3, 0.672735
255, 3, bw, catch, NA, 999, 999, 3, 24, 65, 130, 152, 103, 171, 144, 1, 0.588531
255, 3, bw, filler, NA, 999, 999, 3, 25, 87, 58, 145, 133, 127, 111, 2, 0.642848
255, 3, bw, filler, NA, 999, 999, 3, 25, 87, 58, 145, 133, 127, 111, 1, 0.512017
255, 3, bw, catch, NA, 999, 999, 3, 26, 80, 115, 149, 166, 127, 128, 2, 0.569161
255, 3, bw, catch, NA, 999, 999, 3, 26, 80, 115, 149, 166, 127, 128, 1, 0.64178
255, 3, bw, attraction, a-b-db, 9, 3, 3, 27, 195, 120, 114, 186, 120, 195, 1, 0.821296
255, 3, bw, attraction, a-b-db, 9, 3, 3, 27, 195, 120, 114, 186, 120, 195, 2, 0.635059
255, 3, bw, filler, NA, 999, 999, 3, 28, 84, 57, 158, 125, 73, 142, 2, 0.471458
255, 3, bw, filler, NA, 999, 999, 3, 28, 84, 57, 158, 125, 73, 142, 1, 0.675419
255, 3, bw, attraction, a-b-da, 2, 2, 3, 29, 163, 89, 90, 165, 165, 90, 1, 1.37363
255, 3, bw, attraction, a-b-da, 2, 2, 3, 29, 163, 89, 90, 165, 165, 90, 2, 0.597307
255, 3, bw, attraction, a-b-db, 9, 1, 3, 30, 60, 135, 135, 60, 57, 129, 3, 1.53116
255, 3, bw, attraction, a-b-db, 9, 1, 3, 30, 60, 135, 135, 60, 57, 129, 2, 0.404446
255, 3, bw, attraction, a-b-da, 9, 2, 3, 31, 157, 86, 90, 165, 165, 90, 2, 1.47445
255, 3, bw, attraction, a-b-da, 9, 2, 3, 31, 157, 86, 90, 165, 165, 90, 1, 1.366
255, 3, bw, attraction, a-b-da, 5, 2, 3, 32, 161, 88, 165, 90, 90, 165, 2, 6.62071
255, 3, bw, attraction, a-b-da, 5, 2, 3, 32, 161, 88, 165, 90, 90, 165, 1, 0.537338
255, 3, bw, attraction, a-b-da, 5, 3, 3, 33, 120, 195, 190, 117, 195, 120, 1, 1.08164
255, 3, bw, attraction, a-b-da, 5, 3, 3, 33, 120, 195, 190, 117, 195, 120, 3, 0.349449
255, 3, bw, attraction, a-b-da, 14, 3, 3, 34, 120, 195, 181, 111, 195, 120, 1, 5.25326
255, 3, bw, attraction, a-b-da, 14, 3, 3, 34, 120, 195, 181, 111, 195, 120, 3, 0.48885
255, 3, bw, filler, NA, 999, 999, 3, 35, 144, 182, 121, 183, 141, 123, 1, 0.883207
255, 3, bw, filler, NA, 999, 999, 3, 35, 144, 182, 121, 183, 141, 123, 3, 0.510997
255, 3, bw, attraction, a-b-da, 9, 1, 3, 36, 60, 135, 135, 60, 129, 57, 1, 0.680122
255, 3, bw, attraction, a-b-da, 9, 1, 3, 36, 60, 135, 135, 60, 129, 57, 3, 0.819853
255, 3, bw, attraction, a-b-da, 9, 3, 3, 37, 195, 120, 186, 114, 120, 195, 1, 0.936902
255, 3, bw, attraction, a-b-da, 9, 3, 3, 37, 195, 120, 186, 114, 120, 195, 2, 0.698631
255, 3, bw, attraction, a-b-da, 5, 1, 4, 1, 132, 58, 60, 135, 135, 60, 2, 0.788282
255, 3, bw, attraction, a-b-da, 5, 1, 4, 1, 132, 58, 60, 135, 135, 60, 1, 0.395368
255, 3, bw, filler, NA, 999, 999, 4, 2, 190, 75, 82, 119, 77, 95, 1, 1.56109
255, 3, bw, filler, NA, 999, 999, 4, 2, 190, 75, 82, 119, 77, 95, 3, 0.921427
255, 3, bw, attraction, a-b-db, 14, 3, 4, 3, 111, 181, 120, 195, 195, 120, 1, 0.7943
255, 3, bw, attraction, a-b-db, 14, 3, 4, 3, 111, 181, 120, 195, 195, 120, 3, 0.449367
255, 3, bw, filler, NA, 999, 999, 4, 4, 136, 100, 108, 146, 60, 99, 1, 1.22922
255, 3, bw, filler, NA, 999, 999, 4, 4, 136, 100, 108, 146, 60, 99, 3, 0.850737
255, 3, bw, attraction, a-b-da, 2, 3, 4, 5, 120, 195, 195, 120, 193, 119, 1, 0.814348
255, 3, bw, attraction, a-b-da, 2, 3, 4, 5, 120, 195, 195, 120, 193, 119, 3, 0.380886
255, 3, bw, attraction, a-b-db, 2, 3, 4, 6, 195, 120, 119, 193, 120, 195, 1, 1.60323
255, 3, bw, attraction, a-b-db, 2, 3, 4, 6, 195, 120, 119, 193, 120, 195, 2, 1.93013
255, 3, bw, attraction, a-b-db, 5, 3, 4, 7, 117, 190, 195, 120, 120, 195, 3, 1.722
255, 3, bw, attraction, a-b-db, 5, 3, 4, 7, 117, 190, 195, 120, 120, 195, 1, 0.731496
255, 3, bw, attraction, a-b-db, 9, 3, 4, 8, 195, 120, 120, 195, 114, 186, 2, 1.38803
255, 3, bw, attraction, a-b-db, 9, 3, 4, 8, 195, 120, 120, 195, 114, 186, 3, 0.826769
255, 3, bw, attraction, a-b-da, 9, 1, 4, 9, 129, 57, 60, 135, 135, 60, 2, 1.0231
255, 3, bw, attraction, a-b-da, 9, 1, 4, 9, 129, 57, 60, 135, 135, 60, 1, 1.28489
255, 3, bw, catch, NA, 999, 999, 4, 10, 178, 137, 133, 122, 62, 133, 1, 0.855057
255, 3, bw, catch, NA, 999, 999, 4, 10, 178, 137, 133, 122, 62, 133, 2, 0.36333
255, 3, bw, attraction, a-b-da, 2, 1, 4, 11, 135, 60, 134, 59, 60, 135, 2, 2.29045
255, 3, bw, attraction, a-b-da, 2, 1, 4, 11, 135, 60, 134, 59, 60, 135, 3, 0.565119
255, 3, bw, attraction, a-b-da, 9, 2, 4, 12, 157, 86, 165, 90, 90, 165, 2, 1.31627
255, 3, bw, attraction, a-b-da, 9, 2, 4, 12, 157, 86, 165, 90, 90, 165, 1, 0.814399
255, 3, bw, attraction, a-b-db, 5, 2, 4, 13, 88, 161, 165, 90, 90, 165, 2, 0.835429
255, 3, bw, attraction, a-b-db, 5, 2, 4, 13, 88, 161, 165, 90, 90, 165, 1, 0.529277
255, 3, bw, filler, NA, 999, 999, 4, 14, 189, 191, 146, 111, 133, 60, 1, 1.11364
255, 3, bw, filler, NA, 999, 999, 4, 14, 189, 191, 146, 111, 133, 60, 3, 0.620025
255, 3, bw, catch, NA, 999, 999, 4, 15, 120, 195, 83, 112, 137, 118, 1, 0.552946
255, 3, bw, catch, NA, 999, 999, 4, 15, 120, 195, 83, 112, 137, 118, 2, 0.418152
255, 3, bw, attraction, a-b-db, 14, 2, 4, 16, 90, 165, 165, 90, 83, 153, 2, 0.591283
255, 3, bw, attraction, a-b-db, 14, 2, 4, 16, 90, 165, 165, 90, 83, 153, 1, 0.366531
255, 3, bw, filler, NA, 999, 999, 4, 17, 130, 91, 71, 181, 181, 131, 3, 0.837516
255, 3, bw, filler, NA, 999, 999, 4, 17, 130, 91, 71, 181, 181, 131, 1, 0.531266
255, 3, bw, attraction, a-b-da, 14, 2, 4, 18, 165, 90, 153, 83, 90, 165, 1, 0.979769
255, 3, bw, attraction, a-b-da, 14, 2, 4, 18, 165, 90, 153, 83, 90, 165, 2, 0.37128
255, 3, bw, filler, NA, 999, 999, 4, 19, 101, 79, 107, 133, 107, 85, 2, 0.986434
255, 3, bw, filler, NA, 999, 999, 4, 19, 101, 79, 107, 133, 107, 85, 1, 0.96213
255, 3, bw, attraction, a-b-da, 5, 3, 4, 20, 120, 195, 190, 117, 195, 120, 3, 3.45716
255, 3, bw, attraction, a-b-da, 5, 3, 4, 20, 120, 195, 190, 117, 195, 120, 2, 0.308837
255, 3, bw, attraction, a-b-da, 5, 2, 4, 21, 90, 165, 165, 90, 161, 88, 3, 2.19794
255, 3, bw, attraction, a-b-da, 5, 2, 4, 21, 90, 165, 165, 90, 161, 88, 1, 0.460522
255, 3, bw, attraction, a-b-da, 14, 1, 4, 22, 135, 60, 60, 135, 125, 56, 2, 1.23161
255, 3, bw, attraction, a-b-da, 14, 1, 4, 22, 135, 60, 60, 135, 125, 56, 3, 0.445208
255, 3, bw, attraction, a-b-db, 2, 1, 4, 23, 60, 135, 135, 60, 59, 134, 1, 3.65704
255, 3, bw, attraction, a-b-db, 2, 1, 4, 23, 60, 135, 135, 60, 59, 134, 2, 1.36449
255, 3, bw, filler, NA, 999, 999, 4, 24, 101, 143, 168, 88, 125, 111, 3, 7.62742
255, 3, bw, filler, NA, 999, 999, 4, 24, 101, 143, 168, 88, 125, 111, 2, 0.550963
255, 3, bw, filler, NA, 999, 999, 4, 25, 78, 158, 131, 163, 141, 166, 3, 1.53473
255, 3, bw, filler, NA, 999, 999, 4, 25, 78, 158, 131, 163, 141, 166, 1, 0.376235
255, 3, bw, attraction, a-b-db, 2, 2, 4, 26, 165, 90, 90, 165, 89, 163, 1, 1.94272
255, 3, bw, attraction, a-b-db, 2, 2, 4, 26, 165, 90, 90, 165, 89, 163, 3, 0.663516
255, 3, bw, filler, NA, 999, 999, 4, 27, 93, 158, 77, 79, 90, 121, 1, 0.570419
255, 3, bw, filler, NA, 999, 999, 4, 27, 93, 158, 77, 79, 90, 121, 2, 0.538903
255, 3, bw, attraction, a-b-db, 9, 1, 4, 28, 135, 60, 57, 129, 60, 135, 2, 1.45135
255, 3, bw, attraction, a-b-db, 9, 1, 4, 28, 135, 60, 57, 129, 60, 135, 1, 0.928413
255, 3, bw, filler, NA, 999, 999, 4, 29, 106, 101, 134, 65, 91, 113, 1, 0.952497
255, 3, bw, filler, NA, 999, 999, 4, 29, 106, 101, 134, 65, 91, 113, 2, 0.52955
255, 3, bw, catch, NA, 999, 999, 4, 30, 111, 144, 139, 176, 119, 76, 2, 0.874037
255, 3, bw, catch, NA, 999, 999, 4, 30, 111, 144, 139, 176, 119, 76, 3, 0.477722
255, 3, bw, attraction, a-b-db, 5, 1, 4, 31, 135, 60, 60, 135, 58, 132, 2, 2.4802
255, 3, bw, attraction, a-b-db, 5, 1, 4, 31, 135, 60, 60, 135, 58, 132, 1, 0.379553
255, 3, bw, attraction, a-b-da, 9, 3, 4, 32, 195, 120, 186, 114, 120, 195, 1, 0.889922
255, 3, bw, attraction, a-b-da, 9, 3, 4, 32, 195, 120, 186, 114, 120, 195, 2, 0.612924
255, 3, bw, attraction, a-b-da, 2, 2, 4, 33, 165, 90, 90, 165, 163, 89, 2, 3.39398
255, 3, bw, attraction, a-b-da, 2, 2, 4, 33, 165, 90, 90, 165, 163, 89, 3, 0.8882
255, 3, bw, filler, NA, 999, 999, 4, 34, 179, 85, 118, 191, 118, 149, 2, 0.530589
255, 3, bw, filler, NA, 999, 999, 4, 34, 179, 85, 118, 191, 118, 149, 1, 0.54035
255, 3, bw, attraction, a-b-db, 14, 1, 4, 35, 56, 125, 135, 60, 60, 135, 3, 1.14825
255, 3, bw, attraction, a-b-db, 14, 1, 4, 35, 56, 125, 135, 60, 60, 135, 2, 0.565059
255, 3, bw, attraction, a-b-db, 9, 2, 4, 36, 165, 90, 90, 165, 86, 157, 2, 0.956138
255, 3, bw, attraction, a-b-db, 9, 2, 4, 36, 165, 90, 90, 165, 86, 157, 1, 0.324574
255, 3, bw, attraction, a-b-da, 14, 3, 4, 37, 195, 120, 120, 195, 181, 111, 2, 0.725121
255, 3, bw, attraction, a-b-da, 14, 3, 4, 37, 195, 120, 120, 195, 181, 111, 1, 0.406781
255, 3, bw, filler, NA, 999, 999, 5, 1, 119, 179, 176, 143, 101, 87, 2, 2.50664
255, 3, bw, filler, NA, 999, 999, 5, 1, 119, 179, 176, 143, 101, 87, 3, 0.796442
255, 3, bw, attraction, a-b-da, 9, 1, 5, 2, 60, 135, 129, 57, 135, 60, 3, 3.89017
255, 3, bw, attraction, a-b-da, 9, 1, 5, 2, 60, 135, 129, 57, 135, 60, 2, 0.340196
255, 3, bw, catch, NA, 999, 999, 5, 3, 99, 96, 145, 110, 175, 140, 3, 0.82803
255, 3, bw, catch, NA, 999, 999, 5, 3, 99, 96, 145, 110, 175, 140, 1, 0.513732
255, 3, bw, attraction, a-b-db, 9, 3, 5, 4, 195, 120, 120, 195, 114, 186, 2, 1.88289
255, 3, bw, attraction, a-b-db, 9, 3, 5, 4, 195, 120, 120, 195, 114, 186, 3, 2.4303
255, 3, bw, attraction, a-b-db, 2, 3, 5, 5, 120, 195, 195, 120, 119, 193, 1, 1.06614
255, 3, bw, attraction, a-b-db, 2, 3, 5, 5, 120, 195, 195, 120, 119, 193, 2, 0.302389
255, 3, bw, attraction, a-b-db, 5, 2, 5, 6, 90, 165, 165, 90, 88, 161, 2, 1.01622
255, 3, bw, attraction, a-b-db, 5, 2, 5, 6, 90, 165, 165, 90, 88, 161, 1, 0.342674
255, 3, bw, attraction, a-b-da, 5, 1, 5, 7, 135, 60, 132, 58, 60, 135, 3, 0.974443
255, 3, bw, attraction, a-b-da, 5, 1, 5, 7, 135, 60, 132, 58, 60, 135, 1, 0.526088
255, 3, bw, filler, NA, 999, 999, 5, 8, 173, 180, 105, 170, 116, 126, 1, 0.766544
255, 3, bw, filler, NA, 999, 999, 5, 8, 173, 180, 105, 170, 116, 126, 3, 0.526967
255, 3, bw, attraction, a-b-db, 2, 2, 5, 9, 165, 90, 90, 165, 89, 163, 2, 1.63947
255, 3, bw, attraction, a-b-db, 2, 2, 5, 9, 165, 90, 90, 165, 89, 163, 1, 0.284122
255, 3, bw, filler, NA, 999, 999, 5, 10, 81, 123, 166, 73, 186, 177, 3, 0.694739
255, 3, bw, filler, NA, 999, 999, 5, 10, 81, 123, 166, 73, 186, 177, 1, 0.529751
255, 3, bw, filler, NA, 999, 999, 5, 11, 119, 93, 78, 121, 115, 174, 3, 0.554162
255, 3, bw, filler, NA, 999, 999, 5, 11, 119, 93, 78, 121, 115, 174, 2, 0.387582
255, 3, bw, filler, NA, 999, 999, 5, 12, 118, 76, 118, 99, 155, 98, 3, 0.777862
255, 3, bw, filler, NA, 999, 999, 5, 12, 118, 76, 118, 99, 155, 98, 1, 0.713478
255, 3, bw, attraction, a-b-db, 9, 2, 5, 13, 86, 157, 90, 165, 165, 90, 2, 2.52256
255, 3, bw, attraction, a-b-db, 9, 2, 5, 13, 86, 157, 90, 165, 165, 90, 3, 0.683797
255, 3, bw, attraction, a-b-da, 14, 2, 5, 14, 90, 165, 165, 90, 153, 83, 1, 1.00624
255, 3, bw, attraction, a-b-da, 14, 2, 5, 14, 90, 165, 165, 90, 153, 83, 2, 0.581936
255, 3, bw, attraction, a-b-da, 9, 2, 5, 15, 165, 90, 157, 86, 90, 165, 3, 1.11501
255, 3, bw, attraction, a-b-da, 9, 2, 5, 15, 165, 90, 157, 86, 90, 165, 2, 0.44567
255, 3, bw, attraction, a-b-db, 14, 1, 5, 16, 135, 60, 60, 135, 56, 125, 1, 1.23301
255, 3, bw, attraction, a-b-db, 14, 1, 5, 16, 135, 60, 60, 135, 56, 125, 3, 0.574664
255, 3, bw, filler, NA, 999, 999, 5, 17, 157, 148, 119, 136, 75, 80, 1, 0.868989
255, 3, bw, filler, NA, 999, 999, 5, 17, 157, 148, 119, 136, 75, 80, 3, 0.529606
255, 3, bw, filler, NA, 999, 999, 5, 18, 128, 116, 143, 157, 175, 63, 2, 0.817892
255, 3, bw, filler, NA, 999, 999, 5, 18, 128, 116, 143, 157, 175, 63, 3, 0.584373
255, 3, bw, attraction, a-b-da, 2, 2, 5, 19, 165, 90, 90, 165, 163, 89, 2, 3.5507
255, 3, bw, attraction, a-b-da, 2, 2, 5, 19, 165, 90, 90, 165, 163, 89, 1, 0.374929
255, 3, bw, attraction, a-b-da, 14, 1, 5, 20, 60, 135, 125, 56, 135, 60, 3, 0.925517
255, 3, bw, attraction, a-b-da, 14, 1, 5, 20, 60, 135, 125, 56, 135, 60, 2, 0.447014
255, 3, bw, filler, NA, 999, 999, 5, 21, 105, 93, 136, 136, 83, 87, 2, 0.642864
255, 3, bw, filler, NA, 999, 999, 5, 21, 105, 93, 136, 136, 83, 87, 3, 0.576017
255, 3, bw, attraction, a-b-da, 2, 1, 5, 22, 60, 135, 134, 59, 135, 60, 3, 1.16637
255, 3, bw, attraction, a-b-da, 2, 1, 5, 22, 60, 135, 134, 59, 135, 60, 2, 0.542582
255, 3, bw, attraction, a-b-db, 14, 3, 5, 23, 111, 181, 195, 120, 120, 195, 3, 1.51853
255, 3, bw, attraction, a-b-db, 14, 3, 5, 23, 111, 181, 195, 120, 120, 195, 2, 0.256652
255, 3, bw, attraction, a-b-db, 5, 3, 5, 24, 120, 195, 117, 190, 195, 120, 3, 8.39577
255, 3, bw, attraction, a-b-db, 5, 3, 5, 24, 120, 195, 117, 190, 195, 120, 2, 0.272481
255, 3, bw, attraction, a-b-da, 14, 3, 5, 25, 120, 195, 195, 120, 181, 111, 2, 0.691579
255, 3, bw, attraction, a-b-da, 14, 3, 5, 25, 120, 195, 195, 120, 181, 111, 3, 0.710654
255, 3, bw, catch, NA, 999, 999, 5, 26, 78, 117, 128, 127, 132, 183, 3, 0.767843
255, 3, bw, catch, NA, 999, 999, 5, 26, 78, 117, 128, 127, 132, 183, 1, 0.416291
255, 3, bw, attraction, a-b-da, 2, 3, 5, 27, 195, 120, 120, 195, 193, 119, 2, 0.557247
255, 3, bw, attraction, a-b-da, 2, 3, 5, 27, 195, 120, 120, 195, 193, 119, 1, 0.277744
255, 3, bw, attraction, a-b-db, 5, 1, 5, 28, 135, 60, 58, 132, 60, 135, 3, 1.21627
255, 3, bw, attraction, a-b-db, 5, 1, 5, 28, 135, 60, 58, 132, 60, 135, 1, 0.526566
255, 3, bw, attraction, a-b-da, 5, 3, 5, 29, 190, 117, 195, 120, 120, 195, 2, 1.02311
255, 3, bw, attraction, a-b-da, 5, 3, 5, 29, 190, 117, 195, 120, 120, 195, 1, 0.364768
255, 3, bw, filler, NA, 999, 999, 5, 30, 130, 190, 69, 60, 167, 57, 1, 0.979813
255, 3, bw, filler, NA, 999, 999, 5, 30, 130, 190, 69, 60, 167, 57, 2, 0.603512
255, 3, bw, filler, NA, 999, 999, 5, 31, 185, 119, 63, 68, 91, 61, 1, 0.673242
255, 3, bw, filler, NA, 999, 999, 5, 31, 185, 119, 63, 68, 91, 61, 2, 0.69308
255, 3, bw, attraction, a-b-da, 9, 3, 5, 32, 195, 120, 186, 114, 120, 195, 2, 1.90274
255, 3, bw, attraction, a-b-da, 9, 3, 5, 32, 195, 120, 186, 114, 120, 195, 1, 0.225418
255, 3, bw, catch, NA, 999, 999, 5, 33, 60, 135, 175, 140, 155, 100, 2, 0.973987
255, 3, bw, catch, NA, 999, 999, 5, 33, 60, 135, 175, 140, 155, 100, 1, 0.533585
255, 3, bw, attraction, a-b-da, 5, 2, 5, 34, 161, 88, 165, 90, 90, 165, 2, 4.24604
255, 3, bw, attraction, a-b-da, 5, 2, 5, 34, 161, 88, 165, 90, 90, 165, 1, 0.498077
255, 3, bw, attraction, a-b-db, 14, 2, 5, 35, 83, 153, 90, 165, 165, 90, 2, 3.11585
255, 3, bw, attraction, a-b-db, 14, 2, 5, 35, 83, 153, 90, 165, 165, 90, 1, 0.517712
255, 3, bw, attraction, a-b-db, 2, 1, 5, 36, 135, 60, 59, 134, 60, 135, 2, 1.63077
255, 3, bw, attraction, a-b-db, 2, 1, 5, 36, 135, 60, 59, 134, 60, 135, 1, 0.524336
255, 3, bw, attraction, a-b-db, 9, 1, 5, 37, 135, 60, 57, 129, 60, 135, 1, 0.900581
255, 3, bw, attraction, a-b-db, 9, 1, 5, 37, 135, 60, 57, 129, 60, 135, 2, 0.823549
255, 3, bw, attraction, a-b-db, 2, 1, 6, 1, 135, 60, 59, 134, 60, 135, 2, 1.98003
255, 3, bw, attraction, a-b-db, 2, 1, 6, 1, 135, 60, 59, 134, 60, 135, 1, 1.50735
255, 3, bw, attraction, a-b-da, 2, 3, 6, 2, 195, 120, 193, 119, 120, 195, 3, 4.69216
255, 3, bw, attraction, a-b-da, 2, 3, 6, 2, 195, 120, 193, 119, 120, 195, 1, 0.89399
255, 3, bw, attraction, a-b-da, 9, 1, 6, 3, 135, 60, 60, 135, 129, 57, 2, 2.96758
255, 3, bw, attraction, a-b-da, 9, 1, 6, 3, 135, 60, 60, 135, 129, 57, 3, 0.767487
255, 3, bw, filler, NA, 999, 999, 6, 4, 174, 183, 80, 65, 104, 137, 1, 0.582381
255, 3, bw, filler, NA, 999, 999, 6, 4, 174, 183, 80, 65, 104, 137, 2, 0.494229
255, 3, bw, attraction, a-b-db, 9, 2, 6, 5, 165, 90, 90, 165, 86, 157, 2, 0.767894
255, 3, bw, attraction, a-b-db, 9, 2, 6, 5, 165, 90, 90, 165, 86, 157, 1, 0.42421
255, 3, bw, filler, NA, 999, 999, 6, 6, 193, 107, 113, 110, 126, 185, 1, 0.700846
255, 3, bw, filler, NA, 999, 999, 6, 6, 193, 107, 113, 110, 126, 185, 2, 0.551858
255, 3, bw, attraction, a-b-db, 5, 2, 6, 7, 90, 165, 165, 90, 88, 161, 2, 0.927652
255, 3, bw, attraction, a-b-db, 5, 2, 6, 7, 90, 165, 165, 90, 88, 161, 1, 0.369362
255, 3, bw, attraction, a-b-db, 14, 2, 6, 8, 165, 90, 90, 165, 83, 153, 2, 1.86444
255, 3, bw, attraction, a-b-db, 14, 2, 6, 8, 165, 90, 90, 165, 83, 153, 3, 1.16455
255, 3, bw, attraction, a-b-da, 2, 2, 6, 9, 165, 90, 163, 89, 90, 165, 2, 1.36344
255, 3, bw, attraction, a-b-da, 2, 2, 6, 9, 165, 90, 163, 89, 90, 165, 3, 1.61171
255, 3, bw, catch, NA, 999, 999, 6, 10, 118, 77, 149, 166, 151, 104, 2, 0.608419
255, 3, bw, catch, NA, 999, 999, 6, 10, 118, 77, 149, 166, 151, 104, 1, 0.366888
255, 3, bw, filler, NA, 999, 999, 6, 11, 127, 168, 173, 120, 146, 72, 1, 1.17404
255, 3, bw, filler, NA, 999, 999, 6, 11, 127, 168, 173, 120, 146, 72, 3, 0.669733
255, 3, bw, filler, NA, 999, 999, 6, 12, 153, 66, 181, 73, 98, 144, 3, 0.904742
255, 3, bw, filler, NA, 999, 999, 6, 12, 153, 66, 181, 73, 98, 144, 1, 0.58704
255, 3, bw, filler, NA, 999, 999, 6, 13, 147, 121, 88, 104, 136, 123, 3, 1.15352
255, 3, bw, filler, NA, 999, 999, 6, 13, 147, 121, 88, 104, 136, 123, 2, 0.618496
255, 3, bw, attraction, a-b-da, 14, 1, 6, 14, 60, 135, 135, 60, 125, 56, 3, 0.951556
255, 3, bw, attraction, a-b-da, 14, 1, 6, 14, 60, 135, 135, 60, 125, 56, 1, 0.45665
255, 3, bw, filler, NA, 999, 999, 6, 15, 81, 148, 93, 94, 169, 183, 3, 0.467641
255, 3, bw, filler, NA, 999, 999, 6, 15, 81, 148, 93, 94, 169, 183, 2, 0.592237
255, 3, bw, attraction, a-b-db, 2, 2, 6, 16, 89, 163, 165, 90, 90, 165, 2, 0.645884
255, 3, bw, attraction, a-b-db, 2, 2, 6, 16, 89, 163, 165, 90, 90, 165, 1, 0.82702
255, 3, bw, attraction, a-b-da, 9, 2, 6, 17, 165, 90, 90, 165, 157, 86, 1, 3.3434
255, 3, bw, attraction, a-b-da, 9, 2, 6, 17, 165, 90, 90, 165, 157, 86, 3, 0.91169
255, 3, bw, filler, NA, 999, 999, 6, 18, 101, 143, 113, 137, 167, 186, 3, 0.640642
255, 3, bw, filler, NA, 999, 999, 6, 18, 101, 143, 113, 137, 167, 186, 1, 0.397744
255, 3, bw, attraction, a-b-db, 14, 1, 6, 19, 135, 60, 60, 135, 56, 125, 2, 1.77973
255, 3, bw, attraction, a-b-db, 14, 1, 6, 19, 135, 60, 60, 135, 56, 125, 3, 0.418964
255, 3, bw, attraction, a-b-da, 2, 1, 6, 20, 60, 135, 134, 59, 135, 60, 3, 1.07219
255, 3, bw, attraction, a-b-da, 2, 1, 6, 20, 60, 135, 134, 59, 135, 60, 2, 0.547843
255, 3, bw, attraction, a-b-db, 14, 3, 6, 21, 195, 120, 120, 195, 111, 181, 2, 1.03554
255, 3, bw, attraction, a-b-db, 14, 3, 6, 21, 195, 120, 120, 195, 111, 181, 3, 0.441184
255, 3, bw, attraction, a-b-da, 9, 3, 6, 22, 195, 120, 186, 114, 120, 195, 3, 1.08493
255, 3, bw, attraction, a-b-da, 9, 3, 6, 22, 195, 120, 186, 114, 120, 195, 2, 1.06465
255, 3, bw, attraction, a-b-da, 14, 3, 6, 23, 181, 111, 195, 120, 120, 195, 3, 0.755553
255, 3, bw, attraction, a-b-da, 14, 3, 6, 23, 181, 111, 195, 120, 120, 195, 1, 0.835895
255, 3, bw, catch, NA, 999, 999, 6, 24, 78, 117, 177, 138, 101, 154, 2, 0.888426
255, 3, bw, catch, NA, 999, 999, 6, 24, 78, 117, 177, 138, 101, 154, 1, 0.571285
255, 3, bw, attraction, a-b-db, 9, 3, 6, 25, 195, 120, 114, 186, 120, 195, 1, 1.68245
255, 3, bw, attraction, a-b-db, 9, 3, 6, 25, 195, 120, 114, 186, 120, 195, 2, 0.510112
255, 3, bw, filler, NA, 999, 999, 6, 26, 89, 73, 187, 195, 66, 167, 2, 0.463042
255, 3, bw, filler, NA, 999, 999, 6, 26, 89, 73, 187, 195, 66, 167, 1, 0.555597
255, 3, bw, attraction, a-b-da, 5, 2, 6, 27, 90, 165, 165, 90, 161, 88, 2, 3.52324
255, 3, bw, attraction, a-b-da, 5, 2, 6, 27, 90, 165, 165, 90, 161, 88, 1, 0.716076
255, 3, bw, attraction, a-b-da, 5, 3, 6, 28, 195, 120, 120, 195, 190, 117, 2, 1.06112
255, 3, bw, attraction, a-b-da, 5, 3, 6, 28, 195, 120, 120, 195, 190, 117, 1, 0.313938
255, 3, bw, attraction, a-b-da, 5, 1, 6, 29, 132, 58, 135, 60, 60, 135, 3, 0.738743
255, 3, bw, attraction, a-b-da, 5, 1, 6, 29, 132, 58, 135, 60, 60, 135, 2, 0.30768
255, 3, bw, attraction, a-b-db, 5, 1, 6, 30, 58, 132, 135, 60, 60, 135, 2, 1.26899
255, 3, bw, attraction, a-b-db, 5, 1, 6, 30, 58, 132, 135, 60, 60, 135, 3, 0.41714
255, 3, bw, filler, NA, 999, 999, 6, 31, 144, 183, 72, 102, 97, 149, 1, 0.606263
255, 3, bw, filler, NA, 999, 999, 6, 31, 144, 183, 72, 102, 97, 149, 2, 0.460932
255, 3, bw, attraction, a-b-db, 5, 3, 6, 32, 120, 195, 117, 190, 195, 120, 3, 0.815832
255, 3, bw, attraction, a-b-db, 5, 3, 6, 32, 120, 195, 117, 190, 195, 120, 2, 0.510249
255, 3, bw, attraction, a-b-db, 9, 1, 6, 33, 135, 60, 57, 129, 60, 135, 2, 0.735377
255, 3, bw, attraction, a-b-db, 9, 1, 6, 33, 135, 60, 57, 129, 60, 135, 1, 0.537243
255, 3, bw, filler, NA, 999, 999, 6, 34, 186, 74, 95, 65, 61, 167, 1, 0.585528
255, 3, bw, filler, NA, 999, 999, 6, 34, 186, 74, 95, 65, 61, 167, 2, 0.385328
255, 3, bw, attraction, a-b-db, 2, 3, 6, 35, 195, 120, 120, 195, 119, 193, 2, 1.31184
255, 3, bw, attraction, a-b-db, 2, 3, 6, 35, 195, 120, 120, 195, 119, 193, 1, 0.778083
255, 3, bw, attraction, a-b-da, 14, 2, 6, 36, 165, 90, 153, 83, 90, 165, 2, 1.70457
255, 3, bw, attraction, a-b-da, 14, 2, 6, 36, 165, 90, 153, 83, 90, 165, 1, 0.683237
255, 3, bw, catch, NA, 999, 999, 6, 37, 125, 70, 177, 138, 163, 92, 2, 0.565662
255, 3, bw, catch, NA, 999, 999, 6, 37, 125, 70, 177, 138, 163, 92, 1, 0.397994
255, 3, bw, attraction, a-b-db, 14, 2, 7, 1, 165, 90, 90, 165, 83, 153, 2, 1.78786
255, 3, bw, attraction, a-b-db, 14, 2, 7, 1, 165, 90, 90, 165, 83, 153, 3, 0.403411
255, 3, bw, attraction, a-b-db, 9, 3, 7, 2, 114, 186, 120, 195, 195, 120, 2, 1.27316
255, 3, bw, attraction, a-b-db, 9, 3, 7, 2, 114, 186, 120, 195, 195, 120, 1, 0.508638
255, 3, bw, attraction, a-b-da, 5, 2, 7, 3, 165, 90, 161, 88, 90, 165, 2, 1.03781
255, 3, bw, attraction, a-b-da, 5, 2, 7, 3, 165, 90, 161, 88, 90, 165, 3, 0.690749
255, 3, bw, attraction, a-b-db, 2, 1, 7, 4, 59, 134, 135, 60, 60, 135, 2, 0.468463
255, 3, bw, attraction, a-b-db, 2, 1, 7, 4, 59, 134, 135, 60, 60, 135, 1, 0.720956
255, 3, bw, catch, NA, 999, 999, 7, 5, 120, 135, 138, 177, 102, 93, 2, 0.42609
255, 3, bw, catch, NA, 999, 999, 7, 5, 120, 135, 138, 177, 102, 93, 3, 0.68002
255, 3, bw, attraction, a-b-db, 2, 3, 7, 6, 195, 120, 120, 195, 119, 193, 2, 0.53023
255, 3, bw, attraction, a-b-db, 2, 3, 7, 6, 195, 120, 120, 195, 119, 193, 3, 1.6522
255, 3, bw, attraction, a-b-da, 5, 1, 7, 7, 132, 58, 135, 60, 60, 135, 2, 0.831563
255, 3, bw, attraction, a-b-da, 5, 1, 7, 7, 132, 58, 135, 60, 60, 135, 3, 0.909329
255, 3, bw, filler, NA, 999, 999, 7, 8, 96, 142, 190, 90, 166, 174, 3, 0.854169
255, 3, bw, filler, NA, 999, 999, 7, 8, 96, 142, 190, 90, 166, 174, 1, 0.691355
255, 3, bw, catch, NA, 999, 999, 7, 9, 160, 155, 98, 157, 107, 88, 1, 0.997024
255, 3, bw, catch, NA, 999, 999, 7, 9, 160, 155, 98, 157, 107, 88, 3, 0.53996
255, 3, bw, attraction, a-b-db, 9, 1, 7, 10, 135, 60, 60, 135, 57, 129, 1, 1.63645
255, 3, bw, attraction, a-b-db, 9, 1, 7, 10, 135, 60, 60, 135, 57, 129, 3, 0.473865
255, 3, bw, filler, NA, 999, 999, 7, 11, 108, 61, 82, 171, 192, 172, 3, 0.612416
255, 3, bw, filler, NA, 999, 999, 7, 11, 108, 61, 82, 171, 192, 172, 1, 0.635016
255, 3, bw, catch, NA, 999, 999, 7, 12, 151, 104, 129, 66, 163, 152, 3, 0.927318
255, 3, bw, catch, NA, 999, 999, 7, 12, 151, 104, 129, 66, 163, 152, 2, 0.624945
255, 3, bw, attraction, a-b-db, 2, 2, 7, 13, 89, 163, 165, 90, 90, 165, 2, 1.07731
255, 3, bw, attraction, a-b-db, 2, 2, 7, 13, 89, 163, 165, 90, 90, 165, 1, 1.44087
255, 3, bw, filler, NA, 999, 999, 7, 14, 175, 75, 152, 124, 157, 123, 2, 2.83645
255, 3, bw, filler, NA, 999, 999, 7, 14, 175, 75, 152, 124, 157, 123, 1, 0.377536
255, 3, bw, filler, NA, 999, 999, 7, 15, 78, 131, 130, 151, 180, 165, 3, 0.576057
255, 3, bw, filler, NA, 999, 999, 7, 15, 78, 131, 130, 151, 180, 165, 1, 0.775746
255, 3, bw, filler, NA, 999, 999, 7, 16, 138, 134, 176, 83, 124, 71, 1, 1.07013
255, 3, bw, filler, NA, 999, 999, 7, 16, 138, 134, 176, 83, 124, 71, 3, 0.642533
255, 3, bw, attraction, a-b-da, 9, 2, 7, 17, 90, 165, 165, 90, 157, 86, 1, 1.63821
255, 3, bw, attraction, a-b-da, 9, 2, 7, 17, 90, 165, 165, 90, 157, 86, 3, 0.523161
255, 3, bw, attraction, a-b-da, 2, 2, 7, 18, 163, 89, 90, 165, 165, 90, 3, 2.22021
255, 3, bw, attraction, a-b-da, 2, 2, 7, 18, 163, 89, 90, 165, 165, 90, 1, 0.54612
255, 3, bw, attraction, a-b-da, 14, 3, 7, 19, 181, 111, 120, 195, 195, 120, 2, 2.22586
255, 3, bw, attraction, a-b-da, 14, 3, 7, 19, 181, 111, 120, 195, 195, 120, 1, 0.335118
255, 3, bw, attraction, a-b-da, 9, 3, 7, 20, 186, 114, 195, 120, 120, 195, 2, 6.97584
255, 3, bw, attraction, a-b-da, 9, 3, 7, 20, 186, 114, 195, 120, 120, 195, 1, 0.733502
255, 3, bw, filler, NA, 999, 999, 7, 21, 112, 169, 147, 178, 115, 138, 2, 1.79786
255, 3, bw, filler, NA, 999, 999, 7, 21, 112, 169, 147, 178, 115, 138, 3, 0.820504
255, 3, bw, filler, NA, 999, 999, 7, 22, 123, 159, 79, 168, 182, 150, 3, 0.777591
255, 3, bw, filler, NA, 999, 999, 7, 22, 123, 159, 79, 168, 182, 150, 2, 0.441337
255, 3, bw, attraction, a-b-db, 14, 3, 7, 23, 195, 120, 120, 195, 111, 181, 1, 0.645015
255, 3, bw, attraction, a-b-db, 14, 3, 7, 23, 195, 120, 120, 195, 111, 181, 3, 0.386212
255, 3, bw, attraction, a-b-da, 2, 3, 7, 24, 120, 195, 195, 120, 193, 119, 3, 1.03266
255, 3, bw, attraction, a-b-da, 2, 3, 7, 24, 120, 195, 195, 120, 193, 119, 2, 0.734442
255, 3, bw, attraction, a-b-da, 9, 1, 7, 25, 135, 60, 129, 57, 60, 135, 1, 0.814711
255, 3, bw, attraction, a-b-da, 9, 1, 7, 25, 135, 60, 129, 57, 60, 135, 3, 0.373166
255, 3, bw, attraction, a-b-db, 5, 1, 7, 26, 60, 135, 135, 60, 58, 132, 1, 1.37224
255, 3, bw, attraction, a-b-db, 5, 1, 7, 26, 60, 135, 135, 60, 58, 132, 2, 0.435827
255, 3, bw, attraction, a-b-db, 5, 3, 7, 27, 120, 195, 117, 190, 195, 120, 3, 2.66434
255, 3, bw, attraction, a-b-db, 5, 3, 7, 27, 120, 195, 117, 190, 195, 120, 2, 0.324079
255, 3, bw, attraction, a-b-da, 14, 1, 7, 28, 135, 60, 125, 56, 60, 135, 3, 0.812602
255, 3, bw, attraction, a-b-da, 14, 1, 7, 28, 135, 60, 125, 56, 60, 135, 2, 0.491022
255, 3, bw, attraction, a-b-da, 14, 2, 7, 29, 153, 83, 90, 165, 165, 90, 2, 1.81286
255, 3, bw, attraction, a-b-da, 14, 2, 7, 29, 153, 83, 90, 165, 165, 90, 3, 0.426855
255, 3, bw, filler, NA, 999, 999, 7, 30, 99, 98, 126, 142, 124, 172, 3, 0.895302
255, 3, bw, filler, NA, 999, 999, 7, 30, 99, 98, 126, 142, 124, 172, 1, 0.62633
255, 3, bw, attraction, a-b-db, 14, 1, 7, 31, 135, 60, 56, 125, 60, 135, 1, 0.926741
255, 3, bw, attraction, a-b-db, 14, 1, 7, 31, 135, 60, 56, 125, 60, 135, 3, 0.864509
255, 3, bw, filler, NA, 999, 999, 7, 32, 142, 98, 74, 187, 158, 132, 3, 2.57949
255, 3, bw, filler, NA, 999, 999, 7, 32, 142, 98, 74, 187, 158, 132, 1, 0.602644
255, 3, bw, attraction, a-b-db, 5, 2, 7, 33, 90, 165, 165, 90, 88, 161, 1, 4.18434
255, 3, bw, attraction, a-b-db, 5, 2, 7, 33, 90, 165, 165, 90, 88, 161, 2, 1.41504
255, 3, bw, attraction, a-b-da, 5, 3, 7, 34, 190, 117, 195, 120, 120, 195, 2, 3.00384
255, 3, bw, attraction, a-b-da, 5, 3, 7, 34, 190, 117, 195, 120, 120, 195, 3, 0.50634
255, 3, bw, attraction, a-b-da, 2, 1, 7, 35, 60, 135, 135, 60, 134, 59, 2, 2.04396
255, 3, bw, attraction, a-b-da, 2, 1, 7, 35, 60, 135, 135, 60, 134, 59, 1, 0.328755
255, 3, bw, filler, NA, 999, 999, 7, 36, 166, 149, 192, 76, 65, 61, 1, 0.641161
255, 3, bw, filler, NA, 999, 999, 7, 36, 166, 149, 192, 76, 65, 61, 3, 0.390503
255, 3, bw, attraction, a-b-db, 9, 2, 7, 37, 86, 157, 90, 165, 165, 90, 3, 0.84414
255, 3, bw, attraction, a-b-db, 9, 2, 7, 37, 86, 157, 90, 165, 165, 90, 1, 0.41722
255, 3, bw, attraction, a-b-db, 9, 3, 8, 1, 120, 195, 114, 186, 195, 120, 3, 1.63026
255, 3, bw, attraction, a-b-db, 9, 3, 8, 1, 120, 195, 114, 186, 195, 120, 2, 0.315861
255, 3, bw, attraction, a-b-da, 5, 3, 8, 2, 190, 117, 195, 120, 120, 195, 1, 2.49286
255, 3, bw, attraction, a-b-da, 5, 3, 8, 2, 190, 117, 195, 120, 120, 195, 3, 0.607525
255, 3, bw, filler, NA, 999, 999, 8, 3, 154, 77, 128, 162, 59, 176, 2, 0.708504
255, 3, bw, filler, NA, 999, 999, 8, 3, 154, 77, 128, 162, 59, 176, 3, 1.67901
255, 3, bw, filler, NA, 999, 999, 8, 4, 121, 114, 60, 81, 139, 184, 3, 0.945008
255, 3, bw, filler, NA, 999, 999, 8, 4, 121, 114, 60, 81, 139, 184, 2, 0.649998
255, 3, bw, attraction, a-b-db, 9, 1, 8, 5, 135, 60, 57, 129, 60, 135, 2, 1.46988
255, 3, bw, attraction, a-b-db, 9, 1, 8, 5, 135, 60, 57, 129, 60, 135, 1, 0.68211
255, 3, bw, filler, NA, 999, 999, 8, 6, 82, 86, 154, 148, 59, 160, 2, 3.4764
255, 3, bw, filler, NA, 999, 999, 8, 6, 82, 86, 154, 148, 59, 160, 1, 0.615226
255, 3, bw, attraction, a-b-da, 14, 1, 8, 7, 135, 60, 125, 56, 60, 135, 1, 1.30835
255, 3, bw, attraction, a-b-da, 14, 1, 8, 7, 135, 60, 125, 56, 60, 135, 3, 0.542617
255, 3, bw, attraction, a-b-da, 14, 3, 8, 8, 120, 195, 181, 111, 195, 120, 3, 0.7823
255, 3, bw, attraction, a-b-da, 14, 3, 8, 8, 120, 195, 181, 111, 195, 120, 2, 0.526119
255, 3, bw, attraction, a-b-da, 14, 2, 8, 9, 165, 90, 90, 165, 153, 83, 2, 0.830534
255, 3, bw, attraction, a-b-da, 14, 2, 8, 9, 165, 90, 90, 165, 153, 83, 1, 0.364208
255, 3, bw, attraction, a-b-da, 9, 2, 8, 10, 90, 165, 157, 86, 165, 90, 2, 1.05933
255, 3, bw, attraction, a-b-da, 9, 2, 8, 10, 90, 165, 157, 86, 165, 90, 3, 0.303735
255, 3, bw, attraction, a-b-da, 9, 3, 8, 11, 195, 120, 120, 195, 186, 114, 2, 0.545549
255, 3, bw, attraction, a-b-da, 9, 3, 8, 11, 195, 120, 120, 195, 186, 114, 1, 0.498655
255, 3, bw, attraction, a-b-db, 5, 2, 8, 12, 90, 165, 88, 161, 165, 90, 2, 0.948522
255, 3, bw, attraction, a-b-db, 5, 2, 8, 12, 90, 165, 88, 161, 165, 90, 1, 0.525608
255, 3, bw, attraction, a-b-db, 14, 1, 8, 13, 60, 135, 135, 60, 56, 125, 2, 0.893928
255, 3, bw, attraction, a-b-db, 14, 1, 8, 13, 60, 135, 135, 60, 56, 125, 3, 0.297071
255, 3, bw, filler, NA, 999, 999, 8, 14, 99, 69, 146, 195, 134, 74, 2, 0.514697
255, 3, bw, filler, NA, 999, 999, 8, 14, 99, 69, 146, 195, 134, 74, 1, 0.405335
255, 3, bw, filler, NA, 999, 999, 8, 15, 99, 167, 88, 100, 184, 83, 3, 0.731143
255, 3, bw, filler, NA, 999, 999, 8, 15, 99, 167, 88, 100, 184, 83, 2, 1.99677
255, 3, bw, attraction, a-b-db, 2, 3, 8, 16, 195, 120, 119, 193, 120, 195, 2, 0.730102
255, 3, bw, attraction, a-b-db, 2, 3, 8, 16, 195, 120, 119, 193, 120, 195, 3, 0.491949
255, 3, bw, attraction, a-b-db, 14, 2, 8, 17, 90, 165, 83, 153, 165, 90, 1, 2.48558
255, 3, bw, attraction, a-b-db, 14, 2, 8, 17, 90, 165, 83, 153, 165, 90, 2, 0.63306
255, 3, bw, filler, NA, 999, 999, 8, 18, 169, 110, 97, 194, 62, 95, 1, 1.17332
255, 3, bw, filler, NA, 999, 999, 8, 18, 169, 110, 97, 194, 62, 95, 3, 0.837059
255, 3, bw, attraction, a-b-db, 14, 3, 8, 19, 111, 181, 195, 120, 120, 195, 3, 0.673291
255, 3, bw, attraction, a-b-db, 14, 3, 8, 19, 111, 181, 195, 120, 120, 195, 1, 0.316977
255, 3, bw, filler, NA, 999, 999, 8, 20, 186, 195, 85, 63, 131, 171, 1, 0.494127
255, 3, bw, filler, NA, 999, 999, 8, 20, 186, 195, 85, 63, 131, 171, 2, 0.489371
255, 3, bw, attraction, a-b-db, 2, 1, 8, 21, 59, 134, 60, 135, 135, 60, 3, 0.947798
255, 3, bw, attraction, a-b-db, 2, 1, 8, 21, 59, 134, 60, 135, 135, 60, 1, 0.572745
255, 3, bw, catch, NA, 999, 999, 8, 22, 144, 111, 123, 192, 100, 95, 2, 0.515939
255, 3, bw, catch, NA, 999, 999, 8, 22, 144, 111, 123, 192, 100, 95, 3, 0.374398
255, 3, bw, attraction, a-b-da, 2, 1, 8, 23, 135, 60, 60, 135, 134, 59, 1, 0.956966
255, 3, bw, attraction, a-b-da, 2, 1, 8, 23, 135, 60, 60, 135, 134, 59, 2, 0.397213
255, 3, bw, attraction, a-b-da, 2, 3, 8, 24, 195, 120, 193, 119, 120, 195, 2, 5.79513
255, 3, bw, attraction, a-b-da, 2, 3, 8, 24, 195, 120, 193, 119, 120, 195, 1, 0.592452
255, 3, bw, filler, NA, 999, 999, 8, 25, 188, 73, 174, 129, 98, 177, 2, 0.446229
255, 3, bw, filler, NA, 999, 999, 8, 25, 188, 73, 174, 129, 98, 177, 1, 0.507424
255, 3, bw, attraction, a-b-da, 5, 2, 8, 26, 161, 88, 90, 165, 165, 90, 3, 0.876586
255, 3, bw, attraction, a-b-da, 5, 2, 8, 26, 161, 88, 90, 165, 165, 90, 2, 0.592257
255, 3, bw, filler, NA, 999, 999, 8, 27, 83, 166, 143, 68, 114, 126, 3, 1.70216
255, 3, bw, filler, NA, 999, 999, 8, 27, 83, 166, 143, 68, 114, 126, 2, 0.400858
255, 3, bw, attraction, a-b-db, 2, 2, 8, 28, 90, 165, 89, 163, 165, 90, 2, 1.06272
255, 3, bw, attraction, a-b-db, 2, 2, 8, 28, 90, 165, 89, 163, 165, 90, 1, 0.650912
255, 3, bw, catch, NA, 999, 999, 8, 29, 103, 92, 150, 105, 161, 154, 2, 0.646752
255, 3, bw, catch, NA, 999, 999, 8, 29, 103, 92, 150, 105, 161, 154, 1, 0.683924
255, 3, bw, attraction, a-b-db, 9, 2, 8, 30, 165, 90, 90, 165, 86, 157, 2, 0.854218
255, 3, bw, attraction, a-b-db, 9, 2, 8, 30, 165, 90, 90, 165, 86, 157, 3, 0.411234
255, 3, bw, attraction, a-b-da, 5, 1, 8, 31, 60, 135, 135, 60, 132, 58, 1, 0.744301
255, 3, bw, attraction, a-b-da, 5, 1, 8, 31, 60, 135, 135, 60, 132, 58, 3, 0.52143
255, 3, bw, attraction, a-b-da, 2, 2, 8, 32, 165, 90, 90, 165, 163, 89, 2, 2.59457
255, 3, bw, attraction, a-b-da, 2, 2, 8, 32, 165, 90, 90, 165, 163, 89, 1, 0.288998
255, 3, bw, catch, NA, 999, 999, 8, 33, 150, 105, 107, 88, 158, 157, 3, 0.603658
255, 3, bw, catch, NA, 999, 999, 8, 33, 150, 105, 107, 88, 158, 157, 2, 0.514655
255, 3, bw, attraction, a-b-db, 5, 3, 8, 34, 195, 120, 117, 190, 120, 195, 2, 1.41983
255, 3, bw, attraction, a-b-db, 5, 3, 8, 34, 195, 120, 117, 190, 120, 195, 3, 0.353914
255, 3, bw, attraction, a-b-db, 5, 1, 8, 35, 135, 60, 58, 132, 60, 135, 1, 0.90574
255, 3, bw, attraction, a-b-db, 5, 1, 8, 35, 135, 60, 58, 132, 60, 135, 3, 0.748114
255, 3, bw, attraction, a-b-da, 9, 1, 8, 36, 135, 60, 129, 57, 60, 135, 1, 4.75585
255, 3, bw, attraction, a-b-da, 9, 1, 8, 36, 135, 60, 129, 57, 60, 135, 2, 0.691102
255, 3, bw, filler, NA, 999, 999, 8, 37, 185, 159, 187, 63, 171, 96, 1, 0.940796
255, 3, bw, filler, NA, 999, 999, 8, 37, 185, 159, 187, 63, 171, 96, 2, 0.357759
