sub_n, computer_n, bw_cond, effect, set, distance, diag, block_n, trial_n, h1, w1, h2, w2, h3, w3, choice, rt 
289, 3, bw, practice, NA, 999, 999, 0, 1, 128, 89, 73, 147, 125, 92, 3, 9.01187
289, 3, bw, practice, NA, 999, 999, 0, 1, 128, 89, 73, 147, 125, 92, 2, 8.99073
289, 3, bw, practice, NA, 999, 999, 0, 2, 62, 81, 126, 81, 195, 56, 3, 19.6464
289, 3, bw, practice, NA, 999, 999, 0, 2, 62, 81, 126, 81, 195, 56, 1, 1.54132
289, 3, bw, practice, NA, 999, 999, 0, 3, 190, 74, 69, 85, 119, 72, 1, 2.21199
289, 3, bw, practice, NA, 999, 999, 0, 3, 190, 74, 69, 85, 119, 72, 2, 1.13655
289, 3, bw, attraction, a-b-db, 14, 2, 1, 1, 165, 90, 90, 165, 83, 153, 1, 4.88194
289, 3, bw, attraction, a-b-db, 14, 2, 1, 1, 165, 90, 90, 165, 83, 153, 3, 0.892542
289, 3, bw, filler, NA, 999, 999, 1, 2, 124, 129, 79, 68, 153, 189, 3, 1.39814
289, 3, bw, filler, NA, 999, 999, 1, 2, 124, 129, 79, 68, 153, 189, 2, 1.229
289, 3, bw, attraction, a-b-db, 9, 1, 1, 3, 57, 129, 135, 60, 60, 135, 2, 3.80113
289, 3, bw, attraction, a-b-db, 9, 1, 1, 3, 57, 129, 135, 60, 60, 135, 1, 1.26326
289, 3, bw, attraction, a-b-da, 14, 1, 1, 4, 60, 135, 135, 60, 125, 56, 1, 2.03415
289, 3, bw, attraction, a-b-da, 14, 1, 1, 4, 60, 135, 135, 60, 125, 56, 3, 1.18357
289, 3, bw, attraction, a-b-da, 2, 3, 1, 5, 120, 195, 193, 119, 195, 120, 2, 2.71785
289, 3, bw, attraction, a-b-da, 2, 3, 1, 5, 120, 195, 193, 119, 195, 120, 3, 1.67163
289, 3, bw, attraction, a-b-da, 9, 2, 1, 6, 165, 90, 90, 165, 157, 86, 1, 2.53032
289, 3, bw, attraction, a-b-da, 9, 2, 1, 6, 165, 90, 90, 165, 157, 86, 3, 0.67562
289, 3, bw, attraction, a-b-db, 5, 3, 1, 7, 120, 195, 195, 120, 117, 190, 1, 2.81402
289, 3, bw, attraction, a-b-db, 5, 3, 1, 7, 120, 195, 195, 120, 117, 190, 3, 0.843635
289, 3, bw, attraction, a-b-da, 14, 3, 1, 8, 120, 195, 181, 111, 195, 120, 3, 1.64728
289, 3, bw, attraction, a-b-da, 14, 3, 1, 8, 120, 195, 181, 111, 195, 120, 2, 0.940196
289, 3, bw, attraction, a-b-da, 2, 1, 1, 9, 135, 60, 134, 59, 60, 135, 1, 11.0599
289, 3, bw, attraction, a-b-da, 2, 1, 1, 9, 135, 60, 134, 59, 60, 135, 2, 0.890314
289, 3, bw, attraction, a-b-db, 9, 3, 1, 10, 120, 195, 114, 186, 195, 120, 3, 3.02263
289, 3, bw, attraction, a-b-db, 9, 3, 1, 10, 120, 195, 114, 186, 195, 120, 2, 0.771607
289, 3, bw, attraction, a-b-da, 2, 2, 1, 11, 90, 165, 163, 89, 165, 90, 2, 3.58677
289, 3, bw, attraction, a-b-da, 2, 2, 1, 11, 90, 165, 163, 89, 165, 90, 1, 0.865584
289, 3, bw, attraction, a-b-db, 14, 1, 1, 12, 135, 60, 56, 125, 60, 135, 1, 3.67648
289, 3, bw, attraction, a-b-db, 14, 1, 1, 12, 135, 60, 56, 125, 60, 135, 2, 0.799367
289, 3, bw, attraction, a-b-db, 9, 2, 1, 13, 90, 165, 86, 157, 165, 90, 1, 3.21316
289, 3, bw, attraction, a-b-db, 9, 2, 1, 13, 90, 165, 86, 157, 165, 90, 2, 0.626771
289, 3, bw, attraction, a-b-da, 5, 2, 1, 14, 161, 88, 165, 90, 90, 165, 2, 2.15915
289, 3, bw, attraction, a-b-da, 5, 2, 1, 14, 161, 88, 165, 90, 90, 165, 1, 0.607132
289, 3, bw, attraction, a-b-db, 2, 1, 1, 15, 60, 135, 135, 60, 59, 134, 1, 2.5882
289, 3, bw, attraction, a-b-db, 2, 1, 1, 15, 60, 135, 135, 60, 59, 134, 2, 2.2427
289, 3, bw, filler, NA, 999, 999, 1, 16, 178, 107, 77, 184, 89, 63, 1, 1.65389
289, 3, bw, filler, NA, 999, 999, 1, 16, 178, 107, 77, 184, 89, 63, 3, 1.2987
289, 3, bw, catch, NA, 999, 999, 1, 17, 139, 176, 78, 117, 143, 112, 1, 1.22013
289, 3, bw, catch, NA, 999, 999, 1, 17, 139, 176, 78, 117, 143, 112, 2, 1.16246
289, 3, bw, catch, NA, 999, 999, 1, 18, 123, 192, 103, 92, 126, 129, 1, 1.53734
289, 3, bw, catch, NA, 999, 999, 1, 18, 123, 192, 103, 92, 126, 129, 2, 0.986839
289, 3, bw, attraction, a-b-db, 14, 3, 1, 19, 111, 181, 195, 120, 120, 195, 2, 1.75318
289, 3, bw, attraction, a-b-db, 14, 3, 1, 19, 111, 181, 195, 120, 120, 195, 1, 0.889981
289, 3, bw, attraction, a-b-da, 14, 2, 1, 20, 165, 90, 90, 165, 153, 83, 1, 3.2522
289, 3, bw, attraction, a-b-da, 14, 2, 1, 20, 165, 90, 90, 165, 153, 83, 3, 1.08874
289, 3, bw, attraction, a-b-db, 2, 3, 1, 21, 119, 193, 120, 195, 195, 120, 3, 8.65079
289, 3, bw, attraction, a-b-db, 2, 3, 1, 21, 119, 193, 120, 195, 195, 120, 2, 0.973393
289, 3, bw, filler, NA, 999, 999, 1, 22, 101, 96, 151, 190, 188, 190, 3, 1.89241
289, 3, bw, filler, NA, 999, 999, 1, 22, 101, 96, 151, 190, 188, 190, 1, 0.607061
289, 3, bw, attraction, a-b-db, 5, 1, 1, 23, 60, 135, 135, 60, 58, 132, 1, 2.19621
289, 3, bw, attraction, a-b-db, 5, 1, 1, 23, 60, 135, 135, 60, 58, 132, 3, 0.802853
289, 3, bw, attraction, a-b-da, 5, 3, 1, 24, 195, 120, 120, 195, 190, 117, 2, 2.78452
289, 3, bw, attraction, a-b-da, 5, 3, 1, 24, 195, 120, 120, 195, 190, 117, 3, 0.759571
289, 3, bw, filler, NA, 999, 999, 1, 25, 190, 179, 122, 58, 72, 87, 1, 0.918587
289, 3, bw, filler, NA, 999, 999, 1, 25, 190, 179, 122, 58, 72, 87, 2, 22.1211
289, 3, bw, filler, NA, 999, 999, 1, 26, 160, 150, 71, 94, 174, 123, 1, 1.95542
289, 3, bw, filler, NA, 999, 999, 1, 26, 160, 150, 71, 94, 174, 123, 2, 0.47533
289, 3, bw, filler, NA, 999, 999, 1, 27, 186, 161, 183, 104, 62, 153, 1, 1.34979
289, 3, bw, filler, NA, 999, 999, 1, 27, 186, 161, 183, 104, 62, 153, 3, 0.9187
289, 3, bw, attraction, a-b-db, 5, 2, 1, 28, 88, 161, 165, 90, 90, 165, 3, 3.06369
289, 3, bw, attraction, a-b-db, 5, 2, 1, 28, 88, 161, 165, 90, 90, 165, 1, 0.755427
289, 3, bw, attraction, a-b-db, 2, 2, 1, 29, 89, 163, 90, 165, 165, 90, 3, 4.88308
289, 3, bw, attraction, a-b-db, 2, 2, 1, 29, 89, 163, 90, 165, 165, 90, 1, 0.725526
289, 3, bw, filler, NA, 999, 999, 1, 30, 77, 58, 161, 111, 157, 188, 3, 1.39791
289, 3, bw, filler, NA, 999, 999, 1, 30, 77, 58, 161, 111, 157, 188, 1, 0.516869
289, 3, bw, attraction, a-b-da, 9, 1, 1, 31, 60, 135, 135, 60, 129, 57, 1, 4.46198
289, 3, bw, attraction, a-b-da, 9, 1, 1, 31, 60, 135, 135, 60, 129, 57, 2, 1.52925
289, 3, bw, attraction, a-b-da, 5, 1, 1, 32, 60, 135, 132, 58, 135, 60, 1, 3.62528
289, 3, bw, attraction, a-b-da, 5, 1, 1, 32, 60, 135, 132, 58, 135, 60, 2, 0.478146
289, 3, bw, filler, NA, 999, 999, 1, 33, 81, 62, 182, 117, 191, 61, 2, 1.22459
289, 3, bw, filler, NA, 999, 999, 1, 33, 81, 62, 182, 117, 191, 61, 1, 0.726118
289, 3, bw, catch, NA, 999, 999, 1, 34, 164, 151, 117, 78, 90, 165, 1, 1.31063
289, 3, bw, catch, NA, 999, 999, 1, 34, 164, 151, 117, 78, 90, 165, 2, 0.680973
289, 3, bw, filler, NA, 999, 999, 1, 35, 91, 64, 139, 161, 150, 170, 2, 1.91537
289, 3, bw, filler, NA, 999, 999, 1, 35, 91, 64, 139, 161, 150, 170, 1, 0.597252
289, 3, bw, attraction, a-b-da, 9, 3, 1, 36, 120, 195, 186, 114, 195, 120, 3, 2.75507
289, 3, bw, attraction, a-b-da, 9, 3, 1, 36, 120, 195, 186, 114, 195, 120, 1, 0.562717
289, 3, bw, filler, NA, 999, 999, 1, 37, 193, 183, 173, 114, 166, 177, 1, 1.12176
289, 3, bw, filler, NA, 999, 999, 1, 37, 193, 183, 173, 114, 166, 177, 2, 1.60356
289, 3, bw, filler, NA, 999, 999, 2, 1, 136, 80, 188, 167, 179, 123, 2, 3.06493
289, 3, bw, filler, NA, 999, 999, 2, 1, 136, 80, 188, 167, 179, 123, 1, 0.836584
289, 3, bw, attraction, a-b-db, 2, 1, 2, 2, 135, 60, 59, 134, 60, 135, 1, 3.99289
289, 3, bw, attraction, a-b-db, 2, 1, 2, 2, 135, 60, 59, 134, 60, 135, 2, 0.559092
289, 3, bw, filler, NA, 999, 999, 2, 3, 89, 142, 84, 168, 111, 123, 2, 5.6302
289, 3, bw, filler, NA, 999, 999, 2, 3, 89, 142, 84, 168, 111, 123, 1, 1.36236
289, 3, bw, filler, NA, 999, 999, 2, 4, 154, 98, 82, 188, 101, 148, 2, 10.6892
289, 3, bw, filler, NA, 999, 999, 2, 4, 154, 98, 82, 188, 101, 148, 3, 0.593892
289, 3, bw, filler, NA, 999, 999, 2, 5, 157, 194, 118, 186, 123, 84, 1, 1.23155
289, 3, bw, filler, NA, 999, 999, 2, 5, 157, 194, 118, 186, 123, 84, 3, 0.549206
289, 3, bw, filler, NA, 999, 999, 2, 6, 130, 94, 179, 119, 110, 181, 2, 3.98093
289, 3, bw, filler, NA, 999, 999, 2, 6, 130, 94, 179, 119, 110, 181, 1, 0.371637
289, 3, bw, catch, NA, 999, 999, 2, 7, 98, 157, 162, 153, 83, 112, 2, 2.59486
289, 3, bw, catch, NA, 999, 999, 2, 7, 98, 157, 162, 153, 83, 112, 3, 0.513317
289, 3, bw, attraction, a-b-da, 5, 3, 2, 8, 195, 120, 190, 117, 120, 195, 1, 1.85036
289, 3, bw, attraction, a-b-da, 5, 3, 2, 8, 195, 120, 190, 117, 120, 195, 3, 0.647099
289, 3, bw, attraction, a-b-da, 14, 2, 2, 9, 165, 90, 90, 165, 153, 83, 1, 1.84298
289, 3, bw, attraction, a-b-da, 14, 2, 2, 9, 165, 90, 90, 165, 153, 83, 3, 0.735706
289, 3, bw, attraction, a-b-db, 9, 3, 2, 10, 195, 120, 114, 186, 120, 195, 1, 1.67995
289, 3, bw, attraction, a-b-db, 9, 3, 2, 10, 195, 120, 114, 186, 120, 195, 2, 0.571444
289, 3, bw, catch, NA, 999, 999, 2, 11, 87, 108, 95, 160, 171, 144, 3, 1.45867
289, 3, bw, catch, NA, 999, 999, 2, 11, 87, 108, 95, 160, 171, 144, 1, 0.574723
289, 3, bw, attraction, a-b-db, 5, 2, 2, 12, 165, 90, 90, 165, 88, 161, 2, 4.38913
289, 3, bw, attraction, a-b-db, 5, 2, 2, 12, 165, 90, 90, 165, 88, 161, 3, 1.37906
289, 3, bw, attraction, a-b-db, 9, 2, 2, 13, 165, 90, 90, 165, 86, 157, 2, 3.96128
289, 3, bw, attraction, a-b-db, 9, 2, 2, 13, 165, 90, 90, 165, 86, 157, 3, 0.392727
289, 3, bw, attraction, a-b-da, 14, 3, 2, 14, 195, 120, 120, 195, 181, 111, 1, 1.06263
289, 3, bw, attraction, a-b-da, 14, 3, 2, 14, 195, 120, 120, 195, 181, 111, 3, 0.882764
289, 3, bw, filler, NA, 999, 999, 2, 15, 64, 97, 168, 128, 158, 170, 3, 1.74109
289, 3, bw, filler, NA, 999, 999, 2, 15, 64, 97, 168, 128, 158, 170, 1, 0.597854
289, 3, bw, attraction, a-b-da, 9, 3, 2, 16, 186, 114, 195, 120, 120, 195, 2, 1.98765
289, 3, bw, attraction, a-b-da, 9, 3, 2, 16, 186, 114, 195, 120, 120, 195, 1, 0.562945
289, 3, bw, attraction, a-b-db, 14, 3, 2, 17, 111, 181, 120, 195, 195, 120, 3, 1.41806
289, 3, bw, attraction, a-b-db, 14, 3, 2, 17, 111, 181, 120, 195, 195, 120, 1, 0.600288
289, 3, bw, attraction, a-b-db, 5, 1, 2, 18, 60, 135, 58, 132, 135, 60, 3, 8.83805
289, 3, bw, attraction, a-b-db, 5, 1, 2, 18, 60, 135, 58, 132, 135, 60, 2, 1.1214
289, 3, bw, attraction, a-b-da, 2, 1, 2, 19, 134, 59, 60, 135, 135, 60, 3, 2.33815
289, 3, bw, attraction, a-b-da, 2, 1, 2, 19, 134, 59, 60, 135, 135, 60, 2, 1.41873
289, 3, bw, attraction, a-b-da, 14, 1, 2, 20, 60, 135, 135, 60, 125, 56, 2, 2.87159
289, 3, bw, attraction, a-b-da, 14, 1, 2, 20, 60, 135, 135, 60, 125, 56, 1, 1.41872
289, 3, bw, filler, NA, 999, 999, 2, 21, 159, 80, 139, 108, 143, 120, 3, 1.94355
289, 3, bw, filler, NA, 999, 999, 2, 21, 159, 80, 139, 108, 143, 120, 1, 1.08817
289, 3, bw, attraction, a-b-da, 5, 2, 2, 22, 90, 165, 165, 90, 161, 88, 2, 5.63457
289, 3, bw, attraction, a-b-da, 5, 2, 2, 22, 90, 165, 165, 90, 161, 88, 1, 0.646886
289, 3, bw, filler, NA, 999, 999, 2, 23, 154, 146, 183, 188, 151, 75, 2, 1.13042
289, 3, bw, filler, NA, 999, 999, 2, 23, 154, 146, 183, 188, 151, 75, 3, 0.844066
289, 3, bw, filler, NA, 999, 999, 2, 24, 74, 191, 97, 183, 130, 152, 3, 2.75172
289, 3, bw, filler, NA, 999, 999, 2, 24, 74, 191, 97, 183, 130, 152, 1, 1.00019
289, 3, bw, attraction, a-b-da, 5, 1, 2, 25, 135, 60, 132, 58, 60, 135, 1, 4.49384
289, 3, bw, attraction, a-b-da, 5, 1, 2, 25, 135, 60, 132, 58, 60, 135, 2, 0.607737
289, 3, bw, attraction, a-b-db, 2, 2, 2, 26, 89, 163, 165, 90, 90, 165, 3, 3.86093
289, 3, bw, attraction, a-b-db, 2, 2, 2, 26, 89, 163, 165, 90, 90, 165, 1, 1.16023
289, 3, bw, attraction, a-b-da, 2, 3, 2, 27, 195, 120, 193, 119, 120, 195, 1, 1.71914
289, 3, bw, attraction, a-b-da, 2, 3, 2, 27, 195, 120, 193, 119, 120, 195, 3, 0.817252
289, 3, bw, attraction, a-b-da, 9, 2, 2, 28, 165, 90, 90, 165, 157, 86, 1, 2.78229
289, 3, bw, attraction, a-b-da, 9, 2, 2, 28, 165, 90, 90, 165, 157, 86, 3, 0.909524
289, 3, bw, attraction, a-b-db, 14, 2, 2, 29, 165, 90, 90, 165, 83, 153, 1, 2.27828
289, 3, bw, attraction, a-b-db, 14, 2, 2, 29, 165, 90, 90, 165, 83, 153, 3, 0.913626
289, 3, bw, attraction, a-b-db, 5, 3, 2, 30, 117, 190, 195, 120, 120, 195, 2, 1.66654
289, 3, bw, attraction, a-b-db, 5, 3, 2, 30, 117, 190, 195, 120, 120, 195, 1, 0.718668
289, 3, bw, catch, NA, 999, 999, 2, 31, 127, 68, 129, 126, 160, 155, 3, 2.0478
289, 3, bw, catch, NA, 999, 999, 2, 31, 127, 68, 129, 126, 160, 155, 1, 0.54845
289, 3, bw, attraction, a-b-db, 2, 3, 2, 32, 195, 120, 119, 193, 120, 195, 1, 1.50819
289, 3, bw, attraction, a-b-db, 2, 3, 2, 32, 195, 120, 119, 193, 120, 195, 2, 1.54237
289, 3, bw, filler, NA, 999, 999, 2, 33, 153, 127, 60, 158, 129, 157, 1, 3.62983
289, 3, bw, filler, NA, 999, 999, 2, 33, 153, 127, 60, 158, 129, 157, 2, 0.930657
289, 3, bw, attraction, a-b-db, 14, 1, 2, 34, 135, 60, 60, 135, 56, 125, 1, 2.25895
289, 3, bw, attraction, a-b-db, 14, 1, 2, 34, 135, 60, 60, 135, 56, 125, 2, 0.614917
289, 3, bw, attraction, a-b-da, 2, 2, 2, 35, 163, 89, 90, 165, 165, 90, 1, 1.78003
289, 3, bw, attraction, a-b-da, 2, 2, 2, 35, 163, 89, 90, 165, 165, 90, 2, 0.779407
289, 3, bw, attraction, a-b-db, 9, 1, 2, 36, 57, 129, 60, 135, 135, 60, 2, 2.97782
289, 3, bw, attraction, a-b-db, 9, 1, 2, 36, 57, 129, 60, 135, 135, 60, 1, 0.648758
289, 3, bw, attraction, a-b-da, 9, 1, 2, 37, 60, 135, 135, 60, 129, 57, 2, 2.71668
289, 3, bw, attraction, a-b-da, 9, 1, 2, 37, 60, 135, 135, 60, 129, 57, 1, 0.606467
289, 3, bw, attraction, a-b-da, 9, 1, 3, 1, 135, 60, 60, 135, 129, 57, 1, 2.08344
289, 3, bw, attraction, a-b-da, 9, 1, 3, 1, 135, 60, 60, 135, 129, 57, 2, 0.590827
289, 3, bw, attraction, a-b-db, 5, 2, 3, 2, 90, 165, 165, 90, 88, 161, 2, 1.93254
289, 3, bw, attraction, a-b-db, 5, 2, 3, 2, 90, 165, 165, 90, 88, 161, 3, 1.39004
289, 3, bw, filler, NA, 999, 999, 3, 3, 190, 81, 65, 108, 134, 71, 1, 1.54812
289, 3, bw, filler, NA, 999, 999, 3, 3, 190, 81, 65, 108, 134, 71, 2, 0.964898
289, 3, bw, attraction, a-b-db, 14, 2, 3, 4, 165, 90, 90, 165, 83, 153, 2, 1.73985
289, 3, bw, attraction, a-b-db, 14, 2, 3, 4, 165, 90, 90, 165, 83, 153, 3, 0.876664
289, 3, bw, catch, NA, 999, 999, 3, 5, 122, 133, 123, 192, 113, 82, 2, 0.966971
289, 3, bw, catch, NA, 999, 999, 3, 5, 122, 133, 123, 192, 113, 82, 3, 0.57529
289, 3, bw, attraction, a-b-db, 14, 1, 3, 6, 56, 125, 135, 60, 60, 135, 3, 1.78981
289, 3, bw, attraction, a-b-db, 14, 1, 3, 6, 56, 125, 135, 60, 60, 135, 1, 0.988518
289, 3, bw, attraction, a-b-db, 9, 2, 3, 7, 86, 157, 90, 165, 165, 90, 3, 3.48273
289, 3, bw, attraction, a-b-db, 9, 2, 3, 7, 86, 157, 90, 165, 165, 90, 1, 1.20573
289, 3, bw, attraction, a-b-da, 14, 3, 3, 8, 181, 111, 195, 120, 120, 195, 2, 2.83531
289, 3, bw, attraction, a-b-da, 14, 3, 3, 8, 181, 111, 195, 120, 120, 195, 1, 0.648306
289, 3, bw, filler, NA, 999, 999, 3, 9, 105, 105, 162, 155, 183, 94, 2, 2.82007
289, 3, bw, filler, NA, 999, 999, 3, 9, 105, 105, 162, 155, 183, 94, 1, 0.513901
289, 3, bw, attraction, a-b-db, 9, 1, 3, 10, 60, 135, 135, 60, 57, 129, 1, 3.25886
289, 3, bw, attraction, a-b-db, 9, 1, 3, 10, 60, 135, 135, 60, 57, 129, 3, 0.686676
289, 3, bw, filler, NA, 999, 999, 3, 11, 158, 151, 97, 63, 192, 119, 1, 1.79297
289, 3, bw, filler, NA, 999, 999, 3, 11, 158, 151, 97, 63, 192, 119, 2, 0.751894
289, 3, bw, attraction, a-b-db, 9, 3, 3, 12, 120, 195, 195, 120, 114, 186, 2, 3.23137
289, 3, bw, attraction, a-b-db, 9, 3, 3, 12, 120, 195, 195, 120, 114, 186, 3, 0.468372
289, 3, bw, attraction, a-b-db, 5, 1, 3, 13, 60, 135, 135, 60, 58, 132, 1, 4.81542
289, 3, bw, attraction, a-b-db, 5, 1, 3, 13, 60, 135, 135, 60, 58, 132, 3, 0.58067
289, 3, bw, attraction, a-b-da, 2, 3, 3, 14, 193, 119, 195, 120, 120, 195, 2, 1.86696
289, 3, bw, attraction, a-b-da, 2, 3, 3, 14, 193, 119, 195, 120, 120, 195, 3, 1.53513
289, 3, bw, attraction, a-b-db, 5, 3, 3, 15, 120, 195, 117, 190, 195, 120, 3, 3.0312
289, 3, bw, attraction, a-b-db, 5, 3, 3, 15, 120, 195, 117, 190, 195, 120, 2, 0.66822
289, 3, bw, attraction, a-b-da, 2, 1, 3, 16, 60, 135, 135, 60, 134, 59, 3, 4.99933
289, 3, bw, attraction, a-b-da, 2, 1, 3, 16, 60, 135, 135, 60, 134, 59, 1, 0.525149
289, 3, bw, attraction, a-b-db, 2, 3, 3, 17, 120, 195, 195, 120, 119, 193, 1, 2.59757
289, 3, bw, attraction, a-b-db, 2, 3, 3, 17, 120, 195, 195, 120, 119, 193, 2, 0.604014
289, 3, bw, attraction, a-b-da, 14, 1, 3, 18, 60, 135, 135, 60, 125, 56, 1, 8.09777
289, 3, bw, attraction, a-b-da, 14, 1, 3, 18, 60, 135, 135, 60, 125, 56, 2, 1.13057
289, 3, bw, filler, NA, 999, 999, 3, 19, 67, 79, 105, 171, 139, 175, 3, 1.93886
289, 3, bw, filler, NA, 999, 999, 3, 19, 67, 79, 105, 171, 139, 175, 1, 1.01144
289, 3, bw, filler, NA, 999, 999, 3, 20, 76, 118, 104, 179, 78, 59, 2, 0.776407
289, 3, bw, filler, NA, 999, 999, 3, 20, 76, 118, 104, 179, 78, 59, 3, 0.952222
289, 3, bw, filler, NA, 999, 999, 3, 21, 188, 109, 94, 108, 66, 64, 1, 0.623838
289, 3, bw, filler, NA, 999, 999, 3, 21, 188, 109, 94, 108, 66, 64, 3, 0.741648
289, 3, bw, attraction, a-b-da, 9, 3, 3, 22, 186, 114, 120, 195, 195, 120, 3, 1.4453
289, 3, bw, attraction, a-b-da, 9, 3, 3, 22, 186, 114, 120, 195, 195, 120, 1, 0.594157
289, 3, bw, attraction, a-b-da, 14, 2, 3, 23, 165, 90, 153, 83, 90, 165, 1, 0.855866
289, 3, bw, attraction, a-b-da, 14, 2, 3, 23, 165, 90, 153, 83, 90, 165, 2, 0.70058
289, 3, bw, filler, NA, 999, 999, 3, 24, 106, 85, 88, 87, 170, 159, 3, 1.33396
289, 3, bw, filler, NA, 999, 999, 3, 24, 106, 85, 88, 87, 170, 159, 2, 0.527544
289, 3, bw, catch, NA, 999, 999, 3, 25, 143, 112, 65, 130, 121, 194, 3, 1.96003
289, 3, bw, catch, NA, 999, 999, 3, 25, 143, 112, 65, 130, 121, 194, 2, 0.632013
289, 3, bw, catch, NA, 999, 999, 3, 26, 117, 138, 91, 104, 191, 124, 3, 0.724558
289, 3, bw, catch, NA, 999, 999, 3, 26, 117, 138, 91, 104, 191, 124, 2, 0.638303
289, 3, bw, attraction, a-b-db, 14, 3, 3, 27, 195, 120, 111, 181, 120, 195, 1, 1.04253
289, 3, bw, attraction, a-b-db, 14, 3, 3, 27, 195, 120, 111, 181, 120, 195, 2, 0.559567
289, 3, bw, attraction, a-b-da, 5, 3, 3, 28, 190, 117, 195, 120, 120, 195, 2, 1.17471
289, 3, bw, attraction, a-b-da, 5, 3, 3, 28, 190, 117, 195, 120, 120, 195, 1, 0.63024
289, 3, bw, attraction, a-b-db, 2, 2, 3, 29, 165, 90, 89, 163, 90, 165, 1, 2.45872
289, 3, bw, attraction, a-b-db, 2, 2, 3, 29, 165, 90, 89, 163, 90, 165, 3, 0.598593
289, 3, bw, filler, NA, 999, 999, 3, 30, 84, 86, 155, 83, 188, 127, 3, 1.07642
289, 3, bw, filler, NA, 999, 999, 3, 30, 84, 86, 155, 83, 188, 127, 1, 0.671997
289, 3, bw, attraction, a-b-db, 2, 1, 3, 31, 60, 135, 59, 134, 135, 60, 2, 4.96304
289, 3, bw, attraction, a-b-db, 2, 1, 3, 31, 60, 135, 59, 134, 135, 60, 1, 4.85808
289, 3, bw, attraction, a-b-da, 9, 2, 3, 32, 90, 165, 157, 86, 165, 90, 3, 1.25181
289, 3, bw, attraction, a-b-da, 9, 2, 3, 32, 90, 165, 157, 86, 165, 90, 1, 0.872783
289, 3, bw, attraction, a-b-da, 5, 1, 3, 33, 60, 135, 135, 60, 132, 58, 2, 0.971891
289, 3, bw, attraction, a-b-da, 5, 1, 3, 33, 60, 135, 135, 60, 132, 58, 1, 0.611478
289, 3, bw, attraction, a-b-da, 5, 2, 3, 34, 165, 90, 161, 88, 90, 165, 3, 2.04056
289, 3, bw, attraction, a-b-da, 5, 2, 3, 34, 165, 90, 161, 88, 90, 165, 2, 1.54126
289, 3, bw, filler, NA, 999, 999, 3, 35, 179, 132, 68, 120, 93, 56, 1, 1.10066
289, 3, bw, filler, NA, 999, 999, 3, 35, 179, 132, 68, 120, 93, 56, 3, 0.81566
289, 3, bw, attraction, a-b-da, 2, 2, 3, 36, 165, 90, 163, 89, 90, 165, 3, 4.5486
289, 3, bw, attraction, a-b-da, 2, 2, 3, 36, 165, 90, 163, 89, 90, 165, 2, 0.68467
289, 3, bw, filler, NA, 999, 999, 3, 37, 95, 181, 137, 192, 95, 154, 2, 1.16698
289, 3, bw, filler, NA, 999, 999, 3, 37, 95, 181, 137, 192, 95, 154, 3, 1.23136
289, 3, bw, attraction, a-b-db, 2, 2, 4, 1, 89, 163, 90, 165, 165, 90, 2, 3.92356
289, 3, bw, attraction, a-b-db, 2, 2, 4, 1, 89, 163, 90, 165, 165, 90, 1, 1.55615
289, 3, bw, attraction, a-b-da, 2, 3, 4, 2, 120, 195, 193, 119, 195, 120, 3, 2.64373
289, 3, bw, attraction, a-b-da, 2, 3, 4, 2, 120, 195, 193, 119, 195, 120, 1, 0.560089
289, 3, bw, attraction, a-b-da, 9, 1, 4, 3, 135, 60, 129, 57, 60, 135, 1, 3.31916
289, 3, bw, attraction, a-b-da, 9, 1, 4, 3, 135, 60, 129, 57, 60, 135, 2, 1.10476
289, 3, bw, attraction, a-b-da, 14, 3, 4, 4, 195, 120, 181, 111, 120, 195, 1, 1.11437
289, 3, bw, attraction, a-b-da, 14, 3, 4, 4, 195, 120, 181, 111, 120, 195, 3, 1.19674
289, 3, bw, filler, NA, 999, 999, 4, 5, 61, 90, 176, 128, 62, 125, 2, 1.00226
289, 3, bw, filler, NA, 999, 999, 4, 5, 61, 90, 176, 128, 62, 125, 1, 0.577349
289, 3, bw, attraction, a-b-db, 5, 1, 4, 6, 135, 60, 58, 132, 60, 135, 1, 14.8158
289, 3, bw, attraction, a-b-db, 5, 1, 4, 6, 135, 60, 58, 132, 60, 135, 2, 0.817727
289, 3, bw, attraction, a-b-db, 9, 1, 4, 7, 135, 60, 60, 135, 57, 129, 1, 2.11069
289, 3, bw, attraction, a-b-db, 9, 1, 4, 7, 135, 60, 60, 135, 57, 129, 3, 0.600722
289, 3, bw, attraction, a-b-db, 2, 3, 4, 8, 195, 120, 120, 195, 119, 193, 3, 3.71846
289, 3, bw, attraction, a-b-db, 2, 3, 4, 8, 195, 120, 120, 195, 119, 193, 2, 0.407969
289, 3, bw, attraction, a-b-da, 9, 2, 4, 9, 90, 165, 165, 90, 157, 86, 2, 1.31712
289, 3, bw, attraction, a-b-da, 9, 2, 4, 9, 90, 165, 165, 90, 157, 86, 3, 0.359381
289, 3, bw, filler, NA, 999, 999, 4, 10, 94, 109, 60, 95, 66, 153, 1, 1.13448
289, 3, bw, filler, NA, 999, 999, 4, 10, 94, 109, 60, 95, 66, 153, 2, 0.632065
289, 3, bw, filler, NA, 999, 999, 4, 11, 161, 181, 87, 158, 151, 110, 1, 0.748486
289, 3, bw, filler, NA, 999, 999, 4, 11, 161, 181, 87, 158, 151, 110, 2, 0.7416
289, 3, bw, attraction, a-b-db, 2, 1, 4, 12, 135, 60, 59, 134, 60, 135, 3, 2.88536
289, 3, bw, attraction, a-b-db, 2, 1, 4, 12, 135, 60, 59, 134, 60, 135, 1, 0.88038
289, 3, bw, attraction, a-b-db, 14, 3, 4, 13, 195, 120, 120, 195, 111, 181, 1, 0.810702
289, 3, bw, attraction, a-b-db, 14, 3, 4, 13, 195, 120, 120, 195, 111, 181, 2, 0.33712
289, 3, bw, attraction, a-b-db, 14, 1, 4, 14, 135, 60, 60, 135, 56, 125, 2, 3.40171
289, 3, bw, attraction, a-b-db, 14, 1, 4, 14, 135, 60, 60, 135, 56, 125, 3, 1.6639
289, 3, bw, attraction, a-b-db, 14, 2, 4, 15, 83, 153, 90, 165, 165, 90, 3, 1.65065
289, 3, bw, attraction, a-b-db, 14, 2, 4, 15, 83, 153, 90, 165, 165, 90, 1, 0.591496
289, 3, bw, catch, NA, 999, 999, 4, 16, 177, 138, 160, 95, 88, 107, 1, 0.597235
289, 3, bw, catch, NA, 999, 999, 4, 16, 177, 138, 160, 95, 88, 107, 3, 0.660355
289, 3, bw, attraction, a-b-da, 2, 2, 4, 17, 165, 90, 90, 165, 163, 89, 1, 1.16735
289, 3, bw, attraction, a-b-da, 2, 2, 4, 17, 165, 90, 90, 165, 163, 89, 2, 0.855597
289, 3, bw, attraction, a-b-da, 9, 3, 4, 18, 195, 120, 120, 195, 186, 114, 1, 1.0033
289, 3, bw, attraction, a-b-da, 9, 3, 4, 18, 195, 120, 120, 195, 186, 114, 3, 0.762304
289, 3, bw, attraction, a-b-da, 5, 2, 4, 19, 90, 165, 165, 90, 161, 88, 3, 2.68134
289, 3, bw, attraction, a-b-da, 5, 2, 4, 19, 90, 165, 165, 90, 161, 88, 2, 0.380525
289, 3, bw, attraction, a-b-da, 14, 1, 4, 20, 125, 56, 135, 60, 60, 135, 2, 3.53889
289, 3, bw, attraction, a-b-da, 14, 1, 4, 20, 125, 56, 135, 60, 60, 135, 1, 0.483123
289, 3, bw, filler, NA, 999, 999, 4, 21, 159, 148, 170, 82, 57, 159, 1, 0.693552
289, 3, bw, filler, NA, 999, 999, 4, 21, 159, 148, 170, 82, 57, 159, 3, 0.432752
289, 3, bw, attraction, a-b-db, 9, 2, 4, 22, 90, 165, 86, 157, 165, 90, 1, 3.06924
289, 3, bw, attraction, a-b-db, 9, 2, 4, 22, 90, 165, 86, 157, 165, 90, 2, 0.568861
289, 3, bw, attraction, a-b-db, 5, 3, 4, 23, 120, 195, 117, 190, 195, 120, 3, 2.344
289, 3, bw, attraction, a-b-db, 5, 3, 4, 23, 120, 195, 117, 190, 195, 120, 1, 0.36856
289, 3, bw, filler, NA, 999, 999, 4, 24, 192, 85, 184, 70, 114, 97, 1, 1.14361
289, 3, bw, filler, NA, 999, 999, 4, 24, 192, 85, 184, 70, 114, 97, 3, 0.920633
289, 3, bw, catch, NA, 999, 999, 4, 25, 164, 91, 187, 128, 68, 127, 2, 2.4416
289, 3, bw, catch, NA, 999, 999, 4, 25, 164, 91, 187, 128, 68, 127, 3, 0.798372
289, 3, bw, attraction, a-b-da, 14, 2, 4, 26, 90, 165, 165, 90, 153, 83, 2, 2.09987
289, 3, bw, attraction, a-b-da, 14, 2, 4, 26, 90, 165, 165, 90, 153, 83, 1, 0.382491
289, 3, bw, attraction, a-b-db, 9, 3, 4, 27, 120, 195, 114, 186, 195, 120, 3, 1.38915
289, 3, bw, attraction, a-b-db, 9, 3, 4, 27, 120, 195, 114, 186, 195, 120, 2, 0.340004
289, 3, bw, filler, NA, 999, 999, 4, 28, 70, 84, 152, 169, 84, 169, 2, 0.899712
289, 3, bw, filler, NA, 999, 999, 4, 28, 70, 84, 152, 169, 84, 169, 1, 0.558847
289, 3, bw, attraction, a-b-da, 5, 3, 4, 29, 120, 195, 190, 117, 195, 120, 1, 1.42184
289, 3, bw, attraction, a-b-da, 5, 3, 4, 29, 120, 195, 190, 117, 195, 120, 2, 2.06748
289, 3, bw, attraction, a-b-db, 5, 2, 4, 30, 165, 90, 88, 161, 90, 165, 1, 0.949962
289, 3, bw, attraction, a-b-db, 5, 2, 4, 30, 165, 90, 88, 161, 90, 165, 2, 0.742974
289, 3, bw, catch, NA, 999, 999, 4, 31, 174, 141, 93, 162, 104, 91, 1, 0.79875
289, 3, bw, catch, NA, 999, 999, 4, 31, 174, 141, 93, 162, 104, 91, 3, 0.62979
289, 3, bw, filler, NA, 999, 999, 4, 32, 178, 161, 152, 98, 109, 180, 1, 1.42607
289, 3, bw, filler, NA, 999, 999, 4, 32, 178, 161, 152, 98, 109, 180, 2, 0.39962
289, 3, bw, filler, NA, 999, 999, 4, 33, 181, 182, 109, 87, 157, 76, 1, 0.741452
289, 3, bw, filler, NA, 999, 999, 4, 33, 181, 182, 109, 87, 157, 76, 2, 0.590662
289, 3, bw, attraction, a-b-da, 5, 1, 4, 34, 135, 60, 132, 58, 60, 135, 3, 2.18833
289, 3, bw, attraction, a-b-da, 5, 1, 4, 34, 135, 60, 132, 58, 60, 135, 2, 0.53098
289, 3, bw, filler, NA, 999, 999, 4, 35, 99, 80, 136, 61, 141, 59, 3, 4.20339
289, 3, bw, filler, NA, 999, 999, 4, 35, 99, 80, 136, 61, 141, 59, 2, 0.545328
289, 3, bw, filler, NA, 999, 999, 4, 36, 63, 190, 187, 150, 63, 162, 2, 1.60911
289, 3, bw, filler, NA, 999, 999, 4, 36, 63, 190, 187, 150, 63, 162, 3, 0.559296
289, 3, bw, attraction, a-b-da, 2, 1, 4, 37, 60, 135, 134, 59, 135, 60, 3, 2.84641
289, 3, bw, attraction, a-b-da, 2, 1, 4, 37, 60, 135, 134, 59, 135, 60, 1, 0.538895
289, 3, bw, catch, NA, 999, 999, 5, 1, 116, 139, 195, 120, 114, 81, 2, 5.48915
289, 3, bw, catch, NA, 999, 999, 5, 1, 116, 139, 195, 120, 114, 81, 3, 0.818784
289, 3, bw, attraction, a-b-da, 14, 1, 5, 2, 135, 60, 60, 135, 125, 56, 1, 1.5838
289, 3, bw, attraction, a-b-da, 14, 1, 5, 2, 135, 60, 60, 135, 125, 56, 3, 1.39935
289, 3, bw, filler, NA, 999, 999, 5, 3, 109, 75, 119, 130, 155, 139, 3, 1.06077
289, 3, bw, filler, NA, 999, 999, 5, 3, 109, 75, 119, 130, 155, 139, 1, 0.969154
289, 3, bw, filler, NA, 999, 999, 5, 4, 186, 116, 86, 137, 129, 93, 1, 0.576056
289, 3, bw, filler, NA, 999, 999, 5, 4, 186, 116, 86, 137, 129, 93, 3, 0.855917
289, 3, bw, attraction, a-b-db, 2, 3, 5, 5, 195, 120, 120, 195, 119, 193, 1, 0.579685
289, 3, bw, attraction, a-b-db, 2, 3, 5, 5, 195, 120, 120, 195, 119, 193, 3, 0.835375
289, 3, bw, filler, NA, 999, 999, 5, 6, 57, 190, 69, 90, 191, 170, 3, 0.671749
289, 3, bw, filler, NA, 999, 999, 5, 6, 57, 190, 69, 90, 191, 170, 2, 1.01148
289, 3, bw, attraction, a-b-da, 9, 1, 5, 7, 60, 135, 129, 57, 135, 60, 3, 3.69636
289, 3, bw, attraction, a-b-da, 9, 1, 5, 7, 60, 135, 129, 57, 135, 60, 2, 2.16263
289, 3, bw, filler, NA, 999, 999, 5, 8, 112, 126, 86, 171, 176, 64, 2, 2.74516
289, 3, bw, filler, NA, 999, 999, 5, 8, 112, 126, 86, 171, 176, 64, 3, 2.40175
289, 3, bw, attraction, a-b-db, 5, 2, 5, 9, 88, 161, 90, 165, 165, 90, 1, 2.8228
289, 3, bw, attraction, a-b-db, 5, 2, 5, 9, 88, 161, 90, 165, 165, 90, 2, 0.57192
289, 3, bw, attraction, a-b-da, 5, 2, 5, 10, 161, 88, 90, 165, 165, 90, 1, 1.25895
289, 3, bw, attraction, a-b-da, 5, 2, 5, 10, 161, 88, 90, 165, 165, 90, 2, 3.27929
289, 3, bw, attraction, a-b-da, 2, 3, 5, 11, 120, 195, 193, 119, 195, 120, 2, 2.04077
289, 3, bw, attraction, a-b-da, 2, 3, 5, 11, 120, 195, 193, 119, 195, 120, 1, 0.509551
289, 3, bw, attraction, a-b-da, 2, 1, 5, 12, 60, 135, 134, 59, 135, 60, 2, 1.58257
289, 3, bw, attraction, a-b-da, 2, 1, 5, 12, 60, 135, 134, 59, 135, 60, 1, 1.15003
289, 3, bw, attraction, a-b-db, 5, 3, 5, 13, 195, 120, 120, 195, 117, 190, 1, 1.24566
289, 3, bw, attraction, a-b-db, 5, 3, 5, 13, 195, 120, 120, 195, 117, 190, 3, 0.706733
289, 3, bw, filler, NA, 999, 999, 5, 14, 182, 59, 106, 149, 102, 162, 1, 1.8836
289, 3, bw, filler, NA, 999, 999, 5, 14, 182, 59, 106, 149, 102, 162, 2, 0.406981
289, 3, bw, attraction, a-b-db, 2, 1, 5, 15, 59, 134, 60, 135, 135, 60, 3, 12.2123
289, 3, bw, attraction, a-b-db, 2, 1, 5, 15, 59, 134, 60, 135, 135, 60, 1, 0.806925
289, 3, bw, attraction, a-b-da, 5, 3, 5, 16, 190, 117, 195, 120, 120, 195, 2, 1.76405
289, 3, bw, attraction, a-b-da, 5, 3, 5, 16, 190, 117, 195, 120, 120, 195, 1, 0.660157
289, 3, bw, attraction, a-b-da, 9, 3, 5, 17, 120, 195, 186, 114, 195, 120, 3, 1.5271
289, 3, bw, attraction, a-b-da, 9, 3, 5, 17, 120, 195, 186, 114, 195, 120, 1, 0.600634
289, 3, bw, filler, NA, 999, 999, 5, 18, 149, 130, 127, 136, 114, 102, 1, 1.09438
289, 3, bw, filler, NA, 999, 999, 5, 18, 149, 130, 127, 136, 114, 102, 3, 0.473442
289, 3, bw, attraction, a-b-db, 5, 1, 5, 19, 60, 135, 58, 132, 135, 60, 3, 1.3558
289, 3, bw, attraction, a-b-db, 5, 1, 5, 19, 60, 135, 58, 132, 135, 60, 2, 0.820056
289, 3, bw, attraction, a-b-db, 9, 3, 5, 20, 195, 120, 120, 195, 114, 186, 1, 2.05701
289, 3, bw, attraction, a-b-db, 9, 3, 5, 20, 195, 120, 120, 195, 114, 186, 3, 0.397035
289, 3, bw, attraction, a-b-db, 14, 1, 5, 21, 56, 125, 60, 135, 135, 60, 2, 0.834907
289, 3, bw, attraction, a-b-db, 14, 1, 5, 21, 56, 125, 60, 135, 135, 60, 1, 0.592602
289, 3, bw, attraction, a-b-da, 2, 2, 5, 22, 165, 90, 163, 89, 90, 165, 1, 0.974315
289, 3, bw, attraction, a-b-da, 2, 2, 5, 22, 165, 90, 163, 89, 90, 165, 3, 0.422013
289, 3, bw, attraction, a-b-da, 9, 2, 5, 23, 157, 86, 165, 90, 90, 165, 2, 2.93916
289, 3, bw, attraction, a-b-da, 9, 2, 5, 23, 157, 86, 165, 90, 90, 165, 3, 0.587579
289, 3, bw, filler, NA, 999, 999, 5, 24, 117, 174, 181, 188, 155, 115, 2, 0.890095
289, 3, bw, filler, NA, 999, 999, 5, 24, 117, 174, 181, 188, 155, 115, 1, 0.932983
289, 3, bw, catch, NA, 999, 999, 5, 25, 124, 71, 143, 112, 147, 168, 3, 0.949346
289, 3, bw, catch, NA, 999, 999, 5, 25, 124, 71, 143, 112, 147, 168, 1, 0.390451
289, 3, bw, filler, NA, 999, 999, 5, 26, 87, 111, 191, 155, 78, 90, 2, 0.564157
289, 3, bw, filler, NA, 999, 999, 5, 26, 87, 111, 191, 155, 78, 90, 3, 0.580624
289, 3, bw, attraction, a-b-db, 14, 3, 5, 27, 111, 181, 120, 195, 195, 120, 3, 2.71502
289, 3, bw, attraction, a-b-db, 14, 3, 5, 27, 111, 181, 120, 195, 195, 120, 1, 0.596886
289, 3, bw, catch, NA, 999, 999, 5, 28, 96, 159, 156, 159, 105, 90, 2, 0.714566
289, 3, bw, catch, NA, 999, 999, 5, 28, 96, 159, 156, 159, 105, 90, 3, 0.34916
289, 3, bw, attraction, a-b-db, 14, 2, 5, 29, 165, 90, 90, 165, 83, 153, 1, 0.788791
289, 3, bw, attraction, a-b-db, 14, 2, 5, 29, 165, 90, 90, 165, 83, 153, 3, 0.843871
289, 3, bw, attraction, a-b-da, 14, 3, 5, 30, 195, 120, 181, 111, 120, 195, 1, 1.23958
289, 3, bw, attraction, a-b-da, 14, 3, 5, 30, 195, 120, 181, 111, 120, 195, 2, 1.34043
289, 3, bw, filler, NA, 999, 999, 5, 31, 70, 147, 112, 57, 174, 128, 3, 1.1642
289, 3, bw, filler, NA, 999, 999, 5, 31, 70, 147, 112, 57, 174, 128, 2, 0.444314
289, 3, bw, attraction, a-b-da, 5, 1, 5, 32, 135, 60, 132, 58, 60, 135, 1, 1.91222
289, 3, bw, attraction, a-b-da, 5, 1, 5, 32, 135, 60, 132, 58, 60, 135, 2, 0.858099
289, 3, bw, attraction, a-b-db, 9, 1, 5, 33, 60, 135, 57, 129, 135, 60, 1, 9.69307
289, 3, bw, attraction, a-b-db, 9, 1, 5, 33, 60, 135, 57, 129, 135, 60, 2, 0.501389
289, 3, bw, attraction, a-b-da, 14, 2, 5, 34, 165, 90, 90, 165, 153, 83, 2, 0.831191
289, 3, bw, attraction, a-b-da, 14, 2, 5, 34, 165, 90, 90, 165, 153, 83, 1, 0.996835
289, 3, bw, attraction, a-b-db, 2, 2, 5, 35, 89, 163, 165, 90, 90, 165, 3, 1.19457
289, 3, bw, attraction, a-b-db, 2, 2, 5, 35, 89, 163, 165, 90, 90, 165, 2, 0.521482
289, 3, bw, filler, NA, 999, 999, 5, 36, 178, 158, 129, 61, 132, 145, 1, 1.41061
289, 3, bw, filler, NA, 999, 999, 5, 36, 178, 158, 129, 61, 132, 145, 2, 1.0408
289, 3, bw, attraction, a-b-db, 9, 2, 5, 37, 90, 165, 165, 90, 86, 157, 2, 0.660342
289, 3, bw, attraction, a-b-db, 9, 2, 5, 37, 90, 165, 165, 90, 86, 157, 3, 0.568952
289, 3, bw, filler, NA, 999, 999, 6, 1, 85, 159, 67, 160, 128, 182, 3, 0.74391
289, 3, bw, filler, NA, 999, 999, 6, 1, 85, 159, 67, 160, 128, 182, 2, 0.441028
289, 3, bw, filler, NA, 999, 999, 6, 2, 185, 181, 164, 92, 143, 194, 1, 0.668809
289, 3, bw, filler, NA, 999, 999, 6, 2, 185, 181, 164, 92, 143, 194, 2, 0.513303
289, 3, bw, attraction, a-b-da, 2, 1, 6, 3, 135, 60, 60, 135, 134, 59, 1, 2.33047
289, 3, bw, attraction, a-b-da, 2, 1, 6, 3, 135, 60, 60, 135, 134, 59, 2, 1.68365
289, 3, bw, catch, NA, 999, 999, 6, 4, 134, 61, 158, 97, 190, 125, 3, 1.24581
289, 3, bw, catch, NA, 999, 999, 6, 4, 134, 61, 158, 97, 190, 125, 1, 0.554592
289, 3, bw, attraction, a-b-da, 14, 1, 6, 5, 125, 56, 135, 60, 60, 135, 2, 4.80237
289, 3, bw, attraction, a-b-da, 14, 1, 6, 5, 125, 56, 135, 60, 60, 135, 1, 0.480189
289, 3, bw, attraction, a-b-db, 5, 3, 6, 6, 117, 190, 195, 120, 120, 195, 2, 2.21861
289, 3, bw, attraction, a-b-db, 5, 3, 6, 6, 117, 190, 195, 120, 120, 195, 1, 0.352507
289, 3, bw, attraction, a-b-db, 9, 2, 6, 7, 90, 165, 165, 90, 86, 157, 1, 2.02453
289, 3, bw, attraction, a-b-db, 9, 2, 6, 7, 90, 165, 165, 90, 86, 157, 3, 0.581744
289, 3, bw, attraction, a-b-db, 14, 1, 6, 8, 56, 125, 60, 135, 135, 60, 2, 3.11622
289, 3, bw, attraction, a-b-db, 14, 1, 6, 8, 56, 125, 60, 135, 135, 60, 1, 0.59782
289, 3, bw, filler, NA, 999, 999, 6, 9, 71, 147, 146, 180, 168, 69, 2, 1.16353
289, 3, bw, filler, NA, 999, 999, 6, 9, 71, 147, 146, 180, 168, 69, 1, 1.13985
289, 3, bw, attraction, a-b-db, 14, 2, 6, 10, 165, 90, 90, 165, 83, 153, 1, 2.57213
289, 3, bw, attraction, a-b-db, 14, 2, 6, 10, 165, 90, 90, 165, 83, 153, 3, 0.531267
289, 3, bw, attraction, a-b-db, 2, 2, 6, 11, 165, 90, 90, 165, 89, 163, 1, 2.13975
289, 3, bw, attraction, a-b-db, 2, 2, 6, 11, 165, 90, 90, 165, 89, 163, 3, 0.484424
289, 3, bw, attraction, a-b-da, 5, 2, 6, 12, 165, 90, 161, 88, 90, 165, 1, 2.24687
289, 3, bw, attraction, a-b-da, 5, 2, 6, 12, 165, 90, 161, 88, 90, 165, 3, 0.539441
289, 3, bw, filler, NA, 999, 999, 6, 13, 144, 95, 183, 71, 71, 117, 1, 1.93979
289, 3, bw, filler, NA, 999, 999, 6, 13, 144, 95, 183, 71, 71, 117, 3, 1.63666
289, 3, bw, attraction, a-b-db, 5, 1, 6, 14, 135, 60, 58, 132, 60, 135, 3, 2.69684
289, 3, bw, attraction, a-b-db, 5, 1, 6, 14, 135, 60, 58, 132, 60, 135, 2, 1.17121
289, 3, bw, attraction, a-b-da, 9, 2, 6, 15, 157, 86, 90, 165, 165, 90, 2, 0.986095
289, 3, bw, attraction, a-b-da, 9, 2, 6, 15, 157, 86, 90, 165, 165, 90, 1, 1.63373
289, 3, bw, filler, NA, 999, 999, 6, 16, 193, 106, 157, 137, 72, 78, 2, 2.4618
289, 3, bw, filler, NA, 999, 999, 6, 16, 193, 106, 157, 137, 72, 78, 3, 0.513751
289, 3, bw, attraction, a-b-db, 2, 3, 6, 17, 195, 120, 120, 195, 119, 193, 3, 4.07482
289, 3, bw, attraction, a-b-db, 2, 3, 6, 17, 195, 120, 120, 195, 119, 193, 2, 0.381544
289, 3, bw, filler, NA, 999, 999, 6, 18, 145, 190, 172, 67, 166, 107, 1, 1.18798
289, 3, bw, filler, NA, 999, 999, 6, 18, 145, 190, 172, 67, 166, 107, 2, 0.675596
289, 3, bw, filler, NA, 999, 999, 6, 19, 97, 117, 94, 131, 130, 75, 2, 2.80598
289, 3, bw, filler, NA, 999, 999, 6, 19, 97, 117, 94, 131, 130, 75, 3, 1.10395
289, 3, bw, catch, NA, 999, 999, 6, 20, 183, 132, 60, 135, 134, 121, 1, 1.00546
289, 3, bw, catch, NA, 999, 999, 6, 20, 183, 132, 60, 135, 134, 121, 2, 0.851662
289, 3, bw, attraction, a-b-da, 2, 3, 6, 21, 195, 120, 120, 195, 193, 119, 1, 5.12735
289, 3, bw, attraction, a-b-da, 2, 3, 6, 21, 195, 120, 120, 195, 193, 119, 3, 2.71183
289, 3, bw, attraction, a-b-da, 14, 2, 6, 22, 90, 165, 153, 83, 165, 90, 3, 2.64819
289, 3, bw, attraction, a-b-da, 14, 2, 6, 22, 90, 165, 153, 83, 165, 90, 2, 0.692667
289, 3, bw, attraction, a-b-da, 9, 3, 6, 23, 186, 114, 195, 120, 120, 195, 2, 1.41428
289, 3, bw, attraction, a-b-da, 9, 3, 6, 23, 186, 114, 195, 120, 120, 195, 1, 0.67655
289, 3, bw, attraction, a-b-da, 9, 1, 6, 24, 60, 135, 135, 60, 129, 57, 2, 1.46292
289, 3, bw, attraction, a-b-da, 9, 1, 6, 24, 60, 135, 135, 60, 129, 57, 3, 1.01121
289, 3, bw, attraction, a-b-da, 2, 2, 6, 25, 165, 90, 90, 165, 163, 89, 2, 4.65603
289, 3, bw, attraction, a-b-da, 2, 2, 6, 25, 165, 90, 90, 165, 163, 89, 3, 1.25125
289, 3, bw, filler, NA, 999, 999, 6, 26, 61, 183, 119, 73, 78, 144, 1, 8.92684
289, 3, bw, filler, NA, 999, 999, 6, 26, 61, 183, 119, 73, 78, 144, 2, 0.78999
289, 3, bw, attraction, a-b-db, 2, 1, 6, 27, 60, 135, 59, 134, 135, 60, 1, 2.28436
289, 3, bw, attraction, a-b-db, 2, 1, 6, 27, 60, 135, 59, 134, 135, 60, 3, 0.551665
289, 3, bw, filler, NA, 999, 999, 6, 28, 182, 98, 162, 85, 57, 101, 1, 0.647396
289, 3, bw, filler, NA, 999, 999, 6, 28, 182, 98, 162, 85, 57, 101, 3, 0.780544
289, 3, bw, attraction, a-b-da, 5, 1, 6, 29, 132, 58, 60, 135, 135, 60, 1, 2.09882
289, 3, bw, attraction, a-b-da, 5, 1, 6, 29, 132, 58, 60, 135, 135, 60, 2, 0.549566
289, 3, bw, attraction, a-b-db, 9, 1, 6, 30, 60, 135, 57, 129, 135, 60, 1, 2.82928
289, 3, bw, attraction, a-b-db, 9, 1, 6, 30, 60, 135, 57, 129, 135, 60, 2, 1.14634
289, 3, bw, attraction, a-b-da, 14, 3, 6, 31, 195, 120, 120, 195, 181, 111, 1, 2.18589
289, 3, bw, attraction, a-b-da, 14, 3, 6, 31, 195, 120, 120, 195, 181, 111, 3, 0.937256
289, 3, bw, attraction, a-b-db, 9, 3, 6, 32, 120, 195, 114, 186, 195, 120, 3, 5.80964
289, 3, bw, attraction, a-b-db, 9, 3, 6, 32, 120, 195, 114, 186, 195, 120, 2, 0.846394
289, 3, bw, attraction, a-b-da, 5, 3, 6, 33, 120, 195, 190, 117, 195, 120, 3, 4.63405
289, 3, bw, attraction, a-b-da, 5, 3, 6, 33, 120, 195, 190, 117, 195, 120, 2, 0.422539
289, 3, bw, filler, NA, 999, 999, 6, 34, 152, 184, 160, 57, 83, 104, 1, 3.15577
289, 3, bw, filler, NA, 999, 999, 6, 34, 152, 184, 160, 57, 83, 104, 3, 0.939454
289, 3, bw, attraction, a-b-db, 14, 3, 6, 35, 195, 120, 120, 195, 111, 181, 1, 1.75573
289, 3, bw, attraction, a-b-db, 14, 3, 6, 35, 195, 120, 120, 195, 111, 181, 2, 0.571859
289, 3, bw, attraction, a-b-db, 5, 2, 6, 36, 88, 161, 165, 90, 90, 165, 3, 1.77087
289, 3, bw, attraction, a-b-db, 5, 2, 6, 36, 88, 161, 165, 90, 90, 165, 2, 0.490987
289, 3, bw, catch, NA, 999, 999, 6, 37, 106, 149, 134, 181, 61, 134, 2, 0.804706
289, 3, bw, catch, NA, 999, 999, 6, 37, 106, 149, 134, 181, 61, 134, 3, 0.659881
289, 3, bw, attraction, a-b-db, 9, 1, 7, 1, 60, 135, 57, 129, 135, 60, 1, 1.62287
289, 3, bw, attraction, a-b-db, 9, 1, 7, 1, 60, 135, 57, 129, 135, 60, 2, 0.524353
289, 3, bw, attraction, a-b-db, 9, 2, 7, 2, 165, 90, 86, 157, 90, 165, 3, 2.37293
289, 3, bw, attraction, a-b-db, 9, 2, 7, 2, 165, 90, 86, 157, 90, 165, 2, 0.628065
289, 3, bw, attraction, a-b-db, 14, 3, 7, 3, 195, 120, 111, 181, 120, 195, 3, 1.00846
289, 3, bw, attraction, a-b-db, 14, 3, 7, 3, 195, 120, 111, 181, 120, 195, 2, 0.574788
289, 3, bw, attraction, a-b-db, 5, 3, 7, 4, 195, 120, 117, 190, 120, 195, 2, 1.4292
289, 3, bw, attraction, a-b-db, 5, 3, 7, 4, 195, 120, 117, 190, 120, 195, 1, 1.67471
289, 3, bw, attraction, a-b-db, 2, 2, 7, 5, 165, 90, 90, 165, 89, 163, 2, 0.724797
289, 3, bw, attraction, a-b-db, 2, 2, 7, 5, 165, 90, 90, 165, 89, 163, 1, 1.46258
289, 3, bw, filler, NA, 999, 999, 7, 6, 72, 116, 120, 110, 73, 64, 2, 0.865416
289, 3, bw, filler, NA, 999, 999, 7, 6, 72, 116, 120, 110, 73, 64, 3, 1.04574
289, 3, bw, filler, NA, 999, 999, 7, 7, 107, 168, 155, 79, 175, 100, 3, 11.8813
289, 3, bw, filler, NA, 999, 999, 7, 7, 107, 168, 155, 79, 175, 100, 2, 0.345579
289, 3, bw, attraction, a-b-db, 5, 2, 7, 8, 88, 161, 90, 165, 165, 90, 2, 1.1694
289, 3, bw, attraction, a-b-db, 5, 2, 7, 8, 88, 161, 90, 165, 165, 90, 3, 0.697725
289, 3, bw, filler, NA, 999, 999, 7, 9, 127, 126, 83, 193, 162, 192, 3, 0.659567
289, 3, bw, filler, NA, 999, 999, 7, 9, 127, 126, 83, 193, 162, 192, 2, 1.1919
289, 3, bw, attraction, a-b-da, 9, 2, 7, 10, 90, 165, 157, 86, 165, 90, 3, 2.37349
289, 3, bw, attraction, a-b-da, 9, 2, 7, 10, 90, 165, 157, 86, 165, 90, 1, 0.332704
289, 3, bw, attraction, a-b-db, 9, 3, 7, 11, 120, 195, 195, 120, 114, 186, 2, 1.3253
289, 3, bw, attraction, a-b-db, 9, 3, 7, 11, 120, 195, 195, 120, 114, 186, 1, 0.342742
289, 3, bw, filler, NA, 999, 999, 7, 12, 190, 169, 108, 188, 129, 123, 1, 0.710555
289, 3, bw, filler, NA, 999, 999, 7, 12, 190, 169, 108, 188, 129, 123, 3, 0.44901
289, 3, bw, attraction, a-b-da, 2, 1, 7, 13, 134, 59, 135, 60, 60, 135, 3, 1.87675
289, 3, bw, attraction, a-b-da, 2, 1, 7, 13, 134, 59, 135, 60, 60, 135, 2, 0.856161
289, 3, bw, catch, NA, 999, 999, 7, 14, 105, 90, 141, 174, 149, 106, 2, 1.04389
289, 3, bw, catch, NA, 999, 999, 7, 14, 105, 90, 141, 174, 149, 106, 1, 0.416977
289, 3, bw, attraction, a-b-da, 5, 1, 7, 15, 60, 135, 132, 58, 135, 60, 1, 3.36609
289, 3, bw, attraction, a-b-da, 5, 1, 7, 15, 60, 135, 132, 58, 135, 60, 2, 0.573593
289, 3, bw, attraction, a-b-db, 2, 1, 7, 16, 135, 60, 59, 134, 60, 135, 2, 1.7321
289, 3, bw, attraction, a-b-db, 2, 1, 7, 16, 135, 60, 59, 134, 60, 135, 1, 1.03746
289, 3, bw, filler, NA, 999, 999, 7, 17, 64, 157, 68, 84, 92, 159, 3, 0.721705
289, 3, bw, filler, NA, 999, 999, 7, 17, 64, 157, 68, 84, 92, 159, 2, 0.515525
289, 3, bw, attraction, a-b-db, 2, 3, 7, 18, 195, 120, 119, 193, 120, 195, 2, 1.52464
289, 3, bw, attraction, a-b-db, 2, 3, 7, 18, 195, 120, 119, 193, 120, 195, 1, 0.574031
289, 3, bw, filler, NA, 999, 999, 7, 19, 114, 166, 191, 112, 165, 106, 2, 0.780514
289, 3, bw, filler, NA, 999, 999, 7, 19, 114, 166, 191, 112, 165, 106, 3, 0.628367
289, 3, bw, filler, NA, 999, 999, 7, 20, 96, 123, 119, 177, 161, 81, 2, 1.20868
289, 3, bw, filler, NA, 999, 999, 7, 20, 96, 123, 119, 177, 161, 81, 1, 0.566897
289, 3, bw, attraction, a-b-da, 2, 2, 7, 21, 90, 165, 165, 90, 163, 89, 2, 0.934007
289, 3, bw, attraction, a-b-da, 2, 2, 7, 21, 90, 165, 165, 90, 163, 89, 1, 0.551706
289, 3, bw, attraction, a-b-da, 14, 2, 7, 22, 90, 165, 153, 83, 165, 90, 3, 1.34353
289, 3, bw, attraction, a-b-da, 14, 2, 7, 22, 90, 165, 153, 83, 165, 90, 1, 0.424392
289, 3, bw, filler, NA, 999, 999, 7, 23, 181, 123, 152, 90, 106, 135, 1, 0.868794
289, 3, bw, filler, NA, 999, 999, 7, 23, 181, 123, 152, 90, 106, 135, 2, 0.641168
289, 3, bw, attraction, a-b-db, 14, 1, 7, 24, 135, 60, 56, 125, 60, 135, 3, 1.89304
289, 3, bw, attraction, a-b-db, 14, 1, 7, 24, 135, 60, 56, 125, 60, 135, 2, 1.38369
289, 3, bw, attraction, a-b-db, 5, 1, 7, 25, 60, 135, 58, 132, 135, 60, 3, 4.2618
289, 3, bw, attraction, a-b-db, 5, 1, 7, 25, 60, 135, 58, 132, 135, 60, 2, 0.601087
289, 3, bw, filler, NA, 999, 999, 7, 26, 127, 67, 175, 64, 66, 164, 2, 1.38298
289, 3, bw, filler, NA, 999, 999, 7, 26, 127, 67, 175, 64, 66, 164, 1, 0.606435
289, 3, bw, filler, NA, 999, 999, 7, 27, 167, 180, 62, 57, 142, 184, 1, 7.02816
289, 3, bw, filler, NA, 999, 999, 7, 27, 167, 180, 62, 57, 142, 184, 2, 0.759898
289, 3, bw, attraction, a-b-db, 14, 2, 7, 28, 165, 90, 90, 165, 83, 153, 2, 1.82292
289, 3, bw, attraction, a-b-db, 14, 2, 7, 28, 165, 90, 90, 165, 83, 153, 3, 0.484344
289, 3, bw, attraction, a-b-da, 5, 3, 7, 29, 120, 195, 190, 117, 195, 120, 3, 1.93491
289, 3, bw, attraction, a-b-da, 5, 3, 7, 29, 120, 195, 190, 117, 195, 120, 2, 1.04819
289, 3, bw, attraction, a-b-da, 9, 1, 7, 30, 129, 57, 60, 135, 135, 60, 2, 1.01181
289, 3, bw, attraction, a-b-da, 9, 1, 7, 30, 129, 57, 60, 135, 135, 60, 1, 0.930248
289, 3, bw, attraction, a-b-da, 9, 3, 7, 31, 186, 114, 120, 195, 195, 120, 3, 1.51446
289, 3, bw, attraction, a-b-da, 9, 3, 7, 31, 186, 114, 120, 195, 195, 120, 1, 0.444654
289, 3, bw, attraction, a-b-da, 2, 3, 7, 32, 193, 119, 195, 120, 120, 195, 1, 0.976422
289, 3, bw, attraction, a-b-da, 2, 3, 7, 32, 193, 119, 195, 120, 120, 195, 2, 0.568077
289, 3, bw, attraction, a-b-da, 14, 3, 7, 33, 181, 111, 120, 195, 195, 120, 2, 0.759179
289, 3, bw, attraction, a-b-da, 14, 3, 7, 33, 181, 111, 120, 195, 195, 120, 1, 0.44759
289, 3, bw, catch, NA, 999, 999, 7, 34, 97, 158, 144, 171, 125, 70, 2, 0.579408
289, 3, bw, catch, NA, 999, 999, 7, 34, 97, 158, 144, 171, 125, 70, 3, 0.403215
289, 3, bw, attraction, a-b-da, 5, 2, 7, 35, 90, 165, 165, 90, 161, 88, 3, 0.753016
289, 3, bw, attraction, a-b-da, 5, 2, 7, 35, 90, 165, 165, 90, 161, 88, 2, 1.04206
289, 3, bw, attraction, a-b-da, 14, 1, 7, 36, 135, 60, 125, 56, 60, 135, 1, 1.12566
289, 3, bw, attraction, a-b-da, 14, 1, 7, 36, 135, 60, 125, 56, 60, 135, 2, 0.895283
289, 3, bw, catch, NA, 999, 999, 7, 37, 124, 131, 184, 131, 60, 135, 2, 0.672944
289, 3, bw, catch, NA, 999, 999, 7, 37, 124, 131, 184, 131, 60, 135, 3, 0.748771
289, 3, bw, attraction, a-b-db, 5, 2, 8, 1, 90, 165, 165, 90, 88, 161, 1, 3.43636
289, 3, bw, attraction, a-b-db, 5, 2, 8, 1, 90, 165, 165, 90, 88, 161, 3, 0.513535
289, 3, bw, catch, NA, 999, 999, 8, 2, 156, 159, 121, 134, 127, 68, 1, 0.834503
289, 3, bw, catch, NA, 999, 999, 8, 2, 156, 159, 121, 134, 127, 68, 3, 0.896152
289, 3, bw, attraction, a-b-da, 9, 3, 8, 3, 186, 114, 120, 195, 195, 120, 3, 1.89787
289, 3, bw, attraction, a-b-da, 9, 3, 8, 3, 186, 114, 120, 195, 195, 120, 1, 1.18857
289, 3, bw, attraction, a-b-da, 5, 2, 8, 4, 165, 90, 90, 165, 161, 88, 1, 3.42691
289, 3, bw, attraction, a-b-da, 5, 2, 8, 4, 165, 90, 90, 165, 161, 88, 3, 0.823879
289, 3, bw, attraction, a-b-db, 14, 1, 8, 5, 60, 135, 135, 60, 56, 125, 1, 1.47602
289, 3, bw, attraction, a-b-db, 14, 1, 8, 5, 60, 135, 135, 60, 56, 125, 3, 0.687669
289, 3, bw, attraction, a-b-da, 2, 3, 8, 6, 120, 195, 195, 120, 193, 119, 3, 1.35387
289, 3, bw, attraction, a-b-da, 2, 3, 8, 6, 120, 195, 195, 120, 193, 119, 2, 1.19488
289, 3, bw, attraction, a-b-da, 9, 1, 8, 7, 129, 57, 60, 135, 135, 60, 3, 3.38439
289, 3, bw, attraction, a-b-da, 9, 1, 8, 7, 129, 57, 60, 135, 135, 60, 2, 0.391343
289, 3, bw, catch, NA, 999, 999, 8, 8, 169, 146, 87, 108, 109, 146, 1, 0.877182
289, 3, bw, catch, NA, 999, 999, 8, 8, 169, 146, 87, 108, 109, 146, 2, 0.40084
289, 3, bw, attraction, a-b-db, 14, 3, 8, 9, 120, 195, 111, 181, 195, 120, 3, 2.00667
289, 3, bw, attraction, a-b-db, 14, 3, 8, 9, 120, 195, 111, 181, 195, 120, 2, 0.620699
289, 3, bw, attraction, a-b-da, 14, 3, 8, 10, 120, 195, 195, 120, 181, 111, 2, 1.17769
289, 3, bw, attraction, a-b-da, 14, 3, 8, 10, 120, 195, 195, 120, 181, 111, 3, 1.37742
289, 3, bw, filler, NA, 999, 999, 8, 11, 88, 185, 67, 154, 122, 175, 3, 0.847542
289, 3, bw, filler, NA, 999, 999, 8, 11, 88, 185, 67, 154, 122, 175, 2, 0.532583
289, 3, bw, filler, NA, 999, 999, 8, 12, 90, 123, 57, 77, 100, 152, 3, 1.13296
289, 3, bw, filler, NA, 999, 999, 8, 12, 90, 123, 57, 77, 100, 152, 2, 0.4946
289, 3, bw, attraction, a-b-db, 2, 3, 8, 13, 119, 193, 195, 120, 120, 195, 2, 0.752433
289, 3, bw, attraction, a-b-db, 2, 3, 8, 13, 119, 193, 195, 120, 120, 195, 1, 0.993502
289, 3, bw, attraction, a-b-db, 14, 2, 8, 14, 90, 165, 83, 153, 165, 90, 3, 1.55125
289, 3, bw, attraction, a-b-db, 14, 2, 8, 14, 90, 165, 83, 153, 165, 90, 1, 0.655901
289, 3, bw, attraction, a-b-db, 9, 3, 8, 15, 195, 120, 120, 195, 114, 186, 2, 4.60372
289, 3, bw, attraction, a-b-db, 9, 3, 8, 15, 195, 120, 120, 195, 114, 186, 3, 0.353496
289, 3, bw, attraction, a-b-db, 9, 2, 8, 16, 90, 165, 86, 157, 165, 90, 3, 3.45749
289, 3, bw, attraction, a-b-db, 9, 2, 8, 16, 90, 165, 86, 157, 165, 90, 2, 0.308998
289, 3, bw, attraction, a-b-db, 5, 3, 8, 17, 195, 120, 117, 190, 120, 195, 1, 0.9582
289, 3, bw, attraction, a-b-db, 5, 3, 8, 17, 195, 120, 117, 190, 120, 195, 3, 0.806492
289, 3, bw, attraction, a-b-db, 2, 2, 8, 18, 90, 165, 89, 163, 165, 90, 3, 3.59625
289, 3, bw, attraction, a-b-db, 2, 2, 8, 18, 90, 165, 89, 163, 165, 90, 2, 0.43433
289, 3, bw, filler, NA, 999, 999, 8, 19, 162, 89, 112, 76, 187, 106, 3, 0.846746
289, 3, bw, filler, NA, 999, 999, 8, 19, 162, 89, 112, 76, 187, 106, 2, 0.491795
289, 3, bw, filler, NA, 999, 999, 8, 20, 57, 185, 107, 59, 119, 125, 3, 1.06967
289, 3, bw, filler, NA, 999, 999, 8, 20, 57, 185, 107, 59, 119, 125, 2, 0.561892
289, 3, bw, filler, NA, 999, 999, 8, 21, 89, 116, 73, 99, 59, 60, 1, 0.752998
289, 3, bw, filler, NA, 999, 999, 8, 21, 89, 116, 73, 99, 59, 60, 3, 0.602246
289, 3, bw, attraction, a-b-da, 5, 1, 8, 22, 132, 58, 135, 60, 60, 135, 2, 1.83985
289, 3, bw, attraction, a-b-da, 5, 1, 8, 22, 132, 58, 135, 60, 60, 135, 1, 0.604551
289, 3, bw, attraction, a-b-da, 9, 2, 8, 23, 165, 90, 90, 165, 157, 86, 1, 1.37837
289, 3, bw, attraction, a-b-da, 9, 2, 8, 23, 165, 90, 90, 165, 157, 86, 3, 0.625904
289, 3, bw, filler, NA, 999, 999, 8, 24, 125, 185, 124, 74, 65, 77, 1, 1.02226
289, 3, bw, filler, NA, 999, 999, 8, 24, 125, 185, 124, 74, 65, 77, 3, 0.563988
289, 3, bw, filler, NA, 999, 999, 8, 25, 126, 183, 103, 100, 162, 140, 3, 0.795085
289, 3, bw, filler, NA, 999, 999, 8, 25, 126, 183, 103, 100, 162, 140, 2, 0.466133
289, 3, bw, filler, NA, 999, 999, 8, 26, 126, 155, 65, 142, 187, 124, 3, 0.717261
289, 3, bw, filler, NA, 999, 999, 8, 26, 126, 155, 65, 142, 187, 124, 2, 0.567661
289, 3, bw, attraction, a-b-db, 2, 1, 8, 27, 59, 134, 60, 135, 135, 60, 3, 1.51079
289, 3, bw, attraction, a-b-db, 2, 1, 8, 27, 59, 134, 60, 135, 135, 60, 2, 0.432934
289, 3, bw, attraction, a-b-da, 5, 3, 8, 28, 195, 120, 120, 195, 190, 117, 1, 1.08548
289, 3, bw, attraction, a-b-da, 5, 3, 8, 28, 195, 120, 120, 195, 190, 117, 3, 0.520978
289, 3, bw, attraction, a-b-da, 14, 1, 8, 29, 135, 60, 125, 56, 60, 135, 1, 0.810231
289, 3, bw, attraction, a-b-da, 14, 1, 8, 29, 135, 60, 125, 56, 60, 135, 2, 0.78474
289, 3, bw, filler, NA, 999, 999, 8, 30, 98, 69, 139, 135, 75, 72, 2, 0.678922
289, 3, bw, filler, NA, 999, 999, 8, 30, 98, 69, 139, 135, 75, 72, 3, 0.562744
289, 3, bw, filler, NA, 999, 999, 8, 31, 187, 102, 120, 69, 121, 83, 1, 0.473822
289, 3, bw, filler, NA, 999, 999, 8, 31, 187, 102, 120, 69, 121, 83, 2, 0.525663
289, 3, bw, attraction, a-b-db, 5, 1, 8, 32, 135, 60, 60, 135, 58, 132, 2, 0.934038
289, 3, bw, attraction, a-b-db, 5, 1, 8, 32, 135, 60, 60, 135, 58, 132, 3, 0.75974
289, 3, bw, attraction, a-b-da, 2, 2, 8, 33, 90, 165, 163, 89, 165, 90, 2, 1.21472
289, 3, bw, attraction, a-b-da, 2, 2, 8, 33, 90, 165, 163, 89, 165, 90, 1, 0.596999
289, 3, bw, attraction, a-b-da, 2, 1, 8, 34, 134, 59, 60, 135, 135, 60, 1, 5.75478
289, 3, bw, attraction, a-b-da, 2, 1, 8, 34, 134, 59, 60, 135, 135, 60, 3, 0.674217
289, 3, bw, attraction, a-b-db, 9, 1, 8, 35, 135, 60, 60, 135, 57, 129, 1, 3.01268
289, 3, bw, attraction, a-b-db, 9, 1, 8, 35, 135, 60, 60, 135, 57, 129, 3, 0.866448
289, 3, bw, attraction, a-b-da, 14, 2, 8, 36, 90, 165, 153, 83, 165, 90, 1, 1.87738
289, 3, bw, attraction, a-b-da, 14, 2, 8, 36, 90, 165, 153, 83, 165, 90, 2, 0.592804
289, 3, bw, catch, NA, 999, 999, 8, 37, 76, 119, 154, 161, 123, 132, 2, 5.6305
289, 3, bw, catch, NA, 999, 999, 8, 37, 76, 119, 154, 161, 123, 132, 1, 0.650702
