sub_n, computer_n, bw_cond, effect, set, distance, diag, block_n, trial_n, h1, w1, h2, w2, h3, w3, choice, rt 
27, 3, bw, practice, NA, 999, 999, 0, 1, 151, 184, 187, 176, 172, 138, 2, 4.80671
27, 3, bw, practice, NA, 999, 999, 0, 1, 151, 184, 187, 176, 172, 138, 1, 3.45475
27, 3, bw, practice, NA, 999, 999, 0, 2, 151, 174, 124, 128, 71, 78, 1, 4.15889
27, 3, bw, practice, NA, 999, 999, 0, 2, 151, 174, 124, 128, 71, 78, 3, 1.55107
27, 3, bw, practice, NA, 999, 999, 0, 3, 140, 89, 73, 151, 110, 192, 3, 2.6647
27, 3, bw, practice, NA, 999, 999, 0, 3, 140, 89, 73, 151, 110, 192, 2, 3.5176
27, 3, bw, filler, NA, 999, 999, 1, 1, 162, 188, 75, 62, 75, 151, 1, 3.7058
27, 3, bw, filler, NA, 999, 999, 1, 1, 162, 188, 75, 62, 75, 151, 2, 1.86134
27, 3, bw, attraction, a-b-da, 14, 3, 1, 2, 181, 111, 120, 195, 195, 120, 2, 6.81681
27, 3, bw, attraction, a-b-da, 14, 3, 1, 2, 181, 111, 120, 195, 195, 120, 1, 1.81982
27, 3, bw, filler, NA, 999, 999, 1, 3, 179, 82, 190, 130, 158, 101, 2, 1.92989
27, 3, bw, filler, NA, 999, 999, 1, 3, 179, 82, 190, 130, 158, 101, 1, 5.41118
27, 3, bw, catch, NA, 999, 999, 1, 4, 102, 93, 190, 125, 114, 141, 2, 2.13425
27, 3, bw, catch, NA, 999, 999, 1, 4, 102, 93, 190, 125, 114, 141, 1, 1.08655
27, 3, bw, attraction, a-b-db, 9, 1, 1, 5, 135, 60, 60, 135, 57, 129, 2, 8.18716
27, 3, bw, attraction, a-b-db, 9, 1, 1, 5, 135, 60, 60, 135, 57, 129, 3, 5.3684
27, 3, bw, attraction, a-b-db, 9, 3, 1, 6, 114, 186, 120, 195, 195, 120, 2, 7.89273
27, 3, bw, attraction, a-b-db, 9, 3, 1, 6, 114, 186, 120, 195, 195, 120, 1, 4.90474
27, 3, bw, attraction, a-b-db, 2, 2, 1, 7, 90, 165, 165, 90, 89, 163, 3, 6.79914
27, 3, bw, attraction, a-b-db, 2, 2, 1, 7, 90, 165, 165, 90, 89, 163, 2, 0.771737
27, 3, bw, attraction, a-b-da, 9, 3, 1, 8, 195, 120, 186, 114, 120, 195, 3, 4.49936
27, 3, bw, attraction, a-b-da, 9, 3, 1, 8, 195, 120, 186, 114, 120, 195, 2, 0.750124
27, 3, bw, attraction, a-b-da, 9, 1, 1, 9, 135, 60, 129, 57, 60, 135, 1, 3.40347
27, 3, bw, attraction, a-b-da, 9, 1, 1, 9, 135, 60, 129, 57, 60, 135, 2, 4.10711
27, 3, bw, catch, NA, 999, 999, 1, 10, 159, 156, 71, 124, 91, 164, 1, 1.50088
27, 3, bw, catch, NA, 999, 999, 1, 10, 159, 156, 71, 124, 91, 164, 2, 1.20264
27, 3, bw, attraction, a-b-db, 9, 2, 1, 11, 86, 157, 90, 165, 165, 90, 2, 10.2833
27, 3, bw, attraction, a-b-db, 9, 2, 1, 11, 86, 157, 90, 165, 165, 90, 1, 0.68495
27, 3, bw, filler, NA, 999, 999, 1, 12, 108, 154, 85, 90, 130, 95, 1, 2.28797
27, 3, bw, filler, NA, 999, 999, 1, 12, 108, 154, 85, 90, 130, 95, 2, 0.60271
27, 3, bw, catch, NA, 999, 999, 1, 13, 132, 183, 68, 127, 99, 156, 1, 2.17579
27, 3, bw, catch, NA, 999, 999, 1, 13, 132, 183, 68, 127, 99, 156, 2, 0.8482
27, 3, bw, attraction, a-b-da, 2, 1, 1, 14, 134, 59, 135, 60, 60, 135, 2, 4.22125
27, 3, bw, attraction, a-b-da, 2, 1, 1, 14, 134, 59, 135, 60, 60, 135, 3, 0.880033
27, 3, bw, attraction, a-b-db, 14, 3, 1, 15, 120, 195, 195, 120, 111, 181, 2, 1.78132
27, 3, bw, attraction, a-b-db, 14, 3, 1, 15, 120, 195, 195, 120, 111, 181, 3, 2.21811
27, 3, bw, filler, NA, 999, 999, 1, 16, 81, 78, 152, 191, 141, 72, 2, 1.61532
27, 3, bw, filler, NA, 999, 999, 1, 16, 81, 78, 152, 191, 141, 72, 1, 0.749057
27, 3, bw, filler, NA, 999, 999, 1, 17, 120, 104, 178, 173, 186, 141, 2, 2.16603
27, 3, bw, filler, NA, 999, 999, 1, 17, 120, 104, 178, 173, 186, 141, 1, 0.63027
27, 3, bw, attraction, a-b-db, 2, 1, 1, 18, 135, 60, 59, 134, 60, 135, 3, 3.60433
27, 3, bw, attraction, a-b-db, 2, 1, 1, 18, 135, 60, 59, 134, 60, 135, 2, 0.753322
27, 3, bw, filler, NA, 999, 999, 1, 19, 78, 172, 67, 167, 65, 72, 1, 2.66734
27, 3, bw, filler, NA, 999, 999, 1, 19, 78, 172, 67, 167, 65, 72, 3, 0.943187
27, 3, bw, filler, NA, 999, 999, 1, 20, 94, 134, 157, 162, 122, 169, 2, 2.7168
27, 3, bw, filler, NA, 999, 999, 1, 20, 94, 134, 157, 162, 122, 169, 1, 0.681541
27, 3, bw, attraction, a-b-da, 14, 2, 1, 21, 165, 90, 153, 83, 90, 165, 3, 3.15446
27, 3, bw, attraction, a-b-da, 14, 2, 1, 21, 165, 90, 153, 83, 90, 165, 2, 0.921719
27, 3, bw, attraction, a-b-db, 14, 2, 1, 22, 83, 153, 90, 165, 165, 90, 2, 2.83645
27, 3, bw, attraction, a-b-db, 14, 2, 1, 22, 83, 153, 90, 165, 165, 90, 1, 0.720462
27, 3, bw, attraction, a-b-da, 9, 2, 1, 23, 157, 86, 165, 90, 90, 165, 2, 3.28822
27, 3, bw, attraction, a-b-da, 9, 2, 1, 23, 157, 86, 165, 90, 90, 165, 1, 0.795042
27, 3, bw, filler, NA, 999, 999, 1, 24, 159, 121, 148, 135, 81, 164, 2, 2.06047
27, 3, bw, filler, NA, 999, 999, 1, 24, 159, 121, 148, 135, 81, 164, 3, 0.791511
27, 3, bw, attraction, a-b-db, 2, 3, 1, 25, 120, 195, 119, 193, 195, 120, 2, 2.3268
27, 3, bw, attraction, a-b-db, 2, 3, 1, 25, 120, 195, 119, 193, 195, 120, 3, 0.725814
27, 3, bw, attraction, a-b-db, 5, 2, 1, 26, 90, 165, 88, 161, 165, 90, 3, 11.2713
27, 3, bw, attraction, a-b-db, 5, 2, 1, 26, 90, 165, 88, 161, 165, 90, 1, 2.36794
27, 3, bw, attraction, a-b-da, 5, 3, 1, 27, 190, 117, 120, 195, 195, 120, 2, 2.13662
27, 3, bw, attraction, a-b-da, 5, 3, 1, 27, 190, 117, 120, 195, 195, 120, 1, 0.743592
27, 3, bw, filler, NA, 999, 999, 1, 28, 94, 169, 70, 76, 163, 90, 1, 1.99329
27, 3, bw, filler, NA, 999, 999, 1, 28, 94, 169, 70, 76, 163, 90, 2, 0.534099
27, 3, bw, attraction, a-b-da, 14, 1, 1, 29, 135, 60, 125, 56, 60, 135, 3, 6.75214
27, 3, bw, attraction, a-b-da, 14, 1, 1, 29, 135, 60, 125, 56, 60, 135, 2, 0.592342
27, 3, bw, attraction, a-b-db, 5, 3, 1, 30, 117, 190, 195, 120, 120, 195, 3, 5.32693
27, 3, bw, attraction, a-b-db, 5, 3, 1, 30, 117, 190, 195, 120, 120, 195, 2, 1.63027
27, 3, bw, attraction, a-b-da, 5, 2, 1, 31, 165, 90, 90, 165, 161, 88, 2, 5.93789
27, 3, bw, attraction, a-b-da, 5, 2, 1, 31, 165, 90, 90, 165, 161, 88, 3, 1.04328
27, 3, bw, filler, NA, 999, 999, 1, 32, 81, 121, 166, 114, 180, 177, 3, 1.66257
27, 3, bw, filler, NA, 999, 999, 1, 32, 81, 121, 166, 114, 180, 177, 1, 0.73132
27, 3, bw, attraction, a-b-db, 5, 1, 1, 33, 58, 132, 135, 60, 60, 135, 3, 2.30216
27, 3, bw, attraction, a-b-db, 5, 1, 1, 33, 58, 132, 135, 60, 60, 135, 1, 0.791262
27, 3, bw, attraction, a-b-da, 2, 2, 1, 34, 163, 89, 165, 90, 90, 165, 3, 2.11086
27, 3, bw, attraction, a-b-da, 2, 2, 1, 34, 163, 89, 165, 90, 90, 165, 1, 0.753211
27, 3, bw, attraction, a-b-da, 2, 3, 1, 35, 120, 195, 193, 119, 195, 120, 3, 1.54406
27, 3, bw, attraction, a-b-da, 2, 3, 1, 35, 120, 195, 193, 119, 195, 120, 2, 2.1921
27, 3, bw, attraction, a-b-da, 5, 1, 1, 36, 132, 58, 60, 135, 135, 60, 3, 2.0725
27, 3, bw, attraction, a-b-da, 5, 1, 1, 36, 132, 58, 60, 135, 135, 60, 1, 0.845777
27, 3, bw, attraction, a-b-db, 14, 1, 1, 37, 135, 60, 56, 125, 60, 135, 1, 3.43785
27, 3, bw, attraction, a-b-db, 14, 1, 1, 37, 135, 60, 56, 125, 60, 135, 2, 0.628841
27, 3, bw, attraction, a-b-da, 5, 2, 2, 1, 165, 90, 161, 88, 90, 165, 3, 3.12095
27, 3, bw, attraction, a-b-da, 5, 2, 2, 1, 165, 90, 161, 88, 90, 165, 2, 0.603606
27, 3, bw, attraction, a-b-db, 14, 1, 2, 2, 60, 135, 56, 125, 135, 60, 3, 1.75349
27, 3, bw, attraction, a-b-db, 14, 1, 2, 2, 60, 135, 56, 125, 135, 60, 2, 0.681563
27, 3, bw, attraction, a-b-db, 9, 3, 2, 3, 114, 186, 195, 120, 120, 195, 3, 1.89249
27, 3, bw, attraction, a-b-db, 9, 3, 2, 3, 114, 186, 195, 120, 120, 195, 2, 0.662089
27, 3, bw, filler, NA, 999, 999, 2, 4, 73, 140, 167, 148, 96, 149, 2, 1.61878
27, 3, bw, filler, NA, 999, 999, 2, 4, 73, 140, 167, 148, 96, 149, 1, 0.600768
27, 3, bw, attraction, a-b-da, 14, 2, 2, 5, 153, 83, 90, 165, 165, 90, 3, 6.09625
27, 3, bw, attraction, a-b-da, 14, 2, 2, 5, 153, 83, 90, 165, 165, 90, 1, 1.2005
27, 3, bw, attraction, a-b-db, 2, 3, 2, 6, 120, 195, 195, 120, 119, 193, 2, 5.91041
27, 3, bw, attraction, a-b-db, 2, 3, 2, 6, 120, 195, 195, 120, 119, 193, 3, 0.886747
27, 3, bw, filler, NA, 999, 999, 2, 7, 174, 179, 105, 57, 84, 179, 1, 1.5296
27, 3, bw, filler, NA, 999, 999, 2, 7, 174, 179, 105, 57, 84, 179, 2, 0.644351
27, 3, bw, filler, NA, 999, 999, 2, 8, 78, 112, 172, 161, 177, 71, 2, 1.43159
27, 3, bw, filler, NA, 999, 999, 2, 8, 78, 112, 172, 161, 177, 71, 1, 0.558342
27, 3, bw, attraction, a-b-db, 5, 1, 2, 9, 135, 60, 60, 135, 58, 132, 1, 4.30203
27, 3, bw, attraction, a-b-db, 5, 1, 2, 9, 135, 60, 60, 135, 58, 132, 2, 1.02375
27, 3, bw, catch, NA, 999, 999, 2, 10, 129, 186, 122, 73, 121, 134, 1, 2.03798
27, 3, bw, catch, NA, 999, 999, 2, 10, 129, 186, 122, 73, 121, 134, 2, 0.706318
27, 3, bw, attraction, a-b-db, 5, 2, 2, 11, 165, 90, 88, 161, 90, 165, 3, 4.66742
27, 3, bw, attraction, a-b-db, 5, 2, 2, 11, 165, 90, 88, 161, 90, 165, 2, 1.16568
27, 3, bw, catch, NA, 999, 999, 2, 12, 135, 180, 143, 112, 107, 88, 1, 1.59867
27, 3, bw, catch, NA, 999, 999, 2, 12, 135, 180, 143, 112, 107, 88, 3, 0.876505
27, 3, bw, filler, NA, 999, 999, 2, 13, 123, 58, 98, 70, 124, 62, 3, 4.43776
27, 3, bw, filler, NA, 999, 999, 2, 13, 123, 58, 98, 70, 124, 62, 1, 0.653243
27, 3, bw, attraction, a-b-da, 9, 2, 2, 14, 90, 165, 157, 86, 165, 90, 3, 4.6728
27, 3, bw, attraction, a-b-da, 9, 2, 2, 14, 90, 165, 157, 86, 165, 90, 2, 0.65729
27, 3, bw, attraction, a-b-da, 9, 3, 2, 15, 120, 195, 195, 120, 186, 114, 1, 2.72006
27, 3, bw, attraction, a-b-da, 9, 3, 2, 15, 120, 195, 195, 120, 186, 114, 3, 2.1596
27, 3, bw, attraction, a-b-db, 14, 2, 2, 16, 83, 153, 90, 165, 165, 90, 2, 2.91076
27, 3, bw, attraction, a-b-db, 14, 2, 2, 16, 83, 153, 90, 165, 165, 90, 1, 1.33086
27, 3, bw, attraction, a-b-db, 2, 2, 2, 17, 89, 163, 165, 90, 90, 165, 2, 17.3786
27, 3, bw, attraction, a-b-db, 2, 2, 2, 17, 89, 163, 165, 90, 90, 165, 3, 0.940464
27, 3, bw, filler, NA, 999, 999, 2, 18, 84, 63, 159, 84, 87, 166, 3, 2.4551
27, 3, bw, filler, NA, 999, 999, 2, 18, 84, 63, 159, 84, 87, 166, 1, 0.636656
27, 3, bw, attraction, a-b-db, 9, 2, 2, 19, 86, 157, 90, 165, 165, 90, 3, 3.40737
27, 3, bw, attraction, a-b-db, 9, 2, 2, 19, 86, 157, 90, 165, 165, 90, 1, 1.2277
27, 3, bw, attraction, a-b-da, 9, 1, 2, 20, 60, 135, 129, 57, 135, 60, 3, 1.9231
27, 3, bw, attraction, a-b-da, 9, 1, 2, 20, 60, 135, 129, 57, 135, 60, 2, 0.739327
27, 3, bw, attraction, a-b-da, 14, 3, 2, 21, 195, 120, 120, 195, 181, 111, 2, 5.22834
27, 3, bw, attraction, a-b-da, 14, 3, 2, 21, 195, 120, 120, 195, 181, 111, 3, 0.80337
27, 3, bw, filler, NA, 999, 999, 2, 22, 90, 116, 63, 98, 165, 57, 3, 1.95097
27, 3, bw, filler, NA, 999, 999, 2, 22, 90, 116, 63, 98, 165, 57, 2, 0.889647
27, 3, bw, attraction, a-b-db, 9, 1, 2, 23, 57, 129, 60, 135, 135, 60, 2, 3.04285
27, 3, bw, attraction, a-b-db, 9, 1, 2, 23, 57, 129, 60, 135, 135, 60, 1, 0.698242
27, 3, bw, catch, NA, 999, 999, 2, 24, 86, 109, 113, 142, 149, 166, 3, 1.44927
27, 3, bw, catch, NA, 999, 999, 2, 24, 86, 109, 113, 142, 149, 166, 1, 0.702638
27, 3, bw, attraction, a-b-da, 5, 3, 2, 25, 195, 120, 120, 195, 190, 117, 2, 4.36648
27, 3, bw, attraction, a-b-da, 5, 3, 2, 25, 195, 120, 120, 195, 190, 117, 3, 0.672494
27, 3, bw, attraction, a-b-db, 5, 3, 2, 26, 117, 190, 120, 195, 195, 120, 2, 2.09231
27, 3, bw, attraction, a-b-db, 5, 3, 2, 26, 117, 190, 120, 195, 195, 120, 3, 2.02141
27, 3, bw, attraction, a-b-da, 2, 3, 2, 27, 120, 195, 195, 120, 193, 119, 2, 5.05063
27, 3, bw, attraction, a-b-da, 2, 3, 2, 27, 120, 195, 195, 120, 193, 119, 1, 1.16494
27, 3, bw, attraction, a-b-da, 5, 1, 2, 28, 135, 60, 60, 135, 132, 58, 1, 2.72523
27, 3, bw, attraction, a-b-da, 5, 1, 2, 28, 135, 60, 60, 135, 132, 58, 3, 0.878829
27, 3, bw, attraction, a-b-da, 14, 1, 2, 29, 60, 135, 125, 56, 135, 60, 3, 2.8168
27, 3, bw, attraction, a-b-da, 14, 1, 2, 29, 60, 135, 125, 56, 135, 60, 1, 0.991392
27, 3, bw, attraction, a-b-da, 2, 2, 2, 30, 163, 89, 165, 90, 90, 165, 3, 2.15857
27, 3, bw, attraction, a-b-da, 2, 2, 2, 30, 163, 89, 165, 90, 90, 165, 1, 0.647668
27, 3, bw, filler, NA, 999, 999, 2, 31, 158, 195, 130, 153, 136, 138, 1, 1.60425
27, 3, bw, filler, NA, 999, 999, 2, 31, 158, 195, 130, 153, 136, 138, 3, 0.545651
27, 3, bw, filler, NA, 999, 999, 2, 32, 62, 181, 194, 137, 142, 108, 2, 1.49663
27, 3, bw, filler, NA, 999, 999, 2, 32, 62, 181, 194, 137, 142, 108, 1, 1.94195
27, 3, bw, filler, NA, 999, 999, 2, 33, 98, 190, 166, 74, 168, 164, 3, 1.22755
27, 3, bw, filler, NA, 999, 999, 2, 33, 98, 190, 166, 74, 168, 164, 2, 0.697343
27, 3, bw, filler, NA, 999, 999, 2, 34, 139, 57, 113, 169, 64, 70, 2, 1.92495
27, 3, bw, filler, NA, 999, 999, 2, 34, 139, 57, 113, 169, 64, 70, 3, 0.574867
27, 3, bw, attraction, a-b-da, 2, 1, 2, 35, 134, 59, 60, 135, 135, 60, 3, 3.15101
27, 3, bw, attraction, a-b-da, 2, 1, 2, 35, 134, 59, 60, 135, 135, 60, 2, 1.88632
27, 3, bw, attraction, a-b-db, 14, 3, 2, 36, 120, 195, 111, 181, 195, 120, 3, 1.88881
27, 3, bw, attraction, a-b-db, 14, 3, 2, 36, 120, 195, 111, 181, 195, 120, 2, 0.821083
27, 3, bw, attraction, a-b-db, 2, 1, 2, 37, 59, 134, 135, 60, 60, 135, 1, 2.62481
27, 3, bw, attraction, a-b-db, 2, 1, 2, 37, 59, 134, 135, 60, 60, 135, 2, 1.71062
27, 3, bw, filler, NA, 999, 999, 3, 1, 105, 94, 76, 167, 60, 61, 2, 1.81707
27, 3, bw, filler, NA, 999, 999, 3, 1, 105, 94, 76, 167, 60, 61, 3, 0.716986
27, 3, bw, catch, NA, 999, 999, 3, 2, 162, 153, 121, 74, 97, 158, 1, 1.18095
27, 3, bw, catch, NA, 999, 999, 3, 2, 162, 153, 121, 74, 97, 158, 2, 0.692626
27, 3, bw, filler, NA, 999, 999, 3, 3, 189, 153, 82, 137, 169, 162, 1, 8.21524
27, 3, bw, filler, NA, 999, 999, 3, 3, 189, 153, 82, 137, 169, 162, 2, 0.644074
27, 3, bw, attraction, a-b-db, 9, 3, 3, 4, 114, 186, 195, 120, 120, 195, 2, 3.36308
27, 3, bw, attraction, a-b-db, 9, 3, 3, 4, 114, 186, 195, 120, 120, 195, 1, 1.50413
27, 3, bw, catch, NA, 999, 999, 3, 5, 149, 166, 72, 123, 162, 93, 1, 1.75622
27, 3, bw, catch, NA, 999, 999, 3, 5, 149, 166, 72, 123, 162, 93, 2, 0.731797
27, 3, bw, attraction, a-b-da, 9, 3, 3, 6, 120, 195, 186, 114, 195, 120, 3, 1.44949
27, 3, bw, attraction, a-b-da, 9, 3, 3, 6, 120, 195, 186, 114, 195, 120, 2, 1.17617
27, 3, bw, attraction, a-b-da, 9, 2, 3, 7, 165, 90, 90, 165, 157, 86, 2, 1.95118
27, 3, bw, attraction, a-b-da, 9, 2, 3, 7, 165, 90, 90, 165, 157, 86, 3, 0.720656
27, 3, bw, attraction, a-b-db, 5, 2, 3, 8, 165, 90, 88, 161, 90, 165, 2, 1.6973
27, 3, bw, attraction, a-b-db, 5, 2, 3, 8, 165, 90, 88, 161, 90, 165, 1, 1.53938
27, 3, bw, attraction, a-b-da, 9, 1, 3, 9, 60, 135, 135, 60, 129, 57, 2, 2.62066
27, 3, bw, attraction, a-b-da, 9, 1, 3, 9, 60, 135, 135, 60, 129, 57, 1, 0.523517
27, 3, bw, attraction, a-b-db, 5, 3, 3, 10, 195, 120, 120, 195, 117, 190, 2, 6.13357
27, 3, bw, attraction, a-b-db, 5, 3, 3, 10, 195, 120, 120, 195, 117, 190, 3, 0.684671
27, 3, bw, attraction, a-b-db, 2, 1, 3, 11, 135, 60, 60, 135, 59, 134, 1, 3.21419
27, 3, bw, attraction, a-b-db, 2, 1, 3, 11, 135, 60, 60, 135, 59, 134, 3, 1.29851
27, 3, bw, attraction, a-b-db, 2, 3, 3, 12, 119, 193, 120, 195, 195, 120, 3, 5.58728
27, 3, bw, attraction, a-b-db, 2, 3, 3, 12, 119, 193, 120, 195, 195, 120, 1, 1.16976
27, 3, bw, attraction, a-b-da, 14, 1, 3, 13, 135, 60, 125, 56, 60, 135, 2, 2.87398
27, 3, bw, attraction, a-b-da, 14, 1, 3, 13, 135, 60, 125, 56, 60, 135, 3, 1.02976
27, 3, bw, catch, NA, 999, 999, 3, 14, 144, 171, 63, 132, 133, 122, 1, 3.00957
27, 3, bw, catch, NA, 999, 999, 3, 14, 144, 171, 63, 132, 133, 122, 2, 1.04128
27, 3, bw, attraction, a-b-da, 2, 2, 3, 15, 163, 89, 165, 90, 90, 165, 2, 2.37192
27, 3, bw, attraction, a-b-da, 2, 2, 3, 15, 163, 89, 165, 90, 90, 165, 1, 0.821278
27, 3, bw, attraction, a-b-da, 2, 3, 3, 16, 193, 119, 195, 120, 120, 195, 2, 1.3541
27, 3, bw, attraction, a-b-da, 2, 3, 3, 16, 193, 119, 195, 120, 120, 195, 1, 0.603529
27, 3, bw, attraction, a-b-db, 9, 1, 3, 17, 57, 129, 135, 60, 60, 135, 2, 1.44852
27, 3, bw, attraction, a-b-db, 9, 1, 3, 17, 57, 129, 135, 60, 60, 135, 1, 0.701556
27, 3, bw, filler, NA, 999, 999, 3, 18, 151, 146, 63, 123, 59, 176, 1, 1.28045
27, 3, bw, filler, NA, 999, 999, 3, 18, 151, 146, 63, 123, 59, 176, 2, 0.642866
27, 3, bw, attraction, a-b-da, 2, 1, 3, 19, 135, 60, 134, 59, 60, 135, 2, 3.32784
27, 3, bw, attraction, a-b-da, 2, 1, 3, 19, 135, 60, 134, 59, 60, 135, 1, 0.872061
27, 3, bw, attraction, a-b-da, 5, 1, 3, 20, 132, 58, 135, 60, 60, 135, 3, 4.95386
27, 3, bw, attraction, a-b-da, 5, 1, 3, 20, 132, 58, 135, 60, 60, 135, 1, 0.771964
27, 3, bw, filler, NA, 999, 999, 3, 21, 150, 171, 131, 161, 183, 155, 3, 1.55501
27, 3, bw, filler, NA, 999, 999, 3, 21, 150, 171, 131, 161, 183, 155, 2, 0.531098
27, 3, bw, filler, NA, 999, 999, 3, 22, 160, 65, 176, 184, 132, 174, 2, 1.73077
27, 3, bw, filler, NA, 999, 999, 3, 22, 160, 65, 176, 184, 132, 174, 1, 1.46984
27, 3, bw, filler, NA, 999, 999, 3, 23, 134, 127, 153, 144, 59, 87, 2, 1.65458
27, 3, bw, filler, NA, 999, 999, 3, 23, 134, 127, 153, 144, 59, 87, 3, 0.739508
27, 3, bw, attraction, a-b-db, 14, 3, 3, 24, 120, 195, 195, 120, 111, 181, 2, 2.73283
27, 3, bw, attraction, a-b-db, 14, 3, 3, 24, 120, 195, 195, 120, 111, 181, 3, 0.909858
27, 3, bw, attraction, a-b-db, 14, 2, 3, 25, 165, 90, 83, 153, 90, 165, 3, 2.93622
27, 3, bw, attraction, a-b-db, 14, 2, 3, 25, 165, 90, 83, 153, 90, 165, 2, 0.696527
27, 3, bw, attraction, a-b-db, 14, 1, 3, 26, 135, 60, 56, 125, 60, 135, 1, 2.16396
27, 3, bw, attraction, a-b-db, 14, 1, 3, 26, 135, 60, 56, 125, 60, 135, 2, 0.825378
27, 3, bw, filler, NA, 999, 999, 3, 27, 158, 81, 169, 110, 102, 99, 2, 1.51086
27, 3, bw, filler, NA, 999, 999, 3, 27, 158, 81, 169, 110, 102, 99, 3, 0.803816
27, 3, bw, attraction, a-b-da, 14, 3, 3, 28, 195, 120, 120, 195, 181, 111, 2, 1.69635
27, 3, bw, attraction, a-b-da, 14, 3, 3, 28, 195, 120, 120, 195, 181, 111, 3, 0.705902
27, 3, bw, attraction, a-b-db, 5, 1, 3, 29, 60, 135, 135, 60, 58, 132, 2, 6.98118
27, 3, bw, attraction, a-b-db, 5, 1, 3, 29, 60, 135, 135, 60, 58, 132, 1, 3.24247
27, 3, bw, attraction, a-b-db, 2, 2, 3, 30, 89, 163, 90, 165, 165, 90, 3, 2.01433
27, 3, bw, attraction, a-b-db, 2, 2, 3, 30, 89, 163, 90, 165, 165, 90, 1, 2.01962
27, 3, bw, attraction, a-b-da, 5, 3, 3, 31, 190, 117, 195, 120, 120, 195, 2, 1.73688
27, 3, bw, attraction, a-b-da, 5, 3, 3, 31, 190, 117, 195, 120, 120, 195, 1, 2.05871
27, 3, bw, attraction, a-b-da, 14, 2, 3, 32, 165, 90, 153, 83, 90, 165, 3, 4.94236
27, 3, bw, attraction, a-b-da, 14, 2, 3, 32, 165, 90, 153, 83, 90, 165, 2, 0.645494
27, 3, bw, filler, NA, 999, 999, 3, 33, 172, 162, 157, 140, 126, 183, 1, 1.97063
27, 3, bw, filler, NA, 999, 999, 3, 33, 172, 162, 157, 140, 126, 183, 2, 0.594746
27, 3, bw, attraction, a-b-db, 9, 2, 3, 34, 90, 165, 165, 90, 86, 157, 1, 3.03273
27, 3, bw, attraction, a-b-db, 9, 2, 3, 34, 90, 165, 165, 90, 86, 157, 2, 1.78068
27, 3, bw, attraction, a-b-da, 5, 2, 3, 35, 161, 88, 165, 90, 90, 165, 2, 1.72346
27, 3, bw, attraction, a-b-da, 5, 2, 3, 35, 161, 88, 165, 90, 90, 165, 1, 0.679942
27, 3, bw, filler, NA, 999, 999, 3, 36, 142, 145, 109, 127, 74, 88, 1, 1.47981
27, 3, bw, filler, NA, 999, 999, 3, 36, 142, 145, 109, 127, 74, 88, 3, 0.646252
27, 3, bw, filler, NA, 999, 999, 3, 37, 167, 189, 142, 83, 108, 184, 1, 3.12026
27, 3, bw, filler, NA, 999, 999, 3, 37, 167, 189, 142, 83, 108, 184, 2, 0.72418
27, 3, bw, attraction, a-b-da, 5, 3, 4, 1, 190, 117, 120, 195, 195, 120, 2, 2.44319
27, 3, bw, attraction, a-b-da, 5, 3, 4, 1, 190, 117, 120, 195, 195, 120, 1, 0.584724
27, 3, bw, attraction, a-b-da, 2, 3, 4, 2, 193, 119, 120, 195, 195, 120, 2, 2.30406
27, 3, bw, attraction, a-b-da, 2, 3, 4, 2, 193, 119, 120, 195, 195, 120, 1, 0.529286
27, 3, bw, attraction, a-b-da, 5, 1, 4, 3, 135, 60, 132, 58, 60, 135, 2, 2.35429
27, 3, bw, attraction, a-b-da, 5, 1, 4, 3, 135, 60, 132, 58, 60, 135, 3, 0.691935
27, 3, bw, attraction, a-b-da, 14, 2, 4, 4, 153, 83, 165, 90, 90, 165, 2, 1.28704
27, 3, bw, attraction, a-b-da, 14, 2, 4, 4, 153, 83, 165, 90, 90, 165, 1, 0.961938
27, 3, bw, attraction, a-b-da, 9, 2, 4, 5, 157, 86, 165, 90, 90, 165, 2, 1.37732
27, 3, bw, attraction, a-b-da, 9, 2, 4, 5, 157, 86, 165, 90, 90, 165, 1, 0.72986
27, 3, bw, catch, NA, 999, 999, 4, 6, 156, 159, 140, 115, 120, 75, 1, 1.87496
27, 3, bw, catch, NA, 999, 999, 4, 6, 156, 159, 140, 115, 120, 75, 3, 1.20726
27, 3, bw, filler, NA, 999, 999, 4, 7, 135, 82, 125, 84, 171, 62, 3, 1.43769
27, 3, bw, filler, NA, 999, 999, 4, 7, 135, 82, 125, 84, 171, 62, 1, 0.690033
27, 3, bw, attraction, a-b-db, 9, 3, 4, 8, 114, 186, 195, 120, 120, 195, 2, 2.21097
27, 3, bw, attraction, a-b-db, 9, 3, 4, 8, 114, 186, 195, 120, 120, 195, 1, 0.674362
27, 3, bw, filler, NA, 999, 999, 4, 9, 178, 159, 63, 86, 60, 172, 1, 1.34739
27, 3, bw, filler, NA, 999, 999, 4, 9, 178, 159, 63, 86, 60, 172, 2, 0.72608
27, 3, bw, attraction, a-b-db, 5, 3, 4, 10, 120, 195, 117, 190, 195, 120, 3, 1.31297
27, 3, bw, attraction, a-b-db, 5, 3, 4, 10, 120, 195, 117, 190, 195, 120, 1, 0.777511
27, 3, bw, attraction, a-b-db, 14, 1, 4, 11, 56, 125, 60, 135, 135, 60, 3, 1.59116
27, 3, bw, attraction, a-b-db, 14, 1, 4, 11, 56, 125, 60, 135, 135, 60, 1, 0.655461
27, 3, bw, attraction, a-b-db, 5, 2, 4, 12, 90, 165, 165, 90, 88, 161, 1, 5.81205
27, 3, bw, attraction, a-b-db, 5, 2, 4, 12, 90, 165, 165, 90, 88, 161, 3, 1.91252
27, 3, bw, attraction, a-b-db, 14, 3, 4, 13, 195, 120, 111, 181, 120, 195, 3, 2.16342
27, 3, bw, attraction, a-b-db, 14, 3, 4, 13, 195, 120, 111, 181, 120, 195, 1, 0.696637
27, 3, bw, attraction, a-b-da, 5, 2, 4, 14, 90, 165, 161, 88, 165, 90, 3, 2.37093
27, 3, bw, attraction, a-b-da, 5, 2, 4, 14, 90, 165, 161, 88, 165, 90, 1, 1.19699
27, 3, bw, attraction, a-b-da, 14, 1, 4, 15, 125, 56, 135, 60, 60, 135, 1, 1.34559
27, 3, bw, attraction, a-b-da, 14, 1, 4, 15, 125, 56, 135, 60, 60, 135, 3, 1.78719
27, 3, bw, filler, NA, 999, 999, 4, 16, 184, 178, 116, 99, 122, 192, 1, 1.17906
27, 3, bw, filler, NA, 999, 999, 4, 16, 184, 178, 116, 99, 122, 192, 2, 0.640195
27, 3, bw, catch, NA, 999, 999, 4, 17, 115, 80, 167, 148, 123, 132, 2, 1.31888
27, 3, bw, catch, NA, 999, 999, 4, 17, 115, 80, 167, 148, 123, 132, 1, 0.535434
27, 3, bw, attraction, a-b-db, 9, 1, 4, 18, 60, 135, 57, 129, 135, 60, 3, 1.776
27, 3, bw, attraction, a-b-db, 9, 1, 4, 18, 60, 135, 57, 129, 135, 60, 2, 1.76213
27, 3, bw, attraction, a-b-da, 2, 1, 4, 19, 135, 60, 60, 135, 134, 59, 3, 3.64623
27, 3, bw, attraction, a-b-da, 2, 1, 4, 19, 135, 60, 60, 135, 134, 59, 2, 1.26059
27, 3, bw, attraction, a-b-da, 14, 3, 4, 20, 195, 120, 120, 195, 181, 111, 2, 1.87761
27, 3, bw, attraction, a-b-da, 14, 3, 4, 20, 195, 120, 120, 195, 181, 111, 1, 0.668635
27, 3, bw, attraction, a-b-db, 5, 1, 4, 21, 135, 60, 58, 132, 60, 135, 3, 2.998
27, 3, bw, attraction, a-b-db, 5, 1, 4, 21, 135, 60, 58, 132, 60, 135, 2, 1.55651
27, 3, bw, attraction, a-b-db, 9, 2, 4, 22, 165, 90, 90, 165, 86, 157, 2, 5.51415
27, 3, bw, attraction, a-b-db, 9, 2, 4, 22, 165, 90, 90, 165, 86, 157, 1, 0.810707
27, 3, bw, filler, NA, 999, 999, 4, 23, 167, 181, 146, 100, 152, 158, 1, 1.46017
27, 3, bw, filler, NA, 999, 999, 4, 23, 167, 181, 146, 100, 152, 158, 2, 0.716989
27, 3, bw, catch, NA, 999, 999, 4, 24, 107, 88, 157, 98, 130, 185, 3, 1.54483
27, 3, bw, catch, NA, 999, 999, 4, 24, 107, 88, 157, 98, 130, 185, 1, 0.689592
27, 3, bw, attraction, a-b-db, 14, 2, 4, 25, 165, 90, 90, 165, 83, 153, 1, 1.71529
27, 3, bw, attraction, a-b-db, 14, 2, 4, 25, 165, 90, 90, 165, 83, 153, 3, 0.517917
27, 3, bw, attraction, a-b-da, 9, 3, 4, 26, 186, 114, 120, 195, 195, 120, 3, 1.55872
27, 3, bw, attraction, a-b-da, 9, 3, 4, 26, 186, 114, 120, 195, 195, 120, 1, 0.528003
27, 3, bw, filler, NA, 999, 999, 4, 27, 112, 60, 133, 125, 75, 128, 2, 1.48873
27, 3, bw, filler, NA, 999, 999, 4, 27, 112, 60, 133, 125, 75, 128, 1, 0.577937
27, 3, bw, attraction, a-b-db, 2, 1, 4, 28, 135, 60, 60, 135, 59, 134, 3, 1.82618
27, 3, bw, attraction, a-b-db, 2, 1, 4, 28, 135, 60, 60, 135, 59, 134, 2, 0.879768
27, 3, bw, filler, NA, 999, 999, 4, 29, 127, 160, 88, 157, 89, 138, 1, 1.41042
27, 3, bw, filler, NA, 999, 999, 4, 29, 127, 160, 88, 157, 89, 138, 3, 0.68374
27, 3, bw, attraction, a-b-da, 2, 2, 4, 30, 165, 90, 163, 89, 90, 165, 2, 3.14937
27, 3, bw, attraction, a-b-da, 2, 2, 4, 30, 165, 90, 163, 89, 90, 165, 1, 1.39073
27, 3, bw, filler, NA, 999, 999, 4, 31, 61, 159, 137, 189, 105, 100, 2, 1.44404
27, 3, bw, filler, NA, 999, 999, 4, 31, 61, 159, 137, 189, 105, 100, 1, 5.48999
27, 3, bw, filler, NA, 999, 999, 4, 32, 111, 171, 121, 184, 100, 175, 2, 1.36969
27, 3, bw, filler, NA, 999, 999, 4, 32, 111, 171, 121, 184, 100, 175, 3, 0.545343
27, 3, bw, attraction, a-b-db, 2, 3, 4, 33, 195, 120, 119, 193, 120, 195, 1, 3.30612
27, 3, bw, attraction, a-b-db, 2, 3, 4, 33, 195, 120, 119, 193, 120, 195, 3, 0.765275
27, 3, bw, attraction, a-b-db, 2, 2, 4, 34, 89, 163, 165, 90, 90, 165, 3, 2.69833
27, 3, bw, attraction, a-b-db, 2, 2, 4, 34, 89, 163, 165, 90, 90, 165, 1, 1.57405
27, 3, bw, filler, NA, 999, 999, 4, 35, 177, 67, 132, 132, 158, 179, 3, 1.262
27, 3, bw, filler, NA, 999, 999, 4, 35, 177, 67, 132, 132, 158, 179, 1, 0.585162
27, 3, bw, filler, NA, 999, 999, 4, 36, 169, 67, 129, 58, 86, 113, 1, 5.7438
27, 3, bw, filler, NA, 999, 999, 4, 36, 169, 67, 129, 58, 86, 113, 2, 2.31064
27, 3, bw, attraction, a-b-da, 9, 1, 4, 37, 129, 57, 135, 60, 60, 135, 2, 2.4555
27, 3, bw, attraction, a-b-da, 9, 1, 4, 37, 129, 57, 135, 60, 60, 135, 1, 0.638564
27, 3, bw, attraction, a-b-da, 2, 2, 5, 1, 163, 89, 90, 165, 165, 90, 2, 2.85775
27, 3, bw, attraction, a-b-da, 2, 2, 5, 1, 163, 89, 90, 165, 165, 90, 1, 0.701585
27, 3, bw, filler, NA, 999, 999, 5, 2, 96, 134, 104, 77, 60, 174, 1, 1.46086
27, 3, bw, filler, NA, 999, 999, 5, 2, 96, 134, 104, 77, 60, 174, 2, 0.619186
27, 3, bw, attraction, a-b-da, 2, 1, 5, 3, 135, 60, 134, 59, 60, 135, 2, 1.72883
27, 3, bw, attraction, a-b-da, 2, 1, 5, 3, 135, 60, 134, 59, 60, 135, 3, 0.743658
27, 3, bw, attraction, a-b-da, 14, 1, 5, 4, 135, 60, 60, 135, 125, 56, 2, 2.20099
27, 3, bw, attraction, a-b-da, 14, 1, 5, 4, 135, 60, 60, 135, 125, 56, 3, 1.46239
27, 3, bw, attraction, a-b-da, 9, 1, 5, 5, 135, 60, 60, 135, 129, 57, 2, 2.18767
27, 3, bw, attraction, a-b-da, 9, 1, 5, 5, 135, 60, 60, 135, 129, 57, 1, 0.513559
27, 3, bw, attraction, a-b-db, 2, 2, 5, 6, 90, 165, 165, 90, 89, 163, 2, 1.54792
27, 3, bw, attraction, a-b-db, 2, 2, 5, 6, 90, 165, 165, 90, 89, 163, 1, 0.948514
27, 3, bw, attraction, a-b-db, 9, 3, 5, 7, 195, 120, 120, 195, 114, 186, 2, 1.212
27, 3, bw, attraction, a-b-db, 9, 3, 5, 7, 195, 120, 120, 195, 114, 186, 3, 0.701538
27, 3, bw, filler, NA, 999, 999, 5, 8, 83, 138, 155, 134, 62, 179, 2, 1.17312
27, 3, bw, filler, NA, 999, 999, 5, 8, 83, 138, 155, 134, 62, 179, 3, 4.03798
27, 3, bw, catch, NA, 999, 999, 5, 9, 93, 162, 128, 67, 153, 162, 3, 2.36879
27, 3, bw, catch, NA, 999, 999, 5, 9, 93, 162, 128, 67, 153, 162, 2, 1.2901
27, 3, bw, catch, NA, 999, 999, 5, 10, 177, 138, 116, 79, 145, 110, 1, 1.30761
27, 3, bw, catch, NA, 999, 999, 5, 10, 177, 138, 116, 79, 145, 110, 2, 0.616689
27, 3, bw, attraction, a-b-db, 9, 2, 5, 11, 165, 90, 90, 165, 86, 157, 2, 8.78066
27, 3, bw, attraction, a-b-db, 9, 2, 5, 11, 165, 90, 90, 165, 86, 157, 3, 2.07142
27, 3, bw, attraction, a-b-db, 14, 2, 5, 12, 83, 153, 90, 165, 165, 90, 2, 5.14715
27, 3, bw, attraction, a-b-db, 14, 2, 5, 12, 83, 153, 90, 165, 165, 90, 1, 1.14855
27, 3, bw, attraction, a-b-da, 5, 3, 5, 13, 190, 117, 120, 195, 195, 120, 2, 2.12806
27, 3, bw, attraction, a-b-da, 5, 3, 5, 13, 190, 117, 120, 195, 195, 120, 1, 1.58013
27, 3, bw, attraction, a-b-db, 2, 1, 5, 14, 135, 60, 59, 134, 60, 135, 3, 9.20207
27, 3, bw, attraction, a-b-db, 2, 1, 5, 14, 135, 60, 59, 134, 60, 135, 1, 0.709169
27, 3, bw, filler, NA, 999, 999, 5, 15, 72, 179, 153, 175, 127, 148, 2, 1.32825
27, 3, bw, filler, NA, 999, 999, 5, 15, 72, 179, 153, 175, 127, 148, 1, 1.7865
27, 3, bw, filler, NA, 999, 999, 5, 16, 72, 150, 72, 171, 154, 71, 3, 1.42381
27, 3, bw, filler, NA, 999, 999, 5, 16, 72, 150, 72, 171, 154, 71, 1, 0.693558
27, 3, bw, attraction, a-b-da, 2, 3, 5, 17, 195, 120, 120, 195, 193, 119, 2, 2.31347
27, 3, bw, attraction, a-b-da, 2, 3, 5, 17, 195, 120, 120, 195, 193, 119, 3, 0.760991
27, 3, bw, attraction, a-b-da, 5, 2, 5, 18, 165, 90, 90, 165, 161, 88, 2, 3.32899
27, 3, bw, attraction, a-b-da, 5, 2, 5, 18, 165, 90, 90, 165, 161, 88, 3, 5.31627
27, 3, bw, filler, NA, 999, 999, 5, 19, 92, 82, 173, 72, 161, 71, 2, 2.27372
27, 3, bw, filler, NA, 999, 999, 5, 19, 92, 82, 173, 72, 161, 71, 1, 0.633187
27, 3, bw, attraction, a-b-db, 14, 1, 5, 20, 56, 125, 60, 135, 135, 60, 3, 1.31499
27, 3, bw, attraction, a-b-db, 14, 1, 5, 20, 56, 125, 60, 135, 135, 60, 1, 0.51693
27, 3, bw, attraction, a-b-db, 5, 2, 5, 21, 90, 165, 165, 90, 88, 161, 3, 2.3747
27, 3, bw, attraction, a-b-db, 5, 2, 5, 21, 90, 165, 165, 90, 88, 161, 1, 0.590121
27, 3, bw, attraction, a-b-db, 2, 3, 5, 22, 195, 120, 119, 193, 120, 195, 2, 1.38057
27, 3, bw, attraction, a-b-db, 2, 3, 5, 22, 195, 120, 119, 193, 120, 195, 3, 0.940919
27, 3, bw, filler, NA, 999, 999, 5, 23, 87, 121, 113, 103, 103, 164, 3, 1.47688
27, 3, bw, filler, NA, 999, 999, 5, 23, 87, 121, 113, 103, 103, 164, 1, 1.16996
27, 3, bw, attraction, a-b-da, 14, 3, 5, 24, 120, 195, 195, 120, 181, 111, 1, 1.92888
27, 3, bw, attraction, a-b-da, 14, 3, 5, 24, 120, 195, 195, 120, 181, 111, 3, 0.728081
27, 3, bw, attraction, a-b-db, 5, 3, 5, 25, 117, 190, 120, 195, 195, 120, 2, 1.52076
27, 3, bw, attraction, a-b-db, 5, 3, 5, 25, 117, 190, 120, 195, 195, 120, 1, 1.71794
27, 3, bw, attraction, a-b-da, 9, 3, 5, 26, 120, 195, 195, 120, 186, 114, 2, 1.57319
27, 3, bw, attraction, a-b-da, 9, 3, 5, 26, 120, 195, 195, 120, 186, 114, 3, 0.973433
27, 3, bw, filler, NA, 999, 999, 5, 27, 145, 179, 63, 99, 59, 113, 1, 1.35746
27, 3, bw, filler, NA, 999, 999, 5, 27, 145, 179, 63, 99, 59, 113, 2, 0.646798
27, 3, bw, attraction, a-b-da, 14, 2, 5, 28, 90, 165, 153, 83, 165, 90, 3, 1.3371
27, 3, bw, attraction, a-b-da, 14, 2, 5, 28, 90, 165, 153, 83, 165, 90, 2, 1.18712
27, 3, bw, attraction, a-b-db, 14, 3, 5, 29, 195, 120, 111, 181, 120, 195, 3, 2.02743
27, 3, bw, attraction, a-b-db, 14, 3, 5, 29, 195, 120, 111, 181, 120, 195, 2, 0.839219
27, 3, bw, attraction, a-b-db, 5, 1, 5, 30, 58, 132, 135, 60, 60, 135, 2, 1.98554
27, 3, bw, attraction, a-b-db, 5, 1, 5, 30, 58, 132, 135, 60, 60, 135, 1, 0.6733
27, 3, bw, attraction, a-b-da, 5, 1, 5, 31, 60, 135, 135, 60, 132, 58, 2, 1.74076
27, 3, bw, attraction, a-b-da, 5, 1, 5, 31, 60, 135, 135, 60, 132, 58, 3, 1.96879
27, 3, bw, filler, NA, 999, 999, 5, 32, 191, 179, 73, 118, 178, 77, 1, 1.16669
27, 3, bw, filler, NA, 999, 999, 5, 32, 191, 179, 73, 118, 178, 77, 2, 0.660745
27, 3, bw, filler, NA, 999, 999, 5, 33, 176, 187, 134, 65, 65, 67, 1, 1.9037
27, 3, bw, filler, NA, 999, 999, 5, 33, 176, 187, 134, 65, 65, 67, 3, 0.909667
27, 3, bw, attraction, a-b-da, 9, 2, 5, 34, 157, 86, 165, 90, 90, 165, 2, 1.30156
27, 3, bw, attraction, a-b-da, 9, 2, 5, 34, 157, 86, 165, 90, 90, 165, 1, 0.610706
27, 3, bw, attraction, a-b-db, 9, 1, 5, 35, 57, 129, 135, 60, 60, 135, 3, 1.64001
27, 3, bw, attraction, a-b-db, 9, 1, 5, 35, 57, 129, 135, 60, 60, 135, 1, 0.706303
27, 3, bw, catch, NA, 999, 999, 5, 36, 113, 82, 124, 131, 134, 181, 3, 1.81289
27, 3, bw, catch, NA, 999, 999, 5, 36, 113, 82, 124, 131, 134, 181, 1, 0.587956
27, 3, bw, filler, NA, 999, 999, 5, 37, 153, 107, 150, 172, 68, 176, 2, 2.12316
27, 3, bw, filler, NA, 999, 999, 5, 37, 153, 107, 150, 172, 68, 176, 3, 0.96539
27, 3, bw, attraction, a-b-db, 9, 3, 6, 1, 120, 195, 114, 186, 195, 120, 2, 6.0107
27, 3, bw, attraction, a-b-db, 9, 3, 6, 1, 120, 195, 114, 186, 195, 120, 1, 0.626336
27, 3, bw, attraction, a-b-db, 2, 1, 6, 2, 135, 60, 59, 134, 60, 135, 1, 2.41388
27, 3, bw, attraction, a-b-db, 2, 1, 6, 2, 135, 60, 59, 134, 60, 135, 3, 0.746978
27, 3, bw, attraction, a-b-db, 2, 2, 6, 3, 89, 163, 165, 90, 90, 165, 3, 4.67496
27, 3, bw, attraction, a-b-db, 2, 2, 6, 3, 89, 163, 165, 90, 90, 165, 2, 0.920327
27, 3, bw, attraction, a-b-db, 14, 1, 6, 4, 135, 60, 56, 125, 60, 135, 1, 1.44804
27, 3, bw, attraction, a-b-db, 14, 1, 6, 4, 135, 60, 56, 125, 60, 135, 2, 2.15121
27, 3, bw, filler, NA, 999, 999, 6, 5, 119, 74, 118, 151, 85, 70, 2, 1.24566
27, 3, bw, filler, NA, 999, 999, 6, 5, 119, 74, 118, 151, 85, 70, 3, 0.611187
27, 3, bw, attraction, a-b-da, 5, 3, 6, 6, 190, 117, 195, 120, 120, 195, 2, 2.56166
27, 3, bw, attraction, a-b-da, 5, 3, 6, 6, 190, 117, 195, 120, 120, 195, 3, 0.543594
27, 3, bw, catch, NA, 999, 999, 6, 7, 126, 189, 75, 120, 115, 140, 1, 2.5832
27, 3, bw, catch, NA, 999, 999, 6, 7, 126, 189, 75, 120, 115, 140, 2, 0.58467
27, 3, bw, attraction, a-b-db, 5, 1, 6, 8, 58, 132, 135, 60, 60, 135, 2, 2.24677
27, 3, bw, attraction, a-b-db, 5, 1, 6, 8, 58, 132, 135, 60, 60, 135, 1, 0.624513
27, 3, bw, attraction, a-b-db, 5, 2, 6, 9, 90, 165, 88, 161, 165, 90, 3, 2.18215
27, 3, bw, attraction, a-b-db, 5, 2, 6, 9, 90, 165, 88, 161, 165, 90, 1, 0.58075
27, 3, bw, filler, NA, 999, 999, 6, 10, 103, 83, 171, 94, 135, 67, 2, 1.75577
27, 3, bw, filler, NA, 999, 999, 6, 10, 103, 83, 171, 94, 135, 67, 1, 1.23005
27, 3, bw, catch, NA, 999, 999, 6, 11, 72, 123, 120, 195, 117, 138, 2, 1.05992
27, 3, bw, catch, NA, 999, 999, 6, 11, 72, 123, 120, 195, 117, 138, 1, 0.671588
27, 3, bw, attraction, a-b-da, 9, 3, 6, 12, 186, 114, 120, 195, 195, 120, 2, 1.64954
27, 3, bw, attraction, a-b-da, 9, 3, 6, 12, 186, 114, 120, 195, 195, 120, 1, 1.59256
27, 3, bw, filler, NA, 999, 999, 6, 13, 117, 170, 110, 81, 86, 152, 1, 1.2458
27, 3, bw, filler, NA, 999, 999, 6, 13, 117, 170, 110, 81, 86, 152, 2, 0.636509
27, 3, bw, attraction, a-b-da, 14, 1, 6, 14, 135, 60, 125, 56, 60, 135, 1, 2.12816
27, 3, bw, attraction, a-b-da, 14, 1, 6, 14, 135, 60, 125, 56, 60, 135, 2, 0.863183
27, 3, bw, attraction, a-b-da, 14, 3, 6, 15, 120, 195, 181, 111, 195, 120, 3, 2.02069
27, 3, bw, attraction, a-b-da, 14, 3, 6, 15, 120, 195, 181, 111, 195, 120, 2, 0.754933
27, 3, bw, filler, NA, 999, 999, 6, 16, 58, 167, 96, 167, 108, 175, 3, 2.00304
27, 3, bw, filler, NA, 999, 999, 6, 16, 58, 167, 96, 167, 108, 175, 1, 0.719463
27, 3, bw, catch, NA, 999, 999, 6, 17, 99, 96, 98, 157, 142, 173, 3, 1.32051
27, 3, bw, catch, NA, 999, 999, 6, 17, 99, 96, 98, 157, 142, 173, 1, 0.625792
27, 3, bw, attraction, a-b-da, 9, 2, 6, 18, 165, 90, 90, 165, 157, 86, 2, 1.88828
27, 3, bw, attraction, a-b-da, 9, 2, 6, 18, 165, 90, 90, 165, 157, 86, 3, 1.19641
27, 3, bw, attraction, a-b-db, 14, 2, 6, 19, 90, 165, 165, 90, 83, 153, 2, 2.01003
27, 3, bw, attraction, a-b-db, 14, 2, 6, 19, 90, 165, 165, 90, 83, 153, 3, 0.752399
27, 3, bw, attraction, a-b-da, 2, 3, 6, 20, 120, 195, 193, 119, 195, 120, 3, 1.46431
27, 3, bw, attraction, a-b-da, 2, 3, 6, 20, 120, 195, 193, 119, 195, 120, 2, 0.628878
27, 3, bw, filler, NA, 999, 999, 6, 21, 172, 96, 147, 61, 70, 178, 1, 1.33211
27, 3, bw, filler, NA, 999, 999, 6, 21, 172, 96, 147, 61, 70, 178, 2, 0.83621
27, 3, bw, filler, NA, 999, 999, 6, 22, 70, 133, 144, 68, 64, 158, 2, 1.58427
27, 3, bw, filler, NA, 999, 999, 6, 22, 70, 133, 144, 68, 64, 158, 1, 0.526415
27, 3, bw, attraction, a-b-da, 5, 2, 6, 23, 161, 88, 90, 165, 165, 90, 3, 1.96043
27, 3, bw, attraction, a-b-da, 5, 2, 6, 23, 161, 88, 90, 165, 165, 90, 1, 0.85673
27, 3, bw, attraction, a-b-da, 2, 1, 6, 24, 135, 60, 60, 135, 134, 59, 2, 1.50127
27, 3, bw, attraction, a-b-da, 2, 1, 6, 24, 135, 60, 60, 135, 134, 59, 1, 0.527574
27, 3, bw, attraction, a-b-db, 5, 3, 6, 25, 120, 195, 195, 120, 117, 190, 2, 1.3291
27, 3, bw, attraction, a-b-db, 5, 3, 6, 25, 120, 195, 195, 120, 117, 190, 3, 0.689981
27, 3, bw, attraction, a-b-db, 14, 3, 6, 26, 195, 120, 120, 195, 111, 181, 2, 1.66812
27, 3, bw, attraction, a-b-db, 14, 3, 6, 26, 195, 120, 120, 195, 111, 181, 3, 0.960944
27, 3, bw, attraction, a-b-da, 14, 2, 6, 27, 165, 90, 90, 165, 153, 83, 2, 4.65744
27, 3, bw, attraction, a-b-da, 14, 2, 6, 27, 165, 90, 90, 165, 153, 83, 3, 0.651882
27, 3, bw, attraction, a-b-db, 9, 2, 6, 28, 165, 90, 90, 165, 86, 157, 2, 2.19363
27, 3, bw, attraction, a-b-db, 9, 2, 6, 28, 165, 90, 90, 165, 86, 157, 3, 1.06357
27, 3, bw, attraction, a-b-da, 9, 1, 6, 29, 129, 57, 135, 60, 60, 135, 2, 1.83397
27, 3, bw, attraction, a-b-da, 9, 1, 6, 29, 129, 57, 135, 60, 60, 135, 1, 1.79263
27, 3, bw, attraction, a-b-db, 2, 3, 6, 30, 119, 193, 195, 120, 120, 195, 2, 2.54232
27, 3, bw, attraction, a-b-db, 2, 3, 6, 30, 119, 193, 195, 120, 120, 195, 1, 0.663838
27, 3, bw, filler, NA, 999, 999, 6, 31, 77, 110, 116, 91, 195, 156, 3, 1.25757
27, 3, bw, filler, NA, 999, 999, 6, 31, 77, 110, 116, 91, 195, 156, 1, 0.919883
27, 3, bw, attraction, a-b-da, 2, 2, 6, 32, 165, 90, 90, 165, 163, 89, 2, 1.9134
27, 3, bw, attraction, a-b-da, 2, 2, 6, 32, 165, 90, 90, 165, 163, 89, 3, 0.644112
27, 3, bw, filler, NA, 999, 999, 6, 33, 173, 73, 161, 91, 92, 117, 2, 1.60961
27, 3, bw, filler, NA, 999, 999, 6, 33, 173, 73, 161, 91, 92, 117, 3, 0.574826
27, 3, bw, attraction, a-b-db, 9, 1, 6, 34, 60, 135, 57, 129, 135, 60, 3, 5.23694
27, 3, bw, attraction, a-b-db, 9, 1, 6, 34, 60, 135, 57, 129, 135, 60, 2, 0.760924
27, 3, bw, attraction, a-b-da, 5, 1, 6, 35, 135, 60, 60, 135, 132, 58, 3, 1.49847
27, 3, bw, attraction, a-b-da, 5, 1, 6, 35, 135, 60, 60, 135, 132, 58, 2, 3.65118
27, 3, bw, filler, NA, 999, 999, 6, 36, 151, 115, 106, 167, 113, 130, 2, 1.77503
27, 3, bw, filler, NA, 999, 999, 6, 36, 151, 115, 106, 167, 113, 130, 3, 0.863814
27, 3, bw, filler, NA, 999, 999, 6, 37, 190, 157, 91, 81, 61, 80, 1, 1.09079
27, 3, bw, filler, NA, 999, 999, 6, 37, 190, 157, 91, 81, 61, 80, 3, 0.854898
27, 3, bw, filler, NA, 999, 999, 7, 1, 149, 128, 165, 58, 128, 174, 3, 1.5796
27, 3, bw, filler, NA, 999, 999, 7, 1, 149, 128, 165, 58, 128, 174, 2, 0.721624
27, 3, bw, attraction, a-b-da, 9, 2, 7, 2, 165, 90, 157, 86, 90, 165, 2, 1.58637
27, 3, bw, attraction, a-b-da, 9, 2, 7, 2, 165, 90, 157, 86, 90, 165, 1, 0.539748
27, 3, bw, filler, NA, 999, 999, 7, 3, 183, 120, 117, 191, 116, 184, 2, 1.25802
27, 3, bw, filler, NA, 999, 999, 7, 3, 183, 120, 117, 191, 116, 184, 1, 0.743334
27, 3, bw, attraction, a-b-db, 14, 2, 7, 4, 165, 90, 83, 153, 90, 165, 3, 2.36032
27, 3, bw, attraction, a-b-db, 14, 2, 7, 4, 165, 90, 83, 153, 90, 165, 2, 1.68857
27, 3, bw, catch, NA, 999, 999, 7, 5, 158, 97, 69, 126, 172, 143, 3, 1.1462
27, 3, bw, catch, NA, 999, 999, 7, 5, 158, 97, 69, 126, 172, 143, 2, 0.691649
27, 3, bw, filler, NA, 999, 999, 7, 6, 110, 131, 176, 76, 183, 117, 3, 1.271
27, 3, bw, filler, NA, 999, 999, 7, 6, 110, 131, 176, 76, 183, 117, 2, 0.899621
27, 3, bw, attraction, a-b-da, 2, 2, 7, 7, 163, 89, 90, 165, 165, 90, 2, 1.52609
27, 3, bw, attraction, a-b-da, 2, 2, 7, 7, 163, 89, 90, 165, 165, 90, 1, 0.81391
27, 3, bw, attraction, a-b-db, 2, 3, 7, 8, 119, 193, 195, 120, 120, 195, 2, 3.73072
27, 3, bw, attraction, a-b-db, 2, 3, 7, 8, 119, 193, 195, 120, 120, 195, 1, 0.57435
27, 3, bw, filler, NA, 999, 999, 7, 9, 73, 130, 106, 95, 58, 121, 2, 2.00194
27, 3, bw, filler, NA, 999, 999, 7, 9, 73, 130, 106, 95, 58, 121, 3, 1.44197
27, 3, bw, filler, NA, 999, 999, 7, 10, 185, 194, 57, 175, 144, 75, 1, 1.2691
27, 3, bw, filler, NA, 999, 999, 7, 10, 185, 194, 57, 175, 144, 75, 2, 2.24999
27, 3, bw, filler, NA, 999, 999, 7, 11, 75, 100, 116, 188, 178, 184, 3, 1.48662
27, 3, bw, filler, NA, 999, 999, 7, 11, 75, 100, 116, 188, 178, 184, 1, 0.690299
27, 3, bw, attraction, a-b-da, 9, 3, 7, 12, 195, 120, 186, 114, 120, 195, 3, 3.06133
27, 3, bw, attraction, a-b-da, 9, 3, 7, 12, 195, 120, 186, 114, 120, 195, 2, 1.51837
27, 3, bw, attraction, a-b-da, 9, 1, 7, 13, 60, 135, 129, 57, 135, 60, 3, 1.80669
27, 3, bw, attraction, a-b-da, 9, 1, 7, 13, 60, 135, 129, 57, 135, 60, 1, 0.84566
27, 3, bw, filler, NA, 999, 999, 7, 14, 159, 162, 138, 92, 75, 131, 1, 1.62031
27, 3, bw, filler, NA, 999, 999, 7, 14, 159, 162, 138, 92, 75, 131, 3, 0.667403
27, 3, bw, filler, NA, 999, 999, 7, 15, 140, 99, 130, 185, 194, 182, 3, 1.1872
27, 3, bw, filler, NA, 999, 999, 7, 15, 140, 99, 130, 185, 194, 182, 1, 0.597374
27, 3, bw, attraction, a-b-db, 9, 1, 7, 16, 135, 60, 60, 135, 57, 129, 1, 4.42507
27, 3, bw, attraction, a-b-db, 9, 1, 7, 16, 135, 60, 60, 135, 57, 129, 2, 0.83976
27, 3, bw, attraction, a-b-db, 5, 3, 7, 17, 117, 190, 195, 120, 120, 195, 3, 2.02089
27, 3, bw, attraction, a-b-db, 5, 3, 7, 17, 117, 190, 195, 120, 120, 195, 1, 0.625909
27, 3, bw, attraction, a-b-da, 2, 3, 7, 18, 120, 195, 193, 119, 195, 120, 3, 1.35038
27, 3, bw, attraction, a-b-da, 2, 3, 7, 18, 120, 195, 193, 119, 195, 120, 1, 0.536397
27, 3, bw, catch, NA, 999, 999, 7, 19, 153, 102, 173, 142, 83, 112, 2, 1.44924
27, 3, bw, catch, NA, 999, 999, 7, 19, 153, 102, 173, 142, 83, 112, 3, 0.62791
27, 3, bw, attraction, a-b-da, 2, 1, 7, 20, 135, 60, 134, 59, 60, 135, 3, 1.3155
27, 3, bw, attraction, a-b-da, 2, 1, 7, 20, 135, 60, 134, 59, 60, 135, 2, 0.652922
27, 3, bw, attraction, a-b-db, 5, 1, 7, 21, 135, 60, 60, 135, 58, 132, 3, 3.05517
27, 3, bw, attraction, a-b-db, 5, 1, 7, 21, 135, 60, 60, 135, 58, 132, 2, 0.933771
27, 3, bw, attraction, a-b-db, 14, 3, 7, 22, 120, 195, 195, 120, 111, 181, 2, 2.26212
27, 3, bw, attraction, a-b-db, 14, 3, 7, 22, 120, 195, 195, 120, 111, 181, 3, 0.752934
27, 3, bw, filler, NA, 999, 999, 7, 23, 146, 178, 169, 147, 123, 121, 2, 1.52239
27, 3, bw, filler, NA, 999, 999, 7, 23, 146, 178, 169, 147, 123, 121, 3, 0.763635
27, 3, bw, attraction, a-b-da, 14, 1, 7, 24, 125, 56, 60, 135, 135, 60, 3, 1.3228
27, 3, bw, attraction, a-b-da, 14, 1, 7, 24, 125, 56, 60, 135, 135, 60, 1, 0.60388
27, 3, bw, attraction, a-b-db, 2, 2, 7, 25, 89, 163, 165, 90, 90, 165, 2, 1.53695
27, 3, bw, attraction, a-b-db, 2, 2, 7, 25, 89, 163, 165, 90, 90, 165, 1, 0.723368
27, 3, bw, attraction, a-b-da, 14, 3, 7, 26, 181, 111, 120, 195, 195, 120, 2, 1.80717
27, 3, bw, attraction, a-b-da, 14, 3, 7, 26, 181, 111, 120, 195, 195, 120, 1, 0.548813
27, 3, bw, filler, NA, 999, 999, 7, 27, 100, 59, 113, 56, 102, 152, 3, 1.43542
27, 3, bw, filler, NA, 999, 999, 7, 27, 100, 59, 113, 56, 102, 152, 1, 0.857296
27, 3, bw, attraction, a-b-da, 5, 3, 7, 28, 190, 117, 195, 120, 120, 195, 2, 2.59579
27, 3, bw, attraction, a-b-da, 5, 3, 7, 28, 190, 117, 195, 120, 120, 195, 1, 1.21135
27, 3, bw, attraction, a-b-db, 9, 2, 7, 29, 86, 157, 165, 90, 90, 165, 2, 2.57769
27, 3, bw, attraction, a-b-db, 9, 2, 7, 29, 86, 157, 165, 90, 90, 165, 1, 1.48054
27, 3, bw, catch, NA, 999, 999, 7, 30, 161, 94, 73, 122, 125, 190, 3, 1.25155
27, 3, bw, catch, NA, 999, 999, 7, 30, 161, 94, 73, 122, 125, 190, 2, 0.609479
27, 3, bw, attraction, a-b-db, 5, 2, 7, 31, 90, 165, 165, 90, 88, 161, 2, 1.15844
27, 3, bw, attraction, a-b-db, 5, 2, 7, 31, 90, 165, 165, 90, 88, 161, 1, 1.2632
27, 3, bw, attraction, a-b-da, 14, 2, 7, 32, 153, 83, 90, 165, 165, 90, 2, 1.35569
27, 3, bw, attraction, a-b-da, 14, 2, 7, 32, 153, 83, 90, 165, 165, 90, 1, 0.716253
27, 3, bw, attraction, a-b-db, 2, 1, 7, 33, 60, 135, 135, 60, 59, 134, 3, 1.54874
27, 3, bw, attraction, a-b-db, 2, 1, 7, 33, 60, 135, 135, 60, 59, 134, 2, 0.646294
27, 3, bw, attraction, a-b-db, 9, 3, 7, 34, 120, 195, 195, 120, 114, 186, 2, 1.12994
27, 3, bw, attraction, a-b-db, 9, 3, 7, 34, 120, 195, 195, 120, 114, 186, 1, 0.658853
27, 3, bw, attraction, a-b-da, 5, 1, 7, 35, 60, 135, 135, 60, 132, 58, 1, 2.58241
27, 3, bw, attraction, a-b-da, 5, 1, 7, 35, 60, 135, 135, 60, 132, 58, 2, 0.886816
27, 3, bw, attraction, a-b-da, 5, 2, 7, 36, 161, 88, 165, 90, 90, 165, 3, 1.33706
27, 3, bw, attraction, a-b-da, 5, 2, 7, 36, 161, 88, 165, 90, 90, 165, 2, 0.698393
27, 3, bw, attraction, a-b-db, 14, 1, 7, 37, 60, 135, 135, 60, 56, 125, 1, 1.62972
27, 3, bw, attraction, a-b-db, 14, 1, 7, 37, 60, 135, 135, 60, 56, 125, 2, 0.721267
27, 3, bw, filler, NA, 999, 999, 8, 1, 183, 106, 90, 142, 85, 145, 1, 1.3617
27, 3, bw, filler, NA, 999, 999, 8, 1, 183, 106, 90, 142, 85, 145, 2, 0.738683
27, 3, bw, filler, NA, 999, 999, 8, 2, 172, 184, 103, 159, 119, 180, 1, 1.11466
27, 3, bw, filler, NA, 999, 999, 8, 2, 172, 184, 103, 159, 119, 180, 2, 0.604851
27, 3, bw, filler, NA, 999, 999, 8, 3, 144, 91, 69, 82, 64, 135, 1, 1.32385
27, 3, bw, filler, NA, 999, 999, 8, 3, 144, 91, 69, 82, 64, 135, 2, 0.76423
27, 3, bw, attraction, a-b-db, 9, 1, 8, 4, 135, 60, 60, 135, 57, 129, 2, 2.70907
27, 3, bw, attraction, a-b-db, 9, 1, 8, 4, 135, 60, 60, 135, 57, 129, 3, 0.7677
27, 3, bw, catch, NA, 999, 999, 8, 5, 99, 156, 192, 123, 75, 120, 2, 1.1522
27, 3, bw, catch, NA, 999, 999, 8, 5, 99, 156, 192, 123, 75, 120, 3, 0.590265
27, 3, bw, attraction, a-b-da, 5, 1, 8, 6, 60, 135, 132, 58, 135, 60, 3, 1.44581
27, 3, bw, attraction, a-b-da, 5, 1, 8, 6, 60, 135, 132, 58, 135, 60, 2, 0.714865
27, 3, bw, attraction, a-b-db, 14, 2, 8, 7, 90, 165, 83, 153, 165, 90, 1, 1.62879
27, 3, bw, attraction, a-b-db, 14, 2, 8, 7, 90, 165, 83, 153, 165, 90, 2, 0.617664
27, 3, bw, attraction, a-b-db, 5, 2, 8, 8, 165, 90, 90, 165, 88, 161, 2, 1.2705
27, 3, bw, attraction, a-b-db, 5, 2, 8, 8, 165, 90, 90, 165, 88, 161, 3, 0.541089
27, 3, bw, attraction, a-b-da, 9, 3, 8, 9, 195, 120, 186, 114, 120, 195, 2, 1.21095
27, 3, bw, attraction, a-b-da, 9, 3, 8, 9, 195, 120, 186, 114, 120, 195, 1, 1.3954
27, 3, bw, attraction, a-b-da, 9, 1, 8, 10, 60, 135, 129, 57, 135, 60, 3, 1.95164
27, 3, bw, attraction, a-b-da, 9, 1, 8, 10, 60, 135, 129, 57, 135, 60, 2, 0.705596
27, 3, bw, attraction, a-b-da, 14, 2, 8, 11, 90, 165, 153, 83, 165, 90, 3, 1.73842
27, 3, bw, attraction, a-b-da, 14, 2, 8, 11, 90, 165, 153, 83, 165, 90, 2, 2.33134
27, 3, bw, filler, NA, 999, 999, 8, 12, 167, 173, 186, 97, 190, 68, 1, 2.42828
27, 3, bw, filler, NA, 999, 999, 8, 12, 167, 173, 186, 97, 190, 68, 3, 0.690299
27, 3, bw, attraction, a-b-da, 2, 2, 8, 13, 163, 89, 165, 90, 90, 165, 3, 2.75928
27, 3, bw, attraction, a-b-da, 2, 2, 8, 13, 163, 89, 165, 90, 90, 165, 1, 0.548023
27, 3, bw, attraction, a-b-da, 2, 1, 8, 14, 60, 135, 134, 59, 135, 60, 2, 7.11716
27, 3, bw, attraction, a-b-da, 2, 1, 8, 14, 60, 135, 134, 59, 135, 60, 1, 0.64649
27, 3, bw, attraction, a-b-db, 5, 3, 8, 15, 117, 190, 195, 120, 120, 195, 2, 3.72202
27, 3, bw, attraction, a-b-db, 5, 3, 8, 15, 117, 190, 195, 120, 120, 195, 1, 1.14858
27, 3, bw, attraction, a-b-da, 5, 3, 8, 16, 195, 120, 120, 195, 190, 117, 2, 1.73088
27, 3, bw, attraction, a-b-da, 5, 3, 8, 16, 195, 120, 120, 195, 190, 117, 1, 0.715823
27, 3, bw, attraction, a-b-db, 2, 2, 8, 17, 90, 165, 165, 90, 89, 163, 3, 2.25281
27, 3, bw, attraction, a-b-db, 2, 2, 8, 17, 90, 165, 165, 90, 89, 163, 1, 1.61795
27, 3, bw, filler, NA, 999, 999, 8, 18, 134, 159, 104, 71, 80, 141, 1, 1.27045
27, 3, bw, filler, NA, 999, 999, 8, 18, 134, 159, 104, 71, 80, 141, 2, 0.690531
27, 3, bw, attraction, a-b-da, 14, 1, 8, 19, 60, 135, 135, 60, 125, 56, 2, 1.36488
27, 3, bw, attraction, a-b-da, 14, 1, 8, 19, 60, 135, 135, 60, 125, 56, 1, 0.741339
27, 3, bw, filler, NA, 999, 999, 8, 20, 148, 60, 120, 174, 74, 65, 2, 1.24607
27, 3, bw, filler, NA, 999, 999, 8, 20, 148, 60, 120, 174, 74, 65, 3, 0.76221
27, 3, bw, attraction, a-b-db, 5, 1, 8, 21, 58, 132, 135, 60, 60, 135, 3, 1.9234
27, 3, bw, attraction, a-b-db, 5, 1, 8, 21, 58, 132, 135, 60, 60, 135, 1, 0.876892
27, 3, bw, attraction, a-b-db, 14, 1, 8, 22, 135, 60, 60, 135, 56, 125, 1, 2.56056
27, 3, bw, attraction, a-b-db, 14, 1, 8, 22, 135, 60, 60, 135, 56, 125, 2, 1.07211
27, 3, bw, attraction, a-b-db, 9, 2, 8, 23, 86, 157, 165, 90, 90, 165, 2, 1.14824
27, 3, bw, attraction, a-b-db, 9, 2, 8, 23, 86, 157, 165, 90, 90, 165, 1, 0.772706
27, 3, bw, attraction, a-b-db, 9, 3, 8, 24, 195, 120, 120, 195, 114, 186, 2, 2.08313
27, 3, bw, attraction, a-b-db, 9, 3, 8, 24, 195, 120, 120, 195, 114, 186, 3, 0.66263
27, 3, bw, attraction, a-b-da, 9, 2, 8, 25, 157, 86, 165, 90, 90, 165, 2, 1.56935
27, 3, bw, attraction, a-b-da, 9, 2, 8, 25, 157, 86, 165, 90, 90, 165, 1, 0.580333
27, 3, bw, catch, NA, 999, 999, 8, 26, 93, 162, 162, 153, 61, 134, 2, 1.06686
27, 3, bw, catch, NA, 999, 999, 8, 26, 93, 162, 162, 153, 61, 134, 3, 0.756574
27, 3, bw, catch, NA, 999, 999, 8, 27, 111, 84, 141, 174, 91, 164, 2, 1.03032
27, 3, bw, catch, NA, 999, 999, 8, 27, 111, 84, 141, 174, 91, 164, 1, 0.57114
27, 3, bw, attraction, a-b-da, 14, 3, 8, 28, 195, 120, 181, 111, 120, 195, 3, 1.96083
27, 3, bw, attraction, a-b-da, 14, 3, 8, 28, 195, 120, 181, 111, 120, 195, 2, 1.5396
27, 3, bw, attraction, a-b-da, 2, 3, 8, 29, 120, 195, 195, 120, 193, 119, 3, 1.68398
27, 3, bw, attraction, a-b-da, 2, 3, 8, 29, 120, 195, 195, 120, 193, 119, 1, 2.04078
27, 3, bw, filler, NA, 999, 999, 8, 30, 116, 192, 195, 160, 142, 189, 2, 1.17233
27, 3, bw, filler, NA, 999, 999, 8, 30, 116, 192, 195, 160, 142, 189, 1, 1.34548
27, 3, bw, filler, NA, 999, 999, 8, 31, 149, 157, 152, 86, 116, 72, 1, 1.39544
27, 3, bw, filler, NA, 999, 999, 8, 31, 149, 157, 152, 86, 116, 72, 3, 0.625156
27, 3, bw, attraction, a-b-db, 14, 3, 8, 32, 111, 181, 120, 195, 195, 120, 2, 3.88884
27, 3, bw, attraction, a-b-db, 14, 3, 8, 32, 111, 181, 120, 195, 195, 120, 1, 0.664943
27, 3, bw, filler, NA, 999, 999, 8, 33, 162, 104, 131, 139, 75, 161, 2, 2.17216
27, 3, bw, filler, NA, 999, 999, 8, 33, 162, 104, 131, 139, 75, 161, 3, 0.540398
27, 3, bw, filler, NA, 999, 999, 8, 34, 107, 131, 169, 116, 139, 96, 2, 2.1669
27, 3, bw, filler, NA, 999, 999, 8, 34, 107, 131, 169, 116, 139, 96, 1, 0.620069
27, 3, bw, attraction, a-b-db, 2, 3, 8, 35, 119, 193, 120, 195, 195, 120, 2, 2.10479
27, 3, bw, attraction, a-b-db, 2, 3, 8, 35, 119, 193, 120, 195, 195, 120, 1, 0.605581
27, 3, bw, attraction, a-b-db, 2, 1, 8, 36, 59, 134, 60, 135, 135, 60, 3, 1.34775
27, 3, bw, attraction, a-b-db, 2, 1, 8, 36, 59, 134, 60, 135, 135, 60, 1, 0.547689
27, 3, bw, attraction, a-b-da, 5, 2, 8, 37, 165, 90, 161, 88, 90, 165, 3, 1.63493
27, 3, bw, attraction, a-b-da, 5, 2, 8, 37, 165, 90, 161, 88, 90, 165, 2, 0.56466
