sub_n, computer_n, bw_cond, effect, set, distance, diag, block_n, trial_n, h1, w1, h2, w2, h3, w3, choice, rt 
201, 3, bw, practice, NA, 999, 999, 0, 1, 195, 118, 147, 149, 168, 182, 3, 8.14094
201, 3, bw, practice, NA, 999, 999, 0, 1, 195, 118, 147, 149, 168, 182, 2, 9.62566
201, 3, bw, practice, NA, 999, 999, 0, 2, 79, 111, 97, 60, 118, 65, 1, 3.98542
201, 3, bw, practice, NA, 999, 999, 0, 2, 79, 111, 97, 60, 118, 65, 2, 2.95867
201, 3, bw, practice, NA, 999, 999, 0, 3, 80, 132, 109, 166, 68, 179, 2, 2.48396
201, 3, bw, practice, NA, 999, 999, 0, 3, 80, 132, 109, 166, 68, 179, 1, 5.87322
201, 3, bw, filler, NA, 999, 999, 1, 1, 163, 171, 139, 117, 65, 109, 1, 2.35014
201, 3, bw, filler, NA, 999, 999, 1, 1, 163, 171, 139, 117, 65, 109, 3, 1.41479
201, 3, bw, attraction, a-b-da, 9, 1, 1, 2, 60, 135, 135, 60, 129, 57, 1, 9.66773
201, 3, bw, attraction, a-b-da, 9, 1, 1, 2, 60, 135, 135, 60, 129, 57, 3, 2.86923
201, 3, bw, attraction, a-b-da, 14, 1, 1, 3, 125, 56, 60, 135, 135, 60, 3, 5.46352
201, 3, bw, attraction, a-b-da, 14, 1, 1, 3, 125, 56, 60, 135, 135, 60, 1, 1.47466
201, 3, bw, attraction, a-b-da, 14, 2, 1, 4, 165, 90, 90, 165, 153, 83, 2, 10.0366
201, 3, bw, attraction, a-b-da, 14, 2, 1, 4, 165, 90, 90, 165, 153, 83, 3, 1.95948
201, 3, bw, attraction, a-b-db, 2, 1, 1, 5, 60, 135, 59, 134, 135, 60, 1, 6.39023
201, 3, bw, attraction, a-b-db, 2, 1, 1, 5, 60, 135, 59, 134, 135, 60, 2, 5.49949
201, 3, bw, filler, NA, 999, 999, 1, 6, 195, 162, 134, 194, 99, 98, 1, 1.54767
201, 3, bw, filler, NA, 999, 999, 1, 6, 195, 162, 134, 194, 99, 98, 3, 1.16451
201, 3, bw, filler, NA, 999, 999, 1, 7, 92, 56, 82, 122, 123, 181, 3, 1.03541
201, 3, bw, filler, NA, 999, 999, 1, 7, 92, 56, 82, 122, 123, 181, 1, 0.976995
201, 3, bw, attraction, a-b-db, 9, 3, 1, 8, 195, 120, 120, 195, 114, 186, 2, 2.46334
201, 3, bw, attraction, a-b-db, 9, 3, 1, 8, 195, 120, 120, 195, 114, 186, 3, 1.54724
201, 3, bw, filler, NA, 999, 999, 1, 9, 184, 135, 155, 61, 150, 141, 1, 1.34677
201, 3, bw, filler, NA, 999, 999, 1, 9, 184, 135, 155, 61, 150, 141, 2, 0.707556
201, 3, bw, attraction, a-b-da, 5, 3, 1, 10, 195, 120, 120, 195, 190, 117, 2, 3.16459
201, 3, bw, attraction, a-b-da, 5, 3, 1, 10, 195, 120, 120, 195, 190, 117, 3, 0.660342
201, 3, bw, catch, NA, 999, 999, 1, 11, 76, 119, 156, 159, 107, 148, 2, 1.06338
201, 3, bw, catch, NA, 999, 999, 1, 11, 76, 119, 156, 159, 107, 148, 1, 0.859648
201, 3, bw, attraction, a-b-da, 2, 2, 1, 12, 90, 165, 165, 90, 163, 89, 1, 1.83066
201, 3, bw, attraction, a-b-da, 2, 2, 1, 12, 90, 165, 165, 90, 163, 89, 2, 2.54012
201, 3, bw, attraction, a-b-db, 9, 1, 1, 13, 57, 129, 135, 60, 60, 135, 3, 2.20382
201, 3, bw, attraction, a-b-db, 9, 1, 1, 13, 57, 129, 135, 60, 60, 135, 2, 1.57053
201, 3, bw, attraction, a-b-db, 5, 2, 1, 14, 165, 90, 90, 165, 88, 161, 2, 2.22518
201, 3, bw, attraction, a-b-db, 5, 2, 1, 14, 165, 90, 90, 165, 88, 161, 1, 1.77459
201, 3, bw, filler, NA, 999, 999, 1, 15, 77, 187, 185, 195, 166, 173, 2, 1.49267
201, 3, bw, filler, NA, 999, 999, 1, 15, 77, 187, 185, 195, 166, 173, 1, 0.655555
201, 3, bw, filler, NA, 999, 999, 1, 16, 68, 174, 172, 178, 192, 70, 2, 1.08317
201, 3, bw, filler, NA, 999, 999, 1, 16, 68, 174, 172, 178, 192, 70, 1, 0.870844
201, 3, bw, attraction, a-b-db, 14, 3, 1, 17, 195, 120, 120, 195, 111, 181, 2, 4.26592
201, 3, bw, attraction, a-b-db, 14, 3, 1, 17, 195, 120, 120, 195, 111, 181, 3, 1.18926
201, 3, bw, filler, NA, 999, 999, 1, 18, 81, 56, 68, 178, 151, 129, 3, 1.1794
201, 3, bw, filler, NA, 999, 999, 1, 18, 81, 56, 68, 178, 151, 129, 1, 1.25885
201, 3, bw, attraction, a-b-db, 2, 3, 1, 19, 195, 120, 120, 195, 119, 193, 2, 3.30994
201, 3, bw, attraction, a-b-db, 2, 3, 1, 19, 195, 120, 120, 195, 119, 193, 1, 3.73557
201, 3, bw, attraction, a-b-da, 2, 1, 1, 20, 60, 135, 134, 59, 135, 60, 1, 1.67888
201, 3, bw, attraction, a-b-da, 2, 1, 1, 20, 60, 135, 134, 59, 135, 60, 2, 1.81033
201, 3, bw, attraction, a-b-da, 5, 2, 1, 21, 161, 88, 90, 165, 165, 90, 2, 2.3032
201, 3, bw, attraction, a-b-da, 5, 2, 1, 21, 161, 88, 90, 165, 165, 90, 1, 0.729771
201, 3, bw, filler, NA, 999, 999, 1, 22, 66, 141, 99, 127, 65, 131, 2, 1.01004
201, 3, bw, filler, NA, 999, 999, 1, 22, 66, 141, 99, 127, 65, 131, 1, 1.46429
201, 3, bw, attraction, a-b-db, 2, 2, 1, 23, 165, 90, 89, 163, 90, 165, 2, 2.2751
201, 3, bw, attraction, a-b-db, 2, 2, 1, 23, 165, 90, 89, 163, 90, 165, 1, 1.96646
201, 3, bw, attraction, a-b-da, 14, 3, 1, 24, 181, 111, 120, 195, 195, 120, 2, 0.909101
201, 3, bw, attraction, a-b-da, 14, 3, 1, 24, 181, 111, 120, 195, 195, 120, 1, 0.77548
201, 3, bw, attraction, a-b-db, 14, 2, 1, 25, 165, 90, 83, 153, 90, 165, 3, 4.01385
201, 3, bw, attraction, a-b-db, 14, 2, 1, 25, 165, 90, 83, 153, 90, 165, 2, 0.70714
201, 3, bw, catch, NA, 999, 999, 1, 26, 181, 134, 69, 126, 144, 111, 1, 1.11615
201, 3, bw, catch, NA, 999, 999, 1, 26, 181, 134, 69, 126, 144, 111, 2, 0.614474
201, 3, bw, filler, NA, 999, 999, 1, 27, 143, 195, 143, 89, 134, 64, 1, 0.72359
201, 3, bw, filler, NA, 999, 999, 1, 27, 143, 195, 143, 89, 134, 64, 3, 0.73339
201, 3, bw, filler, NA, 999, 999, 1, 28, 114, 144, 163, 78, 63, 180, 1, 6.65371
201, 3, bw, filler, NA, 999, 999, 1, 28, 114, 144, 163, 78, 63, 180, 3, 1.44102
201, 3, bw, attraction, a-b-db, 14, 1, 1, 29, 135, 60, 56, 125, 60, 135, 3, 2.58047
201, 3, bw, attraction, a-b-db, 14, 1, 1, 29, 135, 60, 56, 125, 60, 135, 1, 1.4437
201, 3, bw, attraction, a-b-db, 5, 3, 1, 30, 195, 120, 117, 190, 120, 195, 3, 3.82322
201, 3, bw, attraction, a-b-db, 5, 3, 1, 30, 195, 120, 117, 190, 120, 195, 1, 1.29198
201, 3, bw, catch, NA, 999, 999, 1, 31, 113, 82, 176, 139, 152, 103, 2, 0.765349
201, 3, bw, catch, NA, 999, 999, 1, 31, 113, 82, 176, 139, 152, 103, 1, 0.925816
201, 3, bw, attraction, a-b-db, 5, 1, 1, 32, 58, 132, 135, 60, 60, 135, 2, 1.48609
201, 3, bw, attraction, a-b-db, 5, 1, 1, 32, 58, 132, 135, 60, 60, 135, 1, 2.64176
201, 3, bw, attraction, a-b-da, 2, 3, 1, 33, 195, 120, 193, 119, 120, 195, 2, 2.32484
201, 3, bw, attraction, a-b-da, 2, 3, 1, 33, 195, 120, 193, 119, 120, 195, 1, 2.42203
201, 3, bw, attraction, a-b-db, 9, 2, 1, 34, 165, 90, 86, 157, 90, 165, 3, 2.03456
201, 3, bw, attraction, a-b-db, 9, 2, 1, 34, 165, 90, 86, 157, 90, 165, 1, 1.40801
201, 3, bw, attraction, a-b-da, 9, 3, 1, 35, 195, 120, 186, 114, 120, 195, 1, 1.40466
201, 3, bw, attraction, a-b-da, 9, 3, 1, 35, 195, 120, 186, 114, 120, 195, 2, 2.93088
201, 3, bw, attraction, a-b-da, 5, 1, 1, 36, 132, 58, 135, 60, 60, 135, 3, 2.81872
201, 3, bw, attraction, a-b-da, 5, 1, 1, 36, 132, 58, 135, 60, 60, 135, 1, 1.35234
201, 3, bw, attraction, a-b-da, 9, 2, 1, 37, 165, 90, 90, 165, 157, 86, 2, 2.2319
201, 3, bw, attraction, a-b-da, 9, 2, 1, 37, 165, 90, 90, 165, 157, 86, 1, 2.21318
201, 3, bw, filler, NA, 999, 999, 2, 1, 191, 94, 145, 98, 122, 128, 1, 1.24968
201, 3, bw, filler, NA, 999, 999, 2, 1, 191, 94, 145, 98, 122, 128, 2, 1.2627
201, 3, bw, attraction, a-b-db, 9, 2, 2, 2, 165, 90, 90, 165, 86, 157, 2, 1.72954
201, 3, bw, attraction, a-b-db, 9, 2, 2, 2, 165, 90, 90, 165, 86, 157, 3, 0.723005
201, 3, bw, filler, NA, 999, 999, 2, 3, 148, 66, 187, 85, 179, 100, 2, 0.956025
201, 3, bw, filler, NA, 999, 999, 2, 3, 148, 66, 187, 85, 179, 100, 1, 1.02033
201, 3, bw, attraction, a-b-da, 14, 3, 2, 4, 195, 120, 120, 195, 181, 111, 2, 0.761364
201, 3, bw, attraction, a-b-da, 14, 3, 2, 4, 195, 120, 120, 195, 181, 111, 3, 2.26569
201, 3, bw, attraction, a-b-da, 5, 2, 2, 5, 165, 90, 90, 165, 161, 88, 2, 1.01239
201, 3, bw, attraction, a-b-da, 5, 2, 2, 5, 165, 90, 90, 165, 161, 88, 3, 1.00273
201, 3, bw, filler, NA, 999, 999, 2, 6, 184, 116, 187, 68, 74, 91, 1, 1.71223
201, 3, bw, filler, NA, 999, 999, 2, 6, 184, 116, 187, 68, 74, 91, 3, 1.02653
201, 3, bw, filler, NA, 999, 999, 2, 7, 104, 108, 179, 165, 153, 93, 2, 0.782739
201, 3, bw, filler, NA, 999, 999, 2, 7, 104, 108, 179, 165, 153, 93, 1, 0.766362
201, 3, bw, filler, NA, 999, 999, 2, 8, 106, 92, 125, 190, 181, 190, 3, 1.26141
201, 3, bw, filler, NA, 999, 999, 2, 8, 106, 92, 125, 190, 181, 190, 1, 0.953634
201, 3, bw, attraction, a-b-db, 14, 3, 2, 9, 195, 120, 111, 181, 120, 195, 3, 6.5374
201, 3, bw, attraction, a-b-db, 14, 3, 2, 9, 195, 120, 111, 181, 120, 195, 2, 0.641281
201, 3, bw, attraction, a-b-da, 14, 2, 2, 10, 165, 90, 153, 83, 90, 165, 3, 2.57296
201, 3, bw, attraction, a-b-da, 14, 2, 2, 10, 165, 90, 153, 83, 90, 165, 2, 1.41221
201, 3, bw, filler, NA, 999, 999, 2, 11, 155, 177, 146, 135, 195, 191, 3, 0.921122
201, 3, bw, filler, NA, 999, 999, 2, 11, 155, 177, 146, 135, 195, 191, 2, 0.73126
201, 3, bw, filler, NA, 999, 999, 2, 12, 126, 177, 71, 83, 118, 126, 1, 0.987185
201, 3, bw, filler, NA, 999, 999, 2, 12, 126, 177, 71, 83, 118, 126, 2, 0.54671
201, 3, bw, attraction, a-b-db, 9, 1, 2, 13, 135, 60, 60, 135, 57, 129, 2, 1.76246
201, 3, bw, attraction, a-b-db, 9, 1, 2, 13, 135, 60, 60, 135, 57, 129, 1, 1.96256
201, 3, bw, attraction, a-b-da, 9, 1, 2, 14, 129, 57, 135, 60, 60, 135, 3, 1.12142
201, 3, bw, attraction, a-b-da, 9, 1, 2, 14, 129, 57, 135, 60, 60, 135, 2, 0.530885
201, 3, bw, attraction, a-b-db, 2, 1, 2, 15, 59, 134, 60, 135, 135, 60, 3, 4.83529
201, 3, bw, attraction, a-b-db, 2, 1, 2, 15, 59, 134, 60, 135, 135, 60, 1, 1.35972
201, 3, bw, attraction, a-b-db, 5, 3, 2, 16, 195, 120, 120, 195, 117, 190, 2, 1.51056
201, 3, bw, attraction, a-b-db, 5, 3, 2, 16, 195, 120, 120, 195, 117, 190, 1, 0.648834
201, 3, bw, attraction, a-b-db, 14, 2, 2, 17, 90, 165, 83, 153, 165, 90, 1, 1.18849
201, 3, bw, attraction, a-b-db, 14, 2, 2, 17, 90, 165, 83, 153, 165, 90, 2, 1.69952
201, 3, bw, attraction, a-b-da, 2, 1, 2, 18, 134, 59, 135, 60, 60, 135, 1, 1.07691
201, 3, bw, attraction, a-b-da, 2, 1, 2, 18, 134, 59, 135, 60, 60, 135, 3, 2.73646
201, 3, bw, attraction, a-b-da, 5, 3, 2, 19, 195, 120, 120, 195, 190, 117, 3, 7.12016
201, 3, bw, attraction, a-b-da, 5, 3, 2, 19, 195, 120, 120, 195, 190, 117, 1, 1.1847
201, 3, bw, attraction, a-b-da, 9, 3, 2, 20, 120, 195, 186, 114, 195, 120, 1, 1.27088
201, 3, bw, attraction, a-b-da, 9, 3, 2, 20, 120, 195, 186, 114, 195, 120, 2, 1.04314
201, 3, bw, attraction, a-b-db, 2, 2, 2, 21, 165, 90, 89, 163, 90, 165, 2, 1.61473
201, 3, bw, attraction, a-b-db, 2, 2, 2, 21, 165, 90, 89, 163, 90, 165, 3, 1.22896
201, 3, bw, filler, NA, 999, 999, 2, 22, 99, 187, 192, 134, 122, 165, 2, 0.889068
201, 3, bw, filler, NA, 999, 999, 2, 22, 99, 187, 192, 134, 122, 165, 3, 1.32416
201, 3, bw, attraction, a-b-da, 2, 3, 2, 23, 195, 120, 193, 119, 120, 195, 1, 0.812248
201, 3, bw, attraction, a-b-da, 2, 3, 2, 23, 195, 120, 193, 119, 120, 195, 3, 0.954746
201, 3, bw, attraction, a-b-db, 9, 3, 2, 24, 114, 186, 195, 120, 120, 195, 3, 2.08228
201, 3, bw, attraction, a-b-db, 9, 3, 2, 24, 114, 186, 195, 120, 120, 195, 1, 2.28568
201, 3, bw, catch, NA, 999, 999, 2, 25, 71, 124, 195, 120, 140, 115, 2, 0.919609
201, 3, bw, catch, NA, 999, 999, 2, 25, 71, 124, 195, 120, 140, 115, 1, 0.553883
201, 3, bw, attraction, a-b-db, 5, 2, 2, 26, 90, 165, 88, 161, 165, 90, 1, 1.53775
201, 3, bw, attraction, a-b-db, 5, 2, 2, 26, 90, 165, 88, 161, 165, 90, 3, 1.37925
201, 3, bw, catch, NA, 999, 999, 2, 27, 118, 137, 118, 77, 176, 139, 3, 0.953359
201, 3, bw, catch, NA, 999, 999, 2, 27, 118, 137, 118, 77, 176, 139, 2, 0.890352
201, 3, bw, filler, NA, 999, 999, 2, 28, 136, 124, 63, 107, 116, 168, 3, 1.86008
201, 3, bw, filler, NA, 999, 999, 2, 28, 136, 124, 63, 107, 116, 168, 2, 1.04809
201, 3, bw, attraction, a-b-da, 2, 2, 2, 29, 90, 165, 165, 90, 163, 89, 1, 1.35578
201, 3, bw, attraction, a-b-da, 2, 2, 2, 29, 90, 165, 165, 90, 163, 89, 3, 2.01202
201, 3, bw, filler, NA, 999, 999, 2, 30, 68, 124, 160, 128, 165, 115, 2, 1.16858
201, 3, bw, filler, NA, 999, 999, 2, 30, 68, 124, 160, 128, 165, 115, 1, 0.952831
201, 3, bw, attraction, a-b-db, 14, 1, 2, 31, 56, 125, 135, 60, 60, 135, 3, 1.60055
201, 3, bw, attraction, a-b-db, 14, 1, 2, 31, 56, 125, 135, 60, 60, 135, 1, 1.27942
201, 3, bw, attraction, a-b-da, 9, 2, 2, 32, 157, 86, 90, 165, 165, 90, 2, 0.721504
201, 3, bw, attraction, a-b-da, 9, 2, 2, 32, 157, 86, 90, 165, 165, 90, 1, 0.787375
201, 3, bw, attraction, a-b-db, 2, 3, 2, 33, 195, 120, 119, 193, 120, 195, 1, 1.2177
201, 3, bw, attraction, a-b-db, 2, 3, 2, 33, 195, 120, 119, 193, 120, 195, 3, 1.03187
201, 3, bw, attraction, a-b-db, 5, 1, 2, 34, 58, 132, 135, 60, 60, 135, 3, 1.99626
201, 3, bw, attraction, a-b-db, 5, 1, 2, 34, 58, 132, 135, 60, 60, 135, 2, 0.634892
201, 3, bw, attraction, a-b-da, 14, 1, 2, 35, 125, 56, 135, 60, 60, 135, 2, 1.75137
201, 3, bw, attraction, a-b-da, 14, 1, 2, 35, 125, 56, 135, 60, 60, 135, 1, 0.664108
201, 3, bw, attraction, a-b-da, 5, 1, 2, 36, 135, 60, 132, 58, 60, 135, 3, 2.35519
201, 3, bw, attraction, a-b-da, 5, 1, 2, 36, 135, 60, 132, 58, 60, 135, 2, 0.563009
201, 3, bw, catch, NA, 999, 999, 2, 37, 96, 99, 137, 178, 104, 151, 2, 0.770092
201, 3, bw, catch, NA, 999, 999, 2, 37, 96, 99, 137, 178, 104, 151, 1, 0.754521
201, 3, bw, filler, NA, 999, 999, 3, 1, 167, 57, 167, 67, 158, 124, 3, 8.97818
201, 3, bw, filler, NA, 999, 999, 3, 1, 167, 57, 167, 67, 158, 124, 1, 0.959353
201, 3, bw, attraction, a-b-da, 14, 3, 3, 2, 195, 120, 181, 111, 120, 195, 1, 1.51832
201, 3, bw, attraction, a-b-da, 14, 3, 3, 2, 195, 120, 181, 111, 120, 195, 2, 0.672475
201, 3, bw, filler, NA, 999, 999, 3, 3, 129, 100, 129, 74, 129, 154, 3, 0.811573
201, 3, bw, filler, NA, 999, 999, 3, 3, 129, 100, 129, 74, 129, 154, 2, 0.514029
201, 3, bw, attraction, a-b-db, 14, 1, 3, 4, 60, 135, 56, 125, 135, 60, 1, 1.21916
201, 3, bw, attraction, a-b-db, 14, 1, 3, 4, 60, 135, 56, 125, 135, 60, 3, 1.0415
201, 3, bw, attraction, a-b-da, 5, 3, 3, 5, 190, 117, 195, 120, 120, 195, 2, 1.06096
201, 3, bw, attraction, a-b-da, 5, 3, 3, 5, 190, 117, 195, 120, 120, 195, 1, 1.20132
201, 3, bw, filler, NA, 999, 999, 3, 6, 90, 195, 157, 67, 151, 58, 1, 0.958822
201, 3, bw, filler, NA, 999, 999, 3, 6, 90, 195, 157, 67, 151, 58, 3, 1.02316
201, 3, bw, attraction, a-b-db, 2, 3, 3, 7, 119, 193, 195, 120, 120, 195, 2, 0.556104
201, 3, bw, attraction, a-b-db, 2, 3, 3, 7, 119, 193, 195, 120, 120, 195, 1, 0.588561
201, 3, bw, attraction, a-b-db, 5, 1, 3, 8, 60, 135, 58, 132, 135, 60, 2, 0.659042
201, 3, bw, attraction, a-b-db, 5, 1, 3, 8, 60, 135, 58, 132, 135, 60, 1, 0.903448
201, 3, bw, attraction, a-b-db, 9, 2, 3, 9, 90, 165, 165, 90, 86, 157, 1, 1.03311
201, 3, bw, attraction, a-b-db, 9, 2, 3, 9, 90, 165, 165, 90, 86, 157, 3, 1.0228
201, 3, bw, filler, NA, 999, 999, 3, 10, 74, 188, 93, 136, 167, 81, 2, 1.40375
201, 3, bw, filler, NA, 999, 999, 3, 10, 74, 188, 93, 136, 167, 81, 1, 0.786543
201, 3, bw, filler, NA, 999, 999, 3, 11, 87, 72, 101, 101, 114, 133, 3, 1.10498
201, 3, bw, filler, NA, 999, 999, 3, 11, 87, 72, 101, 101, 114, 133, 1, 0.739429
201, 3, bw, attraction, a-b-db, 14, 2, 3, 12, 90, 165, 83, 153, 165, 90, 1, 0.899617
201, 3, bw, attraction, a-b-db, 14, 2, 3, 12, 90, 165, 83, 153, 165, 90, 2, 1.9587
201, 3, bw, attraction, a-b-db, 5, 3, 3, 13, 120, 195, 117, 190, 195, 120, 2, 1.00527
201, 3, bw, attraction, a-b-db, 5, 3, 3, 13, 120, 195, 117, 190, 195, 120, 1, 2.64381
201, 3, bw, catch, NA, 999, 999, 3, 14, 97, 98, 111, 144, 177, 138, 3, 1.70291
201, 3, bw, catch, NA, 999, 999, 3, 14, 97, 98, 111, 144, 177, 138, 1, 0.801572
201, 3, bw, attraction, a-b-da, 9, 1, 3, 15, 129, 57, 60, 135, 135, 60, 2, 0.943299
201, 3, bw, attraction, a-b-da, 9, 1, 3, 15, 129, 57, 60, 135, 135, 60, 1, 0.752179
201, 3, bw, attraction, a-b-db, 9, 1, 3, 16, 135, 60, 60, 135, 57, 129, 1, 1.01588
201, 3, bw, attraction, a-b-db, 9, 1, 3, 16, 135, 60, 60, 135, 57, 129, 3, 0.790302
201, 3, bw, attraction, a-b-da, 14, 2, 3, 17, 90, 165, 165, 90, 153, 83, 1, 1.16393
201, 3, bw, attraction, a-b-da, 14, 2, 3, 17, 90, 165, 165, 90, 153, 83, 3, 0.812284
201, 3, bw, attraction, a-b-db, 14, 3, 3, 18, 111, 181, 120, 195, 195, 120, 2, 0.76927
201, 3, bw, attraction, a-b-db, 14, 3, 3, 18, 111, 181, 120, 195, 195, 120, 1, 0.67379
201, 3, bw, attraction, a-b-db, 5, 2, 3, 19, 165, 90, 88, 161, 90, 165, 1, 4.05199
201, 3, bw, attraction, a-b-db, 5, 2, 3, 19, 165, 90, 88, 161, 90, 165, 2, 1.504
201, 3, bw, attraction, a-b-da, 5, 1, 3, 20, 60, 135, 135, 60, 132, 58, 1, 2.79348
201, 3, bw, attraction, a-b-da, 5, 1, 3, 20, 60, 135, 135, 60, 132, 58, 3, 0.999953
201, 3, bw, attraction, a-b-da, 9, 2, 3, 21, 90, 165, 165, 90, 157, 86, 2, 2.49362
201, 3, bw, attraction, a-b-da, 9, 2, 3, 21, 90, 165, 165, 90, 157, 86, 3, 1.50425
201, 3, bw, filler, NA, 999, 999, 3, 22, 121, 179, 123, 122, 57, 57, 1, 0.929612
201, 3, bw, filler, NA, 999, 999, 3, 22, 121, 179, 123, 122, 57, 57, 3, 1.20337
201, 3, bw, filler, NA, 999, 999, 3, 23, 137, 189, 93, 144, 127, 130, 1, 1.20881
201, 3, bw, filler, NA, 999, 999, 3, 23, 137, 189, 93, 144, 127, 130, 2, 0.983064
201, 3, bw, attraction, a-b-da, 9, 3, 3, 24, 195, 120, 186, 114, 120, 195, 3, 1.33344
201, 3, bw, attraction, a-b-da, 9, 3, 3, 24, 195, 120, 186, 114, 120, 195, 2, 0.942991
201, 3, bw, attraction, a-b-db, 2, 1, 3, 25, 60, 135, 59, 134, 135, 60, 2, 1.48669
201, 3, bw, attraction, a-b-db, 2, 1, 3, 25, 60, 135, 59, 134, 135, 60, 1, 1.88361
201, 3, bw, attraction, a-b-da, 2, 1, 3, 26, 60, 135, 134, 59, 135, 60, 1, 1.27615
201, 3, bw, attraction, a-b-da, 2, 1, 3, 26, 60, 135, 134, 59, 135, 60, 2, 1.31175
201, 3, bw, filler, NA, 999, 999, 3, 27, 78, 129, 138, 120, 158, 142, 3, 0.912569
201, 3, bw, filler, NA, 999, 999, 3, 27, 78, 129, 138, 120, 158, 142, 1, 0.882954
201, 3, bw, attraction, a-b-db, 9, 3, 3, 28, 120, 195, 114, 186, 195, 120, 1, 2.08539
201, 3, bw, attraction, a-b-db, 9, 3, 3, 28, 120, 195, 114, 186, 195, 120, 2, 2.83261
201, 3, bw, attraction, a-b-da, 14, 1, 3, 29, 60, 135, 135, 60, 125, 56, 1, 1.34034
201, 3, bw, attraction, a-b-da, 14, 1, 3, 29, 60, 135, 135, 60, 125, 56, 3, 1.10138
201, 3, bw, attraction, a-b-da, 2, 2, 3, 30, 163, 89, 165, 90, 90, 165, 2, 2.26278
201, 3, bw, attraction, a-b-da, 2, 2, 3, 30, 163, 89, 165, 90, 90, 165, 1, 1.28275
201, 3, bw, attraction, a-b-da, 5, 2, 3, 31, 90, 165, 161, 88, 165, 90, 1, 1.55701
201, 3, bw, attraction, a-b-da, 5, 2, 3, 31, 90, 165, 161, 88, 165, 90, 2, 1.14117
201, 3, bw, attraction, a-b-db, 2, 2, 3, 32, 90, 165, 165, 90, 89, 163, 1, 2.0607
201, 3, bw, attraction, a-b-db, 2, 2, 3, 32, 90, 165, 165, 90, 89, 163, 2, 0.768695
201, 3, bw, filler, NA, 999, 999, 3, 33, 146, 147, 56, 109, 167, 80, 1, 1.04769
201, 3, bw, filler, NA, 999, 999, 3, 33, 146, 147, 56, 109, 167, 80, 2, 0.740757
201, 3, bw, catch, NA, 999, 999, 3, 34, 163, 92, 189, 126, 68, 127, 2, 1.17239
201, 3, bw, catch, NA, 999, 999, 3, 34, 163, 92, 189, 126, 68, 127, 3, 0.748156
201, 3, bw, attraction, a-b-da, 2, 3, 3, 35, 120, 195, 193, 119, 195, 120, 3, 2.06776
201, 3, bw, attraction, a-b-da, 2, 3, 3, 35, 120, 195, 193, 119, 195, 120, 1, 2.82381
201, 3, bw, filler, NA, 999, 999, 3, 36, 73, 173, 142, 122, 100, 85, 2, 0.66761
201, 3, bw, filler, NA, 999, 999, 3, 36, 73, 173, 142, 122, 100, 85, 3, 0.615815
201, 3, bw, catch, NA, 999, 999, 3, 37, 121, 194, 101, 154, 98, 97, 1, 0.916915
201, 3, bw, catch, NA, 999, 999, 3, 37, 121, 194, 101, 154, 98, 97, 3, 0.767334
201, 3, bw, attraction, a-b-db, 9, 3, 4, 1, 120, 195, 114, 186, 195, 120, 3, 1.71827
201, 3, bw, attraction, a-b-db, 9, 3, 4, 1, 120, 195, 114, 186, 195, 120, 2, 0.784405
201, 3, bw, attraction, a-b-db, 2, 2, 4, 2, 90, 165, 89, 163, 165, 90, 3, 2.68698
201, 3, bw, attraction, a-b-db, 2, 2, 4, 2, 90, 165, 89, 163, 165, 90, 1, 1.36202
201, 3, bw, attraction, a-b-db, 14, 2, 4, 3, 165, 90, 90, 165, 83, 153, 2, 2.60073
201, 3, bw, attraction, a-b-db, 14, 2, 4, 3, 165, 90, 90, 165, 83, 153, 3, 0.791258
201, 3, bw, attraction, a-b-da, 14, 1, 4, 4, 135, 60, 125, 56, 60, 135, 1, 2.30097
201, 3, bw, attraction, a-b-da, 14, 1, 4, 4, 135, 60, 125, 56, 60, 135, 2, 1.55163
201, 3, bw, attraction, a-b-da, 5, 2, 4, 5, 165, 90, 90, 165, 161, 88, 2, 1.93507
201, 3, bw, attraction, a-b-da, 5, 2, 4, 5, 165, 90, 90, 165, 161, 88, 3, 1.20045
201, 3, bw, attraction, a-b-db, 9, 1, 4, 6, 60, 135, 57, 129, 135, 60, 3, 4.24613
201, 3, bw, attraction, a-b-db, 9, 1, 4, 6, 60, 135, 57, 129, 135, 60, 2, 1.13
201, 3, bw, filler, NA, 999, 999, 4, 7, 142, 106, 184, 151, 160, 141, 2, 1.80225
201, 3, bw, filler, NA, 999, 999, 4, 7, 142, 106, 184, 151, 160, 141, 1, 0.904989
201, 3, bw, catch, NA, 999, 999, 4, 8, 158, 97, 64, 131, 143, 172, 3, 1.22661
201, 3, bw, catch, NA, 999, 999, 4, 8, 158, 97, 64, 131, 143, 172, 2, 1.29618
201, 3, bw, filler, NA, 999, 999, 4, 9, 189, 113, 149, 121, 165, 102, 1, 2.85784
201, 3, bw, filler, NA, 999, 999, 4, 9, 189, 113, 149, 121, 165, 102, 2, 1.86147
201, 3, bw, attraction, a-b-db, 5, 1, 4, 10, 60, 135, 135, 60, 58, 132, 1, 4.51235
201, 3, bw, attraction, a-b-db, 5, 1, 4, 10, 60, 135, 135, 60, 58, 132, 3, 1.34559
201, 3, bw, attraction, a-b-da, 9, 1, 4, 11, 135, 60, 60, 135, 129, 57, 2, 1.28094
201, 3, bw, attraction, a-b-da, 9, 1, 4, 11, 135, 60, 60, 135, 129, 57, 1, 0.916555
201, 3, bw, filler, NA, 999, 999, 4, 12, 99, 154, 77, 192, 75, 159, 2, 0.629413
201, 3, bw, filler, NA, 999, 999, 4, 12, 99, 154, 77, 192, 75, 159, 3, 1.78729
201, 3, bw, attraction, a-b-db, 5, 3, 4, 13, 120, 195, 117, 190, 195, 120, 2, 1.81733
201, 3, bw, attraction, a-b-db, 5, 3, 4, 13, 120, 195, 117, 190, 195, 120, 3, 0.927433
201, 3, bw, filler, NA, 999, 999, 4, 14, 64, 182, 146, 65, 186, 126, 3, 1.18367
201, 3, bw, filler, NA, 999, 999, 4, 14, 64, 182, 146, 65, 186, 126, 2, 0.751305
201, 3, bw, attraction, a-b-db, 14, 1, 4, 15, 135, 60, 56, 125, 60, 135, 1, 1.09511
201, 3, bw, attraction, a-b-db, 14, 1, 4, 15, 135, 60, 56, 125, 60, 135, 3, 0.714028
201, 3, bw, filler, NA, 999, 999, 4, 16, 174, 65, 162, 157, 98, 74, 2, 0.651016
201, 3, bw, filler, NA, 999, 999, 4, 16, 174, 65, 162, 157, 98, 74, 3, 0.952153
201, 3, bw, attraction, a-b-da, 5, 3, 4, 17, 120, 195, 190, 117, 195, 120, 1, 3.13592
201, 3, bw, attraction, a-b-da, 5, 3, 4, 17, 120, 195, 190, 117, 195, 120, 3, 0.720797
201, 3, bw, attraction, a-b-db, 5, 2, 4, 18, 165, 90, 88, 161, 90, 165, 2, 3.28178
201, 3, bw, attraction, a-b-db, 5, 2, 4, 18, 165, 90, 88, 161, 90, 165, 1, 2.43684
201, 3, bw, attraction, a-b-da, 2, 1, 4, 19, 134, 59, 135, 60, 60, 135, 3, 1.36868
201, 3, bw, attraction, a-b-da, 2, 1, 4, 19, 134, 59, 135, 60, 60, 135, 1, 1.81699
201, 3, bw, catch, NA, 999, 999, 4, 20, 140, 175, 78, 117, 121, 134, 1, 1.07758
201, 3, bw, catch, NA, 999, 999, 4, 20, 140, 175, 78, 117, 121, 134, 2, 0.825158
201, 3, bw, filler, NA, 999, 999, 4, 21, 120, 62, 173, 84, 146, 87, 2, 0.957509
201, 3, bw, filler, NA, 999, 999, 4, 21, 120, 62, 173, 84, 146, 87, 1, 0.893902
201, 3, bw, attraction, a-b-db, 2, 3, 4, 22, 119, 193, 120, 195, 195, 120, 2, 0.639644
201, 3, bw, attraction, a-b-db, 2, 3, 4, 22, 119, 193, 120, 195, 195, 120, 1, 1.21262
201, 3, bw, filler, NA, 999, 999, 4, 23, 76, 63, 65, 123, 124, 85, 3, 2.55347
201, 3, bw, filler, NA, 999, 999, 4, 23, 76, 63, 65, 123, 124, 85, 1, 1.39403
201, 3, bw, catch, NA, 999, 999, 4, 24, 137, 178, 103, 152, 70, 125, 1, 1.07154
201, 3, bw, catch, NA, 999, 999, 4, 24, 137, 178, 103, 152, 70, 125, 3, 1.69188
201, 3, bw, filler, NA, 999, 999, 4, 25, 192, 132, 107, 186, 175, 142, 1, 4.53329
201, 3, bw, filler, NA, 999, 999, 4, 25, 192, 132, 107, 186, 175, 142, 3, 1.36594
201, 3, bw, attraction, a-b-da, 2, 2, 4, 26, 165, 90, 90, 165, 163, 89, 2, 1.07663
201, 3, bw, attraction, a-b-da, 2, 2, 4, 26, 165, 90, 90, 165, 163, 89, 3, 0.824447
201, 3, bw, attraction, a-b-da, 9, 3, 4, 27, 120, 195, 195, 120, 186, 114, 1, 4.70082
201, 3, bw, attraction, a-b-da, 9, 3, 4, 27, 120, 195, 195, 120, 186, 114, 3, 1.19847
201, 3, bw, filler, NA, 999, 999, 4, 28, 130, 138, 100, 109, 101, 144, 1, 0.980062
201, 3, bw, filler, NA, 999, 999, 4, 28, 130, 138, 100, 109, 101, 144, 2, 0.803752
201, 3, bw, attraction, a-b-db, 14, 3, 4, 29, 195, 120, 111, 181, 120, 195, 2, 1.56146
201, 3, bw, attraction, a-b-db, 14, 3, 4, 29, 195, 120, 111, 181, 120, 195, 3, 0.953622
201, 3, bw, attraction, a-b-da, 14, 3, 4, 30, 195, 120, 120, 195, 181, 111, 2, 1.83323
201, 3, bw, attraction, a-b-da, 14, 3, 4, 30, 195, 120, 120, 195, 181, 111, 3, 0.790631
201, 3, bw, attraction, a-b-da, 2, 3, 4, 31, 193, 119, 120, 195, 195, 120, 2, 4.24433
201, 3, bw, attraction, a-b-da, 2, 3, 4, 31, 193, 119, 120, 195, 195, 120, 3, 0.91243
201, 3, bw, attraction, a-b-da, 14, 2, 4, 32, 165, 90, 153, 83, 90, 165, 1, 1.08136
201, 3, bw, attraction, a-b-da, 14, 2, 4, 32, 165, 90, 153, 83, 90, 165, 3, 0.749021
201, 3, bw, attraction, a-b-db, 2, 1, 4, 33, 135, 60, 59, 134, 60, 135, 2, 2.29264
201, 3, bw, attraction, a-b-db, 2, 1, 4, 33, 135, 60, 59, 134, 60, 135, 1, 10.7672
201, 3, bw, attraction, a-b-da, 9, 2, 4, 34, 165, 90, 157, 86, 90, 165, 3, 4.82708
201, 3, bw, attraction, a-b-da, 9, 2, 4, 34, 165, 90, 157, 86, 90, 165, 2, 1.07954
201, 3, bw, filler, NA, 999, 999, 4, 35, 178, 139, 161, 158, 139, 104, 2, 2.09794
201, 3, bw, filler, NA, 999, 999, 4, 35, 178, 139, 161, 158, 139, 104, 3, 0.804552
201, 3, bw, attraction, a-b-da, 5, 1, 4, 36, 135, 60, 60, 135, 132, 58, 2, 1.3622
201, 3, bw, attraction, a-b-da, 5, 1, 4, 36, 135, 60, 60, 135, 132, 58, 1, 0.770453
201, 3, bw, attraction, a-b-db, 9, 2, 4, 37, 165, 90, 90, 165, 86, 157, 2, 0.921451
201, 3, bw, attraction, a-b-db, 9, 2, 4, 37, 165, 90, 90, 165, 86, 157, 1, 1.42714
201, 3, bw, attraction, a-b-da, 5, 2, 5, 1, 165, 90, 161, 88, 90, 165, 3, 3.98999
201, 3, bw, attraction, a-b-da, 5, 2, 5, 1, 165, 90, 161, 88, 90, 165, 2, 1.012
201, 3, bw, attraction, a-b-da, 9, 3, 5, 2, 186, 114, 195, 120, 120, 195, 2, 0.816892
201, 3, bw, attraction, a-b-da, 9, 3, 5, 2, 186, 114, 195, 120, 120, 195, 1, 0.895389
201, 3, bw, attraction, a-b-da, 14, 2, 5, 3, 90, 165, 153, 83, 165, 90, 1, 2.025
201, 3, bw, attraction, a-b-da, 14, 2, 5, 3, 90, 165, 153, 83, 165, 90, 2, 0.710335
201, 3, bw, attraction, a-b-db, 9, 3, 5, 4, 120, 195, 114, 186, 195, 120, 1, 2.01541
201, 3, bw, attraction, a-b-db, 9, 3, 5, 4, 120, 195, 114, 186, 195, 120, 2, 1.00539
201, 3, bw, attraction, a-b-da, 9, 2, 5, 5, 157, 86, 165, 90, 90, 165, 3, 2.91512
201, 3, bw, attraction, a-b-da, 9, 2, 5, 5, 157, 86, 165, 90, 90, 165, 1, 1.1248
201, 3, bw, filler, NA, 999, 999, 5, 6, 79, 146, 128, 115, 104, 110, 1, 1.89306
201, 3, bw, filler, NA, 999, 999, 5, 6, 79, 146, 128, 115, 104, 110, 3, 0.799869
201, 3, bw, attraction, a-b-db, 2, 2, 5, 7, 89, 163, 165, 90, 90, 165, 1, 2.1015
201, 3, bw, attraction, a-b-db, 2, 2, 5, 7, 89, 163, 165, 90, 90, 165, 2, 0.992072
201, 3, bw, attraction, a-b-db, 14, 1, 5, 8, 60, 135, 135, 60, 56, 125, 1, 1.79777
201, 3, bw, attraction, a-b-db, 14, 1, 5, 8, 60, 135, 135, 60, 56, 125, 2, 3.68444
201, 3, bw, filler, NA, 999, 999, 5, 9, 66, 140, 188, 150, 140, 123, 2, 1.25395
201, 3, bw, filler, NA, 999, 999, 5, 9, 66, 140, 188, 150, 140, 123, 1, 0.858777
201, 3, bw, catch, NA, 999, 999, 5, 10, 151, 164, 71, 124, 161, 94, 1, 1.41389
201, 3, bw, catch, NA, 999, 999, 5, 10, 151, 164, 71, 124, 161, 94, 2, 1.0682
201, 3, bw, filler, NA, 999, 999, 5, 11, 90, 107, 163, 186, 64, 128, 2, 1.86308
201, 3, bw, filler, NA, 999, 999, 5, 11, 90, 107, 163, 186, 64, 128, 3, 1.41903
201, 3, bw, attraction, a-b-db, 5, 2, 5, 12, 90, 165, 165, 90, 88, 161, 3, 1.87979
201, 3, bw, attraction, a-b-db, 5, 2, 5, 12, 90, 165, 165, 90, 88, 161, 2, 2.51535
201, 3, bw, filler, NA, 999, 999, 5, 13, 74, 126, 180, 89, 70, 107, 2, 2.95579
201, 3, bw, filler, NA, 999, 999, 5, 13, 74, 126, 180, 89, 70, 107, 3, 0.915417
201, 3, bw, attraction, a-b-db, 14, 3, 5, 14, 120, 195, 111, 181, 195, 120, 3, 3.4765
201, 3, bw, attraction, a-b-db, 14, 3, 5, 14, 120, 195, 111, 181, 195, 120, 2, 0.70332
201, 3, bw, attraction, a-b-db, 9, 2, 5, 15, 90, 165, 86, 157, 165, 90, 3, 11.3771
201, 3, bw, attraction, a-b-db, 9, 2, 5, 15, 90, 165, 86, 157, 165, 90, 2, 2.23741
201, 3, bw, filler, NA, 999, 999, 5, 16, 177, 78, 145, 67, 166, 168, 3, 0.953358
201, 3, bw, filler, NA, 999, 999, 5, 16, 177, 78, 145, 67, 166, 168, 2, 0.658365
201, 3, bw, attraction, a-b-db, 9, 1, 5, 17, 57, 129, 135, 60, 60, 135, 2, 1.47745
201, 3, bw, attraction, a-b-db, 9, 1, 5, 17, 57, 129, 135, 60, 60, 135, 1, 0.720964
201, 3, bw, attraction, a-b-db, 14, 2, 5, 18, 90, 165, 83, 153, 165, 90, 1, 1.33
201, 3, bw, attraction, a-b-db, 14, 2, 5, 18, 90, 165, 83, 153, 165, 90, 2, 1.45161
201, 3, bw, filler, NA, 999, 999, 5, 19, 95, 78, 188, 147, 180, 99, 2, 0.91903
201, 3, bw, filler, NA, 999, 999, 5, 19, 95, 78, 188, 147, 180, 99, 1, 0.657336
201, 3, bw, attraction, a-b-da, 14, 1, 5, 20, 135, 60, 125, 56, 60, 135, 3, 2.10857
201, 3, bw, attraction, a-b-da, 14, 1, 5, 20, 135, 60, 125, 56, 60, 135, 2, 0.63044
201, 3, bw, filler, NA, 999, 999, 5, 21, 177, 78, 181, 112, 180, 118, 2, 2.19502
201, 3, bw, filler, NA, 999, 999, 5, 21, 177, 78, 181, 112, 180, 118, 1, 0.889511
201, 3, bw, attraction, a-b-db, 2, 3, 5, 22, 120, 195, 119, 193, 195, 120, 3, 7.44382
201, 3, bw, attraction, a-b-db, 2, 3, 5, 22, 120, 195, 119, 193, 195, 120, 1, 0.822776
201, 3, bw, attraction, a-b-da, 9, 1, 5, 23, 135, 60, 60, 135, 129, 57, 1, 1.89191
201, 3, bw, attraction, a-b-da, 9, 1, 5, 23, 135, 60, 60, 135, 129, 57, 3, 2.43864
201, 3, bw, attraction, a-b-da, 2, 1, 5, 24, 134, 59, 60, 135, 135, 60, 2, 3.13041
201, 3, bw, attraction, a-b-da, 2, 1, 5, 24, 134, 59, 60, 135, 135, 60, 1, 0.875391
201, 3, bw, filler, NA, 999, 999, 5, 25, 56, 159, 168, 170, 126, 121, 2, 1.93365
201, 3, bw, filler, NA, 999, 999, 5, 25, 56, 159, 168, 170, 126, 121, 1, 0.831089
201, 3, bw, attraction, a-b-da, 2, 2, 5, 26, 90, 165, 163, 89, 165, 90, 1, 2.57152
201, 3, bw, attraction, a-b-da, 2, 2, 5, 26, 90, 165, 163, 89, 165, 90, 3, 0.803245
201, 3, bw, catch, NA, 999, 999, 5, 27, 94, 161, 98, 97, 159, 156, 3, 1.9691
201, 3, bw, catch, NA, 999, 999, 5, 27, 94, 161, 98, 97, 159, 156, 2, 0.560961
201, 3, bw, filler, NA, 999, 999, 5, 28, 140, 182, 132, 160, 142, 78, 1, 1.24804
201, 3, bw, filler, NA, 999, 999, 5, 28, 140, 182, 132, 160, 142, 78, 3, 0.98901
201, 3, bw, attraction, a-b-da, 2, 3, 5, 29, 120, 195, 193, 119, 195, 120, 1, 2.2593
201, 3, bw, attraction, a-b-da, 2, 3, 5, 29, 120, 195, 193, 119, 195, 120, 2, 1.00724
201, 3, bw, attraction, a-b-da, 5, 1, 5, 30, 132, 58, 60, 135, 135, 60, 2, 14.5563
201, 3, bw, attraction, a-b-da, 5, 1, 5, 30, 132, 58, 60, 135, 135, 60, 1, 1.21696
201, 3, bw, attraction, a-b-da, 5, 3, 5, 31, 190, 117, 120, 195, 195, 120, 2, 1.01391
201, 3, bw, attraction, a-b-da, 5, 3, 5, 31, 190, 117, 120, 195, 195, 120, 1, 0.580303
201, 3, bw, attraction, a-b-db, 5, 3, 5, 32, 117, 190, 195, 120, 120, 195, 2, 0.74674
201, 3, bw, attraction, a-b-db, 5, 3, 5, 32, 117, 190, 195, 120, 120, 195, 1, 1.97174
201, 3, bw, attraction, a-b-db, 5, 1, 5, 33, 60, 135, 58, 132, 135, 60, 2, 1.82643
201, 3, bw, attraction, a-b-db, 5, 1, 5, 33, 60, 135, 58, 132, 135, 60, 3, 0.663714
201, 3, bw, attraction, a-b-db, 2, 1, 5, 34, 59, 134, 60, 135, 135, 60, 2, 0.666846
201, 3, bw, attraction, a-b-db, 2, 1, 5, 34, 59, 134, 60, 135, 135, 60, 3, 1.70336
201, 3, bw, attraction, a-b-da, 14, 3, 5, 35, 181, 111, 120, 195, 195, 120, 2, 1.16068
201, 3, bw, attraction, a-b-da, 14, 3, 5, 35, 181, 111, 120, 195, 195, 120, 1, 0.624965
201, 3, bw, filler, NA, 999, 999, 5, 36, 103, 133, 130, 112, 137, 155, 3, 0.99742
201, 3, bw, filler, NA, 999, 999, 5, 36, 103, 133, 130, 112, 137, 155, 1, 1.15652
201, 3, bw, catch, NA, 999, 999, 5, 37, 128, 127, 96, 99, 145, 170, 3, 1.59596
201, 3, bw, catch, NA, 999, 999, 5, 37, 128, 127, 96, 99, 145, 170, 2, 0.658834
201, 3, bw, attraction, a-b-db, 5, 3, 6, 1, 195, 120, 117, 190, 120, 195, 1, 3.44594
201, 3, bw, attraction, a-b-db, 5, 3, 6, 1, 195, 120, 117, 190, 120, 195, 3, 0.642028
201, 3, bw, attraction, a-b-da, 2, 3, 6, 2, 193, 119, 120, 195, 195, 120, 2, 0.725748
201, 3, bw, attraction, a-b-da, 2, 3, 6, 2, 193, 119, 120, 195, 195, 120, 3, 1.47956
201, 3, bw, filler, NA, 999, 999, 6, 3, 177, 130, 68, 118, 82, 102, 1, 0.897628
201, 3, bw, filler, NA, 999, 999, 6, 3, 177, 130, 68, 118, 82, 102, 3, 0.772638
201, 3, bw, attraction, a-b-db, 14, 3, 6, 4, 111, 181, 120, 195, 195, 120, 2, 1.40364
201, 3, bw, attraction, a-b-db, 14, 3, 6, 4, 111, 181, 120, 195, 195, 120, 1, 0.674544
201, 3, bw, catch, NA, 999, 999, 6, 5, 195, 120, 136, 119, 73, 122, 1, 1.59697
201, 3, bw, catch, NA, 999, 999, 6, 5, 195, 120, 136, 119, 73, 122, 3, 0.571788
201, 3, bw, attraction, a-b-da, 2, 1, 6, 6, 60, 135, 134, 59, 135, 60, 1, 2.00293
201, 3, bw, attraction, a-b-da, 2, 1, 6, 6, 60, 135, 134, 59, 135, 60, 3, 1.28962
201, 3, bw, attraction, a-b-db, 9, 1, 6, 7, 60, 135, 57, 129, 135, 60, 1, 3.0597
201, 3, bw, attraction, a-b-db, 9, 1, 6, 7, 60, 135, 57, 129, 135, 60, 2, 1.99947
201, 3, bw, attraction, a-b-db, 14, 1, 6, 8, 60, 135, 56, 125, 135, 60, 3, 2.98873
201, 3, bw, attraction, a-b-db, 14, 1, 6, 8, 60, 135, 56, 125, 135, 60, 2, 0.875145
201, 3, bw, attraction, a-b-da, 9, 3, 6, 9, 120, 195, 186, 114, 195, 120, 1, 1.52545
201, 3, bw, attraction, a-b-da, 9, 3, 6, 9, 120, 195, 186, 114, 195, 120, 2, 1.07899
201, 3, bw, attraction, a-b-db, 2, 1, 6, 10, 60, 135, 135, 60, 59, 134, 1, 1.93725
201, 3, bw, attraction, a-b-db, 2, 1, 6, 10, 60, 135, 135, 60, 59, 134, 2, 0.802604
201, 3, bw, attraction, a-b-db, 14, 2, 6, 11, 83, 153, 90, 165, 165, 90, 3, 3.28833
201, 3, bw, attraction, a-b-db, 14, 2, 6, 11, 83, 153, 90, 165, 165, 90, 1, 0.683235
201, 3, bw, attraction, a-b-da, 14, 3, 6, 12, 181, 111, 195, 120, 120, 195, 3, 8.54172
201, 3, bw, attraction, a-b-da, 14, 3, 6, 12, 181, 111, 195, 120, 120, 195, 1, 0.732234
201, 3, bw, attraction, a-b-db, 2, 3, 6, 13, 195, 120, 119, 193, 120, 195, 2, 16.0927
201, 3, bw, attraction, a-b-db, 2, 3, 6, 13, 195, 120, 119, 193, 120, 195, 1, 1.49173
201, 3, bw, catch, NA, 999, 999, 6, 14, 100, 155, 65, 130, 162, 153, 3, 2.58912
201, 3, bw, catch, NA, 999, 999, 6, 14, 100, 155, 65, 130, 162, 153, 2, 1.15568
201, 3, bw, filler, NA, 999, 999, 6, 15, 116, 62, 184, 63, 107, 70, 2, 1.19517
201, 3, bw, filler, NA, 999, 999, 6, 15, 116, 62, 184, 63, 107, 70, 3, 0.778122
201, 3, bw, filler, NA, 999, 999, 6, 16, 179, 176, 179, 74, 57, 145, 1, 0.912463
201, 3, bw, filler, NA, 999, 999, 6, 16, 179, 176, 179, 74, 57, 145, 3, 1.09888
201, 3, bw, attraction, a-b-da, 5, 2, 6, 17, 165, 90, 161, 88, 90, 165, 3, 1.43642
201, 3, bw, attraction, a-b-da, 5, 2, 6, 17, 165, 90, 161, 88, 90, 165, 1, 1.04193
201, 3, bw, filler, NA, 999, 999, 6, 18, 59, 93, 149, 148, 147, 70, 2, 0.605528
201, 3, bw, filler, NA, 999, 999, 6, 18, 59, 93, 149, 148, 147, 70, 1, 0.716109
201, 3, bw, attraction, a-b-da, 5, 3, 6, 19, 120, 195, 190, 117, 195, 120, 3, 1.09312
201, 3, bw, attraction, a-b-da, 5, 3, 6, 19, 120, 195, 190, 117, 195, 120, 2, 0.720119
201, 3, bw, attraction, a-b-db, 9, 3, 6, 20, 120, 195, 195, 120, 114, 186, 1, 1.55317
201, 3, bw, attraction, a-b-db, 9, 3, 6, 20, 120, 195, 195, 120, 114, 186, 2, 0.890051
201, 3, bw, attraction, a-b-db, 5, 2, 6, 21, 90, 165, 165, 90, 88, 161, 1, 1.88373
201, 3, bw, attraction, a-b-db, 5, 2, 6, 21, 90, 165, 165, 90, 88, 161, 2, 1.26315
201, 3, bw, attraction, a-b-da, 2, 2, 6, 22, 165, 90, 163, 89, 90, 165, 3, 1.7859
201, 3, bw, attraction, a-b-da, 2, 2, 6, 22, 165, 90, 163, 89, 90, 165, 1, 1.2412
201, 3, bw, attraction, a-b-db, 5, 1, 6, 23, 135, 60, 60, 135, 58, 132, 2, 1.38887
201, 3, bw, attraction, a-b-db, 5, 1, 6, 23, 135, 60, 60, 135, 58, 132, 1, 0.835722
201, 3, bw, filler, NA, 999, 999, 6, 24, 97, 147, 109, 88, 62, 142, 1, 1.03199
201, 3, bw, filler, NA, 999, 999, 6, 24, 97, 147, 109, 88, 62, 142, 2, 2.99765
201, 3, bw, attraction, a-b-db, 2, 2, 6, 25, 165, 90, 89, 163, 90, 165, 3, 1.99462
201, 3, bw, attraction, a-b-db, 2, 2, 6, 25, 165, 90, 89, 163, 90, 165, 1, 1.69732
201, 3, bw, attraction, a-b-da, 9, 1, 6, 26, 60, 135, 129, 57, 135, 60, 1, 3.69871
201, 3, bw, attraction, a-b-da, 9, 1, 6, 26, 60, 135, 129, 57, 135, 60, 2, 1.42089
201, 3, bw, filler, NA, 999, 999, 6, 27, 85, 102, 85, 101, 116, 147, 3, 0.946116
201, 3, bw, filler, NA, 999, 999, 6, 27, 85, 102, 85, 101, 116, 147, 1, 0.874767
201, 3, bw, filler, NA, 999, 999, 6, 28, 145, 190, 167, 181, 186, 194, 3, 0.797115
201, 3, bw, filler, NA, 999, 999, 6, 28, 145, 190, 167, 181, 186, 194, 1, 0.868165
201, 3, bw, attraction, a-b-da, 9, 2, 6, 29, 165, 90, 90, 165, 157, 86, 2, 1.83915
201, 3, bw, attraction, a-b-da, 9, 2, 6, 29, 165, 90, 90, 165, 157, 86, 3, 0.851998
201, 3, bw, attraction, a-b-da, 14, 2, 6, 30, 90, 165, 165, 90, 153, 83, 1, 0.927513
201, 3, bw, attraction, a-b-da, 14, 2, 6, 30, 90, 165, 165, 90, 153, 83, 3, 0.953275
201, 3, bw, attraction, a-b-da, 14, 1, 6, 31, 60, 135, 135, 60, 125, 56, 1, 4.75301
201, 3, bw, attraction, a-b-da, 14, 1, 6, 31, 60, 135, 135, 60, 125, 56, 3, 1.08866
201, 3, bw, filler, NA, 999, 999, 6, 32, 58, 140, 147, 70, 181, 76, 3, 1.07498
201, 3, bw, filler, NA, 999, 999, 6, 32, 58, 140, 147, 70, 181, 76, 1, 0.918586
201, 3, bw, attraction, a-b-db, 9, 2, 6, 33, 165, 90, 90, 165, 86, 157, 2, 3.43162
201, 3, bw, attraction, a-b-db, 9, 2, 6, 33, 165, 90, 90, 165, 86, 157, 1, 1.20469
201, 3, bw, filler, NA, 999, 999, 6, 34, 154, 107, 92, 125, 163, 86, 1, 1.15407
201, 3, bw, filler, NA, 999, 999, 6, 34, 154, 107, 92, 125, 163, 86, 2, 0.706373
201, 3, bw, filler, NA, 999, 999, 6, 35, 96, 133, 110, 194, 147, 93, 2, 1.50006
201, 3, bw, filler, NA, 999, 999, 6, 35, 96, 133, 110, 194, 147, 93, 1, 0.686813
201, 3, bw, attraction, a-b-da, 5, 1, 6, 36, 132, 58, 135, 60, 60, 135, 3, 1.21732
201, 3, bw, attraction, a-b-da, 5, 1, 6, 36, 132, 58, 135, 60, 60, 135, 2, 1.27154
201, 3, bw, catch, NA, 999, 999, 6, 37, 137, 178, 164, 91, 120, 75, 1, 0.914382
201, 3, bw, catch, NA, 999, 999, 6, 37, 137, 178, 164, 91, 120, 75, 3, 0.724813
201, 3, bw, filler, NA, 999, 999, 7, 1, 104, 79, 154, 64, 79, 93, 1, 1.87726
201, 3, bw, filler, NA, 999, 999, 7, 1, 104, 79, 154, 64, 79, 93, 3, 1.60864
201, 3, bw, attraction, a-b-da, 5, 3, 7, 2, 195, 120, 120, 195, 190, 117, 2, 7.30128
201, 3, bw, attraction, a-b-da, 5, 3, 7, 2, 195, 120, 120, 195, 190, 117, 3, 0.982496
201, 3, bw, filler, NA, 999, 999, 7, 3, 62, 118, 154, 111, 186, 150, 3, 1.3807
201, 3, bw, filler, NA, 999, 999, 7, 3, 62, 118, 154, 111, 186, 150, 1, 0.844218
201, 3, bw, attraction, a-b-da, 14, 2, 7, 4, 90, 165, 165, 90, 153, 83, 1, 1.54389
201, 3, bw, attraction, a-b-da, 14, 2, 7, 4, 90, 165, 165, 90, 153, 83, 3, 0.672725
201, 3, bw, attraction, a-b-db, 5, 2, 7, 5, 88, 161, 90, 165, 165, 90, 2, 0.8838
201, 3, bw, attraction, a-b-db, 5, 2, 7, 5, 88, 161, 90, 165, 165, 90, 3, 0.791507
201, 3, bw, attraction, a-b-db, 9, 2, 7, 6, 165, 90, 90, 165, 86, 157, 2, 4.38123
201, 3, bw, attraction, a-b-db, 9, 2, 7, 6, 165, 90, 90, 165, 86, 157, 3, 0.811848
201, 3, bw, attraction, a-b-db, 9, 3, 7, 7, 195, 120, 114, 186, 120, 195, 3, 1.73683
201, 3, bw, attraction, a-b-db, 9, 3, 7, 7, 195, 120, 114, 186, 120, 195, 1, 1.29019
201, 3, bw, attraction, a-b-da, 2, 3, 7, 8, 120, 195, 195, 120, 193, 119, 1, 1.68377
201, 3, bw, attraction, a-b-da, 2, 3, 7, 8, 120, 195, 195, 120, 193, 119, 2, 0.927237
201, 3, bw, attraction, a-b-db, 5, 1, 7, 9, 58, 132, 60, 135, 135, 60, 2, 2.36753
201, 3, bw, attraction, a-b-db, 5, 1, 7, 9, 58, 132, 60, 135, 135, 60, 3, 1.2475
201, 3, bw, filler, NA, 999, 999, 7, 10, 140, 85, 160, 132, 58, 124, 2, 6.87494
201, 3, bw, filler, NA, 999, 999, 7, 10, 140, 85, 160, 132, 58, 124, 3, 0.844958
201, 3, bw, attraction, a-b-da, 2, 1, 7, 11, 134, 59, 60, 135, 135, 60, 2, 2.38445
201, 3, bw, attraction, a-b-da, 2, 1, 7, 11, 134, 59, 60, 135, 135, 60, 1, 1.15166
201, 3, bw, attraction, a-b-da, 9, 3, 7, 12, 120, 195, 195, 120, 186, 114, 1, 1.60726
201, 3, bw, attraction, a-b-da, 9, 3, 7, 12, 120, 195, 195, 120, 186, 114, 2, 0.637584
201, 3, bw, filler, NA, 999, 999, 7, 13, 148, 119, 101, 117, 113, 59, 1, 1.20179
201, 3, bw, filler, NA, 999, 999, 7, 13, 148, 119, 101, 117, 113, 59, 3, 1.15297
201, 3, bw, filler, NA, 999, 999, 7, 14, 145, 127, 178, 99, 85, 155, 1, 1.02432
201, 3, bw, filler, NA, 999, 999, 7, 14, 145, 127, 178, 99, 85, 155, 3, 0.87001
201, 3, bw, filler, NA, 999, 999, 7, 15, 116, 119, 102, 93, 151, 141, 3, 0.809007
201, 3, bw, filler, NA, 999, 999, 7, 15, 116, 119, 102, 93, 151, 141, 2, 0.591404
201, 3, bw, attraction, a-b-db, 9, 1, 7, 16, 135, 60, 57, 129, 60, 135, 2, 6.07729
201, 3, bw, attraction, a-b-db, 9, 1, 7, 16, 135, 60, 57, 129, 60, 135, 1, 1.50341
201, 3, bw, attraction, a-b-db, 2, 1, 7, 17, 135, 60, 59, 134, 60, 135, 2, 1.67274
201, 3, bw, attraction, a-b-db, 2, 1, 7, 17, 135, 60, 59, 134, 60, 135, 3, 0.820236
201, 3, bw, attraction, a-b-da, 14, 3, 7, 18, 195, 120, 120, 195, 181, 111, 2, 1.15318
201, 3, bw, attraction, a-b-da, 14, 3, 7, 18, 195, 120, 120, 195, 181, 111, 3, 0.882231
201, 3, bw, attraction, a-b-da, 2, 2, 7, 19, 165, 90, 90, 165, 163, 89, 2, 2.3884
201, 3, bw, attraction, a-b-da, 2, 2, 7, 19, 165, 90, 90, 165, 163, 89, 3, 0.635834
201, 3, bw, catch, NA, 999, 999, 7, 20, 97, 158, 98, 97, 149, 166, 3, 1.0722
201, 3, bw, catch, NA, 999, 999, 7, 20, 97, 158, 98, 97, 149, 166, 2, 0.763712
201, 3, bw, attraction, a-b-db, 14, 1, 7, 21, 56, 125, 135, 60, 60, 135, 2, 4.56267
201, 3, bw, attraction, a-b-db, 14, 1, 7, 21, 56, 125, 135, 60, 60, 135, 1, 0.809998
201, 3, bw, attraction, a-b-db, 2, 2, 7, 22, 89, 163, 165, 90, 90, 165, 1, 3.71096
201, 3, bw, attraction, a-b-db, 2, 2, 7, 22, 89, 163, 165, 90, 90, 165, 2, 1.46449
201, 3, bw, attraction, a-b-da, 9, 2, 7, 23, 157, 86, 90, 165, 165, 90, 2, 2.62742
201, 3, bw, attraction, a-b-da, 9, 2, 7, 23, 157, 86, 90, 165, 165, 90, 1, 1.02453
201, 3, bw, attraction, a-b-db, 14, 3, 7, 24, 120, 195, 195, 120, 111, 181, 1, 4.20471
201, 3, bw, attraction, a-b-db, 14, 3, 7, 24, 120, 195, 195, 120, 111, 181, 3, 1.22693
201, 3, bw, attraction, a-b-da, 5, 1, 7, 25, 135, 60, 60, 135, 132, 58, 2, 1.41495
201, 3, bw, attraction, a-b-da, 5, 1, 7, 25, 135, 60, 60, 135, 132, 58, 3, 0.757253
201, 3, bw, filler, NA, 999, 999, 7, 26, 75, 79, 124, 160, 101, 170, 2, 1.0281
201, 3, bw, filler, NA, 999, 999, 7, 26, 75, 79, 124, 160, 101, 170, 1, 1.16983
201, 3, bw, catch, NA, 999, 999, 7, 27, 68, 127, 153, 162, 100, 155, 2, 0.936776
201, 3, bw, catch, NA, 999, 999, 7, 27, 68, 127, 153, 162, 100, 155, 1, 1.21846
201, 3, bw, attraction, a-b-da, 5, 2, 7, 28, 161, 88, 90, 165, 165, 90, 2, 4.2233
201, 3, bw, attraction, a-b-da, 5, 2, 7, 28, 161, 88, 90, 165, 165, 90, 3, 0.987937
201, 3, bw, filler, NA, 999, 999, 7, 29, 181, 145, 74, 156, 188, 192, 3, 1.25831
201, 3, bw, filler, NA, 999, 999, 7, 29, 181, 145, 74, 156, 188, 192, 2, 0.670546
201, 3, bw, attraction, a-b-db, 14, 2, 7, 30, 165, 90, 90, 165, 83, 153, 2, 0.929618
201, 3, bw, attraction, a-b-db, 14, 2, 7, 30, 165, 90, 90, 165, 83, 153, 3, 0.667315
201, 3, bw, catch, NA, 999, 999, 7, 31, 96, 99, 92, 163, 167, 148, 3, 0.846317
201, 3, bw, catch, NA, 999, 999, 7, 31, 96, 99, 92, 163, 167, 148, 1, 0.875399
201, 3, bw, filler, NA, 999, 999, 7, 32, 147, 99, 72, 79, 126, 170, 3, 1.56573
201, 3, bw, filler, NA, 999, 999, 7, 32, 147, 99, 72, 79, 126, 170, 2, 0.861975
201, 3, bw, attraction, a-b-da, 14, 1, 7, 33, 60, 135, 125, 56, 135, 60, 1, 1.04087
201, 3, bw, attraction, a-b-da, 14, 1, 7, 33, 60, 135, 125, 56, 135, 60, 2, 2.14188
201, 3, bw, filler, NA, 999, 999, 7, 34, 156, 170, 152, 118, 160, 127, 1, 9.34104
201, 3, bw, filler, NA, 999, 999, 7, 34, 156, 170, 152, 118, 160, 127, 2, 0.68353
201, 3, bw, attraction, a-b-db, 5, 3, 7, 35, 120, 195, 195, 120, 117, 190, 2, 2.02988
201, 3, bw, attraction, a-b-db, 5, 3, 7, 35, 120, 195, 195, 120, 117, 190, 3, 1.5952
201, 3, bw, attraction, a-b-da, 9, 1, 7, 36, 129, 57, 60, 135, 135, 60, 2, 0.768617
201, 3, bw, attraction, a-b-da, 9, 1, 7, 36, 129, 57, 60, 135, 135, 60, 1, 1.06526
201, 3, bw, attraction, a-b-db, 2, 3, 7, 37, 195, 120, 119, 193, 120, 195, 1, 3.86797
201, 3, bw, attraction, a-b-db, 2, 3, 7, 37, 195, 120, 119, 193, 120, 195, 2, 1.89552
201, 3, bw, attraction, a-b-db, 14, 3, 8, 1, 111, 181, 120, 195, 195, 120, 2, 2.16085
201, 3, bw, attraction, a-b-db, 14, 3, 8, 1, 111, 181, 120, 195, 195, 120, 1, 0.800805
201, 3, bw, attraction, a-b-da, 9, 2, 8, 2, 157, 86, 90, 165, 165, 90, 2, 0.910411
201, 3, bw, attraction, a-b-da, 9, 2, 8, 2, 157, 86, 90, 165, 165, 90, 1, 0.840849
201, 3, bw, attraction, a-b-db, 2, 3, 8, 3, 195, 120, 120, 195, 119, 193, 2, 0.796472
201, 3, bw, attraction, a-b-db, 2, 3, 8, 3, 195, 120, 120, 195, 119, 193, 1, 0.859594
201, 3, bw, attraction, a-b-db, 9, 1, 8, 4, 135, 60, 57, 129, 60, 135, 2, 1.72656
201, 3, bw, attraction, a-b-db, 9, 1, 8, 4, 135, 60, 57, 129, 60, 135, 1, 1.94399
201, 3, bw, attraction, a-b-da, 14, 3, 8, 5, 181, 111, 120, 195, 195, 120, 2, 0.855279
201, 3, bw, attraction, a-b-da, 14, 3, 8, 5, 181, 111, 120, 195, 195, 120, 1, 0.699861
201, 3, bw, filler, NA, 999, 999, 8, 6, 192, 166, 152, 152, 143, 189, 1, 6.17408
201, 3, bw, filler, NA, 999, 999, 8, 6, 192, 166, 152, 152, 143, 189, 2, 1.24343
201, 3, bw, filler, NA, 999, 999, 8, 7, 97, 170, 155, 99, 135, 86, 1, 1.57497
201, 3, bw, filler, NA, 999, 999, 8, 7, 97, 170, 155, 99, 135, 86, 3, 0.846622
201, 3, bw, attraction, a-b-da, 5, 1, 8, 8, 60, 135, 135, 60, 132, 58, 1, 1.45007
201, 3, bw, attraction, a-b-da, 5, 1, 8, 8, 60, 135, 135, 60, 132, 58, 3, 0.726999
201, 3, bw, attraction, a-b-db, 2, 2, 8, 9, 90, 165, 165, 90, 89, 163, 1, 2.06348
201, 3, bw, attraction, a-b-db, 2, 2, 8, 9, 90, 165, 165, 90, 89, 163, 2, 1.28339
201, 3, bw, attraction, a-b-db, 14, 1, 8, 10, 56, 125, 60, 135, 135, 60, 2, 1.93365
201, 3, bw, attraction, a-b-db, 14, 1, 8, 10, 56, 125, 60, 135, 135, 60, 1, 0.663005
201, 3, bw, attraction, a-b-db, 9, 3, 8, 11, 114, 186, 195, 120, 120, 195, 3, 3.60208
201, 3, bw, attraction, a-b-db, 9, 3, 8, 11, 114, 186, 195, 120, 120, 195, 2, 1.41618
201, 3, bw, filler, NA, 999, 999, 8, 12, 77, 111, 155, 188, 134, 74, 2, 0.717149
201, 3, bw, filler, NA, 999, 999, 8, 12, 77, 111, 155, 188, 134, 74, 1, 0.527519
201, 3, bw, filler, NA, 999, 999, 8, 13, 129, 86, 124, 187, 145, 118, 2, 0.656017
201, 3, bw, filler, NA, 999, 999, 8, 13, 129, 86, 124, 187, 145, 118, 1, 0.532298
201, 3, bw, attraction, a-b-db, 5, 2, 8, 14, 90, 165, 165, 90, 88, 161, 1, 6.2529
201, 3, bw, attraction, a-b-db, 5, 2, 8, 14, 90, 165, 165, 90, 88, 161, 2, 3.39223
201, 3, bw, catch, NA, 999, 999, 8, 15, 105, 90, 167, 148, 164, 91, 2, 0.677114
201, 3, bw, catch, NA, 999, 999, 8, 15, 105, 90, 167, 148, 164, 91, 1, 0.728789
201, 3, bw, attraction, a-b-db, 5, 1, 8, 16, 60, 135, 58, 132, 135, 60, 1, 3.00119
201, 3, bw, attraction, a-b-db, 5, 1, 8, 16, 60, 135, 58, 132, 135, 60, 2, 0.767559
201, 3, bw, attraction, a-b-db, 5, 3, 8, 17, 195, 120, 120, 195, 117, 190, 2, 6.30257
201, 3, bw, attraction, a-b-db, 5, 3, 8, 17, 195, 120, 120, 195, 117, 190, 3, 0.576021
201, 3, bw, attraction, a-b-db, 9, 2, 8, 18, 90, 165, 86, 157, 165, 90, 2, 1.15837
201, 3, bw, attraction, a-b-db, 9, 2, 8, 18, 90, 165, 86, 157, 165, 90, 3, 0.806568
201, 3, bw, attraction, a-b-db, 2, 1, 8, 19, 60, 135, 135, 60, 59, 134, 1, 1.01222
201, 3, bw, attraction, a-b-db, 2, 1, 8, 19, 60, 135, 135, 60, 59, 134, 2, 2.85059
201, 3, bw, attraction, a-b-da, 9, 1, 8, 20, 135, 60, 60, 135, 129, 57, 2, 18.3337
201, 3, bw, attraction, a-b-da, 9, 1, 8, 20, 135, 60, 60, 135, 129, 57, 3, 1.53002
201, 3, bw, attraction, a-b-da, 2, 3, 8, 21, 193, 119, 120, 195, 195, 120, 2, 0.753948
201, 3, bw, attraction, a-b-da, 2, 3, 8, 21, 193, 119, 120, 195, 195, 120, 1, 0.683092
201, 3, bw, attraction, a-b-da, 14, 2, 8, 22, 165, 90, 90, 165, 153, 83, 2, 0.501518
201, 3, bw, attraction, a-b-da, 14, 2, 8, 22, 165, 90, 90, 165, 153, 83, 3, 0.600652
201, 3, bw, attraction, a-b-da, 9, 3, 8, 23, 120, 195, 186, 114, 195, 120, 3, 2.88643
201, 3, bw, attraction, a-b-da, 9, 3, 8, 23, 120, 195, 186, 114, 195, 120, 2, 0.825469
201, 3, bw, attraction, a-b-da, 14, 1, 8, 24, 135, 60, 60, 135, 125, 56, 2, 0.983052
201, 3, bw, attraction, a-b-da, 14, 1, 8, 24, 135, 60, 60, 135, 125, 56, 3, 2.27754
201, 3, bw, attraction, a-b-da, 5, 3, 8, 25, 190, 117, 120, 195, 195, 120, 2, 1.14342
201, 3, bw, attraction, a-b-da, 5, 3, 8, 25, 190, 117, 120, 195, 195, 120, 1, 0.624386
201, 3, bw, filler, NA, 999, 999, 8, 26, 126, 97, 91, 100, 144, 92, 3, 1.34878
201, 3, bw, filler, NA, 999, 999, 8, 26, 126, 97, 91, 100, 144, 92, 2, 1.08581
201, 3, bw, catch, NA, 999, 999, 8, 27, 157, 158, 66, 129, 112, 143, 1, 0.832049
201, 3, bw, catch, NA, 999, 999, 8, 27, 157, 158, 66, 129, 112, 143, 2, 0.693641
201, 3, bw, attraction, a-b-da, 2, 1, 8, 28, 135, 60, 134, 59, 60, 135, 3, 1.20738
201, 3, bw, attraction, a-b-da, 2, 1, 8, 28, 135, 60, 134, 59, 60, 135, 2, 0.773603
201, 3, bw, filler, NA, 999, 999, 8, 29, 69, 138, 181, 99, 67, 57, 2, 0.676079
201, 3, bw, filler, NA, 999, 999, 8, 29, 69, 138, 181, 99, 67, 57, 3, 0.615709
201, 3, bw, filler, NA, 999, 999, 8, 30, 79, 105, 121, 70, 70, 179, 3, 1.74092
201, 3, bw, filler, NA, 999, 999, 8, 30, 79, 105, 121, 70, 70, 179, 1, 1.18167
201, 3, bw, filler, NA, 999, 999, 8, 31, 190, 95, 123, 168, 60, 156, 2, 0.699878
201, 3, bw, filler, NA, 999, 999, 8, 31, 190, 95, 123, 168, 60, 156, 3, 1.83894
201, 3, bw, attraction, a-b-da, 5, 2, 8, 32, 165, 90, 90, 165, 161, 88, 2, 1.05893
201, 3, bw, attraction, a-b-da, 5, 2, 8, 32, 165, 90, 90, 165, 161, 88, 1, 1.07142
201, 3, bw, catch, NA, 999, 999, 8, 33, 133, 182, 83, 112, 118, 137, 1, 1.17018
201, 3, bw, catch, NA, 999, 999, 8, 33, 133, 182, 83, 112, 118, 137, 2, 0.522492
201, 3, bw, filler, NA, 999, 999, 8, 34, 172, 84, 166, 67, 102, 103, 1, 1.33951
201, 3, bw, filler, NA, 999, 999, 8, 34, 172, 84, 166, 67, 102, 103, 3, 0.572683
201, 3, bw, attraction, a-b-db, 14, 2, 8, 35, 90, 165, 83, 153, 165, 90, 3, 19.2916
201, 3, bw, attraction, a-b-db, 14, 2, 8, 35, 90, 165, 83, 153, 165, 90, 2, 0.913568
201, 3, bw, attraction, a-b-da, 2, 2, 8, 36, 90, 165, 165, 90, 163, 89, 1, 2.05049
201, 3, bw, attraction, a-b-da, 2, 2, 8, 36, 90, 165, 165, 90, 163, 89, 2, 0.759211
201, 3, bw, filler, NA, 999, 999, 8, 37, 82, 103, 89, 166, 119, 116, 2, 1.67828
201, 3, bw, filler, NA, 999, 999, 8, 37, 82, 103, 89, 166, 119, 116, 1, 0.67362
