sub_n, computer_n, bw_cond, effect, set, distance, diag, block_n, trial_n, h1, w1, h2, w2, h3, w3, choice, rt 
216, 3, wb, practice, NA, 999, 999, 0, 1, 105, 162, 137, 168, 193, 136, 1, 4.01455
216, 3, wb, practice, NA, 999, 999, 0, 1, 105, 162, 137, 168, 193, 136, 3, 5.76415
216, 3, wb, practice, NA, 999, 999, 0, 2, 174, 97, 175, 91, 177, 175, 2, 4.24041
216, 3, wb, practice, NA, 999, 999, 0, 2, 174, 97, 175, 91, 177, 175, 3, 2.06649
216, 3, wb, practice, NA, 999, 999, 0, 3, 59, 175, 143, 101, 143, 83, 1, 2.23373
216, 3, wb, practice, NA, 999, 999, 0, 3, 59, 175, 143, 101, 143, 83, 2, 0.856334
216, 3, wb, attraction, a-b-da, 5, 3, 1, 1, 195, 120, 190, 117, 120, 195, 2, 5.13416
216, 3, wb, attraction, a-b-da, 5, 3, 1, 1, 195, 120, 190, 117, 120, 195, 3, 1.12636
216, 3, wb, attraction, a-b-db, 5, 2, 1, 2, 165, 90, 90, 165, 88, 161, 3, 2.0146
216, 3, wb, attraction, a-b-db, 5, 2, 1, 2, 165, 90, 90, 165, 88, 161, 2, 4.16465
216, 3, wb, attraction, a-b-da, 14, 1, 1, 3, 135, 60, 125, 56, 60, 135, 2, 3.0426
216, 3, wb, attraction, a-b-da, 14, 1, 1, 3, 135, 60, 125, 56, 60, 135, 1, 6.83892
216, 3, wb, filler, NA, 999, 999, 1, 4, 152, 91, 60, 173, 139, 65, 3, 2.73747
216, 3, wb, filler, NA, 999, 999, 1, 4, 152, 91, 60, 173, 139, 65, 1, 1.17867
216, 3, wb, attraction, a-b-da, 14, 3, 1, 5, 195, 120, 181, 111, 120, 195, 1, 5.04877
216, 3, wb, attraction, a-b-da, 14, 3, 1, 5, 195, 120, 181, 111, 120, 195, 3, 0.796554
216, 3, wb, attraction, a-b-db, 9, 1, 1, 6, 57, 129, 60, 135, 135, 60, 1, 2.64221
216, 3, wb, attraction, a-b-db, 9, 1, 1, 6, 57, 129, 60, 135, 135, 60, 2, 3.47063
216, 3, wb, filler, NA, 999, 999, 1, 7, 57, 78, 139, 61, 140, 71, 1, 1.28885
216, 3, wb, filler, NA, 999, 999, 1, 7, 57, 78, 139, 61, 140, 71, 3, 1.2518
216, 3, wb, attraction, a-b-da, 2, 2, 1, 8, 90, 165, 163, 89, 165, 90, 1, 11.9835
216, 3, wb, attraction, a-b-da, 2, 2, 1, 8, 90, 165, 163, 89, 165, 90, 3, 0.795543
216, 3, wb, attraction, a-b-db, 14, 2, 1, 9, 165, 90, 83, 153, 90, 165, 2, 2.62521
216, 3, wb, attraction, a-b-db, 14, 2, 1, 9, 165, 90, 83, 153, 90, 165, 1, 1.07835
216, 3, wb, catch, NA, 999, 999, 1, 10, 170, 145, 101, 94, 110, 145, 2, 1.15265
216, 3, wb, catch, NA, 999, 999, 1, 10, 170, 145, 101, 94, 110, 145, 1, 0.705604
216, 3, wb, filler, NA, 999, 999, 1, 11, 64, 193, 108, 117, 57, 186, 3, 2.71552
216, 3, wb, filler, NA, 999, 999, 1, 11, 64, 193, 108, 117, 57, 186, 2, 2.42118
216, 3, wb, attraction, a-b-da, 5, 2, 1, 12, 90, 165, 161, 88, 165, 90, 2, 5.64165
216, 3, wb, attraction, a-b-da, 5, 2, 1, 12, 90, 165, 161, 88, 165, 90, 1, 0.781286
216, 3, wb, catch, NA, 999, 999, 1, 13, 128, 127, 102, 93, 182, 133, 2, 1.84364
216, 3, wb, catch, NA, 999, 999, 1, 13, 128, 127, 102, 93, 182, 133, 3, 1.80039
216, 3, wb, attraction, a-b-db, 14, 1, 1, 14, 60, 135, 56, 125, 135, 60, 2, 2.74961
216, 3, wb, attraction, a-b-db, 14, 1, 1, 14, 60, 135, 56, 125, 135, 60, 1, 0.662168
216, 3, wb, filler, NA, 999, 999, 1, 15, 65, 162, 121, 84, 103, 95, 3, 9.72136
216, 3, wb, filler, NA, 999, 999, 1, 15, 65, 162, 121, 84, 103, 95, 1, 1.16893
216, 3, wb, attraction, a-b-db, 14, 3, 1, 16, 120, 195, 111, 181, 195, 120, 2, 10.6318
216, 3, wb, attraction, a-b-db, 14, 3, 1, 16, 120, 195, 111, 181, 195, 120, 3, 0.634389
216, 3, wb, attraction, a-b-da, 5, 1, 1, 17, 132, 58, 60, 135, 135, 60, 1, 3.47882
216, 3, wb, attraction, a-b-da, 5, 1, 1, 17, 132, 58, 60, 135, 135, 60, 2, 0.337745
216, 3, wb, attraction, a-b-db, 9, 3, 1, 18, 195, 120, 120, 195, 114, 186, 2, 8.75411
216, 3, wb, attraction, a-b-db, 9, 3, 1, 18, 195, 120, 120, 195, 114, 186, 3, 0.800777
216, 3, wb, filler, NA, 999, 999, 1, 19, 138, 126, 150, 101, 87, 71, 3, 0.982437
216, 3, wb, filler, NA, 999, 999, 1, 19, 138, 126, 150, 101, 87, 71, 1, 0.782112
216, 3, wb, attraction, a-b-db, 5, 1, 1, 20, 60, 135, 135, 60, 58, 132, 3, 4.54049
216, 3, wb, attraction, a-b-db, 5, 1, 1, 20, 60, 135, 135, 60, 58, 132, 2, 0.812465
216, 3, wb, attraction, a-b-db, 5, 3, 1, 21, 117, 190, 120, 195, 195, 120, 2, 2.26536
216, 3, wb, attraction, a-b-db, 5, 3, 1, 21, 117, 190, 120, 195, 195, 120, 3, 1.11733
216, 3, wb, attraction, a-b-db, 9, 2, 1, 22, 165, 90, 86, 157, 90, 165, 2, 4.43035
216, 3, wb, attraction, a-b-db, 9, 2, 1, 22, 165, 90, 86, 157, 90, 165, 1, 0.394938
216, 3, wb, catch, NA, 999, 999, 1, 23, 142, 173, 135, 60, 97, 158, 2, 1.2648
216, 3, wb, catch, NA, 999, 999, 1, 23, 142, 173, 135, 60, 97, 158, 1, 0.404866
216, 3, wb, attraction, a-b-da, 9, 1, 1, 24, 60, 135, 129, 57, 135, 60, 2, 2.54668
216, 3, wb, attraction, a-b-da, 9, 1, 1, 24, 60, 135, 129, 57, 135, 60, 1, 0.467161
216, 3, wb, attraction, a-b-da, 9, 2, 1, 25, 90, 165, 165, 90, 157, 86, 2, 4.45426
216, 3, wb, attraction, a-b-da, 9, 2, 1, 25, 90, 165, 165, 90, 157, 86, 1, 1.81837
216, 3, wb, attraction, a-b-db, 2, 2, 1, 26, 89, 163, 90, 165, 165, 90, 2, 6.48705
216, 3, wb, attraction, a-b-db, 2, 2, 1, 26, 89, 163, 90, 165, 165, 90, 3, 1.55316
216, 3, wb, attraction, a-b-db, 2, 1, 1, 27, 135, 60, 59, 134, 60, 135, 2, 2.76051
216, 3, wb, attraction, a-b-db, 2, 1, 1, 27, 135, 60, 59, 134, 60, 135, 1, 2.94427
216, 3, wb, filler, NA, 999, 999, 1, 28, 102, 114, 68, 151, 63, 69, 3, 1.01528
216, 3, wb, filler, NA, 999, 999, 1, 28, 102, 114, 68, 151, 63, 69, 1, 0.973496
216, 3, wb, attraction, a-b-da, 2, 3, 1, 29, 193, 119, 195, 120, 120, 195, 3, 4.36374
216, 3, wb, attraction, a-b-da, 2, 3, 1, 29, 193, 119, 195, 120, 120, 195, 2, 0.483087
216, 3, wb, attraction, a-b-da, 9, 3, 1, 30, 120, 195, 195, 120, 186, 114, 1, 2.44565
216, 3, wb, attraction, a-b-da, 9, 3, 1, 30, 120, 195, 195, 120, 186, 114, 2, 0.346162
216, 3, wb, attraction, a-b-db, 2, 3, 1, 31, 119, 193, 120, 195, 195, 120, 3, 1.32184
216, 3, wb, attraction, a-b-db, 2, 3, 1, 31, 119, 193, 120, 195, 195, 120, 2, 0.683477
216, 3, wb, attraction, a-b-da, 14, 2, 1, 32, 153, 83, 90, 165, 165, 90, 1, 2.01386
216, 3, wb, attraction, a-b-da, 14, 2, 1, 32, 153, 83, 90, 165, 165, 90, 2, 1.02801
216, 3, wb, filler, NA, 999, 999, 1, 33, 106, 153, 130, 119, 194, 125, 2, 8.24026
216, 3, wb, filler, NA, 999, 999, 1, 33, 106, 153, 130, 119, 194, 125, 3, 0.763524
216, 3, wb, filler, NA, 999, 999, 1, 34, 139, 182, 94, 83, 127, 89, 2, 0.978539
216, 3, wb, filler, NA, 999, 999, 1, 34, 139, 182, 94, 83, 127, 89, 1, 0.722212
216, 3, wb, filler, NA, 999, 999, 1, 35, 113, 129, 132, 182, 183, 168, 1, 1.81932
216, 3, wb, filler, NA, 999, 999, 1, 35, 113, 129, 132, 182, 183, 168, 3, 0.897384
216, 3, wb, filler, NA, 999, 999, 1, 36, 120, 122, 167, 86, 58, 162, 3, 3.22707
216, 3, wb, filler, NA, 999, 999, 1, 36, 120, 122, 167, 86, 58, 162, 1, 0.680023
216, 3, wb, attraction, a-b-da, 2, 1, 1, 37, 134, 59, 60, 135, 135, 60, 1, 1.81052
216, 3, wb, attraction, a-b-da, 2, 1, 1, 37, 134, 59, 60, 135, 135, 60, 2, 0.936503
216, 3, wb, attraction, a-b-db, 2, 3, 2, 1, 195, 120, 119, 193, 120, 195, 1, 6.1448
216, 3, wb, attraction, a-b-db, 2, 3, 2, 1, 195, 120, 119, 193, 120, 195, 2, 0.344143
216, 3, wb, filler, NA, 999, 999, 2, 2, 195, 143, 106, 188, 179, 147, 1, 1.192
216, 3, wb, filler, NA, 999, 999, 2, 2, 195, 143, 106, 188, 179, 147, 2, 0.398982
216, 3, wb, filler, NA, 999, 999, 2, 3, 162, 154, 148, 85, 186, 88, 3, 1.85285
216, 3, wb, filler, NA, 999, 999, 2, 3, 162, 154, 148, 85, 186, 88, 1, 0.401597
216, 3, wb, attraction, a-b-db, 2, 2, 2, 4, 90, 165, 89, 163, 165, 90, 1, 14.4074
216, 3, wb, attraction, a-b-db, 2, 2, 2, 4, 90, 165, 89, 163, 165, 90, 2, 0.666093
216, 3, wb, attraction, a-b-da, 2, 3, 2, 5, 195, 120, 120, 195, 193, 119, 1, 6.62919
216, 3, wb, attraction, a-b-da, 2, 3, 2, 5, 195, 120, 120, 195, 193, 119, 2, 0.513124
216, 3, wb, attraction, a-b-da, 2, 2, 2, 6, 90, 165, 165, 90, 163, 89, 3, 1.98634
216, 3, wb, attraction, a-b-da, 2, 2, 2, 6, 90, 165, 165, 90, 163, 89, 1, 1.22556
216, 3, wb, attraction, a-b-db, 9, 3, 2, 7, 195, 120, 114, 186, 120, 195, 1, 1.50184
216, 3, wb, attraction, a-b-db, 9, 3, 2, 7, 195, 120, 114, 186, 120, 195, 2, 0.704642
216, 3, wb, attraction, a-b-db, 5, 3, 2, 8, 120, 195, 195, 120, 117, 190, 2, 1.94632
216, 3, wb, attraction, a-b-db, 5, 3, 2, 8, 120, 195, 195, 120, 117, 190, 1, 0.403004
216, 3, wb, attraction, a-b-da, 9, 3, 2, 9, 186, 114, 120, 195, 195, 120, 1, 0.888973
216, 3, wb, attraction, a-b-da, 9, 3, 2, 9, 186, 114, 120, 195, 195, 120, 2, 1.02781
216, 3, wb, filler, NA, 999, 999, 2, 10, 183, 166, 69, 193, 124, 188, 2, 1.14428
216, 3, wb, filler, NA, 999, 999, 2, 10, 183, 166, 69, 193, 124, 188, 1, 0.625352
216, 3, wb, attraction, a-b-db, 9, 1, 2, 11, 135, 60, 57, 129, 60, 135, 3, 2.76567
216, 3, wb, attraction, a-b-db, 9, 1, 2, 11, 135, 60, 57, 129, 60, 135, 2, 1.43734
216, 3, wb, filler, NA, 999, 999, 2, 12, 160, 105, 144, 134, 110, 126, 3, 3.00942
216, 3, wb, filler, NA, 999, 999, 2, 12, 160, 105, 144, 134, 110, 126, 2, 0.60712
216, 3, wb, catch, NA, 999, 999, 2, 13, 158, 157, 142, 113, 116, 79, 3, 0.796203
216, 3, wb, catch, NA, 999, 999, 2, 13, 158, 157, 142, 113, 116, 79, 1, 0.579426
216, 3, wb, attraction, a-b-da, 5, 2, 2, 14, 90, 165, 165, 90, 161, 88, 2, 1.80176
216, 3, wb, attraction, a-b-da, 5, 2, 2, 14, 90, 165, 165, 90, 161, 88, 3, 0.808404
216, 3, wb, filler, NA, 999, 999, 2, 15, 112, 56, 86, 188, 118, 172, 1, 1.64543
216, 3, wb, filler, NA, 999, 999, 2, 15, 112, 56, 86, 188, 118, 172, 3, 0.890479
216, 3, wb, attraction, a-b-db, 2, 1, 2, 16, 59, 134, 60, 135, 135, 60, 1, 0.852032
216, 3, wb, attraction, a-b-db, 2, 1, 2, 16, 59, 134, 60, 135, 135, 60, 2, 1.57698
216, 3, wb, attraction, a-b-db, 14, 2, 2, 17, 83, 153, 90, 165, 165, 90, 1, 0.863221
216, 3, wb, attraction, a-b-db, 14, 2, 2, 17, 83, 153, 90, 165, 165, 90, 2, 0.29949
216, 3, wb, attraction, a-b-da, 14, 1, 2, 18, 135, 60, 60, 135, 125, 56, 1, 0.597337
216, 3, wb, attraction, a-b-da, 14, 1, 2, 18, 135, 60, 60, 135, 125, 56, 2, 0.284431
216, 3, wb, attraction, a-b-da, 5, 3, 2, 19, 120, 195, 190, 117, 195, 120, 3, 5.86313
216, 3, wb, attraction, a-b-da, 5, 3, 2, 19, 120, 195, 190, 117, 195, 120, 2, 1.72981
216, 3, wb, filler, NA, 999, 999, 2, 20, 135, 86, 114, 119, 91, 120, 3, 1.81784
216, 3, wb, filler, NA, 999, 999, 2, 20, 135, 86, 114, 119, 91, 120, 2, 2.37594
216, 3, wb, attraction, a-b-db, 5, 1, 2, 21, 58, 132, 135, 60, 60, 135, 3, 2.98992
216, 3, wb, attraction, a-b-db, 5, 1, 2, 21, 58, 132, 135, 60, 60, 135, 2, 1.30027
216, 3, wb, attraction, a-b-db, 5, 2, 2, 22, 90, 165, 165, 90, 88, 161, 2, 3.10967
216, 3, wb, attraction, a-b-db, 5, 2, 2, 22, 90, 165, 165, 90, 88, 161, 3, 0.887434
216, 3, wb, attraction, a-b-db, 14, 1, 2, 23, 60, 135, 135, 60, 56, 125, 2, 3.25764
216, 3, wb, attraction, a-b-db, 14, 1, 2, 23, 60, 135, 135, 60, 56, 125, 1, 0.477435
216, 3, wb, attraction, a-b-da, 9, 1, 2, 24, 60, 135, 135, 60, 129, 57, 1, 3.57591
216, 3, wb, attraction, a-b-da, 9, 1, 2, 24, 60, 135, 135, 60, 129, 57, 2, 0.598685
216, 3, wb, attraction, a-b-da, 14, 2, 2, 25, 165, 90, 90, 165, 153, 83, 3, 3.10038
216, 3, wb, attraction, a-b-da, 14, 2, 2, 25, 165, 90, 90, 165, 153, 83, 2, 0.58287
216, 3, wb, attraction, a-b-db, 14, 3, 2, 26, 120, 195, 111, 181, 195, 120, 2, 1.55718
216, 3, wb, attraction, a-b-db, 14, 3, 2, 26, 120, 195, 111, 181, 195, 120, 1, 0.749416
216, 3, wb, filler, NA, 999, 999, 2, 27, 105, 152, 137, 150, 132, 174, 1, 1.20511
216, 3, wb, filler, NA, 999, 999, 2, 27, 105, 152, 137, 150, 132, 174, 3, 1.81128
216, 3, wb, catch, NA, 999, 999, 2, 28, 71, 124, 97, 158, 135, 180, 1, 0.703931
216, 3, wb, catch, NA, 999, 999, 2, 28, 71, 124, 97, 158, 135, 180, 3, 0.707143
216, 3, wb, attraction, a-b-da, 2, 1, 2, 29, 135, 60, 60, 135, 134, 59, 2, 1.50816
216, 3, wb, attraction, a-b-da, 2, 1, 2, 29, 135, 60, 60, 135, 134, 59, 1, 0.502419
216, 3, wb, catch, NA, 999, 999, 2, 30, 195, 120, 116, 79, 159, 96, 2, 1.18408
216, 3, wb, catch, NA, 999, 999, 2, 30, 195, 120, 116, 79, 159, 96, 1, 0.607664
216, 3, wb, attraction, a-b-da, 9, 2, 2, 31, 165, 90, 157, 86, 90, 165, 2, 3.31668
216, 3, wb, attraction, a-b-da, 9, 2, 2, 31, 165, 90, 157, 86, 90, 165, 3, 1.41454
216, 3, wb, filler, NA, 999, 999, 2, 32, 195, 123, 78, 127, 179, 101, 2, 0.691175
216, 3, wb, filler, NA, 999, 999, 2, 32, 195, 123, 78, 127, 179, 101, 1, 0.390197
216, 3, wb, filler, NA, 999, 999, 2, 33, 134, 164, 109, 144, 88, 61, 3, 1.37211
216, 3, wb, filler, NA, 999, 999, 2, 33, 134, 164, 109, 144, 88, 61, 1, 1.00363
216, 3, wb, attraction, a-b-da, 5, 1, 2, 34, 135, 60, 132, 58, 60, 135, 3, 1.69732
216, 3, wb, attraction, a-b-da, 5, 1, 2, 34, 135, 60, 132, 58, 60, 135, 1, 0.652019
216, 3, wb, attraction, a-b-da, 14, 3, 2, 35, 120, 195, 195, 120, 181, 111, 3, 11.9597
216, 3, wb, attraction, a-b-da, 14, 3, 2, 35, 120, 195, 195, 120, 181, 111, 1, 1.08471
216, 3, wb, filler, NA, 999, 999, 2, 36, 84, 61, 58, 151, 90, 132, 1, 1.30299
216, 3, wb, filler, NA, 999, 999, 2, 36, 84, 61, 58, 151, 90, 132, 3, 0.913886
216, 3, wb, attraction, a-b-db, 9, 2, 2, 37, 86, 157, 165, 90, 90, 165, 1, 3.77097
216, 3, wb, attraction, a-b-db, 9, 2, 2, 37, 86, 157, 165, 90, 90, 165, 2, 0.594334
216, 3, wb, catch, NA, 999, 999, 3, 1, 111, 144, 179, 136, 80, 115, 3, 0.880213
216, 3, wb, catch, NA, 999, 999, 3, 1, 111, 144, 179, 136, 80, 115, 2, 0.347698
216, 3, wb, attraction, a-b-da, 5, 3, 3, 2, 190, 117, 120, 195, 195, 120, 1, 2.88366
216, 3, wb, attraction, a-b-da, 5, 3, 3, 2, 190, 117, 120, 195, 195, 120, 2, 0.278605
216, 3, wb, attraction, a-b-db, 14, 1, 3, 3, 56, 125, 60, 135, 135, 60, 1, 2.64922
216, 3, wb, attraction, a-b-db, 14, 1, 3, 3, 56, 125, 60, 135, 135, 60, 3, 0.757711
216, 3, wb, attraction, a-b-db, 2, 2, 3, 4, 90, 165, 89, 163, 165, 90, 2, 2.01276
216, 3, wb, attraction, a-b-db, 2, 2, 3, 4, 90, 165, 89, 163, 165, 90, 1, 0.410727
216, 3, wb, attraction, a-b-da, 2, 3, 3, 5, 195, 120, 120, 195, 193, 119, 2, 2.08039
216, 3, wb, attraction, a-b-da, 2, 3, 3, 5, 195, 120, 120, 195, 193, 119, 3, 0.371157
216, 3, wb, catch, NA, 999, 999, 3, 6, 89, 106, 164, 91, 132, 183, 1, 0.61828
216, 3, wb, catch, NA, 999, 999, 3, 6, 89, 106, 164, 91, 132, 183, 3, 0.512755
216, 3, wb, attraction, a-b-db, 2, 1, 3, 7, 59, 134, 60, 135, 135, 60, 2, 1.65782
216, 3, wb, attraction, a-b-db, 2, 1, 3, 7, 59, 134, 60, 135, 135, 60, 1, 1.41415
216, 3, wb, attraction, a-b-db, 5, 1, 3, 8, 58, 132, 60, 135, 135, 60, 2, 1.2589
216, 3, wb, attraction, a-b-db, 5, 1, 3, 8, 58, 132, 60, 135, 135, 60, 1, 0.543085
216, 3, wb, attraction, a-b-da, 2, 2, 3, 9, 90, 165, 165, 90, 163, 89, 1, 1.66294
216, 3, wb, attraction, a-b-da, 2, 2, 3, 9, 90, 165, 165, 90, 163, 89, 2, 0.779027
216, 3, wb, attraction, a-b-da, 5, 2, 3, 10, 90, 165, 165, 90, 161, 88, 1, 0.753324
216, 3, wb, attraction, a-b-da, 5, 2, 3, 10, 90, 165, 165, 90, 161, 88, 3, 0.730466
216, 3, wb, filler, NA, 999, 999, 3, 11, 90, 93, 190, 176, 65, 103, 3, 1.73885
216, 3, wb, filler, NA, 999, 999, 3, 11, 90, 93, 190, 176, 65, 103, 2, 0.339626
216, 3, wb, filler, NA, 999, 999, 3, 12, 86, 119, 142, 188, 151, 132, 1, 0.652118
216, 3, wb, filler, NA, 999, 999, 3, 12, 86, 119, 142, 188, 151, 132, 2, 0.449251
216, 3, wb, attraction, a-b-db, 5, 3, 3, 13, 120, 195, 117, 190, 195, 120, 2, 3.1169
216, 3, wb, attraction, a-b-db, 5, 3, 3, 13, 120, 195, 117, 190, 195, 120, 3, 0.39063
216, 3, wb, filler, NA, 999, 999, 3, 14, 151, 186, 188, 125, 189, 85, 3, 1.8606
216, 3, wb, filler, NA, 999, 999, 3, 14, 151, 186, 188, 125, 189, 85, 1, 0.864647
216, 3, wb, attraction, a-b-da, 9, 3, 3, 15, 120, 195, 186, 114, 195, 120, 1, 3.21171
216, 3, wb, attraction, a-b-da, 9, 3, 3, 15, 120, 195, 186, 114, 195, 120, 2, 0.457332
216, 3, wb, attraction, a-b-db, 2, 3, 3, 16, 195, 120, 119, 193, 120, 195, 1, 0.820422
216, 3, wb, attraction, a-b-db, 2, 3, 3, 16, 195, 120, 119, 193, 120, 195, 2, 0.38673
216, 3, wb, attraction, a-b-da, 9, 1, 3, 17, 135, 60, 60, 135, 129, 57, 1, 0.769186
216, 3, wb, attraction, a-b-da, 9, 1, 3, 17, 135, 60, 60, 135, 129, 57, 2, 0.553619
216, 3, wb, attraction, a-b-db, 14, 2, 3, 18, 90, 165, 83, 153, 165, 90, 2, 7.13742
216, 3, wb, attraction, a-b-db, 14, 2, 3, 18, 90, 165, 83, 153, 165, 90, 1, 0.409151
216, 3, wb, attraction, a-b-da, 9, 2, 3, 19, 90, 165, 165, 90, 157, 86, 3, 5.08637
216, 3, wb, attraction, a-b-da, 9, 2, 3, 19, 90, 165, 165, 90, 157, 86, 2, 0.448668
216, 3, wb, filler, NA, 999, 999, 3, 20, 58, 176, 170, 62, 168, 143, 1, 1.58861
216, 3, wb, filler, NA, 999, 999, 3, 20, 58, 176, 170, 62, 168, 143, 3, 2.42746
216, 3, wb, attraction, a-b-da, 14, 3, 3, 21, 181, 111, 120, 195, 195, 120, 1, 4.08715
216, 3, wb, attraction, a-b-da, 14, 3, 3, 21, 181, 111, 120, 195, 195, 120, 2, 0.393852
216, 3, wb, filler, NA, 999, 999, 3, 22, 90, 86, 77, 97, 103, 59, 3, 4.22367
216, 3, wb, filler, NA, 999, 999, 3, 22, 90, 86, 77, 97, 103, 59, 1, 1.41224
216, 3, wb, catch, NA, 999, 999, 3, 23, 186, 129, 80, 115, 151, 104, 2, 1.37715
216, 3, wb, catch, NA, 999, 999, 3, 23, 186, 129, 80, 115, 151, 104, 1, 0.792675
216, 3, wb, filler, NA, 999, 999, 3, 24, 129, 116, 159, 160, 91, 123, 3, 1.60629
216, 3, wb, filler, NA, 999, 999, 3, 24, 129, 116, 159, 160, 91, 123, 2, 0.668446
216, 3, wb, filler, NA, 999, 999, 3, 25, 62, 106, 94, 185, 110, 164, 1, 0.999484
216, 3, wb, filler, NA, 999, 999, 3, 25, 62, 106, 94, 185, 110, 164, 3, 1.14257
216, 3, wb, attraction, a-b-db, 9, 1, 3, 26, 135, 60, 60, 135, 57, 129, 1, 1.15012
216, 3, wb, attraction, a-b-db, 9, 1, 3, 26, 135, 60, 60, 135, 57, 129, 2, 1.15905
216, 3, wb, attraction, a-b-da, 2, 1, 3, 27, 60, 135, 135, 60, 134, 59, 1, 0.758059
216, 3, wb, attraction, a-b-da, 2, 1, 3, 27, 60, 135, 135, 60, 134, 59, 3, 0.630427
216, 3, wb, filler, NA, 999, 999, 3, 28, 101, 122, 172, 120, 175, 96, 1, 1.17883
216, 3, wb, filler, NA, 999, 999, 3, 28, 101, 122, 172, 120, 175, 96, 2, 0.474408
216, 3, wb, filler, NA, 999, 999, 3, 29, 173, 138, 106, 132, 175, 106, 2, 1.60497
216, 3, wb, filler, NA, 999, 999, 3, 29, 173, 138, 106, 132, 175, 106, 1, 0.395186
216, 3, wb, filler, NA, 999, 999, 3, 30, 109, 84, 94, 107, 111, 115, 1, 1.5048
216, 3, wb, filler, NA, 999, 999, 3, 30, 109, 84, 94, 107, 111, 115, 3, 0.859681
216, 3, wb, attraction, a-b-db, 9, 2, 3, 31, 90, 165, 86, 157, 165, 90, 3, 1.39063
216, 3, wb, attraction, a-b-db, 9, 2, 3, 31, 90, 165, 86, 157, 165, 90, 2, 0.389498
216, 3, wb, attraction, a-b-db, 5, 2, 3, 32, 165, 90, 90, 165, 88, 161, 1, 0.748086
216, 3, wb, attraction, a-b-db, 5, 2, 3, 32, 165, 90, 90, 165, 88, 161, 2, 0.501182
216, 3, wb, attraction, a-b-da, 5, 1, 3, 33, 135, 60, 132, 58, 60, 135, 1, 0.673148
216, 3, wb, attraction, a-b-da, 5, 1, 3, 33, 135, 60, 132, 58, 60, 135, 3, 2.07468
216, 3, wb, attraction, a-b-da, 14, 2, 3, 34, 153, 83, 90, 165, 165, 90, 1, 2.97261
216, 3, wb, attraction, a-b-da, 14, 2, 3, 34, 153, 83, 90, 165, 165, 90, 2, 0.811706
216, 3, wb, attraction, a-b-da, 14, 1, 3, 35, 60, 135, 125, 56, 135, 60, 2, 4.60074
216, 3, wb, attraction, a-b-da, 14, 1, 3, 35, 60, 135, 125, 56, 135, 60, 1, 1.05449
216, 3, wb, attraction, a-b-db, 9, 3, 3, 36, 114, 186, 195, 120, 120, 195, 1, 7.0023
216, 3, wb, attraction, a-b-db, 9, 3, 3, 36, 114, 186, 195, 120, 120, 195, 2, 0.415241
216, 3, wb, attraction, a-b-db, 14, 3, 3, 37, 120, 195, 195, 120, 111, 181, 3, 1.46848
216, 3, wb, attraction, a-b-db, 14, 3, 3, 37, 120, 195, 195, 120, 111, 181, 2, 0.416704
216, 3, wb, attraction, a-b-da, 2, 1, 4, 1, 134, 59, 60, 135, 135, 60, 3, 1.39778
216, 3, wb, attraction, a-b-da, 2, 1, 4, 1, 134, 59, 60, 135, 135, 60, 2, 0.452752
216, 3, wb, catch, NA, 999, 999, 4, 2, 148, 167, 119, 76, 142, 113, 2, 1.31244
216, 3, wb, catch, NA, 999, 999, 4, 2, 148, 167, 119, 76, 142, 113, 1, 0.618727
216, 3, wb, attraction, a-b-db, 9, 2, 4, 3, 86, 157, 90, 165, 165, 90, 2, 7.29567
216, 3, wb, attraction, a-b-db, 9, 2, 4, 3, 86, 157, 90, 165, 165, 90, 1, 0.44874
216, 3, wb, attraction, a-b-db, 5, 2, 4, 4, 90, 165, 88, 161, 165, 90, 2, 1.16451
216, 3, wb, attraction, a-b-db, 5, 2, 4, 4, 90, 165, 88, 161, 165, 90, 3, 0.436766
216, 3, wb, filler, NA, 999, 999, 4, 5, 184, 190, 135, 166, 194, 136, 2, 2.80125
216, 3, wb, filler, NA, 999, 999, 4, 5, 184, 190, 135, 166, 194, 136, 1, 1.56788
216, 3, wb, attraction, a-b-da, 9, 2, 4, 6, 165, 90, 157, 86, 90, 165, 2, 1.85454
216, 3, wb, attraction, a-b-da, 9, 2, 4, 6, 165, 90, 157, 86, 90, 165, 3, 0.931334
216, 3, wb, attraction, a-b-db, 5, 3, 4, 7, 195, 120, 120, 195, 117, 190, 2, 4.92377
216, 3, wb, attraction, a-b-db, 5, 3, 4, 7, 195, 120, 120, 195, 117, 190, 1, 0.564029
216, 3, wb, attraction, a-b-da, 14, 3, 4, 8, 195, 120, 181, 111, 120, 195, 2, 3.89133
216, 3, wb, attraction, a-b-da, 14, 3, 4, 8, 195, 120, 181, 111, 120, 195, 1, 0.653179
216, 3, wb, attraction, a-b-db, 9, 3, 4, 9, 114, 186, 120, 195, 195, 120, 1, 1.42505
216, 3, wb, attraction, a-b-db, 9, 3, 4, 9, 114, 186, 120, 195, 195, 120, 3, 0.702463
216, 3, wb, attraction, a-b-db, 2, 3, 4, 10, 120, 195, 195, 120, 119, 193, 1, 2.13623
216, 3, wb, attraction, a-b-db, 2, 3, 4, 10, 120, 195, 195, 120, 119, 193, 2, 0.897525
216, 3, wb, attraction, a-b-da, 9, 1, 4, 11, 60, 135, 135, 60, 129, 57, 1, 0.843124
216, 3, wb, attraction, a-b-da, 9, 1, 4, 11, 60, 135, 135, 60, 129, 57, 2, 0.640122
216, 3, wb, attraction, a-b-da, 2, 2, 4, 12, 163, 89, 90, 165, 165, 90, 1, 13.2121
216, 3, wb, attraction, a-b-da, 2, 2, 4, 12, 163, 89, 90, 165, 165, 90, 2, 0.926438
216, 3, wb, attraction, a-b-da, 2, 3, 4, 13, 120, 195, 195, 120, 193, 119, 3, 3.19082
216, 3, wb, attraction, a-b-da, 2, 3, 4, 13, 120, 195, 195, 120, 193, 119, 2, 0.565045
216, 3, wb, filler, NA, 999, 999, 4, 14, 114, 187, 85, 120, 77, 139, 2, 0.972173
216, 3, wb, filler, NA, 999, 999, 4, 14, 114, 187, 85, 120, 77, 139, 1, 0.723851
216, 3, wb, attraction, a-b-db, 14, 3, 4, 15, 195, 120, 111, 181, 120, 195, 2, 3.2523
216, 3, wb, attraction, a-b-db, 14, 3, 4, 15, 195, 120, 111, 181, 120, 195, 1, 0.680471
216, 3, wb, attraction, a-b-db, 14, 1, 4, 16, 56, 125, 135, 60, 60, 135, 1, 1.68296
216, 3, wb, attraction, a-b-db, 14, 1, 4, 16, 56, 125, 135, 60, 60, 135, 2, 0.958454
216, 3, wb, catch, NA, 999, 999, 4, 17, 121, 194, 132, 63, 149, 106, 2, 1.02926
216, 3, wb, catch, NA, 999, 999, 4, 17, 121, 194, 132, 63, 149, 106, 1, 0.866853
216, 3, wb, filler, NA, 999, 999, 4, 18, 129, 162, 76, 138, 112, 158, 2, 1.61395
216, 3, wb, filler, NA, 999, 999, 4, 18, 129, 162, 76, 138, 112, 158, 1, 0.724143
216, 3, wb, attraction, a-b-da, 14, 2, 4, 19, 153, 83, 165, 90, 90, 165, 1, 0.964485
216, 3, wb, attraction, a-b-da, 14, 2, 4, 19, 153, 83, 165, 90, 90, 165, 2, 0.604891
216, 3, wb, catch, NA, 999, 999, 4, 20, 77, 118, 124, 191, 125, 130, 1, 1.11454
216, 3, wb, catch, NA, 999, 999, 4, 20, 77, 118, 124, 191, 125, 130, 2, 0.548846
216, 3, wb, attraction, a-b-da, 5, 2, 4, 21, 161, 88, 165, 90, 90, 165, 2, 1.74059
216, 3, wb, attraction, a-b-da, 5, 2, 4, 21, 161, 88, 165, 90, 90, 165, 1, 0.645553
216, 3, wb, filler, NA, 999, 999, 4, 22, 166, 80, 166, 71, 72, 136, 3, 1.45708
216, 3, wb, filler, NA, 999, 999, 4, 22, 166, 80, 166, 71, 72, 136, 1, 0.629291
216, 3, wb, filler, NA, 999, 999, 4, 23, 121, 140, 161, 79, 146, 148, 2, 2.69782
216, 3, wb, filler, NA, 999, 999, 4, 23, 121, 140, 161, 79, 146, 148, 3, 1.02019
216, 3, wb, filler, NA, 999, 999, 4, 24, 107, 169, 172, 129, 171, 147, 1, 3.51325
216, 3, wb, filler, NA, 999, 999, 4, 24, 107, 169, 172, 129, 171, 147, 3, 1.50675
216, 3, wb, attraction, a-b-da, 5, 3, 4, 25, 190, 117, 120, 195, 195, 120, 1, 2.00423
216, 3, wb, attraction, a-b-da, 5, 3, 4, 25, 190, 117, 120, 195, 195, 120, 2, 0.746851
216, 3, wb, filler, NA, 999, 999, 4, 26, 133, 181, 66, 152, 195, 193, 2, 0.882666
216, 3, wb, filler, NA, 999, 999, 4, 26, 133, 181, 66, 152, 195, 193, 3, 0.438242
216, 3, wb, attraction, a-b-db, 2, 2, 4, 27, 90, 165, 89, 163, 165, 90, 3, 2.97877
216, 3, wb, attraction, a-b-db, 2, 2, 4, 27, 90, 165, 89, 163, 165, 90, 2, 1.04176
216, 3, wb, filler, NA, 999, 999, 4, 28, 59, 130, 60, 63, 77, 169, 2, 0.941369
216, 3, wb, filler, NA, 999, 999, 4, 28, 59, 130, 60, 63, 77, 169, 3, 0.870413
216, 3, wb, attraction, a-b-da, 9, 3, 4, 29, 186, 114, 120, 195, 195, 120, 1, 2.91339
216, 3, wb, attraction, a-b-da, 9, 3, 4, 29, 186, 114, 120, 195, 195, 120, 2, 0.499296
216, 3, wb, attraction, a-b-db, 9, 1, 4, 30, 57, 129, 60, 135, 135, 60, 1, 1.55685
216, 3, wb, attraction, a-b-db, 9, 1, 4, 30, 57, 129, 60, 135, 135, 60, 3, 0.685092
216, 3, wb, attraction, a-b-da, 5, 1, 4, 31, 60, 135, 132, 58, 135, 60, 2, 32.1115
216, 3, wb, attraction, a-b-da, 5, 1, 4, 31, 60, 135, 132, 58, 135, 60, 1, 0.640668
216, 3, wb, attraction, a-b-da, 14, 1, 4, 32, 135, 60, 125, 56, 60, 135, 3, 0.860442
216, 3, wb, attraction, a-b-da, 14, 1, 4, 32, 135, 60, 125, 56, 60, 135, 1, 0.976775
216, 3, wb, filler, NA, 999, 999, 4, 33, 181, 140, 118, 80, 109, 106, 2, 9.61506
216, 3, wb, filler, NA, 999, 999, 4, 33, 181, 140, 118, 80, 109, 106, 1, 1.02678
216, 3, wb, filler, NA, 999, 999, 4, 34, 80, 108, 115, 113, 135, 183, 1, 4.6951
216, 3, wb, filler, NA, 999, 999, 4, 34, 80, 108, 115, 113, 135, 183, 3, 0.70489
216, 3, wb, attraction, a-b-db, 5, 1, 4, 35, 60, 135, 58, 132, 135, 60, 1, 1.12266
216, 3, wb, attraction, a-b-db, 5, 1, 4, 35, 60, 135, 58, 132, 135, 60, 3, 1.30827
216, 3, wb, attraction, a-b-db, 14, 2, 4, 36, 83, 153, 165, 90, 90, 165, 1, 2.58915
216, 3, wb, attraction, a-b-db, 14, 2, 4, 36, 83, 153, 165, 90, 90, 165, 3, 0.411608
216, 3, wb, attraction, a-b-db, 2, 1, 4, 37, 135, 60, 60, 135, 59, 134, 3, 1.49683
216, 3, wb, attraction, a-b-db, 2, 1, 4, 37, 135, 60, 60, 135, 59, 134, 1, 0.771661
216, 3, wb, attraction, a-b-da, 9, 1, 5, 1, 60, 135, 129, 57, 135, 60, 1, 2.16871
216, 3, wb, attraction, a-b-da, 9, 1, 5, 1, 60, 135, 129, 57, 135, 60, 2, 0.936881
216, 3, wb, attraction, a-b-db, 9, 2, 5, 2, 165, 90, 86, 157, 90, 165, 2, 2.20895
216, 3, wb, attraction, a-b-db, 9, 2, 5, 2, 165, 90, 86, 157, 90, 165, 1, 0.630805
216, 3, wb, attraction, a-b-da, 5, 1, 5, 3, 60, 135, 132, 58, 135, 60, 1, 1.43525
216, 3, wb, attraction, a-b-da, 5, 1, 5, 3, 60, 135, 132, 58, 135, 60, 2, 0.640744
216, 3, wb, filler, NA, 999, 999, 5, 4, 108, 172, 83, 61, 126, 101, 2, 0.844524
216, 3, wb, filler, NA, 999, 999, 5, 4, 108, 172, 83, 61, 126, 101, 1, 0.313602
216, 3, wb, catch, NA, 999, 999, 5, 5, 171, 144, 113, 82, 96, 159, 2, 0.890753
216, 3, wb, catch, NA, 999, 999, 5, 5, 171, 144, 113, 82, 96, 159, 1, 0.49376
216, 3, wb, attraction, a-b-db, 5, 1, 5, 6, 58, 132, 60, 135, 135, 60, 2, 2.7835
216, 3, wb, attraction, a-b-db, 5, 1, 5, 6, 58, 132, 60, 135, 135, 60, 3, 0.598602
216, 3, wb, attraction, a-b-db, 2, 2, 5, 7, 89, 163, 90, 165, 165, 90, 1, 2.62045
216, 3, wb, attraction, a-b-db, 2, 2, 5, 7, 89, 163, 90, 165, 165, 90, 2, 0.570173
216, 3, wb, filler, NA, 999, 999, 5, 8, 73, 65, 165, 107, 189, 157, 1, 1.32135
216, 3, wb, filler, NA, 999, 999, 5, 8, 73, 65, 165, 107, 189, 157, 3, 0.71493
216, 3, wb, attraction, a-b-db, 14, 1, 5, 9, 135, 60, 60, 135, 56, 125, 3, 1.83584
216, 3, wb, attraction, a-b-db, 14, 1, 5, 9, 135, 60, 60, 135, 56, 125, 1, 0.85757
216, 3, wb, attraction, a-b-da, 14, 2, 5, 10, 165, 90, 153, 83, 90, 165, 2, 2.50832
216, 3, wb, attraction, a-b-da, 14, 2, 5, 10, 165, 90, 153, 83, 90, 165, 1, 1.03028
216, 3, wb, attraction, a-b-da, 14, 1, 5, 11, 125, 56, 60, 135, 135, 60, 1, 1.87453
216, 3, wb, attraction, a-b-da, 14, 1, 5, 11, 125, 56, 60, 135, 135, 60, 2, 0.50983
216, 3, wb, filler, NA, 999, 999, 5, 12, 195, 133, 64, 137, 179, 132, 2, 0.822845
216, 3, wb, filler, NA, 999, 999, 5, 12, 195, 133, 64, 137, 179, 132, 1, 0.428802
216, 3, wb, catch, NA, 999, 999, 5, 13, 146, 169, 102, 93, 107, 148, 2, 1.11313
216, 3, wb, catch, NA, 999, 999, 5, 13, 146, 169, 102, 93, 107, 148, 1, 0.459416
216, 3, wb, attraction, a-b-db, 5, 2, 5, 14, 88, 161, 165, 90, 90, 165, 2, 2.56651
216, 3, wb, attraction, a-b-db, 5, 2, 5, 14, 88, 161, 165, 90, 90, 165, 1, 0.510469
216, 3, wb, attraction, a-b-db, 14, 3, 5, 15, 120, 195, 195, 120, 111, 181, 3, 2.63157
216, 3, wb, attraction, a-b-db, 14, 3, 5, 15, 120, 195, 195, 120, 111, 181, 2, 1.11666
216, 3, wb, filler, NA, 999, 999, 5, 16, 121, 169, 115, 173, 155, 187, 1, 1.74962
216, 3, wb, filler, NA, 999, 999, 5, 16, 121, 169, 115, 173, 155, 187, 3, 1.17436
216, 3, wb, filler, NA, 999, 999, 5, 17, 76, 62, 150, 146, 69, 95, 1, 1.47662
216, 3, wb, filler, NA, 999, 999, 5, 17, 76, 62, 150, 146, 69, 95, 2, 0.752082
216, 3, wb, filler, NA, 999, 999, 5, 18, 100, 65, 185, 107, 78, 88, 3, 1.10379
216, 3, wb, filler, NA, 999, 999, 5, 18, 100, 65, 185, 107, 78, 88, 2, 0.826728
216, 3, wb, attraction, a-b-db, 2, 1, 5, 19, 135, 60, 60, 135, 59, 134, 1, 1.40717
216, 3, wb, attraction, a-b-db, 2, 1, 5, 19, 135, 60, 60, 135, 59, 134, 2, 0.94944
216, 3, wb, filler, NA, 999, 999, 5, 20, 142, 154, 119, 87, 183, 96, 2, 0.876996
216, 3, wb, filler, NA, 999, 999, 5, 20, 142, 154, 119, 87, 183, 96, 1, 0.600722
216, 3, wb, attraction, a-b-db, 9, 3, 5, 21, 195, 120, 120, 195, 114, 186, 1, 3.0624
216, 3, wb, attraction, a-b-db, 9, 3, 5, 21, 195, 120, 120, 195, 114, 186, 2, 0.690244
216, 3, wb, attraction, a-b-da, 14, 3, 5, 22, 181, 111, 120, 195, 195, 120, 1, 1.25977
216, 3, wb, attraction, a-b-da, 14, 3, 5, 22, 181, 111, 120, 195, 195, 120, 2, 1.04817
216, 3, wb, attraction, a-b-da, 9, 2, 5, 23, 157, 86, 90, 165, 165, 90, 1, 2.44377
216, 3, wb, attraction, a-b-da, 9, 2, 5, 23, 157, 86, 90, 165, 165, 90, 2, 0.824225
216, 3, wb, attraction, a-b-da, 2, 2, 5, 24, 163, 89, 90, 165, 165, 90, 2, 3.48464
216, 3, wb, attraction, a-b-da, 2, 2, 5, 24, 163, 89, 90, 165, 165, 90, 1, 0.671425
216, 3, wb, attraction, a-b-db, 14, 2, 5, 25, 165, 90, 83, 153, 90, 165, 2, 0.93853
216, 3, wb, attraction, a-b-db, 14, 2, 5, 25, 165, 90, 83, 153, 90, 165, 1, 0.539613
216, 3, wb, attraction, a-b-da, 5, 2, 5, 26, 90, 165, 161, 88, 165, 90, 1, 0.972024
216, 3, wb, attraction, a-b-da, 5, 2, 5, 26, 90, 165, 161, 88, 165, 90, 2, 0.395633
216, 3, wb, filler, NA, 999, 999, 5, 27, 93, 116, 181, 193, 110, 144, 1, 0.825503
216, 3, wb, filler, NA, 999, 999, 5, 27, 93, 116, 181, 193, 110, 144, 2, 0.383131
216, 3, wb, catch, NA, 999, 999, 5, 28, 102, 93, 128, 187, 132, 123, 1, 0.789779
216, 3, wb, catch, NA, 999, 999, 5, 28, 102, 93, 128, 187, 132, 123, 2, 0.364638
216, 3, wb, filler, NA, 999, 999, 5, 29, 147, 117, 120, 85, 145, 158, 2, 0.755884
216, 3, wb, filler, NA, 999, 999, 5, 29, 147, 117, 120, 85, 145, 158, 3, 0.340307
216, 3, wb, attraction, a-b-da, 5, 3, 5, 30, 120, 195, 190, 117, 195, 120, 1, 2.16414
216, 3, wb, attraction, a-b-da, 5, 3, 5, 30, 120, 195, 190, 117, 195, 120, 3, 0.836164
216, 3, wb, attraction, a-b-db, 2, 3, 5, 31, 119, 193, 120, 195, 195, 120, 2, 2.53643
216, 3, wb, attraction, a-b-db, 2, 3, 5, 31, 119, 193, 120, 195, 195, 120, 1, 0.705743
216, 3, wb, filler, NA, 999, 999, 5, 32, 167, 121, 122, 172, 61, 76, 3, 0.987321
216, 3, wb, filler, NA, 999, 999, 5, 32, 167, 121, 122, 172, 61, 76, 2, 0.482994
216, 3, wb, attraction, a-b-db, 9, 1, 5, 33, 60, 135, 57, 129, 135, 60, 2, 1.03762
216, 3, wb, attraction, a-b-db, 9, 1, 5, 33, 60, 135, 57, 129, 135, 60, 1, 0.54713
216, 3, wb, attraction, a-b-db, 5, 3, 5, 34, 120, 195, 195, 120, 117, 190, 2, 0.898901
216, 3, wb, attraction, a-b-db, 5, 3, 5, 34, 120, 195, 195, 120, 117, 190, 1, 0.701863
216, 3, wb, attraction, a-b-da, 2, 3, 5, 35, 195, 120, 120, 195, 193, 119, 2, 0.871689
216, 3, wb, attraction, a-b-da, 2, 3, 5, 35, 195, 120, 120, 195, 193, 119, 1, 0.539392
216, 3, wb, attraction, a-b-da, 2, 1, 5, 36, 134, 59, 60, 135, 135, 60, 2, 0.635846
216, 3, wb, attraction, a-b-da, 2, 1, 5, 36, 134, 59, 60, 135, 135, 60, 3, 0.521702
216, 3, wb, attraction, a-b-da, 9, 3, 5, 37, 195, 120, 186, 114, 120, 195, 3, 9.95464
216, 3, wb, attraction, a-b-da, 9, 3, 5, 37, 195, 120, 186, 114, 120, 195, 2, 2.31289
216, 3, wb, filler, NA, 999, 999, 6, 1, 142, 73, 154, 61, 78, 75, 3, 1.42534
216, 3, wb, filler, NA, 999, 999, 6, 1, 142, 73, 154, 61, 78, 75, 1, 0.879045
216, 3, wb, attraction, a-b-db, 9, 3, 6, 2, 120, 195, 114, 186, 195, 120, 2, 4.74543
216, 3, wb, attraction, a-b-db, 9, 3, 6, 2, 120, 195, 114, 186, 195, 120, 1, 0.793192
216, 3, wb, attraction, a-b-db, 14, 1, 6, 3, 135, 60, 56, 125, 60, 135, 3, 5.91882
216, 3, wb, attraction, a-b-db, 14, 1, 6, 3, 135, 60, 56, 125, 60, 135, 1, 0.64766
216, 3, wb, attraction, a-b-da, 2, 1, 6, 4, 60, 135, 135, 60, 134, 59, 1, 1.80335
216, 3, wb, attraction, a-b-da, 2, 1, 6, 4, 60, 135, 135, 60, 134, 59, 2, 0.770117
216, 3, wb, attraction, a-b-db, 2, 2, 6, 5, 165, 90, 90, 165, 89, 163, 1, 3.68912
216, 3, wb, attraction, a-b-db, 2, 2, 6, 5, 165, 90, 90, 165, 89, 163, 2, 0.63531
216, 3, wb, catch, NA, 999, 999, 6, 6, 117, 138, 95, 100, 141, 174, 2, 0.943686
216, 3, wb, catch, NA, 999, 999, 6, 6, 117, 138, 95, 100, 141, 174, 3, 0.664837
216, 3, wb, attraction, a-b-db, 2, 3, 6, 7, 195, 120, 119, 193, 120, 195, 1, 1.38773
216, 3, wb, attraction, a-b-db, 2, 3, 6, 7, 195, 120, 119, 193, 120, 195, 2, 0.579324
216, 3, wb, attraction, a-b-da, 9, 1, 6, 8, 60, 135, 129, 57, 135, 60, 1, 0.745745
216, 3, wb, attraction, a-b-da, 9, 1, 6, 8, 60, 135, 129, 57, 135, 60, 2, 0.866707
216, 3, wb, attraction, a-b-db, 9, 2, 6, 9, 90, 165, 165, 90, 86, 157, 2, 9.02981
216, 3, wb, attraction, a-b-db, 9, 2, 6, 9, 90, 165, 165, 90, 86, 157, 1, 1.60099
216, 3, wb, filler, NA, 999, 999, 6, 10, 89, 136, 114, 162, 131, 158, 1, 1.55844
216, 3, wb, filler, NA, 999, 999, 6, 10, 89, 136, 114, 162, 131, 158, 3, 0.85462
216, 3, wb, attraction, a-b-da, 5, 2, 6, 11, 90, 165, 165, 90, 161, 88, 1, 3.25824
216, 3, wb, attraction, a-b-da, 5, 2, 6, 11, 90, 165, 165, 90, 161, 88, 2, 0.88591
216, 3, wb, attraction, a-b-da, 2, 2, 6, 12, 90, 165, 165, 90, 163, 89, 1, 2.56815
216, 3, wb, attraction, a-b-da, 2, 2, 6, 12, 90, 165, 165, 90, 163, 89, 3, 1.46403
216, 3, wb, attraction, a-b-da, 9, 2, 6, 13, 90, 165, 157, 86, 165, 90, 1, 3.52288
216, 3, wb, attraction, a-b-da, 9, 2, 6, 13, 90, 165, 157, 86, 165, 90, 2, 0.795737
216, 3, wb, attraction, a-b-db, 5, 3, 6, 14, 195, 120, 120, 195, 117, 190, 1, 1.55335
216, 3, wb, attraction, a-b-db, 5, 3, 6, 14, 195, 120, 120, 195, 117, 190, 2, 0.506226
216, 3, wb, attraction, a-b-db, 5, 1, 6, 15, 58, 132, 135, 60, 60, 135, 1, 1.94789
216, 3, wb, attraction, a-b-db, 5, 1, 6, 15, 58, 132, 135, 60, 60, 135, 3, 1.11679
216, 3, wb, filler, NA, 999, 999, 6, 16, 149, 173, 65, 187, 90, 119, 3, 1.87764
216, 3, wb, filler, NA, 999, 999, 6, 16, 149, 173, 65, 187, 90, 119, 1, 0.944987
216, 3, wb, attraction, a-b-da, 14, 1, 6, 17, 60, 135, 135, 60, 125, 56, 1, 0.992557
216, 3, wb, attraction, a-b-da, 14, 1, 6, 17, 60, 135, 135, 60, 125, 56, 3, 0.57564
216, 3, wb, filler, NA, 999, 999, 6, 18, 113, 65, 172, 147, 82, 82, 3, 1.33407
216, 3, wb, filler, NA, 999, 999, 6, 18, 113, 65, 172, 147, 82, 82, 2, 0.775766
216, 3, wb, filler, NA, 999, 999, 6, 19, 184, 168, 148, 96, 94, 132, 3, 1.27794
216, 3, wb, filler, NA, 999, 999, 6, 19, 184, 168, 148, 96, 94, 132, 1, 0.7135
216, 3, wb, attraction, a-b-da, 5, 1, 6, 20, 132, 58, 135, 60, 60, 135, 3, 1.01065
216, 3, wb, attraction, a-b-da, 5, 1, 6, 20, 132, 58, 135, 60, 60, 135, 1, 0.784968
216, 3, wb, attraction, a-b-db, 14, 3, 6, 21, 120, 195, 195, 120, 111, 181, 3, 4.55936
216, 3, wb, attraction, a-b-db, 14, 3, 6, 21, 120, 195, 195, 120, 111, 181, 2, 0.590456
216, 3, wb, attraction, a-b-db, 5, 2, 6, 22, 90, 165, 165, 90, 88, 161, 3, 2.02824
216, 3, wb, attraction, a-b-db, 5, 2, 6, 22, 90, 165, 165, 90, 88, 161, 2, 0.833561
216, 3, wb, filler, NA, 999, 999, 6, 23, 170, 193, 140, 80, 66, 188, 2, 1.28594
216, 3, wb, filler, NA, 999, 999, 6, 23, 170, 193, 140, 80, 66, 188, 1, 1.40966
216, 3, wb, filler, NA, 999, 999, 6, 24, 164, 187, 65, 191, 161, 110, 2, 2.68644
216, 3, wb, filler, NA, 999, 999, 6, 24, 164, 187, 65, 191, 161, 110, 1, 0.889531
216, 3, wb, attraction, a-b-da, 14, 3, 6, 25, 195, 120, 181, 111, 120, 195, 1, 0.899831
216, 3, wb, attraction, a-b-da, 14, 3, 6, 25, 195, 120, 181, 111, 120, 195, 2, 0.72685
216, 3, wb, attraction, a-b-da, 9, 3, 6, 26, 120, 195, 195, 120, 186, 114, 1, 3.8393
216, 3, wb, attraction, a-b-da, 9, 3, 6, 26, 120, 195, 195, 120, 186, 114, 2, 1.00342
216, 3, wb, attraction, a-b-da, 2, 3, 6, 27, 195, 120, 193, 119, 120, 195, 1, 1.46496
216, 3, wb, attraction, a-b-da, 2, 3, 6, 27, 195, 120, 193, 119, 120, 195, 2, 0.757244
216, 3, wb, attraction, a-b-da, 5, 3, 6, 28, 120, 195, 195, 120, 190, 117, 2, 4.11623
216, 3, wb, attraction, a-b-da, 5, 3, 6, 28, 120, 195, 195, 120, 190, 117, 3, 1.53361
216, 3, wb, filler, NA, 999, 999, 6, 29, 87, 173, 106, 157, 61, 62, 3, 1.01377
216, 3, wb, filler, NA, 999, 999, 6, 29, 87, 173, 106, 157, 61, 62, 2, 0.484017
216, 3, wb, catch, NA, 999, 999, 6, 30, 97, 98, 134, 181, 139, 116, 1, 1.15845
216, 3, wb, catch, NA, 999, 999, 6, 30, 97, 98, 134, 181, 139, 116, 2, 0.462772
216, 3, wb, filler, NA, 999, 999, 6, 31, 74, 87, 104, 56, 188, 120, 1, 1.20206
216, 3, wb, filler, NA, 999, 999, 6, 31, 74, 87, 104, 56, 188, 120, 3, 0.568781
216, 3, wb, attraction, a-b-db, 9, 1, 6, 32, 57, 129, 135, 60, 60, 135, 1, 0.855854
216, 3, wb, attraction, a-b-db, 9, 1, 6, 32, 57, 129, 135, 60, 60, 135, 2, 0.796265
216, 3, wb, attraction, a-b-da, 14, 2, 6, 33, 90, 165, 165, 90, 153, 83, 1, 1.18607
216, 3, wb, attraction, a-b-da, 14, 2, 6, 33, 90, 165, 165, 90, 153, 83, 2, 0.737492
216, 3, wb, catch, NA, 999, 999, 6, 34, 142, 113, 113, 82, 175, 140, 2, 0.953993
216, 3, wb, catch, NA, 999, 999, 6, 34, 142, 113, 113, 82, 175, 140, 3, 0.714361
216, 3, wb, attraction, a-b-db, 14, 2, 6, 35, 90, 165, 165, 90, 83, 153, 3, 1.29936
216, 3, wb, attraction, a-b-db, 14, 2, 6, 35, 90, 165, 165, 90, 83, 153, 1, 0.91025
216, 3, wb, filler, NA, 999, 999, 6, 36, 138, 81, 195, 176, 56, 194, 1, 0.999273
216, 3, wb, filler, NA, 999, 999, 6, 36, 138, 81, 195, 176, 56, 194, 2, 0.670346
216, 3, wb, attraction, a-b-db, 2, 1, 6, 37, 60, 135, 59, 134, 135, 60, 2, 1.23335
216, 3, wb, attraction, a-b-db, 2, 1, 6, 37, 60, 135, 59, 134, 135, 60, 3, 0.774852
216, 3, wb, filler, NA, 999, 999, 7, 1, 63, 111, 159, 89, 137, 181, 1, 0.749185
216, 3, wb, filler, NA, 999, 999, 7, 1, 63, 111, 159, 89, 137, 181, 3, 0.502377
216, 3, wb, attraction, a-b-db, 2, 2, 7, 2, 165, 90, 90, 165, 89, 163, 3, 1.76807
216, 3, wb, attraction, a-b-db, 2, 2, 7, 2, 165, 90, 90, 165, 89, 163, 1, 0.968261
216, 3, wb, catch, NA, 999, 999, 7, 3, 110, 85, 132, 123, 192, 123, 1, 1.0871
216, 3, wb, catch, NA, 999, 999, 7, 3, 110, 85, 132, 123, 192, 123, 3, 0.666064
216, 3, wb, attraction, a-b-db, 14, 3, 7, 4, 111, 181, 195, 120, 120, 195, 1, 1.39725
216, 3, wb, attraction, a-b-db, 14, 3, 7, 4, 111, 181, 195, 120, 120, 195, 2, 1.14004
216, 3, wb, filler, NA, 999, 999, 7, 5, 67, 159, 87, 173, 102, 77, 3, 2.20434
216, 3, wb, filler, NA, 999, 999, 7, 5, 67, 159, 87, 173, 102, 77, 2, 1.699
216, 3, wb, attraction, a-b-da, 14, 3, 7, 6, 120, 195, 181, 111, 195, 120, 1, 0.916415
216, 3, wb, attraction, a-b-da, 14, 3, 7, 6, 120, 195, 181, 111, 195, 120, 3, 1.1587
216, 3, wb, filler, NA, 999, 999, 7, 7, 115, 174, 114, 122, 88, 86, 3, 1.57367
216, 3, wb, filler, NA, 999, 999, 7, 7, 115, 174, 114, 122, 88, 86, 1, 0.461124
216, 3, wb, attraction, a-b-da, 5, 3, 7, 8, 195, 120, 120, 195, 190, 117, 1, 2.64025
216, 3, wb, attraction, a-b-da, 5, 3, 7, 8, 195, 120, 120, 195, 190, 117, 2, 0.548844
216, 3, wb, attraction, a-b-da, 14, 1, 7, 9, 135, 60, 60, 135, 125, 56, 2, 1.94046
216, 3, wb, attraction, a-b-da, 14, 1, 7, 9, 135, 60, 60, 135, 125, 56, 1, 0.941236
216, 3, wb, attraction, a-b-da, 9, 1, 7, 10, 135, 60, 129, 57, 60, 135, 2, 3.39675
216, 3, wb, attraction, a-b-da, 9, 1, 7, 10, 135, 60, 129, 57, 60, 135, 3, 0.76308
216, 3, wb, attraction, a-b-db, 14, 2, 7, 11, 83, 153, 90, 165, 165, 90, 1, 1.77013
216, 3, wb, attraction, a-b-db, 14, 2, 7, 11, 83, 153, 90, 165, 165, 90, 3, 0.626217
216, 3, wb, catch, NA, 999, 999, 7, 12, 121, 194, 111, 144, 130, 65, 3, 0.838626
216, 3, wb, catch, NA, 999, 999, 7, 12, 121, 194, 111, 144, 130, 65, 1, 0.571586
216, 3, wb, attraction, a-b-da, 9, 2, 7, 13, 157, 86, 165, 90, 90, 165, 1, 3.10672
216, 3, wb, attraction, a-b-da, 9, 2, 7, 13, 157, 86, 165, 90, 90, 165, 3, 0.708395
216, 3, wb, filler, NA, 999, 999, 7, 14, 189, 122, 183, 103, 83, 146, 3, 1.43744
216, 3, wb, filler, NA, 999, 999, 7, 14, 189, 122, 183, 103, 83, 146, 1, 0.907026
216, 3, wb, attraction, a-b-db, 14, 1, 7, 15, 56, 125, 60, 135, 135, 60, 1, 1.34798
216, 3, wb, attraction, a-b-db, 14, 1, 7, 15, 56, 125, 60, 135, 135, 60, 3, 1.63692
216, 3, wb, catch, NA, 999, 999, 7, 16, 178, 137, 98, 157, 122, 73, 3, 1.04892
216, 3, wb, catch, NA, 999, 999, 7, 16, 178, 137, 98, 157, 122, 73, 1, 0.469938
216, 3, wb, filler, NA, 999, 999, 7, 17, 195, 140, 114, 96, 77, 184, 2, 1.40106
216, 3, wb, filler, NA, 999, 999, 7, 17, 195, 140, 114, 96, 77, 184, 1, 0.600004
216, 3, wb, attraction, a-b-da, 2, 1, 7, 18, 135, 60, 60, 135, 134, 59, 1, 4.25368
216, 3, wb, attraction, a-b-da, 2, 1, 7, 18, 135, 60, 60, 135, 134, 59, 2, 1.53797
216, 3, wb, attraction, a-b-db, 9, 2, 7, 19, 86, 157, 165, 90, 90, 165, 2, 5.43397
216, 3, wb, attraction, a-b-db, 9, 2, 7, 19, 86, 157, 165, 90, 90, 165, 3, 0.630062
216, 3, wb, attraction, a-b-da, 5, 2, 7, 20, 161, 88, 90, 165, 165, 90, 1, 0.882525
216, 3, wb, attraction, a-b-da, 5, 2, 7, 20, 161, 88, 90, 165, 165, 90, 2, 0.678226
216, 3, wb, attraction, a-b-db, 5, 3, 7, 21, 120, 195, 195, 120, 117, 190, 2, 1.60056
216, 3, wb, attraction, a-b-db, 5, 3, 7, 21, 120, 195, 195, 120, 117, 190, 1, 0.623339
216, 3, wb, attraction, a-b-db, 2, 3, 7, 22, 119, 193, 195, 120, 120, 195, 3, 2.73174
216, 3, wb, attraction, a-b-db, 2, 3, 7, 22, 119, 193, 195, 120, 120, 195, 2, 0.316907
216, 3, wb, filler, NA, 999, 999, 7, 23, 115, 179, 181, 76, 174, 83, 2, 0.88603
216, 3, wb, filler, NA, 999, 999, 7, 23, 115, 179, 181, 76, 174, 83, 1, 0.353724
216, 3, wb, attraction, a-b-db, 5, 2, 7, 24, 90, 165, 88, 161, 165, 90, 1, 1.15353
216, 3, wb, attraction, a-b-db, 5, 2, 7, 24, 90, 165, 88, 161, 165, 90, 3, 0.682948
216, 3, wb, filler, NA, 999, 999, 7, 25, 164, 91, 99, 88, 149, 128, 2, 1.10889
216, 3, wb, filler, NA, 999, 999, 7, 25, 164, 91, 99, 88, 149, 128, 3, 0.391343
216, 3, wb, filler, NA, 999, 999, 7, 26, 163, 169, 113, 191, 79, 84, 3, 1.25314
216, 3, wb, filler, NA, 999, 999, 7, 26, 163, 169, 113, 191, 79, 84, 1, 1.09796
216, 3, wb, attraction, a-b-da, 2, 3, 7, 27, 195, 120, 120, 195, 193, 119, 2, 2.66767
216, 3, wb, attraction, a-b-da, 2, 3, 7, 27, 195, 120, 120, 195, 193, 119, 1, 1.08744
216, 3, wb, attraction, a-b-da, 2, 2, 7, 28, 90, 165, 163, 89, 165, 90, 2, 2.6657
216, 3, wb, attraction, a-b-da, 2, 2, 7, 28, 90, 165, 163, 89, 165, 90, 3, 0.949428
216, 3, wb, attraction, a-b-da, 5, 1, 7, 29, 135, 60, 132, 58, 60, 135, 1, 1.69314
216, 3, wb, attraction, a-b-da, 5, 1, 7, 29, 135, 60, 132, 58, 60, 135, 2, 0.479891
216, 3, wb, attraction, a-b-db, 9, 3, 7, 30, 195, 120, 114, 186, 120, 195, 2, 9.99443
216, 3, wb, attraction, a-b-db, 9, 3, 7, 30, 195, 120, 114, 186, 120, 195, 1, 1.28664
216, 3, wb, attraction, a-b-db, 2, 1, 7, 31, 135, 60, 59, 134, 60, 135, 2, 2.67282
216, 3, wb, attraction, a-b-db, 2, 1, 7, 31, 135, 60, 59, 134, 60, 135, 1, 1.25997
216, 3, wb, filler, NA, 999, 999, 7, 32, 63, 169, 185, 106, 64, 111, 3, 1.18268
216, 3, wb, filler, NA, 999, 999, 7, 32, 63, 169, 185, 106, 64, 111, 2, 0.574434
216, 3, wb, attraction, a-b-db, 5, 1, 7, 33, 135, 60, 58, 132, 60, 135, 3, 3.92483
216, 3, wb, attraction, a-b-db, 5, 1, 7, 33, 135, 60, 58, 132, 60, 135, 1, 1.44564
216, 3, wb, attraction, a-b-da, 14, 2, 7, 34, 153, 83, 90, 165, 165, 90, 1, 4.34503
216, 3, wb, attraction, a-b-da, 14, 2, 7, 34, 153, 83, 90, 165, 165, 90, 2, 1.12104
216, 3, wb, attraction, a-b-db, 9, 1, 7, 35, 60, 135, 135, 60, 57, 129, 1, 1.08197
216, 3, wb, attraction, a-b-db, 9, 1, 7, 35, 60, 135, 135, 60, 57, 129, 2, 0.901767
216, 3, wb, attraction, a-b-da, 9, 3, 7, 36, 120, 195, 195, 120, 186, 114, 1, 2.59947
216, 3, wb, attraction, a-b-da, 9, 3, 7, 36, 120, 195, 195, 120, 186, 114, 2, 0.493711
216, 3, wb, filler, NA, 999, 999, 7, 37, 132, 191, 165, 57, 79, 166, 2, 1.03949
216, 3, wb, filler, NA, 999, 999, 7, 37, 132, 191, 165, 57, 79, 166, 1, 0.756489
216, 3, wb, attraction, a-b-da, 2, 2, 8, 1, 165, 90, 90, 165, 163, 89, 1, 2.68349
216, 3, wb, attraction, a-b-da, 2, 2, 8, 1, 165, 90, 90, 165, 163, 89, 2, 1.06281
216, 3, wb, attraction, a-b-da, 5, 2, 8, 2, 161, 88, 165, 90, 90, 165, 1, 1.12157
216, 3, wb, attraction, a-b-da, 5, 2, 8, 2, 161, 88, 165, 90, 90, 165, 2, 0.539304
216, 3, wb, attraction, a-b-da, 14, 2, 8, 3, 153, 83, 165, 90, 90, 165, 1, 0.867653
216, 3, wb, attraction, a-b-da, 14, 2, 8, 3, 153, 83, 165, 90, 90, 165, 2, 0.504038
216, 3, wb, filler, NA, 999, 999, 8, 4, 63, 81, 80, 105, 112, 86, 1, 0.817776
216, 3, wb, filler, NA, 999, 999, 8, 4, 63, 81, 80, 105, 112, 86, 3, 0.64821
216, 3, wb, catch, NA, 999, 999, 8, 5, 116, 139, 152, 163, 79, 116, 3, 0.77987
216, 3, wb, catch, NA, 999, 999, 8, 5, 116, 139, 152, 163, 79, 116, 2, 0.403791
216, 3, wb, filler, NA, 999, 999, 8, 6, 93, 130, 166, 101, 91, 184, 1, 0.641491
216, 3, wb, filler, NA, 999, 999, 8, 6, 93, 130, 166, 101, 91, 184, 2, 1.61463
216, 3, wb, attraction, a-b-db, 14, 2, 8, 7, 83, 153, 90, 165, 165, 90, 1, 2.09934
216, 3, wb, attraction, a-b-db, 14, 2, 8, 7, 83, 153, 90, 165, 165, 90, 3, 0.757993
216, 3, wb, filler, NA, 999, 999, 8, 8, 192, 58, 110, 75, 195, 93, 2, 2.14901
216, 3, wb, filler, NA, 999, 999, 8, 8, 192, 58, 110, 75, 195, 93, 3, 0.533695
216, 3, wb, attraction, a-b-db, 14, 1, 8, 9, 56, 125, 135, 60, 60, 135, 1, 1.81412
216, 3, wb, attraction, a-b-db, 14, 1, 8, 9, 56, 125, 135, 60, 60, 135, 2, 1.10026
216, 3, wb, attraction, a-b-db, 14, 3, 8, 10, 195, 120, 120, 195, 111, 181, 3, 2.3338
216, 3, wb, attraction, a-b-db, 14, 3, 8, 10, 195, 120, 120, 195, 111, 181, 1, 0.734944
216, 3, wb, attraction, a-b-db, 9, 3, 8, 11, 114, 186, 195, 120, 120, 195, 1, 6.74341
216, 3, wb, attraction, a-b-db, 9, 3, 8, 11, 114, 186, 195, 120, 120, 195, 3, 1.34264
216, 3, wb, filler, NA, 999, 999, 8, 12, 118, 185, 155, 172, 190, 179, 1, 1.75012
216, 3, wb, filler, NA, 999, 999, 8, 12, 118, 185, 155, 172, 190, 179, 3, 0.894954
216, 3, wb, attraction, a-b-da, 5, 3, 8, 13, 120, 195, 195, 120, 190, 117, 1, 1.37659
216, 3, wb, attraction, a-b-da, 5, 3, 8, 13, 120, 195, 195, 120, 190, 117, 3, 0.904175
216, 3, wb, filler, NA, 999, 999, 8, 14, 161, 126, 127, 98, 101, 102, 3, 1.00976
216, 3, wb, filler, NA, 999, 999, 8, 14, 161, 126, 127, 98, 101, 102, 1, 0.576174
216, 3, wb, attraction, a-b-db, 9, 1, 8, 15, 57, 129, 135, 60, 60, 135, 1, 1.54253
216, 3, wb, attraction, a-b-db, 9, 1, 8, 15, 57, 129, 135, 60, 60, 135, 2, 0.935326
216, 3, wb, filler, NA, 999, 999, 8, 16, 125, 182, 101, 185, 108, 65, 3, 0.975577
216, 3, wb, filler, NA, 999, 999, 8, 16, 125, 182, 101, 185, 108, 65, 1, 0.519272
216, 3, wb, filler, NA, 999, 999, 8, 17, 82, 81, 131, 101, 127, 151, 1, 0.832362
216, 3, wb, filler, NA, 999, 999, 8, 17, 82, 81, 131, 101, 127, 151, 3, 0.614155
216, 3, wb, attraction, a-b-da, 9, 3, 8, 18, 120, 195, 186, 114, 195, 120, 2, 3.87526
216, 3, wb, attraction, a-b-da, 9, 3, 8, 18, 120, 195, 186, 114, 195, 120, 1, 0.798021
216, 3, wb, attraction, a-b-da, 2, 1, 8, 19, 135, 60, 60, 135, 134, 59, 2, 1.69969
216, 3, wb, attraction, a-b-da, 2, 1, 8, 19, 135, 60, 60, 135, 134, 59, 3, 0.59848
216, 3, wb, catch, NA, 999, 999, 8, 20, 128, 187, 160, 95, 78, 117, 3, 0.692346
216, 3, wb, catch, NA, 999, 999, 8, 20, 128, 187, 160, 95, 78, 117, 1, 0.423301
216, 3, wb, attraction, a-b-db, 5, 3, 8, 21, 120, 195, 195, 120, 117, 190, 1, 1.42056
216, 3, wb, attraction, a-b-db, 5, 3, 8, 21, 120, 195, 195, 120, 117, 190, 3, 0.354658
216, 3, wb, attraction, a-b-db, 5, 1, 8, 22, 58, 132, 60, 135, 135, 60, 1, 0.634457
216, 3, wb, attraction, a-b-db, 5, 1, 8, 22, 58, 132, 60, 135, 135, 60, 3, 0.640228
216, 3, wb, attraction, a-b-db, 9, 2, 8, 23, 90, 165, 86, 157, 165, 90, 2, 2.8441
216, 3, wb, attraction, a-b-db, 9, 2, 8, 23, 90, 165, 86, 157, 165, 90, 3, 0.600431
216, 3, wb, attraction, a-b-db, 2, 1, 8, 24, 60, 135, 135, 60, 59, 134, 1, 1.87807
216, 3, wb, attraction, a-b-db, 2, 1, 8, 24, 60, 135, 135, 60, 59, 134, 2, 0.489604
216, 3, wb, attraction, a-b-da, 9, 2, 8, 25, 90, 165, 165, 90, 157, 86, 1, 2.036
216, 3, wb, attraction, a-b-da, 9, 2, 8, 25, 90, 165, 165, 90, 157, 86, 2, 0.601325
216, 3, wb, attraction, a-b-da, 2, 3, 8, 26, 193, 119, 195, 120, 120, 195, 3, 6.96714
216, 3, wb, attraction, a-b-da, 2, 3, 8, 26, 193, 119, 195, 120, 120, 195, 2, 1.34969
216, 3, wb, attraction, a-b-db, 2, 2, 8, 27, 90, 165, 165, 90, 89, 163, 1, 3.30113
216, 3, wb, attraction, a-b-db, 2, 2, 8, 27, 90, 165, 165, 90, 89, 163, 2, 0.431408
216, 3, wb, attraction, a-b-db, 2, 3, 8, 28, 195, 120, 119, 193, 120, 195, 2, 2.00386
216, 3, wb, attraction, a-b-db, 2, 3, 8, 28, 195, 120, 119, 193, 120, 195, 1, 1.09052
216, 3, wb, catch, NA, 999, 999, 8, 29, 161, 94, 118, 77, 189, 126, 2, 0.820061
216, 3, wb, catch, NA, 999, 999, 8, 29, 161, 94, 118, 77, 189, 126, 3, 0.41043
216, 3, wb, attraction, a-b-db, 5, 2, 8, 30, 165, 90, 90, 165, 88, 161, 1, 1.32764
216, 3, wb, attraction, a-b-db, 5, 2, 8, 30, 165, 90, 90, 165, 88, 161, 3, 0.985311
216, 3, wb, attraction, a-b-da, 5, 1, 8, 31, 135, 60, 60, 135, 132, 58, 1, 0.751419
216, 3, wb, attraction, a-b-da, 5, 1, 8, 31, 135, 60, 60, 135, 132, 58, 2, 0.320498
216, 3, wb, filler, NA, 999, 999, 8, 32, 177, 63, 143, 103, 92, 144, 1, 3.36172
216, 3, wb, filler, NA, 999, 999, 8, 32, 177, 63, 143, 103, 92, 144, 2, 0.585313
216, 3, wb, attraction, a-b-da, 9, 1, 8, 33, 135, 60, 60, 135, 129, 57, 1, 1.75972
216, 3, wb, attraction, a-b-da, 9, 1, 8, 33, 135, 60, 60, 135, 129, 57, 2, 0.327787
216, 3, wb, filler, NA, 999, 999, 8, 34, 141, 148, 80, 101, 93, 172, 2, 0.704389
216, 3, wb, filler, NA, 999, 999, 8, 34, 141, 148, 80, 101, 93, 172, 1, 0.322779
216, 3, wb, filler, NA, 999, 999, 8, 35, 118, 100, 74, 156, 59, 122, 3, 0.771913
216, 3, wb, filler, NA, 999, 999, 8, 35, 118, 100, 74, 156, 59, 122, 1, 0.755812
216, 3, wb, attraction, a-b-da, 14, 1, 8, 36, 60, 135, 125, 56, 135, 60, 1, 1.33142
216, 3, wb, attraction, a-b-da, 14, 1, 8, 36, 60, 135, 125, 56, 135, 60, 2, 0.700911
216, 3, wb, attraction, a-b-da, 14, 3, 8, 37, 181, 111, 195, 120, 120, 195, 1, 1.79863
216, 3, wb, attraction, a-b-da, 14, 3, 8, 37, 181, 111, 195, 120, 120, 195, 2, 0.429489
