sub_n, computer_n, bw_cond, effect, set, distance, diag, block_n, trial_n, h1, w1, h2, w2, h3, w3, choice, rt 
233, 3, bw, practice, NA, 999, 999, 0, 1, 112, 144, 113, 124, 134, 121, 1, 4.5242
233, 3, bw, practice, NA, 999, 999, 0, 1, 112, 144, 113, 124, 134, 121, 2, 3.05604
233, 3, bw, practice, NA, 999, 999, 0, 2, 146, 124, 138, 85, 170, 104, 1, 4.51835
233, 3, bw, practice, NA, 999, 999, 0, 2, 146, 124, 138, 85, 170, 104, 2, 1.52804
233, 3, bw, practice, NA, 999, 999, 0, 3, 167, 134, 174, 111, 116, 163, 1, 2.32322
233, 3, bw, practice, NA, 999, 999, 0, 3, 167, 134, 174, 111, 116, 163, 3, 2.95758
233, 3, bw, catch, NA, 999, 999, 1, 1, 161, 94, 97, 98, 124, 191, 3, 2.69927
233, 3, bw, catch, NA, 999, 999, 1, 1, 161, 94, 97, 98, 124, 191, 2, 1.24566
233, 3, bw, attraction, a-b-da, 14, 3, 1, 2, 195, 120, 181, 111, 120, 195, 1, 8.74533
233, 3, bw, attraction, a-b-da, 14, 3, 1, 2, 195, 120, 181, 111, 120, 195, 2, 0.97583
233, 3, bw, attraction, a-b-da, 14, 2, 1, 3, 153, 83, 90, 165, 165, 90, 2, 3.60621
233, 3, bw, attraction, a-b-da, 14, 2, 1, 3, 153, 83, 90, 165, 165, 90, 1, 0.811661
233, 3, bw, filler, NA, 999, 999, 1, 4, 127, 168, 133, 136, 191, 151, 3, 2.69679
233, 3, bw, filler, NA, 999, 999, 1, 4, 127, 168, 133, 136, 191, 151, 2, 1.10726
233, 3, bw, catch, NA, 999, 999, 1, 5, 147, 168, 116, 79, 116, 139, 1, 1.30009
233, 3, bw, catch, NA, 999, 999, 1, 5, 147, 168, 116, 79, 116, 139, 2, 1.37497
233, 3, bw, filler, NA, 999, 999, 1, 6, 60, 102, 138, 116, 92, 111, 2, 1.38114
233, 3, bw, filler, NA, 999, 999, 1, 6, 60, 102, 138, 116, 92, 111, 1, 1.1166
233, 3, bw, attraction, a-b-db, 9, 2, 1, 7, 90, 165, 86, 157, 165, 90, 1, 7.82178
233, 3, bw, attraction, a-b-db, 9, 2, 1, 7, 90, 165, 86, 157, 165, 90, 3, 5.82593
233, 3, bw, attraction, a-b-db, 14, 3, 1, 8, 195, 120, 111, 181, 120, 195, 3, 13.0446
233, 3, bw, attraction, a-b-db, 14, 3, 1, 8, 195, 120, 111, 181, 120, 195, 2, 2.39786
233, 3, bw, attraction, a-b-da, 14, 1, 1, 9, 125, 56, 60, 135, 135, 60, 2, 5.67513
233, 3, bw, attraction, a-b-da, 14, 1, 1, 9, 125, 56, 60, 135, 135, 60, 1, 0.557261
233, 3, bw, attraction, a-b-da, 2, 1, 1, 10, 60, 135, 135, 60, 134, 59, 1, 2.54035
233, 3, bw, attraction, a-b-da, 2, 1, 1, 10, 60, 135, 135, 60, 134, 59, 3, 1.32487
233, 3, bw, attraction, a-b-da, 5, 2, 1, 11, 165, 90, 90, 165, 161, 88, 2, 2.34106
233, 3, bw, attraction, a-b-da, 5, 2, 1, 11, 165, 90, 90, 165, 161, 88, 3, 1.11778
233, 3, bw, attraction, a-b-db, 5, 3, 1, 12, 120, 195, 195, 120, 117, 190, 1, 6.75851
233, 3, bw, attraction, a-b-db, 5, 3, 1, 12, 120, 195, 195, 120, 117, 190, 3, 0.70899
233, 3, bw, attraction, a-b-db, 9, 1, 1, 13, 60, 135, 57, 129, 135, 60, 1, 5.43806
233, 3, bw, attraction, a-b-db, 9, 1, 1, 13, 60, 135, 57, 129, 135, 60, 2, 0.690439
233, 3, bw, filler, NA, 999, 999, 1, 14, 72, 156, 125, 117, 58, 174, 2, 3.83621
233, 3, bw, filler, NA, 999, 999, 1, 14, 72, 156, 125, 117, 58, 174, 3, 0.56887
233, 3, bw, attraction, a-b-db, 14, 2, 1, 15, 90, 165, 83, 153, 165, 90, 1, 2.15997
233, 3, bw, attraction, a-b-db, 14, 2, 1, 15, 90, 165, 83, 153, 165, 90, 2, 0.551948
233, 3, bw, filler, NA, 999, 999, 1, 16, 118, 126, 65, 65, 99, 136, 1, 16.1678
233, 3, bw, filler, NA, 999, 999, 1, 16, 118, 126, 65, 65, 99, 136, 2, 0.699391
233, 3, bw, attraction, a-b-db, 2, 3, 1, 17, 120, 195, 195, 120, 119, 193, 3, 4.06092
233, 3, bw, attraction, a-b-db, 2, 3, 1, 17, 120, 195, 195, 120, 119, 193, 2, 1.0485
233, 3, bw, attraction, a-b-da, 9, 3, 1, 18, 195, 120, 120, 195, 186, 114, 1, 3.15601
233, 3, bw, attraction, a-b-da, 9, 3, 1, 18, 195, 120, 120, 195, 186, 114, 3, 2.41972
233, 3, bw, attraction, a-b-db, 2, 1, 1, 19, 60, 135, 135, 60, 59, 134, 1, 4.11224
233, 3, bw, attraction, a-b-db, 2, 1, 1, 19, 60, 135, 135, 60, 59, 134, 2, 0.769475
233, 3, bw, attraction, a-b-da, 9, 1, 1, 20, 129, 57, 60, 135, 135, 60, 2, 4.28055
233, 3, bw, attraction, a-b-da, 9, 1, 1, 20, 129, 57, 60, 135, 135, 60, 1, 0.467176
233, 3, bw, filler, NA, 999, 999, 1, 21, 114, 146, 186, 177, 187, 166, 2, 5.39041
233, 3, bw, filler, NA, 999, 999, 1, 21, 114, 146, 186, 177, 187, 166, 1, 0.755996
233, 3, bw, attraction, a-b-db, 14, 1, 1, 22, 60, 135, 135, 60, 56, 125, 1, 2.92369
233, 3, bw, attraction, a-b-db, 14, 1, 1, 22, 60, 135, 135, 60, 56, 125, 3, 0.612879
233, 3, bw, attraction, a-b-db, 9, 3, 1, 23, 114, 186, 120, 195, 195, 120, 2, 4.45776
233, 3, bw, attraction, a-b-db, 9, 3, 1, 23, 114, 186, 120, 195, 195, 120, 1, 0.789149
233, 3, bw, attraction, a-b-da, 5, 1, 1, 24, 132, 58, 60, 135, 135, 60, 2, 3.45142
233, 3, bw, attraction, a-b-da, 5, 1, 1, 24, 132, 58, 60, 135, 135, 60, 1, 0.855786
233, 3, bw, attraction, a-b-da, 2, 3, 1, 25, 193, 119, 120, 195, 195, 120, 2, 3.71539
233, 3, bw, attraction, a-b-da, 2, 3, 1, 25, 193, 119, 120, 195, 195, 120, 3, 0.789003
233, 3, bw, attraction, a-b-da, 9, 2, 1, 26, 157, 86, 90, 165, 165, 90, 2, 2.45122
233, 3, bw, attraction, a-b-da, 9, 2, 1, 26, 157, 86, 90, 165, 165, 90, 3, 0.535697
233, 3, bw, attraction, a-b-db, 5, 1, 1, 27, 60, 135, 135, 60, 58, 132, 1, 4.64013
233, 3, bw, attraction, a-b-db, 5, 1, 1, 27, 60, 135, 135, 60, 58, 132, 3, 0.820025
233, 3, bw, filler, NA, 999, 999, 1, 28, 140, 149, 71, 190, 95, 106, 1, 2.48098
233, 3, bw, filler, NA, 999, 999, 1, 28, 140, 149, 71, 190, 95, 106, 3, 3.74821
233, 3, bw, attraction, a-b-db, 2, 2, 1, 29, 165, 90, 90, 165, 89, 163, 2, 6.13903
233, 3, bw, attraction, a-b-db, 2, 2, 1, 29, 165, 90, 90, 165, 89, 163, 1, 1.56248
233, 3, bw, filler, NA, 999, 999, 1, 30, 130, 182, 112, 62, 146, 192, 3, 1.84917
233, 3, bw, filler, NA, 999, 999, 1, 30, 130, 182, 112, 62, 146, 192, 2, 0.757968
233, 3, bw, catch, NA, 999, 999, 1, 31, 126, 129, 151, 164, 125, 70, 2, 1.2289
233, 3, bw, catch, NA, 999, 999, 1, 31, 126, 129, 151, 164, 125, 70, 3, 0.786791
233, 3, bw, attraction, a-b-db, 5, 2, 1, 32, 165, 90, 88, 161, 90, 165, 3, 6.55298
233, 3, bw, attraction, a-b-db, 5, 2, 1, 32, 165, 90, 88, 161, 90, 165, 1, 0.752071
233, 3, bw, filler, NA, 999, 999, 1, 33, 118, 165, 170, 101, 141, 170, 3, 3.71991
233, 3, bw, filler, NA, 999, 999, 1, 33, 118, 165, 170, 101, 141, 170, 2, 1.2173
233, 3, bw, attraction, a-b-da, 5, 3, 1, 34, 120, 195, 190, 117, 195, 120, 1, 3.03833
233, 3, bw, attraction, a-b-da, 5, 3, 1, 34, 120, 195, 190, 117, 195, 120, 3, 1.17129
233, 3, bw, attraction, a-b-da, 2, 2, 1, 35, 90, 165, 165, 90, 163, 89, 1, 2.38611
233, 3, bw, attraction, a-b-da, 2, 2, 1, 35, 90, 165, 165, 90, 163, 89, 2, 0.921516
233, 3, bw, filler, NA, 999, 999, 1, 36, 68, 178, 114, 107, 140, 65, 2, 17.3706
233, 3, bw, filler, NA, 999, 999, 1, 36, 68, 178, 114, 107, 140, 65, 3, 1.32566
233, 3, bw, filler, NA, 999, 999, 1, 37, 165, 66, 133, 63, 182, 168, 3, 1.05371
233, 3, bw, filler, NA, 999, 999, 1, 37, 165, 66, 133, 63, 182, 168, 2, 0.506812
233, 3, bw, attraction, a-b-db, 2, 1, 2, 1, 59, 134, 60, 135, 135, 60, 2, 2.66794
233, 3, bw, attraction, a-b-db, 2, 1, 2, 1, 59, 134, 60, 135, 135, 60, 3, 6.11978
233, 3, bw, filler, NA, 999, 999, 2, 2, 113, 87, 144, 168, 125, 99, 2, 1.67904
233, 3, bw, filler, NA, 999, 999, 2, 2, 113, 87, 144, 168, 125, 99, 1, 0.62651
233, 3, bw, attraction, a-b-da, 14, 2, 2, 3, 165, 90, 90, 165, 153, 83, 2, 3.58294
233, 3, bw, attraction, a-b-da, 14, 2, 2, 3, 165, 90, 90, 165, 153, 83, 3, 1.24581
233, 3, bw, filler, NA, 999, 999, 2, 4, 84, 82, 66, 61, 146, 136, 3, 1.91332
233, 3, bw, filler, NA, 999, 999, 2, 4, 84, 82, 66, 61, 146, 136, 2, 1.1554
233, 3, bw, attraction, a-b-db, 5, 2, 2, 5, 88, 161, 90, 165, 165, 90, 2, 5.30703
233, 3, bw, attraction, a-b-db, 5, 2, 2, 5, 88, 161, 90, 165, 165, 90, 3, 1.13195
233, 3, bw, catch, NA, 999, 999, 2, 6, 123, 72, 103, 152, 127, 188, 3, 1.95625
233, 3, bw, catch, NA, 999, 999, 2, 6, 123, 72, 103, 152, 127, 188, 1, 0.980222
233, 3, bw, attraction, a-b-db, 5, 3, 2, 7, 120, 195, 117, 190, 195, 120, 3, 6.8345
233, 3, bw, attraction, a-b-db, 5, 3, 2, 7, 120, 195, 117, 190, 195, 120, 2, 0.990328
233, 3, bw, attraction, a-b-db, 14, 2, 2, 8, 165, 90, 83, 153, 90, 165, 3, 8.32401
233, 3, bw, attraction, a-b-db, 14, 2, 2, 8, 165, 90, 83, 153, 90, 165, 2, 0.619299
233, 3, bw, attraction, a-b-da, 9, 1, 2, 9, 60, 135, 129, 57, 135, 60, 3, 6.20858
233, 3, bw, attraction, a-b-da, 9, 1, 2, 9, 60, 135, 129, 57, 135, 60, 2, 1.46923
233, 3, bw, filler, NA, 999, 999, 2, 10, 71, 191, 168, 152, 152, 122, 2, 3.70425
233, 3, bw, filler, NA, 999, 999, 2, 10, 71, 191, 168, 152, 152, 122, 1, 0.794028
233, 3, bw, attraction, a-b-db, 14, 3, 2, 11, 195, 120, 120, 195, 111, 181, 2, 2.69578
233, 3, bw, attraction, a-b-db, 14, 3, 2, 11, 195, 120, 120, 195, 111, 181, 3, 1.93025
233, 3, bw, attraction, a-b-db, 9, 2, 2, 12, 86, 157, 165, 90, 90, 165, 3, 3.73025
233, 3, bw, attraction, a-b-db, 9, 2, 2, 12, 86, 157, 165, 90, 90, 165, 1, 0.491101
233, 3, bw, attraction, a-b-db, 9, 3, 2, 13, 195, 120, 114, 186, 120, 195, 3, 8.02889
233, 3, bw, attraction, a-b-db, 9, 3, 2, 13, 195, 120, 114, 186, 120, 195, 1, 1.14435
233, 3, bw, filler, NA, 999, 999, 2, 14, 158, 182, 151, 82, 97, 128, 1, 1.0079
233, 3, bw, filler, NA, 999, 999, 2, 14, 158, 182, 151, 82, 97, 128, 2, 6.07832
233, 3, bw, attraction, a-b-da, 2, 1, 2, 15, 60, 135, 135, 60, 134, 59, 2, 2.10299
233, 3, bw, attraction, a-b-da, 2, 1, 2, 15, 60, 135, 135, 60, 134, 59, 3, 0.553478
233, 3, bw, attraction, a-b-da, 14, 3, 2, 16, 195, 120, 181, 111, 120, 195, 3, 2.87339
233, 3, bw, attraction, a-b-da, 14, 3, 2, 16, 195, 120, 181, 111, 120, 195, 2, 0.492533
233, 3, bw, filler, NA, 999, 999, 2, 17, 184, 193, 92, 101, 179, 128, 1, 2.55029
233, 3, bw, filler, NA, 999, 999, 2, 17, 184, 193, 92, 101, 179, 128, 2, 0.694843
233, 3, bw, filler, NA, 999, 999, 2, 18, 122, 166, 143, 153, 120, 82, 2, 6.72848
233, 3, bw, filler, NA, 999, 999, 2, 18, 122, 166, 143, 153, 120, 82, 3, 0.632365
233, 3, bw, attraction, a-b-db, 5, 1, 2, 19, 135, 60, 60, 135, 58, 132, 2, 1.86079
233, 3, bw, attraction, a-b-db, 5, 1, 2, 19, 135, 60, 60, 135, 58, 132, 3, 0.848847
233, 3, bw, filler, NA, 999, 999, 2, 20, 145, 78, 89, 191, 162, 71, 2, 1.18843
233, 3, bw, filler, NA, 999, 999, 2, 20, 145, 78, 89, 191, 162, 71, 3, 1.21139
233, 3, bw, filler, NA, 999, 999, 2, 21, 56, 87, 148, 171, 88, 164, 2, 2.11233
233, 3, bw, filler, NA, 999, 999, 2, 21, 56, 87, 148, 171, 88, 164, 1, 0.538282
233, 3, bw, filler, NA, 999, 999, 2, 22, 168, 72, 119, 117, 162, 110, 3, 3.12269
233, 3, bw, filler, NA, 999, 999, 2, 22, 168, 72, 119, 117, 162, 110, 1, 0.883659
233, 3, bw, filler, NA, 999, 999, 2, 23, 150, 157, 98, 132, 57, 126, 1, 1.32607
233, 3, bw, filler, NA, 999, 999, 2, 23, 150, 157, 98, 132, 57, 126, 3, 0.951692
233, 3, bw, attraction, a-b-da, 5, 1, 2, 24, 135, 60, 60, 135, 132, 58, 2, 2.43933
233, 3, bw, attraction, a-b-da, 5, 1, 2, 24, 135, 60, 60, 135, 132, 58, 3, 0.787867
233, 3, bw, attraction, a-b-da, 14, 1, 2, 25, 135, 60, 125, 56, 60, 135, 3, 5.34611
233, 3, bw, attraction, a-b-da, 14, 1, 2, 25, 135, 60, 125, 56, 60, 135, 2, 0.753778
233, 3, bw, attraction, a-b-da, 2, 2, 2, 26, 165, 90, 163, 89, 90, 165, 2, 6.82555
233, 3, bw, attraction, a-b-da, 2, 2, 2, 26, 165, 90, 163, 89, 90, 165, 1, 1.47736
233, 3, bw, attraction, a-b-db, 2, 2, 2, 27, 89, 163, 165, 90, 90, 165, 3, 2.67153
233, 3, bw, attraction, a-b-db, 2, 2, 2, 27, 89, 163, 165, 90, 90, 165, 2, 2.29057
233, 3, bw, attraction, a-b-db, 14, 1, 2, 28, 60, 135, 135, 60, 56, 125, 1, 3.13194
233, 3, bw, attraction, a-b-db, 14, 1, 2, 28, 60, 135, 135, 60, 56, 125, 3, 0.820894
233, 3, bw, attraction, a-b-da, 9, 3, 2, 29, 186, 114, 120, 195, 195, 120, 2, 2.56191
233, 3, bw, attraction, a-b-da, 9, 3, 2, 29, 186, 114, 120, 195, 195, 120, 3, 1.00173
233, 3, bw, catch, NA, 999, 999, 2, 30, 95, 160, 179, 136, 80, 115, 2, 1.44743
233, 3, bw, catch, NA, 999, 999, 2, 30, 95, 160, 179, 136, 80, 115, 3, 0.660199
233, 3, bw, attraction, a-b-db, 2, 3, 2, 31, 195, 120, 120, 195, 119, 193, 2, 5.5752
233, 3, bw, attraction, a-b-db, 2, 3, 2, 31, 195, 120, 120, 195, 119, 193, 1, 1.68545
233, 3, bw, catch, NA, 999, 999, 2, 32, 146, 169, 130, 65, 139, 116, 1, 1.50369
233, 3, bw, catch, NA, 999, 999, 2, 32, 146, 169, 130, 65, 139, 116, 2, 1.00235
233, 3, bw, attraction, a-b-da, 9, 2, 2, 33, 165, 90, 157, 86, 90, 165, 3, 3.34404
233, 3, bw, attraction, a-b-da, 9, 2, 2, 33, 165, 90, 157, 86, 90, 165, 1, 0.888225
233, 3, bw, attraction, a-b-da, 5, 2, 2, 34, 161, 88, 90, 165, 165, 90, 2, 2.81859
233, 3, bw, attraction, a-b-da, 5, 2, 2, 34, 161, 88, 90, 165, 165, 90, 1, 1.00035
233, 3, bw, attraction, a-b-da, 5, 3, 2, 35, 190, 117, 120, 195, 195, 120, 2, 4.27806
233, 3, bw, attraction, a-b-da, 5, 3, 2, 35, 190, 117, 120, 195, 195, 120, 1, 0.720551
233, 3, bw, attraction, a-b-db, 9, 1, 2, 36, 57, 129, 60, 135, 135, 60, 2, 10.4976
233, 3, bw, attraction, a-b-db, 9, 1, 2, 36, 57, 129, 60, 135, 135, 60, 1, 2.28972
233, 3, bw, attraction, a-b-da, 2, 3, 2, 37, 193, 119, 120, 195, 195, 120, 2, 2.61959
233, 3, bw, attraction, a-b-da, 2, 3, 2, 37, 193, 119, 120, 195, 195, 120, 1, 0.857462
233, 3, bw, attraction, a-b-da, 5, 2, 3, 1, 161, 88, 90, 165, 165, 90, 2, 1.54047
233, 3, bw, attraction, a-b-da, 5, 2, 3, 1, 161, 88, 90, 165, 165, 90, 1, 1.72535
233, 3, bw, filler, NA, 999, 999, 3, 2, 95, 141, 182, 76, 182, 151, 3, 1.1813
233, 3, bw, filler, NA, 999, 999, 3, 2, 95, 141, 182, 76, 182, 151, 2, 0.572946
233, 3, bw, attraction, a-b-da, 14, 1, 3, 3, 125, 56, 135, 60, 60, 135, 3, 3.46802
233, 3, bw, attraction, a-b-da, 14, 1, 3, 3, 125, 56, 135, 60, 60, 135, 1, 0.687543
233, 3, bw, attraction, a-b-db, 14, 1, 3, 4, 60, 135, 135, 60, 56, 125, 1, 2.84203
233, 3, bw, attraction, a-b-db, 14, 1, 3, 4, 60, 135, 135, 60, 56, 125, 3, 0.590486
233, 3, bw, attraction, a-b-da, 5, 3, 3, 5, 190, 117, 195, 120, 120, 195, 3, 3.9482
233, 3, bw, attraction, a-b-da, 5, 3, 3, 5, 190, 117, 195, 120, 120, 195, 1, 3.58822
233, 3, bw, catch, NA, 999, 999, 3, 6, 134, 121, 139, 176, 90, 105, 2, 1.26568
233, 3, bw, catch, NA, 999, 999, 3, 6, 134, 121, 139, 176, 90, 105, 3, 0.693951
233, 3, bw, attraction, a-b-da, 14, 2, 3, 7, 153, 83, 165, 90, 90, 165, 3, 2.24781
233, 3, bw, attraction, a-b-da, 14, 2, 3, 7, 153, 83, 165, 90, 90, 165, 1, 0.54024
233, 3, bw, attraction, a-b-db, 2, 1, 3, 8, 135, 60, 59, 134, 60, 135, 2, 2.61203
233, 3, bw, attraction, a-b-db, 2, 1, 3, 8, 135, 60, 59, 134, 60, 135, 1, 1.04181
233, 3, bw, filler, NA, 999, 999, 3, 9, 193, 183, 160, 80, 149, 163, 1, 2.24553
233, 3, bw, filler, NA, 999, 999, 3, 9, 193, 183, 160, 80, 149, 163, 2, 0.522191
233, 3, bw, filler, NA, 999, 999, 3, 10, 116, 91, 162, 163, 127, 89, 2, 1.65139
233, 3, bw, filler, NA, 999, 999, 3, 10, 116, 91, 162, 163, 127, 89, 1, 1.21605
233, 3, bw, attraction, a-b-da, 14, 3, 3, 11, 120, 195, 181, 111, 195, 120, 1, 2.32491
233, 3, bw, attraction, a-b-da, 14, 3, 3, 11, 120, 195, 181, 111, 195, 120, 2, 0.726343
233, 3, bw, attraction, a-b-da, 2, 2, 3, 12, 165, 90, 90, 165, 163, 89, 2, 2.17464
233, 3, bw, attraction, a-b-da, 2, 2, 3, 12, 165, 90, 90, 165, 163, 89, 3, 0.701979
233, 3, bw, attraction, a-b-db, 5, 1, 3, 13, 135, 60, 60, 135, 58, 132, 2, 3.95961
233, 3, bw, attraction, a-b-db, 5, 1, 3, 13, 135, 60, 60, 135, 58, 132, 1, 1.91892
233, 3, bw, catch, NA, 999, 999, 3, 14, 183, 132, 134, 121, 88, 107, 1, 1.07953
233, 3, bw, catch, NA, 999, 999, 3, 14, 183, 132, 134, 121, 88, 107, 3, 0.891276
233, 3, bw, attraction, a-b-db, 9, 3, 3, 15, 120, 195, 195, 120, 114, 186, 1, 4.64499
233, 3, bw, attraction, a-b-db, 9, 3, 3, 15, 120, 195, 195, 120, 114, 186, 3, 0.704745
233, 3, bw, attraction, a-b-da, 9, 2, 3, 16, 157, 86, 165, 90, 90, 165, 3, 2.7865
233, 3, bw, attraction, a-b-da, 9, 2, 3, 16, 157, 86, 165, 90, 90, 165, 1, 1.0576
233, 3, bw, filler, NA, 999, 999, 3, 17, 163, 174, 144, 76, 134, 106, 1, 0.908486
233, 3, bw, filler, NA, 999, 999, 3, 17, 163, 174, 144, 76, 134, 106, 2, 0.510833
233, 3, bw, attraction, a-b-db, 14, 2, 3, 18, 83, 153, 90, 165, 165, 90, 2, 2.06397
233, 3, bw, attraction, a-b-db, 14, 2, 3, 18, 83, 153, 90, 165, 165, 90, 1, 0.796045
233, 3, bw, attraction, a-b-db, 2, 3, 3, 19, 119, 193, 195, 120, 120, 195, 3, 3.52191
233, 3, bw, attraction, a-b-db, 2, 3, 3, 19, 119, 193, 195, 120, 120, 195, 1, 0.530587
233, 3, bw, attraction, a-b-db, 5, 2, 3, 20, 90, 165, 165, 90, 88, 161, 1, 2.19494
233, 3, bw, attraction, a-b-db, 5, 2, 3, 20, 90, 165, 165, 90, 88, 161, 2, 0.63363
233, 3, bw, filler, NA, 999, 999, 3, 21, 141, 68, 81, 65, 59, 157, 1, 2.39813
233, 3, bw, filler, NA, 999, 999, 3, 21, 141, 68, 81, 65, 59, 157, 2, 1.4126
233, 3, bw, attraction, a-b-da, 9, 1, 3, 22, 129, 57, 60, 135, 135, 60, 3, 3.81742
233, 3, bw, attraction, a-b-da, 9, 1, 3, 22, 129, 57, 60, 135, 135, 60, 1, 1.391
233, 3, bw, attraction, a-b-db, 14, 3, 3, 23, 111, 181, 120, 195, 195, 120, 2, 5.47656
233, 3, bw, attraction, a-b-db, 14, 3, 3, 23, 111, 181, 120, 195, 195, 120, 1, 0.662739
233, 3, bw, attraction, a-b-da, 2, 3, 3, 24, 195, 120, 120, 195, 193, 119, 2, 5.36983
233, 3, bw, attraction, a-b-da, 2, 3, 3, 24, 195, 120, 120, 195, 193, 119, 3, 0.62464
233, 3, bw, filler, NA, 999, 999, 3, 25, 114, 66, 135, 190, 143, 170, 2, 1.78912
233, 3, bw, filler, NA, 999, 999, 3, 25, 114, 66, 135, 190, 143, 170, 1, 0.843825
233, 3, bw, attraction, a-b-db, 9, 2, 3, 26, 165, 90, 90, 165, 86, 157, 2, 3.40742
233, 3, bw, attraction, a-b-db, 9, 2, 3, 26, 165, 90, 90, 165, 86, 157, 3, 0.637023
233, 3, bw, catch, NA, 999, 999, 3, 27, 153, 102, 99, 96, 194, 121, 3, 1.16952
233, 3, bw, catch, NA, 999, 999, 3, 27, 153, 102, 99, 96, 194, 121, 2, 0.873971
233, 3, bw, attraction, a-b-da, 2, 1, 3, 28, 135, 60, 60, 135, 134, 59, 2, 1.35602
233, 3, bw, attraction, a-b-da, 2, 1, 3, 28, 135, 60, 60, 135, 134, 59, 3, 1.39631
233, 3, bw, filler, NA, 999, 999, 3, 29, 71, 192, 134, 104, 132, 100, 2, 2.74578
233, 3, bw, filler, NA, 999, 999, 3, 29, 71, 192, 134, 104, 132, 100, 1, 3.33032
233, 3, bw, attraction, a-b-db, 2, 2, 3, 30, 165, 90, 89, 163, 90, 165, 2, 11.0898
233, 3, bw, attraction, a-b-db, 2, 2, 3, 30, 165, 90, 89, 163, 90, 165, 1, 0.490377
233, 3, bw, filler, NA, 999, 999, 3, 31, 128, 95, 67, 187, 63, 103, 1, 2.54022
233, 3, bw, filler, NA, 999, 999, 3, 31, 128, 95, 67, 187, 63, 103, 3, 1.18875
233, 3, bw, attraction, a-b-da, 9, 3, 3, 32, 195, 120, 186, 114, 120, 195, 3, 1.54696
233, 3, bw, attraction, a-b-da, 9, 3, 3, 32, 195, 120, 186, 114, 120, 195, 2, 0.643648
233, 3, bw, attraction, a-b-db, 5, 3, 3, 33, 120, 195, 117, 190, 195, 120, 3, 4.15152
233, 3, bw, attraction, a-b-db, 5, 3, 3, 33, 120, 195, 117, 190, 195, 120, 2, 0.567416
233, 3, bw, filler, NA, 999, 999, 3, 34, 70, 177, 79, 175, 119, 154, 3, 2.55072
233, 3, bw, filler, NA, 999, 999, 3, 34, 70, 177, 79, 175, 119, 154, 1, 1.01506
233, 3, bw, filler, NA, 999, 999, 3, 35, 168, 187, 159, 153, 68, 82, 1, 1.42021
233, 3, bw, filler, NA, 999, 999, 3, 35, 168, 187, 159, 153, 68, 82, 3, 0.666321
233, 3, bw, attraction, a-b-da, 5, 1, 3, 36, 60, 135, 135, 60, 132, 58, 1, 4.12532
233, 3, bw, attraction, a-b-da, 5, 1, 3, 36, 60, 135, 135, 60, 132, 58, 2, 1.70994
233, 3, bw, attraction, a-b-db, 9, 1, 3, 37, 135, 60, 57, 129, 60, 135, 2, 3.31865
233, 3, bw, attraction, a-b-db, 9, 1, 3, 37, 135, 60, 57, 129, 60, 135, 1, 0.800412
233, 3, bw, attraction, a-b-da, 5, 1, 4, 1, 135, 60, 132, 58, 60, 135, 3, 2.23812
233, 3, bw, attraction, a-b-da, 5, 1, 4, 1, 135, 60, 132, 58, 60, 135, 2, 0.642826
233, 3, bw, filler, NA, 999, 999, 4, 2, 63, 111, 65, 159, 183, 90, 3, 1.6704
233, 3, bw, filler, NA, 999, 999, 4, 2, 63, 111, 65, 159, 183, 90, 1, 0.690454
233, 3, bw, attraction, a-b-da, 2, 1, 4, 3, 60, 135, 135, 60, 134, 59, 1, 6.6523
233, 3, bw, attraction, a-b-da, 2, 1, 4, 3, 60, 135, 135, 60, 134, 59, 3, 0.639467
233, 3, bw, catch, NA, 999, 999, 4, 4, 119, 136, 134, 181, 63, 132, 2, 1.03584
233, 3, bw, catch, NA, 999, 999, 4, 4, 119, 136, 134, 181, 63, 132, 3, 0.769513
233, 3, bw, attraction, a-b-da, 5, 2, 4, 5, 165, 90, 161, 88, 90, 165, 3, 3.72047
233, 3, bw, attraction, a-b-da, 5, 2, 4, 5, 165, 90, 161, 88, 90, 165, 2, 0.434004
233, 3, bw, attraction, a-b-da, 9, 2, 4, 6, 165, 90, 90, 165, 157, 86, 2, 2.26251
233, 3, bw, attraction, a-b-da, 9, 2, 4, 6, 165, 90, 90, 165, 157, 86, 3, 0.442449
233, 3, bw, attraction, a-b-db, 2, 3, 4, 7, 119, 193, 195, 120, 120, 195, 3, 2.38224
233, 3, bw, attraction, a-b-db, 2, 3, 4, 7, 119, 193, 195, 120, 120, 195, 1, 2.91742
233, 3, bw, filler, NA, 999, 999, 4, 8, 65, 153, 97, 160, 154, 129, 3, 1.38176
233, 3, bw, filler, NA, 999, 999, 4, 8, 65, 153, 97, 160, 154, 129, 1, 0.429337
233, 3, bw, attraction, a-b-da, 9, 3, 4, 9, 120, 195, 186, 114, 195, 120, 1, 2.64978
233, 3, bw, attraction, a-b-da, 9, 3, 4, 9, 120, 195, 186, 114, 195, 120, 2, 0.50243
233, 3, bw, attraction, a-b-db, 5, 2, 4, 10, 165, 90, 90, 165, 88, 161, 2, 2.86425
233, 3, bw, attraction, a-b-db, 5, 2, 4, 10, 165, 90, 90, 165, 88, 161, 3, 0.555778
233, 3, bw, attraction, a-b-da, 2, 3, 4, 11, 120, 195, 193, 119, 195, 120, 3, 4.24375
233, 3, bw, attraction, a-b-da, 2, 3, 4, 11, 120, 195, 193, 119, 195, 120, 1, 5.21565
233, 3, bw, filler, NA, 999, 999, 4, 12, 138, 163, 102, 68, 161, 113, 1, 1.41133
233, 3, bw, filler, NA, 999, 999, 4, 12, 138, 163, 102, 68, 161, 113, 2, 0.673497
233, 3, bw, attraction, a-b-db, 5, 3, 4, 13, 195, 120, 117, 190, 120, 195, 2, 4.58792
233, 3, bw, attraction, a-b-db, 5, 3, 4, 13, 195, 120, 117, 190, 120, 195, 1, 0.506446
233, 3, bw, filler, NA, 999, 999, 4, 14, 63, 153, 172, 101, 95, 109, 2, 2.50025
233, 3, bw, filler, NA, 999, 999, 4, 14, 63, 153, 172, 101, 95, 109, 1, 3.19076
233, 3, bw, filler, NA, 999, 999, 4, 15, 111, 160, 150, 130, 106, 165, 2, 2.45158
233, 3, bw, filler, NA, 999, 999, 4, 15, 111, 160, 150, 130, 106, 165, 1, 1.26412
233, 3, bw, attraction, a-b-db, 9, 2, 4, 16, 86, 157, 90, 165, 165, 90, 2, 2.52305
233, 3, bw, attraction, a-b-db, 9, 2, 4, 16, 86, 157, 90, 165, 165, 90, 3, 0.724217
233, 3, bw, attraction, a-b-da, 14, 2, 4, 17, 165, 90, 90, 165, 153, 83, 2, 2.54859
233, 3, bw, attraction, a-b-da, 14, 2, 4, 17, 165, 90, 90, 165, 153, 83, 3, 0.733192
233, 3, bw, catch, NA, 999, 999, 4, 18, 117, 138, 107, 88, 134, 181, 3, 1.21358
233, 3, bw, catch, NA, 999, 999, 4, 18, 117, 138, 107, 88, 134, 181, 2, 0.58778
233, 3, bw, attraction, a-b-db, 2, 2, 4, 19, 89, 163, 165, 90, 90, 165, 3, 2.31423
233, 3, bw, attraction, a-b-db, 2, 2, 4, 19, 89, 163, 165, 90, 90, 165, 2, 0.468059
233, 3, bw, attraction, a-b-db, 14, 2, 4, 20, 165, 90, 83, 153, 90, 165, 3, 2.01523
233, 3, bw, attraction, a-b-db, 14, 2, 4, 20, 165, 90, 83, 153, 90, 165, 2, 2.02123
233, 3, bw, attraction, a-b-da, 9, 1, 4, 21, 129, 57, 135, 60, 60, 135, 3, 4.26588
233, 3, bw, attraction, a-b-da, 9, 1, 4, 21, 129, 57, 135, 60, 60, 135, 1, 0.5652
233, 3, bw, attraction, a-b-da, 14, 3, 4, 22, 181, 111, 195, 120, 120, 195, 2, 6.50029
233, 3, bw, attraction, a-b-da, 14, 3, 4, 22, 181, 111, 195, 120, 120, 195, 1, 0.44564
233, 3, bw, attraction, a-b-db, 14, 1, 4, 23, 56, 125, 135, 60, 60, 135, 3, 2.24135
233, 3, bw, attraction, a-b-db, 14, 1, 4, 23, 56, 125, 135, 60, 60, 135, 1, 1.29393
233, 3, bw, attraction, a-b-db, 14, 3, 4, 24, 120, 195, 111, 181, 195, 120, 1, 5.29551
233, 3, bw, attraction, a-b-db, 14, 3, 4, 24, 120, 195, 111, 181, 195, 120, 2, 0.89726
233, 3, bw, catch, NA, 999, 999, 4, 25, 134, 181, 135, 120, 108, 87, 1, 1.77087
233, 3, bw, catch, NA, 999, 999, 4, 25, 134, 181, 135, 120, 108, 87, 3, 0.994949
233, 3, bw, filler, NA, 999, 999, 4, 26, 114, 64, 176, 92, 84, 191, 3, 2.82459
233, 3, bw, filler, NA, 999, 999, 4, 26, 114, 64, 176, 92, 84, 191, 1, 0.893616
233, 3, bw, attraction, a-b-da, 14, 1, 4, 27, 135, 60, 60, 135, 125, 56, 2, 2.77529
233, 3, bw, attraction, a-b-da, 14, 1, 4, 27, 135, 60, 60, 135, 125, 56, 3, 1.18241
233, 3, bw, attraction, a-b-db, 5, 1, 4, 28, 58, 132, 60, 135, 135, 60, 2, 2.03659
233, 3, bw, attraction, a-b-db, 5, 1, 4, 28, 58, 132, 60, 135, 135, 60, 1, 0.506075
233, 3, bw, attraction, a-b-da, 2, 2, 4, 29, 165, 90, 90, 165, 163, 89, 2, 2.53179
233, 3, bw, attraction, a-b-da, 2, 2, 4, 29, 165, 90, 90, 165, 163, 89, 3, 0.436973
233, 3, bw, filler, NA, 999, 999, 4, 30, 90, 180, 106, 83, 163, 102, 3, 1.53752
233, 3, bw, filler, NA, 999, 999, 4, 30, 90, 180, 106, 83, 163, 102, 2, 0.434909
233, 3, bw, attraction, a-b-db, 9, 3, 4, 31, 120, 195, 195, 120, 114, 186, 1, 2.04746
233, 3, bw, attraction, a-b-db, 9, 3, 4, 31, 120, 195, 195, 120, 114, 186, 3, 3.06815
233, 3, bw, attraction, a-b-da, 5, 3, 4, 32, 120, 195, 195, 120, 190, 117, 1, 2.67838
233, 3, bw, attraction, a-b-da, 5, 3, 4, 32, 120, 195, 195, 120, 190, 117, 2, 0.657605
233, 3, bw, attraction, a-b-db, 9, 1, 4, 33, 57, 129, 60, 135, 135, 60, 2, 2.57261
233, 3, bw, attraction, a-b-db, 9, 1, 4, 33, 57, 129, 60, 135, 135, 60, 3, 1.09178
233, 3, bw, filler, NA, 999, 999, 4, 34, 144, 125, 139, 109, 68, 75, 1, 3.00536
233, 3, bw, filler, NA, 999, 999, 4, 34, 144, 125, 139, 109, 68, 75, 3, 0.547736
233, 3, bw, attraction, a-b-db, 2, 1, 4, 35, 135, 60, 59, 134, 60, 135, 2, 2.41152
233, 3, bw, attraction, a-b-db, 2, 1, 4, 35, 135, 60, 59, 134, 60, 135, 1, 1.22532
233, 3, bw, filler, NA, 999, 999, 4, 36, 162, 139, 180, 155, 136, 96, 2, 1.28561
233, 3, bw, filler, NA, 999, 999, 4, 36, 162, 139, 180, 155, 136, 96, 3, 0.489119
233, 3, bw, filler, NA, 999, 999, 4, 37, 93, 87, 119, 182, 148, 104, 2, 1.10755
233, 3, bw, filler, NA, 999, 999, 4, 37, 93, 87, 119, 182, 148, 104, 1, 0.637891
233, 3, bw, attraction, a-b-db, 5, 3, 5, 1, 120, 195, 117, 190, 195, 120, 2, 7.40053
233, 3, bw, attraction, a-b-db, 5, 3, 5, 1, 120, 195, 117, 190, 195, 120, 3, 0.781269
233, 3, bw, attraction, a-b-db, 2, 3, 5, 2, 195, 120, 119, 193, 120, 195, 2, 2.82766
233, 3, bw, attraction, a-b-db, 2, 3, 5, 2, 195, 120, 119, 193, 120, 195, 1, 0.880755
233, 3, bw, filler, NA, 999, 999, 5, 3, 93, 123, 166, 175, 186, 75, 2, 2.5071
233, 3, bw, filler, NA, 999, 999, 5, 3, 93, 123, 166, 175, 186, 75, 1, 0.948956
233, 3, bw, attraction, a-b-da, 5, 2, 5, 4, 90, 165, 161, 88, 165, 90, 1, 4.94049
233, 3, bw, attraction, a-b-da, 5, 2, 5, 4, 90, 165, 161, 88, 165, 90, 2, 0.684474
233, 3, bw, filler, NA, 999, 999, 5, 5, 158, 120, 151, 163, 93, 139, 2, 2.75062
233, 3, bw, filler, NA, 999, 999, 5, 5, 158, 120, 151, 163, 93, 139, 3, 0.751176
233, 3, bw, attraction, a-b-da, 9, 2, 5, 6, 90, 165, 165, 90, 157, 86, 1, 4.09493
233, 3, bw, attraction, a-b-da, 9, 2, 5, 6, 90, 165, 165, 90, 157, 86, 3, 0.825067
233, 3, bw, attraction, a-b-da, 9, 1, 5, 7, 135, 60, 60, 135, 129, 57, 2, 3.23728
233, 3, bw, attraction, a-b-da, 9, 1, 5, 7, 135, 60, 60, 135, 129, 57, 3, 3.59431
233, 3, bw, filler, NA, 999, 999, 5, 8, 123, 155, 109, 103, 185, 123, 3, 2.6871
233, 3, bw, filler, NA, 999, 999, 5, 8, 123, 155, 109, 103, 185, 123, 2, 0.578076
233, 3, bw, attraction, a-b-da, 5, 1, 5, 9, 135, 60, 60, 135, 132, 58, 2, 3.29655
233, 3, bw, attraction, a-b-da, 5, 1, 5, 9, 135, 60, 60, 135, 132, 58, 3, 0.594961
233, 3, bw, attraction, a-b-da, 2, 3, 5, 10, 120, 195, 193, 119, 195, 120, 3, 5.33666
233, 3, bw, attraction, a-b-da, 2, 3, 5, 10, 120, 195, 193, 119, 195, 120, 2, 0.953069
233, 3, bw, attraction, a-b-da, 2, 1, 5, 11, 135, 60, 134, 59, 60, 135, 3, 18.8886
233, 3, bw, attraction, a-b-da, 2, 1, 5, 11, 135, 60, 134, 59, 60, 135, 2, 1.39862
233, 3, bw, attraction, a-b-da, 9, 3, 5, 12, 186, 114, 195, 120, 120, 195, 2, 4.49217
233, 3, bw, attraction, a-b-da, 9, 3, 5, 12, 186, 114, 195, 120, 120, 195, 1, 0.990033
233, 3, bw, attraction, a-b-db, 14, 3, 5, 13, 120, 195, 111, 181, 195, 120, 1, 2.35568
233, 3, bw, attraction, a-b-db, 14, 3, 5, 13, 120, 195, 111, 181, 195, 120, 2, 0.47574
233, 3, bw, filler, NA, 999, 999, 5, 14, 105, 95, 186, 59, 136, 194, 3, 3.29418
233, 3, bw, filler, NA, 999, 999, 5, 14, 105, 95, 186, 59, 136, 194, 2, 13.8725
233, 3, bw, attraction, a-b-da, 2, 2, 5, 15, 90, 165, 165, 90, 163, 89, 1, 5.16719
233, 3, bw, attraction, a-b-da, 2, 2, 5, 15, 90, 165, 165, 90, 163, 89, 2, 0.966233
233, 3, bw, filler, NA, 999, 999, 5, 16, 118, 188, 165, 99, 56, 177, 1, 1.60535
233, 3, bw, filler, NA, 999, 999, 5, 16, 118, 188, 165, 99, 56, 177, 3, 0.635453
233, 3, bw, attraction, a-b-da, 14, 1, 5, 17, 125, 56, 60, 135, 135, 60, 2, 3.66387
233, 3, bw, attraction, a-b-da, 14, 1, 5, 17, 125, 56, 60, 135, 135, 60, 1, 8.43542
233, 3, bw, attraction, a-b-db, 9, 3, 5, 18, 114, 186, 195, 120, 120, 195, 3, 7.24538
233, 3, bw, attraction, a-b-db, 9, 3, 5, 18, 114, 186, 195, 120, 120, 195, 1, 0.816278
233, 3, bw, attraction, a-b-da, 14, 3, 5, 19, 120, 195, 181, 111, 195, 120, 1, 3.45323
233, 3, bw, attraction, a-b-da, 14, 3, 5, 19, 120, 195, 181, 111, 195, 120, 2, 0.641712
233, 3, bw, filler, NA, 999, 999, 5, 20, 84, 170, 107, 125, 100, 145, 1, 13.4534
233, 3, bw, filler, NA, 999, 999, 5, 20, 84, 170, 107, 125, 100, 145, 2, 0.590385
233, 3, bw, attraction, a-b-db, 5, 2, 5, 21, 88, 161, 90, 165, 165, 90, 2, 2.37219
233, 3, bw, attraction, a-b-db, 5, 2, 5, 21, 88, 161, 90, 165, 165, 90, 3, 0.571412
233, 3, bw, filler, NA, 999, 999, 5, 22, 175, 188, 132, 56, 58, 114, 1, 0.906433
233, 3, bw, filler, NA, 999, 999, 5, 22, 175, 188, 132, 56, 58, 114, 3, 0.852905
233, 3, bw, attraction, a-b-db, 2, 1, 5, 23, 135, 60, 59, 134, 60, 135, 1, 6.89652
233, 3, bw, attraction, a-b-db, 2, 1, 5, 23, 135, 60, 59, 134, 60, 135, 2, 0.609848
233, 3, bw, filler, NA, 999, 999, 5, 24, 159, 138, 149, 171, 103, 179, 2, 1.48683
233, 3, bw, filler, NA, 999, 999, 5, 24, 159, 138, 149, 171, 103, 179, 3, 0.618337
233, 3, bw, attraction, a-b-db, 5, 1, 5, 25, 58, 132, 60, 135, 135, 60, 3, 6.78341
233, 3, bw, attraction, a-b-db, 5, 1, 5, 25, 58, 132, 60, 135, 135, 60, 1, 0.557091
233, 3, bw, attraction, a-b-db, 2, 2, 5, 26, 165, 90, 89, 163, 90, 165, 2, 3.22843
233, 3, bw, attraction, a-b-db, 2, 2, 5, 26, 165, 90, 89, 163, 90, 165, 1, 1.72931
233, 3, bw, catch, NA, 999, 999, 5, 27, 158, 157, 161, 94, 129, 66, 1, 1.04936
233, 3, bw, catch, NA, 999, 999, 5, 27, 158, 157, 161, 94, 129, 66, 3, 0.65433
233, 3, bw, attraction, a-b-da, 5, 3, 5, 28, 120, 195, 195, 120, 190, 117, 1, 3.018
233, 3, bw, attraction, a-b-da, 5, 3, 5, 28, 120, 195, 195, 120, 190, 117, 2, 0.743786
233, 3, bw, attraction, a-b-db, 14, 2, 5, 29, 83, 153, 165, 90, 90, 165, 3, 1.64742
233, 3, bw, attraction, a-b-db, 14, 2, 5, 29, 83, 153, 165, 90, 90, 165, 1, 0.596402
233, 3, bw, attraction, a-b-db, 14, 1, 5, 30, 135, 60, 60, 135, 56, 125, 2, 3.52201
233, 3, bw, attraction, a-b-db, 14, 1, 5, 30, 135, 60, 60, 135, 56, 125, 3, 0.515586
233, 3, bw, catch, NA, 999, 999, 5, 31, 187, 128, 126, 69, 142, 113, 1, 1.47675
233, 3, bw, catch, NA, 999, 999, 5, 31, 187, 128, 126, 69, 142, 113, 2, 0.680249
233, 3, bw, attraction, a-b-db, 9, 2, 5, 32, 165, 90, 90, 165, 86, 157, 2, 1.81069
233, 3, bw, attraction, a-b-db, 9, 2, 5, 32, 165, 90, 90, 165, 86, 157, 3, 0.664665
233, 3, bw, attraction, a-b-db, 9, 1, 5, 33, 135, 60, 60, 135, 57, 129, 2, 2.08382
233, 3, bw, attraction, a-b-db, 9, 1, 5, 33, 135, 60, 60, 135, 57, 129, 3, 1.00714
233, 3, bw, filler, NA, 999, 999, 5, 34, 135, 102, 149, 109, 128, 177, 3, 1.49196
233, 3, bw, filler, NA, 999, 999, 5, 34, 135, 102, 149, 109, 128, 177, 1, 0.446819
233, 3, bw, attraction, a-b-da, 14, 2, 5, 35, 90, 165, 165, 90, 153, 83, 1, 3.88283
233, 3, bw, attraction, a-b-da, 14, 2, 5, 35, 90, 165, 165, 90, 153, 83, 3, 0.733364
233, 3, bw, catch, NA, 999, 999, 5, 36, 120, 195, 78, 117, 142, 113, 1, 1.33381
233, 3, bw, catch, NA, 999, 999, 5, 36, 120, 195, 78, 117, 142, 113, 2, 0.607405
233, 3, bw, filler, NA, 999, 999, 5, 37, 187, 152, 103, 89, 126, 116, 1, 0.964424
233, 3, bw, filler, NA, 999, 999, 5, 37, 187, 152, 103, 89, 126, 116, 2, 0.676795
233, 3, bw, filler, NA, 999, 999, 6, 1, 160, 108, 131, 131, 180, 192, 3, 2.28713
233, 3, bw, filler, NA, 999, 999, 6, 1, 160, 108, 131, 131, 180, 192, 1, 0.738425
233, 3, bw, filler, NA, 999, 999, 6, 2, 78, 162, 158, 129, 156, 188, 3, 2.00282
233, 3, bw, filler, NA, 999, 999, 6, 2, 78, 162, 158, 129, 156, 188, 1, 0.69754
233, 3, bw, attraction, a-b-da, 9, 2, 6, 3, 90, 165, 157, 86, 165, 90, 1, 2.21919
233, 3, bw, attraction, a-b-da, 9, 2, 6, 3, 90, 165, 157, 86, 165, 90, 2, 0.465182
233, 3, bw, catch, NA, 999, 999, 6, 4, 130, 185, 148, 107, 101, 94, 1, 1.08427
233, 3, bw, catch, NA, 999, 999, 6, 4, 130, 185, 148, 107, 101, 94, 3, 0.543913
233, 3, bw, filler, NA, 999, 999, 6, 5, 140, 174, 163, 98, 112, 117, 1, 2.16767
233, 3, bw, filler, NA, 999, 999, 6, 5, 140, 174, 163, 98, 112, 117, 3, 0.783589
233, 3, bw, attraction, a-b-db, 14, 2, 6, 6, 83, 153, 165, 90, 90, 165, 3, 3.08618
233, 3, bw, attraction, a-b-db, 14, 2, 6, 6, 83, 153, 165, 90, 90, 165, 1, 2.29703
233, 3, bw, filler, NA, 999, 999, 6, 7, 120, 74, 136, 174, 88, 182, 2, 2.52221
233, 3, bw, filler, NA, 999, 999, 6, 7, 120, 74, 136, 174, 88, 182, 1, 1.8914
233, 3, bw, attraction, a-b-da, 5, 3, 6, 8, 190, 117, 195, 120, 120, 195, 3, 3.32489
233, 3, bw, attraction, a-b-da, 5, 3, 6, 8, 190, 117, 195, 120, 120, 195, 2, 2.55772
233, 3, bw, attraction, a-b-da, 14, 3, 6, 9, 120, 195, 195, 120, 181, 111, 1, 3.82832
233, 3, bw, attraction, a-b-da, 14, 3, 6, 9, 120, 195, 195, 120, 181, 111, 3, 0.680981
233, 3, bw, filler, NA, 999, 999, 6, 10, 128, 59, 170, 98, 116, 77, 2, 2.61139
233, 3, bw, filler, NA, 999, 999, 6, 10, 128, 59, 170, 98, 116, 77, 1, 0.6413
233, 3, bw, attraction, a-b-da, 9, 3, 6, 11, 120, 195, 195, 120, 186, 114, 1, 4.15687
233, 3, bw, attraction, a-b-da, 9, 3, 6, 11, 120, 195, 195, 120, 186, 114, 3, 0.900273
233, 3, bw, filler, NA, 999, 999, 6, 12, 150, 143, 143, 129, 57, 131, 1, 1.10198
233, 3, bw, filler, NA, 999, 999, 6, 12, 150, 143, 143, 129, 57, 131, 3, 0.697019
233, 3, bw, attraction, a-b-db, 5, 2, 6, 13, 165, 90, 90, 165, 88, 161, 2, 3.53874
233, 3, bw, attraction, a-b-db, 5, 2, 6, 13, 165, 90, 90, 165, 88, 161, 3, 1.61956
233, 3, bw, attraction, a-b-da, 14, 2, 6, 14, 165, 90, 153, 83, 90, 165, 3, 2.12042
233, 3, bw, attraction, a-b-da, 14, 2, 6, 14, 165, 90, 153, 83, 90, 165, 2, 0.570168
233, 3, bw, attraction, a-b-da, 9, 1, 6, 15, 129, 57, 60, 135, 135, 60, 2, 3.09736
233, 3, bw, attraction, a-b-da, 9, 1, 6, 15, 129, 57, 60, 135, 135, 60, 1, 0.803597
233, 3, bw, attraction, a-b-db, 5, 1, 6, 16, 135, 60, 58, 132, 60, 135, 1, 5.24928
233, 3, bw, attraction, a-b-db, 5, 1, 6, 16, 135, 60, 58, 132, 60, 135, 3, 0.653181
233, 3, bw, filler, NA, 999, 999, 6, 17, 87, 115, 71, 182, 90, 131, 2, 6.40883
233, 3, bw, filler, NA, 999, 999, 6, 17, 87, 115, 71, 182, 90, 131, 1, 0.733404
233, 3, bw, attraction, a-b-da, 5, 1, 6, 18, 60, 135, 132, 58, 135, 60, 1, 1.88574
233, 3, bw, attraction, a-b-da, 5, 1, 6, 18, 60, 135, 132, 58, 135, 60, 2, 0.569286
233, 3, bw, attraction, a-b-da, 2, 1, 6, 19, 60, 135, 134, 59, 135, 60, 3, 4.01631
233, 3, bw, attraction, a-b-da, 2, 1, 6, 19, 60, 135, 134, 59, 135, 60, 2, 0.885638
233, 3, bw, filler, NA, 999, 999, 6, 20, 181, 80, 73, 168, 153, 109, 3, 23.3121
233, 3, bw, filler, NA, 999, 999, 6, 20, 181, 80, 73, 168, 153, 109, 2, 0.779445
233, 3, bw, attraction, a-b-da, 2, 2, 6, 21, 163, 89, 165, 90, 90, 165, 3, 5.7297
233, 3, bw, attraction, a-b-da, 2, 2, 6, 21, 163, 89, 165, 90, 90, 165, 2, 0.769952
233, 3, bw, attraction, a-b-db, 9, 2, 6, 22, 90, 165, 86, 157, 165, 90, 1, 3.77692
233, 3, bw, attraction, a-b-db, 9, 2, 6, 22, 90, 165, 86, 157, 165, 90, 3, 0.81579
233, 3, bw, filler, NA, 999, 999, 6, 23, 150, 116, 128, 119, 143, 171, 3, 1.53272
233, 3, bw, filler, NA, 999, 999, 6, 23, 150, 116, 128, 119, 143, 171, 2, 0.750227
233, 3, bw, attraction, a-b-db, 14, 3, 6, 24, 120, 195, 195, 120, 111, 181, 1, 2.53398
233, 3, bw, attraction, a-b-db, 14, 3, 6, 24, 120, 195, 195, 120, 111, 181, 3, 0.799131
233, 3, bw, attraction, a-b-db, 2, 1, 6, 25, 59, 134, 60, 135, 135, 60, 2, 2.67686
233, 3, bw, attraction, a-b-db, 2, 1, 6, 25, 59, 134, 60, 135, 135, 60, 3, 1.38411
233, 3, bw, attraction, a-b-db, 5, 3, 6, 26, 120, 195, 195, 120, 117, 190, 1, 2.32619
233, 3, bw, attraction, a-b-db, 5, 3, 6, 26, 120, 195, 195, 120, 117, 190, 2, 0.935391
233, 3, bw, attraction, a-b-db, 2, 2, 6, 27, 90, 165, 165, 90, 89, 163, 3, 3.47176
233, 3, bw, attraction, a-b-db, 2, 2, 6, 27, 90, 165, 165, 90, 89, 163, 2, 0.779434
233, 3, bw, attraction, a-b-da, 5, 2, 6, 28, 90, 165, 165, 90, 161, 88, 1, 3.12152
233, 3, bw, attraction, a-b-da, 5, 2, 6, 28, 90, 165, 165, 90, 161, 88, 2, 0.667458
233, 3, bw, filler, NA, 999, 999, 6, 29, 190, 94, 62, 156, 182, 102, 3, 19.5904
233, 3, bw, filler, NA, 999, 999, 6, 29, 190, 94, 62, 156, 182, 102, 2, 1.47229
233, 3, bw, attraction, a-b-db, 9, 3, 6, 30, 195, 120, 114, 186, 120, 195, 3, 4.41916
233, 3, bw, attraction, a-b-db, 9, 3, 6, 30, 195, 120, 114, 186, 120, 195, 2, 0.664238
233, 3, bw, attraction, a-b-db, 9, 1, 6, 31, 135, 60, 60, 135, 57, 129, 2, 3.09141
233, 3, bw, attraction, a-b-db, 9, 1, 6, 31, 135, 60, 60, 135, 57, 129, 3, 0.765641
233, 3, bw, catch, NA, 999, 999, 6, 32, 125, 70, 155, 160, 90, 165, 2, 3.90868
233, 3, bw, catch, NA, 999, 999, 6, 32, 125, 70, 155, 160, 90, 165, 1, 1.4623
233, 3, bw, attraction, a-b-da, 14, 1, 6, 33, 125, 56, 135, 60, 60, 135, 3, 2.12093
233, 3, bw, attraction, a-b-da, 14, 1, 6, 33, 125, 56, 135, 60, 60, 135, 2, 0.818963
233, 3, bw, attraction, a-b-da, 2, 3, 6, 34, 195, 120, 120, 195, 193, 119, 2, 3.29599
233, 3, bw, attraction, a-b-da, 2, 3, 6, 34, 195, 120, 120, 195, 193, 119, 3, 0.882287
233, 3, bw, attraction, a-b-db, 2, 3, 6, 35, 119, 193, 195, 120, 120, 195, 3, 6.47653
233, 3, bw, attraction, a-b-db, 2, 3, 6, 35, 119, 193, 195, 120, 120, 195, 1, 0.590522
233, 3, bw, catch, NA, 999, 999, 6, 36, 137, 178, 98, 97, 165, 90, 1, 1.28432
233, 3, bw, catch, NA, 999, 999, 6, 36, 137, 178, 98, 97, 165, 90, 2, 0.543851
233, 3, bw, attraction, a-b-db, 14, 1, 6, 37, 135, 60, 56, 125, 60, 135, 3, 3.60759
233, 3, bw, attraction, a-b-db, 14, 1, 6, 37, 135, 60, 56, 125, 60, 135, 1, 1.21332
233, 3, bw, attraction, a-b-db, 9, 1, 7, 1, 57, 129, 135, 60, 60, 135, 3, 2.578
233, 3, bw, attraction, a-b-db, 9, 1, 7, 1, 57, 129, 135, 60, 60, 135, 2, 1.24917
233, 3, bw, attraction, a-b-da, 5, 1, 7, 2, 135, 60, 132, 58, 60, 135, 3, 2.50876
233, 3, bw, attraction, a-b-da, 5, 1, 7, 2, 135, 60, 132, 58, 60, 135, 2, 0.758689
233, 3, bw, attraction, a-b-db, 14, 1, 7, 3, 135, 60, 56, 125, 60, 135, 3, 5.29372
233, 3, bw, attraction, a-b-db, 14, 1, 7, 3, 135, 60, 56, 125, 60, 135, 2, 0.535426
233, 3, bw, filler, NA, 999, 999, 7, 4, 123, 182, 114, 97, 191, 101, 1, 2.10381
233, 3, bw, filler, NA, 999, 999, 7, 4, 123, 182, 114, 97, 191, 101, 2, 2.35452
233, 3, bw, filler, NA, 999, 999, 7, 5, 185, 85, 170, 157, 178, 168, 3, 4.25773
233, 3, bw, filler, NA, 999, 999, 7, 5, 185, 85, 170, 157, 178, 168, 1, 1.38094
233, 3, bw, attraction, a-b-db, 9, 2, 7, 6, 90, 165, 165, 90, 86, 157, 2, 4.87515
233, 3, bw, attraction, a-b-db, 9, 2, 7, 6, 90, 165, 165, 90, 86, 157, 3, 0.517546
233, 3, bw, filler, NA, 999, 999, 7, 7, 112, 130, 155, 181, 184, 140, 2, 2.39058
233, 3, bw, filler, NA, 999, 999, 7, 7, 112, 130, 155, 181, 184, 140, 1, 0.661124
233, 3, bw, attraction, a-b-da, 2, 3, 7, 8, 195, 120, 193, 119, 120, 195, 3, 2.56832
233, 3, bw, attraction, a-b-da, 2, 3, 7, 8, 195, 120, 193, 119, 120, 195, 2, 0.448151
233, 3, bw, attraction, a-b-db, 5, 1, 7, 9, 58, 132, 60, 135, 135, 60, 2, 2.11583
233, 3, bw, attraction, a-b-db, 5, 1, 7, 9, 58, 132, 60, 135, 135, 60, 3, 0.589851
233, 3, bw, filler, NA, 999, 999, 7, 10, 78, 161, 99, 147, 132, 83, 2, 1.50018
233, 3, bw, filler, NA, 999, 999, 7, 10, 78, 161, 99, 147, 132, 83, 3, 0.495229
233, 3, bw, attraction, a-b-da, 5, 2, 7, 11, 90, 165, 161, 88, 165, 90, 1, 3.72901
233, 3, bw, attraction, a-b-da, 5, 2, 7, 11, 90, 165, 161, 88, 165, 90, 2, 0.641838
233, 3, bw, attraction, a-b-db, 9, 3, 7, 12, 114, 186, 195, 120, 120, 195, 2, 4.39746
233, 3, bw, attraction, a-b-db, 9, 3, 7, 12, 114, 186, 195, 120, 120, 195, 1, 0.53143
233, 3, bw, attraction, a-b-da, 14, 3, 7, 13, 195, 120, 181, 111, 120, 195, 3, 1.97987
233, 3, bw, attraction, a-b-da, 14, 3, 7, 13, 195, 120, 181, 111, 120, 195, 2, 0.443197
233, 3, bw, catch, NA, 999, 999, 7, 14, 133, 182, 60, 135, 136, 119, 1, 0.998975
233, 3, bw, catch, NA, 999, 999, 7, 14, 133, 182, 60, 135, 136, 119, 2, 0.48605
233, 3, bw, catch, NA, 999, 999, 7, 15, 176, 139, 98, 97, 108, 147, 1, 2.32055
233, 3, bw, catch, NA, 999, 999, 7, 15, 176, 139, 98, 97, 108, 147, 2, 0.706363
233, 3, bw, filler, NA, 999, 999, 7, 16, 140, 73, 191, 103, 67, 147, 2, 1.52413
233, 3, bw, filler, NA, 999, 999, 7, 16, 140, 73, 191, 103, 67, 147, 3, 0.533684
233, 3, bw, attraction, a-b-db, 2, 1, 7, 17, 59, 134, 60, 135, 135, 60, 2, 1.82206
233, 3, bw, attraction, a-b-db, 2, 1, 7, 17, 59, 134, 60, 135, 135, 60, 3, 0.779484
233, 3, bw, attraction, a-b-db, 2, 2, 7, 18, 165, 90, 90, 165, 89, 163, 2, 2.33777
233, 3, bw, attraction, a-b-db, 2, 2, 7, 18, 165, 90, 90, 165, 89, 163, 3, 0.835049
233, 3, bw, attraction, a-b-db, 5, 2, 7, 19, 88, 161, 165, 90, 90, 165, 3, 4.15141
233, 3, bw, attraction, a-b-db, 5, 2, 7, 19, 88, 161, 165, 90, 90, 165, 2, 1.23149
233, 3, bw, filler, NA, 999, 999, 7, 20, 70, 139, 107, 127, 178, 110, 3, 1.74778
233, 3, bw, filler, NA, 999, 999, 7, 20, 70, 139, 107, 127, 178, 110, 1, 0.748432
233, 3, bw, filler, NA, 999, 999, 7, 21, 136, 195, 78, 105, 115, 108, 1, 1.0362
233, 3, bw, filler, NA, 999, 999, 7, 21, 136, 195, 78, 105, 115, 108, 2, 0.657783
233, 3, bw, attraction, a-b-da, 5, 3, 7, 22, 120, 195, 195, 120, 190, 117, 1, 2.86893
233, 3, bw, attraction, a-b-da, 5, 3, 7, 22, 120, 195, 195, 120, 190, 117, 2, 0.576628
233, 3, bw, catch, NA, 999, 999, 7, 23, 142, 113, 185, 130, 104, 91, 2, 1.59097
233, 3, bw, catch, NA, 999, 999, 7, 23, 142, 113, 185, 130, 104, 91, 3, 0.853776
233, 3, bw, attraction, a-b-da, 2, 2, 7, 24, 90, 165, 165, 90, 163, 89, 1, 2.42544
233, 3, bw, attraction, a-b-da, 2, 2, 7, 24, 90, 165, 165, 90, 163, 89, 2, 0.614644
233, 3, bw, attraction, a-b-db, 14, 3, 7, 25, 120, 195, 195, 120, 111, 181, 1, 4.53982
233, 3, bw, attraction, a-b-db, 14, 3, 7, 25, 120, 195, 195, 120, 111, 181, 3, 1.31569
233, 3, bw, filler, NA, 999, 999, 7, 26, 142, 111, 156, 83, 70, 86, 1, 1.01251
233, 3, bw, filler, NA, 999, 999, 7, 26, 142, 111, 156, 83, 70, 86, 3, 0.586848
233, 3, bw, attraction, a-b-da, 9, 3, 7, 27, 120, 195, 186, 114, 195, 120, 3, 4.96133
233, 3, bw, attraction, a-b-da, 9, 3, 7, 27, 120, 195, 186, 114, 195, 120, 2, 0.632402
233, 3, bw, attraction, a-b-da, 2, 1, 7, 28, 134, 59, 135, 60, 60, 135, 3, 2.9568
233, 3, bw, attraction, a-b-da, 2, 1, 7, 28, 134, 59, 135, 60, 60, 135, 2, 0.668594
233, 3, bw, filler, NA, 999, 999, 7, 29, 136, 159, 64, 64, 70, 120, 1, 1.33556
233, 3, bw, filler, NA, 999, 999, 7, 29, 136, 159, 64, 64, 70, 120, 2, 1.17721
233, 3, bw, attraction, a-b-da, 14, 1, 7, 30, 135, 60, 60, 135, 125, 56, 2, 5.26347
233, 3, bw, attraction, a-b-da, 14, 1, 7, 30, 135, 60, 60, 135, 125, 56, 3, 1.77843
233, 3, bw, attraction, a-b-db, 2, 3, 7, 31, 120, 195, 119, 193, 195, 120, 1, 5.04851
233, 3, bw, attraction, a-b-db, 2, 3, 7, 31, 120, 195, 119, 193, 195, 120, 3, 0.996075
233, 3, bw, attraction, a-b-da, 14, 2, 7, 32, 165, 90, 90, 165, 153, 83, 2, 3.16975
233, 3, bw, attraction, a-b-da, 14, 2, 7, 32, 165, 90, 90, 165, 153, 83, 3, 1.0094
233, 3, bw, attraction, a-b-da, 9, 1, 7, 33, 60, 135, 135, 60, 129, 57, 1, 1.67044
233, 3, bw, attraction, a-b-da, 9, 1, 7, 33, 60, 135, 135, 60, 129, 57, 2, 0.650536
233, 3, bw, attraction, a-b-da, 9, 2, 7, 34, 157, 86, 165, 90, 90, 165, 3, 2.0782
233, 3, bw, attraction, a-b-da, 9, 2, 7, 34, 157, 86, 165, 90, 90, 165, 2, 1.02553
233, 3, bw, attraction, a-b-db, 14, 2, 7, 35, 165, 90, 83, 153, 90, 165, 3, 2.05387
233, 3, bw, attraction, a-b-db, 14, 2, 7, 35, 165, 90, 83, 153, 90, 165, 2, 0.906499
233, 3, bw, filler, NA, 999, 999, 7, 36, 180, 78, 151, 85, 68, 181, 1, 4.07613
233, 3, bw, filler, NA, 999, 999, 7, 36, 180, 78, 151, 85, 68, 181, 3, 2.67096
233, 3, bw, attraction, a-b-db, 5, 3, 7, 37, 117, 190, 195, 120, 120, 195, 3, 5.15333
233, 3, bw, attraction, a-b-db, 5, 3, 7, 37, 117, 190, 195, 120, 120, 195, 1, 2.66512
233, 3, bw, attraction, a-b-db, 14, 3, 8, 1, 195, 120, 120, 195, 111, 181, 1, 6.69151
233, 3, bw, attraction, a-b-db, 14, 3, 8, 1, 195, 120, 120, 195, 111, 181, 3, 1.08469
233, 3, bw, attraction, a-b-db, 5, 3, 8, 2, 117, 190, 195, 120, 120, 195, 3, 1.70294
233, 3, bw, attraction, a-b-db, 5, 3, 8, 2, 117, 190, 195, 120, 120, 195, 2, 0.721744
233, 3, bw, filler, NA, 999, 999, 8, 3, 116, 119, 140, 169, 132, 195, 3, 1.94687
233, 3, bw, filler, NA, 999, 999, 8, 3, 116, 119, 140, 169, 132, 195, 1, 0.515486
233, 3, bw, attraction, a-b-db, 5, 2, 8, 4, 88, 161, 90, 165, 165, 90, 1, 1.50865
233, 3, bw, attraction, a-b-db, 5, 2, 8, 4, 88, 161, 90, 165, 165, 90, 3, 0.902719
233, 3, bw, filler, NA, 999, 999, 8, 5, 61, 166, 168, 166, 161, 59, 2, 0.848336
233, 3, bw, filler, NA, 999, 999, 8, 5, 61, 166, 168, 166, 161, 59, 3, 0.725495
233, 3, bw, attraction, a-b-db, 2, 1, 8, 6, 59, 134, 135, 60, 60, 135, 1, 1.67791
233, 3, bw, attraction, a-b-db, 2, 1, 8, 6, 59, 134, 135, 60, 60, 135, 2, 0.505255
233, 3, bw, catch, NA, 999, 999, 8, 7, 150, 165, 85, 110, 147, 108, 1, 0.771031
233, 3, bw, catch, NA, 999, 999, 8, 7, 150, 165, 85, 110, 147, 108, 2, 0.563483
233, 3, bw, attraction, a-b-da, 2, 2, 8, 8, 163, 89, 165, 90, 90, 165, 3, 1.9385
233, 3, bw, attraction, a-b-da, 2, 2, 8, 8, 163, 89, 165, 90, 90, 165, 2, 0.411312
233, 3, bw, filler, NA, 999, 999, 8, 9, 101, 138, 97, 161, 158, 71, 2, 2.02446
233, 3, bw, filler, NA, 999, 999, 8, 9, 101, 138, 97, 161, 158, 71, 3, 0.549738
233, 3, bw, filler, NA, 999, 999, 8, 10, 185, 135, 86, 152, 139, 109, 1, 0.757454
233, 3, bw, filler, NA, 999, 999, 8, 10, 185, 135, 86, 152, 139, 109, 2, 0.573882
233, 3, bw, attraction, a-b-da, 14, 2, 8, 11, 153, 83, 165, 90, 90, 165, 3, 1.76428
233, 3, bw, attraction, a-b-da, 14, 2, 8, 11, 153, 83, 165, 90, 90, 165, 1, 0.692508
233, 3, bw, filler, NA, 999, 999, 8, 12, 186, 170, 84, 64, 135, 124, 1, 0.790095
233, 3, bw, filler, NA, 999, 999, 8, 12, 186, 170, 84, 64, 135, 124, 2, 0.661149
233, 3, bw, filler, NA, 999, 999, 8, 13, 96, 138, 174, 141, 133, 175, 2, 1.23232
233, 3, bw, filler, NA, 999, 999, 8, 13, 96, 138, 174, 141, 133, 175, 1, 0.605971
233, 3, bw, attraction, a-b-da, 14, 1, 8, 14, 125, 56, 60, 135, 135, 60, 2, 1.72377
233, 3, bw, attraction, a-b-da, 14, 1, 8, 14, 125, 56, 60, 135, 135, 60, 1, 0.589028
233, 3, bw, attraction, a-b-da, 2, 1, 8, 15, 134, 59, 135, 60, 60, 135, 1, 1.28349
233, 3, bw, attraction, a-b-da, 2, 1, 8, 15, 134, 59, 135, 60, 60, 135, 2, 0.471073
233, 3, bw, attraction, a-b-db, 14, 1, 8, 16, 135, 60, 56, 125, 60, 135, 3, 1.53022
233, 3, bw, attraction, a-b-db, 14, 1, 8, 16, 135, 60, 56, 125, 60, 135, 1, 0.907633
233, 3, bw, attraction, a-b-da, 2, 3, 8, 17, 193, 119, 195, 120, 120, 195, 3, 4.15672
233, 3, bw, attraction, a-b-da, 2, 3, 8, 17, 193, 119, 195, 120, 120, 195, 2, 0.515987
233, 3, bw, attraction, a-b-db, 2, 2, 8, 18, 90, 165, 165, 90, 89, 163, 3, 3.0451
233, 3, bw, attraction, a-b-db, 2, 2, 8, 18, 90, 165, 165, 90, 89, 163, 2, 0.689485
233, 3, bw, attraction, a-b-da, 5, 1, 8, 19, 60, 135, 135, 60, 132, 58, 3, 2.7159
233, 3, bw, attraction, a-b-da, 5, 1, 8, 19, 60, 135, 135, 60, 132, 58, 2, 0.533557
233, 3, bw, attraction, a-b-db, 2, 3, 8, 20, 195, 120, 119, 193, 120, 195, 2, 2.89406
233, 3, bw, attraction, a-b-db, 2, 3, 8, 20, 195, 120, 119, 193, 120, 195, 1, 0.688416
233, 3, bw, attraction, a-b-da, 14, 3, 8, 21, 181, 111, 195, 120, 120, 195, 3, 1.56294
233, 3, bw, attraction, a-b-da, 14, 3, 8, 21, 181, 111, 195, 120, 120, 195, 1, 0.931141
233, 3, bw, attraction, a-b-da, 5, 3, 8, 22, 120, 195, 190, 117, 195, 120, 1, 1.62733
233, 3, bw, attraction, a-b-da, 5, 3, 8, 22, 120, 195, 190, 117, 195, 120, 2, 0.480781
233, 3, bw, filler, NA, 999, 999, 8, 23, 66, 146, 132, 175, 79, 191, 2, 0.931212
233, 3, bw, filler, NA, 999, 999, 8, 23, 66, 146, 132, 175, 79, 191, 1, 0.620904
233, 3, bw, catch, NA, 999, 999, 8, 24, 109, 146, 186, 129, 94, 101, 2, 1.1861
233, 3, bw, catch, NA, 999, 999, 8, 24, 109, 146, 186, 129, 94, 101, 3, 0.521666
233, 3, bw, attraction, a-b-da, 9, 3, 8, 25, 186, 114, 120, 195, 195, 120, 3, 2.45085
233, 3, bw, attraction, a-b-da, 9, 3, 8, 25, 186, 114, 120, 195, 195, 120, 1, 0.479314
233, 3, bw, catch, NA, 999, 999, 8, 26, 103, 92, 178, 137, 102, 153, 2, 0.809776
233, 3, bw, catch, NA, 999, 999, 8, 26, 103, 92, 178, 137, 102, 153, 1, 0.5281
233, 3, bw, attraction, a-b-db, 9, 1, 8, 27, 57, 129, 60, 135, 135, 60, 2, 1.48859
233, 3, bw, attraction, a-b-db, 9, 1, 8, 27, 57, 129, 60, 135, 135, 60, 3, 0.747445
233, 3, bw, filler, NA, 999, 999, 8, 28, 138, 87, 76, 195, 71, 188, 2, 1.42716
233, 3, bw, filler, NA, 999, 999, 8, 28, 138, 87, 76, 195, 71, 188, 1, 0.640843
233, 3, bw, attraction, a-b-db, 9, 3, 8, 29, 120, 195, 195, 120, 114, 186, 1, 1.07632
233, 3, bw, attraction, a-b-db, 9, 3, 8, 29, 120, 195, 195, 120, 114, 186, 3, 1.0241
233, 3, bw, attraction, a-b-db, 9, 2, 8, 30, 90, 165, 86, 157, 165, 90, 3, 2.03633
233, 3, bw, attraction, a-b-db, 9, 2, 8, 30, 90, 165, 86, 157, 165, 90, 2, 0.473817
233, 3, bw, attraction, a-b-da, 5, 2, 8, 31, 161, 88, 90, 165, 165, 90, 2, 0.964119
233, 3, bw, attraction, a-b-da, 5, 2, 8, 31, 161, 88, 90, 165, 165, 90, 1, 0.59652
233, 3, bw, attraction, a-b-db, 14, 2, 8, 32, 90, 165, 83, 153, 165, 90, 1, 1.37025
233, 3, bw, attraction, a-b-db, 14, 2, 8, 32, 90, 165, 83, 153, 165, 90, 2, 0.634469
233, 3, bw, attraction, a-b-da, 9, 1, 8, 33, 60, 135, 129, 57, 135, 60, 1, 1.94284
233, 3, bw, attraction, a-b-da, 9, 1, 8, 33, 60, 135, 129, 57, 135, 60, 2, 0.695587
233, 3, bw, filler, NA, 999, 999, 8, 34, 173, 189, 182, 155, 85, 184, 1, 1.55348
233, 3, bw, filler, NA, 999, 999, 8, 34, 173, 189, 182, 155, 85, 184, 3, 0.55404
233, 3, bw, attraction, a-b-da, 9, 2, 8, 35, 165, 90, 157, 86, 90, 165, 3, 1.11387
233, 3, bw, attraction, a-b-da, 9, 2, 8, 35, 165, 90, 157, 86, 90, 165, 2, 0.46008
233, 3, bw, attraction, a-b-db, 5, 1, 8, 36, 58, 132, 60, 135, 135, 60, 2, 1.76735
233, 3, bw, attraction, a-b-db, 5, 1, 8, 36, 58, 132, 60, 135, 135, 60, 3, 0.687361
233, 3, bw, filler, NA, 999, 999, 8, 37, 151, 129, 184, 170, 177, 124, 2, 1.74584
233, 3, bw, filler, NA, 999, 999, 8, 37, 151, 129, 184, 170, 177, 124, 1, 0.514571
