sub_n, computer_n, bw_cond, effect, set, distance, diag, block_n, trial_n, h1, w1, h2, w2, h3, w3, choice, rt 
285, 3, bw, practice, NA, 999, 999, 0, 1, 143, 90, 159, 79, 182, 83, 3, 4.10665
285, 3, bw, practice, NA, 999, 999, 0, 1, 143, 90, 159, 79, 182, 83, 1, 2.50118
285, 3, bw, practice, NA, 999, 999, 0, 2, 107, 144, 184, 133, 107, 127, 2, 2.1219
285, 3, bw, practice, NA, 999, 999, 0, 2, 107, 144, 184, 133, 107, 127, 3, 1.70854
285, 3, bw, practice, NA, 999, 999, 0, 3, 59, 137, 159, 139, 184, 71, 2, 1.63324
285, 3, bw, practice, NA, 999, 999, 0, 3, 59, 137, 159, 139, 184, 71, 1, 1.26407
285, 3, bw, attraction, a-b-da, 9, 3, 1, 1, 120, 195, 195, 120, 186, 114, 1, 2.52374
285, 3, bw, attraction, a-b-da, 9, 3, 1, 1, 120, 195, 195, 120, 186, 114, 3, 1.717
285, 3, bw, filler, NA, 999, 999, 1, 2, 101, 173, 153, 69, 127, 184, 3, 0.965626
285, 3, bw, filler, NA, 999, 999, 1, 2, 101, 173, 153, 69, 127, 184, 2, 0.406053
285, 3, bw, catch, NA, 999, 999, 1, 3, 98, 157, 153, 162, 107, 88, 2, 1.03595
285, 3, bw, catch, NA, 999, 999, 1, 3, 98, 157, 153, 162, 107, 88, 3, 0.417573
285, 3, bw, attraction, a-b-db, 9, 2, 1, 4, 86, 157, 90, 165, 165, 90, 2, 1.49467
285, 3, bw, attraction, a-b-db, 9, 2, 1, 4, 86, 157, 90, 165, 165, 90, 1, 0.801563
285, 3, bw, attraction, a-b-db, 14, 3, 1, 5, 120, 195, 111, 181, 195, 120, 1, 2.15913
285, 3, bw, attraction, a-b-db, 14, 3, 1, 5, 120, 195, 111, 181, 195, 120, 3, 1.01519
285, 3, bw, attraction, a-b-db, 14, 2, 1, 6, 83, 153, 165, 90, 90, 165, 3, 3.79614
285, 3, bw, attraction, a-b-db, 14, 2, 1, 6, 83, 153, 165, 90, 90, 165, 2, 0.514314
285, 3, bw, attraction, a-b-db, 5, 2, 1, 7, 165, 90, 88, 161, 90, 165, 2, 4.27529
285, 3, bw, attraction, a-b-db, 5, 2, 1, 7, 165, 90, 88, 161, 90, 165, 3, 0.734034
285, 3, bw, attraction, a-b-db, 9, 3, 1, 8, 114, 186, 195, 120, 120, 195, 2, 3.27032
285, 3, bw, attraction, a-b-db, 9, 3, 1, 8, 114, 186, 195, 120, 120, 195, 3, 1.04998
285, 3, bw, filler, NA, 999, 999, 1, 9, 79, 148, 158, 144, 93, 115, 2, 1.50964
285, 3, bw, filler, NA, 999, 999, 1, 9, 79, 148, 158, 144, 93, 115, 1, 0.599709
285, 3, bw, attraction, a-b-db, 2, 2, 1, 10, 90, 165, 89, 163, 165, 90, 1, 2.68543
285, 3, bw, attraction, a-b-db, 2, 2, 1, 10, 90, 165, 89, 163, 165, 90, 3, 0.72064
285, 3, bw, attraction, a-b-da, 14, 3, 1, 11, 195, 120, 120, 195, 181, 111, 2, 3.5777
285, 3, bw, attraction, a-b-da, 14, 3, 1, 11, 195, 120, 120, 195, 181, 111, 3, 0.504535
285, 3, bw, filler, NA, 999, 999, 1, 12, 77, 66, 60, 130, 77, 147, 3, 2.79432
285, 3, bw, filler, NA, 999, 999, 1, 12, 77, 66, 60, 130, 77, 147, 1, 1.05688
285, 3, bw, attraction, a-b-da, 2, 1, 1, 13, 134, 59, 60, 135, 135, 60, 2, 4.29172
285, 3, bw, attraction, a-b-da, 2, 1, 1, 13, 134, 59, 60, 135, 135, 60, 1, 0.429641
285, 3, bw, attraction, a-b-da, 14, 1, 1, 14, 60, 135, 135, 60, 125, 56, 1, 3.17811
285, 3, bw, attraction, a-b-da, 14, 1, 1, 14, 60, 135, 135, 60, 125, 56, 3, 0.849075
285, 3, bw, catch, NA, 999, 999, 1, 15, 119, 136, 131, 184, 125, 70, 2, 1.66079
285, 3, bw, catch, NA, 999, 999, 1, 15, 119, 136, 131, 184, 125, 70, 3, 0.912997
285, 3, bw, attraction, a-b-da, 9, 2, 1, 16, 165, 90, 90, 165, 157, 86, 1, 1.77794
285, 3, bw, attraction, a-b-da, 9, 2, 1, 16, 165, 90, 90, 165, 157, 86, 3, 0.953318
285, 3, bw, filler, NA, 999, 999, 1, 17, 151, 130, 163, 74, 122, 146, 1, 3.51301
285, 3, bw, filler, NA, 999, 999, 1, 17, 151, 130, 163, 74, 122, 146, 2, 0.41849
285, 3, bw, attraction, a-b-db, 14, 1, 1, 18, 60, 135, 135, 60, 56, 125, 1, 1.51176
285, 3, bw, attraction, a-b-db, 14, 1, 1, 18, 60, 135, 135, 60, 56, 125, 2, 0.369916
285, 3, bw, filler, NA, 999, 999, 1, 19, 175, 158, 182, 132, 130, 193, 1, 2.64894
285, 3, bw, filler, NA, 999, 999, 1, 19, 175, 158, 182, 132, 130, 193, 2, 0.789564
285, 3, bw, attraction, a-b-da, 9, 1, 1, 20, 129, 57, 60, 135, 135, 60, 2, 2.73986
285, 3, bw, attraction, a-b-da, 9, 1, 1, 20, 129, 57, 60, 135, 135, 60, 1, 0.476274
285, 3, bw, attraction, a-b-da, 2, 3, 1, 21, 120, 195, 195, 120, 193, 119, 2, 3.77466
285, 3, bw, attraction, a-b-da, 2, 3, 1, 21, 120, 195, 195, 120, 193, 119, 1, 0.493554
285, 3, bw, filler, NA, 999, 999, 1, 22, 101, 193, 167, 144, 116, 193, 2, 2.75133
285, 3, bw, filler, NA, 999, 999, 1, 22, 101, 193, 167, 144, 116, 193, 1, 0.591744
285, 3, bw, attraction, a-b-da, 14, 2, 1, 23, 90, 165, 153, 83, 165, 90, 1, 1.7015
285, 3, bw, attraction, a-b-da, 14, 2, 1, 23, 90, 165, 153, 83, 165, 90, 2, 0.888223
285, 3, bw, attraction, a-b-da, 2, 2, 1, 24, 165, 90, 163, 89, 90, 165, 1, 1.60256
285, 3, bw, attraction, a-b-da, 2, 2, 1, 24, 165, 90, 163, 89, 90, 165, 2, 0.545559
285, 3, bw, filler, NA, 999, 999, 1, 25, 164, 75, 150, 179, 76, 141, 2, 0.889106
285, 3, bw, filler, NA, 999, 999, 1, 25, 164, 75, 150, 179, 76, 141, 1, 1.27629
285, 3, bw, attraction, a-b-db, 2, 1, 1, 26, 60, 135, 135, 60, 59, 134, 1, 1.41433
285, 3, bw, attraction, a-b-db, 2, 1, 1, 26, 60, 135, 135, 60, 59, 134, 2, 2.04462
285, 3, bw, attraction, a-b-da, 5, 1, 1, 27, 60, 135, 132, 58, 135, 60, 1, 1.21585
285, 3, bw, attraction, a-b-da, 5, 1, 1, 27, 60, 135, 132, 58, 135, 60, 2, 1.02225
285, 3, bw, attraction, a-b-da, 5, 3, 1, 28, 190, 117, 195, 120, 120, 195, 1, 2.79529
285, 3, bw, attraction, a-b-da, 5, 3, 1, 28, 190, 117, 195, 120, 120, 195, 2, 0.569522
285, 3, bw, filler, NA, 999, 999, 1, 29, 152, 78, 163, 65, 148, 142, 3, 2.18484
285, 3, bw, filler, NA, 999, 999, 1, 29, 152, 78, 163, 65, 148, 142, 2, 0.751937
285, 3, bw, catch, NA, 999, 999, 1, 30, 130, 65, 138, 177, 107, 148, 2, 0.831648
285, 3, bw, catch, NA, 999, 999, 1, 30, 130, 65, 138, 177, 107, 148, 1, 0.557329
285, 3, bw, attraction, a-b-db, 2, 3, 1, 31, 195, 120, 120, 195, 119, 193, 2, 2.56447
285, 3, bw, attraction, a-b-db, 2, 3, 1, 31, 195, 120, 120, 195, 119, 193, 1, 0.700859
285, 3, bw, filler, NA, 999, 999, 1, 32, 90, 151, 118, 151, 127, 135, 2, 3.80611
285, 3, bw, filler, NA, 999, 999, 1, 32, 90, 151, 118, 151, 127, 135, 1, 1.77151
285, 3, bw, attraction, a-b-da, 5, 2, 1, 33, 165, 90, 161, 88, 90, 165, 3, 3.96235
285, 3, bw, attraction, a-b-da, 5, 2, 1, 33, 165, 90, 161, 88, 90, 165, 2, 0.489527
285, 3, bw, attraction, a-b-db, 5, 3, 1, 34, 117, 190, 195, 120, 120, 195, 3, 3.40407
285, 3, bw, attraction, a-b-db, 5, 3, 1, 34, 117, 190, 195, 120, 120, 195, 2, 0.730469
285, 3, bw, attraction, a-b-db, 9, 1, 1, 35, 135, 60, 60, 135, 57, 129, 1, 1.79467
285, 3, bw, attraction, a-b-db, 9, 1, 1, 35, 135, 60, 60, 135, 57, 129, 2, 0.65757
285, 3, bw, attraction, a-b-db, 5, 1, 1, 36, 58, 132, 135, 60, 60, 135, 1, 3.34864
285, 3, bw, attraction, a-b-db, 5, 1, 1, 36, 58, 132, 135, 60, 60, 135, 2, 0.540795
285, 3, bw, filler, NA, 999, 999, 1, 37, 178, 161, 165, 76, 87, 63, 1, 1.21252
285, 3, bw, filler, NA, 999, 999, 1, 37, 178, 161, 165, 76, 87, 63, 3, 0.538784
285, 3, bw, attraction, a-b-db, 2, 1, 2, 1, 135, 60, 59, 134, 60, 135, 1, 1.06725
285, 3, bw, attraction, a-b-db, 2, 1, 2, 1, 135, 60, 59, 134, 60, 135, 2, 0.527557
285, 3, bw, attraction, a-b-da, 5, 1, 2, 2, 132, 58, 60, 135, 135, 60, 1, 0.824082
285, 3, bw, attraction, a-b-da, 5, 1, 2, 2, 132, 58, 60, 135, 135, 60, 3, 1.42165
285, 3, bw, attraction, a-b-db, 9, 1, 2, 3, 60, 135, 57, 129, 135, 60, 3, 3.28257
285, 3, bw, attraction, a-b-db, 9, 1, 2, 3, 60, 135, 57, 129, 135, 60, 2, 2.24553
285, 3, bw, catch, NA, 999, 999, 2, 4, 97, 98, 193, 122, 110, 145, 2, 4.70469
285, 3, bw, catch, NA, 999, 999, 2, 4, 97, 98, 193, 122, 110, 145, 1, 0.88187
285, 3, bw, filler, NA, 999, 999, 2, 5, 111, 67, 168, 97, 168, 125, 3, 1.2763
285, 3, bw, filler, NA, 999, 999, 2, 5, 111, 67, 168, 97, 168, 125, 1, 0.495745
285, 3, bw, attraction, a-b-da, 9, 2, 2, 6, 165, 90, 90, 165, 157, 86, 2, 3.3776
285, 3, bw, attraction, a-b-da, 9, 2, 2, 6, 165, 90, 90, 165, 157, 86, 3, 0.37655
285, 3, bw, attraction, a-b-db, 2, 2, 2, 7, 165, 90, 90, 165, 89, 163, 1, 3.01504
285, 3, bw, attraction, a-b-db, 2, 2, 2, 7, 165, 90, 90, 165, 89, 163, 3, 0.620671
285, 3, bw, attraction, a-b-db, 14, 3, 2, 8, 120, 195, 195, 120, 111, 181, 1, 3.73777
285, 3, bw, attraction, a-b-db, 14, 3, 2, 8, 120, 195, 195, 120, 111, 181, 3, 0.450654
285, 3, bw, attraction, a-b-da, 2, 2, 2, 9, 165, 90, 163, 89, 90, 165, 3, 5.67849
285, 3, bw, attraction, a-b-da, 2, 2, 2, 9, 165, 90, 163, 89, 90, 165, 2, 0.456686
285, 3, bw, attraction, a-b-db, 5, 3, 2, 10, 120, 195, 195, 120, 117, 190, 1, 2.54775
285, 3, bw, attraction, a-b-db, 5, 3, 2, 10, 120, 195, 195, 120, 117, 190, 3, 0.308219
285, 3, bw, attraction, a-b-db, 9, 3, 2, 11, 195, 120, 120, 195, 114, 186, 1, 4.06142
285, 3, bw, attraction, a-b-db, 9, 3, 2, 11, 195, 120, 120, 195, 114, 186, 3, 0.296779
285, 3, bw, filler, NA, 999, 999, 2, 12, 103, 120, 108, 194, 131, 163, 3, 1.89056
285, 3, bw, filler, NA, 999, 999, 2, 12, 103, 120, 108, 194, 131, 163, 2, 0.261425
285, 3, bw, catch, NA, 999, 999, 2, 13, 68, 127, 144, 111, 131, 184, 3, 0.904528
285, 3, bw, catch, NA, 999, 999, 2, 13, 68, 127, 144, 111, 131, 184, 1, 0.347516
285, 3, bw, attraction, a-b-da, 14, 2, 2, 14, 90, 165, 165, 90, 153, 83, 1, 4.36336
285, 3, bw, attraction, a-b-da, 14, 2, 2, 14, 90, 165, 165, 90, 153, 83, 3, 1.0587
285, 3, bw, attraction, a-b-da, 14, 3, 2, 15, 181, 111, 195, 120, 120, 195, 3, 2.90978
285, 3, bw, attraction, a-b-da, 14, 3, 2, 15, 181, 111, 195, 120, 120, 195, 1, 0.455305
285, 3, bw, filler, NA, 999, 999, 2, 16, 72, 60, 185, 186, 67, 113, 2, 0.723125
285, 3, bw, filler, NA, 999, 999, 2, 16, 72, 60, 185, 186, 67, 113, 1, 1.22891
285, 3, bw, attraction, a-b-db, 9, 2, 2, 17, 165, 90, 90, 165, 86, 157, 1, 1.30517
285, 3, bw, attraction, a-b-db, 9, 2, 2, 17, 165, 90, 90, 165, 86, 157, 2, 0.683338
285, 3, bw, filler, NA, 999, 999, 2, 18, 93, 86, 185, 160, 190, 168, 3, 0.813879
285, 3, bw, filler, NA, 999, 999, 2, 18, 93, 86, 185, 160, 190, 168, 1, 0.724093
285, 3, bw, attraction, a-b-db, 14, 1, 2, 19, 135, 60, 56, 125, 60, 135, 1, 3.75652
285, 3, bw, attraction, a-b-db, 14, 1, 2, 19, 135, 60, 56, 125, 60, 135, 3, 3.40395
285, 3, bw, attraction, a-b-da, 5, 2, 2, 20, 161, 88, 165, 90, 90, 165, 3, 1.70491
285, 3, bw, attraction, a-b-da, 5, 2, 2, 20, 161, 88, 165, 90, 90, 165, 1, 1.27497
285, 3, bw, attraction, a-b-da, 2, 1, 2, 21, 60, 135, 135, 60, 134, 59, 1, 1.32525
285, 3, bw, attraction, a-b-da, 2, 1, 2, 21, 60, 135, 135, 60, 134, 59, 2, 0.926903
285, 3, bw, attraction, a-b-da, 5, 3, 2, 22, 190, 117, 195, 120, 120, 195, 3, 2.61508
285, 3, bw, attraction, a-b-da, 5, 3, 2, 22, 190, 117, 195, 120, 120, 195, 2, 0.540885
285, 3, bw, attraction, a-b-da, 2, 3, 2, 23, 193, 119, 195, 120, 120, 195, 3, 1.34871
285, 3, bw, attraction, a-b-da, 2, 3, 2, 23, 193, 119, 195, 120, 120, 195, 2, 0.373534
285, 3, bw, attraction, a-b-db, 14, 2, 2, 24, 90, 165, 83, 153, 165, 90, 1, 1.84399
285, 3, bw, attraction, a-b-db, 14, 2, 2, 24, 90, 165, 83, 153, 165, 90, 3, 1.00873
285, 3, bw, attraction, a-b-da, 9, 3, 2, 25, 195, 120, 120, 195, 186, 114, 2, 1.47777
285, 3, bw, attraction, a-b-da, 9, 3, 2, 25, 195, 120, 120, 195, 186, 114, 3, 0.409143
285, 3, bw, filler, NA, 999, 999, 2, 26, 168, 98, 157, 159, 190, 88, 2, 1.32633
285, 3, bw, filler, NA, 999, 999, 2, 26, 168, 98, 157, 159, 190, 88, 3, 0.744086
285, 3, bw, filler, NA, 999, 999, 2, 27, 177, 182, 171, 123, 150, 126, 2, 3.91956
285, 3, bw, filler, NA, 999, 999, 2, 27, 177, 182, 171, 123, 150, 126, 3, 0.520973
285, 3, bw, attraction, a-b-db, 5, 2, 2, 28, 90, 165, 88, 161, 165, 90, 3, 2.09809
285, 3, bw, attraction, a-b-db, 5, 2, 2, 28, 90, 165, 88, 161, 165, 90, 2, 0.652928
285, 3, bw, attraction, a-b-db, 5, 1, 2, 29, 135, 60, 60, 135, 58, 132, 1, 1.51255
285, 3, bw, attraction, a-b-db, 5, 1, 2, 29, 135, 60, 60, 135, 58, 132, 2, 1.34669
285, 3, bw, attraction, a-b-da, 9, 1, 2, 30, 129, 57, 60, 135, 135, 60, 2, 4.73034
285, 3, bw, attraction, a-b-da, 9, 1, 2, 30, 129, 57, 60, 135, 135, 60, 1, 0.466734
285, 3, bw, filler, NA, 999, 999, 2, 31, 128, 175, 142, 97, 195, 134, 3, 1.43782
285, 3, bw, filler, NA, 999, 999, 2, 31, 128, 175, 142, 97, 195, 134, 2, 0.395343
285, 3, bw, filler, NA, 999, 999, 2, 32, 92, 126, 90, 72, 146, 81, 1, 0.961126
285, 3, bw, filler, NA, 999, 999, 2, 32, 92, 126, 90, 72, 146, 81, 2, 1.0656
285, 3, bw, attraction, a-b-da, 14, 1, 2, 33, 60, 135, 125, 56, 135, 60, 3, 3.92444
285, 3, bw, attraction, a-b-da, 14, 1, 2, 33, 60, 135, 125, 56, 135, 60, 1, 1.58919
285, 3, bw, catch, NA, 999, 999, 2, 34, 159, 156, 108, 87, 130, 125, 1, 1.25943
285, 3, bw, catch, NA, 999, 999, 2, 34, 159, 156, 108, 87, 130, 125, 2, 0.503499
285, 3, bw, filler, NA, 999, 999, 2, 35, 124, 138, 87, 187, 87, 153, 1, 2.80936
285, 3, bw, filler, NA, 999, 999, 2, 35, 124, 138, 87, 187, 87, 153, 2, 0.487168
285, 3, bw, filler, NA, 999, 999, 2, 36, 79, 120, 189, 133, 156, 106, 2, 2.35357
285, 3, bw, filler, NA, 999, 999, 2, 36, 79, 120, 189, 133, 156, 106, 1, 0.410169
285, 3, bw, attraction, a-b-db, 2, 3, 2, 37, 195, 120, 119, 193, 120, 195, 2, 2.3033
285, 3, bw, attraction, a-b-db, 2, 3, 2, 37, 195, 120, 119, 193, 120, 195, 1, 0.401896
285, 3, bw, attraction, a-b-db, 5, 1, 3, 1, 60, 135, 58, 132, 135, 60, 1, 4.88769
285, 3, bw, attraction, a-b-db, 5, 1, 3, 1, 60, 135, 58, 132, 135, 60, 2, 0.466069
285, 3, bw, attraction, a-b-da, 5, 3, 3, 2, 195, 120, 120, 195, 190, 117, 2, 1.67724
285, 3, bw, attraction, a-b-da, 5, 3, 3, 2, 195, 120, 120, 195, 190, 117, 1, 0.312709
285, 3, bw, attraction, a-b-db, 2, 3, 3, 3, 195, 120, 120, 195, 119, 193, 2, 1.29786
285, 3, bw, attraction, a-b-db, 2, 3, 3, 3, 195, 120, 120, 195, 119, 193, 1, 0.500794
285, 3, bw, filler, NA, 999, 999, 3, 4, 131, 108, 64, 122, 97, 160, 1, 1.87862
285, 3, bw, filler, NA, 999, 999, 3, 4, 131, 108, 64, 122, 97, 160, 2, 0.321965
285, 3, bw, attraction, a-b-db, 2, 2, 3, 5, 165, 90, 89, 163, 90, 165, 2, 1.76314
285, 3, bw, attraction, a-b-db, 2, 2, 3, 5, 165, 90, 89, 163, 90, 165, 1, 0.331354
285, 3, bw, attraction, a-b-db, 5, 2, 3, 6, 90, 165, 88, 161, 165, 90, 1, 3.89172
285, 3, bw, attraction, a-b-db, 5, 2, 3, 6, 90, 165, 88, 161, 165, 90, 3, 0.677762
285, 3, bw, attraction, a-b-da, 2, 3, 3, 7, 195, 120, 120, 195, 193, 119, 2, 1.1842
285, 3, bw, attraction, a-b-da, 2, 3, 3, 7, 195, 120, 120, 195, 193, 119, 1, 0.455812
285, 3, bw, attraction, a-b-da, 9, 2, 3, 8, 165, 90, 157, 86, 90, 165, 1, 1.29975
285, 3, bw, attraction, a-b-da, 9, 2, 3, 8, 165, 90, 157, 86, 90, 165, 2, 0.32649
285, 3, bw, catch, NA, 999, 999, 3, 9, 66, 129, 153, 102, 190, 125, 3, 0.583112
285, 3, bw, catch, NA, 999, 999, 3, 9, 66, 129, 153, 102, 190, 125, 1, 0.982754
285, 3, bw, attraction, a-b-da, 2, 1, 3, 10, 60, 135, 134, 59, 135, 60, 3, 1.64509
285, 3, bw, attraction, a-b-da, 2, 1, 3, 10, 60, 135, 134, 59, 135, 60, 1, 0.417863
285, 3, bw, filler, NA, 999, 999, 3, 11, 143, 138, 106, 135, 100, 70, 1, 0.935098
285, 3, bw, filler, NA, 999, 999, 3, 11, 143, 138, 106, 135, 100, 70, 2, 2.9128
285, 3, bw, attraction, a-b-db, 14, 3, 3, 12, 120, 195, 111, 181, 195, 120, 1, 3.20904
285, 3, bw, attraction, a-b-db, 14, 3, 3, 12, 120, 195, 111, 181, 195, 120, 2, 0.310737
285, 3, bw, attraction, a-b-da, 14, 3, 3, 13, 181, 111, 120, 195, 195, 120, 2, 1.28806
285, 3, bw, attraction, a-b-da, 14, 3, 3, 13, 181, 111, 120, 195, 195, 120, 1, 0.41089
285, 3, bw, filler, NA, 999, 999, 3, 14, 150, 60, 143, 127, 113, 190, 3, 0.919971
285, 3, bw, filler, NA, 999, 999, 3, 14, 150, 60, 143, 127, 113, 190, 1, 0.690452
285, 3, bw, attraction, a-b-da, 9, 1, 3, 15, 135, 60, 129, 57, 60, 135, 3, 2.49211
285, 3, bw, attraction, a-b-da, 9, 1, 3, 15, 135, 60, 129, 57, 60, 135, 2, 0.750525
285, 3, bw, attraction, a-b-db, 2, 1, 3, 16, 60, 135, 135, 60, 59, 134, 1, 4.19025
285, 3, bw, attraction, a-b-db, 2, 1, 3, 16, 60, 135, 135, 60, 59, 134, 3, 1.18023
285, 3, bw, filler, NA, 999, 999, 3, 17, 108, 175, 190, 131, 150, 107, 2, 0.89061
285, 3, bw, filler, NA, 999, 999, 3, 17, 108, 175, 190, 131, 150, 107, 3, 0.613626
285, 3, bw, filler, NA, 999, 999, 3, 18, 170, 117, 121, 175, 98, 100, 2, 2.41864
285, 3, bw, filler, NA, 999, 999, 3, 18, 170, 117, 121, 175, 98, 100, 3, 0.840439
285, 3, bw, attraction, a-b-db, 9, 1, 3, 19, 57, 129, 135, 60, 60, 135, 3, 3.98026
285, 3, bw, attraction, a-b-db, 9, 1, 3, 19, 57, 129, 135, 60, 60, 135, 2, 0.78696
285, 3, bw, attraction, a-b-db, 9, 2, 3, 20, 90, 165, 165, 90, 86, 157, 1, 3.81722
285, 3, bw, attraction, a-b-db, 9, 2, 3, 20, 90, 165, 165, 90, 86, 157, 3, 0.358695
285, 3, bw, attraction, a-b-da, 5, 1, 3, 21, 132, 58, 60, 135, 135, 60, 2, 2.48597
285, 3, bw, attraction, a-b-da, 5, 1, 3, 21, 132, 58, 60, 135, 135, 60, 1, 0.417098
285, 3, bw, attraction, a-b-db, 14, 1, 3, 22, 56, 125, 60, 135, 135, 60, 2, 3.60625
285, 3, bw, attraction, a-b-db, 14, 1, 3, 22, 56, 125, 60, 135, 135, 60, 1, 0.379702
285, 3, bw, catch, NA, 999, 999, 3, 23, 127, 68, 164, 91, 193, 122, 3, 0.666239
285, 3, bw, catch, NA, 999, 999, 3, 23, 127, 68, 164, 91, 193, 122, 1, 0.502722
285, 3, bw, attraction, a-b-da, 5, 2, 3, 24, 161, 88, 90, 165, 165, 90, 1, 0.856395
285, 3, bw, attraction, a-b-da, 5, 2, 3, 24, 161, 88, 90, 165, 165, 90, 2, 0.300941
285, 3, bw, filler, NA, 999, 999, 3, 25, 177, 162, 189, 148, 140, 101, 2, 1.55064
285, 3, bw, filler, NA, 999, 999, 3, 25, 177, 162, 189, 148, 140, 101, 3, 0.303447
285, 3, bw, filler, NA, 999, 999, 3, 26, 113, 86, 195, 117, 105, 132, 2, 0.609271
285, 3, bw, filler, NA, 999, 999, 3, 26, 113, 86, 195, 117, 105, 132, 1, 0.591794
285, 3, bw, attraction, a-b-da, 2, 2, 3, 27, 90, 165, 163, 89, 165, 90, 1, 1.15762
285, 3, bw, attraction, a-b-da, 2, 2, 3, 27, 90, 165, 163, 89, 165, 90, 2, 0.445881
285, 3, bw, filler, NA, 999, 999, 3, 28, 149, 60, 139, 190, 86, 181, 2, 0.577664
285, 3, bw, filler, NA, 999, 999, 3, 28, 149, 60, 139, 190, 86, 181, 1, 0.321409
285, 3, bw, filler, NA, 999, 999, 3, 29, 85, 80, 144, 70, 61, 120, 2, 1.07461
285, 3, bw, filler, NA, 999, 999, 3, 29, 85, 80, 144, 70, 61, 120, 1, 0.806323
285, 3, bw, attraction, a-b-da, 14, 1, 3, 30, 60, 135, 125, 56, 135, 60, 1, 2.31588
285, 3, bw, attraction, a-b-da, 14, 1, 3, 30, 60, 135, 125, 56, 135, 60, 2, 0.645857
285, 3, bw, attraction, a-b-db, 14, 2, 3, 31, 165, 90, 83, 153, 90, 165, 1, 1.52959
285, 3, bw, attraction, a-b-db, 14, 2, 3, 31, 165, 90, 83, 153, 90, 165, 2, 0.643076
285, 3, bw, attraction, a-b-db, 5, 3, 3, 32, 120, 195, 117, 190, 195, 120, 2, 1.07088
285, 3, bw, attraction, a-b-db, 5, 3, 3, 32, 120, 195, 117, 190, 195, 120, 1, 0.426439
285, 3, bw, attraction, a-b-db, 9, 3, 3, 33, 120, 195, 114, 186, 195, 120, 1, 2.24696
285, 3, bw, attraction, a-b-db, 9, 3, 3, 33, 120, 195, 114, 186, 195, 120, 2, 0.331438
285, 3, bw, attraction, a-b-da, 9, 3, 3, 34, 186, 114, 120, 195, 195, 120, 2, 1.8681
285, 3, bw, attraction, a-b-da, 9, 3, 3, 34, 186, 114, 120, 195, 195, 120, 1, 0.392254
285, 3, bw, filler, NA, 999, 999, 3, 35, 127, 179, 140, 73, 112, 84, 1, 1.30993
285, 3, bw, filler, NA, 999, 999, 3, 35, 127, 179, 140, 73, 112, 84, 3, 0.712236
285, 3, bw, catch, NA, 999, 999, 3, 36, 189, 126, 103, 152, 129, 66, 2, 1.82528
285, 3, bw, catch, NA, 999, 999, 3, 36, 189, 126, 103, 152, 129, 66, 3, 1.23066
285, 3, bw, attraction, a-b-da, 14, 2, 3, 37, 90, 165, 165, 90, 153, 83, 1, 1.1628
285, 3, bw, attraction, a-b-da, 14, 2, 3, 37, 90, 165, 165, 90, 153, 83, 2, 0.819167
285, 3, bw, filler, NA, 999, 999, 4, 1, 139, 77, 124, 113, 57, 115, 2, 0.912141
285, 3, bw, filler, NA, 999, 999, 4, 1, 139, 77, 124, 113, 57, 115, 3, 0.562442
285, 3, bw, attraction, a-b-db, 14, 2, 4, 2, 90, 165, 165, 90, 83, 153, 1, 4.12975
285, 3, bw, attraction, a-b-db, 14, 2, 4, 2, 90, 165, 165, 90, 83, 153, 3, 0.346291
285, 3, bw, attraction, a-b-da, 5, 3, 4, 3, 190, 117, 195, 120, 120, 195, 2, 1.16211
285, 3, bw, attraction, a-b-da, 5, 3, 4, 3, 190, 117, 195, 120, 120, 195, 1, 0.554437
285, 3, bw, attraction, a-b-da, 9, 2, 4, 4, 90, 165, 165, 90, 157, 86, 2, 0.882149
285, 3, bw, attraction, a-b-da, 9, 2, 4, 4, 90, 165, 165, 90, 157, 86, 3, 0.437792
285, 3, bw, attraction, a-b-da, 14, 2, 4, 5, 90, 165, 165, 90, 153, 83, 1, 1.42625
285, 3, bw, attraction, a-b-da, 14, 2, 4, 5, 90, 165, 165, 90, 153, 83, 3, 0.51179
285, 3, bw, attraction, a-b-da, 5, 1, 4, 6, 132, 58, 135, 60, 60, 135, 2, 0.808902
285, 3, bw, attraction, a-b-da, 5, 1, 4, 6, 132, 58, 135, 60, 60, 135, 1, 0.791291
285, 3, bw, filler, NA, 999, 999, 4, 7, 61, 119, 194, 104, 102, 121, 2, 0.445056
285, 3, bw, filler, NA, 999, 999, 4, 7, 61, 119, 194, 104, 102, 121, 1, 0.378203
285, 3, bw, attraction, a-b-db, 2, 2, 4, 8, 89, 163, 90, 165, 165, 90, 2, 0.712736
285, 3, bw, attraction, a-b-db, 2, 2, 4, 8, 89, 163, 90, 165, 165, 90, 3, 0.275117
285, 3, bw, filler, NA, 999, 999, 4, 9, 142, 169, 112, 140, 193, 98, 1, 1.81359
285, 3, bw, filler, NA, 999, 999, 4, 9, 142, 169, 112, 140, 193, 98, 2, 0.299606
285, 3, bw, attraction, a-b-da, 9, 1, 4, 10, 60, 135, 129, 57, 135, 60, 1, 1.08566
285, 3, bw, attraction, a-b-da, 9, 1, 4, 10, 60, 135, 129, 57, 135, 60, 2, 0.88135
285, 3, bw, catch, NA, 999, 999, 4, 11, 137, 178, 91, 104, 151, 104, 1, 0.747776
285, 3, bw, catch, NA, 999, 999, 4, 11, 137, 178, 91, 104, 151, 104, 2, 0.748601
285, 3, bw, filler, NA, 999, 999, 4, 12, 81, 84, 82, 189, 150, 162, 3, 0.940273
285, 3, bw, filler, NA, 999, 999, 4, 12, 81, 84, 82, 189, 150, 162, 1, 0.421426
285, 3, bw, attraction, a-b-da, 9, 3, 4, 13, 195, 120, 120, 195, 186, 114, 2, 5.25862
285, 3, bw, attraction, a-b-da, 9, 3, 4, 13, 195, 120, 120, 195, 186, 114, 1, 0.429527
285, 3, bw, attraction, a-b-da, 14, 3, 4, 14, 181, 111, 195, 120, 120, 195, 2, 1.42603
285, 3, bw, attraction, a-b-da, 14, 3, 4, 14, 181, 111, 195, 120, 120, 195, 1, 0.455433
285, 3, bw, attraction, a-b-db, 14, 1, 4, 15, 56, 125, 135, 60, 60, 135, 3, 1.03537
285, 3, bw, attraction, a-b-db, 14, 1, 4, 15, 56, 125, 135, 60, 60, 135, 2, 0.432997
285, 3, bw, catch, NA, 999, 999, 4, 16, 138, 177, 87, 108, 144, 111, 1, 1.98937
285, 3, bw, catch, NA, 999, 999, 4, 16, 138, 177, 87, 108, 144, 111, 3, 0.724041
285, 3, bw, attraction, a-b-db, 5, 1, 4, 17, 60, 135, 135, 60, 58, 132, 2, 1.39649
285, 3, bw, attraction, a-b-db, 5, 1, 4, 17, 60, 135, 135, 60, 58, 132, 1, 0.539407
285, 3, bw, attraction, a-b-db, 2, 3, 4, 18, 119, 193, 195, 120, 120, 195, 1, 2.3077
285, 3, bw, attraction, a-b-db, 2, 3, 4, 18, 119, 193, 195, 120, 120, 195, 3, 0.365632
285, 3, bw, attraction, a-b-db, 9, 1, 4, 19, 60, 135, 135, 60, 57, 129, 2, 0.724757
285, 3, bw, attraction, a-b-db, 9, 1, 4, 19, 60, 135, 135, 60, 57, 129, 1, 0.494509
285, 3, bw, attraction, a-b-da, 2, 1, 4, 20, 135, 60, 134, 59, 60, 135, 3, 1.75233
285, 3, bw, attraction, a-b-da, 2, 1, 4, 20, 135, 60, 134, 59, 60, 135, 1, 0.433078
285, 3, bw, attraction, a-b-da, 14, 1, 4, 21, 60, 135, 125, 56, 135, 60, 2, 2.30167
285, 3, bw, attraction, a-b-da, 14, 1, 4, 21, 60, 135, 125, 56, 135, 60, 3, 0.520146
285, 3, bw, attraction, a-b-db, 9, 2, 4, 22, 165, 90, 86, 157, 90, 165, 2, 2.59325
285, 3, bw, attraction, a-b-db, 9, 2, 4, 22, 165, 90, 86, 157, 90, 165, 1, 0.663775
285, 3, bw, attraction, a-b-db, 14, 3, 4, 23, 120, 195, 111, 181, 195, 120, 2, 0.562778
285, 3, bw, attraction, a-b-db, 14, 3, 4, 23, 120, 195, 111, 181, 195, 120, 3, 0.315309
285, 3, bw, filler, NA, 999, 999, 4, 24, 129, 166, 73, 68, 169, 188, 3, 0.964442
285, 3, bw, filler, NA, 999, 999, 4, 24, 129, 166, 73, 68, 169, 188, 2, 0.781002
285, 3, bw, attraction, a-b-da, 5, 2, 4, 25, 161, 88, 90, 165, 165, 90, 2, 1.53916
285, 3, bw, attraction, a-b-da, 5, 2, 4, 25, 161, 88, 90, 165, 165, 90, 1, 0.596056
285, 3, bw, attraction, a-b-da, 2, 3, 4, 26, 195, 120, 120, 195, 193, 119, 1, 2.35384
285, 3, bw, attraction, a-b-da, 2, 3, 4, 26, 195, 120, 120, 195, 193, 119, 3, 1.45841
285, 3, bw, filler, NA, 999, 999, 4, 27, 132, 125, 136, 148, 71, 83, 2, 1.04518
285, 3, bw, filler, NA, 999, 999, 4, 27, 132, 125, 136, 148, 71, 83, 3, 0.370157
285, 3, bw, attraction, a-b-da, 2, 2, 4, 28, 90, 165, 163, 89, 165, 90, 2, 0.649351
285, 3, bw, attraction, a-b-da, 2, 2, 4, 28, 90, 165, 163, 89, 165, 90, 3, 0.51041
285, 3, bw, filler, NA, 999, 999, 4, 29, 153, 151, 88, 138, 174, 172, 3, 0.943576
285, 3, bw, filler, NA, 999, 999, 4, 29, 153, 151, 88, 138, 174, 172, 2, 0.304683
285, 3, bw, filler, NA, 999, 999, 4, 30, 166, 165, 61, 175, 161, 62, 1, 0.75454
285, 3, bw, filler, NA, 999, 999, 4, 30, 166, 165, 61, 175, 161, 62, 2, 0.683448
285, 3, bw, catch, NA, 999, 999, 4, 31, 137, 118, 89, 106, 180, 135, 3, 1.55798
285, 3, bw, catch, NA, 999, 999, 4, 31, 137, 118, 89, 106, 180, 135, 2, 0.622014
285, 3, bw, filler, NA, 999, 999, 4, 32, 118, 102, 66, 135, 81, 195, 3, 0.611139
285, 3, bw, filler, NA, 999, 999, 4, 32, 118, 102, 66, 135, 81, 195, 2, 0.385548
285, 3, bw, filler, NA, 999, 999, 4, 33, 149, 62, 137, 160, 129, 166, 2, 1.82406
285, 3, bw, filler, NA, 999, 999, 4, 33, 149, 62, 137, 160, 129, 166, 1, 0.565493
285, 3, bw, attraction, a-b-db, 2, 1, 4, 34, 60, 135, 59, 134, 135, 60, 1, 2.16454
285, 3, bw, attraction, a-b-db, 2, 1, 4, 34, 60, 135, 59, 134, 135, 60, 2, 0.372613
285, 3, bw, attraction, a-b-db, 9, 3, 4, 35, 114, 186, 120, 195, 195, 120, 2, 2.30768
285, 3, bw, attraction, a-b-db, 9, 3, 4, 35, 114, 186, 120, 195, 195, 120, 1, 0.95753
285, 3, bw, attraction, a-b-db, 5, 2, 4, 36, 165, 90, 88, 161, 90, 165, 3, 2.29254
285, 3, bw, attraction, a-b-db, 5, 2, 4, 36, 165, 90, 88, 161, 90, 165, 2, 0.623174
285, 3, bw, attraction, a-b-db, 5, 3, 4, 37, 117, 190, 120, 195, 195, 120, 3, 1.24425
285, 3, bw, attraction, a-b-db, 5, 3, 4, 37, 117, 190, 120, 195, 195, 120, 2, 0.401155
285, 3, bw, filler, NA, 999, 999, 5, 1, 61, 96, 61, 75, 97, 85, 3, 1.99754
285, 3, bw, filler, NA, 999, 999, 5, 1, 61, 96, 61, 75, 97, 85, 2, 0.340346
285, 3, bw, filler, NA, 999, 999, 5, 2, 66, 87, 129, 91, 145, 118, 3, 0.796147
285, 3, bw, filler, NA, 999, 999, 5, 2, 66, 87, 129, 91, 145, 118, 1, 0.963204
285, 3, bw, filler, NA, 999, 999, 5, 3, 179, 76, 93, 153, 183, 108, 3, 1.10618
285, 3, bw, filler, NA, 999, 999, 5, 3, 179, 76, 93, 153, 183, 108, 2, 0.37243
285, 3, bw, attraction, a-b-db, 2, 2, 5, 4, 90, 165, 89, 163, 165, 90, 1, 2.45158
285, 3, bw, attraction, a-b-db, 2, 2, 5, 4, 90, 165, 89, 163, 165, 90, 2, 0.600219
285, 3, bw, attraction, a-b-db, 2, 3, 5, 5, 119, 193, 195, 120, 120, 195, 1, 1.66999
285, 3, bw, attraction, a-b-db, 2, 3, 5, 5, 119, 193, 195, 120, 120, 195, 2, 0.634088
285, 3, bw, catch, NA, 999, 999, 5, 6, 122, 73, 181, 134, 120, 135, 2, 1.36643
285, 3, bw, catch, NA, 999, 999, 5, 6, 122, 73, 181, 134, 120, 135, 1, 0.406615
285, 3, bw, attraction, a-b-db, 14, 1, 5, 7, 135, 60, 56, 125, 60, 135, 1, 0.843767
285, 3, bw, attraction, a-b-db, 14, 1, 5, 7, 135, 60, 56, 125, 60, 135, 2, 1.129
285, 3, bw, filler, NA, 999, 999, 5, 8, 100, 187, 96, 157, 176, 85, 2, 1.793
285, 3, bw, filler, NA, 999, 999, 5, 8, 100, 187, 96, 157, 176, 85, 3, 0.607745
285, 3, bw, attraction, a-b-db, 2, 1, 5, 9, 135, 60, 60, 135, 59, 134, 3, 1.38091
285, 3, bw, attraction, a-b-db, 2, 1, 5, 9, 135, 60, 60, 135, 59, 134, 2, 1.1564
285, 3, bw, attraction, a-b-da, 14, 3, 5, 10, 120, 195, 195, 120, 181, 111, 3, 1.77206
285, 3, bw, attraction, a-b-da, 14, 3, 5, 10, 120, 195, 195, 120, 181, 111, 1, 0.539507
285, 3, bw, attraction, a-b-db, 5, 2, 5, 11, 88, 161, 90, 165, 165, 90, 2, 1.61991
285, 3, bw, attraction, a-b-db, 5, 2, 5, 11, 88, 161, 90, 165, 165, 90, 3, 0.498019
285, 3, bw, attraction, a-b-db, 9, 1, 5, 12, 57, 129, 135, 60, 60, 135, 2, 0.971875
285, 3, bw, attraction, a-b-db, 9, 1, 5, 12, 57, 129, 135, 60, 60, 135, 1, 0.691441
285, 3, bw, attraction, a-b-db, 14, 2, 5, 13, 90, 165, 83, 153, 165, 90, 3, 1.70921
285, 3, bw, attraction, a-b-db, 14, 2, 5, 13, 90, 165, 83, 153, 165, 90, 2, 0.527474
285, 3, bw, catch, NA, 999, 999, 5, 14, 138, 177, 124, 131, 60, 135, 1, 1.71991
285, 3, bw, catch, NA, 999, 999, 5, 14, 138, 177, 124, 131, 60, 135, 2, 0.489878
285, 3, bw, filler, NA, 999, 999, 5, 15, 137, 132, 120, 109, 75, 58, 1, 0.876307
285, 3, bw, filler, NA, 999, 999, 5, 15, 137, 132, 120, 109, 75, 58, 3, 1.21603
285, 3, bw, attraction, a-b-db, 14, 3, 5, 16, 120, 195, 195, 120, 111, 181, 1, 1.8289
285, 3, bw, attraction, a-b-db, 14, 3, 5, 16, 120, 195, 195, 120, 111, 181, 3, 0.602425
285, 3, bw, attraction, a-b-db, 5, 3, 5, 17, 117, 190, 120, 195, 195, 120, 2, 2.25606
285, 3, bw, attraction, a-b-db, 5, 3, 5, 17, 117, 190, 120, 195, 195, 120, 1, 0.483949
285, 3, bw, attraction, a-b-da, 14, 1, 5, 18, 125, 56, 135, 60, 60, 135, 1, 1.12645
285, 3, bw, attraction, a-b-da, 14, 1, 5, 18, 125, 56, 135, 60, 60, 135, 2, 0.640134
285, 3, bw, attraction, a-b-da, 2, 2, 5, 19, 165, 90, 163, 89, 90, 165, 2, 0.971839
285, 3, bw, attraction, a-b-da, 2, 2, 5, 19, 165, 90, 163, 89, 90, 165, 1, 0.547551
285, 3, bw, filler, NA, 999, 999, 5, 20, 58, 142, 90, 97, 59, 91, 2, 1.73124
285, 3, bw, filler, NA, 999, 999, 5, 20, 58, 142, 90, 97, 59, 91, 3, 1.96468
285, 3, bw, filler, NA, 999, 999, 5, 21, 81, 64, 144, 159, 156, 195, 3, 1.96326
285, 3, bw, filler, NA, 999, 999, 5, 21, 81, 64, 144, 159, 156, 195, 1, 0.69942
285, 3, bw, filler, NA, 999, 999, 5, 22, 182, 134, 94, 144, 194, 109, 1, 1.51723
285, 3, bw, filler, NA, 999, 999, 5, 22, 182, 134, 94, 144, 194, 109, 2, 0.623216
285, 3, bw, attraction, a-b-db, 9, 2, 5, 23, 165, 90, 86, 157, 90, 165, 1, 5.24452
285, 3, bw, attraction, a-b-db, 9, 2, 5, 23, 165, 90, 86, 157, 90, 165, 2, 0.399983
285, 3, bw, filler, NA, 999, 999, 5, 24, 101, 142, 75, 78, 90, 74, 1, 1.35782
285, 3, bw, filler, NA, 999, 999, 5, 24, 101, 142, 75, 78, 90, 74, 2, 0.677984
285, 3, bw, attraction, a-b-db, 9, 3, 5, 25, 114, 186, 120, 195, 195, 120, 2, 1.19249
285, 3, bw, attraction, a-b-db, 9, 3, 5, 25, 114, 186, 120, 195, 195, 120, 1, 0.503348
285, 3, bw, attraction, a-b-da, 9, 1, 5, 26, 135, 60, 129, 57, 60, 135, 2, 3.96118
285, 3, bw, attraction, a-b-da, 9, 1, 5, 26, 135, 60, 129, 57, 60, 135, 3, 0.496621
285, 3, bw, attraction, a-b-da, 2, 3, 5, 27, 195, 120, 193, 119, 120, 195, 2, 4.10632
285, 3, bw, attraction, a-b-da, 2, 3, 5, 27, 195, 120, 193, 119, 120, 195, 3, 0.331854
285, 3, bw, attraction, a-b-da, 9, 2, 5, 28, 90, 165, 157, 86, 165, 90, 2, 1.74819
285, 3, bw, attraction, a-b-da, 9, 2, 5, 28, 90, 165, 157, 86, 165, 90, 1, 0.548928
285, 3, bw, attraction, a-b-da, 5, 1, 5, 29, 135, 60, 132, 58, 60, 135, 1, 1.03666
285, 3, bw, attraction, a-b-da, 5, 1, 5, 29, 135, 60, 132, 58, 60, 135, 2, 0.410314
285, 3, bw, attraction, a-b-da, 5, 3, 5, 30, 120, 195, 190, 117, 195, 120, 1, 1.7516
285, 3, bw, attraction, a-b-da, 5, 3, 5, 30, 120, 195, 190, 117, 195, 120, 2, 0.584328
285, 3, bw, filler, NA, 999, 999, 5, 31, 127, 67, 136, 72, 159, 111, 3, 0.662668
285, 3, bw, filler, NA, 999, 999, 5, 31, 127, 67, 136, 72, 159, 111, 2, 0.419217
285, 3, bw, attraction, a-b-da, 2, 1, 5, 32, 134, 59, 60, 135, 135, 60, 1, 1.2484
285, 3, bw, attraction, a-b-da, 2, 1, 5, 32, 134, 59, 60, 135, 135, 60, 2, 0.645289
285, 3, bw, attraction, a-b-db, 5, 1, 5, 33, 58, 132, 135, 60, 60, 135, 1, 2.29707
285, 3, bw, attraction, a-b-db, 5, 1, 5, 33, 58, 132, 135, 60, 60, 135, 2, 0.595522
285, 3, bw, attraction, a-b-da, 14, 2, 5, 34, 165, 90, 90, 165, 153, 83, 1, 1.28138
285, 3, bw, attraction, a-b-da, 14, 2, 5, 34, 165, 90, 90, 165, 153, 83, 3, 0.756867
285, 3, bw, attraction, a-b-da, 9, 3, 5, 35, 195, 120, 186, 114, 120, 195, 1, 0.979899
285, 3, bw, attraction, a-b-da, 9, 3, 5, 35, 195, 120, 186, 114, 120, 195, 3, 1.98766
285, 3, bw, catch, NA, 999, 999, 5, 36, 115, 140, 192, 123, 71, 124, 1, 2.45765
285, 3, bw, catch, NA, 999, 999, 5, 36, 115, 140, 192, 123, 71, 124, 3, 0.645437
285, 3, bw, attraction, a-b-da, 5, 2, 5, 37, 165, 90, 90, 165, 161, 88, 1, 0.905169
285, 3, bw, attraction, a-b-da, 5, 2, 5, 37, 165, 90, 90, 165, 161, 88, 2, 0.715505
285, 3, bw, attraction, a-b-da, 14, 3, 6, 1, 195, 120, 181, 111, 120, 195, 1, 0.660535
285, 3, bw, attraction, a-b-da, 14, 3, 6, 1, 195, 120, 181, 111, 120, 195, 2, 0.568968
285, 3, bw, filler, NA, 999, 999, 6, 2, 132, 172, 156, 149, 120, 150, 3, 0.984087
285, 3, bw, filler, NA, 999, 999, 6, 2, 132, 172, 156, 149, 120, 150, 2, 1.22382
285, 3, bw, attraction, a-b-db, 2, 1, 6, 3, 59, 134, 60, 135, 135, 60, 1, 2.17194
285, 3, bw, attraction, a-b-db, 2, 1, 6, 3, 59, 134, 60, 135, 135, 60, 2, 0.779301
285, 3, bw, filler, NA, 999, 999, 6, 4, 63, 157, 90, 171, 115, 122, 3, 1.23378
285, 3, bw, filler, NA, 999, 999, 6, 4, 63, 157, 90, 171, 115, 122, 1, 1.19937
285, 3, bw, attraction, a-b-db, 2, 2, 6, 5, 165, 90, 90, 165, 89, 163, 1, 6.64481
285, 3, bw, attraction, a-b-db, 2, 2, 6, 5, 165, 90, 90, 165, 89, 163, 2, 0.440037
285, 3, bw, attraction, a-b-da, 5, 3, 6, 6, 190, 117, 195, 120, 120, 195, 3, 1.13195
285, 3, bw, attraction, a-b-da, 5, 3, 6, 6, 190, 117, 195, 120, 120, 195, 2, 0.669451
285, 3, bw, attraction, a-b-db, 14, 3, 6, 7, 111, 181, 195, 120, 120, 195, 3, 1.45652
285, 3, bw, attraction, a-b-db, 14, 3, 6, 7, 111, 181, 195, 120, 120, 195, 1, 0.596692
285, 3, bw, attraction, a-b-db, 14, 1, 6, 8, 56, 125, 135, 60, 60, 135, 3, 1.25853
285, 3, bw, attraction, a-b-db, 14, 1, 6, 8, 56, 125, 135, 60, 60, 135, 2, 0.550681
285, 3, bw, catch, NA, 999, 999, 6, 9, 125, 190, 159, 96, 130, 65, 1, 0.958599
285, 3, bw, catch, NA, 999, 999, 6, 9, 125, 190, 159, 96, 130, 65, 3, 0.78299
285, 3, bw, filler, NA, 999, 999, 6, 10, 95, 158, 73, 67, 73, 120, 1, 0.773147
285, 3, bw, filler, NA, 999, 999, 6, 10, 95, 158, 73, 67, 73, 120, 2, 0.620926
285, 3, bw, catch, NA, 999, 999, 6, 11, 84, 111, 141, 174, 164, 91, 2, 1.16199
285, 3, bw, catch, NA, 999, 999, 6, 11, 84, 111, 141, 174, 164, 91, 1, 0.842371
285, 3, bw, filler, NA, 999, 999, 6, 12, 62, 144, 172, 94, 105, 94, 2, 2.01395
285, 3, bw, filler, NA, 999, 999, 6, 12, 62, 144, 172, 94, 105, 94, 3, 0.676018
285, 3, bw, attraction, a-b-da, 5, 1, 6, 13, 135, 60, 60, 135, 132, 58, 2, 4.26233
285, 3, bw, attraction, a-b-da, 5, 1, 6, 13, 135, 60, 60, 135, 132, 58, 1, 0.809597
285, 3, bw, attraction, a-b-db, 9, 1, 6, 14, 60, 135, 135, 60, 57, 129, 2, 2.96673
285, 3, bw, attraction, a-b-db, 9, 1, 6, 14, 60, 135, 135, 60, 57, 129, 1, 0.678343
285, 3, bw, filler, NA, 999, 999, 6, 15, 101, 179, 93, 147, 61, 161, 1, 1.19283
285, 3, bw, filler, NA, 999, 999, 6, 15, 101, 179, 93, 147, 61, 161, 3, 0.40779
285, 3, bw, attraction, a-b-da, 2, 3, 6, 16, 120, 195, 193, 119, 195, 120, 1, 1.00499
285, 3, bw, attraction, a-b-da, 2, 3, 6, 16, 120, 195, 193, 119, 195, 120, 3, 0.323848
285, 3, bw, attraction, a-b-da, 2, 1, 6, 17, 135, 60, 134, 59, 60, 135, 1, 0.900315
285, 3, bw, attraction, a-b-da, 2, 1, 6, 17, 135, 60, 134, 59, 60, 135, 2, 0.967513
285, 3, bw, attraction, a-b-da, 2, 2, 6, 18, 90, 165, 165, 90, 163, 89, 1, 1.17437
285, 3, bw, attraction, a-b-da, 2, 2, 6, 18, 90, 165, 165, 90, 163, 89, 3, 0.373966
285, 3, bw, filler, NA, 999, 999, 6, 19, 141, 79, 174, 159, 90, 183, 2, 0.692409
285, 3, bw, filler, NA, 999, 999, 6, 19, 141, 79, 174, 159, 90, 183, 1, 0.336098
285, 3, bw, attraction, a-b-db, 9, 3, 6, 20, 114, 186, 120, 195, 195, 120, 1, 0.69613
285, 3, bw, attraction, a-b-db, 9, 3, 6, 20, 114, 186, 120, 195, 195, 120, 3, 0.315086
285, 3, bw, attraction, a-b-da, 5, 2, 6, 21, 90, 165, 165, 90, 161, 88, 1, 0.76433
285, 3, bw, attraction, a-b-da, 5, 2, 6, 21, 90, 165, 165, 90, 161, 88, 3, 0.308732
285, 3, bw, attraction, a-b-db, 5, 2, 6, 22, 165, 90, 88, 161, 90, 165, 2, 1.0779
285, 3, bw, attraction, a-b-db, 5, 2, 6, 22, 165, 90, 88, 161, 90, 165, 3, 0.297505
285, 3, bw, attraction, a-b-da, 9, 1, 6, 23, 60, 135, 129, 57, 135, 60, 1, 0.643368
285, 3, bw, attraction, a-b-da, 9, 1, 6, 23, 60, 135, 129, 57, 135, 60, 2, 0.712441
285, 3, bw, filler, NA, 999, 999, 6, 24, 68, 85, 157, 185, 84, 74, 2, 1.7537
285, 3, bw, filler, NA, 999, 999, 6, 24, 68, 85, 157, 185, 84, 74, 1, 0.530323
285, 3, bw, attraction, a-b-db, 5, 3, 6, 25, 195, 120, 120, 195, 117, 190, 2, 1.81068
285, 3, bw, attraction, a-b-db, 5, 3, 6, 25, 195, 120, 120, 195, 117, 190, 1, 0.408762
285, 3, bw, attraction, a-b-db, 5, 1, 6, 26, 135, 60, 58, 132, 60, 135, 1, 0.637943
285, 3, bw, attraction, a-b-db, 5, 1, 6, 26, 135, 60, 58, 132, 60, 135, 2, 0.610993
285, 3, bw, filler, NA, 999, 999, 6, 27, 101, 140, 126, 125, 145, 91, 2, 2.88019
285, 3, bw, filler, NA, 999, 999, 6, 27, 101, 140, 126, 125, 145, 91, 1, 0.404168
285, 3, bw, filler, NA, 999, 999, 6, 28, 142, 136, 140, 93, 112, 132, 1, 0.888928
285, 3, bw, filler, NA, 999, 999, 6, 28, 142, 136, 140, 93, 112, 132, 2, 0.340042
285, 3, bw, attraction, a-b-db, 14, 2, 6, 29, 83, 153, 165, 90, 90, 165, 3, 2.92389
285, 3, bw, attraction, a-b-db, 14, 2, 6, 29, 83, 153, 165, 90, 90, 165, 1, 0.604977
285, 3, bw, attraction, a-b-da, 14, 1, 6, 30, 125, 56, 60, 135, 135, 60, 2, 1.80265
285, 3, bw, attraction, a-b-da, 14, 1, 6, 30, 125, 56, 60, 135, 135, 60, 1, 0.417419
285, 3, bw, filler, NA, 999, 999, 6, 31, 108, 173, 169, 123, 72, 160, 2, 1.97455
285, 3, bw, filler, NA, 999, 999, 6, 31, 108, 173, 169, 123, 72, 160, 1, 0.253961
285, 3, bw, attraction, a-b-da, 14, 2, 6, 32, 153, 83, 165, 90, 90, 165, 3, 1.80987
285, 3, bw, attraction, a-b-da, 14, 2, 6, 32, 153, 83, 165, 90, 90, 165, 1, 1.72802
285, 3, bw, catch, NA, 999, 999, 6, 33, 191, 124, 98, 97, 153, 102, 1, 0.880016
285, 3, bw, catch, NA, 999, 999, 6, 33, 191, 124, 98, 97, 153, 102, 2, 0.883717
285, 3, bw, attraction, a-b-da, 9, 3, 6, 34, 120, 195, 186, 114, 195, 120, 1, 1.86208
285, 3, bw, attraction, a-b-da, 9, 3, 6, 34, 120, 195, 186, 114, 195, 120, 2, 0.930155
285, 3, bw, attraction, a-b-da, 9, 2, 6, 35, 165, 90, 90, 165, 157, 86, 1, 2.73839
285, 3, bw, attraction, a-b-da, 9, 2, 6, 35, 165, 90, 90, 165, 157, 86, 3, 0.459516
285, 3, bw, attraction, a-b-db, 2, 3, 6, 36, 195, 120, 120, 195, 119, 193, 2, 2.71068
285, 3, bw, attraction, a-b-db, 2, 3, 6, 36, 195, 120, 120, 195, 119, 193, 1, 0.976403
285, 3, bw, attraction, a-b-db, 9, 2, 6, 37, 90, 165, 86, 157, 165, 90, 1, 1.2949
285, 3, bw, attraction, a-b-db, 9, 2, 6, 37, 90, 165, 86, 157, 165, 90, 3, 1.20977
285, 3, bw, catch, NA, 999, 999, 7, 1, 125, 130, 88, 107, 129, 186, 3, 1.55052
285, 3, bw, catch, NA, 999, 999, 7, 1, 125, 130, 88, 107, 129, 186, 2, 0.567304
285, 3, bw, attraction, a-b-db, 2, 2, 7, 2, 165, 90, 89, 163, 90, 165, 1, 1.64639
285, 3, bw, attraction, a-b-db, 2, 2, 7, 2, 165, 90, 89, 163, 90, 165, 2, 0.507392
285, 3, bw, attraction, a-b-da, 14, 2, 7, 3, 153, 83, 90, 165, 165, 90, 2, 2.18834
285, 3, bw, attraction, a-b-da, 14, 2, 7, 3, 153, 83, 90, 165, 165, 90, 1, 0.731155
285, 3, bw, attraction, a-b-db, 14, 1, 7, 4, 135, 60, 56, 125, 60, 135, 2, 5.08331
285, 3, bw, attraction, a-b-db, 14, 1, 7, 4, 135, 60, 56, 125, 60, 135, 1, 0.517926
285, 3, bw, attraction, a-b-da, 14, 1, 7, 5, 135, 60, 60, 135, 125, 56, 1, 1.93486
285, 3, bw, attraction, a-b-da, 14, 1, 7, 5, 135, 60, 60, 135, 125, 56, 3, 0.792379
285, 3, bw, attraction, a-b-db, 9, 3, 7, 6, 120, 195, 114, 186, 195, 120, 3, 3.34192
285, 3, bw, attraction, a-b-db, 9, 3, 7, 6, 120, 195, 114, 186, 195, 120, 2, 0.782145
285, 3, bw, attraction, a-b-db, 9, 1, 7, 7, 135, 60, 57, 129, 60, 135, 1, 8.61272
285, 3, bw, attraction, a-b-db, 9, 1, 7, 7, 135, 60, 57, 129, 60, 135, 2, 0.472442
285, 3, bw, attraction, a-b-db, 2, 1, 7, 8, 60, 135, 59, 134, 135, 60, 1, 1.87574
285, 3, bw, attraction, a-b-db, 2, 1, 7, 8, 60, 135, 59, 134, 135, 60, 2, 0.550962
285, 3, bw, filler, NA, 999, 999, 7, 9, 187, 190, 175, 149, 90, 150, 1, 2.17489
285, 3, bw, filler, NA, 999, 999, 7, 9, 187, 190, 175, 149, 90, 150, 3, 0.549987
285, 3, bw, filler, NA, 999, 999, 7, 10, 179, 108, 105, 74, 108, 174, 3, 1.96587
285, 3, bw, filler, NA, 999, 999, 7, 10, 179, 108, 105, 74, 108, 174, 2, 0.597884
285, 3, bw, filler, NA, 999, 999, 7, 11, 130, 138, 129, 174, 164, 158, 2, 1.77157
285, 3, bw, filler, NA, 999, 999, 7, 11, 130, 138, 129, 174, 164, 158, 1, 0.443701
285, 3, bw, filler, NA, 999, 999, 7, 12, 177, 119, 178, 78, 168, 164, 3, 0.791489
285, 3, bw, filler, NA, 999, 999, 7, 12, 177, 119, 178, 78, 168, 164, 2, 0.406537
285, 3, bw, filler, NA, 999, 999, 7, 13, 74, 124, 89, 87, 85, 162, 3, 0.635691
285, 3, bw, filler, NA, 999, 999, 7, 13, 74, 124, 89, 87, 85, 162, 2, 0.537452
285, 3, bw, filler, NA, 999, 999, 7, 14, 107, 116, 99, 111, 115, 148, 3, 0.593891
285, 3, bw, filler, NA, 999, 999, 7, 14, 107, 116, 99, 111, 115, 148, 2, 0.440962
285, 3, bw, catch, NA, 999, 999, 7, 15, 132, 123, 192, 123, 111, 84, 2, 0.916934
285, 3, bw, catch, NA, 999, 999, 7, 15, 132, 123, 192, 123, 111, 84, 3, 0.535136
285, 3, bw, filler, NA, 999, 999, 7, 16, 187, 151, 102, 162, 173, 176, 3, 1.5676
285, 3, bw, filler, NA, 999, 999, 7, 16, 187, 151, 102, 162, 173, 176, 2, 0.463809
285, 3, bw, attraction, a-b-da, 2, 2, 7, 17, 163, 89, 90, 165, 165, 90, 2, 1.12283
285, 3, bw, attraction, a-b-da, 2, 2, 7, 17, 163, 89, 90, 165, 165, 90, 1, 0.436511
285, 3, bw, catch, NA, 999, 999, 7, 18, 104, 91, 160, 95, 133, 182, 3, 0.768953
285, 3, bw, catch, NA, 999, 999, 7, 18, 104, 91, 160, 95, 133, 182, 2, 0.377377
285, 3, bw, attraction, a-b-da, 5, 2, 7, 19, 165, 90, 90, 165, 161, 88, 2, 0.863917
285, 3, bw, attraction, a-b-da, 5, 2, 7, 19, 165, 90, 90, 165, 161, 88, 1, 0.500187
285, 3, bw, attraction, a-b-da, 9, 2, 7, 20, 90, 165, 165, 90, 157, 86, 1, 0.886099
285, 3, bw, attraction, a-b-da, 9, 2, 7, 20, 90, 165, 165, 90, 157, 86, 2, 0.417703
285, 3, bw, attraction, a-b-da, 5, 1, 7, 21, 132, 58, 60, 135, 135, 60, 2, 1.51092
285, 3, bw, attraction, a-b-da, 5, 1, 7, 21, 132, 58, 60, 135, 135, 60, 1, 1.39299
285, 3, bw, attraction, a-b-db, 5, 1, 7, 22, 60, 135, 135, 60, 58, 132, 1, 1.20651
285, 3, bw, attraction, a-b-db, 5, 1, 7, 22, 60, 135, 135, 60, 58, 132, 2, 0.524825
285, 3, bw, attraction, a-b-da, 5, 3, 7, 23, 120, 195, 190, 117, 195, 120, 3, 2.3013
285, 3, bw, attraction, a-b-da, 5, 3, 7, 23, 120, 195, 190, 117, 195, 120, 2, 0.511837
285, 3, bw, attraction, a-b-db, 14, 2, 7, 24, 90, 165, 83, 153, 165, 90, 1, 2.17696
285, 3, bw, attraction, a-b-db, 14, 2, 7, 24, 90, 165, 83, 153, 165, 90, 3, 1.27226
285, 3, bw, attraction, a-b-db, 9, 2, 7, 25, 86, 157, 165, 90, 90, 165, 3, 2.16321
285, 3, bw, attraction, a-b-db, 9, 2, 7, 25, 86, 157, 165, 90, 90, 165, 1, 0.92321
285, 3, bw, attraction, a-b-da, 9, 1, 7, 26, 135, 60, 129, 57, 60, 135, 1, 9.97616
285, 3, bw, attraction, a-b-da, 9, 1, 7, 26, 135, 60, 129, 57, 60, 135, 3, 0.936929
285, 3, bw, attraction, a-b-db, 5, 2, 7, 27, 90, 165, 88, 161, 165, 90, 1, 5.30536
285, 3, bw, attraction, a-b-db, 5, 2, 7, 27, 90, 165, 88, 161, 165, 90, 3, 0.88219
285, 3, bw, filler, NA, 999, 999, 7, 28, 125, 70, 140, 72, 63, 191, 3, 2.33265
285, 3, bw, filler, NA, 999, 999, 7, 28, 125, 70, 140, 72, 63, 191, 1, 0.573835
285, 3, bw, attraction, a-b-db, 14, 3, 7, 29, 120, 195, 195, 120, 111, 181, 3, 4.38826
285, 3, bw, attraction, a-b-db, 14, 3, 7, 29, 120, 195, 195, 120, 111, 181, 1, 1.19489
285, 3, bw, attraction, a-b-da, 2, 1, 7, 30, 135, 60, 60, 135, 134, 59, 1, 1.77645
285, 3, bw, attraction, a-b-da, 2, 1, 7, 30, 135, 60, 60, 135, 134, 59, 3, 0.576007
285, 3, bw, attraction, a-b-da, 14, 3, 7, 31, 181, 111, 120, 195, 195, 120, 1, 2.15021
285, 3, bw, attraction, a-b-da, 14, 3, 7, 31, 181, 111, 120, 195, 195, 120, 3, 0.775003
285, 3, bw, attraction, a-b-da, 2, 3, 7, 32, 195, 120, 120, 195, 193, 119, 1, 1.34927
285, 3, bw, attraction, a-b-da, 2, 3, 7, 32, 195, 120, 120, 195, 193, 119, 3, 0.438167
285, 3, bw, filler, NA, 999, 999, 7, 33, 193, 84, 191, 67, 77, 181, 1, 0.826576
285, 3, bw, filler, NA, 999, 999, 7, 33, 193, 84, 191, 67, 77, 181, 3, 0.384324
285, 3, bw, attraction, a-b-db, 2, 3, 7, 34, 195, 120, 120, 195, 119, 193, 2, 3.04684
285, 3, bw, attraction, a-b-db, 2, 3, 7, 34, 195, 120, 120, 195, 119, 193, 1, 0.451153
285, 3, bw, attraction, a-b-da, 9, 3, 7, 35, 120, 195, 195, 120, 186, 114, 1, 1.47096
285, 3, bw, attraction, a-b-da, 9, 3, 7, 35, 120, 195, 195, 120, 186, 114, 3, 0.32327
285, 3, bw, filler, NA, 999, 999, 7, 36, 181, 106, 83, 181, 89, 85, 1, 1.17169
285, 3, bw, filler, NA, 999, 999, 7, 36, 181, 106, 83, 181, 89, 85, 3, 0.563221
285, 3, bw, attraction, a-b-db, 5, 3, 7, 37, 195, 120, 117, 190, 120, 195, 1, 2.73853
285, 3, bw, attraction, a-b-db, 5, 3, 7, 37, 195, 120, 117, 190, 120, 195, 3, 0.555113
285, 3, bw, attraction, a-b-da, 9, 2, 8, 1, 157, 86, 90, 165, 165, 90, 3, 1.92264
285, 3, bw, attraction, a-b-da, 9, 2, 8, 1, 157, 86, 90, 165, 165, 90, 1, 0.627966
285, 3, bw, catch, NA, 999, 999, 8, 2, 120, 195, 131, 64, 137, 118, 3, 3.06428
285, 3, bw, catch, NA, 999, 999, 8, 2, 120, 195, 131, 64, 137, 118, 1, 0.404055
285, 3, bw, attraction, a-b-da, 5, 3, 8, 3, 195, 120, 190, 117, 120, 195, 3, 3.36999
285, 3, bw, attraction, a-b-da, 5, 3, 8, 3, 195, 120, 190, 117, 120, 195, 1, 0.505458
285, 3, bw, attraction, a-b-db, 14, 3, 8, 4, 111, 181, 195, 120, 120, 195, 3, 1.11528
285, 3, bw, attraction, a-b-db, 14, 3, 8, 4, 111, 181, 195, 120, 120, 195, 2, 0.74953
285, 3, bw, filler, NA, 999, 999, 8, 5, 70, 90, 107, 150, 129, 165, 3, 1.37322
285, 3, bw, filler, NA, 999, 999, 8, 5, 70, 90, 107, 150, 129, 165, 1, 1.14082
285, 3, bw, filler, NA, 999, 999, 8, 6, 161, 137, 85, 69, 130, 70, 1, 1.06843
285, 3, bw, filler, NA, 999, 999, 8, 6, 161, 137, 85, 69, 130, 70, 2, 0.80089
285, 3, bw, attraction, a-b-db, 14, 1, 8, 7, 135, 60, 56, 125, 60, 135, 1, 0.982321
285, 3, bw, attraction, a-b-db, 14, 1, 8, 7, 135, 60, 56, 125, 60, 135, 2, 0.42996
285, 3, bw, attraction, a-b-db, 9, 2, 8, 8, 165, 90, 90, 165, 86, 157, 2, 1.06649
285, 3, bw, attraction, a-b-db, 9, 2, 8, 8, 165, 90, 90, 165, 86, 157, 3, 0.542806
285, 3, bw, attraction, a-b-db, 5, 1, 8, 9, 58, 132, 60, 135, 135, 60, 1, 1.29469
285, 3, bw, attraction, a-b-db, 5, 1, 8, 9, 58, 132, 60, 135, 135, 60, 3, 0.809466
285, 3, bw, attraction, a-b-da, 5, 2, 8, 10, 165, 90, 90, 165, 161, 88, 2, 1.2626
285, 3, bw, attraction, a-b-da, 5, 2, 8, 10, 165, 90, 90, 165, 161, 88, 1, 0.602731
285, 3, bw, attraction, a-b-db, 9, 1, 8, 11, 60, 135, 57, 129, 135, 60, 3, 1.09654
285, 3, bw, attraction, a-b-db, 9, 1, 8, 11, 60, 135, 57, 129, 135, 60, 2, 0.531477
285, 3, bw, attraction, a-b-db, 2, 2, 8, 12, 89, 163, 90, 165, 165, 90, 1, 1.2839
285, 3, bw, attraction, a-b-db, 2, 2, 8, 12, 89, 163, 90, 165, 165, 90, 3, 0.703558
285, 3, bw, filler, NA, 999, 999, 8, 13, 150, 84, 122, 149, 172, 57, 2, 0.705108
285, 3, bw, filler, NA, 999, 999, 8, 13, 150, 84, 122, 149, 172, 57, 3, 0.643746
285, 3, bw, attraction, a-b-db, 9, 3, 8, 14, 114, 186, 120, 195, 195, 120, 2, 2.01532
285, 3, bw, attraction, a-b-db, 9, 3, 8, 14, 114, 186, 120, 195, 195, 120, 1, 0.733317
285, 3, bw, attraction, a-b-da, 2, 3, 8, 15, 195, 120, 120, 195, 193, 119, 2, 0.661731
285, 3, bw, attraction, a-b-da, 2, 3, 8, 15, 195, 120, 120, 195, 193, 119, 3, 0.386134
285, 3, bw, attraction, a-b-da, 2, 1, 8, 16, 134, 59, 135, 60, 60, 135, 2, 1.12074
285, 3, bw, attraction, a-b-da, 2, 1, 8, 16, 134, 59, 135, 60, 60, 135, 3, 0.578872
285, 3, bw, attraction, a-b-da, 5, 1, 8, 17, 135, 60, 60, 135, 132, 58, 1, 0.865484
285, 3, bw, attraction, a-b-da, 5, 1, 8, 17, 135, 60, 60, 135, 132, 58, 2, 1.05381
285, 3, bw, attraction, a-b-db, 2, 3, 8, 18, 195, 120, 120, 195, 119, 193, 3, 0.873384
285, 3, bw, attraction, a-b-db, 2, 3, 8, 18, 195, 120, 120, 195, 119, 193, 2, 0.669069
285, 3, bw, attraction, a-b-db, 5, 2, 8, 19, 90, 165, 88, 161, 165, 90, 1, 1.73608
285, 3, bw, attraction, a-b-db, 5, 2, 8, 19, 90, 165, 88, 161, 165, 90, 3, 1.1297
285, 3, bw, filler, NA, 999, 999, 8, 20, 166, 136, 162, 71, 100, 57, 1, 3.51376
285, 3, bw, filler, NA, 999, 999, 8, 20, 166, 136, 162, 71, 100, 57, 3, 2.0514
285, 3, bw, attraction, a-b-da, 14, 3, 8, 21, 181, 111, 120, 195, 195, 120, 3, 1.82258
285, 3, bw, attraction, a-b-da, 14, 3, 8, 21, 181, 111, 120, 195, 195, 120, 1, 0.660007
285, 3, bw, attraction, a-b-da, 14, 2, 8, 22, 153, 83, 90, 165, 165, 90, 1, 3.38322
285, 3, bw, attraction, a-b-da, 14, 2, 8, 22, 153, 83, 90, 165, 165, 90, 2, 1.27805
285, 3, bw, filler, NA, 999, 999, 8, 23, 103, 181, 177, 183, 151, 81, 2, 0.80823
285, 3, bw, filler, NA, 999, 999, 8, 23, 103, 181, 177, 183, 151, 81, 3, 0.606659
285, 3, bw, attraction, a-b-da, 14, 1, 8, 24, 125, 56, 60, 135, 135, 60, 1, 0.683793
285, 3, bw, attraction, a-b-da, 14, 1, 8, 24, 125, 56, 60, 135, 135, 60, 2, 2.50353
285, 3, bw, attraction, a-b-da, 2, 2, 8, 25, 165, 90, 163, 89, 90, 165, 1, 1.45668
285, 3, bw, attraction, a-b-da, 2, 2, 8, 25, 165, 90, 163, 89, 90, 165, 3, 0.436816
285, 3, bw, filler, NA, 999, 999, 8, 26, 168, 180, 186, 91, 79, 76, 1, 0.801255
285, 3, bw, filler, NA, 999, 999, 8, 26, 168, 180, 186, 91, 79, 76, 3, 0.544441
285, 3, bw, attraction, a-b-da, 9, 1, 8, 27, 60, 135, 129, 57, 135, 60, 1, 1.37615
285, 3, bw, attraction, a-b-da, 9, 1, 8, 27, 60, 135, 129, 57, 135, 60, 3, 0.54377
285, 3, bw, attraction, a-b-db, 5, 3, 8, 28, 195, 120, 120, 195, 117, 190, 2, 1.54357
285, 3, bw, attraction, a-b-db, 5, 3, 8, 28, 195, 120, 120, 195, 117, 190, 3, 0.424517
285, 3, bw, catch, NA, 999, 999, 8, 29, 170, 145, 110, 85, 125, 130, 3, 1.35685
285, 3, bw, catch, NA, 999, 999, 8, 29, 170, 145, 110, 85, 125, 130, 2, 0.485504
285, 3, bw, filler, NA, 999, 999, 8, 30, 70, 188, 125, 113, 82, 121, 2, 0.919343
285, 3, bw, filler, NA, 999, 999, 8, 30, 70, 188, 125, 113, 82, 121, 3, 0.44976
285, 3, bw, filler, NA, 999, 999, 8, 31, 134, 91, 148, 78, 115, 154, 3, 0.629755
285, 3, bw, filler, NA, 999, 999, 8, 31, 134, 91, 148, 78, 115, 154, 2, 0.315492
285, 3, bw, attraction, a-b-db, 14, 2, 8, 32, 165, 90, 90, 165, 83, 153, 1, 0.660511
285, 3, bw, attraction, a-b-db, 14, 2, 8, 32, 165, 90, 90, 165, 83, 153, 2, 0.664993
285, 3, bw, attraction, a-b-db, 2, 1, 8, 33, 59, 134, 60, 135, 135, 60, 1, 1.41208
285, 3, bw, attraction, a-b-db, 2, 1, 8, 33, 59, 134, 60, 135, 135, 60, 3, 0.722282
285, 3, bw, filler, NA, 999, 999, 8, 34, 88, 104, 193, 69, 128, 174, 3, 1.06732
285, 3, bw, filler, NA, 999, 999, 8, 34, 88, 104, 193, 69, 128, 174, 1, 1.05572
285, 3, bw, filler, NA, 999, 999, 8, 35, 112, 124, 171, 159, 161, 166, 3, 0.883238
285, 3, bw, filler, NA, 999, 999, 8, 35, 112, 124, 171, 159, 161, 166, 1, 2.7749
285, 3, bw, attraction, a-b-da, 9, 3, 8, 36, 186, 114, 195, 120, 120, 195, 2, 1.33284
285, 3, bw, attraction, a-b-da, 9, 3, 8, 36, 186, 114, 195, 120, 120, 195, 3, 0.57426
285, 3, bw, catch, NA, 999, 999, 8, 37, 69, 126, 109, 146, 131, 184, 3, 1.85266
285, 3, bw, catch, NA, 999, 999, 8, 37, 69, 126, 109, 146, 131, 184, 1, 0.601492
