sub_n, computer_n, bw_cond, effect, set, distance, diag, block_n, trial_n, h1, w1, h2, w2, h3, w3, choice, rt 
269, 3, bw, practice, NA, 999, 999, 0, 1, 126, 59, 176, 187, 185, 150, 2, 3.75025
269, 3, bw, practice, NA, 999, 999, 0, 1, 126, 59, 176, 187, 185, 150, 1, 2.23883
269, 3, bw, practice, NA, 999, 999, 0, 2, 166, 153, 165, 77, 62, 138, 1, 1.68946
269, 3, bw, practice, NA, 999, 999, 0, 2, 166, 153, 165, 77, 62, 138, 3, 1.21824
269, 3, bw, practice, NA, 999, 999, 0, 3, 192, 145, 187, 105, 121, 126, 1, 1.54832
269, 3, bw, practice, NA, 999, 999, 0, 3, 192, 145, 187, 105, 121, 126, 3, 1.26023
269, 3, bw, attraction, a-b-da, 9, 1, 1, 1, 129, 57, 60, 135, 135, 60, 2, 2.50506
269, 3, bw, attraction, a-b-da, 9, 1, 1, 1, 129, 57, 60, 135, 135, 60, 1, 2.09159
269, 3, bw, catch, NA, 999, 999, 1, 2, 177, 138, 68, 127, 127, 128, 1, 1.10104
269, 3, bw, catch, NA, 999, 999, 1, 2, 177, 138, 68, 127, 127, 128, 2, 0.663911
269, 3, bw, filler, NA, 999, 999, 1, 3, 170, 124, 113, 187, 149, 161, 3, 3.15508
269, 3, bw, filler, NA, 999, 999, 1, 3, 170, 124, 113, 187, 149, 161, 1, 2.4746
269, 3, bw, filler, NA, 999, 999, 1, 4, 131, 189, 96, 86, 159, 148, 1, 1.19636
269, 3, bw, filler, NA, 999, 999, 1, 4, 131, 189, 96, 86, 159, 148, 2, 0.707441
269, 3, bw, attraction, a-b-da, 2, 3, 1, 5, 195, 120, 120, 195, 193, 119, 2, 1.24441
269, 3, bw, attraction, a-b-da, 2, 3, 1, 5, 195, 120, 120, 195, 193, 119, 1, 1.4653
269, 3, bw, attraction, a-b-da, 14, 2, 1, 6, 153, 83, 90, 165, 165, 90, 2, 2.2763
269, 3, bw, attraction, a-b-da, 14, 2, 1, 6, 153, 83, 90, 165, 165, 90, 1, 1.23155
269, 3, bw, filler, NA, 999, 999, 1, 7, 136, 118, 117, 173, 91, 62, 2, 0.979662
269, 3, bw, filler, NA, 999, 999, 1, 7, 136, 118, 117, 173, 91, 62, 3, 1.11526
269, 3, bw, filler, NA, 999, 999, 1, 8, 114, 181, 105, 70, 78, 178, 1, 0.83626
269, 3, bw, filler, NA, 999, 999, 1, 8, 114, 181, 105, 70, 78, 178, 2, 0.665951
269, 3, bw, attraction, a-b-da, 2, 2, 1, 9, 165, 90, 163, 89, 90, 165, 3, 1.66912
269, 3, bw, attraction, a-b-da, 2, 2, 1, 9, 165, 90, 163, 89, 90, 165, 2, 1.04123
269, 3, bw, attraction, a-b-db, 9, 3, 1, 10, 120, 195, 195, 120, 114, 186, 1, 2.23673
269, 3, bw, attraction, a-b-db, 9, 3, 1, 10, 120, 195, 195, 120, 114, 186, 2, 1.16995
269, 3, bw, attraction, a-b-da, 5, 3, 1, 11, 190, 117, 195, 120, 120, 195, 3, 1.09697
269, 3, bw, attraction, a-b-da, 5, 3, 1, 11, 190, 117, 195, 120, 120, 195, 1, 1.91599
269, 3, bw, attraction, a-b-db, 14, 3, 1, 12, 195, 120, 120, 195, 111, 181, 2, 1.72459
269, 3, bw, attraction, a-b-db, 14, 3, 1, 12, 195, 120, 120, 195, 111, 181, 3, 1.022
269, 3, bw, attraction, a-b-db, 5, 2, 1, 13, 165, 90, 88, 161, 90, 165, 3, 3.71491
269, 3, bw, attraction, a-b-db, 5, 2, 1, 13, 165, 90, 88, 161, 90, 165, 1, 1.06041
269, 3, bw, filler, NA, 999, 999, 1, 14, 67, 175, 139, 119, 181, 101, 3, 1.59937
269, 3, bw, filler, NA, 999, 999, 1, 14, 67, 175, 139, 119, 181, 101, 1, 0.590157
269, 3, bw, filler, NA, 999, 999, 1, 15, 64, 102, 84, 127, 70, 175, 3, 1.33195
269, 3, bw, filler, NA, 999, 999, 1, 15, 64, 102, 84, 127, 70, 175, 1, 0.917604
269, 3, bw, filler, NA, 999, 999, 1, 16, 175, 170, 117, 179, 142, 63, 1, 1.31047
269, 3, bw, filler, NA, 999, 999, 1, 16, 175, 170, 117, 179, 142, 63, 3, 1.29668
269, 3, bw, attraction, a-b-db, 2, 1, 1, 17, 60, 135, 135, 60, 59, 134, 3, 1.57033
269, 3, bw, attraction, a-b-db, 2, 1, 1, 17, 60, 135, 135, 60, 59, 134, 2, 1.01042
269, 3, bw, filler, NA, 999, 999, 1, 18, 87, 166, 166, 194, 166, 61, 2, 0.799423
269, 3, bw, filler, NA, 999, 999, 1, 18, 87, 166, 166, 194, 166, 61, 3, 2.87839
269, 3, bw, filler, NA, 999, 999, 1, 19, 158, 137, 172, 177, 91, 159, 2, 0.696133
269, 3, bw, filler, NA, 999, 999, 1, 19, 158, 137, 172, 177, 91, 159, 3, 0.675223
269, 3, bw, attraction, a-b-db, 2, 2, 1, 20, 165, 90, 89, 163, 90, 165, 2, 3.26162
269, 3, bw, attraction, a-b-db, 2, 2, 1, 20, 165, 90, 89, 163, 90, 165, 1, 1.88123
269, 3, bw, attraction, a-b-db, 5, 3, 1, 21, 195, 120, 120, 195, 117, 190, 2, 2.61121
269, 3, bw, attraction, a-b-db, 5, 3, 1, 21, 195, 120, 120, 195, 117, 190, 3, 1.22518
269, 3, bw, attraction, a-b-da, 2, 1, 1, 22, 134, 59, 60, 135, 135, 60, 2, 3.12531
269, 3, bw, attraction, a-b-da, 2, 1, 1, 22, 134, 59, 60, 135, 135, 60, 1, 0.966298
269, 3, bw, attraction, a-b-db, 9, 1, 1, 23, 57, 129, 60, 135, 135, 60, 3, 1.46121
269, 3, bw, attraction, a-b-db, 9, 1, 1, 23, 57, 129, 60, 135, 135, 60, 1, 1.50575
269, 3, bw, attraction, a-b-db, 5, 1, 1, 24, 60, 135, 135, 60, 58, 132, 1, 1.98693
269, 3, bw, attraction, a-b-db, 5, 1, 1, 24, 60, 135, 135, 60, 58, 132, 3, 2.05834
269, 3, bw, attraction, a-b-db, 14, 1, 1, 25, 135, 60, 60, 135, 56, 125, 2, 3.9809
269, 3, bw, attraction, a-b-db, 14, 1, 1, 25, 135, 60, 60, 135, 56, 125, 1, 1.89958
269, 3, bw, catch, NA, 999, 999, 1, 26, 63, 132, 167, 148, 147, 108, 2, 0.724999
269, 3, bw, catch, NA, 999, 999, 1, 26, 63, 132, 167, 148, 147, 108, 1, 0.726745
269, 3, bw, filler, NA, 999, 999, 1, 27, 91, 76, 164, 187, 107, 193, 2, 1.03917
269, 3, bw, filler, NA, 999, 999, 1, 27, 91, 76, 164, 187, 107, 193, 1, 0.700213
269, 3, bw, attraction, a-b-da, 9, 3, 1, 28, 120, 195, 195, 120, 186, 114, 1, 2.38972
269, 3, bw, attraction, a-b-da, 9, 3, 1, 28, 120, 195, 195, 120, 186, 114, 3, 1.06034
269, 3, bw, attraction, a-b-db, 9, 2, 1, 29, 165, 90, 86, 157, 90, 165, 1, 6.09531
269, 3, bw, attraction, a-b-db, 9, 2, 1, 29, 165, 90, 86, 157, 90, 165, 2, 0.944641
269, 3, bw, attraction, a-b-da, 14, 1, 1, 30, 60, 135, 125, 56, 135, 60, 3, 2.03245
269, 3, bw, attraction, a-b-da, 14, 1, 1, 30, 60, 135, 125, 56, 135, 60, 2, 0.82967
269, 3, bw, attraction, a-b-da, 5, 2, 1, 31, 90, 165, 165, 90, 161, 88, 1, 2.17809
269, 3, bw, attraction, a-b-da, 5, 2, 1, 31, 90, 165, 165, 90, 161, 88, 2, 1.42547
269, 3, bw, attraction, a-b-db, 14, 2, 1, 32, 90, 165, 83, 153, 165, 90, 1, 3.09349
269, 3, bw, attraction, a-b-db, 14, 2, 1, 32, 90, 165, 83, 153, 165, 90, 2, 0.847895
269, 3, bw, attraction, a-b-da, 9, 2, 1, 33, 165, 90, 90, 165, 157, 86, 1, 2.37154
269, 3, bw, attraction, a-b-da, 9, 2, 1, 33, 165, 90, 90, 165, 157, 86, 3, 0.970813
269, 3, bw, attraction, a-b-db, 2, 3, 1, 34, 195, 120, 119, 193, 120, 195, 2, 2.8817
269, 3, bw, attraction, a-b-db, 2, 3, 1, 34, 195, 120, 119, 193, 120, 195, 1, 1.86088
269, 3, bw, attraction, a-b-da, 5, 1, 1, 35, 135, 60, 132, 58, 60, 135, 3, 2.79152
269, 3, bw, attraction, a-b-da, 5, 1, 1, 35, 135, 60, 132, 58, 60, 135, 2, 1.13392
269, 3, bw, catch, NA, 999, 999, 1, 36, 176, 139, 131, 124, 129, 66, 1, 0.73417
269, 3, bw, catch, NA, 999, 999, 1, 36, 176, 139, 131, 124, 129, 66, 3, 0.815928
269, 3, bw, attraction, a-b-da, 14, 3, 1, 37, 120, 195, 181, 111, 195, 120, 3, 0.749037
269, 3, bw, attraction, a-b-da, 14, 3, 1, 37, 120, 195, 181, 111, 195, 120, 2, 0.910017
269, 3, bw, attraction, a-b-da, 2, 2, 2, 1, 165, 90, 90, 165, 163, 89, 2, 1.56703
269, 3, bw, attraction, a-b-da, 2, 2, 2, 1, 165, 90, 90, 165, 163, 89, 1, 4.09517
269, 3, bw, filler, NA, 999, 999, 2, 2, 170, 134, 172, 132, 144, 158, 3, 3.31997
269, 3, bw, filler, NA, 999, 999, 2, 2, 170, 134, 172, 132, 144, 158, 1, 1.83339
269, 3, bw, attraction, a-b-da, 2, 1, 2, 3, 135, 60, 134, 59, 60, 135, 3, 3.17351
269, 3, bw, attraction, a-b-da, 2, 1, 2, 3, 135, 60, 134, 59, 60, 135, 2, 0.796518
269, 3, bw, filler, NA, 999, 999, 2, 4, 113, 115, 133, 111, 90, 96, 2, 1.05819
269, 3, bw, filler, NA, 999, 999, 2, 4, 113, 115, 133, 111, 90, 96, 3, 0.66245
269, 3, bw, attraction, a-b-db, 5, 2, 2, 5, 165, 90, 88, 161, 90, 165, 3, 2.45757
269, 3, bw, attraction, a-b-db, 5, 2, 2, 5, 165, 90, 88, 161, 90, 165, 2, 0.989426
269, 3, bw, attraction, a-b-db, 9, 1, 2, 6, 60, 135, 135, 60, 57, 129, 1, 1.5238
269, 3, bw, attraction, a-b-db, 9, 1, 2, 6, 60, 135, 135, 60, 57, 129, 2, 0.637285
269, 3, bw, filler, NA, 999, 999, 2, 7, 187, 77, 73, 143, 58, 105, 1, 0.905732
269, 3, bw, filler, NA, 999, 999, 2, 7, 187, 77, 73, 143, 58, 105, 3, 0.77996
269, 3, bw, attraction, a-b-da, 5, 3, 2, 8, 190, 117, 120, 195, 195, 120, 2, 2.58633
269, 3, bw, attraction, a-b-da, 5, 3, 2, 8, 190, 117, 120, 195, 195, 120, 1, 0.585516
269, 3, bw, attraction, a-b-da, 9, 3, 2, 9, 186, 114, 195, 120, 120, 195, 3, 1.58392
269, 3, bw, attraction, a-b-da, 9, 3, 2, 9, 186, 114, 195, 120, 120, 195, 1, 1.59954
269, 3, bw, filler, NA, 999, 999, 2, 10, 194, 163, 84, 74, 105, 174, 1, 0.684776
269, 3, bw, filler, NA, 999, 999, 2, 10, 194, 163, 84, 74, 105, 174, 2, 0.608588
269, 3, bw, attraction, a-b-da, 14, 2, 2, 11, 153, 83, 90, 165, 165, 90, 2, 1.39768
269, 3, bw, attraction, a-b-da, 14, 2, 2, 11, 153, 83, 90, 165, 165, 90, 1, 1.53252
269, 3, bw, filler, NA, 999, 999, 2, 12, 162, 79, 174, 145, 187, 79, 2, 0.676625
269, 3, bw, filler, NA, 999, 999, 2, 12, 162, 79, 174, 145, 187, 79, 1, 0.52039
269, 3, bw, attraction, a-b-db, 14, 1, 2, 13, 135, 60, 56, 125, 60, 135, 1, 1.12162
269, 3, bw, attraction, a-b-db, 14, 1, 2, 13, 135, 60, 56, 125, 60, 135, 2, 0.63514
269, 3, bw, filler, NA, 999, 999, 2, 14, 95, 195, 153, 98, 159, 90, 1, 1.91966
269, 3, bw, filler, NA, 999, 999, 2, 14, 95, 195, 153, 98, 159, 90, 2, 0.601604
269, 3, bw, catch, NA, 999, 999, 2, 15, 159, 96, 99, 96, 136, 179, 3, 0.959496
269, 3, bw, catch, NA, 999, 999, 2, 15, 159, 96, 99, 96, 136, 179, 2, 0.73571
269, 3, bw, attraction, a-b-da, 9, 2, 2, 16, 165, 90, 157, 86, 90, 165, 3, 4.16012
269, 3, bw, attraction, a-b-da, 9, 2, 2, 16, 165, 90, 157, 86, 90, 165, 2, 0.78347
269, 3, bw, attraction, a-b-da, 2, 3, 2, 17, 195, 120, 193, 119, 120, 195, 3, 3.49372
269, 3, bw, attraction, a-b-da, 2, 3, 2, 17, 195, 120, 193, 119, 120, 195, 2, 0.791959
269, 3, bw, attraction, a-b-db, 14, 2, 2, 18, 83, 153, 165, 90, 90, 165, 3, 0.661637
269, 3, bw, attraction, a-b-db, 14, 2, 2, 18, 83, 153, 165, 90, 90, 165, 1, 0.610277
269, 3, bw, catch, NA, 999, 999, 2, 19, 165, 150, 151, 104, 67, 128, 1, 0.727223
269, 3, bw, catch, NA, 999, 999, 2, 19, 165, 150, 151, 104, 67, 128, 3, 0.840944
269, 3, bw, attraction, a-b-db, 2, 3, 2, 20, 119, 193, 195, 120, 120, 195, 3, 1.80466
269, 3, bw, attraction, a-b-db, 2, 3, 2, 20, 119, 193, 195, 120, 120, 195, 1, 1.53869
269, 3, bw, attraction, a-b-db, 14, 3, 2, 21, 195, 120, 120, 195, 111, 181, 2, 2.2669
269, 3, bw, attraction, a-b-db, 14, 3, 2, 21, 195, 120, 120, 195, 111, 181, 3, 0.638884
269, 3, bw, attraction, a-b-da, 5, 2, 2, 22, 161, 88, 165, 90, 90, 165, 3, 1.27515
269, 3, bw, attraction, a-b-da, 5, 2, 2, 22, 161, 88, 165, 90, 90, 165, 1, 0.670807
269, 3, bw, attraction, a-b-db, 9, 2, 2, 23, 86, 157, 165, 90, 90, 165, 3, 0.729846
269, 3, bw, attraction, a-b-db, 9, 2, 2, 23, 86, 157, 165, 90, 90, 165, 1, 0.747579
269, 3, bw, attraction, a-b-db, 2, 2, 2, 24, 90, 165, 165, 90, 89, 163, 3, 2.4112
269, 3, bw, attraction, a-b-db, 2, 2, 2, 24, 90, 165, 165, 90, 89, 163, 2, 2.65775
269, 3, bw, attraction, a-b-db, 2, 1, 2, 25, 59, 134, 135, 60, 60, 135, 2, 3.97967
269, 3, bw, attraction, a-b-db, 2, 1, 2, 25, 59, 134, 135, 60, 60, 135, 1, 0.818357
269, 3, bw, attraction, a-b-da, 9, 1, 2, 26, 135, 60, 60, 135, 129, 57, 2, 5.59135
269, 3, bw, attraction, a-b-da, 9, 1, 2, 26, 135, 60, 60, 135, 129, 57, 1, 0.500914
269, 3, bw, filler, NA, 999, 999, 2, 27, 123, 134, 165, 106, 114, 119, 2, 2.16669
269, 3, bw, filler, NA, 999, 999, 2, 27, 123, 134, 165, 106, 114, 119, 3, 0.454687
269, 3, bw, attraction, a-b-db, 9, 3, 2, 28, 120, 195, 114, 186, 195, 120, 2, 4.29039
269, 3, bw, attraction, a-b-db, 9, 3, 2, 28, 120, 195, 114, 186, 195, 120, 3, 1.22853
269, 3, bw, attraction, a-b-da, 14, 1, 2, 29, 60, 135, 135, 60, 125, 56, 1, 4.12069
269, 3, bw, attraction, a-b-da, 14, 1, 2, 29, 60, 135, 135, 60, 125, 56, 3, 1.11402
269, 3, bw, attraction, a-b-da, 5, 1, 2, 30, 60, 135, 135, 60, 132, 58, 3, 1.69088
269, 3, bw, attraction, a-b-da, 5, 1, 2, 30, 60, 135, 135, 60, 132, 58, 1, 0.421674
269, 3, bw, catch, NA, 999, 999, 2, 31, 143, 172, 65, 130, 119, 136, 1, 0.722822
269, 3, bw, catch, NA, 999, 999, 2, 31, 143, 172, 65, 130, 119, 136, 2, 0.436622
269, 3, bw, filler, NA, 999, 999, 2, 32, 83, 185, 89, 131, 112, 167, 3, 0.649142
269, 3, bw, filler, NA, 999, 999, 2, 32, 83, 185, 89, 131, 112, 167, 2, 0.710177
269, 3, bw, attraction, a-b-db, 5, 1, 2, 33, 60, 135, 58, 132, 135, 60, 2, 1.58321
269, 3, bw, attraction, a-b-db, 5, 1, 2, 33, 60, 135, 58, 132, 135, 60, 1, 0.518773
269, 3, bw, filler, NA, 999, 999, 2, 34, 139, 166, 114, 85, 113, 124, 1, 0.615817
269, 3, bw, filler, NA, 999, 999, 2, 34, 139, 166, 114, 85, 113, 124, 2, 0.390352
269, 3, bw, attraction, a-b-db, 5, 3, 2, 35, 117, 190, 120, 195, 195, 120, 2, 1.3481
269, 3, bw, attraction, a-b-db, 5, 3, 2, 35, 117, 190, 120, 195, 195, 120, 1, 0.924942
269, 3, bw, filler, NA, 999, 999, 2, 36, 64, 157, 116, 140, 143, 112, 2, 2.64531
269, 3, bw, filler, NA, 999, 999, 2, 36, 64, 157, 116, 140, 143, 112, 1, 0.833713
269, 3, bw, attraction, a-b-da, 14, 3, 2, 37, 195, 120, 181, 111, 120, 195, 3, 1.11008
269, 3, bw, attraction, a-b-da, 14, 3, 2, 37, 195, 120, 181, 111, 120, 195, 2, 0.480459
269, 3, bw, attraction, a-b-da, 2, 1, 3, 1, 135, 60, 134, 59, 60, 135, 3, 2.37099
269, 3, bw, attraction, a-b-da, 2, 1, 3, 1, 135, 60, 134, 59, 60, 135, 2, 0.762701
269, 3, bw, attraction, a-b-db, 9, 2, 3, 2, 86, 157, 165, 90, 90, 165, 3, 1.82591
269, 3, bw, attraction, a-b-db, 9, 2, 3, 2, 86, 157, 165, 90, 90, 165, 2, 2.36719
269, 3, bw, filler, NA, 999, 999, 3, 3, 124, 184, 189, 86, 111, 80, 1, 0.70175
269, 3, bw, filler, NA, 999, 999, 3, 3, 124, 184, 189, 86, 111, 80, 3, 0.480873
269, 3, bw, filler, NA, 999, 999, 3, 4, 133, 120, 133, 58, 112, 106, 1, 1.70801
269, 3, bw, filler, NA, 999, 999, 3, 4, 133, 120, 133, 58, 112, 106, 2, 3.54144
269, 3, bw, filler, NA, 999, 999, 3, 5, 149, 58, 184, 119, 59, 181, 2, 1.02821
269, 3, bw, filler, NA, 999, 999, 3, 5, 149, 58, 184, 119, 59, 181, 1, 1.14598
269, 3, bw, attraction, a-b-db, 2, 3, 3, 6, 119, 193, 120, 195, 195, 120, 2, 4.24154
269, 3, bw, attraction, a-b-db, 2, 3, 3, 6, 119, 193, 120, 195, 195, 120, 3, 0.413401
269, 3, bw, attraction, a-b-db, 9, 3, 3, 7, 195, 120, 120, 195, 114, 186, 1, 4.49057
269, 3, bw, attraction, a-b-db, 9, 3, 3, 7, 195, 120, 120, 195, 114, 186, 3, 0.716603
269, 3, bw, filler, NA, 999, 999, 3, 8, 83, 139, 60, 162, 73, 94, 1, 2.3176
269, 3, bw, filler, NA, 999, 999, 3, 8, 83, 139, 60, 162, 73, 94, 3, 0.519447
269, 3, bw, catch, NA, 999, 999, 3, 9, 123, 192, 128, 67, 92, 163, 1, 0.712624
269, 3, bw, catch, NA, 999, 999, 3, 9, 123, 192, 128, 67, 92, 163, 2, 0.563065
269, 3, bw, attraction, a-b-da, 5, 2, 3, 10, 90, 165, 161, 88, 165, 90, 3, 3.36213
269, 3, bw, attraction, a-b-da, 5, 2, 3, 10, 90, 165, 161, 88, 165, 90, 2, 0.473648
269, 3, bw, attraction, a-b-db, 14, 3, 3, 11, 120, 195, 111, 181, 195, 120, 3, 8.54014
269, 3, bw, attraction, a-b-db, 14, 3, 3, 11, 120, 195, 111, 181, 195, 120, 2, 0.62678
269, 3, bw, filler, NA, 999, 999, 3, 12, 106, 113, 130, 62, 114, 174, 3, 0.71123
269, 3, bw, filler, NA, 999, 999, 3, 12, 106, 113, 130, 62, 114, 174, 2, 0.641627
269, 3, bw, catch, NA, 999, 999, 3, 13, 92, 163, 154, 161, 122, 73, 2, 0.941959
269, 3, bw, catch, NA, 999, 999, 3, 13, 92, 163, 154, 161, 122, 73, 3, 0.590362
269, 3, bw, attraction, a-b-da, 14, 1, 3, 14, 135, 60, 60, 135, 125, 56, 2, 2.61205
269, 3, bw, attraction, a-b-da, 14, 1, 3, 14, 135, 60, 60, 135, 125, 56, 3, 1.85015
269, 3, bw, attraction, a-b-db, 5, 3, 3, 15, 195, 120, 117, 190, 120, 195, 3, 9.03741
269, 3, bw, attraction, a-b-db, 5, 3, 3, 15, 195, 120, 117, 190, 120, 195, 2, 0.528411
269, 3, bw, attraction, a-b-da, 14, 2, 3, 16, 90, 165, 153, 83, 165, 90, 1, 2.21695
269, 3, bw, attraction, a-b-da, 14, 2, 3, 16, 90, 165, 153, 83, 165, 90, 2, 0.558917
269, 3, bw, attraction, a-b-da, 9, 1, 3, 17, 135, 60, 129, 57, 60, 135, 3, 3.39785
269, 3, bw, attraction, a-b-da, 9, 1, 3, 17, 135, 60, 129, 57, 60, 135, 2, 0.932116
269, 3, bw, attraction, a-b-da, 2, 2, 3, 18, 165, 90, 163, 89, 90, 165, 3, 1.72447
269, 3, bw, attraction, a-b-da, 2, 2, 3, 18, 165, 90, 163, 89, 90, 165, 2, 3.34996
269, 3, bw, attraction, a-b-da, 9, 2, 3, 19, 90, 165, 165, 90, 157, 86, 1, 6.62878
269, 3, bw, attraction, a-b-da, 9, 2, 3, 19, 90, 165, 165, 90, 157, 86, 2, 0.408682
269, 3, bw, attraction, a-b-db, 5, 2, 3, 20, 165, 90, 88, 161, 90, 165, 3, 3.06184
269, 3, bw, attraction, a-b-db, 5, 2, 3, 20, 165, 90, 88, 161, 90, 165, 2, 1.68962
269, 3, bw, attraction, a-b-da, 9, 3, 3, 21, 195, 120, 186, 114, 120, 195, 3, 1.50762
269, 3, bw, attraction, a-b-da, 9, 3, 3, 21, 195, 120, 186, 114, 120, 195, 2, 1.19776
269, 3, bw, filler, NA, 999, 999, 3, 22, 72, 113, 106, 169, 104, 75, 2, 0.563317
269, 3, bw, filler, NA, 999, 999, 3, 22, 72, 113, 106, 169, 104, 75, 1, 0.867901
269, 3, bw, filler, NA, 999, 999, 3, 23, 157, 154, 88, 137, 95, 81, 1, 0.550931
269, 3, bw, filler, NA, 999, 999, 3, 23, 157, 154, 88, 137, 95, 81, 3, 0.967919
269, 3, bw, attraction, a-b-da, 5, 1, 3, 24, 135, 60, 60, 135, 132, 58, 2, 0.911159
269, 3, bw, attraction, a-b-da, 5, 1, 3, 24, 135, 60, 60, 135, 132, 58, 1, 0.569258
269, 3, bw, attraction, a-b-db, 14, 2, 3, 25, 90, 165, 165, 90, 83, 153, 2, 0.848428
269, 3, bw, attraction, a-b-db, 14, 2, 3, 25, 90, 165, 165, 90, 83, 153, 1, 0.421396
269, 3, bw, catch, NA, 999, 999, 3, 26, 93, 102, 157, 98, 167, 148, 3, 0.866583
269, 3, bw, catch, NA, 999, 999, 3, 26, 93, 102, 157, 98, 167, 148, 1, 0.52696
269, 3, bw, filler, NA, 999, 999, 3, 27, 163, 167, 152, 131, 188, 59, 1, 0.615509
269, 3, bw, filler, NA, 999, 999, 3, 27, 163, 167, 152, 131, 188, 59, 3, 0.469918
269, 3, bw, attraction, a-b-db, 9, 1, 3, 28, 57, 129, 60, 135, 135, 60, 2, 1.24104
269, 3, bw, attraction, a-b-db, 9, 1, 3, 28, 57, 129, 60, 135, 135, 60, 1, 0.390045
269, 3, bw, attraction, a-b-da, 2, 3, 3, 29, 120, 195, 193, 119, 195, 120, 1, 1.53169
269, 3, bw, attraction, a-b-da, 2, 3, 3, 29, 120, 195, 193, 119, 195, 120, 2, 0.381178
269, 3, bw, attraction, a-b-db, 2, 1, 3, 30, 135, 60, 60, 135, 59, 134, 2, 2.30771
269, 3, bw, attraction, a-b-db, 2, 1, 3, 30, 135, 60, 60, 135, 59, 134, 3, 1.50169
269, 3, bw, attraction, a-b-da, 14, 3, 3, 31, 120, 195, 195, 120, 181, 111, 1, 2.36706
269, 3, bw, attraction, a-b-da, 14, 3, 3, 31, 120, 195, 195, 120, 181, 111, 3, 0.342971
269, 3, bw, attraction, a-b-db, 5, 1, 3, 32, 135, 60, 58, 132, 60, 135, 1, 2.0469
269, 3, bw, attraction, a-b-db, 5, 1, 3, 32, 135, 60, 58, 132, 60, 135, 2, 2.29952
269, 3, bw, attraction, a-b-db, 14, 1, 3, 33, 60, 135, 56, 125, 135, 60, 3, 1.7247
269, 3, bw, attraction, a-b-db, 14, 1, 3, 33, 60, 135, 56, 125, 135, 60, 2, 0.630155
269, 3, bw, attraction, a-b-da, 5, 3, 3, 34, 195, 120, 190, 117, 120, 195, 3, 1.29063
269, 3, bw, attraction, a-b-da, 5, 3, 3, 34, 195, 120, 190, 117, 120, 195, 1, 0.933465
269, 3, bw, filler, NA, 999, 999, 3, 35, 83, 78, 189, 168, 125, 188, 2, 0.909797
269, 3, bw, filler, NA, 999, 999, 3, 35, 83, 78, 189, 168, 125, 188, 1, 0.352156
269, 3, bw, attraction, a-b-db, 2, 2, 3, 36, 90, 165, 165, 90, 89, 163, 1, 6.35193
269, 3, bw, attraction, a-b-db, 2, 2, 3, 36, 90, 165, 165, 90, 89, 163, 2, 0.54331
269, 3, bw, filler, NA, 999, 999, 3, 37, 128, 174, 179, 58, 57, 186, 1, 0.678952
269, 3, bw, filler, NA, 999, 999, 3, 37, 128, 174, 179, 58, 57, 186, 2, 4.13101
269, 3, bw, filler, NA, 999, 999, 4, 1, 131, 133, 126, 160, 153, 94, 2, 1.54614
269, 3, bw, filler, NA, 999, 999, 4, 1, 131, 133, 126, 160, 153, 94, 1, 0.323141
269, 3, bw, attraction, a-b-da, 5, 2, 4, 2, 165, 90, 161, 88, 90, 165, 3, 3.00347
269, 3, bw, attraction, a-b-da, 5, 2, 4, 2, 165, 90, 161, 88, 90, 165, 2, 1.04982
269, 3, bw, attraction, a-b-da, 2, 2, 4, 3, 165, 90, 90, 165, 163, 89, 2, 0.877368
269, 3, bw, attraction, a-b-da, 2, 2, 4, 3, 165, 90, 90, 165, 163, 89, 1, 0.369206
269, 3, bw, attraction, a-b-db, 2, 1, 4, 4, 135, 60, 59, 134, 60, 135, 1, 9.45629
269, 3, bw, attraction, a-b-db, 2, 1, 4, 4, 135, 60, 59, 134, 60, 135, 2, 1.45861
269, 3, bw, attraction, a-b-db, 14, 2, 4, 5, 165, 90, 90, 165, 83, 153, 1, 0.797658
269, 3, bw, attraction, a-b-db, 14, 2, 4, 5, 165, 90, 90, 165, 83, 153, 3, 0.916479
269, 3, bw, attraction, a-b-da, 9, 2, 4, 6, 157, 86, 90, 165, 165, 90, 2, 2.02957
269, 3, bw, attraction, a-b-da, 9, 2, 4, 6, 157, 86, 90, 165, 165, 90, 1, 0.722823
269, 3, bw, attraction, a-b-db, 5, 3, 4, 7, 117, 190, 120, 195, 195, 120, 2, 2.72393
269, 3, bw, attraction, a-b-db, 5, 3, 4, 7, 117, 190, 120, 195, 195, 120, 1, 1.10107
269, 3, bw, attraction, a-b-db, 9, 3, 4, 8, 195, 120, 120, 195, 114, 186, 2, 8.63861
269, 3, bw, attraction, a-b-db, 9, 3, 4, 8, 195, 120, 120, 195, 114, 186, 1, 1.17793
269, 3, bw, catch, NA, 999, 999, 4, 9, 150, 165, 89, 106, 101, 154, 1, 1.08822
269, 3, bw, catch, NA, 999, 999, 4, 9, 150, 165, 89, 106, 101, 154, 2, 0.371145
269, 3, bw, catch, NA, 999, 999, 4, 10, 194, 121, 61, 134, 91, 164, 1, 0.834291
269, 3, bw, catch, NA, 999, 999, 4, 10, 194, 121, 61, 134, 91, 164, 2, 0.392074
269, 3, bw, attraction, a-b-da, 9, 1, 4, 11, 135, 60, 60, 135, 129, 57, 2, 0.885905
269, 3, bw, attraction, a-b-da, 9, 1, 4, 11, 135, 60, 60, 135, 129, 57, 3, 3.8897
269, 3, bw, filler, NA, 999, 999, 4, 12, 113, 188, 173, 174, 72, 81, 2, 0.818872
269, 3, bw, filler, NA, 999, 999, 4, 12, 113, 188, 173, 174, 72, 81, 3, 0.481361
269, 3, bw, filler, NA, 999, 999, 4, 13, 195, 107, 56, 112, 145, 110, 1, 0.57977
269, 3, bw, filler, NA, 999, 999, 4, 13, 195, 107, 56, 112, 145, 110, 2, 0.547551
269, 3, bw, attraction, a-b-db, 5, 1, 4, 14, 60, 135, 58, 132, 135, 60, 3, 4.80335
269, 3, bw, attraction, a-b-db, 5, 1, 4, 14, 60, 135, 58, 132, 135, 60, 2, 0.617049
269, 3, bw, filler, NA, 999, 999, 4, 15, 152, 162, 102, 138, 67, 130, 1, 0.662199
269, 3, bw, filler, NA, 999, 999, 4, 15, 152, 162, 102, 138, 67, 130, 3, 0.55464
269, 3, bw, filler, NA, 999, 999, 4, 16, 147, 70, 149, 190, 104, 183, 2, 0.882381
269, 3, bw, filler, NA, 999, 999, 4, 16, 147, 70, 149, 190, 104, 183, 1, 0.470263
269, 3, bw, filler, NA, 999, 999, 4, 17, 122, 150, 114, 168, 187, 66, 2, 0.921293
269, 3, bw, filler, NA, 999, 999, 4, 17, 122, 150, 114, 168, 187, 66, 1, 0.730879
269, 3, bw, attraction, a-b-db, 14, 1, 4, 18, 135, 60, 60, 135, 56, 125, 2, 1.43517
269, 3, bw, attraction, a-b-db, 14, 1, 4, 18, 135, 60, 60, 135, 56, 125, 3, 0.288851
269, 3, bw, filler, NA, 999, 999, 4, 19, 88, 69, 58, 109, 56, 168, 2, 1.26725
269, 3, bw, filler, NA, 999, 999, 4, 19, 88, 69, 58, 109, 56, 168, 3, 0.85552
269, 3, bw, filler, NA, 999, 999, 4, 20, 172, 70, 143, 74, 90, 173, 1, 1.89917
269, 3, bw, filler, NA, 999, 999, 4, 20, 172, 70, 143, 74, 90, 173, 3, 1.06192
269, 3, bw, attraction, a-b-da, 14, 3, 4, 21, 181, 111, 195, 120, 120, 195, 2, 1.92894
269, 3, bw, attraction, a-b-da, 14, 3, 4, 21, 181, 111, 195, 120, 120, 195, 3, 2.9384
269, 3, bw, filler, NA, 999, 999, 4, 22, 186, 108, 79, 56, 100, 71, 1, 1.20188
269, 3, bw, filler, NA, 999, 999, 4, 22, 186, 108, 79, 56, 100, 71, 2, 0.736918
269, 3, bw, attraction, a-b-da, 5, 1, 4, 23, 132, 58, 135, 60, 60, 135, 3, 3.54533
269, 3, bw, attraction, a-b-da, 5, 1, 4, 23, 132, 58, 135, 60, 60, 135, 1, 1.32953
269, 3, bw, attraction, a-b-da, 14, 1, 4, 24, 60, 135, 135, 60, 125, 56, 2, 2.91371
269, 3, bw, attraction, a-b-da, 14, 1, 4, 24, 60, 135, 135, 60, 125, 56, 1, 0.419358
269, 3, bw, attraction, a-b-db, 5, 2, 4, 25, 88, 161, 165, 90, 90, 165, 3, 1.24853
269, 3, bw, attraction, a-b-db, 5, 2, 4, 25, 88, 161, 165, 90, 90, 165, 2, 1.46944
269, 3, bw, attraction, a-b-db, 2, 2, 4, 26, 90, 165, 165, 90, 89, 163, 3, 3.40028
269, 3, bw, attraction, a-b-db, 2, 2, 4, 26, 90, 165, 165, 90, 89, 163, 2, 0.414524
269, 3, bw, catch, NA, 999, 999, 4, 27, 137, 178, 109, 86, 129, 126, 1, 0.86763
269, 3, bw, catch, NA, 999, 999, 4, 27, 137, 178, 109, 86, 129, 126, 2, 0.704035
269, 3, bw, attraction, a-b-db, 9, 1, 4, 28, 57, 129, 135, 60, 60, 135, 2, 1.67373
269, 3, bw, attraction, a-b-db, 9, 1, 4, 28, 57, 129, 135, 60, 60, 135, 1, 0.565228
269, 3, bw, attraction, a-b-da, 9, 3, 4, 29, 120, 195, 195, 120, 186, 114, 1, 2.86032
269, 3, bw, attraction, a-b-da, 9, 3, 4, 29, 120, 195, 195, 120, 186, 114, 3, 1.15208
269, 3, bw, attraction, a-b-da, 2, 1, 4, 30, 134, 59, 135, 60, 60, 135, 3, 4.54363
269, 3, bw, attraction, a-b-da, 2, 1, 4, 30, 134, 59, 135, 60, 60, 135, 2, 0.671618
269, 3, bw, attraction, a-b-da, 5, 3, 4, 31, 190, 117, 195, 120, 120, 195, 3, 1.12262
269, 3, bw, attraction, a-b-da, 5, 3, 4, 31, 190, 117, 195, 120, 120, 195, 2, 0.532221
269, 3, bw, filler, NA, 999, 999, 4, 32, 114, 190, 136, 157, 161, 87, 2, 1.57272
269, 3, bw, filler, NA, 999, 999, 4, 32, 114, 190, 136, 157, 161, 87, 1, 0.548122
269, 3, bw, attraction, a-b-da, 2, 3, 4, 33, 120, 195, 193, 119, 195, 120, 3, 1.17985
269, 3, bw, attraction, a-b-da, 2, 3, 4, 33, 120, 195, 193, 119, 195, 120, 2, 0.611575
269, 3, bw, attraction, a-b-da, 14, 2, 4, 34, 90, 165, 165, 90, 153, 83, 3, 1.97668
269, 3, bw, attraction, a-b-da, 14, 2, 4, 34, 90, 165, 165, 90, 153, 83, 1, 0.776007
269, 3, bw, attraction, a-b-db, 14, 3, 4, 35, 195, 120, 120, 195, 111, 181, 1, 0.9023
269, 3, bw, attraction, a-b-db, 14, 3, 4, 35, 195, 120, 120, 195, 111, 181, 3, 3.20943
269, 3, bw, attraction, a-b-db, 2, 3, 4, 36, 195, 120, 120, 195, 119, 193, 2, 2.10172
269, 3, bw, attraction, a-b-db, 2, 3, 4, 36, 195, 120, 120, 195, 119, 193, 1, 0.296319
269, 3, bw, attraction, a-b-db, 9, 2, 4, 37, 165, 90, 86, 157, 90, 165, 3, 1.25011
269, 3, bw, attraction, a-b-db, 9, 2, 4, 37, 165, 90, 86, 157, 90, 165, 1, 0.47911
269, 3, bw, attraction, a-b-da, 5, 2, 5, 1, 90, 165, 161, 88, 165, 90, 1, 4.36017
269, 3, bw, attraction, a-b-da, 5, 2, 5, 1, 90, 165, 161, 88, 165, 90, 2, 1.48737
269, 3, bw, attraction, a-b-da, 2, 2, 5, 2, 163, 89, 90, 165, 165, 90, 2, 1.60152
269, 3, bw, attraction, a-b-da, 2, 2, 5, 2, 163, 89, 90, 165, 165, 90, 1, 0.896466
269, 3, bw, filler, NA, 999, 999, 5, 3, 70, 106, 147, 175, 182, 185, 3, 0.497978
269, 3, bw, filler, NA, 999, 999, 5, 3, 70, 106, 147, 175, 182, 185, 1, 0.541146
269, 3, bw, attraction, a-b-da, 14, 3, 5, 4, 120, 195, 195, 120, 181, 111, 1, 2.16497
269, 3, bw, attraction, a-b-da, 14, 3, 5, 4, 120, 195, 195, 120, 181, 111, 3, 0.612934
269, 3, bw, attraction, a-b-db, 9, 2, 5, 5, 86, 157, 165, 90, 90, 165, 3, 0.993949
269, 3, bw, attraction, a-b-db, 9, 2, 5, 5, 86, 157, 165, 90, 90, 165, 1, 1.92094
269, 3, bw, filler, NA, 999, 999, 5, 6, 180, 158, 77, 151, 123, 147, 1, 1.03355
269, 3, bw, filler, NA, 999, 999, 5, 6, 180, 158, 77, 151, 123, 147, 2, 0.399241
269, 3, bw, filler, NA, 999, 999, 5, 7, 68, 78, 162, 77, 70, 100, 2, 0.917054
269, 3, bw, filler, NA, 999, 999, 5, 7, 68, 78, 162, 77, 70, 100, 1, 0.431395
269, 3, bw, catch, NA, 999, 999, 5, 8, 123, 72, 156, 99, 153, 162, 3, 0.531954
269, 3, bw, catch, NA, 999, 999, 5, 8, 123, 72, 156, 99, 153, 162, 1, 0.565707
269, 3, bw, attraction, a-b-db, 2, 3, 5, 9, 120, 195, 195, 120, 119, 193, 3, 1.4048
269, 3, bw, attraction, a-b-db, 2, 3, 5, 9, 120, 195, 195, 120, 119, 193, 2, 0.59507
269, 3, bw, attraction, a-b-db, 5, 2, 5, 10, 90, 165, 88, 161, 165, 90, 2, 3.6809
269, 3, bw, attraction, a-b-db, 5, 2, 5, 10, 90, 165, 88, 161, 165, 90, 1, 1.57166
269, 3, bw, filler, NA, 999, 999, 5, 11, 157, 194, 172, 92, 115, 97, 1, 0.554489
269, 3, bw, filler, NA, 999, 999, 5, 11, 157, 194, 172, 92, 115, 97, 3, 0.362879
269, 3, bw, filler, NA, 999, 999, 5, 12, 74, 153, 127, 141, 124, 81, 2, 0.570009
269, 3, bw, filler, NA, 999, 999, 5, 12, 74, 153, 127, 141, 124, 81, 1, 0.330447
269, 3, bw, attraction, a-b-db, 14, 2, 5, 13, 165, 90, 90, 165, 83, 153, 2, 2.91502
269, 3, bw, attraction, a-b-db, 14, 2, 5, 13, 165, 90, 90, 165, 83, 153, 3, 1.51674
269, 3, bw, attraction, a-b-db, 9, 1, 5, 14, 60, 135, 135, 60, 57, 129, 1, 1.13351
269, 3, bw, attraction, a-b-db, 9, 1, 5, 14, 60, 135, 135, 60, 57, 129, 2, 1.44719
269, 3, bw, filler, NA, 999, 999, 5, 15, 189, 60, 154, 111, 120, 168, 3, 1.20269
269, 3, bw, filler, NA, 999, 999, 5, 15, 189, 60, 154, 111, 120, 168, 1, 0.929509
269, 3, bw, catch, NA, 999, 999, 5, 16, 117, 78, 130, 185, 93, 162, 2, 0.721826
269, 3, bw, catch, NA, 999, 999, 5, 16, 117, 78, 130, 185, 93, 162, 1, 0.539644
269, 3, bw, attraction, a-b-da, 2, 3, 5, 17, 195, 120, 193, 119, 120, 195, 3, 1.36405
269, 3, bw, attraction, a-b-da, 2, 3, 5, 17, 195, 120, 193, 119, 120, 195, 1, 1.39631
269, 3, bw, attraction, a-b-db, 2, 2, 5, 18, 89, 163, 165, 90, 90, 165, 3, 1.34591
269, 3, bw, attraction, a-b-db, 2, 2, 5, 18, 89, 163, 165, 90, 90, 165, 2, 3.28284
269, 3, bw, attraction, a-b-da, 9, 1, 5, 19, 129, 57, 60, 135, 135, 60, 2, 1.83627
269, 3, bw, attraction, a-b-da, 9, 1, 5, 19, 129, 57, 60, 135, 135, 60, 1, 0.729724
269, 3, bw, attraction, a-b-da, 14, 2, 5, 20, 153, 83, 90, 165, 165, 90, 3, 1.33016
269, 3, bw, attraction, a-b-da, 14, 2, 5, 20, 153, 83, 90, 165, 165, 90, 1, 0.571697
269, 3, bw, attraction, a-b-da, 9, 3, 5, 21, 186, 114, 195, 120, 120, 195, 3, 1.32286
269, 3, bw, attraction, a-b-da, 9, 3, 5, 21, 186, 114, 195, 120, 120, 195, 1, 1.38037
269, 3, bw, filler, NA, 999, 999, 5, 22, 120, 123, 154, 186, 189, 118, 2, 1.05051
269, 3, bw, filler, NA, 999, 999, 5, 22, 120, 123, 154, 186, 189, 118, 1, 0.439404
269, 3, bw, attraction, a-b-db, 5, 1, 5, 23, 58, 132, 135, 60, 60, 135, 3, 1.37188
269, 3, bw, attraction, a-b-db, 5, 1, 5, 23, 58, 132, 135, 60, 60, 135, 1, 1.28344
269, 3, bw, attraction, a-b-db, 2, 1, 5, 24, 135, 60, 60, 135, 59, 134, 1, 1.06082
269, 3, bw, attraction, a-b-db, 2, 1, 5, 24, 135, 60, 60, 135, 59, 134, 3, 1.17795
269, 3, bw, attraction, a-b-db, 9, 3, 5, 25, 120, 195, 114, 186, 195, 120, 3, 2.42437
269, 3, bw, attraction, a-b-db, 9, 3, 5, 25, 120, 195, 114, 186, 195, 120, 2, 1.10142
269, 3, bw, filler, NA, 999, 999, 5, 26, 146, 100, 114, 57, 91, 95, 1, 0.678961
269, 3, bw, filler, NA, 999, 999, 5, 26, 146, 100, 114, 57, 91, 95, 2, 1.1068
269, 3, bw, attraction, a-b-db, 14, 1, 5, 27, 60, 135, 135, 60, 56, 125, 1, 2.61166
269, 3, bw, attraction, a-b-db, 14, 1, 5, 27, 60, 135, 135, 60, 56, 125, 2, 1.14552
269, 3, bw, attraction, a-b-da, 14, 1, 5, 28, 135, 60, 125, 56, 60, 135, 1, 1.83313
269, 3, bw, attraction, a-b-da, 14, 1, 5, 28, 135, 60, 125, 56, 60, 135, 2, 0.422579
269, 3, bw, attraction, a-b-db, 5, 3, 5, 29, 195, 120, 120, 195, 117, 190, 2, 1.40361
269, 3, bw, attraction, a-b-db, 5, 3, 5, 29, 195, 120, 120, 195, 117, 190, 3, 3.65053
269, 3, bw, attraction, a-b-da, 5, 3, 5, 30, 190, 117, 195, 120, 120, 195, 3, 2.91725
269, 3, bw, attraction, a-b-da, 5, 3, 5, 30, 190, 117, 195, 120, 120, 195, 1, 0.631196
269, 3, bw, filler, NA, 999, 999, 5, 31, 90, 165, 175, 127, 77, 79, 2, 0.691525
269, 3, bw, filler, NA, 999, 999, 5, 31, 90, 165, 175, 127, 77, 79, 3, 0.446494
269, 3, bw, attraction, a-b-da, 2, 1, 5, 32, 135, 60, 134, 59, 60, 135, 1, 0.866311
269, 3, bw, attraction, a-b-da, 2, 1, 5, 32, 135, 60, 134, 59, 60, 135, 2, 0.750685
269, 3, bw, attraction, a-b-da, 9, 2, 5, 33, 165, 90, 157, 86, 90, 165, 3, 1.8224
269, 3, bw, attraction, a-b-da, 9, 2, 5, 33, 165, 90, 157, 86, 90, 165, 2, 0.587913
269, 3, bw, attraction, a-b-da, 5, 1, 5, 34, 60, 135, 132, 58, 135, 60, 3, 1.13027
269, 3, bw, attraction, a-b-da, 5, 1, 5, 34, 60, 135, 132, 58, 135, 60, 2, 0.803839
269, 3, bw, attraction, a-b-db, 14, 3, 5, 35, 111, 181, 120, 195, 195, 120, 2, 4.68154
269, 3, bw, attraction, a-b-db, 14, 3, 5, 35, 111, 181, 120, 195, 195, 120, 1, 0.692148
269, 3, bw, catch, NA, 999, 999, 5, 36, 124, 71, 147, 168, 160, 95, 2, 0.741822
269, 3, bw, catch, NA, 999, 999, 5, 36, 124, 71, 147, 168, 160, 95, 1, 0.518811
269, 3, bw, filler, NA, 999, 999, 5, 37, 173, 72, 104, 162, 193, 132, 3, 0.559937
269, 3, bw, filler, NA, 999, 999, 5, 37, 173, 72, 104, 162, 193, 132, 1, 2.07238
269, 3, bw, filler, NA, 999, 999, 6, 1, 185, 185, 182, 176, 150, 134, 1, 1.97897
269, 3, bw, filler, NA, 999, 999, 6, 1, 185, 185, 182, 176, 150, 134, 3, 0.642388
269, 3, bw, attraction, a-b-da, 14, 2, 6, 2, 90, 165, 153, 83, 165, 90, 3, 0.998205
269, 3, bw, attraction, a-b-da, 14, 2, 6, 2, 90, 165, 153, 83, 165, 90, 2, 1.09316
269, 3, bw, filler, NA, 999, 999, 6, 3, 153, 168, 191, 108, 56, 143, 1, 4.15083
269, 3, bw, filler, NA, 999, 999, 6, 3, 153, 168, 191, 108, 56, 143, 3, 0.534746
269, 3, bw, attraction, a-b-da, 5, 3, 6, 4, 190, 117, 120, 195, 195, 120, 2, 1.76723
269, 3, bw, attraction, a-b-da, 5, 3, 6, 4, 190, 117, 120, 195, 195, 120, 1, 1.3033
269, 3, bw, attraction, a-b-db, 5, 2, 6, 5, 90, 165, 165, 90, 88, 161, 1, 3.00085
269, 3, bw, attraction, a-b-db, 5, 2, 6, 5, 90, 165, 165, 90, 88, 161, 2, 0.471106
269, 3, bw, attraction, a-b-da, 5, 1, 6, 6, 60, 135, 132, 58, 135, 60, 1, 1.29836
269, 3, bw, attraction, a-b-da, 5, 1, 6, 6, 60, 135, 132, 58, 135, 60, 2, 0.549291
269, 3, bw, filler, NA, 999, 999, 6, 7, 179, 72, 153, 67, 128, 63, 1, 0.765118
269, 3, bw, filler, NA, 999, 999, 6, 7, 179, 72, 153, 67, 128, 63, 3, 0.981461
269, 3, bw, filler, NA, 999, 999, 6, 8, 83, 163, 152, 66, 111, 190, 3, 0.58776
269, 3, bw, filler, NA, 999, 999, 6, 8, 83, 163, 152, 66, 111, 190, 2, 1.93158
269, 3, bw, filler, NA, 999, 999, 6, 9, 153, 195, 167, 58, 122, 75, 1, 0.771469
269, 3, bw, filler, NA, 999, 999, 6, 9, 153, 195, 167, 58, 122, 75, 3, 0.451263
269, 3, bw, attraction, a-b-db, 9, 1, 6, 10, 135, 60, 57, 129, 60, 135, 1, 2.71911
269, 3, bw, attraction, a-b-db, 9, 1, 6, 10, 135, 60, 57, 129, 60, 135, 2, 0.520881
269, 3, bw, attraction, a-b-da, 9, 1, 6, 11, 129, 57, 60, 135, 135, 60, 2, 0.970097
269, 3, bw, attraction, a-b-da, 9, 1, 6, 11, 129, 57, 60, 135, 135, 60, 1, 0.554436
269, 3, bw, attraction, a-b-db, 5, 3, 6, 12, 120, 195, 195, 120, 117, 190, 1, 1.3061
269, 3, bw, attraction, a-b-db, 5, 3, 6, 12, 120, 195, 195, 120, 117, 190, 2, 0.660292
269, 3, bw, attraction, a-b-db, 9, 2, 6, 13, 86, 157, 165, 90, 90, 165, 3, 0.919363
269, 3, bw, attraction, a-b-db, 9, 2, 6, 13, 86, 157, 165, 90, 90, 165, 2, 0.889765
269, 3, bw, attraction, a-b-db, 2, 2, 6, 14, 90, 165, 165, 90, 89, 163, 2, 1.73201
269, 3, bw, attraction, a-b-db, 2, 2, 6, 14, 90, 165, 165, 90, 89, 163, 1, 0.445445
269, 3, bw, attraction, a-b-db, 14, 3, 6, 15, 120, 195, 111, 181, 195, 120, 1, 1.35327
269, 3, bw, attraction, a-b-db, 14, 3, 6, 15, 120, 195, 111, 181, 195, 120, 2, 1.17818
269, 3, bw, attraction, a-b-db, 14, 1, 6, 16, 135, 60, 56, 125, 60, 135, 1, 1.30453
269, 3, bw, attraction, a-b-db, 14, 1, 6, 16, 135, 60, 56, 125, 60, 135, 2, 0.682612
269, 3, bw, attraction, a-b-da, 9, 2, 6, 17, 165, 90, 157, 86, 90, 165, 3, 2.75708
269, 3, bw, attraction, a-b-da, 9, 2, 6, 17, 165, 90, 157, 86, 90, 165, 2, 1.42871
269, 3, bw, filler, NA, 999, 999, 6, 18, 61, 131, 107, 61, 122, 182, 3, 0.913036
269, 3, bw, filler, NA, 999, 999, 6, 18, 61, 131, 107, 61, 122, 182, 2, 0.579397
269, 3, bw, attraction, a-b-da, 5, 2, 6, 19, 161, 88, 90, 165, 165, 90, 3, 1.92181
269, 3, bw, attraction, a-b-da, 5, 2, 6, 19, 161, 88, 90, 165, 165, 90, 1, 0.675238
269, 3, bw, catch, NA, 999, 999, 6, 20, 128, 187, 143, 112, 84, 111, 1, 0.565583
269, 3, bw, catch, NA, 999, 999, 6, 20, 128, 187, 143, 112, 84, 111, 3, 0.421981
269, 3, bw, catch, NA, 999, 999, 6, 21, 121, 194, 104, 91, 117, 138, 1, 0.51517
269, 3, bw, catch, NA, 999, 999, 6, 21, 121, 194, 104, 91, 117, 138, 2, 0.64567
269, 3, bw, filler, NA, 999, 999, 6, 22, 79, 158, 187, 118, 167, 132, 3, 3.36933
269, 3, bw, filler, NA, 999, 999, 6, 22, 79, 158, 187, 118, 167, 132, 1, 0.576928
269, 3, bw, filler, NA, 999, 999, 6, 23, 147, 185, 127, 85, 184, 111, 1, 3.05542
269, 3, bw, filler, NA, 999, 999, 6, 23, 147, 185, 127, 85, 184, 111, 2, 0.483069
269, 3, bw, attraction, a-b-db, 9, 3, 6, 24, 195, 120, 120, 195, 114, 186, 2, 1.21352
269, 3, bw, attraction, a-b-db, 9, 3, 6, 24, 195, 120, 120, 195, 114, 186, 3, 1.73177
269, 3, bw, catch, NA, 999, 999, 6, 25, 187, 128, 121, 74, 156, 99, 1, 0.628007
269, 3, bw, catch, NA, 999, 999, 6, 25, 187, 128, 121, 74, 156, 99, 2, 0.737558
269, 3, bw, attraction, a-b-db, 14, 2, 6, 26, 90, 165, 83, 153, 165, 90, 3, 0.945965
269, 3, bw, attraction, a-b-db, 14, 2, 6, 26, 90, 165, 83, 153, 165, 90, 2, 0.939147
269, 3, bw, attraction, a-b-db, 2, 3, 6, 27, 120, 195, 195, 120, 119, 193, 2, 1.14754
269, 3, bw, attraction, a-b-db, 2, 3, 6, 27, 120, 195, 195, 120, 119, 193, 1, 0.564323
269, 3, bw, attraction, a-b-da, 2, 2, 6, 28, 90, 165, 165, 90, 163, 89, 3, 6.13148
269, 3, bw, attraction, a-b-da, 2, 2, 6, 28, 90, 165, 165, 90, 163, 89, 2, 1.55538
269, 3, bw, filler, NA, 999, 999, 6, 29, 104, 132, 170, 113, 147, 181, 3, 0.994932
269, 3, bw, filler, NA, 999, 999, 6, 29, 104, 132, 170, 113, 147, 181, 1, 0.705794
269, 3, bw, attraction, a-b-db, 5, 1, 6, 30, 58, 132, 60, 135, 135, 60, 2, 3.58762
269, 3, bw, attraction, a-b-db, 5, 1, 6, 30, 58, 132, 60, 135, 135, 60, 1, 0.546433
269, 3, bw, attraction, a-b-da, 14, 1, 6, 31, 135, 60, 60, 135, 125, 56, 1, 3.52225
269, 3, bw, attraction, a-b-da, 14, 1, 6, 31, 135, 60, 60, 135, 125, 56, 2, 0.755132
269, 3, bw, attraction, a-b-db, 2, 1, 6, 32, 60, 135, 59, 134, 135, 60, 3, 1.16279
269, 3, bw, attraction, a-b-db, 2, 1, 6, 32, 60, 135, 59, 134, 135, 60, 1, 0.371137
269, 3, bw, attraction, a-b-da, 2, 3, 6, 33, 120, 195, 195, 120, 193, 119, 1, 4.35421
269, 3, bw, attraction, a-b-da, 2, 3, 6, 33, 120, 195, 195, 120, 193, 119, 2, 0.762155
269, 3, bw, attraction, a-b-da, 9, 3, 6, 34, 120, 195, 195, 120, 186, 114, 1, 4.53719
269, 3, bw, attraction, a-b-da, 9, 3, 6, 34, 120, 195, 195, 120, 186, 114, 2, 0.593871
269, 3, bw, filler, NA, 999, 999, 6, 35, 142, 134, 139, 162, 117, 68, 2, 0.871523
269, 3, bw, filler, NA, 999, 999, 6, 35, 142, 134, 139, 162, 117, 68, 3, 0.659391
269, 3, bw, attraction, a-b-da, 14, 3, 6, 36, 120, 195, 195, 120, 181, 111, 1, 3.44622
269, 3, bw, attraction, a-b-da, 14, 3, 6, 36, 120, 195, 195, 120, 181, 111, 2, 0.618593
269, 3, bw, attraction, a-b-da, 2, 1, 6, 37, 60, 135, 135, 60, 134, 59, 3, 2.30369
269, 3, bw, attraction, a-b-da, 2, 1, 6, 37, 60, 135, 135, 60, 134, 59, 1, 0.418118
269, 3, bw, filler, NA, 999, 999, 7, 1, 135, 159, 136, 133, 175, 155, 3, 0.551362
269, 3, bw, filler, NA, 999, 999, 7, 1, 135, 159, 136, 133, 175, 155, 2, 0.624576
269, 3, bw, attraction, a-b-da, 5, 1, 7, 2, 132, 58, 60, 135, 135, 60, 3, 1.39683
269, 3, bw, attraction, a-b-da, 5, 1, 7, 2, 132, 58, 60, 135, 135, 60, 2, 0.563764
269, 3, bw, attraction, a-b-da, 14, 3, 7, 3, 120, 195, 181, 111, 195, 120, 3, 1.57885
269, 3, bw, attraction, a-b-da, 14, 3, 7, 3, 120, 195, 181, 111, 195, 120, 2, 0.594325
269, 3, bw, filler, NA, 999, 999, 7, 4, 62, 99, 158, 110, 180, 123, 3, 0.848064
269, 3, bw, filler, NA, 999, 999, 7, 4, 62, 99, 158, 110, 180, 123, 1, 0.517254
269, 3, bw, attraction, a-b-da, 14, 1, 7, 5, 135, 60, 125, 56, 60, 135, 1, 3.74221
269, 3, bw, attraction, a-b-da, 14, 1, 7, 5, 135, 60, 125, 56, 60, 135, 2, 0.398385
269, 3, bw, attraction, a-b-db, 5, 1, 7, 6, 58, 132, 135, 60, 60, 135, 2, 1.03623
269, 3, bw, attraction, a-b-db, 5, 1, 7, 6, 58, 132, 135, 60, 60, 135, 1, 0.521861
269, 3, bw, attraction, a-b-da, 5, 2, 7, 7, 161, 88, 165, 90, 90, 165, 3, 2.60308
269, 3, bw, attraction, a-b-da, 5, 2, 7, 7, 161, 88, 165, 90, 90, 165, 2, 0.473466
269, 3, bw, attraction, a-b-da, 2, 1, 7, 8, 134, 59, 60, 135, 135, 60, 3, 1.35594
269, 3, bw, attraction, a-b-da, 2, 1, 7, 8, 134, 59, 60, 135, 135, 60, 2, 0.420098
269, 3, bw, attraction, a-b-da, 2, 3, 7, 9, 193, 119, 120, 195, 195, 120, 2, 1.96936
269, 3, bw, attraction, a-b-da, 2, 3, 7, 9, 193, 119, 120, 195, 195, 120, 1, 0.761366
269, 3, bw, attraction, a-b-db, 2, 2, 7, 10, 89, 163, 165, 90, 90, 165, 3, 1.20844
269, 3, bw, attraction, a-b-db, 2, 2, 7, 10, 89, 163, 165, 90, 90, 165, 2, 0.566658
269, 3, bw, filler, NA, 999, 999, 7, 11, 58, 175, 129, 140, 103, 153, 2, 0.733702
269, 3, bw, filler, NA, 999, 999, 7, 11, 58, 175, 129, 140, 103, 153, 1, 0.519519
269, 3, bw, attraction, a-b-db, 14, 3, 7, 12, 111, 181, 195, 120, 120, 195, 3, 1.32858
269, 3, bw, attraction, a-b-db, 14, 3, 7, 12, 111, 181, 195, 120, 120, 195, 1, 1.01803
269, 3, bw, attraction, a-b-db, 9, 2, 7, 13, 165, 90, 90, 165, 86, 157, 2, 1.31101
269, 3, bw, attraction, a-b-db, 9, 2, 7, 13, 165, 90, 90, 165, 86, 157, 1, 0.409223
269, 3, bw, attraction, a-b-da, 5, 3, 7, 14, 120, 195, 195, 120, 190, 117, 1, 1.58256
269, 3, bw, attraction, a-b-da, 5, 3, 7, 14, 120, 195, 195, 120, 190, 117, 2, 0.349974
269, 3, bw, filler, NA, 999, 999, 7, 15, 76, 168, 194, 108, 68, 191, 2, 0.637968
269, 3, bw, filler, NA, 999, 999, 7, 15, 76, 168, 194, 108, 68, 191, 1, 0.418858
269, 3, bw, attraction, a-b-db, 9, 1, 7, 16, 60, 135, 135, 60, 57, 129, 1, 1.01603
269, 3, bw, attraction, a-b-db, 9, 1, 7, 16, 60, 135, 135, 60, 57, 129, 2, 1.01432
269, 3, bw, filler, NA, 999, 999, 7, 17, 127, 139, 185, 118, 92, 177, 2, 0.611382
269, 3, bw, filler, NA, 999, 999, 7, 17, 127, 139, 185, 118, 92, 177, 1, 1.06579
269, 3, bw, attraction, a-b-db, 2, 1, 7, 18, 60, 135, 59, 134, 135, 60, 3, 0.82874
269, 3, bw, attraction, a-b-db, 2, 1, 7, 18, 60, 135, 59, 134, 135, 60, 2, 1.21044
269, 3, bw, attraction, a-b-da, 9, 1, 7, 19, 60, 135, 129, 57, 135, 60, 3, 1.58324
269, 3, bw, attraction, a-b-da, 9, 1, 7, 19, 60, 135, 129, 57, 135, 60, 2, 0.87071
269, 3, bw, attraction, a-b-db, 2, 3, 7, 20, 195, 120, 119, 193, 120, 195, 3, 1.79376
269, 3, bw, attraction, a-b-db, 2, 3, 7, 20, 195, 120, 119, 193, 120, 195, 1, 1.30449
269, 3, bw, attraction, a-b-da, 9, 2, 7, 21, 157, 86, 165, 90, 90, 165, 3, 3.64211
269, 3, bw, attraction, a-b-da, 9, 2, 7, 21, 157, 86, 165, 90, 90, 165, 2, 1.04621
269, 3, bw, attraction, a-b-da, 14, 2, 7, 22, 153, 83, 90, 165, 165, 90, 2, 1.12179
269, 3, bw, attraction, a-b-da, 14, 2, 7, 22, 153, 83, 90, 165, 165, 90, 1, 0.539412
269, 3, bw, attraction, a-b-db, 5, 3, 7, 23, 117, 190, 120, 195, 195, 120, 2, 4.17997
269, 3, bw, attraction, a-b-db, 5, 3, 7, 23, 117, 190, 120, 195, 195, 120, 1, 1.79462
269, 3, bw, catch, NA, 999, 999, 7, 24, 171, 144, 96, 99, 162, 93, 1, 0.823929
269, 3, bw, catch, NA, 999, 999, 7, 24, 171, 144, 96, 99, 162, 93, 2, 0.733879
269, 3, bw, attraction, a-b-db, 14, 2, 7, 25, 83, 153, 165, 90, 90, 165, 3, 1.68605
269, 3, bw, attraction, a-b-db, 14, 2, 7, 25, 83, 153, 165, 90, 90, 165, 1, 1.6335
269, 3, bw, filler, NA, 999, 999, 7, 26, 82, 86, 183, 93, 194, 109, 3, 0.941551
269, 3, bw, filler, NA, 999, 999, 7, 26, 82, 86, 183, 93, 194, 109, 1, 0.598534
269, 3, bw, catch, NA, 999, 999, 7, 27, 192, 123, 161, 94, 96, 99, 1, 0.508359
269, 3, bw, catch, NA, 999, 999, 7, 27, 192, 123, 161, 94, 96, 99, 3, 0.342904
269, 3, bw, attraction, a-b-db, 5, 2, 7, 28, 88, 161, 90, 165, 165, 90, 2, 2.05484
269, 3, bw, attraction, a-b-db, 5, 2, 7, 28, 88, 161, 90, 165, 165, 90, 1, 0.467363
269, 3, bw, filler, NA, 999, 999, 7, 29, 83, 119, 124, 164, 173, 141, 3, 1.7825
269, 3, bw, filler, NA, 999, 999, 7, 29, 83, 119, 124, 164, 173, 141, 1, 0.758007
269, 3, bw, attraction, a-b-da, 2, 2, 7, 30, 163, 89, 90, 165, 165, 90, 2, 1.04492
269, 3, bw, attraction, a-b-da, 2, 2, 7, 30, 163, 89, 90, 165, 165, 90, 1, 1.01791
269, 3, bw, catch, NA, 999, 999, 7, 31, 90, 105, 90, 165, 143, 172, 3, 0.494852
269, 3, bw, catch, NA, 999, 999, 7, 31, 90, 105, 90, 165, 143, 172, 1, 0.713978
269, 3, bw, filler, NA, 999, 999, 7, 32, 186, 191, 126, 95, 90, 155, 1, 0.499019
269, 3, bw, filler, NA, 999, 999, 7, 32, 186, 191, 126, 95, 90, 155, 2, 0.870222
269, 3, bw, attraction, a-b-da, 9, 3, 7, 33, 195, 120, 186, 114, 120, 195, 3, 1.26524
269, 3, bw, attraction, a-b-da, 9, 3, 7, 33, 195, 120, 186, 114, 120, 195, 2, 0.725521
269, 3, bw, attraction, a-b-db, 9, 3, 7, 34, 114, 186, 195, 120, 120, 195, 3, 1.86184
269, 3, bw, attraction, a-b-db, 9, 3, 7, 34, 114, 186, 195, 120, 120, 195, 2, 2.02596
269, 3, bw, filler, NA, 999, 999, 7, 35, 135, 178, 161, 190, 176, 172, 2, 1.16586
269, 3, bw, filler, NA, 999, 999, 7, 35, 135, 178, 161, 190, 176, 172, 1, 0.790209
269, 3, bw, attraction, a-b-db, 14, 1, 7, 36, 56, 125, 60, 135, 135, 60, 3, 2.16406
269, 3, bw, attraction, a-b-db, 14, 1, 7, 36, 56, 125, 60, 135, 135, 60, 1, 0.579824
269, 3, bw, filler, NA, 999, 999, 7, 37, 155, 86, 91, 125, 82, 177, 3, 1.58626
269, 3, bw, filler, NA, 999, 999, 7, 37, 155, 86, 91, 125, 82, 177, 2, 0.441898
269, 3, bw, attraction, a-b-db, 14, 2, 8, 1, 165, 90, 83, 153, 90, 165, 3, 4.02953
269, 3, bw, attraction, a-b-db, 14, 2, 8, 1, 165, 90, 83, 153, 90, 165, 2, 0.402251
269, 3, bw, catch, NA, 999, 999, 8, 2, 116, 139, 77, 118, 133, 182, 3, 0.520043
269, 3, bw, catch, NA, 999, 999, 8, 2, 116, 139, 77, 118, 133, 182, 2, 0.426581
269, 3, bw, attraction, a-b-da, 14, 1, 8, 3, 135, 60, 125, 56, 60, 135, 1, 0.663065
269, 3, bw, attraction, a-b-da, 14, 1, 8, 3, 135, 60, 125, 56, 60, 135, 2, 0.467408
269, 3, bw, filler, NA, 999, 999, 8, 4, 128, 166, 67, 66, 98, 79, 1, 0.462569
269, 3, bw, filler, NA, 999, 999, 8, 4, 128, 166, 67, 66, 98, 79, 2, 0.411106
269, 3, bw, attraction, a-b-db, 5, 2, 8, 5, 165, 90, 88, 161, 90, 165, 2, 0.808186
269, 3, bw, attraction, a-b-db, 5, 2, 8, 5, 165, 90, 88, 161, 90, 165, 1, 0.718606
269, 3, bw, attraction, a-b-da, 9, 1, 8, 6, 60, 135, 135, 60, 129, 57, 1, 0.743679
269, 3, bw, attraction, a-b-da, 9, 1, 8, 6, 60, 135, 135, 60, 129, 57, 2, 0.656759
269, 3, bw, filler, NA, 999, 999, 8, 7, 81, 88, 111, 127, 60, 165, 2, 0.587769
269, 3, bw, filler, NA, 999, 999, 8, 7, 81, 88, 111, 127, 60, 165, 1, 0.354911
269, 3, bw, attraction, a-b-da, 9, 2, 8, 8, 90, 165, 157, 86, 165, 90, 1, 0.954725
269, 3, bw, attraction, a-b-da, 9, 2, 8, 8, 90, 165, 157, 86, 165, 90, 2, 0.307118
269, 3, bw, attraction, a-b-da, 5, 3, 8, 9, 120, 195, 190, 117, 195, 120, 3, 1.39625
269, 3, bw, attraction, a-b-da, 5, 3, 8, 9, 120, 195, 190, 117, 195, 120, 2, 1.23524
269, 3, bw, filler, NA, 999, 999, 8, 10, 127, 160, 183, 152, 170, 156, 3, 0.975312
269, 3, bw, filler, NA, 999, 999, 8, 10, 127, 160, 183, 152, 170, 156, 1, 0.534958
269, 3, bw, attraction, a-b-da, 5, 1, 8, 11, 135, 60, 60, 135, 132, 58, 2, 1.11154
269, 3, bw, attraction, a-b-da, 5, 1, 8, 11, 135, 60, 60, 135, 132, 58, 1, 0.545872
269, 3, bw, attraction, a-b-db, 2, 3, 8, 12, 119, 193, 195, 120, 120, 195, 1, 0.785505
269, 3, bw, attraction, a-b-db, 2, 3, 8, 12, 119, 193, 195, 120, 120, 195, 2, 0.32918
269, 3, bw, filler, NA, 999, 999, 8, 13, 136, 166, 68, 77, 142, 134, 1, 0.425766
269, 3, bw, filler, NA, 999, 999, 8, 13, 136, 166, 68, 77, 142, 134, 2, 0.423574
269, 3, bw, filler, NA, 999, 999, 8, 14, 79, 152, 154, 128, 171, 138, 3, 1.27614
269, 3, bw, filler, NA, 999, 999, 8, 14, 79, 152, 154, 128, 171, 138, 1, 0.375636
269, 3, bw, filler, NA, 999, 999, 8, 15, 97, 183, 75, 164, 138, 139, 3, 1.35815
269, 3, bw, filler, NA, 999, 999, 8, 15, 97, 183, 75, 164, 138, 139, 2, 0.662334
269, 3, bw, attraction, a-b-da, 9, 3, 8, 16, 195, 120, 186, 114, 120, 195, 3, 1.2254
269, 3, bw, attraction, a-b-da, 9, 3, 8, 16, 195, 120, 186, 114, 120, 195, 2, 0.415007
269, 3, bw, attraction, a-b-da, 2, 2, 8, 17, 163, 89, 165, 90, 90, 165, 2, 0.68434
269, 3, bw, attraction, a-b-da, 2, 2, 8, 17, 163, 89, 165, 90, 90, 165, 1, 0.775955
269, 3, bw, attraction, a-b-da, 2, 3, 8, 18, 120, 195, 193, 119, 195, 120, 1, 0.670197
269, 3, bw, attraction, a-b-da, 2, 3, 8, 18, 120, 195, 193, 119, 195, 120, 3, 0.778648
269, 3, bw, attraction, a-b-db, 2, 1, 8, 19, 60, 135, 135, 60, 59, 134, 2, 2.14525
269, 3, bw, attraction, a-b-db, 2, 1, 8, 19, 60, 135, 135, 60, 59, 134, 3, 1.32968
269, 3, bw, attraction, a-b-db, 5, 1, 8, 20, 58, 132, 135, 60, 60, 135, 2, 1.52195
269, 3, bw, attraction, a-b-db, 5, 1, 8, 20, 58, 132, 135, 60, 60, 135, 1, 0.563341
269, 3, bw, catch, NA, 999, 999, 8, 21, 150, 165, 161, 94, 123, 72, 1, 0.466433
269, 3, bw, catch, NA, 999, 999, 8, 21, 150, 165, 161, 94, 123, 72, 3, 1.039
269, 3, bw, filler, NA, 999, 999, 8, 22, 122, 109, 171, 91, 61, 70, 2, 0.995271
269, 3, bw, filler, NA, 999, 999, 8, 22, 122, 109, 171, 91, 61, 70, 3, 0.498314
269, 3, bw, attraction, a-b-da, 2, 1, 8, 23, 135, 60, 60, 135, 134, 59, 3, 1.94006
269, 3, bw, attraction, a-b-da, 2, 1, 8, 23, 135, 60, 60, 135, 134, 59, 2, 0.636839
269, 3, bw, attraction, a-b-db, 14, 1, 8, 24, 56, 125, 60, 135, 135, 60, 3, 1.04921
269, 3, bw, attraction, a-b-db, 14, 1, 8, 24, 56, 125, 60, 135, 135, 60, 1, 0.534144
269, 3, bw, filler, NA, 999, 999, 8, 25, 145, 192, 159, 118, 181, 157, 3, 2.65469
269, 3, bw, filler, NA, 999, 999, 8, 25, 145, 192, 159, 118, 181, 157, 2, 0.490563
269, 3, bw, attraction, a-b-db, 9, 1, 8, 26, 60, 135, 135, 60, 57, 129, 2, 1.86026
269, 3, bw, attraction, a-b-db, 9, 1, 8, 26, 60, 135, 135, 60, 57, 129, 1, 0.408229
269, 3, bw, attraction, a-b-da, 14, 2, 8, 27, 153, 83, 90, 165, 165, 90, 3, 1.72547
269, 3, bw, attraction, a-b-da, 14, 2, 8, 27, 153, 83, 90, 165, 165, 90, 1, 0.974841
269, 3, bw, attraction, a-b-db, 5, 3, 8, 28, 195, 120, 120, 195, 117, 190, 2, 1.32509
269, 3, bw, attraction, a-b-db, 5, 3, 8, 28, 195, 120, 120, 195, 117, 190, 1, 0.542688
269, 3, bw, filler, NA, 999, 999, 8, 29, 102, 195, 89, 81, 179, 177, 3, 0.518499
269, 3, bw, filler, NA, 999, 999, 8, 29, 102, 195, 89, 81, 179, 177, 2, 0.592969
269, 3, bw, attraction, a-b-db, 9, 2, 8, 30, 165, 90, 90, 165, 86, 157, 1, 2.48665
269, 3, bw, attraction, a-b-db, 9, 2, 8, 30, 165, 90, 90, 165, 86, 157, 3, 0.409877
269, 3, bw, attraction, a-b-da, 5, 2, 8, 31, 90, 165, 165, 90, 161, 88, 2, 1.92704
269, 3, bw, attraction, a-b-da, 5, 2, 8, 31, 90, 165, 165, 90, 161, 88, 1, 0.424394
269, 3, bw, attraction, a-b-da, 14, 3, 8, 32, 181, 111, 120, 195, 195, 120, 2, 1.19695
269, 3, bw, attraction, a-b-da, 14, 3, 8, 32, 181, 111, 120, 195, 195, 120, 1, 0.379788
269, 3, bw, catch, NA, 999, 999, 8, 33, 144, 171, 163, 92, 75, 120, 1, 0.89032
269, 3, bw, catch, NA, 999, 999, 8, 33, 144, 171, 163, 92, 75, 120, 3, 0.773414
269, 3, bw, attraction, a-b-db, 9, 3, 8, 34, 195, 120, 114, 186, 120, 195, 3, 2.10771
269, 3, bw, attraction, a-b-db, 9, 3, 8, 34, 195, 120, 114, 186, 120, 195, 2, 0.525582
269, 3, bw, attraction, a-b-db, 2, 2, 8, 35, 89, 163, 90, 165, 165, 90, 3, 2.28605
269, 3, bw, attraction, a-b-db, 2, 2, 8, 35, 89, 163, 90, 165, 165, 90, 1, 1.20127
269, 3, bw, attraction, a-b-db, 14, 3, 8, 36, 120, 195, 111, 181, 195, 120, 3, 1.43888
269, 3, bw, attraction, a-b-db, 14, 3, 8, 36, 120, 195, 111, 181, 195, 120, 2, 0.452177
269, 3, bw, filler, NA, 999, 999, 8, 37, 129, 159, 155, 112, 159, 154, 3, 0.735554
269, 3, bw, filler, NA, 999, 999, 8, 37, 129, 159, 155, 112, 159, 154, 2, 0.633259
