sub_n, computer_n, bw_cond, effect, set, distance, diag, block_n, trial_n, h1, w1, h2, w2, h3, w3, choice, rt 
22, 3, wb, practice, NA, 999, 999, 0, 1, 158, 66, 88, 83, 142, 60, 2, 3.26102
22, 3, wb, practice, NA, 999, 999, 0, 1, 158, 66, 88, 83, 142, 60, 1, 2.31961
22, 3, wb, practice, NA, 999, 999, 0, 2, 56, 98, 130, 105, 103, 116, 1, 1.99699
22, 3, wb, practice, NA, 999, 999, 0, 2, 56, 98, 130, 105, 103, 116, 2, 2.24402
22, 3, wb, practice, NA, 999, 999, 0, 3, 153, 177, 152, 188, 87, 178, 3, 2.91588
22, 3, wb, practice, NA, 999, 999, 0, 3, 153, 177, 152, 188, 87, 178, 2, 1.45483
22, 3, wb, filler, NA, 999, 999, 1, 1, 111, 74, 183, 168, 163, 161, 1, 2.29707
22, 3, wb, filler, NA, 999, 999, 1, 1, 111, 74, 183, 168, 163, 161, 2, 2.34627
22, 3, wb, catch, NA, 999, 999, 1, 2, 117, 138, 74, 121, 167, 148, 2, 1.50044
22, 3, wb, catch, NA, 999, 999, 1, 2, 117, 138, 74, 121, 167, 148, 3, 1.94349
22, 3, wb, filler, NA, 999, 999, 1, 3, 144, 124, 96, 116, 194, 123, 2, 1.6469
22, 3, wb, filler, NA, 999, 999, 1, 3, 144, 124, 96, 116, 194, 123, 3, 1.93159
22, 3, wb, attraction, a-b-da, 14, 1, 1, 4, 60, 135, 125, 56, 135, 60, 2, 6.13173
22, 3, wb, attraction, a-b-da, 14, 1, 1, 4, 60, 135, 125, 56, 135, 60, 3, 4.86535
22, 3, wb, filler, NA, 999, 999, 1, 5, 144, 123, 188, 156, 69, 172, 3, 2.55574
22, 3, wb, filler, NA, 999, 999, 1, 5, 144, 123, 188, 156, 69, 172, 2, 2.26409
22, 3, wb, attraction, a-b-db, 9, 3, 1, 6, 114, 186, 120, 195, 195, 120, 1, 6.28318
22, 3, wb, attraction, a-b-db, 9, 3, 1, 6, 114, 186, 120, 195, 195, 120, 2, 2.66633
22, 3, wb, filler, NA, 999, 999, 1, 7, 86, 78, 185, 133, 141, 98, 1, 1.82858
22, 3, wb, filler, NA, 999, 999, 1, 7, 86, 78, 185, 133, 141, 98, 2, 1.43568
22, 3, wb, filler, NA, 999, 999, 1, 8, 117, 133, 136, 84, 178, 92, 2, 3.51065
22, 3, wb, filler, NA, 999, 999, 1, 8, 117, 133, 136, 84, 178, 92, 1, 3.34706
22, 3, wb, attraction, a-b-db, 2, 2, 1, 9, 165, 90, 90, 165, 89, 163, 3, 7.14431
22, 3, wb, attraction, a-b-db, 2, 2, 1, 9, 165, 90, 90, 165, 89, 163, 2, 1.89598
22, 3, wb, attraction, a-b-da, 14, 2, 1, 10, 153, 83, 165, 90, 90, 165, 1, 2.61039
22, 3, wb, attraction, a-b-da, 14, 2, 1, 10, 153, 83, 165, 90, 90, 165, 3, 2.31269
22, 3, wb, filler, NA, 999, 999, 1, 11, 152, 62, 155, 92, 154, 149, 1, 2.15203
22, 3, wb, filler, NA, 999, 999, 1, 11, 152, 62, 155, 92, 154, 149, 3, 1.06599
22, 3, wb, catch, NA, 999, 999, 1, 12, 100, 95, 157, 98, 173, 142, 1, 1.54783
22, 3, wb, catch, NA, 999, 999, 1, 12, 100, 95, 157, 98, 173, 142, 3, 1.78219
22, 3, wb, attraction, a-b-db, 9, 2, 1, 13, 165, 90, 86, 157, 90, 165, 1, 3.69941
22, 3, wb, attraction, a-b-db, 9, 2, 1, 13, 165, 90, 86, 157, 90, 165, 3, 2.12667
22, 3, wb, catch, NA, 999, 999, 1, 14, 140, 115, 65, 130, 193, 122, 2, 2.44528
22, 3, wb, catch, NA, 999, 999, 1, 14, 140, 115, 65, 130, 193, 122, 3, 1.03344
22, 3, wb, attraction, a-b-db, 5, 2, 1, 15, 90, 165, 165, 90, 88, 161, 3, 1.68782
22, 3, wb, attraction, a-b-db, 5, 2, 1, 15, 90, 165, 165, 90, 88, 161, 1, 1.27522
22, 3, wb, attraction, a-b-da, 5, 3, 1, 16, 195, 120, 190, 117, 120, 195, 1, 3.76525
22, 3, wb, attraction, a-b-da, 5, 3, 1, 16, 195, 120, 190, 117, 120, 195, 3, 1.2056
22, 3, wb, attraction, a-b-db, 2, 1, 1, 17, 60, 135, 59, 134, 135, 60, 3, 6.07541
22, 3, wb, attraction, a-b-db, 2, 1, 1, 17, 60, 135, 59, 134, 135, 60, 1, 1.56522
22, 3, wb, attraction, a-b-da, 5, 2, 1, 18, 90, 165, 161, 88, 165, 90, 2, 16.2197
22, 3, wb, attraction, a-b-da, 5, 2, 1, 18, 90, 165, 161, 88, 165, 90, 1, 0.772578
22, 3, wb, filler, NA, 999, 999, 1, 19, 160, 83, 161, 107, 124, 172, 1, 1.79684
22, 3, wb, filler, NA, 999, 999, 1, 19, 160, 83, 161, 107, 124, 172, 3, 3.34606
22, 3, wb, attraction, a-b-da, 5, 1, 1, 20, 132, 58, 60, 135, 135, 60, 2, 3.63479
22, 3, wb, attraction, a-b-da, 5, 1, 1, 20, 132, 58, 60, 135, 135, 60, 3, 2.47367
22, 3, wb, attraction, a-b-db, 5, 1, 1, 21, 60, 135, 135, 60, 58, 132, 3, 2.11424
22, 3, wb, attraction, a-b-db, 5, 1, 1, 21, 60, 135, 135, 60, 58, 132, 1, 1.19008
22, 3, wb, attraction, a-b-db, 2, 3, 1, 22, 120, 195, 119, 193, 195, 120, 1, 3.41886
22, 3, wb, attraction, a-b-db, 2, 3, 1, 22, 120, 195, 119, 193, 195, 120, 3, 1.53577
22, 3, wb, attraction, a-b-db, 9, 1, 1, 23, 60, 135, 135, 60, 57, 129, 3, 2.02239
22, 3, wb, attraction, a-b-db, 9, 1, 1, 23, 60, 135, 135, 60, 57, 129, 2, 0.973265
22, 3, wb, filler, NA, 999, 999, 1, 24, 170, 74, 59, 170, 176, 178, 2, 2.21313
22, 3, wb, filler, NA, 999, 999, 1, 24, 170, 74, 59, 170, 176, 178, 3, 1.00307
22, 3, wb, attraction, a-b-db, 14, 2, 1, 25, 90, 165, 165, 90, 83, 153, 3, 1.56939
22, 3, wb, attraction, a-b-db, 14, 2, 1, 25, 90, 165, 165, 90, 83, 153, 1, 1.22565
22, 3, wb, attraction, a-b-da, 2, 3, 1, 26, 193, 119, 195, 120, 120, 195, 3, 1.81406
22, 3, wb, attraction, a-b-da, 2, 3, 1, 26, 193, 119, 195, 120, 120, 195, 2, 1.02806
22, 3, wb, attraction, a-b-da, 9, 2, 1, 27, 90, 165, 165, 90, 157, 86, 1, 2.42314
22, 3, wb, attraction, a-b-da, 9, 2, 1, 27, 90, 165, 165, 90, 157, 86, 3, 1.26357
22, 3, wb, attraction, a-b-da, 14, 3, 1, 28, 181, 111, 120, 195, 195, 120, 2, 2.26724
22, 3, wb, attraction, a-b-da, 14, 3, 1, 28, 181, 111, 120, 195, 195, 120, 1, 1.07912
22, 3, wb, attraction, a-b-da, 9, 3, 1, 29, 120, 195, 195, 120, 186, 114, 1, 2.63363
22, 3, wb, attraction, a-b-da, 9, 3, 1, 29, 120, 195, 195, 120, 186, 114, 2, 0.733794
22, 3, wb, attraction, a-b-da, 9, 1, 1, 30, 129, 57, 135, 60, 60, 135, 1, 2.5025
22, 3, wb, attraction, a-b-da, 9, 1, 1, 30, 129, 57, 135, 60, 60, 135, 3, 1.36127
22, 3, wb, filler, NA, 999, 999, 1, 31, 141, 155, 56, 140, 68, 184, 2, 1.32871
22, 3, wb, filler, NA, 999, 999, 1, 31, 141, 155, 56, 140, 68, 184, 1, 0.81864
22, 3, wb, attraction, a-b-db, 14, 1, 1, 32, 60, 135, 135, 60, 56, 125, 3, 2.26406
22, 3, wb, attraction, a-b-db, 14, 1, 1, 32, 60, 135, 135, 60, 56, 125, 1, 1.20403
22, 3, wb, attraction, a-b-da, 2, 1, 1, 33, 134, 59, 60, 135, 135, 60, 1, 8.97039
22, 3, wb, attraction, a-b-da, 2, 1, 1, 33, 134, 59, 60, 135, 135, 60, 3, 1.08564
22, 3, wb, filler, NA, 999, 999, 1, 34, 144, 116, 172, 187, 181, 114, 1, 2.92985
22, 3, wb, filler, NA, 999, 999, 1, 34, 144, 116, 172, 187, 181, 114, 2, 0.987034
22, 3, wb, attraction, a-b-da, 2, 2, 1, 35, 90, 165, 163, 89, 165, 90, 3, 6.23037
22, 3, wb, attraction, a-b-da, 2, 2, 1, 35, 90, 165, 163, 89, 165, 90, 1, 0.86754
22, 3, wb, attraction, a-b-db, 5, 3, 1, 36, 120, 195, 195, 120, 117, 190, 2, 1.71862
22, 3, wb, attraction, a-b-db, 5, 3, 1, 36, 120, 195, 195, 120, 117, 190, 3, 1.04882
22, 3, wb, attraction, a-b-db, 14, 3, 1, 37, 111, 181, 195, 120, 120, 195, 1, 2.39845
22, 3, wb, attraction, a-b-db, 14, 3, 1, 37, 111, 181, 195, 120, 120, 195, 3, 2.60316
22, 3, wb, attraction, a-b-db, 14, 2, 2, 1, 83, 153, 165, 90, 90, 165, 1, 3.60181
22, 3, wb, attraction, a-b-db, 14, 2, 2, 1, 83, 153, 165, 90, 90, 165, 3, 0.918693
22, 3, wb, attraction, a-b-db, 9, 2, 2, 2, 165, 90, 90, 165, 86, 157, 3, 1.76092
22, 3, wb, attraction, a-b-db, 9, 2, 2, 2, 165, 90, 90, 165, 86, 157, 1, 0.903265
22, 3, wb, catch, NA, 999, 999, 2, 3, 131, 64, 102, 153, 141, 174, 1, 2.33114
22, 3, wb, catch, NA, 999, 999, 2, 3, 131, 64, 102, 153, 141, 174, 3, 1.41003
22, 3, wb, attraction, a-b-db, 5, 2, 2, 4, 90, 165, 165, 90, 88, 161, 3, 3.06521
22, 3, wb, attraction, a-b-db, 5, 2, 2, 4, 90, 165, 165, 90, 88, 161, 2, 1.51607
22, 3, wb, attraction, a-b-da, 14, 1, 2, 5, 60, 135, 135, 60, 125, 56, 3, 1.4129
22, 3, wb, attraction, a-b-da, 14, 1, 2, 5, 60, 135, 135, 60, 125, 56, 2, 1.52218
22, 3, wb, attraction, a-b-da, 9, 1, 2, 6, 129, 57, 135, 60, 60, 135, 1, 4.60483
22, 3, wb, attraction, a-b-da, 9, 1, 2, 6, 129, 57, 135, 60, 60, 135, 3, 2.21277
22, 3, wb, attraction, a-b-da, 2, 2, 2, 7, 165, 90, 163, 89, 90, 165, 2, 14.4621
22, 3, wb, attraction, a-b-da, 2, 2, 2, 7, 165, 90, 163, 89, 90, 165, 1, 1.06197
22, 3, wb, attraction, a-b-db, 9, 1, 2, 8, 135, 60, 57, 129, 60, 135, 2, 2.89829
22, 3, wb, attraction, a-b-db, 9, 1, 2, 8, 135, 60, 57, 129, 60, 135, 1, 0.766032
22, 3, wb, attraction, a-b-da, 2, 3, 2, 9, 193, 119, 120, 195, 195, 120, 3, 5.46991
22, 3, wb, attraction, a-b-da, 2, 3, 2, 9, 193, 119, 120, 195, 195, 120, 2, 0.962709
22, 3, wb, attraction, a-b-da, 9, 2, 2, 10, 90, 165, 157, 86, 165, 90, 2, 2.23275
22, 3, wb, attraction, a-b-da, 9, 2, 2, 10, 90, 165, 157, 86, 165, 90, 1, 0.811662
22, 3, wb, filler, NA, 999, 999, 2, 11, 105, 155, 163, 101, 150, 185, 1, 7.87514
22, 3, wb, filler, NA, 999, 999, 2, 11, 105, 155, 163, 101, 150, 185, 3, 0.763316
22, 3, wb, catch, NA, 999, 999, 2, 12, 99, 96, 187, 128, 161, 94, 1, 4.17175
22, 3, wb, catch, NA, 999, 999, 2, 12, 99, 96, 187, 128, 161, 94, 2, 0.739452
22, 3, wb, filler, NA, 999, 999, 2, 13, 137, 109, 168, 183, 142, 64, 3, 4.74189
22, 3, wb, filler, NA, 999, 999, 2, 13, 137, 109, 168, 183, 142, 64, 2, 0.811984
22, 3, wb, attraction, a-b-db, 5, 1, 2, 14, 135, 60, 58, 132, 60, 135, 3, 4.17116
22, 3, wb, attraction, a-b-db, 5, 1, 2, 14, 135, 60, 58, 132, 60, 135, 2, 0.896804
22, 3, wb, attraction, a-b-da, 2, 1, 2, 15, 134, 59, 60, 135, 135, 60, 1, 2.34153
22, 3, wb, attraction, a-b-da, 2, 1, 2, 15, 134, 59, 60, 135, 135, 60, 3, 1.90869
22, 3, wb, attraction, a-b-db, 2, 2, 2, 16, 90, 165, 165, 90, 89, 163, 2, 2.9338
22, 3, wb, attraction, a-b-db, 2, 2, 2, 16, 90, 165, 165, 90, 89, 163, 1, 0.782387
22, 3, wb, attraction, a-b-db, 5, 3, 2, 17, 120, 195, 117, 190, 195, 120, 2, 4.2782
22, 3, wb, attraction, a-b-db, 5, 3, 2, 17, 120, 195, 117, 190, 195, 120, 3, 2.24975
22, 3, wb, filler, NA, 999, 999, 2, 18, 181, 85, 93, 195, 75, 58, 3, 1.62949
22, 3, wb, filler, NA, 999, 999, 2, 18, 181, 85, 93, 195, 75, 58, 2, 0.873025
22, 3, wb, attraction, a-b-db, 14, 3, 2, 19, 120, 195, 111, 181, 195, 120, 2, 5.398
22, 3, wb, attraction, a-b-db, 14, 3, 2, 19, 120, 195, 111, 181, 195, 120, 1, 1.9381
22, 3, wb, filler, NA, 999, 999, 2, 20, 82, 76, 81, 149, 185, 102, 1, 1.91304
22, 3, wb, filler, NA, 999, 999, 2, 20, 82, 76, 81, 149, 185, 102, 3, 1.17147
22, 3, wb, attraction, a-b-da, 5, 3, 2, 21, 190, 117, 195, 120, 120, 195, 3, 1.32241
22, 3, wb, attraction, a-b-da, 5, 3, 2, 21, 190, 117, 195, 120, 120, 195, 2, 2.11851
22, 3, wb, attraction, a-b-da, 14, 2, 2, 22, 90, 165, 153, 83, 165, 90, 2, 1.52575
22, 3, wb, attraction, a-b-da, 14, 2, 2, 22, 90, 165, 153, 83, 165, 90, 3, 1.16879
22, 3, wb, catch, NA, 999, 999, 2, 23, 144, 171, 92, 103, 142, 113, 2, 1.50395
22, 3, wb, catch, NA, 999, 999, 2, 23, 144, 171, 92, 103, 142, 113, 1, 0.794545
22, 3, wb, attraction, a-b-da, 5, 2, 2, 24, 161, 88, 90, 165, 165, 90, 3, 2.35395
22, 3, wb, attraction, a-b-da, 5, 2, 2, 24, 161, 88, 90, 165, 165, 90, 2, 0.760552
22, 3, wb, attraction, a-b-da, 14, 3, 2, 25, 120, 195, 181, 111, 195, 120, 2, 2.07455
22, 3, wb, attraction, a-b-da, 14, 3, 2, 25, 120, 195, 181, 111, 195, 120, 1, 0.613182
22, 3, wb, attraction, a-b-db, 2, 3, 2, 26, 119, 193, 195, 120, 120, 195, 2, 2.97168
22, 3, wb, attraction, a-b-db, 2, 3, 2, 26, 119, 193, 195, 120, 120, 195, 1, 1.0172
22, 3, wb, filler, NA, 999, 999, 2, 27, 153, 72, 166, 161, 171, 190, 1, 1.35826
22, 3, wb, filler, NA, 999, 999, 2, 27, 153, 72, 166, 161, 171, 190, 3, 1.68835
22, 3, wb, filler, NA, 999, 999, 2, 28, 71, 144, 154, 163, 73, 68, 3, 1.61767
22, 3, wb, filler, NA, 999, 999, 2, 28, 71, 144, 154, 163, 73, 68, 2, 1.03265
22, 3, wb, attraction, a-b-db, 2, 1, 2, 29, 60, 135, 59, 134, 135, 60, 3, 2.60309
22, 3, wb, attraction, a-b-db, 2, 1, 2, 29, 60, 135, 59, 134, 135, 60, 2, 0.745714
22, 3, wb, attraction, a-b-db, 9, 3, 2, 30, 120, 195, 114, 186, 195, 120, 2, 1.81203
22, 3, wb, attraction, a-b-db, 9, 3, 2, 30, 120, 195, 114, 186, 195, 120, 1, 0.76168
22, 3, wb, attraction, a-b-da, 5, 1, 2, 31, 132, 58, 60, 135, 135, 60, 2, 1.67144
22, 3, wb, attraction, a-b-da, 5, 1, 2, 31, 132, 58, 60, 135, 135, 60, 3, 0.965072
22, 3, wb, filler, NA, 999, 999, 2, 32, 132, 119, 157, 131, 173, 186, 1, 1.37246
22, 3, wb, filler, NA, 999, 999, 2, 32, 132, 119, 157, 131, 173, 186, 3, 1.08448
22, 3, wb, filler, NA, 999, 999, 2, 33, 128, 159, 193, 82, 67, 182, 3, 2.26229
22, 3, wb, filler, NA, 999, 999, 2, 33, 128, 159, 193, 82, 67, 182, 1, 0.745751
22, 3, wb, filler, NA, 999, 999, 2, 34, 160, 168, 59, 172, 174, 61, 2, 2.44266
22, 3, wb, filler, NA, 999, 999, 2, 34, 160, 168, 59, 172, 174, 61, 1, 0.809179
22, 3, wb, attraction, a-b-db, 14, 1, 2, 35, 135, 60, 56, 125, 60, 135, 2, 3.01373
22, 3, wb, attraction, a-b-db, 14, 1, 2, 35, 135, 60, 56, 125, 60, 135, 1, 1.06072
22, 3, wb, attraction, a-b-da, 9, 3, 2, 36, 186, 114, 120, 195, 195, 120, 1, 5.99232
22, 3, wb, attraction, a-b-da, 9, 3, 2, 36, 186, 114, 120, 195, 195, 120, 2, 1.10162
22, 3, wb, filler, NA, 999, 999, 2, 37, 86, 90, 121, 96, 75, 136, 1, 3.23993
22, 3, wb, filler, NA, 999, 999, 2, 37, 86, 90, 121, 96, 75, 136, 2, 2.66092
22, 3, wb, filler, NA, 999, 999, 3, 1, 192, 127, 178, 79, 138, 119, 2, 1.5679
22, 3, wb, filler, NA, 999, 999, 3, 1, 192, 127, 178, 79, 138, 119, 1, 1.15341
22, 3, wb, attraction, a-b-db, 5, 2, 3, 2, 165, 90, 90, 165, 88, 161, 1, 1.93592
22, 3, wb, attraction, a-b-db, 5, 2, 3, 2, 165, 90, 90, 165, 88, 161, 2, 1.16886
22, 3, wb, attraction, a-b-da, 14, 3, 3, 3, 120, 195, 181, 111, 195, 120, 2, 3.61585
22, 3, wb, attraction, a-b-da, 14, 3, 3, 3, 120, 195, 181, 111, 195, 120, 1, 0.740361
22, 3, wb, attraction, a-b-da, 14, 1, 3, 4, 125, 56, 135, 60, 60, 135, 1, 2.24687
22, 3, wb, attraction, a-b-da, 14, 1, 3, 4, 125, 56, 135, 60, 60, 135, 2, 0.954096
22, 3, wb, attraction, a-b-da, 9, 2, 3, 5, 165, 90, 90, 165, 157, 86, 2, 3.25848
22, 3, wb, attraction, a-b-da, 9, 2, 3, 5, 165, 90, 90, 165, 157, 86, 1, 2.36506
22, 3, wb, catch, NA, 999, 999, 3, 6, 116, 139, 124, 191, 106, 89, 3, 1.42829
22, 3, wb, catch, NA, 999, 999, 3, 6, 116, 139, 124, 191, 106, 89, 2, 0.992893
22, 3, wb, catch, NA, 999, 999, 3, 7, 163, 152, 113, 142, 88, 107, 3, 1.19898
22, 3, wb, catch, NA, 999, 999, 3, 7, 163, 152, 113, 142, 88, 107, 1, 0.895394
22, 3, wb, filler, NA, 999, 999, 3, 8, 147, 166, 149, 99, 170, 170, 2, 1.46551
22, 3, wb, filler, NA, 999, 999, 3, 8, 147, 166, 149, 99, 170, 170, 3, 0.798121
22, 3, wb, attraction, a-b-db, 14, 2, 3, 9, 165, 90, 83, 153, 90, 165, 2, 2.61822
22, 3, wb, attraction, a-b-db, 14, 2, 3, 9, 165, 90, 83, 153, 90, 165, 1, 0.7363
22, 3, wb, attraction, a-b-db, 2, 1, 3, 10, 59, 134, 135, 60, 60, 135, 1, 1.85546
22, 3, wb, attraction, a-b-db, 2, 1, 3, 10, 59, 134, 135, 60, 60, 135, 2, 0.766511
22, 3, wb, filler, NA, 999, 999, 3, 11, 123, 166, 193, 78, 189, 158, 2, 4.2041
22, 3, wb, filler, NA, 999, 999, 3, 11, 123, 166, 193, 78, 189, 158, 3, 0.714237
22, 3, wb, attraction, a-b-da, 14, 2, 3, 12, 90, 165, 165, 90, 153, 83, 3, 2.86123
22, 3, wb, attraction, a-b-da, 14, 2, 3, 12, 90, 165, 165, 90, 153, 83, 2, 2.73694
22, 3, wb, attraction, a-b-db, 2, 2, 3, 13, 90, 165, 89, 163, 165, 90, 1, 2.35371
22, 3, wb, attraction, a-b-db, 2, 2, 3, 13, 90, 165, 89, 163, 165, 90, 2, 1.15383
22, 3, wb, filler, NA, 999, 999, 3, 14, 161, 165, 63, 140, 184, 95, 2, 1.21557
22, 3, wb, filler, NA, 999, 999, 3, 14, 161, 165, 63, 140, 184, 95, 1, 0.728023
22, 3, wb, filler, NA, 999, 999, 3, 15, 94, 129, 130, 195, 87, 102, 3, 1.9433
22, 3, wb, filler, NA, 999, 999, 3, 15, 94, 129, 130, 195, 87, 102, 2, 0.745761
22, 3, wb, attraction, a-b-da, 9, 1, 3, 16, 60, 135, 129, 57, 135, 60, 1, 2.45774
22, 3, wb, attraction, a-b-da, 9, 1, 3, 16, 60, 135, 129, 57, 135, 60, 2, 0.742161
22, 3, wb, attraction, a-b-db, 9, 3, 3, 17, 195, 120, 120, 195, 114, 186, 3, 3.00808
22, 3, wb, attraction, a-b-db, 9, 3, 3, 17, 195, 120, 120, 195, 114, 186, 2, 0.7255
22, 3, wb, filler, NA, 999, 999, 3, 18, 172, 118, 68, 160, 122, 149, 2, 1.67015
22, 3, wb, filler, NA, 999, 999, 3, 18, 172, 118, 68, 160, 122, 149, 1, 0.745671
22, 3, wb, attraction, a-b-da, 2, 1, 3, 19, 60, 135, 135, 60, 134, 59, 1, 1.79521
22, 3, wb, attraction, a-b-da, 2, 1, 3, 19, 60, 135, 135, 60, 134, 59, 2, 0.721542
22, 3, wb, attraction, a-b-da, 5, 2, 3, 20, 90, 165, 165, 90, 161, 88, 2, 2.16864
22, 3, wb, attraction, a-b-da, 5, 2, 3, 20, 90, 165, 165, 90, 161, 88, 1, 1.07553
22, 3, wb, filler, NA, 999, 999, 3, 21, 66, 66, 168, 122, 68, 129, 1, 1.53368
22, 3, wb, filler, NA, 999, 999, 3, 21, 66, 66, 168, 122, 68, 129, 2, 0.892986
22, 3, wb, attraction, a-b-db, 14, 1, 3, 22, 60, 135, 135, 60, 56, 125, 2, 1.88834
22, 3, wb, attraction, a-b-db, 14, 1, 3, 22, 60, 135, 135, 60, 56, 125, 1, 1.18827
22, 3, wb, filler, NA, 999, 999, 3, 23, 95, 89, 104, 66, 116, 146, 2, 1.34802
22, 3, wb, filler, NA, 999, 999, 3, 23, 95, 89, 104, 66, 116, 146, 3, 0.965139
22, 3, wb, attraction, a-b-da, 5, 3, 3, 24, 190, 117, 195, 120, 120, 195, 1, 3.48828
22, 3, wb, attraction, a-b-da, 5, 3, 3, 24, 190, 117, 195, 120, 120, 195, 3, 0.789581
22, 3, wb, attraction, a-b-db, 5, 3, 3, 25, 120, 195, 195, 120, 117, 190, 1, 3.53135
22, 3, wb, attraction, a-b-db, 5, 3, 3, 25, 120, 195, 195, 120, 117, 190, 3, 1.02648
22, 3, wb, filler, NA, 999, 999, 3, 26, 127, 84, 121, 185, 86, 160, 1, 1.42539
22, 3, wb, filler, NA, 999, 999, 3, 26, 127, 84, 121, 185, 86, 160, 2, 0.945349
22, 3, wb, attraction, a-b-db, 9, 1, 3, 27, 57, 129, 135, 60, 60, 135, 1, 1.92715
22, 3, wb, attraction, a-b-db, 9, 1, 3, 27, 57, 129, 135, 60, 60, 135, 2, 0.705006
22, 3, wb, catch, NA, 999, 999, 3, 28, 127, 128, 178, 137, 126, 69, 3, 2.7555
22, 3, wb, catch, NA, 999, 999, 3, 28, 127, 128, 178, 137, 126, 69, 2, 0.700901
22, 3, wb, attraction, a-b-db, 2, 3, 3, 29, 119, 193, 120, 195, 195, 120, 1, 1.35921
22, 3, wb, attraction, a-b-db, 2, 3, 3, 29, 119, 193, 120, 195, 195, 120, 2, 0.869984
22, 3, wb, attraction, a-b-da, 9, 3, 3, 30, 195, 120, 120, 195, 186, 114, 3, 2.21737
22, 3, wb, attraction, a-b-da, 9, 3, 3, 30, 195, 120, 120, 195, 186, 114, 1, 3.39167
22, 3, wb, attraction, a-b-db, 9, 2, 3, 31, 90, 165, 86, 157, 165, 90, 2, 2.46928
22, 3, wb, attraction, a-b-db, 9, 2, 3, 31, 90, 165, 86, 157, 165, 90, 1, 1.07466
22, 3, wb, attraction, a-b-da, 5, 1, 3, 32, 135, 60, 132, 58, 60, 135, 1, 3.54877
22, 3, wb, attraction, a-b-da, 5, 1, 3, 32, 135, 60, 132, 58, 60, 135, 3, 2.94093
22, 3, wb, filler, NA, 999, 999, 3, 33, 172, 57, 184, 76, 56, 71, 3, 1.48433
22, 3, wb, filler, NA, 999, 999, 3, 33, 172, 57, 184, 76, 56, 71, 2, 0.728719
22, 3, wb, attraction, a-b-db, 5, 1, 3, 34, 60, 135, 58, 132, 135, 60, 2, 5.08055
22, 3, wb, attraction, a-b-db, 5, 1, 3, 34, 60, 135, 58, 132, 135, 60, 3, 0.785886
22, 3, wb, attraction, a-b-db, 14, 3, 3, 35, 195, 120, 111, 181, 120, 195, 2, 2.71398
22, 3, wb, attraction, a-b-db, 14, 3, 3, 35, 195, 120, 111, 181, 120, 195, 1, 1.56483
22, 3, wb, attraction, a-b-da, 2, 3, 3, 36, 195, 120, 193, 119, 120, 195, 1, 4.72284
22, 3, wb, attraction, a-b-da, 2, 3, 3, 36, 195, 120, 193, 119, 120, 195, 3, 0.738436
22, 3, wb, attraction, a-b-da, 2, 2, 3, 37, 90, 165, 163, 89, 165, 90, 1, 2.02601
22, 3, wb, attraction, a-b-da, 2, 2, 3, 37, 90, 165, 163, 89, 165, 90, 2, 1.05966
22, 3, wb, attraction, a-b-db, 14, 2, 4, 1, 83, 153, 90, 165, 165, 90, 1, 1.43044
22, 3, wb, attraction, a-b-db, 14, 2, 4, 1, 83, 153, 90, 165, 165, 90, 2, 0.897683
22, 3, wb, attraction, a-b-db, 9, 2, 4, 2, 165, 90, 86, 157, 90, 165, 2, 2.76538
22, 3, wb, attraction, a-b-db, 9, 2, 4, 2, 165, 90, 86, 157, 90, 165, 3, 1.73435
22, 3, wb, catch, NA, 999, 999, 4, 3, 107, 148, 125, 70, 163, 152, 2, 1.62166
22, 3, wb, catch, NA, 999, 999, 4, 3, 107, 148, 125, 70, 163, 152, 3, 0.980152
22, 3, wb, filler, NA, 999, 999, 4, 4, 132, 190, 135, 89, 73, 78, 3, 1.42736
22, 3, wb, filler, NA, 999, 999, 4, 4, 132, 190, 135, 89, 73, 78, 1, 0.737257
22, 3, wb, attraction, a-b-db, 9, 3, 4, 5, 195, 120, 114, 186, 120, 195, 1, 8.12171
22, 3, wb, attraction, a-b-db, 9, 3, 4, 5, 195, 120, 114, 186, 120, 195, 3, 0.801015
22, 3, wb, filler, NA, 999, 999, 4, 6, 68, 102, 96, 106, 83, 64, 3, 1.64548
22, 3, wb, filler, NA, 999, 999, 4, 6, 68, 102, 96, 106, 83, 64, 2, 0.739399
22, 3, wb, attraction, a-b-da, 5, 2, 4, 7, 161, 88, 90, 165, 165, 90, 1, 2.19474
22, 3, wb, attraction, a-b-da, 5, 2, 4, 7, 161, 88, 90, 165, 165, 90, 3, 0.851388
22, 3, wb, attraction, a-b-da, 9, 1, 4, 8, 135, 60, 129, 57, 60, 135, 1, 2.82292
22, 3, wb, attraction, a-b-da, 9, 1, 4, 8, 135, 60, 129, 57, 60, 135, 3, 0.715609
22, 3, wb, attraction, a-b-db, 5, 2, 4, 9, 165, 90, 90, 165, 88, 161, 2, 2.68461
22, 3, wb, attraction, a-b-db, 5, 2, 4, 9, 165, 90, 90, 165, 88, 161, 1, 1.04238
22, 3, wb, attraction, a-b-db, 14, 3, 4, 10, 111, 181, 195, 120, 120, 195, 1, 1.71761
22, 3, wb, attraction, a-b-db, 14, 3, 4, 10, 111, 181, 195, 120, 120, 195, 3, 1.07833
22, 3, wb, filler, NA, 999, 999, 4, 11, 189, 185, 138, 188, 189, 104, 3, 1.33749
22, 3, wb, filler, NA, 999, 999, 4, 11, 189, 185, 138, 188, 189, 104, 1, 0.717404
22, 3, wb, attraction, a-b-da, 14, 2, 4, 12, 90, 165, 165, 90, 153, 83, 1, 1.90972
22, 3, wb, attraction, a-b-da, 14, 2, 4, 12, 90, 165, 165, 90, 153, 83, 2, 0.687286
22, 3, wb, attraction, a-b-da, 9, 2, 4, 13, 165, 90, 157, 86, 90, 165, 3, 1.5848
22, 3, wb, attraction, a-b-da, 9, 2, 4, 13, 165, 90, 157, 86, 90, 165, 2, 0.547089
22, 3, wb, filler, NA, 999, 999, 4, 14, 93, 94, 111, 163, 161, 78, 1, 2.83353
22, 3, wb, filler, NA, 999, 999, 4, 14, 93, 94, 111, 163, 161, 78, 2, 0.982897
22, 3, wb, filler, NA, 999, 999, 4, 15, 76, 114, 126, 115, 117, 124, 1, 1.35745
22, 3, wb, filler, NA, 999, 999, 4, 15, 76, 114, 126, 115, 117, 124, 3, 1.03712
22, 3, wb, attraction, a-b-db, 2, 1, 4, 16, 60, 135, 59, 134, 135, 60, 2, 1.89057
22, 3, wb, attraction, a-b-db, 2, 1, 4, 16, 60, 135, 59, 134, 135, 60, 3, 1.22779
22, 3, wb, filler, NA, 999, 999, 4, 17, 124, 80, 161, 141, 81, 140, 1, 1.41051
22, 3, wb, filler, NA, 999, 999, 4, 17, 124, 80, 161, 141, 81, 140, 2, 0.730198
22, 3, wb, attraction, a-b-da, 9, 3, 4, 18, 120, 195, 195, 120, 186, 114, 3, 2.49109
22, 3, wb, attraction, a-b-da, 9, 3, 4, 18, 120, 195, 195, 120, 186, 114, 2, 1.53225
22, 3, wb, filler, NA, 999, 999, 4, 19, 148, 61, 99, 168, 119, 164, 1, 1.4383
22, 3, wb, filler, NA, 999, 999, 4, 19, 148, 61, 99, 168, 119, 164, 3, 1.14635
22, 3, wb, attraction, a-b-db, 5, 3, 4, 20, 120, 195, 117, 190, 195, 120, 1, 2.73235
22, 3, wb, attraction, a-b-db, 5, 3, 4, 20, 120, 195, 117, 190, 195, 120, 2, 0.749416
22, 3, wb, catch, NA, 999, 999, 4, 21, 144, 171, 92, 163, 123, 72, 3, 1.32499
22, 3, wb, catch, NA, 999, 999, 4, 21, 144, 171, 92, 163, 123, 72, 1, 0.734954
22, 3, wb, attraction, a-b-da, 5, 3, 4, 22, 195, 120, 190, 117, 120, 195, 2, 3.33499
22, 3, wb, attraction, a-b-da, 5, 3, 4, 22, 195, 120, 190, 117, 120, 195, 3, 0.767863
22, 3, wb, attraction, a-b-db, 2, 3, 4, 23, 195, 120, 119, 193, 120, 195, 2, 1.74259
22, 3, wb, attraction, a-b-db, 2, 3, 4, 23, 195, 120, 119, 193, 120, 195, 3, 1.31356
22, 3, wb, attraction, a-b-db, 2, 2, 4, 24, 89, 163, 90, 165, 165, 90, 1, 1.89659
22, 3, wb, attraction, a-b-db, 2, 2, 4, 24, 89, 163, 90, 165, 165, 90, 2, 0.774028
22, 3, wb, filler, NA, 999, 999, 4, 25, 188, 91, 171, 69, 170, 100, 2, 1.60306
22, 3, wb, filler, NA, 999, 999, 4, 25, 188, 91, 171, 69, 170, 100, 1, 0.706077
22, 3, wb, attraction, a-b-da, 5, 1, 4, 26, 60, 135, 135, 60, 132, 58, 2, 3.52352
22, 3, wb, attraction, a-b-da, 5, 1, 4, 26, 60, 135, 135, 60, 132, 58, 3, 0.822404
22, 3, wb, filler, NA, 999, 999, 4, 27, 192, 128, 110, 102, 98, 104, 3, 2.33204
22, 3, wb, filler, NA, 999, 999, 4, 27, 192, 128, 110, 102, 98, 104, 1, 0.668506
22, 3, wb, filler, NA, 999, 999, 4, 28, 106, 89, 136, 132, 62, 60, 3, 1.46421
22, 3, wb, filler, NA, 999, 999, 4, 28, 106, 89, 136, 132, 62, 60, 2, 0.754629
22, 3, wb, attraction, a-b-da, 2, 1, 4, 29, 134, 59, 135, 60, 60, 135, 2, 3.92356
22, 3, wb, attraction, a-b-da, 2, 1, 4, 29, 134, 59, 135, 60, 60, 135, 1, 0.730631
22, 3, wb, catch, NA, 999, 999, 4, 30, 163, 92, 176, 139, 100, 95, 3, 1.26031
22, 3, wb, catch, NA, 999, 999, 4, 30, 163, 92, 176, 139, 100, 95, 2, 0.7548
22, 3, wb, attraction, a-b-da, 14, 1, 4, 31, 125, 56, 60, 135, 135, 60, 1, 2.22532
22, 3, wb, attraction, a-b-da, 14, 1, 4, 31, 125, 56, 60, 135, 135, 60, 2, 0.737641
22, 3, wb, attraction, a-b-db, 9, 1, 4, 32, 60, 135, 57, 129, 135, 60, 2, 2.45027
22, 3, wb, attraction, a-b-db, 9, 1, 4, 32, 60, 135, 57, 129, 135, 60, 3, 1.10262
22, 3, wb, attraction, a-b-db, 14, 1, 4, 33, 60, 135, 135, 60, 56, 125, 2, 1.46346
22, 3, wb, attraction, a-b-db, 14, 1, 4, 33, 60, 135, 135, 60, 56, 125, 1, 0.7542
22, 3, wb, attraction, a-b-db, 5, 1, 4, 34, 60, 135, 58, 132, 135, 60, 2, 1.60248
22, 3, wb, attraction, a-b-db, 5, 1, 4, 34, 60, 135, 58, 132, 135, 60, 1, 0.745889
22, 3, wb, attraction, a-b-da, 14, 3, 4, 35, 120, 195, 195, 120, 181, 111, 1, 1.90546
22, 3, wb, attraction, a-b-da, 14, 3, 4, 35, 120, 195, 195, 120, 181, 111, 2, 1.1719
22, 3, wb, attraction, a-b-da, 2, 3, 4, 36, 120, 195, 193, 119, 195, 120, 2, 2.42567
22, 3, wb, attraction, a-b-da, 2, 3, 4, 36, 120, 195, 193, 119, 195, 120, 1, 0.912882
22, 3, wb, attraction, a-b-da, 2, 2, 4, 37, 90, 165, 165, 90, 163, 89, 3, 7.762
22, 3, wb, attraction, a-b-da, 2, 2, 4, 37, 90, 165, 165, 90, 163, 89, 2, 1.06672
22, 3, wb, attraction, a-b-db, 9, 1, 5, 1, 60, 135, 57, 129, 135, 60, 2, 2.62737
22, 3, wb, attraction, a-b-db, 9, 1, 5, 1, 60, 135, 57, 129, 135, 60, 1, 1.60394
22, 3, wb, attraction, a-b-db, 5, 1, 5, 2, 135, 60, 58, 132, 60, 135, 3, 2.02363
22, 3, wb, attraction, a-b-db, 5, 1, 5, 2, 135, 60, 58, 132, 60, 135, 1, 0.741056
22, 3, wb, filler, NA, 999, 999, 5, 3, 71, 65, 140, 150, 119, 182, 1, 1.41123
22, 3, wb, filler, NA, 999, 999, 5, 3, 71, 65, 140, 150, 119, 182, 3, 0.997141
22, 3, wb, attraction, a-b-db, 9, 3, 5, 4, 195, 120, 114, 186, 120, 195, 2, 2.5
22, 3, wb, attraction, a-b-db, 9, 3, 5, 4, 195, 120, 114, 186, 120, 195, 3, 0.758596
22, 3, wb, filler, NA, 999, 999, 5, 5, 187, 79, 180, 169, 188, 155, 1, 1.60473
22, 3, wb, filler, NA, 999, 999, 5, 5, 187, 79, 180, 169, 188, 155, 2, 0.714117
22, 3, wb, attraction, a-b-da, 14, 2, 5, 6, 153, 83, 165, 90, 90, 165, 3, 1.63683
22, 3, wb, attraction, a-b-da, 14, 2, 5, 6, 153, 83, 165, 90, 90, 165, 2, 0.810732
22, 3, wb, attraction, a-b-da, 5, 3, 5, 7, 190, 117, 120, 195, 195, 120, 1, 2.68856
22, 3, wb, attraction, a-b-da, 5, 3, 5, 7, 190, 117, 120, 195, 195, 120, 2, 1.13261
22, 3, wb, filler, NA, 999, 999, 5, 8, 84, 109, 83, 146, 187, 87, 1, 2.46874
22, 3, wb, filler, NA, 999, 999, 5, 8, 84, 109, 83, 146, 187, 87, 3, 1.22231
22, 3, wb, filler, NA, 999, 999, 5, 9, 125, 99, 176, 66, 109, 70, 3, 1.47729
22, 3, wb, filler, NA, 999, 999, 5, 9, 125, 99, 176, 66, 109, 70, 2, 1.79167
22, 3, wb, attraction, a-b-da, 5, 2, 5, 10, 161, 88, 165, 90, 90, 165, 1, 3.28004
22, 3, wb, attraction, a-b-da, 5, 2, 5, 10, 161, 88, 165, 90, 90, 165, 2, 1.01111
22, 3, wb, attraction, a-b-db, 2, 3, 5, 11, 120, 195, 119, 193, 195, 120, 2, 2.54534
22, 3, wb, attraction, a-b-db, 2, 3, 5, 11, 120, 195, 119, 193, 195, 120, 1, 0.728521
22, 3, wb, attraction, a-b-db, 14, 1, 5, 12, 135, 60, 60, 135, 56, 125, 3, 2.31225
22, 3, wb, attraction, a-b-db, 14, 1, 5, 12, 135, 60, 60, 135, 56, 125, 2, 0.809394
22, 3, wb, attraction, a-b-db, 2, 1, 5, 13, 59, 134, 60, 135, 135, 60, 2, 1.84763
22, 3, wb, attraction, a-b-db, 2, 1, 5, 13, 59, 134, 60, 135, 135, 60, 1, 0.764569
22, 3, wb, attraction, a-b-db, 5, 2, 5, 14, 88, 161, 165, 90, 90, 165, 1, 2.39754
22, 3, wb, attraction, a-b-db, 5, 2, 5, 14, 88, 161, 165, 90, 90, 165, 3, 1.10097
22, 3, wb, attraction, a-b-db, 14, 2, 5, 15, 90, 165, 165, 90, 83, 153, 2, 1.75661
22, 3, wb, attraction, a-b-db, 14, 2, 5, 15, 90, 165, 165, 90, 83, 153, 1, 0.806286
22, 3, wb, filler, NA, 999, 999, 5, 16, 75, 159, 138, 137, 195, 153, 1, 1.39517
22, 3, wb, filler, NA, 999, 999, 5, 16, 75, 159, 138, 137, 195, 153, 3, 1.44968
22, 3, wb, attraction, a-b-db, 9, 2, 5, 17, 165, 90, 86, 157, 90, 165, 2, 1.949
22, 3, wb, attraction, a-b-db, 9, 2, 5, 17, 165, 90, 86, 157, 90, 165, 1, 0.767953
22, 3, wb, attraction, a-b-da, 14, 3, 5, 18, 181, 111, 120, 195, 195, 120, 1, 2.72538
22, 3, wb, attraction, a-b-da, 14, 3, 5, 18, 181, 111, 120, 195, 195, 120, 3, 2.82341
22, 3, wb, attraction, a-b-db, 2, 2, 5, 19, 89, 163, 90, 165, 165, 90, 2, 2.1879
22, 3, wb, attraction, a-b-db, 2, 2, 5, 19, 89, 163, 90, 165, 165, 90, 3, 0.721877
22, 3, wb, attraction, a-b-da, 2, 1, 5, 20, 60, 135, 135, 60, 134, 59, 1, 1.82015
22, 3, wb, attraction, a-b-da, 2, 1, 5, 20, 60, 135, 135, 60, 134, 59, 3, 1.0906
22, 3, wb, filler, NA, 999, 999, 5, 21, 97, 84, 166, 85, 93, 112, 1, 1.17063
22, 3, wb, filler, NA, 999, 999, 5, 21, 97, 84, 166, 85, 93, 112, 2, 0.788274
22, 3, wb, attraction, a-b-da, 5, 1, 5, 22, 60, 135, 135, 60, 132, 58, 1, 1.4591
22, 3, wb, attraction, a-b-da, 5, 1, 5, 22, 60, 135, 135, 60, 132, 58, 2, 1.07289
22, 3, wb, attraction, a-b-da, 14, 1, 5, 23, 60, 135, 125, 56, 135, 60, 3, 1.76367
22, 3, wb, attraction, a-b-da, 14, 1, 5, 23, 60, 135, 125, 56, 135, 60, 1, 1.08122
22, 3, wb, catch, NA, 999, 999, 5, 24, 111, 144, 69, 126, 190, 125, 2, 2.36465
22, 3, wb, catch, NA, 999, 999, 5, 24, 111, 144, 69, 126, 190, 125, 3, 0.757308
22, 3, wb, attraction, a-b-da, 2, 2, 5, 25, 90, 165, 165, 90, 163, 89, 3, 3.08481
22, 3, wb, attraction, a-b-da, 2, 2, 5, 25, 90, 165, 165, 90, 163, 89, 2, 0.640879
22, 3, wb, attraction, a-b-da, 9, 2, 5, 26, 157, 86, 90, 165, 165, 90, 1, 2.08329
22, 3, wb, attraction, a-b-da, 9, 2, 5, 26, 157, 86, 90, 165, 165, 90, 2, 2.83889
22, 3, wb, catch, NA, 999, 999, 5, 27, 178, 137, 126, 69, 156, 99, 2, 1.57955
22, 3, wb, catch, NA, 999, 999, 5, 27, 178, 137, 126, 69, 156, 99, 1, 0.80347
22, 3, wb, catch, NA, 999, 999, 5, 28, 92, 103, 148, 107, 194, 121, 1, 3.1056
22, 3, wb, catch, NA, 999, 999, 5, 28, 92, 103, 148, 107, 194, 121, 3, 3.2446
22, 3, wb, filler, NA, 999, 999, 5, 29, 148, 130, 157, 155, 60, 122, 3, 1.51827
22, 3, wb, filler, NA, 999, 999, 5, 29, 148, 130, 157, 155, 60, 122, 2, 0.986271
22, 3, wb, attraction, a-b-da, 9, 1, 5, 30, 60, 135, 135, 60, 129, 57, 1, 1.95107
22, 3, wb, attraction, a-b-da, 9, 1, 5, 30, 60, 135, 135, 60, 129, 57, 2, 1.09637
22, 3, wb, filler, NA, 999, 999, 5, 31, 123, 183, 91, 107, 60, 93, 3, 1.12404
22, 3, wb, filler, NA, 999, 999, 5, 31, 123, 183, 91, 107, 60, 93, 1, 0.845684
22, 3, wb, filler, NA, 999, 999, 5, 32, 118, 175, 85, 119, 157, 123, 2, 1.6823
22, 3, wb, filler, NA, 999, 999, 5, 32, 118, 175, 85, 119, 157, 123, 3, 0.733048
22, 3, wb, attraction, a-b-db, 14, 3, 5, 33, 111, 181, 120, 195, 195, 120, 1, 2.66159
22, 3, wb, attraction, a-b-db, 14, 3, 5, 33, 111, 181, 120, 195, 195, 120, 2, 0.800886
22, 3, wb, attraction, a-b-db, 5, 3, 5, 34, 120, 195, 117, 190, 195, 120, 2, 1.72925
22, 3, wb, attraction, a-b-db, 5, 3, 5, 34, 120, 195, 117, 190, 195, 120, 1, 0.737365
22, 3, wb, filler, NA, 999, 999, 5, 35, 117, 141, 169, 136, 93, 177, 1, 3.53681
22, 3, wb, filler, NA, 999, 999, 5, 35, 117, 141, 169, 136, 93, 177, 2, 0.745425
22, 3, wb, attraction, a-b-da, 2, 3, 5, 36, 193, 119, 195, 120, 120, 195, 2, 2.22622
22, 3, wb, attraction, a-b-da, 2, 3, 5, 36, 193, 119, 195, 120, 120, 195, 3, 0.938014
22, 3, wb, attraction, a-b-da, 9, 3, 5, 37, 186, 114, 120, 195, 195, 120, 1, 1.96983
22, 3, wb, attraction, a-b-da, 9, 3, 5, 37, 186, 114, 120, 195, 195, 120, 2, 0.739741
22, 3, wb, attraction, a-b-db, 2, 2, 6, 1, 90, 165, 165, 90, 89, 163, 2, 2.20351
22, 3, wb, attraction, a-b-db, 2, 2, 6, 1, 90, 165, 165, 90, 89, 163, 1, 0.927728
22, 3, wb, attraction, a-b-da, 9, 3, 6, 2, 120, 195, 186, 114, 195, 120, 2, 2.16259
22, 3, wb, attraction, a-b-da, 9, 3, 6, 2, 120, 195, 186, 114, 195, 120, 1, 0.841328
22, 3, wb, attraction, a-b-da, 14, 2, 6, 3, 90, 165, 165, 90, 153, 83, 1, 1.5749
22, 3, wb, attraction, a-b-da, 14, 2, 6, 3, 90, 165, 165, 90, 153, 83, 2, 0.773949
22, 3, wb, attraction, a-b-db, 9, 3, 6, 4, 114, 186, 195, 120, 120, 195, 2, 2.84595
22, 3, wb, attraction, a-b-db, 9, 3, 6, 4, 114, 186, 195, 120, 120, 195, 1, 1.01817
22, 3, wb, attraction, a-b-da, 2, 1, 6, 5, 135, 60, 60, 135, 134, 59, 2, 1.39823
22, 3, wb, attraction, a-b-da, 2, 1, 6, 5, 135, 60, 60, 135, 134, 59, 3, 0.949841
22, 3, wb, attraction, a-b-da, 5, 1, 6, 6, 135, 60, 60, 135, 132, 58, 2, 1.38876
22, 3, wb, attraction, a-b-da, 5, 1, 6, 6, 135, 60, 60, 135, 132, 58, 3, 1.06692
22, 3, wb, attraction, a-b-da, 2, 2, 6, 7, 165, 90, 163, 89, 90, 165, 2, 1.55926
22, 3, wb, attraction, a-b-da, 2, 2, 6, 7, 165, 90, 163, 89, 90, 165, 1, 0.808455
22, 3, wb, catch, NA, 999, 999, 6, 8, 112, 83, 173, 142, 96, 159, 1, 1.18977
22, 3, wb, catch, NA, 999, 999, 6, 8, 112, 83, 173, 142, 96, 159, 2, 0.692588
22, 3, wb, attraction, a-b-db, 14, 3, 6, 9, 111, 181, 195, 120, 120, 195, 2, 1.40096
22, 3, wb, attraction, a-b-db, 14, 3, 6, 9, 111, 181, 195, 120, 120, 195, 1, 0.677366
22, 3, wb, attraction, a-b-db, 2, 3, 6, 10, 195, 120, 120, 195, 119, 193, 2, 1.14391
22, 3, wb, attraction, a-b-db, 2, 3, 6, 10, 195, 120, 120, 195, 119, 193, 1, 0.947126
22, 3, wb, attraction, a-b-db, 14, 1, 6, 11, 60, 135, 56, 125, 135, 60, 2, 3.94042
22, 3, wb, attraction, a-b-db, 14, 1, 6, 11, 60, 135, 56, 125, 135, 60, 1, 1.26904
22, 3, wb, attraction, a-b-da, 5, 3, 6, 12, 120, 195, 195, 120, 190, 117, 2, 1.72852
22, 3, wb, attraction, a-b-da, 5, 3, 6, 12, 120, 195, 195, 120, 190, 117, 3, 0.952705
22, 3, wb, attraction, a-b-db, 5, 1, 6, 13, 58, 132, 135, 60, 60, 135, 2, 1.43876
22, 3, wb, attraction, a-b-db, 5, 1, 6, 13, 58, 132, 135, 60, 60, 135, 1, 1.2852
22, 3, wb, filler, NA, 999, 999, 6, 14, 76, 165, 144, 72, 67, 161, 2, 1.1772
22, 3, wb, filler, NA, 999, 999, 6, 14, 76, 165, 144, 72, 67, 161, 1, 0.776093
22, 3, wb, attraction, a-b-da, 14, 3, 6, 15, 195, 120, 120, 195, 181, 111, 2, 1.55898
22, 3, wb, attraction, a-b-da, 14, 3, 6, 15, 195, 120, 120, 195, 181, 111, 1, 1.16796
22, 3, wb, filler, NA, 999, 999, 6, 16, 180, 130, 160, 185, 97, 118, 3, 1.45457
22, 3, wb, filler, NA, 999, 999, 6, 16, 180, 130, 160, 185, 97, 118, 2, 0.674387
22, 3, wb, attraction, a-b-da, 2, 3, 6, 17, 193, 119, 120, 195, 195, 120, 1, 2.52693
22, 3, wb, attraction, a-b-da, 2, 3, 6, 17, 193, 119, 120, 195, 195, 120, 2, 0.759952
22, 3, wb, filler, NA, 999, 999, 6, 18, 151, 131, 171, 83, 111, 127, 2, 2.6652
22, 3, wb, filler, NA, 999, 999, 6, 18, 151, 131, 171, 83, 111, 127, 1, 0.739098
22, 3, wb, attraction, a-b-da, 5, 2, 6, 19, 161, 88, 165, 90, 90, 165, 1, 2.23721
22, 3, wb, attraction, a-b-da, 5, 2, 6, 19, 161, 88, 165, 90, 90, 165, 2, 0.69661
22, 3, wb, catch, NA, 999, 999, 6, 20, 155, 160, 138, 117, 125, 70, 3, 1.2284
22, 3, wb, catch, NA, 999, 999, 6, 20, 155, 160, 138, 117, 125, 70, 1, 0.777502
22, 3, wb, filler, NA, 999, 999, 6, 21, 125, 166, 153, 114, 112, 94, 3, 1.21802
22, 3, wb, filler, NA, 999, 999, 6, 21, 125, 166, 153, 114, 112, 94, 1, 0.751017
22, 3, wb, attraction, a-b-da, 14, 1, 6, 22, 135, 60, 60, 135, 125, 56, 3, 3.15714
22, 3, wb, attraction, a-b-da, 14, 1, 6, 22, 135, 60, 60, 135, 125, 56, 1, 1.13546
22, 3, wb, catch, NA, 999, 999, 6, 23, 109, 146, 140, 175, 134, 61, 3, 1.34428
22, 3, wb, catch, NA, 999, 999, 6, 23, 109, 146, 140, 175, 134, 61, 2, 0.720993
22, 3, wb, attraction, a-b-db, 2, 1, 6, 24, 135, 60, 60, 135, 59, 134, 3, 1.73837
22, 3, wb, attraction, a-b-db, 2, 1, 6, 24, 135, 60, 60, 135, 59, 134, 1, 1.38717
22, 3, wb, filler, NA, 999, 999, 6, 25, 140, 108, 58, 121, 181, 143, 2, 1.84128
22, 3, wb, filler, NA, 999, 999, 6, 25, 140, 108, 58, 121, 181, 143, 3, 1.34183
22, 3, wb, attraction, a-b-db, 9, 2, 6, 26, 90, 165, 165, 90, 86, 157, 3, 3.87221
22, 3, wb, attraction, a-b-db, 9, 2, 6, 26, 90, 165, 165, 90, 86, 157, 2, 0.673897
22, 3, wb, filler, NA, 999, 999, 6, 27, 108, 113, 60, 159, 86, 108, 3, 1.87756
22, 3, wb, filler, NA, 999, 999, 6, 27, 108, 113, 60, 159, 86, 108, 1, 0.833582
22, 3, wb, attraction, a-b-da, 9, 2, 6, 28, 165, 90, 157, 86, 90, 165, 1, 4.70345
22, 3, wb, attraction, a-b-da, 9, 2, 6, 28, 165, 90, 157, 86, 90, 165, 3, 1.16952
22, 3, wb, filler, NA, 999, 999, 6, 29, 161, 96, 161, 61, 81, 195, 2, 1.36768
22, 3, wb, filler, NA, 999, 999, 6, 29, 161, 96, 161, 61, 81, 195, 3, 1.32098
22, 3, wb, attraction, a-b-db, 5, 3, 6, 30, 117, 190, 195, 120, 120, 195, 1, 3.68756
22, 3, wb, attraction, a-b-db, 5, 3, 6, 30, 117, 190, 195, 120, 120, 195, 2, 3.9965
22, 3, wb, filler, NA, 999, 999, 6, 31, 152, 194, 93, 116, 124, 120, 2, 1.40141
22, 3, wb, filler, NA, 999, 999, 6, 31, 152, 194, 93, 116, 124, 120, 1, 0.952646
22, 3, wb, filler, NA, 999, 999, 6, 32, 168, 123, 167, 165, 68, 153, 3, 1.23795
22, 3, wb, filler, NA, 999, 999, 6, 32, 168, 123, 167, 165, 68, 153, 2, 0.748167
22, 3, wb, attraction, a-b-da, 9, 1, 6, 33, 135, 60, 60, 135, 129, 57, 2, 2.12544
22, 3, wb, attraction, a-b-da, 9, 1, 6, 33, 135, 60, 60, 135, 129, 57, 1, 0.726465
22, 3, wb, attraction, a-b-db, 5, 2, 6, 34, 165, 90, 88, 161, 90, 165, 2, 1.79764
22, 3, wb, attraction, a-b-db, 5, 2, 6, 34, 165, 90, 88, 161, 90, 165, 3, 0.726061
22, 3, wb, attraction, a-b-db, 14, 2, 6, 35, 165, 90, 83, 153, 90, 165, 2, 1.90328
22, 3, wb, attraction, a-b-db, 14, 2, 6, 35, 165, 90, 83, 153, 90, 165, 1, 0.800052
22, 3, wb, filler, NA, 999, 999, 6, 36, 76, 84, 115, 62, 66, 100, 1, 9.61625
22, 3, wb, filler, NA, 999, 999, 6, 36, 76, 84, 115, 62, 66, 100, 2, 1.07438
22, 3, wb, attraction, a-b-db, 9, 1, 6, 37, 57, 129, 135, 60, 60, 135, 1, 2.44711
22, 3, wb, attraction, a-b-db, 9, 1, 6, 37, 57, 129, 135, 60, 60, 135, 2, 1.37054
22, 3, wb, attraction, a-b-db, 2, 3, 7, 1, 120, 195, 119, 193, 195, 120, 1, 3.69651
22, 3, wb, attraction, a-b-db, 2, 3, 7, 1, 120, 195, 119, 193, 195, 120, 2, 1.29134
22, 3, wb, attraction, a-b-da, 14, 1, 7, 2, 135, 60, 60, 135, 125, 56, 3, 1.56548
22, 3, wb, attraction, a-b-da, 14, 1, 7, 2, 135, 60, 60, 135, 125, 56, 2, 1.15863
22, 3, wb, filler, NA, 999, 999, 7, 3, 188, 83, 130, 75, 89, 107, 2, 2.22948
22, 3, wb, filler, NA, 999, 999, 7, 3, 188, 83, 130, 75, 89, 107, 1, 0.763384
22, 3, wb, catch, NA, 999, 999, 7, 4, 164, 151, 99, 96, 162, 93, 2, 1.15275
22, 3, wb, catch, NA, 999, 999, 7, 4, 164, 151, 99, 96, 162, 93, 1, 0.764318
22, 3, wb, attraction, a-b-da, 9, 2, 7, 5, 165, 90, 157, 86, 90, 165, 1, 1.56211
22, 3, wb, attraction, a-b-da, 9, 2, 7, 5, 165, 90, 157, 86, 90, 165, 2, 0.761897
22, 3, wb, attraction, a-b-db, 5, 1, 7, 6, 58, 132, 60, 135, 135, 60, 1, 1.26673
22, 3, wb, attraction, a-b-db, 5, 1, 7, 6, 58, 132, 60, 135, 135, 60, 2, 0.673388
22, 3, wb, attraction, a-b-da, 9, 3, 7, 7, 195, 120, 186, 114, 120, 195, 2, 4.53223
22, 3, wb, attraction, a-b-da, 9, 3, 7, 7, 195, 120, 186, 114, 120, 195, 3, 0.69947
22, 3, wb, attraction, a-b-db, 14, 2, 7, 8, 165, 90, 83, 153, 90, 165, 2, 1.56328
22, 3, wb, attraction, a-b-db, 14, 2, 7, 8, 165, 90, 83, 153, 90, 165, 3, 1.01922
22, 3, wb, attraction, a-b-db, 2, 2, 7, 9, 90, 165, 89, 163, 165, 90, 1, 2.44935
22, 3, wb, attraction, a-b-db, 2, 2, 7, 9, 90, 165, 89, 163, 165, 90, 3, 0.805965
22, 3, wb, attraction, a-b-da, 2, 3, 7, 10, 195, 120, 120, 195, 193, 119, 2, 2.66864
22, 3, wb, attraction, a-b-da, 2, 3, 7, 10, 195, 120, 120, 195, 193, 119, 1, 0.671447
22, 3, wb, filler, NA, 999, 999, 7, 11, 107, 133, 78, 78, 153, 147, 2, 1.2593
22, 3, wb, filler, NA, 999, 999, 7, 11, 107, 133, 78, 78, 153, 147, 3, 0.815586
22, 3, wb, attraction, a-b-db, 9, 3, 7, 12, 195, 120, 114, 186, 120, 195, 3, 2.53267
22, 3, wb, attraction, a-b-db, 9, 3, 7, 12, 195, 120, 114, 186, 120, 195, 1, 1.22961
22, 3, wb, filler, NA, 999, 999, 7, 13, 124, 113, 182, 111, 161, 119, 1, 1.29862
22, 3, wb, filler, NA, 999, 999, 7, 13, 124, 113, 182, 111, 161, 119, 2, 0.708117
22, 3, wb, attraction, a-b-db, 5, 2, 7, 14, 165, 90, 88, 161, 90, 165, 3, 1.47957
22, 3, wb, attraction, a-b-db, 5, 2, 7, 14, 165, 90, 88, 161, 90, 165, 1, 1.04351
22, 3, wb, attraction, a-b-da, 5, 2, 7, 15, 165, 90, 161, 88, 90, 165, 2, 1.30158
22, 3, wb, attraction, a-b-da, 5, 2, 7, 15, 165, 90, 161, 88, 90, 165, 1, 0.697531
22, 3, wb, attraction, a-b-db, 9, 1, 7, 16, 60, 135, 135, 60, 57, 129, 3, 2.42872
22, 3, wb, attraction, a-b-db, 9, 1, 7, 16, 60, 135, 135, 60, 57, 129, 1, 1.00963
22, 3, wb, attraction, a-b-db, 14, 1, 7, 17, 56, 125, 60, 135, 135, 60, 1, 1.96724
22, 3, wb, attraction, a-b-db, 14, 1, 7, 17, 56, 125, 60, 135, 135, 60, 2, 0.710366
22, 3, wb, filler, NA, 999, 999, 7, 18, 146, 171, 168, 148, 183, 190, 1, 2.03288
22, 3, wb, filler, NA, 999, 999, 7, 18, 146, 171, 168, 148, 183, 190, 3, 0.735121
22, 3, wb, attraction, a-b-db, 14, 3, 7, 19, 195, 120, 120, 195, 111, 181, 3, 2.26383
22, 3, wb, attraction, a-b-db, 14, 3, 7, 19, 195, 120, 120, 195, 111, 181, 2, 0.79561
22, 3, wb, catch, NA, 999, 999, 7, 20, 90, 105, 161, 94, 190, 125, 1, 3.09523
22, 3, wb, catch, NA, 999, 999, 7, 20, 90, 105, 161, 94, 190, 125, 3, 1.4762
22, 3, wb, catch, NA, 999, 999, 7, 21, 127, 188, 103, 152, 135, 60, 3, 2.18284
22, 3, wb, catch, NA, 999, 999, 7, 21, 127, 188, 103, 152, 135, 60, 1, 1.05494
22, 3, wb, attraction, a-b-db, 9, 2, 7, 22, 165, 90, 90, 165, 86, 157, 3, 6.48951
22, 3, wb, attraction, a-b-db, 9, 2, 7, 22, 165, 90, 90, 165, 86, 157, 2, 2.19446
22, 3, wb, filler, NA, 999, 999, 7, 23, 116, 177, 75, 91, 183, 74, 2, 1.38536
22, 3, wb, filler, NA, 999, 999, 7, 23, 116, 177, 75, 91, 183, 74, 1, 0.905015
22, 3, wb, attraction, a-b-da, 9, 1, 7, 24, 135, 60, 129, 57, 60, 135, 3, 2.33847
22, 3, wb, attraction, a-b-da, 9, 1, 7, 24, 135, 60, 129, 57, 60, 135, 1, 0.805229
22, 3, wb, attraction, a-b-db, 5, 3, 7, 25, 195, 120, 117, 190, 120, 195, 2, 3.9522
22, 3, wb, attraction, a-b-db, 5, 3, 7, 25, 195, 120, 117, 190, 120, 195, 1, 0.962383
22, 3, wb, filler, NA, 999, 999, 7, 26, 119, 112, 160, 121, 192, 129, 1, 1.30608
22, 3, wb, filler, NA, 999, 999, 7, 26, 119, 112, 160, 121, 192, 129, 3, 1.20359
22, 3, wb, filler, NA, 999, 999, 7, 27, 98, 102, 127, 149, 129, 177, 1, 1.44105
22, 3, wb, filler, NA, 999, 999, 7, 27, 98, 102, 127, 149, 129, 177, 3, 1.39861
22, 3, wb, attraction, a-b-db, 2, 1, 7, 28, 59, 134, 135, 60, 60, 135, 3, 1.70881
22, 3, wb, attraction, a-b-db, 2, 1, 7, 28, 59, 134, 135, 60, 60, 135, 1, 1.41424
22, 3, wb, attraction, a-b-da, 5, 3, 7, 29, 190, 117, 120, 195, 195, 120, 1, 1.79819
22, 3, wb, attraction, a-b-da, 5, 3, 7, 29, 190, 117, 120, 195, 195, 120, 3, 1.48308
22, 3, wb, filler, NA, 999, 999, 7, 30, 88, 161, 98, 117, 118, 133, 2, 1.23158
22, 3, wb, filler, NA, 999, 999, 7, 30, 88, 161, 98, 117, 118, 133, 3, 1.97065
22, 3, wb, attraction, a-b-da, 14, 3, 7, 31, 181, 111, 195, 120, 120, 195, 1, 1.42548
22, 3, wb, attraction, a-b-da, 14, 3, 7, 31, 181, 111, 195, 120, 120, 195, 2, 0.814883
22, 3, wb, attraction, a-b-da, 2, 1, 7, 32, 60, 135, 135, 60, 134, 59, 1, 2.74985
22, 3, wb, attraction, a-b-da, 2, 1, 7, 32, 60, 135, 135, 60, 134, 59, 3, 1.00527
22, 3, wb, attraction, a-b-da, 14, 2, 7, 33, 90, 165, 165, 90, 153, 83, 1, 1.71581
22, 3, wb, attraction, a-b-da, 14, 2, 7, 33, 90, 165, 165, 90, 153, 83, 3, 1.04647
22, 3, wb, filler, NA, 999, 999, 7, 34, 167, 134, 193, 105, 115, 76, 3, 7.46765
22, 3, wb, filler, NA, 999, 999, 7, 34, 167, 134, 193, 105, 115, 76, 1, 1.02239
22, 3, wb, attraction, a-b-da, 5, 1, 7, 35, 135, 60, 132, 58, 60, 135, 2, 2.4819
22, 3, wb, attraction, a-b-da, 5, 1, 7, 35, 135, 60, 132, 58, 60, 135, 1, 0.734006
22, 3, wb, filler, NA, 999, 999, 7, 36, 132, 57, 149, 179, 191, 178, 1, 1.34135
22, 3, wb, filler, NA, 999, 999, 7, 36, 132, 57, 149, 179, 191, 178, 3, 1.05329
22, 3, wb, attraction, a-b-da, 2, 2, 7, 37, 163, 89, 165, 90, 90, 165, 2, 1.73882
22, 3, wb, attraction, a-b-da, 2, 2, 7, 37, 163, 89, 165, 90, 90, 165, 1, 0.76337
22, 3, wb, filler, NA, 999, 999, 8, 1, 161, 73, 193, 140, 161, 97, 1, 1.36258
22, 3, wb, filler, NA, 999, 999, 8, 1, 161, 73, 193, 140, 161, 97, 2, 0.940229
22, 3, wb, attraction, a-b-da, 5, 1, 8, 2, 60, 135, 135, 60, 132, 58, 1, 2.00176
22, 3, wb, attraction, a-b-da, 5, 1, 8, 2, 60, 135, 135, 60, 132, 58, 3, 1.025
22, 3, wb, attraction, a-b-da, 2, 1, 8, 3, 135, 60, 60, 135, 134, 59, 2, 1.41474
22, 3, wb, attraction, a-b-da, 2, 1, 8, 3, 135, 60, 60, 135, 134, 59, 1, 0.764692
22, 3, wb, attraction, a-b-db, 14, 3, 8, 4, 120, 195, 111, 181, 195, 120, 2, 2.14113
22, 3, wb, attraction, a-b-db, 14, 3, 8, 4, 120, 195, 111, 181, 195, 120, 3, 1.34085
22, 3, wb, attraction, a-b-db, 14, 1, 8, 5, 56, 125, 135, 60, 60, 135, 2, 1.37381
22, 3, wb, attraction, a-b-db, 14, 1, 8, 5, 56, 125, 135, 60, 60, 135, 3, 1.23181
22, 3, wb, attraction, a-b-db, 5, 2, 8, 6, 88, 161, 90, 165, 165, 90, 1, 2.61194
22, 3, wb, attraction, a-b-db, 5, 2, 8, 6, 88, 161, 90, 165, 165, 90, 2, 0.753035
22, 3, wb, filler, NA, 999, 999, 8, 7, 61, 66, 101, 62, 160, 116, 1, 1.41469
22, 3, wb, filler, NA, 999, 999, 8, 7, 61, 66, 101, 62, 160, 116, 3, 0.775498
22, 3, wb, filler, NA, 999, 999, 8, 8, 136, 100, 90, 123, 130, 60, 3, 1.4618
22, 3, wb, filler, NA, 999, 999, 8, 8, 136, 100, 90, 123, 130, 60, 1, 1.00209
22, 3, wb, attraction, a-b-db, 2, 2, 8, 9, 89, 163, 90, 165, 165, 90, 2, 1.69429
22, 3, wb, attraction, a-b-db, 2, 2, 8, 9, 89, 163, 90, 165, 165, 90, 3, 0.83461
22, 3, wb, attraction, a-b-da, 2, 2, 8, 10, 90, 165, 163, 89, 165, 90, 2, 1.23129
22, 3, wb, attraction, a-b-da, 2, 2, 8, 10, 90, 165, 163, 89, 165, 90, 3, 0.931838
22, 3, wb, catch, NA, 999, 999, 8, 11, 70, 125, 136, 119, 148, 167, 1, 1.53411
22, 3, wb, catch, NA, 999, 999, 8, 11, 70, 125, 136, 119, 148, 167, 3, 0.847628
22, 3, wb, attraction, a-b-db, 9, 2, 8, 12, 165, 90, 90, 165, 86, 157, 3, 1.88478
22, 3, wb, attraction, a-b-db, 9, 2, 8, 12, 165, 90, 90, 165, 86, 157, 2, 0.920167
22, 3, wb, catch, NA, 999, 999, 8, 13, 171, 144, 111, 144, 109, 86, 3, 1.16845
22, 3, wb, catch, NA, 999, 999, 8, 13, 171, 144, 111, 144, 109, 86, 1, 0.711361
22, 3, wb, attraction, a-b-da, 2, 3, 8, 14, 120, 195, 193, 119, 195, 120, 1, 1.67198
22, 3, wb, attraction, a-b-da, 2, 3, 8, 14, 120, 195, 193, 119, 195, 120, 3, 0.711341
22, 3, wb, filler, NA, 999, 999, 8, 15, 64, 133, 165, 71, 161, 148, 1, 1.37575
22, 3, wb, filler, NA, 999, 999, 8, 15, 64, 133, 165, 71, 161, 148, 3, 0.767958
22, 3, wb, filler, NA, 999, 999, 8, 16, 174, 92, 119, 164, 88, 73, 3, 1.4623
22, 3, wb, filler, NA, 999, 999, 8, 16, 174, 92, 119, 164, 88, 73, 2, 0.700663
22, 3, wb, attraction, a-b-db, 14, 2, 8, 17, 83, 153, 90, 165, 165, 90, 1, 1.17856
22, 3, wb, attraction, a-b-db, 14, 2, 8, 17, 83, 153, 90, 165, 165, 90, 2, 0.844119
22, 3, wb, filler, NA, 999, 999, 8, 18, 57, 68, 152, 108, 84, 122, 1, 1.31862
22, 3, wb, filler, NA, 999, 999, 8, 18, 57, 68, 152, 108, 84, 122, 2, 0.745443
22, 3, wb, attraction, a-b-da, 14, 1, 8, 19, 135, 60, 125, 56, 60, 135, 2, 2.13859
22, 3, wb, attraction, a-b-da, 14, 1, 8, 19, 135, 60, 125, 56, 60, 135, 1, 0.733917
22, 3, wb, filler, NA, 999, 999, 8, 20, 89, 123, 76, 150, 148, 145, 2, 3.61128
22, 3, wb, filler, NA, 999, 999, 8, 20, 89, 123, 76, 150, 148, 145, 3, 0.922126
22, 3, wb, attraction, a-b-da, 14, 3, 8, 21, 195, 120, 181, 111, 120, 195, 2, 4.1802
22, 3, wb, attraction, a-b-da, 14, 3, 8, 21, 195, 120, 181, 111, 120, 195, 1, 0.754128
22, 3, wb, attraction, a-b-da, 9, 3, 8, 22, 195, 120, 120, 195, 186, 114, 3, 1.4738
22, 3, wb, attraction, a-b-da, 9, 3, 8, 22, 195, 120, 120, 195, 186, 114, 2, 0.97367
22, 3, wb, filler, NA, 999, 999, 8, 23, 186, 186, 176, 78, 88, 183, 2, 1.19624
22, 3, wb, filler, NA, 999, 999, 8, 23, 186, 186, 176, 78, 88, 183, 1, 0.718579
22, 3, wb, attraction, a-b-db, 5, 3, 8, 24, 117, 190, 120, 195, 195, 120, 1, 1.98142
22, 3, wb, attraction, a-b-db, 5, 3, 8, 24, 117, 190, 120, 195, 195, 120, 2, 0.811264
22, 3, wb, attraction, a-b-da, 5, 2, 8, 25, 161, 88, 165, 90, 90, 165, 1, 1.41839
22, 3, wb, attraction, a-b-da, 5, 2, 8, 25, 161, 88, 165, 90, 90, 165, 2, 0.760561
22, 3, wb, attraction, a-b-db, 9, 1, 8, 26, 135, 60, 57, 129, 60, 135, 2, 2.98321
22, 3, wb, attraction, a-b-db, 9, 1, 8, 26, 135, 60, 57, 129, 60, 135, 1, 1.42182
22, 3, wb, catch, NA, 999, 999, 8, 27, 156, 99, 162, 153, 74, 121, 3, 1.26011
22, 3, wb, catch, NA, 999, 999, 8, 27, 156, 99, 162, 153, 74, 121, 2, 0.735225
22, 3, wb, attraction, a-b-da, 9, 2, 8, 28, 165, 90, 157, 86, 90, 165, 2, 1.7529
22, 3, wb, attraction, a-b-da, 9, 2, 8, 28, 165, 90, 157, 86, 90, 165, 1, 1.00396
22, 3, wb, attraction, a-b-db, 2, 1, 8, 29, 60, 135, 59, 134, 135, 60, 2, 1.88701
22, 3, wb, attraction, a-b-db, 2, 1, 8, 29, 60, 135, 59, 134, 135, 60, 1, 0.739483
22, 3, wb, attraction, a-b-da, 5, 3, 8, 30, 120, 195, 190, 117, 195, 120, 2, 4.91577
22, 3, wb, attraction, a-b-da, 5, 3, 8, 30, 120, 195, 190, 117, 195, 120, 3, 0.628641
22, 3, wb, attraction, a-b-da, 14, 2, 8, 31, 153, 83, 165, 90, 90, 165, 1, 1.41636
22, 3, wb, attraction, a-b-da, 14, 2, 8, 31, 153, 83, 165, 90, 90, 165, 2, 3.43106
22, 3, wb, attraction, a-b-da, 9, 1, 8, 32, 129, 57, 135, 60, 60, 135, 1, 1.83637
22, 3, wb, attraction, a-b-da, 9, 1, 8, 32, 129, 57, 135, 60, 60, 135, 2, 1.13028
22, 3, wb, filler, NA, 999, 999, 8, 33, 76, 153, 89, 60, 89, 108, 2, 1.37218
22, 3, wb, filler, NA, 999, 999, 8, 33, 76, 153, 89, 60, 89, 108, 1, 1.04176
22, 3, wb, attraction, a-b-db, 9, 3, 8, 34, 114, 186, 120, 195, 195, 120, 1, 1.34292
22, 3, wb, attraction, a-b-db, 9, 3, 8, 34, 114, 186, 120, 195, 195, 120, 2, 0.857159
22, 3, wb, attraction, a-b-db, 5, 1, 8, 35, 60, 135, 58, 132, 135, 60, 2, 1.81249
22, 3, wb, attraction, a-b-db, 5, 1, 8, 35, 60, 135, 58, 132, 135, 60, 1, 0.827181
22, 3, wb, attraction, a-b-db, 2, 3, 8, 36, 119, 193, 120, 195, 195, 120, 1, 1.76745
22, 3, wb, attraction, a-b-db, 2, 3, 8, 36, 119, 193, 120, 195, 195, 120, 2, 0.806309
22, 3, wb, filler, NA, 999, 999, 8, 37, 179, 67, 138, 146, 180, 167, 1, 1.3556
22, 3, wb, filler, NA, 999, 999, 8, 37, 179, 67, 138, 146, 180, 167, 3, 1.18326
