sub_n, computer_n, bw_cond, effect, set, distance, diag, block_n, trial_n, h1, w1, h2, w2, h3, w3, choice, rt 
293, 3, bw, practice, NA, 999, 999, 0, 1, 168, 169, 143, 87, 72, 177, 1, 1.81817
293, 3, bw, practice, NA, 999, 999, 0, 1, 168, 169, 143, 87, 72, 177, 2, 2.60769
293, 3, bw, practice, NA, 999, 999, 0, 2, 122, 126, 82, 83, 92, 163, 1, 3.37718
293, 3, bw, practice, NA, 999, 999, 0, 2, 122, 126, 82, 83, 92, 163, 2, 0.960841
293, 3, bw, practice, NA, 999, 999, 0, 3, 134, 173, 60, 102, 141, 78, 1, 2.31552
293, 3, bw, practice, NA, 999, 999, 0, 3, 134, 173, 60, 102, 141, 78, 2, 0.943129
293, 3, bw, attraction, a-b-da, 9, 1, 1, 1, 60, 135, 129, 57, 135, 60, 1, 2.60951
293, 3, bw, attraction, a-b-da, 9, 1, 1, 1, 60, 135, 129, 57, 135, 60, 2, 1.78337
293, 3, bw, filler, NA, 999, 999, 1, 2, 111, 71, 84, 159, 73, 184, 2, 2.65312
293, 3, bw, filler, NA, 999, 999, 1, 2, 111, 71, 84, 159, 73, 184, 1, 0.70563
293, 3, bw, attraction, a-b-db, 14, 3, 1, 3, 120, 195, 195, 120, 111, 181, 1, 2.62746
293, 3, bw, attraction, a-b-db, 14, 3, 1, 3, 120, 195, 195, 120, 111, 181, 2, 2.80847
293, 3, bw, attraction, a-b-db, 5, 2, 1, 4, 88, 161, 165, 90, 90, 165, 3, 2.97294
293, 3, bw, attraction, a-b-db, 5, 2, 1, 4, 88, 161, 165, 90, 90, 165, 2, 0.675912
293, 3, bw, catch, NA, 999, 999, 1, 5, 69, 126, 104, 151, 174, 141, 3, 1.0143
293, 3, bw, catch, NA, 999, 999, 1, 5, 69, 126, 104, 151, 174, 141, 1, 0.452701
293, 3, bw, attraction, a-b-db, 5, 1, 1, 6, 60, 135, 135, 60, 58, 132, 1, 4.43245
293, 3, bw, attraction, a-b-db, 5, 1, 1, 6, 60, 135, 135, 60, 58, 132, 3, 0.381089
293, 3, bw, attraction, a-b-db, 9, 2, 1, 7, 90, 165, 86, 157, 165, 90, 1, 3.53145
293, 3, bw, attraction, a-b-db, 9, 2, 1, 7, 90, 165, 86, 157, 165, 90, 3, 5.92432
293, 3, bw, attraction, a-b-da, 5, 3, 1, 8, 120, 195, 195, 120, 190, 117, 2, 2.8038
293, 3, bw, attraction, a-b-da, 5, 3, 1, 8, 120, 195, 195, 120, 190, 117, 3, 0.818245
293, 3, bw, filler, NA, 999, 999, 1, 9, 121, 133, 116, 92, 86, 88, 1, 1.07925
293, 3, bw, filler, NA, 999, 999, 1, 9, 121, 133, 116, 92, 86, 88, 3, 0.666923
293, 3, bw, filler, NA, 999, 999, 1, 10, 147, 98, 106, 152, 167, 187, 3, 1.16594
293, 3, bw, filler, NA, 999, 999, 1, 10, 147, 98, 106, 152, 167, 187, 1, 0.438239
293, 3, bw, attraction, a-b-db, 9, 1, 1, 11, 60, 135, 135, 60, 57, 129, 1, 1.39471
293, 3, bw, attraction, a-b-db, 9, 1, 1, 11, 60, 135, 135, 60, 57, 129, 2, 0.657701
293, 3, bw, filler, NA, 999, 999, 1, 12, 173, 149, 63, 58, 190, 148, 3, 1.14074
293, 3, bw, filler, NA, 999, 999, 1, 12, 173, 149, 63, 58, 190, 148, 2, 0.653703
293, 3, bw, filler, NA, 999, 999, 1, 13, 184, 153, 176, 183, 64, 118, 2, 1.86536
293, 3, bw, filler, NA, 999, 999, 1, 13, 184, 153, 176, 183, 64, 118, 3, 0.501513
293, 3, bw, attraction, a-b-da, 9, 3, 1, 14, 186, 114, 120, 195, 195, 120, 3, 1.46326
293, 3, bw, attraction, a-b-da, 9, 3, 1, 14, 186, 114, 120, 195, 195, 120, 1, 0.483419
293, 3, bw, filler, NA, 999, 999, 1, 15, 158, 130, 158, 58, 176, 73, 1, 0.893741
293, 3, bw, filler, NA, 999, 999, 1, 15, 158, 130, 158, 58, 176, 73, 2, 0.817039
293, 3, bw, filler, NA, 999, 999, 1, 16, 112, 102, 74, 86, 152, 133, 3, 0.66181
293, 3, bw, filler, NA, 999, 999, 1, 16, 112, 102, 74, 86, 152, 133, 2, 0.490455
293, 3, bw, attraction, a-b-da, 5, 2, 1, 17, 90, 165, 161, 88, 165, 90, 2, 1.27613
293, 3, bw, attraction, a-b-da, 5, 2, 1, 17, 90, 165, 161, 88, 165, 90, 3, 1.37565
293, 3, bw, attraction, a-b-db, 14, 1, 1, 18, 56, 125, 60, 135, 135, 60, 2, 1.26178
293, 3, bw, attraction, a-b-db, 14, 1, 1, 18, 56, 125, 60, 135, 135, 60, 1, 0.442078
293, 3, bw, attraction, a-b-da, 14, 2, 1, 19, 165, 90, 90, 165, 153, 83, 2, 1.38993
293, 3, bw, attraction, a-b-da, 14, 2, 1, 19, 165, 90, 90, 165, 153, 83, 1, 0.548749
293, 3, bw, attraction, a-b-da, 14, 1, 1, 20, 135, 60, 60, 135, 125, 56, 2, 0.740606
293, 3, bw, attraction, a-b-da, 14, 1, 1, 20, 135, 60, 60, 135, 125, 56, 3, 0.829812
293, 3, bw, attraction, a-b-da, 5, 1, 1, 21, 135, 60, 132, 58, 60, 135, 1, 2.08192
293, 3, bw, attraction, a-b-da, 5, 1, 1, 21, 135, 60, 132, 58, 60, 135, 3, 0.477202
293, 3, bw, attraction, a-b-db, 5, 3, 1, 22, 117, 190, 120, 195, 195, 120, 2, 1.93574
293, 3, bw, attraction, a-b-db, 5, 3, 1, 22, 117, 190, 120, 195, 195, 120, 3, 0.849106
293, 3, bw, attraction, a-b-da, 2, 1, 1, 23, 135, 60, 134, 59, 60, 135, 3, 0.900928
293, 3, bw, attraction, a-b-da, 2, 1, 1, 23, 135, 60, 134, 59, 60, 135, 2, 0.751802
293, 3, bw, attraction, a-b-da, 14, 3, 1, 24, 120, 195, 195, 120, 181, 111, 2, 1.56762
293, 3, bw, attraction, a-b-da, 14, 3, 1, 24, 120, 195, 195, 120, 181, 111, 3, 0.527681
293, 3, bw, attraction, a-b-da, 2, 3, 1, 25, 193, 119, 120, 195, 195, 120, 2, 3.33614
293, 3, bw, attraction, a-b-da, 2, 3, 1, 25, 193, 119, 120, 195, 195, 120, 1, 0.433153
293, 3, bw, catch, NA, 999, 999, 1, 26, 160, 95, 98, 97, 125, 190, 3, 0.933496
293, 3, bw, catch, NA, 999, 999, 1, 26, 160, 95, 98, 97, 125, 190, 2, 0.66327
293, 3, bw, attraction, a-b-db, 14, 2, 1, 27, 83, 153, 165, 90, 90, 165, 3, 3.63421
293, 3, bw, attraction, a-b-db, 14, 2, 1, 27, 83, 153, 165, 90, 90, 165, 1, 0.623022
293, 3, bw, filler, NA, 999, 999, 1, 28, 88, 131, 144, 170, 94, 145, 2, 1.65222
293, 3, bw, filler, NA, 999, 999, 1, 28, 88, 131, 144, 170, 94, 145, 1, 0.761034
293, 3, bw, attraction, a-b-db, 9, 3, 1, 29, 114, 186, 120, 195, 195, 120, 3, 1.28794
293, 3, bw, attraction, a-b-db, 9, 3, 1, 29, 114, 186, 120, 195, 195, 120, 1, 1.89961
293, 3, bw, attraction, a-b-db, 2, 2, 1, 30, 165, 90, 90, 165, 89, 163, 3, 1.06893
293, 3, bw, attraction, a-b-db, 2, 2, 1, 30, 165, 90, 90, 165, 89, 163, 1, 0.497258
293, 3, bw, attraction, a-b-da, 9, 2, 1, 31, 157, 86, 90, 165, 165, 90, 2, 1.45109
293, 3, bw, attraction, a-b-da, 9, 2, 1, 31, 157, 86, 90, 165, 165, 90, 1, 0.575864
293, 3, bw, filler, NA, 999, 999, 1, 32, 69, 91, 138, 185, 192, 158, 3, 0.678241
293, 3, bw, filler, NA, 999, 999, 1, 32, 69, 91, 138, 185, 192, 158, 1, 0.794055
293, 3, bw, attraction, a-b-db, 2, 1, 1, 33, 60, 135, 135, 60, 59, 134, 1, 3.83183
293, 3, bw, attraction, a-b-db, 2, 1, 1, 33, 60, 135, 135, 60, 59, 134, 3, 0.548611
293, 3, bw, filler, NA, 999, 999, 1, 34, 107, 188, 169, 78, 131, 130, 3, 1.43632
293, 3, bw, filler, NA, 999, 999, 1, 34, 107, 188, 169, 78, 131, 130, 2, 1.73784
293, 3, bw, catch, NA, 999, 999, 1, 35, 105, 150, 84, 111, 130, 185, 3, 0.865906
293, 3, bw, catch, NA, 999, 999, 1, 35, 105, 150, 84, 111, 130, 185, 2, 0.654293
293, 3, bw, attraction, a-b-da, 2, 2, 1, 36, 90, 165, 165, 90, 163, 89, 1, 1.554
293, 3, bw, attraction, a-b-da, 2, 2, 1, 36, 90, 165, 165, 90, 163, 89, 2, 0.338187
293, 3, bw, attraction, a-b-db, 2, 3, 1, 37, 119, 193, 195, 120, 120, 195, 1, 1.39465
293, 3, bw, attraction, a-b-db, 2, 3, 1, 37, 119, 193, 195, 120, 120, 195, 3, 0.473567
293, 3, bw, attraction, a-b-db, 2, 2, 2, 1, 165, 90, 90, 165, 89, 163, 3, 0.764018
293, 3, bw, attraction, a-b-db, 2, 2, 2, 1, 165, 90, 90, 165, 89, 163, 1, 0.476422
293, 3, bw, catch, NA, 999, 999, 2, 2, 120, 75, 121, 134, 175, 140, 3, 0.670878
293, 3, bw, catch, NA, 999, 999, 2, 2, 120, 75, 121, 134, 175, 140, 1, 0.547265
293, 3, bw, catch, NA, 999, 999, 2, 3, 118, 137, 100, 95, 156, 159, 3, 0.58704
293, 3, bw, catch, NA, 999, 999, 2, 3, 118, 137, 100, 95, 156, 159, 2, 0.362824
293, 3, bw, attraction, a-b-da, 5, 1, 2, 4, 135, 60, 132, 58, 60, 135, 3, 0.889986
293, 3, bw, attraction, a-b-da, 5, 1, 2, 4, 135, 60, 132, 58, 60, 135, 2, 0.421205
293, 3, bw, attraction, a-b-db, 9, 3, 2, 5, 120, 195, 195, 120, 114, 186, 3, 0.578148
293, 3, bw, attraction, a-b-db, 9, 3, 2, 5, 120, 195, 195, 120, 114, 186, 1, 0.482097
293, 3, bw, attraction, a-b-db, 14, 2, 2, 6, 90, 165, 165, 90, 83, 153, 1, 0.828372
293, 3, bw, attraction, a-b-db, 14, 2, 2, 6, 90, 165, 165, 90, 83, 153, 2, 0.33017
293, 3, bw, attraction, a-b-da, 14, 2, 2, 7, 153, 83, 165, 90, 90, 165, 3, 0.738644
293, 3, bw, attraction, a-b-da, 14, 2, 2, 7, 153, 83, 165, 90, 90, 165, 1, 0.595646
293, 3, bw, attraction, a-b-db, 5, 1, 2, 8, 135, 60, 58, 132, 60, 135, 3, 0.673496
293, 3, bw, attraction, a-b-db, 5, 1, 2, 8, 135, 60, 58, 132, 60, 135, 1, 0.78939
293, 3, bw, filler, NA, 999, 999, 2, 9, 80, 116, 82, 66, 167, 163, 3, 0.523595
293, 3, bw, filler, NA, 999, 999, 2, 9, 80, 116, 82, 66, 167, 163, 2, 0.493379
293, 3, bw, filler, NA, 999, 999, 2, 10, 91, 174, 192, 67, 174, 139, 3, 1.70324
293, 3, bw, filler, NA, 999, 999, 2, 10, 91, 174, 192, 67, 174, 139, 2, 0.490048
293, 3, bw, attraction, a-b-db, 9, 1, 2, 11, 135, 60, 57, 129, 60, 135, 3, 1.13987
293, 3, bw, attraction, a-b-db, 9, 1, 2, 11, 135, 60, 57, 129, 60, 135, 1, 0.780632
293, 3, bw, filler, NA, 999, 999, 2, 12, 147, 111, 128, 87, 185, 144, 3, 0.739045
293, 3, bw, filler, NA, 999, 999, 2, 12, 147, 111, 128, 87, 185, 144, 2, 0.412266
293, 3, bw, attraction, a-b-da, 14, 1, 2, 13, 135, 60, 60, 135, 125, 56, 1, 1.2974
293, 3, bw, attraction, a-b-da, 14, 1, 2, 13, 135, 60, 60, 135, 125, 56, 2, 0.484161
293, 3, bw, catch, NA, 999, 999, 2, 14, 130, 125, 169, 146, 65, 130, 2, 0.846601
293, 3, bw, catch, NA, 999, 999, 2, 14, 130, 125, 169, 146, 65, 130, 3, 0.499842
293, 3, bw, attraction, a-b-da, 9, 1, 2, 15, 129, 57, 60, 135, 135, 60, 3, 0.925408
293, 3, bw, attraction, a-b-da, 9, 1, 2, 15, 129, 57, 60, 135, 135, 60, 2, 0.463162
293, 3, bw, attraction, a-b-db, 5, 2, 2, 16, 90, 165, 88, 161, 165, 90, 3, 0.826346
293, 3, bw, attraction, a-b-db, 5, 2, 2, 16, 90, 165, 88, 161, 165, 90, 1, 0.71202
293, 3, bw, attraction, a-b-da, 2, 1, 2, 17, 134, 59, 60, 135, 135, 60, 3, 0.561072
293, 3, bw, attraction, a-b-da, 2, 1, 2, 17, 134, 59, 60, 135, 135, 60, 2, 0.337547
293, 3, bw, filler, NA, 999, 999, 2, 18, 72, 158, 67, 148, 135, 138, 3, 0.786107
293, 3, bw, filler, NA, 999, 999, 2, 18, 72, 158, 67, 148, 135, 138, 1, 0.561739
293, 3, bw, filler, NA, 999, 999, 2, 19, 108, 116, 115, 83, 153, 137, 3, 0.816798
293, 3, bw, filler, NA, 999, 999, 2, 19, 108, 116, 115, 83, 153, 137, 2, 0.687224
293, 3, bw, attraction, a-b-da, 5, 3, 2, 20, 195, 120, 190, 117, 120, 195, 3, 1.95365
293, 3, bw, attraction, a-b-da, 5, 3, 2, 20, 195, 120, 190, 117, 120, 195, 2, 1.09036
293, 3, bw, filler, NA, 999, 999, 2, 21, 73, 144, 89, 125, 181, 166, 3, 0.619939
293, 3, bw, filler, NA, 999, 999, 2, 21, 73, 144, 89, 125, 181, 166, 1, 0.474409
293, 3, bw, filler, NA, 999, 999, 2, 22, 193, 163, 195, 99, 92, 89, 1, 0.660821
293, 3, bw, filler, NA, 999, 999, 2, 22, 193, 163, 195, 99, 92, 89, 3, 0.545297
293, 3, bw, attraction, a-b-da, 9, 3, 2, 23, 186, 114, 195, 120, 120, 195, 3, 0.625058
293, 3, bw, attraction, a-b-da, 9, 3, 2, 23, 186, 114, 195, 120, 120, 195, 1, 0.44682
293, 3, bw, attraction, a-b-db, 5, 3, 2, 24, 120, 195, 195, 120, 117, 190, 1, 1.05867
293, 3, bw, attraction, a-b-db, 5, 3, 2, 24, 120, 195, 195, 120, 117, 190, 2, 0.422878
293, 3, bw, filler, NA, 999, 999, 2, 25, 85, 110, 104, 72, 56, 80, 1, 0.940112
293, 3, bw, filler, NA, 999, 999, 2, 25, 85, 110, 104, 72, 56, 80, 3, 0.533062
293, 3, bw, attraction, a-b-db, 14, 3, 2, 26, 120, 195, 111, 181, 195, 120, 3, 4.40549
293, 3, bw, attraction, a-b-db, 14, 3, 2, 26, 120, 195, 111, 181, 195, 120, 1, 0.547434
293, 3, bw, filler, NA, 999, 999, 2, 27, 188, 95, 88, 128, 74, 125, 1, 2.32336
293, 3, bw, filler, NA, 999, 999, 2, 27, 188, 95, 88, 128, 74, 125, 3, 0.64455
293, 3, bw, filler, NA, 999, 999, 2, 28, 74, 139, 142, 106, 57, 124, 2, 0.976276
293, 3, bw, filler, NA, 999, 999, 2, 28, 74, 139, 142, 106, 57, 124, 3, 0.480055
293, 3, bw, attraction, a-b-da, 9, 2, 2, 29, 90, 165, 165, 90, 157, 86, 3, 2.66647
293, 3, bw, attraction, a-b-da, 9, 2, 2, 29, 90, 165, 165, 90, 157, 86, 1, 0.43804
293, 3, bw, attraction, a-b-da, 2, 2, 2, 30, 90, 165, 165, 90, 163, 89, 3, 1.02662
293, 3, bw, attraction, a-b-da, 2, 2, 2, 30, 90, 165, 165, 90, 163, 89, 2, 0.47225
293, 3, bw, attraction, a-b-db, 14, 1, 2, 31, 135, 60, 60, 135, 56, 125, 2, 1.34742
293, 3, bw, attraction, a-b-db, 14, 1, 2, 31, 135, 60, 60, 135, 56, 125, 3, 0.588313
293, 3, bw, attraction, a-b-db, 9, 2, 2, 32, 86, 157, 165, 90, 90, 165, 3, 4.2988
293, 3, bw, attraction, a-b-db, 9, 2, 2, 32, 86, 157, 165, 90, 90, 165, 2, 0.524855
293, 3, bw, attraction, a-b-db, 2, 1, 2, 33, 59, 134, 60, 135, 135, 60, 2, 1.74114
293, 3, bw, attraction, a-b-db, 2, 1, 2, 33, 59, 134, 60, 135, 135, 60, 3, 0.405891
293, 3, bw, attraction, a-b-da, 5, 2, 2, 34, 165, 90, 161, 88, 90, 165, 3, 2.09966
293, 3, bw, attraction, a-b-da, 5, 2, 2, 34, 165, 90, 161, 88, 90, 165, 2, 0.814418
293, 3, bw, attraction, a-b-db, 2, 3, 2, 35, 195, 120, 119, 193, 120, 195, 1, 3.76338
293, 3, bw, attraction, a-b-db, 2, 3, 2, 35, 195, 120, 119, 193, 120, 195, 3, 0.386846
293, 3, bw, attraction, a-b-da, 2, 3, 2, 36, 193, 119, 195, 120, 120, 195, 3, 3.08131
293, 3, bw, attraction, a-b-da, 2, 3, 2, 36, 193, 119, 195, 120, 120, 195, 1, 0.540292
293, 3, bw, attraction, a-b-da, 14, 3, 2, 37, 120, 195, 195, 120, 181, 111, 2, 0.868034
293, 3, bw, attraction, a-b-da, 14, 3, 2, 37, 120, 195, 195, 120, 181, 111, 3, 1.48046
293, 3, bw, attraction, a-b-da, 9, 1, 3, 1, 135, 60, 60, 135, 129, 57, 1, 1.89859
293, 3, bw, attraction, a-b-da, 9, 1, 3, 1, 135, 60, 60, 135, 129, 57, 3, 0.493291
293, 3, bw, attraction, a-b-db, 9, 1, 3, 2, 60, 135, 135, 60, 57, 129, 1, 0.719213
293, 3, bw, attraction, a-b-db, 9, 1, 3, 2, 60, 135, 135, 60, 57, 129, 2, 1.20965
293, 3, bw, catch, NA, 999, 999, 3, 3, 119, 76, 182, 133, 94, 161, 2, 0.830401
293, 3, bw, catch, NA, 999, 999, 3, 3, 119, 76, 182, 133, 94, 161, 1, 0.372163
293, 3, bw, filler, NA, 999, 999, 3, 4, 192, 166, 147, 129, 119, 184, 1, 1.13921
293, 3, bw, filler, NA, 999, 999, 3, 4, 192, 166, 147, 129, 119, 184, 2, 0.804217
293, 3, bw, filler, NA, 999, 999, 3, 5, 176, 118, 155, 111, 135, 134, 1, 1.51398
293, 3, bw, filler, NA, 999, 999, 3, 5, 176, 118, 155, 111, 135, 134, 3, 3.01217
293, 3, bw, attraction, a-b-db, 5, 1, 3, 6, 60, 135, 58, 132, 135, 60, 1, 0.960371
293, 3, bw, attraction, a-b-db, 5, 1, 3, 6, 60, 135, 58, 132, 135, 60, 3, 0.792789
293, 3, bw, attraction, a-b-db, 5, 2, 3, 7, 88, 161, 90, 165, 165, 90, 3, 0.750642
293, 3, bw, attraction, a-b-db, 5, 2, 3, 7, 88, 161, 90, 165, 165, 90, 1, 1.04754
293, 3, bw, attraction, a-b-db, 14, 3, 3, 8, 195, 120, 111, 181, 120, 195, 3, 0.571318
293, 3, bw, attraction, a-b-db, 14, 3, 3, 8, 195, 120, 111, 181, 120, 195, 2, 0.474974
293, 3, bw, attraction, a-b-da, 5, 2, 3, 9, 161, 88, 90, 165, 165, 90, 3, 0.453347
293, 3, bw, attraction, a-b-da, 5, 2, 3, 9, 161, 88, 90, 165, 165, 90, 2, 0.426622
293, 3, bw, filler, NA, 999, 999, 3, 10, 56, 65, 179, 129, 63, 122, 3, 0.639084
293, 3, bw, filler, NA, 999, 999, 3, 10, 56, 65, 179, 129, 63, 122, 1, 0.908165
293, 3, bw, filler, NA, 999, 999, 3, 11, 142, 127, 87, 98, 167, 141, 3, 0.813149
293, 3, bw, filler, NA, 999, 999, 3, 11, 142, 127, 87, 98, 167, 141, 2, 0.379548
293, 3, bw, catch, NA, 999, 999, 3, 12, 107, 148, 119, 76, 146, 169, 3, 0.73006
293, 3, bw, catch, NA, 999, 999, 3, 12, 107, 148, 119, 76, 146, 169, 2, 0.515799
293, 3, bw, attraction, a-b-da, 9, 3, 3, 13, 195, 120, 120, 195, 186, 114, 1, 1.22886
293, 3, bw, attraction, a-b-da, 9, 3, 3, 13, 195, 120, 120, 195, 186, 114, 3, 0.610507
293, 3, bw, filler, NA, 999, 999, 3, 14, 85, 176, 160, 112, 152, 155, 3, 1.29558
293, 3, bw, filler, NA, 999, 999, 3, 14, 85, 176, 160, 112, 152, 155, 1, 0.682557
293, 3, bw, catch, NA, 999, 999, 3, 15, 133, 182, 71, 124, 93, 162, 1, 1.06878
293, 3, bw, catch, NA, 999, 999, 3, 15, 133, 182, 71, 124, 93, 162, 2, 0.417112
293, 3, bw, attraction, a-b-da, 14, 3, 3, 16, 120, 195, 181, 111, 195, 120, 3, 0.990442
293, 3, bw, attraction, a-b-da, 14, 3, 3, 16, 120, 195, 181, 111, 195, 120, 1, 0.533312
293, 3, bw, attraction, a-b-da, 2, 3, 3, 17, 120, 195, 193, 119, 195, 120, 3, 0.821732
293, 3, bw, attraction, a-b-da, 2, 3, 3, 17, 120, 195, 193, 119, 195, 120, 2, 0.45152
293, 3, bw, attraction, a-b-db, 2, 2, 3, 18, 165, 90, 90, 165, 89, 163, 3, 0.943407
293, 3, bw, attraction, a-b-db, 2, 2, 3, 18, 165, 90, 90, 165, 89, 163, 1, 0.704279
293, 3, bw, filler, NA, 999, 999, 3, 19, 147, 134, 58, 149, 98, 67, 1, 1.01805
293, 3, bw, filler, NA, 999, 999, 3, 19, 147, 134, 58, 149, 98, 67, 3, 0.664304
293, 3, bw, attraction, a-b-db, 9, 2, 3, 20, 90, 165, 165, 90, 86, 157, 1, 1.33933
293, 3, bw, attraction, a-b-db, 9, 2, 3, 20, 90, 165, 165, 90, 86, 157, 2, 0.69233
293, 3, bw, attraction, a-b-da, 14, 1, 3, 21, 125, 56, 60, 135, 135, 60, 3, 2.26999
293, 3, bw, attraction, a-b-da, 14, 1, 3, 21, 125, 56, 60, 135, 135, 60, 1, 0.738041
293, 3, bw, attraction, a-b-db, 2, 3, 3, 22, 120, 195, 195, 120, 119, 193, 1, 2.61029
293, 3, bw, attraction, a-b-db, 2, 3, 3, 22, 120, 195, 195, 120, 119, 193, 2, 0.656183
293, 3, bw, attraction, a-b-db, 2, 1, 3, 23, 135, 60, 60, 135, 59, 134, 1, 2.9078
293, 3, bw, attraction, a-b-db, 2, 1, 3, 23, 135, 60, 60, 135, 59, 134, 3, 0.453557
293, 3, bw, attraction, a-b-db, 14, 2, 3, 24, 165, 90, 90, 165, 83, 153, 1, 1.16131
293, 3, bw, attraction, a-b-db, 14, 2, 3, 24, 165, 90, 90, 165, 83, 153, 3, 0.529729
293, 3, bw, attraction, a-b-da, 9, 2, 3, 25, 90, 165, 165, 90, 157, 86, 2, 1.66617
293, 3, bw, attraction, a-b-da, 9, 2, 3, 25, 90, 165, 165, 90, 157, 86, 1, 0.446317
293, 3, bw, filler, NA, 999, 999, 3, 26, 95, 84, 177, 165, 62, 129, 2, 0.978073
293, 3, bw, filler, NA, 999, 999, 3, 26, 95, 84, 177, 165, 62, 129, 1, 0.465672
293, 3, bw, filler, NA, 999, 999, 3, 27, 67, 180, 75, 58, 189, 64, 1, 2.00491
293, 3, bw, filler, NA, 999, 999, 3, 27, 67, 180, 75, 58, 189, 64, 2, 0.587523
293, 3, bw, attraction, a-b-da, 5, 1, 3, 28, 60, 135, 132, 58, 135, 60, 2, 4.35397
293, 3, bw, attraction, a-b-da, 5, 1, 3, 28, 60, 135, 132, 58, 135, 60, 1, 1.10604
293, 3, bw, attraction, a-b-da, 2, 2, 3, 29, 165, 90, 163, 89, 90, 165, 3, 0.92349
293, 3, bw, attraction, a-b-da, 2, 2, 3, 29, 165, 90, 163, 89, 90, 165, 1, 0.637275
293, 3, bw, filler, NA, 999, 999, 3, 30, 175, 126, 181, 133, 130, 117, 2, 1.39355
293, 3, bw, filler, NA, 999, 999, 3, 30, 175, 126, 181, 133, 130, 117, 3, 0.352489
293, 3, bw, filler, NA, 999, 999, 3, 31, 74, 192, 186, 113, 158, 164, 3, 0.760499
293, 3, bw, filler, NA, 999, 999, 3, 31, 74, 192, 186, 113, 158, 164, 1, 0.49661
293, 3, bw, attraction, a-b-db, 9, 3, 3, 32, 120, 195, 195, 120, 114, 186, 1, 0.946455
293, 3, bw, attraction, a-b-db, 9, 3, 3, 32, 120, 195, 195, 120, 114, 186, 3, 0.739532
293, 3, bw, attraction, a-b-db, 5, 3, 3, 33, 195, 120, 120, 195, 117, 190, 2, 1.50803
293, 3, bw, attraction, a-b-db, 5, 3, 3, 33, 195, 120, 120, 195, 117, 190, 1, 1.80611
293, 3, bw, attraction, a-b-da, 14, 2, 3, 34, 90, 165, 165, 90, 153, 83, 1, 0.963461
293, 3, bw, attraction, a-b-da, 14, 2, 3, 34, 90, 165, 165, 90, 153, 83, 3, 0.851928
293, 3, bw, attraction, a-b-db, 14, 1, 3, 35, 56, 125, 135, 60, 60, 135, 2, 2.37543
293, 3, bw, attraction, a-b-db, 14, 1, 3, 35, 56, 125, 135, 60, 60, 135, 1, 0.558615
293, 3, bw, attraction, a-b-da, 5, 3, 3, 36, 120, 195, 195, 120, 190, 117, 1, 0.869758
293, 3, bw, attraction, a-b-da, 5, 3, 3, 36, 120, 195, 195, 120, 190, 117, 3, 0.522294
293, 3, bw, attraction, a-b-da, 2, 1, 3, 37, 134, 59, 60, 135, 135, 60, 1, 0.86725
293, 3, bw, attraction, a-b-da, 2, 1, 3, 37, 134, 59, 60, 135, 135, 60, 3, 1.09566
293, 3, bw, attraction, a-b-db, 9, 1, 4, 1, 60, 135, 57, 129, 135, 60, 1, 1.70536
293, 3, bw, attraction, a-b-db, 9, 1, 4, 1, 60, 135, 57, 129, 135, 60, 2, 0.411376
293, 3, bw, attraction, a-b-db, 14, 2, 4, 2, 90, 165, 165, 90, 83, 153, 1, 1.2885
293, 3, bw, attraction, a-b-db, 14, 2, 4, 2, 90, 165, 165, 90, 83, 153, 3, 0.347348
293, 3, bw, catch, NA, 999, 999, 4, 3, 171, 144, 138, 117, 125, 70, 1, 1.37116
293, 3, bw, catch, NA, 999, 999, 4, 3, 171, 144, 138, 117, 125, 70, 3, 0.571404
293, 3, bw, filler, NA, 999, 999, 4, 4, 86, 160, 87, 98, 112, 90, 1, 2.13046
293, 3, bw, filler, NA, 999, 999, 4, 4, 86, 160, 87, 98, 112, 90, 2, 0.331921
293, 3, bw, attraction, a-b-da, 5, 3, 4, 5, 190, 117, 120, 195, 195, 120, 3, 1.22831
293, 3, bw, attraction, a-b-da, 5, 3, 4, 5, 190, 117, 120, 195, 195, 120, 1, 0.585904
293, 3, bw, attraction, a-b-db, 5, 3, 4, 6, 117, 190, 195, 120, 120, 195, 1, 2.01629
293, 3, bw, attraction, a-b-db, 5, 3, 4, 6, 117, 190, 195, 120, 120, 195, 3, 0.502296
293, 3, bw, attraction, a-b-db, 5, 1, 4, 7, 60, 135, 135, 60, 58, 132, 1, 4.41613
293, 3, bw, attraction, a-b-db, 5, 1, 4, 7, 60, 135, 135, 60, 58, 132, 2, 2.31741
293, 3, bw, filler, NA, 999, 999, 4, 8, 103, 123, 161, 107, 191, 79, 2, 3.46198
293, 3, bw, filler, NA, 999, 999, 4, 8, 103, 123, 161, 107, 191, 79, 1, 0.457476
293, 3, bw, attraction, a-b-da, 14, 1, 4, 9, 125, 56, 135, 60, 60, 135, 3, 1.53265
293, 3, bw, attraction, a-b-da, 14, 1, 4, 9, 125, 56, 135, 60, 60, 135, 2, 0.374246
293, 3, bw, filler, NA, 999, 999, 4, 10, 93, 94, 168, 77, 172, 187, 3, 1.03671
293, 3, bw, filler, NA, 999, 999, 4, 10, 93, 94, 168, 77, 172, 187, 1, 0.426353
293, 3, bw, attraction, a-b-db, 5, 2, 4, 11, 165, 90, 90, 165, 88, 161, 2, 2.35085
293, 3, bw, attraction, a-b-db, 5, 2, 4, 11, 165, 90, 90, 165, 88, 161, 1, 0.815269
293, 3, bw, attraction, a-b-db, 14, 1, 4, 12, 135, 60, 56, 125, 60, 135, 3, 1.14827
293, 3, bw, attraction, a-b-db, 14, 1, 4, 12, 135, 60, 56, 125, 60, 135, 1, 0.597268
293, 3, bw, attraction, a-b-db, 14, 3, 4, 13, 111, 181, 120, 195, 195, 120, 3, 6.37903
293, 3, bw, attraction, a-b-db, 14, 3, 4, 13, 111, 181, 120, 195, 195, 120, 2, 0.657022
293, 3, bw, attraction, a-b-db, 2, 2, 4, 14, 165, 90, 89, 163, 90, 165, 3, 1.30808
293, 3, bw, attraction, a-b-db, 2, 2, 4, 14, 165, 90, 89, 163, 90, 165, 1, 0.766266
293, 3, bw, filler, NA, 999, 999, 4, 15, 129, 134, 56, 85, 135, 143, 3, 0.613366
293, 3, bw, filler, NA, 999, 999, 4, 15, 129, 134, 56, 85, 135, 143, 2, 0.739737
293, 3, bw, attraction, a-b-da, 2, 1, 4, 16, 134, 59, 135, 60, 60, 135, 3, 0.692151
293, 3, bw, attraction, a-b-da, 2, 1, 4, 16, 134, 59, 135, 60, 60, 135, 1, 0.751248
293, 3, bw, filler, NA, 999, 999, 4, 17, 77, 182, 139, 114, 103, 181, 3, 0.58295
293, 3, bw, filler, NA, 999, 999, 4, 17, 77, 182, 139, 114, 103, 181, 2, 0.638752
293, 3, bw, attraction, a-b-db, 2, 1, 4, 18, 135, 60, 59, 134, 60, 135, 3, 0.499266
293, 3, bw, attraction, a-b-db, 2, 1, 4, 18, 135, 60, 59, 134, 60, 135, 2, 0.510416
293, 3, bw, attraction, a-b-db, 9, 2, 4, 19, 86, 157, 165, 90, 90, 165, 3, 0.48752
293, 3, bw, attraction, a-b-db, 9, 2, 4, 19, 86, 157, 165, 90, 90, 165, 1, 0.714828
293, 3, bw, filler, NA, 999, 999, 4, 20, 195, 100, 155, 94, 99, 105, 1, 1.43557
293, 3, bw, filler, NA, 999, 999, 4, 20, 195, 100, 155, 94, 99, 105, 3, 0.593197
293, 3, bw, attraction, a-b-da, 9, 2, 4, 21, 157, 86, 165, 90, 90, 165, 3, 0.678925
293, 3, bw, attraction, a-b-da, 9, 2, 4, 21, 157, 86, 165, 90, 90, 165, 1, 0.426626
293, 3, bw, attraction, a-b-db, 9, 3, 4, 22, 195, 120, 120, 195, 114, 186, 2, 0.591117
293, 3, bw, attraction, a-b-db, 9, 3, 4, 22, 195, 120, 120, 195, 114, 186, 1, 0.374341
293, 3, bw, filler, NA, 999, 999, 4, 23, 194, 169, 97, 105, 145, 152, 1, 0.860765
293, 3, bw, filler, NA, 999, 999, 4, 23, 194, 169, 97, 105, 145, 152, 2, 0.353237
293, 3, bw, attraction, a-b-da, 5, 2, 4, 24, 90, 165, 161, 88, 165, 90, 3, 0.496942
293, 3, bw, attraction, a-b-da, 5, 2, 4, 24, 90, 165, 161, 88, 165, 90, 1, 0.540199
293, 3, bw, attraction, a-b-da, 14, 3, 4, 25, 120, 195, 195, 120, 181, 111, 2, 0.563965
293, 3, bw, attraction, a-b-da, 14, 3, 4, 25, 120, 195, 195, 120, 181, 111, 1, 0.364425
293, 3, bw, attraction, a-b-da, 9, 1, 4, 26, 60, 135, 135, 60, 129, 57, 2, 0.72357
293, 3, bw, attraction, a-b-da, 9, 1, 4, 26, 60, 135, 135, 60, 129, 57, 1, 0.421236
293, 3, bw, catch, NA, 999, 999, 4, 27, 139, 116, 195, 120, 64, 131, 2, 0.754404
293, 3, bw, catch, NA, 999, 999, 4, 27, 139, 116, 195, 120, 64, 131, 3, 0.522855
293, 3, bw, attraction, a-b-da, 2, 3, 4, 28, 193, 119, 120, 195, 195, 120, 2, 0.77995
293, 3, bw, attraction, a-b-da, 2, 3, 4, 28, 193, 119, 120, 195, 195, 120, 1, 0.443715
293, 3, bw, attraction, a-b-db, 2, 3, 4, 29, 120, 195, 119, 193, 195, 120, 2, 0.815394
293, 3, bw, attraction, a-b-db, 2, 3, 4, 29, 120, 195, 119, 193, 195, 120, 1, 0.557814
293, 3, bw, filler, NA, 999, 999, 4, 30, 80, 105, 183, 185, 126, 195, 2, 1.17287
293, 3, bw, filler, NA, 999, 999, 4, 30, 80, 105, 183, 185, 126, 195, 1, 0.396526
293, 3, bw, filler, NA, 999, 999, 4, 31, 76, 87, 159, 177, 148, 127, 2, 0.626329
293, 3, bw, filler, NA, 999, 999, 4, 31, 76, 87, 159, 177, 148, 127, 1, 0.592074
293, 3, bw, attraction, a-b-da, 5, 1, 4, 32, 60, 135, 132, 58, 135, 60, 2, 0.885848
293, 3, bw, attraction, a-b-da, 5, 1, 4, 32, 60, 135, 132, 58, 135, 60, 1, 0.977583
293, 3, bw, attraction, a-b-da, 2, 2, 4, 33, 90, 165, 165, 90, 163, 89, 1, 0.74388
293, 3, bw, attraction, a-b-da, 2, 2, 4, 33, 90, 165, 165, 90, 163, 89, 2, 0.417072
293, 3, bw, attraction, a-b-da, 14, 2, 4, 34, 153, 83, 165, 90, 90, 165, 2, 0.862086
293, 3, bw, attraction, a-b-da, 14, 2, 4, 34, 153, 83, 165, 90, 90, 165, 1, 0.426487
293, 3, bw, catch, NA, 999, 999, 4, 35, 110, 145, 72, 123, 158, 157, 3, 0.542911
293, 3, bw, catch, NA, 999, 999, 4, 35, 110, 145, 72, 123, 158, 157, 2, 0.67203
293, 3, bw, filler, NA, 999, 999, 4, 36, 176, 66, 93, 156, 63, 133, 2, 0.739144
293, 3, bw, filler, NA, 999, 999, 4, 36, 176, 66, 93, 156, 63, 133, 1, 0.428203
293, 3, bw, attraction, a-b-da, 9, 3, 4, 37, 120, 195, 195, 120, 186, 114, 3, 0.48068
293, 3, bw, attraction, a-b-da, 9, 3, 4, 37, 120, 195, 195, 120, 186, 114, 1, 0.79654
293, 3, bw, filler, NA, 999, 999, 5, 1, 105, 146, 155, 154, 76, 125, 2, 1.88081
293, 3, bw, filler, NA, 999, 999, 5, 1, 105, 146, 155, 154, 76, 125, 3, 0.604204
293, 3, bw, attraction, a-b-da, 5, 1, 5, 2, 132, 58, 135, 60, 60, 135, 3, 1.28204
293, 3, bw, attraction, a-b-da, 5, 1, 5, 2, 132, 58, 135, 60, 60, 135, 2, 0.397489
293, 3, bw, filler, NA, 999, 999, 5, 3, 72, 116, 97, 123, 62, 135, 2, 1.36341
293, 3, bw, filler, NA, 999, 999, 5, 3, 72, 116, 97, 123, 62, 135, 1, 0.579588
293, 3, bw, attraction, a-b-db, 14, 3, 5, 4, 195, 120, 120, 195, 111, 181, 2, 1.10595
293, 3, bw, attraction, a-b-db, 14, 3, 5, 4, 195, 120, 120, 195, 111, 181, 3, 2.01229
293, 3, bw, filler, NA, 999, 999, 5, 5, 142, 87, 129, 116, 94, 97, 2, 1.73705
293, 3, bw, filler, NA, 999, 999, 5, 5, 142, 87, 129, 116, 94, 97, 3, 0.578404
293, 3, bw, attraction, a-b-db, 5, 3, 5, 6, 120, 195, 117, 190, 195, 120, 3, 1.27273
293, 3, bw, attraction, a-b-db, 5, 3, 5, 6, 120, 195, 117, 190, 195, 120, 2, 0.46045
293, 3, bw, attraction, a-b-da, 14, 3, 5, 7, 120, 195, 181, 111, 195, 120, 3, 0.823553
293, 3, bw, attraction, a-b-da, 14, 3, 5, 7, 120, 195, 181, 111, 195, 120, 1, 0.637368
293, 3, bw, attraction, a-b-da, 9, 3, 5, 8, 120, 195, 186, 114, 195, 120, 1, 2.20966
293, 3, bw, attraction, a-b-da, 9, 3, 5, 8, 120, 195, 186, 114, 195, 120, 2, 0.639643
293, 3, bw, attraction, a-b-db, 9, 1, 5, 9, 135, 60, 60, 135, 57, 129, 1, 1.36401
293, 3, bw, attraction, a-b-db, 9, 1, 5, 9, 135, 60, 60, 135, 57, 129, 3, 0.820291
293, 3, bw, attraction, a-b-db, 2, 1, 5, 10, 60, 135, 59, 134, 135, 60, 3, 0.969264
293, 3, bw, attraction, a-b-db, 2, 1, 5, 10, 60, 135, 59, 134, 135, 60, 1, 0.777641
293, 3, bw, attraction, a-b-da, 9, 1, 5, 11, 60, 135, 129, 57, 135, 60, 1, 2.60792
293, 3, bw, attraction, a-b-da, 9, 1, 5, 11, 60, 135, 129, 57, 135, 60, 2, 0.605927
293, 3, bw, attraction, a-b-db, 14, 2, 5, 12, 165, 90, 83, 153, 90, 165, 3, 1.2356
293, 3, bw, attraction, a-b-db, 14, 2, 5, 12, 165, 90, 83, 153, 90, 165, 2, 0.657067
293, 3, bw, attraction, a-b-db, 5, 2, 5, 13, 88, 161, 90, 165, 165, 90, 2, 4.38832
293, 3, bw, attraction, a-b-db, 5, 2, 5, 13, 88, 161, 90, 165, 165, 90, 1, 0.530822
293, 3, bw, attraction, a-b-da, 14, 2, 5, 14, 153, 83, 90, 165, 165, 90, 3, 1.73925
293, 3, bw, attraction, a-b-da, 14, 2, 5, 14, 153, 83, 90, 165, 165, 90, 1, 1.83609
293, 3, bw, attraction, a-b-da, 5, 3, 5, 15, 195, 120, 190, 117, 120, 195, 1, 4.55206
293, 3, bw, attraction, a-b-da, 5, 3, 5, 15, 195, 120, 190, 117, 120, 195, 3, 0.479922
293, 3, bw, attraction, a-b-db, 2, 2, 5, 16, 90, 165, 89, 163, 165, 90, 1, 0.746366
293, 3, bw, attraction, a-b-db, 2, 2, 5, 16, 90, 165, 89, 163, 165, 90, 3, 0.563584
293, 3, bw, catch, NA, 999, 999, 5, 17, 170, 145, 86, 109, 99, 156, 1, 1.37047
293, 3, bw, catch, NA, 999, 999, 5, 17, 170, 145, 86, 109, 99, 156, 2, 0.514787
293, 3, bw, filler, NA, 999, 999, 5, 18, 185, 182, 86, 74, 165, 87, 1, 0.675866
293, 3, bw, filler, NA, 999, 999, 5, 18, 185, 182, 86, 74, 165, 87, 2, 0.743652
293, 3, bw, attraction, a-b-db, 2, 3, 5, 19, 195, 120, 119, 193, 120, 195, 2, 0.927439
293, 3, bw, attraction, a-b-db, 2, 3, 5, 19, 195, 120, 119, 193, 120, 195, 1, 0.896988
293, 3, bw, attraction, a-b-db, 14, 1, 5, 20, 56, 125, 60, 135, 135, 60, 3, 1.08264
293, 3, bw, attraction, a-b-db, 14, 1, 5, 20, 56, 125, 60, 135, 135, 60, 1, 0.702285
293, 3, bw, catch, NA, 999, 999, 5, 21, 126, 129, 154, 161, 112, 83, 2, 1.86413
293, 3, bw, catch, NA, 999, 999, 5, 21, 126, 129, 154, 161, 112, 83, 3, 0.604141
293, 3, bw, attraction, a-b-db, 9, 2, 5, 22, 90, 165, 86, 157, 165, 90, 3, 1.46578
293, 3, bw, attraction, a-b-db, 9, 2, 5, 22, 90, 165, 86, 157, 165, 90, 2, 0.390155
293, 3, bw, attraction, a-b-db, 9, 3, 5, 23, 120, 195, 114, 186, 195, 120, 3, 1.02795
293, 3, bw, attraction, a-b-db, 9, 3, 5, 23, 120, 195, 114, 186, 195, 120, 2, 0.425499
293, 3, bw, filler, NA, 999, 999, 5, 24, 177, 181, 94, 155, 118, 140, 1, 0.998152
293, 3, bw, filler, NA, 999, 999, 5, 24, 177, 181, 94, 155, 118, 140, 3, 0.557129
293, 3, bw, attraction, a-b-da, 9, 2, 5, 25, 165, 90, 157, 86, 90, 165, 1, 1.57207
293, 3, bw, attraction, a-b-da, 9, 2, 5, 25, 165, 90, 157, 86, 90, 165, 2, 0.571604
293, 3, bw, catch, NA, 999, 999, 5, 26, 122, 193, 109, 86, 154, 101, 3, 1.0746
293, 3, bw, catch, NA, 999, 999, 5, 26, 122, 193, 109, 86, 154, 101, 1, 0.726367
293, 3, bw, attraction, a-b-da, 2, 1, 5, 27, 60, 135, 135, 60, 134, 59, 3, 0.65466
293, 3, bw, attraction, a-b-da, 2, 1, 5, 27, 60, 135, 135, 60, 134, 59, 2, 0.611752
293, 3, bw, filler, NA, 999, 999, 5, 28, 133, 141, 186, 128, 59, 135, 2, 1.63294
293, 3, bw, filler, NA, 999, 999, 5, 28, 133, 141, 186, 128, 59, 135, 3, 0.374383
293, 3, bw, attraction, a-b-da, 14, 1, 5, 29, 135, 60, 60, 135, 125, 56, 2, 0.756775
293, 3, bw, attraction, a-b-da, 14, 1, 5, 29, 135, 60, 60, 135, 125, 56, 1, 0.509219
293, 3, bw, filler, NA, 999, 999, 5, 30, 106, 147, 65, 96, 71, 62, 1, 0.718408
293, 3, bw, filler, NA, 999, 999, 5, 30, 106, 147, 65, 96, 71, 62, 3, 0.760751
293, 3, bw, attraction, a-b-da, 5, 2, 5, 31, 161, 88, 165, 90, 90, 165, 2, 0.695741
293, 3, bw, attraction, a-b-da, 5, 2, 5, 31, 161, 88, 165, 90, 90, 165, 1, 0.730871
293, 3, bw, filler, NA, 999, 999, 5, 32, 63, 167, 135, 171, 193, 153, 3, 0.891225
293, 3, bw, filler, NA, 999, 999, 5, 32, 63, 167, 135, 171, 193, 153, 1, 0.974268
293, 3, bw, attraction, a-b-da, 2, 2, 5, 33, 163, 89, 90, 165, 165, 90, 3, 0.532574
293, 3, bw, attraction, a-b-da, 2, 2, 5, 33, 163, 89, 90, 165, 165, 90, 2, 1.75858
293, 3, bw, filler, NA, 999, 999, 5, 34, 183, 150, 154, 93, 95, 64, 1, 0.725053
293, 3, bw, filler, NA, 999, 999, 5, 34, 183, 150, 154, 93, 95, 64, 3, 0.662891
293, 3, bw, filler, NA, 999, 999, 5, 35, 111, 194, 117, 115, 159, 165, 3, 0.681897
293, 3, bw, filler, NA, 999, 999, 5, 35, 111, 194, 117, 115, 159, 165, 2, 0.613775
293, 3, bw, attraction, a-b-db, 5, 1, 5, 36, 60, 135, 58, 132, 135, 60, 3, 0.642771
293, 3, bw, attraction, a-b-db, 5, 1, 5, 36, 60, 135, 58, 132, 135, 60, 1, 0.855931
293, 3, bw, attraction, a-b-da, 2, 3, 5, 37, 120, 195, 195, 120, 193, 119, 3, 0.547605
293, 3, bw, attraction, a-b-da, 2, 3, 5, 37, 120, 195, 195, 120, 193, 119, 1, 0.676662
293, 3, bw, attraction, a-b-da, 9, 1, 6, 1, 129, 57, 60, 135, 135, 60, 3, 0.455123
293, 3, bw, attraction, a-b-da, 9, 1, 6, 1, 129, 57, 60, 135, 135, 60, 2, 0.499564
293, 3, bw, catch, NA, 999, 999, 6, 2, 93, 162, 188, 127, 116, 79, 2, 1.65346
293, 3, bw, catch, NA, 999, 999, 6, 2, 93, 162, 188, 127, 116, 79, 3, 0.450154
293, 3, bw, catch, NA, 999, 999, 6, 3, 108, 87, 129, 186, 125, 130, 2, 1.25394
293, 3, bw, catch, NA, 999, 999, 6, 3, 108, 87, 129, 186, 125, 130, 1, 0.442849
293, 3, bw, attraction, a-b-da, 14, 1, 6, 4, 60, 135, 125, 56, 135, 60, 1, 0.862705
293, 3, bw, attraction, a-b-da, 14, 1, 6, 4, 60, 135, 125, 56, 135, 60, 2, 0.331036
293, 3, bw, filler, NA, 999, 999, 6, 5, 82, 72, 93, 125, 105, 133, 3, 0.427514
293, 3, bw, filler, NA, 999, 999, 6, 5, 82, 72, 93, 125, 105, 133, 1, 0.465302
293, 3, bw, attraction, a-b-db, 2, 2, 6, 6, 89, 163, 165, 90, 90, 165, 3, 0.420444
293, 3, bw, attraction, a-b-db, 2, 2, 6, 6, 89, 163, 165, 90, 90, 165, 1, 1.97909
293, 3, bw, attraction, a-b-db, 2, 1, 6, 7, 135, 60, 59, 134, 60, 135, 2, 0.712991
293, 3, bw, attraction, a-b-db, 2, 1, 6, 7, 135, 60, 59, 134, 60, 135, 1, 0.787441
293, 3, bw, attraction, a-b-db, 14, 3, 6, 8, 195, 120, 111, 181, 120, 195, 2, 0.569764
293, 3, bw, attraction, a-b-db, 14, 3, 6, 8, 195, 120, 111, 181, 120, 195, 3, 2.80225
293, 3, bw, filler, NA, 999, 999, 6, 9, 92, 98, 188, 155, 194, 190, 3, 1.09527
293, 3, bw, filler, NA, 999, 999, 6, 9, 92, 98, 188, 155, 194, 190, 1, 0.906351
293, 3, bw, filler, NA, 999, 999, 6, 10, 116, 114, 194, 159, 72, 106, 2, 0.811958
293, 3, bw, filler, NA, 999, 999, 6, 10, 116, 114, 194, 159, 72, 106, 1, 0.3784
293, 3, bw, filler, NA, 999, 999, 6, 11, 142, 99, 107, 79, 179, 178, 3, 0.504807
293, 3, bw, filler, NA, 999, 999, 6, 11, 142, 99, 107, 79, 179, 178, 2, 0.483316
293, 3, bw, filler, NA, 999, 999, 6, 12, 100, 183, 188, 173, 104, 154, 2, 0.597799
293, 3, bw, filler, NA, 999, 999, 6, 12, 100, 183, 188, 173, 104, 154, 3, 0.757055
293, 3, bw, attraction, a-b-db, 14, 1, 6, 13, 135, 60, 60, 135, 56, 125, 3, 0.763925
293, 3, bw, attraction, a-b-db, 14, 1, 6, 13, 135, 60, 60, 135, 56, 125, 1, 0.668301
293, 3, bw, attraction, a-b-db, 2, 3, 6, 14, 195, 120, 120, 195, 119, 193, 2, 0.479467
293, 3, bw, attraction, a-b-db, 2, 3, 6, 14, 195, 120, 120, 195, 119, 193, 1, 0.467405
293, 3, bw, catch, NA, 999, 999, 6, 15, 186, 129, 124, 131, 70, 125, 1, 1.12632
293, 3, bw, catch, NA, 999, 999, 6, 15, 186, 129, 124, 131, 70, 125, 3, 0.359949
293, 3, bw, attraction, a-b-da, 14, 3, 6, 16, 120, 195, 181, 111, 195, 120, 3, 0.727087
293, 3, bw, attraction, a-b-da, 14, 3, 6, 16, 120, 195, 181, 111, 195, 120, 1, 0.48882
293, 3, bw, attraction, a-b-da, 5, 1, 6, 17, 135, 60, 132, 58, 60, 135, 3, 0.723448
293, 3, bw, attraction, a-b-da, 5, 1, 6, 17, 135, 60, 132, 58, 60, 135, 1, 0.533054
293, 3, bw, attraction, a-b-db, 14, 2, 6, 18, 83, 153, 90, 165, 165, 90, 3, 0.669435
293, 3, bw, attraction, a-b-db, 14, 2, 6, 18, 83, 153, 90, 165, 165, 90, 1, 0.602024
293, 3, bw, filler, NA, 999, 999, 6, 19, 57, 180, 159, 67, 109, 141, 3, 1.59166
293, 3, bw, filler, NA, 999, 999, 6, 19, 57, 180, 159, 67, 109, 141, 2, 0.470497
293, 3, bw, attraction, a-b-db, 5, 1, 6, 20, 135, 60, 60, 135, 58, 132, 1, 1.87359
293, 3, bw, attraction, a-b-db, 5, 1, 6, 20, 135, 60, 60, 135, 58, 132, 3, 0.381006
293, 3, bw, filler, NA, 999, 999, 6, 21, 109, 73, 155, 76, 126, 137, 3, 0.811495
293, 3, bw, filler, NA, 999, 999, 6, 21, 109, 73, 155, 76, 126, 137, 1, 0.697872
293, 3, bw, attraction, a-b-da, 2, 2, 6, 22, 165, 90, 90, 165, 163, 89, 2, 1.85963
293, 3, bw, attraction, a-b-da, 2, 2, 6, 22, 165, 90, 90, 165, 163, 89, 1, 0.567629
293, 3, bw, attraction, a-b-da, 9, 3, 6, 23, 186, 114, 120, 195, 195, 120, 3, 0.686788
293, 3, bw, attraction, a-b-da, 9, 3, 6, 23, 186, 114, 120, 195, 195, 120, 2, 0.354684
293, 3, bw, filler, NA, 999, 999, 6, 24, 173, 111, 163, 161, 133, 165, 2, 0.754442
293, 3, bw, filler, NA, 999, 999, 6, 24, 173, 111, 163, 161, 133, 165, 1, 0.54678
293, 3, bw, filler, NA, 999, 999, 6, 25, 84, 92, 188, 138, 128, 168, 3, 1.05054
293, 3, bw, filler, NA, 999, 999, 6, 25, 84, 92, 188, 138, 128, 168, 1, 0.999519
293, 3, bw, attraction, a-b-db, 5, 2, 6, 26, 165, 90, 88, 161, 90, 165, 3, 1.23715
293, 3, bw, attraction, a-b-db, 5, 2, 6, 26, 165, 90, 88, 161, 90, 165, 1, 0.730737
293, 3, bw, attraction, a-b-da, 14, 2, 6, 27, 153, 83, 165, 90, 90, 165, 2, 1.7632
293, 3, bw, attraction, a-b-da, 14, 2, 6, 27, 153, 83, 165, 90, 90, 165, 3, 0.691235
293, 3, bw, attraction, a-b-db, 5, 3, 6, 28, 120, 195, 195, 120, 117, 190, 1, 3.02093
293, 3, bw, attraction, a-b-db, 5, 3, 6, 28, 120, 195, 195, 120, 117, 190, 3, 0.514643
293, 3, bw, attraction, a-b-da, 2, 3, 6, 29, 120, 195, 195, 120, 193, 119, 2, 0.595734
293, 3, bw, attraction, a-b-da, 2, 3, 6, 29, 120, 195, 195, 120, 193, 119, 1, 0.338857
293, 3, bw, attraction, a-b-da, 5, 2, 6, 30, 165, 90, 90, 165, 161, 88, 2, 0.47534
293, 3, bw, attraction, a-b-da, 5, 2, 6, 30, 165, 90, 90, 165, 161, 88, 3, 0.463263
293, 3, bw, attraction, a-b-db, 9, 1, 6, 31, 135, 60, 60, 135, 57, 129, 2, 0.71437
293, 3, bw, attraction, a-b-db, 9, 1, 6, 31, 135, 60, 60, 135, 57, 129, 1, 0.821849
293, 3, bw, attraction, a-b-db, 9, 3, 6, 32, 114, 186, 120, 195, 195, 120, 3, 0.905744
293, 3, bw, attraction, a-b-db, 9, 3, 6, 32, 114, 186, 120, 195, 195, 120, 1, 0.364245
293, 3, bw, attraction, a-b-da, 5, 3, 6, 33, 190, 117, 120, 195, 195, 120, 3, 0.39539
293, 3, bw, attraction, a-b-da, 5, 3, 6, 33, 190, 117, 120, 195, 195, 120, 1, 0.474467
293, 3, bw, filler, NA, 999, 999, 6, 34, 67, 172, 128, 103, 60, 109, 1, 1.20491
293, 3, bw, filler, NA, 999, 999, 6, 34, 67, 172, 128, 103, 60, 109, 3, 0.739149
293, 3, bw, attraction, a-b-da, 2, 1, 6, 35, 60, 135, 135, 60, 134, 59, 2, 0.819654
293, 3, bw, attraction, a-b-da, 2, 1, 6, 35, 60, 135, 135, 60, 134, 59, 3, 0.986014
293, 3, bw, attraction, a-b-db, 9, 2, 6, 36, 165, 90, 86, 157, 90, 165, 3, 0.784269
293, 3, bw, attraction, a-b-db, 9, 2, 6, 36, 165, 90, 86, 157, 90, 165, 1, 0.600026
293, 3, bw, attraction, a-b-da, 9, 2, 6, 37, 157, 86, 165, 90, 90, 165, 2, 0.765719
293, 3, bw, attraction, a-b-da, 9, 2, 6, 37, 157, 86, 165, 90, 90, 165, 1, 0.55831
293, 3, bw, attraction, a-b-da, 9, 2, 7, 1, 90, 165, 165, 90, 157, 86, 2, 0.797271
293, 3, bw, attraction, a-b-da, 9, 2, 7, 1, 90, 165, 165, 90, 157, 86, 1, 0.540338
293, 3, bw, attraction, a-b-db, 14, 2, 7, 2, 165, 90, 90, 165, 83, 153, 2, 1.17212
293, 3, bw, attraction, a-b-db, 14, 2, 7, 2, 165, 90, 90, 165, 83, 153, 1, 0.603591
293, 3, bw, attraction, a-b-db, 14, 3, 7, 3, 195, 120, 111, 181, 120, 195, 2, 0.617387
293, 3, bw, attraction, a-b-db, 14, 3, 7, 3, 195, 120, 111, 181, 120, 195, 1, 0.663894
293, 3, bw, attraction, a-b-db, 9, 3, 7, 4, 120, 195, 195, 120, 114, 186, 1, 0.971069
293, 3, bw, attraction, a-b-db, 9, 3, 7, 4, 120, 195, 195, 120, 114, 186, 2, 0.338567
293, 3, bw, attraction, a-b-db, 2, 3, 7, 5, 195, 120, 119, 193, 120, 195, 2, 0.755072
293, 3, bw, attraction, a-b-db, 2, 3, 7, 5, 195, 120, 119, 193, 120, 195, 1, 0.387623
293, 3, bw, filler, NA, 999, 999, 7, 6, 66, 108, 108, 171, 173, 93, 2, 0.465942
293, 3, bw, filler, NA, 999, 999, 7, 6, 66, 108, 108, 171, 173, 93, 1, 1.20646
293, 3, bw, catch, NA, 999, 999, 7, 7, 118, 77, 193, 122, 139, 116, 2, 2.292
293, 3, bw, catch, NA, 999, 999, 7, 7, 118, 77, 193, 122, 139, 116, 1, 1.59864
293, 3, bw, attraction, a-b-da, 14, 3, 7, 8, 195, 120, 120, 195, 181, 111, 1, 0.804127
293, 3, bw, attraction, a-b-da, 14, 3, 7, 8, 195, 120, 120, 195, 181, 111, 2, 0.347304
293, 3, bw, filler, NA, 999, 999, 7, 9, 56, 158, 182, 169, 194, 178, 3, 2.75499
293, 3, bw, filler, NA, 999, 999, 7, 9, 56, 158, 182, 169, 194, 178, 1, 0.683414
293, 3, bw, attraction, a-b-db, 5, 2, 7, 10, 90, 165, 88, 161, 165, 90, 3, 0.613826
293, 3, bw, attraction, a-b-db, 5, 2, 7, 10, 90, 165, 88, 161, 165, 90, 2, 1.18028
293, 3, bw, attraction, a-b-db, 9, 1, 7, 11, 60, 135, 135, 60, 57, 129, 3, 1.49063
293, 3, bw, attraction, a-b-db, 9, 1, 7, 11, 60, 135, 135, 60, 57, 129, 2, 0.325382
293, 3, bw, attraction, a-b-db, 14, 1, 7, 12, 60, 135, 56, 125, 135, 60, 3, 0.757898
293, 3, bw, attraction, a-b-db, 14, 1, 7, 12, 60, 135, 56, 125, 135, 60, 2, 0.327579
293, 3, bw, attraction, a-b-da, 2, 1, 7, 13, 60, 135, 135, 60, 134, 59, 3, 0.44671
293, 3, bw, attraction, a-b-da, 2, 1, 7, 13, 60, 135, 135, 60, 134, 59, 1, 0.795971
293, 3, bw, attraction, a-b-da, 9, 1, 7, 14, 135, 60, 129, 57, 60, 135, 3, 0.441603
293, 3, bw, attraction, a-b-da, 9, 1, 7, 14, 135, 60, 129, 57, 60, 135, 2, 0.390744
293, 3, bw, attraction, a-b-da, 14, 1, 7, 15, 125, 56, 135, 60, 60, 135, 1, 0.52458
293, 3, bw, attraction, a-b-da, 14, 1, 7, 15, 125, 56, 135, 60, 60, 135, 2, 0.534391
293, 3, bw, attraction, a-b-da, 5, 3, 7, 16, 190, 117, 195, 120, 120, 195, 3, 0.790891
293, 3, bw, attraction, a-b-da, 5, 3, 7, 16, 190, 117, 195, 120, 120, 195, 1, 0.597905
293, 3, bw, attraction, a-b-db, 9, 2, 7, 17, 90, 165, 165, 90, 86, 157, 3, 1.17174
293, 3, bw, attraction, a-b-db, 9, 2, 7, 17, 90, 165, 165, 90, 86, 157, 2, 0.299294
293, 3, bw, attraction, a-b-da, 2, 2, 7, 18, 165, 90, 90, 165, 163, 89, 3, 0.765222
293, 3, bw, attraction, a-b-da, 2, 2, 7, 18, 165, 90, 90, 165, 163, 89, 2, 0.493561
293, 3, bw, attraction, a-b-db, 2, 1, 7, 19, 60, 135, 135, 60, 59, 134, 3, 0.439328
293, 3, bw, attraction, a-b-db, 2, 1, 7, 19, 60, 135, 135, 60, 59, 134, 1, 0.692496
293, 3, bw, attraction, a-b-db, 5, 1, 7, 20, 60, 135, 135, 60, 58, 132, 3, 0.486202
293, 3, bw, attraction, a-b-db, 5, 1, 7, 20, 60, 135, 135, 60, 58, 132, 1, 0.490039
293, 3, bw, attraction, a-b-db, 5, 3, 7, 21, 120, 195, 117, 190, 195, 120, 3, 0.452478
293, 3, bw, attraction, a-b-db, 5, 3, 7, 21, 120, 195, 117, 190, 195, 120, 1, 0.489649
293, 3, bw, attraction, a-b-da, 9, 3, 7, 22, 186, 114, 120, 195, 195, 120, 2, 0.708089
293, 3, bw, attraction, a-b-da, 9, 3, 7, 22, 186, 114, 120, 195, 195, 120, 1, 0.40661
293, 3, bw, filler, NA, 999, 999, 7, 23, 171, 116, 103, 89, 82, 136, 1, 1.09162
293, 3, bw, filler, NA, 999, 999, 7, 23, 171, 116, 103, 89, 82, 136, 2, 0.414623
293, 3, bw, catch, NA, 999, 999, 7, 24, 137, 118, 74, 121, 193, 122, 3, 0.995717
293, 3, bw, catch, NA, 999, 999, 7, 24, 137, 118, 74, 121, 193, 122, 2, 0.37878
293, 3, bw, filler, NA, 999, 999, 7, 25, 160, 124, 189, 76, 97, 163, 1, 0.897219
293, 3, bw, filler, NA, 999, 999, 7, 25, 160, 124, 189, 76, 97, 163, 2, 1.32436
293, 3, bw, filler, NA, 999, 999, 7, 26, 104, 78, 87, 139, 146, 81, 2, 2.23649
293, 3, bw, filler, NA, 999, 999, 7, 26, 104, 78, 87, 139, 146, 81, 1, 0.337757
293, 3, bw, attraction, a-b-da, 14, 2, 7, 27, 153, 83, 90, 165, 165, 90, 2, 4.07425
293, 3, bw, attraction, a-b-da, 14, 2, 7, 27, 153, 83, 90, 165, 165, 90, 1, 0.54888
293, 3, bw, filler, NA, 999, 999, 7, 28, 151, 187, 82, 101, 171, 124, 1, 1.46079
293, 3, bw, filler, NA, 999, 999, 7, 28, 151, 187, 82, 101, 171, 124, 2, 0.600915
293, 3, bw, attraction, a-b-db, 2, 2, 7, 29, 89, 163, 165, 90, 90, 165, 1, 1.04665
293, 3, bw, attraction, a-b-db, 2, 2, 7, 29, 89, 163, 165, 90, 90, 165, 2, 0.27575
293, 3, bw, catch, NA, 999, 999, 7, 30, 63, 132, 160, 155, 109, 146, 3, 0.41409
293, 3, bw, catch, NA, 999, 999, 7, 30, 63, 132, 160, 155, 109, 146, 1, 0.380648
293, 3, bw, filler, NA, 999, 999, 7, 31, 110, 139, 166, 58, 102, 74, 1, 0.979123
293, 3, bw, filler, NA, 999, 999, 7, 31, 110, 139, 166, 58, 102, 74, 3, 0.298811
293, 3, bw, attraction, a-b-da, 2, 3, 7, 32, 193, 119, 195, 120, 120, 195, 3, 0.940622
293, 3, bw, attraction, a-b-da, 2, 3, 7, 32, 193, 119, 195, 120, 120, 195, 1, 0.48564
293, 3, bw, attraction, a-b-da, 5, 1, 7, 33, 132, 58, 135, 60, 60, 135, 1, 0.840284
293, 3, bw, attraction, a-b-da, 5, 1, 7, 33, 132, 58, 135, 60, 60, 135, 3, 0.365135
293, 3, bw, filler, NA, 999, 999, 7, 34, 97, 127, 173, 121, 56, 176, 2, 1.24442
293, 3, bw, filler, NA, 999, 999, 7, 34, 97, 127, 173, 121, 56, 176, 1, 1.37722
293, 3, bw, attraction, a-b-da, 5, 2, 7, 35, 90, 165, 165, 90, 161, 88, 2, 0.695438
293, 3, bw, attraction, a-b-da, 5, 2, 7, 35, 90, 165, 165, 90, 161, 88, 1, 0.674603
293, 3, bw, filler, NA, 999, 999, 7, 36, 68, 138, 135, 188, 158, 94, 2, 0.756881
293, 3, bw, filler, NA, 999, 999, 7, 36, 68, 138, 135, 188, 158, 94, 1, 0.44547
293, 3, bw, filler, NA, 999, 999, 7, 37, 178, 70, 56, 132, 71, 188, 3, 0.809098
293, 3, bw, filler, NA, 999, 999, 7, 37, 178, 70, 56, 132, 71, 188, 2, 0.431603
293, 3, bw, attraction, a-b-da, 5, 1, 8, 1, 60, 135, 132, 58, 135, 60, 3, 0.572062
293, 3, bw, attraction, a-b-da, 5, 1, 8, 1, 60, 135, 132, 58, 135, 60, 2, 0.651843
293, 3, bw, filler, NA, 999, 999, 8, 2, 160, 184, 173, 169, 115, 184, 2, 3.39947
293, 3, bw, filler, NA, 999, 999, 8, 2, 160, 184, 173, 169, 115, 184, 3, 0.325782
293, 3, bw, catch, NA, 999, 999, 8, 3, 162, 153, 134, 61, 136, 119, 1, 1.00622
293, 3, bw, catch, NA, 999, 999, 8, 3, 162, 153, 134, 61, 136, 119, 3, 1.18863
293, 3, bw, filler, NA, 999, 999, 8, 4, 135, 144, 175, 144, 58, 72, 2, 1.4108
293, 3, bw, filler, NA, 999, 999, 8, 4, 135, 144, 175, 144, 58, 72, 3, 0.393031
293, 3, bw, catch, NA, 999, 999, 8, 5, 158, 157, 86, 109, 128, 127, 1, 0.750807
293, 3, bw, catch, NA, 999, 999, 8, 5, 158, 157, 86, 109, 128, 127, 2, 0.711921
293, 3, bw, catch, NA, 999, 999, 8, 6, 111, 84, 159, 156, 138, 117, 2, 1.51299
293, 3, bw, catch, NA, 999, 999, 8, 6, 111, 84, 159, 156, 138, 117, 1, 0.363088
293, 3, bw, filler, NA, 999, 999, 8, 7, 114, 147, 191, 191, 146, 130, 2, 3.26629
293, 3, bw, filler, NA, 999, 999, 8, 7, 114, 147, 191, 191, 146, 130, 1, 6.22997
293, 3, bw, attraction, a-b-da, 2, 3, 8, 8, 193, 119, 120, 195, 195, 120, 2, 2.54459
293, 3, bw, attraction, a-b-da, 2, 3, 8, 8, 193, 119, 120, 195, 195, 120, 1, 0.433119
293, 3, bw, attraction, a-b-da, 2, 1, 8, 9, 60, 135, 135, 60, 134, 59, 1, 1.77359
293, 3, bw, attraction, a-b-da, 2, 1, 8, 9, 60, 135, 135, 60, 134, 59, 3, 0.733131
293, 3, bw, attraction, a-b-db, 14, 2, 8, 10, 83, 153, 165, 90, 90, 165, 2, 0.493366
293, 3, bw, attraction, a-b-db, 14, 2, 8, 10, 83, 153, 165, 90, 90, 165, 3, 0.29656
293, 3, bw, attraction, a-b-da, 14, 1, 8, 11, 125, 56, 60, 135, 135, 60, 2, 0.527226
293, 3, bw, attraction, a-b-da, 14, 1, 8, 11, 125, 56, 60, 135, 135, 60, 1, 1.30815
293, 3, bw, attraction, a-b-da, 5, 3, 8, 12, 190, 117, 120, 195, 195, 120, 3, 0.877178
293, 3, bw, attraction, a-b-da, 5, 3, 8, 12, 190, 117, 120, 195, 195, 120, 1, 1.25674
293, 3, bw, attraction, a-b-da, 9, 2, 8, 13, 90, 165, 165, 90, 157, 86, 1, 0.972395
293, 3, bw, attraction, a-b-da, 9, 2, 8, 13, 90, 165, 165, 90, 157, 86, 3, 0.379967
293, 3, bw, attraction, a-b-db, 5, 3, 8, 14, 117, 190, 120, 195, 195, 120, 2, 0.754422
293, 3, bw, attraction, a-b-db, 5, 3, 8, 14, 117, 190, 120, 195, 195, 120, 1, 0.322863
293, 3, bw, attraction, a-b-db, 5, 2, 8, 15, 90, 165, 88, 161, 165, 90, 2, 0.468102
293, 3, bw, attraction, a-b-db, 5, 2, 8, 15, 90, 165, 88, 161, 165, 90, 1, 0.520502
293, 3, bw, attraction, a-b-db, 9, 2, 8, 16, 165, 90, 86, 157, 90, 165, 2, 0.561591
293, 3, bw, attraction, a-b-db, 9, 2, 8, 16, 165, 90, 86, 157, 90, 165, 3, 0.322078
293, 3, bw, attraction, a-b-da, 14, 3, 8, 17, 120, 195, 195, 120, 181, 111, 2, 0.739245
293, 3, bw, attraction, a-b-da, 14, 3, 8, 17, 120, 195, 195, 120, 181, 111, 3, 0.700424
293, 3, bw, filler, NA, 999, 999, 8, 18, 70, 75, 74, 178, 139, 130, 3, 0.870124
293, 3, bw, filler, NA, 999, 999, 8, 18, 70, 75, 74, 178, 139, 130, 1, 0.442521
293, 3, bw, attraction, a-b-db, 14, 1, 8, 19, 135, 60, 60, 135, 56, 125, 2, 0.822392
293, 3, bw, attraction, a-b-db, 14, 1, 8, 19, 135, 60, 60, 135, 56, 125, 1, 0.547972
293, 3, bw, filler, NA, 999, 999, 8, 20, 164, 173, 186, 173, 87, 193, 1, 0.891723
293, 3, bw, filler, NA, 999, 999, 8, 20, 164, 173, 186, 173, 87, 193, 3, 0.966807
293, 3, bw, attraction, a-b-db, 2, 3, 8, 21, 120, 195, 195, 120, 119, 193, 1, 0.877665
293, 3, bw, attraction, a-b-db, 2, 3, 8, 21, 120, 195, 195, 120, 119, 193, 2, 0.489368
293, 3, bw, filler, NA, 999, 999, 8, 22, 68, 134, 171, 125, 64, 100, 2, 0.835818
293, 3, bw, filler, NA, 999, 999, 8, 22, 68, 134, 171, 125, 64, 100, 3, 0.617654
293, 3, bw, attraction, a-b-db, 9, 3, 8, 23, 120, 195, 195, 120, 114, 186, 1, 1.62267
293, 3, bw, attraction, a-b-db, 9, 3, 8, 23, 120, 195, 195, 120, 114, 186, 3, 0.412235
293, 3, bw, filler, NA, 999, 999, 8, 24, 86, 110, 144, 122, 151, 67, 2, 0.929314
293, 3, bw, filler, NA, 999, 999, 8, 24, 86, 110, 144, 122, 151, 67, 1, 0.347052
293, 3, bw, filler, NA, 999, 999, 8, 25, 81, 124, 150, 158, 145, 187, 2, 0.906814
293, 3, bw, filler, NA, 999, 999, 8, 25, 81, 124, 150, 158, 145, 187, 1, 0.429175
293, 3, bw, attraction, a-b-db, 5, 1, 8, 26, 58, 132, 60, 135, 135, 60, 1, 0.969626
293, 3, bw, attraction, a-b-db, 5, 1, 8, 26, 58, 132, 60, 135, 135, 60, 3, 0.418006
293, 3, bw, attraction, a-b-da, 2, 2, 8, 27, 163, 89, 90, 165, 165, 90, 2, 0.751213
293, 3, bw, attraction, a-b-da, 2, 2, 8, 27, 163, 89, 90, 165, 165, 90, 1, 0.336158
293, 3, bw, attraction, a-b-da, 9, 1, 8, 28, 135, 60, 60, 135, 129, 57, 2, 0.544706
293, 3, bw, attraction, a-b-da, 9, 1, 8, 28, 135, 60, 60, 135, 129, 57, 3, 0.289908
293, 3, bw, filler, NA, 999, 999, 8, 29, 127, 62, 122, 87, 138, 156, 3, 0.764338
293, 3, bw, filler, NA, 999, 999, 8, 29, 127, 62, 122, 87, 138, 156, 1, 0.404739
293, 3, bw, filler, NA, 999, 999, 8, 30, 119, 130, 120, 72, 76, 73, 1, 0.666564
293, 3, bw, filler, NA, 999, 999, 8, 30, 119, 130, 120, 72, 76, 73, 3, 0.663023
293, 3, bw, attraction, a-b-da, 5, 2, 8, 31, 90, 165, 161, 88, 165, 90, 3, 0.986045
293, 3, bw, attraction, a-b-da, 5, 2, 8, 31, 90, 165, 161, 88, 165, 90, 2, 0.273752
293, 3, bw, attraction, a-b-db, 14, 3, 8, 32, 120, 195, 195, 120, 111, 181, 2, 1.06036
293, 3, bw, attraction, a-b-db, 14, 3, 8, 32, 120, 195, 195, 120, 111, 181, 3, 0.248544
293, 3, bw, attraction, a-b-da, 14, 2, 8, 33, 90, 165, 165, 90, 153, 83, 2, 0.708582
293, 3, bw, attraction, a-b-da, 14, 2, 8, 33, 90, 165, 165, 90, 153, 83, 1, 0.335012
293, 3, bw, attraction, a-b-db, 2, 1, 8, 34, 60, 135, 59, 134, 135, 60, 2, 0.455389
293, 3, bw, attraction, a-b-db, 2, 1, 8, 34, 60, 135, 59, 134, 135, 60, 3, 0.331995
293, 3, bw, attraction, a-b-db, 9, 1, 8, 35, 60, 135, 135, 60, 57, 129, 2, 1.02029
293, 3, bw, attraction, a-b-db, 9, 1, 8, 35, 60, 135, 135, 60, 57, 129, 1, 0.290606
293, 3, bw, attraction, a-b-db, 2, 2, 8, 36, 89, 163, 90, 165, 165, 90, 2, 1.20449
293, 3, bw, attraction, a-b-db, 2, 2, 8, 36, 89, 163, 90, 165, 165, 90, 1, 0.338898
293, 3, bw, attraction, a-b-da, 9, 3, 8, 37, 195, 120, 186, 114, 120, 195, 1, 1.14741
293, 3, bw, attraction, a-b-da, 9, 3, 8, 37, 195, 120, 186, 114, 120, 195, 3, 0.276245
