sub_n, computer_n, bw_cond, effect, set, distance, diag, block_n, trial_n, h1, w1, h2, w2, h3, w3, choice, rt 
265, 3, bw, practice, NA, 999, 999, 0, 1, 138, 181, 178, 116, 130, 112, 1, 3.33408
265, 3, bw, practice, NA, 999, 999, 0, 1, 138, 181, 178, 116, 130, 112, 3, 1.12679
265, 3, bw, practice, NA, 999, 999, 0, 2, 181, 174, 71, 59, 167, 76, 1, 1.70871
265, 3, bw, practice, NA, 999, 999, 0, 2, 181, 174, 71, 59, 167, 76, 2, 0.80882
265, 3, bw, practice, NA, 999, 999, 0, 3, 113, 155, 63, 118, 95, 173, 1, 1.94619
265, 3, bw, practice, NA, 999, 999, 0, 3, 113, 155, 63, 118, 95, 173, 2, 0.842192
265, 3, bw, catch, NA, 999, 999, 1, 1, 70, 125, 100, 155, 150, 165, 3, 1.25062
265, 3, bw, catch, NA, 999, 999, 1, 1, 70, 125, 100, 155, 150, 165, 1, 1.14356
265, 3, bw, attraction, a-b-da, 2, 3, 1, 2, 195, 120, 193, 119, 120, 195, 3, 2.04714
265, 3, bw, attraction, a-b-da, 2, 3, 1, 2, 195, 120, 193, 119, 120, 195, 1, 4.09173
265, 3, bw, attraction, a-b-da, 5, 1, 1, 3, 135, 60, 60, 135, 132, 58, 2, 6.98034
265, 3, bw, attraction, a-b-da, 5, 1, 1, 3, 135, 60, 60, 135, 132, 58, 1, 0.906105
265, 3, bw, filler, NA, 999, 999, 1, 4, 173, 161, 192, 68, 129, 89, 1, 0.827891
265, 3, bw, filler, NA, 999, 999, 1, 4, 173, 161, 192, 68, 129, 89, 3, 1.10557
265, 3, bw, filler, NA, 999, 999, 1, 5, 161, 73, 154, 65, 179, 79, 3, 1.04335
265, 3, bw, filler, NA, 999, 999, 1, 5, 161, 73, 154, 65, 179, 79, 2, 1.52811
265, 3, bw, catch, NA, 999, 999, 1, 6, 150, 165, 119, 76, 149, 106, 1, 0.808151
265, 3, bw, catch, NA, 999, 999, 1, 6, 150, 165, 119, 76, 149, 106, 2, 0.646615
265, 3, bw, filler, NA, 999, 999, 1, 7, 112, 194, 159, 146, 105, 81, 2, 0.962302
265, 3, bw, filler, NA, 999, 999, 1, 7, 112, 194, 159, 146, 105, 81, 3, 1.24285
265, 3, bw, attraction, a-b-db, 9, 2, 1, 8, 86, 157, 90, 165, 165, 90, 2, 1.81422
265, 3, bw, attraction, a-b-db, 9, 2, 1, 8, 86, 157, 90, 165, 165, 90, 1, 1.09227
265, 3, bw, attraction, a-b-da, 5, 3, 1, 9, 190, 117, 120, 195, 195, 120, 3, 1.91787
265, 3, bw, attraction, a-b-da, 5, 3, 1, 9, 190, 117, 120, 195, 195, 120, 1, 0.576006
265, 3, bw, attraction, a-b-da, 5, 2, 1, 10, 90, 165, 165, 90, 161, 88, 2, 2.56644
265, 3, bw, attraction, a-b-da, 5, 2, 1, 10, 90, 165, 165, 90, 161, 88, 1, 0.854306
265, 3, bw, attraction, a-b-db, 2, 2, 1, 11, 165, 90, 90, 165, 89, 163, 1, 4.56999
265, 3, bw, attraction, a-b-db, 2, 2, 1, 11, 165, 90, 90, 165, 89, 163, 3, 1.28919
265, 3, bw, attraction, a-b-db, 14, 1, 1, 12, 60, 135, 135, 60, 56, 125, 2, 2.26735
265, 3, bw, attraction, a-b-db, 14, 1, 1, 12, 60, 135, 135, 60, 56, 125, 3, 0.687249
265, 3, bw, filler, NA, 999, 999, 1, 13, 194, 65, 185, 100, 142, 144, 3, 1.29778
265, 3, bw, filler, NA, 999, 999, 1, 13, 194, 65, 185, 100, 142, 144, 1, 2.32458
265, 3, bw, attraction, a-b-db, 2, 3, 1, 14, 195, 120, 119, 193, 120, 195, 3, 1.54056
265, 3, bw, attraction, a-b-db, 2, 3, 1, 14, 195, 120, 119, 193, 120, 195, 1, 0.613338
265, 3, bw, filler, NA, 999, 999, 1, 15, 64, 126, 90, 186, 62, 122, 2, 0.826571
265, 3, bw, filler, NA, 999, 999, 1, 15, 64, 126, 90, 186, 62, 122, 3, 0.640077
265, 3, bw, attraction, a-b-da, 2, 2, 1, 16, 90, 165, 163, 89, 165, 90, 1, 1.10778
265, 3, bw, attraction, a-b-da, 2, 2, 1, 16, 90, 165, 163, 89, 165, 90, 2, 1.22204
265, 3, bw, filler, NA, 999, 999, 1, 17, 95, 66, 71, 131, 139, 159, 3, 0.715043
265, 3, bw, filler, NA, 999, 999, 1, 17, 95, 66, 71, 131, 139, 159, 1, 0.741464
265, 3, bw, attraction, a-b-db, 9, 3, 1, 18, 195, 120, 114, 186, 120, 195, 3, 1.17306
265, 3, bw, attraction, a-b-db, 9, 3, 1, 18, 195, 120, 114, 186, 120, 195, 1, 0.516812
265, 3, bw, filler, NA, 999, 999, 1, 19, 119, 188, 192, 91, 78, 161, 1, 0.717934
265, 3, bw, filler, NA, 999, 999, 1, 19, 119, 188, 192, 91, 78, 161, 3, 1.01634
265, 3, bw, attraction, a-b-db, 9, 1, 1, 20, 135, 60, 57, 129, 60, 135, 3, 1.30117
265, 3, bw, attraction, a-b-db, 9, 1, 1, 20, 135, 60, 57, 129, 60, 135, 1, 0.864082
265, 3, bw, attraction, a-b-da, 9, 3, 1, 21, 120, 195, 186, 114, 195, 120, 1, 1.79514
265, 3, bw, attraction, a-b-da, 9, 3, 1, 21, 120, 195, 186, 114, 195, 120, 2, 0.401797
265, 3, bw, attraction, a-b-da, 14, 1, 1, 22, 125, 56, 60, 135, 135, 60, 3, 1.11968
265, 3, bw, attraction, a-b-da, 14, 1, 1, 22, 125, 56, 60, 135, 135, 60, 1, 1.31397
265, 3, bw, attraction, a-b-db, 5, 3, 1, 23, 117, 190, 120, 195, 195, 120, 2, 2.01086
265, 3, bw, attraction, a-b-db, 5, 3, 1, 23, 117, 190, 120, 195, 195, 120, 3, 0.872825
265, 3, bw, filler, NA, 999, 999, 1, 24, 169, 186, 96, 91, 151, 62, 1, 0.643858
265, 3, bw, filler, NA, 999, 999, 1, 24, 169, 186, 96, 91, 151, 62, 2, 0.440883
265, 3, bw, attraction, a-b-db, 2, 1, 1, 25, 59, 134, 135, 60, 60, 135, 3, 0.956848
265, 3, bw, attraction, a-b-db, 2, 1, 1, 25, 59, 134, 135, 60, 60, 135, 1, 0.38923
265, 3, bw, attraction, a-b-da, 9, 1, 1, 26, 135, 60, 60, 135, 129, 57, 3, 1.34767
265, 3, bw, attraction, a-b-da, 9, 1, 1, 26, 135, 60, 60, 135, 129, 57, 2, 0.356392
265, 3, bw, attraction, a-b-da, 14, 3, 1, 27, 120, 195, 181, 111, 195, 120, 1, 0.916214
265, 3, bw, attraction, a-b-da, 14, 3, 1, 27, 120, 195, 181, 111, 195, 120, 2, 0.342639
265, 3, bw, attraction, a-b-db, 5, 1, 1, 28, 58, 132, 60, 135, 135, 60, 2, 0.854438
265, 3, bw, attraction, a-b-db, 5, 1, 1, 28, 58, 132, 60, 135, 135, 60, 1, 0.4515
265, 3, bw, attraction, a-b-da, 2, 1, 1, 29, 135, 60, 60, 135, 134, 59, 2, 0.775277
265, 3, bw, attraction, a-b-da, 2, 1, 1, 29, 135, 60, 60, 135, 134, 59, 1, 0.526979
265, 3, bw, attraction, a-b-da, 14, 2, 1, 30, 90, 165, 165, 90, 153, 83, 1, 0.879439
265, 3, bw, attraction, a-b-da, 14, 2, 1, 30, 90, 165, 165, 90, 153, 83, 2, 0.683167
265, 3, bw, attraction, a-b-db, 14, 2, 1, 31, 90, 165, 83, 153, 165, 90, 3, 1.14149
265, 3, bw, attraction, a-b-db, 14, 2, 1, 31, 90, 165, 83, 153, 165, 90, 1, 0.494512
265, 3, bw, attraction, a-b-da, 9, 2, 1, 32, 165, 90, 157, 86, 90, 165, 1, 1.2563
265, 3, bw, attraction, a-b-da, 9, 2, 1, 32, 165, 90, 157, 86, 90, 165, 2, 0.660573
265, 3, bw, attraction, a-b-db, 5, 2, 1, 33, 90, 165, 88, 161, 165, 90, 2, 0.92772
265, 3, bw, attraction, a-b-db, 5, 2, 1, 33, 90, 165, 88, 161, 165, 90, 1, 0.449461
265, 3, bw, attraction, a-b-db, 14, 3, 1, 34, 120, 195, 195, 120, 111, 181, 1, 0.68504
265, 3, bw, attraction, a-b-db, 14, 3, 1, 34, 120, 195, 195, 120, 111, 181, 2, 0.640831
265, 3, bw, filler, NA, 999, 999, 1, 35, 115, 109, 63, 85, 84, 103, 1, 0.740697
265, 3, bw, filler, NA, 999, 999, 1, 35, 115, 109, 63, 85, 84, 103, 2, 0.789771
265, 3, bw, catch, NA, 999, 999, 1, 36, 109, 146, 78, 117, 148, 167, 3, 1.11605
265, 3, bw, catch, NA, 999, 999, 1, 36, 109, 146, 78, 117, 148, 167, 2, 0.710489
265, 3, bw, filler, NA, 999, 999, 1, 37, 68, 128, 145, 76, 72, 104, 2, 2.31987
265, 3, bw, filler, NA, 999, 999, 1, 37, 68, 128, 145, 76, 72, 104, 3, 0.849303
265, 3, bw, attraction, a-b-da, 5, 1, 2, 1, 60, 135, 135, 60, 132, 58, 1, 0.572977
265, 3, bw, attraction, a-b-da, 5, 1, 2, 1, 60, 135, 135, 60, 132, 58, 2, 0.460883
265, 3, bw, attraction, a-b-da, 9, 1, 2, 2, 129, 57, 60, 135, 135, 60, 1, 1.3039
265, 3, bw, attraction, a-b-da, 9, 1, 2, 2, 129, 57, 60, 135, 135, 60, 3, 1.58685
265, 3, bw, attraction, a-b-da, 2, 1, 2, 3, 60, 135, 135, 60, 134, 59, 1, 2.14493
265, 3, bw, attraction, a-b-da, 2, 1, 2, 3, 60, 135, 135, 60, 134, 59, 2, 0.40953
265, 3, bw, attraction, a-b-db, 5, 1, 2, 4, 58, 132, 135, 60, 60, 135, 3, 0.78275
265, 3, bw, attraction, a-b-db, 5, 1, 2, 4, 58, 132, 135, 60, 60, 135, 1, 0.422517
265, 3, bw, attraction, a-b-db, 9, 1, 2, 5, 135, 60, 60, 135, 57, 129, 1, 1.39563
265, 3, bw, attraction, a-b-db, 9, 1, 2, 5, 135, 60, 60, 135, 57, 129, 2, 0.522389
265, 3, bw, attraction, a-b-da, 14, 3, 2, 6, 120, 195, 195, 120, 181, 111, 1, 0.739508
265, 3, bw, attraction, a-b-da, 14, 3, 2, 6, 120, 195, 195, 120, 181, 111, 2, 0.508665
265, 3, bw, attraction, a-b-da, 5, 3, 2, 7, 195, 120, 190, 117, 120, 195, 3, 1.75774
265, 3, bw, attraction, a-b-da, 5, 3, 2, 7, 195, 120, 190, 117, 120, 195, 2, 0.717947
265, 3, bw, attraction, a-b-da, 14, 1, 2, 8, 125, 56, 60, 135, 135, 60, 1, 0.6228
265, 3, bw, attraction, a-b-da, 14, 1, 2, 8, 125, 56, 60, 135, 135, 60, 2, 0.468603
265, 3, bw, attraction, a-b-db, 2, 1, 2, 9, 59, 134, 60, 135, 135, 60, 1, 0.75972
265, 3, bw, attraction, a-b-db, 2, 1, 2, 9, 59, 134, 60, 135, 135, 60, 2, 1.40833
265, 3, bw, filler, NA, 999, 999, 2, 10, 62, 171, 169, 150, 152, 172, 3, 2.16508
265, 3, bw, filler, NA, 999, 999, 2, 10, 62, 171, 169, 150, 152, 172, 1, 0.629066
265, 3, bw, attraction, a-b-db, 2, 3, 2, 11, 120, 195, 195, 120, 119, 193, 1, 0.961399
265, 3, bw, attraction, a-b-db, 2, 3, 2, 11, 120, 195, 195, 120, 119, 193, 2, 0.649891
265, 3, bw, attraction, a-b-da, 9, 2, 2, 12, 157, 86, 165, 90, 90, 165, 1, 0.909476
265, 3, bw, attraction, a-b-da, 9, 2, 2, 12, 157, 86, 165, 90, 90, 165, 2, 0.567875
265, 3, bw, catch, NA, 999, 999, 2, 13, 129, 186, 140, 115, 63, 132, 1, 0.766908
265, 3, bw, catch, NA, 999, 999, 2, 13, 129, 186, 140, 115, 63, 132, 3, 0.74352
265, 3, bw, attraction, a-b-db, 9, 2, 2, 14, 86, 157, 90, 165, 165, 90, 3, 2.63116
265, 3, bw, attraction, a-b-db, 9, 2, 2, 14, 86, 157, 90, 165, 165, 90, 1, 0.364208
265, 3, bw, catch, NA, 999, 999, 2, 15, 150, 165, 125, 130, 109, 86, 1, 0.667396
265, 3, bw, catch, NA, 999, 999, 2, 15, 150, 165, 125, 130, 109, 86, 3, 0.919871
265, 3, bw, filler, NA, 999, 999, 2, 16, 69, 147, 63, 105, 109, 157, 3, 0.856745
265, 3, bw, filler, NA, 999, 999, 2, 16, 69, 147, 63, 105, 109, 157, 2, 0.453078
265, 3, bw, filler, NA, 999, 999, 2, 17, 83, 129, 156, 164, 150, 191, 2, 0.600934
265, 3, bw, filler, NA, 999, 999, 2, 17, 83, 129, 156, 164, 150, 191, 1, 0.504094
265, 3, bw, filler, NA, 999, 999, 2, 18, 118, 79, 113, 148, 101, 136, 2, 1.49786
265, 3, bw, filler, NA, 999, 999, 2, 18, 118, 79, 113, 148, 101, 136, 1, 0.540859
265, 3, bw, attraction, a-b-da, 2, 2, 2, 19, 165, 90, 90, 165, 163, 89, 1, 1.12453
265, 3, bw, attraction, a-b-da, 2, 2, 2, 19, 165, 90, 90, 165, 163, 89, 2, 1.06221
265, 3, bw, filler, NA, 999, 999, 2, 20, 188, 184, 131, 87, 104, 59, 1, 0.841111
265, 3, bw, filler, NA, 999, 999, 2, 20, 188, 184, 131, 87, 104, 59, 3, 0.590227
265, 3, bw, filler, NA, 999, 999, 2, 21, 110, 112, 64, 161, 191, 122, 3, 2.03584
265, 3, bw, filler, NA, 999, 999, 2, 21, 110, 112, 64, 161, 191, 122, 1, 1.28916
265, 3, bw, attraction, a-b-db, 2, 2, 2, 22, 89, 163, 165, 90, 90, 165, 1, 0.747392
265, 3, bw, attraction, a-b-db, 2, 2, 2, 22, 89, 163, 165, 90, 90, 165, 2, 0.340413
265, 3, bw, filler, NA, 999, 999, 2, 23, 94, 178, 175, 62, 140, 180, 3, 0.812763
265, 3, bw, filler, NA, 999, 999, 2, 23, 94, 178, 175, 62, 140, 180, 2, 1.49068
265, 3, bw, catch, NA, 999, 999, 2, 24, 113, 142, 85, 110, 184, 131, 3, 1.22808
265, 3, bw, catch, NA, 999, 999, 2, 24, 113, 142, 85, 110, 184, 131, 2, 0.441676
265, 3, bw, attraction, a-b-db, 5, 3, 2, 25, 120, 195, 117, 190, 195, 120, 1, 0.965622
265, 3, bw, attraction, a-b-db, 5, 3, 2, 25, 120, 195, 117, 190, 195, 120, 2, 0.573869
265, 3, bw, filler, NA, 999, 999, 2, 26, 86, 179, 124, 117, 186, 124, 3, 0.812241
265, 3, bw, filler, NA, 999, 999, 2, 26, 86, 179, 124, 117, 186, 124, 2, 1.07476
265, 3, bw, attraction, a-b-da, 14, 2, 2, 27, 153, 83, 165, 90, 90, 165, 3, 5.50897
265, 3, bw, attraction, a-b-da, 14, 2, 2, 27, 153, 83, 165, 90, 90, 165, 2, 0.381852
265, 3, bw, attraction, a-b-da, 2, 3, 2, 28, 120, 195, 195, 120, 193, 119, 1, 0.732396
265, 3, bw, attraction, a-b-da, 2, 3, 2, 28, 120, 195, 195, 120, 193, 119, 2, 0.806222
265, 3, bw, filler, NA, 999, 999, 2, 29, 182, 151, 127, 129, 178, 90, 1, 0.947799
265, 3, bw, filler, NA, 999, 999, 2, 29, 182, 151, 127, 129, 178, 90, 2, 0.564841
265, 3, bw, attraction, a-b-db, 9, 3, 2, 30, 120, 195, 114, 186, 195, 120, 1, 0.956035
265, 3, bw, attraction, a-b-db, 9, 3, 2, 30, 120, 195, 114, 186, 195, 120, 2, 0.364302
265, 3, bw, attraction, a-b-db, 5, 2, 2, 31, 165, 90, 88, 161, 90, 165, 1, 0.843381
265, 3, bw, attraction, a-b-db, 5, 2, 2, 31, 165, 90, 88, 161, 90, 165, 2, 0.296415
265, 3, bw, attraction, a-b-db, 14, 1, 2, 32, 56, 125, 60, 135, 135, 60, 2, 0.986363
265, 3, bw, attraction, a-b-db, 14, 1, 2, 32, 56, 125, 60, 135, 135, 60, 1, 0.577911
265, 3, bw, attraction, a-b-da, 9, 3, 2, 33, 186, 114, 195, 120, 120, 195, 1, 0.69637
265, 3, bw, attraction, a-b-da, 9, 3, 2, 33, 186, 114, 195, 120, 120, 195, 2, 0.347553
265, 3, bw, attraction, a-b-da, 5, 2, 2, 34, 161, 88, 165, 90, 90, 165, 1, 0.667501
265, 3, bw, attraction, a-b-da, 5, 2, 2, 34, 161, 88, 165, 90, 90, 165, 2, 0.687776
265, 3, bw, filler, NA, 999, 999, 2, 35, 67, 136, 119, 141, 76, 59, 2, 0.53827
265, 3, bw, filler, NA, 999, 999, 2, 35, 67, 136, 119, 141, 76, 59, 3, 0.499372
265, 3, bw, attraction, a-b-db, 14, 2, 2, 36, 90, 165, 83, 153, 165, 90, 1, 0.725098
265, 3, bw, attraction, a-b-db, 14, 2, 2, 36, 90, 165, 83, 153, 165, 90, 2, 0.294813
265, 3, bw, attraction, a-b-db, 14, 3, 2, 37, 111, 181, 120, 195, 195, 120, 1, 0.832694
265, 3, bw, attraction, a-b-db, 14, 3, 2, 37, 111, 181, 120, 195, 195, 120, 2, 0.27832
265, 3, bw, attraction, a-b-db, 14, 2, 3, 1, 83, 153, 165, 90, 90, 165, 1, 0.728809
265, 3, bw, attraction, a-b-db, 14, 2, 3, 1, 83, 153, 165, 90, 90, 165, 2, 0.362804
265, 3, bw, attraction, a-b-db, 14, 3, 3, 2, 120, 195, 195, 120, 111, 181, 1, 0.47383
265, 3, bw, attraction, a-b-db, 14, 3, 3, 2, 120, 195, 195, 120, 111, 181, 3, 1.15767
265, 3, bw, attraction, a-b-da, 2, 3, 3, 3, 120, 195, 195, 120, 193, 119, 2, 1.69932
265, 3, bw, attraction, a-b-da, 2, 3, 3, 3, 120, 195, 195, 120, 193, 119, 1, 0.79133
265, 3, bw, attraction, a-b-da, 5, 2, 3, 4, 161, 88, 165, 90, 90, 165, 1, 0.884967
265, 3, bw, attraction, a-b-da, 5, 2, 3, 4, 161, 88, 165, 90, 90, 165, 2, 0.280732
265, 3, bw, attraction, a-b-da, 2, 2, 3, 5, 90, 165, 163, 89, 165, 90, 1, 0.539208
265, 3, bw, attraction, a-b-da, 2, 2, 3, 5, 90, 165, 163, 89, 165, 90, 2, 0.244522
265, 3, bw, attraction, a-b-db, 5, 3, 3, 6, 120, 195, 195, 120, 117, 190, 1, 0.424149
265, 3, bw, attraction, a-b-db, 5, 3, 3, 6, 120, 195, 195, 120, 117, 190, 2, 0.654083
265, 3, bw, filler, NA, 999, 999, 3, 7, 118, 168, 88, 144, 131, 169, 3, 1.76978
265, 3, bw, filler, NA, 999, 999, 3, 7, 118, 168, 88, 144, 131, 169, 2, 0.945888
265, 3, bw, attraction, a-b-db, 9, 2, 3, 8, 90, 165, 165, 90, 86, 157, 1, 1.07355
265, 3, bw, attraction, a-b-db, 9, 2, 3, 8, 90, 165, 165, 90, 86, 157, 3, 1.19721
265, 3, bw, attraction, a-b-db, 14, 1, 3, 9, 135, 60, 56, 125, 60, 135, 3, 1.60273
265, 3, bw, attraction, a-b-db, 14, 1, 3, 9, 135, 60, 56, 125, 60, 135, 2, 0.657563
265, 3, bw, attraction, a-b-da, 14, 3, 3, 10, 181, 111, 120, 195, 195, 120, 2, 1.26863
265, 3, bw, attraction, a-b-da, 14, 3, 3, 10, 181, 111, 120, 195, 195, 120, 3, 0.616853
265, 3, bw, filler, NA, 999, 999, 3, 11, 62, 61, 71, 138, 168, 85, 3, 1.16601
265, 3, bw, filler, NA, 999, 999, 3, 11, 62, 61, 71, 138, 168, 85, 1, 0.670285
265, 3, bw, attraction, a-b-da, 14, 2, 3, 12, 153, 83, 90, 165, 165, 90, 1, 0.65726
265, 3, bw, attraction, a-b-da, 14, 2, 3, 12, 153, 83, 90, 165, 165, 90, 2, 0.461752
265, 3, bw, attraction, a-b-db, 2, 1, 3, 13, 135, 60, 60, 135, 59, 134, 1, 0.568853
265, 3, bw, attraction, a-b-db, 2, 1, 3, 13, 135, 60, 60, 135, 59, 134, 2, 1.0814
265, 3, bw, filler, NA, 999, 999, 3, 14, 117, 135, 181, 153, 135, 84, 2, 0.651664
265, 3, bw, filler, NA, 999, 999, 3, 14, 117, 135, 181, 153, 135, 84, 3, 1.00878
265, 3, bw, attraction, a-b-db, 5, 2, 3, 15, 165, 90, 88, 161, 90, 165, 3, 1.10963
265, 3, bw, attraction, a-b-db, 5, 2, 3, 15, 165, 90, 88, 161, 90, 165, 2, 0.576073
265, 3, bw, attraction, a-b-db, 9, 3, 3, 16, 120, 195, 114, 186, 195, 120, 1, 1.59037
265, 3, bw, attraction, a-b-db, 9, 3, 3, 16, 120, 195, 114, 186, 195, 120, 2, 0.533195
265, 3, bw, attraction, a-b-da, 5, 1, 3, 17, 135, 60, 60, 135, 132, 58, 1, 0.541694
265, 3, bw, attraction, a-b-da, 5, 1, 3, 17, 135, 60, 60, 135, 132, 58, 2, 0.678735
265, 3, bw, attraction, a-b-da, 2, 1, 3, 18, 135, 60, 60, 135, 134, 59, 1, 2.60916
265, 3, bw, attraction, a-b-da, 2, 1, 3, 18, 135, 60, 60, 135, 134, 59, 3, 0.447047
265, 3, bw, attraction, a-b-da, 9, 3, 3, 19, 120, 195, 195, 120, 186, 114, 1, 2.24275
265, 3, bw, attraction, a-b-da, 9, 3, 3, 19, 120, 195, 195, 120, 186, 114, 2, 0.335433
265, 3, bw, catch, NA, 999, 999, 3, 20, 81, 114, 149, 166, 151, 104, 2, 0.903838
265, 3, bw, catch, NA, 999, 999, 3, 20, 81, 114, 149, 166, 151, 104, 1, 0.882927
265, 3, bw, filler, NA, 999, 999, 3, 21, 188, 129, 194, 122, 71, 101, 1, 0.597421
265, 3, bw, filler, NA, 999, 999, 3, 21, 188, 129, 194, 122, 71, 101, 3, 0.540304
265, 3, bw, filler, NA, 999, 999, 3, 22, 173, 174, 179, 187, 156, 110, 2, 0.724141
265, 3, bw, filler, NA, 999, 999, 3, 22, 173, 174, 179, 187, 156, 110, 3, 0.525904
265, 3, bw, attraction, a-b-da, 9, 2, 3, 23, 165, 90, 90, 165, 157, 86, 1, 0.830293
265, 3, bw, attraction, a-b-da, 9, 2, 3, 23, 165, 90, 90, 165, 157, 86, 2, 0.31611
265, 3, bw, attraction, a-b-da, 9, 1, 3, 24, 135, 60, 60, 135, 129, 57, 2, 1.18112
265, 3, bw, attraction, a-b-da, 9, 1, 3, 24, 135, 60, 60, 135, 129, 57, 1, 0.924748
265, 3, bw, filler, NA, 999, 999, 3, 25, 146, 88, 117, 115, 98, 159, 1, 0.68511
265, 3, bw, filler, NA, 999, 999, 3, 25, 146, 88, 117, 115, 98, 159, 2, 3.73695
265, 3, bw, attraction, a-b-db, 2, 2, 3, 26, 165, 90, 90, 165, 89, 163, 1, 0.752327
265, 3, bw, attraction, a-b-db, 2, 2, 3, 26, 165, 90, 90, 165, 89, 163, 2, 0.353529
265, 3, bw, catch, NA, 999, 999, 3, 27, 96, 159, 193, 122, 117, 78, 2, 0.577279
265, 3, bw, catch, NA, 999, 999, 3, 27, 96, 159, 193, 122, 117, 78, 3, 0.449085
265, 3, bw, filler, NA, 999, 999, 3, 28, 170, 140, 58, 132, 71, 175, 1, 0.628885
265, 3, bw, filler, NA, 999, 999, 3, 28, 170, 140, 58, 132, 71, 175, 2, 0.322661
265, 3, bw, filler, NA, 999, 999, 3, 29, 124, 195, 174, 87, 63, 180, 1, 0.547893
265, 3, bw, filler, NA, 999, 999, 3, 29, 124, 195, 174, 87, 63, 180, 3, 0.613075
265, 3, bw, catch, NA, 999, 999, 3, 30, 96, 159, 133, 182, 110, 85, 2, 0.697972
265, 3, bw, catch, NA, 999, 999, 3, 30, 96, 159, 133, 182, 110, 85, 3, 0.749111
265, 3, bw, attraction, a-b-da, 14, 1, 3, 31, 60, 135, 135, 60, 125, 56, 1, 1.1167
265, 3, bw, attraction, a-b-da, 14, 1, 3, 31, 60, 135, 135, 60, 125, 56, 2, 0.607021
265, 3, bw, filler, NA, 999, 999, 3, 32, 176, 69, 111, 153, 146, 190, 3, 0.628118
265, 3, bw, filler, NA, 999, 999, 3, 32, 176, 69, 111, 153, 146, 190, 1, 1.28993
265, 3, bw, attraction, a-b-db, 5, 1, 3, 33, 60, 135, 58, 132, 135, 60, 1, 2.60428
265, 3, bw, attraction, a-b-db, 5, 1, 3, 33, 60, 135, 58, 132, 135, 60, 3, 1.17078
265, 3, bw, attraction, a-b-db, 2, 3, 3, 34, 120, 195, 119, 193, 195, 120, 2, 1.37755
265, 3, bw, attraction, a-b-db, 2, 3, 3, 34, 120, 195, 119, 193, 195, 120, 1, 0.329123
265, 3, bw, attraction, a-b-da, 5, 3, 3, 35, 190, 117, 195, 120, 120, 195, 1, 0.641601
265, 3, bw, attraction, a-b-da, 5, 3, 3, 35, 190, 117, 195, 120, 120, 195, 2, 0.286698
265, 3, bw, filler, NA, 999, 999, 3, 36, 147, 77, 164, 160, 182, 111, 2, 0.681217
265, 3, bw, filler, NA, 999, 999, 3, 36, 147, 77, 164, 160, 182, 111, 1, 0.573164
265, 3, bw, attraction, a-b-db, 9, 1, 3, 37, 57, 129, 135, 60, 60, 135, 3, 0.620076
265, 3, bw, attraction, a-b-db, 9, 1, 3, 37, 57, 129, 135, 60, 60, 135, 2, 0.778641
265, 3, bw, attraction, a-b-da, 14, 2, 4, 1, 90, 165, 153, 83, 165, 90, 1, 0.55283
265, 3, bw, attraction, a-b-da, 14, 2, 4, 1, 90, 165, 153, 83, 165, 90, 2, 0.538047
265, 3, bw, filler, NA, 999, 999, 4, 2, 190, 82, 65, 192, 60, 111, 1, 0.514512
265, 3, bw, filler, NA, 999, 999, 4, 2, 190, 82, 65, 192, 60, 111, 3, 0.797039
265, 3, bw, filler, NA, 999, 999, 4, 3, 186, 163, 187, 152, 184, 100, 1, 0.722775
265, 3, bw, filler, NA, 999, 999, 4, 3, 186, 163, 187, 152, 184, 100, 3, 0.740442
265, 3, bw, attraction, a-b-da, 2, 1, 4, 4, 60, 135, 135, 60, 134, 59, 1, 1.08423
265, 3, bw, attraction, a-b-da, 2, 1, 4, 4, 60, 135, 135, 60, 134, 59, 2, 0.415708
265, 3, bw, attraction, a-b-da, 14, 3, 4, 5, 120, 195, 181, 111, 195, 120, 1, 0.58089
265, 3, bw, attraction, a-b-da, 14, 3, 4, 5, 120, 195, 181, 111, 195, 120, 2, 0.364644
265, 3, bw, attraction, a-b-db, 5, 2, 4, 6, 90, 165, 88, 161, 165, 90, 1, 0.523776
265, 3, bw, attraction, a-b-db, 5, 2, 4, 6, 90, 165, 88, 161, 165, 90, 2, 0.317585
265, 3, bw, attraction, a-b-da, 9, 1, 4, 7, 135, 60, 129, 57, 60, 135, 1, 1.1189
265, 3, bw, attraction, a-b-da, 9, 1, 4, 7, 135, 60, 129, 57, 60, 135, 2, 0.73704
265, 3, bw, filler, NA, 999, 999, 4, 8, 60, 125, 150, 131, 71, 73, 2, 0.569515
265, 3, bw, filler, NA, 999, 999, 4, 8, 60, 125, 150, 131, 71, 73, 3, 0.458058
265, 3, bw, filler, NA, 999, 999, 4, 9, 72, 94, 192, 192, 116, 173, 2, 0.484998
265, 3, bw, filler, NA, 999, 999, 4, 9, 72, 94, 192, 192, 116, 173, 1, 0.461732
265, 3, bw, attraction, a-b-da, 14, 1, 4, 10, 135, 60, 125, 56, 60, 135, 1, 1.26807
265, 3, bw, attraction, a-b-da, 14, 1, 4, 10, 135, 60, 125, 56, 60, 135, 2, 0.680305
265, 3, bw, attraction, a-b-db, 9, 1, 4, 11, 60, 135, 135, 60, 57, 129, 1, 1.05073
265, 3, bw, attraction, a-b-db, 9, 1, 4, 11, 60, 135, 135, 60, 57, 129, 2, 0.287642
265, 3, bw, attraction, a-b-db, 9, 2, 4, 12, 86, 157, 165, 90, 90, 165, 1, 0.554238
265, 3, bw, attraction, a-b-db, 9, 2, 4, 12, 86, 157, 165, 90, 90, 165, 2, 0.242633
265, 3, bw, filler, NA, 999, 999, 4, 13, 110, 129, 62, 144, 57, 180, 1, 0.60656
265, 3, bw, filler, NA, 999, 999, 4, 13, 110, 129, 62, 144, 57, 180, 2, 0.532883
265, 3, bw, attraction, a-b-da, 2, 2, 4, 14, 165, 90, 90, 165, 163, 89, 1, 1.09341
265, 3, bw, attraction, a-b-da, 2, 2, 4, 14, 165, 90, 90, 165, 163, 89, 2, 0.616391
265, 3, bw, attraction, a-b-da, 2, 3, 4, 15, 120, 195, 193, 119, 195, 120, 1, 0.541403
265, 3, bw, attraction, a-b-da, 2, 3, 4, 15, 120, 195, 193, 119, 195, 120, 2, 0.390506
265, 3, bw, attraction, a-b-db, 2, 3, 4, 16, 195, 120, 120, 195, 119, 193, 1, 0.548473
265, 3, bw, attraction, a-b-db, 2, 3, 4, 16, 195, 120, 120, 195, 119, 193, 2, 1.30156
265, 3, bw, catch, NA, 999, 999, 4, 17, 149, 106, 99, 96, 125, 190, 3, 1.20702
265, 3, bw, catch, NA, 999, 999, 4, 17, 149, 106, 99, 96, 125, 190, 2, 0.333339
265, 3, bw, attraction, a-b-da, 9, 2, 4, 18, 165, 90, 157, 86, 90, 165, 1, 0.749806
265, 3, bw, attraction, a-b-da, 9, 2, 4, 18, 165, 90, 157, 86, 90, 165, 2, 0.366989
265, 3, bw, attraction, a-b-db, 2, 1, 4, 19, 135, 60, 60, 135, 59, 134, 1, 0.782225
265, 3, bw, attraction, a-b-db, 2, 1, 4, 19, 135, 60, 60, 135, 59, 134, 2, 0.541822
265, 3, bw, filler, NA, 999, 999, 4, 20, 171, 134, 168, 93, 114, 107, 1, 0.493563
265, 3, bw, filler, NA, 999, 999, 4, 20, 171, 134, 168, 93, 114, 107, 3, 0.368751
265, 3, bw, attraction, a-b-da, 5, 2, 4, 21, 90, 165, 161, 88, 165, 90, 1, 0.591843
265, 3, bw, attraction, a-b-da, 5, 2, 4, 21, 90, 165, 161, 88, 165, 90, 2, 0.758991
265, 3, bw, attraction, a-b-db, 5, 1, 4, 22, 135, 60, 58, 132, 60, 135, 1, 0.686119
265, 3, bw, attraction, a-b-db, 5, 1, 4, 22, 135, 60, 58, 132, 60, 135, 2, 2.36994
265, 3, bw, filler, NA, 999, 999, 4, 23, 151, 135, 170, 110, 70, 72, 1, 0.832287
265, 3, bw, filler, NA, 999, 999, 4, 23, 151, 135, 170, 110, 70, 72, 3, 0.918028
265, 3, bw, catch, NA, 999, 999, 4, 24, 165, 150, 62, 133, 133, 122, 1, 0.743023
265, 3, bw, catch, NA, 999, 999, 4, 24, 165, 150, 62, 133, 133, 122, 2, 0.592105
265, 3, bw, attraction, a-b-db, 5, 3, 4, 25, 120, 195, 195, 120, 117, 190, 1, 0.581849
265, 3, bw, attraction, a-b-db, 5, 3, 4, 25, 120, 195, 195, 120, 117, 190, 2, 0.613661
265, 3, bw, attraction, a-b-da, 9, 3, 4, 26, 120, 195, 195, 120, 186, 114, 1, 0.466784
265, 3, bw, attraction, a-b-da, 9, 3, 4, 26, 120, 195, 195, 120, 186, 114, 2, 0.64726
265, 3, bw, attraction, a-b-db, 14, 3, 4, 27, 195, 120, 120, 195, 111, 181, 1, 0.467109
265, 3, bw, attraction, a-b-db, 14, 3, 4, 27, 195, 120, 120, 195, 111, 181, 2, 0.351573
265, 3, bw, filler, NA, 999, 999, 4, 28, 80, 96, 186, 128, 117, 188, 2, 0.911278
265, 3, bw, filler, NA, 999, 999, 4, 28, 80, 96, 186, 128, 117, 188, 1, 0.433635
265, 3, bw, attraction, a-b-db, 14, 1, 4, 29, 56, 125, 60, 135, 135, 60, 1, 1.59806
265, 3, bw, attraction, a-b-db, 14, 1, 4, 29, 56, 125, 60, 135, 135, 60, 2, 0.356933
265, 3, bw, attraction, a-b-da, 5, 1, 4, 30, 60, 135, 132, 58, 135, 60, 1, 0.532154
265, 3, bw, attraction, a-b-da, 5, 1, 4, 30, 60, 135, 132, 58, 135, 60, 2, 0.606063
265, 3, bw, attraction, a-b-db, 9, 3, 4, 31, 120, 195, 114, 186, 195, 120, 1, 0.563677
265, 3, bw, attraction, a-b-db, 9, 3, 4, 31, 120, 195, 114, 186, 195, 120, 2, 0.340134
265, 3, bw, attraction, a-b-db, 2, 2, 4, 32, 90, 165, 89, 163, 165, 90, 1, 0.491986
265, 3, bw, attraction, a-b-db, 2, 2, 4, 32, 90, 165, 89, 163, 165, 90, 2, 0.383343
265, 3, bw, attraction, a-b-db, 14, 2, 4, 33, 83, 153, 90, 165, 165, 90, 1, 0.54951
265, 3, bw, attraction, a-b-db, 14, 2, 4, 33, 83, 153, 90, 165, 165, 90, 2, 0.694922
265, 3, bw, attraction, a-b-da, 5, 3, 4, 34, 190, 117, 195, 120, 120, 195, 1, 0.312404
265, 3, bw, attraction, a-b-da, 5, 3, 4, 34, 190, 117, 195, 120, 120, 195, 2, 0.490955
265, 3, bw, filler, NA, 999, 999, 4, 35, 81, 187, 68, 102, 174, 58, 1, 0.70881
265, 3, bw, filler, NA, 999, 999, 4, 35, 81, 187, 68, 102, 174, 58, 2, 0.647246
265, 3, bw, filler, NA, 999, 999, 4, 36, 83, 116, 61, 141, 154, 172, 3, 1.14689
265, 3, bw, filler, NA, 999, 999, 4, 36, 83, 116, 61, 141, 154, 172, 1, 0.508
265, 3, bw, catch, NA, 999, 999, 4, 37, 181, 134, 134, 61, 105, 150, 1, 0.845027
265, 3, bw, catch, NA, 999, 999, 4, 37, 181, 134, 134, 61, 105, 150, 2, 0.650017
265, 3, bw, attraction, a-b-db, 5, 2, 5, 1, 88, 161, 90, 165, 165, 90, 1, 2.23644
265, 3, bw, attraction, a-b-db, 5, 2, 5, 1, 88, 161, 90, 165, 165, 90, 2, 0.43375
265, 3, bw, attraction, a-b-da, 14, 3, 5, 2, 120, 195, 195, 120, 181, 111, 1, 0.454159
265, 3, bw, attraction, a-b-da, 14, 3, 5, 2, 120, 195, 195, 120, 181, 111, 2, 0.523429
265, 3, bw, attraction, a-b-db, 9, 1, 5, 3, 135, 60, 60, 135, 57, 129, 1, 0.643742
265, 3, bw, attraction, a-b-db, 9, 1, 5, 3, 135, 60, 60, 135, 57, 129, 2, 0.792845
265, 3, bw, attraction, a-b-db, 2, 1, 5, 4, 59, 134, 135, 60, 60, 135, 1, 0.438529
265, 3, bw, attraction, a-b-db, 2, 1, 5, 4, 59, 134, 135, 60, 60, 135, 2, 0.731851
265, 3, bw, attraction, a-b-db, 2, 3, 5, 5, 120, 195, 195, 120, 119, 193, 1, 0.71611
265, 3, bw, attraction, a-b-db, 2, 3, 5, 5, 120, 195, 195, 120, 119, 193, 2, 0.630493
265, 3, bw, attraction, a-b-db, 14, 3, 5, 6, 111, 181, 195, 120, 120, 195, 1, 0.466855
265, 3, bw, attraction, a-b-db, 14, 3, 5, 6, 111, 181, 195, 120, 120, 195, 2, 0.535949
265, 3, bw, attraction, a-b-da, 2, 2, 5, 7, 163, 89, 90, 165, 165, 90, 1, 0.471788
265, 3, bw, attraction, a-b-da, 2, 2, 5, 7, 163, 89, 90, 165, 165, 90, 2, 0.563781
265, 3, bw, filler, NA, 999, 999, 5, 8, 181, 78, 73, 58, 130, 155, 1, 0.346813
265, 3, bw, filler, NA, 999, 999, 5, 8, 181, 78, 73, 58, 130, 155, 2, 1.7481
265, 3, bw, filler, NA, 999, 999, 5, 9, 113, 161, 166, 172, 63, 118, 1, 0.523359
265, 3, bw, filler, NA, 999, 999, 5, 9, 113, 161, 166, 172, 63, 118, 3, 1.45332
265, 3, bw, attraction, a-b-da, 9, 2, 5, 10, 165, 90, 157, 86, 90, 165, 1, 1.00871
265, 3, bw, attraction, a-b-da, 9, 2, 5, 10, 165, 90, 157, 86, 90, 165, 2, 0.43107
265, 3, bw, filler, NA, 999, 999, 5, 11, 189, 142, 150, 149, 79, 86, 1, 1.07547
265, 3, bw, filler, NA, 999, 999, 5, 11, 189, 142, 150, 149, 79, 86, 3, 0.647261
265, 3, bw, attraction, a-b-da, 5, 1, 5, 12, 60, 135, 132, 58, 135, 60, 1, 0.810844
265, 3, bw, attraction, a-b-da, 5, 1, 5, 12, 60, 135, 132, 58, 135, 60, 2, 0.721304
265, 3, bw, filler, NA, 999, 999, 5, 13, 163, 128, 117, 109, 159, 152, 3, 1.21028
265, 3, bw, filler, NA, 999, 999, 5, 13, 163, 128, 117, 109, 159, 152, 2, 0.648604
265, 3, bw, filler, NA, 999, 999, 5, 14, 115, 155, 82, 111, 169, 92, 1, 1.18031
265, 3, bw, filler, NA, 999, 999, 5, 14, 115, 155, 82, 111, 169, 92, 2, 0.515881
265, 3, bw, attraction, a-b-db, 14, 2, 5, 15, 83, 153, 165, 90, 90, 165, 1, 0.645081
265, 3, bw, attraction, a-b-db, 14, 2, 5, 15, 83, 153, 165, 90, 90, 165, 2, 0.914118
265, 3, bw, attraction, a-b-da, 5, 3, 5, 16, 120, 195, 195, 120, 190, 117, 1, 0.771175
265, 3, bw, attraction, a-b-da, 5, 3, 5, 16, 120, 195, 195, 120, 190, 117, 3, 1.04362
265, 3, bw, attraction, a-b-db, 2, 2, 5, 17, 90, 165, 89, 163, 165, 90, 1, 1.03912
265, 3, bw, attraction, a-b-db, 2, 2, 5, 17, 90, 165, 89, 163, 165, 90, 2, 0.372133
265, 3, bw, attraction, a-b-da, 2, 3, 5, 18, 195, 120, 193, 119, 120, 195, 1, 0.515207
265, 3, bw, attraction, a-b-da, 2, 3, 5, 18, 195, 120, 193, 119, 120, 195, 2, 0.293816
265, 3, bw, attraction, a-b-db, 9, 2, 5, 19, 86, 157, 165, 90, 90, 165, 1, 0.503515
265, 3, bw, attraction, a-b-db, 9, 2, 5, 19, 86, 157, 165, 90, 90, 165, 2, 0.578771
265, 3, bw, attraction, a-b-da, 9, 3, 5, 20, 120, 195, 195, 120, 186, 114, 1, 0.449272
265, 3, bw, attraction, a-b-da, 9, 3, 5, 20, 120, 195, 195, 120, 186, 114, 2, 0.430369
265, 3, bw, attraction, a-b-da, 5, 2, 5, 21, 161, 88, 165, 90, 90, 165, 1, 0.474835
265, 3, bw, attraction, a-b-da, 5, 2, 5, 21, 161, 88, 165, 90, 90, 165, 2, 0.590563
265, 3, bw, filler, NA, 999, 999, 5, 22, 158, 170, 148, 167, 60, 150, 1, 1.56443
265, 3, bw, filler, NA, 999, 999, 5, 22, 158, 170, 148, 167, 60, 150, 3, 0.636672
265, 3, bw, attraction, a-b-da, 14, 1, 5, 23, 125, 56, 60, 135, 135, 60, 1, 0.848974
265, 3, bw, attraction, a-b-da, 14, 1, 5, 23, 125, 56, 60, 135, 135, 60, 2, 0.54218
265, 3, bw, catch, NA, 999, 999, 5, 24, 138, 117, 117, 78, 168, 147, 3, 1.10977
265, 3, bw, catch, NA, 999, 999, 5, 24, 138, 117, 117, 78, 168, 147, 2, 0.480143
265, 3, bw, catch, NA, 999, 999, 5, 25, 146, 109, 122, 193, 107, 88, 2, 1.39454
265, 3, bw, catch, NA, 999, 999, 5, 25, 146, 109, 122, 193, 107, 88, 3, 0.489453
265, 3, bw, attraction, a-b-db, 5, 1, 5, 26, 60, 135, 58, 132, 135, 60, 1, 0.732189
265, 3, bw, attraction, a-b-db, 5, 1, 5, 26, 60, 135, 58, 132, 135, 60, 2, 0.669527
265, 3, bw, filler, NA, 999, 999, 5, 27, 123, 87, 144, 153, 178, 168, 3, 0.648732
265, 3, bw, filler, NA, 999, 999, 5, 27, 123, 87, 144, 153, 178, 168, 1, 0.445802
265, 3, bw, catch, NA, 999, 999, 5, 28, 102, 93, 155, 160, 159, 96, 2, 0.737767
265, 3, bw, catch, NA, 999, 999, 5, 28, 102, 93, 155, 160, 159, 96, 1, 1.1233
265, 3, bw, filler, NA, 999, 999, 5, 29, 169, 165, 132, 127, 125, 146, 1, 0.660335
265, 3, bw, filler, NA, 999, 999, 5, 29, 169, 165, 132, 127, 125, 146, 2, 2.07266
265, 3, bw, attraction, a-b-db, 5, 3, 5, 30, 120, 195, 117, 190, 195, 120, 1, 0.864274
265, 3, bw, attraction, a-b-db, 5, 3, 5, 30, 120, 195, 117, 190, 195, 120, 2, 0.479756
265, 3, bw, attraction, a-b-db, 9, 3, 5, 31, 114, 186, 195, 120, 120, 195, 3, 1.00232
265, 3, bw, attraction, a-b-db, 9, 3, 5, 31, 114, 186, 195, 120, 120, 195, 1, 0.489129
265, 3, bw, attraction, a-b-db, 14, 1, 5, 32, 56, 125, 135, 60, 60, 135, 1, 0.683596
265, 3, bw, attraction, a-b-db, 14, 1, 5, 32, 56, 125, 135, 60, 60, 135, 2, 0.679372
265, 3, bw, filler, NA, 999, 999, 5, 33, 134, 151, 112, 129, 74, 139, 1, 0.617676
265, 3, bw, filler, NA, 999, 999, 5, 33, 134, 151, 112, 129, 74, 139, 3, 0.312129
265, 3, bw, attraction, a-b-da, 14, 2, 5, 34, 90, 165, 153, 83, 165, 90, 1, 0.593327
265, 3, bw, attraction, a-b-da, 14, 2, 5, 34, 90, 165, 153, 83, 165, 90, 2, 0.672454
265, 3, bw, filler, NA, 999, 999, 5, 35, 98, 185, 97, 80, 83, 109, 1, 0.507491
265, 3, bw, filler, NA, 999, 999, 5, 35, 98, 185, 97, 80, 83, 109, 2, 3.23
265, 3, bw, attraction, a-b-da, 9, 1, 5, 36, 135, 60, 129, 57, 60, 135, 1, 0.481585
265, 3, bw, attraction, a-b-da, 9, 1, 5, 36, 135, 60, 129, 57, 60, 135, 2, 0.605458
265, 3, bw, attraction, a-b-da, 2, 1, 5, 37, 60, 135, 134, 59, 135, 60, 1, 0.531283
265, 3, bw, attraction, a-b-da, 2, 1, 5, 37, 60, 135, 134, 59, 135, 60, 2, 0.66902
265, 3, bw, filler, NA, 999, 999, 6, 1, 65, 155, 75, 106, 146, 180, 3, 0.928221
265, 3, bw, filler, NA, 999, 999, 6, 1, 65, 155, 75, 106, 146, 180, 2, 0.513886
265, 3, bw, filler, NA, 999, 999, 6, 2, 139, 101, 64, 117, 145, 136, 3, 1.291
265, 3, bw, filler, NA, 999, 999, 6, 2, 139, 101, 64, 117, 145, 136, 2, 0.714863
265, 3, bw, filler, NA, 999, 999, 6, 3, 71, 175, 157, 70, 79, 161, 3, 1.07098
265, 3, bw, filler, NA, 999, 999, 6, 3, 71, 175, 157, 70, 79, 161, 2, 0.691122
265, 3, bw, attraction, a-b-db, 9, 1, 6, 4, 60, 135, 135, 60, 57, 129, 1, 1.06102
265, 3, bw, attraction, a-b-db, 9, 1, 6, 4, 60, 135, 135, 60, 57, 129, 3, 0.745218
265, 3, bw, attraction, a-b-db, 9, 3, 6, 5, 120, 195, 195, 120, 114, 186, 1, 0.54482
265, 3, bw, attraction, a-b-db, 9, 3, 6, 5, 120, 195, 195, 120, 114, 186, 2, 0.778016
265, 3, bw, attraction, a-b-da, 5, 1, 6, 6, 132, 58, 135, 60, 60, 135, 1, 0.456349
265, 3, bw, attraction, a-b-da, 5, 1, 6, 6, 132, 58, 135, 60, 60, 135, 2, 0.581
265, 3, bw, attraction, a-b-db, 5, 2, 6, 7, 90, 165, 165, 90, 88, 161, 1, 0.467243
265, 3, bw, attraction, a-b-db, 5, 2, 6, 7, 90, 165, 165, 90, 88, 161, 2, 0.423948
265, 3, bw, filler, NA, 999, 999, 6, 8, 78, 67, 166, 186, 149, 177, 2, 2.4043
265, 3, bw, filler, NA, 999, 999, 6, 8, 78, 67, 166, 186, 149, 177, 1, 0.642874
265, 3, bw, filler, NA, 999, 999, 6, 9, 145, 110, 189, 181, 137, 146, 2, 0.854774
265, 3, bw, filler, NA, 999, 999, 6, 9, 145, 110, 189, 181, 137, 146, 1, 0.770971
265, 3, bw, filler, NA, 999, 999, 6, 10, 100, 127, 132, 130, 177, 168, 3, 0.682134
265, 3, bw, filler, NA, 999, 999, 6, 10, 100, 127, 132, 130, 177, 168, 1, 0.533799
265, 3, bw, attraction, a-b-da, 5, 2, 6, 11, 161, 88, 165, 90, 90, 165, 1, 0.766151
265, 3, bw, attraction, a-b-da, 5, 2, 6, 11, 161, 88, 165, 90, 90, 165, 2, 0.606591
265, 3, bw, attraction, a-b-da, 14, 3, 6, 12, 181, 111, 195, 120, 120, 195, 1, 0.588433
265, 3, bw, attraction, a-b-da, 14, 3, 6, 12, 181, 111, 195, 120, 120, 195, 2, 0.3475
265, 3, bw, filler, NA, 999, 999, 6, 13, 130, 58, 172, 112, 116, 170, 3, 1.05129
265, 3, bw, filler, NA, 999, 999, 6, 13, 130, 58, 172, 112, 116, 170, 1, 0.600222
265, 3, bw, catch, NA, 999, 999, 6, 14, 92, 103, 116, 139, 188, 127, 3, 1.22209
265, 3, bw, catch, NA, 999, 999, 6, 14, 92, 103, 116, 139, 188, 127, 1, 0.899584
265, 3, bw, attraction, a-b-db, 5, 3, 6, 15, 117, 190, 120, 195, 195, 120, 1, 0.845286
265, 3, bw, attraction, a-b-db, 5, 3, 6, 15, 117, 190, 120, 195, 195, 120, 2, 0.35451
265, 3, bw, attraction, a-b-da, 2, 3, 6, 16, 195, 120, 120, 195, 193, 119, 1, 0.45816
265, 3, bw, attraction, a-b-da, 2, 3, 6, 16, 195, 120, 120, 195, 193, 119, 2, 0.310697
265, 3, bw, attraction, a-b-da, 2, 1, 6, 17, 60, 135, 135, 60, 134, 59, 1, 0.575885
265, 3, bw, attraction, a-b-da, 2, 1, 6, 17, 60, 135, 135, 60, 134, 59, 2, 0.68759
265, 3, bw, attraction, a-b-da, 9, 2, 6, 18, 165, 90, 90, 165, 157, 86, 1, 0.521963
265, 3, bw, attraction, a-b-da, 9, 2, 6, 18, 165, 90, 90, 165, 157, 86, 2, 0.555808
265, 3, bw, attraction, a-b-da, 5, 3, 6, 19, 195, 120, 190, 117, 120, 195, 1, 0.507716
265, 3, bw, attraction, a-b-da, 5, 3, 6, 19, 195, 120, 190, 117, 120, 195, 2, 0.350161
265, 3, bw, filler, NA, 999, 999, 6, 20, 99, 110, 152, 62, 187, 118, 3, 0.949829
265, 3, bw, filler, NA, 999, 999, 6, 20, 99, 110, 152, 62, 187, 118, 1, 0.502862
265, 3, bw, attraction, a-b-db, 5, 1, 6, 21, 60, 135, 58, 132, 135, 60, 1, 0.704643
265, 3, bw, attraction, a-b-db, 5, 1, 6, 21, 60, 135, 58, 132, 135, 60, 2, 0.331738
265, 3, bw, attraction, a-b-da, 14, 1, 6, 22, 60, 135, 125, 56, 135, 60, 1, 0.51628
265, 3, bw, attraction, a-b-da, 14, 1, 6, 22, 60, 135, 125, 56, 135, 60, 2, 0.742769
265, 3, bw, attraction, a-b-da, 14, 2, 6, 23, 90, 165, 153, 83, 165, 90, 1, 0.470435
265, 3, bw, attraction, a-b-da, 14, 2, 6, 23, 90, 165, 153, 83, 165, 90, 2, 0.322945
265, 3, bw, attraction, a-b-da, 2, 2, 6, 24, 165, 90, 90, 165, 163, 89, 1, 0.604147
265, 3, bw, attraction, a-b-da, 2, 2, 6, 24, 165, 90, 90, 165, 163, 89, 2, 0.411379
265, 3, bw, attraction, a-b-da, 9, 1, 6, 25, 60, 135, 129, 57, 135, 60, 1, 0.70448
265, 3, bw, attraction, a-b-da, 9, 1, 6, 25, 60, 135, 129, 57, 135, 60, 2, 0.546832
265, 3, bw, attraction, a-b-db, 2, 2, 6, 26, 165, 90, 89, 163, 90, 165, 1, 1.89859
265, 3, bw, attraction, a-b-db, 2, 2, 6, 26, 165, 90, 89, 163, 90, 165, 2, 0.55729
265, 3, bw, filler, NA, 999, 999, 6, 27, 141, 84, 76, 192, 163, 180, 3, 0.724472
265, 3, bw, filler, NA, 999, 999, 6, 27, 141, 84, 76, 192, 163, 180, 1, 0.606164
265, 3, bw, attraction, a-b-db, 2, 3, 6, 28, 120, 195, 119, 193, 195, 120, 1, 0.587972
265, 3, bw, attraction, a-b-db, 2, 3, 6, 28, 120, 195, 119, 193, 195, 120, 2, 0.275116
265, 3, bw, attraction, a-b-db, 14, 2, 6, 29, 83, 153, 90, 165, 165, 90, 1, 1.19746
265, 3, bw, attraction, a-b-db, 14, 2, 6, 29, 83, 153, 90, 165, 165, 90, 2, 0.26846
265, 3, bw, attraction, a-b-db, 14, 3, 6, 30, 120, 195, 195, 120, 111, 181, 1, 0.391615
265, 3, bw, attraction, a-b-db, 14, 3, 6, 30, 120, 195, 195, 120, 111, 181, 2, 0.222848
265, 3, bw, attraction, a-b-db, 9, 2, 6, 31, 90, 165, 86, 157, 165, 90, 1, 0.475987
265, 3, bw, attraction, a-b-db, 9, 2, 6, 31, 90, 165, 86, 157, 165, 90, 2, 0.256068
265, 3, bw, filler, NA, 999, 999, 6, 32, 195, 106, 67, 178, 146, 161, 1, 1.48368
265, 3, bw, filler, NA, 999, 999, 6, 32, 195, 106, 67, 178, 146, 161, 2, 2.87128
265, 3, bw, attraction, a-b-db, 14, 1, 6, 33, 60, 135, 135, 60, 56, 125, 1, 0.953655
265, 3, bw, attraction, a-b-db, 14, 1, 6, 33, 60, 135, 135, 60, 56, 125, 2, 0.49024
265, 3, bw, attraction, a-b-db, 2, 1, 6, 34, 135, 60, 60, 135, 59, 134, 3, 0.956423
265, 3, bw, attraction, a-b-db, 2, 1, 6, 34, 135, 60, 60, 135, 59, 134, 2, 0.340887
265, 3, bw, catch, NA, 999, 999, 6, 35, 129, 66, 136, 179, 137, 118, 2, 1.06862
265, 3, bw, catch, NA, 999, 999, 6, 35, 129, 66, 136, 179, 137, 118, 1, 0.472974
265, 3, bw, catch, NA, 999, 999, 6, 36, 135, 120, 171, 144, 77, 118, 2, 1.02008
265, 3, bw, catch, NA, 999, 999, 6, 36, 135, 120, 171, 144, 77, 118, 3, 0.418458
265, 3, bw, attraction, a-b-da, 9, 3, 6, 37, 120, 195, 195, 120, 186, 114, 1, 0.631549
265, 3, bw, attraction, a-b-da, 9, 3, 6, 37, 120, 195, 195, 120, 186, 114, 2, 0.421326
265, 3, bw, attraction, a-b-da, 5, 1, 7, 1, 132, 58, 135, 60, 60, 135, 1, 0.530487
265, 3, bw, attraction, a-b-da, 5, 1, 7, 1, 132, 58, 135, 60, 60, 135, 2, 0.564237
265, 3, bw, attraction, a-b-db, 14, 3, 7, 2, 120, 195, 195, 120, 111, 181, 1, 0.499344
265, 3, bw, attraction, a-b-db, 14, 3, 7, 2, 120, 195, 195, 120, 111, 181, 2, 0.278478
265, 3, bw, filler, NA, 999, 999, 7, 3, 132, 108, 187, 147, 90, 156, 2, 0.769066
265, 3, bw, filler, NA, 999, 999, 7, 3, 132, 108, 187, 147, 90, 156, 1, 0.401511
265, 3, bw, attraction, a-b-da, 9, 3, 7, 4, 120, 195, 195, 120, 186, 114, 1, 0.615317
265, 3, bw, attraction, a-b-da, 9, 3, 7, 4, 120, 195, 195, 120, 186, 114, 2, 0.525655
265, 3, bw, filler, NA, 999, 999, 7, 5, 61, 118, 133, 159, 130, 191, 3, 0.838069
265, 3, bw, filler, NA, 999, 999, 7, 5, 61, 118, 133, 159, 130, 191, 1, 0.403903
265, 3, bw, attraction, a-b-da, 2, 1, 7, 6, 134, 59, 135, 60, 60, 135, 1, 0.697821
265, 3, bw, attraction, a-b-da, 2, 1, 7, 6, 134, 59, 135, 60, 60, 135, 2, 0.372695
265, 3, bw, catch, NA, 999, 999, 7, 7, 121, 74, 121, 194, 146, 109, 2, 0.54808
265, 3, bw, catch, NA, 999, 999, 7, 7, 121, 74, 121, 194, 146, 109, 1, 0.340967
265, 3, bw, filler, NA, 999, 999, 7, 8, 189, 61, 160, 121, 160, 115, 2, 0.941088
265, 3, bw, filler, NA, 999, 999, 7, 8, 189, 61, 160, 121, 160, 115, 1, 0.781914
265, 3, bw, attraction, a-b-db, 9, 1, 7, 9, 135, 60, 60, 135, 57, 129, 3, 0.74822
265, 3, bw, attraction, a-b-db, 9, 1, 7, 9, 135, 60, 60, 135, 57, 129, 2, 1.3014
265, 3, bw, attraction, a-b-da, 14, 2, 7, 10, 153, 83, 90, 165, 165, 90, 1, 0.654807
265, 3, bw, attraction, a-b-da, 14, 2, 7, 10, 153, 83, 90, 165, 165, 90, 2, 0.443338
265, 3, bw, filler, NA, 999, 999, 7, 11, 60, 57, 116, 111, 60, 132, 2, 0.591142
265, 3, bw, filler, NA, 999, 999, 7, 11, 60, 57, 116, 111, 60, 132, 1, 0.342189
265, 3, bw, attraction, a-b-db, 2, 1, 7, 12, 60, 135, 59, 134, 135, 60, 1, 1.19014
265, 3, bw, attraction, a-b-db, 2, 1, 7, 12, 60, 135, 59, 134, 135, 60, 2, 0.556905
265, 3, bw, filler, NA, 999, 999, 7, 13, 118, 166, 112, 63, 180, 138, 1, 0.70804
265, 3, bw, filler, NA, 999, 999, 7, 13, 118, 166, 112, 63, 180, 138, 2, 0.502589
265, 3, bw, attraction, a-b-da, 2, 3, 7, 14, 120, 195, 193, 119, 195, 120, 1, 0.856296
265, 3, bw, attraction, a-b-da, 2, 3, 7, 14, 120, 195, 193, 119, 195, 120, 2, 0.236623
265, 3, bw, catch, NA, 999, 999, 7, 15, 90, 105, 164, 91, 120, 195, 3, 1.0733
265, 3, bw, catch, NA, 999, 999, 7, 15, 90, 105, 164, 91, 120, 195, 1, 1.06083
265, 3, bw, attraction, a-b-db, 2, 3, 7, 16, 120, 195, 195, 120, 119, 193, 1, 0.695881
265, 3, bw, attraction, a-b-db, 2, 3, 7, 16, 120, 195, 195, 120, 119, 193, 2, 0.282904
265, 3, bw, attraction, a-b-db, 5, 2, 7, 17, 88, 161, 90, 165, 165, 90, 1, 0.485371
265, 3, bw, attraction, a-b-db, 5, 2, 7, 17, 88, 161, 90, 165, 165, 90, 2, 0.321346
265, 3, bw, attraction, a-b-db, 5, 3, 7, 18, 117, 190, 195, 120, 120, 195, 1, 0.314291
265, 3, bw, attraction, a-b-db, 5, 3, 7, 18, 117, 190, 195, 120, 120, 195, 2, 0.293085
265, 3, bw, attraction, a-b-da, 14, 3, 7, 19, 195, 120, 120, 195, 181, 111, 1, 0.518727
265, 3, bw, attraction, a-b-da, 14, 3, 7, 19, 195, 120, 120, 195, 181, 111, 2, 0.529301
265, 3, bw, attraction, a-b-db, 14, 1, 7, 20, 56, 125, 135, 60, 60, 135, 1, 0.689719
265, 3, bw, attraction, a-b-db, 14, 1, 7, 20, 56, 125, 135, 60, 60, 135, 2, 0.420709
265, 3, bw, attraction, a-b-da, 14, 1, 7, 21, 60, 135, 125, 56, 135, 60, 1, 0.465861
265, 3, bw, attraction, a-b-da, 14, 1, 7, 21, 60, 135, 125, 56, 135, 60, 2, 0.694423
265, 3, bw, filler, NA, 999, 999, 7, 22, 74, 62, 192, 181, 107, 188, 2, 0.976194
265, 3, bw, filler, NA, 999, 999, 7, 22, 74, 62, 192, 181, 107, 188, 1, 0.663862
265, 3, bw, attraction, a-b-db, 9, 2, 7, 23, 86, 157, 165, 90, 90, 165, 1, 0.586784
265, 3, bw, attraction, a-b-db, 9, 2, 7, 23, 86, 157, 165, 90, 90, 165, 2, 0.522613
265, 3, bw, attraction, a-b-da, 5, 3, 7, 24, 120, 195, 190, 117, 195, 120, 1, 0.803911
265, 3, bw, attraction, a-b-da, 5, 3, 7, 24, 120, 195, 190, 117, 195, 120, 2, 0.70695
265, 3, bw, filler, NA, 999, 999, 7, 25, 195, 132, 61, 57, 113, 87, 1, 0.395849
265, 3, bw, filler, NA, 999, 999, 7, 25, 195, 132, 61, 57, 113, 87, 2, 0.96321
265, 3, bw, filler, NA, 999, 999, 7, 26, 78, 72, 146, 87, 168, 111, 3, 0.946053
265, 3, bw, filler, NA, 999, 999, 7, 26, 78, 72, 146, 87, 168, 111, 1, 1.13119
265, 3, bw, catch, NA, 999, 999, 7, 27, 178, 137, 90, 165, 68, 127, 1, 1.33127
265, 3, bw, catch, NA, 999, 999, 7, 27, 178, 137, 90, 165, 68, 127, 3, 0.524949
265, 3, bw, attraction, a-b-db, 2, 2, 7, 28, 165, 90, 89, 163, 90, 165, 1, 0.845343
265, 3, bw, attraction, a-b-db, 2, 2, 7, 28, 165, 90, 89, 163, 90, 165, 2, 0.35437
265, 3, bw, filler, NA, 999, 999, 7, 29, 108, 77, 85, 140, 187, 169, 3, 0.570265
265, 3, bw, filler, NA, 999, 999, 7, 29, 108, 77, 85, 140, 187, 169, 1, 0.530766
265, 3, bw, attraction, a-b-db, 9, 3, 7, 30, 120, 195, 195, 120, 114, 186, 1, 0.475142
265, 3, bw, attraction, a-b-db, 9, 3, 7, 30, 120, 195, 195, 120, 114, 186, 2, 0.45504
265, 3, bw, attraction, a-b-da, 2, 2, 7, 31, 165, 90, 163, 89, 90, 165, 1, 0.410769
265, 3, bw, attraction, a-b-da, 2, 2, 7, 31, 165, 90, 163, 89, 90, 165, 2, 0.569279
265, 3, bw, attraction, a-b-da, 5, 2, 7, 32, 90, 165, 161, 88, 165, 90, 1, 0.456251
265, 3, bw, attraction, a-b-da, 5, 2, 7, 32, 90, 165, 161, 88, 165, 90, 2, 0.636918
265, 3, bw, attraction, a-b-da, 9, 1, 7, 33, 129, 57, 135, 60, 60, 135, 1, 0.401163
265, 3, bw, attraction, a-b-da, 9, 1, 7, 33, 129, 57, 135, 60, 60, 135, 2, 0.64056
265, 3, bw, attraction, a-b-db, 5, 1, 7, 34, 58, 132, 135, 60, 60, 135, 1, 0.484091
265, 3, bw, attraction, a-b-db, 5, 1, 7, 34, 58, 132, 135, 60, 60, 135, 2, 0.695932
265, 3, bw, attraction, a-b-db, 14, 2, 7, 35, 90, 165, 165, 90, 83, 153, 1, 1.40176
265, 3, bw, attraction, a-b-db, 14, 2, 7, 35, 90, 165, 165, 90, 83, 153, 2, 0.592599
265, 3, bw, filler, NA, 999, 999, 7, 36, 170, 182, 180, 97, 120, 177, 1, 0.502347
265, 3, bw, filler, NA, 999, 999, 7, 36, 170, 182, 180, 97, 120, 177, 2, 0.625582
265, 3, bw, attraction, a-b-da, 9, 2, 7, 37, 157, 86, 90, 165, 165, 90, 2, 0.701978
265, 3, bw, attraction, a-b-da, 9, 2, 7, 37, 157, 86, 90, 165, 165, 90, 1, 0.465049
265, 3, bw, attraction, a-b-db, 14, 3, 8, 1, 195, 120, 120, 195, 111, 181, 1, 0.916037
265, 3, bw, attraction, a-b-db, 14, 3, 8, 1, 195, 120, 120, 195, 111, 181, 3, 0.926458
265, 3, bw, filler, NA, 999, 999, 8, 2, 142, 159, 58, 137, 152, 98, 1, 1.32693
265, 3, bw, filler, NA, 999, 999, 8, 2, 142, 159, 58, 137, 152, 98, 2, 1.30437
265, 3, bw, attraction, a-b-da, 14, 1, 8, 3, 60, 135, 125, 56, 135, 60, 1, 0.601859
265, 3, bw, attraction, a-b-da, 14, 1, 8, 3, 60, 135, 125, 56, 135, 60, 2, 0.561039
265, 3, bw, attraction, a-b-db, 14, 2, 8, 4, 165, 90, 90, 165, 83, 153, 1, 0.448097
265, 3, bw, attraction, a-b-db, 14, 2, 8, 4, 165, 90, 90, 165, 83, 153, 2, 0.573289
265, 3, bw, attraction, a-b-da, 5, 2, 8, 5, 90, 165, 161, 88, 165, 90, 1, 0.411724
265, 3, bw, attraction, a-b-da, 5, 2, 8, 5, 90, 165, 161, 88, 165, 90, 2, 0.570198
265, 3, bw, attraction, a-b-da, 14, 2, 8, 6, 90, 165, 165, 90, 153, 83, 1, 0.417289
265, 3, bw, attraction, a-b-da, 14, 2, 8, 6, 90, 165, 165, 90, 153, 83, 2, 0.535826
265, 3, bw, attraction, a-b-db, 9, 3, 8, 7, 114, 186, 120, 195, 195, 120, 1, 0.432299
265, 3, bw, attraction, a-b-db, 9, 3, 8, 7, 114, 186, 120, 195, 195, 120, 2, 0.460023
265, 3, bw, attraction, a-b-db, 5, 3, 8, 8, 195, 120, 117, 190, 120, 195, 1, 0.913203
265, 3, bw, attraction, a-b-db, 5, 3, 8, 8, 195, 120, 117, 190, 120, 195, 2, 0.563533
265, 3, bw, attraction, a-b-da, 5, 3, 8, 9, 120, 195, 195, 120, 190, 117, 1, 0.474688
265, 3, bw, attraction, a-b-da, 5, 3, 8, 9, 120, 195, 195, 120, 190, 117, 2, 0.43055
265, 3, bw, attraction, a-b-da, 9, 3, 8, 10, 195, 120, 186, 114, 120, 195, 1, 0.282966
265, 3, bw, attraction, a-b-da, 9, 3, 8, 10, 195, 120, 186, 114, 120, 195, 2, 0.462924
265, 3, bw, attraction, a-b-da, 9, 1, 8, 11, 129, 57, 60, 135, 135, 60, 1, 0.521972
265, 3, bw, attraction, a-b-da, 9, 1, 8, 11, 129, 57, 60, 135, 135, 60, 2, 0.44379
265, 3, bw, filler, NA, 999, 999, 8, 12, 110, 172, 172, 139, 153, 104, 2, 1.09573
265, 3, bw, filler, NA, 999, 999, 8, 12, 110, 172, 172, 139, 153, 104, 3, 1.60274
265, 3, bw, filler, NA, 999, 999, 8, 13, 176, 72, 63, 149, 189, 193, 1, 0.575958
265, 3, bw, filler, NA, 999, 999, 8, 13, 176, 72, 63, 149, 189, 193, 3, 2.1119
265, 3, bw, filler, NA, 999, 999, 8, 14, 118, 113, 146, 124, 122, 102, 2, 1.07258
265, 3, bw, filler, NA, 999, 999, 8, 14, 118, 113, 146, 124, 122, 102, 3, 0.58016
265, 3, bw, filler, NA, 999, 999, 8, 15, 58, 173, 74, 194, 179, 160, 3, 0.634471
265, 3, bw, filler, NA, 999, 999, 8, 15, 58, 173, 74, 194, 179, 160, 1, 0.536293
265, 3, bw, filler, NA, 999, 999, 8, 16, 67, 134, 118, 105, 140, 111, 3, 2.39278
265, 3, bw, filler, NA, 999, 999, 8, 16, 67, 134, 118, 105, 140, 111, 1, 0.383304
265, 3, bw, attraction, a-b-db, 5, 2, 8, 17, 88, 161, 165, 90, 90, 165, 3, 1.03773
265, 3, bw, attraction, a-b-db, 5, 2, 8, 17, 88, 161, 165, 90, 90, 165, 2, 0.667396
265, 3, bw, filler, NA, 999, 999, 8, 18, 125, 143, 88, 146, 102, 67, 1, 0.526598
265, 3, bw, filler, NA, 999, 999, 8, 18, 125, 143, 88, 146, 102, 67, 3, 0.664353
265, 3, bw, attraction, a-b-da, 14, 3, 8, 19, 181, 111, 120, 195, 195, 120, 2, 0.81146
265, 3, bw, attraction, a-b-da, 14, 3, 8, 19, 181, 111, 120, 195, 195, 120, 1, 0.529657
265, 3, bw, attraction, a-b-db, 2, 3, 8, 20, 120, 195, 119, 193, 195, 120, 2, 1.10615
265, 3, bw, attraction, a-b-db, 2, 3, 8, 20, 120, 195, 119, 193, 195, 120, 1, 0.372425
265, 3, bw, attraction, a-b-da, 2, 2, 8, 21, 90, 165, 163, 89, 165, 90, 1, 0.771596
265, 3, bw, attraction, a-b-da, 2, 2, 8, 21, 90, 165, 163, 89, 165, 90, 2, 0.587353
265, 3, bw, filler, NA, 999, 999, 8, 22, 122, 139, 120, 95, 150, 86, 1, 0.657717
265, 3, bw, filler, NA, 999, 999, 8, 22, 122, 139, 120, 95, 150, 86, 2, 0.662219
265, 3, bw, attraction, a-b-da, 9, 2, 8, 23, 165, 90, 90, 165, 157, 86, 1, 0.481252
265, 3, bw, attraction, a-b-da, 9, 2, 8, 23, 165, 90, 90, 165, 157, 86, 2, 0.70126
265, 3, bw, catch, NA, 999, 999, 8, 24, 126, 69, 136, 179, 99, 156, 2, 1.4548
265, 3, bw, catch, NA, 999, 999, 8, 24, 126, 69, 136, 179, 99, 156, 1, 0.923683
265, 3, bw, attraction, a-b-db, 14, 1, 8, 25, 135, 60, 56, 125, 60, 135, 1, 0.780091
265, 3, bw, attraction, a-b-db, 14, 1, 8, 25, 135, 60, 56, 125, 60, 135, 2, 0.595835
265, 3, bw, attraction, a-b-da, 2, 3, 8, 26, 195, 120, 193, 119, 120, 195, 1, 0.873408
265, 3, bw, attraction, a-b-da, 2, 3, 8, 26, 195, 120, 193, 119, 120, 195, 3, 0.645234
265, 3, bw, attraction, a-b-db, 2, 1, 8, 27, 135, 60, 59, 134, 60, 135, 1, 1.80902
265, 3, bw, attraction, a-b-db, 2, 1, 8, 27, 135, 60, 59, 134, 60, 135, 3, 0.535035
265, 3, bw, attraction, a-b-da, 2, 1, 8, 28, 135, 60, 60, 135, 134, 59, 2, 1.98341
265, 3, bw, attraction, a-b-da, 2, 1, 8, 28, 135, 60, 60, 135, 134, 59, 1, 1.0228
265, 3, bw, attraction, a-b-da, 5, 1, 8, 29, 60, 135, 135, 60, 132, 58, 1, 0.683687
265, 3, bw, attraction, a-b-da, 5, 1, 8, 29, 60, 135, 135, 60, 132, 58, 2, 0.503664
265, 3, bw, catch, NA, 999, 999, 8, 30, 121, 74, 124, 131, 148, 167, 3, 0.873262
265, 3, bw, catch, NA, 999, 999, 8, 30, 121, 74, 124, 131, 148, 167, 1, 0.73296
265, 3, bw, attraction, a-b-db, 5, 1, 8, 31, 60, 135, 58, 132, 135, 60, 1, 1.06128
265, 3, bw, attraction, a-b-db, 5, 1, 8, 31, 60, 135, 58, 132, 135, 60, 2, 0.513666
265, 3, bw, attraction, a-b-db, 9, 1, 8, 32, 60, 135, 135, 60, 57, 129, 1, 0.466911
265, 3, bw, attraction, a-b-db, 9, 1, 8, 32, 60, 135, 135, 60, 57, 129, 2, 0.55933
265, 3, bw, filler, NA, 999, 999, 8, 33, 89, 164, 165, 63, 90, 107, 1, 0.574387
265, 3, bw, filler, NA, 999, 999, 8, 33, 89, 164, 165, 63, 90, 107, 3, 0.902321
265, 3, bw, attraction, a-b-db, 2, 2, 8, 34, 89, 163, 165, 90, 90, 165, 1, 0.583897
265, 3, bw, attraction, a-b-db, 2, 2, 8, 34, 89, 163, 165, 90, 90, 165, 2, 0.919726
265, 3, bw, filler, NA, 999, 999, 8, 35, 75, 193, 98, 122, 93, 127, 1, 1.12076
265, 3, bw, filler, NA, 999, 999, 8, 35, 75, 193, 98, 122, 93, 127, 3, 0.867
265, 3, bw, catch, NA, 999, 999, 8, 36, 170, 145, 135, 60, 129, 126, 1, 1.28592
265, 3, bw, catch, NA, 999, 999, 8, 36, 170, 145, 135, 60, 129, 126, 2, 1.05753
265, 3, bw, attraction, a-b-db, 9, 2, 8, 37, 165, 90, 86, 157, 90, 165, 3, 0.940564
265, 3, bw, attraction, a-b-db, 9, 2, 8, 37, 165, 90, 86, 157, 90, 165, 1, 0.429415
