sub_n, computer_n, bw_cond, effect, set, distance, diag, block_n, trial_n, h1, w1, h2, w2, h3, w3, choice, rt 
259, 3, bw, practice, NA, 999, 999, 0, 1, 96, 64, 177, 156, 126, 176, 2, 3.75138
259, 3, bw, practice, NA, 999, 999, 0, 1, 96, 64, 177, 156, 126, 176, 1, 1.98357
259, 3, bw, practice, NA, 999, 999, 0, 2, 166, 145, 113, 139, 88, 69, 1, 2.73113
259, 3, bw, practice, NA, 999, 999, 0, 2, 166, 145, 113, 139, 88, 69, 3, 1.19519
259, 3, bw, practice, NA, 999, 999, 0, 3, 82, 160, 103, 144, 56, 110, 2, 4.57415
259, 3, bw, practice, NA, 999, 999, 0, 3, 82, 160, 103, 144, 56, 110, 3, 2.14947
259, 3, bw, attraction, a-b-da, 2, 1, 1, 1, 134, 59, 60, 135, 135, 60, 2, 8.14014
259, 3, bw, attraction, a-b-da, 2, 1, 1, 1, 134, 59, 60, 135, 135, 60, 3, 3.38754
259, 3, bw, catch, NA, 999, 999, 1, 2, 83, 112, 145, 110, 122, 193, 3, 3.40092
259, 3, bw, catch, NA, 999, 999, 1, 2, 83, 112, 145, 110, 122, 193, 1, 1.01529
259, 3, bw, attraction, a-b-da, 14, 3, 1, 3, 195, 120, 120, 195, 181, 111, 2, 2.30812
259, 3, bw, attraction, a-b-da, 14, 3, 1, 3, 195, 120, 120, 195, 181, 111, 3, 1.39799
259, 3, bw, filler, NA, 999, 999, 1, 4, 140, 81, 71, 58, 76, 130, 3, 2.72357
259, 3, bw, filler, NA, 999, 999, 1, 4, 140, 81, 71, 58, 76, 130, 2, 1.36464
259, 3, bw, attraction, a-b-db, 9, 2, 1, 5, 86, 157, 90, 165, 165, 90, 2, 2.38751
259, 3, bw, attraction, a-b-db, 9, 2, 1, 5, 86, 157, 90, 165, 165, 90, 3, 5.01074
259, 3, bw, attraction, a-b-da, 5, 1, 1, 6, 135, 60, 60, 135, 132, 58, 2, 6.68638
259, 3, bw, attraction, a-b-da, 5, 1, 1, 6, 135, 60, 60, 135, 132, 58, 3, 2.16836
259, 3, bw, attraction, a-b-da, 14, 1, 1, 7, 125, 56, 60, 135, 135, 60, 2, 1.35091
259, 3, bw, attraction, a-b-da, 14, 1, 1, 7, 125, 56, 60, 135, 135, 60, 1, 1.33578
259, 3, bw, attraction, a-b-da, 9, 1, 1, 8, 129, 57, 135, 60, 60, 135, 3, 2.64803
259, 3, bw, attraction, a-b-da, 9, 1, 1, 8, 129, 57, 135, 60, 60, 135, 1, 1.63645
259, 3, bw, attraction, a-b-da, 9, 3, 1, 9, 120, 195, 186, 114, 195, 120, 1, 3.22464
259, 3, bw, attraction, a-b-da, 9, 3, 1, 9, 120, 195, 186, 114, 195, 120, 2, 4.20557
259, 3, bw, attraction, a-b-da, 9, 2, 1, 10, 157, 86, 165, 90, 90, 165, 3, 3.41039
259, 3, bw, attraction, a-b-da, 9, 2, 1, 10, 157, 86, 165, 90, 90, 165, 1, 0.783738
259, 3, bw, attraction, a-b-db, 5, 1, 1, 11, 135, 60, 60, 135, 58, 132, 2, 2.66208
259, 3, bw, attraction, a-b-db, 5, 1, 1, 11, 135, 60, 60, 135, 58, 132, 3, 1.786
259, 3, bw, attraction, a-b-da, 5, 3, 1, 12, 120, 195, 190, 117, 195, 120, 1, 2.296
259, 3, bw, attraction, a-b-da, 5, 3, 1, 12, 120, 195, 190, 117, 195, 120, 2, 2.4907
259, 3, bw, attraction, a-b-db, 2, 3, 1, 13, 195, 120, 120, 195, 119, 193, 2, 1.41185
259, 3, bw, attraction, a-b-db, 2, 3, 1, 13, 195, 120, 120, 195, 119, 193, 1, 3.38604
259, 3, bw, attraction, a-b-da, 2, 3, 1, 14, 195, 120, 193, 119, 120, 195, 3, 18.7916
259, 3, bw, attraction, a-b-da, 2, 3, 1, 14, 195, 120, 193, 119, 120, 195, 1, 2.52961
259, 3, bw, attraction, a-b-db, 9, 1, 1, 15, 135, 60, 60, 135, 57, 129, 2, 7.65736
259, 3, bw, attraction, a-b-db, 9, 1, 1, 15, 135, 60, 60, 135, 57, 129, 3, 1.10772
259, 3, bw, filler, NA, 999, 999, 1, 16, 110, 137, 118, 174, 111, 190, 3, 1.6205
259, 3, bw, filler, NA, 999, 999, 1, 16, 110, 137, 118, 174, 111, 190, 1, 1.01061
259, 3, bw, attraction, a-b-db, 14, 2, 1, 17, 90, 165, 83, 153, 165, 90, 1, 5.14358
259, 3, bw, attraction, a-b-db, 14, 2, 1, 17, 90, 165, 83, 153, 165, 90, 2, 1.43131
259, 3, bw, filler, NA, 999, 999, 1, 18, 126, 133, 179, 108, 193, 84, 2, 3.21156
259, 3, bw, filler, NA, 999, 999, 1, 18, 126, 133, 179, 108, 193, 84, 1, 5.02523
259, 3, bw, filler, NA, 999, 999, 1, 19, 79, 72, 103, 193, 88, 133, 2, 3.14021
259, 3, bw, filler, NA, 999, 999, 1, 19, 79, 72, 103, 193, 88, 133, 1, 0.684476
259, 3, bw, attraction, a-b-db, 5, 3, 1, 20, 117, 190, 120, 195, 195, 120, 2, 1.77556
259, 3, bw, attraction, a-b-db, 5, 3, 1, 20, 117, 190, 120, 195, 195, 120, 1, 2.75036
259, 3, bw, filler, NA, 999, 999, 1, 21, 188, 87, 106, 166, 127, 84, 2, 3.56534
259, 3, bw, filler, NA, 999, 999, 1, 21, 188, 87, 106, 166, 127, 84, 3, 0.65295
259, 3, bw, attraction, a-b-da, 2, 2, 1, 22, 165, 90, 90, 165, 163, 89, 2, 1.96071
259, 3, bw, attraction, a-b-da, 2, 2, 1, 22, 165, 90, 90, 165, 163, 89, 3, 0.576662
259, 3, bw, attraction, a-b-da, 5, 2, 1, 23, 165, 90, 90, 165, 161, 88, 2, 9.74311
259, 3, bw, attraction, a-b-da, 5, 2, 1, 23, 165, 90, 90, 165, 161, 88, 3, 0.8693
259, 3, bw, attraction, a-b-db, 9, 3, 1, 24, 114, 186, 120, 195, 195, 120, 2, 1.94444
259, 3, bw, attraction, a-b-db, 9, 3, 1, 24, 114, 186, 120, 195, 195, 120, 3, 0.449202
259, 3, bw, attraction, a-b-db, 14, 1, 1, 25, 56, 125, 135, 60, 60, 135, 3, 1.86886
259, 3, bw, attraction, a-b-db, 14, 1, 1, 25, 56, 125, 135, 60, 60, 135, 1, 1.66503
259, 3, bw, attraction, a-b-da, 14, 2, 1, 26, 165, 90, 90, 165, 153, 83, 2, 1.47586
259, 3, bw, attraction, a-b-da, 14, 2, 1, 26, 165, 90, 90, 165, 153, 83, 3, 1.18323
259, 3, bw, catch, NA, 999, 999, 1, 27, 96, 99, 127, 188, 103, 152, 2, 1.26943
259, 3, bw, catch, NA, 999, 999, 1, 27, 96, 99, 127, 188, 103, 152, 1, 0.577716
259, 3, bw, filler, NA, 999, 999, 1, 28, 132, 69, 89, 189, 140, 157, 3, 1.33613
259, 3, bw, filler, NA, 999, 999, 1, 28, 132, 69, 89, 189, 140, 157, 1, 0.945736
259, 3, bw, attraction, a-b-db, 2, 2, 1, 29, 89, 163, 90, 165, 165, 90, 2, 2.12132
259, 3, bw, attraction, a-b-db, 2, 2, 1, 29, 89, 163, 90, 165, 165, 90, 3, 1.12338
259, 3, bw, filler, NA, 999, 999, 1, 30, 95, 174, 60, 135, 71, 68, 1, 0.860131
259, 3, bw, filler, NA, 999, 999, 1, 30, 95, 174, 60, 135, 71, 68, 3, 0.664573
259, 3, bw, attraction, a-b-db, 14, 3, 1, 31, 195, 120, 120, 195, 111, 181, 2, 1.63563
259, 3, bw, attraction, a-b-db, 14, 3, 1, 31, 195, 120, 120, 195, 111, 181, 1, 0.809241
259, 3, bw, filler, NA, 999, 999, 1, 32, 146, 81, 89, 143, 114, 155, 3, 1.35014
259, 3, bw, filler, NA, 999, 999, 1, 32, 146, 81, 89, 143, 114, 155, 1, 0.783105
259, 3, bw, attraction, a-b-db, 2, 1, 1, 33, 59, 134, 135, 60, 60, 135, 3, 3.94144
259, 3, bw, attraction, a-b-db, 2, 1, 1, 33, 59, 134, 135, 60, 60, 135, 1, 4.01349
259, 3, bw, filler, NA, 999, 999, 1, 34, 77, 155, 146, 62, 106, 78, 1, 1.4254
259, 3, bw, filler, NA, 999, 999, 1, 34, 77, 155, 146, 62, 106, 78, 3, 0.998974
259, 3, bw, attraction, a-b-db, 5, 2, 1, 35, 165, 90, 90, 165, 88, 161, 2, 2.98868
259, 3, bw, attraction, a-b-db, 5, 2, 1, 35, 165, 90, 90, 165, 88, 161, 3, 1.21982
259, 3, bw, catch, NA, 999, 999, 1, 36, 155, 160, 113, 82, 102, 153, 1, 0.928582
259, 3, bw, catch, NA, 999, 999, 1, 36, 155, 160, 113, 82, 102, 153, 2, 0.49826
259, 3, bw, filler, NA, 999, 999, 1, 37, 72, 95, 57, 154, 164, 83, 3, 0.716142
259, 3, bw, filler, NA, 999, 999, 1, 37, 72, 95, 57, 154, 164, 83, 1, 1.22241
259, 3, bw, catch, NA, 999, 999, 2, 1, 109, 86, 134, 121, 178, 137, 3, 1.19536
259, 3, bw, catch, NA, 999, 999, 2, 1, 109, 86, 134, 121, 178, 137, 1, 0.586314
259, 3, bw, attraction, a-b-da, 9, 1, 2, 2, 129, 57, 60, 135, 135, 60, 2, 4.48082
259, 3, bw, attraction, a-b-da, 9, 1, 2, 2, 129, 57, 60, 135, 135, 60, 1, 0.499442
259, 3, bw, attraction, a-b-da, 2, 1, 2, 3, 135, 60, 60, 135, 134, 59, 2, 8.76513
259, 3, bw, attraction, a-b-da, 2, 1, 2, 3, 135, 60, 60, 135, 134, 59, 3, 0.60318
259, 3, bw, attraction, a-b-da, 14, 3, 2, 4, 120, 195, 195, 120, 181, 111, 1, 2.00871
259, 3, bw, attraction, a-b-da, 14, 3, 2, 4, 120, 195, 195, 120, 181, 111, 3, 0.614847
259, 3, bw, filler, NA, 999, 999, 2, 5, 188, 182, 70, 191, 140, 68, 1, 2.25991
259, 3, bw, filler, NA, 999, 999, 2, 5, 188, 182, 70, 191, 140, 68, 3, 0.519781
259, 3, bw, attraction, a-b-da, 2, 2, 2, 6, 163, 89, 165, 90, 90, 165, 3, 2.08891
259, 3, bw, attraction, a-b-da, 2, 2, 2, 6, 163, 89, 165, 90, 90, 165, 1, 0.915491
259, 3, bw, attraction, a-b-db, 5, 1, 2, 7, 60, 135, 135, 60, 58, 132, 1, 2.5645
259, 3, bw, attraction, a-b-db, 5, 1, 2, 7, 60, 135, 135, 60, 58, 132, 2, 1.54842
259, 3, bw, attraction, a-b-da, 2, 3, 2, 8, 195, 120, 193, 119, 120, 195, 3, 2.73184
259, 3, bw, attraction, a-b-da, 2, 3, 2, 8, 195, 120, 193, 119, 120, 195, 1, 1.70099
259, 3, bw, attraction, a-b-da, 14, 1, 2, 9, 60, 135, 125, 56, 135, 60, 1, 3.79028
259, 3, bw, attraction, a-b-da, 14, 1, 2, 9, 60, 135, 125, 56, 135, 60, 2, 1.86046
259, 3, bw, attraction, a-b-da, 9, 2, 2, 10, 165, 90, 90, 165, 157, 86, 2, 2.27122
259, 3, bw, attraction, a-b-da, 9, 2, 2, 10, 165, 90, 90, 165, 157, 86, 3, 0.547124
259, 3, bw, attraction, a-b-db, 5, 2, 2, 11, 165, 90, 90, 165, 88, 161, 2, 2.28286
259, 3, bw, attraction, a-b-db, 5, 2, 2, 11, 165, 90, 90, 165, 88, 161, 3, 0.486125
259, 3, bw, attraction, a-b-da, 9, 3, 2, 12, 195, 120, 186, 114, 120, 195, 3, 4.48073
259, 3, bw, attraction, a-b-da, 9, 3, 2, 12, 195, 120, 186, 114, 120, 195, 2, 0.379195
259, 3, bw, attraction, a-b-da, 14, 2, 2, 13, 165, 90, 90, 165, 153, 83, 2, 2.19366
259, 3, bw, attraction, a-b-da, 14, 2, 2, 13, 165, 90, 90, 165, 153, 83, 3, 0.584321
259, 3, bw, filler, NA, 999, 999, 2, 14, 97, 108, 147, 190, 60, 181, 2, 1.02267
259, 3, bw, filler, NA, 999, 999, 2, 14, 97, 108, 147, 190, 60, 181, 1, 1.17247
259, 3, bw, attraction, a-b-db, 14, 1, 2, 15, 135, 60, 60, 135, 56, 125, 1, 9.07533
259, 3, bw, attraction, a-b-db, 14, 1, 2, 15, 135, 60, 60, 135, 56, 125, 3, 0.516549
259, 3, bw, filler, NA, 999, 999, 2, 16, 136, 69, 128, 81, 105, 95, 3, 8.19748
259, 3, bw, filler, NA, 999, 999, 2, 16, 136, 69, 128, 81, 105, 95, 1, 0.642341
259, 3, bw, attraction, a-b-db, 2, 3, 2, 17, 195, 120, 120, 195, 119, 193, 2, 2.74207
259, 3, bw, attraction, a-b-db, 2, 3, 2, 17, 195, 120, 120, 195, 119, 193, 1, 2.45459
259, 3, bw, attraction, a-b-da, 5, 3, 2, 18, 190, 117, 120, 195, 195, 120, 2, 2.56962
259, 3, bw, attraction, a-b-da, 5, 3, 2, 18, 190, 117, 120, 195, 195, 120, 1, 0.521523
259, 3, bw, filler, NA, 999, 999, 2, 19, 118, 96, 113, 166, 144, 70, 2, 1.59454
259, 3, bw, filler, NA, 999, 999, 2, 19, 118, 96, 113, 166, 144, 70, 3, 0.857403
259, 3, bw, catch, NA, 999, 999, 2, 20, 120, 75, 128, 127, 121, 194, 3, 4.37238
259, 3, bw, catch, NA, 999, 999, 2, 20, 120, 75, 128, 127, 121, 194, 1, 0.539578
259, 3, bw, attraction, a-b-da, 5, 2, 2, 21, 165, 90, 161, 88, 90, 165, 3, 1.74807
259, 3, bw, attraction, a-b-da, 5, 2, 2, 21, 165, 90, 161, 88, 90, 165, 2, 0.644868
259, 3, bw, attraction, a-b-db, 9, 2, 2, 22, 90, 165, 86, 157, 165, 90, 1, 1.85662
259, 3, bw, attraction, a-b-db, 9, 2, 2, 22, 90, 165, 86, 157, 165, 90, 3, 0.8047
259, 3, bw, attraction, a-b-db, 2, 2, 2, 23, 89, 163, 90, 165, 165, 90, 2, 3.17834
259, 3, bw, attraction, a-b-db, 2, 2, 2, 23, 89, 163, 90, 165, 165, 90, 1, 0.585338
259, 3, bw, filler, NA, 999, 999, 2, 24, 115, 189, 143, 89, 170, 58, 1, 1.10382
259, 3, bw, filler, NA, 999, 999, 2, 24, 115, 189, 143, 89, 170, 58, 3, 0.698827
259, 3, bw, filler, NA, 999, 999, 2, 25, 101, 166, 64, 135, 171, 143, 3, 0.80446
259, 3, bw, filler, NA, 999, 999, 2, 25, 101, 166, 64, 135, 171, 143, 2, 0.578845
259, 3, bw, catch, NA, 999, 999, 2, 26, 162, 153, 109, 146, 91, 104, 1, 0.745293
259, 3, bw, catch, NA, 999, 999, 2, 26, 162, 153, 109, 146, 91, 104, 3, 0.59433
259, 3, bw, attraction, a-b-db, 2, 1, 2, 27, 59, 134, 135, 60, 60, 135, 3, 2.29614
259, 3, bw, attraction, a-b-db, 2, 1, 2, 27, 59, 134, 135, 60, 60, 135, 2, 0.770645
259, 3, bw, filler, NA, 999, 999, 2, 28, 89, 101, 195, 87, 132, 111, 2, 2.51385
259, 3, bw, filler, NA, 999, 999, 2, 28, 89, 101, 195, 87, 132, 111, 1, 0.803479
259, 3, bw, attraction, a-b-db, 5, 3, 2, 29, 120, 195, 117, 190, 195, 120, 2, 5.59317
259, 3, bw, attraction, a-b-db, 5, 3, 2, 29, 120, 195, 117, 190, 195, 120, 3, 0.670909
259, 3, bw, attraction, a-b-db, 9, 3, 2, 30, 120, 195, 195, 120, 114, 186, 1, 7.42583
259, 3, bw, attraction, a-b-db, 9, 3, 2, 30, 120, 195, 195, 120, 114, 186, 3, 5.49358
259, 3, bw, attraction, a-b-db, 9, 1, 2, 31, 57, 129, 60, 135, 135, 60, 3, 5.62987
259, 3, bw, attraction, a-b-db, 9, 1, 2, 31, 57, 129, 60, 135, 135, 60, 1, 2.96199
259, 3, bw, attraction, a-b-da, 5, 1, 2, 32, 132, 58, 135, 60, 60, 135, 3, 1.7923
259, 3, bw, attraction, a-b-da, 5, 1, 2, 32, 132, 58, 135, 60, 60, 135, 2, 2.48704
259, 3, bw, attraction, a-b-db, 14, 3, 2, 33, 120, 195, 111, 181, 195, 120, 1, 2.60086
259, 3, bw, attraction, a-b-db, 14, 3, 2, 33, 120, 195, 111, 181, 195, 120, 2, 2.80735
259, 3, bw, filler, NA, 999, 999, 2, 34, 176, 118, 90, 192, 119, 144, 1, 17.2039
259, 3, bw, filler, NA, 999, 999, 2, 34, 176, 118, 90, 192, 119, 144, 3, 1.82173
259, 3, bw, filler, NA, 999, 999, 2, 35, 140, 82, 149, 100, 71, 158, 2, 1.1624
259, 3, bw, filler, NA, 999, 999, 2, 35, 140, 82, 149, 100, 71, 158, 1, 0.922709
259, 3, bw, attraction, a-b-db, 14, 2, 2, 36, 165, 90, 90, 165, 83, 153, 2, 5.77976
259, 3, bw, attraction, a-b-db, 14, 2, 2, 36, 165, 90, 90, 165, 83, 153, 3, 0.433781
259, 3, bw, filler, NA, 999, 999, 2, 37, 160, 121, 56, 70, 127, 99, 1, 1.44625
259, 3, bw, filler, NA, 999, 999, 2, 37, 160, 121, 56, 70, 127, 99, 2, 0.547131
259, 3, bw, filler, NA, 999, 999, 3, 1, 192, 113, 141, 170, 62, 106, 2, 1.08292
259, 3, bw, filler, NA, 999, 999, 3, 1, 192, 113, 141, 170, 62, 106, 3, 0.486502
259, 3, bw, attraction, a-b-db, 9, 1, 3, 2, 57, 129, 135, 60, 60, 135, 3, 4.26515
259, 3, bw, attraction, a-b-db, 9, 1, 3, 2, 57, 129, 135, 60, 60, 135, 2, 0.868362
259, 3, bw, attraction, a-b-db, 5, 2, 3, 3, 90, 165, 165, 90, 88, 161, 3, 8.79932
259, 3, bw, attraction, a-b-db, 5, 2, 3, 3, 90, 165, 165, 90, 88, 161, 2, 0.579922
259, 3, bw, attraction, a-b-db, 14, 2, 3, 4, 83, 153, 90, 165, 165, 90, 2, 2.59436
259, 3, bw, attraction, a-b-db, 14, 2, 3, 4, 83, 153, 90, 165, 165, 90, 1, 1.58491
259, 3, bw, attraction, a-b-da, 5, 3, 3, 5, 120, 195, 190, 117, 195, 120, 1, 3.23095
259, 3, bw, attraction, a-b-da, 5, 3, 3, 5, 120, 195, 190, 117, 195, 120, 3, 3.61988
259, 3, bw, attraction, a-b-db, 14, 1, 3, 6, 56, 125, 60, 135, 135, 60, 2, 2.06416
259, 3, bw, attraction, a-b-db, 14, 1, 3, 6, 56, 125, 60, 135, 135, 60, 3, 1.16404
259, 3, bw, filler, NA, 999, 999, 3, 7, 111, 85, 179, 178, 146, 92, 2, 0.650993
259, 3, bw, filler, NA, 999, 999, 3, 7, 111, 85, 179, 178, 146, 92, 1, 0.728015
259, 3, bw, attraction, a-b-db, 2, 3, 3, 8, 120, 195, 119, 193, 195, 120, 2, 2.12851
259, 3, bw, attraction, a-b-db, 2, 3, 3, 8, 120, 195, 119, 193, 195, 120, 3, 0.481836
259, 3, bw, attraction, a-b-da, 2, 2, 3, 9, 163, 89, 165, 90, 90, 165, 3, 3.63623
259, 3, bw, attraction, a-b-da, 2, 2, 3, 9, 163, 89, 165, 90, 90, 165, 1, 0.481187
259, 3, bw, catch, NA, 999, 999, 3, 10, 70, 125, 103, 152, 168, 147, 3, 1.53156
259, 3, bw, catch, NA, 999, 999, 3, 10, 70, 125, 103, 152, 168, 147, 1, 0.388888
259, 3, bw, attraction, a-b-da, 2, 3, 3, 11, 193, 119, 195, 120, 120, 195, 3, 6.20371
259, 3, bw, attraction, a-b-da, 2, 3, 3, 11, 193, 119, 195, 120, 120, 195, 1, 2.5688
259, 3, bw, attraction, a-b-db, 5, 1, 3, 12, 135, 60, 60, 135, 58, 132, 2, 7.51147
259, 3, bw, attraction, a-b-db, 5, 1, 3, 12, 135, 60, 60, 135, 58, 132, 3, 0.807652
259, 3, bw, attraction, a-b-da, 9, 1, 3, 13, 135, 60, 60, 135, 129, 57, 2, 3.62071
259, 3, bw, attraction, a-b-da, 9, 1, 3, 13, 135, 60, 60, 135, 129, 57, 3, 0.722263
259, 3, bw, filler, NA, 999, 999, 3, 14, 143, 56, 125, 184, 142, 98, 2, 0.755203
259, 3, bw, filler, NA, 999, 999, 3, 14, 143, 56, 125, 184, 142, 98, 1, 0.411624
259, 3, bw, attraction, a-b-da, 2, 1, 3, 15, 134, 59, 135, 60, 60, 135, 3, 5.00075
259, 3, bw, attraction, a-b-da, 2, 1, 3, 15, 134, 59, 135, 60, 60, 135, 1, 0.582469
259, 3, bw, filler, NA, 999, 999, 3, 16, 57, 145, 129, 155, 140, 93, 2, 0.741007
259, 3, bw, filler, NA, 999, 999, 3, 16, 57, 145, 129, 155, 140, 93, 1, 0.677928
259, 3, bw, attraction, a-b-db, 9, 2, 3, 17, 90, 165, 86, 157, 165, 90, 1, 3.33633
259, 3, bw, attraction, a-b-db, 9, 2, 3, 17, 90, 165, 86, 157, 165, 90, 2, 1.26533
259, 3, bw, catch, NA, 999, 999, 3, 18, 143, 172, 107, 148, 122, 73, 1, 0.852126
259, 3, bw, catch, NA, 999, 999, 3, 18, 143, 172, 107, 148, 122, 73, 3, 0.881249
259, 3, bw, filler, NA, 999, 999, 3, 19, 175, 137, 60, 181, 131, 155, 1, 1.82752
259, 3, bw, filler, NA, 999, 999, 3, 19, 175, 137, 60, 181, 131, 155, 2, 2.20104
259, 3, bw, attraction, a-b-da, 14, 1, 3, 20, 125, 56, 135, 60, 60, 135, 3, 5.67026
259, 3, bw, attraction, a-b-da, 14, 1, 3, 20, 125, 56, 135, 60, 60, 135, 1, 0.377209
259, 3, bw, attraction, a-b-db, 9, 3, 3, 21, 114, 186, 120, 195, 195, 120, 2, 1.11959
259, 3, bw, attraction, a-b-db, 9, 3, 3, 21, 114, 186, 120, 195, 195, 120, 3, 1.18595
259, 3, bw, filler, NA, 999, 999, 3, 22, 97, 154, 166, 189, 65, 92, 2, 0.952193
259, 3, bw, filler, NA, 999, 999, 3, 22, 97, 154, 166, 189, 65, 92, 3, 0.49707
259, 3, bw, attraction, a-b-db, 2, 1, 3, 23, 59, 134, 60, 135, 135, 60, 3, 4.92297
259, 3, bw, attraction, a-b-db, 2, 1, 3, 23, 59, 134, 60, 135, 135, 60, 1, 0.355342
259, 3, bw, attraction, a-b-db, 2, 2, 3, 24, 90, 165, 89, 163, 165, 90, 2, 9.52318
259, 3, bw, attraction, a-b-db, 2, 2, 3, 24, 90, 165, 89, 163, 165, 90, 1, 0.914848
259, 3, bw, attraction, a-b-da, 5, 1, 3, 25, 60, 135, 132, 58, 135, 60, 1, 6.57991
259, 3, bw, attraction, a-b-da, 5, 1, 3, 25, 60, 135, 132, 58, 135, 60, 2, 0.569771
259, 3, bw, attraction, a-b-db, 14, 3, 3, 26, 195, 120, 111, 181, 120, 195, 3, 3.20883
259, 3, bw, attraction, a-b-db, 14, 3, 3, 26, 195, 120, 111, 181, 120, 195, 2, 0.6705
259, 3, bw, attraction, a-b-da, 9, 3, 3, 27, 120, 195, 195, 120, 186, 114, 1, 3.9375
259, 3, bw, attraction, a-b-da, 9, 3, 3, 27, 120, 195, 195, 120, 186, 114, 3, 0.586327
259, 3, bw, filler, NA, 999, 999, 3, 28, 181, 139, 148, 64, 66, 60, 1, 1.12876
259, 3, bw, filler, NA, 999, 999, 3, 28, 181, 139, 148, 64, 66, 60, 3, 0.43438
259, 3, bw, attraction, a-b-da, 14, 2, 3, 29, 153, 83, 165, 90, 90, 165, 3, 2.71089
259, 3, bw, attraction, a-b-da, 14, 2, 3, 29, 153, 83, 165, 90, 90, 165, 2, 0.400669
259, 3, bw, filler, NA, 999, 999, 3, 30, 98, 146, 188, 157, 73, 129, 2, 2.43044
259, 3, bw, filler, NA, 999, 999, 3, 30, 98, 146, 188, 157, 73, 129, 3, 0.379698
259, 3, bw, attraction, a-b-db, 5, 3, 3, 31, 195, 120, 120, 195, 117, 190, 2, 5.69809
259, 3, bw, attraction, a-b-db, 5, 3, 3, 31, 195, 120, 120, 195, 117, 190, 3, 0.675805
259, 3, bw, attraction, a-b-da, 9, 2, 3, 32, 165, 90, 90, 165, 157, 86, 2, 4.15814
259, 3, bw, attraction, a-b-da, 9, 2, 3, 32, 165, 90, 90, 165, 157, 86, 3, 1.13345
259, 3, bw, attraction, a-b-da, 14, 3, 3, 33, 120, 195, 181, 111, 195, 120, 1, 1.84566
259, 3, bw, attraction, a-b-da, 14, 3, 3, 33, 120, 195, 181, 111, 195, 120, 2, 0.682412
259, 3, bw, filler, NA, 999, 999, 3, 34, 174, 119, 60, 107, 128, 116, 1, 0.924934
259, 3, bw, filler, NA, 999, 999, 3, 34, 174, 119, 60, 107, 128, 116, 2, 0.470383
259, 3, bw, filler, NA, 999, 999, 3, 35, 68, 58, 178, 157, 82, 100, 2, 0.977559
259, 3, bw, filler, NA, 999, 999, 3, 35, 68, 58, 178, 157, 82, 100, 1, 0.569214
259, 3, bw, catch, NA, 999, 999, 3, 36, 145, 110, 131, 64, 172, 143, 3, 0.69632
259, 3, bw, catch, NA, 999, 999, 3, 36, 145, 110, 131, 64, 172, 143, 2, 0.46743
259, 3, bw, attraction, a-b-da, 5, 2, 3, 37, 165, 90, 90, 165, 161, 88, 2, 4.07052
259, 3, bw, attraction, a-b-da, 5, 2, 3, 37, 165, 90, 90, 165, 161, 88, 3, 1.80207
259, 3, bw, filler, NA, 999, 999, 4, 1, 189, 130, 127, 144, 124, 124, 1, 0.93525
259, 3, bw, filler, NA, 999, 999, 4, 1, 189, 130, 127, 144, 124, 124, 3, 1.18507
259, 3, bw, attraction, a-b-db, 9, 2, 4, 2, 90, 165, 86, 157, 165, 90, 1, 5.53519
259, 3, bw, attraction, a-b-db, 9, 2, 4, 2, 90, 165, 86, 157, 165, 90, 2, 1.99147
259, 3, bw, attraction, a-b-da, 2, 3, 4, 3, 120, 195, 195, 120, 193, 119, 2, 3.26885
259, 3, bw, attraction, a-b-da, 2, 3, 4, 3, 120, 195, 195, 120, 193, 119, 3, 0.424463
259, 3, bw, filler, NA, 999, 999, 4, 4, 120, 88, 78, 89, 184, 120, 3, 0.876871
259, 3, bw, filler, NA, 999, 999, 4, 4, 120, 88, 78, 89, 184, 120, 2, 0.480647
259, 3, bw, attraction, a-b-db, 5, 2, 4, 5, 90, 165, 165, 90, 88, 161, 3, 7.86711
259, 3, bw, attraction, a-b-db, 5, 2, 4, 5, 90, 165, 165, 90, 88, 161, 1, 0.89324
259, 3, bw, catch, NA, 999, 999, 4, 6, 153, 162, 149, 106, 107, 88, 1, 0.886888
259, 3, bw, catch, NA, 999, 999, 4, 6, 153, 162, 149, 106, 107, 88, 3, 0.370621
259, 3, bw, attraction, a-b-da, 14, 2, 4, 7, 153, 83, 165, 90, 90, 165, 3, 3.04176
259, 3, bw, attraction, a-b-da, 14, 2, 4, 7, 153, 83, 165, 90, 90, 165, 1, 0.574198
259, 3, bw, attraction, a-b-da, 2, 2, 4, 8, 165, 90, 163, 89, 90, 165, 3, 2.96467
259, 3, bw, attraction, a-b-da, 2, 2, 4, 8, 165, 90, 163, 89, 90, 165, 1, 0.580198
259, 3, bw, attraction, a-b-da, 2, 1, 4, 9, 135, 60, 134, 59, 60, 135, 3, 3.47471
259, 3, bw, attraction, a-b-da, 2, 1, 4, 9, 135, 60, 134, 59, 60, 135, 2, 0.525766
259, 3, bw, attraction, a-b-db, 9, 3, 4, 10, 114, 186, 120, 195, 195, 120, 2, 3.49396
259, 3, bw, attraction, a-b-db, 9, 3, 4, 10, 114, 186, 120, 195, 195, 120, 3, 0.360191
259, 3, bw, filler, NA, 999, 999, 4, 11, 89, 83, 78, 127, 174, 94, 3, 0.863353
259, 3, bw, filler, NA, 999, 999, 4, 11, 89, 83, 78, 127, 174, 94, 1, 0.627803
259, 3, bw, filler, NA, 999, 999, 4, 12, 72, 121, 93, 147, 134, 95, 2, 1.25623
259, 3, bw, filler, NA, 999, 999, 4, 12, 72, 121, 93, 147, 134, 95, 1, 0.636519
259, 3, bw, filler, NA, 999, 999, 4, 13, 165, 73, 77, 109, 97, 189, 3, 2.48888
259, 3, bw, filler, NA, 999, 999, 4, 13, 165, 73, 77, 109, 97, 189, 2, 0.515274
259, 3, bw, attraction, a-b-da, 9, 3, 4, 14, 195, 120, 186, 114, 120, 195, 3, 4.90848
259, 3, bw, attraction, a-b-da, 9, 3, 4, 14, 195, 120, 186, 114, 120, 195, 2, 0.685619
259, 3, bw, attraction, a-b-da, 9, 2, 4, 15, 90, 165, 165, 90, 157, 86, 1, 1.37605
259, 3, bw, attraction, a-b-da, 9, 2, 4, 15, 90, 165, 165, 90, 157, 86, 2, 0.847543
259, 3, bw, filler, NA, 999, 999, 4, 16, 159, 156, 86, 102, 149, 117, 1, 1.11517
259, 3, bw, filler, NA, 999, 999, 4, 16, 159, 156, 86, 102, 149, 117, 2, 0.381463
259, 3, bw, attraction, a-b-db, 9, 1, 4, 17, 135, 60, 57, 129, 60, 135, 2, 6.8119
259, 3, bw, attraction, a-b-db, 9, 1, 4, 17, 135, 60, 57, 129, 60, 135, 1, 0.280492
259, 3, bw, attraction, a-b-da, 14, 1, 4, 18, 60, 135, 135, 60, 125, 56, 1, 1.43501
259, 3, bw, attraction, a-b-da, 14, 1, 4, 18, 60, 135, 135, 60, 125, 56, 3, 0.587877
259, 3, bw, attraction, a-b-da, 14, 3, 4, 19, 195, 120, 120, 195, 181, 111, 2, 2.183
259, 3, bw, attraction, a-b-da, 14, 3, 4, 19, 195, 120, 120, 195, 181, 111, 3, 0.534265
259, 3, bw, attraction, a-b-db, 14, 3, 4, 20, 195, 120, 120, 195, 111, 181, 2, 4.59082
259, 3, bw, attraction, a-b-db, 14, 3, 4, 20, 195, 120, 120, 195, 111, 181, 3, 0.340568
259, 3, bw, filler, NA, 999, 999, 4, 21, 147, 195, 70, 72, 154, 169, 3, 0.70838
259, 3, bw, filler, NA, 999, 999, 4, 21, 147, 195, 70, 72, 154, 169, 2, 1.99084
259, 3, bw, attraction, a-b-da, 5, 1, 4, 22, 60, 135, 132, 58, 135, 60, 3, 7.49213
259, 3, bw, attraction, a-b-da, 5, 1, 4, 22, 60, 135, 132, 58, 135, 60, 2, 0.645089
259, 3, bw, catch, NA, 999, 999, 4, 23, 136, 179, 151, 104, 69, 126, 1, 1.07292
259, 3, bw, catch, NA, 999, 999, 4, 23, 136, 179, 151, 104, 69, 126, 3, 0.492589
259, 3, bw, filler, NA, 999, 999, 4, 24, 141, 117, 142, 151, 85, 85, 2, 0.854401
259, 3, bw, filler, NA, 999, 999, 4, 24, 141, 117, 142, 151, 85, 85, 3, 0.467293
259, 3, bw, attraction, a-b-da, 9, 1, 4, 25, 60, 135, 135, 60, 129, 57, 1, 1.42248
259, 3, bw, attraction, a-b-da, 9, 1, 4, 25, 60, 135, 135, 60, 129, 57, 3, 0.428017
259, 3, bw, filler, NA, 999, 999, 4, 26, 93, 71, 76, 181, 87, 68, 2, 1.89647
259, 3, bw, filler, NA, 999, 999, 4, 26, 93, 71, 76, 181, 87, 68, 3, 0.507219
259, 3, bw, attraction, a-b-db, 2, 1, 4, 27, 59, 134, 60, 135, 135, 60, 1, 5.6603
259, 3, bw, attraction, a-b-db, 2, 1, 4, 27, 59, 134, 60, 135, 135, 60, 3, 1.1032
259, 3, bw, attraction, a-b-db, 14, 1, 4, 28, 60, 135, 56, 125, 135, 60, 3, 2.76875
259, 3, bw, attraction, a-b-db, 14, 1, 4, 28, 60, 135, 56, 125, 135, 60, 2, 0.344515
259, 3, bw, catch, NA, 999, 999, 4, 29, 99, 96, 123, 132, 124, 191, 3, 0.728374
259, 3, bw, catch, NA, 999, 999, 4, 29, 99, 96, 123, 132, 124, 191, 1, 0.418051
259, 3, bw, attraction, a-b-da, 5, 3, 4, 30, 195, 120, 190, 117, 120, 195, 3, 7.02329
259, 3, bw, attraction, a-b-da, 5, 3, 4, 30, 195, 120, 190, 117, 120, 195, 2, 0.363011
259, 3, bw, attraction, a-b-db, 5, 3, 4, 31, 117, 190, 120, 195, 195, 120, 2, 1.29814
259, 3, bw, attraction, a-b-db, 5, 3, 4, 31, 117, 190, 120, 195, 195, 120, 3, 0.709124
259, 3, bw, attraction, a-b-db, 2, 2, 4, 32, 165, 90, 89, 163, 90, 165, 2, 1.55809
259, 3, bw, attraction, a-b-db, 2, 2, 4, 32, 165, 90, 89, 163, 90, 165, 1, 0.534339
259, 3, bw, attraction, a-b-db, 5, 1, 4, 33, 60, 135, 135, 60, 58, 132, 3, 11.2708
259, 3, bw, attraction, a-b-db, 5, 1, 4, 33, 60, 135, 135, 60, 58, 132, 2, 0.495876
259, 3, bw, filler, NA, 999, 999, 4, 34, 105, 160, 123, 67, 59, 112, 1, 0.729656
259, 3, bw, filler, NA, 999, 999, 4, 34, 105, 160, 123, 67, 59, 112, 3, 0.37935
259, 3, bw, attraction, a-b-db, 2, 3, 4, 35, 195, 120, 119, 193, 120, 195, 3, 1.38586
259, 3, bw, attraction, a-b-db, 2, 3, 4, 35, 195, 120, 119, 193, 120, 195, 1, 0.393433
259, 3, bw, attraction, a-b-db, 14, 2, 4, 36, 90, 165, 165, 90, 83, 153, 1, 3.11924
259, 3, bw, attraction, a-b-db, 14, 2, 4, 36, 90, 165, 165, 90, 83, 153, 3, 0.464839
259, 3, bw, attraction, a-b-da, 5, 2, 4, 37, 165, 90, 90, 165, 161, 88, 2, 5.57205
259, 3, bw, attraction, a-b-da, 5, 2, 4, 37, 165, 90, 90, 165, 161, 88, 3, 0.52293
259, 3, bw, filler, NA, 999, 999, 5, 1, 145, 108, 83, 76, 92, 103, 1, 2.97797
259, 3, bw, filler, NA, 999, 999, 5, 1, 145, 108, 83, 76, 92, 103, 2, 0.640946
259, 3, bw, filler, NA, 999, 999, 5, 2, 122, 64, 163, 155, 128, 130, 2, 0.844738
259, 3, bw, filler, NA, 999, 999, 5, 2, 122, 64, 163, 155, 128, 130, 1, 0.441906
259, 3, bw, filler, NA, 999, 999, 5, 3, 114, 131, 193, 137, 129, 143, 2, 0.765782
259, 3, bw, filler, NA, 999, 999, 5, 3, 114, 131, 193, 137, 129, 143, 1, 0.438081
259, 3, bw, attraction, a-b-db, 5, 1, 5, 4, 60, 135, 135, 60, 58, 132, 1, 2.52248
259, 3, bw, attraction, a-b-db, 5, 1, 5, 4, 60, 135, 135, 60, 58, 132, 2, 1.46769
259, 3, bw, attraction, a-b-da, 2, 2, 5, 5, 163, 89, 90, 165, 165, 90, 2, 3.22271
259, 3, bw, attraction, a-b-da, 2, 2, 5, 5, 163, 89, 90, 165, 165, 90, 1, 2.04341
259, 3, bw, filler, NA, 999, 999, 5, 6, 114, 190, 57, 150, 168, 69, 1, 0.75873
259, 3, bw, filler, NA, 999, 999, 5, 6, 114, 190, 57, 150, 168, 69, 2, 0.663159
259, 3, bw, attraction, a-b-da, 5, 1, 5, 7, 132, 58, 60, 135, 135, 60, 2, 1.49831
259, 3, bw, attraction, a-b-da, 5, 1, 5, 7, 132, 58, 60, 135, 135, 60, 1, 0.605013
259, 3, bw, attraction, a-b-da, 9, 1, 5, 8, 129, 57, 60, 135, 135, 60, 2, 4.93879
259, 3, bw, attraction, a-b-da, 9, 1, 5, 8, 129, 57, 60, 135, 135, 60, 1, 0.587265
259, 3, bw, attraction, a-b-db, 5, 2, 5, 9, 90, 165, 165, 90, 88, 161, 3, 1.49769
259, 3, bw, attraction, a-b-db, 5, 2, 5, 9, 90, 165, 165, 90, 88, 161, 2, 1.93256
259, 3, bw, filler, NA, 999, 999, 5, 10, 83, 70, 167, 182, 70, 90, 2, 0.708571
259, 3, bw, filler, NA, 999, 999, 5, 10, 83, 70, 167, 182, 70, 90, 1, 1.68699
259, 3, bw, attraction, a-b-db, 9, 2, 5, 11, 90, 165, 165, 90, 86, 157, 1, 3.609
259, 3, bw, attraction, a-b-db, 9, 2, 5, 11, 90, 165, 165, 90, 86, 157, 2, 0.990685
259, 3, bw, filler, NA, 999, 999, 5, 12, 146, 161, 192, 158, 165, 59, 2, 0.788156
259, 3, bw, filler, NA, 999, 999, 5, 12, 146, 161, 192, 158, 165, 59, 3, 0.451247
259, 3, bw, catch, NA, 999, 999, 5, 13, 114, 141, 150, 165, 97, 98, 2, 0.903106
259, 3, bw, catch, NA, 999, 999, 5, 13, 114, 141, 150, 165, 97, 98, 3, 0.369985
259, 3, bw, attraction, a-b-db, 9, 3, 5, 14, 114, 186, 120, 195, 195, 120, 2, 1.70511
259, 3, bw, attraction, a-b-db, 9, 3, 5, 14, 114, 186, 120, 195, 195, 120, 1, 0.707408
259, 3, bw, filler, NA, 999, 999, 5, 15, 89, 176, 160, 101, 71, 87, 1, 2.34831
259, 3, bw, filler, NA, 999, 999, 5, 15, 89, 176, 160, 101, 71, 87, 3, 0.564903
259, 3, bw, attraction, a-b-db, 2, 1, 5, 16, 59, 134, 135, 60, 60, 135, 3, 1.25209
259, 3, bw, attraction, a-b-db, 2, 1, 5, 16, 59, 134, 135, 60, 60, 135, 2, 0.496976
259, 3, bw, attraction, a-b-db, 2, 3, 5, 17, 119, 193, 120, 195, 195, 120, 2, 1.2668
259, 3, bw, attraction, a-b-db, 2, 3, 5, 17, 119, 193, 120, 195, 195, 120, 3, 0.534905
259, 3, bw, attraction, a-b-da, 9, 3, 5, 18, 186, 114, 120, 195, 195, 120, 2, 1.60748
259, 3, bw, attraction, a-b-da, 9, 3, 5, 18, 186, 114, 120, 195, 195, 120, 1, 0.381485
259, 3, bw, attraction, a-b-da, 9, 2, 5, 19, 90, 165, 165, 90, 157, 86, 1, 3.30811
259, 3, bw, attraction, a-b-da, 9, 2, 5, 19, 90, 165, 165, 90, 157, 86, 2, 2.78165
259, 3, bw, attraction, a-b-db, 14, 3, 5, 20, 120, 195, 111, 181, 195, 120, 2, 1.9635
259, 3, bw, attraction, a-b-db, 14, 3, 5, 20, 120, 195, 111, 181, 195, 120, 3, 0.635431
259, 3, bw, filler, NA, 999, 999, 5, 21, 151, 123, 167, 145, 79, 167, 2, 0.871968
259, 3, bw, filler, NA, 999, 999, 5, 21, 151, 123, 167, 145, 79, 167, 3, 0.483466
259, 3, bw, attraction, a-b-db, 14, 2, 5, 22, 90, 165, 83, 153, 165, 90, 3, 2.18998
259, 3, bw, attraction, a-b-db, 14, 2, 5, 22, 90, 165, 83, 153, 165, 90, 1, 0.500581
259, 3, bw, attraction, a-b-da, 2, 3, 5, 23, 193, 119, 195, 120, 120, 195, 3, 1.33442
259, 3, bw, attraction, a-b-da, 2, 3, 5, 23, 193, 119, 195, 120, 120, 195, 1, 0.608004
259, 3, bw, attraction, a-b-da, 14, 2, 5, 24, 90, 165, 153, 83, 165, 90, 1, 2.49303
259, 3, bw, attraction, a-b-da, 14, 2, 5, 24, 90, 165, 153, 83, 165, 90, 2, 0.375586
259, 3, bw, attraction, a-b-da, 5, 2, 5, 25, 165, 90, 90, 165, 161, 88, 2, 0.814098
259, 3, bw, attraction, a-b-da, 5, 2, 5, 25, 165, 90, 90, 165, 161, 88, 3, 0.380451
259, 3, bw, catch, NA, 999, 999, 5, 26, 135, 180, 133, 62, 128, 127, 1, 0.906882
259, 3, bw, catch, NA, 999, 999, 5, 26, 135, 180, 133, 62, 128, 127, 2, 0.349271
259, 3, bw, attraction, a-b-da, 14, 1, 5, 27, 60, 135, 125, 56, 135, 60, 3, 2.1331
259, 3, bw, attraction, a-b-da, 14, 1, 5, 27, 60, 135, 125, 56, 135, 60, 2, 0.470551
259, 3, bw, catch, NA, 999, 999, 5, 28, 151, 104, 141, 174, 118, 77, 2, 0.641483
259, 3, bw, catch, NA, 999, 999, 5, 28, 151, 104, 141, 174, 118, 77, 3, 0.390583
259, 3, bw, filler, NA, 999, 999, 5, 29, 140, 193, 82, 71, 80, 93, 1, 0.820383
259, 3, bw, filler, NA, 999, 999, 5, 29, 140, 193, 82, 71, 80, 93, 2, 0.314175
259, 3, bw, attraction, a-b-db, 9, 1, 5, 30, 60, 135, 135, 60, 57, 129, 1, 1.42741
259, 3, bw, attraction, a-b-db, 9, 1, 5, 30, 60, 135, 135, 60, 57, 129, 2, 0.312821
259, 3, bw, filler, NA, 999, 999, 5, 31, 118, 82, 113, 173, 58, 84, 2, 0.586159
259, 3, bw, filler, NA, 999, 999, 5, 31, 118, 82, 113, 173, 58, 84, 3, 0.921923
259, 3, bw, attraction, a-b-db, 14, 1, 5, 32, 60, 135, 56, 125, 135, 60, 1, 1.64341
259, 3, bw, attraction, a-b-db, 14, 1, 5, 32, 60, 135, 56, 125, 135, 60, 2, 0.327559
259, 3, bw, attraction, a-b-da, 2, 1, 5, 33, 60, 135, 135, 60, 134, 59, 2, 1.80809
259, 3, bw, attraction, a-b-da, 2, 1, 5, 33, 60, 135, 135, 60, 134, 59, 1, 0.894161
259, 3, bw, attraction, a-b-da, 14, 3, 5, 34, 195, 120, 120, 195, 181, 111, 2, 1.55193
259, 3, bw, attraction, a-b-da, 14, 3, 5, 34, 195, 120, 120, 195, 181, 111, 3, 0.376638
259, 3, bw, attraction, a-b-db, 5, 3, 5, 35, 120, 195, 117, 190, 195, 120, 2, 3.81508
259, 3, bw, attraction, a-b-db, 5, 3, 5, 35, 120, 195, 117, 190, 195, 120, 1, 0.292644
259, 3, bw, attraction, a-b-db, 2, 2, 5, 36, 165, 90, 90, 165, 89, 163, 2, 4.0545
259, 3, bw, attraction, a-b-db, 2, 2, 5, 36, 165, 90, 90, 165, 89, 163, 3, 0.674519
259, 3, bw, attraction, a-b-da, 5, 3, 5, 37, 195, 120, 120, 195, 190, 117, 2, 1.7732
259, 3, bw, attraction, a-b-da, 5, 3, 5, 37, 195, 120, 120, 195, 190, 117, 3, 0.548351
259, 3, bw, attraction, a-b-db, 2, 1, 6, 1, 135, 60, 60, 135, 59, 134, 2, 1.4441
259, 3, bw, attraction, a-b-db, 2, 1, 6, 1, 135, 60, 60, 135, 59, 134, 1, 0.392889
259, 3, bw, attraction, a-b-da, 9, 1, 6, 2, 135, 60, 129, 57, 60, 135, 3, 1.4788
259, 3, bw, attraction, a-b-da, 9, 1, 6, 2, 135, 60, 129, 57, 60, 135, 2, 0.322334
259, 3, bw, attraction, a-b-db, 14, 2, 6, 3, 83, 153, 165, 90, 90, 165, 3, 0.683383
259, 3, bw, attraction, a-b-db, 14, 2, 6, 3, 83, 153, 165, 90, 90, 165, 1, 0.639227
259, 3, bw, attraction, a-b-db, 14, 3, 6, 4, 120, 195, 195, 120, 111, 181, 1, 1.33976
259, 3, bw, attraction, a-b-db, 14, 3, 6, 4, 120, 195, 195, 120, 111, 181, 2, 0.268555
259, 3, bw, attraction, a-b-db, 2, 2, 6, 5, 89, 163, 165, 90, 90, 165, 3, 1.15169
259, 3, bw, attraction, a-b-db, 2, 2, 6, 5, 89, 163, 165, 90, 90, 165, 2, 0.712796
259, 3, bw, filler, NA, 999, 999, 6, 6, 111, 83, 107, 193, 142, 140, 2, 0.713709
259, 3, bw, filler, NA, 999, 999, 6, 6, 111, 83, 107, 193, 142, 140, 1, 0.492057
259, 3, bw, catch, NA, 999, 999, 6, 7, 128, 67, 155, 100, 177, 138, 3, 1.98199
259, 3, bw, catch, NA, 999, 999, 6, 7, 128, 67, 155, 100, 177, 138, 1, 0.661278
259, 3, bw, catch, NA, 999, 999, 6, 8, 162, 153, 136, 119, 81, 114, 1, 1.10437
259, 3, bw, catch, NA, 999, 999, 6, 8, 162, 153, 136, 119, 81, 114, 3, 0.971393
259, 3, bw, attraction, a-b-db, 5, 2, 6, 9, 88, 161, 90, 165, 165, 90, 2, 1.77839
259, 3, bw, attraction, a-b-db, 5, 2, 6, 9, 88, 161, 90, 165, 165, 90, 1, 0.289694
259, 3, bw, attraction, a-b-da, 2, 1, 6, 10, 60, 135, 135, 60, 134, 59, 1, 2.24421
259, 3, bw, attraction, a-b-da, 2, 1, 6, 10, 60, 135, 135, 60, 134, 59, 3, 0.360863
259, 3, bw, catch, NA, 999, 999, 6, 11, 159, 96, 186, 129, 126, 69, 2, 0.520081
259, 3, bw, catch, NA, 999, 999, 6, 11, 159, 96, 186, 129, 126, 69, 3, 0.514515
259, 3, bw, attraction, a-b-da, 5, 2, 6, 12, 90, 165, 165, 90, 161, 88, 1, 2.26761
259, 3, bw, attraction, a-b-da, 5, 2, 6, 12, 90, 165, 165, 90, 161, 88, 2, 0.607573
259, 3, bw, attraction, a-b-db, 14, 1, 6, 13, 56, 125, 60, 135, 135, 60, 2, 1.06064
259, 3, bw, attraction, a-b-db, 14, 1, 6, 13, 56, 125, 60, 135, 135, 60, 1, 0.992883
259, 3, bw, filler, NA, 999, 999, 6, 14, 168, 84, 181, 178, 181, 162, 2, 1.55845
259, 3, bw, filler, NA, 999, 999, 6, 14, 168, 84, 181, 178, 181, 162, 1, 0.806614
259, 3, bw, attraction, a-b-db, 2, 3, 6, 15, 119, 193, 195, 120, 120, 195, 1, 2.34032
259, 3, bw, attraction, a-b-db, 2, 3, 6, 15, 119, 193, 195, 120, 120, 195, 2, 0.285027
259, 3, bw, filler, NA, 999, 999, 6, 16, 170, 75, 136, 144, 109, 67, 2, 0.767459
259, 3, bw, filler, NA, 999, 999, 6, 16, 170, 75, 136, 144, 109, 67, 3, 0.319845
259, 3, bw, attraction, a-b-da, 9, 2, 6, 17, 157, 86, 165, 90, 90, 165, 3, 2.36107
259, 3, bw, attraction, a-b-da, 9, 2, 6, 17, 157, 86, 165, 90, 90, 165, 1, 0.720921
259, 3, bw, attraction, a-b-da, 14, 1, 6, 18, 135, 60, 125, 56, 60, 135, 3, 2.98595
259, 3, bw, attraction, a-b-da, 14, 1, 6, 18, 135, 60, 125, 56, 60, 135, 2, 0.281024
259, 3, bw, attraction, a-b-da, 14, 3, 6, 19, 181, 111, 195, 120, 120, 195, 3, 2.0516
259, 3, bw, attraction, a-b-da, 14, 3, 6, 19, 181, 111, 195, 120, 120, 195, 1, 0.664214
259, 3, bw, filler, NA, 999, 999, 6, 20, 131, 104, 144, 125, 64, 87, 2, 1.47521
259, 3, bw, filler, NA, 999, 999, 6, 20, 131, 104, 144, 125, 64, 87, 3, 0.454851
259, 3, bw, attraction, a-b-da, 14, 2, 6, 21, 90, 165, 153, 83, 165, 90, 1, 1.48259
259, 3, bw, attraction, a-b-da, 14, 2, 6, 21, 90, 165, 153, 83, 165, 90, 2, 0.350109
259, 3, bw, attraction, a-b-db, 5, 1, 6, 22, 58, 132, 60, 135, 135, 60, 2, 2.13394
259, 3, bw, attraction, a-b-db, 5, 1, 6, 22, 58, 132, 60, 135, 135, 60, 1, 0.327229
259, 3, bw, attraction, a-b-da, 2, 2, 6, 23, 90, 165, 163, 89, 165, 90, 1, 1.54374
259, 3, bw, attraction, a-b-da, 2, 2, 6, 23, 90, 165, 163, 89, 165, 90, 2, 0.38478
259, 3, bw, filler, NA, 999, 999, 6, 24, 125, 129, 169, 73, 134, 93, 1, 1.95918
259, 3, bw, filler, NA, 999, 999, 6, 24, 125, 129, 169, 73, 134, 93, 2, 0.359143
259, 3, bw, attraction, a-b-db, 5, 3, 6, 25, 195, 120, 120, 195, 117, 190, 2, 4.91837
259, 3, bw, attraction, a-b-db, 5, 3, 6, 25, 195, 120, 120, 195, 117, 190, 3, 0.415492
259, 3, bw, attraction, a-b-da, 2, 3, 6, 26, 120, 195, 193, 119, 195, 120, 1, 1.30847
259, 3, bw, attraction, a-b-da, 2, 3, 6, 26, 120, 195, 193, 119, 195, 120, 2, 0.494818
259, 3, bw, filler, NA, 999, 999, 6, 27, 142, 69, 120, 160, 171, 150, 3, 2.37655
259, 3, bw, filler, NA, 999, 999, 6, 27, 142, 69, 120, 160, 171, 150, 1, 0.383843
259, 3, bw, attraction, a-b-da, 9, 3, 6, 28, 120, 195, 195, 120, 186, 114, 1, 1.73431
259, 3, bw, attraction, a-b-da, 9, 3, 6, 28, 120, 195, 195, 120, 186, 114, 3, 1.09586
259, 3, bw, filler, NA, 999, 999, 6, 29, 152, 171, 116, 125, 189, 114, 1, 0.985299
259, 3, bw, filler, NA, 999, 999, 6, 29, 152, 171, 116, 125, 189, 114, 2, 0.873021
259, 3, bw, attraction, a-b-db, 9, 2, 6, 30, 165, 90, 86, 157, 90, 165, 2, 2.652
259, 3, bw, attraction, a-b-db, 9, 2, 6, 30, 165, 90, 86, 157, 90, 165, 3, 1.28049
259, 3, bw, attraction, a-b-db, 9, 1, 6, 31, 135, 60, 60, 135, 57, 129, 2, 6.60267
259, 3, bw, attraction, a-b-db, 9, 1, 6, 31, 135, 60, 60, 135, 57, 129, 3, 0.375848
259, 3, bw, attraction, a-b-db, 9, 3, 6, 32, 195, 120, 120, 195, 114, 186, 2, 2.0464
259, 3, bw, attraction, a-b-db, 9, 3, 6, 32, 195, 120, 120, 195, 114, 186, 3, 0.867085
259, 3, bw, filler, NA, 999, 999, 6, 33, 158, 193, 63, 190, 175, 64, 1, 0.646027
259, 3, bw, filler, NA, 999, 999, 6, 33, 158, 193, 63, 190, 175, 64, 2, 0.339208
259, 3, bw, attraction, a-b-da, 5, 3, 6, 34, 190, 117, 120, 195, 195, 120, 2, 4.93966
259, 3, bw, attraction, a-b-da, 5, 3, 6, 34, 190, 117, 120, 195, 195, 120, 1, 0.323405
259, 3, bw, filler, NA, 999, 999, 6, 35, 162, 115, 61, 125, 68, 193, 1, 0.811845
259, 3, bw, filler, NA, 999, 999, 6, 35, 162, 115, 61, 125, 68, 193, 2, 0.322293
259, 3, bw, filler, NA, 999, 999, 6, 36, 142, 126, 175, 189, 81, 136, 2, 0.603501
259, 3, bw, filler, NA, 999, 999, 6, 36, 142, 126, 175, 189, 81, 136, 3, 0.386749
259, 3, bw, attraction, a-b-da, 5, 1, 6, 37, 60, 135, 132, 58, 135, 60, 1, 2.28911
259, 3, bw, attraction, a-b-da, 5, 1, 6, 37, 60, 135, 132, 58, 135, 60, 2, 0.357876
259, 3, bw, attraction, a-b-da, 2, 2, 7, 1, 165, 90, 90, 165, 163, 89, 2, 8.37897
259, 3, bw, attraction, a-b-da, 2, 2, 7, 1, 165, 90, 90, 165, 163, 89, 1, 0.344196
259, 3, bw, attraction, a-b-da, 5, 2, 7, 2, 161, 88, 165, 90, 90, 165, 2, 4.25598
259, 3, bw, attraction, a-b-da, 5, 2, 7, 2, 161, 88, 165, 90, 90, 165, 1, 0.315357
259, 3, bw, attraction, a-b-db, 14, 1, 7, 3, 60, 135, 56, 125, 135, 60, 1, 2.43652
259, 3, bw, attraction, a-b-db, 14, 1, 7, 3, 60, 135, 56, 125, 135, 60, 2, 0.577689
259, 3, bw, attraction, a-b-db, 9, 1, 7, 4, 135, 60, 57, 129, 60, 135, 1, 3.20012
259, 3, bw, attraction, a-b-db, 9, 1, 7, 4, 135, 60, 57, 129, 60, 135, 2, 0.270601
259, 3, bw, attraction, a-b-da, 14, 1, 7, 5, 60, 135, 135, 60, 125, 56, 2, 0.641635
259, 3, bw, attraction, a-b-da, 14, 1, 7, 5, 60, 135, 135, 60, 125, 56, 3, 0.462668
259, 3, bw, attraction, a-b-db, 2, 1, 7, 6, 60, 135, 135, 60, 59, 134, 3, 1.40187
259, 3, bw, attraction, a-b-db, 2, 1, 7, 6, 60, 135, 135, 60, 59, 134, 1, 0.488685
259, 3, bw, filler, NA, 999, 999, 7, 7, 81, 161, 194, 115, 92, 62, 2, 0.619174
259, 3, bw, filler, NA, 999, 999, 7, 7, 81, 161, 194, 115, 92, 62, 3, 0.425738
259, 3, bw, filler, NA, 999, 999, 7, 8, 195, 101, 125, 59, 117, 157, 3, 0.710272
259, 3, bw, filler, NA, 999, 999, 7, 8, 195, 101, 125, 59, 117, 157, 2, 0.296502
259, 3, bw, attraction, a-b-da, 14, 2, 7, 9, 90, 165, 165, 90, 153, 83, 1, 1.7624
259, 3, bw, attraction, a-b-da, 14, 2, 7, 9, 90, 165, 165, 90, 153, 83, 3, 0.514482
259, 3, bw, attraction, a-b-da, 5, 1, 7, 10, 60, 135, 132, 58, 135, 60, 3, 2.63868
259, 3, bw, attraction, a-b-da, 5, 1, 7, 10, 60, 135, 132, 58, 135, 60, 2, 1.36877
259, 3, bw, catch, NA, 999, 999, 7, 11, 74, 121, 190, 125, 133, 122, 2, 0.591647
259, 3, bw, catch, NA, 999, 999, 7, 11, 74, 121, 190, 125, 133, 122, 1, 0.374829
259, 3, bw, catch, NA, 999, 999, 7, 12, 129, 66, 115, 140, 165, 150, 3, 1.60532
259, 3, bw, catch, NA, 999, 999, 7, 12, 129, 66, 115, 140, 165, 150, 1, 0.4913
259, 3, bw, catch, NA, 999, 999, 7, 13, 121, 194, 68, 127, 96, 159, 1, 0.645027
259, 3, bw, catch, NA, 999, 999, 7, 13, 121, 194, 68, 127, 96, 159, 2, 0.486232
259, 3, bw, filler, NA, 999, 999, 7, 14, 189, 114, 165, 104, 156, 115, 1, 1.1487
259, 3, bw, filler, NA, 999, 999, 7, 14, 189, 114, 165, 104, 156, 115, 3, 0.622075
259, 3, bw, filler, NA, 999, 999, 7, 15, 130, 103, 69, 176, 124, 120, 3, 1.50671
259, 3, bw, filler, NA, 999, 999, 7, 15, 130, 103, 69, 176, 124, 120, 2, 0.420917
259, 3, bw, attraction, a-b-db, 2, 2, 7, 16, 89, 163, 165, 90, 90, 165, 3, 1.41008
259, 3, bw, attraction, a-b-db, 2, 2, 7, 16, 89, 163, 165, 90, 90, 165, 2, 0.384248
259, 3, bw, attraction, a-b-da, 9, 3, 7, 17, 195, 120, 186, 114, 120, 195, 3, 1.39886
259, 3, bw, attraction, a-b-da, 9, 3, 7, 17, 195, 120, 186, 114, 120, 195, 2, 0.325617
259, 3, bw, attraction, a-b-da, 5, 3, 7, 18, 190, 117, 120, 195, 195, 120, 2, 2.51818
259, 3, bw, attraction, a-b-da, 5, 3, 7, 18, 190, 117, 120, 195, 195, 120, 1, 0.359966
259, 3, bw, filler, NA, 999, 999, 7, 19, 151, 99, 156, 152, 187, 191, 3, 0.703164
259, 3, bw, filler, NA, 999, 999, 7, 19, 151, 99, 156, 152, 187, 191, 1, 0.450216
259, 3, bw, attraction, a-b-db, 5, 1, 7, 20, 135, 60, 60, 135, 58, 132, 2, 2.2221
259, 3, bw, attraction, a-b-db, 5, 1, 7, 20, 135, 60, 60, 135, 58, 132, 1, 0.355204
259, 3, bw, filler, NA, 999, 999, 7, 21, 118, 108, 183, 171, 163, 182, 2, 0.547042
259, 3, bw, filler, NA, 999, 999, 7, 21, 118, 108, 183, 171, 163, 182, 1, 0.372307
259, 3, bw, attraction, a-b-db, 9, 3, 7, 22, 195, 120, 120, 195, 114, 186, 2, 2.71534
259, 3, bw, attraction, a-b-db, 9, 3, 7, 22, 195, 120, 120, 195, 114, 186, 1, 0.533179
259, 3, bw, attraction, a-b-db, 14, 2, 7, 23, 165, 90, 90, 165, 83, 153, 2, 0.981712
259, 3, bw, attraction, a-b-db, 14, 2, 7, 23, 165, 90, 90, 165, 83, 153, 3, 0.765343
259, 3, bw, filler, NA, 999, 999, 7, 24, 155, 147, 182, 80, 137, 188, 3, 0.964363
259, 3, bw, filler, NA, 999, 999, 7, 24, 155, 147, 182, 80, 137, 188, 2, 0.652695
259, 3, bw, attraction, a-b-da, 9, 2, 7, 25, 165, 90, 90, 165, 157, 86, 2, 1.06439
259, 3, bw, attraction, a-b-da, 9, 2, 7, 25, 165, 90, 90, 165, 157, 86, 3, 0.388698
259, 3, bw, attraction, a-b-db, 5, 3, 7, 26, 120, 195, 117, 190, 195, 120, 2, 1.33924
259, 3, bw, attraction, a-b-db, 5, 3, 7, 26, 120, 195, 117, 190, 195, 120, 3, 0.612334
259, 3, bw, filler, NA, 999, 999, 7, 27, 174, 74, 154, 63, 112, 129, 3, 0.609231
259, 3, bw, filler, NA, 999, 999, 7, 27, 174, 74, 154, 63, 112, 129, 2, 0.327678
259, 3, bw, filler, NA, 999, 999, 7, 28, 172, 97, 117, 91, 87, 159, 1, 3.45614
259, 3, bw, filler, NA, 999, 999, 7, 28, 172, 97, 117, 91, 87, 159, 2, 0.507688
259, 3, bw, attraction, a-b-db, 14, 3, 7, 29, 120, 195, 195, 120, 111, 181, 2, 2.51688
259, 3, bw, attraction, a-b-db, 14, 3, 7, 29, 120, 195, 195, 120, 111, 181, 3, 0.302725
259, 3, bw, attraction, a-b-da, 9, 1, 7, 30, 60, 135, 129, 57, 135, 60, 1, 2.37663
259, 3, bw, attraction, a-b-da, 9, 1, 7, 30, 60, 135, 129, 57, 135, 60, 2, 0.551838
259, 3, bw, attraction, a-b-db, 9, 2, 7, 31, 90, 165, 86, 157, 165, 90, 3, 2.1195
259, 3, bw, attraction, a-b-db, 9, 2, 7, 31, 90, 165, 86, 157, 165, 90, 2, 0.337578
259, 3, bw, filler, NA, 999, 999, 7, 32, 174, 99, 129, 71, 173, 59, 1, 0.882027
259, 3, bw, filler, NA, 999, 999, 7, 32, 174, 99, 129, 71, 173, 59, 2, 0.581748
259, 3, bw, attraction, a-b-da, 14, 3, 7, 33, 120, 195, 181, 111, 195, 120, 1, 3.85207
259, 3, bw, attraction, a-b-da, 14, 3, 7, 33, 120, 195, 181, 111, 195, 120, 2, 0.296139
259, 3, bw, attraction, a-b-db, 5, 2, 7, 34, 88, 161, 165, 90, 90, 165, 3, 2.42611
259, 3, bw, attraction, a-b-db, 5, 2, 7, 34, 88, 161, 165, 90, 90, 165, 1, 0.655482
259, 3, bw, attraction, a-b-da, 2, 1, 7, 35, 60, 135, 134, 59, 135, 60, 3, 5.3952
259, 3, bw, attraction, a-b-da, 2, 1, 7, 35, 60, 135, 134, 59, 135, 60, 1, 0.312768
259, 3, bw, attraction, a-b-db, 2, 3, 7, 36, 195, 120, 120, 195, 119, 193, 2, 1.10582
259, 3, bw, attraction, a-b-db, 2, 3, 7, 36, 195, 120, 120, 195, 119, 193, 1, 0.340111
259, 3, bw, attraction, a-b-da, 2, 3, 7, 37, 195, 120, 120, 195, 193, 119, 2, 2.13201
259, 3, bw, attraction, a-b-da, 2, 3, 7, 37, 195, 120, 120, 195, 193, 119, 3, 0.397338
259, 3, bw, attraction, a-b-db, 5, 2, 8, 1, 88, 161, 90, 165, 165, 90, 2, 0.947191
259, 3, bw, attraction, a-b-db, 5, 2, 8, 1, 88, 161, 90, 165, 165, 90, 3, 0.41223
259, 3, bw, attraction, a-b-db, 14, 3, 8, 2, 111, 181, 195, 120, 120, 195, 3, 1.17722
259, 3, bw, attraction, a-b-db, 14, 3, 8, 2, 111, 181, 195, 120, 120, 195, 1, 0.352999
259, 3, bw, attraction, a-b-da, 5, 3, 8, 3, 190, 117, 195, 120, 120, 195, 3, 1.56864
259, 3, bw, attraction, a-b-da, 5, 3, 8, 3, 190, 117, 195, 120, 120, 195, 1, 0.464829
259, 3, bw, filler, NA, 999, 999, 8, 4, 161, 156, 180, 159, 119, 158, 2, 0.979965
259, 3, bw, filler, NA, 999, 999, 8, 4, 161, 156, 180, 159, 119, 158, 3, 0.443709
259, 3, bw, attraction, a-b-db, 5, 1, 8, 5, 58, 132, 60, 135, 135, 60, 2, 1.39944
259, 3, bw, attraction, a-b-db, 5, 1, 8, 5, 58, 132, 60, 135, 135, 60, 3, 0.454367
259, 3, bw, attraction, a-b-da, 9, 2, 8, 6, 157, 86, 90, 165, 165, 90, 2, 0.914089
259, 3, bw, attraction, a-b-da, 9, 2, 8, 6, 157, 86, 90, 165, 165, 90, 1, 0.500388
259, 3, bw, attraction, a-b-da, 14, 3, 8, 7, 120, 195, 181, 111, 195, 120, 1, 1.09419
259, 3, bw, attraction, a-b-da, 14, 3, 8, 7, 120, 195, 181, 111, 195, 120, 2, 0.361186
259, 3, bw, attraction, a-b-db, 2, 1, 8, 8, 60, 135, 59, 134, 135, 60, 3, 2.29649
259, 3, bw, attraction, a-b-db, 2, 1, 8, 8, 60, 135, 59, 134, 135, 60, 1, 0.346955
259, 3, bw, attraction, a-b-db, 14, 1, 8, 9, 135, 60, 56, 125, 60, 135, 1, 0.930736
259, 3, bw, attraction, a-b-db, 14, 1, 8, 9, 135, 60, 56, 125, 60, 135, 2, 0.356519
259, 3, bw, catch, NA, 999, 999, 8, 10, 130, 125, 103, 92, 124, 191, 3, 0.66041
259, 3, bw, catch, NA, 999, 999, 8, 10, 130, 125, 103, 92, 124, 191, 2, 0.408765
259, 3, bw, attraction, a-b-da, 9, 3, 8, 11, 195, 120, 186, 114, 120, 195, 3, 3.12591
259, 3, bw, attraction, a-b-da, 9, 3, 8, 11, 195, 120, 186, 114, 120, 195, 2, 0.294908
259, 3, bw, attraction, a-b-da, 5, 1, 8, 12, 132, 58, 135, 60, 60, 135, 3, 2.62483
259, 3, bw, attraction, a-b-da, 5, 1, 8, 12, 132, 58, 135, 60, 60, 135, 1, 0.310028
259, 3, bw, filler, NA, 999, 999, 8, 13, 111, 93, 180, 95, 121, 117, 3, 0.59918
259, 3, bw, filler, NA, 999, 999, 8, 13, 111, 93, 180, 95, 121, 117, 1, 3.19823
259, 3, bw, filler, NA, 999, 999, 8, 14, 106, 84, 192, 140, 88, 105, 2, 0.603154
259, 3, bw, filler, NA, 999, 999, 8, 14, 106, 84, 192, 140, 88, 105, 1, 0.786207
259, 3, bw, attraction, a-b-da, 9, 1, 8, 15, 60, 135, 129, 57, 135, 60, 1, 1.01661
259, 3, bw, attraction, a-b-da, 9, 1, 8, 15, 60, 135, 129, 57, 135, 60, 2, 0.494909
259, 3, bw, filler, NA, 999, 999, 8, 16, 183, 95, 87, 72, 140, 181, 3, 1.26478
259, 3, bw, filler, NA, 999, 999, 8, 16, 183, 95, 87, 72, 140, 181, 2, 0.396929
259, 3, bw, attraction, a-b-db, 2, 3, 8, 17, 195, 120, 119, 193, 120, 195, 2, 2.52272
259, 3, bw, attraction, a-b-db, 2, 3, 8, 17, 195, 120, 119, 193, 120, 195, 1, 0.980112
259, 3, bw, attraction, a-b-db, 9, 2, 8, 18, 90, 165, 86, 157, 165, 90, 2, 1.81825
259, 3, bw, attraction, a-b-db, 9, 2, 8, 18, 90, 165, 86, 157, 165, 90, 3, 0.656392
259, 3, bw, attraction, a-b-da, 2, 1, 8, 19, 60, 135, 135, 60, 134, 59, 1, 0.852056
259, 3, bw, attraction, a-b-da, 2, 1, 8, 19, 60, 135, 135, 60, 134, 59, 2, 0.369084
259, 3, bw, attraction, a-b-da, 14, 2, 8, 20, 165, 90, 153, 83, 90, 165, 3, 0.800341
259, 3, bw, attraction, a-b-da, 14, 2, 8, 20, 165, 90, 153, 83, 90, 165, 2, 0.375285
259, 3, bw, filler, NA, 999, 999, 8, 21, 121, 107, 188, 193, 150, 71, 2, 0.621819
259, 3, bw, filler, NA, 999, 999, 8, 21, 121, 107, 188, 193, 150, 71, 3, 0.363692
259, 3, bw, attraction, a-b-da, 2, 3, 8, 22, 120, 195, 195, 120, 193, 119, 3, 1.25875
259, 3, bw, attraction, a-b-da, 2, 3, 8, 22, 120, 195, 195, 120, 193, 119, 2, 0.311063
259, 3, bw, attraction, a-b-da, 5, 2, 8, 23, 165, 90, 161, 88, 90, 165, 3, 2.54424
259, 3, bw, attraction, a-b-da, 5, 2, 8, 23, 165, 90, 161, 88, 90, 165, 2, 0.296684
259, 3, bw, attraction, a-b-db, 9, 3, 8, 24, 114, 186, 195, 120, 120, 195, 3, 1.7065
259, 3, bw, attraction, a-b-db, 9, 3, 8, 24, 114, 186, 195, 120, 120, 195, 2, 0.268638
259, 3, bw, attraction, a-b-da, 14, 1, 8, 25, 135, 60, 125, 56, 60, 135, 3, 0.999892
259, 3, bw, attraction, a-b-da, 14, 1, 8, 25, 135, 60, 125, 56, 60, 135, 2, 0.62278
259, 3, bw, attraction, a-b-db, 14, 2, 8, 26, 90, 165, 83, 153, 165, 90, 1, 2.78791
259, 3, bw, attraction, a-b-db, 14, 2, 8, 26, 90, 165, 83, 153, 165, 90, 2, 0.33114
259, 3, bw, filler, NA, 999, 999, 8, 27, 120, 120, 133, 118, 148, 65, 2, 2.31555
259, 3, bw, filler, NA, 999, 999, 8, 27, 120, 120, 133, 118, 148, 65, 3, 0.733487
259, 3, bw, filler, NA, 999, 999, 8, 28, 150, 191, 87, 60, 150, 147, 1, 0.901879
259, 3, bw, filler, NA, 999, 999, 8, 28, 150, 191, 87, 60, 150, 147, 2, 0.512872
259, 3, bw, catch, NA, 999, 999, 8, 29, 129, 126, 137, 178, 125, 70, 2, 0.609933
259, 3, bw, catch, NA, 999, 999, 8, 29, 129, 126, 137, 178, 125, 70, 3, 0.560483
259, 3, bw, attraction, a-b-db, 2, 2, 8, 30, 89, 163, 165, 90, 90, 165, 3, 0.839577
259, 3, bw, attraction, a-b-db, 2, 2, 8, 30, 89, 163, 165, 90, 90, 165, 2, 0.340525
259, 3, bw, attraction, a-b-db, 5, 3, 8, 31, 117, 190, 195, 120, 120, 195, 3, 1.16446
259, 3, bw, attraction, a-b-db, 5, 3, 8, 31, 117, 190, 195, 120, 120, 195, 1, 0.388655
259, 3, bw, catch, NA, 999, 999, 8, 32, 134, 61, 101, 154, 144, 171, 3, 0.843172
259, 3, bw, catch, NA, 999, 999, 8, 32, 134, 61, 101, 154, 144, 171, 1, 0.968219
259, 3, bw, attraction, a-b-da, 2, 2, 8, 33, 165, 90, 90, 165, 163, 89, 2, 1.70319
259, 3, bw, attraction, a-b-da, 2, 2, 8, 33, 165, 90, 90, 165, 163, 89, 3, 0.578091
259, 3, bw, attraction, a-b-db, 9, 1, 8, 34, 60, 135, 57, 129, 135, 60, 2, 0.888369
259, 3, bw, attraction, a-b-db, 9, 1, 8, 34, 60, 135, 57, 129, 135, 60, 1, 0.555548
259, 3, bw, filler, NA, 999, 999, 8, 35, 167, 64, 113, 141, 89, 186, 2, 0.611244
259, 3, bw, filler, NA, 999, 999, 8, 35, 167, 64, 113, 141, 89, 186, 1, 0.500392
259, 3, bw, filler, NA, 999, 999, 8, 36, 181, 190, 64, 139, 133, 193, 1, 0.939407
259, 3, bw, filler, NA, 999, 999, 8, 36, 181, 190, 64, 139, 133, 193, 2, 0.700555
259, 3, bw, filler, NA, 999, 999, 8, 37, 140, 140, 188, 111, 104, 138, 2, 0.702187
259, 3, bw, filler, NA, 999, 999, 8, 37, 140, 140, 188, 111, 104, 138, 3, 0.39326
