sub_n, computer_n, bw_cond, effect, set, distance, diag, block_n, trial_n, h1, w1, h2, w2, h3, w3, choice, rt 
210, 3, wb, practice, NA, 999, 999, 0, 1, 112, 60, 150, 100, 157, 66, 1, 3.3741
210, 3, wb, practice, NA, 999, 999, 0, 1, 112, 60, 150, 100, 157, 66, 2, 2.53465
210, 3, wb, practice, NA, 999, 999, 0, 2, 86, 57, 174, 146, 167, 64, 1, 2.48953
210, 3, wb, practice, NA, 999, 999, 0, 2, 86, 57, 174, 146, 167, 64, 2, 1.75077
210, 3, wb, practice, NA, 999, 999, 0, 3, 66, 83, 155, 88, 131, 172, 1, 2.18489
210, 3, wb, practice, NA, 999, 999, 0, 3, 66, 83, 155, 88, 131, 172, 3, 3.5778
210, 3, wb, attraction, a-b-db, 14, 1, 1, 1, 56, 125, 60, 135, 135, 60, 1, 5.66033
210, 3, wb, attraction, a-b-db, 14, 1, 1, 1, 56, 125, 60, 135, 135, 60, 2, 3.89513
210, 3, wb, attraction, a-b-db, 14, 2, 1, 2, 83, 153, 165, 90, 90, 165, 1, 7.12796
210, 3, wb, attraction, a-b-db, 14, 2, 1, 2, 83, 153, 165, 90, 90, 165, 3, 3.43172
210, 3, wb, attraction, a-b-da, 9, 1, 1, 3, 129, 57, 60, 135, 135, 60, 1, 13.7791
210, 3, wb, attraction, a-b-da, 9, 1, 1, 3, 129, 57, 60, 135, 135, 60, 3, 2.50282
210, 3, wb, attraction, a-b-da, 14, 2, 1, 4, 153, 83, 165, 90, 90, 165, 1, 4.54403
210, 3, wb, attraction, a-b-da, 14, 2, 1, 4, 153, 83, 165, 90, 90, 165, 3, 1.67993
210, 3, wb, filler, NA, 999, 999, 1, 5, 168, 97, 72, 184, 147, 108, 2, 3.61804
210, 3, wb, filler, NA, 999, 999, 1, 5, 168, 97, 72, 184, 147, 108, 1, 3.11157
210, 3, wb, attraction, a-b-db, 14, 3, 1, 6, 111, 181, 195, 120, 120, 195, 1, 2.30383
210, 3, wb, attraction, a-b-db, 14, 3, 1, 6, 111, 181, 195, 120, 120, 195, 2, 5.54648
210, 3, wb, attraction, a-b-db, 9, 1, 1, 7, 60, 135, 135, 60, 57, 129, 2, 3.68856
210, 3, wb, attraction, a-b-db, 9, 1, 1, 7, 60, 135, 135, 60, 57, 129, 1, 2.44339
210, 3, wb, attraction, a-b-da, 2, 2, 1, 8, 163, 89, 90, 165, 165, 90, 1, 3.11852
210, 3, wb, attraction, a-b-da, 2, 2, 1, 8, 163, 89, 90, 165, 165, 90, 3, 4.05634
210, 3, wb, attraction, a-b-db, 2, 3, 1, 9, 120, 195, 119, 193, 195, 120, 3, 7.32291
210, 3, wb, attraction, a-b-db, 2, 3, 1, 9, 120, 195, 119, 193, 195, 120, 1, 1.81151
210, 3, wb, filler, NA, 999, 999, 1, 10, 169, 72, 186, 110, 121, 176, 1, 2.8719
210, 3, wb, filler, NA, 999, 999, 1, 10, 169, 72, 186, 110, 121, 176, 2, 3.10716
210, 3, wb, filler, NA, 999, 999, 1, 11, 94, 78, 133, 80, 177, 89, 1, 6.65202
210, 3, wb, filler, NA, 999, 999, 1, 11, 94, 78, 133, 80, 177, 89, 3, 2.69535
210, 3, wb, attraction, a-b-da, 5, 2, 1, 12, 165, 90, 90, 165, 161, 88, 3, 5.6404
210, 3, wb, attraction, a-b-da, 5, 2, 1, 12, 165, 90, 90, 165, 161, 88, 2, 2.37994
210, 3, wb, filler, NA, 999, 999, 1, 13, 128, 67, 148, 82, 78, 176, 1, 1.56986
210, 3, wb, filler, NA, 999, 999, 1, 13, 128, 67, 148, 82, 78, 176, 3, 1.72995
210, 3, wb, attraction, a-b-da, 2, 3, 1, 14, 120, 195, 195, 120, 193, 119, 3, 10.562
210, 3, wb, attraction, a-b-da, 2, 3, 1, 14, 120, 195, 195, 120, 193, 119, 2, 3.47139
210, 3, wb, catch, NA, 999, 999, 1, 15, 126, 189, 121, 134, 80, 115, 3, 1.44156
210, 3, wb, catch, NA, 999, 999, 1, 15, 126, 189, 121, 134, 80, 115, 1, 0.990424
210, 3, wb, attraction, a-b-db, 2, 2, 1, 16, 89, 163, 165, 90, 90, 165, 2, 2.31606
210, 3, wb, attraction, a-b-db, 2, 2, 1, 16, 89, 163, 165, 90, 90, 165, 3, 2.59806
210, 3, wb, attraction, a-b-db, 5, 2, 1, 17, 165, 90, 90, 165, 88, 161, 1, 4.61096
210, 3, wb, attraction, a-b-db, 5, 2, 1, 17, 165, 90, 90, 165, 88, 161, 2, 2.96032
210, 3, wb, attraction, a-b-da, 5, 3, 1, 18, 120, 195, 195, 120, 190, 117, 2, 5.33456
210, 3, wb, attraction, a-b-da, 5, 3, 1, 18, 120, 195, 195, 120, 190, 117, 1, 1.68688
210, 3, wb, catch, NA, 999, 999, 1, 19, 80, 115, 190, 125, 154, 101, 1, 1.14485
210, 3, wb, catch, NA, 999, 999, 1, 19, 80, 115, 190, 125, 154, 101, 2, 4.79401
210, 3, wb, filler, NA, 999, 999, 1, 20, 78, 143, 194, 122, 110, 180, 1, 1.55035
210, 3, wb, filler, NA, 999, 999, 1, 20, 78, 143, 194, 122, 110, 180, 2, 2.33521
210, 3, wb, attraction, a-b-db, 9, 3, 1, 21, 120, 195, 114, 186, 195, 120, 3, 9.51115
210, 3, wb, attraction, a-b-db, 9, 3, 1, 21, 120, 195, 114, 186, 195, 120, 2, 0.638816
210, 3, wb, attraction, a-b-da, 14, 3, 1, 22, 120, 195, 181, 111, 195, 120, 1, 3.23515
210, 3, wb, attraction, a-b-da, 14, 3, 1, 22, 120, 195, 181, 111, 195, 120, 3, 2.18413
210, 3, wb, filler, NA, 999, 999, 1, 23, 95, 134, 100, 96, 148, 194, 2, 1.53401
210, 3, wb, filler, NA, 999, 999, 1, 23, 95, 134, 100, 96, 148, 194, 3, 0.959518
210, 3, wb, filler, NA, 999, 999, 1, 24, 62, 164, 66, 76, 129, 159, 2, 2.46256
210, 3, wb, filler, NA, 999, 999, 1, 24, 62, 164, 66, 76, 129, 159, 3, 1.02639
210, 3, wb, filler, NA, 999, 999, 1, 25, 152, 164, 149, 73, 177, 169, 2, 1.71067
210, 3, wb, filler, NA, 999, 999, 1, 25, 152, 164, 149, 73, 177, 169, 3, 1.00928
210, 3, wb, attraction, a-b-da, 9, 2, 1, 26, 157, 86, 165, 90, 90, 165, 1, 10.8458
210, 3, wb, attraction, a-b-da, 9, 2, 1, 26, 157, 86, 165, 90, 90, 165, 2, 2.21562
210, 3, wb, catch, NA, 999, 999, 1, 27, 106, 149, 119, 76, 135, 180, 2, 2.17235
210, 3, wb, catch, NA, 999, 999, 1, 27, 106, 149, 119, 76, 135, 180, 3, 0.803489
210, 3, wb, attraction, a-b-db, 9, 2, 1, 28, 90, 165, 165, 90, 86, 157, 3, 6.87319
210, 3, wb, attraction, a-b-db, 9, 2, 1, 28, 90, 165, 165, 90, 86, 157, 2, 2.49901
210, 3, wb, attraction, a-b-db, 5, 1, 1, 29, 58, 132, 135, 60, 60, 135, 1, 4.50817
210, 3, wb, attraction, a-b-db, 5, 1, 1, 29, 58, 132, 135, 60, 60, 135, 3, 1.3015
210, 3, wb, attraction, a-b-da, 14, 1, 1, 30, 135, 60, 125, 56, 60, 135, 2, 3.98296
210, 3, wb, attraction, a-b-da, 14, 1, 1, 30, 135, 60, 125, 56, 60, 135, 3, 1.18186
210, 3, wb, attraction, a-b-db, 2, 1, 1, 31, 60, 135, 135, 60, 59, 134, 2, 1.93996
210, 3, wb, attraction, a-b-db, 2, 1, 1, 31, 60, 135, 135, 60, 59, 134, 3, 0.652568
210, 3, wb, attraction, a-b-da, 9, 3, 1, 32, 120, 195, 195, 120, 186, 114, 3, 1.7604
210, 3, wb, attraction, a-b-da, 9, 3, 1, 32, 120, 195, 195, 120, 186, 114, 2, 3.37646
210, 3, wb, filler, NA, 999, 999, 1, 33, 94, 180, 64, 140, 115, 171, 2, 5.27001
210, 3, wb, filler, NA, 999, 999, 1, 33, 94, 180, 64, 140, 115, 171, 3, 0.729115
210, 3, wb, attraction, a-b-db, 5, 3, 1, 34, 117, 190, 195, 120, 120, 195, 2, 3.04133
210, 3, wb, attraction, a-b-db, 5, 3, 1, 34, 117, 190, 195, 120, 120, 195, 3, 0.829739
210, 3, wb, attraction, a-b-da, 2, 1, 1, 35, 134, 59, 60, 135, 135, 60, 2, 1.59417
210, 3, wb, attraction, a-b-da, 2, 1, 1, 35, 134, 59, 60, 135, 135, 60, 3, 3.18489
210, 3, wb, attraction, a-b-da, 5, 1, 1, 36, 60, 135, 132, 58, 135, 60, 2, 3.9665
210, 3, wb, attraction, a-b-da, 5, 1, 1, 36, 60, 135, 132, 58, 135, 60, 1, 2.20592
210, 3, wb, filler, NA, 999, 999, 1, 37, 187, 153, 71, 160, 165, 60, 3, 1.65113
210, 3, wb, filler, NA, 999, 999, 1, 37, 187, 153, 71, 160, 165, 60, 1, 0.656008
210, 3, wb, attraction, a-b-da, 2, 3, 2, 1, 120, 195, 193, 119, 195, 120, 1, 3.88358
210, 3, wb, attraction, a-b-da, 2, 3, 2, 1, 120, 195, 193, 119, 195, 120, 2, 1.0865
210, 3, wb, attraction, a-b-db, 14, 2, 2, 2, 165, 90, 90, 165, 83, 153, 1, 3.09671
210, 3, wb, attraction, a-b-db, 14, 2, 2, 2, 165, 90, 90, 165, 83, 153, 2, 0.730985
210, 3, wb, catch, NA, 999, 999, 2, 3, 139, 176, 105, 150, 91, 104, 3, 1.22734
210, 3, wb, catch, NA, 999, 999, 2, 3, 139, 176, 105, 150, 91, 104, 1, 1.33691
210, 3, wb, catch, NA, 999, 999, 2, 4, 126, 189, 148, 107, 112, 83, 3, 1.49722
210, 3, wb, catch, NA, 999, 999, 2, 4, 126, 189, 148, 107, 112, 83, 1, 0.756067
210, 3, wb, attraction, a-b-da, 9, 2, 2, 5, 157, 86, 165, 90, 90, 165, 1, 3.49182
210, 3, wb, attraction, a-b-da, 9, 2, 2, 5, 157, 86, 165, 90, 90, 165, 3, 0.878066
210, 3, wb, attraction, a-b-db, 9, 3, 2, 6, 120, 195, 114, 186, 195, 120, 3, 3.04832
210, 3, wb, attraction, a-b-db, 9, 3, 2, 6, 120, 195, 114, 186, 195, 120, 2, 1.25264
210, 3, wb, attraction, a-b-db, 5, 2, 2, 7, 165, 90, 88, 161, 90, 165, 1, 26.0563
210, 3, wb, attraction, a-b-db, 5, 2, 2, 7, 165, 90, 88, 161, 90, 165, 2, 2.93337
210, 3, wb, attraction, a-b-da, 5, 2, 2, 8, 90, 165, 165, 90, 161, 88, 3, 6.58123
210, 3, wb, attraction, a-b-da, 5, 2, 2, 8, 90, 165, 165, 90, 161, 88, 1, 3.42713
210, 3, wb, filler, NA, 999, 999, 2, 9, 170, 122, 139, 141, 180, 157, 1, 3.43055
210, 3, wb, filler, NA, 999, 999, 2, 9, 170, 122, 139, 141, 180, 157, 3, 0.955474
210, 3, wb, attraction, a-b-db, 14, 1, 2, 10, 135, 60, 60, 135, 56, 125, 1, 5.23506
210, 3, wb, attraction, a-b-db, 14, 1, 2, 10, 135, 60, 60, 135, 56, 125, 2, 0.919347
210, 3, wb, attraction, a-b-da, 2, 2, 2, 11, 90, 165, 163, 89, 165, 90, 2, 3.20839
210, 3, wb, attraction, a-b-da, 2, 2, 2, 11, 90, 165, 163, 89, 165, 90, 3, 1.23801
210, 3, wb, attraction, a-b-db, 2, 1, 2, 12, 60, 135, 59, 134, 135, 60, 3, 3.31425
210, 3, wb, attraction, a-b-db, 2, 1, 2, 12, 60, 135, 59, 134, 135, 60, 2, 0.651787
210, 3, wb, attraction, a-b-da, 5, 3, 2, 13, 190, 117, 120, 195, 195, 120, 1, 3.47164
210, 3, wb, attraction, a-b-da, 5, 3, 2, 13, 190, 117, 120, 195, 195, 120, 2, 1.47514
210, 3, wb, attraction, a-b-db, 5, 1, 2, 14, 58, 132, 135, 60, 60, 135, 2, 4.34124
210, 3, wb, attraction, a-b-db, 5, 1, 2, 14, 58, 132, 135, 60, 60, 135, 3, 1.71725
210, 3, wb, attraction, a-b-db, 5, 3, 2, 15, 117, 190, 120, 195, 195, 120, 3, 2.33409
210, 3, wb, attraction, a-b-db, 5, 3, 2, 15, 117, 190, 120, 195, 195, 120, 2, 0.719243
210, 3, wb, filler, NA, 999, 999, 2, 16, 147, 129, 182, 93, 73, 136, 3, 1.50431
210, 3, wb, filler, NA, 999, 999, 2, 16, 147, 129, 182, 93, 73, 136, 2, 4.76318
210, 3, wb, attraction, a-b-db, 9, 2, 2, 17, 90, 165, 86, 157, 165, 90, 2, 5.049
210, 3, wb, attraction, a-b-db, 9, 2, 2, 17, 90, 165, 86, 157, 165, 90, 1, 3.42066
210, 3, wb, attraction, a-b-db, 14, 3, 2, 18, 120, 195, 111, 181, 195, 120, 3, 3.91275
210, 3, wb, attraction, a-b-db, 14, 3, 2, 18, 120, 195, 111, 181, 195, 120, 2, 1.55424
210, 3, wb, attraction, a-b-da, 2, 1, 2, 19, 135, 60, 134, 59, 60, 135, 1, 2.6178
210, 3, wb, attraction, a-b-da, 2, 1, 2, 19, 135, 60, 134, 59, 60, 135, 3, 5.57565
210, 3, wb, attraction, a-b-da, 14, 2, 2, 20, 165, 90, 90, 165, 153, 83, 3, 1.74046
210, 3, wb, attraction, a-b-da, 14, 2, 2, 20, 165, 90, 90, 165, 153, 83, 1, 3.12517
210, 3, wb, attraction, a-b-db, 9, 1, 2, 21, 60, 135, 57, 129, 135, 60, 3, 21.4528
210, 3, wb, attraction, a-b-db, 9, 1, 2, 21, 60, 135, 57, 129, 135, 60, 1, 1.5714
210, 3, wb, attraction, a-b-da, 9, 1, 2, 22, 129, 57, 60, 135, 135, 60, 1, 2.37015
210, 3, wb, attraction, a-b-da, 9, 1, 2, 22, 129, 57, 60, 135, 135, 60, 2, 1.09004
210, 3, wb, filler, NA, 999, 999, 2, 23, 100, 93, 190, 131, 85, 176, 1, 1.15634
210, 3, wb, filler, NA, 999, 999, 2, 23, 100, 93, 190, 131, 85, 176, 2, 0.908586
210, 3, wb, filler, NA, 999, 999, 2, 24, 150, 127, 187, 83, 108, 185, 2, 6.45367
210, 3, wb, filler, NA, 999, 999, 2, 24, 150, 127, 187, 83, 108, 185, 3, 1.06509
210, 3, wb, filler, NA, 999, 999, 2, 25, 153, 93, 78, 114, 89, 74, 3, 1.20378
210, 3, wb, filler, NA, 999, 999, 2, 25, 153, 93, 78, 114, 89, 74, 1, 0.546806
210, 3, wb, attraction, a-b-da, 9, 3, 2, 26, 186, 114, 195, 120, 120, 195, 1, 2.05048
210, 3, wb, attraction, a-b-da, 9, 3, 2, 26, 186, 114, 195, 120, 120, 195, 2, 1.31126
210, 3, wb, filler, NA, 999, 999, 2, 27, 179, 115, 159, 158, 143, 149, 1, 3.97612
210, 3, wb, filler, NA, 999, 999, 2, 27, 179, 115, 159, 158, 143, 149, 2, 0.918884
210, 3, wb, filler, NA, 999, 999, 2, 28, 118, 90, 168, 156, 76, 105, 3, 0.943792
210, 3, wb, filler, NA, 999, 999, 2, 28, 118, 90, 168, 156, 76, 105, 2, 0.688908
210, 3, wb, filler, NA, 999, 999, 2, 29, 124, 181, 88, 193, 154, 151, 1, 5.13925
210, 3, wb, filler, NA, 999, 999, 2, 29, 124, 181, 88, 193, 154, 151, 3, 1.47492
210, 3, wb, attraction, a-b-da, 14, 3, 2, 30, 181, 111, 120, 195, 195, 120, 1, 1.74905
210, 3, wb, attraction, a-b-da, 14, 3, 2, 30, 181, 111, 120, 195, 195, 120, 2, 2.06993
210, 3, wb, attraction, a-b-db, 2, 3, 2, 31, 195, 120, 119, 193, 120, 195, 1, 34.0325
210, 3, wb, attraction, a-b-db, 2, 3, 2, 31, 195, 120, 119, 193, 120, 195, 3, 0.995815
210, 3, wb, catch, NA, 999, 999, 2, 32, 127, 128, 157, 158, 100, 95, 3, 1.60948
210, 3, wb, catch, NA, 999, 999, 2, 32, 127, 128, 157, 158, 100, 95, 2, 0.703493
210, 3, wb, attraction, a-b-da, 5, 1, 2, 33, 60, 135, 135, 60, 132, 58, 3, 3.59335
210, 3, wb, attraction, a-b-da, 5, 1, 2, 33, 60, 135, 135, 60, 132, 58, 1, 0.775506
210, 3, wb, attraction, a-b-da, 14, 1, 2, 34, 125, 56, 135, 60, 60, 135, 1, 1.43794
210, 3, wb, attraction, a-b-da, 14, 1, 2, 34, 125, 56, 135, 60, 60, 135, 2, 4.14685
210, 3, wb, filler, NA, 999, 999, 2, 35, 106, 185, 137, 191, 165, 151, 1, 1.29732
210, 3, wb, filler, NA, 999, 999, 2, 35, 106, 185, 137, 191, 165, 151, 2, 1.31638
210, 3, wb, filler, NA, 999, 999, 2, 36, 109, 76, 99, 194, 175, 154, 1, 0.997038
210, 3, wb, filler, NA, 999, 999, 2, 36, 109, 76, 99, 194, 175, 154, 3, 1.19605
210, 3, wb, attraction, a-b-db, 2, 2, 2, 37, 165, 90, 89, 163, 90, 165, 1, 6.9536
210, 3, wb, attraction, a-b-db, 2, 2, 2, 37, 165, 90, 89, 163, 90, 165, 2, 5.11281
210, 3, wb, attraction, a-b-da, 14, 2, 3, 1, 153, 83, 165, 90, 90, 165, 1, 1.31244
210, 3, wb, attraction, a-b-da, 14, 2, 3, 1, 153, 83, 165, 90, 90, 165, 3, 1.32278
210, 3, wb, filler, NA, 999, 999, 3, 2, 107, 69, 160, 151, 138, 158, 1, 2.11555
210, 3, wb, filler, NA, 999, 999, 3, 2, 107, 69, 160, 151, 138, 158, 2, 2.8777
210, 3, wb, catch, NA, 999, 999, 3, 3, 141, 114, 67, 128, 153, 162, 2, 0.943245
210, 3, wb, catch, NA, 999, 999, 3, 3, 141, 114, 67, 128, 153, 162, 3, 0.504302
210, 3, wb, attraction, a-b-da, 5, 1, 3, 4, 135, 60, 60, 135, 132, 58, 3, 3.52218
210, 3, wb, attraction, a-b-da, 5, 1, 3, 4, 135, 60, 60, 135, 132, 58, 2, 0.859038
210, 3, wb, attraction, a-b-db, 9, 2, 3, 5, 90, 165, 86, 157, 165, 90, 3, 2.32602
210, 3, wb, attraction, a-b-db, 9, 2, 3, 5, 90, 165, 86, 157, 165, 90, 1, 0.551187
210, 3, wb, attraction, a-b-db, 14, 2, 3, 6, 165, 90, 90, 165, 83, 153, 1, 3.57499
210, 3, wb, attraction, a-b-db, 14, 2, 3, 6, 165, 90, 90, 165, 83, 153, 2, 1.03792
210, 3, wb, attraction, a-b-db, 2, 1, 3, 7, 59, 134, 60, 135, 135, 60, 1, 2.37022
210, 3, wb, attraction, a-b-db, 2, 1, 3, 7, 59, 134, 60, 135, 135, 60, 3, 2.85804
210, 3, wb, filler, NA, 999, 999, 3, 8, 78, 186, 126, 109, 195, 133, 2, 3.67637
210, 3, wb, filler, NA, 999, 999, 3, 8, 78, 186, 126, 109, 195, 133, 3, 0.567169
210, 3, wb, attraction, a-b-db, 14, 1, 3, 9, 135, 60, 60, 135, 56, 125, 2, 3.10223
210, 3, wb, attraction, a-b-db, 14, 1, 3, 9, 135, 60, 60, 135, 56, 125, 1, 4.57671
210, 3, wb, filler, NA, 999, 999, 3, 10, 133, 109, 124, 164, 123, 174, 1, 1.74998
210, 3, wb, filler, NA, 999, 999, 3, 10, 133, 109, 124, 164, 123, 174, 3, 1.51056
210, 3, wb, filler, NA, 999, 999, 3, 11, 76, 59, 60, 68, 81, 191, 2, 1.25537
210, 3, wb, filler, NA, 999, 999, 3, 11, 76, 59, 60, 68, 81, 191, 3, 1.1236
210, 3, wb, attraction, a-b-db, 9, 1, 3, 12, 57, 129, 135, 60, 60, 135, 2, 3.08389
210, 3, wb, attraction, a-b-db, 9, 1, 3, 12, 57, 129, 135, 60, 60, 135, 3, 1.03082
210, 3, wb, attraction, a-b-da, 5, 2, 3, 13, 165, 90, 161, 88, 90, 165, 2, 4.53121
210, 3, wb, attraction, a-b-da, 5, 2, 3, 13, 165, 90, 161, 88, 90, 165, 3, 0.739805
210, 3, wb, attraction, a-b-db, 2, 3, 3, 14, 119, 193, 120, 195, 195, 120, 1, 8.956
210, 3, wb, attraction, a-b-db, 2, 3, 3, 14, 119, 193, 120, 195, 195, 120, 3, 1.17062
210, 3, wb, attraction, a-b-db, 5, 3, 3, 15, 120, 195, 117, 190, 195, 120, 3, 8.09767
210, 3, wb, attraction, a-b-db, 5, 3, 3, 15, 120, 195, 117, 190, 195, 120, 2, 1.70622
210, 3, wb, attraction, a-b-db, 5, 1, 3, 16, 60, 135, 135, 60, 58, 132, 3, 2.30787
210, 3, wb, attraction, a-b-db, 5, 1, 3, 16, 60, 135, 135, 60, 58, 132, 2, 2.15762
210, 3, wb, filler, NA, 999, 999, 3, 17, 76, 93, 157, 169, 104, 57, 3, 13.3563
210, 3, wb, filler, NA, 999, 999, 3, 17, 76, 93, 157, 169, 104, 57, 2, 0.657417
210, 3, wb, attraction, a-b-da, 2, 1, 3, 18, 135, 60, 60, 135, 134, 59, 1, 21.8204
210, 3, wb, attraction, a-b-da, 2, 1, 3, 18, 135, 60, 60, 135, 134, 59, 2, 0.828302
210, 3, wb, filler, NA, 999, 999, 3, 19, 99, 76, 113, 162, 160, 109, 1, 1.0006
210, 3, wb, filler, NA, 999, 999, 3, 19, 99, 76, 113, 162, 160, 109, 2, 0.807548
210, 3, wb, attraction, a-b-db, 5, 2, 3, 20, 165, 90, 90, 165, 88, 161, 1, 8.98058
210, 3, wb, attraction, a-b-db, 5, 2, 3, 20, 165, 90, 90, 165, 88, 161, 2, 1.92984
210, 3, wb, attraction, a-b-da, 14, 3, 3, 21, 120, 195, 195, 120, 181, 111, 3, 13.4579
210, 3, wb, attraction, a-b-da, 14, 3, 3, 21, 120, 195, 195, 120, 181, 111, 1, 1.42697
210, 3, wb, attraction, a-b-da, 9, 3, 3, 22, 120, 195, 195, 120, 186, 114, 3, 2.66332
210, 3, wb, attraction, a-b-da, 9, 3, 3, 22, 120, 195, 195, 120, 186, 114, 1, 2.79488
210, 3, wb, attraction, a-b-db, 14, 3, 3, 23, 111, 181, 120, 195, 195, 120, 1, 1.09603
210, 3, wb, attraction, a-b-db, 14, 3, 3, 23, 111, 181, 120, 195, 195, 120, 2, 1.40291
210, 3, wb, attraction, a-b-da, 5, 3, 3, 24, 120, 195, 190, 117, 195, 120, 3, 7.35252
210, 3, wb, attraction, a-b-da, 5, 3, 3, 24, 120, 195, 190, 117, 195, 120, 1, 0.887386
210, 3, wb, attraction, a-b-da, 2, 2, 3, 25, 90, 165, 163, 89, 165, 90, 2, 7.93775
210, 3, wb, attraction, a-b-da, 2, 2, 3, 25, 90, 165, 163, 89, 165, 90, 1, 1.35324
210, 3, wb, attraction, a-b-da, 14, 1, 3, 26, 60, 135, 125, 56, 135, 60, 2, 14.1207
210, 3, wb, attraction, a-b-da, 14, 1, 3, 26, 60, 135, 125, 56, 135, 60, 1, 0.734909
210, 3, wb, filler, NA, 999, 999, 3, 27, 138, 186, 67, 116, 123, 161, 2, 1.1914
210, 3, wb, filler, NA, 999, 999, 3, 27, 138, 186, 67, 116, 123, 161, 1, 0.814265
210, 3, wb, filler, NA, 999, 999, 3, 28, 115, 79, 186, 124, 90, 73, 3, 1.63535
210, 3, wb, filler, NA, 999, 999, 3, 28, 115, 79, 186, 124, 90, 73, 2, 0.712918
210, 3, wb, attraction, a-b-db, 2, 2, 3, 29, 89, 163, 165, 90, 90, 165, 2, 4.72184
210, 3, wb, attraction, a-b-db, 2, 2, 3, 29, 89, 163, 165, 90, 90, 165, 3, 3.11505
210, 3, wb, attraction, a-b-da, 9, 2, 3, 30, 90, 165, 165, 90, 157, 86, 3, 25.1953
210, 3, wb, attraction, a-b-da, 9, 2, 3, 30, 90, 165, 165, 90, 157, 86, 1, 0.683432
210, 3, wb, catch, NA, 999, 999, 3, 31, 134, 61, 103, 152, 164, 151, 1, 1.15782
210, 3, wb, catch, NA, 999, 999, 3, 31, 134, 61, 103, 152, 164, 151, 3, 0.822191
210, 3, wb, filler, NA, 999, 999, 3, 32, 165, 69, 82, 104, 116, 97, 2, 1.69111
210, 3, wb, filler, NA, 999, 999, 3, 32, 165, 69, 82, 104, 116, 97, 3, 1.74999
210, 3, wb, filler, NA, 999, 999, 3, 33, 140, 188, 183, 178, 172, 136, 3, 5.98124
210, 3, wb, filler, NA, 999, 999, 3, 33, 140, 188, 183, 178, 172, 136, 2, 1.45948
210, 3, wb, attraction, a-b-da, 2, 3, 3, 34, 193, 119, 120, 195, 195, 120, 1, 3.43822
210, 3, wb, attraction, a-b-da, 2, 3, 3, 34, 193, 119, 120, 195, 195, 120, 2, 1.51529
210, 3, wb, catch, NA, 999, 999, 3, 35, 67, 128, 95, 160, 152, 163, 1, 1.17194
210, 3, wb, catch, NA, 999, 999, 3, 35, 67, 128, 95, 160, 152, 163, 3, 1.2035
210, 3, wb, attraction, a-b-da, 9, 1, 3, 36, 60, 135, 135, 60, 129, 57, 3, 21.249
210, 3, wb, attraction, a-b-da, 9, 1, 3, 36, 60, 135, 135, 60, 129, 57, 1, 1.13581
210, 3, wb, attraction, a-b-db, 9, 3, 3, 37, 120, 195, 195, 120, 114, 186, 3, 2.03213
210, 3, wb, attraction, a-b-db, 9, 3, 3, 37, 120, 195, 195, 120, 114, 186, 1, 2.06934
210, 3, wb, attraction, a-b-db, 5, 2, 4, 1, 88, 161, 90, 165, 165, 90, 1, 1.6641
210, 3, wb, attraction, a-b-db, 5, 2, 4, 1, 88, 161, 90, 165, 165, 90, 2, 1.48404
210, 3, wb, attraction, a-b-da, 2, 1, 4, 2, 134, 59, 135, 60, 60, 135, 1, 3.56619
210, 3, wb, attraction, a-b-da, 2, 1, 4, 2, 134, 59, 135, 60, 60, 135, 3, 0.853738
210, 3, wb, filler, NA, 999, 999, 4, 3, 187, 63, 171, 58, 80, 131, 3, 1.68938
210, 3, wb, filler, NA, 999, 999, 4, 3, 187, 63, 171, 58, 80, 131, 2, 3.75627
210, 3, wb, filler, NA, 999, 999, 4, 4, 95, 190, 56, 121, 102, 170, 2, 0.970876
210, 3, wb, filler, NA, 999, 999, 4, 4, 95, 190, 56, 121, 102, 170, 3, 0.739352
210, 3, wb, filler, NA, 999, 999, 4, 5, 97, 103, 104, 194, 145, 123, 1, 0.915662
210, 3, wb, filler, NA, 999, 999, 4, 5, 97, 103, 104, 194, 145, 123, 2, 1.18206
210, 3, wb, catch, NA, 999, 999, 4, 6, 148, 167, 66, 129, 139, 116, 2, 1.2123
210, 3, wb, catch, NA, 999, 999, 4, 6, 148, 167, 66, 129, 139, 116, 1, 0.754563
210, 3, wb, attraction, a-b-da, 14, 3, 4, 7, 181, 111, 195, 120, 120, 195, 1, 1.80232
210, 3, wb, attraction, a-b-da, 14, 3, 4, 7, 181, 111, 195, 120, 120, 195, 3, 1.52095
210, 3, wb, attraction, a-b-db, 2, 1, 4, 8, 60, 135, 135, 60, 59, 134, 1, 2.7299
210, 3, wb, attraction, a-b-db, 2, 1, 4, 8, 60, 135, 135, 60, 59, 134, 3, 1.32754
210, 3, wb, filler, NA, 999, 999, 4, 9, 189, 76, 65, 97, 123, 170, 2, 1.41111
210, 3, wb, filler, NA, 999, 999, 4, 9, 189, 76, 65, 97, 123, 170, 3, 0.657324
210, 3, wb, filler, NA, 999, 999, 4, 10, 138, 125, 91, 100, 98, 85, 3, 0.868385
210, 3, wb, filler, NA, 999, 999, 4, 10, 138, 125, 91, 100, 98, 85, 1, 0.648791
210, 3, wb, attraction, a-b-db, 9, 1, 4, 11, 57, 129, 135, 60, 60, 135, 1, 1.16446
210, 3, wb, attraction, a-b-db, 9, 1, 4, 11, 57, 129, 135, 60, 60, 135, 3, 2.24489
210, 3, wb, attraction, a-b-db, 2, 2, 4, 12, 165, 90, 89, 163, 90, 165, 3, 4.55202
210, 3, wb, attraction, a-b-db, 2, 2, 4, 12, 165, 90, 89, 163, 90, 165, 1, 1.36796
210, 3, wb, attraction, a-b-da, 14, 2, 4, 13, 90, 165, 165, 90, 153, 83, 3, 2.64675
210, 3, wb, attraction, a-b-da, 14, 2, 4, 13, 90, 165, 165, 90, 153, 83, 2, 2.31516
210, 3, wb, attraction, a-b-da, 5, 3, 4, 14, 120, 195, 195, 120, 190, 117, 3, 9.65989
210, 3, wb, attraction, a-b-da, 5, 3, 4, 14, 120, 195, 195, 120, 190, 117, 1, 0.645333
210, 3, wb, attraction, a-b-da, 5, 2, 4, 15, 90, 165, 161, 88, 165, 90, 3, 2.66514
210, 3, wb, attraction, a-b-da, 5, 2, 4, 15, 90, 165, 161, 88, 165, 90, 2, 1.32499
210, 3, wb, attraction, a-b-db, 14, 2, 4, 16, 90, 165, 165, 90, 83, 153, 3, 1.58907
210, 3, wb, attraction, a-b-db, 14, 2, 4, 16, 90, 165, 165, 90, 83, 153, 1, 0.844009
210, 3, wb, attraction, a-b-da, 9, 2, 4, 17, 165, 90, 157, 86, 90, 165, 2, 1.8076
210, 3, wb, attraction, a-b-da, 9, 2, 4, 17, 165, 90, 157, 86, 90, 165, 3, 2.83769
210, 3, wb, filler, NA, 999, 999, 4, 18, 171, 158, 90, 195, 138, 193, 2, 3.86544
210, 3, wb, filler, NA, 999, 999, 4, 18, 171, 158, 90, 195, 138, 193, 3, 7.80483
210, 3, wb, attraction, a-b-db, 5, 3, 4, 19, 195, 120, 117, 190, 120, 195, 1, 6.34431
210, 3, wb, attraction, a-b-db, 5, 3, 4, 19, 195, 120, 117, 190, 120, 195, 3, 0.77582
210, 3, wb, attraction, a-b-da, 5, 1, 4, 20, 132, 58, 135, 60, 60, 135, 1, 4.942
210, 3, wb, attraction, a-b-da, 5, 1, 4, 20, 132, 58, 135, 60, 60, 135, 3, 1.16582
210, 3, wb, attraction, a-b-da, 2, 2, 4, 21, 163, 89, 90, 165, 165, 90, 1, 6.75665
210, 3, wb, attraction, a-b-da, 2, 2, 4, 21, 163, 89, 90, 165, 165, 90, 2, 0.795269
210, 3, wb, attraction, a-b-da, 9, 3, 4, 22, 120, 195, 186, 114, 195, 120, 2, 1.98506
210, 3, wb, attraction, a-b-da, 9, 3, 4, 22, 120, 195, 186, 114, 195, 120, 3, 0.984296
210, 3, wb, attraction, a-b-db, 9, 3, 4, 23, 195, 120, 114, 186, 120, 195, 1, 18.3827
210, 3, wb, attraction, a-b-db, 9, 3, 4, 23, 195, 120, 114, 186, 120, 195, 3, 0.99301
210, 3, wb, filler, NA, 999, 999, 4, 24, 186, 128, 89, 82, 170, 75, 2, 1.19044
210, 3, wb, filler, NA, 999, 999, 4, 24, 186, 128, 89, 82, 170, 75, 1, 0.821453
210, 3, wb, attraction, a-b-db, 9, 2, 4, 25, 86, 157, 165, 90, 90, 165, 1, 3.14652
210, 3, wb, attraction, a-b-db, 9, 2, 4, 25, 86, 157, 165, 90, 90, 165, 3, 0.722625
210, 3, wb, filler, NA, 999, 999, 4, 26, 153, 195, 88, 138, 72, 194, 2, 1.20367
210, 3, wb, filler, NA, 999, 999, 4, 26, 153, 195, 88, 138, 72, 194, 1, 0.690758
210, 3, wb, attraction, a-b-db, 14, 1, 4, 27, 135, 60, 60, 135, 56, 125, 1, 2.34042
210, 3, wb, attraction, a-b-db, 14, 1, 4, 27, 135, 60, 60, 135, 56, 125, 2, 0.989096
210, 3, wb, catch, NA, 999, 999, 4, 28, 138, 177, 65, 130, 158, 97, 2, 1.48328
210, 3, wb, catch, NA, 999, 999, 4, 28, 138, 177, 65, 130, 158, 97, 1, 0.534774
210, 3, wb, catch, NA, 999, 999, 4, 29, 180, 135, 105, 90, 115, 140, 2, 1.07118
210, 3, wb, catch, NA, 999, 999, 4, 29, 180, 135, 105, 90, 115, 140, 1, 0.642813
210, 3, wb, attraction, a-b-da, 9, 1, 4, 30, 135, 60, 60, 135, 129, 57, 1, 1.51067
210, 3, wb, attraction, a-b-da, 9, 1, 4, 30, 135, 60, 60, 135, 129, 57, 2, 6.14481
210, 3, wb, attraction, a-b-da, 2, 3, 4, 31, 193, 119, 120, 195, 195, 120, 1, 6.86293
210, 3, wb, attraction, a-b-da, 2, 3, 4, 31, 193, 119, 120, 195, 195, 120, 2, 0.681465
210, 3, wb, attraction, a-b-da, 14, 1, 4, 32, 125, 56, 135, 60, 60, 135, 1, 2.67571
210, 3, wb, attraction, a-b-da, 14, 1, 4, 32, 125, 56, 135, 60, 60, 135, 3, 0.758797
210, 3, wb, attraction, a-b-db, 14, 3, 4, 33, 195, 120, 111, 181, 120, 195, 1, 3.70183
210, 3, wb, attraction, a-b-db, 14, 3, 4, 33, 195, 120, 111, 181, 120, 195, 3, 0.991995
210, 3, wb, filler, NA, 999, 999, 4, 34, 175, 106, 84, 111, 77, 62, 3, 1.07762
210, 3, wb, filler, NA, 999, 999, 4, 34, 175, 106, 84, 111, 77, 62, 1, 0.545285
210, 3, wb, filler, NA, 999, 999, 4, 35, 147, 78, 93, 176, 130, 135, 1, 1.79303
210, 3, wb, filler, NA, 999, 999, 4, 35, 147, 78, 93, 176, 130, 135, 2, 1.59976
210, 3, wb, attraction, a-b-db, 5, 1, 4, 36, 135, 60, 60, 135, 58, 132, 1, 2.54918
210, 3, wb, attraction, a-b-db, 5, 1, 4, 36, 135, 60, 60, 135, 58, 132, 3, 2.05373
210, 3, wb, attraction, a-b-db, 2, 3, 4, 37, 119, 193, 195, 120, 120, 195, 1, 22.9612
210, 3, wb, attraction, a-b-db, 2, 3, 4, 37, 119, 193, 195, 120, 120, 195, 3, 0.835191
210, 3, wb, attraction, a-b-db, 2, 3, 5, 1, 119, 193, 195, 120, 120, 195, 1, 7.54229
210, 3, wb, attraction, a-b-db, 2, 3, 5, 1, 119, 193, 195, 120, 120, 195, 2, 0.485069
210, 3, wb, attraction, a-b-db, 9, 2, 5, 2, 86, 157, 165, 90, 90, 165, 1, 6.59165
210, 3, wb, attraction, a-b-db, 9, 2, 5, 2, 86, 157, 165, 90, 90, 165, 3, 0.468847
210, 3, wb, filler, NA, 999, 999, 5, 3, 142, 56, 146, 96, 151, 184, 1, 1.06402
210, 3, wb, filler, NA, 999, 999, 5, 3, 142, 56, 146, 96, 151, 184, 3, 0.868257
210, 3, wb, attraction, a-b-db, 9, 1, 5, 4, 135, 60, 60, 135, 57, 129, 1, 3.71934
210, 3, wb, attraction, a-b-db, 9, 1, 5, 4, 135, 60, 60, 135, 57, 129, 2, 1.12084
210, 3, wb, attraction, a-b-da, 5, 1, 5, 5, 135, 60, 132, 58, 60, 135, 2, 3.6496
210, 3, wb, attraction, a-b-da, 5, 1, 5, 5, 135, 60, 132, 58, 60, 135, 3, 1.4938
210, 3, wb, filler, NA, 999, 999, 5, 6, 110, 133, 161, 148, 135, 176, 1, 1.42328
210, 3, wb, filler, NA, 999, 999, 5, 6, 110, 133, 161, 148, 135, 176, 2, 5.6849
210, 3, wb, attraction, a-b-da, 14, 2, 5, 7, 153, 83, 90, 165, 165, 90, 1, 7.43763
210, 3, wb, attraction, a-b-da, 14, 2, 5, 7, 153, 83, 90, 165, 165, 90, 3, 3.13748
210, 3, wb, attraction, a-b-da, 2, 1, 5, 8, 134, 59, 60, 135, 135, 60, 1, 4.84098
210, 3, wb, attraction, a-b-da, 2, 1, 5, 8, 134, 59, 60, 135, 135, 60, 2, 0.780778
210, 3, wb, attraction, a-b-da, 14, 1, 5, 9, 60, 135, 135, 60, 125, 56, 3, 1.63517
210, 3, wb, attraction, a-b-da, 14, 1, 5, 9, 60, 135, 135, 60, 125, 56, 1, 1.85668
210, 3, wb, attraction, a-b-da, 2, 3, 5, 10, 120, 195, 195, 120, 193, 119, 3, 3.34003
210, 3, wb, attraction, a-b-da, 2, 3, 5, 10, 120, 195, 195, 120, 193, 119, 2, 0.732351
210, 3, wb, attraction, a-b-db, 14, 2, 5, 11, 165, 90, 83, 153, 90, 165, 1, 8.54848
210, 3, wb, attraction, a-b-db, 14, 2, 5, 11, 165, 90, 83, 153, 90, 165, 3, 2.29126
210, 3, wb, attraction, a-b-da, 9, 2, 5, 12, 157, 86, 90, 165, 165, 90, 1, 5.84439
210, 3, wb, attraction, a-b-da, 9, 2, 5, 12, 157, 86, 90, 165, 165, 90, 2, 0.807859
210, 3, wb, attraction, a-b-db, 5, 1, 5, 13, 135, 60, 58, 132, 60, 135, 1, 6.53284
210, 3, wb, attraction, a-b-db, 5, 1, 5, 13, 135, 60, 58, 132, 60, 135, 3, 0.700941
210, 3, wb, attraction, a-b-db, 5, 2, 5, 14, 90, 165, 88, 161, 165, 90, 3, 8.27073
210, 3, wb, attraction, a-b-db, 5, 2, 5, 14, 90, 165, 88, 161, 165, 90, 2, 1.56877
210, 3, wb, filler, NA, 999, 999, 5, 15, 169, 119, 175, 125, 148, 122, 3, 33.1194
210, 3, wb, filler, NA, 999, 999, 5, 15, 169, 119, 175, 125, 148, 122, 2, 0.679803
210, 3, wb, filler, NA, 999, 999, 5, 16, 117, 135, 105, 77, 92, 164, 2, 1.5941
210, 3, wb, filler, NA, 999, 999, 5, 16, 117, 135, 105, 77, 92, 164, 3, 4.20895
210, 3, wb, filler, NA, 999, 999, 5, 17, 125, 147, 141, 154, 175, 189, 1, 1.01291
210, 3, wb, filler, NA, 999, 999, 5, 17, 125, 147, 141, 154, 175, 189, 3, 0.595317
210, 3, wb, catch, NA, 999, 999, 5, 18, 129, 126, 104, 91, 124, 191, 2, 0.985066
210, 3, wb, catch, NA, 999, 999, 5, 18, 129, 126, 104, 91, 124, 191, 3, 0.504601
210, 3, wb, attraction, a-b-da, 9, 1, 5, 19, 60, 135, 135, 60, 129, 57, 3, 5.06644
210, 3, wb, attraction, a-b-da, 9, 1, 5, 19, 60, 135, 135, 60, 129, 57, 1, 2.37342
210, 3, wb, filler, NA, 999, 999, 5, 20, 64, 140, 105, 113, 80, 62, 3, 1.348
210, 3, wb, filler, NA, 999, 999, 5, 20, 64, 140, 105, 113, 80, 62, 2, 0.652893
210, 3, wb, attraction, a-b-db, 14, 1, 5, 21, 60, 135, 135, 60, 56, 125, 2, 2.8886
210, 3, wb, attraction, a-b-db, 14, 1, 5, 21, 60, 135, 135, 60, 56, 125, 1, 0.826945
210, 3, wb, catch, NA, 999, 999, 5, 22, 154, 101, 113, 82, 168, 147, 2, 1.4794
210, 3, wb, catch, NA, 999, 999, 5, 22, 154, 101, 113, 82, 168, 147, 3, 0.874961
210, 3, wb, attraction, a-b-da, 9, 3, 5, 23, 195, 120, 186, 114, 120, 195, 1, 4.10925
210, 3, wb, attraction, a-b-da, 9, 3, 5, 23, 195, 120, 186, 114, 120, 195, 3, 0.558557
210, 3, wb, attraction, a-b-db, 9, 3, 5, 24, 195, 120, 120, 195, 114, 186, 1, 3.44583
210, 3, wb, attraction, a-b-db, 9, 3, 5, 24, 195, 120, 120, 195, 114, 186, 2, 0.6421
210, 3, wb, attraction, a-b-db, 5, 3, 5, 25, 120, 195, 117, 190, 195, 120, 3, 5.78962
210, 3, wb, attraction, a-b-db, 5, 3, 5, 25, 120, 195, 117, 190, 195, 120, 2, 0.707166
210, 3, wb, catch, NA, 999, 999, 5, 26, 144, 111, 99, 96, 193, 122, 2, 2.15617
210, 3, wb, catch, NA, 999, 999, 5, 26, 144, 111, 99, 96, 193, 122, 3, 1.12421
210, 3, wb, filler, NA, 999, 999, 5, 27, 95, 94, 77, 170, 148, 100, 1, 1.56439
210, 3, wb, filler, NA, 999, 999, 5, 27, 95, 94, 77, 170, 148, 100, 3, 1.25257
210, 3, wb, attraction, a-b-da, 5, 2, 5, 28, 161, 88, 165, 90, 90, 165, 1, 5.52807
210, 3, wb, attraction, a-b-da, 5, 2, 5, 28, 161, 88, 165, 90, 90, 165, 3, 0.760391
210, 3, wb, filler, NA, 999, 999, 5, 29, 89, 160, 195, 84, 76, 140, 3, 3.94349
210, 3, wb, filler, NA, 999, 999, 5, 29, 89, 160, 195, 84, 76, 140, 1, 0.759581
210, 3, wb, attraction, a-b-db, 2, 2, 5, 30, 89, 163, 165, 90, 90, 165, 2, 14.3425
210, 3, wb, attraction, a-b-db, 2, 2, 5, 30, 89, 163, 165, 90, 90, 165, 3, 0.419435
210, 3, wb, filler, NA, 999, 999, 5, 31, 132, 140, 123, 140, 69, 132, 3, 1.96843
210, 3, wb, filler, NA, 999, 999, 5, 31, 132, 140, 123, 140, 69, 132, 1, 0.696526
210, 3, wb, attraction, a-b-da, 14, 3, 5, 32, 181, 111, 120, 195, 195, 120, 1, 56.7462
210, 3, wb, attraction, a-b-da, 14, 3, 5, 32, 181, 111, 120, 195, 195, 120, 2, 1.82645
210, 3, wb, attraction, a-b-da, 5, 3, 5, 33, 190, 117, 120, 195, 195, 120, 1, 2.95853
210, 3, wb, attraction, a-b-da, 5, 3, 5, 33, 190, 117, 120, 195, 195, 120, 3, 2.51027
210, 3, wb, attraction, a-b-da, 2, 2, 5, 34, 90, 165, 163, 89, 165, 90, 2, 18.7267
210, 3, wb, attraction, a-b-da, 2, 2, 5, 34, 90, 165, 163, 89, 165, 90, 1, 1.33835
210, 3, wb, attraction, a-b-db, 2, 1, 5, 35, 135, 60, 60, 135, 59, 134, 1, 3.15579
210, 3, wb, attraction, a-b-db, 2, 1, 5, 35, 135, 60, 60, 135, 59, 134, 2, 1.36346
210, 3, wb, attraction, a-b-db, 14, 3, 5, 36, 120, 195, 195, 120, 111, 181, 3, 10.6182
210, 3, wb, attraction, a-b-db, 14, 3, 5, 36, 120, 195, 195, 120, 111, 181, 1, 5.13348
210, 3, wb, filler, NA, 999, 999, 5, 37, 73, 127, 186, 189, 136, 187, 1, 1.2446
210, 3, wb, filler, NA, 999, 999, 5, 37, 73, 127, 186, 189, 136, 187, 2, 0.817468
210, 3, wb, attraction, a-b-da, 2, 1, 6, 1, 60, 135, 135, 60, 134, 59, 3, 3.19045
210, 3, wb, attraction, a-b-da, 2, 1, 6, 1, 60, 135, 135, 60, 134, 59, 1, 0.516769
210, 3, wb, filler, NA, 999, 999, 6, 2, 98, 139, 107, 60, 160, 56, 2, 5.01405
210, 3, wb, filler, NA, 999, 999, 6, 2, 98, 139, 107, 60, 160, 56, 1, 0.523023
210, 3, wb, attraction, a-b-da, 5, 3, 6, 3, 120, 195, 190, 117, 195, 120, 3, 3.7001
210, 3, wb, attraction, a-b-da, 5, 3, 6, 3, 120, 195, 190, 117, 195, 120, 1, 0.550216
210, 3, wb, attraction, a-b-db, 9, 2, 6, 4, 86, 157, 90, 165, 165, 90, 3, 2.50215
210, 3, wb, attraction, a-b-db, 9, 2, 6, 4, 86, 157, 90, 165, 165, 90, 2, 1.40847
210, 3, wb, attraction, a-b-db, 14, 2, 6, 5, 90, 165, 165, 90, 83, 153, 3, 5.56534
210, 3, wb, attraction, a-b-db, 14, 2, 6, 5, 90, 165, 165, 90, 83, 153, 1, 1.01226
210, 3, wb, catch, NA, 999, 999, 6, 6, 93, 162, 110, 85, 180, 135, 2, 1.67326
210, 3, wb, catch, NA, 999, 999, 6, 6, 93, 162, 110, 85, 180, 135, 3, 0.628732
210, 3, wb, catch, NA, 999, 999, 6, 7, 72, 123, 147, 108, 130, 185, 1, 1.40907
210, 3, wb, catch, NA, 999, 999, 6, 7, 72, 123, 147, 108, 130, 185, 3, 0.847279
210, 3, wb, attraction, a-b-db, 9, 3, 6, 8, 114, 186, 195, 120, 120, 195, 1, 1.48294
210, 3, wb, attraction, a-b-db, 9, 3, 6, 8, 114, 186, 195, 120, 120, 195, 3, 0.49442
210, 3, wb, attraction, a-b-db, 9, 1, 6, 9, 57, 129, 60, 135, 135, 60, 1, 8.25628
210, 3, wb, attraction, a-b-db, 9, 1, 6, 9, 57, 129, 60, 135, 135, 60, 2, 1.71434
210, 3, wb, attraction, a-b-da, 14, 1, 6, 10, 125, 56, 60, 135, 135, 60, 1, 2.52303
210, 3, wb, attraction, a-b-da, 14, 1, 6, 10, 125, 56, 60, 135, 135, 60, 2, 4.01217
210, 3, wb, attraction, a-b-db, 2, 2, 6, 11, 165, 90, 90, 165, 89, 163, 1, 8.38445
210, 3, wb, attraction, a-b-db, 2, 2, 6, 11, 165, 90, 90, 165, 89, 163, 3, 1.25369
210, 3, wb, filler, NA, 999, 999, 6, 12, 90, 120, 125, 119, 65, 102, 3, 0.929223
210, 3, wb, filler, NA, 999, 999, 6, 12, 90, 120, 125, 119, 65, 102, 2, 0.706941
210, 3, wb, attraction, a-b-da, 14, 2, 6, 13, 153, 83, 165, 90, 90, 165, 1, 4.73185
210, 3, wb, attraction, a-b-da, 14, 2, 6, 13, 153, 83, 165, 90, 90, 165, 2, 0.820405
210, 3, wb, filler, NA, 999, 999, 6, 14, 191, 138, 120, 113, 150, 138, 2, 2.07335
210, 3, wb, filler, NA, 999, 999, 6, 14, 191, 138, 120, 113, 150, 138, 1, 1.38885
210, 3, wb, filler, NA, 999, 999, 6, 15, 121, 180, 117, 138, 75, 143, 3, 1.435
210, 3, wb, filler, NA, 999, 999, 6, 15, 121, 180, 117, 138, 75, 143, 1, 0.760422
210, 3, wb, filler, NA, 999, 999, 6, 16, 136, 124, 113, 132, 143, 123, 2, 4.51148
210, 3, wb, filler, NA, 999, 999, 6, 16, 136, 124, 113, 132, 143, 123, 3, 0.536716
210, 3, wb, attraction, a-b-db, 5, 1, 6, 17, 135, 60, 60, 135, 58, 132, 1, 6.76935
210, 3, wb, attraction, a-b-db, 5, 1, 6, 17, 135, 60, 60, 135, 58, 132, 2, 3.49591
210, 3, wb, attraction, a-b-da, 9, 1, 6, 18, 60, 135, 135, 60, 129, 57, 3, 2.56852
210, 3, wb, attraction, a-b-da, 9, 1, 6, 18, 60, 135, 135, 60, 129, 57, 1, 0.992368
210, 3, wb, attraction, a-b-db, 2, 3, 6, 19, 195, 120, 119, 193, 120, 195, 1, 47.4701
210, 3, wb, attraction, a-b-db, 2, 3, 6, 19, 195, 120, 119, 193, 120, 195, 2, 1.65979
210, 3, wb, filler, NA, 999, 999, 6, 20, 67, 138, 140, 94, 91, 99, 3, 1.73458
210, 3, wb, filler, NA, 999, 999, 6, 20, 67, 138, 140, 94, 91, 99, 2, 0.536037
210, 3, wb, attraction, a-b-da, 5, 2, 6, 21, 161, 88, 90, 165, 165, 90, 1, 2.0565
210, 3, wb, attraction, a-b-da, 5, 2, 6, 21, 161, 88, 90, 165, 165, 90, 2, 1.75663
210, 3, wb, attraction, a-b-da, 9, 2, 6, 22, 90, 165, 165, 90, 157, 86, 3, 2.10784
210, 3, wb, attraction, a-b-da, 9, 2, 6, 22, 90, 165, 165, 90, 157, 86, 2, 1.44584
210, 3, wb, filler, NA, 999, 999, 6, 23, 159, 108, 181, 185, 163, 104, 1, 3.52135
210, 3, wb, filler, NA, 999, 999, 6, 23, 159, 108, 181, 185, 163, 104, 2, 1.0028
210, 3, wb, attraction, a-b-db, 5, 3, 6, 24, 120, 195, 195, 120, 117, 190, 2, 1.07258
210, 3, wb, attraction, a-b-db, 5, 3, 6, 24, 120, 195, 195, 120, 117, 190, 1, 1.16413
210, 3, wb, attraction, a-b-da, 14, 3, 6, 25, 181, 111, 195, 120, 120, 195, 1, 5.59493
210, 3, wb, attraction, a-b-da, 14, 3, 6, 25, 181, 111, 195, 120, 120, 195, 3, 1.71256
210, 3, wb, attraction, a-b-db, 2, 1, 6, 26, 135, 60, 60, 135, 59, 134, 1, 1.67329
210, 3, wb, attraction, a-b-db, 2, 1, 6, 26, 135, 60, 60, 135, 59, 134, 2, 0.932737
210, 3, wb, attraction, a-b-da, 9, 3, 6, 27, 120, 195, 186, 114, 195, 120, 2, 2.61305
210, 3, wb, attraction, a-b-da, 9, 3, 6, 27, 120, 195, 186, 114, 195, 120, 3, 2.01093
210, 3, wb, attraction, a-b-da, 5, 1, 6, 28, 60, 135, 135, 60, 132, 58, 3, 2.74362
210, 3, wb, attraction, a-b-da, 5, 1, 6, 28, 60, 135, 135, 60, 132, 58, 1, 0.880007
210, 3, wb, filler, NA, 999, 999, 6, 29, 99, 144, 64, 188, 157, 141, 2, 3.76232
210, 3, wb, filler, NA, 999, 999, 6, 29, 99, 144, 64, 188, 157, 141, 3, 0.745796
210, 3, wb, attraction, a-b-da, 2, 2, 6, 30, 165, 90, 163, 89, 90, 165, 1, 3.36155
210, 3, wb, attraction, a-b-da, 2, 2, 6, 30, 165, 90, 163, 89, 90, 165, 3, 0.792996
210, 3, wb, attraction, a-b-db, 14, 3, 6, 31, 195, 120, 120, 195, 111, 181, 3, 66.823
210, 3, wb, attraction, a-b-db, 14, 3, 6, 31, 195, 120, 120, 195, 111, 181, 2, 0.849254
210, 3, wb, attraction, a-b-db, 5, 2, 6, 32, 90, 165, 88, 161, 165, 90, 3, 15.341
210, 3, wb, attraction, a-b-db, 5, 2, 6, 32, 90, 165, 88, 161, 165, 90, 2, 7.65815
210, 3, wb, catch, NA, 999, 999, 6, 33, 131, 124, 149, 166, 66, 129, 3, 1.5476
210, 3, wb, catch, NA, 999, 999, 6, 33, 131, 124, 149, 166, 66, 129, 2, 2.45242
210, 3, wb, attraction, a-b-da, 2, 3, 6, 34, 195, 120, 120, 195, 193, 119, 1, 5.27963
210, 3, wb, attraction, a-b-da, 2, 3, 6, 34, 195, 120, 120, 195, 193, 119, 2, 0.906068
210, 3, wb, filler, NA, 999, 999, 6, 35, 151, 156, 168, 150, 141, 122, 3, 0.891657
210, 3, wb, filler, NA, 999, 999, 6, 35, 151, 156, 168, 150, 141, 122, 2, 1.85462
210, 3, wb, attraction, a-b-db, 14, 1, 6, 36, 60, 135, 56, 125, 135, 60, 2, 4.18601
210, 3, wb, attraction, a-b-db, 14, 1, 6, 36, 60, 135, 56, 125, 135, 60, 3, 1.92059
210, 3, wb, filler, NA, 999, 999, 6, 37, 166, 176, 105, 88, 159, 62, 2, 3.12137
210, 3, wb, filler, NA, 999, 999, 6, 37, 166, 176, 105, 88, 159, 62, 1, 0.730991
210, 3, wb, attraction, a-b-da, 5, 1, 7, 1, 60, 135, 135, 60, 132, 58, 2, 27.2754
210, 3, wb, attraction, a-b-da, 5, 1, 7, 1, 60, 135, 135, 60, 132, 58, 1, 1.03956
210, 3, wb, attraction, a-b-da, 2, 3, 7, 2, 193, 119, 120, 195, 195, 120, 1, 3.09977
210, 3, wb, attraction, a-b-da, 2, 3, 7, 2, 193, 119, 120, 195, 195, 120, 2, 1.15819
210, 3, wb, attraction, a-b-db, 5, 1, 7, 3, 58, 132, 60, 135, 135, 60, 1, 15.0851
210, 3, wb, attraction, a-b-db, 5, 1, 7, 3, 58, 132, 60, 135, 135, 60, 2, 0.756342
210, 3, wb, attraction, a-b-da, 2, 1, 7, 4, 135, 60, 134, 59, 60, 135, 3, 1.65998
210, 3, wb, attraction, a-b-da, 2, 1, 7, 4, 135, 60, 134, 59, 60, 135, 1, 1.64821
210, 3, wb, attraction, a-b-da, 9, 1, 7, 5, 135, 60, 129, 57, 60, 135, 2, 1.07561
210, 3, wb, attraction, a-b-da, 9, 1, 7, 5, 135, 60, 129, 57, 60, 135, 3, 0.839196
210, 3, wb, attraction, a-b-da, 14, 3, 7, 6, 120, 195, 195, 120, 181, 111, 3, 1.60351
210, 3, wb, attraction, a-b-da, 14, 3, 7, 6, 120, 195, 195, 120, 181, 111, 1, 0.5145
210, 3, wb, attraction, a-b-db, 2, 3, 7, 7, 119, 193, 195, 120, 120, 195, 2, 2.14748
210, 3, wb, attraction, a-b-db, 2, 3, 7, 7, 119, 193, 195, 120, 120, 195, 3, 0.460087
210, 3, wb, attraction, a-b-db, 14, 2, 7, 8, 83, 153, 90, 165, 165, 90, 1, 5.8153
210, 3, wb, attraction, a-b-db, 14, 2, 7, 8, 83, 153, 90, 165, 165, 90, 3, 0.644041
210, 3, wb, filler, NA, 999, 999, 7, 9, 75, 116, 158, 93, 113, 188, 1, 0.999787
210, 3, wb, filler, NA, 999, 999, 7, 9, 75, 116, 158, 93, 113, 188, 3, 0.430848
210, 3, wb, attraction, a-b-da, 14, 1, 7, 10, 135, 60, 125, 56, 60, 135, 2, 1.19529
210, 3, wb, attraction, a-b-da, 14, 1, 7, 10, 135, 60, 125, 56, 60, 135, 3, 1.73023
210, 3, wb, attraction, a-b-db, 9, 2, 7, 11, 165, 90, 86, 157, 90, 165, 2, 4.49027
210, 3, wb, attraction, a-b-db, 9, 2, 7, 11, 165, 90, 86, 157, 90, 165, 1, 2.05229
210, 3, wb, filler, NA, 999, 999, 7, 12, 71, 186, 123, 61, 143, 61, 2, 1.95138
210, 3, wb, filler, NA, 999, 999, 7, 12, 71, 186, 123, 61, 143, 61, 1, 0.568117
210, 3, wb, attraction, a-b-db, 2, 2, 7, 13, 89, 163, 90, 165, 165, 90, 1, 3.90325
210, 3, wb, attraction, a-b-db, 2, 2, 7, 13, 89, 163, 90, 165, 165, 90, 2, 2.18529
210, 3, wb, attraction, a-b-da, 9, 2, 7, 14, 157, 86, 90, 165, 165, 90, 1, 1.35128
210, 3, wb, attraction, a-b-da, 9, 2, 7, 14, 157, 86, 90, 165, 165, 90, 3, 0.792302
210, 3, wb, filler, NA, 999, 999, 7, 15, 154, 105, 73, 138, 135, 191, 2, 1.08582
210, 3, wb, filler, NA, 999, 999, 7, 15, 154, 105, 73, 138, 135, 191, 3, 0.401498
210, 3, wb, catch, NA, 999, 999, 7, 16, 93, 162, 150, 165, 82, 113, 3, 0.719293
210, 3, wb, catch, NA, 999, 999, 7, 16, 93, 162, 150, 165, 82, 113, 2, 0.425739
210, 3, wb, attraction, a-b-da, 2, 2, 7, 17, 90, 165, 165, 90, 163, 89, 3, 2.34219
210, 3, wb, attraction, a-b-da, 2, 2, 7, 17, 90, 165, 165, 90, 163, 89, 1, 0.622697
210, 3, wb, attraction, a-b-db, 9, 1, 7, 18, 57, 129, 135, 60, 60, 135, 1, 1.53195
210, 3, wb, attraction, a-b-db, 9, 1, 7, 18, 57, 129, 135, 60, 60, 135, 3, 1.08533
210, 3, wb, attraction, a-b-db, 2, 1, 7, 19, 60, 135, 59, 134, 135, 60, 3, 3.95962
210, 3, wb, attraction, a-b-db, 2, 1, 7, 19, 60, 135, 59, 134, 135, 60, 1, 0.854963
210, 3, wb, catch, NA, 999, 999, 7, 20, 130, 65, 99, 156, 141, 174, 1, 1.56269
210, 3, wb, catch, NA, 999, 999, 7, 20, 130, 65, 99, 156, 141, 174, 3, 0.626861
210, 3, wb, filler, NA, 999, 999, 7, 21, 88, 96, 151, 144, 131, 151, 1, 1.17523
210, 3, wb, filler, NA, 999, 999, 7, 21, 88, 96, 151, 144, 131, 151, 2, 2.06292
210, 3, wb, attraction, a-b-da, 9, 3, 7, 22, 195, 120, 186, 114, 120, 195, 2, 27.5057
210, 3, wb, attraction, a-b-da, 9, 3, 7, 22, 195, 120, 186, 114, 120, 195, 3, 0.516145
210, 3, wb, filler, NA, 999, 999, 7, 23, 187, 158, 178, 87, 132, 194, 2, 0.869367
210, 3, wb, filler, NA, 999, 999, 7, 23, 187, 158, 178, 87, 132, 194, 1, 1.52169
210, 3, wb, attraction, a-b-da, 5, 2, 7, 24, 165, 90, 90, 165, 161, 88, 1, 49.8345
210, 3, wb, attraction, a-b-da, 5, 2, 7, 24, 165, 90, 90, 165, 161, 88, 2, 0.737528
210, 3, wb, attraction, a-b-db, 5, 2, 7, 25, 165, 90, 90, 165, 88, 161, 1, 1.70594
210, 3, wb, attraction, a-b-db, 5, 2, 7, 25, 165, 90, 90, 165, 88, 161, 2, 0.628152
210, 3, wb, filler, NA, 999, 999, 7, 26, 150, 149, 77, 56, 171, 94, 2, 0.888394
210, 3, wb, filler, NA, 999, 999, 7, 26, 150, 149, 77, 56, 171, 94, 1, 0.53949
210, 3, wb, attraction, a-b-db, 14, 1, 7, 27, 60, 135, 56, 125, 135, 60, 3, 2.5645
210, 3, wb, attraction, a-b-db, 14, 1, 7, 27, 60, 135, 56, 125, 135, 60, 1, 0.619809
210, 3, wb, catch, NA, 999, 999, 7, 28, 127, 188, 75, 120, 123, 132, 2, 1.32095
210, 3, wb, catch, NA, 999, 999, 7, 28, 127, 188, 75, 120, 123, 132, 1, 0.491079
210, 3, wb, filler, NA, 999, 999, 7, 29, 62, 146, 75, 125, 176, 102, 1, 2.32492
210, 3, wb, filler, NA, 999, 999, 7, 29, 62, 146, 75, 125, 176, 102, 3, 1.94218
210, 3, wb, attraction, a-b-da, 14, 2, 7, 30, 153, 83, 90, 165, 165, 90, 1, 2.14954
210, 3, wb, attraction, a-b-da, 14, 2, 7, 30, 153, 83, 90, 165, 165, 90, 3, 2.46212
210, 3, wb, attraction, a-b-da, 5, 3, 7, 31, 190, 117, 195, 120, 120, 195, 1, 9.77675
210, 3, wb, attraction, a-b-da, 5, 3, 7, 31, 190, 117, 195, 120, 120, 195, 3, 3.35772
210, 3, wb, filler, NA, 999, 999, 7, 32, 179, 142, 57, 156, 107, 180, 2, 1.11573
210, 3, wb, filler, NA, 999, 999, 7, 32, 179, 142, 57, 156, 107, 180, 1, 1.35002
210, 3, wb, filler, NA, 999, 999, 7, 33, 88, 139, 169, 144, 64, 111, 3, 1.11759
210, 3, wb, filler, NA, 999, 999, 7, 33, 88, 139, 169, 144, 64, 111, 2, 0.911923
210, 3, wb, attraction, a-b-db, 5, 3, 7, 34, 195, 120, 117, 190, 120, 195, 1, 6.92086
210, 3, wb, attraction, a-b-db, 5, 3, 7, 34, 195, 120, 117, 190, 120, 195, 3, 1.23329
210, 3, wb, attraction, a-b-db, 14, 3, 7, 35, 120, 195, 195, 120, 111, 181, 3, 2.26961
210, 3, wb, attraction, a-b-db, 14, 3, 7, 35, 120, 195, 195, 120, 111, 181, 1, 2.35354
210, 3, wb, attraction, a-b-db, 9, 3, 7, 36, 195, 120, 120, 195, 114, 186, 3, 11.6166
210, 3, wb, attraction, a-b-db, 9, 3, 7, 36, 195, 120, 120, 195, 114, 186, 2, 3.5078
210, 3, wb, filler, NA, 999, 999, 7, 37, 165, 163, 152, 156, 73, 83, 3, 1.81205
210, 3, wb, filler, NA, 999, 999, 7, 37, 165, 163, 152, 156, 73, 83, 1, 1.69798
210, 3, wb, attraction, a-b-db, 14, 2, 8, 1, 90, 165, 83, 153, 165, 90, 2, 1.94741
210, 3, wb, attraction, a-b-db, 14, 2, 8, 1, 90, 165, 83, 153, 165, 90, 3, 1.02814
210, 3, wb, attraction, a-b-db, 9, 3, 8, 2, 195, 120, 114, 186, 120, 195, 2, 27.1923
210, 3, wb, attraction, a-b-db, 9, 3, 8, 2, 195, 120, 114, 186, 120, 195, 3, 1.00783
210, 3, wb, attraction, a-b-da, 9, 3, 8, 3, 195, 120, 120, 195, 186, 114, 3, 2.95676
210, 3, wb, attraction, a-b-da, 9, 3, 8, 3, 195, 120, 120, 195, 186, 114, 2, 0.564513
210, 3, wb, filler, NA, 999, 999, 8, 4, 187, 188, 93, 186, 180, 120, 3, 2.56369
210, 3, wb, filler, NA, 999, 999, 8, 4, 187, 188, 93, 186, 180, 120, 1, 1.14748
210, 3, wb, catch, NA, 999, 999, 8, 5, 115, 80, 156, 99, 185, 130, 1, 1.03501
210, 3, wb, catch, NA, 999, 999, 8, 5, 115, 80, 156, 99, 185, 130, 3, 0.640683
210, 3, wb, attraction, a-b-db, 2, 2, 8, 6, 90, 165, 165, 90, 89, 163, 3, 1.83643
210, 3, wb, attraction, a-b-db, 2, 2, 8, 6, 90, 165, 165, 90, 89, 163, 1, 0.857792
210, 3, wb, filler, NA, 999, 999, 8, 7, 135, 87, 151, 94, 166, 127, 1, 2.22086
210, 3, wb, filler, NA, 999, 999, 8, 7, 135, 87, 151, 94, 166, 127, 3, 1.93081
210, 3, wb, attraction, a-b-da, 14, 3, 8, 8, 120, 195, 181, 111, 195, 120, 2, 3.42693
210, 3, wb, attraction, a-b-da, 14, 3, 8, 8, 120, 195, 181, 111, 195, 120, 1, 1.19988
210, 3, wb, filler, NA, 999, 999, 8, 9, 90, 173, 62, 149, 101, 190, 2, 1.74123
210, 3, wb, filler, NA, 999, 999, 8, 9, 90, 173, 62, 149, 101, 190, 3, 1.43812
210, 3, wb, attraction, a-b-da, 5, 3, 8, 10, 195, 120, 190, 117, 120, 195, 1, 9.12213
210, 3, wb, attraction, a-b-da, 5, 3, 8, 10, 195, 120, 190, 117, 120, 195, 3, 0.778015
210, 3, wb, attraction, a-b-db, 9, 1, 8, 11, 57, 129, 135, 60, 60, 135, 1, 4.01641
210, 3, wb, attraction, a-b-db, 9, 1, 8, 11, 57, 129, 135, 60, 60, 135, 3, 1.26972
210, 3, wb, attraction, a-b-da, 9, 1, 8, 12, 60, 135, 135, 60, 129, 57, 3, 1.96053
210, 3, wb, attraction, a-b-da, 9, 1, 8, 12, 60, 135, 135, 60, 129, 57, 1, 1.22458
210, 3, wb, attraction, a-b-db, 2, 3, 8, 13, 120, 195, 119, 193, 195, 120, 3, 11.1169
210, 3, wb, attraction, a-b-db, 2, 3, 8, 13, 120, 195, 119, 193, 195, 120, 2, 1.85992
210, 3, wb, filler, NA, 999, 999, 8, 14, 117, 110, 163, 180, 60, 179, 1, 1.43062
210, 3, wb, filler, NA, 999, 999, 8, 14, 117, 110, 163, 180, 60, 179, 2, 4.08411
210, 3, wb, attraction, a-b-da, 14, 2, 8, 15, 90, 165, 165, 90, 153, 83, 3, 2.47753
210, 3, wb, attraction, a-b-da, 14, 2, 8, 15, 90, 165, 165, 90, 153, 83, 2, 2.00073
210, 3, wb, attraction, a-b-db, 5, 1, 8, 16, 60, 135, 58, 132, 135, 60, 2, 3.15009
210, 3, wb, attraction, a-b-db, 5, 1, 8, 16, 60, 135, 58, 132, 135, 60, 3, 2.73442
210, 3, wb, attraction, a-b-da, 9, 2, 8, 17, 165, 90, 90, 165, 157, 86, 3, 7.63817
210, 3, wb, attraction, a-b-da, 9, 2, 8, 17, 165, 90, 90, 165, 157, 86, 2, 0.929694
210, 3, wb, attraction, a-b-db, 14, 3, 8, 18, 195, 120, 120, 195, 111, 181, 1, 60.5702
210, 3, wb, attraction, a-b-db, 14, 3, 8, 18, 195, 120, 120, 195, 111, 181, 2, 0.592512
210, 3, wb, filler, NA, 999, 999, 8, 19, 138, 123, 128, 89, 142, 78, 3, 1.79034
210, 3, wb, filler, NA, 999, 999, 8, 19, 138, 123, 128, 89, 142, 78, 1, 0.484849
210, 3, wb, attraction, a-b-da, 2, 2, 8, 20, 165, 90, 163, 89, 90, 165, 1, 2.83934
210, 3, wb, attraction, a-b-da, 2, 2, 8, 20, 165, 90, 163, 89, 90, 165, 3, 1.34783
210, 3, wb, attraction, a-b-db, 14, 1, 8, 21, 56, 125, 135, 60, 60, 135, 1, 1.39525
210, 3, wb, attraction, a-b-db, 14, 1, 8, 21, 56, 125, 135, 60, 60, 135, 3, 0.762171
210, 3, wb, catch, NA, 999, 999, 8, 22, 158, 157, 109, 86, 90, 165, 2, 0.769154
210, 3, wb, catch, NA, 999, 999, 8, 22, 158, 157, 109, 86, 90, 165, 1, 0.953621
210, 3, wb, filler, NA, 999, 999, 8, 23, 78, 126, 192, 148, 150, 63, 1, 1.49722
210, 3, wb, filler, NA, 999, 999, 8, 23, 78, 126, 192, 148, 150, 63, 2, 0.492043
210, 3, wb, attraction, a-b-da, 2, 3, 8, 24, 193, 119, 120, 195, 195, 120, 1, 2.46992
210, 3, wb, attraction, a-b-da, 2, 3, 8, 24, 193, 119, 120, 195, 195, 120, 2, 0.721723
210, 3, wb, filler, NA, 999, 999, 8, 25, 109, 170, 137, 152, 76, 151, 3, 0.826782
210, 3, wb, filler, NA, 999, 999, 8, 25, 109, 170, 137, 152, 76, 151, 2, 0.776561
210, 3, wb, filler, NA, 999, 999, 8, 26, 158, 71, 159, 178, 186, 102, 1, 0.758834
210, 3, wb, filler, NA, 999, 999, 8, 26, 158, 71, 159, 178, 186, 102, 2, 0.61523
210, 3, wb, attraction, a-b-db, 2, 1, 8, 27, 59, 134, 135, 60, 60, 135, 3, 4.94032
210, 3, wb, attraction, a-b-db, 2, 1, 8, 27, 59, 134, 135, 60, 60, 135, 2, 0.708168
210, 3, wb, attraction, a-b-db, 5, 3, 8, 28, 120, 195, 117, 190, 195, 120, 3, 2.63724
210, 3, wb, attraction, a-b-db, 5, 3, 8, 28, 120, 195, 117, 190, 195, 120, 2, 1.29835
210, 3, wb, attraction, a-b-da, 5, 1, 8, 29, 60, 135, 132, 58, 135, 60, 2, 6.35595
210, 3, wb, attraction, a-b-da, 5, 1, 8, 29, 60, 135, 132, 58, 135, 60, 1, 0.963204
210, 3, wb, attraction, a-b-da, 14, 1, 8, 30, 135, 60, 125, 56, 60, 135, 2, 2.2022
210, 3, wb, attraction, a-b-da, 14, 1, 8, 30, 135, 60, 125, 56, 60, 135, 3, 0.632799
210, 3, wb, attraction, a-b-db, 5, 2, 8, 31, 90, 165, 165, 90, 88, 161, 2, 4.66933
210, 3, wb, attraction, a-b-db, 5, 2, 8, 31, 90, 165, 165, 90, 88, 161, 3, 0.696519
210, 3, wb, attraction, a-b-da, 5, 2, 8, 32, 90, 165, 161, 88, 165, 90, 1, 3.64211
210, 3, wb, attraction, a-b-da, 5, 2, 8, 32, 90, 165, 161, 88, 165, 90, 2, 0.654304
210, 3, wb, filler, NA, 999, 999, 8, 33, 67, 59, 171, 174, 129, 178, 1, 0.945985
210, 3, wb, filler, NA, 999, 999, 8, 33, 67, 59, 171, 174, 129, 178, 2, 0.587107
210, 3, wb, catch, NA, 999, 999, 8, 34, 133, 182, 67, 128, 145, 110, 2, 0.833483
210, 3, wb, catch, NA, 999, 999, 8, 34, 133, 182, 67, 128, 145, 110, 1, 0.527181
210, 3, wb, filler, NA, 999, 999, 8, 35, 153, 160, 78, 139, 69, 115, 3, 1.07971
210, 3, wb, filler, NA, 999, 999, 8, 35, 153, 160, 78, 139, 69, 115, 1, 0.75528
210, 3, wb, attraction, a-b-db, 9, 2, 8, 36, 86, 157, 90, 165, 165, 90, 1, 9.19492
210, 3, wb, attraction, a-b-db, 9, 2, 8, 36, 86, 157, 90, 165, 165, 90, 2, 0.72749
210, 3, wb, attraction, a-b-da, 2, 1, 8, 37, 134, 59, 60, 135, 135, 60, 1, 2.23973
210, 3, wb, attraction, a-b-da, 2, 1, 8, 37, 134, 59, 60, 135, 135, 60, 2, 1.14051
