sub_n, computer_n, bw_cond, effect, set, distance, diag, block_n, trial_n, h1, w1, h2, w2, h3, w3, choice, rt 
236, 3, wb, practice, NA, 999, 999, 0, 1, 73, 80, 184, 161, 59, 140, 1, 3.77423
236, 3, wb, practice, NA, 999, 999, 0, 1, 73, 80, 184, 161, 59, 140, 2, 2.4911
236, 3, wb, practice, NA, 999, 999, 0, 2, 145, 143, 141, 185, 191, 89, 3, 4.0027
236, 3, wb, practice, NA, 999, 999, 0, 2, 145, 143, 141, 185, 191, 89, 2, 2.1114
236, 3, wb, practice, NA, 999, 999, 0, 3, 104, 56, 144, 87, 70, 83, 1, 9.38135
236, 3, wb, practice, NA, 999, 999, 0, 3, 104, 56, 144, 87, 70, 83, 2, 1.77972
236, 3, wb, attraction, a-b-da, 2, 2, 1, 1, 163, 89, 165, 90, 90, 165, 1, 6.90403
236, 3, wb, attraction, a-b-da, 2, 2, 1, 1, 163, 89, 165, 90, 90, 165, 3, 2.56113
236, 3, wb, filler, NA, 999, 999, 1, 2, 60, 108, 57, 138, 158, 106, 1, 2.40758
236, 3, wb, filler, NA, 999, 999, 1, 2, 60, 108, 57, 138, 158, 106, 3, 1.41343
236, 3, wb, attraction, a-b-db, 14, 2, 1, 3, 83, 153, 165, 90, 90, 165, 1, 4.30625
236, 3, wb, attraction, a-b-db, 14, 2, 1, 3, 83, 153, 165, 90, 90, 165, 3, 2.44354
236, 3, wb, attraction, a-b-da, 14, 3, 1, 4, 181, 111, 120, 195, 195, 120, 1, 1.83877
236, 3, wb, attraction, a-b-da, 14, 3, 1, 4, 181, 111, 120, 195, 195, 120, 2, 0.851469
236, 3, wb, catch, NA, 999, 999, 1, 5, 186, 129, 124, 131, 72, 123, 3, 1.8312
236, 3, wb, catch, NA, 999, 999, 1, 5, 186, 129, 124, 131, 72, 123, 1, 1.21268
236, 3, wb, attraction, a-b-db, 5, 2, 1, 6, 90, 165, 88, 161, 165, 90, 3, 3.87352
236, 3, wb, attraction, a-b-db, 5, 2, 1, 6, 90, 165, 88, 161, 165, 90, 1, 0.532228
236, 3, wb, attraction, a-b-da, 5, 2, 1, 7, 90, 165, 165, 90, 161, 88, 3, 3.73256
236, 3, wb, attraction, a-b-da, 5, 2, 1, 7, 90, 165, 165, 90, 161, 88, 1, 0.557576
236, 3, wb, catch, NA, 999, 999, 1, 8, 148, 107, 173, 142, 83, 112, 3, 1.58053
236, 3, wb, catch, NA, 999, 999, 1, 8, 148, 107, 173, 142, 83, 112, 2, 0.940109
236, 3, wb, attraction, a-b-da, 2, 3, 1, 9, 120, 195, 193, 119, 195, 120, 3, 7.06772
236, 3, wb, attraction, a-b-da, 2, 3, 1, 9, 120, 195, 193, 119, 195, 120, 1, 1.74227
236, 3, wb, attraction, a-b-db, 2, 3, 1, 10, 195, 120, 119, 193, 120, 195, 1, 1.50158
236, 3, wb, attraction, a-b-db, 2, 3, 1, 10, 195, 120, 119, 193, 120, 195, 3, 0.936368
236, 3, wb, filler, NA, 999, 999, 1, 11, 157, 158, 58, 162, 166, 57, 3, 3.90477
236, 3, wb, filler, NA, 999, 999, 1, 11, 157, 158, 58, 162, 166, 57, 1, 1.18613
236, 3, wb, attraction, a-b-da, 5, 1, 1, 12, 60, 135, 135, 60, 132, 58, 3, 2.44831
236, 3, wb, attraction, a-b-da, 5, 1, 1, 12, 60, 135, 135, 60, 132, 58, 1, 0.884867
236, 3, wb, attraction, a-b-db, 9, 1, 1, 13, 60, 135, 135, 60, 57, 129, 2, 1.95134
236, 3, wb, attraction, a-b-db, 9, 1, 1, 13, 60, 135, 135, 60, 57, 129, 1, 0.56002
236, 3, wb, attraction, a-b-da, 9, 3, 1, 14, 186, 114, 195, 120, 120, 195, 1, 2.51095
236, 3, wb, attraction, a-b-da, 9, 3, 1, 14, 186, 114, 195, 120, 120, 195, 3, 0.504785
236, 3, wb, filler, NA, 999, 999, 1, 15, 103, 178, 122, 149, 112, 56, 3, 1.0747
236, 3, wb, filler, NA, 999, 999, 1, 15, 103, 178, 122, 149, 112, 56, 1, 0.782278
236, 3, wb, filler, NA, 999, 999, 1, 16, 76, 110, 107, 156, 187, 185, 1, 1.05278
236, 3, wb, filler, NA, 999, 999, 1, 16, 76, 110, 107, 156, 187, 185, 3, 0.833587
236, 3, wb, filler, NA, 999, 999, 1, 17, 94, 73, 100, 76, 195, 120, 2, 1.05394
236, 3, wb, filler, NA, 999, 999, 1, 17, 94, 73, 100, 76, 195, 120, 3, 0.435012
236, 3, wb, filler, NA, 999, 999, 1, 18, 137, 107, 58, 106, 64, 68, 3, 0.953402
236, 3, wb, filler, NA, 999, 999, 1, 18, 137, 107, 58, 106, 64, 68, 1, 0.664561
236, 3, wb, attraction, a-b-db, 2, 2, 1, 19, 165, 90, 89, 163, 90, 165, 2, 3.71565
236, 3, wb, attraction, a-b-db, 2, 2, 1, 19, 165, 90, 89, 163, 90, 165, 1, 1.85313
236, 3, wb, attraction, a-b-db, 9, 2, 1, 20, 165, 90, 90, 165, 86, 157, 3, 2.70445
236, 3, wb, attraction, a-b-db, 9, 2, 1, 20, 165, 90, 90, 165, 86, 157, 2, 1.37078
236, 3, wb, attraction, a-b-db, 5, 1, 1, 21, 60, 135, 135, 60, 58, 132, 1, 2.54567
236, 3, wb, attraction, a-b-db, 5, 1, 1, 21, 60, 135, 135, 60, 58, 132, 3, 1.40218
236, 3, wb, filler, NA, 999, 999, 1, 22, 134, 112, 174, 129, 150, 96, 3, 1.71969
236, 3, wb, filler, NA, 999, 999, 1, 22, 134, 112, 174, 129, 150, 96, 2, 0.761804
236, 3, wb, attraction, a-b-db, 14, 3, 1, 23, 111, 181, 120, 195, 195, 120, 1, 1.24889
236, 3, wb, attraction, a-b-db, 14, 3, 1, 23, 111, 181, 120, 195, 195, 120, 3, 1.12583
236, 3, wb, filler, NA, 999, 999, 1, 24, 115, 128, 187, 162, 194, 169, 1, 0.61402
236, 3, wb, filler, NA, 999, 999, 1, 24, 115, 128, 187, 162, 194, 169, 3, 1.01241
236, 3, wb, attraction, a-b-da, 14, 2, 1, 25, 165, 90, 90, 165, 153, 83, 3, 1.64142
236, 3, wb, attraction, a-b-da, 14, 2, 1, 25, 165, 90, 90, 165, 153, 83, 1, 1.11011
236, 3, wb, attraction, a-b-db, 2, 1, 1, 26, 59, 134, 135, 60, 60, 135, 1, 1.31192
236, 3, wb, attraction, a-b-db, 2, 1, 1, 26, 59, 134, 135, 60, 60, 135, 3, 0.577342
236, 3, wb, attraction, a-b-da, 9, 2, 1, 27, 165, 90, 157, 86, 90, 165, 2, 2.78391
236, 3, wb, attraction, a-b-da, 9, 2, 1, 27, 165, 90, 157, 86, 90, 165, 3, 0.967053
236, 3, wb, filler, NA, 999, 999, 1, 28, 157, 77, 137, 166, 109, 79, 3, 1.4938
236, 3, wb, filler, NA, 999, 999, 1, 28, 157, 77, 137, 166, 109, 79, 2, 0.568761
236, 3, wb, filler, NA, 999, 999, 1, 29, 88, 147, 153, 84, 102, 129, 1, 5.23182
236, 3, wb, filler, NA, 999, 999, 1, 29, 88, 147, 153, 84, 102, 129, 3, 0.916144
236, 3, wb, attraction, a-b-da, 5, 3, 1, 30, 195, 120, 190, 117, 120, 195, 1, 3.29325
236, 3, wb, attraction, a-b-da, 5, 3, 1, 30, 195, 120, 190, 117, 120, 195, 3, 0.639475
236, 3, wb, attraction, a-b-db, 14, 1, 1, 31, 135, 60, 56, 125, 60, 135, 2, 1.09975
236, 3, wb, attraction, a-b-db, 14, 1, 1, 31, 135, 60, 56, 125, 60, 135, 1, 1.03074
236, 3, wb, attraction, a-b-da, 2, 1, 1, 32, 60, 135, 134, 59, 135, 60, 3, 1.54711
236, 3, wb, attraction, a-b-da, 2, 1, 1, 32, 60, 135, 134, 59, 135, 60, 1, 0.57182
236, 3, wb, attraction, a-b-db, 9, 3, 1, 33, 114, 186, 195, 120, 120, 195, 2, 2.90702
236, 3, wb, attraction, a-b-db, 9, 3, 1, 33, 114, 186, 195, 120, 120, 195, 3, 0.684756
236, 3, wb, attraction, a-b-db, 5, 3, 1, 34, 195, 120, 120, 195, 117, 190, 1, 3.35109
236, 3, wb, attraction, a-b-db, 5, 3, 1, 34, 195, 120, 120, 195, 117, 190, 3, 0.527431
236, 3, wb, attraction, a-b-da, 9, 1, 1, 35, 129, 57, 60, 135, 135, 60, 1, 1.95984
236, 3, wb, attraction, a-b-da, 9, 1, 1, 35, 129, 57, 60, 135, 135, 60, 3, 0.543863
236, 3, wb, attraction, a-b-da, 14, 1, 1, 36, 125, 56, 135, 60, 60, 135, 3, 1.5837
236, 3, wb, attraction, a-b-da, 14, 1, 1, 36, 125, 56, 135, 60, 60, 135, 2, 1.01511
236, 3, wb, catch, NA, 999, 999, 1, 37, 141, 114, 133, 62, 177, 138, 2, 1.30811
236, 3, wb, catch, NA, 999, 999, 1, 37, 141, 114, 133, 62, 177, 138, 3, 0.878286
236, 3, wb, attraction, a-b-da, 5, 2, 2, 1, 90, 165, 161, 88, 165, 90, 2, 2.04077
236, 3, wb, attraction, a-b-da, 5, 2, 2, 1, 90, 165, 161, 88, 165, 90, 3, 0.501309
236, 3, wb, attraction, a-b-db, 5, 3, 2, 2, 195, 120, 117, 190, 120, 195, 1, 2.31104
236, 3, wb, attraction, a-b-db, 5, 3, 2, 2, 195, 120, 117, 190, 120, 195, 2, 0.809051
236, 3, wb, attraction, a-b-da, 5, 3, 2, 3, 120, 195, 195, 120, 190, 117, 3, 3.77407
236, 3, wb, attraction, a-b-da, 5, 3, 2, 3, 120, 195, 195, 120, 190, 117, 1, 0.636854
236, 3, wb, attraction, a-b-da, 2, 2, 2, 4, 90, 165, 165, 90, 163, 89, 1, 1.29716
236, 3, wb, attraction, a-b-da, 2, 2, 2, 4, 90, 165, 165, 90, 163, 89, 3, 1.01827
236, 3, wb, catch, NA, 999, 999, 2, 5, 121, 134, 153, 162, 120, 75, 3, 0.953097
236, 3, wb, catch, NA, 999, 999, 2, 5, 121, 134, 153, 162, 120, 75, 2, 0.642208
236, 3, wb, attraction, a-b-db, 2, 1, 2, 6, 59, 134, 60, 135, 135, 60, 1, 1.3819
236, 3, wb, attraction, a-b-db, 2, 1, 2, 6, 59, 134, 60, 135, 135, 60, 3, 0.829382
236, 3, wb, catch, NA, 999, 999, 2, 7, 122, 73, 149, 166, 142, 113, 1, 0.62576
236, 3, wb, catch, NA, 999, 999, 2, 7, 122, 73, 149, 166, 142, 113, 2, 0.575553
236, 3, wb, attraction, a-b-db, 9, 2, 2, 8, 165, 90, 86, 157, 90, 165, 2, 4.198
236, 3, wb, attraction, a-b-db, 9, 2, 2, 8, 165, 90, 86, 157, 90, 165, 1, 0.611905
236, 3, wb, filler, NA, 999, 999, 2, 9, 61, 89, 107, 75, 168, 146, 1, 1.05701
236, 3, wb, filler, NA, 999, 999, 2, 9, 61, 89, 107, 75, 168, 146, 3, 0.533323
236, 3, wb, attraction, a-b-da, 14, 2, 2, 10, 90, 165, 153, 83, 165, 90, 3, 2.14177
236, 3, wb, attraction, a-b-da, 14, 2, 2, 10, 90, 165, 153, 83, 165, 90, 1, 1.1024
236, 3, wb, attraction, a-b-da, 5, 1, 2, 11, 132, 58, 135, 60, 60, 135, 2, 1.01601
236, 3, wb, attraction, a-b-da, 5, 1, 2, 11, 132, 58, 135, 60, 60, 135, 3, 0.438378
236, 3, wb, attraction, a-b-db, 2, 2, 2, 12, 165, 90, 90, 165, 89, 163, 1, 1.21071
236, 3, wb, attraction, a-b-db, 2, 2, 2, 12, 165, 90, 90, 165, 89, 163, 3, 0.617078
236, 3, wb, attraction, a-b-db, 14, 3, 2, 13, 111, 181, 195, 120, 120, 195, 1, 1.96617
236, 3, wb, attraction, a-b-db, 14, 3, 2, 13, 111, 181, 195, 120, 120, 195, 3, 0.734119
236, 3, wb, attraction, a-b-da, 14, 3, 2, 14, 181, 111, 195, 120, 120, 195, 1, 1.25458
236, 3, wb, attraction, a-b-da, 14, 3, 2, 14, 181, 111, 195, 120, 120, 195, 3, 0.770741
236, 3, wb, filler, NA, 999, 999, 2, 15, 124, 73, 156, 80, 97, 114, 1, 1.44976
236, 3, wb, filler, NA, 999, 999, 2, 15, 124, 73, 156, 80, 97, 114, 2, 1.39064
236, 3, wb, attraction, a-b-db, 14, 1, 2, 16, 56, 125, 135, 60, 60, 135, 2, 2.46007
236, 3, wb, attraction, a-b-db, 14, 1, 2, 16, 56, 125, 135, 60, 60, 135, 3, 1.17604
236, 3, wb, filler, NA, 999, 999, 2, 17, 78, 95, 94, 98, 104, 71, 1, 1.1742
236, 3, wb, filler, NA, 999, 999, 2, 17, 78, 95, 94, 98, 104, 71, 3, 0.509792
236, 3, wb, attraction, a-b-da, 2, 3, 2, 18, 120, 195, 195, 120, 193, 119, 1, 1.13505
236, 3, wb, attraction, a-b-da, 2, 3, 2, 18, 120, 195, 195, 120, 193, 119, 3, 0.408551
236, 3, wb, attraction, a-b-da, 14, 1, 2, 19, 125, 56, 135, 60, 60, 135, 1, 0.6379
236, 3, wb, attraction, a-b-da, 14, 1, 2, 19, 125, 56, 135, 60, 60, 135, 3, 0.498782
236, 3, wb, catch, NA, 999, 999, 2, 20, 79, 116, 155, 100, 139, 176, 1, 0.764577
236, 3, wb, catch, NA, 999, 999, 2, 20, 79, 116, 155, 100, 139, 176, 3, 0.925035
236, 3, wb, filler, NA, 999, 999, 2, 21, 112, 120, 190, 192, 169, 189, 1, 1.00532
236, 3, wb, filler, NA, 999, 999, 2, 21, 112, 120, 190, 192, 169, 189, 2, 0.563666
236, 3, wb, attraction, a-b-db, 9, 3, 2, 22, 114, 186, 120, 195, 195, 120, 3, 1.47484
236, 3, wb, attraction, a-b-db, 9, 3, 2, 22, 114, 186, 120, 195, 195, 120, 2, 0.582281
236, 3, wb, attraction, a-b-da, 9, 1, 2, 23, 129, 57, 135, 60, 60, 135, 1, 1.19669
236, 3, wb, attraction, a-b-da, 9, 1, 2, 23, 129, 57, 135, 60, 60, 135, 3, 0.555794
236, 3, wb, filler, NA, 999, 999, 2, 24, 117, 179, 161, 67, 81, 163, 2, 2.71545
236, 3, wb, filler, NA, 999, 999, 2, 24, 117, 179, 161, 67, 81, 163, 1, 0.565162
236, 3, wb, filler, NA, 999, 999, 2, 25, 73, 86, 169, 90, 108, 104, 1, 1.18837
236, 3, wb, filler, NA, 999, 999, 2, 25, 73, 86, 169, 90, 108, 104, 2, 0.435246
236, 3, wb, attraction, a-b-da, 9, 2, 2, 26, 90, 165, 157, 86, 165, 90, 1, 4.91166
236, 3, wb, attraction, a-b-da, 9, 2, 2, 26, 90, 165, 157, 86, 165, 90, 3, 1.00884
236, 3, wb, attraction, a-b-db, 5, 1, 2, 27, 60, 135, 135, 60, 58, 132, 3, 1.9338
236, 3, wb, attraction, a-b-db, 5, 1, 2, 27, 60, 135, 135, 60, 58, 132, 1, 1.04714
236, 3, wb, attraction, a-b-da, 9, 3, 2, 28, 195, 120, 186, 114, 120, 195, 1, 1.63476
236, 3, wb, attraction, a-b-da, 9, 3, 2, 28, 195, 120, 186, 114, 120, 195, 3, 0.432168
236, 3, wb, attraction, a-b-db, 9, 1, 2, 29, 60, 135, 57, 129, 135, 60, 2, 1.38869
236, 3, wb, attraction, a-b-db, 9, 1, 2, 29, 60, 135, 57, 129, 135, 60, 1, 0.612157
236, 3, wb, attraction, a-b-db, 14, 2, 2, 30, 90, 165, 83, 153, 165, 90, 3, 2.04867
236, 3, wb, attraction, a-b-db, 14, 2, 2, 30, 90, 165, 83, 153, 165, 90, 2, 0.840972
236, 3, wb, attraction, a-b-db, 2, 3, 2, 31, 119, 193, 195, 120, 120, 195, 1, 2.28906
236, 3, wb, attraction, a-b-db, 2, 3, 2, 31, 119, 193, 195, 120, 120, 195, 3, 0.491556
236, 3, wb, filler, NA, 999, 999, 2, 32, 191, 131, 118, 167, 60, 98, 3, 0.773365
236, 3, wb, filler, NA, 999, 999, 2, 32, 191, 131, 118, 167, 60, 98, 1, 0.813187
236, 3, wb, attraction, a-b-db, 5, 2, 2, 33, 165, 90, 90, 165, 88, 161, 1, 1.29809
236, 3, wb, attraction, a-b-db, 5, 2, 2, 33, 165, 90, 90, 165, 88, 161, 3, 0.517015
236, 3, wb, filler, NA, 999, 999, 2, 34, 178, 189, 187, 194, 187, 117, 3, 1.28614
236, 3, wb, filler, NA, 999, 999, 2, 34, 178, 189, 187, 194, 187, 117, 2, 0.377776
236, 3, wb, attraction, a-b-da, 2, 1, 2, 35, 135, 60, 60, 135, 134, 59, 1, 1.01615
236, 3, wb, attraction, a-b-da, 2, 1, 2, 35, 135, 60, 60, 135, 134, 59, 3, 1.14246
236, 3, wb, filler, NA, 999, 999, 2, 36, 76, 128, 178, 190, 168, 176, 1, 0.670056
236, 3, wb, filler, NA, 999, 999, 2, 36, 76, 128, 178, 190, 168, 176, 2, 1.03465
236, 3, wb, filler, NA, 999, 999, 2, 37, 107, 87, 160, 59, 142, 71, 3, 3.7988
236, 3, wb, filler, NA, 999, 999, 2, 37, 107, 87, 160, 59, 142, 71, 2, 0.316998
236, 3, wb, filler, NA, 999, 999, 3, 1, 82, 110, 96, 145, 79, 106, 3, 2.43832
236, 3, wb, filler, NA, 999, 999, 3, 1, 82, 110, 96, 145, 79, 106, 2, 0.579288
236, 3, wb, attraction, a-b-da, 9, 2, 3, 2, 165, 90, 157, 86, 90, 165, 1, 1.69782
236, 3, wb, attraction, a-b-da, 9, 2, 3, 2, 165, 90, 157, 86, 90, 165, 3, 0.444694
236, 3, wb, filler, NA, 999, 999, 3, 3, 115, 74, 61, 97, 188, 117, 2, 0.952338
236, 3, wb, filler, NA, 999, 999, 3, 3, 115, 74, 61, 97, 188, 117, 3, 0.689282
236, 3, wb, catch, NA, 999, 999, 3, 4, 156, 159, 129, 66, 131, 124, 2, 1.03567
236, 3, wb, catch, NA, 999, 999, 3, 4, 156, 159, 129, 66, 131, 124, 1, 0.489541
236, 3, wb, attraction, a-b-db, 9, 3, 3, 5, 195, 120, 120, 195, 114, 186, 1, 4.31587
236, 3, wb, attraction, a-b-db, 9, 3, 3, 5, 195, 120, 120, 195, 114, 186, 3, 0.533104
236, 3, wb, attraction, a-b-db, 2, 1, 3, 6, 135, 60, 59, 134, 60, 135, 1, 3.43769
236, 3, wb, attraction, a-b-db, 2, 1, 3, 6, 135, 60, 59, 134, 60, 135, 3, 0.754515
236, 3, wb, attraction, a-b-da, 5, 3, 3, 7, 190, 117, 195, 120, 120, 195, 1, 4.81018
236, 3, wb, attraction, a-b-da, 5, 3, 3, 7, 190, 117, 195, 120, 120, 195, 3, 0.759415
236, 3, wb, attraction, a-b-db, 5, 2, 3, 8, 90, 165, 165, 90, 88, 161, 1, 0.838264
236, 3, wb, attraction, a-b-db, 5, 2, 3, 8, 90, 165, 165, 90, 88, 161, 2, 0.491382
236, 3, wb, attraction, a-b-db, 5, 1, 3, 9, 58, 132, 135, 60, 60, 135, 1, 1.72517
236, 3, wb, attraction, a-b-db, 5, 1, 3, 9, 58, 132, 135, 60, 60, 135, 3, 0.49469
236, 3, wb, attraction, a-b-da, 14, 1, 3, 10, 125, 56, 60, 135, 135, 60, 1, 1.26439
236, 3, wb, attraction, a-b-da, 14, 1, 3, 10, 125, 56, 60, 135, 135, 60, 3, 0.804816
236, 3, wb, attraction, a-b-da, 9, 1, 3, 11, 60, 135, 129, 57, 135, 60, 1, 0.938355
236, 3, wb, attraction, a-b-da, 9, 1, 3, 11, 60, 135, 129, 57, 135, 60, 3, 0.611405
236, 3, wb, filler, NA, 999, 999, 3, 12, 168, 125, 101, 56, 97, 129, 2, 0.880632
236, 3, wb, filler, NA, 999, 999, 3, 12, 168, 125, 101, 56, 97, 129, 1, 0.428084
236, 3, wb, attraction, a-b-db, 9, 1, 3, 13, 60, 135, 135, 60, 57, 129, 2, 1.15271
236, 3, wb, attraction, a-b-db, 9, 1, 3, 13, 60, 135, 135, 60, 57, 129, 1, 0.713639
236, 3, wb, attraction, a-b-db, 14, 3, 3, 14, 111, 181, 120, 195, 195, 120, 1, 1.4587
236, 3, wb, attraction, a-b-db, 14, 3, 3, 14, 111, 181, 120, 195, 195, 120, 2, 0.470818
236, 3, wb, attraction, a-b-da, 14, 2, 3, 15, 165, 90, 153, 83, 90, 165, 3, 1.54609
236, 3, wb, attraction, a-b-da, 14, 2, 3, 15, 165, 90, 153, 83, 90, 165, 1, 0.730672
236, 3, wb, attraction, a-b-db, 2, 2, 3, 16, 90, 165, 89, 163, 165, 90, 1, 1.73911
236, 3, wb, attraction, a-b-db, 2, 2, 3, 16, 90, 165, 89, 163, 165, 90, 2, 0.531919
236, 3, wb, filler, NA, 999, 999, 3, 17, 120, 173, 89, 181, 119, 147, 3, 1.65237
236, 3, wb, filler, NA, 999, 999, 3, 17, 120, 173, 89, 181, 119, 147, 1, 0.91315
236, 3, wb, attraction, a-b-db, 14, 2, 3, 18, 83, 153, 90, 165, 165, 90, 1, 1.94609
236, 3, wb, attraction, a-b-db, 14, 2, 3, 18, 83, 153, 90, 165, 165, 90, 2, 0.986887
236, 3, wb, attraction, a-b-db, 2, 3, 3, 19, 120, 195, 195, 120, 119, 193, 1, 1.40982
236, 3, wb, attraction, a-b-db, 2, 3, 3, 19, 120, 195, 195, 120, 119, 193, 2, 0.591328
236, 3, wb, attraction, a-b-da, 14, 3, 3, 20, 195, 120, 181, 111, 120, 195, 1, 1.26114
236, 3, wb, attraction, a-b-da, 14, 3, 3, 20, 195, 120, 181, 111, 120, 195, 3, 0.409419
236, 3, wb, filler, NA, 999, 999, 3, 21, 90, 130, 177, 59, 76, 78, 3, 0.862429
236, 3, wb, filler, NA, 999, 999, 3, 21, 90, 130, 177, 59, 76, 78, 1, 0.866924
236, 3, wb, attraction, a-b-da, 2, 2, 3, 22, 163, 89, 90, 165, 165, 90, 1, 1.03793
236, 3, wb, attraction, a-b-da, 2, 2, 3, 22, 163, 89, 90, 165, 165, 90, 2, 0.97155
236, 3, wb, attraction, a-b-db, 14, 1, 3, 23, 56, 125, 60, 135, 135, 60, 1, 1.53042
236, 3, wb, attraction, a-b-db, 14, 1, 3, 23, 56, 125, 60, 135, 135, 60, 2, 0.396154
236, 3, wb, attraction, a-b-da, 9, 3, 3, 24, 186, 114, 120, 195, 195, 120, 1, 1.06568
236, 3, wb, attraction, a-b-da, 9, 3, 3, 24, 186, 114, 120, 195, 195, 120, 2, 0.574212
236, 3, wb, attraction, a-b-db, 9, 2, 3, 25, 86, 157, 165, 90, 90, 165, 1, 1.38863
236, 3, wb, attraction, a-b-db, 9, 2, 3, 25, 86, 157, 165, 90, 90, 165, 2, 0.523338
236, 3, wb, attraction, a-b-da, 5, 1, 3, 26, 60, 135, 135, 60, 132, 58, 3, 1.55584
236, 3, wb, attraction, a-b-da, 5, 1, 3, 26, 60, 135, 135, 60, 132, 58, 2, 0.723994
236, 3, wb, filler, NA, 999, 999, 3, 27, 182, 99, 169, 133, 125, 185, 1, 0.932348
236, 3, wb, filler, NA, 999, 999, 3, 27, 182, 99, 169, 133, 125, 185, 3, 0.934119
236, 3, wb, attraction, a-b-da, 2, 3, 3, 28, 195, 120, 120, 195, 193, 119, 1, 0.686304
236, 3, wb, attraction, a-b-da, 2, 3, 3, 28, 195, 120, 120, 195, 193, 119, 2, 0.426265
236, 3, wb, attraction, a-b-da, 2, 1, 3, 29, 60, 135, 134, 59, 135, 60, 1, 0.870595
236, 3, wb, attraction, a-b-da, 2, 1, 3, 29, 60, 135, 134, 59, 135, 60, 2, 0.426894
236, 3, wb, filler, NA, 999, 999, 3, 30, 72, 118, 72, 68, 144, 72, 2, 1.4074
236, 3, wb, filler, NA, 999, 999, 3, 30, 72, 118, 72, 68, 144, 72, 3, 0.429565
236, 3, wb, filler, NA, 999, 999, 3, 31, 80, 179, 175, 120, 152, 189, 1, 0.842058
236, 3, wb, filler, NA, 999, 999, 3, 31, 80, 179, 175, 120, 152, 189, 3, 0.535186
236, 3, wb, catch, NA, 999, 999, 3, 32, 151, 104, 98, 97, 164, 151, 2, 0.863584
236, 3, wb, catch, NA, 999, 999, 3, 32, 151, 104, 98, 97, 164, 151, 3, 0.380113
236, 3, wb, attraction, a-b-da, 5, 2, 3, 33, 165, 90, 161, 88, 90, 165, 3, 1.11443
236, 3, wb, attraction, a-b-da, 5, 2, 3, 33, 165, 90, 161, 88, 90, 165, 2, 0.668772
236, 3, wb, filler, NA, 999, 999, 3, 34, 152, 164, 72, 74, 191, 145, 2, 0.951807
236, 3, wb, filler, NA, 999, 999, 3, 34, 152, 164, 72, 74, 191, 145, 3, 0.464888
236, 3, wb, catch, NA, 999, 999, 3, 35, 126, 189, 97, 98, 135, 120, 2, 0.820048
236, 3, wb, catch, NA, 999, 999, 3, 35, 126, 189, 97, 98, 135, 120, 1, 0.394377
236, 3, wb, attraction, a-b-db, 5, 3, 3, 36, 195, 120, 120, 195, 117, 190, 1, 1.4482
236, 3, wb, attraction, a-b-db, 5, 3, 3, 36, 195, 120, 120, 195, 117, 190, 3, 0.717067
236, 3, wb, filler, NA, 999, 999, 3, 37, 62, 86, 75, 107, 82, 84, 1, 1.34209
236, 3, wb, filler, NA, 999, 999, 3, 37, 62, 86, 75, 107, 82, 84, 2, 0.431005
236, 3, wb, attraction, a-b-db, 2, 3, 4, 1, 119, 193, 120, 195, 195, 120, 1, 0.97934
236, 3, wb, attraction, a-b-db, 2, 3, 4, 1, 119, 193, 120, 195, 195, 120, 2, 0.371014
236, 3, wb, filler, NA, 999, 999, 4, 2, 71, 182, 168, 148, 110, 79, 3, 1.29024
236, 3, wb, filler, NA, 999, 999, 4, 2, 71, 182, 168, 148, 110, 79, 2, 0.437182
236, 3, wb, attraction, a-b-db, 9, 1, 4, 3, 57, 129, 60, 135, 135, 60, 1, 1.27359
236, 3, wb, attraction, a-b-db, 9, 1, 4, 3, 57, 129, 60, 135, 135, 60, 3, 1.22914
236, 3, wb, attraction, a-b-db, 9, 3, 4, 4, 114, 186, 195, 120, 120, 195, 1, 1.93957
236, 3, wb, attraction, a-b-db, 9, 3, 4, 4, 114, 186, 195, 120, 120, 195, 2, 0.442096
236, 3, wb, filler, NA, 999, 999, 4, 5, 183, 142, 83, 56, 136, 193, 2, 0.869932
236, 3, wb, filler, NA, 999, 999, 4, 5, 183, 142, 83, 56, 136, 193, 1, 0.43435
236, 3, wb, attraction, a-b-da, 5, 3, 4, 6, 195, 120, 190, 117, 120, 195, 1, 1.03876
236, 3, wb, attraction, a-b-da, 5, 3, 4, 6, 195, 120, 190, 117, 120, 195, 3, 0.411816
236, 3, wb, filler, NA, 999, 999, 4, 7, 72, 172, 191, 63, 62, 67, 3, 1.10503
236, 3, wb, filler, NA, 999, 999, 4, 7, 72, 172, 191, 63, 62, 67, 1, 0.875094
236, 3, wb, attraction, a-b-db, 14, 2, 4, 8, 83, 153, 90, 165, 165, 90, 1, 0.789576
236, 3, wb, attraction, a-b-db, 14, 2, 4, 8, 83, 153, 90, 165, 165, 90, 2, 0.412645
236, 3, wb, filler, NA, 999, 999, 4, 9, 116, 87, 142, 86, 174, 148, 1, 0.83371
236, 3, wb, filler, NA, 999, 999, 4, 9, 116, 87, 142, 86, 174, 148, 2, 0.415479
236, 3, wb, attraction, a-b-db, 5, 2, 4, 10, 90, 165, 165, 90, 88, 161, 1, 0.756577
236, 3, wb, attraction, a-b-db, 5, 2, 4, 10, 90, 165, 165, 90, 88, 161, 2, 0.389005
236, 3, wb, attraction, a-b-da, 2, 1, 4, 11, 60, 135, 135, 60, 134, 59, 3, 0.803455
236, 3, wb, attraction, a-b-da, 2, 1, 4, 11, 60, 135, 135, 60, 134, 59, 2, 0.594547
236, 3, wb, attraction, a-b-db, 2, 2, 4, 12, 90, 165, 89, 163, 165, 90, 1, 0.760193
236, 3, wb, attraction, a-b-db, 2, 2, 4, 12, 90, 165, 89, 163, 165, 90, 2, 0.488686
236, 3, wb, catch, NA, 999, 999, 4, 13, 82, 113, 163, 92, 172, 143, 1, 0.707153
236, 3, wb, catch, NA, 999, 999, 4, 13, 82, 113, 163, 92, 172, 143, 3, 0.557573
236, 3, wb, attraction, a-b-da, 2, 3, 4, 14, 193, 119, 195, 120, 120, 195, 1, 0.652614
236, 3, wb, attraction, a-b-da, 2, 3, 4, 14, 193, 119, 195, 120, 120, 195, 3, 0.817736
236, 3, wb, attraction, a-b-db, 9, 2, 4, 15, 165, 90, 90, 165, 86, 157, 1, 0.718802
236, 3, wb, attraction, a-b-db, 9, 2, 4, 15, 165, 90, 90, 165, 86, 157, 2, 0.321369
236, 3, wb, attraction, a-b-da, 9, 1, 4, 16, 129, 57, 60, 135, 135, 60, 2, 1.76242
236, 3, wb, attraction, a-b-da, 9, 1, 4, 16, 129, 57, 60, 135, 135, 60, 1, 0.418374
236, 3, wb, attraction, a-b-da, 9, 2, 4, 17, 165, 90, 157, 86, 90, 165, 1, 0.935644
236, 3, wb, attraction, a-b-da, 9, 2, 4, 17, 165, 90, 157, 86, 90, 165, 3, 0.369342
236, 3, wb, filler, NA, 999, 999, 4, 18, 86, 186, 130, 75, 68, 151, 2, 0.792692
236, 3, wb, filler, NA, 999, 999, 4, 18, 86, 186, 130, 75, 68, 151, 3, 0.447612
236, 3, wb, filler, NA, 999, 999, 4, 19, 190, 158, 149, 137, 61, 86, 3, 0.875366
236, 3, wb, filler, NA, 999, 999, 4, 19, 190, 158, 149, 137, 61, 86, 1, 0.446996
236, 3, wb, filler, NA, 999, 999, 4, 20, 98, 110, 153, 172, 158, 138, 1, 0.922823
236, 3, wb, filler, NA, 999, 999, 4, 20, 98, 110, 153, 172, 158, 138, 2, 0.324505
236, 3, wb, filler, NA, 999, 999, 4, 21, 82, 111, 107, 190, 79, 153, 1, 0.757097
236, 3, wb, filler, NA, 999, 999, 4, 21, 82, 111, 107, 190, 79, 153, 2, 0.429459
236, 3, wb, attraction, a-b-db, 2, 1, 4, 22, 59, 134, 135, 60, 60, 135, 3, 1.19424
236, 3, wb, attraction, a-b-db, 2, 1, 4, 22, 59, 134, 135, 60, 60, 135, 1, 0.720762
236, 3, wb, attraction, a-b-db, 5, 1, 4, 23, 58, 132, 135, 60, 60, 135, 3, 1.36984
236, 3, wb, attraction, a-b-db, 5, 1, 4, 23, 58, 132, 135, 60, 60, 135, 1, 0.474078
236, 3, wb, catch, NA, 999, 999, 4, 24, 192, 123, 113, 142, 126, 69, 3, 0.868589
236, 3, wb, catch, NA, 999, 999, 4, 24, 192, 123, 113, 142, 126, 69, 1, 0.824894
236, 3, wb, attraction, a-b-da, 14, 3, 4, 25, 181, 111, 195, 120, 120, 195, 1, 2.60522
236, 3, wb, attraction, a-b-da, 14, 3, 4, 25, 181, 111, 195, 120, 120, 195, 3, 0.39508
236, 3, wb, attraction, a-b-da, 2, 2, 4, 26, 90, 165, 163, 89, 165, 90, 1, 1.05682
236, 3, wb, attraction, a-b-da, 2, 2, 4, 26, 90, 165, 163, 89, 165, 90, 3, 0.589371
236, 3, wb, catch, NA, 999, 999, 4, 27, 183, 132, 63, 132, 142, 113, 2, 0.787615
236, 3, wb, catch, NA, 999, 999, 4, 27, 183, 132, 63, 132, 142, 113, 1, 0.395376
236, 3, wb, attraction, a-b-da, 14, 1, 4, 28, 125, 56, 60, 135, 135, 60, 1, 1.0892
236, 3, wb, attraction, a-b-da, 14, 1, 4, 28, 125, 56, 60, 135, 135, 60, 3, 1.58817
236, 3, wb, attraction, a-b-da, 5, 1, 4, 29, 132, 58, 135, 60, 60, 135, 1, 1.81049
236, 3, wb, attraction, a-b-da, 5, 1, 4, 29, 132, 58, 135, 60, 60, 135, 2, 0.344306
236, 3, wb, attraction, a-b-db, 5, 3, 4, 30, 120, 195, 117, 190, 195, 120, 1, 1.1842
236, 3, wb, attraction, a-b-db, 5, 3, 4, 30, 120, 195, 117, 190, 195, 120, 3, 0.495744
236, 3, wb, attraction, a-b-da, 5, 2, 4, 31, 90, 165, 165, 90, 161, 88, 1, 0.553473
236, 3, wb, attraction, a-b-da, 5, 2, 4, 31, 90, 165, 165, 90, 161, 88, 2, 0.434861
236, 3, wb, attraction, a-b-db, 14, 1, 4, 32, 56, 125, 135, 60, 60, 135, 1, 1.44721
236, 3, wb, attraction, a-b-db, 14, 1, 4, 32, 56, 125, 135, 60, 60, 135, 3, 0.50004
236, 3, wb, attraction, a-b-db, 14, 3, 4, 33, 111, 181, 195, 120, 120, 195, 1, 0.541843
236, 3, wb, attraction, a-b-db, 14, 3, 4, 33, 111, 181, 195, 120, 120, 195, 2, 0.334859
236, 3, wb, filler, NA, 999, 999, 4, 34, 119, 86, 161, 76, 187, 194, 1, 0.751344
236, 3, wb, filler, NA, 999, 999, 4, 34, 119, 86, 161, 76, 187, 194, 3, 0.376579
236, 3, wb, filler, NA, 999, 999, 4, 35, 71, 181, 177, 130, 184, 126, 1, 0.831014
236, 3, wb, filler, NA, 999, 999, 4, 35, 71, 181, 177, 130, 184, 126, 3, 0.604895
236, 3, wb, attraction, a-b-da, 9, 3, 4, 36, 195, 120, 186, 114, 120, 195, 1, 1.53047
236, 3, wb, attraction, a-b-da, 9, 3, 4, 36, 195, 120, 186, 114, 120, 195, 2, 0.507888
236, 3, wb, attraction, a-b-da, 14, 2, 4, 37, 165, 90, 90, 165, 153, 83, 1, 0.533069
236, 3, wb, attraction, a-b-da, 14, 2, 4, 37, 165, 90, 90, 165, 153, 83, 2, 0.351007
236, 3, wb, filler, NA, 999, 999, 5, 1, 140, 119, 185, 102, 62, 163, 3, 4.12527
236, 3, wb, filler, NA, 999, 999, 5, 1, 140, 119, 185, 102, 62, 163, 2, 0.741946
236, 3, wb, attraction, a-b-da, 14, 2, 5, 2, 153, 83, 165, 90, 90, 165, 1, 1.25394
236, 3, wb, attraction, a-b-da, 14, 2, 5, 2, 153, 83, 165, 90, 90, 165, 3, 0.698692
236, 3, wb, attraction, a-b-db, 2, 2, 5, 3, 90, 165, 165, 90, 89, 163, 1, 0.74838
236, 3, wb, attraction, a-b-db, 2, 2, 5, 3, 90, 165, 165, 90, 89, 163, 3, 0.869498
236, 3, wb, attraction, a-b-db, 9, 2, 5, 4, 90, 165, 86, 157, 165, 90, 1, 0.81645
236, 3, wb, attraction, a-b-db, 9, 2, 5, 4, 90, 165, 86, 157, 165, 90, 2, 0.342933
236, 3, wb, attraction, a-b-da, 2, 1, 5, 5, 134, 59, 135, 60, 60, 135, 1, 0.742778
236, 3, wb, attraction, a-b-da, 2, 1, 5, 5, 134, 59, 135, 60, 60, 135, 3, 0.423721
236, 3, wb, filler, NA, 999, 999, 5, 6, 195, 143, 98, 157, 134, 70, 3, 1.06817
236, 3, wb, filler, NA, 999, 999, 5, 6, 195, 143, 98, 157, 134, 70, 1, 0.616483
236, 3, wb, attraction, a-b-db, 14, 2, 5, 7, 90, 165, 165, 90, 83, 153, 2, 1.18956
236, 3, wb, attraction, a-b-db, 14, 2, 5, 7, 90, 165, 165, 90, 83, 153, 3, 0.420504
236, 3, wb, attraction, a-b-da, 9, 2, 5, 8, 90, 165, 165, 90, 157, 86, 1, 1.39376
236, 3, wb, attraction, a-b-da, 9, 2, 5, 8, 90, 165, 165, 90, 157, 86, 2, 0.784561
236, 3, wb, attraction, a-b-db, 9, 3, 5, 9, 195, 120, 120, 195, 114, 186, 1, 0.97502
236, 3, wb, attraction, a-b-db, 9, 3, 5, 9, 195, 120, 120, 195, 114, 186, 2, 0.870558
236, 3, wb, attraction, a-b-da, 14, 1, 5, 10, 60, 135, 125, 56, 135, 60, 1, 0.75357
236, 3, wb, attraction, a-b-da, 14, 1, 5, 10, 60, 135, 125, 56, 135, 60, 2, 1.04263
236, 3, wb, filler, NA, 999, 999, 5, 11, 141, 130, 184, 189, 81, 100, 3, 0.766263
236, 3, wb, filler, NA, 999, 999, 5, 11, 141, 130, 184, 189, 81, 100, 2, 0.59064
236, 3, wb, attraction, a-b-db, 5, 2, 5, 12, 88, 161, 90, 165, 165, 90, 1, 0.99642
236, 3, wb, attraction, a-b-db, 5, 2, 5, 12, 88, 161, 90, 165, 165, 90, 2, 1.2994
236, 3, wb, attraction, a-b-da, 2, 3, 5, 13, 193, 119, 195, 120, 120, 195, 3, 3.91702
236, 3, wb, attraction, a-b-da, 2, 3, 5, 13, 193, 119, 195, 120, 120, 195, 2, 1.07041
236, 3, wb, filler, NA, 999, 999, 5, 14, 134, 161, 118, 86, 77, 115, 3, 1.0494
236, 3, wb, filler, NA, 999, 999, 5, 14, 134, 161, 118, 86, 77, 115, 1, 0.454273
236, 3, wb, filler, NA, 999, 999, 5, 15, 177, 165, 187, 104, 109, 59, 3, 0.946136
236, 3, wb, filler, NA, 999, 999, 5, 15, 177, 165, 187, 104, 109, 59, 1, 0.771156
236, 3, wb, attraction, a-b-db, 5, 3, 5, 16, 195, 120, 120, 195, 117, 190, 1, 1.21015
236, 3, wb, attraction, a-b-db, 5, 3, 5, 16, 195, 120, 120, 195, 117, 190, 3, 0.856389
236, 3, wb, filler, NA, 999, 999, 5, 17, 140, 130, 133, 151, 59, 103, 3, 1.07614
236, 3, wb, filler, NA, 999, 999, 5, 17, 140, 130, 133, 151, 59, 103, 2, 0.703893
236, 3, wb, filler, NA, 999, 999, 5, 18, 126, 158, 115, 181, 84, 164, 3, 1.95357
236, 3, wb, filler, NA, 999, 999, 5, 18, 126, 158, 115, 181, 84, 164, 2, 1.56213
236, 3, wb, attraction, a-b-db, 14, 3, 5, 19, 195, 120, 111, 181, 120, 195, 1, 1.36089
236, 3, wb, attraction, a-b-db, 14, 3, 5, 19, 195, 120, 111, 181, 120, 195, 3, 0.825266
236, 3, wb, filler, NA, 999, 999, 5, 20, 172, 62, 169, 62, 56, 179, 3, 2.05352
236, 3, wb, filler, NA, 999, 999, 5, 20, 172, 62, 169, 62, 56, 179, 2, 0.642261
236, 3, wb, filler, NA, 999, 999, 5, 21, 66, 114, 80, 164, 189, 150, 1, 0.645829
236, 3, wb, filler, NA, 999, 999, 5, 21, 66, 114, 80, 164, 189, 150, 3, 0.578918
236, 3, wb, catch, NA, 999, 999, 5, 22, 152, 103, 63, 132, 176, 139, 2, 0.92151
236, 3, wb, catch, NA, 999, 999, 5, 22, 152, 103, 63, 132, 176, 139, 3, 0.771184
236, 3, wb, attraction, a-b-da, 9, 3, 5, 23, 186, 114, 195, 120, 120, 195, 1, 0.786189
236, 3, wb, attraction, a-b-da, 9, 3, 5, 23, 186, 114, 195, 120, 120, 195, 3, 0.474077
236, 3, wb, attraction, a-b-da, 14, 3, 5, 24, 120, 195, 195, 120, 181, 111, 3, 0.90046
236, 3, wb, attraction, a-b-da, 14, 3, 5, 24, 120, 195, 195, 120, 181, 111, 1, 0.567323
236, 3, wb, attraction, a-b-da, 2, 2, 5, 25, 90, 165, 165, 90, 163, 89, 1, 0.822409
236, 3, wb, attraction, a-b-da, 2, 2, 5, 25, 90, 165, 165, 90, 163, 89, 2, 0.428257
236, 3, wb, attraction, a-b-da, 9, 1, 5, 26, 60, 135, 135, 60, 129, 57, 3, 0.984622
236, 3, wb, attraction, a-b-da, 9, 1, 5, 26, 60, 135, 135, 60, 129, 57, 1, 0.944422
236, 3, wb, attraction, a-b-db, 5, 1, 5, 27, 60, 135, 135, 60, 58, 132, 1, 0.672073
236, 3, wb, attraction, a-b-db, 5, 1, 5, 27, 60, 135, 135, 60, 58, 132, 2, 0.40373
236, 3, wb, attraction, a-b-da, 5, 1, 5, 28, 60, 135, 132, 58, 135, 60, 1, 0.86545
236, 3, wb, attraction, a-b-da, 5, 1, 5, 28, 60, 135, 132, 58, 135, 60, 2, 0.669855
236, 3, wb, attraction, a-b-db, 9, 1, 5, 29, 57, 129, 60, 135, 135, 60, 3, 0.697135
236, 3, wb, attraction, a-b-db, 9, 1, 5, 29, 57, 129, 60, 135, 135, 60, 1, 0.532116
236, 3, wb, attraction, a-b-da, 5, 3, 5, 30, 190, 117, 120, 195, 195, 120, 1, 1.46046
236, 3, wb, attraction, a-b-da, 5, 3, 5, 30, 190, 117, 120, 195, 195, 120, 2, 0.544934
236, 3, wb, filler, NA, 999, 999, 5, 31, 119, 162, 107, 130, 129, 151, 2, 1.15241
236, 3, wb, filler, NA, 999, 999, 5, 31, 119, 162, 107, 130, 129, 151, 3, 1.03343
236, 3, wb, catch, NA, 999, 999, 5, 32, 96, 99, 155, 100, 192, 123, 1, 0.509809
236, 3, wb, catch, NA, 999, 999, 5, 32, 96, 99, 155, 100, 192, 123, 3, 0.720186
236, 3, wb, attraction, a-b-db, 2, 3, 5, 33, 120, 195, 195, 120, 119, 193, 1, 0.553234
236, 3, wb, attraction, a-b-db, 2, 3, 5, 33, 120, 195, 195, 120, 119, 193, 2, 0.698381
236, 3, wb, attraction, a-b-db, 2, 1, 5, 34, 59, 134, 135, 60, 60, 135, 1, 0.732047
236, 3, wb, attraction, a-b-db, 2, 1, 5, 34, 59, 134, 135, 60, 60, 135, 2, 0.565845
236, 3, wb, attraction, a-b-da, 5, 2, 5, 35, 90, 165, 165, 90, 161, 88, 3, 1.09291
236, 3, wb, attraction, a-b-da, 5, 2, 5, 35, 90, 165, 165, 90, 161, 88, 1, 0.703932
236, 3, wb, attraction, a-b-db, 14, 1, 5, 36, 60, 135, 135, 60, 56, 125, 3, 0.601637
236, 3, wb, attraction, a-b-db, 14, 1, 5, 36, 60, 135, 135, 60, 56, 125, 2, 0.600746
236, 3, wb, catch, NA, 999, 999, 5, 37, 161, 94, 72, 123, 169, 146, 2, 2.04652
236, 3, wb, catch, NA, 999, 999, 5, 37, 161, 94, 72, 123, 169, 146, 3, 0.435224
236, 3, wb, attraction, a-b-db, 5, 3, 6, 1, 120, 195, 117, 190, 195, 120, 1, 1.35958
236, 3, wb, attraction, a-b-db, 5, 3, 6, 1, 120, 195, 117, 190, 195, 120, 2, 0.447876
236, 3, wb, catch, NA, 999, 999, 6, 2, 165, 150, 121, 134, 117, 78, 3, 0.875702
236, 3, wb, catch, NA, 999, 999, 6, 2, 165, 150, 121, 134, 117, 78, 1, 1.10359
236, 3, wb, attraction, a-b-db, 5, 2, 6, 3, 90, 165, 165, 90, 88, 161, 1, 1.345
236, 3, wb, attraction, a-b-db, 5, 2, 6, 3, 90, 165, 165, 90, 88, 161, 3, 1.1218
236, 3, wb, filler, NA, 999, 999, 6, 4, 73, 68, 142, 88, 152, 140, 1, 0.962794
236, 3, wb, filler, NA, 999, 999, 6, 4, 73, 68, 142, 88, 152, 140, 3, 0.57113
236, 3, wb, filler, NA, 999, 999, 6, 5, 101, 130, 76, 160, 59, 88, 3, 0.754115
236, 3, wb, filler, NA, 999, 999, 6, 5, 101, 130, 76, 160, 59, 88, 2, 1.07526
236, 3, wb, attraction, a-b-db, 2, 3, 6, 6, 119, 193, 195, 120, 120, 195, 3, 2.56563
236, 3, wb, attraction, a-b-db, 2, 3, 6, 6, 119, 193, 195, 120, 120, 195, 1, 0.45342
236, 3, wb, filler, NA, 999, 999, 6, 7, 162, 58, 84, 192, 91, 161, 1, 1.03321
236, 3, wb, filler, NA, 999, 999, 6, 7, 162, 58, 84, 192, 91, 161, 2, 0.622845
236, 3, wb, attraction, a-b-da, 5, 2, 6, 8, 90, 165, 161, 88, 165, 90, 1, 1.50789
236, 3, wb, attraction, a-b-da, 5, 2, 6, 8, 90, 165, 161, 88, 165, 90, 2, 0.734172
236, 3, wb, filler, NA, 999, 999, 6, 9, 111, 173, 195, 76, 62, 161, 3, 1.04651
236, 3, wb, filler, NA, 999, 999, 6, 9, 111, 173, 195, 76, 62, 161, 1, 0.587447
236, 3, wb, attraction, a-b-db, 9, 1, 6, 10, 57, 129, 60, 135, 135, 60, 1, 0.922034
236, 3, wb, attraction, a-b-db, 9, 1, 6, 10, 57, 129, 60, 135, 135, 60, 2, 0.835502
236, 3, wb, attraction, a-b-da, 14, 3, 6, 11, 120, 195, 181, 111, 195, 120, 3, 1.97593
236, 3, wb, attraction, a-b-da, 14, 3, 6, 11, 120, 195, 181, 111, 195, 120, 1, 1.18333
236, 3, wb, attraction, a-b-da, 9, 2, 6, 12, 90, 165, 157, 86, 165, 90, 1, 0.965457
236, 3, wb, attraction, a-b-da, 9, 2, 6, 12, 90, 165, 157, 86, 165, 90, 3, 0.50193
236, 3, wb, filler, NA, 999, 999, 6, 13, 66, 73, 81, 172, 147, 168, 1, 0.775581
236, 3, wb, filler, NA, 999, 999, 6, 13, 66, 73, 81, 172, 147, 168, 3, 0.447383
236, 3, wb, attraction, a-b-da, 2, 3, 6, 14, 195, 120, 193, 119, 120, 195, 1, 1.89121
236, 3, wb, attraction, a-b-da, 2, 3, 6, 14, 195, 120, 193, 119, 120, 195, 3, 0.429926
236, 3, wb, attraction, a-b-db, 2, 2, 6, 15, 90, 165, 89, 163, 165, 90, 3, 1.15442
236, 3, wb, attraction, a-b-db, 2, 2, 6, 15, 90, 165, 89, 163, 165, 90, 1, 0.547335
236, 3, wb, attraction, a-b-da, 5, 1, 6, 16, 132, 58, 135, 60, 60, 135, 3, 0.90703
236, 3, wb, attraction, a-b-da, 5, 1, 6, 16, 132, 58, 135, 60, 60, 135, 1, 0.541404
236, 3, wb, attraction, a-b-db, 14, 2, 6, 17, 83, 153, 165, 90, 90, 165, 2, 0.677315
236, 3, wb, attraction, a-b-db, 14, 2, 6, 17, 83, 153, 165, 90, 90, 165, 3, 0.44092
236, 3, wb, filler, NA, 999, 999, 6, 18, 100, 101, 62, 142, 160, 162, 1, 0.780816
236, 3, wb, filler, NA, 999, 999, 6, 18, 100, 101, 62, 142, 160, 162, 3, 0.628677
236, 3, wb, attraction, a-b-db, 9, 2, 6, 19, 165, 90, 86, 157, 90, 165, 3, 1.45688
236, 3, wb, attraction, a-b-db, 9, 2, 6, 19, 165, 90, 86, 157, 90, 165, 1, 0.51709
236, 3, wb, attraction, a-b-da, 9, 1, 6, 20, 135, 60, 60, 135, 129, 57, 1, 1.49425
236, 3, wb, attraction, a-b-da, 9, 1, 6, 20, 135, 60, 60, 135, 129, 57, 2, 0.577037
236, 3, wb, attraction, a-b-da, 2, 2, 6, 21, 90, 165, 163, 89, 165, 90, 1, 0.863416
236, 3, wb, attraction, a-b-da, 2, 2, 6, 21, 90, 165, 163, 89, 165, 90, 2, 0.683918
236, 3, wb, attraction, a-b-da, 14, 1, 6, 22, 60, 135, 125, 56, 135, 60, 3, 1.16639
236, 3, wb, attraction, a-b-da, 14, 1, 6, 22, 60, 135, 125, 56, 135, 60, 1, 0.710471
236, 3, wb, attraction, a-b-db, 14, 1, 6, 23, 60, 135, 135, 60, 56, 125, 1, 0.711527
236, 3, wb, attraction, a-b-db, 14, 1, 6, 23, 60, 135, 135, 60, 56, 125, 2, 0.433963
236, 3, wb, attraction, a-b-db, 2, 1, 6, 24, 60, 135, 135, 60, 59, 134, 1, 0.65444
236, 3, wb, attraction, a-b-db, 2, 1, 6, 24, 60, 135, 135, 60, 59, 134, 2, 0.555592
236, 3, wb, filler, NA, 999, 999, 6, 25, 188, 68, 184, 126, 172, 81, 1, 0.851279
236, 3, wb, filler, NA, 999, 999, 6, 25, 188, 68, 184, 126, 172, 81, 2, 0.832459
236, 3, wb, attraction, a-b-da, 14, 2, 6, 26, 165, 90, 153, 83, 90, 165, 1, 0.628705
236, 3, wb, attraction, a-b-da, 14, 2, 6, 26, 165, 90, 153, 83, 90, 165, 3, 0.63455
236, 3, wb, filler, NA, 999, 999, 6, 27, 153, 85, 193, 61, 61, 167, 1, 0.414875
236, 3, wb, filler, NA, 999, 999, 6, 27, 153, 85, 193, 61, 61, 167, 3, 0.445397
236, 3, wb, attraction, a-b-da, 5, 3, 6, 28, 120, 195, 190, 117, 195, 120, 1, 1.24121
236, 3, wb, attraction, a-b-da, 5, 3, 6, 28, 120, 195, 190, 117, 195, 120, 3, 0.798194
236, 3, wb, catch, NA, 999, 999, 6, 29, 133, 62, 186, 129, 130, 125, 1, 0.507853
236, 3, wb, catch, NA, 999, 999, 6, 29, 133, 62, 186, 129, 130, 125, 2, 0.446311
236, 3, wb, filler, NA, 999, 999, 6, 30, 100, 151, 85, 69, 186, 129, 2, 0.810149
236, 3, wb, filler, NA, 999, 999, 6, 30, 100, 151, 85, 69, 186, 129, 3, 0.408549
236, 3, wb, filler, NA, 999, 999, 6, 31, 78, 101, 100, 90, 140, 126, 1, 0.81368
236, 3, wb, filler, NA, 999, 999, 6, 31, 78, 101, 100, 90, 140, 126, 3, 0.828045
236, 3, wb, attraction, a-b-db, 14, 3, 6, 32, 111, 181, 195, 120, 120, 195, 1, 0.648369
236, 3, wb, attraction, a-b-db, 14, 3, 6, 32, 111, 181, 195, 120, 120, 195, 2, 0.525431
236, 3, wb, attraction, a-b-db, 5, 1, 6, 33, 60, 135, 135, 60, 58, 132, 1, 1.18206
236, 3, wb, attraction, a-b-db, 5, 1, 6, 33, 60, 135, 135, 60, 58, 132, 2, 0.501589
236, 3, wb, attraction, a-b-da, 9, 3, 6, 34, 195, 120, 186, 114, 120, 195, 1, 1.1753
236, 3, wb, attraction, a-b-da, 9, 3, 6, 34, 195, 120, 186, 114, 120, 195, 3, 0.678929
236, 3, wb, attraction, a-b-da, 2, 1, 6, 35, 134, 59, 60, 135, 135, 60, 1, 0.545336
236, 3, wb, attraction, a-b-da, 2, 1, 6, 35, 134, 59, 60, 135, 135, 60, 3, 0.578546
236, 3, wb, catch, NA, 999, 999, 6, 36, 128, 67, 116, 139, 192, 123, 1, 0.552798
236, 3, wb, catch, NA, 999, 999, 6, 36, 128, 67, 116, 139, 192, 123, 3, 0.649925
236, 3, wb, attraction, a-b-db, 9, 3, 6, 37, 114, 186, 195, 120, 120, 195, 1, 0.997825
236, 3, wb, attraction, a-b-db, 9, 3, 6, 37, 114, 186, 195, 120, 120, 195, 2, 0.428701
236, 3, wb, attraction, a-b-db, 2, 2, 7, 1, 89, 163, 165, 90, 90, 165, 1, 1.03324
236, 3, wb, attraction, a-b-db, 2, 2, 7, 1, 89, 163, 165, 90, 90, 165, 2, 0.590875
236, 3, wb, filler, NA, 999, 999, 7, 2, 137, 86, 113, 161, 114, 143, 1, 0.764647
236, 3, wb, filler, NA, 999, 999, 7, 2, 137, 86, 113, 161, 114, 143, 2, 0.597079
236, 3, wb, attraction, a-b-da, 14, 2, 7, 3, 165, 90, 153, 83, 90, 165, 1, 1.13877
236, 3, wb, attraction, a-b-da, 14, 2, 7, 3, 165, 90, 153, 83, 90, 165, 3, 0.427753
236, 3, wb, attraction, a-b-db, 5, 1, 7, 4, 58, 132, 60, 135, 135, 60, 1, 0.624189
236, 3, wb, attraction, a-b-db, 5, 1, 7, 4, 58, 132, 60, 135, 135, 60, 3, 0.533977
236, 3, wb, attraction, a-b-db, 9, 1, 7, 5, 60, 135, 57, 129, 135, 60, 3, 1.03049
236, 3, wb, attraction, a-b-db, 9, 1, 7, 5, 60, 135, 57, 129, 135, 60, 2, 0.403988
236, 3, wb, attraction, a-b-db, 14, 2, 7, 6, 83, 153, 90, 165, 165, 90, 1, 0.8418
236, 3, wb, attraction, a-b-db, 14, 2, 7, 6, 83, 153, 90, 165, 165, 90, 2, 0.710907
236, 3, wb, catch, NA, 999, 999, 7, 7, 96, 99, 190, 125, 136, 119, 1, 0.936031
236, 3, wb, catch, NA, 999, 999, 7, 7, 96, 99, 190, 125, 136, 119, 2, 0.633716
236, 3, wb, filler, NA, 999, 999, 7, 8, 128, 82, 143, 179, 171, 134, 1, 1.07803
236, 3, wb, filler, NA, 999, 999, 7, 8, 128, 82, 143, 179, 171, 134, 2, 1.37772
236, 3, wb, attraction, a-b-da, 2, 3, 7, 9, 195, 120, 120, 195, 193, 119, 1, 2.59187
236, 3, wb, attraction, a-b-da, 2, 3, 7, 9, 195, 120, 120, 195, 193, 119, 2, 1.05442
236, 3, wb, filler, NA, 999, 999, 7, 10, 172, 101, 167, 175, 122, 78, 3, 1.00206
236, 3, wb, filler, NA, 999, 999, 7, 10, 172, 101, 167, 175, 122, 78, 2, 0.360913
236, 3, wb, attraction, a-b-da, 2, 1, 7, 11, 134, 59, 60, 135, 135, 60, 3, 1.25608
236, 3, wb, attraction, a-b-da, 2, 1, 7, 11, 134, 59, 60, 135, 135, 60, 2, 0.588555
236, 3, wb, attraction, a-b-db, 2, 1, 7, 12, 59, 134, 135, 60, 60, 135, 1, 0.74675
236, 3, wb, attraction, a-b-db, 2, 1, 7, 12, 59, 134, 135, 60, 60, 135, 3, 0.627936
236, 3, wb, attraction, a-b-da, 14, 3, 7, 13, 181, 111, 120, 195, 195, 120, 1, 0.520266
236, 3, wb, attraction, a-b-da, 14, 3, 7, 13, 181, 111, 120, 195, 195, 120, 2, 0.458793
236, 3, wb, attraction, a-b-da, 9, 3, 7, 14, 120, 195, 186, 114, 195, 120, 1, 0.957894
236, 3, wb, attraction, a-b-da, 9, 3, 7, 14, 120, 195, 186, 114, 195, 120, 2, 0.454411
236, 3, wb, attraction, a-b-da, 5, 3, 7, 15, 120, 195, 195, 120, 190, 117, 1, 0.905988
236, 3, wb, attraction, a-b-da, 5, 3, 7, 15, 120, 195, 195, 120, 190, 117, 3, 0.460421
236, 3, wb, catch, NA, 999, 999, 7, 16, 121, 134, 122, 73, 188, 127, 1, 0.487497
236, 3, wb, catch, NA, 999, 999, 7, 16, 121, 134, 122, 73, 188, 127, 2, 2.93067
236, 3, wb, attraction, a-b-da, 14, 1, 7, 17, 125, 56, 60, 135, 135, 60, 1, 1.94639
236, 3, wb, attraction, a-b-da, 14, 1, 7, 17, 125, 56, 60, 135, 135, 60, 3, 0.651085
236, 3, wb, attraction, a-b-da, 9, 2, 7, 18, 157, 86, 90, 165, 165, 90, 1, 0.534867
236, 3, wb, attraction, a-b-da, 9, 2, 7, 18, 157, 86, 90, 165, 165, 90, 3, 0.536662
236, 3, wb, attraction, a-b-db, 14, 3, 7, 19, 120, 195, 195, 120, 111, 181, 1, 0.481128
236, 3, wb, attraction, a-b-db, 14, 3, 7, 19, 120, 195, 195, 120, 111, 181, 2, 0.324932
236, 3, wb, attraction, a-b-da, 9, 1, 7, 20, 60, 135, 129, 57, 135, 60, 1, 0.813421
236, 3, wb, attraction, a-b-da, 9, 1, 7, 20, 60, 135, 129, 57, 135, 60, 3, 0.595854
236, 3, wb, filler, NA, 999, 999, 7, 21, 64, 137, 179, 80, 172, 164, 1, 0.513519
236, 3, wb, filler, NA, 999, 999, 7, 21, 64, 137, 179, 80, 172, 164, 3, 0.484105
236, 3, wb, attraction, a-b-da, 5, 1, 7, 22, 132, 58, 60, 135, 135, 60, 1, 2.78259
236, 3, wb, attraction, a-b-da, 5, 1, 7, 22, 132, 58, 60, 135, 135, 60, 2, 0.693545
236, 3, wb, filler, NA, 999, 999, 7, 23, 66, 187, 133, 92, 165, 123, 1, 0.743203
236, 3, wb, filler, NA, 999, 999, 7, 23, 66, 187, 133, 92, 165, 123, 3, 0.768466
236, 3, wb, attraction, a-b-db, 5, 3, 7, 24, 195, 120, 120, 195, 117, 190, 3, 2.46347
236, 3, wb, attraction, a-b-db, 5, 3, 7, 24, 195, 120, 120, 195, 117, 190, 1, 0.979275
236, 3, wb, attraction, a-b-db, 9, 2, 7, 25, 90, 165, 86, 157, 165, 90, 2, 0.737636
236, 3, wb, attraction, a-b-db, 9, 2, 7, 25, 90, 165, 86, 157, 165, 90, 3, 0.587392
236, 3, wb, attraction, a-b-da, 2, 2, 7, 26, 90, 165, 163, 89, 165, 90, 1, 0.841693
236, 3, wb, attraction, a-b-da, 2, 2, 7, 26, 90, 165, 163, 89, 165, 90, 3, 0.558816
236, 3, wb, attraction, a-b-db, 9, 3, 7, 27, 120, 195, 195, 120, 114, 186, 1, 0.749856
236, 3, wb, attraction, a-b-db, 9, 3, 7, 27, 120, 195, 195, 120, 114, 186, 2, 0.510974
236, 3, wb, attraction, a-b-db, 14, 1, 7, 28, 135, 60, 56, 125, 60, 135, 2, 1.15217
236, 3, wb, attraction, a-b-db, 14, 1, 7, 28, 135, 60, 56, 125, 60, 135, 3, 0.424973
236, 3, wb, attraction, a-b-db, 5, 2, 7, 29, 88, 161, 165, 90, 90, 165, 1, 0.477652
236, 3, wb, attraction, a-b-db, 5, 2, 7, 29, 88, 161, 165, 90, 90, 165, 2, 0.449403
236, 3, wb, filler, NA, 999, 999, 7, 30, 150, 177, 74, 117, 172, 84, 2, 0.877123
236, 3, wb, filler, NA, 999, 999, 7, 30, 150, 177, 74, 117, 172, 84, 1, 0.440813
236, 3, wb, filler, NA, 999, 999, 7, 31, 170, 108, 69, 59, 61, 161, 2, 0.708575
236, 3, wb, filler, NA, 999, 999, 7, 31, 170, 108, 69, 59, 61, 161, 1, 0.49499
236, 3, wb, filler, NA, 999, 999, 7, 32, 152, 127, 182, 128, 72, 184, 3, 0.8809
236, 3, wb, filler, NA, 999, 999, 7, 32, 152, 127, 182, 128, 72, 184, 2, 0.380611
236, 3, wb, attraction, a-b-da, 5, 2, 7, 33, 90, 165, 161, 88, 165, 90, 3, 0.690997
236, 3, wb, attraction, a-b-da, 5, 2, 7, 33, 90, 165, 161, 88, 165, 90, 2, 0.41417
236, 3, wb, catch, NA, 999, 999, 7, 34, 115, 80, 160, 95, 152, 163, 1, 0.547241
236, 3, wb, catch, NA, 999, 999, 7, 34, 115, 80, 160, 95, 152, 163, 3, 0.516358
236, 3, wb, filler, NA, 999, 999, 7, 35, 86, 111, 56, 151, 152, 148, 1, 0.797656
236, 3, wb, filler, NA, 999, 999, 7, 35, 86, 111, 56, 151, 152, 148, 3, 0.444544
236, 3, wb, filler, NA, 999, 999, 7, 36, 131, 137, 176, 141, 175, 69, 3, 1.06439
236, 3, wb, filler, NA, 999, 999, 7, 36, 131, 137, 176, 141, 175, 69, 2, 0.404686
236, 3, wb, attraction, a-b-db, 2, 3, 7, 37, 119, 193, 195, 120, 120, 195, 1, 0.738402
236, 3, wb, attraction, a-b-db, 2, 3, 7, 37, 119, 193, 195, 120, 120, 195, 3, 0.451704
236, 3, wb, attraction, a-b-db, 2, 2, 8, 1, 89, 163, 165, 90, 90, 165, 1, 0.599297
236, 3, wb, attraction, a-b-db, 2, 2, 8, 1, 89, 163, 165, 90, 90, 165, 2, 0.430449
236, 3, wb, attraction, a-b-da, 2, 1, 8, 2, 134, 59, 135, 60, 60, 135, 1, 0.562912
236, 3, wb, attraction, a-b-da, 2, 1, 8, 2, 134, 59, 135, 60, 60, 135, 3, 0.643385
236, 3, wb, attraction, a-b-da, 14, 1, 8, 3, 135, 60, 125, 56, 60, 135, 1, 0.743149
236, 3, wb, attraction, a-b-da, 14, 1, 8, 3, 135, 60, 125, 56, 60, 135, 2, 0.640203
236, 3, wb, attraction, a-b-db, 2, 1, 8, 4, 59, 134, 60, 135, 135, 60, 1, 0.50798
236, 3, wb, attraction, a-b-db, 2, 1, 8, 4, 59, 134, 60, 135, 135, 60, 3, 0.606434
236, 3, wb, filler, NA, 999, 999, 8, 5, 174, 135, 76, 150, 142, 173, 1, 0.708307
236, 3, wb, filler, NA, 999, 999, 8, 5, 174, 135, 76, 150, 142, 173, 3, 0.398628
236, 3, wb, filler, NA, 999, 999, 8, 6, 90, 178, 112, 69, 61, 139, 3, 1.34047
236, 3, wb, filler, NA, 999, 999, 8, 6, 90, 178, 112, 69, 61, 139, 1, 0.501375
236, 3, wb, attraction, a-b-db, 5, 3, 8, 7, 117, 190, 195, 120, 120, 195, 1, 0.991126
236, 3, wb, attraction, a-b-db, 5, 3, 8, 7, 117, 190, 195, 120, 120, 195, 3, 0.446163
236, 3, wb, filler, NA, 999, 999, 8, 8, 72, 159, 61, 58, 178, 152, 2, 0.7539
236, 3, wb, filler, NA, 999, 999, 8, 8, 72, 159, 61, 58, 178, 152, 3, 0.378985
236, 3, wb, attraction, a-b-da, 2, 3, 8, 9, 120, 195, 193, 119, 195, 120, 1, 1.24159
236, 3, wb, attraction, a-b-da, 2, 3, 8, 9, 120, 195, 193, 119, 195, 120, 3, 0.630498
236, 3, wb, attraction, a-b-da, 2, 2, 8, 10, 165, 90, 90, 165, 163, 89, 1, 0.754787
236, 3, wb, attraction, a-b-da, 2, 2, 8, 10, 165, 90, 90, 165, 163, 89, 2, 0.323165
236, 3, wb, attraction, a-b-db, 14, 2, 8, 11, 165, 90, 83, 153, 90, 165, 2, 1.68431
236, 3, wb, attraction, a-b-db, 14, 2, 8, 11, 165, 90, 83, 153, 90, 165, 1, 0.423818
236, 3, wb, catch, NA, 999, 999, 8, 12, 177, 138, 126, 129, 90, 105, 3, 0.908435
236, 3, wb, catch, NA, 999, 999, 8, 12, 177, 138, 126, 129, 90, 105, 1, 0.702656
236, 3, wb, attraction, a-b-da, 5, 1, 8, 13, 132, 58, 135, 60, 60, 135, 1, 1.12835
236, 3, wb, attraction, a-b-da, 5, 1, 8, 13, 132, 58, 135, 60, 60, 135, 3, 0.529976
236, 3, wb, attraction, a-b-da, 9, 2, 8, 14, 157, 86, 90, 165, 165, 90, 3, 1.12246
236, 3, wb, attraction, a-b-da, 9, 2, 8, 14, 157, 86, 90, 165, 165, 90, 2, 0.452227
236, 3, wb, filler, NA, 999, 999, 8, 15, 109, 101, 126, 185, 105, 168, 1, 0.871796
236, 3, wb, filler, NA, 999, 999, 8, 15, 109, 101, 126, 185, 105, 168, 2, 0.539493
236, 3, wb, attraction, a-b-db, 14, 1, 8, 16, 135, 60, 56, 125, 60, 135, 1, 1.13199
236, 3, wb, attraction, a-b-db, 14, 1, 8, 16, 135, 60, 56, 125, 60, 135, 2, 0.557696
236, 3, wb, attraction, a-b-da, 5, 3, 8, 17, 120, 195, 190, 117, 195, 120, 3, 0.86071
236, 3, wb, attraction, a-b-da, 5, 3, 8, 17, 120, 195, 190, 117, 195, 120, 2, 0.537156
236, 3, wb, attraction, a-b-db, 5, 2, 8, 18, 88, 161, 165, 90, 90, 165, 1, 0.729444
236, 3, wb, attraction, a-b-db, 5, 2, 8, 18, 88, 161, 165, 90, 90, 165, 2, 0.419332
236, 3, wb, attraction, a-b-da, 9, 1, 8, 19, 135, 60, 129, 57, 60, 135, 3, 1.3929
236, 3, wb, attraction, a-b-da, 9, 1, 8, 19, 135, 60, 129, 57, 60, 135, 2, 0.583252
236, 3, wb, attraction, a-b-db, 2, 3, 8, 20, 195, 120, 119, 193, 120, 195, 1, 2.82183
236, 3, wb, attraction, a-b-db, 2, 3, 8, 20, 195, 120, 119, 193, 120, 195, 2, 0.490911
236, 3, wb, attraction, a-b-db, 9, 1, 8, 21, 60, 135, 135, 60, 57, 129, 3, 1.81254
236, 3, wb, attraction, a-b-db, 9, 1, 8, 21, 60, 135, 135, 60, 57, 129, 2, 1.64264
236, 3, wb, attraction, a-b-da, 14, 3, 8, 22, 120, 195, 195, 120, 181, 111, 1, 3.08614
236, 3, wb, attraction, a-b-da, 14, 3, 8, 22, 120, 195, 195, 120, 181, 111, 2, 0.449205
236, 3, wb, filler, NA, 999, 999, 8, 23, 126, 56, 83, 124, 140, 79, 1, 0.612894
236, 3, wb, filler, NA, 999, 999, 8, 23, 126, 56, 83, 124, 140, 79, 2, 0.475388
236, 3, wb, attraction, a-b-da, 14, 2, 8, 24, 153, 83, 90, 165, 165, 90, 1, 0.621865
236, 3, wb, attraction, a-b-da, 14, 2, 8, 24, 153, 83, 90, 165, 165, 90, 2, 0.379575
236, 3, wb, attraction, a-b-da, 5, 2, 8, 25, 90, 165, 161, 88, 165, 90, 1, 0.70605
236, 3, wb, attraction, a-b-da, 5, 2, 8, 25, 90, 165, 161, 88, 165, 90, 2, 0.340553
236, 3, wb, attraction, a-b-db, 5, 1, 8, 26, 58, 132, 135, 60, 60, 135, 1, 0.548318
236, 3, wb, attraction, a-b-db, 5, 1, 8, 26, 58, 132, 135, 60, 60, 135, 2, 0.325543
236, 3, wb, filler, NA, 999, 999, 8, 27, 63, 140, 166, 125, 78, 162, 1, 1.44597
236, 3, wb, filler, NA, 999, 999, 8, 27, 63, 140, 166, 125, 78, 162, 2, 0.354839
236, 3, wb, filler, NA, 999, 999, 8, 28, 111, 180, 67, 185, 133, 65, 3, 0.890765
236, 3, wb, filler, NA, 999, 999, 8, 28, 111, 180, 67, 185, 133, 65, 1, 0.437627
236, 3, wb, catch, NA, 999, 999, 8, 29, 195, 120, 100, 155, 83, 112, 3, 0.594152
236, 3, wb, catch, NA, 999, 999, 8, 29, 195, 120, 100, 155, 83, 112, 1, 0.841257
236, 3, wb, attraction, a-b-db, 14, 3, 8, 30, 111, 181, 195, 120, 120, 195, 1, 3.22909
236, 3, wb, attraction, a-b-db, 14, 3, 8, 30, 111, 181, 195, 120, 120, 195, 3, 0.418228
236, 3, wb, attraction, a-b-db, 9, 2, 8, 31, 86, 157, 90, 165, 165, 90, 1, 0.695124
236, 3, wb, attraction, a-b-db, 9, 2, 8, 31, 86, 157, 90, 165, 165, 90, 3, 0.882133
236, 3, wb, filler, NA, 999, 999, 8, 32, 155, 81, 92, 162, 71, 104, 3, 1.22045
236, 3, wb, filler, NA, 999, 999, 8, 32, 155, 81, 92, 162, 71, 104, 2, 1.06675
236, 3, wb, attraction, a-b-db, 9, 3, 8, 33, 114, 186, 120, 195, 195, 120, 1, 0.80571
236, 3, wb, attraction, a-b-db, 9, 3, 8, 33, 114, 186, 120, 195, 195, 120, 3, 0.732107
236, 3, wb, filler, NA, 999, 999, 8, 34, 140, 63, 94, 100, 186, 154, 1, 1.20441
236, 3, wb, filler, NA, 999, 999, 8, 34, 140, 63, 94, 100, 186, 154, 3, 0.891383
236, 3, wb, attraction, a-b-da, 9, 3, 8, 35, 120, 195, 186, 114, 195, 120, 1, 1.08501
236, 3, wb, attraction, a-b-da, 9, 3, 8, 35, 120, 195, 186, 114, 195, 120, 3, 0.440725
236, 3, wb, filler, NA, 999, 999, 8, 36, 145, 136, 128, 93, 190, 119, 2, 0.764388
236, 3, wb, filler, NA, 999, 999, 8, 36, 145, 136, 128, 93, 190, 119, 3, 0.772793
236, 3, wb, catch, NA, 999, 999, 8, 37, 131, 124, 92, 103, 165, 150, 2, 0.803997
236, 3, wb, catch, NA, 999, 999, 8, 37, 131, 124, 92, 103, 165, 150, 3, 0.531038
