sub_n, computer_n, bw_cond, effect, set, distance, diag, block_n, trial_n, h1, w1, h2, w2, h3, w3, choice, rt 
245, 3, bw, practice, NA, 999, 999, 0, 1, 152, 67, 136, 104, 104, 75, 2, 1.84112
245, 3, bw, practice, NA, 999, 999, 0, 1, 152, 67, 136, 104, 104, 75, 3, 3.46893
245, 3, bw, practice, NA, 999, 999, 0, 2, 193, 100, 131, 56, 161, 137, 3, 2.42822
245, 3, bw, practice, NA, 999, 999, 0, 2, 193, 100, 131, 56, 161, 137, 2, 1.01906
245, 3, bw, practice, NA, 999, 999, 0, 3, 84, 173, 128, 153, 128, 131, 2, 2.07463
245, 3, bw, practice, NA, 999, 999, 0, 3, 84, 173, 128, 153, 128, 131, 1, 1.53812
245, 3, bw, attraction, a-b-da, 2, 3, 1, 1, 193, 119, 195, 120, 120, 195, 3, 4.85892
245, 3, bw, attraction, a-b-da, 2, 3, 1, 1, 193, 119, 195, 120, 120, 195, 1, 1.50183
245, 3, bw, attraction, a-b-db, 9, 1, 1, 2, 60, 135, 57, 129, 135, 60, 1, 2.47933
245, 3, bw, attraction, a-b-db, 9, 1, 1, 2, 60, 135, 57, 129, 135, 60, 2, 0.730553
245, 3, bw, attraction, a-b-db, 9, 3, 1, 3, 114, 186, 120, 195, 195, 120, 2, 2.21896
245, 3, bw, attraction, a-b-db, 9, 3, 1, 3, 114, 186, 120, 195, 195, 120, 1, 1.32102
245, 3, bw, attraction, a-b-da, 14, 2, 1, 4, 90, 165, 165, 90, 153, 83, 1, 3.00177
245, 3, bw, attraction, a-b-da, 14, 2, 1, 4, 90, 165, 165, 90, 153, 83, 3, 1.20016
245, 3, bw, attraction, a-b-db, 5, 3, 1, 5, 117, 190, 120, 195, 195, 120, 2, 4.58175
245, 3, bw, attraction, a-b-db, 5, 3, 1, 5, 117, 190, 120, 195, 195, 120, 3, 3.17224
245, 3, bw, attraction, a-b-db, 5, 1, 1, 6, 60, 135, 58, 132, 135, 60, 1, 3.35466
245, 3, bw, attraction, a-b-db, 5, 1, 1, 6, 60, 135, 58, 132, 135, 60, 2, 1.09836
245, 3, bw, attraction, a-b-da, 9, 3, 1, 7, 186, 114, 120, 195, 195, 120, 2, 2.37174
245, 3, bw, attraction, a-b-da, 9, 3, 1, 7, 186, 114, 120, 195, 195, 120, 3, 1.12298
245, 3, bw, filler, NA, 999, 999, 1, 8, 93, 146, 94, 149, 192, 77, 3, 5.31606
245, 3, bw, filler, NA, 999, 999, 1, 8, 93, 146, 94, 149, 192, 77, 2, 1.05292
245, 3, bw, attraction, a-b-db, 2, 2, 1, 9, 90, 165, 89, 163, 165, 90, 3, 4.08851
245, 3, bw, attraction, a-b-db, 2, 2, 1, 9, 90, 165, 89, 163, 165, 90, 2, 1.44312
245, 3, bw, catch, NA, 999, 999, 1, 10, 73, 122, 132, 123, 132, 183, 3, 2.00679
245, 3, bw, catch, NA, 999, 999, 1, 10, 73, 122, 132, 123, 132, 183, 1, 1.02871
245, 3, bw, attraction, a-b-da, 14, 1, 1, 11, 125, 56, 60, 135, 135, 60, 3, 5.76897
245, 3, bw, attraction, a-b-da, 14, 1, 1, 11, 125, 56, 60, 135, 135, 60, 1, 1.90406
245, 3, bw, attraction, a-b-da, 2, 2, 1, 12, 165, 90, 163, 89, 90, 165, 1, 3.02514
245, 3, bw, attraction, a-b-da, 2, 2, 1, 12, 165, 90, 163, 89, 90, 165, 3, 1.84618
245, 3, bw, filler, NA, 999, 999, 1, 13, 167, 89, 121, 145, 139, 131, 1, 2.29752
245, 3, bw, filler, NA, 999, 999, 1, 13, 167, 89, 121, 145, 139, 131, 2, 0.756211
245, 3, bw, attraction, a-b-da, 14, 3, 1, 14, 181, 111, 195, 120, 120, 195, 2, 1.76391
245, 3, bw, attraction, a-b-da, 14, 3, 1, 14, 181, 111, 195, 120, 120, 195, 1, 1.21196
245, 3, bw, attraction, a-b-da, 9, 2, 1, 15, 165, 90, 157, 86, 90, 165, 1, 1.80078
245, 3, bw, attraction, a-b-da, 9, 2, 1, 15, 165, 90, 157, 86, 90, 165, 2, 0.487494
245, 3, bw, catch, NA, 999, 999, 1, 16, 151, 164, 109, 146, 62, 133, 1, 0.99411
245, 3, bw, catch, NA, 999, 999, 1, 16, 151, 164, 109, 146, 62, 133, 3, 1.13703
245, 3, bw, filler, NA, 999, 999, 1, 17, 108, 78, 87, 193, 111, 89, 2, 1.55363
245, 3, bw, filler, NA, 999, 999, 1, 17, 108, 78, 87, 193, 111, 89, 1, 1.62614
245, 3, bw, attraction, a-b-da, 5, 2, 1, 18, 165, 90, 90, 165, 161, 88, 1, 5.6943
245, 3, bw, attraction, a-b-da, 5, 2, 1, 18, 165, 90, 90, 165, 161, 88, 2, 1.19973
245, 3, bw, attraction, a-b-da, 5, 1, 1, 19, 60, 135, 132, 58, 135, 60, 1, 2.98926
245, 3, bw, attraction, a-b-da, 5, 1, 1, 19, 60, 135, 132, 58, 135, 60, 2, 1.1236
245, 3, bw, filler, NA, 999, 999, 1, 20, 132, 59, 96, 158, 111, 111, 2, 1.932
245, 3, bw, filler, NA, 999, 999, 1, 20, 132, 59, 96, 158, 111, 111, 1, 0.885265
245, 3, bw, attraction, a-b-db, 2, 3, 1, 21, 120, 195, 195, 120, 119, 193, 2, 6.08768
245, 3, bw, attraction, a-b-db, 2, 3, 1, 21, 120, 195, 195, 120, 119, 193, 1, 2.36184
245, 3, bw, filler, NA, 999, 999, 1, 22, 99, 168, 89, 97, 172, 149, 3, 1.59234
245, 3, bw, filler, NA, 999, 999, 1, 22, 99, 168, 89, 97, 172, 149, 2, 0.815163
245, 3, bw, attraction, a-b-db, 9, 2, 1, 23, 90, 165, 165, 90, 86, 157, 2, 4.28405
245, 3, bw, attraction, a-b-db, 9, 2, 1, 23, 90, 165, 165, 90, 86, 157, 3, 2.31871
245, 3, bw, attraction, a-b-db, 14, 1, 1, 24, 56, 125, 135, 60, 60, 135, 3, 3.17527
245, 3, bw, attraction, a-b-db, 14, 1, 1, 24, 56, 125, 135, 60, 60, 135, 1, 0.94226
245, 3, bw, attraction, a-b-db, 14, 3, 1, 25, 111, 181, 195, 120, 120, 195, 3, 3.66993
245, 3, bw, attraction, a-b-db, 14, 3, 1, 25, 111, 181, 195, 120, 120, 195, 1, 0.881418
245, 3, bw, attraction, a-b-da, 5, 3, 1, 26, 120, 195, 190, 117, 195, 120, 1, 7.14788
245, 3, bw, attraction, a-b-da, 5, 3, 1, 26, 120, 195, 190, 117, 195, 120, 2, 1.24275
245, 3, bw, attraction, a-b-da, 9, 1, 1, 27, 129, 57, 135, 60, 60, 135, 3, 3.21437
245, 3, bw, attraction, a-b-da, 9, 1, 1, 27, 129, 57, 135, 60, 60, 135, 1, 0.875959
245, 3, bw, filler, NA, 999, 999, 1, 28, 57, 81, 147, 185, 165, 180, 3, 2.66241
245, 3, bw, filler, NA, 999, 999, 1, 28, 57, 81, 147, 185, 165, 180, 1, 0.97022
245, 3, bw, attraction, a-b-da, 2, 1, 1, 29, 134, 59, 60, 135, 135, 60, 2, 3.03309
245, 3, bw, attraction, a-b-da, 2, 1, 1, 29, 134, 59, 60, 135, 135, 60, 3, 0.894201
245, 3, bw, catch, NA, 999, 999, 1, 30, 151, 104, 130, 185, 72, 123, 2, 1.51178
245, 3, bw, catch, NA, 999, 999, 1, 30, 151, 104, 130, 185, 72, 123, 3, 0.625973
245, 3, bw, filler, NA, 999, 999, 1, 31, 107, 134, 74, 188, 179, 111, 3, 3.45442
245, 3, bw, filler, NA, 999, 999, 1, 31, 107, 134, 74, 188, 179, 111, 1, 1.12256
245, 3, bw, attraction, a-b-db, 2, 1, 1, 32, 59, 134, 60, 135, 135, 60, 2, 1.29945
245, 3, bw, attraction, a-b-db, 2, 1, 1, 32, 59, 134, 60, 135, 135, 60, 3, 0.662415
245, 3, bw, attraction, a-b-db, 14, 2, 1, 33, 90, 165, 165, 90, 83, 153, 1, 2.5936
245, 3, bw, attraction, a-b-db, 14, 2, 1, 33, 90, 165, 165, 90, 83, 153, 3, 1.52007
245, 3, bw, filler, NA, 999, 999, 1, 34, 118, 159, 104, 64, 96, 83, 1, 1.39287
245, 3, bw, filler, NA, 999, 999, 1, 34, 118, 159, 104, 64, 96, 83, 2, 1.15963
245, 3, bw, attraction, a-b-db, 5, 2, 1, 35, 165, 90, 90, 165, 88, 161, 2, 3.60651
245, 3, bw, attraction, a-b-db, 5, 2, 1, 35, 165, 90, 90, 165, 88, 161, 3, 2.17201
245, 3, bw, filler, NA, 999, 999, 1, 36, 117, 76, 162, 143, 194, 80, 2, 1.15462
245, 3, bw, filler, NA, 999, 999, 1, 36, 117, 76, 162, 143, 194, 80, 1, 0.69096
245, 3, bw, filler, NA, 999, 999, 1, 37, 167, 56, 96, 117, 67, 178, 3, 5.31667
245, 3, bw, filler, NA, 999, 999, 1, 37, 167, 56, 96, 117, 67, 178, 1, 3.10166
245, 3, bw, attraction, a-b-da, 14, 1, 2, 1, 125, 56, 135, 60, 60, 135, 2, 4.74272
245, 3, bw, attraction, a-b-da, 14, 1, 2, 1, 125, 56, 135, 60, 60, 135, 1, 1.91858
245, 3, bw, attraction, a-b-db, 2, 1, 2, 2, 60, 135, 59, 134, 135, 60, 1, 3.12705
245, 3, bw, attraction, a-b-db, 2, 1, 2, 2, 60, 135, 59, 134, 135, 60, 2, 0.560128
245, 3, bw, attraction, a-b-db, 5, 3, 2, 3, 120, 195, 117, 190, 195, 120, 1, 3.6392
245, 3, bw, attraction, a-b-db, 5, 3, 2, 3, 120, 195, 117, 190, 195, 120, 2, 3.30756
245, 3, bw, attraction, a-b-db, 14, 1, 2, 4, 60, 135, 56, 125, 135, 60, 1, 3.97166
245, 3, bw, attraction, a-b-db, 14, 1, 2, 4, 60, 135, 56, 125, 135, 60, 2, 0.74634
245, 3, bw, filler, NA, 999, 999, 2, 5, 170, 84, 157, 160, 65, 187, 2, 1.30612
245, 3, bw, filler, NA, 999, 999, 2, 5, 170, 84, 157, 160, 65, 187, 3, 3.8604
245, 3, bw, attraction, a-b-da, 5, 2, 2, 6, 161, 88, 90, 165, 165, 90, 1, 3.40631
245, 3, bw, attraction, a-b-da, 5, 2, 2, 6, 161, 88, 90, 165, 165, 90, 2, 1.28396
245, 3, bw, attraction, a-b-da, 5, 3, 2, 7, 120, 195, 190, 117, 195, 120, 1, 2.40612
245, 3, bw, attraction, a-b-da, 5, 3, 2, 7, 120, 195, 190, 117, 195, 120, 2, 0.916149
245, 3, bw, attraction, a-b-db, 2, 2, 2, 8, 165, 90, 89, 163, 90, 165, 2, 6.32495
245, 3, bw, attraction, a-b-db, 2, 2, 2, 8, 165, 90, 89, 163, 90, 165, 3, 1.11702
245, 3, bw, attraction, a-b-da, 9, 3, 2, 9, 186, 114, 195, 120, 120, 195, 2, 0.957977
245, 3, bw, attraction, a-b-da, 9, 3, 2, 9, 186, 114, 195, 120, 120, 195, 3, 1.3903
245, 3, bw, attraction, a-b-da, 14, 2, 2, 10, 153, 83, 90, 165, 165, 90, 2, 2.93182
245, 3, bw, attraction, a-b-da, 14, 2, 2, 10, 153, 83, 90, 165, 165, 90, 3, 0.828836
245, 3, bw, filler, NA, 999, 999, 2, 11, 115, 70, 113, 125, 138, 152, 3, 0.977194
245, 3, bw, filler, NA, 999, 999, 2, 11, 115, 70, 113, 125, 138, 152, 1, 0.792782
245, 3, bw, filler, NA, 999, 999, 2, 12, 84, 69, 157, 158, 59, 81, 2, 1.13451
245, 3, bw, filler, NA, 999, 999, 2, 12, 84, 69, 157, 158, 59, 81, 3, 0.896157
245, 3, bw, catch, NA, 999, 999, 2, 13, 127, 188, 120, 135, 96, 99, 1, 1.48986
245, 3, bw, catch, NA, 999, 999, 2, 13, 127, 188, 120, 135, 96, 99, 3, 0.860757
245, 3, bw, filler, NA, 999, 999, 2, 14, 187, 108, 98, 160, 159, 64, 1, 1.22393
245, 3, bw, filler, NA, 999, 999, 2, 14, 187, 108, 98, 160, 159, 64, 3, 0.61338
245, 3, bw, attraction, a-b-da, 5, 1, 2, 15, 135, 60, 132, 58, 60, 135, 1, 1.31436
245, 3, bw, attraction, a-b-da, 5, 1, 2, 15, 135, 60, 132, 58, 60, 135, 3, 0.972561
245, 3, bw, attraction, a-b-da, 2, 2, 2, 16, 165, 90, 163, 89, 90, 165, 1, 2.24356
245, 3, bw, attraction, a-b-da, 2, 2, 2, 16, 165, 90, 163, 89, 90, 165, 2, 1.5042
245, 3, bw, filler, NA, 999, 999, 2, 17, 161, 143, 64, 121, 183, 73, 1, 1.08166
245, 3, bw, filler, NA, 999, 999, 2, 17, 161, 143, 64, 121, 183, 73, 2, 0.83722
245, 3, bw, attraction, a-b-db, 9, 3, 2, 18, 114, 186, 120, 195, 195, 120, 2, 1.72153
245, 3, bw, attraction, a-b-db, 9, 3, 2, 18, 114, 186, 120, 195, 195, 120, 3, 4.95502
245, 3, bw, filler, NA, 999, 999, 2, 19, 131, 66, 176, 150, 78, 90, 2, 0.977498
245, 3, bw, filler, NA, 999, 999, 2, 19, 131, 66, 176, 150, 78, 90, 3, 1.1451
245, 3, bw, attraction, a-b-da, 2, 1, 2, 20, 135, 60, 134, 59, 60, 135, 1, 3.02464
245, 3, bw, attraction, a-b-da, 2, 1, 2, 20, 135, 60, 134, 59, 60, 135, 3, 0.78164
245, 3, bw, attraction, a-b-db, 5, 1, 2, 21, 135, 60, 60, 135, 58, 132, 1, 1.86017
245, 3, bw, attraction, a-b-db, 5, 1, 2, 21, 135, 60, 60, 135, 58, 132, 2, 0.392148
245, 3, bw, attraction, a-b-db, 14, 3, 2, 22, 195, 120, 120, 195, 111, 181, 2, 1.84587
245, 3, bw, attraction, a-b-db, 14, 3, 2, 22, 195, 120, 120, 195, 111, 181, 3, 0.650657
245, 3, bw, attraction, a-b-db, 5, 2, 2, 23, 165, 90, 90, 165, 88, 161, 1, 1.96652
245, 3, bw, attraction, a-b-db, 5, 2, 2, 23, 165, 90, 90, 165, 88, 161, 3, 0.838532
245, 3, bw, catch, NA, 999, 999, 2, 24, 87, 108, 165, 90, 187, 128, 3, 1.34679
245, 3, bw, catch, NA, 999, 999, 2, 24, 87, 108, 165, 90, 187, 128, 1, 0.515812
245, 3, bw, attraction, a-b-da, 2, 3, 2, 25, 195, 120, 193, 119, 120, 195, 1, 1.3808
245, 3, bw, attraction, a-b-da, 2, 3, 2, 25, 195, 120, 193, 119, 120, 195, 2, 1.36434
245, 3, bw, attraction, a-b-da, 9, 2, 2, 26, 90, 165, 157, 86, 165, 90, 1, 2.41118
245, 3, bw, attraction, a-b-da, 9, 2, 2, 26, 90, 165, 157, 86, 165, 90, 2, 0.657022
245, 3, bw, attraction, a-b-da, 14, 3, 2, 27, 181, 111, 195, 120, 120, 195, 3, 2.98016
245, 3, bw, attraction, a-b-da, 14, 3, 2, 27, 181, 111, 195, 120, 120, 195, 1, 1.01131
245, 3, bw, filler, NA, 999, 999, 2, 28, 188, 144, 180, 111, 107, 134, 1, 1.01603
245, 3, bw, filler, NA, 999, 999, 2, 28, 188, 144, 180, 111, 107, 134, 3, 0.454432
245, 3, bw, filler, NA, 999, 999, 2, 29, 191, 194, 151, 58, 172, 155, 1, 1.94637
245, 3, bw, filler, NA, 999, 999, 2, 29, 191, 194, 151, 58, 172, 155, 2, 0.594913
245, 3, bw, catch, NA, 999, 999, 2, 30, 135, 60, 186, 129, 157, 98, 2, 1.20873
245, 3, bw, catch, NA, 999, 999, 2, 30, 135, 60, 186, 129, 157, 98, 1, 0.663048
245, 3, bw, attraction, a-b-db, 14, 2, 2, 31, 83, 153, 90, 165, 165, 90, 2, 1.60202
245, 3, bw, attraction, a-b-db, 14, 2, 2, 31, 83, 153, 90, 165, 165, 90, 1, 1.33682
245, 3, bw, attraction, a-b-db, 9, 1, 2, 32, 60, 135, 135, 60, 57, 129, 1, 1.33708
245, 3, bw, attraction, a-b-db, 9, 1, 2, 32, 60, 135, 135, 60, 57, 129, 3, 1.05867
245, 3, bw, attraction, a-b-db, 2, 3, 2, 33, 119, 193, 195, 120, 120, 195, 2, 3.14957
245, 3, bw, attraction, a-b-db, 2, 3, 2, 33, 119, 193, 195, 120, 120, 195, 1, 0.837981
245, 3, bw, attraction, a-b-da, 9, 1, 2, 34, 129, 57, 135, 60, 60, 135, 2, 4.59424
245, 3, bw, attraction, a-b-da, 9, 1, 2, 34, 129, 57, 135, 60, 60, 135, 1, 1.10417
245, 3, bw, filler, NA, 999, 999, 2, 35, 179, 187, 171, 153, 63, 65, 1, 1.33768
245, 3, bw, filler, NA, 999, 999, 2, 35, 179, 187, 171, 153, 63, 65, 3, 0.63454
245, 3, bw, attraction, a-b-db, 9, 2, 2, 36, 165, 90, 86, 157, 90, 165, 3, 1.80697
245, 3, bw, attraction, a-b-db, 9, 2, 2, 36, 165, 90, 86, 157, 90, 165, 2, 0.573074
245, 3, bw, filler, NA, 999, 999, 2, 37, 65, 72, 187, 87, 143, 98, 3, 1.22005
245, 3, bw, filler, NA, 999, 999, 2, 37, 65, 72, 187, 87, 143, 98, 1, 0.834507
245, 3, bw, attraction, a-b-da, 2, 1, 3, 1, 60, 135, 134, 59, 135, 60, 1, 1.82273
245, 3, bw, attraction, a-b-da, 2, 1, 3, 1, 60, 135, 134, 59, 135, 60, 3, 0.612131
245, 3, bw, attraction, a-b-da, 14, 3, 3, 2, 181, 111, 120, 195, 195, 120, 3, 2.39327
245, 3, bw, attraction, a-b-da, 14, 3, 3, 2, 181, 111, 120, 195, 195, 120, 1, 0.599843
245, 3, bw, filler, NA, 999, 999, 3, 3, 175, 118, 152, 181, 104, 187, 2, 0.79755
245, 3, bw, filler, NA, 999, 999, 3, 3, 175, 118, 152, 181, 104, 187, 3, 0.620626
245, 3, bw, attraction, a-b-da, 9, 1, 3, 4, 135, 60, 129, 57, 60, 135, 1, 4.49773
245, 3, bw, attraction, a-b-da, 9, 1, 3, 4, 135, 60, 129, 57, 60, 135, 3, 1.31562
245, 3, bw, attraction, a-b-db, 2, 1, 3, 5, 135, 60, 59, 134, 60, 135, 1, 0.88455
245, 3, bw, attraction, a-b-db, 2, 1, 3, 5, 135, 60, 59, 134, 60, 135, 3, 0.608135
245, 3, bw, attraction, a-b-db, 14, 2, 3, 6, 90, 165, 165, 90, 83, 153, 1, 1.6052
245, 3, bw, attraction, a-b-db, 14, 2, 3, 6, 90, 165, 165, 90, 83, 153, 3, 0.699365
245, 3, bw, filler, NA, 999, 999, 3, 7, 181, 176, 129, 110, 75, 152, 1, 0.869081
245, 3, bw, filler, NA, 999, 999, 3, 7, 181, 176, 129, 110, 75, 152, 3, 2.65741
245, 3, bw, filler, NA, 999, 999, 3, 8, 89, 128, 193, 71, 173, 86, 3, 5.51584
245, 3, bw, filler, NA, 999, 999, 3, 8, 89, 128, 193, 71, 173, 86, 2, 0.980755
245, 3, bw, filler, NA, 999, 999, 3, 9, 96, 100, 85, 129, 87, 195, 3, 1.9712
245, 3, bw, filler, NA, 999, 999, 3, 9, 96, 100, 85, 129, 87, 195, 1, 1.69047
245, 3, bw, attraction, a-b-da, 14, 2, 3, 10, 153, 83, 90, 165, 165, 90, 2, 1.81981
245, 3, bw, attraction, a-b-da, 14, 2, 3, 10, 153, 83, 90, 165, 165, 90, 1, 0.657948
245, 3, bw, attraction, a-b-db, 9, 1, 3, 11, 60, 135, 135, 60, 57, 129, 2, 0.948984
245, 3, bw, attraction, a-b-db, 9, 1, 3, 11, 60, 135, 135, 60, 57, 129, 3, 0.822081
245, 3, bw, attraction, a-b-da, 14, 1, 3, 12, 125, 56, 135, 60, 60, 135, 2, 0.691054
245, 3, bw, attraction, a-b-da, 14, 1, 3, 12, 125, 56, 135, 60, 60, 135, 3, 0.998153
245, 3, bw, filler, NA, 999, 999, 3, 13, 190, 122, 123, 124, 152, 82, 1, 0.867796
245, 3, bw, filler, NA, 999, 999, 3, 13, 190, 122, 123, 124, 152, 82, 3, 0.720109
245, 3, bw, attraction, a-b-da, 5, 3, 3, 14, 190, 117, 120, 195, 195, 120, 1, 1.12126
245, 3, bw, attraction, a-b-da, 5, 3, 3, 14, 190, 117, 120, 195, 195, 120, 2, 0.354878
245, 3, bw, attraction, a-b-da, 9, 3, 3, 15, 120, 195, 195, 120, 186, 114, 1, 1.22668
245, 3, bw, attraction, a-b-da, 9, 3, 3, 15, 120, 195, 195, 120, 186, 114, 2, 0.408337
245, 3, bw, attraction, a-b-db, 5, 1, 3, 16, 60, 135, 58, 132, 135, 60, 1, 1.2134
245, 3, bw, attraction, a-b-db, 5, 1, 3, 16, 60, 135, 58, 132, 135, 60, 2, 0.603671
245, 3, bw, filler, NA, 999, 999, 3, 17, 184, 105, 112, 126, 64, 194, 1, 3.24946
245, 3, bw, filler, NA, 999, 999, 3, 17, 184, 105, 112, 126, 64, 194, 3, 0.869729
245, 3, bw, attraction, a-b-da, 2, 3, 3, 18, 195, 120, 193, 119, 120, 195, 1, 0.89682
245, 3, bw, attraction, a-b-da, 2, 3, 3, 18, 195, 120, 193, 119, 120, 195, 3, 2.25173
245, 3, bw, catch, NA, 999, 999, 3, 19, 125, 70, 160, 155, 155, 100, 2, 0.83093
245, 3, bw, catch, NA, 999, 999, 3, 19, 125, 70, 160, 155, 155, 100, 1, 0.924678
245, 3, bw, filler, NA, 999, 999, 3, 20, 135, 78, 164, 117, 82, 175, 2, 1.04501
245, 3, bw, filler, NA, 999, 999, 3, 20, 135, 78, 164, 117, 82, 175, 1, 0.60199
245, 3, bw, attraction, a-b-da, 2, 2, 3, 21, 165, 90, 163, 89, 90, 165, 2, 1.34378
245, 3, bw, attraction, a-b-da, 2, 2, 3, 21, 165, 90, 163, 89, 90, 165, 3, 0.536641
245, 3, bw, attraction, a-b-da, 9, 2, 3, 22, 90, 165, 157, 86, 165, 90, 1, 0.785043
245, 3, bw, attraction, a-b-da, 9, 2, 3, 22, 90, 165, 157, 86, 165, 90, 2, 0.520758
245, 3, bw, attraction, a-b-db, 9, 2, 3, 23, 165, 90, 86, 157, 90, 165, 3, 2.3219
245, 3, bw, attraction, a-b-db, 9, 2, 3, 23, 165, 90, 86, 157, 90, 165, 2, 0.403099
245, 3, bw, filler, NA, 999, 999, 3, 24, 89, 168, 58, 147, 160, 72, 1, 0.865177
245, 3, bw, filler, NA, 999, 999, 3, 24, 89, 168, 58, 147, 160, 72, 2, 0.485394
245, 3, bw, attraction, a-b-db, 9, 3, 3, 25, 120, 195, 195, 120, 114, 186, 1, 2.20787
245, 3, bw, attraction, a-b-db, 9, 3, 3, 25, 120, 195, 195, 120, 114, 186, 3, 1.92578
245, 3, bw, attraction, a-b-da, 5, 1, 3, 26, 132, 58, 60, 135, 135, 60, 3, 3.11779
245, 3, bw, attraction, a-b-da, 5, 1, 3, 26, 132, 58, 60, 135, 135, 60, 2, 0.743356
245, 3, bw, filler, NA, 999, 999, 3, 27, 191, 113, 122, 140, 128, 160, 3, 3.08714
245, 3, bw, filler, NA, 999, 999, 3, 27, 191, 113, 122, 140, 128, 160, 2, 0.410084
245, 3, bw, attraction, a-b-db, 5, 3, 3, 28, 117, 190, 120, 195, 195, 120, 1, 1.74321
245, 3, bw, attraction, a-b-db, 5, 3, 3, 28, 117, 190, 120, 195, 195, 120, 2, 0.60802
245, 3, bw, catch, NA, 999, 999, 3, 29, 155, 100, 124, 71, 177, 138, 3, 0.917108
245, 3, bw, catch, NA, 999, 999, 3, 29, 155, 100, 124, 71, 177, 138, 2, 0.647433
245, 3, bw, catch, NA, 999, 999, 3, 30, 140, 175, 65, 130, 97, 158, 1, 0.82721
245, 3, bw, catch, NA, 999, 999, 3, 30, 140, 175, 65, 130, 97, 158, 2, 0.672955
245, 3, bw, attraction, a-b-db, 14, 1, 3, 31, 56, 125, 135, 60, 60, 135, 2, 1.13997
245, 3, bw, attraction, a-b-db, 14, 1, 3, 31, 56, 125, 135, 60, 60, 135, 3, 0.845082
245, 3, bw, attraction, a-b-db, 5, 2, 3, 32, 88, 161, 165, 90, 90, 165, 1, 0.992778
245, 3, bw, attraction, a-b-db, 5, 2, 3, 32, 88, 161, 165, 90, 90, 165, 2, 0.535727
245, 3, bw, attraction, a-b-da, 5, 2, 3, 33, 165, 90, 90, 165, 161, 88, 1, 2.99212
245, 3, bw, attraction, a-b-da, 5, 2, 3, 33, 165, 90, 90, 165, 161, 88, 2, 0.790476
245, 3, bw, attraction, a-b-db, 14, 3, 3, 34, 111, 181, 120, 195, 195, 120, 2, 1.14013
245, 3, bw, attraction, a-b-db, 14, 3, 3, 34, 111, 181, 120, 195, 195, 120, 1, 0.365004
245, 3, bw, filler, NA, 999, 999, 3, 35, 192, 60, 75, 187, 128, 129, 2, 4.78026
245, 3, bw, filler, NA, 999, 999, 3, 35, 192, 60, 75, 187, 128, 129, 1, 0.74668
245, 3, bw, attraction, a-b-db, 2, 3, 3, 36, 119, 193, 120, 195, 195, 120, 3, 2.81034
245, 3, bw, attraction, a-b-db, 2, 3, 3, 36, 119, 193, 120, 195, 195, 120, 2, 0.440219
245, 3, bw, attraction, a-b-db, 2, 2, 3, 37, 89, 163, 165, 90, 90, 165, 3, 1.57998
245, 3, bw, attraction, a-b-db, 2, 2, 3, 37, 89, 163, 165, 90, 90, 165, 2, 0.451423
245, 3, bw, filler, NA, 999, 999, 4, 1, 132, 169, 136, 164, 173, 101, 1, 2.09528
245, 3, bw, filler, NA, 999, 999, 4, 1, 132, 169, 136, 164, 173, 101, 2, 0.337865
245, 3, bw, attraction, a-b-da, 2, 3, 4, 2, 120, 195, 193, 119, 195, 120, 3, 2.25041
245, 3, bw, attraction, a-b-da, 2, 3, 4, 2, 120, 195, 193, 119, 195, 120, 1, 0.599097
245, 3, bw, filler, NA, 999, 999, 4, 3, 128, 84, 178, 155, 67, 79, 2, 1.39678
245, 3, bw, filler, NA, 999, 999, 4, 3, 128, 84, 178, 155, 67, 79, 3, 0.539648
245, 3, bw, catch, NA, 999, 999, 4, 4, 160, 95, 83, 112, 165, 150, 3, 1.03608
245, 3, bw, catch, NA, 999, 999, 4, 4, 160, 95, 83, 112, 165, 150, 2, 1.23382
245, 3, bw, filler, NA, 999, 999, 4, 5, 167, 66, 88, 152, 86, 118, 2, 1.68606
245, 3, bw, filler, NA, 999, 999, 4, 5, 167, 66, 88, 152, 86, 118, 3, 0.473431
245, 3, bw, catch, NA, 999, 999, 4, 6, 184, 131, 148, 107, 106, 89, 1, 0.94806
245, 3, bw, catch, NA, 999, 999, 4, 6, 184, 131, 148, 107, 106, 89, 3, 1.79734
245, 3, bw, attraction, a-b-db, 5, 1, 4, 7, 58, 132, 135, 60, 60, 135, 1, 0.866276
245, 3, bw, attraction, a-b-db, 5, 1, 4, 7, 58, 132, 135, 60, 60, 135, 2, 1.11066
245, 3, bw, attraction, a-b-db, 14, 1, 4, 8, 56, 125, 135, 60, 60, 135, 3, 1.02361
245, 3, bw, attraction, a-b-db, 14, 1, 4, 8, 56, 125, 135, 60, 60, 135, 1, 1.29327
245, 3, bw, attraction, a-b-da, 2, 2, 4, 9, 165, 90, 90, 165, 163, 89, 1, 5.69471
245, 3, bw, attraction, a-b-da, 2, 2, 4, 9, 165, 90, 90, 165, 163, 89, 3, 1.76033
245, 3, bw, attraction, a-b-db, 9, 3, 4, 10, 114, 186, 195, 120, 120, 195, 3, 1.66307
245, 3, bw, attraction, a-b-db, 9, 3, 4, 10, 114, 186, 195, 120, 120, 195, 1, 0.515136
245, 3, bw, filler, NA, 999, 999, 4, 11, 103, 67, 186, 165, 69, 119, 2, 0.852227
245, 3, bw, filler, NA, 999, 999, 4, 11, 103, 67, 186, 165, 69, 119, 1, 1.1133
245, 3, bw, filler, NA, 999, 999, 4, 12, 119, 88, 171, 148, 57, 164, 2, 0.858167
245, 3, bw, filler, NA, 999, 999, 4, 12, 119, 88, 171, 148, 57, 164, 3, 0.574643
245, 3, bw, attraction, a-b-db, 2, 3, 4, 13, 195, 120, 119, 193, 120, 195, 1, 4.06101
245, 3, bw, attraction, a-b-db, 2, 3, 4, 13, 195, 120, 119, 193, 120, 195, 2, 0.704719
245, 3, bw, attraction, a-b-da, 14, 3, 4, 14, 181, 111, 120, 195, 195, 120, 3, 1.44208
245, 3, bw, attraction, a-b-da, 14, 3, 4, 14, 181, 111, 120, 195, 195, 120, 2, 0.414994
245, 3, bw, attraction, a-b-db, 5, 3, 4, 15, 117, 190, 195, 120, 120, 195, 2, 1.75622
245, 3, bw, attraction, a-b-db, 5, 3, 4, 15, 117, 190, 195, 120, 120, 195, 1, 0.468264
245, 3, bw, attraction, a-b-db, 9, 2, 4, 16, 86, 157, 90, 165, 165, 90, 3, 4.59126
245, 3, bw, attraction, a-b-db, 9, 2, 4, 16, 86, 157, 90, 165, 165, 90, 2, 0.3811
245, 3, bw, attraction, a-b-da, 9, 2, 4, 17, 90, 165, 165, 90, 157, 86, 2, 3.65961
245, 3, bw, attraction, a-b-da, 9, 2, 4, 17, 90, 165, 165, 90, 157, 86, 3, 0.631122
245, 3, bw, attraction, a-b-da, 9, 1, 4, 18, 135, 60, 129, 57, 60, 135, 3, 3.87548
245, 3, bw, attraction, a-b-da, 9, 1, 4, 18, 135, 60, 129, 57, 60, 135, 2, 0.294292
245, 3, bw, filler, NA, 999, 999, 4, 19, 121, 153, 70, 87, 80, 127, 1, 0.976283
245, 3, bw, filler, NA, 999, 999, 4, 19, 121, 153, 70, 87, 80, 127, 2, 1.64788
245, 3, bw, filler, NA, 999, 999, 4, 20, 171, 163, 178, 107, 192, 67, 1, 1.77131
245, 3, bw, filler, NA, 999, 999, 4, 20, 171, 163, 178, 107, 192, 67, 3, 0.731372
245, 3, bw, attraction, a-b-da, 5, 1, 4, 21, 132, 58, 60, 135, 135, 60, 1, 2.6357
245, 3, bw, attraction, a-b-da, 5, 1, 4, 21, 132, 58, 60, 135, 135, 60, 2, 0.73687
245, 3, bw, attraction, a-b-da, 14, 2, 4, 22, 153, 83, 90, 165, 165, 90, 3, 1.32936
245, 3, bw, attraction, a-b-da, 14, 2, 4, 22, 153, 83, 90, 165, 165, 90, 1, 0.866934
245, 3, bw, attraction, a-b-db, 14, 3, 4, 23, 120, 195, 195, 120, 111, 181, 1, 4.29387
245, 3, bw, attraction, a-b-db, 14, 3, 4, 23, 120, 195, 195, 120, 111, 181, 2, 0.375838
245, 3, bw, filler, NA, 999, 999, 4, 24, 68, 90, 59, 131, 158, 145, 3, 0.798436
245, 3, bw, filler, NA, 999, 999, 4, 24, 68, 90, 59, 131, 158, 145, 1, 0.533272
245, 3, bw, attraction, a-b-da, 14, 1, 4, 25, 135, 60, 60, 135, 125, 56, 1, 1.12576
245, 3, bw, attraction, a-b-da, 14, 1, 4, 25, 135, 60, 60, 135, 125, 56, 3, 0.815439
245, 3, bw, filler, NA, 999, 999, 4, 26, 157, 91, 107, 157, 66, 146, 1, 1.14845
245, 3, bw, filler, NA, 999, 999, 4, 26, 157, 91, 107, 157, 66, 146, 3, 0.581343
245, 3, bw, attraction, a-b-da, 5, 2, 4, 27, 90, 165, 165, 90, 161, 88, 1, 2.00388
245, 3, bw, attraction, a-b-da, 5, 2, 4, 27, 90, 165, 165, 90, 161, 88, 3, 0.729811
245, 3, bw, attraction, a-b-da, 5, 3, 4, 28, 190, 117, 120, 195, 195, 120, 2, 1.73016
245, 3, bw, attraction, a-b-da, 5, 3, 4, 28, 190, 117, 120, 195, 195, 120, 3, 1.53171
245, 3, bw, attraction, a-b-da, 9, 3, 4, 29, 186, 114, 120, 195, 195, 120, 3, 4.86779
245, 3, bw, attraction, a-b-da, 9, 3, 4, 29, 186, 114, 120, 195, 195, 120, 1, 0.726923
245, 3, bw, catch, NA, 999, 999, 4, 30, 187, 128, 137, 118, 116, 79, 1, 1.19122
245, 3, bw, catch, NA, 999, 999, 4, 30, 187, 128, 137, 118, 116, 79, 3, 0.510279
245, 3, bw, attraction, a-b-db, 14, 2, 4, 31, 83, 153, 90, 165, 165, 90, 2, 6.99934
245, 3, bw, attraction, a-b-db, 14, 2, 4, 31, 83, 153, 90, 165, 165, 90, 1, 0.700404
245, 3, bw, attraction, a-b-db, 5, 2, 4, 32, 90, 165, 165, 90, 88, 161, 3, 1.75822
245, 3, bw, attraction, a-b-db, 5, 2, 4, 32, 90, 165, 165, 90, 88, 161, 1, 0.654244
245, 3, bw, filler, NA, 999, 999, 4, 33, 83, 68, 177, 184, 126, 122, 2, 1.12196
245, 3, bw, filler, NA, 999, 999, 4, 33, 83, 68, 177, 184, 126, 122, 1, 0.491599
245, 3, bw, attraction, a-b-da, 2, 1, 4, 34, 60, 135, 135, 60, 134, 59, 2, 1.93338
245, 3, bw, attraction, a-b-da, 2, 1, 4, 34, 60, 135, 135, 60, 134, 59, 1, 0.774812
245, 3, bw, attraction, a-b-db, 2, 2, 4, 35, 90, 165, 89, 163, 165, 90, 2, 2.09316
245, 3, bw, attraction, a-b-db, 2, 2, 4, 35, 90, 165, 89, 163, 165, 90, 1, 0.679742
245, 3, bw, attraction, a-b-db, 9, 1, 4, 36, 60, 135, 57, 129, 135, 60, 1, 2.10625
245, 3, bw, attraction, a-b-db, 9, 1, 4, 36, 60, 135, 57, 129, 135, 60, 2, 0.380106
245, 3, bw, attraction, a-b-db, 2, 1, 4, 37, 60, 135, 59, 134, 135, 60, 3, 2.94672
245, 3, bw, attraction, a-b-db, 2, 1, 4, 37, 60, 135, 59, 134, 135, 60, 2, 0.467118
245, 3, bw, attraction, a-b-db, 5, 3, 5, 1, 120, 195, 195, 120, 117, 190, 2, 3.54085
245, 3, bw, attraction, a-b-db, 5, 3, 5, 1, 120, 195, 195, 120, 117, 190, 3, 0.309077
245, 3, bw, catch, NA, 999, 999, 5, 2, 165, 150, 105, 90, 123, 132, 1, 0.662127
245, 3, bw, catch, NA, 999, 999, 5, 2, 165, 150, 105, 90, 123, 132, 2, 0.354644
245, 3, bw, filler, NA, 999, 999, 5, 3, 74, 76, 110, 186, 140, 114, 2, 1.25845
245, 3, bw, filler, NA, 999, 999, 5, 3, 74, 76, 110, 186, 140, 114, 1, 0.638703
245, 3, bw, attraction, a-b-da, 9, 1, 5, 4, 129, 57, 60, 135, 135, 60, 3, 1.05115
245, 3, bw, attraction, a-b-da, 9, 1, 5, 4, 129, 57, 60, 135, 135, 60, 2, 0.528052
245, 3, bw, attraction, a-b-db, 5, 2, 5, 5, 165, 90, 88, 161, 90, 165, 1, 1.38446
245, 3, bw, attraction, a-b-db, 5, 2, 5, 5, 165, 90, 88, 161, 90, 165, 2, 0.656092
245, 3, bw, filler, NA, 999, 999, 5, 6, 165, 96, 163, 120, 117, 142, 2, 1.35578
245, 3, bw, filler, NA, 999, 999, 5, 6, 165, 96, 163, 120, 117, 142, 3, 1.58802
245, 3, bw, attraction, a-b-db, 5, 1, 5, 7, 60, 135, 135, 60, 58, 132, 1, 1.49005
245, 3, bw, attraction, a-b-db, 5, 1, 5, 7, 60, 135, 135, 60, 58, 132, 3, 0.692963
245, 3, bw, filler, NA, 999, 999, 5, 8, 98, 136, 176, 79, 83, 142, 1, 6.38268
245, 3, bw, filler, NA, 999, 999, 5, 8, 98, 136, 176, 79, 83, 142, 3, 0.508786
245, 3, bw, attraction, a-b-db, 2, 3, 5, 9, 120, 195, 119, 193, 195, 120, 1, 0.981718
245, 3, bw, attraction, a-b-db, 2, 3, 5, 9, 120, 195, 119, 193, 195, 120, 2, 1.04551
245, 3, bw, attraction, a-b-da, 9, 3, 5, 10, 120, 195, 186, 114, 195, 120, 1, 2.03314
245, 3, bw, attraction, a-b-da, 9, 3, 5, 10, 120, 195, 186, 114, 195, 120, 2, 0.558401
245, 3, bw, filler, NA, 999, 999, 5, 11, 57, 172, 129, 159, 120, 72, 2, 1.94952
245, 3, bw, filler, NA, 999, 999, 5, 11, 57, 172, 129, 159, 120, 72, 3, 0.51819
245, 3, bw, attraction, a-b-da, 2, 3, 5, 12, 195, 120, 193, 119, 120, 195, 1, 3.95126
245, 3, bw, attraction, a-b-da, 2, 3, 5, 12, 195, 120, 193, 119, 120, 195, 3, 0.975519
245, 3, bw, attraction, a-b-da, 9, 2, 5, 13, 165, 90, 157, 86, 90, 165, 1, 1.97356
245, 3, bw, attraction, a-b-da, 9, 2, 5, 13, 165, 90, 157, 86, 90, 165, 3, 0.373064
245, 3, bw, attraction, a-b-db, 14, 3, 5, 14, 111, 181, 195, 120, 120, 195, 2, 1.73212
245, 3, bw, attraction, a-b-db, 14, 3, 5, 14, 111, 181, 195, 120, 120, 195, 3, 0.40563
245, 3, bw, attraction, a-b-db, 14, 2, 5, 15, 83, 153, 165, 90, 90, 165, 3, 1.66842
245, 3, bw, attraction, a-b-db, 14, 2, 5, 15, 83, 153, 165, 90, 90, 165, 1, 0.599484
245, 3, bw, attraction, a-b-db, 9, 3, 5, 16, 195, 120, 120, 195, 114, 186, 1, 1.22131
245, 3, bw, attraction, a-b-db, 9, 3, 5, 16, 195, 120, 120, 195, 114, 186, 2, 0.354906
245, 3, bw, filler, NA, 999, 999, 5, 17, 149, 68, 191, 131, 107, 75, 2, 0.70666
245, 3, bw, filler, NA, 999, 999, 5, 17, 149, 68, 191, 131, 107, 75, 3, 0.405097
245, 3, bw, attraction, a-b-db, 14, 1, 5, 18, 60, 135, 135, 60, 56, 125, 1, 1.05104
245, 3, bw, attraction, a-b-db, 14, 1, 5, 18, 60, 135, 135, 60, 56, 125, 3, 0.391917
245, 3, bw, attraction, a-b-db, 2, 2, 5, 19, 89, 163, 90, 165, 165, 90, 1, 1.92582
245, 3, bw, attraction, a-b-db, 2, 2, 5, 19, 89, 163, 90, 165, 165, 90, 2, 0.479151
245, 3, bw, attraction, a-b-da, 2, 2, 5, 20, 165, 90, 90, 165, 163, 89, 1, 3.94568
245, 3, bw, attraction, a-b-da, 2, 2, 5, 20, 165, 90, 90, 165, 163, 89, 2, 0.73768
245, 3, bw, catch, NA, 999, 999, 5, 21, 103, 152, 188, 127, 99, 96, 2, 1.21806
245, 3, bw, catch, NA, 999, 999, 5, 21, 103, 152, 188, 127, 99, 96, 3, 0.648316
245, 3, bw, attraction, a-b-da, 5, 3, 5, 22, 190, 117, 195, 120, 120, 195, 1, 1.58017
245, 3, bw, attraction, a-b-da, 5, 3, 5, 22, 190, 117, 195, 120, 120, 195, 3, 0.571544
245, 3, bw, attraction, a-b-db, 9, 2, 5, 23, 90, 165, 86, 157, 165, 90, 1, 1.3467
245, 3, bw, attraction, a-b-db, 9, 2, 5, 23, 90, 165, 86, 157, 165, 90, 2, 0.555585
245, 3, bw, attraction, a-b-db, 2, 1, 5, 24, 135, 60, 59, 134, 60, 135, 1, 2.61924
245, 3, bw, attraction, a-b-db, 2, 1, 5, 24, 135, 60, 59, 134, 60, 135, 2, 1.4411
245, 3, bw, attraction, a-b-da, 5, 1, 5, 25, 132, 58, 60, 135, 135, 60, 2, 3.38858
245, 3, bw, attraction, a-b-da, 5, 1, 5, 25, 132, 58, 60, 135, 135, 60, 1, 0.8668
245, 3, bw, attraction, a-b-da, 14, 2, 5, 26, 165, 90, 153, 83, 90, 165, 3, 4.23776
245, 3, bw, attraction, a-b-da, 14, 2, 5, 26, 165, 90, 153, 83, 90, 165, 2, 0.458661
245, 3, bw, filler, NA, 999, 999, 5, 27, 120, 188, 168, 179, 177, 138, 2, 1.21371
245, 3, bw, filler, NA, 999, 999, 5, 27, 120, 188, 168, 179, 177, 138, 1, 0.707907
245, 3, bw, attraction, a-b-da, 14, 1, 5, 28, 60, 135, 135, 60, 125, 56, 2, 2.42095
245, 3, bw, attraction, a-b-da, 14, 1, 5, 28, 60, 135, 135, 60, 125, 56, 1, 0.506882
245, 3, bw, filler, NA, 999, 999, 5, 29, 148, 86, 122, 74, 172, 102, 3, 0.691892
245, 3, bw, filler, NA, 999, 999, 5, 29, 148, 86, 122, 74, 172, 102, 2, 0.454997
245, 3, bw, attraction, a-b-da, 5, 2, 5, 30, 161, 88, 165, 90, 90, 165, 1, 3.38696
245, 3, bw, attraction, a-b-da, 5, 2, 5, 30, 161, 88, 165, 90, 90, 165, 2, 0.697829
245, 3, bw, filler, NA, 999, 999, 5, 31, 130, 159, 103, 63, 187, 182, 3, 0.62769
245, 3, bw, filler, NA, 999, 999, 5, 31, 130, 159, 103, 63, 187, 182, 2, 0.393227
245, 3, bw, attraction, a-b-da, 14, 3, 5, 32, 181, 111, 195, 120, 120, 195, 2, 1.4311
245, 3, bw, attraction, a-b-da, 14, 3, 5, 32, 181, 111, 195, 120, 120, 195, 3, 0.460584
245, 3, bw, catch, NA, 999, 999, 5, 33, 131, 64, 174, 141, 126, 129, 2, 0.879756
245, 3, bw, catch, NA, 999, 999, 5, 33, 131, 64, 174, 141, 126, 129, 1, 0.523427
245, 3, bw, attraction, a-b-db, 9, 1, 5, 34, 60, 135, 135, 60, 57, 129, 1, 1.3
245, 3, bw, attraction, a-b-db, 9, 1, 5, 34, 60, 135, 135, 60, 57, 129, 3, 0.606864
245, 3, bw, filler, NA, 999, 999, 5, 35, 101, 151, 64, 101, 165, 86, 1, 7.55583
245, 3, bw, filler, NA, 999, 999, 5, 35, 101, 151, 64, 101, 165, 86, 2, 0.402794
245, 3, bw, attraction, a-b-da, 2, 1, 5, 36, 60, 135, 135, 60, 134, 59, 1, 2.45659
245, 3, bw, attraction, a-b-da, 2, 1, 5, 36, 60, 135, 135, 60, 134, 59, 3, 1.02064
245, 3, bw, filler, NA, 999, 999, 5, 37, 66, 122, 163, 141, 173, 178, 3, 1.26544
245, 3, bw, filler, NA, 999, 999, 5, 37, 66, 122, 163, 141, 173, 178, 1, 0.661638
245, 3, bw, attraction, a-b-da, 2, 1, 6, 1, 135, 60, 60, 135, 134, 59, 1, 3.20879
245, 3, bw, attraction, a-b-da, 2, 1, 6, 1, 135, 60, 60, 135, 134, 59, 3, 0.886365
245, 3, bw, filler, NA, 999, 999, 6, 2, 155, 65, 162, 104, 133, 143, 3, 2.67275
245, 3, bw, filler, NA, 999, 999, 6, 2, 155, 65, 162, 104, 133, 143, 1, 0.739989
245, 3, bw, attraction, a-b-da, 9, 1, 6, 3, 135, 60, 129, 57, 60, 135, 1, 1.42029
245, 3, bw, attraction, a-b-da, 9, 1, 6, 3, 135, 60, 129, 57, 60, 135, 2, 0.386415
245, 3, bw, attraction, a-b-da, 2, 2, 6, 4, 90, 165, 163, 89, 165, 90, 1, 2.52905
245, 3, bw, attraction, a-b-da, 2, 2, 6, 4, 90, 165, 163, 89, 165, 90, 2, 0.570054
245, 3, bw, attraction, a-b-db, 14, 2, 6, 5, 90, 165, 165, 90, 83, 153, 1, 2.58522
245, 3, bw, attraction, a-b-db, 14, 2, 6, 5, 90, 165, 165, 90, 83, 153, 3, 1.17641
245, 3, bw, attraction, a-b-da, 14, 1, 6, 6, 60, 135, 125, 56, 135, 60, 1, 2.23059
245, 3, bw, attraction, a-b-da, 14, 1, 6, 6, 60, 135, 125, 56, 135, 60, 2, 0.587881
245, 3, bw, filler, NA, 999, 999, 6, 7, 56, 73, 94, 68, 157, 154, 3, 1.30631
245, 3, bw, filler, NA, 999, 999, 6, 7, 56, 73, 94, 68, 157, 154, 1, 0.62869
245, 3, bw, attraction, a-b-db, 2, 1, 6, 8, 135, 60, 60, 135, 59, 134, 2, 2.70496
245, 3, bw, attraction, a-b-db, 2, 1, 6, 8, 135, 60, 60, 135, 59, 134, 3, 0.387433
245, 3, bw, attraction, a-b-db, 14, 1, 6, 9, 60, 135, 56, 125, 135, 60, 1, 2.58604
245, 3, bw, attraction, a-b-db, 14, 1, 6, 9, 60, 135, 56, 125, 135, 60, 2, 0.625172
245, 3, bw, attraction, a-b-db, 14, 3, 6, 10, 120, 195, 195, 120, 111, 181, 2, 1.02158
245, 3, bw, attraction, a-b-db, 14, 3, 6, 10, 120, 195, 195, 120, 111, 181, 3, 0.963156
245, 3, bw, attraction, a-b-db, 9, 2, 6, 11, 86, 157, 165, 90, 90, 165, 2, 4.0022
245, 3, bw, attraction, a-b-db, 9, 2, 6, 11, 86, 157, 165, 90, 90, 165, 1, 0.416116
245, 3, bw, catch, NA, 999, 999, 6, 12, 121, 134, 173, 142, 113, 82, 2, 1.29329
245, 3, bw, catch, NA, 999, 999, 6, 12, 121, 134, 173, 142, 113, 82, 3, 0.792429
245, 3, bw, attraction, a-b-da, 5, 2, 6, 13, 165, 90, 161, 88, 90, 165, 3, 6.66199
245, 3, bw, attraction, a-b-da, 5, 2, 6, 13, 165, 90, 161, 88, 90, 165, 2, 0.744526
245, 3, bw, filler, NA, 999, 999, 6, 14, 106, 183, 64, 63, 126, 75, 1, 0.816159
245, 3, bw, filler, NA, 999, 999, 6, 14, 106, 183, 64, 63, 126, 75, 2, 0.414557
245, 3, bw, attraction, a-b-da, 14, 3, 6, 15, 120, 195, 181, 111, 195, 120, 3, 1.45175
245, 3, bw, attraction, a-b-da, 14, 3, 6, 15, 120, 195, 181, 111, 195, 120, 2, 0.64052
245, 3, bw, attraction, a-b-db, 5, 3, 6, 16, 195, 120, 117, 190, 120, 195, 3, 2.58033
245, 3, bw, attraction, a-b-db, 5, 3, 6, 16, 195, 120, 117, 190, 120, 195, 2, 0.947506
245, 3, bw, filler, NA, 999, 999, 6, 17, 92, 96, 106, 173, 75, 99, 2, 0.907108
245, 3, bw, filler, NA, 999, 999, 6, 17, 92, 96, 106, 173, 75, 99, 3, 0.629398
245, 3, bw, filler, NA, 999, 999, 6, 18, 107, 109, 101, 150, 57, 87, 2, 1.03384
245, 3, bw, filler, NA, 999, 999, 6, 18, 107, 109, 101, 150, 57, 87, 3, 0.615544
245, 3, bw, attraction, a-b-db, 2, 2, 6, 19, 165, 90, 89, 163, 90, 165, 2, 4.51658
245, 3, bw, attraction, a-b-db, 2, 2, 6, 19, 165, 90, 89, 163, 90, 165, 3, 2.06184
245, 3, bw, filler, NA, 999, 999, 6, 20, 176, 56, 124, 133, 91, 165, 2, 1.68851
245, 3, bw, filler, NA, 999, 999, 6, 20, 176, 56, 124, 133, 91, 165, 1, 0.771412
245, 3, bw, attraction, a-b-db, 5, 2, 6, 21, 88, 161, 90, 165, 165, 90, 1, 2.60226
245, 3, bw, attraction, a-b-db, 5, 2, 6, 21, 88, 161, 90, 165, 165, 90, 2, 1.20076
245, 3, bw, attraction, a-b-da, 14, 2, 6, 22, 153, 83, 90, 165, 165, 90, 3, 2.29454
245, 3, bw, attraction, a-b-da, 14, 2, 6, 22, 153, 83, 90, 165, 165, 90, 1, 1.03287
245, 3, bw, filler, NA, 999, 999, 6, 23, 71, 187, 149, 73, 101, 178, 3, 0.717244
245, 3, bw, filler, NA, 999, 999, 6, 23, 71, 187, 149, 73, 101, 178, 2, 1.07962
245, 3, bw, catch, NA, 999, 999, 6, 24, 94, 101, 119, 136, 160, 155, 3, 0.641873
245, 3, bw, catch, NA, 999, 999, 6, 24, 94, 101, 119, 136, 160, 155, 1, 0.614994
245, 3, bw, filler, NA, 999, 999, 6, 25, 139, 113, 161, 164, 173, 123, 2, 1.42806
245, 3, bw, filler, NA, 999, 999, 6, 25, 139, 113, 161, 164, 173, 123, 1, 0.57763
245, 3, bw, filler, NA, 999, 999, 6, 26, 62, 185, 179, 70, 79, 148, 3, 2.02407
245, 3, bw, filler, NA, 999, 999, 6, 26, 62, 185, 179, 70, 79, 148, 2, 0.605572
245, 3, bw, attraction, a-b-db, 5, 1, 6, 27, 135, 60, 58, 132, 60, 135, 3, 3.35523
245, 3, bw, attraction, a-b-db, 5, 1, 6, 27, 135, 60, 58, 132, 60, 135, 2, 0.531404
245, 3, bw, attraction, a-b-da, 5, 3, 6, 28, 120, 195, 190, 117, 195, 120, 2, 2.01996
245, 3, bw, attraction, a-b-da, 5, 3, 6, 28, 120, 195, 190, 117, 195, 120, 1, 0.561864
245, 3, bw, attraction, a-b-da, 2, 3, 6, 29, 195, 120, 120, 195, 193, 119, 3, 0.920937
245, 3, bw, attraction, a-b-da, 2, 3, 6, 29, 195, 120, 120, 195, 193, 119, 2, 0.70663
245, 3, bw, attraction, a-b-db, 9, 3, 6, 30, 120, 195, 114, 186, 195, 120, 3, 1.8044
245, 3, bw, attraction, a-b-db, 9, 3, 6, 30, 120, 195, 114, 186, 195, 120, 2, 0.523119
245, 3, bw, attraction, a-b-da, 5, 1, 6, 31, 135, 60, 132, 58, 60, 135, 1, 4.24424
245, 3, bw, attraction, a-b-da, 5, 1, 6, 31, 135, 60, 132, 58, 60, 135, 2, 0.656284
245, 3, bw, attraction, a-b-da, 9, 3, 6, 32, 195, 120, 186, 114, 120, 195, 1, 0.899909
245, 3, bw, attraction, a-b-da, 9, 3, 6, 32, 195, 120, 186, 114, 120, 195, 2, 0.630952
245, 3, bw, catch, NA, 999, 999, 6, 33, 63, 132, 129, 126, 188, 127, 3, 0.747376
245, 3, bw, catch, NA, 999, 999, 6, 33, 63, 132, 129, 126, 188, 127, 1, 0.396357
245, 3, bw, attraction, a-b-db, 2, 3, 6, 34, 195, 120, 119, 193, 120, 195, 1, 1.91425
245, 3, bw, attraction, a-b-db, 2, 3, 6, 34, 195, 120, 119, 193, 120, 195, 2, 0.532219
245, 3, bw, attraction, a-b-db, 9, 1, 6, 35, 135, 60, 57, 129, 60, 135, 1, 1.92484
245, 3, bw, attraction, a-b-db, 9, 1, 6, 35, 135, 60, 57, 129, 60, 135, 2, 0.542274
245, 3, bw, filler, NA, 999, 999, 6, 36, 188, 149, 116, 188, 133, 124, 1, 1.13392
245, 3, bw, filler, NA, 999, 999, 6, 36, 188, 149, 116, 188, 133, 124, 2, 0.951647
245, 3, bw, attraction, a-b-da, 9, 2, 6, 37, 157, 86, 165, 90, 90, 165, 2, 1.3031
245, 3, bw, attraction, a-b-da, 9, 2, 6, 37, 157, 86, 165, 90, 90, 165, 1, 0.730044
245, 3, bw, attraction, a-b-db, 14, 3, 7, 1, 195, 120, 120, 195, 111, 181, 1, 2.50638
245, 3, bw, attraction, a-b-db, 14, 3, 7, 1, 195, 120, 120, 195, 111, 181, 3, 0.812302
245, 3, bw, attraction, a-b-da, 5, 3, 7, 2, 190, 117, 195, 120, 120, 195, 1, 4.04135
245, 3, bw, attraction, a-b-da, 5, 3, 7, 2, 190, 117, 195, 120, 120, 195, 2, 0.485275
245, 3, bw, attraction, a-b-db, 5, 3, 7, 3, 195, 120, 117, 190, 120, 195, 1, 1.20782
245, 3, bw, attraction, a-b-db, 5, 3, 7, 3, 195, 120, 117, 190, 120, 195, 2, 0.702117
245, 3, bw, filler, NA, 999, 999, 7, 4, 66, 128, 184, 177, 120, 71, 2, 0.599753
245, 3, bw, filler, NA, 999, 999, 7, 4, 66, 128, 184, 177, 120, 71, 1, 1.37495
245, 3, bw, attraction, a-b-da, 14, 2, 7, 5, 153, 83, 165, 90, 90, 165, 2, 1.23715
245, 3, bw, attraction, a-b-da, 14, 2, 7, 5, 153, 83, 165, 90, 90, 165, 1, 0.817962
245, 3, bw, attraction, a-b-db, 14, 2, 7, 6, 165, 90, 90, 165, 83, 153, 2, 1.98302
245, 3, bw, attraction, a-b-db, 14, 2, 7, 6, 165, 90, 90, 165, 83, 153, 3, 0.590525
245, 3, bw, filler, NA, 999, 999, 7, 7, 105, 150, 105, 93, 81, 155, 1, 1.16409
245, 3, bw, filler, NA, 999, 999, 7, 7, 105, 150, 105, 93, 81, 155, 2, 0.580591
245, 3, bw, catch, NA, 999, 999, 7, 8, 118, 77, 189, 126, 102, 153, 2, 0.658878
245, 3, bw, catch, NA, 999, 999, 7, 8, 118, 77, 189, 126, 102, 153, 1, 0.567284
245, 3, bw, attraction, a-b-da, 9, 2, 7, 9, 157, 86, 90, 165, 165, 90, 1, 2.84636
245, 3, bw, attraction, a-b-da, 9, 2, 7, 9, 157, 86, 90, 165, 165, 90, 2, 0.762775
245, 3, bw, attraction, a-b-da, 9, 1, 7, 10, 135, 60, 129, 57, 60, 135, 1, 3.12183
245, 3, bw, attraction, a-b-da, 9, 1, 7, 10, 135, 60, 129, 57, 60, 135, 2, 0.451531
245, 3, bw, filler, NA, 999, 999, 7, 11, 184, 67, 103, 111, 76, 144, 1, 3.01533
245, 3, bw, filler, NA, 999, 999, 7, 11, 184, 67, 103, 111, 76, 144, 2, 0.556995
245, 3, bw, attraction, a-b-db, 5, 1, 7, 12, 60, 135, 58, 132, 135, 60, 1, 3.21215
245, 3, bw, attraction, a-b-db, 5, 1, 7, 12, 60, 135, 58, 132, 135, 60, 2, 0.569816
245, 3, bw, attraction, a-b-db, 5, 2, 7, 13, 88, 161, 90, 165, 165, 90, 3, 6.52892
245, 3, bw, attraction, a-b-db, 5, 2, 7, 13, 88, 161, 90, 165, 165, 90, 1, 0.544711
245, 3, bw, attraction, a-b-da, 14, 1, 7, 14, 125, 56, 135, 60, 60, 135, 2, 4.68851
245, 3, bw, attraction, a-b-da, 14, 1, 7, 14, 125, 56, 135, 60, 60, 135, 1, 0.851118
245, 3, bw, attraction, a-b-da, 9, 3, 7, 15, 186, 114, 120, 195, 195, 120, 2, 1.09479
245, 3, bw, attraction, a-b-da, 9, 3, 7, 15, 186, 114, 120, 195, 195, 120, 1, 0.577776
245, 3, bw, attraction, a-b-db, 2, 3, 7, 16, 195, 120, 120, 195, 119, 193, 2, 1.30424
245, 3, bw, attraction, a-b-db, 2, 3, 7, 16, 195, 120, 120, 195, 119, 193, 3, 0.698977
245, 3, bw, attraction, a-b-db, 2, 1, 7, 17, 135, 60, 60, 135, 59, 134, 2, 1.40489
245, 3, bw, attraction, a-b-db, 2, 1, 7, 17, 135, 60, 60, 135, 59, 134, 3, 0.538853
245, 3, bw, attraction, a-b-da, 14, 3, 7, 18, 181, 111, 195, 120, 120, 195, 2, 0.755398
245, 3, bw, attraction, a-b-da, 14, 3, 7, 18, 181, 111, 195, 120, 120, 195, 1, 0.67592
245, 3, bw, attraction, a-b-db, 9, 3, 7, 19, 195, 120, 120, 195, 114, 186, 2, 1.15022
245, 3, bw, attraction, a-b-db, 9, 3, 7, 19, 195, 120, 120, 195, 114, 186, 3, 0.631112
245, 3, bw, attraction, a-b-da, 2, 3, 7, 20, 193, 119, 195, 120, 120, 195, 2, 1.8436
245, 3, bw, attraction, a-b-da, 2, 3, 7, 20, 193, 119, 195, 120, 120, 195, 3, 0.448224
245, 3, bw, attraction, a-b-db, 9, 1, 7, 21, 57, 129, 60, 135, 135, 60, 2, 3.86795
245, 3, bw, attraction, a-b-db, 9, 1, 7, 21, 57, 129, 60, 135, 135, 60, 1, 0.543394
245, 3, bw, filler, NA, 999, 999, 7, 22, 183, 165, 163, 124, 160, 107, 1, 1.2401
245, 3, bw, filler, NA, 999, 999, 7, 22, 183, 165, 163, 124, 160, 107, 3, 1.02024
245, 3, bw, attraction, a-b-da, 5, 1, 7, 23, 135, 60, 132, 58, 60, 135, 2, 1.35322
245, 3, bw, attraction, a-b-da, 5, 1, 7, 23, 135, 60, 132, 58, 60, 135, 3, 0.586032
245, 3, bw, attraction, a-b-db, 2, 2, 7, 24, 89, 163, 90, 165, 165, 90, 2, 1.08038
245, 3, bw, attraction, a-b-db, 2, 2, 7, 24, 89, 163, 90, 165, 165, 90, 1, 0.355985
245, 3, bw, attraction, a-b-db, 9, 2, 7, 25, 86, 157, 90, 165, 165, 90, 2, 1.6599
245, 3, bw, attraction, a-b-db, 9, 2, 7, 25, 86, 157, 90, 165, 165, 90, 1, 0.511982
245, 3, bw, filler, NA, 999, 999, 7, 26, 194, 100, 60, 143, 179, 68, 1, 0.969053
245, 3, bw, filler, NA, 999, 999, 7, 26, 194, 100, 60, 143, 179, 68, 2, 0.689455
245, 3, bw, attraction, a-b-da, 5, 2, 7, 27, 161, 88, 165, 90, 90, 165, 2, 3.42781
245, 3, bw, attraction, a-b-da, 5, 2, 7, 27, 161, 88, 165, 90, 90, 165, 1, 0.632844
245, 3, bw, attraction, a-b-da, 2, 1, 7, 28, 60, 135, 134, 59, 135, 60, 1, 2.2052
245, 3, bw, attraction, a-b-da, 2, 1, 7, 28, 60, 135, 134, 59, 135, 60, 2, 0.43509
245, 3, bw, filler, NA, 999, 999, 7, 29, 117, 190, 178, 133, 147, 119, 2, 2.39163
245, 3, bw, filler, NA, 999, 999, 7, 29, 117, 190, 178, 133, 147, 119, 3, 0.622158
245, 3, bw, filler, NA, 999, 999, 7, 30, 187, 126, 119, 148, 104, 117, 1, 1.09922
245, 3, bw, filler, NA, 999, 999, 7, 30, 187, 126, 119, 148, 104, 117, 3, 0.43815
245, 3, bw, filler, NA, 999, 999, 7, 31, 121, 188, 111, 154, 132, 68, 1, 0.746637
245, 3, bw, filler, NA, 999, 999, 7, 31, 121, 188, 111, 154, 132, 68, 3, 0.40374
245, 3, bw, filler, NA, 999, 999, 7, 32, 187, 78, 136, 87, 158, 178, 3, 0.721597
245, 3, bw, filler, NA, 999, 999, 7, 32, 187, 78, 136, 87, 158, 178, 2, 0.283261
245, 3, bw, catch, NA, 999, 999, 7, 33, 193, 122, 111, 144, 92, 103, 1, 1.34192
245, 3, bw, catch, NA, 999, 999, 7, 33, 193, 122, 111, 144, 92, 103, 3, 0.566752
245, 3, bw, attraction, a-b-db, 14, 1, 7, 34, 56, 125, 60, 135, 135, 60, 2, 1.60588
245, 3, bw, attraction, a-b-db, 14, 1, 7, 34, 56, 125, 60, 135, 135, 60, 1, 1.06801
245, 3, bw, attraction, a-b-da, 2, 2, 7, 35, 90, 165, 165, 90, 163, 89, 3, 2.03893
245, 3, bw, attraction, a-b-da, 2, 2, 7, 35, 90, 165, 165, 90, 163, 89, 1, 0.795524
245, 3, bw, filler, NA, 999, 999, 7, 36, 130, 179, 192, 69, 92, 87, 1, 0.713311
245, 3, bw, filler, NA, 999, 999, 7, 36, 130, 179, 192, 69, 92, 87, 3, 0.323814
245, 3, bw, catch, NA, 999, 999, 7, 37, 134, 181, 119, 136, 85, 110, 1, 0.932111
245, 3, bw, catch, NA, 999, 999, 7, 37, 134, 181, 119, 136, 85, 110, 3, 0.678002
245, 3, bw, attraction, a-b-da, 2, 3, 8, 1, 193, 119, 120, 195, 195, 120, 2, 5.37634
245, 3, bw, attraction, a-b-da, 2, 3, 8, 1, 193, 119, 120, 195, 195, 120, 1, 0.390668
245, 3, bw, filler, NA, 999, 999, 8, 2, 68, 151, 159, 144, 180, 134, 3, 2.06054
245, 3, bw, filler, NA, 999, 999, 8, 2, 68, 151, 159, 144, 180, 134, 1, 0.664372
245, 3, bw, attraction, a-b-db, 9, 3, 8, 3, 195, 120, 114, 186, 120, 195, 3, 4.13952
245, 3, bw, attraction, a-b-db, 9, 3, 8, 3, 195, 120, 114, 186, 120, 195, 2, 0.483508
245, 3, bw, filler, NA, 999, 999, 8, 4, 97, 171, 191, 93, 98, 186, 3, 3.32596
245, 3, bw, filler, NA, 999, 999, 8, 4, 97, 171, 191, 93, 98, 186, 1, 0.590864
245, 3, bw, attraction, a-b-da, 5, 3, 8, 5, 195, 120, 120, 195, 190, 117, 1, 1.11662
245, 3, bw, attraction, a-b-da, 5, 3, 8, 5, 195, 120, 120, 195, 190, 117, 3, 0.959037
245, 3, bw, attraction, a-b-da, 14, 2, 8, 6, 165, 90, 90, 165, 153, 83, 1, 0.549935
245, 3, bw, attraction, a-b-da, 14, 2, 8, 6, 165, 90, 90, 165, 153, 83, 3, 0.407187
245, 3, bw, filler, NA, 999, 999, 8, 7, 125, 97, 146, 126, 170, 189, 3, 0.948275
245, 3, bw, filler, NA, 999, 999, 8, 7, 125, 97, 146, 126, 170, 189, 1, 0.381148
245, 3, bw, attraction, a-b-db, 9, 1, 8, 8, 57, 129, 135, 60, 60, 135, 1, 2.93165
245, 3, bw, attraction, a-b-db, 9, 1, 8, 8, 57, 129, 135, 60, 60, 135, 3, 0.508853
245, 3, bw, attraction, a-b-da, 14, 3, 8, 9, 120, 195, 181, 111, 195, 120, 1, 1.52585
245, 3, bw, attraction, a-b-da, 14, 3, 8, 9, 120, 195, 181, 111, 195, 120, 2, 0.319336
245, 3, bw, attraction, a-b-db, 2, 2, 8, 10, 89, 163, 90, 165, 165, 90, 2, 4.27252
245, 3, bw, attraction, a-b-db, 2, 2, 8, 10, 89, 163, 90, 165, 165, 90, 1, 0.363272
245, 3, bw, filler, NA, 999, 999, 8, 11, 116, 74, 180, 145, 104, 192, 2, 0.666425
245, 3, bw, filler, NA, 999, 999, 8, 11, 116, 74, 180, 145, 104, 192, 1, 0.62273
245, 3, bw, catch, NA, 999, 999, 8, 12, 135, 180, 120, 135, 114, 81, 1, 0.875717
245, 3, bw, catch, NA, 999, 999, 8, 12, 135, 180, 120, 135, 114, 81, 3, 0.487591
245, 3, bw, attraction, a-b-da, 9, 2, 8, 13, 165, 90, 157, 86, 90, 165, 1, 2.22608
245, 3, bw, attraction, a-b-da, 9, 2, 8, 13, 165, 90, 157, 86, 90, 165, 2, 0.415324
245, 3, bw, attraction, a-b-da, 2, 2, 8, 14, 165, 90, 90, 165, 163, 89, 1, 4.74849
245, 3, bw, attraction, a-b-da, 2, 2, 8, 14, 165, 90, 90, 165, 163, 89, 2, 0.460245
245, 3, bw, catch, NA, 999, 999, 8, 15, 160, 155, 120, 75, 157, 98, 1, 1.22353
245, 3, bw, catch, NA, 999, 999, 8, 15, 160, 155, 120, 75, 157, 98, 2, 0.404899
245, 3, bw, attraction, a-b-da, 2, 1, 8, 16, 134, 59, 60, 135, 135, 60, 2, 3.85087
245, 3, bw, attraction, a-b-da, 2, 1, 8, 16, 134, 59, 60, 135, 135, 60, 3, 0.638852
245, 3, bw, attraction, a-b-db, 9, 2, 8, 17, 165, 90, 90, 165, 86, 157, 2, 1.74727
245, 3, bw, attraction, a-b-db, 9, 2, 8, 17, 165, 90, 90, 165, 86, 157, 3, 0.547974
245, 3, bw, filler, NA, 999, 999, 8, 18, 126, 173, 138, 174, 193, 126, 3, 2.57975
245, 3, bw, filler, NA, 999, 999, 8, 18, 126, 173, 138, 174, 193, 126, 1, 0.554886
245, 3, bw, attraction, a-b-da, 14, 1, 8, 19, 125, 56, 60, 135, 135, 60, 2, 4.21876
245, 3, bw, attraction, a-b-da, 14, 1, 8, 19, 125, 56, 60, 135, 135, 60, 1, 0.536177
245, 3, bw, catch, NA, 999, 999, 8, 20, 95, 100, 132, 183, 113, 142, 2, 0.616565
245, 3, bw, catch, NA, 999, 999, 8, 20, 95, 100, 132, 183, 113, 142, 1, 0.567062
245, 3, bw, attraction, a-b-db, 5, 3, 8, 21, 120, 195, 195, 120, 117, 190, 2, 1.41405
245, 3, bw, attraction, a-b-db, 5, 3, 8, 21, 120, 195, 195, 120, 117, 190, 3, 0.412204
245, 3, bw, filler, NA, 999, 999, 8, 22, 122, 133, 193, 56, 115, 116, 1, 0.889328
245, 3, bw, filler, NA, 999, 999, 8, 22, 122, 133, 193, 56, 115, 116, 3, 0.90844
245, 3, bw, filler, NA, 999, 999, 8, 23, 59, 82, 69, 166, 63, 121, 2, 0.853413
245, 3, bw, filler, NA, 999, 999, 8, 23, 59, 82, 69, 166, 63, 121, 1, 0.578509
245, 3, bw, attraction, a-b-db, 5, 2, 8, 24, 90, 165, 88, 161, 165, 90, 3, 1.08889
245, 3, bw, attraction, a-b-db, 5, 2, 8, 24, 90, 165, 88, 161, 165, 90, 2, 0.371871
245, 3, bw, filler, NA, 999, 999, 8, 25, 77, 187, 165, 89, 65, 142, 2, 0.722979
245, 3, bw, filler, NA, 999, 999, 8, 25, 77, 187, 165, 89, 65, 142, 3, 0.300742
245, 3, bw, filler, NA, 999, 999, 8, 26, 139, 70, 61, 129, 168, 89, 3, 1.08659
245, 3, bw, filler, NA, 999, 999, 8, 26, 139, 70, 61, 129, 168, 89, 2, 0.354192
245, 3, bw, attraction, a-b-db, 14, 2, 8, 27, 165, 90, 90, 165, 83, 153, 2, 1.24206
245, 3, bw, attraction, a-b-db, 14, 2, 8, 27, 165, 90, 90, 165, 83, 153, 3, 0.575007
245, 3, bw, attraction, a-b-db, 14, 1, 8, 28, 56, 125, 60, 135, 135, 60, 2, 1.66939
245, 3, bw, attraction, a-b-db, 14, 1, 8, 28, 56, 125, 60, 135, 135, 60, 1, 0.393658
245, 3, bw, attraction, a-b-db, 2, 3, 8, 29, 119, 193, 120, 195, 195, 120, 1, 1.7193
245, 3, bw, attraction, a-b-db, 2, 3, 8, 29, 119, 193, 120, 195, 195, 120, 2, 0.353484
245, 3, bw, filler, NA, 999, 999, 8, 30, 172, 160, 76, 123, 104, 111, 1, 0.6252
245, 3, bw, filler, NA, 999, 999, 8, 30, 172, 160, 76, 123, 104, 111, 2, 0.511027
245, 3, bw, attraction, a-b-db, 14, 3, 8, 31, 120, 195, 195, 120, 111, 181, 2, 3.98419
245, 3, bw, attraction, a-b-db, 14, 3, 8, 31, 120, 195, 195, 120, 111, 181, 3, 0.710886
245, 3, bw, attraction, a-b-da, 9, 1, 8, 32, 129, 57, 60, 135, 135, 60, 3, 1.17593
245, 3, bw, attraction, a-b-da, 9, 1, 8, 32, 129, 57, 60, 135, 135, 60, 2, 0.439597
245, 3, bw, attraction, a-b-db, 5, 1, 8, 33, 58, 132, 60, 135, 135, 60, 2, 2.01206
245, 3, bw, attraction, a-b-db, 5, 1, 8, 33, 58, 132, 60, 135, 135, 60, 1, 0.426077
245, 3, bw, attraction, a-b-db, 2, 1, 8, 34, 60, 135, 59, 134, 135, 60, 2, 1.40657
245, 3, bw, attraction, a-b-db, 2, 1, 8, 34, 60, 135, 59, 134, 135, 60, 1, 0.372699
245, 3, bw, attraction, a-b-da, 9, 3, 8, 35, 120, 195, 186, 114, 195, 120, 2, 2.0838
245, 3, bw, attraction, a-b-da, 9, 3, 8, 35, 120, 195, 186, 114, 195, 120, 3, 1.99123
245, 3, bw, attraction, a-b-da, 5, 1, 8, 36, 60, 135, 132, 58, 135, 60, 3, 2.36454
245, 3, bw, attraction, a-b-da, 5, 1, 8, 36, 60, 135, 132, 58, 135, 60, 2, 0.316395
245, 3, bw, attraction, a-b-da, 5, 2, 8, 37, 90, 165, 161, 88, 165, 90, 3, 1.56559
245, 3, bw, attraction, a-b-da, 5, 2, 8, 37, 90, 165, 161, 88, 165, 90, 2, 0.34987
