sub_n, computer_n, bw_cond, effect, set, distance, diag, block_n, trial_n, h1, w1, h2, w2, h3, w3, choice, rt 
276, 3, wb, practice, NA, 999, 999, 0, 1, 154, 59, 178, 71, 160, 139, 1, 3.20987
276, 3, wb, practice, NA, 999, 999, 0, 1, 154, 59, 178, 71, 160, 139, 3, 1.96313
276, 3, wb, practice, NA, 999, 999, 0, 2, 113, 171, 156, 67, 126, 152, 2, 2.26148
276, 3, wb, practice, NA, 999, 999, 0, 2, 113, 171, 156, 67, 126, 152, 1, 4.11039
276, 3, wb, practice, NA, 999, 999, 0, 3, 133, 194, 185, 173, 176, 117, 3, 1.96531
276, 3, wb, practice, NA, 999, 999, 0, 3, 133, 194, 185, 173, 176, 117, 2, 1.41448
276, 3, wb, filler, NA, 999, 999, 1, 1, 104, 119, 81, 88, 77, 79, 3, 1.61358
276, 3, wb, filler, NA, 999, 999, 1, 1, 104, 119, 81, 88, 77, 79, 1, 1.0999
276, 3, wb, filler, NA, 999, 999, 1, 2, 122, 171, 65, 118, 101, 63, 3, 1.5814
276, 3, wb, filler, NA, 999, 999, 1, 2, 122, 171, 65, 118, 101, 63, 1, 0.948956
276, 3, wb, attraction, a-b-da, 14, 1, 1, 3, 60, 135, 135, 60, 125, 56, 3, 3.66064
276, 3, wb, attraction, a-b-da, 14, 1, 1, 3, 60, 135, 135, 60, 125, 56, 2, 1.08816
276, 3, wb, catch, NA, 999, 999, 1, 4, 131, 184, 65, 130, 142, 113, 2, 1.09834
276, 3, wb, catch, NA, 999, 999, 1, 4, 131, 184, 65, 130, 142, 113, 1, 0.781221
276, 3, wb, attraction, a-b-da, 5, 1, 1, 5, 135, 60, 60, 135, 132, 58, 3, 1.69168
276, 3, wb, attraction, a-b-da, 5, 1, 1, 5, 135, 60, 60, 135, 132, 58, 1, 0.702351
276, 3, wb, attraction, a-b-da, 9, 3, 1, 6, 120, 195, 186, 114, 195, 120, 2, 3.28031
276, 3, wb, attraction, a-b-da, 9, 3, 1, 6, 120, 195, 186, 114, 195, 120, 1, 0.699083
276, 3, wb, catch, NA, 999, 999, 1, 7, 129, 66, 135, 180, 103, 152, 1, 1.13283
276, 3, wb, catch, NA, 999, 999, 1, 7, 129, 66, 135, 180, 103, 152, 2, 0.702422
276, 3, wb, attraction, a-b-db, 2, 3, 1, 8, 120, 195, 195, 120, 119, 193, 2, 3.13624
276, 3, wb, attraction, a-b-db, 2, 3, 1, 8, 120, 195, 195, 120, 119, 193, 1, 0.705157
276, 3, wb, attraction, a-b-db, 9, 3, 1, 9, 120, 195, 195, 120, 114, 186, 2, 1.30691
276, 3, wb, attraction, a-b-db, 9, 3, 1, 9, 120, 195, 195, 120, 114, 186, 1, 0.405009
276, 3, wb, attraction, a-b-da, 9, 2, 1, 10, 157, 86, 165, 90, 90, 165, 1, 1.00279
276, 3, wb, attraction, a-b-da, 9, 2, 1, 10, 157, 86, 165, 90, 90, 165, 3, 0.657854
276, 3, wb, filler, NA, 999, 999, 1, 11, 74, 106, 166, 79, 100, 191, 1, 0.812859
276, 3, wb, filler, NA, 999, 999, 1, 11, 74, 106, 166, 79, 100, 191, 3, 0.563418
276, 3, wb, attraction, a-b-da, 2, 1, 1, 12, 135, 60, 134, 59, 60, 135, 1, 0.938414
276, 3, wb, attraction, a-b-da, 2, 1, 1, 12, 135, 60, 134, 59, 60, 135, 3, 0.651444
276, 3, wb, attraction, a-b-db, 14, 2, 1, 13, 83, 153, 165, 90, 90, 165, 1, 2.85521
276, 3, wb, attraction, a-b-db, 14, 2, 1, 13, 83, 153, 165, 90, 90, 165, 3, 1.25886
276, 3, wb, filler, NA, 999, 999, 1, 14, 62, 153, 167, 58, 78, 193, 2, 1.70178
276, 3, wb, filler, NA, 999, 999, 1, 14, 62, 153, 167, 58, 78, 193, 3, 2.02466
276, 3, wb, attraction, a-b-db, 9, 2, 1, 15, 86, 157, 90, 165, 165, 90, 1, 1.51665
276, 3, wb, attraction, a-b-db, 9, 2, 1, 15, 86, 157, 90, 165, 165, 90, 3, 0.598849
276, 3, wb, attraction, a-b-db, 14, 1, 1, 16, 135, 60, 60, 135, 56, 125, 3, 1.82851
276, 3, wb, attraction, a-b-db, 14, 1, 1, 16, 135, 60, 60, 135, 56, 125, 2, 1.16982
276, 3, wb, attraction, a-b-db, 2, 1, 1, 17, 60, 135, 59, 134, 135, 60, 2, 2.04874
276, 3, wb, attraction, a-b-db, 2, 1, 1, 17, 60, 135, 59, 134, 135, 60, 3, 0.541529
276, 3, wb, attraction, a-b-da, 2, 2, 1, 18, 163, 89, 90, 165, 165, 90, 1, 1.82925
276, 3, wb, attraction, a-b-da, 2, 2, 1, 18, 163, 89, 90, 165, 165, 90, 2, 1.24275
276, 3, wb, attraction, a-b-da, 9, 1, 1, 19, 129, 57, 60, 135, 135, 60, 1, 1.95814
276, 3, wb, attraction, a-b-da, 9, 1, 1, 19, 129, 57, 60, 135, 135, 60, 2, 0.862302
276, 3, wb, filler, NA, 999, 999, 1, 20, 138, 121, 166, 108, 185, 180, 1, 0.985211
276, 3, wb, filler, NA, 999, 999, 1, 20, 138, 121, 166, 108, 185, 180, 3, 0.816884
276, 3, wb, attraction, a-b-db, 2, 2, 1, 21, 89, 163, 165, 90, 90, 165, 1, 1.30198
276, 3, wb, attraction, a-b-db, 2, 2, 1, 21, 89, 163, 165, 90, 90, 165, 2, 0.3768
276, 3, wb, attraction, a-b-da, 14, 2, 1, 22, 165, 90, 153, 83, 90, 165, 1, 0.847218
276, 3, wb, attraction, a-b-da, 14, 2, 1, 22, 165, 90, 153, 83, 90, 165, 3, 0.444396
276, 3, wb, attraction, a-b-da, 5, 2, 1, 23, 161, 88, 90, 165, 165, 90, 1, 1.63222
276, 3, wb, attraction, a-b-da, 5, 2, 1, 23, 161, 88, 90, 165, 165, 90, 2, 0.509685
276, 3, wb, attraction, a-b-da, 2, 3, 1, 24, 193, 119, 195, 120, 120, 195, 1, 1.62274
276, 3, wb, attraction, a-b-da, 2, 3, 1, 24, 193, 119, 195, 120, 120, 195, 3, 0.556272
276, 3, wb, attraction, a-b-db, 5, 1, 1, 25, 58, 132, 60, 135, 135, 60, 1, 0.708072
276, 3, wb, attraction, a-b-db, 5, 1, 1, 25, 58, 132, 60, 135, 135, 60, 2, 0.718414
276, 3, wb, filler, NA, 999, 999, 1, 26, 148, 117, 104, 101, 119, 123, 2, 1.16743
276, 3, wb, filler, NA, 999, 999, 1, 26, 148, 117, 104, 101, 119, 123, 1, 0.415663
276, 3, wb, filler, NA, 999, 999, 1, 27, 134, 179, 61, 56, 112, 87, 2, 1.34876
276, 3, wb, filler, NA, 999, 999, 1, 27, 134, 179, 61, 56, 112, 87, 1, 0.421676
276, 3, wb, attraction, a-b-db, 14, 3, 1, 28, 195, 120, 120, 195, 111, 181, 3, 2.1469
276, 3, wb, attraction, a-b-db, 14, 3, 1, 28, 195, 120, 120, 195, 111, 181, 2, 0.475464
276, 3, wb, filler, NA, 999, 999, 1, 29, 72, 187, 137, 57, 73, 87, 3, 1.82998
276, 3, wb, filler, NA, 999, 999, 1, 29, 72, 187, 137, 57, 73, 87, 1, 0.531321
276, 3, wb, attraction, a-b-da, 5, 3, 1, 30, 190, 117, 195, 120, 120, 195, 1, 2.66789
276, 3, wb, attraction, a-b-da, 5, 3, 1, 30, 190, 117, 195, 120, 120, 195, 3, 0.343599
276, 3, wb, attraction, a-b-db, 5, 3, 1, 31, 117, 190, 120, 195, 195, 120, 1, 2.30348
276, 3, wb, attraction, a-b-db, 5, 3, 1, 31, 117, 190, 120, 195, 195, 120, 2, 0.338017
276, 3, wb, attraction, a-b-da, 14, 3, 1, 32, 120, 195, 195, 120, 181, 111, 3, 1.40255
276, 3, wb, attraction, a-b-da, 14, 3, 1, 32, 120, 195, 195, 120, 181, 111, 1, 0.377475
276, 3, wb, filler, NA, 999, 999, 1, 33, 76, 135, 84, 104, 89, 151, 2, 1.5439
276, 3, wb, filler, NA, 999, 999, 1, 33, 76, 135, 84, 104, 89, 151, 3, 0.376828
276, 3, wb, filler, NA, 999, 999, 1, 34, 129, 83, 116, 57, 147, 68, 2, 1.5592
276, 3, wb, filler, NA, 999, 999, 1, 34, 129, 83, 116, 57, 147, 68, 1, 0.911379
276, 3, wb, attraction, a-b-db, 9, 1, 1, 35, 60, 135, 135, 60, 57, 129, 3, 2.00839
276, 3, wb, attraction, a-b-db, 9, 1, 1, 35, 60, 135, 135, 60, 57, 129, 1, 0.766356
276, 3, wb, attraction, a-b-db, 5, 2, 1, 36, 88, 161, 90, 165, 165, 90, 3, 1.80545
276, 3, wb, attraction, a-b-db, 5, 2, 1, 36, 88, 161, 90, 165, 165, 90, 2, 0.491412
276, 3, wb, catch, NA, 999, 999, 1, 37, 144, 171, 68, 127, 139, 116, 2, 1.02128
276, 3, wb, catch, NA, 999, 999, 1, 37, 144, 171, 68, 127, 139, 116, 1, 0.403502
276, 3, wb, attraction, a-b-db, 9, 3, 2, 1, 114, 186, 120, 195, 195, 120, 1, 1.07343
276, 3, wb, attraction, a-b-db, 9, 3, 2, 1, 114, 186, 120, 195, 195, 120, 2, 0.421033
276, 3, wb, attraction, a-b-db, 5, 2, 2, 2, 88, 161, 90, 165, 165, 90, 1, 1.59413
276, 3, wb, attraction, a-b-db, 5, 2, 2, 2, 88, 161, 90, 165, 165, 90, 2, 0.456968
276, 3, wb, catch, NA, 999, 999, 2, 3, 143, 172, 68, 127, 91, 164, 2, 1.31617
276, 3, wb, catch, NA, 999, 999, 2, 3, 143, 172, 68, 127, 91, 164, 1, 0.382354
276, 3, wb, filler, NA, 999, 999, 2, 4, 116, 87, 194, 82, 124, 178, 1, 1.18895
276, 3, wb, filler, NA, 999, 999, 2, 4, 116, 87, 194, 82, 124, 178, 3, 0.476055
276, 3, wb, filler, NA, 999, 999, 2, 5, 136, 83, 185, 154, 147, 165, 1, 1.36632
276, 3, wb, filler, NA, 999, 999, 2, 5, 136, 83, 185, 154, 147, 165, 2, 0.398561
276, 3, wb, attraction, a-b-da, 9, 3, 2, 6, 120, 195, 195, 120, 186, 114, 2, 2.1003
276, 3, wb, attraction, a-b-da, 9, 3, 2, 6, 120, 195, 195, 120, 186, 114, 1, 0.486946
276, 3, wb, attraction, a-b-da, 14, 3, 2, 7, 120, 195, 181, 111, 195, 120, 2, 0.89739
276, 3, wb, attraction, a-b-da, 14, 3, 2, 7, 120, 195, 181, 111, 195, 120, 1, 0.460354
276, 3, wb, filler, NA, 999, 999, 2, 8, 180, 111, 142, 162, 110, 155, 3, 1.6876
276, 3, wb, filler, NA, 999, 999, 2, 8, 180, 111, 142, 162, 110, 155, 2, 0.402883
276, 3, wb, attraction, a-b-db, 2, 2, 2, 9, 165, 90, 90, 165, 89, 163, 1, 1.22474
276, 3, wb, attraction, a-b-db, 2, 2, 2, 9, 165, 90, 90, 165, 89, 163, 3, 1.39837
276, 3, wb, attraction, a-b-db, 9, 2, 2, 10, 165, 90, 86, 157, 90, 165, 2, 1.69189
276, 3, wb, attraction, a-b-db, 9, 2, 2, 10, 165, 90, 86, 157, 90, 165, 1, 0.438616
276, 3, wb, attraction, a-b-db, 2, 1, 2, 11, 60, 135, 135, 60, 59, 134, 1, 1.36313
276, 3, wb, attraction, a-b-db, 2, 1, 2, 11, 60, 135, 135, 60, 59, 134, 3, 1.42752
276, 3, wb, attraction, a-b-da, 5, 1, 2, 12, 60, 135, 132, 58, 135, 60, 2, 1.15143
276, 3, wb, attraction, a-b-da, 5, 1, 2, 12, 60, 135, 132, 58, 135, 60, 1, 0.688499
276, 3, wb, catch, NA, 999, 999, 2, 13, 184, 131, 126, 69, 90, 165, 2, 1.20289
276, 3, wb, catch, NA, 999, 999, 2, 13, 184, 131, 126, 69, 90, 165, 1, 0.38589
276, 3, wb, filler, NA, 999, 999, 2, 14, 112, 181, 98, 92, 93, 132, 2, 0.704306
276, 3, wb, filler, NA, 999, 999, 2, 14, 112, 181, 98, 92, 93, 132, 1, 0.37928
276, 3, wb, attraction, a-b-da, 5, 3, 2, 15, 120, 195, 195, 120, 190, 117, 3, 1.09796
276, 3, wb, attraction, a-b-da, 5, 3, 2, 15, 120, 195, 195, 120, 190, 117, 2, 0.516913
276, 3, wb, filler, NA, 999, 999, 2, 16, 64, 127, 191, 59, 83, 134, 1, 0.950025
276, 3, wb, filler, NA, 999, 999, 2, 16, 64, 127, 191, 59, 83, 134, 2, 1.91115
276, 3, wb, attraction, a-b-db, 14, 3, 2, 17, 195, 120, 120, 195, 111, 181, 3, 1.71977
276, 3, wb, attraction, a-b-db, 14, 3, 2, 17, 195, 120, 120, 195, 111, 181, 2, 0.969745
276, 3, wb, attraction, a-b-da, 9, 2, 2, 18, 165, 90, 157, 86, 90, 165, 1, 1.45685
276, 3, wb, attraction, a-b-da, 9, 2, 2, 18, 165, 90, 157, 86, 90, 165, 3, 0.868968
276, 3, wb, attraction, a-b-da, 2, 2, 2, 19, 90, 165, 165, 90, 163, 89, 1, 2.59997
276, 3, wb, attraction, a-b-da, 2, 2, 2, 19, 90, 165, 165, 90, 163, 89, 2, 0.486381
276, 3, wb, filler, NA, 999, 999, 2, 20, 66, 167, 58, 60, 88, 131, 2, 1.06491
276, 3, wb, filler, NA, 999, 999, 2, 20, 66, 167, 58, 60, 88, 131, 3, 0.541227
276, 3, wb, attraction, a-b-db, 5, 1, 2, 21, 135, 60, 58, 132, 60, 135, 1, 0.916936
276, 3, wb, attraction, a-b-db, 5, 1, 2, 21, 135, 60, 58, 132, 60, 135, 3, 0.591451
276, 3, wb, attraction, a-b-db, 14, 1, 2, 22, 60, 135, 56, 125, 135, 60, 2, 0.917049
276, 3, wb, attraction, a-b-db, 14, 1, 2, 22, 60, 135, 56, 125, 135, 60, 3, 0.479544
276, 3, wb, attraction, a-b-db, 9, 1, 2, 23, 60, 135, 135, 60, 57, 129, 2, 1.0338
276, 3, wb, attraction, a-b-db, 9, 1, 2, 23, 60, 135, 135, 60, 57, 129, 1, 0.567511
276, 3, wb, attraction, a-b-da, 14, 1, 2, 24, 60, 135, 135, 60, 125, 56, 2, 0.838581
276, 3, wb, attraction, a-b-da, 14, 1, 2, 24, 60, 135, 135, 60, 125, 56, 1, 1.58763
276, 3, wb, attraction, a-b-da, 2, 1, 2, 25, 60, 135, 134, 59, 135, 60, 2, 0.905757
276, 3, wb, attraction, a-b-da, 2, 1, 2, 25, 60, 135, 134, 59, 135, 60, 1, 0.468026
276, 3, wb, catch, NA, 999, 999, 2, 26, 125, 130, 115, 80, 153, 162, 2, 0.671355
276, 3, wb, catch, NA, 999, 999, 2, 26, 125, 130, 115, 80, 153, 162, 3, 0.643084
276, 3, wb, attraction, a-b-db, 14, 2, 2, 27, 83, 153, 90, 165, 165, 90, 1, 0.790763
276, 3, wb, attraction, a-b-db, 14, 2, 2, 27, 83, 153, 90, 165, 165, 90, 2, 1.02979
276, 3, wb, filler, NA, 999, 999, 2, 28, 147, 136, 60, 157, 71, 75, 3, 0.986119
276, 3, wb, filler, NA, 999, 999, 2, 28, 147, 136, 60, 157, 71, 75, 1, 0.769864
276, 3, wb, attraction, a-b-da, 9, 1, 2, 29, 60, 135, 135, 60, 129, 57, 1, 0.728816
276, 3, wb, attraction, a-b-da, 9, 1, 2, 29, 60, 135, 135, 60, 129, 57, 3, 0.546619
276, 3, wb, attraction, a-b-da, 14, 2, 2, 30, 165, 90, 90, 165, 153, 83, 3, 1.13042
276, 3, wb, attraction, a-b-da, 14, 2, 2, 30, 165, 90, 90, 165, 153, 83, 1, 0.683955
276, 3, wb, filler, NA, 999, 999, 2, 31, 112, 96, 148, 70, 163, 154, 1, 1.6063
276, 3, wb, filler, NA, 999, 999, 2, 31, 112, 96, 148, 70, 163, 154, 3, 0.428389
276, 3, wb, filler, NA, 999, 999, 2, 32, 106, 156, 182, 84, 195, 65, 3, 3.28904
276, 3, wb, filler, NA, 999, 999, 2, 32, 106, 156, 182, 84, 195, 65, 1, 0.403273
276, 3, wb, filler, NA, 999, 999, 2, 33, 194, 147, 156, 157, 126, 95, 3, 0.833075
276, 3, wb, filler, NA, 999, 999, 2, 33, 194, 147, 156, 157, 126, 95, 1, 0.942789
276, 3, wb, attraction, a-b-db, 5, 3, 2, 34, 117, 190, 120, 195, 195, 120, 1, 1.03837
276, 3, wb, attraction, a-b-db, 5, 3, 2, 34, 117, 190, 120, 195, 195, 120, 2, 0.971327
276, 3, wb, attraction, a-b-db, 2, 3, 2, 35, 195, 120, 120, 195, 119, 193, 1, 1.81832
276, 3, wb, attraction, a-b-db, 2, 3, 2, 35, 195, 120, 120, 195, 119, 193, 2, 0.632506
276, 3, wb, attraction, a-b-da, 5, 2, 2, 36, 90, 165, 161, 88, 165, 90, 2, 1.15682
276, 3, wb, attraction, a-b-da, 5, 2, 2, 36, 90, 165, 161, 88, 165, 90, 3, 0.381125
276, 3, wb, attraction, a-b-da, 2, 3, 2, 37, 120, 195, 195, 120, 193, 119, 2, 1.45163
276, 3, wb, attraction, a-b-da, 2, 3, 2, 37, 120, 195, 195, 120, 193, 119, 3, 0.472409
276, 3, wb, filler, NA, 999, 999, 3, 1, 128, 189, 90, 84, 82, 70, 3, 0.86752
276, 3, wb, filler, NA, 999, 999, 3, 1, 128, 189, 90, 84, 82, 70, 1, 0.367849
276, 3, wb, attraction, a-b-db, 14, 1, 3, 2, 135, 60, 56, 125, 60, 135, 2, 1.72702
276, 3, wb, attraction, a-b-db, 14, 1, 3, 2, 135, 60, 56, 125, 60, 135, 3, 0.584506
276, 3, wb, filler, NA, 999, 999, 3, 3, 174, 122, 65, 115, 154, 101, 2, 0.902957
276, 3, wb, filler, NA, 999, 999, 3, 3, 174, 122, 65, 115, 154, 101, 1, 0.593976
276, 3, wb, attraction, a-b-db, 2, 2, 3, 4, 90, 165, 89, 163, 165, 90, 2, 2.06372
276, 3, wb, attraction, a-b-db, 2, 2, 3, 4, 90, 165, 89, 163, 165, 90, 1, 0.80377
276, 3, wb, filler, NA, 999, 999, 3, 5, 115, 136, 108, 127, 144, 161, 1, 1.15338
276, 3, wb, filler, NA, 999, 999, 3, 5, 115, 136, 108, 127, 144, 161, 3, 0.554302
276, 3, wb, attraction, a-b-da, 9, 1, 3, 6, 135, 60, 60, 135, 129, 57, 3, 1.53817
276, 3, wb, attraction, a-b-da, 9, 1, 3, 6, 135, 60, 60, 135, 129, 57, 2, 0.515695
276, 3, wb, attraction, a-b-da, 9, 2, 3, 7, 157, 86, 90, 165, 165, 90, 1, 2.7968
276, 3, wb, attraction, a-b-da, 9, 2, 3, 7, 157, 86, 90, 165, 165, 90, 2, 0.891133
276, 3, wb, filler, NA, 999, 999, 3, 8, 191, 135, 190, 191, 99, 57, 3, 0.94882
276, 3, wb, filler, NA, 999, 999, 3, 8, 191, 135, 190, 191, 99, 57, 2, 0.49389
276, 3, wb, attraction, a-b-da, 14, 3, 3, 9, 120, 195, 195, 120, 181, 111, 2, 1.9517
276, 3, wb, attraction, a-b-da, 14, 3, 3, 9, 120, 195, 195, 120, 181, 111, 1, 0.432478
276, 3, wb, filler, NA, 999, 999, 3, 10, 106, 155, 76, 121, 87, 177, 2, 1.10875
276, 3, wb, filler, NA, 999, 999, 3, 10, 106, 155, 76, 121, 87, 177, 1, 0.591606
276, 3, wb, filler, NA, 999, 999, 3, 11, 172, 161, 68, 126, 111, 68, 3, 1.94882
276, 3, wb, filler, NA, 999, 999, 3, 11, 172, 161, 68, 126, 111, 68, 1, 0.421504
276, 3, wb, attraction, a-b-da, 2, 2, 3, 12, 165, 90, 163, 89, 90, 165, 3, 1.2267
276, 3, wb, attraction, a-b-da, 2, 2, 3, 12, 165, 90, 163, 89, 90, 165, 1, 0.440388
276, 3, wb, attraction, a-b-db, 2, 3, 3, 13, 120, 195, 195, 120, 119, 193, 3, 0.948136
276, 3, wb, attraction, a-b-db, 2, 3, 3, 13, 120, 195, 195, 120, 119, 193, 2, 0.517164
276, 3, wb, attraction, a-b-db, 14, 2, 3, 14, 165, 90, 83, 153, 90, 165, 2, 1.19037
276, 3, wb, attraction, a-b-db, 14, 2, 3, 14, 165, 90, 83, 153, 90, 165, 3, 0.605096
276, 3, wb, attraction, a-b-da, 14, 1, 3, 15, 125, 56, 135, 60, 60, 135, 2, 1.01097
276, 3, wb, attraction, a-b-da, 14, 1, 3, 15, 125, 56, 135, 60, 60, 135, 1, 0.649294
276, 3, wb, attraction, a-b-db, 14, 3, 3, 16, 195, 120, 111, 181, 120, 195, 1, 0.797011
276, 3, wb, attraction, a-b-db, 14, 3, 3, 16, 195, 120, 111, 181, 120, 195, 3, 0.908044
276, 3, wb, catch, NA, 999, 999, 3, 17, 134, 121, 182, 133, 107, 88, 3, 0.885015
276, 3, wb, catch, NA, 999, 999, 3, 17, 134, 121, 182, 133, 107, 88, 2, 0.864808
276, 3, wb, attraction, a-b-da, 5, 2, 3, 18, 161, 88, 90, 165, 165, 90, 1, 1.01967
276, 3, wb, attraction, a-b-da, 5, 2, 3, 18, 161, 88, 90, 165, 165, 90, 2, 0.554085
276, 3, wb, attraction, a-b-da, 2, 3, 3, 19, 193, 119, 195, 120, 120, 195, 3, 1.08182
276, 3, wb, attraction, a-b-da, 2, 3, 3, 19, 193, 119, 195, 120, 120, 195, 2, 0.429535
276, 3, wb, catch, NA, 999, 999, 3, 20, 93, 102, 172, 143, 137, 118, 1, 0.993945
276, 3, wb, catch, NA, 999, 999, 3, 20, 93, 102, 172, 143, 137, 118, 2, 0.54505
276, 3, wb, catch, NA, 999, 999, 3, 21, 87, 108, 133, 182, 104, 151, 1, 1.00874
276, 3, wb, catch, NA, 999, 999, 3, 21, 87, 108, 133, 182, 104, 151, 2, 0.95104
276, 3, wb, attraction, a-b-da, 5, 3, 3, 22, 120, 195, 195, 120, 190, 117, 1, 1.28665
276, 3, wb, attraction, a-b-da, 5, 3, 3, 22, 120, 195, 195, 120, 190, 117, 3, 0.618334
276, 3, wb, filler, NA, 999, 999, 3, 23, 63, 74, 131, 152, 117, 115, 1, 0.839365
276, 3, wb, filler, NA, 999, 999, 3, 23, 63, 74, 131, 152, 117, 115, 2, 0.388397
276, 3, wb, attraction, a-b-db, 2, 1, 3, 24, 135, 60, 59, 134, 60, 135, 2, 1.10684
276, 3, wb, attraction, a-b-db, 2, 1, 3, 24, 135, 60, 59, 134, 60, 135, 1, 0.581055
276, 3, wb, filler, NA, 999, 999, 3, 25, 99, 68, 183, 107, 89, 116, 1, 0.931548
276, 3, wb, filler, NA, 999, 999, 3, 25, 99, 68, 183, 107, 89, 116, 2, 0.605361
276, 3, wb, filler, NA, 999, 999, 3, 26, 143, 154, 64, 168, 150, 61, 3, 1.24303
276, 3, wb, filler, NA, 999, 999, 3, 26, 143, 154, 64, 168, 150, 61, 1, 0.391939
276, 3, wb, attraction, a-b-db, 5, 2, 3, 27, 165, 90, 88, 161, 90, 165, 1, 1.15768
276, 3, wb, attraction, a-b-db, 5, 2, 3, 27, 165, 90, 88, 161, 90, 165, 2, 0.454005
276, 3, wb, attraction, a-b-db, 9, 1, 3, 28, 60, 135, 135, 60, 57, 129, 3, 0.881778
276, 3, wb, attraction, a-b-db, 9, 1, 3, 28, 60, 135, 135, 60, 57, 129, 1, 0.429489
276, 3, wb, attraction, a-b-da, 2, 1, 3, 29, 135, 60, 134, 59, 60, 135, 3, 0.625947
276, 3, wb, attraction, a-b-da, 2, 1, 3, 29, 135, 60, 134, 59, 60, 135, 1, 0.527746
276, 3, wb, attraction, a-b-db, 9, 3, 3, 30, 120, 195, 195, 120, 114, 186, 2, 1.00012
276, 3, wb, attraction, a-b-db, 9, 3, 3, 30, 120, 195, 195, 120, 114, 186, 3, 0.567247
276, 3, wb, attraction, a-b-db, 9, 2, 3, 31, 86, 157, 90, 165, 165, 90, 3, 0.950251
276, 3, wb, attraction, a-b-db, 9, 2, 3, 31, 86, 157, 90, 165, 165, 90, 2, 0.359267
276, 3, wb, attraction, a-b-da, 5, 1, 3, 32, 60, 135, 135, 60, 132, 58, 1, 0.73455
276, 3, wb, attraction, a-b-da, 5, 1, 3, 32, 60, 135, 135, 60, 132, 58, 3, 0.400139
276, 3, wb, attraction, a-b-da, 14, 2, 3, 33, 165, 90, 90, 165, 153, 83, 2, 0.758087
276, 3, wb, attraction, a-b-da, 14, 2, 3, 33, 165, 90, 90, 165, 153, 83, 1, 0.470325
276, 3, wb, filler, NA, 999, 999, 3, 34, 149, 65, 71, 159, 60, 88, 3, 0.633531
276, 3, wb, filler, NA, 999, 999, 3, 34, 149, 65, 71, 159, 60, 88, 2, 1.14358
276, 3, wb, attraction, a-b-db, 5, 3, 3, 35, 120, 195, 117, 190, 195, 120, 2, 0.942822
276, 3, wb, attraction, a-b-db, 5, 3, 3, 35, 120, 195, 117, 190, 195, 120, 3, 0.3999
276, 3, wb, attraction, a-b-da, 9, 3, 3, 36, 195, 120, 186, 114, 120, 195, 2, 0.597821
276, 3, wb, attraction, a-b-da, 9, 3, 3, 36, 195, 120, 186, 114, 120, 195, 1, 0.500871
276, 3, wb, attraction, a-b-db, 5, 1, 3, 37, 58, 132, 135, 60, 60, 135, 3, 0.502615
276, 3, wb, attraction, a-b-db, 5, 1, 3, 37, 58, 132, 135, 60, 60, 135, 2, 0.337808
276, 3, wb, attraction, a-b-da, 5, 3, 4, 1, 195, 120, 190, 117, 120, 195, 3, 0.45839
276, 3, wb, attraction, a-b-da, 5, 3, 4, 1, 195, 120, 190, 117, 120, 195, 2, 0.302752
276, 3, wb, filler, NA, 999, 999, 4, 2, 138, 74, 80, 120, 111, 109, 2, 1.92058
276, 3, wb, filler, NA, 999, 999, 4, 2, 138, 74, 80, 120, 111, 109, 3, 0.354696
276, 3, wb, filler, NA, 999, 999, 4, 3, 186, 171, 92, 160, 85, 66, 3, 0.74662
276, 3, wb, filler, NA, 999, 999, 4, 3, 186, 171, 92, 160, 85, 66, 1, 0.323585
276, 3, wb, filler, NA, 999, 999, 4, 4, 163, 164, 130, 112, 118, 137, 1, 0.876107
276, 3, wb, filler, NA, 999, 999, 4, 4, 163, 164, 130, 112, 118, 137, 3, 2.44786
276, 3, wb, attraction, a-b-da, 2, 2, 4, 5, 163, 89, 90, 165, 165, 90, 2, 1.47495
276, 3, wb, attraction, a-b-da, 2, 2, 4, 5, 163, 89, 90, 165, 165, 90, 1, 0.486631
276, 3, wb, attraction, a-b-da, 14, 3, 4, 6, 195, 120, 181, 111, 120, 195, 1, 0.961031
276, 3, wb, attraction, a-b-da, 14, 3, 4, 6, 195, 120, 181, 111, 120, 195, 2, 0.377301
276, 3, wb, catch, NA, 999, 999, 4, 7, 151, 164, 150, 105, 62, 133, 3, 1.56793
276, 3, wb, catch, NA, 999, 999, 4, 7, 151, 164, 150, 105, 62, 133, 1, 0.663924
276, 3, wb, filler, NA, 999, 999, 4, 8, 124, 88, 187, 73, 107, 74, 3, 1.09904
276, 3, wb, filler, NA, 999, 999, 4, 8, 124, 88, 187, 73, 107, 74, 2, 0.814103
276, 3, wb, attraction, a-b-db, 9, 1, 4, 9, 57, 129, 135, 60, 60, 135, 1, 1.07499
276, 3, wb, attraction, a-b-db, 9, 1, 4, 9, 57, 129, 135, 60, 60, 135, 2, 0.542601
276, 3, wb, attraction, a-b-db, 2, 3, 4, 10, 120, 195, 119, 193, 195, 120, 3, 0.750357
276, 3, wb, attraction, a-b-db, 2, 3, 4, 10, 120, 195, 119, 193, 195, 120, 2, 0.447448
276, 3, wb, filler, NA, 999, 999, 4, 11, 161, 153, 130, 139, 186, 101, 2, 1.57926
276, 3, wb, filler, NA, 999, 999, 4, 11, 161, 153, 130, 139, 186, 101, 1, 0.64277
276, 3, wb, attraction, a-b-db, 14, 2, 4, 12, 90, 165, 165, 90, 83, 153, 3, 0.782439
276, 3, wb, attraction, a-b-db, 14, 2, 4, 12, 90, 165, 165, 90, 83, 153, 2, 0.390187
276, 3, wb, filler, NA, 999, 999, 4, 13, 131, 71, 135, 66, 67, 186, 2, 1.15599
276, 3, wb, filler, NA, 999, 999, 4, 13, 131, 71, 135, 66, 67, 186, 1, 0.748788
276, 3, wb, filler, NA, 999, 999, 4, 14, 91, 137, 124, 116, 143, 93, 3, 1.03599
276, 3, wb, filler, NA, 999, 999, 4, 14, 91, 137, 124, 116, 143, 93, 2, 0.593831
276, 3, wb, filler, NA, 999, 999, 4, 15, 68, 73, 78, 180, 160, 142, 1, 2.72744
276, 3, wb, filler, NA, 999, 999, 4, 15, 68, 73, 78, 180, 160, 142, 3, 0.608518
276, 3, wb, attraction, a-b-da, 5, 2, 4, 16, 90, 165, 165, 90, 161, 88, 3, 1.14173
276, 3, wb, attraction, a-b-da, 5, 2, 4, 16, 90, 165, 165, 90, 161, 88, 1, 0.510695
276, 3, wb, catch, NA, 999, 999, 4, 17, 149, 106, 88, 107, 151, 164, 2, 1.0476
276, 3, wb, catch, NA, 999, 999, 4, 17, 149, 106, 88, 107, 151, 164, 3, 0.988678
276, 3, wb, attraction, a-b-da, 2, 3, 4, 18, 193, 119, 120, 195, 195, 120, 2, 0.667107
276, 3, wb, attraction, a-b-da, 2, 3, 4, 18, 193, 119, 120, 195, 195, 120, 1, 0.471399
276, 3, wb, attraction, a-b-da, 9, 1, 4, 19, 60, 135, 135, 60, 129, 57, 3, 0.578455
276, 3, wb, attraction, a-b-da, 9, 1, 4, 19, 60, 135, 135, 60, 129, 57, 2, 0.346313
276, 3, wb, attraction, a-b-db, 9, 3, 4, 20, 120, 195, 114, 186, 195, 120, 3, 0.514167
276, 3, wb, attraction, a-b-db, 9, 3, 4, 20, 120, 195, 114, 186, 195, 120, 2, 0.884558
276, 3, wb, attraction, a-b-da, 9, 2, 4, 21, 90, 165, 157, 86, 165, 90, 3, 0.622966
276, 3, wb, attraction, a-b-da, 9, 2, 4, 21, 90, 165, 157, 86, 165, 90, 2, 0.940724
276, 3, wb, attraction, a-b-db, 5, 2, 4, 22, 165, 90, 88, 161, 90, 165, 3, 0.75636
276, 3, wb, attraction, a-b-db, 5, 2, 4, 22, 165, 90, 88, 161, 90, 165, 1, 0.404773
276, 3, wb, attraction, a-b-db, 14, 1, 4, 23, 135, 60, 60, 135, 56, 125, 3, 0.634611
276, 3, wb, attraction, a-b-db, 14, 1, 4, 23, 135, 60, 60, 135, 56, 125, 2, 0.456371
276, 3, wb, attraction, a-b-da, 14, 2, 4, 24, 90, 165, 153, 83, 165, 90, 3, 0.828131
276, 3, wb, attraction, a-b-da, 14, 2, 4, 24, 90, 165, 153, 83, 165, 90, 2, 0.68989
276, 3, wb, catch, NA, 999, 999, 4, 25, 125, 130, 182, 133, 135, 60, 3, 0.731663
276, 3, wb, catch, NA, 999, 999, 4, 25, 125, 130, 182, 133, 135, 60, 2, 0.445312
276, 3, wb, attraction, a-b-db, 14, 3, 4, 26, 111, 181, 195, 120, 120, 195, 2, 0.857127
276, 3, wb, attraction, a-b-db, 14, 3, 4, 26, 111, 181, 195, 120, 120, 195, 1, 0.429518
276, 3, wb, attraction, a-b-db, 9, 2, 4, 27, 90, 165, 86, 157, 165, 90, 3, 0.921959
276, 3, wb, attraction, a-b-db, 9, 2, 4, 27, 90, 165, 86, 157, 165, 90, 2, 0.699662
276, 3, wb, attraction, a-b-da, 14, 1, 4, 28, 60, 135, 135, 60, 125, 56, 3, 0.677421
276, 3, wb, attraction, a-b-da, 14, 1, 4, 28, 60, 135, 135, 60, 125, 56, 2, 0.615801
276, 3, wb, filler, NA, 999, 999, 4, 29, 173, 58, 99, 158, 57, 119, 3, 1.44623
276, 3, wb, filler, NA, 999, 999, 4, 29, 173, 58, 99, 158, 57, 119, 2, 0.763136
276, 3, wb, attraction, a-b-db, 5, 1, 4, 30, 135, 60, 58, 132, 60, 135, 3, 0.658158
276, 3, wb, attraction, a-b-db, 5, 1, 4, 30, 135, 60, 58, 132, 60, 135, 2, 0.502561
276, 3, wb, attraction, a-b-da, 5, 1, 4, 31, 135, 60, 132, 58, 60, 135, 3, 0.608476
276, 3, wb, attraction, a-b-da, 5, 1, 4, 31, 135, 60, 132, 58, 60, 135, 2, 0.390916
276, 3, wb, attraction, a-b-db, 5, 3, 4, 32, 117, 190, 120, 195, 195, 120, 3, 2.38866
276, 3, wb, attraction, a-b-db, 5, 3, 4, 32, 117, 190, 120, 195, 195, 120, 2, 0.715366
276, 3, wb, attraction, a-b-db, 2, 1, 4, 33, 60, 135, 59, 134, 135, 60, 3, 0.73223
276, 3, wb, attraction, a-b-db, 2, 1, 4, 33, 60, 135, 59, 134, 135, 60, 2, 0.38997
276, 3, wb, attraction, a-b-da, 9, 3, 4, 34, 195, 120, 186, 114, 120, 195, 3, 0.867796
276, 3, wb, attraction, a-b-da, 9, 3, 4, 34, 195, 120, 186, 114, 120, 195, 1, 0.688185
276, 3, wb, attraction, a-b-db, 2, 2, 4, 35, 90, 165, 165, 90, 89, 163, 3, 0.682595
276, 3, wb, attraction, a-b-db, 2, 2, 4, 35, 90, 165, 165, 90, 89, 163, 2, 0.438418
276, 3, wb, filler, NA, 999, 999, 4, 36, 106, 178, 115, 58, 153, 101, 2, 1.05879
276, 3, wb, filler, NA, 999, 999, 4, 36, 106, 178, 115, 58, 153, 101, 1, 1.0311
276, 3, wb, attraction, a-b-da, 2, 1, 4, 37, 134, 59, 60, 135, 135, 60, 3, 0.811406
276, 3, wb, attraction, a-b-da, 2, 1, 4, 37, 134, 59, 60, 135, 135, 60, 2, 0.369731
276, 3, wb, attraction, a-b-db, 5, 3, 5, 1, 120, 195, 195, 120, 117, 190, 1, 2.31153
276, 3, wb, attraction, a-b-db, 5, 3, 5, 1, 120, 195, 195, 120, 117, 190, 3, 0.849487
276, 3, wb, filler, NA, 999, 999, 5, 2, 152, 62, 121, 132, 188, 189, 1, 1.19726
276, 3, wb, filler, NA, 999, 999, 5, 2, 152, 62, 121, 132, 188, 189, 3, 0.348114
276, 3, wb, catch, NA, 999, 999, 5, 3, 162, 93, 166, 149, 85, 110, 3, 0.811919
276, 3, wb, catch, NA, 999, 999, 5, 3, 162, 93, 166, 149, 85, 110, 2, 0.458277
276, 3, wb, attraction, a-b-db, 2, 1, 5, 4, 60, 135, 135, 60, 59, 134, 2, 0.709632
276, 3, wb, attraction, a-b-db, 2, 1, 5, 4, 60, 135, 135, 60, 59, 134, 1, 0.487877
276, 3, wb, attraction, a-b-db, 14, 3, 5, 5, 111, 181, 195, 120, 120, 195, 3, 0.42632
276, 3, wb, attraction, a-b-db, 14, 3, 5, 5, 111, 181, 195, 120, 120, 195, 2, 0.480282
276, 3, wb, filler, NA, 999, 999, 5, 6, 155, 193, 114, 174, 149, 124, 3, 0.810622
276, 3, wb, filler, NA, 999, 999, 5, 6, 155, 193, 114, 174, 149, 124, 1, 0.593031
276, 3, wb, attraction, a-b-da, 5, 1, 5, 7, 60, 135, 135, 60, 132, 58, 3, 0.470818
276, 3, wb, attraction, a-b-da, 5, 1, 5, 7, 60, 135, 135, 60, 132, 58, 2, 0.451251
276, 3, wb, filler, NA, 999, 999, 5, 8, 190, 82, 107, 57, 112, 95, 3, 0.839073
276, 3, wb, filler, NA, 999, 999, 5, 8, 190, 82, 107, 57, 112, 95, 1, 1.13203
276, 3, wb, attraction, a-b-db, 2, 2, 5, 9, 89, 163, 90, 165, 165, 90, 1, 0.85233
276, 3, wb, attraction, a-b-db, 2, 2, 5, 9, 89, 163, 90, 165, 165, 90, 3, 0.529392
276, 3, wb, attraction, a-b-da, 5, 3, 5, 10, 195, 120, 190, 117, 120, 195, 3, 0.801897
276, 3, wb, attraction, a-b-da, 5, 3, 5, 10, 195, 120, 190, 117, 120, 195, 2, 0.336965
276, 3, wb, attraction, a-b-da, 9, 2, 5, 11, 165, 90, 90, 165, 157, 86, 3, 0.561613
276, 3, wb, attraction, a-b-da, 9, 2, 5, 11, 165, 90, 90, 165, 157, 86, 2, 0.417845
276, 3, wb, filler, NA, 999, 999, 5, 12, 63, 135, 123, 159, 62, 162, 1, 0.902996
276, 3, wb, filler, NA, 999, 999, 5, 12, 63, 135, 123, 159, 62, 162, 2, 0.386197
276, 3, wb, attraction, a-b-da, 14, 2, 5, 13, 165, 90, 153, 83, 90, 165, 3, 1.00848
276, 3, wb, attraction, a-b-da, 14, 2, 5, 13, 165, 90, 153, 83, 90, 165, 2, 0.878792
276, 3, wb, attraction, a-b-db, 9, 2, 5, 14, 86, 157, 165, 90, 90, 165, 1, 0.665212
276, 3, wb, attraction, a-b-db, 9, 2, 5, 14, 86, 157, 165, 90, 90, 165, 2, 0.397631
276, 3, wb, attraction, a-b-db, 14, 1, 5, 15, 56, 125, 60, 135, 135, 60, 3, 0.859593
276, 3, wb, attraction, a-b-db, 14, 1, 5, 15, 56, 125, 60, 135, 135, 60, 2, 0.943786
276, 3, wb, catch, NA, 999, 999, 5, 16, 102, 93, 133, 182, 113, 142, 1, 0.719501
276, 3, wb, catch, NA, 999, 999, 5, 16, 102, 93, 133, 182, 113, 142, 2, 0.43392
276, 3, wb, catch, NA, 999, 999, 5, 17, 192, 123, 104, 151, 124, 71, 3, 1.07027
276, 3, wb, catch, NA, 999, 999, 5, 17, 192, 123, 104, 151, 124, 71, 1, 0.578618
276, 3, wb, filler, NA, 999, 999, 5, 18, 188, 102, 128, 74, 114, 180, 2, 0.737036
276, 3, wb, filler, NA, 999, 999, 5, 18, 188, 102, 128, 74, 114, 180, 1, 0.826777
276, 3, wb, attraction, a-b-da, 9, 3, 5, 19, 186, 114, 120, 195, 195, 120, 3, 0.79117
276, 3, wb, attraction, a-b-da, 9, 3, 5, 19, 186, 114, 120, 195, 195, 120, 2, 0.342301
276, 3, wb, filler, NA, 999, 999, 5, 20, 184, 87, 89, 113, 133, 85, 2, 1.05406
276, 3, wb, filler, NA, 999, 999, 5, 20, 184, 87, 89, 113, 133, 85, 1, 0.498946
276, 3, wb, attraction, a-b-db, 2, 3, 5, 21, 119, 193, 195, 120, 120, 195, 2, 0.692768
276, 3, wb, attraction, a-b-db, 2, 3, 5, 21, 119, 193, 195, 120, 120, 195, 1, 0.399884
276, 3, wb, attraction, a-b-da, 5, 2, 5, 22, 90, 165, 165, 90, 161, 88, 3, 0.933823
276, 3, wb, attraction, a-b-da, 5, 2, 5, 22, 90, 165, 165, 90, 161, 88, 2, 0.43944
276, 3, wb, filler, NA, 999, 999, 5, 23, 97, 70, 170, 110, 129, 63, 1, 1.2198
276, 3, wb, filler, NA, 999, 999, 5, 23, 97, 70, 170, 110, 129, 63, 2, 0.330091
276, 3, wb, attraction, a-b-da, 2, 1, 5, 24, 135, 60, 134, 59, 60, 135, 1, 0.674648
276, 3, wb, attraction, a-b-da, 2, 1, 5, 24, 135, 60, 134, 59, 60, 135, 2, 0.678342
276, 3, wb, attraction, a-b-da, 2, 2, 5, 25, 165, 90, 90, 165, 163, 89, 2, 1.07283
276, 3, wb, attraction, a-b-da, 2, 2, 5, 25, 165, 90, 90, 165, 163, 89, 3, 0.540445
276, 3, wb, attraction, a-b-da, 2, 3, 5, 26, 193, 119, 195, 120, 120, 195, 1, 1.71625
276, 3, wb, attraction, a-b-da, 2, 3, 5, 26, 193, 119, 195, 120, 120, 195, 3, 0.358326
276, 3, wb, attraction, a-b-db, 14, 2, 5, 27, 83, 153, 165, 90, 90, 165, 2, 0.901456
276, 3, wb, attraction, a-b-db, 14, 2, 5, 27, 83, 153, 165, 90, 90, 165, 3, 0.568476
276, 3, wb, attraction, a-b-db, 9, 3, 5, 28, 195, 120, 114, 186, 120, 195, 2, 2.11959
276, 3, wb, attraction, a-b-db, 9, 3, 5, 28, 195, 120, 114, 186, 120, 195, 3, 0.417583
276, 3, wb, attraction, a-b-da, 9, 1, 5, 29, 60, 135, 135, 60, 129, 57, 3, 2.95872
276, 3, wb, attraction, a-b-da, 9, 1, 5, 29, 60, 135, 135, 60, 129, 57, 1, 0.526423
276, 3, wb, filler, NA, 999, 999, 5, 30, 177, 100, 139, 74, 102, 160, 2, 2.00695
276, 3, wb, filler, NA, 999, 999, 5, 30, 177, 100, 139, 74, 102, 160, 1, 0.540888
276, 3, wb, filler, NA, 999, 999, 5, 31, 147, 161, 115, 159, 150, 70, 3, 2.05266
276, 3, wb, filler, NA, 999, 999, 5, 31, 147, 161, 115, 159, 150, 70, 1, 0.513315
276, 3, wb, attraction, a-b-db, 5, 1, 5, 32, 135, 60, 60, 135, 58, 132, 3, 0.922441
276, 3, wb, attraction, a-b-db, 5, 1, 5, 32, 135, 60, 60, 135, 58, 132, 2, 0.340234
276, 3, wb, filler, NA, 999, 999, 5, 33, 165, 151, 101, 173, 184, 193, 2, 0.939952
276, 3, wb, filler, NA, 999, 999, 5, 33, 165, 151, 101, 173, 184, 193, 3, 0.724941
276, 3, wb, attraction, a-b-db, 5, 2, 5, 34, 88, 161, 165, 90, 90, 165, 1, 1.28548
276, 3, wb, attraction, a-b-db, 5, 2, 5, 34, 88, 161, 165, 90, 90, 165, 3, 1.07286
276, 3, wb, attraction, a-b-db, 9, 1, 5, 35, 60, 135, 57, 129, 135, 60, 2, 1.58799
276, 3, wb, attraction, a-b-db, 9, 1, 5, 35, 60, 135, 57, 129, 135, 60, 1, 0.611313
276, 3, wb, attraction, a-b-da, 14, 3, 5, 36, 195, 120, 181, 111, 120, 195, 2, 1.44847
276, 3, wb, attraction, a-b-da, 14, 3, 5, 36, 195, 120, 181, 111, 120, 195, 3, 0.685355
276, 3, wb, attraction, a-b-da, 14, 1, 5, 37, 135, 60, 125, 56, 60, 135, 2, 3.43172
276, 3, wb, attraction, a-b-da, 14, 1, 5, 37, 135, 60, 125, 56, 60, 135, 3, 0.372559
276, 3, wb, attraction, a-b-da, 2, 1, 6, 1, 135, 60, 134, 59, 60, 135, 2, 0.643799
276, 3, wb, attraction, a-b-da, 2, 1, 6, 1, 135, 60, 134, 59, 60, 135, 3, 1.00887
276, 3, wb, filler, NA, 999, 999, 6, 2, 68, 161, 83, 114, 61, 108, 3, 1.07781
276, 3, wb, filler, NA, 999, 999, 6, 2, 68, 161, 83, 114, 61, 108, 1, 0.49751
276, 3, wb, filler, NA, 999, 999, 6, 3, 64, 186, 79, 64, 62, 90, 2, 1.15535
276, 3, wb, filler, NA, 999, 999, 6, 3, 64, 186, 79, 64, 62, 90, 1, 0.38757
276, 3, wb, attraction, a-b-da, 9, 1, 6, 4, 129, 57, 135, 60, 60, 135, 1, 1.68999
276, 3, wb, attraction, a-b-da, 9, 1, 6, 4, 129, 57, 135, 60, 60, 135, 2, 0.724779
276, 3, wb, attraction, a-b-da, 2, 3, 6, 5, 193, 119, 195, 120, 120, 195, 1, 3.42135
276, 3, wb, attraction, a-b-da, 2, 3, 6, 5, 193, 119, 195, 120, 120, 195, 3, 0.322726
276, 3, wb, attraction, a-b-db, 5, 2, 6, 6, 165, 90, 90, 165, 88, 161, 1, 2.1479
276, 3, wb, attraction, a-b-db, 5, 2, 6, 6, 165, 90, 90, 165, 88, 161, 2, 1.04457
276, 3, wb, attraction, a-b-db, 2, 2, 6, 7, 165, 90, 89, 163, 90, 165, 1, 2.56821
276, 3, wb, attraction, a-b-db, 2, 2, 6, 7, 165, 90, 89, 163, 90, 165, 3, 0.680036
276, 3, wb, attraction, a-b-db, 14, 2, 6, 8, 83, 153, 90, 165, 165, 90, 1, 2.07442
276, 3, wb, attraction, a-b-db, 14, 2, 6, 8, 83, 153, 90, 165, 165, 90, 2, 0.92582
276, 3, wb, catch, NA, 999, 999, 6, 9, 140, 175, 68, 127, 121, 134, 2, 1.01403
276, 3, wb, catch, NA, 999, 999, 6, 9, 140, 175, 68, 127, 121, 134, 1, 0.3403
276, 3, wb, attraction, a-b-db, 14, 1, 6, 10, 135, 60, 60, 135, 56, 125, 3, 2.98022
276, 3, wb, attraction, a-b-db, 14, 1, 6, 10, 135, 60, 60, 135, 56, 125, 1, 0.571254
276, 3, wb, attraction, a-b-db, 2, 1, 6, 11, 59, 134, 60, 135, 135, 60, 1, 3.21846
276, 3, wb, attraction, a-b-db, 2, 1, 6, 11, 59, 134, 60, 135, 135, 60, 3, 0.736072
276, 3, wb, attraction, a-b-db, 5, 3, 6, 12, 120, 195, 117, 190, 195, 120, 1, 3.52049
276, 3, wb, attraction, a-b-db, 5, 3, 6, 12, 120, 195, 117, 190, 195, 120, 3, 0.521846
276, 3, wb, attraction, a-b-da, 9, 2, 6, 13, 90, 165, 157, 86, 165, 90, 1, 1.315
276, 3, wb, attraction, a-b-da, 9, 2, 6, 13, 90, 165, 157, 86, 165, 90, 3, 0.445204
276, 3, wb, attraction, a-b-da, 5, 1, 6, 14, 60, 135, 132, 58, 135, 60, 1, 1.24899
276, 3, wb, attraction, a-b-da, 5, 1, 6, 14, 60, 135, 132, 58, 135, 60, 3, 0.477859
276, 3, wb, filler, NA, 999, 999, 6, 15, 102, 74, 63, 131, 169, 166, 1, 1.26448
276, 3, wb, filler, NA, 999, 999, 6, 15, 102, 74, 63, 131, 169, 166, 3, 0.41267
276, 3, wb, filler, NA, 999, 999, 6, 16, 116, 76, 194, 173, 87, 169, 1, 0.905802
276, 3, wb, filler, NA, 999, 999, 6, 16, 116, 76, 194, 173, 87, 169, 2, 0.324225
276, 3, wb, filler, NA, 999, 999, 6, 17, 161, 190, 100, 125, 78, 71, 3, 0.73266
276, 3, wb, filler, NA, 999, 999, 6, 17, 161, 190, 100, 125, 78, 71, 1, 0.390325
276, 3, wb, catch, NA, 999, 999, 6, 18, 66, 129, 177, 138, 148, 107, 1, 0.788197
276, 3, wb, catch, NA, 999, 999, 6, 18, 66, 129, 177, 138, 148, 107, 2, 0.283222
276, 3, wb, attraction, a-b-db, 14, 3, 6, 19, 111, 181, 195, 120, 120, 195, 1, 2.37381
276, 3, wb, attraction, a-b-db, 14, 3, 6, 19, 111, 181, 195, 120, 120, 195, 2, 0.341169
276, 3, wb, attraction, a-b-db, 5, 1, 6, 20, 58, 132, 135, 60, 60, 135, 1, 1.98099
276, 3, wb, attraction, a-b-db, 5, 1, 6, 20, 58, 132, 135, 60, 60, 135, 2, 0.348132
276, 3, wb, attraction, a-b-da, 5, 3, 6, 21, 195, 120, 120, 195, 190, 117, 1, 1.84403
276, 3, wb, attraction, a-b-da, 5, 3, 6, 21, 195, 120, 120, 195, 190, 117, 2, 0.376776
276, 3, wb, attraction, a-b-da, 14, 1, 6, 22, 135, 60, 125, 56, 60, 135, 2, 2.16726
276, 3, wb, attraction, a-b-da, 14, 1, 6, 22, 135, 60, 125, 56, 60, 135, 1, 0.775315
276, 3, wb, filler, NA, 999, 999, 6, 23, 188, 68, 105, 159, 162, 75, 3, 2.47759
276, 3, wb, filler, NA, 999, 999, 6, 23, 188, 68, 105, 159, 162, 75, 2, 0.936862
276, 3, wb, filler, NA, 999, 999, 6, 24, 129, 166, 125, 68, 138, 85, 2, 0.993035
276, 3, wb, filler, NA, 999, 999, 6, 24, 129, 166, 125, 68, 138, 85, 1, 0.424118
276, 3, wb, attraction, a-b-db, 9, 2, 6, 25, 86, 157, 165, 90, 90, 165, 1, 2.13253
276, 3, wb, attraction, a-b-db, 9, 2, 6, 25, 86, 157, 165, 90, 90, 165, 3, 0.861978
276, 3, wb, attraction, a-b-da, 5, 2, 6, 26, 161, 88, 90, 165, 165, 90, 3, 2.85691
276, 3, wb, attraction, a-b-da, 5, 2, 6, 26, 161, 88, 90, 165, 165, 90, 2, 0.428658
276, 3, wb, attraction, a-b-db, 2, 3, 6, 27, 195, 120, 119, 193, 120, 195, 1, 2.4172
276, 3, wb, attraction, a-b-db, 2, 3, 6, 27, 195, 120, 119, 193, 120, 195, 2, 0.47897
276, 3, wb, catch, NA, 999, 999, 6, 28, 133, 182, 106, 149, 110, 85, 3, 2.2095
276, 3, wb, catch, NA, 999, 999, 6, 28, 133, 182, 106, 149, 110, 85, 1, 0.551443
276, 3, wb, attraction, a-b-da, 14, 2, 6, 29, 90, 165, 153, 83, 165, 90, 2, 2.03929
276, 3, wb, attraction, a-b-da, 14, 2, 6, 29, 90, 165, 153, 83, 165, 90, 1, 0.36379
276, 3, wb, attraction, a-b-db, 9, 3, 6, 30, 195, 120, 114, 186, 120, 195, 2, 1.94712
276, 3, wb, attraction, a-b-db, 9, 3, 6, 30, 195, 120, 114, 186, 120, 195, 3, 0.91585
276, 3, wb, attraction, a-b-da, 9, 3, 6, 31, 186, 114, 120, 195, 195, 120, 2, 2.61279
276, 3, wb, attraction, a-b-da, 9, 3, 6, 31, 186, 114, 120, 195, 195, 120, 3, 0.506512
276, 3, wb, filler, NA, 999, 999, 6, 32, 101, 57, 156, 134, 120, 109, 1, 1.12429
276, 3, wb, filler, NA, 999, 999, 6, 32, 101, 57, 156, 134, 120, 109, 2, 0.334004
276, 3, wb, attraction, a-b-db, 9, 1, 6, 33, 60, 135, 57, 129, 135, 60, 2, 1.58246
276, 3, wb, attraction, a-b-db, 9, 1, 6, 33, 60, 135, 57, 129, 135, 60, 1, 0.5579
276, 3, wb, filler, NA, 999, 999, 6, 34, 171, 193, 61, 115, 114, 148, 2, 0.661075
276, 3, wb, filler, NA, 999, 999, 6, 34, 171, 193, 61, 115, 114, 148, 1, 0.473399
276, 3, wb, attraction, a-b-da, 2, 2, 6, 35, 163, 89, 165, 90, 90, 165, 1, 1.22006
276, 3, wb, attraction, a-b-da, 2, 2, 6, 35, 163, 89, 165, 90, 90, 165, 3, 0.426152
276, 3, wb, filler, NA, 999, 999, 6, 36, 139, 120, 65, 156, 105, 156, 2, 1.80667
276, 3, wb, filler, NA, 999, 999, 6, 36, 139, 120, 65, 156, 105, 156, 1, 2.2447
276, 3, wb, attraction, a-b-da, 14, 3, 6, 37, 195, 120, 120, 195, 181, 111, 3, 1.44003
276, 3, wb, attraction, a-b-da, 14, 3, 6, 37, 195, 120, 120, 195, 181, 111, 2, 0.56489
276, 3, wb, filler, NA, 999, 999, 7, 1, 114, 155, 189, 130, 189, 178, 1, 0.907844
276, 3, wb, filler, NA, 999, 999, 7, 1, 114, 155, 189, 130, 189, 178, 3, 0.406307
276, 3, wb, attraction, a-b-da, 2, 2, 7, 2, 90, 165, 165, 90, 163, 89, 3, 1.7482
276, 3, wb, attraction, a-b-da, 2, 2, 7, 2, 90, 165, 165, 90, 163, 89, 1, 0.588745
276, 3, wb, attraction, a-b-db, 2, 2, 7, 3, 90, 165, 89, 163, 165, 90, 3, 2.49127
276, 3, wb, attraction, a-b-db, 2, 2, 7, 3, 90, 165, 89, 163, 165, 90, 2, 0.669835
276, 3, wb, attraction, a-b-da, 14, 3, 7, 4, 181, 111, 120, 195, 195, 120, 1, 1.07282
276, 3, wb, attraction, a-b-da, 14, 3, 7, 4, 181, 111, 120, 195, 195, 120, 2, 0.420607
276, 3, wb, filler, NA, 999, 999, 7, 5, 95, 173, 164, 127, 122, 94, 3, 1.21762
276, 3, wb, filler, NA, 999, 999, 7, 5, 95, 173, 164, 127, 122, 94, 2, 0.367885
276, 3, wb, filler, NA, 999, 999, 7, 6, 195, 83, 160, 189, 158, 129, 1, 2.39904
276, 3, wb, filler, NA, 999, 999, 7, 6, 195, 83, 160, 189, 158, 129, 2, 0.349705
276, 3, wb, filler, NA, 999, 999, 7, 7, 118, 80, 117, 175, 154, 136, 1, 0.80538
276, 3, wb, filler, NA, 999, 999, 7, 7, 118, 80, 117, 175, 154, 136, 2, 0.835855
276, 3, wb, catch, NA, 999, 999, 7, 8, 135, 120, 119, 76, 141, 174, 2, 1.39219
276, 3, wb, catch, NA, 999, 999, 7, 8, 135, 120, 119, 76, 141, 174, 3, 0.399058
276, 3, wb, attraction, a-b-db, 14, 2, 7, 9, 90, 165, 83, 153, 165, 90, 2, 1.18883
276, 3, wb, attraction, a-b-db, 14, 2, 7, 9, 90, 165, 83, 153, 165, 90, 1, 0.635685
276, 3, wb, catch, NA, 999, 999, 7, 10, 99, 156, 72, 123, 163, 152, 2, 0.728243
276, 3, wb, catch, NA, 999, 999, 7, 10, 99, 156, 72, 123, 163, 152, 3, 0.569959
276, 3, wb, filler, NA, 999, 999, 7, 11, 150, 129, 70, 86, 189, 93, 2, 0.721086
276, 3, wb, filler, NA, 999, 999, 7, 11, 150, 129, 70, 86, 189, 93, 1, 0.523529
276, 3, wb, filler, NA, 999, 999, 7, 12, 184, 103, 123, 181, 153, 108, 3, 1.2839
276, 3, wb, filler, NA, 999, 999, 7, 12, 184, 103, 123, 181, 153, 108, 2, 0.415477
276, 3, wb, attraction, a-b-da, 14, 1, 7, 13, 60, 135, 125, 56, 135, 60, 1, 0.740592
276, 3, wb, attraction, a-b-da, 14, 1, 7, 13, 60, 135, 125, 56, 135, 60, 2, 0.64578
276, 3, wb, attraction, a-b-db, 5, 1, 7, 14, 58, 132, 60, 135, 135, 60, 1, 0.833528
276, 3, wb, attraction, a-b-db, 5, 1, 7, 14, 58, 132, 60, 135, 135, 60, 3, 0.535226
276, 3, wb, attraction, a-b-da, 9, 1, 7, 15, 135, 60, 60, 135, 129, 57, 3, 1.71152
276, 3, wb, attraction, a-b-da, 9, 1, 7, 15, 135, 60, 60, 135, 129, 57, 2, 0.489641
276, 3, wb, attraction, a-b-da, 5, 1, 7, 16, 135, 60, 132, 58, 60, 135, 3, 0.724216
276, 3, wb, attraction, a-b-da, 5, 1, 7, 16, 135, 60, 132, 58, 60, 135, 2, 0.52587
276, 3, wb, filler, NA, 999, 999, 7, 17, 129, 157, 130, 146, 101, 105, 3, 1.03037
276, 3, wb, filler, NA, 999, 999, 7, 17, 129, 157, 130, 146, 101, 105, 1, 0.659945
276, 3, wb, attraction, a-b-da, 5, 2, 7, 18, 165, 90, 161, 88, 90, 165, 2, 1.24714
276, 3, wb, attraction, a-b-da, 5, 2, 7, 18, 165, 90, 161, 88, 90, 165, 1, 0.516023
276, 3, wb, attraction, a-b-db, 5, 3, 7, 19, 120, 195, 195, 120, 117, 190, 3, 0.661197
276, 3, wb, attraction, a-b-db, 5, 3, 7, 19, 120, 195, 195, 120, 117, 190, 2, 0.313425
276, 3, wb, catch, NA, 999, 999, 7, 20, 170, 145, 164, 91, 84, 111, 3, 0.666762
276, 3, wb, catch, NA, 999, 999, 7, 20, 170, 145, 164, 91, 84, 111, 1, 0.463195
276, 3, wb, attraction, a-b-da, 5, 3, 7, 21, 195, 120, 190, 117, 120, 195, 1, 1.11429
276, 3, wb, attraction, a-b-da, 5, 3, 7, 21, 195, 120, 190, 117, 120, 195, 2, 0.732706
276, 3, wb, attraction, a-b-db, 9, 1, 7, 22, 135, 60, 57, 129, 60, 135, 2, 1.02891
276, 3, wb, attraction, a-b-db, 9, 1, 7, 22, 135, 60, 57, 129, 60, 135, 1, 0.610526
276, 3, wb, attraction, a-b-db, 2, 3, 7, 23, 119, 193, 195, 120, 120, 195, 3, 2.1836
276, 3, wb, attraction, a-b-db, 2, 3, 7, 23, 119, 193, 195, 120, 120, 195, 2, 0.350935
276, 3, wb, attraction, a-b-db, 5, 2, 7, 24, 165, 90, 90, 165, 88, 161, 2, 2.05481
276, 3, wb, attraction, a-b-db, 5, 2, 7, 24, 165, 90, 90, 165, 88, 161, 1, 0.699462
276, 3, wb, filler, NA, 999, 999, 7, 25, 57, 59, 161, 175, 69, 184, 1, 0.69331
276, 3, wb, filler, NA, 999, 999, 7, 25, 57, 59, 161, 175, 69, 184, 2, 0.240268
276, 3, wb, attraction, a-b-da, 2, 1, 7, 26, 134, 59, 135, 60, 60, 135, 1, 1.47624
276, 3, wb, attraction, a-b-da, 2, 1, 7, 26, 134, 59, 135, 60, 60, 135, 2, 0.543659
276, 3, wb, filler, NA, 999, 999, 7, 27, 186, 170, 134, 63, 174, 99, 2, 1.38336
276, 3, wb, filler, NA, 999, 999, 7, 27, 186, 170, 134, 63, 174, 99, 1, 0.398885
276, 3, wb, attraction, a-b-db, 9, 2, 7, 28, 165, 90, 90, 165, 86, 157, 1, 0.964768
276, 3, wb, attraction, a-b-db, 9, 2, 7, 28, 165, 90, 90, 165, 86, 157, 3, 0.637244
276, 3, wb, attraction, a-b-db, 14, 3, 7, 29, 120, 195, 195, 120, 111, 181, 3, 2.3616
276, 3, wb, attraction, a-b-db, 14, 3, 7, 29, 120, 195, 195, 120, 111, 181, 2, 0.649478
276, 3, wb, attraction, a-b-db, 14, 1, 7, 30, 135, 60, 60, 135, 56, 125, 3, 1.48524
276, 3, wb, attraction, a-b-db, 14, 1, 7, 30, 135, 60, 60, 135, 56, 125, 2, 0.496877
276, 3, wb, attraction, a-b-da, 2, 3, 7, 31, 193, 119, 195, 120, 120, 195, 3, 2.41058
276, 3, wb, attraction, a-b-da, 2, 3, 7, 31, 193, 119, 195, 120, 120, 195, 2, 0.440396
276, 3, wb, attraction, a-b-da, 9, 3, 7, 32, 120, 195, 186, 114, 195, 120, 1, 0.836291
276, 3, wb, attraction, a-b-da, 9, 3, 7, 32, 120, 195, 186, 114, 195, 120, 3, 0.617807
276, 3, wb, attraction, a-b-db, 9, 3, 7, 33, 120, 195, 195, 120, 114, 186, 2, 0.822852
276, 3, wb, attraction, a-b-db, 9, 3, 7, 33, 120, 195, 195, 120, 114, 186, 1, 0.972703
276, 3, wb, attraction, a-b-da, 14, 2, 7, 34, 165, 90, 153, 83, 90, 165, 2, 2.40356
276, 3, wb, attraction, a-b-da, 14, 2, 7, 34, 165, 90, 153, 83, 90, 165, 1, 0.818168
276, 3, wb, attraction, a-b-da, 9, 2, 7, 35, 165, 90, 157, 86, 90, 165, 2, 2.13526
276, 3, wb, attraction, a-b-da, 9, 2, 7, 35, 165, 90, 157, 86, 90, 165, 3, 0.448584
276, 3, wb, filler, NA, 999, 999, 7, 36, 117, 79, 88, 95, 189, 106, 2, 1.15644
276, 3, wb, filler, NA, 999, 999, 7, 36, 117, 79, 88, 95, 189, 106, 3, 0.836666
276, 3, wb, attraction, a-b-db, 2, 1, 7, 37, 59, 134, 60, 135, 135, 60, 2, 0.688972
276, 3, wb, attraction, a-b-db, 2, 1, 7, 37, 59, 134, 60, 135, 135, 60, 3, 1.10802
276, 3, wb, attraction, a-b-db, 2, 2, 8, 1, 89, 163, 165, 90, 90, 165, 2, 2.0769
276, 3, wb, attraction, a-b-db, 2, 2, 8, 1, 89, 163, 165, 90, 90, 165, 3, 0.432289
276, 3, wb, attraction, a-b-da, 9, 3, 8, 2, 195, 120, 186, 114, 120, 195, 2, 1.57291
276, 3, wb, attraction, a-b-da, 9, 3, 8, 2, 195, 120, 186, 114, 120, 195, 3, 0.412244
276, 3, wb, filler, NA, 999, 999, 8, 3, 179, 108, 118, 173, 63, 179, 3, 1.04138
276, 3, wb, filler, NA, 999, 999, 8, 3, 179, 108, 118, 173, 63, 179, 2, 0.4144
276, 3, wb, filler, NA, 999, 999, 8, 4, 133, 88, 162, 166, 86, 195, 1, 0.747571
276, 3, wb, filler, NA, 999, 999, 8, 4, 133, 88, 162, 166, 86, 195, 2, 0.420575
276, 3, wb, attraction, a-b-db, 9, 2, 8, 5, 165, 90, 86, 157, 90, 165, 1, 1.68975
276, 3, wb, attraction, a-b-db, 9, 2, 8, 5, 165, 90, 86, 157, 90, 165, 3, 0.548556
276, 3, wb, attraction, a-b-da, 2, 3, 8, 6, 195, 120, 193, 119, 120, 195, 1, 1.89239
276, 3, wb, attraction, a-b-da, 2, 3, 8, 6, 195, 120, 193, 119, 120, 195, 3, 0.366993
276, 3, wb, attraction, a-b-db, 14, 1, 8, 7, 56, 125, 135, 60, 60, 135, 2, 1.21427
276, 3, wb, attraction, a-b-db, 14, 1, 8, 7, 56, 125, 135, 60, 60, 135, 1, 0.692374
276, 3, wb, attraction, a-b-db, 5, 1, 8, 8, 60, 135, 135, 60, 58, 132, 1, 1.07015
276, 3, wb, attraction, a-b-db, 5, 1, 8, 8, 60, 135, 135, 60, 58, 132, 2, 0.466468
276, 3, wb, attraction, a-b-da, 2, 2, 8, 9, 163, 89, 165, 90, 90, 165, 3, 2.62954
276, 3, wb, attraction, a-b-da, 2, 2, 8, 9, 163, 89, 165, 90, 90, 165, 1, 0.538714
276, 3, wb, filler, NA, 999, 999, 8, 10, 126, 139, 151, 63, 79, 163, 2, 1.6992
276, 3, wb, filler, NA, 999, 999, 8, 10, 126, 139, 151, 63, 79, 163, 1, 1.33404
276, 3, wb, attraction, a-b-da, 9, 2, 8, 11, 90, 165, 157, 86, 165, 90, 2, 2.03017
276, 3, wb, attraction, a-b-da, 9, 2, 8, 11, 90, 165, 157, 86, 165, 90, 1, 0.419476
276, 3, wb, filler, NA, 999, 999, 8, 12, 93, 67, 151, 158, 127, 169, 1, 0.984702
276, 3, wb, filler, NA, 999, 999, 8, 12, 93, 67, 151, 158, 127, 169, 2, 0.544204
276, 3, wb, attraction, a-b-da, 5, 2, 8, 13, 161, 88, 90, 165, 165, 90, 1, 1.1121
276, 3, wb, attraction, a-b-da, 5, 2, 8, 13, 161, 88, 90, 165, 165, 90, 2, 0.666411
276, 3, wb, filler, NA, 999, 999, 8, 14, 182, 69, 64, 161, 129, 78, 3, 3.00541
276, 3, wb, filler, NA, 999, 999, 8, 14, 182, 69, 64, 161, 129, 78, 1, 0.723366
276, 3, wb, filler, NA, 999, 999, 8, 15, 74, 138, 192, 142, 144, 64, 3, 2.4195
276, 3, wb, filler, NA, 999, 999, 8, 15, 74, 138, 192, 142, 144, 64, 2, 0.337518
276, 3, wb, attraction, a-b-db, 2, 1, 8, 16, 59, 134, 60, 135, 135, 60, 3, 1.37783
276, 3, wb, attraction, a-b-db, 2, 1, 8, 16, 59, 134, 60, 135, 135, 60, 2, 0.401423
276, 3, wb, attraction, a-b-db, 14, 2, 8, 17, 165, 90, 90, 165, 83, 153, 3, 1.95919
276, 3, wb, attraction, a-b-db, 14, 2, 8, 17, 165, 90, 90, 165, 83, 153, 2, 0.911275
276, 3, wb, attraction, a-b-da, 14, 3, 8, 18, 120, 195, 195, 120, 181, 111, 3, 1.42425
276, 3, wb, attraction, a-b-da, 14, 3, 8, 18, 120, 195, 195, 120, 181, 111, 1, 0.397932
276, 3, wb, attraction, a-b-da, 14, 1, 8, 19, 125, 56, 60, 135, 135, 60, 3, 0.715606
276, 3, wb, attraction, a-b-da, 14, 1, 8, 19, 125, 56, 60, 135, 135, 60, 2, 0.406025
276, 3, wb, attraction, a-b-db, 14, 3, 8, 20, 111, 181, 120, 195, 195, 120, 1, 1.43581
276, 3, wb, attraction, a-b-db, 14, 3, 8, 20, 111, 181, 120, 195, 195, 120, 2, 0.777341
276, 3, wb, filler, NA, 999, 999, 8, 21, 138, 193, 121, 85, 119, 114, 2, 1.11175
276, 3, wb, filler, NA, 999, 999, 8, 21, 138, 193, 121, 85, 119, 114, 1, 0.506153
276, 3, wb, attraction, a-b-db, 9, 1, 8, 22, 57, 129, 135, 60, 60, 135, 1, 0.987861
276, 3, wb, attraction, a-b-db, 9, 1, 8, 22, 57, 129, 135, 60, 60, 135, 2, 0.458764
276, 3, wb, catch, NA, 999, 999, 8, 23, 129, 66, 177, 138, 110, 145, 1, 0.685864
276, 3, wb, catch, NA, 999, 999, 8, 23, 129, 66, 177, 138, 110, 145, 2, 0.305742
276, 3, wb, catch, NA, 999, 999, 8, 24, 136, 179, 97, 158, 117, 78, 3, 0.755607
276, 3, wb, catch, NA, 999, 999, 8, 24, 136, 179, 97, 158, 117, 78, 1, 0.507902
276, 3, wb, attraction, a-b-da, 2, 1, 8, 25, 60, 135, 135, 60, 134, 59, 3, 0.805151
276, 3, wb, attraction, a-b-da, 2, 1, 8, 25, 60, 135, 135, 60, 134, 59, 2, 0.483618
276, 3, wb, attraction, a-b-da, 9, 1, 8, 26, 129, 57, 60, 135, 135, 60, 3, 0.654011
276, 3, wb, attraction, a-b-da, 9, 1, 8, 26, 129, 57, 60, 135, 135, 60, 2, 0.627041
276, 3, wb, attraction, a-b-db, 2, 3, 8, 27, 119, 193, 195, 120, 120, 195, 3, 2.11956
276, 3, wb, attraction, a-b-db, 2, 3, 8, 27, 119, 193, 195, 120, 120, 195, 1, 0.817455
276, 3, wb, attraction, a-b-da, 5, 1, 8, 28, 60, 135, 135, 60, 132, 58, 1, 2.63042
276, 3, wb, attraction, a-b-da, 5, 1, 8, 28, 60, 135, 135, 60, 132, 58, 3, 0.915671
276, 3, wb, attraction, a-b-da, 5, 3, 8, 29, 195, 120, 190, 117, 120, 195, 3, 3.51671
276, 3, wb, attraction, a-b-da, 5, 3, 8, 29, 195, 120, 190, 117, 120, 195, 1, 0.56624
276, 3, wb, filler, NA, 999, 999, 8, 30, 119, 123, 59, 122, 158, 149, 2, 1.30118
276, 3, wb, filler, NA, 999, 999, 8, 30, 119, 123, 59, 122, 158, 149, 3, 0.472158
276, 3, wb, catch, NA, 999, 999, 8, 31, 118, 137, 172, 143, 69, 126, 3, 1.33115
276, 3, wb, catch, NA, 999, 999, 8, 31, 118, 137, 172, 143, 69, 126, 2, 0.412955
276, 3, wb, attraction, a-b-db, 5, 2, 8, 32, 165, 90, 90, 165, 88, 161, 3, 1.79395
276, 3, wb, attraction, a-b-db, 5, 2, 8, 32, 165, 90, 90, 165, 88, 161, 2, 0.776718
276, 3, wb, attraction, a-b-db, 9, 3, 8, 33, 120, 195, 114, 186, 195, 120, 3, 1.83105
276, 3, wb, attraction, a-b-db, 9, 3, 8, 33, 120, 195, 114, 186, 195, 120, 1, 0.620457
276, 3, wb, filler, NA, 999, 999, 8, 34, 102, 180, 158, 84, 180, 97, 2, 1.58557
276, 3, wb, filler, NA, 999, 999, 8, 34, 102, 180, 158, 84, 180, 97, 1, 0.680948
276, 3, wb, attraction, a-b-db, 5, 3, 8, 35, 195, 120, 117, 190, 120, 195, 1, 1.76348
276, 3, wb, attraction, a-b-db, 5, 3, 8, 35, 195, 120, 117, 190, 120, 195, 2, 0.387524
276, 3, wb, filler, NA, 999, 999, 8, 36, 74, 175, 81, 108, 121, 149, 2, 0.842094
276, 3, wb, filler, NA, 999, 999, 8, 36, 74, 175, 81, 108, 121, 149, 3, 0.518975
276, 3, wb, attraction, a-b-da, 14, 2, 8, 37, 90, 165, 153, 83, 165, 90, 2, 1.47205
276, 3, wb, attraction, a-b-da, 14, 2, 8, 37, 90, 165, 153, 83, 165, 90, 1, 0.5477
