sub_n, computer_n, bw_cond, effect, set, distance, diag, block_n, trial_n, h1, w1, h2, w2, h3, w3, choice, rt 
226, 3, wb, practice, NA, 999, 999, 0, 1, 130, 113, 115, 135, 104, 84, 3, 6.96929
226, 3, wb, practice, NA, 999, 999, 0, 1, 130, 113, 115, 135, 104, 84, 2, 5.51959
226, 3, wb, practice, NA, 999, 999, 0, 2, 115, 75, 95, 142, 173, 180, 1, 3.72635
226, 3, wb, practice, NA, 999, 999, 0, 2, 115, 75, 95, 142, 173, 180, 3, 3.73245
226, 3, wb, practice, NA, 999, 999, 0, 3, 169, 137, 64, 122, 183, 84, 2, 3.83275
226, 3, wb, practice, NA, 999, 999, 0, 3, 169, 137, 64, 122, 183, 84, 1, 5.14949
226, 3, wb, attraction, a-b-db, 9, 3, 1, 1, 195, 120, 114, 186, 120, 195, 2, 8.76417
226, 3, wb, attraction, a-b-db, 9, 3, 1, 1, 195, 120, 114, 186, 120, 195, 3, 9.69002
226, 3, wb, attraction, a-b-da, 9, 2, 1, 2, 157, 86, 165, 90, 90, 165, 1, 3.47334
226, 3, wb, attraction, a-b-da, 9, 2, 1, 2, 157, 86, 165, 90, 90, 165, 3, 2.30838
226, 3, wb, attraction, a-b-db, 14, 3, 1, 3, 195, 120, 120, 195, 111, 181, 3, 5.38883
226, 3, wb, attraction, a-b-db, 14, 3, 1, 3, 195, 120, 120, 195, 111, 181, 2, 2.46658
226, 3, wb, attraction, a-b-db, 5, 2, 1, 4, 90, 165, 88, 161, 165, 90, 3, 3.40489
226, 3, wb, attraction, a-b-db, 5, 2, 1, 4, 90, 165, 88, 161, 165, 90, 1, 1.2992
226, 3, wb, catch, NA, 999, 999, 1, 5, 132, 183, 67, 128, 126, 129, 2, 2.0128
226, 3, wb, catch, NA, 999, 999, 1, 5, 132, 183, 67, 128, 126, 129, 1, 0.682771
226, 3, wb, attraction, a-b-db, 9, 2, 1, 6, 165, 90, 86, 157, 90, 165, 2, 3.46127
226, 3, wb, attraction, a-b-db, 9, 2, 1, 6, 165, 90, 86, 157, 90, 165, 3, 1.64068
226, 3, wb, attraction, a-b-da, 2, 1, 1, 7, 135, 60, 134, 59, 60, 135, 2, 3.53226
226, 3, wb, attraction, a-b-da, 2, 1, 1, 7, 135, 60, 134, 59, 60, 135, 1, 1.07701
226, 3, wb, attraction, a-b-da, 5, 1, 1, 8, 132, 58, 135, 60, 60, 135, 2, 3.47931
226, 3, wb, attraction, a-b-da, 5, 1, 1, 8, 132, 58, 135, 60, 60, 135, 3, 1.10613
226, 3, wb, attraction, a-b-da, 5, 2, 1, 9, 165, 90, 161, 88, 90, 165, 1, 3.25193
226, 3, wb, attraction, a-b-da, 5, 2, 1, 9, 165, 90, 161, 88, 90, 165, 3, 4.21618
226, 3, wb, attraction, a-b-db, 2, 2, 1, 10, 90, 165, 165, 90, 89, 163, 3, 3.24404
226, 3, wb, attraction, a-b-db, 2, 2, 1, 10, 90, 165, 165, 90, 89, 163, 1, 3.10436
226, 3, wb, catch, NA, 999, 999, 1, 11, 112, 143, 150, 165, 65, 130, 3, 4.80934
226, 3, wb, catch, NA, 999, 999, 1, 11, 112, 143, 150, 165, 65, 130, 2, 8.64706
226, 3, wb, filler, NA, 999, 999, 1, 12, 80, 169, 165, 189, 67, 145, 3, 2.31971
226, 3, wb, filler, NA, 999, 999, 1, 12, 80, 169, 165, 189, 67, 145, 2, 1.4577
226, 3, wb, filler, NA, 999, 999, 1, 13, 99, 88, 105, 72, 185, 143, 2, 2.6125
226, 3, wb, filler, NA, 999, 999, 1, 13, 99, 88, 105, 72, 185, 143, 3, 1.49829
226, 3, wb, attraction, a-b-db, 5, 1, 1, 14, 135, 60, 60, 135, 58, 132, 1, 2.83573
226, 3, wb, attraction, a-b-db, 5, 1, 1, 14, 135, 60, 60, 135, 58, 132, 2, 4.25684
226, 3, wb, attraction, a-b-da, 14, 1, 1, 15, 60, 135, 125, 56, 135, 60, 2, 8.59543
226, 3, wb, attraction, a-b-da, 14, 1, 1, 15, 60, 135, 125, 56, 135, 60, 1, 8.84002
226, 3, wb, attraction, a-b-db, 9, 1, 1, 16, 135, 60, 60, 135, 57, 129, 1, 14.7299
226, 3, wb, attraction, a-b-db, 9, 1, 1, 16, 135, 60, 60, 135, 57, 129, 2, 1.87935
226, 3, wb, filler, NA, 999, 999, 1, 17, 188, 64, 70, 170, 88, 89, 3, 4.10537
226, 3, wb, filler, NA, 999, 999, 1, 17, 188, 64, 70, 170, 88, 89, 2, 1.65865
226, 3, wb, filler, NA, 999, 999, 1, 18, 139, 163, 104, 155, 81, 73, 3, 2.82939
226, 3, wb, filler, NA, 999, 999, 1, 18, 139, 163, 104, 155, 81, 73, 1, 2.59454
226, 3, wb, attraction, a-b-da, 5, 3, 1, 19, 120, 195, 195, 120, 190, 117, 3, 2.93565
226, 3, wb, attraction, a-b-da, 5, 3, 1, 19, 120, 195, 195, 120, 190, 117, 1, 3.42504
226, 3, wb, catch, NA, 999, 999, 1, 20, 87, 108, 157, 98, 180, 135, 1, 1.72426
226, 3, wb, catch, NA, 999, 999, 1, 20, 87, 108, 157, 98, 180, 135, 3, 1.31763
226, 3, wb, attraction, a-b-da, 2, 3, 1, 21, 193, 119, 195, 120, 120, 195, 1, 9.06252
226, 3, wb, attraction, a-b-da, 2, 3, 1, 21, 193, 119, 195, 120, 120, 195, 3, 1.92028
226, 3, wb, filler, NA, 999, 999, 1, 22, 58, 152, 172, 188, 103, 93, 3, 3.68108
226, 3, wb, filler, NA, 999, 999, 1, 22, 58, 152, 172, 188, 103, 93, 2, 2.17186
226, 3, wb, attraction, a-b-db, 2, 1, 1, 23, 60, 135, 135, 60, 59, 134, 1, 6.86638
226, 3, wb, attraction, a-b-db, 2, 1, 1, 23, 60, 135, 135, 60, 59, 134, 3, 2.06886
226, 3, wb, filler, NA, 999, 999, 1, 24, 181, 67, 107, 68, 176, 88, 2, 3.5356
226, 3, wb, filler, NA, 999, 999, 1, 24, 181, 67, 107, 68, 176, 88, 3, 2.00848
226, 3, wb, attraction, a-b-db, 14, 1, 1, 25, 56, 125, 135, 60, 60, 135, 2, 2.82906
226, 3, wb, attraction, a-b-db, 14, 1, 1, 25, 56, 125, 135, 60, 60, 135, 3, 1.6662
226, 3, wb, filler, NA, 999, 999, 1, 26, 83, 77, 182, 107, 73, 164, 1, 2.88497
226, 3, wb, filler, NA, 999, 999, 1, 26, 83, 77, 182, 107, 73, 164, 2, 2.5599
226, 3, wb, attraction, a-b-da, 9, 3, 1, 27, 120, 195, 195, 120, 186, 114, 3, 10.6624
226, 3, wb, attraction, a-b-da, 9, 3, 1, 27, 120, 195, 195, 120, 186, 114, 2, 2.08785
226, 3, wb, filler, NA, 999, 999, 1, 28, 155, 76, 80, 98, 180, 123, 2, 2.08968
226, 3, wb, filler, NA, 999, 999, 1, 28, 155, 76, 80, 98, 180, 123, 3, 1.39628
226, 3, wb, attraction, a-b-da, 2, 2, 1, 29, 90, 165, 163, 89, 165, 90, 2, 12.2421
226, 3, wb, attraction, a-b-da, 2, 2, 1, 29, 90, 165, 163, 89, 165, 90, 1, 5.33128
226, 3, wb, attraction, a-b-da, 14, 2, 1, 30, 153, 83, 165, 90, 90, 165, 1, 3.00223
226, 3, wb, attraction, a-b-da, 14, 2, 1, 30, 153, 83, 165, 90, 90, 165, 3, 2.1607
226, 3, wb, filler, NA, 999, 999, 1, 31, 93, 106, 77, 186, 115, 127, 1, 3.40724
226, 3, wb, filler, NA, 999, 999, 1, 31, 93, 106, 77, 186, 115, 127, 3, 2.22078
226, 3, wb, attraction, a-b-da, 14, 3, 1, 32, 195, 120, 181, 111, 120, 195, 2, 2.91331
226, 3, wb, attraction, a-b-da, 14, 3, 1, 32, 195, 120, 181, 111, 120, 195, 3, 1.69114
226, 3, wb, attraction, a-b-db, 2, 3, 1, 33, 119, 193, 195, 120, 120, 195, 2, 7.02063
226, 3, wb, attraction, a-b-db, 2, 3, 1, 33, 119, 193, 195, 120, 120, 195, 3, 1.40925
226, 3, wb, filler, NA, 999, 999, 1, 34, 150, 188, 74, 77, 73, 193, 2, 3.12589
226, 3, wb, filler, NA, 999, 999, 1, 34, 150, 188, 74, 77, 73, 193, 1, 1.35888
226, 3, wb, attraction, a-b-db, 14, 2, 1, 35, 90, 165, 165, 90, 83, 153, 2, 3.38961
226, 3, wb, attraction, a-b-db, 14, 2, 1, 35, 90, 165, 165, 90, 83, 153, 1, 6.2519
226, 3, wb, attraction, a-b-db, 5, 3, 1, 36, 117, 190, 120, 195, 195, 120, 1, 12.446
226, 3, wb, attraction, a-b-db, 5, 3, 1, 36, 117, 190, 120, 195, 195, 120, 2, 1.82332
226, 3, wb, attraction, a-b-da, 9, 1, 1, 37, 129, 57, 60, 135, 135, 60, 1, 4.22015
226, 3, wb, attraction, a-b-da, 9, 1, 1, 37, 129, 57, 60, 135, 135, 60, 2, 1.57731
226, 3, wb, filler, NA, 999, 999, 2, 1, 83, 170, 178, 163, 179, 104, 1, 1.80743
226, 3, wb, filler, NA, 999, 999, 2, 1, 83, 170, 178, 163, 179, 104, 2, 0.885619
226, 3, wb, attraction, a-b-da, 14, 3, 2, 2, 120, 195, 181, 111, 195, 120, 2, 4.51195
226, 3, wb, attraction, a-b-da, 14, 3, 2, 2, 120, 195, 181, 111, 195, 120, 1, 1.80111
226, 3, wb, filler, NA, 999, 999, 2, 3, 83, 177, 126, 155, 193, 167, 1, 5.21442
226, 3, wb, filler, NA, 999, 999, 2, 3, 83, 177, 126, 155, 193, 167, 3, 2.57145
226, 3, wb, attraction, a-b-da, 5, 1, 2, 4, 60, 135, 135, 60, 132, 58, 1, 3.24991
226, 3, wb, attraction, a-b-da, 5, 1, 2, 4, 60, 135, 135, 60, 132, 58, 2, 1.75832
226, 3, wb, filler, NA, 999, 999, 2, 5, 100, 149, 154, 160, 176, 91, 1, 5.42894
226, 3, wb, filler, NA, 999, 999, 2, 5, 100, 149, 154, 160, 176, 91, 2, 1.04137
226, 3, wb, attraction, a-b-da, 9, 3, 2, 6, 120, 195, 195, 120, 186, 114, 3, 12.909
226, 3, wb, attraction, a-b-da, 9, 3, 2, 6, 120, 195, 195, 120, 186, 114, 1, 1.89948
226, 3, wb, attraction, a-b-db, 5, 1, 2, 7, 58, 132, 60, 135, 135, 60, 1, 3.36476
226, 3, wb, attraction, a-b-db, 5, 1, 2, 7, 58, 132, 60, 135, 135, 60, 2, 2.55646
226, 3, wb, attraction, a-b-db, 2, 1, 2, 8, 135, 60, 59, 134, 60, 135, 1, 6.84346
226, 3, wb, attraction, a-b-db, 2, 1, 2, 8, 135, 60, 59, 134, 60, 135, 3, 2.15866
226, 3, wb, attraction, a-b-db, 14, 1, 2, 9, 60, 135, 135, 60, 56, 125, 2, 30.1975
226, 3, wb, attraction, a-b-db, 14, 1, 2, 9, 60, 135, 135, 60, 56, 125, 1, 1.65126
226, 3, wb, catch, NA, 999, 999, 2, 10, 140, 175, 97, 158, 98, 97, 3, 1.39091
226, 3, wb, catch, NA, 999, 999, 2, 10, 140, 175, 97, 158, 98, 97, 1, 1.22155
226, 3, wb, attraction, a-b-da, 5, 3, 2, 11, 120, 195, 195, 120, 190, 117, 3, 4.28242
226, 3, wb, attraction, a-b-da, 5, 3, 2, 11, 120, 195, 195, 120, 190, 117, 1, 1.87713
226, 3, wb, filler, NA, 999, 999, 2, 12, 147, 119, 130, 80, 57, 68, 3, 0.735
226, 3, wb, filler, NA, 999, 999, 2, 12, 147, 119, 130, 80, 57, 68, 1, 0.896729
226, 3, wb, attraction, a-b-da, 14, 1, 2, 13, 125, 56, 135, 60, 60, 135, 1, 1.31444
226, 3, wb, attraction, a-b-da, 14, 1, 2, 13, 125, 56, 135, 60, 60, 135, 3, 2.09275
226, 3, wb, attraction, a-b-db, 14, 2, 2, 14, 90, 165, 83, 153, 165, 90, 2, 2.45389
226, 3, wb, attraction, a-b-db, 14, 2, 2, 14, 90, 165, 83, 153, 165, 90, 1, 2.17851
226, 3, wb, attraction, a-b-da, 2, 2, 2, 15, 163, 89, 90, 165, 165, 90, 3, 3.00041
226, 3, wb, attraction, a-b-da, 2, 2, 2, 15, 163, 89, 90, 165, 165, 90, 2, 1.86283
226, 3, wb, attraction, a-b-da, 9, 2, 2, 16, 157, 86, 165, 90, 90, 165, 1, 28.3775
226, 3, wb, attraction, a-b-da, 9, 2, 2, 16, 157, 86, 165, 90, 90, 165, 2, 2.03334
226, 3, wb, attraction, a-b-da, 2, 1, 2, 17, 134, 59, 60, 135, 135, 60, 1, 2.81319
226, 3, wb, attraction, a-b-da, 2, 1, 2, 17, 134, 59, 60, 135, 135, 60, 2, 1.44302
226, 3, wb, attraction, a-b-db, 9, 3, 2, 18, 114, 186, 120, 195, 195, 120, 1, 5.58252
226, 3, wb, attraction, a-b-db, 9, 3, 2, 18, 114, 186, 120, 195, 195, 120, 2, 2.33268
226, 3, wb, filler, NA, 999, 999, 2, 19, 173, 179, 88, 103, 95, 135, 2, 0.676519
226, 3, wb, filler, NA, 999, 999, 2, 19, 173, 179, 88, 103, 95, 135, 1, 0.952332
226, 3, wb, attraction, a-b-db, 9, 2, 2, 20, 86, 157, 165, 90, 90, 165, 1, 1.66416
226, 3, wb, attraction, a-b-db, 9, 2, 2, 20, 86, 157, 165, 90, 90, 165, 2, 1.07605
226, 3, wb, attraction, a-b-db, 5, 2, 2, 21, 90, 165, 165, 90, 88, 161, 1, 4.04649
226, 3, wb, attraction, a-b-db, 5, 2, 2, 21, 90, 165, 165, 90, 88, 161, 2, 0.722424
226, 3, wb, filler, NA, 999, 999, 2, 22, 70, 106, 191, 131, 91, 167, 1, 0.891404
226, 3, wb, filler, NA, 999, 999, 2, 22, 70, 106, 191, 131, 91, 167, 2, 0.454636
226, 3, wb, attraction, a-b-db, 9, 1, 2, 23, 60, 135, 135, 60, 57, 129, 3, 2.77828
226, 3, wb, attraction, a-b-db, 9, 1, 2, 23, 60, 135, 135, 60, 57, 129, 1, 1.00131
226, 3, wb, catch, NA, 999, 999, 2, 24, 124, 191, 101, 94, 135, 120, 2, 1.72699
226, 3, wb, catch, NA, 999, 999, 2, 24, 124, 191, 101, 94, 135, 120, 1, 0.464437
226, 3, wb, attraction, a-b-da, 5, 2, 2, 25, 165, 90, 90, 165, 161, 88, 1, 7.47556
226, 3, wb, attraction, a-b-da, 5, 2, 2, 25, 165, 90, 90, 165, 161, 88, 2, 1.07721
226, 3, wb, filler, NA, 999, 999, 2, 26, 88, 167, 127, 102, 108, 121, 2, 1.64754
226, 3, wb, filler, NA, 999, 999, 2, 26, 88, 167, 127, 102, 108, 121, 1, 1.30839
226, 3, wb, attraction, a-b-db, 14, 3, 2, 27, 195, 120, 111, 181, 120, 195, 2, 4.79721
226, 3, wb, attraction, a-b-db, 14, 3, 2, 27, 195, 120, 111, 181, 120, 195, 1, 1.355
226, 3, wb, attraction, a-b-db, 2, 2, 2, 28, 165, 90, 89, 163, 90, 165, 2, 3.6345
226, 3, wb, attraction, a-b-db, 2, 2, 2, 28, 165, 90, 89, 163, 90, 165, 1, 1.30336
226, 3, wb, attraction, a-b-da, 9, 1, 2, 29, 60, 135, 129, 57, 135, 60, 2, 2.08884
226, 3, wb, attraction, a-b-da, 9, 1, 2, 29, 60, 135, 129, 57, 135, 60, 1, 1.91554
226, 3, wb, attraction, a-b-da, 2, 3, 2, 30, 120, 195, 195, 120, 193, 119, 2, 1.76419
226, 3, wb, attraction, a-b-da, 2, 3, 2, 30, 120, 195, 195, 120, 193, 119, 1, 0.708327
226, 3, wb, attraction, a-b-db, 5, 3, 2, 31, 117, 190, 195, 120, 120, 195, 1, 4.50937
226, 3, wb, attraction, a-b-db, 5, 3, 2, 31, 117, 190, 195, 120, 120, 195, 2, 0.854587
226, 3, wb, catch, NA, 999, 999, 2, 32, 128, 187, 131, 64, 93, 162, 2, 1.7463
226, 3, wb, catch, NA, 999, 999, 2, 32, 128, 187, 131, 64, 93, 162, 1, 0.435046
226, 3, wb, filler, NA, 999, 999, 2, 33, 99, 153, 129, 184, 153, 134, 1, 1.91152
226, 3, wb, filler, NA, 999, 999, 2, 33, 99, 153, 129, 184, 153, 134, 2, 0.385471
226, 3, wb, attraction, a-b-da, 14, 2, 2, 34, 165, 90, 153, 83, 90, 165, 2, 4.832
226, 3, wb, attraction, a-b-da, 14, 2, 2, 34, 165, 90, 153, 83, 90, 165, 3, 0.516423
226, 3, wb, attraction, a-b-db, 2, 3, 2, 35, 195, 120, 119, 193, 120, 195, 1, 3.74953
226, 3, wb, attraction, a-b-db, 2, 3, 2, 35, 195, 120, 119, 193, 120, 195, 2, 1.17378
226, 3, wb, filler, NA, 999, 999, 2, 36, 130, 61, 176, 137, 112, 145, 1, 0.875968
226, 3, wb, filler, NA, 999, 999, 2, 36, 130, 61, 176, 137, 112, 145, 2, 2.02375
226, 3, wb, filler, NA, 999, 999, 2, 37, 194, 168, 133, 80, 190, 94, 2, 0.932234
226, 3, wb, filler, NA, 999, 999, 2, 37, 194, 168, 133, 80, 190, 94, 1, 0.990176
226, 3, wb, attraction, a-b-db, 2, 3, 3, 1, 119, 193, 120, 195, 195, 120, 1, 3.52361
226, 3, wb, attraction, a-b-db, 2, 3, 3, 1, 119, 193, 120, 195, 195, 120, 2, 0.876473
226, 3, wb, catch, NA, 999, 999, 3, 2, 157, 158, 154, 101, 78, 117, 3, 0.918728
226, 3, wb, catch, NA, 999, 999, 3, 2, 157, 158, 154, 101, 78, 117, 1, 0.729192
226, 3, wb, attraction, a-b-da, 5, 2, 3, 3, 165, 90, 90, 165, 161, 88, 1, 1.76151
226, 3, wb, attraction, a-b-da, 5, 2, 3, 3, 165, 90, 90, 165, 161, 88, 2, 0.689713
226, 3, wb, attraction, a-b-db, 5, 3, 3, 4, 195, 120, 117, 190, 120, 195, 2, 3.34809
226, 3, wb, attraction, a-b-db, 5, 3, 3, 4, 195, 120, 117, 190, 120, 195, 1, 1.24429
226, 3, wb, attraction, a-b-da, 2, 3, 3, 5, 193, 119, 195, 120, 120, 195, 2, 1.0079
226, 3, wb, attraction, a-b-da, 2, 3, 3, 5, 193, 119, 195, 120, 120, 195, 1, 1.1982
226, 3, wb, attraction, a-b-db, 9, 1, 3, 6, 57, 129, 135, 60, 60, 135, 2, 3.28375
226, 3, wb, attraction, a-b-db, 9, 1, 3, 6, 57, 129, 135, 60, 60, 135, 3, 0.87076
226, 3, wb, attraction, a-b-da, 2, 2, 3, 7, 165, 90, 163, 89, 90, 165, 2, 1.17782
226, 3, wb, attraction, a-b-da, 2, 2, 3, 7, 165, 90, 163, 89, 90, 165, 1, 0.945361
226, 3, wb, catch, NA, 999, 999, 3, 8, 131, 64, 155, 100, 122, 193, 1, 2.88891
226, 3, wb, catch, NA, 999, 999, 3, 8, 131, 64, 155, 100, 122, 193, 3, 0.77138
226, 3, wb, filler, NA, 999, 999, 3, 9, 110, 146, 192, 181, 79, 71, 3, 0.938377
226, 3, wb, filler, NA, 999, 999, 3, 9, 110, 146, 192, 181, 79, 71, 2, 1.13957
226, 3, wb, attraction, a-b-db, 14, 2, 3, 10, 165, 90, 83, 153, 90, 165, 2, 5.15572
226, 3, wb, attraction, a-b-db, 14, 2, 3, 10, 165, 90, 83, 153, 90, 165, 1, 0.483364
226, 3, wb, attraction, a-b-db, 14, 1, 3, 11, 60, 135, 56, 125, 135, 60, 2, 0.869799
226, 3, wb, attraction, a-b-db, 14, 1, 3, 11, 60, 135, 56, 125, 135, 60, 3, 1.36222
226, 3, wb, filler, NA, 999, 999, 3, 12, 72, 126, 65, 123, 83, 77, 2, 2.56121
226, 3, wb, filler, NA, 999, 999, 3, 12, 72, 126, 65, 123, 83, 77, 3, 1.22503
226, 3, wb, attraction, a-b-db, 9, 3, 3, 13, 114, 186, 120, 195, 195, 120, 2, 3.1491
226, 3, wb, attraction, a-b-db, 9, 3, 3, 13, 114, 186, 120, 195, 195, 120, 3, 1.86947
226, 3, wb, attraction, a-b-da, 14, 1, 3, 14, 60, 135, 135, 60, 125, 56, 2, 1.57612
226, 3, wb, attraction, a-b-da, 14, 1, 3, 14, 60, 135, 135, 60, 125, 56, 1, 0.48767
226, 3, wb, attraction, a-b-da, 14, 3, 3, 15, 120, 195, 181, 111, 195, 120, 2, 7.0661
226, 3, wb, attraction, a-b-da, 14, 3, 3, 15, 120, 195, 181, 111, 195, 120, 1, 0.692509
226, 3, wb, attraction, a-b-db, 5, 1, 3, 16, 60, 135, 135, 60, 58, 132, 2, 1.39812
226, 3, wb, attraction, a-b-db, 5, 1, 3, 16, 60, 135, 135, 60, 58, 132, 3, 7.28506
226, 3, wb, attraction, a-b-da, 14, 2, 3, 17, 90, 165, 165, 90, 153, 83, 3, 2.03734
226, 3, wb, attraction, a-b-da, 14, 2, 3, 17, 90, 165, 165, 90, 153, 83, 1, 0.962701
226, 3, wb, attraction, a-b-da, 5, 3, 3, 18, 120, 195, 195, 120, 190, 117, 2, 1.30569
226, 3, wb, attraction, a-b-da, 5, 3, 3, 18, 120, 195, 195, 120, 190, 117, 1, 0.427889
226, 3, wb, attraction, a-b-db, 2, 1, 3, 19, 135, 60, 60, 135, 59, 134, 3, 3.0245
226, 3, wb, attraction, a-b-db, 2, 1, 3, 19, 135, 60, 60, 135, 59, 134, 2, 0.63747
226, 3, wb, attraction, a-b-da, 9, 3, 3, 20, 195, 120, 120, 195, 186, 114, 1, 11.7938
226, 3, wb, attraction, a-b-da, 9, 3, 3, 20, 195, 120, 120, 195, 186, 114, 2, 0.461459
226, 3, wb, filler, NA, 999, 999, 3, 21, 119, 99, 106, 145, 113, 146, 1, 0.936519
226, 3, wb, filler, NA, 999, 999, 3, 21, 119, 99, 106, 145, 113, 146, 2, 0.538299
226, 3, wb, filler, NA, 999, 999, 3, 22, 148, 183, 101, 169, 121, 77, 3, 0.850737
226, 3, wb, filler, NA, 999, 999, 3, 22, 148, 183, 101, 169, 121, 77, 2, 1.84779
226, 3, wb, filler, NA, 999, 999, 3, 23, 131, 164, 145, 177, 65, 159, 3, 0.875215
226, 3, wb, filler, NA, 999, 999, 3, 23, 131, 164, 145, 177, 65, 159, 2, 0.654849
226, 3, wb, filler, NA, 999, 999, 3, 24, 101, 75, 136, 74, 154, 105, 1, 0.874597
226, 3, wb, filler, NA, 999, 999, 3, 24, 101, 75, 136, 74, 154, 105, 3, 0.974266
226, 3, wb, attraction, a-b-db, 14, 3, 3, 25, 120, 195, 111, 181, 195, 120, 2, 2.34851
226, 3, wb, attraction, a-b-db, 14, 3, 3, 25, 120, 195, 111, 181, 195, 120, 3, 0.54132
226, 3, wb, attraction, a-b-da, 2, 1, 3, 26, 135, 60, 60, 135, 134, 59, 3, 3.56499
226, 3, wb, attraction, a-b-da, 2, 1, 3, 26, 135, 60, 60, 135, 134, 59, 2, 0.588348
226, 3, wb, attraction, a-b-da, 9, 2, 3, 27, 157, 86, 90, 165, 165, 90, 2, 7.08289
226, 3, wb, attraction, a-b-da, 9, 2, 3, 27, 157, 86, 90, 165, 165, 90, 3, 0.716687
226, 3, wb, attraction, a-b-da, 9, 1, 3, 28, 60, 135, 129, 57, 135, 60, 2, 2.3576
226, 3, wb, attraction, a-b-da, 9, 1, 3, 28, 60, 135, 129, 57, 135, 60, 1, 0.517492
226, 3, wb, attraction, a-b-db, 9, 2, 3, 29, 86, 157, 90, 165, 165, 90, 2, 2.37459
226, 3, wb, attraction, a-b-db, 9, 2, 3, 29, 86, 157, 90, 165, 165, 90, 3, 0.486058
226, 3, wb, filler, NA, 999, 999, 3, 30, 183, 121, 120, 157, 61, 144, 3, 0.944378
226, 3, wb, filler, NA, 999, 999, 3, 30, 183, 121, 120, 157, 61, 144, 1, 0.825361
226, 3, wb, attraction, a-b-da, 5, 1, 3, 31, 132, 58, 135, 60, 60, 135, 1, 1.01376
226, 3, wb, attraction, a-b-da, 5, 1, 3, 31, 132, 58, 135, 60, 60, 135, 3, 1.204
226, 3, wb, filler, NA, 999, 999, 3, 32, 130, 72, 169, 177, 68, 93, 3, 1.01768
226, 3, wb, filler, NA, 999, 999, 3, 32, 130, 72, 169, 177, 68, 93, 2, 0.632036
226, 3, wb, catch, NA, 999, 999, 3, 33, 140, 115, 70, 125, 191, 124, 2, 0.884324
226, 3, wb, catch, NA, 999, 999, 3, 33, 140, 115, 70, 125, 191, 124, 3, 0.992181
226, 3, wb, attraction, a-b-db, 5, 2, 3, 34, 90, 165, 88, 161, 165, 90, 2, 3.59763
226, 3, wb, attraction, a-b-db, 5, 2, 3, 34, 90, 165, 88, 161, 165, 90, 3, 0.667877
226, 3, wb, attraction, a-b-db, 2, 2, 3, 35, 89, 163, 90, 165, 165, 90, 2, 1.27086
226, 3, wb, attraction, a-b-db, 2, 2, 3, 35, 89, 163, 90, 165, 165, 90, 1, 0.435227
226, 3, wb, filler, NA, 999, 999, 3, 36, 128, 101, 94, 177, 90, 63, 3, 0.847752
226, 3, wb, filler, NA, 999, 999, 3, 36, 128, 101, 94, 177, 90, 63, 2, 0.532655
226, 3, wb, filler, NA, 999, 999, 3, 37, 102, 93, 89, 77, 128, 100, 2, 23.7492
226, 3, wb, filler, NA, 999, 999, 3, 37, 102, 93, 89, 77, 128, 100, 3, 0.823055
226, 3, wb, filler, NA, 999, 999, 4, 1, 189, 112, 142, 188, 190, 124, 2, 4.34019
226, 3, wb, filler, NA, 999, 999, 4, 1, 189, 112, 142, 188, 190, 124, 3, 2.24406
226, 3, wb, filler, NA, 999, 999, 4, 2, 88, 140, 108, 78, 190, 123, 2, 0.99926
226, 3, wb, filler, NA, 999, 999, 4, 2, 88, 140, 108, 78, 190, 123, 3, 1.15021
226, 3, wb, filler, NA, 999, 999, 4, 3, 125, 185, 136, 168, 71, 94, 3, 0.965786
226, 3, wb, filler, NA, 999, 999, 4, 3, 125, 185, 136, 168, 71, 94, 2, 0.878093
226, 3, wb, filler, NA, 999, 999, 4, 4, 71, 188, 77, 78, 103, 75, 2, 1.40042
226, 3, wb, filler, NA, 999, 999, 4, 4, 71, 188, 77, 78, 103, 75, 1, 0.479326
226, 3, wb, catch, NA, 999, 999, 4, 5, 184, 131, 155, 100, 68, 127, 3, 1.55383
226, 3, wb, catch, NA, 999, 999, 4, 5, 184, 131, 155, 100, 68, 127, 1, 0.538621
226, 3, wb, attraction, a-b-da, 2, 1, 4, 6, 135, 60, 60, 135, 134, 59, 1, 1.08297
226, 3, wb, attraction, a-b-da, 2, 1, 4, 6, 135, 60, 60, 135, 134, 59, 2, 0.470764
226, 3, wb, filler, NA, 999, 999, 4, 7, 82, 91, 170, 110, 75, 156, 1, 0.873843
226, 3, wb, filler, NA, 999, 999, 4, 7, 82, 91, 170, 110, 75, 156, 2, 4.60554
226, 3, wb, attraction, a-b-db, 14, 2, 4, 8, 90, 165, 83, 153, 165, 90, 2, 2.42603
226, 3, wb, attraction, a-b-db, 14, 2, 4, 8, 90, 165, 83, 153, 165, 90, 1, 2.28722
226, 3, wb, attraction, a-b-db, 2, 3, 4, 9, 120, 195, 119, 193, 195, 120, 1, 2.11311
226, 3, wb, attraction, a-b-db, 2, 3, 4, 9, 120, 195, 119, 193, 195, 120, 2, 0.755164
226, 3, wb, catch, NA, 999, 999, 4, 10, 112, 143, 153, 162, 121, 74, 3, 0.995
226, 3, wb, catch, NA, 999, 999, 4, 10, 112, 143, 153, 162, 121, 74, 2, 0.601815
226, 3, wb, attraction, a-b-da, 9, 3, 4, 11, 195, 120, 120, 195, 186, 114, 1, 27.7118
226, 3, wb, attraction, a-b-da, 9, 3, 4, 11, 195, 120, 120, 195, 186, 114, 2, 0.54632
226, 3, wb, filler, NA, 999, 999, 4, 12, 158, 181, 105, 125, 87, 172, 2, 1.34601
226, 3, wb, filler, NA, 999, 999, 4, 12, 158, 181, 105, 125, 87, 172, 1, 0.403012
226, 3, wb, attraction, a-b-da, 14, 2, 4, 13, 153, 83, 165, 90, 90, 165, 1, 1.45687
226, 3, wb, attraction, a-b-da, 14, 2, 4, 13, 153, 83, 165, 90, 90, 165, 2, 1.09289
226, 3, wb, attraction, a-b-db, 9, 1, 4, 14, 57, 129, 135, 60, 60, 135, 2, 6.99862
226, 3, wb, attraction, a-b-db, 9, 1, 4, 14, 57, 129, 135, 60, 60, 135, 3, 2.20364
226, 3, wb, attraction, a-b-da, 5, 1, 4, 15, 60, 135, 132, 58, 135, 60, 2, 6.25692
226, 3, wb, attraction, a-b-da, 5, 1, 4, 15, 60, 135, 132, 58, 135, 60, 3, 3.24352
226, 3, wb, attraction, a-b-da, 9, 1, 4, 16, 135, 60, 60, 135, 129, 57, 3, 1.75052
226, 3, wb, attraction, a-b-da, 9, 1, 4, 16, 135, 60, 60, 135, 129, 57, 2, 0.66324
226, 3, wb, catch, NA, 999, 999, 4, 17, 93, 102, 98, 157, 163, 152, 1, 1.05835
226, 3, wb, catch, NA, 999, 999, 4, 17, 93, 102, 98, 157, 163, 152, 3, 1.07079
226, 3, wb, attraction, a-b-db, 5, 2, 4, 18, 165, 90, 88, 161, 90, 165, 1, 3.2256
226, 3, wb, attraction, a-b-db, 5, 2, 4, 18, 165, 90, 88, 161, 90, 165, 3, 0.846678
226, 3, wb, attraction, a-b-da, 9, 2, 4, 19, 165, 90, 90, 165, 157, 86, 1, 1.49018
226, 3, wb, attraction, a-b-da, 9, 2, 4, 19, 165, 90, 90, 165, 157, 86, 2, 0.613102
226, 3, wb, attraction, a-b-db, 5, 1, 4, 20, 60, 135, 58, 132, 135, 60, 2, 0.88208
226, 3, wb, attraction, a-b-db, 5, 1, 4, 20, 60, 135, 58, 132, 135, 60, 1, 0.797962
226, 3, wb, filler, NA, 999, 999, 4, 21, 138, 104, 87, 183, 75, 102, 2, 0.763502
226, 3, wb, filler, NA, 999, 999, 4, 21, 138, 104, 87, 183, 75, 102, 3, 1.41998
226, 3, wb, attraction, a-b-db, 9, 3, 4, 22, 114, 186, 120, 195, 195, 120, 1, 2.20873
226, 3, wb, attraction, a-b-db, 9, 3, 4, 22, 114, 186, 120, 195, 195, 120, 2, 0.958673
226, 3, wb, filler, NA, 999, 999, 4, 23, 151, 81, 151, 89, 99, 132, 3, 1.04577
226, 3, wb, filler, NA, 999, 999, 4, 23, 151, 81, 151, 89, 99, 132, 2, 1.45872
226, 3, wb, attraction, a-b-db, 14, 1, 4, 24, 135, 60, 60, 135, 56, 125, 1, 1.30157
226, 3, wb, attraction, a-b-db, 14, 1, 4, 24, 135, 60, 60, 135, 56, 125, 2, 0.560305
226, 3, wb, attraction, a-b-db, 9, 2, 4, 25, 90, 165, 86, 157, 165, 90, 2, 3.37545
226, 3, wb, attraction, a-b-db, 9, 2, 4, 25, 90, 165, 86, 157, 165, 90, 1, 1.25436
226, 3, wb, attraction, a-b-da, 14, 1, 4, 26, 125, 56, 60, 135, 135, 60, 1, 2.20193
226, 3, wb, attraction, a-b-da, 14, 1, 4, 26, 125, 56, 60, 135, 135, 60, 2, 0.600522
226, 3, wb, filler, NA, 999, 999, 4, 27, 161, 115, 134, 62, 135, 123, 2, 2.88636
226, 3, wb, filler, NA, 999, 999, 4, 27, 161, 115, 134, 62, 135, 123, 1, 1.31337
226, 3, wb, filler, NA, 999, 999, 4, 28, 129, 99, 103, 92, 161, 140, 2, 1.19417
226, 3, wb, filler, NA, 999, 999, 4, 28, 129, 99, 103, 92, 161, 140, 3, 0.369292
226, 3, wb, attraction, a-b-da, 5, 2, 4, 29, 90, 165, 161, 88, 165, 90, 2, 4.64032
226, 3, wb, attraction, a-b-da, 5, 2, 4, 29, 90, 165, 161, 88, 165, 90, 1, 0.644199
226, 3, wb, attraction, a-b-db, 5, 3, 4, 30, 117, 190, 195, 120, 120, 195, 1, 6.38399
226, 3, wb, attraction, a-b-db, 5, 3, 4, 30, 117, 190, 195, 120, 120, 195, 2, 1.35802
226, 3, wb, attraction, a-b-db, 2, 2, 4, 31, 89, 163, 165, 90, 90, 165, 2, 10.8367
226, 3, wb, attraction, a-b-db, 2, 2, 4, 31, 89, 163, 165, 90, 90, 165, 1, 0.42384
226, 3, wb, attraction, a-b-db, 14, 3, 4, 32, 195, 120, 120, 195, 111, 181, 3, 0.995841
226, 3, wb, attraction, a-b-db, 14, 3, 4, 32, 195, 120, 120, 195, 111, 181, 2, 2.02684
226, 3, wb, attraction, a-b-db, 2, 1, 4, 33, 60, 135, 59, 134, 135, 60, 1, 5.74284
226, 3, wb, attraction, a-b-db, 2, 1, 4, 33, 60, 135, 59, 134, 135, 60, 2, 0.454307
226, 3, wb, attraction, a-b-da, 2, 3, 4, 34, 120, 195, 193, 119, 195, 120, 1, 8.39425
226, 3, wb, attraction, a-b-da, 2, 3, 4, 34, 120, 195, 193, 119, 195, 120, 2, 0.518963
226, 3, wb, attraction, a-b-da, 14, 3, 4, 35, 195, 120, 181, 111, 120, 195, 2, 2.18388
226, 3, wb, attraction, a-b-da, 14, 3, 4, 35, 195, 120, 181, 111, 120, 195, 3, 0.463351
226, 3, wb, attraction, a-b-da, 5, 3, 4, 36, 120, 195, 195, 120, 190, 117, 2, 4.83429
226, 3, wb, attraction, a-b-da, 5, 3, 4, 36, 120, 195, 195, 120, 190, 117, 1, 0.510706
226, 3, wb, attraction, a-b-da, 2, 2, 4, 37, 163, 89, 90, 165, 165, 90, 2, 11.6159
226, 3, wb, attraction, a-b-da, 2, 2, 4, 37, 163, 89, 90, 165, 165, 90, 1, 1.01891
226, 3, wb, attraction, a-b-da, 14, 3, 5, 1, 195, 120, 120, 195, 181, 111, 2, 41.2946
226, 3, wb, attraction, a-b-da, 14, 3, 5, 1, 195, 120, 120, 195, 181, 111, 1, 0.557555
226, 3, wb, filler, NA, 999, 999, 5, 2, 106, 186, 193, 163, 140, 69, 3, 0.804642
226, 3, wb, filler, NA, 999, 999, 5, 2, 106, 186, 193, 163, 140, 69, 2, 0.410988
226, 3, wb, attraction, a-b-da, 14, 1, 5, 3, 60, 135, 125, 56, 135, 60, 2, 1.21619
226, 3, wb, attraction, a-b-da, 14, 1, 5, 3, 60, 135, 125, 56, 135, 60, 1, 0.526531
226, 3, wb, attraction, a-b-da, 14, 2, 5, 4, 90, 165, 153, 83, 165, 90, 2, 0.75093
226, 3, wb, attraction, a-b-da, 14, 2, 5, 4, 90, 165, 153, 83, 165, 90, 3, 0.671975
226, 3, wb, attraction, a-b-db, 9, 3, 5, 5, 120, 195, 195, 120, 114, 186, 2, 0.803095
226, 3, wb, attraction, a-b-db, 9, 3, 5, 5, 120, 195, 195, 120, 114, 186, 1, 0.306157
226, 3, wb, filler, NA, 999, 999, 5, 6, 130, 125, 128, 68, 193, 68, 2, 0.723959
226, 3, wb, filler, NA, 999, 999, 5, 6, 130, 125, 128, 68, 193, 68, 1, 0.43781
226, 3, wb, attraction, a-b-da, 5, 1, 5, 7, 132, 58, 135, 60, 60, 135, 1, 1.10619
226, 3, wb, attraction, a-b-da, 5, 1, 5, 7, 132, 58, 135, 60, 60, 135, 2, 0.372463
226, 3, wb, filler, NA, 999, 999, 5, 8, 109, 71, 105, 179, 104, 130, 1, 0.787623
226, 3, wb, filler, NA, 999, 999, 5, 8, 109, 71, 105, 179, 104, 130, 2, 0.475337
226, 3, wb, attraction, a-b-db, 5, 1, 5, 9, 60, 135, 135, 60, 58, 132, 1, 1.2859
226, 3, wb, attraction, a-b-db, 5, 1, 5, 9, 60, 135, 135, 60, 58, 132, 2, 0.55344
226, 3, wb, filler, NA, 999, 999, 5, 10, 160, 150, 62, 108, 160, 94, 2, 0.705146
226, 3, wb, filler, NA, 999, 999, 5, 10, 160, 150, 62, 108, 160, 94, 1, 0.675555
226, 3, wb, filler, NA, 999, 999, 5, 11, 110, 65, 104, 125, 67, 78, 3, 1.29392
226, 3, wb, filler, NA, 999, 999, 5, 11, 110, 65, 104, 125, 67, 78, 2, 0.480928
226, 3, wb, attraction, a-b-db, 9, 2, 5, 12, 165, 90, 86, 157, 90, 165, 2, 0.875336
226, 3, wb, attraction, a-b-db, 9, 2, 5, 12, 165, 90, 86, 157, 90, 165, 1, 0.687013
226, 3, wb, attraction, a-b-da, 2, 2, 5, 13, 165, 90, 163, 89, 90, 165, 2, 1.24149
226, 3, wb, attraction, a-b-da, 2, 2, 5, 13, 165, 90, 163, 89, 90, 165, 1, 0.63833
226, 3, wb, attraction, a-b-db, 14, 1, 5, 14, 60, 135, 135, 60, 56, 125, 2, 0.954862
226, 3, wb, attraction, a-b-db, 14, 1, 5, 14, 60, 135, 135, 60, 56, 125, 1, 0.467739
226, 3, wb, attraction, a-b-da, 9, 3, 5, 15, 186, 114, 120, 195, 195, 120, 2, 0.83905
226, 3, wb, attraction, a-b-da, 9, 3, 5, 15, 186, 114, 120, 195, 195, 120, 3, 0.460069
226, 3, wb, catch, NA, 999, 999, 5, 16, 117, 138, 179, 136, 126, 69, 3, 0.911159
226, 3, wb, catch, NA, 999, 999, 5, 16, 117, 138, 179, 136, 126, 69, 2, 0.441432
226, 3, wb, filler, NA, 999, 999, 5, 17, 155, 68, 92, 70, 175, 143, 2, 0.781179
226, 3, wb, filler, NA, 999, 999, 5, 17, 155, 68, 92, 70, 175, 143, 3, 0.365107
226, 3, wb, attraction, a-b-db, 14, 3, 5, 18, 195, 120, 120, 195, 111, 181, 1, 1.58808
226, 3, wb, attraction, a-b-db, 14, 3, 5, 18, 195, 120, 120, 195, 111, 181, 2, 0.435628
226, 3, wb, attraction, a-b-da, 9, 2, 5, 19, 157, 86, 165, 90, 90, 165, 2, 0.744049
226, 3, wb, attraction, a-b-da, 9, 2, 5, 19, 157, 86, 165, 90, 90, 165, 1, 0.697238
226, 3, wb, filler, NA, 999, 999, 5, 20, 178, 123, 100, 125, 148, 111, 2, 1.31487
226, 3, wb, filler, NA, 999, 999, 5, 20, 178, 123, 100, 125, 148, 111, 1, 0.405051
226, 3, wb, filler, NA, 999, 999, 5, 21, 75, 143, 110, 186, 71, 133, 3, 2.07491
226, 3, wb, filler, NA, 999, 999, 5, 21, 75, 143, 110, 186, 71, 133, 2, 0.430239
226, 3, wb, catch, NA, 999, 999, 5, 22, 99, 96, 158, 97, 190, 125, 1, 19.8106
226, 3, wb, catch, NA, 999, 999, 5, 22, 99, 96, 158, 97, 190, 125, 2, 0.531899
226, 3, wb, attraction, a-b-db, 5, 3, 5, 23, 120, 195, 195, 120, 117, 190, 2, 1.66831
226, 3, wb, attraction, a-b-db, 5, 3, 5, 23, 120, 195, 195, 120, 117, 190, 1, 0.392395
226, 3, wb, filler, NA, 999, 999, 5, 24, 100, 96, 70, 184, 96, 128, 1, 0.750191
226, 3, wb, filler, NA, 999, 999, 5, 24, 100, 96, 70, 184, 96, 128, 2, 0.599408
226, 3, wb, attraction, a-b-db, 2, 2, 5, 25, 89, 163, 165, 90, 90, 165, 2, 0.861129
226, 3, wb, attraction, a-b-db, 2, 2, 5, 25, 89, 163, 165, 90, 90, 165, 1, 0.33749
226, 3, wb, attraction, a-b-db, 5, 2, 5, 26, 88, 161, 165, 90, 90, 165, 2, 0.681923
226, 3, wb, attraction, a-b-db, 5, 2, 5, 26, 88, 161, 165, 90, 90, 165, 1, 0.333703
226, 3, wb, attraction, a-b-da, 5, 3, 5, 27, 120, 195, 195, 120, 190, 117, 2, 0.654141
226, 3, wb, attraction, a-b-da, 5, 3, 5, 27, 120, 195, 195, 120, 190, 117, 3, 0.61135
226, 3, wb, attraction, a-b-db, 2, 3, 5, 28, 195, 120, 119, 193, 120, 195, 2, 0.72848
226, 3, wb, attraction, a-b-db, 2, 3, 5, 28, 195, 120, 119, 193, 120, 195, 1, 0.330127
226, 3, wb, catch, NA, 999, 999, 5, 29, 77, 118, 132, 183, 92, 163, 1, 0.706662
226, 3, wb, catch, NA, 999, 999, 5, 29, 77, 118, 132, 183, 92, 163, 2, 0.461023
226, 3, wb, attraction, a-b-db, 9, 1, 5, 30, 60, 135, 135, 60, 57, 129, 2, 0.717692
226, 3, wb, attraction, a-b-db, 9, 1, 5, 30, 60, 135, 135, 60, 57, 129, 1, 0.394568
226, 3, wb, attraction, a-b-da, 2, 3, 5, 31, 195, 120, 193, 119, 120, 195, 2, 0.656445
226, 3, wb, attraction, a-b-da, 2, 3, 5, 31, 195, 120, 193, 119, 120, 195, 1, 0.46889
226, 3, wb, filler, NA, 999, 999, 5, 32, 59, 81, 86, 104, 166, 166, 1, 0.719895
226, 3, wb, filler, NA, 999, 999, 5, 32, 59, 81, 86, 104, 166, 166, 2, 0.426323
226, 3, wb, attraction, a-b-da, 5, 2, 5, 33, 90, 165, 165, 90, 161, 88, 1, 3.11085
226, 3, wb, attraction, a-b-da, 5, 2, 5, 33, 90, 165, 165, 90, 161, 88, 2, 2.36865
226, 3, wb, attraction, a-b-db, 2, 1, 5, 34, 60, 135, 135, 60, 59, 134, 2, 0.782973
226, 3, wb, attraction, a-b-db, 2, 1, 5, 34, 60, 135, 135, 60, 59, 134, 1, 0.37479
226, 3, wb, attraction, a-b-db, 14, 2, 5, 35, 83, 153, 90, 165, 165, 90, 2, 0.765251
226, 3, wb, attraction, a-b-db, 14, 2, 5, 35, 83, 153, 90, 165, 165, 90, 1, 1.29409
226, 3, wb, attraction, a-b-da, 2, 1, 5, 36, 60, 135, 135, 60, 134, 59, 2, 0.871228
226, 3, wb, attraction, a-b-da, 2, 1, 5, 36, 60, 135, 135, 60, 134, 59, 1, 1.20294
226, 3, wb, attraction, a-b-da, 9, 1, 5, 37, 135, 60, 60, 135, 129, 57, 3, 0.768449
226, 3, wb, attraction, a-b-da, 9, 1, 5, 37, 135, 60, 60, 135, 129, 57, 1, 1.04888
226, 3, wb, attraction, a-b-db, 9, 1, 6, 1, 135, 60, 57, 129, 60, 135, 2, 1.06862
226, 3, wb, attraction, a-b-db, 9, 1, 6, 1, 135, 60, 57, 129, 60, 135, 1, 0.560818
226, 3, wb, filler, NA, 999, 999, 6, 2, 190, 122, 108, 95, 92, 134, 2, 0.695899
226, 3, wb, filler, NA, 999, 999, 6, 2, 190, 122, 108, 95, 92, 134, 1, 0.466963
226, 3, wb, attraction, a-b-db, 14, 3, 6, 3, 111, 181, 195, 120, 120, 195, 2, 0.742101
226, 3, wb, attraction, a-b-db, 14, 3, 6, 3, 111, 181, 195, 120, 120, 195, 1, 0.639214
226, 3, wb, catch, NA, 999, 999, 6, 4, 137, 118, 142, 173, 78, 117, 3, 0.899647
226, 3, wb, catch, NA, 999, 999, 6, 4, 137, 118, 142, 173, 78, 117, 2, 0.406649
226, 3, wb, attraction, a-b-da, 14, 1, 6, 5, 60, 135, 125, 56, 135, 60, 2, 1.09177
226, 3, wb, attraction, a-b-da, 14, 1, 6, 5, 60, 135, 125, 56, 135, 60, 3, 1.23891
226, 3, wb, attraction, a-b-da, 9, 2, 6, 6, 157, 86, 90, 165, 165, 90, 2, 1.54684
226, 3, wb, attraction, a-b-da, 9, 2, 6, 6, 157, 86, 90, 165, 165, 90, 1, 0.587909
226, 3, wb, attraction, a-b-db, 5, 1, 6, 7, 135, 60, 58, 132, 60, 135, 2, 1.01023
226, 3, wb, attraction, a-b-db, 5, 1, 6, 7, 135, 60, 58, 132, 60, 135, 1, 0.856488
226, 3, wb, attraction, a-b-da, 9, 3, 6, 8, 195, 120, 120, 195, 186, 114, 2, 1.5242
226, 3, wb, attraction, a-b-da, 9, 3, 6, 8, 195, 120, 120, 195, 186, 114, 1, 0.573671
226, 3, wb, catch, NA, 999, 999, 6, 9, 155, 100, 133, 182, 110, 85, 3, 1.21201
226, 3, wb, catch, NA, 999, 999, 6, 9, 155, 100, 133, 182, 110, 85, 2, 0.450284
226, 3, wb, filler, NA, 999, 999, 6, 10, 112, 70, 65, 151, 160, 158, 1, 2.04619
226, 3, wb, filler, NA, 999, 999, 6, 10, 112, 70, 65, 151, 160, 158, 3, 0.514923
226, 3, wb, filler, NA, 999, 999, 6, 11, 110, 143, 82, 73, 132, 88, 2, 0.851972
226, 3, wb, filler, NA, 999, 999, 6, 11, 110, 143, 82, 73, 132, 88, 1, 0.561034
226, 3, wb, attraction, a-b-da, 14, 3, 6, 12, 181, 111, 195, 120, 120, 195, 2, 0.632099
226, 3, wb, attraction, a-b-da, 14, 3, 6, 12, 181, 111, 195, 120, 120, 195, 1, 0.469967
226, 3, wb, attraction, a-b-db, 9, 2, 6, 13, 90, 165, 86, 157, 165, 90, 2, 0.673041
226, 3, wb, attraction, a-b-db, 9, 2, 6, 13, 90, 165, 86, 157, 165, 90, 1, 0.492786
226, 3, wb, filler, NA, 999, 999, 6, 14, 108, 108, 81, 87, 65, 183, 2, 0.58279
226, 3, wb, filler, NA, 999, 999, 6, 14, 108, 108, 81, 87, 65, 183, 1, 0.454422
226, 3, wb, filler, NA, 999, 999, 6, 15, 178, 190, 173, 115, 141, 159, 2, 0.674155
226, 3, wb, filler, NA, 999, 999, 6, 15, 178, 190, 173, 115, 141, 159, 1, 0.421936
226, 3, wb, attraction, a-b-db, 9, 3, 6, 16, 195, 120, 120, 195, 114, 186, 2, 0.85102
226, 3, wb, attraction, a-b-db, 9, 3, 6, 16, 195, 120, 120, 195, 114, 186, 1, 0.528219
226, 3, wb, attraction, a-b-db, 14, 1, 6, 17, 135, 60, 60, 135, 56, 125, 2, 1.0246
226, 3, wb, attraction, a-b-db, 14, 1, 6, 17, 135, 60, 60, 135, 56, 125, 1, 0.542289
226, 3, wb, attraction, a-b-db, 5, 3, 6, 18, 195, 120, 117, 190, 120, 195, 2, 3.99795
226, 3, wb, attraction, a-b-db, 5, 3, 6, 18, 195, 120, 117, 190, 120, 195, 1, 0.652005
226, 3, wb, attraction, a-b-db, 2, 2, 6, 19, 90, 165, 165, 90, 89, 163, 2, 0.631821
226, 3, wb, attraction, a-b-db, 2, 2, 6, 19, 90, 165, 165, 90, 89, 163, 1, 0.621625
226, 3, wb, attraction, a-b-da, 2, 2, 6, 20, 90, 165, 163, 89, 165, 90, 2, 0.538766
226, 3, wb, attraction, a-b-da, 2, 2, 6, 20, 90, 165, 163, 89, 165, 90, 1, 0.963762
226, 3, wb, catch, NA, 999, 999, 6, 21, 157, 98, 123, 192, 104, 91, 3, 2.19482
226, 3, wb, catch, NA, 999, 999, 6, 21, 157, 98, 123, 192, 104, 91, 2, 0.52142
226, 3, wb, attraction, a-b-db, 14, 2, 6, 22, 83, 153, 90, 165, 165, 90, 1, 0.818502
226, 3, wb, attraction, a-b-db, 14, 2, 6, 22, 83, 153, 90, 165, 165, 90, 2, 0.70491
226, 3, wb, filler, NA, 999, 999, 6, 23, 158, 180, 74, 95, 106, 99, 2, 0.60251
226, 3, wb, filler, NA, 999, 999, 6, 23, 158, 180, 74, 95, 106, 99, 1, 0.353772
226, 3, wb, attraction, a-b-da, 5, 3, 6, 24, 195, 120, 190, 117, 120, 195, 2, 1.59354
226, 3, wb, attraction, a-b-da, 5, 3, 6, 24, 195, 120, 190, 117, 120, 195, 3, 0.856344
226, 3, wb, attraction, a-b-db, 2, 1, 6, 25, 60, 135, 135, 60, 59, 134, 2, 0.636007
226, 3, wb, attraction, a-b-db, 2, 1, 6, 25, 60, 135, 135, 60, 59, 134, 1, 0.553899
226, 3, wb, filler, NA, 999, 999, 6, 26, 93, 109, 115, 81, 69, 143, 2, 0.873708
226, 3, wb, filler, NA, 999, 999, 6, 26, 93, 109, 115, 81, 69, 143, 1, 0.589309
226, 3, wb, attraction, a-b-da, 14, 2, 6, 27, 165, 90, 153, 83, 90, 165, 2, 1.72383
226, 3, wb, attraction, a-b-da, 14, 2, 6, 27, 165, 90, 153, 83, 90, 165, 3, 0.621155
226, 3, wb, attraction, a-b-da, 5, 1, 6, 28, 132, 58, 60, 135, 135, 60, 2, 1.18626
226, 3, wb, attraction, a-b-da, 5, 1, 6, 28, 132, 58, 60, 135, 135, 60, 1, 0.513768
226, 3, wb, attraction, a-b-db, 2, 3, 6, 29, 195, 120, 119, 193, 120, 195, 2, 1.59492
226, 3, wb, attraction, a-b-db, 2, 3, 6, 29, 195, 120, 119, 193, 120, 195, 1, 0.50578
226, 3, wb, filler, NA, 999, 999, 6, 30, 173, 65, 172, 131, 142, 109, 1, 1.17955
226, 3, wb, filler, NA, 999, 999, 6, 30, 173, 65, 172, 131, 142, 109, 2, 0.347246
226, 3, wb, attraction, a-b-da, 9, 1, 6, 31, 129, 57, 60, 135, 135, 60, 1, 2.07503
226, 3, wb, attraction, a-b-da, 9, 1, 6, 31, 129, 57, 60, 135, 135, 60, 2, 0.582311
226, 3, wb, filler, NA, 999, 999, 6, 32, 180, 151, 187, 95, 127, 174, 3, 2.04467
226, 3, wb, filler, NA, 999, 999, 6, 32, 180, 151, 187, 95, 127, 174, 2, 0.593336
226, 3, wb, attraction, a-b-da, 5, 2, 6, 33, 90, 165, 161, 88, 165, 90, 2, 15.3272
226, 3, wb, attraction, a-b-da, 5, 2, 6, 33, 90, 165, 161, 88, 165, 90, 1, 0.428304
226, 3, wb, attraction, a-b-da, 2, 3, 6, 34, 193, 119, 120, 195, 195, 120, 2, 0.848819
226, 3, wb, attraction, a-b-da, 2, 3, 6, 34, 193, 119, 120, 195, 195, 120, 1, 0.661904
226, 3, wb, attraction, a-b-db, 5, 2, 6, 35, 90, 165, 165, 90, 88, 161, 2, 1.05697
226, 3, wb, attraction, a-b-db, 5, 2, 6, 35, 90, 165, 165, 90, 88, 161, 1, 0.501201
226, 3, wb, attraction, a-b-da, 2, 1, 6, 36, 135, 60, 60, 135, 134, 59, 2, 0.775072
226, 3, wb, attraction, a-b-da, 2, 1, 6, 36, 135, 60, 60, 135, 134, 59, 1, 0.950717
226, 3, wb, filler, NA, 999, 999, 6, 37, 146, 127, 144, 177, 62, 120, 3, 0.750386
226, 3, wb, filler, NA, 999, 999, 6, 37, 146, 127, 144, 177, 62, 120, 2, 0.415534
226, 3, wb, filler, NA, 999, 999, 7, 1, 188, 77, 114, 67, 165, 178, 2, 0.924583
226, 3, wb, filler, NA, 999, 999, 7, 1, 188, 77, 114, 67, 165, 178, 3, 0.406269
226, 3, wb, attraction, a-b-db, 2, 2, 7, 2, 89, 163, 90, 165, 165, 90, 1, 2.74014
226, 3, wb, attraction, a-b-db, 2, 2, 7, 2, 89, 163, 90, 165, 165, 90, 2, 0.556486
226, 3, wb, attraction, a-b-db, 5, 3, 7, 3, 195, 120, 117, 190, 120, 195, 1, 2.22835
226, 3, wb, attraction, a-b-db, 5, 3, 7, 3, 195, 120, 117, 190, 120, 195, 2, 0.401633
226, 3, wb, attraction, a-b-da, 2, 1, 7, 4, 135, 60, 134, 59, 60, 135, 2, 1.38346
226, 3, wb, attraction, a-b-da, 2, 1, 7, 4, 135, 60, 134, 59, 60, 135, 1, 0.366916
226, 3, wb, attraction, a-b-db, 14, 2, 7, 5, 90, 165, 83, 153, 165, 90, 1, 2.07812
226, 3, wb, attraction, a-b-db, 14, 2, 7, 5, 90, 165, 83, 153, 165, 90, 2, 0.425543
226, 3, wb, attraction, a-b-db, 2, 1, 7, 6, 60, 135, 59, 134, 135, 60, 2, 0.805814
226, 3, wb, attraction, a-b-db, 2, 1, 7, 6, 60, 135, 59, 134, 135, 60, 1, 0.380275
226, 3, wb, attraction, a-b-da, 14, 2, 7, 7, 90, 165, 165, 90, 153, 83, 2, 0.898739
226, 3, wb, attraction, a-b-da, 14, 2, 7, 7, 90, 165, 165, 90, 153, 83, 1, 0.405746
226, 3, wb, attraction, a-b-db, 2, 3, 7, 8, 119, 193, 195, 120, 120, 195, 2, 1.65968
226, 3, wb, attraction, a-b-db, 2, 3, 7, 8, 119, 193, 195, 120, 120, 195, 1, 0.407712
226, 3, wb, filler, NA, 999, 999, 7, 9, 90, 135, 62, 151, 112, 127, 2, 2.03707
226, 3, wb, filler, NA, 999, 999, 7, 9, 90, 135, 62, 151, 112, 127, 1, 0.43421
226, 3, wb, catch, NA, 999, 999, 7, 10, 192, 123, 129, 66, 101, 154, 2, 0.734679
226, 3, wb, catch, NA, 999, 999, 7, 10, 192, 123, 129, 66, 101, 154, 1, 0.592571
226, 3, wb, filler, NA, 999, 999, 7, 11, 71, 90, 156, 132, 88, 87, 1, 1.28621
226, 3, wb, filler, NA, 999, 999, 7, 11, 71, 90, 156, 132, 88, 87, 2, 0.625818
226, 3, wb, filler, NA, 999, 999, 7, 12, 129, 83, 176, 129, 109, 56, 3, 1.2542
226, 3, wb, filler, NA, 999, 999, 7, 12, 129, 83, 176, 129, 109, 56, 2, 0.427055
226, 3, wb, attraction, a-b-db, 5, 2, 7, 13, 165, 90, 90, 165, 88, 161, 1, 2.37562
226, 3, wb, attraction, a-b-db, 5, 2, 7, 13, 165, 90, 90, 165, 88, 161, 2, 0.414765
226, 3, wb, filler, NA, 999, 999, 7, 14, 99, 133, 177, 102, 62, 142, 3, 0.723952
226, 3, wb, filler, NA, 999, 999, 7, 14, 99, 133, 177, 102, 62, 142, 2, 1.06971
226, 3, wb, attraction, a-b-db, 14, 1, 7, 15, 135, 60, 60, 135, 56, 125, 1, 1.46471
226, 3, wb, attraction, a-b-db, 14, 1, 7, 15, 135, 60, 60, 135, 56, 125, 2, 0.604814
226, 3, wb, filler, NA, 999, 999, 7, 16, 142, 64, 88, 82, 189, 59, 2, 1.02668
226, 3, wb, filler, NA, 999, 999, 7, 16, 142, 64, 88, 82, 189, 59, 1, 0.428318
226, 3, wb, attraction, a-b-da, 9, 1, 7, 17, 135, 60, 129, 57, 60, 135, 3, 2.24473
226, 3, wb, attraction, a-b-da, 9, 1, 7, 17, 135, 60, 129, 57, 60, 135, 2, 0.409337
226, 3, wb, attraction, a-b-db, 5, 1, 7, 18, 58, 132, 60, 135, 135, 60, 1, 0.934438
226, 3, wb, attraction, a-b-db, 5, 1, 7, 18, 58, 132, 60, 135, 135, 60, 2, 0.408121
226, 3, wb, filler, NA, 999, 999, 7, 19, 108, 123, 135, 182, 132, 113, 1, 1.27722
226, 3, wb, filler, NA, 999, 999, 7, 19, 108, 123, 135, 182, 132, 113, 2, 0.504884
226, 3, wb, attraction, a-b-db, 9, 3, 7, 20, 120, 195, 114, 186, 195, 120, 1, 2.81871
226, 3, wb, attraction, a-b-db, 9, 3, 7, 20, 120, 195, 114, 186, 195, 120, 2, 0.560505
226, 3, wb, catch, NA, 999, 999, 7, 21, 150, 165, 116, 79, 93, 162, 2, 0.847471
226, 3, wb, catch, NA, 999, 999, 7, 21, 150, 165, 116, 79, 93, 162, 1, 0.37249
226, 3, wb, attraction, a-b-da, 5, 3, 7, 22, 190, 117, 120, 195, 195, 120, 2, 1.09964
226, 3, wb, attraction, a-b-da, 5, 3, 7, 22, 190, 117, 120, 195, 195, 120, 1, 0.438636
226, 3, wb, filler, NA, 999, 999, 7, 23, 100, 147, 57, 117, 74, 135, 2, 0.523144
226, 3, wb, filler, NA, 999, 999, 7, 23, 100, 147, 57, 117, 74, 135, 1, 0.708972
226, 3, wb, attraction, a-b-da, 5, 1, 7, 24, 135, 60, 60, 135, 132, 58, 2, 0.702004
226, 3, wb, attraction, a-b-da, 5, 1, 7, 24, 135, 60, 60, 135, 132, 58, 1, 0.625168
226, 3, wb, attraction, a-b-da, 14, 3, 7, 25, 120, 195, 195, 120, 181, 111, 2, 2.10948
226, 3, wb, attraction, a-b-da, 14, 3, 7, 25, 120, 195, 195, 120, 181, 111, 1, 0.415484
226, 3, wb, attraction, a-b-db, 9, 2, 7, 26, 90, 165, 86, 157, 165, 90, 1, 3.82875
226, 3, wb, attraction, a-b-db, 9, 2, 7, 26, 90, 165, 86, 157, 165, 90, 2, 0.417341
226, 3, wb, attraction, a-b-db, 9, 1, 7, 27, 57, 129, 60, 135, 135, 60, 1, 0.934463
226, 3, wb, attraction, a-b-db, 9, 1, 7, 27, 57, 129, 60, 135, 135, 60, 2, 0.496281
226, 3, wb, attraction, a-b-da, 2, 3, 7, 28, 195, 120, 120, 195, 193, 119, 1, 0.593977
226, 3, wb, attraction, a-b-da, 2, 3, 7, 28, 195, 120, 120, 195, 193, 119, 2, 0.433301
226, 3, wb, filler, NA, 999, 999, 7, 29, 102, 103, 117, 155, 87, 109, 1, 1.15764
226, 3, wb, filler, NA, 999, 999, 7, 29, 102, 103, 117, 155, 87, 109, 2, 0.517876
226, 3, wb, attraction, a-b-da, 9, 2, 7, 30, 90, 165, 157, 86, 165, 90, 1, 1.03896
226, 3, wb, attraction, a-b-da, 9, 2, 7, 30, 90, 165, 157, 86, 165, 90, 2, 0.435969
226, 3, wb, attraction, a-b-da, 14, 1, 7, 31, 60, 135, 135, 60, 125, 56, 1, 1.01641
226, 3, wb, attraction, a-b-da, 14, 1, 7, 31, 60, 135, 135, 60, 125, 56, 2, 0.582754
226, 3, wb, attraction, a-b-da, 9, 3, 7, 32, 186, 114, 120, 195, 195, 120, 2, 0.709179
226, 3, wb, attraction, a-b-da, 9, 3, 7, 32, 186, 114, 120, 195, 195, 120, 1, 0.83165
226, 3, wb, attraction, a-b-da, 2, 2, 7, 33, 90, 165, 163, 89, 165, 90, 2, 3.38794
226, 3, wb, attraction, a-b-da, 2, 2, 7, 33, 90, 165, 163, 89, 165, 90, 1, 0.722842
226, 3, wb, attraction, a-b-da, 5, 2, 7, 34, 165, 90, 161, 88, 90, 165, 3, 1.24392
226, 3, wb, attraction, a-b-da, 5, 2, 7, 34, 165, 90, 161, 88, 90, 165, 1, 0.792886
226, 3, wb, attraction, a-b-db, 14, 3, 7, 35, 111, 181, 120, 195, 195, 120, 2, 1.03064
226, 3, wb, attraction, a-b-db, 14, 3, 7, 35, 111, 181, 120, 195, 195, 120, 1, 0.716142
226, 3, wb, filler, NA, 999, 999, 7, 36, 131, 154, 176, 99, 169, 180, 2, 1.50131
226, 3, wb, filler, NA, 999, 999, 7, 36, 131, 154, 176, 99, 169, 180, 3, 0.640116
226, 3, wb, catch, NA, 999, 999, 7, 37, 105, 90, 126, 129, 144, 171, 1, 0.95577
226, 3, wb, catch, NA, 999, 999, 7, 37, 105, 90, 126, 129, 144, 171, 3, 1.49211
226, 3, wb, filler, NA, 999, 999, 8, 1, 119, 108, 75, 84, 168, 77, 2, 0.877638
226, 3, wb, filler, NA, 999, 999, 8, 1, 119, 108, 75, 84, 168, 77, 1, 0.457342
226, 3, wb, catch, NA, 999, 999, 8, 2, 151, 104, 165, 150, 82, 113, 3, 1.18854
226, 3, wb, catch, NA, 999, 999, 8, 2, 151, 104, 165, 150, 82, 113, 2, 0.443397
226, 3, wb, attraction, a-b-da, 14, 2, 8, 3, 90, 165, 165, 90, 153, 83, 2, 25.1993
226, 3, wb, attraction, a-b-da, 14, 2, 8, 3, 90, 165, 165, 90, 153, 83, 1, 0.598624
226, 3, wb, attraction, a-b-da, 2, 3, 8, 4, 195, 120, 120, 195, 193, 119, 2, 0.556464
226, 3, wb, attraction, a-b-da, 2, 3, 8, 4, 195, 120, 120, 195, 193, 119, 1, 0.492828
226, 3, wb, catch, NA, 999, 999, 8, 5, 162, 93, 63, 132, 132, 183, 2, 0.574612
226, 3, wb, catch, NA, 999, 999, 8, 5, 162, 93, 63, 132, 132, 183, 3, 0.582427
226, 3, wb, attraction, a-b-db, 9, 3, 8, 6, 195, 120, 120, 195, 114, 186, 2, 3.28478
226, 3, wb, attraction, a-b-db, 9, 3, 8, 6, 195, 120, 120, 195, 114, 186, 1, 0.487736
226, 3, wb, attraction, a-b-db, 9, 2, 8, 7, 90, 165, 86, 157, 165, 90, 2, 0.658384
226, 3, wb, attraction, a-b-db, 9, 2, 8, 7, 90, 165, 86, 157, 165, 90, 1, 0.574677
226, 3, wb, attraction, a-b-db, 2, 3, 8, 8, 120, 195, 195, 120, 119, 193, 2, 0.685128
226, 3, wb, attraction, a-b-db, 2, 3, 8, 8, 120, 195, 195, 120, 119, 193, 1, 0.41691
226, 3, wb, catch, NA, 999, 999, 8, 9, 65, 130, 122, 193, 141, 114, 1, 3.36609
226, 3, wb, catch, NA, 999, 999, 8, 9, 65, 130, 122, 193, 141, 114, 2, 0.517741
226, 3, wb, attraction, a-b-da, 5, 2, 8, 10, 165, 90, 90, 165, 161, 88, 2, 6.08671
226, 3, wb, attraction, a-b-da, 5, 2, 8, 10, 165, 90, 90, 165, 161, 88, 1, 0.568739
226, 3, wb, attraction, a-b-db, 9, 1, 8, 11, 135, 60, 60, 135, 57, 129, 3, 1.55184
226, 3, wb, attraction, a-b-db, 9, 1, 8, 11, 135, 60, 60, 135, 57, 129, 2, 1.1449
226, 3, wb, attraction, a-b-da, 9, 1, 8, 12, 129, 57, 60, 135, 135, 60, 2, 3.13627
226, 3, wb, attraction, a-b-da, 9, 1, 8, 12, 129, 57, 60, 135, 135, 60, 1, 0.601277
226, 3, wb, filler, NA, 999, 999, 8, 13, 108, 144, 172, 151, 125, 107, 3, 9.19904
226, 3, wb, filler, NA, 999, 999, 8, 13, 108, 144, 172, 151, 125, 107, 2, 0.475722
226, 3, wb, filler, NA, 999, 999, 8, 14, 102, 151, 128, 133, 149, 175, 2, 0.949877
226, 3, wb, filler, NA, 999, 999, 8, 14, 102, 151, 128, 133, 149, 175, 3, 0.750963
226, 3, wb, attraction, a-b-db, 2, 1, 8, 15, 59, 134, 135, 60, 60, 135, 2, 1.1507
226, 3, wb, attraction, a-b-db, 2, 1, 8, 15, 59, 134, 135, 60, 60, 135, 1, 0.591641
226, 3, wb, attraction, a-b-db, 5, 3, 8, 16, 117, 190, 195, 120, 120, 195, 2, 3.39745
226, 3, wb, attraction, a-b-db, 5, 3, 8, 16, 117, 190, 195, 120, 120, 195, 1, 0.8276
226, 3, wb, attraction, a-b-da, 14, 3, 8, 17, 181, 111, 195, 120, 120, 195, 2, 1.14399
226, 3, wb, attraction, a-b-da, 14, 3, 8, 17, 181, 111, 195, 120, 120, 195, 1, 0.49686
226, 3, wb, attraction, a-b-db, 2, 2, 8, 18, 90, 165, 89, 163, 165, 90, 2, 1.58673
226, 3, wb, attraction, a-b-db, 2, 2, 8, 18, 90, 165, 89, 163, 165, 90, 1, 2.75435
226, 3, wb, attraction, a-b-da, 9, 3, 8, 19, 186, 114, 195, 120, 120, 195, 2, 0.841258
226, 3, wb, attraction, a-b-da, 9, 3, 8, 19, 186, 114, 195, 120, 120, 195, 1, 0.550335
226, 3, wb, attraction, a-b-da, 9, 2, 8, 20, 165, 90, 157, 86, 90, 165, 2, 1.14212
226, 3, wb, attraction, a-b-da, 9, 2, 8, 20, 165, 90, 157, 86, 90, 165, 1, 0.783077
226, 3, wb, attraction, a-b-da, 2, 1, 8, 21, 60, 135, 135, 60, 134, 59, 2, 2.3974
226, 3, wb, attraction, a-b-da, 2, 1, 8, 21, 60, 135, 135, 60, 134, 59, 1, 0.58787
226, 3, wb, filler, NA, 999, 999, 8, 22, 129, 190, 155, 133, 180, 95, 2, 7.92234
226, 3, wb, filler, NA, 999, 999, 8, 22, 129, 190, 155, 133, 180, 95, 1, 0.490515
226, 3, wb, attraction, a-b-db, 14, 2, 8, 23, 83, 153, 90, 165, 165, 90, 1, 1.1244
226, 3, wb, attraction, a-b-db, 14, 2, 8, 23, 83, 153, 90, 165, 165, 90, 2, 0.453928
226, 3, wb, attraction, a-b-da, 5, 1, 8, 24, 60, 135, 132, 58, 135, 60, 2, 1.23372
226, 3, wb, attraction, a-b-da, 5, 1, 8, 24, 60, 135, 132, 58, 135, 60, 1, 0.53528
226, 3, wb, filler, NA, 999, 999, 8, 25, 180, 147, 85, 60, 134, 185, 2, 0.567924
226, 3, wb, filler, NA, 999, 999, 8, 25, 180, 147, 85, 60, 134, 185, 1, 0.84021
226, 3, wb, filler, NA, 999, 999, 8, 26, 143, 132, 190, 73, 170, 164, 2, 2.64387
226, 3, wb, filler, NA, 999, 999, 8, 26, 143, 132, 190, 73, 170, 164, 1, 0.360335
226, 3, wb, filler, NA, 999, 999, 8, 27, 75, 156, 96, 192, 63, 193, 1, 1.06357
226, 3, wb, filler, NA, 999, 999, 8, 27, 75, 156, 96, 192, 63, 193, 2, 1.05978
226, 3, wb, filler, NA, 999, 999, 8, 28, 137, 182, 181, 182, 143, 90, 3, 0.710695
226, 3, wb, filler, NA, 999, 999, 8, 28, 137, 182, 181, 182, 143, 90, 2, 0.361173
226, 3, wb, attraction, a-b-db, 5, 2, 8, 29, 88, 161, 90, 165, 165, 90, 1, 1.76842
226, 3, wb, attraction, a-b-db, 5, 2, 8, 29, 88, 161, 90, 165, 165, 90, 2, 0.408525
226, 3, wb, attraction, a-b-da, 5, 3, 8, 30, 190, 117, 195, 120, 120, 195, 2, 1.48563
226, 3, wb, attraction, a-b-da, 5, 3, 8, 30, 190, 117, 195, 120, 120, 195, 1, 0.481075
226, 3, wb, attraction, a-b-db, 14, 3, 8, 31, 120, 195, 195, 120, 111, 181, 2, 0.571527
226, 3, wb, attraction, a-b-db, 14, 3, 8, 31, 120, 195, 195, 120, 111, 181, 1, 0.363373
226, 3, wb, filler, NA, 999, 999, 8, 32, 181, 136, 71, 105, 61, 76, 3, 0.978522
226, 3, wb, filler, NA, 999, 999, 8, 32, 181, 136, 71, 105, 61, 76, 1, 0.354149
226, 3, wb, filler, NA, 999, 999, 8, 33, 74, 73, 91, 106, 93, 106, 1, 0.754169
226, 3, wb, filler, NA, 999, 999, 8, 33, 74, 73, 91, 106, 93, 106, 2, 0.771034
226, 3, wb, attraction, a-b-da, 14, 1, 8, 34, 60, 135, 135, 60, 125, 56, 3, 1.40219
226, 3, wb, attraction, a-b-da, 14, 1, 8, 34, 60, 135, 135, 60, 125, 56, 1, 0.512927
226, 3, wb, attraction, a-b-db, 14, 1, 8, 35, 60, 135, 135, 60, 56, 125, 3, 1.82604
226, 3, wb, attraction, a-b-db, 14, 1, 8, 35, 60, 135, 135, 60, 56, 125, 1, 1.13564
226, 3, wb, attraction, a-b-db, 5, 1, 8, 36, 58, 132, 135, 60, 60, 135, 1, 3.35977
226, 3, wb, attraction, a-b-db, 5, 1, 8, 36, 58, 132, 135, 60, 60, 135, 3, 0.623428
226, 3, wb, attraction, a-b-da, 2, 2, 8, 37, 165, 90, 90, 165, 163, 89, 3, 2.53177
226, 3, wb, attraction, a-b-da, 2, 2, 8, 37, 165, 90, 90, 165, 163, 89, 2, 0.493006
