sub_n, computer_n, bw_cond, effect, set, distance, diag, block_n, trial_n, h1, w1, h2, w2, h3, w3, choice, rt 
252, 3, wb, practice, NA, 999, 999, 0, 1, 184, 120, 137, 162, 131, 160, 3, 5.00046
252, 3, wb, practice, NA, 999, 999, 0, 1, 184, 120, 137, 162, 131, 160, 2, 3.40616
252, 3, wb, practice, NA, 999, 999, 0, 2, 132, 88, 127, 128, 71, 184, 1, 3.30296
252, 3, wb, practice, NA, 999, 999, 0, 2, 132, 88, 127, 128, 71, 184, 2, 2.22652
252, 3, wb, practice, NA, 999, 999, 0, 3, 100, 69, 184, 150, 140, 124, 1, 2.28197
252, 3, wb, practice, NA, 999, 999, 0, 3, 100, 69, 184, 150, 140, 124, 2, 1.69494
252, 3, wb, filler, NA, 999, 999, 1, 1, 187, 142, 94, 96, 174, 127, 2, 2.28984
252, 3, wb, filler, NA, 999, 999, 1, 1, 187, 142, 94, 96, 174, 127, 1, 1.11649
252, 3, wb, attraction, a-b-db, 2, 2, 1, 2, 90, 165, 89, 163, 165, 90, 1, 3.46943
252, 3, wb, attraction, a-b-db, 2, 2, 1, 2, 90, 165, 89, 163, 165, 90, 3, 2.08903
252, 3, wb, catch, NA, 999, 999, 1, 3, 92, 103, 158, 157, 101, 154, 1, 1.41093
252, 3, wb, catch, NA, 999, 999, 1, 3, 92, 103, 158, 157, 101, 154, 2, 1.07319
252, 3, wb, filler, NA, 999, 999, 1, 4, 185, 139, 114, 170, 98, 62, 3, 1.58812
252, 3, wb, filler, NA, 999, 999, 1, 4, 185, 139, 114, 170, 98, 62, 1, 1.42766
252, 3, wb, attraction, a-b-da, 2, 3, 1, 5, 193, 119, 195, 120, 120, 195, 3, 3.61575
252, 3, wb, attraction, a-b-da, 2, 3, 1, 5, 193, 119, 195, 120, 120, 195, 1, 1.30118
252, 3, wb, attraction, a-b-db, 14, 2, 1, 6, 83, 153, 165, 90, 90, 165, 1, 1.88685
252, 3, wb, attraction, a-b-db, 14, 2, 1, 6, 83, 153, 165, 90, 90, 165, 3, 1.68222
252, 3, wb, filler, NA, 999, 999, 1, 7, 149, 166, 110, 65, 81, 116, 2, 1.78825
252, 3, wb, filler, NA, 999, 999, 1, 7, 149, 166, 110, 65, 81, 116, 1, 0.763644
252, 3, wb, catch, NA, 999, 999, 1, 8, 101, 94, 137, 178, 161, 94, 1, 1.2027
252, 3, wb, catch, NA, 999, 999, 1, 8, 101, 94, 137, 178, 161, 94, 2, 0.825706
252, 3, wb, attraction, a-b-da, 5, 1, 1, 9, 132, 58, 135, 60, 60, 135, 3, 2.78206
252, 3, wb, attraction, a-b-da, 5, 1, 1, 9, 132, 58, 135, 60, 60, 135, 2, 1.16519
252, 3, wb, attraction, a-b-db, 9, 1, 1, 10, 57, 129, 60, 135, 135, 60, 1, 3.06009
252, 3, wb, attraction, a-b-db, 9, 1, 1, 10, 57, 129, 60, 135, 135, 60, 3, 1.4636
252, 3, wb, attraction, a-b-db, 2, 3, 1, 11, 120, 195, 195, 120, 119, 193, 2, 2.4425
252, 3, wb, attraction, a-b-db, 2, 3, 1, 11, 120, 195, 195, 120, 119, 193, 3, 0.863092
252, 3, wb, attraction, a-b-db, 14, 1, 1, 12, 56, 125, 60, 135, 135, 60, 1, 1.44198
252, 3, wb, attraction, a-b-db, 14, 1, 1, 12, 56, 125, 60, 135, 135, 60, 2, 3.143
252, 3, wb, attraction, a-b-da, 9, 3, 1, 13, 120, 195, 186, 114, 195, 120, 2, 1.69378
252, 3, wb, attraction, a-b-da, 9, 3, 1, 13, 120, 195, 186, 114, 195, 120, 1, 1.38471
252, 3, wb, attraction, a-b-da, 5, 3, 1, 14, 120, 195, 190, 117, 195, 120, 2, 1.76676
252, 3, wb, attraction, a-b-da, 5, 3, 1, 14, 120, 195, 190, 117, 195, 120, 1, 1.01496
252, 3, wb, attraction, a-b-da, 9, 2, 1, 15, 157, 86, 165, 90, 90, 165, 1, 1.49179
252, 3, wb, attraction, a-b-da, 9, 2, 1, 15, 157, 86, 165, 90, 90, 165, 3, 1.67872
252, 3, wb, attraction, a-b-db, 14, 3, 1, 16, 120, 195, 195, 120, 111, 181, 3, 2.28879
252, 3, wb, attraction, a-b-db, 14, 3, 1, 16, 120, 195, 195, 120, 111, 181, 2, 1.88338
252, 3, wb, filler, NA, 999, 999, 1, 17, 150, 165, 108, 134, 66, 80, 3, 1.05339
252, 3, wb, filler, NA, 999, 999, 1, 17, 150, 165, 108, 134, 66, 80, 1, 1.03439
252, 3, wb, filler, NA, 999, 999, 1, 18, 188, 109, 109, 69, 145, 128, 2, 1.17463
252, 3, wb, filler, NA, 999, 999, 1, 18, 188, 109, 109, 69, 145, 128, 1, 2.06223
252, 3, wb, filler, NA, 999, 999, 1, 19, 76, 60, 118, 161, 77, 73, 1, 1.2329
252, 3, wb, filler, NA, 999, 999, 1, 19, 76, 60, 118, 161, 77, 73, 2, 1.00642
252, 3, wb, attraction, a-b-db, 5, 3, 1, 20, 117, 190, 195, 120, 120, 195, 1, 1.96458
252, 3, wb, attraction, a-b-db, 5, 3, 1, 20, 117, 190, 195, 120, 120, 195, 3, 1.31616
252, 3, wb, filler, NA, 999, 999, 1, 21, 90, 102, 119, 71, 150, 146, 1, 1.5171
252, 3, wb, filler, NA, 999, 999, 1, 21, 90, 102, 119, 71, 150, 146, 3, 1.07117
252, 3, wb, attraction, a-b-da, 14, 1, 1, 22, 135, 60, 60, 135, 125, 56, 3, 2.37808
252, 3, wb, attraction, a-b-da, 14, 1, 1, 22, 135, 60, 60, 135, 125, 56, 2, 0.945306
252, 3, wb, filler, NA, 999, 999, 1, 23, 69, 144, 159, 88, 164, 106, 1, 1.20895
252, 3, wb, filler, NA, 999, 999, 1, 23, 69, 144, 159, 88, 164, 106, 3, 1.45524
252, 3, wb, attraction, a-b-db, 9, 2, 1, 24, 86, 157, 165, 90, 90, 165, 1, 2.37086
252, 3, wb, attraction, a-b-db, 9, 2, 1, 24, 86, 157, 165, 90, 90, 165, 3, 0.962652
252, 3, wb, attraction, a-b-da, 2, 1, 1, 25, 135, 60, 134, 59, 60, 135, 3, 2.70571
252, 3, wb, attraction, a-b-da, 2, 1, 1, 25, 135, 60, 134, 59, 60, 135, 1, 1.13933
252, 3, wb, filler, NA, 999, 999, 1, 26, 190, 140, 90, 83, 163, 56, 2, 2.30764
252, 3, wb, filler, NA, 999, 999, 1, 26, 190, 140, 90, 83, 163, 56, 1, 0.965571
252, 3, wb, attraction, a-b-da, 14, 2, 1, 27, 165, 90, 153, 83, 90, 165, 2, 4.51652
252, 3, wb, attraction, a-b-da, 14, 2, 1, 27, 165, 90, 153, 83, 90, 165, 3, 1.20581
252, 3, wb, attraction, a-b-da, 5, 2, 1, 28, 165, 90, 161, 88, 90, 165, 2, 2.26733
252, 3, wb, attraction, a-b-da, 5, 2, 1, 28, 165, 90, 161, 88, 90, 165, 3, 0.831336
252, 3, wb, attraction, a-b-da, 9, 1, 1, 29, 60, 135, 129, 57, 135, 60, 2, 3.0036
252, 3, wb, attraction, a-b-da, 9, 1, 1, 29, 60, 135, 129, 57, 135, 60, 3, 1.23399
252, 3, wb, catch, NA, 999, 999, 1, 30, 178, 137, 93, 162, 78, 117, 3, 1.84628
252, 3, wb, catch, NA, 999, 999, 1, 30, 178, 137, 93, 162, 78, 117, 1, 1.81088
252, 3, wb, attraction, a-b-da, 2, 2, 1, 31, 90, 165, 165, 90, 163, 89, 2, 3.71965
252, 3, wb, attraction, a-b-da, 2, 2, 1, 31, 90, 165, 165, 90, 163, 89, 1, 0.969025
252, 3, wb, attraction, a-b-db, 9, 3, 1, 32, 114, 186, 120, 195, 195, 120, 1, 2.99209
252, 3, wb, attraction, a-b-db, 9, 3, 1, 32, 114, 186, 120, 195, 195, 120, 3, 1.02243
252, 3, wb, attraction, a-b-db, 2, 1, 1, 33, 60, 135, 135, 60, 59, 134, 1, 1.91537
252, 3, wb, attraction, a-b-db, 2, 1, 1, 33, 60, 135, 135, 60, 59, 134, 3, 0.821373
252, 3, wb, filler, NA, 999, 999, 1, 34, 136, 156, 172, 152, 130, 94, 3, 1.87461
252, 3, wb, filler, NA, 999, 999, 1, 34, 136, 156, 172, 152, 130, 94, 2, 0.998064
252, 3, wb, attraction, a-b-db, 5, 2, 1, 35, 165, 90, 90, 165, 88, 161, 1, 3.21961
252, 3, wb, attraction, a-b-db, 5, 2, 1, 35, 165, 90, 90, 165, 88, 161, 2, 1.74521
252, 3, wb, attraction, a-b-db, 5, 1, 1, 36, 135, 60, 60, 135, 58, 132, 1, 2.80845
252, 3, wb, attraction, a-b-db, 5, 1, 1, 36, 135, 60, 60, 135, 58, 132, 2, 1.13422
252, 3, wb, attraction, a-b-da, 14, 3, 1, 37, 181, 111, 195, 120, 120, 195, 1, 1.89457
252, 3, wb, attraction, a-b-da, 14, 3, 1, 37, 181, 111, 195, 120, 120, 195, 3, 0.905274
252, 3, wb, filler, NA, 999, 999, 2, 1, 67, 153, 189, 76, 155, 91, 1, 1.6829
252, 3, wb, filler, NA, 999, 999, 2, 1, 67, 153, 189, 76, 155, 91, 2, 1.47048
252, 3, wb, attraction, a-b-db, 5, 1, 2, 2, 60, 135, 135, 60, 58, 132, 1, 2.42531
252, 3, wb, attraction, a-b-db, 5, 1, 2, 2, 60, 135, 135, 60, 58, 132, 3, 2.49458
252, 3, wb, attraction, a-b-db, 9, 3, 2, 3, 114, 186, 195, 120, 120, 195, 2, 4.00756
252, 3, wb, attraction, a-b-db, 9, 3, 2, 3, 114, 186, 195, 120, 120, 195, 3, 0.732978
252, 3, wb, catch, NA, 999, 999, 2, 4, 144, 171, 110, 85, 138, 117, 2, 1.26122
252, 3, wb, catch, NA, 999, 999, 2, 4, 144, 171, 110, 85, 138, 117, 1, 1.24958
252, 3, wb, attraction, a-b-da, 9, 3, 2, 5, 186, 114, 195, 120, 120, 195, 1, 2.46116
252, 3, wb, attraction, a-b-da, 9, 3, 2, 5, 186, 114, 195, 120, 120, 195, 3, 0.912994
252, 3, wb, catch, NA, 999, 999, 2, 6, 130, 65, 122, 133, 174, 141, 1, 2.17795
252, 3, wb, catch, NA, 999, 999, 2, 6, 130, 65, 122, 133, 174, 141, 3, 1.48936
252, 3, wb, attraction, a-b-db, 5, 2, 2, 7, 88, 161, 90, 165, 165, 90, 3, 2.46738
252, 3, wb, attraction, a-b-db, 5, 2, 2, 7, 88, 161, 90, 165, 165, 90, 2, 0.743209
252, 3, wb, attraction, a-b-db, 14, 1, 2, 8, 60, 135, 135, 60, 56, 125, 3, 2.40698
252, 3, wb, attraction, a-b-db, 14, 1, 2, 8, 60, 135, 135, 60, 56, 125, 1, 0.845018
252, 3, wb, filler, NA, 999, 999, 2, 9, 108, 109, 65, 66, 181, 93, 2, 1.24849
252, 3, wb, filler, NA, 999, 999, 2, 9, 108, 109, 65, 66, 181, 93, 3, 1.16558
252, 3, wb, attraction, a-b-da, 5, 2, 2, 10, 161, 88, 90, 165, 165, 90, 1, 1.98047
252, 3, wb, attraction, a-b-da, 5, 2, 2, 10, 161, 88, 90, 165, 165, 90, 2, 1.01178
252, 3, wb, attraction, a-b-da, 2, 2, 2, 11, 163, 89, 90, 165, 165, 90, 1, 4.16072
252, 3, wb, attraction, a-b-da, 2, 2, 2, 11, 163, 89, 90, 165, 165, 90, 2, 1.10411
252, 3, wb, catch, NA, 999, 999, 2, 12, 179, 136, 107, 148, 111, 84, 3, 1.1138
252, 3, wb, catch, NA, 999, 999, 2, 12, 179, 136, 107, 148, 111, 84, 1, 0.987928
252, 3, wb, attraction, a-b-db, 9, 2, 2, 13, 165, 90, 90, 165, 86, 157, 2, 3.53845
252, 3, wb, attraction, a-b-db, 9, 2, 2, 13, 165, 90, 90, 165, 86, 157, 1, 0.667001
252, 3, wb, filler, NA, 999, 999, 2, 14, 172, 117, 118, 59, 162, 99, 2, 1.02221
252, 3, wb, filler, NA, 999, 999, 2, 14, 172, 117, 118, 59, 162, 99, 1, 0.97176
252, 3, wb, attraction, a-b-da, 14, 1, 2, 15, 135, 60, 60, 135, 125, 56, 2, 2.97889
252, 3, wb, attraction, a-b-da, 14, 1, 2, 15, 135, 60, 60, 135, 125, 56, 1, 0.857778
252, 3, wb, attraction, a-b-da, 14, 3, 2, 16, 195, 120, 120, 195, 181, 111, 3, 2.14076
252, 3, wb, attraction, a-b-da, 14, 3, 2, 16, 195, 120, 120, 195, 181, 111, 2, 0.957503
252, 3, wb, filler, NA, 999, 999, 2, 17, 131, 146, 152, 82, 191, 107, 2, 1.33252
252, 3, wb, filler, NA, 999, 999, 2, 17, 131, 146, 152, 82, 191, 107, 1, 1.10205
252, 3, wb, attraction, a-b-da, 5, 3, 2, 18, 120, 195, 190, 117, 195, 120, 2, 3.63171
252, 3, wb, attraction, a-b-da, 5, 3, 2, 18, 120, 195, 190, 117, 195, 120, 1, 0.836464
252, 3, wb, attraction, a-b-da, 2, 3, 2, 19, 195, 120, 120, 195, 193, 119, 2, 4.66481
252, 3, wb, attraction, a-b-da, 2, 3, 2, 19, 195, 120, 120, 195, 193, 119, 3, 1.66805
252, 3, wb, attraction, a-b-db, 2, 3, 2, 20, 120, 195, 195, 120, 119, 193, 3, 3.67875
252, 3, wb, attraction, a-b-db, 2, 3, 2, 20, 120, 195, 195, 120, 119, 193, 2, 1.4655
252, 3, wb, attraction, a-b-da, 14, 2, 2, 21, 153, 83, 165, 90, 90, 165, 1, 2.54039
252, 3, wb, attraction, a-b-da, 14, 2, 2, 21, 153, 83, 165, 90, 90, 165, 3, 1.06093
252, 3, wb, attraction, a-b-db, 2, 1, 2, 22, 135, 60, 59, 134, 60, 135, 2, 2.2318
252, 3, wb, attraction, a-b-db, 2, 1, 2, 22, 135, 60, 59, 134, 60, 135, 1, 0.997129
252, 3, wb, attraction, a-b-db, 9, 1, 2, 23, 135, 60, 57, 129, 60, 135, 2, 3.31481
252, 3, wb, attraction, a-b-db, 9, 1, 2, 23, 135, 60, 57, 129, 60, 135, 3, 1.56454
252, 3, wb, attraction, a-b-da, 5, 1, 2, 24, 60, 135, 135, 60, 132, 58, 3, 3.03515
252, 3, wb, attraction, a-b-da, 5, 1, 2, 24, 60, 135, 135, 60, 132, 58, 1, 0.784161
252, 3, wb, attraction, a-b-db, 14, 2, 2, 25, 165, 90, 90, 165, 83, 153, 3, 1.97447
252, 3, wb, attraction, a-b-db, 14, 2, 2, 25, 165, 90, 90, 165, 83, 153, 1, 1.82195
252, 3, wb, attraction, a-b-db, 14, 3, 2, 26, 120, 195, 195, 120, 111, 181, 3, 1.66652
252, 3, wb, attraction, a-b-db, 14, 3, 2, 26, 120, 195, 195, 120, 111, 181, 1, 1.51068
252, 3, wb, filler, NA, 999, 999, 2, 27, 186, 95, 160, 85, 190, 61, 2, 3.17557
252, 3, wb, filler, NA, 999, 999, 2, 27, 186, 95, 160, 85, 190, 61, 3, 0.758567
252, 3, wb, filler, NA, 999, 999, 2, 28, 142, 121, 68, 162, 155, 119, 2, 4.45344
252, 3, wb, filler, NA, 999, 999, 2, 28, 142, 121, 68, 162, 155, 119, 3, 0.793564
252, 3, wb, filler, NA, 999, 999, 2, 29, 158, 78, 141, 87, 122, 126, 1, 5.80731
252, 3, wb, filler, NA, 999, 999, 2, 29, 158, 78, 141, 87, 122, 126, 3, 1.09194
252, 3, wb, attraction, a-b-db, 2, 2, 2, 30, 165, 90, 90, 165, 89, 163, 1, 3.4455
252, 3, wb, attraction, a-b-db, 2, 2, 2, 30, 165, 90, 90, 165, 89, 163, 2, 0.761898
252, 3, wb, attraction, a-b-db, 5, 3, 2, 31, 195, 120, 117, 190, 120, 195, 3, 1.88893
252, 3, wb, attraction, a-b-db, 5, 3, 2, 31, 195, 120, 117, 190, 120, 195, 1, 1.65958
252, 3, wb, filler, NA, 999, 999, 2, 32, 131, 85, 86, 120, 120, 146, 2, 0.982206
252, 3, wb, filler, NA, 999, 999, 2, 32, 131, 85, 86, 120, 120, 146, 3, 0.477946
252, 3, wb, attraction, a-b-da, 9, 1, 2, 33, 60, 135, 129, 57, 135, 60, 2, 1.96034
252, 3, wb, attraction, a-b-da, 9, 1, 2, 33, 60, 135, 129, 57, 135, 60, 3, 0.696424
252, 3, wb, filler, NA, 999, 999, 2, 34, 127, 108, 81, 180, 184, 154, 1, 2.88224
252, 3, wb, filler, NA, 999, 999, 2, 34, 127, 108, 81, 180, 184, 154, 3, 0.861159
252, 3, wb, filler, NA, 999, 999, 2, 35, 137, 147, 107, 136, 171, 108, 2, 3.48024
252, 3, wb, filler, NA, 999, 999, 2, 35, 137, 147, 107, 136, 171, 108, 1, 1.05115
252, 3, wb, attraction, a-b-da, 9, 2, 2, 36, 157, 86, 90, 165, 165, 90, 1, 2.22283
252, 3, wb, attraction, a-b-da, 9, 2, 2, 36, 157, 86, 90, 165, 165, 90, 2, 1.068
252, 3, wb, attraction, a-b-da, 2, 1, 2, 37, 135, 60, 134, 59, 60, 135, 3, 2.09499
252, 3, wb, attraction, a-b-da, 2, 1, 2, 37, 135, 60, 134, 59, 60, 135, 2, 0.641672
252, 3, wb, attraction, a-b-da, 9, 3, 3, 1, 195, 120, 186, 114, 120, 195, 3, 2.8375
252, 3, wb, attraction, a-b-da, 9, 3, 3, 1, 195, 120, 186, 114, 120, 195, 1, 0.57848
252, 3, wb, catch, NA, 999, 999, 3, 2, 133, 182, 67, 128, 131, 124, 2, 1.01694
252, 3, wb, catch, NA, 999, 999, 3, 2, 133, 182, 67, 128, 131, 124, 1, 0.983438
252, 3, wb, attraction, a-b-da, 2, 3, 3, 3, 193, 119, 120, 195, 195, 120, 1, 2.28537
252, 3, wb, attraction, a-b-da, 2, 3, 3, 3, 193, 119, 120, 195, 195, 120, 2, 1.37677
252, 3, wb, attraction, a-b-db, 5, 3, 3, 4, 195, 120, 120, 195, 117, 190, 3, 4.08682
252, 3, wb, attraction, a-b-db, 5, 3, 3, 4, 195, 120, 120, 195, 117, 190, 2, 1.40163
252, 3, wb, filler, NA, 999, 999, 3, 5, 80, 143, 170, 90, 191, 83, 1, 1.45511
252, 3, wb, filler, NA, 999, 999, 3, 5, 80, 143, 170, 90, 191, 83, 3, 1.9553
252, 3, wb, attraction, a-b-db, 14, 2, 3, 6, 83, 153, 165, 90, 90, 165, 1, 1.10661
252, 3, wb, attraction, a-b-db, 14, 2, 3, 6, 83, 153, 165, 90, 90, 165, 3, 0.828899
252, 3, wb, catch, NA, 999, 999, 3, 7, 117, 138, 170, 145, 100, 95, 3, 1.10527
252, 3, wb, catch, NA, 999, 999, 3, 7, 117, 138, 170, 145, 100, 95, 2, 1.01155
252, 3, wb, attraction, a-b-da, 5, 3, 3, 8, 190, 117, 120, 195, 195, 120, 1, 1.95263
252, 3, wb, attraction, a-b-da, 5, 3, 3, 8, 190, 117, 120, 195, 195, 120, 2, 0.761221
252, 3, wb, filler, NA, 999, 999, 3, 9, 92, 58, 173, 74, 180, 154, 1, 1.04031
252, 3, wb, filler, NA, 999, 999, 3, 9, 92, 58, 173, 74, 180, 154, 3, 0.701239
252, 3, wb, filler, NA, 999, 999, 3, 10, 157, 56, 123, 121, 142, 148, 2, 2.22297
252, 3, wb, filler, NA, 999, 999, 3, 10, 157, 56, 123, 121, 142, 148, 3, 0.692325
252, 3, wb, attraction, a-b-da, 5, 2, 3, 11, 161, 88, 90, 165, 165, 90, 1, 2.39005
252, 3, wb, attraction, a-b-da, 5, 2, 3, 11, 161, 88, 90, 165, 165, 90, 2, 0.980653
252, 3, wb, attraction, a-b-db, 9, 3, 3, 12, 195, 120, 120, 195, 114, 186, 3, 2.39479
252, 3, wb, attraction, a-b-db, 9, 3, 3, 12, 195, 120, 120, 195, 114, 186, 1, 0.785459
252, 3, wb, attraction, a-b-db, 2, 3, 3, 13, 195, 120, 120, 195, 119, 193, 2, 1.88767
252, 3, wb, attraction, a-b-db, 2, 3, 3, 13, 195, 120, 120, 195, 119, 193, 3, 3.06712
252, 3, wb, filler, NA, 999, 999, 3, 14, 120, 176, 172, 62, 105, 66, 3, 0.78147
252, 3, wb, filler, NA, 999, 999, 3, 14, 120, 176, 172, 62, 105, 66, 1, 0.453129
252, 3, wb, attraction, a-b-da, 9, 1, 3, 15, 60, 135, 129, 57, 135, 60, 1, 1.41696
252, 3, wb, attraction, a-b-da, 9, 1, 3, 15, 60, 135, 129, 57, 135, 60, 3, 0.815208
252, 3, wb, attraction, a-b-db, 5, 2, 3, 16, 90, 165, 165, 90, 88, 161, 1, 2.21213
252, 3, wb, attraction, a-b-db, 5, 2, 3, 16, 90, 165, 165, 90, 88, 161, 3, 1.13817
252, 3, wb, attraction, a-b-db, 2, 2, 3, 17, 90, 165, 165, 90, 89, 163, 1, 2.53855
252, 3, wb, attraction, a-b-db, 2, 2, 3, 17, 90, 165, 165, 90, 89, 163, 2, 0.938949
252, 3, wb, attraction, a-b-da, 5, 1, 3, 18, 132, 58, 60, 135, 135, 60, 2, 1.57121
252, 3, wb, attraction, a-b-da, 5, 1, 3, 18, 132, 58, 60, 135, 135, 60, 3, 0.987474
252, 3, wb, attraction, a-b-da, 2, 1, 3, 19, 135, 60, 60, 135, 134, 59, 2, 1.55373
252, 3, wb, attraction, a-b-da, 2, 1, 3, 19, 135, 60, 60, 135, 134, 59, 3, 0.986526
252, 3, wb, filler, NA, 999, 999, 3, 20, 62, 137, 59, 169, 151, 70, 1, 1.02476
252, 3, wb, filler, NA, 999, 999, 3, 20, 62, 137, 59, 169, 151, 70, 3, 1.31048
252, 3, wb, attraction, a-b-db, 5, 1, 3, 21, 60, 135, 135, 60, 58, 132, 3, 1.39929
252, 3, wb, attraction, a-b-db, 5, 1, 3, 21, 60, 135, 135, 60, 58, 132, 2, 1.61413
252, 3, wb, catch, NA, 999, 999, 3, 22, 135, 60, 120, 135, 164, 151, 1, 0.682949
252, 3, wb, catch, NA, 999, 999, 3, 22, 135, 60, 120, 135, 164, 151, 3, 0.894754
252, 3, wb, attraction, a-b-da, 14, 2, 3, 23, 165, 90, 90, 165, 153, 83, 3, 2.62446
252, 3, wb, attraction, a-b-da, 14, 2, 3, 23, 165, 90, 90, 165, 153, 83, 2, 0.6615
252, 3, wb, attraction, a-b-db, 14, 3, 3, 24, 195, 120, 120, 195, 111, 181, 3, 3.85661
252, 3, wb, attraction, a-b-db, 14, 3, 3, 24, 195, 120, 120, 195, 111, 181, 1, 1.50009
252, 3, wb, filler, NA, 999, 999, 3, 25, 112, 112, 66, 142, 57, 138, 3, 1.06166
252, 3, wb, filler, NA, 999, 999, 3, 25, 112, 112, 66, 142, 57, 138, 1, 0.601991
252, 3, wb, attraction, a-b-db, 2, 1, 3, 26, 59, 134, 135, 60, 60, 135, 3, 1.24769
252, 3, wb, attraction, a-b-db, 2, 1, 3, 26, 59, 134, 135, 60, 60, 135, 1, 1.4365
252, 3, wb, attraction, a-b-da, 14, 1, 3, 27, 125, 56, 60, 135, 135, 60, 1, 1.5046
252, 3, wb, attraction, a-b-da, 14, 1, 3, 27, 125, 56, 60, 135, 135, 60, 3, 0.619492
252, 3, wb, filler, NA, 999, 999, 3, 28, 189, 96, 81, 137, 171, 167, 2, 0.992599
252, 3, wb, filler, NA, 999, 999, 3, 28, 189, 96, 81, 137, 171, 167, 3, 0.463579
252, 3, wb, filler, NA, 999, 999, 3, 29, 60, 80, 146, 191, 119, 90, 1, 1.24262
252, 3, wb, filler, NA, 999, 999, 3, 29, 60, 80, 146, 191, 119, 90, 2, 0.615568
252, 3, wb, filler, NA, 999, 999, 3, 30, 172, 68, 144, 136, 138, 96, 3, 0.95664
252, 3, wb, filler, NA, 999, 999, 3, 30, 172, 68, 144, 136, 138, 96, 2, 0.43692
252, 3, wb, attraction, a-b-db, 9, 1, 3, 31, 57, 129, 60, 135, 135, 60, 2, 2.07342
252, 3, wb, attraction, a-b-db, 9, 1, 3, 31, 57, 129, 60, 135, 135, 60, 3, 0.628795
252, 3, wb, attraction, a-b-da, 14, 3, 3, 32, 181, 111, 195, 120, 120, 195, 1, 1.61717
252, 3, wb, attraction, a-b-da, 14, 3, 3, 32, 181, 111, 195, 120, 120, 195, 3, 1.17556
252, 3, wb, filler, NA, 999, 999, 3, 33, 77, 103, 92, 191, 189, 94, 1, 0.733873
252, 3, wb, filler, NA, 999, 999, 3, 33, 77, 103, 92, 191, 189, 94, 2, 1.28757
252, 3, wb, attraction, a-b-da, 9, 2, 3, 34, 157, 86, 90, 165, 165, 90, 1, 1.00964
252, 3, wb, attraction, a-b-da, 9, 2, 3, 34, 157, 86, 90, 165, 165, 90, 2, 3.2639
252, 3, wb, attraction, a-b-db, 9, 2, 3, 35, 165, 90, 86, 157, 90, 165, 2, 1.45813
252, 3, wb, attraction, a-b-db, 9, 2, 3, 35, 165, 90, 86, 157, 90, 165, 1, 0.56635
252, 3, wb, attraction, a-b-db, 14, 1, 3, 36, 135, 60, 56, 125, 60, 135, 2, 1.05335
252, 3, wb, attraction, a-b-db, 14, 1, 3, 36, 135, 60, 56, 125, 60, 135, 1, 0.954361
252, 3, wb, attraction, a-b-da, 2, 2, 3, 37, 165, 90, 90, 165, 163, 89, 2, 2.29808
252, 3, wb, attraction, a-b-da, 2, 2, 3, 37, 165, 90, 90, 165, 163, 89, 1, 0.828628
252, 3, wb, attraction, a-b-da, 9, 1, 4, 1, 60, 135, 135, 60, 129, 57, 2, 2.305
252, 3, wb, attraction, a-b-da, 9, 1, 4, 1, 60, 135, 135, 60, 129, 57, 1, 1.18752
252, 3, wb, filler, NA, 999, 999, 4, 2, 97, 80, 58, 103, 135, 152, 2, 0.697814
252, 3, wb, filler, NA, 999, 999, 4, 2, 97, 80, 58, 103, 135, 152, 3, 0.604995
252, 3, wb, filler, NA, 999, 999, 4, 3, 153, 94, 92, 143, 195, 163, 2, 1.00285
252, 3, wb, filler, NA, 999, 999, 4, 3, 153, 94, 92, 143, 195, 163, 3, 0.537602
252, 3, wb, attraction, a-b-db, 5, 1, 4, 4, 60, 135, 58, 132, 135, 60, 2, 1.17809
252, 3, wb, attraction, a-b-db, 5, 1, 4, 4, 60, 135, 58, 132, 135, 60, 3, 0.465605
252, 3, wb, attraction, a-b-da, 9, 2, 4, 5, 90, 165, 165, 90, 157, 86, 2, 1.36481
252, 3, wb, attraction, a-b-da, 9, 2, 4, 5, 90, 165, 165, 90, 157, 86, 3, 0.965033
252, 3, wb, attraction, a-b-db, 9, 3, 4, 6, 114, 186, 120, 195, 195, 120, 1, 0.644063
252, 3, wb, attraction, a-b-db, 9, 3, 4, 6, 114, 186, 120, 195, 195, 120, 3, 0.481085
252, 3, wb, attraction, a-b-da, 14, 2, 4, 7, 165, 90, 90, 165, 153, 83, 3, 2.2116
252, 3, wb, attraction, a-b-da, 14, 2, 4, 7, 165, 90, 90, 165, 153, 83, 2, 1.12152
252, 3, wb, attraction, a-b-da, 14, 3, 4, 8, 195, 120, 181, 111, 120, 195, 2, 2.41047
252, 3, wb, attraction, a-b-da, 14, 3, 4, 8, 195, 120, 181, 111, 120, 195, 1, 0.560352
252, 3, wb, attraction, a-b-db, 14, 2, 4, 9, 83, 153, 90, 165, 165, 90, 1, 1.07135
252, 3, wb, attraction, a-b-db, 14, 2, 4, 9, 83, 153, 90, 165, 165, 90, 2, 0.875139
252, 3, wb, filler, NA, 999, 999, 4, 10, 111, 161, 114, 90, 112, 68, 3, 3.26147
252, 3, wb, filler, NA, 999, 999, 4, 10, 111, 161, 114, 90, 112, 68, 1, 0.737095
252, 3, wb, catch, NA, 999, 999, 4, 11, 122, 73, 117, 138, 171, 144, 1, 1.23355
252, 3, wb, catch, NA, 999, 999, 4, 11, 122, 73, 117, 138, 171, 144, 3, 0.655169
252, 3, wb, filler, NA, 999, 999, 4, 12, 68, 150, 131, 98, 157, 169, 1, 2.47477
252, 3, wb, filler, NA, 999, 999, 4, 12, 68, 150, 131, 98, 157, 169, 3, 0.613984
252, 3, wb, filler, NA, 999, 999, 4, 13, 125, 128, 71, 117, 113, 122, 2, 1.47495
252, 3, wb, filler, NA, 999, 999, 4, 13, 125, 128, 71, 117, 113, 122, 1, 0.470524
252, 3, wb, filler, NA, 999, 999, 4, 14, 70, 157, 117, 110, 129, 75, 3, 1.36169
252, 3, wb, filler, NA, 999, 999, 4, 14, 70, 157, 117, 110, 129, 75, 2, 0.945851
252, 3, wb, catch, NA, 999, 999, 4, 15, 137, 178, 68, 127, 154, 101, 2, 0.825461
252, 3, wb, catch, NA, 999, 999, 4, 15, 137, 178, 68, 127, 154, 101, 1, 0.47921
252, 3, wb, filler, NA, 999, 999, 4, 16, 87, 161, 190, 181, 96, 135, 1, 1.04171
252, 3, wb, filler, NA, 999, 999, 4, 16, 87, 161, 190, 181, 96, 135, 2, 0.446604
252, 3, wb, attraction, a-b-da, 2, 3, 4, 17, 193, 119, 120, 195, 195, 120, 1, 1.52244
252, 3, wb, attraction, a-b-da, 2, 3, 4, 17, 193, 119, 120, 195, 195, 120, 2, 0.756103
252, 3, wb, attraction, a-b-db, 2, 2, 4, 18, 89, 163, 165, 90, 90, 165, 1, 0.939737
252, 3, wb, attraction, a-b-db, 2, 2, 4, 18, 89, 163, 165, 90, 90, 165, 2, 1.30064
252, 3, wb, attraction, a-b-da, 14, 1, 4, 19, 135, 60, 60, 135, 125, 56, 2, 2.02219
252, 3, wb, attraction, a-b-da, 14, 1, 4, 19, 135, 60, 60, 135, 125, 56, 1, 0.651626
252, 3, wb, attraction, a-b-db, 9, 2, 4, 20, 86, 157, 90, 165, 165, 90, 1, 1.86334
252, 3, wb, attraction, a-b-db, 9, 2, 4, 20, 86, 157, 90, 165, 165, 90, 3, 0.883536
252, 3, wb, filler, NA, 999, 999, 4, 21, 134, 192, 114, 140, 58, 104, 3, 0.965697
252, 3, wb, filler, NA, 999, 999, 4, 21, 134, 192, 114, 140, 58, 104, 1, 0.446079
252, 3, wb, attraction, a-b-db, 5, 3, 4, 22, 117, 190, 120, 195, 195, 120, 3, 4.22588
252, 3, wb, attraction, a-b-db, 5, 3, 4, 22, 117, 190, 120, 195, 195, 120, 2, 0.774613
252, 3, wb, attraction, a-b-db, 2, 1, 4, 23, 60, 135, 59, 134, 135, 60, 2, 1.91681
252, 3, wb, attraction, a-b-db, 2, 1, 4, 23, 60, 135, 59, 134, 135, 60, 1, 0.694822
252, 3, wb, attraction, a-b-da, 5, 2, 4, 24, 165, 90, 90, 165, 161, 88, 2, 2.35264
252, 3, wb, attraction, a-b-da, 5, 2, 4, 24, 165, 90, 90, 165, 161, 88, 1, 0.889185
252, 3, wb, attraction, a-b-db, 5, 2, 4, 25, 90, 165, 88, 161, 165, 90, 2, 1.57161
252, 3, wb, attraction, a-b-db, 5, 2, 4, 25, 90, 165, 88, 161, 165, 90, 1, 0.530972
252, 3, wb, attraction, a-b-da, 5, 1, 4, 26, 60, 135, 132, 58, 135, 60, 3, 2.59549
252, 3, wb, attraction, a-b-da, 5, 1, 4, 26, 60, 135, 132, 58, 135, 60, 2, 0.562094
252, 3, wb, attraction, a-b-da, 2, 1, 4, 27, 60, 135, 135, 60, 134, 59, 1, 2.39305
252, 3, wb, attraction, a-b-da, 2, 1, 4, 27, 60, 135, 135, 60, 134, 59, 3, 0.823569
252, 3, wb, attraction, a-b-da, 9, 3, 4, 28, 195, 120, 120, 195, 186, 114, 3, 1.41989
252, 3, wb, attraction, a-b-da, 9, 3, 4, 28, 195, 120, 120, 195, 186, 114, 1, 0.57014
252, 3, wb, catch, NA, 999, 999, 4, 29, 144, 111, 135, 180, 108, 87, 3, 1.84116
252, 3, wb, catch, NA, 999, 999, 4, 29, 144, 111, 135, 180, 108, 87, 2, 0.590139
252, 3, wb, filler, NA, 999, 999, 4, 30, 67, 186, 179, 166, 84, 69, 3, 1.06774
252, 3, wb, filler, NA, 999, 999, 4, 30, 67, 186, 179, 166, 84, 69, 2, 0.440016
252, 3, wb, attraction, a-b-db, 14, 1, 4, 31, 60, 135, 135, 60, 56, 125, 3, 2.74861
252, 3, wb, attraction, a-b-db, 14, 1, 4, 31, 60, 135, 135, 60, 56, 125, 2, 1.13302
252, 3, wb, attraction, a-b-db, 2, 3, 4, 32, 119, 193, 195, 120, 120, 195, 1, 1.33312
252, 3, wb, attraction, a-b-db, 2, 3, 4, 32, 119, 193, 195, 120, 120, 195, 3, 1.16686
252, 3, wb, attraction, a-b-db, 9, 1, 4, 33, 135, 60, 57, 129, 60, 135, 2, 1.42963
252, 3, wb, attraction, a-b-db, 9, 1, 4, 33, 135, 60, 57, 129, 60, 135, 1, 0.731352
252, 3, wb, attraction, a-b-da, 5, 3, 4, 34, 195, 120, 190, 117, 120, 195, 2, 2.16359
252, 3, wb, attraction, a-b-da, 5, 3, 4, 34, 195, 120, 190, 117, 120, 195, 1, 0.603541
252, 3, wb, attraction, a-b-db, 14, 3, 4, 35, 195, 120, 120, 195, 111, 181, 2, 1.03328
252, 3, wb, attraction, a-b-db, 14, 3, 4, 35, 195, 120, 120, 195, 111, 181, 1, 1.29494
252, 3, wb, filler, NA, 999, 999, 4, 36, 156, 165, 153, 112, 83, 114, 3, 0.720539
252, 3, wb, filler, NA, 999, 999, 4, 36, 156, 165, 153, 112, 83, 114, 1, 0.939047
252, 3, wb, attraction, a-b-da, 2, 2, 4, 37, 165, 90, 90, 165, 163, 89, 2, 3.44322
252, 3, wb, attraction, a-b-da, 2, 2, 4, 37, 165, 90, 90, 165, 163, 89, 1, 0.48753
252, 3, wb, attraction, a-b-db, 2, 2, 5, 1, 89, 163, 165, 90, 90, 165, 1, 3.45586
252, 3, wb, attraction, a-b-db, 2, 2, 5, 1, 89, 163, 165, 90, 90, 165, 2, 0.875421
252, 3, wb, attraction, a-b-db, 5, 2, 5, 2, 90, 165, 88, 161, 165, 90, 1, 1.02176
252, 3, wb, attraction, a-b-db, 5, 2, 5, 2, 90, 165, 88, 161, 165, 90, 3, 0.771463
252, 3, wb, attraction, a-b-db, 5, 3, 5, 3, 117, 190, 120, 195, 195, 120, 1, 1.45848
252, 3, wb, attraction, a-b-db, 5, 3, 5, 3, 117, 190, 120, 195, 195, 120, 3, 1.2146
252, 3, wb, attraction, a-b-da, 5, 2, 5, 4, 161, 88, 90, 165, 165, 90, 1, 1.89952
252, 3, wb, attraction, a-b-da, 5, 2, 5, 4, 161, 88, 90, 165, 165, 90, 2, 1.06221
252, 3, wb, filler, NA, 999, 999, 5, 5, 59, 153, 180, 149, 158, 84, 1, 0.617153
252, 3, wb, filler, NA, 999, 999, 5, 5, 59, 153, 180, 149, 158, 84, 2, 0.471691
252, 3, wb, filler, NA, 999, 999, 5, 6, 154, 132, 107, 170, 78, 73, 3, 1.06675
252, 3, wb, filler, NA, 999, 999, 5, 6, 154, 132, 107, 170, 78, 73, 1, 0.807111
252, 3, wb, attraction, a-b-db, 5, 1, 5, 7, 135, 60, 58, 132, 60, 135, 2, 3.00422
252, 3, wb, attraction, a-b-db, 5, 1, 5, 7, 135, 60, 58, 132, 60, 135, 1, 0.546442
252, 3, wb, filler, NA, 999, 999, 5, 8, 63, 75, 124, 150, 72, 180, 1, 1.1224
252, 3, wb, filler, NA, 999, 999, 5, 8, 63, 75, 124, 150, 72, 180, 2, 0.33987
252, 3, wb, attraction, a-b-da, 2, 1, 5, 9, 60, 135, 134, 59, 135, 60, 1, 2.0757
252, 3, wb, attraction, a-b-da, 2, 1, 5, 9, 60, 135, 134, 59, 135, 60, 2, 0.446989
252, 3, wb, attraction, a-b-da, 9, 1, 5, 10, 135, 60, 129, 57, 60, 135, 3, 1.8269
252, 3, wb, attraction, a-b-da, 9, 1, 5, 10, 135, 60, 129, 57, 60, 135, 2, 0.800231
252, 3, wb, attraction, a-b-da, 2, 2, 5, 11, 165, 90, 163, 89, 90, 165, 1, 4.80594
252, 3, wb, attraction, a-b-da, 2, 2, 5, 11, 165, 90, 163, 89, 90, 165, 3, 0.643092
252, 3, wb, attraction, a-b-db, 9, 2, 5, 12, 90, 165, 165, 90, 86, 157, 1, 1.64675
252, 3, wb, attraction, a-b-db, 9, 2, 5, 12, 90, 165, 165, 90, 86, 157, 3, 0.459545
252, 3, wb, attraction, a-b-db, 14, 2, 5, 13, 83, 153, 90, 165, 165, 90, 1, 0.894645
252, 3, wb, attraction, a-b-db, 14, 2, 5, 13, 83, 153, 90, 165, 165, 90, 2, 0.961761
252, 3, wb, attraction, a-b-db, 14, 1, 5, 14, 56, 125, 60, 135, 135, 60, 1, 0.576664
252, 3, wb, attraction, a-b-db, 14, 1, 5, 14, 56, 125, 60, 135, 135, 60, 2, 0.768647
252, 3, wb, filler, NA, 999, 999, 5, 15, 176, 116, 157, 86, 62, 136, 3, 0.839537
252, 3, wb, filler, NA, 999, 999, 5, 15, 176, 116, 157, 86, 62, 136, 1, 0.708678
252, 3, wb, attraction, a-b-da, 14, 3, 5, 16, 195, 120, 120, 195, 181, 111, 3, 2.61409
252, 3, wb, attraction, a-b-da, 14, 3, 5, 16, 195, 120, 120, 195, 181, 111, 1, 0.763453
252, 3, wb, attraction, a-b-da, 14, 2, 5, 17, 165, 90, 90, 165, 153, 83, 3, 1.54645
252, 3, wb, attraction, a-b-da, 14, 2, 5, 17, 165, 90, 90, 165, 153, 83, 2, 0.843331
252, 3, wb, catch, NA, 999, 999, 5, 18, 130, 185, 120, 75, 118, 137, 2, 0.806933
252, 3, wb, catch, NA, 999, 999, 5, 18, 130, 185, 120, 75, 118, 137, 1, 0.445295
252, 3, wb, attraction, a-b-da, 5, 3, 5, 19, 190, 117, 195, 120, 120, 195, 1, 2.19315
252, 3, wb, attraction, a-b-da, 5, 3, 5, 19, 190, 117, 195, 120, 120, 195, 3, 2.75986
252, 3, wb, attraction, a-b-da, 2, 3, 5, 20, 195, 120, 193, 119, 120, 195, 1, 3.28614
252, 3, wb, attraction, a-b-da, 2, 3, 5, 20, 195, 120, 193, 119, 120, 195, 3, 0.985169
252, 3, wb, catch, NA, 999, 999, 5, 21, 115, 140, 121, 74, 120, 195, 2, 0.727443
252, 3, wb, catch, NA, 999, 999, 5, 21, 115, 140, 121, 74, 120, 195, 3, 0.625203
252, 3, wb, attraction, a-b-db, 9, 3, 5, 22, 195, 120, 114, 186, 120, 195, 2, 2.42174
252, 3, wb, attraction, a-b-db, 9, 3, 5, 22, 195, 120, 114, 186, 120, 195, 1, 1.18753
252, 3, wb, filler, NA, 999, 999, 5, 23, 158, 159, 63, 104, 168, 62, 2, 0.785819
252, 3, wb, filler, NA, 999, 999, 5, 23, 158, 159, 63, 104, 168, 62, 1, 0.417475
252, 3, wb, filler, NA, 999, 999, 5, 24, 154, 131, 146, 154, 165, 143, 1, 1.55865
252, 3, wb, filler, NA, 999, 999, 5, 24, 154, 131, 146, 154, 165, 143, 2, 0.69486
252, 3, wb, filler, NA, 999, 999, 5, 25, 56, 157, 99, 119, 161, 190, 1, 0.86446
252, 3, wb, filler, NA, 999, 999, 5, 25, 56, 157, 99, 119, 161, 190, 3, 0.380861
252, 3, wb, filler, NA, 999, 999, 5, 26, 179, 160, 112, 130, 149, 191, 2, 1.00331
252, 3, wb, filler, NA, 999, 999, 5, 26, 179, 160, 112, 130, 149, 191, 1, 0.346287
252, 3, wb, catch, NA, 999, 999, 5, 27, 113, 142, 104, 91, 147, 168, 2, 0.938076
252, 3, wb, catch, NA, 999, 999, 5, 27, 113, 142, 104, 91, 147, 168, 3, 0.435762
252, 3, wb, attraction, a-b-db, 2, 3, 5, 28, 119, 193, 195, 120, 120, 195, 1, 1.8483
252, 3, wb, attraction, a-b-db, 2, 3, 5, 28, 119, 193, 195, 120, 120, 195, 2, 0.445038
252, 3, wb, attraction, a-b-da, 5, 1, 5, 29, 60, 135, 135, 60, 132, 58, 1, 0.560788
252, 3, wb, attraction, a-b-da, 5, 1, 5, 29, 60, 135, 135, 60, 132, 58, 2, 1.17743
252, 3, wb, attraction, a-b-da, 14, 1, 5, 30, 125, 56, 60, 135, 135, 60, 1, 1.43172
252, 3, wb, attraction, a-b-da, 14, 1, 5, 30, 125, 56, 60, 135, 135, 60, 2, 0.621098
252, 3, wb, filler, NA, 999, 999, 5, 31, 127, 99, 115, 148, 70, 179, 1, 1.41818
252, 3, wb, filler, NA, 999, 999, 5, 31, 127, 99, 115, 148, 70, 179, 2, 0.488834
252, 3, wb, filler, NA, 999, 999, 5, 32, 67, 81, 94, 166, 174, 137, 1, 0.786904
252, 3, wb, filler, NA, 999, 999, 5, 32, 67, 81, 94, 166, 174, 137, 3, 1.17866
252, 3, wb, attraction, a-b-da, 9, 2, 5, 33, 165, 90, 90, 165, 157, 86, 3, 1.57683
252, 3, wb, attraction, a-b-da, 9, 2, 5, 33, 165, 90, 90, 165, 157, 86, 2, 0.824238
252, 3, wb, attraction, a-b-db, 2, 1, 5, 34, 59, 134, 60, 135, 135, 60, 1, 1.65264
252, 3, wb, attraction, a-b-db, 2, 1, 5, 34, 59, 134, 60, 135, 135, 60, 3, 2.0014
252, 3, wb, attraction, a-b-db, 14, 3, 5, 35, 195, 120, 111, 181, 120, 195, 2, 2.21469
252, 3, wb, attraction, a-b-db, 14, 3, 5, 35, 195, 120, 111, 181, 120, 195, 1, 0.70061
252, 3, wb, attraction, a-b-db, 9, 1, 5, 36, 57, 129, 60, 135, 135, 60, 1, 2.20651
252, 3, wb, attraction, a-b-db, 9, 1, 5, 36, 57, 129, 60, 135, 135, 60, 3, 0.724489
252, 3, wb, attraction, a-b-da, 9, 3, 5, 37, 186, 114, 120, 195, 195, 120, 1, 1.65286
252, 3, wb, attraction, a-b-da, 9, 3, 5, 37, 186, 114, 120, 195, 195, 120, 3, 1.11366
252, 3, wb, attraction, a-b-db, 14, 1, 6, 1, 56, 125, 60, 135, 135, 60, 1, 0.938465
252, 3, wb, attraction, a-b-db, 14, 1, 6, 1, 56, 125, 60, 135, 135, 60, 3, 1.54752
252, 3, wb, attraction, a-b-da, 5, 1, 6, 2, 60, 135, 132, 58, 135, 60, 3, 2.20292
252, 3, wb, attraction, a-b-da, 5, 1, 6, 2, 60, 135, 132, 58, 135, 60, 1, 1.86568
252, 3, wb, filler, NA, 999, 999, 6, 3, 78, 57, 160, 138, 106, 121, 1, 1.03615
252, 3, wb, filler, NA, 999, 999, 6, 3, 78, 57, 160, 138, 106, 121, 2, 0.369933
252, 3, wb, attraction, a-b-da, 2, 1, 6, 4, 60, 135, 135, 60, 134, 59, 1, 4.29701
252, 3, wb, attraction, a-b-da, 2, 1, 6, 4, 60, 135, 135, 60, 134, 59, 3, 0.691014
252, 3, wb, filler, NA, 999, 999, 6, 5, 68, 188, 73, 120, 90, 164, 2, 1.48469
252, 3, wb, filler, NA, 999, 999, 6, 5, 68, 188, 73, 120, 90, 164, 3, 1.16019
252, 3, wb, attraction, a-b-da, 5, 2, 6, 6, 165, 90, 90, 165, 161, 88, 2, 3.67914
252, 3, wb, attraction, a-b-da, 5, 2, 6, 6, 165, 90, 90, 165, 161, 88, 3, 1.32198
252, 3, wb, attraction, a-b-db, 9, 2, 6, 7, 90, 165, 86, 157, 165, 90, 2, 2.75479
252, 3, wb, attraction, a-b-db, 9, 2, 6, 7, 90, 165, 86, 157, 165, 90, 3, 2.24258
252, 3, wb, attraction, a-b-db, 2, 2, 6, 8, 90, 165, 165, 90, 89, 163, 1, 1.22989
252, 3, wb, attraction, a-b-db, 2, 2, 6, 8, 90, 165, 165, 90, 89, 163, 3, 1.24345
252, 3, wb, attraction, a-b-da, 9, 1, 6, 9, 135, 60, 129, 57, 60, 135, 2, 3.85505
252, 3, wb, attraction, a-b-da, 9, 1, 6, 9, 135, 60, 129, 57, 60, 135, 3, 0.875067
252, 3, wb, attraction, a-b-da, 14, 2, 6, 10, 90, 165, 153, 83, 165, 90, 2, 4.64554
252, 3, wb, attraction, a-b-da, 14, 2, 6, 10, 90, 165, 153, 83, 165, 90, 3, 1.75337
252, 3, wb, attraction, a-b-da, 14, 3, 6, 11, 195, 120, 181, 111, 120, 195, 2, 1.11265
252, 3, wb, attraction, a-b-da, 14, 3, 6, 11, 195, 120, 181, 111, 120, 195, 3, 1.02698
252, 3, wb, filler, NA, 999, 999, 6, 12, 150, 115, 195, 136, 191, 89, 1, 1.75138
252, 3, wb, filler, NA, 999, 999, 6, 12, 150, 115, 195, 136, 191, 89, 2, 0.520055
252, 3, wb, filler, NA, 999, 999, 6, 13, 59, 66, 83, 165, 83, 80, 1, 1.64105
252, 3, wb, filler, NA, 999, 999, 6, 13, 59, 66, 83, 165, 83, 80, 2, 0.486032
252, 3, wb, catch, NA, 999, 999, 6, 14, 81, 114, 157, 158, 106, 149, 1, 0.816396
252, 3, wb, catch, NA, 999, 999, 6, 14, 81, 114, 157, 158, 106, 149, 2, 0.806921
252, 3, wb, filler, NA, 999, 999, 6, 15, 115, 129, 109, 108, 135, 195, 2, 0.819762
252, 3, wb, filler, NA, 999, 999, 6, 15, 115, 129, 109, 108, 135, 195, 3, 0.754122
252, 3, wb, attraction, a-b-db, 5, 3, 6, 16, 195, 120, 120, 195, 117, 190, 2, 1.76995
252, 3, wb, attraction, a-b-db, 5, 3, 6, 16, 195, 120, 120, 195, 117, 190, 1, 0.793921
252, 3, wb, attraction, a-b-da, 2, 2, 6, 17, 165, 90, 163, 89, 90, 165, 1, 2.80766
252, 3, wb, attraction, a-b-da, 2, 2, 6, 17, 165, 90, 163, 89, 90, 165, 2, 0.677583
252, 3, wb, filler, NA, 999, 999, 6, 18, 129, 70, 79, 100, 66, 84, 3, 0.607842
252, 3, wb, filler, NA, 999, 999, 6, 18, 129, 70, 79, 100, 66, 84, 1, 0.702302
252, 3, wb, filler, NA, 999, 999, 6, 19, 73, 115, 60, 152, 103, 59, 3, 2.45609
252, 3, wb, filler, NA, 999, 999, 6, 19, 73, 115, 60, 152, 103, 59, 2, 0.891927
252, 3, wb, attraction, a-b-db, 2, 1, 6, 20, 59, 134, 135, 60, 60, 135, 1, 1.20554
252, 3, wb, attraction, a-b-db, 2, 1, 6, 20, 59, 134, 135, 60, 60, 135, 3, 0.579746
252, 3, wb, attraction, a-b-da, 9, 2, 6, 21, 165, 90, 90, 165, 157, 86, 1, 0.730259
252, 3, wb, attraction, a-b-da, 9, 2, 6, 21, 165, 90, 90, 165, 157, 86, 2, 1.09992
252, 3, wb, filler, NA, 999, 999, 6, 22, 86, 102, 64, 57, 158, 104, 2, 0.93363
252, 3, wb, filler, NA, 999, 999, 6, 22, 86, 102, 64, 57, 158, 104, 3, 0.43928
252, 3, wb, attraction, a-b-db, 14, 3, 6, 23, 195, 120, 111, 181, 120, 195, 2, 1.10768
252, 3, wb, attraction, a-b-db, 14, 3, 6, 23, 195, 120, 111, 181, 120, 195, 1, 0.606211
252, 3, wb, attraction, a-b-db, 2, 3, 6, 24, 195, 120, 119, 193, 120, 195, 2, 1.4438
252, 3, wb, attraction, a-b-db, 2, 3, 6, 24, 195, 120, 119, 193, 120, 195, 3, 0.880611
252, 3, wb, catch, NA, 999, 999, 6, 25, 148, 107, 97, 98, 183, 132, 2, 0.76292
252, 3, wb, catch, NA, 999, 999, 6, 25, 148, 107, 97, 98, 183, 132, 3, 0.403241
252, 3, wb, attraction, a-b-db, 5, 2, 6, 26, 165, 90, 90, 165, 88, 161, 1, 2.33711
252, 3, wb, attraction, a-b-db, 5, 2, 6, 26, 165, 90, 90, 165, 88, 161, 2, 0.394417
252, 3, wb, attraction, a-b-da, 2, 3, 6, 27, 195, 120, 193, 119, 120, 195, 3, 3.56017
252, 3, wb, attraction, a-b-da, 2, 3, 6, 27, 195, 120, 193, 119, 120, 195, 2, 0.71182
252, 3, wb, attraction, a-b-db, 5, 1, 6, 28, 58, 132, 60, 135, 135, 60, 3, 2.12081
252, 3, wb, attraction, a-b-db, 5, 1, 6, 28, 58, 132, 60, 135, 135, 60, 2, 1.04276
252, 3, wb, attraction, a-b-db, 9, 3, 6, 29, 195, 120, 120, 195, 114, 186, 2, 1.74258
252, 3, wb, attraction, a-b-db, 9, 3, 6, 29, 195, 120, 120, 195, 114, 186, 1, 0.647208
252, 3, wb, catch, NA, 999, 999, 6, 30, 145, 110, 133, 62, 172, 143, 2, 2.09094
252, 3, wb, catch, NA, 999, 999, 6, 30, 145, 110, 133, 62, 172, 143, 3, 0.381531
252, 3, wb, attraction, a-b-da, 5, 3, 6, 31, 190, 117, 195, 120, 120, 195, 1, 1.32408
252, 3, wb, attraction, a-b-da, 5, 3, 6, 31, 190, 117, 195, 120, 120, 195, 3, 0.469869
252, 3, wb, attraction, a-b-da, 14, 1, 6, 32, 125, 56, 135, 60, 60, 135, 1, 0.848703
252, 3, wb, attraction, a-b-da, 14, 1, 6, 32, 125, 56, 135, 60, 60, 135, 3, 0.597744
252, 3, wb, attraction, a-b-da, 9, 3, 6, 33, 186, 114, 120, 195, 195, 120, 1, 1.09173
252, 3, wb, attraction, a-b-da, 9, 3, 6, 33, 186, 114, 120, 195, 195, 120, 2, 0.374517
252, 3, wb, filler, NA, 999, 999, 6, 34, 142, 140, 62, 116, 90, 76, 2, 2.41307
252, 3, wb, filler, NA, 999, 999, 6, 34, 142, 140, 62, 116, 90, 76, 1, 0.314863
252, 3, wb, attraction, a-b-db, 14, 2, 6, 35, 90, 165, 83, 153, 165, 90, 2, 1.8282
252, 3, wb, attraction, a-b-db, 14, 2, 6, 35, 90, 165, 83, 153, 165, 90, 3, 0.537461
252, 3, wb, attraction, a-b-db, 9, 1, 6, 36, 60, 135, 57, 129, 135, 60, 2, 1.87398
252, 3, wb, attraction, a-b-db, 9, 1, 6, 36, 60, 135, 57, 129, 135, 60, 3, 3.02935
252, 3, wb, filler, NA, 999, 999, 6, 37, 145, 100, 79, 157, 193, 123, 2, 1.53715
252, 3, wb, filler, NA, 999, 999, 6, 37, 145, 100, 79, 157, 193, 123, 3, 0.58642
252, 3, wb, filler, NA, 999, 999, 7, 1, 87, 75, 141, 117, 106, 120, 1, 0.616809
252, 3, wb, filler, NA, 999, 999, 7, 1, 87, 75, 141, 117, 106, 120, 2, 0.455329
252, 3, wb, attraction, a-b-da, 5, 1, 7, 2, 135, 60, 60, 135, 132, 58, 3, 1.35511
252, 3, wb, attraction, a-b-da, 5, 1, 7, 2, 135, 60, 60, 135, 132, 58, 2, 0.355308
252, 3, wb, attraction, a-b-db, 2, 1, 7, 3, 59, 134, 60, 135, 135, 60, 1, 0.883192
252, 3, wb, attraction, a-b-db, 2, 1, 7, 3, 59, 134, 60, 135, 135, 60, 2, 0.622852
252, 3, wb, attraction, a-b-db, 2, 3, 7, 4, 119, 193, 120, 195, 195, 120, 1, 1.44396
252, 3, wb, attraction, a-b-db, 2, 3, 7, 4, 119, 193, 120, 195, 195, 120, 2, 0.568781
252, 3, wb, attraction, a-b-db, 9, 1, 7, 5, 135, 60, 60, 135, 57, 129, 3, 1.39185
252, 3, wb, attraction, a-b-db, 9, 1, 7, 5, 135, 60, 60, 135, 57, 129, 2, 0.798757
252, 3, wb, attraction, a-b-da, 2, 2, 7, 6, 163, 89, 90, 165, 165, 90, 1, 2.12451
252, 3, wb, attraction, a-b-da, 2, 2, 7, 6, 163, 89, 90, 165, 165, 90, 2, 0.789904
252, 3, wb, catch, NA, 999, 999, 7, 7, 132, 63, 144, 171, 146, 109, 1, 0.932152
252, 3, wb, catch, NA, 999, 999, 7, 7, 132, 63, 144, 171, 146, 109, 2, 0.78983
252, 3, wb, attraction, a-b-db, 2, 2, 7, 8, 89, 163, 90, 165, 165, 90, 1, 1.86006
252, 3, wb, attraction, a-b-db, 2, 2, 7, 8, 89, 163, 90, 165, 165, 90, 2, 0.352186
252, 3, wb, attraction, a-b-db, 14, 1, 7, 9, 60, 135, 135, 60, 56, 125, 1, 1.04003
252, 3, wb, attraction, a-b-db, 14, 1, 7, 9, 60, 135, 135, 60, 56, 125, 2, 0.829171
252, 3, wb, attraction, a-b-da, 9, 2, 7, 10, 165, 90, 157, 86, 90, 165, 1, 1.5376
252, 3, wb, attraction, a-b-da, 9, 2, 7, 10, 165, 90, 157, 86, 90, 165, 3, 0.562965
252, 3, wb, filler, NA, 999, 999, 7, 11, 134, 105, 146, 147, 68, 115, 3, 1.05805
252, 3, wb, filler, NA, 999, 999, 7, 11, 134, 105, 146, 147, 68, 115, 2, 0.414292
252, 3, wb, attraction, a-b-db, 9, 2, 7, 12, 90, 165, 86, 157, 165, 90, 2, 2.05945
252, 3, wb, attraction, a-b-db, 9, 2, 7, 12, 90, 165, 86, 157, 165, 90, 3, 0.76744
252, 3, wb, attraction, a-b-da, 14, 1, 7, 13, 60, 135, 135, 60, 125, 56, 1, 0.878428
252, 3, wb, attraction, a-b-da, 14, 1, 7, 13, 60, 135, 135, 60, 125, 56, 2, 0.426153
252, 3, wb, attraction, a-b-da, 5, 2, 7, 14, 165, 90, 90, 165, 161, 88, 1, 1.00666
252, 3, wb, attraction, a-b-da, 5, 2, 7, 14, 165, 90, 90, 165, 161, 88, 2, 0.444926
252, 3, wb, catch, NA, 999, 999, 7, 15, 121, 134, 104, 91, 159, 156, 2, 0.928797
252, 3, wb, catch, NA, 999, 999, 7, 15, 121, 134, 104, 91, 159, 156, 3, 0.658499
252, 3, wb, attraction, a-b-da, 2, 3, 7, 16, 195, 120, 120, 195, 193, 119, 1, 0.773506
252, 3, wb, attraction, a-b-da, 2, 3, 7, 16, 195, 120, 120, 195, 193, 119, 2, 0.373253
252, 3, wb, attraction, a-b-db, 5, 3, 7, 17, 120, 195, 195, 120, 117, 190, 1, 1.05981
252, 3, wb, attraction, a-b-db, 5, 3, 7, 17, 120, 195, 195, 120, 117, 190, 2, 0.520168
252, 3, wb, filler, NA, 999, 999, 7, 18, 106, 60, 143, 85, 113, 59, 1, 0.609297
252, 3, wb, filler, NA, 999, 999, 7, 18, 106, 60, 143, 85, 113, 59, 2, 0.655662
252, 3, wb, filler, NA, 999, 999, 7, 19, 179, 143, 112, 184, 147, 61, 3, 1.96332
252, 3, wb, filler, NA, 999, 999, 7, 19, 179, 143, 112, 184, 147, 61, 1, 0.435335
252, 3, wb, filler, NA, 999, 999, 7, 20, 114, 141, 101, 129, 112, 134, 2, 0.911856
252, 3, wb, filler, NA, 999, 999, 7, 20, 114, 141, 101, 129, 112, 134, 1, 0.514169
252, 3, wb, filler, NA, 999, 999, 7, 21, 72, 62, 147, 186, 162, 94, 1, 0.93131
252, 3, wb, filler, NA, 999, 999, 7, 21, 72, 62, 147, 186, 162, 94, 2, 0.341122
252, 3, wb, filler, NA, 999, 999, 7, 22, 98, 95, 149, 162, 175, 165, 1, 1.1728
252, 3, wb, filler, NA, 999, 999, 7, 22, 98, 95, 149, 162, 175, 165, 2, 0.532391
252, 3, wb, attraction, a-b-da, 14, 3, 7, 23, 120, 195, 181, 111, 195, 120, 2, 0.828867
252, 3, wb, attraction, a-b-da, 14, 3, 7, 23, 120, 195, 181, 111, 195, 120, 1, 1.10655
252, 3, wb, attraction, a-b-db, 5, 1, 7, 24, 58, 132, 135, 60, 60, 135, 2, 0.756101
252, 3, wb, attraction, a-b-db, 5, 1, 7, 24, 58, 132, 135, 60, 60, 135, 3, 1.06058
252, 3, wb, filler, NA, 999, 999, 7, 25, 150, 194, 61, 133, 69, 80, 3, 0.999537
252, 3, wb, filler, NA, 999, 999, 7, 25, 150, 194, 61, 133, 69, 80, 1, 0.390579
252, 3, wb, attraction, a-b-db, 14, 2, 7, 26, 165, 90, 83, 153, 90, 165, 1, 0.892337
252, 3, wb, attraction, a-b-db, 14, 2, 7, 26, 165, 90, 83, 153, 90, 165, 2, 0.367399
252, 3, wb, attraction, a-b-db, 5, 2, 7, 27, 90, 165, 165, 90, 88, 161, 2, 1.02261
252, 3, wb, attraction, a-b-db, 5, 2, 7, 27, 90, 165, 165, 90, 88, 161, 3, 0.380212
252, 3, wb, attraction, a-b-db, 14, 3, 7, 28, 111, 181, 120, 195, 195, 120, 1, 0.546894
252, 3, wb, attraction, a-b-db, 14, 3, 7, 28, 111, 181, 120, 195, 195, 120, 2, 0.387835
252, 3, wb, attraction, a-b-da, 2, 1, 7, 29, 134, 59, 135, 60, 60, 135, 3, 1.05834
252, 3, wb, attraction, a-b-da, 2, 1, 7, 29, 134, 59, 135, 60, 60, 135, 2, 0.422657
252, 3, wb, attraction, a-b-da, 14, 2, 7, 30, 153, 83, 90, 165, 165, 90, 1, 0.667831
252, 3, wb, attraction, a-b-da, 14, 2, 7, 30, 153, 83, 90, 165, 165, 90, 2, 0.392187
252, 3, wb, attraction, a-b-da, 5, 3, 7, 31, 195, 120, 120, 195, 190, 117, 1, 1.054
252, 3, wb, attraction, a-b-da, 5, 3, 7, 31, 195, 120, 120, 195, 190, 117, 2, 0.474997
252, 3, wb, attraction, a-b-da, 9, 3, 7, 32, 120, 195, 195, 120, 186, 114, 1, 0.565425
252, 3, wb, attraction, a-b-da, 9, 3, 7, 32, 120, 195, 195, 120, 186, 114, 2, 0.365985
252, 3, wb, catch, NA, 999, 999, 7, 33, 162, 93, 171, 144, 98, 97, 3, 0.957129
252, 3, wb, catch, NA, 999, 999, 7, 33, 162, 93, 171, 144, 98, 97, 2, 0.357515
252, 3, wb, filler, NA, 999, 999, 7, 34, 157, 181, 142, 120, 158, 182, 2, 0.956465
252, 3, wb, filler, NA, 999, 999, 7, 34, 157, 181, 142, 120, 158, 182, 1, 0.380887
252, 3, wb, attraction, a-b-da, 9, 1, 7, 35, 135, 60, 60, 135, 129, 57, 2, 0.763302
252, 3, wb, attraction, a-b-da, 9, 1, 7, 35, 135, 60, 60, 135, 129, 57, 1, 0.555729
252, 3, wb, attraction, a-b-db, 9, 3, 7, 36, 195, 120, 120, 195, 114, 186, 2, 1.30769
252, 3, wb, attraction, a-b-db, 9, 3, 7, 36, 195, 120, 120, 195, 114, 186, 1, 0.381861
252, 3, wb, filler, NA, 999, 999, 7, 37, 74, 75, 139, 72, 144, 68, 1, 0.652313
252, 3, wb, filler, NA, 999, 999, 7, 37, 74, 75, 139, 72, 144, 68, 2, 0.745461
252, 3, wb, attraction, a-b-da, 14, 2, 8, 1, 165, 90, 90, 165, 153, 83, 2, 0.729082
252, 3, wb, attraction, a-b-da, 14, 2, 8, 1, 165, 90, 90, 165, 153, 83, 1, 0.506824
252, 3, wb, attraction, a-b-da, 9, 3, 8, 2, 120, 195, 195, 120, 186, 114, 1, 1.01193
252, 3, wb, attraction, a-b-da, 9, 3, 8, 2, 120, 195, 195, 120, 186, 114, 2, 0.5222
252, 3, wb, filler, NA, 999, 999, 8, 3, 59, 121, 193, 194, 191, 80, 1, 0.739301
252, 3, wb, filler, NA, 999, 999, 8, 3, 59, 121, 193, 194, 191, 80, 2, 0.324434
252, 3, wb, attraction, a-b-da, 5, 1, 8, 4, 135, 60, 132, 58, 60, 135, 3, 0.724988
252, 3, wb, attraction, a-b-da, 5, 1, 8, 4, 135, 60, 132, 58, 60, 135, 2, 0.726671
252, 3, wb, filler, NA, 999, 999, 8, 5, 150, 107, 141, 73, 76, 60, 3, 0.567152
252, 3, wb, filler, NA, 999, 999, 8, 5, 150, 107, 141, 73, 76, 60, 1, 1.03151
252, 3, wb, filler, NA, 999, 999, 8, 6, 188, 91, 76, 139, 152, 73, 2, 0.923887
252, 3, wb, filler, NA, 999, 999, 8, 6, 188, 91, 76, 139, 152, 73, 1, 0.629464
252, 3, wb, filler, NA, 999, 999, 8, 7, 149, 103, 94, 113, 170, 131, 2, 0.79399
252, 3, wb, filler, NA, 999, 999, 8, 7, 149, 103, 94, 113, 170, 131, 3, 0.369076
252, 3, wb, attraction, a-b-da, 9, 2, 8, 8, 165, 90, 157, 86, 90, 165, 2, 1.28822
252, 3, wb, attraction, a-b-da, 9, 2, 8, 8, 165, 90, 157, 86, 90, 165, 1, 0.627727
252, 3, wb, filler, NA, 999, 999, 8, 9, 163, 148, 152, 104, 72, 75, 3, 1.04025
252, 3, wb, filler, NA, 999, 999, 8, 9, 163, 148, 152, 104, 72, 75, 1, 0.701042
252, 3, wb, attraction, a-b-da, 14, 1, 8, 10, 135, 60, 125, 56, 60, 135, 2, 0.950815
252, 3, wb, attraction, a-b-da, 14, 1, 8, 10, 135, 60, 125, 56, 60, 135, 3, 0.455882
252, 3, wb, attraction, a-b-db, 9, 3, 8, 11, 120, 195, 114, 186, 195, 120, 1, 0.811615
252, 3, wb, attraction, a-b-db, 9, 3, 8, 11, 120, 195, 114, 186, 195, 120, 2, 0.377958
252, 3, wb, attraction, a-b-db, 5, 1, 8, 12, 58, 132, 60, 135, 135, 60, 1, 0.736435
252, 3, wb, attraction, a-b-db, 5, 1, 8, 12, 58, 132, 60, 135, 135, 60, 2, 0.346276
252, 3, wb, attraction, a-b-da, 9, 1, 8, 13, 60, 135, 135, 60, 129, 57, 1, 1.06619
252, 3, wb, attraction, a-b-da, 9, 1, 8, 13, 60, 135, 135, 60, 129, 57, 2, 0.614539
252, 3, wb, filler, NA, 999, 999, 8, 14, 117, 69, 128, 59, 76, 86, 3, 2.19553
252, 3, wb, filler, NA, 999, 999, 8, 14, 117, 69, 128, 59, 76, 86, 1, 0.874284
252, 3, wb, catch, NA, 999, 999, 8, 15, 118, 137, 150, 165, 117, 78, 3, 1.34046
252, 3, wb, catch, NA, 999, 999, 8, 15, 118, 137, 150, 165, 117, 78, 2, 0.429265
252, 3, wb, catch, NA, 999, 999, 8, 16, 170, 145, 125, 130, 98, 97, 3, 0.993903
252, 3, wb, catch, NA, 999, 999, 8, 16, 170, 145, 125, 130, 98, 97, 1, 0.464773
252, 3, wb, attraction, a-b-db, 14, 1, 8, 17, 56, 125, 60, 135, 135, 60, 1, 0.716047
252, 3, wb, attraction, a-b-db, 14, 1, 8, 17, 56, 125, 60, 135, 135, 60, 2, 0.438287
252, 3, wb, filler, NA, 999, 999, 8, 18, 169, 158, 82, 122, 157, 81, 2, 1.24288
252, 3, wb, filler, NA, 999, 999, 8, 18, 169, 158, 82, 122, 157, 81, 1, 0.375797
252, 3, wb, filler, NA, 999, 999, 8, 19, 118, 83, 76, 166, 137, 108, 1, 1.35038
252, 3, wb, filler, NA, 999, 999, 8, 19, 118, 83, 76, 166, 137, 108, 3, 0.383164
252, 3, wb, attraction, a-b-db, 9, 1, 8, 20, 57, 129, 60, 135, 135, 60, 1, 0.693588
252, 3, wb, attraction, a-b-db, 9, 1, 8, 20, 57, 129, 60, 135, 135, 60, 3, 0.888808
252, 3, wb, catch, NA, 999, 999, 8, 21, 93, 162, 87, 108, 170, 145, 2, 0.682995
252, 3, wb, catch, NA, 999, 999, 8, 21, 93, 162, 87, 108, 170, 145, 3, 0.478735
252, 3, wb, attraction, a-b-db, 5, 3, 8, 22, 120, 195, 195, 120, 117, 190, 2, 1.32925
252, 3, wb, attraction, a-b-db, 5, 3, 8, 22, 120, 195, 195, 120, 117, 190, 1, 0.298774
252, 3, wb, filler, NA, 999, 999, 8, 23, 107, 110, 145, 56, 180, 174, 1, 1.18073
252, 3, wb, filler, NA, 999, 999, 8, 23, 107, 110, 145, 56, 180, 174, 3, 0.220222
252, 3, wb, attraction, a-b-da, 5, 2, 8, 24, 165, 90, 90, 165, 161, 88, 1, 1.41749
252, 3, wb, attraction, a-b-da, 5, 2, 8, 24, 165, 90, 90, 165, 161, 88, 2, 0.375646
252, 3, wb, attraction, a-b-da, 2, 2, 8, 25, 90, 165, 165, 90, 163, 89, 1, 0.950181
252, 3, wb, attraction, a-b-da, 2, 2, 8, 25, 90, 165, 165, 90, 163, 89, 2, 0.575282
252, 3, wb, attraction, a-b-db, 5, 2, 8, 26, 165, 90, 90, 165, 88, 161, 1, 0.813498
252, 3, wb, attraction, a-b-db, 5, 2, 8, 26, 165, 90, 90, 165, 88, 161, 2, 0.355951
252, 3, wb, attraction, a-b-db, 14, 3, 8, 27, 120, 195, 111, 181, 195, 120, 2, 1.89178
252, 3, wb, attraction, a-b-db, 14, 3, 8, 27, 120, 195, 111, 181, 195, 120, 3, 0.294858
252, 3, wb, attraction, a-b-db, 2, 3, 8, 28, 195, 120, 120, 195, 119, 193, 2, 1.20038
252, 3, wb, attraction, a-b-db, 2, 3, 8, 28, 195, 120, 120, 195, 119, 193, 1, 0.352041
252, 3, wb, attraction, a-b-db, 2, 2, 8, 29, 90, 165, 165, 90, 89, 163, 1, 0.839146
252, 3, wb, attraction, a-b-db, 2, 2, 8, 29, 90, 165, 165, 90, 89, 163, 2, 0.292184
252, 3, wb, attraction, a-b-db, 9, 2, 8, 30, 90, 165, 86, 157, 165, 90, 1, 0.885983
252, 3, wb, attraction, a-b-db, 9, 2, 8, 30, 90, 165, 86, 157, 165, 90, 3, 0.425748
252, 3, wb, attraction, a-b-da, 14, 3, 8, 31, 195, 120, 120, 195, 181, 111, 1, 1.61427
252, 3, wb, attraction, a-b-da, 14, 3, 8, 31, 195, 120, 120, 195, 181, 111, 2, 0.300359
252, 3, wb, attraction, a-b-da, 5, 3, 8, 32, 195, 120, 190, 117, 120, 195, 3, 1.06209
252, 3, wb, attraction, a-b-da, 5, 3, 8, 32, 195, 120, 190, 117, 120, 195, 1, 0.410564
252, 3, wb, filler, NA, 999, 999, 8, 33, 154, 61, 109, 93, 188, 194, 2, 1.23167
252, 3, wb, filler, NA, 999, 999, 8, 33, 154, 61, 109, 93, 188, 194, 3, 0.30914
252, 3, wb, attraction, a-b-db, 2, 1, 8, 34, 60, 135, 135, 60, 59, 134, 3, 1.31836
252, 3, wb, attraction, a-b-db, 2, 1, 8, 34, 60, 135, 135, 60, 59, 134, 2, 0.688641
252, 3, wb, attraction, a-b-da, 2, 3, 8, 35, 193, 119, 195, 120, 120, 195, 1, 0.803112
252, 3, wb, attraction, a-b-da, 2, 3, 8, 35, 193, 119, 195, 120, 120, 195, 3, 0.666057
252, 3, wb, attraction, a-b-db, 14, 2, 8, 36, 83, 153, 90, 165, 165, 90, 1, 0.909069
252, 3, wb, attraction, a-b-db, 14, 2, 8, 36, 83, 153, 90, 165, 165, 90, 2, 0.759457
252, 3, wb, attraction, a-b-da, 2, 1, 8, 37, 134, 59, 60, 135, 135, 60, 1, 0.790447
252, 3, wb, attraction, a-b-da, 2, 1, 8, 37, 134, 59, 60, 135, 135, 60, 2, 0.357589
