sub_n, computer_n, bw_cond, effect, set, distance, diag, block_n, trial_n, h1, w1, h2, w2, h3, w3, choice, rt 
242, 3, wb, practice, NA, 999, 999, 0, 1, 110, 104, 160, 127, 79, 81, 3, 2.22714
242, 3, wb, practice, NA, 999, 999, 0, 1, 110, 104, 160, 127, 79, 81, 2, 3.31792
242, 3, wb, practice, NA, 999, 999, 0, 2, 125, 166, 87, 150, 192, 111, 2, 2.83468
242, 3, wb, practice, NA, 999, 999, 0, 2, 125, 166, 87, 150, 192, 111, 1, 2.4576
242, 3, wb, practice, NA, 999, 999, 0, 3, 153, 176, 130, 57, 121, 195, 2, 1.83242
242, 3, wb, practice, NA, 999, 999, 0, 3, 153, 176, 130, 57, 121, 195, 1, 0.854202
242, 3, wb, filler, NA, 999, 999, 1, 1, 73, 113, 166, 169, 174, 195, 1, 1.12863
242, 3, wb, filler, NA, 999, 999, 1, 1, 73, 113, 166, 169, 174, 195, 3, 1.10622
242, 3, wb, filler, NA, 999, 999, 1, 2, 57, 187, 138, 141, 87, 90, 3, 1.26787
242, 3, wb, filler, NA, 999, 999, 1, 2, 57, 187, 138, 141, 87, 90, 2, 0.808072
242, 3, wb, filler, NA, 999, 999, 1, 3, 78, 133, 110, 148, 64, 171, 1, 1.4932
242, 3, wb, filler, NA, 999, 999, 1, 3, 78, 133, 110, 148, 64, 171, 2, 0.696029
242, 3, wb, attraction, a-b-db, 14, 2, 1, 4, 165, 90, 90, 165, 83, 153, 3, 6.11377
242, 3, wb, attraction, a-b-db, 14, 2, 1, 4, 165, 90, 90, 165, 83, 153, 2, 6.73053
242, 3, wb, attraction, a-b-db, 5, 3, 1, 5, 117, 190, 120, 195, 195, 120, 3, 6.65694
242, 3, wb, attraction, a-b-db, 5, 3, 1, 5, 117, 190, 120, 195, 195, 120, 2, 2.00349
242, 3, wb, filler, NA, 999, 999, 1, 6, 102, 184, 77, 94, 166, 152, 2, 1.01672
242, 3, wb, filler, NA, 999, 999, 1, 6, 102, 184, 77, 94, 166, 152, 3, 0.687198
242, 3, wb, filler, NA, 999, 999, 1, 7, 95, 106, 150, 172, 123, 121, 1, 0.977525
242, 3, wb, filler, NA, 999, 999, 1, 7, 95, 106, 150, 172, 123, 121, 2, 0.753138
242, 3, wb, attraction, a-b-da, 14, 1, 1, 8, 135, 60, 125, 56, 60, 135, 2, 9.72093
242, 3, wb, attraction, a-b-da, 14, 1, 1, 8, 135, 60, 125, 56, 60, 135, 3, 1.74445
242, 3, wb, attraction, a-b-db, 14, 3, 1, 9, 120, 195, 111, 181, 195, 120, 2, 4.82386
242, 3, wb, attraction, a-b-db, 14, 3, 1, 9, 120, 195, 111, 181, 195, 120, 1, 2.29232
242, 3, wb, attraction, a-b-db, 5, 1, 1, 10, 135, 60, 60, 135, 58, 132, 2, 2.77357
242, 3, wb, attraction, a-b-db, 5, 1, 1, 10, 135, 60, 60, 135, 58, 132, 1, 0.652637
242, 3, wb, catch, NA, 999, 999, 1, 11, 84, 111, 110, 145, 192, 123, 1, 1.37645
242, 3, wb, catch, NA, 999, 999, 1, 11, 84, 111, 110, 145, 192, 123, 3, 0.575994
242, 3, wb, attraction, a-b-da, 5, 1, 1, 12, 135, 60, 60, 135, 132, 58, 3, 9.78239
242, 3, wb, attraction, a-b-da, 5, 1, 1, 12, 135, 60, 60, 135, 132, 58, 2, 0.675255
242, 3, wb, attraction, a-b-da, 14, 3, 1, 13, 181, 111, 195, 120, 120, 195, 1, 6.17375
242, 3, wb, attraction, a-b-da, 14, 3, 1, 13, 181, 111, 195, 120, 120, 195, 3, 0.835862
242, 3, wb, attraction, a-b-da, 9, 1, 1, 14, 60, 135, 129, 57, 135, 60, 3, 2.54405
242, 3, wb, attraction, a-b-da, 9, 1, 1, 14, 60, 135, 129, 57, 135, 60, 1, 0.504605
242, 3, wb, attraction, a-b-db, 2, 1, 1, 15, 135, 60, 60, 135, 59, 134, 1, 3.40234
242, 3, wb, attraction, a-b-db, 2, 1, 1, 15, 135, 60, 60, 135, 59, 134, 3, 2.5926
242, 3, wb, catch, NA, 999, 999, 1, 16, 117, 138, 96, 99, 180, 135, 2, 0.917722
242, 3, wb, catch, NA, 999, 999, 1, 16, 117, 138, 96, 99, 180, 135, 3, 0.45617
242, 3, wb, attraction, a-b-db, 9, 1, 1, 17, 60, 135, 135, 60, 57, 129, 3, 2.92391
242, 3, wb, attraction, a-b-db, 9, 1, 1, 17, 60, 135, 135, 60, 57, 129, 1, 1.28486
242, 3, wb, attraction, a-b-da, 2, 2, 1, 18, 163, 89, 90, 165, 165, 90, 3, 2.27921
242, 3, wb, attraction, a-b-da, 2, 2, 1, 18, 163, 89, 90, 165, 165, 90, 2, 1.64243
242, 3, wb, attraction, a-b-da, 2, 1, 1, 19, 134, 59, 135, 60, 60, 135, 2, 5.35793
242, 3, wb, attraction, a-b-da, 2, 1, 1, 19, 134, 59, 135, 60, 60, 135, 3, 1.46875
242, 3, wb, attraction, a-b-db, 2, 2, 1, 20, 90, 165, 165, 90, 89, 163, 2, 9.29558
242, 3, wb, attraction, a-b-db, 2, 2, 1, 20, 90, 165, 165, 90, 89, 163, 1, 1.02397
242, 3, wb, filler, NA, 999, 999, 1, 21, 63, 162, 189, 143, 68, 192, 1, 0.948256
242, 3, wb, filler, NA, 999, 999, 1, 21, 63, 162, 189, 143, 68, 192, 2, 0.821455
242, 3, wb, attraction, a-b-da, 2, 3, 1, 22, 193, 119, 120, 195, 195, 120, 1, 6.12226
242, 3, wb, attraction, a-b-da, 2, 3, 1, 22, 193, 119, 120, 195, 195, 120, 2, 1.04305
242, 3, wb, filler, NA, 999, 999, 1, 23, 151, 150, 64, 92, 167, 62, 2, 1.18269
242, 3, wb, filler, NA, 999, 999, 1, 23, 151, 150, 64, 92, 167, 62, 1, 0.462388
242, 3, wb, attraction, a-b-da, 5, 3, 1, 24, 195, 120, 120, 195, 190, 117, 3, 9.92146
242, 3, wb, attraction, a-b-da, 5, 3, 1, 24, 195, 120, 120, 195, 190, 117, 2, 0.584893
242, 3, wb, attraction, a-b-da, 14, 2, 1, 25, 90, 165, 165, 90, 153, 83, 3, 1.12738
242, 3, wb, attraction, a-b-da, 14, 2, 1, 25, 90, 165, 165, 90, 153, 83, 1, 1.19302
242, 3, wb, filler, NA, 999, 999, 1, 26, 72, 154, 129, 141, 173, 80, 1, 0.910639
242, 3, wb, filler, NA, 999, 999, 1, 26, 72, 154, 129, 141, 173, 80, 2, 0.504919
242, 3, wb, attraction, a-b-db, 5, 2, 1, 27, 90, 165, 88, 161, 165, 90, 2, 5.42664
242, 3, wb, attraction, a-b-db, 5, 2, 1, 27, 90, 165, 88, 161, 165, 90, 3, 4.28702
242, 3, wb, attraction, a-b-da, 5, 2, 1, 28, 90, 165, 165, 90, 161, 88, 3, 4.64845
242, 3, wb, attraction, a-b-da, 5, 2, 1, 28, 90, 165, 165, 90, 161, 88, 1, 0.564308
242, 3, wb, attraction, a-b-da, 9, 3, 1, 29, 195, 120, 186, 114, 120, 195, 2, 10.9152
242, 3, wb, attraction, a-b-da, 9, 3, 1, 29, 195, 120, 186, 114, 120, 195, 3, 0.818388
242, 3, wb, attraction, a-b-db, 14, 1, 1, 30, 56, 125, 135, 60, 60, 135, 1, 3.05549
242, 3, wb, attraction, a-b-db, 14, 1, 1, 30, 56, 125, 135, 60, 60, 135, 3, 2.27521
242, 3, wb, attraction, a-b-db, 2, 3, 1, 31, 120, 195, 195, 120, 119, 193, 2, 2.43716
242, 3, wb, attraction, a-b-db, 2, 3, 1, 31, 120, 195, 195, 120, 119, 193, 1, 1.41026
242, 3, wb, filler, NA, 999, 999, 1, 32, 189, 102, 137, 63, 121, 152, 2, 1.09511
242, 3, wb, filler, NA, 999, 999, 1, 32, 189, 102, 137, 63, 121, 152, 3, 7.6181
242, 3, wb, attraction, a-b-db, 9, 2, 1, 33, 90, 165, 86, 157, 165, 90, 2, 3.53301
242, 3, wb, attraction, a-b-db, 9, 2, 1, 33, 90, 165, 86, 157, 165, 90, 1, 5.27029
242, 3, wb, attraction, a-b-da, 9, 2, 1, 34, 157, 86, 90, 165, 165, 90, 1, 3.4394
242, 3, wb, attraction, a-b-da, 9, 2, 1, 34, 157, 86, 90, 165, 165, 90, 2, 0.451672
242, 3, wb, attraction, a-b-db, 9, 3, 1, 35, 195, 120, 114, 186, 120, 195, 1, 5.00755
242, 3, wb, attraction, a-b-db, 9, 3, 1, 35, 195, 120, 114, 186, 120, 195, 3, 0.876594
242, 3, wb, catch, NA, 999, 999, 1, 36, 113, 142, 165, 150, 86, 109, 3, 0.934921
242, 3, wb, catch, NA, 999, 999, 1, 36, 113, 142, 165, 150, 86, 109, 2, 0.536738
242, 3, wb, filler, NA, 999, 999, 1, 37, 89, 77, 63, 132, 79, 162, 1, 1.13701
242, 3, wb, filler, NA, 999, 999, 1, 37, 89, 77, 63, 132, 79, 162, 3, 0.626805
242, 3, wb, attraction, a-b-da, 14, 1, 2, 1, 135, 60, 125, 56, 60, 135, 2, 1.159
242, 3, wb, attraction, a-b-da, 14, 1, 2, 1, 135, 60, 125, 56, 60, 135, 3, 2.52742
242, 3, wb, attraction, a-b-da, 5, 1, 2, 2, 132, 58, 135, 60, 60, 135, 1, 2.93514
242, 3, wb, attraction, a-b-da, 5, 1, 2, 2, 132, 58, 135, 60, 60, 135, 2, 4.53613
242, 3, wb, attraction, a-b-db, 2, 3, 2, 3, 119, 193, 195, 120, 120, 195, 2, 5.80738
242, 3, wb, attraction, a-b-db, 2, 3, 2, 3, 119, 193, 195, 120, 120, 195, 3, 0.780331
242, 3, wb, filler, NA, 999, 999, 2, 4, 108, 113, 161, 177, 133, 102, 1, 1.85057
242, 3, wb, filler, NA, 999, 999, 2, 4, 108, 113, 161, 177, 133, 102, 2, 0.759322
242, 3, wb, filler, NA, 999, 999, 2, 5, 61, 63, 101, 65, 181, 133, 1, 0.87829
242, 3, wb, filler, NA, 999, 999, 2, 5, 61, 63, 101, 65, 181, 133, 3, 0.410135
242, 3, wb, filler, NA, 999, 999, 2, 6, 122, 187, 57, 84, 145, 136, 2, 0.81518
242, 3, wb, filler, NA, 999, 999, 2, 6, 122, 187, 57, 84, 145, 136, 1, 3.27769
242, 3, wb, attraction, a-b-db, 2, 2, 2, 7, 89, 163, 165, 90, 90, 165, 1, 3.3912
242, 3, wb, attraction, a-b-db, 2, 2, 2, 7, 89, 163, 165, 90, 90, 165, 3, 3.36552
242, 3, wb, attraction, a-b-da, 9, 3, 2, 8, 195, 120, 186, 114, 120, 195, 2, 3.30761
242, 3, wb, attraction, a-b-da, 9, 3, 2, 8, 195, 120, 186, 114, 120, 195, 3, 0.917251
242, 3, wb, attraction, a-b-da, 14, 3, 2, 9, 181, 111, 195, 120, 120, 195, 1, 2.91036
242, 3, wb, attraction, a-b-da, 14, 3, 2, 9, 181, 111, 195, 120, 120, 195, 3, 0.591959
242, 3, wb, attraction, a-b-db, 9, 1, 2, 10, 135, 60, 57, 129, 60, 135, 2, 5.6697
242, 3, wb, attraction, a-b-db, 9, 1, 2, 10, 135, 60, 57, 129, 60, 135, 3, 1.12857
242, 3, wb, attraction, a-b-db, 2, 1, 2, 11, 59, 134, 60, 135, 135, 60, 2, 4.18492
242, 3, wb, attraction, a-b-db, 2, 1, 2, 11, 59, 134, 60, 135, 135, 60, 1, 1.04753
242, 3, wb, filler, NA, 999, 999, 2, 12, 186, 59, 121, 75, 161, 95, 2, 1.39523
242, 3, wb, filler, NA, 999, 999, 2, 12, 186, 59, 121, 75, 161, 95, 3, 0.841984
242, 3, wb, attraction, a-b-da, 2, 1, 2, 13, 135, 60, 134, 59, 60, 135, 3, 2.5018
242, 3, wb, attraction, a-b-da, 2, 1, 2, 13, 135, 60, 134, 59, 60, 135, 2, 0.936324
242, 3, wb, attraction, a-b-da, 2, 2, 2, 14, 165, 90, 163, 89, 90, 165, 1, 4.32852
242, 3, wb, attraction, a-b-da, 2, 2, 2, 14, 165, 90, 163, 89, 90, 165, 3, 0.345153
242, 3, wb, catch, NA, 999, 999, 2, 15, 62, 133, 122, 133, 178, 137, 1, 0.824935
242, 3, wb, catch, NA, 999, 999, 2, 15, 62, 133, 122, 133, 178, 137, 3, 0.614904
242, 3, wb, filler, NA, 999, 999, 2, 16, 61, 179, 110, 194, 72, 88, 3, 1.73991
242, 3, wb, filler, NA, 999, 999, 2, 16, 61, 179, 110, 194, 72, 88, 2, 0.436561
242, 3, wb, attraction, a-b-da, 5, 2, 2, 17, 90, 165, 165, 90, 161, 88, 2, 2.88098
242, 3, wb, attraction, a-b-da, 5, 2, 2, 17, 90, 165, 165, 90, 161, 88, 1, 1.31608
242, 3, wb, attraction, a-b-db, 5, 3, 2, 18, 195, 120, 120, 195, 117, 190, 2, 8.46901
242, 3, wb, attraction, a-b-db, 5, 3, 2, 18, 195, 120, 120, 195, 117, 190, 3, 2.27094
242, 3, wb, attraction, a-b-db, 9, 3, 2, 19, 195, 120, 120, 195, 114, 186, 1, 1.09768
242, 3, wb, attraction, a-b-db, 9, 3, 2, 19, 195, 120, 120, 195, 114, 186, 2, 0.748557
242, 3, wb, filler, NA, 999, 999, 2, 20, 173, 174, 167, 175, 86, 140, 3, 1.42824
242, 3, wb, filler, NA, 999, 999, 2, 20, 173, 174, 167, 175, 86, 140, 2, 5.37781
242, 3, wb, catch, NA, 999, 999, 2, 21, 111, 84, 109, 146, 159, 156, 1, 1.08657
242, 3, wb, catch, NA, 999, 999, 2, 21, 111, 84, 109, 146, 159, 156, 3, 0.554222
242, 3, wb, filler, NA, 999, 999, 2, 22, 85, 152, 81, 177, 98, 98, 3, 1.44201
242, 3, wb, filler, NA, 999, 999, 2, 22, 85, 152, 81, 177, 98, 98, 1, 1.31097
242, 3, wb, attraction, a-b-da, 9, 1, 2, 23, 60, 135, 135, 60, 129, 57, 3, 7.44772
242, 3, wb, attraction, a-b-da, 9, 1, 2, 23, 60, 135, 135, 60, 129, 57, 1, 0.690816
242, 3, wb, catch, NA, 999, 999, 2, 24, 121, 74, 183, 132, 152, 103, 1, 0.948463
242, 3, wb, catch, NA, 999, 999, 2, 24, 121, 74, 183, 132, 152, 103, 2, 0.485411
242, 3, wb, attraction, a-b-db, 14, 3, 2, 25, 120, 195, 195, 120, 111, 181, 2, 3.81588
242, 3, wb, attraction, a-b-db, 14, 3, 2, 25, 120, 195, 195, 120, 111, 181, 1, 0.869459
242, 3, wb, filler, NA, 999, 999, 2, 26, 118, 112, 164, 97, 177, 152, 1, 0.888349
242, 3, wb, filler, NA, 999, 999, 2, 26, 118, 112, 164, 97, 177, 152, 3, 0.819503
242, 3, wb, attraction, a-b-db, 5, 2, 2, 27, 165, 90, 88, 161, 90, 165, 2, 4.94434
242, 3, wb, attraction, a-b-db, 5, 2, 2, 27, 165, 90, 88, 161, 90, 165, 1, 2.43213
242, 3, wb, attraction, a-b-da, 14, 2, 2, 28, 90, 165, 153, 83, 165, 90, 2, 1.51606
242, 3, wb, attraction, a-b-da, 14, 2, 2, 28, 90, 165, 153, 83, 165, 90, 1, 1.93421
242, 3, wb, attraction, a-b-db, 9, 2, 2, 29, 86, 157, 165, 90, 90, 165, 1, 1.86222
242, 3, wb, attraction, a-b-db, 9, 2, 2, 29, 86, 157, 165, 90, 90, 165, 3, 0.626371
242, 3, wb, attraction, a-b-da, 9, 2, 2, 30, 165, 90, 90, 165, 157, 86, 3, 2.69468
242, 3, wb, attraction, a-b-da, 9, 2, 2, 30, 165, 90, 90, 165, 157, 86, 2, 1.45714
242, 3, wb, attraction, a-b-db, 14, 1, 2, 31, 60, 135, 56, 125, 135, 60, 2, 1.00391
242, 3, wb, attraction, a-b-db, 14, 1, 2, 31, 60, 135, 56, 125, 135, 60, 1, 1.70702
242, 3, wb, attraction, a-b-db, 5, 1, 2, 32, 135, 60, 60, 135, 58, 132, 1, 0.859665
242, 3, wb, attraction, a-b-db, 5, 1, 2, 32, 135, 60, 60, 135, 58, 132, 2, 1.07209
242, 3, wb, filler, NA, 999, 999, 2, 33, 133, 125, 68, 66, 126, 176, 2, 0.723014
242, 3, wb, filler, NA, 999, 999, 2, 33, 133, 125, 68, 66, 126, 176, 3, 0.436735
242, 3, wb, attraction, a-b-db, 14, 2, 2, 34, 90, 165, 165, 90, 83, 153, 3, 2.8173
242, 3, wb, attraction, a-b-db, 14, 2, 2, 34, 90, 165, 165, 90, 83, 153, 1, 1.11905
242, 3, wb, attraction, a-b-da, 2, 3, 2, 35, 195, 120, 120, 195, 193, 119, 3, 8.03994
242, 3, wb, attraction, a-b-da, 2, 3, 2, 35, 195, 120, 120, 195, 193, 119, 2, 1.25137
242, 3, wb, attraction, a-b-da, 5, 3, 2, 36, 190, 117, 195, 120, 120, 195, 1, 7.31102
242, 3, wb, attraction, a-b-da, 5, 3, 2, 36, 190, 117, 195, 120, 120, 195, 3, 0.56734
242, 3, wb, filler, NA, 999, 999, 2, 37, 148, 103, 88, 144, 95, 85, 3, 0.950381
242, 3, wb, filler, NA, 999, 999, 2, 37, 148, 103, 88, 144, 95, 85, 1, 2.6234
242, 3, wb, attraction, a-b-da, 9, 1, 3, 1, 135, 60, 60, 135, 129, 57, 3, 5.45193
242, 3, wb, attraction, a-b-da, 9, 1, 3, 1, 135, 60, 60, 135, 129, 57, 2, 0.599472
242, 3, wb, attraction, a-b-db, 9, 2, 3, 2, 90, 165, 165, 90, 86, 157, 2, 1.36524
242, 3, wb, attraction, a-b-db, 9, 2, 3, 2, 90, 165, 165, 90, 86, 157, 1, 0.861434
242, 3, wb, filler, NA, 999, 999, 3, 3, 119, 99, 151, 82, 85, 163, 1, 2.49639
242, 3, wb, filler, NA, 999, 999, 3, 3, 119, 99, 151, 82, 85, 163, 3, 1.13092
242, 3, wb, attraction, a-b-da, 2, 3, 3, 4, 195, 120, 193, 119, 120, 195, 3, 3.78724
242, 3, wb, attraction, a-b-da, 2, 3, 3, 4, 195, 120, 193, 119, 120, 195, 2, 0.754122
242, 3, wb, attraction, a-b-db, 14, 1, 3, 5, 60, 135, 56, 125, 135, 60, 2, 0.929602
242, 3, wb, attraction, a-b-db, 14, 1, 3, 5, 60, 135, 56, 125, 135, 60, 1, 1.71548
242, 3, wb, catch, NA, 999, 999, 3, 6, 133, 62, 142, 173, 141, 114, 1, 1.25222
242, 3, wb, catch, NA, 999, 999, 3, 6, 133, 62, 142, 173, 141, 114, 2, 0.849022
242, 3, wb, catch, NA, 999, 999, 3, 7, 155, 100, 175, 140, 115, 80, 3, 0.700642
242, 3, wb, catch, NA, 999, 999, 3, 7, 155, 100, 175, 140, 115, 80, 2, 0.527895
242, 3, wb, filler, NA, 999, 999, 3, 8, 168, 177, 99, 129, 157, 147, 2, 0.656182
242, 3, wb, filler, NA, 999, 999, 3, 8, 168, 177, 99, 129, 157, 147, 1, 0.428718
242, 3, wb, attraction, a-b-da, 5, 1, 3, 9, 132, 58, 60, 135, 135, 60, 1, 2.60122
242, 3, wb, attraction, a-b-da, 5, 1, 3, 9, 132, 58, 60, 135, 135, 60, 2, 0.447695
242, 3, wb, attraction, a-b-db, 2, 3, 3, 10, 195, 120, 119, 193, 120, 195, 1, 3.33142
242, 3, wb, attraction, a-b-db, 2, 3, 3, 10, 195, 120, 119, 193, 120, 195, 2, 0.508323
242, 3, wb, attraction, a-b-db, 14, 3, 3, 11, 195, 120, 120, 195, 111, 181, 1, 1.11746
242, 3, wb, attraction, a-b-db, 14, 3, 3, 11, 195, 120, 120, 195, 111, 181, 2, 0.407826
242, 3, wb, attraction, a-b-da, 9, 3, 3, 12, 186, 114, 120, 195, 195, 120, 1, 1.07681
242, 3, wb, attraction, a-b-da, 9, 3, 3, 12, 186, 114, 120, 195, 195, 120, 2, 0.384641
242, 3, wb, filler, NA, 999, 999, 3, 13, 184, 169, 136, 128, 195, 85, 3, 1.04708
242, 3, wb, filler, NA, 999, 999, 3, 13, 184, 169, 136, 128, 195, 85, 1, 0.620066
242, 3, wb, filler, NA, 999, 999, 3, 14, 117, 126, 131, 74, 127, 150, 2, 0.841074
242, 3, wb, filler, NA, 999, 999, 3, 14, 117, 126, 131, 74, 127, 150, 3, 0.91813
242, 3, wb, filler, NA, 999, 999, 3, 15, 118, 127, 152, 110, 156, 112, 1, 2.63112
242, 3, wb, filler, NA, 999, 999, 3, 15, 118, 127, 152, 110, 156, 112, 3, 0.820284
242, 3, wb, filler, NA, 999, 999, 3, 16, 119, 107, 112, 78, 189, 77, 2, 1.15329
242, 3, wb, filler, NA, 999, 999, 3, 16, 119, 107, 112, 78, 189, 77, 1, 6.22619
242, 3, wb, filler, NA, 999, 999, 3, 17, 148, 76, 131, 82, 63, 92, 3, 5.14104
242, 3, wb, filler, NA, 999, 999, 3, 17, 148, 76, 131, 82, 63, 92, 1, 0.588594
242, 3, wb, attraction, a-b-da, 2, 1, 3, 18, 60, 135, 135, 60, 134, 59, 1, 1.93909
242, 3, wb, attraction, a-b-da, 2, 1, 3, 18, 60, 135, 135, 60, 134, 59, 2, 0.587862
242, 3, wb, catch, NA, 999, 999, 3, 19, 136, 119, 155, 160, 103, 92, 3, 0.818219
242, 3, wb, catch, NA, 999, 999, 3, 19, 136, 119, 155, 160, 103, 92, 2, 0.672521
242, 3, wb, attraction, a-b-db, 2, 1, 3, 20, 59, 134, 60, 135, 135, 60, 1, 1.53959
242, 3, wb, attraction, a-b-db, 2, 1, 3, 20, 59, 134, 60, 135, 135, 60, 3, 0.812586
242, 3, wb, attraction, a-b-da, 2, 2, 3, 21, 165, 90, 163, 89, 90, 165, 3, 4.76145
242, 3, wb, attraction, a-b-da, 2, 2, 3, 21, 165, 90, 163, 89, 90, 165, 2, 2.03261
242, 3, wb, attraction, a-b-da, 14, 2, 3, 22, 165, 90, 90, 165, 153, 83, 1, 4.24462
242, 3, wb, attraction, a-b-da, 14, 2, 3, 22, 165, 90, 90, 165, 153, 83, 2, 0.568496
242, 3, wb, filler, NA, 999, 999, 3, 23, 89, 109, 173, 138, 85, 153, 1, 0.959737
242, 3, wb, filler, NA, 999, 999, 3, 23, 89, 109, 173, 138, 85, 153, 2, 0.527963
242, 3, wb, attraction, a-b-db, 14, 2, 3, 24, 90, 165, 83, 153, 165, 90, 2, 9.00044
242, 3, wb, attraction, a-b-db, 14, 2, 3, 24, 90, 165, 83, 153, 165, 90, 1, 1.60496
242, 3, wb, filler, NA, 999, 999, 3, 25, 184, 60, 135, 163, 143, 82, 1, 3.01035
242, 3, wb, filler, NA, 999, 999, 3, 25, 184, 60, 135, 163, 143, 82, 2, 0.400076
242, 3, wb, attraction, a-b-db, 2, 2, 3, 26, 165, 90, 89, 163, 90, 165, 1, 4.26185
242, 3, wb, attraction, a-b-db, 2, 2, 3, 26, 165, 90, 89, 163, 90, 165, 2, 0.441291
242, 3, wb, attraction, a-b-da, 14, 3, 3, 27, 181, 111, 195, 120, 120, 195, 1, 2.38106
242, 3, wb, attraction, a-b-da, 14, 3, 3, 27, 181, 111, 195, 120, 120, 195, 3, 1.24434
242, 3, wb, attraction, a-b-da, 5, 3, 3, 28, 120, 195, 195, 120, 190, 117, 3, 2.35183
242, 3, wb, attraction, a-b-da, 5, 3, 3, 28, 120, 195, 195, 120, 190, 117, 1, 0.888374
242, 3, wb, attraction, a-b-da, 14, 1, 3, 29, 135, 60, 125, 56, 60, 135, 2, 2.69862
242, 3, wb, attraction, a-b-da, 14, 1, 3, 29, 135, 60, 125, 56, 60, 135, 3, 3.42916
242, 3, wb, attraction, a-b-db, 5, 1, 3, 30, 135, 60, 58, 132, 60, 135, 1, 1.51268
242, 3, wb, attraction, a-b-db, 5, 1, 3, 30, 135, 60, 58, 132, 60, 135, 3, 1.05079
242, 3, wb, attraction, a-b-da, 9, 2, 3, 31, 90, 165, 157, 86, 165, 90, 2, 4.91056
242, 3, wb, attraction, a-b-da, 9, 2, 3, 31, 90, 165, 157, 86, 165, 90, 1, 0.711568
242, 3, wb, attraction, a-b-db, 9, 3, 3, 32, 195, 120, 120, 195, 114, 186, 1, 6.72863
242, 3, wb, attraction, a-b-db, 9, 3, 3, 32, 195, 120, 120, 195, 114, 186, 2, 0.584484
242, 3, wb, attraction, a-b-db, 9, 1, 3, 33, 135, 60, 57, 129, 60, 135, 2, 2.61493
242, 3, wb, attraction, a-b-db, 9, 1, 3, 33, 135, 60, 57, 129, 60, 135, 3, 3.12478
242, 3, wb, filler, NA, 999, 999, 3, 34, 106, 130, 186, 72, 89, 182, 2, 4.86836
242, 3, wb, filler, NA, 999, 999, 3, 34, 106, 130, 186, 72, 89, 182, 3, 0.655626
242, 3, wb, attraction, a-b-db, 5, 3, 3, 35, 120, 195, 117, 190, 195, 120, 2, 7.00328
242, 3, wb, attraction, a-b-db, 5, 3, 3, 35, 120, 195, 117, 190, 195, 120, 3, 0.472289
242, 3, wb, attraction, a-b-db, 5, 2, 3, 36, 90, 165, 165, 90, 88, 161, 2, 3.36349
242, 3, wb, attraction, a-b-db, 5, 2, 3, 36, 90, 165, 165, 90, 88, 161, 1, 4.38709
242, 3, wb, attraction, a-b-da, 5, 2, 3, 37, 165, 90, 161, 88, 90, 165, 1, 5.32034
242, 3, wb, attraction, a-b-da, 5, 2, 3, 37, 165, 90, 161, 88, 90, 165, 2, 1.33734
242, 3, wb, attraction, a-b-da, 14, 2, 4, 1, 153, 83, 90, 165, 165, 90, 1, 3.0095
242, 3, wb, attraction, a-b-da, 14, 2, 4, 1, 153, 83, 90, 165, 165, 90, 2, 0.463232
242, 3, wb, attraction, a-b-db, 14, 3, 4, 2, 111, 181, 120, 195, 195, 120, 1, 2.08232
242, 3, wb, attraction, a-b-db, 14, 3, 4, 2, 111, 181, 120, 195, 195, 120, 2, 0.445575
242, 3, wb, attraction, a-b-db, 2, 3, 4, 3, 195, 120, 120, 195, 119, 193, 1, 1.23351
242, 3, wb, attraction, a-b-db, 2, 3, 4, 3, 195, 120, 120, 195, 119, 193, 2, 1.49513
242, 3, wb, filler, NA, 999, 999, 4, 4, 69, 87, 159, 155, 89, 142, 1, 0.784428
242, 3, wb, filler, NA, 999, 999, 4, 4, 69, 87, 159, 155, 89, 142, 2, 0.384183
242, 3, wb, filler, NA, 999, 999, 4, 5, 81, 71, 148, 187, 62, 74, 3, 2.80675
242, 3, wb, filler, NA, 999, 999, 4, 5, 81, 71, 148, 187, 62, 74, 2, 0.420611
242, 3, wb, filler, NA, 999, 999, 4, 6, 135, 120, 134, 131, 83, 99, 3, 1.20167
242, 3, wb, filler, NA, 999, 999, 4, 6, 135, 120, 134, 131, 83, 99, 2, 3.97656
242, 3, wb, attraction, a-b-db, 5, 2, 4, 7, 90, 165, 88, 161, 165, 90, 2, 1.80609
242, 3, wb, attraction, a-b-db, 5, 2, 4, 7, 90, 165, 88, 161, 165, 90, 1, 2.04398
242, 3, wb, attraction, a-b-da, 5, 2, 4, 8, 90, 165, 161, 88, 165, 90, 2, 4.00726
242, 3, wb, attraction, a-b-da, 5, 2, 4, 8, 90, 165, 161, 88, 165, 90, 1, 1.14869
242, 3, wb, attraction, a-b-db, 9, 1, 4, 9, 60, 135, 135, 60, 57, 129, 3, 1.53243
242, 3, wb, attraction, a-b-db, 9, 1, 4, 9, 60, 135, 135, 60, 57, 129, 2, 2.47773
242, 3, wb, attraction, a-b-da, 9, 2, 4, 10, 157, 86, 90, 165, 165, 90, 1, 2.03958
242, 3, wb, attraction, a-b-da, 9, 2, 4, 10, 157, 86, 90, 165, 165, 90, 3, 0.476297
242, 3, wb, attraction, a-b-da, 5, 1, 4, 11, 132, 58, 135, 60, 60, 135, 2, 0.870691
242, 3, wb, attraction, a-b-da, 5, 1, 4, 11, 132, 58, 135, 60, 60, 135, 1, 0.307092
242, 3, wb, filler, NA, 999, 999, 4, 12, 73, 85, 171, 59, 57, 65, 3, 0.708254
242, 3, wb, filler, NA, 999, 999, 4, 12, 73, 85, 171, 59, 57, 65, 2, 1.9027
242, 3, wb, catch, NA, 999, 999, 4, 13, 154, 161, 75, 120, 111, 144, 2, 1.72799
242, 3, wb, catch, NA, 999, 999, 4, 13, 154, 161, 75, 120, 111, 144, 1, 0.521505
242, 3, wb, attraction, a-b-da, 9, 1, 4, 14, 129, 57, 60, 135, 135, 60, 3, 0.762626
242, 3, wb, attraction, a-b-da, 9, 1, 4, 14, 129, 57, 60, 135, 135, 60, 2, 0.498994
242, 3, wb, filler, NA, 999, 999, 4, 15, 193, 153, 57, 135, 71, 176, 2, 0.868688
242, 3, wb, filler, NA, 999, 999, 4, 15, 193, 153, 57, 135, 71, 176, 1, 0.465091
242, 3, wb, attraction, a-b-db, 9, 2, 4, 16, 90, 165, 86, 157, 165, 90, 2, 2.95632
242, 3, wb, attraction, a-b-db, 9, 2, 4, 16, 90, 165, 86, 157, 165, 90, 1, 2.88401
242, 3, wb, attraction, a-b-da, 14, 3, 4, 17, 120, 195, 195, 120, 181, 111, 3, 17.2137
242, 3, wb, attraction, a-b-da, 14, 3, 4, 17, 120, 195, 195, 120, 181, 111, 1, 0.439035
242, 3, wb, attraction, a-b-db, 14, 2, 4, 18, 83, 153, 90, 165, 165, 90, 1, 2.63548
242, 3, wb, attraction, a-b-db, 14, 2, 4, 18, 83, 153, 90, 165, 165, 90, 2, 1.48852
242, 3, wb, attraction, a-b-db, 5, 3, 4, 19, 117, 190, 195, 120, 120, 195, 2, 2.9387
242, 3, wb, attraction, a-b-db, 5, 3, 4, 19, 117, 190, 195, 120, 120, 195, 3, 0.531266
242, 3, wb, attraction, a-b-db, 2, 2, 4, 20, 165, 90, 89, 163, 90, 165, 2, 1.41157
242, 3, wb, attraction, a-b-db, 2, 2, 4, 20, 165, 90, 89, 163, 90, 165, 3, 1.00979
242, 3, wb, attraction, a-b-da, 14, 1, 4, 21, 135, 60, 60, 135, 125, 56, 3, 1.03869
242, 3, wb, attraction, a-b-da, 14, 1, 4, 21, 135, 60, 60, 135, 125, 56, 1, 0.475678
242, 3, wb, attraction, a-b-db, 2, 1, 4, 22, 135, 60, 59, 134, 60, 135, 2, 0.702275
242, 3, wb, attraction, a-b-db, 2, 1, 4, 22, 135, 60, 59, 134, 60, 135, 1, 0.633245
242, 3, wb, attraction, a-b-da, 5, 3, 4, 23, 195, 120, 120, 195, 190, 117, 3, 1.72568
242, 3, wb, attraction, a-b-da, 5, 3, 4, 23, 195, 120, 120, 195, 190, 117, 2, 0.887239
242, 3, wb, filler, NA, 999, 999, 4, 24, 195, 100, 122, 142, 108, 91, 3, 0.713456
242, 3, wb, filler, NA, 999, 999, 4, 24, 195, 100, 122, 142, 108, 91, 2, 0.531933
242, 3, wb, attraction, a-b-da, 2, 2, 4, 25, 163, 89, 90, 165, 165, 90, 3, 3.79626
242, 3, wb, attraction, a-b-da, 2, 2, 4, 25, 163, 89, 90, 165, 165, 90, 2, 0.338368
242, 3, wb, filler, NA, 999, 999, 4, 26, 56, 194, 165, 72, 111, 90, 3, 1.92299
242, 3, wb, filler, NA, 999, 999, 4, 26, 56, 194, 165, 72, 111, 90, 2, 1.14028
242, 3, wb, attraction, a-b-da, 9, 3, 4, 27, 195, 120, 186, 114, 120, 195, 2, 2.57183
242, 3, wb, attraction, a-b-da, 9, 3, 4, 27, 195, 120, 186, 114, 120, 195, 3, 0.443665
242, 3, wb, catch, NA, 999, 999, 4, 28, 152, 163, 133, 122, 87, 108, 3, 1.07147
242, 3, wb, catch, NA, 999, 999, 4, 28, 152, 163, 133, 122, 87, 108, 1, 0.387836
242, 3, wb, attraction, a-b-da, 2, 1, 4, 29, 60, 135, 135, 60, 134, 59, 2, 2.30631
242, 3, wb, attraction, a-b-da, 2, 1, 4, 29, 60, 135, 135, 60, 134, 59, 3, 0.444237
242, 3, wb, attraction, a-b-da, 2, 3, 4, 30, 120, 195, 195, 120, 193, 119, 2, 2.19203
242, 3, wb, attraction, a-b-da, 2, 3, 4, 30, 120, 195, 195, 120, 193, 119, 3, 3.13463
242, 3, wb, attraction, a-b-db, 14, 1, 4, 31, 135, 60, 56, 125, 60, 135, 2, 5.62224
242, 3, wb, attraction, a-b-db, 14, 1, 4, 31, 135, 60, 56, 125, 60, 135, 1, 0.48314
242, 3, wb, attraction, a-b-db, 5, 1, 4, 32, 60, 135, 135, 60, 58, 132, 2, 0.917606
242, 3, wb, attraction, a-b-db, 5, 1, 4, 32, 60, 135, 135, 60, 58, 132, 1, 0.511978
242, 3, wb, filler, NA, 999, 999, 4, 33, 146, 106, 119, 86, 58, 128, 3, 0.713052
242, 3, wb, filler, NA, 999, 999, 4, 33, 146, 106, 119, 86, 58, 128, 1, 0.499545
242, 3, wb, filler, NA, 999, 999, 4, 34, 110, 81, 76, 68, 86, 86, 2, 0.845228
242, 3, wb, filler, NA, 999, 999, 4, 34, 110, 81, 76, 68, 86, 86, 1, 0.394412
242, 3, wb, catch, NA, 999, 999, 4, 35, 152, 163, 129, 66, 103, 152, 2, 1.07226
242, 3, wb, catch, NA, 999, 999, 4, 35, 152, 163, 129, 66, 103, 152, 1, 0.323771
242, 3, wb, filler, NA, 999, 999, 4, 36, 166, 129, 71, 56, 100, 180, 2, 0.780279
242, 3, wb, filler, NA, 999, 999, 4, 36, 166, 129, 71, 56, 100, 180, 1, 0.324036
242, 3, wb, attraction, a-b-db, 9, 3, 4, 37, 195, 120, 120, 195, 114, 186, 2, 10.6684
242, 3, wb, attraction, a-b-db, 9, 3, 4, 37, 195, 120, 120, 195, 114, 186, 1, 0.717772
242, 3, wb, filler, NA, 999, 999, 5, 1, 195, 118, 57, 129, 73, 63, 3, 3.1255
242, 3, wb, filler, NA, 999, 999, 5, 1, 195, 118, 57, 129, 73, 63, 1, 0.638596
242, 3, wb, filler, NA, 999, 999, 5, 2, 71, 123, 188, 80, 72, 180, 1, 2.97087
242, 3, wb, filler, NA, 999, 999, 5, 2, 71, 123, 188, 80, 72, 180, 3, 1.00266
242, 3, wb, attraction, a-b-da, 5, 2, 5, 3, 161, 88, 90, 165, 165, 90, 1, 3.39229
242, 3, wb, attraction, a-b-da, 5, 2, 5, 3, 161, 88, 90, 165, 165, 90, 2, 0.430501
242, 3, wb, attraction, a-b-db, 9, 3, 5, 4, 120, 195, 114, 186, 195, 120, 3, 1.99488
242, 3, wb, attraction, a-b-db, 9, 3, 5, 4, 120, 195, 114, 186, 195, 120, 1, 0.769666
242, 3, wb, attraction, a-b-da, 5, 3, 5, 5, 190, 117, 120, 195, 195, 120, 1, 3.73671
242, 3, wb, attraction, a-b-da, 5, 3, 5, 5, 190, 117, 120, 195, 195, 120, 2, 0.641497
242, 3, wb, filler, NA, 999, 999, 5, 6, 140, 94, 70, 178, 186, 101, 1, 8.50114
242, 3, wb, filler, NA, 999, 999, 5, 6, 140, 94, 70, 178, 186, 101, 3, 0.629828
242, 3, wb, filler, NA, 999, 999, 5, 7, 161, 121, 169, 80, 84, 162, 2, 7.0503
242, 3, wb, filler, NA, 999, 999, 5, 7, 161, 121, 169, 80, 84, 162, 1, 0.429317
242, 3, wb, attraction, a-b-db, 5, 1, 5, 8, 60, 135, 135, 60, 58, 132, 1, 2.14583
242, 3, wb, attraction, a-b-db, 5, 1, 5, 8, 60, 135, 135, 60, 58, 132, 3, 0.602422
242, 3, wb, filler, NA, 999, 999, 5, 9, 79, 59, 75, 134, 59, 68, 3, 0.960291
242, 3, wb, filler, NA, 999, 999, 5, 9, 79, 59, 75, 134, 59, 68, 2, 0.336662
242, 3, wb, attraction, a-b-db, 9, 1, 5, 10, 135, 60, 60, 135, 57, 129, 3, 3.51312
242, 3, wb, attraction, a-b-db, 9, 1, 5, 10, 135, 60, 60, 135, 57, 129, 2, 0.562596
242, 3, wb, attraction, a-b-db, 5, 3, 5, 11, 195, 120, 120, 195, 117, 190, 3, 9.18572
242, 3, wb, attraction, a-b-db, 5, 3, 5, 11, 195, 120, 120, 195, 117, 190, 2, 1.26279
242, 3, wb, attraction, a-b-da, 14, 2, 5, 12, 165, 90, 153, 83, 90, 165, 2, 1.65773
242, 3, wb, attraction, a-b-da, 14, 2, 5, 12, 165, 90, 153, 83, 90, 165, 3, 0.293843
242, 3, wb, attraction, a-b-db, 9, 2, 5, 13, 165, 90, 90, 165, 86, 157, 1, 3.28787
242, 3, wb, attraction, a-b-db, 9, 2, 5, 13, 165, 90, 90, 165, 86, 157, 2, 0.682657
242, 3, wb, filler, NA, 999, 999, 5, 14, 107, 82, 148, 64, 169, 192, 1, 7.23719
242, 3, wb, filler, NA, 999, 999, 5, 14, 107, 82, 148, 64, 169, 192, 3, 0.440921
242, 3, wb, attraction, a-b-da, 9, 3, 5, 15, 186, 114, 120, 195, 195, 120, 1, 1.78854
242, 3, wb, attraction, a-b-da, 9, 3, 5, 15, 186, 114, 120, 195, 195, 120, 2, 0.371349
242, 3, wb, catch, NA, 999, 999, 5, 16, 147, 168, 132, 63, 99, 156, 2, 0.962503
242, 3, wb, catch, NA, 999, 999, 5, 16, 147, 168, 132, 63, 99, 156, 1, 0.394831
242, 3, wb, attraction, a-b-db, 14, 1, 5, 17, 135, 60, 60, 135, 56, 125, 3, 3.04868
242, 3, wb, attraction, a-b-db, 14, 1, 5, 17, 135, 60, 60, 135, 56, 125, 2, 1.03709
242, 3, wb, filler, NA, 999, 999, 5, 18, 111, 100, 139, 119, 134, 78, 3, 2.48124
242, 3, wb, filler, NA, 999, 999, 5, 18, 111, 100, 139, 119, 134, 78, 2, 0.516426
242, 3, wb, filler, NA, 999, 999, 5, 19, 101, 119, 98, 109, 172, 112, 2, 2.18956
242, 3, wb, filler, NA, 999, 999, 5, 19, 101, 119, 98, 109, 172, 112, 3, 0.412364
242, 3, wb, catch, NA, 999, 999, 5, 20, 124, 131, 162, 153, 90, 105, 3, 0.961361
242, 3, wb, catch, NA, 999, 999, 5, 20, 124, 131, 162, 153, 90, 105, 2, 0.593681
242, 3, wb, attraction, a-b-da, 9, 1, 5, 21, 135, 60, 129, 57, 60, 135, 2, 0.967578
242, 3, wb, attraction, a-b-da, 9, 1, 5, 21, 135, 60, 129, 57, 60, 135, 1, 0.407733
242, 3, wb, attraction, a-b-db, 2, 3, 5, 22, 119, 193, 195, 120, 120, 195, 2, 1.54092
242, 3, wb, attraction, a-b-db, 2, 3, 5, 22, 119, 193, 195, 120, 120, 195, 3, 0.357737
242, 3, wb, attraction, a-b-da, 5, 1, 5, 23, 135, 60, 132, 58, 60, 135, 2, 1.96501
242, 3, wb, attraction, a-b-da, 5, 1, 5, 23, 135, 60, 132, 58, 60, 135, 1, 0.372859
242, 3, wb, attraction, a-b-da, 2, 3, 5, 24, 193, 119, 195, 120, 120, 195, 2, 1.43611
242, 3, wb, attraction, a-b-da, 2, 3, 5, 24, 193, 119, 195, 120, 120, 195, 1, 0.441695
242, 3, wb, filler, NA, 999, 999, 5, 25, 91, 144, 79, 106, 92, 145, 2, 0.813352
242, 3, wb, filler, NA, 999, 999, 5, 25, 91, 144, 79, 106, 92, 145, 3, 2.05979
242, 3, wb, catch, NA, 999, 999, 5, 26, 61, 134, 162, 153, 137, 118, 1, 2.19849
242, 3, wb, catch, NA, 999, 999, 5, 26, 61, 134, 162, 153, 137, 118, 2, 0.477072
242, 3, wb, attraction, a-b-da, 9, 2, 5, 27, 165, 90, 157, 86, 90, 165, 2, 1.26355
242, 3, wb, attraction, a-b-da, 9, 2, 5, 27, 165, 90, 157, 86, 90, 165, 1, 1.13982
242, 3, wb, attraction, a-b-da, 2, 1, 5, 28, 134, 59, 60, 135, 135, 60, 2, 2.88394
242, 3, wb, attraction, a-b-da, 2, 1, 5, 28, 134, 59, 60, 135, 135, 60, 3, 1.05509
242, 3, wb, attraction, a-b-da, 14, 3, 5, 29, 195, 120, 120, 195, 181, 111, 2, 0.610664
242, 3, wb, attraction, a-b-da, 14, 3, 5, 29, 195, 120, 120, 195, 181, 111, 1, 0.545129
242, 3, wb, attraction, a-b-db, 14, 3, 5, 30, 111, 181, 195, 120, 120, 195, 2, 0.624892
242, 3, wb, attraction, a-b-db, 14, 3, 5, 30, 111, 181, 195, 120, 120, 195, 3, 2.2308
242, 3, wb, attraction, a-b-da, 2, 2, 5, 31, 90, 165, 163, 89, 165, 90, 2, 1.61869
242, 3, wb, attraction, a-b-da, 2, 2, 5, 31, 90, 165, 163, 89, 165, 90, 1, 0.408777
242, 3, wb, attraction, a-b-db, 2, 2, 5, 32, 90, 165, 165, 90, 89, 163, 2, 0.789852
242, 3, wb, attraction, a-b-db, 2, 2, 5, 32, 90, 165, 165, 90, 89, 163, 1, 0.412926
242, 3, wb, filler, NA, 999, 999, 5, 33, 120, 66, 98, 144, 133, 76, 1, 1.53007
242, 3, wb, filler, NA, 999, 999, 5, 33, 120, 66, 98, 144, 133, 76, 2, 1.4837
242, 3, wb, attraction, a-b-da, 14, 1, 5, 34, 60, 135, 135, 60, 125, 56, 2, 1.00577
242, 3, wb, attraction, a-b-da, 14, 1, 5, 34, 60, 135, 135, 60, 125, 56, 3, 1.6921
242, 3, wb, attraction, a-b-db, 5, 2, 5, 35, 165, 90, 90, 165, 88, 161, 1, 2.26943
242, 3, wb, attraction, a-b-db, 5, 2, 5, 35, 165, 90, 90, 165, 88, 161, 2, 0.345976
242, 3, wb, attraction, a-b-db, 2, 1, 5, 36, 60, 135, 135, 60, 59, 134, 2, 1.17716
242, 3, wb, attraction, a-b-db, 2, 1, 5, 36, 60, 135, 135, 60, 59, 134, 3, 0.640789
242, 3, wb, attraction, a-b-db, 14, 2, 5, 37, 90, 165, 83, 153, 165, 90, 2, 1.19652
242, 3, wb, attraction, a-b-db, 14, 2, 5, 37, 90, 165, 83, 153, 165, 90, 3, 1.69972
242, 3, wb, attraction, a-b-da, 5, 1, 6, 1, 132, 58, 135, 60, 60, 135, 2, 1.19689
242, 3, wb, attraction, a-b-da, 5, 1, 6, 1, 132, 58, 135, 60, 60, 135, 1, 0.755896
242, 3, wb, attraction, a-b-da, 5, 3, 6, 2, 190, 117, 195, 120, 120, 195, 2, 2.48359
242, 3, wb, attraction, a-b-da, 5, 3, 6, 2, 190, 117, 195, 120, 120, 195, 3, 0.43877
242, 3, wb, attraction, a-b-da, 5, 2, 6, 3, 90, 165, 161, 88, 165, 90, 2, 0.963265
242, 3, wb, attraction, a-b-da, 5, 2, 6, 3, 90, 165, 161, 88, 165, 90, 3, 1.97156
242, 3, wb, attraction, a-b-db, 2, 3, 6, 4, 120, 195, 119, 193, 195, 120, 2, 1.62621
242, 3, wb, attraction, a-b-db, 2, 3, 6, 4, 120, 195, 119, 193, 195, 120, 3, 0.535697
242, 3, wb, attraction, a-b-db, 5, 2, 6, 5, 90, 165, 88, 161, 165, 90, 2, 0.86414
242, 3, wb, attraction, a-b-db, 5, 2, 6, 5, 90, 165, 88, 161, 165, 90, 3, 1.30854
242, 3, wb, attraction, a-b-da, 14, 1, 6, 6, 135, 60, 60, 135, 125, 56, 2, 1.45334
242, 3, wb, attraction, a-b-da, 14, 1, 6, 6, 135, 60, 60, 135, 125, 56, 1, 0.410143
242, 3, wb, attraction, a-b-da, 2, 3, 6, 7, 195, 120, 120, 195, 193, 119, 2, 0.751477
242, 3, wb, attraction, a-b-da, 2, 3, 6, 7, 195, 120, 120, 195, 193, 119, 3, 0.528564
242, 3, wb, attraction, a-b-db, 14, 2, 6, 8, 165, 90, 90, 165, 83, 153, 2, 0.656898
242, 3, wb, attraction, a-b-db, 14, 2, 6, 8, 165, 90, 90, 165, 83, 153, 1, 0.45342
242, 3, wb, filler, NA, 999, 999, 6, 9, 109, 149, 177, 144, 176, 160, 2, 1.29712
242, 3, wb, filler, NA, 999, 999, 6, 9, 109, 149, 177, 144, 176, 160, 1, 2.29215
242, 3, wb, filler, NA, 999, 999, 6, 10, 83, 78, 126, 195, 93, 174, 1, 3.90921
242, 3, wb, filler, NA, 999, 999, 6, 10, 83, 78, 126, 195, 93, 174, 2, 0.334734
242, 3, wb, filler, NA, 999, 999, 6, 11, 115, 161, 144, 176, 159, 152, 1, 1.88724
242, 3, wb, filler, NA, 999, 999, 6, 11, 115, 161, 144, 176, 159, 152, 2, 1.29057
242, 3, wb, catch, NA, 999, 999, 6, 12, 159, 96, 134, 181, 126, 69, 3, 1.04412
242, 3, wb, catch, NA, 999, 999, 6, 12, 159, 96, 134, 181, 126, 69, 2, 0.345095
242, 3, wb, filler, NA, 999, 999, 6, 13, 177, 177, 119, 133, 148, 91, 3, 2.62498
242, 3, wb, filler, NA, 999, 999, 6, 13, 177, 177, 119, 133, 148, 91, 1, 0.566003
242, 3, wb, attraction, a-b-da, 9, 1, 6, 14, 129, 57, 60, 135, 135, 60, 1, 1.11721
242, 3, wb, attraction, a-b-da, 9, 1, 6, 14, 129, 57, 60, 135, 135, 60, 2, 0.327624
242, 3, wb, attraction, a-b-da, 14, 2, 6, 15, 90, 165, 153, 83, 165, 90, 1, 0.975964
242, 3, wb, attraction, a-b-da, 14, 2, 6, 15, 90, 165, 153, 83, 165, 90, 2, 1.03961
242, 3, wb, attraction, a-b-db, 2, 1, 6, 16, 60, 135, 59, 134, 135, 60, 3, 1.77193
242, 3, wb, attraction, a-b-db, 2, 1, 6, 16, 60, 135, 59, 134, 135, 60, 2, 0.699396
242, 3, wb, filler, NA, 999, 999, 6, 17, 86, 99, 65, 152, 83, 152, 1, 1.34113
242, 3, wb, filler, NA, 999, 999, 6, 17, 86, 99, 65, 152, 83, 152, 3, 0.573865
242, 3, wb, attraction, a-b-da, 14, 3, 6, 18, 195, 120, 181, 111, 120, 195, 2, 1.95629
242, 3, wb, attraction, a-b-da, 14, 3, 6, 18, 195, 120, 181, 111, 120, 195, 3, 0.628389
242, 3, wb, attraction, a-b-db, 9, 2, 6, 19, 165, 90, 86, 157, 90, 165, 2, 2.62476
242, 3, wb, attraction, a-b-db, 9, 2, 6, 19, 165, 90, 86, 157, 90, 165, 3, 0.734003
242, 3, wb, attraction, a-b-da, 2, 2, 6, 20, 90, 165, 165, 90, 163, 89, 3, 1.99825
242, 3, wb, attraction, a-b-da, 2, 2, 6, 20, 90, 165, 165, 90, 163, 89, 1, 0.949055
242, 3, wb, attraction, a-b-db, 2, 2, 6, 21, 165, 90, 90, 165, 89, 163, 1, 1.08469
242, 3, wb, attraction, a-b-db, 2, 2, 6, 21, 165, 90, 90, 165, 89, 163, 2, 0.320352
242, 3, wb, filler, NA, 999, 999, 6, 22, 188, 132, 100, 72, 143, 85, 2, 0.89748
242, 3, wb, filler, NA, 999, 999, 6, 22, 188, 132, 100, 72, 143, 85, 1, 0.332589
242, 3, wb, filler, NA, 999, 999, 6, 23, 151, 174, 165, 148, 96, 70, 3, 0.669029
242, 3, wb, filler, NA, 999, 999, 6, 23, 151, 174, 165, 148, 96, 70, 1, 2.32946
242, 3, wb, attraction, a-b-db, 14, 3, 6, 24, 195, 120, 120, 195, 111, 181, 3, 2.64934
242, 3, wb, attraction, a-b-db, 14, 3, 6, 24, 195, 120, 120, 195, 111, 181, 2, 1.10172
242, 3, wb, attraction, a-b-db, 9, 1, 6, 25, 57, 129, 135, 60, 60, 135, 2, 1.45542
242, 3, wb, attraction, a-b-db, 9, 1, 6, 25, 57, 129, 135, 60, 60, 135, 1, 0.403615
242, 3, wb, catch, NA, 999, 999, 6, 26, 154, 161, 134, 61, 145, 110, 2, 0.689295
242, 3, wb, catch, NA, 999, 999, 6, 26, 154, 161, 134, 61, 145, 110, 1, 0.652602
242, 3, wb, attraction, a-b-db, 9, 3, 6, 27, 114, 186, 195, 120, 120, 195, 2, 3.45622
242, 3, wb, attraction, a-b-db, 9, 3, 6, 27, 114, 186, 195, 120, 120, 195, 3, 0.675834
242, 3, wb, attraction, a-b-db, 5, 3, 6, 28, 120, 195, 117, 190, 195, 120, 2, 1.91829
242, 3, wb, attraction, a-b-db, 5, 3, 6, 28, 120, 195, 117, 190, 195, 120, 3, 0.528209
242, 3, wb, filler, NA, 999, 999, 6, 29, 191, 112, 182, 157, 64, 169, 3, 0.832693
242, 3, wb, filler, NA, 999, 999, 6, 29, 191, 112, 182, 157, 64, 169, 2, 1.30239
242, 3, wb, catch, NA, 999, 999, 6, 30, 77, 118, 125, 190, 127, 128, 1, 0.832006
242, 3, wb, catch, NA, 999, 999, 6, 30, 77, 118, 125, 190, 127, 128, 2, 0.661599
242, 3, wb, attraction, a-b-da, 9, 2, 6, 31, 90, 165, 165, 90, 157, 86, 2, 2.81667
242, 3, wb, attraction, a-b-da, 9, 2, 6, 31, 90, 165, 165, 90, 157, 86, 3, 0.390499
242, 3, wb, attraction, a-b-da, 2, 1, 6, 32, 135, 60, 60, 135, 134, 59, 1, 1.41228
242, 3, wb, attraction, a-b-da, 2, 1, 6, 32, 135, 60, 60, 135, 134, 59, 2, 0.354531
242, 3, wb, attraction, a-b-db, 14, 1, 6, 33, 56, 125, 60, 135, 135, 60, 1, 0.730251
242, 3, wb, attraction, a-b-db, 14, 1, 6, 33, 56, 125, 60, 135, 135, 60, 2, 0.363989
242, 3, wb, attraction, a-b-db, 5, 1, 6, 34, 60, 135, 58, 132, 135, 60, 2, 0.763135
242, 3, wb, attraction, a-b-db, 5, 1, 6, 34, 60, 135, 58, 132, 135, 60, 1, 0.331568
242, 3, wb, attraction, a-b-da, 9, 3, 6, 35, 120, 195, 195, 120, 186, 114, 1, 1.20409
242, 3, wb, attraction, a-b-da, 9, 3, 6, 35, 120, 195, 195, 120, 186, 114, 2, 0.282345
242, 3, wb, filler, NA, 999, 999, 6, 36, 167, 188, 168, 59, 176, 105, 2, 1.26887
242, 3, wb, filler, NA, 999, 999, 6, 36, 167, 188, 168, 59, 176, 105, 1, 0.297158
242, 3, wb, filler, NA, 999, 999, 6, 37, 117, 173, 96, 62, 161, 79, 2, 1.01907
242, 3, wb, filler, NA, 999, 999, 6, 37, 117, 173, 96, 62, 161, 79, 1, 0.521347
242, 3, wb, attraction, a-b-db, 5, 2, 7, 1, 165, 90, 90, 165, 88, 161, 2, 3.14649
242, 3, wb, attraction, a-b-db, 5, 2, 7, 1, 165, 90, 90, 165, 88, 161, 3, 0.642761
242, 3, wb, attraction, a-b-db, 5, 3, 7, 2, 195, 120, 117, 190, 120, 195, 1, 5.07041
242, 3, wb, attraction, a-b-db, 5, 3, 7, 2, 195, 120, 117, 190, 120, 195, 3, 0.433578
242, 3, wb, attraction, a-b-da, 9, 3, 7, 3, 186, 114, 120, 195, 195, 120, 1, 1.29403
242, 3, wb, attraction, a-b-da, 9, 3, 7, 3, 186, 114, 120, 195, 195, 120, 3, 0.641004
242, 3, wb, filler, NA, 999, 999, 7, 4, 76, 102, 96, 122, 145, 87, 1, 1.22859
242, 3, wb, filler, NA, 999, 999, 7, 4, 76, 102, 96, 122, 145, 87, 3, 1.17838
242, 3, wb, attraction, a-b-da, 9, 2, 7, 5, 165, 90, 90, 165, 157, 86, 3, 1.82449
242, 3, wb, attraction, a-b-da, 9, 2, 7, 5, 165, 90, 90, 165, 157, 86, 2, 0.893986
242, 3, wb, attraction, a-b-da, 14, 2, 7, 6, 165, 90, 90, 165, 153, 83, 3, 0.82354
242, 3, wb, attraction, a-b-da, 14, 2, 7, 6, 165, 90, 90, 165, 153, 83, 2, 0.661345
242, 3, wb, attraction, a-b-da, 14, 3, 7, 7, 181, 111, 195, 120, 120, 195, 1, 1.61644
242, 3, wb, attraction, a-b-da, 14, 3, 7, 7, 181, 111, 195, 120, 120, 195, 2, 1.27039
242, 3, wb, filler, NA, 999, 999, 7, 8, 127, 140, 186, 104, 94, 95, 3, 0.785484
242, 3, wb, filler, NA, 999, 999, 7, 8, 127, 140, 186, 104, 94, 95, 1, 0.633077
242, 3, wb, filler, NA, 999, 999, 7, 9, 185, 195, 111, 168, 162, 154, 2, 3.69355
242, 3, wb, filler, NA, 999, 999, 7, 9, 185, 195, 111, 168, 162, 154, 1, 0.495615
242, 3, wb, filler, NA, 999, 999, 7, 10, 79, 155, 69, 110, 149, 170, 2, 1.24134
242, 3, wb, filler, NA, 999, 999, 7, 10, 79, 155, 69, 110, 149, 170, 3, 0.390842
242, 3, wb, attraction, a-b-db, 14, 1, 7, 11, 56, 125, 135, 60, 60, 135, 2, 0.996158
242, 3, wb, attraction, a-b-db, 14, 1, 7, 11, 56, 125, 135, 60, 60, 135, 3, 1.21124
242, 3, wb, attraction, a-b-da, 5, 2, 7, 12, 90, 165, 161, 88, 165, 90, 2, 2.69614
242, 3, wb, attraction, a-b-da, 5, 2, 7, 12, 90, 165, 161, 88, 165, 90, 3, 0.650497
242, 3, wb, attraction, a-b-da, 9, 1, 7, 13, 135, 60, 129, 57, 60, 135, 2, 0.646176
242, 3, wb, attraction, a-b-da, 9, 1, 7, 13, 135, 60, 129, 57, 60, 135, 1, 0.275273
242, 3, wb, catch, NA, 999, 999, 7, 14, 152, 103, 130, 65, 178, 137, 2, 0.565859
242, 3, wb, catch, NA, 999, 999, 7, 14, 152, 103, 130, 65, 178, 137, 3, 0.774404
242, 3, wb, filler, NA, 999, 999, 7, 15, 110, 95, 111, 134, 115, 150, 1, 0.972737
242, 3, wb, filler, NA, 999, 999, 7, 15, 110, 95, 111, 134, 115, 150, 3, 0.756372
242, 3, wb, attraction, a-b-da, 14, 1, 7, 16, 125, 56, 60, 135, 135, 60, 1, 2.81205
242, 3, wb, attraction, a-b-da, 14, 1, 7, 16, 125, 56, 60, 135, 135, 60, 2, 0.385804
242, 3, wb, attraction, a-b-da, 5, 1, 7, 17, 132, 58, 135, 60, 60, 135, 1, 0.72836
242, 3, wb, attraction, a-b-da, 5, 1, 7, 17, 132, 58, 135, 60, 60, 135, 2, 0.370046
242, 3, wb, filler, NA, 999, 999, 7, 18, 114, 193, 75, 151, 136, 149, 1, 0.993426
242, 3, wb, filler, NA, 999, 999, 7, 18, 114, 193, 75, 151, 136, 149, 2, 1.3203
242, 3, wb, attraction, a-b-db, 2, 2, 7, 19, 90, 165, 89, 163, 165, 90, 3, 3.24106
242, 3, wb, attraction, a-b-db, 2, 2, 7, 19, 90, 165, 89, 163, 165, 90, 1, 0.413438
242, 3, wb, filler, NA, 999, 999, 7, 20, 90, 158, 152, 179, 101, 69, 3, 0.634565
242, 3, wb, filler, NA, 999, 999, 7, 20, 90, 158, 152, 179, 101, 69, 2, 0.408345
242, 3, wb, catch, NA, 999, 999, 7, 21, 102, 93, 96, 159, 132, 183, 1, 1.26155
242, 3, wb, catch, NA, 999, 999, 7, 21, 102, 93, 96, 159, 132, 183, 3, 0.497734
242, 3, wb, catch, NA, 999, 999, 7, 22, 102, 153, 133, 182, 115, 80, 3, 1.2036
242, 3, wb, catch, NA, 999, 999, 7, 22, 102, 153, 133, 182, 115, 80, 2, 0.626432
242, 3, wb, filler, NA, 999, 999, 7, 23, 63, 98, 75, 90, 186, 164, 1, 1.07882
242, 3, wb, filler, NA, 999, 999, 7, 23, 63, 98, 75, 90, 186, 164, 3, 0.338395
242, 3, wb, filler, NA, 999, 999, 7, 24, 157, 185, 74, 167, 84, 150, 2, 1.69103
242, 3, wb, filler, NA, 999, 999, 7, 24, 157, 185, 74, 167, 84, 150, 1, 0.365801
242, 3, wb, attraction, a-b-da, 5, 3, 7, 25, 120, 195, 195, 120, 190, 117, 2, 3.92491
242, 3, wb, attraction, a-b-da, 5, 3, 7, 25, 120, 195, 195, 120, 190, 117, 1, 0.533655
242, 3, wb, attraction, a-b-db, 5, 1, 7, 26, 60, 135, 135, 60, 58, 132, 2, 1.28608
242, 3, wb, attraction, a-b-db, 5, 1, 7, 26, 60, 135, 135, 60, 58, 132, 3, 0.393698
242, 3, wb, attraction, a-b-db, 9, 3, 7, 27, 195, 120, 114, 186, 120, 195, 2, 4.74363
242, 3, wb, attraction, a-b-db, 9, 3, 7, 27, 195, 120, 114, 186, 120, 195, 3, 0.887383
242, 3, wb, attraction, a-b-db, 9, 2, 7, 28, 86, 157, 165, 90, 90, 165, 2, 4.33764
242, 3, wb, attraction, a-b-db, 9, 2, 7, 28, 86, 157, 165, 90, 90, 165, 3, 0.658252
242, 3, wb, attraction, a-b-db, 2, 1, 7, 29, 60, 135, 135, 60, 59, 134, 2, 0.69333
242, 3, wb, attraction, a-b-db, 2, 1, 7, 29, 60, 135, 135, 60, 59, 134, 1, 2.34439
242, 3, wb, attraction, a-b-db, 9, 1, 7, 30, 60, 135, 135, 60, 57, 129, 3, 2.1436
242, 3, wb, attraction, a-b-db, 9, 1, 7, 30, 60, 135, 135, 60, 57, 129, 2, 0.880355
242, 3, wb, attraction, a-b-da, 2, 2, 7, 31, 163, 89, 165, 90, 90, 165, 1, 4.05858
242, 3, wb, attraction, a-b-da, 2, 2, 7, 31, 163, 89, 165, 90, 90, 165, 3, 0.462047
242, 3, wb, filler, NA, 999, 999, 7, 32, 142, 131, 184, 131, 171, 149, 1, 1.20109
242, 3, wb, filler, NA, 999, 999, 7, 32, 142, 131, 184, 131, 171, 149, 3, 0.86414
242, 3, wb, attraction, a-b-da, 2, 1, 7, 33, 60, 135, 134, 59, 135, 60, 2, 2.187
242, 3, wb, attraction, a-b-da, 2, 1, 7, 33, 60, 135, 134, 59, 135, 60, 1, 0.411905
242, 3, wb, attraction, a-b-db, 14, 3, 7, 34, 195, 120, 111, 181, 120, 195, 2, 3.71153
242, 3, wb, attraction, a-b-db, 14, 3, 7, 34, 195, 120, 111, 181, 120, 195, 1, 0.712965
242, 3, wb, attraction, a-b-db, 14, 2, 7, 35, 165, 90, 90, 165, 83, 153, 3, 2.99402
242, 3, wb, attraction, a-b-db, 14, 2, 7, 35, 165, 90, 90, 165, 83, 153, 2, 0.888341
242, 3, wb, attraction, a-b-db, 2, 3, 7, 36, 120, 195, 119, 193, 195, 120, 2, 6.98686
242, 3, wb, attraction, a-b-db, 2, 3, 7, 36, 120, 195, 119, 193, 195, 120, 1, 0.736501
242, 3, wb, attraction, a-b-da, 2, 3, 7, 37, 120, 195, 193, 119, 195, 120, 2, 3.88881
242, 3, wb, attraction, a-b-da, 2, 3, 7, 37, 120, 195, 193, 119, 195, 120, 1, 0.307646
242, 3, wb, filler, NA, 999, 999, 8, 1, 116, 116, 169, 67, 168, 143, 2, 1.86086
242, 3, wb, filler, NA, 999, 999, 8, 1, 116, 116, 169, 67, 168, 143, 3, 0.376876
242, 3, wb, attraction, a-b-db, 5, 2, 8, 2, 165, 90, 90, 165, 88, 161, 3, 1.51137
242, 3, wb, attraction, a-b-db, 5, 2, 8, 2, 165, 90, 90, 165, 88, 161, 1, 0.449847
242, 3, wb, attraction, a-b-da, 9, 2, 8, 3, 90, 165, 157, 86, 165, 90, 2, 0.613336
242, 3, wb, attraction, a-b-da, 9, 2, 8, 3, 90, 165, 157, 86, 165, 90, 1, 0.851752
242, 3, wb, attraction, a-b-db, 2, 2, 8, 4, 90, 165, 165, 90, 89, 163, 2, 1.11949
242, 3, wb, attraction, a-b-db, 2, 2, 8, 4, 90, 165, 165, 90, 89, 163, 3, 0.737734
242, 3, wb, attraction, a-b-db, 2, 1, 8, 5, 60, 135, 135, 60, 59, 134, 2, 0.802132
242, 3, wb, attraction, a-b-db, 2, 1, 8, 5, 60, 135, 135, 60, 59, 134, 1, 0.569145
242, 3, wb, attraction, a-b-db, 14, 1, 8, 6, 56, 125, 135, 60, 60, 135, 2, 0.680328
242, 3, wb, attraction, a-b-db, 14, 1, 8, 6, 56, 125, 135, 60, 60, 135, 3, 0.348048
242, 3, wb, attraction, a-b-da, 9, 1, 8, 7, 129, 57, 60, 135, 135, 60, 1, 2.2279
242, 3, wb, attraction, a-b-da, 9, 1, 8, 7, 129, 57, 60, 135, 135, 60, 2, 0.353079
242, 3, wb, attraction, a-b-db, 5, 3, 8, 8, 120, 195, 117, 190, 195, 120, 2, 1.11344
242, 3, wb, attraction, a-b-db, 5, 3, 8, 8, 120, 195, 117, 190, 195, 120, 3, 0.42736
242, 3, wb, attraction, a-b-db, 14, 3, 8, 9, 111, 181, 195, 120, 120, 195, 2, 0.719927
242, 3, wb, attraction, a-b-db, 14, 3, 8, 9, 111, 181, 195, 120, 120, 195, 3, 0.338111
242, 3, wb, filler, NA, 999, 999, 8, 10, 181, 195, 179, 94, 131, 69, 3, 1.05075
242, 3, wb, filler, NA, 999, 999, 8, 10, 181, 195, 179, 94, 131, 69, 1, 0.343585
242, 3, wb, attraction, a-b-da, 2, 2, 8, 11, 165, 90, 90, 165, 163, 89, 2, 1.72744
242, 3, wb, attraction, a-b-da, 2, 2, 8, 11, 165, 90, 90, 165, 163, 89, 3, 0.75311
242, 3, wb, filler, NA, 999, 999, 8, 12, 185, 69, 69, 184, 80, 181, 2, 3.46468
242, 3, wb, filler, NA, 999, 999, 8, 12, 185, 69, 69, 184, 80, 181, 3, 0.644204
242, 3, wb, attraction, a-b-da, 14, 1, 8, 13, 125, 56, 135, 60, 60, 135, 1, 1.13583
242, 3, wb, attraction, a-b-da, 14, 1, 8, 13, 125, 56, 135, 60, 60, 135, 3, 2.47356
242, 3, wb, attraction, a-b-da, 9, 3, 8, 14, 186, 114, 120, 195, 195, 120, 1, 5.34811
242, 3, wb, attraction, a-b-da, 9, 3, 8, 14, 186, 114, 120, 195, 195, 120, 2, 0.315658
242, 3, wb, attraction, a-b-da, 2, 1, 8, 15, 134, 59, 60, 135, 135, 60, 1, 0.932941
242, 3, wb, attraction, a-b-da, 2, 1, 8, 15, 134, 59, 60, 135, 135, 60, 2, 0.374552
242, 3, wb, attraction, a-b-db, 9, 3, 8, 16, 195, 120, 120, 195, 114, 186, 1, 0.660982
242, 3, wb, attraction, a-b-db, 9, 3, 8, 16, 195, 120, 120, 195, 114, 186, 2, 0.313465
242, 3, wb, attraction, a-b-db, 2, 3, 8, 17, 120, 195, 119, 193, 195, 120, 3, 1.29856
242, 3, wb, attraction, a-b-db, 2, 3, 8, 17, 120, 195, 119, 193, 195, 120, 2, 0.469508
242, 3, wb, attraction, a-b-da, 5, 2, 8, 18, 90, 165, 161, 88, 165, 90, 3, 1.17674
242, 3, wb, attraction, a-b-da, 5, 2, 8, 18, 90, 165, 161, 88, 165, 90, 1, 0.448217
242, 3, wb, attraction, a-b-da, 14, 2, 8, 19, 90, 165, 153, 83, 165, 90, 3, 0.820249
242, 3, wb, attraction, a-b-da, 14, 2, 8, 19, 90, 165, 153, 83, 165, 90, 1, 0.546482
242, 3, wb, attraction, a-b-db, 9, 1, 8, 20, 135, 60, 60, 135, 57, 129, 3, 0.722177
242, 3, wb, attraction, a-b-db, 9, 1, 8, 20, 135, 60, 60, 135, 57, 129, 1, 0.756033
242, 3, wb, attraction, a-b-da, 5, 1, 8, 21, 135, 60, 60, 135, 132, 58, 3, 0.563649
242, 3, wb, attraction, a-b-da, 5, 1, 8, 21, 135, 60, 60, 135, 132, 58, 2, 0.484178
242, 3, wb, filler, NA, 999, 999, 8, 22, 195, 145, 97, 91, 185, 133, 2, 1.38266
242, 3, wb, filler, NA, 999, 999, 8, 22, 195, 145, 97, 91, 185, 133, 1, 0.926221
242, 3, wb, filler, NA, 999, 999, 8, 23, 123, 123, 110, 191, 183, 113, 1, 7.0225
242, 3, wb, filler, NA, 999, 999, 8, 23, 123, 123, 110, 191, 183, 113, 2, 0.682297
242, 3, wb, filler, NA, 999, 999, 8, 24, 91, 121, 79, 149, 96, 65, 3, 0.868639
242, 3, wb, filler, NA, 999, 999, 8, 24, 91, 121, 79, 149, 96, 65, 2, 0.585155
242, 3, wb, attraction, a-b-da, 14, 3, 8, 25, 181, 111, 195, 120, 120, 195, 1, 1.91947
242, 3, wb, attraction, a-b-da, 14, 3, 8, 25, 181, 111, 195, 120, 120, 195, 3, 0.56161
242, 3, wb, attraction, a-b-db, 14, 2, 8, 26, 165, 90, 90, 165, 83, 153, 3, 2.39262
242, 3, wb, attraction, a-b-db, 14, 2, 8, 26, 165, 90, 90, 165, 83, 153, 2, 0.92716
242, 3, wb, catch, NA, 999, 999, 8, 27, 162, 153, 147, 108, 103, 92, 3, 0.639457
242, 3, wb, catch, NA, 999, 999, 8, 27, 162, 153, 147, 108, 103, 92, 1, 0.756682
242, 3, wb, catch, NA, 999, 999, 8, 28, 82, 113, 90, 165, 155, 160, 1, 0.932265
242, 3, wb, catch, NA, 999, 999, 8, 28, 82, 113, 90, 165, 155, 160, 3, 0.518056
242, 3, wb, attraction, a-b-da, 5, 3, 8, 29, 120, 195, 195, 120, 190, 117, 2, 16.1992
242, 3, wb, attraction, a-b-da, 5, 3, 8, 29, 120, 195, 195, 120, 190, 117, 1, 0.369241
242, 3, wb, filler, NA, 999, 999, 8, 30, 90, 59, 94, 187, 82, 123, 1, 0.872482
242, 3, wb, filler, NA, 999, 999, 8, 30, 90, 59, 94, 187, 82, 123, 2, 0.380328
242, 3, wb, attraction, a-b-db, 9, 2, 8, 31, 86, 157, 165, 90, 90, 165, 2, 2.00276
242, 3, wb, attraction, a-b-db, 9, 2, 8, 31, 86, 157, 165, 90, 90, 165, 3, 0.561437
242, 3, wb, catch, NA, 999, 999, 8, 32, 109, 146, 187, 128, 133, 62, 3, 0.848514
242, 3, wb, catch, NA, 999, 999, 8, 32, 109, 146, 187, 128, 133, 62, 2, 0.349552
242, 3, wb, filler, NA, 999, 999, 8, 33, 155, 160, 144, 100, 79, 180, 2, 1.06127
242, 3, wb, filler, NA, 999, 999, 8, 33, 155, 160, 144, 100, 79, 180, 1, 0.313613
242, 3, wb, filler, NA, 999, 999, 8, 34, 188, 183, 90, 74, 104, 109, 2, 0.642738
242, 3, wb, filler, NA, 999, 999, 8, 34, 188, 183, 90, 74, 104, 109, 1, 0.31993
242, 3, wb, attraction, a-b-da, 2, 3, 8, 35, 120, 195, 195, 120, 193, 119, 2, 1.51305
242, 3, wb, attraction, a-b-da, 2, 3, 8, 35, 120, 195, 195, 120, 193, 119, 1, 1.32329
242, 3, wb, attraction, a-b-db, 5, 1, 8, 36, 135, 60, 58, 132, 60, 135, 1, 2.11608
242, 3, wb, attraction, a-b-db, 5, 1, 8, 36, 135, 60, 58, 132, 60, 135, 3, 0.862118
242, 3, wb, filler, NA, 999, 999, 8, 37, 117, 89, 112, 129, 192, 107, 1, 1.47313
242, 3, wb, filler, NA, 999, 999, 8, 37, 117, 89, 112, 129, 192, 107, 3, 0.820645
