sub_n, computer_n, bw_cond, effect, set, distance, diag, block_n, trial_n, h1, w1, h2, w2, h3, w3, choice, rt 
23, 3, bw, practice, NA, 999, 999, 0, 1, 74, 88, 155, 175, 56, 112, 2, 3.29108
23, 3, bw, practice, NA, 999, 999, 0, 1, 74, 88, 155, 175, 56, 112, 1, 6.83086
23, 3, bw, practice, NA, 999, 999, 0, 2, 160, 80, 61, 171, 164, 62, 1, 3.64426
23, 3, bw, practice, NA, 999, 999, 0, 2, 160, 80, 61, 171, 164, 62, 3, 3.06494
23, 3, bw, practice, NA, 999, 999, 0, 3, 139, 58, 73, 190, 176, 160, 3, 2.08913
23, 3, bw, practice, NA, 999, 999, 0, 3, 139, 58, 73, 190, 176, 160, 1, 1.90742
23, 3, bw, filler, NA, 999, 999, 1, 1, 191, 132, 110, 81, 186, 151, 3, 2.78069
23, 3, bw, filler, NA, 999, 999, 1, 1, 191, 132, 110, 81, 186, 151, 2, 1.89175
23, 3, bw, attraction, a-b-da, 9, 2, 1, 2, 165, 90, 157, 86, 90, 165, 3, 5.04055
23, 3, bw, attraction, a-b-da, 9, 2, 1, 2, 165, 90, 157, 86, 90, 165, 2, 2.65094
23, 3, bw, attraction, a-b-da, 2, 2, 1, 3, 165, 90, 163, 89, 90, 165, 3, 10.1262
23, 3, bw, attraction, a-b-da, 2, 2, 1, 3, 165, 90, 163, 89, 90, 165, 1, 2.63769
23, 3, bw, attraction, a-b-db, 5, 1, 1, 4, 58, 132, 60, 135, 135, 60, 2, 4.16809
23, 3, bw, attraction, a-b-db, 5, 1, 1, 4, 58, 132, 60, 135, 135, 60, 3, 1.47214
23, 3, bw, attraction, a-b-da, 14, 3, 1, 5, 195, 120, 120, 195, 181, 111, 2, 3.73296
23, 3, bw, attraction, a-b-da, 14, 3, 1, 5, 195, 120, 120, 195, 181, 111, 3, 1.81336
23, 3, bw, attraction, a-b-da, 9, 1, 1, 6, 60, 135, 135, 60, 129, 57, 1, 7.16316
23, 3, bw, attraction, a-b-da, 9, 1, 1, 6, 60, 135, 135, 60, 129, 57, 3, 1.46435
23, 3, bw, filler, NA, 999, 999, 1, 7, 78, 92, 167, 69, 155, 171, 3, 1.62777
23, 3, bw, filler, NA, 999, 999, 1, 7, 78, 92, 167, 69, 155, 171, 1, 1.79939
23, 3, bw, filler, NA, 999, 999, 1, 8, 119, 100, 149, 169, 62, 153, 2, 1.96452
23, 3, bw, filler, NA, 999, 999, 1, 8, 119, 100, 149, 169, 62, 153, 1, 2.27922
23, 3, bw, filler, NA, 999, 999, 1, 9, 134, 189, 138, 80, 161, 166, 3, 5.2806
23, 3, bw, filler, NA, 999, 999, 1, 9, 134, 189, 138, 80, 161, 166, 2, 1.66813
23, 3, bw, attraction, a-b-da, 5, 3, 1, 10, 190, 117, 195, 120, 120, 195, 3, 4.5657
23, 3, bw, attraction, a-b-da, 5, 3, 1, 10, 190, 117, 195, 120, 120, 195, 1, 2.49247
23, 3, bw, filler, NA, 999, 999, 1, 11, 92, 72, 121, 147, 167, 130, 3, 2.85325
23, 3, bw, filler, NA, 999, 999, 1, 11, 92, 72, 121, 147, 167, 130, 1, 1.68297
23, 3, bw, attraction, a-b-db, 5, 3, 1, 12, 120, 195, 117, 190, 195, 120, 1, 3.59702
23, 3, bw, attraction, a-b-db, 5, 3, 1, 12, 120, 195, 117, 190, 195, 120, 3, 2.86859
23, 3, bw, catch, NA, 999, 999, 1, 13, 167, 148, 131, 124, 63, 132, 1, 1.88627
23, 3, bw, catch, NA, 999, 999, 1, 13, 167, 148, 131, 124, 63, 132, 3, 3.833
23, 3, bw, filler, NA, 999, 999, 1, 14, 111, 119, 101, 175, 87, 104, 2, 2.19687
23, 3, bw, filler, NA, 999, 999, 1, 14, 111, 119, 101, 175, 87, 104, 3, 1.30042
23, 3, bw, attraction, a-b-db, 14, 2, 1, 15, 83, 153, 90, 165, 165, 90, 2, 2.62972
23, 3, bw, attraction, a-b-db, 14, 2, 1, 15, 83, 153, 90, 165, 165, 90, 1, 1.24961
23, 3, bw, attraction, a-b-db, 2, 3, 1, 16, 195, 120, 120, 195, 119, 193, 3, 5.21326
23, 3, bw, attraction, a-b-db, 2, 3, 1, 16, 195, 120, 120, 195, 119, 193, 1, 2.05719
23, 3, bw, attraction, a-b-da, 14, 2, 1, 17, 153, 83, 90, 165, 165, 90, 2, 3.38287
23, 3, bw, attraction, a-b-da, 14, 2, 1, 17, 153, 83, 90, 165, 165, 90, 1, 1.651
23, 3, bw, filler, NA, 999, 999, 1, 18, 76, 111, 76, 130, 180, 72, 3, 3.44629
23, 3, bw, filler, NA, 999, 999, 1, 18, 76, 111, 76, 130, 180, 72, 1, 1.2828
23, 3, bw, attraction, a-b-db, 14, 1, 1, 19, 135, 60, 60, 135, 56, 125, 2, 5.79016
23, 3, bw, attraction, a-b-db, 14, 1, 1, 19, 135, 60, 60, 135, 56, 125, 3, 3.25375
23, 3, bw, attraction, a-b-db, 14, 3, 1, 20, 120, 195, 195, 120, 111, 181, 1, 4.78351
23, 3, bw, attraction, a-b-db, 14, 3, 1, 20, 120, 195, 195, 120, 111, 181, 3, 2.26194
23, 3, bw, attraction, a-b-db, 5, 2, 1, 21, 90, 165, 88, 161, 165, 90, 1, 4.94379
23, 3, bw, attraction, a-b-db, 5, 2, 1, 21, 90, 165, 88, 161, 165, 90, 3, 2.16987
23, 3, bw, attraction, a-b-db, 9, 1, 1, 22, 60, 135, 135, 60, 57, 129, 1, 5.78171
23, 3, bw, attraction, a-b-db, 9, 1, 1, 22, 60, 135, 135, 60, 57, 129, 3, 2.05306
23, 3, bw, attraction, a-b-da, 2, 1, 1, 23, 60, 135, 134, 59, 135, 60, 1, 4.07159
23, 3, bw, attraction, a-b-da, 2, 1, 1, 23, 60, 135, 134, 59, 135, 60, 3, 6.21132
23, 3, bw, attraction, a-b-da, 2, 3, 1, 24, 195, 120, 193, 119, 120, 195, 1, 7.91994
23, 3, bw, attraction, a-b-da, 2, 3, 1, 24, 195, 120, 193, 119, 120, 195, 2, 1.58563
23, 3, bw, attraction, a-b-db, 9, 2, 1, 25, 86, 157, 165, 90, 90, 165, 3, 4.96575
23, 3, bw, attraction, a-b-db, 9, 2, 1, 25, 86, 157, 165, 90, 90, 165, 1, 1.79677
23, 3, bw, attraction, a-b-db, 2, 1, 1, 26, 60, 135, 135, 60, 59, 134, 1, 9.61302
23, 3, bw, attraction, a-b-db, 2, 1, 1, 26, 60, 135, 135, 60, 59, 134, 3, 3.99291
23, 3, bw, catch, NA, 999, 999, 1, 27, 178, 137, 90, 105, 94, 161, 1, 1.9958
23, 3, bw, catch, NA, 999, 999, 1, 27, 178, 137, 90, 105, 94, 161, 2, 2.2526
23, 3, bw, filler, NA, 999, 999, 1, 28, 179, 155, 183, 114, 147, 81, 1, 1.76643
23, 3, bw, filler, NA, 999, 999, 1, 28, 179, 155, 183, 114, 147, 81, 3, 1.94287
23, 3, bw, attraction, a-b-da, 9, 3, 1, 29, 120, 195, 195, 120, 186, 114, 1, 4.43819
23, 3, bw, attraction, a-b-da, 9, 3, 1, 29, 120, 195, 195, 120, 186, 114, 3, 1.115
23, 3, bw, filler, NA, 999, 999, 1, 30, 110, 151, 116, 81, 111, 65, 1, 2.18057
23, 3, bw, filler, NA, 999, 999, 1, 30, 110, 151, 116, 81, 111, 65, 3, 1.8522
23, 3, bw, attraction, a-b-da, 5, 1, 1, 31, 132, 58, 135, 60, 60, 135, 3, 2.90079
23, 3, bw, attraction, a-b-da, 5, 1, 1, 31, 132, 58, 135, 60, 60, 135, 1, 1.68926
23, 3, bw, attraction, a-b-da, 14, 1, 1, 32, 135, 60, 60, 135, 125, 56, 2, 2.1733
23, 3, bw, attraction, a-b-da, 14, 1, 1, 32, 135, 60, 60, 135, 125, 56, 3, 1.53321
23, 3, bw, catch, NA, 999, 999, 1, 33, 107, 148, 175, 140, 95, 100, 2, 1.68327
23, 3, bw, catch, NA, 999, 999, 1, 33, 107, 148, 175, 140, 95, 100, 3, 1.07922
23, 3, bw, attraction, a-b-da, 5, 2, 1, 34, 165, 90, 90, 165, 161, 88, 2, 5.49798
23, 3, bw, attraction, a-b-da, 5, 2, 1, 34, 165, 90, 90, 165, 161, 88, 3, 1.8686
23, 3, bw, attraction, a-b-db, 9, 3, 1, 35, 114, 186, 120, 195, 195, 120, 2, 3.29525
23, 3, bw, attraction, a-b-db, 9, 3, 1, 35, 114, 186, 120, 195, 195, 120, 3, 1.39104
23, 3, bw, attraction, a-b-db, 2, 2, 1, 36, 89, 163, 165, 90, 90, 165, 3, 3.03015
23, 3, bw, attraction, a-b-db, 2, 2, 1, 36, 89, 163, 165, 90, 90, 165, 2, 1.78683
23, 3, bw, filler, NA, 999, 999, 1, 37, 106, 136, 75, 178, 192, 149, 3, 1.66614
23, 3, bw, filler, NA, 999, 999, 1, 37, 106, 136, 75, 178, 192, 149, 1, 3.38181
23, 3, bw, filler, NA, 999, 999, 2, 1, 141, 93, 160, 145, 91, 110, 2, 1.81045
23, 3, bw, filler, NA, 999, 999, 2, 1, 141, 93, 160, 145, 91, 110, 3, 1.28918
23, 3, bw, filler, NA, 999, 999, 2, 2, 146, 181, 110, 72, 87, 106, 1, 1.76302
23, 3, bw, filler, NA, 999, 999, 2, 2, 146, 181, 110, 72, 87, 106, 2, 2.01034
23, 3, bw, filler, NA, 999, 999, 2, 3, 81, 67, 195, 139, 191, 85, 2, 2.20229
23, 3, bw, filler, NA, 999, 999, 2, 3, 81, 67, 195, 139, 191, 85, 1, 1.95896
23, 3, bw, filler, NA, 999, 999, 2, 4, 117, 153, 115, 144, 186, 130, 3, 2.31799
23, 3, bw, filler, NA, 999, 999, 2, 4, 117, 153, 115, 144, 186, 130, 2, 1.12827
23, 3, bw, attraction, a-b-db, 14, 2, 2, 5, 165, 90, 83, 153, 90, 165, 3, 1.83414
23, 3, bw, attraction, a-b-db, 14, 2, 2, 5, 165, 90, 83, 153, 90, 165, 2, 1.88757
23, 3, bw, attraction, a-b-da, 5, 2, 2, 6, 165, 90, 161, 88, 90, 165, 3, 3.56206
23, 3, bw, attraction, a-b-da, 5, 2, 2, 6, 165, 90, 161, 88, 90, 165, 2, 2.08944
23, 3, bw, attraction, a-b-da, 2, 3, 2, 7, 195, 120, 193, 119, 120, 195, 2, 6.09786
23, 3, bw, attraction, a-b-da, 2, 3, 2, 7, 195, 120, 193, 119, 120, 195, 3, 5.27636
23, 3, bw, attraction, a-b-da, 2, 1, 2, 8, 135, 60, 60, 135, 134, 59, 2, 3.52714
23, 3, bw, attraction, a-b-da, 2, 1, 2, 8, 135, 60, 60, 135, 134, 59, 1, 1.72741
23, 3, bw, attraction, a-b-db, 2, 1, 2, 9, 59, 134, 60, 135, 135, 60, 1, 2.94395
23, 3, bw, attraction, a-b-db, 2, 1, 2, 9, 59, 134, 60, 135, 135, 60, 3, 1.70483
23, 3, bw, filler, NA, 999, 999, 2, 10, 58, 125, 91, 96, 179, 183, 3, 1.70712
23, 3, bw, filler, NA, 999, 999, 2, 10, 58, 125, 91, 96, 179, 183, 2, 1.5408
23, 3, bw, attraction, a-b-da, 9, 2, 2, 11, 165, 90, 157, 86, 90, 165, 3, 4.05284
23, 3, bw, attraction, a-b-da, 9, 2, 2, 11, 165, 90, 157, 86, 90, 165, 1, 1.20911
23, 3, bw, filler, NA, 999, 999, 2, 12, 100, 181, 132, 182, 56, 145, 2, 1.43995
23, 3, bw, filler, NA, 999, 999, 2, 12, 100, 181, 132, 182, 56, 145, 3, 1.08308
23, 3, bw, attraction, a-b-da, 5, 3, 2, 13, 195, 120, 120, 195, 190, 117, 2, 1.7678
23, 3, bw, attraction, a-b-da, 5, 3, 2, 13, 195, 120, 120, 195, 190, 117, 1, 0.95825
23, 3, bw, filler, NA, 999, 999, 2, 14, 161, 170, 143, 145, 108, 193, 1, 3.36519
23, 3, bw, filler, NA, 999, 999, 2, 14, 161, 170, 143, 145, 108, 193, 2, 2.86111
23, 3, bw, attraction, a-b-da, 14, 1, 2, 15, 125, 56, 135, 60, 60, 135, 2, 4.5144
23, 3, bw, attraction, a-b-da, 14, 1, 2, 15, 125, 56, 135, 60, 60, 135, 1, 2.73031
23, 3, bw, filler, NA, 999, 999, 2, 16, 95, 134, 168, 185, 158, 146, 2, 3.53787
23, 3, bw, filler, NA, 999, 999, 2, 16, 95, 134, 168, 185, 158, 146, 1, 1.53866
23, 3, bw, catch, NA, 999, 999, 2, 17, 156, 159, 134, 121, 117, 78, 1, 1.48414
23, 3, bw, catch, NA, 999, 999, 2, 17, 156, 159, 134, 121, 117, 78, 3, 1.39895
23, 3, bw, attraction, a-b-db, 9, 1, 2, 18, 60, 135, 57, 129, 135, 60, 2, 2.33921
23, 3, bw, attraction, a-b-db, 9, 1, 2, 18, 60, 135, 57, 129, 135, 60, 1, 1.29402
23, 3, bw, catch, NA, 999, 999, 2, 19, 107, 88, 168, 147, 93, 162, 2, 2.152
23, 3, bw, catch, NA, 999, 999, 2, 19, 107, 88, 168, 147, 93, 162, 1, 0.999768
23, 3, bw, attraction, a-b-db, 5, 2, 2, 20, 88, 161, 165, 90, 90, 165, 2, 2.23746
23, 3, bw, attraction, a-b-db, 5, 2, 2, 20, 88, 161, 165, 90, 90, 165, 1, 1.30831
23, 3, bw, attraction, a-b-da, 9, 3, 2, 21, 195, 120, 120, 195, 186, 114, 2, 2.30119
23, 3, bw, attraction, a-b-da, 9, 3, 2, 21, 195, 120, 120, 195, 186, 114, 3, 1.024
23, 3, bw, attraction, a-b-db, 14, 1, 2, 22, 60, 135, 135, 60, 56, 125, 2, 2.53144
23, 3, bw, attraction, a-b-db, 14, 1, 2, 22, 60, 135, 135, 60, 56, 125, 1, 1.24439
23, 3, bw, attraction, a-b-db, 2, 2, 2, 23, 89, 163, 165, 90, 90, 165, 3, 3.03334
23, 3, bw, attraction, a-b-db, 2, 2, 2, 23, 89, 163, 165, 90, 90, 165, 2, 0.934338
23, 3, bw, attraction, a-b-da, 5, 1, 2, 24, 60, 135, 132, 58, 135, 60, 1, 4.15867
23, 3, bw, attraction, a-b-da, 5, 1, 2, 24, 60, 135, 132, 58, 135, 60, 3, 1.99182
23, 3, bw, attraction, a-b-da, 9, 1, 2, 25, 135, 60, 129, 57, 60, 135, 1, 4.8126
23, 3, bw, attraction, a-b-da, 9, 1, 2, 25, 135, 60, 129, 57, 60, 135, 2, 2.29808
23, 3, bw, catch, NA, 999, 999, 2, 26, 107, 88, 164, 151, 115, 140, 2, 2.8433
23, 3, bw, catch, NA, 999, 999, 2, 26, 107, 88, 164, 151, 115, 140, 1, 1.17744
23, 3, bw, attraction, a-b-db, 5, 1, 2, 27, 58, 132, 60, 135, 135, 60, 2, 7.5113
23, 3, bw, attraction, a-b-db, 5, 1, 2, 27, 58, 132, 60, 135, 135, 60, 3, 2.10466
23, 3, bw, filler, NA, 999, 999, 2, 28, 85, 114, 122, 150, 68, 179, 2, 1.99439
23, 3, bw, filler, NA, 999, 999, 2, 28, 85, 114, 122, 150, 68, 179, 1, 0.831856
23, 3, bw, attraction, a-b-da, 2, 2, 2, 29, 90, 165, 163, 89, 165, 90, 1, 2.05276
23, 3, bw, attraction, a-b-da, 2, 2, 2, 29, 90, 165, 163, 89, 165, 90, 2, 1.01916
23, 3, bw, attraction, a-b-da, 14, 3, 2, 30, 181, 111, 120, 195, 195, 120, 2, 1.73487
23, 3, bw, attraction, a-b-da, 14, 3, 2, 30, 181, 111, 120, 195, 195, 120, 1, 1.26446
23, 3, bw, attraction, a-b-db, 9, 3, 2, 31, 120, 195, 114, 186, 195, 120, 2, 3.7958
23, 3, bw, attraction, a-b-db, 9, 3, 2, 31, 120, 195, 114, 186, 195, 120, 1, 0.961812
23, 3, bw, filler, NA, 999, 999, 2, 32, 152, 134, 78, 91, 78, 85, 1, 1.40119
23, 3, bw, filler, NA, 999, 999, 2, 32, 152, 134, 78, 91, 78, 85, 3, 2.62586
23, 3, bw, attraction, a-b-db, 5, 3, 2, 33, 117, 190, 120, 195, 195, 120, 2, 1.87688
23, 3, bw, attraction, a-b-db, 5, 3, 2, 33, 117, 190, 120, 195, 195, 120, 3, 1.56053
23, 3, bw, attraction, a-b-db, 9, 2, 2, 34, 90, 165, 165, 90, 86, 157, 2, 1.84744
23, 3, bw, attraction, a-b-db, 9, 2, 2, 34, 90, 165, 165, 90, 86, 157, 1, 1.55676
23, 3, bw, attraction, a-b-da, 14, 2, 2, 35, 153, 83, 90, 165, 165, 90, 2, 2.30792
23, 3, bw, attraction, a-b-da, 14, 2, 2, 35, 153, 83, 90, 165, 165, 90, 1, 0.926809
23, 3, bw, attraction, a-b-db, 2, 3, 2, 36, 120, 195, 119, 193, 195, 120, 1, 2.12607
23, 3, bw, attraction, a-b-db, 2, 3, 2, 36, 120, 195, 119, 193, 195, 120, 3, 1.16022
23, 3, bw, attraction, a-b-db, 14, 3, 2, 37, 120, 195, 195, 120, 111, 181, 2, 1.35188
23, 3, bw, attraction, a-b-db, 14, 3, 2, 37, 120, 195, 195, 120, 111, 181, 3, 1.71447
23, 3, bw, attraction, a-b-da, 14, 3, 3, 1, 195, 120, 120, 195, 181, 111, 1, 2.843
23, 3, bw, attraction, a-b-da, 14, 3, 3, 1, 195, 120, 120, 195, 181, 111, 2, 1.3751
23, 3, bw, catch, NA, 999, 999, 3, 2, 180, 135, 101, 154, 104, 91, 1, 1.49446
23, 3, bw, catch, NA, 999, 999, 3, 2, 180, 135, 101, 154, 104, 91, 3, 1.3699
23, 3, bw, filler, NA, 999, 999, 3, 3, 167, 108, 102, 133, 58, 131, 1, 1.52942
23, 3, bw, filler, NA, 999, 999, 3, 3, 167, 108, 102, 133, 58, 131, 3, 2.554
23, 3, bw, catch, NA, 999, 999, 3, 4, 120, 195, 99, 156, 68, 127, 1, 1.585
23, 3, bw, catch, NA, 999, 999, 3, 4, 120, 195, 99, 156, 68, 127, 3, 0.888702
23, 3, bw, filler, NA, 999, 999, 3, 5, 106, 70, 72, 181, 80, 118, 2, 1.92305
23, 3, bw, filler, NA, 999, 999, 3, 5, 106, 70, 72, 181, 80, 118, 1, 0.988226
23, 3, bw, attraction, a-b-db, 9, 2, 3, 6, 86, 157, 90, 165, 165, 90, 2, 2.60245
23, 3, bw, attraction, a-b-db, 9, 2, 3, 6, 86, 157, 90, 165, 165, 90, 1, 0.802711
23, 3, bw, attraction, a-b-da, 9, 1, 3, 7, 60, 135, 129, 57, 135, 60, 1, 1.99896
23, 3, bw, attraction, a-b-da, 9, 1, 3, 7, 60, 135, 129, 57, 135, 60, 2, 2.38257
23, 3, bw, attraction, a-b-db, 2, 2, 3, 8, 165, 90, 90, 165, 89, 163, 2, 2.78992
23, 3, bw, attraction, a-b-db, 2, 2, 3, 8, 165, 90, 90, 165, 89, 163, 1, 1.53025
23, 3, bw, attraction, a-b-da, 9, 2, 3, 9, 90, 165, 157, 86, 165, 90, 1, 2.09915
23, 3, bw, attraction, a-b-da, 9, 2, 3, 9, 90, 165, 157, 86, 165, 90, 3, 1.00822
23, 3, bw, attraction, a-b-da, 2, 1, 3, 10, 60, 135, 135, 60, 134, 59, 2, 1.8204
23, 3, bw, attraction, a-b-da, 2, 1, 3, 10, 60, 135, 135, 60, 134, 59, 3, 1.30659
23, 3, bw, attraction, a-b-da, 5, 1, 3, 11, 135, 60, 132, 58, 60, 135, 2, 1.51625
23, 3, bw, attraction, a-b-da, 5, 1, 3, 11, 135, 60, 132, 58, 60, 135, 3, 0.783351
23, 3, bw, attraction, a-b-db, 14, 3, 3, 12, 111, 181, 120, 195, 195, 120, 1, 2.6208
23, 3, bw, attraction, a-b-db, 14, 3, 3, 12, 111, 181, 120, 195, 195, 120, 3, 1.17056
23, 3, bw, attraction, a-b-db, 9, 1, 3, 13, 57, 129, 60, 135, 135, 60, 2, 2.00149
23, 3, bw, attraction, a-b-db, 9, 1, 3, 13, 57, 129, 60, 135, 135, 60, 3, 1.41756
23, 3, bw, attraction, a-b-db, 14, 2, 3, 14, 83, 153, 165, 90, 90, 165, 2, 2.53261
23, 3, bw, attraction, a-b-db, 14, 2, 3, 14, 83, 153, 165, 90, 90, 165, 3, 1.142
23, 3, bw, attraction, a-b-db, 5, 3, 3, 15, 195, 120, 117, 190, 120, 195, 3, 4.49428
23, 3, bw, attraction, a-b-db, 5, 3, 3, 15, 195, 120, 117, 190, 120, 195, 1, 1.34533
23, 3, bw, attraction, a-b-db, 14, 1, 3, 16, 135, 60, 56, 125, 60, 135, 1, 2.50624
23, 3, bw, attraction, a-b-db, 14, 1, 3, 16, 135, 60, 56, 125, 60, 135, 3, 1.42706
23, 3, bw, attraction, a-b-da, 5, 3, 3, 17, 195, 120, 120, 195, 190, 117, 2, 2.28058
23, 3, bw, attraction, a-b-da, 5, 3, 3, 17, 195, 120, 120, 195, 190, 117, 3, 1.35564
23, 3, bw, filler, NA, 999, 999, 3, 18, 135, 90, 169, 195, 86, 131, 2, 1.95584
23, 3, bw, filler, NA, 999, 999, 3, 18, 135, 90, 169, 195, 86, 131, 3, 1.10838
23, 3, bw, attraction, a-b-db, 5, 1, 3, 19, 58, 132, 135, 60, 60, 135, 1, 2.58395
23, 3, bw, attraction, a-b-db, 5, 1, 3, 19, 58, 132, 135, 60, 60, 135, 3, 1.5156
23, 3, bw, filler, NA, 999, 999, 3, 20, 171, 76, 116, 162, 145, 145, 3, 4.99733
23, 3, bw, filler, NA, 999, 999, 3, 20, 171, 76, 116, 162, 145, 145, 1, 1.98639
23, 3, bw, filler, NA, 999, 999, 3, 21, 91, 169, 110, 61, 104, 165, 3, 2.25702
23, 3, bw, filler, NA, 999, 999, 3, 21, 91, 169, 110, 61, 104, 165, 2, 0.886912
23, 3, bw, attraction, a-b-db, 2, 1, 3, 22, 60, 135, 59, 134, 135, 60, 1, 5.43289
23, 3, bw, attraction, a-b-db, 2, 1, 3, 22, 60, 135, 59, 134, 135, 60, 3, 1.25346
23, 3, bw, attraction, a-b-db, 5, 2, 3, 23, 88, 161, 90, 165, 165, 90, 3, 1.93063
23, 3, bw, attraction, a-b-db, 5, 2, 3, 23, 88, 161, 90, 165, 165, 90, 1, 0.77672
23, 3, bw, attraction, a-b-db, 9, 3, 3, 24, 195, 120, 120, 195, 114, 186, 2, 2.32018
23, 3, bw, attraction, a-b-db, 9, 3, 3, 24, 195, 120, 120, 195, 114, 186, 1, 0.84175
23, 3, bw, filler, NA, 999, 999, 3, 25, 192, 113, 56, 70, 65, 108, 1, 1.31072
23, 3, bw, filler, NA, 999, 999, 3, 25, 192, 113, 56, 70, 65, 108, 2, 0.752618
23, 3, bw, filler, NA, 999, 999, 3, 26, 130, 59, 69, 84, 66, 68, 1, 2.38489
23, 3, bw, filler, NA, 999, 999, 3, 26, 130, 59, 69, 84, 66, 68, 3, 1.17682
23, 3, bw, attraction, a-b-da, 2, 2, 3, 27, 163, 89, 90, 165, 165, 90, 1, 1.88711
23, 3, bw, attraction, a-b-da, 2, 2, 3, 27, 163, 89, 90, 165, 165, 90, 2, 1.43399
23, 3, bw, filler, NA, 999, 999, 3, 28, 86, 131, 192, 72, 188, 195, 3, 1.35766
23, 3, bw, filler, NA, 999, 999, 3, 28, 86, 131, 192, 72, 188, 195, 1, 0.880235
23, 3, bw, attraction, a-b-da, 5, 2, 3, 29, 161, 88, 90, 165, 165, 90, 2, 1.9628
23, 3, bw, attraction, a-b-da, 5, 2, 3, 29, 161, 88, 90, 165, 165, 90, 1, 2.96272
23, 3, bw, catch, NA, 999, 999, 3, 30, 109, 86, 162, 153, 141, 114, 2, 1.43482
23, 3, bw, catch, NA, 999, 999, 3, 30, 109, 86, 162, 153, 141, 114, 1, 0.942942
23, 3, bw, attraction, a-b-db, 2, 3, 3, 31, 120, 195, 195, 120, 119, 193, 1, 1.6648
23, 3, bw, attraction, a-b-db, 2, 3, 3, 31, 120, 195, 195, 120, 119, 193, 2, 1.19552
23, 3, bw, filler, NA, 999, 999, 3, 32, 66, 72, 80, 67, 194, 186, 3, 1.40886
23, 3, bw, filler, NA, 999, 999, 3, 32, 66, 72, 80, 67, 194, 186, 1, 2.85798
23, 3, bw, attraction, a-b-da, 9, 3, 3, 33, 120, 195, 186, 114, 195, 120, 1, 2.23584
23, 3, bw, attraction, a-b-da, 9, 3, 3, 33, 120, 195, 186, 114, 195, 120, 3, 1.27436
23, 3, bw, attraction, a-b-da, 14, 1, 3, 34, 60, 135, 135, 60, 125, 56, 1, 1.73269
23, 3, bw, attraction, a-b-da, 14, 1, 3, 34, 60, 135, 135, 60, 125, 56, 3, 1.02071
23, 3, bw, filler, NA, 999, 999, 3, 35, 171, 91, 63, 190, 130, 138, 3, 3.59634
23, 3, bw, filler, NA, 999, 999, 3, 35, 171, 91, 63, 190, 130, 138, 2, 5.02401
23, 3, bw, attraction, a-b-da, 14, 2, 3, 36, 90, 165, 165, 90, 153, 83, 2, 1.59593
23, 3, bw, attraction, a-b-da, 14, 2, 3, 36, 90, 165, 165, 90, 153, 83, 3, 1.00959
23, 3, bw, attraction, a-b-da, 2, 3, 3, 37, 193, 119, 195, 120, 120, 195, 1, 3.62417
23, 3, bw, attraction, a-b-da, 2, 3, 3, 37, 193, 119, 195, 120, 120, 195, 3, 0.92495
23, 3, bw, attraction, a-b-da, 2, 3, 4, 1, 120, 195, 195, 120, 193, 119, 1, 2.2546
23, 3, bw, attraction, a-b-da, 2, 3, 4, 1, 120, 195, 195, 120, 193, 119, 2, 1.05175
23, 3, bw, filler, NA, 999, 999, 4, 2, 62, 193, 70, 116, 146, 66, 1, 2.31108
23, 3, bw, filler, NA, 999, 999, 4, 2, 62, 193, 70, 116, 146, 66, 2, 1.24061
23, 3, bw, attraction, a-b-da, 9, 1, 4, 3, 135, 60, 60, 135, 129, 57, 2, 2.15079
23, 3, bw, attraction, a-b-da, 9, 1, 4, 3, 135, 60, 60, 135, 129, 57, 3, 1.18955
23, 3, bw, attraction, a-b-db, 9, 1, 4, 4, 57, 129, 135, 60, 60, 135, 3, 2.77929
23, 3, bw, attraction, a-b-db, 9, 1, 4, 4, 57, 129, 135, 60, 60, 135, 1, 1.21767
23, 3, bw, filler, NA, 999, 999, 4, 5, 185, 143, 133, 69, 106, 98, 1, 1.39183
23, 3, bw, filler, NA, 999, 999, 4, 5, 185, 143, 133, 69, 106, 98, 3, 0.855012
23, 3, bw, attraction, a-b-db, 9, 2, 4, 6, 165, 90, 90, 165, 86, 157, 2, 2.81218
23, 3, bw, attraction, a-b-db, 9, 2, 4, 6, 165, 90, 90, 165, 86, 157, 1, 1.88063
23, 3, bw, attraction, a-b-da, 14, 2, 4, 7, 90, 165, 165, 90, 153, 83, 2, 1.63653
23, 3, bw, attraction, a-b-da, 14, 2, 4, 7, 90, 165, 165, 90, 153, 83, 3, 0.847584
23, 3, bw, attraction, a-b-da, 9, 2, 4, 8, 165, 90, 90, 165, 157, 86, 2, 1.54111
23, 3, bw, attraction, a-b-da, 9, 2, 4, 8, 165, 90, 90, 165, 157, 86, 3, 0.783106
23, 3, bw, attraction, a-b-da, 14, 1, 4, 9, 60, 135, 135, 60, 125, 56, 1, 2.87943
23, 3, bw, attraction, a-b-da, 14, 1, 4, 9, 60, 135, 135, 60, 125, 56, 2, 0.936772
23, 3, bw, attraction, a-b-da, 9, 3, 4, 10, 186, 114, 195, 120, 120, 195, 3, 2.15928
23, 3, bw, attraction, a-b-da, 9, 3, 4, 10, 186, 114, 195, 120, 120, 195, 1, 0.849939
23, 3, bw, attraction, a-b-db, 9, 3, 4, 11, 195, 120, 120, 195, 114, 186, 2, 2.78337
23, 3, bw, attraction, a-b-db, 9, 3, 4, 11, 195, 120, 120, 195, 114, 186, 1, 0.779896
23, 3, bw, attraction, a-b-db, 2, 3, 4, 12, 120, 195, 119, 193, 195, 120, 1, 2.48195
23, 3, bw, attraction, a-b-db, 2, 3, 4, 12, 120, 195, 119, 193, 195, 120, 3, 0.935194
23, 3, bw, catch, NA, 999, 999, 4, 13, 157, 98, 161, 154, 83, 112, 2, 1.50438
23, 3, bw, catch, NA, 999, 999, 4, 13, 157, 98, 161, 154, 83, 112, 3, 3.17722
23, 3, bw, filler, NA, 999, 999, 4, 14, 154, 74, 60, 152, 138, 168, 3, 1.433
23, 3, bw, filler, NA, 999, 999, 4, 14, 154, 74, 60, 152, 138, 168, 1, 1.47028
23, 3, bw, attraction, a-b-db, 2, 2, 4, 15, 90, 165, 165, 90, 89, 163, 2, 4.25602
23, 3, bw, attraction, a-b-db, 2, 2, 4, 15, 90, 165, 165, 90, 89, 163, 1, 1.74866
23, 3, bw, attraction, a-b-db, 2, 1, 4, 16, 135, 60, 59, 134, 60, 135, 3, 2.06053
23, 3, bw, attraction, a-b-db, 2, 1, 4, 16, 135, 60, 59, 134, 60, 135, 1, 1.22386
23, 3, bw, attraction, a-b-db, 5, 2, 4, 17, 165, 90, 88, 161, 90, 165, 3, 1.79596
23, 3, bw, attraction, a-b-db, 5, 2, 4, 17, 165, 90, 88, 161, 90, 165, 1, 0.954238
23, 3, bw, filler, NA, 999, 999, 4, 18, 188, 60, 187, 98, 93, 165, 3, 1.52388
23, 3, bw, filler, NA, 999, 999, 4, 18, 188, 60, 187, 98, 93, 165, 2, 1.66963
23, 3, bw, attraction, a-b-da, 2, 2, 4, 19, 90, 165, 165, 90, 163, 89, 2, 1.5673
23, 3, bw, attraction, a-b-da, 2, 2, 4, 19, 90, 165, 165, 90, 163, 89, 3, 1.64022
23, 3, bw, attraction, a-b-db, 14, 3, 4, 20, 111, 181, 120, 195, 195, 120, 3, 1.49261
23, 3, bw, attraction, a-b-db, 14, 3, 4, 20, 111, 181, 120, 195, 195, 120, 1, 0.823358
23, 3, bw, filler, NA, 999, 999, 4, 21, 174, 95, 189, 135, 154, 111, 2, 3.41956
23, 3, bw, filler, NA, 999, 999, 4, 21, 174, 95, 189, 135, 154, 111, 1, 0.939222
23, 3, bw, catch, NA, 999, 999, 4, 22, 146, 109, 168, 147, 62, 133, 2, 1.30677
23, 3, bw, catch, NA, 999, 999, 4, 22, 146, 109, 168, 147, 62, 133, 3, 0.734655
23, 3, bw, attraction, a-b-da, 5, 1, 4, 23, 132, 58, 60, 135, 135, 60, 2, 1.37467
23, 3, bw, attraction, a-b-da, 5, 1, 4, 23, 132, 58, 60, 135, 135, 60, 3, 0.876781
23, 3, bw, filler, NA, 999, 999, 4, 24, 92, 117, 80, 88, 111, 82, 1, 6.8267
23, 3, bw, filler, NA, 999, 999, 4, 24, 92, 117, 80, 88, 111, 82, 2, 0.885895
23, 3, bw, attraction, a-b-db, 5, 3, 4, 25, 195, 120, 117, 190, 120, 195, 3, 3.61708
23, 3, bw, attraction, a-b-db, 5, 3, 4, 25, 195, 120, 117, 190, 120, 195, 1, 1.97286
23, 3, bw, attraction, a-b-db, 14, 1, 4, 26, 56, 125, 60, 135, 135, 60, 2, 2.1412
23, 3, bw, attraction, a-b-db, 14, 1, 4, 26, 56, 125, 60, 135, 135, 60, 1, 0.878531
23, 3, bw, attraction, a-b-db, 5, 1, 4, 27, 58, 132, 135, 60, 60, 135, 3, 1.84165
23, 3, bw, attraction, a-b-db, 5, 1, 4, 27, 58, 132, 135, 60, 60, 135, 2, 1.19123
23, 3, bw, catch, NA, 999, 999, 4, 28, 146, 109, 77, 118, 124, 191, 3, 1.42006
23, 3, bw, catch, NA, 999, 999, 4, 28, 146, 109, 77, 118, 124, 191, 2, 0.876266
23, 3, bw, attraction, a-b-db, 14, 2, 4, 29, 165, 90, 90, 165, 83, 153, 2, 3.31819
23, 3, bw, attraction, a-b-db, 14, 2, 4, 29, 165, 90, 90, 165, 83, 153, 1, 0.799101
23, 3, bw, attraction, a-b-da, 14, 3, 4, 30, 181, 111, 195, 120, 120, 195, 3, 1.43669
23, 3, bw, attraction, a-b-da, 14, 3, 4, 30, 181, 111, 195, 120, 120, 195, 1, 3.25733
23, 3, bw, filler, NA, 999, 999, 4, 31, 137, 163, 190, 188, 68, 167, 2, 1.52543
23, 3, bw, filler, NA, 999, 999, 4, 31, 137, 163, 190, 188, 68, 167, 3, 0.799368
23, 3, bw, attraction, a-b-da, 5, 3, 4, 32, 195, 120, 190, 117, 120, 195, 2, 1.35651
23, 3, bw, attraction, a-b-da, 5, 3, 4, 32, 195, 120, 190, 117, 120, 195, 1, 1.58402
23, 3, bw, filler, NA, 999, 999, 4, 33, 191, 79, 83, 68, 159, 142, 3, 1.44552
23, 3, bw, filler, NA, 999, 999, 4, 33, 191, 79, 83, 68, 159, 142, 2, 0.745452
23, 3, bw, filler, NA, 999, 999, 4, 34, 120, 92, 184, 106, 96, 116, 2, 1.69733
23, 3, bw, filler, NA, 999, 999, 4, 34, 120, 92, 184, 106, 96, 116, 3, 0.780067
23, 3, bw, attraction, a-b-da, 2, 1, 4, 35, 134, 59, 60, 135, 135, 60, 2, 3.34704
23, 3, bw, attraction, a-b-da, 2, 1, 4, 35, 134, 59, 60, 135, 135, 60, 3, 1.32297
23, 3, bw, attraction, a-b-da, 5, 2, 4, 36, 161, 88, 90, 165, 165, 90, 2, 1.64549
23, 3, bw, attraction, a-b-da, 5, 2, 4, 36, 161, 88, 90, 165, 165, 90, 3, 1.02683
23, 3, bw, filler, NA, 999, 999, 4, 37, 176, 187, 125, 150, 112, 119, 1, 1.30289
23, 3, bw, filler, NA, 999, 999, 4, 37, 176, 187, 125, 150, 112, 119, 3, 0.745625
23, 3, bw, attraction, a-b-da, 2, 1, 5, 1, 134, 59, 60, 135, 135, 60, 2, 5.76806
23, 3, bw, attraction, a-b-da, 2, 1, 5, 1, 134, 59, 60, 135, 135, 60, 1, 0.82925
23, 3, bw, filler, NA, 999, 999, 5, 2, 178, 86, 62, 96, 114, 103, 1, 1.49319
23, 3, bw, filler, NA, 999, 999, 5, 2, 178, 86, 62, 96, 114, 103, 2, 0.862524
23, 3, bw, attraction, a-b-db, 14, 3, 5, 3, 111, 181, 195, 120, 120, 195, 3, 1.57015
23, 3, bw, attraction, a-b-db, 14, 3, 5, 3, 111, 181, 195, 120, 120, 195, 1, 0.819129
23, 3, bw, attraction, a-b-db, 9, 3, 5, 4, 114, 186, 120, 195, 195, 120, 2, 1.84056
23, 3, bw, attraction, a-b-db, 9, 3, 5, 4, 114, 186, 120, 195, 195, 120, 3, 0.958609
23, 3, bw, filler, NA, 999, 999, 5, 5, 110, 90, 151, 96, 190, 84, 3, 1.57299
23, 3, bw, filler, NA, 999, 999, 5, 5, 110, 90, 151, 96, 190, 84, 1, 2.67526
23, 3, bw, filler, NA, 999, 999, 5, 6, 95, 116, 108, 171, 69, 66, 2, 1.45486
23, 3, bw, filler, NA, 999, 999, 5, 6, 95, 116, 108, 171, 69, 66, 3, 1.02803
23, 3, bw, attraction, a-b-db, 5, 3, 5, 7, 195, 120, 117, 190, 120, 195, 3, 2.27381
23, 3, bw, attraction, a-b-db, 5, 3, 5, 7, 195, 120, 117, 190, 120, 195, 1, 1.11827
23, 3, bw, filler, NA, 999, 999, 5, 8, 156, 85, 115, 76, 82, 182, 3, 1.91003
23, 3, bw, filler, NA, 999, 999, 5, 8, 156, 85, 115, 76, 82, 182, 2, 0.800113
23, 3, bw, filler, NA, 999, 999, 5, 9, 191, 125, 145, 190, 183, 95, 2, 1.63652
23, 3, bw, filler, NA, 999, 999, 5, 9, 191, 125, 145, 190, 183, 95, 3, 0.733447
23, 3, bw, attraction, a-b-db, 14, 1, 5, 10, 135, 60, 60, 135, 56, 125, 2, 2.28453
23, 3, bw, attraction, a-b-db, 14, 1, 5, 10, 135, 60, 60, 135, 56, 125, 1, 3.16821
23, 3, bw, filler, NA, 999, 999, 5, 11, 100, 56, 166, 179, 145, 117, 2, 1.332
23, 3, bw, filler, NA, 999, 999, 5, 11, 100, 56, 166, 179, 145, 117, 1, 0.992062
23, 3, bw, attraction, a-b-da, 14, 3, 5, 12, 195, 120, 181, 111, 120, 195, 1, 1.95721
23, 3, bw, attraction, a-b-da, 14, 3, 5, 12, 195, 120, 181, 111, 120, 195, 2, 0.768104
23, 3, bw, attraction, a-b-db, 5, 1, 5, 13, 60, 135, 58, 132, 135, 60, 2, 1.79055
23, 3, bw, attraction, a-b-db, 5, 1, 5, 13, 60, 135, 58, 132, 135, 60, 3, 0.827872
23, 3, bw, catch, NA, 999, 999, 5, 14, 123, 72, 125, 130, 169, 146, 3, 4.41784
23, 3, bw, catch, NA, 999, 999, 5, 14, 123, 72, 125, 130, 169, 146, 1, 0.790861
23, 3, bw, catch, NA, 999, 999, 5, 15, 148, 167, 69, 126, 94, 161, 1, 1.61435
23, 3, bw, catch, NA, 999, 999, 5, 15, 148, 167, 69, 126, 94, 161, 2, 0.773426
23, 3, bw, attraction, a-b-db, 5, 2, 5, 16, 165, 90, 90, 165, 88, 161, 3, 1.96131
23, 3, bw, attraction, a-b-db, 5, 2, 5, 16, 165, 90, 90, 165, 88, 161, 1, 1.05186
23, 3, bw, attraction, a-b-db, 14, 2, 5, 17, 165, 90, 83, 153, 90, 165, 2, 1.59901
23, 3, bw, attraction, a-b-db, 14, 2, 5, 17, 165, 90, 83, 153, 90, 165, 1, 0.83161
23, 3, bw, attraction, a-b-db, 2, 1, 5, 18, 60, 135, 59, 134, 135, 60, 2, 1.42646
23, 3, bw, attraction, a-b-db, 2, 1, 5, 18, 60, 135, 59, 134, 135, 60, 3, 0.80213
23, 3, bw, filler, NA, 999, 999, 5, 19, 125, 68, 137, 146, 82, 146, 2, 1.27752
23, 3, bw, filler, NA, 999, 999, 5, 19, 125, 68, 137, 146, 82, 146, 1, 0.8267
23, 3, bw, attraction, a-b-da, 2, 2, 5, 20, 163, 89, 90, 165, 165, 90, 1, 1.54395
23, 3, bw, attraction, a-b-da, 2, 2, 5, 20, 163, 89, 90, 165, 165, 90, 2, 0.769079
23, 3, bw, attraction, a-b-da, 9, 2, 5, 21, 157, 86, 90, 165, 165, 90, 2, 1.49543
23, 3, bw, attraction, a-b-da, 9, 2, 5, 21, 157, 86, 90, 165, 165, 90, 1, 0.930311
23, 3, bw, attraction, a-b-da, 5, 3, 5, 22, 120, 195, 195, 120, 190, 117, 2, 1.32638
23, 3, bw, attraction, a-b-da, 5, 3, 5, 22, 120, 195, 195, 120, 190, 117, 1, 0.773808
23, 3, bw, attraction, a-b-da, 14, 2, 5, 23, 90, 165, 153, 83, 165, 90, 1, 2.27814
23, 3, bw, attraction, a-b-da, 14, 2, 5, 23, 90, 165, 153, 83, 165, 90, 2, 0.768613
23, 3, bw, attraction, a-b-da, 2, 3, 5, 24, 193, 119, 195, 120, 120, 195, 3, 1.85487
23, 3, bw, attraction, a-b-da, 2, 3, 5, 24, 193, 119, 195, 120, 120, 195, 1, 1.13138
23, 3, bw, filler, NA, 999, 999, 5, 25, 87, 192, 146, 136, 111, 163, 2, 4.87782
23, 3, bw, filler, NA, 999, 999, 5, 25, 87, 192, 146, 136, 111, 163, 1, 1.02349
23, 3, bw, attraction, a-b-da, 5, 1, 5, 26, 135, 60, 60, 135, 132, 58, 2, 1.3165
23, 3, bw, attraction, a-b-da, 5, 1, 5, 26, 135, 60, 60, 135, 132, 58, 1, 1.26363
23, 3, bw, attraction, a-b-db, 2, 3, 5, 27, 119, 193, 195, 120, 120, 195, 2, 1.42588
23, 3, bw, attraction, a-b-db, 2, 3, 5, 27, 119, 193, 195, 120, 120, 195, 3, 0.929371
23, 3, bw, filler, NA, 999, 999, 5, 28, 141, 103, 138, 164, 65, 163, 2, 1.32977
23, 3, bw, filler, NA, 999, 999, 5, 28, 141, 103, 138, 164, 65, 163, 1, 1.24293
23, 3, bw, attraction, a-b-da, 9, 1, 5, 29, 60, 135, 129, 57, 135, 60, 1, 1.92083
23, 3, bw, attraction, a-b-da, 9, 1, 5, 29, 60, 135, 129, 57, 135, 60, 2, 0.783824
23, 3, bw, filler, NA, 999, 999, 5, 30, 115, 167, 69, 59, 63, 108, 1, 1.402
23, 3, bw, filler, NA, 999, 999, 5, 30, 115, 167, 69, 59, 63, 108, 2, 0.878673
23, 3, bw, attraction, a-b-db, 9, 1, 5, 31, 57, 129, 135, 60, 60, 135, 3, 1.66002
23, 3, bw, attraction, a-b-db, 9, 1, 5, 31, 57, 129, 135, 60, 60, 135, 2, 0.776999
23, 3, bw, attraction, a-b-da, 14, 1, 5, 32, 125, 56, 60, 135, 135, 60, 2, 1.47876
23, 3, bw, attraction, a-b-da, 14, 1, 5, 32, 125, 56, 60, 135, 135, 60, 1, 0.888812
23, 3, bw, attraction, a-b-db, 9, 2, 5, 33, 86, 157, 90, 165, 165, 90, 2, 1.85279
23, 3, bw, attraction, a-b-db, 9, 2, 5, 33, 86, 157, 90, 165, 165, 90, 1, 1.03976
23, 3, bw, attraction, a-b-da, 9, 3, 5, 34, 186, 114, 120, 195, 195, 120, 2, 1.46737
23, 3, bw, attraction, a-b-da, 9, 3, 5, 34, 186, 114, 120, 195, 195, 120, 1, 1.0829
23, 3, bw, attraction, a-b-db, 2, 2, 5, 35, 89, 163, 90, 165, 165, 90, 2, 1.27622
23, 3, bw, attraction, a-b-db, 2, 2, 5, 35, 89, 163, 90, 165, 165, 90, 1, 0.807774
23, 3, bw, catch, NA, 999, 999, 5, 36, 135, 120, 116, 79, 139, 176, 3, 2.08459
23, 3, bw, catch, NA, 999, 999, 5, 36, 135, 120, 116, 79, 139, 176, 2, 1.13756
23, 3, bw, attraction, a-b-da, 5, 2, 5, 37, 165, 90, 161, 88, 90, 165, 2, 1.68779
23, 3, bw, attraction, a-b-da, 5, 2, 5, 37, 165, 90, 161, 88, 90, 165, 3, 1.04548
23, 3, bw, attraction, a-b-db, 14, 3, 6, 1, 195, 120, 111, 181, 120, 195, 2, 1.50323
23, 3, bw, attraction, a-b-db, 14, 3, 6, 1, 195, 120, 111, 181, 120, 195, 1, 0.811401
23, 3, bw, attraction, a-b-db, 9, 3, 6, 2, 114, 186, 120, 195, 195, 120, 2, 1.69832
23, 3, bw, attraction, a-b-db, 9, 3, 6, 2, 114, 186, 120, 195, 195, 120, 1, 1.09969
23, 3, bw, filler, NA, 999, 999, 6, 3, 101, 127, 72, 93, 133, 179, 3, 2.05195
23, 3, bw, filler, NA, 999, 999, 6, 3, 101, 127, 72, 93, 133, 179, 2, 1.78583
23, 3, bw, attraction, a-b-da, 14, 2, 6, 4, 90, 165, 153, 83, 165, 90, 1, 1.30492
23, 3, bw, attraction, a-b-da, 14, 2, 6, 4, 90, 165, 153, 83, 165, 90, 3, 0.892439
23, 3, bw, catch, NA, 999, 999, 6, 5, 129, 66, 122, 133, 123, 192, 3, 1.95761
23, 3, bw, catch, NA, 999, 999, 6, 5, 129, 66, 122, 133, 123, 192, 1, 0.765184
23, 3, bw, attraction, a-b-db, 5, 2, 6, 6, 88, 161, 165, 90, 90, 165, 3, 1.6447
23, 3, bw, attraction, a-b-db, 5, 2, 6, 6, 88, 161, 165, 90, 90, 165, 2, 0.556189
23, 3, bw, filler, NA, 999, 999, 6, 7, 146, 131, 121, 173, 71, 99, 2, 1.45079
23, 3, bw, filler, NA, 999, 999, 6, 7, 146, 131, 121, 173, 71, 99, 3, 0.814235
23, 3, bw, filler, NA, 999, 999, 6, 8, 120, 75, 69, 132, 180, 114, 3, 1.34836
23, 3, bw, filler, NA, 999, 999, 6, 8, 120, 75, 69, 132, 180, 114, 2, 0.87071
23, 3, bw, attraction, a-b-db, 5, 3, 6, 9, 195, 120, 117, 190, 120, 195, 3, 2.00875
23, 3, bw, attraction, a-b-db, 5, 3, 6, 9, 195, 120, 117, 190, 120, 195, 1, 1.23964
23, 3, bw, filler, NA, 999, 999, 6, 10, 168, 154, 150, 95, 137, 115, 1, 1.45191
23, 3, bw, filler, NA, 999, 999, 6, 10, 168, 154, 150, 95, 137, 115, 3, 0.952033
23, 3, bw, attraction, a-b-db, 9, 2, 6, 11, 90, 165, 165, 90, 86, 157, 1, 2.33636
23, 3, bw, attraction, a-b-db, 9, 2, 6, 11, 90, 165, 165, 90, 86, 157, 2, 1.43984
23, 3, bw, attraction, a-b-da, 2, 2, 6, 12, 90, 165, 163, 89, 165, 90, 1, 1.93169
23, 3, bw, attraction, a-b-da, 2, 2, 6, 12, 90, 165, 163, 89, 165, 90, 3, 2.14176
23, 3, bw, filler, NA, 999, 999, 6, 13, 116, 113, 148, 70, 66, 126, 1, 2.47728
23, 3, bw, filler, NA, 999, 999, 6, 13, 116, 113, 148, 70, 66, 126, 3, 0.906686
23, 3, bw, catch, NA, 999, 999, 6, 14, 124, 131, 65, 130, 139, 176, 3, 1.73334
23, 3, bw, catch, NA, 999, 999, 6, 14, 124, 131, 65, 130, 139, 176, 2, 0.909377
23, 3, bw, attraction, a-b-da, 5, 1, 6, 15, 132, 58, 60, 135, 135, 60, 3, 2.00045
23, 3, bw, attraction, a-b-da, 5, 1, 6, 15, 132, 58, 60, 135, 135, 60, 2, 0.871206
23, 3, bw, attraction, a-b-da, 2, 1, 6, 16, 134, 59, 60, 135, 135, 60, 2, 2.47378
23, 3, bw, attraction, a-b-da, 2, 1, 6, 16, 134, 59, 60, 135, 135, 60, 1, 0.916295
23, 3, bw, attraction, a-b-db, 2, 1, 6, 17, 59, 134, 60, 135, 135, 60, 1, 1.54225
23, 3, bw, attraction, a-b-db, 2, 1, 6, 17, 59, 134, 60, 135, 135, 60, 2, 0.975864
23, 3, bw, filler, NA, 999, 999, 6, 18, 160, 109, 131, 187, 84, 75, 2, 1.27115
23, 3, bw, filler, NA, 999, 999, 6, 18, 160, 109, 131, 187, 84, 75, 3, 1.06551
23, 3, bw, catch, NA, 999, 999, 6, 19, 86, 109, 140, 115, 122, 193, 3, 1.3163
23, 3, bw, catch, NA, 999, 999, 6, 19, 86, 109, 140, 115, 122, 193, 1, 0.854897
23, 3, bw, attraction, a-b-da, 9, 2, 6, 20, 157, 86, 90, 165, 165, 90, 3, 2.17135
23, 3, bw, attraction, a-b-da, 9, 2, 6, 20, 157, 86, 90, 165, 165, 90, 2, 1.06002
23, 3, bw, attraction, a-b-db, 14, 1, 6, 21, 56, 125, 135, 60, 60, 135, 3, 1.72742
23, 3, bw, attraction, a-b-db, 14, 1, 6, 21, 56, 125, 135, 60, 60, 135, 2, 0.943967
23, 3, bw, attraction, a-b-da, 2, 3, 6, 22, 120, 195, 195, 120, 193, 119, 3, 2.59385
23, 3, bw, attraction, a-b-da, 2, 3, 6, 22, 120, 195, 195, 120, 193, 119, 2, 0.849181
23, 3, bw, attraction, a-b-db, 2, 2, 6, 23, 89, 163, 90, 165, 165, 90, 2, 2.27605
23, 3, bw, attraction, a-b-db, 2, 2, 6, 23, 89, 163, 90, 165, 165, 90, 1, 0.919605
23, 3, bw, attraction, a-b-db, 2, 3, 6, 24, 120, 195, 119, 193, 195, 120, 2, 2.03982
23, 3, bw, attraction, a-b-db, 2, 3, 6, 24, 120, 195, 119, 193, 195, 120, 3, 0.862807
23, 3, bw, filler, NA, 999, 999, 6, 25, 195, 122, 158, 150, 143, 194, 3, 2.09158
23, 3, bw, filler, NA, 999, 999, 6, 25, 195, 122, 158, 150, 143, 194, 1, 0.77298
23, 3, bw, attraction, a-b-db, 14, 2, 6, 26, 165, 90, 90, 165, 83, 153, 2, 1.84406
23, 3, bw, attraction, a-b-db, 14, 2, 6, 26, 165, 90, 90, 165, 83, 153, 3, 0.809612
23, 3, bw, attraction, a-b-da, 5, 3, 6, 27, 190, 117, 195, 120, 120, 195, 3, 1.82466
23, 3, bw, attraction, a-b-da, 5, 3, 6, 27, 190, 117, 195, 120, 120, 195, 1, 4.71928
23, 3, bw, attraction, a-b-db, 5, 1, 6, 28, 135, 60, 58, 132, 60, 135, 3, 2.45426
23, 3, bw, attraction, a-b-db, 5, 1, 6, 28, 135, 60, 58, 132, 60, 135, 1, 1.18586
23, 3, bw, filler, NA, 999, 999, 6, 29, 62, 187, 161, 108, 161, 125, 3, 1.47979
23, 3, bw, filler, NA, 999, 999, 6, 29, 62, 187, 161, 108, 161, 125, 1, 0.947774
23, 3, bw, filler, NA, 999, 999, 6, 30, 147, 67, 145, 192, 111, 185, 2, 1.33357
23, 3, bw, filler, NA, 999, 999, 6, 30, 147, 67, 145, 192, 111, 185, 1, 1.02194
23, 3, bw, filler, NA, 999, 999, 6, 31, 168, 181, 169, 81, 181, 58, 1, 2.09037
23, 3, bw, filler, NA, 999, 999, 6, 31, 168, 181, 169, 81, 181, 58, 3, 0.805993
23, 3, bw, attraction, a-b-db, 9, 1, 6, 32, 57, 129, 135, 60, 60, 135, 3, 1.5232
23, 3, bw, attraction, a-b-db, 9, 1, 6, 32, 57, 129, 135, 60, 60, 135, 1, 0.758116
23, 3, bw, attraction, a-b-da, 14, 3, 6, 33, 181, 111, 195, 120, 120, 195, 3, 2.17209
23, 3, bw, attraction, a-b-da, 14, 3, 6, 33, 181, 111, 195, 120, 120, 195, 1, 0.837286
23, 3, bw, attraction, a-b-da, 5, 2, 6, 34, 161, 88, 90, 165, 165, 90, 1, 1.5861
23, 3, bw, attraction, a-b-da, 5, 2, 6, 34, 161, 88, 90, 165, 165, 90, 3, 1.00855
23, 3, bw, attraction, a-b-da, 14, 1, 6, 35, 125, 56, 135, 60, 60, 135, 3, 1.59908
23, 3, bw, attraction, a-b-da, 14, 1, 6, 35, 125, 56, 135, 60, 60, 135, 1, 0.848275
23, 3, bw, attraction, a-b-da, 9, 1, 6, 36, 129, 57, 135, 60, 60, 135, 3, 2.06581
23, 3, bw, attraction, a-b-da, 9, 1, 6, 36, 129, 57, 135, 60, 60, 135, 1, 0.691772
23, 3, bw, attraction, a-b-da, 9, 3, 6, 37, 120, 195, 195, 120, 186, 114, 1, 1.57579
23, 3, bw, attraction, a-b-da, 9, 3, 6, 37, 120, 195, 195, 120, 186, 114, 3, 0.799456
23, 3, bw, attraction, a-b-db, 9, 3, 7, 1, 195, 120, 120, 195, 114, 186, 2, 1.51707
23, 3, bw, attraction, a-b-db, 9, 3, 7, 1, 195, 120, 120, 195, 114, 186, 1, 0.686389
23, 3, bw, attraction, a-b-db, 9, 1, 7, 2, 60, 135, 57, 129, 135, 60, 1, 1.73211
23, 3, bw, attraction, a-b-db, 9, 1, 7, 2, 60, 135, 57, 129, 135, 60, 3, 0.762527
23, 3, bw, attraction, a-b-da, 5, 2, 7, 3, 165, 90, 90, 165, 161, 88, 1, 2.44394
23, 3, bw, attraction, a-b-da, 5, 2, 7, 3, 165, 90, 90, 165, 161, 88, 3, 0.810238
23, 3, bw, filler, NA, 999, 999, 7, 4, 110, 114, 111, 125, 68, 103, 2, 1.70236
23, 3, bw, filler, NA, 999, 999, 7, 4, 110, 114, 111, 125, 68, 103, 3, 1.16776
23, 3, bw, attraction, a-b-da, 14, 2, 7, 5, 165, 90, 90, 165, 153, 83, 2, 1.33788
23, 3, bw, attraction, a-b-da, 14, 2, 7, 5, 165, 90, 90, 165, 153, 83, 1, 0.866338
23, 3, bw, attraction, a-b-da, 2, 1, 7, 6, 135, 60, 60, 135, 134, 59, 2, 1.57065
23, 3, bw, attraction, a-b-da, 2, 1, 7, 6, 135, 60, 60, 135, 134, 59, 3, 0.892784
23, 3, bw, attraction, a-b-da, 9, 1, 7, 7, 129, 57, 60, 135, 135, 60, 2, 1.38338
23, 3, bw, attraction, a-b-da, 9, 1, 7, 7, 129, 57, 60, 135, 135, 60, 1, 0.694566
23, 3, bw, filler, NA, 999, 999, 7, 8, 144, 153, 81, 71, 130, 64, 1, 1.39104
23, 3, bw, filler, NA, 999, 999, 7, 8, 144, 153, 81, 71, 130, 64, 2, 0.600141
23, 3, bw, filler, NA, 999, 999, 7, 9, 144, 153, 114, 185, 119, 148, 2, 1.47027
23, 3, bw, filler, NA, 999, 999, 7, 9, 144, 153, 114, 185, 119, 148, 3, 1.57045
23, 3, bw, filler, NA, 999, 999, 7, 10, 136, 169, 146, 77, 160, 171, 3, 1.87183
23, 3, bw, filler, NA, 999, 999, 7, 10, 136, 169, 146, 77, 160, 171, 2, 2.56568
23, 3, bw, catch, NA, 999, 999, 7, 11, 122, 193, 156, 99, 105, 90, 1, 2.18822
23, 3, bw, catch, NA, 999, 999, 7, 11, 122, 193, 156, 99, 105, 90, 3, 1.50666
23, 3, bw, attraction, a-b-db, 14, 2, 7, 12, 90, 165, 83, 153, 165, 90, 2, 1.83698
23, 3, bw, attraction, a-b-db, 14, 2, 7, 12, 90, 165, 83, 153, 165, 90, 3, 0.787818
23, 3, bw, filler, NA, 999, 999, 7, 13, 115, 83, 136, 164, 60, 145, 2, 1.24985
23, 3, bw, filler, NA, 999, 999, 7, 13, 115, 83, 136, 164, 60, 145, 1, 1.29358
23, 3, bw, attraction, a-b-db, 2, 1, 7, 14, 135, 60, 59, 134, 60, 135, 2, 1.7515
23, 3, bw, attraction, a-b-db, 2, 1, 7, 14, 135, 60, 59, 134, 60, 135, 1, 1.40003
23, 3, bw, attraction, a-b-db, 14, 1, 7, 15, 135, 60, 56, 125, 60, 135, 2, 1.57372
23, 3, bw, attraction, a-b-db, 14, 1, 7, 15, 135, 60, 56, 125, 60, 135, 1, 0.88766
23, 3, bw, attraction, a-b-da, 2, 2, 7, 16, 163, 89, 165, 90, 90, 165, 3, 1.65676
23, 3, bw, attraction, a-b-da, 2, 2, 7, 16, 163, 89, 165, 90, 90, 165, 1, 0.988901
23, 3, bw, filler, NA, 999, 999, 7, 17, 172, 110, 112, 117, 69, 123, 1, 1.97174
23, 3, bw, filler, NA, 999, 999, 7, 17, 172, 110, 112, 117, 69, 123, 3, 2.97142
23, 3, bw, attraction, a-b-da, 9, 2, 7, 18, 157, 86, 90, 165, 165, 90, 3, 2.68834
23, 3, bw, attraction, a-b-da, 9, 2, 7, 18, 157, 86, 90, 165, 165, 90, 1, 1.10902
23, 3, bw, attraction, a-b-da, 5, 3, 7, 19, 120, 195, 190, 117, 195, 120, 1, 3.19778
23, 3, bw, attraction, a-b-da, 5, 3, 7, 19, 120, 195, 190, 117, 195, 120, 3, 1.2783
23, 3, bw, catch, NA, 999, 999, 7, 20, 144, 171, 114, 81, 156, 99, 1, 1.65658
23, 3, bw, catch, NA, 999, 999, 7, 20, 144, 171, 114, 81, 156, 99, 2, 0.923562
23, 3, bw, attraction, a-b-db, 2, 3, 7, 21, 195, 120, 120, 195, 119, 193, 2, 1.90315
23, 3, bw, attraction, a-b-db, 2, 3, 7, 21, 195, 120, 120, 195, 119, 193, 1, 1.44908
23, 3, bw, attraction, a-b-da, 14, 1, 7, 22, 125, 56, 135, 60, 60, 135, 3, 1.35838
23, 3, bw, attraction, a-b-da, 14, 1, 7, 22, 125, 56, 135, 60, 60, 135, 2, 1.17913
23, 3, bw, attraction, a-b-db, 9, 2, 7, 23, 86, 157, 90, 165, 165, 90, 2, 2.23564
23, 3, bw, attraction, a-b-db, 9, 2, 7, 23, 86, 157, 90, 165, 165, 90, 3, 0.792673
23, 3, bw, attraction, a-b-db, 14, 3, 7, 24, 120, 195, 195, 120, 111, 181, 1, 3.04866
23, 3, bw, attraction, a-b-db, 14, 3, 7, 24, 120, 195, 195, 120, 111, 181, 2, 0.867545
23, 3, bw, attraction, a-b-db, 5, 3, 7, 25, 120, 195, 195, 120, 117, 190, 1, 4.82962
23, 3, bw, attraction, a-b-db, 5, 3, 7, 25, 120, 195, 195, 120, 117, 190, 2, 1.64142
23, 3, bw, attraction, a-b-db, 2, 2, 7, 26, 89, 163, 90, 165, 165, 90, 2, 2.65542
23, 3, bw, attraction, a-b-db, 2, 2, 7, 26, 89, 163, 90, 165, 165, 90, 3, 1.45292
23, 3, bw, catch, NA, 999, 999, 7, 27, 71, 124, 165, 90, 169, 146, 3, 1.95085
23, 3, bw, catch, NA, 999, 999, 7, 27, 71, 124, 165, 90, 169, 146, 1, 0.840282
23, 3, bw, attraction, a-b-da, 9, 3, 7, 28, 120, 195, 195, 120, 186, 114, 1, 2.05277
23, 3, bw, attraction, a-b-da, 9, 3, 7, 28, 120, 195, 195, 120, 186, 114, 3, 1.09065
23, 3, bw, attraction, a-b-db, 5, 2, 7, 29, 165, 90, 90, 165, 88, 161, 2, 1.97826
23, 3, bw, attraction, a-b-db, 5, 2, 7, 29, 165, 90, 90, 165, 88, 161, 1, 1.03371
23, 3, bw, filler, NA, 999, 999, 7, 30, 106, 161, 143, 100, 151, 166, 3, 1.69397
23, 3, bw, filler, NA, 999, 999, 7, 30, 106, 161, 143, 100, 151, 166, 1, 0.961149
23, 3, bw, attraction, a-b-da, 5, 1, 7, 31, 132, 58, 135, 60, 60, 135, 3, 1.83999
23, 3, bw, attraction, a-b-da, 5, 1, 7, 31, 132, 58, 135, 60, 60, 135, 2, 1.23919
23, 3, bw, attraction, a-b-db, 5, 1, 7, 32, 135, 60, 58, 132, 60, 135, 2, 1.71629
23, 3, bw, attraction, a-b-db, 5, 1, 7, 32, 135, 60, 58, 132, 60, 135, 3, 2.12603
23, 3, bw, attraction, a-b-da, 14, 3, 7, 33, 195, 120, 181, 111, 120, 195, 1, 1.9436
23, 3, bw, attraction, a-b-da, 14, 3, 7, 33, 195, 120, 181, 111, 120, 195, 2, 0.966922
23, 3, bw, filler, NA, 999, 999, 7, 34, 141, 127, 122, 86, 128, 61, 1, 1.85257
23, 3, bw, filler, NA, 999, 999, 7, 34, 141, 127, 122, 86, 128, 61, 3, 1.0764
23, 3, bw, filler, NA, 999, 999, 7, 35, 177, 128, 64, 178, 187, 146, 3, 7.46327
23, 3, bw, filler, NA, 999, 999, 7, 35, 177, 128, 64, 178, 187, 146, 2, 1.76132
23, 3, bw, filler, NA, 999, 999, 7, 36, 156, 192, 84, 174, 106, 188, 1, 1.94439
23, 3, bw, filler, NA, 999, 999, 7, 36, 156, 192, 84, 174, 106, 188, 2, 0.833092
23, 3, bw, attraction, a-b-da, 2, 3, 7, 37, 193, 119, 195, 120, 120, 195, 3, 1.50215
23, 3, bw, attraction, a-b-da, 2, 3, 7, 37, 193, 119, 195, 120, 120, 195, 1, 0.792752
23, 3, bw, attraction, a-b-da, 9, 2, 8, 1, 157, 86, 90, 165, 165, 90, 2, 1.83201
23, 3, bw, attraction, a-b-da, 9, 2, 8, 1, 157, 86, 90, 165, 165, 90, 1, 1.21109
23, 3, bw, attraction, a-b-db, 2, 1, 8, 2, 59, 134, 60, 135, 135, 60, 1, 1.85136
23, 3, bw, attraction, a-b-db, 2, 1, 8, 2, 59, 134, 60, 135, 135, 60, 3, 1.07133
23, 3, bw, attraction, a-b-db, 9, 3, 8, 3, 195, 120, 114, 186, 120, 195, 2, 1.61068
23, 3, bw, attraction, a-b-db, 9, 3, 8, 3, 195, 120, 114, 186, 120, 195, 1, 0.847132
23, 3, bw, filler, NA, 999, 999, 8, 4, 117, 144, 184, 168, 75, 107, 2, 1.32471
23, 3, bw, filler, NA, 999, 999, 8, 4, 117, 144, 184, 168, 75, 107, 3, 0.742107
23, 3, bw, catch, NA, 999, 999, 8, 5, 130, 125, 103, 92, 147, 168, 3, 1.56683
23, 3, bw, catch, NA, 999, 999, 8, 5, 130, 125, 103, 92, 147, 168, 2, 0.743922
23, 3, bw, filler, NA, 999, 999, 8, 6, 172, 183, 132, 57, 82, 71, 1, 1.2017
23, 3, bw, filler, NA, 999, 999, 8, 6, 172, 183, 132, 57, 82, 71, 3, 1.03205
23, 3, bw, attraction, a-b-da, 5, 3, 8, 7, 120, 195, 195, 120, 190, 117, 1, 2.44343
23, 3, bw, attraction, a-b-da, 5, 3, 8, 7, 120, 195, 195, 120, 190, 117, 3, 0.786655
23, 3, bw, attraction, a-b-da, 2, 3, 8, 8, 195, 120, 193, 119, 120, 195, 3, 1.59978
23, 3, bw, attraction, a-b-da, 2, 3, 8, 8, 195, 120, 193, 119, 120, 195, 1, 0.766133
23, 3, bw, catch, NA, 999, 999, 8, 9, 121, 74, 119, 136, 132, 183, 3, 1.22985
23, 3, bw, catch, NA, 999, 999, 8, 9, 121, 74, 119, 136, 132, 183, 1, 1.13056
23, 3, bw, attraction, a-b-da, 5, 2, 8, 10, 161, 88, 90, 165, 165, 90, 2, 1.31706
23, 3, bw, attraction, a-b-da, 5, 2, 8, 10, 161, 88, 90, 165, 165, 90, 3, 0.764532
23, 3, bw, filler, NA, 999, 999, 8, 11, 130, 124, 89, 105, 135, 174, 3, 1.54219
23, 3, bw, filler, NA, 999, 999, 8, 11, 130, 124, 89, 105, 135, 174, 2, 1.09499
23, 3, bw, attraction, a-b-da, 14, 3, 8, 12, 195, 120, 120, 195, 181, 111, 2, 1.75908
23, 3, bw, attraction, a-b-da, 14, 3, 8, 12, 195, 120, 120, 195, 181, 111, 1, 0.705093
23, 3, bw, attraction, a-b-db, 9, 1, 8, 13, 135, 60, 57, 129, 60, 135, 2, 1.79426
23, 3, bw, attraction, a-b-db, 9, 1, 8, 13, 135, 60, 57, 129, 60, 135, 1, 1.30002
23, 3, bw, attraction, a-b-da, 14, 1, 8, 14, 60, 135, 135, 60, 125, 56, 1, 1.73207
23, 3, bw, attraction, a-b-da, 14, 1, 8, 14, 60, 135, 135, 60, 125, 56, 3, 0.806861
23, 3, bw, attraction, a-b-da, 2, 1, 8, 15, 135, 60, 60, 135, 134, 59, 2, 1.53057
23, 3, bw, attraction, a-b-da, 2, 1, 8, 15, 135, 60, 60, 135, 134, 59, 1, 1.28313
23, 3, bw, attraction, a-b-da, 9, 3, 8, 16, 186, 114, 195, 120, 120, 195, 2, 1.38988
23, 3, bw, attraction, a-b-da, 9, 3, 8, 16, 186, 114, 195, 120, 120, 195, 3, 0.903817
23, 3, bw, attraction, a-b-da, 14, 2, 8, 17, 165, 90, 153, 83, 90, 165, 1, 1.66371
23, 3, bw, attraction, a-b-da, 14, 2, 8, 17, 165, 90, 153, 83, 90, 165, 3, 1.53343
23, 3, bw, attraction, a-b-db, 14, 3, 8, 18, 195, 120, 120, 195, 111, 181, 2, 1.46007
23, 3, bw, attraction, a-b-db, 14, 3, 8, 18, 195, 120, 120, 195, 111, 181, 3, 1.0019
23, 3, bw, attraction, a-b-db, 14, 1, 8, 19, 60, 135, 56, 125, 135, 60, 2, 1.8451
23, 3, bw, attraction, a-b-db, 14, 1, 8, 19, 60, 135, 56, 125, 135, 60, 1, 1.06014
23, 3, bw, attraction, a-b-da, 2, 2, 8, 20, 165, 90, 90, 165, 163, 89, 2, 1.45677
23, 3, bw, attraction, a-b-da, 2, 2, 8, 20, 165, 90, 90, 165, 163, 89, 3, 0.844586
23, 3, bw, attraction, a-b-da, 5, 1, 8, 21, 135, 60, 60, 135, 132, 58, 1, 1.79365
23, 3, bw, attraction, a-b-da, 5, 1, 8, 21, 135, 60, 60, 135, 132, 58, 3, 1.04853
23, 3, bw, filler, NA, 999, 999, 8, 22, 90, 118, 134, 96, 65, 85, 2, 4.62772
23, 3, bw, filler, NA, 999, 999, 8, 22, 90, 118, 134, 96, 65, 85, 3, 0.88727
23, 3, bw, filler, NA, 999, 999, 8, 23, 158, 64, 117, 112, 100, 59, 2, 1.40314
23, 3, bw, filler, NA, 999, 999, 8, 23, 158, 64, 117, 112, 100, 59, 3, 1.03615
23, 3, bw, attraction, a-b-db, 5, 1, 8, 24, 58, 132, 60, 135, 135, 60, 1, 1.76606
23, 3, bw, attraction, a-b-db, 5, 1, 8, 24, 58, 132, 60, 135, 135, 60, 3, 0.733236
23, 3, bw, attraction, a-b-db, 2, 3, 8, 25, 195, 120, 119, 193, 120, 195, 2, 2.18268
23, 3, bw, attraction, a-b-db, 2, 3, 8, 25, 195, 120, 119, 193, 120, 195, 1, 0.711099
23, 3, bw, filler, NA, 999, 999, 8, 26, 111, 153, 82, 126, 163, 130, 3, 2.11862
23, 3, bw, filler, NA, 999, 999, 8, 26, 111, 153, 82, 126, 163, 130, 2, 0.778672
23, 3, bw, attraction, a-b-db, 5, 3, 8, 27, 117, 190, 120, 195, 195, 120, 2, 1.48914
23, 3, bw, attraction, a-b-db, 5, 3, 8, 27, 117, 190, 120, 195, 195, 120, 3, 1.00365
23, 3, bw, filler, NA, 999, 999, 8, 28, 81, 189, 192, 183, 121, 160, 2, 1.68989
23, 3, bw, filler, NA, 999, 999, 8, 28, 81, 189, 192, 183, 121, 160, 3, 2.07107
23, 3, bw, attraction, a-b-da, 9, 1, 8, 29, 129, 57, 135, 60, 60, 135, 1, 1.58571
23, 3, bw, attraction, a-b-da, 9, 1, 8, 29, 129, 57, 135, 60, 60, 135, 3, 0.911787
23, 3, bw, filler, NA, 999, 999, 8, 30, 162, 111, 173, 179, 111, 164, 2, 1.33711
23, 3, bw, filler, NA, 999, 999, 8, 30, 162, 111, 173, 179, 111, 164, 1, 0.781006
23, 3, bw, filler, NA, 999, 999, 8, 31, 161, 109, 163, 75, 71, 101, 1, 1.41904
23, 3, bw, filler, NA, 999, 999, 8, 31, 161, 109, 163, 75, 71, 101, 3, 0.816976
23, 3, bw, attraction, a-b-db, 9, 2, 8, 32, 165, 90, 90, 165, 86, 157, 3, 2.08546
23, 3, bw, attraction, a-b-db, 9, 2, 8, 32, 165, 90, 90, 165, 86, 157, 1, 1.00775
23, 3, bw, attraction, a-b-db, 2, 2, 8, 33, 165, 90, 89, 163, 90, 165, 3, 1.40679
23, 3, bw, attraction, a-b-db, 2, 2, 8, 33, 165, 90, 89, 163, 90, 165, 1, 0.781395
23, 3, bw, filler, NA, 999, 999, 8, 34, 121, 59, 93, 184, 128, 59, 2, 1.29277
23, 3, bw, filler, NA, 999, 999, 8, 34, 121, 59, 93, 184, 128, 59, 1, 1.78298
23, 3, bw, attraction, a-b-db, 5, 2, 8, 35, 88, 161, 165, 90, 90, 165, 3, 1.51771
23, 3, bw, attraction, a-b-db, 5, 2, 8, 35, 88, 161, 165, 90, 90, 165, 2, 0.830729
23, 3, bw, catch, NA, 999, 999, 8, 36, 112, 83, 103, 152, 148, 167, 1, 1.3478
23, 3, bw, catch, NA, 999, 999, 8, 36, 112, 83, 103, 152, 148, 167, 3, 1.72511
23, 3, bw, attraction, a-b-db, 14, 2, 8, 37, 83, 153, 165, 90, 90, 165, 3, 1.62852
23, 3, bw, attraction, a-b-db, 14, 2, 8, 37, 83, 153, 165, 90, 90, 165, 1, 0.94947
