sub_n, computer_n, bw_cond, effect, set, distance, diag, block_n, trial_n, h1, w1, h2, w2, h3, w3, choice, rt 
280, 3, wb, practice, NA, 999, 999, 0, 1, 75, 164, 152, 84, 92, 62, 3, 2.37691
280, 3, wb, practice, NA, 999, 999, 0, 1, 75, 164, 152, 84, 92, 62, 2, 5.05632
280, 3, wb, practice, NA, 999, 999, 0, 2, 65, 125, 109, 152, 138, 159, 1, 3.67078
280, 3, wb, practice, NA, 999, 999, 0, 2, 65, 125, 109, 152, 138, 159, 3, 1.85048
280, 3, wb, practice, NA, 999, 999, 0, 3, 153, 182, 91, 59, 142, 88, 2, 1.804
280, 3, wb, practice, NA, 999, 999, 0, 3, 153, 182, 91, 59, 142, 88, 1, 2.35441
280, 3, wb, filler, NA, 999, 999, 1, 1, 127, 154, 57, 71, 106, 152, 2, 2.48809
280, 3, wb, filler, NA, 999, 999, 1, 1, 127, 154, 57, 71, 106, 152, 1, 1.62718
280, 3, wb, attraction, a-b-da, 14, 1, 1, 2, 60, 135, 135, 60, 125, 56, 1, 3.23137
280, 3, wb, attraction, a-b-da, 14, 1, 1, 2, 60, 135, 135, 60, 125, 56, 2, 1.7483
280, 3, wb, attraction, a-b-db, 2, 2, 1, 3, 90, 165, 89, 163, 165, 90, 3, 3.58789
280, 3, wb, attraction, a-b-db, 2, 2, 1, 3, 90, 165, 89, 163, 165, 90, 1, 1.09861
280, 3, wb, attraction, a-b-da, 9, 2, 1, 4, 157, 86, 165, 90, 90, 165, 1, 2.01213
280, 3, wb, attraction, a-b-da, 9, 2, 1, 4, 157, 86, 165, 90, 90, 165, 3, 0.794235
280, 3, wb, catch, NA, 999, 999, 1, 5, 151, 104, 131, 64, 175, 140, 2, 1.47991
280, 3, wb, catch, NA, 999, 999, 1, 5, 151, 104, 131, 64, 175, 140, 3, 0.635402
280, 3, wb, filler, NA, 999, 999, 1, 6, 124, 89, 89, 140, 133, 190, 1, 1.25572
280, 3, wb, filler, NA, 999, 999, 1, 6, 124, 89, 89, 140, 133, 190, 3, 0.612035
280, 3, wb, filler, NA, 999, 999, 1, 7, 108, 102, 142, 117, 59, 101, 3, 1.24917
280, 3, wb, filler, NA, 999, 999, 1, 7, 108, 102, 142, 117, 59, 101, 2, 1.74208
280, 3, wb, attraction, a-b-da, 2, 1, 1, 8, 60, 135, 134, 59, 135, 60, 1, 1.15742
280, 3, wb, attraction, a-b-da, 2, 1, 1, 8, 60, 135, 134, 59, 135, 60, 3, 1.46171
280, 3, wb, filler, NA, 999, 999, 1, 9, 151, 64, 62, 58, 150, 148, 2, 2.28046
280, 3, wb, filler, NA, 999, 999, 1, 9, 151, 64, 62, 58, 150, 148, 3, 1.97972
280, 3, wb, attraction, a-b-da, 2, 2, 1, 10, 165, 90, 90, 165, 163, 89, 2, 1.32983
280, 3, wb, attraction, a-b-da, 2, 2, 1, 10, 165, 90, 90, 165, 163, 89, 1, 1.53941
280, 3, wb, attraction, a-b-da, 2, 3, 1, 11, 195, 120, 120, 195, 193, 119, 2, 1.77954
280, 3, wb, attraction, a-b-da, 2, 3, 1, 11, 195, 120, 120, 195, 193, 119, 3, 0.810955
280, 3, wb, catch, NA, 999, 999, 1, 12, 95, 100, 185, 130, 165, 90, 1, 0.935921
280, 3, wb, catch, NA, 999, 999, 1, 12, 95, 100, 185, 130, 165, 90, 2, 1.20962
280, 3, wb, attraction, a-b-db, 5, 3, 1, 13, 195, 120, 117, 190, 120, 195, 1, 1.24646
280, 3, wb, attraction, a-b-db, 5, 3, 1, 13, 195, 120, 117, 190, 120, 195, 2, 0.563347
280, 3, wb, attraction, a-b-db, 14, 1, 1, 14, 60, 135, 135, 60, 56, 125, 3, 1.77044
280, 3, wb, attraction, a-b-db, 14, 1, 1, 14, 60, 135, 135, 60, 56, 125, 2, 0.482544
280, 3, wb, catch, NA, 999, 999, 1, 15, 195, 120, 161, 94, 65, 130, 3, 1.26902
280, 3, wb, catch, NA, 999, 999, 1, 15, 195, 120, 161, 94, 65, 130, 1, 0.505292
280, 3, wb, attraction, a-b-da, 5, 1, 1, 16, 60, 135, 132, 58, 135, 60, 1, 1.619
280, 3, wb, attraction, a-b-da, 5, 1, 1, 16, 60, 135, 132, 58, 135, 60, 3, 0.449157
280, 3, wb, filler, NA, 999, 999, 1, 17, 177, 160, 134, 180, 119, 172, 3, 2.44507
280, 3, wb, filler, NA, 999, 999, 1, 17, 177, 160, 134, 180, 119, 172, 1, 0.553538
280, 3, wb, attraction, a-b-db, 5, 2, 1, 18, 165, 90, 88, 161, 90, 165, 1, 1.20927
280, 3, wb, attraction, a-b-db, 5, 2, 1, 18, 165, 90, 88, 161, 90, 165, 3, 10.0637
280, 3, wb, filler, NA, 999, 999, 1, 19, 117, 118, 162, 158, 103, 167, 1, 0.943673
280, 3, wb, filler, NA, 999, 999, 1, 19, 117, 118, 162, 158, 103, 167, 2, 0.792751
280, 3, wb, attraction, a-b-db, 2, 1, 1, 20, 135, 60, 60, 135, 59, 134, 3, 2.67046
280, 3, wb, attraction, a-b-db, 2, 1, 1, 20, 135, 60, 60, 135, 59, 134, 1, 0.890165
280, 3, wb, filler, NA, 999, 999, 1, 21, 111, 160, 115, 60, 115, 68, 2, 1.33186
280, 3, wb, filler, NA, 999, 999, 1, 21, 111, 160, 115, 60, 115, 68, 1, 0.453411
280, 3, wb, attraction, a-b-da, 14, 3, 1, 22, 195, 120, 120, 195, 181, 111, 3, 1.42527
280, 3, wb, attraction, a-b-da, 14, 3, 1, 22, 195, 120, 120, 195, 181, 111, 2, 0.558797
280, 3, wb, filler, NA, 999, 999, 1, 23, 164, 151, 95, 149, 194, 164, 2, 0.925831
280, 3, wb, filler, NA, 999, 999, 1, 23, 164, 151, 95, 149, 194, 164, 3, 0.399523
280, 3, wb, attraction, a-b-db, 14, 3, 1, 24, 195, 120, 111, 181, 120, 195, 1, 0.925372
280, 3, wb, attraction, a-b-db, 14, 3, 1, 24, 195, 120, 111, 181, 120, 195, 3, 0.351008
280, 3, wb, attraction, a-b-db, 5, 1, 1, 25, 58, 132, 135, 60, 60, 135, 1, 1.6468
280, 3, wb, attraction, a-b-db, 5, 1, 1, 25, 58, 132, 135, 60, 60, 135, 3, 0.795848
280, 3, wb, filler, NA, 999, 999, 1, 26, 192, 136, 167, 148, 174, 104, 3, 0.897481
280, 3, wb, filler, NA, 999, 999, 1, 26, 192, 136, 167, 148, 174, 104, 1, 0.444301
280, 3, wb, attraction, a-b-da, 5, 2, 1, 27, 90, 165, 161, 88, 165, 90, 1, 0.736292
280, 3, wb, attraction, a-b-da, 5, 2, 1, 27, 90, 165, 161, 88, 165, 90, 3, 0.481905
280, 3, wb, attraction, a-b-da, 9, 1, 1, 28, 129, 57, 135, 60, 60, 135, 1, 1.74838
280, 3, wb, attraction, a-b-da, 9, 1, 1, 28, 129, 57, 135, 60, 60, 135, 2, 0.365163
280, 3, wb, attraction, a-b-da, 14, 2, 1, 29, 153, 83, 165, 90, 90, 165, 1, 1.32437
280, 3, wb, attraction, a-b-da, 14, 2, 1, 29, 153, 83, 165, 90, 90, 165, 2, 0.373866
280, 3, wb, attraction, a-b-da, 9, 3, 1, 30, 195, 120, 186, 114, 120, 195, 2, 7.00435
280, 3, wb, attraction, a-b-da, 9, 3, 1, 30, 195, 120, 186, 114, 120, 195, 3, 0.377455
280, 3, wb, attraction, a-b-db, 14, 2, 1, 31, 165, 90, 83, 153, 90, 165, 1, 1.55194
280, 3, wb, attraction, a-b-db, 14, 2, 1, 31, 165, 90, 83, 153, 90, 165, 3, 0.616713
280, 3, wb, attraction, a-b-db, 9, 2, 1, 32, 90, 165, 165, 90, 86, 157, 3, 1.60584
280, 3, wb, attraction, a-b-db, 9, 2, 1, 32, 90, 165, 165, 90, 86, 157, 1, 1.01999
280, 3, wb, attraction, a-b-db, 9, 1, 1, 33, 60, 135, 135, 60, 57, 129, 3, 1.59305
280, 3, wb, attraction, a-b-db, 9, 1, 1, 33, 60, 135, 135, 60, 57, 129, 1, 1.59969
280, 3, wb, attraction, a-b-db, 2, 3, 1, 34, 195, 120, 120, 195, 119, 193, 3, 1.90132
280, 3, wb, attraction, a-b-db, 2, 3, 1, 34, 195, 120, 120, 195, 119, 193, 1, 0.655946
280, 3, wb, attraction, a-b-da, 5, 3, 1, 35, 195, 120, 190, 117, 120, 195, 1, 4.7716
280, 3, wb, attraction, a-b-da, 5, 3, 1, 35, 195, 120, 190, 117, 120, 195, 3, 0.890874
280, 3, wb, attraction, a-b-db, 9, 3, 1, 36, 114, 186, 120, 195, 195, 120, 1, 1.65247
280, 3, wb, attraction, a-b-db, 9, 3, 1, 36, 114, 186, 120, 195, 195, 120, 2, 0.857261
280, 3, wb, filler, NA, 999, 999, 1, 37, 95, 152, 167, 170, 96, 113, 3, 0.948285
280, 3, wb, filler, NA, 999, 999, 1, 37, 95, 152, 167, 170, 96, 113, 2, 0.549407
280, 3, wb, attraction, a-b-db, 5, 3, 2, 1, 117, 190, 120, 195, 195, 120, 3, 1.42915
280, 3, wb, attraction, a-b-db, 5, 3, 2, 1, 117, 190, 120, 195, 195, 120, 1, 1.43463
280, 3, wb, attraction, a-b-da, 5, 2, 2, 2, 165, 90, 161, 88, 90, 165, 3, 1.7188
280, 3, wb, attraction, a-b-da, 5, 2, 2, 2, 165, 90, 161, 88, 90, 165, 1, 0.696827
280, 3, wb, catch, NA, 999, 999, 2, 3, 111, 144, 176, 139, 125, 70, 3, 0.93063
280, 3, wb, catch, NA, 999, 999, 2, 3, 111, 144, 176, 139, 125, 70, 2, 0.372359
280, 3, wb, attraction, a-b-da, 2, 3, 2, 4, 195, 120, 193, 119, 120, 195, 3, 2.0835
280, 3, wb, attraction, a-b-da, 2, 3, 2, 4, 195, 120, 193, 119, 120, 195, 2, 0.822704
280, 3, wb, attraction, a-b-db, 9, 2, 2, 5, 86, 157, 90, 165, 165, 90, 3, 1.46786
280, 3, wb, attraction, a-b-db, 9, 2, 2, 5, 86, 157, 90, 165, 165, 90, 2, 0.896031
280, 3, wb, attraction, a-b-db, 2, 3, 2, 6, 119, 193, 195, 120, 120, 195, 1, 3.19356
280, 3, wb, attraction, a-b-db, 2, 3, 2, 6, 119, 193, 195, 120, 120, 195, 2, 0.511873
280, 3, wb, attraction, a-b-da, 14, 2, 2, 7, 165, 90, 153, 83, 90, 165, 1, 1.64918
280, 3, wb, attraction, a-b-da, 14, 2, 2, 7, 165, 90, 153, 83, 90, 165, 3, 0.957913
280, 3, wb, filler, NA, 999, 999, 2, 8, 146, 148, 103, 116, 98, 186, 2, 0.884709
280, 3, wb, filler, NA, 999, 999, 2, 8, 146, 148, 103, 116, 98, 186, 1, 0.488526
280, 3, wb, filler, NA, 999, 999, 2, 9, 181, 139, 96, 75, 184, 130, 2, 0.906894
280, 3, wb, filler, NA, 999, 999, 2, 9, 181, 139, 96, 75, 184, 130, 3, 2.0695
280, 3, wb, filler, NA, 999, 999, 2, 10, 70, 191, 114, 114, 127, 78, 3, 4.616
280, 3, wb, filler, NA, 999, 999, 2, 10, 70, 191, 114, 114, 127, 78, 2, 4.66917
280, 3, wb, attraction, a-b-da, 2, 1, 2, 11, 134, 59, 60, 135, 135, 60, 1, 3.10298
280, 3, wb, attraction, a-b-da, 2, 1, 2, 11, 134, 59, 60, 135, 135, 60, 2, 1.69741
280, 3, wb, filler, NA, 999, 999, 2, 12, 174, 142, 58, 148, 171, 75, 2, 1.29885
280, 3, wb, filler, NA, 999, 999, 2, 12, 174, 142, 58, 148, 171, 75, 1, 2.2696
280, 3, wb, attraction, a-b-da, 5, 1, 2, 13, 60, 135, 132, 58, 135, 60, 1, 1.35219
280, 3, wb, attraction, a-b-da, 5, 1, 2, 13, 60, 135, 132, 58, 135, 60, 3, 0.761045
280, 3, wb, attraction, a-b-da, 14, 1, 2, 14, 60, 135, 135, 60, 125, 56, 1, 0.792057
280, 3, wb, attraction, a-b-da, 14, 1, 2, 14, 60, 135, 135, 60, 125, 56, 2, 0.855171
280, 3, wb, attraction, a-b-da, 9, 3, 2, 15, 186, 114, 195, 120, 120, 195, 1, 0.986938
280, 3, wb, attraction, a-b-da, 9, 3, 2, 15, 186, 114, 195, 120, 120, 195, 2, 0.690466
280, 3, wb, catch, NA, 999, 999, 2, 16, 144, 171, 92, 103, 102, 153, 2, 2.04419
280, 3, wb, catch, NA, 999, 999, 2, 16, 144, 171, 92, 103, 102, 153, 1, 0.376889
280, 3, wb, attraction, a-b-da, 9, 1, 2, 17, 129, 57, 135, 60, 60, 135, 1, 1.90337
280, 3, wb, attraction, a-b-da, 9, 1, 2, 17, 129, 57, 135, 60, 60, 135, 3, 1.60227
280, 3, wb, attraction, a-b-db, 9, 3, 2, 18, 114, 186, 120, 195, 195, 120, 1, 1.01553
280, 3, wb, attraction, a-b-db, 9, 3, 2, 18, 114, 186, 120, 195, 195, 120, 3, 1.48588
280, 3, wb, attraction, a-b-db, 14, 1, 2, 19, 60, 135, 56, 125, 135, 60, 3, 1.08002
280, 3, wb, attraction, a-b-db, 14, 1, 2, 19, 60, 135, 56, 125, 135, 60, 2, 0.459569
280, 3, wb, attraction, a-b-da, 14, 3, 2, 20, 120, 195, 195, 120, 181, 111, 3, 0.838729
280, 3, wb, attraction, a-b-da, 14, 3, 2, 20, 120, 195, 195, 120, 181, 111, 2, 0.443758
280, 3, wb, attraction, a-b-db, 5, 2, 2, 21, 165, 90, 90, 165, 88, 161, 2, 1.48758
280, 3, wb, attraction, a-b-db, 5, 2, 2, 21, 165, 90, 90, 165, 88, 161, 1, 0.411117
280, 3, wb, attraction, a-b-db, 14, 2, 2, 22, 90, 165, 165, 90, 83, 153, 3, 4.2963
280, 3, wb, attraction, a-b-db, 14, 2, 2, 22, 90, 165, 165, 90, 83, 153, 1, 1.66615
280, 3, wb, attraction, a-b-da, 2, 2, 2, 23, 163, 89, 165, 90, 90, 165, 1, 5.80491
280, 3, wb, attraction, a-b-da, 2, 2, 2, 23, 163, 89, 165, 90, 90, 165, 2, 0.698582
280, 3, wb, attraction, a-b-da, 9, 2, 2, 24, 157, 86, 90, 165, 165, 90, 1, 0.892206
280, 3, wb, attraction, a-b-da, 9, 2, 2, 24, 157, 86, 90, 165, 165, 90, 2, 0.551185
280, 3, wb, attraction, a-b-db, 14, 3, 2, 25, 195, 120, 111, 181, 120, 195, 1, 0.903031
280, 3, wb, attraction, a-b-db, 14, 3, 2, 25, 195, 120, 111, 181, 120, 195, 2, 1.114
280, 3, wb, attraction, a-b-da, 5, 3, 2, 26, 195, 120, 120, 195, 190, 117, 1, 3.81891
280, 3, wb, attraction, a-b-da, 5, 3, 2, 26, 195, 120, 120, 195, 190, 117, 2, 0.664405
280, 3, wb, filler, NA, 999, 999, 2, 27, 179, 121, 110, 79, 154, 146, 2, 0.883394
280, 3, wb, filler, NA, 999, 999, 2, 27, 179, 121, 110, 79, 154, 146, 3, 0.479097
280, 3, wb, attraction, a-b-db, 9, 1, 2, 28, 135, 60, 60, 135, 57, 129, 3, 4.37764
280, 3, wb, attraction, a-b-db, 9, 1, 2, 28, 135, 60, 60, 135, 57, 129, 2, 0.656168
280, 3, wb, filler, NA, 999, 999, 2, 29, 182, 59, 137, 125, 108, 169, 1, 2.22003
280, 3, wb, filler, NA, 999, 999, 2, 29, 182, 59, 137, 125, 108, 169, 2, 0.505964
280, 3, wb, filler, NA, 999, 999, 2, 30, 190, 184, 80, 160, 107, 59, 3, 0.80408
280, 3, wb, filler, NA, 999, 999, 2, 30, 190, 184, 80, 160, 107, 59, 1, 0.442739
280, 3, wb, catch, NA, 999, 999, 2, 31, 135, 120, 61, 134, 179, 136, 2, 5.17461
280, 3, wb, catch, NA, 999, 999, 2, 31, 135, 120, 61, 134, 179, 136, 3, 0.692829
280, 3, wb, attraction, a-b-db, 2, 1, 2, 32, 59, 134, 60, 135, 135, 60, 2, 1.61462
280, 3, wb, attraction, a-b-db, 2, 1, 2, 32, 59, 134, 60, 135, 135, 60, 3, 0.428842
280, 3, wb, attraction, a-b-db, 5, 1, 2, 33, 60, 135, 135, 60, 58, 132, 1, 1.32122
280, 3, wb, attraction, a-b-db, 5, 1, 2, 33, 60, 135, 135, 60, 58, 132, 2, 0.378817
280, 3, wb, filler, NA, 999, 999, 2, 34, 147, 178, 136, 144, 96, 122, 3, 0.873286
280, 3, wb, filler, NA, 999, 999, 2, 34, 147, 178, 136, 144, 96, 122, 1, 1.54902
280, 3, wb, filler, NA, 999, 999, 2, 35, 64, 61, 98, 158, 179, 123, 1, 0.980481
280, 3, wb, filler, NA, 999, 999, 2, 35, 64, 61, 98, 158, 179, 123, 3, 0.61217
280, 3, wb, attraction, a-b-db, 2, 2, 2, 36, 90, 165, 165, 90, 89, 163, 3, 2.32119
280, 3, wb, attraction, a-b-db, 2, 2, 2, 36, 90, 165, 165, 90, 89, 163, 2, 1.59508
280, 3, wb, filler, NA, 999, 999, 2, 37, 63, 181, 188, 159, 102, 98, 3, 1.32058
280, 3, wb, filler, NA, 999, 999, 2, 37, 63, 181, 188, 159, 102, 98, 2, 0.498794
280, 3, wb, attraction, a-b-db, 5, 2, 3, 1, 90, 165, 165, 90, 88, 161, 1, 3.26065
280, 3, wb, attraction, a-b-db, 5, 2, 3, 1, 90, 165, 165, 90, 88, 161, 2, 4.35223
280, 3, wb, filler, NA, 999, 999, 3, 2, 99, 192, 72, 107, 60, 183, 2, 2.14271
280, 3, wb, filler, NA, 999, 999, 3, 2, 99, 192, 72, 107, 60, 183, 1, 0.623442
280, 3, wb, attraction, a-b-db, 9, 2, 3, 3, 86, 157, 90, 165, 165, 90, 1, 2.55586
280, 3, wb, attraction, a-b-db, 9, 2, 3, 3, 86, 157, 90, 165, 165, 90, 3, 1.6437
280, 3, wb, catch, NA, 999, 999, 3, 4, 124, 71, 102, 153, 160, 155, 1, 2.70302
280, 3, wb, catch, NA, 999, 999, 3, 4, 124, 71, 102, 153, 160, 155, 3, 0.777525
280, 3, wb, attraction, a-b-db, 2, 1, 3, 5, 59, 134, 60, 135, 135, 60, 3, 0.984055
280, 3, wb, attraction, a-b-db, 2, 1, 3, 5, 59, 134, 60, 135, 135, 60, 1, 0.887725
280, 3, wb, attraction, a-b-db, 14, 2, 3, 6, 90, 165, 165, 90, 83, 153, 1, 3.46585
280, 3, wb, attraction, a-b-db, 14, 2, 3, 6, 90, 165, 165, 90, 83, 153, 2, 0.909492
280, 3, wb, attraction, a-b-da, 5, 3, 3, 7, 195, 120, 190, 117, 120, 195, 1, 3.33452
280, 3, wb, attraction, a-b-da, 5, 3, 3, 7, 195, 120, 190, 117, 120, 195, 3, 0.583512
280, 3, wb, filler, NA, 999, 999, 3, 8, 122, 99, 103, 186, 116, 58, 3, 0.861763
280, 3, wb, filler, NA, 999, 999, 3, 8, 122, 99, 103, 186, 116, 58, 2, 1.46621
280, 3, wb, attraction, a-b-da, 5, 2, 3, 9, 161, 88, 90, 165, 165, 90, 1, 2.285
280, 3, wb, attraction, a-b-da, 5, 2, 3, 9, 161, 88, 90, 165, 165, 90, 3, 1.36033
280, 3, wb, attraction, a-b-db, 9, 1, 3, 10, 57, 129, 135, 60, 60, 135, 3, 1.4871
280, 3, wb, attraction, a-b-db, 9, 1, 3, 10, 57, 129, 135, 60, 60, 135, 1, 0.890685
280, 3, wb, attraction, a-b-da, 5, 1, 3, 11, 135, 60, 132, 58, 60, 135, 3, 1.35625
280, 3, wb, attraction, a-b-da, 5, 1, 3, 11, 135, 60, 132, 58, 60, 135, 2, 0.932528
280, 3, wb, filler, NA, 999, 999, 3, 12, 195, 143, 141, 166, 127, 175, 3, 3.38892
280, 3, wb, filler, NA, 999, 999, 3, 12, 195, 143, 141, 166, 127, 175, 2, 2.06701
280, 3, wb, attraction, a-b-da, 9, 1, 3, 13, 135, 60, 60, 135, 129, 57, 2, 1.61367
280, 3, wb, attraction, a-b-da, 9, 1, 3, 13, 135, 60, 60, 135, 129, 57, 1, 4.34001
280, 3, wb, filler, NA, 999, 999, 3, 14, 181, 101, 130, 177, 106, 167, 3, 2.90709
280, 3, wb, filler, NA, 999, 999, 3, 14, 181, 101, 130, 177, 106, 167, 2, 0.852849
280, 3, wb, attraction, a-b-db, 5, 3, 3, 15, 120, 195, 117, 190, 195, 120, 1, 9.06442
280, 3, wb, attraction, a-b-db, 5, 3, 3, 15, 120, 195, 117, 190, 195, 120, 2, 0.466396
280, 3, wb, attraction, a-b-da, 9, 2, 3, 16, 165, 90, 90, 165, 157, 86, 3, 1.61342
280, 3, wb, attraction, a-b-da, 9, 2, 3, 16, 165, 90, 90, 165, 157, 86, 2, 0.62755
280, 3, wb, catch, NA, 999, 999, 3, 17, 147, 168, 128, 67, 127, 128, 2, 1.15202
280, 3, wb, catch, NA, 999, 999, 3, 17, 147, 168, 128, 67, 127, 128, 1, 0.52086
280, 3, wb, attraction, a-b-da, 14, 1, 3, 18, 60, 135, 135, 60, 125, 56, 3, 2.89804
280, 3, wb, attraction, a-b-da, 14, 1, 3, 18, 60, 135, 135, 60, 125, 56, 2, 1.37266
280, 3, wb, attraction, a-b-da, 2, 1, 3, 19, 60, 135, 135, 60, 134, 59, 3, 1.13136
280, 3, wb, attraction, a-b-da, 2, 1, 3, 19, 60, 135, 135, 60, 134, 59, 2, 1.82901
280, 3, wb, attraction, a-b-da, 2, 2, 3, 20, 90, 165, 163, 89, 165, 90, 1, 1.57706
280, 3, wb, attraction, a-b-da, 2, 2, 3, 20, 90, 165, 163, 89, 165, 90, 2, 0.53644
280, 3, wb, attraction, a-b-db, 2, 2, 3, 21, 165, 90, 90, 165, 89, 163, 1, 0.800868
280, 3, wb, attraction, a-b-db, 2, 2, 3, 21, 165, 90, 90, 165, 89, 163, 2, 1.01593
280, 3, wb, attraction, a-b-db, 14, 3, 3, 22, 120, 195, 195, 120, 111, 181, 2, 1.7409
280, 3, wb, attraction, a-b-db, 14, 3, 3, 22, 120, 195, 195, 120, 111, 181, 1, 1.12566
280, 3, wb, attraction, a-b-da, 2, 3, 3, 23, 195, 120, 193, 119, 120, 195, 3, 3.73385
280, 3, wb, attraction, a-b-da, 2, 3, 3, 23, 195, 120, 193, 119, 120, 195, 1, 0.798776
280, 3, wb, filler, NA, 999, 999, 3, 24, 98, 62, 179, 94, 140, 73, 1, 0.828439
280, 3, wb, filler, NA, 999, 999, 3, 24, 98, 62, 179, 94, 140, 73, 2, 2.21019
280, 3, wb, attraction, a-b-da, 14, 2, 3, 25, 90, 165, 165, 90, 153, 83, 3, 1.23068
280, 3, wb, attraction, a-b-da, 14, 2, 3, 25, 90, 165, 165, 90, 153, 83, 2, 0.580863
280, 3, wb, attraction, a-b-db, 2, 3, 3, 26, 120, 195, 195, 120, 119, 193, 3, 1.91474
280, 3, wb, attraction, a-b-db, 2, 3, 3, 26, 120, 195, 195, 120, 119, 193, 2, 0.61275
280, 3, wb, filler, NA, 999, 999, 3, 27, 74, 72, 130, 73, 147, 79, 1, 0.889817
280, 3, wb, filler, NA, 999, 999, 3, 27, 74, 72, 130, 73, 147, 79, 3, 0.716958
280, 3, wb, attraction, a-b-da, 9, 3, 3, 28, 195, 120, 120, 195, 186, 114, 3, 5.61394
280, 3, wb, attraction, a-b-da, 9, 3, 3, 28, 195, 120, 120, 195, 186, 114, 1, 0.643037
280, 3, wb, filler, NA, 999, 999, 3, 29, 77, 191, 108, 79, 139, 132, 2, 0.958452
280, 3, wb, filler, NA, 999, 999, 3, 29, 77, 191, 108, 79, 139, 132, 3, 1.35899
280, 3, wb, attraction, a-b-da, 14, 3, 3, 30, 120, 195, 181, 111, 195, 120, 3, 3.26164
280, 3, wb, attraction, a-b-da, 14, 3, 3, 30, 120, 195, 181, 111, 195, 120, 1, 0.697337
280, 3, wb, catch, NA, 999, 999, 3, 31, 133, 122, 153, 162, 110, 85, 3, 0.763225
280, 3, wb, catch, NA, 999, 999, 3, 31, 133, 122, 153, 162, 110, 85, 2, 0.443404
280, 3, wb, attraction, a-b-db, 5, 1, 3, 32, 60, 135, 135, 60, 58, 132, 3, 0.783253
280, 3, wb, attraction, a-b-db, 5, 1, 3, 32, 60, 135, 135, 60, 58, 132, 1, 0.575108
280, 3, wb, attraction, a-b-db, 9, 3, 3, 33, 120, 195, 114, 186, 195, 120, 2, 7.25339
280, 3, wb, attraction, a-b-db, 9, 3, 3, 33, 120, 195, 114, 186, 195, 120, 3, 1.79249
280, 3, wb, attraction, a-b-db, 14, 1, 3, 34, 56, 125, 135, 60, 60, 135, 3, 1.02178
280, 3, wb, attraction, a-b-db, 14, 1, 3, 34, 56, 125, 135, 60, 60, 135, 1, 0.579578
280, 3, wb, filler, NA, 999, 999, 3, 35, 194, 110, 176, 108, 106, 169, 3, 0.762002
280, 3, wb, filler, NA, 999, 999, 3, 35, 194, 110, 176, 108, 106, 169, 1, 0.514308
280, 3, wb, filler, NA, 999, 999, 3, 36, 63, 64, 69, 181, 192, 67, 1, 0.883635
280, 3, wb, filler, NA, 999, 999, 3, 36, 63, 64, 69, 181, 192, 67, 3, 0.519185
280, 3, wb, filler, NA, 999, 999, 3, 37, 114, 166, 134, 98, 177, 110, 2, 1.31234
280, 3, wb, filler, NA, 999, 999, 3, 37, 114, 166, 134, 98, 177, 110, 1, 1.00265
280, 3, wb, attraction, a-b-da, 5, 3, 4, 1, 195, 120, 120, 195, 190, 117, 1, 0.928125
280, 3, wb, attraction, a-b-da, 5, 3, 4, 1, 195, 120, 120, 195, 190, 117, 2, 0.425822
280, 3, wb, attraction, a-b-db, 5, 2, 4, 2, 165, 90, 90, 165, 88, 161, 1, 0.718213
280, 3, wb, attraction, a-b-db, 5, 2, 4, 2, 165, 90, 90, 165, 88, 161, 3, 0.520746
280, 3, wb, filler, NA, 999, 999, 4, 3, 168, 108, 146, 137, 118, 74, 3, 0.681819
280, 3, wb, filler, NA, 999, 999, 4, 3, 168, 108, 146, 137, 118, 74, 2, 0.325475
280, 3, wb, attraction, a-b-da, 9, 1, 4, 4, 60, 135, 135, 60, 129, 57, 3, 0.789983
280, 3, wb, attraction, a-b-da, 9, 1, 4, 4, 60, 135, 135, 60, 129, 57, 1, 0.5731
280, 3, wb, attraction, a-b-da, 5, 1, 4, 5, 60, 135, 132, 58, 135, 60, 3, 1.07624
280, 3, wb, attraction, a-b-da, 5, 1, 4, 5, 60, 135, 132, 58, 135, 60, 2, 0.351849
280, 3, wb, attraction, a-b-da, 9, 2, 4, 6, 165, 90, 90, 165, 157, 86, 3, 1.10387
280, 3, wb, attraction, a-b-da, 9, 2, 4, 6, 165, 90, 90, 165, 157, 86, 2, 0.354648
280, 3, wb, attraction, a-b-da, 2, 3, 4, 7, 120, 195, 193, 119, 195, 120, 3, 0.658691
280, 3, wb, attraction, a-b-da, 2, 3, 4, 7, 120, 195, 193, 119, 195, 120, 1, 1.20698
280, 3, wb, attraction, a-b-db, 14, 1, 4, 8, 56, 125, 60, 135, 135, 60, 1, 0.979789
280, 3, wb, attraction, a-b-db, 14, 1, 4, 8, 56, 125, 60, 135, 135, 60, 3, 1.17957
280, 3, wb, filler, NA, 999, 999, 4, 9, 91, 83, 110, 188, 126, 126, 1, 1.12179
280, 3, wb, filler, NA, 999, 999, 4, 9, 91, 83, 110, 188, 126, 126, 3, 0.547382
280, 3, wb, filler, NA, 999, 999, 4, 10, 137, 160, 119, 147, 97, 143, 3, 1.57913
280, 3, wb, filler, NA, 999, 999, 4, 10, 137, 160, 119, 147, 97, 143, 1, 0.962678
280, 3, wb, attraction, a-b-db, 2, 3, 4, 11, 119, 193, 120, 195, 195, 120, 1, 8.89756
280, 3, wb, attraction, a-b-db, 2, 3, 4, 11, 119, 193, 120, 195, 195, 120, 2, 0.530074
280, 3, wb, attraction, a-b-db, 9, 2, 4, 12, 165, 90, 90, 165, 86, 157, 1, 3.12252
280, 3, wb, attraction, a-b-db, 9, 2, 4, 12, 165, 90, 90, 165, 86, 157, 3, 0.419563
280, 3, wb, filler, NA, 999, 999, 4, 13, 122, 147, 113, 170, 132, 116, 1, 1.9927
280, 3, wb, filler, NA, 999, 999, 4, 13, 122, 147, 113, 170, 132, 116, 3, 0.53549
280, 3, wb, catch, NA, 999, 999, 4, 14, 152, 103, 90, 105, 156, 159, 2, 3.0478
280, 3, wb, catch, NA, 999, 999, 4, 14, 152, 103, 90, 105, 156, 159, 3, 0.444234
280, 3, wb, attraction, a-b-da, 5, 2, 4, 15, 90, 165, 161, 88, 165, 90, 1, 2.31997
280, 3, wb, attraction, a-b-da, 5, 2, 4, 15, 90, 165, 161, 88, 165, 90, 3, 1.29003
280, 3, wb, attraction, a-b-da, 2, 2, 4, 16, 163, 89, 165, 90, 90, 165, 1, 3.06012
280, 3, wb, attraction, a-b-da, 2, 2, 4, 16, 163, 89, 165, 90, 90, 165, 3, 0.431877
280, 3, wb, filler, NA, 999, 999, 4, 17, 85, 85, 110, 126, 87, 81, 3, 2.43626
280, 3, wb, filler, NA, 999, 999, 4, 17, 85, 85, 110, 126, 87, 81, 2, 0.78549
280, 3, wb, filler, NA, 999, 999, 4, 18, 110, 161, 76, 154, 176, 188, 1, 3.19979
280, 3, wb, filler, NA, 999, 999, 4, 18, 110, 161, 76, 154, 176, 188, 3, 0.246127
280, 3, wb, filler, NA, 999, 999, 4, 19, 162, 122, 59, 156, 157, 144, 1, 1.05788
280, 3, wb, filler, NA, 999, 999, 4, 19, 162, 122, 59, 156, 157, 144, 3, 0.558282
280, 3, wb, attraction, a-b-da, 14, 1, 4, 20, 135, 60, 60, 135, 125, 56, 1, 0.91743
280, 3, wb, attraction, a-b-da, 14, 1, 4, 20, 135, 60, 60, 135, 125, 56, 2, 0.359779
280, 3, wb, attraction, a-b-db, 2, 1, 4, 21, 60, 135, 135, 60, 59, 134, 1, 0.942997
280, 3, wb, attraction, a-b-db, 2, 1, 4, 21, 60, 135, 135, 60, 59, 134, 2, 0.808128
280, 3, wb, attraction, a-b-da, 9, 3, 4, 22, 195, 120, 186, 114, 120, 195, 1, 0.892924
280, 3, wb, attraction, a-b-da, 9, 3, 4, 22, 195, 120, 186, 114, 120, 195, 3, 0.679942
280, 3, wb, attraction, a-b-db, 5, 1, 4, 23, 60, 135, 58, 132, 135, 60, 3, 0.97045
280, 3, wb, attraction, a-b-db, 5, 1, 4, 23, 60, 135, 58, 132, 135, 60, 2, 0.330901
280, 3, wb, attraction, a-b-da, 14, 2, 4, 24, 153, 83, 165, 90, 90, 165, 1, 1.02718
280, 3, wb, attraction, a-b-da, 14, 2, 4, 24, 153, 83, 165, 90, 90, 165, 3, 0.888897
280, 3, wb, attraction, a-b-db, 9, 3, 4, 25, 114, 186, 195, 120, 120, 195, 1, 2.99515
280, 3, wb, attraction, a-b-db, 9, 3, 4, 25, 114, 186, 195, 120, 120, 195, 2, 1.7136
280, 3, wb, filler, NA, 999, 999, 4, 26, 89, 148, 56, 129, 70, 85, 3, 0.738342
280, 3, wb, filler, NA, 999, 999, 4, 26, 89, 148, 56, 129, 70, 85, 1, 0.291308
280, 3, wb, attraction, a-b-db, 5, 3, 4, 27, 195, 120, 120, 195, 117, 190, 1, 1.19722
280, 3, wb, attraction, a-b-db, 5, 3, 4, 27, 195, 120, 120, 195, 117, 190, 2, 0.46809
280, 3, wb, filler, NA, 999, 999, 4, 28, 160, 162, 83, 177, 180, 193, 1, 2.34332
280, 3, wb, filler, NA, 999, 999, 4, 28, 160, 162, 83, 177, 180, 193, 3, 0.535968
280, 3, wb, catch, NA, 999, 999, 4, 29, 161, 94, 141, 174, 92, 103, 3, 1.15237
280, 3, wb, catch, NA, 999, 999, 4, 29, 161, 94, 141, 174, 92, 103, 2, 0.345179
280, 3, wb, filler, NA, 999, 999, 4, 30, 73, 148, 190, 64, 98, 75, 3, 0.905028
280, 3, wb, filler, NA, 999, 999, 4, 30, 73, 148, 190, 64, 98, 75, 2, 1.13964
280, 3, wb, catch, NA, 999, 999, 4, 31, 165, 150, 62, 133, 107, 148, 3, 2.20371
280, 3, wb, catch, NA, 999, 999, 4, 31, 165, 150, 62, 133, 107, 148, 1, 0.578319
280, 3, wb, attraction, a-b-da, 2, 1, 4, 32, 134, 59, 135, 60, 60, 135, 3, 0.688728
280, 3, wb, attraction, a-b-da, 2, 1, 4, 32, 134, 59, 135, 60, 60, 135, 2, 0.467761
280, 3, wb, attraction, a-b-db, 9, 1, 4, 33, 57, 129, 135, 60, 60, 135, 3, 0.662893
280, 3, wb, attraction, a-b-db, 9, 1, 4, 33, 57, 129, 135, 60, 60, 135, 2, 0.651413
280, 3, wb, attraction, a-b-db, 14, 3, 4, 34, 120, 195, 195, 120, 111, 181, 3, 2.09517
280, 3, wb, attraction, a-b-db, 14, 3, 4, 34, 120, 195, 195, 120, 111, 181, 2, 0.305789
280, 3, wb, attraction, a-b-db, 2, 2, 4, 35, 165, 90, 89, 163, 90, 165, 3, 0.667612
280, 3, wb, attraction, a-b-db, 2, 2, 4, 35, 165, 90, 89, 163, 90, 165, 2, 0.296157
280, 3, wb, attraction, a-b-da, 14, 3, 4, 36, 195, 120, 120, 195, 181, 111, 3, 2.32194
280, 3, wb, attraction, a-b-da, 14, 3, 4, 36, 195, 120, 120, 195, 181, 111, 2, 0.499929
280, 3, wb, attraction, a-b-db, 14, 2, 4, 37, 83, 153, 165, 90, 90, 165, 3, 0.997711
280, 3, wb, attraction, a-b-db, 14, 2, 4, 37, 83, 153, 165, 90, 90, 165, 2, 0.740542
280, 3, wb, filler, NA, 999, 999, 5, 1, 61, 100, 151, 160, 192, 157, 1, 2.09893
280, 3, wb, filler, NA, 999, 999, 5, 1, 61, 100, 151, 160, 192, 157, 3, 0.541552
280, 3, wb, filler, NA, 999, 999, 5, 2, 158, 156, 72, 85, 139, 173, 2, 0.989338
280, 3, wb, filler, NA, 999, 999, 5, 2, 158, 156, 72, 85, 139, 173, 3, 0.724396
280, 3, wb, attraction, a-b-db, 2, 2, 5, 3, 90, 165, 165, 90, 89, 163, 3, 1.18874
280, 3, wb, attraction, a-b-db, 2, 2, 5, 3, 90, 165, 165, 90, 89, 163, 2, 0.299739
280, 3, wb, attraction, a-b-db, 2, 1, 5, 4, 60, 135, 59, 134, 135, 60, 1, 0.901633
280, 3, wb, attraction, a-b-db, 2, 1, 5, 4, 60, 135, 59, 134, 135, 60, 3, 0.448553
280, 3, wb, attraction, a-b-da, 9, 3, 5, 5, 120, 195, 186, 114, 195, 120, 1, 0.748301
280, 3, wb, attraction, a-b-da, 9, 3, 5, 5, 120, 195, 186, 114, 195, 120, 2, 0.405429
280, 3, wb, attraction, a-b-da, 5, 2, 5, 6, 165, 90, 161, 88, 90, 165, 1, 0.907208
280, 3, wb, attraction, a-b-da, 5, 2, 5, 6, 165, 90, 161, 88, 90, 165, 3, 0.645658
280, 3, wb, catch, NA, 999, 999, 5, 7, 126, 189, 69, 126, 115, 140, 2, 1.16944
280, 3, wb, catch, NA, 999, 999, 5, 7, 126, 189, 69, 126, 115, 140, 1, 0.401573
280, 3, wb, filler, NA, 999, 999, 5, 8, 108, 171, 123, 152, 89, 195, 3, 1.60753
280, 3, wb, filler, NA, 999, 999, 5, 8, 108, 171, 123, 152, 89, 195, 2, 0.2535
280, 3, wb, filler, NA, 999, 999, 5, 9, 103, 144, 133, 67, 112, 82, 3, 0.633409
280, 3, wb, filler, NA, 999, 999, 5, 9, 103, 144, 133, 67, 112, 82, 1, 1.05519
280, 3, wb, attraction, a-b-db, 14, 2, 5, 10, 165, 90, 90, 165, 83, 153, 3, 2.18687
280, 3, wb, attraction, a-b-db, 14, 2, 5, 10, 165, 90, 90, 165, 83, 153, 1, 3.09819
280, 3, wb, catch, NA, 999, 999, 5, 11, 66, 129, 154, 161, 128, 127, 1, 1.03501
280, 3, wb, catch, NA, 999, 999, 5, 11, 66, 129, 154, 161, 128, 127, 2, 0.54467
280, 3, wb, attraction, a-b-da, 9, 2, 5, 12, 157, 86, 90, 165, 165, 90, 1, 1.44849
280, 3, wb, attraction, a-b-da, 9, 2, 5, 12, 157, 86, 90, 165, 165, 90, 2, 0.645394
280, 3, wb, attraction, a-b-da, 9, 1, 5, 13, 129, 57, 60, 135, 135, 60, 1, 1.04907
280, 3, wb, attraction, a-b-da, 9, 1, 5, 13, 129, 57, 60, 135, 135, 60, 2, 0.550317
280, 3, wb, attraction, a-b-da, 14, 1, 5, 14, 125, 56, 60, 135, 135, 60, 1, 1.86199
280, 3, wb, attraction, a-b-da, 14, 1, 5, 14, 125, 56, 60, 135, 135, 60, 2, 2.13784
280, 3, wb, attraction, a-b-da, 14, 3, 5, 15, 195, 120, 181, 111, 120, 195, 1, 2.39393
280, 3, wb, attraction, a-b-da, 14, 3, 5, 15, 195, 120, 181, 111, 120, 195, 2, 0.456379
280, 3, wb, attraction, a-b-db, 14, 1, 5, 16, 60, 135, 135, 60, 56, 125, 3, 1.70822
280, 3, wb, attraction, a-b-db, 14, 1, 5, 16, 60, 135, 135, 60, 56, 125, 2, 1.79033
280, 3, wb, attraction, a-b-da, 2, 3, 5, 17, 120, 195, 193, 119, 195, 120, 3, 2.46041
280, 3, wb, attraction, a-b-da, 2, 3, 5, 17, 120, 195, 193, 119, 195, 120, 2, 0.488303
280, 3, wb, attraction, a-b-db, 9, 2, 5, 18, 86, 157, 165, 90, 90, 165, 1, 2.24262
280, 3, wb, attraction, a-b-db, 9, 2, 5, 18, 86, 157, 165, 90, 90, 165, 2, 0.559534
280, 3, wb, attraction, a-b-da, 5, 3, 5, 19, 120, 195, 190, 117, 195, 120, 1, 0.750464
280, 3, wb, attraction, a-b-da, 5, 3, 5, 19, 120, 195, 190, 117, 195, 120, 2, 0.719426
280, 3, wb, attraction, a-b-da, 5, 1, 5, 20, 132, 58, 135, 60, 60, 135, 1, 0.624727
280, 3, wb, attraction, a-b-da, 5, 1, 5, 20, 132, 58, 135, 60, 60, 135, 2, 0.430274
280, 3, wb, catch, NA, 999, 999, 5, 21, 135, 120, 127, 68, 146, 169, 1, 0.866808
280, 3, wb, catch, NA, 999, 999, 5, 21, 135, 120, 127, 68, 146, 169, 3, 0.295171
280, 3, wb, attraction, a-b-db, 9, 3, 5, 22, 195, 120, 120, 195, 114, 186, 3, 1.58494
280, 3, wb, attraction, a-b-db, 9, 3, 5, 22, 195, 120, 120, 195, 114, 186, 2, 0.672563
280, 3, wb, filler, NA, 999, 999, 5, 23, 142, 89, 158, 178, 116, 155, 1, 0.91549
280, 3, wb, filler, NA, 999, 999, 5, 23, 142, 89, 158, 178, 116, 155, 2, 0.478029
280, 3, wb, attraction, a-b-db, 5, 2, 5, 24, 88, 161, 90, 165, 165, 90, 1, 1.24041
280, 3, wb, attraction, a-b-db, 5, 2, 5, 24, 88, 161, 90, 165, 165, 90, 3, 0.845314
280, 3, wb, filler, NA, 999, 999, 5, 25, 162, 192, 173, 185, 117, 129, 3, 0.832946
280, 3, wb, filler, NA, 999, 999, 5, 25, 162, 192, 173, 185, 117, 129, 2, 2.27886
280, 3, wb, attraction, a-b-da, 2, 2, 5, 26, 90, 165, 163, 89, 165, 90, 1, 0.736497
280, 3, wb, attraction, a-b-da, 2, 2, 5, 26, 90, 165, 163, 89, 165, 90, 3, 0.514309
280, 3, wb, attraction, a-b-db, 14, 3, 5, 27, 111, 181, 195, 120, 120, 195, 3, 0.619323
280, 3, wb, attraction, a-b-db, 14, 3, 5, 27, 111, 181, 195, 120, 120, 195, 1, 1.12195
280, 3, wb, attraction, a-b-da, 14, 2, 5, 28, 153, 83, 90, 165, 165, 90, 1, 0.986837
280, 3, wb, attraction, a-b-da, 14, 2, 5, 28, 153, 83, 90, 165, 165, 90, 2, 0.402528
280, 3, wb, filler, NA, 999, 999, 5, 29, 169, 64, 115, 165, 176, 102, 1, 3.00031
280, 3, wb, filler, NA, 999, 999, 5, 29, 169, 64, 115, 165, 176, 102, 3, 0.694663
280, 3, wb, attraction, a-b-db, 5, 3, 5, 30, 120, 195, 195, 120, 117, 190, 3, 1.16836
280, 3, wb, attraction, a-b-db, 5, 3, 5, 30, 120, 195, 195, 120, 117, 190, 2, 0.944717
280, 3, wb, filler, NA, 999, 999, 5, 31, 57, 78, 99, 111, 171, 99, 1, 0.656338
280, 3, wb, filler, NA, 999, 999, 5, 31, 57, 78, 99, 111, 171, 99, 3, 1.03689
280, 3, wb, filler, NA, 999, 999, 5, 32, 113, 167, 87, 142, 69, 65, 3, 0.809033
280, 3, wb, filler, NA, 999, 999, 5, 32, 113, 167, 87, 142, 69, 65, 1, 0.375403
280, 3, wb, attraction, a-b-db, 2, 3, 5, 33, 119, 193, 120, 195, 195, 120, 1, 0.789885
280, 3, wb, attraction, a-b-db, 2, 3, 5, 33, 119, 193, 120, 195, 195, 120, 3, 0.501021
280, 3, wb, filler, NA, 999, 999, 5, 34, 163, 121, 136, 82, 65, 88, 1, 1.23866
280, 3, wb, filler, NA, 999, 999, 5, 34, 163, 121, 136, 82, 65, 88, 3, 0.699652
280, 3, wb, attraction, a-b-db, 9, 1, 5, 35, 57, 129, 135, 60, 60, 135, 3, 1.05343
280, 3, wb, attraction, a-b-db, 9, 1, 5, 35, 57, 129, 135, 60, 60, 135, 2, 2.76227
280, 3, wb, attraction, a-b-da, 2, 1, 5, 36, 134, 59, 60, 135, 135, 60, 1, 2.62473
280, 3, wb, attraction, a-b-da, 2, 1, 5, 36, 134, 59, 60, 135, 135, 60, 2, 0.581983
280, 3, wb, attraction, a-b-db, 5, 1, 5, 37, 60, 135, 135, 60, 58, 132, 3, 0.82848
280, 3, wb, attraction, a-b-db, 5, 1, 5, 37, 60, 135, 135, 60, 58, 132, 2, 0.666046
280, 3, wb, filler, NA, 999, 999, 6, 1, 110, 130, 103, 134, 117, 124, 1, 2.30913
280, 3, wb, filler, NA, 999, 999, 6, 1, 110, 130, 103, 134, 117, 124, 2, 0.487022
280, 3, wb, attraction, a-b-da, 5, 1, 6, 2, 132, 58, 60, 135, 135, 60, 3, 1.48947
280, 3, wb, attraction, a-b-da, 5, 1, 6, 2, 132, 58, 60, 135, 135, 60, 2, 0.500374
280, 3, wb, catch, NA, 999, 999, 6, 3, 134, 61, 109, 146, 166, 149, 1, 1.03823
280, 3, wb, catch, NA, 999, 999, 6, 3, 134, 61, 109, 146, 166, 149, 3, 0.971141
280, 3, wb, attraction, a-b-db, 2, 2, 6, 4, 90, 165, 89, 163, 165, 90, 1, 3.46616
280, 3, wb, attraction, a-b-db, 2, 2, 6, 4, 90, 165, 89, 163, 165, 90, 3, 1.47763
280, 3, wb, attraction, a-b-db, 5, 3, 6, 5, 117, 190, 195, 120, 120, 195, 1, 9.30373
280, 3, wb, attraction, a-b-db, 5, 3, 6, 5, 117, 190, 195, 120, 120, 195, 2, 0.64818
280, 3, wb, attraction, a-b-db, 2, 3, 6, 6, 195, 120, 119, 193, 120, 195, 3, 1.49188
280, 3, wb, attraction, a-b-db, 2, 3, 6, 6, 195, 120, 119, 193, 120, 195, 2, 0.238758
280, 3, wb, filler, NA, 999, 999, 6, 7, 153, 56, 174, 80, 100, 64, 3, 1.04331
280, 3, wb, filler, NA, 999, 999, 6, 7, 153, 56, 174, 80, 100, 64, 2, 0.432277
280, 3, wb, attraction, a-b-db, 14, 3, 6, 8, 111, 181, 195, 120, 120, 195, 1, 3.05274
280, 3, wb, attraction, a-b-db, 14, 3, 6, 8, 111, 181, 195, 120, 120, 195, 2, 0.473136
280, 3, wb, attraction, a-b-da, 2, 2, 6, 9, 90, 165, 165, 90, 163, 89, 3, 1.27614
280, 3, wb, attraction, a-b-da, 2, 2, 6, 9, 90, 165, 165, 90, 163, 89, 1, 0.583791
280, 3, wb, attraction, a-b-db, 14, 1, 6, 10, 60, 135, 135, 60, 56, 125, 3, 0.750238
280, 3, wb, attraction, a-b-db, 14, 1, 6, 10, 60, 135, 135, 60, 56, 125, 1, 1.68735
280, 3, wb, filler, NA, 999, 999, 6, 11, 181, 131, 158, 155, 113, 178, 3, 1.66553
280, 3, wb, filler, NA, 999, 999, 6, 11, 181, 131, 158, 155, 113, 178, 2, 0.373452
280, 3, wb, attraction, a-b-db, 2, 1, 6, 12, 60, 135, 59, 134, 135, 60, 3, 1.756
280, 3, wb, attraction, a-b-db, 2, 1, 6, 12, 60, 135, 59, 134, 135, 60, 2, 0.612282
280, 3, wb, attraction, a-b-db, 5, 2, 6, 13, 90, 165, 165, 90, 88, 161, 3, 1.05713
280, 3, wb, attraction, a-b-db, 5, 2, 6, 13, 90, 165, 165, 90, 88, 161, 1, 0.957647
280, 3, wb, catch, NA, 999, 999, 6, 14, 179, 136, 145, 110, 120, 75, 3, 0.636381
280, 3, wb, catch, NA, 999, 999, 6, 14, 179, 136, 145, 110, 120, 75, 1, 0.482199
280, 3, wb, filler, NA, 999, 999, 6, 15, 189, 79, 80, 182, 174, 172, 1, 1.1247
280, 3, wb, filler, NA, 999, 999, 6, 15, 189, 79, 80, 182, 174, 172, 2, 0.726288
280, 3, wb, filler, NA, 999, 999, 6, 16, 77, 148, 57, 120, 118, 144, 2, 1.0148
280, 3, wb, filler, NA, 999, 999, 6, 16, 77, 148, 57, 120, 118, 144, 3, 0.653029
280, 3, wb, filler, NA, 999, 999, 6, 17, 168, 125, 66, 144, 83, 118, 3, 0.86484
280, 3, wb, filler, NA, 999, 999, 6, 17, 168, 125, 66, 144, 83, 118, 2, 0.477169
280, 3, wb, filler, NA, 999, 999, 6, 18, 112, 127, 82, 126, 140, 129, 2, 1.05555
280, 3, wb, filler, NA, 999, 999, 6, 18, 112, 127, 82, 126, 140, 129, 3, 0.707953
280, 3, wb, attraction, a-b-db, 9, 3, 6, 19, 195, 120, 120, 195, 114, 186, 1, 1.82889
280, 3, wb, attraction, a-b-db, 9, 3, 6, 19, 195, 120, 120, 195, 114, 186, 2, 0.466419
280, 3, wb, attraction, a-b-db, 9, 2, 6, 20, 90, 165, 165, 90, 86, 157, 3, 0.9574
280, 3, wb, attraction, a-b-db, 9, 2, 6, 20, 90, 165, 165, 90, 86, 157, 2, 0.98175
280, 3, wb, attraction, a-b-db, 14, 2, 6, 21, 90, 165, 165, 90, 83, 153, 3, 0.764162
280, 3, wb, attraction, a-b-db, 14, 2, 6, 21, 90, 165, 165, 90, 83, 153, 2, 3.06061
280, 3, wb, filler, NA, 999, 999, 6, 22, 85, 141, 129, 106, 187, 182, 1, 1.02276
280, 3, wb, filler, NA, 999, 999, 6, 22, 85, 141, 129, 106, 187, 182, 3, 0.476595
280, 3, wb, filler, NA, 999, 999, 6, 23, 64, 137, 148, 100, 156, 128, 1, 0.703142
280, 3, wb, filler, NA, 999, 999, 6, 23, 64, 137, 148, 100, 156, 128, 3, 0.617952
280, 3, wb, attraction, a-b-db, 5, 1, 6, 24, 58, 132, 135, 60, 60, 135, 3, 0.839143
280, 3, wb, attraction, a-b-db, 5, 1, 6, 24, 58, 132, 135, 60, 60, 135, 2, 0.748138
280, 3, wb, attraction, a-b-da, 5, 3, 6, 25, 120, 195, 190, 117, 195, 120, 1, 2.17189
280, 3, wb, attraction, a-b-da, 5, 3, 6, 25, 120, 195, 190, 117, 195, 120, 3, 0.395144
280, 3, wb, catch, NA, 999, 999, 6, 26, 83, 112, 185, 130, 104, 151, 1, 2.44904
280, 3, wb, catch, NA, 999, 999, 6, 26, 83, 112, 185, 130, 104, 151, 3, 0.629495
280, 3, wb, filler, NA, 999, 999, 6, 27, 170, 194, 151, 147, 128, 168, 3, 1.03389
280, 3, wb, filler, NA, 999, 999, 6, 27, 170, 194, 151, 147, 128, 168, 1, 0.495521
280, 3, wb, attraction, a-b-da, 14, 3, 6, 28, 181, 111, 195, 120, 120, 195, 3, 0.953487
280, 3, wb, attraction, a-b-da, 14, 3, 6, 28, 181, 111, 195, 120, 120, 195, 1, 1.57854
280, 3, wb, attraction, a-b-da, 9, 1, 6, 29, 129, 57, 60, 135, 135, 60, 3, 0.704502
280, 3, wb, attraction, a-b-da, 9, 1, 6, 29, 129, 57, 60, 135, 135, 60, 1, 0.578805
280, 3, wb, attraction, a-b-da, 2, 1, 6, 30, 135, 60, 134, 59, 60, 135, 3, 0.681279
280, 3, wb, attraction, a-b-da, 2, 1, 6, 30, 135, 60, 134, 59, 60, 135, 2, 0.653053
280, 3, wb, attraction, a-b-da, 2, 3, 6, 31, 193, 119, 120, 195, 195, 120, 3, 0.792886
280, 3, wb, attraction, a-b-da, 2, 3, 6, 31, 193, 119, 120, 195, 195, 120, 2, 0.759872
280, 3, wb, attraction, a-b-da, 9, 3, 6, 32, 186, 114, 195, 120, 120, 195, 3, 1.03097
280, 3, wb, attraction, a-b-da, 9, 3, 6, 32, 186, 114, 195, 120, 120, 195, 2, 0.780549
280, 3, wb, attraction, a-b-db, 9, 1, 6, 33, 60, 135, 57, 129, 135, 60, 2, 1.0829
280, 3, wb, attraction, a-b-db, 9, 1, 6, 33, 60, 135, 57, 129, 135, 60, 1, 0.766519
280, 3, wb, attraction, a-b-da, 14, 2, 6, 34, 153, 83, 165, 90, 90, 165, 3, 2.03771
280, 3, wb, attraction, a-b-da, 14, 2, 6, 34, 153, 83, 165, 90, 90, 165, 2, 0.859015
280, 3, wb, attraction, a-b-da, 5, 2, 6, 35, 90, 165, 161, 88, 165, 90, 3, 0.709997
280, 3, wb, attraction, a-b-da, 5, 2, 6, 35, 90, 165, 161, 88, 165, 90, 1, 0.48837
280, 3, wb, attraction, a-b-da, 9, 2, 6, 36, 165, 90, 157, 86, 90, 165, 1, 0.786832
280, 3, wb, attraction, a-b-da, 9, 2, 6, 36, 165, 90, 157, 86, 90, 165, 2, 0.314513
280, 3, wb, attraction, a-b-da, 14, 1, 6, 37, 60, 135, 135, 60, 125, 56, 3, 1.81175
280, 3, wb, attraction, a-b-da, 14, 1, 6, 37, 60, 135, 135, 60, 125, 56, 1, 0.329874
280, 3, wb, filler, NA, 999, 999, 7, 1, 147, 183, 188, 81, 153, 164, 2, 2.69835
280, 3, wb, filler, NA, 999, 999, 7, 1, 147, 183, 188, 81, 153, 164, 3, 0.436854
280, 3, wb, filler, NA, 999, 999, 7, 2, 141, 146, 109, 133, 93, 173, 2, 1.25745
280, 3, wb, filler, NA, 999, 999, 7, 2, 141, 146, 109, 133, 93, 173, 1, 0.645454
280, 3, wb, catch, NA, 999, 999, 7, 3, 160, 155, 148, 107, 110, 85, 3, 0.737323
280, 3, wb, catch, NA, 999, 999, 7, 3, 160, 155, 148, 107, 110, 85, 1, 0.906924
280, 3, wb, catch, NA, 999, 999, 7, 4, 171, 144, 130, 65, 126, 129, 2, 8.53198
280, 3, wb, catch, NA, 999, 999, 7, 4, 171, 144, 130, 65, 126, 129, 1, 0.779294
280, 3, wb, attraction, a-b-da, 2, 2, 7, 5, 165, 90, 90, 165, 163, 89, 3, 3.37769
280, 3, wb, attraction, a-b-da, 2, 2, 7, 5, 165, 90, 90, 165, 163, 89, 2, 0.320519
280, 3, wb, attraction, a-b-da, 14, 2, 7, 6, 90, 165, 153, 83, 165, 90, 1, 0.977847
280, 3, wb, attraction, a-b-da, 14, 2, 7, 6, 90, 165, 153, 83, 165, 90, 2, 0.705403
280, 3, wb, filler, NA, 999, 999, 7, 7, 153, 60, 147, 184, 119, 129, 1, 0.73111
280, 3, wb, filler, NA, 999, 999, 7, 7, 153, 60, 147, 184, 119, 129, 2, 0.724923
280, 3, wb, attraction, a-b-db, 5, 3, 7, 8, 195, 120, 117, 190, 120, 195, 1, 4.06921
280, 3, wb, attraction, a-b-db, 5, 3, 7, 8, 195, 120, 117, 190, 120, 195, 2, 0.664559
280, 3, wb, filler, NA, 999, 999, 7, 9, 94, 169, 72, 144, 155, 165, 2, 1.04386
280, 3, wb, filler, NA, 999, 999, 7, 9, 94, 169, 72, 144, 155, 165, 3, 0.656738
280, 3, wb, catch, NA, 999, 999, 7, 10, 128, 187, 123, 72, 150, 105, 2, 0.85982
280, 3, wb, catch, NA, 999, 999, 7, 10, 128, 187, 123, 72, 150, 105, 1, 0.424431
280, 3, wb, filler, NA, 999, 999, 7, 11, 178, 182, 109, 93, 116, 63, 3, 1.16462
280, 3, wb, filler, NA, 999, 999, 7, 11, 178, 182, 109, 93, 116, 63, 1, 0.340858
280, 3, wb, attraction, a-b-da, 2, 1, 7, 12, 134, 59, 135, 60, 60, 135, 2, 0.780668
280, 3, wb, attraction, a-b-da, 2, 1, 7, 12, 134, 59, 135, 60, 60, 135, 1, 0.652438
280, 3, wb, attraction, a-b-da, 2, 3, 7, 13, 120, 195, 195, 120, 193, 119, 3, 0.696119
280, 3, wb, attraction, a-b-da, 2, 3, 7, 13, 120, 195, 195, 120, 193, 119, 2, 0.651304
280, 3, wb, attraction, a-b-da, 14, 3, 7, 14, 181, 111, 120, 195, 195, 120, 1, 0.718999
280, 3, wb, attraction, a-b-da, 14, 3, 7, 14, 181, 111, 120, 195, 195, 120, 3, 1.1374
280, 3, wb, filler, NA, 999, 999, 7, 15, 184, 148, 168, 186, 59, 155, 3, 1.01769
280, 3, wb, filler, NA, 999, 999, 7, 15, 184, 148, 168, 186, 59, 155, 2, 1.03995
280, 3, wb, attraction, a-b-db, 14, 3, 7, 16, 195, 120, 111, 181, 120, 195, 2, 1.48444
280, 3, wb, attraction, a-b-db, 14, 3, 7, 16, 195, 120, 111, 181, 120, 195, 3, 0.407729
280, 3, wb, attraction, a-b-da, 9, 2, 7, 17, 90, 165, 165, 90, 157, 86, 3, 0.828895
280, 3, wb, attraction, a-b-da, 9, 2, 7, 17, 90, 165, 165, 90, 157, 86, 1, 0.482619
280, 3, wb, attraction, a-b-db, 9, 2, 7, 18, 165, 90, 86, 157, 90, 165, 2, 1.7972
280, 3, wb, attraction, a-b-db, 9, 2, 7, 18, 165, 90, 86, 157, 90, 165, 1, 0.820397
280, 3, wb, attraction, a-b-da, 5, 2, 7, 19, 165, 90, 161, 88, 90, 165, 3, 3.22478
280, 3, wb, attraction, a-b-da, 5, 2, 7, 19, 165, 90, 161, 88, 90, 165, 1, 0.469917
280, 3, wb, attraction, a-b-db, 14, 2, 7, 20, 83, 153, 90, 165, 165, 90, 2, 0.913071
280, 3, wb, attraction, a-b-db, 14, 2, 7, 20, 83, 153, 90, 165, 165, 90, 1, 0.843351
280, 3, wb, attraction, a-b-db, 2, 2, 7, 21, 90, 165, 89, 163, 165, 90, 2, 0.719042
280, 3, wb, attraction, a-b-db, 2, 2, 7, 21, 90, 165, 89, 163, 165, 90, 1, 0.481363
280, 3, wb, attraction, a-b-da, 14, 1, 7, 22, 125, 56, 135, 60, 60, 135, 2, 0.699862
280, 3, wb, attraction, a-b-da, 14, 1, 7, 22, 125, 56, 135, 60, 60, 135, 1, 1.37498
280, 3, wb, attraction, a-b-db, 9, 1, 7, 23, 60, 135, 57, 129, 135, 60, 2, 1.33313
280, 3, wb, attraction, a-b-db, 9, 1, 7, 23, 60, 135, 57, 129, 135, 60, 1, 1.50287
280, 3, wb, filler, NA, 999, 999, 7, 24, 187, 153, 154, 60, 105, 192, 3, 3.64817
280, 3, wb, filler, NA, 999, 999, 7, 24, 187, 153, 154, 60, 105, 192, 1, 0.324336
280, 3, wb, filler, NA, 999, 999, 7, 25, 94, 192, 195, 181, 162, 90, 3, 1.58903
280, 3, wb, filler, NA, 999, 999, 7, 25, 94, 192, 195, 181, 162, 90, 2, 0.291732
280, 3, wb, attraction, a-b-da, 9, 1, 7, 26, 129, 57, 135, 60, 60, 135, 2, 0.909422
280, 3, wb, attraction, a-b-da, 9, 1, 7, 26, 129, 57, 135, 60, 60, 135, 1, 0.887761
280, 3, wb, attraction, a-b-db, 2, 1, 7, 27, 135, 60, 60, 135, 59, 134, 2, 3.60209
280, 3, wb, attraction, a-b-db, 2, 1, 7, 27, 135, 60, 60, 135, 59, 134, 3, 0.904346
280, 3, wb, attraction, a-b-db, 14, 1, 7, 28, 60, 135, 135, 60, 56, 125, 2, 0.617978
280, 3, wb, attraction, a-b-db, 14, 1, 7, 28, 60, 135, 135, 60, 56, 125, 1, 1.61639
280, 3, wb, attraction, a-b-da, 9, 3, 7, 29, 186, 114, 195, 120, 120, 195, 1, 1.44521
280, 3, wb, attraction, a-b-da, 9, 3, 7, 29, 186, 114, 195, 120, 120, 195, 3, 0.706102
280, 3, wb, attraction, a-b-db, 9, 3, 7, 30, 195, 120, 120, 195, 114, 186, 1, 1.45983
280, 3, wb, attraction, a-b-db, 9, 3, 7, 30, 195, 120, 120, 195, 114, 186, 2, 0.23205
280, 3, wb, attraction, a-b-da, 5, 1, 7, 31, 132, 58, 135, 60, 60, 135, 3, 0.548485
280, 3, wb, attraction, a-b-da, 5, 1, 7, 31, 132, 58, 135, 60, 60, 135, 2, 0.661622
280, 3, wb, filler, NA, 999, 999, 7, 32, 134, 120, 77, 171, 118, 100, 3, 1.09664
280, 3, wb, filler, NA, 999, 999, 7, 32, 134, 120, 77, 171, 118, 100, 1, 0.387624
280, 3, wb, attraction, a-b-db, 5, 2, 7, 33, 90, 165, 165, 90, 88, 161, 3, 0.650272
280, 3, wb, attraction, a-b-db, 5, 2, 7, 33, 90, 165, 165, 90, 88, 161, 1, 0.543283
280, 3, wb, attraction, a-b-da, 5, 3, 7, 34, 190, 117, 195, 120, 120, 195, 2, 0.647057
280, 3, wb, attraction, a-b-da, 5, 3, 7, 34, 190, 117, 195, 120, 120, 195, 1, 0.516227
280, 3, wb, filler, NA, 999, 999, 7, 35, 179, 101, 174, 95, 127, 171, 1, 1.31743
280, 3, wb, filler, NA, 999, 999, 7, 35, 179, 101, 174, 95, 127, 171, 2, 0.42363
280, 3, wb, attraction, a-b-db, 5, 1, 7, 36, 60, 135, 135, 60, 58, 132, 3, 2.07606
280, 3, wb, attraction, a-b-db, 5, 1, 7, 36, 60, 135, 135, 60, 58, 132, 2, 0.383333
280, 3, wb, attraction, a-b-db, 2, 3, 7, 37, 119, 193, 120, 195, 195, 120, 1, 2.60583
280, 3, wb, attraction, a-b-db, 2, 3, 7, 37, 119, 193, 120, 195, 195, 120, 2, 0.299645
280, 3, wb, attraction, a-b-db, 5, 3, 8, 1, 120, 195, 117, 190, 195, 120, 1, 1.17339
280, 3, wb, attraction, a-b-db, 5, 3, 8, 1, 120, 195, 117, 190, 195, 120, 3, 1.20515
280, 3, wb, attraction, a-b-db, 2, 3, 8, 2, 195, 120, 119, 193, 120, 195, 1, 0.994657
280, 3, wb, attraction, a-b-db, 2, 3, 8, 2, 195, 120, 119, 193, 120, 195, 2, 0.38556
280, 3, wb, filler, NA, 999, 999, 8, 3, 130, 120, 74, 57, 193, 134, 2, 0.976114
280, 3, wb, filler, NA, 999, 999, 8, 3, 130, 120, 74, 57, 193, 134, 3, 0.399933
280, 3, wb, attraction, a-b-db, 14, 2, 8, 4, 90, 165, 165, 90, 83, 153, 3, 0.709663
280, 3, wb, attraction, a-b-db, 14, 2, 8, 4, 90, 165, 165, 90, 83, 153, 2, 0.832067
280, 3, wb, attraction, a-b-db, 14, 3, 8, 5, 111, 181, 120, 195, 195, 120, 2, 1.03642
280, 3, wb, attraction, a-b-db, 14, 3, 8, 5, 111, 181, 120, 195, 195, 120, 3, 0.378067
280, 3, wb, filler, NA, 999, 999, 8, 6, 159, 174, 182, 129, 140, 82, 3, 0.616633
280, 3, wb, filler, NA, 999, 999, 8, 6, 159, 174, 182, 129, 140, 82, 2, 0.222944
280, 3, wb, attraction, a-b-da, 5, 3, 8, 7, 120, 195, 190, 117, 195, 120, 2, 2.70812
280, 3, wb, attraction, a-b-da, 5, 3, 8, 7, 120, 195, 190, 117, 195, 120, 3, 0.309981
280, 3, wb, catch, NA, 999, 999, 8, 8, 124, 71, 163, 152, 98, 157, 1, 0.647168
280, 3, wb, catch, NA, 999, 999, 8, 8, 124, 71, 163, 152, 98, 157, 3, 0.628227
280, 3, wb, filler, NA, 999, 999, 8, 9, 195, 147, 147, 172, 85, 124, 3, 0.728616
280, 3, wb, filler, NA, 999, 999, 8, 9, 195, 147, 147, 172, 85, 124, 2, 0.242344
280, 3, wb, attraction, a-b-db, 2, 2, 8, 10, 165, 90, 89, 163, 90, 165, 1, 1.23034
280, 3, wb, attraction, a-b-db, 2, 2, 8, 10, 165, 90, 89, 163, 90, 165, 2, 0.283822
280, 3, wb, attraction, a-b-db, 5, 1, 8, 11, 60, 135, 135, 60, 58, 132, 1, 1.06232
280, 3, wb, attraction, a-b-db, 5, 1, 8, 11, 60, 135, 135, 60, 58, 132, 2, 0.314663
280, 3, wb, attraction, a-b-db, 14, 1, 8, 12, 56, 125, 135, 60, 60, 135, 1, 2.58788
280, 3, wb, attraction, a-b-db, 14, 1, 8, 12, 56, 125, 135, 60, 60, 135, 3, 0.299001
280, 3, wb, filler, NA, 999, 999, 8, 13, 67, 159, 106, 129, 108, 65, 3, 0.900913
280, 3, wb, filler, NA, 999, 999, 8, 13, 67, 159, 106, 129, 108, 65, 2, 0.655946
280, 3, wb, catch, NA, 999, 999, 8, 14, 85, 110, 160, 95, 172, 143, 1, 0.899648
280, 3, wb, catch, NA, 999, 999, 8, 14, 85, 110, 160, 95, 172, 143, 3, 0.454694
280, 3, wb, catch, NA, 999, 999, 8, 15, 91, 104, 149, 166, 94, 161, 1, 1.08244
280, 3, wb, catch, NA, 999, 999, 8, 15, 91, 104, 149, 166, 94, 161, 2, 0.262033
280, 3, wb, attraction, a-b-da, 2, 3, 8, 16, 120, 195, 193, 119, 195, 120, 3, 1.24134
280, 3, wb, attraction, a-b-da, 2, 3, 8, 16, 120, 195, 193, 119, 195, 120, 1, 0.326199
280, 3, wb, attraction, a-b-da, 5, 2, 8, 17, 90, 165, 165, 90, 161, 88, 1, 1.94273
280, 3, wb, attraction, a-b-da, 5, 2, 8, 17, 90, 165, 165, 90, 161, 88, 2, 0.535433
280, 3, wb, filler, NA, 999, 999, 8, 18, 191, 149, 110, 139, 175, 63, 3, 0.583869
280, 3, wb, filler, NA, 999, 999, 8, 18, 191, 149, 110, 139, 175, 63, 1, 0.599753
280, 3, wb, attraction, a-b-da, 14, 1, 8, 19, 60, 135, 135, 60, 125, 56, 3, 1.03734
280, 3, wb, attraction, a-b-da, 14, 1, 8, 19, 60, 135, 135, 60, 125, 56, 2, 0.498356
280, 3, wb, filler, NA, 999, 999, 8, 20, 85, 78, 119, 133, 65, 125, 1, 0.89219
280, 3, wb, filler, NA, 999, 999, 8, 20, 85, 78, 119, 133, 65, 125, 2, 0.287149
280, 3, wb, attraction, a-b-da, 2, 2, 8, 21, 90, 165, 163, 89, 165, 90, 1, 1.01772
280, 3, wb, attraction, a-b-da, 2, 2, 8, 21, 90, 165, 163, 89, 165, 90, 3, 3.14413
280, 3, wb, filler, NA, 999, 999, 8, 22, 150, 88, 103, 153, 156, 112, 1, 5.46299
280, 3, wb, filler, NA, 999, 999, 8, 22, 150, 88, 103, 153, 156, 112, 2, 0.954048
280, 3, wb, attraction, a-b-db, 9, 2, 8, 23, 86, 157, 90, 165, 165, 90, 1, 1.24967
280, 3, wb, attraction, a-b-db, 9, 2, 8, 23, 86, 157, 90, 165, 165, 90, 2, 0.57442
280, 3, wb, attraction, a-b-db, 5, 2, 8, 24, 90, 165, 165, 90, 88, 161, 3, 1.57296
280, 3, wb, attraction, a-b-db, 5, 2, 8, 24, 90, 165, 165, 90, 88, 161, 1, 1.11643
280, 3, wb, attraction, a-b-da, 14, 2, 8, 25, 153, 83, 165, 90, 90, 165, 1, 0.957291
280, 3, wb, attraction, a-b-da, 14, 2, 8, 25, 153, 83, 165, 90, 90, 165, 3, 2.1897
280, 3, wb, attraction, a-b-da, 14, 3, 8, 26, 181, 111, 120, 195, 195, 120, 1, 2.0196
280, 3, wb, attraction, a-b-da, 14, 3, 8, 26, 181, 111, 120, 195, 195, 120, 2, 0.761573
280, 3, wb, attraction, a-b-db, 2, 1, 8, 27, 59, 134, 60, 135, 135, 60, 1, 1.00072
280, 3, wb, attraction, a-b-db, 2, 1, 8, 27, 59, 134, 60, 135, 135, 60, 2, 0.671603
280, 3, wb, filler, NA, 999, 999, 8, 28, 134, 96, 95, 102, 126, 143, 1, 1.42689
280, 3, wb, filler, NA, 999, 999, 8, 28, 134, 96, 95, 102, 126, 143, 3, 0.648268
280, 3, wb, attraction, a-b-da, 9, 2, 8, 29, 157, 86, 90, 165, 165, 90, 1, 0.635899
280, 3, wb, attraction, a-b-da, 9, 2, 8, 29, 157, 86, 90, 165, 165, 90, 2, 0.345804
280, 3, wb, attraction, a-b-da, 2, 1, 8, 30, 134, 59, 135, 60, 60, 135, 1, 0.921545
280, 3, wb, attraction, a-b-da, 2, 1, 8, 30, 134, 59, 135, 60, 60, 135, 3, 0.515945
280, 3, wb, attraction, a-b-da, 9, 3, 8, 31, 120, 195, 195, 120, 186, 114, 3, 1.21305
280, 3, wb, attraction, a-b-da, 9, 3, 8, 31, 120, 195, 195, 120, 186, 114, 2, 0.379415
280, 3, wb, attraction, a-b-db, 9, 1, 8, 32, 57, 129, 135, 60, 60, 135, 1, 0.665708
280, 3, wb, attraction, a-b-db, 9, 1, 8, 32, 57, 129, 135, 60, 60, 135, 2, 0.318191
280, 3, wb, attraction, a-b-db, 9, 3, 8, 33, 120, 195, 195, 120, 114, 186, 3, 0.655503
280, 3, wb, attraction, a-b-db, 9, 3, 8, 33, 120, 195, 195, 120, 114, 186, 2, 0.227799
280, 3, wb, filler, NA, 999, 999, 8, 34, 177, 136, 121, 186, 119, 193, 1, 0.800305
280, 3, wb, filler, NA, 999, 999, 8, 34, 177, 136, 121, 186, 119, 193, 3, 0.559439
280, 3, wb, attraction, a-b-da, 5, 1, 8, 35, 60, 135, 132, 58, 135, 60, 1, 0.614472
280, 3, wb, attraction, a-b-da, 5, 1, 8, 35, 60, 135, 132, 58, 135, 60, 2, 0.492952
280, 3, wb, filler, NA, 999, 999, 8, 36, 139, 153, 195, 60, 109, 67, 3, 0.942784
280, 3, wb, filler, NA, 999, 999, 8, 36, 139, 153, 195, 60, 109, 67, 1, 0.871769
280, 3, wb, attraction, a-b-da, 9, 1, 8, 37, 60, 135, 135, 60, 129, 57, 1, 2.13879
280, 3, wb, attraction, a-b-da, 9, 1, 8, 37, 60, 135, 135, 60, 129, 57, 2, 0.283476
