sub_n, computer_n, bw_cond, effect, set, distance, diag, block_n, trial_n, h1, w1, h2, w2, h3, w3, choice, rt 
222, 3, wb, practice, NA, 999, 999, 0, 1, 164, 154, 186, 179, 139, 79, 3, 2.04305
222, 3, wb, practice, NA, 999, 999, 0, 1, 164, 154, 186, 179, 139, 79, 2, 2.04077
222, 3, wb, practice, NA, 999, 999, 0, 2, 148, 97, 156, 128, 111, 78, 3, 2.18703
222, 3, wb, practice, NA, 999, 999, 0, 2, 148, 97, 156, 128, 111, 78, 2, 1.18481
222, 3, wb, practice, NA, 999, 999, 0, 3, 85, 118, 108, 179, 62, 76, 3, 1.53179
222, 3, wb, practice, NA, 999, 999, 0, 3, 85, 118, 108, 179, 62, 76, 2, 0.974439
222, 3, wb, attraction, a-b-da, 9, 3, 1, 1, 120, 195, 186, 114, 195, 120, 2, 2.75259
222, 3, wb, attraction, a-b-da, 9, 3, 1, 1, 120, 195, 186, 114, 195, 120, 1, 2.56105
222, 3, wb, attraction, a-b-da, 14, 3, 1, 2, 195, 120, 120, 195, 181, 111, 3, 2.00765
222, 3, wb, attraction, a-b-da, 14, 3, 1, 2, 195, 120, 120, 195, 181, 111, 2, 1.87758
222, 3, wb, catch, NA, 999, 999, 1, 3, 104, 91, 114, 141, 150, 165, 1, 1.15143
222, 3, wb, catch, NA, 999, 999, 1, 3, 104, 91, 114, 141, 150, 165, 3, 0.888581
222, 3, wb, attraction, a-b-da, 9, 2, 1, 4, 90, 165, 165, 90, 157, 86, 3, 3.27485
222, 3, wb, attraction, a-b-da, 9, 2, 1, 4, 90, 165, 165, 90, 157, 86, 1, 1.01468
222, 3, wb, attraction, a-b-da, 14, 1, 1, 5, 135, 60, 60, 135, 125, 56, 2, 2.84285
222, 3, wb, attraction, a-b-da, 14, 1, 1, 5, 135, 60, 60, 135, 125, 56, 1, 0.799227
222, 3, wb, attraction, a-b-da, 9, 1, 1, 6, 60, 135, 135, 60, 129, 57, 3, 2.83685
222, 3, wb, attraction, a-b-da, 9, 1, 1, 6, 60, 135, 135, 60, 129, 57, 2, 0.889932
222, 3, wb, attraction, a-b-db, 14, 1, 1, 7, 56, 125, 135, 60, 60, 135, 1, 4.65219
222, 3, wb, attraction, a-b-db, 14, 1, 1, 7, 56, 125, 135, 60, 60, 135, 3, 0.888156
222, 3, wb, attraction, a-b-db, 5, 3, 1, 8, 120, 195, 195, 120, 117, 190, 2, 1.88242
222, 3, wb, attraction, a-b-db, 5, 3, 1, 8, 120, 195, 195, 120, 117, 190, 1, 3.74978
222, 3, wb, filler, NA, 999, 999, 1, 9, 109, 138, 176, 75, 78, 186, 1, 3.70059
222, 3, wb, filler, NA, 999, 999, 1, 9, 109, 138, 176, 75, 78, 186, 2, 0.838862
222, 3, wb, attraction, a-b-db, 9, 1, 1, 10, 135, 60, 60, 135, 57, 129, 3, 4.40302
222, 3, wb, attraction, a-b-db, 9, 1, 1, 10, 135, 60, 60, 135, 57, 129, 1, 0.705092
222, 3, wb, attraction, a-b-db, 9, 3, 1, 11, 195, 120, 114, 186, 120, 195, 2, 2.99465
222, 3, wb, attraction, a-b-db, 9, 3, 1, 11, 195, 120, 114, 186, 120, 195, 1, 0.697219
222, 3, wb, attraction, a-b-da, 2, 2, 1, 12, 165, 90, 163, 89, 90, 165, 2, 4.99493
222, 3, wb, attraction, a-b-da, 2, 2, 1, 12, 165, 90, 163, 89, 90, 165, 3, 0.360577
222, 3, wb, attraction, a-b-db, 2, 3, 1, 13, 195, 120, 120, 195, 119, 193, 3, 1.18372
222, 3, wb, attraction, a-b-db, 2, 3, 1, 13, 195, 120, 120, 195, 119, 193, 2, 1.13534
222, 3, wb, attraction, a-b-db, 5, 2, 1, 14, 90, 165, 88, 161, 165, 90, 2, 8.11969
222, 3, wb, attraction, a-b-db, 5, 2, 1, 14, 90, 165, 88, 161, 165, 90, 1, 1.88779
222, 3, wb, filler, NA, 999, 999, 1, 15, 144, 181, 188, 173, 91, 72, 3, 1.24169
222, 3, wb, filler, NA, 999, 999, 1, 15, 144, 181, 188, 173, 91, 72, 2, 0.446923
222, 3, wb, catch, NA, 999, 999, 1, 16, 113, 82, 134, 121, 171, 144, 1, 0.890418
222, 3, wb, catch, NA, 999, 999, 1, 16, 113, 82, 134, 121, 171, 144, 3, 0.349389
222, 3, wb, attraction, a-b-db, 14, 2, 1, 17, 165, 90, 90, 165, 83, 153, 3, 1.34938
222, 3, wb, attraction, a-b-db, 14, 2, 1, 17, 165, 90, 90, 165, 83, 153, 1, 0.566139
222, 3, wb, catch, NA, 999, 999, 1, 18, 128, 187, 80, 115, 93, 162, 2, 1.11726
222, 3, wb, catch, NA, 999, 999, 1, 18, 128, 187, 80, 115, 93, 162, 1, 0.631472
222, 3, wb, attraction, a-b-db, 2, 2, 1, 19, 90, 165, 165, 90, 89, 163, 2, 1.37194
222, 3, wb, attraction, a-b-db, 2, 2, 1, 19, 90, 165, 165, 90, 89, 163, 3, 0.755657
222, 3, wb, attraction, a-b-da, 5, 1, 1, 20, 60, 135, 135, 60, 132, 58, 1, 2.29929
222, 3, wb, attraction, a-b-da, 5, 1, 1, 20, 60, 135, 135, 60, 132, 58, 3, 1.98183
222, 3, wb, attraction, a-b-db, 9, 2, 1, 21, 165, 90, 90, 165, 86, 157, 3, 1.76388
222, 3, wb, attraction, a-b-db, 9, 2, 1, 21, 165, 90, 90, 165, 86, 157, 1, 1.5559
222, 3, wb, attraction, a-b-da, 5, 3, 1, 22, 120, 195, 190, 117, 195, 120, 2, 6.21941
222, 3, wb, attraction, a-b-da, 5, 3, 1, 22, 120, 195, 190, 117, 195, 120, 1, 0.29617
222, 3, wb, filler, NA, 999, 999, 1, 23, 181, 76, 78, 118, 104, 97, 2, 0.913893
222, 3, wb, filler, NA, 999, 999, 1, 23, 181, 76, 78, 118, 104, 97, 1, 0.91627
222, 3, wb, filler, NA, 999, 999, 1, 24, 83, 66, 75, 112, 194, 109, 1, 0.773229
222, 3, wb, filler, NA, 999, 999, 1, 24, 83, 66, 75, 112, 194, 109, 3, 0.33303
222, 3, wb, attraction, a-b-db, 2, 1, 1, 25, 135, 60, 60, 135, 59, 134, 2, 3.22946
222, 3, wb, attraction, a-b-db, 2, 1, 1, 25, 135, 60, 60, 135, 59, 134, 1, 0.41056
222, 3, wb, attraction, a-b-db, 14, 3, 1, 26, 120, 195, 195, 120, 111, 181, 3, 2.21557
222, 3, wb, attraction, a-b-db, 14, 3, 1, 26, 120, 195, 195, 120, 111, 181, 2, 0.421565
222, 3, wb, filler, NA, 999, 999, 1, 27, 132, 74, 73, 165, 81, 73, 3, 0.890589
222, 3, wb, filler, NA, 999, 999, 1, 27, 132, 74, 73, 165, 81, 73, 2, 0.669758
222, 3, wb, filler, NA, 999, 999, 1, 28, 172, 174, 125, 147, 131, 88, 3, 0.944788
222, 3, wb, filler, NA, 999, 999, 1, 28, 172, 174, 125, 147, 131, 88, 1, 0.481785
222, 3, wb, attraction, a-b-da, 14, 2, 1, 29, 165, 90, 90, 165, 153, 83, 3, 2.96424
222, 3, wb, attraction, a-b-da, 14, 2, 1, 29, 165, 90, 90, 165, 153, 83, 2, 1.47592
222, 3, wb, attraction, a-b-da, 2, 1, 1, 30, 60, 135, 135, 60, 134, 59, 2, 3.01409
222, 3, wb, attraction, a-b-da, 2, 1, 1, 30, 60, 135, 135, 60, 134, 59, 1, 0.900035
222, 3, wb, attraction, a-b-db, 5, 1, 1, 31, 58, 132, 60, 135, 135, 60, 1, 8.2854
222, 3, wb, attraction, a-b-db, 5, 1, 1, 31, 58, 132, 60, 135, 135, 60, 2, 0.302747
222, 3, wb, attraction, a-b-da, 5, 2, 1, 32, 90, 165, 165, 90, 161, 88, 2, 1.99261
222, 3, wb, attraction, a-b-da, 5, 2, 1, 32, 90, 165, 165, 90, 161, 88, 1, 0.343395
222, 3, wb, filler, NA, 999, 999, 1, 33, 190, 108, 68, 178, 173, 115, 2, 1.45519
222, 3, wb, filler, NA, 999, 999, 1, 33, 190, 108, 68, 178, 173, 115, 3, 0.323404
222, 3, wb, filler, NA, 999, 999, 1, 34, 115, 129, 189, 77, 195, 111, 1, 1.11583
222, 3, wb, filler, NA, 999, 999, 1, 34, 115, 129, 189, 77, 195, 111, 3, 0.558227
222, 3, wb, filler, NA, 999, 999, 1, 35, 122, 150, 150, 99, 93, 136, 3, 2.1653
222, 3, wb, filler, NA, 999, 999, 1, 35, 122, 150, 150, 99, 93, 136, 1, 0.453463
222, 3, wb, filler, NA, 999, 999, 1, 36, 60, 145, 135, 169, 118, 74, 1, 1.385
222, 3, wb, filler, NA, 999, 999, 1, 36, 60, 145, 135, 169, 118, 74, 2, 0.44074
222, 3, wb, attraction, a-b-da, 2, 3, 1, 37, 195, 120, 193, 119, 120, 195, 3, 2.7805
222, 3, wb, attraction, a-b-da, 2, 3, 1, 37, 195, 120, 193, 119, 120, 195, 2, 3.73154
222, 3, wb, filler, NA, 999, 999, 2, 1, 191, 143, 176, 115, 158, 110, 3, 0.946978
222, 3, wb, filler, NA, 999, 999, 2, 1, 191, 143, 176, 115, 158, 110, 1, 0.475939
222, 3, wb, attraction, a-b-db, 9, 3, 2, 2, 114, 186, 120, 195, 195, 120, 1, 1.33453
222, 3, wb, attraction, a-b-db, 9, 3, 2, 2, 114, 186, 120, 195, 195, 120, 3, 1.39203
222, 3, wb, filler, NA, 999, 999, 2, 3, 97, 176, 118, 116, 59, 153, 3, 2.65348
222, 3, wb, filler, NA, 999, 999, 2, 3, 97, 176, 118, 116, 59, 153, 1, 0.713983
222, 3, wb, attraction, a-b-db, 2, 3, 2, 4, 120, 195, 195, 120, 119, 193, 2, 1.79501
222, 3, wb, attraction, a-b-db, 2, 3, 2, 4, 120, 195, 195, 120, 119, 193, 1, 1.06574
222, 3, wb, attraction, a-b-db, 2, 1, 2, 5, 60, 135, 135, 60, 59, 134, 1, 1.67665
222, 3, wb, attraction, a-b-db, 2, 1, 2, 5, 60, 135, 135, 60, 59, 134, 2, 0.344162
222, 3, wb, filler, NA, 999, 999, 2, 6, 144, 71, 153, 91, 56, 90, 3, 0.855933
222, 3, wb, filler, NA, 999, 999, 2, 6, 144, 71, 153, 91, 56, 90, 2, 0.50851
222, 3, wb, attraction, a-b-da, 2, 2, 2, 7, 163, 89, 165, 90, 90, 165, 2, 2.18949
222, 3, wb, attraction, a-b-da, 2, 2, 2, 7, 163, 89, 165, 90, 90, 165, 3, 0.268418
222, 3, wb, catch, NA, 999, 999, 2, 8, 94, 101, 136, 179, 107, 148, 1, 1.27126
222, 3, wb, catch, NA, 999, 999, 2, 8, 94, 101, 136, 179, 107, 148, 2, 0.579557
222, 3, wb, filler, NA, 999, 999, 2, 9, 175, 144, 113, 70, 87, 193, 2, 0.994016
222, 3, wb, filler, NA, 999, 999, 2, 9, 175, 144, 113, 70, 87, 193, 1, 0.392986
222, 3, wb, filler, NA, 999, 999, 2, 10, 95, 135, 86, 93, 169, 147, 2, 0.902765
222, 3, wb, filler, NA, 999, 999, 2, 10, 95, 135, 86, 93, 169, 147, 3, 0.337738
222, 3, wb, filler, NA, 999, 999, 2, 11, 173, 158, 105, 190, 152, 138, 2, 2.33827
222, 3, wb, filler, NA, 999, 999, 2, 11, 173, 158, 105, 190, 152, 138, 1, 0.306842
222, 3, wb, attraction, a-b-da, 5, 3, 2, 12, 120, 195, 190, 117, 195, 120, 2, 2.28399
222, 3, wb, attraction, a-b-da, 5, 3, 2, 12, 120, 195, 190, 117, 195, 120, 1, 0.263416
222, 3, wb, attraction, a-b-da, 14, 3, 2, 13, 120, 195, 181, 111, 195, 120, 2, 2.06648
222, 3, wb, attraction, a-b-da, 14, 3, 2, 13, 120, 195, 181, 111, 195, 120, 1, 0.262438
222, 3, wb, attraction, a-b-db, 5, 3, 2, 14, 117, 190, 120, 195, 195, 120, 1, 2.44172
222, 3, wb, attraction, a-b-db, 5, 3, 2, 14, 117, 190, 120, 195, 195, 120, 3, 0.294171
222, 3, wb, attraction, a-b-da, 5, 2, 2, 15, 165, 90, 90, 165, 161, 88, 1, 2.18411
222, 3, wb, attraction, a-b-da, 5, 2, 2, 15, 165, 90, 90, 165, 161, 88, 2, 0.519322
222, 3, wb, attraction, a-b-db, 5, 1, 2, 16, 60, 135, 58, 132, 135, 60, 3, 2.23256
222, 3, wb, attraction, a-b-db, 5, 1, 2, 16, 60, 135, 58, 132, 135, 60, 2, 0.309818
222, 3, wb, catch, NA, 999, 999, 2, 17, 85, 110, 123, 132, 125, 190, 1, 0.750929
222, 3, wb, catch, NA, 999, 999, 2, 17, 85, 110, 123, 132, 125, 190, 3, 0.279993
222, 3, wb, catch, NA, 999, 999, 2, 18, 124, 71, 127, 188, 139, 116, 1, 0.770483
222, 3, wb, catch, NA, 999, 999, 2, 18, 124, 71, 127, 188, 139, 116, 2, 0.506906
222, 3, wb, attraction, a-b-da, 9, 3, 2, 19, 120, 195, 195, 120, 186, 114, 3, 1.74803
222, 3, wb, attraction, a-b-da, 9, 3, 2, 19, 120, 195, 195, 120, 186, 114, 1, 0.268818
222, 3, wb, filler, NA, 999, 999, 2, 20, 190, 149, 130, 161, 114, 151, 3, 1.13599
222, 3, wb, filler, NA, 999, 999, 2, 20, 190, 149, 130, 161, 114, 151, 1, 0.393605
222, 3, wb, attraction, a-b-db, 14, 2, 2, 21, 83, 153, 165, 90, 90, 165, 1, 3.15142
222, 3, wb, attraction, a-b-db, 14, 2, 2, 21, 83, 153, 165, 90, 90, 165, 3, 0.335851
222, 3, wb, attraction, a-b-db, 9, 2, 2, 22, 165, 90, 86, 157, 90, 165, 2, 8.17624
222, 3, wb, attraction, a-b-db, 9, 2, 2, 22, 165, 90, 86, 157, 90, 165, 1, 0.309642
222, 3, wb, attraction, a-b-db, 9, 1, 2, 23, 60, 135, 57, 129, 135, 60, 3, 11.1189
222, 3, wb, attraction, a-b-db, 9, 1, 2, 23, 60, 135, 57, 129, 135, 60, 1, 0.422028
222, 3, wb, filler, NA, 999, 999, 2, 24, 70, 164, 73, 162, 97, 64, 3, 0.891186
222, 3, wb, filler, NA, 999, 999, 2, 24, 70, 164, 73, 162, 97, 64, 2, 0.702244
222, 3, wb, attraction, a-b-da, 9, 2, 2, 25, 90, 165, 165, 90, 157, 86, 2, 1.40797
222, 3, wb, attraction, a-b-da, 9, 2, 2, 25, 90, 165, 165, 90, 157, 86, 1, 0.710149
222, 3, wb, attraction, a-b-da, 2, 3, 2, 26, 195, 120, 193, 119, 120, 195, 2, 2.1195
222, 3, wb, attraction, a-b-da, 2, 3, 2, 26, 195, 120, 193, 119, 120, 195, 3, 0.329352
222, 3, wb, attraction, a-b-da, 9, 1, 2, 27, 129, 57, 60, 135, 135, 60, 2, 2.9616
222, 3, wb, attraction, a-b-da, 9, 1, 2, 27, 129, 57, 60, 135, 135, 60, 3, 0.713513
222, 3, wb, attraction, a-b-da, 14, 1, 2, 28, 125, 56, 135, 60, 60, 135, 1, 1.33047
222, 3, wb, attraction, a-b-da, 14, 1, 2, 28, 125, 56, 135, 60, 60, 135, 3, 0.372097
222, 3, wb, filler, NA, 999, 999, 2, 29, 173, 132, 94, 150, 185, 117, 2, 1.33121
222, 3, wb, filler, NA, 999, 999, 2, 29, 173, 132, 94, 150, 185, 117, 1, 0.300665
222, 3, wb, attraction, a-b-db, 5, 2, 2, 30, 88, 161, 165, 90, 90, 165, 2, 0.966557
222, 3, wb, attraction, a-b-db, 5, 2, 2, 30, 88, 161, 165, 90, 90, 165, 3, 0.422886
222, 3, wb, attraction, a-b-db, 2, 2, 2, 31, 90, 165, 165, 90, 89, 163, 2, 0.964212
222, 3, wb, attraction, a-b-db, 2, 2, 2, 31, 90, 165, 165, 90, 89, 163, 1, 0.404338
222, 3, wb, attraction, a-b-da, 2, 1, 2, 32, 134, 59, 135, 60, 60, 135, 1, 4.65824
222, 3, wb, attraction, a-b-da, 2, 1, 2, 32, 134, 59, 135, 60, 60, 135, 3, 0.437302
222, 3, wb, attraction, a-b-db, 14, 1, 2, 33, 135, 60, 60, 135, 56, 125, 1, 1.48179
222, 3, wb, attraction, a-b-db, 14, 1, 2, 33, 135, 60, 60, 135, 56, 125, 2, 0.397383
222, 3, wb, filler, NA, 999, 999, 2, 34, 178, 148, 109, 90, 131, 89, 2, 0.971105
222, 3, wb, filler, NA, 999, 999, 2, 34, 178, 148, 109, 90, 131, 89, 1, 1.05951
222, 3, wb, attraction, a-b-db, 14, 3, 2, 35, 111, 181, 120, 195, 195, 120, 1, 1.82253
222, 3, wb, attraction, a-b-db, 14, 3, 2, 35, 111, 181, 120, 195, 195, 120, 2, 1.00392
222, 3, wb, attraction, a-b-da, 5, 1, 2, 36, 132, 58, 135, 60, 60, 135, 1, 1.72149
222, 3, wb, attraction, a-b-da, 5, 1, 2, 36, 132, 58, 135, 60, 60, 135, 3, 0.322872
222, 3, wb, attraction, a-b-da, 14, 2, 2, 37, 165, 90, 153, 83, 90, 165, 2, 11.5802
222, 3, wb, attraction, a-b-da, 14, 2, 2, 37, 165, 90, 153, 83, 90, 165, 1, 0.952428
222, 3, wb, attraction, a-b-da, 5, 1, 3, 1, 60, 135, 132, 58, 135, 60, 2, 1.23217
222, 3, wb, attraction, a-b-da, 5, 1, 3, 1, 60, 135, 132, 58, 135, 60, 1, 0.669667
222, 3, wb, filler, NA, 999, 999, 3, 2, 171, 90, 158, 57, 90, 91, 3, 3.69692
222, 3, wb, filler, NA, 999, 999, 3, 2, 171, 90, 158, 57, 90, 91, 1, 0.394934
222, 3, wb, attraction, a-b-da, 2, 2, 3, 3, 165, 90, 163, 89, 90, 165, 3, 5.1527
222, 3, wb, attraction, a-b-da, 2, 2, 3, 3, 165, 90, 163, 89, 90, 165, 2, 0.360362
222, 3, wb, attraction, a-b-da, 9, 1, 3, 4, 135, 60, 129, 57, 60, 135, 3, 1.11966
222, 3, wb, attraction, a-b-da, 9, 1, 3, 4, 135, 60, 129, 57, 60, 135, 2, 0.441929
222, 3, wb, attraction, a-b-da, 2, 1, 3, 5, 135, 60, 134, 59, 60, 135, 1, 0.685676
222, 3, wb, attraction, a-b-da, 2, 1, 3, 5, 135, 60, 134, 59, 60, 135, 3, 0.737549
222, 3, wb, attraction, a-b-db, 5, 2, 3, 6, 88, 161, 165, 90, 90, 165, 1, 1.39385
222, 3, wb, attraction, a-b-db, 5, 2, 3, 6, 88, 161, 165, 90, 90, 165, 2, 0.328672
222, 3, wb, attraction, a-b-da, 14, 3, 3, 7, 195, 120, 181, 111, 120, 195, 2, 1.24115
222, 3, wb, attraction, a-b-da, 14, 3, 3, 7, 195, 120, 181, 111, 120, 195, 1, 0.926123
222, 3, wb, filler, NA, 999, 999, 3, 8, 101, 163, 63, 162, 94, 99, 2, 1.99841
222, 3, wb, filler, NA, 999, 999, 3, 8, 101, 163, 63, 162, 94, 99, 1, 0.40512
222, 3, wb, attraction, a-b-db, 9, 3, 3, 9, 120, 195, 195, 120, 114, 186, 2, 1.21096
222, 3, wb, attraction, a-b-db, 9, 3, 3, 9, 120, 195, 195, 120, 114, 186, 1, 0.457185
222, 3, wb, catch, NA, 999, 999, 3, 10, 186, 129, 126, 129, 135, 60, 3, 0.844311
222, 3, wb, catch, NA, 999, 999, 3, 10, 186, 129, 126, 129, 135, 60, 1, 0.713369
222, 3, wb, attraction, a-b-db, 5, 1, 3, 11, 58, 132, 135, 60, 60, 135, 2, 3.05853
222, 3, wb, attraction, a-b-db, 5, 1, 3, 11, 58, 132, 135, 60, 60, 135, 1, 0.294131
222, 3, wb, attraction, a-b-db, 9, 1, 3, 12, 135, 60, 57, 129, 60, 135, 3, 1.32795
222, 3, wb, attraction, a-b-db, 9, 1, 3, 12, 135, 60, 57, 129, 60, 135, 1, 0.505428
222, 3, wb, attraction, a-b-da, 9, 3, 3, 13, 120, 195, 186, 114, 195, 120, 3, 2.88324
222, 3, wb, attraction, a-b-da, 9, 3, 3, 13, 120, 195, 186, 114, 195, 120, 1, 0.718386
222, 3, wb, attraction, a-b-da, 5, 3, 3, 14, 195, 120, 120, 195, 190, 117, 3, 4.44734
222, 3, wb, attraction, a-b-da, 5, 3, 3, 14, 195, 120, 120, 195, 190, 117, 2, 0.41929
222, 3, wb, filler, NA, 999, 999, 3, 15, 67, 164, 72, 116, 193, 171, 1, 0.824513
222, 3, wb, filler, NA, 999, 999, 3, 15, 67, 164, 72, 116, 193, 171, 3, 0.694171
222, 3, wb, attraction, a-b-db, 14, 1, 3, 16, 60, 135, 56, 125, 135, 60, 2, 10.264
222, 3, wb, attraction, a-b-db, 14, 1, 3, 16, 60, 135, 56, 125, 135, 60, 3, 0.649348
222, 3, wb, attraction, a-b-db, 2, 1, 3, 17, 59, 134, 60, 135, 135, 60, 1, 0.652977
222, 3, wb, attraction, a-b-db, 2, 1, 3, 17, 59, 134, 60, 135, 135, 60, 3, 0.482128
222, 3, wb, attraction, a-b-da, 14, 1, 3, 18, 60, 135, 125, 56, 135, 60, 1, 0.976577
222, 3, wb, attraction, a-b-da, 14, 1, 3, 18, 60, 135, 125, 56, 135, 60, 3, 0.353661
222, 3, wb, filler, NA, 999, 999, 3, 19, 158, 185, 158, 99, 81, 174, 3, 1.24416
222, 3, wb, filler, NA, 999, 999, 3, 19, 158, 185, 158, 99, 81, 174, 1, 0.289099
222, 3, wb, catch, NA, 999, 999, 3, 20, 112, 143, 61, 134, 195, 120, 2, 0.931551
222, 3, wb, catch, NA, 999, 999, 3, 20, 112, 143, 61, 134, 195, 120, 3, 0.253315
222, 3, wb, catch, NA, 999, 999, 3, 21, 62, 133, 140, 175, 147, 108, 1, 0.777211
222, 3, wb, catch, NA, 999, 999, 3, 21, 62, 133, 140, 175, 147, 108, 2, 0.240891
222, 3, wb, attraction, a-b-db, 14, 3, 3, 22, 120, 195, 195, 120, 111, 181, 3, 1.84478
222, 3, wb, attraction, a-b-db, 14, 3, 3, 22, 120, 195, 195, 120, 111, 181, 2, 0.849571
222, 3, wb, attraction, a-b-da, 5, 2, 3, 23, 165, 90, 90, 165, 161, 88, 1, 0.757143
222, 3, wb, attraction, a-b-da, 5, 2, 3, 23, 165, 90, 90, 165, 161, 88, 2, 0.261517
222, 3, wb, filler, NA, 999, 999, 3, 24, 187, 79, 87, 132, 145, 178, 1, 0.76077
222, 3, wb, filler, NA, 999, 999, 3, 24, 187, 79, 87, 132, 145, 178, 3, 0.257074
222, 3, wb, filler, NA, 999, 999, 3, 25, 94, 69, 168, 56, 165, 115, 1, 1.18818
222, 3, wb, filler, NA, 999, 999, 3, 25, 94, 69, 168, 56, 165, 115, 3, 0.603207
222, 3, wb, filler, NA, 999, 999, 3, 26, 68, 77, 154, 129, 133, 146, 1, 0.488909
222, 3, wb, filler, NA, 999, 999, 3, 26, 68, 77, 154, 129, 133, 146, 2, 0.644071
222, 3, wb, attraction, a-b-db, 5, 3, 3, 27, 117, 190, 120, 195, 195, 120, 3, 1.11987
222, 3, wb, attraction, a-b-db, 5, 3, 3, 27, 117, 190, 120, 195, 195, 120, 2, 0.762134
222, 3, wb, attraction, a-b-da, 14, 2, 3, 28, 90, 165, 165, 90, 153, 83, 2, 1.85721
222, 3, wb, attraction, a-b-da, 14, 2, 3, 28, 90, 165, 165, 90, 153, 83, 3, 0.565323
222, 3, wb, attraction, a-b-da, 9, 2, 3, 29, 90, 165, 165, 90, 157, 86, 1, 0.812375
222, 3, wb, attraction, a-b-da, 9, 2, 3, 29, 90, 165, 165, 90, 157, 86, 3, 1.19474
222, 3, wb, attraction, a-b-db, 2, 2, 3, 30, 165, 90, 89, 163, 90, 165, 1, 0.672423
222, 3, wb, attraction, a-b-db, 2, 2, 3, 30, 165, 90, 89, 163, 90, 165, 2, 0.308081
222, 3, wb, attraction, a-b-db, 14, 2, 3, 31, 83, 153, 90, 165, 165, 90, 3, 1.03726
222, 3, wb, attraction, a-b-db, 14, 2, 3, 31, 83, 153, 90, 165, 165, 90, 1, 0.826893
222, 3, wb, filler, NA, 999, 999, 3, 32, 110, 150, 141, 160, 95, 56, 3, 0.839317
222, 3, wb, filler, NA, 999, 999, 3, 32, 110, 150, 141, 160, 95, 56, 2, 0.268292
222, 3, wb, attraction, a-b-da, 2, 3, 3, 33, 195, 120, 120, 195, 193, 119, 3, 1.87152
222, 3, wb, attraction, a-b-da, 2, 3, 3, 33, 195, 120, 120, 195, 193, 119, 2, 0.746893
222, 3, wb, filler, NA, 999, 999, 3, 34, 58, 169, 66, 121, 133, 113, 2, 3.13048
222, 3, wb, filler, NA, 999, 999, 3, 34, 58, 169, 66, 121, 133, 113, 3, 0.283628
222, 3, wb, attraction, a-b-db, 2, 3, 3, 35, 195, 120, 119, 193, 120, 195, 3, 3.70212
222, 3, wb, attraction, a-b-db, 2, 3, 3, 35, 195, 120, 119, 193, 120, 195, 2, 0.864295
222, 3, wb, filler, NA, 999, 999, 3, 36, 149, 171, 180, 150, 194, 158, 1, 2.36324
222, 3, wb, filler, NA, 999, 999, 3, 36, 149, 171, 180, 150, 194, 158, 2, 0.283161
222, 3, wb, attraction, a-b-db, 9, 2, 3, 37, 86, 157, 165, 90, 90, 165, 1, 0.67776
222, 3, wb, attraction, a-b-db, 9, 2, 3, 37, 86, 157, 165, 90, 90, 165, 2, 0.617413
222, 3, wb, attraction, a-b-da, 9, 1, 4, 1, 135, 60, 60, 135, 129, 57, 2, 1.15055
222, 3, wb, attraction, a-b-da, 9, 1, 4, 1, 135, 60, 60, 135, 129, 57, 1, 0.359511
222, 3, wb, attraction, a-b-db, 2, 2, 4, 2, 90, 165, 89, 163, 165, 90, 2, 0.966656
222, 3, wb, attraction, a-b-db, 2, 2, 4, 2, 90, 165, 89, 163, 165, 90, 3, 0.983023
222, 3, wb, attraction, a-b-da, 9, 2, 4, 3, 165, 90, 157, 86, 90, 165, 3, 3.71728
222, 3, wb, attraction, a-b-da, 9, 2, 4, 3, 165, 90, 157, 86, 90, 165, 1, 1.59876
222, 3, wb, attraction, a-b-db, 5, 1, 4, 4, 58, 132, 60, 135, 135, 60, 1, 0.996395
222, 3, wb, attraction, a-b-db, 5, 1, 4, 4, 58, 132, 60, 135, 135, 60, 2, 0.779154
222, 3, wb, attraction, a-b-db, 5, 3, 4, 5, 120, 195, 195, 120, 117, 190, 2, 1.2655
222, 3, wb, attraction, a-b-db, 5, 3, 4, 5, 120, 195, 195, 120, 117, 190, 3, 0.32578
222, 3, wb, attraction, a-b-db, 14, 2, 4, 6, 90, 165, 165, 90, 83, 153, 3, 1.68637
222, 3, wb, attraction, a-b-db, 14, 2, 4, 6, 90, 165, 165, 90, 83, 153, 1, 1.14573
222, 3, wb, attraction, a-b-db, 2, 3, 4, 7, 120, 195, 195, 120, 119, 193, 2, 3.00142
222, 3, wb, attraction, a-b-db, 2, 3, 4, 7, 120, 195, 195, 120, 119, 193, 1, 0.263735
222, 3, wb, catch, NA, 999, 999, 4, 8, 141, 174, 119, 76, 97, 158, 2, 3.65086
222, 3, wb, catch, NA, 999, 999, 4, 8, 141, 174, 119, 76, 97, 158, 1, 0.518975
222, 3, wb, filler, NA, 999, 999, 4, 9, 195, 75, 57, 70, 169, 72, 2, 0.744263
222, 3, wb, filler, NA, 999, 999, 4, 9, 195, 75, 57, 70, 169, 72, 1, 0.385283
222, 3, wb, filler, NA, 999, 999, 4, 10, 188, 109, 152, 145, 119, 99, 3, 1.42376
222, 3, wb, filler, NA, 999, 999, 4, 10, 188, 109, 152, 145, 119, 99, 2, 0.717244
222, 3, wb, attraction, a-b-da, 14, 1, 4, 11, 125, 56, 135, 60, 60, 135, 2, 1.43042
222, 3, wb, attraction, a-b-da, 14, 1, 4, 11, 125, 56, 135, 60, 60, 135, 3, 0.659938
222, 3, wb, filler, NA, 999, 999, 4, 12, 109, 139, 142, 145, 171, 190, 1, 0.686945
222, 3, wb, filler, NA, 999, 999, 4, 12, 109, 139, 142, 145, 171, 190, 3, 0.402852
222, 3, wb, attraction, a-b-da, 9, 3, 4, 13, 195, 120, 120, 195, 186, 114, 2, 0.824536
222, 3, wb, attraction, a-b-da, 9, 3, 4, 13, 195, 120, 120, 195, 186, 114, 1, 0.278279
222, 3, wb, attraction, a-b-db, 14, 3, 4, 14, 111, 181, 195, 120, 120, 195, 1, 1.76874
222, 3, wb, attraction, a-b-db, 14, 3, 4, 14, 111, 181, 195, 120, 120, 195, 2, 1.52077
222, 3, wb, attraction, a-b-db, 2, 1, 4, 15, 59, 134, 60, 135, 135, 60, 1, 0.85764
222, 3, wb, attraction, a-b-db, 2, 1, 4, 15, 59, 134, 60, 135, 135, 60, 2, 0.630017
222, 3, wb, attraction, a-b-da, 2, 3, 4, 16, 195, 120, 193, 119, 120, 195, 3, 2.37038
222, 3, wb, attraction, a-b-da, 2, 3, 4, 16, 195, 120, 193, 119, 120, 195, 2, 0.706268
222, 3, wb, attraction, a-b-db, 9, 2, 4, 17, 86, 157, 165, 90, 90, 165, 1, 1.45209
222, 3, wb, attraction, a-b-db, 9, 2, 4, 17, 86, 157, 165, 90, 90, 165, 3, 0.59293
222, 3, wb, filler, NA, 999, 999, 4, 18, 103, 187, 140, 60, 193, 109, 2, 0.974642
222, 3, wb, filler, NA, 999, 999, 4, 18, 103, 187, 140, 60, 193, 109, 3, 0.398399
222, 3, wb, attraction, a-b-da, 14, 3, 4, 19, 181, 111, 120, 195, 195, 120, 1, 1.30003
222, 3, wb, attraction, a-b-da, 14, 3, 4, 19, 181, 111, 120, 195, 195, 120, 2, 0.351043
222, 3, wb, attraction, a-b-da, 2, 1, 4, 20, 134, 59, 135, 60, 60, 135, 2, 1.17483
222, 3, wb, attraction, a-b-da, 2, 1, 4, 20, 134, 59, 135, 60, 60, 135, 1, 0.39043
222, 3, wb, attraction, a-b-db, 5, 2, 4, 21, 165, 90, 90, 165, 88, 161, 3, 1.00423
222, 3, wb, attraction, a-b-db, 5, 2, 4, 21, 165, 90, 90, 165, 88, 161, 1, 0.547298
222, 3, wb, attraction, a-b-da, 5, 2, 4, 22, 161, 88, 165, 90, 90, 165, 3, 1.65907
222, 3, wb, attraction, a-b-da, 5, 2, 4, 22, 161, 88, 165, 90, 90, 165, 2, 0.559145
222, 3, wb, filler, NA, 999, 999, 4, 23, 108, 166, 177, 177, 121, 132, 1, 3.97431
222, 3, wb, filler, NA, 999, 999, 4, 23, 108, 166, 177, 177, 121, 132, 2, 0.477109
222, 3, wb, catch, NA, 999, 999, 4, 24, 157, 158, 93, 102, 165, 90, 2, 0.919402
222, 3, wb, catch, NA, 999, 999, 4, 24, 157, 158, 93, 102, 165, 90, 1, 0.361765
222, 3, wb, filler, NA, 999, 999, 4, 25, 94, 75, 195, 124, 101, 97, 1, 1.95295
222, 3, wb, filler, NA, 999, 999, 4, 25, 94, 75, 195, 124, 101, 97, 2, 0.345663
222, 3, wb, attraction, a-b-da, 5, 3, 4, 26, 195, 120, 120, 195, 190, 117, 3, 3.10553
222, 3, wb, attraction, a-b-da, 5, 3, 4, 26, 195, 120, 120, 195, 190, 117, 2, 0.259141
222, 3, wb, catch, NA, 999, 999, 4, 27, 132, 183, 93, 102, 161, 94, 2, 0.926355
222, 3, wb, catch, NA, 999, 999, 4, 27, 132, 183, 93, 102, 161, 94, 1, 0.400053
222, 3, wb, filler, NA, 999, 999, 4, 28, 188, 191, 152, 74, 175, 80, 2, 0.965871
222, 3, wb, filler, NA, 999, 999, 4, 28, 188, 191, 152, 74, 175, 80, 1, 0.630242
222, 3, wb, attraction, a-b-da, 2, 2, 4, 29, 163, 89, 90, 165, 165, 90, 1, 2.65859
222, 3, wb, attraction, a-b-da, 2, 2, 4, 29, 163, 89, 90, 165, 165, 90, 2, 1.05459
222, 3, wb, attraction, a-b-db, 14, 1, 4, 30, 135, 60, 60, 135, 56, 125, 3, 1.306
222, 3, wb, attraction, a-b-db, 14, 1, 4, 30, 135, 60, 60, 135, 56, 125, 1, 0.452242
222, 3, wb, attraction, a-b-db, 9, 3, 4, 31, 120, 195, 195, 120, 114, 186, 3, 1.44804
222, 3, wb, attraction, a-b-db, 9, 3, 4, 31, 120, 195, 195, 120, 114, 186, 2, 0.341079
222, 3, wb, filler, NA, 999, 999, 4, 32, 96, 103, 107, 84, 120, 167, 1, 1.22888
222, 3, wb, filler, NA, 999, 999, 4, 32, 96, 103, 107, 84, 120, 167, 3, 0.794335
222, 3, wb, attraction, a-b-da, 5, 1, 4, 33, 135, 60, 60, 135, 132, 58, 3, 2.69607
222, 3, wb, attraction, a-b-da, 5, 1, 4, 33, 135, 60, 60, 135, 132, 58, 1, 0.56256
222, 3, wb, filler, NA, 999, 999, 4, 34, 139, 86, 78, 195, 133, 121, 2, 2.9936
222, 3, wb, filler, NA, 999, 999, 4, 34, 139, 86, 78, 195, 133, 121, 3, 0.647979
222, 3, wb, attraction, a-b-da, 14, 2, 4, 35, 165, 90, 153, 83, 90, 165, 2, 1.68371
222, 3, wb, attraction, a-b-da, 14, 2, 4, 35, 165, 90, 153, 83, 90, 165, 1, 0.455147
222, 3, wb, filler, NA, 999, 999, 4, 36, 105, 80, 87, 178, 152, 86, 1, 1.23495
222, 3, wb, filler, NA, 999, 999, 4, 36, 105, 80, 87, 178, 152, 86, 2, 0.488503
222, 3, wb, attraction, a-b-db, 9, 1, 4, 37, 57, 129, 60, 135, 135, 60, 1, 3.45101
222, 3, wb, attraction, a-b-db, 9, 1, 4, 37, 57, 129, 60, 135, 135, 60, 2, 0.599209
222, 3, wb, attraction, a-b-da, 5, 3, 5, 1, 195, 120, 120, 195, 190, 117, 3, 10.6676
222, 3, wb, attraction, a-b-da, 5, 3, 5, 1, 195, 120, 120, 195, 190, 117, 2, 0.300845
222, 3, wb, attraction, a-b-db, 5, 1, 5, 2, 58, 132, 60, 135, 135, 60, 1, 2.15075
222, 3, wb, attraction, a-b-db, 5, 1, 5, 2, 58, 132, 60, 135, 135, 60, 3, 0.583354
222, 3, wb, attraction, a-b-da, 2, 1, 5, 3, 60, 135, 135, 60, 134, 59, 1, 2.49388
222, 3, wb, attraction, a-b-da, 2, 1, 5, 3, 60, 135, 135, 60, 134, 59, 2, 0.472293
222, 3, wb, attraction, a-b-da, 14, 3, 5, 4, 195, 120, 181, 111, 120, 195, 2, 1.21949
222, 3, wb, attraction, a-b-da, 14, 3, 5, 4, 195, 120, 181, 111, 120, 195, 3, 0.321739
222, 3, wb, attraction, a-b-db, 2, 2, 5, 5, 165, 90, 90, 165, 89, 163, 2, 0.738959
222, 3, wb, attraction, a-b-db, 2, 2, 5, 5, 165, 90, 90, 165, 89, 163, 1, 0.283945
222, 3, wb, filler, NA, 999, 999, 5, 6, 186, 182, 91, 122, 136, 91, 2, 0.598457
222, 3, wb, filler, NA, 999, 999, 5, 6, 186, 182, 91, 122, 136, 91, 1, 0.253598
222, 3, wb, attraction, a-b-da, 9, 2, 5, 7, 90, 165, 165, 90, 157, 86, 1, 6.94541
222, 3, wb, attraction, a-b-da, 9, 2, 5, 7, 90, 165, 165, 90, 157, 86, 2, 0.712595
222, 3, wb, filler, NA, 999, 999, 5, 8, 108, 98, 176, 120, 80, 154, 1, 0.865565
222, 3, wb, filler, NA, 999, 999, 5, 8, 108, 98, 176, 120, 80, 154, 2, 0.246102
222, 3, wb, filler, NA, 999, 999, 5, 9, 99, 174, 166, 79, 107, 162, 2, 1.0819
222, 3, wb, filler, NA, 999, 999, 5, 9, 99, 174, 166, 79, 107, 162, 3, 0.26962
222, 3, wb, attraction, a-b-da, 5, 2, 5, 10, 90, 165, 161, 88, 165, 90, 1, 1.33672
222, 3, wb, attraction, a-b-da, 5, 2, 5, 10, 90, 165, 161, 88, 165, 90, 2, 1.22622
222, 3, wb, filler, NA, 999, 999, 5, 11, 118, 59, 131, 124, 112, 59, 1, 0.550563
222, 3, wb, filler, NA, 999, 999, 5, 11, 118, 59, 131, 124, 112, 59, 2, 0.791612
222, 3, wb, attraction, a-b-da, 14, 2, 5, 12, 153, 83, 165, 90, 90, 165, 1, 1.20545
222, 3, wb, attraction, a-b-da, 14, 2, 5, 12, 153, 83, 165, 90, 90, 165, 2, 0.635613
222, 3, wb, attraction, a-b-db, 5, 2, 5, 13, 88, 161, 90, 165, 165, 90, 3, 1.19203
222, 3, wb, attraction, a-b-db, 5, 2, 5, 13, 88, 161, 90, 165, 165, 90, 2, 0.758929
222, 3, wb, catch, NA, 999, 999, 5, 14, 147, 108, 188, 127, 108, 87, 1, 0.709993
222, 3, wb, catch, NA, 999, 999, 5, 14, 147, 108, 188, 127, 108, 87, 2, 0.592383
222, 3, wb, catch, NA, 999, 999, 5, 15, 64, 131, 159, 156, 163, 92, 1, 0.974256
222, 3, wb, catch, NA, 999, 999, 5, 15, 64, 131, 159, 156, 163, 92, 2, 0.245985
222, 3, wb, attraction, a-b-da, 9, 3, 5, 16, 120, 195, 195, 120, 186, 114, 3, 1.16984
222, 3, wb, attraction, a-b-da, 9, 3, 5, 16, 120, 195, 195, 120, 186, 114, 1, 0.63404
222, 3, wb, attraction, a-b-da, 2, 2, 5, 17, 90, 165, 163, 89, 165, 90, 2, 1.15836
222, 3, wb, attraction, a-b-da, 2, 2, 5, 17, 90, 165, 163, 89, 165, 90, 3, 0.694672
222, 3, wb, attraction, a-b-db, 14, 1, 5, 18, 135, 60, 60, 135, 56, 125, 3, 1.61729
222, 3, wb, attraction, a-b-db, 14, 1, 5, 18, 135, 60, 60, 135, 56, 125, 1, 0.958391
222, 3, wb, attraction, a-b-db, 9, 1, 5, 19, 60, 135, 57, 129, 135, 60, 3, 2.04562
222, 3, wb, attraction, a-b-db, 9, 1, 5, 19, 60, 135, 57, 129, 135, 60, 1, 1.02618
222, 3, wb, filler, NA, 999, 999, 5, 20, 178, 102, 151, 172, 172, 78, 3, 2.14236
222, 3, wb, filler, NA, 999, 999, 5, 20, 178, 102, 151, 172, 172, 78, 2, 0.559081
222, 3, wb, attraction, a-b-da, 14, 1, 5, 21, 60, 135, 135, 60, 125, 56, 3, 2.43026
222, 3, wb, attraction, a-b-da, 14, 1, 5, 21, 60, 135, 135, 60, 125, 56, 1, 0.507403
222, 3, wb, filler, NA, 999, 999, 5, 22, 140, 113, 183, 103, 97, 184, 1, 3.73251
222, 3, wb, filler, NA, 999, 999, 5, 22, 140, 113, 183, 103, 97, 184, 2, 0.213265
222, 3, wb, attraction, a-b-da, 5, 1, 5, 23, 135, 60, 60, 135, 132, 58, 3, 6.1146
222, 3, wb, attraction, a-b-da, 5, 1, 5, 23, 135, 60, 60, 135, 132, 58, 2, 0.299211
222, 3, wb, attraction, a-b-db, 2, 1, 5, 24, 60, 135, 135, 60, 59, 134, 1, 1.47718
222, 3, wb, attraction, a-b-db, 2, 1, 5, 24, 60, 135, 135, 60, 59, 134, 2, 0.360712
222, 3, wb, attraction, a-b-db, 14, 3, 5, 25, 195, 120, 120, 195, 111, 181, 3, 2.92784
222, 3, wb, attraction, a-b-db, 14, 3, 5, 25, 195, 120, 120, 195, 111, 181, 2, 0.360876
222, 3, wb, attraction, a-b-db, 5, 3, 5, 26, 195, 120, 120, 195, 117, 190, 3, 1.74406
222, 3, wb, attraction, a-b-db, 5, 3, 5, 26, 195, 120, 120, 195, 117, 190, 1, 0.42477
222, 3, wb, attraction, a-b-db, 14, 2, 5, 27, 90, 165, 165, 90, 83, 153, 3, 3.90926
222, 3, wb, attraction, a-b-db, 14, 2, 5, 27, 90, 165, 165, 90, 83, 153, 2, 0.335122
222, 3, wb, attraction, a-b-db, 2, 3, 5, 28, 120, 195, 195, 120, 119, 193, 1, 1.75916
222, 3, wb, attraction, a-b-db, 2, 3, 5, 28, 120, 195, 195, 120, 119, 193, 3, 0.279162
222, 3, wb, attraction, a-b-da, 2, 3, 5, 29, 120, 195, 193, 119, 195, 120, 1, 4.25782
222, 3, wb, attraction, a-b-da, 2, 3, 5, 29, 120, 195, 193, 119, 195, 120, 2, 0.48504
222, 3, wb, catch, NA, 999, 999, 5, 30, 128, 187, 65, 130, 142, 113, 2, 1.00749
222, 3, wb, catch, NA, 999, 999, 5, 30, 128, 187, 65, 130, 142, 113, 1, 0.485845
222, 3, wb, attraction, a-b-db, 9, 2, 5, 31, 86, 157, 90, 165, 165, 90, 1, 0.888301
222, 3, wb, attraction, a-b-db, 9, 2, 5, 31, 86, 157, 90, 165, 165, 90, 3, 0.827427
222, 3, wb, filler, NA, 999, 999, 5, 32, 63, 86, 85, 127, 135, 85, 1, 0.847645
222, 3, wb, filler, NA, 999, 999, 5, 32, 63, 86, 85, 127, 135, 85, 3, 1.66875
222, 3, wb, filler, NA, 999, 999, 5, 33, 103, 141, 186, 186, 132, 96, 1, 0.879397
222, 3, wb, filler, NA, 999, 999, 5, 33, 103, 141, 186, 186, 132, 96, 2, 0.283134
222, 3, wb, filler, NA, 999, 999, 5, 34, 124, 146, 157, 86, 145, 162, 2, 1.10164
222, 3, wb, filler, NA, 999, 999, 5, 34, 124, 146, 157, 86, 145, 162, 3, 0.272744
222, 3, wb, filler, NA, 999, 999, 5, 35, 157, 192, 90, 119, 78, 141, 2, 0.779801
222, 3, wb, filler, NA, 999, 999, 5, 35, 157, 192, 90, 119, 78, 141, 1, 0.26753
222, 3, wb, attraction, a-b-da, 9, 1, 5, 36, 129, 57, 135, 60, 60, 135, 1, 1.43878
222, 3, wb, attraction, a-b-da, 9, 1, 5, 36, 129, 57, 135, 60, 60, 135, 3, 0.259689
222, 3, wb, attraction, a-b-db, 9, 3, 5, 37, 120, 195, 114, 186, 195, 120, 2, 1.13475
222, 3, wb, attraction, a-b-db, 9, 3, 5, 37, 120, 195, 114, 186, 195, 120, 3, 0.312458
222, 3, wb, catch, NA, 999, 999, 6, 1, 154, 101, 175, 140, 94, 101, 3, 0.865833
222, 3, wb, catch, NA, 999, 999, 6, 1, 154, 101, 175, 140, 94, 101, 2, 0.677977
222, 3, wb, attraction, a-b-db, 2, 1, 6, 2, 135, 60, 60, 135, 59, 134, 2, 5.24037
222, 3, wb, attraction, a-b-db, 2, 1, 6, 2, 135, 60, 60, 135, 59, 134, 1, 0.86001
222, 3, wb, attraction, a-b-db, 5, 3, 6, 3, 120, 195, 195, 120, 117, 190, 2, 3.02309
222, 3, wb, attraction, a-b-db, 5, 3, 6, 3, 120, 195, 195, 120, 117, 190, 3, 0.228138
222, 3, wb, filler, NA, 999, 999, 6, 4, 151, 133, 140, 95, 104, 76, 3, 0.792701
222, 3, wb, filler, NA, 999, 999, 6, 4, 151, 133, 140, 95, 104, 76, 1, 0.255644
222, 3, wb, catch, NA, 999, 999, 6, 5, 98, 157, 162, 153, 134, 61, 3, 0.651537
222, 3, wb, catch, NA, 999, 999, 6, 5, 98, 157, 162, 153, 134, 61, 2, 0.352663
222, 3, wb, attraction, a-b-da, 9, 2, 6, 6, 157, 86, 90, 165, 165, 90, 1, 2.30444
222, 3, wb, attraction, a-b-da, 9, 2, 6, 6, 157, 86, 90, 165, 165, 90, 2, 0.267145
222, 3, wb, attraction, a-b-da, 14, 3, 6, 7, 181, 111, 120, 195, 195, 120, 1, 1.71028
222, 3, wb, attraction, a-b-da, 14, 3, 6, 7, 181, 111, 120, 195, 195, 120, 3, 0.432456
222, 3, wb, attraction, a-b-db, 14, 2, 6, 8, 165, 90, 83, 153, 90, 165, 2, 0.876818
222, 3, wb, attraction, a-b-db, 14, 2, 6, 8, 165, 90, 83, 153, 90, 165, 3, 0.720561
222, 3, wb, attraction, a-b-da, 9, 3, 6, 9, 120, 195, 186, 114, 195, 120, 2, 2.48974
222, 3, wb, attraction, a-b-da, 9, 3, 6, 9, 120, 195, 186, 114, 195, 120, 3, 0.668021
222, 3, wb, attraction, a-b-da, 5, 3, 6, 10, 190, 117, 120, 195, 195, 120, 1, 2.31118
222, 3, wb, attraction, a-b-da, 5, 3, 6, 10, 190, 117, 120, 195, 195, 120, 2, 0.313061
222, 3, wb, attraction, a-b-db, 9, 2, 6, 11, 90, 165, 165, 90, 86, 157, 1, 1.3543
222, 3, wb, attraction, a-b-db, 9, 2, 6, 11, 90, 165, 165, 90, 86, 157, 2, 0.491091
222, 3, wb, attraction, a-b-da, 5, 2, 6, 12, 161, 88, 90, 165, 165, 90, 3, 1.60485
222, 3, wb, attraction, a-b-da, 5, 2, 6, 12, 161, 88, 90, 165, 165, 90, 2, 0.475059
222, 3, wb, filler, NA, 999, 999, 6, 13, 133, 175, 182, 107, 77, 185, 3, 1.07772
222, 3, wb, filler, NA, 999, 999, 6, 13, 133, 175, 182, 107, 77, 185, 1, 0.473137
222, 3, wb, attraction, a-b-da, 2, 3, 6, 14, 120, 195, 193, 119, 195, 120, 2, 7.30034
222, 3, wb, attraction, a-b-da, 2, 3, 6, 14, 120, 195, 193, 119, 195, 120, 3, 0.32525
222, 3, wb, catch, NA, 999, 999, 6, 15, 78, 117, 102, 153, 155, 160, 1, 0.645836
222, 3, wb, catch, NA, 999, 999, 6, 15, 78, 117, 102, 153, 155, 160, 3, 0.32305
222, 3, wb, attraction, a-b-db, 14, 3, 6, 16, 120, 195, 111, 181, 195, 120, 2, 1.52402
222, 3, wb, attraction, a-b-db, 14, 3, 6, 16, 120, 195, 111, 181, 195, 120, 3, 0.573629
222, 3, wb, attraction, a-b-db, 9, 3, 6, 17, 114, 186, 195, 120, 120, 195, 1, 5.89207
222, 3, wb, attraction, a-b-db, 9, 3, 6, 17, 114, 186, 195, 120, 120, 195, 2, 0.365509
222, 3, wb, filler, NA, 999, 999, 6, 18, 148, 194, 104, 181, 104, 130, 3, 0.788648
222, 3, wb, filler, NA, 999, 999, 6, 18, 148, 194, 104, 181, 104, 130, 1, 0.403715
222, 3, wb, filler, NA, 999, 999, 6, 19, 77, 162, 125, 62, 83, 167, 1, 2.35346
222, 3, wb, filler, NA, 999, 999, 6, 19, 77, 162, 125, 62, 83, 167, 3, 0.354045
222, 3, wb, attraction, a-b-db, 2, 2, 6, 20, 90, 165, 89, 163, 165, 90, 1, 1.13004
222, 3, wb, attraction, a-b-db, 2, 2, 6, 20, 90, 165, 89, 163, 165, 90, 3, 0.827623
222, 3, wb, filler, NA, 999, 999, 6, 21, 166, 119, 193, 180, 178, 129, 1, 0.743885
222, 3, wb, filler, NA, 999, 999, 6, 21, 166, 119, 193, 180, 178, 129, 2, 0.328905
222, 3, wb, attraction, a-b-db, 5, 1, 6, 22, 58, 132, 135, 60, 60, 135, 2, 1.26543
222, 3, wb, attraction, a-b-db, 5, 1, 6, 22, 58, 132, 135, 60, 60, 135, 1, 0.301671
222, 3, wb, filler, NA, 999, 999, 6, 23, 189, 163, 113, 139, 93, 115, 3, 0.823535
222, 3, wb, filler, NA, 999, 999, 6, 23, 189, 163, 113, 139, 93, 115, 1, 0.309383
222, 3, wb, filler, NA, 999, 999, 6, 24, 148, 96, 193, 167, 151, 78, 1, 1.03848
222, 3, wb, filler, NA, 999, 999, 6, 24, 148, 96, 193, 167, 151, 78, 2, 0.443367
222, 3, wb, filler, NA, 999, 999, 6, 25, 184, 160, 113, 89, 112, 173, 2, 0.759155
222, 3, wb, filler, NA, 999, 999, 6, 25, 184, 160, 113, 89, 112, 173, 1, 0.287624
222, 3, wb, filler, NA, 999, 999, 6, 26, 115, 107, 181, 160, 195, 77, 1, 0.810153
222, 3, wb, filler, NA, 999, 999, 6, 26, 115, 107, 181, 160, 195, 77, 2, 0.336604
222, 3, wb, attraction, a-b-da, 14, 2, 6, 27, 90, 165, 153, 83, 165, 90, 3, 2.43316
222, 3, wb, attraction, a-b-da, 14, 2, 6, 27, 90, 165, 153, 83, 165, 90, 1, 0.630329
222, 3, wb, attraction, a-b-da, 9, 1, 6, 28, 135, 60, 60, 135, 129, 57, 2, 2.05069
222, 3, wb, attraction, a-b-da, 9, 1, 6, 28, 135, 60, 60, 135, 129, 57, 1, 0.679463
222, 3, wb, attraction, a-b-db, 5, 2, 6, 29, 88, 161, 165, 90, 90, 165, 2, 1.50572
222, 3, wb, attraction, a-b-db, 5, 2, 6, 29, 88, 161, 165, 90, 90, 165, 1, 0.291901
222, 3, wb, attraction, a-b-da, 14, 1, 6, 30, 60, 135, 135, 60, 125, 56, 3, 1.35782
222, 3, wb, attraction, a-b-da, 14, 1, 6, 30, 60, 135, 135, 60, 125, 56, 1, 0.398006
222, 3, wb, attraction, a-b-da, 5, 1, 6, 31, 132, 58, 135, 60, 60, 135, 1, 11.4678
222, 3, wb, attraction, a-b-da, 5, 1, 6, 31, 132, 58, 135, 60, 60, 135, 3, 0.493037
222, 3, wb, attraction, a-b-da, 2, 2, 6, 32, 90, 165, 165, 90, 163, 89, 3, 3.75066
222, 3, wb, attraction, a-b-da, 2, 2, 6, 32, 90, 165, 165, 90, 163, 89, 1, 0.3827
222, 3, wb, attraction, a-b-db, 14, 1, 6, 33, 60, 135, 56, 125, 135, 60, 2, 0.973284
222, 3, wb, attraction, a-b-db, 14, 1, 6, 33, 60, 135, 56, 125, 135, 60, 1, 1.08495
222, 3, wb, attraction, a-b-db, 2, 3, 6, 34, 119, 193, 195, 120, 120, 195, 2, 2.22321
222, 3, wb, attraction, a-b-db, 2, 3, 6, 34, 119, 193, 195, 120, 120, 195, 1, 0.276667
222, 3, wb, attraction, a-b-da, 2, 1, 6, 35, 135, 60, 134, 59, 60, 135, 2, 0.831076
222, 3, wb, attraction, a-b-da, 2, 1, 6, 35, 135, 60, 134, 59, 60, 135, 3, 1.88471
222, 3, wb, filler, NA, 999, 999, 6, 36, 169, 124, 170, 118, 182, 68, 3, 0.670773
222, 3, wb, filler, NA, 999, 999, 6, 36, 169, 124, 170, 118, 182, 68, 2, 0.658514
222, 3, wb, attraction, a-b-db, 9, 1, 6, 37, 60, 135, 135, 60, 57, 129, 1, 2.1655
222, 3, wb, attraction, a-b-db, 9, 1, 6, 37, 60, 135, 135, 60, 57, 129, 2, 0.701464
222, 3, wb, attraction, a-b-db, 9, 1, 7, 1, 135, 60, 60, 135, 57, 129, 3, 1.10321
222, 3, wb, attraction, a-b-db, 9, 1, 7, 1, 135, 60, 60, 135, 57, 129, 2, 1.03425
222, 3, wb, filler, NA, 999, 999, 7, 2, 114, 65, 116, 96, 150, 185, 1, 0.750467
222, 3, wb, filler, NA, 999, 999, 7, 2, 114, 65, 116, 96, 150, 185, 3, 0.631581
222, 3, wb, attraction, a-b-da, 9, 2, 7, 3, 90, 165, 165, 90, 157, 86, 3, 2.64402
222, 3, wb, attraction, a-b-da, 9, 2, 7, 3, 90, 165, 165, 90, 157, 86, 1, 0.352416
222, 3, wb, attraction, a-b-db, 5, 3, 7, 4, 120, 195, 117, 190, 195, 120, 3, 1.9683
222, 3, wb, attraction, a-b-db, 5, 3, 7, 4, 120, 195, 117, 190, 195, 120, 1, 0.688298
222, 3, wb, attraction, a-b-da, 5, 1, 7, 5, 135, 60, 60, 135, 132, 58, 3, 3.71485
222, 3, wb, attraction, a-b-da, 5, 1, 7, 5, 135, 60, 60, 135, 132, 58, 1, 2.13224
222, 3, wb, catch, NA, 999, 999, 7, 6, 75, 120, 157, 98, 124, 191, 1, 0.996214
222, 3, wb, catch, NA, 999, 999, 7, 6, 75, 120, 157, 98, 124, 191, 3, 0.475083
222, 3, wb, attraction, a-b-da, 2, 2, 7, 7, 163, 89, 165, 90, 90, 165, 1, 2.30166
222, 3, wb, attraction, a-b-da, 2, 2, 7, 7, 163, 89, 165, 90, 90, 165, 3, 0.648101
222, 3, wb, attraction, a-b-db, 5, 1, 7, 8, 60, 135, 135, 60, 58, 132, 3, 1.7
222, 3, wb, attraction, a-b-db, 5, 1, 7, 8, 60, 135, 135, 60, 58, 132, 1, 0.798721
222, 3, wb, attraction, a-b-da, 2, 3, 7, 9, 120, 195, 193, 119, 195, 120, 3, 2.82039
222, 3, wb, attraction, a-b-da, 2, 3, 7, 9, 120, 195, 193, 119, 195, 120, 2, 1.83424
222, 3, wb, attraction, a-b-db, 2, 2, 7, 10, 165, 90, 90, 165, 89, 163, 1, 2.95019
222, 3, wb, attraction, a-b-db, 2, 2, 7, 10, 165, 90, 90, 165, 89, 163, 2, 0.422716
222, 3, wb, filler, NA, 999, 999, 7, 11, 117, 88, 92, 116, 126, 85, 1, 6.72362
222, 3, wb, filler, NA, 999, 999, 7, 11, 117, 88, 92, 116, 126, 85, 3, 1.01976
222, 3, wb, filler, NA, 999, 999, 7, 12, 181, 169, 143, 134, 193, 138, 2, 1.13656
222, 3, wb, filler, NA, 999, 999, 7, 12, 181, 169, 143, 134, 193, 138, 1, 0.354108
222, 3, wb, catch, NA, 999, 999, 7, 13, 146, 109, 76, 119, 162, 153, 2, 0.962013
222, 3, wb, catch, NA, 999, 999, 7, 13, 146, 109, 76, 119, 162, 153, 3, 0.45033
222, 3, wb, attraction, a-b-da, 9, 1, 7, 14, 129, 57, 60, 135, 135, 60, 1, 1.65416
222, 3, wb, attraction, a-b-da, 9, 1, 7, 14, 129, 57, 60, 135, 135, 60, 2, 0.659072
222, 3, wb, filler, NA, 999, 999, 7, 15, 82, 59, 128, 58, 126, 66, 1, 0.949987
222, 3, wb, filler, NA, 999, 999, 7, 15, 82, 59, 128, 58, 126, 66, 3, 0.726977
222, 3, wb, attraction, a-b-db, 9, 3, 7, 16, 114, 186, 120, 195, 195, 120, 1, 2.25549
222, 3, wb, attraction, a-b-db, 9, 3, 7, 16, 114, 186, 120, 195, 195, 120, 2, 0.787417
222, 3, wb, attraction, a-b-da, 14, 1, 7, 17, 60, 135, 125, 56, 135, 60, 2, 2.66572
222, 3, wb, attraction, a-b-da, 14, 1, 7, 17, 60, 135, 125, 56, 135, 60, 3, 0.5015
222, 3, wb, attraction, a-b-da, 2, 1, 7, 18, 60, 135, 135, 60, 134, 59, 3, 2.71132
222, 3, wb, attraction, a-b-da, 2, 1, 7, 18, 60, 135, 135, 60, 134, 59, 2, 0.55313
222, 3, wb, attraction, a-b-da, 14, 2, 7, 19, 153, 83, 165, 90, 90, 165, 1, 0.840879
222, 3, wb, attraction, a-b-da, 14, 2, 7, 19, 153, 83, 165, 90, 90, 165, 2, 0.598006
222, 3, wb, attraction, a-b-db, 5, 2, 7, 20, 88, 161, 165, 90, 90, 165, 2, 1.61173
222, 3, wb, attraction, a-b-db, 5, 2, 7, 20, 88, 161, 165, 90, 90, 165, 3, 0.529766
222, 3, wb, attraction, a-b-db, 2, 1, 7, 21, 60, 135, 135, 60, 59, 134, 1, 1.17837
222, 3, wb, attraction, a-b-db, 2, 1, 7, 21, 60, 135, 135, 60, 59, 134, 3, 0.425876
222, 3, wb, filler, NA, 999, 999, 7, 22, 104, 178, 158, 181, 86, 63, 3, 0.822255
222, 3, wb, filler, NA, 999, 999, 7, 22, 104, 178, 158, 181, 86, 63, 2, 0.315954
222, 3, wb, filler, NA, 999, 999, 7, 23, 132, 145, 104, 68, 71, 120, 1, 0.67712
222, 3, wb, filler, NA, 999, 999, 7, 23, 132, 145, 104, 68, 71, 120, 2, 4.76088
222, 3, wb, catch, NA, 999, 999, 7, 24, 126, 189, 164, 91, 121, 74, 3, 1.2627
222, 3, wb, catch, NA, 999, 999, 7, 24, 126, 189, 164, 91, 121, 74, 1, 0.338946
222, 3, wb, attraction, a-b-db, 14, 1, 7, 25, 135, 60, 56, 125, 60, 135, 3, 3.39535
222, 3, wb, attraction, a-b-db, 14, 1, 7, 25, 135, 60, 56, 125, 60, 135, 1, 0.561771
222, 3, wb, filler, NA, 999, 999, 7, 26, 128, 136, 177, 132, 80, 137, 3, 1.11279
222, 3, wb, filler, NA, 999, 999, 7, 26, 128, 136, 177, 132, 80, 137, 2, 0.347207
222, 3, wb, attraction, a-b-da, 5, 3, 7, 27, 195, 120, 120, 195, 190, 117, 2, 1.63493
222, 3, wb, attraction, a-b-da, 5, 3, 7, 27, 195, 120, 120, 195, 190, 117, 1, 1.08049
222, 3, wb, attraction, a-b-db, 14, 2, 7, 28, 90, 165, 165, 90, 83, 153, 3, 2.0427
222, 3, wb, attraction, a-b-db, 14, 2, 7, 28, 90, 165, 165, 90, 83, 153, 2, 0.311354
222, 3, wb, attraction, a-b-db, 9, 2, 7, 29, 86, 157, 90, 165, 165, 90, 1, 1.88046
222, 3, wb, attraction, a-b-db, 9, 2, 7, 29, 86, 157, 90, 165, 165, 90, 3, 1.15603
222, 3, wb, filler, NA, 999, 999, 7, 30, 76, 118, 130, 171, 110, 56, 3, 1.41943
222, 3, wb, filler, NA, 999, 999, 7, 30, 76, 118, 130, 171, 110, 56, 2, 0.345708
222, 3, wb, attraction, a-b-db, 14, 3, 7, 31, 120, 195, 195, 120, 111, 181, 3, 1.41751
222, 3, wb, attraction, a-b-db, 14, 3, 7, 31, 120, 195, 195, 120, 111, 181, 2, 0.743744
222, 3, wb, attraction, a-b-da, 5, 2, 7, 32, 90, 165, 165, 90, 161, 88, 3, 1.7194
222, 3, wb, attraction, a-b-da, 5, 2, 7, 32, 90, 165, 165, 90, 161, 88, 1, 0.449574
222, 3, wb, attraction, a-b-da, 9, 3, 7, 33, 120, 195, 195, 120, 186, 114, 3, 3.25335
222, 3, wb, attraction, a-b-da, 9, 3, 7, 33, 120, 195, 195, 120, 186, 114, 1, 1.04167
222, 3, wb, attraction, a-b-db, 2, 3, 7, 34, 120, 195, 119, 193, 195, 120, 2, 30.9012
222, 3, wb, attraction, a-b-db, 2, 3, 7, 34, 120, 195, 119, 193, 195, 120, 3, 0.583005
222, 3, wb, attraction, a-b-da, 14, 3, 7, 35, 120, 195, 195, 120, 181, 111, 3, 1.53338
222, 3, wb, attraction, a-b-da, 14, 3, 7, 35, 120, 195, 195, 120, 181, 111, 1, 0.286766
222, 3, wb, filler, NA, 999, 999, 7, 36, 180, 187, 184, 166, 188, 76, 3, 0.529431
222, 3, wb, filler, NA, 999, 999, 7, 36, 180, 187, 184, 166, 188, 76, 1, 0.523169
222, 3, wb, filler, NA, 999, 999, 7, 37, 178, 148, 166, 165, 102, 94, 3, 0.548323
222, 3, wb, filler, NA, 999, 999, 7, 37, 178, 148, 166, 165, 102, 94, 2, 1.13347
222, 3, wb, filler, NA, 999, 999, 8, 1, 189, 118, 60, 131, 104, 135, 2, 0.861657
222, 3, wb, filler, NA, 999, 999, 8, 1, 189, 118, 60, 131, 104, 135, 1, 0.641984
222, 3, wb, attraction, a-b-da, 2, 1, 8, 2, 135, 60, 134, 59, 60, 135, 3, 1.38172
222, 3, wb, attraction, a-b-da, 2, 1, 8, 2, 135, 60, 134, 59, 60, 135, 2, 0.493331
222, 3, wb, attraction, a-b-db, 14, 1, 8, 3, 60, 135, 135, 60, 56, 125, 3, 1.61527
222, 3, wb, attraction, a-b-db, 14, 1, 8, 3, 60, 135, 135, 60, 56, 125, 2, 0.293222
222, 3, wb, filler, NA, 999, 999, 8, 4, 176, 152, 121, 160, 97, 68, 3, 0.671087
222, 3, wb, filler, NA, 999, 999, 8, 4, 176, 152, 121, 160, 97, 68, 1, 0.651558
222, 3, wb, attraction, a-b-db, 9, 1, 8, 5, 57, 129, 60, 135, 135, 60, 1, 1.33525
222, 3, wb, attraction, a-b-db, 9, 1, 8, 5, 57, 129, 60, 135, 135, 60, 3, 0.752849
222, 3, wb, attraction, a-b-db, 14, 3, 8, 6, 111, 181, 120, 195, 195, 120, 2, 2.68052
222, 3, wb, attraction, a-b-db, 14, 3, 8, 6, 111, 181, 120, 195, 195, 120, 3, 0.323628
222, 3, wb, catch, NA, 999, 999, 8, 7, 170, 145, 97, 98, 165, 90, 2, 0.660167
222, 3, wb, catch, NA, 999, 999, 8, 7, 170, 145, 97, 98, 165, 90, 1, 0.208601
222, 3, wb, attraction, a-b-db, 5, 2, 8, 8, 165, 90, 90, 165, 88, 161, 1, 2.06186
222, 3, wb, attraction, a-b-db, 5, 2, 8, 8, 165, 90, 90, 165, 88, 161, 2, 0.321734
222, 3, wb, attraction, a-b-db, 2, 1, 8, 9, 59, 134, 60, 135, 135, 60, 3, 2.97089
222, 3, wb, attraction, a-b-db, 2, 1, 8, 9, 59, 134, 60, 135, 135, 60, 2, 0.56272
222, 3, wb, attraction, a-b-da, 5, 2, 8, 10, 161, 88, 165, 90, 90, 165, 1, 1.90579
222, 3, wb, attraction, a-b-da, 5, 2, 8, 10, 161, 88, 165, 90, 90, 165, 3, 0.667922
222, 3, wb, attraction, a-b-da, 14, 2, 8, 11, 165, 90, 153, 83, 90, 165, 1, 1.17501
222, 3, wb, attraction, a-b-da, 14, 2, 8, 11, 165, 90, 153, 83, 90, 165, 3, 0.542486
222, 3, wb, attraction, a-b-da, 14, 3, 8, 12, 195, 120, 181, 111, 120, 195, 2, 1.97422
222, 3, wb, attraction, a-b-da, 14, 3, 8, 12, 195, 120, 181, 111, 120, 195, 1, 0.349661
222, 3, wb, attraction, a-b-da, 2, 2, 8, 13, 165, 90, 163, 89, 90, 165, 1, 1.17351
222, 3, wb, attraction, a-b-da, 2, 2, 8, 13, 165, 90, 163, 89, 90, 165, 2, 0.541071
222, 3, wb, attraction, a-b-da, 9, 2, 8, 14, 165, 90, 157, 86, 90, 165, 1, 1.60486
222, 3, wb, attraction, a-b-da, 9, 2, 8, 14, 165, 90, 157, 86, 90, 165, 3, 0.35566
222, 3, wb, catch, NA, 999, 999, 8, 15, 182, 133, 158, 97, 124, 71, 3, 0.819488
222, 3, wb, catch, NA, 999, 999, 8, 15, 182, 133, 158, 97, 124, 71, 1, 0.330012
222, 3, wb, attraction, a-b-da, 14, 1, 8, 16, 125, 56, 135, 60, 60, 135, 1, 1.31445
222, 3, wb, attraction, a-b-da, 14, 1, 8, 16, 125, 56, 135, 60, 60, 135, 3, 0.372732
222, 3, wb, filler, NA, 999, 999, 8, 17, 158, 111, 68, 186, 187, 121, 1, 1.21978
222, 3, wb, filler, NA, 999, 999, 8, 17, 158, 111, 68, 186, 187, 121, 3, 0.578221
222, 3, wb, attraction, a-b-db, 2, 2, 8, 18, 165, 90, 90, 165, 89, 163, 3, 2.20045
222, 3, wb, attraction, a-b-db, 2, 2, 8, 18, 165, 90, 90, 165, 89, 163, 1, 0.575101
222, 3, wb, attraction, a-b-da, 5, 1, 8, 19, 60, 135, 135, 60, 132, 58, 3, 3.53349
222, 3, wb, attraction, a-b-da, 5, 1, 8, 19, 60, 135, 135, 60, 132, 58, 1, 0.310401
222, 3, wb, attraction, a-b-da, 9, 1, 8, 20, 135, 60, 129, 57, 60, 135, 2, 1.19956
222, 3, wb, attraction, a-b-da, 9, 1, 8, 20, 135, 60, 129, 57, 60, 135, 3, 0.358479
222, 3, wb, attraction, a-b-db, 5, 1, 8, 21, 60, 135, 135, 60, 58, 132, 1, 1.54956
222, 3, wb, attraction, a-b-db, 5, 1, 8, 21, 60, 135, 135, 60, 58, 132, 2, 0.310553
222, 3, wb, filler, NA, 999, 999, 8, 22, 58, 107, 126, 85, 88, 159, 1, 1.15963
222, 3, wb, filler, NA, 999, 999, 8, 22, 58, 107, 126, 85, 88, 159, 3, 0.407874
222, 3, wb, attraction, a-b-db, 14, 2, 8, 23, 165, 90, 90, 165, 83, 153, 3, 1.49311
222, 3, wb, attraction, a-b-db, 14, 2, 8, 23, 165, 90, 90, 165, 83, 153, 2, 1.01596
222, 3, wb, attraction, a-b-db, 9, 3, 8, 24, 195, 120, 120, 195, 114, 186, 3, 1.98086
222, 3, wb, attraction, a-b-db, 9, 3, 8, 24, 195, 120, 120, 195, 114, 186, 2, 0.876252
222, 3, wb, filler, NA, 999, 999, 8, 25, 111, 154, 70, 72, 194, 144, 2, 0.926628
222, 3, wb, filler, NA, 999, 999, 8, 25, 111, 154, 70, 72, 194, 144, 3, 0.272214
222, 3, wb, attraction, a-b-da, 9, 3, 8, 26, 195, 120, 186, 114, 120, 195, 2, 2.35539
222, 3, wb, attraction, a-b-da, 9, 3, 8, 26, 195, 120, 186, 114, 120, 195, 1, 0.547318
222, 3, wb, filler, NA, 999, 999, 8, 27, 99, 174, 66, 78, 155, 184, 2, 0.683062
222, 3, wb, filler, NA, 999, 999, 8, 27, 99, 174, 66, 78, 155, 184, 3, 0.24686
222, 3, wb, filler, NA, 999, 999, 8, 28, 75, 145, 137, 95, 71, 177, 1, 2.71475
222, 3, wb, filler, NA, 999, 999, 8, 28, 75, 145, 137, 95, 71, 177, 2, 0.436486
222, 3, wb, attraction, a-b-da, 5, 3, 8, 29, 120, 195, 190, 117, 195, 120, 3, 3.67293
222, 3, wb, attraction, a-b-da, 5, 3, 8, 29, 120, 195, 190, 117, 195, 120, 1, 0.659787
222, 3, wb, attraction, a-b-db, 2, 3, 8, 30, 120, 195, 119, 193, 195, 120, 3, 2.6709
222, 3, wb, attraction, a-b-db, 2, 3, 8, 30, 120, 195, 119, 193, 195, 120, 1, 0.434668
222, 3, wb, attraction, a-b-db, 9, 2, 8, 31, 165, 90, 90, 165, 86, 157, 1, 4.14312
222, 3, wb, attraction, a-b-db, 9, 2, 8, 31, 165, 90, 90, 165, 86, 157, 2, 0.503101
222, 3, wb, attraction, a-b-da, 2, 3, 8, 32, 120, 195, 195, 120, 193, 119, 3, 1.52906
222, 3, wb, attraction, a-b-da, 2, 3, 8, 32, 120, 195, 195, 120, 193, 119, 1, 0.898425
222, 3, wb, filler, NA, 999, 999, 8, 33, 68, 120, 122, 163, 188, 97, 1, 0.716267
222, 3, wb, filler, NA, 999, 999, 8, 33, 68, 120, 122, 163, 188, 97, 2, 0.430537
222, 3, wb, catch, NA, 999, 999, 8, 34, 133, 62, 90, 165, 164, 151, 1, 0.674972
222, 3, wb, catch, NA, 999, 999, 8, 34, 133, 62, 90, 165, 164, 151, 3, 0.750818
222, 3, wb, attraction, a-b-db, 5, 3, 8, 35, 117, 190, 195, 120, 120, 195, 3, 1.39842
222, 3, wb, attraction, a-b-db, 5, 3, 8, 35, 117, 190, 195, 120, 120, 195, 1, 1.22144
222, 3, wb, filler, NA, 999, 999, 8, 36, 152, 179, 173, 120, 164, 142, 2, 0.714245
222, 3, wb, filler, NA, 999, 999, 8, 36, 152, 179, 173, 120, 164, 142, 1, 0.61276
222, 3, wb, filler, NA, 999, 999, 8, 37, 163, 182, 167, 71, 64, 76, 3, 0.801735
222, 3, wb, filler, NA, 999, 999, 8, 37, 163, 182, 167, 71, 64, 76, 1, 0.344764
