sub_n, computer_n, bw_cond, effect, set, distance, diag, block_n, trial_n, h1, w1, h2, w2, h3, w3, choice, rt 
36, 3, wb, practice, NA, 999, 999, 0, 1, 94, 171, 177, 128, 182, 138, 1, 2.05698
36, 3, wb, practice, NA, 999, 999, 0, 1, 94, 171, 177, 128, 182, 138, 3, 2.17237
36, 3, wb, practice, NA, 999, 999, 0, 2, 167, 73, 58, 122, 181, 98, 2, 1.67788
36, 3, wb, practice, NA, 999, 999, 0, 2, 167, 73, 58, 122, 181, 98, 3, 0.986873
36, 3, wb, practice, NA, 999, 999, 0, 3, 133, 153, 66, 80, 185, 95, 2, 1.20015
36, 3, wb, practice, NA, 999, 999, 0, 3, 133, 153, 66, 80, 185, 95, 1, 1.83795
36, 3, wb, filler, NA, 999, 999, 1, 1, 166, 147, 133, 186, 169, 57, 3, 1.78295
36, 3, wb, filler, NA, 999, 999, 1, 1, 166, 147, 133, 186, 169, 57, 2, 1.11821
36, 3, wb, filler, NA, 999, 999, 1, 2, 156, 56, 182, 156, 139, 149, 1, 1.82324
36, 3, wb, filler, NA, 999, 999, 1, 2, 156, 56, 182, 156, 139, 149, 2, 1.42053
36, 3, wb, attraction, a-b-da, 5, 3, 1, 3, 190, 117, 195, 120, 120, 195, 1, 2.44136
36, 3, wb, attraction, a-b-da, 5, 3, 1, 3, 190, 117, 195, 120, 120, 195, 2, 1.09384
36, 3, wb, attraction, a-b-db, 5, 2, 1, 4, 88, 161, 90, 165, 165, 90, 3, 2.94352
36, 3, wb, attraction, a-b-db, 5, 2, 1, 4, 88, 161, 90, 165, 165, 90, 2, 0.631875
36, 3, wb, catch, NA, 999, 999, 1, 5, 106, 89, 188, 127, 92, 163, 1, 1.37239
36, 3, wb, catch, NA, 999, 999, 1, 5, 106, 89, 188, 127, 92, 163, 2, 1.16384
36, 3, wb, attraction, a-b-db, 9, 3, 1, 6, 195, 120, 120, 195, 114, 186, 1, 1.94673
36, 3, wb, attraction, a-b-db, 9, 3, 1, 6, 195, 120, 120, 195, 114, 186, 2, 1.22744
36, 3, wb, filler, NA, 999, 999, 1, 7, 183, 117, 69, 120, 112, 132, 2, 0.967583
36, 3, wb, filler, NA, 999, 999, 1, 7, 183, 117, 69, 120, 112, 132, 1, 0.52002
36, 3, wb, attraction, a-b-db, 2, 1, 1, 8, 60, 135, 59, 134, 135, 60, 3, 4.64904
36, 3, wb, attraction, a-b-db, 2, 1, 1, 8, 60, 135, 59, 134, 135, 60, 1, 0.492954
36, 3, wb, attraction, a-b-da, 9, 1, 1, 9, 60, 135, 135, 60, 129, 57, 3, 1.52676
36, 3, wb, attraction, a-b-da, 9, 1, 1, 9, 60, 135, 135, 60, 129, 57, 1, 1.76823
36, 3, wb, attraction, a-b-da, 2, 1, 1, 10, 134, 59, 60, 135, 135, 60, 1, 1.99096
36, 3, wb, attraction, a-b-da, 2, 1, 1, 10, 134, 59, 60, 135, 135, 60, 2, 0.66982
36, 3, wb, attraction, a-b-db, 2, 3, 1, 11, 120, 195, 195, 120, 119, 193, 2, 2.14469
36, 3, wb, attraction, a-b-db, 2, 3, 1, 11, 120, 195, 195, 120, 119, 193, 3, 1.36134
36, 3, wb, attraction, a-b-da, 2, 2, 1, 12, 163, 89, 90, 165, 165, 90, 1, 1.6482
36, 3, wb, attraction, a-b-da, 2, 2, 1, 12, 163, 89, 90, 165, 165, 90, 2, 0.565026
36, 3, wb, attraction, a-b-da, 2, 3, 1, 13, 195, 120, 193, 119, 120, 195, 1, 2.40407
36, 3, wb, attraction, a-b-da, 2, 3, 1, 13, 195, 120, 193, 119, 120, 195, 3, 0.730833
36, 3, wb, catch, NA, 999, 999, 1, 14, 182, 133, 91, 104, 148, 107, 2, 1.02702
36, 3, wb, catch, NA, 999, 999, 1, 14, 182, 133, 91, 104, 148, 107, 1, 0.464642
36, 3, wb, filler, NA, 999, 999, 1, 15, 87, 192, 157, 138, 114, 89, 3, 1.66779
36, 3, wb, filler, NA, 999, 999, 1, 15, 87, 192, 157, 138, 114, 89, 2, 0.759889
36, 3, wb, attraction, a-b-da, 5, 1, 1, 16, 135, 60, 60, 135, 132, 58, 1, 1.21502
36, 3, wb, attraction, a-b-da, 5, 1, 1, 16, 135, 60, 60, 135, 132, 58, 2, 0.453169
36, 3, wb, attraction, a-b-db, 9, 1, 1, 17, 60, 135, 57, 129, 135, 60, 1, 2.13705
36, 3, wb, attraction, a-b-db, 9, 1, 1, 17, 60, 135, 57, 129, 135, 60, 3, 1.61833
36, 3, wb, attraction, a-b-da, 14, 2, 1, 18, 153, 83, 90, 165, 165, 90, 1, 1.12717
36, 3, wb, attraction, a-b-da, 14, 2, 1, 18, 153, 83, 90, 165, 165, 90, 2, 0.480858
36, 3, wb, attraction, a-b-da, 14, 3, 1, 19, 120, 195, 195, 120, 181, 111, 3, 1.45919
36, 3, wb, attraction, a-b-da, 14, 3, 1, 19, 120, 195, 195, 120, 181, 111, 1, 0.695351
36, 3, wb, attraction, a-b-db, 5, 3, 1, 20, 120, 195, 195, 120, 117, 190, 1, 1.20117
36, 3, wb, attraction, a-b-db, 5, 3, 1, 20, 120, 195, 195, 120, 117, 190, 2, 0.839991
36, 3, wb, attraction, a-b-db, 9, 2, 1, 21, 165, 90, 90, 165, 86, 157, 1, 2.22041
36, 3, wb, attraction, a-b-db, 9, 2, 1, 21, 165, 90, 90, 165, 86, 157, 2, 2.05033
36, 3, wb, filler, NA, 999, 999, 1, 22, 149, 80, 66, 70, 131, 149, 2, 1.61366
36, 3, wb, filler, NA, 999, 999, 1, 22, 149, 80, 66, 70, 131, 149, 3, 0.483775
36, 3, wb, attraction, a-b-db, 14, 3, 1, 23, 195, 120, 120, 195, 111, 181, 3, 2.82228
36, 3, wb, attraction, a-b-db, 14, 3, 1, 23, 195, 120, 120, 195, 111, 181, 2, 1.49149
36, 3, wb, catch, NA, 999, 999, 1, 24, 108, 87, 165, 150, 139, 116, 1, 1.08477
36, 3, wb, catch, NA, 999, 999, 1, 24, 108, 87, 165, 150, 139, 116, 2, 0.760438
36, 3, wb, filler, NA, 999, 999, 1, 25, 117, 119, 184, 129, 187, 80, 1, 3.05555
36, 3, wb, filler, NA, 999, 999, 1, 25, 117, 119, 184, 129, 187, 80, 2, 1.09112
36, 3, wb, filler, NA, 999, 999, 1, 26, 128, 121, 134, 99, 78, 154, 3, 3.44474
36, 3, wb, filler, NA, 999, 999, 1, 26, 128, 121, 134, 99, 78, 154, 1, 0.840918
36, 3, wb, attraction, a-b-da, 9, 2, 1, 27, 90, 165, 157, 86, 165, 90, 2, 2.6847
36, 3, wb, attraction, a-b-da, 9, 2, 1, 27, 90, 165, 157, 86, 165, 90, 1, 2.84785
36, 3, wb, attraction, a-b-db, 5, 1, 1, 28, 60, 135, 135, 60, 58, 132, 2, 5.54678
36, 3, wb, attraction, a-b-db, 5, 1, 1, 28, 60, 135, 135, 60, 58, 132, 1, 0.730373
36, 3, wb, attraction, a-b-db, 2, 2, 1, 29, 89, 163, 90, 165, 165, 90, 3, 5.64289
36, 3, wb, attraction, a-b-db, 2, 2, 1, 29, 89, 163, 90, 165, 165, 90, 2, 0.982219
36, 3, wb, filler, NA, 999, 999, 1, 30, 72, 153, 177, 154, 85, 58, 3, 1.62862
36, 3, wb, filler, NA, 999, 999, 1, 30, 72, 153, 177, 154, 85, 58, 2, 0.586177
36, 3, wb, attraction, a-b-da, 9, 3, 1, 31, 195, 120, 186, 114, 120, 195, 3, 4.6485
36, 3, wb, attraction, a-b-da, 9, 3, 1, 31, 195, 120, 186, 114, 120, 195, 1, 0.924304
36, 3, wb, attraction, a-b-da, 14, 1, 1, 32, 125, 56, 60, 135, 135, 60, 1, 3.01268
36, 3, wb, attraction, a-b-da, 14, 1, 1, 32, 125, 56, 60, 135, 135, 60, 2, 2.31444
36, 3, wb, filler, NA, 999, 999, 1, 33, 154, 83, 153, 145, 159, 63, 3, 1.37117
36, 3, wb, filler, NA, 999, 999, 1, 33, 154, 83, 153, 145, 159, 63, 2, 0.474558
36, 3, wb, filler, NA, 999, 999, 1, 34, 106, 135, 85, 169, 112, 57, 3, 0.884903
36, 3, wb, filler, NA, 999, 999, 1, 34, 106, 135, 85, 169, 112, 57, 1, 0.648654
36, 3, wb, attraction, a-b-db, 14, 2, 1, 35, 90, 165, 83, 153, 165, 90, 3, 1.10044
36, 3, wb, attraction, a-b-db, 14, 2, 1, 35, 90, 165, 83, 153, 165, 90, 1, 0.447413
36, 3, wb, attraction, a-b-db, 14, 1, 1, 36, 135, 60, 60, 135, 56, 125, 3, 2.32313
36, 3, wb, attraction, a-b-db, 14, 1, 1, 36, 135, 60, 60, 135, 56, 125, 1, 0.396358
36, 3, wb, attraction, a-b-da, 5, 2, 1, 37, 165, 90, 90, 165, 161, 88, 3, 1.2422
36, 3, wb, attraction, a-b-da, 5, 2, 1, 37, 165, 90, 90, 165, 161, 88, 2, 0.335158
36, 3, wb, attraction, a-b-db, 14, 2, 2, 1, 90, 165, 165, 90, 83, 153, 3, 1.65564
36, 3, wb, attraction, a-b-db, 14, 2, 2, 1, 90, 165, 165, 90, 83, 153, 2, 0.579758
36, 3, wb, attraction, a-b-db, 5, 1, 2, 2, 135, 60, 58, 132, 60, 135, 2, 2.01811
36, 3, wb, attraction, a-b-db, 5, 1, 2, 2, 135, 60, 58, 132, 60, 135, 3, 1.24816
36, 3, wb, attraction, a-b-db, 2, 2, 2, 3, 165, 90, 89, 163, 90, 165, 3, 2.10768
36, 3, wb, attraction, a-b-db, 2, 2, 2, 3, 165, 90, 89, 163, 90, 165, 2, 0.733716
36, 3, wb, catch, NA, 999, 999, 2, 4, 120, 195, 113, 142, 118, 77, 3, 2.22218
36, 3, wb, catch, NA, 999, 999, 2, 4, 120, 195, 113, 142, 118, 77, 1, 0.515464
36, 3, wb, filler, NA, 999, 999, 2, 5, 140, 173, 94, 187, 84, 137, 3, 0.756581
36, 3, wb, filler, NA, 999, 999, 2, 5, 140, 173, 94, 187, 84, 137, 1, 0.532865
36, 3, wb, catch, NA, 999, 999, 2, 6, 87, 108, 125, 190, 102, 153, 1, 1.24531
36, 3, wb, catch, NA, 999, 999, 2, 6, 87, 108, 125, 190, 102, 153, 2, 0.410223
36, 3, wb, attraction, a-b-da, 5, 2, 2, 7, 90, 165, 165, 90, 161, 88, 3, 3.43947
36, 3, wb, attraction, a-b-da, 5, 2, 2, 7, 90, 165, 165, 90, 161, 88, 1, 0.331628
36, 3, wb, attraction, a-b-da, 5, 1, 2, 8, 135, 60, 132, 58, 60, 135, 1, 2.19606
36, 3, wb, attraction, a-b-da, 5, 1, 2, 8, 135, 60, 132, 58, 60, 135, 3, 0.362688
36, 3, wb, attraction, a-b-da, 2, 3, 2, 9, 193, 119, 120, 195, 195, 120, 1, 2.28196
36, 3, wb, attraction, a-b-da, 2, 3, 2, 9, 193, 119, 120, 195, 195, 120, 2, 0.589263
36, 3, wb, catch, NA, 999, 999, 2, 10, 178, 137, 149, 106, 121, 74, 3, 0.675585
36, 3, wb, catch, NA, 999, 999, 2, 10, 178, 137, 149, 106, 121, 74, 1, 0.719373
36, 3, wb, filler, NA, 999, 999, 2, 11, 178, 91, 138, 98, 172, 127, 1, 2.4724
36, 3, wb, filler, NA, 999, 999, 2, 11, 178, 91, 138, 98, 172, 127, 3, 0.363603
36, 3, wb, attraction, a-b-db, 5, 2, 2, 12, 88, 161, 90, 165, 165, 90, 3, 2.16282
36, 3, wb, attraction, a-b-db, 5, 2, 2, 12, 88, 161, 90, 165, 165, 90, 2, 0.338741
36, 3, wb, attraction, a-b-db, 14, 3, 2, 13, 120, 195, 195, 120, 111, 181, 3, 1.41928
36, 3, wb, attraction, a-b-db, 14, 3, 2, 13, 120, 195, 195, 120, 111, 181, 2, 0.665386
36, 3, wb, filler, NA, 999, 999, 2, 14, 183, 168, 119, 191, 116, 70, 3, 0.796441
36, 3, wb, filler, NA, 999, 999, 2, 14, 183, 168, 119, 191, 116, 70, 1, 0.475579
36, 3, wb, attraction, a-b-da, 14, 1, 2, 15, 125, 56, 60, 135, 135, 60, 1, 1.86212
36, 3, wb, attraction, a-b-da, 14, 1, 2, 15, 125, 56, 60, 135, 135, 60, 2, 1.07416
36, 3, wb, attraction, a-b-da, 9, 3, 2, 16, 195, 120, 120, 195, 186, 114, 3, 0.940294
36, 3, wb, attraction, a-b-da, 9, 3, 2, 16, 195, 120, 120, 195, 186, 114, 2, 0.805473
36, 3, wb, filler, NA, 999, 999, 2, 17, 175, 125, 161, 70, 170, 152, 2, 5.09105
36, 3, wb, filler, NA, 999, 999, 2, 17, 175, 125, 161, 70, 170, 152, 3, 1.12474
36, 3, wb, attraction, a-b-db, 9, 2, 2, 18, 86, 157, 90, 165, 165, 90, 1, 5.34907
36, 3, wb, attraction, a-b-db, 9, 2, 2, 18, 86, 157, 90, 165, 165, 90, 2, 1.31658
36, 3, wb, filler, NA, 999, 999, 2, 19, 122, 88, 59, 188, 112, 72, 3, 1.09365
36, 3, wb, filler, NA, 999, 999, 2, 19, 122, 88, 59, 188, 112, 72, 2, 1.36849
36, 3, wb, filler, NA, 999, 999, 2, 20, 141, 90, 195, 143, 171, 150, 1, 2.05533
36, 3, wb, filler, NA, 999, 999, 2, 20, 141, 90, 195, 143, 171, 150, 2, 0.491437
36, 3, wb, attraction, a-b-da, 9, 1, 2, 21, 60, 135, 129, 57, 135, 60, 2, 1.40524
36, 3, wb, attraction, a-b-da, 9, 1, 2, 21, 60, 135, 129, 57, 135, 60, 1, 0.411275
36, 3, wb, attraction, a-b-db, 5, 3, 2, 22, 195, 120, 117, 190, 120, 195, 1, 1.89647
36, 3, wb, attraction, a-b-db, 5, 3, 2, 22, 195, 120, 117, 190, 120, 195, 3, 0.603226
36, 3, wb, attraction, a-b-da, 14, 2, 2, 23, 165, 90, 90, 165, 153, 83, 3, 2.11302
36, 3, wb, attraction, a-b-da, 14, 2, 2, 23, 165, 90, 90, 165, 153, 83, 1, 0.683015
36, 3, wb, attraction, a-b-db, 9, 1, 2, 24, 135, 60, 57, 129, 60, 135, 1, 1.12535
36, 3, wb, attraction, a-b-db, 9, 1, 2, 24, 135, 60, 57, 129, 60, 135, 3, 0.887784
36, 3, wb, attraction, a-b-db, 2, 3, 2, 25, 119, 193, 120, 195, 195, 120, 1, 2.02531
36, 3, wb, attraction, a-b-db, 2, 3, 2, 25, 119, 193, 120, 195, 195, 120, 2, 1.19067
36, 3, wb, filler, NA, 999, 999, 2, 26, 86, 180, 164, 177, 130, 98, 3, 1.2361
36, 3, wb, filler, NA, 999, 999, 2, 26, 86, 180, 164, 177, 130, 98, 2, 0.409766
36, 3, wb, attraction, a-b-db, 14, 1, 2, 27, 135, 60, 60, 135, 56, 125, 1, 0.886869
36, 3, wb, attraction, a-b-db, 14, 1, 2, 27, 135, 60, 60, 135, 56, 125, 2, 0.618553
36, 3, wb, attraction, a-b-da, 5, 3, 2, 28, 120, 195, 190, 117, 195, 120, 3, 1.8557
36, 3, wb, attraction, a-b-da, 5, 3, 2, 28, 120, 195, 190, 117, 195, 120, 1, 0.50769
36, 3, wb, attraction, a-b-db, 2, 1, 2, 29, 60, 135, 59, 134, 135, 60, 3, 1.66089
36, 3, wb, attraction, a-b-db, 2, 1, 2, 29, 60, 135, 59, 134, 135, 60, 1, 0.401088
36, 3, wb, attraction, a-b-da, 14, 3, 2, 30, 120, 195, 195, 120, 181, 111, 3, 0.9668
36, 3, wb, attraction, a-b-da, 14, 3, 2, 30, 120, 195, 195, 120, 181, 111, 1, 0.519124
36, 3, wb, attraction, a-b-db, 9, 3, 2, 31, 120, 195, 114, 186, 195, 120, 3, 1.05623
36, 3, wb, attraction, a-b-db, 9, 3, 2, 31, 120, 195, 114, 186, 195, 120, 2, 0.940575
36, 3, wb, attraction, a-b-da, 2, 1, 2, 32, 60, 135, 135, 60, 134, 59, 1, 0.780185
36, 3, wb, attraction, a-b-da, 2, 1, 2, 32, 60, 135, 135, 60, 134, 59, 2, 0.643924
36, 3, wb, filler, NA, 999, 999, 2, 33, 116, 95, 88, 147, 74, 75, 3, 1.29568
36, 3, wb, filler, NA, 999, 999, 2, 33, 116, 95, 88, 147, 74, 75, 2, 0.474501
36, 3, wb, attraction, a-b-da, 2, 2, 2, 34, 165, 90, 90, 165, 163, 89, 1, 1.18897
36, 3, wb, attraction, a-b-da, 2, 2, 2, 34, 165, 90, 90, 165, 163, 89, 2, 0.683915
36, 3, wb, attraction, a-b-da, 9, 2, 2, 35, 90, 165, 165, 90, 157, 86, 3, 1.66246
36, 3, wb, attraction, a-b-da, 9, 2, 2, 35, 90, 165, 165, 90, 157, 86, 1, 0.41847
36, 3, wb, filler, NA, 999, 999, 2, 36, 110, 188, 94, 123, 140, 187, 2, 0.983543
36, 3, wb, filler, NA, 999, 999, 2, 36, 110, 188, 94, 123, 140, 187, 3, 0.351265
36, 3, wb, filler, NA, 999, 999, 2, 37, 94, 190, 162, 149, 115, 131, 3, 1.15108
36, 3, wb, filler, NA, 999, 999, 2, 37, 94, 190, 162, 149, 115, 131, 2, 0.304003
36, 3, wb, attraction, a-b-db, 5, 1, 3, 1, 135, 60, 60, 135, 58, 132, 3, 3.06597
36, 3, wb, attraction, a-b-db, 5, 1, 3, 1, 135, 60, 60, 135, 58, 132, 1, 0.82158
36, 3, wb, attraction, a-b-db, 2, 1, 3, 2, 135, 60, 59, 134, 60, 135, 3, 2.63464
36, 3, wb, attraction, a-b-db, 2, 1, 3, 2, 135, 60, 59, 134, 60, 135, 1, 0.415808
36, 3, wb, attraction, a-b-db, 9, 2, 3, 3, 90, 165, 86, 157, 165, 90, 1, 9.46089
36, 3, wb, attraction, a-b-db, 9, 2, 3, 3, 90, 165, 86, 157, 165, 90, 2, 0.342585
36, 3, wb, attraction, a-b-db, 5, 2, 3, 4, 90, 165, 165, 90, 88, 161, 1, 0.830354
36, 3, wb, attraction, a-b-db, 5, 2, 3, 4, 90, 165, 165, 90, 88, 161, 2, 0.324189
36, 3, wb, attraction, a-b-db, 9, 1, 3, 5, 57, 129, 135, 60, 60, 135, 3, 0.828677
36, 3, wb, attraction, a-b-db, 9, 1, 3, 5, 57, 129, 135, 60, 60, 135, 2, 0.322353
36, 3, wb, attraction, a-b-da, 9, 3, 3, 6, 186, 114, 195, 120, 120, 195, 3, 1.49153
36, 3, wb, attraction, a-b-da, 9, 3, 3, 6, 186, 114, 195, 120, 120, 195, 1, 0.574464
36, 3, wb, filler, NA, 999, 999, 3, 7, 118, 78, 95, 100, 151, 191, 1, 1.75695
36, 3, wb, filler, NA, 999, 999, 3, 7, 118, 78, 95, 100, 151, 191, 3, 0.404998
36, 3, wb, attraction, a-b-da, 14, 3, 3, 8, 195, 120, 181, 111, 120, 195, 2, 1.63471
36, 3, wb, attraction, a-b-da, 14, 3, 3, 8, 195, 120, 181, 111, 120, 195, 1, 0.512091
36, 3, wb, filler, NA, 999, 999, 3, 9, 132, 73, 60, 146, 177, 183, 1, 1.24938
36, 3, wb, filler, NA, 999, 999, 3, 9, 132, 73, 60, 146, 177, 183, 3, 0.35816
36, 3, wb, catch, NA, 999, 999, 3, 10, 160, 155, 81, 114, 157, 98, 2, 1.03747
36, 3, wb, catch, NA, 999, 999, 3, 10, 160, 155, 81, 114, 157, 98, 1, 0.362938
36, 3, wb, attraction, a-b-da, 9, 2, 3, 11, 157, 86, 90, 165, 165, 90, 1, 0.874267
36, 3, wb, attraction, a-b-da, 9, 2, 3, 11, 157, 86, 90, 165, 165, 90, 2, 0.57393
36, 3, wb, attraction, a-b-db, 2, 2, 3, 12, 89, 163, 165, 90, 90, 165, 3, 0.812327
36, 3, wb, attraction, a-b-db, 2, 2, 3, 12, 89, 163, 165, 90, 90, 165, 1, 0.77863
36, 3, wb, filler, NA, 999, 999, 3, 13, 114, 73, 69, 58, 58, 94, 2, 1.10515
36, 3, wb, filler, NA, 999, 999, 3, 13, 114, 73, 69, 58, 58, 94, 1, 0.523274
36, 3, wb, attraction, a-b-da, 2, 1, 3, 14, 60, 135, 135, 60, 134, 59, 3, 1.76448
36, 3, wb, attraction, a-b-da, 2, 1, 3, 14, 60, 135, 135, 60, 134, 59, 1, 0.380536
36, 3, wb, filler, NA, 999, 999, 3, 15, 122, 67, 89, 92, 61, 62, 3, 0.827134
36, 3, wb, filler, NA, 999, 999, 3, 15, 122, 67, 89, 92, 61, 62, 2, 0.384746
36, 3, wb, filler, NA, 999, 999, 3, 16, 143, 84, 191, 184, 192, 132, 1, 1.25527
36, 3, wb, filler, NA, 999, 999, 3, 16, 143, 84, 191, 184, 192, 132, 2, 0.419483
36, 3, wb, attraction, a-b-db, 14, 2, 3, 17, 83, 153, 90, 165, 165, 90, 1, 1.12071
36, 3, wb, attraction, a-b-db, 14, 2, 3, 17, 83, 153, 90, 165, 165, 90, 2, 0.383036
36, 3, wb, catch, NA, 999, 999, 3, 18, 80, 115, 159, 156, 161, 94, 1, 0.657385
36, 3, wb, catch, NA, 999, 999, 3, 18, 80, 115, 159, 156, 161, 94, 2, 0.341962
36, 3, wb, attraction, a-b-db, 5, 3, 3, 19, 120, 195, 195, 120, 117, 190, 3, 1.0778
36, 3, wb, attraction, a-b-db, 5, 3, 3, 19, 120, 195, 195, 120, 117, 190, 2, 4.51333
36, 3, wb, filler, NA, 999, 999, 3, 20, 92, 68, 135, 119, 191, 70, 1, 0.817237
36, 3, wb, filler, NA, 999, 999, 3, 20, 92, 68, 135, 119, 191, 70, 2, 0.423585
36, 3, wb, attraction, a-b-da, 2, 2, 3, 21, 163, 89, 165, 90, 90, 165, 1, 2.31601
36, 3, wb, attraction, a-b-da, 2, 2, 3, 21, 163, 89, 165, 90, 90, 165, 2, 0.854078
36, 3, wb, attraction, a-b-da, 14, 2, 3, 22, 165, 90, 90, 165, 153, 83, 3, 1.44966
36, 3, wb, attraction, a-b-da, 14, 2, 3, 22, 165, 90, 90, 165, 153, 83, 2, 0.694584
36, 3, wb, attraction, a-b-da, 5, 3, 3, 23, 120, 195, 190, 117, 195, 120, 1, 0.840247
36, 3, wb, attraction, a-b-da, 5, 3, 3, 23, 120, 195, 190, 117, 195, 120, 2, 1.62919
36, 3, wb, attraction, a-b-db, 2, 3, 3, 24, 119, 193, 120, 195, 195, 120, 1, 1.62536
36, 3, wb, attraction, a-b-db, 2, 3, 3, 24, 119, 193, 120, 195, 195, 120, 2, 0.67879
36, 3, wb, filler, NA, 999, 999, 3, 25, 123, 92, 85, 121, 170, 89, 2, 0.833142
36, 3, wb, filler, NA, 999, 999, 3, 25, 123, 92, 85, 121, 170, 89, 3, 0.982878
36, 3, wb, filler, NA, 999, 999, 3, 26, 141, 175, 125, 87, 129, 192, 2, 1.02118
36, 3, wb, filler, NA, 999, 999, 3, 26, 141, 175, 125, 87, 129, 192, 1, 0.587606
36, 3, wb, catch, NA, 999, 999, 3, 27, 105, 90, 158, 97, 128, 187, 1, 1.10587
36, 3, wb, catch, NA, 999, 999, 3, 27, 105, 90, 158, 97, 128, 187, 3, 0.452377
36, 3, wb, attraction, a-b-da, 5, 1, 3, 28, 60, 135, 132, 58, 135, 60, 3, 1.45606
36, 3, wb, attraction, a-b-da, 5, 1, 3, 28, 60, 135, 132, 58, 135, 60, 1, 0.380361
36, 3, wb, attraction, a-b-da, 9, 1, 3, 29, 129, 57, 60, 135, 135, 60, 1, 1.20275
36, 3, wb, attraction, a-b-da, 9, 1, 3, 29, 129, 57, 60, 135, 135, 60, 2, 1.18561
36, 3, wb, attraction, a-b-da, 5, 2, 3, 30, 161, 88, 165, 90, 90, 165, 3, 0.895836
36, 3, wb, attraction, a-b-da, 5, 2, 3, 30, 161, 88, 165, 90, 90, 165, 1, 0.538865
36, 3, wb, attraction, a-b-db, 14, 1, 3, 31, 60, 135, 56, 125, 135, 60, 2, 1.47543
36, 3, wb, attraction, a-b-db, 14, 1, 3, 31, 60, 135, 56, 125, 135, 60, 1, 0.446874
36, 3, wb, filler, NA, 999, 999, 3, 32, 162, 113, 134, 89, 76, 74, 3, 0.786633
36, 3, wb, filler, NA, 999, 999, 3, 32, 162, 113, 134, 89, 76, 74, 1, 0.338384
36, 3, wb, filler, NA, 999, 999, 3, 33, 176, 104, 91, 158, 125, 185, 2, 0.659031
36, 3, wb, filler, NA, 999, 999, 3, 33, 176, 104, 91, 158, 125, 185, 3, 0.375408
36, 3, wb, attraction, a-b-da, 14, 1, 3, 34, 135, 60, 60, 135, 125, 56, 3, 1.08587
36, 3, wb, attraction, a-b-da, 14, 1, 3, 34, 135, 60, 60, 135, 125, 56, 1, 1.0815
36, 3, wb, attraction, a-b-db, 14, 3, 3, 35, 111, 181, 195, 120, 120, 195, 3, 1.00383
36, 3, wb, attraction, a-b-db, 14, 3, 3, 35, 111, 181, 195, 120, 120, 195, 2, 1.1308
36, 3, wb, attraction, a-b-da, 2, 3, 3, 36, 120, 195, 195, 120, 193, 119, 3, 0.715047
36, 3, wb, attraction, a-b-da, 2, 3, 3, 36, 120, 195, 195, 120, 193, 119, 2, 0.373788
36, 3, wb, attraction, a-b-db, 9, 3, 3, 37, 195, 120, 120, 195, 114, 186, 3, 1.40401
36, 3, wb, attraction, a-b-db, 9, 3, 3, 37, 195, 120, 120, 195, 114, 186, 1, 0.506768
36, 3, wb, attraction, a-b-da, 5, 3, 4, 1, 120, 195, 190, 117, 195, 120, 1, 0.900049
36, 3, wb, attraction, a-b-da, 5, 3, 4, 1, 120, 195, 190, 117, 195, 120, 3, 0.479001
36, 3, wb, attraction, a-b-db, 9, 1, 4, 2, 60, 135, 135, 60, 57, 129, 3, 1.17732
36, 3, wb, attraction, a-b-db, 9, 1, 4, 2, 60, 135, 135, 60, 57, 129, 1, 0.913072
36, 3, wb, attraction, a-b-da, 14, 2, 4, 3, 165, 90, 153, 83, 90, 165, 2, 2.60199
36, 3, wb, attraction, a-b-da, 14, 2, 4, 3, 165, 90, 153, 83, 90, 165, 1, 1.02459
36, 3, wb, attraction, a-b-da, 9, 2, 4, 4, 90, 165, 157, 86, 165, 90, 2, 1.46076
36, 3, wb, attraction, a-b-da, 9, 2, 4, 4, 90, 165, 157, 86, 165, 90, 3, 0.505081
36, 3, wb, attraction, a-b-da, 14, 3, 4, 5, 120, 195, 195, 120, 181, 111, 3, 1.29873
36, 3, wb, attraction, a-b-da, 14, 3, 4, 5, 120, 195, 195, 120, 181, 111, 2, 0.38962
36, 3, wb, filler, NA, 999, 999, 4, 6, 173, 80, 56, 133, 175, 60, 2, 0.708091
36, 3, wb, filler, NA, 999, 999, 4, 6, 173, 80, 56, 133, 175, 60, 1, 0.606543
36, 3, wb, attraction, a-b-da, 14, 1, 4, 7, 125, 56, 60, 135, 135, 60, 1, 1.04427
36, 3, wb, attraction, a-b-da, 14, 1, 4, 7, 125, 56, 60, 135, 135, 60, 2, 0.513301
36, 3, wb, attraction, a-b-da, 5, 2, 4, 8, 90, 165, 165, 90, 161, 88, 3, 3.7064
36, 3, wb, attraction, a-b-da, 5, 2, 4, 8, 90, 165, 165, 90, 161, 88, 2, 0.379864
36, 3, wb, attraction, a-b-da, 2, 1, 4, 9, 60, 135, 134, 59, 135, 60, 2, 3.16245
36, 3, wb, attraction, a-b-da, 2, 1, 4, 9, 60, 135, 134, 59, 135, 60, 1, 0.545992
36, 3, wb, attraction, a-b-da, 2, 2, 4, 10, 163, 89, 165, 90, 90, 165, 3, 1.28986
36, 3, wb, attraction, a-b-da, 2, 2, 4, 10, 163, 89, 165, 90, 90, 165, 2, 0.764674
36, 3, wb, attraction, a-b-db, 5, 1, 4, 11, 58, 132, 60, 135, 135, 60, 1, 1.55566
36, 3, wb, attraction, a-b-db, 5, 1, 4, 11, 58, 132, 60, 135, 135, 60, 2, 0.403853
36, 3, wb, filler, NA, 999, 999, 4, 12, 97, 73, 183, 148, 131, 192, 1, 0.665702
36, 3, wb, filler, NA, 999, 999, 4, 12, 97, 73, 183, 148, 131, 192, 2, 1.55013
36, 3, wb, attraction, a-b-db, 14, 1, 4, 13, 56, 125, 135, 60, 60, 135, 1, 1.22157
36, 3, wb, attraction, a-b-db, 14, 1, 4, 13, 56, 125, 135, 60, 60, 135, 2, 0.323925
36, 3, wb, attraction, a-b-db, 2, 3, 4, 14, 119, 193, 195, 120, 120, 195, 3, 1.20436
36, 3, wb, attraction, a-b-db, 2, 3, 4, 14, 119, 193, 195, 120, 120, 195, 1, 1.37928
36, 3, wb, attraction, a-b-db, 14, 3, 4, 15, 195, 120, 111, 181, 120, 195, 2, 2.30539
36, 3, wb, attraction, a-b-db, 14, 3, 4, 15, 195, 120, 111, 181, 120, 195, 1, 0.547367
36, 3, wb, filler, NA, 999, 999, 4, 16, 174, 142, 150, 164, 117, 189, 1, 1.37907
36, 3, wb, filler, NA, 999, 999, 4, 16, 174, 142, 150, 164, 117, 189, 2, 0.378786
36, 3, wb, filler, NA, 999, 999, 4, 17, 65, 121, 98, 116, 170, 80, 1, 1.39313
36, 3, wb, filler, NA, 999, 999, 4, 17, 65, 121, 98, 116, 170, 80, 2, 0.768032
36, 3, wb, attraction, a-b-db, 2, 1, 4, 18, 135, 60, 59, 134, 60, 135, 2, 1.98325
36, 3, wb, attraction, a-b-db, 2, 1, 4, 18, 135, 60, 59, 134, 60, 135, 1, 0.718437
36, 3, wb, attraction, a-b-da, 9, 3, 4, 19, 186, 114, 195, 120, 120, 195, 3, 1.52741
36, 3, wb, attraction, a-b-da, 9, 3, 4, 19, 186, 114, 195, 120, 120, 195, 1, 0.361145
36, 3, wb, filler, NA, 999, 999, 4, 20, 79, 143, 155, 123, 102, 60, 3, 0.824066
36, 3, wb, filler, NA, 999, 999, 4, 20, 79, 143, 155, 123, 102, 60, 2, 2.12584
36, 3, wb, filler, NA, 999, 999, 4, 21, 72, 184, 85, 68, 184, 72, 2, 0.9738
36, 3, wb, filler, NA, 999, 999, 4, 21, 72, 184, 85, 68, 184, 72, 3, 1.61359
36, 3, wb, catch, NA, 999, 999, 4, 22, 64, 131, 193, 122, 154, 101, 1, 10.5143
36, 3, wb, catch, NA, 999, 999, 4, 22, 64, 131, 193, 122, 154, 101, 2, 0.713549
36, 3, wb, attraction, a-b-da, 2, 3, 4, 23, 120, 195, 195, 120, 193, 119, 3, 0.986628
36, 3, wb, attraction, a-b-da, 2, 3, 4, 23, 120, 195, 195, 120, 193, 119, 1, 0.330341
36, 3, wb, catch, NA, 999, 999, 4, 24, 111, 84, 189, 126, 107, 148, 1, 0.626905
36, 3, wb, catch, NA, 999, 999, 4, 24, 111, 84, 189, 126, 107, 148, 2, 0.296564
36, 3, wb, attraction, a-b-da, 9, 1, 4, 25, 135, 60, 60, 135, 129, 57, 1, 0.890369
36, 3, wb, attraction, a-b-da, 9, 1, 4, 25, 135, 60, 60, 135, 129, 57, 2, 0.349407
36, 3, wb, attraction, a-b-db, 14, 2, 4, 26, 90, 165, 83, 153, 165, 90, 3, 0.797272
36, 3, wb, attraction, a-b-db, 14, 2, 4, 26, 90, 165, 83, 153, 165, 90, 2, 0.340403
36, 3, wb, attraction, a-b-db, 5, 3, 4, 27, 195, 120, 117, 190, 120, 195, 1, 1.02016
36, 3, wb, attraction, a-b-db, 5, 3, 4, 27, 195, 120, 117, 190, 120, 195, 2, 0.402488
36, 3, wb, filler, NA, 999, 999, 4, 28, 185, 143, 164, 101, 146, 178, 2, 0.800512
36, 3, wb, filler, NA, 999, 999, 4, 28, 185, 143, 164, 101, 146, 178, 1, 0.391372
36, 3, wb, attraction, a-b-db, 9, 3, 4, 29, 195, 120, 114, 186, 120, 195, 1, 0.989236
36, 3, wb, attraction, a-b-db, 9, 3, 4, 29, 195, 120, 114, 186, 120, 195, 3, 0.508273
36, 3, wb, attraction, a-b-db, 5, 2, 4, 30, 90, 165, 88, 161, 165, 90, 3, 1.76533
36, 3, wb, attraction, a-b-db, 5, 2, 4, 30, 90, 165, 88, 161, 165, 90, 2, 0.533378
36, 3, wb, attraction, a-b-db, 2, 2, 4, 31, 89, 163, 165, 90, 90, 165, 2, 5.73387
36, 3, wb, attraction, a-b-db, 2, 2, 4, 31, 89, 163, 165, 90, 90, 165, 3, 0.438028
36, 3, wb, filler, NA, 999, 999, 4, 32, 107, 72, 158, 82, 100, 75, 3, 1.55459
36, 3, wb, filler, NA, 999, 999, 4, 32, 107, 72, 158, 82, 100, 75, 2, 2.23542
36, 3, wb, attraction, a-b-da, 5, 1, 4, 33, 135, 60, 132, 58, 60, 135, 2, 4.78318
36, 3, wb, attraction, a-b-da, 5, 1, 4, 33, 135, 60, 132, 58, 60, 135, 3, 0.589674
36, 3, wb, filler, NA, 999, 999, 4, 34, 145, 186, 163, 68, 185, 109, 2, 2.7322
36, 3, wb, filler, NA, 999, 999, 4, 34, 145, 186, 163, 68, 185, 109, 1, 0.797224
36, 3, wb, catch, NA, 999, 999, 4, 35, 125, 130, 133, 62, 153, 162, 2, 6.77098
36, 3, wb, catch, NA, 999, 999, 4, 35, 125, 130, 133, 62, 153, 162, 3, 0.441489
36, 3, wb, filler, NA, 999, 999, 4, 36, 115, 92, 65, 84, 180, 85, 2, 0.661218
36, 3, wb, filler, NA, 999, 999, 4, 36, 115, 92, 65, 84, 180, 85, 3, 0.593665
36, 3, wb, attraction, a-b-db, 9, 2, 4, 37, 90, 165, 165, 90, 86, 157, 2, 0.943417
36, 3, wb, attraction, a-b-db, 9, 2, 4, 37, 90, 165, 165, 90, 86, 157, 3, 0.44052
36, 3, wb, filler, NA, 999, 999, 5, 1, 151, 79, 141, 115, 56, 116, 3, 1.84303
36, 3, wb, filler, NA, 999, 999, 5, 1, 151, 79, 141, 115, 56, 116, 2, 0.607588
36, 3, wb, attraction, a-b-db, 5, 1, 5, 2, 60, 135, 58, 132, 135, 60, 3, 1.54874
36, 3, wb, attraction, a-b-db, 5, 1, 5, 2, 60, 135, 58, 132, 135, 60, 2, 0.357668
36, 3, wb, attraction, a-b-da, 9, 3, 5, 3, 195, 120, 120, 195, 186, 114, 3, 1.84473
36, 3, wb, attraction, a-b-da, 9, 3, 5, 3, 195, 120, 120, 195, 186, 114, 2, 0.273356
36, 3, wb, attraction, a-b-db, 14, 2, 5, 4, 83, 153, 90, 165, 165, 90, 1, 1.41994
36, 3, wb, attraction, a-b-db, 14, 2, 5, 4, 83, 153, 90, 165, 165, 90, 2, 0.354242
36, 3, wb, filler, NA, 999, 999, 5, 5, 86, 120, 104, 98, 134, 170, 2, 2.51402
36, 3, wb, filler, NA, 999, 999, 5, 5, 86, 120, 104, 98, 134, 170, 3, 0.47579
36, 3, wb, attraction, a-b-da, 2, 3, 5, 6, 193, 119, 195, 120, 120, 195, 1, 2.39033
36, 3, wb, attraction, a-b-da, 2, 3, 5, 6, 193, 119, 195, 120, 120, 195, 3, 0.628849
36, 3, wb, catch, NA, 999, 999, 5, 7, 94, 101, 112, 143, 146, 169, 1, 0.769368
36, 3, wb, catch, NA, 999, 999, 5, 7, 94, 101, 112, 143, 146, 169, 3, 0.297621
36, 3, wb, filler, NA, 999, 999, 5, 8, 142, 131, 140, 195, 108, 148, 3, 1.79556
36, 3, wb, filler, NA, 999, 999, 5, 8, 142, 131, 140, 195, 108, 148, 2, 0.426355
36, 3, wb, attraction, a-b-db, 5, 3, 5, 9, 195, 120, 117, 190, 120, 195, 1, 2.95075
36, 3, wb, attraction, a-b-db, 5, 3, 5, 9, 195, 120, 117, 190, 120, 195, 2, 0.311173
36, 3, wb, filler, NA, 999, 999, 5, 10, 60, 88, 56, 157, 81, 156, 1, 1.20026
36, 3, wb, filler, NA, 999, 999, 5, 10, 60, 88, 56, 157, 81, 156, 3, 0.647211
36, 3, wb, attraction, a-b-db, 2, 1, 5, 11, 135, 60, 60, 135, 59, 134, 2, 2.05891
36, 3, wb, attraction, a-b-db, 2, 1, 5, 11, 135, 60, 60, 135, 59, 134, 1, 0.470889
36, 3, wb, attraction, a-b-da, 2, 1, 5, 12, 134, 59, 135, 60, 60, 135, 2, 2.11407
36, 3, wb, attraction, a-b-da, 2, 1, 5, 12, 134, 59, 135, 60, 60, 135, 3, 0.580069
36, 3, wb, attraction, a-b-da, 2, 2, 5, 13, 163, 89, 165, 90, 90, 165, 2, 2.17853
36, 3, wb, attraction, a-b-da, 2, 2, 5, 13, 163, 89, 165, 90, 90, 165, 3, 0.3139
36, 3, wb, attraction, a-b-da, 5, 1, 5, 14, 60, 135, 135, 60, 132, 58, 2, 1.30696
36, 3, wb, attraction, a-b-da, 5, 1, 5, 14, 60, 135, 135, 60, 132, 58, 1, 0.34135
36, 3, wb, attraction, a-b-da, 9, 2, 5, 15, 90, 165, 157, 86, 165, 90, 2, 2.57293
36, 3, wb, attraction, a-b-da, 9, 2, 5, 15, 90, 165, 157, 86, 165, 90, 1, 0.356334
36, 3, wb, catch, NA, 999, 999, 5, 16, 163, 92, 125, 190, 63, 132, 3, 0.940113
36, 3, wb, catch, NA, 999, 999, 5, 16, 163, 92, 125, 190, 63, 132, 2, 0.253091
36, 3, wb, attraction, a-b-da, 14, 2, 5, 17, 165, 90, 153, 83, 90, 165, 1, 2.55304
36, 3, wb, attraction, a-b-da, 14, 2, 5, 17, 165, 90, 153, 83, 90, 165, 3, 0.56939
36, 3, wb, attraction, a-b-da, 5, 3, 5, 18, 190, 117, 120, 195, 195, 120, 3, 1.36045
36, 3, wb, attraction, a-b-da, 5, 3, 5, 18, 190, 117, 120, 195, 195, 120, 2, 0.288838
36, 3, wb, attraction, a-b-db, 9, 3, 5, 19, 120, 195, 114, 186, 195, 120, 3, 4.72317
36, 3, wb, attraction, a-b-db, 9, 3, 5, 19, 120, 195, 114, 186, 195, 120, 2, 0.939852
36, 3, wb, attraction, a-b-db, 2, 2, 5, 20, 89, 163, 165, 90, 90, 165, 1, 2.44402
36, 3, wb, attraction, a-b-db, 2, 2, 5, 20, 89, 163, 165, 90, 90, 165, 2, 0.416719
36, 3, wb, filler, NA, 999, 999, 5, 21, 70, 167, 79, 121, 97, 157, 2, 5.27769
36, 3, wb, filler, NA, 999, 999, 5, 21, 70, 167, 79, 121, 97, 157, 3, 0.336056
36, 3, wb, catch, NA, 999, 999, 5, 22, 69, 126, 124, 191, 160, 95, 1, 0.640498
36, 3, wb, catch, NA, 999, 999, 5, 22, 69, 126, 124, 191, 160, 95, 2, 0.293704
36, 3, wb, filler, NA, 999, 999, 5, 23, 132, 65, 150, 174, 86, 163, 1, 0.687513
36, 3, wb, filler, NA, 999, 999, 5, 23, 132, 65, 150, 174, 86, 163, 2, 0.362594
36, 3, wb, attraction, a-b-db, 14, 3, 5, 24, 111, 181, 120, 195, 195, 120, 1, 0.74577
36, 3, wb, attraction, a-b-db, 14, 3, 5, 24, 111, 181, 120, 195, 195, 120, 2, 0.626856
36, 3, wb, attraction, a-b-db, 5, 2, 5, 25, 90, 165, 88, 161, 165, 90, 3, 1.13523
36, 3, wb, attraction, a-b-db, 5, 2, 5, 25, 90, 165, 88, 161, 165, 90, 1, 0.544874
36, 3, wb, attraction, a-b-db, 2, 3, 5, 26, 119, 193, 120, 195, 195, 120, 3, 1.92075
36, 3, wb, attraction, a-b-db, 2, 3, 5, 26, 119, 193, 120, 195, 195, 120, 2, 0.434699
36, 3, wb, attraction, a-b-db, 9, 2, 5, 27, 90, 165, 165, 90, 86, 157, 3, 1.06323
36, 3, wb, attraction, a-b-db, 9, 2, 5, 27, 90, 165, 165, 90, 86, 157, 2, 0.323579
36, 3, wb, filler, NA, 999, 999, 5, 28, 192, 60, 158, 58, 122, 67, 3, 0.827988
36, 3, wb, filler, NA, 999, 999, 5, 28, 192, 60, 158, 58, 122, 67, 2, 0.985666
36, 3, wb, attraction, a-b-da, 5, 2, 5, 29, 165, 90, 161, 88, 90, 165, 1, 5.27999
36, 3, wb, attraction, a-b-da, 5, 2, 5, 29, 165, 90, 161, 88, 90, 165, 2, 0.61826
36, 3, wb, filler, NA, 999, 999, 5, 30, 144, 124, 176, 176, 165, 170, 1, 0.879325
36, 3, wb, filler, NA, 999, 999, 5, 30, 144, 124, 176, 176, 165, 170, 2, 0.379137
36, 3, wb, attraction, a-b-da, 14, 1, 5, 31, 125, 56, 135, 60, 60, 135, 1, 2.95368
36, 3, wb, attraction, a-b-da, 14, 1, 5, 31, 125, 56, 135, 60, 60, 135, 3, 0.770137
36, 3, wb, attraction, a-b-db, 14, 1, 5, 32, 135, 60, 60, 135, 56, 125, 3, 3.36104
36, 3, wb, attraction, a-b-db, 14, 1, 5, 32, 135, 60, 60, 135, 56, 125, 1, 1.05663
36, 3, wb, attraction, a-b-da, 14, 3, 5, 33, 195, 120, 181, 111, 120, 195, 2, 0.90012
36, 3, wb, attraction, a-b-da, 14, 3, 5, 33, 195, 120, 181, 111, 120, 195, 3, 0.62324
36, 3, wb, filler, NA, 999, 999, 5, 34, 89, 158, 117, 71, 57, 71, 3, 0.604311
36, 3, wb, filler, NA, 999, 999, 5, 34, 89, 158, 117, 71, 57, 71, 1, 0.562733
36, 3, wb, filler, NA, 999, 999, 5, 35, 127, 106, 193, 99, 156, 135, 1, 1.8819
36, 3, wb, filler, NA, 999, 999, 5, 35, 127, 106, 193, 99, 156, 135, 2, 1.86929
36, 3, wb, attraction, a-b-db, 9, 1, 5, 36, 57, 129, 135, 60, 60, 135, 1, 0.879993
36, 3, wb, attraction, a-b-db, 9, 1, 5, 36, 57, 129, 135, 60, 60, 135, 2, 0.31568
36, 3, wb, attraction, a-b-da, 9, 1, 5, 37, 60, 135, 129, 57, 135, 60, 2, 1.38086
36, 3, wb, attraction, a-b-da, 9, 1, 5, 37, 60, 135, 129, 57, 135, 60, 1, 0.484363
36, 3, wb, filler, NA, 999, 999, 6, 1, 129, 97, 178, 87, 127, 111, 1, 1.75077
36, 3, wb, filler, NA, 999, 999, 6, 1, 129, 97, 178, 87, 127, 111, 3, 0.591653
36, 3, wb, catch, NA, 999, 999, 6, 2, 136, 179, 104, 91, 156, 99, 2, 3.3413
36, 3, wb, catch, NA, 999, 999, 6, 2, 136, 179, 104, 91, 156, 99, 1, 0.317663
36, 3, wb, attraction, a-b-da, 14, 2, 6, 3, 165, 90, 153, 83, 90, 165, 1, 1.58274
36, 3, wb, attraction, a-b-da, 14, 2, 6, 3, 165, 90, 153, 83, 90, 165, 2, 0.614324
36, 3, wb, attraction, a-b-da, 5, 3, 6, 4, 120, 195, 195, 120, 190, 117, 1, 0.531394
36, 3, wb, attraction, a-b-da, 5, 3, 6, 4, 120, 195, 195, 120, 190, 117, 2, 0.333132
36, 3, wb, attraction, a-b-db, 14, 3, 6, 5, 195, 120, 120, 195, 111, 181, 1, 0.693647
36, 3, wb, attraction, a-b-db, 14, 3, 6, 5, 195, 120, 120, 195, 111, 181, 2, 0.360899
36, 3, wb, attraction, a-b-db, 2, 2, 6, 6, 89, 163, 165, 90, 90, 165, 1, 0.591815
36, 3, wb, attraction, a-b-db, 2, 2, 6, 6, 89, 163, 165, 90, 90, 165, 2, 0.59901
36, 3, wb, filler, NA, 999, 999, 6, 7, 182, 161, 95, 99, 72, 102, 2, 1.09273
36, 3, wb, filler, NA, 999, 999, 6, 7, 182, 161, 95, 99, 72, 102, 1, 0.407692
36, 3, wb, attraction, a-b-da, 2, 1, 6, 8, 135, 60, 60, 135, 134, 59, 3, 1.38085
36, 3, wb, attraction, a-b-da, 2, 1, 6, 8, 135, 60, 60, 135, 134, 59, 2, 0.324414
36, 3, wb, filler, NA, 999, 999, 6, 9, 193, 123, 123, 111, 175, 63, 3, 1.14887
36, 3, wb, filler, NA, 999, 999, 6, 9, 193, 123, 123, 111, 175, 63, 1, 0.781816
36, 3, wb, filler, NA, 999, 999, 6, 10, 137, 87, 112, 106, 155, 160, 1, 0.636265
36, 3, wb, filler, NA, 999, 999, 6, 10, 137, 87, 112, 106, 155, 160, 3, 0.570073
36, 3, wb, catch, NA, 999, 999, 6, 11, 64, 131, 192, 123, 142, 113, 1, 1.01723
36, 3, wb, catch, NA, 999, 999, 6, 11, 64, 131, 192, 123, 142, 113, 2, 0.311475
36, 3, wb, attraction, a-b-db, 2, 3, 6, 12, 120, 195, 195, 120, 119, 193, 1, 1.29667
36, 3, wb, attraction, a-b-db, 2, 3, 6, 12, 120, 195, 195, 120, 119, 193, 2, 0.26753
36, 3, wb, attraction, a-b-db, 5, 3, 6, 13, 117, 190, 195, 120, 120, 195, 1, 0.502843
36, 3, wb, attraction, a-b-db, 5, 3, 6, 13, 117, 190, 195, 120, 120, 195, 2, 0.305891
36, 3, wb, attraction, a-b-db, 2, 1, 6, 14, 135, 60, 59, 134, 60, 135, 2, 2.15569
36, 3, wb, attraction, a-b-db, 2, 1, 6, 14, 135, 60, 59, 134, 60, 135, 1, 1.24375
36, 3, wb, attraction, a-b-db, 9, 2, 6, 15, 165, 90, 86, 157, 90, 165, 1, 3.56732
36, 3, wb, attraction, a-b-db, 9, 2, 6, 15, 165, 90, 86, 157, 90, 165, 2, 0.566702
36, 3, wb, attraction, a-b-da, 2, 3, 6, 16, 120, 195, 195, 120, 193, 119, 1, 0.957772
36, 3, wb, attraction, a-b-da, 2, 3, 6, 16, 120, 195, 195, 120, 193, 119, 2, 0.286109
36, 3, wb, attraction, a-b-db, 5, 2, 6, 17, 165, 90, 88, 161, 90, 165, 1, 0.696701
36, 3, wb, attraction, a-b-db, 5, 2, 6, 17, 165, 90, 88, 161, 90, 165, 2, 0.403762
36, 3, wb, attraction, a-b-da, 14, 1, 6, 18, 60, 135, 125, 56, 135, 60, 1, 1.43358
36, 3, wb, attraction, a-b-da, 14, 1, 6, 18, 60, 135, 125, 56, 135, 60, 2, 0.38309
36, 3, wb, attraction, a-b-da, 14, 3, 6, 19, 181, 111, 120, 195, 195, 120, 1, 1.39759
36, 3, wb, attraction, a-b-da, 14, 3, 6, 19, 181, 111, 120, 195, 195, 120, 2, 0.516539
36, 3, wb, attraction, a-b-da, 9, 2, 6, 20, 90, 165, 157, 86, 165, 90, 1, 0.669639
36, 3, wb, attraction, a-b-da, 9, 2, 6, 20, 90, 165, 157, 86, 165, 90, 2, 0.338122
36, 3, wb, attraction, a-b-db, 14, 2, 6, 21, 83, 153, 90, 165, 165, 90, 1, 0.826519
36, 3, wb, attraction, a-b-db, 14, 2, 6, 21, 83, 153, 90, 165, 165, 90, 3, 0.63224
36, 3, wb, filler, NA, 999, 999, 6, 22, 87, 74, 131, 93, 168, 160, 1, 0.68472
36, 3, wb, filler, NA, 999, 999, 6, 22, 87, 74, 131, 93, 168, 160, 3, 0.440419
36, 3, wb, attraction, a-b-db, 14, 1, 6, 23, 56, 125, 135, 60, 60, 135, 1, 0.772296
36, 3, wb, attraction, a-b-db, 14, 1, 6, 23, 56, 125, 135, 60, 60, 135, 2, 0.491911
36, 3, wb, filler, NA, 999, 999, 6, 24, 151, 89, 169, 75, 74, 72, 3, 1.16574
36, 3, wb, filler, NA, 999, 999, 6, 24, 151, 89, 169, 75, 74, 72, 1, 0.526026
36, 3, wb, attraction, a-b-db, 9, 1, 6, 25, 135, 60, 60, 135, 57, 129, 1, 3.22258
36, 3, wb, attraction, a-b-db, 9, 1, 6, 25, 135, 60, 60, 135, 57, 129, 2, 0.395451
36, 3, wb, attraction, a-b-db, 5, 1, 6, 26, 58, 132, 60, 135, 135, 60, 1, 0.91329
36, 3, wb, attraction, a-b-db, 5, 1, 6, 26, 58, 132, 60, 135, 135, 60, 2, 0.419667
36, 3, wb, filler, NA, 999, 999, 6, 27, 109, 96, 195, 80, 183, 77, 1, 1.68073
36, 3, wb, filler, NA, 999, 999, 6, 27, 109, 96, 195, 80, 183, 77, 2, 0.364292
36, 3, wb, attraction, a-b-db, 9, 3, 6, 28, 120, 195, 195, 120, 114, 186, 1, 0.93135
36, 3, wb, attraction, a-b-db, 9, 3, 6, 28, 120, 195, 195, 120, 114, 186, 2, 0.332998
36, 3, wb, filler, NA, 999, 999, 6, 29, 90, 95, 109, 188, 92, 144, 1, 0.717507
36, 3, wb, filler, NA, 999, 999, 6, 29, 90, 95, 109, 188, 92, 144, 2, 0.479948
36, 3, wb, catch, NA, 999, 999, 6, 30, 165, 150, 151, 104, 134, 61, 3, 0.818444
36, 3, wb, catch, NA, 999, 999, 6, 30, 165, 150, 151, 104, 134, 61, 1, 0.648829
36, 3, wb, attraction, a-b-da, 9, 1, 6, 31, 129, 57, 60, 135, 135, 60, 3, 1.06074
36, 3, wb, attraction, a-b-da, 9, 1, 6, 31, 129, 57, 60, 135, 135, 60, 2, 0.368849
36, 3, wb, attraction, a-b-da, 5, 2, 6, 32, 90, 165, 161, 88, 165, 90, 2, 1.45603
36, 3, wb, attraction, a-b-da, 5, 2, 6, 32, 90, 165, 161, 88, 165, 90, 3, 0.452151
36, 3, wb, attraction, a-b-da, 5, 1, 6, 33, 135, 60, 60, 135, 132, 58, 1, 0.440013
36, 3, wb, attraction, a-b-da, 5, 1, 6, 33, 135, 60, 60, 135, 132, 58, 2, 0.58924
36, 3, wb, attraction, a-b-da, 2, 2, 6, 34, 163, 89, 165, 90, 90, 165, 1, 0.683595
36, 3, wb, attraction, a-b-da, 2, 2, 6, 34, 163, 89, 165, 90, 90, 165, 2, 0.647348
36, 3, wb, filler, NA, 999, 999, 6, 35, 169, 81, 160, 164, 95, 101, 3, 0.891136
36, 3, wb, filler, NA, 999, 999, 6, 35, 169, 81, 160, 164, 95, 101, 2, 0.694205
36, 3, wb, filler, NA, 999, 999, 6, 36, 127, 107, 191, 105, 82, 194, 1, 0.863787
36, 3, wb, filler, NA, 999, 999, 6, 36, 127, 107, 191, 105, 82, 194, 2, 0.540188
36, 3, wb, attraction, a-b-da, 9, 3, 6, 37, 186, 114, 195, 120, 120, 195, 1, 0.868059
36, 3, wb, attraction, a-b-da, 9, 3, 6, 37, 186, 114, 195, 120, 120, 195, 3, 0.576469
36, 3, wb, filler, NA, 999, 999, 7, 1, 98, 156, 124, 103, 173, 158, 2, 1.14274
36, 3, wb, filler, NA, 999, 999, 7, 1, 98, 156, 124, 103, 173, 158, 3, 0.631731
36, 3, wb, filler, NA, 999, 999, 7, 2, 128, 107, 103, 184, 182, 107, 1, 1.58828
36, 3, wb, filler, NA, 999, 999, 7, 2, 128, 107, 103, 184, 182, 107, 3, 0.571615
36, 3, wb, filler, NA, 999, 999, 7, 3, 131, 119, 92, 62, 147, 97, 2, 0.834749
36, 3, wb, filler, NA, 999, 999, 7, 3, 131, 119, 92, 62, 147, 97, 1, 2.27246
36, 3, wb, attraction, a-b-da, 9, 3, 7, 4, 186, 114, 195, 120, 120, 195, 1, 1.14706
36, 3, wb, attraction, a-b-da, 9, 3, 7, 4, 186, 114, 195, 120, 120, 195, 3, 0.555958
36, 3, wb, attraction, a-b-db, 2, 1, 7, 5, 59, 134, 60, 135, 135, 60, 1, 1.04381
36, 3, wb, attraction, a-b-db, 2, 1, 7, 5, 59, 134, 60, 135, 135, 60, 2, 0.528858
36, 3, wb, attraction, a-b-db, 14, 3, 7, 6, 195, 120, 120, 195, 111, 181, 3, 1.32113
36, 3, wb, attraction, a-b-db, 14, 3, 7, 6, 195, 120, 120, 195, 111, 181, 2, 0.41066
36, 3, wb, catch, NA, 999, 999, 7, 7, 105, 90, 127, 188, 130, 125, 1, 1.0878
36, 3, wb, catch, NA, 999, 999, 7, 7, 105, 90, 127, 188, 130, 125, 2, 0.51559
36, 3, wb, attraction, a-b-db, 14, 2, 7, 8, 165, 90, 83, 153, 90, 165, 2, 0.772502
36, 3, wb, attraction, a-b-db, 14, 2, 7, 8, 165, 90, 83, 153, 90, 165, 1, 1.10032
36, 3, wb, attraction, a-b-db, 2, 3, 7, 9, 195, 120, 119, 193, 120, 195, 2, 1.4619
36, 3, wb, attraction, a-b-db, 2, 3, 7, 9, 195, 120, 119, 193, 120, 195, 3, 0.506019
36, 3, wb, attraction, a-b-da, 14, 3, 7, 10, 181, 111, 195, 120, 120, 195, 2, 1.37996
36, 3, wb, attraction, a-b-da, 14, 3, 7, 10, 181, 111, 195, 120, 120, 195, 3, 2.42757
36, 3, wb, attraction, a-b-da, 5, 1, 7, 11, 135, 60, 132, 58, 60, 135, 2, 1.51928
36, 3, wb, attraction, a-b-da, 5, 1, 7, 11, 135, 60, 132, 58, 60, 135, 1, 1.54555
36, 3, wb, attraction, a-b-da, 2, 1, 7, 12, 60, 135, 134, 59, 135, 60, 2, 1.32885
36, 3, wb, attraction, a-b-da, 2, 1, 7, 12, 60, 135, 134, 59, 135, 60, 1, 0.674555
36, 3, wb, filler, NA, 999, 999, 7, 13, 117, 146, 144, 190, 182, 69, 3, 1.49284
36, 3, wb, filler, NA, 999, 999, 7, 13, 117, 146, 144, 190, 182, 69, 2, 0.487756
36, 3, wb, attraction, a-b-da, 9, 1, 7, 14, 135, 60, 60, 135, 129, 57, 1, 1.89867
36, 3, wb, attraction, a-b-da, 9, 1, 7, 14, 135, 60, 60, 135, 129, 57, 2, 0.508941
36, 3, wb, catch, NA, 999, 999, 7, 15, 133, 122, 160, 155, 84, 111, 3, 0.734058
36, 3, wb, catch, NA, 999, 999, 7, 15, 133, 122, 160, 155, 84, 111, 2, 0.375685
36, 3, wb, attraction, a-b-da, 9, 2, 7, 16, 165, 90, 157, 86, 90, 165, 1, 0.87032
36, 3, wb, attraction, a-b-da, 9, 2, 7, 16, 165, 90, 157, 86, 90, 165, 2, 0.346515
36, 3, wb, attraction, a-b-db, 9, 2, 7, 17, 90, 165, 165, 90, 86, 157, 3, 3.21039
36, 3, wb, attraction, a-b-db, 9, 2, 7, 17, 90, 165, 165, 90, 86, 157, 2, 0.376075
36, 3, wb, attraction, a-b-db, 5, 1, 7, 18, 135, 60, 58, 132, 60, 135, 2, 2.51849
36, 3, wb, attraction, a-b-db, 5, 1, 7, 18, 135, 60, 58, 132, 60, 135, 1, 0.768368
36, 3, wb, catch, NA, 999, 999, 7, 19, 108, 147, 92, 103, 167, 148, 2, 1.12744
36, 3, wb, catch, NA, 999, 999, 7, 19, 108, 147, 92, 103, 167, 148, 3, 0.28921
36, 3, wb, attraction, a-b-da, 5, 2, 7, 20, 161, 88, 90, 165, 165, 90, 1, 3.1957
36, 3, wb, attraction, a-b-da, 5, 2, 7, 20, 161, 88, 90, 165, 165, 90, 2, 0.505932
36, 3, wb, attraction, a-b-db, 9, 3, 7, 21, 114, 186, 195, 120, 120, 195, 1, 3.31562
36, 3, wb, attraction, a-b-db, 9, 3, 7, 21, 114, 186, 195, 120, 120, 195, 2, 0.269235
36, 3, wb, attraction, a-b-da, 2, 3, 7, 22, 120, 195, 195, 120, 193, 119, 3, 2.80052
36, 3, wb, attraction, a-b-da, 2, 3, 7, 22, 120, 195, 195, 120, 193, 119, 1, 1.46292
36, 3, wb, attraction, a-b-db, 5, 2, 7, 23, 88, 161, 90, 165, 165, 90, 1, 1.42576
36, 3, wb, attraction, a-b-db, 5, 2, 7, 23, 88, 161, 90, 165, 165, 90, 2, 0.663282
36, 3, wb, filler, NA, 999, 999, 7, 24, 122, 107, 156, 87, 56, 188, 3, 4.04246
36, 3, wb, filler, NA, 999, 999, 7, 24, 122, 107, 156, 87, 56, 188, 2, 2.93437
36, 3, wb, filler, NA, 999, 999, 7, 25, 88, 189, 148, 181, 92, 155, 3, 1.51802
36, 3, wb, filler, NA, 999, 999, 7, 25, 88, 189, 148, 181, 92, 155, 2, 0.416333
36, 3, wb, attraction, a-b-db, 14, 1, 7, 26, 60, 135, 135, 60, 56, 125, 3, 1.59737
36, 3, wb, attraction, a-b-db, 14, 1, 7, 26, 60, 135, 135, 60, 56, 125, 1, 0.556597
36, 3, wb, attraction, a-b-da, 14, 2, 7, 27, 153, 83, 90, 165, 165, 90, 1, 1.05928
36, 3, wb, attraction, a-b-da, 14, 2, 7, 27, 153, 83, 90, 165, 165, 90, 2, 0.367561
36, 3, wb, filler, NA, 999, 999, 7, 28, 158, 77, 101, 66, 110, 62, 2, 0.678722
36, 3, wb, filler, NA, 999, 999, 7, 28, 158, 77, 101, 66, 110, 62, 1, 0.730526
36, 3, wb, attraction, a-b-db, 9, 1, 7, 29, 60, 135, 57, 129, 135, 60, 2, 1.31489
36, 3, wb, attraction, a-b-db, 9, 1, 7, 29, 60, 135, 57, 129, 135, 60, 1, 1.29329
36, 3, wb, attraction, a-b-da, 5, 3, 7, 30, 120, 195, 195, 120, 190, 117, 3, 2.27066
36, 3, wb, attraction, a-b-da, 5, 3, 7, 30, 120, 195, 195, 120, 190, 117, 1, 1.08253
36, 3, wb, filler, NA, 999, 999, 7, 31, 147, 75, 179, 73, 150, 99, 1, 1.44479
36, 3, wb, filler, NA, 999, 999, 7, 31, 147, 75, 179, 73, 150, 99, 3, 0.40973
36, 3, wb, attraction, a-b-da, 14, 1, 7, 32, 135, 60, 60, 135, 125, 56, 3, 1.16684
36, 3, wb, attraction, a-b-da, 14, 1, 7, 32, 135, 60, 60, 135, 125, 56, 2, 1.13509
36, 3, wb, filler, NA, 999, 999, 7, 33, 162, 162, 168, 192, 97, 174, 3, 0.727366
36, 3, wb, filler, NA, 999, 999, 7, 33, 162, 162, 168, 192, 97, 174, 2, 0.537167
36, 3, wb, attraction, a-b-db, 5, 3, 7, 34, 120, 195, 117, 190, 195, 120, 1, 0.881682
36, 3, wb, attraction, a-b-db, 5, 3, 7, 34, 120, 195, 117, 190, 195, 120, 2, 0.293276
36, 3, wb, filler, NA, 999, 999, 7, 35, 67, 143, 93, 96, 145, 62, 1, 1.8792
36, 3, wb, filler, NA, 999, 999, 7, 35, 67, 143, 93, 96, 145, 62, 2, 0.418529
36, 3, wb, attraction, a-b-db, 2, 2, 7, 36, 90, 165, 89, 163, 165, 90, 1, 0.799691
36, 3, wb, attraction, a-b-db, 2, 2, 7, 36, 90, 165, 89, 163, 165, 90, 3, 1.25483
36, 3, wb, attraction, a-b-da, 2, 2, 7, 37, 165, 90, 90, 165, 163, 89, 3, 3.97031
36, 3, wb, attraction, a-b-da, 2, 2, 7, 37, 165, 90, 90, 165, 163, 89, 2, 0.441649
36, 3, wb, attraction, a-b-db, 9, 3, 8, 1, 195, 120, 114, 186, 120, 195, 1, 0.813535
36, 3, wb, attraction, a-b-db, 9, 3, 8, 1, 195, 120, 114, 186, 120, 195, 2, 0.307915
36, 3, wb, catch, NA, 999, 999, 8, 2, 72, 123, 129, 126, 162, 153, 1, 0.925048
36, 3, wb, catch, NA, 999, 999, 8, 2, 72, 123, 129, 126, 162, 153, 3, 0.742717
36, 3, wb, filler, NA, 999, 999, 8, 3, 165, 173, 88, 162, 177, 109, 2, 1.03835
36, 3, wb, filler, NA, 999, 999, 8, 3, 165, 173, 88, 162, 177, 109, 1, 0.387346
36, 3, wb, attraction, a-b-db, 5, 3, 8, 4, 195, 120, 117, 190, 120, 195, 2, 1.59387
36, 3, wb, attraction, a-b-db, 5, 3, 8, 4, 195, 120, 117, 190, 120, 195, 1, 0.304621
36, 3, wb, filler, NA, 999, 999, 8, 5, 93, 164, 128, 188, 70, 73, 3, 0.730537
36, 3, wb, filler, NA, 999, 999, 8, 5, 93, 164, 128, 188, 70, 73, 2, 0.268279
36, 3, wb, attraction, a-b-db, 2, 3, 8, 6, 119, 193, 195, 120, 120, 195, 2, 1.98347
36, 3, wb, attraction, a-b-db, 2, 3, 8, 6, 119, 193, 195, 120, 120, 195, 3, 0.630899
36, 3, wb, attraction, a-b-da, 2, 1, 8, 7, 135, 60, 60, 135, 134, 59, 3, 4.05122
36, 3, wb, attraction, a-b-da, 2, 1, 8, 7, 135, 60, 60, 135, 134, 59, 2, 0.367296
36, 3, wb, filler, NA, 999, 999, 8, 8, 93, 100, 99, 143, 75, 163, 1, 0.838549
36, 3, wb, filler, NA, 999, 999, 8, 8, 93, 100, 99, 143, 75, 163, 2, 0.355467
36, 3, wb, filler, NA, 999, 999, 8, 9, 70, 126, 176, 106, 71, 128, 1, 1.21358
36, 3, wb, filler, NA, 999, 999, 8, 9, 70, 126, 176, 106, 71, 128, 2, 0.561553
36, 3, wb, filler, NA, 999, 999, 8, 10, 101, 159, 178, 168, 110, 108, 3, 0.880679
36, 3, wb, filler, NA, 999, 999, 8, 10, 101, 159, 178, 168, 110, 108, 2, 0.404365
36, 3, wb, attraction, a-b-da, 14, 2, 8, 11, 90, 165, 153, 83, 165, 90, 2, 1.66624
36, 3, wb, attraction, a-b-da, 14, 2, 8, 11, 90, 165, 153, 83, 165, 90, 1, 0.310324
36, 3, wb, attraction, a-b-db, 9, 1, 8, 12, 60, 135, 57, 129, 135, 60, 3, 1.03945
36, 3, wb, attraction, a-b-db, 9, 1, 8, 12, 60, 135, 57, 129, 135, 60, 1, 0.828419
36, 3, wb, attraction, a-b-da, 9, 1, 8, 13, 135, 60, 129, 57, 60, 135, 2, 2.43285
36, 3, wb, attraction, a-b-da, 9, 1, 8, 13, 135, 60, 129, 57, 60, 135, 3, 0.381992
36, 3, wb, attraction, a-b-da, 2, 3, 8, 14, 195, 120, 193, 119, 120, 195, 2, 2.36457
36, 3, wb, attraction, a-b-da, 2, 3, 8, 14, 195, 120, 193, 119, 120, 195, 3, 0.372328
36, 3, wb, filler, NA, 999, 999, 8, 15, 115, 132, 129, 101, 177, 116, 2, 1.04362
36, 3, wb, filler, NA, 999, 999, 8, 15, 115, 132, 129, 101, 177, 116, 3, 0.544607
36, 3, wb, attraction, a-b-da, 5, 1, 8, 16, 132, 58, 60, 135, 135, 60, 2, 1.22442
36, 3, wb, attraction, a-b-da, 5, 1, 8, 16, 132, 58, 60, 135, 135, 60, 3, 0.685938
36, 3, wb, attraction, a-b-da, 9, 2, 8, 17, 165, 90, 90, 165, 157, 86, 3, 0.704298
36, 3, wb, attraction, a-b-da, 9, 2, 8, 17, 165, 90, 90, 165, 157, 86, 2, 0.331349
36, 3, wb, filler, NA, 999, 999, 8, 18, 91, 163, 98, 151, 150, 151, 1, 0.819943
36, 3, wb, filler, NA, 999, 999, 8, 18, 91, 163, 98, 151, 150, 151, 3, 0.298253
36, 3, wb, attraction, a-b-da, 5, 2, 8, 19, 90, 165, 161, 88, 165, 90, 1, 0.644244
36, 3, wb, attraction, a-b-da, 5, 2, 8, 19, 90, 165, 161, 88, 165, 90, 2, 0.505338
36, 3, wb, attraction, a-b-db, 5, 1, 8, 20, 60, 135, 58, 132, 135, 60, 3, 1.20326
36, 3, wb, attraction, a-b-db, 5, 1, 8, 20, 60, 135, 58, 132, 135, 60, 2, 0.313977
36, 3, wb, attraction, a-b-da, 14, 3, 8, 21, 195, 120, 120, 195, 181, 111, 1, 0.507184
36, 3, wb, attraction, a-b-da, 14, 3, 8, 21, 195, 120, 120, 195, 181, 111, 2, 0.277575
36, 3, wb, attraction, a-b-da, 2, 2, 8, 22, 165, 90, 90, 165, 163, 89, 2, 0.736177
36, 3, wb, attraction, a-b-da, 2, 2, 8, 22, 165, 90, 90, 165, 163, 89, 3, 0.378028
36, 3, wb, catch, NA, 999, 999, 8, 23, 109, 146, 116, 79, 164, 151, 2, 0.672398
36, 3, wb, catch, NA, 999, 999, 8, 23, 109, 146, 116, 79, 164, 151, 3, 0.292101
36, 3, wb, attraction, a-b-db, 14, 1, 8, 24, 135, 60, 60, 135, 56, 125, 1, 0.958037
36, 3, wb, attraction, a-b-db, 14, 1, 8, 24, 135, 60, 60, 135, 56, 125, 2, 0.278237
36, 3, wb, attraction, a-b-db, 5, 2, 8, 25, 88, 161, 165, 90, 90, 165, 2, 1.54492
36, 3, wb, attraction, a-b-db, 5, 2, 8, 25, 88, 161, 165, 90, 90, 165, 1, 0.257675
36, 3, wb, filler, NA, 999, 999, 8, 26, 108, 67, 151, 83, 136, 109, 1, 0.964874
36, 3, wb, filler, NA, 999, 999, 8, 26, 108, 67, 151, 83, 136, 109, 3, 0.341275
36, 3, wb, filler, NA, 999, 999, 8, 27, 128, 93, 177, 142, 158, 169, 1, 0.89296
36, 3, wb, filler, NA, 999, 999, 8, 27, 128, 93, 177, 142, 158, 169, 2, 0.648116
36, 3, wb, attraction, a-b-db, 14, 2, 8, 28, 83, 153, 90, 165, 165, 90, 3, 0.979819
36, 3, wb, attraction, a-b-db, 14, 2, 8, 28, 83, 153, 90, 165, 165, 90, 2, 0.283491
36, 3, wb, attraction, a-b-db, 9, 2, 8, 29, 86, 157, 90, 165, 165, 90, 1, 0.557989
36, 3, wb, attraction, a-b-db, 9, 2, 8, 29, 86, 157, 90, 165, 165, 90, 2, 0.230445
36, 3, wb, attraction, a-b-db, 14, 3, 8, 30, 120, 195, 111, 181, 195, 120, 2, 0.555011
36, 3, wb, attraction, a-b-db, 14, 3, 8, 30, 120, 195, 111, 181, 195, 120, 1, 0.267393
36, 3, wb, catch, NA, 999, 999, 8, 31, 133, 182, 84, 111, 126, 129, 2, 0.590677
36, 3, wb, catch, NA, 999, 999, 8, 31, 133, 182, 84, 111, 126, 129, 1, 0.293811
36, 3, wb, filler, NA, 999, 999, 8, 32, 59, 167, 136, 104, 190, 88, 1, 0.831577
36, 3, wb, filler, NA, 999, 999, 8, 32, 59, 167, 136, 104, 190, 88, 3, 0.37341
36, 3, wb, attraction, a-b-da, 14, 1, 8, 33, 60, 135, 125, 56, 135, 60, 2, 0.899976
36, 3, wb, attraction, a-b-da, 14, 1, 8, 33, 60, 135, 125, 56, 135, 60, 1, 0.518925
36, 3, wb, attraction, a-b-da, 5, 3, 8, 34, 195, 120, 120, 195, 190, 117, 3, 1.05595
36, 3, wb, attraction, a-b-da, 5, 3, 8, 34, 195, 120, 120, 195, 190, 117, 2, 0.364228
36, 3, wb, attraction, a-b-db, 2, 2, 8, 35, 90, 165, 165, 90, 89, 163, 2, 1.09952
36, 3, wb, attraction, a-b-db, 2, 2, 8, 35, 90, 165, 165, 90, 89, 163, 1, 0.286534
36, 3, wb, attraction, a-b-db, 2, 1, 8, 36, 60, 135, 59, 134, 135, 60, 3, 0.896865
36, 3, wb, attraction, a-b-db, 2, 1, 8, 36, 60, 135, 59, 134, 135, 60, 2, 0.267986
36, 3, wb, attraction, a-b-da, 9, 3, 8, 37, 195, 120, 120, 195, 186, 114, 1, 0.807203
36, 3, wb, attraction, a-b-da, 9, 3, 8, 37, 195, 120, 120, 195, 186, 114, 2, 0.325532
