sub_n, computer_n, bw_cond, effect, set, distance, diag, block_n, trial_n, h1, w1, h2, w2, h3, w3, choice, rt 
349, 3, bw, practice, NA, 999, 999, 0, 1, 103, 90, 72, 86, 57, 118, 1, 7.02561
349, 3, bw, practice, NA, 999, 999, 0, 1, 103, 90, 72, 86, 57, 118, 2, 17.0221
349, 3, bw, practice, NA, 999, 999, 0, 2, 74, 147, 179, 117, 72, 191, 2, 2.54725
349, 3, bw, practice, NA, 999, 999, 0, 2, 74, 147, 179, 117, 72, 191, 1, 2.23458
349, 3, bw, practice, NA, 999, 999, 0, 3, 126, 193, 122, 110, 181, 120, 1, 4.53909
349, 3, bw, practice, NA, 999, 999, 0, 3, 126, 193, 122, 110, 181, 120, 2, 1.58143
349, 3, bw, filler, NA, 999, 999, 1, 1, 90, 57, 187, 178, 162, 155, 2, 1.9257
349, 3, bw, filler, NA, 999, 999, 1, 1, 90, 57, 187, 178, 162, 155, 1, 0.975051
349, 3, bw, attraction, a-b-db, 5, 1, 1, 2, 60, 135, 58, 132, 135, 60, 2, 5.0295
349, 3, bw, attraction, a-b-db, 5, 1, 1, 2, 60, 135, 58, 132, 135, 60, 3, 1.18585
349, 3, bw, filler, NA, 999, 999, 1, 3, 108, 67, 160, 180, 136, 168, 2, 1.78407
349, 3, bw, filler, NA, 999, 999, 1, 3, 108, 67, 160, 180, 136, 168, 1, 0.767543
349, 3, bw, catch, NA, 999, 999, 1, 4, 160, 155, 105, 150, 121, 74, 1, 1.37451
349, 3, bw, catch, NA, 999, 999, 1, 4, 160, 155, 105, 150, 121, 74, 3, 0.718199
349, 3, bw, filler, NA, 999, 999, 1, 5, 67, 119, 98, 56, 59, 184, 1, 5.22327
349, 3, bw, filler, NA, 999, 999, 1, 5, 67, 119, 98, 56, 59, 184, 2, 0.787489
349, 3, bw, attraction, a-b-db, 14, 3, 1, 6, 111, 181, 195, 120, 120, 195, 3, 7.6339
349, 3, bw, attraction, a-b-db, 14, 3, 1, 6, 111, 181, 195, 120, 120, 195, 1, 2.09336
349, 3, bw, filler, NA, 999, 999, 1, 7, 178, 147, 113, 67, 117, 139, 1, 1.39869
349, 3, bw, filler, NA, 999, 999, 1, 7, 178, 147, 113, 67, 117, 139, 2, 0.701527
349, 3, bw, attraction, a-b-da, 5, 1, 1, 8, 132, 58, 60, 135, 135, 60, 2, 2.30329
349, 3, bw, attraction, a-b-da, 5, 1, 1, 8, 132, 58, 60, 135, 135, 60, 1, 0.66587
349, 3, bw, attraction, a-b-da, 5, 2, 1, 9, 90, 165, 165, 90, 161, 88, 1, 5.60495
349, 3, bw, attraction, a-b-da, 5, 2, 1, 9, 90, 165, 165, 90, 161, 88, 2, 0.434469
349, 3, bw, attraction, a-b-da, 14, 1, 1, 10, 60, 135, 135, 60, 125, 56, 1, 4.3669
349, 3, bw, attraction, a-b-da, 14, 1, 1, 10, 60, 135, 135, 60, 125, 56, 3, 0.766185
349, 3, bw, attraction, a-b-db, 2, 3, 1, 11, 119, 193, 120, 195, 195, 120, 1, 5.96535
349, 3, bw, attraction, a-b-db, 2, 3, 1, 11, 119, 193, 120, 195, 195, 120, 2, 1.34819
349, 3, bw, attraction, a-b-da, 9, 1, 1, 12, 129, 57, 60, 135, 135, 60, 3, 3.59552
349, 3, bw, attraction, a-b-da, 9, 1, 1, 12, 129, 57, 60, 135, 135, 60, 2, 2.80185
349, 3, bw, attraction, a-b-db, 2, 1, 1, 13, 60, 135, 59, 134, 135, 60, 1, 2.92686
349, 3, bw, attraction, a-b-db, 2, 1, 1, 13, 60, 135, 59, 134, 135, 60, 3, 0.591851
349, 3, bw, attraction, a-b-da, 9, 2, 1, 14, 165, 90, 157, 86, 90, 165, 3, 6.30972
349, 3, bw, attraction, a-b-da, 9, 2, 1, 14, 165, 90, 157, 86, 90, 165, 2, 0.358244
349, 3, bw, attraction, a-b-db, 14, 2, 1, 15, 90, 165, 83, 153, 165, 90, 1, 2.73353
349, 3, bw, attraction, a-b-db, 14, 2, 1, 15, 90, 165, 83, 153, 165, 90, 2, 0.454546
349, 3, bw, attraction, a-b-db, 9, 3, 1, 16, 114, 186, 120, 195, 195, 120, 3, 2.96247
349, 3, bw, attraction, a-b-db, 9, 3, 1, 16, 114, 186, 120, 195, 195, 120, 1, 1.50618
349, 3, bw, filler, NA, 999, 999, 1, 17, 138, 194, 151, 155, 93, 96, 1, 1.35547
349, 3, bw, filler, NA, 999, 999, 1, 17, 138, 194, 151, 155, 93, 96, 3, 0.859767
349, 3, bw, filler, NA, 999, 999, 1, 18, 138, 189, 138, 126, 109, 172, 1, 1.83878
349, 3, bw, filler, NA, 999, 999, 1, 18, 138, 189, 138, 126, 109, 172, 2, 0.371514
349, 3, bw, attraction, a-b-db, 9, 2, 1, 19, 90, 165, 165, 90, 86, 157, 2, 3.6507
349, 3, bw, attraction, a-b-db, 9, 2, 1, 19, 90, 165, 165, 90, 86, 157, 3, 0.342844
349, 3, bw, attraction, a-b-db, 5, 3, 1, 20, 120, 195, 195, 120, 117, 190, 2, 4.19071
349, 3, bw, attraction, a-b-db, 5, 3, 1, 20, 120, 195, 195, 120, 117, 190, 1, 0.284796
349, 3, bw, attraction, a-b-db, 5, 2, 1, 21, 88, 161, 90, 165, 165, 90, 3, 4.11919
349, 3, bw, attraction, a-b-db, 5, 2, 1, 21, 88, 161, 90, 165, 165, 90, 1, 0.616581
349, 3, bw, filler, NA, 999, 999, 1, 22, 125, 173, 117, 133, 126, 123, 1, 1.16565
349, 3, bw, filler, NA, 999, 999, 1, 22, 125, 173, 117, 133, 126, 123, 2, 0.34991
349, 3, bw, catch, NA, 999, 999, 1, 23, 159, 96, 173, 142, 111, 84, 2, 1.75791
349, 3, bw, catch, NA, 999, 999, 1, 23, 159, 96, 173, 142, 111, 84, 3, 0.725992
349, 3, bw, attraction, a-b-da, 9, 3, 1, 24, 195, 120, 120, 195, 186, 114, 3, 2.05433
349, 3, bw, attraction, a-b-da, 9, 3, 1, 24, 195, 120, 120, 195, 186, 114, 2, 0.906816
349, 3, bw, attraction, a-b-da, 14, 3, 1, 25, 120, 195, 181, 111, 195, 120, 1, 2.04383
349, 3, bw, attraction, a-b-da, 14, 3, 1, 25, 120, 195, 181, 111, 195, 120, 2, 0.320622
349, 3, bw, attraction, a-b-da, 2, 3, 1, 26, 195, 120, 193, 119, 120, 195, 3, 1.59367
349, 3, bw, attraction, a-b-da, 2, 3, 1, 26, 195, 120, 193, 119, 120, 195, 1, 0.672651
349, 3, bw, attraction, a-b-db, 9, 1, 1, 27, 135, 60, 60, 135, 57, 129, 2, 5.19565
349, 3, bw, attraction, a-b-db, 9, 1, 1, 27, 135, 60, 60, 135, 57, 129, 1, 0.521219
349, 3, bw, attraction, a-b-db, 2, 2, 1, 28, 165, 90, 90, 165, 89, 163, 2, 3.06642
349, 3, bw, attraction, a-b-db, 2, 2, 1, 28, 165, 90, 90, 165, 89, 163, 1, 0.918069
349, 3, bw, attraction, a-b-db, 14, 1, 1, 29, 60, 135, 135, 60, 56, 125, 3, 1.41504
349, 3, bw, attraction, a-b-db, 14, 1, 1, 29, 60, 135, 135, 60, 56, 125, 2, 0.525191
349, 3, bw, filler, NA, 999, 999, 1, 30, 80, 166, 123, 97, 106, 182, 3, 0.997666
349, 3, bw, filler, NA, 999, 999, 1, 30, 80, 166, 123, 97, 106, 182, 2, 0.868649
349, 3, bw, catch, NA, 999, 999, 1, 31, 113, 82, 179, 136, 129, 126, 2, 2.07972
349, 3, bw, catch, NA, 999, 999, 1, 31, 113, 82, 179, 136, 129, 126, 1, 0.587031
349, 3, bw, filler, NA, 999, 999, 1, 32, 132, 168, 141, 118, 92, 125, 1, 1.58544
349, 3, bw, filler, NA, 999, 999, 1, 32, 132, 168, 141, 118, 92, 125, 3, 0.696896
349, 3, bw, filler, NA, 999, 999, 1, 33, 78, 164, 63, 127, 93, 128, 1, 9.33856
349, 3, bw, filler, NA, 999, 999, 1, 33, 78, 164, 63, 127, 93, 128, 2, 1.34567
349, 3, bw, attraction, a-b-da, 14, 2, 1, 34, 153, 83, 165, 90, 90, 165, 3, 3.99319
349, 3, bw, attraction, a-b-da, 14, 2, 1, 34, 153, 83, 165, 90, 90, 165, 2, 0.543278
349, 3, bw, attraction, a-b-da, 5, 3, 1, 35, 190, 117, 120, 195, 195, 120, 2, 2.27918
349, 3, bw, attraction, a-b-da, 5, 3, 1, 35, 190, 117, 120, 195, 195, 120, 3, 2.27441
349, 3, bw, attraction, a-b-da, 2, 1, 1, 36, 135, 60, 60, 135, 134, 59, 2, 1.72435
349, 3, bw, attraction, a-b-da, 2, 1, 1, 36, 135, 60, 60, 135, 134, 59, 1, 0.381583
349, 3, bw, attraction, a-b-da, 2, 2, 1, 37, 165, 90, 90, 165, 163, 89, 1, 2.12412
349, 3, bw, attraction, a-b-da, 2, 2, 1, 37, 165, 90, 90, 165, 163, 89, 2, 0.621528
349, 3, bw, filler, NA, 999, 999, 2, 1, 130, 75, 115, 91, 144, 84, 2, 2.59456
349, 3, bw, filler, NA, 999, 999, 2, 1, 130, 75, 115, 91, 144, 84, 1, 0.489024
349, 3, bw, filler, NA, 999, 999, 2, 2, 156, 74, 85, 181, 156, 61, 2, 1.25145
349, 3, bw, filler, NA, 999, 999, 2, 2, 156, 74, 85, 181, 156, 61, 3, 0.488641
349, 3, bw, attraction, a-b-da, 14, 2, 2, 3, 90, 165, 153, 83, 165, 90, 3, 4.18679
349, 3, bw, attraction, a-b-da, 14, 2, 2, 3, 90, 165, 153, 83, 165, 90, 2, 0.825507
349, 3, bw, attraction, a-b-db, 2, 2, 2, 4, 89, 163, 165, 90, 90, 165, 3, 1.71781
349, 3, bw, attraction, a-b-db, 2, 2, 2, 4, 89, 163, 165, 90, 90, 165, 1, 0.935963
349, 3, bw, filler, NA, 999, 999, 2, 5, 133, 184, 64, 134, 174, 76, 1, 1.52834
349, 3, bw, filler, NA, 999, 999, 2, 5, 133, 184, 64, 134, 174, 76, 2, 0.353715
349, 3, bw, filler, NA, 999, 999, 2, 6, 56, 146, 57, 130, 115, 164, 3, 1.85769
349, 3, bw, filler, NA, 999, 999, 2, 6, 56, 146, 57, 130, 115, 164, 2, 0.533679
349, 3, bw, catch, NA, 999, 999, 2, 7, 129, 126, 132, 183, 117, 78, 2, 1.43812
349, 3, bw, catch, NA, 999, 999, 2, 7, 129, 126, 132, 183, 117, 78, 3, 0.771057
349, 3, bw, attraction, a-b-da, 5, 2, 2, 8, 161, 88, 90, 165, 165, 90, 2, 3.88207
349, 3, bw, attraction, a-b-da, 5, 2, 2, 8, 161, 88, 90, 165, 165, 90, 1, 0.380707
349, 3, bw, attraction, a-b-da, 14, 1, 2, 9, 135, 60, 125, 56, 60, 135, 3, 1.33139
349, 3, bw, attraction, a-b-da, 14, 1, 2, 9, 135, 60, 125, 56, 60, 135, 2, 0.748843
349, 3, bw, filler, NA, 999, 999, 2, 10, 173, 68, 169, 185, 95, 89, 2, 0.700529
349, 3, bw, filler, NA, 999, 999, 2, 10, 173, 68, 169, 185, 95, 89, 3, 1.49098
349, 3, bw, attraction, a-b-da, 9, 1, 2, 11, 129, 57, 135, 60, 60, 135, 1, 3.80103
349, 3, bw, attraction, a-b-da, 9, 1, 2, 11, 129, 57, 135, 60, 60, 135, 2, 4.16723
349, 3, bw, attraction, a-b-da, 2, 2, 2, 12, 165, 90, 163, 89, 90, 165, 3, 1.28536
349, 3, bw, attraction, a-b-da, 2, 2, 2, 12, 165, 90, 163, 89, 90, 165, 2, 2.44884
349, 3, bw, attraction, a-b-da, 14, 3, 2, 13, 195, 120, 181, 111, 120, 195, 3, 3.85183
349, 3, bw, attraction, a-b-da, 14, 3, 2, 13, 195, 120, 181, 111, 120, 195, 2, 0.832087
349, 3, bw, filler, NA, 999, 999, 2, 14, 93, 117, 150, 154, 152, 79, 2, 3.54036
349, 3, bw, filler, NA, 999, 999, 2, 14, 93, 117, 150, 154, 152, 79, 1, 0.380555
349, 3, bw, attraction, a-b-db, 2, 3, 2, 15, 195, 120, 120, 195, 119, 193, 2, 3.45908
349, 3, bw, attraction, a-b-db, 2, 3, 2, 15, 195, 120, 120, 195, 119, 193, 1, 0.710568
349, 3, bw, attraction, a-b-da, 9, 2, 2, 16, 157, 86, 90, 165, 165, 90, 2, 1.53565
349, 3, bw, attraction, a-b-da, 9, 2, 2, 16, 157, 86, 90, 165, 165, 90, 1, 0.4571
349, 3, bw, filler, NA, 999, 999, 2, 17, 184, 138, 67, 110, 76, 169, 1, 0.996329
349, 3, bw, filler, NA, 999, 999, 2, 17, 184, 138, 67, 110, 76, 169, 2, 0.635368
349, 3, bw, filler, NA, 999, 999, 2, 18, 192, 69, 108, 61, 168, 131, 3, 2.94372
349, 3, bw, filler, NA, 999, 999, 2, 18, 192, 69, 108, 61, 168, 131, 2, 0.520115
349, 3, bw, attraction, a-b-db, 5, 1, 2, 19, 135, 60, 60, 135, 58, 132, 1, 3.19329
349, 3, bw, attraction, a-b-db, 5, 1, 2, 19, 135, 60, 60, 135, 58, 132, 2, 0.615459
349, 3, bw, attraction, a-b-db, 2, 1, 2, 20, 135, 60, 59, 134, 60, 135, 2, 6.7486
349, 3, bw, attraction, a-b-db, 2, 1, 2, 20, 135, 60, 59, 134, 60, 135, 1, 0.691721
349, 3, bw, attraction, a-b-db, 14, 2, 2, 21, 83, 153, 165, 90, 90, 165, 1, 1.02159
349, 3, bw, attraction, a-b-db, 14, 2, 2, 21, 83, 153, 165, 90, 90, 165, 2, 0.371266
349, 3, bw, attraction, a-b-da, 2, 1, 2, 22, 135, 60, 134, 59, 60, 135, 2, 2.03439
349, 3, bw, attraction, a-b-da, 2, 1, 2, 22, 135, 60, 134, 59, 60, 135, 3, 0.37568
349, 3, bw, attraction, a-b-da, 9, 3, 2, 23, 195, 120, 186, 114, 120, 195, 2, 3.99015
349, 3, bw, attraction, a-b-da, 9, 3, 2, 23, 195, 120, 186, 114, 120, 195, 3, 0.660232
349, 3, bw, filler, NA, 999, 999, 2, 24, 179, 100, 134, 65, 154, 155, 2, 1.48441
349, 3, bw, filler, NA, 999, 999, 2, 24, 179, 100, 134, 65, 154, 155, 3, 0.434784
349, 3, bw, attraction, a-b-db, 5, 2, 2, 25, 88, 161, 90, 165, 165, 90, 2, 1.19123
349, 3, bw, attraction, a-b-db, 5, 2, 2, 25, 88, 161, 90, 165, 165, 90, 3, 0.550174
349, 3, bw, attraction, a-b-db, 9, 3, 2, 26, 114, 186, 195, 120, 120, 195, 2, 3.19796
349, 3, bw, attraction, a-b-db, 9, 3, 2, 26, 114, 186, 195, 120, 120, 195, 1, 0.684306
349, 3, bw, attraction, a-b-db, 9, 1, 2, 27, 57, 129, 135, 60, 60, 135, 3, 1.58271
349, 3, bw, attraction, a-b-db, 9, 1, 2, 27, 57, 129, 135, 60, 60, 135, 2, 1.46215
349, 3, bw, filler, NA, 999, 999, 2, 28, 146, 138, 126, 89, 61, 172, 1, 0.929012
349, 3, bw, filler, NA, 999, 999, 2, 28, 146, 138, 126, 89, 61, 172, 3, 1.05881
349, 3, bw, attraction, a-b-da, 5, 3, 2, 29, 195, 120, 120, 195, 190, 117, 2, 1.79761
349, 3, bw, attraction, a-b-da, 5, 3, 2, 29, 195, 120, 120, 195, 190, 117, 3, 1.77236
349, 3, bw, attraction, a-b-db, 5, 3, 2, 30, 117, 190, 195, 120, 120, 195, 2, 3.13102
349, 3, bw, attraction, a-b-db, 5, 3, 2, 30, 117, 190, 195, 120, 120, 195, 1, 0.636061
349, 3, bw, attraction, a-b-db, 14, 3, 2, 31, 195, 120, 111, 181, 120, 195, 3, 2.94442
349, 3, bw, attraction, a-b-db, 14, 3, 2, 31, 195, 120, 111, 181, 120, 195, 2, 0.361002
349, 3, bw, catch, NA, 999, 999, 2, 32, 131, 124, 135, 180, 60, 135, 2, 1.68795
349, 3, bw, catch, NA, 999, 999, 2, 32, 131, 124, 135, 180, 60, 135, 3, 0.307424
349, 3, bw, attraction, a-b-da, 2, 3, 2, 33, 195, 120, 120, 195, 193, 119, 3, 2.49272
349, 3, bw, attraction, a-b-da, 2, 3, 2, 33, 195, 120, 120, 195, 193, 119, 2, 0.567215
349, 3, bw, attraction, a-b-db, 14, 1, 2, 34, 56, 125, 60, 135, 135, 60, 2, 2.42227
349, 3, bw, attraction, a-b-db, 14, 1, 2, 34, 56, 125, 60, 135, 135, 60, 1, 1.19556
349, 3, bw, attraction, a-b-db, 9, 2, 2, 35, 90, 165, 86, 157, 165, 90, 1, 2.58505
349, 3, bw, attraction, a-b-db, 9, 2, 2, 35, 90, 165, 86, 157, 165, 90, 2, 1.28024
349, 3, bw, attraction, a-b-da, 5, 1, 2, 36, 132, 58, 135, 60, 60, 135, 3, 2.21842
349, 3, bw, attraction, a-b-da, 5, 1, 2, 36, 132, 58, 135, 60, 60, 135, 1, 0.600294
349, 3, bw, catch, NA, 999, 999, 2, 37, 113, 142, 122, 193, 114, 81, 2, 1.07008
349, 3, bw, catch, NA, 999, 999, 2, 37, 113, 142, 122, 193, 114, 81, 3, 0.370448
349, 3, bw, attraction, a-b-db, 5, 2, 3, 1, 165, 90, 88, 161, 90, 165, 3, 5.57757
349, 3, bw, attraction, a-b-db, 5, 2, 3, 1, 165, 90, 88, 161, 90, 165, 2, 1.20795
349, 3, bw, attraction, a-b-db, 5, 1, 3, 2, 60, 135, 135, 60, 58, 132, 3, 1.57277
349, 3, bw, attraction, a-b-db, 5, 1, 3, 2, 60, 135, 135, 60, 58, 132, 2, 0.476255
349, 3, bw, filler, NA, 999, 999, 3, 3, 109, 178, 129, 102, 130, 179, 1, 1.62288
349, 3, bw, filler, NA, 999, 999, 3, 3, 109, 178, 129, 102, 130, 179, 2, 0.852305
349, 3, bw, attraction, a-b-db, 14, 2, 3, 4, 90, 165, 83, 153, 165, 90, 1, 2.93579
349, 3, bw, attraction, a-b-db, 14, 2, 3, 4, 90, 165, 83, 153, 165, 90, 2, 0.40086
349, 3, bw, attraction, a-b-db, 2, 2, 3, 5, 165, 90, 89, 163, 90, 165, 2, 6.39063
349, 3, bw, attraction, a-b-db, 2, 2, 3, 5, 165, 90, 89, 163, 90, 165, 1, 0.379902
349, 3, bw, attraction, a-b-da, 9, 3, 3, 6, 120, 195, 186, 114, 195, 120, 1, 2.97842
349, 3, bw, attraction, a-b-da, 9, 3, 3, 6, 120, 195, 186, 114, 195, 120, 2, 0.409529
349, 3, bw, attraction, a-b-da, 5, 1, 3, 7, 60, 135, 132, 58, 135, 60, 1, 1.27858
349, 3, bw, attraction, a-b-da, 5, 1, 3, 7, 60, 135, 132, 58, 135, 60, 2, 0.706279
349, 3, bw, attraction, a-b-db, 14, 3, 3, 8, 111, 181, 120, 195, 195, 120, 2, 1.22796
349, 3, bw, attraction, a-b-db, 14, 3, 3, 8, 111, 181, 120, 195, 195, 120, 1, 0.777547
349, 3, bw, attraction, a-b-da, 14, 1, 3, 9, 60, 135, 125, 56, 135, 60, 1, 1.27995
349, 3, bw, attraction, a-b-da, 14, 1, 3, 9, 60, 135, 125, 56, 135, 60, 2, 0.635638
349, 3, bw, filler, NA, 999, 999, 3, 10, 162, 87, 138, 183, 70, 182, 2, 0.863926
349, 3, bw, filler, NA, 999, 999, 3, 10, 162, 87, 138, 183, 70, 182, 1, 0.692276
349, 3, bw, attraction, a-b-da, 5, 2, 3, 11, 161, 88, 165, 90, 90, 165, 1, 2.48614
349, 3, bw, attraction, a-b-da, 5, 2, 3, 11, 161, 88, 165, 90, 90, 165, 2, 0.361112
349, 3, bw, attraction, a-b-db, 9, 2, 3, 12, 165, 90, 86, 157, 90, 165, 3, 1.71238
349, 3, bw, attraction, a-b-db, 9, 2, 3, 12, 165, 90, 86, 157, 90, 165, 1, 0.786579
349, 3, bw, filler, NA, 999, 999, 3, 13, 121, 64, 149, 64, 194, 181, 3, 0.776921
349, 3, bw, filler, NA, 999, 999, 3, 13, 121, 64, 149, 64, 194, 181, 2, 0.736698
349, 3, bw, filler, NA, 999, 999, 3, 14, 139, 98, 112, 97, 96, 144, 3, 1.73694
349, 3, bw, filler, NA, 999, 999, 3, 14, 139, 98, 112, 97, 96, 144, 2, 0.586294
349, 3, bw, attraction, a-b-db, 9, 1, 3, 15, 60, 135, 135, 60, 57, 129, 1, 2.72878
349, 3, bw, attraction, a-b-db, 9, 1, 3, 15, 60, 135, 135, 60, 57, 129, 2, 0.353957
349, 3, bw, filler, NA, 999, 999, 3, 16, 178, 57, 179, 195, 146, 186, 2, 1.75693
349, 3, bw, filler, NA, 999, 999, 3, 16, 178, 57, 179, 195, 146, 186, 1, 0.737829
349, 3, bw, filler, NA, 999, 999, 3, 17, 130, 144, 133, 194, 173, 144, 2, 2.25019
349, 3, bw, filler, NA, 999, 999, 3, 17, 130, 144, 133, 194, 173, 144, 1, 0.462828
349, 3, bw, filler, NA, 999, 999, 3, 18, 193, 156, 103, 105, 138, 87, 1, 0.841887
349, 3, bw, filler, NA, 999, 999, 3, 18, 193, 156, 103, 105, 138, 87, 2, 0.359035
349, 3, bw, attraction, a-b-da, 9, 1, 3, 19, 129, 57, 60, 135, 135, 60, 3, 2.83806
349, 3, bw, attraction, a-b-da, 9, 1, 3, 19, 129, 57, 60, 135, 135, 60, 1, 0.387231
349, 3, bw, catch, NA, 999, 999, 3, 20, 88, 107, 120, 135, 121, 194, 3, 1.31366
349, 3, bw, catch, NA, 999, 999, 3, 20, 88, 107, 120, 135, 121, 194, 1, 0.540026
349, 3, bw, attraction, a-b-da, 14, 3, 3, 21, 120, 195, 181, 111, 195, 120, 1, 2.53992
349, 3, bw, attraction, a-b-da, 14, 3, 3, 21, 120, 195, 181, 111, 195, 120, 2, 0.332273
349, 3, bw, filler, NA, 999, 999, 3, 22, 66, 103, 178, 77, 99, 66, 2, 1.06075
349, 3, bw, filler, NA, 999, 999, 3, 22, 66, 103, 178, 77, 99, 66, 1, 0.409042
349, 3, bw, attraction, a-b-da, 14, 2, 3, 23, 90, 165, 165, 90, 153, 83, 2, 2.28626
349, 3, bw, attraction, a-b-da, 14, 2, 3, 23, 90, 165, 165, 90, 153, 83, 1, 0.265471
349, 3, bw, attraction, a-b-da, 2, 1, 3, 24, 60, 135, 134, 59, 135, 60, 3, 1.83665
349, 3, bw, attraction, a-b-da, 2, 1, 3, 24, 60, 135, 134, 59, 135, 60, 2, 0.594025
349, 3, bw, attraction, a-b-da, 5, 3, 3, 25, 195, 120, 120, 195, 190, 117, 1, 2.38383
349, 3, bw, attraction, a-b-da, 5, 3, 3, 25, 195, 120, 120, 195, 190, 117, 3, 0.942996
349, 3, bw, attraction, a-b-da, 9, 2, 3, 26, 157, 86, 90, 165, 165, 90, 3, 2.39868
349, 3, bw, attraction, a-b-da, 9, 2, 3, 26, 157, 86, 90, 165, 165, 90, 1, 0.893276
349, 3, bw, attraction, a-b-db, 2, 3, 3, 27, 120, 195, 195, 120, 119, 193, 2, 1.83891
349, 3, bw, attraction, a-b-db, 2, 3, 3, 27, 120, 195, 195, 120, 119, 193, 1, 0.611646
349, 3, bw, attraction, a-b-db, 2, 1, 3, 28, 60, 135, 59, 134, 135, 60, 1, 1.5287
349, 3, bw, attraction, a-b-db, 2, 1, 3, 28, 60, 135, 59, 134, 135, 60, 3, 0.554223
349, 3, bw, attraction, a-b-db, 9, 3, 3, 29, 120, 195, 195, 120, 114, 186, 2, 1.16199
349, 3, bw, attraction, a-b-db, 9, 3, 3, 29, 120, 195, 195, 120, 114, 186, 1, 0.47432
349, 3, bw, catch, NA, 999, 999, 3, 30, 156, 99, 117, 78, 164, 151, 3, 1.42866
349, 3, bw, catch, NA, 999, 999, 3, 30, 156, 99, 117, 78, 164, 151, 2, 0.386218
349, 3, bw, filler, NA, 999, 999, 3, 31, 192, 195, 185, 138, 174, 126, 1, 1.20877
349, 3, bw, filler, NA, 999, 999, 3, 31, 192, 195, 185, 138, 174, 126, 3, 0.711068
349, 3, bw, attraction, a-b-da, 2, 2, 3, 32, 90, 165, 165, 90, 163, 89, 1, 4.52804
349, 3, bw, attraction, a-b-da, 2, 2, 3, 32, 90, 165, 165, 90, 163, 89, 3, 0.368579
349, 3, bw, attraction, a-b-da, 2, 3, 3, 33, 193, 119, 195, 120, 120, 195, 2, 1.71974
349, 3, bw, attraction, a-b-da, 2, 3, 3, 33, 193, 119, 195, 120, 120, 195, 3, 0.74584
349, 3, bw, filler, NA, 999, 999, 3, 34, 187, 96, 180, 63, 175, 173, 3, 0.881537
349, 3, bw, filler, NA, 999, 999, 3, 34, 187, 96, 180, 63, 175, 173, 2, 0.39738
349, 3, bw, attraction, a-b-db, 5, 3, 3, 35, 195, 120, 117, 190, 120, 195, 1, 1.05912
349, 3, bw, attraction, a-b-db, 5, 3, 3, 35, 195, 120, 117, 190, 120, 195, 2, 0.383491
349, 3, bw, attraction, a-b-db, 14, 1, 3, 36, 60, 135, 56, 125, 135, 60, 1, 2.00587
349, 3, bw, attraction, a-b-db, 14, 1, 3, 36, 60, 135, 56, 125, 135, 60, 2, 1.37188
349, 3, bw, catch, NA, 999, 999, 3, 37, 96, 159, 182, 133, 113, 82, 2, 1.05866
349, 3, bw, catch, NA, 999, 999, 3, 37, 96, 159, 182, 133, 113, 82, 3, 0.535131
349, 3, bw, attraction, a-b-db, 9, 1, 4, 1, 135, 60, 60, 135, 57, 129, 3, 1.5276
349, 3, bw, attraction, a-b-db, 9, 1, 4, 1, 135, 60, 60, 135, 57, 129, 1, 1.12897
349, 3, bw, attraction, a-b-da, 9, 1, 4, 2, 60, 135, 129, 57, 135, 60, 1, 1.52125
349, 3, bw, attraction, a-b-da, 9, 1, 4, 2, 60, 135, 129, 57, 135, 60, 3, 0.581819
349, 3, bw, attraction, a-b-da, 2, 3, 4, 3, 120, 195, 193, 119, 195, 120, 1, 5.48983
349, 3, bw, attraction, a-b-da, 2, 3, 4, 3, 120, 195, 193, 119, 195, 120, 2, 0.443414
349, 3, bw, catch, NA, 999, 999, 4, 4, 138, 177, 96, 99, 126, 129, 1, 1.27137
349, 3, bw, catch, NA, 999, 999, 4, 4, 138, 177, 96, 99, 126, 129, 2, 0.666814
349, 3, bw, filler, NA, 999, 999, 4, 5, 134, 83, 138, 183, 182, 156, 2, 1.88582
349, 3, bw, filler, NA, 999, 999, 4, 5, 134, 83, 138, 183, 182, 156, 1, 0.417306
349, 3, bw, attraction, a-b-db, 2, 2, 4, 6, 89, 163, 165, 90, 90, 165, 3, 2.10239
349, 3, bw, attraction, a-b-db, 2, 2, 4, 6, 89, 163, 165, 90, 90, 165, 2, 0.625017
349, 3, bw, filler, NA, 999, 999, 4, 7, 154, 61, 80, 191, 129, 106, 2, 1.9334
349, 3, bw, filler, NA, 999, 999, 4, 7, 154, 61, 80, 191, 129, 106, 1, 0.406872
349, 3, bw, attraction, a-b-da, 2, 2, 4, 8, 163, 89, 165, 90, 90, 165, 2, 10.076
349, 3, bw, attraction, a-b-da, 2, 2, 4, 8, 163, 89, 165, 90, 90, 165, 1, 0.364794
349, 3, bw, catch, NA, 999, 999, 4, 9, 148, 167, 73, 122, 97, 158, 1, 0.939966
349, 3, bw, catch, NA, 999, 999, 4, 9, 148, 167, 73, 122, 97, 158, 2, 0.356985
349, 3, bw, filler, NA, 999, 999, 4, 10, 132, 97, 171, 170, 171, 170, 2, 1.0361
349, 3, bw, filler, NA, 999, 999, 4, 10, 132, 97, 171, 170, 171, 170, 1, 0.441724
349, 3, bw, attraction, a-b-db, 9, 3, 4, 11, 114, 186, 120, 195, 195, 120, 3, 3.01364
349, 3, bw, attraction, a-b-db, 9, 3, 4, 11, 114, 186, 120, 195, 195, 120, 1, 0.931395
349, 3, bw, attraction, a-b-da, 14, 3, 4, 12, 181, 111, 120, 195, 195, 120, 3, 2.08361
349, 3, bw, attraction, a-b-da, 14, 3, 4, 12, 181, 111, 120, 195, 195, 120, 1, 0.718973
349, 3, bw, attraction, a-b-da, 9, 3, 4, 13, 120, 195, 186, 114, 195, 120, 3, 6.39199
349, 3, bw, attraction, a-b-da, 9, 3, 4, 13, 120, 195, 186, 114, 195, 120, 1, 0.365215
349, 3, bw, filler, NA, 999, 999, 4, 14, 126, 61, 76, 164, 193, 114, 3, 1.18838
349, 3, bw, filler, NA, 999, 999, 4, 14, 126, 61, 76, 164, 193, 114, 1, 0.571302
349, 3, bw, attraction, a-b-da, 2, 1, 4, 15, 135, 60, 134, 59, 60, 135, 3, 3.18648
349, 3, bw, attraction, a-b-da, 2, 1, 4, 15, 135, 60, 134, 59, 60, 135, 2, 0.66549
349, 3, bw, attraction, a-b-da, 14, 2, 4, 16, 165, 90, 90, 165, 153, 83, 1, 2.89279
349, 3, bw, attraction, a-b-da, 14, 2, 4, 16, 165, 90, 90, 165, 153, 83, 3, 0.382956
349, 3, bw, filler, NA, 999, 999, 4, 17, 182, 90, 64, 134, 56, 192, 1, 1.68533
349, 3, bw, filler, NA, 999, 999, 4, 17, 182, 90, 64, 134, 56, 192, 2, 0.536819
349, 3, bw, attraction, a-b-db, 5, 1, 4, 18, 58, 132, 135, 60, 60, 135, 3, 3.11331
349, 3, bw, attraction, a-b-db, 5, 1, 4, 18, 58, 132, 135, 60, 60, 135, 2, 0.378938
349, 3, bw, attraction, a-b-da, 5, 1, 4, 19, 60, 135, 132, 58, 135, 60, 3, 2.51346
349, 3, bw, attraction, a-b-da, 5, 1, 4, 19, 60, 135, 132, 58, 135, 60, 1, 0.651301
349, 3, bw, attraction, a-b-db, 2, 1, 4, 20, 135, 60, 60, 135, 59, 134, 2, 1.599
349, 3, bw, attraction, a-b-db, 2, 1, 4, 20, 135, 60, 60, 135, 59, 134, 1, 0.349874
349, 3, bw, attraction, a-b-db, 9, 2, 4, 21, 86, 157, 90, 165, 165, 90, 2, 1.55764
349, 3, bw, attraction, a-b-db, 9, 2, 4, 21, 86, 157, 90, 165, 165, 90, 3, 0.373873
349, 3, bw, attraction, a-b-db, 5, 3, 4, 22, 195, 120, 120, 195, 117, 190, 1, 1.36434
349, 3, bw, attraction, a-b-db, 5, 3, 4, 22, 195, 120, 120, 195, 117, 190, 2, 0.460611
349, 3, bw, filler, NA, 999, 999, 4, 23, 175, 165, 180, 184, 188, 161, 2, 2.24785
349, 3, bw, filler, NA, 999, 999, 4, 23, 175, 165, 180, 184, 188, 161, 1, 0.508225
349, 3, bw, filler, NA, 999, 999, 4, 24, 142, 64, 76, 170, 76, 106, 1, 1.95736
349, 3, bw, filler, NA, 999, 999, 4, 24, 142, 64, 76, 170, 76, 106, 3, 0.333444
349, 3, bw, attraction, a-b-da, 5, 3, 4, 25, 190, 117, 195, 120, 120, 195, 2, 2.66195
349, 3, bw, attraction, a-b-da, 5, 3, 4, 25, 190, 117, 195, 120, 120, 195, 3, 0.313721
349, 3, bw, attraction, a-b-db, 14, 1, 4, 26, 60, 135, 56, 125, 135, 60, 2, 1.56284
349, 3, bw, attraction, a-b-db, 14, 1, 4, 26, 60, 135, 56, 125, 135, 60, 1, 0.835158
349, 3, bw, filler, NA, 999, 999, 4, 27, 181, 138, 132, 187, 112, 64, 2, 1.94346
349, 3, bw, filler, NA, 999, 999, 4, 27, 181, 138, 132, 187, 112, 64, 3, 0.320175
349, 3, bw, attraction, a-b-da, 5, 2, 4, 28, 90, 165, 161, 88, 165, 90, 2, 2.23327
349, 3, bw, attraction, a-b-da, 5, 2, 4, 28, 90, 165, 161, 88, 165, 90, 3, 1.00663
349, 3, bw, attraction, a-b-db, 14, 3, 4, 29, 120, 195, 195, 120, 111, 181, 2, 2.35615
349, 3, bw, attraction, a-b-db, 14, 3, 4, 29, 120, 195, 195, 120, 111, 181, 3, 0.300183
349, 3, bw, attraction, a-b-db, 2, 3, 4, 30, 119, 193, 120, 195, 195, 120, 2, 5.23791
349, 3, bw, attraction, a-b-db, 2, 3, 4, 30, 119, 193, 120, 195, 195, 120, 3, 0.874311
349, 3, bw, filler, NA, 999, 999, 4, 31, 121, 81, 99, 115, 131, 57, 2, 9.18063
349, 3, bw, filler, NA, 999, 999, 4, 31, 121, 81, 99, 115, 131, 57, 1, 0.889688
349, 3, bw, attraction, a-b-da, 14, 1, 4, 32, 60, 135, 135, 60, 125, 56, 2, 1.45209
349, 3, bw, attraction, a-b-da, 14, 1, 4, 32, 60, 135, 135, 60, 125, 56, 1, 0.49703
349, 3, bw, filler, NA, 999, 999, 4, 33, 139, 134, 77, 114, 115, 170, 1, 1.18671
349, 3, bw, filler, NA, 999, 999, 4, 33, 139, 134, 77, 114, 115, 170, 2, 0.410325
349, 3, bw, attraction, a-b-da, 9, 2, 4, 34, 157, 86, 90, 165, 165, 90, 2, 1.99954
349, 3, bw, attraction, a-b-da, 9, 2, 4, 34, 157, 86, 90, 165, 165, 90, 1, 0.918086
349, 3, bw, attraction, a-b-db, 5, 2, 4, 35, 88, 161, 165, 90, 90, 165, 3, 5.3031
349, 3, bw, attraction, a-b-db, 5, 2, 4, 35, 88, 161, 165, 90, 90, 165, 2, 0.832695
349, 3, bw, catch, NA, 999, 999, 4, 36, 195, 120, 123, 132, 124, 71, 2, 3.03711
349, 3, bw, catch, NA, 999, 999, 4, 36, 195, 120, 123, 132, 124, 71, 3, 0.386202
349, 3, bw, attraction, a-b-db, 14, 2, 4, 37, 165, 90, 83, 153, 90, 165, 1, 3.74466
349, 3, bw, attraction, a-b-db, 14, 2, 4, 37, 165, 90, 83, 153, 90, 165, 2, 0.680784
349, 3, bw, filler, NA, 999, 999, 5, 1, 170, 122, 95, 126, 195, 173, 3, 2.64981
349, 3, bw, filler, NA, 999, 999, 5, 1, 170, 122, 95, 126, 195, 173, 2, 0.78223
349, 3, bw, attraction, a-b-da, 5, 2, 5, 2, 90, 165, 161, 88, 165, 90, 3, 1.88462
349, 3, bw, attraction, a-b-da, 5, 2, 5, 2, 90, 165, 161, 88, 165, 90, 2, 0.743981
349, 3, bw, attraction, a-b-da, 14, 2, 5, 3, 90, 165, 165, 90, 153, 83, 1, 2.05575
349, 3, bw, attraction, a-b-da, 14, 2, 5, 3, 90, 165, 165, 90, 153, 83, 3, 0.675874
349, 3, bw, filler, NA, 999, 999, 5, 4, 118, 101, 175, 57, 140, 87, 3, 3.35804
349, 3, bw, filler, NA, 999, 999, 5, 4, 118, 101, 175, 57, 140, 87, 1, 1.51786
349, 3, bw, attraction, a-b-da, 14, 3, 5, 5, 120, 195, 195, 120, 181, 111, 2, 2.03049
349, 3, bw, attraction, a-b-da, 14, 3, 5, 5, 120, 195, 195, 120, 181, 111, 3, 0.339768
349, 3, bw, attraction, a-b-db, 9, 3, 5, 6, 114, 186, 120, 195, 195, 120, 2, 1.20433
349, 3, bw, attraction, a-b-db, 9, 3, 5, 6, 114, 186, 120, 195, 195, 120, 1, 0.491319
349, 3, bw, filler, NA, 999, 999, 5, 7, 129, 103, 60, 94, 160, 107, 3, 1.74917
349, 3, bw, filler, NA, 999, 999, 5, 7, 129, 103, 60, 94, 160, 107, 2, 0.845853
349, 3, bw, attraction, a-b-da, 2, 1, 5, 8, 60, 135, 134, 59, 135, 60, 1, 4.13742
349, 3, bw, attraction, a-b-da, 2, 1, 5, 8, 60, 135, 134, 59, 135, 60, 2, 0.682257
349, 3, bw, attraction, a-b-db, 14, 2, 5, 9, 165, 90, 83, 153, 90, 165, 3, 1.14865
349, 3, bw, attraction, a-b-db, 14, 2, 5, 9, 165, 90, 83, 153, 90, 165, 2, 1.13369
349, 3, bw, attraction, a-b-da, 2, 2, 5, 10, 163, 89, 165, 90, 90, 165, 2, 2.1498
349, 3, bw, attraction, a-b-da, 2, 2, 5, 10, 163, 89, 165, 90, 90, 165, 1, 1.04647
349, 3, bw, attraction, a-b-da, 9, 2, 5, 11, 157, 86, 165, 90, 90, 165, 2, 1.29
349, 3, bw, attraction, a-b-da, 9, 2, 5, 11, 157, 86, 165, 90, 90, 165, 1, 0.500854
349, 3, bw, attraction, a-b-db, 5, 1, 5, 12, 58, 132, 60, 135, 135, 60, 2, 1.79871
349, 3, bw, attraction, a-b-db, 5, 1, 5, 12, 58, 132, 60, 135, 135, 60, 1, 0.565404
349, 3, bw, filler, NA, 999, 999, 5, 13, 165, 59, 74, 177, 195, 110, 3, 1.21259
349, 3, bw, filler, NA, 999, 999, 5, 13, 165, 59, 74, 177, 195, 110, 1, 0.442862
349, 3, bw, filler, NA, 999, 999, 5, 14, 72, 186, 102, 69, 85, 104, 1, 1.75869
349, 3, bw, filler, NA, 999, 999, 5, 14, 72, 186, 102, 69, 85, 104, 2, 0.6148
349, 3, bw, attraction, a-b-db, 14, 3, 5, 15, 120, 195, 111, 181, 195, 120, 1, 2.49172
349, 3, bw, attraction, a-b-db, 14, 3, 5, 15, 120, 195, 111, 181, 195, 120, 2, 0.81434
349, 3, bw, attraction, a-b-da, 5, 1, 5, 16, 132, 58, 60, 135, 135, 60, 2, 1.44334
349, 3, bw, attraction, a-b-da, 5, 1, 5, 16, 132, 58, 60, 135, 135, 60, 1, 0.480228
349, 3, bw, attraction, a-b-db, 2, 2, 5, 17, 90, 165, 89, 163, 165, 90, 2, 5.43459
349, 3, bw, attraction, a-b-db, 2, 2, 5, 17, 90, 165, 89, 163, 165, 90, 1, 0.439096
349, 3, bw, attraction, a-b-da, 14, 1, 5, 18, 125, 56, 60, 135, 135, 60, 2, 6.64336
349, 3, bw, attraction, a-b-da, 14, 1, 5, 18, 125, 56, 60, 135, 135, 60, 1, 0.406606
349, 3, bw, attraction, a-b-db, 5, 2, 5, 19, 165, 90, 90, 165, 88, 161, 2, 2.23573
349, 3, bw, attraction, a-b-db, 5, 2, 5, 19, 165, 90, 90, 165, 88, 161, 3, 0.97706
349, 3, bw, filler, NA, 999, 999, 5, 20, 167, 77, 119, 191, 61, 75, 2, 0.759349
349, 3, bw, filler, NA, 999, 999, 5, 20, 167, 77, 119, 191, 61, 75, 3, 0.607749
349, 3, bw, attraction, a-b-db, 14, 1, 5, 21, 56, 125, 60, 135, 135, 60, 1, 1.86889
349, 3, bw, attraction, a-b-db, 14, 1, 5, 21, 56, 125, 60, 135, 135, 60, 2, 2.16893
349, 3, bw, attraction, a-b-db, 2, 1, 5, 22, 60, 135, 135, 60, 59, 134, 1, 2.79942
349, 3, bw, attraction, a-b-db, 2, 1, 5, 22, 60, 135, 135, 60, 59, 134, 3, 0.405892
349, 3, bw, attraction, a-b-db, 5, 3, 5, 23, 120, 195, 117, 190, 195, 120, 1, 2.23574
349, 3, bw, attraction, a-b-db, 5, 3, 5, 23, 120, 195, 117, 190, 195, 120, 2, 1.057
349, 3, bw, attraction, a-b-da, 9, 1, 5, 24, 129, 57, 135, 60, 60, 135, 2, 2.93193
349, 3, bw, attraction, a-b-da, 9, 1, 5, 24, 129, 57, 135, 60, 60, 135, 1, 1.38901
349, 3, bw, attraction, a-b-da, 2, 3, 5, 25, 120, 195, 195, 120, 193, 119, 2, 2.19514
349, 3, bw, attraction, a-b-da, 2, 3, 5, 25, 120, 195, 195, 120, 193, 119, 1, 0.369864
349, 3, bw, attraction, a-b-db, 9, 1, 5, 26, 60, 135, 135, 60, 57, 129, 1, 3.43312
349, 3, bw, attraction, a-b-db, 9, 1, 5, 26, 60, 135, 135, 60, 57, 129, 3, 2.05387
349, 3, bw, attraction, a-b-db, 9, 2, 5, 27, 165, 90, 90, 165, 86, 157, 2, 5.36121
349, 3, bw, attraction, a-b-db, 9, 2, 5, 27, 165, 90, 90, 165, 86, 157, 3, 0.36822
349, 3, bw, filler, NA, 999, 999, 5, 28, 112, 103, 159, 115, 64, 95, 2, 1.07934
349, 3, bw, filler, NA, 999, 999, 5, 28, 112, 103, 159, 115, 64, 95, 3, 0.515009
349, 3, bw, attraction, a-b-da, 9, 3, 5, 29, 186, 114, 120, 195, 195, 120, 2, 3.63608
349, 3, bw, attraction, a-b-da, 9, 3, 5, 29, 186, 114, 120, 195, 195, 120, 1, 0.520838
349, 3, bw, filler, NA, 999, 999, 5, 30, 162, 121, 74, 183, 143, 142, 3, 1.466
349, 3, bw, filler, NA, 999, 999, 5, 30, 162, 121, 74, 183, 143, 142, 2, 0.366156
349, 3, bw, filler, NA, 999, 999, 5, 31, 117, 129, 141, 151, 181, 82, 2, 2.13345
349, 3, bw, filler, NA, 999, 999, 5, 31, 117, 129, 141, 151, 181, 82, 1, 0.382638
349, 3, bw, filler, NA, 999, 999, 5, 32, 73, 89, 156, 178, 182, 75, 2, 0.885148
349, 3, bw, filler, NA, 999, 999, 5, 32, 73, 89, 156, 178, 182, 75, 1, 0.776819
349, 3, bw, catch, NA, 999, 999, 5, 33, 182, 133, 123, 72, 122, 133, 1, 1.13522
349, 3, bw, catch, NA, 999, 999, 5, 33, 182, 133, 123, 72, 122, 133, 2, 0.448796
349, 3, bw, catch, NA, 999, 999, 5, 34, 189, 126, 101, 94, 136, 119, 1, 1.26879
349, 3, bw, catch, NA, 999, 999, 5, 34, 189, 126, 101, 94, 136, 119, 2, 0.384906
349, 3, bw, attraction, a-b-db, 2, 3, 5, 35, 119, 193, 195, 120, 120, 195, 2, 2.34335
349, 3, bw, attraction, a-b-db, 2, 3, 5, 35, 119, 193, 195, 120, 120, 195, 1, 0.335872
349, 3, bw, attraction, a-b-da, 5, 3, 5, 36, 120, 195, 190, 117, 195, 120, 2, 2.38444
349, 3, bw, attraction, a-b-da, 5, 3, 5, 36, 120, 195, 190, 117, 195, 120, 3, 0.599815
349, 3, bw, catch, NA, 999, 999, 5, 37, 92, 103, 141, 114, 130, 185, 3, 1.19743
349, 3, bw, catch, NA, 999, 999, 5, 37, 92, 103, 141, 114, 130, 185, 1, 0.452315
349, 3, bw, attraction, a-b-db, 2, 2, 6, 1, 165, 90, 89, 163, 90, 165, 2, 2.64016
349, 3, bw, attraction, a-b-db, 2, 2, 6, 1, 165, 90, 89, 163, 90, 165, 1, 0.428647
349, 3, bw, attraction, a-b-da, 5, 1, 6, 2, 60, 135, 132, 58, 135, 60, 1, 1.75314
349, 3, bw, attraction, a-b-da, 5, 1, 6, 2, 60, 135, 132, 58, 135, 60, 2, 0.729942
349, 3, bw, attraction, a-b-db, 5, 1, 6, 3, 135, 60, 58, 132, 60, 135, 3, 1.77834
349, 3, bw, attraction, a-b-db, 5, 1, 6, 3, 135, 60, 58, 132, 60, 135, 1, 0.969763
349, 3, bw, filler, NA, 999, 999, 6, 4, 88, 98, 72, 112, 149, 75, 3, 1.13662
349, 3, bw, filler, NA, 999, 999, 6, 4, 88, 98, 72, 112, 149, 75, 1, 0.578324
349, 3, bw, catch, NA, 999, 999, 6, 5, 185, 130, 111, 144, 124, 71, 1, 1.74482
349, 3, bw, catch, NA, 999, 999, 6, 5, 185, 130, 111, 144, 124, 71, 3, 0.481711
349, 3, bw, attraction, a-b-db, 14, 2, 6, 6, 90, 165, 83, 153, 165, 90, 1, 2.19587
349, 3, bw, attraction, a-b-db, 14, 2, 6, 6, 90, 165, 83, 153, 165, 90, 2, 0.978515
349, 3, bw, attraction, a-b-db, 14, 1, 6, 7, 56, 125, 135, 60, 60, 135, 3, 1.64079
349, 3, bw, attraction, a-b-db, 14, 1, 6, 7, 56, 125, 135, 60, 60, 135, 1, 0.837636
349, 3, bw, attraction, a-b-da, 9, 1, 6, 8, 60, 135, 129, 57, 135, 60, 3, 1.49796
349, 3, bw, attraction, a-b-da, 9, 1, 6, 8, 60, 135, 129, 57, 135, 60, 2, 0.900751
349, 3, bw, attraction, a-b-db, 9, 1, 6, 9, 57, 129, 60, 135, 135, 60, 2, 1.67058
349, 3, bw, attraction, a-b-db, 9, 1, 6, 9, 57, 129, 60, 135, 135, 60, 1, 0.938581
349, 3, bw, attraction, a-b-db, 14, 3, 6, 10, 195, 120, 111, 181, 120, 195, 3, 2.12299
349, 3, bw, attraction, a-b-db, 14, 3, 6, 10, 195, 120, 111, 181, 120, 195, 2, 0.748214
349, 3, bw, filler, NA, 999, 999, 6, 11, 164, 160, 94, 79, 63, 148, 1, 1.03593
349, 3, bw, filler, NA, 999, 999, 6, 11, 164, 160, 94, 79, 63, 148, 2, 0.665622
349, 3, bw, attraction, a-b-db, 2, 3, 6, 12, 119, 193, 195, 120, 120, 195, 3, 2.25259
349, 3, bw, attraction, a-b-db, 2, 3, 6, 12, 119, 193, 195, 120, 120, 195, 1, 1.73723
349, 3, bw, filler, NA, 999, 999, 6, 13, 94, 72, 143, 189, 88, 164, 2, 1.83346
349, 3, bw, filler, NA, 999, 999, 6, 13, 94, 72, 143, 189, 88, 164, 1, 0.654767
349, 3, bw, filler, NA, 999, 999, 6, 14, 120, 106, 76, 180, 101, 90, 2, 3.35448
349, 3, bw, filler, NA, 999, 999, 6, 14, 120, 106, 76, 180, 101, 90, 3, 0.450849
349, 3, bw, filler, NA, 999, 999, 6, 15, 183, 112, 195, 58, 93, 73, 1, 1.23848
349, 3, bw, filler, NA, 999, 999, 6, 15, 183, 112, 195, 58, 93, 73, 3, 0.475515
349, 3, bw, attraction, a-b-da, 2, 1, 6, 16, 135, 60, 134, 59, 60, 135, 3, 2.50996
349, 3, bw, attraction, a-b-da, 2, 1, 6, 16, 135, 60, 134, 59, 60, 135, 2, 0.559774
349, 3, bw, filler, NA, 999, 999, 6, 17, 187, 165, 101, 79, 100, 108, 1, 0.718806
349, 3, bw, filler, NA, 999, 999, 6, 17, 187, 165, 101, 79, 100, 108, 2, 0.865283
349, 3, bw, attraction, a-b-da, 2, 2, 6, 18, 163, 89, 165, 90, 90, 165, 2, 2.00431
349, 3, bw, attraction, a-b-da, 2, 2, 6, 18, 163, 89, 165, 90, 90, 165, 3, 0.627003
349, 3, bw, attraction, a-b-db, 5, 3, 6, 19, 195, 120, 120, 195, 117, 190, 2, 1.58332
349, 3, bw, attraction, a-b-db, 5, 3, 6, 19, 195, 120, 120, 195, 117, 190, 1, 1.36692
349, 3, bw, attraction, a-b-da, 5, 2, 6, 20, 161, 88, 90, 165, 165, 90, 3, 1.50975
349, 3, bw, attraction, a-b-da, 5, 2, 6, 20, 161, 88, 90, 165, 165, 90, 1, 0.959908
349, 3, bw, attraction, a-b-db, 2, 1, 6, 21, 135, 60, 60, 135, 59, 134, 3, 1.41496
349, 3, bw, attraction, a-b-db, 2, 1, 6, 21, 135, 60, 60, 135, 59, 134, 1, 0.813053
349, 3, bw, attraction, a-b-da, 14, 2, 6, 22, 165, 90, 90, 165, 153, 83, 3, 3.65009
349, 3, bw, attraction, a-b-da, 14, 2, 6, 22, 165, 90, 90, 165, 153, 83, 2, 0.342345
349, 3, bw, attraction, a-b-db, 9, 3, 6, 23, 114, 186, 120, 195, 195, 120, 3, 1.11007
349, 3, bw, attraction, a-b-db, 9, 3, 6, 23, 114, 186, 120, 195, 195, 120, 1, 0.36834
349, 3, bw, attraction, a-b-da, 5, 3, 6, 24, 190, 117, 120, 195, 195, 120, 3, 2.61557
349, 3, bw, attraction, a-b-da, 5, 3, 6, 24, 190, 117, 120, 195, 195, 120, 2, 0.37341
349, 3, bw, attraction, a-b-da, 14, 1, 6, 25, 125, 56, 60, 135, 135, 60, 3, 1.87589
349, 3, bw, attraction, a-b-da, 14, 1, 6, 25, 125, 56, 60, 135, 135, 60, 2, 0.423281
349, 3, bw, filler, NA, 999, 999, 6, 26, 119, 112, 107, 112, 92, 195, 3, 2.24368
349, 3, bw, filler, NA, 999, 999, 6, 26, 119, 112, 107, 112, 92, 195, 2, 1.54433
349, 3, bw, filler, NA, 999, 999, 6, 27, 106, 157, 184, 114, 192, 189, 3, 0.815705
349, 3, bw, filler, NA, 999, 999, 6, 27, 106, 157, 184, 114, 192, 189, 1, 0.550144
349, 3, bw, catch, NA, 999, 999, 6, 28, 68, 127, 157, 98, 186, 129, 3, 1.0699
349, 3, bw, catch, NA, 999, 999, 6, 28, 68, 127, 157, 98, 186, 129, 1, 0.458197
349, 3, bw, attraction, a-b-db, 5, 2, 6, 29, 165, 90, 90, 165, 88, 161, 2, 2.7094
349, 3, bw, attraction, a-b-db, 5, 2, 6, 29, 165, 90, 90, 165, 88, 161, 3, 0.375134
349, 3, bw, filler, NA, 999, 999, 6, 30, 194, 128, 152, 109, 124, 144, 1, 1.54154
349, 3, bw, filler, NA, 999, 999, 6, 30, 194, 128, 152, 109, 124, 144, 2, 0.766474
349, 3, bw, catch, NA, 999, 999, 6, 31, 140, 115, 94, 101, 182, 133, 3, 1.10151
349, 3, bw, catch, NA, 999, 999, 6, 31, 140, 115, 94, 101, 182, 133, 2, 0.592514
349, 3, bw, attraction, a-b-da, 9, 3, 6, 32, 186, 114, 195, 120, 120, 195, 3, 3.67013
349, 3, bw, attraction, a-b-da, 9, 3, 6, 32, 186, 114, 195, 120, 120, 195, 1, 0.949462
349, 3, bw, attraction, a-b-db, 9, 2, 6, 33, 86, 157, 90, 165, 165, 90, 2, 2.88129
349, 3, bw, attraction, a-b-db, 9, 2, 6, 33, 86, 157, 90, 165, 165, 90, 1, 0.612422
349, 3, bw, attraction, a-b-da, 9, 2, 6, 34, 157, 86, 165, 90, 90, 165, 2, 6.96964
349, 3, bw, attraction, a-b-da, 9, 2, 6, 34, 157, 86, 165, 90, 90, 165, 1, 0.520014
349, 3, bw, attraction, a-b-da, 2, 3, 6, 35, 195, 120, 193, 119, 120, 195, 3, 4.31304
349, 3, bw, attraction, a-b-da, 2, 3, 6, 35, 195, 120, 193, 119, 120, 195, 2, 0.850416
349, 3, bw, attraction, a-b-da, 14, 3, 6, 36, 195, 120, 120, 195, 181, 111, 1, 3.78214
349, 3, bw, attraction, a-b-da, 14, 3, 6, 36, 195, 120, 120, 195, 181, 111, 3, 0.564983
349, 3, bw, filler, NA, 999, 999, 6, 37, 105, 195, 184, 145, 140, 181, 3, 5.79604
349, 3, bw, filler, NA, 999, 999, 6, 37, 105, 195, 184, 145, 140, 181, 1, 0.52952
349, 3, bw, catch, NA, 999, 999, 7, 1, 70, 125, 138, 117, 174, 141, 3, 0.825857
349, 3, bw, catch, NA, 999, 999, 7, 1, 70, 125, 138, 117, 174, 141, 1, 0.487516
349, 3, bw, attraction, a-b-db, 14, 3, 7, 2, 120, 195, 195, 120, 111, 181, 1, 2.29002
349, 3, bw, attraction, a-b-db, 14, 3, 7, 2, 120, 195, 195, 120, 111, 181, 2, 0.676681
349, 3, bw, attraction, a-b-da, 2, 3, 7, 3, 193, 119, 120, 195, 195, 120, 1, 2.423
349, 3, bw, attraction, a-b-da, 2, 3, 7, 3, 193, 119, 120, 195, 195, 120, 3, 0.548193
349, 3, bw, filler, NA, 999, 999, 7, 4, 94, 85, 110, 135, 132, 82, 2, 1.69997
349, 3, bw, filler, NA, 999, 999, 7, 4, 94, 85, 110, 135, 132, 82, 1, 0.374873
349, 3, bw, attraction, a-b-da, 2, 2, 7, 5, 165, 90, 163, 89, 90, 165, 3, 3.40534
349, 3, bw, attraction, a-b-da, 2, 2, 7, 5, 165, 90, 163, 89, 90, 165, 1, 0.810793
349, 3, bw, attraction, a-b-db, 9, 2, 7, 6, 86, 157, 90, 165, 165, 90, 2, 3.66386
349, 3, bw, attraction, a-b-db, 9, 2, 7, 6, 86, 157, 90, 165, 165, 90, 1, 0.419396
349, 3, bw, attraction, a-b-da, 14, 2, 7, 7, 90, 165, 153, 83, 165, 90, 1, 2.1845
349, 3, bw, attraction, a-b-da, 14, 2, 7, 7, 90, 165, 153, 83, 165, 90, 2, 0.391824
349, 3, bw, filler, NA, 999, 999, 7, 8, 183, 93, 124, 153, 89, 177, 3, 3.29361
349, 3, bw, filler, NA, 999, 999, 7, 8, 183, 93, 124, 153, 89, 177, 2, 0.488017
349, 3, bw, filler, NA, 999, 999, 7, 9, 87, 157, 67, 153, 191, 97, 3, 1.17033
349, 3, bw, filler, NA, 999, 999, 7, 9, 87, 157, 67, 153, 191, 97, 2, 0.786657
349, 3, bw, attraction, a-b-da, 14, 1, 7, 10, 125, 56, 60, 135, 135, 60, 1, 2.30503
349, 3, bw, attraction, a-b-da, 14, 1, 7, 10, 125, 56, 60, 135, 135, 60, 2, 0.499054
349, 3, bw, attraction, a-b-db, 2, 2, 7, 11, 165, 90, 89, 163, 90, 165, 3, 2.06873
349, 3, bw, attraction, a-b-db, 2, 2, 7, 11, 165, 90, 89, 163, 90, 165, 2, 0.968725
349, 3, bw, filler, NA, 999, 999, 7, 12, 173, 122, 189, 81, 154, 117, 1, 1.90368
349, 3, bw, filler, NA, 999, 999, 7, 12, 173, 122, 189, 81, 154, 117, 2, 0.666398
349, 3, bw, attraction, a-b-db, 5, 1, 7, 13, 58, 132, 60, 135, 135, 60, 2, 1.32543
349, 3, bw, attraction, a-b-db, 5, 1, 7, 13, 58, 132, 60, 135, 135, 60, 3, 1.59103
349, 3, bw, catch, NA, 999, 999, 7, 14, 140, 175, 144, 111, 92, 103, 1, 0.900486
349, 3, bw, catch, NA, 999, 999, 7, 14, 140, 175, 144, 111, 92, 103, 3, 0.591467
349, 3, bw, attraction, a-b-db, 5, 2, 7, 15, 165, 90, 90, 165, 88, 161, 1, 2.34918
349, 3, bw, attraction, a-b-db, 5, 2, 7, 15, 165, 90, 90, 165, 88, 161, 3, 0.621896
349, 3, bw, attraction, a-b-da, 5, 2, 7, 16, 90, 165, 161, 88, 165, 90, 3, 2.7068
349, 3, bw, attraction, a-b-da, 5, 2, 7, 16, 90, 165, 161, 88, 165, 90, 2, 0.89282
349, 3, bw, attraction, a-b-da, 2, 1, 7, 17, 135, 60, 134, 59, 60, 135, 3, 3.27829
349, 3, bw, attraction, a-b-da, 2, 1, 7, 17, 135, 60, 134, 59, 60, 135, 2, 1.05726
349, 3, bw, attraction, a-b-da, 5, 3, 7, 18, 190, 117, 120, 195, 195, 120, 3, 1.68422
349, 3, bw, attraction, a-b-da, 5, 3, 7, 18, 190, 117, 120, 195, 195, 120, 1, 0.831641
349, 3, bw, attraction, a-b-db, 9, 1, 7, 19, 135, 60, 60, 135, 57, 129, 1, 2.45198
349, 3, bw, attraction, a-b-db, 9, 1, 7, 19, 135, 60, 60, 135, 57, 129, 3, 0.632653
349, 3, bw, catch, NA, 999, 999, 7, 20, 66, 129, 128, 127, 170, 145, 3, 1.32477
349, 3, bw, catch, NA, 999, 999, 7, 20, 66, 129, 128, 127, 170, 145, 1, 0.54253
349, 3, bw, filler, NA, 999, 999, 7, 21, 127, 170, 96, 191, 114, 106, 2, 1.75829
349, 3, bw, filler, NA, 999, 999, 7, 21, 127, 170, 96, 191, 114, 106, 3, 0.742399
349, 3, bw, attraction, a-b-da, 9, 2, 7, 22, 165, 90, 157, 86, 90, 165, 3, 2.23007
349, 3, bw, attraction, a-b-da, 9, 2, 7, 22, 165, 90, 157, 86, 90, 165, 2, 0.355383
349, 3, bw, attraction, a-b-db, 9, 3, 7, 23, 195, 120, 120, 195, 114, 186, 1, 4.57914
349, 3, bw, attraction, a-b-db, 9, 3, 7, 23, 195, 120, 120, 195, 114, 186, 3, 0.465816
349, 3, bw, attraction, a-b-db, 14, 1, 7, 24, 56, 125, 135, 60, 60, 135, 3, 1.61293
349, 3, bw, attraction, a-b-db, 14, 1, 7, 24, 56, 125, 135, 60, 60, 135, 1, 0.618997
349, 3, bw, filler, NA, 999, 999, 7, 25, 112, 125, 131, 185, 130, 144, 2, 1.54412
349, 3, bw, filler, NA, 999, 999, 7, 25, 112, 125, 131, 185, 130, 144, 1, 0.568853
349, 3, bw, filler, NA, 999, 999, 7, 26, 176, 187, 140, 95, 69, 61, 1, 0.904136
349, 3, bw, filler, NA, 999, 999, 7, 26, 176, 187, 140, 95, 69, 61, 3, 0.491103
349, 3, bw, attraction, a-b-db, 14, 2, 7, 27, 83, 153, 90, 165, 165, 90, 3, 2.78881
349, 3, bw, attraction, a-b-db, 14, 2, 7, 27, 83, 153, 90, 165, 165, 90, 1, 0.627262
349, 3, bw, attraction, a-b-db, 2, 1, 7, 28, 135, 60, 59, 134, 60, 135, 3, 7.09573
349, 3, bw, attraction, a-b-db, 2, 1, 7, 28, 135, 60, 59, 134, 60, 135, 2, 1.42489
349, 3, bw, attraction, a-b-da, 9, 1, 7, 29, 135, 60, 60, 135, 129, 57, 1, 4.76492
349, 3, bw, attraction, a-b-da, 9, 1, 7, 29, 135, 60, 60, 135, 129, 57, 3, 0.364078
349, 3, bw, attraction, a-b-da, 5, 1, 7, 30, 60, 135, 135, 60, 132, 58, 1, 4.50734
349, 3, bw, attraction, a-b-da, 5, 1, 7, 30, 60, 135, 135, 60, 132, 58, 2, 0.308532
349, 3, bw, attraction, a-b-da, 14, 3, 7, 31, 120, 195, 181, 111, 195, 120, 1, 4.18171
349, 3, bw, attraction, a-b-da, 14, 3, 7, 31, 120, 195, 181, 111, 195, 120, 2, 0.340269
349, 3, bw, filler, NA, 999, 999, 7, 32, 66, 57, 57, 95, 60, 156, 3, 1.28423
349, 3, bw, filler, NA, 999, 999, 7, 32, 66, 57, 57, 95, 60, 156, 1, 0.375811
349, 3, bw, attraction, a-b-db, 5, 3, 7, 33, 195, 120, 120, 195, 117, 190, 1, 1.53422
349, 3, bw, attraction, a-b-db, 5, 3, 7, 33, 195, 120, 120, 195, 117, 190, 3, 0.599696
349, 3, bw, attraction, a-b-db, 2, 3, 7, 34, 195, 120, 120, 195, 119, 193, 1, 1.7334
349, 3, bw, attraction, a-b-db, 2, 3, 7, 34, 195, 120, 120, 195, 119, 193, 3, 0.414829
349, 3, bw, filler, NA, 999, 999, 7, 35, 103, 155, 172, 73, 78, 125, 1, 2.45998
349, 3, bw, filler, NA, 999, 999, 7, 35, 103, 155, 172, 73, 78, 125, 3, 0.303843
349, 3, bw, filler, NA, 999, 999, 7, 36, 195, 168, 151, 100, 59, 90, 1, 2.42569
349, 3, bw, filler, NA, 999, 999, 7, 36, 195, 168, 151, 100, 59, 90, 3, 0.838966
349, 3, bw, attraction, a-b-da, 9, 3, 7, 37, 120, 195, 195, 120, 186, 114, 2, 1.49938
349, 3, bw, attraction, a-b-da, 9, 3, 7, 37, 120, 195, 195, 120, 186, 114, 1, 0.302129
349, 3, bw, attraction, a-b-db, 14, 3, 8, 1, 120, 195, 195, 120, 111, 181, 1, 2.22406
349, 3, bw, attraction, a-b-db, 14, 3, 8, 1, 120, 195, 195, 120, 111, 181, 3, 1.10135
349, 3, bw, attraction, a-b-db, 5, 2, 8, 2, 88, 161, 90, 165, 165, 90, 2, 2.23101
349, 3, bw, attraction, a-b-db, 5, 2, 8, 2, 88, 161, 90, 165, 165, 90, 1, 0.596145
349, 3, bw, attraction, a-b-db, 2, 2, 8, 3, 89, 163, 90, 165, 165, 90, 1, 4.16995
349, 3, bw, attraction, a-b-db, 2, 2, 8, 3, 89, 163, 90, 165, 165, 90, 3, 1.06538
349, 3, bw, attraction, a-b-da, 14, 2, 8, 4, 153, 83, 90, 165, 165, 90, 2, 1.47616
349, 3, bw, attraction, a-b-da, 14, 2, 8, 4, 153, 83, 90, 165, 165, 90, 1, 0.495691
349, 3, bw, catch, NA, 999, 999, 8, 5, 134, 61, 130, 185, 165, 90, 2, 1.79354
349, 3, bw, catch, NA, 999, 999, 8, 5, 134, 61, 130, 185, 165, 90, 1, 0.544258
349, 3, bw, attraction, a-b-db, 5, 1, 8, 6, 58, 132, 60, 135, 135, 60, 1, 3.18398
349, 3, bw, attraction, a-b-db, 5, 1, 8, 6, 58, 132, 60, 135, 135, 60, 3, 0.654994
349, 3, bw, filler, NA, 999, 999, 8, 7, 125, 181, 94, 61, 166, 80, 1, 0.826705
349, 3, bw, filler, NA, 999, 999, 8, 7, 125, 181, 94, 61, 166, 80, 2, 0.384379
349, 3, bw, filler, NA, 999, 999, 8, 8, 68, 137, 126, 192, 116, 155, 2, 0.822857
349, 3, bw, filler, NA, 999, 999, 8, 8, 68, 137, 126, 192, 116, 155, 1, 0.324638
349, 3, bw, filler, NA, 999, 999, 8, 9, 133, 125, 86, 104, 147, 110, 1, 1.52516
349, 3, bw, filler, NA, 999, 999, 8, 9, 133, 125, 86, 104, 147, 110, 2, 0.702605
349, 3, bw, filler, NA, 999, 999, 8, 10, 177, 183, 160, 155, 140, 151, 1, 1.98434
349, 3, bw, filler, NA, 999, 999, 8, 10, 177, 183, 160, 155, 140, 151, 3, 0.463679
349, 3, bw, attraction, a-b-db, 14, 1, 8, 11, 56, 125, 135, 60, 60, 135, 2, 1.53082
349, 3, bw, attraction, a-b-db, 14, 1, 8, 11, 56, 125, 135, 60, 60, 135, 1, 0.292293
349, 3, bw, attraction, a-b-da, 5, 3, 8, 12, 190, 117, 120, 195, 195, 120, 2, 3.43828
349, 3, bw, attraction, a-b-da, 5, 3, 8, 12, 190, 117, 120, 195, 195, 120, 1, 0.787103
349, 3, bw, attraction, a-b-db, 9, 2, 8, 13, 165, 90, 90, 165, 86, 157, 2, 2.96141
349, 3, bw, attraction, a-b-db, 9, 2, 8, 13, 165, 90, 90, 165, 86, 157, 1, 0.305193
349, 3, bw, attraction, a-b-da, 14, 3, 8, 14, 195, 120, 181, 111, 120, 195, 2, 2.17951
349, 3, bw, attraction, a-b-da, 14, 3, 8, 14, 195, 120, 181, 111, 120, 195, 3, 0.26638
349, 3, bw, filler, NA, 999, 999, 8, 15, 180, 188, 178, 94, 156, 79, 1, 0.781518
349, 3, bw, filler, NA, 999, 999, 8, 15, 180, 188, 178, 94, 156, 79, 3, 0.821237
349, 3, bw, attraction, a-b-da, 9, 1, 8, 16, 60, 135, 129, 57, 135, 60, 1, 1.41031
349, 3, bw, attraction, a-b-da, 9, 1, 8, 16, 60, 135, 129, 57, 135, 60, 2, 0.61647
349, 3, bw, attraction, a-b-db, 2, 1, 8, 17, 135, 60, 60, 135, 59, 134, 2, 1.53351
349, 3, bw, attraction, a-b-db, 2, 1, 8, 17, 135, 60, 60, 135, 59, 134, 1, 0.735163
349, 3, bw, attraction, a-b-da, 2, 2, 8, 18, 163, 89, 90, 165, 165, 90, 2, 1.78337
349, 3, bw, attraction, a-b-da, 2, 2, 8, 18, 163, 89, 90, 165, 165, 90, 1, 0.374905
349, 3, bw, catch, NA, 999, 999, 8, 19, 158, 97, 130, 185, 82, 113, 2, 1.11726
349, 3, bw, catch, NA, 999, 999, 8, 19, 158, 97, 130, 185, 82, 113, 3, 0.43961
349, 3, bw, filler, NA, 999, 999, 8, 20, 88, 190, 171, 159, 98, 146, 2, 1.6281
349, 3, bw, filler, NA, 999, 999, 8, 20, 88, 190, 171, 159, 98, 146, 3, 0.35356
349, 3, bw, filler, NA, 999, 999, 8, 21, 80, 160, 172, 186, 137, 124, 2, 0.681442
349, 3, bw, filler, NA, 999, 999, 8, 21, 80, 160, 172, 186, 137, 124, 1, 0.29316
349, 3, bw, attraction, a-b-da, 2, 3, 8, 22, 195, 120, 120, 195, 193, 119, 3, 2.24706
349, 3, bw, attraction, a-b-da, 2, 3, 8, 22, 195, 120, 120, 195, 193, 119, 2, 0.643706
349, 3, bw, attraction, a-b-da, 2, 1, 8, 23, 134, 59, 135, 60, 60, 135, 2, 3.09534
349, 3, bw, attraction, a-b-da, 2, 1, 8, 23, 134, 59, 135, 60, 60, 135, 1, 0.32163
349, 3, bw, attraction, a-b-da, 9, 3, 8, 24, 186, 114, 195, 120, 120, 195, 2, 6.5709
349, 3, bw, attraction, a-b-da, 9, 3, 8, 24, 186, 114, 195, 120, 120, 195, 3, 0.321413
349, 3, bw, filler, NA, 999, 999, 8, 25, 176, 140, 127, 169, 111, 106, 1, 1.9707
349, 3, bw, filler, NA, 999, 999, 8, 25, 176, 140, 127, 169, 111, 106, 3, 0.786613
349, 3, bw, filler, NA, 999, 999, 8, 26, 176, 149, 98, 151, 157, 100, 1, 2.38503
349, 3, bw, filler, NA, 999, 999, 8, 26, 176, 149, 98, 151, 157, 100, 2, 0.60825
349, 3, bw, attraction, a-b-db, 9, 3, 8, 27, 195, 120, 120, 195, 114, 186, 2, 2.31743
349, 3, bw, attraction, a-b-db, 9, 3, 8, 27, 195, 120, 120, 195, 114, 186, 3, 0.711253
349, 3, bw, attraction, a-b-db, 9, 1, 8, 28, 135, 60, 57, 129, 60, 135, 3, 3.93632
349, 3, bw, attraction, a-b-db, 9, 1, 8, 28, 135, 60, 57, 129, 60, 135, 2, 0.289153
349, 3, bw, attraction, a-b-da, 14, 1, 8, 29, 135, 60, 125, 56, 60, 135, 3, 2.40362
349, 3, bw, attraction, a-b-da, 14, 1, 8, 29, 135, 60, 125, 56, 60, 135, 2, 0.490267
349, 3, bw, attraction, a-b-db, 14, 2, 8, 30, 165, 90, 90, 165, 83, 153, 2, 4.62007
349, 3, bw, attraction, a-b-db, 14, 2, 8, 30, 165, 90, 90, 165, 83, 153, 3, 1.02511
349, 3, bw, attraction, a-b-db, 5, 3, 8, 31, 120, 195, 117, 190, 195, 120, 3, 3.74146
349, 3, bw, attraction, a-b-db, 5, 3, 8, 31, 120, 195, 117, 190, 195, 120, 2, 1.58973
349, 3, bw, attraction, a-b-da, 9, 2, 8, 32, 157, 86, 165, 90, 90, 165, 3, 1.18761
349, 3, bw, attraction, a-b-da, 9, 2, 8, 32, 157, 86, 165, 90, 90, 165, 2, 0.602649
349, 3, bw, attraction, a-b-da, 5, 1, 8, 33, 132, 58, 60, 135, 135, 60, 2, 1.32829
349, 3, bw, attraction, a-b-da, 5, 1, 8, 33, 132, 58, 60, 135, 135, 60, 3, 0.657888
349, 3, bw, catch, NA, 999, 999, 8, 34, 112, 83, 134, 181, 111, 144, 2, 0.741034
349, 3, bw, catch, NA, 999, 999, 8, 34, 112, 83, 134, 181, 111, 144, 1, 0.686069
349, 3, bw, filler, NA, 999, 999, 8, 35, 138, 141, 78, 64, 80, 130, 1, 1.00842
349, 3, bw, filler, NA, 999, 999, 8, 35, 138, 141, 78, 64, 80, 130, 2, 0.390697
349, 3, bw, attraction, a-b-da, 5, 2, 8, 36, 90, 165, 161, 88, 165, 90, 1, 2.42058
349, 3, bw, attraction, a-b-da, 5, 2, 8, 36, 90, 165, 161, 88, 165, 90, 3, 0.442441
349, 3, bw, attraction, a-b-db, 2, 3, 8, 37, 195, 120, 119, 193, 120, 195, 1, 1.49426
349, 3, bw, attraction, a-b-db, 2, 3, 8, 37, 195, 120, 119, 193, 120, 195, 3, 0.369078
