sub_n, computer_n, bw_cond, effect, set, distance, diag, block_n, trial_n, h1, w1, h2, w2, h3, w3, choice, rt 
361, 3, bw, practice, NA, 999, 999, 0, 1, 190, 61, 112, 83, 168, 186, 3, 4.61866
361, 3, bw, practice, NA, 999, 999, 0, 1, 190, 61, 112, 83, 168, 186, 2, 3.8407
361, 3, bw, practice, NA, 999, 999, 0, 2, 129, 107, 71, 84, 179, 186, 3, 3.0222
361, 3, bw, practice, NA, 999, 999, 0, 2, 129, 107, 71, 84, 179, 186, 2, 1.30246
361, 3, bw, practice, NA, 999, 999, 0, 3, 188, 63, 88, 138, 193, 57, 2, 5.13972
361, 3, bw, practice, NA, 999, 999, 0, 3, 188, 63, 88, 138, 193, 57, 3, 2.14773
361, 3, bw, attraction, a-b-da, 2, 2, 1, 1, 165, 90, 163, 89, 90, 165, 3, 3.36703
361, 3, bw, attraction, a-b-da, 2, 2, 1, 1, 165, 90, 163, 89, 90, 165, 2, 1.29464
361, 3, bw, attraction, a-b-da, 9, 2, 1, 2, 165, 90, 157, 86, 90, 165, 3, 2.94411
361, 3, bw, attraction, a-b-da, 9, 2, 1, 2, 165, 90, 157, 86, 90, 165, 2, 0.976569
361, 3, bw, attraction, a-b-db, 9, 2, 1, 3, 90, 165, 86, 157, 165, 90, 1, 2.45476
361, 3, bw, attraction, a-b-db, 9, 2, 1, 3, 90, 165, 86, 157, 165, 90, 3, 1.11472
361, 3, bw, attraction, a-b-da, 9, 1, 1, 4, 129, 57, 135, 60, 60, 135, 3, 2.20354
361, 3, bw, attraction, a-b-da, 9, 1, 1, 4, 129, 57, 135, 60, 60, 135, 1, 1.2742
361, 3, bw, filler, NA, 999, 999, 1, 5, 161, 162, 116, 123, 117, 111, 1, 1.34837
361, 3, bw, filler, NA, 999, 999, 1, 5, 161, 162, 116, 123, 117, 111, 3, 0.677365
361, 3, bw, attraction, a-b-da, 5, 1, 1, 6, 132, 58, 60, 135, 135, 60, 3, 3.50369
361, 3, bw, attraction, a-b-da, 5, 1, 1, 6, 132, 58, 60, 135, 135, 60, 1, 1.64201
361, 3, bw, attraction, a-b-db, 5, 2, 1, 7, 90, 165, 165, 90, 88, 161, 2, 9.84531
361, 3, bw, attraction, a-b-db, 5, 2, 1, 7, 90, 165, 165, 90, 88, 161, 1, 1.70355
361, 3, bw, filler, NA, 999, 999, 1, 8, 189, 129, 122, 105, 143, 175, 1, 2.63316
361, 3, bw, filler, NA, 999, 999, 1, 8, 189, 129, 122, 105, 143, 175, 2, 1.02214
361, 3, bw, catch, NA, 999, 999, 1, 9, 129, 186, 154, 101, 119, 76, 1, 0.795177
361, 3, bw, catch, NA, 999, 999, 1, 9, 129, 186, 154, 101, 119, 76, 3, 0.858348
361, 3, bw, attraction, a-b-da, 2, 3, 1, 10, 120, 195, 193, 119, 195, 120, 2, 1.41311
361, 3, bw, attraction, a-b-da, 2, 3, 1, 10, 120, 195, 193, 119, 195, 120, 3, 0.539384
361, 3, bw, attraction, a-b-db, 9, 3, 1, 11, 195, 120, 114, 186, 120, 195, 1, 2.29983
361, 3, bw, attraction, a-b-db, 9, 3, 1, 11, 195, 120, 114, 186, 120, 195, 2, 0.526426
361, 3, bw, catch, NA, 999, 999, 1, 12, 130, 65, 161, 94, 139, 176, 3, 1.16683
361, 3, bw, catch, NA, 999, 999, 1, 12, 130, 65, 161, 94, 139, 176, 1, 1.15106
361, 3, bw, filler, NA, 999, 999, 1, 13, 106, 118, 184, 143, 135, 72, 2, 0.798666
361, 3, bw, filler, NA, 999, 999, 1, 13, 106, 118, 184, 143, 135, 72, 3, 1.92576
361, 3, bw, attraction, a-b-db, 2, 1, 1, 14, 59, 134, 60, 135, 135, 60, 2, 3.12575
361, 3, bw, attraction, a-b-db, 2, 1, 1, 14, 59, 134, 60, 135, 135, 60, 1, 1.45474
361, 3, bw, filler, NA, 999, 999, 1, 15, 194, 153, 157, 129, 58, 137, 1, 1.15416
361, 3, bw, filler, NA, 999, 999, 1, 15, 194, 153, 157, 129, 58, 137, 3, 0.395285
361, 3, bw, filler, NA, 999, 999, 1, 16, 133, 132, 182, 163, 183, 127, 2, 2.54501
361, 3, bw, filler, NA, 999, 999, 1, 16, 133, 132, 182, 163, 183, 127, 1, 2.92952
361, 3, bw, attraction, a-b-db, 14, 2, 1, 17, 165, 90, 83, 153, 90, 165, 3, 4.3373
361, 3, bw, attraction, a-b-db, 14, 2, 1, 17, 165, 90, 83, 153, 90, 165, 2, 1.30594
361, 3, bw, attraction, a-b-da, 9, 3, 1, 18, 120, 195, 186, 114, 195, 120, 1, 4.47542
361, 3, bw, attraction, a-b-da, 9, 3, 1, 18, 120, 195, 186, 114, 195, 120, 2, 1.06191
361, 3, bw, attraction, a-b-da, 5, 2, 1, 19, 90, 165, 165, 90, 161, 88, 1, 3.33693
361, 3, bw, attraction, a-b-da, 5, 2, 1, 19, 90, 165, 165, 90, 161, 88, 3, 0.83382
361, 3, bw, attraction, a-b-db, 5, 3, 1, 20, 117, 190, 120, 195, 195, 120, 2, 3.69419
361, 3, bw, attraction, a-b-db, 5, 3, 1, 20, 117, 190, 120, 195, 195, 120, 1, 2.96046
361, 3, bw, attraction, a-b-da, 14, 1, 1, 21, 60, 135, 135, 60, 125, 56, 1, 5.51857
361, 3, bw, attraction, a-b-da, 14, 1, 1, 21, 60, 135, 135, 60, 125, 56, 3, 0.631572
361, 3, bw, attraction, a-b-db, 14, 1, 1, 22, 60, 135, 135, 60, 56, 125, 1, 3.828
361, 3, bw, attraction, a-b-db, 14, 1, 1, 22, 60, 135, 135, 60, 56, 125, 3, 1.41679
361, 3, bw, attraction, a-b-da, 14, 3, 1, 23, 120, 195, 195, 120, 181, 111, 2, 3.22153
361, 3, bw, attraction, a-b-da, 14, 3, 1, 23, 120, 195, 195, 120, 181, 111, 3, 0.499208
361, 3, bw, attraction, a-b-da, 5, 3, 1, 24, 195, 120, 190, 117, 120, 195, 3, 2.55699
361, 3, bw, attraction, a-b-da, 5, 3, 1, 24, 195, 120, 190, 117, 120, 195, 2, 1.40489
361, 3, bw, attraction, a-b-db, 14, 3, 1, 25, 120, 195, 111, 181, 195, 120, 1, 1.68234
361, 3, bw, attraction, a-b-db, 14, 3, 1, 25, 120, 195, 111, 181, 195, 120, 2, 0.549829
361, 3, bw, attraction, a-b-db, 5, 1, 1, 26, 58, 132, 60, 135, 135, 60, 2, 4.03753
361, 3, bw, attraction, a-b-db, 5, 1, 1, 26, 58, 132, 60, 135, 135, 60, 1, 2.06632
361, 3, bw, filler, NA, 999, 999, 1, 27, 142, 91, 112, 192, 117, 70, 2, 7.36497
361, 3, bw, filler, NA, 999, 999, 1, 27, 142, 91, 112, 192, 117, 70, 3, 0.715271
361, 3, bw, filler, NA, 999, 999, 1, 28, 183, 110, 101, 177, 117, 184, 3, 2.40429
361, 3, bw, filler, NA, 999, 999, 1, 28, 183, 110, 101, 177, 117, 184, 2, 3.1869
361, 3, bw, filler, NA, 999, 999, 1, 29, 81, 130, 88, 177, 74, 167, 2, 2.84859
361, 3, bw, filler, NA, 999, 999, 1, 29, 81, 130, 88, 177, 74, 167, 1, 0.47694
361, 3, bw, attraction, a-b-db, 2, 3, 1, 30, 119, 193, 195, 120, 120, 195, 1, 2.16727
361, 3, bw, attraction, a-b-db, 2, 3, 1, 30, 119, 193, 195, 120, 120, 195, 3, 2.43943
361, 3, bw, attraction, a-b-da, 2, 1, 1, 31, 135, 60, 134, 59, 60, 135, 2, 3.74717
361, 3, bw, attraction, a-b-da, 2, 1, 1, 31, 135, 60, 134, 59, 60, 135, 1, 0.619425
361, 3, bw, attraction, a-b-db, 2, 2, 1, 32, 165, 90, 89, 163, 90, 165, 2, 7.99257
361, 3, bw, attraction, a-b-db, 2, 2, 1, 32, 165, 90, 89, 163, 90, 165, 1, 0.821336
361, 3, bw, filler, NA, 999, 999, 1, 33, 178, 103, 195, 182, 117, 125, 2, 0.754162
361, 3, bw, filler, NA, 999, 999, 1, 33, 178, 103, 195, 182, 117, 125, 3, 0.803284
361, 3, bw, catch, NA, 999, 999, 1, 34, 104, 151, 134, 181, 95, 100, 2, 1.345
361, 3, bw, catch, NA, 999, 999, 1, 34, 104, 151, 134, 181, 95, 100, 3, 0.60188
361, 3, bw, attraction, a-b-da, 14, 2, 1, 35, 90, 165, 165, 90, 153, 83, 1, 3.45559
361, 3, bw, attraction, a-b-da, 14, 2, 1, 35, 90, 165, 165, 90, 153, 83, 3, 0.587138
361, 3, bw, attraction, a-b-db, 9, 1, 1, 36, 60, 135, 57, 129, 135, 60, 2, 4.33759
361, 3, bw, attraction, a-b-db, 9, 1, 1, 36, 60, 135, 57, 129, 135, 60, 1, 0.538221
361, 3, bw, filler, NA, 999, 999, 1, 37, 122, 160, 194, 79, 161, 147, 3, 3.61873
361, 3, bw, filler, NA, 999, 999, 1, 37, 122, 160, 194, 79, 161, 147, 1, 0.600168
361, 3, bw, attraction, a-b-da, 5, 1, 2, 1, 60, 135, 132, 58, 135, 60, 3, 2.60597
361, 3, bw, attraction, a-b-da, 5, 1, 2, 1, 60, 135, 132, 58, 135, 60, 1, 1.46775
361, 3, bw, attraction, a-b-da, 5, 2, 2, 2, 161, 88, 165, 90, 90, 165, 3, 2.99855
361, 3, bw, attraction, a-b-da, 5, 2, 2, 2, 161, 88, 165, 90, 90, 165, 1, 0.540867
361, 3, bw, filler, NA, 999, 999, 2, 3, 116, 113, 125, 153, 109, 99, 2, 1.47667
361, 3, bw, filler, NA, 999, 999, 2, 3, 116, 113, 125, 153, 109, 99, 3, 0.576249
361, 3, bw, attraction, a-b-db, 14, 3, 2, 4, 120, 195, 195, 120, 111, 181, 1, 2.29461
361, 3, bw, attraction, a-b-db, 14, 3, 2, 4, 120, 195, 195, 120, 111, 181, 3, 0.697323
361, 3, bw, filler, NA, 999, 999, 2, 5, 86, 107, 85, 174, 140, 85, 2, 2.48309
361, 3, bw, filler, NA, 999, 999, 2, 5, 86, 107, 85, 174, 140, 85, 1, 0.694219
361, 3, bw, attraction, a-b-da, 9, 1, 2, 6, 129, 57, 135, 60, 60, 135, 2, 4.99193
361, 3, bw, attraction, a-b-da, 9, 1, 2, 6, 129, 57, 135, 60, 60, 135, 1, 0.509636
361, 3, bw, attraction, a-b-da, 14, 2, 2, 7, 165, 90, 153, 83, 90, 165, 1, 0.854737
361, 3, bw, attraction, a-b-da, 14, 2, 2, 7, 165, 90, 153, 83, 90, 165, 2, 1.11514
361, 3, bw, attraction, a-b-da, 2, 1, 2, 8, 60, 135, 134, 59, 135, 60, 1, 2.14805
361, 3, bw, attraction, a-b-da, 2, 1, 2, 8, 60, 135, 134, 59, 135, 60, 3, 2.6687
361, 3, bw, filler, NA, 999, 999, 2, 9, 115, 195, 86, 176, 183, 120, 3, 1.70315
361, 3, bw, filler, NA, 999, 999, 2, 9, 115, 195, 86, 176, 183, 120, 2, 0.657887
361, 3, bw, attraction, a-b-db, 14, 2, 2, 10, 90, 165, 165, 90, 83, 153, 1, 1.03697
361, 3, bw, attraction, a-b-db, 14, 2, 2, 10, 90, 165, 165, 90, 83, 153, 3, 0.450628
361, 3, bw, catch, NA, 999, 999, 2, 11, 122, 133, 60, 135, 172, 143, 3, 1.04645
361, 3, bw, catch, NA, 999, 999, 2, 11, 122, 133, 60, 135, 172, 143, 2, 0.323498
361, 3, bw, attraction, a-b-db, 2, 1, 2, 12, 60, 135, 59, 134, 135, 60, 3, 2.19601
361, 3, bw, attraction, a-b-db, 2, 1, 2, 12, 60, 135, 59, 134, 135, 60, 2, 0.466472
361, 3, bw, catch, NA, 999, 999, 2, 13, 137, 118, 60, 135, 129, 186, 3, 1.84565
361, 3, bw, catch, NA, 999, 999, 2, 13, 137, 118, 60, 135, 129, 186, 2, 0.642559
361, 3, bw, attraction, a-b-da, 9, 3, 2, 14, 120, 195, 195, 120, 186, 114, 1, 3.01414
361, 3, bw, attraction, a-b-da, 9, 3, 2, 14, 120, 195, 195, 120, 186, 114, 3, 0.795804
361, 3, bw, filler, NA, 999, 999, 2, 15, 160, 92, 144, 105, 164, 156, 3, 2.19357
361, 3, bw, filler, NA, 999, 999, 2, 15, 160, 92, 144, 105, 164, 156, 1, 0.968159
361, 3, bw, attraction, a-b-db, 5, 1, 2, 16, 135, 60, 58, 132, 60, 135, 1, 2.11915
361, 3, bw, attraction, a-b-db, 5, 1, 2, 16, 135, 60, 58, 132, 60, 135, 3, 0.489067
361, 3, bw, attraction, a-b-da, 2, 3, 2, 17, 195, 120, 120, 195, 193, 119, 2, 8.59548
361, 3, bw, attraction, a-b-da, 2, 3, 2, 17, 195, 120, 120, 195, 193, 119, 3, 0.30408
361, 3, bw, attraction, a-b-db, 5, 2, 2, 18, 165, 90, 88, 161, 90, 165, 2, 2.01006
361, 3, bw, attraction, a-b-db, 5, 2, 2, 18, 165, 90, 88, 161, 90, 165, 1, 0.352031
361, 3, bw, attraction, a-b-da, 2, 2, 2, 19, 165, 90, 90, 165, 163, 89, 1, 0.959847
361, 3, bw, attraction, a-b-da, 2, 2, 2, 19, 165, 90, 90, 165, 163, 89, 3, 0.552226
361, 3, bw, filler, NA, 999, 999, 2, 20, 68, 178, 137, 142, 132, 142, 2, 2.47201
361, 3, bw, filler, NA, 999, 999, 2, 20, 68, 178, 137, 142, 132, 142, 1, 0.275212
361, 3, bw, attraction, a-b-db, 9, 3, 2, 21, 195, 120, 120, 195, 114, 186, 2, 2.85366
361, 3, bw, attraction, a-b-db, 9, 3, 2, 21, 195, 120, 120, 195, 114, 186, 1, 1.01805
361, 3, bw, filler, NA, 999, 999, 2, 22, 167, 122, 62, 175, 104, 106, 1, 0.943035
361, 3, bw, filler, NA, 999, 999, 2, 22, 167, 122, 62, 175, 104, 106, 3, 0.296056
361, 3, bw, attraction, a-b-db, 2, 3, 2, 23, 120, 195, 119, 193, 195, 120, 3, 4.44195
361, 3, bw, attraction, a-b-db, 2, 3, 2, 23, 120, 195, 119, 193, 195, 120, 1, 0.669855
361, 3, bw, catch, NA, 999, 999, 2, 24, 112, 83, 134, 121, 150, 165, 3, 1.16885
361, 3, bw, catch, NA, 999, 999, 2, 24, 112, 83, 134, 121, 150, 165, 1, 0.369158
361, 3, bw, filler, NA, 999, 999, 2, 25, 80, 90, 157, 99, 142, 110, 2, 2.27233
361, 3, bw, filler, NA, 999, 999, 2, 25, 80, 90, 157, 99, 142, 110, 1, 0.331633
361, 3, bw, filler, NA, 999, 999, 2, 26, 118, 96, 188, 191, 194, 166, 2, 1.58013
361, 3, bw, filler, NA, 999, 999, 2, 26, 118, 96, 188, 191, 194, 166, 1, 0.38758
361, 3, bw, attraction, a-b-da, 14, 1, 2, 27, 135, 60, 125, 56, 60, 135, 1, 3.00199
361, 3, bw, attraction, a-b-da, 14, 1, 2, 27, 135, 60, 125, 56, 60, 135, 2, 0.664427
361, 3, bw, attraction, a-b-db, 9, 2, 2, 28, 90, 165, 165, 90, 86, 157, 1, 5.06754
361, 3, bw, attraction, a-b-db, 9, 2, 2, 28, 90, 165, 165, 90, 86, 157, 3, 0.502642
361, 3, bw, attraction, a-b-db, 14, 1, 2, 29, 60, 135, 56, 125, 135, 60, 1, 1.77648
361, 3, bw, attraction, a-b-db, 14, 1, 2, 29, 60, 135, 56, 125, 135, 60, 3, 0.719867
361, 3, bw, attraction, a-b-da, 14, 3, 2, 30, 120, 195, 195, 120, 181, 111, 2, 15.1768
361, 3, bw, attraction, a-b-da, 14, 3, 2, 30, 120, 195, 195, 120, 181, 111, 3, 0.492133
361, 3, bw, attraction, a-b-da, 5, 3, 2, 31, 190, 117, 195, 120, 120, 195, 2, 15.6859
361, 3, bw, attraction, a-b-da, 5, 3, 2, 31, 190, 117, 195, 120, 120, 195, 1, 0.612927
361, 3, bw, attraction, a-b-db, 9, 1, 2, 32, 135, 60, 60, 135, 57, 129, 2, 6.8101
361, 3, bw, attraction, a-b-db, 9, 1, 2, 32, 135, 60, 60, 135, 57, 129, 1, 0.918483
361, 3, bw, filler, NA, 999, 999, 2, 33, 165, 165, 129, 95, 78, 170, 1, 37.7435
361, 3, bw, filler, NA, 999, 999, 2, 33, 165, 165, 129, 95, 78, 170, 3, 0.413756
361, 3, bw, attraction, a-b-db, 5, 3, 2, 34, 120, 195, 117, 190, 195, 120, 1, 3.53079
361, 3, bw, attraction, a-b-db, 5, 3, 2, 34, 120, 195, 117, 190, 195, 120, 3, 0.267686
361, 3, bw, attraction, a-b-db, 2, 2, 2, 35, 90, 165, 89, 163, 165, 90, 2, 1.21491
361, 3, bw, attraction, a-b-db, 2, 2, 2, 35, 90, 165, 89, 163, 165, 90, 3, 0.261199
361, 3, bw, attraction, a-b-da, 9, 2, 2, 36, 90, 165, 157, 86, 165, 90, 1, 0.904403
361, 3, bw, attraction, a-b-da, 9, 2, 2, 36, 90, 165, 157, 86, 165, 90, 3, 0.315478
361, 3, bw, filler, NA, 999, 999, 2, 37, 69, 71, 117, 183, 82, 102, 2, 0.788656
361, 3, bw, filler, NA, 999, 999, 2, 37, 69, 71, 117, 183, 82, 102, 1, 0.715536
361, 3, bw, filler, NA, 999, 999, 3, 1, 128, 160, 108, 63, 159, 161, 3, 0.884596
361, 3, bw, filler, NA, 999, 999, 3, 1, 128, 160, 108, 63, 159, 161, 2, 0.416331
361, 3, bw, attraction, a-b-da, 14, 2, 3, 2, 90, 165, 153, 83, 165, 90, 2, 1.16551
361, 3, bw, attraction, a-b-da, 14, 2, 3, 2, 90, 165, 153, 83, 165, 90, 3, 0.261894
361, 3, bw, filler, NA, 999, 999, 3, 3, 149, 86, 123, 59, 98, 104, 1, 0.672997
361, 3, bw, filler, NA, 999, 999, 3, 3, 149, 86, 123, 59, 98, 104, 2, 0.844821
361, 3, bw, attraction, a-b-db, 14, 2, 3, 4, 90, 165, 165, 90, 83, 153, 1, 0.968445
361, 3, bw, attraction, a-b-db, 14, 2, 3, 4, 90, 165, 165, 90, 83, 153, 3, 0.824823
361, 3, bw, attraction, a-b-db, 9, 1, 3, 5, 135, 60, 60, 135, 57, 129, 1, 0.685114
361, 3, bw, attraction, a-b-db, 9, 1, 3, 5, 135, 60, 60, 135, 57, 129, 3, 0.624871
361, 3, bw, attraction, a-b-db, 5, 2, 3, 6, 88, 161, 90, 165, 165, 90, 2, 3.2372
361, 3, bw, attraction, a-b-db, 5, 2, 3, 6, 88, 161, 90, 165, 165, 90, 1, 0.658168
361, 3, bw, filler, NA, 999, 999, 3, 7, 194, 82, 138, 156, 147, 104, 2, 3.05333
361, 3, bw, filler, NA, 999, 999, 3, 7, 194, 82, 138, 156, 147, 104, 3, 0.857679
361, 3, bw, attraction, a-b-da, 14, 3, 3, 8, 181, 111, 120, 195, 195, 120, 3, 1.34866
361, 3, bw, attraction, a-b-da, 14, 3, 3, 8, 181, 111, 120, 195, 195, 120, 1, 0.533542
361, 3, bw, attraction, a-b-da, 2, 1, 3, 9, 60, 135, 135, 60, 134, 59, 1, 2.57389
361, 3, bw, attraction, a-b-da, 2, 1, 3, 9, 60, 135, 135, 60, 134, 59, 3, 0.389158
361, 3, bw, filler, NA, 999, 999, 3, 10, 96, 189, 194, 130, 153, 129, 2, 0.811551
361, 3, bw, filler, NA, 999, 999, 3, 10, 96, 189, 194, 130, 153, 129, 3, 0.330114
361, 3, bw, catch, NA, 999, 999, 3, 11, 87, 108, 189, 126, 99, 156, 2, 0.962479
361, 3, bw, catch, NA, 999, 999, 3, 11, 87, 108, 189, 126, 99, 156, 1, 0.410868
361, 3, bw, attraction, a-b-da, 5, 2, 3, 12, 161, 88, 165, 90, 90, 165, 2, 3.83207
361, 3, bw, attraction, a-b-da, 5, 2, 3, 12, 161, 88, 165, 90, 90, 165, 1, 0.452785
361, 3, bw, filler, NA, 999, 999, 3, 13, 125, 85, 68, 65, 70, 173, 3, 2.11258
361, 3, bw, filler, NA, 999, 999, 3, 13, 125, 85, 68, 65, 70, 173, 2, 0.842521
361, 3, bw, catch, NA, 999, 999, 3, 14, 130, 65, 116, 139, 170, 145, 3, 1.15839
361, 3, bw, catch, NA, 999, 999, 3, 14, 130, 65, 116, 139, 170, 145, 1, 0.98255
361, 3, bw, filler, NA, 999, 999, 3, 15, 88, 177, 88, 152, 120, 93, 3, 3.57291
361, 3, bw, filler, NA, 999, 999, 3, 15, 88, 177, 88, 152, 120, 93, 2, 2.13975
361, 3, bw, attraction, a-b-db, 9, 2, 3, 16, 86, 157, 90, 165, 165, 90, 3, 1.01161
361, 3, bw, attraction, a-b-db, 9, 2, 3, 16, 86, 157, 90, 165, 165, 90, 2, 0.497941
361, 3, bw, catch, NA, 999, 999, 3, 17, 117, 138, 135, 60, 133, 182, 3, 0.97173
361, 3, bw, catch, NA, 999, 999, 3, 17, 117, 138, 135, 60, 133, 182, 2, 0.467398
361, 3, bw, attraction, a-b-db, 2, 3, 3, 18, 119, 193, 120, 195, 195, 120, 3, 1.51054
361, 3, bw, attraction, a-b-db, 2, 3, 3, 18, 119, 193, 120, 195, 195, 120, 1, 0.488708
361, 3, bw, filler, NA, 999, 999, 3, 19, 94, 145, 151, 173, 168, 152, 3, 0.843308
361, 3, bw, filler, NA, 999, 999, 3, 19, 94, 145, 151, 173, 168, 152, 1, 0.440364
361, 3, bw, attraction, a-b-db, 2, 1, 3, 20, 59, 134, 60, 135, 135, 60, 3, 1.65201
361, 3, bw, attraction, a-b-db, 2, 1, 3, 20, 59, 134, 60, 135, 135, 60, 1, 0.560812
361, 3, bw, attraction, a-b-da, 5, 3, 3, 21, 120, 195, 190, 117, 195, 120, 3, 2.35992
361, 3, bw, attraction, a-b-da, 5, 3, 3, 21, 120, 195, 190, 117, 195, 120, 2, 0.735761
361, 3, bw, filler, NA, 999, 999, 3, 22, 134, 131, 194, 170, 175, 89, 2, 1.71212
361, 3, bw, filler, NA, 999, 999, 3, 22, 134, 131, 194, 170, 175, 89, 1, 0.714262
361, 3, bw, attraction, a-b-db, 14, 1, 3, 23, 56, 125, 60, 135, 135, 60, 3, 3.55531
361, 3, bw, attraction, a-b-db, 14, 1, 3, 23, 56, 125, 60, 135, 135, 60, 1, 0.370829
361, 3, bw, attraction, a-b-db, 9, 3, 3, 24, 120, 195, 114, 186, 195, 120, 3, 1.28198
361, 3, bw, attraction, a-b-db, 9, 3, 3, 24, 120, 195, 114, 186, 195, 120, 2, 0.669774
361, 3, bw, attraction, a-b-db, 5, 3, 3, 25, 195, 120, 117, 190, 120, 195, 1, 2.51266
361, 3, bw, attraction, a-b-db, 5, 3, 3, 25, 195, 120, 117, 190, 120, 195, 2, 0.370503
361, 3, bw, attraction, a-b-da, 9, 3, 3, 26, 195, 120, 120, 195, 186, 114, 1, 2.16966
361, 3, bw, attraction, a-b-da, 9, 3, 3, 26, 195, 120, 120, 195, 186, 114, 2, 0.56963
361, 3, bw, attraction, a-b-da, 9, 2, 3, 27, 157, 86, 90, 165, 165, 90, 3, 3.0567
361, 3, bw, attraction, a-b-da, 9, 2, 3, 27, 157, 86, 90, 165, 165, 90, 1, 0.452438
361, 3, bw, attraction, a-b-da, 2, 2, 3, 28, 163, 89, 90, 165, 165, 90, 3, 0.992322
361, 3, bw, attraction, a-b-da, 2, 2, 3, 28, 163, 89, 90, 165, 165, 90, 1, 0.359164
361, 3, bw, filler, NA, 999, 999, 3, 29, 88, 146, 65, 104, 190, 152, 3, 0.86233
361, 3, bw, filler, NA, 999, 999, 3, 29, 88, 146, 65, 104, 190, 152, 2, 0.394672
361, 3, bw, attraction, a-b-db, 5, 1, 3, 30, 58, 132, 60, 135, 135, 60, 2, 3.14456
361, 3, bw, attraction, a-b-db, 5, 1, 3, 30, 58, 132, 60, 135, 135, 60, 1, 1.1689
361, 3, bw, attraction, a-b-da, 14, 1, 3, 31, 125, 56, 135, 60, 60, 135, 2, 1.18379
361, 3, bw, attraction, a-b-da, 14, 1, 3, 31, 125, 56, 135, 60, 60, 135, 3, 0.311477
361, 3, bw, filler, NA, 999, 999, 3, 32, 70, 159, 137, 154, 97, 96, 2, 0.640535
361, 3, bw, filler, NA, 999, 999, 3, 32, 70, 159, 137, 154, 97, 96, 3, 0.413687
361, 3, bw, attraction, a-b-db, 14, 3, 3, 33, 111, 181, 120, 195, 195, 120, 3, 1.52281
361, 3, bw, attraction, a-b-db, 14, 3, 3, 33, 111, 181, 120, 195, 195, 120, 1, 0.676415
361, 3, bw, attraction, a-b-da, 5, 1, 3, 34, 132, 58, 60, 135, 135, 60, 3, 1.11069
361, 3, bw, attraction, a-b-da, 5, 1, 3, 34, 132, 58, 60, 135, 135, 60, 2, 0.61706
361, 3, bw, attraction, a-b-db, 2, 2, 3, 35, 165, 90, 90, 165, 89, 163, 1, 0.91002
361, 3, bw, attraction, a-b-db, 2, 2, 3, 35, 165, 90, 90, 165, 89, 163, 3, 0.432395
361, 3, bw, attraction, a-b-da, 2, 3, 3, 36, 193, 119, 120, 195, 195, 120, 3, 2.045
361, 3, bw, attraction, a-b-da, 2, 3, 3, 36, 193, 119, 120, 195, 195, 120, 1, 0.281549
361, 3, bw, attraction, a-b-da, 9, 1, 3, 37, 60, 135, 135, 60, 129, 57, 1, 1.73213
361, 3, bw, attraction, a-b-da, 9, 1, 3, 37, 60, 135, 135, 60, 129, 57, 3, 0.349509
361, 3, bw, attraction, a-b-da, 2, 3, 4, 1, 195, 120, 193, 119, 120, 195, 1, 0.717501
361, 3, bw, attraction, a-b-da, 2, 3, 4, 1, 195, 120, 193, 119, 120, 195, 2, 0.623938
361, 3, bw, attraction, a-b-db, 14, 2, 4, 2, 83, 153, 165, 90, 90, 165, 3, 2.24437
361, 3, bw, attraction, a-b-db, 14, 2, 4, 2, 83, 153, 165, 90, 90, 165, 1, 0.552923
361, 3, bw, attraction, a-b-db, 2, 1, 4, 3, 59, 134, 135, 60, 60, 135, 1, 2.96067
361, 3, bw, attraction, a-b-db, 2, 1, 4, 3, 59, 134, 135, 60, 60, 135, 3, 0.872298
361, 3, bw, catch, NA, 999, 999, 4, 4, 156, 159, 69, 126, 160, 95, 1, 1.19531
361, 3, bw, catch, NA, 999, 999, 4, 4, 156, 159, 69, 126, 160, 95, 2, 0.410254
361, 3, bw, attraction, a-b-db, 2, 2, 4, 5, 89, 163, 90, 165, 165, 90, 3, 1.99936
361, 3, bw, attraction, a-b-db, 2, 2, 4, 5, 89, 163, 90, 165, 165, 90, 1, 1.25411
361, 3, bw, attraction, a-b-da, 14, 2, 4, 6, 90, 165, 165, 90, 153, 83, 2, 2.21769
361, 3, bw, attraction, a-b-da, 14, 2, 4, 6, 90, 165, 165, 90, 153, 83, 3, 0.31964
361, 3, bw, attraction, a-b-da, 9, 1, 4, 7, 60, 135, 129, 57, 135, 60, 3, 1.91276
361, 3, bw, attraction, a-b-da, 9, 1, 4, 7, 60, 135, 129, 57, 135, 60, 2, 0.426839
361, 3, bw, attraction, a-b-db, 2, 3, 4, 8, 195, 120, 119, 193, 120, 195, 1, 1.46332
361, 3, bw, attraction, a-b-db, 2, 3, 4, 8, 195, 120, 119, 193, 120, 195, 3, 0.531519
361, 3, bw, attraction, a-b-da, 14, 1, 4, 9, 125, 56, 135, 60, 60, 135, 2, 1.74783
361, 3, bw, attraction, a-b-da, 14, 1, 4, 9, 125, 56, 135, 60, 60, 135, 1, 0.33262
361, 3, bw, filler, NA, 999, 999, 4, 10, 156, 84, 81, 73, 128, 134, 1, 0.765071
361, 3, bw, filler, NA, 999, 999, 4, 10, 156, 84, 81, 73, 128, 134, 2, 1.82152
361, 3, bw, attraction, a-b-da, 5, 1, 4, 11, 60, 135, 132, 58, 135, 60, 2, 1.78618
361, 3, bw, attraction, a-b-da, 5, 1, 4, 11, 60, 135, 132, 58, 135, 60, 3, 0.697619
361, 3, bw, attraction, a-b-da, 9, 2, 4, 12, 90, 165, 165, 90, 157, 86, 2, 1.9153
361, 3, bw, attraction, a-b-da, 9, 2, 4, 12, 90, 165, 165, 90, 157, 86, 3, 0.573508
361, 3, bw, attraction, a-b-da, 5, 3, 4, 13, 190, 117, 195, 120, 120, 195, 3, 2.98784
361, 3, bw, attraction, a-b-da, 5, 3, 4, 13, 190, 117, 195, 120, 120, 195, 2, 0.722886
361, 3, bw, filler, NA, 999, 999, 4, 14, 60, 73, 137, 122, 101, 177, 2, 0.98796
361, 3, bw, filler, NA, 999, 999, 4, 14, 60, 73, 137, 122, 101, 177, 1, 0.474993
361, 3, bw, attraction, a-b-db, 14, 1, 4, 15, 60, 135, 56, 125, 135, 60, 3, 2.98136
361, 3, bw, attraction, a-b-db, 14, 1, 4, 15, 60, 135, 56, 125, 135, 60, 2, 1.11649
361, 3, bw, catch, NA, 999, 999, 4, 16, 124, 191, 114, 141, 75, 120, 1, 0.869336
361, 3, bw, catch, NA, 999, 999, 4, 16, 124, 191, 114, 141, 75, 120, 3, 0.369896
361, 3, bw, filler, NA, 999, 999, 4, 17, 193, 179, 161, 66, 118, 128, 1, 0.632884
361, 3, bw, filler, NA, 999, 999, 4, 17, 193, 179, 161, 66, 118, 128, 3, 0.638706
361, 3, bw, filler, NA, 999, 999, 4, 18, 132, 99, 111, 191, 78, 106, 2, 1.25905
361, 3, bw, filler, NA, 999, 999, 4, 18, 132, 99, 111, 191, 78, 106, 3, 0.343479
361, 3, bw, filler, NA, 999, 999, 4, 19, 182, 168, 149, 140, 162, 179, 1, 4.57517
361, 3, bw, filler, NA, 999, 999, 4, 19, 182, 168, 149, 140, 162, 179, 2, 0.301686
361, 3, bw, filler, NA, 999, 999, 4, 20, 187, 120, 96, 80, 93, 84, 1, 0.879556
361, 3, bw, filler, NA, 999, 999, 4, 20, 187, 120, 96, 80, 93, 84, 3, 0.355299
361, 3, bw, attraction, a-b-db, 9, 1, 4, 21, 135, 60, 60, 135, 57, 129, 2, 1.13928
361, 3, bw, attraction, a-b-db, 9, 1, 4, 21, 135, 60, 60, 135, 57, 129, 1, 0.523981
361, 3, bw, filler, NA, 999, 999, 4, 22, 159, 137, 193, 184, 177, 153, 2, 0.908446
361, 3, bw, filler, NA, 999, 999, 4, 22, 159, 137, 193, 184, 177, 153, 1, 0.222763
361, 3, bw, attraction, a-b-da, 9, 3, 4, 23, 186, 114, 195, 120, 120, 195, 2, 1.21199
361, 3, bw, attraction, a-b-da, 9, 3, 4, 23, 186, 114, 195, 120, 120, 195, 1, 0.490233
361, 3, bw, attraction, a-b-db, 9, 2, 4, 24, 165, 90, 86, 157, 90, 165, 1, 0.924105
361, 3, bw, attraction, a-b-db, 9, 2, 4, 24, 165, 90, 86, 157, 90, 165, 2, 0.317855
361, 3, bw, catch, NA, 999, 999, 4, 25, 111, 144, 136, 179, 104, 91, 2, 0.638884
361, 3, bw, catch, NA, 999, 999, 4, 25, 111, 144, 136, 179, 104, 91, 3, 0.491982
361, 3, bw, attraction, a-b-da, 2, 2, 4, 26, 163, 89, 165, 90, 90, 165, 2, 0.56579
361, 3, bw, attraction, a-b-da, 2, 2, 4, 26, 163, 89, 165, 90, 90, 165, 1, 0.302389
361, 3, bw, filler, NA, 999, 999, 4, 27, 185, 189, 82, 105, 186, 105, 1, 1.11214
361, 3, bw, filler, NA, 999, 999, 4, 27, 185, 189, 82, 105, 186, 105, 2, 0.266401
361, 3, bw, attraction, a-b-db, 5, 1, 4, 28, 58, 132, 60, 135, 135, 60, 2, 0.565695
361, 3, bw, attraction, a-b-db, 5, 1, 4, 28, 58, 132, 60, 135, 135, 60, 1, 0.93412
361, 3, bw, attraction, a-b-db, 14, 3, 4, 29, 120, 195, 195, 120, 111, 181, 1, 2.10234
361, 3, bw, attraction, a-b-db, 14, 3, 4, 29, 120, 195, 195, 120, 111, 181, 3, 0.70503
361, 3, bw, attraction, a-b-db, 9, 3, 4, 30, 195, 120, 114, 186, 120, 195, 1, 0.602808
361, 3, bw, attraction, a-b-db, 9, 3, 4, 30, 195, 120, 114, 186, 120, 195, 3, 0.561863
361, 3, bw, filler, NA, 999, 999, 4, 31, 195, 101, 143, 66, 185, 195, 3, 0.704976
361, 3, bw, filler, NA, 999, 999, 4, 31, 195, 101, 143, 66, 185, 195, 2, 0.891484
361, 3, bw, filler, NA, 999, 999, 4, 32, 100, 181, 188, 79, 89, 101, 1, 0.64512
361, 3, bw, filler, NA, 999, 999, 4, 32, 100, 181, 188, 79, 89, 101, 3, 0.538155
361, 3, bw, attraction, a-b-db, 5, 2, 4, 33, 90, 165, 165, 90, 88, 161, 1, 1.41875
361, 3, bw, attraction, a-b-db, 5, 2, 4, 33, 90, 165, 165, 90, 88, 161, 3, 0.968856
361, 3, bw, attraction, a-b-da, 5, 2, 4, 34, 161, 88, 165, 90, 90, 165, 2, 2.14381
361, 3, bw, attraction, a-b-da, 5, 2, 4, 34, 161, 88, 165, 90, 90, 165, 1, 1.04845
361, 3, bw, attraction, a-b-da, 14, 3, 4, 35, 181, 111, 195, 120, 120, 195, 2, 1.90002
361, 3, bw, attraction, a-b-da, 14, 3, 4, 35, 181, 111, 195, 120, 120, 195, 1, 0.5348
361, 3, bw, attraction, a-b-da, 2, 1, 4, 36, 60, 135, 135, 60, 134, 59, 1, 1.29514
361, 3, bw, attraction, a-b-da, 2, 1, 4, 36, 60, 135, 135, 60, 134, 59, 2, 0.618219
361, 3, bw, attraction, a-b-db, 5, 3, 4, 37, 195, 120, 120, 195, 117, 190, 2, 3.45531
361, 3, bw, attraction, a-b-db, 5, 3, 4, 37, 195, 120, 120, 195, 117, 190, 3, 0.746772
361, 3, bw, filler, NA, 999, 999, 5, 1, 193, 147, 139, 118, 129, 105, 1, 2.28906
361, 3, bw, filler, NA, 999, 999, 5, 1, 193, 147, 139, 118, 129, 105, 3, 0.37973
361, 3, bw, catch, NA, 999, 999, 5, 2, 143, 172, 131, 124, 66, 129, 1, 2.01813
361, 3, bw, catch, NA, 999, 999, 5, 2, 143, 172, 131, 124, 66, 129, 3, 0.600122
361, 3, bw, filler, NA, 999, 999, 5, 3, 159, 114, 117, 168, 180, 100, 2, 2.62192
361, 3, bw, filler, NA, 999, 999, 5, 3, 159, 114, 117, 168, 180, 100, 1, 0.715111
361, 3, bw, attraction, a-b-db, 5, 3, 5, 4, 120, 195, 117, 190, 195, 120, 2, 4.83607
361, 3, bw, attraction, a-b-db, 5, 3, 5, 4, 120, 195, 117, 190, 195, 120, 1, 0.568568
361, 3, bw, filler, NA, 999, 999, 5, 5, 138, 96, 80, 147, 180, 102, 3, 2.00778
361, 3, bw, filler, NA, 999, 999, 5, 5, 138, 96, 80, 147, 180, 102, 1, 1.61369
361, 3, bw, filler, NA, 999, 999, 5, 6, 77, 129, 179, 98, 82, 84, 2, 0.874517
361, 3, bw, filler, NA, 999, 999, 5, 6, 77, 129, 179, 98, 82, 84, 3, 0.382195
361, 3, bw, attraction, a-b-db, 9, 2, 5, 7, 165, 90, 90, 165, 86, 157, 1, 1.06878
361, 3, bw, attraction, a-b-db, 9, 2, 5, 7, 165, 90, 90, 165, 86, 157, 3, 0.353013
361, 3, bw, attraction, a-b-db, 2, 1, 5, 8, 59, 134, 135, 60, 60, 135, 1, 1.92875
361, 3, bw, attraction, a-b-db, 2, 1, 5, 8, 59, 134, 135, 60, 60, 135, 2, 0.85013
361, 3, bw, attraction, a-b-da, 2, 1, 5, 9, 134, 59, 135, 60, 60, 135, 2, 1.72585
361, 3, bw, attraction, a-b-da, 2, 1, 5, 9, 134, 59, 135, 60, 60, 135, 3, 0.663249
361, 3, bw, attraction, a-b-da, 5, 1, 5, 10, 60, 135, 132, 58, 135, 60, 1, 5.25028
361, 3, bw, attraction, a-b-da, 5, 1, 5, 10, 60, 135, 132, 58, 135, 60, 2, 0.909974
361, 3, bw, filler, NA, 999, 999, 5, 11, 170, 172, 57, 180, 187, 172, 3, 1.65503
361, 3, bw, filler, NA, 999, 999, 5, 11, 170, 172, 57, 180, 187, 172, 2, 0.50786
361, 3, bw, attraction, a-b-db, 2, 3, 5, 12, 195, 120, 120, 195, 119, 193, 3, 6.34897
361, 3, bw, attraction, a-b-db, 2, 3, 5, 12, 195, 120, 120, 195, 119, 193, 1, 3.18828
361, 3, bw, filler, NA, 999, 999, 5, 13, 71, 62, 97, 65, 70, 180, 3, 0.937885
361, 3, bw, filler, NA, 999, 999, 5, 13, 71, 62, 97, 65, 70, 180, 1, 0.482792
361, 3, bw, attraction, a-b-da, 9, 3, 5, 14, 186, 114, 120, 195, 195, 120, 3, 2.90934
361, 3, bw, attraction, a-b-da, 9, 3, 5, 14, 186, 114, 120, 195, 195, 120, 1, 0.351184
361, 3, bw, attraction, a-b-db, 9, 1, 5, 15, 57, 129, 60, 135, 135, 60, 2, 0.942841
361, 3, bw, attraction, a-b-db, 9, 1, 5, 15, 57, 129, 60, 135, 135, 60, 1, 1.22412
361, 3, bw, attraction, a-b-db, 5, 2, 5, 16, 90, 165, 165, 90, 88, 161, 1, 3.93213
361, 3, bw, attraction, a-b-db, 5, 2, 5, 16, 90, 165, 165, 90, 88, 161, 2, 0.428903
361, 3, bw, attraction, a-b-da, 5, 2, 5, 17, 161, 88, 90, 165, 165, 90, 2, 2.10536
361, 3, bw, attraction, a-b-da, 5, 2, 5, 17, 161, 88, 90, 165, 165, 90, 3, 0.53134
361, 3, bw, attraction, a-b-db, 2, 2, 5, 18, 165, 90, 90, 165, 89, 163, 3, 2.61172
361, 3, bw, attraction, a-b-db, 2, 2, 5, 18, 165, 90, 90, 165, 89, 163, 2, 0.473596
361, 3, bw, filler, NA, 999, 999, 5, 19, 113, 176, 178, 99, 98, 65, 2, 1.60405
361, 3, bw, filler, NA, 999, 999, 5, 19, 113, 176, 178, 99, 98, 65, 3, 0.922841
361, 3, bw, attraction, a-b-da, 9, 2, 5, 20, 90, 165, 157, 86, 165, 90, 2, 9.77185
361, 3, bw, attraction, a-b-da, 9, 2, 5, 20, 90, 165, 157, 86, 165, 90, 1, 1.12143
361, 3, bw, attraction, a-b-db, 9, 3, 5, 21, 114, 186, 195, 120, 120, 195, 3, 3.0984
361, 3, bw, attraction, a-b-db, 9, 3, 5, 21, 114, 186, 195, 120, 120, 195, 2, 1.72485
361, 3, bw, attraction, a-b-da, 14, 2, 5, 22, 90, 165, 165, 90, 153, 83, 1, 2.38073
361, 3, bw, attraction, a-b-da, 14, 2, 5, 22, 90, 165, 165, 90, 153, 83, 3, 0.516052
361, 3, bw, attraction, a-b-db, 5, 1, 5, 23, 135, 60, 60, 135, 58, 132, 2, 5.09306
361, 3, bw, attraction, a-b-db, 5, 1, 5, 23, 135, 60, 60, 135, 58, 132, 3, 0.814828
361, 3, bw, attraction, a-b-da, 9, 1, 5, 24, 60, 135, 129, 57, 135, 60, 1, 2.11589
361, 3, bw, attraction, a-b-da, 9, 1, 5, 24, 60, 135, 129, 57, 135, 60, 2, 1.12592
361, 3, bw, filler, NA, 999, 999, 5, 25, 155, 141, 86, 141, 93, 151, 1, 0.934077
361, 3, bw, filler, NA, 999, 999, 5, 25, 155, 141, 86, 141, 93, 151, 2, 0.343774
361, 3, bw, attraction, a-b-db, 14, 1, 5, 26, 56, 125, 135, 60, 60, 135, 2, 1.51154
361, 3, bw, attraction, a-b-db, 14, 1, 5, 26, 56, 125, 135, 60, 60, 135, 1, 0.753737
361, 3, bw, attraction, a-b-da, 14, 1, 5, 27, 60, 135, 135, 60, 125, 56, 2, 1.24938
361, 3, bw, attraction, a-b-da, 14, 1, 5, 27, 60, 135, 135, 60, 125, 56, 1, 0.614401
361, 3, bw, catch, NA, 999, 999, 5, 28, 153, 102, 145, 170, 88, 107, 2, 0.691379
361, 3, bw, catch, NA, 999, 999, 5, 28, 153, 102, 145, 170, 88, 107, 3, 0.422696
361, 3, bw, attraction, a-b-da, 5, 3, 5, 29, 120, 195, 190, 117, 195, 120, 1, 3.07562
361, 3, bw, attraction, a-b-da, 5, 3, 5, 29, 120, 195, 190, 117, 195, 120, 2, 0.590714
361, 3, bw, attraction, a-b-da, 2, 2, 5, 30, 163, 89, 165, 90, 90, 165, 3, 2.98842
361, 3, bw, attraction, a-b-da, 2, 2, 5, 30, 163, 89, 165, 90, 90, 165, 1, 1.69094
361, 3, bw, filler, NA, 999, 999, 5, 31, 184, 68, 154, 63, 115, 76, 1, 26.3722
361, 3, bw, filler, NA, 999, 999, 5, 31, 184, 68, 154, 63, 115, 76, 3, 0.388711
361, 3, bw, attraction, a-b-da, 2, 3, 5, 32, 195, 120, 193, 119, 120, 195, 2, 1.73913
361, 3, bw, attraction, a-b-da, 2, 3, 5, 32, 195, 120, 193, 119, 120, 195, 1, 0.291859
361, 3, bw, attraction, a-b-da, 14, 3, 5, 33, 120, 195, 195, 120, 181, 111, 1, 3.89374
361, 3, bw, attraction, a-b-da, 14, 3, 5, 33, 120, 195, 195, 120, 181, 111, 2, 0.431819
361, 3, bw, catch, NA, 999, 999, 5, 34, 144, 171, 60, 135, 95, 160, 1, 0.956353
361, 3, bw, catch, NA, 999, 999, 5, 34, 144, 171, 60, 135, 95, 160, 2, 0.484589
361, 3, bw, filler, NA, 999, 999, 5, 35, 159, 143, 191, 99, 88, 148, 1, 1.79123
361, 3, bw, filler, NA, 999, 999, 5, 35, 159, 143, 191, 99, 88, 148, 3, 0.469973
361, 3, bw, attraction, a-b-db, 14, 3, 5, 36, 120, 195, 195, 120, 111, 181, 1, 1.89694
361, 3, bw, attraction, a-b-db, 14, 3, 5, 36, 120, 195, 195, 120, 111, 181, 3, 0.363656
361, 3, bw, attraction, a-b-db, 14, 2, 5, 37, 165, 90, 90, 165, 83, 153, 2, 7.36294
361, 3, bw, attraction, a-b-db, 14, 2, 5, 37, 165, 90, 90, 165, 83, 153, 3, 0.337298
361, 3, bw, attraction, a-b-db, 5, 2, 6, 1, 90, 165, 88, 161, 165, 90, 2, 5.57777
361, 3, bw, attraction, a-b-db, 5, 2, 6, 1, 90, 165, 88, 161, 165, 90, 1, 0.495878
361, 3, bw, attraction, a-b-db, 5, 3, 6, 2, 117, 190, 120, 195, 195, 120, 2, 14.8578
361, 3, bw, attraction, a-b-db, 5, 3, 6, 2, 117, 190, 120, 195, 195, 120, 1, 0.482344
361, 3, bw, attraction, a-b-da, 14, 2, 6, 3, 165, 90, 153, 83, 90, 165, 1, 3.56483
361, 3, bw, attraction, a-b-da, 14, 2, 6, 3, 165, 90, 153, 83, 90, 165, 2, 0.676314
361, 3, bw, filler, NA, 999, 999, 6, 4, 109, 178, 115, 81, 182, 190, 3, 5.09477
361, 3, bw, filler, NA, 999, 999, 6, 4, 109, 178, 115, 81, 182, 190, 2, 0.368574
361, 3, bw, attraction, a-b-da, 9, 1, 6, 5, 135, 60, 60, 135, 129, 57, 2, 3.66368
361, 3, bw, attraction, a-b-da, 9, 1, 6, 5, 135, 60, 60, 135, 129, 57, 3, 0.947107
361, 3, bw, attraction, a-b-da, 5, 3, 6, 6, 190, 117, 195, 120, 120, 195, 2, 6.04299
361, 3, bw, attraction, a-b-da, 5, 3, 6, 6, 190, 117, 195, 120, 120, 195, 1, 0.606156
361, 3, bw, attraction, a-b-da, 2, 1, 6, 7, 135, 60, 60, 135, 134, 59, 1, 3.33196
361, 3, bw, attraction, a-b-da, 2, 1, 6, 7, 135, 60, 60, 135, 134, 59, 2, 0.604928
361, 3, bw, filler, NA, 999, 999, 6, 8, 75, 101, 152, 147, 103, 120, 2, 0.914592
361, 3, bw, filler, NA, 999, 999, 6, 8, 75, 101, 152, 147, 103, 120, 1, 0.452937
361, 3, bw, catch, NA, 999, 999, 6, 9, 161, 94, 82, 113, 191, 124, 3, 0.968769
361, 3, bw, catch, NA, 999, 999, 6, 9, 161, 94, 82, 113, 191, 124, 2, 0.34508
361, 3, bw, attraction, a-b-db, 9, 2, 6, 10, 90, 165, 165, 90, 86, 157, 1, 1.16901
361, 3, bw, attraction, a-b-db, 9, 2, 6, 10, 90, 165, 165, 90, 86, 157, 3, 0.4014
361, 3, bw, attraction, a-b-db, 14, 2, 6, 11, 83, 153, 90, 165, 165, 90, 2, 8.90297
361, 3, bw, attraction, a-b-db, 14, 2, 6, 11, 83, 153, 90, 165, 165, 90, 1, 1.9355
361, 3, bw, attraction, a-b-db, 2, 2, 6, 12, 89, 163, 90, 165, 165, 90, 2, 1.64753
361, 3, bw, attraction, a-b-db, 2, 2, 6, 12, 89, 163, 90, 165, 165, 90, 1, 0.428442
361, 3, bw, attraction, a-b-db, 14, 3, 6, 13, 195, 120, 120, 195, 111, 181, 1, 3.28882
361, 3, bw, attraction, a-b-db, 14, 3, 6, 13, 195, 120, 120, 195, 111, 181, 3, 0.443788
361, 3, bw, filler, NA, 999, 999, 6, 14, 111, 57, 113, 165, 159, 169, 3, 0.935569
361, 3, bw, filler, NA, 999, 999, 6, 14, 111, 57, 113, 165, 159, 169, 1, 0.529248
361, 3, bw, attraction, a-b-da, 2, 2, 6, 15, 90, 165, 165, 90, 163, 89, 1, 1.63382
361, 3, bw, attraction, a-b-da, 2, 2, 6, 15, 90, 165, 165, 90, 163, 89, 3, 0.511206
361, 3, bw, attraction, a-b-da, 5, 2, 6, 16, 90, 165, 165, 90, 161, 88, 1, 1.97629
361, 3, bw, attraction, a-b-da, 5, 2, 6, 16, 90, 165, 165, 90, 161, 88, 3, 0.62368
361, 3, bw, attraction, a-b-db, 2, 1, 6, 17, 59, 134, 60, 135, 135, 60, 2, 1.18008
361, 3, bw, attraction, a-b-db, 2, 1, 6, 17, 59, 134, 60, 135, 135, 60, 1, 0.571684
361, 3, bw, attraction, a-b-da, 5, 1, 6, 18, 60, 135, 132, 58, 135, 60, 3, 1.80279
361, 3, bw, attraction, a-b-da, 5, 1, 6, 18, 60, 135, 132, 58, 135, 60, 2, 0.889586
361, 3, bw, attraction, a-b-db, 5, 1, 6, 19, 135, 60, 58, 132, 60, 135, 1, 2.55575
361, 3, bw, attraction, a-b-db, 5, 1, 6, 19, 135, 60, 58, 132, 60, 135, 3, 0.76377
361, 3, bw, catch, NA, 999, 999, 6, 20, 150, 105, 61, 134, 128, 187, 3, 0.962721
361, 3, bw, catch, NA, 999, 999, 6, 20, 150, 105, 61, 134, 128, 187, 2, 0.675125
361, 3, bw, catch, NA, 999, 999, 6, 21, 109, 146, 104, 91, 181, 134, 3, 1.0375
361, 3, bw, catch, NA, 999, 999, 6, 21, 109, 146, 104, 91, 181, 134, 2, 0.739204
361, 3, bw, filler, NA, 999, 999, 6, 22, 143, 82, 153, 190, 191, 142, 2, 2.87552
361, 3, bw, filler, NA, 999, 999, 6, 22, 143, 82, 153, 190, 191, 142, 1, 0.382541
361, 3, bw, attraction, a-b-db, 9, 1, 6, 23, 60, 135, 57, 129, 135, 60, 1, 1.44515
361, 3, bw, attraction, a-b-db, 9, 1, 6, 23, 60, 135, 57, 129, 135, 60, 2, 0.721897
361, 3, bw, attraction, a-b-db, 9, 3, 6, 24, 114, 186, 195, 120, 120, 195, 3, 6.51495
361, 3, bw, attraction, a-b-db, 9, 3, 6, 24, 114, 186, 195, 120, 120, 195, 2, 0.587547
361, 3, bw, attraction, a-b-da, 14, 3, 6, 25, 120, 195, 195, 120, 181, 111, 1, 1.57007
361, 3, bw, attraction, a-b-da, 14, 3, 6, 25, 120, 195, 195, 120, 181, 111, 3, 0.690239
361, 3, bw, filler, NA, 999, 999, 6, 26, 147, 99, 144, 102, 180, 61, 2, 13.6919
361, 3, bw, filler, NA, 999, 999, 6, 26, 147, 99, 144, 102, 180, 61, 3, 0.563657
361, 3, bw, filler, NA, 999, 999, 6, 27, 195, 66, 141, 131, 154, 126, 3, 7.67484
361, 3, bw, filler, NA, 999, 999, 6, 27, 195, 66, 141, 131, 154, 126, 1, 0.460178
361, 3, bw, attraction, a-b-da, 9, 2, 6, 28, 90, 165, 157, 86, 165, 90, 1, 3.11933
361, 3, bw, attraction, a-b-da, 9, 2, 6, 28, 90, 165, 157, 86, 165, 90, 3, 0.801019
361, 3, bw, filler, NA, 999, 999, 6, 29, 143, 139, 148, 91, 176, 172, 3, 1.50289
361, 3, bw, filler, NA, 999, 999, 6, 29, 143, 139, 148, 91, 176, 172, 2, 0.817534
361, 3, bw, attraction, a-b-da, 2, 3, 6, 30, 120, 195, 193, 119, 195, 120, 2, 2.34275
361, 3, bw, attraction, a-b-da, 2, 3, 6, 30, 120, 195, 193, 119, 195, 120, 3, 2.8872
361, 3, bw, attraction, a-b-da, 9, 3, 6, 31, 195, 120, 186, 114, 120, 195, 3, 4.06492
361, 3, bw, attraction, a-b-da, 9, 3, 6, 31, 195, 120, 186, 114, 120, 195, 2, 0.268239
361, 3, bw, attraction, a-b-da, 14, 1, 6, 32, 135, 60, 60, 135, 125, 56, 1, 2.09549
361, 3, bw, attraction, a-b-da, 14, 1, 6, 32, 135, 60, 60, 135, 125, 56, 3, 0.554128
361, 3, bw, filler, NA, 999, 999, 6, 33, 125, 64, 92, 179, 153, 145, 3, 0.841854
361, 3, bw, filler, NA, 999, 999, 6, 33, 125, 64, 92, 179, 153, 145, 1, 0.687051
361, 3, bw, attraction, a-b-db, 2, 3, 6, 34, 195, 120, 120, 195, 119, 193, 1, 0.713249
361, 3, bw, attraction, a-b-db, 2, 3, 6, 34, 195, 120, 120, 195, 119, 193, 3, 0.355707
361, 3, bw, filler, NA, 999, 999, 6, 35, 163, 147, 173, 191, 73, 84, 2, 1.30756
361, 3, bw, filler, NA, 999, 999, 6, 35, 163, 147, 173, 191, 73, 84, 3, 0.52573
361, 3, bw, attraction, a-b-db, 14, 1, 6, 36, 135, 60, 56, 125, 60, 135, 1, 1.10217
361, 3, bw, attraction, a-b-db, 14, 1, 6, 36, 135, 60, 56, 125, 60, 135, 2, 0.793175
361, 3, bw, filler, NA, 999, 999, 6, 37, 87, 186, 195, 84, 83, 137, 1, 1.23093
361, 3, bw, filler, NA, 999, 999, 6, 37, 87, 186, 195, 84, 83, 137, 3, 0.332442
361, 3, bw, filler, NA, 999, 999, 7, 1, 81, 114, 73, 157, 171, 187, 3, 0.845024
361, 3, bw, filler, NA, 999, 999, 7, 1, 81, 114, 73, 157, 171, 187, 1, 0.586032
361, 3, bw, filler, NA, 999, 999, 7, 2, 131, 87, 159, 192, 118, 193, 2, 1.02443
361, 3, bw, filler, NA, 999, 999, 7, 2, 131, 87, 159, 192, 118, 193, 1, 0.886116
361, 3, bw, filler, NA, 999, 999, 7, 3, 126, 181, 94, 189, 64, 167, 1, 0.688407
361, 3, bw, filler, NA, 999, 999, 7, 3, 126, 181, 94, 189, 64, 167, 3, 0.411544
361, 3, bw, filler, NA, 999, 999, 7, 4, 172, 79, 70, 155, 171, 75, 1, 1.01662
361, 3, bw, filler, NA, 999, 999, 7, 4, 172, 79, 70, 155, 171, 75, 2, 0.407115
361, 3, bw, filler, NA, 999, 999, 7, 5, 139, 89, 191, 148, 124, 90, 2, 0.780137
361, 3, bw, filler, NA, 999, 999, 7, 5, 139, 89, 191, 148, 124, 90, 3, 1.8358
361, 3, bw, attraction, a-b-db, 2, 3, 7, 6, 120, 195, 195, 120, 119, 193, 1, 1.7121
361, 3, bw, attraction, a-b-db, 2, 3, 7, 6, 120, 195, 195, 120, 119, 193, 3, 0.514109
361, 3, bw, attraction, a-b-da, 9, 2, 7, 7, 165, 90, 157, 86, 90, 165, 1, 0.603099
361, 3, bw, attraction, a-b-da, 9, 2, 7, 7, 165, 90, 157, 86, 90, 165, 2, 0.570195
361, 3, bw, attraction, a-b-da, 14, 2, 7, 8, 90, 165, 153, 83, 165, 90, 3, 0.69732
361, 3, bw, attraction, a-b-da, 14, 2, 7, 8, 90, 165, 153, 83, 165, 90, 2, 0.348416
361, 3, bw, filler, NA, 999, 999, 7, 9, 123, 98, 88, 147, 155, 137, 3, 2.18022
361, 3, bw, filler, NA, 999, 999, 7, 9, 123, 98, 88, 147, 155, 137, 2, 1.91557
361, 3, bw, catch, NA, 999, 999, 7, 10, 183, 132, 150, 105, 99, 96, 1, 0.63618
361, 3, bw, catch, NA, 999, 999, 7, 10, 183, 132, 150, 105, 99, 96, 3, 0.865966
361, 3, bw, attraction, a-b-da, 2, 3, 7, 11, 120, 195, 193, 119, 195, 120, 2, 2.165
361, 3, bw, attraction, a-b-da, 2, 3, 7, 11, 120, 195, 193, 119, 195, 120, 1, 0.444941
361, 3, bw, attraction, a-b-da, 14, 3, 7, 12, 181, 111, 195, 120, 120, 195, 3, 1.24074
361, 3, bw, attraction, a-b-da, 14, 3, 7, 12, 181, 111, 195, 120, 120, 195, 2, 0.621678
361, 3, bw, catch, NA, 999, 999, 7, 13, 128, 127, 171, 144, 87, 108, 2, 1.7068
361, 3, bw, catch, NA, 999, 999, 7, 13, 128, 127, 171, 144, 87, 108, 3, 0.492927
361, 3, bw, attraction, a-b-db, 14, 1, 7, 14, 60, 135, 135, 60, 56, 125, 1, 1.02263
361, 3, bw, attraction, a-b-db, 14, 1, 7, 14, 60, 135, 135, 60, 56, 125, 3, 0.708298
361, 3, bw, attraction, a-b-db, 14, 2, 7, 15, 90, 165, 83, 153, 165, 90, 3, 1.2694
361, 3, bw, attraction, a-b-db, 14, 2, 7, 15, 90, 165, 83, 153, 165, 90, 2, 0.36159
361, 3, bw, filler, NA, 999, 999, 7, 16, 58, 104, 111, 155, 185, 168, 3, 0.784718
361, 3, bw, filler, NA, 999, 999, 7, 16, 58, 104, 111, 155, 185, 168, 1, 0.5124
361, 3, bw, attraction, a-b-db, 9, 3, 7, 17, 120, 195, 195, 120, 114, 186, 1, 0.993539
361, 3, bw, attraction, a-b-db, 9, 3, 7, 17, 120, 195, 195, 120, 114, 186, 3, 0.544582
361, 3, bw, attraction, a-b-db, 9, 1, 7, 18, 57, 129, 135, 60, 60, 135, 1, 2.6404
361, 3, bw, attraction, a-b-db, 9, 1, 7, 18, 57, 129, 135, 60, 60, 135, 3, 0.364903
361, 3, bw, filler, NA, 999, 999, 7, 19, 185, 114, 152, 77, 183, 101, 1, 0.676209
361, 3, bw, filler, NA, 999, 999, 7, 19, 185, 114, 152, 77, 183, 101, 3, 0.559731
361, 3, bw, filler, NA, 999, 999, 7, 20, 152, 108, 117, 58, 120, 79, 1, 0.486835
361, 3, bw, filler, NA, 999, 999, 7, 20, 152, 108, 117, 58, 120, 79, 2, 1.05873
361, 3, bw, attraction, a-b-da, 5, 2, 7, 21, 90, 165, 165, 90, 161, 88, 1, 3.19766
361, 3, bw, attraction, a-b-da, 5, 2, 7, 21, 90, 165, 165, 90, 161, 88, 2, 0.259951
361, 3, bw, attraction, a-b-da, 9, 1, 7, 22, 135, 60, 129, 57, 60, 135, 1, 1.55118
361, 3, bw, attraction, a-b-da, 9, 1, 7, 22, 135, 60, 129, 57, 60, 135, 2, 0.343973
361, 3, bw, attraction, a-b-db, 14, 3, 7, 23, 111, 181, 195, 120, 120, 195, 3, 1.27986
361, 3, bw, attraction, a-b-db, 14, 3, 7, 23, 111, 181, 195, 120, 120, 195, 1, 0.699526
361, 3, bw, attraction, a-b-da, 2, 1, 7, 24, 134, 59, 60, 135, 135, 60, 3, 0.941104
361, 3, bw, attraction, a-b-da, 2, 1, 7, 24, 134, 59, 60, 135, 135, 60, 2, 0.558125
361, 3, bw, attraction, a-b-da, 9, 3, 7, 25, 120, 195, 186, 114, 195, 120, 3, 1.51725
361, 3, bw, attraction, a-b-da, 9, 3, 7, 25, 120, 195, 186, 114, 195, 120, 2, 0.543333
361, 3, bw, attraction, a-b-da, 5, 1, 7, 26, 132, 58, 135, 60, 60, 135, 3, 3.31908
361, 3, bw, attraction, a-b-da, 5, 1, 7, 26, 132, 58, 135, 60, 60, 135, 1, 0.424788
361, 3, bw, attraction, a-b-db, 2, 1, 7, 27, 60, 135, 135, 60, 59, 134, 2, 3.94927
361, 3, bw, attraction, a-b-db, 2, 1, 7, 27, 60, 135, 135, 60, 59, 134, 3, 0.709306
361, 3, bw, filler, NA, 999, 999, 7, 28, 100, 83, 75, 172, 158, 78, 2, 1.8783
361, 3, bw, filler, NA, 999, 999, 7, 28, 100, 83, 75, 172, 158, 78, 1, 0.27376
361, 3, bw, attraction, a-b-db, 5, 2, 7, 29, 88, 161, 90, 165, 165, 90, 3, 1.72425
361, 3, bw, attraction, a-b-db, 5, 2, 7, 29, 88, 161, 90, 165, 165, 90, 1, 0.397617
361, 3, bw, attraction, a-b-da, 14, 1, 7, 30, 135, 60, 60, 135, 125, 56, 1, 1.86748
361, 3, bw, attraction, a-b-da, 14, 1, 7, 30, 135, 60, 60, 135, 125, 56, 3, 0.623596
361, 3, bw, catch, NA, 999, 999, 7, 31, 129, 66, 160, 95, 169, 146, 3, 1.02795
361, 3, bw, catch, NA, 999, 999, 7, 31, 129, 66, 160, 95, 169, 146, 1, 0.681627
361, 3, bw, attraction, a-b-db, 5, 1, 7, 32, 58, 132, 135, 60, 60, 135, 2, 2.41199
361, 3, bw, attraction, a-b-db, 5, 1, 7, 32, 58, 132, 135, 60, 60, 135, 1, 0.697931
361, 3, bw, attraction, a-b-db, 2, 2, 7, 33, 89, 163, 90, 165, 165, 90, 3, 2.92363
361, 3, bw, attraction, a-b-db, 2, 2, 7, 33, 89, 163, 90, 165, 165, 90, 1, 0.660634
361, 3, bw, attraction, a-b-da, 2, 2, 7, 34, 163, 89, 165, 90, 90, 165, 3, 2.5758
361, 3, bw, attraction, a-b-da, 2, 2, 7, 34, 163, 89, 165, 90, 90, 165, 2, 0.526996
361, 3, bw, attraction, a-b-da, 5, 3, 7, 35, 190, 117, 120, 195, 195, 120, 3, 1.71136
361, 3, bw, attraction, a-b-da, 5, 3, 7, 35, 190, 117, 120, 195, 195, 120, 1, 0.953455
361, 3, bw, attraction, a-b-db, 9, 2, 7, 36, 165, 90, 90, 165, 86, 157, 2, 11.5692
361, 3, bw, attraction, a-b-db, 9, 2, 7, 36, 165, 90, 90, 165, 86, 157, 3, 0.590252
361, 3, bw, attraction, a-b-db, 5, 3, 7, 37, 120, 195, 195, 120, 117, 190, 1, 4.57177
361, 3, bw, attraction, a-b-db, 5, 3, 7, 37, 120, 195, 195, 120, 117, 190, 2, 0.707087
361, 3, bw, attraction, a-b-db, 2, 1, 8, 1, 59, 134, 60, 135, 135, 60, 2, 2.20418
361, 3, bw, attraction, a-b-db, 2, 1, 8, 1, 59, 134, 60, 135, 135, 60, 1, 0.466926
361, 3, bw, filler, NA, 999, 999, 8, 2, 103, 67, 186, 142, 144, 163, 2, 2.06993
361, 3, bw, filler, NA, 999, 999, 8, 2, 103, 67, 186, 142, 144, 163, 1, 0.826035
361, 3, bw, filler, NA, 999, 999, 8, 3, 138, 64, 165, 187, 107, 159, 2, 0.814184
361, 3, bw, filler, NA, 999, 999, 8, 3, 138, 64, 165, 187, 107, 159, 1, 0.364599
361, 3, bw, attraction, a-b-da, 2, 1, 8, 4, 135, 60, 134, 59, 60, 135, 1, 1.55587
361, 3, bw, attraction, a-b-da, 2, 1, 8, 4, 135, 60, 134, 59, 60, 135, 2, 0.724067
361, 3, bw, attraction, a-b-db, 9, 3, 8, 5, 195, 120, 120, 195, 114, 186, 1, 3.44436
361, 3, bw, attraction, a-b-db, 9, 3, 8, 5, 195, 120, 120, 195, 114, 186, 2, 0.680598
361, 3, bw, attraction, a-b-db, 2, 2, 8, 6, 89, 163, 90, 165, 165, 90, 1, 3.05889
361, 3, bw, attraction, a-b-db, 2, 2, 8, 6, 89, 163, 90, 165, 165, 90, 2, 0.422666
361, 3, bw, attraction, a-b-da, 2, 3, 8, 7, 120, 195, 195, 120, 193, 119, 3, 3.02778
361, 3, bw, attraction, a-b-da, 2, 3, 8, 7, 120, 195, 195, 120, 193, 119, 2, 0.696832
361, 3, bw, attraction, a-b-db, 14, 2, 8, 8, 83, 153, 165, 90, 90, 165, 3, 2.92248
361, 3, bw, attraction, a-b-db, 14, 2, 8, 8, 83, 153, 165, 90, 90, 165, 1, 1.13954
361, 3, bw, filler, NA, 999, 999, 8, 9, 87, 126, 134, 86, 168, 63, 1, 9.71593
361, 3, bw, filler, NA, 999, 999, 8, 9, 87, 126, 134, 86, 168, 63, 3, 0.987559
361, 3, bw, catch, NA, 999, 999, 8, 10, 157, 158, 162, 93, 116, 79, 1, 0.769694
361, 3, bw, catch, NA, 999, 999, 8, 10, 157, 158, 162, 93, 116, 79, 3, 0.73814
361, 3, bw, attraction, a-b-da, 5, 2, 8, 11, 165, 90, 90, 165, 161, 88, 3, 1.36249
361, 3, bw, attraction, a-b-da, 5, 2, 8, 11, 165, 90, 90, 165, 161, 88, 2, 0.530844
361, 3, bw, attraction, a-b-da, 14, 2, 8, 12, 90, 165, 165, 90, 153, 83, 1, 2.37123
361, 3, bw, attraction, a-b-da, 14, 2, 8, 12, 90, 165, 165, 90, 153, 83, 3, 0.491024
361, 3, bw, filler, NA, 999, 999, 8, 13, 121, 143, 150, 105, 85, 115, 1, 1.30084
361, 3, bw, filler, NA, 999, 999, 8, 13, 121, 143, 150, 105, 85, 115, 3, 0.551755
361, 3, bw, catch, NA, 999, 999, 8, 14, 130, 65, 167, 148, 162, 93, 2, 1.31157
361, 3, bw, catch, NA, 999, 999, 8, 14, 130, 65, 167, 148, 162, 93, 1, 0.361798
361, 3, bw, filler, NA, 999, 999, 8, 15, 127, 76, 77, 84, 89, 182, 3, 0.992908
361, 3, bw, filler, NA, 999, 999, 8, 15, 127, 76, 77, 84, 89, 182, 2, 0.735957
361, 3, bw, attraction, a-b-db, 9, 2, 8, 16, 165, 90, 86, 157, 90, 165, 1, 2.08824
361, 3, bw, attraction, a-b-db, 9, 2, 8, 16, 165, 90, 86, 157, 90, 165, 2, 0.555605
361, 3, bw, filler, NA, 999, 999, 8, 17, 186, 74, 163, 114, 124, 109, 2, 2.06726
361, 3, bw, filler, NA, 999, 999, 8, 17, 186, 74, 163, 114, 124, 109, 3, 0.343483
361, 3, bw, attraction, a-b-da, 9, 3, 8, 18, 120, 195, 195, 120, 186, 114, 1, 4.11926
361, 3, bw, attraction, a-b-da, 9, 3, 8, 18, 120, 195, 195, 120, 186, 114, 2, 0.576532
361, 3, bw, attraction, a-b-da, 14, 1, 8, 19, 125, 56, 135, 60, 60, 135, 3, 2.45508
361, 3, bw, attraction, a-b-da, 14, 1, 8, 19, 125, 56, 135, 60, 60, 135, 1, 0.602954
361, 3, bw, attraction, a-b-db, 14, 3, 8, 20, 120, 195, 111, 181, 195, 120, 3, 1.28062
361, 3, bw, attraction, a-b-db, 14, 3, 8, 20, 120, 195, 111, 181, 195, 120, 2, 0.308306
361, 3, bw, attraction, a-b-db, 5, 1, 8, 21, 58, 132, 60, 135, 135, 60, 3, 1.7334
361, 3, bw, attraction, a-b-db, 5, 1, 8, 21, 58, 132, 60, 135, 135, 60, 1, 0.862809
361, 3, bw, attraction, a-b-da, 2, 2, 8, 22, 163, 89, 90, 165, 165, 90, 3, 2.10586
361, 3, bw, attraction, a-b-da, 2, 2, 8, 22, 163, 89, 90, 165, 165, 90, 2, 0.579806
361, 3, bw, attraction, a-b-da, 9, 1, 8, 23, 129, 57, 60, 135, 135, 60, 3, 1.27421
361, 3, bw, attraction, a-b-da, 9, 1, 8, 23, 129, 57, 60, 135, 135, 60, 1, 1.22982
361, 3, bw, filler, NA, 999, 999, 8, 24, 97, 186, 69, 117, 121, 70, 1, 1.09799
361, 3, bw, filler, NA, 999, 999, 8, 24, 97, 186, 69, 117, 121, 70, 2, 0.573096
361, 3, bw, attraction, a-b-da, 5, 1, 8, 25, 132, 58, 60, 135, 135, 60, 3, 1.13207
361, 3, bw, attraction, a-b-da, 5, 1, 8, 25, 132, 58, 60, 135, 135, 60, 1, 0.957778
361, 3, bw, attraction, a-b-db, 5, 3, 8, 26, 195, 120, 117, 190, 120, 195, 1, 1.24477
361, 3, bw, attraction, a-b-db, 5, 3, 8, 26, 195, 120, 117, 190, 120, 195, 2, 0.273545
361, 3, bw, attraction, a-b-db, 2, 3, 8, 27, 120, 195, 195, 120, 119, 193, 2, 1.30015
361, 3, bw, attraction, a-b-db, 2, 3, 8, 27, 120, 195, 195, 120, 119, 193, 1, 0.415043
361, 3, bw, attraction, a-b-db, 5, 2, 8, 28, 88, 161, 90, 165, 165, 90, 3, 0.812185
361, 3, bw, attraction, a-b-db, 5, 2, 8, 28, 88, 161, 90, 165, 165, 90, 1, 0.986501
361, 3, bw, filler, NA, 999, 999, 8, 29, 75, 135, 193, 118, 109, 171, 3, 0.960863
361, 3, bw, filler, NA, 999, 999, 8, 29, 75, 135, 193, 118, 109, 171, 1, 0.37724
361, 3, bw, attraction, a-b-da, 14, 3, 8, 30, 195, 120, 120, 195, 181, 111, 1, 1.29567
361, 3, bw, attraction, a-b-da, 14, 3, 8, 30, 195, 120, 120, 195, 181, 111, 3, 0.482604
361, 3, bw, catch, NA, 999, 999, 8, 31, 184, 131, 99, 96, 118, 137, 1, 0.717019
361, 3, bw, catch, NA, 999, 999, 8, 31, 184, 131, 99, 96, 118, 137, 2, 0.655637
361, 3, bw, attraction, a-b-db, 9, 1, 8, 32, 135, 60, 57, 129, 60, 135, 1, 1.62718
361, 3, bw, attraction, a-b-db, 9, 1, 8, 32, 135, 60, 57, 129, 60, 135, 2, 0.432674
361, 3, bw, attraction, a-b-da, 9, 2, 8, 33, 165, 90, 90, 165, 157, 86, 1, 0.829069
361, 3, bw, attraction, a-b-da, 9, 2, 8, 33, 165, 90, 90, 165, 157, 86, 3, 0.746912
361, 3, bw, filler, NA, 999, 999, 8, 34, 78, 105, 72, 124, 56, 71, 2, 1.3626
361, 3, bw, filler, NA, 999, 999, 8, 34, 78, 105, 72, 124, 56, 71, 3, 1.38675
361, 3, bw, attraction, a-b-db, 14, 1, 8, 35, 135, 60, 60, 135, 56, 125, 1, 2.27295
361, 3, bw, attraction, a-b-db, 14, 1, 8, 35, 135, 60, 60, 135, 56, 125, 3, 0.540172
361, 3, bw, attraction, a-b-da, 5, 3, 8, 36, 120, 195, 195, 120, 190, 117, 1, 3.64398
361, 3, bw, attraction, a-b-da, 5, 3, 8, 36, 120, 195, 195, 120, 190, 117, 3, 0.488101
361, 3, bw, filler, NA, 999, 999, 8, 37, 120, 98, 152, 69, 151, 77, 1, 3.12256
361, 3, bw, filler, NA, 999, 999, 8, 37, 120, 98, 152, 69, 151, 77, 2, 0.659642
