sub_n, computer_n, bw_cond, effect, set, distance, diag, block_n, trial_n, h1, w1, h2, w2, h3, w3, choice, rt 
315, 3, bw, practice, NA, 999, 999, 0, 1, 194, 189, 108, 130, 56, 182, 1, 2.55559
315, 3, bw, practice, NA, 999, 999, 0, 1, 194, 189, 108, 130, 56, 182, 2, 6.44425
315, 3, bw, practice, NA, 999, 999, 0, 2, 142, 139, 136, 110, 153, 185, 3, 2.17992
315, 3, bw, practice, NA, 999, 999, 0, 2, 142, 139, 136, 110, 153, 185, 2, 1.60356
315, 3, bw, practice, NA, 999, 999, 0, 3, 165, 137, 81, 99, 173, 193, 3, 1.97331
315, 3, bw, practice, NA, 999, 999, 0, 3, 165, 137, 81, 99, 173, 193, 2, 1.3968
315, 3, bw, attraction, a-b-db, 5, 3, 1, 1, 195, 120, 117, 190, 120, 195, 1, 5.17544
315, 3, bw, attraction, a-b-db, 5, 3, 1, 1, 195, 120, 117, 190, 120, 195, 2, 1.66183
315, 3, bw, filler, NA, 999, 999, 1, 2, 87, 74, 70, 92, 176, 188, 3, 1.24059
315, 3, bw, filler, NA, 999, 999, 1, 2, 87, 74, 70, 92, 176, 188, 2, 1.47749
315, 3, bw, attraction, a-b-db, 2, 2, 1, 3, 89, 163, 90, 165, 165, 90, 1, 2.14368
315, 3, bw, attraction, a-b-db, 2, 2, 1, 3, 89, 163, 90, 165, 165, 90, 3, 2.6563
315, 3, bw, attraction, a-b-db, 9, 3, 1, 4, 195, 120, 114, 186, 120, 195, 1, 2.13153
315, 3, bw, attraction, a-b-db, 9, 3, 1, 4, 195, 120, 114, 186, 120, 195, 2, 1.62073
315, 3, bw, attraction, a-b-da, 2, 1, 1, 5, 134, 59, 135, 60, 60, 135, 3, 2.36954
315, 3, bw, attraction, a-b-da, 2, 1, 1, 5, 134, 59, 135, 60, 60, 135, 2, 1.23345
315, 3, bw, filler, NA, 999, 999, 1, 6, 66, 88, 168, 81, 136, 162, 3, 1.18966
315, 3, bw, filler, NA, 999, 999, 1, 6, 66, 88, 168, 81, 136, 162, 1, 0.900614
315, 3, bw, attraction, a-b-da, 9, 2, 1, 7, 165, 90, 90, 165, 157, 86, 2, 1.84617
315, 3, bw, attraction, a-b-da, 9, 2, 1, 7, 165, 90, 90, 165, 157, 86, 3, 2.21903
315, 3, bw, filler, NA, 999, 999, 1, 8, 103, 128, 57, 150, 181, 69, 1, 1.32744
315, 3, bw, filler, NA, 999, 999, 1, 8, 103, 128, 57, 150, 181, 69, 2, 1.27304
315, 3, bw, catch, NA, 999, 999, 1, 9, 68, 127, 144, 171, 126, 129, 2, 3.82801
315, 3, bw, catch, NA, 999, 999, 1, 9, 68, 127, 144, 171, 126, 129, 1, 1.48092
315, 3, bw, catch, NA, 999, 999, 1, 10, 185, 130, 97, 158, 114, 81, 1, 3.26694
315, 3, bw, catch, NA, 999, 999, 1, 10, 185, 130, 97, 158, 114, 81, 3, 1.07851
315, 3, bw, attraction, a-b-db, 2, 3, 1, 11, 195, 120, 119, 193, 120, 195, 3, 7.6088
315, 3, bw, attraction, a-b-db, 2, 3, 1, 11, 195, 120, 119, 193, 120, 195, 1, 4.91704
315, 3, bw, attraction, a-b-db, 14, 2, 1, 12, 90, 165, 165, 90, 83, 153, 1, 5.46076
315, 3, bw, attraction, a-b-db, 14, 2, 1, 12, 90, 165, 165, 90, 83, 153, 3, 5.02379
315, 3, bw, attraction, a-b-db, 5, 2, 1, 13, 90, 165, 88, 161, 165, 90, 1, 10.2194
315, 3, bw, attraction, a-b-db, 5, 2, 1, 13, 90, 165, 88, 161, 165, 90, 2, 0.982888
315, 3, bw, attraction, a-b-da, 14, 1, 1, 14, 125, 56, 135, 60, 60, 135, 3, 4.09321
315, 3, bw, attraction, a-b-da, 14, 1, 1, 14, 125, 56, 135, 60, 60, 135, 1, 0.59121
315, 3, bw, attraction, a-b-db, 2, 1, 1, 15, 60, 135, 135, 60, 59, 134, 3, 2.00505
315, 3, bw, attraction, a-b-db, 2, 1, 1, 15, 60, 135, 135, 60, 59, 134, 2, 1.61892
315, 3, bw, attraction, a-b-da, 14, 2, 1, 16, 165, 90, 153, 83, 90, 165, 3, 9.84775
315, 3, bw, attraction, a-b-da, 14, 2, 1, 16, 165, 90, 153, 83, 90, 165, 2, 0.474035
315, 3, bw, filler, NA, 999, 999, 1, 17, 71, 116, 180, 59, 156, 85, 3, 3.05245
315, 3, bw, filler, NA, 999, 999, 1, 17, 71, 116, 180, 59, 156, 85, 1, 0.488731
315, 3, bw, attraction, a-b-da, 2, 2, 1, 18, 90, 165, 165, 90, 163, 89, 1, 2.81927
315, 3, bw, attraction, a-b-da, 2, 2, 1, 18, 90, 165, 165, 90, 163, 89, 2, 0.305034
315, 3, bw, filler, NA, 999, 999, 1, 19, 168, 103, 147, 138, 110, 122, 2, 1.95493
315, 3, bw, filler, NA, 999, 999, 1, 19, 168, 103, 147, 138, 110, 122, 3, 0.538854
315, 3, bw, catch, NA, 999, 999, 1, 20, 147, 108, 140, 175, 114, 81, 2, 3.81132
315, 3, bw, catch, NA, 999, 999, 1, 20, 147, 108, 140, 175, 114, 81, 3, 0.488758
315, 3, bw, attraction, a-b-db, 9, 2, 1, 21, 86, 157, 165, 90, 90, 165, 3, 8.78724
315, 3, bw, attraction, a-b-db, 9, 2, 1, 21, 86, 157, 165, 90, 90, 165, 2, 1.40842
315, 3, bw, filler, NA, 999, 999, 1, 22, 79, 105, 194, 81, 156, 190, 3, 1.20537
315, 3, bw, filler, NA, 999, 999, 1, 22, 79, 105, 194, 81, 156, 190, 1, 0.50755
315, 3, bw, attraction, a-b-db, 5, 1, 1, 23, 58, 132, 135, 60, 60, 135, 1, 4.15661
315, 3, bw, attraction, a-b-db, 5, 1, 1, 23, 58, 132, 135, 60, 60, 135, 2, 0.340017
315, 3, bw, attraction, a-b-da, 14, 3, 1, 24, 181, 111, 195, 120, 120, 195, 3, 1.46786
315, 3, bw, attraction, a-b-da, 14, 3, 1, 24, 181, 111, 195, 120, 120, 195, 1, 0.91201
315, 3, bw, filler, NA, 999, 999, 1, 25, 60, 86, 102, 65, 176, 112, 3, 1.3451
315, 3, bw, filler, NA, 999, 999, 1, 25, 60, 86, 102, 65, 176, 112, 1, 0.938002
315, 3, bw, attraction, a-b-da, 5, 2, 1, 26, 165, 90, 161, 88, 90, 165, 3, 4.25821
315, 3, bw, attraction, a-b-da, 5, 2, 1, 26, 165, 90, 161, 88, 90, 165, 2, 2.40556
315, 3, bw, attraction, a-b-db, 9, 1, 1, 27, 60, 135, 57, 129, 135, 60, 1, 5.7468
315, 3, bw, attraction, a-b-db, 9, 1, 1, 27, 60, 135, 57, 129, 135, 60, 3, 0.51424
315, 3, bw, attraction, a-b-da, 9, 3, 1, 28, 186, 114, 120, 195, 195, 120, 2, 4.68348
315, 3, bw, attraction, a-b-da, 9, 3, 1, 28, 186, 114, 120, 195, 195, 120, 1, 0.605854
315, 3, bw, attraction, a-b-db, 14, 3, 1, 29, 120, 195, 195, 120, 111, 181, 1, 2.25164
315, 3, bw, attraction, a-b-db, 14, 3, 1, 29, 120, 195, 195, 120, 111, 181, 2, 0.352154
315, 3, bw, filler, NA, 999, 999, 1, 30, 157, 76, 141, 186, 125, 112, 2, 0.968172
315, 3, bw, filler, NA, 999, 999, 1, 30, 157, 76, 141, 186, 125, 112, 3, 0.624388
315, 3, bw, attraction, a-b-da, 9, 1, 1, 31, 60, 135, 129, 57, 135, 60, 1, 1.44476
315, 3, bw, attraction, a-b-da, 9, 1, 1, 31, 60, 135, 129, 57, 135, 60, 2, 0.841629
315, 3, bw, filler, NA, 999, 999, 1, 32, 188, 171, 136, 101, 167, 103, 1, 0.877261
315, 3, bw, filler, NA, 999, 999, 1, 32, 188, 171, 136, 101, 167, 103, 2, 0.609141
315, 3, bw, filler, NA, 999, 999, 1, 33, 128, 65, 106, 103, 149, 175, 3, 0.822058
315, 3, bw, filler, NA, 999, 999, 1, 33, 128, 65, 106, 103, 149, 175, 2, 0.971841
315, 3, bw, attraction, a-b-db, 14, 1, 1, 34, 60, 135, 135, 60, 56, 125, 1, 8.85076
315, 3, bw, attraction, a-b-db, 14, 1, 1, 34, 60, 135, 135, 60, 56, 125, 2, 0.909314
315, 3, bw, attraction, a-b-da, 2, 3, 1, 35, 193, 119, 195, 120, 120, 195, 3, 7.62235
315, 3, bw, attraction, a-b-da, 2, 3, 1, 35, 193, 119, 195, 120, 120, 195, 2, 1.04255
315, 3, bw, attraction, a-b-da, 5, 3, 1, 36, 195, 120, 120, 195, 190, 117, 1, 4.80616
315, 3, bw, attraction, a-b-da, 5, 3, 1, 36, 195, 120, 120, 195, 190, 117, 2, 0.443343
315, 3, bw, attraction, a-b-da, 5, 1, 1, 37, 135, 60, 132, 58, 60, 135, 3, 10.1192
315, 3, bw, attraction, a-b-da, 5, 1, 1, 37, 135, 60, 132, 58, 60, 135, 2, 1.86261
315, 3, bw, attraction, a-b-da, 2, 1, 2, 1, 134, 59, 60, 135, 135, 60, 2, 7.93728
315, 3, bw, attraction, a-b-da, 2, 1, 2, 1, 134, 59, 60, 135, 135, 60, 3, 1.24072
315, 3, bw, filler, NA, 999, 999, 2, 2, 130, 135, 183, 193, 93, 181, 2, 1.35632
315, 3, bw, filler, NA, 999, 999, 2, 2, 130, 135, 183, 193, 93, 181, 1, 0.540572
315, 3, bw, filler, NA, 999, 999, 2, 3, 71, 131, 195, 193, 78, 104, 2, 2.03632
315, 3, bw, filler, NA, 999, 999, 2, 3, 71, 131, 195, 193, 78, 104, 3, 0.90561
315, 3, bw, filler, NA, 999, 999, 2, 4, 79, 59, 103, 116, 60, 152, 2, 2.52328
315, 3, bw, filler, NA, 999, 999, 2, 4, 79, 59, 103, 116, 60, 152, 1, 1.18046
315, 3, bw, attraction, a-b-da, 14, 3, 2, 5, 181, 111, 195, 120, 120, 195, 3, 6.67481
315, 3, bw, attraction, a-b-da, 14, 3, 2, 5, 181, 111, 195, 120, 120, 195, 2, 3.17264
315, 3, bw, filler, NA, 999, 999, 2, 6, 166, 166, 177, 110, 96, 119, 1, 1.5629
315, 3, bw, filler, NA, 999, 999, 2, 6, 166, 166, 177, 110, 96, 119, 3, 1.12308
315, 3, bw, filler, NA, 999, 999, 2, 7, 162, 167, 111, 76, 70, 143, 1, 19.636
315, 3, bw, filler, NA, 999, 999, 2, 7, 162, 167, 111, 76, 70, 143, 2, 0.643783
315, 3, bw, filler, NA, 999, 999, 2, 8, 94, 170, 96, 72, 171, 104, 3, 1.4555
315, 3, bw, filler, NA, 999, 999, 2, 8, 94, 170, 96, 72, 171, 104, 2, 1.90776
315, 3, bw, attraction, a-b-db, 5, 2, 2, 9, 88, 161, 90, 165, 165, 90, 2, 6.29247
315, 3, bw, attraction, a-b-db, 5, 2, 2, 9, 88, 161, 90, 165, 165, 90, 3, 6.35783
315, 3, bw, attraction, a-b-db, 14, 2, 2, 10, 90, 165, 165, 90, 83, 153, 2, 5.18782
315, 3, bw, attraction, a-b-db, 14, 2, 2, 10, 90, 165, 165, 90, 83, 153, 3, 0.48213
315, 3, bw, attraction, a-b-da, 5, 1, 2, 11, 135, 60, 132, 58, 60, 135, 3, 5.0605
315, 3, bw, attraction, a-b-da, 5, 1, 2, 11, 135, 60, 132, 58, 60, 135, 2, 0.879605
315, 3, bw, attraction, a-b-db, 5, 3, 2, 12, 120, 195, 117, 190, 195, 120, 3, 12.6501
315, 3, bw, attraction, a-b-db, 5, 3, 2, 12, 120, 195, 117, 190, 195, 120, 2, 1.99532
315, 3, bw, attraction, a-b-da, 9, 2, 2, 13, 165, 90, 157, 86, 90, 165, 3, 3.40884
315, 3, bw, attraction, a-b-da, 9, 2, 2, 13, 165, 90, 157, 86, 90, 165, 2, 0.918237
315, 3, bw, filler, NA, 999, 999, 2, 14, 145, 164, 148, 111, 98, 65, 1, 1.13519
315, 3, bw, filler, NA, 999, 999, 2, 14, 145, 164, 148, 111, 98, 65, 3, 1.00883
315, 3, bw, attraction, a-b-db, 2, 2, 2, 15, 89, 163, 165, 90, 90, 165, 2, 14.8777
315, 3, bw, attraction, a-b-db, 2, 2, 2, 15, 89, 163, 165, 90, 90, 165, 3, 0.517114
315, 3, bw, attraction, a-b-da, 5, 2, 2, 16, 161, 88, 90, 165, 165, 90, 2, 5.43814
315, 3, bw, attraction, a-b-da, 5, 2, 2, 16, 161, 88, 90, 165, 165, 90, 3, 1.7145
315, 3, bw, attraction, a-b-db, 5, 1, 2, 17, 60, 135, 135, 60, 58, 132, 2, 10.8512
315, 3, bw, attraction, a-b-db, 5, 1, 2, 17, 60, 135, 135, 60, 58, 132, 3, 0.813097
315, 3, bw, catch, NA, 999, 999, 2, 18, 108, 87, 127, 188, 120, 135, 2, 0.9701
315, 3, bw, catch, NA, 999, 999, 2, 18, 108, 87, 127, 188, 120, 135, 1, 1.1705
315, 3, bw, attraction, a-b-da, 5, 3, 2, 19, 120, 195, 190, 117, 195, 120, 1, 4.41737
315, 3, bw, attraction, a-b-da, 5, 3, 2, 19, 120, 195, 190, 117, 195, 120, 2, 3.08665
315, 3, bw, filler, NA, 999, 999, 2, 20, 155, 65, 194, 108, 57, 57, 2, 2.2485
315, 3, bw, filler, NA, 999, 999, 2, 20, 155, 65, 194, 108, 57, 57, 3, 0.812941
315, 3, bw, attraction, a-b-db, 9, 2, 2, 21, 165, 90, 90, 165, 86, 157, 1, 4.61794
315, 3, bw, attraction, a-b-db, 9, 2, 2, 21, 165, 90, 90, 165, 86, 157, 3, 3.55117
315, 3, bw, attraction, a-b-da, 9, 1, 2, 22, 135, 60, 129, 57, 60, 135, 3, 10.1579
315, 3, bw, attraction, a-b-da, 9, 1, 2, 22, 135, 60, 129, 57, 60, 135, 2, 2.21146
315, 3, bw, attraction, a-b-da, 14, 1, 2, 23, 135, 60, 125, 56, 60, 135, 3, 1.51212
315, 3, bw, attraction, a-b-da, 14, 1, 2, 23, 135, 60, 125, 56, 60, 135, 2, 1.28233
315, 3, bw, attraction, a-b-da, 2, 2, 2, 24, 165, 90, 163, 89, 90, 165, 3, 3.98043
315, 3, bw, attraction, a-b-da, 2, 2, 2, 24, 165, 90, 163, 89, 90, 165, 2, 1.0831
315, 3, bw, attraction, a-b-da, 9, 3, 2, 25, 186, 114, 120, 195, 195, 120, 2, 3.46134
315, 3, bw, attraction, a-b-da, 9, 3, 2, 25, 186, 114, 120, 195, 195, 120, 1, 1.97694
315, 3, bw, attraction, a-b-db, 2, 1, 2, 26, 135, 60, 59, 134, 60, 135, 2, 3.71091
315, 3, bw, attraction, a-b-db, 2, 1, 2, 26, 135, 60, 59, 134, 60, 135, 1, 3.28051
315, 3, bw, attraction, a-b-db, 9, 3, 2, 27, 195, 120, 114, 186, 120, 195, 1, 4.17813
315, 3, bw, attraction, a-b-db, 9, 3, 2, 27, 195, 120, 114, 186, 120, 195, 2, 0.648588
315, 3, bw, attraction, a-b-db, 14, 3, 2, 28, 195, 120, 111, 181, 120, 195, 1, 2.39637
315, 3, bw, attraction, a-b-db, 14, 3, 2, 28, 195, 120, 111, 181, 120, 195, 2, 1.51499
315, 3, bw, attraction, a-b-da, 14, 2, 2, 29, 153, 83, 165, 90, 90, 165, 3, 4.34784
315, 3, bw, attraction, a-b-da, 14, 2, 2, 29, 153, 83, 165, 90, 90, 165, 1, 2.08378
315, 3, bw, catch, NA, 999, 999, 2, 30, 115, 80, 96, 159, 166, 149, 3, 2.64566
315, 3, bw, catch, NA, 999, 999, 2, 30, 115, 80, 96, 159, 166, 149, 1, 0.8902
315, 3, bw, attraction, a-b-db, 2, 3, 2, 31, 120, 195, 119, 193, 195, 120, 2, 10.8278
315, 3, bw, attraction, a-b-db, 2, 3, 2, 31, 120, 195, 119, 193, 195, 120, 3, 0.66254
315, 3, bw, attraction, a-b-db, 14, 1, 2, 32, 135, 60, 56, 125, 60, 135, 1, 4.00947
315, 3, bw, attraction, a-b-db, 14, 1, 2, 32, 135, 60, 56, 125, 60, 135, 2, 1.22288
315, 3, bw, filler, NA, 999, 999, 2, 33, 190, 111, 121, 100, 120, 113, 1, 22.2917
315, 3, bw, filler, NA, 999, 999, 2, 33, 190, 111, 121, 100, 120, 113, 2, 0.920719
315, 3, bw, catch, NA, 999, 999, 2, 34, 151, 104, 103, 92, 193, 122, 3, 1.8258
315, 3, bw, catch, NA, 999, 999, 2, 34, 151, 104, 103, 92, 193, 122, 2, 0.735189
315, 3, bw, filler, NA, 999, 999, 2, 35, 99, 70, 185, 179, 174, 190, 2, 2.33552
315, 3, bw, filler, NA, 999, 999, 2, 35, 99, 70, 185, 179, 174, 190, 1, 0.720813
315, 3, bw, attraction, a-b-da, 2, 3, 2, 36, 120, 195, 193, 119, 195, 120, 1, 3.33794
315, 3, bw, attraction, a-b-da, 2, 3, 2, 36, 120, 195, 193, 119, 195, 120, 2, 1.33072
315, 3, bw, attraction, a-b-db, 9, 1, 2, 37, 135, 60, 60, 135, 57, 129, 2, 7.0669
315, 3, bw, attraction, a-b-db, 9, 1, 2, 37, 135, 60, 60, 135, 57, 129, 1, 0.669322
315, 3, bw, attraction, a-b-da, 2, 1, 3, 1, 135, 60, 134, 59, 60, 135, 3, 1.58445
315, 3, bw, attraction, a-b-da, 2, 1, 3, 1, 135, 60, 134, 59, 60, 135, 2, 0.815916
315, 3, bw, attraction, a-b-db, 2, 3, 3, 2, 120, 195, 195, 120, 119, 193, 3, 5.62893
315, 3, bw, attraction, a-b-db, 2, 3, 3, 2, 120, 195, 195, 120, 119, 193, 2, 2.77729
315, 3, bw, attraction, a-b-da, 9, 1, 3, 3, 135, 60, 60, 135, 129, 57, 1, 1.75087
315, 3, bw, attraction, a-b-da, 9, 1, 3, 3, 135, 60, 60, 135, 129, 57, 2, 5.31962
315, 3, bw, filler, NA, 999, 999, 3, 4, 152, 126, 156, 81, 111, 165, 1, 3.03128
315, 3, bw, filler, NA, 999, 999, 3, 4, 152, 126, 156, 81, 111, 165, 2, 1.6123
315, 3, bw, attraction, a-b-db, 9, 2, 3, 5, 86, 157, 90, 165, 165, 90, 3, 10.2172
315, 3, bw, attraction, a-b-db, 9, 2, 3, 5, 86, 157, 90, 165, 165, 90, 1, 0.532499
315, 3, bw, filler, NA, 999, 999, 3, 6, 126, 164, 98, 169, 95, 96, 1, 2.30096
315, 3, bw, filler, NA, 999, 999, 3, 6, 126, 164, 98, 169, 95, 96, 3, 0.519706
315, 3, bw, attraction, a-b-db, 14, 3, 3, 7, 111, 181, 120, 195, 195, 120, 2, 1.98467
315, 3, bw, attraction, a-b-db, 14, 3, 3, 7, 111, 181, 120, 195, 195, 120, 1, 5.00801
315, 3, bw, attraction, a-b-db, 5, 2, 3, 8, 88, 161, 90, 165, 165, 90, 3, 4.74037
315, 3, bw, attraction, a-b-db, 5, 2, 3, 8, 88, 161, 90, 165, 165, 90, 1, 0.82026
315, 3, bw, attraction, a-b-da, 14, 2, 3, 9, 90, 165, 153, 83, 165, 90, 1, 11.2412
315, 3, bw, attraction, a-b-da, 14, 2, 3, 9, 90, 165, 153, 83, 165, 90, 2, 0.69103
315, 3, bw, attraction, a-b-db, 2, 2, 3, 10, 89, 163, 90, 165, 165, 90, 3, 18.9087
315, 3, bw, attraction, a-b-db, 2, 2, 3, 10, 89, 163, 90, 165, 165, 90, 1, 0.586565
315, 3, bw, filler, NA, 999, 999, 3, 11, 148, 188, 186, 67, 90, 193, 1, 1.61655
315, 3, bw, filler, NA, 999, 999, 3, 11, 148, 188, 186, 67, 90, 193, 2, 1.71878
315, 3, bw, attraction, a-b-db, 2, 1, 3, 12, 59, 134, 60, 135, 135, 60, 2, 7.90347
315, 3, bw, attraction, a-b-db, 2, 1, 3, 12, 59, 134, 60, 135, 135, 60, 3, 0.544377
315, 3, bw, attraction, a-b-da, 14, 1, 3, 13, 135, 60, 125, 56, 60, 135, 1, 1.46405
315, 3, bw, attraction, a-b-da, 14, 1, 3, 13, 135, 60, 125, 56, 60, 135, 3, 2.22029
315, 3, bw, attraction, a-b-da, 5, 2, 3, 14, 90, 165, 161, 88, 165, 90, 1, 1.04085
315, 3, bw, attraction, a-b-da, 5, 2, 3, 14, 90, 165, 161, 88, 165, 90, 2, 1.55789
315, 3, bw, filler, NA, 999, 999, 3, 15, 95, 138, 118, 185, 121, 113, 2, 4.7486
315, 3, bw, filler, NA, 999, 999, 3, 15, 95, 138, 118, 185, 121, 113, 1, 1.65239
315, 3, bw, attraction, a-b-db, 14, 2, 3, 16, 83, 153, 165, 90, 90, 165, 3, 11.2319
315, 3, bw, attraction, a-b-db, 14, 2, 3, 16, 83, 153, 165, 90, 90, 165, 1, 1.41031
315, 3, bw, attraction, a-b-da, 5, 1, 3, 17, 132, 58, 60, 135, 135, 60, 1, 7.16715
315, 3, bw, attraction, a-b-da, 5, 1, 3, 17, 132, 58, 60, 135, 135, 60, 2, 4.8056
315, 3, bw, attraction, a-b-db, 5, 1, 3, 18, 58, 132, 60, 135, 135, 60, 2, 10.882
315, 3, bw, attraction, a-b-db, 5, 1, 3, 18, 58, 132, 60, 135, 135, 60, 3, 1.09054
315, 3, bw, attraction, a-b-da, 14, 3, 3, 19, 181, 111, 120, 195, 195, 120, 2, 6.86019
315, 3, bw, attraction, a-b-da, 14, 3, 3, 19, 181, 111, 120, 195, 195, 120, 1, 0.510829
315, 3, bw, catch, NA, 999, 999, 3, 20, 135, 60, 124, 131, 184, 131, 3, 1.58379
315, 3, bw, catch, NA, 999, 999, 3, 20, 135, 60, 124, 131, 184, 131, 1, 0.767256
315, 3, bw, catch, NA, 999, 999, 3, 21, 181, 134, 131, 64, 106, 149, 1, 1.38221
315, 3, bw, catch, NA, 999, 999, 3, 21, 181, 134, 131, 64, 106, 149, 3, 0.613869
315, 3, bw, filler, NA, 999, 999, 3, 22, 172, 68, 80, 96, 62, 179, 3, 15.451
315, 3, bw, filler, NA, 999, 999, 3, 22, 172, 68, 80, 96, 62, 179, 2, 0.53134
315, 3, bw, filler, NA, 999, 999, 3, 23, 119, 124, 177, 100, 64, 58, 1, 1.04381
315, 3, bw, filler, NA, 999, 999, 3, 23, 119, 124, 177, 100, 64, 58, 3, 0.496915
315, 3, bw, attraction, a-b-da, 9, 3, 3, 24, 186, 114, 195, 120, 120, 195, 3, 10.9547
315, 3, bw, attraction, a-b-da, 9, 3, 3, 24, 186, 114, 195, 120, 120, 195, 2, 2.62446
315, 3, bw, filler, NA, 999, 999, 3, 25, 127, 144, 148, 142, 75, 134, 2, 3.72427
315, 3, bw, filler, NA, 999, 999, 3, 25, 127, 144, 148, 142, 75, 134, 3, 0.50117
315, 3, bw, attraction, a-b-da, 5, 3, 3, 26, 190, 117, 120, 195, 195, 120, 2, 5.50281
315, 3, bw, attraction, a-b-da, 5, 3, 3, 26, 190, 117, 120, 195, 195, 120, 1, 0.648519
315, 3, bw, filler, NA, 999, 999, 3, 27, 173, 170, 117, 102, 125, 142, 1, 2.36422
315, 3, bw, filler, NA, 999, 999, 3, 27, 173, 170, 117, 102, 125, 142, 2, 0.828081
315, 3, bw, catch, NA, 999, 999, 3, 28, 81, 114, 132, 123, 120, 195, 3, 1.29641
315, 3, bw, catch, NA, 999, 999, 3, 28, 81, 114, 132, 123, 120, 195, 1, 0.627364
315, 3, bw, attraction, a-b-db, 14, 1, 3, 29, 135, 60, 56, 125, 60, 135, 3, 3.50376
315, 3, bw, attraction, a-b-db, 14, 1, 3, 29, 135, 60, 56, 125, 60, 135, 2, 3.41805
315, 3, bw, attraction, a-b-db, 9, 3, 3, 30, 114, 186, 120, 195, 195, 120, 3, 4.47821
315, 3, bw, attraction, a-b-db, 9, 3, 3, 30, 114, 186, 120, 195, 195, 120, 1, 0.632711
315, 3, bw, attraction, a-b-da, 9, 2, 3, 31, 90, 165, 165, 90, 157, 86, 1, 12.1651
315, 3, bw, attraction, a-b-da, 9, 2, 3, 31, 90, 165, 165, 90, 157, 86, 3, 0.594012
315, 3, bw, attraction, a-b-da, 2, 2, 3, 32, 165, 90, 90, 165, 163, 89, 1, 18.3998
315, 3, bw, attraction, a-b-da, 2, 2, 3, 32, 165, 90, 90, 165, 163, 89, 2, 7.54534
315, 3, bw, filler, NA, 999, 999, 3, 33, 68, 147, 85, 139, 173, 96, 3, 1.69491
315, 3, bw, filler, NA, 999, 999, 3, 33, 68, 147, 85, 139, 173, 96, 1, 3.64173
315, 3, bw, attraction, a-b-da, 2, 3, 3, 34, 193, 119, 120, 195, 195, 120, 2, 4.19647
315, 3, bw, attraction, a-b-da, 2, 3, 3, 34, 193, 119, 120, 195, 195, 120, 3, 0.690436
315, 3, bw, attraction, a-b-db, 5, 3, 3, 35, 195, 120, 120, 195, 117, 190, 2, 2.26821
315, 3, bw, attraction, a-b-db, 5, 3, 3, 35, 195, 120, 120, 195, 117, 190, 1, 0.488131
315, 3, bw, attraction, a-b-db, 9, 1, 3, 36, 57, 129, 60, 135, 135, 60, 2, 19.2668
315, 3, bw, attraction, a-b-db, 9, 1, 3, 36, 57, 129, 60, 135, 135, 60, 3, 0.555515
315, 3, bw, filler, NA, 999, 999, 3, 37, 143, 147, 166, 66, 158, 154, 3, 4.36094
315, 3, bw, filler, NA, 999, 999, 3, 37, 143, 147, 166, 66, 158, 154, 2, 1.44845
315, 3, bw, attraction, a-b-da, 5, 3, 4, 1, 120, 195, 195, 120, 190, 117, 1, 6.07572
315, 3, bw, attraction, a-b-da, 5, 3, 4, 1, 120, 195, 195, 120, 190, 117, 3, 0.877831
315, 3, bw, attraction, a-b-da, 9, 3, 4, 2, 186, 114, 120, 195, 195, 120, 2, 5.08008
315, 3, bw, attraction, a-b-da, 9, 3, 4, 2, 186, 114, 120, 195, 195, 120, 1, 0.46648
315, 3, bw, attraction, a-b-da, 9, 1, 4, 3, 129, 57, 135, 60, 60, 135, 3, 7.6377
315, 3, bw, attraction, a-b-da, 9, 1, 4, 3, 129, 57, 135, 60, 60, 135, 1, 2.52125
315, 3, bw, attraction, a-b-db, 9, 1, 4, 4, 60, 135, 57, 129, 135, 60, 3, 4.94574
315, 3, bw, attraction, a-b-db, 9, 1, 4, 4, 60, 135, 57, 129, 135, 60, 2, 1.63361
315, 3, bw, filler, NA, 999, 999, 4, 5, 97, 151, 86, 67, 180, 79, 1, 14.8536
315, 3, bw, filler, NA, 999, 999, 4, 5, 97, 151, 86, 67, 180, 79, 2, 0.750231
315, 3, bw, attraction, a-b-db, 9, 2, 4, 6, 165, 90, 86, 157, 90, 165, 1, 9.58997
315, 3, bw, attraction, a-b-db, 9, 2, 4, 6, 165, 90, 86, 157, 90, 165, 2, 1.35498
315, 3, bw, filler, NA, 999, 999, 4, 7, 171, 178, 57, 146, 59, 105, 1, 0.906464
315, 3, bw, filler, NA, 999, 999, 4, 7, 171, 178, 57, 146, 59, 105, 3, 2.06898
315, 3, bw, attraction, a-b-da, 9, 2, 4, 8, 90, 165, 165, 90, 157, 86, 1, 15.9356
315, 3, bw, attraction, a-b-da, 9, 2, 4, 8, 90, 165, 165, 90, 157, 86, 2, 2.02061
315, 3, bw, attraction, a-b-da, 2, 2, 4, 9, 163, 89, 90, 165, 165, 90, 1, 3.58514
315, 3, bw, attraction, a-b-da, 2, 2, 4, 9, 163, 89, 90, 165, 165, 90, 2, 0.575905
315, 3, bw, filler, NA, 999, 999, 4, 10, 188, 176, 181, 109, 135, 175, 1, 0.998307
315, 3, bw, filler, NA, 999, 999, 4, 10, 188, 176, 181, 109, 135, 175, 2, 2.22932
315, 3, bw, filler, NA, 999, 999, 4, 11, 167, 138, 56, 105, 195, 180, 3, 1.46528
315, 3, bw, filler, NA, 999, 999, 4, 11, 167, 138, 56, 105, 195, 180, 2, 0.933493
315, 3, bw, attraction, a-b-db, 14, 2, 4, 12, 165, 90, 83, 153, 90, 165, 2, 7.7578
315, 3, bw, attraction, a-b-db, 14, 2, 4, 12, 165, 90, 83, 153, 90, 165, 1, 6.67601
315, 3, bw, catch, NA, 999, 999, 4, 13, 113, 82, 101, 154, 157, 158, 3, 1.46853
315, 3, bw, catch, NA, 999, 999, 4, 13, 113, 82, 101, 154, 157, 158, 1, 1.1367
315, 3, bw, attraction, a-b-db, 14, 1, 4, 14, 135, 60, 56, 125, 60, 135, 3, 2.12102
315, 3, bw, attraction, a-b-db, 14, 1, 4, 14, 135, 60, 56, 125, 60, 135, 2, 2.66701
315, 3, bw, attraction, a-b-da, 5, 1, 4, 15, 60, 135, 132, 58, 135, 60, 1, 5.31745
315, 3, bw, attraction, a-b-da, 5, 1, 4, 15, 60, 135, 132, 58, 135, 60, 2, 3.8224
315, 3, bw, filler, NA, 999, 999, 4, 16, 175, 153, 65, 112, 70, 104, 1, 0.874445
315, 3, bw, filler, NA, 999, 999, 4, 16, 175, 153, 65, 112, 70, 104, 3, 1.7743
315, 3, bw, attraction, a-b-db, 5, 1, 4, 17, 58, 132, 135, 60, 60, 135, 2, 16.1882
315, 3, bw, attraction, a-b-db, 5, 1, 4, 17, 58, 132, 135, 60, 60, 135, 1, 1.39913
315, 3, bw, catch, NA, 999, 999, 4, 18, 153, 162, 79, 116, 165, 90, 1, 2.27656
315, 3, bw, catch, NA, 999, 999, 4, 18, 153, 162, 79, 116, 165, 90, 2, 0.623942
315, 3, bw, attraction, a-b-da, 2, 1, 4, 19, 134, 59, 60, 135, 135, 60, 2, 9.02027
315, 3, bw, attraction, a-b-da, 2, 1, 4, 19, 134, 59, 60, 135, 135, 60, 3, 1.89608
315, 3, bw, attraction, a-b-db, 2, 3, 4, 20, 120, 195, 119, 193, 195, 120, 3, 9.00147
315, 3, bw, attraction, a-b-db, 2, 3, 4, 20, 120, 195, 119, 193, 195, 120, 2, 2.84601
315, 3, bw, attraction, a-b-db, 5, 2, 4, 21, 165, 90, 88, 161, 90, 165, 1, 6.12903
315, 3, bw, attraction, a-b-db, 5, 2, 4, 21, 165, 90, 88, 161, 90, 165, 2, 0.473038
315, 3, bw, attraction, a-b-da, 14, 3, 4, 22, 195, 120, 181, 111, 120, 195, 3, 1.86023
315, 3, bw, attraction, a-b-da, 14, 3, 4, 22, 195, 120, 181, 111, 120, 195, 2, 3.33632
315, 3, bw, catch, NA, 999, 999, 4, 23, 112, 83, 167, 148, 107, 148, 2, 1.6958
315, 3, bw, catch, NA, 999, 999, 4, 23, 112, 83, 167, 148, 107, 148, 1, 0.650655
315, 3, bw, filler, NA, 999, 999, 4, 24, 191, 78, 187, 182, 144, 167, 2, 2.70246
315, 3, bw, filler, NA, 999, 999, 4, 24, 191, 78, 187, 182, 144, 167, 1, 1.71278
315, 3, bw, filler, NA, 999, 999, 4, 25, 161, 120, 177, 179, 167, 73, 2, 2.27359
315, 3, bw, filler, NA, 999, 999, 4, 25, 161, 120, 177, 179, 167, 73, 3, 0.62074
315, 3, bw, attraction, a-b-da, 14, 2, 4, 26, 153, 83, 90, 165, 165, 90, 3, 3.28191
315, 3, bw, attraction, a-b-da, 14, 2, 4, 26, 153, 83, 90, 165, 165, 90, 2, 2.51685
315, 3, bw, filler, NA, 999, 999, 4, 27, 122, 78, 134, 188, 101, 143, 2, 1.50134
315, 3, bw, filler, NA, 999, 999, 4, 27, 122, 78, 134, 188, 101, 143, 1, 0.496128
315, 3, bw, attraction, a-b-da, 2, 3, 4, 28, 193, 119, 195, 120, 120, 195, 1, 9.23394
315, 3, bw, attraction, a-b-da, 2, 3, 4, 28, 193, 119, 195, 120, 120, 195, 2, 1.30099
315, 3, bw, attraction, a-b-db, 9, 3, 4, 29, 195, 120, 114, 186, 120, 195, 1, 5.52667
315, 3, bw, attraction, a-b-db, 9, 3, 4, 29, 195, 120, 114, 186, 120, 195, 3, 0.542747
315, 3, bw, filler, NA, 999, 999, 4, 30, 67, 100, 90, 124, 184, 164, 3, 0.942533
315, 3, bw, filler, NA, 999, 999, 4, 30, 67, 100, 90, 124, 184, 164, 1, 0.575758
315, 3, bw, attraction, a-b-da, 5, 2, 4, 31, 90, 165, 161, 88, 165, 90, 1, 2.71808
315, 3, bw, attraction, a-b-da, 5, 2, 4, 31, 90, 165, 161, 88, 165, 90, 2, 3.29582
315, 3, bw, attraction, a-b-db, 14, 3, 4, 32, 120, 195, 111, 181, 195, 120, 1, 2.59277
315, 3, bw, attraction, a-b-db, 14, 3, 4, 32, 120, 195, 111, 181, 195, 120, 2, 2.97522
315, 3, bw, attraction, a-b-db, 2, 2, 4, 33, 89, 163, 165, 90, 90, 165, 1, 15.6768
315, 3, bw, attraction, a-b-db, 2, 2, 4, 33, 89, 163, 165, 90, 90, 165, 2, 3.73201
315, 3, bw, attraction, a-b-db, 2, 1, 4, 34, 60, 135, 59, 134, 135, 60, 3, 10.4914
315, 3, bw, attraction, a-b-db, 2, 1, 4, 34, 60, 135, 59, 134, 135, 60, 2, 0.707394
315, 3, bw, attraction, a-b-da, 14, 1, 4, 35, 60, 135, 125, 56, 135, 60, 3, 7.38042
315, 3, bw, attraction, a-b-da, 14, 1, 4, 35, 60, 135, 125, 56, 135, 60, 2, 0.650166
315, 3, bw, attraction, a-b-db, 5, 3, 4, 36, 120, 195, 117, 190, 195, 120, 3, 3.73388
315, 3, bw, attraction, a-b-db, 5, 3, 4, 36, 120, 195, 117, 190, 195, 120, 2, 2.98282
315, 3, bw, filler, NA, 999, 999, 4, 37, 143, 112, 93, 132, 171, 91, 1, 5.82042
315, 3, bw, filler, NA, 999, 999, 4, 37, 143, 112, 93, 132, 171, 91, 2, 4.18523
315, 3, bw, filler, NA, 999, 999, 5, 1, 121, 154, 94, 194, 100, 194, 1, 15.3491
315, 3, bw, filler, NA, 999, 999, 5, 1, 121, 154, 94, 194, 100, 194, 2, 0.361678
315, 3, bw, attraction, a-b-da, 14, 2, 5, 2, 153, 83, 165, 90, 90, 165, 2, 1.90479
315, 3, bw, attraction, a-b-da, 14, 2, 5, 2, 153, 83, 165, 90, 90, 165, 3, 0.378886
315, 3, bw, filler, NA, 999, 999, 5, 3, 135, 166, 155, 87, 120, 170, 1, 1.19333
315, 3, bw, filler, NA, 999, 999, 5, 3, 135, 166, 155, 87, 120, 170, 2, 0.43227
315, 3, bw, attraction, a-b-db, 14, 1, 5, 4, 135, 60, 60, 135, 56, 125, 1, 5.22877
315, 3, bw, attraction, a-b-db, 14, 1, 5, 4, 135, 60, 60, 135, 56, 125, 3, 0.529085
315, 3, bw, attraction, a-b-da, 9, 3, 5, 5, 186, 114, 120, 195, 195, 120, 2, 7.10545
315, 3, bw, attraction, a-b-da, 9, 3, 5, 5, 186, 114, 120, 195, 195, 120, 3, 3.29068
315, 3, bw, attraction, a-b-da, 2, 1, 5, 6, 135, 60, 134, 59, 60, 135, 3, 2.90023
315, 3, bw, attraction, a-b-da, 2, 1, 5, 6, 135, 60, 134, 59, 60, 135, 2, 0.734683
315, 3, bw, attraction, a-b-db, 14, 3, 5, 7, 111, 181, 195, 120, 120, 195, 2, 19.063
315, 3, bw, attraction, a-b-db, 14, 3, 5, 7, 111, 181, 195, 120, 120, 195, 1, 2.54167
315, 3, bw, attraction, a-b-da, 2, 3, 5, 8, 195, 120, 193, 119, 120, 195, 3, 1.30091
315, 3, bw, attraction, a-b-da, 2, 3, 5, 8, 195, 120, 193, 119, 120, 195, 2, 1.8156
315, 3, bw, attraction, a-b-db, 2, 2, 5, 9, 89, 163, 165, 90, 90, 165, 1, 7.80438
315, 3, bw, attraction, a-b-db, 2, 2, 5, 9, 89, 163, 165, 90, 90, 165, 2, 0.417289
315, 3, bw, filler, NA, 999, 999, 5, 10, 76, 92, 105, 107, 85, 104, 2, 2.55044
315, 3, bw, filler, NA, 999, 999, 5, 10, 76, 92, 105, 107, 85, 104, 1, 0.447042
315, 3, bw, attraction, a-b-da, 14, 3, 5, 11, 120, 195, 195, 120, 181, 111, 1, 3.16268
315, 3, bw, attraction, a-b-da, 14, 3, 5, 11, 120, 195, 195, 120, 181, 111, 3, 1.13041
315, 3, bw, attraction, a-b-db, 9, 1, 5, 12, 60, 135, 135, 60, 57, 129, 1, 47.3867
315, 3, bw, attraction, a-b-db, 9, 1, 5, 12, 60, 135, 135, 60, 57, 129, 2, 1.26788
315, 3, bw, catch, NA, 999, 999, 5, 13, 157, 158, 134, 61, 93, 162, 1, 1.01464
315, 3, bw, catch, NA, 999, 999, 5, 13, 157, 158, 134, 61, 93, 162, 2, 1.34917
315, 3, bw, attraction, a-b-da, 2, 2, 5, 14, 90, 165, 165, 90, 163, 89, 1, 3.07655
315, 3, bw, attraction, a-b-da, 2, 2, 5, 14, 90, 165, 165, 90, 163, 89, 2, 1.43956
315, 3, bw, attraction, a-b-db, 2, 3, 5, 15, 120, 195, 195, 120, 119, 193, 1, 6.16369
315, 3, bw, attraction, a-b-db, 2, 3, 5, 15, 120, 195, 195, 120, 119, 193, 2, 1.23448
315, 3, bw, attraction, a-b-db, 9, 2, 5, 16, 86, 157, 90, 165, 165, 90, 2, 11.4946
315, 3, bw, attraction, a-b-db, 9, 2, 5, 16, 86, 157, 90, 165, 165, 90, 3, 3.50241
315, 3, bw, filler, NA, 999, 999, 5, 17, 90, 89, 119, 83, 60, 159, 3, 3.91919
315, 3, bw, filler, NA, 999, 999, 5, 17, 90, 89, 119, 83, 60, 159, 1, 1.25666
315, 3, bw, attraction, a-b-da, 14, 1, 5, 18, 125, 56, 60, 135, 135, 60, 2, 3.94019
315, 3, bw, attraction, a-b-da, 14, 1, 5, 18, 125, 56, 60, 135, 135, 60, 1, 0.404294
315, 3, bw, filler, NA, 999, 999, 5, 19, 66, 186, 170, 130, 167, 122, 2, 1.85015
315, 3, bw, filler, NA, 999, 999, 5, 19, 66, 186, 170, 130, 167, 122, 1, 0.414768
315, 3, bw, attraction, a-b-da, 5, 2, 5, 20, 90, 165, 161, 88, 165, 90, 1, 1.37201
315, 3, bw, attraction, a-b-da, 5, 2, 5, 20, 90, 165, 161, 88, 165, 90, 2, 0.355495
315, 3, bw, catch, NA, 999, 999, 5, 21, 61, 134, 121, 194, 152, 103, 2, 1.09934
315, 3, bw, catch, NA, 999, 999, 5, 21, 61, 134, 121, 194, 152, 103, 1, 0.758326
315, 3, bw, attraction, a-b-da, 9, 2, 5, 22, 90, 165, 157, 86, 165, 90, 1, 2.93327
315, 3, bw, attraction, a-b-da, 9, 2, 5, 22, 90, 165, 157, 86, 165, 90, 2, 1.39837
315, 3, bw, filler, NA, 999, 999, 5, 23, 133, 82, 126, 83, 137, 79, 1, 3.26798
315, 3, bw, filler, NA, 999, 999, 5, 23, 133, 82, 126, 83, 137, 79, 2, 0.503558
315, 3, bw, attraction, a-b-db, 14, 2, 5, 24, 83, 153, 165, 90, 90, 165, 3, 1.55338
315, 3, bw, attraction, a-b-db, 14, 2, 5, 24, 83, 153, 165, 90, 90, 165, 1, 4.16213
315, 3, bw, filler, NA, 999, 999, 5, 25, 70, 152, 155, 172, 168, 153, 2, 0.904063
315, 3, bw, filler, NA, 999, 999, 5, 25, 70, 152, 155, 172, 168, 153, 1, 0.818413
315, 3, bw, attraction, a-b-db, 2, 1, 5, 26, 135, 60, 59, 134, 60, 135, 1, 5.79143
315, 3, bw, attraction, a-b-db, 2, 1, 5, 26, 135, 60, 59, 134, 60, 135, 2, 0.540937
315, 3, bw, attraction, a-b-da, 5, 3, 5, 27, 120, 195, 195, 120, 190, 117, 1, 37.0288
315, 3, bw, attraction, a-b-da, 5, 3, 5, 27, 120, 195, 195, 120, 190, 117, 2, 1.36794
315, 3, bw, attraction, a-b-db, 5, 2, 5, 28, 165, 90, 88, 161, 90, 165, 1, 17.2546
315, 3, bw, attraction, a-b-db, 5, 2, 5, 28, 165, 90, 88, 161, 90, 165, 2, 0.42252
315, 3, bw, attraction, a-b-da, 5, 1, 5, 29, 135, 60, 132, 58, 60, 135, 3, 1.61176
315, 3, bw, attraction, a-b-da, 5, 1, 5, 29, 135, 60, 132, 58, 60, 135, 2, 1.12181
315, 3, bw, filler, NA, 999, 999, 5, 30, 80, 131, 110, 58, 137, 128, 3, 1.04275
315, 3, bw, filler, NA, 999, 999, 5, 30, 80, 131, 110, 58, 137, 128, 2, 0.631734
315, 3, bw, catch, NA, 999, 999, 5, 31, 146, 169, 74, 121, 98, 157, 1, 0.684091
315, 3, bw, catch, NA, 999, 999, 5, 31, 146, 169, 74, 121, 98, 157, 2, 0.607902
315, 3, bw, filler, NA, 999, 999, 5, 32, 118, 125, 109, 60, 167, 191, 3, 1.99708
315, 3, bw, filler, NA, 999, 999, 5, 32, 118, 125, 109, 60, 167, 191, 2, 0.723648
315, 3, bw, attraction, a-b-da, 9, 1, 5, 33, 60, 135, 135, 60, 129, 57, 1, 4.01209
315, 3, bw, attraction, a-b-da, 9, 1, 5, 33, 60, 135, 135, 60, 129, 57, 3, 0.905528
315, 3, bw, attraction, a-b-db, 9, 3, 5, 34, 114, 186, 120, 195, 195, 120, 3, 3.66706
315, 3, bw, attraction, a-b-db, 9, 3, 5, 34, 114, 186, 120, 195, 195, 120, 1, 1.25456
315, 3, bw, filler, NA, 999, 999, 5, 35, 139, 69, 180, 155, 84, 83, 2, 1.03416
315, 3, bw, filler, NA, 999, 999, 5, 35, 139, 69, 180, 155, 84, 83, 3, 0.679925
315, 3, bw, attraction, a-b-db, 5, 3, 5, 36, 120, 195, 195, 120, 117, 190, 1, 9.00231
315, 3, bw, attraction, a-b-db, 5, 3, 5, 36, 120, 195, 195, 120, 117, 190, 2, 0.486824
315, 3, bw, attraction, a-b-db, 5, 1, 5, 37, 58, 132, 135, 60, 60, 135, 1, 5.5851
315, 3, bw, attraction, a-b-db, 5, 1, 5, 37, 58, 132, 135, 60, 60, 135, 2, 0.583418
315, 3, bw, attraction, a-b-da, 5, 1, 6, 1, 60, 135, 135, 60, 132, 58, 1, 2.10186
315, 3, bw, attraction, a-b-da, 5, 1, 6, 1, 60, 135, 135, 60, 132, 58, 2, 0.600513
315, 3, bw, attraction, a-b-db, 14, 1, 6, 2, 60, 135, 56, 125, 135, 60, 3, 6.12622
315, 3, bw, attraction, a-b-db, 14, 1, 6, 2, 60, 135, 56, 125, 135, 60, 2, 0.454332
315, 3, bw, filler, NA, 999, 999, 6, 3, 74, 173, 188, 163, 154, 70, 2, 0.83409
315, 3, bw, filler, NA, 999, 999, 6, 3, 74, 173, 188, 163, 154, 70, 3, 2.13583
315, 3, bw, attraction, a-b-db, 14, 2, 6, 4, 165, 90, 90, 165, 83, 153, 1, 4.41583
315, 3, bw, attraction, a-b-db, 14, 2, 6, 4, 165, 90, 90, 165, 83, 153, 3, 1.33307
315, 3, bw, filler, NA, 999, 999, 6, 5, 131, 102, 96, 122, 169, 80, 3, 4.78936
315, 3, bw, filler, NA, 999, 999, 6, 5, 131, 102, 96, 122, 169, 80, 2, 0.442999
315, 3, bw, filler, NA, 999, 999, 6, 6, 82, 164, 139, 133, 171, 175, 3, 1.95074
315, 3, bw, filler, NA, 999, 999, 6, 6, 82, 164, 139, 133, 171, 175, 2, 1.03153
315, 3, bw, filler, NA, 999, 999, 6, 7, 149, 131, 133, 58, 187, 90, 1, 6.01978
315, 3, bw, filler, NA, 999, 999, 6, 7, 149, 131, 133, 58, 187, 90, 2, 2.78467
315, 3, bw, filler, NA, 999, 999, 6, 8, 141, 194, 105, 111, 79, 88, 1, 1.85428
315, 3, bw, filler, NA, 999, 999, 6, 8, 141, 194, 105, 111, 79, 88, 3, 2.49105
315, 3, bw, attraction, a-b-db, 2, 1, 6, 9, 59, 134, 135, 60, 60, 135, 1, 10.8282
315, 3, bw, attraction, a-b-db, 2, 1, 6, 9, 59, 134, 135, 60, 60, 135, 2, 0.382819
315, 3, bw, attraction, a-b-da, 2, 3, 6, 10, 120, 195, 195, 120, 193, 119, 1, 3.28525
315, 3, bw, attraction, a-b-da, 2, 3, 6, 10, 120, 195, 195, 120, 193, 119, 2, 0.704173
315, 3, bw, filler, NA, 999, 999, 6, 11, 158, 129, 149, 192, 118, 150, 2, 1.09793
315, 3, bw, filler, NA, 999, 999, 6, 11, 158, 129, 149, 192, 118, 150, 3, 1.69295
315, 3, bw, attraction, a-b-db, 5, 3, 6, 12, 117, 190, 195, 120, 120, 195, 1, 9.13426
315, 3, bw, attraction, a-b-db, 5, 3, 6, 12, 117, 190, 195, 120, 120, 195, 2, 0.469548
315, 3, bw, attraction, a-b-db, 14, 3, 6, 13, 120, 195, 111, 181, 195, 120, 1, 2.99266
315, 3, bw, attraction, a-b-db, 14, 3, 6, 13, 120, 195, 111, 181, 195, 120, 2, 0.534907
315, 3, bw, attraction, a-b-db, 2, 3, 6, 14, 195, 120, 119, 193, 120, 195, 1, 10.4635
315, 3, bw, attraction, a-b-db, 2, 3, 6, 14, 195, 120, 119, 193, 120, 195, 2, 0.857925
315, 3, bw, filler, NA, 999, 999, 6, 15, 76, 148, 144, 184, 109, 175, 2, 2.37182
315, 3, bw, filler, NA, 999, 999, 6, 15, 76, 148, 144, 184, 109, 175, 1, 0.603748
315, 3, bw, filler, NA, 999, 999, 6, 16, 99, 138, 135, 79, 160, 79, 3, 9.16144
315, 3, bw, filler, NA, 999, 999, 6, 16, 99, 138, 135, 79, 160, 79, 2, 1.95121
315, 3, bw, attraction, a-b-db, 9, 3, 6, 17, 120, 195, 195, 120, 114, 186, 1, 2.9105
315, 3, bw, attraction, a-b-db, 9, 3, 6, 17, 120, 195, 195, 120, 114, 186, 2, 3.64825
315, 3, bw, attraction, a-b-da, 9, 1, 6, 18, 129, 57, 135, 60, 60, 135, 2, 3.27495
315, 3, bw, attraction, a-b-da, 9, 1, 6, 18, 129, 57, 135, 60, 60, 135, 3, 0.702034
315, 3, bw, attraction, a-b-db, 9, 1, 6, 19, 57, 129, 135, 60, 60, 135, 2, 26.9037
315, 3, bw, attraction, a-b-db, 9, 1, 6, 19, 57, 129, 135, 60, 60, 135, 3, 0.418588
315, 3, bw, attraction, a-b-db, 2, 2, 6, 20, 89, 163, 165, 90, 90, 165, 1, 0.703699
315, 3, bw, attraction, a-b-db, 2, 2, 6, 20, 89, 163, 165, 90, 90, 165, 2, 2.87491
315, 3, bw, attraction, a-b-da, 14, 1, 6, 21, 135, 60, 60, 135, 125, 56, 2, 9.3565
315, 3, bw, attraction, a-b-da, 14, 1, 6, 21, 135, 60, 60, 135, 125, 56, 3, 0.666887
315, 3, bw, attraction, a-b-da, 2, 1, 6, 22, 135, 60, 60, 135, 134, 59, 2, 4.15007
315, 3, bw, attraction, a-b-da, 2, 1, 6, 22, 135, 60, 60, 135, 134, 59, 3, 0.750065
315, 3, bw, filler, NA, 999, 999, 6, 23, 70, 91, 89, 81, 165, 142, 3, 1.69382
315, 3, bw, filler, NA, 999, 999, 6, 23, 70, 91, 89, 81, 165, 142, 1, 0.920573
315, 3, bw, attraction, a-b-da, 2, 2, 6, 24, 165, 90, 163, 89, 90, 165, 3, 13.0815
315, 3, bw, attraction, a-b-da, 2, 2, 6, 24, 165, 90, 163, 89, 90, 165, 2, 1.5295
315, 3, bw, catch, NA, 999, 999, 6, 25, 117, 78, 120, 135, 169, 146, 3, 4.74556
315, 3, bw, catch, NA, 999, 999, 6, 25, 117, 78, 120, 135, 169, 146, 1, 0.737304
315, 3, bw, attraction, a-b-db, 5, 2, 6, 26, 165, 90, 90, 165, 88, 161, 3, 7.57774
315, 3, bw, attraction, a-b-db, 5, 2, 6, 26, 165, 90, 90, 165, 88, 161, 1, 2.92729
315, 3, bw, catch, NA, 999, 999, 6, 27, 154, 101, 67, 128, 139, 176, 3, 2.00696
315, 3, bw, catch, NA, 999, 999, 6, 27, 154, 101, 67, 128, 139, 176, 2, 0.549132
315, 3, bw, attraction, a-b-da, 5, 2, 6, 28, 165, 90, 161, 88, 90, 165, 3, 39.4609
315, 3, bw, attraction, a-b-da, 5, 2, 6, 28, 165, 90, 161, 88, 90, 165, 2, 0.421781
315, 3, bw, attraction, a-b-da, 9, 3, 6, 29, 186, 114, 120, 195, 195, 120, 2, 2.21894
315, 3, bw, attraction, a-b-da, 9, 3, 6, 29, 186, 114, 120, 195, 195, 120, 1, 0.488851
315, 3, bw, attraction, a-b-db, 5, 1, 6, 30, 58, 132, 135, 60, 60, 135, 1, 4.26731
315, 3, bw, attraction, a-b-db, 5, 1, 6, 30, 58, 132, 135, 60, 60, 135, 2, 0.814621
315, 3, bw, attraction, a-b-da, 5, 3, 6, 31, 190, 117, 120, 195, 195, 120, 2, 3.05173
315, 3, bw, attraction, a-b-da, 5, 3, 6, 31, 190, 117, 120, 195, 195, 120, 3, 2.59209
315, 3, bw, attraction, a-b-da, 14, 2, 6, 32, 90, 165, 153, 83, 165, 90, 1, 2.82106
315, 3, bw, attraction, a-b-da, 14, 2, 6, 32, 90, 165, 153, 83, 165, 90, 2, 0.514983
315, 3, bw, attraction, a-b-db, 9, 2, 6, 33, 90, 165, 165, 90, 86, 157, 1, 8.81195
315, 3, bw, attraction, a-b-db, 9, 2, 6, 33, 90, 165, 165, 90, 86, 157, 2, 0.431853
315, 3, bw, catch, NA, 999, 999, 6, 34, 123, 192, 135, 60, 101, 154, 1, 1.68433
315, 3, bw, catch, NA, 999, 999, 6, 34, 123, 192, 135, 60, 101, 154, 2, 0.671865
315, 3, bw, filler, NA, 999, 999, 6, 35, 96, 91, 117, 172, 166, 106, 2, 1.75487
315, 3, bw, filler, NA, 999, 999, 6, 35, 96, 91, 117, 172, 166, 106, 1, 0.483665
315, 3, bw, attraction, a-b-da, 9, 2, 6, 36, 157, 86, 90, 165, 165, 90, 2, 5.09413
315, 3, bw, attraction, a-b-da, 9, 2, 6, 36, 157, 86, 90, 165, 165, 90, 3, 1.85582
315, 3, bw, attraction, a-b-da, 14, 3, 6, 37, 195, 120, 181, 111, 120, 195, 3, 1.72315
315, 3, bw, attraction, a-b-da, 14, 3, 6, 37, 195, 120, 181, 111, 120, 195, 2, 0.460662
315, 3, bw, filler, NA, 999, 999, 7, 1, 92, 105, 74, 86, 83, 147, 3, 2.50372
315, 3, bw, filler, NA, 999, 999, 7, 1, 92, 105, 74, 86, 83, 147, 2, 1.08233
315, 3, bw, attraction, a-b-da, 5, 2, 7, 2, 90, 165, 165, 90, 161, 88, 1, 4.90058
315, 3, bw, attraction, a-b-da, 5, 2, 7, 2, 90, 165, 165, 90, 161, 88, 2, 1.56643
315, 3, bw, attraction, a-b-db, 14, 3, 7, 3, 120, 195, 111, 181, 195, 120, 3, 4.4931
315, 3, bw, attraction, a-b-db, 14, 3, 7, 3, 120, 195, 111, 181, 195, 120, 2, 0.814959
315, 3, bw, attraction, a-b-da, 9, 3, 7, 4, 186, 114, 120, 195, 195, 120, 3, 4.18816
315, 3, bw, attraction, a-b-da, 9, 3, 7, 4, 186, 114, 120, 195, 195, 120, 2, 2.49068
315, 3, bw, filler, NA, 999, 999, 7, 5, 185, 70, 98, 149, 115, 60, 2, 5.03581
315, 3, bw, filler, NA, 999, 999, 7, 5, 185, 70, 98, 149, 115, 60, 3, 0.760296
315, 3, bw, catch, NA, 999, 999, 7, 6, 63, 132, 102, 153, 168, 147, 3, 5.06328
315, 3, bw, catch, NA, 999, 999, 7, 6, 63, 132, 102, 153, 168, 147, 1, 0.890417
315, 3, bw, attraction, a-b-db, 9, 2, 7, 7, 90, 165, 165, 90, 86, 157, 1, 14.396
315, 3, bw, attraction, a-b-db, 9, 2, 7, 7, 90, 165, 165, 90, 86, 157, 2, 0.958834
315, 3, bw, filler, NA, 999, 999, 7, 8, 160, 102, 86, 80, 194, 118, 3, 4.10991
315, 3, bw, filler, NA, 999, 999, 7, 8, 160, 102, 86, 80, 194, 118, 2, 0.815235
315, 3, bw, catch, NA, 999, 999, 7, 9, 158, 97, 169, 146, 118, 77, 2, 1.44427
315, 3, bw, catch, NA, 999, 999, 7, 9, 158, 97, 169, 146, 118, 77, 3, 0.857008
315, 3, bw, attraction, a-b-db, 9, 1, 7, 10, 135, 60, 60, 135, 57, 129, 2, 8.67603
315, 3, bw, attraction, a-b-db, 9, 1, 7, 10, 135, 60, 60, 135, 57, 129, 1, 2.62946
315, 3, bw, attraction, a-b-db, 5, 3, 7, 11, 195, 120, 117, 190, 120, 195, 1, 4.46506
315, 3, bw, attraction, a-b-db, 5, 3, 7, 11, 195, 120, 117, 190, 120, 195, 2, 0.596456
315, 3, bw, attraction, a-b-da, 9, 1, 7, 12, 60, 135, 129, 57, 135, 60, 1, 2.86619
315, 3, bw, attraction, a-b-da, 9, 1, 7, 12, 60, 135, 129, 57, 135, 60, 2, 0.53393
315, 3, bw, attraction, a-b-db, 2, 1, 7, 13, 135, 60, 59, 134, 60, 135, 1, 6.7342
315, 3, bw, attraction, a-b-db, 2, 1, 7, 13, 135, 60, 59, 134, 60, 135, 2, 0.462129
315, 3, bw, attraction, a-b-da, 5, 3, 7, 14, 195, 120, 120, 195, 190, 117, 2, 4.4252
315, 3, bw, attraction, a-b-da, 5, 3, 7, 14, 195, 120, 120, 195, 190, 117, 3, 0.597937
315, 3, bw, filler, NA, 999, 999, 7, 15, 127, 171, 95, 139, 188, 180, 3, 6.62766
315, 3, bw, filler, NA, 999, 999, 7, 15, 127, 171, 95, 139, 188, 180, 2, 0.759472
315, 3, bw, attraction, a-b-db, 2, 2, 7, 16, 165, 90, 90, 165, 89, 163, 1, 6.35853
315, 3, bw, attraction, a-b-db, 2, 2, 7, 16, 165, 90, 90, 165, 89, 163, 2, 0.461254
315, 3, bw, attraction, a-b-da, 2, 3, 7, 17, 193, 119, 195, 120, 120, 195, 2, 6.82436
315, 3, bw, attraction, a-b-da, 2, 3, 7, 17, 193, 119, 195, 120, 120, 195, 3, 1.32415
315, 3, bw, attraction, a-b-db, 5, 2, 7, 18, 90, 165, 165, 90, 88, 161, 1, 2.54833
315, 3, bw, attraction, a-b-db, 5, 2, 7, 18, 90, 165, 165, 90, 88, 161, 2, 0.852894
315, 3, bw, attraction, a-b-da, 14, 1, 7, 19, 60, 135, 135, 60, 125, 56, 1, 4.46449
315, 3, bw, attraction, a-b-da, 14, 1, 7, 19, 60, 135, 135, 60, 125, 56, 2, 0.571726
315, 3, bw, attraction, a-b-db, 5, 1, 7, 20, 135, 60, 60, 135, 58, 132, 1, 3.5388
315, 3, bw, attraction, a-b-db, 5, 1, 7, 20, 135, 60, 60, 135, 58, 132, 2, 0.867802
315, 3, bw, attraction, a-b-db, 14, 2, 7, 21, 165, 90, 83, 153, 90, 165, 1, 6.09476
315, 3, bw, attraction, a-b-db, 14, 2, 7, 21, 165, 90, 83, 153, 90, 165, 2, 0.496188
315, 3, bw, filler, NA, 999, 999, 7, 22, 94, 181, 94, 180, 141, 75, 1, 3.8099
315, 3, bw, filler, NA, 999, 999, 7, 22, 94, 181, 94, 180, 141, 75, 3, 0.999373
315, 3, bw, filler, NA, 999, 999, 7, 23, 144, 174, 91, 147, 181, 59, 1, 2.541
315, 3, bw, filler, NA, 999, 999, 7, 23, 144, 174, 91, 147, 181, 59, 2, 0.541507
315, 3, bw, filler, NA, 999, 999, 7, 24, 157, 103, 149, 130, 186, 156, 3, 2.65338
315, 3, bw, filler, NA, 999, 999, 7, 24, 157, 103, 149, 130, 186, 156, 1, 0.841761
315, 3, bw, attraction, a-b-da, 14, 3, 7, 25, 195, 120, 181, 111, 120, 195, 1, 24.4054
315, 3, bw, attraction, a-b-da, 14, 3, 7, 25, 195, 120, 181, 111, 120, 195, 2, 0.413234
315, 3, bw, attraction, a-b-db, 2, 3, 7, 26, 119, 193, 120, 195, 195, 120, 1, 4.12227
315, 3, bw, attraction, a-b-db, 2, 3, 7, 26, 119, 193, 120, 195, 195, 120, 3, 0.715769
315, 3, bw, attraction, a-b-db, 14, 1, 7, 27, 56, 125, 60, 135, 135, 60, 2, 6.3886
315, 3, bw, attraction, a-b-db, 14, 1, 7, 27, 56, 125, 60, 135, 135, 60, 3, 0.554649
315, 3, bw, filler, NA, 999, 999, 7, 28, 133, 170, 73, 166, 172, 127, 1, 1.39446
315, 3, bw, filler, NA, 999, 999, 7, 28, 133, 170, 73, 166, 172, 127, 2, 0.905362
315, 3, bw, attraction, a-b-da, 14, 2, 7, 29, 90, 165, 153, 83, 165, 90, 1, 2.47502
315, 3, bw, attraction, a-b-da, 14, 2, 7, 29, 90, 165, 153, 83, 165, 90, 2, 0.438196
315, 3, bw, attraction, a-b-da, 2, 2, 7, 30, 90, 165, 165, 90, 163, 89, 1, 2.52261
315, 3, bw, attraction, a-b-da, 2, 2, 7, 30, 90, 165, 165, 90, 163, 89, 2, 1.11596
315, 3, bw, filler, NA, 999, 999, 7, 31, 103, 86, 77, 124, 150, 97, 3, 1.44476
315, 3, bw, filler, NA, 999, 999, 7, 31, 103, 86, 77, 124, 150, 97, 1, 5.40963
315, 3, bw, filler, NA, 999, 999, 7, 32, 146, 129, 152, 114, 158, 108, 1, 6.78123
315, 3, bw, filler, NA, 999, 999, 7, 32, 146, 129, 152, 114, 158, 108, 2, 2.05111
315, 3, bw, attraction, a-b-db, 9, 3, 7, 33, 120, 195, 114, 186, 195, 120, 3, 10.7903
315, 3, bw, attraction, a-b-db, 9, 3, 7, 33, 120, 195, 114, 186, 195, 120, 2, 0.378987
315, 3, bw, attraction, a-b-da, 5, 1, 7, 34, 132, 58, 60, 135, 135, 60, 3, 23.8975
315, 3, bw, attraction, a-b-da, 5, 1, 7, 34, 132, 58, 60, 135, 135, 60, 2, 0.597296
315, 3, bw, attraction, a-b-da, 9, 2, 7, 35, 90, 165, 165, 90, 157, 86, 1, 2.09907
315, 3, bw, attraction, a-b-da, 9, 2, 7, 35, 90, 165, 165, 90, 157, 86, 2, 1.45366
315, 3, bw, attraction, a-b-da, 2, 1, 7, 36, 135, 60, 134, 59, 60, 135, 3, 5.16928
315, 3, bw, attraction, a-b-da, 2, 1, 7, 36, 135, 60, 134, 59, 60, 135, 2, 0.960228
315, 3, bw, catch, NA, 999, 999, 7, 37, 155, 100, 88, 107, 195, 120, 3, 1.51918
315, 3, bw, catch, NA, 999, 999, 7, 37, 155, 100, 88, 107, 195, 120, 2, 0.88135
315, 3, bw, filler, NA, 999, 999, 8, 1, 132, 153, 119, 101, 103, 190, 1, 1.21967
315, 3, bw, filler, NA, 999, 999, 8, 1, 132, 153, 119, 101, 103, 190, 2, 4.2499
315, 3, bw, catch, NA, 999, 999, 8, 2, 159, 96, 111, 84, 169, 146, 3, 2.70852
315, 3, bw, catch, NA, 999, 999, 8, 2, 159, 96, 111, 84, 169, 146, 2, 0.798311
315, 3, bw, attraction, a-b-da, 5, 3, 8, 3, 120, 195, 190, 117, 195, 120, 1, 6.356
315, 3, bw, attraction, a-b-da, 5, 3, 8, 3, 120, 195, 190, 117, 195, 120, 2, 0.835331
315, 3, bw, attraction, a-b-db, 5, 2, 8, 4, 88, 161, 165, 90, 90, 165, 1, 9.68773
315, 3, bw, attraction, a-b-db, 5, 2, 8, 4, 88, 161, 165, 90, 90, 165, 2, 0.544688
315, 3, bw, attraction, a-b-da, 14, 3, 8, 5, 120, 195, 181, 111, 195, 120, 1, 7.32839
315, 3, bw, attraction, a-b-da, 14, 3, 8, 5, 120, 195, 181, 111, 195, 120, 2, 0.816081
315, 3, bw, attraction, a-b-da, 14, 2, 8, 6, 165, 90, 90, 165, 153, 83, 2, 2.4211
315, 3, bw, attraction, a-b-da, 14, 2, 8, 6, 165, 90, 90, 165, 153, 83, 3, 0.715097
315, 3, bw, attraction, a-b-db, 14, 2, 8, 7, 83, 153, 165, 90, 90, 165, 1, 4.82812
315, 3, bw, attraction, a-b-db, 14, 2, 8, 7, 83, 153, 165, 90, 90, 165, 2, 0.533443
315, 3, bw, attraction, a-b-db, 9, 2, 8, 8, 86, 157, 90, 165, 165, 90, 2, 1.17699
315, 3, bw, attraction, a-b-db, 9, 2, 8, 8, 86, 157, 90, 165, 165, 90, 3, 0.408625
315, 3, bw, attraction, a-b-db, 2, 3, 8, 9, 120, 195, 195, 120, 119, 193, 1, 5.6139
315, 3, bw, attraction, a-b-db, 2, 3, 8, 9, 120, 195, 195, 120, 119, 193, 2, 0.386622
315, 3, bw, filler, NA, 999, 999, 8, 10, 152, 73, 58, 126, 151, 71, 1, 2.38507
315, 3, bw, filler, NA, 999, 999, 8, 10, 152, 73, 58, 126, 151, 71, 2, 0.440333
315, 3, bw, filler, NA, 999, 999, 8, 11, 100, 72, 187, 136, 100, 193, 2, 2.82019
315, 3, bw, filler, NA, 999, 999, 8, 11, 100, 72, 187, 136, 100, 193, 1, 0.537941
315, 3, bw, filler, NA, 999, 999, 8, 12, 76, 106, 157, 139, 113, 151, 2, 1.78632
315, 3, bw, filler, NA, 999, 999, 8, 12, 76, 106, 157, 139, 113, 151, 1, 0.721819
315, 3, bw, attraction, a-b-db, 2, 1, 8, 13, 135, 60, 59, 134, 60, 135, 2, 1.65083
315, 3, bw, attraction, a-b-db, 2, 1, 8, 13, 135, 60, 59, 134, 60, 135, 1, 0.599619
315, 3, bw, attraction, a-b-db, 2, 2, 8, 14, 89, 163, 165, 90, 90, 165, 3, 14.3653
315, 3, bw, attraction, a-b-db, 2, 2, 8, 14, 89, 163, 165, 90, 90, 165, 2, 0.385475
315, 3, bw, attraction, a-b-da, 2, 1, 8, 15, 135, 60, 134, 59, 60, 135, 1, 2.44007
315, 3, bw, attraction, a-b-da, 2, 1, 8, 15, 135, 60, 134, 59, 60, 135, 2, 0.628575
315, 3, bw, attraction, a-b-db, 9, 1, 8, 16, 135, 60, 57, 129, 60, 135, 2, 3.58499
315, 3, bw, attraction, a-b-db, 9, 1, 8, 16, 135, 60, 57, 129, 60, 135, 1, 3.79185
315, 3, bw, catch, NA, 999, 999, 8, 17, 162, 93, 164, 151, 102, 93, 2, 2.35656
315, 3, bw, catch, NA, 999, 999, 8, 17, 162, 93, 164, 151, 102, 93, 3, 0.88448
315, 3, bw, attraction, a-b-db, 14, 3, 8, 18, 111, 181, 195, 120, 120, 195, 2, 3.02283
315, 3, bw, attraction, a-b-db, 14, 3, 8, 18, 111, 181, 195, 120, 120, 195, 1, 0.539785
315, 3, bw, attraction, a-b-db, 5, 1, 8, 19, 135, 60, 60, 135, 58, 132, 2, 3.1482
315, 3, bw, attraction, a-b-db, 5, 1, 8, 19, 135, 60, 60, 135, 58, 132, 1, 0.548561
315, 3, bw, filler, NA, 999, 999, 8, 20, 87, 128, 56, 146, 136, 157, 3, 2.2123
315, 3, bw, filler, NA, 999, 999, 8, 20, 87, 128, 56, 146, 136, 157, 2, 0.602353
315, 3, bw, filler, NA, 999, 999, 8, 21, 115, 93, 180, 86, 70, 91, 2, 3.40804
315, 3, bw, filler, NA, 999, 999, 8, 21, 115, 93, 180, 86, 70, 91, 3, 0.629668
315, 3, bw, attraction, a-b-da, 14, 1, 8, 22, 60, 135, 135, 60, 125, 56, 1, 3.90599
315, 3, bw, attraction, a-b-da, 14, 1, 8, 22, 60, 135, 135, 60, 125, 56, 2, 0.403521
315, 3, bw, attraction, a-b-db, 9, 3, 8, 23, 114, 186, 120, 195, 195, 120, 3, 7.41725
315, 3, bw, attraction, a-b-db, 9, 3, 8, 23, 114, 186, 120, 195, 195, 120, 1, 0.717533
315, 3, bw, filler, NA, 999, 999, 8, 24, 137, 176, 190, 106, 81, 151, 1, 2.07061
315, 3, bw, filler, NA, 999, 999, 8, 24, 137, 176, 190, 106, 81, 151, 3, 0.730662
315, 3, bw, attraction, a-b-da, 5, 1, 8, 25, 132, 58, 135, 60, 60, 135, 3, 2.21104
315, 3, bw, attraction, a-b-da, 5, 1, 8, 25, 132, 58, 135, 60, 60, 135, 2, 0.569013
315, 3, bw, filler, NA, 999, 999, 8, 26, 139, 115, 161, 106, 184, 93, 2, 2.86411
315, 3, bw, filler, NA, 999, 999, 8, 26, 139, 115, 161, 106, 184, 93, 1, 3.21182
315, 3, bw, attraction, a-b-da, 9, 1, 8, 27, 129, 57, 60, 135, 135, 60, 3, 6.20006
315, 3, bw, attraction, a-b-da, 9, 1, 8, 27, 129, 57, 60, 135, 135, 60, 1, 0.765471
315, 3, bw, attraction, a-b-da, 5, 2, 8, 28, 161, 88, 165, 90, 90, 165, 3, 3.91648
315, 3, bw, attraction, a-b-da, 5, 2, 8, 28, 161, 88, 165, 90, 90, 165, 2, 0.829883
315, 3, bw, filler, NA, 999, 999, 8, 29, 61, 113, 74, 96, 145, 84, 3, 1.13822
315, 3, bw, filler, NA, 999, 999, 8, 29, 61, 113, 74, 96, 145, 84, 2, 1.1072
315, 3, bw, attraction, a-b-da, 9, 3, 8, 30, 186, 114, 120, 195, 195, 120, 2, 1.79616
315, 3, bw, attraction, a-b-da, 9, 3, 8, 30, 186, 114, 120, 195, 195, 120, 3, 3.99494
315, 3, bw, attraction, a-b-db, 5, 3, 8, 31, 195, 120, 120, 195, 117, 190, 2, 1.01564
315, 3, bw, attraction, a-b-db, 5, 3, 8, 31, 195, 120, 120, 195, 117, 190, 1, 1.38185
315, 3, bw, filler, NA, 999, 999, 8, 32, 115, 182, 91, 146, 178, 187, 3, 1.52402
315, 3, bw, filler, NA, 999, 999, 8, 32, 115, 182, 91, 146, 178, 187, 2, 0.661545
315, 3, bw, attraction, a-b-da, 2, 2, 8, 33, 163, 89, 165, 90, 90, 165, 3, 2.84867
315, 3, bw, attraction, a-b-da, 2, 2, 8, 33, 163, 89, 165, 90, 90, 165, 2, 0.565031
315, 3, bw, attraction, a-b-da, 2, 3, 8, 34, 195, 120, 120, 195, 193, 119, 1, 6.77213
315, 3, bw, attraction, a-b-da, 2, 3, 8, 34, 195, 120, 120, 195, 193, 119, 3, 0.785965
315, 3, bw, catch, NA, 999, 999, 8, 35, 74, 121, 92, 163, 159, 156, 3, 1.6883
315, 3, bw, catch, NA, 999, 999, 8, 35, 74, 121, 92, 163, 159, 156, 1, 1.03515
315, 3, bw, attraction, a-b-da, 9, 2, 8, 36, 165, 90, 157, 86, 90, 165, 1, 4.51942
315, 3, bw, attraction, a-b-da, 9, 2, 8, 36, 165, 90, 157, 86, 90, 165, 2, 0.424632
315, 3, bw, attraction, a-b-db, 14, 1, 8, 37, 60, 135, 56, 125, 135, 60, 3, 5.95713
315, 3, bw, attraction, a-b-db, 14, 1, 8, 37, 60, 135, 56, 125, 135, 60, 2, 0.467837
