sub_n, computer_n, bw_cond, effect, set, distance, diag, block_n, trial_n, h1, w1, h2, w2, h3, w3, choice, rt 
342, 3, wb, practice, NA, 999, 999, 0, 1, 161, 143, 56, 90, 105, 85, 2, 3.66637
342, 3, wb, practice, NA, 999, 999, 0, 1, 161, 143, 56, 90, 105, 85, 1, 2.00593
342, 3, wb, practice, NA, 999, 999, 0, 2, 119, 94, 100, 101, 195, 154, 1, 2.94373
342, 3, wb, practice, NA, 999, 999, 0, 2, 119, 94, 100, 101, 195, 154, 3, 1.42194
342, 3, wb, practice, NA, 999, 999, 0, 3, 190, 146, 108, 91, 58, 76, 3, 2.15416
342, 3, wb, practice, NA, 999, 999, 0, 3, 190, 146, 108, 91, 58, 76, 1, 0.962177
342, 3, wb, attraction, a-b-db, 5, 1, 1, 1, 58, 132, 60, 135, 135, 60, 1, 9.61634
342, 3, wb, attraction, a-b-db, 5, 1, 1, 1, 58, 132, 60, 135, 135, 60, 2, 2.2759
342, 3, wb, catch, NA, 999, 999, 1, 2, 182, 133, 122, 133, 106, 89, 3, 1.72588
342, 3, wb, catch, NA, 999, 999, 1, 2, 182, 133, 122, 133, 106, 89, 1, 0.655262
342, 3, wb, filler, NA, 999, 999, 1, 3, 126, 127, 65, 102, 161, 130, 2, 2.86705
342, 3, wb, filler, NA, 999, 999, 1, 3, 126, 127, 65, 102, 161, 130, 3, 1.03881
342, 3, wb, attraction, a-b-db, 2, 3, 1, 4, 195, 120, 120, 195, 119, 193, 3, 10.2031
342, 3, wb, attraction, a-b-db, 2, 3, 1, 4, 195, 120, 120, 195, 119, 193, 1, 6.87922
342, 3, wb, attraction, a-b-da, 5, 2, 1, 5, 90, 165, 161, 88, 165, 90, 3, 5.83178
342, 3, wb, attraction, a-b-da, 5, 2, 1, 5, 90, 165, 161, 88, 165, 90, 1, 1.43581
342, 3, wb, attraction, a-b-da, 9, 1, 1, 6, 135, 60, 129, 57, 60, 135, 3, 5.30397
342, 3, wb, attraction, a-b-da, 9, 1, 1, 6, 135, 60, 129, 57, 60, 135, 2, 2.08159
342, 3, wb, filler, NA, 999, 999, 1, 7, 157, 86, 65, 154, 177, 136, 2, 1.49961
342, 3, wb, filler, NA, 999, 999, 1, 7, 157, 86, 65, 154, 177, 136, 3, 0.958411
342, 3, wb, attraction, a-b-da, 2, 1, 1, 8, 134, 59, 135, 60, 60, 135, 1, 3.35736
342, 3, wb, attraction, a-b-da, 2, 1, 1, 8, 134, 59, 135, 60, 60, 135, 2, 0.540968
342, 3, wb, attraction, a-b-da, 14, 1, 1, 9, 135, 60, 60, 135, 125, 56, 3, 1.85269
342, 3, wb, attraction, a-b-da, 14, 1, 1, 9, 135, 60, 60, 135, 125, 56, 2, 0.953461
342, 3, wb, attraction, a-b-db, 9, 1, 1, 10, 57, 129, 135, 60, 60, 135, 1, 2.52123
342, 3, wb, attraction, a-b-db, 9, 1, 1, 10, 57, 129, 135, 60, 60, 135, 3, 0.762923
342, 3, wb, attraction, a-b-db, 14, 1, 1, 11, 135, 60, 60, 135, 56, 125, 3, 3.194
342, 3, wb, attraction, a-b-db, 14, 1, 1, 11, 135, 60, 60, 135, 56, 125, 2, 0.840291
342, 3, wb, attraction, a-b-db, 9, 3, 1, 12, 195, 120, 114, 186, 120, 195, 2, 3.32404
342, 3, wb, attraction, a-b-db, 9, 3, 1, 12, 195, 120, 114, 186, 120, 195, 1, 0.476929
342, 3, wb, attraction, a-b-db, 2, 1, 1, 13, 60, 135, 59, 134, 135, 60, 3, 1.94336
342, 3, wb, attraction, a-b-db, 2, 1, 1, 13, 60, 135, 59, 134, 135, 60, 2, 0.632147
342, 3, wb, filler, NA, 999, 999, 1, 14, 117, 181, 69, 116, 188, 63, 2, 2.46848
342, 3, wb, filler, NA, 999, 999, 1, 14, 117, 181, 69, 116, 188, 63, 1, 0.520386
342, 3, wb, attraction, a-b-da, 14, 3, 1, 15, 181, 111, 120, 195, 195, 120, 1, 3.37752
342, 3, wb, attraction, a-b-da, 14, 3, 1, 15, 181, 111, 120, 195, 195, 120, 2, 0.520353
342, 3, wb, filler, NA, 999, 999, 1, 16, 158, 75, 100, 169, 143, 95, 1, 2.32155
342, 3, wb, filler, NA, 999, 999, 1, 16, 158, 75, 100, 169, 143, 95, 2, 0.618766
342, 3, wb, attraction, a-b-db, 2, 2, 1, 17, 90, 165, 165, 90, 89, 163, 1, 1.62383
342, 3, wb, attraction, a-b-db, 2, 2, 1, 17, 90, 165, 165, 90, 89, 163, 2, 2.92529
342, 3, wb, filler, NA, 999, 999, 1, 18, 75, 170, 113, 70, 114, 85, 2, 1.31691
342, 3, wb, filler, NA, 999, 999, 1, 18, 75, 170, 113, 70, 114, 85, 1, 1.08718
342, 3, wb, attraction, a-b-da, 2, 3, 1, 19, 120, 195, 195, 120, 193, 119, 2, 1.30548
342, 3, wb, attraction, a-b-da, 2, 3, 1, 19, 120, 195, 195, 120, 193, 119, 3, 1.00375
342, 3, wb, attraction, a-b-da, 9, 2, 1, 20, 157, 86, 90, 165, 165, 90, 2, 2.62536
342, 3, wb, attraction, a-b-da, 9, 2, 1, 20, 157, 86, 90, 165, 165, 90, 3, 0.822467
342, 3, wb, catch, NA, 999, 999, 1, 21, 122, 193, 106, 89, 108, 147, 2, 0.811513
342, 3, wb, catch, NA, 999, 999, 1, 21, 122, 193, 106, 89, 108, 147, 1, 0.6019
342, 3, wb, attraction, a-b-db, 14, 2, 1, 22, 90, 165, 165, 90, 83, 153, 3, 4.89568
342, 3, wb, attraction, a-b-db, 14, 2, 1, 22, 90, 165, 165, 90, 83, 153, 1, 1.13745
342, 3, wb, attraction, a-b-db, 5, 2, 1, 23, 88, 161, 165, 90, 90, 165, 2, 1.82571
342, 3, wb, attraction, a-b-db, 5, 2, 1, 23, 88, 161, 165, 90, 90, 165, 3, 0.479187
342, 3, wb, attraction, a-b-da, 9, 3, 1, 24, 186, 114, 120, 195, 195, 120, 1, 3.04162
342, 3, wb, attraction, a-b-da, 9, 3, 1, 24, 186, 114, 120, 195, 195, 120, 2, 0.565988
342, 3, wb, attraction, a-b-da, 5, 3, 1, 25, 190, 117, 120, 195, 195, 120, 1, 2.62908
342, 3, wb, attraction, a-b-da, 5, 3, 1, 25, 190, 117, 120, 195, 195, 120, 2, 0.490152
342, 3, wb, attraction, a-b-db, 14, 3, 1, 26, 111, 181, 195, 120, 120, 195, 1, 0.875862
342, 3, wb, attraction, a-b-db, 14, 3, 1, 26, 111, 181, 195, 120, 120, 195, 2, 0.703627
342, 3, wb, filler, NA, 999, 999, 1, 27, 193, 165, 82, 163, 122, 172, 2, 0.849461
342, 3, wb, filler, NA, 999, 999, 1, 27, 193, 165, 82, 163, 122, 172, 1, 1.21437
342, 3, wb, filler, NA, 999, 999, 1, 28, 128, 84, 61, 91, 75, 59, 3, 0.987289
342, 3, wb, filler, NA, 999, 999, 1, 28, 128, 84, 61, 91, 75, 59, 1, 0.459111
342, 3, wb, attraction, a-b-da, 2, 2, 1, 29, 90, 165, 163, 89, 165, 90, 2, 2.1262
342, 3, wb, attraction, a-b-da, 2, 2, 1, 29, 90, 165, 163, 89, 165, 90, 3, 0.487383
342, 3, wb, filler, NA, 999, 999, 1, 30, 64, 113, 184, 116, 191, 120, 1, 0.897824
342, 3, wb, filler, NA, 999, 999, 1, 30, 64, 113, 184, 116, 191, 120, 3, 1.22886
342, 3, wb, attraction, a-b-da, 5, 1, 1, 31, 132, 58, 60, 135, 135, 60, 1, 0.9532
342, 3, wb, attraction, a-b-da, 5, 1, 1, 31, 132, 58, 60, 135, 135, 60, 2, 0.874192
342, 3, wb, attraction, a-b-da, 14, 2, 1, 32, 153, 83, 90, 165, 165, 90, 1, 0.95651
342, 3, wb, attraction, a-b-da, 14, 2, 1, 32, 153, 83, 90, 165, 165, 90, 2, 0.49286
342, 3, wb, catch, NA, 999, 999, 1, 33, 174, 141, 107, 148, 103, 92, 3, 0.886556
342, 3, wb, catch, NA, 999, 999, 1, 33, 174, 141, 107, 148, 103, 92, 1, 0.482321
342, 3, wb, attraction, a-b-db, 9, 2, 1, 34, 86, 157, 90, 165, 165, 90, 1, 0.828742
342, 3, wb, attraction, a-b-db, 9, 2, 1, 34, 86, 157, 90, 165, 165, 90, 3, 0.802462
342, 3, wb, attraction, a-b-db, 5, 3, 1, 35, 117, 190, 195, 120, 120, 195, 1, 3.04829
342, 3, wb, attraction, a-b-db, 5, 3, 1, 35, 117, 190, 195, 120, 120, 195, 2, 0.492451
342, 3, wb, filler, NA, 999, 999, 1, 36, 112, 186, 94, 70, 128, 166, 2, 0.846338
342, 3, wb, filler, NA, 999, 999, 1, 36, 112, 186, 94, 70, 128, 166, 1, 0.875377
342, 3, wb, filler, NA, 999, 999, 1, 37, 172, 89, 107, 178, 69, 61, 3, 0.853648
342, 3, wb, filler, NA, 999, 999, 1, 37, 172, 89, 107, 178, 69, 61, 2, 1.1307
342, 3, wb, attraction, a-b-da, 2, 2, 2, 1, 163, 89, 90, 165, 165, 90, 1, 1.53092
342, 3, wb, attraction, a-b-da, 2, 2, 2, 1, 163, 89, 90, 165, 165, 90, 2, 2.94052
342, 3, wb, attraction, a-b-da, 14, 2, 2, 2, 90, 165, 153, 83, 165, 90, 2, 1.30826
342, 3, wb, attraction, a-b-da, 14, 2, 2, 2, 90, 165, 153, 83, 165, 90, 3, 0.822313
342, 3, wb, attraction, a-b-db, 9, 2, 2, 3, 86, 157, 165, 90, 90, 165, 2, 1.58734
342, 3, wb, attraction, a-b-db, 9, 2, 2, 3, 86, 157, 165, 90, 90, 165, 3, 0.667012
342, 3, wb, attraction, a-b-da, 9, 1, 2, 4, 135, 60, 129, 57, 60, 135, 2, 1.43001
342, 3, wb, attraction, a-b-da, 9, 1, 2, 4, 135, 60, 129, 57, 60, 135, 3, 1.94769
342, 3, wb, filler, NA, 999, 999, 2, 5, 132, 96, 120, 73, 156, 161, 2, 1.0908
342, 3, wb, filler, NA, 999, 999, 2, 5, 132, 96, 120, 73, 156, 161, 3, 0.589897
342, 3, wb, filler, NA, 999, 999, 2, 6, 71, 120, 156, 188, 181, 105, 1, 0.860157
342, 3, wb, filler, NA, 999, 999, 2, 6, 71, 120, 156, 188, 181, 105, 2, 0.976585
342, 3, wb, filler, NA, 999, 999, 2, 7, 93, 102, 180, 100, 97, 195, 1, 0.990897
342, 3, wb, filler, NA, 999, 999, 2, 7, 93, 102, 180, 100, 97, 195, 3, 0.501873
342, 3, wb, attraction, a-b-da, 5, 2, 2, 8, 90, 165, 165, 90, 161, 88, 2, 4.27164
342, 3, wb, attraction, a-b-da, 5, 2, 2, 8, 90, 165, 165, 90, 161, 88, 3, 0.65027
342, 3, wb, attraction, a-b-db, 9, 1, 2, 9, 60, 135, 135, 60, 57, 129, 2, 1.06197
342, 3, wb, attraction, a-b-db, 9, 1, 2, 9, 60, 135, 135, 60, 57, 129, 1, 0.722348
342, 3, wb, attraction, a-b-db, 2, 3, 2, 10, 120, 195, 195, 120, 119, 193, 2, 2.04351
342, 3, wb, attraction, a-b-db, 2, 3, 2, 10, 120, 195, 195, 120, 119, 193, 1, 1.75198
342, 3, wb, filler, NA, 999, 999, 2, 11, 109, 91, 175, 132, 165, 77, 1, 1.09538
342, 3, wb, filler, NA, 999, 999, 2, 11, 109, 91, 175, 132, 165, 77, 2, 0.434411
342, 3, wb, attraction, a-b-da, 2, 1, 2, 12, 60, 135, 135, 60, 134, 59, 1, 1.04698
342, 3, wb, attraction, a-b-da, 2, 1, 2, 12, 60, 135, 135, 60, 134, 59, 2, 0.715929
342, 3, wb, filler, NA, 999, 999, 2, 13, 182, 131, 132, 120, 79, 76, 3, 0.756844
342, 3, wb, filler, NA, 999, 999, 2, 13, 182, 131, 132, 120, 79, 76, 1, 0.653354
342, 3, wb, attraction, a-b-db, 5, 2, 2, 14, 90, 165, 88, 161, 165, 90, 3, 2.16919
342, 3, wb, attraction, a-b-db, 5, 2, 2, 14, 90, 165, 88, 161, 165, 90, 2, 0.465187
342, 3, wb, attraction, a-b-da, 14, 3, 2, 15, 120, 195, 181, 111, 195, 120, 1, 0.844243
342, 3, wb, attraction, a-b-da, 14, 3, 2, 15, 120, 195, 181, 111, 195, 120, 3, 0.969175
342, 3, wb, attraction, a-b-da, 5, 1, 2, 16, 132, 58, 135, 60, 60, 135, 1, 1.44814
342, 3, wb, attraction, a-b-da, 5, 1, 2, 16, 132, 58, 135, 60, 60, 135, 3, 0.437014
342, 3, wb, catch, NA, 999, 999, 2, 17, 194, 121, 61, 134, 93, 162, 2, 0.945473
342, 3, wb, catch, NA, 999, 999, 2, 17, 194, 121, 61, 134, 93, 162, 1, 0.434563
342, 3, wb, attraction, a-b-db, 9, 3, 2, 18, 114, 186, 195, 120, 120, 195, 1, 1.423
342, 3, wb, attraction, a-b-db, 9, 3, 2, 18, 114, 186, 195, 120, 120, 195, 2, 0.764445
342, 3, wb, filler, NA, 999, 999, 2, 19, 140, 135, 63, 122, 151, 189, 2, 0.651515
342, 3, wb, filler, NA, 999, 999, 2, 19, 140, 135, 63, 122, 151, 189, 3, 0.49665
342, 3, wb, filler, NA, 999, 999, 2, 20, 170, 177, 135, 74, 104, 83, 3, 0.978488
342, 3, wb, filler, NA, 999, 999, 2, 20, 170, 177, 135, 74, 104, 83, 1, 0.378126
342, 3, wb, attraction, a-b-db, 5, 3, 2, 21, 117, 190, 195, 120, 120, 195, 1, 1.24858
342, 3, wb, attraction, a-b-db, 5, 3, 2, 21, 117, 190, 195, 120, 120, 195, 3, 2.52553
342, 3, wb, attraction, a-b-db, 5, 1, 2, 22, 135, 60, 58, 132, 60, 135, 2, 1.3173
342, 3, wb, attraction, a-b-db, 5, 1, 2, 22, 135, 60, 58, 132, 60, 135, 3, 3.0396
342, 3, wb, filler, NA, 999, 999, 2, 23, 69, 107, 180, 77, 165, 160, 1, 0.523182
342, 3, wb, filler, NA, 999, 999, 2, 23, 69, 107, 180, 77, 165, 160, 3, 0.70105
342, 3, wb, attraction, a-b-da, 5, 3, 2, 24, 190, 117, 120, 195, 195, 120, 2, 2.99885
342, 3, wb, attraction, a-b-da, 5, 3, 2, 24, 190, 117, 120, 195, 195, 120, 3, 0.597151
342, 3, wb, catch, NA, 999, 999, 2, 25, 126, 189, 115, 140, 77, 118, 3, 0.842846
342, 3, wb, catch, NA, 999, 999, 2, 25, 126, 189, 115, 140, 77, 118, 1, 0.679848
342, 3, wb, attraction, a-b-da, 9, 2, 2, 26, 90, 165, 157, 86, 165, 90, 3, 3.08223
342, 3, wb, attraction, a-b-da, 9, 2, 2, 26, 90, 165, 157, 86, 165, 90, 1, 0.597297
342, 3, wb, attraction, a-b-da, 2, 3, 2, 27, 193, 119, 120, 195, 195, 120, 3, 2.01105
342, 3, wb, attraction, a-b-da, 2, 3, 2, 27, 193, 119, 120, 195, 195, 120, 2, 0.761087
342, 3, wb, attraction, a-b-da, 9, 3, 2, 28, 120, 195, 195, 120, 186, 114, 3, 1.03211
342, 3, wb, attraction, a-b-da, 9, 3, 2, 28, 120, 195, 195, 120, 186, 114, 2, 0.621828
342, 3, wb, filler, NA, 999, 999, 2, 29, 130, 79, 93, 142, 135, 65, 3, 1.00284
342, 3, wb, filler, NA, 999, 999, 2, 29, 130, 79, 93, 142, 135, 65, 2, 0.72188
342, 3, wb, attraction, a-b-db, 2, 2, 2, 30, 89, 163, 90, 165, 165, 90, 1, 1.00287
342, 3, wb, attraction, a-b-db, 2, 2, 2, 30, 89, 163, 90, 165, 165, 90, 2, 0.889902
342, 3, wb, catch, NA, 999, 999, 2, 31, 174, 141, 118, 77, 151, 104, 2, 1.60426
342, 3, wb, catch, NA, 999, 999, 2, 31, 174, 141, 118, 77, 151, 104, 1, 0.650307
342, 3, wb, attraction, a-b-db, 14, 2, 2, 32, 90, 165, 83, 153, 165, 90, 2, 0.598154
342, 3, wb, attraction, a-b-db, 14, 2, 2, 32, 90, 165, 83, 153, 165, 90, 1, 0.797247
342, 3, wb, attraction, a-b-da, 14, 1, 2, 33, 135, 60, 60, 135, 125, 56, 1, 0.979048
342, 3, wb, attraction, a-b-da, 14, 1, 2, 33, 135, 60, 60, 135, 125, 56, 2, 2.24261
342, 3, wb, attraction, a-b-db, 14, 3, 2, 34, 195, 120, 111, 181, 120, 195, 2, 2.54185
342, 3, wb, attraction, a-b-db, 14, 3, 2, 34, 195, 120, 111, 181, 120, 195, 1, 0.702275
342, 3, wb, filler, NA, 999, 999, 2, 35, 98, 89, 75, 122, 153, 188, 1, 4.26405
342, 3, wb, filler, NA, 999, 999, 2, 35, 98, 89, 75, 122, 153, 188, 3, 0.683465
342, 3, wb, attraction, a-b-db, 2, 1, 2, 36, 135, 60, 59, 134, 60, 135, 1, 0.957675
342, 3, wb, attraction, a-b-db, 2, 1, 2, 36, 135, 60, 59, 134, 60, 135, 2, 1.49409
342, 3, wb, attraction, a-b-db, 14, 1, 2, 37, 135, 60, 56, 125, 60, 135, 2, 3.88764
342, 3, wb, attraction, a-b-db, 14, 1, 2, 37, 135, 60, 56, 125, 60, 135, 1, 1.13842
342, 3, wb, attraction, a-b-db, 14, 1, 3, 1, 60, 135, 56, 125, 135, 60, 2, 4.99454
342, 3, wb, attraction, a-b-db, 14, 1, 3, 1, 60, 135, 56, 125, 135, 60, 1, 2.21633
342, 3, wb, attraction, a-b-da, 9, 3, 3, 2, 120, 195, 195, 120, 186, 114, 3, 1.24484
342, 3, wb, attraction, a-b-da, 9, 3, 3, 2, 120, 195, 195, 120, 186, 114, 2, 0.83383
342, 3, wb, attraction, a-b-db, 2, 3, 3, 3, 120, 195, 195, 120, 119, 193, 1, 1.15815
342, 3, wb, attraction, a-b-db, 2, 3, 3, 3, 120, 195, 195, 120, 119, 193, 2, 0.630438
342, 3, wb, attraction, a-b-da, 14, 2, 3, 4, 165, 90, 153, 83, 90, 165, 3, 0.850856
342, 3, wb, attraction, a-b-da, 14, 2, 3, 4, 165, 90, 153, 83, 90, 165, 1, 1.59986
342, 3, wb, catch, NA, 999, 999, 3, 5, 120, 135, 159, 156, 103, 92, 3, 0.78938
342, 3, wb, catch, NA, 999, 999, 3, 5, 120, 135, 159, 156, 103, 92, 2, 0.420384
342, 3, wb, attraction, a-b-db, 5, 1, 3, 6, 135, 60, 58, 132, 60, 135, 2, 4.68164
342, 3, wb, attraction, a-b-db, 5, 1, 3, 6, 135, 60, 58, 132, 60, 135, 3, 0.700144
342, 3, wb, catch, NA, 999, 999, 3, 7, 138, 177, 150, 105, 73, 122, 3, 1.38985
342, 3, wb, catch, NA, 999, 999, 3, 7, 138, 177, 150, 105, 73, 122, 1, 1.91669
342, 3, wb, filler, NA, 999, 999, 3, 8, 118, 125, 139, 139, 194, 149, 1, 0.893317
342, 3, wb, filler, NA, 999, 999, 3, 8, 118, 125, 139, 139, 194, 149, 3, 0.784399
342, 3, wb, filler, NA, 999, 999, 3, 9, 81, 115, 173, 170, 195, 80, 1, 0.758703
342, 3, wb, filler, NA, 999, 999, 3, 9, 81, 115, 173, 170, 195, 80, 2, 1.32725
342, 3, wb, attraction, a-b-db, 2, 1, 3, 10, 135, 60, 59, 134, 60, 135, 2, 1.00733
342, 3, wb, attraction, a-b-db, 2, 1, 3, 10, 135, 60, 59, 134, 60, 135, 1, 0.677595
342, 3, wb, attraction, a-b-da, 14, 3, 3, 11, 195, 120, 181, 111, 120, 195, 2, 0.656084
342, 3, wb, attraction, a-b-da, 14, 3, 3, 11, 195, 120, 181, 111, 120, 195, 1, 0.988458
342, 3, wb, filler, NA, 999, 999, 3, 12, 160, 129, 92, 102, 189, 108, 2, 0.778776
342, 3, wb, filler, NA, 999, 999, 3, 12, 160, 129, 92, 102, 189, 108, 3, 0.570626
342, 3, wb, attraction, a-b-db, 5, 3, 3, 13, 117, 190, 195, 120, 120, 195, 1, 0.945527
342, 3, wb, attraction, a-b-db, 5, 3, 3, 13, 117, 190, 195, 120, 120, 195, 2, 0.410745
342, 3, wb, filler, NA, 999, 999, 3, 14, 111, 159, 175, 175, 110, 160, 1, 0.97579
342, 3, wb, filler, NA, 999, 999, 3, 14, 111, 159, 175, 175, 110, 160, 2, 0.687434
342, 3, wb, filler, NA, 999, 999, 3, 15, 135, 58, 165, 97, 149, 109, 1, 1.1618
342, 3, wb, filler, NA, 999, 999, 3, 15, 135, 58, 165, 97, 149, 109, 3, 1.55412
342, 3, wb, attraction, a-b-da, 5, 2, 3, 16, 90, 165, 165, 90, 161, 88, 1, 0.657603
342, 3, wb, attraction, a-b-da, 5, 2, 3, 16, 90, 165, 165, 90, 161, 88, 3, 1.16597
342, 3, wb, filler, NA, 999, 999, 3, 17, 181, 100, 177, 166, 119, 137, 3, 0.90899
342, 3, wb, filler, NA, 999, 999, 3, 17, 181, 100, 177, 166, 119, 137, 2, 0.439225
342, 3, wb, attraction, a-b-da, 9, 1, 3, 18, 135, 60, 60, 135, 129, 57, 3, 1.34771
342, 3, wb, attraction, a-b-da, 9, 1, 3, 18, 135, 60, 60, 135, 129, 57, 2, 0.724671
342, 3, wb, attraction, a-b-da, 2, 2, 3, 19, 165, 90, 90, 165, 163, 89, 3, 0.900973
342, 3, wb, attraction, a-b-da, 2, 2, 3, 19, 165, 90, 90, 165, 163, 89, 2, 0.535958
342, 3, wb, attraction, a-b-db, 2, 2, 3, 20, 165, 90, 89, 163, 90, 165, 3, 1.32059
342, 3, wb, attraction, a-b-db, 2, 2, 3, 20, 165, 90, 89, 163, 90, 165, 2, 0.602683
342, 3, wb, attraction, a-b-da, 14, 1, 3, 21, 125, 56, 60, 135, 135, 60, 1, 0.832429
342, 3, wb, attraction, a-b-da, 14, 1, 3, 21, 125, 56, 60, 135, 135, 60, 3, 1.43015
342, 3, wb, catch, NA, 999, 999, 3, 22, 114, 141, 176, 139, 92, 103, 3, 0.906362
342, 3, wb, catch, NA, 999, 999, 3, 22, 114, 141, 176, 139, 92, 103, 2, 0.380633
342, 3, wb, attraction, a-b-da, 9, 2, 3, 23, 165, 90, 90, 165, 157, 86, 3, 2.20316
342, 3, wb, attraction, a-b-da, 9, 2, 3, 23, 165, 90, 90, 165, 157, 86, 2, 3.76985
342, 3, wb, attraction, a-b-db, 9, 3, 3, 24, 114, 186, 195, 120, 120, 195, 1, 3.34384
342, 3, wb, attraction, a-b-db, 9, 3, 3, 24, 114, 186, 195, 120, 120, 195, 2, 0.5042
342, 3, wb, attraction, a-b-db, 9, 1, 3, 25, 135, 60, 57, 129, 60, 135, 3, 2.80198
342, 3, wb, attraction, a-b-db, 9, 1, 3, 25, 135, 60, 57, 129, 60, 135, 2, 0.528395
342, 3, wb, filler, NA, 999, 999, 3, 26, 89, 108, 195, 155, 154, 168, 1, 1.03275
342, 3, wb, filler, NA, 999, 999, 3, 26, 89, 108, 195, 155, 154, 168, 2, 0.39841
342, 3, wb, attraction, a-b-da, 2, 3, 3, 27, 195, 120, 120, 195, 193, 119, 3, 3.06821
342, 3, wb, attraction, a-b-da, 2, 3, 3, 27, 195, 120, 120, 195, 193, 119, 2, 0.415915
342, 3, wb, attraction, a-b-db, 9, 2, 3, 28, 86, 157, 90, 165, 165, 90, 1, 1.34908
342, 3, wb, attraction, a-b-db, 9, 2, 3, 28, 86, 157, 90, 165, 165, 90, 2, 0.605919
342, 3, wb, filler, NA, 999, 999, 3, 29, 148, 80, 157, 77, 148, 145, 1, 0.787698
342, 3, wb, filler, NA, 999, 999, 3, 29, 148, 80, 157, 77, 148, 145, 2, 0.730777
342, 3, wb, attraction, a-b-da, 2, 1, 3, 30, 134, 59, 135, 60, 60, 135, 2, 1.33924
342, 3, wb, attraction, a-b-da, 2, 1, 3, 30, 134, 59, 135, 60, 60, 135, 3, 0.636059
342, 3, wb, attraction, a-b-da, 5, 3, 3, 31, 195, 120, 120, 195, 190, 117, 2, 1.13659
342, 3, wb, attraction, a-b-da, 5, 3, 3, 31, 195, 120, 120, 195, 190, 117, 3, 0.826201
342, 3, wb, attraction, a-b-db, 14, 2, 3, 32, 165, 90, 83, 153, 90, 165, 2, 0.854467
342, 3, wb, attraction, a-b-db, 14, 2, 3, 32, 165, 90, 83, 153, 90, 165, 3, 0.611452
342, 3, wb, filler, NA, 999, 999, 3, 33, 152, 190, 163, 171, 191, 136, 1, 0.648554
342, 3, wb, filler, NA, 999, 999, 3, 33, 152, 190, 163, 171, 191, 136, 2, 0.51761
342, 3, wb, filler, NA, 999, 999, 3, 34, 123, 137, 78, 141, 103, 81, 3, 0.862875
342, 3, wb, filler, NA, 999, 999, 3, 34, 123, 137, 78, 141, 103, 81, 2, 0.475141
342, 3, wb, attraction, a-b-da, 5, 1, 3, 35, 60, 135, 132, 58, 135, 60, 1, 0.893508
342, 3, wb, attraction, a-b-da, 5, 1, 3, 35, 60, 135, 132, 58, 135, 60, 2, 1.01666
342, 3, wb, attraction, a-b-db, 14, 3, 3, 36, 195, 120, 120, 195, 111, 181, 1, 0.765592
342, 3, wb, attraction, a-b-db, 14, 3, 3, 36, 195, 120, 120, 195, 111, 181, 2, 0.717971
342, 3, wb, attraction, a-b-db, 5, 2, 3, 37, 88, 161, 90, 165, 165, 90, 1, 0.93499
342, 3, wb, attraction, a-b-db, 5, 2, 3, 37, 88, 161, 90, 165, 165, 90, 2, 0.592733
342, 3, wb, attraction, a-b-db, 5, 3, 4, 1, 195, 120, 120, 195, 117, 190, 3, 0.854431
342, 3, wb, attraction, a-b-db, 5, 3, 4, 1, 195, 120, 120, 195, 117, 190, 2, 1.51487
342, 3, wb, attraction, a-b-db, 9, 1, 4, 2, 135, 60, 60, 135, 57, 129, 3, 1.01967
342, 3, wb, attraction, a-b-db, 9, 1, 4, 2, 135, 60, 60, 135, 57, 129, 2, 0.449968
342, 3, wb, attraction, a-b-da, 5, 3, 4, 3, 120, 195, 195, 120, 190, 117, 1, 1.10182
342, 3, wb, attraction, a-b-da, 5, 3, 4, 3, 120, 195, 195, 120, 190, 117, 2, 0.512717
342, 3, wb, attraction, a-b-da, 2, 2, 4, 4, 90, 165, 163, 89, 165, 90, 3, 1.0019
342, 3, wb, attraction, a-b-da, 2, 2, 4, 4, 90, 165, 163, 89, 165, 90, 2, 0.712825
342, 3, wb, attraction, a-b-db, 5, 2, 4, 5, 90, 165, 88, 161, 165, 90, 3, 0.809953
342, 3, wb, attraction, a-b-db, 5, 2, 4, 5, 90, 165, 88, 161, 165, 90, 2, 1.2163
342, 3, wb, attraction, a-b-da, 14, 3, 4, 6, 120, 195, 181, 111, 195, 120, 1, 1.34112
342, 3, wb, attraction, a-b-da, 14, 3, 4, 6, 120, 195, 181, 111, 195, 120, 3, 0.614056
342, 3, wb, attraction, a-b-da, 14, 1, 4, 7, 125, 56, 135, 60, 60, 135, 2, 1.17125
342, 3, wb, attraction, a-b-da, 14, 1, 4, 7, 125, 56, 135, 60, 60, 135, 3, 0.522749
342, 3, wb, filler, NA, 999, 999, 4, 8, 80, 140, 93, 176, 103, 65, 3, 1.00386
342, 3, wb, filler, NA, 999, 999, 4, 8, 80, 140, 93, 176, 103, 65, 2, 0.834883
342, 3, wb, attraction, a-b-db, 14, 2, 4, 9, 90, 165, 83, 153, 165, 90, 2, 3.09524
342, 3, wb, attraction, a-b-db, 14, 2, 4, 9, 90, 165, 83, 153, 165, 90, 3, 0.873593
342, 3, wb, attraction, a-b-da, 5, 1, 4, 10, 132, 58, 135, 60, 60, 135, 1, 1.22792
342, 3, wb, attraction, a-b-da, 5, 1, 4, 10, 132, 58, 135, 60, 60, 135, 2, 1.02547
342, 3, wb, attraction, a-b-db, 9, 2, 4, 11, 86, 157, 165, 90, 90, 165, 1, 1.17373
342, 3, wb, attraction, a-b-db, 9, 2, 4, 11, 86, 157, 165, 90, 90, 165, 2, 0.829379
342, 3, wb, attraction, a-b-db, 9, 3, 4, 12, 120, 195, 114, 186, 195, 120, 2, 2.22573
342, 3, wb, attraction, a-b-db, 9, 3, 4, 12, 120, 195, 114, 186, 195, 120, 3, 0.655063
342, 3, wb, filler, NA, 999, 999, 4, 13, 57, 167, 113, 170, 191, 184, 1, 0.914706
342, 3, wb, filler, NA, 999, 999, 4, 13, 57, 167, 113, 170, 191, 184, 3, 1.23707
342, 3, wb, attraction, a-b-db, 5, 1, 4, 14, 60, 135, 135, 60, 58, 132, 2, 1.63325
342, 3, wb, attraction, a-b-db, 5, 1, 4, 14, 60, 135, 135, 60, 58, 132, 1, 0.750762
342, 3, wb, filler, NA, 999, 999, 4, 15, 177, 191, 105, 145, 101, 66, 3, 0.742449
342, 3, wb, filler, NA, 999, 999, 4, 15, 177, 191, 105, 145, 101, 66, 1, 0.463548
342, 3, wb, attraction, a-b-da, 9, 1, 4, 16, 135, 60, 129, 57, 60, 135, 2, 1.82678
342, 3, wb, attraction, a-b-da, 9, 1, 4, 16, 135, 60, 129, 57, 60, 135, 3, 0.680128
342, 3, wb, filler, NA, 999, 999, 4, 17, 150, 138, 141, 141, 125, 100, 3, 0.810582
342, 3, wb, filler, NA, 999, 999, 4, 17, 150, 138, 141, 141, 125, 100, 1, 0.69692
342, 3, wb, attraction, a-b-da, 14, 2, 4, 18, 165, 90, 90, 165, 153, 83, 3, 1.22661
342, 3, wb, attraction, a-b-da, 14, 2, 4, 18, 165, 90, 90, 165, 153, 83, 2, 0.456213
342, 3, wb, attraction, a-b-db, 14, 1, 4, 19, 60, 135, 56, 125, 135, 60, 1, 1.02797
342, 3, wb, attraction, a-b-db, 14, 1, 4, 19, 60, 135, 56, 125, 135, 60, 3, 0.553598
342, 3, wb, attraction, a-b-da, 5, 2, 4, 20, 165, 90, 161, 88, 90, 165, 3, 1.09738
342, 3, wb, attraction, a-b-da, 5, 2, 4, 20, 165, 90, 161, 88, 90, 165, 1, 2.15631
342, 3, wb, attraction, a-b-da, 9, 3, 4, 21, 120, 195, 186, 114, 195, 120, 2, 1.47559
342, 3, wb, attraction, a-b-da, 9, 3, 4, 21, 120, 195, 186, 114, 195, 120, 1, 0.503195
342, 3, wb, filler, NA, 999, 999, 4, 22, 105, 155, 62, 73, 181, 69, 2, 0.840956
342, 3, wb, filler, NA, 999, 999, 4, 22, 105, 155, 62, 73, 181, 69, 1, 0.73405
342, 3, wb, filler, NA, 999, 999, 4, 23, 154, 117, 100, 132, 171, 163, 2, 0.910343
342, 3, wb, filler, NA, 999, 999, 4, 23, 154, 117, 100, 132, 171, 163, 3, 0.448721
342, 3, wb, attraction, a-b-db, 2, 1, 4, 24, 60, 135, 59, 134, 135, 60, 3, 1.82854
342, 3, wb, attraction, a-b-db, 2, 1, 4, 24, 60, 135, 59, 134, 135, 60, 2, 0.41788
342, 3, wb, attraction, a-b-db, 14, 3, 4, 25, 195, 120, 111, 181, 120, 195, 3, 2.26303
342, 3, wb, attraction, a-b-db, 14, 3, 4, 25, 195, 120, 111, 181, 120, 195, 1, 0.715063
342, 3, wb, attraction, a-b-da, 9, 2, 4, 26, 165, 90, 90, 165, 157, 86, 3, 1.11608
342, 3, wb, attraction, a-b-da, 9, 2, 4, 26, 165, 90, 90, 165, 157, 86, 1, 0.878356
342, 3, wb, catch, NA, 999, 999, 4, 27, 121, 134, 124, 71, 188, 127, 2, 0.872676
342, 3, wb, catch, NA, 999, 999, 4, 27, 121, 134, 124, 71, 188, 127, 3, 0.452396
342, 3, wb, attraction, a-b-db, 2, 2, 4, 28, 89, 163, 90, 165, 165, 90, 3, 0.792216
342, 3, wb, attraction, a-b-db, 2, 2, 4, 28, 89, 163, 90, 165, 165, 90, 2, 0.439382
342, 3, wb, filler, NA, 999, 999, 4, 29, 169, 56, 119, 139, 159, 84, 1, 1.34764
342, 3, wb, filler, NA, 999, 999, 4, 29, 169, 56, 119, 139, 159, 84, 3, 0.980726
342, 3, wb, catch, NA, 999, 999, 4, 30, 129, 126, 68, 127, 176, 139, 2, 0.810947
342, 3, wb, catch, NA, 999, 999, 4, 30, 129, 126, 68, 127, 176, 139, 3, 0.377239
342, 3, wb, filler, NA, 999, 999, 4, 31, 184, 62, 167, 58, 164, 161, 2, 1.15985
342, 3, wb, filler, NA, 999, 999, 4, 31, 184, 62, 167, 58, 164, 161, 3, 0.503983
342, 3, wb, catch, NA, 999, 999, 4, 32, 60, 135, 136, 119, 138, 177, 1, 0.953768
342, 3, wb, catch, NA, 999, 999, 4, 32, 60, 135, 136, 119, 138, 177, 3, 0.650851
342, 3, wb, filler, NA, 999, 999, 4, 33, 140, 66, 67, 113, 154, 176, 2, 0.822532
342, 3, wb, filler, NA, 999, 999, 4, 33, 140, 66, 67, 113, 154, 176, 3, 1.54032
342, 3, wb, attraction, a-b-da, 2, 1, 4, 34, 60, 135, 134, 59, 135, 60, 2, 2.16388
342, 3, wb, attraction, a-b-da, 2, 1, 4, 34, 60, 135, 134, 59, 135, 60, 3, 0.651686
342, 3, wb, attraction, a-b-db, 2, 3, 4, 35, 120, 195, 119, 193, 195, 120, 3, 1.16742
342, 3, wb, attraction, a-b-db, 2, 3, 4, 35, 120, 195, 119, 193, 195, 120, 2, 0.423735
342, 3, wb, filler, NA, 999, 999, 4, 36, 131, 72, 119, 78, 161, 85, 1, 1.17219
342, 3, wb, filler, NA, 999, 999, 4, 36, 131, 72, 119, 78, 161, 85, 3, 0.6999
342, 3, wb, attraction, a-b-da, 2, 3, 4, 37, 193, 119, 195, 120, 120, 195, 2, 2.15763
342, 3, wb, attraction, a-b-da, 2, 3, 4, 37, 193, 119, 195, 120, 120, 195, 1, 1.88548
342, 3, wb, attraction, a-b-da, 2, 1, 5, 1, 135, 60, 60, 135, 134, 59, 3, 5.74215
342, 3, wb, attraction, a-b-da, 2, 1, 5, 1, 135, 60, 60, 135, 134, 59, 2, 0.725778
342, 3, wb, filler, NA, 999, 999, 5, 2, 95, 105, 104, 157, 68, 68, 3, 0.638044
342, 3, wb, filler, NA, 999, 999, 5, 2, 95, 105, 104, 157, 68, 68, 2, 0.443823
342, 3, wb, filler, NA, 999, 999, 5, 3, 148, 107, 165, 131, 80, 69, 3, 0.527564
342, 3, wb, filler, NA, 999, 999, 5, 3, 148, 107, 165, 131, 80, 69, 2, 0.921453
342, 3, wb, attraction, a-b-da, 5, 1, 5, 4, 132, 58, 60, 135, 135, 60, 1, 2.27441
342, 3, wb, attraction, a-b-da, 5, 1, 5, 4, 132, 58, 60, 135, 135, 60, 2, 0.509623
342, 3, wb, attraction, a-b-db, 5, 1, 5, 5, 60, 135, 135, 60, 58, 132, 3, 0.926782
342, 3, wb, attraction, a-b-db, 5, 1, 5, 5, 60, 135, 135, 60, 58, 132, 2, 0.488409
342, 3, wb, filler, NA, 999, 999, 5, 6, 57, 114, 182, 182, 190, 70, 1, 0.842856
342, 3, wb, filler, NA, 999, 999, 5, 6, 57, 114, 182, 182, 190, 70, 2, 0.439973
342, 3, wb, attraction, a-b-da, 2, 2, 5, 7, 165, 90, 90, 165, 163, 89, 3, 0.836447
342, 3, wb, attraction, a-b-da, 2, 2, 5, 7, 165, 90, 90, 165, 163, 89, 2, 0.674122
342, 3, wb, attraction, a-b-da, 5, 3, 5, 8, 120, 195, 190, 117, 195, 120, 3, 1.67661
342, 3, wb, attraction, a-b-da, 5, 3, 5, 8, 120, 195, 190, 117, 195, 120, 2, 0.864035
342, 3, wb, catch, NA, 999, 999, 5, 9, 144, 111, 88, 107, 133, 182, 2, 0.682976
342, 3, wb, catch, NA, 999, 999, 5, 9, 144, 111, 88, 107, 133, 182, 3, 0.638785
342, 3, wb, attraction, a-b-da, 9, 3, 5, 10, 186, 114, 120, 195, 195, 120, 1, 1.18719
342, 3, wb, attraction, a-b-da, 9, 3, 5, 10, 186, 114, 120, 195, 195, 120, 2, 0.554718
342, 3, wb, attraction, a-b-db, 5, 3, 5, 11, 117, 190, 195, 120, 120, 195, 3, 0.96252
342, 3, wb, attraction, a-b-db, 5, 3, 5, 11, 117, 190, 195, 120, 120, 195, 2, 0.490806
342, 3, wb, attraction, a-b-db, 2, 1, 5, 12, 59, 134, 60, 135, 135, 60, 3, 1.00463
342, 3, wb, attraction, a-b-db, 2, 1, 5, 12, 59, 134, 60, 135, 135, 60, 2, 0.699774
342, 3, wb, attraction, a-b-da, 5, 2, 5, 13, 90, 165, 165, 90, 161, 88, 1, 0.75737
342, 3, wb, attraction, a-b-da, 5, 2, 5, 13, 90, 165, 165, 90, 161, 88, 2, 0.645751
342, 3, wb, attraction, a-b-da, 14, 1, 5, 14, 60, 135, 135, 60, 125, 56, 3, 0.761525
342, 3, wb, attraction, a-b-da, 14, 1, 5, 14, 60, 135, 135, 60, 125, 56, 2, 0.825948
342, 3, wb, filler, NA, 999, 999, 5, 15, 81, 65, 156, 61, 63, 96, 3, 1.39022
342, 3, wb, filler, NA, 999, 999, 5, 15, 81, 65, 156, 61, 63, 96, 2, 0.621167
342, 3, wb, attraction, a-b-db, 9, 1, 5, 16, 57, 129, 60, 135, 135, 60, 3, 1.20223
342, 3, wb, attraction, a-b-db, 9, 1, 5, 16, 57, 129, 60, 135, 135, 60, 2, 0.729146
342, 3, wb, attraction, a-b-db, 2, 3, 5, 17, 119, 193, 195, 120, 120, 195, 2, 1.6095
342, 3, wb, attraction, a-b-db, 2, 3, 5, 17, 119, 193, 195, 120, 120, 195, 3, 0.503668
342, 3, wb, catch, NA, 999, 999, 5, 18, 152, 103, 126, 189, 65, 130, 3, 0.737554
342, 3, wb, catch, NA, 999, 999, 5, 18, 152, 103, 126, 189, 65, 130, 2, 0.61921
342, 3, wb, filler, NA, 999, 999, 5, 19, 163, 179, 102, 111, 88, 59, 3, 0.720266
342, 3, wb, filler, NA, 999, 999, 5, 19, 163, 179, 102, 111, 88, 59, 1, 0.410718
342, 3, wb, attraction, a-b-db, 2, 2, 5, 20, 165, 90, 89, 163, 90, 165, 3, 1.45581
342, 3, wb, attraction, a-b-db, 2, 2, 5, 20, 165, 90, 89, 163, 90, 165, 1, 0.732102
342, 3, wb, attraction, a-b-db, 9, 3, 5, 21, 114, 186, 195, 120, 120, 195, 3, 1.94848
342, 3, wb, attraction, a-b-db, 9, 3, 5, 21, 114, 186, 195, 120, 120, 195, 2, 0.68509
342, 3, wb, attraction, a-b-da, 14, 2, 5, 22, 90, 165, 165, 90, 153, 83, 3, 0.783516
342, 3, wb, attraction, a-b-da, 14, 2, 5, 22, 90, 165, 165, 90, 153, 83, 2, 0.503275
342, 3, wb, filler, NA, 999, 999, 5, 23, 172, 127, 144, 87, 192, 155, 2, 0.833094
342, 3, wb, filler, NA, 999, 999, 5, 23, 172, 127, 144, 87, 192, 155, 3, 0.382741
342, 3, wb, filler, NA, 999, 999, 5, 24, 127, 156, 186, 96, 133, 138, 2, 1.87726
342, 3, wb, filler, NA, 999, 999, 5, 24, 127, 156, 186, 96, 133, 138, 1, 0.664559
342, 3, wb, filler, NA, 999, 999, 5, 25, 72, 158, 96, 57, 99, 102, 2, 0.899732
342, 3, wb, filler, NA, 999, 999, 5, 25, 72, 158, 96, 57, 99, 102, 1, 2.92669
342, 3, wb, filler, NA, 999, 999, 5, 26, 129, 92, 142, 108, 64, 169, 3, 0.830315
342, 3, wb, filler, NA, 999, 999, 5, 26, 129, 92, 142, 108, 64, 169, 2, 0.508306
342, 3, wb, catch, NA, 999, 999, 5, 27, 103, 152, 75, 120, 140, 175, 2, 0.629276
342, 3, wb, catch, NA, 999, 999, 5, 27, 103, 152, 75, 120, 140, 175, 3, 0.378954
342, 3, wb, attraction, a-b-da, 2, 3, 5, 28, 195, 120, 120, 195, 193, 119, 3, 1.44149
342, 3, wb, attraction, a-b-da, 2, 3, 5, 28, 195, 120, 120, 195, 193, 119, 2, 0.390302
342, 3, wb, attraction, a-b-da, 9, 1, 5, 29, 60, 135, 129, 57, 135, 60, 2, 0.812308
342, 3, wb, attraction, a-b-da, 9, 1, 5, 29, 60, 135, 129, 57, 135, 60, 3, 0.570521
342, 3, wb, attraction, a-b-db, 14, 3, 5, 30, 195, 120, 120, 195, 111, 181, 3, 0.929674
342, 3, wb, attraction, a-b-db, 14, 3, 5, 30, 195, 120, 120, 195, 111, 181, 2, 0.411277
342, 3, wb, attraction, a-b-da, 14, 3, 5, 31, 181, 111, 195, 120, 120, 195, 2, 1.55247
342, 3, wb, attraction, a-b-da, 14, 3, 5, 31, 181, 111, 195, 120, 120, 195, 1, 0.48141
342, 3, wb, attraction, a-b-db, 14, 2, 5, 32, 165, 90, 83, 153, 90, 165, 2, 1.79574
342, 3, wb, attraction, a-b-db, 14, 2, 5, 32, 165, 90, 83, 153, 90, 165, 1, 0.538522
342, 3, wb, attraction, a-b-db, 14, 1, 5, 33, 60, 135, 135, 60, 56, 125, 3, 1.63494
342, 3, wb, attraction, a-b-db, 14, 1, 5, 33, 60, 135, 135, 60, 56, 125, 2, 0.616447
342, 3, wb, filler, NA, 999, 999, 5, 34, 144, 83, 142, 175, 112, 90, 3, 0.797486
342, 3, wb, filler, NA, 999, 999, 5, 34, 144, 83, 142, 175, 112, 90, 2, 0.364556
342, 3, wb, attraction, a-b-db, 5, 2, 5, 35, 88, 161, 90, 165, 165, 90, 3, 0.811687
342, 3, wb, attraction, a-b-db, 5, 2, 5, 35, 88, 161, 90, 165, 165, 90, 2, 1.01821
342, 3, wb, attraction, a-b-da, 9, 2, 5, 36, 157, 86, 165, 90, 90, 165, 3, 0.999019
342, 3, wb, attraction, a-b-da, 9, 2, 5, 36, 157, 86, 165, 90, 90, 165, 2, 1.00612
342, 3, wb, attraction, a-b-db, 9, 2, 5, 37, 165, 90, 86, 157, 90, 165, 3, 4.18785
342, 3, wb, attraction, a-b-db, 9, 2, 5, 37, 165, 90, 86, 157, 90, 165, 1, 1.05034
342, 3, wb, attraction, a-b-db, 2, 1, 6, 1, 135, 60, 59, 134, 60, 135, 3, 1.29404
342, 3, wb, attraction, a-b-db, 2, 1, 6, 1, 135, 60, 59, 134, 60, 135, 2, 0.912835
342, 3, wb, attraction, a-b-da, 5, 3, 6, 2, 120, 195, 195, 120, 190, 117, 3, 0.609852
342, 3, wb, attraction, a-b-da, 5, 3, 6, 2, 120, 195, 195, 120, 190, 117, 2, 0.728266
342, 3, wb, filler, NA, 999, 999, 6, 3, 175, 138, 125, 195, 184, 154, 1, 1.4407
342, 3, wb, filler, NA, 999, 999, 6, 3, 175, 138, 125, 195, 184, 154, 2, 0.989506
342, 3, wb, attraction, a-b-db, 2, 2, 6, 4, 89, 163, 165, 90, 90, 165, 3, 1.51582
342, 3, wb, attraction, a-b-db, 2, 2, 6, 4, 89, 163, 165, 90, 90, 165, 2, 0.718082
342, 3, wb, attraction, a-b-da, 2, 3, 6, 5, 193, 119, 120, 195, 195, 120, 3, 0.991032
342, 3, wb, attraction, a-b-da, 2, 3, 6, 5, 193, 119, 120, 195, 195, 120, 2, 0.462075
342, 3, wb, filler, NA, 999, 999, 6, 6, 125, 179, 157, 189, 57, 147, 3, 0.857272
342, 3, wb, filler, NA, 999, 999, 6, 6, 125, 179, 157, 189, 57, 147, 2, 0.725582
342, 3, wb, catch, NA, 999, 999, 6, 7, 101, 154, 168, 147, 115, 80, 3, 0.941951
342, 3, wb, catch, NA, 999, 999, 6, 7, 101, 154, 168, 147, 115, 80, 2, 0.558998
342, 3, wb, filler, NA, 999, 999, 6, 8, 101, 120, 179, 152, 186, 92, 1, 1.05403
342, 3, wb, filler, NA, 999, 999, 6, 8, 101, 120, 179, 152, 186, 92, 2, 0.482976
342, 3, wb, attraction, a-b-db, 14, 2, 6, 9, 90, 165, 165, 90, 83, 153, 3, 2.87751
342, 3, wb, attraction, a-b-db, 14, 2, 6, 9, 90, 165, 165, 90, 83, 153, 2, 0.696501
342, 3, wb, attraction, a-b-db, 5, 2, 6, 10, 90, 165, 165, 90, 88, 161, 3, 0.778306
342, 3, wb, attraction, a-b-db, 5, 2, 6, 10, 90, 165, 165, 90, 88, 161, 2, 0.466036
342, 3, wb, filler, NA, 999, 999, 6, 11, 147, 136, 195, 172, 165, 91, 3, 1.02123
342, 3, wb, filler, NA, 999, 999, 6, 11, 147, 136, 195, 172, 165, 91, 2, 0.403469
342, 3, wb, attraction, a-b-db, 9, 1, 6, 12, 57, 129, 60, 135, 135, 60, 2, 0.897234
342, 3, wb, attraction, a-b-db, 9, 1, 6, 12, 57, 129, 60, 135, 135, 60, 3, 0.508314
342, 3, wb, attraction, a-b-da, 14, 3, 6, 13, 195, 120, 120, 195, 181, 111, 3, 1.07737
342, 3, wb, attraction, a-b-da, 14, 3, 6, 13, 195, 120, 120, 195, 181, 111, 1, 2.12106
342, 3, wb, filler, NA, 999, 999, 6, 14, 185, 76, 86, 92, 92, 90, 3, 0.809675
342, 3, wb, filler, NA, 999, 999, 6, 14, 185, 76, 86, 92, 92, 90, 1, 0.752153
342, 3, wb, filler, NA, 999, 999, 6, 15, 104, 95, 87, 105, 121, 104, 2, 1.23979
342, 3, wb, filler, NA, 999, 999, 6, 15, 104, 95, 87, 105, 121, 104, 3, 0.428618
342, 3, wb, attraction, a-b-da, 9, 2, 6, 16, 90, 165, 157, 86, 165, 90, 3, 2.84913
342, 3, wb, attraction, a-b-da, 9, 2, 6, 16, 90, 165, 157, 86, 165, 90, 2, 0.797537
342, 3, wb, attraction, a-b-da, 14, 1, 6, 17, 135, 60, 125, 56, 60, 135, 3, 1.41128
342, 3, wb, attraction, a-b-da, 14, 1, 6, 17, 135, 60, 125, 56, 60, 135, 1, 0.905618
342, 3, wb, filler, NA, 999, 999, 6, 18, 144, 105, 59, 194, 105, 97, 3, 0.747096
342, 3, wb, filler, NA, 999, 999, 6, 18, 144, 105, 59, 194, 105, 97, 1, 0.732267
342, 3, wb, catch, NA, 999, 999, 6, 19, 113, 82, 144, 111, 142, 173, 1, 1.03653
342, 3, wb, catch, NA, 999, 999, 6, 19, 113, 82, 144, 111, 142, 173, 3, 0.450174
342, 3, wb, attraction, a-b-da, 9, 3, 6, 20, 186, 114, 195, 120, 120, 195, 3, 2.91816
342, 3, wb, attraction, a-b-da, 9, 3, 6, 20, 186, 114, 195, 120, 120, 195, 2, 1.4799
342, 3, wb, attraction, a-b-da, 2, 1, 6, 21, 135, 60, 134, 59, 60, 135, 3, 0.801931
342, 3, wb, attraction, a-b-da, 2, 1, 6, 21, 135, 60, 134, 59, 60, 135, 2, 0.488996
342, 3, wb, attraction, a-b-db, 14, 3, 6, 22, 120, 195, 195, 120, 111, 181, 3, 0.779441
342, 3, wb, attraction, a-b-db, 14, 3, 6, 22, 120, 195, 195, 120, 111, 181, 2, 0.707231
342, 3, wb, attraction, a-b-db, 5, 1, 6, 23, 58, 132, 60, 135, 135, 60, 2, 1.30011
342, 3, wb, attraction, a-b-db, 5, 1, 6, 23, 58, 132, 60, 135, 135, 60, 3, 0.727053
342, 3, wb, attraction, a-b-db, 14, 1, 6, 24, 56, 125, 60, 135, 135, 60, 3, 1.45546
342, 3, wb, attraction, a-b-db, 14, 1, 6, 24, 56, 125, 60, 135, 135, 60, 2, 0.395795
342, 3, wb, filler, NA, 999, 999, 6, 25, 139, 114, 127, 102, 59, 85, 3, 0.809559
342, 3, wb, filler, NA, 999, 999, 6, 25, 139, 114, 127, 102, 59, 85, 1, 0.759904
342, 3, wb, attraction, a-b-da, 5, 1, 6, 26, 132, 58, 60, 135, 135, 60, 2, 10.6868
342, 3, wb, attraction, a-b-da, 5, 1, 6, 26, 132, 58, 60, 135, 135, 60, 3, 0.751484
342, 3, wb, attraction, a-b-da, 14, 2, 6, 27, 165, 90, 153, 83, 90, 165, 2, 1.15932
342, 3, wb, attraction, a-b-da, 14, 2, 6, 27, 165, 90, 153, 83, 90, 165, 1, 0.631621
342, 3, wb, attraction, a-b-da, 5, 2, 6, 28, 90, 165, 161, 88, 165, 90, 2, 0.787918
342, 3, wb, attraction, a-b-da, 5, 2, 6, 28, 90, 165, 161, 88, 165, 90, 3, 0.795613
342, 3, wb, attraction, a-b-db, 9, 3, 6, 29, 120, 195, 114, 186, 195, 120, 3, 0.897272
342, 3, wb, attraction, a-b-db, 9, 3, 6, 29, 120, 195, 114, 186, 195, 120, 2, 0.404376
342, 3, wb, attraction, a-b-db, 2, 3, 6, 30, 119, 193, 120, 195, 195, 120, 3, 7.76239
342, 3, wb, attraction, a-b-db, 2, 3, 6, 30, 119, 193, 120, 195, 195, 120, 2, 0.440451
342, 3, wb, filler, NA, 999, 999, 6, 31, 56, 159, 86, 70, 138, 59, 2, 1.04423
342, 3, wb, filler, NA, 999, 999, 6, 31, 56, 159, 86, 70, 138, 59, 3, 1.08921
342, 3, wb, attraction, a-b-db, 5, 3, 6, 32, 120, 195, 117, 190, 195, 120, 3, 1.38739
342, 3, wb, attraction, a-b-db, 5, 3, 6, 32, 120, 195, 117, 190, 195, 120, 2, 0.427011
342, 3, wb, attraction, a-b-da, 9, 1, 6, 33, 129, 57, 60, 135, 135, 60, 1, 1.08744
342, 3, wb, attraction, a-b-da, 9, 1, 6, 33, 129, 57, 60, 135, 135, 60, 2, 0.498436
342, 3, wb, catch, NA, 999, 999, 6, 34, 178, 137, 65, 130, 147, 108, 2, 0.764295
342, 3, wb, catch, NA, 999, 999, 6, 34, 178, 137, 65, 130, 147, 108, 1, 0.436594
342, 3, wb, attraction, a-b-db, 9, 2, 6, 35, 165, 90, 90, 165, 86, 157, 1, 1.04114
342, 3, wb, attraction, a-b-db, 9, 2, 6, 35, 165, 90, 90, 165, 86, 157, 2, 0.454186
342, 3, wb, attraction, a-b-da, 2, 2, 6, 36, 163, 89, 90, 165, 165, 90, 1, 0.92993
342, 3, wb, attraction, a-b-da, 2, 2, 6, 36, 163, 89, 90, 165, 165, 90, 2, 0.475561
342, 3, wb, filler, NA, 999, 999, 6, 37, 67, 93, 155, 107, 189, 117, 1, 0.869977
342, 3, wb, filler, NA, 999, 999, 6, 37, 67, 93, 155, 107, 189, 117, 3, 0.914531
342, 3, wb, attraction, a-b-db, 9, 1, 7, 1, 135, 60, 57, 129, 60, 135, 3, 1.25143
342, 3, wb, attraction, a-b-db, 9, 1, 7, 1, 135, 60, 57, 129, 60, 135, 2, 0.704267
342, 3, wb, attraction, a-b-db, 5, 1, 7, 2, 135, 60, 58, 132, 60, 135, 2, 1.24201
342, 3, wb, attraction, a-b-db, 5, 1, 7, 2, 135, 60, 58, 132, 60, 135, 3, 0.847046
342, 3, wb, filler, NA, 999, 999, 7, 3, 137, 66, 87, 83, 149, 136, 2, 1.09861
342, 3, wb, filler, NA, 999, 999, 7, 3, 137, 66, 87, 83, 149, 136, 3, 0.469656
342, 3, wb, attraction, a-b-da, 5, 2, 7, 4, 90, 165, 161, 88, 165, 90, 2, 0.808783
342, 3, wb, attraction, a-b-da, 5, 2, 7, 4, 90, 165, 161, 88, 165, 90, 3, 0.479129
342, 3, wb, catch, NA, 999, 999, 7, 5, 107, 148, 77, 118, 176, 139, 2, 0.961565
342, 3, wb, catch, NA, 999, 999, 7, 5, 107, 148, 77, 118, 176, 139, 3, 1.13789
342, 3, wb, attraction, a-b-da, 14, 2, 7, 6, 153, 83, 165, 90, 90, 165, 1, 1.11417
342, 3, wb, attraction, a-b-da, 14, 2, 7, 6, 153, 83, 165, 90, 90, 165, 3, 0.85243
342, 3, wb, attraction, a-b-db, 2, 2, 7, 7, 89, 163, 90, 165, 165, 90, 3, 1.20018
342, 3, wb, attraction, a-b-db, 2, 2, 7, 7, 89, 163, 90, 165, 165, 90, 2, 0.470982
342, 3, wb, filler, NA, 999, 999, 7, 8, 139, 179, 110, 115, 117, 175, 2, 0.762186
342, 3, wb, filler, NA, 999, 999, 7, 8, 139, 179, 110, 115, 117, 175, 3, 0.458631
342, 3, wb, attraction, a-b-db, 2, 1, 7, 9, 135, 60, 59, 134, 60, 135, 2, 1.40578
342, 3, wb, attraction, a-b-db, 2, 1, 7, 9, 135, 60, 59, 134, 60, 135, 3, 0.700106
342, 3, wb, catch, NA, 999, 999, 7, 10, 191, 124, 121, 134, 130, 65, 3, 0.941716
342, 3, wb, catch, NA, 999, 999, 7, 10, 191, 124, 121, 134, 130, 65, 2, 0.550734
342, 3, wb, filler, NA, 999, 999, 7, 11, 133, 71, 118, 186, 119, 186, 1, 0.95833
342, 3, wb, filler, NA, 999, 999, 7, 11, 133, 71, 118, 186, 119, 186, 3, 1.62278
342, 3, wb, filler, NA, 999, 999, 7, 12, 193, 95, 153, 94, 122, 119, 3, 0.987689
342, 3, wb, filler, NA, 999, 999, 7, 12, 193, 95, 153, 94, 122, 119, 2, 0.674613
342, 3, wb, attraction, a-b-db, 14, 3, 7, 13, 111, 181, 195, 120, 120, 195, 1, 1.15689
342, 3, wb, attraction, a-b-db, 14, 3, 7, 13, 111, 181, 195, 120, 120, 195, 2, 0.445225
342, 3, wb, attraction, a-b-db, 5, 3, 7, 14, 120, 195, 117, 190, 195, 120, 3, 0.665008
342, 3, wb, attraction, a-b-db, 5, 3, 7, 14, 120, 195, 117, 190, 195, 120, 2, 0.517469
342, 3, wb, attraction, a-b-da, 14, 3, 7, 15, 195, 120, 120, 195, 181, 111, 1, 1.07058
342, 3, wb, attraction, a-b-da, 14, 3, 7, 15, 195, 120, 120, 195, 181, 111, 2, 0.466827
342, 3, wb, attraction, a-b-da, 5, 1, 7, 16, 135, 60, 132, 58, 60, 135, 1, 0.806038
342, 3, wb, attraction, a-b-da, 5, 1, 7, 16, 135, 60, 132, 58, 60, 135, 2, 0.916336
342, 3, wb, attraction, a-b-db, 14, 1, 7, 17, 60, 135, 56, 125, 135, 60, 2, 0.75728
342, 3, wb, attraction, a-b-db, 14, 1, 7, 17, 60, 135, 56, 125, 135, 60, 3, 0.661697
342, 3, wb, attraction, a-b-db, 9, 3, 7, 18, 195, 120, 114, 186, 120, 195, 2, 0.904798
342, 3, wb, attraction, a-b-db, 9, 3, 7, 18, 195, 120, 114, 186, 120, 195, 3, 0.499173
342, 3, wb, attraction, a-b-db, 5, 2, 7, 19, 90, 165, 88, 161, 165, 90, 2, 0.701021
342, 3, wb, attraction, a-b-db, 5, 2, 7, 19, 90, 165, 88, 161, 165, 90, 3, 0.704114
342, 3, wb, attraction, a-b-db, 2, 3, 7, 20, 195, 120, 119, 193, 120, 195, 2, 0.809822
342, 3, wb, attraction, a-b-db, 2, 3, 7, 20, 195, 120, 119, 193, 120, 195, 3, 0.488193
342, 3, wb, attraction, a-b-db, 9, 2, 7, 21, 90, 165, 165, 90, 86, 157, 2, 0.706579
342, 3, wb, attraction, a-b-db, 9, 2, 7, 21, 90, 165, 165, 90, 86, 157, 3, 0.469021
342, 3, wb, filler, NA, 999, 999, 7, 22, 155, 173, 112, 68, 70, 114, 2, 0.824213
342, 3, wb, filler, NA, 999, 999, 7, 22, 155, 173, 112, 68, 70, 114, 3, 0.645966
342, 3, wb, filler, NA, 999, 999, 7, 23, 145, 154, 125, 124, 146, 188, 2, 0.521657
342, 3, wb, filler, NA, 999, 999, 7, 23, 145, 154, 125, 124, 146, 188, 3, 0.435567
342, 3, wb, catch, NA, 999, 999, 7, 24, 147, 168, 91, 164, 128, 67, 2, 0.823927
342, 3, wb, catch, NA, 999, 999, 7, 24, 147, 168, 91, 164, 128, 67, 3, 0.645633
342, 3, wb, attraction, a-b-da, 5, 3, 7, 25, 120, 195, 195, 120, 190, 117, 2, 0.593381
342, 3, wb, attraction, a-b-da, 5, 3, 7, 25, 120, 195, 195, 120, 190, 117, 3, 0.760508
342, 3, wb, attraction, a-b-da, 2, 1, 7, 26, 135, 60, 134, 59, 60, 135, 2, 0.71146
342, 3, wb, attraction, a-b-da, 2, 1, 7, 26, 135, 60, 134, 59, 60, 135, 3, 0.769959
342, 3, wb, filler, NA, 999, 999, 7, 27, 162, 144, 184, 190, 127, 113, 3, 1.21693
342, 3, wb, filler, NA, 999, 999, 7, 27, 162, 144, 184, 190, 127, 113, 2, 0.671369
342, 3, wb, filler, NA, 999, 999, 7, 28, 167, 73, 88, 68, 175, 162, 2, 0.938312
342, 3, wb, filler, NA, 999, 999, 7, 28, 167, 73, 88, 68, 175, 162, 3, 0.651319
342, 3, wb, attraction, a-b-da, 2, 2, 7, 29, 90, 165, 163, 89, 165, 90, 3, 0.758976
342, 3, wb, attraction, a-b-da, 2, 2, 7, 29, 90, 165, 163, 89, 165, 90, 2, 0.495387
342, 3, wb, attraction, a-b-da, 9, 3, 7, 30, 195, 120, 120, 195, 186, 114, 1, 2.32922
342, 3, wb, attraction, a-b-da, 9, 3, 7, 30, 195, 120, 120, 195, 186, 114, 2, 0.482448
342, 3, wb, filler, NA, 999, 999, 7, 31, 149, 82, 179, 137, 68, 172, 3, 0.596988
342, 3, wb, filler, NA, 999, 999, 7, 31, 149, 82, 179, 137, 68, 172, 2, 0.39613
342, 3, wb, attraction, a-b-da, 9, 1, 7, 32, 129, 57, 60, 135, 135, 60, 3, 0.86601
342, 3, wb, attraction, a-b-da, 9, 1, 7, 32, 129, 57, 60, 135, 135, 60, 2, 0.606164
342, 3, wb, attraction, a-b-da, 9, 2, 7, 33, 157, 86, 90, 165, 165, 90, 3, 0.627957
342, 3, wb, attraction, a-b-da, 9, 2, 7, 33, 157, 86, 90, 165, 165, 90, 2, 0.561848
342, 3, wb, filler, NA, 999, 999, 7, 34, 179, 181, 116, 148, 151, 170, 2, 0.784885
342, 3, wb, filler, NA, 999, 999, 7, 34, 179, 181, 116, 148, 151, 170, 3, 0.48064
342, 3, wb, attraction, a-b-da, 2, 3, 7, 35, 195, 120, 120, 195, 193, 119, 2, 1.45909
342, 3, wb, attraction, a-b-da, 2, 3, 7, 35, 195, 120, 120, 195, 193, 119, 3, 0.815195
342, 3, wb, attraction, a-b-da, 14, 1, 7, 36, 60, 135, 135, 60, 125, 56, 2, 0.580256
342, 3, wb, attraction, a-b-da, 14, 1, 7, 36, 60, 135, 135, 60, 125, 56, 3, 0.436056
342, 3, wb, attraction, a-b-db, 14, 2, 7, 37, 165, 90, 83, 153, 90, 165, 2, 0.632551
342, 3, wb, attraction, a-b-db, 14, 2, 7, 37, 165, 90, 83, 153, 90, 165, 3, 0.806352
342, 3, wb, attraction, a-b-db, 2, 2, 8, 1, 165, 90, 89, 163, 90, 165, 2, 0.580022
342, 3, wb, attraction, a-b-db, 2, 2, 8, 1, 165, 90, 89, 163, 90, 165, 3, 1.26798
342, 3, wb, attraction, a-b-da, 2, 1, 8, 2, 60, 135, 134, 59, 135, 60, 2, 0.718719
342, 3, wb, attraction, a-b-da, 2, 1, 8, 2, 60, 135, 134, 59, 135, 60, 3, 0.81719
342, 3, wb, filler, NA, 999, 999, 8, 3, 117, 113, 94, 182, 90, 107, 3, 0.878056
342, 3, wb, filler, NA, 999, 999, 8, 3, 117, 113, 94, 182, 90, 107, 2, 0.489764
342, 3, wb, attraction, a-b-db, 5, 1, 8, 4, 58, 132, 135, 60, 60, 135, 3, 0.916251
342, 3, wb, attraction, a-b-db, 5, 1, 8, 4, 58, 132, 135, 60, 60, 135, 2, 0.78256
342, 3, wb, attraction, a-b-da, 5, 2, 8, 5, 161, 88, 90, 165, 165, 90, 2, 0.933022
342, 3, wb, attraction, a-b-da, 5, 2, 8, 5, 161, 88, 90, 165, 165, 90, 3, 0.486689
342, 3, wb, attraction, a-b-da, 2, 3, 8, 6, 193, 119, 195, 120, 120, 195, 2, 0.58511
342, 3, wb, attraction, a-b-da, 2, 3, 8, 6, 193, 119, 195, 120, 120, 195, 1, 1.30486
342, 3, wb, filler, NA, 999, 999, 8, 7, 91, 125, 161, 108, 118, 140, 1, 1.48237
342, 3, wb, filler, NA, 999, 999, 8, 7, 91, 125, 161, 108, 118, 140, 2, 0.461931
342, 3, wb, filler, NA, 999, 999, 8, 8, 68, 144, 62, 135, 126, 114, 2, 0.881007
342, 3, wb, filler, NA, 999, 999, 8, 8, 68, 144, 62, 135, 126, 114, 3, 0.388824
342, 3, wb, catch, NA, 999, 999, 8, 9, 132, 63, 159, 96, 173, 142, 1, 0.779361
342, 3, wb, catch, NA, 999, 999, 8, 9, 132, 63, 159, 96, 173, 142, 2, 0.450991
342, 3, wb, attraction, a-b-db, 5, 3, 8, 10, 195, 120, 117, 190, 120, 195, 2, 0.654831
342, 3, wb, attraction, a-b-db, 5, 3, 8, 10, 195, 120, 117, 190, 120, 195, 1, 1.2193
342, 3, wb, attraction, a-b-db, 14, 3, 8, 11, 195, 120, 120, 195, 111, 181, 3, 1.15214
342, 3, wb, attraction, a-b-db, 14, 3, 8, 11, 195, 120, 120, 195, 111, 181, 2, 0.897084
342, 3, wb, attraction, a-b-db, 2, 3, 8, 12, 119, 193, 120, 195, 195, 120, 3, 1.60271
342, 3, wb, attraction, a-b-db, 2, 3, 8, 12, 119, 193, 120, 195, 195, 120, 2, 1.19368
342, 3, wb, attraction, a-b-db, 5, 2, 8, 13, 165, 90, 88, 161, 90, 165, 3, 1.25516
342, 3, wb, attraction, a-b-db, 5, 2, 8, 13, 165, 90, 88, 161, 90, 165, 1, 0.819441
342, 3, wb, filler, NA, 999, 999, 8, 14, 182, 110, 173, 120, 101, 189, 3, 1.4084
342, 3, wb, filler, NA, 999, 999, 8, 14, 182, 110, 173, 120, 101, 189, 2, 0.870529
342, 3, wb, attraction, a-b-da, 5, 3, 8, 15, 195, 120, 190, 117, 120, 195, 3, 0.921549
342, 3, wb, attraction, a-b-da, 5, 3, 8, 15, 195, 120, 190, 117, 120, 195, 2, 1.54791
342, 3, wb, attraction, a-b-db, 2, 1, 8, 16, 59, 134, 135, 60, 60, 135, 3, 1.1954
342, 3, wb, attraction, a-b-db, 2, 1, 8, 16, 59, 134, 135, 60, 60, 135, 2, 1.21832
342, 3, wb, filler, NA, 999, 999, 8, 17, 69, 108, 175, 59, 184, 170, 1, 1.11921
342, 3, wb, filler, NA, 999, 999, 8, 17, 69, 108, 175, 59, 184, 170, 3, 0.545541
342, 3, wb, attraction, a-b-db, 9, 1, 8, 18, 135, 60, 60, 135, 57, 129, 3, 0.897291
342, 3, wb, attraction, a-b-db, 9, 1, 8, 18, 135, 60, 60, 135, 57, 129, 2, 1.40439
342, 3, wb, attraction, a-b-da, 9, 1, 8, 19, 135, 60, 60, 135, 129, 57, 3, 1.20196
342, 3, wb, attraction, a-b-da, 9, 1, 8, 19, 135, 60, 60, 135, 129, 57, 2, 0.680802
342, 3, wb, attraction, a-b-da, 14, 3, 8, 20, 181, 111, 195, 120, 120, 195, 3, 0.971162
342, 3, wb, attraction, a-b-da, 14, 3, 8, 20, 181, 111, 195, 120, 120, 195, 2, 0.923558
342, 3, wb, filler, NA, 999, 999, 8, 21, 70, 76, 153, 185, 68, 155, 1, 1.34773
342, 3, wb, filler, NA, 999, 999, 8, 21, 70, 76, 153, 185, 68, 155, 2, 0.452684
342, 3, wb, filler, NA, 999, 999, 8, 22, 195, 179, 70, 159, 181, 97, 2, 1.00055
342, 3, wb, filler, NA, 999, 999, 8, 22, 195, 179, 70, 159, 181, 97, 1, 1.33552
342, 3, wb, filler, NA, 999, 999, 8, 23, 63, 116, 75, 148, 144, 187, 1, 0.935674
342, 3, wb, filler, NA, 999, 999, 8, 23, 63, 116, 75, 148, 144, 187, 3, 1.0654
342, 3, wb, attraction, a-b-da, 14, 1, 8, 24, 125, 56, 60, 135, 135, 60, 1, 1.7483
342, 3, wb, attraction, a-b-da, 14, 1, 8, 24, 125, 56, 60, 135, 135, 60, 2, 0.749192
342, 3, wb, filler, NA, 999, 999, 8, 25, 110, 71, 143, 99, 146, 72, 3, 1.0688
342, 3, wb, filler, NA, 999, 999, 8, 25, 110, 71, 143, 99, 146, 72, 2, 0.505111
342, 3, wb, attraction, a-b-da, 14, 2, 8, 26, 90, 165, 165, 90, 153, 83, 3, 1.21088
342, 3, wb, attraction, a-b-da, 14, 2, 8, 26, 90, 165, 165, 90, 153, 83, 2, 0.457166
342, 3, wb, catch, NA, 999, 999, 8, 27, 175, 140, 87, 108, 155, 100, 2, 0.876239
342, 3, wb, catch, NA, 999, 999, 8, 27, 175, 140, 87, 108, 155, 100, 1, 0.760063
342, 3, wb, catch, NA, 999, 999, 8, 28, 185, 130, 61, 134, 101, 154, 2, 0.534985
342, 3, wb, catch, NA, 999, 999, 8, 28, 185, 130, 61, 134, 101, 154, 1, 1.27285
342, 3, wb, attraction, a-b-da, 9, 2, 8, 29, 165, 90, 157, 86, 90, 165, 2, 1.77965
342, 3, wb, attraction, a-b-da, 9, 2, 8, 29, 165, 90, 157, 86, 90, 165, 3, 0.443115
342, 3, wb, attraction, a-b-da, 2, 2, 8, 30, 163, 89, 90, 165, 165, 90, 1, 1.10282
342, 3, wb, attraction, a-b-da, 2, 2, 8, 30, 163, 89, 90, 165, 165, 90, 2, 0.841859
342, 3, wb, attraction, a-b-da, 5, 1, 8, 31, 135, 60, 132, 58, 60, 135, 3, 1.02957
342, 3, wb, attraction, a-b-da, 5, 1, 8, 31, 135, 60, 132, 58, 60, 135, 2, 0.675297
342, 3, wb, attraction, a-b-db, 9, 3, 8, 32, 120, 195, 114, 186, 195, 120, 2, 0.909507
342, 3, wb, attraction, a-b-db, 9, 3, 8, 32, 120, 195, 114, 186, 195, 120, 3, 0.559903
342, 3, wb, attraction, a-b-db, 14, 1, 8, 33, 60, 135, 135, 60, 56, 125, 3, 1.83908
342, 3, wb, attraction, a-b-db, 14, 1, 8, 33, 60, 135, 135, 60, 56, 125, 2, 0.539735
342, 3, wb, attraction, a-b-db, 14, 2, 8, 34, 90, 165, 165, 90, 83, 153, 3, 0.812196
342, 3, wb, attraction, a-b-db, 14, 2, 8, 34, 90, 165, 165, 90, 83, 153, 2, 1.22664
342, 3, wb, attraction, a-b-da, 9, 3, 8, 35, 186, 114, 195, 120, 120, 195, 3, 0.822841
342, 3, wb, attraction, a-b-da, 9, 3, 8, 35, 186, 114, 195, 120, 120, 195, 2, 0.84454
342, 3, wb, attraction, a-b-db, 9, 2, 8, 36, 86, 157, 90, 165, 165, 90, 1, 1.07228
342, 3, wb, attraction, a-b-db, 9, 2, 8, 36, 86, 157, 90, 165, 165, 90, 3, 0.619938
342, 3, wb, filler, NA, 999, 999, 8, 37, 59, 105, 66, 105, 115, 192, 1, 1.1849
342, 3, wb, filler, NA, 999, 999, 8, 37, 59, 105, 66, 105, 115, 192, 3, 0.656531
