sub_n, computer_n, bw_cond, effect, set, distance, diag, block_n, trial_n, h1, w1, h2, w2, h3, w3, choice, rt 
352, 3, wb, practice, NA, 999, 999, 0, 1, 192, 144, 130, 186, 114, 129, 3, 6.00436
352, 3, wb, practice, NA, 999, 999, 0, 1, 192, 144, 130, 186, 114, 129, 1, 4.76093
352, 3, wb, practice, NA, 999, 999, 0, 2, 124, 116, 170, 68, 77, 147, 3, 4.17098
352, 3, wb, practice, NA, 999, 999, 0, 2, 124, 116, 170, 68, 77, 147, 2, 3.38151
352, 3, wb, practice, NA, 999, 999, 0, 3, 130, 182, 194, 118, 142, 179, 1, 6.9661
352, 3, wb, practice, NA, 999, 999, 0, 3, 130, 182, 194, 118, 142, 179, 2, 3.11511
352, 3, wb, attraction, a-b-db, 2, 2, 1, 1, 165, 90, 89, 163, 90, 165, 2, 2.77054
352, 3, wb, attraction, a-b-db, 2, 2, 1, 1, 165, 90, 89, 163, 90, 165, 1, 2.10624
352, 3, wb, attraction, a-b-db, 2, 3, 1, 2, 120, 195, 119, 193, 195, 120, 3, 2.87564
352, 3, wb, attraction, a-b-db, 2, 3, 1, 2, 120, 195, 119, 193, 195, 120, 2, 0.726679
352, 3, wb, attraction, a-b-db, 5, 1, 1, 3, 58, 132, 60, 135, 135, 60, 1, 2.33504
352, 3, wb, attraction, a-b-db, 5, 1, 1, 3, 58, 132, 60, 135, 135, 60, 3, 1.36034
352, 3, wb, filler, NA, 999, 999, 1, 4, 122, 157, 67, 97, 87, 124, 2, 1.61516
352, 3, wb, filler, NA, 999, 999, 1, 4, 122, 157, 67, 97, 87, 124, 1, 1.04528
352, 3, wb, filler, NA, 999, 999, 1, 5, 159, 73, 98, 148, 175, 113, 1, 1.92086
352, 3, wb, filler, NA, 999, 999, 1, 5, 159, 73, 98, 148, 175, 113, 3, 0.48292
352, 3, wb, attraction, a-b-da, 5, 1, 1, 6, 135, 60, 60, 135, 132, 58, 3, 2.61344
352, 3, wb, attraction, a-b-da, 5, 1, 1, 6, 135, 60, 60, 135, 132, 58, 2, 1.1473
352, 3, wb, attraction, a-b-da, 14, 1, 1, 7, 125, 56, 60, 135, 135, 60, 3, 1.07483
352, 3, wb, attraction, a-b-da, 14, 1, 1, 7, 125, 56, 60, 135, 135, 60, 2, 0.646421
352, 3, wb, attraction, a-b-db, 9, 3, 1, 8, 114, 186, 195, 120, 120, 195, 1, 3.58612
352, 3, wb, attraction, a-b-db, 9, 3, 1, 8, 114, 186, 195, 120, 120, 195, 3, 0.905093
352, 3, wb, catch, NA, 999, 999, 1, 9, 132, 123, 63, 132, 171, 144, 1, 1.90662
352, 3, wb, catch, NA, 999, 999, 1, 9, 132, 123, 63, 132, 171, 144, 2, 0.497815
352, 3, wb, catch, NA, 999, 999, 1, 10, 195, 120, 103, 92, 107, 148, 2, 2.14258
352, 3, wb, catch, NA, 999, 999, 1, 10, 195, 120, 103, 92, 107, 148, 3, 0.711171
352, 3, wb, attraction, a-b-db, 9, 2, 1, 11, 90, 165, 86, 157, 165, 90, 2, 1.4402
352, 3, wb, attraction, a-b-db, 9, 2, 1, 11, 90, 165, 86, 157, 165, 90, 3, 2.09315
352, 3, wb, attraction, a-b-da, 5, 3, 1, 12, 190, 117, 195, 120, 120, 195, 2, 2.51831
352, 3, wb, attraction, a-b-da, 5, 3, 1, 12, 190, 117, 195, 120, 120, 195, 3, 1.2722
352, 3, wb, attraction, a-b-db, 14, 2, 1, 13, 90, 165, 83, 153, 165, 90, 1, 1.91507
352, 3, wb, attraction, a-b-db, 14, 2, 1, 13, 90, 165, 83, 153, 165, 90, 3, 0.837145
352, 3, wb, filler, NA, 999, 999, 1, 14, 89, 73, 152, 189, 157, 131, 1, 1.11357
352, 3, wb, filler, NA, 999, 999, 1, 14, 89, 73, 152, 189, 157, 131, 3, 0.675801
352, 3, wb, filler, NA, 999, 999, 1, 15, 79, 120, 100, 88, 170, 92, 1, 2.02215
352, 3, wb, filler, NA, 999, 999, 1, 15, 79, 120, 100, 88, 170, 92, 3, 1.17156
352, 3, wb, attraction, a-b-da, 14, 2, 1, 16, 165, 90, 153, 83, 90, 165, 2, 2.53841
352, 3, wb, attraction, a-b-da, 14, 2, 1, 16, 165, 90, 153, 83, 90, 165, 3, 4.08301
352, 3, wb, attraction, a-b-db, 5, 3, 1, 17, 195, 120, 120, 195, 117, 190, 1, 1.27633
352, 3, wb, attraction, a-b-db, 5, 3, 1, 17, 195, 120, 120, 195, 117, 190, 3, 0.543831
352, 3, wb, filler, NA, 999, 999, 1, 18, 145, 165, 127, 160, 79, 73, 3, 1.4077
352, 3, wb, filler, NA, 999, 999, 1, 18, 145, 165, 127, 160, 79, 73, 2, 0.58986
352, 3, wb, attraction, a-b-da, 9, 2, 1, 19, 165, 90, 90, 165, 157, 86, 3, 1.89956
352, 3, wb, attraction, a-b-da, 9, 2, 1, 19, 165, 90, 90, 165, 157, 86, 2, 6.96625
352, 3, wb, attraction, a-b-da, 9, 1, 1, 20, 129, 57, 60, 135, 135, 60, 2, 3.60344
352, 3, wb, attraction, a-b-da, 9, 1, 1, 20, 129, 57, 60, 135, 135, 60, 3, 1.56956
352, 3, wb, attraction, a-b-da, 2, 3, 1, 21, 193, 119, 195, 120, 120, 195, 1, 4.74449
352, 3, wb, attraction, a-b-da, 2, 3, 1, 21, 193, 119, 195, 120, 120, 195, 3, 2.08821
352, 3, wb, filler, NA, 999, 999, 1, 22, 91, 86, 190, 102, 69, 193, 1, 1.25007
352, 3, wb, filler, NA, 999, 999, 1, 22, 91, 86, 190, 102, 69, 193, 2, 1.96702
352, 3, wb, attraction, a-b-da, 5, 2, 1, 23, 161, 88, 165, 90, 90, 165, 1, 1.5976
352, 3, wb, attraction, a-b-da, 5, 2, 1, 23, 161, 88, 165, 90, 90, 165, 2, 1.24446
352, 3, wb, attraction, a-b-da, 14, 3, 1, 24, 195, 120, 181, 111, 120, 195, 1, 2.82397
352, 3, wb, attraction, a-b-da, 14, 3, 1, 24, 195, 120, 181, 111, 120, 195, 3, 1.38123
352, 3, wb, filler, NA, 999, 999, 1, 25, 161, 141, 139, 127, 70, 192, 1, 1.12341
352, 3, wb, filler, NA, 999, 999, 1, 25, 161, 141, 139, 127, 70, 192, 3, 2.35687
352, 3, wb, catch, NA, 999, 999, 1, 26, 149, 166, 99, 96, 140, 115, 2, 1.78011
352, 3, wb, catch, NA, 999, 999, 1, 26, 149, 166, 99, 96, 140, 115, 1, 3.01148
352, 3, wb, attraction, a-b-db, 14, 1, 1, 27, 135, 60, 60, 135, 56, 125, 3, 2.80798
352, 3, wb, attraction, a-b-db, 14, 1, 1, 27, 135, 60, 60, 135, 56, 125, 1, 1.35758
352, 3, wb, filler, NA, 999, 999, 1, 28, 185, 169, 127, 134, 87, 132, 3, 3.34854
352, 3, wb, filler, NA, 999, 999, 1, 28, 185, 169, 127, 134, 87, 132, 1, 4.10087
352, 3, wb, filler, NA, 999, 999, 1, 29, 87, 91, 160, 64, 156, 172, 2, 3.33354
352, 3, wb, filler, NA, 999, 999, 1, 29, 87, 91, 160, 64, 156, 172, 3, 2.0224
352, 3, wb, attraction, a-b-db, 2, 1, 1, 30, 60, 135, 135, 60, 59, 134, 1, 7.2191
352, 3, wb, attraction, a-b-db, 2, 1, 1, 30, 60, 135, 135, 60, 59, 134, 2, 1.89544
352, 3, wb, attraction, a-b-da, 9, 3, 1, 31, 195, 120, 120, 195, 186, 114, 2, 2.50466
352, 3, wb, attraction, a-b-da, 9, 3, 1, 31, 195, 120, 120, 195, 186, 114, 3, 2.67538
352, 3, wb, filler, NA, 999, 999, 1, 32, 115, 91, 149, 155, 96, 174, 1, 1.62106
352, 3, wb, filler, NA, 999, 999, 1, 32, 115, 91, 149, 155, 96, 174, 2, 8.73915
352, 3, wb, attraction, a-b-da, 2, 2, 1, 33, 163, 89, 165, 90, 90, 165, 1, 3.22498
352, 3, wb, attraction, a-b-da, 2, 2, 1, 33, 163, 89, 165, 90, 90, 165, 3, 1.28597
352, 3, wb, attraction, a-b-db, 5, 2, 1, 34, 165, 90, 90, 165, 88, 161, 1, 3.80012
352, 3, wb, attraction, a-b-db, 5, 2, 1, 34, 165, 90, 90, 165, 88, 161, 2, 2.67039
352, 3, wb, attraction, a-b-db, 9, 1, 1, 35, 135, 60, 57, 129, 60, 135, 2, 1.84878
352, 3, wb, attraction, a-b-db, 9, 1, 1, 35, 135, 60, 57, 129, 60, 135, 1, 0.933517
352, 3, wb, attraction, a-b-da, 2, 1, 1, 36, 135, 60, 60, 135, 134, 59, 3, 1.70183
352, 3, wb, attraction, a-b-da, 2, 1, 1, 36, 135, 60, 60, 135, 134, 59, 2, 2.78472
352, 3, wb, attraction, a-b-db, 14, 3, 1, 37, 111, 181, 195, 120, 120, 195, 1, 1.52645
352, 3, wb, attraction, a-b-db, 14, 3, 1, 37, 111, 181, 195, 120, 120, 195, 2, 15.9438
352, 3, wb, attraction, a-b-db, 14, 3, 2, 1, 195, 120, 111, 181, 120, 195, 2, 8.08342
352, 3, wb, attraction, a-b-db, 14, 3, 2, 1, 195, 120, 111, 181, 120, 195, 3, 1.30097
352, 3, wb, filler, NA, 999, 999, 2, 2, 106, 129, 168, 82, 144, 112, 1, 5.78255
352, 3, wb, filler, NA, 999, 999, 2, 2, 106, 129, 168, 82, 144, 112, 3, 1.42874
352, 3, wb, attraction, a-b-da, 14, 1, 2, 3, 135, 60, 125, 56, 60, 135, 2, 7.55277
352, 3, wb, attraction, a-b-da, 14, 1, 2, 3, 135, 60, 125, 56, 60, 135, 3, 1.40769
352, 3, wb, catch, NA, 999, 999, 2, 4, 72, 123, 162, 93, 141, 174, 1, 6.16454
352, 3, wb, catch, NA, 999, 999, 2, 4, 72, 123, 162, 93, 141, 174, 3, 1.47528
352, 3, wb, attraction, a-b-db, 9, 3, 2, 5, 114, 186, 120, 195, 195, 120, 1, 4.05343
352, 3, wb, attraction, a-b-db, 9, 3, 2, 5, 114, 186, 120, 195, 195, 120, 3, 3.89772
352, 3, wb, catch, NA, 999, 999, 2, 6, 82, 113, 111, 144, 121, 194, 1, 1.22614
352, 3, wb, catch, NA, 999, 999, 2, 6, 82, 113, 111, 144, 121, 194, 3, 0.935816
352, 3, wb, attraction, a-b-da, 14, 3, 2, 7, 120, 195, 181, 111, 195, 120, 2, 6.06402
352, 3, wb, attraction, a-b-da, 14, 3, 2, 7, 120, 195, 181, 111, 195, 120, 3, 1.2588
352, 3, wb, attraction, a-b-db, 9, 2, 2, 8, 86, 157, 165, 90, 90, 165, 1, 3.14967
352, 3, wb, attraction, a-b-db, 9, 2, 2, 8, 86, 157, 165, 90, 90, 165, 3, 3.44602
352, 3, wb, filler, NA, 999, 999, 2, 9, 75, 86, 99, 160, 148, 77, 1, 1.66497
352, 3, wb, filler, NA, 999, 999, 2, 9, 75, 86, 99, 160, 148, 77, 2, 7.74106
352, 3, wb, attraction, a-b-da, 9, 1, 2, 10, 129, 57, 135, 60, 60, 135, 3, 3.31547
352, 3, wb, attraction, a-b-da, 9, 1, 2, 10, 129, 57, 135, 60, 60, 135, 2, 1.86084
352, 3, wb, filler, NA, 999, 999, 2, 11, 71, 109, 57, 161, 164, 96, 1, 3.80754
352, 3, wb, filler, NA, 999, 999, 2, 11, 71, 109, 57, 161, 164, 96, 2, 1.35476
352, 3, wb, attraction, a-b-db, 2, 3, 2, 12, 120, 195, 195, 120, 119, 193, 1, 1.72445
352, 3, wb, attraction, a-b-db, 2, 3, 2, 12, 120, 195, 195, 120, 119, 193, 2, 1.76588
352, 3, wb, attraction, a-b-da, 9, 2, 2, 13, 157, 86, 165, 90, 90, 165, 1, 2.97259
352, 3, wb, attraction, a-b-da, 9, 2, 2, 13, 157, 86, 165, 90, 90, 165, 2, 4.99576
352, 3, wb, catch, NA, 999, 999, 2, 14, 128, 67, 129, 126, 170, 145, 1, 1.12009
352, 3, wb, catch, NA, 999, 999, 2, 14, 128, 67, 129, 126, 170, 145, 3, 1.1784
352, 3, wb, attraction, a-b-db, 14, 2, 2, 15, 83, 153, 165, 90, 90, 165, 1, 3.96058
352, 3, wb, attraction, a-b-db, 14, 2, 2, 15, 83, 153, 165, 90, 90, 165, 2, 0.912027
352, 3, wb, attraction, a-b-db, 2, 2, 2, 16, 90, 165, 165, 90, 89, 163, 2, 7.23301
352, 3, wb, attraction, a-b-db, 2, 2, 2, 16, 90, 165, 165, 90, 89, 163, 1, 9.84477
352, 3, wb, filler, NA, 999, 999, 2, 17, 105, 171, 69, 191, 179, 59, 3, 1.41355
352, 3, wb, filler, NA, 999, 999, 2, 17, 105, 171, 69, 191, 179, 59, 1, 1.19579
352, 3, wb, attraction, a-b-da, 9, 3, 2, 18, 195, 120, 120, 195, 186, 114, 1, 3.70529
352, 3, wb, attraction, a-b-da, 9, 3, 2, 18, 195, 120, 120, 195, 186, 114, 2, 0.962905
352, 3, wb, attraction, a-b-da, 2, 1, 2, 19, 60, 135, 135, 60, 134, 59, 3, 3.85784
352, 3, wb, attraction, a-b-da, 2, 1, 2, 19, 60, 135, 135, 60, 134, 59, 2, 1.18921
352, 3, wb, attraction, a-b-da, 2, 2, 2, 20, 163, 89, 165, 90, 90, 165, 1, 4.17142
352, 3, wb, attraction, a-b-da, 2, 2, 2, 20, 163, 89, 165, 90, 90, 165, 3, 3.09082
352, 3, wb, attraction, a-b-da, 14, 2, 2, 21, 165, 90, 153, 83, 90, 165, 1, 3.34773
352, 3, wb, attraction, a-b-da, 14, 2, 2, 21, 165, 90, 153, 83, 90, 165, 3, 10.116
352, 3, wb, attraction, a-b-da, 5, 2, 2, 22, 90, 165, 161, 88, 165, 90, 3, 4.2342
352, 3, wb, attraction, a-b-da, 5, 2, 2, 22, 90, 165, 161, 88, 165, 90, 1, 2.37484
352, 3, wb, filler, NA, 999, 999, 2, 23, 128, 149, 163, 175, 94, 170, 3, 5.38063
352, 3, wb, filler, NA, 999, 999, 2, 23, 128, 149, 163, 175, 94, 170, 2, 1.57894
352, 3, wb, filler, NA, 999, 999, 2, 24, 144, 195, 120, 139, 110, 97, 3, 1.16097
352, 3, wb, filler, NA, 999, 999, 2, 24, 144, 195, 120, 139, 110, 97, 2, 1.3293
352, 3, wb, filler, NA, 999, 999, 2, 25, 100, 129, 112, 134, 85, 131, 3, 2.14547
352, 3, wb, filler, NA, 999, 999, 2, 25, 100, 129, 112, 134, 85, 131, 2, 4.65829
352, 3, wb, attraction, a-b-db, 9, 1, 2, 26, 60, 135, 135, 60, 57, 129, 3, 2.46798
352, 3, wb, attraction, a-b-db, 9, 1, 2, 26, 60, 135, 135, 60, 57, 129, 2, 1.39994
352, 3, wb, attraction, a-b-da, 2, 3, 2, 27, 195, 120, 193, 119, 120, 195, 1, 2.27746
352, 3, wb, attraction, a-b-da, 2, 3, 2, 27, 195, 120, 193, 119, 120, 195, 2, 0.456589
352, 3, wb, filler, NA, 999, 999, 2, 28, 79, 184, 156, 132, 165, 63, 3, 1.10043
352, 3, wb, filler, NA, 999, 999, 2, 28, 79, 184, 156, 132, 165, 63, 2, 1.02347
352, 3, wb, attraction, a-b-db, 14, 1, 2, 29, 60, 135, 135, 60, 56, 125, 3, 2.25968
352, 3, wb, attraction, a-b-db, 14, 1, 2, 29, 60, 135, 135, 60, 56, 125, 2, 0.911612
352, 3, wb, attraction, a-b-db, 5, 2, 2, 30, 90, 165, 165, 90, 88, 161, 1, 2.40054
352, 3, wb, attraction, a-b-db, 5, 2, 2, 30, 90, 165, 165, 90, 88, 161, 2, 0.847115
352, 3, wb, attraction, a-b-db, 2, 1, 2, 31, 135, 60, 60, 135, 59, 134, 1, 1.78693
352, 3, wb, attraction, a-b-db, 2, 1, 2, 31, 135, 60, 60, 135, 59, 134, 2, 1.2022
352, 3, wb, attraction, a-b-da, 5, 3, 2, 32, 120, 195, 190, 117, 195, 120, 1, 2.47172
352, 3, wb, attraction, a-b-da, 5, 3, 2, 32, 120, 195, 190, 117, 195, 120, 2, 0.78773
352, 3, wb, filler, NA, 999, 999, 2, 33, 96, 176, 126, 149, 174, 72, 3, 2.89808
352, 3, wb, filler, NA, 999, 999, 2, 33, 96, 176, 126, 149, 174, 72, 2, 1.06851
352, 3, wb, filler, NA, 999, 999, 2, 34, 108, 95, 148, 176, 106, 81, 1, 4.59941
352, 3, wb, filler, NA, 999, 999, 2, 34, 108, 95, 148, 176, 106, 81, 2, 0.741285
352, 3, wb, attraction, a-b-da, 5, 1, 2, 35, 60, 135, 132, 58, 135, 60, 3, 3.86907
352, 3, wb, attraction, a-b-da, 5, 1, 2, 35, 60, 135, 132, 58, 135, 60, 2, 0.872499
352, 3, wb, attraction, a-b-db, 5, 1, 2, 36, 60, 135, 58, 132, 135, 60, 3, 4.25944
352, 3, wb, attraction, a-b-db, 5, 1, 2, 36, 60, 135, 58, 132, 135, 60, 2, 0.710732
352, 3, wb, attraction, a-b-db, 5, 3, 2, 37, 117, 190, 195, 120, 120, 195, 1, 4.77578
352, 3, wb, attraction, a-b-db, 5, 3, 2, 37, 117, 190, 195, 120, 120, 195, 2, 0.798211
352, 3, wb, catch, NA, 999, 999, 3, 1, 160, 155, 98, 97, 162, 93, 2, 1.3479
352, 3, wb, catch, NA, 999, 999, 3, 1, 160, 155, 98, 97, 162, 93, 1, 0.988861
352, 3, wb, attraction, a-b-da, 5, 1, 3, 2, 132, 58, 135, 60, 60, 135, 1, 2.51508
352, 3, wb, attraction, a-b-da, 5, 1, 3, 2, 132, 58, 135, 60, 60, 135, 2, 0.797057
352, 3, wb, filler, NA, 999, 999, 3, 3, 174, 154, 91, 185, 185, 149, 1, 5.28271
352, 3, wb, filler, NA, 999, 999, 3, 3, 174, 154, 91, 185, 185, 149, 2, 0.901068
352, 3, wb, filler, NA, 999, 999, 3, 4, 74, 154, 120, 167, 135, 191, 1, 1.95864
352, 3, wb, filler, NA, 999, 999, 3, 4, 74, 154, 120, 167, 135, 191, 2, 1.07071
352, 3, wb, filler, NA, 999, 999, 3, 5, 71, 131, 81, 60, 97, 119, 2, 3.41761
352, 3, wb, filler, NA, 999, 999, 3, 5, 71, 131, 81, 60, 97, 119, 3, 2.99125
352, 3, wb, filler, NA, 999, 999, 3, 6, 90, 131, 164, 114, 136, 127, 1, 1.54033
352, 3, wb, filler, NA, 999, 999, 3, 6, 90, 131, 164, 114, 136, 127, 2, 0.685104
352, 3, wb, attraction, a-b-db, 2, 1, 3, 7, 59, 134, 135, 60, 60, 135, 1, 4.01542
352, 3, wb, attraction, a-b-db, 2, 1, 3, 7, 59, 134, 135, 60, 60, 135, 2, 0.804783
352, 3, wb, attraction, a-b-da, 9, 1, 3, 8, 135, 60, 60, 135, 129, 57, 1, 2.95442
352, 3, wb, attraction, a-b-da, 9, 1, 3, 8, 135, 60, 60, 135, 129, 57, 2, 0.866951
352, 3, wb, attraction, a-b-da, 5, 3, 3, 9, 190, 117, 120, 195, 195, 120, 1, 3.10993
352, 3, wb, attraction, a-b-da, 5, 3, 3, 9, 190, 117, 120, 195, 195, 120, 2, 0.911536
352, 3, wb, attraction, a-b-db, 2, 2, 3, 10, 89, 163, 165, 90, 90, 165, 1, 5.13647
352, 3, wb, attraction, a-b-db, 2, 2, 3, 10, 89, 163, 165, 90, 90, 165, 2, 1.64104
352, 3, wb, attraction, a-b-da, 5, 2, 3, 11, 165, 90, 161, 88, 90, 165, 1, 1.57236
352, 3, wb, attraction, a-b-da, 5, 2, 3, 11, 165, 90, 161, 88, 90, 165, 2, 1.66778
352, 3, wb, attraction, a-b-da, 2, 1, 3, 12, 135, 60, 60, 135, 134, 59, 1, 6.83856
352, 3, wb, attraction, a-b-da, 2, 1, 3, 12, 135, 60, 60, 135, 134, 59, 2, 3.56246
352, 3, wb, catch, NA, 999, 999, 3, 13, 125, 130, 84, 111, 123, 192, 2, 2.46464
352, 3, wb, catch, NA, 999, 999, 3, 13, 125, 130, 84, 111, 123, 192, 3, 2.18053
352, 3, wb, attraction, a-b-db, 14, 1, 3, 14, 135, 60, 56, 125, 60, 135, 1, 9.65844
352, 3, wb, attraction, a-b-db, 14, 1, 3, 14, 135, 60, 56, 125, 60, 135, 2, 1.06008
352, 3, wb, attraction, a-b-db, 5, 2, 3, 15, 88, 161, 90, 165, 165, 90, 3, 5.32714
352, 3, wb, attraction, a-b-db, 5, 2, 3, 15, 88, 161, 90, 165, 165, 90, 2, 0.975253
352, 3, wb, attraction, a-b-db, 5, 3, 3, 16, 195, 120, 120, 195, 117, 190, 1, 8.17362
352, 3, wb, attraction, a-b-db, 5, 3, 3, 16, 195, 120, 120, 195, 117, 190, 2, 0.947669
352, 3, wb, filler, NA, 999, 999, 3, 17, 119, 139, 162, 116, 75, 137, 3, 1.33125
352, 3, wb, filler, NA, 999, 999, 3, 17, 119, 139, 162, 116, 75, 137, 2, 0.900858
352, 3, wb, attraction, a-b-db, 2, 3, 3, 18, 120, 195, 119, 193, 195, 120, 3, 1.93451
352, 3, wb, attraction, a-b-db, 2, 3, 3, 18, 120, 195, 119, 193, 195, 120, 2, 0.583862
352, 3, wb, attraction, a-b-da, 2, 2, 3, 19, 163, 89, 165, 90, 90, 165, 1, 1.06237
352, 3, wb, attraction, a-b-da, 2, 2, 3, 19, 163, 89, 165, 90, 90, 165, 2, 0.938633
352, 3, wb, attraction, a-b-da, 9, 3, 3, 20, 195, 120, 120, 195, 186, 114, 1, 2.01893
352, 3, wb, attraction, a-b-da, 9, 3, 3, 20, 195, 120, 120, 195, 186, 114, 2, 8.24097
352, 3, wb, attraction, a-b-da, 14, 1, 3, 21, 125, 56, 135, 60, 60, 135, 1, 1.9149
352, 3, wb, attraction, a-b-da, 14, 1, 3, 21, 125, 56, 135, 60, 60, 135, 2, 0.885013
352, 3, wb, attraction, a-b-db, 9, 3, 3, 22, 114, 186, 195, 120, 120, 195, 1, 2.0713
352, 3, wb, attraction, a-b-db, 9, 3, 3, 22, 114, 186, 195, 120, 120, 195, 2, 0.891414
352, 3, wb, attraction, a-b-da, 14, 3, 3, 23, 195, 120, 120, 195, 181, 111, 1, 2.42102
352, 3, wb, attraction, a-b-da, 14, 3, 3, 23, 195, 120, 120, 195, 181, 111, 2, 1.09092
352, 3, wb, attraction, a-b-db, 14, 2, 3, 24, 83, 153, 165, 90, 90, 165, 1, 3.40443
352, 3, wb, attraction, a-b-db, 14, 2, 3, 24, 83, 153, 165, 90, 90, 165, 2, 1.26671
352, 3, wb, attraction, a-b-da, 2, 3, 3, 25, 193, 119, 195, 120, 120, 195, 1, 1.66962
352, 3, wb, attraction, a-b-da, 2, 3, 3, 25, 193, 119, 195, 120, 120, 195, 2, 1.18572
352, 3, wb, attraction, a-b-da, 9, 2, 3, 26, 90, 165, 157, 86, 165, 90, 3, 3.07194
352, 3, wb, attraction, a-b-da, 9, 2, 3, 26, 90, 165, 157, 86, 165, 90, 2, 0.8116
352, 3, wb, filler, NA, 999, 999, 3, 27, 184, 79, 111, 129, 137, 88, 3, 5.04866
352, 3, wb, filler, NA, 999, 999, 3, 27, 184, 79, 111, 129, 137, 88, 2, 1.65247
352, 3, wb, attraction, a-b-db, 9, 2, 3, 28, 165, 90, 90, 165, 86, 157, 1, 14.0559
352, 3, wb, attraction, a-b-db, 9, 2, 3, 28, 165, 90, 90, 165, 86, 157, 2, 1.01675
352, 3, wb, filler, NA, 999, 999, 3, 29, 69, 90, 70, 90, 76, 159, 1, 5.65382
352, 3, wb, filler, NA, 999, 999, 3, 29, 69, 90, 70, 90, 76, 159, 2, 2.36919
352, 3, wb, filler, NA, 999, 999, 3, 30, 94, 120, 109, 186, 127, 178, 1, 1.65586
352, 3, wb, filler, NA, 999, 999, 3, 30, 94, 120, 109, 186, 127, 178, 2, 6.156
352, 3, wb, attraction, a-b-db, 5, 1, 3, 31, 135, 60, 58, 132, 60, 135, 3, 3.46589
352, 3, wb, attraction, a-b-db, 5, 1, 3, 31, 135, 60, 58, 132, 60, 135, 2, 2.66157
352, 3, wb, filler, NA, 999, 999, 3, 32, 181, 195, 71, 126, 157, 169, 2, 1.65605
352, 3, wb, filler, NA, 999, 999, 3, 32, 181, 195, 71, 126, 157, 169, 3, 3.37208
352, 3, wb, attraction, a-b-db, 14, 3, 3, 33, 195, 120, 111, 181, 120, 195, 2, 1.61023
352, 3, wb, attraction, a-b-db, 14, 3, 3, 33, 195, 120, 111, 181, 120, 195, 3, 1.23242
352, 3, wb, attraction, a-b-db, 9, 1, 3, 34, 135, 60, 57, 129, 60, 135, 3, 4.27666
352, 3, wb, attraction, a-b-db, 9, 1, 3, 34, 135, 60, 57, 129, 60, 135, 1, 1.8553
352, 3, wb, catch, NA, 999, 999, 3, 35, 89, 106, 97, 158, 158, 157, 1, 1.75456
352, 3, wb, catch, NA, 999, 999, 3, 35, 89, 106, 97, 158, 158, 157, 3, 1.36336
352, 3, wb, attraction, a-b-da, 14, 2, 3, 36, 153, 83, 90, 165, 165, 90, 1, 2.81818
352, 3, wb, attraction, a-b-da, 14, 2, 3, 36, 153, 83, 90, 165, 165, 90, 3, 2.11201
352, 3, wb, filler, NA, 999, 999, 3, 37, 181, 162, 101, 90, 66, 60, 3, 1.6086
352, 3, wb, filler, NA, 999, 999, 3, 37, 181, 162, 101, 90, 66, 60, 1, 1.7027
352, 3, wb, filler, NA, 999, 999, 4, 1, 190, 65, 150, 107, 69, 107, 3, 3.82431
352, 3, wb, filler, NA, 999, 999, 4, 1, 190, 65, 150, 107, 69, 107, 2, 1.12487
352, 3, wb, attraction, a-b-db, 9, 2, 4, 2, 86, 157, 90, 165, 165, 90, 3, 8.06914
352, 3, wb, attraction, a-b-db, 9, 2, 4, 2, 86, 157, 90, 165, 165, 90, 2, 0.647227
352, 3, wb, attraction, a-b-da, 14, 3, 4, 3, 181, 111, 120, 195, 195, 120, 1, 2.30708
352, 3, wb, attraction, a-b-da, 14, 3, 4, 3, 181, 111, 120, 195, 195, 120, 2, 0.836907
352, 3, wb, attraction, a-b-db, 14, 2, 4, 4, 165, 90, 90, 165, 83, 153, 1, 2.7853
352, 3, wb, attraction, a-b-db, 14, 2, 4, 4, 165, 90, 90, 165, 83, 153, 2, 0.792362
352, 3, wb, attraction, a-b-da, 5, 2, 4, 5, 161, 88, 90, 165, 165, 90, 3, 1.22213
352, 3, wb, attraction, a-b-da, 5, 2, 4, 5, 161, 88, 90, 165, 165, 90, 2, 0.939715
352, 3, wb, attraction, a-b-da, 14, 1, 4, 6, 60, 135, 135, 60, 125, 56, 3, 2.47597
352, 3, wb, attraction, a-b-da, 14, 1, 4, 6, 60, 135, 135, 60, 125, 56, 2, 1.7112
352, 3, wb, catch, NA, 999, 999, 4, 7, 126, 129, 152, 163, 127, 68, 3, 1.08796
352, 3, wb, catch, NA, 999, 999, 4, 7, 126, 129, 152, 163, 127, 68, 2, 0.755012
352, 3, wb, filler, NA, 999, 999, 4, 8, 146, 103, 156, 126, 189, 159, 1, 1.58671
352, 3, wb, filler, NA, 999, 999, 4, 8, 146, 103, 156, 126, 189, 159, 3, 0.970093
352, 3, wb, attraction, a-b-db, 9, 1, 4, 9, 60, 135, 135, 60, 57, 129, 3, 2.24903
352, 3, wb, attraction, a-b-db, 9, 1, 4, 9, 60, 135, 135, 60, 57, 129, 2, 1.11768
352, 3, wb, attraction, a-b-da, 2, 2, 4, 10, 165, 90, 90, 165, 163, 89, 3, 3.28657
352, 3, wb, attraction, a-b-da, 2, 2, 4, 10, 165, 90, 90, 165, 163, 89, 2, 0.777659
352, 3, wb, attraction, a-b-db, 2, 3, 4, 11, 119, 193, 120, 195, 195, 120, 3, 1.53587
352, 3, wb, attraction, a-b-db, 2, 3, 4, 11, 119, 193, 120, 195, 195, 120, 2, 0.481404
352, 3, wb, filler, NA, 999, 999, 4, 12, 152, 184, 56, 73, 94, 100, 2, 1.05187
352, 3, wb, filler, NA, 999, 999, 4, 12, 152, 184, 56, 73, 94, 100, 3, 1.93682
352, 3, wb, catch, NA, 999, 999, 4, 13, 134, 181, 95, 100, 134, 121, 2, 0.888796
352, 3, wb, catch, NA, 999, 999, 4, 13, 134, 181, 95, 100, 134, 121, 1, 1.21989
352, 3, wb, filler, NA, 999, 999, 4, 14, 152, 97, 173, 57, 195, 109, 2, 3.28872
352, 3, wb, filler, NA, 999, 999, 4, 14, 152, 97, 173, 57, 195, 109, 3, 1.44376
352, 3, wb, attraction, a-b-db, 2, 2, 4, 15, 89, 163, 165, 90, 90, 165, 2, 2.9832
352, 3, wb, attraction, a-b-db, 2, 2, 4, 15, 89, 163, 165, 90, 90, 165, 3, 1.22233
352, 3, wb, filler, NA, 999, 999, 4, 16, 123, 57, 143, 58, 79, 173, 1, 5.32313
352, 3, wb, filler, NA, 999, 999, 4, 16, 123, 57, 143, 58, 79, 173, 3, 1.64348
352, 3, wb, attraction, a-b-db, 14, 1, 4, 17, 60, 135, 135, 60, 56, 125, 3, 4.45485
352, 3, wb, attraction, a-b-db, 14, 1, 4, 17, 60, 135, 135, 60, 56, 125, 2, 1.19476
352, 3, wb, attraction, a-b-da, 2, 3, 4, 18, 193, 119, 195, 120, 120, 195, 1, 12.4724
352, 3, wb, attraction, a-b-da, 2, 3, 4, 18, 193, 119, 195, 120, 120, 195, 3, 0.785126
352, 3, wb, attraction, a-b-db, 14, 3, 4, 19, 195, 120, 111, 181, 120, 195, 2, 2.07149
352, 3, wb, attraction, a-b-db, 14, 3, 4, 19, 195, 120, 111, 181, 120, 195, 1, 0.747475
352, 3, wb, attraction, a-b-da, 5, 1, 4, 20, 60, 135, 132, 58, 135, 60, 2, 2.54719
352, 3, wb, attraction, a-b-da, 5, 1, 4, 20, 60, 135, 132, 58, 135, 60, 3, 1.1078
352, 3, wb, catch, NA, 999, 999, 4, 21, 102, 153, 168, 147, 68, 127, 3, 2.62061
352, 3, wb, catch, NA, 999, 999, 4, 21, 102, 153, 168, 147, 68, 127, 2, 0.754432
352, 3, wb, filler, NA, 999, 999, 4, 22, 76, 105, 92, 65, 147, 117, 2, 2.12208
352, 3, wb, filler, NA, 999, 999, 4, 22, 76, 105, 92, 65, 147, 117, 3, 0.651434
352, 3, wb, attraction, a-b-da, 2, 1, 4, 23, 60, 135, 135, 60, 134, 59, 2, 1.7992
352, 3, wb, attraction, a-b-da, 2, 1, 4, 23, 60, 135, 135, 60, 134, 59, 3, 1.33394
352, 3, wb, attraction, a-b-da, 9, 1, 4, 24, 135, 60, 129, 57, 60, 135, 1, 1.03806
352, 3, wb, attraction, a-b-da, 9, 1, 4, 24, 135, 60, 129, 57, 60, 135, 3, 2.13988
352, 3, wb, attraction, a-b-da, 14, 2, 4, 25, 165, 90, 153, 83, 90, 165, 1, 2.73971
352, 3, wb, attraction, a-b-da, 14, 2, 4, 25, 165, 90, 153, 83, 90, 165, 3, 1.47623
352, 3, wb, attraction, a-b-db, 9, 3, 4, 26, 195, 120, 114, 186, 120, 195, 1, 1.34242
352, 3, wb, attraction, a-b-db, 9, 3, 4, 26, 195, 120, 114, 186, 120, 195, 2, 1.28722
352, 3, wb, filler, NA, 999, 999, 4, 27, 123, 146, 109, 149, 130, 140, 3, 2.08154
352, 3, wb, filler, NA, 999, 999, 4, 27, 123, 146, 109, 149, 130, 140, 2, 0.780743
352, 3, wb, filler, NA, 999, 999, 4, 28, 70, 72, 141, 161, 56, 133, 1, 2.21908
352, 3, wb, filler, NA, 999, 999, 4, 28, 70, 72, 141, 161, 56, 133, 2, 0.569074
352, 3, wb, attraction, a-b-da, 9, 2, 4, 29, 157, 86, 90, 165, 165, 90, 3, 1.49609
352, 3, wb, attraction, a-b-da, 9, 2, 4, 29, 157, 86, 90, 165, 165, 90, 2, 0.626958
352, 3, wb, attraction, a-b-db, 5, 1, 4, 30, 135, 60, 60, 135, 58, 132, 1, 0.999384
352, 3, wb, attraction, a-b-db, 5, 1, 4, 30, 135, 60, 60, 135, 58, 132, 2, 0.854352
352, 3, wb, filler, NA, 999, 999, 4, 31, 133, 184, 102, 117, 193, 194, 2, 1.5141
352, 3, wb, filler, NA, 999, 999, 4, 31, 133, 184, 102, 117, 193, 194, 3, 1.55624
352, 3, wb, attraction, a-b-db, 5, 2, 4, 32, 165, 90, 90, 165, 88, 161, 1, 3.02769
352, 3, wb, attraction, a-b-db, 5, 2, 4, 32, 165, 90, 90, 165, 88, 161, 2, 2.01675
352, 3, wb, attraction, a-b-da, 9, 3, 4, 33, 120, 195, 195, 120, 186, 114, 1, 2.78141
352, 3, wb, attraction, a-b-da, 9, 3, 4, 33, 120, 195, 195, 120, 186, 114, 2, 0.740496
352, 3, wb, attraction, a-b-db, 2, 1, 4, 34, 135, 60, 59, 134, 60, 135, 1, 1.58813
352, 3, wb, attraction, a-b-db, 2, 1, 4, 34, 135, 60, 59, 134, 60, 135, 2, 0.819
352, 3, wb, attraction, a-b-db, 5, 3, 4, 35, 117, 190, 195, 120, 120, 195, 1, 0.98401
352, 3, wb, attraction, a-b-db, 5, 3, 4, 35, 117, 190, 195, 120, 120, 195, 2, 1.04782
352, 3, wb, filler, NA, 999, 999, 4, 36, 148, 91, 102, 143, 89, 80, 3, 1.58729
352, 3, wb, filler, NA, 999, 999, 4, 36, 148, 91, 102, 143, 89, 80, 2, 1.13874
352, 3, wb, attraction, a-b-da, 5, 3, 4, 37, 195, 120, 120, 195, 190, 117, 1, 0.755011
352, 3, wb, attraction, a-b-da, 5, 3, 4, 37, 195, 120, 120, 195, 190, 117, 2, 1.75556
352, 3, wb, filler, NA, 999, 999, 5, 1, 94, 98, 58, 65, 120, 116, 2, 5.35274
352, 3, wb, filler, NA, 999, 999, 5, 1, 94, 98, 58, 65, 120, 116, 3, 1.32844
352, 3, wb, filler, NA, 999, 999, 5, 2, 122, 187, 125, 121, 84, 169, 2, 2.54466
352, 3, wb, filler, NA, 999, 999, 5, 2, 122, 187, 125, 121, 84, 169, 1, 0.593253
352, 3, wb, attraction, a-b-da, 2, 2, 5, 3, 90, 165, 163, 89, 165, 90, 2, 2.13483
352, 3, wb, attraction, a-b-da, 2, 2, 5, 3, 90, 165, 163, 89, 165, 90, 3, 1.24015
352, 3, wb, filler, NA, 999, 999, 5, 4, 179, 108, 63, 97, 83, 70, 3, 1.15565
352, 3, wb, filler, NA, 999, 999, 5, 4, 179, 108, 63, 97, 83, 70, 1, 1.38794
352, 3, wb, attraction, a-b-db, 9, 2, 5, 5, 90, 165, 165, 90, 86, 157, 2, 1.57021
352, 3, wb, attraction, a-b-db, 9, 2, 5, 5, 90, 165, 165, 90, 86, 157, 3, 1.68238
352, 3, wb, catch, NA, 999, 999, 5, 6, 118, 77, 141, 174, 112, 143, 1, 0.916386
352, 3, wb, catch, NA, 999, 999, 5, 6, 118, 77, 141, 174, 112, 143, 2, 0.622791
352, 3, wb, attraction, a-b-da, 5, 2, 5, 7, 161, 88, 165, 90, 90, 165, 1, 1.44385
352, 3, wb, attraction, a-b-da, 5, 2, 5, 7, 161, 88, 165, 90, 90, 165, 2, 1.08071
352, 3, wb, filler, NA, 999, 999, 5, 8, 117, 63, 73, 77, 105, 131, 2, 1.47505
352, 3, wb, filler, NA, 999, 999, 5, 8, 117, 63, 73, 77, 105, 131, 3, 0.862646
352, 3, wb, filler, NA, 999, 999, 5, 9, 114, 147, 56, 166, 92, 191, 2, 2.00154
352, 3, wb, filler, NA, 999, 999, 5, 9, 114, 147, 56, 166, 92, 191, 1, 0.880273
352, 3, wb, attraction, a-b-db, 5, 1, 5, 10, 135, 60, 58, 132, 60, 135, 1, 1.29051
352, 3, wb, attraction, a-b-db, 5, 1, 5, 10, 135, 60, 58, 132, 60, 135, 2, 0.805552
352, 3, wb, attraction, a-b-da, 5, 1, 5, 11, 132, 58, 60, 135, 135, 60, 1, 0.8191
352, 3, wb, attraction, a-b-da, 5, 1, 5, 11, 132, 58, 60, 135, 135, 60, 2, 0.593524
352, 3, wb, catch, NA, 999, 999, 5, 12, 130, 65, 161, 154, 92, 163, 1, 0.767288
352, 3, wb, catch, NA, 999, 999, 5, 12, 130, 65, 161, 154, 92, 163, 2, 0.823695
352, 3, wb, attraction, a-b-da, 14, 1, 5, 13, 60, 135, 125, 56, 135, 60, 1, 1.01195
352, 3, wb, attraction, a-b-da, 14, 1, 5, 13, 60, 135, 125, 56, 135, 60, 2, 0.92229
352, 3, wb, attraction, a-b-da, 9, 3, 5, 14, 186, 114, 120, 195, 195, 120, 1, 0.691402
352, 3, wb, attraction, a-b-da, 9, 3, 5, 14, 186, 114, 120, 195, 195, 120, 2, 0.534359
352, 3, wb, attraction, a-b-db, 5, 2, 5, 15, 88, 161, 165, 90, 90, 165, 1, 0.646792
352, 3, wb, attraction, a-b-db, 5, 2, 5, 15, 88, 161, 165, 90, 90, 165, 2, 0.635906
352, 3, wb, attraction, a-b-da, 14, 3, 5, 16, 195, 120, 120, 195, 181, 111, 1, 0.544278
352, 3, wb, attraction, a-b-da, 14, 3, 5, 16, 195, 120, 120, 195, 181, 111, 2, 1.48944
352, 3, wb, filler, NA, 999, 999, 5, 17, 71, 192, 172, 96, 119, 161, 1, 1.21166
352, 3, wb, filler, NA, 999, 999, 5, 17, 71, 192, 172, 96, 119, 161, 2, 0.418047
352, 3, wb, attraction, a-b-da, 5, 3, 5, 18, 195, 120, 190, 117, 120, 195, 1, 0.7671
352, 3, wb, attraction, a-b-da, 5, 3, 5, 18, 195, 120, 190, 117, 120, 195, 2, 0.591388
352, 3, wb, attraction, a-b-db, 14, 2, 5, 19, 90, 165, 83, 153, 165, 90, 3, 1.26113
352, 3, wb, attraction, a-b-db, 14, 2, 5, 19, 90, 165, 83, 153, 165, 90, 2, 0.801402
352, 3, wb, catch, NA, 999, 999, 5, 20, 90, 105, 183, 132, 130, 125, 1, 1.62305
352, 3, wb, catch, NA, 999, 999, 5, 20, 90, 105, 183, 132, 130, 125, 2, 0.396585
352, 3, wb, attraction, a-b-db, 14, 3, 5, 21, 111, 181, 120, 195, 195, 120, 1, 0.882303
352, 3, wb, attraction, a-b-db, 14, 3, 5, 21, 111, 181, 120, 195, 195, 120, 2, 0.654054
352, 3, wb, attraction, a-b-da, 2, 1, 5, 22, 134, 59, 135, 60, 60, 135, 1, 1.1059
352, 3, wb, attraction, a-b-da, 2, 1, 5, 22, 134, 59, 135, 60, 60, 135, 2, 0.728258
352, 3, wb, attraction, a-b-db, 2, 3, 5, 23, 120, 195, 119, 193, 195, 120, 1, 0.692477
352, 3, wb, attraction, a-b-db, 2, 3, 5, 23, 120, 195, 119, 193, 195, 120, 2, 0.623545
352, 3, wb, filler, NA, 999, 999, 5, 24, 123, 183, 63, 114, 177, 146, 1, 0.731999
352, 3, wb, filler, NA, 999, 999, 5, 24, 123, 183, 63, 114, 177, 146, 2, 0.98184
352, 3, wb, attraction, a-b-db, 14, 1, 5, 25, 135, 60, 56, 125, 60, 135, 1, 1.332
352, 3, wb, attraction, a-b-db, 14, 1, 5, 25, 135, 60, 56, 125, 60, 135, 2, 0.525616
352, 3, wb, attraction, a-b-db, 9, 1, 5, 26, 60, 135, 135, 60, 57, 129, 1, 0.734149
352, 3, wb, attraction, a-b-db, 9, 1, 5, 26, 60, 135, 135, 60, 57, 129, 2, 0.479852
352, 3, wb, filler, NA, 999, 999, 5, 27, 101, 65, 81, 92, 121, 93, 1, 1.8342
352, 3, wb, filler, NA, 999, 999, 5, 27, 101, 65, 81, 92, 121, 93, 3, 1.23173
352, 3, wb, attraction, a-b-db, 5, 3, 5, 28, 120, 195, 117, 190, 195, 120, 1, 0.755853
352, 3, wb, attraction, a-b-db, 5, 3, 5, 28, 120, 195, 117, 190, 195, 120, 2, 0.500314
352, 3, wb, attraction, a-b-db, 9, 3, 5, 29, 120, 195, 195, 120, 114, 186, 1, 0.830076
352, 3, wb, attraction, a-b-db, 9, 3, 5, 29, 120, 195, 195, 120, 114, 186, 2, 0.835892
352, 3, wb, attraction, a-b-da, 2, 3, 5, 30, 195, 120, 120, 195, 193, 119, 1, 1.0081
352, 3, wb, attraction, a-b-da, 2, 3, 5, 30, 195, 120, 120, 195, 193, 119, 2, 0.646438
352, 3, wb, attraction, a-b-da, 9, 2, 5, 31, 90, 165, 165, 90, 157, 86, 1, 0.84219
352, 3, wb, attraction, a-b-da, 9, 2, 5, 31, 90, 165, 165, 90, 157, 86, 2, 1.24728
352, 3, wb, attraction, a-b-db, 2, 2, 5, 32, 90, 165, 89, 163, 165, 90, 1, 0.858845
352, 3, wb, attraction, a-b-db, 2, 2, 5, 32, 90, 165, 89, 163, 165, 90, 2, 0.671261
352, 3, wb, attraction, a-b-da, 9, 1, 5, 33, 129, 57, 135, 60, 60, 135, 1, 0.890414
352, 3, wb, attraction, a-b-da, 9, 1, 5, 33, 129, 57, 135, 60, 60, 135, 3, 1.01324
352, 3, wb, attraction, a-b-db, 2, 1, 5, 34, 60, 135, 59, 134, 135, 60, 1, 1.15428
352, 3, wb, attraction, a-b-db, 2, 1, 5, 34, 60, 135, 59, 134, 135, 60, 2, 0.891197
352, 3, wb, filler, NA, 999, 999, 5, 35, 188, 118, 150, 183, 75, 128, 1, 0.916819
352, 3, wb, filler, NA, 999, 999, 5, 35, 188, 118, 150, 183, 75, 128, 2, 0.783295
352, 3, wb, attraction, a-b-da, 14, 2, 5, 36, 90, 165, 153, 83, 165, 90, 1, 0.909592
352, 3, wb, attraction, a-b-da, 14, 2, 5, 36, 90, 165, 153, 83, 165, 90, 2, 0.928059
352, 3, wb, filler, NA, 999, 999, 5, 37, 60, 56, 149, 193, 89, 161, 1, 1.70417
352, 3, wb, filler, NA, 999, 999, 5, 37, 60, 56, 149, 193, 89, 161, 2, 3.48306
352, 3, wb, filler, NA, 999, 999, 6, 1, 154, 84, 176, 90, 151, 97, 1, 1.4285
352, 3, wb, filler, NA, 999, 999, 6, 1, 154, 84, 176, 90, 151, 97, 2, 0.826244
352, 3, wb, attraction, a-b-db, 5, 2, 6, 2, 165, 90, 88, 161, 90, 165, 1, 1.03031
352, 3, wb, attraction, a-b-db, 5, 2, 6, 2, 165, 90, 88, 161, 90, 165, 2, 0.884125
352, 3, wb, filler, NA, 999, 999, 6, 3, 99, 83, 118, 176, 75, 80, 3, 2.47045
352, 3, wb, filler, NA, 999, 999, 6, 3, 99, 83, 118, 176, 75, 80, 2, 0.426215
352, 3, wb, attraction, a-b-db, 2, 1, 6, 4, 59, 134, 135, 60, 60, 135, 1, 2.28681
352, 3, wb, attraction, a-b-db, 2, 1, 6, 4, 59, 134, 135, 60, 60, 135, 2, 1.658
352, 3, wb, attraction, a-b-da, 9, 1, 6, 5, 129, 57, 60, 135, 135, 60, 1, 1.30084
352, 3, wb, attraction, a-b-da, 9, 1, 6, 5, 129, 57, 60, 135, 135, 60, 2, 0.951705
352, 3, wb, attraction, a-b-da, 2, 1, 6, 6, 134, 59, 135, 60, 60, 135, 1, 0.879195
352, 3, wb, attraction, a-b-da, 2, 1, 6, 6, 134, 59, 135, 60, 60, 135, 2, 0.682976
352, 3, wb, catch, NA, 999, 999, 6, 7, 185, 130, 137, 118, 100, 95, 1, 0.70948
352, 3, wb, catch, NA, 999, 999, 6, 7, 185, 130, 137, 118, 100, 95, 2, 1.10379
352, 3, wb, filler, NA, 999, 999, 6, 8, 105, 144, 109, 129, 170, 118, 1, 0.785379
352, 3, wb, filler, NA, 999, 999, 6, 8, 105, 144, 109, 129, 170, 118, 2, 0.561222
352, 3, wb, attraction, a-b-da, 5, 2, 6, 9, 90, 165, 165, 90, 161, 88, 1, 0.712206
352, 3, wb, attraction, a-b-da, 5, 2, 6, 9, 90, 165, 165, 90, 161, 88, 2, 0.546732
352, 3, wb, filler, NA, 999, 999, 6, 10, 58, 110, 124, 183, 185, 86, 1, 0.682355
352, 3, wb, filler, NA, 999, 999, 6, 10, 58, 110, 124, 183, 185, 86, 2, 0.406213
352, 3, wb, attraction, a-b-db, 5, 1, 6, 11, 60, 135, 58, 132, 135, 60, 1, 1.08391
352, 3, wb, attraction, a-b-db, 5, 1, 6, 11, 60, 135, 58, 132, 135, 60, 2, 0.399597
352, 3, wb, attraction, a-b-da, 14, 3, 6, 12, 181, 111, 120, 195, 195, 120, 1, 0.71759
352, 3, wb, attraction, a-b-da, 14, 3, 6, 12, 181, 111, 120, 195, 195, 120, 2, 0.975837
352, 3, wb, attraction, a-b-db, 2, 2, 6, 13, 165, 90, 89, 163, 90, 165, 1, 0.742186
352, 3, wb, attraction, a-b-db, 2, 2, 6, 13, 165, 90, 89, 163, 90, 165, 2, 1.30326
352, 3, wb, attraction, a-b-db, 9, 2, 6, 14, 90, 165, 86, 157, 165, 90, 1, 1.72875
352, 3, wb, attraction, a-b-db, 9, 2, 6, 14, 90, 165, 86, 157, 165, 90, 2, 0.754268
352, 3, wb, attraction, a-b-db, 14, 3, 6, 15, 120, 195, 195, 120, 111, 181, 1, 0.929886
352, 3, wb, attraction, a-b-db, 14, 3, 6, 15, 120, 195, 195, 120, 111, 181, 2, 0.57159
352, 3, wb, filler, NA, 999, 999, 6, 16, 163, 165, 131, 66, 143, 142, 2, 1.01062
352, 3, wb, filler, NA, 999, 999, 6, 16, 163, 165, 131, 66, 143, 142, 1, 1.1051
352, 3, wb, attraction, a-b-db, 2, 3, 6, 17, 120, 195, 119, 193, 195, 120, 1, 1.93061
352, 3, wb, attraction, a-b-db, 2, 3, 6, 17, 120, 195, 119, 193, 195, 120, 2, 0.68401
352, 3, wb, attraction, a-b-db, 5, 3, 6, 18, 195, 120, 117, 190, 120, 195, 1, 1.70239
352, 3, wb, attraction, a-b-db, 5, 3, 6, 18, 195, 120, 117, 190, 120, 195, 2, 0.729152
352, 3, wb, attraction, a-b-da, 5, 3, 6, 19, 190, 117, 195, 120, 120, 195, 1, 1.5935
352, 3, wb, attraction, a-b-da, 5, 3, 6, 19, 190, 117, 195, 120, 120, 195, 2, 0.896408
352, 3, wb, catch, NA, 999, 999, 6, 20, 133, 182, 132, 123, 84, 111, 3, 1.066
352, 3, wb, catch, NA, 999, 999, 6, 20, 133, 182, 132, 123, 84, 111, 1, 1.42238
352, 3, wb, filler, NA, 999, 999, 6, 21, 93, 131, 89, 188, 91, 127, 1, 2.81919
352, 3, wb, filler, NA, 999, 999, 6, 21, 93, 131, 89, 188, 91, 127, 2, 0.704937
352, 3, wb, attraction, a-b-db, 9, 3, 6, 22, 114, 186, 120, 195, 195, 120, 1, 0.986618
352, 3, wb, attraction, a-b-db, 9, 3, 6, 22, 114, 186, 120, 195, 195, 120, 2, 0.898302
352, 3, wb, filler, NA, 999, 999, 6, 23, 111, 160, 177, 156, 83, 103, 3, 1.49199
352, 3, wb, filler, NA, 999, 999, 6, 23, 111, 160, 177, 156, 83, 103, 2, 0.918869
352, 3, wb, filler, NA, 999, 999, 6, 24, 167, 76, 186, 99, 176, 141, 1, 1.13575
352, 3, wb, filler, NA, 999, 999, 6, 24, 167, 76, 186, 99, 176, 141, 2, 0.761379
352, 3, wb, attraction, a-b-da, 14, 2, 6, 25, 165, 90, 153, 83, 90, 165, 1, 2.52845
352, 3, wb, attraction, a-b-da, 14, 2, 6, 25, 165, 90, 153, 83, 90, 165, 3, 1.78568
352, 3, wb, attraction, a-b-da, 2, 2, 6, 26, 163, 89, 90, 165, 165, 90, 1, 1.91968
352, 3, wb, attraction, a-b-da, 2, 2, 6, 26, 163, 89, 90, 165, 165, 90, 2, 0.809754
352, 3, wb, filler, NA, 999, 999, 6, 27, 138, 176, 63, 189, 131, 128, 1, 2.38276
352, 3, wb, filler, NA, 999, 999, 6, 27, 138, 176, 63, 189, 131, 128, 2, 2.718
352, 3, wb, attraction, a-b-db, 9, 1, 6, 28, 57, 129, 135, 60, 60, 135, 1, 2.5264
352, 3, wb, attraction, a-b-db, 9, 1, 6, 28, 57, 129, 135, 60, 60, 135, 2, 1.55158
352, 3, wb, attraction, a-b-da, 9, 2, 6, 29, 157, 86, 165, 90, 90, 165, 1, 1.71905
352, 3, wb, attraction, a-b-da, 9, 2, 6, 29, 157, 86, 165, 90, 90, 165, 2, 0.969114
352, 3, wb, attraction, a-b-da, 14, 1, 6, 30, 125, 56, 135, 60, 60, 135, 1, 1.42407
352, 3, wb, attraction, a-b-da, 14, 1, 6, 30, 125, 56, 135, 60, 60, 135, 2, 0.853631
352, 3, wb, filler, NA, 999, 999, 6, 31, 64, 92, 190, 138, 157, 184, 1, 2.16927
352, 3, wb, filler, NA, 999, 999, 6, 31, 64, 92, 190, 138, 157, 184, 2, 1.15326
352, 3, wb, catch, NA, 999, 999, 6, 32, 131, 184, 128, 67, 157, 98, 2, 4.04084
352, 3, wb, catch, NA, 999, 999, 6, 32, 131, 184, 128, 67, 157, 98, 1, 2.41285
352, 3, wb, attraction, a-b-da, 2, 3, 6, 33, 120, 195, 195, 120, 193, 119, 1, 1.32151
352, 3, wb, attraction, a-b-da, 2, 3, 6, 33, 120, 195, 195, 120, 193, 119, 2, 0.915653
352, 3, wb, attraction, a-b-da, 9, 3, 6, 34, 186, 114, 195, 120, 120, 195, 1, 1.29262
352, 3, wb, attraction, a-b-da, 9, 3, 6, 34, 186, 114, 195, 120, 120, 195, 2, 0.879607
352, 3, wb, attraction, a-b-da, 5, 1, 6, 35, 135, 60, 132, 58, 60, 135, 1, 2.68183
352, 3, wb, attraction, a-b-da, 5, 1, 6, 35, 135, 60, 132, 58, 60, 135, 2, 1.61303
352, 3, wb, attraction, a-b-db, 14, 1, 6, 36, 56, 125, 60, 135, 135, 60, 1, 1.01778
352, 3, wb, attraction, a-b-db, 14, 1, 6, 36, 56, 125, 60, 135, 135, 60, 2, 1.17615
352, 3, wb, attraction, a-b-db, 14, 2, 6, 37, 83, 153, 165, 90, 90, 165, 1, 1.19034
352, 3, wb, attraction, a-b-db, 14, 2, 6, 37, 83, 153, 165, 90, 90, 165, 2, 0.717249
352, 3, wb, filler, NA, 999, 999, 7, 1, 119, 94, 58, 179, 101, 89, 1, 1.38227
352, 3, wb, filler, NA, 999, 999, 7, 1, 119, 94, 58, 179, 101, 89, 2, 1.41384
352, 3, wb, filler, NA, 999, 999, 7, 2, 173, 163, 126, 170, 88, 178, 1, 2.80264
352, 3, wb, filler, NA, 999, 999, 7, 2, 173, 163, 126, 170, 88, 178, 2, 0.657137
352, 3, wb, attraction, a-b-db, 2, 3, 7, 3, 119, 193, 195, 120, 120, 195, 1, 1.01226
352, 3, wb, attraction, a-b-db, 2, 3, 7, 3, 119, 193, 195, 120, 120, 195, 2, 0.754504
352, 3, wb, filler, NA, 999, 999, 7, 4, 90, 162, 176, 162, 98, 172, 1, 0.778219
352, 3, wb, filler, NA, 999, 999, 7, 4, 90, 162, 176, 162, 98, 172, 2, 0.42598
352, 3, wb, filler, NA, 999, 999, 7, 5, 145, 118, 81, 80, 180, 96, 2, 1.77453
352, 3, wb, filler, NA, 999, 999, 7, 5, 145, 118, 81, 80, 180, 96, 1, 0.693894
352, 3, wb, filler, NA, 999, 999, 7, 6, 69, 182, 163, 136, 187, 157, 1, 2.71164
352, 3, wb, filler, NA, 999, 999, 7, 6, 69, 182, 163, 136, 187, 157, 2, 0.545418
352, 3, wb, attraction, a-b-db, 9, 2, 7, 7, 90, 165, 165, 90, 86, 157, 1, 2.01705
352, 3, wb, attraction, a-b-db, 9, 2, 7, 7, 90, 165, 165, 90, 86, 157, 2, 0.495267
352, 3, wb, catch, NA, 999, 999, 7, 8, 169, 146, 99, 96, 148, 107, 2, 1.88895
352, 3, wb, catch, NA, 999, 999, 7, 8, 169, 146, 99, 96, 148, 107, 1, 0.723614
352, 3, wb, catch, NA, 999, 999, 7, 9, 80, 115, 146, 169, 149, 106, 1, 4.10806
352, 3, wb, catch, NA, 999, 999, 7, 9, 80, 115, 146, 169, 149, 106, 2, 0.725464
352, 3, wb, attraction, a-b-da, 14, 3, 7, 10, 120, 195, 195, 120, 181, 111, 1, 1.33382
352, 3, wb, attraction, a-b-da, 14, 3, 7, 10, 120, 195, 195, 120, 181, 111, 2, 0.439332
352, 3, wb, filler, NA, 999, 999, 7, 11, 57, 105, 189, 151, 114, 102, 1, 0.955813
352, 3, wb, filler, NA, 999, 999, 7, 11, 57, 105, 189, 151, 114, 102, 2, 0.556155
352, 3, wb, attraction, a-b-da, 9, 1, 7, 12, 135, 60, 60, 135, 129, 57, 1, 1.81994
352, 3, wb, attraction, a-b-da, 9, 1, 7, 12, 135, 60, 60, 135, 129, 57, 2, 0.417968
352, 3, wb, attraction, a-b-da, 5, 2, 7, 13, 90, 165, 165, 90, 161, 88, 1, 1.46316
352, 3, wb, attraction, a-b-da, 5, 2, 7, 13, 90, 165, 165, 90, 161, 88, 2, 0.61945
352, 3, wb, attraction, a-b-da, 2, 2, 7, 14, 163, 89, 90, 165, 165, 90, 1, 2.08842
352, 3, wb, attraction, a-b-da, 2, 2, 7, 14, 163, 89, 90, 165, 165, 90, 2, 0.507116
352, 3, wb, attraction, a-b-da, 2, 3, 7, 15, 120, 195, 195, 120, 193, 119, 1, 0.932249
352, 3, wb, attraction, a-b-da, 2, 3, 7, 15, 120, 195, 195, 120, 193, 119, 2, 0.49382
352, 3, wb, attraction, a-b-db, 14, 3, 7, 16, 195, 120, 120, 195, 111, 181, 1, 0.799576
352, 3, wb, attraction, a-b-db, 14, 3, 7, 16, 195, 120, 120, 195, 111, 181, 2, 0.966667
352, 3, wb, filler, NA, 999, 999, 7, 17, 167, 178, 150, 93, 130, 192, 2, 1.57369
352, 3, wb, filler, NA, 999, 999, 7, 17, 167, 178, 150, 93, 130, 192, 1, 0.829253
352, 3, wb, attraction, a-b-db, 14, 2, 7, 18, 83, 153, 165, 90, 90, 165, 1, 1.44945
352, 3, wb, attraction, a-b-db, 14, 2, 7, 18, 83, 153, 165, 90, 90, 165, 2, 0.878401
352, 3, wb, attraction, a-b-db, 5, 3, 7, 19, 120, 195, 195, 120, 117, 190, 1, 2.35277
352, 3, wb, attraction, a-b-db, 5, 3, 7, 19, 120, 195, 195, 120, 117, 190, 2, 0.785279
352, 3, wb, attraction, a-b-da, 9, 2, 7, 20, 157, 86, 90, 165, 165, 90, 1, 1.0877
352, 3, wb, attraction, a-b-da, 9, 2, 7, 20, 157, 86, 90, 165, 165, 90, 2, 0.555334
352, 3, wb, attraction, a-b-da, 5, 3, 7, 21, 190, 117, 120, 195, 195, 120, 1, 0.747048
352, 3, wb, attraction, a-b-da, 5, 3, 7, 21, 190, 117, 120, 195, 195, 120, 2, 0.740101
352, 3, wb, attraction, a-b-da, 2, 1, 7, 22, 135, 60, 134, 59, 60, 135, 1, 1.00379
352, 3, wb, attraction, a-b-da, 2, 1, 7, 22, 135, 60, 134, 59, 60, 135, 2, 1.17877
352, 3, wb, attraction, a-b-db, 5, 1, 7, 23, 58, 132, 135, 60, 60, 135, 1, 1.28903
352, 3, wb, attraction, a-b-db, 5, 1, 7, 23, 58, 132, 135, 60, 60, 135, 2, 1.28394
352, 3, wb, attraction, a-b-da, 14, 2, 7, 24, 153, 83, 165, 90, 90, 165, 1, 0.990104
352, 3, wb, attraction, a-b-da, 14, 2, 7, 24, 153, 83, 165, 90, 90, 165, 2, 1.7652
352, 3, wb, attraction, a-b-da, 14, 1, 7, 25, 135, 60, 60, 135, 125, 56, 1, 2.12392
352, 3, wb, attraction, a-b-da, 14, 1, 7, 25, 135, 60, 60, 135, 125, 56, 2, 1.11723
352, 3, wb, attraction, a-b-db, 2, 1, 7, 26, 60, 135, 59, 134, 135, 60, 1, 1.51003
352, 3, wb, attraction, a-b-db, 2, 1, 7, 26, 60, 135, 59, 134, 135, 60, 2, 2.93634
352, 3, wb, attraction, a-b-da, 9, 3, 7, 27, 195, 120, 120, 195, 186, 114, 1, 1.38387
352, 3, wb, attraction, a-b-da, 9, 3, 7, 27, 195, 120, 120, 195, 186, 114, 2, 1.03954
352, 3, wb, attraction, a-b-db, 14, 1, 7, 28, 56, 125, 60, 135, 135, 60, 1, 1.05183
352, 3, wb, attraction, a-b-db, 14, 1, 7, 28, 56, 125, 60, 135, 135, 60, 2, 0.888846
352, 3, wb, attraction, a-b-da, 5, 1, 7, 29, 135, 60, 60, 135, 132, 58, 1, 0.9872
352, 3, wb, attraction, a-b-da, 5, 1, 7, 29, 135, 60, 60, 135, 132, 58, 2, 1.33871
352, 3, wb, attraction, a-b-db, 2, 2, 7, 30, 165, 90, 89, 163, 90, 165, 1, 0.922923
352, 3, wb, attraction, a-b-db, 2, 2, 7, 30, 165, 90, 89, 163, 90, 165, 2, 0.9566
352, 3, wb, filler, NA, 999, 999, 7, 31, 75, 164, 157, 114, 181, 140, 1, 0.732314
352, 3, wb, filler, NA, 999, 999, 7, 31, 75, 164, 157, 114, 181, 140, 2, 0.838117
352, 3, wb, catch, NA, 999, 999, 7, 32, 153, 162, 102, 93, 124, 131, 1, 0.762423
352, 3, wb, catch, NA, 999, 999, 7, 32, 153, 162, 102, 93, 124, 131, 2, 0.970816
352, 3, wb, attraction, a-b-db, 9, 3, 7, 33, 114, 186, 120, 195, 195, 120, 1, 0.769822
352, 3, wb, attraction, a-b-db, 9, 3, 7, 33, 114, 186, 120, 195, 195, 120, 2, 0.89012
352, 3, wb, filler, NA, 999, 999, 7, 34, 190, 140, 192, 66, 84, 67, 3, 1.14779
352, 3, wb, filler, NA, 999, 999, 7, 34, 190, 140, 192, 66, 84, 67, 1, 2.33279
352, 3, wb, attraction, a-b-db, 5, 2, 7, 35, 88, 161, 165, 90, 90, 165, 1, 9.46076
352, 3, wb, attraction, a-b-db, 5, 2, 7, 35, 88, 161, 165, 90, 90, 165, 2, 0.878314
352, 3, wb, filler, NA, 999, 999, 7, 36, 164, 143, 153, 72, 137, 96, 3, 1.53658
352, 3, wb, filler, NA, 999, 999, 7, 36, 164, 143, 153, 72, 137, 96, 1, 1.40207
352, 3, wb, attraction, a-b-db, 9, 1, 7, 37, 57, 129, 135, 60, 60, 135, 1, 1.42371
352, 3, wb, attraction, a-b-db, 9, 1, 7, 37, 57, 129, 135, 60, 60, 135, 2, 1.00526
352, 3, wb, filler, NA, 999, 999, 8, 1, 155, 79, 170, 59, 143, 122, 2, 8.41075
352, 3, wb, filler, NA, 999, 999, 8, 1, 155, 79, 170, 59, 143, 122, 3, 0.542901
352, 3, wb, attraction, a-b-db, 5, 2, 8, 2, 88, 161, 165, 90, 90, 165, 1, 1.39055
352, 3, wb, attraction, a-b-db, 5, 2, 8, 2, 88, 161, 165, 90, 90, 165, 2, 0.701425
352, 3, wb, attraction, a-b-da, 14, 1, 8, 3, 135, 60, 125, 56, 60, 135, 2, 3.51923
352, 3, wb, attraction, a-b-da, 14, 1, 8, 3, 135, 60, 125, 56, 60, 135, 1, 1.08877
352, 3, wb, catch, NA, 999, 999, 8, 4, 144, 171, 71, 124, 144, 111, 2, 0.931119
352, 3, wb, catch, NA, 999, 999, 8, 4, 144, 171, 71, 124, 144, 111, 1, 2.05272
352, 3, wb, filler, NA, 999, 999, 8, 5, 148, 175, 192, 148, 94, 132, 3, 1.21599
352, 3, wb, filler, NA, 999, 999, 8, 5, 148, 175, 192, 148, 94, 132, 2, 0.85428
352, 3, wb, attraction, a-b-db, 14, 1, 8, 6, 56, 125, 60, 135, 135, 60, 1, 1.04204
352, 3, wb, attraction, a-b-db, 14, 1, 8, 6, 56, 125, 60, 135, 135, 60, 3, 0.998982
352, 3, wb, attraction, a-b-db, 5, 3, 8, 7, 117, 190, 120, 195, 195, 120, 1, 2.71652
352, 3, wb, attraction, a-b-db, 5, 3, 8, 7, 117, 190, 120, 195, 195, 120, 3, 0.742373
352, 3, wb, filler, NA, 999, 999, 8, 8, 181, 184, 131, 145, 77, 70, 3, 1.61414
352, 3, wb, filler, NA, 999, 999, 8, 8, 181, 184, 131, 145, 77, 70, 1, 1.33225
352, 3, wb, filler, NA, 999, 999, 8, 9, 179, 186, 106, 170, 164, 141, 2, 1.74048
352, 3, wb, filler, NA, 999, 999, 8, 9, 179, 186, 106, 170, 164, 141, 1, 1.01315
352, 3, wb, catch, NA, 999, 999, 8, 10, 172, 143, 119, 136, 100, 95, 3, 2.40216
352, 3, wb, catch, NA, 999, 999, 8, 10, 172, 143, 119, 136, 100, 95, 1, 0.77662
352, 3, wb, attraction, a-b-db, 9, 2, 8, 11, 86, 157, 165, 90, 90, 165, 1, 1.815
352, 3, wb, attraction, a-b-db, 9, 2, 8, 11, 86, 157, 165, 90, 90, 165, 2, 1.10108
352, 3, wb, attraction, a-b-db, 2, 2, 8, 12, 165, 90, 90, 165, 89, 163, 1, 1.32661
352, 3, wb, attraction, a-b-db, 2, 2, 8, 12, 165, 90, 90, 165, 89, 163, 2, 2.09632
352, 3, wb, attraction, a-b-db, 5, 1, 8, 13, 135, 60, 60, 135, 58, 132, 1, 2.39354
352, 3, wb, attraction, a-b-db, 5, 1, 8, 13, 135, 60, 60, 135, 58, 132, 2, 1.14407
352, 3, wb, filler, NA, 999, 999, 8, 14, 176, 72, 77, 194, 181, 87, 1, 0.911635
352, 3, wb, filler, NA, 999, 999, 8, 14, 176, 72, 77, 194, 181, 87, 2, 1.28204
352, 3, wb, filler, NA, 999, 999, 8, 15, 143, 187, 69, 75, 175, 133, 2, 1.41221
352, 3, wb, filler, NA, 999, 999, 8, 15, 143, 187, 69, 75, 175, 133, 1, 0.962382
352, 3, wb, attraction, a-b-db, 2, 1, 8, 16, 135, 60, 59, 134, 60, 135, 1, 1.31351
352, 3, wb, attraction, a-b-db, 2, 1, 8, 16, 135, 60, 59, 134, 60, 135, 2, 0.603657
352, 3, wb, attraction, a-b-da, 2, 3, 8, 17, 120, 195, 195, 120, 193, 119, 1, 1.76137
352, 3, wb, attraction, a-b-da, 2, 3, 8, 17, 120, 195, 195, 120, 193, 119, 2, 0.712755
352, 3, wb, filler, NA, 999, 999, 8, 18, 57, 155, 86, 120, 124, 61, 1, 0.906466
352, 3, wb, filler, NA, 999, 999, 8, 18, 57, 155, 86, 120, 124, 61, 2, 1.01286
352, 3, wb, attraction, a-b-da, 9, 1, 8, 19, 135, 60, 129, 57, 60, 135, 1, 0.83376
352, 3, wb, attraction, a-b-da, 9, 1, 8, 19, 135, 60, 129, 57, 60, 135, 2, 0.67964
352, 3, wb, filler, NA, 999, 999, 8, 20, 110, 149, 181, 105, 108, 159, 1, 1.13784
352, 3, wb, filler, NA, 999, 999, 8, 20, 110, 149, 181, 105, 108, 159, 2, 0.930819
352, 3, wb, attraction, a-b-da, 9, 2, 8, 21, 157, 86, 90, 165, 165, 90, 1, 1.18729
352, 3, wb, attraction, a-b-da, 9, 2, 8, 21, 157, 86, 90, 165, 165, 90, 2, 0.866807
352, 3, wb, attraction, a-b-db, 9, 1, 8, 22, 57, 129, 60, 135, 135, 60, 1, 1.38175
352, 3, wb, attraction, a-b-db, 9, 1, 8, 22, 57, 129, 60, 135, 135, 60, 2, 1.17336
352, 3, wb, attraction, a-b-da, 5, 1, 8, 23, 132, 58, 135, 60, 60, 135, 1, 0.867688
352, 3, wb, attraction, a-b-da, 5, 1, 8, 23, 132, 58, 135, 60, 60, 135, 2, 0.783927
352, 3, wb, attraction, a-b-db, 14, 2, 8, 24, 83, 153, 165, 90, 90, 165, 1, 1.96632
352, 3, wb, attraction, a-b-db, 14, 2, 8, 24, 83, 153, 165, 90, 90, 165, 2, 0.542326
352, 3, wb, attraction, a-b-da, 5, 3, 8, 25, 190, 117, 195, 120, 120, 195, 1, 1.1421
352, 3, wb, attraction, a-b-da, 5, 3, 8, 25, 190, 117, 195, 120, 120, 195, 2, 0.735085
352, 3, wb, attraction, a-b-da, 14, 3, 8, 26, 181, 111, 195, 120, 120, 195, 1, 0.767447
352, 3, wb, attraction, a-b-da, 14, 3, 8, 26, 181, 111, 195, 120, 120, 195, 2, 0.719879
352, 3, wb, attraction, a-b-da, 14, 2, 8, 27, 165, 90, 153, 83, 90, 165, 2, 2.12899
352, 3, wb, attraction, a-b-da, 14, 2, 8, 27, 165, 90, 153, 83, 90, 165, 3, 2.01816
352, 3, wb, attraction, a-b-db, 9, 3, 8, 28, 195, 120, 120, 195, 114, 186, 1, 2.89493
352, 3, wb, attraction, a-b-db, 9, 3, 8, 28, 195, 120, 120, 195, 114, 186, 2, 1.74529
352, 3, wb, attraction, a-b-da, 2, 2, 8, 29, 165, 90, 163, 89, 90, 165, 1, 2.39257
352, 3, wb, attraction, a-b-da, 2, 2, 8, 29, 165, 90, 163, 89, 90, 165, 2, 1.95125
352, 3, wb, filler, NA, 999, 999, 8, 30, 102, 187, 112, 132, 152, 116, 1, 1.56668
352, 3, wb, filler, NA, 999, 999, 8, 30, 102, 187, 112, 132, 152, 116, 3, 2.02277
352, 3, wb, catch, NA, 999, 999, 8, 31, 120, 75, 120, 195, 129, 126, 1, 1.38731
352, 3, wb, catch, NA, 999, 999, 8, 31, 120, 75, 120, 195, 129, 126, 2, 1.07501
352, 3, wb, attraction, a-b-da, 2, 1, 8, 32, 134, 59, 135, 60, 60, 135, 1, 0.741169
352, 3, wb, attraction, a-b-da, 2, 1, 8, 32, 134, 59, 135, 60, 60, 135, 2, 1.16634
352, 3, wb, attraction, a-b-da, 5, 2, 8, 33, 165, 90, 161, 88, 90, 165, 1, 2.54907
352, 3, wb, attraction, a-b-da, 5, 2, 8, 33, 165, 90, 161, 88, 90, 165, 2, 0.789758
352, 3, wb, attraction, a-b-db, 2, 3, 8, 34, 195, 120, 120, 195, 119, 193, 1, 2.95606
352, 3, wb, attraction, a-b-db, 2, 3, 8, 34, 195, 120, 120, 195, 119, 193, 2, 3.50769
352, 3, wb, filler, NA, 999, 999, 8, 35, 103, 87, 112, 190, 167, 116, 1, 0.859845
352, 3, wb, filler, NA, 999, 999, 8, 35, 103, 87, 112, 190, 167, 116, 2, 0.656313
352, 3, wb, attraction, a-b-da, 9, 3, 8, 36, 186, 114, 195, 120, 120, 195, 1, 0.899997
352, 3, wb, attraction, a-b-da, 9, 3, 8, 36, 186, 114, 195, 120, 120, 195, 2, 1.35102
352, 3, wb, attraction, a-b-db, 14, 3, 8, 37, 195, 120, 120, 195, 111, 181, 1, 1.76649
352, 3, wb, attraction, a-b-db, 14, 3, 8, 37, 195, 120, 120, 195, 111, 181, 2, 0.766584
