sub_n, computer_n, bw_cond, effect, set, distance, diag, block_n, trial_n, h1, w1, h2, w2, h3, w3, choice, rt 
300, 3, wb, practice, NA, 999, 999, 0, 1, 189, 155, 70, 101, 96, 126, 2, 3.35714
300, 3, wb, practice, NA, 999, 999, 0, 1, 189, 155, 70, 101, 96, 126, 1, 2.31124
300, 3, wb, practice, NA, 999, 999, 0, 2, 193, 133, 177, 174, 194, 81, 3, 2.98762
300, 3, wb, practice, NA, 999, 999, 0, 2, 193, 133, 177, 174, 194, 81, 2, 2.40926
300, 3, wb, practice, NA, 999, 999, 0, 3, 59, 132, 59, 191, 169, 157, 1, 1.98798
300, 3, wb, practice, NA, 999, 999, 0, 3, 59, 132, 59, 191, 169, 157, 3, 2.26936
300, 3, wb, filler, NA, 999, 999, 1, 1, 154, 127, 144, 131, 157, 188, 1, 2.23044
300, 3, wb, filler, NA, 999, 999, 1, 1, 154, 127, 144, 131, 157, 188, 3, 1.80394
300, 3, wb, attraction, a-b-db, 2, 3, 1, 2, 119, 193, 120, 195, 195, 120, 3, 2.08919
300, 3, wb, attraction, a-b-db, 2, 3, 1, 2, 119, 193, 120, 195, 195, 120, 2, 0.971857
300, 3, wb, attraction, a-b-da, 14, 3, 1, 3, 195, 120, 181, 111, 120, 195, 1, 2.89098
300, 3, wb, attraction, a-b-da, 14, 3, 1, 3, 195, 120, 181, 111, 120, 195, 3, 1.42123
300, 3, wb, attraction, a-b-da, 9, 2, 1, 4, 157, 86, 165, 90, 90, 165, 1, 2.1781
300, 3, wb, attraction, a-b-da, 9, 2, 1, 4, 157, 86, 165, 90, 90, 165, 3, 0.633355
300, 3, wb, catch, NA, 999, 999, 1, 5, 103, 152, 157, 158, 123, 72, 3, 0.909766
300, 3, wb, catch, NA, 999, 999, 1, 5, 103, 152, 157, 158, 123, 72, 2, 0.496116
300, 3, wb, attraction, a-b-db, 5, 2, 1, 6, 165, 90, 90, 165, 88, 161, 1, 1.64185
300, 3, wb, attraction, a-b-db, 5, 2, 1, 6, 165, 90, 90, 165, 88, 161, 3, 0.790655
300, 3, wb, attraction, a-b-da, 14, 1, 1, 7, 60, 135, 135, 60, 125, 56, 3, 1.98842
300, 3, wb, attraction, a-b-da, 14, 1, 1, 7, 60, 135, 135, 60, 125, 56, 1, 1.73169
300, 3, wb, attraction, a-b-da, 2, 1, 1, 8, 134, 59, 60, 135, 135, 60, 3, 4.41978
300, 3, wb, attraction, a-b-da, 2, 1, 1, 8, 134, 59, 60, 135, 135, 60, 2, 1.07301
300, 3, wb, attraction, a-b-db, 5, 1, 1, 9, 60, 135, 58, 132, 135, 60, 3, 1.67599
300, 3, wb, attraction, a-b-db, 5, 1, 1, 9, 60, 135, 58, 132, 135, 60, 1, 1.32742
300, 3, wb, filler, NA, 999, 999, 1, 10, 90, 112, 139, 129, 186, 104, 1, 1.77553
300, 3, wb, filler, NA, 999, 999, 1, 10, 90, 112, 139, 129, 186, 104, 2, 1.37511
300, 3, wb, attraction, a-b-da, 9, 1, 1, 11, 60, 135, 135, 60, 129, 57, 3, 2.83719
300, 3, wb, attraction, a-b-da, 9, 1, 1, 11, 60, 135, 135, 60, 129, 57, 1, 1.71444
300, 3, wb, attraction, a-b-db, 9, 3, 1, 12, 195, 120, 114, 186, 120, 195, 1, 1.60313
300, 3, wb, attraction, a-b-db, 9, 3, 1, 12, 195, 120, 114, 186, 120, 195, 2, 0.865992
300, 3, wb, attraction, a-b-da, 5, 1, 1, 13, 132, 58, 135, 60, 60, 135, 1, 3.27676
300, 3, wb, attraction, a-b-da, 5, 1, 1, 13, 132, 58, 135, 60, 60, 135, 3, 0.607798
300, 3, wb, attraction, a-b-db, 2, 2, 1, 14, 90, 165, 89, 163, 165, 90, 3, 3.34093
300, 3, wb, attraction, a-b-db, 2, 2, 1, 14, 90, 165, 89, 163, 165, 90, 2, 0.757176
300, 3, wb, filler, NA, 999, 999, 1, 15, 178, 114, 57, 178, 81, 130, 2, 3.12423
300, 3, wb, filler, NA, 999, 999, 1, 15, 178, 114, 57, 178, 81, 130, 1, 0.981184
300, 3, wb, attraction, a-b-da, 14, 2, 1, 16, 153, 83, 90, 165, 165, 90, 1, 2.06746
300, 3, wb, attraction, a-b-da, 14, 2, 1, 16, 153, 83, 90, 165, 165, 90, 2, 0.431492
300, 3, wb, attraction, a-b-da, 5, 2, 1, 17, 90, 165, 165, 90, 161, 88, 2, 3.94793
300, 3, wb, attraction, a-b-da, 5, 2, 1, 17, 90, 165, 165, 90, 161, 88, 1, 1.05997
300, 3, wb, attraction, a-b-db, 5, 3, 1, 18, 120, 195, 195, 120, 117, 190, 1, 1.95098
300, 3, wb, attraction, a-b-db, 5, 3, 1, 18, 120, 195, 195, 120, 117, 190, 2, 2.54367
300, 3, wb, attraction, a-b-db, 14, 1, 1, 19, 56, 125, 60, 135, 135, 60, 1, 4.06283
300, 3, wb, attraction, a-b-db, 14, 1, 1, 19, 56, 125, 60, 135, 135, 60, 3, 1.61018
300, 3, wb, attraction, a-b-da, 5, 3, 1, 20, 120, 195, 190, 117, 195, 120, 3, 3.35889
300, 3, wb, attraction, a-b-da, 5, 3, 1, 20, 120, 195, 190, 117, 195, 120, 2, 0.718611
300, 3, wb, attraction, a-b-da, 9, 3, 1, 21, 186, 114, 195, 120, 120, 195, 1, 3.5276
300, 3, wb, attraction, a-b-da, 9, 3, 1, 21, 186, 114, 195, 120, 120, 195, 3, 0.632491
300, 3, wb, attraction, a-b-db, 9, 1, 1, 22, 135, 60, 57, 129, 60, 135, 1, 1.46079
300, 3, wb, attraction, a-b-db, 9, 1, 1, 22, 135, 60, 57, 129, 60, 135, 2, 0.889063
300, 3, wb, catch, NA, 999, 999, 1, 23, 102, 93, 156, 99, 173, 142, 1, 2.64343
300, 3, wb, catch, NA, 999, 999, 1, 23, 102, 93, 156, 99, 173, 142, 3, 0.679812
300, 3, wb, attraction, a-b-db, 2, 1, 1, 24, 59, 134, 135, 60, 60, 135, 1, 2.20225
300, 3, wb, attraction, a-b-db, 2, 1, 1, 24, 59, 134, 135, 60, 60, 135, 2, 2.80893
300, 3, wb, attraction, a-b-da, 2, 3, 1, 25, 195, 120, 193, 119, 120, 195, 3, 3.54938
300, 3, wb, attraction, a-b-da, 2, 3, 1, 25, 195, 120, 193, 119, 120, 195, 2, 2.18951
300, 3, wb, filler, NA, 999, 999, 1, 26, 152, 59, 123, 133, 79, 59, 3, 1.54741
300, 3, wb, filler, NA, 999, 999, 1, 26, 152, 59, 123, 133, 79, 59, 2, 0.68416
300, 3, wb, filler, NA, 999, 999, 1, 27, 84, 67, 72, 160, 192, 156, 1, 0.694529
300, 3, wb, filler, NA, 999, 999, 1, 27, 84, 67, 72, 160, 192, 156, 3, 0.689694
300, 3, wb, filler, NA, 999, 999, 1, 28, 79, 93, 109, 82, 135, 74, 1, 1.26009
300, 3, wb, filler, NA, 999, 999, 1, 28, 79, 93, 109, 82, 135, 74, 3, 0.984352
300, 3, wb, attraction, a-b-db, 14, 3, 1, 29, 111, 181, 195, 120, 120, 195, 2, 2.37467
300, 3, wb, attraction, a-b-db, 14, 3, 1, 29, 111, 181, 195, 120, 120, 195, 3, 0.701993
300, 3, wb, attraction, a-b-db, 14, 2, 1, 30, 165, 90, 90, 165, 83, 153, 1, 2.10354
300, 3, wb, attraction, a-b-db, 14, 2, 1, 30, 165, 90, 90, 165, 83, 153, 2, 0.466232
300, 3, wb, filler, NA, 999, 999, 1, 31, 163, 121, 105, 144, 84, 180, 3, 1.11736
300, 3, wb, filler, NA, 999, 999, 1, 31, 163, 121, 105, 144, 84, 180, 1, 0.711631
300, 3, wb, attraction, a-b-db, 9, 2, 1, 32, 86, 157, 165, 90, 90, 165, 2, 1.1367
300, 3, wb, attraction, a-b-db, 9, 2, 1, 32, 86, 157, 165, 90, 90, 165, 3, 0.530377
300, 3, wb, filler, NA, 999, 999, 1, 33, 169, 111, 109, 81, 138, 166, 2, 0.722896
300, 3, wb, filler, NA, 999, 999, 1, 33, 169, 111, 109, 81, 138, 166, 3, 1.54059
300, 3, wb, catch, NA, 999, 999, 1, 34, 66, 129, 177, 138, 146, 109, 1, 0.900162
300, 3, wb, catch, NA, 999, 999, 1, 34, 66, 129, 177, 138, 146, 109, 2, 0.815095
300, 3, wb, filler, NA, 999, 999, 1, 35, 154, 81, 132, 144, 107, 193, 1, 0.988027
300, 3, wb, filler, NA, 999, 999, 1, 35, 154, 81, 132, 144, 107, 193, 2, 0.843076
300, 3, wb, attraction, a-b-da, 2, 2, 1, 36, 165, 90, 163, 89, 90, 165, 1, 1.23865
300, 3, wb, attraction, a-b-da, 2, 2, 1, 36, 165, 90, 163, 89, 90, 165, 3, 1.25959
300, 3, wb, filler, NA, 999, 999, 1, 37, 134, 94, 155, 106, 82, 176, 3, 0.894453
300, 3, wb, filler, NA, 999, 999, 1, 37, 134, 94, 155, 106, 82, 176, 1, 0.721482
300, 3, wb, attraction, a-b-db, 14, 1, 2, 1, 56, 125, 135, 60, 60, 135, 2, 0.874731
300, 3, wb, attraction, a-b-db, 14, 1, 2, 1, 56, 125, 135, 60, 60, 135, 3, 0.846258
300, 3, wb, attraction, a-b-db, 5, 2, 2, 2, 165, 90, 90, 165, 88, 161, 1, 1.32992
300, 3, wb, attraction, a-b-db, 5, 2, 2, 2, 165, 90, 90, 165, 88, 161, 2, 0.547536
300, 3, wb, attraction, a-b-da, 2, 3, 2, 3, 195, 120, 120, 195, 193, 119, 1, 1.42727
300, 3, wb, attraction, a-b-da, 2, 3, 2, 3, 195, 120, 120, 195, 193, 119, 2, 0.520807
300, 3, wb, attraction, a-b-da, 2, 1, 2, 4, 134, 59, 60, 135, 135, 60, 1, 0.857952
300, 3, wb, attraction, a-b-da, 2, 1, 2, 4, 134, 59, 60, 135, 135, 60, 2, 0.694358
300, 3, wb, catch, NA, 999, 999, 2, 5, 134, 121, 176, 139, 95, 100, 3, 0.895981
300, 3, wb, catch, NA, 999, 999, 2, 5, 134, 121, 176, 139, 95, 100, 2, 1.11502
300, 3, wb, filler, NA, 999, 999, 2, 6, 141, 58, 121, 101, 183, 95, 1, 1.35597
300, 3, wb, filler, NA, 999, 999, 2, 6, 141, 58, 121, 101, 183, 95, 3, 1.18822
300, 3, wb, attraction, a-b-db, 14, 2, 2, 7, 90, 165, 165, 90, 83, 153, 3, 1.28243
300, 3, wb, attraction, a-b-db, 14, 2, 2, 7, 90, 165, 165, 90, 83, 153, 1, 2.22195
300, 3, wb, attraction, a-b-db, 9, 2, 2, 8, 90, 165, 165, 90, 86, 157, 3, 1.81856
300, 3, wb, attraction, a-b-db, 9, 2, 2, 8, 90, 165, 165, 90, 86, 157, 1, 0.696666
300, 3, wb, attraction, a-b-da, 9, 2, 2, 9, 90, 165, 165, 90, 157, 86, 3, 2.18636
300, 3, wb, attraction, a-b-da, 9, 2, 2, 9, 90, 165, 165, 90, 157, 86, 2, 0.921652
300, 3, wb, attraction, a-b-da, 14, 2, 2, 10, 90, 165, 153, 83, 165, 90, 3, 1.02668
300, 3, wb, attraction, a-b-da, 14, 2, 2, 10, 90, 165, 153, 83, 165, 90, 2, 1.20033
300, 3, wb, attraction, a-b-da, 5, 1, 2, 11, 60, 135, 132, 58, 135, 60, 3, 1.66985
300, 3, wb, attraction, a-b-da, 5, 1, 2, 11, 60, 135, 132, 58, 135, 60, 1, 0.466127
300, 3, wb, attraction, a-b-da, 2, 2, 2, 12, 165, 90, 163, 89, 90, 165, 1, 2.11721
300, 3, wb, attraction, a-b-da, 2, 2, 2, 12, 165, 90, 163, 89, 90, 165, 3, 0.367131
300, 3, wb, attraction, a-b-da, 5, 3, 2, 13, 195, 120, 120, 195, 190, 117, 1, 1.02229
300, 3, wb, attraction, a-b-da, 5, 3, 2, 13, 195, 120, 120, 195, 190, 117, 2, 1.87597
300, 3, wb, attraction, a-b-db, 9, 3, 2, 14, 120, 195, 114, 186, 195, 120, 3, 1.74992
300, 3, wb, attraction, a-b-db, 9, 3, 2, 14, 120, 195, 114, 186, 195, 120, 2, 0.758734
300, 3, wb, catch, NA, 999, 999, 2, 15, 159, 156, 103, 92, 162, 93, 2, 0.709729
300, 3, wb, catch, NA, 999, 999, 2, 15, 159, 156, 103, 92, 162, 93, 1, 0.384168
300, 3, wb, filler, NA, 999, 999, 2, 16, 150, 144, 150, 105, 159, 119, 1, 1.46271
300, 3, wb, filler, NA, 999, 999, 2, 16, 150, 144, 150, 105, 159, 119, 3, 3.69081
300, 3, wb, attraction, a-b-da, 9, 3, 2, 17, 120, 195, 186, 114, 195, 120, 3, 1.5003
300, 3, wb, attraction, a-b-da, 9, 3, 2, 17, 120, 195, 186, 114, 195, 120, 2, 0.399201
300, 3, wb, filler, NA, 999, 999, 2, 18, 121, 84, 59, 140, 94, 172, 2, 0.892958
300, 3, wb, filler, NA, 999, 999, 2, 18, 121, 84, 59, 140, 94, 172, 3, 0.319949
300, 3, wb, attraction, a-b-db, 9, 1, 2, 19, 57, 129, 60, 135, 135, 60, 3, 0.969111
300, 3, wb, attraction, a-b-db, 9, 1, 2, 19, 57, 129, 60, 135, 135, 60, 1, 0.44941
300, 3, wb, attraction, a-b-da, 9, 1, 2, 20, 135, 60, 60, 135, 129, 57, 1, 0.861297
300, 3, wb, attraction, a-b-da, 9, 1, 2, 20, 135, 60, 60, 135, 129, 57, 2, 0.561675
300, 3, wb, filler, NA, 999, 999, 2, 21, 171, 191, 147, 99, 176, 162, 2, 0.848702
300, 3, wb, filler, NA, 999, 999, 2, 21, 171, 191, 147, 99, 176, 162, 1, 0.485874
300, 3, wb, catch, NA, 999, 999, 2, 22, 128, 127, 79, 116, 143, 172, 2, 1.24031
300, 3, wb, catch, NA, 999, 999, 2, 22, 128, 127, 79, 116, 143, 172, 3, 0.317112
300, 3, wb, filler, NA, 999, 999, 2, 23, 185, 72, 77, 133, 179, 142, 1, 1.65436
300, 3, wb, filler, NA, 999, 999, 2, 23, 185, 72, 77, 133, 179, 142, 3, 1.20311
300, 3, wb, attraction, a-b-db, 5, 3, 2, 24, 195, 120, 120, 195, 117, 190, 3, 1.72064
300, 3, wb, attraction, a-b-db, 5, 3, 2, 24, 195, 120, 120, 195, 117, 190, 2, 4.49881
300, 3, wb, attraction, a-b-da, 14, 3, 2, 25, 181, 111, 195, 120, 120, 195, 2, 0.763329
300, 3, wb, attraction, a-b-da, 14, 3, 2, 25, 181, 111, 195, 120, 120, 195, 1, 4.13981
300, 3, wb, attraction, a-b-db, 2, 2, 2, 26, 165, 90, 89, 163, 90, 165, 3, 5.54703
300, 3, wb, attraction, a-b-db, 2, 2, 2, 26, 165, 90, 89, 163, 90, 165, 1, 0.714667
300, 3, wb, filler, NA, 999, 999, 2, 27, 67, 132, 125, 161, 124, 153, 1, 1.06776
300, 3, wb, filler, NA, 999, 999, 2, 27, 67, 132, 125, 161, 124, 153, 2, 0.768104
300, 3, wb, attraction, a-b-db, 2, 1, 2, 28, 59, 134, 60, 135, 135, 60, 3, 2.00696
300, 3, wb, attraction, a-b-db, 2, 1, 2, 28, 59, 134, 60, 135, 135, 60, 2, 0.604998
300, 3, wb, attraction, a-b-da, 14, 1, 2, 29, 135, 60, 60, 135, 125, 56, 1, 0.786822
300, 3, wb, attraction, a-b-da, 14, 1, 2, 29, 135, 60, 60, 135, 125, 56, 3, 0.506523
300, 3, wb, filler, NA, 999, 999, 2, 30, 119, 147, 173, 183, 61, 165, 1, 1.5243
300, 3, wb, filler, NA, 999, 999, 2, 30, 119, 147, 173, 183, 61, 165, 2, 0.405821
300, 3, wb, filler, NA, 999, 999, 2, 31, 161, 149, 128, 56, 84, 148, 2, 0.875684
300, 3, wb, filler, NA, 999, 999, 2, 31, 161, 149, 128, 56, 84, 148, 1, 0.703293
300, 3, wb, attraction, a-b-da, 5, 2, 2, 32, 165, 90, 90, 165, 161, 88, 2, 1.38505
300, 3, wb, attraction, a-b-da, 5, 2, 2, 32, 165, 90, 90, 165, 161, 88, 3, 0.800575
300, 3, wb, attraction, a-b-db, 14, 3, 2, 33, 120, 195, 111, 181, 195, 120, 1, 1.73426
300, 3, wb, attraction, a-b-db, 14, 3, 2, 33, 120, 195, 111, 181, 195, 120, 3, 0.639704
300, 3, wb, filler, NA, 999, 999, 2, 34, 111, 135, 58, 192, 79, 188, 2, 0.5642
300, 3, wb, filler, NA, 999, 999, 2, 34, 111, 135, 58, 192, 79, 188, 1, 1.49261
300, 3, wb, filler, NA, 999, 999, 2, 35, 132, 60, 85, 72, 174, 123, 2, 2.9981
300, 3, wb, filler, NA, 999, 999, 2, 35, 132, 60, 85, 72, 174, 123, 3, 0.420427
300, 3, wb, attraction, a-b-db, 2, 3, 2, 36, 195, 120, 120, 195, 119, 193, 1, 1.50556
300, 3, wb, attraction, a-b-db, 2, 3, 2, 36, 195, 120, 120, 195, 119, 193, 2, 1.25179
300, 3, wb, attraction, a-b-db, 5, 1, 2, 37, 60, 135, 135, 60, 58, 132, 2, 1.96725
300, 3, wb, attraction, a-b-db, 5, 1, 2, 37, 60, 135, 135, 60, 58, 132, 1, 2.59137
300, 3, wb, attraction, a-b-db, 9, 3, 3, 1, 195, 120, 120, 195, 114, 186, 3, 2.09248
300, 3, wb, attraction, a-b-db, 9, 3, 3, 1, 195, 120, 120, 195, 114, 186, 2, 1.79118
300, 3, wb, filler, NA, 999, 999, 3, 2, 171, 86, 106, 161, 99, 160, 3, 1.08457
300, 3, wb, filler, NA, 999, 999, 3, 2, 171, 86, 106, 161, 99, 160, 2, 0.776186
300, 3, wb, attraction, a-b-da, 14, 3, 3, 3, 120, 195, 195, 120, 181, 111, 3, 3.39841
300, 3, wb, attraction, a-b-da, 14, 3, 3, 3, 120, 195, 195, 120, 181, 111, 1, 1.6928
300, 3, wb, attraction, a-b-db, 14, 1, 3, 4, 56, 125, 60, 135, 135, 60, 1, 2.04612
300, 3, wb, attraction, a-b-db, 14, 1, 3, 4, 56, 125, 60, 135, 135, 60, 2, 1.35488
300, 3, wb, attraction, a-b-da, 14, 1, 3, 5, 135, 60, 60, 135, 125, 56, 3, 1.53039
300, 3, wb, attraction, a-b-da, 14, 1, 3, 5, 135, 60, 60, 135, 125, 56, 1, 2.12387
300, 3, wb, filler, NA, 999, 999, 3, 6, 103, 70, 132, 66, 133, 103, 1, 2.29178
300, 3, wb, filler, NA, 999, 999, 3, 6, 103, 70, 132, 66, 133, 103, 3, 0.750415
300, 3, wb, filler, NA, 999, 999, 3, 7, 113, 193, 59, 61, 61, 164, 2, 0.83807
300, 3, wb, filler, NA, 999, 999, 3, 7, 113, 193, 59, 61, 61, 164, 1, 1.07584
300, 3, wb, attraction, a-b-db, 9, 1, 3, 8, 57, 129, 135, 60, 60, 135, 1, 1.78204
300, 3, wb, attraction, a-b-db, 9, 1, 3, 8, 57, 129, 135, 60, 60, 135, 2, 0.901521
300, 3, wb, attraction, a-b-da, 5, 1, 3, 9, 135, 60, 60, 135, 132, 58, 3, 3.87924
300, 3, wb, attraction, a-b-da, 5, 1, 3, 9, 135, 60, 60, 135, 132, 58, 1, 5.40197
300, 3, wb, attraction, a-b-da, 9, 1, 3, 10, 60, 135, 129, 57, 135, 60, 2, 2.06222
300, 3, wb, attraction, a-b-da, 9, 1, 3, 10, 60, 135, 129, 57, 135, 60, 1, 0.890211
300, 3, wb, filler, NA, 999, 999, 3, 11, 110, 146, 101, 181, 108, 121, 3, 2.34785
300, 3, wb, filler, NA, 999, 999, 3, 11, 110, 146, 101, 181, 108, 121, 2, 0.444367
300, 3, wb, attraction, a-b-db, 5, 1, 3, 12, 58, 132, 60, 135, 135, 60, 3, 5.36021
300, 3, wb, attraction, a-b-db, 5, 1, 3, 12, 58, 132, 60, 135, 135, 60, 2, 0.871141
300, 3, wb, attraction, a-b-da, 5, 3, 3, 13, 195, 120, 120, 195, 190, 117, 1, 1.73819
300, 3, wb, attraction, a-b-da, 5, 3, 3, 13, 195, 120, 120, 195, 190, 117, 3, 0.891628
300, 3, wb, filler, NA, 999, 999, 3, 14, 188, 59, 165, 66, 149, 109, 2, 1.34926
300, 3, wb, filler, NA, 999, 999, 3, 14, 188, 59, 165, 66, 149, 109, 3, 0.478151
300, 3, wb, attraction, a-b-db, 14, 3, 3, 15, 111, 181, 120, 195, 195, 120, 3, 1.40064
300, 3, wb, attraction, a-b-db, 14, 3, 3, 15, 111, 181, 120, 195, 195, 120, 2, 0.775417
300, 3, wb, attraction, a-b-da, 2, 1, 3, 16, 134, 59, 135, 60, 60, 135, 1, 0.893756
300, 3, wb, attraction, a-b-da, 2, 1, 3, 16, 134, 59, 135, 60, 60, 135, 2, 0.624933
300, 3, wb, filler, NA, 999, 999, 3, 17, 72, 142, 72, 117, 164, 131, 1, 1.67725
300, 3, wb, filler, NA, 999, 999, 3, 17, 72, 142, 72, 117, 164, 131, 3, 0.920744
300, 3, wb, attraction, a-b-db, 9, 2, 3, 18, 90, 165, 86, 157, 165, 90, 3, 1.60176
300, 3, wb, attraction, a-b-db, 9, 2, 3, 18, 90, 165, 86, 157, 165, 90, 1, 1.39243
300, 3, wb, attraction, a-b-db, 14, 2, 3, 19, 83, 153, 90, 165, 165, 90, 3, 1.29403
300, 3, wb, attraction, a-b-db, 14, 2, 3, 19, 83, 153, 90, 165, 165, 90, 2, 0.440904
300, 3, wb, attraction, a-b-db, 2, 2, 3, 20, 165, 90, 90, 165, 89, 163, 1, 1.02868
300, 3, wb, attraction, a-b-db, 2, 2, 3, 20, 165, 90, 90, 165, 89, 163, 3, 0.850353
300, 3, wb, filler, NA, 999, 999, 3, 21, 60, 83, 136, 130, 184, 164, 1, 0.78198
300, 3, wb, filler, NA, 999, 999, 3, 21, 60, 83, 136, 130, 184, 164, 2, 0.413724
300, 3, wb, filler, NA, 999, 999, 3, 22, 87, 98, 114, 195, 99, 170, 1, 0.811037
300, 3, wb, filler, NA, 999, 999, 3, 22, 87, 98, 114, 195, 99, 170, 2, 0.43332
300, 3, wb, attraction, a-b-db, 2, 3, 3, 23, 120, 195, 195, 120, 119, 193, 2, 4.72577
300, 3, wb, attraction, a-b-db, 2, 3, 3, 23, 120, 195, 195, 120, 119, 193, 1, 1.48638
300, 3, wb, catch, NA, 999, 999, 3, 24, 114, 81, 156, 159, 121, 134, 1, 1.29641
300, 3, wb, catch, NA, 999, 999, 3, 24, 114, 81, 156, 159, 121, 134, 2, 0.523368
300, 3, wb, attraction, a-b-da, 5, 2, 3, 25, 90, 165, 165, 90, 161, 88, 1, 3.14774
300, 3, wb, attraction, a-b-da, 5, 2, 3, 25, 90, 165, 165, 90, 161, 88, 2, 1.82803
300, 3, wb, attraction, a-b-da, 14, 2, 3, 26, 153, 83, 90, 165, 165, 90, 1, 1.98418
300, 3, wb, attraction, a-b-da, 14, 2, 3, 26, 153, 83, 90, 165, 165, 90, 3, 0.767573
300, 3, wb, filler, NA, 999, 999, 3, 27, 73, 149, 100, 143, 65, 155, 3, 2.52654
300, 3, wb, filler, NA, 999, 999, 3, 27, 73, 149, 100, 143, 65, 155, 2, 0.479703
300, 3, wb, attraction, a-b-da, 2, 3, 3, 28, 193, 119, 120, 195, 195, 120, 3, 3.14619
300, 3, wb, attraction, a-b-da, 2, 3, 3, 28, 193, 119, 120, 195, 195, 120, 2, 0.506654
300, 3, wb, filler, NA, 999, 999, 3, 29, 108, 189, 68, 121, 142, 77, 2, 0.971523
300, 3, wb, filler, NA, 999, 999, 3, 29, 108, 189, 68, 121, 142, 77, 1, 0.451899
300, 3, wb, attraction, a-b-db, 2, 1, 3, 30, 59, 134, 135, 60, 60, 135, 3, 1.38377
300, 3, wb, attraction, a-b-db, 2, 1, 3, 30, 59, 134, 135, 60, 60, 135, 2, 0.399221
300, 3, wb, attraction, a-b-db, 5, 2, 3, 31, 90, 165, 165, 90, 88, 161, 3, 1.10111
300, 3, wb, attraction, a-b-db, 5, 2, 3, 31, 90, 165, 165, 90, 88, 161, 1, 1.04808
300, 3, wb, catch, NA, 999, 999, 3, 32, 110, 145, 100, 95, 156, 159, 2, 0.803833
300, 3, wb, catch, NA, 999, 999, 3, 32, 110, 145, 100, 95, 156, 159, 3, 0.674024
300, 3, wb, attraction, a-b-db, 5, 3, 3, 33, 117, 190, 120, 195, 195, 120, 1, 2.38045
300, 3, wb, attraction, a-b-db, 5, 3, 3, 33, 117, 190, 120, 195, 195, 120, 3, 0.419669
300, 3, wb, attraction, a-b-da, 9, 2, 3, 34, 157, 86, 165, 90, 90, 165, 2, 1.05678
300, 3, wb, attraction, a-b-da, 9, 2, 3, 34, 157, 86, 165, 90, 90, 165, 1, 1.30919
300, 3, wb, attraction, a-b-da, 2, 2, 3, 35, 165, 90, 90, 165, 163, 89, 1, 1.31807
300, 3, wb, attraction, a-b-da, 2, 2, 3, 35, 165, 90, 90, 165, 163, 89, 3, 0.880163
300, 3, wb, catch, NA, 999, 999, 3, 36, 75, 120, 151, 104, 143, 172, 1, 0.778522
300, 3, wb, catch, NA, 999, 999, 3, 36, 75, 120, 151, 104, 143, 172, 3, 0.546303
300, 3, wb, attraction, a-b-da, 9, 3, 3, 37, 186, 114, 120, 195, 195, 120, 1, 1.90615
300, 3, wb, attraction, a-b-da, 9, 3, 3, 37, 186, 114, 120, 195, 195, 120, 2, 0.356059
300, 3, wb, attraction, a-b-da, 9, 2, 4, 1, 165, 90, 90, 165, 157, 86, 1, 1.64404
300, 3, wb, attraction, a-b-da, 9, 2, 4, 1, 165, 90, 90, 165, 157, 86, 2, 0.592797
300, 3, wb, catch, NA, 999, 999, 4, 2, 146, 109, 90, 105, 168, 147, 2, 0.750504
300, 3, wb, catch, NA, 999, 999, 4, 2, 146, 109, 90, 105, 168, 147, 3, 0.551571
300, 3, wb, attraction, a-b-da, 9, 3, 4, 3, 195, 120, 120, 195, 186, 114, 1, 1.11938
300, 3, wb, attraction, a-b-da, 9, 3, 4, 3, 195, 120, 120, 195, 186, 114, 3, 2.31365
300, 3, wb, catch, NA, 999, 999, 4, 4, 110, 85, 120, 135, 125, 190, 1, 0.698125
300, 3, wb, catch, NA, 999, 999, 4, 4, 110, 85, 120, 135, 125, 190, 3, 0.73332
300, 3, wb, filler, NA, 999, 999, 4, 5, 162, 92, 157, 181, 120, 62, 3, 0.877759
300, 3, wb, filler, NA, 999, 999, 4, 5, 162, 92, 157, 181, 120, 62, 2, 0.697421
300, 3, wb, filler, NA, 999, 999, 4, 6, 152, 111, 145, 106, 190, 192, 1, 0.899016
300, 3, wb, filler, NA, 999, 999, 4, 6, 152, 111, 145, 106, 190, 192, 3, 0.382293
300, 3, wb, attraction, a-b-db, 5, 3, 4, 7, 195, 120, 117, 190, 120, 195, 1, 3.29268
300, 3, wb, attraction, a-b-db, 5, 3, 4, 7, 195, 120, 117, 190, 120, 195, 3, 0.382851
300, 3, wb, attraction, a-b-db, 5, 1, 4, 8, 58, 132, 60, 135, 135, 60, 3, 5.10152
300, 3, wb, attraction, a-b-db, 5, 1, 4, 8, 58, 132, 60, 135, 135, 60, 2, 0.35912
300, 3, wb, attraction, a-b-db, 5, 2, 4, 9, 90, 165, 88, 161, 165, 90, 3, 1.77425
300, 3, wb, attraction, a-b-db, 5, 2, 4, 9, 90, 165, 88, 161, 165, 90, 2, 0.381632
300, 3, wb, filler, NA, 999, 999, 4, 10, 108, 184, 159, 70, 153, 70, 2, 2.90815
300, 3, wb, filler, NA, 999, 999, 4, 10, 108, 184, 159, 70, 153, 70, 1, 0.685806
300, 3, wb, attraction, a-b-db, 2, 1, 4, 11, 135, 60, 60, 135, 59, 134, 1, 1.15219
300, 3, wb, attraction, a-b-db, 2, 1, 4, 11, 135, 60, 60, 135, 59, 134, 2, 0.833213
300, 3, wb, attraction, a-b-da, 14, 1, 4, 12, 135, 60, 60, 135, 125, 56, 3, 1.10955
300, 3, wb, attraction, a-b-da, 14, 1, 4, 12, 135, 60, 60, 135, 125, 56, 2, 0.663857
300, 3, wb, attraction, a-b-db, 14, 2, 4, 13, 90, 165, 165, 90, 83, 153, 3, 1.69891
300, 3, wb, attraction, a-b-db, 14, 2, 4, 13, 90, 165, 165, 90, 83, 153, 2, 0.797686
300, 3, wb, filler, NA, 999, 999, 4, 14, 131, 120, 69, 96, 77, 177, 2, 1.33938
300, 3, wb, filler, NA, 999, 999, 4, 14, 131, 120, 69, 96, 77, 177, 3, 1.12424
300, 3, wb, attraction, a-b-da, 14, 3, 4, 15, 195, 120, 120, 195, 181, 111, 3, 4.31647
300, 3, wb, attraction, a-b-da, 14, 3, 4, 15, 195, 120, 120, 195, 181, 111, 2, 0.877886
300, 3, wb, attraction, a-b-db, 9, 1, 4, 16, 135, 60, 60, 135, 57, 129, 3, 2.59224
300, 3, wb, attraction, a-b-db, 9, 1, 4, 16, 135, 60, 60, 135, 57, 129, 2, 1.12659
300, 3, wb, attraction, a-b-db, 9, 3, 4, 17, 195, 120, 114, 186, 120, 195, 1, 1.95892
300, 3, wb, attraction, a-b-db, 9, 3, 4, 17, 195, 120, 114, 186, 120, 195, 2, 0.30294
300, 3, wb, filler, NA, 999, 999, 4, 18, 98, 134, 57, 65, 188, 114, 2, 0.792758
300, 3, wb, filler, NA, 999, 999, 4, 18, 98, 134, 57, 65, 188, 114, 3, 0.991935
300, 3, wb, attraction, a-b-da, 2, 3, 4, 19, 120, 195, 193, 119, 195, 120, 2, 2.10952
300, 3, wb, attraction, a-b-da, 2, 3, 4, 19, 120, 195, 193, 119, 195, 120, 3, 1.32745
300, 3, wb, attraction, a-b-db, 2, 2, 4, 20, 90, 165, 89, 163, 165, 90, 1, 2.5356
300, 3, wb, attraction, a-b-db, 2, 2, 4, 20, 90, 165, 89, 163, 165, 90, 3, 1.53677
300, 3, wb, attraction, a-b-da, 5, 3, 4, 21, 195, 120, 120, 195, 190, 117, 1, 1.95289
300, 3, wb, attraction, a-b-da, 5, 3, 4, 21, 195, 120, 120, 195, 190, 117, 2, 0.38564
300, 3, wb, attraction, a-b-db, 2, 3, 4, 22, 120, 195, 195, 120, 119, 193, 1, 1.05606
300, 3, wb, attraction, a-b-db, 2, 3, 4, 22, 120, 195, 195, 120, 119, 193, 2, 0.396444
300, 3, wb, attraction, a-b-da, 5, 1, 4, 23, 60, 135, 135, 60, 132, 58, 1, 0.698261
300, 3, wb, attraction, a-b-da, 5, 1, 4, 23, 60, 135, 135, 60, 132, 58, 3, 1.35735
300, 3, wb, catch, NA, 999, 999, 4, 24, 158, 157, 108, 147, 128, 67, 3, 1.13213
300, 3, wb, catch, NA, 999, 999, 4, 24, 158, 157, 108, 147, 128, 67, 1, 0.661811
300, 3, wb, filler, NA, 999, 999, 4, 25, 165, 187, 162, 69, 138, 164, 2, 1.51294
300, 3, wb, filler, NA, 999, 999, 4, 25, 165, 187, 162, 69, 138, 164, 1, 0.531012
300, 3, wb, filler, NA, 999, 999, 4, 26, 168, 101, 134, 126, 194, 56, 3, 1.86752
300, 3, wb, filler, NA, 999, 999, 4, 26, 168, 101, 134, 126, 194, 56, 2, 0.487614
300, 3, wb, attraction, a-b-da, 5, 2, 4, 27, 165, 90, 90, 165, 161, 88, 1, 2.76194
300, 3, wb, attraction, a-b-da, 5, 2, 4, 27, 165, 90, 90, 165, 161, 88, 2, 0.569739
300, 3, wb, attraction, a-b-da, 2, 2, 4, 28, 165, 90, 90, 165, 163, 89, 3, 1.21697
300, 3, wb, attraction, a-b-da, 2, 2, 4, 28, 165, 90, 90, 165, 163, 89, 2, 0.479098
300, 3, wb, attraction, a-b-db, 14, 1, 4, 29, 135, 60, 60, 135, 56, 125, 3, 2.97759
300, 3, wb, attraction, a-b-db, 14, 1, 4, 29, 135, 60, 60, 135, 56, 125, 2, 0.376753
300, 3, wb, attraction, a-b-da, 14, 2, 4, 30, 90, 165, 165, 90, 153, 83, 3, 1.41512
300, 3, wb, attraction, a-b-da, 14, 2, 4, 30, 90, 165, 165, 90, 153, 83, 1, 0.445338
300, 3, wb, attraction, a-b-db, 9, 2, 4, 31, 90, 165, 86, 157, 165, 90, 1, 1.49727
300, 3, wb, attraction, a-b-db, 9, 2, 4, 31, 90, 165, 86, 157, 165, 90, 3, 0.412016
300, 3, wb, filler, NA, 999, 999, 4, 32, 151, 75, 109, 121, 72, 186, 3, 0.857094
300, 3, wb, filler, NA, 999, 999, 4, 32, 151, 75, 109, 121, 72, 186, 2, 0.845507
300, 3, wb, filler, NA, 999, 999, 4, 33, 150, 149, 138, 136, 120, 101, 2, 1.29723
300, 3, wb, filler, NA, 999, 999, 4, 33, 150, 149, 138, 136, 120, 101, 3, 1.16404
300, 3, wb, attraction, a-b-db, 14, 3, 4, 34, 120, 195, 111, 181, 195, 120, 3, 2.13092
300, 3, wb, attraction, a-b-db, 14, 3, 4, 34, 120, 195, 111, 181, 195, 120, 1, 0.588211
300, 3, wb, attraction, a-b-da, 2, 1, 4, 35, 134, 59, 135, 60, 60, 135, 2, 0.930757
300, 3, wb, attraction, a-b-da, 2, 1, 4, 35, 134, 59, 135, 60, 60, 135, 1, 0.628332
300, 3, wb, filler, NA, 999, 999, 4, 36, 130, 145, 138, 192, 70, 125, 3, 0.968844
300, 3, wb, filler, NA, 999, 999, 4, 36, 130, 145, 138, 192, 70, 125, 2, 1.00914
300, 3, wb, attraction, a-b-da, 9, 1, 4, 37, 129, 57, 135, 60, 60, 135, 3, 2.98219
300, 3, wb, attraction, a-b-da, 9, 1, 4, 37, 129, 57, 135, 60, 60, 135, 2, 0.789087
300, 3, wb, attraction, a-b-db, 5, 2, 5, 1, 90, 165, 165, 90, 88, 161, 2, 2.68943
300, 3, wb, attraction, a-b-db, 5, 2, 5, 1, 90, 165, 165, 90, 88, 161, 3, 1.45989
300, 3, wb, attraction, a-b-db, 2, 2, 5, 2, 165, 90, 90, 165, 89, 163, 1, 1.11069
300, 3, wb, attraction, a-b-db, 2, 2, 5, 2, 165, 90, 90, 165, 89, 163, 2, 0.985031
300, 3, wb, attraction, a-b-da, 2, 1, 5, 3, 134, 59, 60, 135, 135, 60, 1, 1.27134
300, 3, wb, attraction, a-b-da, 2, 1, 5, 3, 134, 59, 60, 135, 135, 60, 2, 0.571604
300, 3, wb, attraction, a-b-db, 5, 3, 5, 4, 117, 190, 120, 195, 195, 120, 3, 2.67465
300, 3, wb, attraction, a-b-db, 5, 3, 5, 4, 117, 190, 120, 195, 195, 120, 2, 0.589776
300, 3, wb, attraction, a-b-da, 9, 3, 5, 5, 186, 114, 195, 120, 120, 195, 1, 1.96435
300, 3, wb, attraction, a-b-da, 9, 3, 5, 5, 186, 114, 195, 120, 120, 195, 3, 1.17238
300, 3, wb, attraction, a-b-da, 14, 2, 5, 6, 90, 165, 153, 83, 165, 90, 2, 2.62741
300, 3, wb, attraction, a-b-da, 14, 2, 5, 6, 90, 165, 153, 83, 165, 90, 3, 2.03238
300, 3, wb, filler, NA, 999, 999, 5, 7, 166, 118, 172, 88, 142, 136, 2, 0.836417
300, 3, wb, filler, NA, 999, 999, 5, 7, 166, 118, 172, 88, 142, 136, 3, 2.45805
300, 3, wb, attraction, a-b-db, 14, 1, 5, 8, 56, 125, 135, 60, 60, 135, 1, 2.20447
300, 3, wb, attraction, a-b-db, 14, 1, 5, 8, 56, 125, 135, 60, 60, 135, 2, 4.77117
300, 3, wb, filler, NA, 999, 999, 5, 9, 158, 60, 183, 171, 99, 63, 3, 1.37685
300, 3, wb, filler, NA, 999, 999, 5, 9, 158, 60, 183, 171, 99, 63, 2, 0.592468
300, 3, wb, attraction, a-b-db, 14, 2, 5, 10, 165, 90, 83, 153, 90, 165, 2, 2.11019
300, 3, wb, attraction, a-b-db, 14, 2, 5, 10, 165, 90, 83, 153, 90, 165, 1, 3.21623
300, 3, wb, attraction, a-b-db, 2, 3, 5, 11, 120, 195, 195, 120, 119, 193, 2, 5.14845
300, 3, wb, attraction, a-b-db, 2, 3, 5, 11, 120, 195, 195, 120, 119, 193, 1, 0.764191
300, 3, wb, attraction, a-b-db, 9, 1, 5, 12, 135, 60, 57, 129, 60, 135, 1, 2.72324
300, 3, wb, attraction, a-b-db, 9, 1, 5, 12, 135, 60, 57, 129, 60, 135, 3, 0.708366
300, 3, wb, filler, NA, 999, 999, 5, 13, 133, 118, 164, 58, 68, 145, 3, 2.82142
300, 3, wb, filler, NA, 999, 999, 5, 13, 133, 118, 164, 58, 68, 145, 1, 0.715158
300, 3, wb, attraction, a-b-db, 9, 3, 5, 14, 114, 186, 195, 120, 120, 195, 2, 3.14815
300, 3, wb, attraction, a-b-db, 9, 3, 5, 14, 114, 186, 195, 120, 120, 195, 1, 0.588525
300, 3, wb, filler, NA, 999, 999, 5, 15, 175, 139, 190, 156, 82, 57, 3, 0.722921
300, 3, wb, filler, NA, 999, 999, 5, 15, 175, 139, 190, 156, 82, 57, 2, 0.588621
300, 3, wb, attraction, a-b-da, 5, 1, 5, 16, 135, 60, 132, 58, 60, 135, 1, 3.57911
300, 3, wb, attraction, a-b-da, 5, 1, 5, 16, 135, 60, 132, 58, 60, 135, 3, 0.577954
300, 3, wb, filler, NA, 999, 999, 5, 17, 88, 171, 138, 187, 85, 101, 3, 2.04039
300, 3, wb, filler, NA, 999, 999, 5, 17, 88, 171, 138, 187, 85, 101, 2, 0.59705
300, 3, wb, attraction, a-b-db, 14, 3, 5, 18, 111, 181, 120, 195, 195, 120, 3, 1.45084
300, 3, wb, attraction, a-b-db, 14, 3, 5, 18, 111, 181, 120, 195, 195, 120, 2, 0.599688
300, 3, wb, filler, NA, 999, 999, 5, 19, 132, 171, 69, 186, 59, 168, 3, 2.38147
300, 3, wb, filler, NA, 999, 999, 5, 19, 132, 171, 69, 186, 59, 168, 1, 0.56462
300, 3, wb, catch, NA, 999, 999, 5, 20, 96, 159, 132, 63, 179, 136, 2, 2.04374
300, 3, wb, catch, NA, 999, 999, 5, 20, 96, 159, 132, 63, 179, 136, 3, 0.480504
300, 3, wb, attraction, a-b-da, 5, 2, 5, 21, 161, 88, 165, 90, 90, 165, 3, 1.53086
300, 3, wb, attraction, a-b-da, 5, 2, 5, 21, 161, 88, 165, 90, 90, 165, 2, 3.89238
300, 3, wb, attraction, a-b-db, 9, 2, 5, 22, 86, 157, 165, 90, 90, 165, 1, 1.11711
300, 3, wb, attraction, a-b-db, 9, 2, 5, 22, 86, 157, 165, 90, 90, 165, 3, 1.05543
300, 3, wb, attraction, a-b-da, 14, 3, 5, 23, 195, 120, 181, 111, 120, 195, 1, 5.17898
300, 3, wb, attraction, a-b-da, 14, 3, 5, 23, 195, 120, 181, 111, 120, 195, 3, 0.385296
300, 3, wb, catch, NA, 999, 999, 5, 24, 151, 104, 111, 84, 145, 170, 2, 0.719781
300, 3, wb, catch, NA, 999, 999, 5, 24, 151, 104, 111, 84, 145, 170, 3, 0.346235
300, 3, wb, attraction, a-b-da, 2, 2, 5, 25, 165, 90, 90, 165, 163, 89, 1, 3.57812
300, 3, wb, attraction, a-b-da, 2, 2, 5, 25, 165, 90, 90, 165, 163, 89, 2, 0.584885
300, 3, wb, attraction, a-b-da, 9, 1, 5, 26, 60, 135, 129, 57, 135, 60, 1, 2.23938
300, 3, wb, attraction, a-b-da, 9, 1, 5, 26, 60, 135, 129, 57, 135, 60, 3, 0.764013
300, 3, wb, catch, NA, 999, 999, 5, 27, 108, 147, 112, 83, 192, 123, 2, 0.955024
300, 3, wb, catch, NA, 999, 999, 5, 27, 108, 147, 112, 83, 192, 123, 3, 0.571386
300, 3, wb, attraction, a-b-da, 2, 3, 5, 28, 120, 195, 193, 119, 195, 120, 3, 4.50646
300, 3, wb, attraction, a-b-da, 2, 3, 5, 28, 120, 195, 193, 119, 195, 120, 1, 0.539697
300, 3, wb, attraction, a-b-db, 5, 1, 5, 29, 135, 60, 60, 135, 58, 132, 1, 2.14013
300, 3, wb, attraction, a-b-db, 5, 1, 5, 29, 135, 60, 60, 135, 58, 132, 3, 0.52872
300, 3, wb, filler, NA, 999, 999, 5, 30, 192, 73, 116, 175, 146, 89, 1, 1.75736
300, 3, wb, filler, NA, 999, 999, 5, 30, 192, 73, 116, 175, 146, 89, 2, 0.541303
300, 3, wb, filler, NA, 999, 999, 5, 31, 153, 185, 90, 159, 93, 87, 3, 1.46108
300, 3, wb, filler, NA, 999, 999, 5, 31, 153, 185, 90, 159, 93, 87, 1, 0.977231
300, 3, wb, attraction, a-b-da, 14, 1, 5, 32, 135, 60, 125, 56, 60, 135, 3, 4.35155
300, 3, wb, attraction, a-b-da, 14, 1, 5, 32, 135, 60, 125, 56, 60, 135, 1, 1.18345
300, 3, wb, filler, NA, 999, 999, 5, 33, 124, 141, 144, 194, 114, 99, 3, 1.58974
300, 3, wb, filler, NA, 999, 999, 5, 33, 124, 141, 144, 194, 114, 99, 2, 0.612582
300, 3, wb, attraction, a-b-da, 9, 2, 5, 34, 157, 86, 90, 165, 165, 90, 1, 4.62564
300, 3, wb, attraction, a-b-da, 9, 2, 5, 34, 157, 86, 90, 165, 165, 90, 2, 0.894129
300, 3, wb, attraction, a-b-da, 5, 3, 5, 35, 195, 120, 120, 195, 190, 117, 3, 4.4638
300, 3, wb, attraction, a-b-da, 5, 3, 5, 35, 195, 120, 120, 195, 190, 117, 2, 0.899093
300, 3, wb, filler, NA, 999, 999, 5, 36, 163, 80, 133, 195, 67, 81, 3, 1.03673
300, 3, wb, filler, NA, 999, 999, 5, 36, 163, 80, 133, 195, 67, 81, 2, 0.578347
300, 3, wb, attraction, a-b-db, 2, 1, 5, 37, 60, 135, 135, 60, 59, 134, 2, 7.08876
300, 3, wb, attraction, a-b-db, 2, 1, 5, 37, 60, 135, 135, 60, 59, 134, 1, 1.0186
300, 3, wb, attraction, a-b-da, 5, 1, 6, 1, 135, 60, 60, 135, 132, 58, 1, 1.16751
300, 3, wb, attraction, a-b-da, 5, 1, 6, 1, 135, 60, 60, 135, 132, 58, 2, 2.43179
300, 3, wb, catch, NA, 999, 999, 6, 2, 141, 114, 157, 158, 88, 107, 3, 1.23569
300, 3, wb, catch, NA, 999, 999, 6, 2, 141, 114, 157, 158, 88, 107, 2, 0.52138
300, 3, wb, filler, NA, 999, 999, 6, 3, 173, 163, 80, 64, 137, 80, 2, 0.978341
300, 3, wb, filler, NA, 999, 999, 6, 3, 173, 163, 80, 64, 137, 80, 1, 0.569972
300, 3, wb, attraction, a-b-da, 5, 3, 6, 4, 190, 117, 120, 195, 195, 120, 3, 4.40117
300, 3, wb, attraction, a-b-da, 5, 3, 6, 4, 190, 117, 120, 195, 195, 120, 2, 0.791017
300, 3, wb, attraction, a-b-db, 5, 3, 6, 5, 120, 195, 195, 120, 117, 190, 2, 3.31668
300, 3, wb, attraction, a-b-db, 5, 3, 6, 5, 120, 195, 195, 120, 117, 190, 1, 0.92635
300, 3, wb, attraction, a-b-da, 5, 2, 6, 6, 161, 88, 165, 90, 90, 165, 1, 1.98263
300, 3, wb, attraction, a-b-da, 5, 2, 6, 6, 161, 88, 165, 90, 90, 165, 3, 0.509936
300, 3, wb, catch, NA, 999, 999, 6, 7, 139, 176, 103, 92, 164, 91, 2, 1.03926
300, 3, wb, catch, NA, 999, 999, 6, 7, 139, 176, 103, 92, 164, 91, 1, 0.444111
300, 3, wb, attraction, a-b-db, 9, 3, 6, 8, 120, 195, 114, 186, 195, 120, 2, 2.64786
300, 3, wb, attraction, a-b-db, 9, 3, 6, 8, 120, 195, 114, 186, 195, 120, 1, 3.11643
300, 3, wb, filler, NA, 999, 999, 6, 9, 76, 119, 136, 178, 172, 109, 1, 0.916653
300, 3, wb, filler, NA, 999, 999, 6, 9, 76, 119, 136, 178, 172, 109, 2, 0.367015
300, 3, wb, filler, NA, 999, 999, 6, 10, 92, 79, 158, 76, 116, 67, 1, 0.83813
300, 3, wb, filler, NA, 999, 999, 6, 10, 92, 79, 158, 76, 116, 67, 2, 2.84318
300, 3, wb, attraction, a-b-db, 14, 3, 6, 11, 195, 120, 120, 195, 111, 181, 1, 3.79025
300, 3, wb, attraction, a-b-db, 14, 3, 6, 11, 195, 120, 120, 195, 111, 181, 2, 0.612549
300, 3, wb, attraction, a-b-da, 2, 1, 6, 12, 135, 60, 134, 59, 60, 135, 1, 1.62559
300, 3, wb, attraction, a-b-da, 2, 1, 6, 12, 135, 60, 134, 59, 60, 135, 3, 4.72697
300, 3, wb, filler, NA, 999, 999, 6, 13, 194, 85, 87, 161, 145, 150, 2, 2.41411
300, 3, wb, filler, NA, 999, 999, 6, 13, 194, 85, 87, 161, 145, 150, 3, 0.363991
300, 3, wb, attraction, a-b-da, 2, 2, 6, 14, 163, 89, 90, 165, 165, 90, 2, 2.31518
300, 3, wb, attraction, a-b-da, 2, 2, 6, 14, 163, 89, 90, 165, 165, 90, 3, 0.701145
300, 3, wb, attraction, a-b-db, 5, 1, 6, 15, 58, 132, 135, 60, 60, 135, 2, 0.902767
300, 3, wb, attraction, a-b-db, 5, 1, 6, 15, 58, 132, 135, 60, 60, 135, 1, 0.569842
300, 3, wb, catch, NA, 999, 999, 6, 16, 103, 92, 132, 183, 118, 137, 1, 0.680913
300, 3, wb, catch, NA, 999, 999, 6, 16, 103, 92, 132, 183, 118, 137, 2, 0.620691
300, 3, wb, filler, NA, 999, 999, 6, 17, 58, 187, 61, 61, 112, 184, 2, 0.881812
300, 3, wb, filler, NA, 999, 999, 6, 17, 58, 187, 61, 61, 112, 184, 3, 0.365563
300, 3, wb, filler, NA, 999, 999, 6, 18, 66, 66, 132, 75, 149, 108, 1, 0.740656
300, 3, wb, filler, NA, 999, 999, 6, 18, 66, 66, 132, 75, 149, 108, 3, 0.749808
300, 3, wb, attraction, a-b-db, 2, 2, 6, 19, 89, 163, 90, 165, 165, 90, 1, 3.7015
300, 3, wb, attraction, a-b-db, 2, 2, 6, 19, 89, 163, 90, 165, 165, 90, 2, 0.407622
300, 3, wb, attraction, a-b-db, 2, 3, 6, 20, 120, 195, 119, 193, 195, 120, 1, 0.748745
300, 3, wb, attraction, a-b-db, 2, 3, 6, 20, 120, 195, 119, 193, 195, 120, 2, 0.43781
300, 3, wb, attraction, a-b-da, 14, 2, 6, 21, 153, 83, 90, 165, 165, 90, 3, 1.11423
300, 3, wb, attraction, a-b-da, 14, 2, 6, 21, 153, 83, 90, 165, 165, 90, 1, 0.588493
300, 3, wb, attraction, a-b-db, 5, 2, 6, 22, 90, 165, 88, 161, 165, 90, 1, 0.819073
300, 3, wb, attraction, a-b-db, 5, 2, 6, 22, 90, 165, 88, 161, 165, 90, 2, 0.713374
300, 3, wb, filler, NA, 999, 999, 6, 23, 174, 62, 188, 126, 103, 107, 3, 1.0664
300, 3, wb, filler, NA, 999, 999, 6, 23, 174, 62, 188, 126, 103, 107, 2, 0.662716
300, 3, wb, attraction, a-b-da, 9, 1, 6, 24, 60, 135, 135, 60, 129, 57, 1, 1.2977
300, 3, wb, attraction, a-b-da, 9, 1, 6, 24, 60, 135, 135, 60, 129, 57, 3, 1.49267
300, 3, wb, filler, NA, 999, 999, 6, 25, 178, 158, 83, 60, 189, 167, 2, 0.78212
300, 3, wb, filler, NA, 999, 999, 6, 25, 178, 158, 83, 60, 189, 167, 1, 0.493877
300, 3, wb, attraction, a-b-da, 14, 3, 6, 26, 181, 111, 120, 195, 195, 120, 1, 1.56776
300, 3, wb, attraction, a-b-da, 14, 3, 6, 26, 181, 111, 120, 195, 195, 120, 3, 0.767822
300, 3, wb, attraction, a-b-db, 14, 1, 6, 27, 135, 60, 60, 135, 56, 125, 1, 1.55888
300, 3, wb, attraction, a-b-db, 14, 1, 6, 27, 135, 60, 60, 135, 56, 125, 2, 0.446997
300, 3, wb, attraction, a-b-da, 9, 3, 6, 28, 195, 120, 186, 114, 120, 195, 1, 1.39478
300, 3, wb, attraction, a-b-da, 9, 3, 6, 28, 195, 120, 186, 114, 120, 195, 2, 0.377689
300, 3, wb, attraction, a-b-db, 2, 1, 6, 29, 59, 134, 135, 60, 60, 135, 1, 1.41607
300, 3, wb, attraction, a-b-db, 2, 1, 6, 29, 59, 134, 135, 60, 60, 135, 3, 0.582339
300, 3, wb, attraction, a-b-da, 14, 1, 6, 30, 135, 60, 60, 135, 125, 56, 3, 2.47671
300, 3, wb, attraction, a-b-da, 14, 1, 6, 30, 135, 60, 60, 135, 125, 56, 1, 0.775983
300, 3, wb, attraction, a-b-da, 9, 2, 6, 31, 165, 90, 90, 165, 157, 86, 3, 2.44634
300, 3, wb, attraction, a-b-da, 9, 2, 6, 31, 165, 90, 90, 165, 157, 86, 1, 0.762911
300, 3, wb, filler, NA, 999, 999, 6, 32, 128, 176, 70, 103, 136, 138, 2, 0.753903
300, 3, wb, filler, NA, 999, 999, 6, 32, 128, 176, 70, 103, 136, 138, 1, 1.56231
300, 3, wb, attraction, a-b-da, 2, 3, 6, 33, 193, 119, 120, 195, 195, 120, 1, 1.90504
300, 3, wb, attraction, a-b-da, 2, 3, 6, 33, 193, 119, 120, 195, 195, 120, 2, 0.427245
300, 3, wb, attraction, a-b-db, 9, 1, 6, 34, 57, 129, 60, 135, 135, 60, 3, 0.831623
300, 3, wb, attraction, a-b-db, 9, 1, 6, 34, 57, 129, 60, 135, 135, 60, 2, 1.24551
300, 3, wb, attraction, a-b-db, 14, 2, 6, 35, 90, 165, 83, 153, 165, 90, 2, 1.92088
300, 3, wb, attraction, a-b-db, 14, 2, 6, 35, 90, 165, 83, 153, 165, 90, 1, 0.586281
300, 3, wb, filler, NA, 999, 999, 6, 36, 154, 184, 66, 187, 61, 84, 3, 1.40074
300, 3, wb, filler, NA, 999, 999, 6, 36, 154, 184, 66, 187, 61, 84, 1, 0.519537
300, 3, wb, attraction, a-b-db, 9, 2, 6, 37, 86, 157, 90, 165, 165, 90, 3, 3.24864
300, 3, wb, attraction, a-b-db, 9, 2, 6, 37, 86, 157, 90, 165, 165, 90, 2, 1.77296
300, 3, wb, attraction, a-b-db, 5, 2, 7, 1, 88, 161, 165, 90, 90, 165, 2, 4.23566
300, 3, wb, attraction, a-b-db, 5, 2, 7, 1, 88, 161, 165, 90, 90, 165, 1, 0.504509
300, 3, wb, attraction, a-b-db, 5, 3, 7, 2, 117, 190, 120, 195, 195, 120, 3, 4.1861
300, 3, wb, attraction, a-b-db, 5, 3, 7, 2, 117, 190, 120, 195, 195, 120, 1, 3.27284
300, 3, wb, attraction, a-b-db, 9, 1, 7, 3, 57, 129, 135, 60, 60, 135, 1, 5.40306
300, 3, wb, attraction, a-b-db, 9, 1, 7, 3, 57, 129, 135, 60, 60, 135, 3, 0.544648
300, 3, wb, attraction, a-b-da, 14, 3, 7, 4, 120, 195, 181, 111, 195, 120, 2, 5.48844
300, 3, wb, attraction, a-b-da, 14, 3, 7, 4, 120, 195, 181, 111, 195, 120, 1, 0.554798
300, 3, wb, filler, NA, 999, 999, 7, 5, 100, 95, 91, 117, 195, 158, 1, 1.03438
300, 3, wb, filler, NA, 999, 999, 7, 5, 100, 95, 91, 117, 195, 158, 3, 0.752093
300, 3, wb, attraction, a-b-da, 14, 1, 7, 6, 125, 56, 135, 60, 60, 135, 3, 3.4318
300, 3, wb, attraction, a-b-da, 14, 1, 7, 6, 125, 56, 135, 60, 60, 135, 2, 1.09274
300, 3, wb, attraction, a-b-da, 5, 3, 7, 7, 120, 195, 190, 117, 195, 120, 1, 1.24635
300, 3, wb, attraction, a-b-da, 5, 3, 7, 7, 120, 195, 190, 117, 195, 120, 2, 2.28333
300, 3, wb, filler, NA, 999, 999, 7, 8, 83, 73, 92, 124, 140, 113, 1, 0.83712
300, 3, wb, filler, NA, 999, 999, 7, 8, 83, 73, 92, 124, 140, 113, 2, 1.92281
300, 3, wb, attraction, a-b-db, 14, 1, 7, 9, 135, 60, 56, 125, 60, 135, 3, 1.91552
300, 3, wb, attraction, a-b-db, 14, 1, 7, 9, 135, 60, 56, 125, 60, 135, 1, 0.453641
300, 3, wb, attraction, a-b-da, 2, 1, 7, 10, 60, 135, 135, 60, 134, 59, 1, 0.793345
300, 3, wb, attraction, a-b-da, 2, 1, 7, 10, 60, 135, 135, 60, 134, 59, 3, 0.68044
300, 3, wb, attraction, a-b-db, 2, 2, 7, 11, 165, 90, 90, 165, 89, 163, 1, 1.40288
300, 3, wb, attraction, a-b-db, 2, 2, 7, 11, 165, 90, 90, 165, 89, 163, 2, 0.841766
300, 3, wb, attraction, a-b-da, 14, 2, 7, 12, 90, 165, 165, 90, 153, 83, 3, 1.11746
300, 3, wb, attraction, a-b-da, 14, 2, 7, 12, 90, 165, 165, 90, 153, 83, 2, 0.66375
300, 3, wb, attraction, a-b-db, 14, 2, 7, 13, 83, 153, 165, 90, 90, 165, 1, 2.93069
300, 3, wb, attraction, a-b-db, 14, 2, 7, 13, 83, 153, 165, 90, 90, 165, 3, 0.603723
300, 3, wb, attraction, a-b-da, 9, 1, 7, 14, 135, 60, 129, 57, 60, 135, 1, 1.78555
300, 3, wb, attraction, a-b-da, 9, 1, 7, 14, 135, 60, 129, 57, 60, 135, 2, 1.03297
300, 3, wb, attraction, a-b-da, 9, 2, 7, 15, 157, 86, 165, 90, 90, 165, 1, 1.68534
300, 3, wb, attraction, a-b-da, 9, 2, 7, 15, 157, 86, 165, 90, 90, 165, 3, 1.16069
300, 3, wb, attraction, a-b-da, 9, 3, 7, 16, 120, 195, 186, 114, 195, 120, 3, 3.09569
300, 3, wb, attraction, a-b-da, 9, 3, 7, 16, 120, 195, 186, 114, 195, 120, 1, 1.23387
300, 3, wb, catch, NA, 999, 999, 7, 17, 71, 124, 97, 158, 157, 158, 1, 0.814183
300, 3, wb, catch, NA, 999, 999, 7, 17, 71, 124, 97, 158, 157, 158, 3, 0.508653
300, 3, wb, attraction, a-b-da, 5, 2, 7, 18, 90, 165, 161, 88, 165, 90, 2, 3.46958
300, 3, wb, attraction, a-b-da, 5, 2, 7, 18, 90, 165, 161, 88, 165, 90, 1, 0.68135
300, 3, wb, filler, NA, 999, 999, 7, 19, 127, 171, 124, 97, 92, 188, 2, 0.979588
300, 3, wb, filler, NA, 999, 999, 7, 19, 127, 171, 124, 97, 92, 188, 1, 0.587319
300, 3, wb, filler, NA, 999, 999, 7, 20, 148, 122, 173, 58, 179, 158, 2, 1.03379
300, 3, wb, filler, NA, 999, 999, 7, 20, 148, 122, 173, 58, 179, 158, 3, 0.463351
300, 3, wb, attraction, a-b-db, 14, 3, 7, 21, 120, 195, 111, 181, 195, 120, 2, 3.09857
300, 3, wb, attraction, a-b-db, 14, 3, 7, 21, 120, 195, 111, 181, 195, 120, 1, 0.996846
300, 3, wb, filler, NA, 999, 999, 7, 22, 133, 156, 100, 143, 111, 185, 2, 1.76249
300, 3, wb, filler, NA, 999, 999, 7, 22, 133, 156, 100, 143, 111, 185, 1, 1.80258
300, 3, wb, attraction, a-b-da, 5, 1, 7, 23, 135, 60, 132, 58, 60, 135, 2, 1.72799
300, 3, wb, attraction, a-b-da, 5, 1, 7, 23, 135, 60, 132, 58, 60, 135, 3, 1.62536
300, 3, wb, filler, NA, 999, 999, 7, 24, 152, 183, 62, 86, 122, 63, 2, 1.9174
300, 3, wb, filler, NA, 999, 999, 7, 24, 152, 183, 62, 86, 122, 63, 1, 0.439634
300, 3, wb, attraction, a-b-db, 2, 1, 7, 25, 60, 135, 135, 60, 59, 134, 2, 1.34003
300, 3, wb, attraction, a-b-db, 2, 1, 7, 25, 60, 135, 135, 60, 59, 134, 1, 0.508884
300, 3, wb, filler, NA, 999, 999, 7, 26, 121, 68, 79, 152, 93, 86, 3, 1.32593
300, 3, wb, filler, NA, 999, 999, 7, 26, 121, 68, 79, 152, 93, 86, 1, 0.84753
300, 3, wb, attraction, a-b-db, 2, 3, 7, 27, 120, 195, 119, 193, 195, 120, 3, 1.30728
300, 3, wb, attraction, a-b-db, 2, 3, 7, 27, 120, 195, 119, 193, 195, 120, 1, 0.749511
300, 3, wb, filler, NA, 999, 999, 7, 28, 189, 161, 91, 82, 122, 111, 2, 0.693092
300, 3, wb, filler, NA, 999, 999, 7, 28, 189, 161, 91, 82, 122, 111, 1, 0.352267
300, 3, wb, filler, NA, 999, 999, 7, 29, 183, 111, 137, 158, 125, 135, 1, 1.90408
300, 3, wb, filler, NA, 999, 999, 7, 29, 183, 111, 137, 158, 125, 135, 2, 0.362867
300, 3, wb, attraction, a-b-db, 9, 3, 7, 30, 114, 186, 120, 195, 195, 120, 3, 1.16992
300, 3, wb, attraction, a-b-db, 9, 3, 7, 30, 114, 186, 120, 195, 195, 120, 2, 0.466185
300, 3, wb, attraction, a-b-db, 9, 2, 7, 31, 86, 157, 90, 165, 165, 90, 1, 1.26141
300, 3, wb, attraction, a-b-db, 9, 2, 7, 31, 86, 157, 90, 165, 165, 90, 2, 0.945628
300, 3, wb, catch, NA, 999, 999, 7, 32, 97, 98, 156, 159, 144, 111, 1, 1.16926
300, 3, wb, catch, NA, 999, 999, 7, 32, 97, 98, 156, 159, 144, 111, 2, 0.353509
300, 3, wb, attraction, a-b-da, 2, 2, 7, 33, 163, 89, 165, 90, 90, 165, 1, 2.80143
300, 3, wb, attraction, a-b-da, 2, 2, 7, 33, 163, 89, 165, 90, 90, 165, 2, 1.15188
300, 3, wb, catch, NA, 999, 999, 7, 34, 134, 181, 151, 104, 131, 64, 3, 0.73541
300, 3, wb, catch, NA, 999, 999, 7, 34, 134, 181, 151, 104, 131, 64, 2, 0.473232
300, 3, wb, attraction, a-b-db, 5, 1, 7, 35, 60, 135, 58, 132, 135, 60, 3, 2.19636
300, 3, wb, attraction, a-b-db, 5, 1, 7, 35, 60, 135, 58, 132, 135, 60, 2, 0.4589
300, 3, wb, attraction, a-b-da, 2, 3, 7, 36, 120, 195, 193, 119, 195, 120, 3, 2.174
300, 3, wb, attraction, a-b-da, 2, 3, 7, 36, 120, 195, 193, 119, 195, 120, 2, 0.869323
300, 3, wb, filler, NA, 999, 999, 7, 37, 85, 140, 191, 126, 119, 106, 3, 1.39222
300, 3, wb, filler, NA, 999, 999, 7, 37, 85, 140, 191, 126, 119, 106, 2, 0.383269
300, 3, wb, attraction, a-b-da, 14, 1, 8, 1, 135, 60, 60, 135, 125, 56, 1, 1.0377
300, 3, wb, attraction, a-b-da, 14, 1, 8, 1, 135, 60, 60, 135, 125, 56, 3, 0.867471
300, 3, wb, attraction, a-b-db, 9, 3, 8, 2, 114, 186, 120, 195, 195, 120, 1, 1.58232
300, 3, wb, attraction, a-b-db, 9, 3, 8, 2, 114, 186, 120, 195, 195, 120, 2, 1.62979
300, 3, wb, attraction, a-b-db, 5, 1, 8, 3, 60, 135, 58, 132, 135, 60, 3, 0.809903
300, 3, wb, attraction, a-b-db, 5, 1, 8, 3, 60, 135, 58, 132, 135, 60, 1, 0.544293
300, 3, wb, filler, NA, 999, 999, 8, 4, 109, 111, 125, 105, 162, 138, 1, 1.31204
300, 3, wb, filler, NA, 999, 999, 8, 4, 109, 111, 125, 105, 162, 138, 3, 0.394269
300, 3, wb, attraction, a-b-da, 9, 2, 8, 5, 157, 86, 165, 90, 90, 165, 1, 1.80806
300, 3, wb, attraction, a-b-da, 9, 2, 8, 5, 157, 86, 165, 90, 90, 165, 2, 0.790127
300, 3, wb, attraction, a-b-da, 2, 2, 8, 6, 165, 90, 90, 165, 163, 89, 3, 2.46068
300, 3, wb, attraction, a-b-da, 2, 2, 8, 6, 165, 90, 90, 165, 163, 89, 2, 1.48842
300, 3, wb, attraction, a-b-db, 14, 3, 8, 7, 111, 181, 120, 195, 195, 120, 1, 1.29862
300, 3, wb, attraction, a-b-db, 14, 3, 8, 7, 111, 181, 120, 195, 195, 120, 2, 0.805459
300, 3, wb, attraction, a-b-db, 5, 2, 8, 8, 90, 165, 165, 90, 88, 161, 3, 6.94708
300, 3, wb, attraction, a-b-db, 5, 2, 8, 8, 90, 165, 165, 90, 88, 161, 1, 0.49027
300, 3, wb, attraction, a-b-db, 2, 3, 8, 9, 120, 195, 195, 120, 119, 193, 1, 3.39612
300, 3, wb, attraction, a-b-db, 2, 3, 8, 9, 120, 195, 195, 120, 119, 193, 3, 0.522274
300, 3, wb, attraction, a-b-da, 5, 3, 8, 10, 190, 117, 195, 120, 120, 195, 1, 2.27541
300, 3, wb, attraction, a-b-da, 5, 3, 8, 10, 190, 117, 195, 120, 120, 195, 2, 0.590631
300, 3, wb, attraction, a-b-da, 9, 1, 8, 11, 60, 135, 129, 57, 135, 60, 3, 3.10046
300, 3, wb, attraction, a-b-da, 9, 1, 8, 11, 60, 135, 129, 57, 135, 60, 1, 0.702761
300, 3, wb, attraction, a-b-db, 9, 1, 8, 12, 57, 129, 60, 135, 135, 60, 2, 1.99247
300, 3, wb, attraction, a-b-db, 9, 1, 8, 12, 57, 129, 60, 135, 135, 60, 1, 1.14317
300, 3, wb, attraction, a-b-db, 9, 2, 8, 13, 86, 157, 165, 90, 90, 165, 3, 2.79879
300, 3, wb, attraction, a-b-db, 9, 2, 8, 13, 86, 157, 165, 90, 90, 165, 1, 0.501201
300, 3, wb, catch, NA, 999, 999, 8, 14, 104, 91, 109, 146, 182, 133, 1, 1.12708
300, 3, wb, catch, NA, 999, 999, 8, 14, 104, 91, 109, 146, 182, 133, 3, 0.832754
300, 3, wb, attraction, a-b-da, 5, 2, 8, 15, 161, 88, 165, 90, 90, 165, 2, 1.41297
300, 3, wb, attraction, a-b-da, 5, 2, 8, 15, 161, 88, 165, 90, 90, 165, 3, 1.74716
300, 3, wb, attraction, a-b-db, 5, 3, 8, 16, 120, 195, 117, 190, 195, 120, 3, 1.6025
300, 3, wb, attraction, a-b-db, 5, 3, 8, 16, 120, 195, 117, 190, 195, 120, 1, 0.553354
300, 3, wb, attraction, a-b-db, 14, 1, 8, 17, 60, 135, 56, 125, 135, 60, 1, 1.95322
300, 3, wb, attraction, a-b-db, 14, 1, 8, 17, 60, 135, 56, 125, 135, 60, 3, 1.21788
300, 3, wb, catch, NA, 999, 999, 8, 18, 105, 150, 128, 67, 128, 187, 2, 1.35867
300, 3, wb, catch, NA, 999, 999, 8, 18, 105, 150, 128, 67, 128, 187, 3, 0.398923
300, 3, wb, filler, NA, 999, 999, 8, 19, 142, 171, 72, 187, 173, 58, 3, 1.14075
300, 3, wb, filler, NA, 999, 999, 8, 19, 142, 171, 72, 187, 173, 58, 1, 0.493741
300, 3, wb, filler, NA, 999, 999, 8, 20, 178, 73, 194, 85, 168, 190, 1, 1.29548
300, 3, wb, filler, NA, 999, 999, 8, 20, 178, 73, 194, 85, 168, 190, 3, 0.482413
300, 3, wb, filler, NA, 999, 999, 8, 21, 90, 153, 185, 91, 58, 168, 3, 0.780785
300, 3, wb, filler, NA, 999, 999, 8, 21, 90, 153, 185, 91, 58, 168, 2, 0.940534
300, 3, wb, filler, NA, 999, 999, 8, 22, 176, 125, 132, 80, 83, 157, 2, 1.35621
300, 3, wb, filler, NA, 999, 999, 8, 22, 176, 125, 132, 80, 83, 157, 1, 0.428365
300, 3, wb, filler, NA, 999, 999, 8, 23, 129, 61, 189, 80, 160, 159, 1, 0.952828
300, 3, wb, filler, NA, 999, 999, 8, 23, 129, 61, 189, 80, 160, 159, 2, 3.63395
300, 3, wb, catch, NA, 999, 999, 8, 24, 86, 109, 124, 131, 177, 138, 1, 3.88535
300, 3, wb, catch, NA, 999, 999, 8, 24, 86, 109, 124, 131, 177, 138, 3, 1.14415
300, 3, wb, attraction, a-b-da, 5, 1, 8, 25, 132, 58, 60, 135, 135, 60, 1, 1.25578
300, 3, wb, attraction, a-b-da, 5, 1, 8, 25, 132, 58, 60, 135, 135, 60, 2, 0.779902
300, 3, wb, attraction, a-b-da, 14, 2, 8, 26, 165, 90, 153, 83, 90, 165, 1, 1.04226
300, 3, wb, attraction, a-b-da, 14, 2, 8, 26, 165, 90, 153, 83, 90, 165, 2, 2.05529
300, 3, wb, attraction, a-b-db, 2, 1, 8, 27, 59, 134, 135, 60, 60, 135, 3, 1.97855
300, 3, wb, attraction, a-b-db, 2, 1, 8, 27, 59, 134, 135, 60, 60, 135, 2, 0.673945
300, 3, wb, attraction, a-b-da, 2, 1, 8, 28, 134, 59, 60, 135, 135, 60, 3, 1.45233
300, 3, wb, attraction, a-b-da, 2, 1, 8, 28, 134, 59, 60, 135, 135, 60, 1, 0.777227
300, 3, wb, filler, NA, 999, 999, 8, 29, 79, 86, 181, 184, 96, 99, 1, 2.31159
300, 3, wb, filler, NA, 999, 999, 8, 29, 79, 86, 181, 184, 96, 99, 2, 1.28154
300, 3, wb, attraction, a-b-da, 2, 3, 8, 30, 195, 120, 120, 195, 193, 119, 1, 4.56365
300, 3, wb, attraction, a-b-da, 2, 3, 8, 30, 195, 120, 120, 195, 193, 119, 2, 0.650924
300, 3, wb, attraction, a-b-da, 14, 3, 8, 31, 195, 120, 181, 111, 120, 195, 1, 3.26272
300, 3, wb, attraction, a-b-da, 14, 3, 8, 31, 195, 120, 181, 111, 120, 195, 3, 0.874303
300, 3, wb, filler, NA, 999, 999, 8, 32, 190, 87, 173, 142, 108, 62, 3, 1.36471
300, 3, wb, filler, NA, 999, 999, 8, 32, 190, 87, 173, 142, 108, 62, 2, 0.716859
300, 3, wb, attraction, a-b-da, 9, 3, 8, 33, 195, 120, 120, 195, 186, 114, 3, 1.69387
300, 3, wb, attraction, a-b-da, 9, 3, 8, 33, 195, 120, 120, 195, 186, 114, 1, 0.536681
300, 3, wb, filler, NA, 999, 999, 8, 34, 107, 142, 94, 120, 92, 67, 3, 0.809125
300, 3, wb, filler, NA, 999, 999, 8, 34, 107, 142, 94, 120, 92, 67, 1, 0.519606
300, 3, wb, filler, NA, 999, 999, 8, 35, 114, 94, 143, 129, 88, 69, 3, 1.6887
300, 3, wb, filler, NA, 999, 999, 8, 35, 114, 94, 143, 129, 88, 69, 2, 0.371368
300, 3, wb, attraction, a-b-db, 2, 2, 8, 36, 89, 163, 165, 90, 90, 165, 2, 3.69056
300, 3, wb, attraction, a-b-db, 2, 2, 8, 36, 89, 163, 165, 90, 90, 165, 3, 0.476674
300, 3, wb, attraction, a-b-db, 14, 2, 8, 37, 165, 90, 83, 153, 90, 165, 3, 1.55912
300, 3, wb, attraction, a-b-db, 14, 2, 8, 37, 165, 90, 83, 153, 90, 165, 2, 0.575434
