sub_n, computer_n, bw_cond, effect, set, distance, diag, block_n, trial_n, h1, w1, h2, w2, h3, w3, choice, rt 
39, 3, bw, practice, NA, 999, 999, 0, 1, 82, 62, 68, 98, 174, 94, 3, 2.83772
39, 3, bw, practice, NA, 999, 999, 0, 1, 82, 62, 68, 98, 174, 94, 1, 4.32885
39, 3, bw, practice, NA, 999, 999, 0, 2, 130, 129, 116, 78, 150, 164, 3, 1.90953
39, 3, bw, practice, NA, 999, 999, 0, 2, 130, 129, 116, 78, 150, 164, 2, 1.30988
39, 3, bw, practice, NA, 999, 999, 0, 3, 182, 87, 170, 157, 69, 194, 2, 1.62799
39, 3, bw, practice, NA, 999, 999, 0, 3, 182, 87, 170, 157, 69, 194, 3, 0.825947
39, 3, bw, filler, NA, 999, 999, 1, 1, 130, 91, 134, 156, 103, 151, 2, 1.29332
39, 3, bw, filler, NA, 999, 999, 1, 1, 130, 91, 134, 156, 103, 151, 1, 0.864168
39, 3, bw, filler, NA, 999, 999, 1, 2, 97, 83, 187, 91, 128, 136, 2, 2.98724
39, 3, bw, filler, NA, 999, 999, 1, 2, 97, 83, 187, 91, 128, 136, 1, 0.874326
39, 3, bw, attraction, a-b-da, 5, 3, 1, 3, 195, 120, 190, 117, 120, 195, 2, 1.90858
39, 3, bw, attraction, a-b-da, 5, 3, 1, 3, 195, 120, 190, 117, 120, 195, 3, 3.60666
39, 3, bw, attraction, a-b-da, 5, 1, 1, 4, 135, 60, 60, 135, 132, 58, 2, 3.05145
39, 3, bw, attraction, a-b-da, 5, 1, 1, 4, 135, 60, 60, 135, 132, 58, 1, 0.99977
39, 3, bw, attraction, a-b-db, 14, 3, 1, 5, 120, 195, 195, 120, 111, 181, 2, 4.89346
39, 3, bw, attraction, a-b-db, 14, 3, 1, 5, 120, 195, 195, 120, 111, 181, 3, 0.519212
39, 3, bw, attraction, a-b-da, 9, 3, 1, 6, 186, 114, 195, 120, 120, 195, 2, 2.76825
39, 3, bw, attraction, a-b-da, 9, 3, 1, 6, 186, 114, 195, 120, 120, 195, 1, 1.25603
39, 3, bw, attraction, a-b-db, 5, 1, 1, 7, 135, 60, 58, 132, 60, 135, 2, 3.47563
39, 3, bw, attraction, a-b-db, 5, 1, 1, 7, 135, 60, 58, 132, 60, 135, 1, 0.72654
39, 3, bw, attraction, a-b-db, 5, 3, 1, 8, 120, 195, 117, 190, 195, 120, 2, 2.12697
39, 3, bw, attraction, a-b-db, 5, 3, 1, 8, 120, 195, 117, 190, 195, 120, 1, 1.05624
39, 3, bw, attraction, a-b-da, 2, 3, 1, 9, 120, 195, 195, 120, 193, 119, 2, 1.79592
39, 3, bw, attraction, a-b-da, 2, 3, 1, 9, 120, 195, 195, 120, 193, 119, 1, 0.530626
39, 3, bw, attraction, a-b-da, 5, 2, 1, 10, 90, 165, 165, 90, 161, 88, 2, 2.42701
39, 3, bw, attraction, a-b-da, 5, 2, 1, 10, 90, 165, 165, 90, 161, 88, 1, 0.728259
39, 3, bw, attraction, a-b-db, 9, 2, 1, 11, 86, 157, 165, 90, 90, 165, 2, 2.93662
39, 3, bw, attraction, a-b-db, 9, 2, 1, 11, 86, 157, 165, 90, 90, 165, 1, 2.35378
39, 3, bw, filler, NA, 999, 999, 1, 12, 148, 103, 92, 172, 119, 61, 2, 2.097
39, 3, bw, filler, NA, 999, 999, 1, 12, 148, 103, 92, 172, 119, 61, 3, 0.811599
39, 3, bw, filler, NA, 999, 999, 1, 13, 109, 173, 125, 145, 135, 153, 2, 2.39251
39, 3, bw, filler, NA, 999, 999, 1, 13, 109, 173, 125, 145, 135, 153, 1, 2.65528
39, 3, bw, filler, NA, 999, 999, 1, 14, 192, 133, 193, 94, 110, 68, 1, 2.16222
39, 3, bw, filler, NA, 999, 999, 1, 14, 192, 133, 193, 94, 110, 68, 3, 0.938238
39, 3, bw, catch, NA, 999, 999, 1, 15, 108, 87, 179, 136, 101, 154, 2, 1.14653
39, 3, bw, catch, NA, 999, 999, 1, 15, 108, 87, 179, 136, 101, 154, 1, 0.723463
39, 3, bw, filler, NA, 999, 999, 1, 16, 146, 195, 189, 109, 143, 94, 1, 1.73193
39, 3, bw, filler, NA, 999, 999, 1, 16, 146, 195, 189, 109, 143, 94, 3, 0.597227
39, 3, bw, attraction, a-b-db, 5, 2, 1, 17, 90, 165, 165, 90, 88, 161, 3, 3.39508
39, 3, bw, attraction, a-b-db, 5, 2, 1, 17, 90, 165, 165, 90, 88, 161, 2, 0.96927
39, 3, bw, filler, NA, 999, 999, 1, 18, 113, 106, 165, 112, 65, 185, 2, 1.61629
39, 3, bw, filler, NA, 999, 999, 1, 18, 113, 106, 165, 112, 65, 185, 1, 0.942403
39, 3, bw, filler, NA, 999, 999, 1, 19, 57, 114, 189, 174, 121, 156, 2, 1.14992
39, 3, bw, filler, NA, 999, 999, 1, 19, 57, 114, 189, 174, 121, 156, 1, 0.566955
39, 3, bw, attraction, a-b-da, 14, 1, 1, 20, 60, 135, 125, 56, 135, 60, 3, 3.24603
39, 3, bw, attraction, a-b-da, 14, 1, 1, 20, 60, 135, 125, 56, 135, 60, 1, 0.602467
39, 3, bw, attraction, a-b-db, 2, 3, 1, 21, 195, 120, 120, 195, 119, 193, 3, 3.45608
39, 3, bw, attraction, a-b-db, 2, 3, 1, 21, 195, 120, 120, 195, 119, 193, 1, 0.683661
39, 3, bw, attraction, a-b-da, 14, 3, 1, 22, 181, 111, 195, 120, 120, 195, 3, 4.50213
39, 3, bw, attraction, a-b-da, 14, 3, 1, 22, 181, 111, 195, 120, 120, 195, 1, 1.15199
39, 3, bw, attraction, a-b-db, 2, 1, 1, 23, 135, 60, 60, 135, 59, 134, 2, 3.51173
39, 3, bw, attraction, a-b-db, 2, 1, 1, 23, 135, 60, 60, 135, 59, 134, 1, 0.897158
39, 3, bw, attraction, a-b-db, 14, 1, 1, 24, 56, 125, 60, 135, 135, 60, 2, 2.18685
39, 3, bw, attraction, a-b-db, 14, 1, 1, 24, 56, 125, 60, 135, 135, 60, 1, 0.650226
39, 3, bw, attraction, a-b-db, 14, 2, 1, 25, 83, 153, 165, 90, 90, 165, 3, 2.84585
39, 3, bw, attraction, a-b-db, 14, 2, 1, 25, 83, 153, 165, 90, 90, 165, 1, 0.730201
39, 3, bw, attraction, a-b-db, 9, 3, 1, 26, 195, 120, 114, 186, 120, 195, 3, 3.37859
39, 3, bw, attraction, a-b-db, 9, 3, 1, 26, 195, 120, 114, 186, 120, 195, 1, 0.689549
39, 3, bw, attraction, a-b-da, 14, 2, 1, 27, 153, 83, 165, 90, 90, 165, 2, 2.73992
39, 3, bw, attraction, a-b-da, 14, 2, 1, 27, 153, 83, 165, 90, 90, 165, 1, 0.844391
39, 3, bw, attraction, a-b-db, 2, 2, 1, 28, 165, 90, 89, 163, 90, 165, 2, 2.44803
39, 3, bw, attraction, a-b-db, 2, 2, 1, 28, 165, 90, 89, 163, 90, 165, 1, 0.61248
39, 3, bw, catch, NA, 999, 999, 1, 29, 170, 145, 87, 108, 150, 105, 1, 1.25759
39, 3, bw, catch, NA, 999, 999, 1, 29, 170, 145, 87, 108, 150, 105, 2, 3.08602
39, 3, bw, catch, NA, 999, 999, 1, 30, 149, 166, 105, 150, 69, 126, 1, 2.11152
39, 3, bw, catch, NA, 999, 999, 1, 30, 149, 166, 105, 150, 69, 126, 3, 0.777598
39, 3, bw, attraction, a-b-da, 9, 1, 1, 31, 135, 60, 60, 135, 129, 57, 1, 3.16788
39, 3, bw, attraction, a-b-da, 9, 1, 1, 31, 135, 60, 60, 135, 129, 57, 3, 0.751545
39, 3, bw, attraction, a-b-da, 9, 2, 1, 32, 157, 86, 90, 165, 165, 90, 2, 1.9272
39, 3, bw, attraction, a-b-da, 9, 2, 1, 32, 157, 86, 90, 165, 165, 90, 1, 0.65664
39, 3, bw, attraction, a-b-db, 9, 1, 1, 33, 135, 60, 60, 135, 57, 129, 2, 1.6997
39, 3, bw, attraction, a-b-db, 9, 1, 1, 33, 135, 60, 60, 135, 57, 129, 1, 0.670562
39, 3, bw, attraction, a-b-da, 2, 1, 1, 34, 60, 135, 134, 59, 135, 60, 3, 1.56153
39, 3, bw, attraction, a-b-da, 2, 1, 1, 34, 60, 135, 134, 59, 135, 60, 2, 0.594127
39, 3, bw, attraction, a-b-da, 2, 2, 1, 35, 165, 90, 90, 165, 163, 89, 2, 1.06338
39, 3, bw, attraction, a-b-da, 2, 2, 1, 35, 165, 90, 90, 165, 163, 89, 3, 0.499827
39, 3, bw, filler, NA, 999, 999, 1, 36, 177, 128, 96, 152, 68, 150, 1, 0.893446
39, 3, bw, filler, NA, 999, 999, 1, 36, 177, 128, 96, 152, 68, 150, 3, 0.624564
39, 3, bw, filler, NA, 999, 999, 1, 37, 108, 59, 127, 66, 96, 149, 3, 0.757
39, 3, bw, filler, NA, 999, 999, 1, 37, 108, 59, 127, 66, 96, 149, 1, 0.565266
39, 3, bw, attraction, a-b-db, 14, 2, 2, 1, 165, 90, 90, 165, 83, 153, 2, 1.66849
39, 3, bw, attraction, a-b-db, 14, 2, 2, 1, 165, 90, 90, 165, 83, 153, 1, 0.464578
39, 3, bw, filler, NA, 999, 999, 2, 2, 171, 132, 182, 93, 105, 161, 1, 0.899739
39, 3, bw, filler, NA, 999, 999, 2, 2, 171, 132, 182, 93, 105, 161, 2, 0.534792
39, 3, bw, attraction, a-b-da, 5, 2, 2, 3, 161, 88, 165, 90, 90, 165, 1, 2.04731
39, 3, bw, attraction, a-b-da, 5, 2, 2, 3, 161, 88, 165, 90, 90, 165, 2, 0.451752
39, 3, bw, filler, NA, 999, 999, 2, 4, 97, 110, 146, 81, 149, 152, 3, 1.27974
39, 3, bw, filler, NA, 999, 999, 2, 4, 97, 110, 146, 81, 149, 152, 1, 0.819204
39, 3, bw, attraction, a-b-db, 5, 3, 2, 5, 120, 195, 195, 120, 117, 190, 3, 0.984287
39, 3, bw, attraction, a-b-db, 5, 3, 2, 5, 120, 195, 195, 120, 117, 190, 1, 1.39187
39, 3, bw, attraction, a-b-da, 2, 3, 2, 6, 195, 120, 120, 195, 193, 119, 2, 1.62947
39, 3, bw, attraction, a-b-da, 2, 3, 2, 6, 195, 120, 120, 195, 193, 119, 1, 0.530994
39, 3, bw, attraction, a-b-da, 9, 3, 2, 7, 195, 120, 120, 195, 186, 114, 2, 1.35526
39, 3, bw, attraction, a-b-da, 9, 3, 2, 7, 195, 120, 120, 195, 186, 114, 3, 0.387532
39, 3, bw, attraction, a-b-db, 9, 1, 2, 8, 57, 129, 135, 60, 60, 135, 3, 2.05008
39, 3, bw, attraction, a-b-db, 9, 1, 2, 8, 57, 129, 135, 60, 60, 135, 1, 0.662622
39, 3, bw, attraction, a-b-da, 14, 2, 2, 9, 153, 83, 165, 90, 90, 165, 3, 1.44976
39, 3, bw, attraction, a-b-da, 14, 2, 2, 9, 153, 83, 165, 90, 90, 165, 1, 0.630652
39, 3, bw, catch, NA, 999, 999, 2, 10, 113, 82, 184, 131, 142, 113, 2, 0.850931
39, 3, bw, catch, NA, 999, 999, 2, 10, 113, 82, 184, 131, 142, 113, 1, 0.616162
39, 3, bw, attraction, a-b-db, 14, 3, 2, 11, 195, 120, 120, 195, 111, 181, 2, 4.26113
39, 3, bw, attraction, a-b-db, 14, 3, 2, 11, 195, 120, 120, 195, 111, 181, 3, 1.09646
39, 3, bw, attraction, a-b-db, 14, 1, 2, 12, 56, 125, 135, 60, 60, 135, 3, 2.42614
39, 3, bw, attraction, a-b-db, 14, 1, 2, 12, 56, 125, 135, 60, 60, 135, 1, 0.495275
39, 3, bw, attraction, a-b-db, 9, 3, 2, 13, 120, 195, 114, 186, 195, 120, 2, 6.10514
39, 3, bw, attraction, a-b-db, 9, 3, 2, 13, 120, 195, 114, 186, 195, 120, 1, 0.498357
39, 3, bw, attraction, a-b-db, 9, 2, 2, 14, 165, 90, 90, 165, 86, 157, 2, 6.42824
39, 3, bw, attraction, a-b-db, 9, 2, 2, 14, 165, 90, 90, 165, 86, 157, 1, 0.728302
39, 3, bw, filler, NA, 999, 999, 2, 15, 116, 87, 162, 119, 62, 84, 2, 1.75259
39, 3, bw, filler, NA, 999, 999, 2, 15, 116, 87, 162, 119, 62, 84, 3, 0.577376
39, 3, bw, filler, NA, 999, 999, 2, 16, 180, 119, 98, 194, 76, 158, 1, 0.887733
39, 3, bw, filler, NA, 999, 999, 2, 16, 180, 119, 98, 194, 76, 158, 3, 0.579435
39, 3, bw, attraction, a-b-db, 2, 3, 2, 17, 195, 120, 119, 193, 120, 195, 3, 0.906001
39, 3, bw, attraction, a-b-db, 2, 3, 2, 17, 195, 120, 119, 193, 120, 195, 1, 0.964353
39, 3, bw, attraction, a-b-da, 14, 1, 2, 18, 135, 60, 60, 135, 125, 56, 2, 2.46735
39, 3, bw, attraction, a-b-da, 14, 1, 2, 18, 135, 60, 60, 135, 125, 56, 1, 0.887353
39, 3, bw, catch, NA, 999, 999, 2, 19, 76, 119, 164, 151, 124, 131, 2, 1.95346
39, 3, bw, catch, NA, 999, 999, 2, 19, 76, 119, 164, 151, 124, 131, 1, 0.754195
39, 3, bw, filler, NA, 999, 999, 2, 20, 180, 82, 176, 165, 58, 67, 2, 0.897893
39, 3, bw, filler, NA, 999, 999, 2, 20, 180, 82, 176, 165, 58, 67, 3, 0.492851
39, 3, bw, attraction, a-b-da, 5, 3, 2, 21, 195, 120, 190, 117, 120, 195, 3, 2.59068
39, 3, bw, attraction, a-b-da, 5, 3, 2, 21, 195, 120, 190, 117, 120, 195, 2, 0.717142
39, 3, bw, attraction, a-b-da, 9, 2, 2, 22, 157, 86, 165, 90, 90, 165, 3, 3.26221
39, 3, bw, attraction, a-b-da, 9, 2, 2, 22, 157, 86, 165, 90, 90, 165, 1, 2.08186
39, 3, bw, filler, NA, 999, 999, 2, 23, 104, 181, 80, 102, 173, 145, 3, 1.02779
39, 3, bw, filler, NA, 999, 999, 2, 23, 104, 181, 80, 102, 173, 145, 2, 0.545481
39, 3, bw, attraction, a-b-da, 2, 1, 2, 24, 134, 59, 135, 60, 60, 135, 3, 2.69723
39, 3, bw, attraction, a-b-da, 2, 1, 2, 24, 134, 59, 135, 60, 60, 135, 2, 0.939691
39, 3, bw, filler, NA, 999, 999, 2, 25, 107, 63, 162, 193, 96, 158, 2, 2.20394
39, 3, bw, filler, NA, 999, 999, 2, 25, 107, 63, 162, 193, 96, 158, 1, 1.28259
39, 3, bw, attraction, a-b-da, 9, 1, 2, 26, 129, 57, 60, 135, 135, 60, 2, 3.90881
39, 3, bw, attraction, a-b-da, 9, 1, 2, 26, 129, 57, 60, 135, 135, 60, 1, 0.742211
39, 3, bw, attraction, a-b-db, 2, 1, 2, 27, 135, 60, 60, 135, 59, 134, 2, 1.81403
39, 3, bw, attraction, a-b-db, 2, 1, 2, 27, 135, 60, 60, 135, 59, 134, 1, 0.900208
39, 3, bw, attraction, a-b-da, 14, 3, 2, 28, 195, 120, 181, 111, 120, 195, 3, 1.8857
39, 3, bw, attraction, a-b-da, 14, 3, 2, 28, 195, 120, 181, 111, 120, 195, 2, 0.817063
39, 3, bw, attraction, a-b-db, 5, 2, 2, 29, 88, 161, 90, 165, 165, 90, 2, 2.4141
39, 3, bw, attraction, a-b-db, 5, 2, 2, 29, 88, 161, 90, 165, 165, 90, 1, 0.699928
39, 3, bw, attraction, a-b-da, 2, 2, 2, 30, 90, 165, 163, 89, 165, 90, 3, 1.59769
39, 3, bw, attraction, a-b-da, 2, 2, 2, 30, 90, 165, 163, 89, 165, 90, 2, 1.46047
39, 3, bw, filler, NA, 999, 999, 2, 31, 171, 76, 176, 92, 105, 158, 3, 1.49522
39, 3, bw, filler, NA, 999, 999, 2, 31, 171, 76, 176, 92, 105, 158, 1, 0.866082
39, 3, bw, attraction, a-b-db, 2, 2, 2, 32, 89, 163, 90, 165, 165, 90, 2, 1.22135
39, 3, bw, attraction, a-b-db, 2, 2, 2, 32, 89, 163, 90, 165, 165, 90, 3, 0.706782
39, 3, bw, filler, NA, 999, 999, 2, 33, 132, 72, 163, 109, 130, 124, 3, 1.28388
39, 3, bw, filler, NA, 999, 999, 2, 33, 132, 72, 163, 109, 130, 124, 1, 0.75947
39, 3, bw, attraction, a-b-da, 5, 1, 2, 34, 132, 58, 135, 60, 60, 135, 3, 1.58247
39, 3, bw, attraction, a-b-da, 5, 1, 2, 34, 132, 58, 135, 60, 60, 135, 2, 1.07796
39, 3, bw, attraction, a-b-db, 5, 1, 2, 35, 135, 60, 60, 135, 58, 132, 2, 1.15212
39, 3, bw, attraction, a-b-db, 5, 1, 2, 35, 135, 60, 60, 135, 58, 132, 1, 0.62507
39, 3, bw, filler, NA, 999, 999, 2, 36, 83, 70, 171, 104, 183, 108, 3, 1.98147
39, 3, bw, filler, NA, 999, 999, 2, 36, 83, 70, 171, 104, 183, 108, 1, 0.500816
39, 3, bw, catch, NA, 999, 999, 2, 37, 122, 73, 122, 193, 156, 99, 2, 0.838563
39, 3, bw, catch, NA, 999, 999, 2, 37, 122, 73, 122, 193, 156, 99, 1, 2.11572
39, 3, bw, attraction, a-b-db, 14, 3, 3, 1, 120, 195, 111, 181, 195, 120, 3, 2.98824
39, 3, bw, attraction, a-b-db, 14, 3, 3, 1, 120, 195, 111, 181, 195, 120, 2, 0.579318
39, 3, bw, attraction, a-b-da, 9, 1, 3, 2, 135, 60, 129, 57, 60, 135, 3, 4.5138
39, 3, bw, attraction, a-b-da, 9, 1, 3, 2, 135, 60, 129, 57, 60, 135, 2, 0.586985
39, 3, bw, attraction, a-b-da, 9, 2, 3, 3, 157, 86, 165, 90, 90, 165, 3, 2.24151
39, 3, bw, attraction, a-b-da, 9, 2, 3, 3, 157, 86, 165, 90, 90, 165, 1, 0.558055
39, 3, bw, filler, NA, 999, 999, 3, 4, 73, 116, 125, 81, 109, 88, 2, 3.43721
39, 3, bw, filler, NA, 999, 999, 3, 4, 73, 116, 125, 81, 109, 88, 1, 3.15412
39, 3, bw, attraction, a-b-da, 2, 3, 3, 5, 195, 120, 193, 119, 120, 195, 1, 1.61699
39, 3, bw, attraction, a-b-da, 2, 3, 3, 5, 195, 120, 193, 119, 120, 195, 2, 1.20713
39, 3, bw, catch, NA, 999, 999, 3, 6, 104, 91, 139, 176, 106, 149, 2, 4.64403
39, 3, bw, catch, NA, 999, 999, 3, 6, 104, 91, 139, 176, 106, 149, 1, 0.575901
39, 3, bw, attraction, a-b-db, 9, 3, 3, 7, 114, 186, 120, 195, 195, 120, 2, 2.4463
39, 3, bw, attraction, a-b-db, 9, 3, 3, 7, 114, 186, 120, 195, 195, 120, 1, 0.554858
39, 3, bw, filler, NA, 999, 999, 3, 8, 122, 71, 133, 179, 187, 59, 2, 2.27461
39, 3, bw, filler, NA, 999, 999, 3, 8, 122, 71, 133, 179, 187, 59, 1, 0.677885
39, 3, bw, attraction, a-b-db, 9, 2, 3, 9, 86, 157, 165, 90, 90, 165, 3, 5.58424
39, 3, bw, attraction, a-b-db, 9, 2, 3, 9, 86, 157, 165, 90, 90, 165, 1, 0.678595
39, 3, bw, catch, NA, 999, 999, 3, 10, 124, 71, 144, 111, 182, 133, 2, 1.30481
39, 3, bw, catch, NA, 999, 999, 3, 10, 124, 71, 144, 111, 182, 133, 1, 0.611792
39, 3, bw, attraction, a-b-da, 9, 3, 3, 11, 120, 195, 186, 114, 195, 120, 3, 2.75293
39, 3, bw, attraction, a-b-da, 9, 3, 3, 11, 120, 195, 186, 114, 195, 120, 1, 0.465373
39, 3, bw, attraction, a-b-db, 14, 1, 3, 12, 60, 135, 56, 125, 135, 60, 2, 1.18043
39, 3, bw, attraction, a-b-db, 14, 1, 3, 12, 60, 135, 56, 125, 135, 60, 1, 0.668105
39, 3, bw, attraction, a-b-db, 2, 1, 3, 13, 60, 135, 135, 60, 59, 134, 1, 1.31919
39, 3, bw, attraction, a-b-db, 2, 1, 3, 13, 60, 135, 135, 60, 59, 134, 2, 0.593375
39, 3, bw, attraction, a-b-db, 2, 2, 3, 14, 90, 165, 165, 90, 89, 163, 3, 4.23119
39, 3, bw, attraction, a-b-db, 2, 2, 3, 14, 90, 165, 165, 90, 89, 163, 2, 0.45977
39, 3, bw, attraction, a-b-da, 5, 1, 3, 15, 60, 135, 132, 58, 135, 60, 1, 3.92692
39, 3, bw, attraction, a-b-da, 5, 1, 3, 15, 60, 135, 132, 58, 135, 60, 2, 0.927634
39, 3, bw, attraction, a-b-db, 5, 1, 3, 16, 135, 60, 58, 132, 60, 135, 3, 2.53602
39, 3, bw, attraction, a-b-db, 5, 1, 3, 16, 135, 60, 58, 132, 60, 135, 1, 3.2651
39, 3, bw, attraction, a-b-da, 14, 1, 3, 17, 135, 60, 60, 135, 125, 56, 2, 2.05941
39, 3, bw, attraction, a-b-da, 14, 1, 3, 17, 135, 60, 60, 135, 125, 56, 3, 0.78335
39, 3, bw, attraction, a-b-db, 5, 3, 3, 18, 120, 195, 195, 120, 117, 190, 3, 4.34184
39, 3, bw, attraction, a-b-db, 5, 3, 3, 18, 120, 195, 195, 120, 117, 190, 2, 0.653755
39, 3, bw, filler, NA, 999, 999, 3, 19, 166, 146, 178, 119, 148, 171, 3, 3.15348
39, 3, bw, filler, NA, 999, 999, 3, 19, 166, 146, 178, 119, 148, 171, 2, 0.529691
39, 3, bw, attraction, a-b-da, 5, 3, 3, 20, 120, 195, 195, 120, 190, 117, 3, 3.00217
39, 3, bw, attraction, a-b-da, 5, 3, 3, 20, 120, 195, 195, 120, 190, 117, 2, 1.35266
39, 3, bw, attraction, a-b-db, 9, 1, 3, 21, 57, 129, 60, 135, 135, 60, 2, 2.56803
39, 3, bw, attraction, a-b-db, 9, 1, 3, 21, 57, 129, 60, 135, 135, 60, 3, 0.704076
39, 3, bw, attraction, a-b-da, 2, 1, 3, 22, 134, 59, 60, 135, 135, 60, 2, 1.74566
39, 3, bw, attraction, a-b-da, 2, 1, 3, 22, 134, 59, 60, 135, 135, 60, 1, 1.94645
39, 3, bw, filler, NA, 999, 999, 3, 23, 166, 76, 124, 75, 91, 134, 3, 1.38581
39, 3, bw, filler, NA, 999, 999, 3, 23, 166, 76, 124, 75, 91, 134, 2, 0.865336
39, 3, bw, filler, NA, 999, 999, 3, 24, 136, 79, 56, 152, 126, 195, 3, 1.00426
39, 3, bw, filler, NA, 999, 999, 3, 24, 136, 79, 56, 152, 126, 195, 2, 3.57941
39, 3, bw, attraction, a-b-db, 14, 2, 3, 25, 165, 90, 83, 153, 90, 165, 3, 3.84078
39, 3, bw, attraction, a-b-db, 14, 2, 3, 25, 165, 90, 83, 153, 90, 165, 2, 1.38093
39, 3, bw, attraction, a-b-da, 14, 2, 3, 26, 90, 165, 153, 83, 165, 90, 1, 2.37908
39, 3, bw, attraction, a-b-da, 14, 2, 3, 26, 90, 165, 153, 83, 165, 90, 2, 1.37838
39, 3, bw, filler, NA, 999, 999, 3, 27, 169, 92, 168, 93, 168, 163, 3, 1.68856
39, 3, bw, filler, NA, 999, 999, 3, 27, 169, 92, 168, 93, 168, 163, 1, 7.17937
39, 3, bw, attraction, a-b-db, 2, 3, 3, 28, 119, 193, 195, 120, 120, 195, 3, 1.75967
39, 3, bw, attraction, a-b-db, 2, 3, 3, 28, 119, 193, 195, 120, 120, 195, 2, 0.831816
39, 3, bw, filler, NA, 999, 999, 3, 29, 142, 145, 184, 162, 169, 168, 2, 3.77205
39, 3, bw, filler, NA, 999, 999, 3, 29, 142, 145, 184, 162, 169, 168, 1, 0.642739
39, 3, bw, filler, NA, 999, 999, 3, 30, 134, 129, 75, 145, 158, 77, 1, 2.63873
39, 3, bw, filler, NA, 999, 999, 3, 30, 134, 129, 75, 145, 158, 77, 2, 0.803123
39, 3, bw, filler, NA, 999, 999, 3, 31, 75, 151, 183, 176, 152, 127, 2, 2.19283
39, 3, bw, filler, NA, 999, 999, 3, 31, 75, 151, 183, 176, 152, 127, 1, 0.839373
39, 3, bw, attraction, a-b-da, 5, 2, 3, 32, 90, 165, 161, 88, 165, 90, 1, 3.97168
39, 3, bw, attraction, a-b-da, 5, 2, 3, 32, 90, 165, 161, 88, 165, 90, 3, 0.755072
39, 3, bw, attraction, a-b-da, 14, 3, 3, 33, 195, 120, 120, 195, 181, 111, 1, 3.97895
39, 3, bw, attraction, a-b-da, 14, 3, 3, 33, 195, 120, 120, 195, 181, 111, 3, 0.777528
39, 3, bw, catch, NA, 999, 999, 3, 34, 102, 153, 193, 122, 92, 103, 2, 3.71992
39, 3, bw, catch, NA, 999, 999, 3, 34, 102, 153, 193, 122, 92, 103, 3, 0.609315
39, 3, bw, attraction, a-b-db, 5, 2, 3, 35, 88, 161, 90, 165, 165, 90, 2, 4.4705
39, 3, bw, attraction, a-b-db, 5, 2, 3, 35, 88, 161, 90, 165, 165, 90, 1, 0.521705
39, 3, bw, filler, NA, 999, 999, 3, 36, 142, 158, 111, 129, 125, 94, 1, 2.81887
39, 3, bw, filler, NA, 999, 999, 3, 36, 142, 158, 111, 129, 125, 94, 2, 0.512603
39, 3, bw, attraction, a-b-da, 2, 2, 3, 37, 165, 90, 90, 165, 163, 89, 2, 1.24179
39, 3, bw, attraction, a-b-da, 2, 2, 3, 37, 165, 90, 90, 165, 163, 89, 1, 1.5587
39, 3, bw, attraction, a-b-da, 9, 3, 4, 1, 195, 120, 120, 195, 186, 114, 2, 3.78951
39, 3, bw, attraction, a-b-da, 9, 3, 4, 1, 195, 120, 120, 195, 186, 114, 1, 0.891541
39, 3, bw, filler, NA, 999, 999, 4, 2, 68, 114, 156, 57, 115, 142, 3, 1.09317
39, 3, bw, filler, NA, 999, 999, 4, 2, 68, 114, 156, 57, 115, 142, 1, 0.576289
39, 3, bw, attraction, a-b-da, 9, 2, 4, 3, 157, 86, 165, 90, 90, 165, 3, 2.08667
39, 3, bw, attraction, a-b-da, 9, 2, 4, 3, 157, 86, 165, 90, 90, 165, 1, 1.27399
39, 3, bw, attraction, a-b-da, 14, 1, 4, 4, 135, 60, 60, 135, 125, 56, 2, 1.78814
39, 3, bw, attraction, a-b-da, 14, 1, 4, 4, 135, 60, 60, 135, 125, 56, 3, 0.867481
39, 3, bw, filler, NA, 999, 999, 4, 5, 75, 147, 128, 120, 149, 178, 3, 1.63075
39, 3, bw, filler, NA, 999, 999, 4, 5, 75, 147, 128, 120, 149, 178, 1, 0.475987
39, 3, bw, attraction, a-b-db, 5, 2, 4, 6, 90, 165, 165, 90, 88, 161, 1, 5.67052
39, 3, bw, attraction, a-b-db, 5, 2, 4, 6, 90, 165, 165, 90, 88, 161, 3, 0.657313
39, 3, bw, filler, NA, 999, 999, 4, 7, 135, 187, 68, 129, 100, 128, 1, 1.49238
39, 3, bw, filler, NA, 999, 999, 4, 7, 135, 187, 68, 129, 100, 128, 3, 0.695295
39, 3, bw, attraction, a-b-db, 14, 1, 4, 8, 56, 125, 135, 60, 60, 135, 3, 2.50494
39, 3, bw, attraction, a-b-db, 14, 1, 4, 8, 56, 125, 135, 60, 60, 135, 1, 0.538765
39, 3, bw, catch, NA, 999, 999, 4, 9, 134, 121, 75, 120, 176, 139, 3, 0.79526
39, 3, bw, catch, NA, 999, 999, 4, 9, 134, 121, 75, 120, 176, 139, 2, 0.562374
39, 3, bw, filler, NA, 999, 999, 4, 10, 100, 105, 110, 173, 182, 128, 2, 0.785399
39, 3, bw, filler, NA, 999, 999, 4, 10, 100, 105, 110, 173, 182, 128, 1, 0.41712
39, 3, bw, filler, NA, 999, 999, 4, 11, 126, 62, 60, 127, 99, 117, 3, 0.830312
39, 3, bw, filler, NA, 999, 999, 4, 11, 126, 62, 60, 127, 99, 117, 2, 2.62817
39, 3, bw, attraction, a-b-da, 14, 3, 4, 12, 181, 111, 120, 195, 195, 120, 2, 4.31979
39, 3, bw, attraction, a-b-da, 14, 3, 4, 12, 181, 111, 120, 195, 195, 120, 1, 0.593072
39, 3, bw, attraction, a-b-da, 2, 1, 4, 13, 134, 59, 60, 135, 135, 60, 2, 2.39889
39, 3, bw, attraction, a-b-da, 2, 1, 4, 13, 134, 59, 60, 135, 135, 60, 3, 0.805318
39, 3, bw, filler, NA, 999, 999, 4, 14, 117, 123, 127, 86, 172, 84, 1, 1.53906
39, 3, bw, filler, NA, 999, 999, 4, 14, 117, 123, 127, 86, 172, 84, 2, 0.91586
39, 3, bw, attraction, a-b-da, 5, 1, 4, 15, 135, 60, 132, 58, 60, 135, 3, 1.20492
39, 3, bw, attraction, a-b-da, 5, 1, 4, 15, 135, 60, 132, 58, 60, 135, 2, 0.667226
39, 3, bw, attraction, a-b-da, 2, 2, 4, 16, 90, 165, 163, 89, 165, 90, 1, 1.44618
39, 3, bw, attraction, a-b-da, 2, 2, 4, 16, 90, 165, 163, 89, 165, 90, 2, 1.23505
39, 3, bw, attraction, a-b-db, 9, 3, 4, 17, 195, 120, 114, 186, 120, 195, 1, 3.31134
39, 3, bw, attraction, a-b-db, 9, 3, 4, 17, 195, 120, 114, 186, 120, 195, 2, 3.24097
39, 3, bw, attraction, a-b-db, 5, 3, 4, 18, 195, 120, 117, 190, 120, 195, 2, 5.24395
39, 3, bw, attraction, a-b-db, 5, 3, 4, 18, 195, 120, 117, 190, 120, 195, 3, 1.0715
39, 3, bw, attraction, a-b-db, 9, 2, 4, 19, 90, 165, 165, 90, 86, 157, 1, 9.21055
39, 3, bw, attraction, a-b-db, 9, 2, 4, 19, 90, 165, 165, 90, 86, 157, 3, 0.942221
39, 3, bw, attraction, a-b-db, 2, 3, 4, 20, 120, 195, 195, 120, 119, 193, 2, 3.04592
39, 3, bw, attraction, a-b-db, 2, 3, 4, 20, 120, 195, 195, 120, 119, 193, 3, 0.794178
39, 3, bw, attraction, a-b-db, 5, 1, 4, 21, 60, 135, 58, 132, 135, 60, 2, 3.29597
39, 3, bw, attraction, a-b-db, 5, 1, 4, 21, 60, 135, 58, 132, 135, 60, 3, 0.626321
39, 3, bw, attraction, a-b-db, 2, 1, 4, 22, 59, 134, 60, 135, 135, 60, 2, 1.17456
39, 3, bw, attraction, a-b-db, 2, 1, 4, 22, 59, 134, 60, 135, 135, 60, 3, 0.654322
39, 3, bw, attraction, a-b-db, 2, 2, 4, 23, 90, 165, 89, 163, 165, 90, 2, 2.11404
39, 3, bw, attraction, a-b-db, 2, 2, 4, 23, 90, 165, 89, 163, 165, 90, 3, 0.595876
39, 3, bw, filler, NA, 999, 999, 4, 24, 183, 183, 132, 165, 127, 60, 1, 1.00967
39, 3, bw, filler, NA, 999, 999, 4, 24, 183, 183, 132, 165, 127, 60, 3, 0.720002
39, 3, bw, filler, NA, 999, 999, 4, 25, 103, 160, 194, 158, 161, 175, 3, 1.03307
39, 3, bw, filler, NA, 999, 999, 4, 25, 103, 160, 194, 158, 161, 175, 1, 0.654695
39, 3, bw, attraction, a-b-db, 14, 2, 4, 26, 83, 153, 165, 90, 90, 165, 2, 10.1385
39, 3, bw, attraction, a-b-db, 14, 2, 4, 26, 83, 153, 165, 90, 90, 165, 1, 0.673315
39, 3, bw, attraction, a-b-db, 14, 3, 4, 27, 120, 195, 195, 120, 111, 181, 2, 1.06771
39, 3, bw, attraction, a-b-db, 14, 3, 4, 27, 120, 195, 195, 120, 111, 181, 1, 0.544049
39, 3, bw, catch, NA, 999, 999, 4, 28, 101, 94, 147, 168, 136, 119, 2, 1.46374
39, 3, bw, catch, NA, 999, 999, 4, 28, 101, 94, 147, 168, 136, 119, 1, 1.08388
39, 3, bw, filler, NA, 999, 999, 4, 29, 120, 168, 65, 192, 106, 136, 1, 1.07031
39, 3, bw, filler, NA, 999, 999, 4, 29, 120, 168, 65, 192, 106, 136, 3, 0.754381
39, 3, bw, attraction, a-b-da, 5, 2, 4, 30, 165, 90, 90, 165, 161, 88, 2, 8.59428
39, 3, bw, attraction, a-b-da, 5, 2, 4, 30, 165, 90, 90, 165, 161, 88, 1, 1.9908
39, 3, bw, attraction, a-b-db, 9, 1, 4, 31, 57, 129, 60, 135, 135, 60, 2, 1.97225
39, 3, bw, attraction, a-b-db, 9, 1, 4, 31, 57, 129, 60, 135, 135, 60, 3, 0.491504
39, 3, bw, catch, NA, 999, 999, 4, 32, 102, 153, 96, 99, 136, 179, 3, 1.21329
39, 3, bw, catch, NA, 999, 999, 4, 32, 102, 153, 96, 99, 136, 179, 2, 0.619498
39, 3, bw, attraction, a-b-da, 9, 1, 4, 33, 60, 135, 129, 57, 135, 60, 2, 0.944691
39, 3, bw, attraction, a-b-da, 9, 1, 4, 33, 60, 135, 129, 57, 135, 60, 3, 1.07373
39, 3, bw, attraction, a-b-da, 14, 2, 4, 34, 153, 83, 90, 165, 165, 90, 2, 0.899911
39, 3, bw, attraction, a-b-da, 14, 2, 4, 34, 153, 83, 90, 165, 165, 90, 1, 0.454952
39, 3, bw, attraction, a-b-da, 5, 3, 4, 35, 120, 195, 190, 117, 195, 120, 1, 1.89074
39, 3, bw, attraction, a-b-da, 5, 3, 4, 35, 120, 195, 190, 117, 195, 120, 3, 1.62148
39, 3, bw, attraction, a-b-da, 2, 3, 4, 36, 120, 195, 193, 119, 195, 120, 1, 1.52227
39, 3, bw, attraction, a-b-da, 2, 3, 4, 36, 120, 195, 193, 119, 195, 120, 3, 0.995784
39, 3, bw, filler, NA, 999, 999, 4, 37, 169, 104, 99, 160, 100, 178, 3, 1.53735
39, 3, bw, filler, NA, 999, 999, 4, 37, 169, 104, 99, 160, 100, 178, 1, 0.610862
39, 3, bw, attraction, a-b-da, 14, 2, 5, 1, 90, 165, 153, 83, 165, 90, 1, 2.47051
39, 3, bw, attraction, a-b-da, 14, 2, 5, 1, 90, 165, 153, 83, 165, 90, 2, 0.570387
39, 3, bw, attraction, a-b-db, 2, 2, 5, 2, 165, 90, 90, 165, 89, 163, 2, 1.51358
39, 3, bw, attraction, a-b-db, 2, 2, 5, 2, 165, 90, 90, 165, 89, 163, 1, 0.387594
39, 3, bw, filler, NA, 999, 999, 5, 3, 189, 183, 125, 108, 83, 67, 1, 0.994062
39, 3, bw, filler, NA, 999, 999, 5, 3, 189, 183, 125, 108, 83, 67, 3, 0.417246
39, 3, bw, attraction, a-b-da, 2, 2, 5, 4, 163, 89, 165, 90, 90, 165, 3, 1.19827
39, 3, bw, attraction, a-b-da, 2, 2, 5, 4, 163, 89, 165, 90, 90, 165, 1, 0.37324
39, 3, bw, attraction, a-b-db, 14, 1, 5, 5, 56, 125, 60, 135, 135, 60, 2, 2.07657
39, 3, bw, attraction, a-b-db, 14, 1, 5, 5, 56, 125, 60, 135, 135, 60, 3, 0.623849
39, 3, bw, filler, NA, 999, 999, 5, 6, 144, 82, 103, 70, 160, 121, 3, 1.03611
39, 3, bw, filler, NA, 999, 999, 5, 6, 144, 82, 103, 70, 160, 121, 2, 0.353724
39, 3, bw, filler, NA, 999, 999, 5, 7, 94, 189, 72, 109, 105, 186, 3, 0.945654
39, 3, bw, filler, NA, 999, 999, 5, 7, 94, 189, 72, 109, 105, 186, 2, 0.458646
39, 3, bw, attraction, a-b-db, 5, 3, 5, 8, 195, 120, 120, 195, 117, 190, 2, 1.48574
39, 3, bw, attraction, a-b-db, 5, 3, 5, 8, 195, 120, 120, 195, 117, 190, 3, 0.337245
39, 3, bw, attraction, a-b-db, 14, 2, 5, 9, 90, 165, 83, 153, 165, 90, 2, 1.43371
39, 3, bw, attraction, a-b-db, 14, 2, 5, 9, 90, 165, 83, 153, 165, 90, 1, 0.359265
39, 3, bw, attraction, a-b-da, 14, 3, 5, 10, 195, 120, 120, 195, 181, 111, 2, 1.52654
39, 3, bw, attraction, a-b-da, 14, 3, 5, 10, 195, 120, 120, 195, 181, 111, 3, 0.415961
39, 3, bw, attraction, a-b-da, 2, 3, 5, 11, 193, 119, 120, 195, 195, 120, 2, 1.62905
39, 3, bw, attraction, a-b-da, 2, 3, 5, 11, 193, 119, 120, 195, 195, 120, 1, 0.418557
39, 3, bw, attraction, a-b-db, 9, 3, 5, 12, 120, 195, 195, 120, 114, 186, 1, 2.40765
39, 3, bw, attraction, a-b-db, 9, 3, 5, 12, 120, 195, 195, 120, 114, 186, 3, 0.509567
39, 3, bw, catch, NA, 999, 999, 5, 13, 97, 158, 66, 129, 140, 175, 3, 1.03865
39, 3, bw, catch, NA, 999, 999, 5, 13, 97, 158, 66, 129, 140, 175, 2, 0.691602
39, 3, bw, filler, NA, 999, 999, 5, 14, 168, 176, 157, 134, 104, 169, 1, 2.22942
39, 3, bw, filler, NA, 999, 999, 5, 14, 168, 176, 157, 134, 104, 169, 3, 2.21886
39, 3, bw, filler, NA, 999, 999, 5, 15, 151, 170, 102, 142, 85, 175, 1, 1.72739
39, 3, bw, filler, NA, 999, 999, 5, 15, 151, 170, 102, 142, 85, 175, 2, 1.10476
39, 3, bw, attraction, a-b-da, 5, 2, 5, 16, 90, 165, 161, 88, 165, 90, 3, 2.37033
39, 3, bw, attraction, a-b-da, 5, 2, 5, 16, 90, 165, 161, 88, 165, 90, 2, 1.00212
39, 3, bw, attraction, a-b-da, 9, 3, 5, 17, 186, 114, 195, 120, 120, 195, 2, 1.06389
39, 3, bw, attraction, a-b-da, 9, 3, 5, 17, 186, 114, 195, 120, 120, 195, 1, 0.8682
39, 3, bw, attraction, a-b-db, 9, 2, 5, 18, 165, 90, 90, 165, 86, 157, 2, 0.831245
39, 3, bw, attraction, a-b-db, 9, 2, 5, 18, 165, 90, 90, 165, 86, 157, 1, 0.372811
39, 3, bw, attraction, a-b-db, 5, 2, 5, 19, 88, 161, 165, 90, 90, 165, 3, 1.30001
39, 3, bw, attraction, a-b-db, 5, 2, 5, 19, 88, 161, 165, 90, 90, 165, 2, 0.406914
39, 3, bw, attraction, a-b-db, 2, 1, 5, 20, 135, 60, 60, 135, 59, 134, 2, 1.27609
39, 3, bw, attraction, a-b-db, 2, 1, 5, 20, 135, 60, 60, 135, 59, 134, 1, 0.367557
39, 3, bw, catch, NA, 999, 999, 5, 21, 156, 159, 133, 122, 94, 101, 1, 1.0149
39, 3, bw, catch, NA, 999, 999, 5, 21, 156, 159, 133, 122, 94, 101, 3, 0.325141
39, 3, bw, filler, NA, 999, 999, 5, 22, 195, 123, 166, 138, 106, 175, 1, 1.35775
39, 3, bw, filler, NA, 999, 999, 5, 22, 195, 123, 166, 138, 106, 175, 3, 0.333839
39, 3, bw, filler, NA, 999, 999, 5, 23, 133, 93, 181, 167, 155, 181, 2, 0.790255
39, 3, bw, filler, NA, 999, 999, 5, 23, 133, 93, 181, 167, 155, 181, 1, 0.317425
39, 3, bw, filler, NA, 999, 999, 5, 24, 151, 125, 68, 114, 91, 192, 1, 1.05461
39, 3, bw, filler, NA, 999, 999, 5, 24, 151, 125, 68, 114, 91, 192, 2, 0.323506
39, 3, bw, attraction, a-b-db, 2, 3, 5, 25, 195, 120, 120, 195, 119, 193, 2, 1.06816
39, 3, bw, attraction, a-b-db, 2, 3, 5, 25, 195, 120, 120, 195, 119, 193, 1, 0.344261
39, 3, bw, attraction, a-b-da, 14, 1, 5, 26, 60, 135, 125, 56, 135, 60, 1, 1.46418
39, 3, bw, attraction, a-b-da, 14, 1, 5, 26, 60, 135, 125, 56, 135, 60, 2, 0.308445
39, 3, bw, filler, NA, 999, 999, 5, 27, 128, 186, 191, 83, 134, 180, 3, 1.0936
39, 3, bw, filler, NA, 999, 999, 5, 27, 128, 186, 191, 83, 134, 180, 2, 0.304466
39, 3, bw, attraction, a-b-da, 5, 1, 5, 28, 135, 60, 60, 135, 132, 58, 2, 1.04236
39, 3, bw, attraction, a-b-da, 5, 1, 5, 28, 135, 60, 60, 135, 132, 58, 3, 0.415532
39, 3, bw, attraction, a-b-db, 14, 3, 5, 29, 111, 181, 120, 195, 195, 120, 2, 2.72462
39, 3, bw, attraction, a-b-db, 14, 3, 5, 29, 111, 181, 120, 195, 195, 120, 1, 0.341634
39, 3, bw, attraction, a-b-da, 2, 1, 5, 30, 60, 135, 134, 59, 135, 60, 2, 2.21339
39, 3, bw, attraction, a-b-da, 2, 1, 5, 30, 60, 135, 134, 59, 135, 60, 1, 0.347425
39, 3, bw, catch, NA, 999, 999, 5, 31, 62, 133, 191, 124, 143, 112, 2, 0.843323
39, 3, bw, catch, NA, 999, 999, 5, 31, 62, 133, 191, 124, 143, 112, 1, 0.936291
39, 3, bw, attraction, a-b-db, 9, 1, 5, 32, 60, 135, 135, 60, 57, 129, 1, 3.34461
39, 3, bw, attraction, a-b-db, 9, 1, 5, 32, 60, 135, 135, 60, 57, 129, 3, 0.929045
39, 3, bw, attraction, a-b-db, 5, 1, 5, 33, 135, 60, 58, 132, 60, 135, 2, 2.06523
39, 3, bw, attraction, a-b-db, 5, 1, 5, 33, 135, 60, 58, 132, 60, 135, 1, 0.349213
39, 3, bw, attraction, a-b-da, 9, 2, 5, 34, 165, 90, 157, 86, 90, 165, 2, 0.892926
39, 3, bw, attraction, a-b-da, 9, 2, 5, 34, 165, 90, 157, 86, 90, 165, 3, 5.45622
39, 3, bw, attraction, a-b-da, 5, 3, 5, 35, 195, 120, 120, 195, 190, 117, 2, 2.93038
39, 3, bw, attraction, a-b-da, 5, 3, 5, 35, 195, 120, 120, 195, 190, 117, 3, 0.579261
39, 3, bw, attraction, a-b-da, 9, 1, 5, 36, 135, 60, 60, 135, 129, 57, 2, 0.769825
39, 3, bw, attraction, a-b-da, 9, 1, 5, 36, 135, 60, 60, 135, 129, 57, 3, 1.10616
39, 3, bw, filler, NA, 999, 999, 5, 37, 70, 172, 128, 117, 86, 149, 2, 2.84385
39, 3, bw, filler, NA, 999, 999, 5, 37, 70, 172, 128, 117, 86, 149, 1, 4.37612
39, 3, bw, filler, NA, 999, 999, 6, 1, 100, 67, 81, 75, 165, 58, 3, 3.11763
39, 3, bw, filler, NA, 999, 999, 6, 1, 100, 67, 81, 75, 165, 58, 2, 1.16755
39, 3, bw, catch, NA, 999, 999, 6, 2, 122, 73, 148, 167, 144, 111, 2, 2.53403
39, 3, bw, catch, NA, 999, 999, 6, 2, 122, 73, 148, 167, 144, 111, 1, 0.615243
39, 3, bw, attraction, a-b-da, 5, 3, 6, 3, 195, 120, 120, 195, 190, 117, 2, 3.34817
39, 3, bw, attraction, a-b-da, 5, 3, 6, 3, 195, 120, 120, 195, 190, 117, 1, 0.676459
39, 3, bw, filler, NA, 999, 999, 6, 4, 76, 116, 75, 69, 138, 86, 3, 1.17501
39, 3, bw, filler, NA, 999, 999, 6, 4, 76, 116, 75, 69, 138, 86, 2, 0.374627
39, 3, bw, attraction, a-b-db, 14, 3, 6, 5, 120, 195, 195, 120, 111, 181, 2, 1.03719
39, 3, bw, attraction, a-b-db, 14, 3, 6, 5, 120, 195, 195, 120, 111, 181, 1, 0.762653
39, 3, bw, filler, NA, 999, 999, 6, 6, 179, 155, 177, 71, 89, 190, 1, 1.0736
39, 3, bw, filler, NA, 999, 999, 6, 6, 179, 155, 177, 71, 89, 190, 3, 0.613296
39, 3, bw, catch, NA, 999, 999, 6, 7, 146, 109, 166, 149, 133, 62, 2, 2.45836
39, 3, bw, catch, NA, 999, 999, 6, 7, 146, 109, 166, 149, 133, 62, 3, 0.686301
39, 3, bw, attraction, a-b-da, 9, 1, 6, 8, 129, 57, 135, 60, 60, 135, 2, 1.59265
39, 3, bw, attraction, a-b-da, 9, 1, 6, 8, 129, 57, 135, 60, 60, 135, 3, 0.783439
39, 3, bw, attraction, a-b-db, 2, 3, 6, 9, 119, 193, 195, 120, 120, 195, 2, 0.821766
39, 3, bw, attraction, a-b-db, 2, 3, 6, 9, 119, 193, 195, 120, 120, 195, 3, 0.435638
39, 3, bw, attraction, a-b-db, 5, 1, 6, 10, 58, 132, 60, 135, 135, 60, 2, 0.760063
39, 3, bw, attraction, a-b-db, 5, 1, 6, 10, 58, 132, 60, 135, 135, 60, 3, 0.384416
39, 3, bw, filler, NA, 999, 999, 6, 11, 78, 137, 141, 171, 60, 102, 2, 5.03899
39, 3, bw, filler, NA, 999, 999, 6, 11, 78, 137, 141, 171, 60, 102, 3, 1.0747
39, 3, bw, filler, NA, 999, 999, 6, 12, 101, 147, 88, 62, 66, 115, 1, 0.940929
39, 3, bw, filler, NA, 999, 999, 6, 12, 101, 147, 88, 62, 66, 115, 2, 0.397927
39, 3, bw, attraction, a-b-da, 9, 2, 6, 13, 165, 90, 157, 86, 90, 165, 2, 1.52382
39, 3, bw, attraction, a-b-da, 9, 2, 6, 13, 165, 90, 157, 86, 90, 165, 3, 3.70142
39, 3, bw, attraction, a-b-da, 14, 1, 6, 14, 125, 56, 135, 60, 60, 135, 3, 7.52598
39, 3, bw, attraction, a-b-da, 14, 1, 6, 14, 125, 56, 135, 60, 60, 135, 1, 0.637596
39, 3, bw, filler, NA, 999, 999, 6, 15, 96, 100, 165, 58, 130, 86, 3, 6.74612
39, 3, bw, filler, NA, 999, 999, 6, 15, 96, 100, 165, 58, 130, 86, 1, 3.74527
39, 3, bw, attraction, a-b-db, 9, 2, 6, 16, 86, 157, 90, 165, 165, 90, 2, 2.56019
39, 3, bw, attraction, a-b-db, 9, 2, 6, 16, 86, 157, 90, 165, 165, 90, 3, 1.15197
39, 3, bw, filler, NA, 999, 999, 6, 17, 146, 80, 154, 161, 140, 62, 2, 2.81558
39, 3, bw, filler, NA, 999, 999, 6, 17, 146, 80, 154, 161, 140, 62, 3, 0.853265
39, 3, bw, attraction, a-b-db, 5, 2, 6, 18, 88, 161, 165, 90, 90, 165, 1, 0.840836
39, 3, bw, attraction, a-b-db, 5, 2, 6, 18, 88, 161, 165, 90, 90, 165, 2, 0.350049
39, 3, bw, attraction, a-b-db, 5, 3, 6, 19, 117, 190, 120, 195, 195, 120, 2, 1.7578
39, 3, bw, attraction, a-b-db, 5, 3, 6, 19, 117, 190, 120, 195, 195, 120, 3, 0.341779
39, 3, bw, filler, NA, 999, 999, 6, 20, 68, 90, 127, 177, 94, 178, 2, 1.36567
39, 3, bw, filler, NA, 999, 999, 6, 20, 68, 90, 127, 177, 94, 178, 1, 0.582083
39, 3, bw, attraction, a-b-db, 9, 3, 6, 21, 195, 120, 120, 195, 114, 186, 2, 0.964285
39, 3, bw, attraction, a-b-db, 9, 3, 6, 21, 195, 120, 120, 195, 114, 186, 3, 0.484661
39, 3, bw, attraction, a-b-da, 14, 2, 6, 22, 153, 83, 90, 165, 165, 90, 2, 0.807098
39, 3, bw, attraction, a-b-da, 14, 2, 6, 22, 153, 83, 90, 165, 165, 90, 1, 0.493539
39, 3, bw, attraction, a-b-db, 14, 2, 6, 23, 83, 153, 90, 165, 165, 90, 2, 1.13519
39, 3, bw, attraction, a-b-db, 14, 2, 6, 23, 83, 153, 90, 165, 165, 90, 1, 0.376855
39, 3, bw, attraction, a-b-db, 2, 1, 6, 24, 59, 134, 135, 60, 60, 135, 1, 1.71948
39, 3, bw, attraction, a-b-db, 2, 1, 6, 24, 59, 134, 135, 60, 60, 135, 2, 0.361495
39, 3, bw, filler, NA, 999, 999, 6, 25, 133, 98, 128, 71, 97, 172, 3, 1.48088
39, 3, bw, filler, NA, 999, 999, 6, 25, 133, 98, 128, 71, 97, 172, 2, 0.636136
39, 3, bw, catch, NA, 999, 999, 6, 26, 100, 155, 152, 163, 113, 82, 2, 0.776548
39, 3, bw, catch, NA, 999, 999, 6, 26, 100, 155, 152, 163, 113, 82, 3, 0.47233
39, 3, bw, attraction, a-b-db, 2, 2, 6, 27, 165, 90, 89, 163, 90, 165, 2, 1.76345
39, 3, bw, attraction, a-b-db, 2, 2, 6, 27, 165, 90, 89, 163, 90, 165, 1, 0.347448
39, 3, bw, attraction, a-b-da, 5, 2, 6, 28, 90, 165, 165, 90, 161, 88, 2, 1.0513
39, 3, bw, attraction, a-b-da, 5, 2, 6, 28, 90, 165, 165, 90, 161, 88, 3, 0.328332
39, 3, bw, attraction, a-b-da, 2, 1, 6, 29, 134, 59, 60, 135, 135, 60, 2, 0.928918
39, 3, bw, attraction, a-b-da, 2, 1, 6, 29, 134, 59, 60, 135, 135, 60, 1, 0.5626
39, 3, bw, attraction, a-b-db, 14, 1, 6, 30, 135, 60, 56, 125, 60, 135, 1, 1.66566
39, 3, bw, attraction, a-b-db, 14, 1, 6, 30, 135, 60, 56, 125, 60, 135, 2, 0.357749
39, 3, bw, attraction, a-b-db, 9, 1, 6, 31, 60, 135, 135, 60, 57, 129, 1, 1.49287
39, 3, bw, attraction, a-b-db, 9, 1, 6, 31, 60, 135, 135, 60, 57, 129, 2, 0.431696
39, 3, bw, attraction, a-b-da, 9, 3, 6, 32, 195, 120, 120, 195, 186, 114, 2, 1.29223
39, 3, bw, attraction, a-b-da, 9, 3, 6, 32, 195, 120, 120, 195, 186, 114, 3, 0.311269
39, 3, bw, attraction, a-b-da, 14, 3, 6, 33, 181, 111, 120, 195, 195, 120, 2, 1.52829
39, 3, bw, attraction, a-b-da, 14, 3, 6, 33, 181, 111, 120, 195, 195, 120, 1, 0.369786
39, 3, bw, filler, NA, 999, 999, 6, 34, 105, 180, 73, 103, 76, 137, 1, 0.83288
39, 3, bw, filler, NA, 999, 999, 6, 34, 105, 180, 73, 103, 76, 137, 2, 0.606676
39, 3, bw, attraction, a-b-da, 5, 1, 6, 35, 60, 135, 132, 58, 135, 60, 1, 0.811752
39, 3, bw, attraction, a-b-da, 5, 1, 6, 35, 60, 135, 132, 58, 135, 60, 2, 0.458191
39, 3, bw, attraction, a-b-da, 2, 2, 6, 36, 163, 89, 165, 90, 90, 165, 3, 1.21362
39, 3, bw, attraction, a-b-da, 2, 2, 6, 36, 163, 89, 165, 90, 90, 165, 1, 0.379541
39, 3, bw, attraction, a-b-da, 2, 3, 6, 37, 120, 195, 193, 119, 195, 120, 1, 1.54606
39, 3, bw, attraction, a-b-da, 2, 3, 6, 37, 120, 195, 193, 119, 195, 120, 3, 0.378953
39, 3, bw, filler, NA, 999, 999, 7, 1, 109, 125, 127, 104, 127, 87, 1, 4.98538
39, 3, bw, filler, NA, 999, 999, 7, 1, 109, 125, 127, 104, 127, 87, 3, 2.52783
39, 3, bw, attraction, a-b-da, 14, 1, 7, 2, 125, 56, 60, 135, 135, 60, 2, 2.02362
39, 3, bw, attraction, a-b-da, 14, 1, 7, 2, 125, 56, 60, 135, 135, 60, 1, 0.692894
39, 3, bw, attraction, a-b-da, 5, 2, 7, 3, 90, 165, 165, 90, 161, 88, 3, 2.00666
39, 3, bw, attraction, a-b-da, 5, 2, 7, 3, 90, 165, 165, 90, 161, 88, 1, 0.300584
39, 3, bw, attraction, a-b-db, 5, 3, 7, 4, 195, 120, 120, 195, 117, 190, 2, 0.982446
39, 3, bw, attraction, a-b-db, 5, 3, 7, 4, 195, 120, 120, 195, 117, 190, 1, 0.502153
39, 3, bw, attraction, a-b-db, 14, 3, 7, 5, 111, 181, 120, 195, 195, 120, 2, 0.736042
39, 3, bw, attraction, a-b-db, 14, 3, 7, 5, 111, 181, 120, 195, 195, 120, 3, 0.449688
39, 3, bw, attraction, a-b-da, 9, 2, 7, 6, 165, 90, 90, 165, 157, 86, 2, 1.42142
39, 3, bw, attraction, a-b-da, 9, 2, 7, 6, 165, 90, 90, 165, 157, 86, 1, 0.779032
39, 3, bw, attraction, a-b-da, 2, 3, 7, 7, 193, 119, 195, 120, 120, 195, 2, 0.697477
39, 3, bw, attraction, a-b-da, 2, 3, 7, 7, 193, 119, 195, 120, 120, 195, 1, 0.436463
39, 3, bw, attraction, a-b-da, 5, 1, 7, 8, 132, 58, 135, 60, 60, 135, 2, 0.72888
39, 3, bw, attraction, a-b-da, 5, 1, 7, 8, 132, 58, 135, 60, 60, 135, 1, 0.578857
39, 3, bw, attraction, a-b-db, 5, 2, 7, 9, 165, 90, 90, 165, 88, 161, 2, 0.5051
39, 3, bw, attraction, a-b-db, 5, 2, 7, 9, 165, 90, 90, 165, 88, 161, 1, 0.419607
39, 3, bw, attraction, a-b-db, 9, 1, 7, 10, 60, 135, 135, 60, 57, 129, 1, 1.02468
39, 3, bw, attraction, a-b-db, 9, 1, 7, 10, 60, 135, 135, 60, 57, 129, 2, 0.366397
39, 3, bw, attraction, a-b-db, 9, 2, 7, 11, 165, 90, 86, 157, 90, 165, 2, 0.669571
39, 3, bw, attraction, a-b-db, 9, 2, 7, 11, 165, 90, 86, 157, 90, 165, 3, 0.466088
39, 3, bw, filler, NA, 999, 999, 7, 12, 110, 164, 66, 185, 118, 176, 1, 0.741192
39, 3, bw, filler, NA, 999, 999, 7, 12, 110, 164, 66, 185, 118, 176, 2, 0.35015
39, 3, bw, attraction, a-b-db, 9, 3, 7, 13, 120, 195, 114, 186, 195, 120, 2, 0.582024
39, 3, bw, attraction, a-b-db, 9, 3, 7, 13, 120, 195, 114, 186, 195, 120, 1, 0.34182
39, 3, bw, filler, NA, 999, 999, 7, 14, 130, 132, 109, 57, 172, 170, 3, 1.38169
39, 3, bw, filler, NA, 999, 999, 7, 14, 130, 132, 109, 57, 172, 170, 2, 0.333174
39, 3, bw, filler, NA, 999, 999, 7, 15, 112, 80, 130, 187, 75, 144, 2, 0.645655
39, 3, bw, filler, NA, 999, 999, 7, 15, 112, 80, 130, 187, 75, 144, 1, 0.346792
39, 3, bw, attraction, a-b-da, 2, 2, 7, 16, 90, 165, 165, 90, 163, 89, 1, 0.930668
39, 3, bw, attraction, a-b-da, 2, 2, 7, 16, 90, 165, 165, 90, 163, 89, 2, 0.444294
39, 3, bw, catch, NA, 999, 999, 7, 17, 74, 121, 144, 171, 141, 114, 2, 0.984128
39, 3, bw, catch, NA, 999, 999, 7, 17, 74, 121, 144, 171, 141, 114, 1, 0.351834
39, 3, bw, filler, NA, 999, 999, 7, 18, 101, 165, 159, 139, 168, 77, 2, 1.39169
39, 3, bw, filler, NA, 999, 999, 7, 18, 101, 165, 159, 139, 168, 77, 3, 0.342484
39, 3, bw, attraction, a-b-db, 14, 2, 7, 19, 83, 153, 165, 90, 90, 165, 3, 1.22231
39, 3, bw, attraction, a-b-db, 14, 2, 7, 19, 83, 153, 165, 90, 90, 165, 1, 0.59587
39, 3, bw, filler, NA, 999, 999, 7, 20, 150, 126, 71, 64, 128, 193, 3, 0.86564
39, 3, bw, filler, NA, 999, 999, 7, 20, 150, 126, 71, 64, 128, 193, 2, 0.390017
39, 3, bw, attraction, a-b-da, 2, 1, 7, 21, 135, 60, 60, 135, 134, 59, 2, 0.835783
39, 3, bw, attraction, a-b-da, 2, 1, 7, 21, 135, 60, 60, 135, 134, 59, 1, 0.569501
39, 3, bw, attraction, a-b-db, 2, 3, 7, 22, 120, 195, 195, 120, 119, 193, 3, 2.43264
39, 3, bw, attraction, a-b-db, 2, 3, 7, 22, 120, 195, 195, 120, 119, 193, 1, 1.01388
39, 3, bw, attraction, a-b-db, 2, 1, 7, 23, 60, 135, 59, 134, 135, 60, 2, 1.03476
39, 3, bw, attraction, a-b-db, 2, 1, 7, 23, 60, 135, 59, 134, 135, 60, 3, 0.520482
39, 3, bw, attraction, a-b-da, 9, 1, 7, 24, 129, 57, 60, 135, 135, 60, 2, 0.577638
39, 3, bw, attraction, a-b-da, 9, 1, 7, 24, 129, 57, 60, 135, 135, 60, 1, 0.465347
39, 3, bw, attraction, a-b-da, 14, 3, 7, 25, 120, 195, 195, 120, 181, 111, 2, 0.564564
39, 3, bw, attraction, a-b-da, 14, 3, 7, 25, 120, 195, 195, 120, 181, 111, 1, 0.317021
39, 3, bw, catch, NA, 999, 999, 7, 26, 98, 157, 194, 121, 135, 60, 2, 0.646194
39, 3, bw, catch, NA, 999, 999, 7, 26, 98, 157, 194, 121, 135, 60, 3, 0.30719
39, 3, bw, attraction, a-b-da, 5, 3, 7, 27, 195, 120, 120, 195, 190, 117, 3, 1.11647
39, 3, bw, attraction, a-b-da, 5, 3, 7, 27, 195, 120, 120, 195, 190, 117, 1, 1.49468
39, 3, bw, attraction, a-b-da, 14, 2, 7, 28, 153, 83, 165, 90, 90, 165, 3, 4.72823
39, 3, bw, attraction, a-b-da, 14, 2, 7, 28, 153, 83, 165, 90, 90, 165, 1, 1.02479
39, 3, bw, filler, NA, 999, 999, 7, 29, 137, 122, 193, 157, 66, 112, 2, 1.42898
39, 3, bw, filler, NA, 999, 999, 7, 29, 137, 122, 193, 157, 66, 112, 3, 0.410542
39, 3, bw, attraction, a-b-db, 5, 1, 7, 30, 135, 60, 58, 132, 60, 135, 2, 0.775605
39, 3, bw, attraction, a-b-db, 5, 1, 7, 30, 135, 60, 58, 132, 60, 135, 1, 0.343486
39, 3, bw, attraction, a-b-da, 9, 3, 7, 31, 120, 195, 186, 114, 195, 120, 3, 1.12719
39, 3, bw, attraction, a-b-da, 9, 3, 7, 31, 120, 195, 186, 114, 195, 120, 2, 0.336917
39, 3, bw, filler, NA, 999, 999, 7, 32, 142, 152, 161, 156, 186, 79, 2, 0.833457
39, 3, bw, filler, NA, 999, 999, 7, 32, 142, 152, 161, 156, 186, 79, 3, 0.447045
39, 3, bw, catch, NA, 999, 999, 7, 33, 111, 144, 127, 68, 129, 186, 3, 1.20296
39, 3, bw, catch, NA, 999, 999, 7, 33, 111, 144, 127, 68, 129, 186, 2, 0.385861
39, 3, bw, attraction, a-b-db, 14, 1, 7, 34, 60, 135, 135, 60, 56, 125, 2, 2.92832
39, 3, bw, attraction, a-b-db, 14, 1, 7, 34, 60, 135, 135, 60, 56, 125, 1, 0.569286
39, 3, bw, attraction, a-b-db, 2, 2, 7, 35, 89, 163, 90, 165, 165, 90, 2, 1.94445
39, 3, bw, attraction, a-b-db, 2, 2, 7, 35, 89, 163, 90, 165, 165, 90, 3, 0.441235
39, 3, bw, filler, NA, 999, 999, 7, 36, 154, 87, 99, 184, 184, 96, 2, 0.716884
39, 3, bw, filler, NA, 999, 999, 7, 36, 154, 87, 99, 184, 184, 96, 1, 0.391442
39, 3, bw, filler, NA, 999, 999, 7, 37, 192, 86, 177, 120, 116, 86, 2, 0.661252
39, 3, bw, filler, NA, 999, 999, 7, 37, 192, 86, 177, 120, 116, 86, 3, 0.633646
39, 3, bw, attraction, a-b-db, 14, 3, 8, 1, 120, 195, 195, 120, 111, 181, 2, 0.630064
39, 3, bw, attraction, a-b-db, 14, 3, 8, 1, 120, 195, 195, 120, 111, 181, 3, 1.90794
39, 3, bw, attraction, a-b-da, 14, 3, 8, 2, 120, 195, 181, 111, 195, 120, 2, 0.772464
39, 3, bw, attraction, a-b-da, 14, 3, 8, 2, 120, 195, 181, 111, 195, 120, 1, 0.34027
39, 3, bw, attraction, a-b-da, 9, 1, 8, 3, 129, 57, 135, 60, 60, 135, 2, 0.811953
39, 3, bw, attraction, a-b-da, 9, 1, 8, 3, 129, 57, 135, 60, 60, 135, 3, 0.290375
39, 3, bw, attraction, a-b-db, 5, 2, 8, 4, 88, 161, 165, 90, 90, 165, 2, 0.972222
39, 3, bw, attraction, a-b-db, 5, 2, 8, 4, 88, 161, 165, 90, 90, 165, 1, 1.05189
39, 3, bw, filler, NA, 999, 999, 8, 5, 62, 108, 91, 184, 158, 175, 3, 1.37559
39, 3, bw, filler, NA, 999, 999, 8, 5, 62, 108, 91, 184, 158, 175, 1, 0.647133
39, 3, bw, attraction, a-b-db, 2, 2, 8, 6, 165, 90, 89, 163, 90, 165, 3, 2.26681
39, 3, bw, attraction, a-b-db, 2, 2, 8, 6, 165, 90, 89, 163, 90, 165, 1, 1.25487
39, 3, bw, attraction, a-b-db, 9, 3, 8, 7, 114, 186, 120, 195, 195, 120, 2, 1.37834
39, 3, bw, attraction, a-b-db, 9, 3, 8, 7, 114, 186, 120, 195, 195, 120, 3, 0.433867
39, 3, bw, attraction, a-b-db, 5, 3, 8, 8, 195, 120, 120, 195, 117, 190, 2, 1.11834
39, 3, bw, attraction, a-b-db, 5, 3, 8, 8, 195, 120, 120, 195, 117, 190, 3, 0.408565
39, 3, bw, filler, NA, 999, 999, 8, 9, 66, 161, 100, 156, 58, 185, 2, 1.1978
39, 3, bw, filler, NA, 999, 999, 8, 9, 66, 161, 100, 156, 58, 185, 1, 0.756656
39, 3, bw, attraction, a-b-db, 14, 2, 8, 10, 83, 153, 165, 90, 90, 165, 3, 2.8844
39, 3, bw, attraction, a-b-db, 14, 2, 8, 10, 83, 153, 165, 90, 90, 165, 1, 0.495448
39, 3, bw, attraction, a-b-da, 14, 2, 8, 11, 165, 90, 90, 165, 153, 83, 2, 1.68933
39, 3, bw, attraction, a-b-da, 14, 2, 8, 11, 165, 90, 90, 165, 153, 83, 3, 0.532007
39, 3, bw, attraction, a-b-da, 5, 1, 8, 12, 132, 58, 135, 60, 60, 135, 2, 1.49245
39, 3, bw, attraction, a-b-da, 5, 1, 8, 12, 132, 58, 135, 60, 60, 135, 3, 0.367436
39, 3, bw, filler, NA, 999, 999, 8, 13, 118, 146, 141, 122, 119, 167, 3, 1.44654
39, 3, bw, filler, NA, 999, 999, 8, 13, 118, 146, 141, 122, 119, 167, 2, 0.659362
39, 3, bw, attraction, a-b-da, 9, 2, 8, 14, 165, 90, 90, 165, 157, 86, 2, 0.910384
39, 3, bw, attraction, a-b-da, 9, 2, 8, 14, 165, 90, 90, 165, 157, 86, 3, 1.22475
39, 3, bw, attraction, a-b-da, 5, 3, 8, 15, 120, 195, 195, 120, 190, 117, 2, 0.780912
39, 3, bw, attraction, a-b-da, 5, 3, 8, 15, 120, 195, 195, 120, 190, 117, 3, 0.732771
39, 3, bw, attraction, a-b-da, 2, 2, 8, 16, 165, 90, 163, 89, 90, 165, 2, 0.669103
39, 3, bw, attraction, a-b-da, 2, 2, 8, 16, 165, 90, 163, 89, 90, 165, 1, 0.433615
39, 3, bw, attraction, a-b-db, 2, 3, 8, 17, 195, 120, 120, 195, 119, 193, 2, 0.565972
39, 3, bw, attraction, a-b-db, 2, 3, 8, 17, 195, 120, 120, 195, 119, 193, 1, 0.390409
39, 3, bw, attraction, a-b-da, 14, 1, 8, 18, 60, 135, 125, 56, 135, 60, 1, 1.95621
39, 3, bw, attraction, a-b-da, 14, 1, 8, 18, 60, 135, 125, 56, 135, 60, 2, 0.356295
39, 3, bw, catch, NA, 999, 999, 8, 19, 179, 136, 157, 98, 102, 93, 1, 1.24416
39, 3, bw, catch, NA, 999, 999, 8, 19, 179, 136, 157, 98, 102, 93, 3, 0.57704
39, 3, bw, attraction, a-b-da, 2, 1, 8, 20, 134, 59, 60, 135, 135, 60, 2, 1.30348
39, 3, bw, attraction, a-b-da, 2, 1, 8, 20, 134, 59, 60, 135, 135, 60, 3, 0.794475
39, 3, bw, filler, NA, 999, 999, 8, 21, 103, 91, 183, 124, 91, 185, 2, 0.600096
39, 3, bw, filler, NA, 999, 999, 8, 21, 103, 91, 183, 124, 91, 185, 1, 0.37523
39, 3, bw, catch, NA, 999, 999, 8, 22, 94, 161, 162, 153, 75, 120, 2, 0.669715
39, 3, bw, catch, NA, 999, 999, 8, 22, 94, 161, 162, 153, 75, 120, 3, 0.522497
39, 3, bw, attraction, a-b-db, 9, 2, 8, 23, 90, 165, 165, 90, 86, 157, 2, 0.6832
39, 3, bw, attraction, a-b-db, 9, 2, 8, 23, 90, 165, 165, 90, 86, 157, 3, 0.639133
39, 3, bw, filler, NA, 999, 999, 8, 24, 80, 165, 62, 103, 98, 123, 3, 1.11549
39, 3, bw, filler, NA, 999, 999, 8, 24, 80, 165, 62, 103, 98, 123, 2, 0.429798
39, 3, bw, filler, NA, 999, 999, 8, 25, 107, 90, 59, 190, 135, 127, 3, 3.43436
39, 3, bw, filler, NA, 999, 999, 8, 25, 107, 90, 59, 190, 135, 127, 1, 0.759041
39, 3, bw, filler, NA, 999, 999, 8, 26, 79, 64, 121, 120, 137, 72, 2, 2.8063
39, 3, bw, filler, NA, 999, 999, 8, 26, 79, 64, 121, 120, 137, 72, 1, 0.443878
39, 3, bw, filler, NA, 999, 999, 8, 27, 183, 146, 167, 57, 169, 114, 1, 1.11174
39, 3, bw, filler, NA, 999, 999, 8, 27, 183, 146, 167, 57, 169, 114, 2, 0.473992
39, 3, bw, filler, NA, 999, 999, 8, 28, 136, 173, 189, 117, 119, 177, 1, 1.42838
39, 3, bw, filler, NA, 999, 999, 8, 28, 136, 173, 189, 117, 119, 177, 2, 0.345977
39, 3, bw, attraction, a-b-da, 9, 3, 8, 29, 120, 195, 195, 120, 186, 114, 1, 3.03388
39, 3, bw, attraction, a-b-da, 9, 3, 8, 29, 120, 195, 195, 120, 186, 114, 2, 0.438941
39, 3, bw, attraction, a-b-da, 2, 3, 8, 30, 195, 120, 193, 119, 120, 195, 3, 1.34722
39, 3, bw, attraction, a-b-da, 2, 3, 8, 30, 195, 120, 193, 119, 120, 195, 2, 0.364093
39, 3, bw, attraction, a-b-db, 9, 1, 8, 31, 60, 135, 57, 129, 135, 60, 2, 1.22732
39, 3, bw, attraction, a-b-db, 9, 1, 8, 31, 60, 135, 57, 129, 135, 60, 3, 0.656992
39, 3, bw, attraction, a-b-db, 5, 1, 8, 32, 60, 135, 58, 132, 135, 60, 2, 0.763907
39, 3, bw, attraction, a-b-db, 5, 1, 8, 32, 60, 135, 58, 132, 135, 60, 3, 1.27633
39, 3, bw, catch, NA, 999, 999, 8, 33, 181, 134, 88, 107, 153, 102, 1, 0.766669
39, 3, bw, catch, NA, 999, 999, 8, 33, 181, 134, 88, 107, 153, 102, 2, 0.43907
39, 3, bw, attraction, a-b-db, 2, 1, 8, 34, 59, 134, 60, 135, 135, 60, 2, 1.19559
39, 3, bw, attraction, a-b-db, 2, 1, 8, 34, 59, 134, 60, 135, 135, 60, 1, 0.562368
39, 3, bw, filler, NA, 999, 999, 8, 35, 118, 72, 68, 178, 65, 121, 2, 0.6655
39, 3, bw, filler, NA, 999, 999, 8, 35, 118, 72, 68, 178, 65, 121, 3, 0.581917
39, 3, bw, attraction, a-b-da, 5, 2, 8, 36, 161, 88, 90, 165, 165, 90, 2, 1.01231
39, 3, bw, attraction, a-b-da, 5, 2, 8, 36, 161, 88, 90, 165, 165, 90, 1, 1.14686
39, 3, bw, attraction, a-b-db, 14, 1, 8, 37, 135, 60, 60, 135, 56, 125, 2, 1.19425
39, 3, bw, attraction, a-b-db, 14, 1, 8, 37, 135, 60, 60, 135, 56, 125, 3, 0.73724
