sub_n, computer_n, bw_cond, effect, set, distance, diag, block_n, trial_n, h1, w1, h2, w2, h3, w3, choice, rt 
384, 3, wb, practice, NA, 999, 999, 0, 1, 67, 56, 84, 125, 159, 56, 1, 1.77324
384, 3, wb, practice, NA, 999, 999, 0, 1, 67, 56, 84, 125, 159, 56, 2, 3.93897
384, 3, wb, practice, NA, 999, 999, 0, 2, 132, 185, 146, 118, 111, 69, 3, 2.00821
384, 3, wb, practice, NA, 999, 999, 0, 2, 132, 185, 146, 118, 111, 69, 1, 0.767866
384, 3, wb, practice, NA, 999, 999, 0, 3, 110, 76, 132, 80, 94, 126, 1, 1.691
384, 3, wb, practice, NA, 999, 999, 0, 3, 110, 76, 132, 80, 94, 126, 3, 3.50957
384, 3, wb, filler, NA, 999, 999, 1, 1, 69, 156, 105, 56, 180, 115, 2, 0.921245
384, 3, wb, filler, NA, 999, 999, 1, 1, 69, 156, 105, 56, 180, 115, 3, 0.70746
384, 3, wb, filler, NA, 999, 999, 1, 2, 83, 99, 61, 96, 65, 173, 2, 0.644541
384, 3, wb, filler, NA, 999, 999, 1, 2, 83, 99, 61, 96, 65, 173, 3, 0.969542
384, 3, wb, attraction, a-b-db, 9, 2, 1, 3, 86, 157, 165, 90, 90, 165, 1, 1.95257
384, 3, wb, attraction, a-b-db, 9, 2, 1, 3, 86, 157, 165, 90, 90, 165, 2, 0.905256
384, 3, wb, filler, NA, 999, 999, 1, 4, 183, 161, 70, 173, 117, 175, 2, 1.00288
384, 3, wb, filler, NA, 999, 999, 1, 4, 183, 161, 70, 173, 117, 175, 1, 0.513878
384, 3, wb, attraction, a-b-da, 9, 3, 1, 5, 186, 114, 195, 120, 120, 195, 1, 2.98696
384, 3, wb, attraction, a-b-da, 9, 3, 1, 5, 186, 114, 195, 120, 120, 195, 3, 0.362044
384, 3, wb, attraction, a-b-da, 9, 1, 1, 6, 60, 135, 129, 57, 135, 60, 2, 1.72127
384, 3, wb, attraction, a-b-da, 9, 1, 1, 6, 60, 135, 129, 57, 135, 60, 1, 0.954669
384, 3, wb, catch, NA, 999, 999, 1, 7, 150, 165, 149, 106, 84, 111, 3, 0.994319
384, 3, wb, catch, NA, 999, 999, 1, 7, 150, 165, 149, 106, 84, 111, 1, 0.449358
384, 3, wb, filler, NA, 999, 999, 1, 8, 138, 73, 147, 97, 164, 152, 1, 0.84509
384, 3, wb, filler, NA, 999, 999, 1, 8, 138, 73, 147, 97, 164, 152, 3, 0.426167
384, 3, wb, attraction, a-b-da, 5, 2, 1, 9, 90, 165, 165, 90, 161, 88, 3, 2.95855
384, 3, wb, attraction, a-b-da, 5, 2, 1, 9, 90, 165, 165, 90, 161, 88, 1, 0.478335
384, 3, wb, catch, NA, 999, 999, 1, 10, 137, 178, 78, 117, 116, 139, 2, 0.824889
384, 3, wb, catch, NA, 999, 999, 1, 10, 137, 178, 78, 117, 116, 139, 1, 0.374629
384, 3, wb, filler, NA, 999, 999, 1, 11, 91, 160, 105, 73, 89, 171, 2, 1.15695
384, 3, wb, filler, NA, 999, 999, 1, 11, 91, 160, 105, 73, 89, 171, 1, 0.501251
384, 3, wb, filler, NA, 999, 999, 1, 12, 116, 70, 124, 91, 58, 186, 1, 1.79107
384, 3, wb, filler, NA, 999, 999, 1, 12, 116, 70, 124, 91, 58, 186, 3, 0.549804
384, 3, wb, attraction, a-b-db, 14, 2, 1, 13, 83, 153, 90, 165, 165, 90, 1, 1.01356
384, 3, wb, attraction, a-b-db, 14, 2, 1, 13, 83, 153, 90, 165, 165, 90, 2, 0.41988
384, 3, wb, attraction, a-b-da, 2, 3, 1, 14, 195, 120, 193, 119, 120, 195, 2, 1.79298
384, 3, wb, attraction, a-b-da, 2, 3, 1, 14, 195, 120, 193, 119, 120, 195, 1, 3.04775
384, 3, wb, attraction, a-b-db, 14, 3, 1, 15, 120, 195, 195, 120, 111, 181, 3, 1.2828
384, 3, wb, attraction, a-b-db, 14, 3, 1, 15, 120, 195, 195, 120, 111, 181, 1, 0.446292
384, 3, wb, attraction, a-b-db, 2, 1, 1, 16, 60, 135, 135, 60, 59, 134, 3, 0.954103
384, 3, wb, attraction, a-b-db, 2, 1, 1, 16, 60, 135, 135, 60, 59, 134, 1, 0.515101
384, 3, wb, attraction, a-b-da, 5, 3, 1, 17, 120, 195, 195, 120, 190, 117, 2, 1.00417
384, 3, wb, attraction, a-b-da, 5, 3, 1, 17, 120, 195, 195, 120, 190, 117, 1, 0.402532
384, 3, wb, attraction, a-b-db, 9, 3, 1, 18, 195, 120, 120, 195, 114, 186, 1, 2.40033
384, 3, wb, attraction, a-b-db, 9, 3, 1, 18, 195, 120, 120, 195, 114, 186, 2, 0.855043
384, 3, wb, catch, NA, 999, 999, 1, 19, 99, 156, 67, 128, 130, 185, 2, 1.00265
384, 3, wb, catch, NA, 999, 999, 1, 19, 99, 156, 67, 128, 130, 185, 3, 0.361598
384, 3, wb, attraction, a-b-da, 2, 2, 1, 20, 163, 89, 90, 165, 165, 90, 2, 1.12076
384, 3, wb, attraction, a-b-da, 2, 2, 1, 20, 163, 89, 90, 165, 165, 90, 3, 0.507108
384, 3, wb, attraction, a-b-db, 5, 2, 1, 21, 88, 161, 165, 90, 90, 165, 1, 0.948262
384, 3, wb, attraction, a-b-db, 5, 2, 1, 21, 88, 161, 165, 90, 90, 165, 2, 0.445265
384, 3, wb, attraction, a-b-da, 9, 2, 1, 22, 165, 90, 90, 165, 157, 86, 2, 0.841072
384, 3, wb, attraction, a-b-da, 9, 2, 1, 22, 165, 90, 90, 165, 157, 86, 3, 0.374263
384, 3, wb, attraction, a-b-da, 14, 2, 1, 23, 90, 165, 153, 83, 165, 90, 2, 1.99655
384, 3, wb, attraction, a-b-da, 14, 2, 1, 23, 90, 165, 153, 83, 165, 90, 3, 0.563261
384, 3, wb, attraction, a-b-db, 5, 1, 1, 24, 58, 132, 60, 135, 135, 60, 3, 1.54636
384, 3, wb, attraction, a-b-db, 5, 1, 1, 24, 58, 132, 60, 135, 135, 60, 2, 0.723112
384, 3, wb, attraction, a-b-db, 2, 3, 1, 25, 120, 195, 119, 193, 195, 120, 2, 0.996241
384, 3, wb, attraction, a-b-db, 2, 3, 1, 25, 120, 195, 119, 193, 195, 120, 3, 0.515205
384, 3, wb, attraction, a-b-da, 14, 3, 1, 26, 195, 120, 120, 195, 181, 111, 2, 1.01231
384, 3, wb, attraction, a-b-da, 14, 3, 1, 26, 195, 120, 120, 195, 181, 111, 1, 0.594658
384, 3, wb, filler, NA, 999, 999, 1, 27, 183, 70, 170, 100, 165, 64, 3, 2.29639
384, 3, wb, filler, NA, 999, 999, 1, 27, 183, 70, 170, 100, 165, 64, 2, 0.266933
384, 3, wb, filler, NA, 999, 999, 1, 28, 112, 156, 71, 93, 125, 75, 2, 1.36629
384, 3, wb, filler, NA, 999, 999, 1, 28, 112, 156, 71, 93, 125, 75, 1, 0.326455
384, 3, wb, filler, NA, 999, 999, 1, 29, 103, 90, 153, 183, 120, 91, 1, 1.09487
384, 3, wb, filler, NA, 999, 999, 1, 29, 103, 90, 153, 183, 120, 91, 2, 0.601932
384, 3, wb, attraction, a-b-da, 2, 1, 1, 30, 135, 60, 60, 135, 134, 59, 3, 1.63961
384, 3, wb, attraction, a-b-da, 2, 1, 1, 30, 135, 60, 60, 135, 134, 59, 1, 0.50841
384, 3, wb, attraction, a-b-da, 14, 1, 1, 31, 125, 56, 135, 60, 60, 135, 3, 7.85347
384, 3, wb, attraction, a-b-da, 14, 1, 1, 31, 125, 56, 135, 60, 60, 135, 1, 0.520416
384, 3, wb, filler, NA, 999, 999, 1, 32, 155, 155, 98, 76, 112, 80, 2, 0.841507
384, 3, wb, filler, NA, 999, 999, 1, 32, 155, 155, 98, 76, 112, 80, 1, 0.270559
384, 3, wb, attraction, a-b-db, 14, 1, 1, 33, 56, 125, 60, 135, 135, 60, 1, 0.817711
384, 3, wb, attraction, a-b-db, 14, 1, 1, 33, 56, 125, 60, 135, 135, 60, 2, 0.440144
384, 3, wb, attraction, a-b-db, 2, 2, 1, 34, 89, 163, 165, 90, 90, 165, 1, 0.779886
384, 3, wb, attraction, a-b-db, 2, 2, 1, 34, 89, 163, 165, 90, 90, 165, 2, 0.587664
384, 3, wb, attraction, a-b-db, 5, 3, 1, 35, 117, 190, 195, 120, 120, 195, 1, 0.754035
384, 3, wb, attraction, a-b-db, 5, 3, 1, 35, 117, 190, 195, 120, 120, 195, 2, 0.610438
384, 3, wb, attraction, a-b-db, 9, 1, 1, 36, 57, 129, 60, 135, 135, 60, 1, 0.791515
384, 3, wb, attraction, a-b-db, 9, 1, 1, 36, 57, 129, 60, 135, 135, 60, 3, 0.750722
384, 3, wb, attraction, a-b-da, 5, 1, 1, 37, 135, 60, 60, 135, 132, 58, 2, 0.534324
384, 3, wb, attraction, a-b-da, 5, 1, 1, 37, 135, 60, 60, 135, 132, 58, 3, 0.552114
384, 3, wb, attraction, a-b-da, 9, 1, 2, 1, 60, 135, 135, 60, 129, 57, 1, 0.807829
384, 3, wb, attraction, a-b-da, 9, 1, 2, 1, 60, 135, 135, 60, 129, 57, 2, 0.342317
384, 3, wb, attraction, a-b-db, 5, 1, 2, 2, 135, 60, 60, 135, 58, 132, 2, 0.76614
384, 3, wb, attraction, a-b-db, 5, 1, 2, 2, 135, 60, 60, 135, 58, 132, 1, 0.678591
384, 3, wb, catch, NA, 999, 999, 2, 3, 137, 118, 81, 114, 138, 177, 2, 0.440926
384, 3, wb, catch, NA, 999, 999, 2, 3, 137, 118, 81, 114, 138, 177, 3, 0.630182
384, 3, wb, attraction, a-b-da, 14, 2, 2, 4, 90, 165, 153, 83, 165, 90, 2, 0.626402
384, 3, wb, attraction, a-b-da, 14, 2, 2, 4, 90, 165, 153, 83, 165, 90, 1, 0.560243
384, 3, wb, attraction, a-b-da, 5, 3, 2, 5, 195, 120, 120, 195, 190, 117, 2, 0.511442
384, 3, wb, attraction, a-b-da, 5, 3, 2, 5, 195, 120, 120, 195, 190, 117, 3, 0.38583
384, 3, wb, filler, NA, 999, 999, 2, 6, 155, 157, 155, 195, 111, 125, 3, 0.76832
384, 3, wb, filler, NA, 999, 999, 2, 6, 155, 157, 155, 195, 111, 125, 2, 0.616722
384, 3, wb, attraction, a-b-db, 14, 2, 2, 7, 90, 165, 165, 90, 83, 153, 1, 0.973787
384, 3, wb, attraction, a-b-db, 14, 2, 2, 7, 90, 165, 165, 90, 83, 153, 2, 0.309555
384, 3, wb, attraction, a-b-db, 14, 3, 2, 8, 120, 195, 195, 120, 111, 181, 2, 0.98265
384, 3, wb, attraction, a-b-db, 14, 3, 2, 8, 120, 195, 195, 120, 111, 181, 3, 0.646363
384, 3, wb, attraction, a-b-db, 5, 3, 2, 9, 195, 120, 117, 190, 120, 195, 2, 0.650036
384, 3, wb, attraction, a-b-db, 5, 3, 2, 9, 195, 120, 117, 190, 120, 195, 1, 1.3191
384, 3, wb, attraction, a-b-da, 9, 3, 2, 10, 186, 114, 195, 120, 120, 195, 3, 0.816061
384, 3, wb, attraction, a-b-da, 9, 3, 2, 10, 186, 114, 195, 120, 120, 195, 2, 0.342488
384, 3, wb, filler, NA, 999, 999, 2, 11, 109, 165, 185, 175, 139, 114, 3, 0.718252
384, 3, wb, filler, NA, 999, 999, 2, 11, 109, 165, 185, 175, 139, 114, 2, 0.352727
384, 3, wb, attraction, a-b-db, 2, 1, 2, 12, 135, 60, 59, 134, 60, 135, 3, 0.960531
384, 3, wb, attraction, a-b-db, 2, 1, 2, 12, 135, 60, 59, 134, 60, 135, 2, 0.46477
384, 3, wb, filler, NA, 999, 999, 2, 13, 139, 123, 111, 102, 171, 175, 2, 0.891937
384, 3, wb, filler, NA, 999, 999, 2, 13, 139, 123, 111, 102, 171, 175, 3, 0.551038
384, 3, wb, attraction, a-b-da, 14, 3, 2, 14, 181, 111, 195, 120, 120, 195, 2, 2.86284
384, 3, wb, attraction, a-b-da, 14, 3, 2, 14, 181, 111, 195, 120, 120, 195, 3, 0.474502
384, 3, wb, filler, NA, 999, 999, 2, 15, 131, 152, 174, 119, 127, 91, 3, 0.765013
384, 3, wb, filler, NA, 999, 999, 2, 15, 131, 152, 174, 119, 127, 91, 2, 0.253372
384, 3, wb, attraction, a-b-da, 2, 3, 2, 16, 193, 119, 195, 120, 120, 195, 3, 2.41721
384, 3, wb, attraction, a-b-da, 2, 3, 2, 16, 193, 119, 195, 120, 120, 195, 2, 0.247183
384, 3, wb, attraction, a-b-db, 14, 1, 2, 17, 60, 135, 56, 125, 135, 60, 2, 0.75491
384, 3, wb, attraction, a-b-db, 14, 1, 2, 17, 60, 135, 56, 125, 135, 60, 1, 0.387338
384, 3, wb, attraction, a-b-db, 9, 3, 2, 18, 195, 120, 114, 186, 120, 195, 2, 0.489821
384, 3, wb, attraction, a-b-db, 9, 3, 2, 18, 195, 120, 114, 186, 120, 195, 1, 1.61302
384, 3, wb, attraction, a-b-da, 2, 2, 2, 19, 90, 165, 163, 89, 165, 90, 1, 1.36175
384, 3, wb, attraction, a-b-da, 2, 2, 2, 19, 90, 165, 163, 89, 165, 90, 2, 0.249975
384, 3, wb, filler, NA, 999, 999, 2, 20, 153, 79, 112, 127, 99, 172, 1, 1.48586
384, 3, wb, filler, NA, 999, 999, 2, 20, 153, 79, 112, 127, 99, 172, 2, 0.945514
384, 3, wb, attraction, a-b-da, 14, 1, 2, 21, 60, 135, 125, 56, 135, 60, 2, 0.969061
384, 3, wb, attraction, a-b-da, 14, 1, 2, 21, 60, 135, 125, 56, 135, 60, 1, 0.905344
384, 3, wb, attraction, a-b-da, 5, 1, 2, 22, 132, 58, 135, 60, 60, 135, 3, 1.1631
384, 3, wb, attraction, a-b-da, 5, 1, 2, 22, 132, 58, 135, 60, 60, 135, 1, 0.731329
384, 3, wb, attraction, a-b-db, 2, 3, 2, 23, 120, 195, 119, 193, 195, 120, 3, 2.65165
384, 3, wb, attraction, a-b-db, 2, 3, 2, 23, 120, 195, 119, 193, 195, 120, 2, 0.256233
384, 3, wb, catch, NA, 999, 999, 2, 24, 95, 100, 108, 147, 173, 142, 1, 0.715986
384, 3, wb, catch, NA, 999, 999, 2, 24, 95, 100, 108, 147, 173, 142, 3, 0.782378
384, 3, wb, attraction, a-b-da, 2, 1, 2, 25, 134, 59, 60, 135, 135, 60, 3, 0.812849
384, 3, wb, attraction, a-b-da, 2, 1, 2, 25, 134, 59, 60, 135, 135, 60, 1, 0.723226
384, 3, wb, filler, NA, 999, 999, 2, 26, 89, 134, 153, 96, 94, 190, 1, 0.748352
384, 3, wb, filler, NA, 999, 999, 2, 26, 89, 134, 153, 96, 94, 190, 2, 0.285322
384, 3, wb, filler, NA, 999, 999, 2, 27, 114, 81, 59, 122, 185, 152, 2, 1.48785
384, 3, wb, filler, NA, 999, 999, 2, 27, 114, 81, 59, 122, 185, 152, 1, 0.443354
384, 3, wb, attraction, a-b-db, 5, 2, 2, 28, 165, 90, 88, 161, 90, 165, 2, 3.64715
384, 3, wb, attraction, a-b-db, 5, 2, 2, 28, 165, 90, 88, 161, 90, 165, 1, 0.667303
384, 3, wb, catch, NA, 999, 999, 2, 29, 105, 90, 117, 138, 161, 154, 1, 1.0703
384, 3, wb, catch, NA, 999, 999, 2, 29, 105, 90, 117, 138, 161, 154, 3, 0.362671
384, 3, wb, filler, NA, 999, 999, 2, 30, 89, 111, 99, 108, 185, 154, 1, 1.07387
384, 3, wb, filler, NA, 999, 999, 2, 30, 89, 111, 99, 108, 185, 154, 3, 0.437635
384, 3, wb, filler, NA, 999, 999, 2, 31, 192, 58, 117, 59, 100, 166, 2, 1.32999
384, 3, wb, filler, NA, 999, 999, 2, 31, 192, 58, 117, 59, 100, 166, 3, 0.587617
384, 3, wb, filler, NA, 999, 999, 2, 32, 109, 180, 97, 115, 104, 102, 2, 1.34606
384, 3, wb, filler, NA, 999, 999, 2, 32, 109, 180, 97, 115, 104, 102, 1, 0.370807
384, 3, wb, attraction, a-b-db, 2, 2, 2, 33, 89, 163, 90, 165, 165, 90, 3, 1.954
384, 3, wb, attraction, a-b-db, 2, 2, 2, 33, 89, 163, 90, 165, 165, 90, 2, 1.18671
384, 3, wb, attraction, a-b-db, 9, 2, 2, 34, 86, 157, 90, 165, 165, 90, 2, 1.01693
384, 3, wb, attraction, a-b-db, 9, 2, 2, 34, 86, 157, 90, 165, 165, 90, 3, 0.775207
384, 3, wb, attraction, a-b-da, 9, 2, 2, 35, 157, 86, 90, 165, 165, 90, 2, 0.917526
384, 3, wb, attraction, a-b-da, 9, 2, 2, 35, 157, 86, 90, 165, 165, 90, 3, 0.879935
384, 3, wb, attraction, a-b-da, 5, 2, 2, 36, 165, 90, 90, 165, 161, 88, 3, 1.01843
384, 3, wb, attraction, a-b-da, 5, 2, 2, 36, 165, 90, 90, 165, 161, 88, 2, 0.304718
384, 3, wb, attraction, a-b-db, 9, 1, 2, 37, 135, 60, 57, 129, 60, 135, 2, 1.56257
384, 3, wb, attraction, a-b-db, 9, 1, 2, 37, 135, 60, 57, 129, 60, 135, 1, 0.674631
384, 3, wb, filler, NA, 999, 999, 3, 1, 100, 103, 112, 92, 84, 61, 3, 0.845033
384, 3, wb, filler, NA, 999, 999, 3, 1, 100, 103, 112, 92, 84, 61, 2, 1.13014
384, 3, wb, attraction, a-b-da, 2, 3, 3, 2, 120, 195, 193, 119, 195, 120, 3, 0.978351
384, 3, wb, attraction, a-b-da, 2, 3, 3, 2, 120, 195, 193, 119, 195, 120, 2, 0.810027
384, 3, wb, attraction, a-b-da, 5, 2, 3, 3, 161, 88, 90, 165, 165, 90, 2, 1.80698
384, 3, wb, attraction, a-b-da, 5, 2, 3, 3, 161, 88, 90, 165, 165, 90, 1, 0.421175
384, 3, wb, catch, NA, 999, 999, 3, 4, 123, 132, 158, 157, 106, 89, 3, 1.05824
384, 3, wb, catch, NA, 999, 999, 3, 4, 123, 132, 158, 157, 106, 89, 2, 0.822574
384, 3, wb, attraction, a-b-db, 5, 2, 3, 5, 165, 90, 90, 165, 88, 161, 2, 1.77159
384, 3, wb, attraction, a-b-db, 5, 2, 3, 5, 165, 90, 90, 165, 88, 161, 1, 0.443678
384, 3, wb, attraction, a-b-db, 14, 1, 3, 6, 60, 135, 56, 125, 135, 60, 3, 1.50345
384, 3, wb, attraction, a-b-db, 14, 1, 3, 6, 60, 135, 56, 125, 135, 60, 2, 0.298355
384, 3, wb, catch, NA, 999, 999, 3, 7, 83, 112, 153, 102, 195, 120, 1, 0.868182
384, 3, wb, catch, NA, 999, 999, 3, 7, 83, 112, 153, 102, 195, 120, 2, 0.2566
384, 3, wb, filler, NA, 999, 999, 3, 8, 91, 117, 84, 187, 89, 172, 1, 2.00383
384, 3, wb, filler, NA, 999, 999, 3, 8, 91, 117, 84, 187, 89, 172, 2, 0.706418
384, 3, wb, attraction, a-b-db, 14, 3, 3, 9, 120, 195, 111, 181, 195, 120, 2, 3.51604
384, 3, wb, attraction, a-b-db, 14, 3, 3, 9, 120, 195, 111, 181, 195, 120, 3, 0.509728
384, 3, wb, attraction, a-b-db, 2, 3, 3, 10, 195, 120, 119, 193, 120, 195, 2, 4.32672
384, 3, wb, attraction, a-b-db, 2, 3, 3, 10, 195, 120, 119, 193, 120, 195, 1, 0.671479
384, 3, wb, filler, NA, 999, 999, 3, 11, 137, 167, 96, 67, 138, 128, 2, 0.842552
384, 3, wb, filler, NA, 999, 999, 3, 11, 137, 167, 96, 67, 138, 128, 1, 0.543499
384, 3, wb, attraction, a-b-da, 14, 2, 3, 12, 153, 83, 90, 165, 165, 90, 2, 1.7274
384, 3, wb, attraction, a-b-da, 14, 2, 3, 12, 153, 83, 90, 165, 165, 90, 1, 0.45677
384, 3, wb, catch, NA, 999, 999, 3, 13, 99, 96, 182, 133, 96, 159, 1, 0.876433
384, 3, wb, catch, NA, 999, 999, 3, 13, 99, 96, 182, 133, 96, 159, 2, 0.20023
384, 3, wb, attraction, a-b-da, 5, 3, 3, 14, 120, 195, 195, 120, 190, 117, 1, 0.918055
384, 3, wb, attraction, a-b-da, 5, 3, 3, 14, 120, 195, 195, 120, 190, 117, 2, 0.312459
384, 3, wb, attraction, a-b-db, 5, 1, 3, 15, 60, 135, 58, 132, 135, 60, 2, 1.5616
384, 3, wb, attraction, a-b-db, 5, 1, 3, 15, 60, 135, 58, 132, 135, 60, 3, 0.865771
384, 3, wb, attraction, a-b-da, 2, 2, 3, 16, 90, 165, 165, 90, 163, 89, 3, 1.99682
384, 3, wb, attraction, a-b-da, 2, 2, 3, 16, 90, 165, 165, 90, 163, 89, 1, 0.62748
384, 3, wb, attraction, a-b-db, 5, 3, 3, 17, 195, 120, 120, 195, 117, 190, 2, 2.46384
384, 3, wb, attraction, a-b-db, 5, 3, 3, 17, 195, 120, 120, 195, 117, 190, 1, 0.379748
384, 3, wb, filler, NA, 999, 999, 3, 18, 173, 137, 128, 65, 186, 120, 2, 0.626192
384, 3, wb, filler, NA, 999, 999, 3, 18, 173, 137, 128, 65, 186, 120, 1, 0.391989
384, 3, wb, filler, NA, 999, 999, 3, 19, 137, 163, 161, 162, 60, 148, 3, 1.22984
384, 3, wb, filler, NA, 999, 999, 3, 19, 137, 163, 161, 162, 60, 148, 1, 0.38745
384, 3, wb, attraction, a-b-db, 9, 1, 3, 20, 57, 129, 135, 60, 60, 135, 3, 1.28986
384, 3, wb, attraction, a-b-db, 9, 1, 3, 20, 57, 129, 135, 60, 60, 135, 2, 0.28479
384, 3, wb, filler, NA, 999, 999, 3, 21, 187, 90, 108, 98, 132, 169, 2, 3.30331
384, 3, wb, filler, NA, 999, 999, 3, 21, 187, 90, 108, 98, 132, 169, 1, 0.673721
384, 3, wb, attraction, a-b-db, 9, 3, 3, 22, 195, 120, 120, 195, 114, 186, 2, 1.94794
384, 3, wb, attraction, a-b-db, 9, 3, 3, 22, 195, 120, 120, 195, 114, 186, 1, 0.524827
384, 3, wb, filler, NA, 999, 999, 3, 23, 76, 116, 77, 184, 78, 90, 3, 3.66913
384, 3, wb, filler, NA, 999, 999, 3, 23, 76, 116, 77, 184, 78, 90, 2, 0.568606
384, 3, wb, filler, NA, 999, 999, 3, 24, 64, 158, 97, 90, 118, 148, 2, 2.15966
384, 3, wb, filler, NA, 999, 999, 3, 24, 64, 158, 97, 90, 118, 148, 1, 1.00766
384, 3, wb, attraction, a-b-da, 14, 3, 3, 25, 120, 195, 195, 120, 181, 111, 3, 4.30067
384, 3, wb, attraction, a-b-da, 14, 3, 3, 25, 120, 195, 195, 120, 181, 111, 2, 1.27872
384, 3, wb, attraction, a-b-da, 9, 1, 3, 26, 129, 57, 60, 135, 135, 60, 3, 2.36895
384, 3, wb, attraction, a-b-da, 9, 1, 3, 26, 129, 57, 60, 135, 135, 60, 2, 0.576698
384, 3, wb, attraction, a-b-db, 2, 2, 3, 27, 165, 90, 89, 163, 90, 165, 1, 1.07921
384, 3, wb, attraction, a-b-db, 2, 2, 3, 27, 165, 90, 89, 163, 90, 165, 3, 0.546731
384, 3, wb, attraction, a-b-da, 5, 1, 3, 28, 60, 135, 132, 58, 135, 60, 3, 1.37852
384, 3, wb, attraction, a-b-da, 5, 1, 3, 28, 60, 135, 132, 58, 135, 60, 1, 0.540501
384, 3, wb, attraction, a-b-db, 9, 2, 3, 29, 165, 90, 90, 165, 86, 157, 1, 0.985784
384, 3, wb, attraction, a-b-db, 9, 2, 3, 29, 165, 90, 90, 165, 86, 157, 2, 0.497627
384, 3, wb, attraction, a-b-db, 14, 2, 3, 30, 90, 165, 165, 90, 83, 153, 2, 1.60341
384, 3, wb, attraction, a-b-db, 14, 2, 3, 30, 90, 165, 165, 90, 83, 153, 1, 2.05813
384, 3, wb, filler, NA, 999, 999, 3, 31, 59, 104, 130, 61, 174, 112, 1, 1.17283
384, 3, wb, filler, NA, 999, 999, 3, 31, 59, 104, 130, 61, 174, 112, 3, 0.380418
384, 3, wb, attraction, a-b-da, 14, 1, 3, 32, 125, 56, 135, 60, 60, 135, 1, 0.986854
384, 3, wb, attraction, a-b-da, 14, 1, 3, 32, 125, 56, 135, 60, 60, 135, 3, 0.618548
384, 3, wb, attraction, a-b-db, 2, 1, 3, 33, 135, 60, 60, 135, 59, 134, 2, 1.40766
384, 3, wb, attraction, a-b-db, 2, 1, 3, 33, 135, 60, 60, 135, 59, 134, 1, 0.48596
384, 3, wb, filler, NA, 999, 999, 3, 34, 192, 117, 184, 121, 172, 192, 2, 1.28031
384, 3, wb, filler, NA, 999, 999, 3, 34, 192, 117, 184, 121, 172, 192, 3, 0.323911
384, 3, wb, attraction, a-b-da, 9, 3, 3, 35, 186, 114, 120, 195, 195, 120, 2, 2.07636
384, 3, wb, attraction, a-b-da, 9, 3, 3, 35, 186, 114, 120, 195, 195, 120, 3, 0.431694
384, 3, wb, attraction, a-b-da, 2, 1, 3, 36, 60, 135, 135, 60, 134, 59, 3, 1.70009
384, 3, wb, attraction, a-b-da, 2, 1, 3, 36, 60, 135, 135, 60, 134, 59, 1, 0.638857
384, 3, wb, attraction, a-b-da, 9, 2, 3, 37, 157, 86, 90, 165, 165, 90, 2, 1.53928
384, 3, wb, attraction, a-b-da, 9, 2, 3, 37, 157, 86, 90, 165, 165, 90, 1, 0.436124
384, 3, wb, attraction, a-b-db, 9, 1, 4, 1, 57, 129, 60, 135, 135, 60, 3, 1.21656
384, 3, wb, attraction, a-b-db, 9, 1, 4, 1, 57, 129, 60, 135, 135, 60, 2, 0.655001
384, 3, wb, filler, NA, 999, 999, 4, 2, 177, 193, 126, 169, 68, 147, 3, 1.13055
384, 3, wb, filler, NA, 999, 999, 4, 2, 177, 193, 126, 169, 68, 147, 1, 0.460215
384, 3, wb, attraction, a-b-da, 14, 2, 4, 3, 153, 83, 165, 90, 90, 165, 2, 1.03931
384, 3, wb, attraction, a-b-da, 14, 2, 4, 3, 153, 83, 165, 90, 90, 165, 3, 0.604449
384, 3, wb, attraction, a-b-db, 14, 2, 4, 4, 165, 90, 83, 153, 90, 165, 1, 0.786131
384, 3, wb, attraction, a-b-db, 14, 2, 4, 4, 165, 90, 83, 153, 90, 165, 3, 0.86589
384, 3, wb, filler, NA, 999, 999, 4, 5, 116, 116, 140, 57, 176, 92, 2, 2.21294
384, 3, wb, filler, NA, 999, 999, 4, 5, 116, 116, 140, 57, 176, 92, 3, 1.53878
384, 3, wb, filler, NA, 999, 999, 4, 6, 157, 165, 113, 151, 100, 124, 3, 2.14688
384, 3, wb, filler, NA, 999, 999, 4, 6, 157, 165, 113, 151, 100, 124, 1, 0.307472
384, 3, wb, filler, NA, 999, 999, 4, 7, 140, 195, 108, 167, 185, 133, 2, 1.35679
384, 3, wb, filler, NA, 999, 999, 4, 7, 140, 195, 108, 167, 185, 133, 3, 0.340875
384, 3, wb, filler, NA, 999, 999, 4, 8, 162, 97, 64, 84, 78, 151, 2, 0.764668
384, 3, wb, filler, NA, 999, 999, 4, 8, 162, 97, 64, 84, 78, 151, 1, 0.461099
384, 3, wb, attraction, a-b-da, 14, 1, 4, 9, 125, 56, 135, 60, 60, 135, 3, 0.760322
384, 3, wb, attraction, a-b-da, 14, 1, 4, 9, 125, 56, 135, 60, 60, 135, 2, 0.36062
384, 3, wb, attraction, a-b-da, 5, 2, 4, 10, 165, 90, 90, 165, 161, 88, 3, 1.15983
384, 3, wb, attraction, a-b-da, 5, 2, 4, 10, 165, 90, 90, 165, 161, 88, 2, 0.592197
384, 3, wb, attraction, a-b-db, 2, 1, 4, 11, 60, 135, 59, 134, 135, 60, 1, 0.893831
384, 3, wb, attraction, a-b-db, 2, 1, 4, 11, 60, 135, 59, 134, 135, 60, 3, 0.584856
384, 3, wb, attraction, a-b-da, 9, 3, 4, 12, 195, 120, 186, 114, 120, 195, 2, 1.10329
384, 3, wb, attraction, a-b-da, 9, 3, 4, 12, 195, 120, 186, 114, 120, 195, 3, 0.242441
384, 3, wb, attraction, a-b-db, 14, 3, 4, 13, 195, 120, 120, 195, 111, 181, 1, 0.806155
384, 3, wb, attraction, a-b-db, 14, 3, 4, 13, 195, 120, 120, 195, 111, 181, 2, 0.372703
384, 3, wb, attraction, a-b-da, 14, 3, 4, 14, 181, 111, 120, 195, 195, 120, 1, 0.827849
384, 3, wb, attraction, a-b-da, 14, 3, 4, 14, 181, 111, 120, 195, 195, 120, 2, 0.233359
384, 3, wb, attraction, a-b-da, 9, 1, 4, 15, 135, 60, 60, 135, 129, 57, 1, 0.942127
384, 3, wb, attraction, a-b-da, 9, 1, 4, 15, 135, 60, 60, 135, 129, 57, 2, 0.58303
384, 3, wb, attraction, a-b-da, 9, 2, 4, 16, 165, 90, 90, 165, 157, 86, 3, 2.06146
384, 3, wb, attraction, a-b-da, 9, 2, 4, 16, 165, 90, 90, 165, 157, 86, 2, 0.241465
384, 3, wb, attraction, a-b-db, 5, 1, 4, 17, 135, 60, 58, 132, 60, 135, 2, 1.58935
384, 3, wb, attraction, a-b-db, 5, 1, 4, 17, 135, 60, 58, 132, 60, 135, 3, 1.48408
384, 3, wb, catch, NA, 999, 999, 4, 18, 120, 195, 93, 162, 74, 121, 3, 1.78216
384, 3, wb, catch, NA, 999, 999, 4, 18, 120, 195, 93, 162, 74, 121, 1, 0.365533
384, 3, wb, filler, NA, 999, 999, 4, 19, 148, 64, 176, 61, 162, 124, 1, 0.988779
384, 3, wb, filler, NA, 999, 999, 4, 19, 148, 64, 176, 61, 162, 124, 3, 0.363794
384, 3, wb, attraction, a-b-db, 5, 2, 4, 20, 88, 161, 90, 165, 165, 90, 3, 1.89902
384, 3, wb, attraction, a-b-db, 5, 2, 4, 20, 88, 161, 90, 165, 165, 90, 1, 0.661628
384, 3, wb, filler, NA, 999, 999, 4, 21, 81, 137, 124, 141, 167, 73, 3, 1.84072
384, 3, wb, filler, NA, 999, 999, 4, 21, 81, 137, 124, 141, 167, 73, 2, 0.261494
384, 3, wb, attraction, a-b-db, 14, 1, 4, 22, 56, 125, 60, 135, 135, 60, 2, 2.8487
384, 3, wb, attraction, a-b-db, 14, 1, 4, 22, 56, 125, 60, 135, 135, 60, 3, 0.461045
384, 3, wb, attraction, a-b-da, 5, 1, 4, 23, 60, 135, 135, 60, 132, 58, 2, 3.09629
384, 3, wb, attraction, a-b-da, 5, 1, 4, 23, 60, 135, 135, 60, 132, 58, 1, 0.522562
384, 3, wb, filler, NA, 999, 999, 4, 24, 152, 96, 134, 74, 140, 129, 2, 1.05961
384, 3, wb, filler, NA, 999, 999, 4, 24, 152, 96, 134, 74, 140, 129, 3, 0.807933
384, 3, wb, catch, NA, 999, 999, 4, 25, 95, 160, 102, 93, 153, 162, 2, 0.94092
384, 3, wb, catch, NA, 999, 999, 4, 25, 95, 160, 102, 93, 153, 162, 3, 0.278059
384, 3, wb, attraction, a-b-db, 5, 3, 4, 26, 195, 120, 117, 190, 120, 195, 1, 3.05655
384, 3, wb, attraction, a-b-db, 5, 3, 4, 26, 195, 120, 117, 190, 120, 195, 2, 0.236186
384, 3, wb, attraction, a-b-da, 2, 3, 4, 27, 193, 119, 195, 120, 120, 195, 2, 6.44066
384, 3, wb, attraction, a-b-da, 2, 3, 4, 27, 193, 119, 195, 120, 120, 195, 3, 0.475973
384, 3, wb, filler, NA, 999, 999, 4, 28, 182, 139, 165, 139, 59, 77, 3, 1.07054
384, 3, wb, filler, NA, 999, 999, 4, 28, 182, 139, 165, 139, 59, 77, 1, 0.666854
384, 3, wb, attraction, a-b-da, 2, 2, 4, 29, 163, 89, 90, 165, 165, 90, 1, 1.24591
384, 3, wb, attraction, a-b-da, 2, 2, 4, 29, 163, 89, 90, 165, 165, 90, 2, 0.62679
384, 3, wb, attraction, a-b-da, 2, 1, 4, 30, 60, 135, 134, 59, 135, 60, 3, 1.75123
384, 3, wb, attraction, a-b-da, 2, 1, 4, 30, 60, 135, 134, 59, 135, 60, 1, 0.679901
384, 3, wb, attraction, a-b-db, 2, 2, 4, 31, 165, 90, 90, 165, 89, 163, 2, 1.17027
384, 3, wb, attraction, a-b-db, 2, 2, 4, 31, 165, 90, 90, 165, 89, 163, 3, 0.6426
384, 3, wb, attraction, a-b-db, 2, 3, 4, 32, 120, 195, 119, 193, 195, 120, 3, 2.05438
384, 3, wb, attraction, a-b-db, 2, 3, 4, 32, 120, 195, 119, 193, 195, 120, 1, 0.347007
384, 3, wb, attraction, a-b-db, 9, 2, 4, 33, 165, 90, 90, 165, 86, 157, 1, 0.907043
384, 3, wb, attraction, a-b-db, 9, 2, 4, 33, 165, 90, 90, 165, 86, 157, 2, 0.221249
384, 3, wb, attraction, a-b-db, 9, 3, 4, 34, 120, 195, 195, 120, 114, 186, 2, 1.29843
384, 3, wb, attraction, a-b-db, 9, 3, 4, 34, 120, 195, 195, 120, 114, 186, 3, 0.34126
384, 3, wb, attraction, a-b-da, 5, 3, 4, 35, 195, 120, 120, 195, 190, 117, 1, 1.04509
384, 3, wb, attraction, a-b-da, 5, 3, 4, 35, 195, 120, 120, 195, 190, 117, 2, 0.538244
384, 3, wb, filler, NA, 999, 999, 4, 36, 147, 133, 117, 144, 138, 94, 3, 0.794548
384, 3, wb, filler, NA, 999, 999, 4, 36, 147, 133, 117, 144, 138, 94, 2, 0.593641
384, 3, wb, catch, NA, 999, 999, 4, 37, 141, 174, 80, 115, 144, 111, 2, 0.615349
384, 3, wb, catch, NA, 999, 999, 4, 37, 141, 174, 80, 115, 144, 111, 1, 0.66188
384, 3, wb, attraction, a-b-db, 9, 1, 5, 1, 60, 135, 135, 60, 57, 129, 2, 3.9915
384, 3, wb, attraction, a-b-db, 9, 1, 5, 1, 60, 135, 135, 60, 57, 129, 1, 2.07767
384, 3, wb, filler, NA, 999, 999, 5, 2, 89, 135, 77, 109, 79, 136, 2, 0.887623
384, 3, wb, filler, NA, 999, 999, 5, 2, 89, 135, 77, 109, 79, 136, 3, 1.13068
384, 3, wb, attraction, a-b-da, 9, 1, 5, 3, 60, 135, 129, 57, 135, 60, 2, 1.1308
384, 3, wb, attraction, a-b-da, 9, 1, 5, 3, 60, 135, 129, 57, 135, 60, 1, 0.516407
384, 3, wb, filler, NA, 999, 999, 5, 4, 156, 91, 75, 93, 77, 133, 2, 0.54155
384, 3, wb, filler, NA, 999, 999, 5, 4, 156, 91, 75, 93, 77, 133, 1, 0.39873
384, 3, wb, filler, NA, 999, 999, 5, 5, 151, 147, 110, 103, 98, 181, 2, 0.652512
384, 3, wb, filler, NA, 999, 999, 5, 5, 151, 147, 110, 103, 98, 181, 1, 0.473612
384, 3, wb, filler, NA, 999, 999, 5, 6, 127, 134, 166, 150, 99, 138, 3, 1.15613
384, 3, wb, filler, NA, 999, 999, 5, 6, 127, 134, 166, 150, 99, 138, 2, 0.964372
384, 3, wb, attraction, a-b-da, 14, 3, 5, 7, 181, 111, 120, 195, 195, 120, 1, 1.17934
384, 3, wb, attraction, a-b-da, 14, 3, 5, 7, 181, 111, 120, 195, 195, 120, 2, 0.963014
384, 3, wb, attraction, a-b-db, 5, 3, 5, 8, 120, 195, 195, 120, 117, 190, 1, 0.761895
384, 3, wb, attraction, a-b-db, 5, 3, 5, 8, 120, 195, 195, 120, 117, 190, 2, 0.20233
384, 3, wb, attraction, a-b-db, 5, 2, 5, 9, 165, 90, 88, 161, 90, 165, 2, 1.3921
384, 3, wb, attraction, a-b-db, 5, 2, 5, 9, 165, 90, 88, 161, 90, 165, 1, 0.327009
384, 3, wb, filler, NA, 999, 999, 5, 10, 97, 90, 164, 135, 177, 85, 1, 0.89625
384, 3, wb, filler, NA, 999, 999, 5, 10, 97, 90, 164, 135, 177, 85, 2, 0.298572
384, 3, wb, attraction, a-b-db, 5, 1, 5, 11, 135, 60, 60, 135, 58, 132, 2, 0.820377
384, 3, wb, attraction, a-b-db, 5, 1, 5, 11, 135, 60, 60, 135, 58, 132, 1, 0.634805
384, 3, wb, catch, NA, 999, 999, 5, 12, 103, 92, 134, 121, 164, 151, 1, 0.687188
384, 3, wb, catch, NA, 999, 999, 5, 12, 103, 92, 134, 121, 164, 151, 3, 0.803123
384, 3, wb, attraction, a-b-db, 14, 1, 5, 13, 135, 60, 60, 135, 56, 125, 3, 0.856799
384, 3, wb, attraction, a-b-db, 14, 1, 5, 13, 135, 60, 60, 135, 56, 125, 1, 0.397097
384, 3, wb, attraction, a-b-da, 5, 1, 5, 14, 135, 60, 132, 58, 60, 135, 2, 0.754905
384, 3, wb, attraction, a-b-da, 5, 1, 5, 14, 135, 60, 132, 58, 60, 135, 1, 0.627308
384, 3, wb, attraction, a-b-db, 9, 3, 5, 15, 114, 186, 120, 195, 195, 120, 3, 1.25574
384, 3, wb, attraction, a-b-db, 9, 3, 5, 15, 114, 186, 120, 195, 195, 120, 2, 0.307896
384, 3, wb, attraction, a-b-da, 9, 3, 5, 16, 195, 120, 120, 195, 186, 114, 1, 0.901193
384, 3, wb, attraction, a-b-da, 9, 3, 5, 16, 195, 120, 120, 195, 186, 114, 2, 0.544187
384, 3, wb, attraction, a-b-da, 14, 1, 5, 17, 125, 56, 60, 135, 135, 60, 1, 0.67989
384, 3, wb, attraction, a-b-da, 14, 1, 5, 17, 125, 56, 60, 135, 135, 60, 2, 0.643633
384, 3, wb, attraction, a-b-db, 2, 1, 5, 18, 135, 60, 60, 135, 59, 134, 2, 0.631347
384, 3, wb, attraction, a-b-db, 2, 1, 5, 18, 135, 60, 60, 135, 59, 134, 1, 1.03726
384, 3, wb, attraction, a-b-da, 5, 2, 5, 19, 161, 88, 90, 165, 165, 90, 2, 0.969534
384, 3, wb, attraction, a-b-da, 5, 2, 5, 19, 161, 88, 90, 165, 165, 90, 1, 0.465857
384, 3, wb, catch, NA, 999, 999, 5, 20, 97, 158, 117, 78, 183, 132, 2, 0.676985
384, 3, wb, catch, NA, 999, 999, 5, 20, 97, 158, 117, 78, 183, 132, 3, 0.304762
384, 3, wb, attraction, a-b-db, 9, 2, 5, 21, 86, 157, 165, 90, 90, 165, 2, 0.618629
384, 3, wb, attraction, a-b-db, 9, 2, 5, 21, 86, 157, 165, 90, 90, 165, 3, 0.760987
384, 3, wb, filler, NA, 999, 999, 5, 22, 171, 112, 122, 108, 67, 66, 3, 0.872094
384, 3, wb, filler, NA, 999, 999, 5, 22, 171, 112, 122, 108, 67, 66, 1, 0.795746
384, 3, wb, filler, NA, 999, 999, 5, 23, 158, 170, 141, 156, 178, 98, 3, 1.2014
384, 3, wb, filler, NA, 999, 999, 5, 23, 158, 170, 141, 156, 178, 98, 2, 0.224434
384, 3, wb, filler, NA, 999, 999, 5, 24, 194, 134, 195, 151, 75, 167, 3, 0.812838
384, 3, wb, filler, NA, 999, 999, 5, 24, 194, 134, 195, 151, 75, 167, 2, 0.323251
384, 3, wb, attraction, a-b-db, 14, 2, 5, 25, 165, 90, 90, 165, 83, 153, 2, 1.40443
384, 3, wb, attraction, a-b-db, 14, 2, 5, 25, 165, 90, 90, 165, 83, 153, 1, 0.538625
384, 3, wb, attraction, a-b-db, 2, 3, 5, 26, 119, 193, 120, 195, 195, 120, 2, 2.04306
384, 3, wb, attraction, a-b-db, 2, 3, 5, 26, 119, 193, 120, 195, 195, 120, 3, 0.287763
384, 3, wb, filler, NA, 999, 999, 5, 27, 145, 107, 64, 192, 112, 180, 2, 0.89824
384, 3, wb, filler, NA, 999, 999, 5, 27, 145, 107, 64, 192, 112, 180, 3, 0.333226
384, 3, wb, attraction, a-b-da, 2, 2, 5, 28, 165, 90, 163, 89, 90, 165, 2, 0.853981
384, 3, wb, attraction, a-b-da, 2, 2, 5, 28, 165, 90, 163, 89, 90, 165, 3, 0.419003
384, 3, wb, catch, NA, 999, 999, 5, 29, 141, 174, 121, 74, 124, 131, 2, 0.831962
384, 3, wb, catch, NA, 999, 999, 5, 29, 141, 174, 121, 74, 124, 131, 1, 0.341645
384, 3, wb, attraction, a-b-da, 2, 1, 5, 30, 60, 135, 135, 60, 134, 59, 1, 1.24548
384, 3, wb, attraction, a-b-da, 2, 1, 5, 30, 60, 135, 135, 60, 134, 59, 2, 0.538403
384, 3, wb, attraction, a-b-db, 14, 3, 5, 31, 195, 120, 120, 195, 111, 181, 2, 1.36286
384, 3, wb, attraction, a-b-db, 14, 3, 5, 31, 195, 120, 120, 195, 111, 181, 1, 0.331051
384, 3, wb, attraction, a-b-da, 14, 2, 5, 32, 153, 83, 165, 90, 90, 165, 1, 0.827706
384, 3, wb, attraction, a-b-da, 14, 2, 5, 32, 153, 83, 165, 90, 90, 165, 2, 0.457276
384, 3, wb, attraction, a-b-da, 5, 3, 5, 33, 195, 120, 190, 117, 120, 195, 2, 0.956461
384, 3, wb, attraction, a-b-da, 5, 3, 5, 33, 195, 120, 190, 117, 120, 195, 3, 0.716905
384, 3, wb, attraction, a-b-da, 9, 2, 5, 34, 157, 86, 165, 90, 90, 165, 1, 0.829796
384, 3, wb, attraction, a-b-da, 9, 2, 5, 34, 157, 86, 165, 90, 90, 165, 2, 0.899529
384, 3, wb, filler, NA, 999, 999, 5, 35, 122, 164, 74, 107, 184, 187, 2, 1.07727
384, 3, wb, filler, NA, 999, 999, 5, 35, 122, 164, 74, 107, 184, 187, 3, 0.20906
384, 3, wb, attraction, a-b-db, 2, 2, 5, 36, 89, 163, 165, 90, 90, 165, 2, 2.83801
384, 3, wb, attraction, a-b-db, 2, 2, 5, 36, 89, 163, 165, 90, 90, 165, 3, 4.75512
384, 3, wb, attraction, a-b-da, 2, 3, 5, 37, 195, 120, 193, 119, 120, 195, 3, 2.60162
384, 3, wb, attraction, a-b-da, 2, 3, 5, 37, 195, 120, 193, 119, 120, 195, 2, 0.752097
384, 3, wb, filler, NA, 999, 999, 6, 1, 149, 108, 64, 129, 123, 152, 2, 0.735786
384, 3, wb, filler, NA, 999, 999, 6, 1, 149, 108, 64, 129, 123, 152, 3, 1.6736
384, 3, wb, attraction, a-b-da, 9, 1, 6, 2, 135, 60, 129, 57, 60, 135, 3, 2.33974
384, 3, wb, attraction, a-b-da, 9, 1, 6, 2, 135, 60, 129, 57, 60, 135, 1, 0.812394
384, 3, wb, filler, NA, 999, 999, 6, 3, 142, 80, 95, 167, 114, 135, 1, 7.70527
384, 3, wb, filler, NA, 999, 999, 6, 3, 142, 80, 95, 167, 114, 135, 2, 1.65021
384, 3, wb, attraction, a-b-da, 2, 2, 6, 4, 163, 89, 90, 165, 165, 90, 2, 2.9016
384, 3, wb, attraction, a-b-da, 2, 2, 6, 4, 163, 89, 90, 165, 165, 90, 3, 0.551955
384, 3, wb, attraction, a-b-db, 9, 3, 6, 5, 114, 186, 195, 120, 120, 195, 1, 1.17569
384, 3, wb, attraction, a-b-db, 9, 3, 6, 5, 114, 186, 195, 120, 120, 195, 2, 0.207426
384, 3, wb, attraction, a-b-db, 14, 2, 6, 6, 83, 153, 90, 165, 165, 90, 1, 0.956552
384, 3, wb, attraction, a-b-db, 14, 2, 6, 6, 83, 153, 90, 165, 165, 90, 2, 0.268914
384, 3, wb, filler, NA, 999, 999, 6, 7, 79, 186, 157, 88, 62, 113, 3, 0.640064
384, 3, wb, filler, NA, 999, 999, 6, 7, 79, 186, 157, 88, 62, 113, 1, 0.949252
384, 3, wb, catch, NA, 999, 999, 6, 8, 115, 80, 138, 177, 137, 118, 1, 1.02895
384, 3, wb, catch, NA, 999, 999, 6, 8, 115, 80, 138, 177, 137, 118, 2, 0.234577
384, 3, wb, attraction, a-b-da, 9, 3, 6, 9, 195, 120, 120, 195, 186, 114, 3, 1.22296
384, 3, wb, attraction, a-b-da, 9, 3, 6, 9, 195, 120, 120, 195, 186, 114, 1, 0.54872
384, 3, wb, filler, NA, 999, 999, 6, 10, 69, 148, 144, 61, 110, 66, 3, 0.636426
384, 3, wb, filler, NA, 999, 999, 6, 10, 69, 148, 144, 61, 110, 66, 1, 0.31423
384, 3, wb, attraction, a-b-db, 5, 3, 6, 11, 120, 195, 195, 120, 117, 190, 3, 9.93136
384, 3, wb, attraction, a-b-db, 5, 3, 6, 11, 120, 195, 195, 120, 117, 190, 2, 0.35418
384, 3, wb, attraction, a-b-da, 2, 1, 6, 12, 134, 59, 135, 60, 60, 135, 2, 1.09
384, 3, wb, attraction, a-b-da, 2, 1, 6, 12, 134, 59, 135, 60, 60, 135, 1, 0.589068
384, 3, wb, filler, NA, 999, 999, 6, 13, 73, 135, 109, 188, 59, 56, 3, 1.04799
384, 3, wb, filler, NA, 999, 999, 6, 13, 73, 135, 109, 188, 59, 56, 2, 0.168401
384, 3, wb, catch, NA, 999, 999, 6, 14, 85, 110, 141, 114, 150, 165, 1, 1.33562
384, 3, wb, catch, NA, 999, 999, 6, 14, 85, 110, 141, 114, 150, 165, 3, 0.993259
384, 3, wb, attraction, a-b-da, 2, 3, 6, 15, 195, 120, 193, 119, 120, 195, 2, 1.76685
384, 3, wb, attraction, a-b-da, 2, 3, 6, 15, 195, 120, 193, 119, 120, 195, 1, 0.654935
384, 3, wb, attraction, a-b-db, 5, 1, 6, 16, 58, 132, 60, 135, 135, 60, 1, 2.22681
384, 3, wb, attraction, a-b-db, 5, 1, 6, 16, 58, 132, 60, 135, 135, 60, 3, 1.02394
384, 3, wb, attraction, a-b-da, 9, 2, 6, 17, 90, 165, 157, 86, 165, 90, 3, 1.64415
384, 3, wb, attraction, a-b-da, 9, 2, 6, 17, 90, 165, 157, 86, 165, 90, 1, 0.344923
384, 3, wb, attraction, a-b-da, 5, 2, 6, 18, 165, 90, 161, 88, 90, 165, 2, 0.880758
384, 3, wb, attraction, a-b-da, 5, 2, 6, 18, 165, 90, 161, 88, 90, 165, 1, 0.276523
384, 3, wb, attraction, a-b-db, 5, 2, 6, 19, 165, 90, 88, 161, 90, 165, 1, 1.90308
384, 3, wb, attraction, a-b-db, 5, 2, 6, 19, 165, 90, 88, 161, 90, 165, 3, 0.537753
384, 3, wb, filler, NA, 999, 999, 6, 20, 186, 193, 130, 189, 118, 141, 3, 1.09818
384, 3, wb, filler, NA, 999, 999, 6, 20, 186, 193, 130, 189, 118, 141, 1, 0.949137
384, 3, wb, attraction, a-b-db, 9, 2, 6, 21, 165, 90, 90, 165, 86, 157, 2, 3.58088
384, 3, wb, attraction, a-b-db, 9, 2, 6, 21, 165, 90, 90, 165, 86, 157, 1, 0.870514
384, 3, wb, attraction, a-b-da, 14, 2, 6, 22, 90, 165, 153, 83, 165, 90, 1, 2.65474
384, 3, wb, attraction, a-b-da, 14, 2, 6, 22, 90, 165, 153, 83, 165, 90, 2, 1.49119
384, 3, wb, attraction, a-b-db, 9, 1, 6, 23, 57, 129, 60, 135, 135, 60, 3, 2.06058
384, 3, wb, attraction, a-b-db, 9, 1, 6, 23, 57, 129, 60, 135, 135, 60, 2, 0.568599
384, 3, wb, catch, NA, 999, 999, 6, 24, 162, 153, 149, 106, 82, 113, 3, 1.10487
384, 3, wb, catch, NA, 999, 999, 6, 24, 162, 153, 149, 106, 82, 113, 1, 0.402203
384, 3, wb, attraction, a-b-da, 5, 1, 6, 25, 135, 60, 132, 58, 60, 135, 2, 1.4718
384, 3, wb, attraction, a-b-da, 5, 1, 6, 25, 135, 60, 132, 58, 60, 135, 3, 0.84332
384, 3, wb, filler, NA, 999, 999, 6, 26, 153, 186, 177, 116, 134, 116, 3, 1.35112
384, 3, wb, filler, NA, 999, 999, 6, 26, 153, 186, 177, 116, 134, 116, 1, 0.391912
384, 3, wb, attraction, a-b-db, 14, 1, 6, 27, 56, 125, 60, 135, 135, 60, 2, 1.42184
384, 3, wb, attraction, a-b-db, 14, 1, 6, 27, 56, 125, 60, 135, 135, 60, 3, 0.33133
384, 3, wb, attraction, a-b-da, 14, 3, 6, 28, 120, 195, 195, 120, 181, 111, 2, 2.56376
384, 3, wb, attraction, a-b-da, 14, 3, 6, 28, 120, 195, 195, 120, 181, 111, 1, 0.403618
384, 3, wb, attraction, a-b-db, 2, 2, 6, 29, 90, 165, 165, 90, 89, 163, 3, 5.32934
384, 3, wb, attraction, a-b-db, 2, 2, 6, 29, 90, 165, 165, 90, 89, 163, 2, 0.30571
384, 3, wb, filler, NA, 999, 999, 6, 30, 127, 56, 124, 171, 74, 155, 1, 0.963496
384, 3, wb, filler, NA, 999, 999, 6, 30, 127, 56, 124, 171, 74, 155, 2, 0.499999
384, 3, wb, attraction, a-b-db, 14, 3, 6, 31, 111, 181, 120, 195, 195, 120, 3, 2.9497
384, 3, wb, attraction, a-b-db, 14, 3, 6, 31, 111, 181, 120, 195, 195, 120, 2, 0.270094
384, 3, wb, attraction, a-b-db, 2, 1, 6, 32, 60, 135, 59, 134, 135, 60, 1, 0.945274
384, 3, wb, attraction, a-b-db, 2, 1, 6, 32, 60, 135, 59, 134, 135, 60, 2, 0.858326
384, 3, wb, attraction, a-b-da, 14, 1, 6, 33, 125, 56, 135, 60, 60, 135, 1, 2.61325
384, 3, wb, attraction, a-b-da, 14, 1, 6, 33, 125, 56, 135, 60, 60, 135, 2, 1.00305
384, 3, wb, attraction, a-b-db, 2, 3, 6, 34, 120, 195, 195, 120, 119, 193, 2, 3.48078
384, 3, wb, attraction, a-b-db, 2, 3, 6, 34, 120, 195, 195, 120, 119, 193, 1, 0.52366
384, 3, wb, attraction, a-b-da, 5, 3, 6, 35, 195, 120, 190, 117, 120, 195, 3, 1.93225
384, 3, wb, attraction, a-b-da, 5, 3, 6, 35, 195, 120, 190, 117, 120, 195, 2, 0.645495
384, 3, wb, filler, NA, 999, 999, 6, 36, 150, 67, 59, 68, 80, 156, 2, 0.937134
384, 3, wb, filler, NA, 999, 999, 6, 36, 150, 67, 59, 68, 80, 156, 3, 1.0429
384, 3, wb, filler, NA, 999, 999, 6, 37, 82, 145, 144, 186, 152, 89, 1, 1.67052
384, 3, wb, filler, NA, 999, 999, 6, 37, 82, 145, 144, 186, 152, 89, 2, 0.4187
384, 3, wb, attraction, a-b-da, 2, 3, 7, 1, 120, 195, 195, 120, 193, 119, 2, 1.50385
384, 3, wb, attraction, a-b-da, 2, 3, 7, 1, 120, 195, 195, 120, 193, 119, 1, 0.306763
384, 3, wb, attraction, a-b-da, 5, 1, 7, 2, 60, 135, 135, 60, 132, 58, 2, 0.779706
384, 3, wb, attraction, a-b-da, 5, 1, 7, 2, 60, 135, 135, 60, 132, 58, 1, 0.371556
384, 3, wb, attraction, a-b-da, 14, 1, 7, 3, 60, 135, 135, 60, 125, 56, 2, 0.650763
384, 3, wb, attraction, a-b-da, 14, 1, 7, 3, 60, 135, 135, 60, 125, 56, 1, 0.583752
384, 3, wb, catch, NA, 999, 999, 7, 4, 159, 96, 163, 152, 69, 126, 3, 0.782183
384, 3, wb, catch, NA, 999, 999, 7, 4, 159, 96, 163, 152, 69, 126, 2, 0.573956
384, 3, wb, filler, NA, 999, 999, 7, 5, 129, 155, 183, 125, 183, 159, 1, 4.33233
384, 3, wb, filler, NA, 999, 999, 7, 5, 129, 155, 183, 125, 183, 159, 3, 0.500989
384, 3, wb, filler, NA, 999, 999, 7, 6, 152, 176, 117, 73, 175, 192, 2, 2.9987
384, 3, wb, filler, NA, 999, 999, 7, 6, 152, 176, 117, 73, 175, 192, 3, 0.741095
384, 3, wb, catch, NA, 999, 999, 7, 7, 134, 181, 90, 105, 115, 140, 2, 1.13269
384, 3, wb, catch, NA, 999, 999, 7, 7, 134, 181, 90, 105, 115, 140, 1, 0.406419
384, 3, wb, attraction, a-b-db, 14, 3, 7, 8, 120, 195, 195, 120, 111, 181, 3, 1.69231
384, 3, wb, attraction, a-b-db, 14, 3, 7, 8, 120, 195, 195, 120, 111, 181, 1, 1.02323
384, 3, wb, filler, NA, 999, 999, 7, 9, 60, 86, 158, 132, 57, 160, 1, 0.908068
384, 3, wb, filler, NA, 999, 999, 7, 9, 60, 86, 158, 132, 57, 160, 2, 0.422412
384, 3, wb, filler, NA, 999, 999, 7, 10, 87, 163, 104, 188, 141, 158, 1, 2.79555
384, 3, wb, filler, NA, 999, 999, 7, 10, 87, 163, 104, 188, 141, 158, 2, 0.577886
384, 3, wb, attraction, a-b-da, 5, 3, 7, 11, 190, 117, 120, 195, 195, 120, 1, 2.78442
384, 3, wb, attraction, a-b-da, 5, 3, 7, 11, 190, 117, 120, 195, 195, 120, 2, 0.695595
384, 3, wb, attraction, a-b-da, 9, 3, 7, 12, 186, 114, 195, 120, 120, 195, 2, 3.2972
384, 3, wb, attraction, a-b-da, 9, 3, 7, 12, 186, 114, 195, 120, 120, 195, 3, 0.435715
384, 3, wb, filler, NA, 999, 999, 7, 13, 90, 151, 191, 195, 189, 147, 1, 0.895939
384, 3, wb, filler, NA, 999, 999, 7, 13, 90, 151, 191, 195, 189, 147, 2, 0.434937
384, 3, wb, attraction, a-b-da, 2, 2, 7, 14, 165, 90, 163, 89, 90, 165, 2, 2.00745
384, 3, wb, attraction, a-b-da, 2, 2, 7, 14, 165, 90, 163, 89, 90, 165, 3, 0.757437
384, 3, wb, filler, NA, 999, 999, 7, 15, 180, 166, 59, 141, 141, 99, 2, 0.708444
384, 3, wb, filler, NA, 999, 999, 7, 15, 180, 166, 59, 141, 141, 99, 1, 0.326959
384, 3, wb, attraction, a-b-db, 2, 3, 7, 16, 120, 195, 195, 120, 119, 193, 2, 2.59946
384, 3, wb, attraction, a-b-db, 2, 3, 7, 16, 120, 195, 195, 120, 119, 193, 1, 0.349947
384, 3, wb, attraction, a-b-db, 2, 1, 7, 17, 59, 134, 135, 60, 60, 135, 2, 1.16573
384, 3, wb, attraction, a-b-db, 2, 1, 7, 17, 59, 134, 135, 60, 60, 135, 3, 1.91008
384, 3, wb, attraction, a-b-db, 5, 3, 7, 18, 117, 190, 195, 120, 120, 195, 2, 1.35867
384, 3, wb, attraction, a-b-db, 5, 3, 7, 18, 117, 190, 195, 120, 120, 195, 3, 0.454874
384, 3, wb, filler, NA, 999, 999, 7, 19, 152, 128, 78, 108, 118, 127, 2, 0.770696
384, 3, wb, filler, NA, 999, 999, 7, 19, 152, 128, 78, 108, 118, 127, 1, 0.491123
384, 3, wb, filler, NA, 999, 999, 7, 20, 72, 79, 104, 143, 139, 72, 1, 1.12485
384, 3, wb, filler, NA, 999, 999, 7, 20, 72, 79, 104, 143, 139, 72, 2, 0.462545
384, 3, wb, attraction, a-b-db, 9, 2, 7, 21, 86, 157, 90, 165, 165, 90, 3, 3.88968
384, 3, wb, attraction, a-b-db, 9, 2, 7, 21, 86, 157, 90, 165, 165, 90, 2, 0.563674
384, 3, wb, attraction, a-b-da, 9, 1, 7, 22, 60, 135, 129, 57, 135, 60, 2, 1.64286
384, 3, wb, attraction, a-b-da, 9, 1, 7, 22, 60, 135, 129, 57, 135, 60, 1, 1.33563
384, 3, wb, attraction, a-b-da, 5, 2, 7, 23, 161, 88, 90, 165, 165, 90, 1, 4.27979
384, 3, wb, attraction, a-b-da, 5, 2, 7, 23, 161, 88, 90, 165, 165, 90, 2, 0.594472
384, 3, wb, attraction, a-b-db, 14, 2, 7, 24, 83, 153, 90, 165, 165, 90, 1, 3.16014
384, 3, wb, attraction, a-b-db, 14, 2, 7, 24, 83, 153, 90, 165, 165, 90, 2, 0.983848
384, 3, wb, attraction, a-b-da, 14, 3, 7, 25, 181, 111, 195, 120, 120, 195, 1, 4.20609
384, 3, wb, attraction, a-b-da, 14, 3, 7, 25, 181, 111, 195, 120, 120, 195, 3, 0.531441
384, 3, wb, attraction, a-b-db, 2, 2, 7, 26, 90, 165, 89, 163, 165, 90, 2, 1.02792
384, 3, wb, attraction, a-b-db, 2, 2, 7, 26, 90, 165, 89, 163, 165, 90, 1, 0.809609
384, 3, wb, attraction, a-b-db, 14, 1, 7, 27, 56, 125, 135, 60, 60, 135, 1, 4.15877
384, 3, wb, attraction, a-b-db, 14, 1, 7, 27, 56, 125, 135, 60, 60, 135, 2, 0.781919
384, 3, wb, attraction, a-b-db, 9, 1, 7, 28, 60, 135, 57, 129, 135, 60, 2, 4.03629
384, 3, wb, attraction, a-b-db, 9, 1, 7, 28, 60, 135, 57, 129, 135, 60, 1, 0.584985
384, 3, wb, attraction, a-b-db, 5, 1, 7, 29, 60, 135, 58, 132, 135, 60, 2, 0.871414
384, 3, wb, attraction, a-b-db, 5, 1, 7, 29, 60, 135, 58, 132, 135, 60, 1, 0.59512
384, 3, wb, filler, NA, 999, 999, 7, 30, 117, 89, 134, 56, 64, 188, 2, 2.80885
384, 3, wb, filler, NA, 999, 999, 7, 30, 117, 89, 134, 56, 64, 188, 1, 0.950637
384, 3, wb, filler, NA, 999, 999, 7, 31, 60, 123, 193, 63, 184, 95, 1, 1.47049
384, 3, wb, filler, NA, 999, 999, 7, 31, 60, 123, 193, 63, 184, 95, 3, 0.762461
384, 3, wb, catch, NA, 999, 999, 7, 32, 98, 157, 159, 156, 108, 87, 3, 0.977452
384, 3, wb, catch, NA, 999, 999, 7, 32, 98, 157, 159, 156, 108, 87, 2, 0.321133
384, 3, wb, attraction, a-b-db, 5, 2, 7, 33, 90, 165, 165, 90, 88, 161, 2, 2.50637
384, 3, wb, attraction, a-b-db, 5, 2, 7, 33, 90, 165, 165, 90, 88, 161, 1, 0.50822
384, 3, wb, attraction, a-b-da, 9, 2, 7, 34, 157, 86, 165, 90, 90, 165, 2, 2.16547
384, 3, wb, attraction, a-b-da, 9, 2, 7, 34, 157, 86, 165, 90, 90, 165, 3, 0.389352
384, 3, wb, attraction, a-b-da, 2, 1, 7, 35, 135, 60, 134, 59, 60, 135, 2, 1.24379
384, 3, wb, attraction, a-b-da, 2, 1, 7, 35, 135, 60, 134, 59, 60, 135, 3, 1.14472
384, 3, wb, attraction, a-b-da, 14, 2, 7, 36, 165, 90, 153, 83, 90, 165, 2, 1.2322
384, 3, wb, attraction, a-b-da, 14, 2, 7, 36, 165, 90, 153, 83, 90, 165, 3, 0.645835
384, 3, wb, attraction, a-b-db, 9, 3, 7, 37, 195, 120, 114, 186, 120, 195, 2, 3.68961
384, 3, wb, attraction, a-b-db, 9, 3, 7, 37, 195, 120, 114, 186, 120, 195, 3, 0.443954
384, 3, wb, attraction, a-b-da, 9, 3, 8, 1, 120, 195, 195, 120, 186, 114, 3, 0.92752
384, 3, wb, attraction, a-b-da, 9, 3, 8, 1, 120, 195, 195, 120, 186, 114, 1, 0.233184
384, 3, wb, attraction, a-b-db, 14, 3, 8, 2, 195, 120, 111, 181, 120, 195, 2, 1.09391
384, 3, wb, attraction, a-b-db, 14, 3, 8, 2, 195, 120, 111, 181, 120, 195, 3, 0.824789
384, 3, wb, attraction, a-b-db, 5, 3, 8, 3, 120, 195, 195, 120, 117, 190, 2, 1.21309
384, 3, wb, attraction, a-b-db, 5, 3, 8, 3, 120, 195, 195, 120, 117, 190, 3, 0.307596
384, 3, wb, attraction, a-b-da, 2, 3, 8, 4, 120, 195, 195, 120, 193, 119, 1, 0.876494
384, 3, wb, attraction, a-b-da, 2, 3, 8, 4, 120, 195, 195, 120, 193, 119, 2, 0.192174
384, 3, wb, filler, NA, 999, 999, 8, 5, 139, 103, 100, 128, 66, 94, 3, 0.69403
384, 3, wb, filler, NA, 999, 999, 8, 5, 139, 103, 100, 128, 66, 94, 1, 0.393261
384, 3, wb, filler, NA, 999, 999, 8, 6, 60, 140, 121, 180, 185, 87, 1, 0.743071
384, 3, wb, filler, NA, 999, 999, 8, 6, 60, 140, 121, 180, 185, 87, 2, 0.456135
384, 3, wb, attraction, a-b-db, 5, 1, 8, 7, 60, 135, 58, 132, 135, 60, 2, 1.028
384, 3, wb, attraction, a-b-db, 5, 1, 8, 7, 60, 135, 58, 132, 135, 60, 3, 0.377523
384, 3, wb, catch, NA, 999, 999, 8, 8, 133, 182, 125, 70, 143, 112, 2, 0.60808
384, 3, wb, catch, NA, 999, 999, 8, 8, 133, 182, 125, 70, 143, 112, 1, 0.550463
384, 3, wb, filler, NA, 999, 999, 8, 9, 177, 151, 112, 142, 180, 97, 2, 0.510255
384, 3, wb, filler, NA, 999, 999, 8, 9, 177, 151, 112, 142, 180, 97, 1, 0.520843
384, 3, wb, attraction, a-b-da, 9, 2, 8, 10, 90, 165, 157, 86, 165, 90, 3, 1.00987
384, 3, wb, attraction, a-b-da, 9, 2, 8, 10, 90, 165, 157, 86, 165, 90, 1, 0.464177
384, 3, wb, filler, NA, 999, 999, 8, 11, 83, 161, 101, 121, 57, 143, 2, 0.843302
384, 3, wb, filler, NA, 999, 999, 8, 11, 83, 161, 101, 121, 57, 143, 1, 0.288384
384, 3, wb, attraction, a-b-db, 14, 2, 8, 12, 83, 153, 165, 90, 90, 165, 2, 0.682855
384, 3, wb, attraction, a-b-db, 14, 2, 8, 12, 83, 153, 165, 90, 90, 165, 1, 0.310681
384, 3, wb, attraction, a-b-da, 5, 1, 8, 13, 60, 135, 132, 58, 135, 60, 2, 0.511784
384, 3, wb, attraction, a-b-da, 5, 1, 8, 13, 60, 135, 132, 58, 135, 60, 1, 0.266263
384, 3, wb, attraction, a-b-db, 5, 2, 8, 14, 88, 161, 165, 90, 90, 165, 2, 0.605485
384, 3, wb, attraction, a-b-db, 5, 2, 8, 14, 88, 161, 165, 90, 90, 165, 3, 0.227917
384, 3, wb, attraction, a-b-da, 14, 2, 8, 15, 153, 83, 165, 90, 90, 165, 2, 0.704378
384, 3, wb, attraction, a-b-da, 14, 2, 8, 15, 153, 83, 165, 90, 90, 165, 3, 0.547536
384, 3, wb, attraction, a-b-db, 9, 2, 8, 16, 90, 165, 165, 90, 86, 157, 3, 1.29943
384, 3, wb, attraction, a-b-db, 9, 2, 8, 16, 90, 165, 165, 90, 86, 157, 2, 0.190169
384, 3, wb, attraction, a-b-db, 9, 3, 8, 17, 195, 120, 114, 186, 120, 195, 2, 1.93214
384, 3, wb, attraction, a-b-db, 9, 3, 8, 17, 195, 120, 114, 186, 120, 195, 3, 0.645431
384, 3, wb, attraction, a-b-db, 2, 2, 8, 18, 89, 163, 90, 165, 165, 90, 2, 0.785315
384, 3, wb, attraction, a-b-db, 2, 2, 8, 18, 89, 163, 90, 165, 165, 90, 1, 0.632951
384, 3, wb, attraction, a-b-db, 2, 1, 8, 19, 60, 135, 135, 60, 59, 134, 2, 0.741369
384, 3, wb, attraction, a-b-db, 2, 1, 8, 19, 60, 135, 135, 60, 59, 134, 3, 0.358567
384, 3, wb, filler, NA, 999, 999, 8, 20, 100, 83, 189, 81, 192, 177, 1, 0.765553
384, 3, wb, filler, NA, 999, 999, 8, 20, 100, 83, 189, 81, 192, 177, 3, 0.190023
384, 3, wb, attraction, a-b-da, 5, 3, 8, 21, 190, 117, 195, 120, 120, 195, 1, 2.37202
384, 3, wb, attraction, a-b-da, 5, 3, 8, 21, 190, 117, 195, 120, 120, 195, 3, 0.251046
384, 3, wb, attraction, a-b-da, 14, 3, 8, 22, 195, 120, 181, 111, 120, 195, 3, 2.623
384, 3, wb, attraction, a-b-da, 14, 3, 8, 22, 195, 120, 181, 111, 120, 195, 1, 1.86817
384, 3, wb, catch, NA, 999, 999, 8, 23, 129, 186, 74, 121, 118, 137, 2, 0.750788
384, 3, wb, catch, NA, 999, 999, 8, 23, 129, 186, 74, 121, 118, 137, 1, 0.567899
384, 3, wb, filler, NA, 999, 999, 8, 24, 166, 166, 152, 148, 93, 107, 3, 0.646984
384, 3, wb, filler, NA, 999, 999, 8, 24, 166, 166, 152, 148, 93, 107, 1, 0.740068
384, 3, wb, attraction, a-b-da, 2, 1, 8, 25, 135, 60, 134, 59, 60, 135, 2, 1.09983
384, 3, wb, attraction, a-b-da, 2, 1, 8, 25, 135, 60, 134, 59, 60, 135, 1, 0.982805
384, 3, wb, filler, NA, 999, 999, 8, 26, 165, 193, 166, 88, 87, 120, 3, 0.77304
384, 3, wb, filler, NA, 999, 999, 8, 26, 165, 193, 166, 88, 87, 120, 1, 0.236739
384, 3, wb, attraction, a-b-db, 2, 3, 8, 27, 119, 193, 195, 120, 120, 195, 2, 2.89731
384, 3, wb, attraction, a-b-db, 2, 3, 8, 27, 119, 193, 195, 120, 120, 195, 3, 0.395805
384, 3, wb, filler, NA, 999, 999, 8, 28, 71, 91, 179, 176, 60, 86, 1, 0.713594
384, 3, wb, filler, NA, 999, 999, 8, 28, 71, 91, 179, 176, 60, 86, 2, 0.539948
384, 3, wb, catch, NA, 999, 999, 8, 29, 105, 150, 148, 167, 94, 101, 3, 0.868361
384, 3, wb, catch, NA, 999, 999, 8, 29, 105, 150, 148, 167, 94, 101, 2, 0.224731
384, 3, wb, attraction, a-b-da, 9, 1, 8, 30, 60, 135, 135, 60, 129, 57, 1, 1.32544
384, 3, wb, attraction, a-b-da, 9, 1, 8, 30, 60, 135, 135, 60, 129, 57, 2, 1.03086
384, 3, wb, attraction, a-b-db, 14, 1, 8, 31, 60, 135, 135, 60, 56, 125, 2, 0.683136
384, 3, wb, attraction, a-b-db, 14, 1, 8, 31, 60, 135, 135, 60, 56, 125, 3, 0.294896
384, 3, wb, attraction, a-b-da, 2, 2, 8, 32, 90, 165, 163, 89, 165, 90, 2, 1.24877
384, 3, wb, attraction, a-b-da, 2, 2, 8, 32, 90, 165, 163, 89, 165, 90, 1, 0.501705
384, 3, wb, filler, NA, 999, 999, 8, 33, 129, 96, 73, 83, 152, 132, 2, 0.479361
384, 3, wb, filler, NA, 999, 999, 8, 33, 129, 96, 73, 83, 152, 132, 3, 0.371364
384, 3, wb, attraction, a-b-db, 9, 1, 8, 34, 60, 135, 57, 129, 135, 60, 2, 1.3384
384, 3, wb, attraction, a-b-db, 9, 1, 8, 34, 60, 135, 57, 129, 135, 60, 1, 0.779309
384, 3, wb, filler, NA, 999, 999, 8, 35, 193, 109, 69, 127, 124, 66, 2, 0.929684
384, 3, wb, filler, NA, 999, 999, 8, 35, 193, 109, 69, 127, 124, 66, 1, 0.291328
384, 3, wb, attraction, a-b-da, 14, 1, 8, 36, 125, 56, 135, 60, 60, 135, 1, 2.8452
384, 3, wb, attraction, a-b-da, 14, 1, 8, 36, 125, 56, 135, 60, 60, 135, 2, 0.19359
384, 3, wb, attraction, a-b-da, 5, 2, 8, 37, 161, 88, 165, 90, 90, 165, 1, 0.847469
384, 3, wb, attraction, a-b-da, 5, 2, 8, 37, 161, 88, 165, 90, 90, 165, 2, 0.764622
