sub_n, computer_n, bw_cond, effect, set, distance, diag, block_n, trial_n, h1, w1, h2, w2, h3, w3, choice, rt 
322, 3, wb, practice, NA, 999, 999, 0, 1, 91, 186, 150, 101, 106, 117, 3, 8.87444
322, 3, wb, practice, NA, 999, 999, 0, 1, 91, 186, 150, 101, 106, 117, 1, 1.71117
322, 3, wb, practice, NA, 999, 999, 0, 2, 112, 111, 172, 169, 158, 94, 3, 8.14716
322, 3, wb, practice, NA, 999, 999, 0, 2, 112, 111, 172, 169, 158, 94, 2, 1.1382
322, 3, wb, practice, NA, 999, 999, 0, 3, 154, 160, 148, 107, 151, 141, 2, 3.63046
322, 3, wb, practice, NA, 999, 999, 0, 3, 154, 160, 148, 107, 151, 141, 1, 1.1224
322, 3, wb, catch, NA, 999, 999, 1, 1, 124, 71, 153, 102, 161, 154, 1, 2.86749
322, 3, wb, catch, NA, 999, 999, 1, 1, 124, 71, 153, 102, 161, 154, 3, 0.82329
322, 3, wb, attraction, a-b-db, 2, 3, 1, 2, 120, 195, 195, 120, 119, 193, 2, 10.2763
322, 3, wb, attraction, a-b-db, 2, 3, 1, 2, 120, 195, 195, 120, 119, 193, 1, 1.58112
322, 3, wb, attraction, a-b-db, 2, 2, 1, 3, 165, 90, 89, 163, 90, 165, 3, 4.6271
322, 3, wb, attraction, a-b-db, 2, 2, 1, 3, 165, 90, 89, 163, 90, 165, 2, 1.53576
322, 3, wb, filler, NA, 999, 999, 1, 4, 141, 166, 180, 116, 94, 181, 3, 1.47191
322, 3, wb, filler, NA, 999, 999, 1, 4, 141, 166, 180, 116, 94, 181, 1, 0.595406
322, 3, wb, filler, NA, 999, 999, 1, 5, 85, 162, 190, 132, 190, 112, 1, 1.73707
322, 3, wb, filler, NA, 999, 999, 1, 5, 85, 162, 190, 132, 190, 112, 2, 0.554575
322, 3, wb, attraction, a-b-da, 5, 1, 1, 6, 135, 60, 60, 135, 132, 58, 3, 1.73836
322, 3, wb, attraction, a-b-da, 5, 1, 1, 6, 135, 60, 60, 135, 132, 58, 2, 1.23575
322, 3, wb, attraction, a-b-da, 5, 3, 1, 7, 195, 120, 190, 117, 120, 195, 3, 2.86397
322, 3, wb, attraction, a-b-da, 5, 3, 1, 7, 195, 120, 190, 117, 120, 195, 1, 0.691779
322, 3, wb, attraction, a-b-db, 9, 2, 1, 8, 90, 165, 86, 157, 165, 90, 2, 2.17334
322, 3, wb, attraction, a-b-db, 9, 2, 1, 8, 90, 165, 86, 157, 165, 90, 1, 3.30072
322, 3, wb, filler, NA, 999, 999, 1, 9, 96, 143, 179, 128, 122, 66, 3, 2.25363
322, 3, wb, filler, NA, 999, 999, 1, 9, 96, 143, 179, 128, 122, 66, 2, 0.554269
322, 3, wb, attraction, a-b-db, 9, 3, 1, 10, 120, 195, 195, 120, 114, 186, 3, 1.28204
322, 3, wb, attraction, a-b-db, 9, 3, 1, 10, 120, 195, 195, 120, 114, 186, 1, 1.0536
322, 3, wb, attraction, a-b-da, 9, 2, 1, 11, 157, 86, 90, 165, 165, 90, 1, 1.40923
322, 3, wb, attraction, a-b-da, 9, 2, 1, 11, 157, 86, 90, 165, 165, 90, 2, 3.21556
322, 3, wb, filler, NA, 999, 999, 1, 12, 142, 187, 74, 62, 177, 103, 2, 1.01965
322, 3, wb, filler, NA, 999, 999, 1, 12, 142, 187, 74, 62, 177, 103, 1, 0.490033
322, 3, wb, attraction, a-b-da, 14, 1, 1, 13, 60, 135, 125, 56, 135, 60, 2, 1.73171
322, 3, wb, attraction, a-b-da, 14, 1, 1, 13, 60, 135, 125, 56, 135, 60, 3, 0.621209
322, 3, wb, filler, NA, 999, 999, 1, 14, 189, 149, 81, 89, 147, 61, 2, 1.69829
322, 3, wb, filler, NA, 999, 999, 1, 14, 189, 149, 81, 89, 147, 61, 1, 0.893118
322, 3, wb, attraction, a-b-db, 14, 3, 1, 15, 120, 195, 111, 181, 195, 120, 2, 2.38284
322, 3, wb, attraction, a-b-db, 14, 3, 1, 15, 120, 195, 111, 181, 195, 120, 1, 0.701929
322, 3, wb, catch, NA, 999, 999, 1, 16, 127, 128, 149, 166, 82, 113, 3, 1.54365
322, 3, wb, catch, NA, 999, 999, 1, 16, 127, 128, 149, 166, 82, 113, 2, 0.448557
322, 3, wb, attraction, a-b-db, 9, 1, 1, 17, 60, 135, 57, 129, 135, 60, 3, 1.63632
322, 3, wb, attraction, a-b-db, 9, 1, 1, 17, 60, 135, 57, 129, 135, 60, 1, 1.95376
322, 3, wb, attraction, a-b-da, 14, 2, 1, 18, 165, 90, 153, 83, 90, 165, 2, 1.44913
322, 3, wb, attraction, a-b-da, 14, 2, 1, 18, 165, 90, 153, 83, 90, 165, 3, 1.00593
322, 3, wb, attraction, a-b-db, 5, 1, 1, 19, 135, 60, 58, 132, 60, 135, 1, 1.8356
322, 3, wb, attraction, a-b-db, 5, 1, 1, 19, 135, 60, 58, 132, 60, 135, 3, 0.640962
322, 3, wb, attraction, a-b-da, 2, 3, 1, 20, 195, 120, 120, 195, 193, 119, 1, 2.06073
322, 3, wb, attraction, a-b-da, 2, 3, 1, 20, 195, 120, 120, 195, 193, 119, 2, 0.504634
322, 3, wb, filler, NA, 999, 999, 1, 21, 115, 151, 170, 80, 59, 140, 3, 0.858442
322, 3, wb, filler, NA, 999, 999, 1, 21, 115, 151, 170, 80, 59, 140, 1, 0.798892
322, 3, wb, attraction, a-b-da, 9, 3, 1, 22, 186, 114, 120, 195, 195, 120, 1, 1.80453
322, 3, wb, attraction, a-b-da, 9, 3, 1, 22, 186, 114, 120, 195, 195, 120, 2, 0.683421
322, 3, wb, attraction, a-b-db, 14, 2, 1, 23, 165, 90, 83, 153, 90, 165, 2, 2.82168
322, 3, wb, attraction, a-b-db, 14, 2, 1, 23, 165, 90, 83, 153, 90, 165, 3, 0.947461
322, 3, wb, filler, NA, 999, 999, 1, 24, 56, 169, 64, 74, 193, 79, 2, 0.931076
322, 3, wb, filler, NA, 999, 999, 1, 24, 56, 169, 64, 74, 193, 79, 3, 0.908785
322, 3, wb, attraction, a-b-db, 14, 1, 1, 25, 60, 135, 56, 125, 135, 60, 2, 1.46175
322, 3, wb, attraction, a-b-db, 14, 1, 1, 25, 60, 135, 56, 125, 135, 60, 3, 2.00198
322, 3, wb, attraction, a-b-da, 9, 1, 1, 26, 60, 135, 129, 57, 135, 60, 3, 3.49526
322, 3, wb, attraction, a-b-da, 9, 1, 1, 26, 60, 135, 129, 57, 135, 60, 2, 0.665436
322, 3, wb, attraction, a-b-da, 2, 2, 1, 27, 163, 89, 165, 90, 90, 165, 1, 1.45248
322, 3, wb, attraction, a-b-da, 2, 2, 1, 27, 163, 89, 165, 90, 90, 165, 3, 1.36157
322, 3, wb, filler, NA, 999, 999, 1, 28, 106, 77, 163, 117, 170, 85, 1, 0.968174
322, 3, wb, filler, NA, 999, 999, 1, 28, 106, 77, 163, 117, 170, 85, 2, 0.464632
322, 3, wb, catch, NA, 999, 999, 1, 29, 166, 149, 150, 105, 111, 84, 3, 1.49977
322, 3, wb, catch, NA, 999, 999, 1, 29, 166, 149, 150, 105, 111, 84, 1, 0.438501
322, 3, wb, attraction, a-b-db, 5, 3, 1, 30, 195, 120, 120, 195, 117, 190, 1, 2.56305
322, 3, wb, attraction, a-b-db, 5, 3, 1, 30, 195, 120, 120, 195, 117, 190, 2, 1.02685
322, 3, wb, filler, NA, 999, 999, 1, 31, 126, 118, 142, 153, 120, 145, 1, 1.20712
322, 3, wb, filler, NA, 999, 999, 1, 31, 126, 118, 142, 153, 120, 145, 2, 0.493533
322, 3, wb, attraction, a-b-db, 5, 2, 1, 32, 90, 165, 165, 90, 88, 161, 3, 2.08727
322, 3, wb, attraction, a-b-db, 5, 2, 1, 32, 90, 165, 165, 90, 88, 161, 1, 0.946532
322, 3, wb, filler, NA, 999, 999, 1, 33, 80, 160, 183, 65, 153, 180, 1, 2.16216
322, 3, wb, filler, NA, 999, 999, 1, 33, 80, 160, 183, 65, 153, 180, 3, 0.650121
322, 3, wb, attraction, a-b-da, 5, 2, 1, 34, 165, 90, 90, 165, 161, 88, 3, 3.16582
322, 3, wb, attraction, a-b-da, 5, 2, 1, 34, 165, 90, 90, 165, 161, 88, 2, 0.541484
322, 3, wb, attraction, a-b-da, 14, 3, 1, 35, 120, 195, 195, 120, 181, 111, 3, 2.28529
322, 3, wb, attraction, a-b-da, 14, 3, 1, 35, 120, 195, 195, 120, 181, 111, 1, 0.376625
322, 3, wb, attraction, a-b-da, 2, 1, 1, 36, 135, 60, 134, 59, 60, 135, 1, 1.31906
322, 3, wb, attraction, a-b-da, 2, 1, 1, 36, 135, 60, 134, 59, 60, 135, 3, 0.649294
322, 3, wb, attraction, a-b-db, 2, 1, 1, 37, 135, 60, 59, 134, 60, 135, 2, 0.997014
322, 3, wb, attraction, a-b-db, 2, 1, 1, 37, 135, 60, 59, 134, 60, 135, 3, 0.812024
322, 3, wb, attraction, a-b-db, 2, 3, 2, 1, 195, 120, 120, 195, 119, 193, 3, 1.36103
322, 3, wb, attraction, a-b-db, 2, 3, 2, 1, 195, 120, 120, 195, 119, 193, 2, 1.16941
322, 3, wb, attraction, a-b-da, 2, 3, 2, 2, 193, 119, 120, 195, 195, 120, 1, 2.67206
322, 3, wb, attraction, a-b-da, 2, 3, 2, 2, 193, 119, 120, 195, 195, 120, 2, 0.611434
322, 3, wb, attraction, a-b-da, 14, 2, 2, 3, 153, 83, 90, 165, 165, 90, 1, 1.18431
322, 3, wb, attraction, a-b-da, 14, 2, 2, 3, 153, 83, 90, 165, 165, 90, 2, 0.551984
322, 3, wb, attraction, a-b-db, 5, 2, 2, 4, 90, 165, 88, 161, 165, 90, 3, 2.13575
322, 3, wb, attraction, a-b-db, 5, 2, 2, 4, 90, 165, 88, 161, 165, 90, 1, 0.697056
322, 3, wb, attraction, a-b-da, 9, 1, 2, 5, 135, 60, 60, 135, 129, 57, 3, 1.06686
322, 3, wb, attraction, a-b-da, 9, 1, 2, 5, 135, 60, 60, 135, 129, 57, 1, 3.79909
322, 3, wb, attraction, a-b-db, 5, 3, 2, 6, 120, 195, 117, 190, 195, 120, 3, 5.91581
322, 3, wb, attraction, a-b-db, 5, 3, 2, 6, 120, 195, 117, 190, 195, 120, 1, 0.580586
322, 3, wb, attraction, a-b-db, 14, 1, 2, 7, 135, 60, 60, 135, 56, 125, 1, 3.49112
322, 3, wb, attraction, a-b-db, 14, 1, 2, 7, 135, 60, 60, 135, 56, 125, 2, 0.453245
322, 3, wb, attraction, a-b-da, 5, 2, 2, 8, 90, 165, 165, 90, 161, 88, 3, 1.09715
322, 3, wb, attraction, a-b-da, 5, 2, 2, 8, 90, 165, 165, 90, 161, 88, 1, 0.780074
322, 3, wb, catch, NA, 999, 999, 2, 9, 87, 108, 98, 157, 126, 189, 1, 0.938348
322, 3, wb, catch, NA, 999, 999, 2, 9, 87, 108, 98, 157, 126, 189, 3, 0.843384
322, 3, wb, attraction, a-b-db, 9, 3, 2, 10, 195, 120, 120, 195, 114, 186, 3, 1.57506
322, 3, wb, attraction, a-b-db, 9, 3, 2, 10, 195, 120, 120, 195, 114, 186, 1, 0.574573
322, 3, wb, filler, NA, 999, 999, 2, 11, 108, 147, 190, 164, 159, 80, 3, 1.11695
322, 3, wb, filler, NA, 999, 999, 2, 11, 108, 147, 190, 164, 159, 80, 2, 0.495271
322, 3, wb, attraction, a-b-db, 9, 2, 2, 12, 90, 165, 165, 90, 86, 157, 2, 4.94502
322, 3, wb, attraction, a-b-db, 9, 2, 2, 12, 90, 165, 165, 90, 86, 157, 1, 0.640765
322, 3, wb, attraction, a-b-da, 14, 3, 2, 13, 195, 120, 181, 111, 120, 195, 2, 2.31658
322, 3, wb, attraction, a-b-da, 14, 3, 2, 13, 195, 120, 181, 111, 120, 195, 1, 1.15058
322, 3, wb, filler, NA, 999, 999, 2, 14, 104, 68, 82, 130, 157, 144, 1, 1.26202
322, 3, wb, filler, NA, 999, 999, 2, 14, 104, 68, 82, 130, 157, 144, 3, 0.426378
322, 3, wb, filler, NA, 999, 999, 2, 15, 137, 91, 95, 154, 129, 178, 1, 1.31066
322, 3, wb, filler, NA, 999, 999, 2, 15, 137, 91, 95, 154, 129, 178, 3, 0.585036
322, 3, wb, filler, NA, 999, 999, 2, 16, 158, 95, 131, 118, 61, 130, 3, 0.74353
322, 3, wb, filler, NA, 999, 999, 2, 16, 158, 95, 131, 118, 61, 130, 2, 9.99248
322, 3, wb, attraction, a-b-db, 14, 3, 2, 17, 195, 120, 111, 181, 120, 195, 1, 1.63605
322, 3, wb, attraction, a-b-db, 14, 3, 2, 17, 195, 120, 111, 181, 120, 195, 3, 0.601446
322, 3, wb, attraction, a-b-db, 9, 1, 2, 18, 57, 129, 60, 135, 135, 60, 1, 1.51928
322, 3, wb, attraction, a-b-db, 9, 1, 2, 18, 57, 129, 60, 135, 135, 60, 3, 0.561449
322, 3, wb, attraction, a-b-db, 2, 2, 2, 19, 90, 165, 89, 163, 165, 90, 1, 3.41651
322, 3, wb, attraction, a-b-db, 2, 2, 2, 19, 90, 165, 89, 163, 165, 90, 3, 0.630402
322, 3, wb, filler, NA, 999, 999, 2, 20, 177, 95, 80, 181, 65, 111, 3, 1.15449
322, 3, wb, filler, NA, 999, 999, 2, 20, 177, 95, 80, 181, 65, 111, 1, 0.810765
322, 3, wb, attraction, a-b-da, 14, 1, 2, 21, 125, 56, 60, 135, 135, 60, 1, 1.08775
322, 3, wb, attraction, a-b-da, 14, 1, 2, 21, 125, 56, 60, 135, 135, 60, 2, 0.875476
322, 3, wb, filler, NA, 999, 999, 2, 22, 80, 66, 94, 177, 183, 75, 1, 0.973792
322, 3, wb, filler, NA, 999, 999, 2, 22, 80, 66, 94, 177, 183, 75, 2, 0.637394
322, 3, wb, attraction, a-b-da, 2, 2, 2, 23, 165, 90, 90, 165, 163, 89, 3, 2.33778
322, 3, wb, attraction, a-b-da, 2, 2, 2, 23, 165, 90, 90, 165, 163, 89, 2, 0.579031
322, 3, wb, filler, NA, 999, 999, 2, 24, 91, 150, 147, 98, 129, 98, 2, 6.44944
322, 3, wb, filler, NA, 999, 999, 2, 24, 91, 150, 147, 98, 129, 98, 1, 0.556775
322, 3, wb, attraction, a-b-db, 5, 1, 2, 25, 135, 60, 58, 132, 60, 135, 1, 1.5078
322, 3, wb, attraction, a-b-db, 5, 1, 2, 25, 135, 60, 58, 132, 60, 135, 2, 0.694035
322, 3, wb, catch, NA, 999, 999, 2, 26, 87, 108, 105, 150, 137, 178, 1, 2.04777
322, 3, wb, catch, NA, 999, 999, 2, 26, 87, 108, 105, 150, 137, 178, 3, 0.612385
322, 3, wb, attraction, a-b-da, 9, 2, 2, 27, 157, 86, 90, 165, 165, 90, 2, 1.48952
322, 3, wb, attraction, a-b-da, 9, 2, 2, 27, 157, 86, 90, 165, 165, 90, 3, 2.02849
322, 3, wb, attraction, a-b-da, 5, 1, 2, 28, 135, 60, 132, 58, 60, 135, 3, 1.66429
322, 3, wb, attraction, a-b-da, 5, 1, 2, 28, 135, 60, 132, 58, 60, 135, 1, 0.548408
322, 3, wb, attraction, a-b-da, 5, 3, 2, 29, 190, 117, 120, 195, 195, 120, 3, 2.44427
322, 3, wb, attraction, a-b-da, 5, 3, 2, 29, 190, 117, 120, 195, 195, 120, 2, 0.424856
322, 3, wb, catch, NA, 999, 999, 2, 30, 105, 90, 147, 108, 188, 127, 1, 1.14921
322, 3, wb, catch, NA, 999, 999, 2, 30, 105, 90, 147, 108, 188, 127, 3, 0.486256
322, 3, wb, attraction, a-b-da, 2, 1, 2, 31, 135, 60, 60, 135, 134, 59, 3, 1.46465
322, 3, wb, attraction, a-b-da, 2, 1, 2, 31, 135, 60, 60, 135, 134, 59, 2, 0.564798
322, 3, wb, attraction, a-b-db, 2, 1, 2, 32, 135, 60, 59, 134, 60, 135, 3, 2.13198
322, 3, wb, attraction, a-b-db, 2, 1, 2, 32, 135, 60, 59, 134, 60, 135, 2, 1.50926
322, 3, wb, attraction, a-b-db, 14, 2, 2, 33, 90, 165, 83, 153, 165, 90, 3, 1.18218
322, 3, wb, attraction, a-b-db, 14, 2, 2, 33, 90, 165, 83, 153, 165, 90, 1, 0.381624
322, 3, wb, filler, NA, 999, 999, 2, 34, 152, 92, 129, 119, 59, 115, 3, 0.692205
322, 3, wb, filler, NA, 999, 999, 2, 34, 152, 92, 129, 119, 59, 115, 2, 0.567299
322, 3, wb, attraction, a-b-da, 9, 3, 2, 35, 120, 195, 186, 114, 195, 120, 2, 3.50226
322, 3, wb, attraction, a-b-da, 9, 3, 2, 35, 120, 195, 186, 114, 195, 120, 3, 1.64057
322, 3, wb, filler, NA, 999, 999, 2, 36, 147, 77, 110, 152, 104, 152, 1, 2.05991
322, 3, wb, filler, NA, 999, 999, 2, 36, 147, 77, 110, 152, 104, 152, 2, 0.56
322, 3, wb, filler, NA, 999, 999, 2, 37, 151, 132, 98, 106, 106, 173, 2, 6.88708
322, 3, wb, filler, NA, 999, 999, 2, 37, 151, 132, 98, 106, 106, 173, 1, 0.537001
322, 3, wb, attraction, a-b-da, 2, 2, 3, 1, 165, 90, 90, 165, 163, 89, 3, 1.41735
322, 3, wb, attraction, a-b-da, 2, 2, 3, 1, 165, 90, 90, 165, 163, 89, 2, 0.783443
322, 3, wb, attraction, a-b-da, 9, 1, 3, 2, 60, 135, 135, 60, 129, 57, 1, 1.99783
322, 3, wb, attraction, a-b-da, 9, 1, 3, 2, 60, 135, 135, 60, 129, 57, 2, 0.828568
322, 3, wb, attraction, a-b-db, 5, 1, 3, 3, 58, 132, 135, 60, 60, 135, 3, 1.39299
322, 3, wb, attraction, a-b-db, 5, 1, 3, 3, 58, 132, 135, 60, 60, 135, 2, 0.815896
322, 3, wb, attraction, a-b-db, 5, 2, 3, 4, 88, 161, 165, 90, 90, 165, 1, 1.59693
322, 3, wb, attraction, a-b-db, 5, 2, 3, 4, 88, 161, 165, 90, 90, 165, 2, 0.763645
322, 3, wb, attraction, a-b-db, 9, 3, 3, 5, 114, 186, 120, 195, 195, 120, 1, 3.07457
322, 3, wb, attraction, a-b-db, 9, 3, 3, 5, 114, 186, 120, 195, 195, 120, 2, 0.493632
322, 3, wb, attraction, a-b-da, 2, 1, 3, 6, 134, 59, 60, 135, 135, 60, 1, 1.16761
322, 3, wb, attraction, a-b-da, 2, 1, 3, 6, 134, 59, 60, 135, 135, 60, 2, 0.639739
322, 3, wb, attraction, a-b-da, 5, 2, 3, 7, 90, 165, 165, 90, 161, 88, 3, 1.71609
322, 3, wb, attraction, a-b-da, 5, 2, 3, 7, 90, 165, 165, 90, 161, 88, 1, 0.718168
322, 3, wb, attraction, a-b-da, 9, 2, 3, 8, 90, 165, 157, 86, 165, 90, 3, 0.903423
322, 3, wb, attraction, a-b-da, 9, 2, 3, 8, 90, 165, 157, 86, 165, 90, 1, 0.698299
322, 3, wb, filler, NA, 999, 999, 3, 9, 127, 93, 72, 191, 158, 141, 1, 0.980025
322, 3, wb, filler, NA, 999, 999, 3, 9, 127, 93, 72, 191, 158, 141, 3, 0.643744
322, 3, wb, attraction, a-b-da, 9, 3, 3, 10, 195, 120, 120, 195, 186, 114, 3, 0.919417
322, 3, wb, attraction, a-b-da, 9, 3, 3, 10, 195, 120, 120, 195, 186, 114, 2, 1.57778
322, 3, wb, filler, NA, 999, 999, 3, 11, 127, 80, 133, 145, 150, 91, 1, 0.599922
322, 3, wb, filler, NA, 999, 999, 3, 11, 127, 80, 133, 145, 150, 91, 2, 0.49501
322, 3, wb, filler, NA, 999, 999, 3, 12, 61, 85, 106, 158, 119, 69, 1, 0.696799
322, 3, wb, filler, NA, 999, 999, 3, 12, 61, 85, 106, 158, 119, 69, 2, 0.62795
322, 3, wb, attraction, a-b-db, 14, 2, 3, 13, 90, 165, 165, 90, 83, 153, 3, 1.2883
322, 3, wb, attraction, a-b-db, 14, 2, 3, 13, 90, 165, 165, 90, 83, 153, 1, 0.787182
322, 3, wb, attraction, a-b-da, 14, 1, 3, 14, 135, 60, 60, 135, 125, 56, 3, 1.40162
322, 3, wb, attraction, a-b-da, 14, 1, 3, 14, 135, 60, 60, 135, 125, 56, 2, 0.504469
322, 3, wb, attraction, a-b-da, 14, 3, 3, 15, 181, 111, 195, 120, 120, 195, 1, 1.13819
322, 3, wb, attraction, a-b-da, 14, 3, 3, 15, 181, 111, 195, 120, 120, 195, 3, 0.627858
322, 3, wb, attraction, a-b-db, 2, 1, 3, 16, 135, 60, 59, 134, 60, 135, 3, 1.04027
322, 3, wb, attraction, a-b-db, 2, 1, 3, 16, 135, 60, 59, 134, 60, 135, 1, 0.749277
322, 3, wb, filler, NA, 999, 999, 3, 17, 153, 98, 99, 129, 68, 77, 3, 0.589014
322, 3, wb, filler, NA, 999, 999, 3, 17, 153, 98, 99, 129, 68, 77, 2, 0.804213
322, 3, wb, filler, NA, 999, 999, 3, 18, 195, 191, 168, 194, 156, 166, 3, 0.961879
322, 3, wb, filler, NA, 999, 999, 3, 18, 195, 191, 168, 194, 156, 166, 1, 0.682076
322, 3, wb, attraction, a-b-db, 14, 1, 3, 19, 56, 125, 135, 60, 60, 135, 1, 1.34053
322, 3, wb, attraction, a-b-db, 14, 1, 3, 19, 56, 125, 135, 60, 60, 135, 2, 1.19741
322, 3, wb, filler, NA, 999, 999, 3, 20, 175, 56, 74, 190, 90, 153, 1, 1.98706
322, 3, wb, filler, NA, 999, 999, 3, 20, 175, 56, 74, 190, 90, 153, 3, 1.31438
322, 3, wb, attraction, a-b-db, 5, 3, 3, 21, 195, 120, 117, 190, 120, 195, 2, 2.68331
322, 3, wb, attraction, a-b-db, 5, 3, 3, 21, 195, 120, 117, 190, 120, 195, 3, 0.462302
322, 3, wb, attraction, a-b-db, 2, 3, 3, 22, 195, 120, 120, 195, 119, 193, 3, 11.0894
322, 3, wb, attraction, a-b-db, 2, 3, 3, 22, 195, 120, 120, 195, 119, 193, 2, 0.377951
322, 3, wb, filler, NA, 999, 999, 3, 23, 56, 113, 86, 156, 96, 158, 1, 0.784488
322, 3, wb, filler, NA, 999, 999, 3, 23, 56, 113, 86, 156, 96, 158, 3, 0.688196
322, 3, wb, attraction, a-b-da, 14, 2, 3, 24, 90, 165, 165, 90, 153, 83, 1, 0.69855
322, 3, wb, attraction, a-b-da, 14, 2, 3, 24, 90, 165, 165, 90, 153, 83, 2, 0.61369
322, 3, wb, filler, NA, 999, 999, 3, 25, 129, 176, 158, 182, 157, 62, 3, 0.95468
322, 3, wb, filler, NA, 999, 999, 3, 25, 129, 176, 158, 182, 157, 62, 2, 0.451019
322, 3, wb, catch, NA, 999, 999, 3, 26, 92, 103, 146, 169, 90, 165, 1, 0.782887
322, 3, wb, catch, NA, 999, 999, 3, 26, 92, 103, 146, 169, 90, 165, 2, 0.494624
322, 3, wb, attraction, a-b-da, 5, 1, 3, 27, 132, 58, 60, 135, 135, 60, 1, 0.728375
322, 3, wb, attraction, a-b-da, 5, 1, 3, 27, 132, 58, 60, 135, 135, 60, 2, 0.466142
322, 3, wb, attraction, a-b-db, 9, 1, 3, 28, 57, 129, 135, 60, 60, 135, 1, 0.781275
322, 3, wb, attraction, a-b-db, 9, 1, 3, 28, 57, 129, 135, 60, 60, 135, 3, 0.445116
322, 3, wb, catch, NA, 999, 999, 3, 29, 144, 111, 142, 173, 78, 117, 3, 0.744896
322, 3, wb, catch, NA, 999, 999, 3, 29, 144, 111, 142, 173, 78, 117, 2, 0.561805
322, 3, wb, attraction, a-b-db, 14, 3, 3, 30, 120, 195, 195, 120, 111, 181, 3, 0.872972
322, 3, wb, attraction, a-b-db, 14, 3, 3, 30, 120, 195, 195, 120, 111, 181, 1, 0.548681
322, 3, wb, attraction, a-b-db, 9, 2, 3, 31, 90, 165, 165, 90, 86, 157, 3, 2.06843
322, 3, wb, attraction, a-b-db, 9, 2, 3, 31, 90, 165, 165, 90, 86, 157, 1, 0.616461
322, 3, wb, attraction, a-b-da, 5, 3, 3, 32, 120, 195, 190, 117, 195, 120, 2, 7.22153
322, 3, wb, attraction, a-b-da, 5, 3, 3, 32, 120, 195, 190, 117, 195, 120, 1, 0.657908
322, 3, wb, filler, NA, 999, 999, 3, 33, 188, 134, 149, 64, 129, 193, 2, 1.45295
322, 3, wb, filler, NA, 999, 999, 3, 33, 188, 134, 149, 64, 129, 193, 1, 0.465803
322, 3, wb, attraction, a-b-db, 2, 2, 3, 34, 165, 90, 89, 163, 90, 165, 1, 1.74095
322, 3, wb, attraction, a-b-db, 2, 2, 3, 34, 165, 90, 89, 163, 90, 165, 2, 0.349802
322, 3, wb, attraction, a-b-da, 2, 3, 3, 35, 195, 120, 120, 195, 193, 119, 3, 1.45349
322, 3, wb, attraction, a-b-da, 2, 3, 3, 35, 195, 120, 120, 195, 193, 119, 2, 0.570366
322, 3, wb, catch, NA, 999, 999, 3, 36, 122, 73, 120, 135, 182, 133, 1, 0.681543
322, 3, wb, catch, NA, 999, 999, 3, 36, 122, 73, 120, 135, 182, 133, 3, 0.525282
322, 3, wb, filler, NA, 999, 999, 3, 37, 152, 87, 164, 168, 79, 152, 3, 0.981784
322, 3, wb, filler, NA, 999, 999, 3, 37, 152, 87, 164, 168, 79, 152, 2, 0.485381
322, 3, wb, attraction, a-b-db, 5, 3, 4, 1, 117, 190, 120, 195, 195, 120, 3, 5.10381
322, 3, wb, attraction, a-b-db, 5, 3, 4, 1, 117, 190, 120, 195, 195, 120, 1, 0.57752
322, 3, wb, filler, NA, 999, 999, 4, 2, 81, 173, 118, 157, 96, 125, 1, 2.50401
322, 3, wb, filler, NA, 999, 999, 4, 2, 81, 173, 118, 157, 96, 125, 2, 0.466586
322, 3, wb, attraction, a-b-da, 9, 2, 4, 3, 157, 86, 90, 165, 165, 90, 1, 0.941552
322, 3, wb, attraction, a-b-da, 9, 2, 4, 3, 157, 86, 90, 165, 165, 90, 2, 0.422653
322, 3, wb, attraction, a-b-da, 2, 2, 4, 4, 165, 90, 90, 165, 163, 89, 1, 1.00376
322, 3, wb, attraction, a-b-da, 2, 2, 4, 4, 165, 90, 90, 165, 163, 89, 2, 0.538754
322, 3, wb, attraction, a-b-db, 14, 2, 4, 5, 165, 90, 83, 153, 90, 165, 3, 1.45926
322, 3, wb, attraction, a-b-db, 14, 2, 4, 5, 165, 90, 83, 153, 90, 165, 1, 0.583395
322, 3, wb, attraction, a-b-db, 2, 2, 4, 6, 89, 163, 90, 165, 165, 90, 3, 1.8059
322, 3, wb, attraction, a-b-db, 2, 2, 4, 6, 89, 163, 90, 165, 165, 90, 1, 0.516011
322, 3, wb, catch, NA, 999, 999, 4, 7, 101, 94, 116, 139, 180, 135, 1, 0.933016
322, 3, wb, catch, NA, 999, 999, 4, 7, 101, 94, 116, 139, 180, 135, 3, 0.630738
322, 3, wb, attraction, a-b-db, 2, 1, 4, 8, 135, 60, 59, 134, 60, 135, 3, 1.02715
322, 3, wb, attraction, a-b-db, 2, 1, 4, 8, 135, 60, 59, 134, 60, 135, 2, 0.81674
322, 3, wb, attraction, a-b-db, 9, 3, 4, 9, 195, 120, 114, 186, 120, 195, 1, 0.461722
322, 3, wb, attraction, a-b-db, 9, 3, 4, 9, 195, 120, 114, 186, 120, 195, 2, 0.546243
322, 3, wb, attraction, a-b-db, 5, 1, 4, 10, 60, 135, 135, 60, 58, 132, 1, 0.705978
322, 3, wb, attraction, a-b-db, 5, 1, 4, 10, 60, 135, 135, 60, 58, 132, 2, 0.732415
322, 3, wb, attraction, a-b-da, 9, 3, 4, 11, 195, 120, 186, 114, 120, 195, 1, 0.420872
322, 3, wb, attraction, a-b-da, 9, 3, 4, 11, 195, 120, 186, 114, 120, 195, 2, 0.762652
322, 3, wb, filler, NA, 999, 999, 4, 12, 179, 146, 168, 121, 144, 137, 1, 0.521855
322, 3, wb, filler, NA, 999, 999, 4, 12, 179, 146, 168, 121, 144, 137, 2, 0.955548
322, 3, wb, filler, NA, 999, 999, 4, 13, 123, 72, 177, 185, 195, 164, 1, 0.739143
322, 3, wb, filler, NA, 999, 999, 4, 13, 123, 72, 177, 185, 195, 164, 2, 0.532317
322, 3, wb, attraction, a-b-db, 2, 3, 4, 14, 120, 195, 119, 193, 195, 120, 3, 2.10073
322, 3, wb, attraction, a-b-db, 2, 3, 4, 14, 120, 195, 119, 193, 195, 120, 2, 0.823494
322, 3, wb, attraction, a-b-db, 14, 1, 4, 15, 135, 60, 56, 125, 60, 135, 3, 0.819692
322, 3, wb, attraction, a-b-db, 14, 1, 4, 15, 135, 60, 56, 125, 60, 135, 2, 0.562164
322, 3, wb, filler, NA, 999, 999, 4, 16, 99, 72, 67, 87, 127, 170, 2, 1.41715
322, 3, wb, filler, NA, 999, 999, 4, 16, 99, 72, 67, 87, 127, 170, 3, 0.48741
322, 3, wb, filler, NA, 999, 999, 4, 17, 64, 184, 97, 62, 137, 135, 2, 0.921832
322, 3, wb, filler, NA, 999, 999, 4, 17, 64, 184, 97, 62, 137, 135, 3, 0.483526
322, 3, wb, catch, NA, 999, 999, 4, 18, 145, 110, 113, 82, 168, 147, 2, 0.837961
322, 3, wb, catch, NA, 999, 999, 4, 18, 145, 110, 113, 82, 168, 147, 3, 0.47571
322, 3, wb, catch, NA, 999, 999, 4, 19, 97, 98, 152, 163, 163, 92, 1, 1.59013
322, 3, wb, catch, NA, 999, 999, 4, 19, 97, 98, 152, 163, 163, 92, 2, 0.444975
322, 3, wb, attraction, a-b-da, 14, 2, 4, 20, 90, 165, 165, 90, 153, 83, 3, 1.00071
322, 3, wb, attraction, a-b-da, 14, 2, 4, 20, 90, 165, 165, 90, 153, 83, 2, 0.727899
322, 3, wb, attraction, a-b-db, 5, 2, 4, 21, 88, 161, 165, 90, 90, 165, 3, 3.02411
322, 3, wb, attraction, a-b-db, 5, 2, 4, 21, 88, 161, 165, 90, 90, 165, 2, 0.501113
322, 3, wb, attraction, a-b-da, 5, 1, 4, 22, 135, 60, 132, 58, 60, 135, 1, 1.15895
322, 3, wb, attraction, a-b-da, 5, 1, 4, 22, 135, 60, 132, 58, 60, 135, 3, 1.15934
322, 3, wb, filler, NA, 999, 999, 4, 23, 192, 101, 117, 127, 171, 128, 1, 1.90223
322, 3, wb, filler, NA, 999, 999, 4, 23, 192, 101, 117, 127, 171, 128, 3, 1.20893
322, 3, wb, attraction, a-b-da, 5, 2, 4, 24, 161, 88, 165, 90, 90, 165, 1, 3.59779
322, 3, wb, attraction, a-b-da, 5, 2, 4, 24, 161, 88, 165, 90, 90, 165, 3, 0.915968
322, 3, wb, attraction, a-b-da, 5, 3, 4, 25, 195, 120, 120, 195, 190, 117, 3, 1.13294
322, 3, wb, attraction, a-b-da, 5, 3, 4, 25, 195, 120, 120, 195, 190, 117, 1, 0.510686
322, 3, wb, filler, NA, 999, 999, 4, 26, 97, 98, 83, 93, 141, 167, 1, 1.34366
322, 3, wb, filler, NA, 999, 999, 4, 26, 97, 98, 83, 93, 141, 167, 3, 1.52848
322, 3, wb, filler, NA, 999, 999, 4, 27, 143, 71, 142, 155, 98, 169, 1, 1.75267
322, 3, wb, filler, NA, 999, 999, 4, 27, 143, 71, 142, 155, 98, 169, 2, 0.409441
322, 3, wb, attraction, a-b-da, 2, 1, 4, 28, 135, 60, 134, 59, 60, 135, 1, 1.20656
322, 3, wb, attraction, a-b-da, 2, 1, 4, 28, 135, 60, 134, 59, 60, 135, 3, 0.64489
322, 3, wb, attraction, a-b-db, 9, 2, 4, 29, 165, 90, 86, 157, 90, 165, 2, 1.07257
322, 3, wb, attraction, a-b-db, 9, 2, 4, 29, 165, 90, 86, 157, 90, 165, 1, 0.516145
322, 3, wb, attraction, a-b-db, 9, 1, 4, 30, 57, 129, 60, 135, 135, 60, 2, 1.7893
322, 3, wb, attraction, a-b-db, 9, 1, 4, 30, 57, 129, 60, 135, 135, 60, 3, 0.572043
322, 3, wb, attraction, a-b-da, 14, 3, 4, 31, 120, 195, 181, 111, 195, 120, 2, 20.4752
322, 3, wb, attraction, a-b-da, 14, 3, 4, 31, 120, 195, 181, 111, 195, 120, 1, 1.37738
322, 3, wb, attraction, a-b-da, 2, 3, 4, 32, 193, 119, 195, 120, 120, 195, 1, 2.44755
322, 3, wb, attraction, a-b-da, 2, 3, 4, 32, 193, 119, 195, 120, 120, 195, 2, 0.676087
322, 3, wb, attraction, a-b-db, 14, 3, 4, 33, 120, 195, 111, 181, 195, 120, 3, 0.84651
322, 3, wb, attraction, a-b-db, 14, 3, 4, 33, 120, 195, 111, 181, 195, 120, 1, 0.779556
322, 3, wb, filler, NA, 999, 999, 4, 34, 113, 120, 151, 72, 125, 170, 2, 1.54602
322, 3, wb, filler, NA, 999, 999, 4, 34, 113, 120, 151, 72, 125, 170, 3, 0.690775
322, 3, wb, attraction, a-b-da, 9, 1, 4, 35, 129, 57, 135, 60, 60, 135, 1, 1.10851
322, 3, wb, attraction, a-b-da, 9, 1, 4, 35, 129, 57, 135, 60, 60, 135, 2, 0.678749
322, 3, wb, filler, NA, 999, 999, 4, 36, 90, 174, 61, 57, 145, 156, 2, 0.833266
322, 3, wb, filler, NA, 999, 999, 4, 36, 90, 174, 61, 57, 145, 156, 3, 0.38298
322, 3, wb, attraction, a-b-da, 14, 1, 4, 37, 125, 56, 60, 135, 135, 60, 1, 0.821388
322, 3, wb, attraction, a-b-da, 14, 1, 4, 37, 125, 56, 60, 135, 135, 60, 2, 0.603892
322, 3, wb, attraction, a-b-da, 9, 1, 5, 1, 60, 135, 135, 60, 129, 57, 3, 11.5834
322, 3, wb, attraction, a-b-da, 9, 1, 5, 1, 60, 135, 135, 60, 129, 57, 2, 0.507798
322, 3, wb, attraction, a-b-da, 5, 1, 5, 2, 60, 135, 132, 58, 135, 60, 3, 0.724897
322, 3, wb, attraction, a-b-da, 5, 1, 5, 2, 60, 135, 132, 58, 135, 60, 2, 0.902801
322, 3, wb, catch, NA, 999, 999, 5, 3, 163, 152, 148, 107, 134, 61, 3, 0.712312
322, 3, wb, catch, NA, 999, 999, 5, 3, 163, 152, 148, 107, 134, 61, 1, 0.354746
322, 3, wb, attraction, a-b-db, 5, 1, 5, 4, 60, 135, 135, 60, 58, 132, 1, 0.826522
322, 3, wb, attraction, a-b-db, 5, 1, 5, 4, 60, 135, 135, 60, 58, 132, 2, 0.376282
322, 3, wb, filler, NA, 999, 999, 5, 5, 185, 115, 71, 104, 142, 136, 2, 0.766719
322, 3, wb, filler, NA, 999, 999, 5, 5, 185, 115, 71, 104, 142, 136, 1, 0.527133
322, 3, wb, attraction, a-b-db, 2, 1, 5, 6, 59, 134, 60, 135, 135, 60, 3, 0.935648
322, 3, wb, attraction, a-b-db, 2, 1, 5, 6, 59, 134, 60, 135, 135, 60, 1, 0.449269
322, 3, wb, attraction, a-b-db, 9, 2, 5, 7, 165, 90, 86, 157, 90, 165, 3, 0.733146
322, 3, wb, attraction, a-b-db, 9, 2, 5, 7, 165, 90, 86, 157, 90, 165, 1, 0.614845
322, 3, wb, attraction, a-b-db, 9, 1, 5, 8, 57, 129, 135, 60, 60, 135, 1, 1.42791
322, 3, wb, attraction, a-b-db, 9, 1, 5, 8, 57, 129, 135, 60, 60, 135, 2, 0.3615
322, 3, wb, attraction, a-b-da, 14, 2, 5, 9, 153, 83, 165, 90, 90, 165, 1, 0.680588
322, 3, wb, attraction, a-b-da, 14, 2, 5, 9, 153, 83, 165, 90, 90, 165, 2, 0.516364
322, 3, wb, filler, NA, 999, 999, 5, 10, 138, 69, 174, 142, 121, 149, 1, 0.549418
322, 3, wb, filler, NA, 999, 999, 5, 10, 138, 69, 174, 142, 121, 149, 2, 0.742764
322, 3, wb, catch, NA, 999, 999, 5, 11, 87, 108, 127, 188, 147, 108, 1, 0.87844
322, 3, wb, catch, NA, 999, 999, 5, 11, 87, 108, 127, 188, 147, 108, 2, 0.474148
322, 3, wb, attraction, a-b-da, 5, 3, 5, 12, 190, 117, 195, 120, 120, 195, 1, 1.35649
322, 3, wb, attraction, a-b-da, 5, 3, 5, 12, 190, 117, 195, 120, 120, 195, 3, 0.836675
322, 3, wb, attraction, a-b-db, 5, 2, 5, 13, 90, 165, 88, 161, 165, 90, 3, 0.976999
322, 3, wb, attraction, a-b-db, 5, 2, 5, 13, 90, 165, 88, 161, 165, 90, 1, 0.616681
322, 3, wb, filler, NA, 999, 999, 5, 14, 112, 106, 136, 97, 118, 170, 2, 1.51786
322, 3, wb, filler, NA, 999, 999, 5, 14, 112, 106, 136, 97, 118, 170, 3, 0.512087
322, 3, wb, attraction, a-b-da, 5, 2, 5, 15, 165, 90, 161, 88, 90, 165, 3, 0.881033
322, 3, wb, attraction, a-b-da, 5, 2, 5, 15, 165, 90, 161, 88, 90, 165, 2, 0.676765
322, 3, wb, attraction, a-b-da, 14, 1, 5, 16, 125, 56, 60, 135, 135, 60, 1, 0.671157
322, 3, wb, attraction, a-b-da, 14, 1, 5, 16, 125, 56, 60, 135, 135, 60, 2, 0.451133
322, 3, wb, filler, NA, 999, 999, 5, 17, 173, 186, 149, 149, 112, 66, 3, 0.790781
322, 3, wb, filler, NA, 999, 999, 5, 17, 173, 186, 149, 149, 112, 66, 1, 0.357821
322, 3, wb, attraction, a-b-db, 14, 3, 5, 18, 111, 181, 120, 195, 195, 120, 1, 0.916975
322, 3, wb, attraction, a-b-db, 14, 3, 5, 18, 111, 181, 120, 195, 195, 120, 2, 0.399316
322, 3, wb, attraction, a-b-db, 5, 3, 5, 19, 117, 190, 120, 195, 195, 120, 3, 0.877153
322, 3, wb, attraction, a-b-db, 5, 3, 5, 19, 117, 190, 120, 195, 195, 120, 1, 0.952923
322, 3, wb, attraction, a-b-da, 14, 3, 5, 20, 195, 120, 120, 195, 181, 111, 3, 0.552441
322, 3, wb, attraction, a-b-da, 14, 3, 5, 20, 195, 120, 120, 195, 181, 111, 1, 1.15365
322, 3, wb, attraction, a-b-db, 9, 3, 5, 21, 120, 195, 114, 186, 195, 120, 3, 1.03313
322, 3, wb, attraction, a-b-db, 9, 3, 5, 21, 120, 195, 114, 186, 195, 120, 1, 0.510931
322, 3, wb, attraction, a-b-da, 2, 2, 5, 22, 163, 89, 90, 165, 165, 90, 3, 1.13606
322, 3, wb, attraction, a-b-da, 2, 2, 5, 22, 163, 89, 90, 165, 165, 90, 2, 0.593561
322, 3, wb, filler, NA, 999, 999, 5, 23, 71, 108, 112, 175, 83, 161, 1, 0.743343
322, 3, wb, filler, NA, 999, 999, 5, 23, 71, 108, 112, 175, 83, 161, 2, 0.84842
322, 3, wb, attraction, a-b-db, 14, 1, 5, 24, 60, 135, 135, 60, 56, 125, 3, 0.692118
322, 3, wb, attraction, a-b-db, 14, 1, 5, 24, 60, 135, 135, 60, 56, 125, 1, 0.431127
322, 3, wb, filler, NA, 999, 999, 5, 25, 109, 177, 123, 168, 178, 68, 3, 1.26769
322, 3, wb, filler, NA, 999, 999, 5, 25, 109, 177, 123, 168, 178, 68, 2, 0.655923
322, 3, wb, attraction, a-b-db, 14, 2, 5, 26, 90, 165, 165, 90, 83, 153, 2, 1.43574
322, 3, wb, attraction, a-b-db, 14, 2, 5, 26, 90, 165, 165, 90, 83, 153, 1, 0.7132
322, 3, wb, filler, NA, 999, 999, 5, 27, 70, 125, 118, 91, 135, 154, 1, 0.87431
322, 3, wb, filler, NA, 999, 999, 5, 27, 70, 125, 118, 91, 135, 154, 3, 0.845923
322, 3, wb, attraction, a-b-db, 2, 3, 5, 28, 120, 195, 119, 193, 195, 120, 3, 1.22554
322, 3, wb, attraction, a-b-db, 2, 3, 5, 28, 120, 195, 119, 193, 195, 120, 1, 0.879203
322, 3, wb, catch, NA, 999, 999, 5, 29, 107, 88, 118, 137, 131, 184, 1, 1.43347
322, 3, wb, catch, NA, 999, 999, 5, 29, 107, 88, 118, 137, 131, 184, 3, 0.431082
322, 3, wb, attraction, a-b-da, 9, 3, 5, 30, 120, 195, 186, 114, 195, 120, 3, 0.80348
322, 3, wb, attraction, a-b-da, 9, 3, 5, 30, 120, 195, 186, 114, 195, 120, 1, 0.40253
322, 3, wb, attraction, a-b-da, 2, 1, 5, 31, 60, 135, 134, 59, 135, 60, 2, 1.93635
322, 3, wb, attraction, a-b-da, 2, 1, 5, 31, 60, 135, 134, 59, 135, 60, 3, 0.393986
322, 3, wb, attraction, a-b-db, 2, 2, 5, 32, 90, 165, 89, 163, 165, 90, 3, 1.46361
322, 3, wb, attraction, a-b-db, 2, 2, 5, 32, 90, 165, 89, 163, 165, 90, 1, 0.627766
322, 3, wb, attraction, a-b-da, 2, 3, 5, 33, 193, 119, 195, 120, 120, 195, 3, 0.712181
322, 3, wb, attraction, a-b-da, 2, 3, 5, 33, 193, 119, 195, 120, 120, 195, 2, 0.714652
322, 3, wb, filler, NA, 999, 999, 5, 34, 129, 107, 136, 161, 74, 71, 3, 0.883706
322, 3, wb, filler, NA, 999, 999, 5, 34, 129, 107, 136, 161, 74, 71, 2, 0.479424
322, 3, wb, filler, NA, 999, 999, 5, 35, 91, 168, 86, 85, 182, 190, 2, 0.681826
322, 3, wb, filler, NA, 999, 999, 5, 35, 91, 168, 86, 85, 182, 190, 3, 0.397595
322, 3, wb, filler, NA, 999, 999, 5, 36, 140, 131, 121, 92, 117, 78, 3, 0.691516
322, 3, wb, filler, NA, 999, 999, 5, 36, 140, 131, 121, 92, 117, 78, 1, 0.550426
322, 3, wb, attraction, a-b-da, 9, 2, 5, 37, 165, 90, 157, 86, 90, 165, 3, 0.646206
322, 3, wb, attraction, a-b-da, 9, 2, 5, 37, 165, 90, 157, 86, 90, 165, 1, 0.563349
322, 3, wb, attraction, a-b-da, 5, 3, 6, 1, 195, 120, 120, 195, 190, 117, 3, 0.626517
322, 3, wb, attraction, a-b-da, 5, 3, 6, 1, 195, 120, 120, 195, 190, 117, 2, 1.2482
322, 3, wb, attraction, a-b-da, 5, 1, 6, 2, 132, 58, 60, 135, 135, 60, 3, 0.603781
322, 3, wb, attraction, a-b-da, 5, 1, 6, 2, 132, 58, 60, 135, 135, 60, 1, 0.506273
322, 3, wb, attraction, a-b-db, 2, 2, 6, 3, 89, 163, 90, 165, 165, 90, 3, 0.556025
322, 3, wb, attraction, a-b-db, 2, 2, 6, 3, 89, 163, 90, 165, 165, 90, 2, 0.340484
322, 3, wb, filler, NA, 999, 999, 6, 4, 130, 97, 150, 59, 177, 144, 1, 0.676269
322, 3, wb, filler, NA, 999, 999, 6, 4, 130, 97, 150, 59, 177, 144, 3, 0.464057
322, 3, wb, filler, NA, 999, 999, 6, 5, 56, 127, 133, 127, 90, 152, 1, 0.923109
322, 3, wb, filler, NA, 999, 999, 6, 5, 56, 127, 133, 127, 90, 152, 2, 0.724956
322, 3, wb, filler, NA, 999, 999, 6, 6, 75, 186, 143, 157, 154, 83, 3, 0.741244
322, 3, wb, filler, NA, 999, 999, 6, 6, 75, 186, 143, 157, 154, 83, 2, 0.382263
322, 3, wb, attraction, a-b-da, 5, 2, 6, 7, 165, 90, 161, 88, 90, 165, 3, 0.692789
322, 3, wb, attraction, a-b-da, 5, 2, 6, 7, 165, 90, 161, 88, 90, 165, 1, 0.487938
322, 3, wb, attraction, a-b-db, 14, 3, 6, 8, 120, 195, 111, 181, 195, 120, 3, 1.17835
322, 3, wb, attraction, a-b-db, 14, 3, 6, 8, 120, 195, 111, 181, 195, 120, 1, 0.466041
322, 3, wb, attraction, a-b-da, 14, 2, 6, 9, 165, 90, 153, 83, 90, 165, 2, 0.989105
322, 3, wb, attraction, a-b-da, 14, 2, 6, 9, 165, 90, 153, 83, 90, 165, 1, 0.612034
322, 3, wb, attraction, a-b-db, 5, 2, 6, 10, 88, 161, 90, 165, 165, 90, 1, 13.2251
322, 3, wb, attraction, a-b-db, 5, 2, 6, 10, 88, 161, 90, 165, 165, 90, 3, 0.667041
322, 3, wb, filler, NA, 999, 999, 6, 11, 136, 110, 131, 152, 68, 170, 3, 0.918045
322, 3, wb, filler, NA, 999, 999, 6, 11, 136, 110, 131, 152, 68, 170, 2, 0.40051
322, 3, wb, attraction, a-b-da, 9, 1, 6, 12, 129, 57, 60, 135, 135, 60, 3, 1.01424
322, 3, wb, attraction, a-b-da, 9, 1, 6, 12, 129, 57, 60, 135, 135, 60, 2, 0.372542
322, 3, wb, catch, NA, 999, 999, 6, 13, 192, 123, 142, 113, 62, 133, 3, 0.595676
322, 3, wb, catch, NA, 999, 999, 6, 13, 192, 123, 142, 113, 62, 133, 1, 0.714867
322, 3, wb, filler, NA, 999, 999, 6, 14, 119, 78, 191, 141, 97, 136, 1, 0.595877
322, 3, wb, filler, NA, 999, 999, 6, 14, 119, 78, 191, 141, 97, 136, 2, 0.338985
322, 3, wb, attraction, a-b-da, 14, 1, 6, 15, 125, 56, 60, 135, 135, 60, 3, 0.483518
322, 3, wb, attraction, a-b-da, 14, 1, 6, 15, 125, 56, 60, 135, 135, 60, 2, 1.42334
322, 3, wb, attraction, a-b-da, 2, 3, 6, 16, 195, 120, 120, 195, 193, 119, 3, 1.45218
322, 3, wb, attraction, a-b-da, 2, 3, 6, 16, 195, 120, 120, 195, 193, 119, 2, 0.649056
322, 3, wb, filler, NA, 999, 999, 6, 17, 90, 104, 95, 93, 187, 165, 1, 0.780713
322, 3, wb, filler, NA, 999, 999, 6, 17, 90, 104, 95, 93, 187, 165, 3, 0.692531
322, 3, wb, attraction, a-b-db, 9, 1, 6, 18, 135, 60, 57, 129, 60, 135, 2, 0.662192
322, 3, wb, attraction, a-b-db, 9, 1, 6, 18, 135, 60, 57, 129, 60, 135, 1, 0.3626
322, 3, wb, attraction, a-b-da, 2, 1, 6, 19, 60, 135, 135, 60, 134, 59, 2, 0.689826
322, 3, wb, attraction, a-b-da, 2, 1, 6, 19, 60, 135, 135, 60, 134, 59, 3, 0.573009
322, 3, wb, attraction, a-b-da, 9, 3, 6, 20, 195, 120, 120, 195, 186, 114, 3, 1.01202
322, 3, wb, attraction, a-b-da, 9, 3, 6, 20, 195, 120, 120, 195, 186, 114, 2, 0.378422
322, 3, wb, filler, NA, 999, 999, 6, 21, 192, 193, 187, 169, 63, 67, 3, 0.60085
322, 3, wb, filler, NA, 999, 999, 6, 21, 192, 193, 187, 169, 63, 67, 1, 0.359883
322, 3, wb, attraction, a-b-db, 9, 3, 6, 22, 120, 195, 114, 186, 195, 120, 1, 0.759158
322, 3, wb, attraction, a-b-db, 9, 3, 6, 22, 120, 195, 114, 186, 195, 120, 3, 0.383491
322, 3, wb, attraction, a-b-da, 2, 2, 6, 23, 165, 90, 163, 89, 90, 165, 1, 0.6461
322, 3, wb, attraction, a-b-da, 2, 2, 6, 23, 165, 90, 163, 89, 90, 165, 2, 0.37113
322, 3, wb, catch, NA, 999, 999, 6, 24, 121, 194, 97, 158, 94, 101, 3, 0.874229
322, 3, wb, catch, NA, 999, 999, 6, 24, 121, 194, 97, 158, 94, 101, 1, 0.398035
322, 3, wb, attraction, a-b-db, 9, 2, 6, 25, 86, 157, 165, 90, 90, 165, 2, 0.507735
322, 3, wb, attraction, a-b-db, 9, 2, 6, 25, 86, 157, 165, 90, 90, 165, 1, 0.350215
322, 3, wb, attraction, a-b-db, 5, 3, 6, 26, 120, 195, 195, 120, 117, 190, 3, 0.606127
322, 3, wb, attraction, a-b-db, 5, 3, 6, 26, 120, 195, 195, 120, 117, 190, 1, 0.844567
322, 3, wb, attraction, a-b-db, 14, 1, 6, 27, 60, 135, 56, 125, 135, 60, 3, 0.776176
322, 3, wb, attraction, a-b-db, 14, 1, 6, 27, 60, 135, 56, 125, 135, 60, 1, 0.504003
322, 3, wb, catch, NA, 999, 999, 6, 28, 67, 128, 174, 141, 96, 159, 1, 0.617731
322, 3, wb, catch, NA, 999, 999, 6, 28, 67, 128, 174, 141, 96, 159, 2, 0.312176
322, 3, wb, attraction, a-b-db, 2, 1, 6, 29, 60, 135, 135, 60, 59, 134, 3, 0.585358
322, 3, wb, attraction, a-b-db, 2, 1, 6, 29, 60, 135, 135, 60, 59, 134, 2, 0.369289
322, 3, wb, attraction, a-b-db, 2, 3, 6, 30, 195, 120, 120, 195, 119, 193, 3, 0.944263
322, 3, wb, attraction, a-b-db, 2, 3, 6, 30, 195, 120, 120, 195, 119, 193, 2, 0.545309
322, 3, wb, filler, NA, 999, 999, 6, 31, 165, 87, 89, 111, 178, 193, 2, 1.4491
322, 3, wb, filler, NA, 999, 999, 6, 31, 165, 87, 89, 111, 178, 193, 3, 0.437935
322, 3, wb, attraction, a-b-db, 5, 1, 6, 32, 135, 60, 60, 135, 58, 132, 3, 0.682418
322, 3, wb, attraction, a-b-db, 5, 1, 6, 32, 135, 60, 60, 135, 58, 132, 1, 0.646224
322, 3, wb, attraction, a-b-db, 14, 2, 6, 33, 90, 165, 83, 153, 165, 90, 3, 1.01795
322, 3, wb, attraction, a-b-db, 14, 2, 6, 33, 90, 165, 83, 153, 165, 90, 1, 0.480165
322, 3, wb, attraction, a-b-da, 9, 2, 6, 34, 165, 90, 157, 86, 90, 165, 2, 2.00271
322, 3, wb, attraction, a-b-da, 9, 2, 6, 34, 165, 90, 157, 86, 90, 165, 3, 0.649389
322, 3, wb, filler, NA, 999, 999, 6, 35, 82, 137, 120, 181, 115, 92, 3, 1.41315
322, 3, wb, filler, NA, 999, 999, 6, 35, 82, 137, 120, 181, 115, 92, 2, 0.403326
322, 3, wb, attraction, a-b-da, 14, 3, 6, 36, 181, 111, 120, 195, 195, 120, 1, 1.12116
322, 3, wb, attraction, a-b-da, 14, 3, 6, 36, 181, 111, 120, 195, 195, 120, 2, 0.627478
322, 3, wb, filler, NA, 999, 999, 6, 37, 106, 183, 74, 72, 127, 125, 2, 0.703873
322, 3, wb, filler, NA, 999, 999, 6, 37, 106, 183, 74, 72, 127, 125, 1, 0.410942
322, 3, wb, attraction, a-b-db, 9, 3, 7, 1, 195, 120, 120, 195, 114, 186, 3, 1.77602
322, 3, wb, attraction, a-b-db, 9, 3, 7, 1, 195, 120, 120, 195, 114, 186, 2, 0.463632
322, 3, wb, attraction, a-b-db, 9, 2, 7, 2, 90, 165, 165, 90, 86, 157, 3, 0.602641
322, 3, wb, attraction, a-b-db, 9, 2, 7, 2, 90, 165, 165, 90, 86, 157, 2, 0.401749
322, 3, wb, attraction, a-b-da, 9, 1, 7, 3, 60, 135, 135, 60, 129, 57, 1, 0.943488
322, 3, wb, attraction, a-b-da, 9, 1, 7, 3, 60, 135, 135, 60, 129, 57, 2, 0.456766
322, 3, wb, catch, NA, 999, 999, 7, 4, 129, 126, 126, 189, 71, 124, 3, 4.54767
322, 3, wb, catch, NA, 999, 999, 7, 4, 129, 126, 126, 189, 71, 124, 2, 0.499663
322, 3, wb, filler, NA, 999, 999, 7, 5, 79, 80, 152, 189, 82, 104, 1, 0.93343
322, 3, wb, filler, NA, 999, 999, 7, 5, 79, 80, 152, 189, 82, 104, 2, 0.431089
322, 3, wb, attraction, a-b-db, 2, 2, 7, 6, 89, 163, 90, 165, 165, 90, 3, 0.65959
322, 3, wb, attraction, a-b-db, 2, 2, 7, 6, 89, 163, 90, 165, 165, 90, 2, 0.392086
322, 3, wb, attraction, a-b-da, 9, 2, 7, 7, 157, 86, 90, 165, 165, 90, 3, 0.429848
322, 3, wb, attraction, a-b-da, 9, 2, 7, 7, 157, 86, 90, 165, 165, 90, 2, 0.363621
322, 3, wb, filler, NA, 999, 999, 7, 8, 73, 78, 101, 110, 117, 142, 1, 0.802775
322, 3, wb, filler, NA, 999, 999, 7, 8, 73, 78, 101, 110, 117, 142, 3, 0.369869
322, 3, wb, attraction, a-b-db, 14, 2, 7, 9, 83, 153, 165, 90, 90, 165, 1, 0.497001
322, 3, wb, attraction, a-b-db, 14, 2, 7, 9, 83, 153, 165, 90, 90, 165, 2, 0.300144
322, 3, wb, attraction, a-b-da, 9, 3, 7, 10, 186, 114, 120, 195, 195, 120, 3, 0.518079
322, 3, wb, attraction, a-b-da, 9, 3, 7, 10, 186, 114, 120, 195, 195, 120, 2, 0.520589
322, 3, wb, attraction, a-b-da, 14, 1, 7, 11, 125, 56, 135, 60, 60, 135, 3, 0.505642
322, 3, wb, attraction, a-b-da, 14, 1, 7, 11, 125, 56, 135, 60, 60, 135, 2, 2.26811
322, 3, wb, filler, NA, 999, 999, 7, 12, 96, 129, 147, 182, 186, 79, 1, 0.798645
322, 3, wb, filler, NA, 999, 999, 7, 12, 96, 129, 147, 182, 186, 79, 2, 0.525743
322, 3, wb, attraction, a-b-da, 2, 1, 7, 13, 60, 135, 134, 59, 135, 60, 3, 0.406137
322, 3, wb, attraction, a-b-da, 2, 1, 7, 13, 60, 135, 134, 59, 135, 60, 2, 0.532673
322, 3, wb, attraction, a-b-da, 2, 3, 7, 14, 193, 119, 120, 195, 195, 120, 1, 0.477113
322, 3, wb, attraction, a-b-da, 2, 3, 7, 14, 193, 119, 120, 195, 195, 120, 2, 0.34487
322, 3, wb, attraction, a-b-db, 5, 1, 7, 15, 58, 132, 135, 60, 60, 135, 3, 0.488763
322, 3, wb, attraction, a-b-db, 5, 1, 7, 15, 58, 132, 135, 60, 60, 135, 2, 0.555844
322, 3, wb, filler, NA, 999, 999, 7, 16, 65, 184, 120, 143, 83, 127, 3, 0.691832
322, 3, wb, filler, NA, 999, 999, 7, 16, 65, 184, 120, 143, 83, 127, 2, 0.758785
322, 3, wb, attraction, a-b-db, 2, 3, 7, 17, 119, 193, 195, 120, 120, 195, 1, 0.589778
322, 3, wb, attraction, a-b-db, 2, 3, 7, 17, 119, 193, 195, 120, 120, 195, 2, 0.332961
322, 3, wb, attraction, a-b-db, 14, 1, 7, 18, 56, 125, 60, 135, 135, 60, 2, 0.749393
322, 3, wb, attraction, a-b-db, 14, 1, 7, 18, 56, 125, 60, 135, 135, 60, 3, 0.39853
322, 3, wb, attraction, a-b-db, 14, 3, 7, 19, 195, 120, 111, 181, 120, 195, 2, 0.468264
322, 3, wb, attraction, a-b-db, 14, 3, 7, 19, 195, 120, 111, 181, 120, 195, 1, 0.360798
322, 3, wb, attraction, a-b-da, 5, 2, 7, 20, 165, 90, 90, 165, 161, 88, 1, 0.703918
322, 3, wb, attraction, a-b-da, 5, 2, 7, 20, 165, 90, 90, 165, 161, 88, 2, 0.371077
322, 3, wb, filler, NA, 999, 999, 7, 21, 151, 122, 167, 185, 145, 105, 3, 0.834178
322, 3, wb, filler, NA, 999, 999, 7, 21, 151, 122, 167, 185, 145, 105, 2, 0.49609
322, 3, wb, attraction, a-b-da, 14, 2, 7, 22, 165, 90, 153, 83, 90, 165, 1, 0.665679
322, 3, wb, attraction, a-b-da, 14, 2, 7, 22, 165, 90, 153, 83, 90, 165, 3, 0.766162
322, 3, wb, attraction, a-b-db, 2, 1, 7, 23, 59, 134, 135, 60, 60, 135, 2, 2.95714
322, 3, wb, attraction, a-b-db, 2, 1, 7, 23, 59, 134, 135, 60, 60, 135, 3, 0.524887
322, 3, wb, filler, NA, 999, 999, 7, 24, 133, 186, 73, 184, 137, 150, 2, 0.453336
322, 3, wb, filler, NA, 999, 999, 7, 24, 133, 186, 73, 184, 137, 150, 1, 0.554557
322, 3, wb, filler, NA, 999, 999, 7, 25, 106, 156, 88, 174, 139, 97, 3, 0.674255
322, 3, wb, filler, NA, 999, 999, 7, 25, 106, 156, 88, 174, 139, 97, 2, 0.694114
322, 3, wb, attraction, a-b-db, 9, 1, 7, 26, 60, 135, 57, 129, 135, 60, 2, 0.703782
322, 3, wb, attraction, a-b-db, 9, 1, 7, 26, 60, 135, 57, 129, 135, 60, 3, 1.05883
322, 3, wb, catch, NA, 999, 999, 7, 27, 135, 180, 117, 78, 156, 99, 2, 0.645815
322, 3, wb, catch, NA, 999, 999, 7, 27, 135, 180, 117, 78, 156, 99, 1, 0.618912
322, 3, wb, attraction, a-b-db, 5, 3, 7, 28, 120, 195, 195, 120, 117, 190, 2, 0.631953
322, 3, wb, attraction, a-b-db, 5, 3, 7, 28, 120, 195, 195, 120, 117, 190, 1, 0.509771
322, 3, wb, attraction, a-b-da, 2, 2, 7, 29, 163, 89, 90, 165, 165, 90, 3, 1.11101
322, 3, wb, attraction, a-b-da, 2, 2, 7, 29, 163, 89, 90, 165, 165, 90, 2, 0.889425
322, 3, wb, filler, NA, 999, 999, 7, 30, 92, 56, 94, 144, 175, 80, 1, 1.92353
322, 3, wb, filler, NA, 999, 999, 7, 30, 92, 56, 94, 144, 175, 80, 2, 0.388923
322, 3, wb, attraction, a-b-da, 5, 1, 7, 31, 132, 58, 60, 135, 135, 60, 1, 1.41137
322, 3, wb, attraction, a-b-da, 5, 1, 7, 31, 132, 58, 60, 135, 135, 60, 2, 0.529563
322, 3, wb, attraction, a-b-da, 5, 3, 7, 32, 195, 120, 190, 117, 120, 195, 3, 0.82599
322, 3, wb, attraction, a-b-da, 5, 3, 7, 32, 195, 120, 190, 117, 120, 195, 2, 0.559871
322, 3, wb, filler, NA, 999, 999, 7, 33, 83, 140, 153, 78, 92, 86, 3, 1.11082
322, 3, wb, filler, NA, 999, 999, 7, 33, 83, 140, 153, 78, 92, 86, 2, 2.12115
322, 3, wb, catch, NA, 999, 999, 7, 34, 72, 123, 101, 154, 188, 127, 1, 1.08171
322, 3, wb, catch, NA, 999, 999, 7, 34, 72, 123, 101, 154, 188, 127, 3, 0.525373
322, 3, wb, filler, NA, 999, 999, 7, 35, 86, 178, 141, 135, 180, 76, 3, 0.869843
322, 3, wb, filler, NA, 999, 999, 7, 35, 86, 178, 141, 135, 180, 76, 2, 0.554166
322, 3, wb, attraction, a-b-db, 5, 2, 7, 36, 165, 90, 88, 161, 90, 165, 3, 0.882031
322, 3, wb, attraction, a-b-db, 5, 2, 7, 36, 165, 90, 88, 161, 90, 165, 1, 0.413612
322, 3, wb, attraction, a-b-da, 14, 3, 7, 37, 181, 111, 120, 195, 195, 120, 1, 0.890709
322, 3, wb, attraction, a-b-da, 14, 3, 7, 37, 181, 111, 120, 195, 195, 120, 2, 0.381937
322, 3, wb, attraction, a-b-da, 2, 2, 8, 1, 163, 89, 165, 90, 90, 165, 1, 1.01234
322, 3, wb, attraction, a-b-da, 2, 2, 8, 1, 163, 89, 165, 90, 90, 165, 2, 0.362587
322, 3, wb, attraction, a-b-db, 2, 1, 8, 2, 135, 60, 60, 135, 59, 134, 3, 0.78581
322, 3, wb, attraction, a-b-db, 2, 1, 8, 2, 135, 60, 60, 135, 59, 134, 2, 0.329564
322, 3, wb, catch, NA, 999, 999, 8, 3, 90, 165, 120, 195, 77, 118, 3, 0.529991
322, 3, wb, catch, NA, 999, 999, 8, 3, 90, 165, 120, 195, 77, 118, 2, 0.315844
322, 3, wb, filler, NA, 999, 999, 8, 4, 71, 151, 100, 61, 158, 64, 2, 0.885039
322, 3, wb, filler, NA, 999, 999, 8, 4, 71, 151, 100, 61, 158, 64, 3, 0.848688
322, 3, wb, attraction, a-b-db, 9, 2, 8, 5, 165, 90, 90, 165, 86, 157, 3, 0.988418
322, 3, wb, attraction, a-b-db, 9, 2, 8, 5, 165, 90, 90, 165, 86, 157, 2, 0.971371
322, 3, wb, attraction, a-b-da, 9, 2, 8, 6, 157, 86, 90, 165, 165, 90, 3, 0.754354
322, 3, wb, attraction, a-b-da, 9, 2, 8, 6, 157, 86, 90, 165, 165, 90, 2, 0.507499
322, 3, wb, filler, NA, 999, 999, 8, 7, 102, 65, 124, 69, 124, 188, 1, 0.964495
322, 3, wb, filler, NA, 999, 999, 8, 7, 102, 65, 124, 69, 124, 188, 3, 0.428878
322, 3, wb, attraction, a-b-db, 2, 2, 8, 8, 165, 90, 90, 165, 89, 163, 2, 0.729302
322, 3, wb, attraction, a-b-db, 2, 2, 8, 8, 165, 90, 90, 165, 89, 163, 1, 1.17916
322, 3, wb, attraction, a-b-da, 2, 3, 8, 9, 193, 119, 120, 195, 195, 120, 2, 0.721288
322, 3, wb, attraction, a-b-da, 2, 3, 8, 9, 193, 119, 120, 195, 195, 120, 3, 0.963724
322, 3, wb, attraction, a-b-db, 5, 2, 8, 10, 90, 165, 165, 90, 88, 161, 3, 1.84269
322, 3, wb, attraction, a-b-db, 5, 2, 8, 10, 90, 165, 165, 90, 88, 161, 2, 0.751529
322, 3, wb, attraction, a-b-db, 14, 1, 8, 11, 56, 125, 135, 60, 60, 135, 2, 0.639263
322, 3, wb, attraction, a-b-db, 14, 1, 8, 11, 56, 125, 135, 60, 60, 135, 3, 1.0923
322, 3, wb, attraction, a-b-db, 9, 3, 8, 12, 120, 195, 195, 120, 114, 186, 2, 0.701896
322, 3, wb, attraction, a-b-db, 9, 3, 8, 12, 120, 195, 195, 120, 114, 186, 1, 0.417036
322, 3, wb, attraction, a-b-db, 5, 1, 8, 13, 58, 132, 60, 135, 135, 60, 1, 16.6621
322, 3, wb, attraction, a-b-db, 5, 1, 8, 13, 58, 132, 60, 135, 135, 60, 2, 0.389522
322, 3, wb, filler, NA, 999, 999, 8, 14, 65, 99, 128, 58, 102, 117, 1, 1.01201
322, 3, wb, filler, NA, 999, 999, 8, 14, 65, 99, 128, 58, 102, 117, 3, 0.658306
322, 3, wb, attraction, a-b-db, 14, 3, 8, 15, 111, 181, 120, 195, 195, 120, 1, 1.14133
322, 3, wb, attraction, a-b-db, 14, 3, 8, 15, 111, 181, 120, 195, 195, 120, 2, 0.35031
322, 3, wb, filler, NA, 999, 999, 8, 16, 157, 167, 108, 111, 128, 157, 2, 0.718116
322, 3, wb, filler, NA, 999, 999, 8, 16, 157, 167, 108, 111, 128, 157, 1, 0.352676
322, 3, wb, catch, NA, 999, 999, 8, 17, 147, 108, 178, 137, 76, 119, 3, 0.688453
322, 3, wb, catch, NA, 999, 999, 8, 17, 147, 108, 178, 137, 76, 119, 2, 0.33166
322, 3, wb, attraction, a-b-da, 2, 1, 8, 18, 135, 60, 60, 135, 134, 59, 1, 0.676091
322, 3, wb, attraction, a-b-da, 2, 1, 8, 18, 135, 60, 60, 135, 134, 59, 2, 0.33578
322, 3, wb, attraction, a-b-da, 14, 1, 8, 19, 60, 135, 125, 56, 135, 60, 1, 0.728272
322, 3, wb, attraction, a-b-da, 14, 1, 8, 19, 60, 135, 125, 56, 135, 60, 3, 0.330163
322, 3, wb, attraction, a-b-da, 14, 2, 8, 20, 90, 165, 165, 90, 153, 83, 1, 0.474553
322, 3, wb, attraction, a-b-da, 14, 2, 8, 20, 90, 165, 165, 90, 153, 83, 2, 0.566403
322, 3, wb, filler, NA, 999, 999, 8, 21, 190, 69, 118, 77, 124, 121, 2, 0.533452
322, 3, wb, filler, NA, 999, 999, 8, 21, 190, 69, 118, 77, 124, 121, 3, 0.383265
322, 3, wb, attraction, a-b-da, 9, 3, 8, 22, 195, 120, 186, 114, 120, 195, 2, 0.517742
322, 3, wb, attraction, a-b-da, 9, 3, 8, 22, 195, 120, 186, 114, 120, 195, 3, 0.824198
322, 3, wb, attraction, a-b-db, 2, 3, 8, 23, 120, 195, 195, 120, 119, 193, 2, 0.996595
322, 3, wb, attraction, a-b-db, 2, 3, 8, 23, 120, 195, 195, 120, 119, 193, 1, 0.355542
322, 3, wb, filler, NA, 999, 999, 8, 24, 130, 73, 137, 70, 92, 121, 1, 0.851403
322, 3, wb, filler, NA, 999, 999, 8, 24, 130, 73, 137, 70, 92, 121, 3, 0.624549
322, 3, wb, filler, NA, 999, 999, 8, 25, 92, 83, 112, 131, 167, 64, 1, 1.05287
322, 3, wb, filler, NA, 999, 999, 8, 25, 92, 83, 112, 131, 167, 64, 2, 0.337916
322, 3, wb, catch, NA, 999, 999, 8, 26, 121, 134, 135, 180, 86, 109, 3, 0.698354
322, 3, wb, catch, NA, 999, 999, 8, 26, 121, 134, 135, 180, 86, 109, 2, 0.461464
322, 3, wb, filler, NA, 999, 999, 8, 27, 58, 56, 88, 101, 180, 97, 1, 0.656684
322, 3, wb, filler, NA, 999, 999, 8, 27, 58, 56, 88, 101, 180, 97, 3, 0.557186
322, 3, wb, attraction, a-b-db, 14, 2, 8, 28, 165, 90, 90, 165, 83, 153, 3, 0.740123
322, 3, wb, attraction, a-b-db, 14, 2, 8, 28, 165, 90, 90, 165, 83, 153, 1, 0.517259
322, 3, wb, filler, NA, 999, 999, 8, 29, 172, 194, 79, 195, 61, 71, 3, 0.582226
322, 3, wb, filler, NA, 999, 999, 8, 29, 172, 194, 79, 195, 61, 71, 1, 0.43016
322, 3, wb, attraction, a-b-da, 14, 3, 8, 30, 195, 120, 120, 195, 181, 111, 3, 0.914758
322, 3, wb, attraction, a-b-da, 14, 3, 8, 30, 195, 120, 120, 195, 181, 111, 2, 0.668873
322, 3, wb, attraction, a-b-da, 5, 2, 8, 31, 165, 90, 90, 165, 161, 88, 1, 0.679906
322, 3, wb, attraction, a-b-da, 5, 2, 8, 31, 165, 90, 90, 165, 161, 88, 2, 0.387806
322, 3, wb, attraction, a-b-da, 5, 3, 8, 32, 190, 117, 195, 120, 120, 195, 3, 0.946294
322, 3, wb, attraction, a-b-da, 5, 3, 8, 32, 190, 117, 195, 120, 120, 195, 2, 0.475324
322, 3, wb, attraction, a-b-da, 9, 1, 8, 33, 60, 135, 129, 57, 135, 60, 1, 0.693779
322, 3, wb, attraction, a-b-da, 9, 1, 8, 33, 60, 135, 129, 57, 135, 60, 3, 0.552822
322, 3, wb, filler, NA, 999, 999, 8, 34, 130, 190, 192, 167, 183, 136, 1, 0.936596
322, 3, wb, filler, NA, 999, 999, 8, 34, 130, 190, 192, 167, 183, 136, 2, 0.746252
322, 3, wb, attraction, a-b-db, 9, 1, 8, 35, 57, 129, 135, 60, 60, 135, 2, 0.745881
322, 3, wb, attraction, a-b-db, 9, 1, 8, 35, 57, 129, 135, 60, 60, 135, 1, 0.379065
322, 3, wb, attraction, a-b-da, 5, 1, 8, 36, 132, 58, 60, 135, 135, 60, 2, 0.809563
322, 3, wb, attraction, a-b-da, 5, 1, 8, 36, 132, 58, 60, 135, 135, 60, 1, 0.687986
322, 3, wb, attraction, a-b-db, 5, 3, 8, 37, 117, 190, 195, 120, 120, 195, 2, 1.09836
322, 3, wb, attraction, a-b-db, 5, 3, 8, 37, 117, 190, 195, 120, 120, 195, 1, 0.525258
