sub_n, computer_n, bw_cond, effect, set, distance, diag, block_n, trial_n, h1, w1, h2, w2, h3, w3, choice, rt 
358, 3, wb, practice, NA, 999, 999, 0, 1, 124, 98, 73, 82, 179, 190, 2, 2.25484
358, 3, wb, practice, NA, 999, 999, 0, 1, 124, 98, 73, 82, 179, 190, 3, 1.8597
358, 3, wb, practice, NA, 999, 999, 0, 2, 88, 119, 123, 194, 71, 171, 1, 6.19679
358, 3, wb, practice, NA, 999, 999, 0, 2, 88, 119, 123, 194, 71, 171, 2, 1.33667
358, 3, wb, practice, NA, 999, 999, 0, 3, 155, 149, 111, 76, 128, 91, 2, 1.71928
358, 3, wb, practice, NA, 999, 999, 0, 3, 155, 149, 111, 76, 128, 91, 1, 0.791689
358, 3, wb, attraction, a-b-da, 2, 2, 1, 1, 163, 89, 90, 165, 165, 90, 1, 3.49023
358, 3, wb, attraction, a-b-da, 2, 2, 1, 1, 163, 89, 90, 165, 165, 90, 2, 1.51654
358, 3, wb, attraction, a-b-da, 9, 1, 1, 2, 135, 60, 129, 57, 60, 135, 2, 2.23731
358, 3, wb, attraction, a-b-da, 9, 1, 1, 2, 135, 60, 129, 57, 60, 135, 3, 1.46657
358, 3, wb, filler, NA, 999, 999, 1, 3, 154, 68, 102, 72, 194, 155, 2, 1.19728
358, 3, wb, filler, NA, 999, 999, 1, 3, 154, 68, 102, 72, 194, 155, 3, 0.308234
358, 3, wb, filler, NA, 999, 999, 1, 4, 80, 84, 123, 84, 151, 71, 1, 1.01336
358, 3, wb, filler, NA, 999, 999, 1, 4, 80, 84, 123, 84, 151, 71, 2, 1.46771
358, 3, wb, attraction, a-b-da, 9, 3, 1, 5, 120, 195, 186, 114, 195, 120, 3, 1.60645
358, 3, wb, attraction, a-b-da, 9, 3, 1, 5, 120, 195, 186, 114, 195, 120, 1, 0.308636
358, 3, wb, filler, NA, 999, 999, 1, 6, 110, 155, 108, 153, 171, 119, 1, 1.37377
358, 3, wb, filler, NA, 999, 999, 1, 6, 110, 155, 108, 153, 171, 119, 3, 0.589474
358, 3, wb, attraction, a-b-db, 14, 2, 1, 7, 90, 165, 83, 153, 165, 90, 2, 1.29183
358, 3, wb, attraction, a-b-db, 14, 2, 1, 7, 90, 165, 83, 153, 165, 90, 1, 1.40676
358, 3, wb, filler, NA, 999, 999, 1, 8, 93, 163, 74, 131, 176, 148, 2, 0.795558
358, 3, wb, filler, NA, 999, 999, 1, 8, 93, 163, 74, 131, 176, 148, 3, 0.258554
358, 3, wb, filler, NA, 999, 999, 1, 9, 70, 73, 81, 174, 176, 161, 1, 0.709762
358, 3, wb, filler, NA, 999, 999, 1, 9, 70, 73, 81, 174, 176, 161, 3, 0.584211
358, 3, wb, filler, NA, 999, 999, 1, 10, 171, 160, 147, 139, 78, 135, 3, 0.542601
358, 3, wb, filler, NA, 999, 999, 1, 10, 171, 160, 147, 139, 78, 135, 1, 0.439751
358, 3, wb, catch, NA, 999, 999, 1, 11, 145, 170, 87, 108, 134, 121, 2, 0.660228
358, 3, wb, catch, NA, 999, 999, 1, 11, 145, 170, 87, 108, 134, 121, 1, 0.34465
358, 3, wb, filler, NA, 999, 999, 1, 12, 171, 60, 79, 98, 66, 133, 2, 3.44073
358, 3, wb, filler, NA, 999, 999, 1, 12, 171, 60, 79, 98, 66, 133, 1, 0.556821
358, 3, wb, attraction, a-b-da, 2, 3, 1, 13, 120, 195, 193, 119, 195, 120, 1, 2.0039
358, 3, wb, attraction, a-b-da, 2, 3, 1, 13, 120, 195, 193, 119, 195, 120, 3, 1.00261
358, 3, wb, filler, NA, 999, 999, 1, 14, 70, 64, 150, 104, 177, 156, 1, 0.864244
358, 3, wb, filler, NA, 999, 999, 1, 14, 70, 64, 150, 104, 177, 156, 3, 0.316637
358, 3, wb, attraction, a-b-da, 5, 3, 1, 15, 190, 117, 120, 195, 195, 120, 1, 2.06968
358, 3, wb, attraction, a-b-da, 5, 3, 1, 15, 190, 117, 120, 195, 195, 120, 2, 0.457867
358, 3, wb, attraction, a-b-da, 14, 2, 1, 16, 165, 90, 153, 83, 90, 165, 2, 2.03688
358, 3, wb, attraction, a-b-da, 14, 2, 1, 16, 165, 90, 153, 83, 90, 165, 3, 0.754315
358, 3, wb, attraction, a-b-db, 9, 1, 1, 17, 60, 135, 57, 129, 135, 60, 2, 1.18598
358, 3, wb, attraction, a-b-db, 9, 1, 1, 17, 60, 135, 57, 129, 135, 60, 3, 1.45764
358, 3, wb, filler, NA, 999, 999, 1, 18, 193, 117, 140, 121, 70, 80, 3, 1.06027
358, 3, wb, filler, NA, 999, 999, 1, 18, 193, 117, 140, 121, 70, 80, 1, 0.352597
358, 3, wb, attraction, a-b-db, 14, 1, 1, 19, 56, 125, 135, 60, 60, 135, 1, 2.0724
358, 3, wb, attraction, a-b-db, 14, 1, 1, 19, 56, 125, 135, 60, 60, 135, 3, 0.723811
358, 3, wb, attraction, a-b-db, 9, 3, 1, 20, 120, 195, 195, 120, 114, 186, 3, 1.38016
358, 3, wb, attraction, a-b-db, 9, 3, 1, 20, 120, 195, 195, 120, 114, 186, 1, 0.459715
358, 3, wb, attraction, a-b-da, 14, 1, 1, 21, 60, 135, 135, 60, 125, 56, 3, 1.34282
358, 3, wb, attraction, a-b-da, 14, 1, 1, 21, 60, 135, 135, 60, 125, 56, 2, 0.831765
358, 3, wb, attraction, a-b-da, 5, 1, 1, 22, 132, 58, 135, 60, 60, 135, 3, 0.804055
358, 3, wb, attraction, a-b-da, 5, 1, 1, 22, 132, 58, 135, 60, 60, 135, 2, 0.435212
358, 3, wb, attraction, a-b-da, 2, 1, 1, 23, 134, 59, 60, 135, 135, 60, 2, 0.855629
358, 3, wb, attraction, a-b-da, 2, 1, 1, 23, 134, 59, 60, 135, 135, 60, 1, 0.412014
358, 3, wb, catch, NA, 999, 999, 1, 24, 86, 109, 141, 114, 156, 159, 1, 0.68915
358, 3, wb, catch, NA, 999, 999, 1, 24, 86, 109, 141, 114, 156, 159, 3, 0.660214
358, 3, wb, attraction, a-b-db, 5, 3, 1, 25, 195, 120, 117, 190, 120, 195, 1, 2.80747
358, 3, wb, attraction, a-b-db, 5, 3, 1, 25, 195, 120, 117, 190, 120, 195, 3, 0.45318
358, 3, wb, attraction, a-b-db, 2, 2, 1, 26, 90, 165, 165, 90, 89, 163, 3, 0.608794
358, 3, wb, attraction, a-b-db, 2, 2, 1, 26, 90, 165, 165, 90, 89, 163, 1, 0.431296
358, 3, wb, attraction, a-b-db, 2, 3, 1, 27, 195, 120, 120, 195, 119, 193, 1, 1.2517
358, 3, wb, attraction, a-b-db, 2, 3, 1, 27, 195, 120, 120, 195, 119, 193, 3, 0.832686
358, 3, wb, attraction, a-b-db, 5, 1, 1, 28, 60, 135, 135, 60, 58, 132, 3, 1.99707
358, 3, wb, attraction, a-b-db, 5, 1, 1, 28, 60, 135, 135, 60, 58, 132, 1, 0.539726
358, 3, wb, attraction, a-b-da, 9, 2, 1, 29, 90, 165, 157, 86, 165, 90, 1, 0.69214
358, 3, wb, attraction, a-b-da, 9, 2, 1, 29, 90, 165, 157, 86, 165, 90, 3, 1.1672
358, 3, wb, attraction, a-b-db, 9, 2, 1, 30, 90, 165, 165, 90, 86, 157, 3, 2.0381
358, 3, wb, attraction, a-b-db, 9, 2, 1, 30, 90, 165, 165, 90, 86, 157, 1, 1.14756
358, 3, wb, attraction, a-b-da, 14, 3, 1, 31, 195, 120, 181, 111, 120, 195, 2, 1.2591
358, 3, wb, attraction, a-b-da, 14, 3, 1, 31, 195, 120, 181, 111, 120, 195, 3, 0.511346
358, 3, wb, attraction, a-b-db, 2, 1, 1, 32, 60, 135, 135, 60, 59, 134, 3, 1.40044
358, 3, wb, attraction, a-b-db, 2, 1, 1, 32, 60, 135, 135, 60, 59, 134, 1, 0.647321
358, 3, wb, catch, NA, 999, 999, 1, 33, 133, 62, 148, 107, 135, 180, 1, 0.843046
358, 3, wb, catch, NA, 999, 999, 1, 33, 133, 62, 148, 107, 135, 180, 3, 0.456103
358, 3, wb, filler, NA, 999, 999, 1, 34, 164, 189, 143, 165, 81, 58, 3, 0.547907
358, 3, wb, filler, NA, 999, 999, 1, 34, 164, 189, 143, 165, 81, 58, 1, 0.429153
358, 3, wb, attraction, a-b-db, 5, 2, 1, 35, 165, 90, 88, 161, 90, 165, 2, 3.67351
358, 3, wb, attraction, a-b-db, 5, 2, 1, 35, 165, 90, 88, 161, 90, 165, 3, 0.308308
358, 3, wb, attraction, a-b-db, 14, 3, 1, 36, 120, 195, 195, 120, 111, 181, 3, 1.06955
358, 3, wb, attraction, a-b-db, 14, 3, 1, 36, 120, 195, 195, 120, 111, 181, 1, 1.35391
358, 3, wb, attraction, a-b-da, 5, 2, 1, 37, 161, 88, 165, 90, 90, 165, 1, 1.64933
358, 3, wb, attraction, a-b-da, 5, 2, 1, 37, 161, 88, 165, 90, 90, 165, 3, 0.454115
358, 3, wb, attraction, a-b-db, 9, 3, 2, 1, 120, 195, 114, 186, 195, 120, 2, 1.91392
358, 3, wb, attraction, a-b-db, 9, 3, 2, 1, 120, 195, 114, 186, 195, 120, 3, 1.98791
358, 3, wb, catch, NA, 999, 999, 2, 2, 168, 147, 129, 66, 119, 136, 2, 1.25796
358, 3, wb, catch, NA, 999, 999, 2, 2, 168, 147, 129, 66, 119, 136, 1, 0.5902
358, 3, wb, catch, NA, 999, 999, 2, 3, 74, 121, 168, 147, 134, 121, 1, 0.676003
358, 3, wb, catch, NA, 999, 999, 2, 3, 74, 121, 168, 147, 134, 121, 2, 0.55194
358, 3, wb, attraction, a-b-da, 5, 1, 2, 4, 132, 58, 135, 60, 60, 135, 2, 3.46358
358, 3, wb, attraction, a-b-da, 5, 1, 2, 4, 132, 58, 135, 60, 60, 135, 3, 0.443015
358, 3, wb, catch, NA, 999, 999, 2, 5, 125, 70, 92, 163, 164, 151, 1, 0.510878
358, 3, wb, catch, NA, 999, 999, 2, 5, 125, 70, 92, 163, 164, 151, 3, 0.265491
358, 3, wb, attraction, a-b-db, 9, 2, 2, 6, 165, 90, 90, 165, 86, 157, 3, 0.788597
358, 3, wb, attraction, a-b-db, 9, 2, 2, 6, 165, 90, 90, 165, 86, 157, 1, 0.507588
358, 3, wb, attraction, a-b-db, 5, 1, 2, 7, 135, 60, 58, 132, 60, 135, 3, 0.932722
358, 3, wb, attraction, a-b-db, 5, 1, 2, 7, 135, 60, 58, 132, 60, 135, 1, 1.95037
358, 3, wb, attraction, a-b-db, 5, 2, 2, 8, 88, 161, 90, 165, 165, 90, 1, 0.701627
358, 3, wb, attraction, a-b-db, 5, 2, 2, 8, 88, 161, 90, 165, 165, 90, 3, 0.352768
358, 3, wb, attraction, a-b-da, 5, 2, 2, 9, 165, 90, 161, 88, 90, 165, 2, 1.59279
358, 3, wb, attraction, a-b-da, 5, 2, 2, 9, 165, 90, 161, 88, 90, 165, 3, 0.255406
358, 3, wb, attraction, a-b-db, 2, 1, 2, 10, 60, 135, 135, 60, 59, 134, 3, 3.06732
358, 3, wb, attraction, a-b-db, 2, 1, 2, 10, 60, 135, 135, 60, 59, 134, 1, 0.582947
358, 3, wb, attraction, a-b-da, 5, 3, 2, 11, 120, 195, 190, 117, 195, 120, 2, 2.40549
358, 3, wb, attraction, a-b-da, 5, 3, 2, 11, 120, 195, 190, 117, 195, 120, 1, 0.315325
358, 3, wb, attraction, a-b-da, 2, 2, 2, 12, 90, 165, 165, 90, 163, 89, 2, 2.21245
358, 3, wb, attraction, a-b-da, 2, 2, 2, 12, 90, 165, 165, 90, 163, 89, 1, 0.442447
358, 3, wb, attraction, a-b-db, 14, 1, 2, 13, 135, 60, 60, 135, 56, 125, 3, 0.518165
358, 3, wb, attraction, a-b-db, 14, 1, 2, 13, 135, 60, 60, 135, 56, 125, 1, 0.608691
358, 3, wb, filler, NA, 999, 999, 2, 14, 113, 154, 113, 88, 187, 112, 2, 0.693786
358, 3, wb, filler, NA, 999, 999, 2, 14, 113, 154, 113, 88, 187, 112, 3, 0.248908
358, 3, wb, attraction, a-b-da, 14, 3, 2, 15, 181, 111, 195, 120, 120, 195, 1, 0.66866
358, 3, wb, attraction, a-b-da, 14, 3, 2, 15, 181, 111, 195, 120, 120, 195, 3, 0.265139
358, 3, wb, filler, NA, 999, 999, 2, 16, 96, 121, 186, 103, 151, 60, 3, 2.20437
358, 3, wb, filler, NA, 999, 999, 2, 16, 96, 121, 186, 103, 151, 60, 2, 1.44295
358, 3, wb, filler, NA, 999, 999, 2, 17, 162, 58, 93, 74, 59, 185, 2, 0.814476
358, 3, wb, filler, NA, 999, 999, 2, 17, 162, 58, 93, 74, 59, 185, 3, 0.516905
358, 3, wb, attraction, a-b-da, 14, 2, 2, 18, 153, 83, 90, 165, 165, 90, 1, 1.58993
358, 3, wb, attraction, a-b-da, 14, 2, 2, 18, 153, 83, 90, 165, 165, 90, 3, 0.580757
358, 3, wb, filler, NA, 999, 999, 2, 19, 69, 123, 66, 84, 125, 83, 2, 0.619126
358, 3, wb, filler, NA, 999, 999, 2, 19, 69, 123, 66, 84, 125, 83, 3, 0.449621
358, 3, wb, attraction, a-b-db, 14, 3, 2, 20, 195, 120, 120, 195, 111, 181, 3, 0.733382
358, 3, wb, attraction, a-b-db, 14, 3, 2, 20, 195, 120, 120, 195, 111, 181, 2, 1.00725
358, 3, wb, filler, NA, 999, 999, 2, 21, 98, 60, 148, 190, 175, 192, 1, 0.548202
358, 3, wb, filler, NA, 999, 999, 2, 21, 98, 60, 148, 190, 175, 192, 3, 0.685309
358, 3, wb, attraction, a-b-da, 9, 3, 2, 22, 120, 195, 195, 120, 186, 114, 3, 1.15969
358, 3, wb, attraction, a-b-da, 9, 3, 2, 22, 120, 195, 195, 120, 186, 114, 1, 1.37593
358, 3, wb, attraction, a-b-db, 2, 2, 2, 23, 90, 165, 89, 163, 165, 90, 1, 3.91028
358, 3, wb, attraction, a-b-db, 2, 2, 2, 23, 90, 165, 89, 163, 165, 90, 2, 0.495552
358, 3, wb, attraction, a-b-da, 9, 2, 2, 24, 90, 165, 165, 90, 157, 86, 1, 1.62538
358, 3, wb, attraction, a-b-da, 9, 2, 2, 24, 90, 165, 165, 90, 157, 86, 2, 0.254768
358, 3, wb, filler, NA, 999, 999, 2, 25, 117, 56, 188, 104, 164, 119, 1, 0.954606
358, 3, wb, filler, NA, 999, 999, 2, 25, 117, 56, 188, 104, 164, 119, 2, 0.266971
358, 3, wb, filler, NA, 999, 999, 2, 26, 154, 128, 111, 152, 58, 195, 3, 1.3742
358, 3, wb, filler, NA, 999, 999, 2, 26, 154, 128, 111, 152, 58, 195, 1, 0.4697
358, 3, wb, attraction, a-b-db, 9, 1, 2, 27, 60, 135, 57, 129, 135, 60, 2, 0.864803
358, 3, wb, attraction, a-b-db, 9, 1, 2, 27, 60, 135, 57, 129, 135, 60, 1, 1.29322
358, 3, wb, filler, NA, 999, 999, 2, 28, 109, 188, 137, 134, 107, 119, 3, 0.590915
358, 3, wb, filler, NA, 999, 999, 2, 28, 109, 188, 137, 134, 107, 119, 1, 0.710004
358, 3, wb, attraction, a-b-db, 5, 3, 2, 29, 120, 195, 195, 120, 117, 190, 3, 0.998961
358, 3, wb, attraction, a-b-db, 5, 3, 2, 29, 120, 195, 195, 120, 117, 190, 2, 1.19005
358, 3, wb, filler, NA, 999, 999, 2, 30, 149, 189, 189, 126, 133, 109, 3, 0.508195
358, 3, wb, filler, NA, 999, 999, 2, 30, 149, 189, 189, 126, 133, 109, 1, 0.286619
358, 3, wb, attraction, a-b-db, 14, 2, 2, 31, 165, 90, 83, 153, 90, 165, 2, 0.913231
358, 3, wb, attraction, a-b-db, 14, 2, 2, 31, 165, 90, 83, 153, 90, 165, 3, 0.80352
358, 3, wb, attraction, a-b-da, 2, 3, 2, 32, 193, 119, 120, 195, 195, 120, 1, 1.74524
358, 3, wb, attraction, a-b-da, 2, 3, 2, 32, 193, 119, 120, 195, 195, 120, 2, 0.321919
358, 3, wb, attraction, a-b-da, 9, 1, 2, 33, 60, 135, 135, 60, 129, 57, 3, 1.05113
358, 3, wb, attraction, a-b-da, 9, 1, 2, 33, 60, 135, 135, 60, 129, 57, 1, 0.696197
358, 3, wb, attraction, a-b-da, 14, 1, 2, 34, 135, 60, 60, 135, 125, 56, 3, 0.721884
358, 3, wb, attraction, a-b-da, 14, 1, 2, 34, 135, 60, 60, 135, 125, 56, 1, 0.411582
358, 3, wb, filler, NA, 999, 999, 2, 35, 77, 73, 101, 160, 77, 192, 1, 0.592771
358, 3, wb, filler, NA, 999, 999, 2, 35, 77, 73, 101, 160, 77, 192, 2, 0.247894
358, 3, wb, attraction, a-b-da, 2, 1, 2, 36, 135, 60, 60, 135, 134, 59, 2, 0.587801
358, 3, wb, attraction, a-b-da, 2, 1, 2, 36, 135, 60, 60, 135, 134, 59, 1, 1.28286
358, 3, wb, attraction, a-b-db, 2, 3, 2, 37, 119, 193, 120, 195, 195, 120, 1, 1.06114
358, 3, wb, attraction, a-b-db, 2, 3, 2, 37, 119, 193, 120, 195, 195, 120, 3, 0.41744
358, 3, wb, filler, NA, 999, 999, 3, 1, 141, 193, 66, 107, 76, 119, 2, 0.542568
358, 3, wb, filler, NA, 999, 999, 3, 1, 141, 193, 66, 107, 76, 119, 1, 0.239536
358, 3, wb, filler, NA, 999, 999, 3, 2, 63, 59, 165, 140, 141, 122, 1, 0.564099
358, 3, wb, filler, NA, 999, 999, 3, 2, 63, 59, 165, 140, 141, 122, 2, 0.164617
358, 3, wb, attraction, a-b-da, 5, 3, 3, 3, 190, 117, 195, 120, 120, 195, 3, 0.515895
358, 3, wb, attraction, a-b-da, 5, 3, 3, 3, 190, 117, 195, 120, 120, 195, 2, 0.550375
358, 3, wb, attraction, a-b-db, 5, 3, 3, 4, 117, 190, 120, 195, 195, 120, 1, 2.36621
358, 3, wb, attraction, a-b-db, 5, 3, 3, 4, 117, 190, 120, 195, 195, 120, 3, 0.422112
358, 3, wb, catch, NA, 999, 999, 3, 5, 169, 146, 141, 114, 66, 129, 3, 0.499366
358, 3, wb, catch, NA, 999, 999, 3, 5, 169, 146, 141, 114, 66, 129, 1, 0.518399
358, 3, wb, attraction, a-b-da, 14, 2, 3, 6, 165, 90, 153, 83, 90, 165, 2, 1.07946
358, 3, wb, attraction, a-b-da, 14, 2, 3, 6, 165, 90, 153, 83, 90, 165, 3, 0.683178
358, 3, wb, attraction, a-b-db, 9, 2, 3, 7, 90, 165, 86, 157, 165, 90, 2, 1.38144
358, 3, wb, attraction, a-b-db, 9, 2, 3, 7, 90, 165, 86, 157, 165, 90, 1, 0.324994
358, 3, wb, attraction, a-b-db, 2, 3, 3, 8, 120, 195, 119, 193, 195, 120, 1, 0.853519
358, 3, wb, attraction, a-b-db, 2, 3, 3, 8, 120, 195, 119, 193, 195, 120, 2, 0.914712
358, 3, wb, catch, NA, 999, 999, 3, 9, 124, 131, 79, 116, 145, 170, 2, 0.579636
358, 3, wb, catch, NA, 999, 999, 3, 9, 124, 131, 79, 116, 145, 170, 1, 0.363412
358, 3, wb, filler, NA, 999, 999, 3, 10, 193, 60, 123, 131, 136, 63, 3, 2.09058
358, 3, wb, filler, NA, 999, 999, 3, 10, 193, 60, 123, 131, 136, 63, 2, 2.10925
358, 3, wb, attraction, a-b-da, 9, 2, 3, 11, 165, 90, 90, 165, 157, 86, 3, 1.42192
358, 3, wb, attraction, a-b-da, 9, 2, 3, 11, 165, 90, 90, 165, 157, 86, 2, 0.675253
358, 3, wb, filler, NA, 999, 999, 3, 12, 117, 98, 181, 86, 67, 127, 3, 0.717689
358, 3, wb, filler, NA, 999, 999, 3, 12, 117, 98, 181, 86, 67, 127, 2, 0.952067
358, 3, wb, attraction, a-b-da, 2, 3, 3, 13, 120, 195, 195, 120, 193, 119, 3, 2.08774
358, 3, wb, attraction, a-b-da, 2, 3, 3, 13, 120, 195, 195, 120, 193, 119, 1, 0.939033
358, 3, wb, attraction, a-b-da, 14, 1, 3, 14, 125, 56, 135, 60, 60, 135, 1, 1.41938
358, 3, wb, attraction, a-b-da, 14, 1, 3, 14, 125, 56, 135, 60, 60, 135, 3, 0.841627
358, 3, wb, attraction, a-b-db, 2, 2, 3, 15, 89, 163, 90, 165, 165, 90, 1, 1.50932
358, 3, wb, attraction, a-b-db, 2, 2, 3, 15, 89, 163, 90, 165, 165, 90, 3, 0.703396
358, 3, wb, filler, NA, 999, 999, 3, 16, 168, 108, 195, 188, 100, 109, 3, 0.7932
358, 3, wb, filler, NA, 999, 999, 3, 16, 168, 108, 195, 188, 100, 109, 2, 0.232294
358, 3, wb, filler, NA, 999, 999, 3, 17, 92, 117, 71, 195, 163, 187, 1, 1.05277
358, 3, wb, filler, NA, 999, 999, 3, 17, 92, 117, 71, 195, 163, 187, 3, 0.369677
358, 3, wb, attraction, a-b-da, 5, 2, 3, 18, 165, 90, 90, 165, 161, 88, 3, 2.08105
358, 3, wb, attraction, a-b-da, 5, 2, 3, 18, 165, 90, 90, 165, 161, 88, 2, 0.884186
358, 3, wb, catch, NA, 999, 999, 3, 19, 110, 85, 170, 145, 106, 149, 1, 0.942572
358, 3, wb, catch, NA, 999, 999, 3, 19, 110, 85, 170, 145, 106, 149, 2, 0.247565
358, 3, wb, attraction, a-b-da, 9, 3, 3, 20, 120, 195, 186, 114, 195, 120, 2, 2.69939
358, 3, wb, attraction, a-b-da, 9, 3, 3, 20, 120, 195, 186, 114, 195, 120, 1, 0.509861
358, 3, wb, attraction, a-b-da, 5, 1, 3, 21, 132, 58, 60, 135, 135, 60, 2, 0.822973
358, 3, wb, attraction, a-b-da, 5, 1, 3, 21, 132, 58, 60, 135, 135, 60, 3, 0.860837
358, 3, wb, filler, NA, 999, 999, 3, 22, 117, 134, 158, 65, 77, 90, 3, 0.66372
358, 3, wb, filler, NA, 999, 999, 3, 22, 117, 134, 158, 65, 77, 90, 1, 0.348168
358, 3, wb, filler, NA, 999, 999, 3, 23, 194, 160, 187, 147, 139, 93, 3, 0.660044
358, 3, wb, filler, NA, 999, 999, 3, 23, 194, 160, 187, 147, 139, 93, 1, 1.08045
358, 3, wb, attraction, a-b-db, 5, 2, 3, 24, 88, 161, 90, 165, 165, 90, 1, 0.794717
358, 3, wb, attraction, a-b-db, 5, 2, 3, 24, 88, 161, 90, 165, 165, 90, 3, 0.689703
358, 3, wb, filler, NA, 999, 999, 3, 25, 82, 172, 71, 56, 104, 129, 2, 0.620071
358, 3, wb, filler, NA, 999, 999, 3, 25, 82, 172, 71, 56, 104, 129, 3, 0.290597
358, 3, wb, attraction, a-b-da, 2, 2, 3, 26, 163, 89, 165, 90, 90, 165, 1, 1.68436
358, 3, wb, attraction, a-b-da, 2, 2, 3, 26, 163, 89, 165, 90, 90, 165, 3, 0.839936
358, 3, wb, filler, NA, 999, 999, 3, 27, 66, 73, 169, 116, 124, 62, 1, 0.508181
358, 3, wb, filler, NA, 999, 999, 3, 27, 66, 73, 169, 116, 124, 62, 2, 0.206801
358, 3, wb, attraction, a-b-db, 14, 1, 3, 28, 135, 60, 60, 135, 56, 125, 3, 0.848574
358, 3, wb, attraction, a-b-db, 14, 1, 3, 28, 135, 60, 60, 135, 56, 125, 1, 0.68896
358, 3, wb, attraction, a-b-da, 9, 1, 3, 29, 135, 60, 129, 57, 60, 135, 3, 1.21144
358, 3, wb, attraction, a-b-da, 9, 1, 3, 29, 135, 60, 129, 57, 60, 135, 1, 0.961682
358, 3, wb, attraction, a-b-db, 14, 2, 3, 30, 83, 153, 90, 165, 165, 90, 1, 1.14458
358, 3, wb, attraction, a-b-db, 14, 2, 3, 30, 83, 153, 90, 165, 165, 90, 3, 0.961595
358, 3, wb, attraction, a-b-db, 9, 3, 3, 31, 195, 120, 114, 186, 120, 195, 2, 1.59249
358, 3, wb, attraction, a-b-db, 9, 3, 3, 31, 195, 120, 114, 186, 120, 195, 3, 1.57554
358, 3, wb, attraction, a-b-db, 9, 1, 3, 32, 57, 129, 60, 135, 135, 60, 1, 0.957386
358, 3, wb, attraction, a-b-db, 9, 1, 3, 32, 57, 129, 60, 135, 135, 60, 3, 0.437763
358, 3, wb, attraction, a-b-db, 14, 3, 3, 33, 120, 195, 111, 181, 195, 120, 2, 1.04225
358, 3, wb, attraction, a-b-db, 14, 3, 3, 33, 120, 195, 111, 181, 195, 120, 3, 0.23916
358, 3, wb, attraction, a-b-db, 5, 1, 3, 34, 135, 60, 60, 135, 58, 132, 3, 0.667695
358, 3, wb, attraction, a-b-db, 5, 1, 3, 34, 135, 60, 60, 135, 58, 132, 1, 0.46414
358, 3, wb, attraction, a-b-da, 14, 3, 3, 35, 120, 195, 195, 120, 181, 111, 3, 1.93141
358, 3, wb, attraction, a-b-da, 14, 3, 3, 35, 120, 195, 195, 120, 181, 111, 1, 0.788633
358, 3, wb, attraction, a-b-db, 2, 1, 3, 36, 135, 60, 59, 134, 60, 135, 2, 1.45906
358, 3, wb, attraction, a-b-db, 2, 1, 3, 36, 135, 60, 59, 134, 60, 135, 3, 0.839238
358, 3, wb, attraction, a-b-da, 2, 1, 3, 37, 134, 59, 60, 135, 135, 60, 2, 0.651625
358, 3, wb, attraction, a-b-da, 2, 1, 3, 37, 134, 59, 60, 135, 135, 60, 3, 0.464655
358, 3, wb, filler, NA, 999, 999, 4, 1, 65, 109, 142, 161, 169, 195, 1, 0.443908
358, 3, wb, filler, NA, 999, 999, 4, 1, 65, 109, 142, 161, 169, 195, 3, 0.20899
358, 3, wb, attraction, a-b-da, 14, 2, 4, 2, 153, 83, 165, 90, 90, 165, 3, 0.57433
358, 3, wb, attraction, a-b-da, 14, 2, 4, 2, 153, 83, 165, 90, 90, 165, 2, 0.478071
358, 3, wb, attraction, a-b-da, 14, 1, 4, 3, 125, 56, 135, 60, 60, 135, 3, 0.60862
358, 3, wb, attraction, a-b-da, 14, 1, 4, 3, 125, 56, 135, 60, 60, 135, 2, 0.702975
358, 3, wb, attraction, a-b-db, 5, 1, 4, 4, 60, 135, 135, 60, 58, 132, 3, 0.672605
358, 3, wb, attraction, a-b-db, 5, 1, 4, 4, 60, 135, 135, 60, 58, 132, 2, 0.404331
358, 3, wb, filler, NA, 999, 999, 4, 5, 149, 152, 93, 179, 151, 61, 3, 0.594137
358, 3, wb, filler, NA, 999, 999, 4, 5, 149, 152, 93, 179, 151, 61, 1, 0.321275
358, 3, wb, catch, NA, 999, 999, 4, 6, 186, 129, 137, 118, 132, 63, 3, 0.482433
358, 3, wb, catch, NA, 999, 999, 4, 6, 186, 129, 137, 118, 132, 63, 1, 0.334291
358, 3, wb, catch, NA, 999, 999, 4, 7, 130, 65, 165, 90, 179, 136, 1, 1.21477
358, 3, wb, catch, NA, 999, 999, 4, 7, 130, 65, 165, 90, 179, 136, 3, 0.221074
358, 3, wb, attraction, a-b-db, 14, 3, 4, 8, 111, 181, 195, 120, 120, 195, 3, 1.75436
358, 3, wb, attraction, a-b-db, 14, 3, 4, 8, 111, 181, 195, 120, 120, 195, 2, 1.73111
358, 3, wb, attraction, a-b-db, 2, 3, 4, 9, 195, 120, 119, 193, 120, 195, 1, 1.47511
358, 3, wb, attraction, a-b-db, 2, 3, 4, 9, 195, 120, 119, 193, 120, 195, 3, 0.694752
358, 3, wb, catch, NA, 999, 999, 4, 10, 100, 155, 91, 104, 139, 176, 2, 0.584372
358, 3, wb, catch, NA, 999, 999, 4, 10, 100, 155, 91, 104, 139, 176, 3, 0.305302
358, 3, wb, attraction, a-b-da, 5, 2, 4, 11, 161, 88, 90, 165, 165, 90, 1, 1.49794
358, 3, wb, attraction, a-b-da, 5, 2, 4, 11, 161, 88, 90, 165, 165, 90, 3, 0.493031
358, 3, wb, attraction, a-b-da, 14, 3, 4, 12, 195, 120, 120, 195, 181, 111, 3, 1.22258
358, 3, wb, attraction, a-b-da, 14, 3, 4, 12, 195, 120, 120, 195, 181, 111, 2, 0.508224
358, 3, wb, attraction, a-b-db, 5, 2, 4, 13, 165, 90, 90, 165, 88, 161, 3, 0.597431
358, 3, wb, attraction, a-b-db, 5, 2, 4, 13, 165, 90, 90, 165, 88, 161, 2, 0.652429
358, 3, wb, filler, NA, 999, 999, 4, 14, 102, 195, 122, 129, 174, 180, 2, 1.51224
358, 3, wb, filler, NA, 999, 999, 4, 14, 102, 195, 122, 129, 174, 180, 3, 0.258402
358, 3, wb, attraction, a-b-db, 2, 2, 4, 15, 90, 165, 165, 90, 89, 163, 3, 1.10152
358, 3, wb, attraction, a-b-db, 2, 2, 4, 15, 90, 165, 165, 90, 89, 163, 1, 0.568468
358, 3, wb, filler, NA, 999, 999, 4, 16, 170, 104, 162, 127, 100, 127, 3, 0.415704
358, 3, wb, filler, NA, 999, 999, 4, 16, 170, 104, 162, 127, 100, 127, 2, 0.566326
358, 3, wb, filler, NA, 999, 999, 4, 17, 67, 72, 165, 186, 136, 171, 1, 0.837277
358, 3, wb, filler, NA, 999, 999, 4, 17, 67, 72, 165, 186, 136, 171, 2, 0.20291
358, 3, wb, attraction, a-b-db, 9, 1, 4, 18, 135, 60, 57, 129, 60, 135, 3, 1.41687
358, 3, wb, attraction, a-b-db, 9, 1, 4, 18, 135, 60, 57, 129, 60, 135, 1, 1.03916
358, 3, wb, attraction, a-b-db, 14, 1, 4, 19, 60, 135, 135, 60, 56, 125, 3, 1.03527
358, 3, wb, attraction, a-b-db, 14, 1, 4, 19, 60, 135, 135, 60, 56, 125, 2, 0.624959
358, 3, wb, filler, NA, 999, 999, 4, 20, 76, 156, 97, 82, 154, 181, 2, 1.02938
358, 3, wb, filler, NA, 999, 999, 4, 20, 76, 156, 97, 82, 154, 181, 3, 0.259042
358, 3, wb, attraction, a-b-da, 9, 2, 4, 21, 90, 165, 157, 86, 165, 90, 1, 1.40618
358, 3, wb, attraction, a-b-da, 9, 2, 4, 21, 90, 165, 157, 86, 165, 90, 3, 0.804374
358, 3, wb, attraction, a-b-da, 9, 1, 4, 22, 129, 57, 60, 135, 135, 60, 1, 1.15414
358, 3, wb, attraction, a-b-da, 9, 1, 4, 22, 129, 57, 60, 135, 135, 60, 3, 0.875016
358, 3, wb, attraction, a-b-db, 14, 2, 4, 23, 83, 153, 90, 165, 165, 90, 1, 1.57337
358, 3, wb, attraction, a-b-db, 14, 2, 4, 23, 83, 153, 90, 165, 165, 90, 2, 0.708879
358, 3, wb, attraction, a-b-da, 2, 3, 4, 24, 195, 120, 120, 195, 193, 119, 3, 1.16592
358, 3, wb, attraction, a-b-da, 2, 3, 4, 24, 195, 120, 120, 195, 193, 119, 2, 0.382144
358, 3, wb, filler, NA, 999, 999, 4, 25, 166, 125, 182, 101, 91, 115, 3, 0.708602
358, 3, wb, filler, NA, 999, 999, 4, 25, 166, 125, 182, 101, 91, 115, 1, 0.375166
358, 3, wb, attraction, a-b-db, 9, 2, 4, 26, 165, 90, 86, 157, 90, 165, 1, 2.29355
358, 3, wb, attraction, a-b-db, 9, 2, 4, 26, 165, 90, 86, 157, 90, 165, 3, 0.344246
358, 3, wb, filler, NA, 999, 999, 4, 27, 161, 175, 167, 139, 186, 95, 3, 1.08003
358, 3, wb, filler, NA, 999, 999, 4, 27, 161, 175, 167, 139, 186, 95, 1, 0.315564
358, 3, wb, attraction, a-b-da, 2, 1, 4, 28, 135, 60, 134, 59, 60, 135, 3, 1.11698
358, 3, wb, attraction, a-b-da, 2, 1, 4, 28, 135, 60, 134, 59, 60, 135, 1, 0.815188
358, 3, wb, attraction, a-b-db, 5, 3, 4, 29, 195, 120, 117, 190, 120, 195, 1, 2.79611
358, 3, wb, attraction, a-b-db, 5, 3, 4, 29, 195, 120, 117, 190, 120, 195, 3, 0.56254
358, 3, wb, filler, NA, 999, 999, 4, 30, 145, 72, 97, 194, 92, 62, 3, 0.681613
358, 3, wb, filler, NA, 999, 999, 4, 30, 145, 72, 97, 194, 92, 62, 2, 0.421456
358, 3, wb, filler, NA, 999, 999, 4, 31, 87, 62, 191, 192, 66, 113, 1, 1.41852
358, 3, wb, filler, NA, 999, 999, 4, 31, 87, 62, 191, 192, 66, 113, 2, 0.344714
358, 3, wb, attraction, a-b-db, 2, 1, 4, 32, 135, 60, 59, 134, 60, 135, 2, 1.70474
358, 3, wb, attraction, a-b-db, 2, 1, 4, 32, 135, 60, 59, 134, 60, 135, 3, 0.762658
358, 3, wb, attraction, a-b-da, 5, 3, 4, 33, 120, 195, 190, 117, 195, 120, 1, 1.92968
358, 3, wb, attraction, a-b-da, 5, 3, 4, 33, 120, 195, 190, 117, 195, 120, 3, 1.07537
358, 3, wb, attraction, a-b-db, 9, 3, 4, 34, 195, 120, 120, 195, 114, 186, 3, 0.549385
358, 3, wb, attraction, a-b-db, 9, 3, 4, 34, 195, 120, 120, 195, 114, 186, 2, 0.598621
358, 3, wb, attraction, a-b-da, 5, 1, 4, 35, 132, 58, 60, 135, 135, 60, 2, 0.916302
358, 3, wb, attraction, a-b-da, 5, 1, 4, 35, 132, 58, 60, 135, 135, 60, 3, 0.582744
358, 3, wb, attraction, a-b-da, 2, 2, 4, 36, 90, 165, 163, 89, 165, 90, 2, 2.18906
358, 3, wb, attraction, a-b-da, 2, 2, 4, 36, 90, 165, 163, 89, 165, 90, 3, 1.92366
358, 3, wb, attraction, a-b-da, 9, 3, 4, 37, 120, 195, 186, 114, 195, 120, 2, 1.71631
358, 3, wb, attraction, a-b-da, 9, 3, 4, 37, 120, 195, 186, 114, 195, 120, 3, 0.302413
358, 3, wb, filler, NA, 999, 999, 5, 1, 56, 78, 71, 132, 124, 107, 1, 1.84692
358, 3, wb, filler, NA, 999, 999, 5, 1, 56, 78, 71, 132, 124, 107, 3, 0.691714
358, 3, wb, filler, NA, 999, 999, 5, 2, 56, 60, 150, 112, 183, 82, 1, 1.75741
358, 3, wb, filler, NA, 999, 999, 5, 2, 56, 60, 150, 112, 183, 82, 3, 0.565583
358, 3, wb, catch, NA, 999, 999, 5, 3, 194, 121, 68, 127, 117, 138, 2, 0.66058
358, 3, wb, catch, NA, 999, 999, 5, 3, 194, 121, 68, 127, 117, 138, 1, 0.376948
358, 3, wb, attraction, a-b-da, 2, 1, 5, 4, 135, 60, 134, 59, 60, 135, 3, 1.75944
358, 3, wb, attraction, a-b-da, 2, 1, 5, 4, 135, 60, 134, 59, 60, 135, 2, 0.919673
358, 3, wb, attraction, a-b-da, 5, 2, 5, 5, 161, 88, 90, 165, 165, 90, 1, 5.14462
358, 3, wb, attraction, a-b-da, 5, 2, 5, 5, 161, 88, 90, 165, 165, 90, 3, 0.848313
358, 3, wb, attraction, a-b-db, 14, 3, 5, 6, 195, 120, 120, 195, 111, 181, 3, 0.771912
358, 3, wb, attraction, a-b-db, 14, 3, 5, 6, 195, 120, 120, 195, 111, 181, 2, 0.61971
358, 3, wb, attraction, a-b-db, 2, 2, 5, 7, 90, 165, 165, 90, 89, 163, 1, 0.656669
358, 3, wb, attraction, a-b-db, 2, 2, 5, 7, 90, 165, 165, 90, 89, 163, 3, 0.781185
358, 3, wb, attraction, a-b-da, 2, 3, 5, 8, 193, 119, 195, 120, 120, 195, 1, 0.843552
358, 3, wb, attraction, a-b-da, 2, 3, 5, 8, 193, 119, 195, 120, 120, 195, 3, 0.304693
358, 3, wb, attraction, a-b-da, 9, 3, 5, 9, 120, 195, 195, 120, 186, 114, 1, 2.33049
358, 3, wb, attraction, a-b-da, 9, 3, 5, 9, 120, 195, 195, 120, 186, 114, 2, 0.635764
358, 3, wb, catch, NA, 999, 999, 5, 10, 128, 187, 123, 72, 117, 138, 2, 0.712072
358, 3, wb, catch, NA, 999, 999, 5, 10, 128, 187, 123, 72, 117, 138, 1, 0.250557
358, 3, wb, attraction, a-b-da, 9, 1, 5, 11, 60, 135, 135, 60, 129, 57, 3, 2.91836
358, 3, wb, attraction, a-b-da, 9, 1, 5, 11, 60, 135, 135, 60, 129, 57, 2, 0.336204
358, 3, wb, catch, NA, 999, 999, 5, 12, 173, 142, 125, 130, 96, 99, 3, 0.520594
358, 3, wb, catch, NA, 999, 999, 5, 12, 173, 142, 125, 130, 96, 99, 1, 0.267234
358, 3, wb, attraction, a-b-db, 5, 1, 5, 13, 58, 132, 60, 135, 135, 60, 1, 1.44634
358, 3, wb, attraction, a-b-db, 5, 1, 5, 13, 58, 132, 60, 135, 135, 60, 3, 0.771177
358, 3, wb, attraction, a-b-db, 9, 2, 5, 14, 86, 157, 165, 90, 90, 165, 1, 0.794228
358, 3, wb, attraction, a-b-db, 9, 2, 5, 14, 86, 157, 165, 90, 90, 165, 3, 0.577238
358, 3, wb, attraction, a-b-da, 14, 3, 5, 15, 120, 195, 195, 120, 181, 111, 3, 1.0877
358, 3, wb, attraction, a-b-da, 14, 3, 5, 15, 120, 195, 195, 120, 181, 111, 2, 0.667296
358, 3, wb, attraction, a-b-da, 5, 1, 5, 16, 135, 60, 60, 135, 132, 58, 2, 0.54235
358, 3, wb, attraction, a-b-da, 5, 1, 5, 16, 135, 60, 60, 135, 132, 58, 1, 0.90351
358, 3, wb, filler, NA, 999, 999, 5, 17, 96, 161, 149, 123, 84, 159, 3, 0.785126
358, 3, wb, filler, NA, 999, 999, 5, 17, 96, 161, 149, 123, 84, 159, 2, 0.408864
358, 3, wb, attraction, a-b-db, 2, 3, 5, 18, 119, 193, 120, 195, 195, 120, 1, 1.82205
358, 3, wb, attraction, a-b-db, 2, 3, 5, 18, 119, 193, 120, 195, 195, 120, 2, 1.66761
358, 3, wb, attraction, a-b-da, 9, 2, 5, 19, 157, 86, 165, 90, 90, 165, 2, 0.806203
358, 3, wb, attraction, a-b-da, 9, 2, 5, 19, 157, 86, 165, 90, 90, 165, 3, 0.188567
358, 3, wb, filler, NA, 999, 999, 5, 20, 109, 95, 109, 56, 165, 157, 2, 0.579112
358, 3, wb, filler, NA, 999, 999, 5, 20, 109, 95, 109, 56, 165, 157, 3, 0.218983
358, 3, wb, attraction, a-b-da, 5, 3, 5, 21, 120, 195, 190, 117, 195, 120, 1, 1.15214
358, 3, wb, attraction, a-b-da, 5, 3, 5, 21, 120, 195, 190, 117, 195, 120, 3, 1.19312
358, 3, wb, filler, NA, 999, 999, 5, 22, 91, 148, 89, 96, 159, 121, 2, 0.42258
358, 3, wb, filler, NA, 999, 999, 5, 22, 91, 148, 89, 96, 159, 121, 3, 0.35659
358, 3, wb, attraction, a-b-da, 14, 1, 5, 23, 125, 56, 60, 135, 135, 60, 2, 0.788344
358, 3, wb, attraction, a-b-da, 14, 1, 5, 23, 125, 56, 60, 135, 135, 60, 3, 0.363348
358, 3, wb, attraction, a-b-db, 14, 1, 5, 24, 56, 125, 135, 60, 60, 135, 1, 0.730492
358, 3, wb, attraction, a-b-db, 14, 1, 5, 24, 56, 125, 135, 60, 60, 135, 2, 1.2843
358, 3, wb, filler, NA, 999, 999, 5, 25, 143, 182, 62, 180, 121, 106, 3, 0.982506
358, 3, wb, filler, NA, 999, 999, 5, 25, 143, 182, 62, 180, 121, 106, 1, 0.334168
358, 3, wb, filler, NA, 999, 999, 5, 26, 159, 183, 106, 160, 101, 163, 3, 0.646605
358, 3, wb, filler, NA, 999, 999, 5, 26, 159, 183, 106, 160, 101, 163, 1, 0.339733
358, 3, wb, attraction, a-b-da, 14, 2, 5, 27, 90, 165, 165, 90, 153, 83, 1, 1.84424
358, 3, wb, attraction, a-b-da, 14, 2, 5, 27, 90, 165, 165, 90, 153, 83, 2, 0.385029
358, 3, wb, attraction, a-b-db, 9, 1, 5, 28, 135, 60, 57, 129, 60, 135, 2, 1.23151
358, 3, wb, attraction, a-b-db, 9, 1, 5, 28, 135, 60, 57, 129, 60, 135, 3, 0.445112
358, 3, wb, filler, NA, 999, 999, 5, 29, 87, 65, 107, 191, 123, 156, 1, 0.600882
358, 3, wb, filler, NA, 999, 999, 5, 29, 87, 65, 107, 191, 123, 156, 2, 0.368049
358, 3, wb, attraction, a-b-db, 5, 2, 5, 30, 88, 161, 165, 90, 90, 165, 2, 1.91924
358, 3, wb, attraction, a-b-db, 5, 2, 5, 30, 88, 161, 165, 90, 90, 165, 3, 0.377297
358, 3, wb, attraction, a-b-da, 2, 2, 5, 31, 90, 165, 163, 89, 165, 90, 1, 1.09568
358, 3, wb, attraction, a-b-da, 2, 2, 5, 31, 90, 165, 163, 89, 165, 90, 2, 0.234864
358, 3, wb, attraction, a-b-db, 14, 2, 5, 32, 90, 165, 83, 153, 165, 90, 2, 0.575208
358, 3, wb, attraction, a-b-db, 14, 2, 5, 32, 90, 165, 83, 153, 165, 90, 3, 0.391023
358, 3, wb, attraction, a-b-db, 9, 3, 5, 33, 195, 120, 120, 195, 114, 186, 3, 0.53274
358, 3, wb, attraction, a-b-db, 9, 3, 5, 33, 195, 120, 120, 195, 114, 186, 1, 0.582655
358, 3, wb, attraction, a-b-db, 2, 1, 5, 34, 59, 134, 60, 135, 135, 60, 2, 0.741019
358, 3, wb, attraction, a-b-db, 2, 1, 5, 34, 59, 134, 60, 135, 135, 60, 3, 0.42228
358, 3, wb, filler, NA, 999, 999, 5, 35, 130, 133, 68, 127, 111, 144, 2, 0.459241
358, 3, wb, filler, NA, 999, 999, 5, 35, 130, 133, 68, 127, 111, 144, 1, 0.247749
358, 3, wb, attraction, a-b-db, 5, 3, 5, 36, 117, 190, 120, 195, 195, 120, 1, 1.06765
358, 3, wb, attraction, a-b-db, 5, 3, 5, 36, 117, 190, 120, 195, 195, 120, 3, 0.495932
358, 3, wb, filler, NA, 999, 999, 5, 37, 173, 151, 167, 185, 185, 157, 1, 0.553679
358, 3, wb, filler, NA, 999, 999, 5, 37, 173, 151, 167, 185, 185, 157, 2, 0.970874
358, 3, wb, filler, NA, 999, 999, 6, 1, 119, 160, 71, 172, 137, 184, 2, 0.593789
358, 3, wb, filler, NA, 999, 999, 6, 1, 119, 160, 71, 172, 137, 184, 3, 0.264925
358, 3, wb, attraction, a-b-db, 9, 2, 6, 2, 86, 157, 165, 90, 90, 165, 1, 0.764126
358, 3, wb, attraction, a-b-db, 9, 2, 6, 2, 86, 157, 165, 90, 90, 165, 2, 0.564592
358, 3, wb, attraction, a-b-db, 2, 2, 6, 3, 90, 165, 165, 90, 89, 163, 3, 1.02759
358, 3, wb, attraction, a-b-db, 2, 2, 6, 3, 90, 165, 165, 90, 89, 163, 2, 0.409379
358, 3, wb, attraction, a-b-db, 9, 3, 6, 4, 114, 186, 120, 195, 195, 120, 1, 1.09447
358, 3, wb, attraction, a-b-db, 9, 3, 6, 4, 114, 186, 120, 195, 195, 120, 3, 0.777414
358, 3, wb, attraction, a-b-db, 14, 2, 6, 5, 90, 165, 165, 90, 83, 153, 3, 0.871884
358, 3, wb, attraction, a-b-db, 14, 2, 6, 5, 90, 165, 165, 90, 83, 153, 1, 1.34749
358, 3, wb, attraction, a-b-db, 5, 1, 6, 6, 58, 132, 135, 60, 60, 135, 1, 0.739072
358, 3, wb, attraction, a-b-db, 5, 1, 6, 6, 58, 132, 135, 60, 60, 135, 2, 0.436141
358, 3, wb, attraction, a-b-da, 9, 2, 6, 7, 90, 165, 165, 90, 157, 86, 1, 1.9605
358, 3, wb, attraction, a-b-da, 9, 2, 6, 7, 90, 165, 165, 90, 157, 86, 2, 0.64857
358, 3, wb, filler, NA, 999, 999, 6, 8, 76, 169, 136, 192, 175, 195, 1, 0.756295
358, 3, wb, filler, NA, 999, 999, 6, 8, 76, 169, 136, 192, 175, 195, 3, 0.564726
358, 3, wb, filler, NA, 999, 999, 6, 9, 94, 142, 167, 104, 166, 148, 1, 0.699833
358, 3, wb, filler, NA, 999, 999, 6, 9, 94, 142, 167, 104, 166, 148, 3, 0.59885
358, 3, wb, attraction, a-b-da, 14, 2, 6, 10, 165, 90, 153, 83, 90, 165, 2, 1.02069
358, 3, wb, attraction, a-b-da, 14, 2, 6, 10, 165, 90, 153, 83, 90, 165, 3, 0.635071
358, 3, wb, attraction, a-b-da, 2, 2, 6, 11, 163, 89, 165, 90, 90, 165, 1, 1.12727
358, 3, wb, attraction, a-b-da, 2, 2, 6, 11, 163, 89, 165, 90, 90, 165, 3, 0.937125
358, 3, wb, attraction, a-b-db, 5, 3, 6, 12, 195, 120, 117, 190, 120, 195, 2, 1.08125
358, 3, wb, attraction, a-b-db, 5, 3, 6, 12, 195, 120, 117, 190, 120, 195, 3, 1.69298
358, 3, wb, attraction, a-b-db, 14, 1, 6, 13, 60, 135, 135, 60, 56, 125, 3, 1.13436
358, 3, wb, attraction, a-b-db, 14, 1, 6, 13, 60, 135, 135, 60, 56, 125, 2, 1.24803
358, 3, wb, attraction, a-b-da, 5, 1, 6, 14, 135, 60, 132, 58, 60, 135, 3, 0.955542
358, 3, wb, attraction, a-b-da, 5, 1, 6, 14, 135, 60, 132, 58, 60, 135, 2, 0.715919
358, 3, wb, attraction, a-b-da, 9, 1, 6, 15, 129, 57, 60, 135, 135, 60, 1, 1.02091
358, 3, wb, attraction, a-b-da, 9, 1, 6, 15, 129, 57, 60, 135, 135, 60, 3, 0.923239
358, 3, wb, filler, NA, 999, 999, 6, 16, 139, 161, 132, 67, 86, 117, 3, 0.660182
358, 3, wb, filler, NA, 999, 999, 6, 16, 139, 161, 132, 67, 86, 117, 1, 0.288574
358, 3, wb, filler, NA, 999, 999, 6, 17, 108, 68, 151, 66, 93, 150, 1, 0.6991
358, 3, wb, filler, NA, 999, 999, 6, 17, 108, 68, 151, 66, 93, 150, 3, 0.254321
358, 3, wb, attraction, a-b-db, 9, 1, 6, 18, 60, 135, 135, 60, 57, 129, 3, 0.602084
358, 3, wb, attraction, a-b-db, 9, 1, 6, 18, 60, 135, 135, 60, 57, 129, 1, 0.72128
358, 3, wb, attraction, a-b-db, 2, 3, 6, 19, 120, 195, 119, 193, 195, 120, 3, 1.01032
358, 3, wb, attraction, a-b-db, 2, 3, 6, 19, 120, 195, 119, 193, 195, 120, 2, 0.272612
358, 3, wb, filler, NA, 999, 999, 6, 20, 184, 56, 147, 107, 106, 152, 1, 0.647993
358, 3, wb, filler, NA, 999, 999, 6, 20, 184, 56, 147, 107, 106, 152, 3, 0.377063
358, 3, wb, filler, NA, 999, 999, 6, 21, 132, 126, 122, 106, 159, 148, 2, 0.511319
358, 3, wb, filler, NA, 999, 999, 6, 21, 132, 126, 122, 106, 159, 148, 3, 0.889884
358, 3, wb, attraction, a-b-db, 5, 2, 6, 22, 88, 161, 90, 165, 165, 90, 1, 2.91625
358, 3, wb, attraction, a-b-db, 5, 2, 6, 22, 88, 161, 90, 165, 165, 90, 3, 0.485986
358, 3, wb, attraction, a-b-db, 14, 3, 6, 23, 195, 120, 120, 195, 111, 181, 3, 0.672482
358, 3, wb, attraction, a-b-db, 14, 3, 6, 23, 195, 120, 120, 195, 111, 181, 1, 1.06022
358, 3, wb, attraction, a-b-da, 2, 3, 6, 24, 195, 120, 120, 195, 193, 119, 3, 1.07913
358, 3, wb, attraction, a-b-da, 2, 3, 6, 24, 195, 120, 120, 195, 193, 119, 2, 0.386798
358, 3, wb, attraction, a-b-da, 5, 3, 6, 25, 120, 195, 195, 120, 190, 117, 3, 1.04927
358, 3, wb, attraction, a-b-da, 5, 3, 6, 25, 120, 195, 195, 120, 190, 117, 2, 0.366432
358, 3, wb, catch, NA, 999, 999, 6, 26, 161, 154, 90, 165, 106, 89, 3, 0.533374
358, 3, wb, catch, NA, 999, 999, 6, 26, 161, 154, 90, 165, 106, 89, 1, 0.359287
358, 3, wb, filler, NA, 999, 999, 6, 27, 170, 153, 154, 105, 186, 150, 2, 0.566286
358, 3, wb, filler, NA, 999, 999, 6, 27, 170, 153, 154, 105, 186, 150, 3, 0.318815
358, 3, wb, attraction, a-b-da, 14, 1, 6, 28, 125, 56, 60, 135, 135, 60, 1, 0.616006
358, 3, wb, attraction, a-b-da, 14, 1, 6, 28, 125, 56, 60, 135, 135, 60, 3, 1.15847
358, 3, wb, filler, NA, 999, 999, 6, 29, 131, 129, 175, 123, 119, 194, 1, 0.573348
358, 3, wb, filler, NA, 999, 999, 6, 29, 131, 129, 175, 123, 119, 194, 3, 0.693079
358, 3, wb, filler, NA, 999, 999, 6, 30, 79, 96, 158, 63, 161, 116, 1, 0.630823
358, 3, wb, filler, NA, 999, 999, 6, 30, 79, 96, 158, 63, 161, 116, 3, 0.716677
358, 3, wb, catch, NA, 999, 999, 6, 31, 114, 81, 146, 169, 107, 148, 1, 1.06963
358, 3, wb, catch, NA, 999, 999, 6, 31, 114, 81, 146, 169, 107, 148, 2, 0.234016
358, 3, wb, attraction, a-b-da, 14, 3, 6, 32, 181, 111, 120, 195, 195, 120, 1, 1.2226
358, 3, wb, attraction, a-b-da, 14, 3, 6, 32, 181, 111, 120, 195, 195, 120, 3, 1.54021
358, 3, wb, catch, NA, 999, 999, 6, 33, 170, 145, 102, 93, 95, 160, 2, 0.540321
358, 3, wb, catch, NA, 999, 999, 6, 33, 170, 145, 102, 93, 95, 160, 1, 0.277415
358, 3, wb, attraction, a-b-db, 2, 1, 6, 34, 135, 60, 59, 134, 60, 135, 3, 2.88797
358, 3, wb, attraction, a-b-db, 2, 1, 6, 34, 135, 60, 59, 134, 60, 135, 1, 1.10707
358, 3, wb, attraction, a-b-da, 2, 1, 6, 35, 134, 59, 60, 135, 135, 60, 2, 1.16387
358, 3, wb, attraction, a-b-da, 2, 1, 6, 35, 134, 59, 60, 135, 135, 60, 1, 2.84419
358, 3, wb, attraction, a-b-da, 9, 3, 6, 36, 120, 195, 186, 114, 195, 120, 2, 1.20721
358, 3, wb, attraction, a-b-da, 9, 3, 6, 36, 120, 195, 186, 114, 195, 120, 3, 2.04553
358, 3, wb, attraction, a-b-da, 5, 2, 6, 37, 90, 165, 161, 88, 165, 90, 2, 1.08875
358, 3, wb, attraction, a-b-da, 5, 2, 6, 37, 90, 165, 161, 88, 165, 90, 3, 1.01172
358, 3, wb, attraction, a-b-db, 2, 2, 7, 1, 165, 90, 90, 165, 89, 163, 3, 2.92067
358, 3, wb, attraction, a-b-db, 2, 2, 7, 1, 165, 90, 90, 165, 89, 163, 1, 1.00246
358, 3, wb, filler, NA, 999, 999, 7, 2, 59, 109, 85, 60, 72, 73, 2, 3.92813
358, 3, wb, filler, NA, 999, 999, 7, 2, 59, 109, 85, 60, 72, 73, 3, 0.944836
358, 3, wb, attraction, a-b-da, 2, 1, 7, 3, 60, 135, 134, 59, 135, 60, 1, 3.56847
358, 3, wb, attraction, a-b-da, 2, 1, 7, 3, 60, 135, 134, 59, 135, 60, 3, 0.728042
358, 3, wb, attraction, a-b-da, 14, 2, 7, 4, 165, 90, 90, 165, 153, 83, 3, 0.824338
358, 3, wb, attraction, a-b-da, 14, 2, 7, 4, 165, 90, 90, 165, 153, 83, 2, 2.04608
358, 3, wb, attraction, a-b-db, 14, 3, 7, 5, 195, 120, 111, 181, 120, 195, 2, 1.14546
358, 3, wb, attraction, a-b-db, 14, 3, 7, 5, 195, 120, 111, 181, 120, 195, 3, 0.698532
358, 3, wb, attraction, a-b-db, 14, 2, 7, 6, 83, 153, 165, 90, 90, 165, 1, 1.18003
358, 3, wb, attraction, a-b-db, 14, 2, 7, 6, 83, 153, 165, 90, 90, 165, 3, 2.15576
358, 3, wb, filler, NA, 999, 999, 7, 7, 173, 178, 103, 188, 177, 138, 2, 1.45897
358, 3, wb, filler, NA, 999, 999, 7, 7, 173, 178, 103, 188, 177, 138, 1, 0.295265
358, 3, wb, attraction, a-b-db, 9, 2, 7, 8, 90, 165, 86, 157, 165, 90, 2, 2.26496
358, 3, wb, attraction, a-b-db, 9, 2, 7, 8, 90, 165, 86, 157, 165, 90, 3, 0.796912
358, 3, wb, attraction, a-b-da, 2, 2, 7, 9, 90, 165, 163, 89, 165, 90, 1, 0.802547
358, 3, wb, attraction, a-b-da, 2, 2, 7, 9, 90, 165, 163, 89, 165, 90, 3, 1.08161
358, 3, wb, attraction, a-b-db, 5, 3, 7, 10, 195, 120, 120, 195, 117, 190, 1, 1.85206
358, 3, wb, attraction, a-b-db, 5, 3, 7, 10, 195, 120, 120, 195, 117, 190, 2, 1.09676
358, 3, wb, filler, NA, 999, 999, 7, 11, 69, 180, 92, 59, 120, 193, 2, 0.586193
358, 3, wb, filler, NA, 999, 999, 7, 11, 69, 180, 92, 59, 120, 193, 3, 0.194061
358, 3, wb, attraction, a-b-db, 2, 3, 7, 12, 120, 195, 119, 193, 195, 120, 2, 2.07999
358, 3, wb, attraction, a-b-db, 2, 3, 7, 12, 120, 195, 119, 193, 195, 120, 3, 0.363216
358, 3, wb, attraction, a-b-db, 9, 1, 7, 13, 60, 135, 135, 60, 57, 129, 3, 0.890456
358, 3, wb, attraction, a-b-db, 9, 1, 7, 13, 60, 135, 135, 60, 57, 129, 2, 0.517488
358, 3, wb, attraction, a-b-da, 9, 2, 7, 14, 90, 165, 165, 90, 157, 86, 3, 1.35048
358, 3, wb, attraction, a-b-da, 9, 2, 7, 14, 90, 165, 165, 90, 157, 86, 2, 0.703404
358, 3, wb, filler, NA, 999, 999, 7, 15, 126, 145, 179, 124, 178, 194, 1, 0.561314
358, 3, wb, filler, NA, 999, 999, 7, 15, 126, 145, 179, 124, 178, 194, 3, 0.265633
358, 3, wb, filler, NA, 999, 999, 7, 16, 111, 105, 94, 62, 153, 136, 2, 0.708745
358, 3, wb, filler, NA, 999, 999, 7, 16, 111, 105, 94, 62, 153, 136, 3, 0.231195
358, 3, wb, filler, NA, 999, 999, 7, 17, 160, 191, 97, 169, 157, 171, 2, 0.731817
358, 3, wb, filler, NA, 999, 999, 7, 17, 160, 191, 97, 169, 157, 171, 1, 0.317566
358, 3, wb, attraction, a-b-da, 5, 3, 7, 18, 195, 120, 120, 195, 190, 117, 3, 0.998647
358, 3, wb, attraction, a-b-da, 5, 3, 7, 18, 195, 120, 120, 195, 190, 117, 2, 0.405698
358, 3, wb, attraction, a-b-da, 9, 1, 7, 19, 135, 60, 129, 57, 60, 135, 1, 2.35554
358, 3, wb, attraction, a-b-da, 9, 1, 7, 19, 135, 60, 129, 57, 60, 135, 3, 0.66735
358, 3, wb, catch, NA, 999, 999, 7, 20, 144, 111, 181, 134, 99, 96, 3, 1.19044
358, 3, wb, catch, NA, 999, 999, 7, 20, 144, 111, 181, 134, 99, 96, 2, 0.189352
358, 3, wb, attraction, a-b-db, 9, 3, 7, 21, 114, 186, 120, 195, 195, 120, 1, 1.53199
358, 3, wb, attraction, a-b-db, 9, 3, 7, 21, 114, 186, 120, 195, 195, 120, 3, 0.821441
358, 3, wb, attraction, a-b-da, 9, 3, 7, 22, 120, 195, 195, 120, 186, 114, 3, 0.858466
358, 3, wb, attraction, a-b-da, 9, 3, 7, 22, 120, 195, 195, 120, 186, 114, 2, 1.23894
358, 3, wb, attraction, a-b-db, 2, 1, 7, 23, 60, 135, 59, 134, 135, 60, 2, 0.843159
358, 3, wb, attraction, a-b-db, 2, 1, 7, 23, 60, 135, 59, 134, 135, 60, 3, 1.16817
358, 3, wb, catch, NA, 999, 999, 7, 24, 126, 129, 130, 185, 111, 84, 3, 0.879006
358, 3, wb, catch, NA, 999, 999, 7, 24, 126, 129, 130, 185, 111, 84, 2, 0.322692
358, 3, wb, attraction, a-b-db, 14, 1, 7, 25, 135, 60, 56, 125, 60, 135, 2, 0.931937
358, 3, wb, attraction, a-b-db, 14, 1, 7, 25, 135, 60, 56, 125, 60, 135, 3, 0.493585
358, 3, wb, attraction, a-b-db, 5, 2, 7, 26, 165, 90, 88, 161, 90, 165, 2, 1.63931
358, 3, wb, attraction, a-b-db, 5, 2, 7, 26, 165, 90, 88, 161, 90, 165, 3, 0.700144
358, 3, wb, attraction, a-b-da, 5, 1, 7, 27, 132, 58, 60, 135, 135, 60, 1, 0.893966
358, 3, wb, attraction, a-b-da, 5, 1, 7, 27, 132, 58, 60, 135, 135, 60, 3, 0.568853
358, 3, wb, filler, NA, 999, 999, 7, 28, 173, 138, 92, 139, 164, 63, 2, 0.623984
358, 3, wb, filler, NA, 999, 999, 7, 28, 173, 138, 92, 139, 164, 63, 1, 0.293784
358, 3, wb, filler, NA, 999, 999, 7, 29, 138, 75, 87, 92, 166, 88, 2, 0.43967
358, 3, wb, filler, NA, 999, 999, 7, 29, 138, 75, 87, 92, 166, 88, 3, 0.292878
358, 3, wb, attraction, a-b-da, 14, 3, 7, 30, 120, 195, 181, 111, 195, 120, 2, 2.86262
358, 3, wb, attraction, a-b-da, 14, 3, 7, 30, 120, 195, 181, 111, 195, 120, 1, 0.538603
358, 3, wb, attraction, a-b-da, 14, 1, 7, 31, 60, 135, 135, 60, 125, 56, 3, 1.25086
358, 3, wb, attraction, a-b-da, 14, 1, 7, 31, 60, 135, 135, 60, 125, 56, 2, 0.327643
358, 3, wb, attraction, a-b-da, 5, 2, 7, 32, 165, 90, 90, 165, 161, 88, 3, 0.744249
358, 3, wb, attraction, a-b-da, 5, 2, 7, 32, 165, 90, 90, 165, 161, 88, 2, 0.841341
358, 3, wb, filler, NA, 999, 999, 7, 33, 72, 171, 195, 88, 80, 121, 3, 0.501047
358, 3, wb, filler, NA, 999, 999, 7, 33, 72, 171, 195, 88, 80, 121, 2, 0.584164
358, 3, wb, filler, NA, 999, 999, 7, 34, 112, 132, 194, 174, 159, 159, 1, 0.662569
358, 3, wb, filler, NA, 999, 999, 7, 34, 112, 132, 194, 174, 159, 159, 2, 0.443
358, 3, wb, attraction, a-b-da, 2, 3, 7, 35, 120, 195, 193, 119, 195, 120, 2, 0.942801
358, 3, wb, attraction, a-b-da, 2, 3, 7, 35, 120, 195, 193, 119, 195, 120, 1, 1.19196
358, 3, wb, attraction, a-b-db, 5, 1, 7, 36, 135, 60, 60, 135, 58, 132, 3, 0.893354
358, 3, wb, attraction, a-b-db, 5, 1, 7, 36, 135, 60, 60, 135, 58, 132, 2, 0.800356
358, 3, wb, catch, NA, 999, 999, 7, 37, 171, 144, 129, 66, 111, 144, 2, 0.510225
358, 3, wb, catch, NA, 999, 999, 7, 37, 171, 144, 129, 66, 111, 144, 1, 0.216557
358, 3, wb, attraction, a-b-db, 9, 2, 8, 1, 90, 165, 165, 90, 86, 157, 3, 0.949803
358, 3, wb, attraction, a-b-db, 9, 2, 8, 1, 90, 165, 165, 90, 86, 157, 2, 0.478799
358, 3, wb, catch, NA, 999, 999, 8, 2, 173, 142, 90, 165, 124, 71, 3, 0.737223
358, 3, wb, catch, NA, 999, 999, 8, 2, 173, 142, 90, 165, 124, 71, 1, 0.339
358, 3, wb, attraction, a-b-da, 2, 3, 8, 3, 193, 119, 195, 120, 120, 195, 1, 1.93962
358, 3, wb, attraction, a-b-da, 2, 3, 8, 3, 193, 119, 195, 120, 120, 195, 3, 0.396319
358, 3, wb, attraction, a-b-db, 5, 3, 8, 4, 117, 190, 120, 195, 195, 120, 1, 2.94607
358, 3, wb, attraction, a-b-db, 5, 3, 8, 4, 117, 190, 120, 195, 195, 120, 3, 0.658549
358, 3, wb, attraction, a-b-da, 5, 3, 8, 5, 195, 120, 120, 195, 190, 117, 3, 1.10154
358, 3, wb, attraction, a-b-da, 5, 3, 8, 5, 195, 120, 120, 195, 190, 117, 1, 1.05643
358, 3, wb, catch, NA, 999, 999, 8, 6, 111, 84, 148, 107, 131, 184, 1, 0.731998
358, 3, wb, catch, NA, 999, 999, 8, 6, 111, 84, 148, 107, 131, 184, 3, 0.245805
358, 3, wb, attraction, a-b-db, 2, 3, 8, 7, 120, 195, 195, 120, 119, 193, 3, 1.00963
358, 3, wb, attraction, a-b-db, 2, 3, 8, 7, 120, 195, 195, 120, 119, 193, 2, 1.07207
358, 3, wb, attraction, a-b-db, 5, 2, 8, 8, 88, 161, 90, 165, 165, 90, 1, 1.03495
358, 3, wb, attraction, a-b-db, 5, 2, 8, 8, 88, 161, 90, 165, 165, 90, 3, 0.40853
358, 3, wb, attraction, a-b-db, 2, 2, 8, 9, 90, 165, 165, 90, 89, 163, 3, 0.90971
358, 3, wb, attraction, a-b-db, 2, 2, 8, 9, 90, 165, 165, 90, 89, 163, 1, 0.808041
358, 3, wb, filler, NA, 999, 999, 8, 10, 111, 72, 195, 133, 160, 63, 1, 0.677112
358, 3, wb, filler, NA, 999, 999, 8, 10, 111, 72, 195, 133, 160, 63, 2, 0.296851
358, 3, wb, filler, NA, 999, 999, 8, 11, 74, 80, 119, 92, 59, 118, 1, 0.530679
358, 3, wb, filler, NA, 999, 999, 8, 11, 74, 80, 119, 92, 59, 118, 2, 0.276506
358, 3, wb, attraction, a-b-da, 9, 3, 8, 12, 120, 195, 195, 120, 186, 114, 3, 1.99906
358, 3, wb, attraction, a-b-da, 9, 3, 8, 12, 120, 195, 195, 120, 186, 114, 1, 0.493748
358, 3, wb, attraction, a-b-db, 14, 3, 8, 13, 195, 120, 111, 181, 120, 195, 2, 0.543428
358, 3, wb, attraction, a-b-db, 14, 3, 8, 13, 195, 120, 111, 181, 120, 195, 3, 0.296765
358, 3, wb, filler, NA, 999, 999, 8, 14, 91, 65, 88, 109, 162, 58, 1, 0.922525
358, 3, wb, filler, NA, 999, 999, 8, 14, 91, 65, 88, 109, 162, 58, 3, 0.396273
358, 3, wb, attraction, a-b-db, 14, 1, 8, 15, 60, 135, 135, 60, 56, 125, 3, 0.785975
358, 3, wb, attraction, a-b-db, 14, 1, 8, 15, 60, 135, 135, 60, 56, 125, 2, 0.345769
358, 3, wb, filler, NA, 999, 999, 8, 16, 154, 113, 144, 186, 65, 72, 3, 0.649574
358, 3, wb, filler, NA, 999, 999, 8, 16, 154, 113, 144, 186, 65, 72, 2, 0.270736
358, 3, wb, filler, NA, 999, 999, 8, 17, 193, 160, 184, 117, 57, 64, 3, 0.673893
358, 3, wb, filler, NA, 999, 999, 8, 17, 193, 160, 184, 117, 57, 64, 1, 0.301708
358, 3, wb, attraction, a-b-da, 14, 2, 8, 18, 165, 90, 90, 165, 153, 83, 3, 0.983452
358, 3, wb, attraction, a-b-da, 14, 2, 8, 18, 165, 90, 90, 165, 153, 83, 1, 0.431125
358, 3, wb, attraction, a-b-da, 9, 2, 8, 19, 165, 90, 90, 165, 157, 86, 3, 0.5316
358, 3, wb, attraction, a-b-da, 9, 2, 8, 19, 165, 90, 90, 165, 157, 86, 1, 0.541394
358, 3, wb, attraction, a-b-da, 2, 1, 8, 20, 135, 60, 134, 59, 60, 135, 3, 0.533198
358, 3, wb, attraction, a-b-da, 2, 1, 8, 20, 135, 60, 134, 59, 60, 135, 1, 1.06309
358, 3, wb, attraction, a-b-db, 9, 3, 8, 21, 120, 195, 114, 186, 195, 120, 2, 0.745941
358, 3, wb, attraction, a-b-db, 9, 3, 8, 21, 120, 195, 114, 186, 195, 120, 1, 0.667067
358, 3, wb, filler, NA, 999, 999, 8, 22, 115, 172, 187, 144, 128, 95, 3, 0.438075
358, 3, wb, filler, NA, 999, 999, 8, 22, 115, 172, 187, 144, 128, 95, 2, 0.25998
358, 3, wb, attraction, a-b-da, 5, 1, 8, 23, 60, 135, 135, 60, 132, 58, 3, 1.35114
358, 3, wb, attraction, a-b-da, 5, 1, 8, 23, 60, 135, 135, 60, 132, 58, 2, 0.831937
358, 3, wb, catch, NA, 999, 999, 8, 24, 67, 128, 118, 137, 123, 192, 1, 0.516268
358, 3, wb, catch, NA, 999, 999, 8, 24, 67, 128, 118, 137, 123, 192, 3, 0.222936
358, 3, wb, attraction, a-b-da, 5, 2, 8, 25, 161, 88, 90, 165, 165, 90, 2, 0.483955
358, 3, wb, attraction, a-b-da, 5, 2, 8, 25, 161, 88, 90, 165, 165, 90, 3, 1.46394
358, 3, wb, attraction, a-b-db, 9, 1, 8, 26, 57, 129, 135, 60, 60, 135, 1, 1.21878
358, 3, wb, attraction, a-b-db, 9, 1, 8, 26, 57, 129, 135, 60, 60, 135, 3, 0.824971
358, 3, wb, filler, NA, 999, 999, 8, 27, 189, 65, 169, 127, 81, 140, 3, 0.517236
358, 3, wb, filler, NA, 999, 999, 8, 27, 189, 65, 169, 127, 81, 140, 2, 0.231796
358, 3, wb, attraction, a-b-da, 2, 2, 8, 28, 90, 165, 165, 90, 163, 89, 2, 1.54042
358, 3, wb, attraction, a-b-da, 2, 2, 8, 28, 90, 165, 165, 90, 163, 89, 3, 0.653129
358, 3, wb, filler, NA, 999, 999, 8, 29, 192, 182, 84, 109, 131, 104, 2, 0.784955
358, 3, wb, filler, NA, 999, 999, 8, 29, 192, 182, 84, 109, 131, 104, 1, 0.552669
358, 3, wb, filler, NA, 999, 999, 8, 30, 62, 184, 179, 71, 161, 171, 1, 0.904394
358, 3, wb, filler, NA, 999, 999, 8, 30, 62, 184, 179, 71, 161, 171, 3, 0.33138
358, 3, wb, attraction, a-b-da, 14, 1, 8, 31, 135, 60, 125, 56, 60, 135, 2, 1.44392
358, 3, wb, attraction, a-b-da, 14, 1, 8, 31, 135, 60, 125, 56, 60, 135, 3, 1.32872
358, 3, wb, attraction, a-b-db, 14, 2, 8, 32, 83, 153, 165, 90, 90, 165, 1, 1.51297
358, 3, wb, attraction, a-b-db, 14, 2, 8, 32, 83, 153, 165, 90, 90, 165, 3, 0.371072
358, 3, wb, attraction, a-b-db, 2, 1, 8, 33, 135, 60, 59, 134, 60, 135, 2, 1.71441
358, 3, wb, attraction, a-b-db, 2, 1, 8, 33, 135, 60, 59, 134, 60, 135, 3, 0.420407
358, 3, wb, attraction, a-b-da, 9, 1, 8, 34, 60, 135, 135, 60, 129, 57, 3, 2.47355
358, 3, wb, attraction, a-b-da, 9, 1, 8, 34, 60, 135, 135, 60, 129, 57, 2, 0.73285
358, 3, wb, filler, NA, 999, 999, 8, 35, 104, 153, 191, 168, 126, 162, 1, 0.565134
358, 3, wb, filler, NA, 999, 999, 8, 35, 104, 153, 191, 168, 126, 162, 2, 0.213599
358, 3, wb, attraction, a-b-db, 5, 1, 8, 36, 135, 60, 60, 135, 58, 132, 3, 0.522818
358, 3, wb, attraction, a-b-db, 5, 1, 8, 36, 135, 60, 60, 135, 58, 132, 1, 0.412668
358, 3, wb, attraction, a-b-da, 14, 3, 8, 37, 120, 195, 181, 111, 195, 120, 2, 1.04171
358, 3, wb, attraction, a-b-da, 14, 3, 8, 37, 120, 195, 181, 111, 195, 120, 1, 0.270666
