sub_n, computer_n, bw_cond, effect, set, distance, diag, block_n, trial_n, h1, w1, h2, w2, h3, w3, choice, rt 
380, 3, wb, practice, NA, 999, 999, 0, 1, 69, 131, 111, 91, 62, 170, 3, 7.74466
380, 3, wb, practice, NA, 999, 999, 0, 1, 69, 131, 111, 91, 62, 170, 2, 2.99071
380, 3, wb, practice, NA, 999, 999, 0, 2, 85, 155, 163, 160, 176, 122, 1, 4.83374
380, 3, wb, practice, NA, 999, 999, 0, 2, 85, 155, 163, 160, 176, 122, 2, 1.42085
380, 3, wb, practice, NA, 999, 999, 0, 3, 70, 136, 134, 172, 70, 117, 3, 9.10388
380, 3, wb, practice, NA, 999, 999, 0, 3, 70, 136, 134, 172, 70, 117, 2, 1.29444
380, 3, wb, attraction, a-b-da, 14, 3, 1, 1, 120, 195, 181, 111, 195, 120, 1, 1.96943
380, 3, wb, attraction, a-b-da, 14, 3, 1, 1, 120, 195, 181, 111, 195, 120, 3, 2.12951
380, 3, wb, filler, NA, 999, 999, 1, 2, 97, 166, 82, 63, 174, 110, 2, 1.52938
380, 3, wb, filler, NA, 999, 999, 1, 2, 97, 166, 82, 63, 174, 110, 3, 1.92289
380, 3, wb, filler, NA, 999, 999, 1, 3, 151, 87, 177, 134, 79, 156, 1, 2.4516
380, 3, wb, filler, NA, 999, 999, 1, 3, 151, 87, 177, 134, 79, 156, 2, 0.424103
380, 3, wb, attraction, a-b-db, 9, 2, 1, 4, 165, 90, 90, 165, 86, 157, 1, 2.65262
380, 3, wb, attraction, a-b-db, 9, 2, 1, 4, 165, 90, 90, 165, 86, 157, 2, 1.66506
380, 3, wb, attraction, a-b-db, 5, 2, 1, 5, 165, 90, 88, 161, 90, 165, 2, 2.25189
380, 3, wb, attraction, a-b-db, 5, 2, 1, 5, 165, 90, 88, 161, 90, 165, 3, 0.504593
380, 3, wb, filler, NA, 999, 999, 1, 6, 178, 172, 94, 74, 171, 74, 2, 1.02623
380, 3, wb, filler, NA, 999, 999, 1, 6, 178, 172, 94, 74, 171, 74, 1, 0.71983
380, 3, wb, attraction, a-b-da, 2, 2, 1, 7, 165, 90, 90, 165, 163, 89, 1, 2.33693
380, 3, wb, attraction, a-b-da, 2, 2, 1, 7, 165, 90, 90, 165, 163, 89, 2, 0.970176
380, 3, wb, attraction, a-b-db, 14, 3, 1, 8, 195, 120, 120, 195, 111, 181, 3, 1.52109
380, 3, wb, attraction, a-b-db, 14, 3, 1, 8, 195, 120, 120, 195, 111, 181, 2, 0.4594
380, 3, wb, catch, NA, 999, 999, 1, 9, 154, 161, 133, 122, 79, 116, 3, 1.25457
380, 3, wb, catch, NA, 999, 999, 1, 9, 154, 161, 133, 122, 79, 116, 2, 1.90748
380, 3, wb, attraction, a-b-da, 5, 3, 1, 10, 190, 117, 120, 195, 195, 120, 1, 1.42806
380, 3, wb, attraction, a-b-da, 5, 3, 1, 10, 190, 117, 120, 195, 195, 120, 2, 0.609637
380, 3, wb, filler, NA, 999, 999, 1, 11, 69, 141, 174, 97, 159, 160, 1, 0.926641
380, 3, wb, filler, NA, 999, 999, 1, 11, 69, 141, 174, 97, 159, 160, 3, 0.544461
380, 3, wb, attraction, a-b-db, 2, 3, 1, 12, 119, 193, 120, 195, 195, 120, 1, 4.58411
380, 3, wb, attraction, a-b-db, 2, 3, 1, 12, 119, 193, 120, 195, 195, 120, 3, 0.662685
380, 3, wb, filler, NA, 999, 999, 1, 13, 117, 150, 83, 59, 168, 133, 2, 1.22584
380, 3, wb, filler, NA, 999, 999, 1, 13, 117, 150, 83, 59, 168, 133, 3, 1.4233
380, 3, wb, attraction, a-b-db, 9, 3, 1, 14, 195, 120, 114, 186, 120, 195, 1, 2.14007
380, 3, wb, attraction, a-b-db, 9, 3, 1, 14, 195, 120, 114, 186, 120, 195, 3, 1.34077
380, 3, wb, filler, NA, 999, 999, 1, 15, 97, 128, 74, 67, 174, 84, 2, 0.74025
380, 3, wb, filler, NA, 999, 999, 1, 15, 97, 128, 74, 67, 174, 84, 3, 0.885377
380, 3, wb, filler, NA, 999, 999, 1, 16, 134, 118, 185, 116, 129, 137, 1, 1.22387
380, 3, wb, filler, NA, 999, 999, 1, 16, 134, 118, 185, 116, 129, 137, 2, 0.413241
380, 3, wb, attraction, a-b-da, 2, 1, 1, 17, 60, 135, 134, 59, 135, 60, 2, 2.68236
380, 3, wb, attraction, a-b-da, 2, 1, 1, 17, 60, 135, 134, 59, 135, 60, 1, 0.733526
380, 3, wb, attraction, a-b-da, 2, 3, 1, 18, 120, 195, 195, 120, 193, 119, 1, 2.06997
380, 3, wb, attraction, a-b-da, 2, 3, 1, 18, 120, 195, 195, 120, 193, 119, 3, 0.498035
380, 3, wb, attraction, a-b-db, 2, 1, 1, 19, 135, 60, 59, 134, 60, 135, 2, 1.30775
380, 3, wb, attraction, a-b-db, 2, 1, 1, 19, 135, 60, 59, 134, 60, 135, 3, 0.582099
380, 3, wb, attraction, a-b-da, 5, 1, 1, 20, 60, 135, 132, 58, 135, 60, 1, 2.17246
380, 3, wb, attraction, a-b-da, 5, 1, 1, 20, 60, 135, 132, 58, 135, 60, 2, 1.47563
380, 3, wb, attraction, a-b-da, 9, 1, 1, 21, 60, 135, 135, 60, 129, 57, 3, 1.53385
380, 3, wb, attraction, a-b-da, 9, 1, 1, 21, 60, 135, 135, 60, 129, 57, 2, 1.14333
380, 3, wb, attraction, a-b-db, 14, 2, 1, 22, 165, 90, 83, 153, 90, 165, 2, 4.631
380, 3, wb, attraction, a-b-db, 14, 2, 1, 22, 165, 90, 83, 153, 90, 165, 3, 0.531531
380, 3, wb, attraction, a-b-db, 5, 1, 1, 23, 58, 132, 135, 60, 60, 135, 1, 3.13181
380, 3, wb, attraction, a-b-db, 5, 1, 1, 23, 58, 132, 135, 60, 60, 135, 3, 0.764925
380, 3, wb, filler, NA, 999, 999, 1, 24, 71, 147, 158, 182, 79, 171, 1, 0.899948
380, 3, wb, filler, NA, 999, 999, 1, 24, 71, 147, 158, 182, 79, 171, 2, 0.350963
380, 3, wb, catch, NA, 999, 999, 1, 25, 187, 128, 129, 66, 164, 91, 2, 0.87881
380, 3, wb, catch, NA, 999, 999, 1, 25, 187, 128, 129, 66, 164, 91, 1, 0.706508
380, 3, wb, attraction, a-b-da, 9, 2, 1, 26, 157, 86, 90, 165, 165, 90, 1, 0.732187
380, 3, wb, attraction, a-b-da, 9, 2, 1, 26, 157, 86, 90, 165, 165, 90, 2, 0.486009
380, 3, wb, attraction, a-b-db, 5, 3, 1, 27, 195, 120, 120, 195, 117, 190, 3, 1.03239
380, 3, wb, attraction, a-b-db, 5, 3, 1, 27, 195, 120, 120, 195, 117, 190, 2, 0.534062
380, 3, wb, attraction, a-b-da, 5, 2, 1, 28, 161, 88, 90, 165, 165, 90, 1, 0.862516
380, 3, wb, attraction, a-b-da, 5, 2, 1, 28, 161, 88, 90, 165, 165, 90, 2, 0.442876
380, 3, wb, attraction, a-b-da, 14, 1, 1, 29, 60, 135, 135, 60, 125, 56, 1, 1.23071
380, 3, wb, attraction, a-b-da, 14, 1, 1, 29, 60, 135, 135, 60, 125, 56, 2, 1.17242
380, 3, wb, attraction, a-b-da, 14, 2, 1, 30, 165, 90, 153, 83, 90, 165, 2, 1.67521
380, 3, wb, attraction, a-b-da, 14, 2, 1, 30, 165, 90, 153, 83, 90, 165, 3, 1.74278
380, 3, wb, attraction, a-b-db, 2, 2, 1, 31, 165, 90, 90, 165, 89, 163, 1, 2.21399
380, 3, wb, attraction, a-b-db, 2, 2, 1, 31, 165, 90, 90, 165, 89, 163, 3, 0.532028
380, 3, wb, attraction, a-b-db, 9, 1, 1, 32, 60, 135, 135, 60, 57, 129, 3, 1.34039
380, 3, wb, attraction, a-b-db, 9, 1, 1, 32, 60, 135, 135, 60, 57, 129, 1, 0.549244
380, 3, wb, catch, NA, 999, 999, 1, 33, 66, 129, 152, 103, 156, 159, 1, 0.837041
380, 3, wb, catch, NA, 999, 999, 1, 33, 66, 129, 152, 103, 156, 159, 3, 0.410812
380, 3, wb, filler, NA, 999, 999, 1, 34, 116, 148, 106, 111, 68, 133, 3, 0.943908
380, 3, wb, filler, NA, 999, 999, 1, 34, 116, 148, 106, 111, 68, 133, 1, 0.36097
380, 3, wb, attraction, a-b-db, 14, 1, 1, 35, 60, 135, 56, 125, 135, 60, 1, 2.03217
380, 3, wb, attraction, a-b-db, 14, 1, 1, 35, 60, 135, 56, 125, 135, 60, 3, 0.709431
380, 3, wb, attraction, a-b-da, 9, 3, 1, 36, 186, 114, 120, 195, 195, 120, 1, 1.53449
380, 3, wb, attraction, a-b-da, 9, 3, 1, 36, 186, 114, 120, 195, 195, 120, 2, 0.296
380, 3, wb, filler, NA, 999, 999, 1, 37, 144, 147, 187, 193, 138, 109, 3, 0.77787
380, 3, wb, filler, NA, 999, 999, 1, 37, 144, 147, 187, 193, 138, 109, 2, 0.34557
380, 3, wb, attraction, a-b-db, 2, 1, 2, 1, 135, 60, 60, 135, 59, 134, 1, 0.8174
380, 3, wb, attraction, a-b-db, 2, 1, 2, 1, 135, 60, 60, 135, 59, 134, 2, 0.695834
380, 3, wb, attraction, a-b-da, 14, 1, 2, 2, 60, 135, 135, 60, 125, 56, 2, 1.58551
380, 3, wb, attraction, a-b-da, 14, 1, 2, 2, 60, 135, 135, 60, 125, 56, 1, 0.56102
380, 3, wb, attraction, a-b-db, 2, 3, 2, 3, 195, 120, 120, 195, 119, 193, 1, 1.5681
380, 3, wb, attraction, a-b-db, 2, 3, 2, 3, 195, 120, 120, 195, 119, 193, 3, 0.376244
380, 3, wb, attraction, a-b-da, 5, 1, 2, 4, 135, 60, 60, 135, 132, 58, 1, 1.60669
380, 3, wb, attraction, a-b-da, 5, 1, 2, 4, 135, 60, 60, 135, 132, 58, 2, 0.444864
380, 3, wb, catch, NA, 999, 999, 2, 5, 121, 74, 184, 131, 135, 120, 1, 0.984613
380, 3, wb, catch, NA, 999, 999, 2, 5, 121, 74, 184, 131, 135, 120, 2, 0.408348
380, 3, wb, filler, NA, 999, 999, 2, 6, 79, 66, 178, 183, 104, 169, 1, 0.701462
380, 3, wb, filler, NA, 999, 999, 2, 6, 79, 66, 178, 183, 104, 169, 2, 0.256614
380, 3, wb, catch, NA, 999, 999, 2, 7, 176, 139, 162, 93, 93, 102, 2, 1.21971
380, 3, wb, catch, NA, 999, 999, 2, 7, 176, 139, 162, 93, 93, 102, 1, 0.385968
380, 3, wb, catch, NA, 999, 999, 2, 8, 100, 155, 84, 111, 138, 177, 2, 0.90455
380, 3, wb, catch, NA, 999, 999, 2, 8, 100, 155, 84, 111, 138, 177, 3, 0.291541
380, 3, wb, attraction, a-b-db, 9, 1, 2, 9, 57, 129, 60, 135, 135, 60, 1, 1.58141
380, 3, wb, attraction, a-b-db, 9, 1, 2, 9, 57, 129, 60, 135, 135, 60, 3, 0.484882
380, 3, wb, attraction, a-b-db, 5, 2, 2, 10, 90, 165, 165, 90, 88, 161, 2, 1.30332
380, 3, wb, attraction, a-b-db, 5, 2, 2, 10, 90, 165, 165, 90, 88, 161, 1, 0.418359
380, 3, wb, attraction, a-b-da, 5, 3, 2, 11, 195, 120, 190, 117, 120, 195, 1, 1.65545
380, 3, wb, attraction, a-b-da, 5, 3, 2, 11, 195, 120, 190, 117, 120, 195, 3, 0.395516
380, 3, wb, attraction, a-b-db, 9, 3, 2, 12, 195, 120, 114, 186, 120, 195, 2, 1.37739
380, 3, wb, attraction, a-b-db, 9, 3, 2, 12, 195, 120, 114, 186, 120, 195, 3, 0.392861
380, 3, wb, filler, NA, 999, 999, 2, 13, 103, 141, 144, 140, 64, 96, 3, 1.03865
380, 3, wb, filler, NA, 999, 999, 2, 13, 103, 141, 144, 140, 64, 96, 2, 0.331607
380, 3, wb, filler, NA, 999, 999, 2, 14, 65, 192, 152, 75, 101, 130, 1, 1.32422
380, 3, wb, filler, NA, 999, 999, 2, 14, 65, 192, 152, 75, 101, 130, 3, 1.66174
380, 3, wb, filler, NA, 999, 999, 2, 15, 179, 148, 155, 76, 151, 127, 2, 0.968434
380, 3, wb, filler, NA, 999, 999, 2, 15, 179, 148, 155, 76, 151, 127, 1, 0.392872
380, 3, wb, attraction, a-b-da, 2, 2, 2, 16, 165, 90, 90, 165, 163, 89, 3, 1.27855
380, 3, wb, attraction, a-b-da, 2, 2, 2, 16, 165, 90, 90, 165, 163, 89, 2, 0.418115
380, 3, wb, attraction, a-b-db, 14, 1, 2, 17, 56, 125, 60, 135, 135, 60, 1, 1.15936
380, 3, wb, attraction, a-b-db, 14, 1, 2, 17, 56, 125, 60, 135, 135, 60, 3, 1.27174
380, 3, wb, attraction, a-b-da, 9, 2, 2, 18, 90, 165, 157, 86, 165, 90, 2, 0.906399
380, 3, wb, attraction, a-b-da, 9, 2, 2, 18, 90, 165, 157, 86, 165, 90, 1, 1.21281
380, 3, wb, attraction, a-b-da, 14, 2, 2, 19, 165, 90, 90, 165, 153, 83, 3, 1.19375
380, 3, wb, attraction, a-b-da, 14, 2, 2, 19, 165, 90, 90, 165, 153, 83, 2, 0.776742
380, 3, wb, filler, NA, 999, 999, 2, 20, 62, 135, 61, 188, 70, 167, 1, 0.807073
380, 3, wb, filler, NA, 999, 999, 2, 20, 62, 135, 61, 188, 70, 167, 3, 0.437488
380, 3, wb, filler, NA, 999, 999, 2, 21, 149, 149, 96, 176, 159, 113, 2, 0.98595
380, 3, wb, filler, NA, 999, 999, 2, 21, 149, 149, 96, 176, 159, 113, 1, 0.561775
380, 3, wb, attraction, a-b-da, 2, 3, 2, 22, 193, 119, 120, 195, 195, 120, 2, 1.75259
380, 3, wb, attraction, a-b-da, 2, 3, 2, 22, 193, 119, 120, 195, 195, 120, 3, 0.753549
380, 3, wb, attraction, a-b-db, 5, 1, 2, 23, 60, 135, 135, 60, 58, 132, 1, 0.937114
380, 3, wb, attraction, a-b-db, 5, 1, 2, 23, 60, 135, 135, 60, 58, 132, 2, 0.792361
380, 3, wb, attraction, a-b-da, 2, 1, 2, 24, 135, 60, 134, 59, 60, 135, 3, 0.864627
380, 3, wb, attraction, a-b-da, 2, 1, 2, 24, 135, 60, 134, 59, 60, 135, 2, 0.884872
380, 3, wb, attraction, a-b-da, 9, 3, 2, 25, 186, 114, 120, 195, 195, 120, 1, 1.95916
380, 3, wb, attraction, a-b-da, 9, 3, 2, 25, 186, 114, 120, 195, 195, 120, 2, 0.375156
380, 3, wb, attraction, a-b-db, 5, 3, 2, 26, 117, 190, 195, 120, 120, 195, 1, 0.845705
380, 3, wb, attraction, a-b-db, 5, 3, 2, 26, 117, 190, 195, 120, 120, 195, 3, 0.834753
380, 3, wb, attraction, a-b-da, 5, 2, 2, 27, 161, 88, 90, 165, 165, 90, 2, 0.855157
380, 3, wb, attraction, a-b-da, 5, 2, 2, 27, 161, 88, 90, 165, 165, 90, 1, 0.659446
380, 3, wb, filler, NA, 999, 999, 2, 28, 109, 112, 138, 100, 169, 57, 3, 1.15051
380, 3, wb, filler, NA, 999, 999, 2, 28, 109, 112, 138, 100, 169, 57, 2, 0.399489
380, 3, wb, attraction, a-b-db, 14, 2, 2, 29, 90, 165, 165, 90, 83, 153, 2, 1.44532
380, 3, wb, attraction, a-b-db, 14, 2, 2, 29, 90, 165, 165, 90, 83, 153, 1, 0.354141
380, 3, wb, filler, NA, 999, 999, 2, 30, 155, 129, 76, 74, 163, 134, 2, 0.793981
380, 3, wb, filler, NA, 999, 999, 2, 30, 155, 129, 76, 74, 163, 134, 3, 0.401218
380, 3, wb, attraction, a-b-da, 14, 3, 2, 31, 195, 120, 181, 111, 120, 195, 2, 0.98282
380, 3, wb, attraction, a-b-da, 14, 3, 2, 31, 195, 120, 181, 111, 120, 195, 3, 0.502535
380, 3, wb, attraction, a-b-db, 14, 3, 2, 32, 111, 181, 120, 195, 195, 120, 3, 2.21634
380, 3, wb, attraction, a-b-db, 14, 3, 2, 32, 111, 181, 120, 195, 195, 120, 2, 0.414218
380, 3, wb, filler, NA, 999, 999, 2, 33, 67, 126, 101, 127, 160, 104, 1, 0.683338
380, 3, wb, filler, NA, 999, 999, 2, 33, 67, 126, 101, 127, 160, 104, 3, 0.607244
380, 3, wb, attraction, a-b-db, 2, 2, 2, 34, 89, 163, 90, 165, 165, 90, 3, 2.96433
380, 3, wb, attraction, a-b-db, 2, 2, 2, 34, 89, 163, 90, 165, 165, 90, 2, 0.387952
380, 3, wb, filler, NA, 999, 999, 2, 35, 174, 185, 127, 141, 101, 56, 3, 0.634508
380, 3, wb, filler, NA, 999, 999, 2, 35, 174, 185, 127, 141, 101, 56, 1, 0.400234
380, 3, wb, attraction, a-b-da, 9, 1, 2, 36, 60, 135, 135, 60, 129, 57, 1, 1.07801
380, 3, wb, attraction, a-b-da, 9, 1, 2, 36, 60, 135, 135, 60, 129, 57, 3, 0.569715
380, 3, wb, attraction, a-b-db, 9, 2, 2, 37, 86, 157, 165, 90, 90, 165, 2, 1.23274
380, 3, wb, attraction, a-b-db, 9, 2, 2, 37, 86, 157, 165, 90, 90, 165, 3, 0.614472
380, 3, wb, catch, NA, 999, 999, 3, 1, 107, 88, 167, 148, 117, 138, 1, 0.643518
380, 3, wb, catch, NA, 999, 999, 3, 1, 107, 88, 167, 148, 117, 138, 2, 0.352601
380, 3, wb, filler, NA, 999, 999, 3, 2, 143, 60, 119, 119, 81, 176, 1, 0.688473
380, 3, wb, filler, NA, 999, 999, 3, 2, 143, 60, 119, 119, 81, 176, 3, 0.755508
380, 3, wb, attraction, a-b-da, 9, 3, 3, 3, 195, 120, 120, 195, 186, 114, 2, 1.25123
380, 3, wb, attraction, a-b-da, 9, 3, 3, 3, 195, 120, 120, 195, 186, 114, 1, 0.504127
380, 3, wb, attraction, a-b-da, 14, 1, 3, 4, 60, 135, 125, 56, 135, 60, 2, 0.873916
380, 3, wb, attraction, a-b-da, 14, 1, 3, 4, 60, 135, 125, 56, 135, 60, 3, 0.501657
380, 3, wb, attraction, a-b-db, 14, 3, 3, 5, 111, 181, 120, 195, 195, 120, 1, 0.72743
380, 3, wb, attraction, a-b-db, 14, 3, 3, 5, 111, 181, 120, 195, 195, 120, 3, 0.961144
380, 3, wb, filler, NA, 999, 999, 3, 6, 72, 64, 63, 158, 179, 123, 1, 0.608069
380, 3, wb, filler, NA, 999, 999, 3, 6, 72, 64, 63, 158, 179, 123, 3, 0.630627
380, 3, wb, attraction, a-b-db, 2, 3, 3, 7, 195, 120, 119, 193, 120, 195, 1, 2.53892
380, 3, wb, attraction, a-b-db, 2, 3, 3, 7, 195, 120, 119, 193, 120, 195, 3, 0.563562
380, 3, wb, filler, NA, 999, 999, 3, 8, 60, 82, 137, 75, 190, 59, 1, 0.954502
380, 3, wb, filler, NA, 999, 999, 3, 8, 60, 82, 137, 75, 190, 59, 3, 1.011
380, 3, wb, filler, NA, 999, 999, 3, 9, 123, 70, 128, 81, 106, 67, 3, 1.60795
380, 3, wb, filler, NA, 999, 999, 3, 9, 123, 70, 128, 81, 106, 67, 2, 0.398108
380, 3, wb, filler, NA, 999, 999, 3, 10, 195, 163, 91, 110, 61, 135, 3, 0.827901
380, 3, wb, filler, NA, 999, 999, 3, 10, 195, 163, 91, 110, 61, 135, 1, 0.529642
380, 3, wb, attraction, a-b-da, 5, 1, 3, 11, 135, 60, 132, 58, 60, 135, 2, 0.713931
380, 3, wb, attraction, a-b-da, 5, 1, 3, 11, 135, 60, 132, 58, 60, 135, 3, 0.564439
380, 3, wb, attraction, a-b-db, 5, 1, 3, 12, 60, 135, 58, 132, 135, 60, 1, 0.66752
380, 3, wb, attraction, a-b-db, 5, 1, 3, 12, 60, 135, 58, 132, 135, 60, 3, 0.815964
380, 3, wb, filler, NA, 999, 999, 3, 13, 181, 63, 151, 171, 139, 60, 3, 1.19704
380, 3, wb, filler, NA, 999, 999, 3, 13, 181, 63, 151, 171, 139, 60, 2, 0.339962
380, 3, wb, attraction, a-b-db, 9, 3, 3, 14, 120, 195, 114, 186, 195, 120, 1, 1.41977
380, 3, wb, attraction, a-b-db, 9, 3, 3, 14, 120, 195, 114, 186, 195, 120, 3, 0.465892
380, 3, wb, attraction, a-b-da, 9, 2, 3, 15, 157, 86, 90, 165, 165, 90, 1, 2.02104
380, 3, wb, attraction, a-b-da, 9, 2, 3, 15, 157, 86, 90, 165, 165, 90, 2, 0.451074
380, 3, wb, attraction, a-b-db, 2, 1, 3, 16, 59, 134, 135, 60, 60, 135, 3, 0.718804
380, 3, wb, attraction, a-b-db, 2, 1, 3, 16, 59, 134, 135, 60, 60, 135, 2, 0.457224
380, 3, wb, catch, NA, 999, 999, 3, 17, 152, 163, 160, 95, 96, 99, 3, 1.57236
380, 3, wb, catch, NA, 999, 999, 3, 17, 152, 163, 160, 95, 96, 99, 1, 0.363913
380, 3, wb, attraction, a-b-da, 9, 1, 3, 18, 60, 135, 129, 57, 135, 60, 1, 0.93104
380, 3, wb, attraction, a-b-da, 9, 1, 3, 18, 60, 135, 129, 57, 135, 60, 3, 0.500668
380, 3, wb, attraction, a-b-db, 2, 2, 3, 19, 90, 165, 89, 163, 165, 90, 1, 4.91053
380, 3, wb, attraction, a-b-db, 2, 2, 3, 19, 90, 165, 89, 163, 165, 90, 2, 0.615705
380, 3, wb, filler, NA, 999, 999, 3, 20, 136, 94, 185, 125, 163, 75, 3, 1.77265
380, 3, wb, filler, NA, 999, 999, 3, 20, 136, 94, 185, 125, 163, 75, 2, 0.740062
380, 3, wb, filler, NA, 999, 999, 3, 21, 150, 158, 183, 178, 134, 180, 3, 1.01987
380, 3, wb, filler, NA, 999, 999, 3, 21, 150, 158, 183, 178, 134, 180, 2, 0.378214
380, 3, wb, attraction, a-b-da, 14, 3, 3, 22, 120, 195, 195, 120, 181, 111, 3, 1.09697
380, 3, wb, attraction, a-b-da, 14, 3, 3, 22, 120, 195, 195, 120, 181, 111, 1, 0.467551
380, 3, wb, attraction, a-b-da, 5, 3, 3, 23, 120, 195, 190, 117, 195, 120, 1, 0.782673
380, 3, wb, attraction, a-b-da, 5, 3, 3, 23, 120, 195, 190, 117, 195, 120, 3, 0.438578
380, 3, wb, attraction, a-b-db, 9, 1, 3, 24, 60, 135, 57, 129, 135, 60, 1, 0.666925
380, 3, wb, attraction, a-b-db, 9, 1, 3, 24, 60, 135, 57, 129, 135, 60, 3, 1.30343
380, 3, wb, attraction, a-b-da, 2, 3, 3, 25, 120, 195, 195, 120, 193, 119, 3, 2.07305
380, 3, wb, attraction, a-b-da, 2, 3, 3, 25, 120, 195, 195, 120, 193, 119, 1, 0.388245
380, 3, wb, attraction, a-b-db, 5, 3, 3, 26, 120, 195, 195, 120, 117, 190, 3, 0.8747
380, 3, wb, attraction, a-b-db, 5, 3, 3, 26, 120, 195, 195, 120, 117, 190, 1, 0.422411
380, 3, wb, attraction, a-b-da, 14, 2, 3, 27, 90, 165, 153, 83, 165, 90, 1, 0.827592
380, 3, wb, attraction, a-b-da, 14, 2, 3, 27, 90, 165, 153, 83, 165, 90, 3, 0.633362
380, 3, wb, attraction, a-b-db, 14, 1, 3, 28, 60, 135, 56, 125, 135, 60, 2, 1.57367
380, 3, wb, attraction, a-b-db, 14, 1, 3, 28, 60, 135, 56, 125, 135, 60, 3, 0.413129
380, 3, wb, attraction, a-b-da, 5, 2, 3, 29, 161, 88, 165, 90, 90, 165, 2, 1.25837
380, 3, wb, attraction, a-b-da, 5, 2, 3, 29, 161, 88, 165, 90, 90, 165, 3, 0.526575
380, 3, wb, catch, NA, 999, 999, 3, 30, 84, 111, 113, 142, 144, 171, 1, 1.43093
380, 3, wb, catch, NA, 999, 999, 3, 30, 84, 111, 113, 142, 144, 171, 3, 0.612468
380, 3, wb, attraction, a-b-da, 2, 1, 3, 31, 134, 59, 60, 135, 135, 60, 1, 0.705581
380, 3, wb, attraction, a-b-da, 2, 1, 3, 31, 134, 59, 60, 135, 135, 60, 3, 1.20397
380, 3, wb, filler, NA, 999, 999, 3, 32, 152, 186, 165, 195, 102, 184, 3, 1.2262
380, 3, wb, filler, NA, 999, 999, 3, 32, 152, 186, 165, 195, 102, 184, 2, 0.81517
380, 3, wb, attraction, a-b-da, 2, 2, 3, 33, 163, 89, 90, 165, 165, 90, 1, 0.86018
380, 3, wb, attraction, a-b-da, 2, 2, 3, 33, 163, 89, 90, 165, 165, 90, 2, 1.08069
380, 3, wb, filler, NA, 999, 999, 3, 34, 114, 169, 125, 71, 152, 94, 2, 0.938943
380, 3, wb, filler, NA, 999, 999, 3, 34, 114, 169, 125, 71, 152, 94, 1, 0.403966
380, 3, wb, attraction, a-b-db, 9, 2, 3, 35, 165, 90, 90, 165, 86, 157, 3, 1.34587
380, 3, wb, attraction, a-b-db, 9, 2, 3, 35, 165, 90, 90, 165, 86, 157, 2, 0.634605
380, 3, wb, attraction, a-b-db, 14, 2, 3, 36, 83, 153, 90, 165, 165, 90, 1, 0.911004
380, 3, wb, attraction, a-b-db, 14, 2, 3, 36, 83, 153, 90, 165, 165, 90, 3, 0.649357
380, 3, wb, attraction, a-b-db, 5, 2, 3, 37, 88, 161, 165, 90, 90, 165, 2, 0.709033
380, 3, wb, attraction, a-b-db, 5, 2, 3, 37, 88, 161, 165, 90, 90, 165, 3, 0.479489
380, 3, wb, attraction, a-b-db, 14, 1, 4, 1, 135, 60, 56, 125, 60, 135, 2, 1.84987
380, 3, wb, attraction, a-b-db, 14, 1, 4, 1, 135, 60, 56, 125, 60, 135, 3, 0.662657
380, 3, wb, filler, NA, 999, 999, 4, 2, 153, 105, 105, 120, 139, 83, 2, 0.865651
380, 3, wb, filler, NA, 999, 999, 4, 2, 153, 105, 105, 120, 139, 83, 1, 0.518002
380, 3, wb, catch, NA, 999, 999, 4, 3, 160, 95, 195, 120, 95, 100, 3, 0.703129
380, 3, wb, catch, NA, 999, 999, 4, 3, 160, 95, 195, 120, 95, 100, 2, 0.37832
380, 3, wb, attraction, a-b-da, 2, 2, 4, 4, 165, 90, 90, 165, 163, 89, 2, 0.816966
380, 3, wb, attraction, a-b-da, 2, 2, 4, 4, 165, 90, 90, 165, 163, 89, 1, 0.391382
380, 3, wb, attraction, a-b-db, 2, 2, 4, 5, 90, 165, 165, 90, 89, 163, 2, 1.37304
380, 3, wb, attraction, a-b-db, 2, 2, 4, 5, 90, 165, 165, 90, 89, 163, 3, 0.54865
380, 3, wb, filler, NA, 999, 999, 4, 6, 158, 82, 120, 100, 82, 168, 3, 1.0683
380, 3, wb, filler, NA, 999, 999, 4, 6, 158, 82, 120, 100, 82, 168, 1, 2.61665
380, 3, wb, filler, NA, 999, 999, 4, 7, 58, 83, 61, 86, 166, 175, 1, 0.964996
380, 3, wb, filler, NA, 999, 999, 4, 7, 58, 83, 61, 86, 166, 175, 3, 0.877524
380, 3, wb, attraction, a-b-da, 14, 3, 4, 8, 195, 120, 120, 195, 181, 111, 2, 1.1438
380, 3, wb, attraction, a-b-da, 14, 3, 4, 8, 195, 120, 120, 195, 181, 111, 3, 0.488739
380, 3, wb, catch, NA, 999, 999, 4, 9, 184, 131, 133, 122, 115, 80, 3, 1.1551
380, 3, wb, catch, NA, 999, 999, 4, 9, 184, 131, 133, 122, 115, 80, 1, 0.763396
380, 3, wb, attraction, a-b-da, 5, 3, 4, 10, 195, 120, 190, 117, 120, 195, 3, 1.02656
380, 3, wb, attraction, a-b-da, 5, 3, 4, 10, 195, 120, 190, 117, 120, 195, 1, 0.496103
380, 3, wb, attraction, a-b-db, 14, 3, 4, 11, 111, 181, 195, 120, 120, 195, 1, 0.80182
380, 3, wb, attraction, a-b-db, 14, 3, 4, 11, 111, 181, 195, 120, 120, 195, 3, 0.472911
380, 3, wb, attraction, a-b-db, 9, 1, 4, 12, 135, 60, 60, 135, 57, 129, 3, 1.53202
380, 3, wb, attraction, a-b-db, 9, 1, 4, 12, 135, 60, 60, 135, 57, 129, 2, 0.693517
380, 3, wb, catch, NA, 999, 999, 4, 13, 70, 125, 132, 183, 142, 113, 1, 0.86337
380, 3, wb, catch, NA, 999, 999, 4, 13, 70, 125, 132, 183, 142, 113, 2, 0.963738
380, 3, wb, attraction, a-b-da, 2, 1, 4, 14, 135, 60, 134, 59, 60, 135, 3, 1.50671
380, 3, wb, attraction, a-b-da, 2, 1, 4, 14, 135, 60, 134, 59, 60, 135, 2, 0.468809
380, 3, wb, filler, NA, 999, 999, 4, 15, 90, 80, 146, 91, 71, 99, 1, 0.967999
380, 3, wb, filler, NA, 999, 999, 4, 15, 90, 80, 146, 91, 71, 99, 2, 0.376372
380, 3, wb, attraction, a-b-db, 14, 2, 4, 16, 83, 153, 90, 165, 165, 90, 1, 1.3908
380, 3, wb, attraction, a-b-db, 14, 2, 4, 16, 83, 153, 90, 165, 165, 90, 3, 0.621651
380, 3, wb, attraction, a-b-da, 9, 1, 4, 17, 60, 135, 135, 60, 129, 57, 1, 0.914766
380, 3, wb, attraction, a-b-da, 9, 1, 4, 17, 60, 135, 135, 60, 129, 57, 3, 0.63719
380, 3, wb, attraction, a-b-da, 5, 2, 4, 18, 90, 165, 165, 90, 161, 88, 2, 1.72943
380, 3, wb, attraction, a-b-da, 5, 2, 4, 18, 90, 165, 165, 90, 161, 88, 1, 0.322913
380, 3, wb, attraction, a-b-db, 5, 1, 4, 19, 135, 60, 60, 135, 58, 132, 3, 0.956164
380, 3, wb, attraction, a-b-db, 5, 1, 4, 19, 135, 60, 60, 135, 58, 132, 2, 0.548423
380, 3, wb, attraction, a-b-da, 14, 2, 4, 20, 165, 90, 153, 83, 90, 165, 3, 0.788213
380, 3, wb, attraction, a-b-da, 14, 2, 4, 20, 165, 90, 153, 83, 90, 165, 2, 0.38733
380, 3, wb, filler, NA, 999, 999, 4, 21, 93, 158, 191, 138, 125, 147, 1, 0.769723
380, 3, wb, filler, NA, 999, 999, 4, 21, 93, 158, 191, 138, 125, 147, 2, 0.330341
380, 3, wb, attraction, a-b-da, 5, 1, 4, 22, 135, 60, 132, 58, 60, 135, 1, 0.954652
380, 3, wb, attraction, a-b-da, 5, 1, 4, 22, 135, 60, 132, 58, 60, 135, 2, 0.78762
380, 3, wb, attraction, a-b-db, 5, 3, 4, 23, 117, 190, 120, 195, 195, 120, 1, 0.682016
380, 3, wb, attraction, a-b-db, 5, 3, 4, 23, 117, 190, 120, 195, 195, 120, 2, 0.68585
380, 3, wb, filler, NA, 999, 999, 4, 24, 94, 67, 75, 136, 80, 93, 1, 1.35217
380, 3, wb, filler, NA, 999, 999, 4, 24, 94, 67, 75, 136, 80, 93, 2, 0.577123
380, 3, wb, attraction, a-b-db, 2, 3, 4, 25, 195, 120, 120, 195, 119, 193, 3, 0.823535
380, 3, wb, attraction, a-b-db, 2, 3, 4, 25, 195, 120, 120, 195, 119, 193, 2, 0.397227
380, 3, wb, attraction, a-b-db, 2, 1, 4, 26, 59, 134, 60, 135, 135, 60, 3, 0.683056
380, 3, wb, attraction, a-b-db, 2, 1, 4, 26, 59, 134, 60, 135, 135, 60, 2, 0.534833
380, 3, wb, attraction, a-b-db, 9, 3, 4, 27, 195, 120, 120, 195, 114, 186, 3, 0.503302
380, 3, wb, attraction, a-b-db, 9, 3, 4, 27, 195, 120, 120, 195, 114, 186, 2, 0.370432
380, 3, wb, attraction, a-b-da, 9, 3, 4, 28, 120, 195, 195, 120, 186, 114, 3, 0.689517
380, 3, wb, attraction, a-b-da, 9, 3, 4, 28, 120, 195, 195, 120, 186, 114, 2, 0.372673
380, 3, wb, filler, NA, 999, 999, 4, 29, 84, 181, 172, 162, 70, 193, 3, 0.699778
380, 3, wb, filler, NA, 999, 999, 4, 29, 84, 181, 172, 162, 70, 193, 2, 0.366964
380, 3, wb, attraction, a-b-da, 9, 2, 4, 30, 165, 90, 90, 165, 157, 86, 1, 0.59006
380, 3, wb, attraction, a-b-da, 9, 2, 4, 30, 165, 90, 90, 165, 157, 86, 2, 0.357201
380, 3, wb, attraction, a-b-db, 9, 2, 4, 31, 86, 157, 90, 165, 165, 90, 1, 0.884328
380, 3, wb, attraction, a-b-db, 9, 2, 4, 31, 86, 157, 90, 165, 165, 90, 2, 0.344054
380, 3, wb, attraction, a-b-da, 14, 1, 4, 32, 60, 135, 125, 56, 135, 60, 3, 0.535866
380, 3, wb, attraction, a-b-da, 14, 1, 4, 32, 60, 135, 125, 56, 135, 60, 1, 0.665656
380, 3, wb, filler, NA, 999, 999, 4, 33, 145, 103, 90, 185, 129, 160, 3, 0.436728
380, 3, wb, filler, NA, 999, 999, 4, 33, 145, 103, 90, 185, 129, 160, 2, 1.24265
380, 3, wb, filler, NA, 999, 999, 4, 34, 167, 59, 71, 111, 187, 82, 2, 1.96607
380, 3, wb, filler, NA, 999, 999, 4, 34, 167, 59, 71, 111, 187, 82, 1, 0.374084
380, 3, wb, filler, NA, 999, 999, 4, 35, 59, 182, 184, 181, 84, 168, 1, 1.14064
380, 3, wb, filler, NA, 999, 999, 4, 35, 59, 182, 184, 181, 84, 168, 2, 0.261594
380, 3, wb, attraction, a-b-da, 2, 3, 4, 36, 120, 195, 195, 120, 193, 119, 2, 0.680776
380, 3, wb, attraction, a-b-da, 2, 3, 4, 36, 120, 195, 195, 120, 193, 119, 1, 0.876516
380, 3, wb, attraction, a-b-db, 5, 2, 4, 37, 88, 161, 165, 90, 90, 165, 3, 0.582843
380, 3, wb, attraction, a-b-db, 5, 2, 4, 37, 88, 161, 165, 90, 90, 165, 2, 0.462697
380, 3, wb, filler, NA, 999, 999, 5, 1, 111, 157, 137, 188, 170, 180, 1, 3.27259
380, 3, wb, filler, NA, 999, 999, 5, 1, 111, 157, 137, 188, 170, 180, 3, 0.379334
380, 3, wb, attraction, a-b-da, 9, 1, 5, 2, 129, 57, 135, 60, 60, 135, 3, 1.17803
380, 3, wb, attraction, a-b-da, 9, 1, 5, 2, 129, 57, 135, 60, 60, 135, 2, 0.393548
380, 3, wb, attraction, a-b-da, 9, 2, 5, 3, 165, 90, 157, 86, 90, 165, 3, 0.911281
380, 3, wb, attraction, a-b-da, 9, 2, 5, 3, 165, 90, 157, 86, 90, 165, 2, 0.297637
380, 3, wb, attraction, a-b-db, 14, 3, 5, 4, 111, 181, 120, 195, 195, 120, 1, 0.731431
380, 3, wb, attraction, a-b-db, 14, 3, 5, 4, 111, 181, 120, 195, 195, 120, 2, 0.245335
380, 3, wb, filler, NA, 999, 999, 5, 5, 150, 170, 111, 169, 73, 98, 3, 0.72125
380, 3, wb, filler, NA, 999, 999, 5, 5, 150, 170, 111, 169, 73, 98, 1, 0.283525
380, 3, wb, attraction, a-b-da, 14, 1, 5, 6, 125, 56, 135, 60, 60, 135, 2, 0.718057
380, 3, wb, attraction, a-b-da, 14, 1, 5, 6, 125, 56, 135, 60, 60, 135, 3, 0.368456
380, 3, wb, attraction, a-b-da, 14, 2, 5, 7, 153, 83, 90, 165, 165, 90, 1, 0.511657
380, 3, wb, attraction, a-b-da, 14, 2, 5, 7, 153, 83, 90, 165, 165, 90, 2, 0.298115
380, 3, wb, attraction, a-b-da, 2, 2, 5, 8, 163, 89, 165, 90, 90, 165, 2, 0.643946
380, 3, wb, attraction, a-b-da, 2, 2, 5, 8, 163, 89, 165, 90, 90, 165, 3, 0.625084
380, 3, wb, attraction, a-b-db, 9, 2, 5, 9, 165, 90, 86, 157, 90, 165, 1, 1.06145
380, 3, wb, attraction, a-b-db, 9, 2, 5, 9, 165, 90, 86, 157, 90, 165, 2, 0.35379
380, 3, wb, attraction, a-b-db, 5, 2, 5, 10, 165, 90, 90, 165, 88, 161, 2, 0.537698
380, 3, wb, attraction, a-b-db, 5, 2, 5, 10, 165, 90, 90, 165, 88, 161, 3, 0.331447
380, 3, wb, catch, NA, 999, 999, 5, 11, 164, 91, 125, 190, 109, 86, 3, 1.29189
380, 3, wb, catch, NA, 999, 999, 5, 11, 164, 91, 125, 190, 109, 86, 2, 0.334861
380, 3, wb, attraction, a-b-db, 14, 1, 5, 12, 56, 125, 135, 60, 60, 135, 3, 0.583365
380, 3, wb, attraction, a-b-db, 14, 1, 5, 12, 56, 125, 135, 60, 60, 135, 2, 0.90318
380, 3, wb, attraction, a-b-db, 5, 1, 5, 13, 60, 135, 58, 132, 135, 60, 1, 0.896758
380, 3, wb, attraction, a-b-db, 5, 1, 5, 13, 60, 135, 58, 132, 135, 60, 2, 0.50781
380, 3, wb, attraction, a-b-da, 5, 1, 5, 14, 132, 58, 60, 135, 135, 60, 2, 0.636842
380, 3, wb, attraction, a-b-da, 5, 1, 5, 14, 132, 58, 60, 135, 135, 60, 3, 0.410734
380, 3, wb, attraction, a-b-da, 2, 3, 5, 15, 195, 120, 193, 119, 120, 195, 1, 1.07182
380, 3, wb, attraction, a-b-da, 2, 3, 5, 15, 195, 120, 193, 119, 120, 195, 3, 0.363439
380, 3, wb, catch, NA, 999, 999, 5, 16, 109, 86, 160, 155, 163, 92, 1, 1.11478
380, 3, wb, catch, NA, 999, 999, 5, 16, 109, 86, 160, 155, 163, 92, 2, 0.484911
380, 3, wb, filler, NA, 999, 999, 5, 17, 169, 86, 185, 135, 73, 129, 3, 0.679325
380, 3, wb, filler, NA, 999, 999, 5, 17, 169, 86, 185, 135, 73, 129, 2, 0.323136
380, 3, wb, attraction, a-b-db, 2, 1, 5, 18, 60, 135, 59, 134, 135, 60, 1, 0.828323
380, 3, wb, attraction, a-b-db, 2, 1, 5, 18, 60, 135, 59, 134, 135, 60, 2, 1.16202
380, 3, wb, attraction, a-b-db, 9, 1, 5, 19, 135, 60, 57, 129, 60, 135, 1, 0.848894
380, 3, wb, attraction, a-b-db, 9, 1, 5, 19, 135, 60, 57, 129, 60, 135, 2, 0.558002
380, 3, wb, filler, NA, 999, 999, 5, 20, 75, 96, 89, 174, 116, 100, 1, 1.29302
380, 3, wb, filler, NA, 999, 999, 5, 20, 75, 96, 89, 174, 116, 100, 2, 0.863962
380, 3, wb, filler, NA, 999, 999, 5, 21, 165, 164, 183, 178, 62, 111, 3, 0.995018
380, 3, wb, filler, NA, 999, 999, 5, 21, 165, 164, 183, 178, 62, 111, 2, 0.361971
380, 3, wb, catch, NA, 999, 999, 5, 22, 130, 185, 108, 87, 128, 127, 2, 0.817147
380, 3, wb, catch, NA, 999, 999, 5, 22, 130, 185, 108, 87, 128, 127, 1, 0.327632
380, 3, wb, attraction, a-b-db, 14, 2, 5, 23, 83, 153, 165, 90, 90, 165, 3, 0.560045
380, 3, wb, attraction, a-b-db, 14, 2, 5, 23, 83, 153, 165, 90, 90, 165, 2, 0.360497
380, 3, wb, filler, NA, 999, 999, 5, 24, 65, 189, 187, 81, 180, 150, 1, 0.887715
380, 3, wb, filler, NA, 999, 999, 5, 24, 65, 189, 187, 81, 180, 150, 3, 0.466742
380, 3, wb, attraction, a-b-da, 9, 3, 5, 25, 195, 120, 120, 195, 186, 114, 2, 0.597825
380, 3, wb, attraction, a-b-da, 9, 3, 5, 25, 195, 120, 120, 195, 186, 114, 3, 0.501037
380, 3, wb, attraction, a-b-db, 2, 3, 5, 26, 119, 193, 195, 120, 120, 195, 2, 0.814773
380, 3, wb, attraction, a-b-db, 2, 3, 5, 26, 119, 193, 195, 120, 120, 195, 3, 0.517056
380, 3, wb, filler, NA, 999, 999, 5, 27, 176, 131, 78, 78, 193, 168, 2, 1.01413
380, 3, wb, filler, NA, 999, 999, 5, 27, 176, 131, 78, 78, 193, 168, 3, 0.780538
380, 3, wb, attraction, a-b-db, 9, 3, 5, 28, 195, 120, 120, 195, 114, 186, 2, 1.46694
380, 3, wb, attraction, a-b-db, 9, 3, 5, 28, 195, 120, 120, 195, 114, 186, 1, 0.631156
380, 3, wb, filler, NA, 999, 999, 5, 29, 76, 57, 180, 100, 124, 127, 1, 1.43556
380, 3, wb, filler, NA, 999, 999, 5, 29, 76, 57, 180, 100, 124, 127, 3, 1.11309
380, 3, wb, filler, NA, 999, 999, 5, 30, 112, 106, 75, 136, 91, 69, 3, 1.40192
380, 3, wb, filler, NA, 999, 999, 5, 30, 112, 106, 75, 136, 91, 69, 1, 0.52878
380, 3, wb, attraction, a-b-da, 14, 3, 5, 31, 120, 195, 181, 111, 195, 120, 1, 2.53734
380, 3, wb, attraction, a-b-da, 14, 3, 5, 31, 120, 195, 181, 111, 195, 120, 2, 0.714439
380, 3, wb, attraction, a-b-da, 5, 3, 5, 32, 190, 117, 120, 195, 195, 120, 1, 0.73964
380, 3, wb, attraction, a-b-da, 5, 3, 5, 32, 190, 117, 120, 195, 195, 120, 2, 0.516665
380, 3, wb, attraction, a-b-da, 2, 1, 5, 33, 134, 59, 135, 60, 60, 135, 1, 0.909678
380, 3, wb, attraction, a-b-da, 2, 1, 5, 33, 134, 59, 135, 60, 60, 135, 3, 1.69604
380, 3, wb, attraction, a-b-db, 5, 3, 5, 34, 195, 120, 120, 195, 117, 190, 3, 1.12138
380, 3, wb, attraction, a-b-db, 5, 3, 5, 34, 195, 120, 120, 195, 117, 190, 1, 1.0757
380, 3, wb, attraction, a-b-db, 2, 2, 5, 35, 165, 90, 90, 165, 89, 163, 2, 0.694034
380, 3, wb, attraction, a-b-db, 2, 2, 5, 35, 165, 90, 90, 165, 89, 163, 1, 0.809149
380, 3, wb, filler, NA, 999, 999, 5, 36, 137, 135, 78, 96, 183, 111, 2, 0.646116
380, 3, wb, filler, NA, 999, 999, 5, 36, 137, 135, 78, 96, 183, 111, 3, 0.347265
380, 3, wb, attraction, a-b-da, 5, 2, 5, 37, 161, 88, 165, 90, 90, 165, 2, 0.987078
380, 3, wb, attraction, a-b-da, 5, 2, 5, 37, 161, 88, 165, 90, 90, 165, 1, 0.522745
380, 3, wb, filler, NA, 999, 999, 6, 1, 151, 188, 192, 56, 104, 126, 2, 1.16388
380, 3, wb, filler, NA, 999, 999, 6, 1, 151, 188, 192, 56, 104, 126, 1, 0.404102
380, 3, wb, attraction, a-b-da, 14, 2, 6, 2, 90, 165, 153, 83, 165, 90, 2, 1.24998
380, 3, wb, attraction, a-b-da, 14, 2, 6, 2, 90, 165, 153, 83, 165, 90, 3, 0.478931
380, 3, wb, attraction, a-b-da, 9, 3, 6, 3, 195, 120, 120, 195, 186, 114, 2, 0.57737
380, 3, wb, attraction, a-b-da, 9, 3, 6, 3, 195, 120, 120, 195, 186, 114, 3, 0.481102
380, 3, wb, attraction, a-b-db, 5, 3, 6, 4, 117, 190, 120, 195, 195, 120, 2, 0.603613
380, 3, wb, attraction, a-b-db, 5, 3, 6, 4, 117, 190, 120, 195, 195, 120, 1, 0.466661
380, 3, wb, attraction, a-b-da, 2, 3, 6, 5, 120, 195, 193, 119, 195, 120, 2, 0.773829
380, 3, wb, attraction, a-b-da, 2, 3, 6, 5, 120, 195, 193, 119, 195, 120, 1, 0.525644
380, 3, wb, catch, NA, 999, 999, 6, 6, 131, 64, 178, 137, 111, 144, 1, 0.989899
380, 3, wb, catch, NA, 999, 999, 6, 6, 131, 64, 178, 137, 111, 144, 2, 1.18916
380, 3, wb, attraction, a-b-da, 14, 3, 6, 7, 181, 111, 120, 195, 195, 120, 1, 0.595243
380, 3, wb, attraction, a-b-da, 14, 3, 6, 7, 181, 111, 120, 195, 195, 120, 2, 0.778292
380, 3, wb, attraction, a-b-db, 2, 1, 6, 8, 135, 60, 59, 134, 60, 135, 1, 0.696829
380, 3, wb, attraction, a-b-db, 2, 1, 6, 8, 135, 60, 59, 134, 60, 135, 2, 0.923772
380, 3, wb, filler, NA, 999, 999, 6, 9, 154, 121, 181, 113, 157, 194, 1, 0.724047
380, 3, wb, filler, NA, 999, 999, 6, 9, 154, 121, 181, 113, 157, 194, 3, 0.501915
380, 3, wb, attraction, a-b-da, 2, 2, 6, 10, 90, 165, 163, 89, 165, 90, 1, 0.791632
380, 3, wb, attraction, a-b-da, 2, 2, 6, 10, 90, 165, 163, 89, 165, 90, 3, 0.878823
380, 3, wb, attraction, a-b-db, 5, 1, 6, 11, 135, 60, 58, 132, 60, 135, 2, 0.785156
380, 3, wb, attraction, a-b-db, 5, 1, 6, 11, 135, 60, 58, 132, 60, 135, 1, 0.456835
380, 3, wb, attraction, a-b-da, 5, 1, 6, 12, 60, 135, 132, 58, 135, 60, 2, 0.635981
380, 3, wb, attraction, a-b-da, 5, 1, 6, 12, 60, 135, 132, 58, 135, 60, 3, 0.489815
380, 3, wb, filler, NA, 999, 999, 6, 13, 66, 161, 107, 160, 135, 181, 1, 0.756108
380, 3, wb, filler, NA, 999, 999, 6, 13, 66, 161, 107, 160, 135, 181, 3, 0.460542
380, 3, wb, attraction, a-b-db, 9, 1, 6, 14, 60, 135, 57, 129, 135, 60, 1, 1.27168
380, 3, wb, attraction, a-b-db, 9, 1, 6, 14, 60, 135, 57, 129, 135, 60, 2, 0.5713
380, 3, wb, filler, NA, 999, 999, 6, 15, 148, 184, 106, 90, 161, 62, 3, 1.33839
380, 3, wb, filler, NA, 999, 999, 6, 15, 148, 184, 106, 90, 161, 62, 1, 0.435203
380, 3, wb, attraction, a-b-db, 14, 2, 6, 16, 83, 153, 90, 165, 165, 90, 1, 1.04771
380, 3, wb, attraction, a-b-db, 14, 2, 6, 16, 83, 153, 90, 165, 165, 90, 3, 0.948715
380, 3, wb, attraction, a-b-db, 2, 2, 6, 17, 165, 90, 89, 163, 90, 165, 1, 0.844276
380, 3, wb, attraction, a-b-db, 2, 2, 6, 17, 165, 90, 89, 163, 90, 165, 2, 0.697292
380, 3, wb, filler, NA, 999, 999, 6, 18, 91, 175, 178, 159, 67, 89, 3, 0.707009
380, 3, wb, filler, NA, 999, 999, 6, 18, 91, 175, 178, 159, 67, 89, 2, 0.397407
380, 3, wb, filler, NA, 999, 999, 6, 19, 170, 72, 77, 140, 159, 115, 2, 2.73935
380, 3, wb, filler, NA, 999, 999, 6, 19, 170, 72, 77, 140, 159, 115, 3, 8.89972
380, 3, wb, catch, NA, 999, 999, 6, 20, 84, 111, 142, 113, 126, 189, 1, 0.71501
380, 3, wb, catch, NA, 999, 999, 6, 20, 84, 111, 142, 113, 126, 189, 3, 0.773465
380, 3, wb, attraction, a-b-da, 2, 1, 6, 21, 134, 59, 60, 135, 135, 60, 2, 2.05182
380, 3, wb, attraction, a-b-da, 2, 1, 6, 21, 134, 59, 60, 135, 135, 60, 3, 1.24834
380, 3, wb, attraction, a-b-db, 14, 1, 6, 22, 135, 60, 56, 125, 60, 135, 2, 14.7959
380, 3, wb, attraction, a-b-db, 14, 1, 6, 22, 135, 60, 56, 125, 60, 135, 1, 0.430598
380, 3, wb, attraction, a-b-db, 9, 3, 6, 23, 195, 120, 114, 186, 120, 195, 2, 1.08314
380, 3, wb, attraction, a-b-db, 9, 3, 6, 23, 195, 120, 114, 186, 120, 195, 3, 0.502711
380, 3, wb, attraction, a-b-da, 5, 3, 6, 24, 190, 117, 120, 195, 195, 120, 1, 1.12046
380, 3, wb, attraction, a-b-da, 5, 3, 6, 24, 190, 117, 120, 195, 195, 120, 2, 0.418791
380, 3, wb, attraction, a-b-da, 14, 1, 6, 25, 135, 60, 60, 135, 125, 56, 1, 1.32787
380, 3, wb, attraction, a-b-da, 14, 1, 6, 25, 135, 60, 60, 135, 125, 56, 2, 0.537536
380, 3, wb, attraction, a-b-db, 5, 2, 6, 26, 165, 90, 90, 165, 88, 161, 2, 0.817888
380, 3, wb, attraction, a-b-db, 5, 2, 6, 26, 165, 90, 90, 165, 88, 161, 3, 1.84837
380, 3, wb, attraction, a-b-da, 9, 2, 6, 27, 165, 90, 157, 86, 90, 165, 1, 1.71565
380, 3, wb, attraction, a-b-da, 9, 2, 6, 27, 165, 90, 157, 86, 90, 165, 3, 16.5577
380, 3, wb, filler, NA, 999, 999, 6, 28, 118, 99, 169, 109, 103, 101, 3, 0.768515
380, 3, wb, filler, NA, 999, 999, 6, 28, 118, 99, 169, 109, 103, 101, 2, 0.425111
380, 3, wb, filler, NA, 999, 999, 6, 29, 111, 96, 147, 77, 118, 80, 3, 1.21347
380, 3, wb, filler, NA, 999, 999, 6, 29, 111, 96, 147, 77, 118, 80, 2, 0.651711
380, 3, wb, attraction, a-b-db, 14, 3, 6, 30, 195, 120, 120, 195, 111, 181, 1, 0.679427
380, 3, wb, attraction, a-b-db, 14, 3, 6, 30, 195, 120, 120, 195, 111, 181, 3, 0.355285
380, 3, wb, attraction, a-b-da, 5, 2, 6, 31, 161, 88, 90, 165, 165, 90, 2, 0.77107
380, 3, wb, attraction, a-b-da, 5, 2, 6, 31, 161, 88, 90, 165, 165, 90, 3, 0.338752
380, 3, wb, filler, NA, 999, 999, 6, 32, 169, 167, 190, 77, 74, 131, 3, 1.29936
380, 3, wb, filler, NA, 999, 999, 6, 32, 169, 167, 190, 77, 74, 131, 1, 0.862171
380, 3, wb, catch, NA, 999, 999, 6, 33, 125, 130, 117, 78, 130, 185, 2, 0.817163
380, 3, wb, catch, NA, 999, 999, 6, 33, 125, 130, 117, 78, 130, 185, 3, 0.271591
380, 3, wb, attraction, a-b-db, 9, 2, 6, 34, 86, 157, 90, 165, 165, 90, 1, 0.81077
380, 3, wb, attraction, a-b-db, 9, 2, 6, 34, 86, 157, 90, 165, 165, 90, 2, 0.489108
380, 3, wb, attraction, a-b-da, 9, 1, 6, 35, 129, 57, 60, 135, 135, 60, 3, 0.555649
380, 3, wb, attraction, a-b-da, 9, 1, 6, 35, 129, 57, 60, 135, 135, 60, 2, 0.836054
380, 3, wb, filler, NA, 999, 999, 6, 36, 76, 181, 108, 152, 67, 153, 3, 0.864392
380, 3, wb, filler, NA, 999, 999, 6, 36, 76, 181, 108, 152, 67, 153, 2, 1.37276
380, 3, wb, attraction, a-b-db, 2, 3, 6, 37, 195, 120, 119, 193, 120, 195, 2, 13.9077
380, 3, wb, attraction, a-b-db, 2, 3, 6, 37, 195, 120, 119, 193, 120, 195, 3, 0.346605
380, 3, wb, attraction, a-b-da, 5, 3, 7, 1, 190, 117, 120, 195, 195, 120, 1, 0.602404
380, 3, wb, attraction, a-b-da, 5, 3, 7, 1, 190, 117, 120, 195, 195, 120, 2, 0.345703
380, 3, wb, filler, NA, 999, 999, 7, 2, 144, 145, 146, 128, 135, 158, 3, 0.681435
380, 3, wb, filler, NA, 999, 999, 7, 2, 144, 145, 146, 128, 135, 158, 2, 0.333131
380, 3, wb, catch, NA, 999, 999, 7, 3, 147, 168, 100, 155, 60, 135, 3, 0.909666
380, 3, wb, catch, NA, 999, 999, 7, 3, 147, 168, 100, 155, 60, 135, 1, 6.01606
380, 3, wb, filler, NA, 999, 999, 7, 4, 84, 159, 79, 128, 92, 86, 3, 0.635452
380, 3, wb, filler, NA, 999, 999, 7, 4, 84, 159, 79, 128, 92, 86, 1, 0.665246
380, 3, wb, filler, NA, 999, 999, 7, 5, 161, 191, 125, 129, 72, 98, 3, 0.444191
380, 3, wb, filler, NA, 999, 999, 7, 5, 161, 191, 125, 129, 72, 98, 1, 0.36942
380, 3, wb, filler, NA, 999, 999, 7, 6, 73, 191, 91, 186, 71, 99, 3, 0.70453
380, 3, wb, filler, NA, 999, 999, 7, 6, 73, 191, 91, 186, 71, 99, 2, 0.399975
380, 3, wb, attraction, a-b-db, 9, 3, 7, 7, 195, 120, 120, 195, 114, 186, 1, 0.69685
380, 3, wb, attraction, a-b-db, 9, 3, 7, 7, 195, 120, 120, 195, 114, 186, 3, 0.443874
380, 3, wb, attraction, a-b-da, 14, 3, 7, 8, 181, 111, 120, 195, 195, 120, 1, 0.583682
380, 3, wb, attraction, a-b-da, 14, 3, 7, 8, 181, 111, 120, 195, 195, 120, 2, 12.4075
380, 3, wb, attraction, a-b-da, 2, 1, 7, 9, 134, 59, 135, 60, 60, 135, 3, 1.04151
380, 3, wb, attraction, a-b-da, 2, 1, 7, 9, 134, 59, 135, 60, 60, 135, 1, 0.542514
380, 3, wb, attraction, a-b-da, 5, 2, 7, 10, 165, 90, 161, 88, 90, 165, 2, 0.622323
380, 3, wb, attraction, a-b-da, 5, 2, 7, 10, 165, 90, 161, 88, 90, 165, 1, 0.380144
380, 3, wb, attraction, a-b-db, 2, 2, 7, 11, 89, 163, 165, 90, 90, 165, 3, 0.658594
380, 3, wb, attraction, a-b-db, 2, 2, 7, 11, 89, 163, 165, 90, 90, 165, 2, 0.375096
380, 3, wb, attraction, a-b-da, 14, 2, 7, 12, 153, 83, 90, 165, 165, 90, 1, 0.837509
380, 3, wb, attraction, a-b-da, 14, 2, 7, 12, 153, 83, 90, 165, 165, 90, 2, 0.443297
380, 3, wb, attraction, a-b-da, 9, 3, 7, 13, 186, 114, 120, 195, 195, 120, 1, 2.81494
380, 3, wb, attraction, a-b-da, 9, 3, 7, 13, 186, 114, 120, 195, 195, 120, 2, 2.0928
380, 3, wb, attraction, a-b-da, 2, 3, 7, 14, 195, 120, 120, 195, 193, 119, 1, 56.55
380, 3, wb, attraction, a-b-da, 2, 3, 7, 14, 195, 120, 120, 195, 193, 119, 2, 0.366373
380, 3, wb, attraction, a-b-db, 2, 3, 7, 15, 120, 195, 119, 193, 195, 120, 1, 0.885532
380, 3, wb, attraction, a-b-db, 2, 3, 7, 15, 120, 195, 119, 193, 195, 120, 2, 0.297171
380, 3, wb, attraction, a-b-db, 9, 2, 7, 16, 90, 165, 165, 90, 86, 157, 1, 1.05909
380, 3, wb, attraction, a-b-db, 9, 2, 7, 16, 90, 165, 165, 90, 86, 157, 2, 0.8874
380, 3, wb, attraction, a-b-db, 5, 1, 7, 17, 58, 132, 60, 135, 135, 60, 1, 1.13772
380, 3, wb, attraction, a-b-db, 5, 1, 7, 17, 58, 132, 60, 135, 135, 60, 3, 0.747339
380, 3, wb, attraction, a-b-db, 2, 1, 7, 18, 135, 60, 59, 134, 60, 135, 3, 0.931011
380, 3, wb, attraction, a-b-db, 2, 1, 7, 18, 135, 60, 59, 134, 60, 135, 2, 0.396723
380, 3, wb, attraction, a-b-db, 14, 3, 7, 19, 111, 181, 120, 195, 195, 120, 1, 0.762489
380, 3, wb, attraction, a-b-db, 14, 3, 7, 19, 111, 181, 120, 195, 195, 120, 2, 0.410881
380, 3, wb, filler, NA, 999, 999, 7, 20, 173, 101, 134, 160, 106, 149, 3, 0.888112
380, 3, wb, filler, NA, 999, 999, 7, 20, 173, 101, 134, 160, 106, 149, 2, 0.315103
380, 3, wb, filler, NA, 999, 999, 7, 21, 189, 173, 99, 180, 145, 133, 2, 1.02827
380, 3, wb, filler, NA, 999, 999, 7, 21, 189, 173, 99, 180, 145, 133, 1, 0.386019
380, 3, wb, attraction, a-b-da, 2, 2, 7, 22, 163, 89, 165, 90, 90, 165, 2, 0.936393
380, 3, wb, attraction, a-b-da, 2, 2, 7, 22, 163, 89, 165, 90, 90, 165, 1, 0.442088
380, 3, wb, attraction, a-b-da, 5, 1, 7, 23, 135, 60, 132, 58, 60, 135, 2, 0.597886
380, 3, wb, attraction, a-b-da, 5, 1, 7, 23, 135, 60, 132, 58, 60, 135, 3, 0.429065
380, 3, wb, catch, NA, 999, 999, 7, 24, 111, 84, 123, 132, 142, 173, 1, 0.609406
380, 3, wb, catch, NA, 999, 999, 7, 24, 111, 84, 123, 132, 142, 173, 2, 0.367921
380, 3, wb, attraction, a-b-db, 9, 1, 7, 25, 60, 135, 135, 60, 57, 129, 3, 11.3912
380, 3, wb, attraction, a-b-db, 9, 1, 7, 25, 60, 135, 135, 60, 57, 129, 2, 0.338873
380, 3, wb, filler, NA, 999, 999, 7, 26, 100, 79, 63, 148, 151, 155, 1, 0.779365
380, 3, wb, filler, NA, 999, 999, 7, 26, 100, 79, 63, 148, 151, 155, 3, 0.347075
380, 3, wb, attraction, a-b-db, 5, 2, 7, 27, 88, 161, 165, 90, 90, 165, 1, 0.618914
380, 3, wb, attraction, a-b-db, 5, 2, 7, 27, 88, 161, 165, 90, 90, 165, 2, 0.321449
380, 3, wb, filler, NA, 999, 999, 7, 28, 172, 121, 78, 154, 170, 128, 2, 1.05853
380, 3, wb, filler, NA, 999, 999, 7, 28, 172, 121, 78, 154, 170, 128, 1, 0.742963
380, 3, wb, attraction, a-b-da, 9, 2, 7, 29, 157, 86, 90, 165, 165, 90, 2, 0.614703
380, 3, wb, attraction, a-b-da, 9, 2, 7, 29, 157, 86, 90, 165, 165, 90, 3, 5.30109
380, 3, wb, attraction, a-b-db, 14, 2, 7, 30, 83, 153, 90, 165, 165, 90, 1, 11.3013
380, 3, wb, attraction, a-b-db, 14, 2, 7, 30, 83, 153, 90, 165, 165, 90, 2, 0.333128
380, 3, wb, attraction, a-b-db, 14, 1, 7, 31, 56, 125, 60, 135, 135, 60, 3, 1.11763
380, 3, wb, attraction, a-b-db, 14, 1, 7, 31, 56, 125, 60, 135, 135, 60, 2, 1.04801
380, 3, wb, filler, NA, 999, 999, 7, 32, 77, 117, 128, 142, 144, 151, 1, 0.539486
380, 3, wb, filler, NA, 999, 999, 7, 32, 77, 117, 128, 142, 144, 151, 3, 0.364613
380, 3, wb, attraction, a-b-da, 14, 1, 7, 33, 60, 135, 135, 60, 125, 56, 1, 0.739912
380, 3, wb, attraction, a-b-da, 14, 1, 7, 33, 60, 135, 135, 60, 125, 56, 3, 4.48486
380, 3, wb, attraction, a-b-db, 5, 3, 7, 34, 117, 190, 195, 120, 120, 195, 1, 0.902092
380, 3, wb, attraction, a-b-db, 5, 3, 7, 34, 117, 190, 195, 120, 120, 195, 3, 0.537124
380, 3, wb, filler, NA, 999, 999, 7, 35, 124, 179, 141, 144, 77, 98, 1, 1.14558
380, 3, wb, filler, NA, 999, 999, 7, 35, 124, 179, 141, 144, 77, 98, 2, 17.6827
380, 3, wb, catch, NA, 999, 999, 7, 36, 72, 123, 151, 164, 129, 126, 1, 1.69553
380, 3, wb, catch, NA, 999, 999, 7, 36, 72, 123, 151, 164, 129, 126, 2, 0.67436
380, 3, wb, attraction, a-b-da, 9, 1, 7, 37, 129, 57, 60, 135, 135, 60, 1, 0.756655
380, 3, wb, attraction, a-b-da, 9, 1, 7, 37, 129, 57, 60, 135, 135, 60, 2, 0.845105
380, 3, wb, filler, NA, 999, 999, 8, 1, 188, 69, 90, 97, 170, 155, 2, 0.94486
380, 3, wb, filler, NA, 999, 999, 8, 1, 188, 69, 90, 97, 170, 155, 3, 0.36188
380, 3, wb, attraction, a-b-db, 14, 1, 8, 2, 60, 135, 135, 60, 56, 125, 1, 0.665001
380, 3, wb, attraction, a-b-db, 14, 1, 8, 2, 60, 135, 135, 60, 56, 125, 2, 0.389553
380, 3, wb, attraction, a-b-da, 2, 3, 8, 3, 193, 119, 120, 195, 195, 120, 1, 0.507868
380, 3, wb, attraction, a-b-da, 2, 3, 8, 3, 193, 119, 120, 195, 195, 120, 2, 0.366339
380, 3, wb, attraction, a-b-db, 2, 1, 8, 4, 60, 135, 135, 60, 59, 134, 1, 0.485603
380, 3, wb, attraction, a-b-db, 2, 1, 8, 4, 60, 135, 135, 60, 59, 134, 2, 0.329436
380, 3, wb, attraction, a-b-da, 5, 1, 8, 5, 60, 135, 132, 58, 135, 60, 1, 0.537862
380, 3, wb, attraction, a-b-da, 5, 1, 8, 5, 60, 135, 132, 58, 135, 60, 3, 0.579701
380, 3, wb, attraction, a-b-db, 14, 3, 8, 6, 195, 120, 111, 181, 120, 195, 2, 1.05014
380, 3, wb, attraction, a-b-db, 14, 3, 8, 6, 195, 120, 111, 181, 120, 195, 1, 0.391079
380, 3, wb, attraction, a-b-da, 5, 2, 8, 7, 90, 165, 161, 88, 165, 90, 1, 0.700952
380, 3, wb, attraction, a-b-da, 5, 2, 8, 7, 90, 165, 161, 88, 165, 90, 2, 0.623976
380, 3, wb, attraction, a-b-db, 9, 1, 8, 8, 60, 135, 135, 60, 57, 129, 1, 0.812358
380, 3, wb, attraction, a-b-db, 9, 1, 8, 8, 60, 135, 135, 60, 57, 129, 2, 0.458781
380, 3, wb, catch, NA, 999, 999, 8, 9, 160, 95, 103, 92, 171, 144, 3, 1.08606
380, 3, wb, catch, NA, 999, 999, 8, 9, 160, 95, 103, 92, 171, 144, 2, 0.673492
380, 3, wb, attraction, a-b-db, 5, 2, 8, 10, 165, 90, 90, 165, 88, 161, 2, 0.907911
380, 3, wb, attraction, a-b-db, 5, 2, 8, 10, 165, 90, 90, 165, 88, 161, 3, 0.502324
380, 3, wb, attraction, a-b-da, 14, 1, 8, 11, 60, 135, 125, 56, 135, 60, 1, 15.104
380, 3, wb, attraction, a-b-da, 14, 1, 8, 11, 60, 135, 125, 56, 135, 60, 2, 0.854674
380, 3, wb, catch, NA, 999, 999, 8, 12, 93, 102, 93, 162, 135, 180, 1, 0.466448
380, 3, wb, catch, NA, 999, 999, 8, 12, 93, 102, 93, 162, 135, 180, 3, 0.334919
380, 3, wb, filler, NA, 999, 999, 8, 13, 122, 140, 108, 181, 173, 110, 2, 0.775389
380, 3, wb, filler, NA, 999, 999, 8, 13, 122, 140, 108, 181, 173, 110, 1, 0.311153
380, 3, wb, attraction, a-b-db, 5, 3, 8, 14, 195, 120, 117, 190, 120, 195, 3, 0.672195
380, 3, wb, attraction, a-b-db, 5, 3, 8, 14, 195, 120, 117, 190, 120, 195, 1, 0.42012
380, 3, wb, filler, NA, 999, 999, 8, 15, 179, 98, 131, 84, 108, 195, 2, 0.593218
380, 3, wb, filler, NA, 999, 999, 8, 15, 179, 98, 131, 84, 108, 195, 3, 0.280384
380, 3, wb, attraction, a-b-da, 9, 1, 8, 16, 135, 60, 60, 135, 129, 57, 3, 0.994938
380, 3, wb, attraction, a-b-da, 9, 1, 8, 16, 135, 60, 60, 135, 129, 57, 2, 0.289943
380, 3, wb, attraction, a-b-db, 9, 3, 8, 17, 120, 195, 114, 186, 195, 120, 1, 0.603657
380, 3, wb, attraction, a-b-db, 9, 3, 8, 17, 120, 195, 114, 186, 195, 120, 2, 0.282838
380, 3, wb, filler, NA, 999, 999, 8, 18, 115, 125, 132, 119, 152, 74, 1, 0.469326
380, 3, wb, filler, NA, 999, 999, 8, 18, 115, 125, 132, 119, 152, 74, 2, 0.233869
380, 3, wb, filler, NA, 999, 999, 8, 19, 187, 66, 71, 153, 81, 130, 1, 0.558304
380, 3, wb, filler, NA, 999, 999, 8, 19, 187, 66, 71, 153, 81, 130, 3, 0.574833
380, 3, wb, attraction, a-b-da, 2, 2, 8, 20, 90, 165, 163, 89, 165, 90, 1, 0.557209
380, 3, wb, attraction, a-b-da, 2, 2, 8, 20, 90, 165, 163, 89, 165, 90, 3, 0.6938
380, 3, wb, attraction, a-b-da, 14, 3, 8, 21, 120, 195, 195, 120, 181, 111, 3, 0.90339
380, 3, wb, attraction, a-b-da, 14, 3, 8, 21, 120, 195, 195, 120, 181, 111, 2, 0.266422
380, 3, wb, attraction, a-b-da, 2, 1, 8, 22, 135, 60, 60, 135, 134, 59, 3, 0.877674
380, 3, wb, attraction, a-b-da, 2, 1, 8, 22, 135, 60, 60, 135, 134, 59, 2, 0.457369
380, 3, wb, filler, NA, 999, 999, 8, 23, 193, 64, 110, 150, 90, 165, 1, 0.676494
380, 3, wb, filler, NA, 999, 999, 8, 23, 193, 64, 110, 150, 90, 165, 3, 0.52826
380, 3, wb, catch, NA, 999, 999, 8, 24, 91, 104, 109, 146, 130, 185, 1, 0.576618
380, 3, wb, catch, NA, 999, 999, 8, 24, 91, 104, 109, 146, 130, 185, 3, 0.376553
380, 3, wb, attraction, a-b-db, 9, 2, 8, 25, 165, 90, 86, 157, 90, 165, 3, 1.23889
380, 3, wb, attraction, a-b-db, 9, 2, 8, 25, 165, 90, 86, 157, 90, 165, 1, 0.627814
380, 3, wb, attraction, a-b-da, 5, 3, 8, 26, 195, 120, 190, 117, 120, 195, 3, 0.672286
380, 3, wb, attraction, a-b-da, 5, 3, 8, 26, 195, 120, 190, 117, 120, 195, 1, 0.651985
380, 3, wb, attraction, a-b-db, 2, 3, 8, 27, 120, 195, 119, 193, 195, 120, 3, 0.807778
380, 3, wb, attraction, a-b-db, 2, 3, 8, 27, 120, 195, 119, 193, 195, 120, 2, 11.0222
380, 3, wb, filler, NA, 999, 999, 8, 28, 171, 157, 178, 146, 182, 66, 3, 0.79995
380, 3, wb, filler, NA, 999, 999, 8, 28, 171, 157, 178, 146, 182, 66, 2, 0.351184
380, 3, wb, filler, NA, 999, 999, 8, 29, 122, 138, 100, 162, 121, 134, 1, 0.326832
380, 3, wb, filler, NA, 999, 999, 8, 29, 122, 138, 100, 162, 121, 134, 2, 0.856706
380, 3, wb, attraction, a-b-da, 14, 2, 8, 30, 90, 165, 165, 90, 153, 83, 2, 0.684422
380, 3, wb, attraction, a-b-da, 14, 2, 8, 30, 90, 165, 165, 90, 153, 83, 3, 0.296254
380, 3, wb, attraction, a-b-db, 14, 2, 8, 31, 90, 165, 165, 90, 83, 153, 2, 0.490095
380, 3, wb, attraction, a-b-db, 14, 2, 8, 31, 90, 165, 165, 90, 83, 153, 3, 0.349193
380, 3, wb, attraction, a-b-db, 5, 1, 8, 32, 58, 132, 135, 60, 60, 135, 2, 0.717005
380, 3, wb, attraction, a-b-db, 5, 1, 8, 32, 58, 132, 135, 60, 60, 135, 3, 0.335455
380, 3, wb, filler, NA, 999, 999, 8, 33, 90, 57, 195, 168, 63, 193, 1, 0.599953
380, 3, wb, filler, NA, 999, 999, 8, 33, 90, 57, 195, 168, 63, 193, 2, 0.295004
380, 3, wb, attraction, a-b-da, 9, 2, 8, 34, 165, 90, 90, 165, 157, 86, 2, 0.552913
380, 3, wb, attraction, a-b-da, 9, 2, 8, 34, 165, 90, 90, 165, 157, 86, 1, 0.474044
380, 3, wb, filler, NA, 999, 999, 8, 35, 134, 172, 90, 172, 68, 179, 2, 0.604502
380, 3, wb, filler, NA, 999, 999, 8, 35, 134, 172, 90, 172, 68, 179, 1, 0.579649
380, 3, wb, attraction, a-b-da, 9, 3, 8, 36, 120, 195, 186, 114, 195, 120, 2, 0.514147
380, 3, wb, attraction, a-b-da, 9, 3, 8, 36, 120, 195, 186, 114, 195, 120, 1, 0.284656
380, 3, wb, attraction, a-b-db, 2, 2, 8, 37, 90, 165, 89, 163, 165, 90, 2, 0.567001
380, 3, wb, attraction, a-b-db, 2, 2, 8, 37, 90, 165, 89, 163, 165, 90, 1, 0.319527
