sub_n, computer_n, bw_cond, effect, set, distance, diag, block_n, trial_n, h1, w1, h2, w2, h3, w3, choice, rt 
331, 3, bw, practice, NA, 999, 999, 0, 1, 93, 129, 170, 156, 81, 188, 2, 3.79884
331, 3, bw, practice, NA, 999, 999, 0, 1, 93, 129, 170, 156, 81, 188, 1, 1.90998
331, 3, bw, practice, NA, 999, 999, 0, 2, 132, 171, 87, 114, 60, 125, 1, 3.94771
331, 3, bw, practice, NA, 999, 999, 0, 2, 132, 171, 87, 114, 60, 125, 3, 4.13253
331, 3, bw, practice, NA, 999, 999, 0, 3, 115, 117, 187, 182, 171, 79, 2, 3.03267
331, 3, bw, practice, NA, 999, 999, 0, 3, 115, 117, 187, 182, 171, 79, 3, 2.70913
331, 3, bw, attraction, a-b-da, 14, 3, 1, 1, 181, 111, 120, 195, 195, 120, 2, 3.32222
331, 3, bw, attraction, a-b-da, 14, 3, 1, 1, 181, 111, 120, 195, 195, 120, 1, 1.73904
331, 3, bw, attraction, a-b-db, 14, 3, 1, 2, 120, 195, 111, 181, 195, 120, 1, 3.91508
331, 3, bw, attraction, a-b-db, 14, 3, 1, 2, 120, 195, 111, 181, 195, 120, 3, 3.76463
331, 3, bw, attraction, a-b-da, 9, 2, 1, 3, 157, 86, 165, 90, 90, 165, 3, 2.65866
331, 3, bw, attraction, a-b-da, 9, 2, 1, 3, 157, 86, 165, 90, 90, 165, 1, 3.39038
331, 3, bw, attraction, a-b-da, 9, 3, 1, 4, 195, 120, 186, 114, 120, 195, 3, 1.26808
331, 3, bw, attraction, a-b-da, 9, 3, 1, 4, 195, 120, 186, 114, 120, 195, 2, 1.28823
331, 3, bw, attraction, a-b-da, 5, 2, 1, 5, 161, 88, 165, 90, 90, 165, 3, 3.49041
331, 3, bw, attraction, a-b-da, 5, 2, 1, 5, 161, 88, 165, 90, 90, 165, 2, 1.10065
331, 3, bw, filler, NA, 999, 999, 1, 6, 187, 157, 189, 136, 155, 66, 1, 1.59829
331, 3, bw, filler, NA, 999, 999, 1, 6, 187, 157, 189, 136, 155, 66, 3, 1.01317
331, 3, bw, attraction, a-b-da, 2, 1, 1, 7, 135, 60, 134, 59, 60, 135, 3, 3.36997
331, 3, bw, attraction, a-b-da, 2, 1, 1, 7, 135, 60, 134, 59, 60, 135, 2, 0.937634
331, 3, bw, filler, NA, 999, 999, 1, 8, 89, 128, 112, 78, 110, 191, 3, 1.1059
331, 3, bw, filler, NA, 999, 999, 1, 8, 89, 128, 112, 78, 110, 191, 2, 1.02824
331, 3, bw, attraction, a-b-db, 9, 1, 1, 9, 57, 129, 60, 135, 135, 60, 2, 1.93649
331, 3, bw, attraction, a-b-db, 9, 1, 1, 9, 57, 129, 60, 135, 135, 60, 1, 1.03389
331, 3, bw, filler, NA, 999, 999, 1, 10, 167, 139, 96, 102, 66, 107, 1, 1.03011
331, 3, bw, filler, NA, 999, 999, 1, 10, 167, 139, 96, 102, 66, 107, 3, 1.0598
331, 3, bw, attraction, a-b-db, 9, 3, 1, 11, 114, 186, 195, 120, 120, 195, 3, 1.31875
331, 3, bw, attraction, a-b-db, 9, 3, 1, 11, 114, 186, 195, 120, 120, 195, 2, 2.10522
331, 3, bw, catch, NA, 999, 999, 1, 12, 150, 165, 135, 60, 122, 133, 1, 1.58637
331, 3, bw, catch, NA, 999, 999, 1, 12, 150, 165, 135, 60, 122, 133, 2, 0.993766
331, 3, bw, attraction, a-b-da, 5, 3, 1, 13, 190, 117, 120, 195, 195, 120, 2, 2.34342
331, 3, bw, attraction, a-b-da, 5, 3, 1, 13, 190, 117, 120, 195, 195, 120, 1, 0.688083
331, 3, bw, attraction, a-b-db, 9, 2, 1, 14, 90, 165, 86, 157, 165, 90, 2, 2.63425
331, 3, bw, attraction, a-b-db, 9, 2, 1, 14, 90, 165, 86, 157, 165, 90, 3, 0.943484
331, 3, bw, attraction, a-b-db, 2, 1, 1, 15, 135, 60, 59, 134, 60, 135, 2, 2.14316
331, 3, bw, attraction, a-b-db, 2, 1, 1, 15, 135, 60, 59, 134, 60, 135, 1, 1.07978
331, 3, bw, attraction, a-b-da, 14, 2, 1, 16, 90, 165, 165, 90, 153, 83, 1, 2.06606
331, 3, bw, attraction, a-b-da, 14, 2, 1, 16, 90, 165, 165, 90, 153, 83, 3, 0.742084
331, 3, bw, filler, NA, 999, 999, 1, 17, 120, 81, 193, 86, 193, 129, 3, 0.829696
331, 3, bw, filler, NA, 999, 999, 1, 17, 120, 81, 193, 86, 193, 129, 1, 0.619396
331, 3, bw, filler, NA, 999, 999, 1, 18, 115, 144, 127, 119, 142, 116, 3, 1.24871
331, 3, bw, filler, NA, 999, 999, 1, 18, 115, 144, 127, 119, 142, 116, 2, 0.549491
331, 3, bw, filler, NA, 999, 999, 1, 19, 175, 90, 143, 113, 190, 59, 2, 1.94125
331, 3, bw, filler, NA, 999, 999, 1, 19, 175, 90, 143, 113, 190, 59, 3, 0.470078
331, 3, bw, filler, NA, 999, 999, 1, 20, 145, 120, 184, 183, 71, 138, 2, 0.825031
331, 3, bw, filler, NA, 999, 999, 1, 20, 145, 120, 184, 183, 71, 138, 3, 0.598766
331, 3, bw, catch, NA, 999, 999, 1, 21, 127, 188, 94, 161, 124, 71, 1, 1.00453
331, 3, bw, catch, NA, 999, 999, 1, 21, 127, 188, 94, 161, 124, 71, 3, 0.890963
331, 3, bw, filler, NA, 999, 999, 1, 22, 68, 173, 142, 167, 96, 179, 2, 1.29246
331, 3, bw, filler, NA, 999, 999, 1, 22, 68, 173, 142, 167, 96, 179, 1, 0.751552
331, 3, bw, attraction, a-b-db, 5, 2, 1, 23, 165, 90, 90, 165, 88, 161, 2, 2.69509
331, 3, bw, attraction, a-b-db, 5, 2, 1, 23, 165, 90, 90, 165, 88, 161, 1, 0.465634
331, 3, bw, attraction, a-b-db, 5, 1, 1, 24, 58, 132, 60, 135, 135, 60, 3, 1.59666
331, 3, bw, attraction, a-b-db, 5, 1, 1, 24, 58, 132, 60, 135, 135, 60, 2, 0.779587
331, 3, bw, attraction, a-b-db, 5, 3, 1, 25, 117, 190, 120, 195, 195, 120, 2, 1.78588
331, 3, bw, attraction, a-b-db, 5, 3, 1, 25, 117, 190, 120, 195, 195, 120, 1, 1.06738
331, 3, bw, attraction, a-b-da, 14, 1, 1, 26, 135, 60, 125, 56, 60, 135, 3, 1.22819
331, 3, bw, attraction, a-b-da, 14, 1, 1, 26, 135, 60, 125, 56, 60, 135, 2, 2.14587
331, 3, bw, attraction, a-b-da, 2, 3, 1, 27, 120, 195, 193, 119, 195, 120, 1, 4.30512
331, 3, bw, attraction, a-b-da, 2, 3, 1, 27, 120, 195, 193, 119, 195, 120, 3, 0.523097
331, 3, bw, attraction, a-b-db, 2, 3, 1, 28, 119, 193, 195, 120, 120, 195, 3, 1.75622
331, 3, bw, attraction, a-b-db, 2, 3, 1, 28, 119, 193, 195, 120, 120, 195, 2, 0.620297
331, 3, bw, attraction, a-b-da, 2, 2, 1, 29, 90, 165, 165, 90, 163, 89, 1, 1.52946
331, 3, bw, attraction, a-b-da, 2, 2, 1, 29, 90, 165, 165, 90, 163, 89, 2, 0.546863
331, 3, bw, attraction, a-b-db, 14, 1, 1, 30, 60, 135, 56, 125, 135, 60, 2, 2.28265
331, 3, bw, attraction, a-b-db, 14, 1, 1, 30, 60, 135, 56, 125, 135, 60, 3, 0.717891
331, 3, bw, attraction, a-b-da, 5, 1, 1, 31, 60, 135, 135, 60, 132, 58, 1, 1.23899
331, 3, bw, attraction, a-b-da, 5, 1, 1, 31, 60, 135, 135, 60, 132, 58, 3, 0.715888
331, 3, bw, filler, NA, 999, 999, 1, 32, 98, 169, 109, 73, 116, 116, 1, 1.54091
331, 3, bw, filler, NA, 999, 999, 1, 32, 98, 169, 109, 73, 116, 116, 2, 0.389701
331, 3, bw, attraction, a-b-da, 9, 1, 1, 33, 129, 57, 60, 135, 135, 60, 2, 2.23623
331, 3, bw, attraction, a-b-da, 9, 1, 1, 33, 129, 57, 60, 135, 135, 60, 1, 1.82553
331, 3, bw, filler, NA, 999, 999, 1, 34, 141, 61, 58, 169, 112, 91, 3, 6.38953
331, 3, bw, filler, NA, 999, 999, 1, 34, 141, 61, 58, 169, 112, 91, 1, 0.834966
331, 3, bw, catch, NA, 999, 999, 1, 35, 74, 121, 142, 113, 129, 186, 3, 0.655239
331, 3, bw, catch, NA, 999, 999, 1, 35, 74, 121, 142, 113, 129, 186, 1, 0.475643
331, 3, bw, attraction, a-b-db, 2, 2, 1, 36, 90, 165, 165, 90, 89, 163, 1, 1.51009
331, 3, bw, attraction, a-b-db, 2, 2, 1, 36, 90, 165, 165, 90, 89, 163, 2, 0.528251
331, 3, bw, attraction, a-b-db, 14, 2, 1, 37, 90, 165, 165, 90, 83, 153, 1, 1.2008
331, 3, bw, attraction, a-b-db, 14, 2, 1, 37, 90, 165, 165, 90, 83, 153, 3, 0.431622
331, 3, bw, filler, NA, 999, 999, 2, 1, 162, 120, 70, 128, 86, 193, 1, 1.19606
331, 3, bw, filler, NA, 999, 999, 2, 1, 162, 120, 70, 128, 86, 193, 2, 0.435146
331, 3, bw, attraction, a-b-da, 14, 3, 2, 2, 195, 120, 120, 195, 181, 111, 2, 4.55153
331, 3, bw, attraction, a-b-da, 14, 3, 2, 2, 195, 120, 120, 195, 181, 111, 3, 1.52754
331, 3, bw, attraction, a-b-da, 9, 1, 2, 3, 129, 57, 60, 135, 135, 60, 2, 6.29566
331, 3, bw, attraction, a-b-da, 9, 1, 2, 3, 129, 57, 60, 135, 135, 60, 1, 0.680917
331, 3, bw, attraction, a-b-da, 5, 1, 2, 4, 135, 60, 132, 58, 60, 135, 3, 3.68328
331, 3, bw, attraction, a-b-da, 5, 1, 2, 4, 135, 60, 132, 58, 60, 135, 2, 1.11021
331, 3, bw, filler, NA, 999, 999, 2, 5, 120, 192, 162, 172, 152, 131, 2, 1.27904
331, 3, bw, filler, NA, 999, 999, 2, 5, 120, 192, 162, 172, 152, 131, 3, 0.402632
331, 3, bw, attraction, a-b-db, 5, 1, 2, 6, 58, 132, 60, 135, 135, 60, 3, 3.12843
331, 3, bw, attraction, a-b-db, 5, 1, 2, 6, 58, 132, 60, 135, 135, 60, 1, 0.937467
331, 3, bw, filler, NA, 999, 999, 2, 7, 146, 195, 194, 120, 110, 100, 1, 0.945686
331, 3, bw, filler, NA, 999, 999, 2, 7, 146, 195, 194, 120, 110, 100, 3, 0.394763
331, 3, bw, catch, NA, 999, 999, 2, 8, 77, 118, 195, 120, 92, 163, 2, 1.20053
331, 3, bw, catch, NA, 999, 999, 2, 8, 77, 118, 195, 120, 92, 163, 1, 0.431453
331, 3, bw, attraction, a-b-db, 2, 3, 2, 9, 195, 120, 120, 195, 119, 193, 3, 1.77191
331, 3, bw, attraction, a-b-db, 2, 3, 2, 9, 195, 120, 120, 195, 119, 193, 1, 0.739338
331, 3, bw, attraction, a-b-da, 5, 3, 2, 10, 190, 117, 120, 195, 195, 120, 2, 1.28374
331, 3, bw, attraction, a-b-da, 5, 3, 2, 10, 190, 117, 120, 195, 195, 120, 1, 0.423302
331, 3, bw, attraction, a-b-db, 14, 3, 2, 11, 120, 195, 111, 181, 195, 120, 3, 1.45175
331, 3, bw, attraction, a-b-db, 14, 3, 2, 11, 120, 195, 111, 181, 195, 120, 2, 0.45665
331, 3, bw, attraction, a-b-da, 2, 2, 2, 12, 90, 165, 163, 89, 165, 90, 2, 0.899771
331, 3, bw, attraction, a-b-da, 2, 2, 2, 12, 90, 165, 163, 89, 165, 90, 1, 0.782799
331, 3, bw, attraction, a-b-db, 2, 1, 2, 13, 60, 135, 135, 60, 59, 134, 3, 0.773114
331, 3, bw, attraction, a-b-db, 2, 1, 2, 13, 60, 135, 135, 60, 59, 134, 2, 0.892968
331, 3, bw, attraction, a-b-da, 14, 2, 2, 14, 165, 90, 153, 83, 90, 165, 3, 0.566487
331, 3, bw, attraction, a-b-da, 14, 2, 2, 14, 165, 90, 153, 83, 90, 165, 2, 0.591003
331, 3, bw, attraction, a-b-db, 5, 3, 2, 15, 117, 190, 120, 195, 195, 120, 3, 1.04473
331, 3, bw, attraction, a-b-db, 5, 3, 2, 15, 117, 190, 120, 195, 195, 120, 2, 0.889813
331, 3, bw, filler, NA, 999, 999, 2, 16, 182, 186, 57, 66, 91, 151, 1, 0.988082
331, 3, bw, filler, NA, 999, 999, 2, 16, 182, 186, 57, 66, 91, 151, 2, 0.963168
331, 3, bw, filler, NA, 999, 999, 2, 17, 70, 147, 152, 117, 120, 176, 3, 1.27398
331, 3, bw, filler, NA, 999, 999, 2, 17, 70, 147, 152, 117, 120, 176, 1, 0.565608
331, 3, bw, catch, NA, 999, 999, 2, 18, 65, 130, 137, 178, 112, 143, 2, 0.812671
331, 3, bw, catch, NA, 999, 999, 2, 18, 65, 130, 137, 178, 112, 143, 1, 0.45116
331, 3, bw, filler, NA, 999, 999, 2, 19, 125, 123, 61, 71, 98, 85, 1, 1.39095
331, 3, bw, filler, NA, 999, 999, 2, 19, 125, 123, 61, 71, 98, 85, 2, 0.445738
331, 3, bw, attraction, a-b-db, 14, 1, 2, 20, 60, 135, 135, 60, 56, 125, 3, 2.36161
331, 3, bw, attraction, a-b-db, 14, 1, 2, 20, 60, 135, 135, 60, 56, 125, 1, 0.441493
331, 3, bw, attraction, a-b-da, 2, 1, 2, 21, 60, 135, 134, 59, 135, 60, 3, 1.53339
331, 3, bw, attraction, a-b-da, 2, 1, 2, 21, 60, 135, 134, 59, 135, 60, 1, 0.542761
331, 3, bw, attraction, a-b-da, 14, 1, 2, 22, 135, 60, 60, 135, 125, 56, 1, 1.45462
331, 3, bw, attraction, a-b-da, 14, 1, 2, 22, 135, 60, 60, 135, 125, 56, 2, 0.578768
331, 3, bw, attraction, a-b-db, 2, 2, 2, 23, 89, 163, 90, 165, 165, 90, 2, 1.64918
331, 3, bw, attraction, a-b-db, 2, 2, 2, 23, 89, 163, 90, 165, 165, 90, 3, 0.63798
331, 3, bw, filler, NA, 999, 999, 2, 24, 91, 159, 95, 100, 165, 107, 3, 1.29847
331, 3, bw, filler, NA, 999, 999, 2, 24, 91, 159, 95, 100, 165, 107, 2, 0.413252
331, 3, bw, attraction, a-b-db, 5, 2, 2, 25, 165, 90, 90, 165, 88, 161, 2, 2.16232
331, 3, bw, attraction, a-b-db, 5, 2, 2, 25, 165, 90, 90, 165, 88, 161, 1, 0.434401
331, 3, bw, filler, NA, 999, 999, 2, 26, 78, 115, 148, 56, 75, 81, 1, 1.35877
331, 3, bw, filler, NA, 999, 999, 2, 26, 78, 115, 148, 56, 75, 81, 2, 0.431108
331, 3, bw, filler, NA, 999, 999, 2, 27, 82, 86, 126, 175, 83, 158, 2, 1.09157
331, 3, bw, filler, NA, 999, 999, 2, 27, 82, 86, 126, 175, 83, 158, 1, 1.35061
331, 3, bw, attraction, a-b-da, 2, 3, 2, 28, 120, 195, 193, 119, 195, 120, 1, 1.84605
331, 3, bw, attraction, a-b-da, 2, 3, 2, 28, 120, 195, 193, 119, 195, 120, 2, 0.650708
331, 3, bw, attraction, a-b-da, 9, 2, 2, 29, 157, 86, 90, 165, 165, 90, 1, 1.19062
331, 3, bw, attraction, a-b-da, 9, 2, 2, 29, 157, 86, 90, 165, 165, 90, 2, 1.2374
331, 3, bw, attraction, a-b-db, 14, 2, 2, 30, 83, 153, 90, 165, 165, 90, 2, 2.03366
331, 3, bw, attraction, a-b-db, 14, 2, 2, 30, 83, 153, 90, 165, 165, 90, 1, 0.455001
331, 3, bw, attraction, a-b-db, 9, 2, 2, 31, 90, 165, 86, 157, 165, 90, 1, 1.10676
331, 3, bw, attraction, a-b-db, 9, 2, 2, 31, 90, 165, 86, 157, 165, 90, 3, 1.10906
331, 3, bw, filler, NA, 999, 999, 2, 32, 96, 163, 122, 97, 81, 154, 1, 0.902164
331, 3, bw, filler, NA, 999, 999, 2, 32, 96, 163, 122, 97, 81, 154, 2, 1.17711
331, 3, bw, attraction, a-b-db, 9, 3, 2, 33, 114, 186, 195, 120, 120, 195, 3, 0.863306
331, 3, bw, attraction, a-b-db, 9, 3, 2, 33, 114, 186, 195, 120, 120, 195, 2, 0.931584
331, 3, bw, catch, NA, 999, 999, 2, 34, 184, 131, 133, 62, 120, 135, 1, 1.37992
331, 3, bw, catch, NA, 999, 999, 2, 34, 184, 131, 133, 62, 120, 135, 2, 1.57953
331, 3, bw, attraction, a-b-da, 5, 2, 2, 35, 161, 88, 165, 90, 90, 165, 3, 0.849635
331, 3, bw, attraction, a-b-da, 5, 2, 2, 35, 161, 88, 165, 90, 90, 165, 1, 0.718633
331, 3, bw, attraction, a-b-da, 9, 3, 2, 36, 195, 120, 186, 114, 120, 195, 3, 0.759744
331, 3, bw, attraction, a-b-da, 9, 3, 2, 36, 195, 120, 186, 114, 120, 195, 2, 0.968138
331, 3, bw, attraction, a-b-db, 9, 1, 2, 37, 60, 135, 57, 129, 135, 60, 1, 2.40711
331, 3, bw, attraction, a-b-db, 9, 1, 2, 37, 60, 135, 57, 129, 135, 60, 3, 0.549031
331, 3, bw, attraction, a-b-da, 5, 3, 3, 1, 195, 120, 190, 117, 120, 195, 3, 1.3248
331, 3, bw, attraction, a-b-da, 5, 3, 3, 1, 195, 120, 190, 117, 120, 195, 2, 1.03837
331, 3, bw, catch, NA, 999, 999, 3, 2, 128, 67, 113, 142, 185, 130, 3, 0.786549
331, 3, bw, catch, NA, 999, 999, 3, 2, 128, 67, 113, 142, 185, 130, 1, 0.71435
331, 3, bw, attraction, a-b-da, 5, 2, 3, 3, 161, 88, 165, 90, 90, 165, 3, 2.66732
331, 3, bw, attraction, a-b-da, 5, 2, 3, 3, 161, 88, 165, 90, 90, 165, 2, 0.74319
331, 3, bw, filler, NA, 999, 999, 3, 4, 62, 161, 70, 125, 194, 173, 3, 0.638935
331, 3, bw, filler, NA, 999, 999, 3, 4, 62, 161, 70, 125, 194, 173, 2, 0.604011
331, 3, bw, attraction, a-b-da, 9, 2, 3, 5, 90, 165, 165, 90, 157, 86, 1, 2.1537
331, 3, bw, attraction, a-b-da, 9, 2, 3, 5, 90, 165, 165, 90, 157, 86, 3, 1.73835
331, 3, bw, filler, NA, 999, 999, 3, 6, 147, 158, 174, 193, 105, 65, 2, 0.954557
331, 3, bw, filler, NA, 999, 999, 3, 6, 147, 158, 174, 193, 105, 65, 3, 1.80344
331, 3, bw, attraction, a-b-db, 14, 3, 3, 7, 195, 120, 111, 181, 120, 195, 3, 2.1289
331, 3, bw, attraction, a-b-db, 14, 3, 3, 7, 195, 120, 111, 181, 120, 195, 2, 0.98624
331, 3, bw, attraction, a-b-db, 9, 2, 3, 8, 86, 157, 90, 165, 165, 90, 2, 1.71241
331, 3, bw, attraction, a-b-db, 9, 2, 3, 8, 86, 157, 90, 165, 165, 90, 1, 0.482618
331, 3, bw, catch, NA, 999, 999, 3, 9, 127, 128, 176, 139, 103, 92, 2, 0.909019
331, 3, bw, catch, NA, 999, 999, 3, 9, 127, 128, 176, 139, 103, 92, 3, 0.703364
331, 3, bw, attraction, a-b-db, 14, 1, 3, 10, 135, 60, 56, 125, 60, 135, 3, 1.12119
331, 3, bw, attraction, a-b-db, 14, 1, 3, 10, 135, 60, 56, 125, 60, 135, 2, 0.915387
331, 3, bw, attraction, a-b-db, 9, 1, 3, 11, 57, 129, 135, 60, 60, 135, 3, 0.796397
331, 3, bw, attraction, a-b-db, 9, 1, 3, 11, 57, 129, 135, 60, 60, 135, 2, 0.827422
331, 3, bw, attraction, a-b-da, 14, 3, 3, 12, 195, 120, 120, 195, 181, 111, 2, 1.61574
331, 3, bw, attraction, a-b-da, 14, 3, 3, 12, 195, 120, 120, 195, 181, 111, 3, 0.605892
331, 3, bw, attraction, a-b-db, 5, 1, 3, 13, 135, 60, 60, 135, 58, 132, 3, 2.73169
331, 3, bw, attraction, a-b-db, 5, 1, 3, 13, 135, 60, 60, 135, 58, 132, 1, 0.956781
331, 3, bw, filler, NA, 999, 999, 3, 14, 58, 115, 159, 181, 104, 183, 2, 0.892366
331, 3, bw, filler, NA, 999, 999, 3, 14, 58, 115, 159, 181, 104, 183, 1, 0.583384
331, 3, bw, attraction, a-b-da, 9, 3, 3, 15, 186, 114, 195, 120, 120, 195, 3, 0.813808
331, 3, bw, attraction, a-b-da, 9, 3, 3, 15, 186, 114, 195, 120, 120, 195, 2, 0.492311
331, 3, bw, attraction, a-b-db, 2, 2, 3, 16, 165, 90, 89, 163, 90, 165, 2, 2.58207
331, 3, bw, attraction, a-b-db, 2, 2, 3, 16, 165, 90, 89, 163, 90, 165, 1, 0.605232
331, 3, bw, attraction, a-b-db, 9, 3, 3, 17, 120, 195, 195, 120, 114, 186, 3, 1.06694
331, 3, bw, attraction, a-b-db, 9, 3, 3, 17, 120, 195, 195, 120, 114, 186, 2, 0.583239
331, 3, bw, filler, NA, 999, 999, 3, 18, 62, 119, 67, 108, 82, 69, 3, 0.805693
331, 3, bw, filler, NA, 999, 999, 3, 18, 62, 119, 67, 108, 82, 69, 2, 0.652079
331, 3, bw, attraction, a-b-da, 14, 2, 3, 19, 153, 83, 165, 90, 90, 165, 3, 0.847845
331, 3, bw, attraction, a-b-da, 14, 2, 3, 19, 153, 83, 165, 90, 90, 165, 1, 0.580853
331, 3, bw, filler, NA, 999, 999, 3, 20, 80, 174, 165, 114, 132, 83, 2, 0.715221
331, 3, bw, filler, NA, 999, 999, 3, 20, 80, 174, 165, 114, 132, 83, 3, 0.725853
331, 3, bw, attraction, a-b-db, 2, 1, 3, 21, 135, 60, 59, 134, 60, 135, 1, 0.822076
331, 3, bw, attraction, a-b-db, 2, 1, 3, 21, 135, 60, 59, 134, 60, 135, 2, 0.515904
331, 3, bw, attraction, a-b-db, 2, 3, 3, 22, 195, 120, 119, 193, 120, 195, 2, 0.836913
331, 3, bw, attraction, a-b-db, 2, 3, 3, 22, 195, 120, 119, 193, 120, 195, 1, 0.650717
331, 3, bw, filler, NA, 999, 999, 3, 23, 169, 100, 121, 112, 126, 178, 3, 0.670409
331, 3, bw, filler, NA, 999, 999, 3, 23, 169, 100, 121, 112, 126, 178, 2, 0.618872
331, 3, bw, attraction, a-b-db, 5, 2, 3, 24, 88, 161, 165, 90, 90, 165, 3, 0.767845
331, 3, bw, attraction, a-b-db, 5, 2, 3, 24, 88, 161, 165, 90, 90, 165, 2, 0.71233
331, 3, bw, attraction, a-b-da, 2, 2, 3, 25, 165, 90, 90, 165, 163, 89, 3, 1.97745
331, 3, bw, attraction, a-b-da, 2, 2, 3, 25, 165, 90, 90, 165, 163, 89, 1, 1.64869
331, 3, bw, filler, NA, 999, 999, 3, 26, 84, 158, 161, 65, 68, 152, 1, 1.69224
331, 3, bw, filler, NA, 999, 999, 3, 26, 84, 158, 161, 65, 68, 152, 2, 0.470903
331, 3, bw, attraction, a-b-da, 2, 3, 3, 27, 193, 119, 120, 195, 195, 120, 3, 1.62607
331, 3, bw, attraction, a-b-da, 2, 3, 3, 27, 193, 119, 120, 195, 195, 120, 2, 0.77563
331, 3, bw, filler, NA, 999, 999, 3, 28, 180, 150, 165, 112, 154, 116, 1, 0.749928
331, 3, bw, filler, NA, 999, 999, 3, 28, 180, 150, 165, 112, 154, 116, 3, 0.662926
331, 3, bw, filler, NA, 999, 999, 3, 29, 81, 90, 73, 166, 91, 63, 2, 1.37798
331, 3, bw, filler, NA, 999, 999, 3, 29, 81, 90, 73, 166, 91, 63, 3, 0.705621
331, 3, bw, attraction, a-b-da, 2, 1, 3, 30, 60, 135, 135, 60, 134, 59, 1, 0.923247
331, 3, bw, attraction, a-b-da, 2, 1, 3, 30, 60, 135, 135, 60, 134, 59, 2, 0.788895
331, 3, bw, catch, NA, 999, 999, 3, 31, 110, 85, 110, 145, 155, 160, 3, 0.611261
331, 3, bw, catch, NA, 999, 999, 3, 31, 110, 85, 110, 145, 155, 160, 1, 0.633782
331, 3, bw, attraction, a-b-da, 14, 1, 3, 32, 60, 135, 125, 56, 135, 60, 1, 1.16618
331, 3, bw, attraction, a-b-da, 14, 1, 3, 32, 60, 135, 125, 56, 135, 60, 2, 0.830467
331, 3, bw, filler, NA, 999, 999, 3, 33, 195, 79, 119, 180, 151, 113, 3, 1.32285
331, 3, bw, filler, NA, 999, 999, 3, 33, 195, 79, 119, 180, 151, 113, 1, 0.932384
331, 3, bw, attraction, a-b-db, 5, 3, 3, 34, 120, 195, 195, 120, 117, 190, 3, 1.18877
331, 3, bw, attraction, a-b-db, 5, 3, 3, 34, 120, 195, 195, 120, 117, 190, 2, 1.92357
331, 3, bw, attraction, a-b-da, 5, 1, 3, 35, 60, 135, 132, 58, 135, 60, 1, 1.5242
331, 3, bw, attraction, a-b-da, 5, 1, 3, 35, 60, 135, 132, 58, 135, 60, 3, 0.55776
331, 3, bw, attraction, a-b-db, 14, 2, 3, 36, 165, 90, 90, 165, 83, 153, 1, 1.17299
331, 3, bw, attraction, a-b-db, 14, 2, 3, 36, 165, 90, 90, 165, 83, 153, 2, 0.428507
331, 3, bw, attraction, a-b-da, 9, 1, 3, 37, 129, 57, 60, 135, 135, 60, 3, 2.33704
331, 3, bw, attraction, a-b-da, 9, 1, 3, 37, 129, 57, 60, 135, 135, 60, 2, 1.13815
331, 3, bw, attraction, a-b-db, 5, 2, 4, 1, 90, 165, 88, 161, 165, 90, 2, 1.93855
331, 3, bw, attraction, a-b-db, 5, 2, 4, 1, 90, 165, 88, 161, 165, 90, 3, 0.483231
331, 3, bw, attraction, a-b-db, 14, 2, 4, 2, 90, 165, 165, 90, 83, 153, 1, 0.853699
331, 3, bw, attraction, a-b-db, 14, 2, 4, 2, 90, 165, 165, 90, 83, 153, 3, 0.930712
331, 3, bw, filler, NA, 999, 999, 4, 3, 67, 76, 125, 159, 176, 126, 3, 0.898955
331, 3, bw, filler, NA, 999, 999, 4, 3, 67, 76, 125, 159, 176, 126, 1, 1.18197
331, 3, bw, filler, NA, 999, 999, 4, 4, 154, 144, 164, 110, 100, 85, 1, 0.73221
331, 3, bw, filler, NA, 999, 999, 4, 4, 154, 144, 164, 110, 100, 85, 3, 0.469947
331, 3, bw, attraction, a-b-da, 9, 2, 4, 5, 157, 86, 90, 165, 165, 90, 1, 1.11313
331, 3, bw, attraction, a-b-da, 9, 2, 4, 5, 157, 86, 90, 165, 165, 90, 2, 0.555378
331, 3, bw, filler, NA, 999, 999, 4, 6, 99, 58, 64, 97, 59, 104, 3, 2.27522
331, 3, bw, filler, NA, 999, 999, 4, 6, 99, 58, 64, 97, 59, 104, 1, 0.702617
331, 3, bw, filler, NA, 999, 999, 4, 7, 75, 71, 125, 110, 163, 76, 3, 0.720187
331, 3, bw, filler, NA, 999, 999, 4, 7, 75, 71, 125, 110, 163, 76, 1, 0.610553
331, 3, bw, filler, NA, 999, 999, 4, 8, 187, 87, 75, 105, 138, 86, 1, 0.879636
331, 3, bw, filler, NA, 999, 999, 4, 8, 187, 87, 75, 105, 138, 86, 2, 0.755309
331, 3, bw, attraction, a-b-db, 14, 1, 4, 9, 56, 125, 60, 135, 135, 60, 3, 0.75508
331, 3, bw, attraction, a-b-db, 14, 1, 4, 9, 56, 125, 60, 135, 135, 60, 2, 1.8195
331, 3, bw, catch, NA, 999, 999, 4, 10, 183, 132, 116, 79, 129, 126, 1, 3.6402
331, 3, bw, catch, NA, 999, 999, 4, 10, 183, 132, 116, 79, 129, 126, 2, 0.708332
331, 3, bw, attraction, a-b-da, 9, 1, 4, 11, 60, 135, 135, 60, 129, 57, 2, 1.99738
331, 3, bw, attraction, a-b-da, 9, 1, 4, 11, 60, 135, 135, 60, 129, 57, 3, 0.724186
331, 3, bw, filler, NA, 999, 999, 4, 12, 90, 106, 172, 87, 135, 90, 2, 1.22838
331, 3, bw, filler, NA, 999, 999, 4, 12, 90, 106, 172, 87, 135, 90, 1, 0.578118
331, 3, bw, attraction, a-b-db, 9, 3, 4, 13, 120, 195, 195, 120, 114, 186, 3, 0.736466
331, 3, bw, attraction, a-b-db, 9, 3, 4, 13, 120, 195, 195, 120, 114, 186, 2, 0.602221
331, 3, bw, attraction, a-b-da, 5, 2, 4, 14, 90, 165, 161, 88, 165, 90, 1, 0.751965
331, 3, bw, attraction, a-b-da, 5, 2, 4, 14, 90, 165, 161, 88, 165, 90, 2, 0.521019
331, 3, bw, attraction, a-b-da, 5, 3, 4, 15, 120, 195, 190, 117, 195, 120, 3, 0.738238
331, 3, bw, attraction, a-b-da, 5, 3, 4, 15, 120, 195, 190, 117, 195, 120, 2, 0.339182
331, 3, bw, filler, NA, 999, 999, 4, 16, 65, 170, 122, 96, 121, 62, 2, 0.979655
331, 3, bw, filler, NA, 999, 999, 4, 16, 65, 170, 122, 96, 121, 62, 3, 0.411571
331, 3, bw, filler, NA, 999, 999, 4, 17, 89, 140, 173, 105, 108, 91, 2, 0.920627
331, 3, bw, filler, NA, 999, 999, 4, 17, 89, 140, 173, 105, 108, 91, 1, 0.48287
331, 3, bw, catch, NA, 999, 999, 4, 18, 94, 101, 91, 164, 136, 179, 3, 0.653414
331, 3, bw, catch, NA, 999, 999, 4, 18, 94, 101, 91, 164, 136, 179, 1, 0.786385
331, 3, bw, filler, NA, 999, 999, 4, 19, 184, 69, 194, 132, 81, 59, 2, 0.65683
331, 3, bw, filler, NA, 999, 999, 4, 19, 184, 69, 194, 132, 81, 59, 3, 0.941193
331, 3, bw, attraction, a-b-da, 14, 3, 4, 20, 195, 120, 181, 111, 120, 195, 3, 0.604966
331, 3, bw, attraction, a-b-da, 14, 3, 4, 20, 195, 120, 181, 111, 120, 195, 2, 0.45133
331, 3, bw, attraction, a-b-db, 2, 3, 4, 21, 195, 120, 119, 193, 120, 195, 3, 0.687166
331, 3, bw, attraction, a-b-db, 2, 3, 4, 21, 195, 120, 119, 193, 120, 195, 1, 0.331
331, 3, bw, attraction, a-b-db, 5, 1, 4, 22, 135, 60, 58, 132, 60, 135, 3, 0.555508
331, 3, bw, attraction, a-b-db, 5, 1, 4, 22, 135, 60, 58, 132, 60, 135, 1, 0.411922
331, 3, bw, attraction, a-b-da, 9, 3, 4, 23, 186, 114, 195, 120, 120, 195, 2, 0.801032
331, 3, bw, attraction, a-b-da, 9, 3, 4, 23, 186, 114, 195, 120, 120, 195, 1, 0.360146
331, 3, bw, filler, NA, 999, 999, 4, 24, 67, 188, 114, 97, 177, 82, 3, 0.759273
331, 3, bw, filler, NA, 999, 999, 4, 24, 67, 188, 114, 97, 177, 82, 2, 0.94379
331, 3, bw, attraction, a-b-db, 2, 1, 4, 25, 135, 60, 60, 135, 59, 134, 1, 2.39924
331, 3, bw, attraction, a-b-db, 2, 1, 4, 25, 135, 60, 60, 135, 59, 134, 3, 0.509919
331, 3, bw, attraction, a-b-da, 14, 2, 4, 26, 165, 90, 153, 83, 90, 165, 3, 1.08705
331, 3, bw, attraction, a-b-da, 14, 2, 4, 26, 165, 90, 153, 83, 90, 165, 2, 0.512348
331, 3, bw, attraction, a-b-da, 5, 1, 4, 27, 60, 135, 132, 58, 135, 60, 2, 1.01968
331, 3, bw, attraction, a-b-da, 5, 1, 4, 27, 60, 135, 132, 58, 135, 60, 3, 0.314238
331, 3, bw, attraction, a-b-da, 14, 1, 4, 28, 125, 56, 60, 135, 135, 60, 2, 0.723163
331, 3, bw, attraction, a-b-da, 14, 1, 4, 28, 125, 56, 60, 135, 135, 60, 1, 0.573069
331, 3, bw, catch, NA, 999, 999, 4, 29, 143, 112, 125, 190, 112, 83, 2, 0.803996
331, 3, bw, catch, NA, 999, 999, 4, 29, 143, 112, 125, 190, 112, 83, 3, 0.579153
331, 3, bw, attraction, a-b-da, 2, 3, 4, 30, 120, 195, 193, 119, 195, 120, 3, 0.681615
331, 3, bw, attraction, a-b-da, 2, 3, 4, 30, 120, 195, 193, 119, 195, 120, 2, 0.445395
331, 3, bw, attraction, a-b-da, 2, 1, 4, 31, 60, 135, 135, 60, 134, 59, 1, 0.72113
331, 3, bw, attraction, a-b-da, 2, 1, 4, 31, 60, 135, 135, 60, 134, 59, 3, 0.523063
331, 3, bw, attraction, a-b-db, 5, 3, 4, 32, 195, 120, 117, 190, 120, 195, 1, 1.63608
331, 3, bw, attraction, a-b-db, 5, 3, 4, 32, 195, 120, 117, 190, 120, 195, 3, 0.433424
331, 3, bw, attraction, a-b-db, 14, 3, 4, 33, 120, 195, 111, 181, 195, 120, 1, 0.533818
331, 3, bw, attraction, a-b-db, 14, 3, 4, 33, 120, 195, 111, 181, 195, 120, 3, 0.295714
331, 3, bw, attraction, a-b-db, 2, 2, 4, 34, 89, 163, 165, 90, 90, 165, 2, 0.80961
331, 3, bw, attraction, a-b-db, 2, 2, 4, 34, 89, 163, 165, 90, 90, 165, 1, 0.311935
331, 3, bw, attraction, a-b-db, 9, 2, 4, 35, 90, 165, 165, 90, 86, 157, 3, 0.681153
331, 3, bw, attraction, a-b-db, 9, 2, 4, 35, 90, 165, 165, 90, 86, 157, 1, 1.91688
331, 3, bw, attraction, a-b-da, 2, 2, 4, 36, 163, 89, 165, 90, 90, 165, 3, 0.933589
331, 3, bw, attraction, a-b-da, 2, 2, 4, 36, 163, 89, 165, 90, 90, 165, 2, 0.639221
331, 3, bw, attraction, a-b-db, 9, 1, 4, 37, 135, 60, 60, 135, 57, 129, 2, 0.83563
331, 3, bw, attraction, a-b-db, 9, 1, 4, 37, 135, 60, 60, 135, 57, 129, 1, 1.16931
331, 3, bw, catch, NA, 999, 999, 5, 1, 121, 74, 154, 161, 116, 139, 2, 2.879
331, 3, bw, catch, NA, 999, 999, 5, 1, 121, 74, 154, 161, 116, 139, 1, 0.442053
331, 3, bw, attraction, a-b-db, 14, 3, 5, 2, 111, 181, 120, 195, 195, 120, 2, 1.22177
331, 3, bw, attraction, a-b-db, 14, 3, 5, 2, 111, 181, 120, 195, 195, 120, 1, 0.403422
331, 3, bw, attraction, a-b-da, 9, 1, 5, 3, 60, 135, 129, 57, 135, 60, 1, 1.07314
331, 3, bw, attraction, a-b-da, 9, 1, 5, 3, 60, 135, 129, 57, 135, 60, 2, 0.324776
331, 3, bw, filler, NA, 999, 999, 5, 4, 173, 134, 57, 165, 126, 83, 1, 0.717367
331, 3, bw, filler, NA, 999, 999, 5, 4, 173, 134, 57, 165, 126, 83, 2, 0.543841
331, 3, bw, filler, NA, 999, 999, 5, 5, 113, 180, 135, 90, 193, 189, 3, 0.615482
331, 3, bw, filler, NA, 999, 999, 5, 5, 113, 180, 135, 90, 193, 189, 2, 0.381977
331, 3, bw, attraction, a-b-da, 14, 3, 5, 6, 181, 111, 195, 120, 120, 195, 3, 1.35641
331, 3, bw, attraction, a-b-da, 14, 3, 5, 6, 181, 111, 195, 120, 120, 195, 1, 0.756667
331, 3, bw, attraction, a-b-db, 9, 3, 5, 7, 120, 195, 195, 120, 114, 186, 1, 1.77245
331, 3, bw, attraction, a-b-db, 9, 3, 5, 7, 120, 195, 195, 120, 114, 186, 2, 0.387808
331, 3, bw, attraction, a-b-da, 5, 3, 5, 8, 190, 117, 195, 120, 120, 195, 3, 0.762423
331, 3, bw, attraction, a-b-da, 5, 3, 5, 8, 190, 117, 195, 120, 120, 195, 1, 0.634705
331, 3, bw, filler, NA, 999, 999, 5, 9, 147, 124, 164, 186, 188, 103, 2, 0.919071
331, 3, bw, filler, NA, 999, 999, 5, 9, 147, 124, 164, 186, 188, 103, 3, 1.18547
331, 3, bw, attraction, a-b-db, 9, 1, 5, 10, 57, 129, 60, 135, 135, 60, 1, 0.855682
331, 3, bw, attraction, a-b-db, 9, 1, 5, 10, 57, 129, 60, 135, 135, 60, 2, 1.64408
331, 3, bw, filler, NA, 999, 999, 5, 11, 188, 124, 176, 104, 164, 195, 3, 0.831531
331, 3, bw, filler, NA, 999, 999, 5, 11, 188, 124, 176, 104, 164, 195, 2, 1.30133
331, 3, bw, attraction, a-b-db, 5, 1, 5, 12, 135, 60, 60, 135, 58, 132, 2, 2.69475
331, 3, bw, attraction, a-b-db, 5, 1, 5, 12, 135, 60, 60, 135, 58, 132, 3, 0.945175
331, 3, bw, filler, NA, 999, 999, 5, 13, 133, 125, 90, 62, 127, 167, 3, 1.16087
331, 3, bw, filler, NA, 999, 999, 5, 13, 133, 125, 90, 62, 127, 167, 2, 0.785197
331, 3, bw, attraction, a-b-db, 2, 3, 5, 14, 195, 120, 119, 193, 120, 195, 2, 0.88745
331, 3, bw, attraction, a-b-db, 2, 3, 5, 14, 195, 120, 119, 193, 120, 195, 1, 0.451167
331, 3, bw, attraction, a-b-da, 9, 2, 5, 15, 90, 165, 165, 90, 157, 86, 2, 1.06304
331, 3, bw, attraction, a-b-da, 9, 2, 5, 15, 90, 165, 165, 90, 157, 86, 3, 0.307403
331, 3, bw, filler, NA, 999, 999, 5, 16, 137, 70, 71, 73, 190, 58, 1, 3.35645
331, 3, bw, filler, NA, 999, 999, 5, 16, 137, 70, 71, 73, 190, 58, 2, 0.372026
331, 3, bw, attraction, a-b-da, 14, 2, 5, 17, 165, 90, 153, 83, 90, 165, 3, 0.83533
331, 3, bw, attraction, a-b-da, 14, 2, 5, 17, 165, 90, 153, 83, 90, 165, 2, 0.384957
331, 3, bw, attraction, a-b-da, 5, 1, 5, 18, 135, 60, 132, 58, 60, 135, 1, 0.871394
331, 3, bw, attraction, a-b-da, 5, 1, 5, 18, 135, 60, 132, 58, 60, 135, 3, 0.251066
331, 3, bw, attraction, a-b-db, 5, 3, 5, 19, 120, 195, 117, 190, 195, 120, 1, 2.59096
331, 3, bw, attraction, a-b-db, 5, 3, 5, 19, 120, 195, 117, 190, 195, 120, 3, 2.80547
331, 3, bw, attraction, a-b-db, 14, 2, 5, 20, 90, 165, 83, 153, 165, 90, 1, 1.96255
331, 3, bw, attraction, a-b-db, 14, 2, 5, 20, 90, 165, 83, 153, 165, 90, 3, 1.28667
331, 3, bw, attraction, a-b-da, 2, 2, 5, 21, 165, 90, 163, 89, 90, 165, 3, 1.88471
331, 3, bw, attraction, a-b-da, 2, 2, 5, 21, 165, 90, 163, 89, 90, 165, 2, 0.872144
331, 3, bw, catch, NA, 999, 999, 5, 22, 99, 96, 139, 116, 177, 138, 3, 1.33129
331, 3, bw, catch, NA, 999, 999, 5, 22, 99, 96, 139, 116, 177, 138, 1, 0.764702
331, 3, bw, catch, NA, 999, 999, 5, 23, 163, 92, 142, 173, 111, 84, 2, 1.27577
331, 3, bw, catch, NA, 999, 999, 5, 23, 163, 92, 142, 173, 111, 84, 3, 0.671384
331, 3, bw, filler, NA, 999, 999, 5, 24, 64, 177, 192, 84, 134, 163, 3, 0.77035
331, 3, bw, filler, NA, 999, 999, 5, 24, 64, 177, 192, 84, 134, 163, 2, 0.474807
331, 3, bw, attraction, a-b-da, 9, 3, 5, 25, 195, 120, 186, 114, 120, 195, 3, 0.645365
331, 3, bw, attraction, a-b-da, 9, 3, 5, 25, 195, 120, 186, 114, 120, 195, 1, 0.722489
331, 3, bw, attraction, a-b-da, 2, 1, 5, 26, 134, 59, 60, 135, 135, 60, 2, 0.579403
331, 3, bw, attraction, a-b-da, 2, 1, 5, 26, 134, 59, 60, 135, 135, 60, 1, 0.387248
331, 3, bw, attraction, a-b-db, 5, 2, 5, 27, 165, 90, 90, 165, 88, 161, 1, 1.00172
331, 3, bw, attraction, a-b-db, 5, 2, 5, 27, 165, 90, 90, 165, 88, 161, 2, 0.280635
331, 3, bw, attraction, a-b-da, 5, 2, 5, 28, 90, 165, 161, 88, 165, 90, 3, 0.435235
331, 3, bw, attraction, a-b-da, 5, 2, 5, 28, 90, 165, 161, 88, 165, 90, 2, 0.489088
331, 3, bw, filler, NA, 999, 999, 5, 29, 110, 85, 131, 71, 97, 174, 3, 0.387554
331, 3, bw, filler, NA, 999, 999, 5, 29, 110, 85, 131, 71, 97, 174, 1, 0.70672
331, 3, bw, attraction, a-b-db, 2, 2, 5, 30, 89, 163, 90, 165, 165, 90, 3, 0.523706
331, 3, bw, attraction, a-b-db, 2, 2, 5, 30, 89, 163, 90, 165, 165, 90, 2, 0.517513
331, 3, bw, filler, NA, 999, 999, 5, 31, 154, 194, 97, 109, 175, 71, 3, 0.50264
331, 3, bw, filler, NA, 999, 999, 5, 31, 154, 194, 97, 109, 175, 71, 2, 1.03385
331, 3, bw, attraction, a-b-db, 2, 1, 5, 32, 60, 135, 59, 134, 135, 60, 3, 0.862148
331, 3, bw, attraction, a-b-db, 2, 1, 5, 32, 60, 135, 59, 134, 135, 60, 2, 0.426523
331, 3, bw, filler, NA, 999, 999, 5, 33, 88, 81, 170, 111, 157, 135, 3, 1.64693
331, 3, bw, filler, NA, 999, 999, 5, 33, 88, 81, 170, 111, 157, 135, 1, 0.3797
331, 3, bw, attraction, a-b-da, 14, 1, 5, 34, 125, 56, 60, 135, 135, 60, 3, 1.84225
331, 3, bw, attraction, a-b-da, 14, 1, 5, 34, 125, 56, 60, 135, 135, 60, 1, 0.631083
331, 3, bw, attraction, a-b-db, 14, 1, 5, 35, 60, 135, 135, 60, 56, 125, 1, 4.25131
331, 3, bw, attraction, a-b-db, 14, 1, 5, 35, 60, 135, 135, 60, 56, 125, 2, 0.463398
331, 3, bw, attraction, a-b-da, 2, 3, 5, 36, 193, 119, 195, 120, 120, 195, 3, 0.874426
331, 3, bw, attraction, a-b-da, 2, 3, 5, 36, 193, 119, 195, 120, 120, 195, 1, 0.53423
331, 3, bw, attraction, a-b-db, 9, 2, 5, 37, 86, 157, 90, 165, 165, 90, 2, 1.23859
331, 3, bw, attraction, a-b-db, 9, 2, 5, 37, 86, 157, 90, 165, 165, 90, 3, 0.331612
331, 3, bw, attraction, a-b-da, 14, 2, 6, 1, 165, 90, 153, 83, 90, 165, 3, 1.60406
331, 3, bw, attraction, a-b-da, 14, 2, 6, 1, 165, 90, 153, 83, 90, 165, 2, 0.330794
331, 3, bw, attraction, a-b-db, 14, 1, 6, 2, 135, 60, 56, 125, 60, 135, 2, 1.82747
331, 3, bw, attraction, a-b-db, 14, 1, 6, 2, 135, 60, 56, 125, 60, 135, 1, 0.272829
331, 3, bw, attraction, a-b-da, 5, 2, 6, 3, 165, 90, 90, 165, 161, 88, 1, 1.12399
331, 3, bw, attraction, a-b-da, 5, 2, 6, 3, 165, 90, 90, 165, 161, 88, 2, 0.357583
331, 3, bw, attraction, a-b-da, 14, 3, 6, 4, 120, 195, 195, 120, 181, 111, 2, 1.90073
331, 3, bw, attraction, a-b-da, 14, 3, 6, 4, 120, 195, 195, 120, 181, 111, 3, 0.343449
331, 3, bw, attraction, a-b-db, 2, 2, 6, 5, 89, 163, 165, 90, 90, 165, 3, 0.775244
331, 3, bw, attraction, a-b-db, 2, 2, 6, 5, 89, 163, 165, 90, 90, 165, 2, 0.286986
331, 3, bw, attraction, a-b-db, 14, 3, 6, 6, 120, 195, 195, 120, 111, 181, 3, 0.569508
331, 3, bw, attraction, a-b-db, 14, 3, 6, 6, 120, 195, 195, 120, 111, 181, 2, 0.938001
331, 3, bw, attraction, a-b-da, 2, 1, 6, 7, 135, 60, 60, 135, 134, 59, 2, 2.09033
331, 3, bw, attraction, a-b-da, 2, 1, 6, 7, 135, 60, 60, 135, 134, 59, 3, 0.471682
331, 3, bw, catch, NA, 999, 999, 6, 8, 147, 108, 104, 91, 161, 154, 3, 0.632139
331, 3, bw, catch, NA, 999, 999, 6, 8, 147, 108, 104, 91, 161, 154, 2, 0.589887
331, 3, bw, attraction, a-b-da, 9, 1, 6, 9, 135, 60, 129, 57, 60, 135, 1, 1.49956
331, 3, bw, attraction, a-b-da, 9, 1, 6, 9, 135, 60, 129, 57, 60, 135, 2, 0.366484
331, 3, bw, filler, NA, 999, 999, 6, 10, 66, 91, 185, 159, 97, 88, 2, 0.757624
331, 3, bw, filler, NA, 999, 999, 6, 10, 66, 91, 185, 159, 97, 88, 1, 0.35818
331, 3, bw, filler, NA, 999, 999, 6, 11, 126, 137, 99, 152, 102, 69, 2, 0.70118
331, 3, bw, filler, NA, 999, 999, 6, 11, 126, 137, 99, 152, 102, 69, 3, 1.28828
331, 3, bw, filler, NA, 999, 999, 6, 12, 124, 111, 130, 98, 184, 134, 3, 0.7464
331, 3, bw, filler, NA, 999, 999, 6, 12, 124, 111, 130, 98, 184, 134, 2, 0.827618
331, 3, bw, attraction, a-b-db, 9, 3, 6, 13, 114, 186, 120, 195, 195, 120, 3, 0.703957
331, 3, bw, attraction, a-b-db, 9, 3, 6, 13, 114, 186, 120, 195, 195, 120, 2, 0.42697
331, 3, bw, filler, NA, 999, 999, 6, 14, 94, 86, 192, 101, 181, 148, 3, 1.55948
331, 3, bw, filler, NA, 999, 999, 6, 14, 94, 86, 192, 101, 181, 148, 1, 0.879674
331, 3, bw, filler, NA, 999, 999, 6, 15, 89, 184, 132, 72, 182, 136, 3, 0.977986
331, 3, bw, filler, NA, 999, 999, 6, 15, 89, 184, 132, 72, 182, 136, 2, 0.34566
331, 3, bw, attraction, a-b-da, 9, 2, 6, 16, 157, 86, 90, 165, 165, 90, 3, 0.889559
331, 3, bw, attraction, a-b-da, 9, 2, 6, 16, 157, 86, 90, 165, 165, 90, 2, 0.548499
331, 3, bw, attraction, a-b-da, 5, 1, 6, 17, 60, 135, 132, 58, 135, 60, 1, 0.78817
331, 3, bw, attraction, a-b-da, 5, 1, 6, 17, 60, 135, 132, 58, 135, 60, 2, 0.6124
331, 3, bw, attraction, a-b-db, 5, 3, 6, 18, 195, 120, 117, 190, 120, 195, 3, 0.680399
331, 3, bw, attraction, a-b-db, 5, 3, 6, 18, 195, 120, 117, 190, 120, 195, 2, 0.43613
331, 3, bw, catch, NA, 999, 999, 6, 19, 144, 111, 187, 128, 120, 75, 2, 1.08863
331, 3, bw, catch, NA, 999, 999, 6, 19, 144, 111, 187, 128, 120, 75, 3, 0.451606
331, 3, bw, filler, NA, 999, 999, 6, 20, 183, 152, 123, 171, 64, 171, 2, 0.719458
331, 3, bw, filler, NA, 999, 999, 6, 20, 183, 152, 123, 171, 64, 171, 3, 1.10593
331, 3, bw, attraction, a-b-db, 5, 1, 6, 21, 58, 132, 135, 60, 60, 135, 3, 2.13138
331, 3, bw, attraction, a-b-db, 5, 1, 6, 21, 58, 132, 135, 60, 60, 135, 2, 0.580772
331, 3, bw, catch, NA, 999, 999, 6, 22, 98, 157, 161, 154, 111, 84, 2, 1.14714
331, 3, bw, catch, NA, 999, 999, 6, 22, 98, 157, 161, 154, 111, 84, 3, 0.676102
331, 3, bw, attraction, a-b-db, 2, 3, 6, 23, 120, 195, 195, 120, 119, 193, 3, 1.41456
331, 3, bw, attraction, a-b-db, 2, 3, 6, 23, 120, 195, 195, 120, 119, 193, 2, 0.884709
331, 3, bw, filler, NA, 999, 999, 6, 24, 152, 166, 184, 170, 195, 100, 2, 1.50301
331, 3, bw, filler, NA, 999, 999, 6, 24, 152, 166, 184, 170, 195, 100, 3, 0.337853
331, 3, bw, filler, NA, 999, 999, 6, 25, 117, 143, 176, 136, 60, 169, 2, 1.04242
331, 3, bw, filler, NA, 999, 999, 6, 25, 117, 143, 176, 136, 60, 169, 3, 0.415376
331, 3, bw, filler, NA, 999, 999, 6, 26, 81, 81, 65, 178, 76, 92, 2, 2.41245
331, 3, bw, filler, NA, 999, 999, 6, 26, 81, 81, 65, 178, 76, 92, 1, 0.506359
331, 3, bw, attraction, a-b-da, 5, 3, 6, 27, 195, 120, 190, 117, 120, 195, 3, 2.36423
331, 3, bw, attraction, a-b-da, 5, 3, 6, 27, 195, 120, 190, 117, 120, 195, 1, 0.708008
331, 3, bw, attraction, a-b-db, 14, 2, 6, 28, 90, 165, 165, 90, 83, 153, 1, 1.4451
331, 3, bw, attraction, a-b-db, 14, 2, 6, 28, 90, 165, 165, 90, 83, 153, 3, 0.369984
331, 3, bw, attraction, a-b-da, 2, 3, 6, 29, 193, 119, 195, 120, 120, 195, 3, 1.81708
331, 3, bw, attraction, a-b-da, 2, 3, 6, 29, 193, 119, 195, 120, 120, 195, 1, 0.295186
331, 3, bw, attraction, a-b-db, 9, 1, 6, 30, 57, 129, 135, 60, 60, 135, 3, 0.921032
331, 3, bw, attraction, a-b-db, 9, 1, 6, 30, 57, 129, 135, 60, 60, 135, 2, 0.33939
331, 3, bw, attraction, a-b-da, 2, 2, 6, 31, 165, 90, 163, 89, 90, 165, 2, 1.01196
331, 3, bw, attraction, a-b-da, 2, 2, 6, 31, 165, 90, 163, 89, 90, 165, 3, 0.594286
331, 3, bw, attraction, a-b-da, 14, 1, 6, 32, 60, 135, 135, 60, 125, 56, 1, 0.760008
331, 3, bw, attraction, a-b-da, 14, 1, 6, 32, 60, 135, 135, 60, 125, 56, 3, 0.448386
331, 3, bw, filler, NA, 999, 999, 6, 33, 149, 108, 193, 130, 182, 59, 2, 0.764162
331, 3, bw, filler, NA, 999, 999, 6, 33, 149, 108, 193, 130, 182, 59, 3, 0.780664
331, 3, bw, attraction, a-b-db, 2, 1, 6, 34, 135, 60, 60, 135, 59, 134, 2, 1.35491
331, 3, bw, attraction, a-b-db, 2, 1, 6, 34, 135, 60, 60, 135, 59, 134, 1, 0.299161
331, 3, bw, attraction, a-b-db, 5, 2, 6, 35, 88, 161, 90, 165, 165, 90, 3, 0.981122
331, 3, bw, attraction, a-b-db, 5, 2, 6, 35, 88, 161, 90, 165, 165, 90, 2, 0.308668
331, 3, bw, attraction, a-b-db, 9, 2, 6, 36, 90, 165, 165, 90, 86, 157, 1, 1.4138
331, 3, bw, attraction, a-b-db, 9, 2, 6, 36, 90, 165, 165, 90, 86, 157, 2, 0.588085
331, 3, bw, attraction, a-b-da, 9, 3, 6, 37, 195, 120, 120, 195, 186, 114, 2, 1.34665
331, 3, bw, attraction, a-b-da, 9, 3, 6, 37, 195, 120, 120, 195, 186, 114, 3, 0.651423
331, 3, bw, attraction, a-b-db, 9, 1, 7, 1, 60, 135, 135, 60, 57, 129, 1, 1.47113
331, 3, bw, attraction, a-b-db, 9, 1, 7, 1, 60, 135, 135, 60, 57, 129, 2, 0.563324
331, 3, bw, filler, NA, 999, 999, 7, 2, 134, 150, 183, 83, 167, 144, 3, 0.650414
331, 3, bw, filler, NA, 999, 999, 7, 2, 134, 150, 183, 83, 167, 144, 2, 0.503553
331, 3, bw, attraction, a-b-da, 5, 1, 7, 3, 135, 60, 132, 58, 60, 135, 3, 1.01735
331, 3, bw, attraction, a-b-da, 5, 1, 7, 3, 135, 60, 132, 58, 60, 135, 2, 0.607631
331, 3, bw, catch, NA, 999, 999, 7, 4, 76, 119, 124, 191, 102, 153, 2, 0.852648
331, 3, bw, catch, NA, 999, 999, 7, 4, 76, 119, 124, 191, 102, 153, 1, 0.529689
331, 3, bw, attraction, a-b-db, 2, 3, 7, 5, 195, 120, 119, 193, 120, 195, 3, 1.05814
331, 3, bw, attraction, a-b-db, 2, 3, 7, 5, 195, 120, 119, 193, 120, 195, 1, 0.782455
331, 3, bw, attraction, a-b-da, 9, 2, 7, 6, 157, 86, 90, 165, 165, 90, 3, 0.77278
331, 3, bw, attraction, a-b-da, 9, 2, 7, 6, 157, 86, 90, 165, 165, 90, 2, 0.332676
331, 3, bw, attraction, a-b-da, 9, 1, 7, 7, 129, 57, 135, 60, 60, 135, 3, 1.36509
331, 3, bw, attraction, a-b-da, 9, 1, 7, 7, 129, 57, 135, 60, 60, 135, 1, 0.397382
331, 3, bw, attraction, a-b-db, 14, 1, 7, 8, 60, 135, 135, 60, 56, 125, 1, 0.851058
331, 3, bw, attraction, a-b-db, 14, 1, 7, 8, 60, 135, 135, 60, 56, 125, 2, 0.568128
331, 3, bw, filler, NA, 999, 999, 7, 9, 129, 189, 190, 64, 159, 125, 1, 1.74326
331, 3, bw, filler, NA, 999, 999, 7, 9, 129, 189, 190, 64, 159, 125, 2, 0.84811
331, 3, bw, filler, NA, 999, 999, 7, 10, 110, 132, 178, 92, 145, 190, 3, 0.427656
331, 3, bw, filler, NA, 999, 999, 7, 10, 110, 132, 178, 92, 145, 190, 1, 0.793546
331, 3, bw, filler, NA, 999, 999, 7, 11, 142, 158, 83, 113, 158, 98, 1, 0.831157
331, 3, bw, filler, NA, 999, 999, 7, 11, 142, 158, 83, 113, 158, 98, 2, 0.676897
331, 3, bw, attraction, a-b-db, 14, 3, 7, 12, 111, 181, 195, 120, 120, 195, 3, 0.663263
331, 3, bw, attraction, a-b-db, 14, 3, 7, 12, 111, 181, 195, 120, 120, 195, 2, 0.539775
331, 3, bw, attraction, a-b-da, 2, 2, 7, 13, 163, 89, 165, 90, 90, 165, 3, 0.572319
331, 3, bw, attraction, a-b-da, 2, 2, 7, 13, 163, 89, 165, 90, 90, 165, 2, 2.50819
331, 3, bw, attraction, a-b-da, 2, 3, 7, 14, 193, 119, 120, 195, 195, 120, 3, 1.00443
331, 3, bw, attraction, a-b-da, 2, 3, 7, 14, 193, 119, 120, 195, 195, 120, 2, 0.915554
331, 3, bw, attraction, a-b-da, 5, 3, 7, 15, 190, 117, 120, 195, 195, 120, 2, 0.484478
331, 3, bw, attraction, a-b-da, 5, 3, 7, 15, 190, 117, 120, 195, 195, 120, 1, 0.384297
331, 3, bw, attraction, a-b-db, 9, 2, 7, 16, 165, 90, 86, 157, 90, 165, 3, 0.558756
331, 3, bw, attraction, a-b-db, 9, 2, 7, 16, 165, 90, 86, 157, 90, 165, 2, 0.407239
331, 3, bw, filler, NA, 999, 999, 7, 17, 192, 71, 121, 136, 152, 165, 3, 0.396426
331, 3, bw, filler, NA, 999, 999, 7, 17, 192, 71, 121, 136, 152, 165, 1, 0.715608
331, 3, bw, attraction, a-b-db, 5, 2, 7, 18, 90, 165, 88, 161, 165, 90, 2, 1.13265
331, 3, bw, attraction, a-b-db, 5, 2, 7, 18, 90, 165, 88, 161, 165, 90, 3, 0.27826
331, 3, bw, attraction, a-b-db, 2, 1, 7, 19, 59, 134, 60, 135, 135, 60, 2, 0.544754
331, 3, bw, attraction, a-b-db, 2, 1, 7, 19, 59, 134, 60, 135, 135, 60, 3, 0.289884
331, 3, bw, filler, NA, 999, 999, 7, 20, 140, 152, 136, 70, 95, 124, 1, 0.556396
331, 3, bw, filler, NA, 999, 999, 7, 20, 140, 152, 136, 70, 95, 124, 2, 0.308862
331, 3, bw, attraction, a-b-db, 2, 2, 7, 21, 89, 163, 90, 165, 165, 90, 1, 0.838028
331, 3, bw, attraction, a-b-db, 2, 2, 7, 21, 89, 163, 90, 165, 165, 90, 3, 1.05112
331, 3, bw, attraction, a-b-da, 9, 3, 7, 22, 120, 195, 195, 120, 186, 114, 2, 0.510702
331, 3, bw, attraction, a-b-da, 9, 3, 7, 22, 120, 195, 195, 120, 186, 114, 1, 0.289294
331, 3, bw, attraction, a-b-db, 5, 3, 7, 23, 120, 195, 117, 190, 195, 120, 3, 0.443731
331, 3, bw, attraction, a-b-db, 5, 3, 7, 23, 120, 195, 117, 190, 195, 120, 2, 0.280926
331, 3, bw, catch, NA, 999, 999, 7, 24, 183, 132, 142, 113, 115, 80, 1, 0.547407
331, 3, bw, catch, NA, 999, 999, 7, 24, 183, 132, 142, 113, 115, 80, 2, 0.452503
331, 3, bw, attraction, a-b-db, 9, 3, 7, 25, 195, 120, 120, 195, 114, 186, 3, 1.85632
331, 3, bw, attraction, a-b-db, 9, 3, 7, 25, 195, 120, 120, 195, 114, 186, 1, 0.74042
331, 3, bw, attraction, a-b-da, 14, 3, 7, 26, 181, 111, 120, 195, 195, 120, 2, 1.35606
331, 3, bw, attraction, a-b-da, 14, 3, 7, 26, 181, 111, 120, 195, 195, 120, 1, 0.916262
331, 3, bw, filler, NA, 999, 999, 7, 27, 192, 191, 174, 154, 116, 123, 1, 1.58924
331, 3, bw, filler, NA, 999, 999, 7, 27, 192, 191, 174, 154, 116, 123, 3, 0.48407
331, 3, bw, attraction, a-b-db, 5, 1, 7, 28, 135, 60, 58, 132, 60, 135, 3, 0.878565
331, 3, bw, attraction, a-b-db, 5, 1, 7, 28, 135, 60, 58, 132, 60, 135, 1, 0.842247
331, 3, bw, filler, NA, 999, 999, 7, 29, 59, 80, 138, 62, 113, 174, 3, 0.589926
331, 3, bw, filler, NA, 999, 999, 7, 29, 59, 80, 138, 62, 113, 174, 1, 0.805097
331, 3, bw, filler, NA, 999, 999, 7, 30, 78, 62, 123, 62, 92, 89, 3, 1.0028
331, 3, bw, filler, NA, 999, 999, 7, 30, 78, 62, 123, 62, 92, 89, 1, 0.98579
331, 3, bw, catch, NA, 999, 999, 7, 31, 175, 140, 133, 122, 92, 103, 1, 1.00809
331, 3, bw, catch, NA, 999, 999, 7, 31, 175, 140, 133, 122, 92, 103, 3, 0.342475
331, 3, bw, attraction, a-b-da, 5, 2, 7, 32, 161, 88, 165, 90, 90, 165, 3, 0.87023
331, 3, bw, attraction, a-b-da, 5, 2, 7, 32, 161, 88, 165, 90, 90, 165, 2, 0.698611
331, 3, bw, attraction, a-b-da, 2, 1, 7, 33, 134, 59, 60, 135, 135, 60, 1, 1.08431
331, 3, bw, attraction, a-b-da, 2, 1, 7, 33, 134, 59, 60, 135, 135, 60, 2, 0.383996
331, 3, bw, attraction, a-b-da, 14, 2, 7, 34, 165, 90, 90, 165, 153, 83, 2, 1.39046
331, 3, bw, attraction, a-b-da, 14, 2, 7, 34, 165, 90, 90, 165, 153, 83, 3, 0.405319
331, 3, bw, attraction, a-b-db, 14, 2, 7, 35, 90, 165, 165, 90, 83, 153, 1, 1.08312
331, 3, bw, attraction, a-b-db, 14, 2, 7, 35, 90, 165, 165, 90, 83, 153, 2, 0.84675
331, 3, bw, attraction, a-b-da, 14, 1, 7, 36, 60, 135, 135, 60, 125, 56, 2, 0.866373
331, 3, bw, attraction, a-b-da, 14, 1, 7, 36, 60, 135, 135, 60, 125, 56, 3, 0.686805
331, 3, bw, filler, NA, 999, 999, 7, 37, 145, 57, 109, 118, 182, 178, 3, 0.673167
331, 3, bw, filler, NA, 999, 999, 7, 37, 145, 57, 109, 118, 182, 178, 1, 0.42905
331, 3, bw, attraction, a-b-da, 2, 3, 8, 1, 195, 120, 120, 195, 193, 119, 2, 1.16944
331, 3, bw, attraction, a-b-da, 2, 3, 8, 1, 195, 120, 120, 195, 193, 119, 1, 0.329726
331, 3, bw, filler, NA, 999, 999, 8, 2, 195, 63, 193, 145, 92, 90, 2, 0.8982
331, 3, bw, filler, NA, 999, 999, 8, 2, 195, 63, 193, 145, 92, 90, 3, 0.333376
331, 3, bw, catch, NA, 999, 999, 8, 3, 168, 147, 144, 111, 69, 126, 1, 0.733866
331, 3, bw, catch, NA, 999, 999, 8, 3, 168, 147, 144, 111, 69, 126, 3, 0.37555
331, 3, bw, attraction, a-b-db, 5, 2, 8, 4, 165, 90, 88, 161, 90, 165, 3, 0.774093
331, 3, bw, attraction, a-b-db, 5, 2, 8, 4, 165, 90, 88, 161, 90, 165, 1, 0.869637
331, 3, bw, attraction, a-b-db, 5, 1, 8, 5, 135, 60, 60, 135, 58, 132, 2, 1.25678
331, 3, bw, attraction, a-b-db, 5, 1, 8, 5, 135, 60, 60, 135, 58, 132, 1, 0.428972
331, 3, bw, attraction, a-b-da, 9, 3, 8, 6, 186, 114, 195, 120, 120, 195, 3, 0.841532
331, 3, bw, attraction, a-b-da, 9, 3, 8, 6, 186, 114, 195, 120, 120, 195, 1, 0.502564
331, 3, bw, attraction, a-b-da, 14, 3, 8, 7, 120, 195, 181, 111, 195, 120, 3, 0.768301
331, 3, bw, attraction, a-b-da, 14, 3, 8, 7, 120, 195, 181, 111, 195, 120, 2, 0.400758
331, 3, bw, attraction, a-b-da, 14, 1, 8, 8, 135, 60, 125, 56, 60, 135, 3, 0.934461
331, 3, bw, attraction, a-b-da, 14, 1, 8, 8, 135, 60, 125, 56, 60, 135, 2, 1.21612
331, 3, bw, catch, NA, 999, 999, 8, 9, 140, 175, 130, 65, 97, 158, 1, 0.701029
331, 3, bw, catch, NA, 999, 999, 8, 9, 140, 175, 130, 65, 97, 158, 2, 0.400169
331, 3, bw, attraction, a-b-db, 9, 2, 8, 10, 86, 157, 165, 90, 90, 165, 3, 0.710032
331, 3, bw, attraction, a-b-db, 9, 2, 8, 10, 86, 157, 165, 90, 90, 165, 2, 0.808383
331, 3, bw, filler, NA, 999, 999, 8, 11, 180, 188, 164, 148, 154, 68, 1, 8.46932
331, 3, bw, filler, NA, 999, 999, 8, 11, 180, 188, 164, 148, 154, 68, 3, 0.943415
331, 3, bw, filler, NA, 999, 999, 8, 12, 91, 99, 99, 190, 164, 124, 3, 0.671702
331, 3, bw, filler, NA, 999, 999, 8, 12, 91, 99, 99, 190, 164, 124, 1, 0.642729
331, 3, bw, catch, NA, 999, 999, 8, 13, 193, 122, 112, 143, 111, 84, 1, 0.643017
331, 3, bw, catch, NA, 999, 999, 8, 13, 193, 122, 112, 143, 111, 84, 3, 1.85968
331, 3, bw, attraction, a-b-da, 14, 2, 8, 14, 90, 165, 153, 83, 165, 90, 3, 1.15859
331, 3, bw, attraction, a-b-da, 14, 2, 8, 14, 90, 165, 153, 83, 165, 90, 1, 0.294648
331, 3, bw, attraction, a-b-da, 9, 1, 8, 15, 60, 135, 135, 60, 129, 57, 1, 1.79751
331, 3, bw, attraction, a-b-da, 9, 1, 8, 15, 60, 135, 135, 60, 129, 57, 2, 0.399295
331, 3, bw, attraction, a-b-da, 5, 3, 8, 16, 190, 117, 120, 195, 195, 120, 3, 0.677153
331, 3, bw, attraction, a-b-da, 5, 3, 8, 16, 190, 117, 120, 195, 195, 120, 2, 0.680957
331, 3, bw, attraction, a-b-db, 14, 3, 8, 17, 195, 120, 120, 195, 111, 181, 2, 1.01125
331, 3, bw, attraction, a-b-db, 14, 3, 8, 17, 195, 120, 120, 195, 111, 181, 1, 0.321514
331, 3, bw, attraction, a-b-db, 9, 3, 8, 18, 120, 195, 114, 186, 195, 120, 3, 0.666662
331, 3, bw, attraction, a-b-db, 9, 3, 8, 18, 120, 195, 114, 186, 195, 120, 2, 0.463113
331, 3, bw, filler, NA, 999, 999, 8, 19, 74, 97, 80, 71, 160, 119, 3, 0.642233
331, 3, bw, filler, NA, 999, 999, 8, 19, 74, 97, 80, 71, 160, 119, 2, 0.919379
331, 3, bw, attraction, a-b-db, 9, 1, 8, 20, 60, 135, 135, 60, 57, 129, 2, 0.856297
331, 3, bw, attraction, a-b-db, 9, 1, 8, 20, 60, 135, 135, 60, 57, 129, 3, 0.344306
331, 3, bw, attraction, a-b-da, 2, 1, 8, 21, 135, 60, 134, 59, 60, 135, 3, 0.90867
331, 3, bw, attraction, a-b-da, 2, 1, 8, 21, 135, 60, 134, 59, 60, 135, 1, 0.335405
331, 3, bw, filler, NA, 999, 999, 8, 22, 134, 186, 122, 109, 97, 91, 1, 1.16749
331, 3, bw, filler, NA, 999, 999, 8, 22, 134, 186, 122, 109, 97, 91, 3, 0.463658
331, 3, bw, attraction, a-b-db, 14, 1, 8, 23, 56, 125, 135, 60, 60, 135, 2, 1.13077
331, 3, bw, attraction, a-b-db, 14, 1, 8, 23, 56, 125, 135, 60, 60, 135, 3, 0.53244
331, 3, bw, attraction, a-b-db, 2, 2, 8, 24, 165, 90, 90, 165, 89, 163, 2, 1.10882
331, 3, bw, attraction, a-b-db, 2, 2, 8, 24, 165, 90, 90, 165, 89, 163, 1, 0.399129
331, 3, bw, attraction, a-b-db, 14, 2, 8, 25, 165, 90, 83, 153, 90, 165, 3, 1.03701
331, 3, bw, attraction, a-b-db, 14, 2, 8, 25, 165, 90, 83, 153, 90, 165, 2, 0.874621
331, 3, bw, attraction, a-b-da, 9, 2, 8, 26, 165, 90, 90, 165, 157, 86, 2, 0.908964
331, 3, bw, attraction, a-b-da, 9, 2, 8, 26, 165, 90, 90, 165, 157, 86, 1, 0.591296
331, 3, bw, attraction, a-b-db, 2, 3, 8, 27, 119, 193, 195, 120, 120, 195, 3, 1.56505
331, 3, bw, attraction, a-b-db, 2, 3, 8, 27, 119, 193, 195, 120, 120, 195, 2, 0.549401
331, 3, bw, filler, NA, 999, 999, 8, 28, 162, 181, 133, 167, 135, 152, 1, 1.82896
331, 3, bw, filler, NA, 999, 999, 8, 28, 162, 181, 133, 167, 135, 152, 3, 0.338406
331, 3, bw, filler, NA, 999, 999, 8, 29, 139, 119, 110, 176, 63, 107, 2, 1.411
331, 3, bw, filler, NA, 999, 999, 8, 29, 139, 119, 110, 176, 63, 107, 3, 0.897079
331, 3, bw, attraction, a-b-da, 5, 1, 8, 30, 132, 58, 135, 60, 60, 135, 3, 5.75478
331, 3, bw, attraction, a-b-da, 5, 1, 8, 30, 132, 58, 135, 60, 60, 135, 2, 0.27432
331, 3, bw, attraction, a-b-da, 5, 2, 8, 31, 165, 90, 90, 165, 161, 88, 2, 1.06883
331, 3, bw, attraction, a-b-da, 5, 2, 8, 31, 165, 90, 90, 165, 161, 88, 3, 0.401161
331, 3, bw, attraction, a-b-db, 2, 1, 8, 32, 60, 135, 135, 60, 59, 134, 1, 1.12703
331, 3, bw, attraction, a-b-db, 2, 1, 8, 32, 60, 135, 135, 60, 59, 134, 2, 0.44064
331, 3, bw, filler, NA, 999, 999, 8, 33, 138, 148, 127, 70, 153, 185, 3, 0.804337
331, 3, bw, filler, NA, 999, 999, 8, 33, 138, 148, 127, 70, 153, 185, 2, 0.30751
331, 3, bw, filler, NA, 999, 999, 8, 34, 83, 76, 103, 128, 175, 157, 3, 0.780636
331, 3, bw, filler, NA, 999, 999, 8, 34, 83, 76, 103, 128, 175, 157, 1, 0.828313
331, 3, bw, attraction, a-b-da, 2, 2, 8, 35, 90, 165, 163, 89, 165, 90, 2, 0.952735
331, 3, bw, attraction, a-b-da, 2, 2, 8, 35, 90, 165, 163, 89, 165, 90, 3, 1.08179
331, 3, bw, filler, NA, 999, 999, 8, 36, 90, 122, 123, 93, 88, 150, 3, 1.828
331, 3, bw, filler, NA, 999, 999, 8, 36, 90, 122, 123, 93, 88, 150, 2, 0.521377
331, 3, bw, attraction, a-b-db, 5, 3, 8, 37, 195, 120, 120, 195, 117, 190, 2, 1.37847
331, 3, bw, attraction, a-b-db, 5, 3, 8, 37, 195, 120, 120, 195, 117, 190, 1, 0.378005
