sub_n, computer_n, bw_cond, effect, set, distance, diag, block_n, trial_n, h1, w1, h2, w2, h3, w3, choice, rt 
394, 3, wb, practice, NA, 999, 999, 0, 1, 75, 170, 106, 131, 193, 148, 2, 9.48899
394, 3, wb, practice, NA, 999, 999, 0, 1, 75, 170, 106, 131, 193, 148, 3, 2.21896
394, 3, wb, practice, NA, 999, 999, 0, 2, 164, 148, 75, 186, 86, 178, 3, 10.2195
394, 3, wb, practice, NA, 999, 999, 0, 2, 164, 148, 75, 186, 86, 178, 1, 9.95729
394, 3, wb, practice, NA, 999, 999, 0, 3, 129, 120, 133, 94, 93, 190, 2, 2.55087
394, 3, wb, practice, NA, 999, 999, 0, 3, 129, 120, 133, 94, 93, 190, 1, 1.36108
394, 3, wb, attraction, a-b-db, 2, 3, 1, 1, 195, 120, 119, 193, 120, 195, 1, 1.86314
394, 3, wb, attraction, a-b-db, 2, 3, 1, 1, 195, 120, 119, 193, 120, 195, 2, 1.01908
394, 3, wb, attraction, a-b-db, 14, 3, 1, 2, 111, 181, 195, 120, 120, 195, 1, 2.80807
394, 3, wb, attraction, a-b-db, 14, 3, 1, 2, 111, 181, 195, 120, 120, 195, 3, 2.38986
394, 3, wb, filler, NA, 999, 999, 1, 3, 81, 92, 59, 120, 188, 133, 2, 6.28366
394, 3, wb, filler, NA, 999, 999, 1, 3, 81, 92, 59, 120, 188, 133, 3, 2.5577
394, 3, wb, attraction, a-b-da, 5, 3, 1, 4, 195, 120, 120, 195, 190, 117, 1, 2.4041
394, 3, wb, attraction, a-b-da, 5, 3, 1, 4, 195, 120, 120, 195, 190, 117, 2, 1.33874
394, 3, wb, attraction, a-b-da, 14, 3, 1, 5, 195, 120, 181, 111, 120, 195, 2, 5.41094
394, 3, wb, attraction, a-b-da, 14, 3, 1, 5, 195, 120, 181, 111, 120, 195, 3, 5.97589
394, 3, wb, filler, NA, 999, 999, 1, 6, 116, 153, 105, 157, 80, 168, 3, 5.35661
394, 3, wb, filler, NA, 999, 999, 1, 6, 116, 153, 105, 157, 80, 168, 2, 2.12354
394, 3, wb, attraction, a-b-db, 9, 2, 1, 7, 165, 90, 86, 157, 90, 165, 1, 1.82821
394, 3, wb, attraction, a-b-db, 9, 2, 1, 7, 165, 90, 86, 157, 90, 165, 3, 0.705596
394, 3, wb, attraction, a-b-da, 5, 2, 1, 8, 165, 90, 161, 88, 90, 165, 2, 1.85939
394, 3, wb, attraction, a-b-da, 5, 2, 1, 8, 165, 90, 161, 88, 90, 165, 3, 0.719366
394, 3, wb, filler, NA, 999, 999, 1, 9, 146, 108, 108, 100, 89, 195, 2, 1.52838
394, 3, wb, filler, NA, 999, 999, 1, 9, 146, 108, 108, 100, 89, 195, 1, 0.689996
394, 3, wb, attraction, a-b-db, 9, 1, 1, 10, 135, 60, 57, 129, 60, 135, 2, 1.21226
394, 3, wb, attraction, a-b-db, 9, 1, 1, 10, 135, 60, 57, 129, 60, 135, 1, 1.09051
394, 3, wb, filler, NA, 999, 999, 1, 11, 74, 69, 173, 85, 160, 158, 1, 1.24426
394, 3, wb, filler, NA, 999, 999, 1, 11, 74, 69, 173, 85, 160, 158, 3, 0.481148
394, 3, wb, catch, NA, 999, 999, 1, 12, 112, 83, 101, 154, 182, 133, 1, 1.53155
394, 3, wb, catch, NA, 999, 999, 1, 12, 112, 83, 101, 154, 182, 133, 3, 0.757004
394, 3, wb, attraction, a-b-db, 2, 2, 1, 13, 89, 163, 165, 90, 90, 165, 2, 4.37222
394, 3, wb, attraction, a-b-db, 2, 2, 1, 13, 89, 163, 165, 90, 90, 165, 3, 0.731345
394, 3, wb, attraction, a-b-db, 5, 3, 1, 14, 195, 120, 117, 190, 120, 195, 2, 2.04384
394, 3, wb, attraction, a-b-db, 5, 3, 1, 14, 195, 120, 117, 190, 120, 195, 3, 1.01644
394, 3, wb, attraction, a-b-da, 9, 3, 1, 15, 186, 114, 120, 195, 195, 120, 1, 1.33345
394, 3, wb, attraction, a-b-da, 9, 3, 1, 15, 186, 114, 120, 195, 195, 120, 2, 0.926913
394, 3, wb, filler, NA, 999, 999, 1, 16, 67, 83, 105, 68, 94, 73, 1, 1.16726
394, 3, wb, filler, NA, 999, 999, 1, 16, 67, 83, 105, 68, 94, 73, 3, 0.71144
394, 3, wb, attraction, a-b-db, 2, 1, 1, 17, 60, 135, 135, 60, 59, 134, 1, 1.39265
394, 3, wb, attraction, a-b-db, 2, 1, 1, 17, 60, 135, 135, 60, 59, 134, 3, 2.39938
394, 3, wb, attraction, a-b-db, 5, 2, 1, 18, 165, 90, 88, 161, 90, 165, 3, 1.94874
394, 3, wb, attraction, a-b-db, 5, 2, 1, 18, 165, 90, 88, 161, 90, 165, 2, 2.18138
394, 3, wb, filler, NA, 999, 999, 1, 19, 107, 153, 183, 97, 192, 179, 1, 1.33122
394, 3, wb, filler, NA, 999, 999, 1, 19, 107, 153, 183, 97, 192, 179, 3, 0.540806
394, 3, wb, catch, NA, 999, 999, 1, 20, 69, 126, 104, 151, 191, 124, 1, 0.852524
394, 3, wb, catch, NA, 999, 999, 1, 20, 69, 126, 104, 151, 191, 124, 3, 0.641576
394, 3, wb, catch, NA, 999, 999, 1, 21, 177, 138, 115, 80, 96, 159, 2, 1.15728
394, 3, wb, catch, NA, 999, 999, 1, 21, 177, 138, 115, 80, 96, 159, 1, 0.493599
394, 3, wb, filler, NA, 999, 999, 1, 22, 119, 186, 102, 140, 82, 116, 3, 1.12745
394, 3, wb, filler, NA, 999, 999, 1, 22, 119, 186, 102, 140, 82, 116, 1, 0.489051
394, 3, wb, attraction, a-b-da, 5, 1, 1, 23, 132, 58, 60, 135, 135, 60, 2, 1.01143
394, 3, wb, attraction, a-b-da, 5, 1, 1, 23, 132, 58, 60, 135, 135, 60, 3, 1.04982
394, 3, wb, filler, NA, 999, 999, 1, 24, 81, 176, 139, 112, 57, 160, 3, 1.4054
394, 3, wb, filler, NA, 999, 999, 1, 24, 81, 176, 139, 112, 57, 160, 2, 0.331734
394, 3, wb, attraction, a-b-db, 14, 1, 1, 25, 60, 135, 56, 125, 135, 60, 2, 1.13214
394, 3, wb, attraction, a-b-db, 14, 1, 1, 25, 60, 135, 56, 125, 135, 60, 3, 1.46182
394, 3, wb, attraction, a-b-db, 9, 3, 1, 26, 120, 195, 195, 120, 114, 186, 3, 1.24858
394, 3, wb, attraction, a-b-db, 9, 3, 1, 26, 120, 195, 195, 120, 114, 186, 1, 0.389534
394, 3, wb, attraction, a-b-da, 2, 3, 1, 27, 120, 195, 195, 120, 193, 119, 1, 2.06795
394, 3, wb, attraction, a-b-da, 2, 3, 1, 27, 120, 195, 195, 120, 193, 119, 3, 0.815935
394, 3, wb, attraction, a-b-da, 2, 1, 1, 28, 134, 59, 135, 60, 60, 135, 1, 1.07689
394, 3, wb, attraction, a-b-da, 2, 1, 1, 28, 134, 59, 135, 60, 60, 135, 2, 2.24072
394, 3, wb, attraction, a-b-da, 9, 1, 1, 29, 135, 60, 129, 57, 60, 135, 1, 2.25985
394, 3, wb, attraction, a-b-da, 9, 1, 1, 29, 135, 60, 129, 57, 60, 135, 3, 2.19981
394, 3, wb, attraction, a-b-da, 2, 2, 1, 30, 163, 89, 90, 165, 165, 90, 1, 2.35719
394, 3, wb, attraction, a-b-da, 2, 2, 1, 30, 163, 89, 90, 165, 165, 90, 2, 0.789043
394, 3, wb, attraction, a-b-db, 5, 1, 1, 31, 60, 135, 58, 132, 135, 60, 2, 2.52327
394, 3, wb, attraction, a-b-db, 5, 1, 1, 31, 60, 135, 58, 132, 135, 60, 3, 0.636534
394, 3, wb, filler, NA, 999, 999, 1, 32, 127, 74, 135, 59, 138, 82, 2, 2.84093
394, 3, wb, filler, NA, 999, 999, 1, 32, 127, 74, 135, 59, 138, 82, 3, 0.42128
394, 3, wb, attraction, a-b-db, 14, 2, 1, 33, 165, 90, 90, 165, 83, 153, 3, 4.81861
394, 3, wb, attraction, a-b-db, 14, 2, 1, 33, 165, 90, 90, 165, 83, 153, 2, 1.01577
394, 3, wb, filler, NA, 999, 999, 1, 34, 79, 111, 166, 187, 108, 194, 1, 1.21256
394, 3, wb, filler, NA, 999, 999, 1, 34, 79, 111, 166, 187, 108, 194, 2, 0.418967
394, 3, wb, attraction, a-b-da, 14, 1, 1, 35, 125, 56, 60, 135, 135, 60, 1, 1.38392
394, 3, wb, attraction, a-b-da, 14, 1, 1, 35, 125, 56, 60, 135, 135, 60, 3, 0.807599
394, 3, wb, attraction, a-b-da, 9, 2, 1, 36, 165, 90, 157, 86, 90, 165, 1, 2.77254
394, 3, wb, attraction, a-b-da, 9, 2, 1, 36, 165, 90, 157, 86, 90, 165, 3, 0.579757
394, 3, wb, attraction, a-b-da, 14, 2, 1, 37, 165, 90, 90, 165, 153, 83, 3, 1.17801
394, 3, wb, attraction, a-b-da, 14, 2, 1, 37, 165, 90, 90, 165, 153, 83, 2, 0.953774
394, 3, wb, attraction, a-b-da, 5, 1, 2, 1, 60, 135, 135, 60, 132, 58, 1, 1.15334
394, 3, wb, attraction, a-b-da, 5, 1, 2, 1, 60, 135, 135, 60, 132, 58, 3, 1.97035
394, 3, wb, attraction, a-b-db, 9, 2, 2, 2, 90, 165, 86, 157, 165, 90, 3, 2.15293
394, 3, wb, attraction, a-b-db, 9, 2, 2, 2, 90, 165, 86, 157, 165, 90, 2, 0.449543
394, 3, wb, catch, NA, 999, 999, 2, 3, 172, 143, 137, 118, 135, 60, 3, 4.26943
394, 3, wb, catch, NA, 999, 999, 2, 3, 172, 143, 137, 118, 135, 60, 1, 0.760645
394, 3, wb, filler, NA, 999, 999, 2, 4, 75, 123, 65, 191, 156, 121, 1, 0.74367
394, 3, wb, filler, NA, 999, 999, 2, 4, 75, 123, 65, 191, 156, 121, 3, 1.00087
394, 3, wb, filler, NA, 999, 999, 2, 5, 125, 144, 63, 149, 135, 97, 2, 0.686406
394, 3, wb, filler, NA, 999, 999, 2, 5, 125, 144, 63, 149, 135, 97, 1, 0.714217
394, 3, wb, attraction, a-b-da, 9, 1, 2, 6, 135, 60, 129, 57, 60, 135, 3, 0.723226
394, 3, wb, attraction, a-b-da, 9, 1, 2, 6, 135, 60, 129, 57, 60, 135, 1, 0.685048
394, 3, wb, attraction, a-b-db, 14, 3, 2, 7, 120, 195, 195, 120, 111, 181, 3, 0.855429
394, 3, wb, attraction, a-b-db, 14, 3, 2, 7, 120, 195, 195, 120, 111, 181, 1, 0.507704
394, 3, wb, attraction, a-b-da, 14, 1, 2, 8, 135, 60, 125, 56, 60, 135, 2, 0.917044
394, 3, wb, attraction, a-b-da, 14, 1, 2, 8, 135, 60, 125, 56, 60, 135, 1, 0.575228
394, 3, wb, attraction, a-b-db, 5, 3, 2, 9, 117, 190, 195, 120, 120, 195, 3, 1.7897
394, 3, wb, attraction, a-b-db, 5, 3, 2, 9, 117, 190, 195, 120, 120, 195, 2, 5.02038
394, 3, wb, filler, NA, 999, 999, 2, 10, 88, 182, 155, 131, 115, 70, 3, 1.08007
394, 3, wb, filler, NA, 999, 999, 2, 10, 88, 182, 155, 131, 115, 70, 2, 0.515768
394, 3, wb, attraction, a-b-da, 2, 1, 2, 11, 60, 135, 134, 59, 135, 60, 1, 1.20482
394, 3, wb, attraction, a-b-da, 2, 1, 2, 11, 60, 135, 134, 59, 135, 60, 3, 0.627768
394, 3, wb, attraction, a-b-da, 5, 3, 2, 12, 190, 117, 120, 195, 195, 120, 1, 2.00826
394, 3, wb, attraction, a-b-da, 5, 3, 2, 12, 190, 117, 120, 195, 195, 120, 2, 0.510258
394, 3, wb, attraction, a-b-da, 5, 2, 2, 13, 165, 90, 90, 165, 161, 88, 3, 1.39125
394, 3, wb, attraction, a-b-da, 5, 2, 2, 13, 165, 90, 90, 165, 161, 88, 1, 3.40615
394, 3, wb, filler, NA, 999, 999, 2, 14, 179, 177, 164, 140, 151, 176, 2, 2.49096
394, 3, wb, filler, NA, 999, 999, 2, 14, 179, 177, 164, 140, 151, 176, 1, 1.34164
394, 3, wb, attraction, a-b-db, 14, 2, 2, 15, 83, 153, 165, 90, 90, 165, 1, 4.05321
394, 3, wb, attraction, a-b-db, 14, 2, 2, 15, 83, 153, 165, 90, 90, 165, 3, 1.45717
394, 3, wb, attraction, a-b-db, 5, 2, 2, 16, 90, 165, 88, 161, 165, 90, 2, 2.69211
394, 3, wb, attraction, a-b-db, 5, 2, 2, 16, 90, 165, 88, 161, 165, 90, 3, 0.694449
394, 3, wb, attraction, a-b-da, 9, 2, 2, 17, 90, 165, 165, 90, 157, 86, 1, 3.55211
394, 3, wb, attraction, a-b-da, 9, 2, 2, 17, 90, 165, 165, 90, 157, 86, 3, 0.768312
394, 3, wb, filler, NA, 999, 999, 2, 18, 161, 173, 153, 153, 105, 87, 3, 0.951421
394, 3, wb, filler, NA, 999, 999, 2, 18, 161, 173, 153, 153, 105, 87, 1, 0.896306
394, 3, wb, catch, NA, 999, 999, 2, 19, 159, 156, 164, 91, 112, 83, 3, 0.930043
394, 3, wb, catch, NA, 999, 999, 2, 19, 159, 156, 164, 91, 112, 83, 1, 0.539851
394, 3, wb, filler, NA, 999, 999, 2, 20, 63, 169, 66, 165, 132, 153, 1, 0.94818
394, 3, wb, filler, NA, 999, 999, 2, 20, 63, 169, 66, 165, 132, 153, 3, 0.605303
394, 3, wb, attraction, a-b-db, 2, 3, 2, 21, 195, 120, 119, 193, 120, 195, 1, 1.03499
394, 3, wb, attraction, a-b-db, 2, 3, 2, 21, 195, 120, 119, 193, 120, 195, 3, 0.568676
394, 3, wb, attraction, a-b-db, 5, 1, 2, 22, 60, 135, 135, 60, 58, 132, 3, 2.29575
394, 3, wb, attraction, a-b-db, 5, 1, 2, 22, 60, 135, 135, 60, 58, 132, 1, 0.490322
394, 3, wb, attraction, a-b-da, 2, 3, 2, 23, 195, 120, 120, 195, 193, 119, 1, 3.76409
394, 3, wb, attraction, a-b-da, 2, 3, 2, 23, 195, 120, 120, 195, 193, 119, 2, 0.579534
394, 3, wb, attraction, a-b-db, 14, 1, 2, 24, 56, 125, 135, 60, 60, 135, 1, 0.977947
394, 3, wb, attraction, a-b-db, 14, 1, 2, 24, 56, 125, 135, 60, 60, 135, 3, 0.521673
394, 3, wb, filler, NA, 999, 999, 2, 25, 128, 190, 166, 107, 94, 82, 3, 1.0828
394, 3, wb, filler, NA, 999, 999, 2, 25, 128, 190, 166, 107, 94, 82, 1, 0.854384
394, 3, wb, attraction, a-b-db, 2, 1, 2, 26, 135, 60, 59, 134, 60, 135, 1, 0.962174
394, 3, wb, attraction, a-b-db, 2, 1, 2, 26, 135, 60, 59, 134, 60, 135, 3, 0.722319
394, 3, wb, attraction, a-b-da, 14, 3, 2, 27, 195, 120, 181, 111, 120, 195, 2, 0.939483
394, 3, wb, attraction, a-b-da, 14, 3, 2, 27, 195, 120, 181, 111, 120, 195, 3, 1.66049
394, 3, wb, filler, NA, 999, 999, 2, 28, 111, 89, 188, 165, 61, 137, 3, 1.06319
394, 3, wb, filler, NA, 999, 999, 2, 28, 111, 89, 188, 165, 61, 137, 1, 0.89956
394, 3, wb, catch, NA, 999, 999, 2, 29, 98, 157, 86, 109, 127, 188, 2, 1.34118
394, 3, wb, catch, NA, 999, 999, 2, 29, 98, 157, 86, 109, 127, 188, 3, 0.310081
394, 3, wb, filler, NA, 999, 999, 2, 30, 77, 124, 145, 148, 182, 138, 1, 0.687156
394, 3, wb, filler, NA, 999, 999, 2, 30, 77, 124, 145, 148, 182, 138, 3, 0.483085
394, 3, wb, attraction, a-b-db, 9, 3, 2, 31, 195, 120, 114, 186, 120, 195, 1, 2.08547
394, 3, wb, attraction, a-b-db, 9, 3, 2, 31, 195, 120, 114, 186, 120, 195, 3, 1.19275
394, 3, wb, filler, NA, 999, 999, 2, 32, 135, 153, 82, 182, 195, 85, 2, 2.2063
394, 3, wb, filler, NA, 999, 999, 2, 32, 135, 153, 82, 182, 195, 85, 1, 0.412291
394, 3, wb, attraction, a-b-db, 2, 2, 2, 33, 89, 163, 165, 90, 90, 165, 2, 1.86543
394, 3, wb, attraction, a-b-db, 2, 2, 2, 33, 89, 163, 165, 90, 90, 165, 3, 0.573505
394, 3, wb, attraction, a-b-db, 9, 1, 2, 34, 57, 129, 60, 135, 135, 60, 2, 0.835908
394, 3, wb, attraction, a-b-db, 9, 1, 2, 34, 57, 129, 60, 135, 135, 60, 3, 1.53771
394, 3, wb, attraction, a-b-da, 9, 3, 2, 35, 186, 114, 120, 195, 195, 120, 1, 1.24975
394, 3, wb, attraction, a-b-da, 9, 3, 2, 35, 186, 114, 120, 195, 195, 120, 2, 0.526656
394, 3, wb, attraction, a-b-da, 14, 2, 2, 36, 165, 90, 153, 83, 90, 165, 1, 1.6952
394, 3, wb, attraction, a-b-da, 14, 2, 2, 36, 165, 90, 153, 83, 90, 165, 3, 0.665928
394, 3, wb, attraction, a-b-da, 2, 2, 2, 37, 165, 90, 163, 89, 90, 165, 2, 2.38087
394, 3, wb, attraction, a-b-da, 2, 2, 2, 37, 165, 90, 163, 89, 90, 165, 1, 0.404186
394, 3, wb, filler, NA, 999, 999, 3, 1, 166, 146, 188, 131, 108, 147, 3, 1.0901
394, 3, wb, filler, NA, 999, 999, 3, 1, 166, 146, 188, 131, 108, 147, 1, 0.716963
394, 3, wb, attraction, a-b-da, 9, 3, 3, 2, 195, 120, 186, 114, 120, 195, 3, 2.30201
394, 3, wb, attraction, a-b-da, 9, 3, 3, 2, 195, 120, 186, 114, 120, 195, 2, 2.03265
394, 3, wb, attraction, a-b-db, 14, 2, 3, 3, 90, 165, 165, 90, 83, 153, 2, 3.82855
394, 3, wb, attraction, a-b-db, 14, 2, 3, 3, 90, 165, 165, 90, 83, 153, 1, 0.393456
394, 3, wb, filler, NA, 999, 999, 3, 4, 88, 191, 100, 104, 89, 113, 2, 0.983181
394, 3, wb, filler, NA, 999, 999, 3, 4, 88, 191, 100, 104, 89, 113, 1, 0.42285
394, 3, wb, attraction, a-b-da, 5, 1, 3, 5, 60, 135, 132, 58, 135, 60, 1, 2.34799
394, 3, wb, attraction, a-b-da, 5, 1, 3, 5, 60, 135, 132, 58, 135, 60, 3, 0.500507
394, 3, wb, attraction, a-b-da, 2, 2, 3, 6, 163, 89, 165, 90, 90, 165, 2, 2.59834
394, 3, wb, attraction, a-b-da, 2, 2, 3, 6, 163, 89, 165, 90, 90, 165, 1, 0.548844
394, 3, wb, attraction, a-b-da, 14, 3, 3, 7, 120, 195, 181, 111, 195, 120, 1, 1.32456
394, 3, wb, attraction, a-b-da, 14, 3, 3, 7, 120, 195, 181, 111, 195, 120, 3, 0.47019
394, 3, wb, attraction, a-b-db, 9, 3, 3, 8, 120, 195, 195, 120, 114, 186, 1, 1.17736
394, 3, wb, attraction, a-b-db, 9, 3, 3, 8, 120, 195, 195, 120, 114, 186, 2, 0.657032
394, 3, wb, catch, NA, 999, 999, 3, 9, 156, 159, 90, 165, 97, 98, 3, 1.00396
394, 3, wb, catch, NA, 999, 999, 3, 9, 156, 159, 90, 165, 97, 98, 1, 0.490995
394, 3, wb, attraction, a-b-db, 9, 1, 3, 10, 57, 129, 135, 60, 60, 135, 1, 0.884757
394, 3, wb, attraction, a-b-db, 9, 1, 3, 10, 57, 129, 135, 60, 60, 135, 3, 0.760478
394, 3, wb, attraction, a-b-db, 2, 1, 3, 11, 135, 60, 59, 134, 60, 135, 1, 1.27146
394, 3, wb, attraction, a-b-db, 2, 1, 3, 11, 135, 60, 59, 134, 60, 135, 3, 0.651097
394, 3, wb, filler, NA, 999, 999, 3, 12, 182, 106, 74, 117, 77, 191, 2, 0.798798
394, 3, wb, filler, NA, 999, 999, 3, 12, 182, 106, 74, 117, 77, 191, 1, 1.30989
394, 3, wb, attraction, a-b-db, 2, 3, 3, 13, 120, 195, 195, 120, 119, 193, 3, 1.01479
394, 3, wb, attraction, a-b-db, 2, 3, 3, 13, 120, 195, 195, 120, 119, 193, 2, 0.637053
394, 3, wb, attraction, a-b-da, 2, 3, 3, 14, 193, 119, 120, 195, 195, 120, 1, 1.20145
394, 3, wb, attraction, a-b-da, 2, 3, 3, 14, 193, 119, 120, 195, 195, 120, 3, 0.54437
394, 3, wb, catch, NA, 999, 999, 3, 15, 115, 140, 132, 183, 133, 62, 3, 1.92025
394, 3, wb, catch, NA, 999, 999, 3, 15, 115, 140, 132, 183, 133, 62, 2, 0.402285
394, 3, wb, filler, NA, 999, 999, 3, 16, 89, 68, 97, 144, 77, 143, 1, 0.776072
394, 3, wb, filler, NA, 999, 999, 3, 16, 89, 68, 97, 144, 77, 143, 2, 0.511816
394, 3, wb, filler, NA, 999, 999, 3, 17, 161, 144, 72, 193, 98, 57, 3, 0.960931
394, 3, wb, filler, NA, 999, 999, 3, 17, 161, 144, 72, 193, 98, 57, 1, 0.53741
394, 3, wb, attraction, a-b-da, 5, 3, 3, 18, 120, 195, 195, 120, 190, 117, 2, 2.06579
394, 3, wb, attraction, a-b-da, 5, 3, 3, 18, 120, 195, 195, 120, 190, 117, 1, 0.453607
394, 3, wb, attraction, a-b-db, 14, 1, 3, 19, 56, 125, 60, 135, 135, 60, 1, 1.24138
394, 3, wb, attraction, a-b-db, 14, 1, 3, 19, 56, 125, 60, 135, 135, 60, 3, 0.678457
394, 3, wb, attraction, a-b-db, 5, 2, 3, 20, 90, 165, 165, 90, 88, 161, 1, 1.72093
394, 3, wb, attraction, a-b-db, 5, 2, 3, 20, 90, 165, 165, 90, 88, 161, 3, 0.435059
394, 3, wb, attraction, a-b-db, 5, 3, 3, 21, 117, 190, 120, 195, 195, 120, 1, 2.31937
394, 3, wb, attraction, a-b-db, 5, 3, 3, 21, 117, 190, 120, 195, 195, 120, 2, 0.88126
394, 3, wb, attraction, a-b-da, 14, 1, 3, 22, 135, 60, 125, 56, 60, 135, 2, 2.15554
394, 3, wb, attraction, a-b-da, 14, 1, 3, 22, 135, 60, 125, 56, 60, 135, 1, 0.691538
394, 3, wb, attraction, a-b-db, 9, 2, 3, 23, 90, 165, 165, 90, 86, 157, 2, 1.22118
394, 3, wb, attraction, a-b-db, 9, 2, 3, 23, 90, 165, 165, 90, 86, 157, 3, 0.787498
394, 3, wb, attraction, a-b-da, 9, 1, 3, 24, 60, 135, 129, 57, 135, 60, 2, 0.874013
394, 3, wb, attraction, a-b-da, 9, 1, 3, 24, 60, 135, 129, 57, 135, 60, 3, 0.693554
394, 3, wb, attraction, a-b-da, 14, 2, 3, 25, 90, 165, 153, 83, 165, 90, 2, 2.8953
394, 3, wb, attraction, a-b-da, 14, 2, 3, 25, 90, 165, 153, 83, 165, 90, 3, 0.801761
394, 3, wb, filler, NA, 999, 999, 3, 26, 176, 83, 132, 160, 129, 65, 3, 1.15941
394, 3, wb, filler, NA, 999, 999, 3, 26, 176, 83, 132, 160, 129, 65, 2, 0.463721
394, 3, wb, attraction, a-b-db, 2, 2, 3, 27, 89, 163, 165, 90, 90, 165, 1, 2.36284
394, 3, wb, attraction, a-b-db, 2, 2, 3, 27, 89, 163, 165, 90, 90, 165, 3, 3.03477
394, 3, wb, attraction, a-b-db, 5, 1, 3, 28, 135, 60, 60, 135, 58, 132, 3, 3.30235
394, 3, wb, attraction, a-b-db, 5, 1, 3, 28, 135, 60, 60, 135, 58, 132, 2, 1.57674
394, 3, wb, filler, NA, 999, 999, 3, 29, 138, 78, 135, 165, 88, 70, 3, 1.15874
394, 3, wb, filler, NA, 999, 999, 3, 29, 138, 78, 135, 165, 88, 70, 2, 0.343118
394, 3, wb, attraction, a-b-db, 14, 3, 3, 30, 195, 120, 120, 195, 111, 181, 1, 3.67892
394, 3, wb, attraction, a-b-db, 14, 3, 3, 30, 195, 120, 120, 195, 111, 181, 2, 0.80965
394, 3, wb, filler, NA, 999, 999, 3, 31, 63, 83, 115, 188, 195, 171, 1, 5.87077
394, 3, wb, filler, NA, 999, 999, 3, 31, 63, 83, 115, 188, 195, 171, 3, 0.441579
394, 3, wb, filler, NA, 999, 999, 3, 32, 95, 154, 155, 105, 153, 172, 1, 1.59732
394, 3, wb, filler, NA, 999, 999, 3, 32, 95, 154, 155, 105, 153, 172, 3, 0.484177
394, 3, wb, attraction, a-b-da, 2, 1, 3, 33, 135, 60, 60, 135, 134, 59, 2, 4.5506
394, 3, wb, attraction, a-b-da, 2, 1, 3, 33, 135, 60, 60, 135, 134, 59, 1, 1.29449
394, 3, wb, attraction, a-b-da, 5, 2, 3, 34, 90, 165, 165, 90, 161, 88, 3, 7.27995
394, 3, wb, attraction, a-b-da, 5, 2, 3, 34, 90, 165, 165, 90, 161, 88, 1, 0.401682
394, 3, wb, catch, NA, 999, 999, 3, 35, 125, 130, 139, 176, 84, 111, 3, 0.791601
394, 3, wb, catch, NA, 999, 999, 3, 35, 125, 130, 139, 176, 84, 111, 2, 0.374543
394, 3, wb, filler, NA, 999, 999, 3, 36, 118, 144, 195, 75, 140, 182, 2, 1.92512
394, 3, wb, filler, NA, 999, 999, 3, 36, 118, 144, 195, 75, 140, 182, 3, 0.678495
394, 3, wb, attraction, a-b-da, 9, 2, 3, 37, 157, 86, 165, 90, 90, 165, 1, 4.71298
394, 3, wb, attraction, a-b-da, 9, 2, 3, 37, 157, 86, 165, 90, 90, 165, 3, 0.562014
394, 3, wb, filler, NA, 999, 999, 4, 1, 170, 66, 163, 97, 78, 57, 3, 0.84112
394, 3, wb, filler, NA, 999, 999, 4, 1, 170, 66, 163, 97, 78, 57, 2, 0.790205
394, 3, wb, attraction, a-b-db, 9, 3, 4, 2, 195, 120, 120, 195, 114, 186, 1, 4.6039
394, 3, wb, attraction, a-b-db, 9, 3, 4, 2, 195, 120, 120, 195, 114, 186, 2, 0.737725
394, 3, wb, attraction, a-b-db, 14, 1, 4, 3, 60, 135, 56, 125, 135, 60, 2, 1.2181
394, 3, wb, attraction, a-b-db, 14, 1, 4, 3, 60, 135, 56, 125, 135, 60, 3, 0.576266
394, 3, wb, catch, NA, 999, 999, 4, 4, 128, 67, 141, 114, 139, 176, 1, 0.91081
394, 3, wb, catch, NA, 999, 999, 4, 4, 128, 67, 141, 114, 139, 176, 3, 0.425168
394, 3, wb, catch, NA, 999, 999, 4, 5, 134, 61, 107, 148, 170, 145, 1, 0.909715
394, 3, wb, catch, NA, 999, 999, 4, 5, 134, 61, 107, 148, 170, 145, 3, 0.431988
394, 3, wb, attraction, a-b-da, 5, 2, 4, 6, 161, 88, 90, 165, 165, 90, 1, 1.56449
394, 3, wb, attraction, a-b-da, 5, 2, 4, 6, 161, 88, 90, 165, 165, 90, 3, 0.516567
394, 3, wb, attraction, a-b-db, 5, 1, 4, 7, 135, 60, 60, 135, 58, 132, 2, 1.77366
394, 3, wb, attraction, a-b-db, 5, 1, 4, 7, 135, 60, 60, 135, 58, 132, 1, 0.437148
394, 3, wb, attraction, a-b-db, 2, 2, 4, 8, 90, 165, 165, 90, 89, 163, 2, 0.649662
394, 3, wb, attraction, a-b-db, 2, 2, 4, 8, 90, 165, 165, 90, 89, 163, 3, 0.350692
394, 3, wb, attraction, a-b-db, 5, 2, 4, 9, 90, 165, 165, 90, 88, 161, 2, 2.08656
394, 3, wb, attraction, a-b-db, 5, 2, 4, 9, 90, 165, 165, 90, 88, 161, 1, 0.537787
394, 3, wb, filler, NA, 999, 999, 4, 10, 97, 92, 115, 177, 65, 152, 3, 1.41024
394, 3, wb, filler, NA, 999, 999, 4, 10, 97, 92, 115, 177, 65, 152, 2, 0.480525
394, 3, wb, attraction, a-b-da, 2, 3, 4, 11, 195, 120, 120, 195, 193, 119, 2, 2.17894
394, 3, wb, attraction, a-b-da, 2, 3, 4, 11, 195, 120, 120, 195, 193, 119, 1, 1.46627
394, 3, wb, attraction, a-b-da, 9, 2, 4, 12, 165, 90, 157, 86, 90, 165, 2, 3.14106
394, 3, wb, attraction, a-b-da, 9, 2, 4, 12, 165, 90, 157, 86, 90, 165, 1, 0.525405
394, 3, wb, attraction, a-b-da, 2, 1, 4, 13, 134, 59, 60, 135, 135, 60, 2, 0.989769
394, 3, wb, attraction, a-b-da, 2, 1, 4, 13, 134, 59, 60, 135, 135, 60, 3, 1.08483
394, 3, wb, attraction, a-b-da, 14, 2, 4, 14, 165, 90, 90, 165, 153, 83, 2, 0.903126
394, 3, wb, attraction, a-b-da, 14, 2, 4, 14, 165, 90, 90, 165, 153, 83, 1, 1.1541
394, 3, wb, attraction, a-b-da, 2, 2, 4, 15, 163, 89, 165, 90, 90, 165, 3, 1.44966
394, 3, wb, attraction, a-b-da, 2, 2, 4, 15, 163, 89, 165, 90, 90, 165, 1, 0.830552
394, 3, wb, filler, NA, 999, 999, 4, 16, 95, 132, 165, 96, 152, 195, 1, 0.874885
394, 3, wb, filler, NA, 999, 999, 4, 16, 95, 132, 165, 96, 152, 195, 3, 0.678655
394, 3, wb, attraction, a-b-da, 14, 3, 4, 17, 181, 111, 120, 195, 195, 120, 2, 5.37709
394, 3, wb, attraction, a-b-da, 14, 3, 4, 17, 181, 111, 120, 195, 195, 120, 3, 0.487328
394, 3, wb, filler, NA, 999, 999, 4, 18, 110, 120, 102, 160, 142, 76, 3, 1.25788
394, 3, wb, filler, NA, 999, 999, 4, 18, 110, 120, 102, 160, 142, 76, 2, 0.733959
394, 3, wb, filler, NA, 999, 999, 4, 19, 122, 77, 115, 93, 67, 105, 3, 0.838334
394, 3, wb, filler, NA, 999, 999, 4, 19, 122, 77, 115, 93, 67, 105, 2, 0.371412
394, 3, wb, attraction, a-b-db, 9, 2, 4, 20, 165, 90, 90, 165, 86, 157, 1, 1.5226
394, 3, wb, attraction, a-b-db, 9, 2, 4, 20, 165, 90, 90, 165, 86, 157, 2, 1.42812
394, 3, wb, filler, NA, 999, 999, 4, 21, 109, 138, 169, 186, 142, 132, 1, 1.19716
394, 3, wb, filler, NA, 999, 999, 4, 21, 109, 138, 169, 186, 142, 132, 2, 0.655264
394, 3, wb, filler, NA, 999, 999, 4, 22, 125, 110, 157, 170, 137, 58, 3, 1.88289
394, 3, wb, filler, NA, 999, 999, 4, 22, 125, 110, 157, 170, 137, 58, 2, 0.326489
394, 3, wb, attraction, a-b-db, 14, 3, 4, 23, 120, 195, 195, 120, 111, 181, 3, 2.15883
394, 3, wb, attraction, a-b-db, 14, 3, 4, 23, 120, 195, 195, 120, 111, 181, 1, 1.11078
394, 3, wb, attraction, a-b-db, 5, 3, 4, 24, 120, 195, 195, 120, 117, 190, 2, 1.86367
394, 3, wb, attraction, a-b-db, 5, 3, 4, 24, 120, 195, 195, 120, 117, 190, 3, 0.411752
394, 3, wb, filler, NA, 999, 999, 4, 25, 175, 178, 185, 75, 161, 148, 3, 1.04098
394, 3, wb, filler, NA, 999, 999, 4, 25, 175, 178, 185, 75, 161, 148, 1, 1.37383
394, 3, wb, attraction, a-b-da, 9, 3, 4, 26, 186, 114, 195, 120, 120, 195, 1, 2.572
394, 3, wb, attraction, a-b-da, 9, 3, 4, 26, 186, 114, 195, 120, 120, 195, 2, 2.15592
394, 3, wb, filler, NA, 999, 999, 4, 27, 129, 193, 195, 128, 102, 93, 3, 0.987381
394, 3, wb, filler, NA, 999, 999, 4, 27, 129, 193, 195, 128, 102, 93, 2, 0.338898
394, 3, wb, attraction, a-b-db, 2, 1, 4, 28, 60, 135, 59, 134, 135, 60, 1, 1.8914
394, 3, wb, attraction, a-b-db, 2, 1, 4, 28, 60, 135, 59, 134, 135, 60, 3, 2.27007
394, 3, wb, attraction, a-b-da, 5, 3, 4, 29, 190, 117, 120, 195, 195, 120, 1, 5.04065
394, 3, wb, attraction, a-b-da, 5, 3, 4, 29, 190, 117, 120, 195, 195, 120, 2, 0.324348
394, 3, wb, catch, NA, 999, 999, 4, 30, 131, 184, 87, 108, 104, 151, 2, 0.748998
394, 3, wb, catch, NA, 999, 999, 4, 30, 131, 184, 87, 108, 104, 151, 1, 0.973919
394, 3, wb, attraction, a-b-da, 14, 1, 4, 31, 60, 135, 125, 56, 135, 60, 2, 1.08418
394, 3, wb, attraction, a-b-da, 14, 1, 4, 31, 60, 135, 125, 56, 135, 60, 3, 0.359987
394, 3, wb, attraction, a-b-da, 9, 1, 4, 32, 135, 60, 60, 135, 129, 57, 2, 0.671124
394, 3, wb, attraction, a-b-da, 9, 1, 4, 32, 135, 60, 60, 135, 129, 57, 1, 0.963545
394, 3, wb, attraction, a-b-db, 9, 1, 4, 33, 135, 60, 60, 135, 57, 129, 2, 1.34639
394, 3, wb, attraction, a-b-db, 9, 1, 4, 33, 135, 60, 60, 135, 57, 129, 1, 1.66728
394, 3, wb, filler, NA, 999, 999, 4, 34, 166, 164, 185, 100, 104, 184, 3, 3.00623
394, 3, wb, filler, NA, 999, 999, 4, 34, 166, 164, 185, 100, 104, 184, 1, 0.691757
394, 3, wb, attraction, a-b-da, 5, 1, 4, 35, 132, 58, 135, 60, 60, 135, 3, 2.24568
394, 3, wb, attraction, a-b-da, 5, 1, 4, 35, 132, 58, 135, 60, 60, 135, 1, 0.666063
394, 3, wb, attraction, a-b-db, 2, 3, 4, 36, 119, 193, 120, 195, 195, 120, 1, 1.46118
394, 3, wb, attraction, a-b-db, 2, 3, 4, 36, 119, 193, 120, 195, 195, 120, 3, 0.609419
394, 3, wb, attraction, a-b-db, 14, 2, 4, 37, 83, 153, 165, 90, 90, 165, 2, 0.830472
394, 3, wb, attraction, a-b-db, 14, 2, 4, 37, 83, 153, 165, 90, 90, 165, 3, 3.30835
394, 3, wb, attraction, a-b-db, 9, 1, 5, 1, 60, 135, 135, 60, 57, 129, 3, 1.51506
394, 3, wb, attraction, a-b-db, 9, 1, 5, 1, 60, 135, 135, 60, 57, 129, 1, 1.46118
394, 3, wb, attraction, a-b-db, 5, 3, 5, 2, 117, 190, 195, 120, 120, 195, 2, 1.19192
394, 3, wb, attraction, a-b-db, 5, 3, 5, 2, 117, 190, 195, 120, 120, 195, 1, 0.454978
394, 3, wb, filler, NA, 999, 999, 5, 3, 172, 133, 95, 77, 65, 177, 2, 0.634721
394, 3, wb, filler, NA, 999, 999, 5, 3, 172, 133, 95, 77, 65, 177, 1, 0.416486
394, 3, wb, attraction, a-b-db, 5, 2, 5, 4, 165, 90, 88, 161, 90, 165, 1, 2.26969
394, 3, wb, attraction, a-b-db, 5, 2, 5, 4, 165, 90, 88, 161, 90, 165, 3, 0.481609
394, 3, wb, attraction, a-b-da, 14, 2, 5, 5, 153, 83, 165, 90, 90, 165, 1, 1.1
394, 3, wb, attraction, a-b-da, 14, 2, 5, 5, 153, 83, 165, 90, 90, 165, 3, 0.422974
394, 3, wb, catch, NA, 999, 999, 5, 6, 179, 136, 129, 66, 124, 131, 2, 0.788087
394, 3, wb, catch, NA, 999, 999, 5, 6, 179, 136, 129, 66, 124, 131, 1, 0.411867
394, 3, wb, attraction, a-b-db, 14, 1, 5, 7, 60, 135, 56, 125, 135, 60, 2, 1.93701
394, 3, wb, attraction, a-b-db, 14, 1, 5, 7, 60, 135, 56, 125, 135, 60, 1, 2.32236
394, 3, wb, attraction, a-b-db, 2, 3, 5, 8, 119, 193, 120, 195, 195, 120, 2, 2.05088
394, 3, wb, attraction, a-b-db, 2, 3, 5, 8, 119, 193, 120, 195, 195, 120, 1, 1.85566
394, 3, wb, attraction, a-b-da, 5, 1, 5, 9, 132, 58, 135, 60, 60, 135, 1, 2.29911
394, 3, wb, attraction, a-b-da, 5, 1, 5, 9, 132, 58, 135, 60, 60, 135, 2, 0.565721
394, 3, wb, attraction, a-b-db, 2, 1, 5, 10, 59, 134, 135, 60, 60, 135, 3, 3.25279
394, 3, wb, attraction, a-b-db, 2, 1, 5, 10, 59, 134, 135, 60, 60, 135, 2, 0.729038
394, 3, wb, attraction, a-b-da, 2, 1, 5, 11, 135, 60, 60, 135, 134, 59, 2, 2.00133
394, 3, wb, attraction, a-b-da, 2, 1, 5, 11, 135, 60, 60, 135, 134, 59, 3, 2.392
394, 3, wb, filler, NA, 999, 999, 5, 12, 106, 139, 167, 140, 166, 93, 3, 1.48523
394, 3, wb, filler, NA, 999, 999, 5, 12, 106, 139, 167, 140, 166, 93, 2, 0.448839
394, 3, wb, attraction, a-b-db, 5, 1, 5, 13, 58, 132, 60, 135, 135, 60, 1, 3.78852
394, 3, wb, attraction, a-b-db, 5, 1, 5, 13, 58, 132, 60, 135, 135, 60, 2, 0.563277
394, 3, wb, filler, NA, 999, 999, 5, 14, 75, 157, 184, 86, 152, 148, 2, 2.69852
394, 3, wb, filler, NA, 999, 999, 5, 14, 75, 157, 184, 86, 152, 148, 3, 0.516901
394, 3, wb, attraction, a-b-da, 9, 2, 5, 15, 165, 90, 90, 165, 157, 86, 2, 1.06204
394, 3, wb, attraction, a-b-da, 9, 2, 5, 15, 165, 90, 90, 165, 157, 86, 1, 0.530237
394, 3, wb, attraction, a-b-da, 9, 1, 5, 16, 135, 60, 129, 57, 60, 135, 2, 0.906757
394, 3, wb, attraction, a-b-da, 9, 1, 5, 16, 135, 60, 129, 57, 60, 135, 3, 0.917111
394, 3, wb, filler, NA, 999, 999, 5, 17, 182, 72, 165, 180, 190, 62, 3, 1.47814
394, 3, wb, filler, NA, 999, 999, 5, 17, 182, 72, 165, 180, 190, 62, 2, 0.377624
394, 3, wb, attraction, a-b-da, 9, 3, 5, 18, 186, 114, 195, 120, 120, 195, 1, 0.880128
394, 3, wb, attraction, a-b-da, 9, 3, 5, 18, 186, 114, 195, 120, 120, 195, 2, 0.52376
394, 3, wb, attraction, a-b-db, 9, 2, 5, 19, 165, 90, 86, 157, 90, 165, 1, 0.980262
394, 3, wb, attraction, a-b-db, 9, 2, 5, 19, 165, 90, 86, 157, 90, 165, 3, 0.459964
394, 3, wb, attraction, a-b-da, 5, 2, 5, 20, 90, 165, 165, 90, 161, 88, 2, 0.991067
394, 3, wb, attraction, a-b-da, 5, 2, 5, 20, 90, 165, 165, 90, 161, 88, 3, 0.686071
394, 3, wb, attraction, a-b-da, 5, 3, 5, 21, 195, 120, 120, 195, 190, 117, 3, 1.44048
394, 3, wb, attraction, a-b-da, 5, 3, 5, 21, 195, 120, 120, 195, 190, 117, 2, 1.44523
394, 3, wb, attraction, a-b-da, 2, 3, 5, 22, 120, 195, 195, 120, 193, 119, 1, 1.26469
394, 3, wb, attraction, a-b-da, 2, 3, 5, 22, 120, 195, 195, 120, 193, 119, 2, 0.372993
394, 3, wb, attraction, a-b-da, 14, 1, 5, 23, 60, 135, 135, 60, 125, 56, 3, 1.9962
394, 3, wb, attraction, a-b-da, 14, 1, 5, 23, 60, 135, 135, 60, 125, 56, 2, 0.643019
394, 3, wb, attraction, a-b-db, 14, 3, 5, 24, 195, 120, 111, 181, 120, 195, 3, 1.47066
394, 3, wb, attraction, a-b-db, 14, 3, 5, 24, 195, 120, 111, 181, 120, 195, 1, 0.770776
394, 3, wb, attraction, a-b-db, 2, 2, 5, 25, 165, 90, 90, 165, 89, 163, 1, 1.00189
394, 3, wb, attraction, a-b-db, 2, 2, 5, 25, 165, 90, 90, 165, 89, 163, 2, 0.448893
394, 3, wb, filler, NA, 999, 999, 5, 26, 84, 72, 153, 191, 79, 149, 1, 1.88453
394, 3, wb, filler, NA, 999, 999, 5, 26, 84, 72, 153, 191, 79, 149, 2, 0.487943
394, 3, wb, filler, NA, 999, 999, 5, 27, 76, 193, 159, 85, 108, 184, 1, 0.810491
394, 3, wb, filler, NA, 999, 999, 5, 27, 76, 193, 159, 85, 108, 184, 3, 0.416801
394, 3, wb, filler, NA, 999, 999, 5, 28, 120, 127, 139, 98, 75, 100, 3, 1.10193
394, 3, wb, filler, NA, 999, 999, 5, 28, 120, 127, 139, 98, 75, 100, 1, 0.440888
394, 3, wb, filler, NA, 999, 999, 5, 29, 133, 162, 156, 175, 103, 188, 3, 0.748671
394, 3, wb, filler, NA, 999, 999, 5, 29, 133, 162, 156, 175, 103, 188, 2, 0.54181
394, 3, wb, filler, NA, 999, 999, 5, 30, 157, 103, 190, 144, 85, 140, 3, 0.885642
394, 3, wb, filler, NA, 999, 999, 5, 30, 157, 103, 190, 144, 85, 140, 2, 0.473331
394, 3, wb, attraction, a-b-db, 14, 2, 5, 31, 90, 165, 83, 153, 165, 90, 1, 1.05239
394, 3, wb, attraction, a-b-db, 14, 2, 5, 31, 90, 165, 83, 153, 165, 90, 3, 0.729394
394, 3, wb, attraction, a-b-db, 9, 3, 5, 32, 120, 195, 114, 186, 195, 120, 3, 1.26574
394, 3, wb, attraction, a-b-db, 9, 3, 5, 32, 120, 195, 114, 186, 195, 120, 2, 0.725974
394, 3, wb, filler, NA, 999, 999, 5, 33, 88, 97, 127, 115, 135, 181, 1, 0.750437
394, 3, wb, filler, NA, 999, 999, 5, 33, 88, 97, 127, 115, 135, 181, 3, 0.503428
394, 3, wb, attraction, a-b-da, 14, 3, 5, 34, 195, 120, 181, 111, 120, 195, 3, 1.05731
394, 3, wb, attraction, a-b-da, 14, 3, 5, 34, 195, 120, 181, 111, 120, 195, 1, 0.541501
394, 3, wb, catch, NA, 999, 999, 5, 35, 136, 179, 128, 67, 141, 114, 2, 0.725347
394, 3, wb, catch, NA, 999, 999, 5, 35, 136, 179, 128, 67, 141, 114, 1, 0.511133
394, 3, wb, catch, NA, 999, 999, 5, 36, 109, 86, 191, 124, 92, 163, 1, 0.88024
394, 3, wb, catch, NA, 999, 999, 5, 36, 109, 86, 191, 124, 92, 163, 2, 0.459888
394, 3, wb, attraction, a-b-da, 2, 2, 5, 37, 163, 89, 90, 165, 165, 90, 3, 1.79909
394, 3, wb, attraction, a-b-da, 2, 2, 5, 37, 163, 89, 90, 165, 165, 90, 2, 0.685747
394, 3, wb, catch, NA, 999, 999, 6, 1, 117, 138, 80, 115, 167, 148, 2, 0.920237
394, 3, wb, catch, NA, 999, 999, 6, 1, 117, 138, 80, 115, 167, 148, 3, 0.354498
394, 3, wb, attraction, a-b-da, 14, 1, 6, 2, 60, 135, 135, 60, 125, 56, 1, 0.906419
394, 3, wb, attraction, a-b-da, 14, 1, 6, 2, 60, 135, 135, 60, 125, 56, 3, 1.0768
394, 3, wb, filler, NA, 999, 999, 6, 3, 68, 69, 102, 157, 140, 156, 1, 0.646962
394, 3, wb, filler, NA, 999, 999, 6, 3, 68, 69, 102, 157, 140, 156, 3, 0.500031
394, 3, wb, attraction, a-b-db, 14, 3, 6, 4, 111, 181, 195, 120, 120, 195, 2, 0.741864
394, 3, wb, attraction, a-b-db, 14, 3, 6, 4, 111, 181, 195, 120, 120, 195, 1, 0.39892
394, 3, wb, attraction, a-b-da, 14, 3, 6, 5, 120, 195, 181, 111, 195, 120, 2, 0.588835
394, 3, wb, attraction, a-b-da, 14, 3, 6, 5, 120, 195, 181, 111, 195, 120, 3, 0.307845
394, 3, wb, attraction, a-b-db, 9, 2, 6, 6, 165, 90, 86, 157, 90, 165, 1, 0.84502
394, 3, wb, attraction, a-b-db, 9, 2, 6, 6, 165, 90, 86, 157, 90, 165, 3, 1.11415
394, 3, wb, attraction, a-b-db, 2, 3, 6, 7, 119, 193, 195, 120, 120, 195, 1, 0.794981
394, 3, wb, attraction, a-b-db, 2, 3, 6, 7, 119, 193, 195, 120, 120, 195, 2, 0.306123
394, 3, wb, catch, NA, 999, 999, 6, 8, 171, 144, 143, 112, 131, 64, 3, 0.899921
394, 3, wb, catch, NA, 999, 999, 6, 8, 171, 144, 143, 112, 131, 64, 1, 0.391037
394, 3, wb, attraction, a-b-db, 9, 3, 6, 9, 195, 120, 114, 186, 120, 195, 1, 0.996781
394, 3, wb, attraction, a-b-db, 9, 3, 6, 9, 195, 120, 114, 186, 120, 195, 3, 0.555808
394, 3, wb, filler, NA, 999, 999, 6, 10, 177, 97, 126, 116, 72, 156, 3, 1.44352
394, 3, wb, filler, NA, 999, 999, 6, 10, 177, 97, 126, 116, 72, 156, 1, 0.472275
394, 3, wb, attraction, a-b-da, 14, 2, 6, 11, 153, 83, 165, 90, 90, 165, 2, 0.563483
394, 3, wb, attraction, a-b-da, 14, 2, 6, 11, 153, 83, 165, 90, 90, 165, 1, 0.563999
394, 3, wb, attraction, a-b-da, 2, 1, 6, 12, 60, 135, 134, 59, 135, 60, 2, 0.547018
394, 3, wb, attraction, a-b-da, 2, 1, 6, 12, 60, 135, 134, 59, 135, 60, 3, 0.348275
394, 3, wb, attraction, a-b-db, 2, 2, 6, 13, 165, 90, 90, 165, 89, 163, 1, 1.42007
394, 3, wb, attraction, a-b-db, 2, 2, 6, 13, 165, 90, 90, 165, 89, 163, 3, 0.426295
394, 3, wb, attraction, a-b-da, 5, 2, 6, 14, 90, 165, 161, 88, 165, 90, 2, 1.31066
394, 3, wb, attraction, a-b-da, 5, 2, 6, 14, 90, 165, 161, 88, 165, 90, 3, 0.288928
394, 3, wb, attraction, a-b-db, 5, 3, 6, 15, 120, 195, 117, 190, 195, 120, 3, 1.43553
394, 3, wb, attraction, a-b-db, 5, 3, 6, 15, 120, 195, 117, 190, 195, 120, 2, 0.337015
394, 3, wb, attraction, a-b-db, 5, 1, 6, 16, 135, 60, 58, 132, 60, 135, 2, 1.08944
394, 3, wb, attraction, a-b-db, 5, 1, 6, 16, 135, 60, 58, 132, 60, 135, 3, 0.932489
394, 3, wb, attraction, a-b-db, 9, 1, 6, 17, 57, 129, 135, 60, 60, 135, 1, 0.908847
394, 3, wb, attraction, a-b-db, 9, 1, 6, 17, 57, 129, 135, 60, 60, 135, 2, 0.383277
394, 3, wb, attraction, a-b-db, 2, 1, 6, 18, 59, 134, 135, 60, 60, 135, 1, 0.965676
394, 3, wb, attraction, a-b-db, 2, 1, 6, 18, 59, 134, 135, 60, 60, 135, 2, 0.333955
394, 3, wb, attraction, a-b-da, 9, 3, 6, 19, 195, 120, 186, 114, 120, 195, 2, 2.79051
394, 3, wb, attraction, a-b-da, 9, 3, 6, 19, 195, 120, 186, 114, 120, 195, 3, 0.300879
394, 3, wb, filler, NA, 999, 999, 6, 20, 179, 92, 133, 160, 173, 65, 3, 1.01483
394, 3, wb, filler, NA, 999, 999, 6, 20, 179, 92, 133, 160, 173, 65, 2, 0.293072
394, 3, wb, attraction, a-b-db, 14, 2, 6, 21, 83, 153, 90, 165, 165, 90, 3, 1.15885
394, 3, wb, attraction, a-b-db, 14, 2, 6, 21, 83, 153, 90, 165, 165, 90, 2, 0.295292
394, 3, wb, attraction, a-b-da, 9, 2, 6, 22, 157, 86, 165, 90, 90, 165, 1, 1.081
394, 3, wb, attraction, a-b-da, 9, 2, 6, 22, 157, 86, 165, 90, 90, 165, 3, 0.676815
394, 3, wb, filler, NA, 999, 999, 6, 23, 98, 185, 169, 166, 82, 163, 3, 1.48719
394, 3, wb, filler, NA, 999, 999, 6, 23, 98, 185, 169, 166, 82, 163, 2, 0.410717
394, 3, wb, filler, NA, 999, 999, 6, 24, 171, 117, 111, 83, 91, 69, 3, 0.975725
394, 3, wb, filler, NA, 999, 999, 6, 24, 171, 117, 111, 83, 91, 69, 1, 0.463485
394, 3, wb, attraction, a-b-da, 5, 1, 6, 25, 135, 60, 60, 135, 132, 58, 1, 2.90657
394, 3, wb, attraction, a-b-da, 5, 1, 6, 25, 135, 60, 60, 135, 132, 58, 3, 0.564273
394, 3, wb, filler, NA, 999, 999, 6, 26, 59, 173, 66, 159, 110, 100, 2, 2.83536
394, 3, wb, filler, NA, 999, 999, 6, 26, 59, 173, 66, 159, 110, 100, 3, 0.912446
394, 3, wb, catch, NA, 999, 999, 6, 27, 109, 86, 140, 175, 146, 109, 1, 0.649407
394, 3, wb, catch, NA, 999, 999, 6, 27, 109, 86, 140, 175, 146, 109, 2, 0.726573
394, 3, wb, filler, NA, 999, 999, 6, 28, 100, 85, 103, 116, 176, 166, 1, 0.745054
394, 3, wb, filler, NA, 999, 999, 6, 28, 100, 85, 103, 116, 176, 166, 3, 0.567985
394, 3, wb, filler, NA, 999, 999, 6, 29, 58, 133, 165, 105, 115, 148, 1, 0.599164
394, 3, wb, filler, NA, 999, 999, 6, 29, 58, 133, 165, 105, 115, 148, 3, 0.80622
394, 3, wb, attraction, a-b-da, 9, 1, 6, 30, 129, 57, 60, 135, 135, 60, 3, 1.13193
394, 3, wb, attraction, a-b-da, 9, 1, 6, 30, 129, 57, 60, 135, 135, 60, 2, 2.28563
394, 3, wb, attraction, a-b-da, 5, 3, 6, 31, 120, 195, 195, 120, 190, 117, 3, 1.41551
394, 3, wb, attraction, a-b-da, 5, 3, 6, 31, 120, 195, 195, 120, 190, 117, 1, 0.709643
394, 3, wb, attraction, a-b-da, 2, 3, 6, 32, 195, 120, 120, 195, 193, 119, 3, 1.02268
394, 3, wb, attraction, a-b-da, 2, 3, 6, 32, 195, 120, 120, 195, 193, 119, 1, 2.08437
394, 3, wb, attraction, a-b-da, 2, 2, 6, 33, 163, 89, 90, 165, 165, 90, 1, 2.42231
394, 3, wb, attraction, a-b-da, 2, 2, 6, 33, 163, 89, 90, 165, 165, 90, 2, 0.907546
394, 3, wb, attraction, a-b-db, 5, 2, 6, 34, 165, 90, 90, 165, 88, 161, 3, 0.924425
394, 3, wb, attraction, a-b-db, 5, 2, 6, 34, 165, 90, 90, 165, 88, 161, 1, 0.646128
394, 3, wb, attraction, a-b-db, 14, 1, 6, 35, 56, 125, 135, 60, 60, 135, 1, 1.00194
394, 3, wb, attraction, a-b-db, 14, 1, 6, 35, 56, 125, 135, 60, 60, 135, 2, 0.672897
394, 3, wb, filler, NA, 999, 999, 6, 36, 186, 109, 94, 116, 79, 148, 2, 1.076
394, 3, wb, filler, NA, 999, 999, 6, 36, 186, 109, 94, 116, 79, 148, 1, 1.35173
394, 3, wb, filler, NA, 999, 999, 6, 37, 104, 83, 158, 138, 191, 95, 1, 0.935153
394, 3, wb, filler, NA, 999, 999, 6, 37, 104, 83, 158, 138, 191, 95, 2, 0.784813
394, 3, wb, filler, NA, 999, 999, 7, 1, 103, 148, 141, 151, 187, 120, 1, 1.06324
394, 3, wb, filler, NA, 999, 999, 7, 1, 103, 148, 141, 151, 187, 120, 3, 0.667508
394, 3, wb, attraction, a-b-da, 2, 2, 7, 2, 165, 90, 90, 165, 163, 89, 2, 0.958527
394, 3, wb, attraction, a-b-da, 2, 2, 7, 2, 165, 90, 90, 165, 163, 89, 3, 0.863062
394, 3, wb, attraction, a-b-da, 9, 1, 7, 3, 129, 57, 60, 135, 135, 60, 2, 1.25791
394, 3, wb, attraction, a-b-da, 9, 1, 7, 3, 129, 57, 60, 135, 135, 60, 3, 0.558251
394, 3, wb, filler, NA, 999, 999, 7, 4, 81, 72, 150, 136, 186, 135, 1, 1.12517
394, 3, wb, filler, NA, 999, 999, 7, 4, 81, 72, 150, 136, 186, 135, 3, 0.622857
394, 3, wb, attraction, a-b-db, 9, 2, 7, 5, 90, 165, 86, 157, 165, 90, 2, 0.723938
394, 3, wb, attraction, a-b-db, 9, 2, 7, 5, 90, 165, 86, 157, 165, 90, 1, 1.49367
394, 3, wb, filler, NA, 999, 999, 7, 6, 172, 191, 93, 130, 71, 168, 2, 0.759139
394, 3, wb, filler, NA, 999, 999, 7, 6, 172, 191, 93, 130, 71, 168, 1, 0.543643
394, 3, wb, attraction, a-b-db, 2, 1, 7, 7, 60, 135, 135, 60, 59, 134, 2, 0.591349
394, 3, wb, attraction, a-b-db, 2, 1, 7, 7, 60, 135, 135, 60, 59, 134, 1, 0.50247
394, 3, wb, catch, NA, 999, 999, 7, 8, 94, 161, 146, 169, 124, 71, 3, 0.656225
394, 3, wb, catch, NA, 999, 999, 7, 8, 94, 161, 146, 169, 124, 71, 2, 0.316677
394, 3, wb, filler, NA, 999, 999, 7, 9, 104, 63, 144, 114, 64, 129, 1, 0.805867
394, 3, wb, filler, NA, 999, 999, 7, 9, 104, 63, 144, 114, 64, 129, 2, 0.292353
394, 3, wb, attraction, a-b-db, 9, 1, 7, 10, 60, 135, 57, 129, 135, 60, 3, 0.806202
394, 3, wb, attraction, a-b-db, 9, 1, 7, 10, 60, 135, 57, 129, 135, 60, 1, 0.492464
394, 3, wb, catch, NA, 999, 999, 7, 11, 143, 112, 116, 79, 195, 120, 2, 0.606208
394, 3, wb, catch, NA, 999, 999, 7, 11, 143, 112, 116, 79, 195, 120, 3, 0.540673
394, 3, wb, attraction, a-b-db, 14, 3, 7, 12, 195, 120, 120, 195, 111, 181, 3, 1.9965
394, 3, wb, attraction, a-b-db, 14, 3, 7, 12, 195, 120, 120, 195, 111, 181, 2, 0.275236
394, 3, wb, attraction, a-b-da, 2, 1, 7, 13, 60, 135, 134, 59, 135, 60, 1, 1.12562
394, 3, wb, attraction, a-b-da, 2, 1, 7, 13, 60, 135, 134, 59, 135, 60, 3, 0.679282
394, 3, wb, attraction, a-b-db, 2, 2, 7, 14, 165, 90, 89, 163, 90, 165, 1, 0.857695
394, 3, wb, attraction, a-b-db, 2, 2, 7, 14, 165, 90, 89, 163, 90, 165, 2, 0.542033
394, 3, wb, attraction, a-b-da, 9, 2, 7, 15, 90, 165, 165, 90, 157, 86, 2, 0.813792
394, 3, wb, attraction, a-b-da, 9, 2, 7, 15, 90, 165, 165, 90, 157, 86, 3, 0.452215
394, 3, wb, attraction, a-b-db, 14, 1, 7, 16, 56, 125, 60, 135, 135, 60, 2, 0.61616
394, 3, wb, attraction, a-b-db, 14, 1, 7, 16, 56, 125, 60, 135, 135, 60, 3, 0.59046
394, 3, wb, filler, NA, 999, 999, 7, 17, 129, 109, 144, 97, 179, 157, 2, 0.828354
394, 3, wb, filler, NA, 999, 999, 7, 17, 129, 109, 144, 97, 179, 157, 3, 0.346026
394, 3, wb, filler, NA, 999, 999, 7, 18, 194, 91, 120, 163, 75, 174, 3, 0.753857
394, 3, wb, filler, NA, 999, 999, 7, 18, 194, 91, 120, 163, 75, 174, 2, 1.03485
394, 3, wb, attraction, a-b-db, 5, 3, 7, 19, 117, 190, 120, 195, 195, 120, 1, 3.67922
394, 3, wb, attraction, a-b-db, 5, 3, 7, 19, 117, 190, 120, 195, 195, 120, 3, 0.59399
394, 3, wb, attraction, a-b-da, 5, 2, 7, 20, 90, 165, 165, 90, 161, 88, 2, 2.71967
394, 3, wb, attraction, a-b-da, 5, 2, 7, 20, 90, 165, 165, 90, 161, 88, 1, 0.881433
394, 3, wb, filler, NA, 999, 999, 7, 21, 58, 86, 113, 107, 100, 100, 1, 1.28382
394, 3, wb, filler, NA, 999, 999, 7, 21, 58, 86, 113, 107, 100, 100, 2, 1.29567
394, 3, wb, filler, NA, 999, 999, 7, 22, 91, 82, 64, 79, 63, 117, 2, 0.857021
394, 3, wb, filler, NA, 999, 999, 7, 22, 91, 82, 64, 79, 63, 117, 1, 0.789416
394, 3, wb, attraction, a-b-db, 5, 2, 7, 23, 88, 161, 165, 90, 90, 165, 1, 1.93972
394, 3, wb, attraction, a-b-db, 5, 2, 7, 23, 88, 161, 165, 90, 90, 165, 3, 0.420406
394, 3, wb, attraction, a-b-db, 9, 3, 7, 24, 120, 195, 114, 186, 195, 120, 2, 0.961574
394, 3, wb, attraction, a-b-db, 9, 3, 7, 24, 120, 195, 114, 186, 195, 120, 3, 0.529804
394, 3, wb, attraction, a-b-da, 14, 2, 7, 25, 90, 165, 153, 83, 165, 90, 2, 1.17029
394, 3, wb, attraction, a-b-da, 14, 2, 7, 25, 90, 165, 153, 83, 165, 90, 1, 0.578579
394, 3, wb, filler, NA, 999, 999, 7, 26, 99, 154, 167, 74, 127, 177, 2, 1.52914
394, 3, wb, filler, NA, 999, 999, 7, 26, 99, 154, 167, 74, 127, 177, 3, 0.386549
394, 3, wb, attraction, a-b-da, 5, 1, 7, 27, 135, 60, 132, 58, 60, 135, 1, 1.38511
394, 3, wb, attraction, a-b-da, 5, 1, 7, 27, 135, 60, 132, 58, 60, 135, 3, 1.4565
394, 3, wb, attraction, a-b-db, 5, 1, 7, 28, 60, 135, 58, 132, 135, 60, 2, 1.11606
394, 3, wb, attraction, a-b-db, 5, 1, 7, 28, 60, 135, 58, 132, 135, 60, 1, 0.790397
394, 3, wb, attraction, a-b-db, 14, 2, 7, 29, 90, 165, 165, 90, 83, 153, 3, 1.76399
394, 3, wb, attraction, a-b-db, 14, 2, 7, 29, 90, 165, 165, 90, 83, 153, 1, 0.772081
394, 3, wb, filler, NA, 999, 999, 7, 30, 169, 155, 130, 98, 180, 121, 2, 1.10714
394, 3, wb, filler, NA, 999, 999, 7, 30, 169, 155, 130, 98, 180, 121, 1, 0.677413
394, 3, wb, attraction, a-b-da, 5, 3, 7, 31, 190, 117, 120, 195, 195, 120, 1, 1.48788
394, 3, wb, attraction, a-b-da, 5, 3, 7, 31, 190, 117, 120, 195, 195, 120, 3, 0.771394
394, 3, wb, attraction, a-b-da, 2, 3, 7, 32, 193, 119, 120, 195, 195, 120, 1, 1.53042
394, 3, wb, attraction, a-b-da, 2, 3, 7, 32, 193, 119, 120, 195, 195, 120, 3, 0.739863
394, 3, wb, attraction, a-b-da, 9, 3, 7, 33, 186, 114, 195, 120, 120, 195, 3, 1.78025
394, 3, wb, attraction, a-b-da, 9, 3, 7, 33, 186, 114, 195, 120, 120, 195, 2, 0.363601
394, 3, wb, attraction, a-b-da, 14, 1, 7, 34, 60, 135, 135, 60, 125, 56, 1, 0.898758
394, 3, wb, attraction, a-b-da, 14, 1, 7, 34, 60, 135, 135, 60, 125, 56, 2, 0.421867
394, 3, wb, attraction, a-b-db, 2, 3, 7, 35, 120, 195, 119, 193, 195, 120, 3, 0.867056
394, 3, wb, attraction, a-b-db, 2, 3, 7, 35, 120, 195, 119, 193, 195, 120, 2, 0.327506
394, 3, wb, attraction, a-b-da, 14, 3, 7, 36, 181, 111, 195, 120, 120, 195, 1, 0.752071
394, 3, wb, attraction, a-b-da, 14, 3, 7, 36, 181, 111, 195, 120, 120, 195, 3, 0.457057
394, 3, wb, catch, NA, 999, 999, 7, 37, 120, 195, 153, 102, 84, 111, 3, 0.916047
394, 3, wb, catch, NA, 999, 999, 7, 37, 120, 195, 153, 102, 84, 111, 1, 0.494386
394, 3, wb, attraction, a-b-da, 2, 2, 8, 1, 165, 90, 163, 89, 90, 165, 1, 1.87218
394, 3, wb, attraction, a-b-da, 2, 2, 8, 1, 165, 90, 163, 89, 90, 165, 3, 1.1316
394, 3, wb, catch, NA, 999, 999, 8, 2, 61, 134, 167, 148, 98, 157, 1, 0.747823
394, 3, wb, catch, NA, 999, 999, 8, 2, 61, 134, 167, 148, 98, 157, 2, 0.380943
394, 3, wb, attraction, a-b-db, 5, 1, 8, 3, 135, 60, 58, 132, 60, 135, 3, 1.40342
394, 3, wb, attraction, a-b-db, 5, 1, 8, 3, 135, 60, 58, 132, 60, 135, 1, 1.25828
394, 3, wb, attraction, a-b-da, 2, 1, 8, 4, 135, 60, 134, 59, 60, 135, 2, 1.38921
394, 3, wb, attraction, a-b-da, 2, 1, 8, 4, 135, 60, 134, 59, 60, 135, 3, 0.324109
394, 3, wb, attraction, a-b-db, 14, 2, 8, 5, 90, 165, 83, 153, 165, 90, 2, 0.804516
394, 3, wb, attraction, a-b-db, 14, 2, 8, 5, 90, 165, 83, 153, 165, 90, 3, 0.395586
394, 3, wb, attraction, a-b-db, 5, 3, 8, 6, 195, 120, 117, 190, 120, 195, 1, 1.89751
394, 3, wb, attraction, a-b-db, 5, 3, 8, 6, 195, 120, 117, 190, 120, 195, 3, 0.492185
394, 3, wb, attraction, a-b-da, 9, 3, 8, 7, 120, 195, 195, 120, 186, 114, 3, 1.40592
394, 3, wb, attraction, a-b-da, 9, 3, 8, 7, 120, 195, 195, 120, 186, 114, 1, 0.540196
394, 3, wb, attraction, a-b-da, 5, 1, 8, 8, 60, 135, 132, 58, 135, 60, 1, 1.65188
394, 3, wb, attraction, a-b-da, 5, 1, 8, 8, 60, 135, 132, 58, 135, 60, 3, 0.696787
394, 3, wb, filler, NA, 999, 999, 8, 9, 65, 86, 183, 80, 56, 81, 3, 1.30652
394, 3, wb, filler, NA, 999, 999, 8, 9, 65, 86, 183, 80, 56, 81, 2, 0.556666
394, 3, wb, attraction, a-b-db, 2, 1, 8, 10, 60, 135, 135, 60, 59, 134, 1, 1.39569
394, 3, wb, attraction, a-b-db, 2, 1, 8, 10, 60, 135, 135, 60, 59, 134, 2, 0.610697
394, 3, wb, attraction, a-b-db, 14, 3, 8, 11, 120, 195, 111, 181, 195, 120, 2, 1.28771
394, 3, wb, attraction, a-b-db, 14, 3, 8, 11, 120, 195, 111, 181, 195, 120, 3, 0.507376
394, 3, wb, attraction, a-b-da, 9, 1, 8, 12, 129, 57, 60, 135, 135, 60, 1, 1.33235
394, 3, wb, attraction, a-b-da, 9, 1, 8, 12, 129, 57, 60, 135, 135, 60, 2, 0.478122
394, 3, wb, filler, NA, 999, 999, 8, 13, 114, 138, 169, 192, 129, 180, 1, 0.72842
394, 3, wb, filler, NA, 999, 999, 8, 13, 114, 138, 169, 192, 129, 180, 2, 0.76215
394, 3, wb, attraction, a-b-db, 5, 2, 8, 14, 90, 165, 88, 161, 165, 90, 2, 1.28912
394, 3, wb, attraction, a-b-db, 5, 2, 8, 14, 90, 165, 88, 161, 165, 90, 3, 0.884051
394, 3, wb, attraction, a-b-db, 14, 1, 8, 15, 60, 135, 56, 125, 135, 60, 2, 0.64636
394, 3, wb, attraction, a-b-db, 14, 1, 8, 15, 60, 135, 56, 125, 135, 60, 1, 0.739602
394, 3, wb, attraction, a-b-db, 9, 2, 8, 16, 165, 90, 86, 157, 90, 165, 1, 1.26787
394, 3, wb, attraction, a-b-db, 9, 2, 8, 16, 165, 90, 86, 157, 90, 165, 3, 0.608188
394, 3, wb, attraction, a-b-da, 14, 1, 8, 17, 125, 56, 60, 135, 135, 60, 1, 0.965243
394, 3, wb, attraction, a-b-da, 14, 1, 8, 17, 125, 56, 60, 135, 135, 60, 3, 0.54957
394, 3, wb, attraction, a-b-da, 2, 3, 8, 18, 193, 119, 195, 120, 120, 195, 2, 1.62143
394, 3, wb, attraction, a-b-da, 2, 3, 8, 18, 193, 119, 195, 120, 120, 195, 1, 0.347414
394, 3, wb, catch, NA, 999, 999, 8, 19, 120, 195, 113, 142, 112, 83, 3, 0.659245
394, 3, wb, catch, NA, 999, 999, 8, 19, 120, 195, 113, 142, 112, 83, 1, 0.3757
394, 3, wb, filler, NA, 999, 999, 8, 20, 65, 103, 137, 146, 70, 147, 1, 0.878224
394, 3, wb, filler, NA, 999, 999, 8, 20, 65, 103, 137, 146, 70, 147, 2, 0.289945
394, 3, wb, attraction, a-b-db, 2, 3, 8, 21, 119, 193, 195, 120, 120, 195, 1, 2.41179
394, 3, wb, attraction, a-b-db, 2, 3, 8, 21, 119, 193, 195, 120, 120, 195, 3, 0.441665
394, 3, wb, filler, NA, 999, 999, 8, 22, 58, 189, 137, 85, 63, 142, 3, 1.47743
394, 3, wb, filler, NA, 999, 999, 8, 22, 58, 189, 137, 85, 63, 142, 1, 3.31306
394, 3, wb, attraction, a-b-db, 9, 1, 8, 23, 57, 129, 135, 60, 60, 135, 1, 1.60932
394, 3, wb, attraction, a-b-db, 9, 1, 8, 23, 57, 129, 135, 60, 60, 135, 3, 1.35952
394, 3, wb, filler, NA, 999, 999, 8, 24, 195, 59, 121, 99, 121, 109, 1, 1.40633
394, 3, wb, filler, NA, 999, 999, 8, 24, 195, 59, 121, 99, 121, 109, 3, 0.340404
394, 3, wb, attraction, a-b-db, 9, 3, 8, 25, 120, 195, 114, 186, 195, 120, 3, 5.10019
394, 3, wb, attraction, a-b-db, 9, 3, 8, 25, 120, 195, 114, 186, 195, 120, 1, 0.477944
394, 3, wb, filler, NA, 999, 999, 8, 26, 171, 182, 131, 190, 71, 65, 3, 0.872326
394, 3, wb, filler, NA, 999, 999, 8, 26, 171, 182, 131, 190, 71, 65, 1, 0.580169
394, 3, wb, attraction, a-b-db, 2, 2, 8, 27, 90, 165, 89, 163, 165, 90, 1, 1.00255
394, 3, wb, attraction, a-b-db, 2, 2, 8, 27, 90, 165, 89, 163, 165, 90, 3, 0.673502
394, 3, wb, attraction, a-b-da, 14, 3, 8, 28, 195, 120, 120, 195, 181, 111, 1, 0.579881
394, 3, wb, attraction, a-b-da, 14, 3, 8, 28, 195, 120, 120, 195, 181, 111, 2, 0.347761
394, 3, wb, attraction, a-b-da, 5, 2, 8, 29, 161, 88, 90, 165, 165, 90, 1, 0.795592
394, 3, wb, attraction, a-b-da, 5, 2, 8, 29, 161, 88, 90, 165, 165, 90, 2, 0.330559
394, 3, wb, filler, NA, 999, 999, 8, 30, 57, 151, 60, 56, 91, 138, 2, 0.691079
394, 3, wb, filler, NA, 999, 999, 8, 30, 57, 151, 60, 56, 91, 138, 3, 0.318158
394, 3, wb, filler, NA, 999, 999, 8, 31, 185, 93, 59, 109, 128, 107, 2, 0.471469
394, 3, wb, filler, NA, 999, 999, 8, 31, 185, 93, 59, 109, 128, 107, 3, 0.291323
394, 3, wb, attraction, a-b-da, 14, 2, 8, 32, 90, 165, 165, 90, 153, 83, 3, 1.4051
394, 3, wb, attraction, a-b-da, 14, 2, 8, 32, 90, 165, 165, 90, 153, 83, 1, 0.459177
394, 3, wb, catch, NA, 999, 999, 8, 33, 131, 124, 67, 128, 188, 127, 2, 1.39836
394, 3, wb, catch, NA, 999, 999, 8, 33, 131, 124, 67, 128, 188, 127, 3, 0.325201
394, 3, wb, attraction, a-b-da, 9, 2, 8, 34, 90, 165, 157, 86, 165, 90, 2, 0.733656
394, 3, wb, attraction, a-b-da, 9, 2, 8, 34, 90, 165, 157, 86, 165, 90, 3, 0.287554
394, 3, wb, filler, NA, 999, 999, 8, 35, 138, 147, 174, 79, 195, 123, 2, 1.98608
394, 3, wb, filler, NA, 999, 999, 8, 35, 138, 147, 174, 79, 195, 123, 3, 0.537393
394, 3, wb, attraction, a-b-da, 5, 3, 8, 36, 195, 120, 190, 117, 120, 195, 1, 1.60973
394, 3, wb, attraction, a-b-da, 5, 3, 8, 36, 195, 120, 190, 117, 120, 195, 3, 0.295925
394, 3, wb, filler, NA, 999, 999, 8, 37, 66, 80, 182, 84, 118, 125, 1, 0.673873
394, 3, wb, filler, NA, 999, 999, 8, 37, 66, 80, 182, 84, 118, 125, 3, 0.301501
