sub_n, computer_n, bw_cond, effect, set, distance, diag, block_n, trial_n, h1, w1, h2, w2, h3, w3, choice, rt 
365, 3, bw, practice, NA, 999, 999, 0, 1, 108, 115, 64, 113, 60, 77, 1, 2.13333
365, 3, bw, practice, NA, 999, 999, 0, 1, 108, 115, 64, 113, 60, 77, 3, 2.44631
365, 3, bw, practice, NA, 999, 999, 0, 2, 194, 184, 119, 161, 85, 132, 1, 2.05729
365, 3, bw, practice, NA, 999, 999, 0, 2, 194, 184, 119, 161, 85, 132, 3, 1.70051
365, 3, bw, practice, NA, 999, 999, 0, 3, 109, 178, 99, 143, 190, 122, 3, 2.98811
365, 3, bw, practice, NA, 999, 999, 0, 3, 109, 178, 99, 143, 190, 122, 2, 1.64933
365, 3, bw, attraction, a-b-da, 9, 2, 1, 1, 90, 165, 157, 86, 165, 90, 1, 1.98988
365, 3, bw, attraction, a-b-da, 9, 2, 1, 1, 90, 165, 157, 86, 165, 90, 2, 1.93259
365, 3, bw, catch, NA, 999, 999, 1, 2, 132, 183, 76, 119, 131, 124, 1, 1.24445
365, 3, bw, catch, NA, 999, 999, 1, 2, 132, 183, 76, 119, 131, 124, 2, 1.19349
365, 3, bw, attraction, a-b-db, 9, 2, 1, 3, 165, 90, 86, 157, 90, 165, 3, 1.92706
365, 3, bw, attraction, a-b-db, 9, 2, 1, 3, 165, 90, 86, 157, 90, 165, 1, 1.16835
365, 3, bw, attraction, a-b-db, 14, 1, 1, 4, 135, 60, 60, 135, 56, 125, 2, 3.08733
365, 3, bw, attraction, a-b-db, 14, 1, 1, 4, 135, 60, 60, 135, 56, 125, 3, 1.05826
365, 3, bw, attraction, a-b-da, 5, 2, 1, 5, 161, 88, 90, 165, 165, 90, 2, 3.24539
365, 3, bw, attraction, a-b-da, 5, 2, 1, 5, 161, 88, 90, 165, 165, 90, 1, 0.849535
365, 3, bw, attraction, a-b-db, 2, 1, 1, 6, 59, 134, 135, 60, 60, 135, 3, 1.21332
365, 3, bw, attraction, a-b-db, 2, 1, 1, 6, 59, 134, 135, 60, 60, 135, 2, 0.747467
365, 3, bw, attraction, a-b-da, 14, 3, 1, 7, 120, 195, 181, 111, 195, 120, 1, 1.6992
365, 3, bw, attraction, a-b-da, 14, 3, 1, 7, 120, 195, 181, 111, 195, 120, 2, 0.694086
365, 3, bw, filler, NA, 999, 999, 1, 8, 194, 138, 146, 76, 113, 86, 1, 1.82368
365, 3, bw, filler, NA, 999, 999, 1, 8, 194, 138, 146, 76, 113, 86, 3, 0.837097
365, 3, bw, attraction, a-b-da, 14, 2, 1, 9, 165, 90, 153, 83, 90, 165, 3, 3.40942
365, 3, bw, attraction, a-b-da, 14, 2, 1, 9, 165, 90, 153, 83, 90, 165, 2, 0.831004
365, 3, bw, filler, NA, 999, 999, 1, 10, 79, 146, 80, 181, 59, 90, 2, 2.22731
365, 3, bw, filler, NA, 999, 999, 1, 10, 79, 146, 80, 181, 59, 90, 3, 1.64062
365, 3, bw, filler, NA, 999, 999, 1, 11, 121, 180, 96, 141, 127, 88, 1, 1.24401
365, 3, bw, filler, NA, 999, 999, 1, 11, 121, 180, 96, 141, 127, 88, 3, 1.19299
365, 3, bw, attraction, a-b-da, 2, 2, 1, 12, 163, 89, 165, 90, 90, 165, 3, 1.47853
365, 3, bw, attraction, a-b-da, 2, 2, 1, 12, 163, 89, 165, 90, 90, 165, 2, 1.61804
365, 3, bw, attraction, a-b-da, 9, 1, 1, 13, 60, 135, 129, 57, 135, 60, 1, 1.45476
365, 3, bw, attraction, a-b-da, 9, 1, 1, 13, 60, 135, 129, 57, 135, 60, 2, 0.8676
365, 3, bw, attraction, a-b-db, 5, 2, 1, 14, 165, 90, 88, 161, 90, 165, 2, 10.4386
365, 3, bw, attraction, a-b-db, 5, 2, 1, 14, 165, 90, 88, 161, 90, 165, 1, 0.809386
365, 3, bw, attraction, a-b-da, 14, 1, 1, 15, 125, 56, 135, 60, 60, 135, 3, 1.90247
365, 3, bw, attraction, a-b-da, 14, 1, 1, 15, 125, 56, 135, 60, 60, 135, 1, 0.609103
365, 3, bw, attraction, a-b-da, 5, 3, 1, 16, 195, 120, 120, 195, 190, 117, 2, 3.05422
365, 3, bw, attraction, a-b-da, 5, 3, 1, 16, 195, 120, 120, 195, 190, 117, 3, 0.706553
365, 3, bw, attraction, a-b-db, 5, 3, 1, 17, 195, 120, 117, 190, 120, 195, 2, 3.2045
365, 3, bw, attraction, a-b-db, 5, 3, 1, 17, 195, 120, 117, 190, 120, 195, 3, 0.570551
365, 3, bw, attraction, a-b-db, 14, 3, 1, 18, 120, 195, 195, 120, 111, 181, 1, 1.5537
365, 3, bw, attraction, a-b-db, 14, 3, 1, 18, 120, 195, 195, 120, 111, 181, 3, 0.586585
365, 3, bw, catch, NA, 999, 999, 1, 19, 171, 144, 127, 68, 163, 92, 1, 0.976839
365, 3, bw, catch, NA, 999, 999, 1, 19, 171, 144, 127, 68, 163, 92, 2, 0.552582
365, 3, bw, filler, NA, 999, 999, 1, 20, 102, 173, 178, 72, 137, 62, 1, 1.44833
365, 3, bw, filler, NA, 999, 999, 1, 20, 102, 173, 178, 72, 137, 62, 3, 0.533242
365, 3, bw, attraction, a-b-db, 9, 1, 1, 21, 135, 60, 60, 135, 57, 129, 1, 4.26972
365, 3, bw, attraction, a-b-db, 9, 1, 1, 21, 135, 60, 60, 135, 57, 129, 3, 2.62499
365, 3, bw, filler, NA, 999, 999, 1, 22, 142, 101, 127, 179, 97, 121, 2, 1.04486
365, 3, bw, filler, NA, 999, 999, 1, 22, 142, 101, 127, 179, 97, 121, 3, 0.505695
365, 3, bw, attraction, a-b-db, 9, 3, 1, 23, 195, 120, 120, 195, 114, 186, 2, 2.47559
365, 3, bw, attraction, a-b-db, 9, 3, 1, 23, 195, 120, 120, 195, 114, 186, 3, 0.598727
365, 3, bw, catch, NA, 999, 999, 1, 24, 129, 186, 134, 121, 88, 107, 1, 1.06845
365, 3, bw, catch, NA, 999, 999, 1, 24, 129, 186, 134, 121, 88, 107, 3, 0.552818
365, 3, bw, filler, NA, 999, 999, 1, 25, 181, 137, 169, 160, 160, 143, 2, 1.84857
365, 3, bw, filler, NA, 999, 999, 1, 25, 181, 137, 169, 160, 160, 143, 3, 0.437269
365, 3, bw, filler, NA, 999, 999, 1, 26, 173, 73, 58, 97, 63, 178, 1, 1.08183
365, 3, bw, filler, NA, 999, 999, 1, 26, 173, 73, 58, 97, 63, 178, 2, 0.573451
365, 3, bw, filler, NA, 999, 999, 1, 27, 138, 142, 124, 118, 107, 191, 1, 1.48381
365, 3, bw, filler, NA, 999, 999, 1, 27, 138, 142, 124, 118, 107, 191, 2, 1.8793
365, 3, bw, attraction, a-b-da, 5, 1, 1, 28, 135, 60, 132, 58, 60, 135, 1, 2.52138
365, 3, bw, attraction, a-b-da, 5, 1, 1, 28, 135, 60, 132, 58, 60, 135, 2, 0.811251
365, 3, bw, filler, NA, 999, 999, 1, 29, 135, 181, 111, 158, 84, 95, 1, 0.944219
365, 3, bw, filler, NA, 999, 999, 1, 29, 135, 181, 111, 158, 84, 95, 3, 0.641289
365, 3, bw, attraction, a-b-db, 2, 3, 1, 30, 119, 193, 195, 120, 120, 195, 3, 1.08511
365, 3, bw, attraction, a-b-db, 2, 3, 1, 30, 119, 193, 195, 120, 120, 195, 1, 0.52862
365, 3, bw, attraction, a-b-db, 5, 1, 1, 31, 58, 132, 135, 60, 60, 135, 3, 2.01721
365, 3, bw, attraction, a-b-db, 5, 1, 1, 31, 58, 132, 135, 60, 60, 135, 1, 0.863129
365, 3, bw, attraction, a-b-db, 2, 2, 1, 32, 90, 165, 89, 163, 165, 90, 2, 2.53805
365, 3, bw, attraction, a-b-db, 2, 2, 1, 32, 90, 165, 89, 163, 165, 90, 3, 0.811434
365, 3, bw, attraction, a-b-da, 2, 1, 1, 33, 134, 59, 60, 135, 135, 60, 2, 2.17622
365, 3, bw, attraction, a-b-da, 2, 1, 1, 33, 134, 59, 60, 135, 135, 60, 1, 0.743561
365, 3, bw, filler, NA, 999, 999, 1, 34, 101, 124, 177, 115, 92, 62, 2, 1.31928
365, 3, bw, filler, NA, 999, 999, 1, 34, 101, 124, 177, 115, 92, 62, 3, 0.921553
365, 3, bw, attraction, a-b-da, 2, 3, 1, 35, 193, 119, 120, 195, 195, 120, 2, 1.93848
365, 3, bw, attraction, a-b-da, 2, 3, 1, 35, 193, 119, 120, 195, 195, 120, 1, 1.2752
365, 3, bw, attraction, a-b-da, 9, 3, 1, 36, 195, 120, 120, 195, 186, 114, 2, 1.94936
365, 3, bw, attraction, a-b-da, 9, 3, 1, 36, 195, 120, 120, 195, 186, 114, 3, 0.990094
365, 3, bw, attraction, a-b-db, 14, 2, 1, 37, 83, 153, 165, 90, 90, 165, 3, 1.36445
365, 3, bw, attraction, a-b-db, 14, 2, 1, 37, 83, 153, 165, 90, 90, 165, 1, 0.66073
365, 3, bw, attraction, a-b-da, 5, 1, 2, 1, 132, 58, 60, 135, 135, 60, 2, 1.03169
365, 3, bw, attraction, a-b-da, 5, 1, 2, 1, 132, 58, 60, 135, 135, 60, 1, 0.693358
365, 3, bw, catch, NA, 999, 999, 2, 2, 165, 150, 107, 88, 124, 131, 1, 0.807045
365, 3, bw, catch, NA, 999, 999, 2, 2, 165, 150, 107, 88, 124, 131, 2, 1.10941
365, 3, bw, attraction, a-b-db, 9, 2, 2, 3, 86, 157, 90, 165, 165, 90, 2, 4.70239
365, 3, bw, attraction, a-b-db, 9, 2, 2, 3, 86, 157, 90, 165, 165, 90, 3, 1.44022
365, 3, bw, catch, NA, 999, 999, 2, 4, 107, 148, 192, 123, 124, 71, 2, 0.915654
365, 3, bw, catch, NA, 999, 999, 2, 4, 107, 148, 192, 123, 124, 71, 3, 0.589994
365, 3, bw, attraction, a-b-db, 2, 3, 2, 5, 120, 195, 119, 193, 195, 120, 2, 2.26775
365, 3, bw, attraction, a-b-db, 2, 3, 2, 5, 120, 195, 119, 193, 195, 120, 3, 0.599911
365, 3, bw, filler, NA, 999, 999, 2, 6, 182, 195, 88, 195, 94, 105, 1, 0.925478
365, 3, bw, filler, NA, 999, 999, 2, 6, 182, 195, 88, 195, 94, 105, 3, 0.599257
365, 3, bw, attraction, a-b-da, 2, 2, 2, 7, 163, 89, 165, 90, 90, 165, 3, 3.25295
365, 3, bw, attraction, a-b-da, 2, 2, 2, 7, 163, 89, 165, 90, 90, 165, 1, 0.649202
365, 3, bw, attraction, a-b-db, 9, 3, 2, 8, 120, 195, 195, 120, 114, 186, 2, 3.49293
365, 3, bw, attraction, a-b-db, 9, 3, 2, 8, 120, 195, 195, 120, 114, 186, 3, 0.639119
365, 3, bw, filler, NA, 999, 999, 2, 9, 105, 103, 162, 121, 164, 158, 3, 0.755662
365, 3, bw, filler, NA, 999, 999, 2, 9, 105, 103, 162, 121, 164, 158, 1, 0.499933
365, 3, bw, filler, NA, 999, 999, 2, 10, 180, 87, 89, 100, 147, 115, 3, 1.38972
365, 3, bw, filler, NA, 999, 999, 2, 10, 180, 87, 89, 100, 147, 115, 2, 0.548622
365, 3, bw, attraction, a-b-da, 9, 3, 2, 11, 195, 120, 120, 195, 186, 114, 2, 1.75652
365, 3, bw, attraction, a-b-da, 9, 3, 2, 11, 195, 120, 120, 195, 186, 114, 3, 0.540457
365, 3, bw, filler, NA, 999, 999, 2, 12, 158, 83, 62, 79, 67, 175, 1, 0.876297
365, 3, bw, filler, NA, 999, 999, 2, 12, 158, 83, 62, 79, 67, 175, 2, 0.56799
365, 3, bw, attraction, a-b-db, 5, 3, 2, 13, 195, 120, 120, 195, 117, 190, 2, 29.215
365, 3, bw, attraction, a-b-db, 5, 3, 2, 13, 195, 120, 120, 195, 117, 190, 3, 0.428682
365, 3, bw, attraction, a-b-db, 2, 1, 2, 14, 59, 134, 60, 135, 135, 60, 2, 3.18499
365, 3, bw, attraction, a-b-db, 2, 1, 2, 14, 59, 134, 60, 135, 135, 60, 3, 0.856035
365, 3, bw, attraction, a-b-da, 14, 1, 2, 15, 60, 135, 125, 56, 135, 60, 1, 2.25169
365, 3, bw, attraction, a-b-da, 14, 1, 2, 15, 60, 135, 125, 56, 135, 60, 2, 0.49633
365, 3, bw, attraction, a-b-da, 9, 2, 2, 16, 90, 165, 157, 86, 165, 90, 1, 7.04202
365, 3, bw, attraction, a-b-da, 9, 2, 2, 16, 90, 165, 157, 86, 165, 90, 2, 0.525296
365, 3, bw, attraction, a-b-db, 2, 2, 2, 17, 165, 90, 89, 163, 90, 165, 2, 5.2056
365, 3, bw, attraction, a-b-db, 2, 2, 2, 17, 165, 90, 89, 163, 90, 165, 3, 0.507339
365, 3, bw, attraction, a-b-da, 14, 2, 2, 18, 153, 83, 90, 165, 165, 90, 2, 1.07641
365, 3, bw, attraction, a-b-da, 14, 2, 2, 18, 153, 83, 90, 165, 165, 90, 1, 0.712035
365, 3, bw, filler, NA, 999, 999, 2, 19, 95, 115, 98, 76, 193, 148, 3, 1.56918
365, 3, bw, filler, NA, 999, 999, 2, 19, 95, 115, 98, 76, 193, 148, 2, 0.553203
365, 3, bw, filler, NA, 999, 999, 2, 20, 137, 158, 182, 131, 142, 56, 1, 2.11314
365, 3, bw, filler, NA, 999, 999, 2, 20, 137, 158, 182, 131, 142, 56, 3, 0.827075
365, 3, bw, attraction, a-b-da, 5, 3, 2, 21, 120, 195, 195, 120, 190, 117, 1, 1.78334
365, 3, bw, attraction, a-b-da, 5, 3, 2, 21, 120, 195, 195, 120, 190, 117, 2, 0.806821
365, 3, bw, filler, NA, 999, 999, 2, 22, 122, 195, 112, 116, 105, 145, 1, 0.771743
365, 3, bw, filler, NA, 999, 999, 2, 22, 122, 195, 112, 116, 105, 145, 2, 1.51557
365, 3, bw, attraction, a-b-da, 2, 1, 2, 23, 60, 135, 134, 59, 135, 60, 1, 2.98048
365, 3, bw, attraction, a-b-da, 2, 1, 2, 23, 60, 135, 134, 59, 135, 60, 3, 0.963401
365, 3, bw, attraction, a-b-db, 14, 1, 2, 24, 56, 125, 135, 60, 60, 135, 3, 4.8584
365, 3, bw, attraction, a-b-db, 14, 1, 2, 24, 56, 125, 135, 60, 60, 135, 1, 0.741496
365, 3, bw, attraction, a-b-db, 9, 1, 2, 25, 60, 135, 135, 60, 57, 129, 1, 3.18109
365, 3, bw, attraction, a-b-db, 9, 1, 2, 25, 60, 135, 135, 60, 57, 129, 3, 1.38021
365, 3, bw, filler, NA, 999, 999, 2, 26, 93, 165, 163, 168, 57, 77, 2, 1.17831
365, 3, bw, filler, NA, 999, 999, 2, 26, 93, 165, 163, 168, 57, 77, 3, 0.745966
365, 3, bw, attraction, a-b-db, 14, 3, 2, 27, 195, 120, 111, 181, 120, 195, 3, 2.68966
365, 3, bw, attraction, a-b-db, 14, 3, 2, 27, 195, 120, 111, 181, 120, 195, 2, 0.964092
365, 3, bw, attraction, a-b-da, 14, 3, 2, 28, 181, 111, 120, 195, 195, 120, 2, 3.38724
365, 3, bw, attraction, a-b-da, 14, 3, 2, 28, 181, 111, 120, 195, 195, 120, 3, 0.994072
365, 3, bw, attraction, a-b-da, 9, 1, 2, 29, 129, 57, 135, 60, 60, 135, 3, 2.26365
365, 3, bw, attraction, a-b-da, 9, 1, 2, 29, 129, 57, 135, 60, 60, 135, 2, 0.787583
365, 3, bw, attraction, a-b-da, 5, 2, 2, 30, 165, 90, 90, 165, 161, 88, 2, 3.79392
365, 3, bw, attraction, a-b-da, 5, 2, 2, 30, 165, 90, 90, 165, 161, 88, 3, 1.00002
365, 3, bw, attraction, a-b-db, 5, 2, 2, 31, 88, 161, 165, 90, 90, 165, 3, 3.04572
365, 3, bw, attraction, a-b-db, 5, 2, 2, 31, 88, 161, 165, 90, 90, 165, 2, 0.762014
365, 3, bw, attraction, a-b-db, 14, 2, 2, 32, 90, 165, 165, 90, 83, 153, 1, 7.43322
365, 3, bw, attraction, a-b-db, 14, 2, 2, 32, 90, 165, 165, 90, 83, 153, 3, 0.668681
365, 3, bw, catch, NA, 999, 999, 2, 33, 61, 134, 149, 106, 164, 151, 3, 0.871769
365, 3, bw, catch, NA, 999, 999, 2, 33, 61, 134, 149, 106, 164, 151, 1, 0.635475
365, 3, bw, filler, NA, 999, 999, 2, 34, 183, 160, 149, 126, 97, 110, 1, 1.15987
365, 3, bw, filler, NA, 999, 999, 2, 34, 183, 160, 149, 126, 97, 110, 3, 0.832258
365, 3, bw, attraction, a-b-db, 5, 1, 2, 35, 60, 135, 58, 132, 135, 60, 1, 4.24454
365, 3, bw, attraction, a-b-db, 5, 1, 2, 35, 60, 135, 58, 132, 135, 60, 3, 0.672614
365, 3, bw, filler, NA, 999, 999, 2, 36, 166, 84, 159, 87, 181, 176, 3, 0.947581
365, 3, bw, filler, NA, 999, 999, 2, 36, 166, 84, 159, 87, 181, 176, 1, 0.796636
365, 3, bw, attraction, a-b-da, 2, 3, 2, 37, 193, 119, 195, 120, 120, 195, 3, 5.68226
365, 3, bw, attraction, a-b-da, 2, 3, 2, 37, 193, 119, 195, 120, 120, 195, 2, 1.64456
365, 3, bw, filler, NA, 999, 999, 3, 1, 174, 145, 148, 119, 189, 150, 3, 1.71988
365, 3, bw, filler, NA, 999, 999, 3, 1, 174, 145, 148, 119, 189, 150, 2, 0.626042
365, 3, bw, attraction, a-b-db, 14, 2, 3, 2, 90, 165, 83, 153, 165, 90, 1, 1.80644
365, 3, bw, attraction, a-b-db, 14, 2, 3, 2, 90, 165, 83, 153, 165, 90, 2, 1.64447
365, 3, bw, filler, NA, 999, 999, 3, 3, 103, 74, 65, 138, 120, 166, 3, 1.06409
365, 3, bw, filler, NA, 999, 999, 3, 3, 103, 74, 65, 138, 120, 166, 1, 0.820187
365, 3, bw, attraction, a-b-da, 14, 2, 3, 4, 90, 165, 165, 90, 153, 83, 1, 3.43316
365, 3, bw, attraction, a-b-da, 14, 2, 3, 4, 90, 165, 165, 90, 153, 83, 3, 0.566102
365, 3, bw, filler, NA, 999, 999, 3, 5, 84, 78, 149, 100, 70, 181, 2, 1.04531
365, 3, bw, filler, NA, 999, 999, 3, 5, 84, 78, 149, 100, 70, 181, 1, 0.506195
365, 3, bw, attraction, a-b-da, 9, 1, 3, 6, 135, 60, 129, 57, 60, 135, 3, 1.46808
365, 3, bw, attraction, a-b-da, 9, 1, 3, 6, 135, 60, 129, 57, 60, 135, 2, 0.640294
365, 3, bw, filler, NA, 999, 999, 3, 7, 115, 168, 166, 126, 64, 138, 2, 1.25991
365, 3, bw, filler, NA, 999, 999, 3, 7, 115, 168, 166, 126, 64, 138, 3, 0.488258
365, 3, bw, attraction, a-b-db, 14, 1, 3, 8, 56, 125, 60, 135, 135, 60, 3, 1.30665
365, 3, bw, attraction, a-b-db, 14, 1, 3, 8, 56, 125, 60, 135, 135, 60, 1, 0.532888
365, 3, bw, filler, NA, 999, 999, 3, 9, 148, 101, 171, 140, 170, 91, 2, 0.709304
365, 3, bw, filler, NA, 999, 999, 3, 9, 148, 101, 171, 140, 170, 91, 3, 1.23978
365, 3, bw, catch, NA, 999, 999, 3, 10, 119, 136, 67, 128, 195, 120, 3, 1.19601
365, 3, bw, catch, NA, 999, 999, 3, 10, 119, 136, 67, 128, 195, 120, 2, 1.05887
365, 3, bw, filler, NA, 999, 999, 3, 11, 139, 120, 148, 178, 176, 110, 2, 0.925785
365, 3, bw, filler, NA, 999, 999, 3, 11, 139, 120, 148, 178, 176, 110, 1, 0.991511
365, 3, bw, attraction, a-b-db, 2, 3, 3, 12, 195, 120, 120, 195, 119, 193, 2, 4.83714
365, 3, bw, attraction, a-b-db, 2, 3, 3, 12, 195, 120, 120, 195, 119, 193, 3, 2.16963
365, 3, bw, catch, NA, 999, 999, 3, 13, 190, 125, 70, 125, 160, 95, 1, 2.4482
365, 3, bw, catch, NA, 999, 999, 3, 13, 190, 125, 70, 125, 160, 95, 2, 0.604706
365, 3, bw, attraction, a-b-da, 9, 3, 3, 14, 120, 195, 195, 120, 186, 114, 1, 2.83451
365, 3, bw, attraction, a-b-da, 9, 3, 3, 14, 120, 195, 195, 120, 186, 114, 3, 0.975707
365, 3, bw, filler, NA, 999, 999, 3, 15, 131, 77, 179, 111, 99, 118, 2, 0.949876
365, 3, bw, filler, NA, 999, 999, 3, 15, 131, 77, 179, 111, 99, 118, 3, 2.35102
365, 3, bw, attraction, a-b-db, 2, 1, 3, 16, 135, 60, 60, 135, 59, 134, 2, 2.37404
365, 3, bw, attraction, a-b-db, 2, 1, 3, 16, 135, 60, 60, 135, 59, 134, 1, 0.701266
365, 3, bw, attraction, a-b-da, 14, 1, 3, 17, 60, 135, 125, 56, 135, 60, 1, 2.17501
365, 3, bw, attraction, a-b-da, 14, 1, 3, 17, 60, 135, 125, 56, 135, 60, 2, 0.592091
365, 3, bw, attraction, a-b-da, 9, 2, 3, 18, 90, 165, 165, 90, 157, 86, 1, 5.33216
365, 3, bw, attraction, a-b-da, 9, 2, 3, 18, 90, 165, 165, 90, 157, 86, 2, 0.700463
365, 3, bw, attraction, a-b-da, 2, 2, 3, 19, 90, 165, 165, 90, 163, 89, 3, 4.3022
365, 3, bw, attraction, a-b-da, 2, 2, 3, 19, 90, 165, 165, 90, 163, 89, 2, 0.792193
365, 3, bw, attraction, a-b-db, 9, 1, 3, 20, 60, 135, 57, 129, 135, 60, 1, 4.13373
365, 3, bw, attraction, a-b-db, 9, 1, 3, 20, 60, 135, 57, 129, 135, 60, 2, 0.910537
365, 3, bw, attraction, a-b-da, 5, 3, 3, 21, 195, 120, 120, 195, 190, 117, 2, 1.96738
365, 3, bw, attraction, a-b-da, 5, 3, 3, 21, 195, 120, 120, 195, 190, 117, 3, 0.855466
365, 3, bw, filler, NA, 999, 999, 3, 22, 142, 66, 190, 193, 166, 175, 2, 1.31535
365, 3, bw, filler, NA, 999, 999, 3, 22, 142, 66, 190, 193, 166, 175, 1, 0.749598
365, 3, bw, filler, NA, 999, 999, 3, 23, 61, 153, 162, 114, 60, 67, 2, 0.741061
365, 3, bw, filler, NA, 999, 999, 3, 23, 61, 153, 162, 114, 60, 67, 3, 0.67819
365, 3, bw, attraction, a-b-db, 2, 2, 3, 24, 90, 165, 165, 90, 89, 163, 1, 1.6406
365, 3, bw, attraction, a-b-db, 2, 2, 3, 24, 90, 165, 165, 90, 89, 163, 2, 0.70146
365, 3, bw, attraction, a-b-da, 2, 3, 3, 25, 195, 120, 120, 195, 193, 119, 2, 12.1991
365, 3, bw, attraction, a-b-da, 2, 3, 3, 25, 195, 120, 120, 195, 193, 119, 3, 0.778638
365, 3, bw, attraction, a-b-da, 5, 2, 3, 26, 90, 165, 161, 88, 165, 90, 1, 2.08103
365, 3, bw, attraction, a-b-da, 5, 2, 3, 26, 90, 165, 161, 88, 165, 90, 2, 2.13232
365, 3, bw, attraction, a-b-db, 14, 3, 3, 27, 111, 181, 195, 120, 120, 195, 2, 3.67619
365, 3, bw, attraction, a-b-db, 14, 3, 3, 27, 111, 181, 195, 120, 120, 195, 1, 0.607169
365, 3, bw, attraction, a-b-db, 9, 2, 3, 28, 86, 157, 165, 90, 90, 165, 3, 4.40411
365, 3, bw, attraction, a-b-db, 9, 2, 3, 28, 86, 157, 165, 90, 90, 165, 2, 1.13004
365, 3, bw, attraction, a-b-db, 5, 2, 3, 29, 165, 90, 88, 161, 90, 165, 2, 6.3223
365, 3, bw, attraction, a-b-db, 5, 2, 3, 29, 165, 90, 88, 161, 90, 165, 1, 0.618947
365, 3, bw, attraction, a-b-db, 9, 3, 3, 30, 195, 120, 120, 195, 114, 186, 2, 1.18397
365, 3, bw, attraction, a-b-db, 9, 3, 3, 30, 195, 120, 120, 195, 114, 186, 3, 4.51174
365, 3, bw, attraction, a-b-da, 5, 1, 3, 31, 132, 58, 135, 60, 60, 135, 1, 4.07953
365, 3, bw, attraction, a-b-da, 5, 1, 3, 31, 132, 58, 135, 60, 60, 135, 2, 0.546232
365, 3, bw, attraction, a-b-db, 5, 1, 3, 32, 60, 135, 58, 132, 135, 60, 2, 1.762
365, 3, bw, attraction, a-b-db, 5, 1, 3, 32, 60, 135, 58, 132, 135, 60, 3, 1.13808
365, 3, bw, attraction, a-b-da, 14, 3, 3, 33, 195, 120, 120, 195, 181, 111, 2, 2.97834
365, 3, bw, attraction, a-b-da, 14, 3, 3, 33, 195, 120, 120, 195, 181, 111, 3, 0.729364
365, 3, bw, attraction, a-b-db, 5, 3, 3, 34, 120, 195, 195, 120, 117, 190, 1, 9.86572
365, 3, bw, attraction, a-b-db, 5, 3, 3, 34, 120, 195, 195, 120, 117, 190, 3, 0.45148
365, 3, bw, catch, NA, 999, 999, 3, 35, 70, 125, 95, 160, 146, 169, 3, 0.93513
365, 3, bw, catch, NA, 999, 999, 3, 35, 70, 125, 95, 160, 146, 169, 1, 1.17683
365, 3, bw, filler, NA, 999, 999, 3, 36, 67, 172, 92, 156, 173, 109, 3, 2.24716
365, 3, bw, filler, NA, 999, 999, 3, 36, 67, 172, 92, 156, 173, 109, 1, 0.995636
365, 3, bw, attraction, a-b-da, 2, 1, 3, 37, 135, 60, 134, 59, 60, 135, 1, 1.65727
365, 3, bw, attraction, a-b-da, 2, 1, 3, 37, 135, 60, 134, 59, 60, 135, 2, 0.509564
365, 3, bw, attraction, a-b-da, 9, 3, 4, 1, 186, 114, 120, 195, 195, 120, 2, 2.55854
365, 3, bw, attraction, a-b-da, 9, 3, 4, 1, 186, 114, 120, 195, 195, 120, 1, 0.566325
365, 3, bw, attraction, a-b-da, 5, 2, 4, 2, 90, 165, 161, 88, 165, 90, 1, 1.29341
365, 3, bw, attraction, a-b-da, 5, 2, 4, 2, 90, 165, 161, 88, 165, 90, 2, 0.824316
365, 3, bw, catch, NA, 999, 999, 4, 3, 77, 118, 127, 128, 146, 169, 3, 0.980721
365, 3, bw, catch, NA, 999, 999, 4, 3, 77, 118, 127, 128, 146, 169, 1, 0.468336
365, 3, bw, filler, NA, 999, 999, 4, 4, 186, 87, 185, 57, 61, 128, 1, 1.03148
365, 3, bw, filler, NA, 999, 999, 4, 4, 186, 87, 185, 57, 61, 128, 3, 0.845227
365, 3, bw, attraction, a-b-da, 14, 2, 4, 5, 90, 165, 165, 90, 153, 83, 1, 1.24083
365, 3, bw, attraction, a-b-da, 14, 2, 4, 5, 90, 165, 165, 90, 153, 83, 3, 1.02178
365, 3, bw, attraction, a-b-db, 5, 1, 4, 6, 58, 132, 60, 135, 135, 60, 3, 3.81067
365, 3, bw, attraction, a-b-db, 5, 1, 4, 6, 58, 132, 60, 135, 135, 60, 1, 0.816176
365, 3, bw, catch, NA, 999, 999, 4, 7, 92, 103, 155, 100, 142, 173, 3, 0.781184
365, 3, bw, catch, NA, 999, 999, 4, 7, 92, 103, 155, 100, 142, 173, 1, 0.500902
365, 3, bw, filler, NA, 999, 999, 4, 8, 83, 144, 124, 82, 86, 145, 1, 1.5107
365, 3, bw, filler, NA, 999, 999, 4, 8, 83, 144, 124, 82, 86, 145, 3, 0.704914
365, 3, bw, filler, NA, 999, 999, 4, 9, 103, 142, 64, 187, 66, 139, 1, 1.3706
365, 3, bw, filler, NA, 999, 999, 4, 9, 103, 142, 64, 187, 66, 139, 3, 1.5388
365, 3, bw, attraction, a-b-da, 9, 1, 4, 10, 129, 57, 60, 135, 135, 60, 2, 1.8669
365, 3, bw, attraction, a-b-da, 9, 1, 4, 10, 129, 57, 60, 135, 135, 60, 1, 0.86297
365, 3, bw, attraction, a-b-da, 5, 3, 4, 11, 120, 195, 195, 120, 190, 117, 1, 5.54601
365, 3, bw, attraction, a-b-da, 5, 3, 4, 11, 120, 195, 195, 120, 190, 117, 2, 1.01762
365, 3, bw, attraction, a-b-da, 2, 1, 4, 12, 135, 60, 134, 59, 60, 135, 1, 2.19849
365, 3, bw, attraction, a-b-da, 2, 1, 4, 12, 135, 60, 134, 59, 60, 135, 3, 0.685165
365, 3, bw, attraction, a-b-db, 2, 1, 4, 13, 59, 134, 135, 60, 60, 135, 1, 1.0955
365, 3, bw, attraction, a-b-db, 2, 1, 4, 13, 59, 134, 135, 60, 60, 135, 2, 1.0585
365, 3, bw, attraction, a-b-db, 9, 2, 4, 14, 165, 90, 90, 165, 86, 157, 2, 2.02951
365, 3, bw, attraction, a-b-db, 9, 2, 4, 14, 165, 90, 90, 165, 86, 157, 1, 1.38674
365, 3, bw, filler, NA, 999, 999, 4, 15, 144, 119, 56, 178, 105, 130, 1, 2.49706
365, 3, bw, filler, NA, 999, 999, 4, 15, 144, 119, 56, 178, 105, 130, 2, 0.89959
365, 3, bw, attraction, a-b-db, 14, 1, 4, 16, 60, 135, 56, 125, 135, 60, 2, 4.91729
365, 3, bw, attraction, a-b-db, 14, 1, 4, 16, 60, 135, 56, 125, 135, 60, 3, 0.814359
365, 3, bw, filler, NA, 999, 999, 4, 17, 186, 90, 154, 151, 132, 58, 2, 1.68327
365, 3, bw, filler, NA, 999, 999, 4, 17, 186, 90, 154, 151, 132, 58, 3, 1.25473
365, 3, bw, attraction, a-b-da, 2, 2, 4, 18, 90, 165, 163, 89, 165, 90, 1, 1.73824
365, 3, bw, attraction, a-b-da, 2, 2, 4, 18, 90, 165, 163, 89, 165, 90, 2, 0.555718
365, 3, bw, attraction, a-b-da, 5, 1, 4, 19, 60, 135, 135, 60, 132, 58, 1, 1.0835
365, 3, bw, attraction, a-b-da, 5, 1, 4, 19, 60, 135, 135, 60, 132, 58, 2, 0.871166
365, 3, bw, catch, NA, 999, 999, 4, 20, 114, 141, 184, 131, 123, 72, 2, 2.74616
365, 3, bw, catch, NA, 999, 999, 4, 20, 114, 141, 184, 131, 123, 72, 1, 0.530618
365, 3, bw, attraction, a-b-da, 14, 3, 4, 21, 120, 195, 181, 111, 195, 120, 1, 1.70705
365, 3, bw, attraction, a-b-da, 14, 3, 4, 21, 120, 195, 181, 111, 195, 120, 2, 0.74915
365, 3, bw, attraction, a-b-db, 14, 3, 4, 22, 120, 195, 111, 181, 195, 120, 3, 6.10879
365, 3, bw, attraction, a-b-db, 14, 3, 4, 22, 120, 195, 111, 181, 195, 120, 2, 3.66952
365, 3, bw, attraction, a-b-da, 14, 1, 4, 23, 135, 60, 125, 56, 60, 135, 1, 23.2157
365, 3, bw, attraction, a-b-da, 14, 1, 4, 23, 135, 60, 125, 56, 60, 135, 2, 0.671153
365, 3, bw, attraction, a-b-da, 9, 2, 4, 24, 165, 90, 157, 86, 90, 165, 1, 1.17012
365, 3, bw, attraction, a-b-da, 9, 2, 4, 24, 165, 90, 157, 86, 90, 165, 2, 0.738398
365, 3, bw, filler, NA, 999, 999, 4, 25, 153, 195, 98, 81, 169, 84, 1, 0.690705
365, 3, bw, filler, NA, 999, 999, 4, 25, 153, 195, 98, 81, 169, 84, 2, 0.533839
365, 3, bw, attraction, a-b-db, 2, 3, 4, 26, 119, 193, 120, 195, 195, 120, 2, 1.06227
365, 3, bw, attraction, a-b-db, 2, 3, 4, 26, 119, 193, 120, 195, 195, 120, 1, 0.882626
365, 3, bw, filler, NA, 999, 999, 4, 27, 111, 115, 184, 160, 125, 118, 2, 2.14096
365, 3, bw, filler, NA, 999, 999, 4, 27, 111, 115, 184, 160, 125, 118, 1, 0.973643
365, 3, bw, filler, NA, 999, 999, 4, 28, 152, 149, 170, 69, 143, 113, 1, 4.5159
365, 3, bw, filler, NA, 999, 999, 4, 28, 152, 149, 170, 69, 143, 113, 2, 2.03716
365, 3, bw, filler, NA, 999, 999, 4, 29, 130, 144, 164, 152, 116, 124, 2, 14.2813
365, 3, bw, filler, NA, 999, 999, 4, 29, 130, 144, 164, 152, 116, 124, 3, 0.440559
365, 3, bw, filler, NA, 999, 999, 4, 30, 79, 142, 117, 166, 106, 126, 2, 0.820368
365, 3, bw, filler, NA, 999, 999, 4, 30, 79, 142, 117, 166, 106, 126, 3, 0.450752
365, 3, bw, attraction, a-b-db, 14, 2, 4, 31, 83, 153, 90, 165, 165, 90, 1, 2.38273
365, 3, bw, attraction, a-b-db, 14, 2, 4, 31, 83, 153, 90, 165, 165, 90, 2, 9.3579
365, 3, bw, attraction, a-b-da, 2, 3, 4, 32, 120, 195, 195, 120, 193, 119, 1, 4.53878
365, 3, bw, attraction, a-b-da, 2, 3, 4, 32, 120, 195, 195, 120, 193, 119, 3, 0.963341
365, 3, bw, attraction, a-b-db, 5, 2, 4, 33, 88, 161, 165, 90, 90, 165, 1, 1.86638
365, 3, bw, attraction, a-b-db, 5, 2, 4, 33, 88, 161, 165, 90, 90, 165, 2, 1.1185
365, 3, bw, attraction, a-b-db, 9, 1, 4, 34, 135, 60, 57, 129, 60, 135, 2, 13.1834
365, 3, bw, attraction, a-b-db, 9, 1, 4, 34, 135, 60, 57, 129, 60, 135, 3, 0.755239
365, 3, bw, attraction, a-b-db, 5, 3, 4, 35, 120, 195, 117, 190, 195, 120, 1, 11.115
365, 3, bw, attraction, a-b-db, 5, 3, 4, 35, 120, 195, 117, 190, 195, 120, 2, 5.28212
365, 3, bw, attraction, a-b-db, 2, 2, 4, 36, 90, 165, 165, 90, 89, 163, 1, 0.978998
365, 3, bw, attraction, a-b-db, 2, 2, 4, 36, 90, 165, 165, 90, 89, 163, 2, 1.0188
365, 3, bw, attraction, a-b-db, 9, 3, 4, 37, 114, 186, 195, 120, 120, 195, 3, 9.42379
365, 3, bw, attraction, a-b-db, 9, 3, 4, 37, 114, 186, 195, 120, 120, 195, 2, 0.522707
365, 3, bw, attraction, a-b-da, 5, 3, 5, 1, 195, 120, 190, 117, 120, 195, 3, 5.90583
365, 3, bw, attraction, a-b-da, 5, 3, 5, 1, 195, 120, 190, 117, 120, 195, 2, 0.579284
365, 3, bw, attraction, a-b-db, 9, 2, 5, 2, 86, 157, 165, 90, 90, 165, 1, 1.47362
365, 3, bw, attraction, a-b-db, 9, 2, 5, 2, 86, 157, 165, 90, 90, 165, 2, 0.709134
365, 3, bw, attraction, a-b-db, 14, 1, 5, 3, 56, 125, 60, 135, 135, 60, 2, 1.43019
365, 3, bw, attraction, a-b-db, 14, 1, 5, 3, 56, 125, 60, 135, 135, 60, 1, 1.0837
365, 3, bw, attraction, a-b-db, 5, 3, 5, 4, 117, 190, 120, 195, 195, 120, 2, 1.10201
365, 3, bw, attraction, a-b-db, 5, 3, 5, 4, 117, 190, 120, 195, 195, 120, 3, 0.600955
365, 3, bw, attraction, a-b-db, 2, 2, 5, 5, 89, 163, 165, 90, 90, 165, 1, 1.08679
365, 3, bw, attraction, a-b-db, 2, 2, 5, 5, 89, 163, 165, 90, 90, 165, 2, 1.07446
365, 3, bw, attraction, a-b-da, 2, 3, 5, 6, 195, 120, 120, 195, 193, 119, 2, 4.60469
365, 3, bw, attraction, a-b-da, 2, 3, 5, 6, 195, 120, 120, 195, 193, 119, 3, 0.746504
365, 3, bw, attraction, a-b-da, 9, 3, 5, 7, 120, 195, 195, 120, 186, 114, 1, 16.7942
365, 3, bw, attraction, a-b-da, 9, 3, 5, 7, 120, 195, 195, 120, 186, 114, 3, 1.08427
365, 3, bw, attraction, a-b-db, 5, 1, 5, 8, 135, 60, 58, 132, 60, 135, 2, 8.00646
365, 3, bw, attraction, a-b-db, 5, 1, 5, 8, 135, 60, 58, 132, 60, 135, 3, 0.627355
365, 3, bw, attraction, a-b-da, 5, 1, 5, 9, 132, 58, 135, 60, 60, 135, 3, 1.59179
365, 3, bw, attraction, a-b-da, 5, 1, 5, 9, 132, 58, 135, 60, 60, 135, 2, 0.638678
365, 3, bw, filler, NA, 999, 999, 5, 10, 93, 194, 172, 60, 68, 172, 1, 15.787
365, 3, bw, filler, NA, 999, 999, 5, 10, 93, 194, 172, 60, 68, 172, 2, 0.702005
365, 3, bw, attraction, a-b-da, 2, 1, 5, 11, 134, 59, 135, 60, 60, 135, 1, 0.775683
365, 3, bw, attraction, a-b-da, 2, 1, 5, 11, 134, 59, 135, 60, 60, 135, 2, 0.775446
365, 3, bw, filler, NA, 999, 999, 5, 12, 136, 109, 167, 116, 154, 102, 2, 2.2379
365, 3, bw, filler, NA, 999, 999, 5, 12, 136, 109, 167, 116, 154, 102, 1, 19.3305
365, 3, bw, attraction, a-b-db, 5, 2, 5, 13, 90, 165, 88, 161, 165, 90, 1, 0.973038
365, 3, bw, attraction, a-b-db, 5, 2, 5, 13, 90, 165, 88, 161, 165, 90, 3, 0.772824
365, 3, bw, attraction, a-b-db, 2, 1, 5, 14, 60, 135, 135, 60, 59, 134, 1, 12.2597
365, 3, bw, attraction, a-b-db, 2, 1, 5, 14, 60, 135, 135, 60, 59, 134, 2, 0.804677
365, 3, bw, attraction, a-b-db, 14, 2, 5, 15, 165, 90, 83, 153, 90, 165, 2, 8.09823
365, 3, bw, attraction, a-b-db, 14, 2, 5, 15, 165, 90, 83, 153, 90, 165, 1, 1.267
365, 3, bw, attraction, a-b-da, 9, 1, 5, 16, 60, 135, 135, 60, 129, 57, 1, 12.7591
365, 3, bw, attraction, a-b-da, 9, 1, 5, 16, 60, 135, 135, 60, 129, 57, 3, 0.474525
365, 3, bw, attraction, a-b-da, 14, 1, 5, 17, 135, 60, 60, 135, 125, 56, 2, 0.876994
365, 3, bw, attraction, a-b-da, 14, 1, 5, 17, 135, 60, 60, 135, 125, 56, 1, 0.776714
365, 3, bw, catch, NA, 999, 999, 5, 18, 74, 121, 171, 144, 133, 122, 2, 0.687047
365, 3, bw, catch, NA, 999, 999, 5, 18, 74, 121, 171, 144, 133, 122, 1, 0.634824
365, 3, bw, filler, NA, 999, 999, 5, 19, 73, 155, 80, 194, 176, 157, 3, 0.919248
365, 3, bw, filler, NA, 999, 999, 5, 19, 73, 155, 80, 194, 176, 157, 1, 1.65764
365, 3, bw, filler, NA, 999, 999, 5, 20, 149, 178, 62, 175, 164, 144, 1, 22.5963
365, 3, bw, filler, NA, 999, 999, 5, 20, 149, 178, 62, 175, 164, 144, 2, 1.14062
365, 3, bw, attraction, a-b-da, 2, 2, 5, 21, 163, 89, 90, 165, 165, 90, 2, 1.11606
365, 3, bw, attraction, a-b-da, 2, 2, 5, 21, 163, 89, 90, 165, 165, 90, 1, 0.870462
365, 3, bw, catch, NA, 999, 999, 5, 22, 160, 155, 165, 90, 92, 103, 1, 1.36945
365, 3, bw, catch, NA, 999, 999, 5, 22, 160, 155, 165, 90, 92, 103, 3, 0.705664
365, 3, bw, attraction, a-b-db, 9, 3, 5, 23, 114, 186, 195, 120, 120, 195, 2, 1.73138
365, 3, bw, attraction, a-b-db, 9, 3, 5, 23, 114, 186, 195, 120, 120, 195, 1, 0.772777
365, 3, bw, attraction, a-b-da, 14, 3, 5, 24, 181, 111, 120, 195, 195, 120, 2, 0.715775
365, 3, bw, attraction, a-b-da, 14, 3, 5, 24, 181, 111, 120, 195, 195, 120, 1, 0.614266
365, 3, bw, attraction, a-b-da, 9, 2, 5, 25, 157, 86, 165, 90, 90, 165, 2, 1.1393
365, 3, bw, attraction, a-b-da, 9, 2, 5, 25, 157, 86, 165, 90, 90, 165, 1, 0.620302
365, 3, bw, attraction, a-b-da, 5, 2, 5, 26, 165, 90, 161, 88, 90, 165, 3, 1.2573
365, 3, bw, attraction, a-b-da, 5, 2, 5, 26, 165, 90, 161, 88, 90, 165, 1, 1.0696
365, 3, bw, filler, NA, 999, 999, 5, 27, 145, 165, 93, 185, 57, 171, 1, 3.90457
365, 3, bw, filler, NA, 999, 999, 5, 27, 145, 165, 93, 185, 57, 171, 3, 0.850654
365, 3, bw, filler, NA, 999, 999, 5, 28, 181, 97, 61, 100, 170, 95, 1, 1.55833
365, 3, bw, filler, NA, 999, 999, 5, 28, 181, 97, 61, 100, 170, 95, 2, 0.942542
365, 3, bw, catch, NA, 999, 999, 5, 29, 134, 61, 145, 110, 187, 128, 2, 1.31007
365, 3, bw, catch, NA, 999, 999, 5, 29, 134, 61, 145, 110, 187, 128, 3, 14.0085
365, 3, bw, attraction, a-b-da, 14, 2, 5, 30, 90, 165, 153, 83, 165, 90, 1, 1.70602
365, 3, bw, attraction, a-b-da, 14, 2, 5, 30, 90, 165, 153, 83, 165, 90, 2, 0.619984
365, 3, bw, filler, NA, 999, 999, 5, 31, 136, 85, 82, 106, 195, 73, 1, 2.0971
365, 3, bw, filler, NA, 999, 999, 5, 31, 136, 85, 82, 106, 195, 73, 2, 0.539819
365, 3, bw, attraction, a-b-db, 2, 3, 5, 32, 195, 120, 120, 195, 119, 193, 1, 1.37215
365, 3, bw, attraction, a-b-db, 2, 3, 5, 32, 195, 120, 120, 195, 119, 193, 3, 0.547673
365, 3, bw, filler, NA, 999, 999, 5, 33, 129, 87, 152, 75, 98, 76, 1, 1.81146
365, 3, bw, filler, NA, 999, 999, 5, 33, 129, 87, 152, 75, 98, 76, 3, 10.7936
365, 3, bw, filler, NA, 999, 999, 5, 34, 168, 183, 116, 137, 153, 156, 1, 0.756079
365, 3, bw, filler, NA, 999, 999, 5, 34, 168, 183, 116, 137, 153, 156, 2, 0.4287
365, 3, bw, attraction, a-b-db, 14, 3, 5, 35, 111, 181, 120, 195, 195, 120, 2, 0.929069
365, 3, bw, attraction, a-b-db, 14, 3, 5, 35, 111, 181, 120, 195, 195, 120, 1, 0.554775
365, 3, bw, attraction, a-b-db, 9, 1, 5, 36, 60, 135, 135, 60, 57, 129, 1, 1.41053
365, 3, bw, attraction, a-b-db, 9, 1, 5, 36, 60, 135, 135, 60, 57, 129, 3, 0.872729
365, 3, bw, filler, NA, 999, 999, 5, 37, 154, 188, 113, 144, 77, 194, 1, 0.811686
365, 3, bw, filler, NA, 999, 999, 5, 37, 154, 188, 113, 144, 77, 194, 2, 0.762048
365, 3, bw, filler, NA, 999, 999, 6, 1, 110, 140, 116, 109, 61, 91, 1, 1.23309
365, 3, bw, filler, NA, 999, 999, 6, 1, 110, 140, 116, 109, 61, 91, 3, 8.33482
365, 3, bw, attraction, a-b-db, 2, 3, 6, 2, 119, 193, 195, 120, 120, 195, 2, 3.98075
365, 3, bw, attraction, a-b-db, 2, 3, 6, 2, 119, 193, 195, 120, 120, 195, 3, 0.547398
365, 3, bw, attraction, a-b-da, 2, 2, 6, 3, 163, 89, 165, 90, 90, 165, 3, 1.95517
365, 3, bw, attraction, a-b-da, 2, 2, 6, 3, 163, 89, 165, 90, 90, 165, 2, 0.731201
365, 3, bw, attraction, a-b-db, 2, 1, 6, 4, 135, 60, 59, 134, 60, 135, 2, 2.68356
365, 3, bw, attraction, a-b-db, 2, 1, 6, 4, 135, 60, 59, 134, 60, 135, 3, 0.622796
365, 3, bw, catch, NA, 999, 999, 6, 5, 145, 170, 131, 64, 94, 161, 1, 1.00384
365, 3, bw, catch, NA, 999, 999, 6, 5, 145, 170, 131, 64, 94, 161, 2, 0.602881
365, 3, bw, attraction, a-b-db, 14, 2, 6, 6, 83, 153, 90, 165, 165, 90, 2, 2.87257
365, 3, bw, attraction, a-b-db, 14, 2, 6, 6, 83, 153, 90, 165, 165, 90, 1, 0.547653
365, 3, bw, catch, NA, 999, 999, 6, 7, 131, 184, 141, 114, 79, 116, 1, 17.1474
365, 3, bw, catch, NA, 999, 999, 6, 7, 131, 184, 141, 114, 79, 116, 3, 0.855407
365, 3, bw, attraction, a-b-db, 9, 3, 6, 8, 114, 186, 120, 195, 195, 120, 2, 2.211
365, 3, bw, attraction, a-b-db, 9, 3, 6, 8, 114, 186, 120, 195, 195, 120, 1, 0.409047
365, 3, bw, attraction, a-b-da, 5, 3, 6, 9, 120, 195, 195, 120, 190, 117, 1, 1.04619
365, 3, bw, attraction, a-b-da, 5, 3, 6, 9, 120, 195, 195, 120, 190, 117, 3, 0.595228
365, 3, bw, attraction, a-b-da, 14, 1, 6, 10, 135, 60, 125, 56, 60, 135, 2, 1.05682
365, 3, bw, attraction, a-b-da, 14, 1, 6, 10, 135, 60, 125, 56, 60, 135, 1, 0.565236
365, 3, bw, attraction, a-b-db, 9, 2, 6, 11, 165, 90, 86, 157, 90, 165, 1, 2.02827
365, 3, bw, attraction, a-b-db, 9, 2, 6, 11, 165, 90, 86, 157, 90, 165, 2, 0.569695
365, 3, bw, attraction, a-b-da, 2, 3, 6, 12, 195, 120, 120, 195, 193, 119, 2, 2.62492
365, 3, bw, attraction, a-b-da, 2, 3, 6, 12, 195, 120, 120, 195, 193, 119, 3, 0.797894
365, 3, bw, attraction, a-b-db, 14, 3, 6, 13, 195, 120, 120, 195, 111, 181, 1, 1.88358
365, 3, bw, attraction, a-b-db, 14, 3, 6, 13, 195, 120, 120, 195, 111, 181, 3, 0.791035
365, 3, bw, filler, NA, 999, 999, 6, 14, 143, 169, 109, 67, 185, 158, 3, 1.29261
365, 3, bw, filler, NA, 999, 999, 6, 14, 143, 169, 109, 67, 185, 158, 2, 0.623528
365, 3, bw, attraction, a-b-da, 2, 1, 6, 15, 134, 59, 60, 135, 135, 60, 1, 2.46807
365, 3, bw, attraction, a-b-da, 2, 1, 6, 15, 134, 59, 60, 135, 135, 60, 2, 0.551847
365, 3, bw, attraction, a-b-db, 5, 2, 6, 16, 90, 165, 165, 90, 88, 161, 1, 1.89572
365, 3, bw, attraction, a-b-db, 5, 2, 6, 16, 90, 165, 165, 90, 88, 161, 3, 0.602468
365, 3, bw, attraction, a-b-db, 5, 1, 6, 17, 60, 135, 58, 132, 135, 60, 2, 2.40808
365, 3, bw, attraction, a-b-db, 5, 1, 6, 17, 60, 135, 58, 132, 135, 60, 1, 1.24598
365, 3, bw, attraction, a-b-da, 14, 2, 6, 18, 153, 83, 90, 165, 165, 90, 2, 8.93751
365, 3, bw, attraction, a-b-da, 14, 2, 6, 18, 153, 83, 90, 165, 165, 90, 3, 3.43285
365, 3, bw, filler, NA, 999, 999, 6, 19, 89, 98, 184, 156, 179, 151, 2, 12.0922
365, 3, bw, filler, NA, 999, 999, 6, 19, 89, 98, 184, 156, 179, 151, 1, 0.819832
365, 3, bw, attraction, a-b-da, 9, 1, 6, 20, 60, 135, 135, 60, 129, 57, 2, 1.95275
365, 3, bw, attraction, a-b-da, 9, 1, 6, 20, 60, 135, 135, 60, 129, 57, 1, 13.1056
365, 3, bw, attraction, a-b-db, 9, 1, 6, 21, 57, 129, 60, 135, 135, 60, 2, 23.6393
365, 3, bw, attraction, a-b-db, 9, 1, 6, 21, 57, 129, 60, 135, 135, 60, 1, 1.17394
365, 3, bw, filler, NA, 999, 999, 6, 22, 141, 154, 163, 183, 109, 127, 2, 1.02816
365, 3, bw, filler, NA, 999, 999, 6, 22, 141, 154, 163, 183, 109, 127, 3, 0.713859
365, 3, bw, attraction, a-b-da, 5, 2, 6, 23, 90, 165, 161, 88, 165, 90, 1, 0.810833
365, 3, bw, attraction, a-b-da, 5, 2, 6, 23, 90, 165, 161, 88, 165, 90, 3, 1.68124
365, 3, bw, filler, NA, 999, 999, 6, 24, 84, 57, 186, 178, 109, 157, 2, 0.747336
365, 3, bw, filler, NA, 999, 999, 6, 24, 84, 57, 186, 178, 109, 157, 1, 0.468492
365, 3, bw, filler, NA, 999, 999, 6, 25, 140, 141, 77, 162, 92, 177, 1, 1.19161
365, 3, bw, filler, NA, 999, 999, 6, 25, 140, 141, 77, 162, 92, 177, 2, 1.50257
365, 3, bw, catch, NA, 999, 999, 6, 26, 157, 98, 132, 63, 185, 130, 3, 1.21593
365, 3, bw, catch, NA, 999, 999, 6, 26, 157, 98, 132, 63, 185, 130, 2, 0.654187
365, 3, bw, filler, NA, 999, 999, 6, 27, 81, 115, 113, 100, 195, 111, 3, 1.18587
365, 3, bw, filler, NA, 999, 999, 6, 27, 81, 115, 113, 100, 195, 111, 1, 1.44148
365, 3, bw, attraction, a-b-db, 14, 1, 6, 28, 60, 135, 135, 60, 56, 125, 2, 1.13309
365, 3, bw, attraction, a-b-db, 14, 1, 6, 28, 60, 135, 135, 60, 56, 125, 3, 0.526686
365, 3, bw, filler, NA, 999, 999, 6, 29, 64, 132, 73, 68, 156, 148, 3, 0.727175
365, 3, bw, filler, NA, 999, 999, 6, 29, 64, 132, 73, 68, 156, 148, 2, 0.816779
365, 3, bw, attraction, a-b-da, 14, 3, 6, 30, 120, 195, 195, 120, 181, 111, 2, 1.82183
365, 3, bw, attraction, a-b-da, 14, 3, 6, 30, 120, 195, 195, 120, 181, 111, 3, 0.604007
365, 3, bw, filler, NA, 999, 999, 6, 31, 153, 179, 187, 168, 188, 133, 2, 0.929723
365, 3, bw, filler, NA, 999, 999, 6, 31, 153, 179, 187, 168, 188, 133, 3, 0.771383
365, 3, bw, filler, NA, 999, 999, 6, 32, 98, 194, 189, 185, 79, 182, 2, 1.63444
365, 3, bw, filler, NA, 999, 999, 6, 32, 98, 194, 189, 185, 79, 182, 3, 0.807938
365, 3, bw, attraction, a-b-db, 5, 3, 6, 33, 117, 190, 120, 195, 195, 120, 3, 2.74099
365, 3, bw, attraction, a-b-db, 5, 3, 6, 33, 117, 190, 120, 195, 195, 120, 2, 24.1973
365, 3, bw, attraction, a-b-da, 9, 2, 6, 34, 90, 165, 157, 86, 165, 90, 1, 4.15565
365, 3, bw, attraction, a-b-da, 9, 2, 6, 34, 90, 165, 157, 86, 165, 90, 2, 0.8517
365, 3, bw, attraction, a-b-db, 2, 2, 6, 35, 89, 163, 165, 90, 90, 165, 1, 1.15135
365, 3, bw, attraction, a-b-db, 2, 2, 6, 35, 89, 163, 165, 90, 90, 165, 2, 0.672284
365, 3, bw, attraction, a-b-da, 9, 3, 6, 36, 195, 120, 120, 195, 186, 114, 2, 0.891374
365, 3, bw, attraction, a-b-da, 9, 3, 6, 36, 195, 120, 120, 195, 186, 114, 3, 0.430456
365, 3, bw, attraction, a-b-da, 5, 1, 6, 37, 60, 135, 132, 58, 135, 60, 1, 0.74702
365, 3, bw, attraction, a-b-da, 5, 1, 6, 37, 60, 135, 132, 58, 135, 60, 2, 0.508091
365, 3, bw, catch, NA, 999, 999, 7, 1, 164, 91, 166, 149, 87, 108, 2, 0.98918
365, 3, bw, catch, NA, 999, 999, 7, 1, 164, 91, 166, 149, 87, 108, 3, 0.508089
365, 3, bw, catch, NA, 999, 999, 7, 2, 76, 119, 150, 165, 105, 150, 2, 0.589213
365, 3, bw, catch, NA, 999, 999, 7, 2, 76, 119, 150, 165, 105, 150, 1, 0.460378
365, 3, bw, attraction, a-b-da, 5, 1, 7, 3, 135, 60, 60, 135, 132, 58, 1, 0.927552
365, 3, bw, attraction, a-b-da, 5, 1, 7, 3, 135, 60, 60, 135, 132, 58, 2, 0.465268
365, 3, bw, attraction, a-b-db, 14, 3, 7, 4, 195, 120, 111, 181, 120, 195, 2, 0.908254
365, 3, bw, attraction, a-b-db, 14, 3, 7, 4, 195, 120, 111, 181, 120, 195, 1, 0.446688
365, 3, bw, attraction, a-b-da, 2, 3, 7, 5, 120, 195, 193, 119, 195, 120, 1, 1.88239
365, 3, bw, attraction, a-b-da, 2, 3, 7, 5, 120, 195, 193, 119, 195, 120, 2, 0.533884
365, 3, bw, attraction, a-b-da, 2, 1, 7, 6, 60, 135, 134, 59, 135, 60, 1, 0.790314
365, 3, bw, attraction, a-b-da, 2, 1, 7, 6, 60, 135, 134, 59, 135, 60, 2, 0.62593
365, 3, bw, filler, NA, 999, 999, 7, 7, 60, 67, 129, 181, 127, 77, 2, 0.577809
365, 3, bw, filler, NA, 999, 999, 7, 7, 60, 67, 129, 181, 127, 77, 1, 0.441533
365, 3, bw, filler, NA, 999, 999, 7, 8, 81, 151, 159, 133, 130, 117, 2, 0.68537
365, 3, bw, filler, NA, 999, 999, 7, 8, 81, 151, 159, 133, 130, 117, 3, 1.00104
365, 3, bw, filler, NA, 999, 999, 7, 9, 77, 111, 86, 90, 192, 106, 3, 1.2228
365, 3, bw, filler, NA, 999, 999, 7, 9, 77, 111, 86, 90, 192, 106, 2, 0.612396
365, 3, bw, filler, NA, 999, 999, 7, 10, 85, 82, 185, 90, 111, 145, 3, 3.88951
365, 3, bw, filler, NA, 999, 999, 7, 10, 85, 82, 185, 90, 111, 145, 1, 0.531558
365, 3, bw, attraction, a-b-da, 5, 3, 7, 11, 190, 117, 120, 195, 195, 120, 2, 1.1159
365, 3, bw, attraction, a-b-da, 5, 3, 7, 11, 190, 117, 120, 195, 195, 120, 3, 0.502284
365, 3, bw, attraction, a-b-da, 14, 2, 7, 12, 153, 83, 165, 90, 90, 165, 3, 1.74411
365, 3, bw, attraction, a-b-da, 14, 2, 7, 12, 153, 83, 165, 90, 90, 165, 2, 0.472728
365, 3, bw, attraction, a-b-db, 5, 1, 7, 13, 60, 135, 135, 60, 58, 132, 2, 0.891986
365, 3, bw, attraction, a-b-db, 5, 1, 7, 13, 60, 135, 135, 60, 58, 132, 3, 0.487003
365, 3, bw, filler, NA, 999, 999, 7, 14, 138, 88, 91, 83, 193, 73, 1, 2.77742
365, 3, bw, filler, NA, 999, 999, 7, 14, 138, 88, 91, 83, 193, 73, 2, 2.08055
365, 3, bw, filler, NA, 999, 999, 7, 15, 107, 148, 93, 125, 124, 149, 3, 1.44259
365, 3, bw, filler, NA, 999, 999, 7, 15, 107, 148, 93, 125, 124, 149, 2, 0.719376
365, 3, bw, attraction, a-b-da, 14, 1, 7, 16, 125, 56, 60, 135, 135, 60, 2, 0.992377
365, 3, bw, attraction, a-b-da, 14, 1, 7, 16, 125, 56, 60, 135, 135, 60, 1, 0.871252
365, 3, bw, attraction, a-b-da, 9, 2, 7, 17, 157, 86, 90, 165, 165, 90, 1, 1.55437
365, 3, bw, attraction, a-b-da, 9, 2, 7, 17, 157, 86, 90, 165, 165, 90, 2, 0.731273
365, 3, bw, attraction, a-b-da, 9, 1, 7, 18, 60, 135, 135, 60, 129, 57, 1, 12.5076
365, 3, bw, attraction, a-b-da, 9, 1, 7, 18, 60, 135, 135, 60, 129, 57, 2, 0.843049
365, 3, bw, attraction, a-b-db, 2, 3, 7, 19, 120, 195, 119, 193, 195, 120, 1, 2.03861
365, 3, bw, attraction, a-b-db, 2, 3, 7, 19, 120, 195, 119, 193, 195, 120, 3, 0.723298
365, 3, bw, catch, NA, 999, 999, 7, 20, 113, 82, 98, 157, 157, 158, 3, 1.2364
365, 3, bw, catch, NA, 999, 999, 7, 20, 113, 82, 98, 157, 157, 158, 1, 0.714003
365, 3, bw, attraction, a-b-db, 14, 1, 7, 21, 135, 60, 60, 135, 56, 125, 2, 1.27501
365, 3, bw, attraction, a-b-db, 14, 1, 7, 21, 135, 60, 60, 135, 56, 125, 3, 0.454673
365, 3, bw, attraction, a-b-db, 9, 3, 7, 22, 195, 120, 114, 186, 120, 195, 1, 2.65828
365, 3, bw, attraction, a-b-db, 9, 3, 7, 22, 195, 120, 114, 186, 120, 195, 3, 0.894176
365, 3, bw, attraction, a-b-db, 9, 1, 7, 23, 57, 129, 135, 60, 60, 135, 1, 0.863835
365, 3, bw, attraction, a-b-db, 9, 1, 7, 23, 57, 129, 135, 60, 60, 135, 2, 0.700185
365, 3, bw, filler, NA, 999, 999, 7, 24, 103, 153, 188, 189, 101, 117, 2, 0.557903
365, 3, bw, filler, NA, 999, 999, 7, 24, 103, 153, 188, 189, 101, 117, 3, 0.582501
365, 3, bw, attraction, a-b-db, 5, 3, 7, 25, 195, 120, 117, 190, 120, 195, 1, 1.06883
365, 3, bw, attraction, a-b-db, 5, 3, 7, 25, 195, 120, 117, 190, 120, 195, 3, 0.577163
365, 3, bw, attraction, a-b-da, 5, 2, 7, 26, 165, 90, 90, 165, 161, 88, 2, 1.1276
365, 3, bw, attraction, a-b-da, 5, 2, 7, 26, 165, 90, 90, 165, 161, 88, 3, 0.993242
365, 3, bw, attraction, a-b-db, 14, 2, 7, 27, 90, 165, 165, 90, 83, 153, 2, 1.66282
365, 3, bw, attraction, a-b-db, 14, 2, 7, 27, 90, 165, 165, 90, 83, 153, 1, 0.946987
365, 3, bw, attraction, a-b-da, 2, 2, 7, 28, 163, 89, 165, 90, 90, 165, 2, 7.59473
365, 3, bw, attraction, a-b-da, 2, 2, 7, 28, 163, 89, 165, 90, 90, 165, 1, 0.983459
365, 3, bw, attraction, a-b-db, 5, 2, 7, 29, 165, 90, 90, 165, 88, 161, 2, 11.3017
365, 3, bw, attraction, a-b-db, 5, 2, 7, 29, 165, 90, 90, 165, 88, 161, 3, 0.525522
365, 3, bw, attraction, a-b-da, 9, 3, 7, 30, 120, 195, 195, 120, 186, 114, 1, 1.21394
365, 3, bw, attraction, a-b-da, 9, 3, 7, 30, 120, 195, 195, 120, 186, 114, 3, 0.484243
365, 3, bw, attraction, a-b-db, 2, 2, 7, 31, 89, 163, 90, 165, 165, 90, 1, 1.56674
365, 3, bw, attraction, a-b-db, 2, 2, 7, 31, 89, 163, 90, 165, 165, 90, 3, 1.2469
365, 3, bw, attraction, a-b-db, 9, 2, 7, 32, 165, 90, 86, 157, 90, 165, 3, 2.35447
365, 3, bw, attraction, a-b-db, 9, 2, 7, 32, 165, 90, 86, 157, 90, 165, 1, 0.57109
365, 3, bw, filler, NA, 999, 999, 7, 33, 172, 119, 101, 185, 135, 102, 1, 1.66617
365, 3, bw, filler, NA, 999, 999, 7, 33, 172, 119, 101, 185, 135, 102, 3, 0.438237
365, 3, bw, filler, NA, 999, 999, 7, 34, 160, 115, 96, 163, 74, 109, 1, 2.09089
365, 3, bw, filler, NA, 999, 999, 7, 34, 160, 115, 96, 163, 74, 109, 3, 0.605458
365, 3, bw, attraction, a-b-db, 2, 1, 7, 35, 60, 135, 135, 60, 59, 134, 1, 1.36316
365, 3, bw, attraction, a-b-db, 2, 1, 7, 35, 60, 135, 135, 60, 59, 134, 2, 0.699419
365, 3, bw, attraction, a-b-da, 14, 3, 7, 36, 120, 195, 181, 111, 195, 120, 3, 1.07712
365, 3, bw, attraction, a-b-da, 14, 3, 7, 36, 120, 195, 181, 111, 195, 120, 1, 0.88084
365, 3, bw, filler, NA, 999, 999, 7, 37, 186, 145, 107, 83, 153, 189, 3, 2.53105
365, 3, bw, filler, NA, 999, 999, 7, 37, 186, 145, 107, 83, 153, 189, 2, 0.500196
365, 3, bw, attraction, a-b-db, 2, 1, 8, 1, 135, 60, 60, 135, 59, 134, 2, 1.11798
365, 3, bw, attraction, a-b-db, 2, 1, 8, 1, 135, 60, 60, 135, 59, 134, 1, 1.92821
365, 3, bw, filler, NA, 999, 999, 8, 2, 181, 120, 161, 182, 105, 178, 2, 0.840224
365, 3, bw, filler, NA, 999, 999, 8, 2, 181, 120, 161, 182, 105, 178, 3, 0.605271
365, 3, bw, attraction, a-b-da, 2, 2, 8, 3, 165, 90, 90, 165, 163, 89, 2, 1.355
365, 3, bw, attraction, a-b-da, 2, 2, 8, 3, 165, 90, 90, 165, 163, 89, 3, 0.948066
365, 3, bw, attraction, a-b-db, 14, 3, 8, 4, 111, 181, 195, 120, 120, 195, 1, 5.84356
365, 3, bw, attraction, a-b-db, 14, 3, 8, 4, 111, 181, 195, 120, 120, 195, 3, 2.54311
365, 3, bw, attraction, a-b-da, 14, 1, 8, 5, 60, 135, 135, 60, 125, 56, 2, 1.17419
365, 3, bw, attraction, a-b-da, 14, 1, 8, 5, 60, 135, 135, 60, 125, 56, 3, 0.941792
365, 3, bw, attraction, a-b-da, 5, 3, 8, 6, 190, 117, 120, 195, 195, 120, 2, 1.53348
365, 3, bw, attraction, a-b-da, 5, 3, 8, 6, 190, 117, 120, 195, 195, 120, 3, 1.68698
365, 3, bw, attraction, a-b-da, 9, 1, 8, 7, 135, 60, 60, 135, 129, 57, 2, 2.16099
365, 3, bw, attraction, a-b-da, 9, 1, 8, 7, 135, 60, 60, 135, 129, 57, 1, 1.53705
365, 3, bw, filler, NA, 999, 999, 8, 8, 193, 178, 130, 118, 65, 101, 1, 3.20116
365, 3, bw, filler, NA, 999, 999, 8, 8, 193, 178, 130, 118, 65, 101, 3, 8.24762
365, 3, bw, attraction, a-b-db, 9, 2, 8, 9, 90, 165, 165, 90, 86, 157, 1, 1.88085
365, 3, bw, attraction, a-b-db, 9, 2, 8, 9, 90, 165, 165, 90, 86, 157, 2, 0.676259
365, 3, bw, attraction, a-b-da, 9, 2, 8, 10, 157, 86, 165, 90, 90, 165, 3, 1.56659
365, 3, bw, attraction, a-b-da, 9, 2, 8, 10, 157, 86, 165, 90, 90, 165, 1, 0.470753
365, 3, bw, catch, NA, 999, 999, 8, 11, 79, 116, 95, 160, 134, 181, 3, 1.28189
365, 3, bw, catch, NA, 999, 999, 8, 11, 79, 116, 95, 160, 134, 181, 1, 8.27745
365, 3, bw, filler, NA, 999, 999, 8, 12, 139, 99, 138, 82, 104, 84, 1, 1.0695
365, 3, bw, filler, NA, 999, 999, 8, 12, 139, 99, 138, 82, 104, 84, 3, 0.537815
365, 3, bw, catch, NA, 999, 999, 8, 13, 129, 126, 66, 129, 125, 190, 3, 11.4102
365, 3, bw, catch, NA, 999, 999, 8, 13, 129, 126, 66, 129, 125, 190, 2, 1.24527
365, 3, bw, attraction, a-b-da, 2, 1, 8, 14, 134, 59, 60, 135, 135, 60, 2, 7.025
365, 3, bw, attraction, a-b-da, 2, 1, 8, 14, 134, 59, 60, 135, 135, 60, 3, 0.612622
365, 3, bw, filler, NA, 999, 999, 8, 15, 102, 63, 93, 68, 128, 146, 3, 0.809649
365, 3, bw, filler, NA, 999, 999, 8, 15, 102, 63, 93, 68, 128, 146, 2, 1.00005
365, 3, bw, attraction, a-b-db, 14, 2, 8, 16, 83, 153, 90, 165, 165, 90, 2, 0.765775
365, 3, bw, attraction, a-b-db, 14, 2, 8, 16, 83, 153, 90, 165, 165, 90, 3, 0.734184
365, 3, bw, filler, NA, 999, 999, 8, 17, 82, 78, 59, 169, 142, 183, 3, 0.678483
365, 3, bw, filler, NA, 999, 999, 8, 17, 82, 78, 59, 169, 142, 183, 1, 0.490323
365, 3, bw, filler, NA, 999, 999, 8, 18, 118, 91, 81, 96, 86, 124, 1, 2.83616
365, 3, bw, filler, NA, 999, 999, 8, 18, 118, 91, 81, 96, 86, 124, 2, 0.481178
365, 3, bw, attraction, a-b-db, 14, 1, 8, 19, 60, 135, 135, 60, 56, 125, 1, 2.46756
365, 3, bw, attraction, a-b-db, 14, 1, 8, 19, 60, 135, 135, 60, 56, 125, 3, 0.583575
365, 3, bw, filler, NA, 999, 999, 8, 20, 113, 58, 84, 195, 176, 184, 3, 0.741856
365, 3, bw, filler, NA, 999, 999, 8, 20, 113, 58, 84, 195, 176, 184, 1, 0.718976
365, 3, bw, attraction, a-b-da, 14, 2, 8, 21, 165, 90, 153, 83, 90, 165, 1, 1.12799
365, 3, bw, attraction, a-b-da, 14, 2, 8, 21, 165, 90, 153, 83, 90, 165, 3, 0.745632
365, 3, bw, attraction, a-b-db, 5, 2, 8, 22, 88, 161, 90, 165, 165, 90, 3, 8.51335
365, 3, bw, attraction, a-b-db, 5, 2, 8, 22, 88, 161, 90, 165, 165, 90, 1, 0.737437
365, 3, bw, attraction, a-b-db, 2, 2, 8, 23, 90, 165, 165, 90, 89, 163, 1, 1.72965
365, 3, bw, attraction, a-b-db, 2, 2, 8, 23, 90, 165, 165, 90, 89, 163, 2, 0.403122
365, 3, bw, catch, NA, 999, 999, 8, 24, 128, 187, 131, 64, 152, 103, 1, 0.888925
365, 3, bw, catch, NA, 999, 999, 8, 24, 128, 187, 131, 64, 152, 103, 2, 0.571997
365, 3, bw, filler, NA, 999, 999, 8, 25, 108, 133, 168, 153, 87, 109, 2, 1.32311
365, 3, bw, filler, NA, 999, 999, 8, 25, 108, 133, 168, 153, 87, 109, 3, 0.596737
365, 3, bw, attraction, a-b-da, 5, 1, 8, 26, 60, 135, 135, 60, 132, 58, 1, 2.77041
365, 3, bw, attraction, a-b-da, 5, 1, 8, 26, 60, 135, 135, 60, 132, 58, 3, 14.1222
365, 3, bw, attraction, a-b-db, 5, 3, 8, 27, 195, 120, 120, 195, 117, 190, 2, 1.32712
365, 3, bw, attraction, a-b-db, 5, 3, 8, 27, 195, 120, 120, 195, 117, 190, 3, 0.528557
365, 3, bw, filler, NA, 999, 999, 8, 28, 67, 58, 66, 152, 64, 80, 2, 0.713104
365, 3, bw, filler, NA, 999, 999, 8, 28, 67, 58, 66, 152, 64, 80, 3, 0.459564
365, 3, bw, attraction, a-b-da, 14, 3, 8, 29, 120, 195, 195, 120, 181, 111, 1, 1.23059
365, 3, bw, attraction, a-b-da, 14, 3, 8, 29, 120, 195, 195, 120, 181, 111, 3, 1.0202
365, 3, bw, attraction, a-b-da, 9, 3, 8, 30, 195, 120, 186, 114, 120, 195, 3, 1.81714
365, 3, bw, attraction, a-b-da, 9, 3, 8, 30, 195, 120, 186, 114, 120, 195, 2, 1.3592
365, 3, bw, attraction, a-b-db, 9, 3, 8, 31, 120, 195, 195, 120, 114, 186, 3, 2.96616
365, 3, bw, attraction, a-b-db, 9, 3, 8, 31, 120, 195, 195, 120, 114, 186, 2, 1.29375
365, 3, bw, attraction, a-b-db, 2, 3, 8, 32, 120, 195, 195, 120, 119, 193, 3, 2.3674
365, 3, bw, attraction, a-b-db, 2, 3, 8, 32, 120, 195, 195, 120, 119, 193, 2, 0.399166
365, 3, bw, attraction, a-b-db, 5, 1, 8, 33, 60, 135, 135, 60, 58, 132, 2, 1.17304
365, 3, bw, attraction, a-b-db, 5, 1, 8, 33, 60, 135, 135, 60, 58, 132, 3, 0.540567
365, 3, bw, attraction, a-b-da, 5, 2, 8, 34, 165, 90, 161, 88, 90, 165, 3, 18.2764
365, 3, bw, attraction, a-b-da, 5, 2, 8, 34, 165, 90, 161, 88, 90, 165, 2, 0.882592
365, 3, bw, attraction, a-b-db, 9, 1, 8, 35, 60, 135, 135, 60, 57, 129, 1, 1.24508
365, 3, bw, attraction, a-b-db, 9, 1, 8, 35, 60, 135, 135, 60, 57, 129, 2, 1.75387
365, 3, bw, filler, NA, 999, 999, 8, 36, 72, 69, 186, 99, 110, 114, 2, 0.80929
365, 3, bw, filler, NA, 999, 999, 8, 36, 72, 69, 186, 99, 110, 114, 1, 0.375751
365, 3, bw, attraction, a-b-da, 2, 3, 8, 37, 195, 120, 193, 119, 120, 195, 3, 1.4221
365, 3, bw, attraction, a-b-da, 2, 3, 8, 37, 195, 120, 193, 119, 120, 195, 2, 0.515723
