sub_n, computer_n, bw_cond, effect, set, distance, diag, block_n, trial_n, h1, w1, h2, w2, h3, w3, choice, rt 
303, 3, bw, practice, NA, 999, 999, 0, 1, 152, 188, 63, 60, 144, 170, 1, 2.86666
303, 3, bw, practice, NA, 999, 999, 0, 1, 152, 188, 63, 60, 144, 170, 2, 2.33629
303, 3, bw, practice, NA, 999, 999, 0, 2, 144, 94, 56, 103, 154, 166, 3, 2.26531
303, 3, bw, practice, NA, 999, 999, 0, 2, 144, 94, 56, 103, 154, 166, 2, 1.54277
303, 3, bw, practice, NA, 999, 999, 0, 3, 68, 92, 134, 61, 111, 101, 3, 2.99595
303, 3, bw, practice, NA, 999, 999, 0, 3, 68, 92, 134, 61, 111, 101, 1, 3.15517
303, 3, bw, attraction, a-b-da, 5, 2, 1, 1, 165, 90, 161, 88, 90, 165, 3, 5.05497
303, 3, bw, attraction, a-b-da, 5, 2, 1, 1, 165, 90, 161, 88, 90, 165, 1, 2.19468
303, 3, bw, attraction, a-b-db, 14, 1, 1, 2, 56, 125, 135, 60, 60, 135, 3, 2.65592
303, 3, bw, attraction, a-b-db, 14, 1, 1, 2, 56, 125, 135, 60, 60, 135, 1, 1.51578
303, 3, bw, attraction, a-b-db, 5, 1, 1, 3, 135, 60, 58, 132, 60, 135, 2, 4.3085
303, 3, bw, attraction, a-b-db, 5, 1, 1, 3, 135, 60, 58, 132, 60, 135, 1, 2.23778
303, 3, bw, filler, NA, 999, 999, 1, 4, 175, 161, 99, 167, 177, 142, 1, 2.91382
303, 3, bw, filler, NA, 999, 999, 1, 4, 175, 161, 99, 167, 177, 142, 2, 0.899552
303, 3, bw, filler, NA, 999, 999, 1, 5, 135, 92, 121, 137, 69, 71, 2, 1.30919
303, 3, bw, filler, NA, 999, 999, 1, 5, 135, 92, 121, 137, 69, 71, 3, 1.16735
303, 3, bw, filler, NA, 999, 999, 1, 6, 178, 106, 159, 170, 66, 71, 2, 1.23824
303, 3, bw, filler, NA, 999, 999, 1, 6, 178, 106, 159, 170, 66, 71, 3, 1.08335
303, 3, bw, filler, NA, 999, 999, 1, 7, 162, 186, 182, 191, 189, 111, 2, 3.66146
303, 3, bw, filler, NA, 999, 999, 1, 7, 162, 186, 182, 191, 189, 111, 3, 1.13689
303, 3, bw, attraction, a-b-db, 2, 2, 1, 8, 90, 165, 89, 163, 165, 90, 3, 4.36129
303, 3, bw, attraction, a-b-db, 2, 2, 1, 8, 90, 165, 89, 163, 165, 90, 2, 0.704528
303, 3, bw, attraction, a-b-db, 9, 3, 1, 9, 120, 195, 114, 186, 195, 120, 3, 2.82615
303, 3, bw, attraction, a-b-db, 9, 3, 1, 9, 120, 195, 114, 186, 195, 120, 2, 0.751301
303, 3, bw, filler, NA, 999, 999, 1, 10, 63, 155, 134, 181, 73, 116, 2, 1.39903
303, 3, bw, filler, NA, 999, 999, 1, 10, 63, 155, 134, 181, 73, 116, 3, 0.733865
303, 3, bw, filler, NA, 999, 999, 1, 11, 68, 171, 60, 160, 63, 186, 1, 2.31823
303, 3, bw, filler, NA, 999, 999, 1, 11, 68, 171, 60, 160, 63, 186, 2, 0.672179
303, 3, bw, attraction, a-b-db, 5, 2, 1, 12, 88, 161, 90, 165, 165, 90, 1, 2.98721
303, 3, bw, attraction, a-b-db, 5, 2, 1, 12, 88, 161, 90, 165, 165, 90, 3, 3.34641
303, 3, bw, attraction, a-b-db, 2, 3, 1, 13, 195, 120, 120, 195, 119, 193, 2, 4.37729
303, 3, bw, attraction, a-b-db, 2, 3, 1, 13, 195, 120, 120, 195, 119, 193, 1, 0.407716
303, 3, bw, filler, NA, 999, 999, 1, 14, 117, 158, 138, 146, 67, 100, 2, 1.55711
303, 3, bw, filler, NA, 999, 999, 1, 14, 117, 158, 138, 146, 67, 100, 3, 0.549153
303, 3, bw, attraction, a-b-da, 2, 1, 1, 15, 60, 135, 134, 59, 135, 60, 1, 1.42094
303, 3, bw, attraction, a-b-da, 2, 1, 1, 15, 60, 135, 134, 59, 135, 60, 2, 0.579057
303, 3, bw, catch, NA, 999, 999, 1, 16, 155, 160, 104, 151, 124, 71, 1, 1.08939
303, 3, bw, catch, NA, 999, 999, 1, 16, 155, 160, 104, 151, 124, 71, 3, 0.45237
303, 3, bw, attraction, a-b-da, 9, 1, 1, 17, 129, 57, 60, 135, 135, 60, 3, 2.16027
303, 3, bw, attraction, a-b-da, 9, 1, 1, 17, 129, 57, 60, 135, 135, 60, 1, 0.368152
303, 3, bw, attraction, a-b-da, 14, 2, 1, 18, 153, 83, 165, 90, 90, 165, 3, 2.39148
303, 3, bw, attraction, a-b-da, 14, 2, 1, 18, 153, 83, 165, 90, 90, 165, 1, 0.653904
303, 3, bw, attraction, a-b-db, 5, 3, 1, 19, 195, 120, 117, 190, 120, 195, 2, 5.8177
303, 3, bw, attraction, a-b-db, 5, 3, 1, 19, 195, 120, 117, 190, 120, 195, 1, 0.350562
303, 3, bw, filler, NA, 999, 999, 1, 20, 96, 85, 153, 80, 120, 127, 3, 1.67032
303, 3, bw, filler, NA, 999, 999, 1, 20, 96, 85, 153, 80, 120, 127, 1, 1.27447
303, 3, bw, attraction, a-b-da, 5, 1, 1, 21, 132, 58, 60, 135, 135, 60, 3, 3.30875
303, 3, bw, attraction, a-b-da, 5, 1, 1, 21, 132, 58, 60, 135, 135, 60, 1, 0.734249
303, 3, bw, attraction, a-b-db, 9, 1, 1, 22, 57, 129, 135, 60, 60, 135, 3, 1.48669
303, 3, bw, attraction, a-b-db, 9, 1, 1, 22, 57, 129, 135, 60, 60, 135, 2, 0.658088
303, 3, bw, attraction, a-b-da, 9, 3, 1, 23, 186, 114, 195, 120, 120, 195, 3, 3.12521
303, 3, bw, attraction, a-b-da, 9, 3, 1, 23, 186, 114, 195, 120, 120, 195, 2, 0.60623
303, 3, bw, attraction, a-b-da, 14, 3, 1, 24, 120, 195, 195, 120, 181, 111, 1, 3.78798
303, 3, bw, attraction, a-b-da, 14, 3, 1, 24, 120, 195, 195, 120, 181, 111, 3, 0.722795
303, 3, bw, filler, NA, 999, 999, 1, 25, 89, 82, 107, 145, 65, 71, 2, 2.12385
303, 3, bw, filler, NA, 999, 999, 1, 25, 89, 82, 107, 145, 65, 71, 3, 1.1171
303, 3, bw, attraction, a-b-db, 9, 2, 1, 26, 90, 165, 86, 157, 165, 90, 1, 3.58201
303, 3, bw, attraction, a-b-db, 9, 2, 1, 26, 90, 165, 86, 157, 165, 90, 3, 0.588934
303, 3, bw, filler, NA, 999, 999, 1, 27, 147, 110, 68, 111, 102, 156, 1, 2.26735
303, 3, bw, filler, NA, 999, 999, 1, 27, 147, 110, 68, 111, 102, 156, 2, 0.543296
303, 3, bw, attraction, a-b-da, 5, 3, 1, 28, 120, 195, 195, 120, 190, 117, 3, 4.19111
303, 3, bw, attraction, a-b-da, 5, 3, 1, 28, 120, 195, 195, 120, 190, 117, 1, 2.79695
303, 3, bw, attraction, a-b-da, 9, 2, 1, 29, 90, 165, 157, 86, 165, 90, 3, 4.67412
303, 3, bw, attraction, a-b-da, 9, 2, 1, 29, 90, 165, 157, 86, 165, 90, 2, 1.19663
303, 3, bw, attraction, a-b-db, 14, 2, 1, 30, 165, 90, 90, 165, 83, 153, 2, 2.0741
303, 3, bw, attraction, a-b-db, 14, 2, 1, 30, 165, 90, 90, 165, 83, 153, 3, 0.357559
303, 3, bw, catch, NA, 999, 999, 1, 31, 86, 109, 122, 133, 163, 152, 3, 1.49259
303, 3, bw, catch, NA, 999, 999, 1, 31, 86, 109, 122, 133, 163, 152, 1, 0.535475
303, 3, bw, attraction, a-b-da, 2, 3, 1, 32, 195, 120, 193, 119, 120, 195, 1, 2.07191
303, 3, bw, attraction, a-b-da, 2, 3, 1, 32, 195, 120, 193, 119, 120, 195, 3, 0.451265
303, 3, bw, attraction, a-b-db, 2, 1, 1, 33, 60, 135, 135, 60, 59, 134, 1, 1.567
303, 3, bw, attraction, a-b-db, 2, 1, 1, 33, 60, 135, 135, 60, 59, 134, 2, 0.375191
303, 3, bw, attraction, a-b-da, 2, 2, 1, 34, 165, 90, 163, 89, 90, 165, 3, 2.70961
303, 3, bw, attraction, a-b-da, 2, 2, 1, 34, 165, 90, 163, 89, 90, 165, 2, 0.463412
303, 3, bw, attraction, a-b-da, 14, 1, 1, 35, 60, 135, 125, 56, 135, 60, 1, 1.45872
303, 3, bw, attraction, a-b-da, 14, 1, 1, 35, 60, 135, 125, 56, 135, 60, 2, 0.71086
303, 3, bw, catch, NA, 999, 999, 1, 36, 66, 129, 106, 149, 194, 121, 3, 2.57589
303, 3, bw, catch, NA, 999, 999, 1, 36, 66, 129, 106, 149, 194, 121, 1, 0.470995
303, 3, bw, attraction, a-b-db, 14, 3, 1, 37, 120, 195, 195, 120, 111, 181, 1, 2.57013
303, 3, bw, attraction, a-b-db, 14, 3, 1, 37, 120, 195, 195, 120, 111, 181, 3, 1.25
303, 3, bw, attraction, a-b-db, 9, 2, 2, 1, 86, 157, 90, 165, 165, 90, 2, 1.82152
303, 3, bw, attraction, a-b-db, 9, 2, 2, 1, 86, 157, 90, 165, 165, 90, 1, 0.498951
303, 3, bw, attraction, a-b-db, 2, 2, 2, 2, 165, 90, 90, 165, 89, 163, 2, 3.39678
303, 3, bw, attraction, a-b-db, 2, 2, 2, 2, 165, 90, 90, 165, 89, 163, 1, 0.346894
303, 3, bw, attraction, a-b-db, 2, 1, 2, 3, 60, 135, 135, 60, 59, 134, 3, 2.65875
303, 3, bw, attraction, a-b-db, 2, 1, 2, 3, 60, 135, 135, 60, 59, 134, 2, 0.446706
303, 3, bw, attraction, a-b-db, 9, 1, 2, 4, 135, 60, 57, 129, 60, 135, 1, 4.17037
303, 3, bw, attraction, a-b-db, 9, 1, 2, 4, 135, 60, 57, 129, 60, 135, 2, 0.721751
303, 3, bw, attraction, a-b-db, 14, 1, 2, 5, 60, 135, 56, 125, 135, 60, 1, 1.38697
303, 3, bw, attraction, a-b-db, 14, 1, 2, 5, 60, 135, 56, 125, 135, 60, 3, 0.618342
303, 3, bw, filler, NA, 999, 999, 2, 6, 164, 80, 101, 61, 61, 80, 1, 1.07939
303, 3, bw, filler, NA, 999, 999, 2, 6, 164, 80, 101, 61, 61, 80, 3, 0.54716
303, 3, bw, attraction, a-b-da, 9, 1, 2, 7, 135, 60, 129, 57, 60, 135, 1, 2.86686
303, 3, bw, attraction, a-b-da, 9, 1, 2, 7, 135, 60, 129, 57, 60, 135, 3, 1.10258
303, 3, bw, attraction, a-b-db, 14, 3, 2, 8, 111, 181, 120, 195, 195, 120, 2, 2.44018
303, 3, bw, attraction, a-b-db, 14, 3, 2, 8, 111, 181, 120, 195, 195, 120, 3, 0.684729
303, 3, bw, attraction, a-b-da, 14, 1, 2, 9, 125, 56, 135, 60, 60, 135, 2, 1.84709
303, 3, bw, attraction, a-b-da, 14, 1, 2, 9, 125, 56, 135, 60, 60, 135, 3, 0.555792
303, 3, bw, attraction, a-b-db, 14, 2, 2, 10, 165, 90, 90, 165, 83, 153, 2, 2.67565
303, 3, bw, attraction, a-b-db, 14, 2, 2, 10, 165, 90, 90, 165, 83, 153, 3, 0.662826
303, 3, bw, filler, NA, 999, 999, 2, 11, 136, 89, 104, 186, 169, 57, 2, 2.41775
303, 3, bw, filler, NA, 999, 999, 2, 11, 136, 89, 104, 186, 169, 57, 3, 1.02374
303, 3, bw, attraction, a-b-da, 9, 2, 2, 12, 90, 165, 165, 90, 157, 86, 2, 2.53195
303, 3, bw, attraction, a-b-da, 9, 2, 2, 12, 90, 165, 165, 90, 157, 86, 1, 1.02913
303, 3, bw, attraction, a-b-da, 5, 1, 2, 13, 132, 58, 60, 135, 135, 60, 1, 2.34544
303, 3, bw, attraction, a-b-da, 5, 1, 2, 13, 132, 58, 60, 135, 135, 60, 2, 0.945987
303, 3, bw, catch, NA, 999, 999, 2, 14, 158, 157, 84, 111, 154, 101, 1, 1.08166
303, 3, bw, catch, NA, 999, 999, 2, 14, 158, 157, 84, 111, 154, 101, 2, 0.533317
303, 3, bw, filler, NA, 999, 999, 2, 15, 125, 81, 74, 145, 126, 157, 3, 0.885739
303, 3, bw, filler, NA, 999, 999, 2, 15, 125, 81, 74, 145, 126, 157, 2, 0.305423
303, 3, bw, attraction, a-b-da, 5, 2, 2, 16, 165, 90, 161, 88, 90, 165, 1, 1.78727
303, 3, bw, attraction, a-b-da, 5, 2, 2, 16, 165, 90, 161, 88, 90, 165, 2, 0.386065
303, 3, bw, attraction, a-b-da, 2, 1, 2, 17, 134, 59, 60, 135, 135, 60, 1, 1.4486
303, 3, bw, attraction, a-b-da, 2, 1, 2, 17, 134, 59, 60, 135, 135, 60, 2, 1.90935
303, 3, bw, filler, NA, 999, 999, 2, 18, 118, 74, 89, 178, 158, 127, 3, 1.83804
303, 3, bw, filler, NA, 999, 999, 2, 18, 118, 74, 89, 178, 158, 127, 1, 0.602758
303, 3, bw, filler, NA, 999, 999, 2, 19, 109, 137, 161, 147, 66, 119, 2, 1.29648
303, 3, bw, filler, NA, 999, 999, 2, 19, 109, 137, 161, 147, 66, 119, 3, 0.379456
303, 3, bw, filler, NA, 999, 999, 2, 20, 116, 61, 98, 74, 149, 92, 3, 1.30589
303, 3, bw, filler, NA, 999, 999, 2, 20, 116, 61, 98, 74, 149, 92, 2, 0.532118
303, 3, bw, filler, NA, 999, 999, 2, 21, 93, 60, 141, 175, 71, 103, 2, 1.34872
303, 3, bw, filler, NA, 999, 999, 2, 21, 93, 60, 141, 175, 71, 103, 1, 0.525475
303, 3, bw, attraction, a-b-da, 14, 2, 2, 22, 165, 90, 90, 165, 153, 83, 1, 1.16597
303, 3, bw, attraction, a-b-da, 14, 2, 2, 22, 165, 90, 90, 165, 153, 83, 2, 0.406213
303, 3, bw, attraction, a-b-da, 14, 3, 2, 23, 195, 120, 181, 111, 120, 195, 3, 1.48403
303, 3, bw, attraction, a-b-da, 14, 3, 2, 23, 195, 120, 181, 111, 120, 195, 2, 0.375588
303, 3, bw, attraction, a-b-db, 5, 2, 2, 24, 90, 165, 165, 90, 88, 161, 1, 2.17404
303, 3, bw, attraction, a-b-db, 5, 2, 2, 24, 90, 165, 165, 90, 88, 161, 2, 0.581269
303, 3, bw, attraction, a-b-da, 5, 3, 2, 25, 120, 195, 195, 120, 190, 117, 3, 1.5717
303, 3, bw, attraction, a-b-da, 5, 3, 2, 25, 120, 195, 195, 120, 190, 117, 2, 0.563172
303, 3, bw, attraction, a-b-db, 5, 3, 2, 26, 120, 195, 117, 190, 195, 120, 2, 1.69031
303, 3, bw, attraction, a-b-db, 5, 3, 2, 26, 120, 195, 117, 190, 195, 120, 1, 0.493017
303, 3, bw, attraction, a-b-db, 9, 3, 2, 27, 114, 186, 120, 195, 195, 120, 3, 1.07884
303, 3, bw, attraction, a-b-db, 9, 3, 2, 27, 114, 186, 120, 195, 195, 120, 2, 0.450548
303, 3, bw, attraction, a-b-da, 9, 3, 2, 28, 186, 114, 120, 195, 195, 120, 2, 1.89435
303, 3, bw, attraction, a-b-da, 9, 3, 2, 28, 186, 114, 120, 195, 195, 120, 3, 0.465118
303, 3, bw, attraction, a-b-da, 2, 2, 2, 29, 165, 90, 90, 165, 163, 89, 1, 1.64412
303, 3, bw, attraction, a-b-da, 2, 2, 2, 29, 165, 90, 90, 165, 163, 89, 2, 0.640984
303, 3, bw, catch, NA, 999, 999, 2, 30, 142, 173, 69, 126, 155, 100, 1, 0.844697
303, 3, bw, catch, NA, 999, 999, 2, 30, 142, 173, 69, 126, 155, 100, 2, 0.497735
303, 3, bw, catch, NA, 999, 999, 2, 31, 164, 151, 133, 122, 105, 90, 1, 1.07546
303, 3, bw, catch, NA, 999, 999, 2, 31, 164, 151, 133, 122, 105, 90, 3, 0.999129
303, 3, bw, attraction, a-b-da, 2, 3, 2, 32, 195, 120, 120, 195, 193, 119, 1, 1.38077
303, 3, bw, attraction, a-b-da, 2, 3, 2, 32, 195, 120, 120, 195, 193, 119, 2, 0.500325
303, 3, bw, filler, NA, 999, 999, 2, 33, 105, 120, 167, 89, 96, 173, 3, 1.99011
303, 3, bw, filler, NA, 999, 999, 2, 33, 105, 120, 167, 89, 96, 173, 1, 0.652733
303, 3, bw, attraction, a-b-db, 2, 3, 2, 34, 195, 120, 119, 193, 120, 195, 2, 2.23251
303, 3, bw, attraction, a-b-db, 2, 3, 2, 34, 195, 120, 119, 193, 120, 195, 3, 0.853815
303, 3, bw, filler, NA, 999, 999, 2, 35, 185, 183, 137, 147, 167, 124, 1, 0.753416
303, 3, bw, filler, NA, 999, 999, 2, 35, 185, 183, 137, 147, 167, 124, 2, 0.682529
303, 3, bw, filler, NA, 999, 999, 2, 36, 159, 90, 184, 72, 68, 165, 1, 1.42096
303, 3, bw, filler, NA, 999, 999, 2, 36, 159, 90, 184, 72, 68, 165, 2, 0.826536
303, 3, bw, attraction, a-b-db, 5, 1, 2, 37, 60, 135, 135, 60, 58, 132, 1, 4.55882
303, 3, bw, attraction, a-b-db, 5, 1, 2, 37, 60, 135, 135, 60, 58, 132, 2, 0.446132
303, 3, bw, filler, NA, 999, 999, 3, 1, 155, 171, 103, 187, 188, 98, 1, 1.0338
303, 3, bw, filler, NA, 999, 999, 3, 1, 155, 171, 103, 187, 188, 98, 2, 0.38348
303, 3, bw, attraction, a-b-da, 5, 2, 3, 2, 161, 88, 165, 90, 90, 165, 1, 1.06999
303, 3, bw, attraction, a-b-da, 5, 2, 3, 2, 161, 88, 165, 90, 90, 165, 3, 0.914373
303, 3, bw, filler, NA, 999, 999, 3, 3, 74, 189, 91, 159, 99, 177, 3, 1.40335
303, 3, bw, filler, NA, 999, 999, 3, 3, 74, 189, 91, 159, 99, 177, 1, 0.386129
303, 3, bw, attraction, a-b-db, 2, 1, 3, 4, 59, 134, 135, 60, 60, 135, 1, 1.05656
303, 3, bw, attraction, a-b-db, 2, 1, 3, 4, 59, 134, 135, 60, 60, 135, 2, 0.381006
303, 3, bw, attraction, a-b-da, 2, 2, 3, 5, 163, 89, 165, 90, 90, 165, 1, 3.78741
303, 3, bw, attraction, a-b-da, 2, 2, 3, 5, 163, 89, 165, 90, 90, 165, 3, 0.466324
303, 3, bw, attraction, a-b-da, 2, 1, 3, 6, 135, 60, 60, 135, 134, 59, 1, 1.75745
303, 3, bw, attraction, a-b-da, 2, 1, 3, 6, 135, 60, 60, 135, 134, 59, 2, 0.525539
303, 3, bw, attraction, a-b-da, 14, 2, 3, 7, 153, 83, 90, 165, 165, 90, 3, 1.54999
303, 3, bw, attraction, a-b-da, 14, 2, 3, 7, 153, 83, 90, 165, 165, 90, 2, 0.390737
303, 3, bw, attraction, a-b-db, 14, 3, 3, 8, 120, 195, 195, 120, 111, 181, 1, 1.63649
303, 3, bw, attraction, a-b-db, 14, 3, 3, 8, 120, 195, 195, 120, 111, 181, 2, 0.370007
303, 3, bw, attraction, a-b-db, 9, 3, 3, 9, 120, 195, 195, 120, 114, 186, 1, 1.65715
303, 3, bw, attraction, a-b-db, 9, 3, 3, 9, 120, 195, 195, 120, 114, 186, 3, 0.309253
303, 3, bw, attraction, a-b-db, 9, 2, 3, 10, 90, 165, 165, 90, 86, 157, 1, 1.03842
303, 3, bw, attraction, a-b-db, 9, 2, 3, 10, 90, 165, 165, 90, 86, 157, 2, 0.651467
303, 3, bw, filler, NA, 999, 999, 3, 11, 130, 100, 57, 172, 148, 101, 3, 1.43126
303, 3, bw, filler, NA, 999, 999, 3, 11, 130, 100, 57, 172, 148, 101, 1, 2.0367
303, 3, bw, filler, NA, 999, 999, 3, 12, 83, 114, 191, 118, 67, 162, 2, 1.65665
303, 3, bw, filler, NA, 999, 999, 3, 12, 83, 114, 191, 118, 67, 162, 1, 0.796867
303, 3, bw, attraction, a-b-da, 9, 1, 3, 13, 60, 135, 135, 60, 129, 57, 1, 1.51446
303, 3, bw, attraction, a-b-da, 9, 1, 3, 13, 60, 135, 135, 60, 129, 57, 2, 0.372573
303, 3, bw, filler, NA, 999, 999, 3, 14, 161, 124, 77, 178, 154, 175, 3, 1.08389
303, 3, bw, filler, NA, 999, 999, 3, 14, 161, 124, 77, 178, 154, 175, 2, 1.27942
303, 3, bw, attraction, a-b-db, 2, 3, 3, 15, 195, 120, 120, 195, 119, 193, 2, 2.5857
303, 3, bw, attraction, a-b-db, 2, 3, 3, 15, 195, 120, 120, 195, 119, 193, 1, 0.432843
303, 3, bw, attraction, a-b-db, 2, 2, 3, 16, 165, 90, 90, 165, 89, 163, 1, 1.69334
303, 3, bw, attraction, a-b-db, 2, 2, 3, 16, 165, 90, 90, 165, 89, 163, 2, 0.368119
303, 3, bw, filler, NA, 999, 999, 3, 17, 174, 193, 167, 188, 187, 168, 1, 1.93533
303, 3, bw, filler, NA, 999, 999, 3, 17, 174, 193, 167, 188, 187, 168, 2, 0.912601
303, 3, bw, catch, NA, 999, 999, 3, 18, 85, 110, 110, 145, 172, 143, 3, 1.0977
303, 3, bw, catch, NA, 999, 999, 3, 18, 85, 110, 110, 145, 172, 143, 1, 0.468666
303, 3, bw, catch, NA, 999, 999, 3, 19, 93, 162, 93, 102, 179, 136, 3, 0.639788
303, 3, bw, catch, NA, 999, 999, 3, 19, 93, 162, 93, 102, 179, 136, 2, 1.0209
303, 3, bw, attraction, a-b-da, 5, 1, 3, 20, 135, 60, 60, 135, 132, 58, 3, 1.72169
303, 3, bw, attraction, a-b-da, 5, 1, 3, 20, 135, 60, 60, 135, 132, 58, 2, 1.29922
303, 3, bw, attraction, a-b-db, 14, 1, 3, 21, 135, 60, 60, 135, 56, 125, 2, 1.98878
303, 3, bw, attraction, a-b-db, 14, 1, 3, 21, 135, 60, 60, 135, 56, 125, 3, 0.459347
303, 3, bw, attraction, a-b-db, 5, 3, 3, 22, 195, 120, 120, 195, 117, 190, 2, 1.69446
303, 3, bw, attraction, a-b-db, 5, 3, 3, 22, 195, 120, 120, 195, 117, 190, 1, 1.7853
303, 3, bw, attraction, a-b-db, 5, 2, 3, 23, 88, 161, 90, 165, 165, 90, 1, 1.89544
303, 3, bw, attraction, a-b-db, 5, 2, 3, 23, 88, 161, 90, 165, 165, 90, 2, 0.466107
303, 3, bw, filler, NA, 999, 999, 3, 24, 81, 179, 113, 71, 63, 64, 1, 0.773316
303, 3, bw, filler, NA, 999, 999, 3, 24, 81, 179, 113, 71, 63, 64, 3, 0.893011
303, 3, bw, filler, NA, 999, 999, 3, 25, 154, 195, 58, 131, 92, 150, 1, 1.29458
303, 3, bw, filler, NA, 999, 999, 3, 25, 154, 195, 58, 131, 92, 150, 2, 0.481501
303, 3, bw, catch, NA, 999, 999, 3, 26, 122, 73, 133, 182, 153, 102, 2, 1.20399
303, 3, bw, catch, NA, 999, 999, 3, 26, 122, 73, 133, 182, 153, 102, 1, 0.378838
303, 3, bw, filler, NA, 999, 999, 3, 27, 184, 186, 134, 164, 115, 194, 1, 1.35332
303, 3, bw, filler, NA, 999, 999, 3, 27, 184, 186, 134, 164, 115, 194, 2, 0.338312
303, 3, bw, filler, NA, 999, 999, 3, 28, 79, 97, 73, 97, 187, 162, 3, 0.746725
303, 3, bw, filler, NA, 999, 999, 3, 28, 79, 97, 73, 97, 187, 162, 2, 0.68384
303, 3, bw, attraction, a-b-da, 14, 1, 3, 29, 60, 135, 135, 60, 125, 56, 1, 1.77431
303, 3, bw, attraction, a-b-da, 14, 1, 3, 29, 60, 135, 135, 60, 125, 56, 3, 0.365645
303, 3, bw, attraction, a-b-db, 14, 2, 3, 30, 83, 153, 165, 90, 90, 165, 3, 1.79692
303, 3, bw, attraction, a-b-db, 14, 2, 3, 30, 83, 153, 165, 90, 90, 165, 1, 0.779652
303, 3, bw, attraction, a-b-da, 5, 3, 3, 31, 195, 120, 190, 117, 120, 195, 3, 2.48998
303, 3, bw, attraction, a-b-da, 5, 3, 3, 31, 195, 120, 190, 117, 120, 195, 2, 0.316571
303, 3, bw, attraction, a-b-db, 9, 1, 3, 32, 135, 60, 57, 129, 60, 135, 2, 1.75762
303, 3, bw, attraction, a-b-db, 9, 1, 3, 32, 135, 60, 57, 129, 60, 135, 3, 0.501906
303, 3, bw, attraction, a-b-db, 5, 1, 3, 33, 60, 135, 135, 60, 58, 132, 1, 0.567456
303, 3, bw, attraction, a-b-db, 5, 1, 3, 33, 60, 135, 135, 60, 58, 132, 2, 0.48797
303, 3, bw, attraction, a-b-da, 2, 3, 3, 34, 193, 119, 120, 195, 195, 120, 2, 1.1144
303, 3, bw, attraction, a-b-da, 2, 3, 3, 34, 193, 119, 120, 195, 195, 120, 1, 0.64472
303, 3, bw, attraction, a-b-da, 9, 2, 3, 35, 157, 86, 90, 165, 165, 90, 2, 1.28847
303, 3, bw, attraction, a-b-da, 9, 2, 3, 35, 157, 86, 90, 165, 165, 90, 3, 0.811352
303, 3, bw, attraction, a-b-da, 9, 3, 3, 36, 195, 120, 120, 195, 186, 114, 2, 0.768406
303, 3, bw, attraction, a-b-da, 9, 3, 3, 36, 195, 120, 120, 195, 186, 114, 1, 0.408931
303, 3, bw, attraction, a-b-da, 14, 3, 3, 37, 120, 195, 195, 120, 181, 111, 1, 0.90994
303, 3, bw, attraction, a-b-da, 14, 3, 3, 37, 120, 195, 195, 120, 181, 111, 2, 0.328328
303, 3, bw, attraction, a-b-db, 2, 2, 4, 1, 89, 163, 90, 165, 165, 90, 2, 1.0168
303, 3, bw, attraction, a-b-db, 2, 2, 4, 1, 89, 163, 90, 165, 165, 90, 3, 0.751114
303, 3, bw, filler, NA, 999, 999, 4, 2, 109, 142, 111, 56, 194, 175, 3, 1.11082
303, 3, bw, filler, NA, 999, 999, 4, 2, 109, 142, 111, 56, 194, 175, 2, 0.28112
303, 3, bw, filler, NA, 999, 999, 4, 3, 168, 106, 82, 132, 111, 59, 1, 1.0757
303, 3, bw, filler, NA, 999, 999, 4, 3, 168, 106, 82, 132, 111, 59, 3, 0.407284
303, 3, bw, attraction, a-b-da, 14, 1, 4, 4, 60, 135, 125, 56, 135, 60, 3, 1.0684
303, 3, bw, attraction, a-b-da, 14, 1, 4, 4, 60, 135, 125, 56, 135, 60, 1, 0.456715
303, 3, bw, filler, NA, 999, 999, 4, 5, 128, 117, 98, 100, 112, 58, 1, 1.25979
303, 3, bw, filler, NA, 999, 999, 4, 5, 128, 117, 98, 100, 112, 58, 2, 0.49608
303, 3, bw, filler, NA, 999, 999, 4, 6, 89, 192, 69, 67, 194, 146, 3, 0.865871
303, 3, bw, filler, NA, 999, 999, 4, 6, 89, 192, 69, 67, 194, 146, 2, 0.550214
303, 3, bw, attraction, a-b-da, 5, 1, 4, 7, 60, 135, 132, 58, 135, 60, 1, 0.894003
303, 3, bw, attraction, a-b-da, 5, 1, 4, 7, 60, 135, 132, 58, 135, 60, 2, 0.537
303, 3, bw, attraction, a-b-da, 2, 1, 4, 8, 135, 60, 134, 59, 60, 135, 1, 0.617562
303, 3, bw, attraction, a-b-da, 2, 1, 4, 8, 135, 60, 134, 59, 60, 135, 2, 0.599918
303, 3, bw, attraction, a-b-da, 9, 2, 4, 9, 165, 90, 90, 165, 157, 86, 2, 1.42963
303, 3, bw, attraction, a-b-da, 9, 2, 4, 9, 165, 90, 90, 165, 157, 86, 1, 0.331276
303, 3, bw, attraction, a-b-db, 2, 3, 4, 10, 119, 193, 120, 195, 195, 120, 1, 2.21181
303, 3, bw, attraction, a-b-db, 2, 3, 4, 10, 119, 193, 120, 195, 195, 120, 2, 0.337686
303, 3, bw, attraction, a-b-da, 5, 3, 4, 11, 190, 117, 195, 120, 120, 195, 1, 0.81834
303, 3, bw, attraction, a-b-da, 5, 3, 4, 11, 190, 117, 195, 120, 120, 195, 2, 0.560591
303, 3, bw, filler, NA, 999, 999, 4, 12, 159, 105, 122, 159, 137, 106, 2, 1.22378
303, 3, bw, filler, NA, 999, 999, 4, 12, 159, 105, 122, 159, 137, 106, 3, 0.461239
303, 3, bw, filler, NA, 999, 999, 4, 13, 189, 110, 157, 77, 168, 91, 1, 1.80841
303, 3, bw, filler, NA, 999, 999, 4, 13, 189, 110, 157, 77, 168, 91, 2, 0.438574
303, 3, bw, filler, NA, 999, 999, 4, 14, 94, 125, 90, 133, 144, 57, 2, 1.27498
303, 3, bw, filler, NA, 999, 999, 4, 14, 94, 125, 90, 133, 144, 57, 3, 0.566438
303, 3, bw, attraction, a-b-db, 14, 2, 4, 15, 165, 90, 83, 153, 90, 165, 2, 1.78961
303, 3, bw, attraction, a-b-db, 14, 2, 4, 15, 165, 90, 83, 153, 90, 165, 1, 0.324415
303, 3, bw, attraction, a-b-db, 5, 1, 4, 16, 135, 60, 58, 132, 60, 135, 2, 1.70895
303, 3, bw, attraction, a-b-db, 5, 1, 4, 16, 135, 60, 58, 132, 60, 135, 1, 0.391036
303, 3, bw, attraction, a-b-db, 2, 1, 4, 17, 60, 135, 59, 134, 135, 60, 1, 1.34086
303, 3, bw, attraction, a-b-db, 2, 1, 4, 17, 60, 135, 59, 134, 135, 60, 3, 0.981601
303, 3, bw, attraction, a-b-db, 5, 2, 4, 18, 88, 161, 90, 165, 165, 90, 1, 5.90001
303, 3, bw, attraction, a-b-db, 5, 2, 4, 18, 88, 161, 90, 165, 165, 90, 2, 1.41339
303, 3, bw, filler, NA, 999, 999, 4, 19, 176, 61, 114, 66, 59, 192, 1, 1.62625
303, 3, bw, filler, NA, 999, 999, 4, 19, 176, 61, 114, 66, 59, 192, 2, 0.487713
303, 3, bw, attraction, a-b-db, 14, 3, 4, 20, 195, 120, 120, 195, 111, 181, 1, 3.04221
303, 3, bw, attraction, a-b-db, 14, 3, 4, 20, 195, 120, 120, 195, 111, 181, 2, 0.534516
303, 3, bw, filler, NA, 999, 999, 4, 21, 101, 187, 152, 172, 130, 72, 2, 1.02301
303, 3, bw, filler, NA, 999, 999, 4, 21, 101, 187, 152, 172, 130, 72, 3, 1.05263
303, 3, bw, attraction, a-b-db, 9, 3, 4, 22, 114, 186, 120, 195, 195, 120, 2, 2.2242
303, 3, bw, attraction, a-b-db, 9, 3, 4, 22, 114, 186, 120, 195, 195, 120, 1, 1.67754
303, 3, bw, attraction, a-b-da, 2, 2, 4, 23, 165, 90, 90, 165, 163, 89, 1, 1.3675
303, 3, bw, attraction, a-b-da, 2, 2, 4, 23, 165, 90, 90, 165, 163, 89, 2, 0.351732
303, 3, bw, attraction, a-b-da, 5, 2, 4, 24, 161, 88, 90, 165, 165, 90, 3, 1.75175
303, 3, bw, attraction, a-b-da, 5, 2, 4, 24, 161, 88, 90, 165, 165, 90, 2, 0.296492
303, 3, bw, attraction, a-b-da, 2, 3, 4, 25, 195, 120, 193, 119, 120, 195, 2, 1.17032
303, 3, bw, attraction, a-b-da, 2, 3, 4, 25, 195, 120, 193, 119, 120, 195, 3, 0.338526
303, 3, bw, attraction, a-b-db, 14, 1, 4, 26, 60, 135, 56, 125, 135, 60, 1, 1.13902
303, 3, bw, attraction, a-b-db, 14, 1, 4, 26, 60, 135, 56, 125, 135, 60, 3, 0.404023
303, 3, bw, catch, NA, 999, 999, 4, 27, 136, 179, 82, 113, 113, 142, 1, 0.921778
303, 3, bw, catch, NA, 999, 999, 4, 27, 136, 179, 82, 113, 113, 142, 2, 0.315442
303, 3, bw, catch, NA, 999, 999, 4, 28, 123, 72, 145, 170, 98, 157, 2, 1.14067
303, 3, bw, catch, NA, 999, 999, 4, 28, 123, 72, 145, 170, 98, 157, 1, 0.637716
303, 3, bw, attraction, a-b-da, 9, 1, 4, 29, 60, 135, 129, 57, 135, 60, 1, 0.898021
303, 3, bw, attraction, a-b-da, 9, 1, 4, 29, 60, 135, 129, 57, 135, 60, 2, 0.325066
303, 3, bw, attraction, a-b-db, 9, 2, 4, 30, 90, 165, 86, 157, 165, 90, 2, 1.94951
303, 3, bw, attraction, a-b-db, 9, 2, 4, 30, 90, 165, 86, 157, 165, 90, 3, 0.294288
303, 3, bw, attraction, a-b-da, 14, 2, 4, 31, 153, 83, 165, 90, 90, 165, 1, 0.712083
303, 3, bw, attraction, a-b-da, 14, 2, 4, 31, 153, 83, 165, 90, 90, 165, 2, 0.298506
303, 3, bw, attraction, a-b-da, 14, 3, 4, 32, 120, 195, 181, 111, 195, 120, 1, 0.772357
303, 3, bw, attraction, a-b-da, 14, 3, 4, 32, 120, 195, 181, 111, 195, 120, 2, 0.260116
303, 3, bw, attraction, a-b-db, 5, 3, 4, 33, 120, 195, 195, 120, 117, 190, 3, 0.967371
303, 3, bw, attraction, a-b-db, 5, 3, 4, 33, 120, 195, 195, 120, 117, 190, 2, 0.303641
303, 3, bw, attraction, a-b-da, 9, 3, 4, 34, 195, 120, 120, 195, 186, 114, 1, 0.913475
303, 3, bw, attraction, a-b-da, 9, 3, 4, 34, 195, 120, 120, 195, 186, 114, 2, 0.283848
303, 3, bw, catch, NA, 999, 999, 4, 35, 168, 147, 85, 110, 116, 139, 1, 0.694512
303, 3, bw, catch, NA, 999, 999, 4, 35, 168, 147, 85, 110, 116, 139, 2, 0.281396
303, 3, bw, filler, NA, 999, 999, 4, 36, 112, 111, 176, 89, 166, 173, 3, 0.75597
303, 3, bw, filler, NA, 999, 999, 4, 36, 112, 111, 176, 89, 166, 173, 1, 1.0363
303, 3, bw, attraction, a-b-db, 9, 1, 4, 37, 135, 60, 57, 129, 60, 135, 3, 2.20867
303, 3, bw, attraction, a-b-db, 9, 1, 4, 37, 135, 60, 57, 129, 60, 135, 1, 0.310926
303, 3, bw, catch, NA, 999, 999, 5, 1, 127, 188, 111, 84, 146, 109, 1, 6.06253
303, 3, bw, catch, NA, 999, 999, 5, 1, 127, 188, 111, 84, 146, 109, 2, 0.313256
303, 3, bw, attraction, a-b-db, 5, 3, 5, 2, 117, 190, 195, 120, 120, 195, 1, 2.06632
303, 3, bw, attraction, a-b-db, 5, 3, 5, 2, 117, 190, 195, 120, 120, 195, 3, 0.366401
303, 3, bw, catch, NA, 999, 999, 5, 3, 145, 110, 152, 163, 94, 101, 2, 0.981492
303, 3, bw, catch, NA, 999, 999, 5, 3, 145, 110, 152, 163, 94, 101, 3, 0.453169
303, 3, bw, attraction, a-b-db, 9, 3, 5, 4, 195, 120, 120, 195, 114, 186, 2, 1.48115
303, 3, bw, attraction, a-b-db, 9, 3, 5, 4, 195, 120, 120, 195, 114, 186, 1, 0.54044
303, 3, bw, filler, NA, 999, 999, 5, 5, 108, 72, 94, 105, 180, 125, 3, 0.588215
303, 3, bw, filler, NA, 999, 999, 5, 5, 108, 72, 94, 105, 180, 125, 2, 0.81136
303, 3, bw, filler, NA, 999, 999, 5, 6, 132, 163, 127, 150, 180, 71, 1, 0.84836
303, 3, bw, filler, NA, 999, 999, 5, 6, 132, 163, 127, 150, 180, 71, 3, 0.717524
303, 3, bw, attraction, a-b-da, 5, 2, 5, 7, 90, 165, 161, 88, 165, 90, 1, 1.35844
303, 3, bw, attraction, a-b-da, 5, 2, 5, 7, 90, 165, 161, 88, 165, 90, 2, 0.446721
303, 3, bw, filler, NA, 999, 999, 5, 8, 66, 99, 61, 103, 68, 157, 3, 1.21053
303, 3, bw, filler, NA, 999, 999, 5, 8, 66, 99, 61, 103, 68, 157, 2, 0.792772
303, 3, bw, attraction, a-b-db, 14, 2, 5, 9, 90, 165, 83, 153, 165, 90, 1, 0.750536
303, 3, bw, attraction, a-b-db, 14, 2, 5, 9, 90, 165, 83, 153, 165, 90, 2, 1.2715
303, 3, bw, attraction, a-b-da, 14, 1, 5, 10, 135, 60, 125, 56, 60, 135, 1, 0.714332
303, 3, bw, attraction, a-b-da, 14, 1, 5, 10, 135, 60, 125, 56, 60, 135, 2, 0.636803
303, 3, bw, filler, NA, 999, 999, 5, 11, 187, 183, 142, 156, 71, 72, 1, 0.489134
303, 3, bw, filler, NA, 999, 999, 5, 11, 187, 183, 142, 156, 71, 72, 3, 0.484329
303, 3, bw, attraction, a-b-db, 9, 1, 5, 12, 57, 129, 135, 60, 60, 135, 3, 0.854854
303, 3, bw, attraction, a-b-db, 9, 1, 5, 12, 57, 129, 135, 60, 60, 135, 1, 0.51513
303, 3, bw, filler, NA, 999, 999, 5, 13, 85, 106, 170, 117, 57, 182, 2, 1.34027
303, 3, bw, filler, NA, 999, 999, 5, 13, 85, 106, 170, 117, 57, 182, 1, 0.525167
303, 3, bw, attraction, a-b-da, 14, 3, 5, 14, 195, 120, 120, 195, 181, 111, 1, 0.957607
303, 3, bw, attraction, a-b-da, 14, 3, 5, 14, 195, 120, 120, 195, 181, 111, 2, 0.398007
303, 3, bw, filler, NA, 999, 999, 5, 15, 108, 154, 91, 95, 177, 110, 1, 1.4838
303, 3, bw, filler, NA, 999, 999, 5, 15, 108, 154, 91, 95, 177, 110, 2, 0.663315
303, 3, bw, attraction, a-b-da, 2, 1, 5, 16, 134, 59, 135, 60, 60, 135, 1, 0.722373
303, 3, bw, attraction, a-b-da, 2, 1, 5, 16, 134, 59, 135, 60, 60, 135, 2, 0.540179
303, 3, bw, attraction, a-b-da, 5, 1, 5, 17, 60, 135, 132, 58, 135, 60, 1, 2.29981
303, 3, bw, attraction, a-b-da, 5, 1, 5, 17, 60, 135, 132, 58, 135, 60, 2, 0.64646
303, 3, bw, filler, NA, 999, 999, 5, 18, 73, 78, 81, 124, 94, 89, 2, 0.858191
303, 3, bw, filler, NA, 999, 999, 5, 18, 73, 78, 81, 124, 94, 89, 1, 0.302568
303, 3, bw, filler, NA, 999, 999, 5, 19, 147, 129, 164, 59, 101, 135, 1, 0.672518
303, 3, bw, filler, NA, 999, 999, 5, 19, 147, 129, 164, 59, 101, 135, 3, 1.16441
303, 3, bw, attraction, a-b-da, 9, 2, 5, 20, 90, 165, 157, 86, 165, 90, 1, 0.747158
303, 3, bw, attraction, a-b-da, 9, 2, 5, 20, 90, 165, 157, 86, 165, 90, 2, 1.46813
303, 3, bw, attraction, a-b-db, 2, 2, 5, 21, 165, 90, 89, 163, 90, 165, 1, 0.878978
303, 3, bw, attraction, a-b-db, 2, 2, 5, 21, 165, 90, 89, 163, 90, 165, 2, 0.33871
303, 3, bw, attraction, a-b-db, 2, 1, 5, 22, 59, 134, 135, 60, 60, 135, 1, 1.25922
303, 3, bw, attraction, a-b-db, 2, 1, 5, 22, 59, 134, 135, 60, 60, 135, 2, 0.399487
303, 3, bw, attraction, a-b-da, 9, 3, 5, 23, 120, 195, 186, 114, 195, 120, 3, 1.85321
303, 3, bw, attraction, a-b-da, 9, 3, 5, 23, 120, 195, 186, 114, 195, 120, 2, 0.321948
303, 3, bw, attraction, a-b-db, 9, 2, 5, 24, 86, 157, 90, 165, 165, 90, 1, 1.21915
303, 3, bw, attraction, a-b-db, 9, 2, 5, 24, 86, 157, 90, 165, 165, 90, 2, 0.273441
303, 3, bw, attraction, a-b-da, 9, 1, 5, 25, 135, 60, 60, 135, 129, 57, 1, 0.651906
303, 3, bw, attraction, a-b-da, 9, 1, 5, 25, 135, 60, 60, 135, 129, 57, 2, 0.368999
303, 3, bw, attraction, a-b-da, 2, 2, 5, 26, 163, 89, 165, 90, 90, 165, 3, 0.632172
303, 3, bw, attraction, a-b-da, 2, 2, 5, 26, 163, 89, 165, 90, 90, 165, 1, 0.323402
303, 3, bw, attraction, a-b-da, 14, 2, 5, 27, 153, 83, 90, 165, 165, 90, 2, 1.6705
303, 3, bw, attraction, a-b-da, 14, 2, 5, 27, 153, 83, 90, 165, 165, 90, 1, 0.306735
303, 3, bw, filler, NA, 999, 999, 5, 28, 194, 169, 62, 127, 111, 135, 1, 0.787733
303, 3, bw, filler, NA, 999, 999, 5, 28, 194, 169, 62, 127, 111, 135, 3, 0.299575
303, 3, bw, catch, NA, 999, 999, 5, 29, 115, 140, 152, 163, 88, 107, 2, 1.25343
303, 3, bw, catch, NA, 999, 999, 5, 29, 115, 140, 152, 163, 88, 107, 3, 0.314338
303, 3, bw, attraction, a-b-db, 14, 3, 5, 30, 195, 120, 111, 181, 120, 195, 1, 0.843471
303, 3, bw, attraction, a-b-db, 14, 3, 5, 30, 195, 120, 111, 181, 120, 195, 2, 0.280628
303, 3, bw, attraction, a-b-da, 5, 3, 5, 31, 120, 195, 195, 120, 190, 117, 3, 0.843128
303, 3, bw, attraction, a-b-da, 5, 3, 5, 31, 120, 195, 195, 120, 190, 117, 2, 0.536194
303, 3, bw, attraction, a-b-db, 5, 2, 5, 32, 90, 165, 88, 161, 165, 90, 1, 1.20855
303, 3, bw, attraction, a-b-db, 5, 2, 5, 32, 90, 165, 88, 161, 165, 90, 3, 0.638786
303, 3, bw, filler, NA, 999, 999, 5, 33, 162, 75, 175, 94, 186, 176, 3, 1.25922
303, 3, bw, filler, NA, 999, 999, 5, 33, 162, 75, 175, 94, 186, 176, 2, 0.25539
303, 3, bw, attraction, a-b-db, 2, 3, 5, 34, 195, 120, 120, 195, 119, 193, 2, 1.97929
303, 3, bw, attraction, a-b-db, 2, 3, 5, 34, 195, 120, 120, 195, 119, 193, 3, 0.325665
303, 3, bw, attraction, a-b-da, 2, 3, 5, 35, 195, 120, 120, 195, 193, 119, 2, 1.38722
303, 3, bw, attraction, a-b-da, 2, 3, 5, 35, 195, 120, 120, 195, 193, 119, 1, 0.234698
303, 3, bw, attraction, a-b-db, 14, 1, 5, 36, 60, 135, 135, 60, 56, 125, 3, 1.8473
303, 3, bw, attraction, a-b-db, 14, 1, 5, 36, 60, 135, 135, 60, 56, 125, 2, 0.556031
303, 3, bw, attraction, a-b-db, 5, 1, 5, 37, 60, 135, 135, 60, 58, 132, 1, 0.67581
303, 3, bw, attraction, a-b-db, 5, 1, 5, 37, 60, 135, 135, 60, 58, 132, 2, 0.287413
303, 3, bw, filler, NA, 999, 999, 6, 1, 131, 168, 147, 177, 81, 110, 2, 1.314
303, 3, bw, filler, NA, 999, 999, 6, 1, 131, 168, 147, 177, 81, 110, 3, 0.44427
303, 3, bw, attraction, a-b-db, 14, 2, 6, 2, 165, 90, 90, 165, 83, 153, 2, 1.07204
303, 3, bw, attraction, a-b-db, 14, 2, 6, 2, 165, 90, 90, 165, 83, 153, 3, 0.931715
303, 3, bw, attraction, a-b-da, 5, 2, 6, 3, 165, 90, 161, 88, 90, 165, 1, 0.859961
303, 3, bw, attraction, a-b-da, 5, 2, 6, 3, 165, 90, 161, 88, 90, 165, 2, 0.368377
303, 3, bw, attraction, a-b-db, 9, 3, 6, 4, 120, 195, 114, 186, 195, 120, 3, 0.759517
303, 3, bw, attraction, a-b-db, 9, 3, 6, 4, 120, 195, 114, 186, 195, 120, 2, 0.711886
303, 3, bw, filler, NA, 999, 999, 6, 5, 158, 154, 150, 118, 185, 60, 1, 1.38489
303, 3, bw, filler, NA, 999, 999, 6, 5, 158, 154, 150, 118, 185, 60, 2, 0.384461
303, 3, bw, attraction, a-b-da, 2, 1, 6, 6, 135, 60, 60, 135, 134, 59, 2, 0.990951
303, 3, bw, attraction, a-b-da, 2, 1, 6, 6, 135, 60, 60, 135, 134, 59, 1, 0.598091
303, 3, bw, filler, NA, 999, 999, 6, 7, 93, 129, 173, 157, 131, 75, 2, 1.05172
303, 3, bw, filler, NA, 999, 999, 6, 7, 93, 129, 173, 157, 131, 75, 1, 0.352717
303, 3, bw, attraction, a-b-da, 14, 2, 6, 8, 165, 90, 153, 83, 90, 165, 3, 2.18462
303, 3, bw, attraction, a-b-da, 14, 2, 6, 8, 165, 90, 153, 83, 90, 165, 2, 0.607881
303, 3, bw, catch, NA, 999, 999, 6, 9, 116, 139, 91, 104, 138, 177, 3, 1.30896
303, 3, bw, catch, NA, 999, 999, 6, 9, 116, 139, 91, 104, 138, 177, 1, 0.327156
303, 3, bw, filler, NA, 999, 999, 6, 10, 153, 136, 128, 65, 63, 91, 1, 1.55964
303, 3, bw, filler, NA, 999, 999, 6, 10, 153, 136, 128, 65, 63, 91, 3, 0.439917
303, 3, bw, filler, NA, 999, 999, 6, 11, 133, 147, 156, 107, 121, 191, 3, 4.28368
303, 3, bw, filler, NA, 999, 999, 6, 11, 133, 147, 156, 107, 121, 191, 2, 0.58221
303, 3, bw, filler, NA, 999, 999, 6, 12, 99, 148, 91, 149, 194, 127, 3, 1.39661
303, 3, bw, filler, NA, 999, 999, 6, 12, 99, 148, 91, 149, 194, 127, 2, 0.403578
303, 3, bw, catch, NA, 999, 999, 6, 13, 164, 151, 92, 163, 130, 65, 1, 1.0574
303, 3, bw, catch, NA, 999, 999, 6, 13, 164, 151, 92, 163, 130, 65, 3, 0.477752
303, 3, bw, filler, NA, 999, 999, 6, 14, 103, 70, 169, 75, 70, 62, 2, 1.74424
303, 3, bw, filler, NA, 999, 999, 6, 14, 103, 70, 169, 75, 70, 62, 3, 0.35291
303, 3, bw, filler, NA, 999, 999, 6, 15, 153, 133, 101, 162, 117, 169, 3, 2.60074
303, 3, bw, filler, NA, 999, 999, 6, 15, 153, 133, 101, 162, 117, 169, 2, 0.263272
303, 3, bw, attraction, a-b-db, 9, 1, 6, 16, 57, 129, 135, 60, 60, 135, 2, 1.51447
303, 3, bw, attraction, a-b-db, 9, 1, 6, 16, 57, 129, 135, 60, 60, 135, 1, 0.516607
303, 3, bw, attraction, a-b-da, 9, 3, 6, 17, 120, 195, 186, 114, 195, 120, 1, 1.26165
303, 3, bw, attraction, a-b-da, 9, 3, 6, 17, 120, 195, 186, 114, 195, 120, 2, 0.673985
303, 3, bw, catch, NA, 999, 999, 6, 18, 128, 127, 178, 137, 132, 63, 2, 1.02835
303, 3, bw, catch, NA, 999, 999, 6, 18, 128, 127, 178, 137, 132, 63, 1, 0.610028
303, 3, bw, attraction, a-b-db, 2, 3, 6, 19, 119, 193, 120, 195, 195, 120, 2, 0.8632
303, 3, bw, attraction, a-b-db, 2, 3, 6, 19, 119, 193, 120, 195, 195, 120, 1, 0.531496
303, 3, bw, attraction, a-b-db, 5, 2, 6, 20, 165, 90, 88, 161, 90, 165, 2, 1.50791
303, 3, bw, attraction, a-b-db, 5, 2, 6, 20, 165, 90, 88, 161, 90, 165, 1, 0.430079
303, 3, bw, filler, NA, 999, 999, 6, 21, 71, 194, 185, 111, 118, 163, 2, 0.74653
303, 3, bw, filler, NA, 999, 999, 6, 21, 71, 194, 185, 111, 118, 163, 3, 0.523668
303, 3, bw, attraction, a-b-db, 14, 1, 6, 22, 56, 125, 135, 60, 60, 135, 1, 0.644068
303, 3, bw, attraction, a-b-db, 14, 1, 6, 22, 56, 125, 135, 60, 60, 135, 2, 0.337172
303, 3, bw, attraction, a-b-db, 5, 1, 6, 23, 60, 135, 135, 60, 58, 132, 1, 0.833669
303, 3, bw, attraction, a-b-db, 5, 1, 6, 23, 60, 135, 135, 60, 58, 132, 2, 0.983444
303, 3, bw, attraction, a-b-da, 5, 3, 6, 24, 190, 117, 195, 120, 120, 195, 1, 0.645802
303, 3, bw, attraction, a-b-da, 5, 3, 6, 24, 190, 117, 195, 120, 120, 195, 3, 0.322798
303, 3, bw, attraction, a-b-da, 14, 3, 6, 25, 120, 195, 195, 120, 181, 111, 1, 1.05192
303, 3, bw, attraction, a-b-da, 14, 3, 6, 25, 120, 195, 195, 120, 181, 111, 2, 0.536922
303, 3, bw, filler, NA, 999, 999, 6, 26, 181, 127, 60, 140, 167, 164, 1, 0.705362
303, 3, bw, filler, NA, 999, 999, 6, 26, 181, 127, 60, 140, 167, 164, 2, 0.379739
303, 3, bw, attraction, a-b-da, 2, 2, 6, 27, 163, 89, 165, 90, 90, 165, 2, 1.16229
303, 3, bw, attraction, a-b-da, 2, 2, 6, 27, 163, 89, 165, 90, 90, 165, 1, 0.314697
303, 3, bw, attraction, a-b-da, 5, 1, 6, 28, 135, 60, 60, 135, 132, 58, 2, 0.907767
303, 3, bw, attraction, a-b-da, 5, 1, 6, 28, 135, 60, 60, 135, 132, 58, 1, 0.486138
303, 3, bw, attraction, a-b-da, 14, 1, 6, 29, 135, 60, 60, 135, 125, 56, 2, 0.616572
303, 3, bw, attraction, a-b-da, 14, 1, 6, 29, 135, 60, 60, 135, 125, 56, 1, 0.463052
303, 3, bw, attraction, a-b-da, 9, 2, 6, 30, 165, 90, 90, 165, 157, 86, 1, 0.466086
303, 3, bw, attraction, a-b-da, 9, 2, 6, 30, 165, 90, 90, 165, 157, 86, 2, 0.334599
303, 3, bw, attraction, a-b-db, 9, 2, 6, 31, 90, 165, 165, 90, 86, 157, 1, 0.439092
303, 3, bw, attraction, a-b-db, 9, 2, 6, 31, 90, 165, 165, 90, 86, 157, 2, 0.748281
303, 3, bw, attraction, a-b-da, 2, 3, 6, 32, 120, 195, 195, 120, 193, 119, 1, 0.451966
303, 3, bw, attraction, a-b-da, 2, 3, 6, 32, 120, 195, 195, 120, 193, 119, 2, 0.377279
303, 3, bw, attraction, a-b-db, 2, 1, 6, 33, 59, 134, 135, 60, 60, 135, 1, 0.687662
303, 3, bw, attraction, a-b-db, 2, 1, 6, 33, 59, 134, 135, 60, 60, 135, 2, 0.690778
303, 3, bw, attraction, a-b-db, 14, 3, 6, 34, 195, 120, 111, 181, 120, 195, 3, 0.572495
303, 3, bw, attraction, a-b-db, 14, 3, 6, 34, 195, 120, 111, 181, 120, 195, 2, 0.540282
303, 3, bw, attraction, a-b-da, 9, 1, 6, 35, 60, 135, 135, 60, 129, 57, 1, 0.684021
303, 3, bw, attraction, a-b-da, 9, 1, 6, 35, 60, 135, 135, 60, 129, 57, 2, 0.51186
303, 3, bw, attraction, a-b-db, 5, 3, 6, 36, 117, 190, 120, 195, 195, 120, 1, 0.784929
303, 3, bw, attraction, a-b-db, 5, 3, 6, 36, 117, 190, 120, 195, 195, 120, 2, 0.352731
303, 3, bw, attraction, a-b-db, 2, 2, 6, 37, 165, 90, 90, 165, 89, 163, 3, 0.624579
303, 3, bw, attraction, a-b-db, 2, 2, 6, 37, 165, 90, 90, 165, 89, 163, 2, 0.414421
303, 3, bw, filler, NA, 999, 999, 7, 1, 180, 85, 191, 183, 91, 73, 2, 1.18742
303, 3, bw, filler, NA, 999, 999, 7, 1, 180, 85, 191, 183, 91, 73, 3, 0.706995
303, 3, bw, filler, NA, 999, 999, 7, 2, 103, 192, 57, 131, 171, 75, 1, 0.715991
303, 3, bw, filler, NA, 999, 999, 7, 2, 103, 192, 57, 131, 171, 75, 2, 0.37444
303, 3, bw, filler, NA, 999, 999, 7, 3, 90, 170, 181, 140, 64, 153, 2, 1.085
303, 3, bw, filler, NA, 999, 999, 7, 3, 90, 170, 181, 140, 64, 153, 3, 0.472677
303, 3, bw, attraction, a-b-db, 5, 2, 7, 4, 88, 161, 90, 165, 165, 90, 1, 1.0677
303, 3, bw, attraction, a-b-db, 5, 2, 7, 4, 88, 161, 90, 165, 165, 90, 2, 0.327968
303, 3, bw, filler, NA, 999, 999, 7, 5, 183, 186, 128, 185, 62, 65, 1, 1.06442
303, 3, bw, filler, NA, 999, 999, 7, 5, 183, 186, 128, 185, 62, 65, 2, 0.276821
303, 3, bw, attraction, a-b-db, 5, 3, 7, 6, 120, 195, 117, 190, 195, 120, 1, 1.37535
303, 3, bw, attraction, a-b-db, 5, 3, 7, 6, 120, 195, 117, 190, 195, 120, 2, 0.39087
303, 3, bw, attraction, a-b-db, 14, 1, 7, 7, 135, 60, 56, 125, 60, 135, 2, 1.70076
303, 3, bw, attraction, a-b-db, 14, 1, 7, 7, 135, 60, 56, 125, 60, 135, 1, 0.271595
303, 3, bw, attraction, a-b-db, 14, 3, 7, 8, 195, 120, 111, 181, 120, 195, 3, 1.40271
303, 3, bw, attraction, a-b-db, 14, 3, 7, 8, 195, 120, 111, 181, 120, 195, 2, 0.305585
303, 3, bw, catch, NA, 999, 999, 7, 9, 146, 169, 79, 116, 163, 92, 1, 0.4514
303, 3, bw, catch, NA, 999, 999, 7, 9, 146, 169, 79, 116, 163, 92, 2, 0.400647
303, 3, bw, catch, NA, 999, 999, 7, 10, 102, 153, 135, 60, 144, 171, 1, 0.566507
303, 3, bw, catch, NA, 999, 999, 7, 10, 102, 153, 135, 60, 144, 171, 2, 0.382869
303, 3, bw, attraction, a-b-da, 9, 1, 7, 11, 135, 60, 129, 57, 60, 135, 1, 0.477348
303, 3, bw, attraction, a-b-da, 9, 1, 7, 11, 135, 60, 129, 57, 60, 135, 2, 0.353122
303, 3, bw, attraction, a-b-db, 14, 2, 7, 12, 165, 90, 90, 165, 83, 153, 2, 1.51301
303, 3, bw, attraction, a-b-db, 14, 2, 7, 12, 165, 90, 90, 165, 83, 153, 3, 0.291257
303, 3, bw, filler, NA, 999, 999, 7, 13, 73, 173, 58, 186, 153, 76, 1, 0.949053
303, 3, bw, filler, NA, 999, 999, 7, 13, 73, 173, 58, 186, 153, 76, 2, 0.366017
303, 3, bw, catch, NA, 999, 999, 7, 14, 134, 121, 69, 126, 144, 171, 1, 0.677292
303, 3, bw, catch, NA, 999, 999, 7, 14, 134, 121, 69, 126, 144, 171, 2, 0.648997
303, 3, bw, filler, NA, 999, 999, 7, 15, 193, 61, 80, 71, 82, 106, 3, 1.60474
303, 3, bw, filler, NA, 999, 999, 7, 15, 193, 61, 80, 71, 82, 106, 2, 2.20283
303, 3, bw, attraction, a-b-db, 2, 3, 7, 16, 120, 195, 119, 193, 195, 120, 2, 1.38409
303, 3, bw, attraction, a-b-db, 2, 3, 7, 16, 120, 195, 119, 193, 195, 120, 1, 0.663676
303, 3, bw, attraction, a-b-da, 9, 2, 7, 17, 90, 165, 165, 90, 157, 86, 1, 1.19469
303, 3, bw, attraction, a-b-da, 9, 2, 7, 17, 90, 165, 165, 90, 157, 86, 2, 1.02562
303, 3, bw, attraction, a-b-da, 14, 2, 7, 18, 90, 165, 153, 83, 165, 90, 3, 1.50988
303, 3, bw, attraction, a-b-da, 14, 2, 7, 18, 90, 165, 153, 83, 165, 90, 2, 0.40004
303, 3, bw, attraction, a-b-da, 5, 2, 7, 19, 161, 88, 90, 165, 165, 90, 2, 1.8219
303, 3, bw, attraction, a-b-da, 5, 2, 7, 19, 161, 88, 90, 165, 165, 90, 1, 0.963364
303, 3, bw, attraction, a-b-da, 14, 3, 7, 20, 181, 111, 120, 195, 195, 120, 2, 0.722183
303, 3, bw, attraction, a-b-da, 14, 3, 7, 20, 181, 111, 120, 195, 195, 120, 3, 0.539995
303, 3, bw, filler, NA, 999, 999, 7, 21, 163, 58, 86, 141, 191, 159, 3, 0.923727
303, 3, bw, filler, NA, 999, 999, 7, 21, 163, 58, 86, 141, 191, 159, 2, 0.693687
303, 3, bw, filler, NA, 999, 999, 7, 22, 128, 95, 162, 171, 93, 69, 2, 0.791267
303, 3, bw, filler, NA, 999, 999, 7, 22, 128, 95, 162, 171, 93, 69, 3, 0.518265
303, 3, bw, attraction, a-b-db, 5, 1, 7, 23, 60, 135, 58, 132, 135, 60, 1, 1.37534
303, 3, bw, attraction, a-b-db, 5, 1, 7, 23, 60, 135, 58, 132, 135, 60, 2, 0.566954
303, 3, bw, attraction, a-b-db, 2, 2, 7, 24, 89, 163, 165, 90, 90, 165, 1, 1.27805
303, 3, bw, attraction, a-b-db, 2, 2, 7, 24, 89, 163, 165, 90, 90, 165, 2, 0.449627
303, 3, bw, attraction, a-b-da, 14, 1, 7, 25, 135, 60, 60, 135, 125, 56, 2, 0.773267
303, 3, bw, attraction, a-b-da, 14, 1, 7, 25, 135, 60, 60, 135, 125, 56, 1, 0.669167
303, 3, bw, attraction, a-b-db, 9, 1, 7, 26, 60, 135, 57, 129, 135, 60, 3, 0.888283
303, 3, bw, attraction, a-b-db, 9, 1, 7, 26, 60, 135, 57, 129, 135, 60, 2, 0.563175
303, 3, bw, attraction, a-b-da, 5, 3, 7, 27, 190, 117, 195, 120, 120, 195, 1, 0.522264
303, 3, bw, attraction, a-b-da, 5, 3, 7, 27, 190, 117, 195, 120, 120, 195, 2, 0.540186
303, 3, bw, attraction, a-b-da, 9, 3, 7, 28, 120, 195, 186, 114, 195, 120, 1, 0.803974
303, 3, bw, attraction, a-b-da, 9, 3, 7, 28, 120, 195, 186, 114, 195, 120, 3, 0.610371
303, 3, bw, attraction, a-b-da, 2, 3, 7, 29, 193, 119, 120, 195, 195, 120, 1, 0.495385
303, 3, bw, attraction, a-b-da, 2, 3, 7, 29, 193, 119, 120, 195, 195, 120, 2, 0.338595
303, 3, bw, filler, NA, 999, 999, 7, 30, 99, 128, 69, 193, 183, 161, 3, 2.73903
303, 3, bw, filler, NA, 999, 999, 7, 30, 99, 128, 69, 193, 183, 161, 1, 1.91546
303, 3, bw, attraction, a-b-da, 2, 2, 7, 31, 90, 165, 163, 89, 165, 90, 1, 0.996243
303, 3, bw, attraction, a-b-da, 2, 2, 7, 31, 90, 165, 163, 89, 165, 90, 2, 0.347151
303, 3, bw, attraction, a-b-da, 5, 1, 7, 32, 132, 58, 135, 60, 60, 135, 1, 1.72293
303, 3, bw, attraction, a-b-da, 5, 1, 7, 32, 132, 58, 135, 60, 60, 135, 2, 0.508398
303, 3, bw, attraction, a-b-db, 9, 2, 7, 33, 86, 157, 90, 165, 165, 90, 2, 1.34947
303, 3, bw, attraction, a-b-db, 9, 2, 7, 33, 86, 157, 90, 165, 165, 90, 1, 0.342335
303, 3, bw, attraction, a-b-db, 9, 3, 7, 34, 120, 195, 114, 186, 195, 120, 1, 1.62239
303, 3, bw, attraction, a-b-db, 9, 3, 7, 34, 120, 195, 114, 186, 195, 120, 2, 0.411692
303, 3, bw, attraction, a-b-db, 2, 1, 7, 35, 60, 135, 59, 134, 135, 60, 1, 1.07281
303, 3, bw, attraction, a-b-db, 2, 1, 7, 35, 60, 135, 59, 134, 135, 60, 2, 0.828447
303, 3, bw, filler, NA, 999, 999, 7, 36, 134, 120, 85, 79, 79, 145, 1, 0.792846
303, 3, bw, filler, NA, 999, 999, 7, 36, 134, 120, 85, 79, 79, 145, 2, 0.505017
303, 3, bw, attraction, a-b-da, 2, 1, 7, 37, 134, 59, 135, 60, 60, 135, 1, 0.761675
303, 3, bw, attraction, a-b-da, 2, 1, 7, 37, 134, 59, 135, 60, 60, 135, 2, 0.522144
303, 3, bw, attraction, a-b-da, 2, 3, 8, 1, 193, 119, 120, 195, 195, 120, 1, 0.891171
303, 3, bw, attraction, a-b-da, 2, 3, 8, 1, 193, 119, 120, 195, 195, 120, 2, 0.774146
303, 3, bw, attraction, a-b-db, 2, 1, 8, 2, 60, 135, 59, 134, 135, 60, 1, 1.03659
303, 3, bw, attraction, a-b-db, 2, 1, 8, 2, 60, 135, 59, 134, 135, 60, 2, 0.474205
303, 3, bw, attraction, a-b-da, 14, 1, 8, 3, 125, 56, 60, 135, 135, 60, 1, 0.996725
303, 3, bw, attraction, a-b-da, 14, 1, 8, 3, 125, 56, 60, 135, 135, 60, 2, 0.355843
303, 3, bw, attraction, a-b-db, 9, 1, 8, 4, 135, 60, 57, 129, 60, 135, 1, 0.627594
303, 3, bw, attraction, a-b-db, 9, 1, 8, 4, 135, 60, 57, 129, 60, 135, 2, 0.345394
303, 3, bw, filler, NA, 999, 999, 8, 5, 104, 128, 109, 66, 141, 118, 3, 1.04107
303, 3, bw, filler, NA, 999, 999, 8, 5, 104, 128, 109, 66, 141, 118, 2, 0.950065
303, 3, bw, filler, NA, 999, 999, 8, 6, 173, 126, 142, 182, 81, 84, 2, 1.37379
303, 3, bw, filler, NA, 999, 999, 8, 6, 173, 126, 142, 182, 81, 84, 3, 0.413416
303, 3, bw, filler, NA, 999, 999, 8, 7, 154, 153, 168, 171, 141, 184, 3, 1.06646
303, 3, bw, filler, NA, 999, 999, 8, 7, 154, 153, 168, 171, 141, 184, 2, 0.302787
303, 3, bw, attraction, a-b-db, 9, 2, 8, 8, 165, 90, 86, 157, 90, 165, 1, 0.632568
303, 3, bw, attraction, a-b-db, 9, 2, 8, 8, 165, 90, 86, 157, 90, 165, 2, 0.558349
303, 3, bw, attraction, a-b-db, 14, 3, 8, 9, 120, 195, 195, 120, 111, 181, 1, 0.653489
303, 3, bw, attraction, a-b-db, 14, 3, 8, 9, 120, 195, 195, 120, 111, 181, 2, 0.442635
303, 3, bw, filler, NA, 999, 999, 8, 10, 129, 82, 61, 195, 195, 137, 3, 0.766424
303, 3, bw, filler, NA, 999, 999, 8, 10, 129, 82, 61, 195, 195, 137, 1, 0.510818
303, 3, bw, filler, NA, 999, 999, 8, 11, 67, 61, 155, 81, 192, 160, 3, 1.38389
303, 3, bw, filler, NA, 999, 999, 8, 11, 67, 61, 155, 81, 192, 160, 1, 0.599429
303, 3, bw, attraction, a-b-da, 5, 2, 8, 12, 165, 90, 90, 165, 161, 88, 2, 0.653177
303, 3, bw, attraction, a-b-da, 5, 2, 8, 12, 165, 90, 90, 165, 161, 88, 1, 0.506324
303, 3, bw, attraction, a-b-db, 9, 3, 8, 13, 195, 120, 120, 195, 114, 186, 1, 0.828055
303, 3, bw, attraction, a-b-db, 9, 3, 8, 13, 195, 120, 120, 195, 114, 186, 2, 0.313792
303, 3, bw, filler, NA, 999, 999, 8, 14, 116, 164, 183, 128, 121, 114, 1, 0.5229
303, 3, bw, filler, NA, 999, 999, 8, 14, 116, 164, 183, 128, 121, 114, 2, 0.244795
303, 3, bw, attraction, a-b-db, 14, 2, 8, 15, 165, 90, 90, 165, 83, 153, 2, 1.30474
303, 3, bw, attraction, a-b-db, 14, 2, 8, 15, 165, 90, 90, 165, 83, 153, 3, 0.843514
303, 3, bw, attraction, a-b-db, 5, 3, 8, 16, 120, 195, 195, 120, 117, 190, 1, 0.711264
303, 3, bw, attraction, a-b-db, 5, 3, 8, 16, 120, 195, 195, 120, 117, 190, 2, 0.409568
303, 3, bw, filler, NA, 999, 999, 8, 17, 144, 158, 148, 180, 82, 167, 2, 1.22272
303, 3, bw, filler, NA, 999, 999, 8, 17, 144, 158, 148, 180, 82, 167, 1, 0.492356
303, 3, bw, filler, NA, 999, 999, 8, 18, 98, 172, 179, 107, 182, 94, 3, 0.93416
303, 3, bw, filler, NA, 999, 999, 8, 18, 98, 172, 179, 107, 182, 94, 1, 0.639869
303, 3, bw, attraction, a-b-da, 14, 3, 8, 19, 195, 120, 120, 195, 181, 111, 2, 0.684217
303, 3, bw, attraction, a-b-da, 14, 3, 8, 19, 195, 120, 120, 195, 181, 111, 3, 0.776034
303, 3, bw, filler, NA, 999, 999, 8, 20, 174, 181, 159, 130, 93, 107, 1, 1.17443
303, 3, bw, filler, NA, 999, 999, 8, 20, 174, 181, 159, 130, 93, 107, 3, 0.630018
303, 3, bw, attraction, a-b-da, 14, 2, 8, 21, 90, 165, 165, 90, 153, 83, 2, 2.64238
303, 3, bw, attraction, a-b-da, 14, 2, 8, 21, 90, 165, 165, 90, 153, 83, 3, 0.334825
303, 3, bw, attraction, a-b-da, 9, 3, 8, 22, 120, 195, 195, 120, 186, 114, 1, 3.57541
303, 3, bw, attraction, a-b-da, 9, 3, 8, 22, 120, 195, 195, 120, 186, 114, 2, 0.510307
303, 3, bw, attraction, a-b-db, 2, 3, 8, 23, 195, 120, 119, 193, 120, 195, 3, 1.26332
303, 3, bw, attraction, a-b-db, 2, 3, 8, 23, 195, 120, 119, 193, 120, 195, 2, 0.291558
303, 3, bw, attraction, a-b-da, 9, 2, 8, 24, 90, 165, 165, 90, 157, 86, 2, 0.813377
303, 3, bw, attraction, a-b-da, 9, 2, 8, 24, 90, 165, 165, 90, 157, 86, 3, 0.443816
303, 3, bw, attraction, a-b-db, 5, 2, 8, 25, 90, 165, 88, 161, 165, 90, 3, 2.04137
303, 3, bw, attraction, a-b-db, 5, 2, 8, 25, 90, 165, 88, 161, 165, 90, 2, 0.492361
303, 3, bw, catch, NA, 999, 999, 8, 26, 125, 70, 143, 112, 164, 151, 3, 0.998173
303, 3, bw, catch, NA, 999, 999, 8, 26, 125, 70, 143, 112, 164, 151, 2, 0.253043
303, 3, bw, attraction, a-b-db, 5, 1, 8, 27, 135, 60, 58, 132, 60, 135, 2, 3.01687
303, 3, bw, attraction, a-b-db, 5, 1, 8, 27, 135, 60, 58, 132, 60, 135, 3, 0.318664
303, 3, bw, attraction, a-b-da, 2, 1, 8, 28, 135, 60, 60, 135, 134, 59, 1, 0.91186
303, 3, bw, attraction, a-b-da, 2, 1, 8, 28, 135, 60, 60, 135, 134, 59, 2, 0.55435
303, 3, bw, attraction, a-b-db, 2, 2, 8, 29, 89, 163, 90, 165, 165, 90, 2, 1.26591
303, 3, bw, attraction, a-b-db, 2, 2, 8, 29, 89, 163, 90, 165, 165, 90, 3, 0.526285
303, 3, bw, catch, NA, 999, 999, 8, 30, 190, 125, 156, 99, 95, 100, 1, 0.878672
303, 3, bw, catch, NA, 999, 999, 8, 30, 190, 125, 156, 99, 95, 100, 3, 0.514367
303, 3, bw, attraction, a-b-db, 14, 1, 8, 31, 56, 125, 135, 60, 60, 135, 2, 1.11553
303, 3, bw, attraction, a-b-db, 14, 1, 8, 31, 56, 125, 135, 60, 60, 135, 3, 0.669718
303, 3, bw, filler, NA, 999, 999, 8, 32, 150, 128, 171, 79, 137, 152, 3, 1.14483
303, 3, bw, filler, NA, 999, 999, 8, 32, 150, 128, 171, 79, 137, 152, 1, 1.0258
303, 3, bw, attraction, a-b-da, 9, 1, 8, 33, 60, 135, 135, 60, 129, 57, 1, 1.15006
303, 3, bw, attraction, a-b-da, 9, 1, 8, 33, 60, 135, 135, 60, 129, 57, 2, 0.582994
303, 3, bw, attraction, a-b-da, 5, 3, 8, 34, 120, 195, 190, 117, 195, 120, 3, 0.845432
303, 3, bw, attraction, a-b-da, 5, 3, 8, 34, 120, 195, 190, 117, 195, 120, 2, 0.322444
303, 3, bw, attraction, a-b-da, 5, 1, 8, 35, 132, 58, 135, 60, 60, 135, 1, 0.715616
303, 3, bw, attraction, a-b-da, 5, 1, 8, 35, 132, 58, 135, 60, 60, 135, 2, 0.734105
303, 3, bw, attraction, a-b-da, 2, 2, 8, 36, 90, 165, 165, 90, 163, 89, 1, 0.966366
303, 3, bw, attraction, a-b-da, 2, 2, 8, 36, 90, 165, 165, 90, 163, 89, 2, 0.318755
303, 3, bw, catch, NA, 999, 999, 8, 37, 147, 108, 90, 105, 175, 140, 3, 0.807851
303, 3, bw, catch, NA, 999, 999, 8, 37, 147, 108, 90, 105, 175, 140, 2, 0.27038
