sub_n, computer_n, bw_cond, effect, set, distance, diag, block_n, trial_n, h1, w1, h2, w2, h3, w3, choice, rt 
338, 3, wb, practice, NA, 999, 999, 0, 1, 106, 92, 172, 187, 136, 77, 1, 9.03493
338, 3, wb, practice, NA, 999, 999, 0, 1, 106, 92, 172, 187, 136, 77, 2, 1.75846
338, 3, wb, practice, NA, 999, 999, 0, 2, 85, 169, 157, 192, 107, 79, 3, 2.2318
338, 3, wb, practice, NA, 999, 999, 0, 2, 85, 169, 157, 192, 107, 79, 2, 1.62311
338, 3, wb, practice, NA, 999, 999, 0, 3, 156, 73, 103, 129, 88, 145, 1, 5.15318
338, 3, wb, practice, NA, 999, 999, 0, 3, 156, 73, 103, 129, 88, 145, 3, 2.36912
338, 3, wb, catch, NA, 999, 999, 1, 1, 185, 130, 129, 126, 77, 118, 3, 1.30801
338, 3, wb, catch, NA, 999, 999, 1, 1, 185, 130, 129, 126, 77, 118, 1, 1.38224
338, 3, wb, attraction, a-b-db, 5, 1, 1, 2, 60, 135, 58, 132, 135, 60, 2, 1.54048
338, 3, wb, attraction, a-b-db, 5, 1, 1, 2, 60, 135, 58, 132, 135, 60, 3, 1.95732
338, 3, wb, filler, NA, 999, 999, 1, 3, 140, 98, 65, 116, 156, 150, 2, 1.48392
338, 3, wb, filler, NA, 999, 999, 1, 3, 140, 98, 65, 116, 156, 150, 3, 0.799551
338, 3, wb, filler, NA, 999, 999, 1, 4, 166, 176, 69, 122, 108, 70, 3, 1.83719
338, 3, wb, filler, NA, 999, 999, 1, 4, 166, 176, 69, 122, 108, 70, 1, 0.730469
338, 3, wb, attraction, a-b-da, 9, 1, 1, 5, 129, 57, 60, 135, 135, 60, 1, 2.66682
338, 3, wb, attraction, a-b-da, 9, 1, 1, 5, 129, 57, 60, 135, 135, 60, 3, 2.77488
338, 3, wb, filler, NA, 999, 999, 1, 6, 150, 57, 83, 129, 112, 138, 1, 4.58046
338, 3, wb, filler, NA, 999, 999, 1, 6, 150, 57, 83, 129, 112, 138, 3, 0.947002
338, 3, wb, attraction, a-b-da, 2, 2, 1, 7, 90, 165, 163, 89, 165, 90, 2, 2.84264
338, 3, wb, attraction, a-b-da, 2, 2, 1, 7, 90, 165, 163, 89, 165, 90, 3, 1.43109
338, 3, wb, attraction, a-b-da, 14, 1, 1, 8, 60, 135, 135, 60, 125, 56, 3, 2.10713
338, 3, wb, attraction, a-b-da, 14, 1, 1, 8, 60, 135, 135, 60, 125, 56, 1, 1.62915
338, 3, wb, filler, NA, 999, 999, 1, 9, 111, 164, 148, 163, 135, 133, 1, 1.56147
338, 3, wb, filler, NA, 999, 999, 1, 9, 111, 164, 148, 163, 135, 133, 2, 1.07346
338, 3, wb, attraction, a-b-db, 2, 3, 1, 10, 119, 193, 120, 195, 195, 120, 1, 2.94777
338, 3, wb, attraction, a-b-db, 2, 3, 1, 10, 119, 193, 120, 195, 195, 120, 3, 1.16416
338, 3, wb, attraction, a-b-db, 5, 2, 1, 11, 165, 90, 88, 161, 90, 165, 2, 1.79496
338, 3, wb, attraction, a-b-db, 5, 2, 1, 11, 165, 90, 88, 161, 90, 165, 3, 1.08984
338, 3, wb, filler, NA, 999, 999, 1, 12, 172, 145, 132, 141, 60, 105, 3, 0.996015
338, 3, wb, filler, NA, 999, 999, 1, 12, 172, 145, 132, 141, 60, 105, 1, 1.2911
338, 3, wb, filler, NA, 999, 999, 1, 13, 88, 143, 118, 101, 181, 78, 2, 1.33252
338, 3, wb, filler, NA, 999, 999, 1, 13, 88, 143, 118, 101, 181, 78, 1, 1.52618
338, 3, wb, attraction, a-b-db, 9, 2, 1, 14, 90, 165, 86, 157, 165, 90, 2, 1.56635
338, 3, wb, attraction, a-b-db, 9, 2, 1, 14, 90, 165, 86, 157, 165, 90, 1, 1.10237
338, 3, wb, attraction, a-b-db, 2, 2, 1, 15, 90, 165, 89, 163, 165, 90, 3, 2.12799
338, 3, wb, attraction, a-b-db, 2, 2, 1, 15, 90, 165, 89, 163, 165, 90, 2, 1.1933
338, 3, wb, attraction, a-b-db, 9, 3, 1, 16, 114, 186, 120, 195, 195, 120, 1, 1.39087
338, 3, wb, attraction, a-b-db, 9, 3, 1, 16, 114, 186, 120, 195, 195, 120, 3, 1.10985
338, 3, wb, filler, NA, 999, 999, 1, 17, 168, 165, 65, 65, 104, 108, 2, 0.918794
338, 3, wb, filler, NA, 999, 999, 1, 17, 168, 165, 65, 65, 104, 108, 1, 0.98502
338, 3, wb, attraction, a-b-db, 2, 1, 1, 18, 60, 135, 135, 60, 59, 134, 1, 3.44727
338, 3, wb, attraction, a-b-db, 2, 1, 1, 18, 60, 135, 135, 60, 59, 134, 2, 2.00351
338, 3, wb, attraction, a-b-da, 14, 3, 1, 19, 195, 120, 181, 111, 120, 195, 2, 2.12878
338, 3, wb, attraction, a-b-da, 14, 3, 1, 19, 195, 120, 181, 111, 120, 195, 3, 1.93014
338, 3, wb, attraction, a-b-db, 5, 3, 1, 20, 120, 195, 117, 190, 195, 120, 2, 2.84228
338, 3, wb, attraction, a-b-db, 5, 3, 1, 20, 120, 195, 117, 190, 195, 120, 3, 0.702812
338, 3, wb, attraction, a-b-da, 2, 1, 1, 21, 134, 59, 135, 60, 60, 135, 2, 1.3203
338, 3, wb, attraction, a-b-da, 2, 1, 1, 21, 134, 59, 135, 60, 60, 135, 3, 1.09057
338, 3, wb, filler, NA, 999, 999, 1, 22, 161, 144, 117, 102, 149, 66, 2, 1.82013
338, 3, wb, filler, NA, 999, 999, 1, 22, 161, 144, 117, 102, 149, 66, 1, 2.17019
338, 3, wb, attraction, a-b-db, 14, 3, 1, 23, 111, 181, 195, 120, 120, 195, 1, 1.24887
338, 3, wb, attraction, a-b-db, 14, 3, 1, 23, 111, 181, 195, 120, 120, 195, 3, 1.19784
338, 3, wb, attraction, a-b-da, 2, 3, 1, 24, 120, 195, 193, 119, 195, 120, 2, 1.67523
338, 3, wb, attraction, a-b-da, 2, 3, 1, 24, 120, 195, 193, 119, 195, 120, 3, 1.06277
338, 3, wb, attraction, a-b-db, 14, 1, 1, 25, 60, 135, 135, 60, 56, 125, 3, 1.6577
338, 3, wb, attraction, a-b-db, 14, 1, 1, 25, 60, 135, 135, 60, 56, 125, 1, 1.38176
338, 3, wb, attraction, a-b-db, 9, 1, 1, 26, 60, 135, 135, 60, 57, 129, 1, 1.276
338, 3, wb, attraction, a-b-db, 9, 1, 1, 26, 60, 135, 135, 60, 57, 129, 3, 1.13568
338, 3, wb, attraction, a-b-da, 9, 2, 1, 27, 90, 165, 157, 86, 165, 90, 2, 1.39175
338, 3, wb, attraction, a-b-da, 9, 2, 1, 27, 90, 165, 157, 86, 165, 90, 3, 0.750682
338, 3, wb, attraction, a-b-da, 9, 3, 1, 28, 186, 114, 120, 195, 195, 120, 2, 1.8544
338, 3, wb, attraction, a-b-da, 9, 3, 1, 28, 186, 114, 120, 195, 195, 120, 3, 1.11516
338, 3, wb, attraction, a-b-da, 5, 1, 1, 29, 60, 135, 132, 58, 135, 60, 1, 1.81998
338, 3, wb, attraction, a-b-da, 5, 1, 1, 29, 60, 135, 132, 58, 135, 60, 3, 1.09009
338, 3, wb, attraction, a-b-da, 14, 2, 1, 30, 153, 83, 90, 165, 165, 90, 1, 1.2597
338, 3, wb, attraction, a-b-da, 14, 2, 1, 30, 153, 83, 90, 165, 165, 90, 3, 0.815949
338, 3, wb, catch, NA, 999, 999, 1, 31, 148, 167, 108, 87, 102, 153, 2, 0.933022
338, 3, wb, catch, NA, 999, 999, 1, 31, 148, 167, 108, 87, 102, 153, 1, 0.934744
338, 3, wb, attraction, a-b-db, 14, 2, 1, 32, 90, 165, 83, 153, 165, 90, 1, 1.25501
338, 3, wb, attraction, a-b-db, 14, 2, 1, 32, 90, 165, 83, 153, 165, 90, 3, 0.707257
338, 3, wb, filler, NA, 999, 999, 1, 33, 71, 60, 70, 147, 130, 163, 1, 0.900307
338, 3, wb, filler, NA, 999, 999, 1, 33, 71, 60, 70, 147, 130, 163, 3, 0.871432
338, 3, wb, attraction, a-b-da, 5, 3, 1, 34, 120, 195, 195, 120, 190, 117, 1, 1.69029
338, 3, wb, attraction, a-b-da, 5, 3, 1, 34, 120, 195, 195, 120, 190, 117, 3, 0.709162
338, 3, wb, filler, NA, 999, 999, 1, 35, 166, 147, 64, 189, 74, 187, 2, 1.47816
338, 3, wb, filler, NA, 999, 999, 1, 35, 166, 147, 64, 189, 74, 187, 1, 1.00163
338, 3, wb, attraction, a-b-da, 5, 2, 1, 36, 90, 165, 165, 90, 161, 88, 2, 2.95928
338, 3, wb, attraction, a-b-da, 5, 2, 1, 36, 90, 165, 165, 90, 161, 88, 1, 1.08703
338, 3, wb, catch, NA, 999, 999, 1, 37, 128, 187, 117, 78, 97, 158, 2, 1.08128
338, 3, wb, catch, NA, 999, 999, 1, 37, 128, 187, 117, 78, 97, 158, 1, 0.716934
338, 3, wb, filler, NA, 999, 999, 2, 1, 106, 167, 168, 123, 177, 186, 1, 0.853958
338, 3, wb, filler, NA, 999, 999, 2, 1, 106, 167, 168, 123, 177, 186, 3, 0.90707
338, 3, wb, filler, NA, 999, 999, 2, 2, 57, 98, 83, 154, 69, 140, 1, 1.17197
338, 3, wb, filler, NA, 999, 999, 2, 2, 57, 98, 83, 154, 69, 140, 2, 1.12362
338, 3, wb, filler, NA, 999, 999, 2, 3, 159, 136, 162, 89, 193, 72, 2, 2.17981
338, 3, wb, filler, NA, 999, 999, 2, 3, 159, 136, 162, 89, 193, 72, 1, 1.04308
338, 3, wb, attraction, a-b-da, 14, 3, 2, 4, 120, 195, 195, 120, 181, 111, 1, 1.72673
338, 3, wb, attraction, a-b-da, 14, 3, 2, 4, 120, 195, 195, 120, 181, 111, 2, 0.736266
338, 3, wb, attraction, a-b-da, 14, 2, 2, 5, 165, 90, 153, 83, 90, 165, 2, 1.19248
338, 3, wb, attraction, a-b-da, 14, 2, 2, 5, 165, 90, 153, 83, 90, 165, 3, 0.759635
338, 3, wb, attraction, a-b-da, 5, 2, 2, 6, 165, 90, 90, 165, 161, 88, 2, 1.28661
338, 3, wb, attraction, a-b-da, 5, 2, 2, 6, 165, 90, 90, 165, 161, 88, 1, 1.69812
338, 3, wb, attraction, a-b-da, 2, 1, 2, 7, 135, 60, 134, 59, 60, 135, 3, 2.38745
338, 3, wb, attraction, a-b-da, 2, 1, 2, 7, 135, 60, 134, 59, 60, 135, 1, 1.12287
338, 3, wb, attraction, a-b-db, 5, 1, 2, 8, 58, 132, 60, 135, 135, 60, 1, 1.29167
338, 3, wb, attraction, a-b-db, 5, 1, 2, 8, 58, 132, 60, 135, 135, 60, 3, 1.17459
338, 3, wb, attraction, a-b-db, 5, 3, 2, 9, 120, 195, 195, 120, 117, 190, 2, 1.94081
338, 3, wb, attraction, a-b-db, 5, 3, 2, 9, 120, 195, 195, 120, 117, 190, 1, 0.629687
338, 3, wb, attraction, a-b-da, 14, 1, 2, 10, 60, 135, 135, 60, 125, 56, 1, 1.26595
338, 3, wb, attraction, a-b-da, 14, 1, 2, 10, 60, 135, 135, 60, 125, 56, 2, 1.23822
338, 3, wb, attraction, a-b-da, 5, 1, 2, 11, 132, 58, 135, 60, 60, 135, 2, 2.56243
338, 3, wb, attraction, a-b-da, 5, 1, 2, 11, 132, 58, 135, 60, 60, 135, 3, 0.618271
338, 3, wb, attraction, a-b-db, 14, 1, 2, 12, 135, 60, 56, 125, 60, 135, 2, 1.50332
338, 3, wb, attraction, a-b-db, 14, 1, 2, 12, 135, 60, 56, 125, 60, 135, 3, 0.690161
338, 3, wb, attraction, a-b-db, 9, 1, 2, 13, 135, 60, 57, 129, 60, 135, 2, 2.60395
338, 3, wb, attraction, a-b-db, 9, 1, 2, 13, 135, 60, 57, 129, 60, 135, 3, 0.914505
338, 3, wb, attraction, a-b-db, 5, 2, 2, 14, 90, 165, 165, 90, 88, 161, 1, 1.81933
338, 3, wb, attraction, a-b-db, 5, 2, 2, 14, 90, 165, 165, 90, 88, 161, 3, 1.17756
338, 3, wb, catch, NA, 999, 999, 2, 15, 187, 128, 106, 89, 110, 145, 2, 0.815678
338, 3, wb, catch, NA, 999, 999, 2, 15, 187, 128, 106, 89, 110, 145, 1, 0.678094
338, 3, wb, catch, NA, 999, 999, 2, 16, 161, 94, 181, 134, 124, 71, 3, 1.50444
338, 3, wb, catch, NA, 999, 999, 2, 16, 161, 94, 181, 134, 124, 71, 2, 1.35531
338, 3, wb, attraction, a-b-da, 5, 3, 2, 17, 120, 195, 195, 120, 190, 117, 1, 1.7708
338, 3, wb, attraction, a-b-da, 5, 3, 2, 17, 120, 195, 195, 120, 190, 117, 3, 1.25094
338, 3, wb, filler, NA, 999, 999, 2, 18, 139, 188, 129, 147, 159, 84, 3, 1.70241
338, 3, wb, filler, NA, 999, 999, 2, 18, 139, 188, 129, 147, 159, 84, 1, 0.617251
338, 3, wb, filler, NA, 999, 999, 2, 19, 155, 82, 125, 181, 172, 186, 1, 0.958219
338, 3, wb, filler, NA, 999, 999, 2, 19, 155, 82, 125, 181, 172, 186, 3, 0.630613
338, 3, wb, attraction, a-b-da, 9, 3, 2, 20, 195, 120, 120, 195, 186, 114, 3, 3.30711
338, 3, wb, attraction, a-b-da, 9, 3, 2, 20, 195, 120, 120, 195, 186, 114, 2, 1.04483
338, 3, wb, attraction, a-b-db, 2, 1, 2, 21, 59, 134, 135, 60, 60, 135, 1, 2.16862
338, 3, wb, attraction, a-b-db, 2, 1, 2, 21, 59, 134, 135, 60, 60, 135, 3, 0.912195
338, 3, wb, attraction, a-b-da, 2, 3, 2, 22, 120, 195, 195, 120, 193, 119, 1, 1.19324
338, 3, wb, attraction, a-b-da, 2, 3, 2, 22, 120, 195, 195, 120, 193, 119, 2, 0.97623
338, 3, wb, attraction, a-b-db, 2, 3, 2, 23, 119, 193, 195, 120, 120, 195, 1, 2.00645
338, 3, wb, attraction, a-b-db, 2, 3, 2, 23, 119, 193, 195, 120, 120, 195, 3, 0.796517
338, 3, wb, attraction, a-b-db, 2, 2, 2, 24, 89, 163, 165, 90, 90, 165, 2, 1.26618
338, 3, wb, attraction, a-b-db, 2, 2, 2, 24, 89, 163, 165, 90, 90, 165, 3, 1.07843
338, 3, wb, filler, NA, 999, 999, 2, 25, 127, 193, 60, 176, 190, 163, 2, 0.904616
338, 3, wb, filler, NA, 999, 999, 2, 25, 127, 193, 60, 176, 190, 163, 3, 0.93105
338, 3, wb, attraction, a-b-db, 14, 3, 2, 26, 111, 181, 120, 195, 195, 120, 1, 1.62731
338, 3, wb, attraction, a-b-db, 14, 3, 2, 26, 111, 181, 120, 195, 195, 120, 2, 0.792896
338, 3, wb, attraction, a-b-db, 9, 2, 2, 27, 86, 157, 165, 90, 90, 165, 2, 1.9186
338, 3, wb, attraction, a-b-db, 9, 2, 2, 27, 86, 157, 165, 90, 90, 165, 3, 0.824633
338, 3, wb, attraction, a-b-db, 14, 2, 2, 28, 165, 90, 83, 153, 90, 165, 2, 1.70885
338, 3, wb, attraction, a-b-db, 14, 2, 2, 28, 165, 90, 83, 153, 90, 165, 1, 1.4391
338, 3, wb, attraction, a-b-da, 9, 2, 2, 29, 157, 86, 165, 90, 90, 165, 2, 1.41116
338, 3, wb, attraction, a-b-da, 9, 2, 2, 29, 157, 86, 165, 90, 90, 165, 3, 0.881418
338, 3, wb, attraction, a-b-da, 2, 2, 2, 30, 90, 165, 163, 89, 165, 90, 1, 1.41971
338, 3, wb, attraction, a-b-da, 2, 2, 2, 30, 90, 165, 163, 89, 165, 90, 3, 0.705963
338, 3, wb, filler, NA, 999, 999, 2, 31, 160, 87, 84, 107, 68, 126, 2, 1.01165
338, 3, wb, filler, NA, 999, 999, 2, 31, 160, 87, 84, 107, 68, 126, 1, 0.857923
338, 3, wb, attraction, a-b-da, 9, 1, 2, 32, 60, 135, 129, 57, 135, 60, 2, 0.964945
338, 3, wb, attraction, a-b-da, 9, 1, 2, 32, 60, 135, 129, 57, 135, 60, 3, 0.901308
338, 3, wb, attraction, a-b-db, 9, 3, 2, 33, 120, 195, 195, 120, 114, 186, 2, 1.48696
338, 3, wb, attraction, a-b-db, 9, 3, 2, 33, 120, 195, 195, 120, 114, 186, 1, 0.898456
338, 3, wb, catch, NA, 999, 999, 2, 34, 135, 180, 129, 126, 94, 101, 3, 0.820108
338, 3, wb, catch, NA, 999, 999, 2, 34, 135, 180, 129, 126, 94, 101, 1, 0.938547
338, 3, wb, filler, NA, 999, 999, 2, 35, 77, 119, 123, 106, 79, 102, 1, 2.56282
338, 3, wb, filler, NA, 999, 999, 2, 35, 77, 119, 123, 106, 79, 102, 2, 0.794633
338, 3, wb, filler, NA, 999, 999, 2, 36, 132, 70, 130, 76, 96, 116, 2, 1.00035
338, 3, wb, filler, NA, 999, 999, 2, 36, 132, 70, 130, 76, 96, 116, 3, 0.903309
338, 3, wb, filler, NA, 999, 999, 2, 37, 75, 188, 151, 117, 177, 95, 1, 3.34497
338, 3, wb, filler, NA, 999, 999, 2, 37, 75, 188, 151, 117, 177, 95, 3, 1.53736
338, 3, wb, attraction, a-b-da, 9, 3, 3, 1, 186, 114, 195, 120, 120, 195, 2, 1.76942
338, 3, wb, attraction, a-b-da, 9, 3, 3, 1, 186, 114, 195, 120, 120, 195, 1, 0.897512
338, 3, wb, attraction, a-b-db, 9, 1, 3, 2, 135, 60, 60, 135, 57, 129, 2, 1.2271
338, 3, wb, attraction, a-b-db, 9, 1, 3, 2, 135, 60, 60, 135, 57, 129, 1, 0.736685
338, 3, wb, attraction, a-b-db, 5, 2, 3, 3, 88, 161, 90, 165, 165, 90, 1, 2.07319
338, 3, wb, attraction, a-b-db, 5, 2, 3, 3, 88, 161, 90, 165, 165, 90, 3, 0.868557
338, 3, wb, attraction, a-b-db, 5, 3, 3, 4, 120, 195, 117, 190, 195, 120, 1, 10.3675
338, 3, wb, attraction, a-b-db, 5, 3, 3, 4, 120, 195, 117, 190, 195, 120, 3, 1.04485
338, 3, wb, catch, NA, 999, 999, 3, 5, 135, 180, 67, 128, 163, 92, 2, 0.960415
338, 3, wb, catch, NA, 999, 999, 3, 5, 135, 180, 67, 128, 163, 92, 1, 0.592874
338, 3, wb, attraction, a-b-db, 14, 1, 3, 6, 135, 60, 56, 125, 60, 135, 2, 1.2065
338, 3, wb, attraction, a-b-db, 14, 1, 3, 6, 135, 60, 56, 125, 60, 135, 3, 1.38083
338, 3, wb, filler, NA, 999, 999, 3, 7, 72, 142, 142, 168, 134, 77, 1, 1.98704
338, 3, wb, filler, NA, 999, 999, 3, 7, 72, 142, 142, 168, 134, 77, 2, 0.682342
338, 3, wb, attraction, a-b-da, 2, 1, 3, 8, 135, 60, 134, 59, 60, 135, 3, 1.97273
338, 3, wb, attraction, a-b-da, 2, 1, 3, 8, 135, 60, 134, 59, 60, 135, 2, 0.892128
338, 3, wb, attraction, a-b-da, 9, 1, 3, 9, 135, 60, 129, 57, 60, 135, 1, 1.77375
338, 3, wb, attraction, a-b-da, 9, 1, 3, 9, 135, 60, 129, 57, 60, 135, 3, 1.63722
338, 3, wb, filler, NA, 999, 999, 3, 10, 71, 56, 91, 130, 148, 185, 1, 0.785239
338, 3, wb, filler, NA, 999, 999, 3, 10, 71, 56, 91, 130, 148, 185, 3, 0.577156
338, 3, wb, attraction, a-b-db, 14, 2, 3, 11, 165, 90, 83, 153, 90, 165, 2, 1.17548
338, 3, wb, attraction, a-b-db, 14, 2, 3, 11, 165, 90, 83, 153, 90, 165, 1, 0.759249
338, 3, wb, filler, NA, 999, 999, 3, 12, 136, 123, 195, 80, 127, 130, 1, 2.58209
338, 3, wb, filler, NA, 999, 999, 3, 12, 136, 123, 195, 80, 127, 130, 3, 0.933191
338, 3, wb, catch, NA, 999, 999, 3, 13, 140, 115, 123, 192, 128, 67, 3, 1.59757
338, 3, wb, catch, NA, 999, 999, 3, 13, 140, 115, 123, 192, 128, 67, 2, 0.820481
338, 3, wb, attraction, a-b-db, 2, 2, 3, 14, 89, 163, 165, 90, 90, 165, 1, 1.70539
338, 3, wb, attraction, a-b-db, 2, 2, 3, 14, 89, 163, 165, 90, 90, 165, 2, 0.675454
338, 3, wb, attraction, a-b-da, 5, 3, 3, 15, 195, 120, 120, 195, 190, 117, 3, 1.81392
338, 3, wb, attraction, a-b-da, 5, 3, 3, 15, 195, 120, 120, 195, 190, 117, 1, 1.58012
338, 3, wb, attraction, a-b-db, 2, 1, 3, 16, 135, 60, 60, 135, 59, 134, 2, 2.10611
338, 3, wb, attraction, a-b-db, 2, 1, 3, 16, 135, 60, 60, 135, 59, 134, 1, 0.820122
338, 3, wb, filler, NA, 999, 999, 3, 17, 125, 133, 187, 118, 93, 138, 3, 2.93717
338, 3, wb, filler, NA, 999, 999, 3, 17, 125, 133, 187, 118, 93, 138, 2, 0.746122
338, 3, wb, attraction, a-b-db, 5, 1, 3, 18, 58, 132, 60, 135, 135, 60, 1, 1.25776
338, 3, wb, attraction, a-b-db, 5, 1, 3, 18, 58, 132, 60, 135, 135, 60, 2, 1.11008
338, 3, wb, filler, NA, 999, 999, 3, 19, 96, 74, 103, 160, 111, 132, 1, 1.23898
338, 3, wb, filler, NA, 999, 999, 3, 19, 96, 74, 103, 160, 111, 132, 2, 1.48388
338, 3, wb, attraction, a-b-da, 2, 3, 3, 20, 120, 195, 193, 119, 195, 120, 3, 1.31807
338, 3, wb, attraction, a-b-da, 2, 3, 3, 20, 120, 195, 193, 119, 195, 120, 2, 1.44842
338, 3, wb, attraction, a-b-da, 9, 2, 3, 21, 165, 90, 90, 165, 157, 86, 3, 1.49996
338, 3, wb, attraction, a-b-da, 9, 2, 3, 21, 165, 90, 90, 165, 157, 86, 1, 0.79055
338, 3, wb, filler, NA, 999, 999, 3, 22, 191, 82, 188, 142, 141, 84, 3, 1.16432
338, 3, wb, filler, NA, 999, 999, 3, 22, 191, 82, 188, 142, 141, 84, 2, 1.00463
338, 3, wb, attraction, a-b-db, 9, 2, 3, 23, 86, 157, 165, 90, 90, 165, 1, 1.53018
338, 3, wb, attraction, a-b-db, 9, 2, 3, 23, 86, 157, 165, 90, 90, 165, 3, 0.811694
338, 3, wb, attraction, a-b-da, 5, 1, 3, 24, 135, 60, 60, 135, 132, 58, 3, 1.28875
338, 3, wb, attraction, a-b-da, 5, 1, 3, 24, 135, 60, 60, 135, 132, 58, 1, 0.955751
338, 3, wb, filler, NA, 999, 999, 3, 25, 70, 109, 191, 160, 99, 149, 1, 0.867326
338, 3, wb, filler, NA, 999, 999, 3, 25, 70, 109, 191, 160, 99, 149, 2, 0.695676
338, 3, wb, attraction, a-b-da, 5, 2, 3, 26, 90, 165, 161, 88, 165, 90, 2, 0.809429
338, 3, wb, attraction, a-b-da, 5, 2, 3, 26, 90, 165, 161, 88, 165, 90, 3, 0.655913
338, 3, wb, attraction, a-b-da, 14, 2, 3, 27, 90, 165, 165, 90, 153, 83, 3, 0.971514
338, 3, wb, attraction, a-b-da, 14, 2, 3, 27, 90, 165, 165, 90, 153, 83, 2, 0.955281
338, 3, wb, attraction, a-b-db, 2, 3, 3, 28, 119, 193, 195, 120, 120, 195, 1, 1.36289
338, 3, wb, attraction, a-b-db, 2, 3, 3, 28, 119, 193, 195, 120, 120, 195, 3, 0.731199
338, 3, wb, attraction, a-b-da, 2, 2, 3, 29, 163, 89, 90, 165, 165, 90, 2, 1.41946
338, 3, wb, attraction, a-b-da, 2, 2, 3, 29, 163, 89, 90, 165, 165, 90, 3, 0.729622
338, 3, wb, filler, NA, 999, 999, 3, 30, 93, 87, 160, 71, 171, 186, 1, 0.754072
338, 3, wb, filler, NA, 999, 999, 3, 30, 93, 87, 160, 71, 171, 186, 3, 0.611105
338, 3, wb, filler, NA, 999, 999, 3, 31, 195, 156, 179, 112, 105, 127, 3, 0.752175
338, 3, wb, filler, NA, 999, 999, 3, 31, 195, 156, 179, 112, 105, 127, 1, 0.721252
338, 3, wb, attraction, a-b-da, 14, 1, 3, 32, 125, 56, 60, 135, 135, 60, 1, 1.20236
338, 3, wb, attraction, a-b-da, 14, 1, 3, 32, 125, 56, 60, 135, 135, 60, 3, 0.68917
338, 3, wb, attraction, a-b-db, 9, 3, 3, 33, 195, 120, 120, 195, 114, 186, 2, 1.37963
338, 3, wb, attraction, a-b-db, 9, 3, 3, 33, 195, 120, 120, 195, 114, 186, 3, 1.27512
338, 3, wb, filler, NA, 999, 999, 3, 34, 195, 58, 125, 63, 124, 180, 2, 0.909441
338, 3, wb, filler, NA, 999, 999, 3, 34, 195, 58, 125, 63, 124, 180, 3, 1.14378
338, 3, wb, attraction, a-b-da, 14, 3, 3, 35, 195, 120, 181, 111, 120, 195, 2, 1.48731
338, 3, wb, attraction, a-b-da, 14, 3, 3, 35, 195, 120, 181, 111, 120, 195, 3, 1.04289
338, 3, wb, attraction, a-b-db, 14, 3, 3, 36, 111, 181, 195, 120, 120, 195, 1, 1.39042
338, 3, wb, attraction, a-b-db, 14, 3, 3, 36, 111, 181, 195, 120, 120, 195, 3, 0.709279
338, 3, wb, catch, NA, 999, 999, 3, 37, 88, 107, 152, 103, 155, 160, 1, 0.726344
338, 3, wb, catch, NA, 999, 999, 3, 37, 88, 107, 152, 103, 155, 160, 3, 0.736091
338, 3, wb, attraction, a-b-da, 9, 2, 4, 1, 90, 165, 165, 90, 157, 86, 2, 2.8884
338, 3, wb, attraction, a-b-da, 9, 2, 4, 1, 90, 165, 165, 90, 157, 86, 3, 0.539633
338, 3, wb, filler, NA, 999, 999, 4, 2, 157, 78, 90, 83, 187, 119, 2, 0.531991
338, 3, wb, filler, NA, 999, 999, 4, 2, 157, 78, 90, 83, 187, 119, 3, 0.581846
338, 3, wb, attraction, a-b-db, 9, 2, 4, 3, 86, 157, 90, 165, 165, 90, 1, 1.30017
338, 3, wb, attraction, a-b-db, 9, 2, 4, 3, 86, 157, 90, 165, 165, 90, 2, 0.759191
338, 3, wb, filler, NA, 999, 999, 4, 4, 189, 137, 69, 132, 171, 101, 2, 0.72618
338, 3, wb, filler, NA, 999, 999, 4, 4, 189, 137, 69, 132, 171, 101, 1, 0.807892
338, 3, wb, attraction, a-b-db, 14, 1, 4, 5, 135, 60, 56, 125, 60, 135, 2, 0.95708
338, 3, wb, attraction, a-b-db, 14, 1, 4, 5, 135, 60, 56, 125, 60, 135, 3, 0.709256
338, 3, wb, attraction, a-b-db, 2, 1, 4, 6, 60, 135, 59, 134, 135, 60, 3, 1.70227
338, 3, wb, attraction, a-b-db, 2, 1, 4, 6, 60, 135, 59, 134, 135, 60, 1, 0.913063
338, 3, wb, attraction, a-b-da, 2, 1, 4, 7, 60, 135, 134, 59, 135, 60, 2, 1.61812
338, 3, wb, attraction, a-b-da, 2, 1, 4, 7, 60, 135, 134, 59, 135, 60, 1, 0.776185
338, 3, wb, attraction, a-b-db, 2, 3, 4, 8, 195, 120, 119, 193, 120, 195, 1, 2.15052
338, 3, wb, attraction, a-b-db, 2, 3, 4, 8, 195, 120, 119, 193, 120, 195, 2, 1.22318
338, 3, wb, attraction, a-b-da, 9, 3, 4, 9, 120, 195, 186, 114, 195, 120, 2, 4.29211
338, 3, wb, attraction, a-b-da, 9, 3, 4, 9, 120, 195, 186, 114, 195, 120, 1, 0.878073
338, 3, wb, attraction, a-b-db, 5, 2, 4, 10, 165, 90, 88, 161, 90, 165, 1, 1.83235
338, 3, wb, attraction, a-b-db, 5, 2, 4, 10, 165, 90, 88, 161, 90, 165, 3, 0.749807
338, 3, wb, attraction, a-b-da, 14, 3, 4, 11, 181, 111, 120, 195, 195, 120, 1, 2.38155
338, 3, wb, attraction, a-b-da, 14, 3, 4, 11, 181, 111, 120, 195, 195, 120, 3, 0.612854
338, 3, wb, filler, NA, 999, 999, 4, 12, 70, 188, 91, 57, 69, 172, 2, 1.19394
338, 3, wb, filler, NA, 999, 999, 4, 12, 70, 188, 91, 57, 69, 172, 1, 0.952808
338, 3, wb, attraction, a-b-db, 9, 1, 4, 13, 135, 60, 57, 129, 60, 135, 1, 2.02444
338, 3, wb, attraction, a-b-db, 9, 1, 4, 13, 135, 60, 57, 129, 60, 135, 3, 0.98175
338, 3, wb, attraction, a-b-da, 14, 2, 4, 14, 153, 83, 90, 165, 165, 90, 1, 1.35599
338, 3, wb, attraction, a-b-da, 14, 2, 4, 14, 153, 83, 90, 165, 165, 90, 3, 1.06023
338, 3, wb, filler, NA, 999, 999, 4, 15, 123, 190, 132, 107, 111, 156, 2, 1.19114
338, 3, wb, filler, NA, 999, 999, 4, 15, 123, 190, 132, 107, 111, 156, 1, 0.662184
338, 3, wb, attraction, a-b-da, 14, 1, 4, 16, 60, 135, 125, 56, 135, 60, 2, 1.83324
338, 3, wb, attraction, a-b-da, 14, 1, 4, 16, 60, 135, 125, 56, 135, 60, 3, 1.19856
338, 3, wb, catch, NA, 999, 999, 4, 17, 124, 131, 177, 138, 111, 84, 3, 0.90818
338, 3, wb, catch, NA, 999, 999, 4, 17, 124, 131, 177, 138, 111, 84, 2, 0.510518
338, 3, wb, attraction, a-b-db, 14, 2, 4, 18, 165, 90, 83, 153, 90, 165, 2, 1.47955
338, 3, wb, attraction, a-b-db, 14, 2, 4, 18, 165, 90, 83, 153, 90, 165, 3, 0.723131
338, 3, wb, filler, NA, 999, 999, 4, 19, 174, 126, 189, 162, 66, 101, 3, 0.708189
338, 3, wb, filler, NA, 999, 999, 4, 19, 174, 126, 189, 162, 66, 101, 2, 0.646595
338, 3, wb, attraction, a-b-da, 9, 1, 4, 20, 129, 57, 60, 135, 135, 60, 1, 0.970318
338, 3, wb, attraction, a-b-da, 9, 1, 4, 20, 129, 57, 60, 135, 135, 60, 3, 0.738687
338, 3, wb, catch, NA, 999, 999, 4, 21, 179, 136, 118, 137, 122, 73, 3, 1.35509
338, 3, wb, catch, NA, 999, 999, 4, 21, 179, 136, 118, 137, 122, 73, 1, 0.723309
338, 3, wb, attraction, a-b-db, 5, 3, 4, 22, 117, 190, 120, 195, 195, 120, 2, 1.25238
338, 3, wb, attraction, a-b-db, 5, 3, 4, 22, 117, 190, 120, 195, 195, 120, 3, 0.777375
338, 3, wb, attraction, a-b-da, 2, 2, 4, 23, 90, 165, 165, 90, 163, 89, 1, 1.27156
338, 3, wb, attraction, a-b-da, 2, 2, 4, 23, 90, 165, 165, 90, 163, 89, 3, 0.692032
338, 3, wb, filler, NA, 999, 999, 4, 24, 166, 160, 125, 56, 117, 148, 2, 0.597564
338, 3, wb, filler, NA, 999, 999, 4, 24, 166, 160, 125, 56, 117, 148, 1, 0.852635
338, 3, wb, attraction, a-b-da, 5, 3, 4, 25, 195, 120, 120, 195, 190, 117, 1, 1.76833
338, 3, wb, attraction, a-b-da, 5, 3, 4, 25, 195, 120, 120, 195, 190, 117, 3, 0.816428
338, 3, wb, filler, NA, 999, 999, 4, 26, 184, 175, 115, 68, 77, 144, 2, 1.28549
338, 3, wb, filler, NA, 999, 999, 4, 26, 184, 175, 115, 68, 77, 144, 1, 0.61703
338, 3, wb, filler, NA, 999, 999, 4, 27, 120, 158, 162, 107, 83, 156, 3, 1.45412
338, 3, wb, filler, NA, 999, 999, 4, 27, 120, 158, 162, 107, 83, 156, 1, 0.970977
338, 3, wb, filler, NA, 999, 999, 4, 28, 116, 89, 149, 72, 94, 103, 3, 1.49791
338, 3, wb, filler, NA, 999, 999, 4, 28, 116, 89, 149, 72, 94, 103, 1, 1.14103
338, 3, wb, attraction, a-b-db, 9, 3, 4, 29, 114, 186, 195, 120, 120, 195, 1, 4.19634
338, 3, wb, attraction, a-b-db, 9, 3, 4, 29, 114, 186, 195, 120, 120, 195, 3, 0.826378
338, 3, wb, attraction, a-b-da, 5, 2, 4, 30, 90, 165, 165, 90, 161, 88, 2, 5.27882
338, 3, wb, attraction, a-b-da, 5, 2, 4, 30, 90, 165, 165, 90, 161, 88, 1, 0.617175
338, 3, wb, attraction, a-b-db, 5, 1, 4, 31, 135, 60, 58, 132, 60, 135, 1, 1.93407
338, 3, wb, attraction, a-b-db, 5, 1, 4, 31, 135, 60, 58, 132, 60, 135, 3, 0.863656
338, 3, wb, filler, NA, 999, 999, 4, 32, 96, 169, 180, 97, 195, 115, 1, 4.57844
338, 3, wb, filler, NA, 999, 999, 4, 32, 96, 169, 180, 97, 195, 115, 3, 0.649187
338, 3, wb, attraction, a-b-db, 2, 2, 4, 33, 90, 165, 89, 163, 165, 90, 3, 1.82886
338, 3, wb, attraction, a-b-db, 2, 2, 4, 33, 90, 165, 89, 163, 165, 90, 1, 0.930321
338, 3, wb, catch, NA, 999, 999, 4, 34, 62, 133, 145, 170, 131, 124, 1, 0.754463
338, 3, wb, catch, NA, 999, 999, 4, 34, 62, 133, 145, 170, 131, 124, 2, 0.746891
338, 3, wb, attraction, a-b-da, 2, 3, 4, 35, 193, 119, 195, 120, 120, 195, 3, 1.3306
338, 3, wb, attraction, a-b-da, 2, 3, 4, 35, 193, 119, 195, 120, 120, 195, 1, 0.63618
338, 3, wb, attraction, a-b-db, 14, 3, 4, 36, 120, 195, 195, 120, 111, 181, 2, 1.03254
338, 3, wb, attraction, a-b-db, 14, 3, 4, 36, 120, 195, 195, 120, 111, 181, 1, 0.566162
338, 3, wb, attraction, a-b-da, 5, 1, 4, 37, 132, 58, 60, 135, 135, 60, 2, 0.741293
338, 3, wb, attraction, a-b-da, 5, 1, 4, 37, 132, 58, 60, 135, 135, 60, 3, 0.966457
338, 3, wb, filler, NA, 999, 999, 5, 1, 140, 139, 92, 183, 164, 111, 2, 3.94796
338, 3, wb, filler, NA, 999, 999, 5, 1, 140, 139, 92, 183, 164, 111, 3, 0.764271
338, 3, wb, attraction, a-b-da, 5, 2, 5, 2, 161, 88, 165, 90, 90, 165, 1, 1.56304
338, 3, wb, attraction, a-b-da, 5, 2, 5, 2, 161, 88, 165, 90, 90, 165, 3, 1.28325
338, 3, wb, attraction, a-b-da, 5, 3, 5, 3, 190, 117, 195, 120, 120, 195, 1, 1.91754
338, 3, wb, attraction, a-b-da, 5, 3, 5, 3, 190, 117, 195, 120, 120, 195, 2, 0.72766
338, 3, wb, filler, NA, 999, 999, 5, 4, 146, 76, 194, 68, 189, 109, 1, 2.87197
338, 3, wb, filler, NA, 999, 999, 5, 4, 146, 76, 194, 68, 189, 109, 3, 0.467069
338, 3, wb, attraction, a-b-da, 14, 3, 5, 5, 181, 111, 120, 195, 195, 120, 1, 1.05406
338, 3, wb, attraction, a-b-da, 14, 3, 5, 5, 181, 111, 120, 195, 195, 120, 3, 0.603137
338, 3, wb, attraction, a-b-db, 5, 1, 5, 6, 58, 132, 135, 60, 60, 135, 1, 0.992801
338, 3, wb, attraction, a-b-db, 5, 1, 5, 6, 58, 132, 135, 60, 60, 135, 3, 0.655823
338, 3, wb, catch, NA, 999, 999, 5, 7, 122, 73, 131, 184, 95, 160, 1, 0.819603
338, 3, wb, catch, NA, 999, 999, 5, 7, 122, 73, 131, 184, 95, 160, 2, 0.506095
338, 3, wb, attraction, a-b-db, 9, 2, 5, 8, 90, 165, 165, 90, 86, 157, 2, 1.06781
338, 3, wb, attraction, a-b-db, 9, 2, 5, 8, 90, 165, 165, 90, 86, 157, 1, 0.464156
338, 3, wb, catch, NA, 999, 999, 5, 9, 137, 178, 131, 124, 60, 135, 3, 0.891289
338, 3, wb, catch, NA, 999, 999, 5, 9, 137, 178, 131, 124, 60, 135, 1, 0.550298
338, 3, wb, filler, NA, 999, 999, 5, 10, 190, 182, 102, 64, 74, 173, 2, 0.685914
338, 3, wb, filler, NA, 999, 999, 5, 10, 190, 182, 102, 64, 74, 173, 1, 0.489882
338, 3, wb, filler, NA, 999, 999, 5, 11, 176, 169, 106, 117, 84, 83, 3, 0.715571
338, 3, wb, filler, NA, 999, 999, 5, 11, 176, 169, 106, 117, 84, 83, 1, 0.421875
338, 3, wb, attraction, a-b-da, 9, 3, 5, 12, 195, 120, 120, 195, 186, 114, 1, 0.715156
338, 3, wb, attraction, a-b-da, 9, 3, 5, 12, 195, 120, 120, 195, 186, 114, 2, 1.44547
338, 3, wb, attraction, a-b-da, 14, 2, 5, 13, 165, 90, 90, 165, 153, 83, 2, 1.64911
338, 3, wb, attraction, a-b-da, 14, 2, 5, 13, 165, 90, 90, 165, 153, 83, 3, 0.597841
338, 3, wb, attraction, a-b-db, 9, 3, 5, 14, 195, 120, 114, 186, 120, 195, 2, 1.59561
338, 3, wb, attraction, a-b-db, 9, 3, 5, 14, 195, 120, 114, 186, 120, 195, 1, 0.562372
338, 3, wb, attraction, a-b-db, 14, 3, 5, 15, 120, 195, 111, 181, 195, 120, 2, 1.09743
338, 3, wb, attraction, a-b-db, 14, 3, 5, 15, 120, 195, 111, 181, 195, 120, 1, 0.972551
338, 3, wb, attraction, a-b-db, 5, 3, 5, 16, 117, 190, 195, 120, 120, 195, 2, 1.58744
338, 3, wb, attraction, a-b-db, 5, 3, 5, 16, 117, 190, 195, 120, 120, 195, 3, 0.738942
338, 3, wb, attraction, a-b-db, 14, 1, 5, 17, 135, 60, 60, 135, 56, 125, 3, 0.923205
338, 3, wb, attraction, a-b-db, 14, 1, 5, 17, 135, 60, 60, 135, 56, 125, 2, 1.09295
338, 3, wb, attraction, a-b-da, 9, 2, 5, 18, 157, 86, 90, 165, 165, 90, 1, 1.79065
338, 3, wb, attraction, a-b-da, 9, 2, 5, 18, 157, 86, 90, 165, 165, 90, 3, 0.717357
338, 3, wb, attraction, a-b-da, 2, 2, 5, 19, 165, 90, 163, 89, 90, 165, 3, 3.79031
338, 3, wb, attraction, a-b-da, 2, 2, 5, 19, 165, 90, 163, 89, 90, 165, 1, 1.05246
338, 3, wb, catch, NA, 999, 999, 5, 20, 120, 135, 98, 97, 125, 190, 2, 0.624113
338, 3, wb, catch, NA, 999, 999, 5, 20, 120, 135, 98, 97, 125, 190, 3, 0.461884
338, 3, wb, filler, NA, 999, 999, 5, 21, 59, 65, 57, 80, 123, 117, 1, 1.03297
338, 3, wb, filler, NA, 999, 999, 5, 21, 59, 65, 57, 80, 123, 117, 3, 0.558673
338, 3, wb, attraction, a-b-da, 2, 1, 5, 22, 134, 59, 135, 60, 60, 135, 2, 1.11767
338, 3, wb, attraction, a-b-da, 2, 1, 5, 22, 134, 59, 135, 60, 60, 135, 1, 0.664026
338, 3, wb, filler, NA, 999, 999, 5, 23, 97, 111, 150, 81, 94, 150, 1, 0.699105
338, 3, wb, filler, NA, 999, 999, 5, 23, 97, 111, 150, 81, 94, 150, 3, 0.758236
338, 3, wb, attraction, a-b-db, 14, 2, 5, 24, 90, 165, 165, 90, 83, 153, 3, 1.83721
338, 3, wb, attraction, a-b-db, 14, 2, 5, 24, 90, 165, 165, 90, 83, 153, 1, 0.650566
338, 3, wb, attraction, a-b-db, 2, 3, 5, 25, 119, 193, 195, 120, 120, 195, 1, 1.47828
338, 3, wb, attraction, a-b-db, 2, 3, 5, 25, 119, 193, 195, 120, 120, 195, 3, 0.545836
338, 3, wb, attraction, a-b-da, 9, 1, 5, 26, 135, 60, 129, 57, 60, 135, 2, 0.68164
338, 3, wb, attraction, a-b-da, 9, 1, 5, 26, 135, 60, 129, 57, 60, 135, 1, 0.653438
338, 3, wb, attraction, a-b-da, 14, 1, 5, 27, 135, 60, 60, 135, 125, 56, 2, 1.04115
338, 3, wb, attraction, a-b-da, 14, 1, 5, 27, 135, 60, 60, 135, 125, 56, 1, 0.470121
338, 3, wb, attraction, a-b-db, 9, 1, 5, 28, 135, 60, 57, 129, 60, 135, 2, 1.33738
338, 3, wb, attraction, a-b-db, 9, 1, 5, 28, 135, 60, 57, 129, 60, 135, 3, 1.01011
338, 3, wb, attraction, a-b-db, 2, 2, 5, 29, 89, 163, 165, 90, 90, 165, 1, 1.28705
338, 3, wb, attraction, a-b-db, 2, 2, 5, 29, 89, 163, 165, 90, 90, 165, 3, 0.506691
338, 3, wb, filler, NA, 999, 999, 5, 30, 155, 89, 176, 116, 68, 171, 1, 1.79642
338, 3, wb, filler, NA, 999, 999, 5, 30, 155, 89, 176, 116, 68, 171, 2, 0.491294
338, 3, wb, attraction, a-b-da, 2, 3, 5, 31, 195, 120, 193, 119, 120, 195, 1, 1.50897
338, 3, wb, attraction, a-b-da, 2, 3, 5, 31, 195, 120, 193, 119, 120, 195, 3, 0.511188
338, 3, wb, attraction, a-b-db, 5, 2, 5, 32, 90, 165, 88, 161, 165, 90, 2, 0.840232
338, 3, wb, attraction, a-b-db, 5, 2, 5, 32, 90, 165, 88, 161, 165, 90, 3, 1.12529
338, 3, wb, attraction, a-b-db, 2, 1, 5, 33, 60, 135, 135, 60, 59, 134, 2, 1.61358
338, 3, wb, attraction, a-b-db, 2, 1, 5, 33, 60, 135, 135, 60, 59, 134, 3, 0.595719
338, 3, wb, attraction, a-b-da, 5, 1, 5, 34, 132, 58, 60, 135, 135, 60, 1, 1.21738
338, 3, wb, attraction, a-b-da, 5, 1, 5, 34, 132, 58, 60, 135, 135, 60, 3, 0.783669
338, 3, wb, filler, NA, 999, 999, 5, 35, 125, 194, 191, 99, 57, 191, 3, 2.89409
338, 3, wb, filler, NA, 999, 999, 5, 35, 125, 194, 191, 99, 57, 191, 1, 0.432545
338, 3, wb, filler, NA, 999, 999, 5, 36, 85, 120, 107, 126, 90, 129, 1, 1.74093
338, 3, wb, filler, NA, 999, 999, 5, 36, 85, 120, 107, 126, 90, 129, 2, 0.845776
338, 3, wb, filler, NA, 999, 999, 5, 37, 123, 66, 106, 107, 63, 56, 3, 0.897404
338, 3, wb, filler, NA, 999, 999, 5, 37, 123, 66, 106, 107, 63, 56, 2, 0.940431
338, 3, wb, attraction, a-b-db, 5, 1, 6, 1, 60, 135, 135, 60, 58, 132, 1, 1.87606
338, 3, wb, attraction, a-b-db, 5, 1, 6, 1, 60, 135, 135, 60, 58, 132, 3, 1.06343
338, 3, wb, filler, NA, 999, 999, 6, 2, 182, 167, 156, 103, 186, 146, 2, 0.794324
338, 3, wb, filler, NA, 999, 999, 6, 2, 182, 167, 156, 103, 186, 146, 1, 1.34544
338, 3, wb, attraction, a-b-db, 2, 2, 6, 3, 90, 165, 165, 90, 89, 163, 2, 1.73698
338, 3, wb, attraction, a-b-db, 2, 2, 6, 3, 90, 165, 165, 90, 89, 163, 3, 1.21834
338, 3, wb, attraction, a-b-da, 5, 1, 6, 4, 132, 58, 135, 60, 60, 135, 2, 1.75926
338, 3, wb, attraction, a-b-da, 5, 1, 6, 4, 132, 58, 135, 60, 60, 135, 3, 0.74334
338, 3, wb, attraction, a-b-db, 5, 3, 6, 5, 120, 195, 117, 190, 195, 120, 1, 1.57502
338, 3, wb, attraction, a-b-db, 5, 3, 6, 5, 120, 195, 117, 190, 195, 120, 3, 0.822547
338, 3, wb, catch, NA, 999, 999, 6, 6, 68, 127, 193, 122, 96, 159, 1, 0.843616
338, 3, wb, catch, NA, 999, 999, 6, 6, 68, 127, 193, 122, 96, 159, 2, 0.976629
338, 3, wb, attraction, a-b-da, 14, 2, 6, 7, 90, 165, 153, 83, 165, 90, 2, 1.05497
338, 3, wb, attraction, a-b-da, 14, 2, 6, 7, 90, 165, 153, 83, 165, 90, 3, 0.563254
338, 3, wb, attraction, a-b-db, 14, 2, 6, 8, 165, 90, 83, 153, 90, 165, 1, 2.09036
338, 3, wb, attraction, a-b-db, 14, 2, 6, 8, 165, 90, 83, 153, 90, 165, 3, 0.573062
338, 3, wb, attraction, a-b-da, 5, 3, 6, 9, 195, 120, 190, 117, 120, 195, 2, 0.90809
338, 3, wb, attraction, a-b-da, 5, 3, 6, 9, 195, 120, 190, 117, 120, 195, 1, 0.710457
338, 3, wb, attraction, a-b-da, 2, 3, 6, 10, 193, 119, 195, 120, 120, 195, 2, 0.56751
338, 3, wb, attraction, a-b-da, 2, 3, 6, 10, 193, 119, 195, 120, 120, 195, 3, 0.815947
338, 3, wb, filler, NA, 999, 999, 6, 11, 59, 147, 117, 141, 61, 195, 1, 1.42103
338, 3, wb, filler, NA, 999, 999, 6, 11, 59, 147, 117, 141, 61, 195, 2, 0.859193
338, 3, wb, attraction, a-b-db, 9, 3, 6, 12, 120, 195, 195, 120, 114, 186, 1, 2.49415
338, 3, wb, attraction, a-b-db, 9, 3, 6, 12, 120, 195, 195, 120, 114, 186, 2, 0.616692
338, 3, wb, attraction, a-b-da, 2, 2, 6, 13, 90, 165, 165, 90, 163, 89, 1, 0.845806
338, 3, wb, attraction, a-b-da, 2, 2, 6, 13, 90, 165, 165, 90, 163, 89, 3, 0.994837
338, 3, wb, filler, NA, 999, 999, 6, 14, 160, 164, 92, 167, 60, 165, 3, 0.704578
338, 3, wb, filler, NA, 999, 999, 6, 14, 160, 164, 92, 167, 60, 165, 1, 0.706802
338, 3, wb, filler, NA, 999, 999, 6, 15, 122, 176, 57, 79, 148, 128, 2, 0.667926
338, 3, wb, filler, NA, 999, 999, 6, 15, 122, 176, 57, 79, 148, 128, 1, 1.02437
338, 3, wb, attraction, a-b-da, 9, 3, 6, 16, 186, 114, 195, 120, 120, 195, 1, 1.46877
338, 3, wb, attraction, a-b-da, 9, 3, 6, 16, 186, 114, 195, 120, 120, 195, 3, 0.400923
338, 3, wb, attraction, a-b-db, 2, 1, 6, 17, 135, 60, 60, 135, 59, 134, 1, 1.0948
338, 3, wb, attraction, a-b-db, 2, 1, 6, 17, 135, 60, 60, 135, 59, 134, 3, 0.721556
338, 3, wb, catch, NA, 999, 999, 6, 18, 85, 110, 143, 112, 170, 145, 1, 0.54674
338, 3, wb, catch, NA, 999, 999, 6, 18, 85, 110, 143, 112, 170, 145, 3, 0.611935
338, 3, wb, attraction, a-b-db, 9, 1, 6, 19, 135, 60, 57, 129, 60, 135, 3, 0.936876
338, 3, wb, attraction, a-b-db, 9, 1, 6, 19, 135, 60, 57, 129, 60, 135, 2, 1.04269
338, 3, wb, catch, NA, 999, 999, 6, 20, 164, 91, 195, 120, 114, 81, 3, 0.574209
338, 3, wb, catch, NA, 999, 999, 6, 20, 164, 91, 195, 120, 114, 81, 2, 0.726017
338, 3, wb, attraction, a-b-db, 5, 2, 6, 21, 88, 161, 165, 90, 90, 165, 1, 0.582447
338, 3, wb, attraction, a-b-db, 5, 2, 6, 21, 88, 161, 165, 90, 90, 165, 3, 0.782183
338, 3, wb, attraction, a-b-da, 9, 2, 6, 22, 165, 90, 157, 86, 90, 165, 2, 0.668498
338, 3, wb, attraction, a-b-da, 9, 2, 6, 22, 165, 90, 157, 86, 90, 165, 1, 0.632957
338, 3, wb, filler, NA, 999, 999, 6, 23, 79, 182, 121, 59, 132, 125, 2, 0.517312
338, 3, wb, filler, NA, 999, 999, 6, 23, 79, 182, 121, 59, 132, 125, 3, 0.679801
338, 3, wb, filler, NA, 999, 999, 6, 24, 150, 56, 61, 117, 167, 65, 2, 0.818211
338, 3, wb, filler, NA, 999, 999, 6, 24, 150, 56, 61, 117, 167, 65, 3, 0.704604
338, 3, wb, attraction, a-b-da, 14, 1, 6, 25, 135, 60, 125, 56, 60, 135, 2, 1.37842
338, 3, wb, attraction, a-b-da, 14, 1, 6, 25, 135, 60, 125, 56, 60, 135, 1, 0.473886
338, 3, wb, attraction, a-b-da, 9, 1, 6, 26, 129, 57, 135, 60, 60, 135, 2, 0.72435
338, 3, wb, attraction, a-b-da, 9, 1, 6, 26, 129, 57, 135, 60, 60, 135, 3, 0.64612
338, 3, wb, attraction, a-b-da, 5, 2, 6, 27, 161, 88, 165, 90, 90, 165, 3, 0.641825
338, 3, wb, attraction, a-b-da, 5, 2, 6, 27, 161, 88, 165, 90, 90, 165, 2, 0.646897
338, 3, wb, attraction, a-b-db, 14, 3, 6, 28, 111, 181, 195, 120, 120, 195, 1, 0.834611
338, 3, wb, attraction, a-b-db, 14, 3, 6, 28, 111, 181, 195, 120, 120, 195, 3, 0.656571
338, 3, wb, filler, NA, 999, 999, 6, 29, 135, 68, 104, 68, 76, 100, 3, 1.4441
338, 3, wb, filler, NA, 999, 999, 6, 29, 135, 68, 104, 68, 76, 100, 1, 0.888934
338, 3, wb, filler, NA, 999, 999, 6, 30, 151, 182, 171, 119, 95, 93, 3, 1.01931
338, 3, wb, filler, NA, 999, 999, 6, 30, 151, 182, 171, 119, 95, 93, 1, 0.705635
338, 3, wb, attraction, a-b-da, 14, 3, 6, 31, 195, 120, 181, 111, 120, 195, 1, 2.05938
338, 3, wb, attraction, a-b-da, 14, 3, 6, 31, 195, 120, 181, 111, 120, 195, 3, 0.455418
338, 3, wb, attraction, a-b-db, 2, 3, 6, 32, 195, 120, 120, 195, 119, 193, 2, 3.36312
338, 3, wb, attraction, a-b-db, 2, 3, 6, 32, 195, 120, 120, 195, 119, 193, 1, 0.794773
338, 3, wb, attraction, a-b-da, 2, 1, 6, 33, 135, 60, 134, 59, 60, 135, 2, 1.29656
338, 3, wb, attraction, a-b-da, 2, 1, 6, 33, 135, 60, 134, 59, 60, 135, 1, 1.19536
338, 3, wb, attraction, a-b-db, 9, 2, 6, 34, 165, 90, 90, 165, 86, 157, 2, 1.06488
338, 3, wb, attraction, a-b-db, 9, 2, 6, 34, 165, 90, 90, 165, 86, 157, 1, 0.893158
338, 3, wb, filler, NA, 999, 999, 6, 35, 157, 62, 95, 135, 155, 71, 1, 1.27093
338, 3, wb, filler, NA, 999, 999, 6, 35, 157, 62, 95, 135, 155, 71, 3, 1.06715
338, 3, wb, attraction, a-b-db, 14, 1, 6, 36, 135, 60, 56, 125, 60, 135, 2, 0.829979
338, 3, wb, attraction, a-b-db, 14, 1, 6, 36, 135, 60, 56, 125, 60, 135, 1, 0.875932
338, 3, wb, filler, NA, 999, 999, 6, 37, 136, 171, 82, 124, 122, 133, 2, 0.702022
338, 3, wb, filler, NA, 999, 999, 6, 37, 136, 171, 82, 124, 122, 133, 1, 0.697163
338, 3, wb, attraction, a-b-da, 5, 3, 7, 1, 195, 120, 120, 195, 190, 117, 1, 1.04296
338, 3, wb, attraction, a-b-da, 5, 3, 7, 1, 195, 120, 120, 195, 190, 117, 3, 0.751891
338, 3, wb, attraction, a-b-da, 9, 3, 7, 2, 186, 114, 195, 120, 120, 195, 2, 1.33561
338, 3, wb, attraction, a-b-da, 9, 3, 7, 2, 186, 114, 195, 120, 120, 195, 3, 0.481231
338, 3, wb, attraction, a-b-db, 2, 1, 7, 3, 60, 135, 135, 60, 59, 134, 1, 1.11558
338, 3, wb, attraction, a-b-db, 2, 1, 7, 3, 60, 135, 135, 60, 59, 134, 3, 0.613972
338, 3, wb, attraction, a-b-db, 2, 2, 7, 4, 90, 165, 165, 90, 89, 163, 2, 0.515035
338, 3, wb, attraction, a-b-db, 2, 2, 7, 4, 90, 165, 165, 90, 89, 163, 3, 0.629457
338, 3, wb, attraction, a-b-db, 9, 3, 7, 5, 195, 120, 114, 186, 120, 195, 2, 0.609913
338, 3, wb, attraction, a-b-db, 9, 3, 7, 5, 195, 120, 114, 186, 120, 195, 3, 10.3284
338, 3, wb, filler, NA, 999, 999, 7, 6, 106, 64, 101, 88, 118, 149, 1, 1.50164
338, 3, wb, filler, NA, 999, 999, 7, 6, 106, 64, 101, 88, 118, 149, 3, 0.77667
338, 3, wb, filler, NA, 999, 999, 7, 7, 113, 84, 67, 111, 186, 164, 2, 1.295
338, 3, wb, filler, NA, 999, 999, 7, 7, 113, 84, 67, 111, 186, 164, 3, 0.521858
338, 3, wb, attraction, a-b-db, 9, 2, 7, 8, 165, 90, 86, 157, 90, 165, 2, 1.77106
338, 3, wb, attraction, a-b-db, 9, 2, 7, 8, 165, 90, 86, 157, 90, 165, 1, 0.467005
338, 3, wb, attraction, a-b-db, 14, 3, 7, 9, 195, 120, 111, 181, 120, 195, 2, 0.822134
338, 3, wb, attraction, a-b-db, 14, 3, 7, 9, 195, 120, 111, 181, 120, 195, 1, 0.443929
338, 3, wb, filler, NA, 999, 999, 7, 10, 168, 155, 109, 76, 190, 63, 2, 1.49566
338, 3, wb, filler, NA, 999, 999, 7, 10, 168, 155, 109, 76, 190, 63, 1, 0.658458
338, 3, wb, filler, NA, 999, 999, 7, 11, 154, 78, 73, 144, 190, 74, 2, 1.85355
338, 3, wb, filler, NA, 999, 999, 7, 11, 154, 78, 73, 144, 190, 74, 3, 0.666316
338, 3, wb, attraction, a-b-da, 14, 1, 7, 12, 60, 135, 125, 56, 135, 60, 2, 1.06136
338, 3, wb, attraction, a-b-da, 14, 1, 7, 12, 60, 135, 125, 56, 135, 60, 3, 0.569782
338, 3, wb, attraction, a-b-db, 5, 1, 7, 13, 60, 135, 135, 60, 58, 132, 2, 1.3688
338, 3, wb, attraction, a-b-db, 5, 1, 7, 13, 60, 135, 135, 60, 58, 132, 3, 0.680936
338, 3, wb, attraction, a-b-da, 14, 3, 7, 14, 120, 195, 181, 111, 195, 120, 2, 1.69142
338, 3, wb, attraction, a-b-da, 14, 3, 7, 14, 120, 195, 181, 111, 195, 120, 3, 0.88616
338, 3, wb, catch, NA, 999, 999, 7, 15, 103, 92, 180, 135, 137, 118, 1, 0.768538
338, 3, wb, catch, NA, 999, 999, 7, 15, 103, 92, 180, 135, 137, 118, 2, 0.656908
338, 3, wb, attraction, a-b-da, 5, 2, 7, 16, 90, 165, 165, 90, 161, 88, 2, 0.771959
338, 3, wb, attraction, a-b-da, 5, 2, 7, 16, 90, 165, 165, 90, 161, 88, 3, 0.443722
338, 3, wb, attraction, a-b-da, 2, 3, 7, 17, 195, 120, 120, 195, 193, 119, 3, 1.91149
338, 3, wb, attraction, a-b-da, 2, 3, 7, 17, 195, 120, 120, 195, 193, 119, 1, 1.05749
338, 3, wb, attraction, a-b-da, 9, 1, 7, 18, 60, 135, 135, 60, 129, 57, 3, 1.97249
338, 3, wb, attraction, a-b-da, 9, 1, 7, 18, 60, 135, 135, 60, 129, 57, 2, 0.899806
338, 3, wb, attraction, a-b-da, 5, 1, 7, 19, 132, 58, 135, 60, 60, 135, 1, 1.54161
338, 3, wb, attraction, a-b-da, 5, 1, 7, 19, 132, 58, 135, 60, 60, 135, 2, 1.01436
338, 3, wb, attraction, a-b-da, 2, 2, 7, 20, 165, 90, 163, 89, 90, 165, 3, 1.4834
338, 3, wb, attraction, a-b-da, 2, 2, 7, 20, 165, 90, 163, 89, 90, 165, 1, 1.19879
338, 3, wb, catch, NA, 999, 999, 7, 21, 61, 134, 192, 123, 134, 121, 1, 0.756383
338, 3, wb, catch, NA, 999, 999, 7, 21, 61, 134, 192, 123, 134, 121, 2, 0.572897
338, 3, wb, attraction, a-b-db, 14, 2, 7, 22, 83, 153, 165, 90, 90, 165, 2, 0.787889
338, 3, wb, attraction, a-b-db, 14, 2, 7, 22, 83, 153, 165, 90, 90, 165, 3, 0.363595
338, 3, wb, filler, NA, 999, 999, 7, 23, 175, 172, 104, 190, 151, 188, 2, 1.05885
338, 3, wb, filler, NA, 999, 999, 7, 23, 175, 172, 104, 190, 151, 188, 1, 0.479141
338, 3, wb, attraction, a-b-db, 14, 1, 7, 24, 60, 135, 56, 125, 135, 60, 2, 0.761497
338, 3, wb, attraction, a-b-db, 14, 1, 7, 24, 60, 135, 56, 125, 135, 60, 1, 0.665961
338, 3, wb, filler, NA, 999, 999, 7, 25, 120, 142, 106, 64, 161, 153, 2, 0.620963
338, 3, wb, filler, NA, 999, 999, 7, 25, 120, 142, 106, 64, 161, 153, 3, 0.586788
338, 3, wb, attraction, a-b-db, 5, 2, 7, 26, 90, 165, 165, 90, 88, 161, 2, 0.929205
338, 3, wb, attraction, a-b-db, 5, 2, 7, 26, 90, 165, 165, 90, 88, 161, 1, 0.570824
338, 3, wb, attraction, a-b-da, 9, 2, 7, 27, 165, 90, 157, 86, 90, 165, 2, 0.770019
338, 3, wb, attraction, a-b-da, 9, 2, 7, 27, 165, 90, 157, 86, 90, 165, 1, 0.698322
338, 3, wb, attraction, a-b-da, 14, 2, 7, 28, 90, 165, 153, 83, 165, 90, 2, 0.724027
338, 3, wb, attraction, a-b-da, 14, 2, 7, 28, 90, 165, 153, 83, 165, 90, 3, 0.605857
338, 3, wb, attraction, a-b-db, 5, 3, 7, 29, 117, 190, 195, 120, 120, 195, 3, 0.84351
338, 3, wb, attraction, a-b-db, 5, 3, 7, 29, 117, 190, 195, 120, 120, 195, 2, 0.616731
338, 3, wb, attraction, a-b-db, 9, 1, 7, 30, 60, 135, 135, 60, 57, 129, 2, 0.813792
338, 3, wb, attraction, a-b-db, 9, 1, 7, 30, 60, 135, 135, 60, 57, 129, 3, 0.524171
338, 3, wb, filler, NA, 999, 999, 7, 31, 141, 60, 137, 127, 157, 172, 1, 0.756512
338, 3, wb, filler, NA, 999, 999, 7, 31, 141, 60, 137, 127, 157, 172, 3, 0.524885
338, 3, wb, attraction, a-b-db, 2, 3, 7, 32, 195, 120, 119, 193, 120, 195, 3, 1.51744
338, 3, wb, attraction, a-b-db, 2, 3, 7, 32, 195, 120, 119, 193, 120, 195, 2, 0.767547
338, 3, wb, catch, NA, 999, 999, 7, 33, 186, 129, 132, 123, 89, 106, 3, 0.630565
338, 3, wb, catch, NA, 999, 999, 7, 33, 186, 129, 132, 123, 89, 106, 1, 0.692457
338, 3, wb, filler, NA, 999, 999, 7, 34, 168, 147, 186, 100, 56, 71, 3, 0.726116
338, 3, wb, filler, NA, 999, 999, 7, 34, 168, 147, 186, 100, 56, 71, 1, 0.73585
338, 3, wb, attraction, a-b-da, 2, 1, 7, 35, 60, 135, 134, 59, 135, 60, 1, 0.664193
338, 3, wb, attraction, a-b-da, 2, 1, 7, 35, 60, 135, 134, 59, 135, 60, 3, 0.700648
338, 3, wb, filler, NA, 999, 999, 7, 36, 104, 182, 182, 81, 107, 161, 2, 0.662359
338, 3, wb, filler, NA, 999, 999, 7, 36, 104, 182, 182, 81, 107, 161, 1, 0.586883
338, 3, wb, filler, NA, 999, 999, 7, 37, 159, 180, 78, 178, 149, 124, 2, 1.1772
338, 3, wb, filler, NA, 999, 999, 7, 37, 159, 180, 78, 178, 149, 124, 1, 0.536837
338, 3, wb, attraction, a-b-da, 14, 2, 8, 1, 165, 90, 90, 165, 153, 83, 1, 1.46518
338, 3, wb, attraction, a-b-da, 14, 2, 8, 1, 165, 90, 90, 165, 153, 83, 2, 1.79754
338, 3, wb, attraction, a-b-db, 9, 2, 8, 2, 90, 165, 86, 157, 165, 90, 2, 1.19489
338, 3, wb, attraction, a-b-db, 9, 2, 8, 2, 90, 165, 86, 157, 165, 90, 3, 0.489919
338, 3, wb, attraction, a-b-da, 2, 1, 8, 3, 135, 60, 60, 135, 134, 59, 2, 1.4522
338, 3, wb, attraction, a-b-da, 2, 1, 8, 3, 135, 60, 60, 135, 134, 59, 3, 0.49715
338, 3, wb, attraction, a-b-da, 9, 3, 8, 4, 186, 114, 120, 195, 195, 120, 2, 1.09892
338, 3, wb, attraction, a-b-da, 9, 3, 8, 4, 186, 114, 120, 195, 195, 120, 3, 0.517795
338, 3, wb, catch, NA, 999, 999, 8, 5, 138, 117, 192, 123, 95, 100, 3, 0.982986
338, 3, wb, catch, NA, 999, 999, 8, 5, 138, 117, 192, 123, 95, 100, 2, 0.478701
338, 3, wb, filler, NA, 999, 999, 8, 6, 73, 128, 159, 114, 108, 144, 1, 0.817054
338, 3, wb, filler, NA, 999, 999, 8, 6, 73, 128, 159, 114, 108, 144, 3, 0.495458
338, 3, wb, attraction, a-b-db, 2, 3, 8, 7, 119, 193, 120, 195, 195, 120, 3, 0.969215
338, 3, wb, attraction, a-b-db, 2, 3, 8, 7, 119, 193, 120, 195, 195, 120, 1, 0.673535
338, 3, wb, catch, NA, 999, 999, 8, 8, 114, 141, 144, 171, 99, 96, 3, 0.611924
338, 3, wb, catch, NA, 999, 999, 8, 8, 114, 141, 144, 171, 99, 96, 2, 0.50641
338, 3, wb, filler, NA, 999, 999, 8, 9, 160, 63, 128, 62, 146, 87, 2, 1.73226
338, 3, wb, filler, NA, 999, 999, 8, 9, 160, 63, 128, 62, 146, 87, 3, 0.773789
338, 3, wb, filler, NA, 999, 999, 8, 10, 188, 154, 158, 93, 67, 163, 2, 1.372
338, 3, wb, filler, NA, 999, 999, 8, 10, 188, 154, 158, 93, 67, 163, 1, 0.667614
338, 3, wb, filler, NA, 999, 999, 8, 11, 129, 66, 135, 178, 110, 164, 1, 0.758613
338, 3, wb, filler, NA, 999, 999, 8, 11, 129, 66, 135, 178, 110, 164, 2, 0.511113
338, 3, wb, attraction, a-b-da, 2, 3, 8, 12, 195, 120, 120, 195, 193, 119, 1, 1.30415
338, 3, wb, attraction, a-b-da, 2, 3, 8, 12, 195, 120, 120, 195, 193, 119, 3, 0.618965
338, 3, wb, attraction, a-b-da, 9, 1, 8, 13, 135, 60, 60, 135, 129, 57, 2, 0.864076
338, 3, wb, attraction, a-b-da, 9, 1, 8, 13, 135, 60, 60, 135, 129, 57, 1, 0.492491
338, 3, wb, attraction, a-b-da, 9, 2, 8, 14, 157, 86, 90, 165, 165, 90, 2, 0.894274
338, 3, wb, attraction, a-b-da, 9, 2, 8, 14, 157, 86, 90, 165, 165, 90, 3, 0.529405
338, 3, wb, filler, NA, 999, 999, 8, 15, 194, 63, 137, 132, 110, 142, 3, 1.3697
338, 3, wb, filler, NA, 999, 999, 8, 15, 194, 63, 137, 132, 110, 142, 2, 0.497888
338, 3, wb, filler, NA, 999, 999, 8, 16, 102, 149, 143, 119, 154, 171, 1, 0.739659
338, 3, wb, filler, NA, 999, 999, 8, 16, 102, 149, 143, 119, 154, 171, 3, 0.58079
338, 3, wb, catch, NA, 999, 999, 8, 17, 65, 130, 163, 92, 134, 181, 1, 0.747277
338, 3, wb, catch, NA, 999, 999, 8, 17, 65, 130, 163, 92, 134, 181, 3, 0.524265
338, 3, wb, filler, NA, 999, 999, 8, 18, 123, 77, 139, 124, 136, 112, 1, 0.708839
338, 3, wb, filler, NA, 999, 999, 8, 18, 123, 77, 139, 124, 136, 112, 2, 0.48721
338, 3, wb, attraction, a-b-db, 14, 2, 8, 19, 83, 153, 90, 165, 165, 90, 1, 0.905601
338, 3, wb, attraction, a-b-db, 14, 2, 8, 19, 83, 153, 90, 165, 165, 90, 3, 0.435985
338, 3, wb, filler, NA, 999, 999, 8, 20, 108, 182, 137, 72, 155, 114, 2, 0.624444
338, 3, wb, filler, NA, 999, 999, 8, 20, 108, 182, 137, 72, 155, 114, 1, 0.798259
338, 3, wb, attraction, a-b-db, 2, 2, 8, 21, 89, 163, 90, 165, 165, 90, 2, 0.884059
338, 3, wb, attraction, a-b-db, 2, 2, 8, 21, 89, 163, 90, 165, 165, 90, 3, 0.591697
338, 3, wb, attraction, a-b-db, 9, 3, 8, 22, 195, 120, 120, 195, 114, 186, 2, 0.885334
338, 3, wb, attraction, a-b-db, 9, 3, 8, 22, 195, 120, 120, 195, 114, 186, 1, 0.489064
338, 3, wb, attraction, a-b-db, 14, 1, 8, 23, 56, 125, 135, 60, 60, 135, 1, 0.971584
338, 3, wb, attraction, a-b-db, 14, 1, 8, 23, 56, 125, 135, 60, 60, 135, 3, 0.49923
338, 3, wb, filler, NA, 999, 999, 8, 24, 59, 193, 102, 156, 96, 159, 1, 0.82889
338, 3, wb, filler, NA, 999, 999, 8, 24, 59, 193, 102, 156, 96, 159, 2, 0.76273
338, 3, wb, attraction, a-b-db, 9, 1, 8, 25, 57, 129, 135, 60, 60, 135, 1, 0.8177
338, 3, wb, attraction, a-b-db, 9, 1, 8, 25, 57, 129, 135, 60, 60, 135, 3, 0.592148
338, 3, wb, attraction, a-b-db, 14, 3, 8, 26, 111, 181, 120, 195, 195, 120, 1, 1.38189
338, 3, wb, attraction, a-b-db, 14, 3, 8, 26, 111, 181, 120, 195, 195, 120, 3, 1.02941
338, 3, wb, attraction, a-b-db, 2, 1, 8, 27, 59, 134, 135, 60, 60, 135, 2, 1.54576
338, 3, wb, attraction, a-b-db, 2, 1, 8, 27, 59, 134, 135, 60, 60, 135, 3, 0.754509
338, 3, wb, attraction, a-b-da, 2, 2, 8, 28, 165, 90, 163, 89, 90, 165, 2, 2.0742
338, 3, wb, attraction, a-b-da, 2, 2, 8, 28, 165, 90, 163, 89, 90, 165, 1, 0.797671
338, 3, wb, attraction, a-b-da, 5, 2, 8, 29, 161, 88, 165, 90, 90, 165, 1, 1.34731
338, 3, wb, attraction, a-b-da, 5, 2, 8, 29, 161, 88, 165, 90, 90, 165, 3, 0.47623
338, 3, wb, attraction, a-b-da, 14, 1, 8, 30, 125, 56, 60, 135, 135, 60, 2, 1.00658
338, 3, wb, attraction, a-b-da, 14, 1, 8, 30, 125, 56, 60, 135, 135, 60, 3, 0.764928
338, 3, wb, attraction, a-b-da, 5, 1, 8, 31, 132, 58, 135, 60, 60, 135, 2, 1.12396
338, 3, wb, attraction, a-b-da, 5, 1, 8, 31, 132, 58, 135, 60, 60, 135, 1, 0.541531
338, 3, wb, filler, NA, 999, 999, 8, 32, 103, 147, 168, 102, 163, 172, 1, 2.16539
338, 3, wb, filler, NA, 999, 999, 8, 32, 103, 147, 168, 102, 163, 172, 3, 0.509324
338, 3, wb, attraction, a-b-db, 5, 2, 8, 33, 165, 90, 88, 161, 90, 165, 2, 1.30253
338, 3, wb, attraction, a-b-db, 5, 2, 8, 33, 165, 90, 88, 161, 90, 165, 1, 0.385307
338, 3, wb, attraction, a-b-da, 5, 3, 8, 34, 120, 195, 195, 120, 190, 117, 3, 0.983884
338, 3, wb, attraction, a-b-da, 5, 3, 8, 34, 120, 195, 195, 120, 190, 117, 1, 0.727566
338, 3, wb, attraction, a-b-db, 5, 1, 8, 35, 135, 60, 60, 135, 58, 132, 3, 1.05601
338, 3, wb, attraction, a-b-db, 5, 1, 8, 35, 135, 60, 60, 135, 58, 132, 2, 0.964174
338, 3, wb, attraction, a-b-db, 5, 3, 8, 36, 120, 195, 195, 120, 117, 190, 1, 2.29117
338, 3, wb, attraction, a-b-db, 5, 3, 8, 36, 120, 195, 195, 120, 117, 190, 3, 0.50178
338, 3, wb, attraction, a-b-da, 14, 3, 8, 37, 195, 120, 120, 195, 181, 111, 3, 4.40748
338, 3, wb, attraction, a-b-da, 14, 3, 8, 37, 195, 120, 120, 195, 181, 111, 2, 0.796798
