sub_n, computer_n, bw_cond, effect, set, distance, diag, block_n, trial_n, h1, w1, h2, w2, h3, w3, choice, rt 
377, 3, bw, practice, NA, 999, 999, 0, 1, 124, 87, 166, 147, 174, 110, 2, 4.26996
377, 3, bw, practice, NA, 999, 999, 0, 1, 124, 87, 166, 147, 174, 110, 1, 1.82643
377, 3, bw, practice, NA, 999, 999, 0, 2, 106, 144, 156, 98, 133, 122, 2, 6.21875
377, 3, bw, practice, NA, 999, 999, 0, 2, 106, 144, 156, 98, 133, 122, 1, 3.79274
377, 3, bw, practice, NA, 999, 999, 0, 3, 162, 115, 137, 99, 62, 174, 1, 2.48982
377, 3, bw, practice, NA, 999, 999, 0, 3, 162, 115, 137, 99, 62, 174, 3, 3.40486
377, 3, bw, attraction, a-b-db, 9, 1, 1, 1, 135, 60, 57, 129, 60, 135, 3, 6.58364
377, 3, bw, attraction, a-b-db, 9, 1, 1, 1, 135, 60, 57, 129, 60, 135, 2, 4.06145
377, 3, bw, attraction, a-b-da, 2, 3, 1, 2, 195, 120, 193, 119, 120, 195, 3, 2.3915
377, 3, bw, attraction, a-b-da, 2, 3, 1, 2, 195, 120, 193, 119, 120, 195, 1, 4.51806
377, 3, bw, attraction, a-b-db, 5, 2, 1, 3, 90, 165, 165, 90, 88, 161, 1, 4.92594
377, 3, bw, attraction, a-b-db, 5, 2, 1, 3, 90, 165, 165, 90, 88, 161, 3, 1.41443
377, 3, bw, filler, NA, 999, 999, 1, 4, 130, 58, 154, 84, 82, 139, 3, 3.60312
377, 3, bw, filler, NA, 999, 999, 1, 4, 130, 58, 154, 84, 82, 139, 1, 1.13744
377, 3, bw, filler, NA, 999, 999, 1, 5, 100, 116, 66, 74, 183, 74, 3, 2.97765
377, 3, bw, filler, NA, 999, 999, 1, 5, 100, 116, 66, 74, 183, 74, 2, 2.72881
377, 3, bw, attraction, a-b-db, 14, 3, 1, 6, 120, 195, 111, 181, 195, 120, 1, 8.21642
377, 3, bw, attraction, a-b-db, 14, 3, 1, 6, 120, 195, 111, 181, 195, 120, 2, 1.46852
377, 3, bw, attraction, a-b-da, 5, 3, 1, 7, 190, 117, 120, 195, 195, 120, 2, 6.41539
377, 3, bw, attraction, a-b-da, 5, 3, 1, 7, 190, 117, 120, 195, 195, 120, 1, 0.803936
377, 3, bw, attraction, a-b-da, 2, 2, 1, 8, 165, 90, 163, 89, 90, 165, 3, 3.04163
377, 3, bw, attraction, a-b-da, 2, 2, 1, 8, 165, 90, 163, 89, 90, 165, 1, 1.10198
377, 3, bw, filler, NA, 999, 999, 1, 9, 109, 144, 121, 99, 64, 106, 1, 3.15164
377, 3, bw, filler, NA, 999, 999, 1, 9, 109, 144, 121, 99, 64, 106, 3, 0.823966
377, 3, bw, attraction, a-b-da, 2, 1, 1, 10, 134, 59, 60, 135, 135, 60, 2, 3.86829
377, 3, bw, attraction, a-b-da, 2, 1, 1, 10, 134, 59, 60, 135, 135, 60, 1, 0.855759
377, 3, bw, attraction, a-b-db, 5, 3, 1, 11, 120, 195, 117, 190, 195, 120, 1, 2.6993
377, 3, bw, attraction, a-b-db, 5, 3, 1, 11, 120, 195, 117, 190, 195, 120, 3, 0.837831
377, 3, bw, catch, NA, 999, 999, 1, 12, 125, 190, 87, 108, 101, 154, 1, 2.17024
377, 3, bw, catch, NA, 999, 999, 1, 12, 125, 190, 87, 108, 101, 154, 2, 1.13019
377, 3, bw, attraction, a-b-da, 5, 1, 1, 13, 60, 135, 132, 58, 135, 60, 3, 2.2745
377, 3, bw, attraction, a-b-da, 5, 1, 1, 13, 60, 135, 132, 58, 135, 60, 1, 0.749801
377, 3, bw, filler, NA, 999, 999, 1, 14, 140, 126, 172, 95, 97, 155, 2, 7.78931
377, 3, bw, filler, NA, 999, 999, 1, 14, 140, 126, 172, 95, 97, 155, 3, 1.827
377, 3, bw, attraction, a-b-db, 9, 3, 1, 15, 114, 186, 120, 195, 195, 120, 2, 3.39095
377, 3, bw, attraction, a-b-db, 9, 3, 1, 15, 114, 186, 120, 195, 195, 120, 1, 0.965144
377, 3, bw, attraction, a-b-da, 14, 2, 1, 16, 153, 83, 90, 165, 165, 90, 2, 5.06012
377, 3, bw, attraction, a-b-da, 14, 2, 1, 16, 153, 83, 90, 165, 165, 90, 1, 0.695247
377, 3, bw, attraction, a-b-da, 9, 1, 1, 17, 60, 135, 135, 60, 129, 57, 1, 6.91296
377, 3, bw, attraction, a-b-da, 9, 1, 1, 17, 60, 135, 135, 60, 129, 57, 3, 1.28936
377, 3, bw, attraction, a-b-da, 5, 2, 1, 18, 161, 88, 90, 165, 165, 90, 2, 2.00361
377, 3, bw, attraction, a-b-da, 5, 2, 1, 18, 161, 88, 90, 165, 165, 90, 3, 2.31438
377, 3, bw, filler, NA, 999, 999, 1, 19, 179, 169, 81, 192, 157, 143, 1, 4.35485
377, 3, bw, filler, NA, 999, 999, 1, 19, 179, 169, 81, 192, 157, 143, 2, 1.94692
377, 3, bw, attraction, a-b-db, 5, 1, 1, 20, 58, 132, 60, 135, 135, 60, 2, 10.4742
377, 3, bw, attraction, a-b-db, 5, 1, 1, 20, 58, 132, 60, 135, 135, 60, 1, 1.44293
377, 3, bw, attraction, a-b-da, 14, 3, 1, 21, 195, 120, 181, 111, 120, 195, 3, 2.58236
377, 3, bw, attraction, a-b-da, 14, 3, 1, 21, 195, 120, 181, 111, 120, 195, 2, 0.893574
377, 3, bw, filler, NA, 999, 999, 1, 22, 113, 186, 127, 126, 122, 161, 1, 2.73522
377, 3, bw, filler, NA, 999, 999, 1, 22, 113, 186, 127, 126, 122, 161, 2, 0.552355
377, 3, bw, catch, NA, 999, 999, 1, 23, 118, 137, 92, 103, 138, 177, 3, 3.08014
377, 3, bw, catch, NA, 999, 999, 1, 23, 118, 137, 92, 103, 138, 177, 2, 1.33113
377, 3, bw, attraction, a-b-da, 9, 2, 1, 24, 90, 165, 165, 90, 157, 86, 1, 8.41917
377, 3, bw, attraction, a-b-da, 9, 2, 1, 24, 90, 165, 165, 90, 157, 86, 3, 1.02325
377, 3, bw, attraction, a-b-db, 14, 2, 1, 25, 90, 165, 165, 90, 83, 153, 1, 5.75634
377, 3, bw, attraction, a-b-db, 14, 2, 1, 25, 90, 165, 165, 90, 83, 153, 3, 1.17977
377, 3, bw, filler, NA, 999, 999, 1, 26, 112, 117, 130, 80, 60, 64, 1, 2.69012
377, 3, bw, filler, NA, 999, 999, 1, 26, 112, 117, 130, 80, 60, 64, 3, 0.700507
377, 3, bw, catch, NA, 999, 999, 1, 27, 120, 195, 87, 108, 138, 117, 1, 1.89416
377, 3, bw, catch, NA, 999, 999, 1, 27, 120, 195, 87, 108, 138, 117, 2, 0.824831
377, 3, bw, filler, NA, 999, 999, 1, 28, 72, 171, 153, 85, 174, 106, 3, 2.3013
377, 3, bw, filler, NA, 999, 999, 1, 28, 72, 171, 153, 85, 174, 106, 1, 0.951819
377, 3, bw, attraction, a-b-db, 14, 1, 1, 29, 60, 135, 56, 125, 135, 60, 1, 10.4875
377, 3, bw, attraction, a-b-db, 14, 1, 1, 29, 60, 135, 56, 125, 135, 60, 2, 1.20835
377, 3, bw, attraction, a-b-da, 9, 3, 1, 30, 195, 120, 120, 195, 186, 114, 2, 2.13302
377, 3, bw, attraction, a-b-da, 9, 3, 1, 30, 195, 120, 120, 195, 186, 114, 3, 1.91032
377, 3, bw, attraction, a-b-db, 2, 3, 1, 31, 195, 120, 120, 195, 119, 193, 2, 6.29499
377, 3, bw, attraction, a-b-db, 2, 3, 1, 31, 195, 120, 120, 195, 119, 193, 3, 1.36832
377, 3, bw, attraction, a-b-db, 9, 2, 1, 32, 165, 90, 90, 165, 86, 157, 2, 7.79923
377, 3, bw, attraction, a-b-db, 9, 2, 1, 32, 165, 90, 90, 165, 86, 157, 1, 2.19612
377, 3, bw, attraction, a-b-db, 2, 1, 1, 33, 60, 135, 59, 134, 135, 60, 2, 16.8973
377, 3, bw, attraction, a-b-db, 2, 1, 1, 33, 60, 135, 59, 134, 135, 60, 1, 1.8234
377, 3, bw, filler, NA, 999, 999, 1, 34, 189, 108, 98, 167, 84, 91, 1, 2.64417
377, 3, bw, filler, NA, 999, 999, 1, 34, 189, 108, 98, 167, 84, 91, 3, 1.12853
377, 3, bw, attraction, a-b-da, 14, 1, 1, 35, 125, 56, 135, 60, 60, 135, 3, 11.5768
377, 3, bw, attraction, a-b-da, 14, 1, 1, 35, 125, 56, 135, 60, 60, 135, 1, 1.6772
377, 3, bw, filler, NA, 999, 999, 1, 36, 123, 173, 70, 113, 192, 143, 3, 0.879247
377, 3, bw, filler, NA, 999, 999, 1, 36, 123, 173, 70, 113, 192, 143, 2, 0.698947
377, 3, bw, attraction, a-b-db, 2, 2, 1, 37, 89, 163, 90, 165, 165, 90, 2, 2.95672
377, 3, bw, attraction, a-b-db, 2, 2, 1, 37, 89, 163, 90, 165, 165, 90, 1, 1.25247
377, 3, bw, attraction, a-b-db, 2, 1, 2, 1, 60, 135, 59, 134, 135, 60, 2, 4.62387
377, 3, bw, attraction, a-b-db, 2, 1, 2, 1, 60, 135, 59, 134, 135, 60, 1, 0.724419
377, 3, bw, filler, NA, 999, 999, 2, 2, 183, 144, 165, 193, 190, 60, 2, 1.07683
377, 3, bw, filler, NA, 999, 999, 2, 2, 183, 144, 165, 193, 190, 60, 3, 1.32047
377, 3, bw, attraction, a-b-da, 14, 3, 2, 3, 181, 111, 120, 195, 195, 120, 2, 1.63335
377, 3, bw, attraction, a-b-da, 14, 3, 2, 3, 181, 111, 120, 195, 195, 120, 1, 0.550867
377, 3, bw, filler, NA, 999, 999, 2, 4, 142, 84, 148, 129, 126, 148, 2, 2.59856
377, 3, bw, filler, NA, 999, 999, 2, 4, 142, 84, 148, 129, 126, 148, 1, 1.64514
377, 3, bw, attraction, a-b-db, 14, 3, 2, 5, 111, 181, 195, 120, 120, 195, 3, 2.37667
377, 3, bw, attraction, a-b-db, 14, 3, 2, 5, 111, 181, 195, 120, 120, 195, 1, 0.887814
377, 3, bw, attraction, a-b-db, 5, 1, 2, 6, 58, 132, 60, 135, 135, 60, 3, 10.2742
377, 3, bw, attraction, a-b-db, 5, 1, 2, 6, 58, 132, 60, 135, 135, 60, 1, 0.914859
377, 3, bw, attraction, a-b-db, 14, 1, 2, 7, 56, 125, 135, 60, 60, 135, 3, 3.62793
377, 3, bw, attraction, a-b-db, 14, 1, 2, 7, 56, 125, 135, 60, 60, 135, 1, 1.41663
377, 3, bw, filler, NA, 999, 999, 2, 8, 82, 152, 106, 104, 131, 100, 1, 3.98141
377, 3, bw, filler, NA, 999, 999, 2, 8, 82, 152, 106, 104, 131, 100, 2, 0.452157
377, 3, bw, catch, NA, 999, 999, 2, 9, 154, 161, 90, 105, 139, 116, 1, 1.12794
377, 3, bw, catch, NA, 999, 999, 2, 9, 154, 161, 90, 105, 139, 116, 2, 0.649739
377, 3, bw, attraction, a-b-db, 9, 1, 2, 10, 135, 60, 57, 129, 60, 135, 1, 9.77342
377, 3, bw, attraction, a-b-db, 9, 1, 2, 10, 135, 60, 57, 129, 60, 135, 2, 2.13896
377, 3, bw, attraction, a-b-da, 9, 1, 2, 11, 135, 60, 60, 135, 129, 57, 2, 3.30693
377, 3, bw, attraction, a-b-da, 9, 1, 2, 11, 135, 60, 60, 135, 129, 57, 1, 2.3326
377, 3, bw, attraction, a-b-da, 5, 3, 2, 12, 120, 195, 190, 117, 195, 120, 2, 2.43638
377, 3, bw, attraction, a-b-da, 5, 3, 2, 12, 120, 195, 190, 117, 195, 120, 3, 4.60161
377, 3, bw, attraction, a-b-db, 5, 2, 2, 13, 165, 90, 90, 165, 88, 161, 1, 1.51811
377, 3, bw, attraction, a-b-db, 5, 2, 2, 13, 165, 90, 90, 165, 88, 161, 3, 1.02425
377, 3, bw, attraction, a-b-da, 14, 2, 2, 14, 90, 165, 153, 83, 165, 90, 3, 4.82862
377, 3, bw, attraction, a-b-da, 14, 2, 2, 14, 90, 165, 153, 83, 165, 90, 2, 2.55303
377, 3, bw, filler, NA, 999, 999, 2, 15, 187, 135, 181, 145, 127, 145, 2, 8.68017
377, 3, bw, filler, NA, 999, 999, 2, 15, 187, 135, 181, 145, 127, 145, 3, 0.913451
377, 3, bw, attraction, a-b-da, 9, 3, 2, 16, 195, 120, 186, 114, 120, 195, 3, 5.43451
377, 3, bw, attraction, a-b-da, 9, 3, 2, 16, 195, 120, 186, 114, 120, 195, 2, 0.646652
377, 3, bw, catch, NA, 999, 999, 2, 17, 107, 88, 157, 98, 158, 157, 3, 2.37048
377, 3, bw, catch, NA, 999, 999, 2, 17, 107, 88, 157, 98, 158, 157, 2, 0.714379
377, 3, bw, attraction, a-b-db, 2, 2, 2, 18, 89, 163, 90, 165, 165, 90, 2, 4.57138
377, 3, bw, attraction, a-b-db, 2, 2, 2, 18, 89, 163, 90, 165, 165, 90, 3, 2.21857
377, 3, bw, attraction, a-b-da, 14, 1, 2, 19, 125, 56, 60, 135, 135, 60, 3, 4.66337
377, 3, bw, attraction, a-b-da, 14, 1, 2, 19, 125, 56, 60, 135, 135, 60, 1, 0.698326
377, 3, bw, attraction, a-b-db, 9, 2, 2, 20, 165, 90, 86, 157, 90, 165, 3, 3.89212
377, 3, bw, attraction, a-b-db, 9, 2, 2, 20, 165, 90, 86, 157, 90, 165, 1, 0.814192
377, 3, bw, attraction, a-b-da, 2, 1, 2, 21, 60, 135, 134, 59, 135, 60, 3, 3.75527
377, 3, bw, attraction, a-b-da, 2, 1, 2, 21, 60, 135, 134, 59, 135, 60, 1, 1.45948
377, 3, bw, catch, NA, 999, 999, 2, 22, 157, 98, 144, 171, 121, 74, 2, 1.68616
377, 3, bw, catch, NA, 999, 999, 2, 22, 157, 98, 144, 171, 121, 74, 3, 0.729639
377, 3, bw, attraction, a-b-da, 2, 2, 2, 23, 163, 89, 90, 165, 165, 90, 2, 1.57799
377, 3, bw, attraction, a-b-da, 2, 2, 2, 23, 163, 89, 90, 165, 165, 90, 3, 0.601487
377, 3, bw, attraction, a-b-db, 14, 2, 2, 24, 90, 165, 83, 153, 165, 90, 1, 3.07925
377, 3, bw, attraction, a-b-db, 14, 2, 2, 24, 90, 165, 83, 153, 165, 90, 3, 1.21032
377, 3, bw, attraction, a-b-da, 5, 2, 2, 25, 165, 90, 161, 88, 90, 165, 3, 6.28715
377, 3, bw, attraction, a-b-da, 5, 2, 2, 25, 165, 90, 161, 88, 90, 165, 1, 0.857194
377, 3, bw, attraction, a-b-db, 9, 3, 2, 26, 114, 186, 120, 195, 195, 120, 2, 1.60415
377, 3, bw, attraction, a-b-db, 9, 3, 2, 26, 114, 186, 120, 195, 195, 120, 1, 0.866968
377, 3, bw, attraction, a-b-db, 5, 3, 2, 27, 195, 120, 120, 195, 117, 190, 3, 3.56608
377, 3, bw, attraction, a-b-db, 5, 3, 2, 27, 195, 120, 120, 195, 117, 190, 1, 0.877441
377, 3, bw, attraction, a-b-da, 9, 2, 2, 28, 157, 86, 90, 165, 165, 90, 2, 4.53578
377, 3, bw, attraction, a-b-da, 9, 2, 2, 28, 157, 86, 90, 165, 165, 90, 1, 0.504318
377, 3, bw, filler, NA, 999, 999, 2, 29, 72, 70, 75, 61, 85, 125, 3, 1.4582
377, 3, bw, filler, NA, 999, 999, 2, 29, 72, 70, 75, 61, 85, 125, 1, 3.88637
377, 3, bw, filler, NA, 999, 999, 2, 30, 129, 108, 144, 139, 190, 72, 2, 1.55176
377, 3, bw, filler, NA, 999, 999, 2, 30, 129, 108, 144, 139, 190, 72, 1, 1.08861
377, 3, bw, filler, NA, 999, 999, 2, 31, 159, 161, 134, 71, 188, 109, 1, 2.33889
377, 3, bw, filler, NA, 999, 999, 2, 31, 159, 161, 134, 71, 188, 109, 2, 0.747413
377, 3, bw, attraction, a-b-da, 5, 1, 2, 32, 132, 58, 60, 135, 135, 60, 3, 2.95518
377, 3, bw, attraction, a-b-da, 5, 1, 2, 32, 132, 58, 60, 135, 135, 60, 1, 0.666815
377, 3, bw, filler, NA, 999, 999, 2, 33, 158, 110, 131, 135, 118, 162, 2, 2.94984
377, 3, bw, filler, NA, 999, 999, 2, 33, 158, 110, 131, 135, 118, 162, 1, 0.478323
377, 3, bw, attraction, a-b-db, 2, 3, 2, 34, 119, 193, 120, 195, 195, 120, 3, 1.26467
377, 3, bw, attraction, a-b-db, 2, 3, 2, 34, 119, 193, 120, 195, 195, 120, 2, 1.34904
377, 3, bw, filler, NA, 999, 999, 2, 35, 168, 100, 142, 151, 82, 139, 2, 0.956523
377, 3, bw, filler, NA, 999, 999, 2, 35, 168, 100, 142, 151, 82, 139, 3, 0.572845
377, 3, bw, filler, NA, 999, 999, 2, 36, 74, 163, 157, 97, 131, 62, 2, 1.90006
377, 3, bw, filler, NA, 999, 999, 2, 36, 74, 163, 157, 97, 131, 62, 1, 0.830701
377, 3, bw, attraction, a-b-da, 2, 3, 2, 37, 193, 119, 120, 195, 195, 120, 2, 2.26698
377, 3, bw, attraction, a-b-da, 2, 3, 2, 37, 193, 119, 120, 195, 195, 120, 3, 1.97498
377, 3, bw, attraction, a-b-db, 2, 1, 3, 1, 59, 134, 60, 135, 135, 60, 3, 2.04489
377, 3, bw, attraction, a-b-db, 2, 1, 3, 1, 59, 134, 60, 135, 135, 60, 1, 1.68159
377, 3, bw, attraction, a-b-db, 14, 2, 3, 2, 83, 153, 165, 90, 90, 165, 2, 2.32373
377, 3, bw, attraction, a-b-db, 14, 2, 3, 2, 83, 153, 165, 90, 90, 165, 1, 0.644927
377, 3, bw, attraction, a-b-da, 2, 2, 3, 3, 90, 165, 165, 90, 163, 89, 3, 1.32872
377, 3, bw, attraction, a-b-da, 2, 2, 3, 3, 90, 165, 165, 90, 163, 89, 1, 0.650172
377, 3, bw, attraction, a-b-da, 9, 2, 3, 4, 165, 90, 157, 86, 90, 165, 3, 3.12598
377, 3, bw, attraction, a-b-da, 9, 2, 3, 4, 165, 90, 157, 86, 90, 165, 1, 0.599074
377, 3, bw, attraction, a-b-db, 5, 1, 3, 5, 135, 60, 60, 135, 58, 132, 2, 7.86072
377, 3, bw, attraction, a-b-db, 5, 1, 3, 5, 135, 60, 60, 135, 58, 132, 1, 0.646847
377, 3, bw, filler, NA, 999, 999, 3, 6, 68, 179, 187, 68, 142, 76, 2, 2.86669
377, 3, bw, filler, NA, 999, 999, 3, 6, 68, 179, 187, 68, 142, 76, 3, 1.95832
377, 3, bw, attraction, a-b-db, 5, 2, 3, 7, 90, 165, 88, 161, 165, 90, 1, 12.1011
377, 3, bw, attraction, a-b-db, 5, 2, 3, 7, 90, 165, 88, 161, 165, 90, 2, 0.676565
377, 3, bw, attraction, a-b-db, 2, 2, 3, 8, 90, 165, 89, 163, 165, 90, 1, 2.575
377, 3, bw, attraction, a-b-db, 2, 2, 3, 8, 90, 165, 89, 163, 165, 90, 3, 1.42219
377, 3, bw, attraction, a-b-db, 9, 1, 3, 9, 60, 135, 135, 60, 57, 129, 3, 3.13096
377, 3, bw, attraction, a-b-db, 9, 1, 3, 9, 60, 135, 135, 60, 57, 129, 2, 1.13199
377, 3, bw, filler, NA, 999, 999, 3, 10, 70, 112, 56, 76, 84, 120, 3, 1.31617
377, 3, bw, filler, NA, 999, 999, 3, 10, 70, 112, 56, 76, 84, 120, 2, 0.670431
377, 3, bw, attraction, a-b-db, 2, 3, 3, 11, 120, 195, 195, 120, 119, 193, 3, 2.52951
377, 3, bw, attraction, a-b-db, 2, 3, 3, 11, 120, 195, 195, 120, 119, 193, 2, 0.530701
377, 3, bw, attraction, a-b-da, 9, 1, 3, 12, 135, 60, 60, 135, 129, 57, 2, 1.44314
377, 3, bw, attraction, a-b-da, 9, 1, 3, 12, 135, 60, 60, 135, 129, 57, 1, 3.60793
377, 3, bw, filler, NA, 999, 999, 3, 13, 146, 66, 170, 57, 76, 179, 3, 1.45224
377, 3, bw, filler, NA, 999, 999, 3, 13, 146, 66, 170, 57, 76, 179, 1, 0.609094
377, 3, bw, attraction, a-b-da, 9, 3, 3, 14, 120, 195, 195, 120, 186, 114, 2, 2.45415
377, 3, bw, attraction, a-b-da, 9, 3, 3, 14, 120, 195, 195, 120, 186, 114, 1, 0.71464
377, 3, bw, attraction, a-b-db, 9, 2, 3, 15, 165, 90, 86, 157, 90, 165, 3, 4.51563
377, 3, bw, attraction, a-b-db, 9, 2, 3, 15, 165, 90, 86, 157, 90, 165, 2, 0.588881
377, 3, bw, attraction, a-b-da, 5, 2, 3, 16, 165, 90, 90, 165, 161, 88, 1, 4.82738
377, 3, bw, attraction, a-b-da, 5, 2, 3, 16, 165, 90, 90, 165, 161, 88, 2, 0.50387
377, 3, bw, catch, NA, 999, 999, 3, 17, 195, 120, 120, 75, 92, 163, 1, 5.10558
377, 3, bw, catch, NA, 999, 999, 3, 17, 195, 120, 120, 75, 92, 163, 2, 1.49931
377, 3, bw, attraction, a-b-da, 2, 3, 3, 18, 195, 120, 193, 119, 120, 195, 3, 1.35679
377, 3, bw, attraction, a-b-da, 2, 3, 3, 18, 195, 120, 193, 119, 120, 195, 2, 0.52501
377, 3, bw, filler, NA, 999, 999, 3, 19, 71, 67, 191, 108, 145, 127, 2, 1.86154
377, 3, bw, filler, NA, 999, 999, 3, 19, 71, 67, 191, 108, 145, 127, 1, 0.585475
377, 3, bw, filler, NA, 999, 999, 3, 20, 159, 85, 156, 146, 163, 111, 2, 2.05591
377, 3, bw, filler, NA, 999, 999, 3, 20, 159, 85, 156, 146, 163, 111, 1, 0.803844
377, 3, bw, attraction, a-b-da, 14, 3, 3, 21, 195, 120, 120, 195, 181, 111, 2, 2.00155
377, 3, bw, attraction, a-b-da, 14, 3, 3, 21, 195, 120, 120, 195, 181, 111, 3, 0.488366
377, 3, bw, attraction, a-b-db, 14, 1, 3, 22, 60, 135, 135, 60, 56, 125, 2, 2.43473
377, 3, bw, attraction, a-b-db, 14, 1, 3, 22, 60, 135, 135, 60, 56, 125, 1, 0.975894
377, 3, bw, attraction, a-b-db, 14, 3, 3, 23, 111, 181, 195, 120, 120, 195, 3, 5.58219
377, 3, bw, attraction, a-b-db, 14, 3, 3, 23, 111, 181, 195, 120, 120, 195, 1, 0.532426
377, 3, bw, filler, NA, 999, 999, 3, 24, 114, 155, 125, 157, 67, 176, 2, 5.36488
377, 3, bw, filler, NA, 999, 999, 3, 24, 114, 155, 125, 157, 67, 176, 1, 1.22785
377, 3, bw, filler, NA, 999, 999, 3, 25, 95, 175, 158, 157, 171, 137, 2, 2.32016
377, 3, bw, filler, NA, 999, 999, 3, 25, 95, 175, 158, 157, 171, 137, 1, 0.801979
377, 3, bw, attraction, a-b-da, 5, 1, 3, 26, 132, 58, 60, 135, 135, 60, 2, 2.98376
377, 3, bw, attraction, a-b-da, 5, 1, 3, 26, 132, 58, 60, 135, 135, 60, 3, 1.14276
377, 3, bw, catch, NA, 999, 999, 3, 27, 148, 107, 117, 78, 171, 144, 3, 2.89436
377, 3, bw, catch, NA, 999, 999, 3, 27, 148, 107, 117, 78, 171, 144, 2, 0.632745
377, 3, bw, attraction, a-b-da, 14, 1, 3, 28, 135, 60, 125, 56, 60, 135, 3, 2.74111
377, 3, bw, attraction, a-b-da, 14, 1, 3, 28, 135, 60, 125, 56, 60, 135, 2, 0.82168
377, 3, bw, attraction, a-b-db, 5, 3, 3, 29, 117, 190, 120, 195, 195, 120, 2, 29.1626
377, 3, bw, attraction, a-b-db, 5, 3, 3, 29, 117, 190, 120, 195, 195, 120, 3, 0.434742
377, 3, bw, attraction, a-b-da, 14, 2, 3, 30, 90, 165, 165, 90, 153, 83, 2, 1.05531
377, 3, bw, attraction, a-b-da, 14, 2, 3, 30, 90, 165, 165, 90, 153, 83, 1, 0.491626
377, 3, bw, attraction, a-b-db, 9, 3, 3, 31, 114, 186, 195, 120, 120, 195, 2, 0.773365
377, 3, bw, attraction, a-b-db, 9, 3, 3, 31, 114, 186, 195, 120, 120, 195, 1, 0.33317
377, 3, bw, filler, NA, 999, 999, 3, 32, 73, 124, 140, 108, 64, 80, 2, 1.29359
377, 3, bw, filler, NA, 999, 999, 3, 32, 73, 124, 140, 108, 64, 80, 3, 0.56058
377, 3, bw, attraction, a-b-da, 2, 1, 3, 33, 135, 60, 60, 135, 134, 59, 2, 1.75158
377, 3, bw, attraction, a-b-da, 2, 1, 3, 33, 135, 60, 60, 135, 134, 59, 3, 0.368409
377, 3, bw, attraction, a-b-da, 5, 3, 3, 34, 120, 195, 195, 120, 190, 117, 1, 1.40748
377, 3, bw, attraction, a-b-da, 5, 3, 3, 34, 120, 195, 195, 120, 190, 117, 3, 1.0218
377, 3, bw, catch, NA, 999, 999, 3, 35, 148, 107, 107, 88, 144, 171, 3, 1.00272
377, 3, bw, catch, NA, 999, 999, 3, 35, 148, 107, 107, 88, 144, 171, 2, 0.329673
377, 3, bw, filler, NA, 999, 999, 3, 36, 139, 158, 180, 111, 92, 66, 1, 1.05018
377, 3, bw, filler, NA, 999, 999, 3, 36, 139, 158, 180, 111, 92, 66, 3, 0.767206
377, 3, bw, filler, NA, 999, 999, 3, 37, 93, 161, 149, 87, 95, 139, 1, 1.31015
377, 3, bw, filler, NA, 999, 999, 3, 37, 93, 161, 149, 87, 95, 139, 3, 0.776442
377, 3, bw, filler, NA, 999, 999, 4, 1, 173, 81, 79, 135, 96, 158, 3, 1.73488
377, 3, bw, filler, NA, 999, 999, 4, 1, 173, 81, 79, 135, 96, 158, 2, 1.28016
377, 3, bw, filler, NA, 999, 999, 4, 2, 108, 77, 173, 92, 116, 138, 3, 3.05843
377, 3, bw, filler, NA, 999, 999, 4, 2, 108, 77, 173, 92, 116, 138, 1, 0.382148
377, 3, bw, filler, NA, 999, 999, 4, 3, 129, 119, 136, 64, 132, 112, 1, 1.95659
377, 3, bw, filler, NA, 999, 999, 4, 3, 129, 119, 136, 64, 132, 112, 3, 2.11673
377, 3, bw, filler, NA, 999, 999, 4, 4, 100, 174, 193, 59, 147, 116, 3, 1.63731
377, 3, bw, filler, NA, 999, 999, 4, 4, 100, 174, 193, 59, 147, 116, 1, 2.41068
377, 3, bw, attraction, a-b-da, 5, 1, 4, 5, 132, 58, 60, 135, 135, 60, 2, 3.88729
377, 3, bw, attraction, a-b-da, 5, 1, 4, 5, 132, 58, 60, 135, 135, 60, 1, 0.714005
377, 3, bw, attraction, a-b-da, 14, 1, 4, 6, 125, 56, 60, 135, 135, 60, 2, 2.53909
377, 3, bw, attraction, a-b-da, 14, 1, 4, 6, 125, 56, 60, 135, 135, 60, 1, 0.643673
377, 3, bw, attraction, a-b-da, 2, 2, 4, 7, 163, 89, 90, 165, 165, 90, 2, 1.49533
377, 3, bw, attraction, a-b-da, 2, 2, 4, 7, 163, 89, 90, 165, 165, 90, 1, 0.778208
377, 3, bw, attraction, a-b-db, 14, 1, 4, 8, 135, 60, 56, 125, 60, 135, 1, 2.64847
377, 3, bw, attraction, a-b-db, 14, 1, 4, 8, 135, 60, 56, 125, 60, 135, 2, 0.924964
377, 3, bw, attraction, a-b-db, 5, 1, 4, 9, 135, 60, 60, 135, 58, 132, 2, 3.54133
377, 3, bw, attraction, a-b-db, 5, 1, 4, 9, 135, 60, 60, 135, 58, 132, 1, 0.421477
377, 3, bw, attraction, a-b-da, 9, 3, 4, 10, 186, 114, 120, 195, 195, 120, 2, 2.81068
377, 3, bw, attraction, a-b-da, 9, 3, 4, 10, 186, 114, 120, 195, 195, 120, 1, 0.456496
377, 3, bw, attraction, a-b-db, 9, 2, 4, 11, 86, 157, 90, 165, 165, 90, 2, 3.82819
377, 3, bw, attraction, a-b-db, 9, 2, 4, 11, 86, 157, 90, 165, 165, 90, 1, 0.873091
377, 3, bw, attraction, a-b-db, 9, 3, 4, 12, 114, 186, 195, 120, 120, 195, 2, 7.81195
377, 3, bw, attraction, a-b-db, 9, 3, 4, 12, 114, 186, 195, 120, 120, 195, 1, 0.88017
377, 3, bw, catch, NA, 999, 999, 4, 13, 86, 109, 176, 139, 148, 107, 2, 0.874483
377, 3, bw, catch, NA, 999, 999, 4, 13, 86, 109, 176, 139, 148, 107, 1, 0.334229
377, 3, bw, attraction, a-b-da, 9, 1, 4, 14, 135, 60, 60, 135, 129, 57, 2, 1.7668
377, 3, bw, attraction, a-b-da, 9, 1, 4, 14, 135, 60, 60, 135, 129, 57, 3, 1.25486
377, 3, bw, attraction, a-b-da, 5, 3, 4, 15, 120, 195, 195, 120, 190, 117, 1, 1.94635
377, 3, bw, attraction, a-b-da, 5, 3, 4, 15, 120, 195, 195, 120, 190, 117, 3, 0.699251
377, 3, bw, attraction, a-b-db, 14, 3, 4, 16, 111, 181, 195, 120, 120, 195, 2, 0.940932
377, 3, bw, attraction, a-b-db, 14, 3, 4, 16, 111, 181, 195, 120, 120, 195, 1, 0.82977
377, 3, bw, attraction, a-b-da, 2, 3, 4, 17, 120, 195, 193, 119, 195, 120, 2, 1.04211
377, 3, bw, attraction, a-b-da, 2, 3, 4, 17, 120, 195, 193, 119, 195, 120, 1, 1.45517
377, 3, bw, catch, NA, 999, 999, 4, 18, 107, 148, 188, 127, 112, 83, 2, 1.1546
377, 3, bw, catch, NA, 999, 999, 4, 18, 107, 148, 188, 127, 112, 83, 3, 0.56291
377, 3, bw, catch, NA, 999, 999, 4, 19, 153, 102, 91, 104, 142, 173, 3, 0.986028
377, 3, bw, catch, NA, 999, 999, 4, 19, 153, 102, 91, 104, 142, 173, 2, 0.449608
377, 3, bw, attraction, a-b-db, 5, 3, 4, 20, 195, 120, 120, 195, 117, 190, 2, 1.65356
377, 3, bw, attraction, a-b-db, 5, 3, 4, 20, 195, 120, 120, 195, 117, 190, 1, 0.682233
377, 3, bw, attraction, a-b-db, 14, 2, 4, 21, 90, 165, 83, 153, 165, 90, 3, 13.5086
377, 3, bw, attraction, a-b-db, 14, 2, 4, 21, 90, 165, 83, 153, 165, 90, 2, 0.387142
377, 3, bw, attraction, a-b-da, 2, 1, 4, 22, 134, 59, 60, 135, 135, 60, 3, 1.2176
377, 3, bw, attraction, a-b-da, 2, 1, 4, 22, 134, 59, 60, 135, 135, 60, 2, 0.759802
377, 3, bw, attraction, a-b-da, 14, 3, 4, 23, 181, 111, 195, 120, 120, 195, 3, 1.27088
377, 3, bw, attraction, a-b-da, 14, 3, 4, 23, 181, 111, 195, 120, 120, 195, 1, 0.426409
377, 3, bw, attraction, a-b-da, 5, 2, 4, 24, 165, 90, 90, 165, 161, 88, 3, 4.3829
377, 3, bw, attraction, a-b-da, 5, 2, 4, 24, 165, 90, 90, 165, 161, 88, 2, 0.517643
377, 3, bw, attraction, a-b-db, 9, 1, 4, 25, 57, 129, 135, 60, 60, 135, 3, 1.39065
377, 3, bw, attraction, a-b-db, 9, 1, 4, 25, 57, 129, 135, 60, 60, 135, 2, 0.437531
377, 3, bw, attraction, a-b-da, 14, 2, 4, 26, 90, 165, 153, 83, 165, 90, 1, 1.38598
377, 3, bw, attraction, a-b-da, 14, 2, 4, 26, 90, 165, 153, 83, 165, 90, 2, 0.809579
377, 3, bw, filler, NA, 999, 999, 4, 27, 125, 81, 154, 169, 128, 56, 2, 0.862578
377, 3, bw, filler, NA, 999, 999, 4, 27, 125, 81, 154, 169, 128, 56, 1, 0.45088
377, 3, bw, attraction, a-b-db, 2, 1, 4, 28, 60, 135, 135, 60, 59, 134, 3, 2.20665
377, 3, bw, attraction, a-b-db, 2, 1, 4, 28, 60, 135, 135, 60, 59, 134, 1, 0.628616
377, 3, bw, attraction, a-b-db, 5, 2, 4, 29, 90, 165, 165, 90, 88, 161, 1, 1.52903
377, 3, bw, attraction, a-b-db, 5, 2, 4, 29, 90, 165, 165, 90, 88, 161, 3, 0.506629
377, 3, bw, filler, NA, 999, 999, 4, 30, 157, 182, 94, 166, 81, 183, 1, 1.47641
377, 3, bw, filler, NA, 999, 999, 4, 30, 157, 182, 94, 166, 81, 183, 2, 0.687946
377, 3, bw, filler, NA, 999, 999, 4, 31, 114, 61, 153, 158, 80, 110, 2, 0.826294
377, 3, bw, filler, NA, 999, 999, 4, 31, 114, 61, 153, 158, 80, 110, 1, 1.79994
377, 3, bw, attraction, a-b-db, 2, 2, 4, 32, 89, 163, 165, 90, 90, 165, 3, 1.42934
377, 3, bw, attraction, a-b-db, 2, 2, 4, 32, 89, 163, 165, 90, 90, 165, 1, 1.54691
377, 3, bw, attraction, a-b-db, 2, 3, 4, 33, 120, 195, 195, 120, 119, 193, 3, 1.36228
377, 3, bw, attraction, a-b-db, 2, 3, 4, 33, 120, 195, 195, 120, 119, 193, 1, 0.554498
377, 3, bw, attraction, a-b-da, 9, 2, 4, 34, 157, 86, 90, 165, 165, 90, 3, 1.05831
377, 3, bw, attraction, a-b-da, 9, 2, 4, 34, 157, 86, 90, 165, 165, 90, 1, 0.630659
377, 3, bw, filler, NA, 999, 999, 4, 35, 85, 72, 160, 193, 106, 91, 2, 1.01109
377, 3, bw, filler, NA, 999, 999, 4, 35, 85, 72, 160, 193, 106, 91, 1, 0.593401
377, 3, bw, filler, NA, 999, 999, 4, 36, 176, 137, 63, 195, 57, 83, 1, 3.10317
377, 3, bw, filler, NA, 999, 999, 4, 36, 176, 137, 63, 195, 57, 83, 3, 0.625395
377, 3, bw, filler, NA, 999, 999, 4, 37, 84, 79, 187, 131, 165, 58, 2, 0.853862
377, 3, bw, filler, NA, 999, 999, 4, 37, 84, 79, 187, 131, 165, 58, 1, 0.562869
377, 3, bw, attraction, a-b-da, 2, 2, 5, 1, 163, 89, 165, 90, 90, 165, 3, 14.7606
377, 3, bw, attraction, a-b-da, 2, 2, 5, 1, 163, 89, 165, 90, 90, 165, 1, 11.0287
377, 3, bw, filler, NA, 999, 999, 5, 2, 164, 125, 70, 131, 166, 171, 3, 0.693727
377, 3, bw, filler, NA, 999, 999, 5, 2, 164, 125, 70, 131, 166, 171, 2, 0.360906
377, 3, bw, attraction, a-b-db, 2, 3, 5, 3, 120, 195, 195, 120, 119, 193, 3, 0.760123
377, 3, bw, attraction, a-b-db, 2, 3, 5, 3, 120, 195, 195, 120, 119, 193, 2, 0.392535
377, 3, bw, filler, NA, 999, 999, 5, 4, 95, 92, 71, 112, 128, 160, 3, 0.574324
377, 3, bw, filler, NA, 999, 999, 5, 4, 95, 92, 71, 112, 128, 160, 1, 1.28609
377, 3, bw, attraction, a-b-da, 14, 3, 5, 5, 120, 195, 195, 120, 181, 111, 2, 0.776314
377, 3, bw, attraction, a-b-da, 14, 3, 5, 5, 120, 195, 195, 120, 181, 111, 1, 1.33602
377, 3, bw, attraction, a-b-db, 9, 2, 5, 6, 165, 90, 90, 165, 86, 157, 3, 1.50424
377, 3, bw, attraction, a-b-db, 9, 2, 5, 6, 165, 90, 90, 165, 86, 157, 1, 2.00307
377, 3, bw, attraction, a-b-db, 14, 2, 5, 7, 90, 165, 83, 153, 165, 90, 2, 1.00833
377, 3, bw, attraction, a-b-db, 14, 2, 5, 7, 90, 165, 83, 153, 165, 90, 1, 1.70271
377, 3, bw, catch, NA, 999, 999, 5, 8, 134, 61, 171, 144, 144, 111, 2, 0.672167
377, 3, bw, catch, NA, 999, 999, 5, 8, 134, 61, 171, 144, 144, 111, 1, 0.723849
377, 3, bw, filler, NA, 999, 999, 5, 9, 165, 76, 92, 157, 181, 62, 2, 1.4282
377, 3, bw, filler, NA, 999, 999, 5, 9, 165, 76, 92, 157, 181, 62, 1, 0.905759
377, 3, bw, filler, NA, 999, 999, 5, 10, 64, 119, 155, 147, 81, 109, 2, 0.843484
377, 3, bw, filler, NA, 999, 999, 5, 10, 64, 119, 155, 147, 81, 109, 1, 0.888574
377, 3, bw, catch, NA, 999, 999, 5, 11, 171, 144, 112, 83, 115, 140, 1, 0.890739
377, 3, bw, catch, NA, 999, 999, 5, 11, 171, 144, 112, 83, 115, 140, 2, 0.341834
377, 3, bw, attraction, a-b-db, 5, 2, 5, 12, 90, 165, 165, 90, 88, 161, 1, 19.0216
377, 3, bw, attraction, a-b-db, 5, 2, 5, 12, 90, 165, 165, 90, 88, 161, 2, 0.390326
377, 3, bw, attraction, a-b-da, 2, 1, 5, 13, 135, 60, 134, 59, 60, 135, 3, 3.02825
377, 3, bw, attraction, a-b-da, 2, 1, 5, 13, 135, 60, 134, 59, 60, 135, 2, 3.2653
377, 3, bw, attraction, a-b-db, 9, 3, 5, 14, 120, 195, 114, 186, 195, 120, 3, 0.875544
377, 3, bw, attraction, a-b-db, 9, 3, 5, 14, 120, 195, 114, 186, 195, 120, 1, 1.32721
377, 3, bw, attraction, a-b-db, 9, 1, 5, 15, 135, 60, 57, 129, 60, 135, 3, 5.08731
377, 3, bw, attraction, a-b-db, 9, 1, 5, 15, 135, 60, 57, 129, 60, 135, 1, 0.577743
377, 3, bw, attraction, a-b-da, 5, 2, 5, 16, 90, 165, 161, 88, 165, 90, 2, 1.81609
377, 3, bw, attraction, a-b-da, 5, 2, 5, 16, 90, 165, 161, 88, 165, 90, 1, 0.550333
377, 3, bw, filler, NA, 999, 999, 5, 17, 59, 64, 73, 169, 76, 111, 2, 1.38997
377, 3, bw, filler, NA, 999, 999, 5, 17, 59, 64, 73, 169, 76, 111, 1, 0.436919
377, 3, bw, filler, NA, 999, 999, 5, 18, 128, 175, 120, 88, 177, 131, 3, 1.32933
377, 3, bw, filler, NA, 999, 999, 5, 18, 128, 175, 120, 88, 177, 131, 2, 0.850862
377, 3, bw, filler, NA, 999, 999, 5, 19, 61, 151, 155, 75, 158, 101, 3, 0.750633
377, 3, bw, filler, NA, 999, 999, 5, 19, 61, 151, 155, 75, 158, 101, 1, 0.719646
377, 3, bw, attraction, a-b-db, 2, 2, 5, 20, 89, 163, 165, 90, 90, 165, 1, 2.20075
377, 3, bw, attraction, a-b-db, 2, 2, 5, 20, 89, 163, 165, 90, 90, 165, 2, 0.535387
377, 3, bw, attraction, a-b-db, 5, 3, 5, 21, 120, 195, 117, 190, 195, 120, 2, 2.47973
377, 3, bw, attraction, a-b-db, 5, 3, 5, 21, 120, 195, 117, 190, 195, 120, 1, 0.803014
377, 3, bw, attraction, a-b-da, 14, 2, 5, 22, 165, 90, 153, 83, 90, 165, 3, 1.95267
377, 3, bw, attraction, a-b-da, 14, 2, 5, 22, 165, 90, 153, 83, 90, 165, 1, 0.489392
377, 3, bw, attraction, a-b-db, 14, 1, 5, 23, 135, 60, 60, 135, 56, 125, 2, 1.54773
377, 3, bw, attraction, a-b-db, 14, 1, 5, 23, 135, 60, 60, 135, 56, 125, 3, 1.06867
377, 3, bw, filler, NA, 999, 999, 5, 24, 190, 163, 94, 56, 141, 171, 1, 1.19151
377, 3, bw, filler, NA, 999, 999, 5, 24, 190, 163, 94, 56, 141, 171, 2, 0.974521
377, 3, bw, attraction, a-b-da, 5, 3, 5, 25, 190, 117, 195, 120, 120, 195, 3, 4.78082
377, 3, bw, attraction, a-b-da, 5, 3, 5, 25, 190, 117, 195, 120, 120, 195, 2, 0.507338
377, 3, bw, filler, NA, 999, 999, 5, 26, 138, 168, 59, 111, 129, 163, 1, 1.3884
377, 3, bw, filler, NA, 999, 999, 5, 26, 138, 168, 59, 111, 129, 163, 2, 0.651293
377, 3, bw, attraction, a-b-da, 5, 1, 5, 27, 135, 60, 132, 58, 60, 135, 3, 6.32694
377, 3, bw, attraction, a-b-da, 5, 1, 5, 27, 135, 60, 132, 58, 60, 135, 2, 0.511034
377, 3, bw, attraction, a-b-da, 9, 1, 5, 28, 129, 57, 60, 135, 135, 60, 2, 2.36009
377, 3, bw, attraction, a-b-da, 9, 1, 5, 28, 129, 57, 60, 135, 135, 60, 1, 0.375946
377, 3, bw, attraction, a-b-da, 9, 2, 5, 29, 157, 86, 90, 165, 165, 90, 2, 1.35857
377, 3, bw, attraction, a-b-da, 9, 2, 5, 29, 157, 86, 90, 165, 165, 90, 1, 0.318798
377, 3, bw, attraction, a-b-db, 14, 3, 5, 30, 195, 120, 111, 181, 120, 195, 3, 2.36808
377, 3, bw, attraction, a-b-db, 14, 3, 5, 30, 195, 120, 111, 181, 120, 195, 2, 0.951807
377, 3, bw, attraction, a-b-da, 9, 3, 5, 31, 186, 114, 120, 195, 195, 120, 2, 0.679436
377, 3, bw, attraction, a-b-da, 9, 3, 5, 31, 186, 114, 120, 195, 195, 120, 1, 0.403221
377, 3, bw, filler, NA, 999, 999, 5, 32, 88, 189, 165, 73, 129, 64, 1, 0.945024
377, 3, bw, filler, NA, 999, 999, 5, 32, 88, 189, 165, 73, 129, 64, 3, 0.618029
377, 3, bw, catch, NA, 999, 999, 5, 33, 144, 111, 192, 123, 94, 101, 2, 1.0232
377, 3, bw, catch, NA, 999, 999, 5, 33, 144, 111, 192, 123, 94, 101, 3, 0.372959
377, 3, bw, attraction, a-b-da, 2, 3, 5, 34, 120, 195, 195, 120, 193, 119, 1, 1.02793
377, 3, bw, attraction, a-b-da, 2, 3, 5, 34, 120, 195, 195, 120, 193, 119, 3, 0.55363
377, 3, bw, attraction, a-b-db, 2, 1, 5, 35, 60, 135, 59, 134, 135, 60, 2, 1.23338
377, 3, bw, attraction, a-b-db, 2, 1, 5, 35, 60, 135, 59, 134, 135, 60, 1, 0.527063
377, 3, bw, attraction, a-b-db, 5, 1, 5, 36, 135, 60, 58, 132, 60, 135, 2, 3.16731
377, 3, bw, attraction, a-b-db, 5, 1, 5, 36, 135, 60, 58, 132, 60, 135, 1, 1.719
377, 3, bw, attraction, a-b-da, 14, 1, 5, 37, 125, 56, 135, 60, 60, 135, 3, 1.38384
377, 3, bw, attraction, a-b-da, 14, 1, 5, 37, 125, 56, 135, 60, 60, 135, 1, 0.743263
377, 3, bw, attraction, a-b-da, 5, 1, 6, 1, 132, 58, 135, 60, 60, 135, 2, 0.775058
377, 3, bw, attraction, a-b-da, 5, 1, 6, 1, 132, 58, 135, 60, 60, 135, 3, 0.982797
377, 3, bw, filler, NA, 999, 999, 6, 2, 119, 176, 91, 106, 113, 97, 1, 0.941055
377, 3, bw, filler, NA, 999, 999, 6, 2, 119, 176, 91, 106, 113, 97, 2, 0.742157
377, 3, bw, attraction, a-b-da, 2, 2, 6, 3, 165, 90, 163, 89, 90, 165, 3, 1.50979
377, 3, bw, attraction, a-b-da, 2, 2, 6, 3, 165, 90, 163, 89, 90, 165, 1, 0.99196
377, 3, bw, attraction, a-b-db, 5, 3, 6, 4, 120, 195, 117, 190, 195, 120, 3, 2.34156
377, 3, bw, attraction, a-b-db, 5, 3, 6, 4, 120, 195, 117, 190, 195, 120, 2, 0.510149
377, 3, bw, attraction, a-b-db, 2, 2, 6, 5, 89, 163, 90, 165, 165, 90, 2, 1.59931
377, 3, bw, attraction, a-b-db, 2, 2, 6, 5, 89, 163, 90, 165, 165, 90, 1, 1.8301
377, 3, bw, attraction, a-b-da, 2, 3, 6, 6, 120, 195, 193, 119, 195, 120, 1, 0.994118
377, 3, bw, attraction, a-b-da, 2, 3, 6, 6, 120, 195, 193, 119, 195, 120, 2, 0.56917
377, 3, bw, catch, NA, 999, 999, 6, 7, 164, 91, 195, 120, 101, 94, 2, 0.992187
377, 3, bw, catch, NA, 999, 999, 6, 7, 164, 91, 195, 120, 101, 94, 3, 0.583266
377, 3, bw, attraction, a-b-db, 14, 2, 6, 8, 83, 153, 90, 165, 165, 90, 2, 3.76565
377, 3, bw, attraction, a-b-db, 14, 2, 6, 8, 83, 153, 90, 165, 165, 90, 1, 0.861131
377, 3, bw, attraction, a-b-db, 9, 2, 6, 9, 90, 165, 165, 90, 86, 157, 1, 6.64015
377, 3, bw, attraction, a-b-db, 9, 2, 6, 9, 90, 165, 165, 90, 86, 157, 3, 0.523303
377, 3, bw, attraction, a-b-db, 5, 2, 6, 10, 165, 90, 90, 165, 88, 161, 2, 1.75645
377, 3, bw, attraction, a-b-db, 5, 2, 6, 10, 165, 90, 90, 165, 88, 161, 3, 0.996534
377, 3, bw, attraction, a-b-da, 14, 3, 6, 11, 120, 195, 181, 111, 195, 120, 1, 2.21009
377, 3, bw, attraction, a-b-da, 14, 3, 6, 11, 120, 195, 181, 111, 195, 120, 2, 1.40011
377, 3, bw, attraction, a-b-da, 9, 2, 6, 12, 165, 90, 157, 86, 90, 165, 1, 2.22958
377, 3, bw, attraction, a-b-da, 9, 2, 6, 12, 165, 90, 157, 86, 90, 165, 2, 0.890938
377, 3, bw, filler, NA, 999, 999, 6, 13, 179, 88, 89, 164, 75, 120, 1, 1.09255
377, 3, bw, filler, NA, 999, 999, 6, 13, 179, 88, 89, 164, 75, 120, 3, 0.575633
377, 3, bw, attraction, a-b-da, 5, 3, 6, 14, 120, 195, 190, 117, 195, 120, 1, 1.03001
377, 3, bw, attraction, a-b-da, 5, 3, 6, 14, 120, 195, 190, 117, 195, 120, 3, 0.795691
377, 3, bw, filler, NA, 999, 999, 6, 15, 67, 148, 166, 89, 161, 172, 3, 1.98523
377, 3, bw, filler, NA, 999, 999, 6, 15, 67, 148, 166, 89, 161, 172, 1, 0.472873
377, 3, bw, filler, NA, 999, 999, 6, 16, 182, 72, 88, 165, 163, 116, 3, 1.28377
377, 3, bw, filler, NA, 999, 999, 6, 16, 182, 72, 88, 165, 163, 116, 2, 3.90336
377, 3, bw, attraction, a-b-da, 14, 1, 6, 17, 60, 135, 135, 60, 125, 56, 1, 6.64809
377, 3, bw, attraction, a-b-da, 14, 1, 6, 17, 60, 135, 135, 60, 125, 56, 3, 1.16332
377, 3, bw, filler, NA, 999, 999, 6, 18, 119, 164, 117, 162, 155, 138, 2, 6.43425
377, 3, bw, filler, NA, 999, 999, 6, 18, 119, 164, 117, 162, 155, 138, 1, 0.958287
377, 3, bw, attraction, a-b-da, 5, 2, 6, 19, 165, 90, 161, 88, 90, 165, 3, 1.04515
377, 3, bw, attraction, a-b-da, 5, 2, 6, 19, 165, 90, 161, 88, 90, 165, 1, 0.346143
377, 3, bw, attraction, a-b-da, 9, 3, 6, 20, 120, 195, 195, 120, 186, 114, 2, 1.56997
377, 3, bw, attraction, a-b-da, 9, 3, 6, 20, 120, 195, 195, 120, 186, 114, 3, 0.602204
377, 3, bw, attraction, a-b-db, 2, 1, 6, 21, 135, 60, 59, 134, 60, 135, 3, 1.59185
377, 3, bw, attraction, a-b-db, 2, 1, 6, 21, 135, 60, 59, 134, 60, 135, 1, 0.6627
377, 3, bw, attraction, a-b-da, 9, 1, 6, 22, 135, 60, 129, 57, 60, 135, 1, 3.30573
377, 3, bw, attraction, a-b-da, 9, 1, 6, 22, 135, 60, 129, 57, 60, 135, 2, 0.515566
377, 3, bw, attraction, a-b-db, 9, 1, 6, 23, 60, 135, 135, 60, 57, 129, 3, 3.80452
377, 3, bw, attraction, a-b-db, 9, 1, 6, 23, 60, 135, 135, 60, 57, 129, 1, 0.458536
377, 3, bw, attraction, a-b-db, 14, 1, 6, 24, 135, 60, 56, 125, 60, 135, 3, 1.02962
377, 3, bw, attraction, a-b-db, 14, 1, 6, 24, 135, 60, 56, 125, 60, 135, 2, 0.731277
377, 3, bw, filler, NA, 999, 999, 6, 25, 101, 132, 144, 177, 153, 147, 2, 0.77975
377, 3, bw, filler, NA, 999, 999, 6, 25, 101, 132, 144, 177, 153, 147, 1, 0.419503
377, 3, bw, catch, NA, 999, 999, 6, 26, 128, 127, 128, 67, 192, 123, 3, 0.920562
377, 3, bw, catch, NA, 999, 999, 6, 26, 128, 127, 128, 67, 192, 123, 2, 0.650916
377, 3, bw, filler, NA, 999, 999, 6, 27, 114, 104, 79, 67, 174, 124, 3, 0.686637
377, 3, bw, filler, NA, 999, 999, 6, 27, 114, 104, 79, 67, 174, 124, 2, 0.83442
377, 3, bw, catch, NA, 999, 999, 6, 28, 150, 165, 121, 134, 71, 124, 1, 0.862773
377, 3, bw, catch, NA, 999, 999, 6, 28, 150, 165, 121, 134, 71, 124, 3, 0.403245
377, 3, bw, attraction, a-b-da, 14, 2, 6, 29, 153, 83, 165, 90, 90, 165, 2, 1.09708
377, 3, bw, attraction, a-b-da, 14, 2, 6, 29, 153, 83, 165, 90, 90, 165, 1, 0.444253
377, 3, bw, attraction, a-b-da, 2, 1, 6, 30, 135, 60, 134, 59, 60, 135, 3, 1.83171
377, 3, bw, attraction, a-b-da, 2, 1, 6, 30, 135, 60, 134, 59, 60, 135, 1, 0.765149
377, 3, bw, attraction, a-b-db, 5, 1, 6, 31, 60, 135, 58, 132, 135, 60, 2, 0.876146
377, 3, bw, attraction, a-b-db, 5, 1, 6, 31, 60, 135, 58, 132, 135, 60, 1, 1.18388
377, 3, bw, attraction, a-b-db, 2, 3, 6, 32, 120, 195, 195, 120, 119, 193, 1, 2.52611
377, 3, bw, attraction, a-b-db, 2, 3, 6, 32, 120, 195, 195, 120, 119, 193, 2, 0.383302
377, 3, bw, filler, NA, 999, 999, 6, 33, 162, 76, 86, 111, 72, 155, 2, 0.781852
377, 3, bw, filler, NA, 999, 999, 6, 33, 162, 76, 86, 111, 72, 155, 1, 1.11758
377, 3, bw, filler, NA, 999, 999, 6, 34, 112, 191, 89, 142, 167, 91, 1, 1.51849
377, 3, bw, filler, NA, 999, 999, 6, 34, 112, 191, 89, 142, 167, 91, 2, 0.512655
377, 3, bw, attraction, a-b-db, 14, 3, 6, 35, 120, 195, 195, 120, 111, 181, 3, 1.68179
377, 3, bw, attraction, a-b-db, 14, 3, 6, 35, 120, 195, 195, 120, 111, 181, 1, 1.53332
377, 3, bw, attraction, a-b-db, 9, 3, 6, 36, 120, 195, 195, 120, 114, 186, 2, 2.9414
377, 3, bw, attraction, a-b-db, 9, 3, 6, 36, 120, 195, 195, 120, 114, 186, 3, 0.493779
377, 3, bw, filler, NA, 999, 999, 6, 37, 56, 184, 124, 96, 173, 80, 3, 1.88759
377, 3, bw, filler, NA, 999, 999, 6, 37, 56, 184, 124, 96, 173, 80, 2, 1.05105
377, 3, bw, catch, NA, 999, 999, 7, 1, 163, 92, 118, 77, 155, 160, 3, 0.758483
377, 3, bw, catch, NA, 999, 999, 7, 1, 163, 92, 118, 77, 155, 160, 2, 0.606904
377, 3, bw, attraction, a-b-db, 9, 3, 7, 2, 195, 120, 114, 186, 120, 195, 1, 1.90006
377, 3, bw, attraction, a-b-db, 9, 3, 7, 2, 195, 120, 114, 186, 120, 195, 2, 0.374664
377, 3, bw, filler, NA, 999, 999, 7, 3, 121, 155, 177, 62, 68, 147, 1, 1.19714
377, 3, bw, filler, NA, 999, 999, 7, 3, 121, 155, 177, 62, 68, 147, 3, 0.812178
377, 3, bw, filler, NA, 999, 999, 7, 4, 145, 79, 155, 90, 134, 68, 2, 1.16113
377, 3, bw, filler, NA, 999, 999, 7, 4, 145, 79, 155, 90, 134, 68, 3, 0.681434
377, 3, bw, attraction, a-b-da, 5, 2, 7, 5, 165, 90, 161, 88, 90, 165, 1, 3.05985
377, 3, bw, attraction, a-b-da, 5, 2, 7, 5, 165, 90, 161, 88, 90, 165, 3, 0.719519
377, 3, bw, attraction, a-b-da, 9, 2, 7, 6, 165, 90, 90, 165, 157, 86, 1, 1.5925
377, 3, bw, attraction, a-b-da, 9, 2, 7, 6, 165, 90, 90, 165, 157, 86, 2, 0.99132
377, 3, bw, attraction, a-b-db, 2, 3, 7, 7, 119, 193, 120, 195, 195, 120, 2, 5.97307
377, 3, bw, attraction, a-b-db, 2, 3, 7, 7, 119, 193, 120, 195, 195, 120, 1, 0.939852
377, 3, bw, filler, NA, 999, 999, 7, 8, 160, 139, 155, 113, 64, 176, 1, 1.71607
377, 3, bw, filler, NA, 999, 999, 7, 8, 160, 139, 155, 113, 64, 176, 3, 2.79017
377, 3, bw, attraction, a-b-db, 2, 1, 7, 9, 59, 134, 135, 60, 60, 135, 1, 1.76385
377, 3, bw, attraction, a-b-db, 2, 1, 7, 9, 59, 134, 135, 60, 60, 135, 2, 1.15608
377, 3, bw, attraction, a-b-db, 14, 2, 7, 10, 165, 90, 83, 153, 90, 165, 1, 1.2437
377, 3, bw, attraction, a-b-db, 14, 2, 7, 10, 165, 90, 83, 153, 90, 165, 2, 1.22449
377, 3, bw, catch, NA, 999, 999, 7, 11, 110, 145, 150, 165, 101, 94, 2, 0.804908
377, 3, bw, catch, NA, 999, 999, 7, 11, 110, 145, 150, 165, 101, 94, 3, 0.435144
377, 3, bw, filler, NA, 999, 999, 7, 12, 72, 97, 92, 148, 123, 98, 2, 0.911752
377, 3, bw, filler, NA, 999, 999, 7, 12, 72, 97, 92, 148, 123, 98, 1, 0.817891
377, 3, bw, attraction, a-b-da, 2, 3, 7, 13, 120, 195, 193, 119, 195, 120, 1, 2.44692
377, 3, bw, attraction, a-b-da, 2, 3, 7, 13, 120, 195, 193, 119, 195, 120, 2, 2.12353
377, 3, bw, attraction, a-b-db, 5, 2, 7, 14, 90, 165, 165, 90, 88, 161, 1, 1.30809
377, 3, bw, attraction, a-b-db, 5, 2, 7, 14, 90, 165, 165, 90, 88, 161, 2, 0.342309
377, 3, bw, attraction, a-b-da, 2, 2, 7, 15, 90, 165, 163, 89, 165, 90, 2, 1.20615
377, 3, bw, attraction, a-b-da, 2, 2, 7, 15, 90, 165, 163, 89, 165, 90, 1, 0.764474
377, 3, bw, filler, NA, 999, 999, 7, 16, 105, 160, 58, 85, 95, 142, 1, 1.01145
377, 3, bw, filler, NA, 999, 999, 7, 16, 105, 160, 58, 85, 95, 142, 2, 0.361749
377, 3, bw, filler, NA, 999, 999, 7, 17, 105, 93, 122, 123, 147, 165, 3, 0.77709
377, 3, bw, filler, NA, 999, 999, 7, 17, 105, 93, 122, 123, 147, 165, 2, 0.360843
377, 3, bw, attraction, a-b-da, 9, 3, 7, 18, 186, 114, 120, 195, 195, 120, 2, 2.08787
377, 3, bw, attraction, a-b-da, 9, 3, 7, 18, 186, 114, 120, 195, 195, 120, 1, 0.666515
377, 3, bw, filler, NA, 999, 999, 7, 19, 82, 176, 135, 118, 180, 164, 3, 1.00554
377, 3, bw, filler, NA, 999, 999, 7, 19, 82, 176, 135, 118, 180, 164, 2, 1.30793
377, 3, bw, attraction, a-b-db, 9, 2, 7, 20, 86, 157, 90, 165, 165, 90, 2, 4.19679
377, 3, bw, attraction, a-b-db, 9, 2, 7, 20, 86, 157, 90, 165, 165, 90, 1, 0.530693
377, 3, bw, attraction, a-b-da, 2, 1, 7, 21, 134, 59, 135, 60, 60, 135, 3, 3.38727
377, 3, bw, attraction, a-b-da, 2, 1, 7, 21, 134, 59, 135, 60, 60, 135, 2, 1.25013
377, 3, bw, attraction, a-b-db, 2, 2, 7, 22, 89, 163, 165, 90, 90, 165, 3, 0.997596
377, 3, bw, attraction, a-b-db, 2, 2, 7, 22, 89, 163, 165, 90, 90, 165, 1, 0.916653
377, 3, bw, attraction, a-b-db, 9, 1, 7, 23, 135, 60, 60, 135, 57, 129, 3, 14.1656
377, 3, bw, attraction, a-b-db, 9, 1, 7, 23, 135, 60, 60, 135, 57, 129, 1, 0.817787
377, 3, bw, attraction, a-b-da, 14, 1, 7, 24, 135, 60, 125, 56, 60, 135, 3, 1.69489
377, 3, bw, attraction, a-b-da, 14, 1, 7, 24, 135, 60, 125, 56, 60, 135, 2, 0.417629
377, 3, bw, attraction, a-b-da, 14, 3, 7, 25, 120, 195, 195, 120, 181, 111, 2, 0.894759
377, 3, bw, attraction, a-b-da, 14, 3, 7, 25, 120, 195, 195, 120, 181, 111, 3, 0.657926
377, 3, bw, filler, NA, 999, 999, 7, 26, 92, 114, 138, 75, 83, 63, 1, 1.32491
377, 3, bw, filler, NA, 999, 999, 7, 26, 92, 114, 138, 75, 83, 63, 3, 0.918537
377, 3, bw, attraction, a-b-da, 5, 1, 7, 27, 135, 60, 132, 58, 60, 135, 2, 2.11151
377, 3, bw, attraction, a-b-da, 5, 1, 7, 27, 135, 60, 132, 58, 60, 135, 1, 0.737531
377, 3, bw, attraction, a-b-db, 5, 1, 7, 28, 58, 132, 60, 135, 135, 60, 2, 1.22584
377, 3, bw, attraction, a-b-db, 5, 1, 7, 28, 58, 132, 60, 135, 135, 60, 1, 0.711612
377, 3, bw, attraction, a-b-db, 5, 3, 7, 29, 120, 195, 195, 120, 117, 190, 3, 1.73639
377, 3, bw, attraction, a-b-db, 5, 3, 7, 29, 120, 195, 195, 120, 117, 190, 1, 0.505918
377, 3, bw, attraction, a-b-da, 5, 3, 7, 30, 120, 195, 195, 120, 190, 117, 2, 1.49958
377, 3, bw, attraction, a-b-da, 5, 3, 7, 30, 120, 195, 195, 120, 190, 117, 1, 0.502505
377, 3, bw, attraction, a-b-da, 9, 1, 7, 31, 60, 135, 129, 57, 135, 60, 3, 2.81633
377, 3, bw, attraction, a-b-da, 9, 1, 7, 31, 60, 135, 129, 57, 135, 60, 1, 0.438101
377, 3, bw, attraction, a-b-da, 14, 2, 7, 32, 153, 83, 90, 165, 165, 90, 2, 0.91459
377, 3, bw, attraction, a-b-da, 14, 2, 7, 32, 153, 83, 90, 165, 165, 90, 1, 0.572873
377, 3, bw, attraction, a-b-db, 14, 1, 7, 33, 60, 135, 135, 60, 56, 125, 2, 1.21195
377, 3, bw, attraction, a-b-db, 14, 1, 7, 33, 60, 135, 135, 60, 56, 125, 1, 2.33019
377, 3, bw, filler, NA, 999, 999, 7, 34, 56, 157, 164, 81, 61, 123, 2, 1.03416
377, 3, bw, filler, NA, 999, 999, 7, 34, 56, 157, 164, 81, 61, 123, 3, 0.375787
377, 3, bw, attraction, a-b-db, 14, 3, 7, 35, 120, 195, 111, 181, 195, 120, 2, 1.59045
377, 3, bw, attraction, a-b-db, 14, 3, 7, 35, 120, 195, 111, 181, 195, 120, 1, 0.525102
377, 3, bw, catch, NA, 999, 999, 7, 36, 159, 156, 64, 131, 130, 125, 1, 0.973477
377, 3, bw, catch, NA, 999, 999, 7, 36, 159, 156, 64, 131, 130, 125, 3, 0.405157
377, 3, bw, filler, NA, 999, 999, 7, 37, 115, 184, 69, 96, 158, 90, 1, 0.834922
377, 3, bw, filler, NA, 999, 999, 7, 37, 115, 184, 69, 96, 158, 90, 2, 0.448786
377, 3, bw, filler, NA, 999, 999, 8, 1, 184, 163, 114, 92, 144, 76, 1, 0.74046
377, 3, bw, filler, NA, 999, 999, 8, 1, 184, 163, 114, 92, 144, 76, 2, 0.597667
377, 3, bw, attraction, a-b-db, 2, 3, 8, 2, 119, 193, 195, 120, 120, 195, 2, 1.37933
377, 3, bw, attraction, a-b-db, 2, 3, 8, 2, 119, 193, 195, 120, 120, 195, 1, 0.67488
377, 3, bw, attraction, a-b-da, 2, 1, 8, 3, 134, 59, 60, 135, 135, 60, 3, 0.96527
377, 3, bw, attraction, a-b-da, 2, 1, 8, 3, 134, 59, 60, 135, 135, 60, 2, 0.701626
377, 3, bw, attraction, a-b-da, 14, 2, 8, 4, 90, 165, 153, 83, 165, 90, 3, 0.951437
377, 3, bw, attraction, a-b-da, 14, 2, 8, 4, 90, 165, 153, 83, 165, 90, 1, 0.392426
377, 3, bw, filler, NA, 999, 999, 8, 5, 140, 116, 163, 116, 149, 141, 3, 0.702116
377, 3, bw, filler, NA, 999, 999, 8, 5, 140, 116, 163, 116, 149, 141, 1, 0.4413
377, 3, bw, catch, NA, 999, 999, 8, 6, 63, 132, 123, 192, 126, 129, 2, 0.653024
377, 3, bw, catch, NA, 999, 999, 8, 6, 63, 132, 123, 192, 126, 129, 1, 0.970151
377, 3, bw, catch, NA, 999, 999, 8, 7, 189, 126, 115, 140, 124, 71, 1, 0.977174
377, 3, bw, catch, NA, 999, 999, 8, 7, 189, 126, 115, 140, 124, 71, 3, 0.624883
377, 3, bw, attraction, a-b-da, 2, 2, 8, 8, 90, 165, 165, 90, 163, 89, 2, 1.18122
377, 3, bw, attraction, a-b-da, 2, 2, 8, 8, 90, 165, 165, 90, 163, 89, 3, 0.956812
377, 3, bw, filler, NA, 999, 999, 8, 9, 76, 59, 181, 153, 189, 191, 2, 0.827747
377, 3, bw, filler, NA, 999, 999, 8, 9, 76, 59, 181, 153, 189, 191, 1, 1.09752
377, 3, bw, attraction, a-b-db, 5, 1, 8, 10, 60, 135, 135, 60, 58, 132, 1, 1.65122
377, 3, bw, attraction, a-b-db, 5, 1, 8, 10, 60, 135, 135, 60, 58, 132, 3, 0.903925
377, 3, bw, attraction, a-b-da, 2, 3, 8, 11, 193, 119, 120, 195, 195, 120, 3, 2.22554
377, 3, bw, attraction, a-b-da, 2, 3, 8, 11, 193, 119, 120, 195, 195, 120, 1, 0.654918
377, 3, bw, attraction, a-b-da, 14, 3, 8, 12, 181, 111, 120, 195, 195, 120, 2, 3.33858
377, 3, bw, attraction, a-b-da, 14, 3, 8, 12, 181, 111, 120, 195, 195, 120, 1, 0.571524
377, 3, bw, filler, NA, 999, 999, 8, 13, 100, 144, 157, 105, 174, 95, 2, 1.11457
377, 3, bw, filler, NA, 999, 999, 8, 13, 100, 144, 157, 105, 174, 95, 1, 0.844884
377, 3, bw, filler, NA, 999, 999, 8, 14, 92, 146, 143, 140, 154, 144, 2, 1.0086
377, 3, bw, filler, NA, 999, 999, 8, 14, 92, 146, 143, 140, 154, 144, 1, 0.43886
377, 3, bw, filler, NA, 999, 999, 8, 15, 104, 63, 153, 65, 195, 57, 2, 0.867298
377, 3, bw, filler, NA, 999, 999, 8, 15, 104, 63, 153, 65, 195, 57, 1, 0.407747
377, 3, bw, attraction, a-b-da, 9, 1, 8, 16, 60, 135, 129, 57, 135, 60, 3, 1.04487
377, 3, bw, attraction, a-b-da, 9, 1, 8, 16, 60, 135, 129, 57, 135, 60, 1, 1.20181
377, 3, bw, attraction, a-b-da, 5, 1, 8, 17, 60, 135, 132, 58, 135, 60, 2, 1.37541
377, 3, bw, attraction, a-b-da, 5, 1, 8, 17, 60, 135, 132, 58, 135, 60, 1, 2.45503
377, 3, bw, attraction, a-b-db, 14, 3, 8, 18, 195, 120, 120, 195, 111, 181, 1, 1.18622
377, 3, bw, attraction, a-b-db, 14, 3, 8, 18, 195, 120, 120, 195, 111, 181, 3, 0.457787
377, 3, bw, attraction, a-b-db, 2, 2, 8, 19, 165, 90, 90, 165, 89, 163, 3, 1.1409
377, 3, bw, attraction, a-b-db, 2, 2, 8, 19, 165, 90, 90, 165, 89, 163, 2, 0.589889
377, 3, bw, attraction, a-b-da, 9, 2, 8, 20, 165, 90, 157, 86, 90, 165, 3, 0.860358
377, 3, bw, attraction, a-b-da, 9, 2, 8, 20, 165, 90, 157, 86, 90, 165, 1, 0.560662
377, 3, bw, attraction, a-b-da, 5, 2, 8, 21, 161, 88, 165, 90, 90, 165, 3, 0.89581
377, 3, bw, attraction, a-b-da, 5, 2, 8, 21, 161, 88, 165, 90, 90, 165, 2, 0.498707
377, 3, bw, attraction, a-b-db, 14, 1, 8, 22, 135, 60, 56, 125, 60, 135, 3, 1.41254
377, 3, bw, attraction, a-b-db, 14, 1, 8, 22, 135, 60, 56, 125, 60, 135, 2, 1.0827
377, 3, bw, attraction, a-b-db, 2, 1, 8, 23, 135, 60, 60, 135, 59, 134, 3, 0.96506
377, 3, bw, attraction, a-b-db, 2, 1, 8, 23, 135, 60, 60, 135, 59, 134, 2, 0.605478
377, 3, bw, attraction, a-b-db, 5, 2, 8, 24, 165, 90, 90, 165, 88, 161, 2, 0.859099
377, 3, bw, attraction, a-b-db, 5, 2, 8, 24, 165, 90, 90, 165, 88, 161, 1, 0.559538
377, 3, bw, catch, NA, 999, 999, 8, 25, 146, 169, 74, 121, 145, 110, 1, 0.582534
377, 3, bw, catch, NA, 999, 999, 8, 25, 146, 169, 74, 121, 145, 110, 2, 0.406458
377, 3, bw, attraction, a-b-da, 14, 1, 8, 26, 60, 135, 125, 56, 135, 60, 1, 0.740138
377, 3, bw, attraction, a-b-da, 14, 1, 8, 26, 60, 135, 125, 56, 135, 60, 2, 1.13338
377, 3, bw, attraction, a-b-db, 5, 3, 8, 27, 195, 120, 120, 195, 117, 190, 2, 0.717624
377, 3, bw, attraction, a-b-db, 5, 3, 8, 27, 195, 120, 120, 195, 117, 190, 1, 0.407882
377, 3, bw, attraction, a-b-db, 9, 3, 8, 28, 120, 195, 195, 120, 114, 186, 1, 2.09301
377, 3, bw, attraction, a-b-db, 9, 3, 8, 28, 120, 195, 195, 120, 114, 186, 2, 0.415778
377, 3, bw, filler, NA, 999, 999, 8, 29, 162, 126, 105, 94, 68, 131, 1, 0.644802
377, 3, bw, filler, NA, 999, 999, 8, 29, 162, 126, 105, 94, 68, 131, 2, 0.78595
377, 3, bw, filler, NA, 999, 999, 8, 30, 183, 95, 126, 110, 139, 114, 3, 3.24027
377, 3, bw, filler, NA, 999, 999, 8, 30, 183, 95, 126, 110, 139, 114, 2, 0.69261
377, 3, bw, attraction, a-b-db, 14, 2, 8, 31, 90, 165, 83, 153, 165, 90, 2, 1.17438
377, 3, bw, attraction, a-b-db, 14, 2, 8, 31, 90, 165, 83, 153, 165, 90, 1, 0.397931
377, 3, bw, filler, NA, 999, 999, 8, 32, 107, 118, 88, 151, 135, 119, 3, 1.07574
377, 3, bw, filler, NA, 999, 999, 8, 32, 107, 118, 88, 151, 135, 119, 1, 0.863418
377, 3, bw, filler, NA, 999, 999, 8, 33, 176, 161, 85, 179, 111, 161, 1, 1.09049
377, 3, bw, filler, NA, 999, 999, 8, 33, 176, 161, 85, 179, 111, 161, 2, 0.693469
377, 3, bw, attraction, a-b-da, 5, 3, 8, 34, 190, 117, 120, 195, 195, 120, 2, 1.07908
377, 3, bw, attraction, a-b-da, 5, 3, 8, 34, 190, 117, 120, 195, 195, 120, 1, 0.434905
377, 3, bw, attraction, a-b-db, 9, 2, 8, 35, 86, 157, 90, 165, 165, 90, 2, 5.51917
377, 3, bw, attraction, a-b-db, 9, 2, 8, 35, 86, 157, 90, 165, 165, 90, 1, 0.67222
377, 3, bw, attraction, a-b-da, 9, 3, 8, 36, 186, 114, 195, 120, 120, 195, 3, 1.4912
377, 3, bw, attraction, a-b-da, 9, 3, 8, 36, 186, 114, 195, 120, 120, 195, 1, 1.02201
377, 3, bw, attraction, a-b-db, 9, 1, 8, 37, 57, 129, 135, 60, 60, 135, 3, 1.04291
377, 3, bw, attraction, a-b-db, 9, 1, 8, 37, 57, 129, 135, 60, 60, 135, 2, 0.399931
