sub_n, computer_n, bw_cond, effect, set, distance, diag, block_n, trial_n, h1, w1, h2, w2, h3, w3, choice, rt 
345, 3, bw, practice, NA, 999, 999, 0, 1, 122, 97, 117, 165, 58, 189, 2, 5.8904
345, 3, bw, practice, NA, 999, 999, 0, 1, 122, 97, 117, 165, 58, 189, 1, 34.3013
345, 3, bw, practice, NA, 999, 999, 0, 2, 76, 150, 183, 154, 192, 99, 2, 2.84321
345, 3, bw, practice, NA, 999, 999, 0, 2, 76, 150, 183, 154, 192, 99, 1, 1.64591
345, 3, bw, practice, NA, 999, 999, 0, 3, 191, 120, 114, 195, 94, 131, 2, 4.0231
345, 3, bw, practice, NA, 999, 999, 0, 3, 191, 120, 114, 195, 94, 131, 3, 2.43003
345, 3, bw, attraction, a-b-db, 5, 1, 1, 1, 135, 60, 60, 135, 58, 132, 2, 10.9254
345, 3, bw, attraction, a-b-db, 5, 1, 1, 1, 135, 60, 60, 135, 58, 132, 1, 2.74
345, 3, bw, attraction, a-b-da, 2, 2, 1, 2, 90, 165, 163, 89, 165, 90, 1, 2.52372
345, 3, bw, attraction, a-b-da, 2, 2, 1, 2, 90, 165, 163, 89, 165, 90, 3, 3.18106
345, 3, bw, attraction, a-b-da, 9, 2, 1, 3, 90, 165, 165, 90, 157, 86, 1, 2.29853
345, 3, bw, attraction, a-b-da, 9, 2, 1, 3, 90, 165, 165, 90, 157, 86, 3, 4.05325
345, 3, bw, attraction, a-b-db, 5, 2, 1, 4, 90, 165, 165, 90, 88, 161, 1, 2.27991
345, 3, bw, attraction, a-b-db, 5, 2, 1, 4, 90, 165, 165, 90, 88, 161, 2, 1.25118
345, 3, bw, filler, NA, 999, 999, 1, 5, 156, 147, 111, 141, 127, 56, 1, 1.27066
345, 3, bw, filler, NA, 999, 999, 1, 5, 156, 147, 111, 141, 127, 56, 3, 1.29118
345, 3, bw, filler, NA, 999, 999, 1, 6, 166, 90, 151, 153, 85, 177, 2, 1.18038
345, 3, bw, filler, NA, 999, 999, 1, 6, 166, 90, 151, 153, 85, 177, 3, 1.16405
345, 3, bw, attraction, a-b-db, 14, 3, 1, 7, 111, 181, 120, 195, 195, 120, 2, 1.43497
345, 3, bw, attraction, a-b-db, 14, 3, 1, 7, 111, 181, 120, 195, 195, 120, 1, 1.20841
345, 3, bw, attraction, a-b-da, 9, 1, 1, 8, 129, 57, 135, 60, 60, 135, 3, 2.98156
345, 3, bw, attraction, a-b-da, 9, 1, 1, 8, 129, 57, 135, 60, 60, 135, 1, 1.1244
345, 3, bw, catch, NA, 999, 999, 1, 9, 143, 172, 84, 111, 101, 154, 1, 1.25266
345, 3, bw, catch, NA, 999, 999, 1, 9, 143, 172, 84, 111, 101, 154, 2, 0.865739
345, 3, bw, attraction, a-b-da, 14, 3, 1, 10, 195, 120, 120, 195, 181, 111, 2, 1.1887
345, 3, bw, attraction, a-b-da, 14, 3, 1, 10, 195, 120, 120, 195, 181, 111, 3, 1.61156
345, 3, bw, attraction, a-b-db, 5, 3, 1, 11, 117, 190, 195, 120, 120, 195, 1, 1.63238
345, 3, bw, attraction, a-b-db, 5, 3, 1, 11, 117, 190, 195, 120, 120, 195, 2, 1.10979
345, 3, bw, catch, NA, 999, 999, 1, 12, 131, 124, 60, 135, 150, 165, 3, 0.814787
345, 3, bw, catch, NA, 999, 999, 1, 12, 131, 124, 60, 135, 150, 165, 2, 0.532997
345, 3, bw, filler, NA, 999, 999, 1, 13, 95, 158, 65, 186, 72, 192, 1, 1.02161
345, 3, bw, filler, NA, 999, 999, 1, 13, 95, 158, 65, 186, 72, 192, 3, 1.45912
345, 3, bw, attraction, a-b-da, 2, 1, 1, 14, 60, 135, 134, 59, 135, 60, 1, 2.80594
345, 3, bw, attraction, a-b-da, 2, 1, 1, 14, 60, 135, 134, 59, 135, 60, 3, 0.54768
345, 3, bw, filler, NA, 999, 999, 1, 15, 63, 155, 156, 73, 88, 176, 3, 1.13714
345, 3, bw, filler, NA, 999, 999, 1, 15, 63, 155, 156, 73, 88, 176, 1, 0.925111
345, 3, bw, attraction, a-b-da, 14, 2, 1, 16, 90, 165, 165, 90, 153, 83, 1, 2.25337
345, 3, bw, attraction, a-b-da, 14, 2, 1, 16, 90, 165, 165, 90, 153, 83, 3, 1.08208
345, 3, bw, attraction, a-b-db, 14, 1, 1, 17, 60, 135, 56, 125, 135, 60, 1, 0.972318
345, 3, bw, attraction, a-b-db, 14, 1, 1, 17, 60, 135, 56, 125, 135, 60, 3, 1.16399
345, 3, bw, attraction, a-b-db, 2, 1, 1, 18, 59, 134, 60, 135, 135, 60, 2, 1.83485
345, 3, bw, attraction, a-b-db, 2, 1, 1, 18, 59, 134, 60, 135, 135, 60, 3, 0.784329
345, 3, bw, attraction, a-b-da, 5, 3, 1, 19, 190, 117, 120, 195, 195, 120, 3, 5.15063
345, 3, bw, attraction, a-b-da, 5, 3, 1, 19, 190, 117, 120, 195, 195, 120, 1, 1.45435
345, 3, bw, attraction, a-b-da, 14, 1, 1, 20, 125, 56, 60, 135, 135, 60, 2, 1.32177
345, 3, bw, attraction, a-b-da, 14, 1, 1, 20, 125, 56, 60, 135, 135, 60, 1, 0.683401
345, 3, bw, attraction, a-b-db, 2, 3, 1, 21, 120, 195, 195, 120, 119, 193, 1, 1.56588
345, 3, bw, attraction, a-b-db, 2, 3, 1, 21, 120, 195, 195, 120, 119, 193, 2, 1.04602
345, 3, bw, attraction, a-b-da, 5, 2, 1, 22, 165, 90, 161, 88, 90, 165, 2, 1.26555
345, 3, bw, attraction, a-b-da, 5, 2, 1, 22, 165, 90, 161, 88, 90, 165, 1, 0.414005
345, 3, bw, filler, NA, 999, 999, 1, 23, 177, 108, 106, 69, 96, 120, 1, 1.01888
345, 3, bw, filler, NA, 999, 999, 1, 23, 177, 108, 106, 69, 96, 120, 2, 0.513314
345, 3, bw, attraction, a-b-db, 9, 2, 1, 24, 165, 90, 86, 157, 90, 165, 3, 0.938435
345, 3, bw, attraction, a-b-db, 9, 2, 1, 24, 165, 90, 86, 157, 90, 165, 1, 0.963466
345, 3, bw, filler, NA, 999, 999, 1, 25, 180, 102, 101, 120, 154, 57, 1, 1.09044
345, 3, bw, filler, NA, 999, 999, 1, 25, 180, 102, 101, 120, 154, 57, 3, 0.717369
345, 3, bw, filler, NA, 999, 999, 1, 26, 123, 62, 94, 99, 96, 144, 3, 0.822338
345, 3, bw, filler, NA, 999, 999, 1, 26, 123, 62, 94, 99, 96, 144, 1, 0.788144
345, 3, bw, attraction, a-b-db, 2, 2, 1, 27, 89, 163, 90, 165, 165, 90, 1, 0.746421
345, 3, bw, attraction, a-b-db, 2, 2, 1, 27, 89, 163, 90, 165, 165, 90, 2, 2.36361
345, 3, bw, catch, NA, 999, 999, 1, 28, 75, 120, 121, 134, 146, 169, 3, 0.770115
345, 3, bw, catch, NA, 999, 999, 1, 28, 75, 120, 121, 134, 146, 169, 1, 0.466518
345, 3, bw, attraction, a-b-da, 5, 1, 1, 29, 132, 58, 135, 60, 60, 135, 3, 2.25363
345, 3, bw, attraction, a-b-da, 5, 1, 1, 29, 132, 58, 135, 60, 60, 135, 2, 0.426241
345, 3, bw, filler, NA, 999, 999, 1, 30, 105, 86, 104, 141, 65, 154, 2, 1.1827
345, 3, bw, filler, NA, 999, 999, 1, 30, 105, 86, 104, 141, 65, 154, 1, 0.846285
345, 3, bw, filler, NA, 999, 999, 1, 31, 117, 155, 88, 84, 186, 103, 1, 0.985933
345, 3, bw, filler, NA, 999, 999, 1, 31, 117, 155, 88, 84, 186, 103, 2, 0.961657
345, 3, bw, filler, NA, 999, 999, 1, 32, 141, 173, 128, 86, 86, 147, 1, 0.616589
345, 3, bw, filler, NA, 999, 999, 1, 32, 141, 173, 128, 86, 86, 147, 3, 0.879204
345, 3, bw, attraction, a-b-db, 9, 1, 1, 33, 135, 60, 57, 129, 60, 135, 3, 1.59333
345, 3, bw, attraction, a-b-db, 9, 1, 1, 33, 135, 60, 57, 129, 60, 135, 2, 0.528143
345, 3, bw, attraction, a-b-da, 2, 3, 1, 34, 120, 195, 193, 119, 195, 120, 1, 0.864587
345, 3, bw, attraction, a-b-da, 2, 3, 1, 34, 120, 195, 193, 119, 195, 120, 3, 1.26115
345, 3, bw, attraction, a-b-da, 9, 3, 1, 35, 186, 114, 195, 120, 120, 195, 3, 1.11187
345, 3, bw, attraction, a-b-da, 9, 3, 1, 35, 186, 114, 195, 120, 120, 195, 1, 1.21019
345, 3, bw, attraction, a-b-db, 9, 3, 1, 36, 114, 186, 195, 120, 120, 195, 3, 1.1911
345, 3, bw, attraction, a-b-db, 9, 3, 1, 36, 114, 186, 195, 120, 120, 195, 2, 2.71021
345, 3, bw, attraction, a-b-db, 14, 2, 1, 37, 83, 153, 90, 165, 165, 90, 3, 1.66243
345, 3, bw, attraction, a-b-db, 14, 2, 1, 37, 83, 153, 90, 165, 165, 90, 2, 1.22652
345, 3, bw, attraction, a-b-db, 14, 2, 2, 1, 83, 153, 165, 90, 90, 165, 3, 1.19877
345, 3, bw, attraction, a-b-db, 14, 2, 2, 1, 83, 153, 165, 90, 90, 165, 2, 0.501767
345, 3, bw, attraction, a-b-db, 2, 2, 2, 2, 90, 165, 165, 90, 89, 163, 1, 0.631544
345, 3, bw, attraction, a-b-db, 2, 2, 2, 2, 90, 165, 165, 90, 89, 163, 2, 0.757321
345, 3, bw, attraction, a-b-db, 9, 3, 2, 3, 120, 195, 195, 120, 114, 186, 1, 0.964309
345, 3, bw, attraction, a-b-db, 9, 3, 2, 3, 120, 195, 195, 120, 114, 186, 2, 0.636638
345, 3, bw, filler, NA, 999, 999, 2, 4, 96, 136, 192, 169, 115, 165, 2, 1.19303
345, 3, bw, filler, NA, 999, 999, 2, 4, 96, 136, 192, 169, 115, 165, 1, 0.496021
345, 3, bw, attraction, a-b-da, 14, 2, 2, 5, 165, 90, 90, 165, 153, 83, 1, 1.04984
345, 3, bw, attraction, a-b-da, 14, 2, 2, 5, 165, 90, 90, 165, 153, 83, 3, 0.878739
345, 3, bw, attraction, a-b-da, 14, 3, 2, 6, 120, 195, 181, 111, 195, 120, 1, 0.721083
345, 3, bw, attraction, a-b-da, 14, 3, 2, 6, 120, 195, 181, 111, 195, 120, 2, 0.451544
345, 3, bw, attraction, a-b-db, 14, 3, 2, 7, 120, 195, 195, 120, 111, 181, 2, 2.34333
345, 3, bw, attraction, a-b-db, 14, 3, 2, 7, 120, 195, 195, 120, 111, 181, 3, 1.53589
345, 3, bw, filler, NA, 999, 999, 2, 8, 98, 152, 182, 56, 153, 117, 1, 1.256
345, 3, bw, filler, NA, 999, 999, 2, 8, 98, 152, 182, 56, 153, 117, 2, 0.548254
345, 3, bw, filler, NA, 999, 999, 2, 9, 154, 148, 61, 135, 185, 192, 3, 0.747988
345, 3, bw, filler, NA, 999, 999, 2, 9, 154, 148, 61, 135, 185, 192, 2, 0.453069
345, 3, bw, attraction, a-b-db, 5, 1, 2, 10, 60, 135, 135, 60, 58, 132, 3, 1.37686
345, 3, bw, attraction, a-b-db, 5, 1, 2, 10, 60, 135, 135, 60, 58, 132, 2, 1.44854
345, 3, bw, attraction, a-b-da, 5, 1, 2, 11, 60, 135, 135, 60, 132, 58, 1, 1.02808
345, 3, bw, attraction, a-b-da, 5, 1, 2, 11, 60, 135, 135, 60, 132, 58, 3, 0.625584
345, 3, bw, catch, NA, 999, 999, 2, 12, 65, 130, 159, 96, 195, 120, 3, 0.886004
345, 3, bw, catch, NA, 999, 999, 2, 12, 65, 130, 159, 96, 195, 120, 1, 0.609801
345, 3, bw, attraction, a-b-da, 9, 1, 2, 13, 60, 135, 135, 60, 129, 57, 1, 0.846867
345, 3, bw, attraction, a-b-da, 9, 1, 2, 13, 60, 135, 135, 60, 129, 57, 3, 0.395777
345, 3, bw, filler, NA, 999, 999, 2, 14, 187, 114, 122, 75, 163, 81, 1, 0.905575
345, 3, bw, filler, NA, 999, 999, 2, 14, 187, 114, 122, 75, 163, 81, 3, 0.628133
345, 3, bw, catch, NA, 999, 999, 2, 15, 106, 89, 162, 153, 145, 110, 2, 0.744361
345, 3, bw, catch, NA, 999, 999, 2, 15, 106, 89, 162, 153, 145, 110, 1, 0.945476
345, 3, bw, filler, NA, 999, 999, 2, 16, 160, 155, 72, 187, 60, 115, 1, 0.649188
345, 3, bw, filler, NA, 999, 999, 2, 16, 160, 155, 72, 187, 60, 115, 3, 0.73427
345, 3, bw, attraction, a-b-da, 5, 3, 2, 17, 120, 195, 195, 120, 190, 117, 1, 1.59063
345, 3, bw, attraction, a-b-da, 5, 3, 2, 17, 120, 195, 195, 120, 190, 117, 2, 0.477473
345, 3, bw, attraction, a-b-db, 5, 3, 2, 18, 195, 120, 120, 195, 117, 190, 1, 1.27999
345, 3, bw, attraction, a-b-db, 5, 3, 2, 18, 195, 120, 120, 195, 117, 190, 3, 0.955495
345, 3, bw, attraction, a-b-da, 2, 2, 2, 19, 90, 165, 163, 89, 165, 90, 1, 0.979058
345, 3, bw, attraction, a-b-da, 2, 2, 2, 19, 90, 165, 163, 89, 165, 90, 3, 0.594769
345, 3, bw, attraction, a-b-db, 9, 1, 2, 20, 135, 60, 60, 135, 57, 129, 3, 0.928471
345, 3, bw, attraction, a-b-db, 9, 1, 2, 20, 135, 60, 60, 135, 57, 129, 1, 0.722289
345, 3, bw, attraction, a-b-da, 9, 3, 2, 21, 195, 120, 120, 195, 186, 114, 1, 0.779239
345, 3, bw, attraction, a-b-da, 9, 3, 2, 21, 195, 120, 120, 195, 186, 114, 3, 0.507017
345, 3, bw, attraction, a-b-da, 9, 2, 2, 22, 165, 90, 157, 86, 90, 165, 3, 0.884142
345, 3, bw, attraction, a-b-da, 9, 2, 2, 22, 165, 90, 157, 86, 90, 165, 2, 0.687804
345, 3, bw, attraction, a-b-db, 14, 1, 2, 23, 135, 60, 56, 125, 60, 135, 3, 1.28214
345, 3, bw, attraction, a-b-db, 14, 1, 2, 23, 135, 60, 56, 125, 60, 135, 2, 0.693823
345, 3, bw, attraction, a-b-da, 2, 3, 2, 24, 195, 120, 120, 195, 193, 119, 1, 0.775415
345, 3, bw, attraction, a-b-da, 2, 3, 2, 24, 195, 120, 120, 195, 193, 119, 2, 0.527147
345, 3, bw, attraction, a-b-da, 2, 1, 2, 25, 60, 135, 135, 60, 134, 59, 1, 1.05572
345, 3, bw, attraction, a-b-da, 2, 1, 2, 25, 60, 135, 135, 60, 134, 59, 3, 0.876054
345, 3, bw, filler, NA, 999, 999, 2, 26, 144, 109, 135, 168, 137, 135, 2, 0.782242
345, 3, bw, filler, NA, 999, 999, 2, 26, 144, 109, 135, 168, 137, 135, 1, 0.509976
345, 3, bw, attraction, a-b-da, 14, 1, 2, 27, 125, 56, 135, 60, 60, 135, 2, 1.05516
345, 3, bw, attraction, a-b-da, 14, 1, 2, 27, 125, 56, 135, 60, 60, 135, 1, 0.42748
345, 3, bw, catch, NA, 999, 999, 2, 28, 172, 143, 101, 94, 132, 123, 1, 0.823992
345, 3, bw, catch, NA, 999, 999, 2, 28, 172, 143, 101, 94, 132, 123, 2, 0.437728
345, 3, bw, attraction, a-b-db, 2, 1, 2, 29, 59, 134, 60, 135, 135, 60, 2, 1.02623
345, 3, bw, attraction, a-b-db, 2, 1, 2, 29, 59, 134, 60, 135, 135, 60, 1, 0.687802
345, 3, bw, filler, NA, 999, 999, 2, 30, 130, 135, 116, 132, 152, 178, 3, 0.602193
345, 3, bw, filler, NA, 999, 999, 2, 30, 130, 135, 116, 132, 152, 178, 1, 1.60131
345, 3, bw, filler, NA, 999, 999, 2, 31, 98, 174, 121, 141, 191, 138, 3, 0.430762
345, 3, bw, filler, NA, 999, 999, 2, 31, 98, 174, 121, 141, 191, 138, 2, 0.668534
345, 3, bw, attraction, a-b-db, 2, 3, 2, 32, 120, 195, 119, 193, 195, 120, 1, 1.48768
345, 3, bw, attraction, a-b-db, 2, 3, 2, 32, 120, 195, 119, 193, 195, 120, 3, 0.378446
345, 3, bw, filler, NA, 999, 999, 2, 33, 59, 86, 170, 151, 163, 168, 2, 0.640949
345, 3, bw, filler, NA, 999, 999, 2, 33, 59, 86, 170, 151, 163, 168, 1, 0.94209
345, 3, bw, filler, NA, 999, 999, 2, 34, 77, 109, 106, 135, 67, 56, 2, 1.14971
345, 3, bw, filler, NA, 999, 999, 2, 34, 77, 109, 106, 135, 67, 56, 3, 0.494712
345, 3, bw, attraction, a-b-db, 9, 2, 2, 35, 90, 165, 165, 90, 86, 157, 1, 0.704377
345, 3, bw, attraction, a-b-db, 9, 2, 2, 35, 90, 165, 165, 90, 86, 157, 2, 0.779572
345, 3, bw, attraction, a-b-db, 5, 2, 2, 36, 90, 165, 88, 161, 165, 90, 1, 3.98582
345, 3, bw, attraction, a-b-db, 5, 2, 2, 36, 90, 165, 88, 161, 165, 90, 2, 0.60864
345, 3, bw, attraction, a-b-da, 5, 2, 2, 37, 161, 88, 90, 165, 165, 90, 2, 1.20567
345, 3, bw, attraction, a-b-da, 5, 2, 2, 37, 161, 88, 90, 165, 165, 90, 1, 0.411928
345, 3, bw, attraction, a-b-db, 9, 3, 3, 1, 114, 186, 195, 120, 120, 195, 3, 0.9692
345, 3, bw, attraction, a-b-db, 9, 3, 3, 1, 114, 186, 195, 120, 120, 195, 1, 0.569428
345, 3, bw, attraction, a-b-da, 14, 2, 3, 2, 165, 90, 153, 83, 90, 165, 1, 0.8486
345, 3, bw, attraction, a-b-da, 14, 2, 3, 2, 165, 90, 153, 83, 90, 165, 3, 0.933627
345, 3, bw, filler, NA, 999, 999, 3, 3, 164, 145, 57, 181, 67, 104, 1, 1.25405
345, 3, bw, filler, NA, 999, 999, 3, 3, 164, 145, 57, 181, 67, 104, 3, 0.506806
345, 3, bw, attraction, a-b-db, 2, 1, 3, 4, 59, 134, 135, 60, 60, 135, 1, 1.28395
345, 3, bw, attraction, a-b-db, 2, 1, 3, 4, 59, 134, 135, 60, 60, 135, 2, 0.69555
345, 3, bw, attraction, a-b-db, 2, 3, 3, 5, 195, 120, 119, 193, 120, 195, 1, 0.97724
345, 3, bw, attraction, a-b-db, 2, 3, 3, 5, 195, 120, 119, 193, 120, 195, 3, 1.61696
345, 3, bw, filler, NA, 999, 999, 3, 6, 142, 137, 60, 120, 120, 189, 1, 1.85384
345, 3, bw, filler, NA, 999, 999, 3, 6, 142, 137, 60, 120, 120, 189, 2, 1.81044
345, 3, bw, attraction, a-b-db, 5, 3, 3, 7, 120, 195, 195, 120, 117, 190, 1, 1.62312
345, 3, bw, attraction, a-b-db, 5, 3, 3, 7, 120, 195, 195, 120, 117, 190, 3, 0.652555
345, 3, bw, attraction, a-b-db, 14, 2, 3, 8, 90, 165, 165, 90, 83, 153, 1, 1.11244
345, 3, bw, attraction, a-b-db, 14, 2, 3, 8, 90, 165, 165, 90, 83, 153, 3, 0.394774
345, 3, bw, filler, NA, 999, 999, 3, 9, 82, 152, 98, 193, 128, 150, 3, 0.720493
345, 3, bw, filler, NA, 999, 999, 3, 9, 82, 152, 98, 193, 128, 150, 1, 0.906799
345, 3, bw, filler, NA, 999, 999, 3, 10, 77, 153, 180, 130, 186, 187, 3, 0.579888
345, 3, bw, filler, NA, 999, 999, 3, 10, 77, 153, 180, 130, 186, 187, 1, 1.44374
345, 3, bw, attraction, a-b-db, 14, 3, 3, 11, 111, 181, 120, 195, 195, 120, 3, 3.42306
345, 3, bw, attraction, a-b-db, 14, 3, 3, 11, 111, 181, 120, 195, 195, 120, 1, 0.652086
345, 3, bw, filler, NA, 999, 999, 3, 12, 76, 166, 130, 106, 98, 60, 2, 0.823803
345, 3, bw, filler, NA, 999, 999, 3, 12, 76, 166, 130, 106, 98, 60, 3, 0.30956
345, 3, bw, attraction, a-b-da, 14, 1, 3, 13, 135, 60, 60, 135, 125, 56, 1, 1.38272
345, 3, bw, attraction, a-b-da, 14, 1, 3, 13, 135, 60, 60, 135, 125, 56, 3, 1.1982
345, 3, bw, attraction, a-b-db, 9, 2, 3, 14, 165, 90, 86, 157, 90, 165, 1, 0.531796
345, 3, bw, attraction, a-b-db, 9, 2, 3, 14, 165, 90, 86, 157, 90, 165, 2, 1.11765
345, 3, bw, attraction, a-b-da, 9, 3, 3, 15, 195, 120, 120, 195, 186, 114, 1, 1.30251
345, 3, bw, attraction, a-b-da, 9, 3, 3, 15, 195, 120, 120, 195, 186, 114, 3, 0.449467
345, 3, bw, attraction, a-b-db, 5, 2, 3, 16, 88, 161, 90, 165, 165, 90, 1, 0.757238
345, 3, bw, attraction, a-b-db, 5, 2, 3, 16, 88, 161, 90, 165, 165, 90, 3, 0.75767
345, 3, bw, filler, NA, 999, 999, 3, 17, 171, 66, 72, 114, 79, 102, 1, 0.716627
345, 3, bw, filler, NA, 999, 999, 3, 17, 171, 66, 72, 114, 79, 102, 3, 1.58324
345, 3, bw, attraction, a-b-da, 2, 2, 3, 18, 163, 89, 90, 165, 165, 90, 2, 2.23735
345, 3, bw, attraction, a-b-da, 2, 2, 3, 18, 163, 89, 90, 165, 165, 90, 1, 0.81048
345, 3, bw, catch, NA, 999, 999, 3, 19, 84, 111, 161, 154, 120, 135, 2, 0.599441
345, 3, bw, catch, NA, 999, 999, 3, 19, 84, 111, 161, 154, 120, 135, 1, 0.622581
345, 3, bw, attraction, a-b-db, 2, 2, 3, 20, 90, 165, 165, 90, 89, 163, 1, 2.29962
345, 3, bw, attraction, a-b-db, 2, 2, 3, 20, 90, 165, 165, 90, 89, 163, 3, 0.958424
345, 3, bw, attraction, a-b-da, 14, 3, 3, 21, 195, 120, 181, 111, 120, 195, 1, 0.60525
345, 3, bw, attraction, a-b-da, 14, 3, 3, 21, 195, 120, 181, 111, 120, 195, 3, 0.95567
345, 3, bw, attraction, a-b-da, 2, 3, 3, 22, 193, 119, 195, 120, 120, 195, 2, 1.59528
345, 3, bw, attraction, a-b-da, 2, 3, 3, 22, 193, 119, 195, 120, 120, 195, 1, 0.690141
345, 3, bw, catch, NA, 999, 999, 3, 23, 63, 132, 145, 170, 99, 156, 2, 0.867761
345, 3, bw, catch, NA, 999, 999, 3, 23, 63, 132, 145, 170, 99, 156, 1, 0.568149
345, 3, bw, filler, NA, 999, 999, 3, 24, 139, 109, 123, 77, 130, 75, 1, 0.86332
345, 3, bw, filler, NA, 999, 999, 3, 24, 139, 109, 123, 77, 130, 75, 2, 0.907669
345, 3, bw, filler, NA, 999, 999, 3, 25, 70, 121, 130, 74, 121, 185, 3, 0.604759
345, 3, bw, filler, NA, 999, 999, 3, 25, 70, 121, 130, 74, 121, 185, 1, 0.683812
345, 3, bw, attraction, a-b-da, 5, 2, 3, 26, 90, 165, 165, 90, 161, 88, 1, 0.566109
345, 3, bw, attraction, a-b-da, 5, 2, 3, 26, 90, 165, 165, 90, 161, 88, 3, 0.686654
345, 3, bw, attraction, a-b-da, 9, 2, 3, 27, 90, 165, 157, 86, 165, 90, 1, 0.681127
345, 3, bw, attraction, a-b-da, 9, 2, 3, 27, 90, 165, 157, 86, 165, 90, 3, 0.676874
345, 3, bw, attraction, a-b-da, 5, 3, 3, 28, 195, 120, 190, 117, 120, 195, 3, 0.967218
345, 3, bw, attraction, a-b-da, 5, 3, 3, 28, 195, 120, 190, 117, 120, 195, 1, 0.423558
345, 3, bw, attraction, a-b-db, 9, 1, 3, 29, 135, 60, 57, 129, 60, 135, 2, 1.08396
345, 3, bw, attraction, a-b-db, 9, 1, 3, 29, 135, 60, 57, 129, 60, 135, 1, 0.695599
345, 3, bw, attraction, a-b-da, 9, 1, 3, 30, 60, 135, 129, 57, 135, 60, 1, 0.673458
345, 3, bw, attraction, a-b-da, 9, 1, 3, 30, 60, 135, 129, 57, 135, 60, 2, 0.605183
345, 3, bw, attraction, a-b-da, 2, 1, 3, 31, 135, 60, 134, 59, 60, 135, 2, 1.25087
345, 3, bw, attraction, a-b-da, 2, 1, 3, 31, 135, 60, 134, 59, 60, 135, 1, 0.663821
345, 3, bw, catch, NA, 999, 999, 3, 32, 147, 168, 129, 126, 115, 80, 1, 0.682859
345, 3, bw, catch, NA, 999, 999, 3, 32, 147, 168, 129, 126, 115, 80, 3, 0.646681
345, 3, bw, attraction, a-b-db, 14, 1, 3, 33, 60, 135, 135, 60, 56, 125, 2, 1.32234
345, 3, bw, attraction, a-b-db, 14, 1, 3, 33, 60, 135, 135, 60, 56, 125, 3, 0.532001
345, 3, bw, filler, NA, 999, 999, 3, 34, 164, 96, 116, 84, 145, 57, 1, 0.572331
345, 3, bw, filler, NA, 999, 999, 3, 34, 164, 96, 116, 84, 145, 57, 2, 0.452132
345, 3, bw, attraction, a-b-da, 5, 1, 3, 35, 132, 58, 135, 60, 60, 135, 2, 2.46404
345, 3, bw, attraction, a-b-da, 5, 1, 3, 35, 132, 58, 135, 60, 60, 135, 1, 1.63608
345, 3, bw, filler, NA, 999, 999, 3, 36, 186, 172, 99, 150, 77, 84, 1, 0.727902
345, 3, bw, filler, NA, 999, 999, 3, 36, 186, 172, 99, 150, 77, 84, 3, 0.977755
345, 3, bw, attraction, a-b-db, 5, 1, 3, 37, 135, 60, 58, 132, 60, 135, 3, 1.20002
345, 3, bw, attraction, a-b-db, 5, 1, 3, 37, 135, 60, 58, 132, 60, 135, 1, 1.16696
345, 3, bw, attraction, a-b-da, 14, 3, 4, 1, 181, 111, 195, 120, 120, 195, 2, 0.453793
345, 3, bw, attraction, a-b-da, 14, 3, 4, 1, 181, 111, 195, 120, 120, 195, 1, 0.442974
345, 3, bw, catch, NA, 999, 999, 4, 2, 120, 195, 103, 92, 98, 157, 1, 0.670713
345, 3, bw, catch, NA, 999, 999, 4, 2, 120, 195, 103, 92, 98, 157, 2, 0.435263
345, 3, bw, filler, NA, 999, 999, 4, 3, 98, 61, 118, 154, 77, 128, 2, 0.719813
345, 3, bw, filler, NA, 999, 999, 4, 3, 98, 61, 118, 154, 77, 128, 1, 0.754183
345, 3, bw, attraction, a-b-db, 5, 2, 4, 4, 90, 165, 165, 90, 88, 161, 3, 0.857826
345, 3, bw, attraction, a-b-db, 5, 2, 4, 4, 90, 165, 165, 90, 88, 161, 2, 0.694198
345, 3, bw, filler, NA, 999, 999, 4, 5, 92, 88, 62, 143, 140, 78, 1, 0.895945
345, 3, bw, filler, NA, 999, 999, 4, 5, 92, 88, 62, 143, 140, 78, 2, 1.0031
345, 3, bw, attraction, a-b-da, 9, 3, 4, 6, 195, 120, 120, 195, 186, 114, 2, 2.68852
345, 3, bw, attraction, a-b-da, 9, 3, 4, 6, 195, 120, 120, 195, 186, 114, 1, 0.62702
345, 3, bw, attraction, a-b-db, 14, 1, 4, 7, 56, 125, 135, 60, 60, 135, 3, 1.38346
345, 3, bw, attraction, a-b-db, 14, 1, 4, 7, 56, 125, 135, 60, 60, 135, 2, 0.655076
345, 3, bw, attraction, a-b-db, 2, 1, 4, 8, 60, 135, 59, 134, 135, 60, 1, 0.898738
345, 3, bw, attraction, a-b-db, 2, 1, 4, 8, 60, 135, 59, 134, 135, 60, 3, 0.661852
345, 3, bw, attraction, a-b-da, 9, 1, 4, 9, 129, 57, 60, 135, 135, 60, 2, 0.792886
345, 3, bw, attraction, a-b-da, 9, 1, 4, 9, 129, 57, 60, 135, 135, 60, 1, 0.623938
345, 3, bw, attraction, a-b-da, 14, 2, 4, 10, 165, 90, 153, 83, 90, 165, 1, 0.740238
345, 3, bw, attraction, a-b-da, 14, 2, 4, 10, 165, 90, 153, 83, 90, 165, 2, 1.82949
345, 3, bw, attraction, a-b-db, 9, 1, 4, 11, 135, 60, 57, 129, 60, 135, 1, 0.825454
345, 3, bw, attraction, a-b-db, 9, 1, 4, 11, 135, 60, 57, 129, 60, 135, 2, 0.415189
345, 3, bw, catch, NA, 999, 999, 4, 12, 121, 134, 106, 89, 163, 152, 3, 0.756206
345, 3, bw, catch, NA, 999, 999, 4, 12, 121, 134, 106, 89, 163, 152, 2, 0.468686
345, 3, bw, attraction, a-b-db, 9, 2, 4, 13, 86, 157, 90, 165, 165, 90, 2, 0.807811
345, 3, bw, attraction, a-b-db, 9, 2, 4, 13, 86, 157, 90, 165, 165, 90, 3, 0.750236
345, 3, bw, attraction, a-b-da, 2, 3, 4, 14, 193, 119, 195, 120, 120, 195, 1, 0.573947
345, 3, bw, attraction, a-b-da, 2, 3, 4, 14, 193, 119, 195, 120, 120, 195, 2, 1.43774
345, 3, bw, filler, NA, 999, 999, 4, 15, 94, 189, 122, 123, 64, 143, 1, 0.72986
345, 3, bw, filler, NA, 999, 999, 4, 15, 94, 189, 122, 123, 64, 143, 3, 1.20364
345, 3, bw, attraction, a-b-da, 5, 2, 4, 16, 90, 165, 165, 90, 161, 88, 2, 0.921244
345, 3, bw, attraction, a-b-da, 5, 2, 4, 16, 90, 165, 165, 90, 161, 88, 3, 1.38689
345, 3, bw, attraction, a-b-da, 5, 3, 4, 17, 195, 120, 190, 117, 120, 195, 2, 0.84099
345, 3, bw, attraction, a-b-da, 5, 3, 4, 17, 195, 120, 190, 117, 120, 195, 1, 0.750061
345, 3, bw, attraction, a-b-da, 9, 2, 4, 18, 90, 165, 165, 90, 157, 86, 1, 0.805746
345, 3, bw, attraction, a-b-da, 9, 2, 4, 18, 90, 165, 165, 90, 157, 86, 3, 0.612121
345, 3, bw, attraction, a-b-db, 9, 3, 4, 19, 114, 186, 120, 195, 195, 120, 1, 1.92921
345, 3, bw, attraction, a-b-db, 9, 3, 4, 19, 114, 186, 120, 195, 195, 120, 2, 1.1706
345, 3, bw, filler, NA, 999, 999, 4, 20, 134, 72, 187, 123, 108, 91, 2, 0.481677
345, 3, bw, filler, NA, 999, 999, 4, 20, 134, 72, 187, 123, 108, 91, 1, 4.95735
345, 3, bw, catch, NA, 999, 999, 4, 21, 106, 149, 82, 113, 183, 132, 3, 1.25185
345, 3, bw, catch, NA, 999, 999, 4, 21, 106, 149, 82, 113, 183, 132, 2, 0.432701
345, 3, bw, filler, NA, 999, 999, 4, 22, 173, 81, 81, 67, 183, 77, 3, 1.18914
345, 3, bw, filler, NA, 999, 999, 4, 22, 173, 81, 81, 67, 183, 77, 2, 0.868099
345, 3, bw, attraction, a-b-db, 2, 2, 4, 23, 165, 90, 89, 163, 90, 165, 3, 1.21503
345, 3, bw, attraction, a-b-db, 2, 2, 4, 23, 165, 90, 89, 163, 90, 165, 1, 0.397406
345, 3, bw, filler, NA, 999, 999, 4, 24, 66, 91, 99, 70, 82, 121, 3, 0.603105
345, 3, bw, filler, NA, 999, 999, 4, 24, 66, 91, 99, 70, 82, 121, 1, 0.714243
345, 3, bw, attraction, a-b-da, 2, 2, 4, 25, 90, 165, 165, 90, 163, 89, 1, 0.715266
345, 3, bw, attraction, a-b-da, 2, 2, 4, 25, 90, 165, 165, 90, 163, 89, 3, 0.701924
345, 3, bw, attraction, a-b-db, 14, 3, 4, 26, 195, 120, 111, 181, 120, 195, 1, 1.11948
345, 3, bw, attraction, a-b-db, 14, 3, 4, 26, 195, 120, 111, 181, 120, 195, 2, 1.32188
345, 3, bw, filler, NA, 999, 999, 4, 27, 145, 85, 166, 153, 160, 133, 2, 0.61862
345, 3, bw, filler, NA, 999, 999, 4, 27, 145, 85, 166, 153, 160, 133, 1, 0.633254
345, 3, bw, attraction, a-b-db, 5, 1, 4, 28, 58, 132, 60, 135, 135, 60, 1, 1.22147
345, 3, bw, attraction, a-b-db, 5, 1, 4, 28, 58, 132, 60, 135, 135, 60, 3, 0.683079
345, 3, bw, attraction, a-b-da, 14, 1, 4, 29, 60, 135, 135, 60, 125, 56, 1, 1.02145
345, 3, bw, attraction, a-b-da, 14, 1, 4, 29, 60, 135, 135, 60, 125, 56, 2, 1.09182
345, 3, bw, attraction, a-b-db, 2, 3, 4, 30, 120, 195, 195, 120, 119, 193, 1, 2.63752
345, 3, bw, attraction, a-b-db, 2, 3, 4, 30, 120, 195, 195, 120, 119, 193, 2, 0.522665
345, 3, bw, attraction, a-b-da, 5, 1, 4, 31, 60, 135, 135, 60, 132, 58, 1, 1.57164
345, 3, bw, attraction, a-b-da, 5, 1, 4, 31, 60, 135, 135, 60, 132, 58, 3, 0.643313
345, 3, bw, filler, NA, 999, 999, 4, 32, 141, 127, 124, 100, 114, 76, 2, 0.662874
345, 3, bw, filler, NA, 999, 999, 4, 32, 141, 127, 124, 100, 114, 76, 3, 2.09129
345, 3, bw, attraction, a-b-db, 5, 3, 4, 33, 120, 195, 117, 190, 195, 120, 1, 0.668636
345, 3, bw, attraction, a-b-db, 5, 3, 4, 33, 120, 195, 117, 190, 195, 120, 3, 0.697014
345, 3, bw, attraction, a-b-db, 14, 2, 4, 34, 165, 90, 90, 165, 83, 153, 1, 0.690723
345, 3, bw, attraction, a-b-db, 14, 2, 4, 34, 165, 90, 90, 165, 83, 153, 3, 0.789857
345, 3, bw, filler, NA, 999, 999, 4, 35, 151, 123, 126, 191, 160, 190, 2, 0.676179
345, 3, bw, filler, NA, 999, 999, 4, 35, 151, 123, 126, 191, 160, 190, 1, 0.368038
345, 3, bw, attraction, a-b-da, 2, 1, 4, 36, 135, 60, 134, 59, 60, 135, 2, 2.03125
345, 3, bw, attraction, a-b-da, 2, 1, 4, 36, 135, 60, 134, 59, 60, 135, 1, 1.54051
345, 3, bw, filler, NA, 999, 999, 4, 37, 113, 123, 187, 61, 131, 69, 2, 0.547972
345, 3, bw, filler, NA, 999, 999, 4, 37, 113, 123, 187, 61, 131, 69, 3, 1.47705
345, 3, bw, filler, NA, 999, 999, 5, 1, 98, 173, 101, 173, 109, 110, 2, 7.99779
345, 3, bw, filler, NA, 999, 999, 5, 1, 98, 173, 101, 173, 109, 110, 3, 0.47468
345, 3, bw, filler, NA, 999, 999, 5, 2, 99, 103, 97, 192, 103, 144, 2, 0.95701
345, 3, bw, filler, NA, 999, 999, 5, 2, 99, 103, 97, 192, 103, 144, 1, 0.629448
345, 3, bw, attraction, a-b-db, 5, 3, 5, 3, 195, 120, 120, 195, 117, 190, 2, 1.60996
345, 3, bw, attraction, a-b-db, 5, 3, 5, 3, 195, 120, 120, 195, 117, 190, 1, 0.383959
345, 3, bw, attraction, a-b-da, 14, 3, 5, 4, 181, 111, 120, 195, 195, 120, 2, 0.8304
345, 3, bw, attraction, a-b-da, 14, 3, 5, 4, 181, 111, 120, 195, 195, 120, 1, 0.460099
345, 3, bw, attraction, a-b-db, 14, 3, 5, 5, 111, 181, 195, 120, 120, 195, 3, 0.671348
345, 3, bw, attraction, a-b-db, 14, 3, 5, 5, 111, 181, 195, 120, 120, 195, 1, 0.763783
345, 3, bw, attraction, a-b-db, 5, 2, 5, 6, 90, 165, 165, 90, 88, 161, 1, 0.9709
345, 3, bw, attraction, a-b-db, 5, 2, 5, 6, 90, 165, 165, 90, 88, 161, 2, 0.371062
345, 3, bw, filler, NA, 999, 999, 5, 7, 131, 82, 111, 63, 161, 94, 3, 1.31435
345, 3, bw, filler, NA, 999, 999, 5, 7, 131, 82, 111, 63, 161, 94, 2, 0.396496
345, 3, bw, catch, NA, 999, 999, 5, 8, 143, 112, 165, 150, 106, 89, 2, 0.842336
345, 3, bw, catch, NA, 999, 999, 5, 8, 143, 112, 165, 150, 106, 89, 3, 0.33551
345, 3, bw, attraction, a-b-da, 2, 3, 5, 9, 193, 119, 195, 120, 120, 195, 1, 0.736009
345, 3, bw, attraction, a-b-da, 2, 3, 5, 9, 193, 119, 195, 120, 120, 195, 2, 0.545721
345, 3, bw, attraction, a-b-db, 9, 1, 5, 10, 57, 129, 60, 135, 135, 60, 1, 0.849545
345, 3, bw, attraction, a-b-db, 9, 1, 5, 10, 57, 129, 60, 135, 135, 60, 2, 0.430371
345, 3, bw, attraction, a-b-da, 9, 2, 5, 11, 157, 86, 165, 90, 90, 165, 3, 0.938843
345, 3, bw, attraction, a-b-da, 9, 2, 5, 11, 157, 86, 165, 90, 90, 165, 1, 0.747939
345, 3, bw, filler, NA, 999, 999, 5, 12, 130, 128, 79, 190, 66, 111, 1, 0.619544
345, 3, bw, filler, NA, 999, 999, 5, 12, 130, 128, 79, 190, 66, 111, 3, 0.370197
345, 3, bw, attraction, a-b-db, 2, 1, 5, 13, 59, 134, 60, 135, 135, 60, 1, 0.889277
345, 3, bw, attraction, a-b-db, 2, 1, 5, 13, 59, 134, 60, 135, 135, 60, 3, 0.668236
345, 3, bw, attraction, a-b-da, 2, 2, 5, 14, 165, 90, 163, 89, 90, 165, 1, 0.66344
345, 3, bw, attraction, a-b-da, 2, 2, 5, 14, 165, 90, 163, 89, 90, 165, 2, 0.507719
345, 3, bw, catch, NA, 999, 999, 5, 15, 153, 102, 112, 83, 124, 191, 3, 0.588813
345, 3, bw, catch, NA, 999, 999, 5, 15, 153, 102, 112, 83, 124, 191, 2, 0.587979
345, 3, bw, filler, NA, 999, 999, 5, 16, 86, 172, 132, 116, 117, 191, 1, 0.578411
345, 3, bw, filler, NA, 999, 999, 5, 16, 86, 172, 132, 116, 117, 191, 2, 2.80228
345, 3, bw, attraction, a-b-db, 9, 3, 5, 17, 114, 186, 120, 195, 195, 120, 1, 0.695378
345, 3, bw, attraction, a-b-db, 9, 3, 5, 17, 114, 186, 120, 195, 195, 120, 2, 0.474432
345, 3, bw, attraction, a-b-db, 14, 1, 5, 18, 60, 135, 56, 125, 135, 60, 1, 1.04484
345, 3, bw, attraction, a-b-db, 14, 1, 5, 18, 60, 135, 56, 125, 135, 60, 3, 0.64184
345, 3, bw, attraction, a-b-da, 5, 3, 5, 19, 190, 117, 195, 120, 120, 195, 3, 0.693545
345, 3, bw, attraction, a-b-da, 5, 3, 5, 19, 190, 117, 195, 120, 120, 195, 1, 0.616673
345, 3, bw, attraction, a-b-da, 9, 1, 5, 20, 60, 135, 129, 57, 135, 60, 1, 0.621703
345, 3, bw, attraction, a-b-da, 9, 1, 5, 20, 60, 135, 129, 57, 135, 60, 2, 0.54748
345, 3, bw, attraction, a-b-da, 9, 3, 5, 21, 186, 114, 195, 120, 120, 195, 2, 0.72322
345, 3, bw, attraction, a-b-da, 9, 3, 5, 21, 186, 114, 195, 120, 120, 195, 1, 1.34895
345, 3, bw, filler, NA, 999, 999, 5, 22, 159, 177, 71, 89, 167, 64, 1, 0.612488
345, 3, bw, filler, NA, 999, 999, 5, 22, 159, 177, 71, 89, 167, 64, 2, 0.602954
345, 3, bw, catch, NA, 999, 999, 5, 23, 164, 151, 88, 107, 145, 110, 1, 0.576791
345, 3, bw, catch, NA, 999, 999, 5, 23, 164, 151, 88, 107, 145, 110, 2, 0.49649
345, 3, bw, attraction, a-b-da, 14, 1, 5, 24, 60, 135, 135, 60, 125, 56, 1, 1.13035
345, 3, bw, attraction, a-b-da, 14, 1, 5, 24, 60, 135, 135, 60, 125, 56, 3, 0.387885
345, 3, bw, attraction, a-b-db, 2, 3, 5, 25, 120, 195, 119, 193, 195, 120, 1, 1.14642
345, 3, bw, attraction, a-b-db, 2, 3, 5, 25, 120, 195, 119, 193, 195, 120, 3, 0.539344
345, 3, bw, attraction, a-b-da, 5, 1, 5, 26, 135, 60, 60, 135, 132, 58, 2, 1.7078
345, 3, bw, attraction, a-b-da, 5, 1, 5, 26, 135, 60, 60, 135, 132, 58, 1, 0.525866
345, 3, bw, attraction, a-b-da, 2, 1, 5, 27, 134, 59, 60, 135, 135, 60, 1, 1.71826
345, 3, bw, attraction, a-b-da, 2, 1, 5, 27, 134, 59, 60, 135, 135, 60, 3, 0.896474
345, 3, bw, attraction, a-b-db, 2, 2, 5, 28, 90, 165, 89, 163, 165, 90, 1, 1.33807
345, 3, bw, attraction, a-b-db, 2, 2, 5, 28, 90, 165, 89, 163, 165, 90, 2, 0.523034
345, 3, bw, filler, NA, 999, 999, 5, 29, 189, 150, 153, 194, 194, 169, 2, 3.15611
345, 3, bw, filler, NA, 999, 999, 5, 29, 189, 150, 153, 194, 194, 169, 1, 0.667825
345, 3, bw, filler, NA, 999, 999, 5, 30, 163, 101, 175, 135, 157, 124, 2, 0.750843
345, 3, bw, filler, NA, 999, 999, 5, 30, 163, 101, 175, 135, 157, 124, 1, 0.583862
345, 3, bw, attraction, a-b-db, 5, 1, 5, 31, 135, 60, 58, 132, 60, 135, 3, 0.710315
345, 3, bw, attraction, a-b-db, 5, 1, 5, 31, 135, 60, 58, 132, 60, 135, 1, 0.456729
345, 3, bw, attraction, a-b-db, 9, 2, 5, 32, 165, 90, 86, 157, 90, 165, 2, 0.443869
345, 3, bw, attraction, a-b-db, 9, 2, 5, 32, 165, 90, 86, 157, 90, 165, 1, 0.889072
345, 3, bw, attraction, a-b-db, 14, 2, 5, 33, 165, 90, 83, 153, 90, 165, 2, 1.55549
345, 3, bw, attraction, a-b-db, 14, 2, 5, 33, 165, 90, 83, 153, 90, 165, 3, 0.29957
345, 3, bw, attraction, a-b-da, 5, 2, 5, 34, 161, 88, 165, 90, 90, 165, 1, 0.901438
345, 3, bw, attraction, a-b-da, 5, 2, 5, 34, 161, 88, 165, 90, 90, 165, 2, 0.552494
345, 3, bw, attraction, a-b-da, 14, 2, 5, 35, 153, 83, 90, 165, 165, 90, 2, 0.736154
345, 3, bw, attraction, a-b-da, 14, 2, 5, 35, 153, 83, 90, 165, 165, 90, 1, 0.409934
345, 3, bw, filler, NA, 999, 999, 5, 36, 58, 95, 169, 90, 129, 163, 3, 1.88705
345, 3, bw, filler, NA, 999, 999, 5, 36, 58, 95, 169, 90, 129, 163, 1, 0.770584
345, 3, bw, filler, NA, 999, 999, 5, 37, 113, 118, 64, 101, 119, 137, 3, 1.42545
345, 3, bw, filler, NA, 999, 999, 5, 37, 113, 118, 64, 101, 119, 137, 2, 0.326985
345, 3, bw, filler, NA, 999, 999, 6, 1, 162, 81, 127, 84, 130, 172, 3, 1.51154
345, 3, bw, filler, NA, 999, 999, 6, 1, 162, 81, 127, 84, 130, 172, 2, 0.553721
345, 3, bw, filler, NA, 999, 999, 6, 2, 161, 60, 74, 145, 145, 84, 3, 0.977515
345, 3, bw, filler, NA, 999, 999, 6, 2, 161, 60, 74, 145, 145, 84, 1, 0.705107
345, 3, bw, attraction, a-b-db, 5, 2, 6, 3, 88, 161, 165, 90, 90, 165, 3, 0.674854
345, 3, bw, attraction, a-b-db, 5, 2, 6, 3, 88, 161, 165, 90, 90, 165, 2, 0.390591
345, 3, bw, attraction, a-b-db, 9, 2, 6, 4, 90, 165, 86, 157, 165, 90, 2, 0.796574
345, 3, bw, attraction, a-b-db, 9, 2, 6, 4, 90, 165, 86, 157, 165, 90, 1, 0.347442
345, 3, bw, catch, NA, 999, 999, 6, 5, 127, 188, 95, 160, 95, 100, 1, 0.851319
345, 3, bw, catch, NA, 999, 999, 6, 5, 127, 188, 95, 160, 95, 100, 3, 0.352498
345, 3, bw, filler, NA, 999, 999, 6, 6, 152, 124, 84, 78, 77, 65, 1, 0.69628
345, 3, bw, filler, NA, 999, 999, 6, 6, 152, 124, 84, 78, 77, 65, 3, 0.451307
345, 3, bw, attraction, a-b-da, 14, 1, 6, 7, 125, 56, 60, 135, 135, 60, 2, 1.32704
345, 3, bw, attraction, a-b-da, 14, 1, 6, 7, 125, 56, 60, 135, 135, 60, 1, 0.728594
345, 3, bw, catch, NA, 999, 999, 6, 8, 122, 133, 191, 124, 134, 61, 2, 1.32102
345, 3, bw, catch, NA, 999, 999, 6, 8, 122, 133, 191, 124, 134, 61, 3, 0.331331
345, 3, bw, attraction, a-b-da, 9, 3, 6, 9, 195, 120, 120, 195, 186, 114, 2, 1.93177
345, 3, bw, attraction, a-b-da, 9, 3, 6, 9, 195, 120, 120, 195, 186, 114, 3, 0.509257
345, 3, bw, attraction, a-b-db, 5, 3, 6, 10, 117, 190, 195, 120, 120, 195, 1, 1.09424
345, 3, bw, attraction, a-b-db, 5, 3, 6, 10, 117, 190, 195, 120, 120, 195, 2, 0.769218
345, 3, bw, attraction, a-b-db, 14, 3, 6, 11, 195, 120, 111, 181, 120, 195, 1, 0.864199
345, 3, bw, attraction, a-b-db, 14, 3, 6, 11, 195, 120, 111, 181, 120, 195, 2, 1.02065
345, 3, bw, attraction, a-b-da, 14, 2, 6, 12, 165, 90, 153, 83, 90, 165, 1, 0.697719
345, 3, bw, attraction, a-b-da, 14, 2, 6, 12, 165, 90, 153, 83, 90, 165, 3, 0.364719
345, 3, bw, attraction, a-b-da, 9, 2, 6, 13, 165, 90, 90, 165, 157, 86, 2, 0.987898
345, 3, bw, attraction, a-b-da, 9, 2, 6, 13, 165, 90, 90, 165, 157, 86, 1, 0.698877
345, 3, bw, attraction, a-b-db, 9, 1, 6, 14, 135, 60, 57, 129, 60, 135, 3, 1.19654
345, 3, bw, attraction, a-b-db, 9, 1, 6, 14, 135, 60, 57, 129, 60, 135, 2, 0.38746
345, 3, bw, attraction, a-b-da, 9, 1, 6, 15, 129, 57, 60, 135, 135, 60, 2, 1.13797
345, 3, bw, attraction, a-b-da, 9, 1, 6, 15, 129, 57, 60, 135, 135, 60, 3, 0.619676
345, 3, bw, filler, NA, 999, 999, 6, 16, 175, 186, 189, 185, 188, 94, 2, 0.760629
345, 3, bw, filler, NA, 999, 999, 6, 16, 175, 186, 189, 185, 188, 94, 3, 0.56104
345, 3, bw, attraction, a-b-db, 2, 2, 6, 17, 90, 165, 165, 90, 89, 163, 1, 0.664121
345, 3, bw, attraction, a-b-db, 2, 2, 6, 17, 90, 165, 165, 90, 89, 163, 2, 0.428585
345, 3, bw, attraction, a-b-db, 2, 1, 6, 18, 135, 60, 60, 135, 59, 134, 3, 1.15314
345, 3, bw, attraction, a-b-db, 2, 1, 6, 18, 135, 60, 60, 135, 59, 134, 1, 0.754032
345, 3, bw, attraction, a-b-da, 2, 3, 6, 19, 195, 120, 120, 195, 193, 119, 2, 0.681717
345, 3, bw, attraction, a-b-da, 2, 3, 6, 19, 195, 120, 120, 195, 193, 119, 1, 0.557497
345, 3, bw, attraction, a-b-da, 2, 2, 6, 20, 165, 90, 90, 165, 163, 89, 2, 2.66056
345, 3, bw, attraction, a-b-da, 2, 2, 6, 20, 165, 90, 90, 165, 163, 89, 3, 0.488436
345, 3, bw, filler, NA, 999, 999, 6, 21, 126, 157, 115, 107, 133, 151, 1, 0.786837
345, 3, bw, filler, NA, 999, 999, 6, 21, 126, 157, 115, 107, 133, 151, 2, 0.370617
345, 3, bw, attraction, a-b-da, 5, 2, 6, 22, 165, 90, 90, 165, 161, 88, 2, 0.841687
345, 3, bw, attraction, a-b-da, 5, 2, 6, 22, 165, 90, 90, 165, 161, 88, 3, 1.38276
345, 3, bw, attraction, a-b-db, 5, 1, 6, 23, 135, 60, 60, 135, 58, 132, 2, 1.15705
345, 3, bw, attraction, a-b-db, 5, 1, 6, 23, 135, 60, 60, 135, 58, 132, 3, 0.349338
345, 3, bw, attraction, a-b-db, 9, 3, 6, 24, 114, 186, 195, 120, 120, 195, 3, 1.90124
345, 3, bw, attraction, a-b-db, 9, 3, 6, 24, 114, 186, 195, 120, 120, 195, 2, 0.615845
345, 3, bw, attraction, a-b-db, 14, 1, 6, 25, 60, 135, 56, 125, 135, 60, 2, 0.853028
345, 3, bw, attraction, a-b-db, 14, 1, 6, 25, 60, 135, 56, 125, 135, 60, 3, 0.609948
345, 3, bw, attraction, a-b-da, 5, 1, 6, 26, 132, 58, 60, 135, 135, 60, 2, 0.566988
345, 3, bw, attraction, a-b-da, 5, 1, 6, 26, 132, 58, 60, 135, 135, 60, 3, 1.11149
345, 3, bw, attraction, a-b-db, 2, 3, 6, 27, 120, 195, 119, 193, 195, 120, 2, 0.472407
345, 3, bw, attraction, a-b-db, 2, 3, 6, 27, 120, 195, 119, 193, 195, 120, 3, 0.516252
345, 3, bw, catch, NA, 999, 999, 6, 28, 164, 91, 128, 67, 125, 190, 3, 0.693435
345, 3, bw, catch, NA, 999, 999, 6, 28, 164, 91, 128, 67, 125, 190, 2, 0.776479
345, 3, bw, attraction, a-b-da, 14, 3, 6, 29, 195, 120, 120, 195, 181, 111, 2, 0.52679
345, 3, bw, attraction, a-b-da, 14, 3, 6, 29, 195, 120, 120, 195, 181, 111, 1, 0.824534
345, 3, bw, filler, NA, 999, 999, 6, 30, 166, 183, 171, 58, 192, 97, 1, 0.948889
345, 3, bw, filler, NA, 999, 999, 6, 30, 166, 183, 171, 58, 192, 97, 2, 0.454078
345, 3, bw, attraction, a-b-da, 5, 3, 6, 31, 120, 195, 190, 117, 195, 120, 2, 0.969672
345, 3, bw, attraction, a-b-da, 5, 3, 6, 31, 120, 195, 190, 117, 195, 120, 3, 0.354019
345, 3, bw, attraction, a-b-da, 2, 1, 6, 32, 60, 135, 134, 59, 135, 60, 1, 0.593854
345, 3, bw, attraction, a-b-da, 2, 1, 6, 32, 60, 135, 134, 59, 135, 60, 2, 0.433121
345, 3, bw, attraction, a-b-db, 14, 2, 6, 33, 83, 153, 90, 165, 165, 90, 2, 1.28546
345, 3, bw, attraction, a-b-db, 14, 2, 6, 33, 83, 153, 90, 165, 165, 90, 1, 0.657038
345, 3, bw, filler, NA, 999, 999, 6, 34, 165, 148, 67, 85, 154, 94, 1, 1.54018
345, 3, bw, filler, NA, 999, 999, 6, 34, 165, 148, 67, 85, 154, 94, 2, 0.925041
345, 3, bw, filler, NA, 999, 999, 6, 35, 113, 140, 121, 147, 99, 59, 2, 2.41329
345, 3, bw, filler, NA, 999, 999, 6, 35, 113, 140, 121, 147, 99, 59, 1, 0.595176
345, 3, bw, filler, NA, 999, 999, 6, 36, 132, 180, 134, 75, 162, 171, 3, 1.28892
345, 3, bw, filler, NA, 999, 999, 6, 36, 132, 180, 134, 75, 162, 171, 2, 1.51585
345, 3, bw, filler, NA, 999, 999, 6, 37, 189, 112, 192, 99, 64, 195, 2, 6.29263
345, 3, bw, filler, NA, 999, 999, 6, 37, 189, 112, 192, 99, 64, 195, 3, 0.357977
345, 3, bw, filler, NA, 999, 999, 7, 1, 97, 191, 194, 119, 138, 194, 3, 4.46906
345, 3, bw, filler, NA, 999, 999, 7, 1, 97, 191, 194, 119, 138, 194, 1, 0.65641
345, 3, bw, attraction, a-b-db, 14, 1, 7, 2, 135, 60, 60, 135, 56, 125, 2, 1.78815
345, 3, bw, attraction, a-b-db, 14, 1, 7, 2, 135, 60, 60, 135, 56, 125, 3, 0.675571
345, 3, bw, filler, NA, 999, 999, 7, 3, 173, 137, 144, 112, 139, 80, 1, 1.40602
345, 3, bw, filler, NA, 999, 999, 7, 3, 173, 137, 144, 112, 139, 80, 3, 0.836386
345, 3, bw, attraction, a-b-da, 9, 3, 7, 4, 195, 120, 186, 114, 120, 195, 3, 12.6885
345, 3, bw, attraction, a-b-da, 9, 3, 7, 4, 195, 120, 186, 114, 120, 195, 1, 0.448625
345, 3, bw, attraction, a-b-da, 14, 1, 7, 5, 60, 135, 125, 56, 135, 60, 1, 0.803019
345, 3, bw, attraction, a-b-da, 14, 1, 7, 5, 60, 135, 125, 56, 135, 60, 2, 0.323348
345, 3, bw, filler, NA, 999, 999, 7, 6, 169, 60, 96, 142, 79, 173, 2, 0.939851
345, 3, bw, filler, NA, 999, 999, 7, 6, 169, 60, 96, 142, 79, 173, 1, 0.50087
345, 3, bw, filler, NA, 999, 999, 7, 7, 114, 184, 92, 85, 122, 64, 1, 0.694635
345, 3, bw, filler, NA, 999, 999, 7, 7, 114, 184, 92, 85, 122, 64, 2, 0.513766
345, 3, bw, attraction, a-b-db, 2, 2, 7, 8, 165, 90, 89, 163, 90, 165, 3, 0.922865
345, 3, bw, attraction, a-b-db, 2, 2, 7, 8, 165, 90, 89, 163, 90, 165, 1, 0.836519
345, 3, bw, attraction, a-b-da, 14, 2, 7, 9, 165, 90, 153, 83, 90, 165, 1, 0.784877
345, 3, bw, attraction, a-b-da, 14, 2, 7, 9, 165, 90, 153, 83, 90, 165, 2, 0.432713
345, 3, bw, attraction, a-b-da, 9, 2, 7, 10, 165, 90, 90, 165, 157, 86, 1, 0.565082
345, 3, bw, attraction, a-b-da, 9, 2, 7, 10, 165, 90, 90, 165, 157, 86, 2, 0.669528
345, 3, bw, attraction, a-b-db, 9, 3, 7, 11, 195, 120, 120, 195, 114, 186, 1, 0.528541
345, 3, bw, attraction, a-b-db, 9, 3, 7, 11, 195, 120, 120, 195, 114, 186, 3, 0.602491
345, 3, bw, attraction, a-b-db, 5, 1, 7, 12, 58, 132, 135, 60, 60, 135, 1, 0.608215
345, 3, bw, attraction, a-b-db, 5, 1, 7, 12, 58, 132, 135, 60, 60, 135, 2, 0.398687
345, 3, bw, filler, NA, 999, 999, 7, 13, 170, 168, 104, 120, 62, 195, 1, 0.964429
345, 3, bw, filler, NA, 999, 999, 7, 13, 170, 168, 104, 120, 62, 195, 2, 0.852907
345, 3, bw, attraction, a-b-db, 2, 1, 7, 14, 135, 60, 59, 134, 60, 135, 3, 1.98445
345, 3, bw, attraction, a-b-db, 2, 1, 7, 14, 135, 60, 59, 134, 60, 135, 1, 0.471943
345, 3, bw, filler, NA, 999, 999, 7, 15, 97, 96, 120, 58, 126, 124, 3, 0.914881
345, 3, bw, filler, NA, 999, 999, 7, 15, 97, 96, 120, 58, 126, 124, 1, 0.637359
345, 3, bw, attraction, a-b-db, 14, 3, 7, 16, 111, 181, 195, 120, 120, 195, 2, 1.04986
345, 3, bw, attraction, a-b-db, 14, 3, 7, 16, 111, 181, 195, 120, 120, 195, 1, 0.310755
345, 3, bw, attraction, a-b-db, 14, 2, 7, 17, 83, 153, 165, 90, 90, 165, 3, 0.67192
345, 3, bw, attraction, a-b-db, 14, 2, 7, 17, 83, 153, 165, 90, 90, 165, 2, 0.691618
345, 3, bw, filler, NA, 999, 999, 7, 18, 149, 179, 106, 76, 116, 88, 1, 0.901535
345, 3, bw, filler, NA, 999, 999, 7, 18, 149, 179, 106, 76, 116, 88, 2, 0.608598
345, 3, bw, attraction, a-b-da, 5, 2, 7, 19, 165, 90, 90, 165, 161, 88, 2, 1.3414
345, 3, bw, attraction, a-b-da, 5, 2, 7, 19, 165, 90, 90, 165, 161, 88, 1, 0.406428
345, 3, bw, attraction, a-b-da, 9, 1, 7, 20, 60, 135, 135, 60, 129, 57, 1, 0.724109
345, 3, bw, attraction, a-b-da, 9, 1, 7, 20, 60, 135, 135, 60, 129, 57, 3, 1.90986
345, 3, bw, attraction, a-b-db, 2, 3, 7, 21, 120, 195, 195, 120, 119, 193, 1, 1.09457
345, 3, bw, attraction, a-b-db, 2, 3, 7, 21, 120, 195, 195, 120, 119, 193, 3, 0.449547
345, 3, bw, catch, NA, 999, 999, 7, 22, 181, 134, 135, 60, 112, 143, 1, 0.645307
345, 3, bw, catch, NA, 999, 999, 7, 22, 181, 134, 135, 60, 112, 143, 2, 1.44241
345, 3, bw, attraction, a-b-da, 5, 3, 7, 23, 195, 120, 120, 195, 190, 117, 2, 1.43791
345, 3, bw, attraction, a-b-da, 5, 3, 7, 23, 195, 120, 120, 195, 190, 117, 1, 0.387503
345, 3, bw, attraction, a-b-db, 9, 1, 7, 24, 60, 135, 57, 129, 135, 60, 3, 0.721893
345, 3, bw, attraction, a-b-db, 9, 1, 7, 24, 60, 135, 57, 129, 135, 60, 2, 0.819892
345, 3, bw, filler, NA, 999, 999, 7, 25, 79, 77, 176, 88, 78, 72, 2, 1.22469
345, 3, bw, filler, NA, 999, 999, 7, 25, 79, 77, 176, 88, 78, 72, 1, 2.87037
345, 3, bw, attraction, a-b-db, 9, 2, 7, 26, 86, 157, 165, 90, 90, 165, 1, 0.672628
345, 3, bw, attraction, a-b-db, 9, 2, 7, 26, 86, 157, 165, 90, 90, 165, 2, 1.2924
345, 3, bw, attraction, a-b-da, 2, 2, 7, 27, 165, 90, 163, 89, 90, 165, 2, 1.126
345, 3, bw, attraction, a-b-da, 2, 2, 7, 27, 165, 90, 163, 89, 90, 165, 3, 0.727772
345, 3, bw, attraction, a-b-da, 2, 1, 7, 28, 60, 135, 134, 59, 135, 60, 1, 2.24795
345, 3, bw, attraction, a-b-da, 2, 1, 7, 28, 60, 135, 134, 59, 135, 60, 3, 0.788573
345, 3, bw, attraction, a-b-da, 5, 1, 7, 29, 60, 135, 132, 58, 135, 60, 2, 1.54704
345, 3, bw, attraction, a-b-da, 5, 1, 7, 29, 60, 135, 132, 58, 135, 60, 3, 0.467877
345, 3, bw, filler, NA, 999, 999, 7, 30, 167, 136, 118, 147, 95, 111, 1, 0.598955
345, 3, bw, filler, NA, 999, 999, 7, 30, 167, 136, 118, 147, 95, 111, 2, 0.558103
345, 3, bw, catch, NA, 999, 999, 7, 31, 185, 130, 152, 103, 101, 94, 1, 0.509174
345, 3, bw, catch, NA, 999, 999, 7, 31, 185, 130, 152, 103, 101, 94, 3, 0.463709
345, 3, bw, attraction, a-b-da, 14, 3, 7, 32, 120, 195, 181, 111, 195, 120, 1, 0.482786
345, 3, bw, attraction, a-b-da, 14, 3, 7, 32, 120, 195, 181, 111, 195, 120, 2, 0.894572
345, 3, bw, attraction, a-b-da, 2, 3, 7, 33, 120, 195, 193, 119, 195, 120, 1, 2.34419
345, 3, bw, attraction, a-b-da, 2, 3, 7, 33, 120, 195, 193, 119, 195, 120, 3, 0.616923
345, 3, bw, attraction, a-b-db, 5, 2, 7, 34, 90, 165, 165, 90, 88, 161, 2, 2.21391
345, 3, bw, attraction, a-b-db, 5, 2, 7, 34, 90, 165, 165, 90, 88, 161, 3, 0.803828
345, 3, bw, attraction, a-b-db, 5, 3, 7, 35, 120, 195, 195, 120, 117, 190, 1, 0.833588
345, 3, bw, attraction, a-b-db, 5, 3, 7, 35, 120, 195, 195, 120, 117, 190, 2, 1.19932
345, 3, bw, catch, NA, 999, 999, 7, 36, 96, 99, 121, 194, 116, 139, 2, 0.524826
345, 3, bw, catch, NA, 999, 999, 7, 36, 96, 99, 121, 194, 116, 139, 1, 0.590668
345, 3, bw, filler, NA, 999, 999, 7, 37, 58, 138, 168, 187, 124, 189, 3, 0.708309
345, 3, bw, filler, NA, 999, 999, 7, 37, 58, 138, 168, 187, 124, 189, 1, 0.406853
345, 3, bw, attraction, a-b-db, 14, 3, 8, 1, 120, 195, 195, 120, 111, 181, 1, 0.947895
345, 3, bw, attraction, a-b-db, 14, 3, 8, 1, 120, 195, 195, 120, 111, 181, 3, 0.797024
345, 3, bw, filler, NA, 999, 999, 8, 2, 118, 132, 179, 113, 63, 72, 2, 0.898551
345, 3, bw, filler, NA, 999, 999, 8, 2, 118, 132, 179, 113, 63, 72, 3, 0.621636
345, 3, bw, attraction, a-b-db, 14, 1, 8, 3, 56, 125, 60, 135, 135, 60, 2, 1.64274
345, 3, bw, attraction, a-b-db, 14, 1, 8, 3, 56, 125, 60, 135, 135, 60, 3, 0.631647
345, 3, bw, attraction, a-b-da, 2, 1, 8, 4, 135, 60, 60, 135, 134, 59, 2, 1.14801
345, 3, bw, attraction, a-b-da, 2, 1, 8, 4, 135, 60, 60, 135, 134, 59, 1, 0.644871
345, 3, bw, attraction, a-b-db, 2, 2, 8, 5, 89, 163, 165, 90, 90, 165, 3, 1.02458
345, 3, bw, attraction, a-b-db, 2, 2, 8, 5, 89, 163, 165, 90, 90, 165, 2, 0.510281
345, 3, bw, attraction, a-b-da, 14, 2, 8, 6, 165, 90, 90, 165, 153, 83, 2, 0.823401
345, 3, bw, attraction, a-b-da, 14, 2, 8, 6, 165, 90, 90, 165, 153, 83, 3, 0.557088
345, 3, bw, catch, NA, 999, 999, 8, 7, 118, 77, 98, 157, 129, 186, 3, 0.788227
345, 3, bw, catch, NA, 999, 999, 8, 7, 118, 77, 98, 157, 129, 186, 1, 0.515228
345, 3, bw, filler, NA, 999, 999, 8, 8, 125, 83, 134, 173, 107, 76, 2, 0.828325
345, 3, bw, filler, NA, 999, 999, 8, 8, 125, 83, 134, 173, 107, 76, 3, 0.946193
345, 3, bw, attraction, a-b-db, 5, 1, 8, 9, 58, 132, 60, 135, 135, 60, 1, 1.22569
345, 3, bw, attraction, a-b-db, 5, 1, 8, 9, 58, 132, 60, 135, 135, 60, 2, 0.391251
345, 3, bw, attraction, a-b-db, 5, 3, 8, 10, 120, 195, 195, 120, 117, 190, 1, 1.07714
345, 3, bw, attraction, a-b-db, 5, 3, 8, 10, 120, 195, 195, 120, 117, 190, 2, 0.752771
345, 3, bw, attraction, a-b-db, 14, 2, 8, 11, 83, 153, 90, 165, 165, 90, 3, 0.776428
345, 3, bw, attraction, a-b-db, 14, 2, 8, 11, 83, 153, 90, 165, 165, 90, 1, 0.84821
345, 3, bw, attraction, a-b-db, 2, 3, 8, 12, 119, 193, 195, 120, 120, 195, 2, 0.667867
345, 3, bw, attraction, a-b-db, 2, 3, 8, 12, 119, 193, 195, 120, 120, 195, 3, 1.13639
345, 3, bw, filler, NA, 999, 999, 8, 13, 118, 91, 128, 135, 84, 67, 2, 0.704621
345, 3, bw, filler, NA, 999, 999, 8, 13, 118, 91, 128, 135, 84, 67, 3, 0.627009
345, 3, bw, attraction, a-b-da, 14, 1, 8, 14, 125, 56, 60, 135, 135, 60, 3, 1.46357
345, 3, bw, attraction, a-b-da, 14, 1, 8, 14, 125, 56, 60, 135, 135, 60, 2, 0.563778
345, 3, bw, attraction, a-b-da, 2, 2, 8, 15, 90, 165, 165, 90, 163, 89, 1, 1.57873
345, 3, bw, attraction, a-b-da, 2, 2, 8, 15, 90, 165, 165, 90, 163, 89, 3, 0.762226
345, 3, bw, attraction, a-b-da, 5, 3, 8, 16, 120, 195, 190, 117, 195, 120, 1, 0.72115
345, 3, bw, attraction, a-b-da, 5, 3, 8, 16, 120, 195, 190, 117, 195, 120, 3, 0.475572
345, 3, bw, attraction, a-b-da, 9, 3, 8, 17, 120, 195, 186, 114, 195, 120, 1, 0.974052
345, 3, bw, attraction, a-b-da, 9, 3, 8, 17, 120, 195, 186, 114, 195, 120, 2, 1.71778
345, 3, bw, attraction, a-b-db, 2, 1, 8, 18, 135, 60, 59, 134, 60, 135, 1, 0.982446
345, 3, bw, attraction, a-b-db, 2, 1, 8, 18, 135, 60, 59, 134, 60, 135, 2, 0.614123
345, 3, bw, filler, NA, 999, 999, 8, 19, 175, 56, 85, 150, 93, 145, 3, 0.843318
345, 3, bw, filler, NA, 999, 999, 8, 19, 175, 56, 85, 150, 93, 145, 1, 0.512258
345, 3, bw, filler, NA, 999, 999, 8, 20, 148, 130, 166, 127, 96, 150, 2, 0.425393
345, 3, bw, filler, NA, 999, 999, 8, 20, 148, 130, 166, 127, 96, 150, 3, 0.399343
345, 3, bw, attraction, a-b-da, 14, 3, 8, 21, 181, 111, 120, 195, 195, 120, 2, 1.10101
345, 3, bw, attraction, a-b-da, 14, 3, 8, 21, 181, 111, 120, 195, 195, 120, 1, 0.839976
345, 3, bw, filler, NA, 999, 999, 8, 22, 183, 99, 63, 138, 168, 193, 3, 1.20371
345, 3, bw, filler, NA, 999, 999, 8, 22, 183, 99, 63, 138, 168, 193, 2, 0.510979
345, 3, bw, filler, NA, 999, 999, 8, 23, 186, 118, 58, 186, 153, 145, 3, 1.31516
345, 3, bw, filler, NA, 999, 999, 8, 23, 186, 118, 58, 186, 153, 145, 2, 0.557376
345, 3, bw, attraction, a-b-db, 9, 2, 8, 24, 90, 165, 165, 90, 86, 157, 1, 0.940364
345, 3, bw, attraction, a-b-db, 9, 2, 8, 24, 90, 165, 165, 90, 86, 157, 3, 0.813404
345, 3, bw, filler, NA, 999, 999, 8, 25, 184, 83, 174, 129, 153, 173, 3, 0.706406
345, 3, bw, filler, NA, 999, 999, 8, 25, 184, 83, 174, 129, 153, 173, 1, 1.22877
345, 3, bw, attraction, a-b-db, 9, 3, 8, 26, 114, 186, 120, 195, 195, 120, 1, 0.601167
345, 3, bw, attraction, a-b-db, 9, 3, 8, 26, 114, 186, 120, 195, 195, 120, 3, 0.528235
345, 3, bw, filler, NA, 999, 999, 8, 27, 80, 124, 58, 78, 188, 194, 3, 0.480649
345, 3, bw, filler, NA, 999, 999, 8, 27, 80, 124, 58, 78, 188, 194, 2, 0.604502
345, 3, bw, attraction, a-b-da, 9, 2, 8, 28, 90, 165, 157, 86, 165, 90, 2, 0.586247
345, 3, bw, attraction, a-b-da, 9, 2, 8, 28, 90, 165, 157, 86, 165, 90, 3, 1.27216
345, 3, bw, attraction, a-b-db, 9, 1, 8, 29, 60, 135, 135, 60, 57, 129, 3, 0.884828
345, 3, bw, attraction, a-b-db, 9, 1, 8, 29, 60, 135, 135, 60, 57, 129, 2, 0.62454
345, 3, bw, attraction, a-b-db, 5, 2, 8, 30, 165, 90, 88, 161, 90, 165, 1, 0.765006
345, 3, bw, attraction, a-b-db, 5, 2, 8, 30, 165, 90, 88, 161, 90, 165, 3, 0.557477
345, 3, bw, catch, NA, 999, 999, 8, 31, 163, 152, 153, 102, 63, 132, 1, 0.668405
345, 3, bw, catch, NA, 999, 999, 8, 31, 163, 152, 153, 102, 63, 132, 3, 0.945067
345, 3, bw, filler, NA, 999, 999, 8, 32, 131, 175, 157, 153, 84, 177, 2, 0.552643
345, 3, bw, filler, NA, 999, 999, 8, 32, 131, 175, 157, 153, 84, 177, 3, 0.553818
345, 3, bw, attraction, a-b-da, 9, 1, 8, 33, 60, 135, 129, 57, 135, 60, 1, 0.657407
345, 3, bw, attraction, a-b-da, 9, 1, 8, 33, 60, 135, 129, 57, 135, 60, 3, 0.429849
345, 3, bw, attraction, a-b-da, 2, 3, 8, 34, 195, 120, 193, 119, 120, 195, 2, 1.18642
345, 3, bw, attraction, a-b-da, 2, 3, 8, 34, 195, 120, 193, 119, 120, 195, 1, 0.394026
345, 3, bw, attraction, a-b-da, 5, 2, 8, 35, 161, 88, 90, 165, 165, 90, 2, 0.527946
345, 3, bw, attraction, a-b-da, 5, 2, 8, 35, 161, 88, 90, 165, 165, 90, 3, 0.457619
345, 3, bw, attraction, a-b-da, 5, 1, 8, 36, 60, 135, 135, 60, 132, 58, 1, 0.644683
345, 3, bw, attraction, a-b-da, 5, 1, 8, 36, 60, 135, 135, 60, 132, 58, 3, 1.16982
345, 3, bw, catch, NA, 999, 999, 8, 37, 156, 159, 133, 62, 137, 118, 1, 0.512716
345, 3, bw, catch, NA, 999, 999, 8, 37, 156, 159, 133, 62, 137, 118, 2, 0.515196
