sub_n, computer_n, bw_cond, effect, set, distance, diag, block_n, trial_n, h1, w1, h2, w2, h3, w3, choice, rt 
318, 3, wb, practice, NA, 999, 999, 0, 1, 124, 145, 94, 172, 164, 67, 3, 12.3872
318, 3, wb, practice, NA, 999, 999, 0, 1, 124, 145, 94, 172, 164, 67, 2, 4.77734
318, 3, wb, practice, NA, 999, 999, 0, 2, 154, 177, 157, 165, 130, 185, 2, 7.3383
318, 3, wb, practice, NA, 999, 999, 0, 2, 154, 177, 157, 165, 130, 185, 3, 3.93922
318, 3, wb, practice, NA, 999, 999, 0, 3, 86, 152, 106, 169, 130, 103, 1, 7.68552
318, 3, wb, practice, NA, 999, 999, 0, 3, 86, 152, 106, 169, 130, 103, 2, 1.33041
318, 3, wb, attraction, a-b-da, 2, 3, 1, 1, 120, 195, 193, 119, 195, 120, 2, 5.80396
318, 3, wb, attraction, a-b-da, 2, 3, 1, 1, 120, 195, 193, 119, 195, 120, 1, 0.7374
318, 3, wb, attraction, a-b-db, 2, 1, 1, 2, 60, 135, 59, 134, 135, 60, 3, 3.34605
318, 3, wb, attraction, a-b-db, 2, 1, 1, 2, 60, 135, 59, 134, 135, 60, 1, 0.770127
318, 3, wb, attraction, a-b-db, 9, 3, 1, 3, 120, 195, 114, 186, 195, 120, 3, 3.32113
318, 3, wb, attraction, a-b-db, 9, 3, 1, 3, 120, 195, 114, 186, 195, 120, 1, 0.586725
318, 3, wb, attraction, a-b-da, 14, 3, 1, 4, 195, 120, 120, 195, 181, 111, 3, 11.2172
318, 3, wb, attraction, a-b-da, 14, 3, 1, 4, 195, 120, 120, 195, 181, 111, 2, 1.58832
318, 3, wb, attraction, a-b-db, 14, 2, 1, 5, 83, 153, 165, 90, 90, 165, 1, 4.77041
318, 3, wb, attraction, a-b-db, 14, 2, 1, 5, 83, 153, 165, 90, 90, 165, 3, 0.5536
318, 3, wb, attraction, a-b-da, 5, 1, 1, 6, 132, 58, 60, 135, 135, 60, 1, 4.76132
318, 3, wb, attraction, a-b-da, 5, 1, 1, 6, 132, 58, 60, 135, 135, 60, 3, 1.20059
318, 3, wb, filler, NA, 999, 999, 1, 7, 187, 145, 120, 172, 194, 180, 2, 2.53411
318, 3, wb, filler, NA, 999, 999, 1, 7, 187, 145, 120, 172, 194, 180, 3, 0.879228
318, 3, wb, filler, NA, 999, 999, 1, 8, 159, 154, 165, 111, 187, 170, 2, 1.41756
318, 3, wb, filler, NA, 999, 999, 1, 8, 159, 154, 165, 111, 187, 170, 3, 0.623745
318, 3, wb, attraction, a-b-da, 9, 1, 1, 9, 135, 60, 60, 135, 129, 57, 1, 18.1403
318, 3, wb, attraction, a-b-da, 9, 1, 1, 9, 135, 60, 60, 135, 129, 57, 2, 0.52854
318, 3, wb, filler, NA, 999, 999, 1, 10, 145, 91, 119, 132, 114, 91, 3, 6.99297
318, 3, wb, filler, NA, 999, 999, 1, 10, 145, 91, 119, 132, 114, 91, 2, 1.72609
318, 3, wb, attraction, a-b-da, 9, 3, 1, 11, 186, 114, 120, 195, 195, 120, 1, 3.01415
318, 3, wb, attraction, a-b-da, 9, 3, 1, 11, 186, 114, 120, 195, 195, 120, 2, 0.419815
318, 3, wb, attraction, a-b-db, 9, 2, 1, 12, 86, 157, 90, 165, 165, 90, 3, 4.3129
318, 3, wb, attraction, a-b-db, 9, 2, 1, 12, 86, 157, 90, 165, 165, 90, 2, 1.19432
318, 3, wb, filler, NA, 999, 999, 1, 13, 102, 142, 149, 69, 64, 76, 3, 2.19184
318, 3, wb, filler, NA, 999, 999, 1, 13, 102, 142, 149, 69, 64, 76, 1, 4.92645
318, 3, wb, catch, NA, 999, 999, 1, 14, 100, 155, 60, 135, 129, 186, 2, 1.83748
318, 3, wb, catch, NA, 999, 999, 1, 14, 100, 155, 60, 135, 129, 186, 3, 0.51492
318, 3, wb, attraction, a-b-db, 14, 1, 1, 15, 60, 135, 56, 125, 135, 60, 2, 4.53995
318, 3, wb, attraction, a-b-db, 14, 1, 1, 15, 60, 135, 56, 125, 135, 60, 1, 2.14793
318, 3, wb, filler, NA, 999, 999, 1, 16, 145, 78, 184, 83, 122, 136, 1, 3.37914
318, 3, wb, filler, NA, 999, 999, 1, 16, 145, 78, 184, 83, 122, 136, 3, 0.866236
318, 3, wb, attraction, a-b-db, 5, 1, 1, 17, 58, 132, 60, 135, 135, 60, 1, 3.45317
318, 3, wb, attraction, a-b-db, 5, 1, 1, 17, 58, 132, 60, 135, 135, 60, 3, 0.929313
318, 3, wb, attraction, a-b-da, 5, 3, 1, 18, 190, 117, 195, 120, 120, 195, 1, 4.56183
318, 3, wb, attraction, a-b-da, 5, 3, 1, 18, 190, 117, 195, 120, 120, 195, 3, 0.520886
318, 3, wb, filler, NA, 999, 999, 1, 19, 141, 93, 163, 104, 160, 129, 1, 2.05795
318, 3, wb, filler, NA, 999, 999, 1, 19, 141, 93, 163, 104, 160, 129, 3, 0.702173
318, 3, wb, attraction, a-b-da, 14, 2, 1, 20, 165, 90, 153, 83, 90, 165, 2, 3.69574
318, 3, wb, attraction, a-b-da, 14, 2, 1, 20, 165, 90, 153, 83, 90, 165, 3, 0.953865
318, 3, wb, filler, NA, 999, 999, 1, 21, 64, 136, 121, 81, 147, 134, 1, 2.40159
318, 3, wb, filler, NA, 999, 999, 1, 21, 64, 136, 121, 81, 147, 134, 3, 2.25602
318, 3, wb, filler, NA, 999, 999, 1, 22, 146, 62, 85, 192, 92, 188, 1, 2.25123
318, 3, wb, filler, NA, 999, 999, 1, 22, 146, 62, 85, 192, 92, 188, 3, 0.359984
318, 3, wb, attraction, a-b-da, 5, 2, 1, 23, 90, 165, 165, 90, 161, 88, 3, 1.57518
318, 3, wb, attraction, a-b-da, 5, 2, 1, 23, 90, 165, 165, 90, 161, 88, 1, 0.342619
318, 3, wb, filler, NA, 999, 999, 1, 24, 103, 85, 56, 163, 76, 164, 1, 5.55837
318, 3, wb, filler, NA, 999, 999, 1, 24, 103, 85, 56, 163, 76, 164, 3, 0.325233
318, 3, wb, attraction, a-b-db, 5, 2, 1, 25, 165, 90, 90, 165, 88, 161, 1, 3.50969
318, 3, wb, attraction, a-b-db, 5, 2, 1, 25, 165, 90, 90, 165, 88, 161, 3, 0.447339
318, 3, wb, catch, NA, 999, 999, 1, 26, 141, 114, 90, 105, 194, 121, 2, 0.867115
318, 3, wb, catch, NA, 999, 999, 1, 26, 141, 114, 90, 105, 194, 121, 3, 0.319491
318, 3, wb, attraction, a-b-da, 2, 1, 1, 27, 60, 135, 134, 59, 135, 60, 3, 1.24067
318, 3, wb, attraction, a-b-da, 2, 1, 1, 27, 60, 135, 134, 59, 135, 60, 1, 0.957663
318, 3, wb, attraction, a-b-db, 5, 3, 1, 28, 195, 120, 120, 195, 117, 190, 1, 2.26854
318, 3, wb, attraction, a-b-db, 5, 3, 1, 28, 195, 120, 120, 195, 117, 190, 2, 0.304463
318, 3, wb, catch, NA, 999, 999, 1, 29, 194, 121, 132, 63, 99, 156, 3, 1.85031
318, 3, wb, catch, NA, 999, 999, 1, 29, 194, 121, 132, 63, 99, 156, 1, 0.655036
318, 3, wb, attraction, a-b-da, 9, 2, 1, 30, 157, 86, 165, 90, 90, 165, 1, 4.35479
318, 3, wb, attraction, a-b-da, 9, 2, 1, 30, 157, 86, 165, 90, 90, 165, 2, 0.490094
318, 3, wb, attraction, a-b-db, 2, 2, 1, 31, 165, 90, 90, 165, 89, 163, 1, 2.13182
318, 3, wb, attraction, a-b-db, 2, 2, 1, 31, 165, 90, 90, 165, 89, 163, 2, 0.413199
318, 3, wb, attraction, a-b-da, 14, 1, 1, 32, 125, 56, 60, 135, 135, 60, 1, 1.6983
318, 3, wb, attraction, a-b-da, 14, 1, 1, 32, 125, 56, 60, 135, 135, 60, 2, 1.26908
318, 3, wb, attraction, a-b-da, 2, 2, 1, 33, 90, 165, 165, 90, 163, 89, 3, 1.52822
318, 3, wb, attraction, a-b-da, 2, 2, 1, 33, 90, 165, 165, 90, 163, 89, 1, 1.12144
318, 3, wb, attraction, a-b-db, 2, 3, 1, 34, 120, 195, 195, 120, 119, 193, 1, 6.1225
318, 3, wb, attraction, a-b-db, 2, 3, 1, 34, 120, 195, 195, 120, 119, 193, 2, 0.530447
318, 3, wb, attraction, a-b-db, 9, 1, 1, 35, 57, 129, 135, 60, 60, 135, 1, 2.96291
318, 3, wb, attraction, a-b-db, 9, 1, 1, 35, 57, 129, 135, 60, 60, 135, 2, 0.330583
318, 3, wb, attraction, a-b-db, 14, 3, 1, 36, 120, 195, 195, 120, 111, 181, 3, 3.45917
318, 3, wb, attraction, a-b-db, 14, 3, 1, 36, 120, 195, 195, 120, 111, 181, 2, 0.718766
318, 3, wb, filler, NA, 999, 999, 1, 37, 125, 190, 84, 159, 135, 155, 2, 2.53579
318, 3, wb, filler, NA, 999, 999, 1, 37, 125, 190, 84, 159, 135, 155, 1, 0.47284
318, 3, wb, attraction, a-b-da, 14, 2, 2, 1, 153, 83, 165, 90, 90, 165, 1, 2.1561
318, 3, wb, attraction, a-b-da, 14, 2, 2, 1, 153, 83, 165, 90, 90, 165, 3, 0.652109
318, 3, wb, attraction, a-b-da, 5, 3, 2, 2, 190, 117, 195, 120, 120, 195, 1, 2.60771
318, 3, wb, attraction, a-b-da, 5, 3, 2, 2, 190, 117, 195, 120, 120, 195, 3, 0.853591
318, 3, wb, attraction, a-b-da, 14, 1, 2, 3, 125, 56, 60, 135, 135, 60, 1, 2.32931
318, 3, wb, attraction, a-b-da, 14, 1, 2, 3, 125, 56, 60, 135, 135, 60, 2, 1.40253
318, 3, wb, filler, NA, 999, 999, 2, 4, 99, 57, 166, 139, 86, 128, 1, 1.19209
318, 3, wb, filler, NA, 999, 999, 2, 4, 99, 57, 166, 139, 86, 128, 2, 0.503015
318, 3, wb, attraction, a-b-da, 2, 1, 2, 5, 134, 59, 135, 60, 60, 135, 1, 3.16874
318, 3, wb, attraction, a-b-da, 2, 1, 2, 5, 134, 59, 135, 60, 60, 135, 3, 0.608465
318, 3, wb, attraction, a-b-db, 5, 2, 2, 6, 90, 165, 88, 161, 165, 90, 3, 1.95742
318, 3, wb, attraction, a-b-db, 5, 2, 2, 6, 90, 165, 88, 161, 165, 90, 1, 1.0057
318, 3, wb, filler, NA, 999, 999, 2, 7, 98, 85, 96, 69, 163, 158, 2, 2.73118
318, 3, wb, filler, NA, 999, 999, 2, 7, 98, 85, 96, 69, 163, 158, 3, 0.876178
318, 3, wb, filler, NA, 999, 999, 2, 8, 143, 66, 181, 126, 171, 169, 1, 1.38263
318, 3, wb, filler, NA, 999, 999, 2, 8, 143, 66, 181, 126, 171, 169, 3, 0.790132
318, 3, wb, attraction, a-b-da, 5, 2, 2, 9, 90, 165, 165, 90, 161, 88, 3, 6.05173
318, 3, wb, attraction, a-b-da, 5, 2, 2, 9, 90, 165, 165, 90, 161, 88, 2, 0.303311
318, 3, wb, attraction, a-b-db, 5, 1, 2, 10, 58, 132, 135, 60, 60, 135, 1, 1.97713
318, 3, wb, attraction, a-b-db, 5, 1, 2, 10, 58, 132, 135, 60, 60, 135, 3, 0.472468
318, 3, wb, attraction, a-b-da, 5, 1, 2, 11, 135, 60, 132, 58, 60, 135, 3, 1.40347
318, 3, wb, attraction, a-b-da, 5, 1, 2, 11, 135, 60, 132, 58, 60, 135, 1, 1.39444
318, 3, wb, catch, NA, 999, 999, 2, 12, 165, 150, 165, 90, 62, 133, 3, 2.30385
318, 3, wb, catch, NA, 999, 999, 2, 12, 165, 150, 165, 90, 62, 133, 1, 0.394472
318, 3, wb, catch, NA, 999, 999, 2, 13, 78, 117, 99, 156, 159, 156, 1, 0.792334
318, 3, wb, catch, NA, 999, 999, 2, 13, 78, 117, 99, 156, 159, 156, 3, 0.271419
318, 3, wb, filler, NA, 999, 999, 2, 14, 161, 187, 94, 80, 156, 96, 2, 0.65057
318, 3, wb, filler, NA, 999, 999, 2, 14, 161, 187, 94, 80, 156, 96, 1, 0.31968
318, 3, wb, filler, NA, 999, 999, 2, 15, 182, 85, 178, 193, 98, 75, 3, 0.544873
318, 3, wb, filler, NA, 999, 999, 2, 15, 182, 85, 178, 193, 98, 75, 2, 0.354119
318, 3, wb, attraction, a-b-da, 9, 3, 2, 16, 195, 120, 186, 114, 120, 195, 1, 1.75386
318, 3, wb, attraction, a-b-da, 9, 3, 2, 16, 195, 120, 186, 114, 120, 195, 3, 0.298622
318, 3, wb, attraction, a-b-da, 9, 1, 2, 17, 60, 135, 129, 57, 135, 60, 1, 2.72447
318, 3, wb, attraction, a-b-da, 9, 1, 2, 17, 60, 135, 129, 57, 135, 60, 3, 0.429603
318, 3, wb, attraction, a-b-db, 14, 1, 2, 18, 135, 60, 56, 125, 60, 135, 1, 1.49799
318, 3, wb, attraction, a-b-db, 14, 1, 2, 18, 135, 60, 56, 125, 60, 135, 3, 0.365012
318, 3, wb, attraction, a-b-da, 9, 2, 2, 19, 165, 90, 157, 86, 90, 165, 1, 5.70809
318, 3, wb, attraction, a-b-da, 9, 2, 2, 19, 165, 90, 157, 86, 90, 165, 3, 0.564939
318, 3, wb, filler, NA, 999, 999, 2, 20, 90, 174, 193, 180, 127, 183, 1, 1.37994
318, 3, wb, filler, NA, 999, 999, 2, 20, 90, 174, 193, 180, 127, 183, 2, 0.299489
318, 3, wb, filler, NA, 999, 999, 2, 21, 163, 113, 121, 67, 122, 130, 2, 0.701442
318, 3, wb, filler, NA, 999, 999, 2, 21, 163, 113, 121, 67, 122, 130, 1, 1.12049
318, 3, wb, attraction, a-b-db, 9, 1, 2, 22, 60, 135, 135, 60, 57, 129, 3, 1.84941
318, 3, wb, attraction, a-b-db, 9, 1, 2, 22, 60, 135, 135, 60, 57, 129, 2, 1.43806
318, 3, wb, filler, NA, 999, 999, 2, 23, 124, 166, 152, 155, 93, 173, 3, 1.47421
318, 3, wb, filler, NA, 999, 999, 2, 23, 124, 166, 152, 155, 93, 173, 2, 0.42173
318, 3, wb, attraction, a-b-da, 2, 2, 2, 24, 163, 89, 165, 90, 90, 165, 1, 1.25893
318, 3, wb, attraction, a-b-da, 2, 2, 2, 24, 163, 89, 165, 90, 90, 165, 3, 0.527193
318, 3, wb, attraction, a-b-db, 14, 3, 2, 25, 120, 195, 195, 120, 111, 181, 3, 4.80763
318, 3, wb, attraction, a-b-db, 14, 3, 2, 25, 120, 195, 195, 120, 111, 181, 1, 1.05286
318, 3, wb, catch, NA, 999, 999, 2, 26, 144, 111, 96, 99, 156, 159, 2, 0.888383
318, 3, wb, catch, NA, 999, 999, 2, 26, 144, 111, 96, 99, 156, 159, 3, 0.259391
318, 3, wb, attraction, a-b-db, 14, 2, 2, 27, 83, 153, 90, 165, 165, 90, 1, 1.26255
318, 3, wb, attraction, a-b-db, 14, 2, 2, 27, 83, 153, 90, 165, 165, 90, 3, 0.562948
318, 3, wb, attraction, a-b-db, 2, 2, 2, 28, 89, 163, 165, 90, 90, 165, 1, 6.60987
318, 3, wb, attraction, a-b-db, 2, 2, 2, 28, 89, 163, 165, 90, 90, 165, 3, 0.286558
318, 3, wb, attraction, a-b-db, 5, 3, 2, 29, 195, 120, 120, 195, 117, 190, 1, 6.697
318, 3, wb, attraction, a-b-db, 5, 3, 2, 29, 195, 120, 120, 195, 117, 190, 3, 0.306404
318, 3, wb, attraction, a-b-db, 2, 1, 2, 30, 60, 135, 59, 134, 135, 60, 1, 1.76421
318, 3, wb, attraction, a-b-db, 2, 1, 2, 30, 60, 135, 59, 134, 135, 60, 3, 0.49219
318, 3, wb, attraction, a-b-db, 9, 2, 2, 31, 165, 90, 90, 165, 86, 157, 3, 1.52595
318, 3, wb, attraction, a-b-db, 9, 2, 2, 31, 165, 90, 90, 165, 86, 157, 1, 0.40744
318, 3, wb, attraction, a-b-db, 9, 3, 2, 32, 195, 120, 114, 186, 120, 195, 1, 3.21262
318, 3, wb, attraction, a-b-db, 9, 3, 2, 32, 195, 120, 114, 186, 120, 195, 3, 0.658179
318, 3, wb, attraction, a-b-da, 14, 3, 2, 33, 120, 195, 181, 111, 195, 120, 1, 1.2453
318, 3, wb, attraction, a-b-da, 14, 3, 2, 33, 120, 195, 181, 111, 195, 120, 2, 0.682352
318, 3, wb, attraction, a-b-db, 2, 3, 2, 34, 119, 193, 195, 120, 120, 195, 1, 0.756711
318, 3, wb, attraction, a-b-db, 2, 3, 2, 34, 119, 193, 195, 120, 120, 195, 3, 1.02107
318, 3, wb, attraction, a-b-da, 2, 3, 2, 35, 195, 120, 193, 119, 120, 195, 2, 2.28999
318, 3, wb, attraction, a-b-da, 2, 3, 2, 35, 195, 120, 193, 119, 120, 195, 3, 0.31657
318, 3, wb, filler, NA, 999, 999, 2, 36, 180, 190, 115, 111, 107, 158, 2, 0.74987
318, 3, wb, filler, NA, 999, 999, 2, 36, 180, 190, 115, 111, 107, 158, 1, 0.286855
318, 3, wb, filler, NA, 999, 999, 2, 37, 162, 62, 168, 154, 128, 113, 3, 1.07328
318, 3, wb, filler, NA, 999, 999, 2, 37, 162, 62, 168, 154, 128, 113, 2, 1.43703
318, 3, wb, attraction, a-b-db, 9, 2, 3, 1, 90, 165, 165, 90, 86, 157, 1, 1.14512
318, 3, wb, attraction, a-b-db, 9, 2, 3, 1, 90, 165, 165, 90, 86, 157, 3, 0.338034
318, 3, wb, attraction, a-b-da, 5, 3, 3, 2, 190, 117, 120, 195, 195, 120, 1, 5.83461
318, 3, wb, attraction, a-b-da, 5, 3, 3, 2, 190, 117, 120, 195, 195, 120, 2, 0.470868
318, 3, wb, attraction, a-b-db, 2, 1, 3, 3, 60, 135, 59, 134, 135, 60, 2, 3.89785
318, 3, wb, attraction, a-b-db, 2, 1, 3, 3, 60, 135, 59, 134, 135, 60, 1, 1.16399
318, 3, wb, attraction, a-b-db, 14, 3, 3, 4, 195, 120, 111, 181, 120, 195, 2, 1.77887
318, 3, wb, attraction, a-b-db, 14, 3, 3, 4, 195, 120, 111, 181, 120, 195, 1, 0.426256
318, 3, wb, attraction, a-b-da, 14, 3, 3, 5, 120, 195, 195, 120, 181, 111, 3, 2.02278
318, 3, wb, attraction, a-b-da, 14, 3, 3, 5, 120, 195, 195, 120, 181, 111, 1, 1.02813
318, 3, wb, attraction, a-b-db, 5, 3, 3, 6, 195, 120, 117, 190, 120, 195, 2, 1.24038
318, 3, wb, attraction, a-b-db, 5, 3, 3, 6, 195, 120, 117, 190, 120, 195, 1, 0.493309
318, 3, wb, filler, NA, 999, 999, 3, 7, 78, 188, 194, 189, 69, 97, 3, 0.679052
318, 3, wb, filler, NA, 999, 999, 3, 7, 78, 188, 194, 189, 69, 97, 2, 0.242932
318, 3, wb, attraction, a-b-da, 9, 3, 3, 8, 120, 195, 186, 114, 195, 120, 1, 4.88671
318, 3, wb, attraction, a-b-da, 9, 3, 3, 8, 120, 195, 186, 114, 195, 120, 3, 0.369178
318, 3, wb, attraction, a-b-da, 14, 1, 3, 9, 125, 56, 60, 135, 135, 60, 2, 1.68036
318, 3, wb, attraction, a-b-da, 14, 1, 3, 9, 125, 56, 60, 135, 135, 60, 1, 0.859774
318, 3, wb, attraction, a-b-da, 2, 2, 3, 10, 165, 90, 163, 89, 90, 165, 1, 4.39874
318, 3, wb, attraction, a-b-da, 2, 2, 3, 10, 165, 90, 163, 89, 90, 165, 3, 0.476779
318, 3, wb, filler, NA, 999, 999, 3, 11, 98, 133, 116, 133, 154, 87, 1, 3.01527
318, 3, wb, filler, NA, 999, 999, 3, 11, 98, 133, 116, 133, 154, 87, 2, 1.83691
318, 3, wb, filler, NA, 999, 999, 3, 12, 68, 133, 65, 90, 120, 93, 2, 0.768894
318, 3, wb, filler, NA, 999, 999, 3, 12, 68, 133, 65, 90, 120, 93, 3, 0.577337
318, 3, wb, attraction, a-b-db, 14, 2, 3, 13, 165, 90, 90, 165, 83, 153, 1, 3.0637
318, 3, wb, attraction, a-b-db, 14, 2, 3, 13, 165, 90, 90, 165, 83, 153, 3, 0.339347
318, 3, wb, filler, NA, 999, 999, 3, 14, 128, 160, 174, 118, 116, 100, 3, 0.715885
318, 3, wb, filler, NA, 999, 999, 3, 14, 128, 160, 174, 118, 116, 100, 2, 1.15035
318, 3, wb, attraction, a-b-db, 2, 3, 3, 15, 195, 120, 120, 195, 119, 193, 1, 2.41391
318, 3, wb, attraction, a-b-db, 2, 3, 3, 15, 195, 120, 120, 195, 119, 193, 3, 0.40383
318, 3, wb, attraction, a-b-da, 5, 1, 3, 16, 135, 60, 132, 58, 60, 135, 1, 2.9217
318, 3, wb, attraction, a-b-da, 5, 1, 3, 16, 135, 60, 132, 58, 60, 135, 3, 0.475356
318, 3, wb, attraction, a-b-db, 9, 3, 3, 17, 114, 186, 195, 120, 120, 195, 2, 1.60577
318, 3, wb, attraction, a-b-db, 9, 3, 3, 17, 114, 186, 195, 120, 120, 195, 3, 0.259943
318, 3, wb, filler, NA, 999, 999, 3, 18, 147, 122, 106, 102, 135, 185, 2, 0.711208
318, 3, wb, filler, NA, 999, 999, 3, 18, 147, 122, 106, 102, 135, 185, 3, 0.289708
318, 3, wb, filler, NA, 999, 999, 3, 19, 126, 57, 61, 133, 70, 88, 3, 0.716061
318, 3, wb, filler, NA, 999, 999, 3, 19, 126, 57, 61, 133, 70, 88, 2, 1.26258
318, 3, wb, attraction, a-b-db, 9, 1, 3, 20, 60, 135, 135, 60, 57, 129, 1, 1.98556
318, 3, wb, attraction, a-b-db, 9, 1, 3, 20, 60, 135, 135, 60, 57, 129, 2, 1.68881
318, 3, wb, attraction, a-b-da, 5, 2, 3, 21, 165, 90, 161, 88, 90, 165, 1, 4.73077
318, 3, wb, attraction, a-b-da, 5, 2, 3, 21, 165, 90, 161, 88, 90, 165, 3, 0.443473
318, 3, wb, attraction, a-b-da, 9, 2, 3, 22, 165, 90, 90, 165, 157, 86, 3, 1.14306
318, 3, wb, attraction, a-b-da, 9, 2, 3, 22, 165, 90, 90, 165, 157, 86, 2, 1.03203
318, 3, wb, attraction, a-b-da, 2, 3, 3, 23, 193, 119, 195, 120, 120, 195, 1, 1.63646
318, 3, wb, attraction, a-b-da, 2, 3, 3, 23, 193, 119, 195, 120, 120, 195, 3, 0.94587
318, 3, wb, filler, NA, 999, 999, 3, 24, 66, 124, 104, 61, 83, 190, 2, 1.12948
318, 3, wb, filler, NA, 999, 999, 3, 24, 66, 124, 104, 61, 83, 190, 3, 0.57909
318, 3, wb, filler, NA, 999, 999, 3, 25, 88, 166, 119, 58, 193, 102, 2, 1.10549
318, 3, wb, filler, NA, 999, 999, 3, 25, 88, 166, 119, 58, 193, 102, 3, 0.467937
318, 3, wb, attraction, a-b-db, 2, 2, 3, 26, 165, 90, 89, 163, 90, 165, 1, 2.55097
318, 3, wb, attraction, a-b-db, 2, 2, 3, 26, 165, 90, 89, 163, 90, 165, 3, 0.495469
318, 3, wb, attraction, a-b-da, 14, 2, 3, 27, 153, 83, 165, 90, 90, 165, 1, 1.04934
318, 3, wb, attraction, a-b-da, 14, 2, 3, 27, 153, 83, 165, 90, 90, 165, 2, 0.550211
318, 3, wb, catch, NA, 999, 999, 3, 28, 108, 87, 169, 146, 133, 122, 1, 0.709884
318, 3, wb, catch, NA, 999, 999, 3, 28, 108, 87, 169, 146, 133, 122, 2, 0.49638
318, 3, wb, catch, NA, 999, 999, 3, 29, 142, 173, 116, 139, 134, 61, 3, 0.63416
318, 3, wb, catch, NA, 999, 999, 3, 29, 142, 173, 116, 139, 134, 61, 1, 0.368051
318, 3, wb, filler, NA, 999, 999, 3, 30, 95, 138, 62, 126, 69, 63, 3, 0.527177
318, 3, wb, filler, NA, 999, 999, 3, 30, 95, 138, 62, 126, 69, 63, 1, 0.384927
318, 3, wb, attraction, a-b-da, 2, 1, 3, 31, 134, 59, 135, 60, 60, 135, 3, 4.36742
318, 3, wb, attraction, a-b-da, 2, 1, 3, 31, 134, 59, 135, 60, 60, 135, 2, 0.822863
318, 3, wb, catch, NA, 999, 999, 3, 32, 155, 160, 118, 137, 117, 78, 3, 0.523699
318, 3, wb, catch, NA, 999, 999, 3, 32, 155, 160, 118, 137, 117, 78, 1, 0.333565
318, 3, wb, attraction, a-b-db, 5, 1, 3, 33, 58, 132, 135, 60, 60, 135, 1, 1.32599
318, 3, wb, attraction, a-b-db, 5, 1, 3, 33, 58, 132, 135, 60, 60, 135, 3, 0.431549
318, 3, wb, attraction, a-b-da, 9, 1, 3, 34, 60, 135, 129, 57, 135, 60, 2, 1.80399
318, 3, wb, attraction, a-b-da, 9, 1, 3, 34, 60, 135, 129, 57, 135, 60, 3, 0.714779
318, 3, wb, attraction, a-b-db, 5, 2, 3, 35, 165, 90, 88, 161, 90, 165, 2, 4.53179
318, 3, wb, attraction, a-b-db, 5, 2, 3, 35, 165, 90, 88, 161, 90, 165, 1, 1.33233
318, 3, wb, filler, NA, 999, 999, 3, 36, 82, 72, 147, 70, 81, 174, 1, 0.668856
318, 3, wb, filler, NA, 999, 999, 3, 36, 82, 72, 147, 70, 81, 174, 3, 0.256997
318, 3, wb, attraction, a-b-db, 14, 1, 3, 37, 135, 60, 56, 125, 60, 135, 2, 2.42818
318, 3, wb, attraction, a-b-db, 14, 1, 3, 37, 135, 60, 56, 125, 60, 135, 3, 0.393409
318, 3, wb, filler, NA, 999, 999, 4, 1, 185, 170, 101, 139, 109, 147, 3, 0.903222
318, 3, wb, filler, NA, 999, 999, 4, 1, 185, 170, 101, 139, 109, 147, 1, 0.394262
318, 3, wb, attraction, a-b-da, 5, 1, 4, 2, 132, 58, 135, 60, 60, 135, 3, 1.24008
318, 3, wb, attraction, a-b-da, 5, 1, 4, 2, 132, 58, 135, 60, 60, 135, 1, 0.389007
318, 3, wb, attraction, a-b-db, 2, 2, 4, 3, 165, 90, 90, 165, 89, 163, 3, 1.24351
318, 3, wb, attraction, a-b-db, 2, 2, 4, 3, 165, 90, 90, 165, 89, 163, 1, 0.456426
318, 3, wb, filler, NA, 999, 999, 4, 4, 193, 144, 150, 87, 185, 57, 3, 1.00353
318, 3, wb, filler, NA, 999, 999, 4, 4, 193, 144, 150, 87, 185, 57, 1, 0.290488
318, 3, wb, attraction, a-b-db, 14, 3, 4, 5, 120, 195, 111, 181, 195, 120, 1, 1.11638
318, 3, wb, attraction, a-b-db, 14, 3, 4, 5, 120, 195, 111, 181, 195, 120, 3, 0.494692
318, 3, wb, attraction, a-b-db, 2, 3, 4, 6, 120, 195, 195, 120, 119, 193, 1, 1.06449
318, 3, wb, attraction, a-b-db, 2, 3, 4, 6, 120, 195, 195, 120, 119, 193, 3, 0.396757
318, 3, wb, filler, NA, 999, 999, 4, 7, 85, 147, 179, 171, 137, 120, 1, 0.650593
318, 3, wb, filler, NA, 999, 999, 4, 7, 85, 147, 179, 171, 137, 120, 2, 0.591701
318, 3, wb, filler, NA, 999, 999, 4, 8, 72, 168, 109, 69, 112, 80, 2, 0.789462
318, 3, wb, filler, NA, 999, 999, 4, 8, 72, 168, 109, 69, 112, 80, 3, 0.732549
318, 3, wb, attraction, a-b-db, 5, 1, 4, 9, 135, 60, 60, 135, 58, 132, 3, 2.03684
318, 3, wb, attraction, a-b-db, 5, 1, 4, 9, 135, 60, 60, 135, 58, 132, 2, 0.346428
318, 3, wb, filler, NA, 999, 999, 4, 10, 132, 183, 145, 182, 160, 79, 3, 1.14603
318, 3, wb, filler, NA, 999, 999, 4, 10, 132, 183, 145, 182, 160, 79, 2, 0.499168
318, 3, wb, catch, NA, 999, 999, 4, 11, 107, 88, 109, 146, 195, 120, 1, 0.596753
318, 3, wb, catch, NA, 999, 999, 4, 11, 107, 88, 109, 146, 195, 120, 3, 0.275922
318, 3, wb, attraction, a-b-da, 9, 3, 4, 12, 120, 195, 195, 120, 186, 114, 3, 1.81448
318, 3, wb, attraction, a-b-da, 9, 3, 4, 12, 120, 195, 195, 120, 186, 114, 1, 0.308542
318, 3, wb, attraction, a-b-da, 2, 1, 4, 13, 60, 135, 134, 59, 135, 60, 3, 1.91773
318, 3, wb, attraction, a-b-da, 2, 1, 4, 13, 60, 135, 134, 59, 135, 60, 1, 0.351744
318, 3, wb, attraction, a-b-db, 14, 2, 4, 14, 165, 90, 90, 165, 83, 153, 3, 0.751556
318, 3, wb, attraction, a-b-db, 14, 2, 4, 14, 165, 90, 90, 165, 83, 153, 1, 0.352626
318, 3, wb, attraction, a-b-db, 9, 3, 4, 15, 120, 195, 114, 186, 195, 120, 1, 0.720465
318, 3, wb, attraction, a-b-db, 9, 3, 4, 15, 120, 195, 114, 186, 195, 120, 3, 0.394936
318, 3, wb, filler, NA, 999, 999, 4, 16, 91, 146, 187, 89, 107, 57, 3, 0.640749
318, 3, wb, filler, NA, 999, 999, 4, 16, 91, 146, 187, 89, 107, 57, 2, 0.34978
318, 3, wb, attraction, a-b-db, 2, 1, 4, 17, 60, 135, 59, 134, 135, 60, 1, 0.821595
318, 3, wb, attraction, a-b-db, 2, 1, 4, 17, 60, 135, 59, 134, 135, 60, 3, 0.667344
318, 3, wb, attraction, a-b-db, 9, 1, 4, 18, 60, 135, 135, 60, 57, 129, 2, 1.26241
318, 3, wb, attraction, a-b-db, 9, 1, 4, 18, 60, 135, 135, 60, 57, 129, 3, 0.258669
318, 3, wb, filler, NA, 999, 999, 4, 19, 174, 111, 148, 161, 70, 63, 3, 0.789836
318, 3, wb, filler, NA, 999, 999, 4, 19, 174, 111, 148, 161, 70, 63, 2, 0.44491
318, 3, wb, attraction, a-b-da, 5, 2, 4, 20, 165, 90, 90, 165, 161, 88, 2, 3.52063
318, 3, wb, attraction, a-b-da, 5, 2, 4, 20, 165, 90, 90, 165, 161, 88, 3, 0.250198
318, 3, wb, attraction, a-b-db, 5, 3, 4, 21, 117, 190, 195, 120, 120, 195, 3, 1.31818
318, 3, wb, attraction, a-b-db, 5, 3, 4, 21, 117, 190, 195, 120, 120, 195, 2, 0.240336
318, 3, wb, filler, NA, 999, 999, 4, 22, 117, 144, 175, 158, 190, 144, 1, 0.676125
318, 3, wb, filler, NA, 999, 999, 4, 22, 117, 144, 175, 158, 190, 144, 3, 0.263943
318, 3, wb, attraction, a-b-da, 14, 2, 4, 23, 153, 83, 165, 90, 90, 165, 2, 3.28315
318, 3, wb, attraction, a-b-da, 14, 2, 4, 23, 153, 83, 165, 90, 90, 165, 3, 0.222209
318, 3, wb, catch, NA, 999, 999, 4, 24, 163, 92, 101, 94, 133, 182, 2, 0.579396
318, 3, wb, catch, NA, 999, 999, 4, 24, 163, 92, 101, 94, 133, 182, 3, 0.195045
318, 3, wb, attraction, a-b-da, 9, 2, 4, 25, 90, 165, 157, 86, 165, 90, 1, 4.46497
318, 3, wb, attraction, a-b-da, 9, 2, 4, 25, 90, 165, 157, 86, 165, 90, 3, 0.220194
318, 3, wb, attraction, a-b-da, 14, 3, 4, 26, 181, 111, 195, 120, 120, 195, 1, 1.20939
318, 3, wb, attraction, a-b-da, 14, 3, 4, 26, 181, 111, 195, 120, 120, 195, 3, 0.167714
318, 3, wb, filler, NA, 999, 999, 4, 27, 102, 135, 178, 112, 99, 73, 3, 0.599056
318, 3, wb, filler, NA, 999, 999, 4, 27, 102, 135, 178, 112, 99, 73, 2, 0.230029
318, 3, wb, attraction, a-b-db, 5, 2, 4, 28, 88, 161, 90, 165, 165, 90, 1, 1.59461
318, 3, wb, attraction, a-b-db, 5, 2, 4, 28, 88, 161, 90, 165, 165, 90, 2, 0.513489
318, 3, wb, catch, NA, 999, 999, 4, 29, 126, 129, 158, 157, 71, 124, 3, 0.650562
318, 3, wb, catch, NA, 999, 999, 4, 29, 126, 129, 158, 157, 71, 124, 2, 0.839685
318, 3, wb, attraction, a-b-da, 2, 2, 4, 30, 163, 89, 165, 90, 90, 165, 1, 1.25201
318, 3, wb, attraction, a-b-da, 2, 2, 4, 30, 163, 89, 165, 90, 90, 165, 3, 0.256945
318, 3, wb, attraction, a-b-db, 9, 2, 4, 31, 165, 90, 86, 157, 90, 165, 1, 0.732055
318, 3, wb, attraction, a-b-db, 9, 2, 4, 31, 165, 90, 86, 157, 90, 165, 3, 0.461849
318, 3, wb, attraction, a-b-da, 14, 1, 4, 32, 135, 60, 125, 56, 60, 135, 1, 1.46487
318, 3, wb, attraction, a-b-da, 14, 1, 4, 32, 135, 60, 125, 56, 60, 135, 3, 0.3651
318, 3, wb, filler, NA, 999, 999, 4, 33, 113, 147, 58, 145, 57, 88, 3, 0.660269
318, 3, wb, filler, NA, 999, 999, 4, 33, 113, 147, 58, 145, 57, 88, 1, 0.58476
318, 3, wb, attraction, a-b-da, 5, 3, 4, 34, 120, 195, 190, 117, 195, 120, 3, 1.43925
318, 3, wb, attraction, a-b-da, 5, 3, 4, 34, 120, 195, 190, 117, 195, 120, 2, 0.372017
318, 3, wb, attraction, a-b-db, 14, 1, 4, 35, 56, 125, 135, 60, 60, 135, 1, 2.15518
318, 3, wb, attraction, a-b-db, 14, 1, 4, 35, 56, 125, 135, 60, 60, 135, 3, 0.411146
318, 3, wb, attraction, a-b-da, 2, 3, 4, 36, 193, 119, 195, 120, 120, 195, 1, 0.904267
318, 3, wb, attraction, a-b-da, 2, 3, 4, 36, 193, 119, 195, 120, 120, 195, 3, 0.699302
318, 3, wb, attraction, a-b-da, 9, 1, 4, 37, 60, 135, 135, 60, 129, 57, 3, 1.10103
318, 3, wb, attraction, a-b-da, 9, 1, 4, 37, 60, 135, 135, 60, 129, 57, 2, 0.408171
318, 3, wb, filler, NA, 999, 999, 5, 1, 121, 159, 81, 193, 138, 115, 3, 2.84394
318, 3, wb, filler, NA, 999, 999, 5, 1, 121, 159, 81, 193, 138, 115, 1, 1.14427
318, 3, wb, attraction, a-b-da, 9, 1, 5, 2, 129, 57, 60, 135, 135, 60, 1, 0.999729
318, 3, wb, attraction, a-b-da, 9, 1, 5, 2, 129, 57, 60, 135, 135, 60, 3, 0.502789
318, 3, wb, filler, NA, 999, 999, 5, 3, 69, 99, 167, 81, 99, 109, 1, 0.712533
318, 3, wb, filler, NA, 999, 999, 5, 3, 69, 99, 167, 81, 99, 109, 2, 0.947007
318, 3, wb, attraction, a-b-db, 14, 3, 5, 4, 120, 195, 111, 181, 195, 120, 2, 2.01861
318, 3, wb, attraction, a-b-db, 14, 3, 5, 4, 120, 195, 111, 181, 195, 120, 3, 0.20081
318, 3, wb, filler, NA, 999, 999, 5, 5, 98, 180, 56, 154, 61, 172, 2, 0.726498
318, 3, wb, filler, NA, 999, 999, 5, 5, 98, 180, 56, 154, 61, 172, 1, 0.16833
318, 3, wb, attraction, a-b-da, 2, 2, 5, 6, 165, 90, 163, 89, 90, 165, 1, 0.991462
318, 3, wb, attraction, a-b-da, 2, 2, 5, 6, 165, 90, 163, 89, 90, 165, 3, 0.150495
318, 3, wb, attraction, a-b-da, 5, 3, 5, 7, 120, 195, 195, 120, 190, 117, 1, 1.24637
318, 3, wb, attraction, a-b-da, 5, 3, 5, 7, 120, 195, 195, 120, 190, 117, 3, 0.155199
318, 3, wb, attraction, a-b-db, 5, 3, 5, 8, 195, 120, 120, 195, 117, 190, 1, 0.939252
318, 3, wb, attraction, a-b-db, 5, 3, 5, 8, 195, 120, 120, 195, 117, 190, 3, 0.380182
318, 3, wb, filler, NA, 999, 999, 5, 9, 158, 143, 95, 107, 125, 167, 2, 0.818638
318, 3, wb, filler, NA, 999, 999, 5, 9, 158, 143, 95, 107, 125, 167, 1, 0.377138
318, 3, wb, attraction, a-b-da, 14, 1, 5, 10, 135, 60, 125, 56, 60, 135, 1, 0.775574
318, 3, wb, attraction, a-b-da, 14, 1, 5, 10, 135, 60, 125, 56, 60, 135, 3, 0.327243
318, 3, wb, attraction, a-b-da, 5, 1, 5, 11, 60, 135, 132, 58, 135, 60, 1, 0.887737
318, 3, wb, attraction, a-b-da, 5, 1, 5, 11, 60, 135, 132, 58, 135, 60, 2, 0.619501
318, 3, wb, attraction, a-b-db, 9, 3, 5, 12, 195, 120, 114, 186, 120, 195, 1, 0.760501
318, 3, wb, attraction, a-b-db, 9, 3, 5, 12, 195, 120, 114, 186, 120, 195, 2, 0.280972
318, 3, wb, attraction, a-b-db, 2, 1, 5, 13, 135, 60, 60, 135, 59, 134, 1, 2.22747
318, 3, wb, attraction, a-b-db, 2, 1, 5, 13, 135, 60, 60, 135, 59, 134, 3, 0.688762
318, 3, wb, attraction, a-b-db, 2, 2, 5, 14, 89, 163, 90, 165, 165, 90, 1, 1.42723
318, 3, wb, attraction, a-b-db, 2, 2, 5, 14, 89, 163, 90, 165, 165, 90, 3, 0.288772
318, 3, wb, attraction, a-b-db, 2, 3, 5, 15, 195, 120, 119, 193, 120, 195, 2, 3.83533
318, 3, wb, attraction, a-b-db, 2, 3, 5, 15, 195, 120, 119, 193, 120, 195, 1, 0.223979
318, 3, wb, attraction, a-b-da, 2, 3, 5, 16, 195, 120, 193, 119, 120, 195, 1, 4.18044
318, 3, wb, attraction, a-b-da, 2, 3, 5, 16, 195, 120, 193, 119, 120, 195, 3, 0.307246
318, 3, wb, filler, NA, 999, 999, 5, 17, 59, 189, 56, 109, 188, 123, 2, 0.684368
318, 3, wb, filler, NA, 999, 999, 5, 17, 59, 189, 56, 109, 188, 123, 3, 0.168217
318, 3, wb, attraction, a-b-db, 14, 2, 5, 18, 90, 165, 165, 90, 83, 153, 3, 1.3913
318, 3, wb, attraction, a-b-db, 14, 2, 5, 18, 90, 165, 165, 90, 83, 153, 2, 0.158177
318, 3, wb, filler, NA, 999, 999, 5, 19, 90, 187, 123, 186, 100, 121, 3, 0.693391
318, 3, wb, filler, NA, 999, 999, 5, 19, 90, 187, 123, 186, 100, 121, 2, 0.192505
318, 3, wb, attraction, a-b-da, 14, 3, 5, 20, 120, 195, 181, 111, 195, 120, 2, 1.19043
318, 3, wb, attraction, a-b-da, 14, 3, 5, 20, 120, 195, 181, 111, 195, 120, 1, 0.709496
318, 3, wb, filler, NA, 999, 999, 5, 21, 148, 170, 183, 158, 155, 127, 3, 1.12641
318, 3, wb, filler, NA, 999, 999, 5, 21, 148, 170, 183, 158, 155, 127, 2, 0.176031
318, 3, wb, attraction, a-b-da, 14, 2, 5, 22, 153, 83, 165, 90, 90, 165, 1, 1.61456
318, 3, wb, attraction, a-b-da, 14, 2, 5, 22, 153, 83, 165, 90, 90, 165, 3, 0.42873
318, 3, wb, attraction, a-b-db, 9, 2, 5, 23, 86, 157, 90, 165, 165, 90, 1, 2.76116
318, 3, wb, attraction, a-b-db, 9, 2, 5, 23, 86, 157, 90, 165, 165, 90, 2, 1.04894
318, 3, wb, attraction, a-b-da, 5, 2, 5, 24, 90, 165, 161, 88, 165, 90, 2, 2.22056
318, 3, wb, attraction, a-b-da, 5, 2, 5, 24, 90, 165, 161, 88, 165, 90, 1, 0.834528
318, 3, wb, attraction, a-b-db, 9, 1, 5, 25, 135, 60, 60, 135, 57, 129, 3, 2.25485
318, 3, wb, attraction, a-b-db, 9, 1, 5, 25, 135, 60, 60, 135, 57, 129, 1, 0.499426
318, 3, wb, filler, NA, 999, 999, 5, 26, 113, 93, 58, 184, 131, 89, 1, 3.66122
318, 3, wb, filler, NA, 999, 999, 5, 26, 113, 93, 58, 184, 131, 89, 2, 0.896707
318, 3, wb, attraction, a-b-db, 5, 1, 5, 27, 58, 132, 60, 135, 135, 60, 1, 3.37838
318, 3, wb, attraction, a-b-db, 5, 1, 5, 27, 58, 132, 60, 135, 135, 60, 2, 0.185325
318, 3, wb, attraction, a-b-da, 9, 3, 5, 28, 120, 195, 186, 114, 195, 120, 2, 3.83197
318, 3, wb, attraction, a-b-da, 9, 3, 5, 28, 120, 195, 186, 114, 195, 120, 1, 0.196642
318, 3, wb, attraction, a-b-db, 14, 1, 5, 29, 60, 135, 135, 60, 56, 125, 3, 1.50653
318, 3, wb, attraction, a-b-db, 14, 1, 5, 29, 60, 135, 135, 60, 56, 125, 1, 0.396679
318, 3, wb, filler, NA, 999, 999, 5, 30, 125, 64, 72, 78, 120, 165, 2, 0.826433
318, 3, wb, filler, NA, 999, 999, 5, 30, 125, 64, 72, 78, 120, 165, 3, 0.192179
318, 3, wb, filler, NA, 999, 999, 5, 31, 154, 66, 111, 110, 178, 164, 2, 0.638171
318, 3, wb, filler, NA, 999, 999, 5, 31, 154, 66, 111, 110, 178, 164, 3, 0.171276
318, 3, wb, attraction, a-b-da, 2, 1, 5, 32, 60, 135, 134, 59, 135, 60, 3, 1.84246
318, 3, wb, attraction, a-b-da, 2, 1, 5, 32, 60, 135, 134, 59, 135, 60, 2, 0.159227
318, 3, wb, attraction, a-b-da, 9, 2, 5, 33, 90, 165, 165, 90, 157, 86, 2, 1.21445
318, 3, wb, attraction, a-b-da, 9, 2, 5, 33, 90, 165, 165, 90, 157, 86, 1, 0.772607
318, 3, wb, catch, NA, 999, 999, 5, 34, 156, 159, 136, 119, 63, 132, 3, 0.787696
318, 3, wb, catch, NA, 999, 999, 5, 34, 156, 159, 136, 119, 63, 132, 1, 0.282764
318, 3, wb, attraction, a-b-db, 5, 2, 5, 35, 90, 165, 165, 90, 88, 161, 2, 5.47731
318, 3, wb, attraction, a-b-db, 5, 2, 5, 35, 90, 165, 165, 90, 88, 161, 1, 0.383486
318, 3, wb, catch, NA, 999, 999, 5, 36, 147, 108, 125, 70, 178, 137, 2, 0.774001
318, 3, wb, catch, NA, 999, 999, 5, 36, 147, 108, 125, 70, 178, 137, 3, 0.117755
318, 3, wb, catch, NA, 999, 999, 5, 37, 112, 83, 192, 123, 159, 96, 1, 0.806947
318, 3, wb, catch, NA, 999, 999, 5, 37, 112, 83, 192, 123, 159, 96, 2, 0.157364
318, 3, wb, filler, NA, 999, 999, 6, 1, 150, 70, 100, 158, 189, 188, 2, 0.908548
318, 3, wb, filler, NA, 999, 999, 6, 1, 150, 70, 100, 158, 189, 188, 3, 0.14291
318, 3, wb, attraction, a-b-db, 9, 3, 6, 2, 114, 186, 195, 120, 120, 195, 3, 1.23088
318, 3, wb, attraction, a-b-db, 9, 3, 6, 2, 114, 186, 195, 120, 120, 195, 2, 0.212499
318, 3, wb, filler, NA, 999, 999, 6, 3, 67, 190, 85, 194, 180, 173, 1, 0.913676
318, 3, wb, filler, NA, 999, 999, 6, 3, 67, 190, 85, 194, 180, 173, 3, 0.300065
318, 3, wb, catch, NA, 999, 999, 6, 4, 141, 114, 118, 77, 188, 127, 2, 0.701897
318, 3, wb, catch, NA, 999, 999, 6, 4, 141, 114, 118, 77, 188, 127, 3, 0.208875
318, 3, wb, attraction, a-b-da, 2, 3, 6, 5, 195, 120, 120, 195, 193, 119, 3, 1.19019
318, 3, wb, attraction, a-b-da, 2, 3, 6, 5, 195, 120, 120, 195, 193, 119, 2, 0.141057
318, 3, wb, attraction, a-b-db, 2, 2, 6, 6, 165, 90, 90, 165, 89, 163, 3, 2.76496
318, 3, wb, attraction, a-b-db, 2, 2, 6, 6, 165, 90, 90, 165, 89, 163, 1, 0.372742
318, 3, wb, filler, NA, 999, 999, 6, 7, 119, 136, 116, 184, 190, 167, 1, 1.21992
318, 3, wb, filler, NA, 999, 999, 6, 7, 119, 136, 116, 184, 190, 167, 3, 0.354148
318, 3, wb, filler, NA, 999, 999, 6, 8, 67, 173, 165, 105, 148, 92, 3, 0.778008
318, 3, wb, filler, NA, 999, 999, 6, 8, 67, 173, 165, 105, 148, 92, 2, 1.23373
318, 3, wb, attraction, a-b-da, 14, 3, 6, 9, 120, 195, 195, 120, 181, 111, 1, 2.23792
318, 3, wb, attraction, a-b-da, 14, 3, 6, 9, 120, 195, 195, 120, 181, 111, 2, 1.03522
318, 3, wb, filler, NA, 999, 999, 6, 10, 69, 145, 125, 170, 136, 113, 1, 0.799484
318, 3, wb, filler, NA, 999, 999, 6, 10, 69, 145, 125, 170, 136, 113, 2, 0.534663
318, 3, wb, attraction, a-b-db, 14, 2, 6, 11, 90, 165, 83, 153, 165, 90, 2, 2.70301
318, 3, wb, attraction, a-b-db, 14, 2, 6, 11, 90, 165, 83, 153, 165, 90, 3, 0.6415
318, 3, wb, attraction, a-b-db, 2, 1, 6, 12, 60, 135, 135, 60, 59, 134, 2, 2.38914
318, 3, wb, attraction, a-b-db, 2, 1, 6, 12, 60, 135, 135, 60, 59, 134, 1, 0.243739
318, 3, wb, attraction, a-b-db, 2, 3, 6, 13, 195, 120, 119, 193, 120, 195, 1, 4.1597
318, 3, wb, attraction, a-b-db, 2, 3, 6, 13, 195, 120, 119, 193, 120, 195, 3, 0.278952
318, 3, wb, attraction, a-b-da, 2, 1, 6, 14, 135, 60, 60, 135, 134, 59, 3, 1.04946
318, 3, wb, attraction, a-b-da, 2, 1, 6, 14, 135, 60, 60, 135, 134, 59, 2, 0.35854
318, 3, wb, attraction, a-b-db, 5, 2, 6, 15, 90, 165, 165, 90, 88, 161, 3, 0.957684
318, 3, wb, attraction, a-b-db, 5, 2, 6, 15, 90, 165, 165, 90, 88, 161, 2, 0.253991
318, 3, wb, attraction, a-b-da, 9, 1, 6, 16, 129, 57, 135, 60, 60, 135, 1, 1.86575
318, 3, wb, attraction, a-b-da, 9, 1, 6, 16, 129, 57, 135, 60, 60, 135, 2, 0.493867
318, 3, wb, attraction, a-b-da, 14, 1, 6, 17, 125, 56, 135, 60, 60, 135, 1, 1.81562
318, 3, wb, attraction, a-b-da, 14, 1, 6, 17, 125, 56, 135, 60, 60, 135, 3, 0.261858
318, 3, wb, catch, NA, 999, 999, 6, 18, 84, 111, 157, 98, 179, 136, 1, 0.936969
318, 3, wb, catch, NA, 999, 999, 6, 18, 84, 111, 157, 98, 179, 136, 3, 0.210604
318, 3, wb, filler, NA, 999, 999, 6, 19, 186, 159, 65, 125, 191, 160, 2, 0.623949
318, 3, wb, filler, NA, 999, 999, 6, 19, 186, 159, 65, 125, 191, 160, 1, 0.837667
318, 3, wb, attraction, a-b-db, 5, 1, 6, 20, 58, 132, 135, 60, 60, 135, 1, 1.90587
318, 3, wb, attraction, a-b-db, 5, 1, 6, 20, 58, 132, 135, 60, 60, 135, 3, 0.795983
318, 3, wb, attraction, a-b-da, 5, 2, 6, 21, 161, 88, 90, 165, 165, 90, 1, 2.78566
318, 3, wb, attraction, a-b-da, 5, 2, 6, 21, 161, 88, 90, 165, 165, 90, 3, 0.368786
318, 3, wb, attraction, a-b-da, 5, 1, 6, 22, 135, 60, 60, 135, 132, 58, 3, 0.751967
318, 3, wb, attraction, a-b-da, 5, 1, 6, 22, 135, 60, 60, 135, 132, 58, 2, 0.361118
318, 3, wb, filler, NA, 999, 999, 6, 23, 101, 128, 142, 56, 154, 122, 3, 2.08018
318, 3, wb, filler, NA, 999, 999, 6, 23, 101, 128, 142, 56, 154, 122, 2, 1.13154
318, 3, wb, attraction, a-b-da, 9, 3, 6, 24, 195, 120, 186, 114, 120, 195, 2, 1.81981
318, 3, wb, attraction, a-b-da, 9, 3, 6, 24, 195, 120, 186, 114, 120, 195, 1, 0.194013
318, 3, wb, attraction, a-b-da, 5, 3, 6, 25, 120, 195, 195, 120, 190, 117, 2, 1.47181
318, 3, wb, attraction, a-b-da, 5, 3, 6, 25, 120, 195, 195, 120, 190, 117, 3, 0.171278
318, 3, wb, attraction, a-b-db, 14, 3, 6, 26, 120, 195, 111, 181, 195, 120, 2, 2.07449
318, 3, wb, attraction, a-b-db, 14, 3, 6, 26, 120, 195, 111, 181, 195, 120, 1, 0.197763
318, 3, wb, attraction, a-b-db, 9, 2, 6, 27, 90, 165, 165, 90, 86, 157, 3, 1.58772
318, 3, wb, attraction, a-b-db, 9, 2, 6, 27, 90, 165, 165, 90, 86, 157, 1, 0.243275
318, 3, wb, attraction, a-b-da, 14, 2, 6, 28, 165, 90, 153, 83, 90, 165, 3, 2.319
318, 3, wb, attraction, a-b-da, 14, 2, 6, 28, 165, 90, 153, 83, 90, 165, 1, 1.1449
318, 3, wb, filler, NA, 999, 999, 6, 29, 105, 182, 139, 195, 65, 166, 3, 0.800529
318, 3, wb, filler, NA, 999, 999, 6, 29, 105, 182, 139, 195, 65, 166, 2, 0.327754
318, 3, wb, catch, NA, 999, 999, 6, 30, 173, 142, 129, 126, 108, 87, 3, 0.536104
318, 3, wb, catch, NA, 999, 999, 6, 30, 173, 142, 129, 126, 108, 87, 1, 0.441931
318, 3, wb, attraction, a-b-db, 14, 1, 6, 31, 135, 60, 56, 125, 60, 135, 1, 2.36566
318, 3, wb, attraction, a-b-db, 14, 1, 6, 31, 135, 60, 56, 125, 60, 135, 3, 0.477603
318, 3, wb, attraction, a-b-db, 5, 3, 6, 32, 117, 190, 195, 120, 120, 195, 1, 2.18411
318, 3, wb, attraction, a-b-db, 5, 3, 6, 32, 117, 190, 195, 120, 120, 195, 3, 0.223419
318, 3, wb, filler, NA, 999, 999, 6, 33, 96, 120, 78, 194, 127, 167, 1, 1.09186
318, 3, wb, filler, NA, 999, 999, 6, 33, 96, 120, 78, 194, 127, 167, 3, 0.207004
318, 3, wb, filler, NA, 999, 999, 6, 34, 170, 173, 62, 170, 72, 144, 3, 0.891982
318, 3, wb, filler, NA, 999, 999, 6, 34, 170, 173, 62, 170, 72, 144, 1, 0.271068
318, 3, wb, attraction, a-b-da, 9, 2, 6, 35, 90, 165, 165, 90, 157, 86, 3, 1.97017
318, 3, wb, attraction, a-b-da, 9, 2, 6, 35, 90, 165, 165, 90, 157, 86, 2, 0.226188
318, 3, wb, attraction, a-b-db, 9, 1, 6, 36, 60, 135, 135, 60, 57, 129, 3, 0.678778
318, 3, wb, attraction, a-b-db, 9, 1, 6, 36, 60, 135, 135, 60, 57, 129, 1, 0.794592
318, 3, wb, attraction, a-b-da, 2, 2, 6, 37, 163, 89, 90, 165, 165, 90, 1, 1.68832
318, 3, wb, attraction, a-b-da, 2, 2, 6, 37, 163, 89, 90, 165, 165, 90, 3, 1.20298
318, 3, wb, filler, NA, 999, 999, 7, 1, 63, 95, 163, 64, 88, 102, 1, 1.02465
318, 3, wb, filler, NA, 999, 999, 7, 1, 63, 95, 163, 64, 88, 102, 3, 0.39024
318, 3, wb, filler, NA, 999, 999, 7, 2, 153, 174, 62, 139, 78, 81, 3, 0.676035
318, 3, wb, filler, NA, 999, 999, 7, 2, 153, 174, 62, 139, 78, 81, 1, 0.311803
318, 3, wb, attraction, a-b-da, 5, 3, 7, 3, 190, 117, 120, 195, 195, 120, 1, 1.54497
318, 3, wb, attraction, a-b-da, 5, 3, 7, 3, 190, 117, 120, 195, 195, 120, 3, 0.434014
318, 3, wb, attraction, a-b-db, 2, 3, 7, 4, 195, 120, 119, 193, 120, 195, 1, 1.95835
318, 3, wb, attraction, a-b-db, 2, 3, 7, 4, 195, 120, 119, 193, 120, 195, 3, 0.414435
318, 3, wb, attraction, a-b-da, 9, 2, 7, 5, 90, 165, 165, 90, 157, 86, 3, 1.25149
318, 3, wb, attraction, a-b-da, 9, 2, 7, 5, 90, 165, 165, 90, 157, 86, 2, 0.62445
318, 3, wb, attraction, a-b-db, 2, 2, 7, 6, 165, 90, 89, 163, 90, 165, 2, 3.48478
318, 3, wb, attraction, a-b-db, 2, 2, 7, 6, 165, 90, 89, 163, 90, 165, 1, 0.247695
318, 3, wb, attraction, a-b-da, 14, 1, 7, 7, 135, 60, 60, 135, 125, 56, 1, 1.33956
318, 3, wb, attraction, a-b-da, 14, 1, 7, 7, 135, 60, 60, 135, 125, 56, 2, 0.652427
318, 3, wb, attraction, a-b-da, 2, 3, 7, 8, 193, 119, 120, 195, 195, 120, 3, 1.33622
318, 3, wb, attraction, a-b-da, 2, 3, 7, 8, 193, 119, 120, 195, 195, 120, 2, 0.233917
318, 3, wb, filler, NA, 999, 999, 7, 9, 154, 185, 67, 136, 75, 120, 3, 0.62232
318, 3, wb, filler, NA, 999, 999, 7, 9, 154, 185, 67, 136, 75, 120, 1, 0.148081
318, 3, wb, attraction, a-b-da, 9, 1, 7, 10, 135, 60, 129, 57, 60, 135, 1, 2.54797
318, 3, wb, attraction, a-b-da, 9, 1, 7, 10, 135, 60, 129, 57, 60, 135, 2, 0.540425
318, 3, wb, attraction, a-b-db, 2, 1, 7, 11, 60, 135, 135, 60, 59, 134, 1, 1.18821
318, 3, wb, attraction, a-b-db, 2, 1, 7, 11, 60, 135, 135, 60, 59, 134, 3, 0.419864
318, 3, wb, filler, NA, 999, 999, 7, 12, 57, 106, 64, 76, 171, 138, 2, 0.793025
318, 3, wb, filler, NA, 999, 999, 7, 12, 57, 106, 64, 76, 171, 138, 3, 0.168036
318, 3, wb, attraction, a-b-db, 14, 2, 7, 13, 90, 165, 83, 153, 165, 90, 2, 1.4393
318, 3, wb, attraction, a-b-db, 14, 2, 7, 13, 90, 165, 83, 153, 165, 90, 1, 0.636128
318, 3, wb, attraction, a-b-da, 14, 3, 7, 14, 120, 195, 181, 111, 195, 120, 2, 4.24856
318, 3, wb, attraction, a-b-da, 14, 3, 7, 14, 120, 195, 181, 111, 195, 120, 1, 0.252506
318, 3, wb, filler, NA, 999, 999, 7, 15, 68, 189, 62, 175, 133, 175, 2, 1.61641
318, 3, wb, filler, NA, 999, 999, 7, 15, 68, 189, 62, 175, 133, 175, 3, 0.23051
318, 3, wb, attraction, a-b-db, 9, 2, 7, 16, 165, 90, 90, 165, 86, 157, 3, 1.17102
318, 3, wb, attraction, a-b-db, 9, 2, 7, 16, 165, 90, 90, 165, 86, 157, 2, 1.03465
318, 3, wb, attraction, a-b-da, 2, 2, 7, 17, 165, 90, 163, 89, 90, 165, 1, 2.22294
318, 3, wb, attraction, a-b-da, 2, 2, 7, 17, 165, 90, 163, 89, 90, 165, 2, 0.60422
318, 3, wb, attraction, a-b-db, 9, 3, 7, 18, 195, 120, 114, 186, 120, 195, 1, 2.92205
318, 3, wb, attraction, a-b-db, 9, 3, 7, 18, 195, 120, 114, 186, 120, 195, 2, 0.339665
318, 3, wb, attraction, a-b-da, 5, 2, 7, 19, 161, 88, 165, 90, 90, 165, 3, 0.916175
318, 3, wb, attraction, a-b-da, 5, 2, 7, 19, 161, 88, 165, 90, 90, 165, 2, 1.14258
318, 3, wb, filler, NA, 999, 999, 7, 20, 57, 91, 137, 131, 90, 122, 1, 0.774158
318, 3, wb, filler, NA, 999, 999, 7, 20, 57, 91, 137, 131, 90, 122, 2, 0.269921
318, 3, wb, attraction, a-b-db, 9, 1, 7, 21, 135, 60, 57, 129, 60, 135, 1, 2.24096
318, 3, wb, attraction, a-b-db, 9, 1, 7, 21, 135, 60, 57, 129, 60, 135, 3, 0.47773
318, 3, wb, attraction, a-b-da, 14, 2, 7, 22, 153, 83, 165, 90, 90, 165, 1, 2.04813
318, 3, wb, attraction, a-b-da, 14, 2, 7, 22, 153, 83, 165, 90, 90, 165, 3, 0.556844
318, 3, wb, filler, NA, 999, 999, 7, 23, 163, 189, 187, 180, 132, 62, 3, 0.723916
318, 3, wb, filler, NA, 999, 999, 7, 23, 163, 189, 187, 180, 132, 62, 2, 0.613658
318, 3, wb, filler, NA, 999, 999, 7, 24, 155, 73, 122, 110, 174, 174, 1, 1.66671
318, 3, wb, filler, NA, 999, 999, 7, 24, 155, 73, 122, 110, 174, 174, 3, 0.422828
318, 3, wb, catch, NA, 999, 999, 7, 25, 110, 85, 130, 125, 134, 181, 1, 1.75619
318, 3, wb, catch, NA, 999, 999, 7, 25, 110, 85, 130, 125, 134, 181, 3, 0.316094
318, 3, wb, attraction, a-b-db, 5, 1, 7, 26, 58, 132, 135, 60, 60, 135, 1, 3.42942
318, 3, wb, attraction, a-b-db, 5, 1, 7, 26, 58, 132, 135, 60, 60, 135, 3, 0.39418
318, 3, wb, catch, NA, 999, 999, 7, 27, 149, 166, 104, 91, 125, 130, 2, 0.871906
318, 3, wb, catch, NA, 999, 999, 7, 27, 149, 166, 104, 91, 125, 130, 1, 0.283888
318, 3, wb, attraction, a-b-da, 9, 3, 7, 28, 120, 195, 186, 114, 195, 120, 2, 2.84624
318, 3, wb, attraction, a-b-da, 9, 3, 7, 28, 120, 195, 186, 114, 195, 120, 3, 0.266793
318, 3, wb, attraction, a-b-da, 2, 1, 7, 29, 134, 59, 60, 135, 135, 60, 3, 1.28587
318, 3, wb, attraction, a-b-da, 2, 1, 7, 29, 134, 59, 60, 135, 135, 60, 2, 0.521371
318, 3, wb, filler, NA, 999, 999, 7, 30, 95, 163, 113, 170, 121, 152, 1, 2.14649
318, 3, wb, filler, NA, 999, 999, 7, 30, 95, 163, 113, 170, 121, 152, 3, 0.491224
318, 3, wb, attraction, a-b-db, 14, 1, 7, 31, 60, 135, 56, 125, 135, 60, 3, 1.14898
318, 3, wb, attraction, a-b-db, 14, 1, 7, 31, 60, 135, 56, 125, 135, 60, 2, 0.53382
318, 3, wb, attraction, a-b-db, 5, 2, 7, 32, 90, 165, 88, 161, 165, 90, 3, 1.00622
318, 3, wb, attraction, a-b-db, 5, 2, 7, 32, 90, 165, 88, 161, 165, 90, 2, 0.300647
318, 3, wb, filler, NA, 999, 999, 7, 33, 120, 187, 182, 64, 111, 185, 2, 1.87062
318, 3, wb, filler, NA, 999, 999, 7, 33, 120, 187, 182, 64, 111, 185, 1, 0.282595
318, 3, wb, catch, NA, 999, 999, 7, 34, 132, 183, 121, 134, 106, 89, 3, 0.732987
318, 3, wb, catch, NA, 999, 999, 7, 34, 132, 183, 121, 134, 106, 89, 1, 0.398793
318, 3, wb, attraction, a-b-da, 5, 1, 7, 35, 132, 58, 60, 135, 135, 60, 1, 2.54055
318, 3, wb, attraction, a-b-da, 5, 1, 7, 35, 132, 58, 60, 135, 135, 60, 3, 0.341111
318, 3, wb, attraction, a-b-db, 14, 3, 7, 36, 111, 181, 195, 120, 120, 195, 1, 1.63697
318, 3, wb, attraction, a-b-db, 14, 3, 7, 36, 111, 181, 195, 120, 120, 195, 2, 0.242461
318, 3, wb, attraction, a-b-db, 5, 3, 7, 37, 120, 195, 117, 190, 195, 120, 1, 2.2063
318, 3, wb, attraction, a-b-db, 5, 3, 7, 37, 120, 195, 117, 190, 195, 120, 2, 0.428232
318, 3, wb, attraction, a-b-da, 9, 1, 8, 1, 135, 60, 129, 57, 60, 135, 3, 1.69678
318, 3, wb, attraction, a-b-da, 9, 1, 8, 1, 135, 60, 129, 57, 60, 135, 2, 0.275536
318, 3, wb, catch, NA, 999, 999, 8, 2, 176, 139, 115, 140, 107, 88, 3, 1.32601
318, 3, wb, catch, NA, 999, 999, 8, 2, 176, 139, 115, 140, 107, 88, 1, 0.431572
318, 3, wb, attraction, a-b-db, 5, 3, 8, 3, 120, 195, 117, 190, 195, 120, 1, 5.08401
318, 3, wb, attraction, a-b-db, 5, 3, 8, 3, 120, 195, 117, 190, 195, 120, 3, 0.286435
318, 3, wb, attraction, a-b-da, 14, 1, 8, 4, 125, 56, 135, 60, 60, 135, 1, 0.944967
318, 3, wb, attraction, a-b-da, 14, 1, 8, 4, 125, 56, 135, 60, 60, 135, 2, 0.289919
318, 3, wb, filler, NA, 999, 999, 8, 5, 112, 108, 159, 158, 186, 108, 1, 0.763939
318, 3, wb, filler, NA, 999, 999, 8, 5, 112, 108, 159, 158, 186, 108, 2, 0.300262
318, 3, wb, filler, NA, 999, 999, 8, 6, 140, 107, 61, 170, 194, 99, 2, 1.89396
318, 3, wb, filler, NA, 999, 999, 8, 6, 140, 107, 61, 170, 194, 99, 3, 0.424713
318, 3, wb, filler, NA, 999, 999, 8, 7, 93, 97, 105, 57, 134, 183, 1, 0.581238
318, 3, wb, filler, NA, 999, 999, 8, 7, 93, 97, 105, 57, 134, 183, 3, 0.245149
318, 3, wb, attraction, a-b-db, 2, 1, 8, 8, 135, 60, 59, 134, 60, 135, 1, 4.44098
318, 3, wb, attraction, a-b-db, 2, 1, 8, 8, 135, 60, 59, 134, 60, 135, 3, 0.30091
318, 3, wb, attraction, a-b-db, 2, 2, 8, 9, 89, 163, 90, 165, 165, 90, 3, 2.4546
318, 3, wb, attraction, a-b-db, 2, 2, 8, 9, 89, 163, 90, 165, 165, 90, 2, 0.371135
318, 3, wb, attraction, a-b-da, 2, 3, 8, 10, 195, 120, 193, 119, 120, 195, 1, 5.13853
318, 3, wb, attraction, a-b-da, 2, 3, 8, 10, 195, 120, 193, 119, 120, 195, 2, 0.186732
318, 3, wb, attraction, a-b-db, 5, 2, 8, 11, 165, 90, 90, 165, 88, 161, 3, 1.54531
318, 3, wb, attraction, a-b-db, 5, 2, 8, 11, 165, 90, 90, 165, 88, 161, 1, 0.4261
318, 3, wb, filler, NA, 999, 999, 8, 12, 168, 128, 174, 72, 128, 56, 3, 0.654567
318, 3, wb, filler, NA, 999, 999, 8, 12, 168, 128, 174, 72, 128, 56, 1, 0.307738
318, 3, wb, filler, NA, 999, 999, 8, 13, 134, 82, 136, 140, 104, 176, 1, 1.13303
318, 3, wb, filler, NA, 999, 999, 8, 13, 134, 82, 136, 140, 104, 176, 3, 0.342528
318, 3, wb, attraction, a-b-da, 2, 2, 8, 14, 165, 90, 163, 89, 90, 165, 1, 1.27826
318, 3, wb, attraction, a-b-da, 2, 2, 8, 14, 165, 90, 163, 89, 90, 165, 3, 1.5701
318, 3, wb, attraction, a-b-da, 2, 1, 8, 15, 135, 60, 60, 135, 134, 59, 1, 2.05681
318, 3, wb, attraction, a-b-da, 2, 1, 8, 15, 135, 60, 60, 135, 134, 59, 2, 0.196703
318, 3, wb, attraction, a-b-da, 14, 2, 8, 16, 153, 83, 90, 165, 165, 90, 1, 1.89853
318, 3, wb, attraction, a-b-da, 14, 2, 8, 16, 153, 83, 90, 165, 165, 90, 2, 0.309198
318, 3, wb, attraction, a-b-db, 14, 2, 8, 17, 165, 90, 90, 165, 83, 153, 1, 1.10253
318, 3, wb, attraction, a-b-db, 14, 2, 8, 17, 165, 90, 90, 165, 83, 153, 2, 0.561448
318, 3, wb, filler, NA, 999, 999, 8, 18, 173, 99, 98, 72, 161, 162, 2, 0.640443
318, 3, wb, filler, NA, 999, 999, 8, 18, 173, 99, 98, 72, 161, 162, 3, 0.189803
318, 3, wb, filler, NA, 999, 999, 8, 19, 97, 108, 89, 184, 144, 171, 1, 0.756112
318, 3, wb, filler, NA, 999, 999, 8, 19, 97, 108, 89, 184, 144, 171, 3, 0.46854
318, 3, wb, attraction, a-b-da, 5, 3, 8, 20, 120, 195, 195, 120, 190, 117, 1, 2.31962
318, 3, wb, attraction, a-b-da, 5, 3, 8, 20, 120, 195, 195, 120, 190, 117, 3, 0.809649
318, 3, wb, attraction, a-b-da, 5, 1, 8, 21, 60, 135, 135, 60, 132, 58, 2, 1.27064
318, 3, wb, attraction, a-b-da, 5, 1, 8, 21, 60, 135, 135, 60, 132, 58, 3, 0.851003
318, 3, wb, attraction, a-b-db, 9, 1, 8, 22, 135, 60, 57, 129, 60, 135, 1, 1.89468
318, 3, wb, attraction, a-b-db, 9, 1, 8, 22, 135, 60, 57, 129, 60, 135, 2, 0.529261
318, 3, wb, attraction, a-b-db, 14, 3, 8, 23, 195, 120, 111, 181, 120, 195, 2, 2.13773
318, 3, wb, attraction, a-b-db, 14, 3, 8, 23, 195, 120, 111, 181, 120, 195, 1, 0.259043
318, 3, wb, filler, NA, 999, 999, 8, 24, 80, 113, 191, 178, 110, 147, 1, 0.75034
318, 3, wb, filler, NA, 999, 999, 8, 24, 80, 113, 191, 178, 110, 147, 2, 0.407279
318, 3, wb, filler, NA, 999, 999, 8, 25, 98, 64, 123, 167, 92, 140, 1, 0.908407
318, 3, wb, filler, NA, 999, 999, 8, 25, 98, 64, 123, 167, 92, 140, 2, 0.230753
318, 3, wb, attraction, a-b-da, 14, 3, 8, 26, 195, 120, 120, 195, 181, 111, 3, 1.99528
318, 3, wb, attraction, a-b-da, 14, 3, 8, 26, 195, 120, 120, 195, 181, 111, 2, 0.20199
318, 3, wb, attraction, a-b-db, 9, 2, 8, 27, 86, 157, 165, 90, 90, 165, 1, 0.903887
318, 3, wb, attraction, a-b-db, 9, 2, 8, 27, 86, 157, 165, 90, 90, 165, 2, 0.394979
318, 3, wb, attraction, a-b-da, 5, 2, 8, 28, 90, 165, 161, 88, 165, 90, 3, 0.800718
318, 3, wb, attraction, a-b-da, 5, 2, 8, 28, 90, 165, 161, 88, 165, 90, 2, 0.255746
318, 3, wb, attraction, a-b-db, 14, 1, 8, 29, 60, 135, 135, 60, 56, 125, 1, 0.611707
318, 3, wb, attraction, a-b-db, 14, 1, 8, 29, 60, 135, 135, 60, 56, 125, 2, 0.258048
318, 3, wb, attraction, a-b-da, 9, 3, 8, 30, 186, 114, 120, 195, 195, 120, 1, 0.493294
318, 3, wb, attraction, a-b-da, 9, 3, 8, 30, 186, 114, 120, 195, 195, 120, 2, 0.176413
318, 3, wb, filler, NA, 999, 999, 8, 31, 83, 78, 139, 139, 125, 172, 1, 0.590915
318, 3, wb, filler, NA, 999, 999, 8, 31, 83, 78, 139, 139, 125, 172, 3, 2.68625
318, 3, wb, catch, NA, 999, 999, 8, 32, 144, 111, 120, 75, 193, 122, 2, 0.6558
318, 3, wb, catch, NA, 999, 999, 8, 32, 144, 111, 120, 75, 193, 122, 3, 0.156264
318, 3, wb, attraction, a-b-da, 9, 2, 8, 33, 157, 86, 90, 165, 165, 90, 1, 1.20433
318, 3, wb, attraction, a-b-da, 9, 2, 8, 33, 157, 86, 90, 165, 165, 90, 2, 0.347147
318, 3, wb, catch, NA, 999, 999, 8, 34, 176, 139, 133, 122, 102, 93, 3, 0.602974
318, 3, wb, catch, NA, 999, 999, 8, 34, 176, 139, 133, 122, 102, 93, 1, 0.314099
318, 3, wb, attraction, a-b-db, 9, 3, 8, 35, 120, 195, 195, 120, 114, 186, 3, 0.891276
318, 3, wb, attraction, a-b-db, 9, 3, 8, 35, 120, 195, 195, 120, 114, 186, 2, 0.206362
318, 3, wb, attraction, a-b-db, 5, 1, 8, 36, 135, 60, 58, 132, 60, 135, 3, 1.82023
318, 3, wb, attraction, a-b-db, 5, 1, 8, 36, 135, 60, 58, 132, 60, 135, 1, 0.466276
318, 3, wb, attraction, a-b-db, 2, 3, 8, 37, 120, 195, 119, 193, 195, 120, 1, 2.75746
318, 3, wb, attraction, a-b-db, 2, 3, 8, 37, 120, 195, 119, 193, 195, 120, 2, 0.165107
