sub_n, computer_n, bw_cond, effect, set, distance, diag, block_n, trial_n, h1, w1, h2, w2, h3, w3, choice, rt 
368, 3, wb, practice, NA, 999, 999, 0, 1, 88, 135, 102, 57, 148, 114, 2, 4.00832
368, 3, wb, practice, NA, 999, 999, 0, 1, 88, 135, 102, 57, 148, 114, 3, 2.68702
368, 3, wb, practice, NA, 999, 999, 0, 2, 127, 119, 133, 123, 125, 185, 1, 1.82775
368, 3, wb, practice, NA, 999, 999, 0, 2, 127, 119, 133, 123, 125, 185, 3, 1.06473
368, 3, wb, practice, NA, 999, 999, 0, 3, 188, 82, 68, 58, 91, 148, 2, 1.48907
368, 3, wb, practice, NA, 999, 999, 0, 3, 188, 82, 68, 58, 91, 148, 1, 0.99713
368, 3, wb, attraction, a-b-da, 5, 2, 1, 1, 90, 165, 161, 88, 165, 90, 2, 3.35811
368, 3, wb, attraction, a-b-da, 5, 2, 1, 1, 90, 165, 161, 88, 165, 90, 1, 1.02979
368, 3, wb, attraction, a-b-da, 9, 2, 1, 2, 157, 86, 90, 165, 165, 90, 1, 4.61812
368, 3, wb, attraction, a-b-da, 9, 2, 1, 2, 157, 86, 90, 165, 165, 90, 2, 1.04729
368, 3, wb, filler, NA, 999, 999, 1, 3, 74, 71, 105, 184, 153, 147, 1, 1.42692
368, 3, wb, filler, NA, 999, 999, 1, 3, 74, 71, 105, 184, 153, 147, 3, 5.92052
368, 3, wb, catch, NA, 999, 999, 1, 4, 157, 98, 166, 149, 133, 62, 3, 1.84787
368, 3, wb, catch, NA, 999, 999, 1, 4, 157, 98, 166, 149, 133, 62, 2, 0.572694
368, 3, wb, attraction, a-b-db, 14, 3, 1, 5, 120, 195, 195, 120, 111, 181, 3, 9.07572
368, 3, wb, attraction, a-b-db, 14, 3, 1, 5, 120, 195, 195, 120, 111, 181, 1, 0.844744
368, 3, wb, catch, NA, 999, 999, 1, 6, 144, 171, 99, 156, 81, 114, 3, 1.52851
368, 3, wb, catch, NA, 999, 999, 1, 6, 144, 171, 99, 156, 81, 114, 1, 0.633984
368, 3, wb, attraction, a-b-db, 2, 1, 1, 7, 59, 134, 60, 135, 135, 60, 3, 5.20637
368, 3, wb, attraction, a-b-db, 2, 1, 1, 7, 59, 134, 60, 135, 135, 60, 2, 0.459408
368, 3, wb, attraction, a-b-da, 2, 3, 1, 8, 195, 120, 120, 195, 193, 119, 3, 4.59059
368, 3, wb, attraction, a-b-da, 2, 3, 1, 8, 195, 120, 120, 195, 193, 119, 2, 0.524361
368, 3, wb, catch, NA, 999, 999, 1, 9, 175, 140, 63, 132, 148, 107, 2, 1.22878
368, 3, wb, catch, NA, 999, 999, 1, 9, 175, 140, 63, 132, 148, 107, 1, 0.474348
368, 3, wb, attraction, a-b-da, 9, 3, 1, 10, 186, 114, 120, 195, 195, 120, 1, 1.3168
368, 3, wb, attraction, a-b-da, 9, 3, 1, 10, 186, 114, 120, 195, 195, 120, 2, 0.511093
368, 3, wb, attraction, a-b-db, 14, 1, 1, 11, 60, 135, 135, 60, 56, 125, 3, 2.06422
368, 3, wb, attraction, a-b-db, 14, 1, 1, 11, 60, 135, 135, 60, 56, 125, 1, 0.956209
368, 3, wb, attraction, a-b-db, 2, 2, 1, 12, 165, 90, 89, 163, 90, 165, 1, 1.33186
368, 3, wb, attraction, a-b-db, 2, 2, 1, 12, 165, 90, 89, 163, 90, 165, 2, 0.461483
368, 3, wb, filler, NA, 999, 999, 1, 13, 96, 171, 171, 83, 165, 73, 3, 2.84064
368, 3, wb, filler, NA, 999, 999, 1, 13, 96, 171, 171, 83, 165, 73, 1, 1.50896
368, 3, wb, filler, NA, 999, 999, 1, 14, 169, 159, 104, 145, 79, 125, 3, 1.38973
368, 3, wb, filler, NA, 999, 999, 1, 14, 169, 159, 104, 145, 79, 125, 1, 0.972613
368, 3, wb, attraction, a-b-db, 9, 1, 1, 15, 135, 60, 57, 129, 60, 135, 2, 2.42758
368, 3, wb, attraction, a-b-db, 9, 1, 1, 15, 135, 60, 57, 129, 60, 135, 3, 2.08881
368, 3, wb, attraction, a-b-da, 14, 1, 1, 16, 60, 135, 135, 60, 125, 56, 3, 7.9868
368, 3, wb, attraction, a-b-da, 14, 1, 1, 16, 60, 135, 135, 60, 125, 56, 1, 1.04029
368, 3, wb, attraction, a-b-da, 14, 2, 1, 17, 153, 83, 90, 165, 165, 90, 1, 2.00382
368, 3, wb, attraction, a-b-da, 14, 2, 1, 17, 153, 83, 90, 165, 165, 90, 2, 0.482549
368, 3, wb, filler, NA, 999, 999, 1, 18, 188, 84, 112, 161, 163, 124, 1, 4.59705
368, 3, wb, filler, NA, 999, 999, 1, 18, 188, 84, 112, 161, 163, 124, 3, 3.88283
368, 3, wb, filler, NA, 999, 999, 1, 19, 65, 160, 114, 159, 131, 149, 1, 1.5723
368, 3, wb, filler, NA, 999, 999, 1, 19, 65, 160, 114, 159, 131, 149, 3, 0.547801
368, 3, wb, filler, NA, 999, 999, 1, 20, 133, 120, 162, 194, 89, 144, 3, 1.59552
368, 3, wb, filler, NA, 999, 999, 1, 20, 133, 120, 162, 194, 89, 144, 2, 0.586319
368, 3, wb, attraction, a-b-da, 2, 1, 1, 21, 134, 59, 60, 135, 135, 60, 1, 3.96878
368, 3, wb, attraction, a-b-da, 2, 1, 1, 21, 134, 59, 60, 135, 135, 60, 2, 0.672253
368, 3, wb, filler, NA, 999, 999, 1, 22, 70, 195, 163, 112, 78, 72, 3, 1.16324
368, 3, wb, filler, NA, 999, 999, 1, 22, 70, 195, 163, 112, 78, 72, 2, 0.499544
368, 3, wb, attraction, a-b-da, 2, 2, 1, 23, 163, 89, 165, 90, 90, 165, 2, 6.1572
368, 3, wb, attraction, a-b-da, 2, 2, 1, 23, 163, 89, 165, 90, 90, 165, 3, 0.763957
368, 3, wb, attraction, a-b-db, 14, 2, 1, 24, 165, 90, 90, 165, 83, 153, 1, 3.54706
368, 3, wb, attraction, a-b-db, 14, 2, 1, 24, 165, 90, 90, 165, 83, 153, 2, 1.40325
368, 3, wb, attraction, a-b-da, 9, 1, 1, 25, 135, 60, 129, 57, 60, 135, 2, 2.60875
368, 3, wb, attraction, a-b-da, 9, 1, 1, 25, 135, 60, 129, 57, 60, 135, 3, 0.862502
368, 3, wb, attraction, a-b-db, 5, 1, 1, 26, 58, 132, 60, 135, 135, 60, 3, 3.28158
368, 3, wb, attraction, a-b-db, 5, 1, 1, 26, 58, 132, 60, 135, 135, 60, 1, 0.820549
368, 3, wb, attraction, a-b-db, 9, 2, 1, 27, 86, 157, 165, 90, 90, 165, 2, 4.24147
368, 3, wb, attraction, a-b-db, 9, 2, 1, 27, 86, 157, 165, 90, 90, 165, 3, 0.565458
368, 3, wb, filler, NA, 999, 999, 1, 28, 160, 68, 90, 74, 164, 166, 2, 0.91672
368, 3, wb, filler, NA, 999, 999, 1, 28, 160, 68, 90, 74, 164, 166, 3, 0.487085
368, 3, wb, attraction, a-b-da, 5, 1, 1, 29, 132, 58, 135, 60, 60, 135, 2, 2.68936
368, 3, wb, attraction, a-b-da, 5, 1, 1, 29, 132, 58, 135, 60, 60, 135, 3, 1.31605
368, 3, wb, attraction, a-b-db, 5, 3, 1, 30, 117, 190, 120, 195, 195, 120, 1, 2.9408
368, 3, wb, attraction, a-b-db, 5, 3, 1, 30, 117, 190, 120, 195, 195, 120, 3, 0.893188
368, 3, wb, attraction, a-b-da, 5, 3, 1, 31, 195, 120, 120, 195, 190, 117, 3, 5.13481
368, 3, wb, attraction, a-b-da, 5, 3, 1, 31, 195, 120, 120, 195, 190, 117, 2, 0.455118
368, 3, wb, filler, NA, 999, 999, 1, 32, 175, 185, 73, 111, 148, 69, 2, 1.25888
368, 3, wb, filler, NA, 999, 999, 1, 32, 175, 185, 73, 111, 148, 69, 1, 0.383198
368, 3, wb, attraction, a-b-db, 9, 3, 1, 33, 114, 186, 195, 120, 120, 195, 1, 3.62969
368, 3, wb, attraction, a-b-db, 9, 3, 1, 33, 114, 186, 195, 120, 120, 195, 3, 1.28259
368, 3, wb, filler, NA, 999, 999, 1, 34, 69, 188, 59, 160, 88, 139, 2, 3.05269
368, 3, wb, filler, NA, 999, 999, 1, 34, 69, 188, 59, 160, 88, 139, 3, 0.601259
368, 3, wb, attraction, a-b-db, 5, 2, 1, 35, 88, 161, 90, 165, 165, 90, 3, 2.19886
368, 3, wb, attraction, a-b-db, 5, 2, 1, 35, 88, 161, 90, 165, 165, 90, 2, 0.661447
368, 3, wb, attraction, a-b-db, 2, 3, 1, 36, 119, 193, 120, 195, 195, 120, 3, 6.12057
368, 3, wb, attraction, a-b-db, 2, 3, 1, 36, 119, 193, 120, 195, 195, 120, 2, 1.58527
368, 3, wb, attraction, a-b-da, 14, 3, 1, 37, 195, 120, 181, 111, 120, 195, 1, 2.46333
368, 3, wb, attraction, a-b-da, 14, 3, 1, 37, 195, 120, 181, 111, 120, 195, 3, 0.54725
368, 3, wb, attraction, a-b-db, 9, 3, 2, 1, 114, 186, 195, 120, 120, 195, 1, 2.48313
368, 3, wb, attraction, a-b-db, 9, 3, 2, 1, 114, 186, 195, 120, 120, 195, 2, 2.79836
368, 3, wb, filler, NA, 999, 999, 2, 2, 105, 84, 183, 185, 163, 177, 1, 0.81928
368, 3, wb, filler, NA, 999, 999, 2, 2, 105, 84, 183, 185, 163, 177, 2, 0.841675
368, 3, wb, filler, NA, 999, 999, 2, 3, 90, 59, 90, 116, 91, 146, 1, 1.14138
368, 3, wb, filler, NA, 999, 999, 2, 3, 90, 59, 90, 116, 91, 146, 3, 0.446278
368, 3, wb, attraction, a-b-db, 14, 1, 2, 4, 60, 135, 135, 60, 56, 125, 3, 3.17031
368, 3, wb, attraction, a-b-db, 14, 1, 2, 4, 60, 135, 135, 60, 56, 125, 1, 0.569745
368, 3, wb, attraction, a-b-da, 14, 2, 2, 5, 90, 165, 165, 90, 153, 83, 3, 2.36083
368, 3, wb, attraction, a-b-da, 14, 2, 2, 5, 90, 165, 165, 90, 153, 83, 1, 0.40068
368, 3, wb, filler, NA, 999, 999, 2, 6, 80, 72, 77, 173, 72, 159, 1, 0.726608
368, 3, wb, filler, NA, 999, 999, 2, 6, 80, 72, 77, 173, 72, 159, 2, 1.0483
368, 3, wb, attraction, a-b-da, 2, 3, 2, 7, 195, 120, 120, 195, 193, 119, 3, 4.71593
368, 3, wb, attraction, a-b-da, 2, 3, 2, 7, 195, 120, 120, 195, 193, 119, 2, 0.52511
368, 3, wb, attraction, a-b-db, 14, 3, 2, 8, 195, 120, 120, 195, 111, 181, 1, 3.59759
368, 3, wb, attraction, a-b-db, 14, 3, 2, 8, 195, 120, 120, 195, 111, 181, 3, 1.40366
368, 3, wb, attraction, a-b-da, 2, 2, 2, 9, 90, 165, 163, 89, 165, 90, 3, 2.04923
368, 3, wb, attraction, a-b-da, 2, 2, 2, 9, 90, 165, 163, 89, 165, 90, 1, 1.04593
368, 3, wb, catch, NA, 999, 999, 2, 10, 109, 86, 153, 102, 122, 193, 1, 0.889509
368, 3, wb, catch, NA, 999, 999, 2, 10, 109, 86, 153, 102, 122, 193, 3, 0.396577
368, 3, wb, attraction, a-b-db, 9, 1, 2, 11, 135, 60, 57, 129, 60, 135, 2, 2.9223
368, 3, wb, attraction, a-b-db, 9, 1, 2, 11, 135, 60, 57, 129, 60, 135, 1, 1.46754
368, 3, wb, filler, NA, 999, 999, 2, 12, 85, 185, 178, 155, 119, 145, 1, 5.89423
368, 3, wb, filler, NA, 999, 999, 2, 12, 85, 185, 178, 155, 119, 145, 2, 0.455736
368, 3, wb, attraction, a-b-db, 5, 1, 2, 13, 60, 135, 135, 60, 58, 132, 2, 8.58745
368, 3, wb, attraction, a-b-db, 5, 1, 2, 13, 60, 135, 135, 60, 58, 132, 1, 1.20075
368, 3, wb, attraction, a-b-da, 9, 1, 2, 14, 60, 135, 135, 60, 129, 57, 2, 4.60635
368, 3, wb, attraction, a-b-da, 9, 1, 2, 14, 60, 135, 135, 60, 129, 57, 1, 1.59557
368, 3, wb, filler, NA, 999, 999, 2, 15, 75, 60, 71, 69, 102, 128, 2, 2.7531
368, 3, wb, filler, NA, 999, 999, 2, 15, 75, 60, 71, 69, 102, 128, 3, 0.433487
368, 3, wb, attraction, a-b-da, 14, 3, 2, 16, 195, 120, 120, 195, 181, 111, 3, 1.90194
368, 3, wb, attraction, a-b-da, 14, 3, 2, 16, 195, 120, 120, 195, 181, 111, 2, 0.528667
368, 3, wb, attraction, a-b-db, 2, 3, 2, 17, 195, 120, 119, 193, 120, 195, 1, 2.98505
368, 3, wb, attraction, a-b-db, 2, 3, 2, 17, 195, 120, 119, 193, 120, 195, 3, 2.08819
368, 3, wb, filler, NA, 999, 999, 2, 18, 62, 100, 170, 134, 146, 108, 1, 0.690126
368, 3, wb, filler, NA, 999, 999, 2, 18, 62, 100, 170, 134, 146, 108, 2, 0.645244
368, 3, wb, attraction, a-b-db, 9, 2, 2, 19, 86, 157, 165, 90, 90, 165, 1, 3.96091
368, 3, wb, attraction, a-b-db, 9, 2, 2, 19, 86, 157, 165, 90, 90, 165, 2, 2.73629
368, 3, wb, attraction, a-b-da, 5, 3, 2, 20, 195, 120, 190, 117, 120, 195, 2, 3.68004
368, 3, wb, attraction, a-b-da, 5, 3, 2, 20, 195, 120, 190, 117, 120, 195, 3, 0.770886
368, 3, wb, attraction, a-b-da, 9, 2, 2, 21, 90, 165, 165, 90, 157, 86, 3, 3.55392
368, 3, wb, attraction, a-b-da, 9, 2, 2, 21, 90, 165, 165, 90, 157, 86, 1, 0.426157
368, 3, wb, filler, NA, 999, 999, 2, 22, 192, 119, 112, 125, 98, 123, 3, 6.39862
368, 3, wb, filler, NA, 999, 999, 2, 22, 192, 119, 112, 125, 98, 123, 1, 0.427841
368, 3, wb, filler, NA, 999, 999, 2, 23, 84, 157, 66, 70, 119, 137, 2, 1.20845
368, 3, wb, filler, NA, 999, 999, 2, 23, 84, 157, 66, 70, 119, 137, 1, 3.27871
368, 3, wb, attraction, a-b-da, 9, 3, 2, 24, 186, 114, 120, 195, 195, 120, 1, 5.60028
368, 3, wb, attraction, a-b-da, 9, 3, 2, 24, 186, 114, 120, 195, 195, 120, 2, 0.453896
368, 3, wb, attraction, a-b-da, 5, 1, 2, 25, 135, 60, 132, 58, 60, 135, 2, 4.72163
368, 3, wb, attraction, a-b-da, 5, 1, 2, 25, 135, 60, 132, 58, 60, 135, 3, 0.530845
368, 3, wb, catch, NA, 999, 999, 2, 26, 91, 104, 91, 164, 136, 179, 1, 2.33926
368, 3, wb, catch, NA, 999, 999, 2, 26, 91, 104, 91, 164, 136, 179, 3, 0.395893
368, 3, wb, attraction, a-b-da, 2, 1, 2, 27, 135, 60, 134, 59, 60, 135, 3, 1.72158
368, 3, wb, attraction, a-b-da, 2, 1, 2, 27, 135, 60, 134, 59, 60, 135, 1, 1.99509
368, 3, wb, catch, NA, 999, 999, 2, 28, 60, 135, 119, 136, 148, 167, 1, 1.65633
368, 3, wb, catch, NA, 999, 999, 2, 28, 60, 135, 119, 136, 148, 167, 3, 0.70043
368, 3, wb, attraction, a-b-db, 5, 2, 2, 29, 165, 90, 88, 161, 90, 165, 1, 2.15023
368, 3, wb, attraction, a-b-db, 5, 2, 2, 29, 165, 90, 88, 161, 90, 165, 3, 1.29482
368, 3, wb, attraction, a-b-db, 14, 2, 2, 30, 165, 90, 83, 153, 90, 165, 1, 1.20829
368, 3, wb, attraction, a-b-db, 14, 2, 2, 30, 165, 90, 83, 153, 90, 165, 3, 0.678741
368, 3, wb, attraction, a-b-da, 14, 1, 2, 31, 135, 60, 125, 56, 60, 135, 2, 6.897
368, 3, wb, attraction, a-b-da, 14, 1, 2, 31, 135, 60, 125, 56, 60, 135, 3, 0.466191
368, 3, wb, attraction, a-b-db, 2, 2, 2, 32, 90, 165, 165, 90, 89, 163, 2, 3.17331
368, 3, wb, attraction, a-b-db, 2, 2, 2, 32, 90, 165, 165, 90, 89, 163, 3, 2.52423
368, 3, wb, attraction, a-b-da, 5, 2, 2, 33, 161, 88, 165, 90, 90, 165, 2, 9.42802
368, 3, wb, attraction, a-b-da, 5, 2, 2, 33, 161, 88, 165, 90, 90, 165, 3, 0.711133
368, 3, wb, attraction, a-b-db, 5, 3, 2, 34, 117, 190, 120, 195, 195, 120, 3, 5.34421
368, 3, wb, attraction, a-b-db, 5, 3, 2, 34, 117, 190, 120, 195, 195, 120, 2, 0.399807
368, 3, wb, attraction, a-b-db, 2, 1, 2, 35, 59, 134, 135, 60, 60, 135, 2, 5.23772
368, 3, wb, attraction, a-b-db, 2, 1, 2, 35, 59, 134, 135, 60, 60, 135, 3, 1.33798
368, 3, wb, filler, NA, 999, 999, 2, 36, 77, 163, 129, 69, 193, 82, 2, 2.70618
368, 3, wb, filler, NA, 999, 999, 2, 36, 77, 163, 129, 69, 193, 82, 3, 0.619987
368, 3, wb, filler, NA, 999, 999, 2, 37, 163, 139, 60, 170, 175, 176, 2, 1.11301
368, 3, wb, filler, NA, 999, 999, 2, 37, 163, 139, 60, 170, 175, 176, 3, 0.515286
368, 3, wb, attraction, a-b-db, 5, 1, 3, 1, 60, 135, 135, 60, 58, 132, 2, 5.31639
368, 3, wb, attraction, a-b-db, 5, 1, 3, 1, 60, 135, 135, 60, 58, 132, 3, 0.7894
368, 3, wb, filler, NA, 999, 999, 3, 2, 182, 174, 166, 167, 184, 112, 3, 1.46773
368, 3, wb, filler, NA, 999, 999, 3, 2, 182, 174, 166, 167, 184, 112, 1, 1.12791
368, 3, wb, attraction, a-b-da, 14, 2, 3, 3, 165, 90, 153, 83, 90, 165, 2, 4.82429
368, 3, wb, attraction, a-b-da, 14, 2, 3, 3, 165, 90, 153, 83, 90, 165, 3, 0.43671
368, 3, wb, attraction, a-b-da, 9, 3, 3, 4, 195, 120, 186, 114, 120, 195, 2, 2.96907
368, 3, wb, attraction, a-b-da, 9, 3, 3, 4, 195, 120, 186, 114, 120, 195, 1, 1.38486
368, 3, wb, filler, NA, 999, 999, 3, 5, 88, 180, 184, 129, 166, 61, 3, 1.14295
368, 3, wb, filler, NA, 999, 999, 3, 5, 88, 180, 184, 129, 166, 61, 2, 0.511971
368, 3, wb, catch, NA, 999, 999, 3, 6, 139, 116, 135, 180, 73, 122, 3, 1.96911
368, 3, wb, catch, NA, 999, 999, 3, 6, 139, 116, 135, 180, 73, 122, 2, 0.537085
368, 3, wb, filler, NA, 999, 999, 3, 7, 129, 109, 128, 149, 74, 184, 1, 2.55347
368, 3, wb, filler, NA, 999, 999, 3, 7, 129, 109, 128, 149, 74, 184, 2, 1.10607
368, 3, wb, attraction, a-b-db, 14, 1, 3, 8, 135, 60, 56, 125, 60, 135, 2, 3.2917
368, 3, wb, attraction, a-b-db, 14, 1, 3, 8, 135, 60, 56, 125, 60, 135, 3, 1.38999
368, 3, wb, filler, NA, 999, 999, 3, 9, 118, 159, 187, 119, 77, 149, 3, 3.28419
368, 3, wb, filler, NA, 999, 999, 3, 9, 118, 159, 187, 119, 77, 149, 1, 0.887076
368, 3, wb, attraction, a-b-db, 14, 2, 3, 10, 83, 153, 165, 90, 90, 165, 2, 2.15335
368, 3, wb, attraction, a-b-db, 14, 2, 3, 10, 83, 153, 165, 90, 90, 165, 3, 0.58611
368, 3, wb, attraction, a-b-da, 14, 1, 3, 11, 60, 135, 125, 56, 135, 60, 2, 2.50446
368, 3, wb, attraction, a-b-da, 14, 1, 3, 11, 60, 135, 125, 56, 135, 60, 1, 0.427021
368, 3, wb, attraction, a-b-da, 2, 1, 3, 12, 135, 60, 60, 135, 134, 59, 1, 3.61546
368, 3, wb, attraction, a-b-da, 2, 1, 3, 12, 135, 60, 60, 135, 134, 59, 2, 0.477031
368, 3, wb, attraction, a-b-db, 5, 3, 3, 13, 120, 195, 195, 120, 117, 190, 2, 4.95139
368, 3, wb, attraction, a-b-db, 5, 3, 3, 13, 120, 195, 195, 120, 117, 190, 3, 4.74324
368, 3, wb, attraction, a-b-db, 2, 2, 3, 14, 90, 165, 89, 163, 165, 90, 3, 2.84564
368, 3, wb, attraction, a-b-db, 2, 2, 3, 14, 90, 165, 89, 163, 165, 90, 1, 0.706085
368, 3, wb, attraction, a-b-da, 2, 2, 3, 15, 163, 89, 90, 165, 165, 90, 3, 12.2918
368, 3, wb, attraction, a-b-da, 2, 2, 3, 15, 163, 89, 90, 165, 165, 90, 2, 0.651253
368, 3, wb, attraction, a-b-da, 5, 2, 3, 16, 90, 165, 165, 90, 161, 88, 3, 2.54299
368, 3, wb, attraction, a-b-da, 5, 2, 3, 16, 90, 165, 165, 90, 161, 88, 1, 0.431514
368, 3, wb, attraction, a-b-da, 9, 2, 3, 17, 165, 90, 90, 165, 157, 86, 3, 2.43603
368, 3, wb, attraction, a-b-da, 9, 2, 3, 17, 165, 90, 90, 165, 157, 86, 2, 0.753248
368, 3, wb, catch, NA, 999, 999, 3, 18, 104, 91, 162, 153, 102, 153, 1, 1.03284
368, 3, wb, catch, NA, 999, 999, 3, 18, 104, 91, 162, 153, 102, 153, 2, 0.526524
368, 3, wb, filler, NA, 999, 999, 3, 19, 138, 63, 133, 62, 90, 184, 2, 4.03097
368, 3, wb, filler, NA, 999, 999, 3, 19, 138, 63, 133, 62, 90, 184, 3, 0.587803
368, 3, wb, attraction, a-b-da, 2, 3, 3, 20, 193, 119, 120, 195, 195, 120, 1, 2.43419
368, 3, wb, attraction, a-b-da, 2, 3, 3, 20, 193, 119, 120, 195, 195, 120, 2, 0.455456
368, 3, wb, filler, NA, 999, 999, 3, 21, 117, 109, 89, 152, 80, 185, 1, 10.6752
368, 3, wb, filler, NA, 999, 999, 3, 21, 117, 109, 89, 152, 80, 185, 3, 0.659732
368, 3, wb, catch, NA, 999, 999, 3, 22, 121, 194, 108, 147, 91, 104, 3, 1.11886
368, 3, wb, catch, NA, 999, 999, 3, 22, 121, 194, 108, 147, 91, 104, 1, 0.713105
368, 3, wb, filler, NA, 999, 999, 3, 23, 163, 185, 67, 123, 118, 127, 2, 0.906183
368, 3, wb, filler, NA, 999, 999, 3, 23, 163, 185, 67, 123, 118, 127, 1, 0.580447
368, 3, wb, attraction, a-b-db, 2, 3, 3, 24, 195, 120, 120, 195, 119, 193, 1, 5.85915
368, 3, wb, attraction, a-b-db, 2, 3, 3, 24, 195, 120, 120, 195, 119, 193, 2, 0.421865
368, 3, wb, attraction, a-b-db, 9, 2, 3, 25, 165, 90, 90, 165, 86, 157, 2, 1.18691
368, 3, wb, attraction, a-b-db, 9, 2, 3, 25, 165, 90, 90, 165, 86, 157, 3, 1.85857
368, 3, wb, attraction, a-b-da, 5, 3, 3, 26, 190, 117, 120, 195, 195, 120, 1, 1.46916
368, 3, wb, attraction, a-b-da, 5, 3, 3, 26, 190, 117, 120, 195, 195, 120, 2, 0.617336
368, 3, wb, attraction, a-b-db, 2, 1, 3, 27, 60, 135, 59, 134, 135, 60, 2, 4.63056
368, 3, wb, attraction, a-b-db, 2, 1, 3, 27, 60, 135, 59, 134, 135, 60, 3, 0.867014
368, 3, wb, attraction, a-b-db, 5, 2, 3, 28, 90, 165, 165, 90, 88, 161, 3, 1.91799
368, 3, wb, attraction, a-b-db, 5, 2, 3, 28, 90, 165, 165, 90, 88, 161, 1, 0.568147
368, 3, wb, attraction, a-b-db, 9, 3, 3, 29, 120, 195, 195, 120, 114, 186, 3, 4.01516
368, 3, wb, attraction, a-b-db, 9, 3, 3, 29, 120, 195, 195, 120, 114, 186, 1, 1.25256
368, 3, wb, filler, NA, 999, 999, 3, 30, 141, 188, 186, 156, 150, 116, 3, 1.18414
368, 3, wb, filler, NA, 999, 999, 3, 30, 141, 188, 186, 156, 150, 116, 1, 0.975955
368, 3, wb, attraction, a-b-da, 9, 1, 3, 31, 135, 60, 129, 57, 60, 135, 2, 2.37404
368, 3, wb, attraction, a-b-da, 9, 1, 3, 31, 135, 60, 129, 57, 60, 135, 3, 1.97329
368, 3, wb, attraction, a-b-da, 5, 1, 3, 32, 135, 60, 132, 58, 60, 135, 2, 2.58792
368, 3, wb, attraction, a-b-da, 5, 1, 3, 32, 135, 60, 132, 58, 60, 135, 3, 1.31511
368, 3, wb, filler, NA, 999, 999, 3, 33, 170, 93, 69, 148, 122, 98, 3, 1.69188
368, 3, wb, filler, NA, 999, 999, 3, 33, 170, 93, 69, 148, 122, 98, 1, 1.87085
368, 3, wb, attraction, a-b-da, 14, 3, 3, 34, 195, 120, 181, 111, 120, 195, 2, 4.78543
368, 3, wb, attraction, a-b-da, 14, 3, 3, 34, 195, 120, 181, 111, 120, 195, 3, 0.399983
368, 3, wb, filler, NA, 999, 999, 3, 35, 156, 74, 89, 112, 82, 68, 3, 1.14173
368, 3, wb, filler, NA, 999, 999, 3, 35, 156, 74, 89, 112, 82, 68, 1, 3.1987
368, 3, wb, attraction, a-b-db, 9, 1, 3, 36, 57, 129, 135, 60, 60, 135, 1, 4.1716
368, 3, wb, attraction, a-b-db, 9, 1, 3, 36, 57, 129, 135, 60, 60, 135, 3, 2.26706
368, 3, wb, attraction, a-b-db, 14, 3, 3, 37, 120, 195, 195, 120, 111, 181, 3, 1.5976
368, 3, wb, attraction, a-b-db, 14, 3, 3, 37, 120, 195, 195, 120, 111, 181, 1, 0.700302
368, 3, wb, attraction, a-b-db, 14, 2, 4, 1, 165, 90, 83, 153, 90, 165, 1, 4.00599
368, 3, wb, attraction, a-b-db, 14, 2, 4, 1, 165, 90, 83, 153, 90, 165, 3, 0.467441
368, 3, wb, attraction, a-b-da, 14, 3, 4, 2, 195, 120, 120, 195, 181, 111, 3, 1.14249
368, 3, wb, attraction, a-b-da, 14, 3, 4, 2, 195, 120, 120, 195, 181, 111, 2, 1.42344
368, 3, wb, attraction, a-b-db, 9, 3, 4, 3, 195, 120, 114, 186, 120, 195, 1, 2.49233
368, 3, wb, attraction, a-b-db, 9, 3, 4, 3, 195, 120, 114, 186, 120, 195, 3, 0.574912
368, 3, wb, attraction, a-b-db, 2, 1, 4, 4, 135, 60, 59, 134, 60, 135, 2, 1.62929
368, 3, wb, attraction, a-b-db, 2, 1, 4, 4, 135, 60, 59, 134, 60, 135, 3, 0.802696
368, 3, wb, filler, NA, 999, 999, 4, 5, 144, 185, 155, 81, 186, 104, 2, 2.92841
368, 3, wb, filler, NA, 999, 999, 4, 5, 144, 185, 155, 81, 186, 104, 1, 0.41749
368, 3, wb, filler, NA, 999, 999, 4, 6, 187, 56, 192, 131, 141, 93, 1, 1.16664
368, 3, wb, filler, NA, 999, 999, 4, 6, 187, 56, 192, 131, 141, 93, 2, 0.438919
368, 3, wb, catch, NA, 999, 999, 4, 7, 142, 113, 143, 172, 76, 119, 3, 0.923428
368, 3, wb, catch, NA, 999, 999, 4, 7, 142, 113, 143, 172, 76, 119, 2, 0.405061
368, 3, wb, attraction, a-b-da, 9, 3, 4, 8, 186, 114, 195, 120, 120, 195, 1, 2.59497
368, 3, wb, attraction, a-b-da, 9, 3, 4, 8, 186, 114, 195, 120, 120, 195, 3, 0.409444
368, 3, wb, catch, NA, 999, 999, 4, 9, 191, 124, 75, 120, 153, 102, 2, 0.966513
368, 3, wb, catch, NA, 999, 999, 4, 9, 191, 124, 75, 120, 153, 102, 1, 0.462958
368, 3, wb, attraction, a-b-da, 14, 1, 4, 10, 125, 56, 135, 60, 60, 135, 1, 1.466
368, 3, wb, attraction, a-b-da, 14, 1, 4, 10, 125, 56, 135, 60, 60, 135, 3, 0.582232
368, 3, wb, attraction, a-b-db, 14, 1, 4, 11, 135, 60, 60, 135, 56, 125, 3, 4.69259
368, 3, wb, attraction, a-b-db, 14, 1, 4, 11, 135, 60, 60, 135, 56, 125, 2, 0.454466
368, 3, wb, filler, NA, 999, 999, 4, 12, 63, 124, 145, 58, 153, 93, 2, 2.07421
368, 3, wb, filler, NA, 999, 999, 4, 12, 63, 124, 145, 58, 153, 93, 3, 0.413666
368, 3, wb, attraction, a-b-da, 2, 3, 4, 13, 120, 195, 193, 119, 195, 120, 3, 1.60273
368, 3, wb, attraction, a-b-da, 2, 3, 4, 13, 120, 195, 193, 119, 195, 120, 1, 0.409481
368, 3, wb, filler, NA, 999, 999, 4, 14, 109, 184, 57, 123, 80, 103, 3, 1.35865
368, 3, wb, filler, NA, 999, 999, 4, 14, 109, 184, 57, 123, 80, 103, 1, 0.44687
368, 3, wb, attraction, a-b-da, 9, 1, 4, 15, 129, 57, 135, 60, 60, 135, 2, 2.83468
368, 3, wb, attraction, a-b-da, 9, 1, 4, 15, 129, 57, 135, 60, 60, 135, 3, 0.391769
368, 3, wb, filler, NA, 999, 999, 4, 16, 136, 69, 141, 132, 128, 60, 3, 1.57364
368, 3, wb, filler, NA, 999, 999, 4, 16, 136, 69, 141, 132, 128, 60, 2, 0.485125
368, 3, wb, filler, NA, 999, 999, 4, 17, 91, 61, 78, 156, 152, 146, 1, 1.14361
368, 3, wb, filler, NA, 999, 999, 4, 17, 91, 61, 78, 156, 152, 146, 3, 0.60854
368, 3, wb, attraction, a-b-da, 5, 3, 4, 18, 195, 120, 190, 117, 120, 195, 1, 3.53367
368, 3, wb, attraction, a-b-da, 5, 3, 4, 18, 195, 120, 190, 117, 120, 195, 3, 0.382442
368, 3, wb, attraction, a-b-da, 14, 2, 4, 19, 153, 83, 90, 165, 165, 90, 1, 0.684898
368, 3, wb, attraction, a-b-da, 14, 2, 4, 19, 153, 83, 90, 165, 165, 90, 3, 0.448756
368, 3, wb, attraction, a-b-db, 5, 3, 4, 20, 195, 120, 117, 190, 120, 195, 2, 2.67646
368, 3, wb, attraction, a-b-db, 5, 3, 4, 20, 195, 120, 117, 190, 120, 195, 1, 0.431594
368, 3, wb, attraction, a-b-db, 2, 3, 4, 21, 195, 120, 120, 195, 119, 193, 1, 1.32419
368, 3, wb, attraction, a-b-db, 2, 3, 4, 21, 195, 120, 120, 195, 119, 193, 3, 0.965708
368, 3, wb, attraction, a-b-da, 2, 2, 4, 22, 90, 165, 165, 90, 163, 89, 2, 2.12466
368, 3, wb, attraction, a-b-da, 2, 2, 4, 22, 90, 165, 165, 90, 163, 89, 1, 0.517959
368, 3, wb, attraction, a-b-db, 5, 2, 4, 23, 88, 161, 90, 165, 165, 90, 3, 1.66307
368, 3, wb, attraction, a-b-db, 5, 2, 4, 23, 88, 161, 90, 165, 165, 90, 1, 1.57929
368, 3, wb, attraction, a-b-db, 14, 3, 4, 24, 111, 181, 120, 195, 195, 120, 3, 2.2894
368, 3, wb, attraction, a-b-db, 14, 3, 4, 24, 111, 181, 120, 195, 195, 120, 2, 0.723854
368, 3, wb, attraction, a-b-da, 2, 1, 4, 25, 135, 60, 60, 135, 134, 59, 1, 3.5002
368, 3, wb, attraction, a-b-da, 2, 1, 4, 25, 135, 60, 60, 135, 134, 59, 2, 0.430565
368, 3, wb, attraction, a-b-db, 2, 2, 4, 26, 165, 90, 90, 165, 89, 163, 1, 3.66692
368, 3, wb, attraction, a-b-db, 2, 2, 4, 26, 165, 90, 90, 165, 89, 163, 2, 2.93445
368, 3, wb, attraction, a-b-db, 9, 1, 4, 27, 60, 135, 135, 60, 57, 129, 1, 2.71009
368, 3, wb, attraction, a-b-db, 9, 1, 4, 27, 60, 135, 135, 60, 57, 129, 2, 2.70386
368, 3, wb, attraction, a-b-db, 5, 1, 4, 28, 58, 132, 135, 60, 60, 135, 1, 4.99303
368, 3, wb, attraction, a-b-db, 5, 1, 4, 28, 58, 132, 135, 60, 60, 135, 3, 0.558747
368, 3, wb, attraction, a-b-db, 9, 2, 4, 29, 86, 157, 165, 90, 90, 165, 3, 1.58994
368, 3, wb, attraction, a-b-db, 9, 2, 4, 29, 86, 157, 165, 90, 90, 165, 2, 0.500636
368, 3, wb, filler, NA, 999, 999, 4, 30, 74, 105, 166, 168, 129, 80, 1, 1.65452
368, 3, wb, filler, NA, 999, 999, 4, 30, 74, 105, 166, 168, 129, 80, 2, 0.322697
368, 3, wb, attraction, a-b-da, 5, 2, 4, 31, 165, 90, 161, 88, 90, 165, 2, 2.67577
368, 3, wb, attraction, a-b-da, 5, 2, 4, 31, 165, 90, 161, 88, 90, 165, 1, 1.07882
368, 3, wb, attraction, a-b-da, 5, 1, 4, 32, 60, 135, 135, 60, 132, 58, 2, 2.29719
368, 3, wb, attraction, a-b-da, 5, 1, 4, 32, 60, 135, 135, 60, 132, 58, 1, 0.603786
368, 3, wb, catch, NA, 999, 999, 4, 33, 112, 83, 132, 183, 160, 95, 1, 1.12149
368, 3, wb, catch, NA, 999, 999, 4, 33, 112, 83, 132, 183, 160, 95, 2, 0.499085
368, 3, wb, filler, NA, 999, 999, 4, 34, 177, 73, 134, 81, 187, 91, 2, 1.18896
368, 3, wb, filler, NA, 999, 999, 4, 34, 177, 73, 134, 81, 187, 91, 3, 0.69188
368, 3, wb, filler, NA, 999, 999, 4, 35, 105, 85, 66, 177, 65, 169, 1, 0.925542
368, 3, wb, filler, NA, 999, 999, 4, 35, 105, 85, 66, 177, 65, 169, 2, 0.463302
368, 3, wb, attraction, a-b-da, 9, 2, 4, 36, 90, 165, 157, 86, 165, 90, 3, 2.6183
368, 3, wb, attraction, a-b-da, 9, 2, 4, 36, 90, 165, 157, 86, 165, 90, 1, 0.592201
368, 3, wb, filler, NA, 999, 999, 4, 37, 119, 166, 159, 103, 159, 132, 2, 2.02995
368, 3, wb, filler, NA, 999, 999, 4, 37, 119, 166, 159, 103, 159, 132, 1, 0.435367
368, 3, wb, attraction, a-b-da, 9, 3, 5, 1, 195, 120, 186, 114, 120, 195, 2, 2.56633
368, 3, wb, attraction, a-b-da, 9, 3, 5, 1, 195, 120, 186, 114, 120, 195, 3, 0.534276
368, 3, wb, attraction, a-b-db, 2, 1, 5, 2, 59, 134, 135, 60, 60, 135, 2, 1.21463
368, 3, wb, attraction, a-b-db, 2, 1, 5, 2, 59, 134, 135, 60, 60, 135, 3, 0.748919
368, 3, wb, attraction, a-b-db, 2, 2, 5, 3, 89, 163, 165, 90, 90, 165, 2, 1.74065
368, 3, wb, attraction, a-b-db, 2, 2, 5, 3, 89, 163, 165, 90, 90, 165, 1, 0.453388
368, 3, wb, filler, NA, 999, 999, 5, 4, 77, 179, 127, 127, 97, 83, 3, 0.745122
368, 3, wb, filler, NA, 999, 999, 5, 4, 77, 179, 127, 127, 97, 83, 2, 0.450388
368, 3, wb, attraction, a-b-da, 9, 2, 5, 5, 157, 86, 165, 90, 90, 165, 1, 0.733998
368, 3, wb, attraction, a-b-da, 9, 2, 5, 5, 157, 86, 165, 90, 90, 165, 3, 0.375849
368, 3, wb, filler, NA, 999, 999, 5, 6, 182, 100, 59, 138, 136, 104, 2, 0.766303
368, 3, wb, filler, NA, 999, 999, 5, 6, 182, 100, 59, 138, 136, 104, 1, 0.406671
368, 3, wb, attraction, a-b-da, 5, 3, 5, 7, 120, 195, 190, 117, 195, 120, 2, 1.26785
368, 3, wb, attraction, a-b-da, 5, 3, 5, 7, 120, 195, 190, 117, 195, 120, 1, 0.424167
368, 3, wb, attraction, a-b-da, 9, 1, 5, 8, 129, 57, 135, 60, 60, 135, 2, 1.10867
368, 3, wb, attraction, a-b-da, 9, 1, 5, 8, 129, 57, 135, 60, 60, 135, 3, 0.575001
368, 3, wb, filler, NA, 999, 999, 5, 9, 114, 127, 186, 194, 166, 66, 3, 1.3493
368, 3, wb, filler, NA, 999, 999, 5, 9, 114, 127, 186, 194, 166, 66, 2, 0.350134
368, 3, wb, attraction, a-b-da, 5, 2, 5, 10, 161, 88, 90, 165, 165, 90, 1, 1.74195
368, 3, wb, attraction, a-b-da, 5, 2, 5, 10, 161, 88, 90, 165, 165, 90, 2, 1.01495
368, 3, wb, filler, NA, 999, 999, 5, 11, 93, 116, 119, 106, 73, 105, 3, 1.10774
368, 3, wb, filler, NA, 999, 999, 5, 11, 93, 116, 119, 106, 73, 105, 2, 0.390086
368, 3, wb, attraction, a-b-da, 2, 2, 5, 12, 165, 90, 163, 89, 90, 165, 2, 2.19577
368, 3, wb, attraction, a-b-da, 2, 2, 5, 12, 165, 90, 163, 89, 90, 165, 3, 0.394442
368, 3, wb, attraction, a-b-db, 9, 1, 5, 13, 60, 135, 135, 60, 57, 129, 2, 1.1283
368, 3, wb, attraction, a-b-db, 9, 1, 5, 13, 60, 135, 135, 60, 57, 129, 1, 0.785877
368, 3, wb, filler, NA, 999, 999, 5, 14, 192, 83, 154, 101, 82, 128, 3, 1.03217
368, 3, wb, filler, NA, 999, 999, 5, 14, 192, 83, 154, 101, 82, 128, 2, 0.845897
368, 3, wb, filler, NA, 999, 999, 5, 15, 152, 123, 125, 120, 97, 82, 3, 1.0656
368, 3, wb, filler, NA, 999, 999, 5, 15, 152, 123, 125, 120, 97, 82, 1, 0.629966
368, 3, wb, attraction, a-b-da, 14, 3, 5, 16, 195, 120, 181, 111, 120, 195, 2, 1.70627
368, 3, wb, attraction, a-b-da, 14, 3, 5, 16, 195, 120, 181, 111, 120, 195, 3, 0.692474
368, 3, wb, attraction, a-b-db, 5, 1, 5, 17, 60, 135, 58, 132, 135, 60, 2, 2.17415
368, 3, wb, attraction, a-b-db, 5, 1, 5, 17, 60, 135, 58, 132, 135, 60, 1, 1.54153
368, 3, wb, attraction, a-b-db, 9, 2, 5, 18, 86, 157, 165, 90, 90, 165, 2, 1.98093
368, 3, wb, attraction, a-b-db, 9, 2, 5, 18, 86, 157, 165, 90, 90, 165, 3, 0.668325
368, 3, wb, attraction, a-b-db, 14, 2, 5, 19, 90, 165, 83, 153, 165, 90, 3, 2.14331
368, 3, wb, attraction, a-b-db, 14, 2, 5, 19, 90, 165, 83, 153, 165, 90, 1, 0.431934
368, 3, wb, attraction, a-b-da, 5, 1, 5, 20, 60, 135, 132, 58, 135, 60, 2, 3.41243
368, 3, wb, attraction, a-b-da, 5, 1, 5, 20, 60, 135, 132, 58, 135, 60, 1, 0.850063
368, 3, wb, attraction, a-b-db, 5, 2, 5, 21, 90, 165, 88, 161, 165, 90, 3, 3.36583
368, 3, wb, attraction, a-b-db, 5, 2, 5, 21, 90, 165, 88, 161, 165, 90, 1, 0.621359
368, 3, wb, catch, NA, 999, 999, 5, 22, 131, 64, 176, 139, 157, 98, 1, 0.906247
368, 3, wb, catch, NA, 999, 999, 5, 22, 131, 64, 176, 139, 157, 98, 2, 0.316626
368, 3, wb, filler, NA, 999, 999, 5, 23, 124, 175, 164, 188, 160, 94, 3, 0.821905
368, 3, wb, filler, NA, 999, 999, 5, 23, 124, 175, 164, 188, 160, 94, 2, 0.395649
368, 3, wb, attraction, a-b-db, 14, 1, 5, 24, 135, 60, 60, 135, 56, 125, 3, 1.50544
368, 3, wb, attraction, a-b-db, 14, 1, 5, 24, 135, 60, 60, 135, 56, 125, 1, 0.779602
368, 3, wb, attraction, a-b-db, 2, 3, 5, 25, 195, 120, 119, 193, 120, 195, 2, 2.65795
368, 3, wb, attraction, a-b-db, 2, 3, 5, 25, 195, 120, 119, 193, 120, 195, 1, 0.63771
368, 3, wb, attraction, a-b-da, 14, 1, 5, 26, 125, 56, 60, 135, 135, 60, 1, 1.73813
368, 3, wb, attraction, a-b-da, 14, 1, 5, 26, 125, 56, 60, 135, 135, 60, 2, 0.81884
368, 3, wb, catch, NA, 999, 999, 5, 27, 123, 192, 132, 123, 86, 109, 3, 1.08004
368, 3, wb, catch, NA, 999, 999, 5, 27, 123, 192, 132, 123, 86, 109, 1, 0.363568
368, 3, wb, attraction, a-b-db, 5, 3, 5, 28, 120, 195, 117, 190, 195, 120, 3, 0.994686
368, 3, wb, attraction, a-b-db, 5, 3, 5, 28, 120, 195, 117, 190, 195, 120, 1, 0.377715
368, 3, wb, filler, NA, 999, 999, 5, 29, 186, 195, 106, 177, 60, 181, 3, 0.680202
368, 3, wb, filler, NA, 999, 999, 5, 29, 186, 195, 106, 177, 60, 181, 1, 0.516029
368, 3, wb, attraction, a-b-da, 2, 3, 5, 30, 193, 119, 195, 120, 120, 195, 2, 5.32508
368, 3, wb, attraction, a-b-da, 2, 3, 5, 30, 193, 119, 195, 120, 120, 195, 3, 0.38153
368, 3, wb, filler, NA, 999, 999, 5, 31, 160, 60, 126, 181, 58, 84, 3, 1.05983
368, 3, wb, filler, NA, 999, 999, 5, 31, 160, 60, 126, 181, 58, 84, 2, 0.368149
368, 3, wb, catch, NA, 999, 999, 5, 32, 133, 122, 171, 144, 64, 131, 3, 0.815309
368, 3, wb, catch, NA, 999, 999, 5, 32, 133, 122, 171, 144, 64, 131, 2, 0.365753
368, 3, wb, attraction, a-b-da, 2, 1, 5, 33, 60, 135, 134, 59, 135, 60, 1, 1.47689
368, 3, wb, attraction, a-b-da, 2, 1, 5, 33, 60, 135, 134, 59, 135, 60, 2, 0.568408
368, 3, wb, attraction, a-b-db, 14, 3, 5, 34, 195, 120, 111, 181, 120, 195, 2, 2.31148
368, 3, wb, attraction, a-b-db, 14, 3, 5, 34, 195, 120, 111, 181, 120, 195, 1, 2.52144
368, 3, wb, attraction, a-b-db, 9, 3, 5, 35, 114, 186, 195, 120, 120, 195, 1, 4.40189
368, 3, wb, attraction, a-b-db, 9, 3, 5, 35, 114, 186, 195, 120, 120, 195, 3, 0.343824
368, 3, wb, attraction, a-b-da, 14, 2, 5, 36, 90, 165, 153, 83, 165, 90, 2, 1.88769
368, 3, wb, attraction, a-b-da, 14, 2, 5, 36, 90, 165, 153, 83, 165, 90, 1, 0.563
368, 3, wb, filler, NA, 999, 999, 5, 37, 168, 160, 186, 148, 75, 113, 3, 0.746156
368, 3, wb, filler, NA, 999, 999, 5, 37, 168, 160, 186, 148, 75, 113, 1, 1.13125
368, 3, wb, attraction, a-b-da, 9, 2, 6, 1, 90, 165, 157, 86, 165, 90, 2, 2.52353
368, 3, wb, attraction, a-b-da, 9, 2, 6, 1, 90, 165, 157, 86, 165, 90, 1, 0.348729
368, 3, wb, catch, NA, 999, 999, 6, 2, 148, 167, 60, 135, 149, 106, 2, 0.748687
368, 3, wb, catch, NA, 999, 999, 6, 2, 148, 167, 60, 135, 149, 106, 1, 0.677601
368, 3, wb, attraction, a-b-db, 14, 2, 6, 3, 83, 153, 165, 90, 90, 165, 2, 1.14402
368, 3, wb, attraction, a-b-db, 14, 2, 6, 3, 83, 153, 165, 90, 90, 165, 3, 0.577066
368, 3, wb, filler, NA, 999, 999, 6, 4, 99, 76, 178, 84, 184, 120, 1, 0.815299
368, 3, wb, filler, NA, 999, 999, 6, 4, 99, 76, 178, 84, 184, 120, 3, 0.661735
368, 3, wb, filler, NA, 999, 999, 6, 5, 111, 68, 76, 122, 60, 174, 1, 4.64083
368, 3, wb, filler, NA, 999, 999, 6, 5, 111, 68, 76, 122, 60, 174, 3, 0.732689
368, 3, wb, filler, NA, 999, 999, 6, 6, 81, 188, 163, 160, 125, 178, 1, 2.43705
368, 3, wb, filler, NA, 999, 999, 6, 6, 81, 188, 163, 160, 125, 178, 2, 0.482274
368, 3, wb, attraction, a-b-da, 5, 3, 6, 7, 120, 195, 195, 120, 190, 117, 3, 2.38068
368, 3, wb, attraction, a-b-da, 5, 3, 6, 7, 120, 195, 195, 120, 190, 117, 1, 0.403888
368, 3, wb, filler, NA, 999, 999, 6, 8, 156, 158, 137, 164, 107, 93, 3, 0.673775
368, 3, wb, filler, NA, 999, 999, 6, 8, 156, 158, 137, 164, 107, 93, 1, 0.709506
368, 3, wb, attraction, a-b-db, 14, 1, 6, 9, 56, 125, 60, 135, 135, 60, 1, 1.29453
368, 3, wb, attraction, a-b-db, 14, 1, 6, 9, 56, 125, 60, 135, 135, 60, 3, 0.641608
368, 3, wb, attraction, a-b-db, 9, 3, 6, 10, 114, 186, 120, 195, 195, 120, 3, 3.98129
368, 3, wb, attraction, a-b-db, 9, 3, 6, 10, 114, 186, 120, 195, 195, 120, 2, 1.17992
368, 3, wb, attraction, a-b-da, 5, 1, 6, 11, 135, 60, 132, 58, 60, 135, 2, 2.29013
368, 3, wb, attraction, a-b-da, 5, 1, 6, 11, 135, 60, 132, 58, 60, 135, 3, 0.404877
368, 3, wb, attraction, a-b-db, 2, 2, 6, 12, 165, 90, 90, 165, 89, 163, 3, 3.23454
368, 3, wb, attraction, a-b-db, 2, 2, 6, 12, 165, 90, 90, 165, 89, 163, 1, 1.07166
368, 3, wb, attraction, a-b-da, 5, 2, 6, 13, 161, 88, 165, 90, 90, 165, 2, 1.72251
368, 3, wb, attraction, a-b-da, 5, 2, 6, 13, 161, 88, 165, 90, 90, 165, 3, 0.443905
368, 3, wb, filler, NA, 999, 999, 6, 14, 192, 83, 138, 94, 104, 131, 2, 0.935727
368, 3, wb, filler, NA, 999, 999, 6, 14, 192, 83, 138, 94, 104, 131, 1, 1.6894
368, 3, wb, attraction, a-b-db, 5, 3, 6, 15, 120, 195, 195, 120, 117, 190, 2, 7.53165
368, 3, wb, attraction, a-b-db, 5, 3, 6, 15, 120, 195, 195, 120, 117, 190, 3, 2.22708
368, 3, wb, attraction, a-b-db, 5, 2, 6, 16, 165, 90, 88, 161, 90, 165, 2, 2.38296
368, 3, wb, attraction, a-b-db, 5, 2, 6, 16, 165, 90, 88, 161, 90, 165, 1, 0.814234
368, 3, wb, attraction, a-b-da, 9, 3, 6, 17, 186, 114, 195, 120, 120, 195, 1, 2.36329
368, 3, wb, attraction, a-b-da, 9, 3, 6, 17, 186, 114, 195, 120, 120, 195, 3, 0.355119
368, 3, wb, filler, NA, 999, 999, 6, 18, 115, 130, 58, 84, 70, 157, 2, 0.67511
368, 3, wb, filler, NA, 999, 999, 6, 18, 115, 130, 58, 84, 70, 157, 1, 0.35085
368, 3, wb, catch, NA, 999, 999, 6, 19, 139, 176, 111, 144, 131, 64, 3, 0.734665
368, 3, wb, catch, NA, 999, 999, 6, 19, 139, 176, 111, 144, 131, 64, 1, 0.480335
368, 3, wb, attraction, a-b-db, 5, 1, 6, 20, 58, 132, 135, 60, 60, 135, 2, 1.48284
368, 3, wb, attraction, a-b-db, 5, 1, 6, 20, 58, 132, 135, 60, 60, 135, 3, 0.390397
368, 3, wb, filler, NA, 999, 999, 6, 21, 94, 60, 174, 195, 145, 145, 1, 0.668117
368, 3, wb, filler, NA, 999, 999, 6, 21, 94, 60, 174, 195, 145, 145, 2, 0.288636
368, 3, wb, filler, NA, 999, 999, 6, 22, 168, 94, 174, 76, 82, 106, 3, 1.44309
368, 3, wb, filler, NA, 999, 999, 6, 22, 168, 94, 174, 76, 82, 106, 1, 0.663952
368, 3, wb, attraction, a-b-da, 14, 3, 6, 23, 195, 120, 120, 195, 181, 111, 1, 1.72296
368, 3, wb, attraction, a-b-da, 14, 3, 6, 23, 195, 120, 120, 195, 181, 111, 2, 0.388417
368, 3, wb, attraction, a-b-da, 2, 3, 6, 24, 195, 120, 193, 119, 120, 195, 1, 3.69101
368, 3, wb, attraction, a-b-da, 2, 3, 6, 24, 195, 120, 193, 119, 120, 195, 3, 0.397142
368, 3, wb, attraction, a-b-da, 14, 1, 6, 25, 125, 56, 135, 60, 60, 135, 1, 1.92296
368, 3, wb, attraction, a-b-da, 14, 1, 6, 25, 125, 56, 135, 60, 60, 135, 3, 0.540211
368, 3, wb, attraction, a-b-db, 2, 1, 6, 26, 135, 60, 59, 134, 60, 135, 1, 2.66002
368, 3, wb, attraction, a-b-db, 2, 1, 6, 26, 135, 60, 59, 134, 60, 135, 3, 0.535855
368, 3, wb, filler, NA, 999, 999, 6, 27, 119, 75, 60, 152, 114, 147, 1, 1.16825
368, 3, wb, filler, NA, 999, 999, 6, 27, 119, 75, 60, 152, 114, 147, 3, 0.720661
368, 3, wb, attraction, a-b-db, 9, 1, 6, 28, 135, 60, 57, 129, 60, 135, 2, 1.84165
368, 3, wb, attraction, a-b-db, 9, 1, 6, 28, 135, 60, 57, 129, 60, 135, 3, 0.366397
368, 3, wb, catch, NA, 999, 999, 6, 29, 135, 60, 148, 167, 142, 113, 1, 0.749681
368, 3, wb, catch, NA, 999, 999, 6, 29, 135, 60, 148, 167, 142, 113, 2, 0.358634
368, 3, wb, attraction, a-b-da, 2, 2, 6, 30, 165, 90, 90, 165, 163, 89, 3, 1.50176
368, 3, wb, attraction, a-b-da, 2, 2, 6, 30, 165, 90, 90, 165, 163, 89, 2, 0.560605
368, 3, wb, attraction, a-b-da, 14, 2, 6, 31, 90, 165, 165, 90, 153, 83, 3, 2.19963
368, 3, wb, attraction, a-b-da, 14, 2, 6, 31, 90, 165, 165, 90, 153, 83, 1, 0.550368
368, 3, wb, attraction, a-b-db, 9, 2, 6, 32, 165, 90, 90, 165, 86, 157, 1, 4.81418
368, 3, wb, attraction, a-b-db, 9, 2, 6, 32, 165, 90, 90, 165, 86, 157, 2, 1.47532
368, 3, wb, attraction, a-b-da, 9, 1, 6, 33, 129, 57, 60, 135, 135, 60, 1, 1.98134
368, 3, wb, attraction, a-b-da, 9, 1, 6, 33, 129, 57, 60, 135, 135, 60, 2, 0.708724
368, 3, wb, filler, NA, 999, 999, 6, 34, 123, 57, 151, 92, 125, 94, 1, 1.20578
368, 3, wb, filler, NA, 999, 999, 6, 34, 123, 57, 151, 92, 125, 94, 2, 0.548118
368, 3, wb, attraction, a-b-db, 14, 3, 6, 35, 111, 181, 195, 120, 120, 195, 1, 2.12376
368, 3, wb, attraction, a-b-db, 14, 3, 6, 35, 111, 181, 195, 120, 120, 195, 3, 0.661266
368, 3, wb, attraction, a-b-db, 2, 3, 6, 36, 120, 195, 195, 120, 119, 193, 2, 1.99212
368, 3, wb, attraction, a-b-db, 2, 3, 6, 36, 120, 195, 195, 120, 119, 193, 1, 0.470816
368, 3, wb, attraction, a-b-da, 2, 1, 6, 37, 134, 59, 60, 135, 135, 60, 1, 1.802
368, 3, wb, attraction, a-b-da, 2, 1, 6, 37, 134, 59, 60, 135, 135, 60, 2, 0.552859
368, 3, wb, attraction, a-b-db, 14, 3, 7, 1, 120, 195, 195, 120, 111, 181, 1, 2.0565
368, 3, wb, attraction, a-b-db, 14, 3, 7, 1, 120, 195, 195, 120, 111, 181, 3, 1.24461
368, 3, wb, attraction, a-b-db, 2, 2, 7, 2, 90, 165, 165, 90, 89, 163, 2, 4.15207
368, 3, wb, attraction, a-b-db, 2, 2, 7, 2, 90, 165, 165, 90, 89, 163, 3, 1.56809
368, 3, wb, attraction, a-b-db, 9, 1, 7, 3, 60, 135, 135, 60, 57, 129, 2, 3.76689
368, 3, wb, attraction, a-b-db, 9, 1, 7, 3, 60, 135, 135, 60, 57, 129, 3, 1.18236
368, 3, wb, filler, NA, 999, 999, 7, 4, 167, 185, 77, 131, 92, 72, 3, 1.10059
368, 3, wb, filler, NA, 999, 999, 7, 4, 167, 185, 77, 131, 92, 72, 1, 0.39153
368, 3, wb, filler, NA, 999, 999, 7, 5, 62, 157, 97, 93, 78, 181, 1, 2.22939
368, 3, wb, filler, NA, 999, 999, 7, 5, 62, 157, 97, 93, 78, 181, 3, 0.458649
368, 3, wb, attraction, a-b-da, 5, 3, 7, 6, 120, 195, 190, 117, 195, 120, 3, 1.91778
368, 3, wb, attraction, a-b-da, 5, 3, 7, 6, 120, 195, 190, 117, 195, 120, 1, 0.575758
368, 3, wb, catch, NA, 999, 999, 7, 7, 158, 157, 156, 99, 84, 111, 3, 0.710226
368, 3, wb, catch, NA, 999, 999, 7, 7, 158, 157, 156, 99, 84, 111, 1, 0.35264
368, 3, wb, attraction, a-b-db, 2, 3, 7, 8, 195, 120, 120, 195, 119, 193, 1, 1.78451
368, 3, wb, attraction, a-b-db, 2, 3, 7, 8, 195, 120, 120, 195, 119, 193, 3, 0.407807
368, 3, wb, attraction, a-b-da, 5, 1, 7, 9, 132, 58, 135, 60, 60, 135, 1, 1.64502
368, 3, wb, attraction, a-b-da, 5, 1, 7, 9, 132, 58, 135, 60, 60, 135, 3, 0.345861
368, 3, wb, attraction, a-b-da, 2, 2, 7, 10, 165, 90, 90, 165, 163, 89, 3, 1.48977
368, 3, wb, attraction, a-b-da, 2, 2, 7, 10, 165, 90, 90, 165, 163, 89, 2, 0.332528
368, 3, wb, attraction, a-b-db, 14, 2, 7, 11, 83, 153, 165, 90, 90, 165, 1, 1.45293
368, 3, wb, attraction, a-b-db, 14, 2, 7, 11, 83, 153, 165, 90, 90, 165, 3, 0.361816
368, 3, wb, attraction, a-b-da, 9, 1, 7, 12, 135, 60, 60, 135, 129, 57, 3, 1.55303
368, 3, wb, attraction, a-b-da, 9, 1, 7, 12, 135, 60, 60, 135, 129, 57, 2, 0.361867
368, 3, wb, attraction, a-b-db, 9, 3, 7, 13, 114, 186, 120, 195, 195, 120, 1, 1.25713
368, 3, wb, attraction, a-b-db, 9, 3, 7, 13, 114, 186, 120, 195, 195, 120, 2, 0.653178
368, 3, wb, filler, NA, 999, 999, 7, 14, 86, 64, 137, 176, 61, 147, 1, 0.71297
368, 3, wb, filler, NA, 999, 999, 7, 14, 86, 64, 137, 176, 61, 147, 2, 0.331349
368, 3, wb, filler, NA, 999, 999, 7, 15, 88, 152, 95, 115, 119, 195, 2, 1.17184
368, 3, wb, filler, NA, 999, 999, 7, 15, 88, 152, 95, 115, 119, 195, 3, 0.371626
368, 3, wb, filler, NA, 999, 999, 7, 16, 179, 106, 181, 140, 130, 177, 1, 2.94676
368, 3, wb, filler, NA, 999, 999, 7, 16, 179, 106, 181, 140, 130, 177, 2, 0.299003
368, 3, wb, attraction, a-b-da, 9, 3, 7, 17, 186, 114, 120, 195, 195, 120, 1, 1.65294
368, 3, wb, attraction, a-b-da, 9, 3, 7, 17, 186, 114, 120, 195, 195, 120, 2, 0.345686
368, 3, wb, filler, NA, 999, 999, 7, 18, 89, 102, 86, 111, 106, 119, 1, 1.38547
368, 3, wb, filler, NA, 999, 999, 7, 18, 89, 102, 86, 111, 106, 119, 3, 0.345152
368, 3, wb, attraction, a-b-da, 2, 1, 7, 19, 135, 60, 60, 135, 134, 59, 2, 1.68084
368, 3, wb, attraction, a-b-da, 2, 1, 7, 19, 135, 60, 60, 135, 134, 59, 3, 0.428416
368, 3, wb, attraction, a-b-da, 14, 3, 7, 20, 195, 120, 181, 111, 120, 195, 2, 1.33681
368, 3, wb, attraction, a-b-da, 14, 3, 7, 20, 195, 120, 181, 111, 120, 195, 3, 0.410372
368, 3, wb, filler, NA, 999, 999, 7, 21, 61, 115, 69, 106, 78, 101, 1, 1.92755
368, 3, wb, filler, NA, 999, 999, 7, 21, 61, 115, 69, 106, 78, 101, 2, 0.641073
368, 3, wb, attraction, a-b-db, 14, 1, 7, 22, 60, 135, 135, 60, 56, 125, 2, 1.50061
368, 3, wb, attraction, a-b-db, 14, 1, 7, 22, 60, 135, 135, 60, 56, 125, 1, 0.639533
368, 3, wb, filler, NA, 999, 999, 7, 23, 145, 88, 173, 185, 108, 96, 3, 0.99591
368, 3, wb, filler, NA, 999, 999, 7, 23, 145, 88, 173, 185, 108, 96, 2, 0.314834
368, 3, wb, attraction, a-b-da, 14, 1, 7, 24, 135, 60, 60, 135, 125, 56, 3, 0.996085
368, 3, wb, attraction, a-b-da, 14, 1, 7, 24, 135, 60, 60, 135, 125, 56, 2, 0.363106
368, 3, wb, catch, NA, 999, 999, 7, 25, 68, 127, 133, 122, 156, 159, 1, 0.674152
368, 3, wb, catch, NA, 999, 999, 7, 25, 68, 127, 133, 122, 156, 159, 3, 0.341994
368, 3, wb, attraction, a-b-db, 5, 1, 7, 26, 60, 135, 135, 60, 58, 132, 2, 0.845803
368, 3, wb, attraction, a-b-db, 5, 1, 7, 26, 60, 135, 135, 60, 58, 132, 1, 0.402795
368, 3, wb, attraction, a-b-db, 9, 2, 7, 27, 90, 165, 165, 90, 86, 157, 3, 0.90477
368, 3, wb, attraction, a-b-db, 9, 2, 7, 27, 90, 165, 165, 90, 86, 157, 2, 0.339813
368, 3, wb, filler, NA, 999, 999, 7, 28, 96, 137, 152, 155, 83, 67, 3, 0.956196
368, 3, wb, filler, NA, 999, 999, 7, 28, 96, 137, 152, 155, 83, 67, 2, 0.252499
368, 3, wb, attraction, a-b-da, 2, 3, 7, 29, 193, 119, 120, 195, 195, 120, 1, 3.36053
368, 3, wb, attraction, a-b-da, 2, 3, 7, 29, 193, 119, 120, 195, 195, 120, 2, 0.583942
368, 3, wb, attraction, a-b-db, 2, 1, 7, 30, 59, 134, 135, 60, 60, 135, 2, 1.40647
368, 3, wb, attraction, a-b-db, 2, 1, 7, 30, 59, 134, 135, 60, 60, 135, 3, 0.540727
368, 3, wb, attraction, a-b-db, 5, 3, 7, 31, 117, 190, 120, 195, 195, 120, 3, 1.74842
368, 3, wb, attraction, a-b-db, 5, 3, 7, 31, 117, 190, 120, 195, 195, 120, 1, 0.813251
368, 3, wb, attraction, a-b-da, 9, 2, 7, 32, 165, 90, 90, 165, 157, 86, 3, 1.33012
368, 3, wb, attraction, a-b-da, 9, 2, 7, 32, 165, 90, 90, 165, 157, 86, 2, 0.339792
368, 3, wb, attraction, a-b-da, 5, 2, 7, 33, 161, 88, 90, 165, 165, 90, 1, 1.41229
368, 3, wb, attraction, a-b-da, 5, 2, 7, 33, 161, 88, 90, 165, 165, 90, 2, 0.442495
368, 3, wb, catch, NA, 999, 999, 7, 34, 92, 103, 122, 133, 125, 190, 1, 0.670277
368, 3, wb, catch, NA, 999, 999, 7, 34, 92, 103, 122, 133, 125, 190, 3, 0.474576
368, 3, wb, attraction, a-b-db, 5, 2, 7, 35, 165, 90, 90, 165, 88, 161, 1, 3.70113
368, 3, wb, attraction, a-b-db, 5, 2, 7, 35, 165, 90, 90, 165, 88, 161, 2, 0.495371
368, 3, wb, filler, NA, 999, 999, 7, 36, 99, 186, 137, 116, 140, 96, 3, 0.977051
368, 3, wb, filler, NA, 999, 999, 7, 36, 99, 186, 137, 116, 140, 96, 1, 0.464731
368, 3, wb, attraction, a-b-da, 14, 2, 7, 37, 165, 90, 153, 83, 90, 165, 2, 3.05186
368, 3, wb, attraction, a-b-da, 14, 2, 7, 37, 165, 90, 153, 83, 90, 165, 3, 0.488195
368, 3, wb, attraction, a-b-db, 14, 3, 8, 1, 111, 181, 195, 120, 120, 195, 1, 1.4506
368, 3, wb, attraction, a-b-db, 14, 3, 8, 1, 111, 181, 195, 120, 120, 195, 3, 0.599663
368, 3, wb, attraction, a-b-da, 2, 1, 8, 2, 134, 59, 60, 135, 135, 60, 3, 1.74139
368, 3, wb, attraction, a-b-da, 2, 1, 8, 2, 134, 59, 60, 135, 135, 60, 2, 0.334069
368, 3, wb, attraction, a-b-db, 5, 1, 8, 3, 58, 132, 60, 135, 135, 60, 1, 3.04655
368, 3, wb, attraction, a-b-db, 5, 1, 8, 3, 58, 132, 60, 135, 135, 60, 2, 0.362889
368, 3, wb, attraction, a-b-db, 14, 2, 8, 4, 165, 90, 90, 165, 83, 153, 1, 2.04202
368, 3, wb, attraction, a-b-db, 14, 2, 8, 4, 165, 90, 90, 165, 83, 153, 2, 0.318668
368, 3, wb, filler, NA, 999, 999, 8, 5, 112, 122, 171, 145, 152, 66, 3, 1.14389
368, 3, wb, filler, NA, 999, 999, 8, 5, 112, 122, 171, 145, 152, 66, 2, 0.28081
368, 3, wb, attraction, a-b-da, 9, 2, 8, 6, 157, 86, 90, 165, 165, 90, 1, 1.06736
368, 3, wb, attraction, a-b-da, 9, 2, 8, 6, 157, 86, 90, 165, 165, 90, 2, 0.407675
368, 3, wb, attraction, a-b-db, 9, 1, 8, 7, 135, 60, 60, 135, 57, 129, 1, 1.62884
368, 3, wb, attraction, a-b-db, 9, 1, 8, 7, 135, 60, 60, 135, 57, 129, 2, 0.330375
368, 3, wb, filler, NA, 999, 999, 8, 8, 112, 142, 107, 175, 154, 147, 1, 1.99495
368, 3, wb, filler, NA, 999, 999, 8, 8, 112, 142, 107, 175, 154, 147, 2, 0.337544
368, 3, wb, attraction, a-b-da, 9, 1, 8, 9, 135, 60, 60, 135, 129, 57, 3, 1.05008
368, 3, wb, attraction, a-b-da, 9, 1, 8, 9, 135, 60, 60, 135, 129, 57, 2, 0.350958
368, 3, wb, filler, NA, 999, 999, 8, 10, 128, 151, 78, 77, 65, 144, 2, 1.23074
368, 3, wb, filler, NA, 999, 999, 8, 10, 128, 151, 78, 77, 65, 144, 1, 0.316336
368, 3, wb, attraction, a-b-db, 14, 1, 8, 11, 56, 125, 135, 60, 60, 135, 1, 1.07748
368, 3, wb, attraction, a-b-db, 14, 1, 8, 11, 56, 125, 135, 60, 60, 135, 2, 0.321297
368, 3, wb, attraction, a-b-db, 2, 3, 8, 12, 120, 195, 119, 193, 195, 120, 3, 1.47431
368, 3, wb, attraction, a-b-db, 2, 3, 8, 12, 120, 195, 119, 193, 195, 120, 1, 0.613952
368, 3, wb, attraction, a-b-db, 5, 3, 8, 13, 117, 190, 195, 120, 120, 195, 2, 1.56295
368, 3, wb, attraction, a-b-db, 5, 3, 8, 13, 117, 190, 195, 120, 120, 195, 1, 0.267055
368, 3, wb, attraction, a-b-da, 2, 2, 8, 14, 165, 90, 163, 89, 90, 165, 3, 0.830344
368, 3, wb, attraction, a-b-da, 2, 2, 8, 14, 165, 90, 163, 89, 90, 165, 1, 0.796114
368, 3, wb, attraction, a-b-da, 9, 3, 8, 15, 195, 120, 120, 195, 186, 114, 3, 1.8177
368, 3, wb, attraction, a-b-da, 9, 3, 8, 15, 195, 120, 120, 195, 186, 114, 2, 0.415807
368, 3, wb, attraction, a-b-db, 2, 2, 8, 16, 89, 163, 90, 165, 165, 90, 3, 1.46895
368, 3, wb, attraction, a-b-db, 2, 2, 8, 16, 89, 163, 90, 165, 165, 90, 1, 0.913161
368, 3, wb, filler, NA, 999, 999, 8, 17, 184, 150, 174, 175, 129, 121, 3, 0.658166
368, 3, wb, filler, NA, 999, 999, 8, 17, 184, 150, 174, 175, 129, 121, 1, 0.822554
368, 3, wb, attraction, a-b-db, 9, 3, 8, 18, 195, 120, 120, 195, 114, 186, 3, 1.99547
368, 3, wb, attraction, a-b-db, 9, 3, 8, 18, 195, 120, 120, 195, 114, 186, 1, 0.498202
368, 3, wb, filler, NA, 999, 999, 8, 19, 145, 73, 119, 71, 106, 161, 1, 0.99599
368, 3, wb, filler, NA, 999, 999, 8, 19, 145, 73, 119, 71, 106, 161, 3, 0.387039
368, 3, wb, filler, NA, 999, 999, 8, 20, 159, 93, 112, 89, 93, 192, 2, 0.913474
368, 3, wb, filler, NA, 999, 999, 8, 20, 159, 93, 112, 89, 93, 192, 3, 0.715814
368, 3, wb, attraction, a-b-db, 9, 2, 8, 21, 165, 90, 86, 157, 90, 165, 2, 1.39687
368, 3, wb, attraction, a-b-db, 9, 2, 8, 21, 165, 90, 86, 157, 90, 165, 3, 0.995807
368, 3, wb, attraction, a-b-da, 5, 1, 8, 22, 135, 60, 132, 58, 60, 135, 2, 1.61737
368, 3, wb, attraction, a-b-da, 5, 1, 8, 22, 135, 60, 132, 58, 60, 135, 3, 0.759625
368, 3, wb, attraction, a-b-da, 5, 2, 8, 23, 165, 90, 161, 88, 90, 165, 2, 2.39862
368, 3, wb, attraction, a-b-da, 5, 2, 8, 23, 165, 90, 161, 88, 90, 165, 3, 0.533272
368, 3, wb, attraction, a-b-db, 2, 1, 8, 24, 60, 135, 59, 134, 135, 60, 2, 1.02956
368, 3, wb, attraction, a-b-db, 2, 1, 8, 24, 60, 135, 59, 134, 135, 60, 3, 0.499251
368, 3, wb, filler, NA, 999, 999, 8, 25, 160, 180, 88, 131, 62, 155, 2, 1.11706
368, 3, wb, filler, NA, 999, 999, 8, 25, 160, 180, 88, 131, 62, 155, 1, 0.255394
368, 3, wb, catch, NA, 999, 999, 8, 26, 117, 78, 152, 103, 142, 173, 1, 1.10714
368, 3, wb, catch, NA, 999, 999, 8, 26, 117, 78, 152, 103, 142, 173, 3, 0.397483
368, 3, wb, filler, NA, 999, 999, 8, 27, 101, 73, 167, 187, 153, 192, 1, 0.619335
368, 3, wb, filler, NA, 999, 999, 8, 27, 101, 73, 167, 187, 153, 192, 2, 0.53772
368, 3, wb, attraction, a-b-db, 5, 2, 8, 28, 88, 161, 90, 165, 165, 90, 2, 1.45036
368, 3, wb, attraction, a-b-db, 5, 2, 8, 28, 88, 161, 90, 165, 165, 90, 1, 0.615012
368, 3, wb, attraction, a-b-da, 5, 3, 8, 29, 190, 117, 120, 195, 195, 120, 1, 2.10014
368, 3, wb, attraction, a-b-da, 5, 3, 8, 29, 190, 117, 120, 195, 195, 120, 2, 0.35092
368, 3, wb, catch, NA, 999, 999, 8, 30, 118, 77, 143, 172, 104, 151, 1, 0.73464
368, 3, wb, catch, NA, 999, 999, 8, 30, 118, 77, 143, 172, 104, 151, 2, 0.736391
368, 3, wb, filler, NA, 999, 999, 8, 31, 119, 159, 105, 187, 192, 130, 2, 1.18464
368, 3, wb, filler, NA, 999, 999, 8, 31, 119, 159, 105, 187, 192, 130, 3, 0.368282
368, 3, wb, attraction, a-b-da, 14, 3, 8, 32, 195, 120, 120, 195, 181, 111, 3, 1.83152
368, 3, wb, attraction, a-b-da, 14, 3, 8, 32, 195, 120, 120, 195, 181, 111, 2, 0.300828
368, 3, wb, attraction, a-b-da, 14, 2, 8, 33, 90, 165, 165, 90, 153, 83, 3, 2.6707
368, 3, wb, attraction, a-b-da, 14, 2, 8, 33, 90, 165, 165, 90, 153, 83, 1, 0.394645
368, 3, wb, catch, NA, 999, 999, 8, 34, 132, 123, 116, 79, 176, 139, 2, 0.856405
368, 3, wb, catch, NA, 999, 999, 8, 34, 132, 123, 116, 79, 176, 139, 3, 0.284714
368, 3, wb, attraction, a-b-da, 2, 3, 8, 35, 120, 195, 193, 119, 195, 120, 3, 1.27925
368, 3, wb, attraction, a-b-da, 2, 3, 8, 35, 120, 195, 193, 119, 195, 120, 1, 0.770815
368, 3, wb, attraction, a-b-da, 14, 1, 8, 36, 125, 56, 135, 60, 60, 135, 1, 1.77786
368, 3, wb, attraction, a-b-da, 14, 1, 8, 36, 125, 56, 135, 60, 60, 135, 3, 0.657289
368, 3, wb, filler, NA, 999, 999, 8, 37, 158, 139, 189, 117, 118, 177, 3, 1.30049
368, 3, wb, filler, NA, 999, 999, 8, 37, 158, 139, 189, 117, 118, 177, 1, 0.503176
