sub_n, computer_n, bw_cond, effect, set, distance, diag, block_n, trial_n, h1, w1, h2, w2, h3, w3, choice, rt 
391, 3, bw, practice, NA, 999, 999, 0, 1, 149, 65, 148, 123, 81, 67, 2, 2.43285
391, 3, bw, practice, NA, 999, 999, 0, 1, 149, 65, 148, 123, 81, 67, 3, 3.12621
391, 3, bw, practice, NA, 999, 999, 0, 2, 163, 147, 85, 56, 135, 59, 1, 2.07685
391, 3, bw, practice, NA, 999, 999, 0, 2, 163, 147, 85, 56, 135, 59, 2, 1.62156
391, 3, bw, practice, NA, 999, 999, 0, 3, 127, 145, 76, 115, 180, 70, 1, 5.3685
391, 3, bw, practice, NA, 999, 999, 0, 3, 127, 145, 76, 115, 180, 70, 2, 6.60564
391, 3, bw, filler, NA, 999, 999, 1, 1, 184, 145, 90, 77, 144, 71, 1, 2.98433
391, 3, bw, filler, NA, 999, 999, 1, 1, 184, 145, 90, 77, 144, 71, 2, 1.81554
391, 3, bw, attraction, a-b-db, 9, 1, 1, 2, 135, 60, 57, 129, 60, 135, 3, 2.62016
391, 3, bw, attraction, a-b-db, 9, 1, 1, 2, 135, 60, 57, 129, 60, 135, 1, 4.90597
391, 3, bw, attraction, a-b-da, 9, 2, 1, 3, 90, 165, 157, 86, 165, 90, 3, 1.44232
391, 3, bw, attraction, a-b-da, 9, 2, 1, 3, 90, 165, 157, 86, 165, 90, 2, 2.28728
391, 3, bw, catch, NA, 999, 999, 1, 4, 144, 171, 116, 79, 162, 93, 1, 1.51308
391, 3, bw, catch, NA, 999, 999, 1, 4, 144, 171, 116, 79, 162, 93, 2, 0.963309
391, 3, bw, attraction, a-b-db, 14, 3, 1, 5, 195, 120, 120, 195, 111, 181, 2, 1.79419
391, 3, bw, attraction, a-b-db, 14, 3, 1, 5, 195, 120, 120, 195, 111, 181, 3, 1.30494
391, 3, bw, attraction, a-b-db, 2, 3, 1, 6, 195, 120, 120, 195, 119, 193, 2, 1.69844
391, 3, bw, attraction, a-b-db, 2, 3, 1, 6, 195, 120, 120, 195, 119, 193, 1, 3.0372
391, 3, bw, attraction, a-b-db, 9, 2, 1, 7, 90, 165, 86, 157, 165, 90, 2, 2.1289
391, 3, bw, attraction, a-b-db, 9, 2, 1, 7, 90, 165, 86, 157, 165, 90, 3, 3.69037
391, 3, bw, attraction, a-b-da, 2, 3, 1, 8, 193, 119, 195, 120, 120, 195, 2, 1.44373
391, 3, bw, attraction, a-b-da, 2, 3, 1, 8, 193, 119, 195, 120, 120, 195, 1, 3.2805
391, 3, bw, filler, NA, 999, 999, 1, 9, 69, 75, 180, 79, 111, 144, 3, 1.3781
391, 3, bw, filler, NA, 999, 999, 1, 9, 69, 75, 180, 79, 111, 144, 1, 0.681732
391, 3, bw, attraction, a-b-db, 5, 1, 1, 10, 60, 135, 58, 132, 135, 60, 1, 1.58799
391, 3, bw, attraction, a-b-db, 5, 1, 1, 10, 60, 135, 58, 132, 135, 60, 3, 0.987592
391, 3, bw, filler, NA, 999, 999, 1, 11, 134, 128, 85, 94, 106, 95, 1, 1.02574
391, 3, bw, filler, NA, 999, 999, 1, 11, 134, 128, 85, 94, 106, 95, 2, 0.83153
391, 3, bw, attraction, a-b-da, 5, 2, 1, 12, 90, 165, 165, 90, 161, 88, 2, 2.73183
391, 3, bw, attraction, a-b-da, 5, 2, 1, 12, 90, 165, 165, 90, 161, 88, 3, 1.77304
391, 3, bw, attraction, a-b-da, 9, 3, 1, 13, 186, 114, 120, 195, 195, 120, 2, 1.33167
391, 3, bw, attraction, a-b-da, 9, 3, 1, 13, 186, 114, 120, 195, 195, 120, 1, 1.38927
391, 3, bw, attraction, a-b-db, 2, 1, 1, 14, 59, 134, 135, 60, 60, 135, 2, 5.65135
391, 3, bw, attraction, a-b-db, 2, 1, 1, 14, 59, 134, 135, 60, 60, 135, 1, 1.51893
391, 3, bw, attraction, a-b-db, 14, 2, 1, 15, 90, 165, 165, 90, 83, 153, 2, 1.31171
391, 3, bw, attraction, a-b-db, 14, 2, 1, 15, 90, 165, 165, 90, 83, 153, 3, 1.02595
391, 3, bw, attraction, a-b-da, 5, 3, 1, 16, 190, 117, 120, 195, 195, 120, 1, 4.35826
391, 3, bw, attraction, a-b-da, 5, 3, 1, 16, 190, 117, 120, 195, 195, 120, 3, 2.93359
391, 3, bw, attraction, a-b-db, 5, 2, 1, 17, 165, 90, 88, 161, 90, 165, 2, 2.57326
391, 3, bw, attraction, a-b-db, 5, 2, 1, 17, 165, 90, 88, 161, 90, 165, 1, 0.956398
391, 3, bw, filler, NA, 999, 999, 1, 18, 118, 118, 193, 129, 141, 117, 2, 1.05209
391, 3, bw, filler, NA, 999, 999, 1, 18, 118, 118, 193, 129, 141, 117, 1, 1.28107
391, 3, bw, catch, NA, 999, 999, 1, 19, 113, 142, 131, 64, 173, 142, 3, 1.38714
391, 3, bw, catch, NA, 999, 999, 1, 19, 113, 142, 131, 64, 173, 142, 2, 0.602712
391, 3, bw, catch, NA, 999, 999, 1, 20, 131, 124, 92, 103, 148, 167, 3, 0.792482
391, 3, bw, catch, NA, 999, 999, 1, 20, 131, 124, 92, 103, 148, 167, 2, 0.599557
391, 3, bw, filler, NA, 999, 999, 1, 21, 178, 71, 139, 99, 100, 180, 3, 2.01339
391, 3, bw, filler, NA, 999, 999, 1, 21, 178, 71, 139, 99, 100, 180, 1, 1.0434
391, 3, bw, filler, NA, 999, 999, 1, 22, 185, 168, 59, 85, 124, 177, 1, 1.207
391, 3, bw, filler, NA, 999, 999, 1, 22, 185, 168, 59, 85, 124, 177, 2, 0.589335
391, 3, bw, attraction, a-b-da, 14, 3, 1, 23, 195, 120, 181, 111, 120, 195, 3, 6.73177
391, 3, bw, attraction, a-b-da, 14, 3, 1, 23, 195, 120, 181, 111, 120, 195, 2, 0.939443
391, 3, bw, attraction, a-b-da, 14, 1, 1, 24, 60, 135, 135, 60, 125, 56, 2, 2.31592
391, 3, bw, attraction, a-b-da, 14, 1, 1, 24, 60, 135, 135, 60, 125, 56, 3, 1.3177
391, 3, bw, attraction, a-b-db, 9, 3, 1, 25, 114, 186, 120, 195, 195, 120, 2, 1.39063
391, 3, bw, attraction, a-b-db, 9, 3, 1, 25, 114, 186, 120, 195, 195, 120, 1, 0.949504
391, 3, bw, attraction, a-b-db, 2, 2, 1, 26, 90, 165, 165, 90, 89, 163, 2, 3.21314
391, 3, bw, attraction, a-b-db, 2, 2, 1, 26, 90, 165, 165, 90, 89, 163, 3, 0.650774
391, 3, bw, attraction, a-b-db, 14, 1, 1, 27, 60, 135, 135, 60, 56, 125, 2, 3.27052
391, 3, bw, attraction, a-b-db, 14, 1, 1, 27, 60, 135, 135, 60, 56, 125, 3, 1.55415
391, 3, bw, attraction, a-b-da, 5, 1, 1, 28, 60, 135, 135, 60, 132, 58, 2, 2.11362
391, 3, bw, attraction, a-b-da, 5, 1, 1, 28, 60, 135, 135, 60, 132, 58, 1, 1.21159
391, 3, bw, attraction, a-b-da, 14, 2, 1, 29, 90, 165, 165, 90, 153, 83, 2, 1.12046
391, 3, bw, attraction, a-b-da, 14, 2, 1, 29, 90, 165, 165, 90, 153, 83, 3, 0.954771
391, 3, bw, attraction, a-b-da, 2, 2, 1, 30, 90, 165, 163, 89, 165, 90, 2, 1.65849
391, 3, bw, attraction, a-b-da, 2, 2, 1, 30, 90, 165, 163, 89, 165, 90, 1, 0.982573
391, 3, bw, filler, NA, 999, 999, 1, 31, 70, 92, 161, 163, 118, 152, 2, 0.684833
391, 3, bw, filler, NA, 999, 999, 1, 31, 70, 92, 161, 163, 118, 152, 1, 0.640587
391, 3, bw, filler, NA, 999, 999, 1, 32, 114, 163, 94, 190, 85, 89, 1, 2.34042
391, 3, bw, filler, NA, 999, 999, 1, 32, 114, 163, 94, 190, 85, 89, 3, 0.86895
391, 3, bw, attraction, a-b-da, 9, 1, 1, 33, 135, 60, 60, 135, 129, 57, 2, 1.59193
391, 3, bw, attraction, a-b-da, 9, 1, 1, 33, 135, 60, 60, 135, 129, 57, 3, 1.05472
391, 3, bw, filler, NA, 999, 999, 1, 34, 176, 70, 167, 101, 90, 117, 2, 0.962289
391, 3, bw, filler, NA, 999, 999, 1, 34, 176, 70, 167, 101, 90, 117, 3, 0.898679
391, 3, bw, filler, NA, 999, 999, 1, 35, 127, 163, 186, 165, 62, 170, 2, 0.620344
391, 3, bw, filler, NA, 999, 999, 1, 35, 127, 163, 186, 165, 62, 170, 3, 0.794124
391, 3, bw, attraction, a-b-da, 2, 1, 1, 36, 135, 60, 134, 59, 60, 135, 2, 1.39976
391, 3, bw, attraction, a-b-da, 2, 1, 1, 36, 135, 60, 134, 59, 60, 135, 3, 0.646663
391, 3, bw, attraction, a-b-db, 5, 3, 1, 37, 117, 190, 195, 120, 120, 195, 3, 1.13041
391, 3, bw, attraction, a-b-db, 5, 3, 1, 37, 117, 190, 195, 120, 120, 195, 1, 1.43607
391, 3, bw, attraction, a-b-da, 9, 2, 2, 1, 157, 86, 90, 165, 165, 90, 3, 1.40024
391, 3, bw, attraction, a-b-da, 9, 2, 2, 1, 157, 86, 90, 165, 165, 90, 1, 0.727111
391, 3, bw, filler, NA, 999, 999, 2, 2, 60, 59, 157, 188, 69, 164, 2, 0.879429
391, 3, bw, filler, NA, 999, 999, 2, 2, 60, 59, 157, 188, 69, 164, 1, 0.827164
391, 3, bw, attraction, a-b-da, 2, 1, 2, 3, 134, 59, 60, 135, 135, 60, 2, 2.57544
391, 3, bw, attraction, a-b-da, 2, 1, 2, 3, 134, 59, 60, 135, 135, 60, 1, 0.89463
391, 3, bw, attraction, a-b-da, 14, 1, 2, 4, 135, 60, 60, 135, 125, 56, 2, 1.08025
391, 3, bw, attraction, a-b-da, 14, 1, 2, 4, 135, 60, 60, 135, 125, 56, 3, 1.09989
391, 3, bw, attraction, a-b-db, 14, 2, 2, 5, 90, 165, 165, 90, 83, 153, 1, 1.71754
391, 3, bw, attraction, a-b-db, 14, 2, 2, 5, 90, 165, 165, 90, 83, 153, 3, 1.02367
391, 3, bw, attraction, a-b-da, 5, 3, 2, 6, 120, 195, 195, 120, 190, 117, 1, 3.53993
391, 3, bw, attraction, a-b-da, 5, 3, 2, 6, 120, 195, 195, 120, 190, 117, 2, 2.52408
391, 3, bw, attraction, a-b-da, 2, 3, 2, 7, 193, 119, 120, 195, 195, 120, 2, 3.42001
391, 3, bw, attraction, a-b-da, 2, 3, 2, 7, 193, 119, 120, 195, 195, 120, 3, 1.04158
391, 3, bw, attraction, a-b-da, 5, 2, 2, 8, 165, 90, 161, 88, 90, 165, 2, 1.71711
391, 3, bw, attraction, a-b-da, 5, 2, 2, 8, 165, 90, 161, 88, 90, 165, 3, 0.567244
391, 3, bw, filler, NA, 999, 999, 2, 9, 84, 131, 78, 115, 135, 65, 1, 1.9503
391, 3, bw, filler, NA, 999, 999, 2, 9, 84, 131, 78, 115, 135, 65, 2, 0.543056
391, 3, bw, attraction, a-b-db, 14, 1, 2, 10, 60, 135, 135, 60, 56, 125, 1, 5.15879
391, 3, bw, attraction, a-b-db, 14, 1, 2, 10, 60, 135, 135, 60, 56, 125, 3, 0.333828
391, 3, bw, attraction, a-b-db, 5, 1, 2, 11, 58, 132, 60, 135, 135, 60, 2, 3.19035
391, 3, bw, attraction, a-b-db, 5, 1, 2, 11, 58, 132, 60, 135, 135, 60, 1, 0.628589
391, 3, bw, attraction, a-b-da, 14, 2, 2, 12, 90, 165, 153, 83, 165, 90, 3, 2.87319
391, 3, bw, attraction, a-b-da, 14, 2, 2, 12, 90, 165, 153, 83, 165, 90, 1, 0.964165
391, 3, bw, attraction, a-b-db, 14, 3, 2, 13, 195, 120, 120, 195, 111, 181, 2, 1.60319
391, 3, bw, attraction, a-b-db, 14, 3, 2, 13, 195, 120, 120, 195, 111, 181, 3, 1.36994
391, 3, bw, attraction, a-b-db, 5, 2, 2, 14, 90, 165, 165, 90, 88, 161, 1, 4.79281
391, 3, bw, attraction, a-b-db, 5, 2, 2, 14, 90, 165, 165, 90, 88, 161, 3, 0.550663
391, 3, bw, attraction, a-b-db, 9, 3, 2, 15, 114, 186, 120, 195, 195, 120, 2, 1.40628
391, 3, bw, attraction, a-b-db, 9, 3, 2, 15, 114, 186, 120, 195, 195, 120, 1, 0.57253
391, 3, bw, attraction, a-b-da, 14, 3, 2, 16, 195, 120, 181, 111, 120, 195, 2, 2.3796
391, 3, bw, attraction, a-b-da, 14, 3, 2, 16, 195, 120, 181, 111, 120, 195, 3, 0.930871
391, 3, bw, attraction, a-b-db, 2, 1, 2, 17, 59, 134, 135, 60, 60, 135, 1, 6.87522
391, 3, bw, attraction, a-b-db, 2, 1, 2, 17, 59, 134, 135, 60, 60, 135, 3, 0.652956
391, 3, bw, attraction, a-b-db, 9, 2, 2, 18, 165, 90, 86, 157, 90, 165, 2, 1.84075
391, 3, bw, attraction, a-b-db, 9, 2, 2, 18, 165, 90, 86, 157, 90, 165, 3, 1.14167
391, 3, bw, attraction, a-b-da, 9, 3, 2, 19, 186, 114, 195, 120, 120, 195, 2, 1.0131
391, 3, bw, attraction, a-b-da, 9, 3, 2, 19, 186, 114, 195, 120, 120, 195, 1, 2.40334
391, 3, bw, filler, NA, 999, 999, 2, 20, 97, 148, 142, 189, 75, 97, 2, 0.976635
391, 3, bw, filler, NA, 999, 999, 2, 20, 97, 148, 142, 189, 75, 97, 3, 1.20021
391, 3, bw, filler, NA, 999, 999, 2, 21, 146, 150, 103, 167, 57, 81, 1, 2.35777
391, 3, bw, filler, NA, 999, 999, 2, 21, 146, 150, 103, 167, 57, 81, 3, 0.805722
391, 3, bw, filler, NA, 999, 999, 2, 22, 75, 65, 82, 150, 73, 90, 2, 1.29157
391, 3, bw, filler, NA, 999, 999, 2, 22, 75, 65, 82, 150, 73, 90, 1, 0.534299
391, 3, bw, filler, NA, 999, 999, 2, 23, 187, 182, 62, 187, 153, 76, 1, 1.37474
391, 3, bw, filler, NA, 999, 999, 2, 23, 187, 182, 62, 187, 153, 76, 3, 1.05431
391, 3, bw, filler, NA, 999, 999, 2, 24, 68, 127, 81, 105, 130, 56, 2, 1.84997
391, 3, bw, filler, NA, 999, 999, 2, 24, 68, 127, 81, 105, 130, 56, 1, 0.99863
391, 3, bw, attraction, a-b-db, 2, 3, 2, 25, 195, 120, 120, 195, 119, 193, 2, 2.34032
391, 3, bw, attraction, a-b-db, 2, 3, 2, 25, 195, 120, 120, 195, 119, 193, 3, 0.940935
391, 3, bw, filler, NA, 999, 999, 2, 26, 149, 103, 134, 114, 166, 157, 3, 1.0125
391, 3, bw, filler, NA, 999, 999, 2, 26, 149, 103, 134, 114, 166, 157, 1, 1.2109
391, 3, bw, filler, NA, 999, 999, 2, 27, 173, 132, 163, 75, 170, 164, 3, 1.55972
391, 3, bw, filler, NA, 999, 999, 2, 27, 173, 132, 163, 75, 170, 164, 2, 1.37593
391, 3, bw, attraction, a-b-db, 9, 1, 2, 28, 57, 129, 135, 60, 60, 135, 3, 4.94211
391, 3, bw, attraction, a-b-db, 9, 1, 2, 28, 57, 129, 135, 60, 60, 135, 1, 0.877841
391, 3, bw, filler, NA, 999, 999, 2, 29, 82, 146, 84, 155, 179, 112, 3, 0.784111
391, 3, bw, filler, NA, 999, 999, 2, 29, 82, 146, 84, 155, 179, 112, 1, 0.687782
391, 3, bw, catch, NA, 999, 999, 2, 30, 96, 99, 137, 118, 125, 190, 3, 1.0502
391, 3, bw, catch, NA, 999, 999, 2, 30, 96, 99, 137, 118, 125, 190, 1, 0.519276
391, 3, bw, attraction, a-b-da, 9, 1, 2, 31, 135, 60, 60, 135, 129, 57, 2, 2.72029
391, 3, bw, attraction, a-b-da, 9, 1, 2, 31, 135, 60, 60, 135, 129, 57, 1, 1.29006
391, 3, bw, attraction, a-b-db, 2, 2, 2, 32, 90, 165, 165, 90, 89, 163, 3, 1.6523
391, 3, bw, attraction, a-b-db, 2, 2, 2, 32, 90, 165, 165, 90, 89, 163, 1, 1.21717
391, 3, bw, catch, NA, 999, 999, 2, 33, 90, 165, 75, 120, 134, 181, 3, 1.17403
391, 3, bw, catch, NA, 999, 999, 2, 33, 90, 165, 75, 120, 134, 181, 2, 1.02171
391, 3, bw, attraction, a-b-db, 5, 3, 2, 34, 117, 190, 195, 120, 120, 195, 2, 5.78657
391, 3, bw, attraction, a-b-db, 5, 3, 2, 34, 117, 190, 195, 120, 120, 195, 1, 1.40876
391, 3, bw, catch, NA, 999, 999, 2, 35, 156, 159, 120, 135, 129, 66, 1, 2.2056
391, 3, bw, catch, NA, 999, 999, 2, 35, 156, 159, 120, 135, 129, 66, 3, 0.819562
391, 3, bw, attraction, a-b-da, 2, 2, 2, 36, 165, 90, 163, 89, 90, 165, 3, 2.08854
391, 3, bw, attraction, a-b-da, 2, 2, 2, 36, 165, 90, 163, 89, 90, 165, 1, 1.5952
391, 3, bw, attraction, a-b-da, 5, 1, 2, 37, 135, 60, 132, 58, 60, 135, 1, 2.24066
391, 3, bw, attraction, a-b-da, 5, 1, 2, 37, 135, 60, 132, 58, 60, 135, 2, 0.749266
391, 3, bw, filler, NA, 999, 999, 3, 1, 178, 124, 155, 135, 160, 81, 2, 1.82905
391, 3, bw, filler, NA, 999, 999, 3, 1, 178, 124, 155, 135, 160, 81, 3, 0.658382
391, 3, bw, attraction, a-b-db, 14, 1, 3, 2, 135, 60, 56, 125, 60, 135, 3, 1.64546
391, 3, bw, attraction, a-b-db, 14, 1, 3, 2, 135, 60, 56, 125, 60, 135, 2, 1.05823
391, 3, bw, catch, NA, 999, 999, 3, 3, 106, 89, 133, 122, 141, 174, 3, 1.48517
391, 3, bw, catch, NA, 999, 999, 3, 3, 106, 89, 133, 122, 141, 174, 1, 0.568797
391, 3, bw, filler, NA, 999, 999, 3, 4, 168, 103, 83, 177, 153, 154, 3, 1.02386
391, 3, bw, filler, NA, 999, 999, 3, 4, 168, 103, 83, 177, 153, 154, 1, 0.525486
391, 3, bw, attraction, a-b-da, 5, 2, 3, 5, 161, 88, 165, 90, 90, 165, 3, 2.1978
391, 3, bw, attraction, a-b-da, 5, 2, 3, 5, 161, 88, 165, 90, 90, 165, 2, 1.16456
391, 3, bw, attraction, a-b-da, 9, 2, 3, 6, 165, 90, 157, 86, 90, 165, 1, 2.57935
391, 3, bw, attraction, a-b-da, 9, 2, 3, 6, 165, 90, 157, 86, 90, 165, 2, 0.850613
391, 3, bw, filler, NA, 999, 999, 3, 7, 192, 137, 188, 190, 174, 93, 2, 1.14233
391, 3, bw, filler, NA, 999, 999, 3, 7, 192, 137, 188, 190, 174, 93, 3, 0.487329
391, 3, bw, filler, NA, 999, 999, 3, 8, 100, 174, 173, 71, 174, 99, 1, 5.04963
391, 3, bw, filler, NA, 999, 999, 3, 8, 100, 174, 173, 71, 174, 99, 2, 0.65333
391, 3, bw, filler, NA, 999, 999, 3, 9, 186, 169, 181, 86, 163, 161, 1, 0.905058
391, 3, bw, filler, NA, 999, 999, 3, 9, 186, 169, 181, 86, 163, 161, 2, 0.563509
391, 3, bw, attraction, a-b-db, 2, 2, 3, 10, 165, 90, 89, 163, 90, 165, 2, 1.47463
391, 3, bw, attraction, a-b-db, 2, 2, 3, 10, 165, 90, 89, 163, 90, 165, 1, 0.798101
391, 3, bw, attraction, a-b-da, 5, 3, 3, 11, 190, 117, 195, 120, 120, 195, 3, 1.13975
391, 3, bw, attraction, a-b-da, 5, 3, 3, 11, 190, 117, 195, 120, 120, 195, 2, 0.900752
391, 3, bw, filler, NA, 999, 999, 3, 12, 104, 114, 150, 81, 127, 77, 1, 1.15852
391, 3, bw, filler, NA, 999, 999, 3, 12, 104, 114, 150, 81, 127, 77, 3, 0.8387
391, 3, bw, attraction, a-b-db, 9, 2, 3, 13, 86, 157, 90, 165, 165, 90, 2, 2.40309
391, 3, bw, attraction, a-b-db, 9, 2, 3, 13, 86, 157, 90, 165, 165, 90, 3, 1.08164
391, 3, bw, catch, NA, 999, 999, 3, 14, 157, 98, 154, 161, 107, 88, 2, 0.835869
391, 3, bw, catch, NA, 999, 999, 3, 14, 157, 98, 154, 161, 107, 88, 3, 0.489528
391, 3, bw, attraction, a-b-da, 14, 3, 3, 15, 181, 111, 195, 120, 120, 195, 3, 1.15604
391, 3, bw, attraction, a-b-da, 14, 3, 3, 15, 181, 111, 195, 120, 120, 195, 1, 0.612319
391, 3, bw, filler, NA, 999, 999, 3, 16, 81, 148, 181, 144, 86, 168, 2, 1.04937
391, 3, bw, filler, NA, 999, 999, 3, 16, 81, 148, 181, 144, 86, 168, 1, 0.66243
391, 3, bw, attraction, a-b-da, 14, 2, 3, 17, 165, 90, 153, 83, 90, 165, 1, 1.22533
391, 3, bw, attraction, a-b-da, 14, 2, 3, 17, 165, 90, 153, 83, 90, 165, 3, 0.423056
391, 3, bw, attraction, a-b-da, 5, 1, 3, 18, 60, 135, 132, 58, 135, 60, 1, 4.11608
391, 3, bw, attraction, a-b-da, 5, 1, 3, 18, 60, 135, 132, 58, 135, 60, 3, 0.877667
391, 3, bw, attraction, a-b-db, 2, 3, 3, 19, 195, 120, 119, 193, 120, 195, 1, 1.35186
391, 3, bw, attraction, a-b-db, 2, 3, 3, 19, 195, 120, 119, 193, 120, 195, 2, 0.992718
391, 3, bw, attraction, a-b-da, 9, 3, 3, 20, 120, 195, 195, 120, 186, 114, 1, 1.61433
391, 3, bw, attraction, a-b-da, 9, 3, 3, 20, 120, 195, 195, 120, 186, 114, 3, 0.66853
391, 3, bw, attraction, a-b-db, 14, 3, 3, 21, 111, 181, 195, 120, 120, 195, 3, 1.3275
391, 3, bw, attraction, a-b-db, 14, 3, 3, 21, 111, 181, 195, 120, 120, 195, 1, 0.649117
391, 3, bw, attraction, a-b-db, 2, 1, 3, 22, 135, 60, 59, 134, 60, 135, 2, 1.54889
391, 3, bw, attraction, a-b-db, 2, 1, 3, 22, 135, 60, 59, 134, 60, 135, 3, 0.973682
391, 3, bw, attraction, a-b-db, 9, 1, 3, 23, 60, 135, 57, 129, 135, 60, 1, 2.62004
391, 3, bw, attraction, a-b-db, 9, 1, 3, 23, 60, 135, 57, 129, 135, 60, 2, 1.7538
391, 3, bw, attraction, a-b-da, 2, 2, 3, 24, 163, 89, 165, 90, 90, 165, 3, 2.16115
391, 3, bw, attraction, a-b-da, 2, 2, 3, 24, 163, 89, 165, 90, 90, 165, 2, 1.10515
391, 3, bw, attraction, a-b-da, 14, 1, 3, 25, 60, 135, 125, 56, 135, 60, 3, 2.01876
391, 3, bw, attraction, a-b-da, 14, 1, 3, 25, 60, 135, 125, 56, 135, 60, 1, 1.01682
391, 3, bw, filler, NA, 999, 999, 3, 26, 72, 66, 160, 184, 185, 174, 3, 1.74971
391, 3, bw, filler, NA, 999, 999, 3, 26, 72, 66, 160, 184, 185, 174, 1, 0.59046
391, 3, bw, attraction, a-b-db, 14, 2, 3, 27, 90, 165, 83, 153, 165, 90, 1, 1.17216
391, 3, bw, attraction, a-b-db, 14, 2, 3, 27, 90, 165, 83, 153, 165, 90, 2, 0.93193
391, 3, bw, attraction, a-b-da, 2, 1, 3, 28, 134, 59, 135, 60, 60, 135, 2, 2.90015
391, 3, bw, attraction, a-b-da, 2, 1, 3, 28, 134, 59, 135, 60, 60, 135, 3, 0.542521
391, 3, bw, attraction, a-b-db, 5, 1, 3, 29, 135, 60, 58, 132, 60, 135, 3, 3.01448
391, 3, bw, attraction, a-b-db, 5, 1, 3, 29, 135, 60, 58, 132, 60, 135, 1, 0.660065
391, 3, bw, attraction, a-b-db, 9, 3, 3, 30, 120, 195, 195, 120, 114, 186, 1, 2.05505
391, 3, bw, attraction, a-b-db, 9, 3, 3, 30, 120, 195, 195, 120, 114, 186, 2, 0.667685
391, 3, bw, catch, NA, 999, 999, 3, 31, 195, 120, 124, 131, 87, 108, 1, 1.91881
391, 3, bw, catch, NA, 999, 999, 3, 31, 195, 120, 124, 131, 87, 108, 3, 0.520858
391, 3, bw, attraction, a-b-db, 5, 2, 3, 32, 165, 90, 90, 165, 88, 161, 2, 1.63407
391, 3, bw, attraction, a-b-db, 5, 2, 3, 32, 165, 90, 90, 165, 88, 161, 3, 0.975436
391, 3, bw, attraction, a-b-da, 9, 1, 3, 33, 135, 60, 60, 135, 129, 57, 1, 2.43793
391, 3, bw, attraction, a-b-da, 9, 1, 3, 33, 135, 60, 60, 135, 129, 57, 3, 0.474952
391, 3, bw, attraction, a-b-db, 5, 3, 3, 34, 117, 190, 195, 120, 120, 195, 2, 3.50955
391, 3, bw, attraction, a-b-db, 5, 3, 3, 34, 117, 190, 195, 120, 120, 195, 3, 2.94305
391, 3, bw, attraction, a-b-da, 2, 3, 3, 35, 193, 119, 120, 195, 195, 120, 2, 1.28602
391, 3, bw, attraction, a-b-da, 2, 3, 3, 35, 193, 119, 120, 195, 195, 120, 1, 2.66556
391, 3, bw, filler, NA, 999, 999, 3, 36, 153, 124, 61, 185, 185, 97, 3, 2.38807
391, 3, bw, filler, NA, 999, 999, 3, 36, 153, 124, 61, 185, 185, 97, 2, 0.931228
391, 3, bw, filler, NA, 999, 999, 3, 37, 192, 194, 182, 104, 84, 143, 1, 1.97146
391, 3, bw, filler, NA, 999, 999, 3, 37, 192, 194, 182, 104, 84, 143, 3, 0.579637
391, 3, bw, attraction, a-b-da, 9, 1, 4, 1, 135, 60, 60, 135, 129, 57, 2, 6.00993
391, 3, bw, attraction, a-b-da, 9, 1, 4, 1, 135, 60, 60, 135, 129, 57, 3, 0.918726
391, 3, bw, filler, NA, 999, 999, 4, 2, 132, 139, 62, 125, 177, 191, 3, 0.8078
391, 3, bw, filler, NA, 999, 999, 4, 2, 132, 139, 62, 125, 177, 191, 1, 0.438122
391, 3, bw, attraction, a-b-db, 14, 1, 4, 3, 60, 135, 135, 60, 56, 125, 1, 3.34675
391, 3, bw, attraction, a-b-db, 14, 1, 4, 3, 60, 135, 135, 60, 56, 125, 3, 1.08294
391, 3, bw, filler, NA, 999, 999, 4, 4, 114, 186, 172, 124, 138, 167, 3, 1.74915
391, 3, bw, filler, NA, 999, 999, 4, 4, 114, 186, 172, 124, 138, 167, 1, 2.29385
391, 3, bw, attraction, a-b-db, 2, 2, 4, 5, 165, 90, 89, 163, 90, 165, 1, 2.6151
391, 3, bw, attraction, a-b-db, 2, 2, 4, 5, 165, 90, 89, 163, 90, 165, 3, 0.588983
391, 3, bw, attraction, a-b-db, 2, 3, 4, 6, 119, 193, 195, 120, 120, 195, 1, 1.81144
391, 3, bw, attraction, a-b-db, 2, 3, 4, 6, 119, 193, 195, 120, 120, 195, 2, 1.05749
391, 3, bw, attraction, a-b-da, 5, 1, 4, 7, 132, 58, 135, 60, 60, 135, 3, 2.53251
391, 3, bw, attraction, a-b-da, 5, 1, 4, 7, 132, 58, 135, 60, 60, 135, 1, 1.52558
391, 3, bw, filler, NA, 999, 999, 4, 8, 178, 112, 146, 173, 150, 96, 2, 0.821703
391, 3, bw, filler, NA, 999, 999, 4, 8, 178, 112, 146, 173, 150, 96, 3, 0.699431
391, 3, bw, attraction, a-b-db, 5, 3, 4, 9, 120, 195, 195, 120, 117, 190, 1, 1.7492
391, 3, bw, attraction, a-b-db, 5, 3, 4, 9, 120, 195, 195, 120, 117, 190, 2, 0.821837
391, 3, bw, catch, NA, 999, 999, 4, 10, 91, 104, 162, 153, 126, 129, 2, 1.27494
391, 3, bw, catch, NA, 999, 999, 4, 10, 91, 104, 162, 153, 126, 129, 1, 0.72664
391, 3, bw, filler, NA, 999, 999, 4, 11, 150, 77, 63, 108, 77, 74, 1, 1.47104
391, 3, bw, filler, NA, 999, 999, 4, 11, 150, 77, 63, 108, 77, 74, 3, 1.01913
391, 3, bw, attraction, a-b-db, 14, 2, 4, 12, 165, 90, 90, 165, 83, 153, 2, 1.91205
391, 3, bw, attraction, a-b-db, 14, 2, 4, 12, 165, 90, 90, 165, 83, 153, 3, 0.578098
391, 3, bw, filler, NA, 999, 999, 4, 13, 102, 92, 89, 100, 133, 177, 3, 1.38452
391, 3, bw, filler, NA, 999, 999, 4, 13, 102, 92, 89, 100, 133, 177, 2, 0.856084
391, 3, bw, attraction, a-b-db, 9, 1, 4, 14, 135, 60, 57, 129, 60, 135, 3, 4.83577
391, 3, bw, attraction, a-b-db, 9, 1, 4, 14, 135, 60, 57, 129, 60, 135, 2, 0.784117
391, 3, bw, filler, NA, 999, 999, 4, 15, 181, 62, 100, 118, 128, 159, 3, 0.838444
391, 3, bw, filler, NA, 999, 999, 4, 15, 181, 62, 100, 118, 128, 159, 2, 1.86751
391, 3, bw, attraction, a-b-da, 14, 2, 4, 16, 153, 83, 165, 90, 90, 165, 3, 4.17429
391, 3, bw, attraction, a-b-da, 14, 2, 4, 16, 153, 83, 165, 90, 90, 165, 2, 0.717016
391, 3, bw, attraction, a-b-db, 9, 3, 4, 17, 195, 120, 120, 195, 114, 186, 2, 1.54218
391, 3, bw, attraction, a-b-db, 9, 3, 4, 17, 195, 120, 120, 195, 114, 186, 3, 1.65477
391, 3, bw, attraction, a-b-db, 5, 2, 4, 18, 165, 90, 88, 161, 90, 165, 2, 1.97823
391, 3, bw, attraction, a-b-db, 5, 2, 4, 18, 165, 90, 88, 161, 90, 165, 1, 1.15355
391, 3, bw, filler, NA, 999, 999, 4, 19, 167, 155, 187, 63, 142, 142, 1, 0.905093
391, 3, bw, filler, NA, 999, 999, 4, 19, 167, 155, 187, 63, 142, 142, 2, 0.891527
391, 3, bw, attraction, a-b-da, 2, 3, 4, 20, 193, 119, 195, 120, 120, 195, 1, 1.78921
391, 3, bw, attraction, a-b-da, 2, 3, 4, 20, 193, 119, 195, 120, 120, 195, 2, 1.91593
391, 3, bw, attraction, a-b-da, 9, 2, 4, 21, 157, 86, 90, 165, 165, 90, 3, 4.38062
391, 3, bw, attraction, a-b-da, 9, 2, 4, 21, 157, 86, 90, 165, 165, 90, 1, 0.747209
391, 3, bw, attraction, a-b-da, 5, 2, 4, 22, 161, 88, 165, 90, 90, 165, 2, 1.33892
391, 3, bw, attraction, a-b-da, 5, 2, 4, 22, 161, 88, 165, 90, 90, 165, 3, 0.667838
391, 3, bw, attraction, a-b-da, 14, 1, 4, 23, 60, 135, 135, 60, 125, 56, 2, 6.85482
391, 3, bw, attraction, a-b-da, 14, 1, 4, 23, 60, 135, 135, 60, 125, 56, 3, 0.626069
391, 3, bw, catch, NA, 999, 999, 4, 24, 115, 80, 127, 188, 126, 129, 2, 1.05444
391, 3, bw, catch, NA, 999, 999, 4, 24, 115, 80, 127, 188, 126, 129, 1, 0.810726
391, 3, bw, attraction, a-b-da, 2, 2, 4, 25, 90, 165, 165, 90, 163, 89, 1, 1.15977
391, 3, bw, attraction, a-b-da, 2, 2, 4, 25, 90, 165, 165, 90, 163, 89, 3, 0.568017
391, 3, bw, attraction, a-b-db, 14, 3, 4, 26, 195, 120, 120, 195, 111, 181, 2, 1.87913
391, 3, bw, attraction, a-b-db, 14, 3, 4, 26, 195, 120, 120, 195, 111, 181, 3, 0.802552
391, 3, bw, catch, NA, 999, 999, 4, 27, 120, 135, 134, 61, 123, 192, 3, 1.83227
391, 3, bw, catch, NA, 999, 999, 4, 27, 120, 135, 134, 61, 123, 192, 2, 0.541683
391, 3, bw, filler, NA, 999, 999, 4, 28, 182, 190, 145, 173, 60, 134, 1, 1.40533
391, 3, bw, filler, NA, 999, 999, 4, 28, 182, 190, 145, 173, 60, 134, 3, 0.571687
391, 3, bw, attraction, a-b-da, 2, 1, 4, 29, 135, 60, 60, 135, 134, 59, 2, 1.3627
391, 3, bw, attraction, a-b-da, 2, 1, 4, 29, 135, 60, 60, 135, 134, 59, 1, 0.834922
391, 3, bw, attraction, a-b-db, 5, 1, 4, 30, 58, 132, 60, 135, 135, 60, 3, 2.35137
391, 3, bw, attraction, a-b-db, 5, 1, 4, 30, 58, 132, 60, 135, 135, 60, 2, 0.599846
391, 3, bw, attraction, a-b-db, 9, 2, 4, 31, 165, 90, 86, 157, 90, 165, 1, 1.0615
391, 3, bw, attraction, a-b-db, 9, 2, 4, 31, 165, 90, 86, 157, 90, 165, 2, 0.56985
391, 3, bw, filler, NA, 999, 999, 4, 32, 174, 88, 108, 165, 69, 71, 2, 1.24096
391, 3, bw, filler, NA, 999, 999, 4, 32, 174, 88, 108, 165, 69, 71, 3, 1.23796
391, 3, bw, attraction, a-b-db, 2, 1, 4, 33, 60, 135, 135, 60, 59, 134, 2, 2.68213
391, 3, bw, attraction, a-b-db, 2, 1, 4, 33, 60, 135, 135, 60, 59, 134, 3, 0.629292
391, 3, bw, attraction, a-b-da, 5, 3, 4, 34, 190, 117, 195, 120, 120, 195, 1, 1.7777
391, 3, bw, attraction, a-b-da, 5, 3, 4, 34, 190, 117, 195, 120, 120, 195, 3, 2.32925
391, 3, bw, filler, NA, 999, 999, 4, 35, 122, 178, 167, 145, 57, 87, 2, 1.85698
391, 3, bw, filler, NA, 999, 999, 4, 35, 122, 178, 167, 145, 57, 87, 3, 1.19709
391, 3, bw, attraction, a-b-da, 14, 3, 4, 36, 195, 120, 181, 111, 120, 195, 3, 5.91462
391, 3, bw, attraction, a-b-da, 14, 3, 4, 36, 195, 120, 181, 111, 120, 195, 1, 0.963415
391, 3, bw, attraction, a-b-da, 9, 3, 4, 37, 120, 195, 195, 120, 186, 114, 1, 1.35443
391, 3, bw, attraction, a-b-da, 9, 3, 4, 37, 120, 195, 195, 120, 186, 114, 3, 1.30723
391, 3, bw, attraction, a-b-da, 2, 3, 5, 1, 193, 119, 120, 195, 195, 120, 2, 1.39476
391, 3, bw, attraction, a-b-da, 2, 3, 5, 1, 193, 119, 120, 195, 195, 120, 1, 0.905725
391, 3, bw, attraction, a-b-db, 2, 3, 5, 2, 195, 120, 120, 195, 119, 193, 2, 1.0434
391, 3, bw, attraction, a-b-db, 2, 3, 5, 2, 195, 120, 120, 195, 119, 193, 3, 0.472234
391, 3, bw, catch, NA, 999, 999, 5, 3, 100, 95, 116, 139, 139, 176, 3, 1.01943
391, 3, bw, catch, NA, 999, 999, 5, 3, 100, 95, 116, 139, 139, 176, 1, 0.593714
391, 3, bw, attraction, a-b-db, 14, 3, 5, 4, 111, 181, 120, 195, 195, 120, 2, 1.49556
391, 3, bw, attraction, a-b-db, 14, 3, 5, 4, 111, 181, 120, 195, 195, 120, 1, 0.618343
391, 3, bw, attraction, a-b-db, 9, 3, 5, 5, 114, 186, 195, 120, 120, 195, 2, 1.23937
391, 3, bw, attraction, a-b-db, 9, 3, 5, 5, 114, 186, 195, 120, 120, 195, 1, 0.612402
391, 3, bw, attraction, a-b-db, 5, 2, 5, 6, 88, 161, 90, 165, 165, 90, 2, 1.16138
391, 3, bw, attraction, a-b-db, 5, 2, 5, 6, 88, 161, 90, 165, 165, 90, 1, 0.505729
391, 3, bw, filler, NA, 999, 999, 5, 7, 169, 71, 84, 162, 139, 61, 2, 1.3554
391, 3, bw, filler, NA, 999, 999, 5, 7, 169, 71, 84, 162, 139, 61, 3, 0.643622
391, 3, bw, attraction, a-b-da, 14, 2, 5, 8, 165, 90, 90, 165, 153, 83, 2, 1.42354
391, 3, bw, attraction, a-b-da, 14, 2, 5, 8, 165, 90, 90, 165, 153, 83, 3, 0.612962
391, 3, bw, attraction, a-b-db, 2, 2, 5, 9, 89, 163, 165, 90, 90, 165, 2, 0.93816
391, 3, bw, attraction, a-b-db, 2, 2, 5, 9, 89, 163, 165, 90, 90, 165, 1, 0.483819
391, 3, bw, attraction, a-b-db, 5, 3, 5, 10, 117, 190, 120, 195, 195, 120, 2, 1.19019
391, 3, bw, attraction, a-b-db, 5, 3, 5, 10, 117, 190, 120, 195, 195, 120, 1, 0.645092
391, 3, bw, attraction, a-b-da, 9, 1, 5, 11, 135, 60, 60, 135, 129, 57, 2, 1.3768
391, 3, bw, attraction, a-b-da, 9, 1, 5, 11, 135, 60, 60, 135, 129, 57, 3, 0.912365
391, 3, bw, filler, NA, 999, 999, 5, 12, 132, 113, 86, 88, 122, 63, 1, 0.68932
391, 3, bw, filler, NA, 999, 999, 5, 12, 132, 113, 86, 88, 122, 63, 2, 1.0444
391, 3, bw, attraction, a-b-db, 9, 1, 5, 13, 60, 135, 57, 129, 135, 60, 1, 2.86407
391, 3, bw, attraction, a-b-db, 9, 1, 5, 13, 60, 135, 57, 129, 135, 60, 3, 0.531789
391, 3, bw, catch, NA, 999, 999, 5, 14, 140, 115, 101, 94, 161, 154, 3, 0.884372
391, 3, bw, catch, NA, 999, 999, 5, 14, 140, 115, 101, 94, 161, 154, 2, 0.543886
391, 3, bw, attraction, a-b-da, 9, 3, 5, 15, 120, 195, 195, 120, 186, 114, 2, 1.11972
391, 3, bw, attraction, a-b-da, 9, 3, 5, 15, 120, 195, 195, 120, 186, 114, 3, 0.714064
391, 3, bw, filler, NA, 999, 999, 5, 16, 134, 110, 120, 185, 82, 99, 2, 0.643078
391, 3, bw, filler, NA, 999, 999, 5, 16, 134, 110, 120, 185, 82, 99, 3, 0.704189
391, 3, bw, filler, NA, 999, 999, 5, 17, 173, 118, 188, 170, 63, 95, 2, 0.69797
391, 3, bw, filler, NA, 999, 999, 5, 17, 173, 118, 188, 170, 63, 95, 3, 0.524944
391, 3, bw, attraction, a-b-db, 5, 1, 5, 18, 60, 135, 135, 60, 58, 132, 1, 1.35742
391, 3, bw, attraction, a-b-db, 5, 1, 5, 18, 60, 135, 135, 60, 58, 132, 3, 0.997646
391, 3, bw, filler, NA, 999, 999, 5, 19, 161, 75, 139, 170, 121, 112, 2, 0.755286
391, 3, bw, filler, NA, 999, 999, 5, 19, 161, 75, 139, 170, 121, 112, 3, 0.507689
391, 3, bw, attraction, a-b-da, 5, 3, 5, 20, 195, 120, 120, 195, 190, 117, 2, 2.78883
391, 3, bw, attraction, a-b-da, 5, 3, 5, 20, 195, 120, 120, 195, 190, 117, 3, 1.10724
391, 3, bw, attraction, a-b-da, 14, 3, 5, 21, 181, 111, 120, 195, 195, 120, 2, 1.67613
391, 3, bw, attraction, a-b-da, 14, 3, 5, 21, 181, 111, 120, 195, 195, 120, 1, 0.60759
391, 3, bw, attraction, a-b-db, 14, 2, 5, 22, 90, 165, 165, 90, 83, 153, 1, 1.0527
391, 3, bw, attraction, a-b-db, 14, 2, 5, 22, 90, 165, 165, 90, 83, 153, 3, 0.769615
391, 3, bw, attraction, a-b-da, 9, 2, 5, 23, 90, 165, 165, 90, 157, 86, 1, 1.60062
391, 3, bw, attraction, a-b-da, 9, 2, 5, 23, 90, 165, 165, 90, 157, 86, 3, 0.823472
391, 3, bw, attraction, a-b-da, 5, 2, 5, 24, 161, 88, 90, 165, 165, 90, 2, 0.883886
391, 3, bw, attraction, a-b-da, 5, 2, 5, 24, 161, 88, 90, 165, 165, 90, 1, 1.20748
391, 3, bw, attraction, a-b-da, 2, 1, 5, 25, 134, 59, 135, 60, 60, 135, 1, 3.58838
391, 3, bw, attraction, a-b-da, 2, 1, 5, 25, 134, 59, 135, 60, 60, 135, 3, 0.611293
391, 3, bw, attraction, a-b-db, 9, 2, 5, 26, 86, 157, 90, 165, 165, 90, 2, 0.98433
391, 3, bw, attraction, a-b-db, 9, 2, 5, 26, 86, 157, 90, 165, 165, 90, 1, 0.536031
391, 3, bw, filler, NA, 999, 999, 5, 27, 99, 60, 60, 189, 117, 57, 2, 1.86452
391, 3, bw, filler, NA, 999, 999, 5, 27, 99, 60, 60, 189, 117, 57, 1, 0.516523
391, 3, bw, filler, NA, 999, 999, 5, 28, 63, 189, 88, 58, 64, 149, 1, 0.925549
391, 3, bw, filler, NA, 999, 999, 5, 28, 63, 189, 88, 58, 64, 149, 2, 0.38342
391, 3, bw, filler, NA, 999, 999, 5, 29, 70, 88, 106, 70, 64, 165, 3, 1.06985
391, 3, bw, filler, NA, 999, 999, 5, 29, 70, 88, 106, 70, 64, 165, 1, 1.02616
391, 3, bw, filler, NA, 999, 999, 5, 30, 154, 185, 156, 92, 171, 110, 1, 0.766414
391, 3, bw, filler, NA, 999, 999, 5, 30, 154, 185, 156, 92, 171, 110, 2, 1.59889
391, 3, bw, attraction, a-b-da, 14, 1, 5, 31, 125, 56, 135, 60, 60, 135, 3, 1.46818
391, 3, bw, attraction, a-b-da, 14, 1, 5, 31, 125, 56, 135, 60, 60, 135, 1, 0.768436
391, 3, bw, attraction, a-b-da, 5, 1, 5, 32, 132, 58, 135, 60, 60, 135, 2, 1.41567
391, 3, bw, attraction, a-b-da, 5, 1, 5, 32, 132, 58, 135, 60, 60, 135, 3, 0.533745
391, 3, bw, catch, NA, 999, 999, 5, 33, 156, 159, 85, 110, 113, 142, 1, 0.918185
391, 3, bw, catch, NA, 999, 999, 5, 33, 156, 159, 85, 110, 113, 142, 2, 0.872433
391, 3, bw, attraction, a-b-db, 14, 1, 5, 34, 56, 125, 60, 135, 135, 60, 2, 1.36353
391, 3, bw, attraction, a-b-db, 14, 1, 5, 34, 56, 125, 60, 135, 135, 60, 1, 1.00374
391, 3, bw, attraction, a-b-da, 2, 2, 5, 35, 90, 165, 163, 89, 165, 90, 1, 1.40131
391, 3, bw, attraction, a-b-da, 2, 2, 5, 35, 90, 165, 163, 89, 165, 90, 3, 1.04018
391, 3, bw, filler, NA, 999, 999, 5, 36, 145, 187, 88, 120, 69, 78, 1, 0.827914
391, 3, bw, filler, NA, 999, 999, 5, 36, 145, 187, 88, 120, 69, 78, 3, 0.401603
391, 3, bw, attraction, a-b-db, 2, 1, 5, 37, 59, 134, 135, 60, 60, 135, 1, 1.88738
391, 3, bw, attraction, a-b-db, 2, 1, 5, 37, 59, 134, 135, 60, 60, 135, 2, 0.786752
391, 3, bw, filler, NA, 999, 999, 6, 1, 87, 81, 179, 175, 127, 104, 2, 0.769136
391, 3, bw, filler, NA, 999, 999, 6, 1, 87, 81, 179, 175, 127, 104, 1, 0.609488
391, 3, bw, attraction, a-b-da, 9, 2, 6, 2, 165, 90, 157, 86, 90, 165, 1, 2.14262
391, 3, bw, attraction, a-b-da, 9, 2, 6, 2, 165, 90, 157, 86, 90, 165, 2, 1.03925
391, 3, bw, filler, NA, 999, 999, 6, 3, 173, 117, 56, 66, 95, 114, 1, 0.723415
391, 3, bw, filler, NA, 999, 999, 6, 3, 173, 117, 56, 66, 95, 114, 2, 0.55732
391, 3, bw, attraction, a-b-da, 2, 2, 6, 4, 165, 90, 90, 165, 163, 89, 2, 1.11633
391, 3, bw, attraction, a-b-da, 2, 2, 6, 4, 165, 90, 90, 165, 163, 89, 3, 2.04671
391, 3, bw, attraction, a-b-da, 2, 1, 6, 5, 135, 60, 60, 135, 134, 59, 2, 1.77792
391, 3, bw, attraction, a-b-da, 2, 1, 6, 5, 135, 60, 60, 135, 134, 59, 3, 0.873421
391, 3, bw, attraction, a-b-da, 2, 3, 6, 6, 120, 195, 193, 119, 195, 120, 1, 1.10768
391, 3, bw, attraction, a-b-da, 2, 3, 6, 6, 120, 195, 193, 119, 195, 120, 3, 1.98218
391, 3, bw, attraction, a-b-db, 9, 1, 6, 7, 57, 129, 135, 60, 60, 135, 3, 2.69989
391, 3, bw, attraction, a-b-db, 9, 1, 6, 7, 57, 129, 135, 60, 60, 135, 1, 0.654366
391, 3, bw, attraction, a-b-db, 9, 3, 6, 8, 114, 186, 195, 120, 120, 195, 3, 1.79418
391, 3, bw, attraction, a-b-db, 9, 3, 6, 8, 114, 186, 195, 120, 120, 195, 1, 0.768907
391, 3, bw, attraction, a-b-da, 14, 1, 6, 9, 60, 135, 135, 60, 125, 56, 1, 1.68792
391, 3, bw, attraction, a-b-da, 14, 1, 6, 9, 60, 135, 135, 60, 125, 56, 3, 0.602931
391, 3, bw, attraction, a-b-db, 14, 2, 6, 10, 83, 153, 165, 90, 90, 165, 3, 0.976556
391, 3, bw, attraction, a-b-db, 14, 2, 6, 10, 83, 153, 165, 90, 90, 165, 1, 0.81626
391, 3, bw, filler, NA, 999, 999, 6, 11, 181, 178, 124, 139, 91, 71, 1, 0.805117
391, 3, bw, filler, NA, 999, 999, 6, 11, 181, 178, 124, 139, 91, 71, 3, 0.515682
391, 3, bw, filler, NA, 999, 999, 6, 12, 60, 57, 60, 167, 149, 77, 2, 1.93272
391, 3, bw, filler, NA, 999, 999, 6, 12, 60, 57, 60, 167, 149, 77, 1, 1.69405
391, 3, bw, attraction, a-b-db, 2, 1, 6, 13, 135, 60, 59, 134, 60, 135, 2, 1.0475
391, 3, bw, attraction, a-b-db, 2, 1, 6, 13, 135, 60, 59, 134, 60, 135, 3, 0.860429
391, 3, bw, catch, NA, 999, 999, 6, 14, 156, 99, 144, 171, 106, 89, 2, 0.887402
391, 3, bw, catch, NA, 999, 999, 6, 14, 156, 99, 144, 171, 106, 89, 3, 0.787116
391, 3, bw, attraction, a-b-da, 14, 2, 6, 15, 153, 83, 165, 90, 90, 165, 3, 1.24152
391, 3, bw, attraction, a-b-da, 14, 2, 6, 15, 153, 83, 165, 90, 90, 165, 2, 0.74239
391, 3, bw, attraction, a-b-da, 14, 3, 6, 16, 181, 111, 195, 120, 120, 195, 3, 0.774174
391, 3, bw, attraction, a-b-da, 14, 3, 6, 16, 181, 111, 195, 120, 120, 195, 1, 0.790119
391, 3, bw, attraction, a-b-da, 5, 2, 6, 17, 90, 165, 165, 90, 161, 88, 1, 1.64356
391, 3, bw, attraction, a-b-da, 5, 2, 6, 17, 90, 165, 165, 90, 161, 88, 3, 0.416374
391, 3, bw, filler, NA, 999, 999, 6, 18, 183, 178, 125, 195, 118, 66, 1, 0.749511
391, 3, bw, filler, NA, 999, 999, 6, 18, 183, 178, 125, 195, 118, 66, 3, 0.41456
391, 3, bw, attraction, a-b-db, 5, 3, 6, 19, 117, 190, 120, 195, 195, 120, 3, 0.907693
391, 3, bw, attraction, a-b-db, 5, 3, 6, 19, 117, 190, 120, 195, 195, 120, 1, 0.398117
391, 3, bw, attraction, a-b-db, 14, 1, 6, 20, 56, 125, 135, 60, 60, 135, 2, 1.73187
391, 3, bw, attraction, a-b-db, 14, 1, 6, 20, 56, 125, 135, 60, 60, 135, 1, 0.597337
391, 3, bw, attraction, a-b-da, 9, 1, 6, 21, 135, 60, 129, 57, 60, 135, 3, 1.59512
391, 3, bw, attraction, a-b-da, 9, 1, 6, 21, 135, 60, 129, 57, 60, 135, 2, 0.833913
391, 3, bw, attraction, a-b-db, 2, 3, 6, 22, 195, 120, 120, 195, 119, 193, 1, 0.710318
391, 3, bw, attraction, a-b-db, 2, 3, 6, 22, 195, 120, 120, 195, 119, 193, 3, 0.416685
391, 3, bw, filler, NA, 999, 999, 6, 23, 89, 87, 119, 85, 192, 123, 3, 0.749765
391, 3, bw, filler, NA, 999, 999, 6, 23, 89, 87, 119, 85, 192, 123, 1, 0.614883
391, 3, bw, filler, NA, 999, 999, 6, 24, 182, 143, 186, 123, 80, 97, 1, 0.892038
391, 3, bw, filler, NA, 999, 999, 6, 24, 182, 143, 186, 123, 80, 97, 3, 0.439353
391, 3, bw, attraction, a-b-db, 14, 3, 6, 25, 111, 181, 195, 120, 120, 195, 2, 3.01876
391, 3, bw, attraction, a-b-db, 14, 3, 6, 25, 111, 181, 195, 120, 120, 195, 1, 0.520474
391, 3, bw, attraction, a-b-db, 5, 2, 6, 26, 165, 90, 88, 161, 90, 165, 1, 1.7376
391, 3, bw, attraction, a-b-db, 5, 2, 6, 26, 165, 90, 88, 161, 90, 165, 3, 0.603029
391, 3, bw, filler, NA, 999, 999, 6, 27, 155, 109, 156, 129, 193, 154, 3, 0.640713
391, 3, bw, filler, NA, 999, 999, 6, 27, 155, 109, 156, 129, 193, 154, 1, 0.613955
391, 3, bw, attraction, a-b-db, 5, 1, 6, 28, 58, 132, 60, 135, 135, 60, 2, 2.69105
391, 3, bw, attraction, a-b-db, 5, 1, 6, 28, 58, 132, 60, 135, 135, 60, 1, 0.397415
391, 3, bw, attraction, a-b-da, 5, 3, 6, 29, 195, 120, 190, 117, 120, 195, 1, 1.08329
391, 3, bw, attraction, a-b-da, 5, 3, 6, 29, 195, 120, 190, 117, 120, 195, 3, 1.71084
391, 3, bw, catch, NA, 999, 999, 6, 30, 163, 152, 123, 72, 163, 92, 1, 0.711664
391, 3, bw, catch, NA, 999, 999, 6, 30, 163, 152, 123, 72, 163, 92, 2, 0.330093
391, 3, bw, catch, NA, 999, 999, 6, 31, 125, 70, 142, 173, 104, 151, 2, 0.802521
391, 3, bw, catch, NA, 999, 999, 6, 31, 125, 70, 142, 173, 104, 151, 1, 0.305651
391, 3, bw, attraction, a-b-db, 2, 2, 6, 32, 89, 163, 90, 165, 165, 90, 3, 1.17144
391, 3, bw, attraction, a-b-db, 2, 2, 6, 32, 89, 163, 90, 165, 165, 90, 1, 0.627161
391, 3, bw, attraction, a-b-da, 9, 3, 6, 33, 120, 195, 195, 120, 186, 114, 1, 1.06345
391, 3, bw, attraction, a-b-da, 9, 3, 6, 33, 120, 195, 195, 120, 186, 114, 3, 0.915784
391, 3, bw, filler, NA, 999, 999, 6, 34, 125, 103, 169, 98, 74, 149, 2, 1.57281
391, 3, bw, filler, NA, 999, 999, 6, 34, 125, 103, 169, 98, 74, 149, 1, 1.18823
391, 3, bw, attraction, a-b-da, 5, 1, 6, 35, 132, 58, 60, 135, 135, 60, 3, 1.97049
391, 3, bw, attraction, a-b-da, 5, 1, 6, 35, 132, 58, 60, 135, 135, 60, 2, 0.802579
391, 3, bw, filler, NA, 999, 999, 6, 36, 83, 154, 169, 143, 190, 165, 3, 0.848128
391, 3, bw, filler, NA, 999, 999, 6, 36, 83, 154, 169, 143, 190, 165, 1, 0.557277
391, 3, bw, attraction, a-b-db, 9, 2, 6, 37, 86, 157, 165, 90, 90, 165, 3, 2.90841
391, 3, bw, attraction, a-b-db, 9, 2, 6, 37, 86, 157, 165, 90, 90, 165, 2, 1.60621
391, 3, bw, filler, NA, 999, 999, 7, 1, 124, 79, 176, 181, 58, 121, 2, 0.947506
391, 3, bw, filler, NA, 999, 999, 7, 1, 124, 79, 176, 181, 58, 121, 3, 0.380542
391, 3, bw, catch, NA, 999, 999, 7, 2, 162, 153, 155, 100, 62, 133, 1, 0.71497
391, 3, bw, catch, NA, 999, 999, 7, 2, 162, 153, 155, 100, 62, 133, 3, 0.277452
391, 3, bw, attraction, a-b-da, 5, 1, 7, 3, 132, 58, 60, 135, 135, 60, 1, 2.0319
391, 3, bw, attraction, a-b-da, 5, 1, 7, 3, 132, 58, 60, 135, 135, 60, 2, 0.437274
391, 3, bw, attraction, a-b-db, 5, 1, 7, 4, 58, 132, 135, 60, 60, 135, 1, 2.02569
391, 3, bw, attraction, a-b-db, 5, 1, 7, 4, 58, 132, 135, 60, 60, 135, 3, 0.495275
391, 3, bw, attraction, a-b-db, 9, 2, 7, 5, 86, 157, 90, 165, 165, 90, 3, 0.984843
391, 3, bw, attraction, a-b-db, 9, 2, 7, 5, 86, 157, 90, 165, 165, 90, 1, 0.376689
391, 3, bw, attraction, a-b-da, 9, 1, 7, 6, 60, 135, 129, 57, 135, 60, 3, 2.52715
391, 3, bw, attraction, a-b-da, 9, 1, 7, 6, 60, 135, 129, 57, 135, 60, 2, 0.63223
391, 3, bw, filler, NA, 999, 999, 7, 7, 59, 170, 81, 59, 137, 59, 1, 1.1486
391, 3, bw, filler, NA, 999, 999, 7, 7, 59, 170, 81, 59, 137, 59, 2, 0.493545
391, 3, bw, attraction, a-b-da, 2, 2, 7, 8, 165, 90, 90, 165, 163, 89, 2, 6.19939
391, 3, bw, attraction, a-b-da, 2, 2, 7, 8, 165, 90, 90, 165, 163, 89, 3, 0.836697
391, 3, bw, attraction, a-b-db, 5, 2, 7, 9, 165, 90, 90, 165, 88, 161, 1, 2.30505
391, 3, bw, attraction, a-b-db, 5, 2, 7, 9, 165, 90, 90, 165, 88, 161, 3, 0.61964
391, 3, bw, filler, NA, 999, 999, 7, 10, 129, 60, 95, 191, 173, 117, 2, 1.17673
391, 3, bw, filler, NA, 999, 999, 7, 10, 129, 60, 95, 191, 173, 117, 1, 0.480311
391, 3, bw, attraction, a-b-da, 14, 3, 7, 11, 120, 195, 181, 111, 195, 120, 1, 1.37082
391, 3, bw, attraction, a-b-da, 14, 3, 7, 11, 120, 195, 181, 111, 195, 120, 2, 1.02709
391, 3, bw, filler, NA, 999, 999, 7, 12, 93, 62, 117, 163, 113, 169, 2, 1.11936
391, 3, bw, filler, NA, 999, 999, 7, 12, 93, 62, 117, 163, 113, 169, 1, 0.441561
391, 3, bw, filler, NA, 999, 999, 7, 13, 95, 134, 167, 128, 110, 149, 2, 1.29346
391, 3, bw, filler, NA, 999, 999, 7, 13, 95, 134, 167, 128, 110, 149, 1, 0.512351
391, 3, bw, attraction, a-b-da, 14, 2, 7, 14, 165, 90, 153, 83, 90, 165, 3, 1.66547
391, 3, bw, attraction, a-b-da, 14, 2, 7, 14, 165, 90, 153, 83, 90, 165, 2, 0.461527
391, 3, bw, filler, NA, 999, 999, 7, 15, 172, 136, 112, 64, 80, 124, 1, 0.568678
391, 3, bw, filler, NA, 999, 999, 7, 15, 172, 136, 112, 64, 80, 124, 2, 0.657269
391, 3, bw, attraction, a-b-db, 2, 1, 7, 16, 59, 134, 135, 60, 60, 135, 1, 4.33221
391, 3, bw, attraction, a-b-db, 2, 1, 7, 16, 59, 134, 135, 60, 60, 135, 3, 0.996816
391, 3, bw, attraction, a-b-db, 2, 2, 7, 17, 90, 165, 165, 90, 89, 163, 2, 1.4584
391, 3, bw, attraction, a-b-db, 2, 2, 7, 17, 90, 165, 165, 90, 89, 163, 3, 0.96676
391, 3, bw, attraction, a-b-db, 2, 3, 7, 18, 119, 193, 120, 195, 195, 120, 3, 0.917585
391, 3, bw, attraction, a-b-db, 2, 3, 7, 18, 119, 193, 120, 195, 195, 120, 1, 1.66393
391, 3, bw, filler, NA, 999, 999, 7, 19, 103, 97, 116, 151, 172, 60, 2, 0.850679
391, 3, bw, filler, NA, 999, 999, 7, 19, 103, 97, 116, 151, 172, 60, 1, 0.575712
391, 3, bw, attraction, a-b-db, 9, 1, 7, 20, 57, 129, 60, 135, 135, 60, 3, 1.65417
391, 3, bw, attraction, a-b-db, 9, 1, 7, 20, 57, 129, 60, 135, 135, 60, 1, 0.434382
391, 3, bw, attraction, a-b-db, 14, 1, 7, 21, 60, 135, 56, 125, 135, 60, 3, 1.0148
391, 3, bw, attraction, a-b-db, 14, 1, 7, 21, 60, 135, 56, 125, 135, 60, 2, 0.461105
391, 3, bw, attraction, a-b-da, 2, 3, 7, 22, 195, 120, 193, 119, 120, 195, 1, 0.608282
391, 3, bw, attraction, a-b-da, 2, 3, 7, 22, 195, 120, 193, 119, 120, 195, 3, 0.574647
391, 3, bw, attraction, a-b-da, 5, 3, 7, 23, 120, 195, 190, 117, 195, 120, 1, 0.869143
391, 3, bw, attraction, a-b-da, 5, 3, 7, 23, 120, 195, 190, 117, 195, 120, 2, 0.521582
391, 3, bw, attraction, a-b-da, 2, 1, 7, 24, 60, 135, 134, 59, 135, 60, 1, 1.41059
391, 3, bw, attraction, a-b-da, 2, 1, 7, 24, 60, 135, 134, 59, 135, 60, 2, 0.704746
391, 3, bw, attraction, a-b-da, 5, 2, 7, 25, 165, 90, 90, 165, 161, 88, 2, 1.61851
391, 3, bw, attraction, a-b-da, 5, 2, 7, 25, 165, 90, 90, 165, 161, 88, 3, 1.3927
391, 3, bw, filler, NA, 999, 999, 7, 26, 137, 99, 160, 185, 130, 194, 2, 0.710151
391, 3, bw, filler, NA, 999, 999, 7, 26, 137, 99, 160, 185, 130, 194, 1, 0.584606
391, 3, bw, attraction, a-b-da, 9, 3, 7, 27, 120, 195, 195, 120, 186, 114, 1, 2.93502
391, 3, bw, attraction, a-b-da, 9, 3, 7, 27, 120, 195, 195, 120, 186, 114, 2, 0.504194
391, 3, bw, attraction, a-b-db, 9, 3, 7, 28, 120, 195, 114, 186, 195, 120, 1, 2.40186
391, 3, bw, attraction, a-b-db, 9, 3, 7, 28, 120, 195, 114, 186, 195, 120, 3, 0.448452
391, 3, bw, attraction, a-b-da, 14, 1, 7, 29, 125, 56, 135, 60, 60, 135, 3, 1.05221
391, 3, bw, attraction, a-b-da, 14, 1, 7, 29, 125, 56, 135, 60, 60, 135, 1, 0.969188
391, 3, bw, attraction, a-b-db, 5, 3, 7, 30, 195, 120, 120, 195, 117, 190, 2, 1.74419
391, 3, bw, attraction, a-b-db, 5, 3, 7, 30, 195, 120, 120, 195, 117, 190, 1, 0.424972
391, 3, bw, filler, NA, 999, 999, 7, 31, 187, 184, 64, 191, 92, 77, 1, 0.925367
391, 3, bw, filler, NA, 999, 999, 7, 31, 187, 184, 64, 191, 92, 77, 3, 0.511058
391, 3, bw, attraction, a-b-db, 14, 2, 7, 32, 90, 165, 83, 153, 165, 90, 3, 4.90418
391, 3, bw, attraction, a-b-db, 14, 2, 7, 32, 90, 165, 83, 153, 165, 90, 1, 0.433896
391, 3, bw, catch, NA, 999, 999, 7, 33, 143, 112, 120, 75, 187, 128, 3, 0.702429
391, 3, bw, catch, NA, 999, 999, 7, 33, 143, 112, 120, 75, 187, 128, 2, 0.465574
391, 3, bw, attraction, a-b-db, 14, 3, 7, 34, 195, 120, 120, 195, 111, 181, 2, 2.09272
391, 3, bw, attraction, a-b-db, 14, 3, 7, 34, 195, 120, 120, 195, 111, 181, 3, 0.303276
391, 3, bw, catch, NA, 999, 999, 7, 35, 136, 119, 81, 114, 167, 148, 3, 0.761238
391, 3, bw, catch, NA, 999, 999, 7, 35, 136, 119, 81, 114, 167, 148, 2, 0.713604
391, 3, bw, attraction, a-b-da, 9, 2, 7, 36, 165, 90, 90, 165, 157, 86, 2, 2.01861
391, 3, bw, attraction, a-b-da, 9, 2, 7, 36, 165, 90, 90, 165, 157, 86, 3, 1.28074
391, 3, bw, filler, NA, 999, 999, 7, 37, 73, 162, 186, 65, 56, 99, 1, 1.92285
391, 3, bw, filler, NA, 999, 999, 7, 37, 73, 162, 186, 65, 56, 99, 3, 0.708215
391, 3, bw, attraction, a-b-da, 14, 1, 8, 1, 125, 56, 135, 60, 60, 135, 3, 1.69328
391, 3, bw, attraction, a-b-da, 14, 1, 8, 1, 125, 56, 135, 60, 60, 135, 1, 0.416123
391, 3, bw, filler, NA, 999, 999, 8, 2, 131, 116, 71, 152, 104, 154, 1, 1.10122
391, 3, bw, filler, NA, 999, 999, 8, 2, 131, 116, 71, 152, 104, 154, 2, 0.704092
391, 3, bw, attraction, a-b-db, 2, 2, 8, 3, 165, 90, 89, 163, 90, 165, 2, 1.91389
391, 3, bw, attraction, a-b-db, 2, 2, 8, 3, 165, 90, 89, 163, 90, 165, 3, 0.451875
391, 3, bw, filler, NA, 999, 999, 8, 4, 134, 94, 177, 98, 193, 89, 3, 0.807832
391, 3, bw, filler, NA, 999, 999, 8, 4, 134, 94, 177, 98, 193, 89, 1, 0.50212
391, 3, bw, attraction, a-b-db, 5, 2, 8, 5, 90, 165, 88, 161, 165, 90, 3, 1.17593
391, 3, bw, attraction, a-b-db, 5, 2, 8, 5, 90, 165, 88, 161, 165, 90, 2, 0.839418
391, 3, bw, attraction, a-b-da, 2, 3, 8, 6, 195, 120, 120, 195, 193, 119, 2, 1.89983
391, 3, bw, attraction, a-b-da, 2, 3, 8, 6, 195, 120, 120, 195, 193, 119, 3, 0.574508
391, 3, bw, attraction, a-b-db, 14, 2, 8, 7, 83, 153, 165, 90, 90, 165, 2, 3.26098
391, 3, bw, attraction, a-b-db, 14, 2, 8, 7, 83, 153, 165, 90, 90, 165, 3, 0.568628
391, 3, bw, attraction, a-b-db, 9, 1, 8, 8, 135, 60, 60, 135, 57, 129, 1, 4.30382
391, 3, bw, attraction, a-b-db, 9, 1, 8, 8, 135, 60, 60, 135, 57, 129, 3, 0.377621
391, 3, bw, filler, NA, 999, 999, 8, 9, 99, 180, 147, 59, 81, 83, 1, 0.80015
391, 3, bw, filler, NA, 999, 999, 8, 9, 99, 180, 147, 59, 81, 83, 3, 0.44716
391, 3, bw, filler, NA, 999, 999, 8, 10, 139, 179, 98, 129, 157, 72, 1, 1.00317
391, 3, bw, filler, NA, 999, 999, 8, 10, 139, 179, 98, 129, 157, 72, 3, 0.882023
391, 3, bw, attraction, a-b-db, 9, 3, 8, 11, 120, 195, 195, 120, 114, 186, 2, 1.77245
391, 3, bw, attraction, a-b-db, 9, 3, 8, 11, 120, 195, 195, 120, 114, 186, 3, 0.459747
391, 3, bw, attraction, a-b-da, 9, 1, 8, 12, 135, 60, 129, 57, 60, 135, 1, 3.02291
391, 3, bw, attraction, a-b-da, 9, 1, 8, 12, 135, 60, 129, 57, 60, 135, 3, 0.443927
391, 3, bw, attraction, a-b-da, 14, 2, 8, 13, 90, 165, 153, 83, 165, 90, 3, 0.815702
391, 3, bw, attraction, a-b-da, 14, 2, 8, 13, 90, 165, 153, 83, 165, 90, 2, 0.806077
391, 3, bw, attraction, a-b-db, 5, 3, 8, 14, 120, 195, 117, 190, 195, 120, 2, 1.93982
391, 3, bw, attraction, a-b-db, 5, 3, 8, 14, 120, 195, 117, 190, 195, 120, 1, 0.484499
391, 3, bw, attraction, a-b-db, 14, 3, 8, 15, 120, 195, 111, 181, 195, 120, 3, 0.806902
391, 3, bw, attraction, a-b-db, 14, 3, 8, 15, 120, 195, 111, 181, 195, 120, 2, 0.76537
391, 3, bw, filler, NA, 999, 999, 8, 16, 98, 172, 151, 151, 100, 159, 2, 1.23633
391, 3, bw, filler, NA, 999, 999, 8, 16, 98, 172, 151, 151, 100, 159, 3, 0.506008
391, 3, bw, filler, NA, 999, 999, 8, 17, 86, 69, 182, 124, 155, 91, 2, 0.819825
391, 3, bw, filler, NA, 999, 999, 8, 17, 86, 69, 182, 124, 155, 91, 1, 0.506171
391, 3, bw, catch, NA, 999, 999, 8, 18, 74, 121, 163, 152, 161, 94, 2, 0.907867
391, 3, bw, catch, NA, 999, 999, 8, 18, 74, 121, 163, 152, 161, 94, 1, 0.526233
391, 3, bw, attraction, a-b-da, 14, 3, 8, 19, 181, 111, 120, 195, 195, 120, 1, 1.47072
391, 3, bw, attraction, a-b-da, 14, 3, 8, 19, 181, 111, 120, 195, 195, 120, 3, 0.354943
391, 3, bw, attraction, a-b-db, 5, 1, 8, 20, 60, 135, 58, 132, 135, 60, 2, 1.60271
391, 3, bw, attraction, a-b-db, 5, 1, 8, 20, 60, 135, 58, 132, 135, 60, 3, 0.609487
391, 3, bw, attraction, a-b-da, 5, 2, 8, 21, 90, 165, 165, 90, 161, 88, 1, 1.97464
391, 3, bw, attraction, a-b-da, 5, 2, 8, 21, 90, 165, 165, 90, 161, 88, 2, 0.781955
391, 3, bw, attraction, a-b-db, 14, 1, 8, 22, 56, 125, 60, 135, 135, 60, 2, 2.02028
391, 3, bw, attraction, a-b-db, 14, 1, 8, 22, 56, 125, 60, 135, 135, 60, 1, 0.610382
391, 3, bw, attraction, a-b-db, 2, 1, 8, 23, 59, 134, 60, 135, 135, 60, 2, 2.01543
391, 3, bw, attraction, a-b-db, 2, 1, 8, 23, 59, 134, 60, 135, 135, 60, 1, 0.549452
391, 3, bw, attraction, a-b-da, 2, 1, 8, 24, 60, 135, 134, 59, 135, 60, 3, 1.73329
391, 3, bw, attraction, a-b-da, 2, 1, 8, 24, 60, 135, 134, 59, 135, 60, 2, 0.774739
391, 3, bw, attraction, a-b-db, 9, 2, 8, 25, 86, 157, 165, 90, 90, 165, 2, 1.43697
391, 3, bw, attraction, a-b-db, 9, 2, 8, 25, 86, 157, 165, 90, 90, 165, 3, 1.13048
391, 3, bw, attraction, a-b-da, 9, 3, 8, 26, 186, 114, 195, 120, 120, 195, 3, 1.54684
391, 3, bw, attraction, a-b-da, 9, 3, 8, 26, 186, 114, 195, 120, 120, 195, 1, 0.651632
391, 3, bw, attraction, a-b-db, 2, 3, 8, 27, 195, 120, 119, 193, 120, 195, 2, 1.55138
391, 3, bw, attraction, a-b-db, 2, 3, 8, 27, 195, 120, 119, 193, 120, 195, 1, 0.728198
391, 3, bw, attraction, a-b-da, 9, 2, 8, 28, 157, 86, 165, 90, 90, 165, 2, 1.37652
391, 3, bw, attraction, a-b-da, 9, 2, 8, 28, 157, 86, 165, 90, 90, 165, 1, 1.00811
391, 3, bw, catch, NA, 999, 999, 8, 29, 75, 120, 172, 143, 115, 140, 2, 0.620999
391, 3, bw, catch, NA, 999, 999, 8, 29, 75, 120, 172, 143, 115, 140, 1, 0.475214
391, 3, bw, filler, NA, 999, 999, 8, 30, 145, 132, 182, 114, 171, 81, 1, 0.693937
391, 3, bw, filler, NA, 999, 999, 8, 30, 145, 132, 182, 114, 171, 81, 3, 0.745132
391, 3, bw, filler, NA, 999, 999, 8, 31, 117, 98, 160, 140, 96, 154, 2, 0.76071
391, 3, bw, filler, NA, 999, 999, 8, 31, 117, 98, 160, 140, 96, 154, 1, 0.473139
391, 3, bw, attraction, a-b-da, 5, 3, 8, 32, 190, 117, 120, 195, 195, 120, 2, 2.32373
391, 3, bw, attraction, a-b-da, 5, 3, 8, 32, 190, 117, 120, 195, 195, 120, 1, 0.452979
391, 3, bw, catch, NA, 999, 999, 8, 33, 132, 63, 160, 95, 148, 167, 3, 0.552657
391, 3, bw, catch, NA, 999, 999, 8, 33, 132, 63, 160, 95, 148, 167, 1, 0.73779
391, 3, bw, filler, NA, 999, 999, 8, 34, 89, 149, 59, 99, 134, 60, 1, 0.874206
391, 3, bw, filler, NA, 999, 999, 8, 34, 89, 149, 59, 99, 134, 60, 2, 0.357805
391, 3, bw, attraction, a-b-da, 5, 1, 8, 35, 132, 58, 60, 135, 135, 60, 2, 0.828965
391, 3, bw, attraction, a-b-da, 5, 1, 8, 35, 132, 58, 60, 135, 135, 60, 1, 0.450729
391, 3, bw, filler, NA, 999, 999, 8, 36, 147, 138, 193, 165, 85, 124, 2, 0.878602
391, 3, bw, filler, NA, 999, 999, 8, 36, 147, 138, 193, 165, 85, 124, 3, 0.458174
391, 3, bw, attraction, a-b-da, 2, 2, 8, 37, 165, 90, 163, 89, 90, 165, 1, 0.957366
391, 3, bw, attraction, a-b-da, 2, 2, 8, 37, 165, 90, 163, 89, 90, 165, 2, 0.933711
