sub_n, computer_n, bw_cond, effect, set, distance, diag, block_n, trial_n, h1, w1, h2, w2, h3, w3, choice, rt 
311, 3, bw, practice, NA, 999, 999, 0, 1, 181, 100, 177, 93, 85, 65, 2, 4.10284
311, 3, bw, practice, NA, 999, 999, 0, 1, 181, 100, 177, 93, 85, 65, 3, 2.73762
311, 3, bw, practice, NA, 999, 999, 0, 2, 107, 58, 168, 171, 160, 172, 2, 6.86173
311, 3, bw, practice, NA, 999, 999, 0, 2, 107, 58, 168, 171, 160, 172, 1, 1.44899
311, 3, bw, practice, NA, 999, 999, 0, 3, 149, 128, 168, 153, 141, 88, 2, 2.58488
311, 3, bw, practice, NA, 999, 999, 0, 3, 149, 128, 168, 153, 141, 88, 3, 1.20838
311, 3, bw, filler, NA, 999, 999, 1, 1, 97, 85, 140, 95, 81, 194, 3, 1.93567
311, 3, bw, filler, NA, 999, 999, 1, 1, 97, 85, 140, 95, 81, 194, 1, 1.32104
311, 3, bw, filler, NA, 999, 999, 1, 2, 140, 140, 75, 115, 150, 167, 3, 1.80194
311, 3, bw, filler, NA, 999, 999, 1, 2, 140, 140, 75, 115, 150, 167, 2, 0.64876
311, 3, bw, filler, NA, 999, 999, 1, 3, 182, 193, 194, 140, 136, 161, 1, 1.44452
311, 3, bw, filler, NA, 999, 999, 1, 3, 182, 193, 194, 140, 136, 161, 3, 0.697338
311, 3, bw, filler, NA, 999, 999, 1, 4, 174, 175, 109, 84, 73, 136, 1, 1.98703
311, 3, bw, filler, NA, 999, 999, 1, 4, 174, 175, 109, 84, 73, 136, 3, 0.762402
311, 3, bw, attraction, a-b-db, 14, 1, 1, 5, 60, 135, 135, 60, 56, 125, 1, 2.54542
311, 3, bw, attraction, a-b-db, 14, 1, 1, 5, 60, 135, 135, 60, 56, 125, 3, 5.53794
311, 3, bw, catch, NA, 999, 999, 1, 6, 129, 126, 188, 127, 65, 130, 2, 1.38477
311, 3, bw, catch, NA, 999, 999, 1, 6, 129, 126, 188, 127, 65, 130, 3, 1.03237
311, 3, bw, attraction, a-b-da, 5, 3, 1, 7, 195, 120, 190, 117, 120, 195, 3, 3.34857
311, 3, bw, attraction, a-b-da, 5, 3, 1, 7, 195, 120, 190, 117, 120, 195, 1, 1.86886
311, 3, bw, filler, NA, 999, 999, 1, 8, 60, 180, 194, 167, 168, 133, 2, 1.35157
311, 3, bw, filler, NA, 999, 999, 1, 8, 60, 180, 194, 167, 168, 133, 1, 0.920646
311, 3, bw, filler, NA, 999, 999, 1, 9, 67, 185, 99, 81, 174, 180, 3, 0.945451
311, 3, bw, filler, NA, 999, 999, 1, 9, 67, 185, 99, 81, 174, 180, 2, 0.578398
311, 3, bw, attraction, a-b-da, 5, 2, 1, 10, 165, 90, 90, 165, 161, 88, 2, 3.98495
311, 3, bw, attraction, a-b-da, 5, 2, 1, 10, 165, 90, 90, 165, 161, 88, 3, 0.999709
311, 3, bw, attraction, a-b-da, 14, 2, 1, 11, 90, 165, 165, 90, 153, 83, 1, 2.50113
311, 3, bw, attraction, a-b-da, 14, 2, 1, 11, 90, 165, 165, 90, 153, 83, 3, 1.01571
311, 3, bw, filler, NA, 999, 999, 1, 12, 122, 64, 79, 132, 126, 168, 3, 1.11682
311, 3, bw, filler, NA, 999, 999, 1, 12, 122, 64, 79, 132, 126, 168, 1, 0.694954
311, 3, bw, attraction, a-b-da, 5, 1, 1, 13, 132, 58, 135, 60, 60, 135, 3, 3.06476
311, 3, bw, attraction, a-b-da, 5, 1, 1, 13, 132, 58, 135, 60, 60, 135, 1, 2.38854
311, 3, bw, attraction, a-b-db, 14, 2, 1, 14, 90, 165, 165, 90, 83, 153, 1, 5.7223
311, 3, bw, attraction, a-b-db, 14, 2, 1, 14, 90, 165, 165, 90, 83, 153, 3, 0.435156
311, 3, bw, attraction, a-b-db, 2, 3, 1, 15, 119, 193, 120, 195, 195, 120, 2, 4.35174
311, 3, bw, attraction, a-b-db, 2, 3, 1, 15, 119, 193, 120, 195, 195, 120, 3, 0.775628
311, 3, bw, attraction, a-b-db, 9, 1, 1, 16, 57, 129, 135, 60, 60, 135, 3, 5.28595
311, 3, bw, attraction, a-b-db, 9, 1, 1, 16, 57, 129, 135, 60, 60, 135, 2, 1.57623
311, 3, bw, catch, NA, 999, 999, 1, 17, 118, 77, 185, 130, 151, 104, 2, 1.1263
311, 3, bw, catch, NA, 999, 999, 1, 17, 118, 77, 185, 130, 151, 104, 1, 0.719975
311, 3, bw, attraction, a-b-da, 2, 3, 1, 18, 120, 195, 193, 119, 195, 120, 1, 2.31296
311, 3, bw, attraction, a-b-da, 2, 3, 1, 18, 120, 195, 193, 119, 195, 120, 3, 1.5071
311, 3, bw, attraction, a-b-da, 2, 1, 1, 19, 135, 60, 60, 135, 134, 59, 2, 2.18776
311, 3, bw, attraction, a-b-da, 2, 1, 1, 19, 135, 60, 60, 135, 134, 59, 1, 1.73919
311, 3, bw, filler, NA, 999, 999, 1, 20, 79, 166, 96, 108, 147, 152, 3, 2.2991
311, 3, bw, filler, NA, 999, 999, 1, 20, 79, 166, 96, 108, 147, 152, 2, 5.14975
311, 3, bw, attraction, a-b-db, 9, 2, 1, 21, 165, 90, 90, 165, 86, 157, 2, 1.58003
311, 3, bw, attraction, a-b-db, 9, 2, 1, 21, 165, 90, 90, 165, 86, 157, 3, 1.00348
311, 3, bw, attraction, a-b-db, 5, 1, 1, 22, 58, 132, 135, 60, 60, 135, 3, 1.81731
311, 3, bw, attraction, a-b-db, 5, 1, 1, 22, 58, 132, 135, 60, 60, 135, 2, 1.00721
311, 3, bw, attraction, a-b-da, 14, 3, 1, 23, 181, 111, 120, 195, 195, 120, 2, 1.79616
311, 3, bw, attraction, a-b-da, 14, 3, 1, 23, 181, 111, 120, 195, 195, 120, 1, 1.57903
311, 3, bw, attraction, a-b-da, 9, 1, 1, 24, 129, 57, 135, 60, 60, 135, 3, 1.52899
311, 3, bw, attraction, a-b-da, 9, 1, 1, 24, 129, 57, 135, 60, 60, 135, 1, 1.40264
311, 3, bw, attraction, a-b-da, 9, 2, 1, 25, 165, 90, 90, 165, 157, 86, 2, 4.20003
311, 3, bw, attraction, a-b-da, 9, 2, 1, 25, 165, 90, 90, 165, 157, 86, 3, 1.43798
311, 3, bw, attraction, a-b-db, 2, 2, 1, 26, 165, 90, 89, 163, 90, 165, 2, 4.91414
311, 3, bw, attraction, a-b-db, 2, 2, 1, 26, 165, 90, 89, 163, 90, 165, 1, 1.5633
311, 3, bw, filler, NA, 999, 999, 1, 27, 134, 128, 129, 195, 193, 139, 2, 1.54615
311, 3, bw, filler, NA, 999, 999, 1, 27, 134, 128, 129, 195, 193, 139, 1, 0.546846
311, 3, bw, attraction, a-b-db, 5, 2, 1, 28, 88, 161, 90, 165, 165, 90, 2, 5.46671
311, 3, bw, attraction, a-b-db, 5, 2, 1, 28, 88, 161, 90, 165, 165, 90, 3, 5.6778
311, 3, bw, attraction, a-b-da, 14, 1, 1, 29, 125, 56, 60, 135, 135, 60, 2, 8.47845
311, 3, bw, attraction, a-b-da, 14, 1, 1, 29, 125, 56, 60, 135, 135, 60, 1, 1.22378
311, 3, bw, catch, NA, 999, 999, 1, 30, 178, 137, 79, 116, 118, 137, 1, 1.34801
311, 3, bw, catch, NA, 999, 999, 1, 30, 178, 137, 79, 116, 118, 137, 2, 1.67688
311, 3, bw, attraction, a-b-da, 9, 3, 1, 31, 120, 195, 186, 114, 195, 120, 1, 4.76688
311, 3, bw, attraction, a-b-da, 9, 3, 1, 31, 120, 195, 186, 114, 195, 120, 2, 0.950115
311, 3, bw, attraction, a-b-db, 9, 3, 1, 32, 195, 120, 114, 186, 120, 195, 3, 9.05378
311, 3, bw, attraction, a-b-db, 9, 3, 1, 32, 195, 120, 114, 186, 120, 195, 1, 1.02414
311, 3, bw, filler, NA, 999, 999, 1, 33, 161, 126, 101, 168, 60, 163, 1, 1.09255
311, 3, bw, filler, NA, 999, 999, 1, 33, 161, 126, 101, 168, 60, 163, 3, 0.727579
311, 3, bw, attraction, a-b-db, 14, 3, 1, 34, 111, 181, 120, 195, 195, 120, 2, 1.75979
311, 3, bw, attraction, a-b-db, 14, 3, 1, 34, 111, 181, 120, 195, 195, 120, 1, 4.43194
311, 3, bw, attraction, a-b-db, 5, 3, 1, 35, 117, 190, 120, 195, 195, 120, 2, 1.73926
311, 3, bw, attraction, a-b-db, 5, 3, 1, 35, 117, 190, 120, 195, 195, 120, 1, 1.15591
311, 3, bw, attraction, a-b-db, 2, 1, 1, 36, 135, 60, 60, 135, 59, 134, 2, 2.20344
311, 3, bw, attraction, a-b-db, 2, 1, 1, 36, 135, 60, 60, 135, 59, 134, 1, 0.986083
311, 3, bw, attraction, a-b-da, 2, 2, 1, 37, 90, 165, 165, 90, 163, 89, 1, 1.9286
311, 3, bw, attraction, a-b-da, 2, 2, 1, 37, 90, 165, 165, 90, 163, 89, 2, 0.897733
311, 3, bw, filler, NA, 999, 999, 2, 1, 123, 100, 175, 128, 166, 172, 3, 3.15555
311, 3, bw, filler, NA, 999, 999, 2, 1, 123, 100, 175, 128, 166, 172, 1, 1.23511
311, 3, bw, attraction, a-b-da, 5, 2, 2, 2, 161, 88, 90, 165, 165, 90, 2, 1.55135
311, 3, bw, attraction, a-b-da, 5, 2, 2, 2, 161, 88, 90, 165, 165, 90, 3, 0.75222
311, 3, bw, attraction, a-b-da, 14, 1, 2, 3, 125, 56, 135, 60, 60, 135, 3, 1.13597
311, 3, bw, attraction, a-b-da, 14, 1, 2, 3, 125, 56, 135, 60, 60, 135, 1, 0.801409
311, 3, bw, attraction, a-b-da, 2, 2, 2, 4, 163, 89, 165, 90, 90, 165, 3, 1.23913
311, 3, bw, attraction, a-b-da, 2, 2, 2, 4, 163, 89, 165, 90, 90, 165, 1, 0.780055
311, 3, bw, attraction, a-b-db, 9, 1, 2, 5, 57, 129, 135, 60, 60, 135, 3, 3.47439
311, 3, bw, attraction, a-b-db, 9, 1, 2, 5, 57, 129, 135, 60, 60, 135, 1, 0.509262
311, 3, bw, filler, NA, 999, 999, 2, 6, 69, 105, 189, 112, 75, 154, 2, 1.19837
311, 3, bw, filler, NA, 999, 999, 2, 6, 69, 105, 189, 112, 75, 154, 1, 0.645471
311, 3, bw, catch, NA, 999, 999, 2, 7, 115, 80, 140, 175, 117, 138, 2, 0.889163
311, 3, bw, catch, NA, 999, 999, 2, 7, 115, 80, 140, 175, 117, 138, 1, 0.500135
311, 3, bw, attraction, a-b-db, 14, 3, 2, 8, 195, 120, 111, 181, 120, 195, 3, 4.75788
311, 3, bw, attraction, a-b-db, 14, 3, 2, 8, 195, 120, 111, 181, 120, 195, 2, 0.757108
311, 3, bw, attraction, a-b-db, 2, 3, 2, 9, 120, 195, 195, 120, 119, 193, 3, 4.39626
311, 3, bw, attraction, a-b-db, 2, 3, 2, 9, 120, 195, 195, 120, 119, 193, 2, 0.922199
311, 3, bw, attraction, a-b-da, 2, 1, 2, 10, 60, 135, 134, 59, 135, 60, 2, 6.65114
311, 3, bw, attraction, a-b-da, 2, 1, 2, 10, 60, 135, 134, 59, 135, 60, 3, 0.534269
311, 3, bw, catch, NA, 999, 999, 2, 11, 186, 129, 145, 110, 79, 116, 1, 2.66266
311, 3, bw, catch, NA, 999, 999, 2, 11, 186, 129, 145, 110, 79, 116, 3, 0.890628
311, 3, bw, filler, NA, 999, 999, 2, 12, 127, 123, 97, 126, 117, 79, 1, 1.26019
311, 3, bw, filler, NA, 999, 999, 2, 12, 127, 123, 97, 126, 117, 79, 3, 1.25641
311, 3, bw, attraction, a-b-da, 5, 1, 2, 13, 60, 135, 132, 58, 135, 60, 3, 2.97208
311, 3, bw, attraction, a-b-da, 5, 1, 2, 13, 60, 135, 132, 58, 135, 60, 1, 1.41173
311, 3, bw, attraction, a-b-db, 2, 1, 2, 14, 60, 135, 135, 60, 59, 134, 3, 1.76054
311, 3, bw, attraction, a-b-db, 2, 1, 2, 14, 60, 135, 135, 60, 59, 134, 2, 2.78474
311, 3, bw, filler, NA, 999, 999, 2, 15, 168, 176, 112, 158, 177, 140, 1, 5.01425
311, 3, bw, filler, NA, 999, 999, 2, 15, 168, 176, 112, 158, 177, 140, 2, 0.58742
311, 3, bw, filler, NA, 999, 999, 2, 16, 182, 177, 171, 104, 112, 87, 1, 1.92184
311, 3, bw, filler, NA, 999, 999, 2, 16, 182, 177, 171, 104, 112, 87, 3, 0.907936
311, 3, bw, attraction, a-b-da, 14, 3, 2, 17, 181, 111, 195, 120, 120, 195, 3, 1.06087
311, 3, bw, attraction, a-b-da, 14, 3, 2, 17, 181, 111, 195, 120, 120, 195, 1, 1.16115
311, 3, bw, attraction, a-b-db, 14, 2, 2, 18, 90, 165, 165, 90, 83, 153, 1, 4.52003
311, 3, bw, attraction, a-b-db, 14, 2, 2, 18, 90, 165, 165, 90, 83, 153, 3, 1.30539
311, 3, bw, filler, NA, 999, 999, 2, 19, 117, 59, 83, 68, 133, 190, 3, 1.21887
311, 3, bw, filler, NA, 999, 999, 2, 19, 117, 59, 83, 68, 133, 190, 2, 5.4653
311, 3, bw, attraction, a-b-da, 14, 2, 2, 20, 165, 90, 153, 83, 90, 165, 3, 2.84271
311, 3, bw, attraction, a-b-da, 14, 2, 2, 20, 165, 90, 153, 83, 90, 165, 2, 0.967092
311, 3, bw, attraction, a-b-db, 9, 3, 2, 21, 114, 186, 195, 120, 120, 195, 3, 1.40607
311, 3, bw, attraction, a-b-db, 9, 3, 2, 21, 114, 186, 195, 120, 120, 195, 1, 5.45231
311, 3, bw, attraction, a-b-da, 5, 3, 2, 22, 195, 120, 120, 195, 190, 117, 1, 6.21451
311, 3, bw, attraction, a-b-da, 5, 3, 2, 22, 195, 120, 120, 195, 190, 117, 3, 1.03524
311, 3, bw, attraction, a-b-db, 5, 2, 2, 23, 88, 161, 165, 90, 90, 165, 3, 1.75954
311, 3, bw, attraction, a-b-db, 5, 2, 2, 23, 88, 161, 165, 90, 90, 165, 1, 3.67152
311, 3, bw, attraction, a-b-da, 9, 3, 2, 24, 186, 114, 120, 195, 195, 120, 2, 1.68174
311, 3, bw, attraction, a-b-da, 9, 3, 2, 24, 186, 114, 120, 195, 195, 120, 1, 0.581236
311, 3, bw, attraction, a-b-da, 2, 3, 2, 25, 195, 120, 193, 119, 120, 195, 3, 1.6676
311, 3, bw, attraction, a-b-da, 2, 3, 2, 25, 195, 120, 193, 119, 120, 195, 1, 4.17574
311, 3, bw, filler, NA, 999, 999, 2, 26, 125, 101, 91, 183, 103, 56, 2, 1.22913
311, 3, bw, filler, NA, 999, 999, 2, 26, 125, 101, 91, 183, 103, 56, 3, 1.26662
311, 3, bw, attraction, a-b-da, 9, 2, 2, 27, 165, 90, 90, 165, 157, 86, 2, 1.47745
311, 3, bw, attraction, a-b-da, 9, 2, 2, 27, 165, 90, 90, 165, 157, 86, 3, 1.041
311, 3, bw, attraction, a-b-db, 14, 1, 2, 28, 56, 125, 60, 135, 135, 60, 2, 2.09255
311, 3, bw, attraction, a-b-db, 14, 1, 2, 28, 56, 125, 60, 135, 135, 60, 1, 1.13523
311, 3, bw, attraction, a-b-db, 5, 1, 2, 29, 60, 135, 135, 60, 58, 132, 2, 7.95147
311, 3, bw, attraction, a-b-db, 5, 1, 2, 29, 60, 135, 135, 60, 58, 132, 1, 1.10231
311, 3, bw, catch, NA, 999, 999, 2, 30, 158, 157, 148, 107, 62, 133, 1, 1.3439
311, 3, bw, catch, NA, 999, 999, 2, 30, 158, 157, 148, 107, 62, 133, 3, 0.952861
311, 3, bw, attraction, a-b-db, 2, 2, 2, 31, 165, 90, 89, 163, 90, 165, 3, 5.14445
311, 3, bw, attraction, a-b-db, 2, 2, 2, 31, 165, 90, 89, 163, 90, 165, 1, 0.64812
311, 3, bw, filler, NA, 999, 999, 2, 32, 72, 170, 110, 68, 134, 140, 3, 0.75592
311, 3, bw, filler, NA, 999, 999, 2, 32, 72, 170, 110, 68, 134, 140, 2, 0.956348
311, 3, bw, attraction, a-b-da, 9, 1, 2, 33, 135, 60, 60, 135, 129, 57, 2, 1.73205
311, 3, bw, attraction, a-b-da, 9, 1, 2, 33, 135, 60, 60, 135, 129, 57, 3, 1.93343
311, 3, bw, filler, NA, 999, 999, 2, 34, 166, 145, 75, 159, 179, 116, 1, 0.909334
311, 3, bw, filler, NA, 999, 999, 2, 34, 166, 145, 75, 159, 179, 116, 2, 2.03175
311, 3, bw, filler, NA, 999, 999, 2, 35, 155, 88, 71, 195, 151, 58, 1, 1.45171
311, 3, bw, filler, NA, 999, 999, 2, 35, 155, 88, 71, 195, 151, 58, 3, 1.72063
311, 3, bw, attraction, a-b-db, 5, 3, 2, 36, 117, 190, 195, 120, 120, 195, 3, 1.23328
311, 3, bw, attraction, a-b-db, 5, 3, 2, 36, 117, 190, 195, 120, 120, 195, 1, 1.34284
311, 3, bw, attraction, a-b-db, 9, 2, 2, 37, 90, 165, 86, 157, 165, 90, 1, 2.15835
311, 3, bw, attraction, a-b-db, 9, 2, 2, 37, 90, 165, 86, 157, 165, 90, 2, 1.68637
311, 3, bw, attraction, a-b-db, 5, 3, 3, 1, 195, 120, 120, 195, 117, 190, 2, 2.14461
311, 3, bw, attraction, a-b-db, 5, 3, 3, 1, 195, 120, 120, 195, 117, 190, 3, 3.35308
311, 3, bw, attraction, a-b-db, 14, 3, 3, 2, 120, 195, 111, 181, 195, 120, 1, 10.368
311, 3, bw, attraction, a-b-db, 14, 3, 3, 2, 120, 195, 111, 181, 195, 120, 2, 1.32554
311, 3, bw, attraction, a-b-da, 2, 1, 3, 3, 60, 135, 134, 59, 135, 60, 2, 7.19755
311, 3, bw, attraction, a-b-da, 2, 1, 3, 3, 60, 135, 134, 59, 135, 60, 1, 0.794706
311, 3, bw, attraction, a-b-da, 14, 3, 3, 4, 181, 111, 120, 195, 195, 120, 2, 2.68828
311, 3, bw, attraction, a-b-da, 14, 3, 3, 4, 181, 111, 120, 195, 195, 120, 1, 2.83495
311, 3, bw, attraction, a-b-db, 2, 2, 3, 5, 165, 90, 90, 165, 89, 163, 3, 5.11055
311, 3, bw, attraction, a-b-db, 2, 2, 3, 5, 165, 90, 90, 165, 89, 163, 1, 1.84757
311, 3, bw, attraction, a-b-db, 14, 2, 3, 6, 83, 153, 90, 165, 165, 90, 2, 3.7949
311, 3, bw, attraction, a-b-db, 14, 2, 3, 6, 83, 153, 90, 165, 165, 90, 1, 1.84905
311, 3, bw, attraction, a-b-db, 14, 1, 3, 7, 135, 60, 56, 125, 60, 135, 3, 4.02848
311, 3, bw, attraction, a-b-db, 14, 1, 3, 7, 135, 60, 56, 125, 60, 135, 2, 1.24914
311, 3, bw, filler, NA, 999, 999, 3, 8, 72, 104, 145, 126, 79, 116, 2, 0.852818
311, 3, bw, filler, NA, 999, 999, 3, 8, 72, 104, 145, 126, 79, 116, 1, 1.78581
311, 3, bw, attraction, a-b-da, 5, 1, 3, 9, 60, 135, 132, 58, 135, 60, 1, 2.4
311, 3, bw, attraction, a-b-da, 5, 1, 3, 9, 60, 135, 132, 58, 135, 60, 2, 0.966373
311, 3, bw, filler, NA, 999, 999, 3, 10, 170, 134, 127, 156, 185, 135, 3, 3.03736
311, 3, bw, filler, NA, 999, 999, 3, 10, 170, 134, 127, 156, 185, 135, 2, 10.4503
311, 3, bw, attraction, a-b-da, 5, 2, 3, 11, 90, 165, 165, 90, 161, 88, 1, 3.85101
311, 3, bw, attraction, a-b-da, 5, 2, 3, 11, 90, 165, 165, 90, 161, 88, 2, 2.34311
311, 3, bw, filler, NA, 999, 999, 3, 12, 149, 144, 99, 146, 91, 123, 1, 1.06232
311, 3, bw, filler, NA, 999, 999, 3, 12, 149, 144, 99, 146, 91, 123, 3, 0.970669
311, 3, bw, attraction, a-b-db, 5, 2, 3, 13, 90, 165, 165, 90, 88, 161, 3, 1.8177
311, 3, bw, attraction, a-b-db, 5, 2, 3, 13, 90, 165, 165, 90, 88, 161, 1, 0.823796
311, 3, bw, attraction, a-b-da, 2, 2, 3, 14, 163, 89, 90, 165, 165, 90, 2, 4.64405
311, 3, bw, attraction, a-b-da, 2, 2, 3, 14, 163, 89, 90, 165, 165, 90, 1, 0.706806
311, 3, bw, attraction, a-b-da, 14, 1, 3, 15, 60, 135, 135, 60, 125, 56, 1, 3.3129
311, 3, bw, attraction, a-b-da, 14, 1, 3, 15, 60, 135, 135, 60, 125, 56, 3, 0.6825
311, 3, bw, filler, NA, 999, 999, 3, 16, 130, 171, 70, 130, 138, 172, 3, 1.10888
311, 3, bw, filler, NA, 999, 999, 3, 16, 130, 171, 70, 130, 138, 172, 2, 0.703223
311, 3, bw, attraction, a-b-db, 9, 3, 3, 17, 120, 195, 114, 186, 195, 120, 1, 5.36894
311, 3, bw, attraction, a-b-db, 9, 3, 3, 17, 120, 195, 114, 186, 195, 120, 2, 0.711934
311, 3, bw, filler, NA, 999, 999, 3, 18, 176, 181, 64, 174, 187, 185, 3, 1.1529
311, 3, bw, filler, NA, 999, 999, 3, 18, 176, 181, 64, 174, 187, 185, 2, 0.505897
311, 3, bw, attraction, a-b-da, 9, 3, 3, 19, 195, 120, 186, 114, 120, 195, 3, 1.64376
311, 3, bw, attraction, a-b-da, 9, 3, 3, 19, 195, 120, 186, 114, 120, 195, 2, 1.23248
311, 3, bw, attraction, a-b-db, 2, 3, 3, 20, 120, 195, 119, 193, 195, 120, 2, 3.56469
311, 3, bw, attraction, a-b-db, 2, 3, 3, 20, 120, 195, 119, 193, 195, 120, 3, 1.36423
311, 3, bw, filler, NA, 999, 999, 3, 21, 178, 136, 63, 102, 130, 126, 1, 1.69112
311, 3, bw, filler, NA, 999, 999, 3, 21, 178, 136, 63, 102, 130, 126, 2, 1.34189
311, 3, bw, filler, NA, 999, 999, 3, 22, 111, 148, 76, 130, 180, 65, 1, 1.57333
311, 3, bw, filler, NA, 999, 999, 3, 22, 111, 148, 76, 130, 180, 65, 2, 1.43682
311, 3, bw, catch, NA, 999, 999, 3, 23, 89, 106, 123, 192, 143, 112, 2, 2.29698
311, 3, bw, catch, NA, 999, 999, 3, 23, 89, 106, 123, 192, 143, 112, 1, 1.07563
311, 3, bw, attraction, a-b-da, 9, 1, 3, 24, 135, 60, 129, 57, 60, 135, 3, 2.3819
311, 3, bw, attraction, a-b-da, 9, 1, 3, 24, 135, 60, 129, 57, 60, 135, 2, 0.773197
311, 3, bw, attraction, a-b-db, 2, 1, 3, 25, 135, 60, 60, 135, 59, 134, 3, 4.04422
311, 3, bw, attraction, a-b-db, 2, 1, 3, 25, 135, 60, 60, 135, 59, 134, 2, 2.96018
311, 3, bw, attraction, a-b-da, 5, 3, 3, 26, 120, 195, 190, 117, 195, 120, 1, 2.51059
311, 3, bw, attraction, a-b-da, 5, 3, 3, 26, 120, 195, 190, 117, 195, 120, 2, 0.984403
311, 3, bw, filler, NA, 999, 999, 3, 27, 126, 69, 99, 116, 184, 127, 3, 1.58287
311, 3, bw, filler, NA, 999, 999, 3, 27, 126, 69, 99, 116, 184, 127, 1, 0.662184
311, 3, bw, attraction, a-b-db, 5, 1, 3, 28, 60, 135, 135, 60, 58, 132, 3, 3.4253
311, 3, bw, attraction, a-b-db, 5, 1, 3, 28, 60, 135, 135, 60, 58, 132, 1, 0.950104
311, 3, bw, filler, NA, 999, 999, 3, 29, 174, 174, 59, 106, 187, 166, 1, 1.62181
311, 3, bw, filler, NA, 999, 999, 3, 29, 174, 174, 59, 106, 187, 166, 2, 0.940977
311, 3, bw, catch, NA, 999, 999, 3, 30, 96, 99, 187, 128, 109, 146, 2, 1.48285
311, 3, bw, catch, NA, 999, 999, 3, 30, 96, 99, 187, 128, 109, 146, 1, 0.406438
311, 3, bw, attraction, a-b-da, 2, 3, 3, 31, 120, 195, 193, 119, 195, 120, 1, 8.32428
311, 3, bw, attraction, a-b-da, 2, 3, 3, 31, 120, 195, 193, 119, 195, 120, 3, 0.547777
311, 3, bw, attraction, a-b-db, 9, 2, 3, 32, 86, 157, 165, 90, 90, 165, 3, 1.72349
311, 3, bw, attraction, a-b-db, 9, 2, 3, 32, 86, 157, 165, 90, 90, 165, 2, 0.67688
311, 3, bw, attraction, a-b-db, 9, 1, 3, 33, 57, 129, 135, 60, 60, 135, 2, 2.32721
311, 3, bw, attraction, a-b-db, 9, 1, 3, 33, 57, 129, 135, 60, 60, 135, 1, 1.75251
311, 3, bw, attraction, a-b-da, 14, 2, 3, 34, 153, 83, 165, 90, 90, 165, 2, 1.98387
311, 3, bw, attraction, a-b-da, 14, 2, 3, 34, 153, 83, 165, 90, 90, 165, 1, 0.479247
311, 3, bw, attraction, a-b-da, 9, 2, 3, 35, 157, 86, 90, 165, 165, 90, 3, 4.16961
311, 3, bw, attraction, a-b-da, 9, 2, 3, 35, 157, 86, 90, 165, 165, 90, 1, 0.560977
311, 3, bw, filler, NA, 999, 999, 3, 36, 185, 131, 126, 63, 62, 62, 1, 2.04008
311, 3, bw, filler, NA, 999, 999, 3, 36, 185, 131, 126, 63, 62, 62, 3, 1.41271
311, 3, bw, catch, NA, 999, 999, 3, 37, 135, 60, 105, 150, 162, 153, 3, 0.705661
311, 3, bw, catch, NA, 999, 999, 3, 37, 135, 60, 105, 150, 162, 153, 1, 0.636118
311, 3, bw, filler, NA, 999, 999, 4, 1, 117, 113, 170, 188, 157, 108, 2, 0.72835
311, 3, bw, filler, NA, 999, 999, 4, 1, 117, 113, 170, 188, 157, 108, 1, 2.12215
311, 3, bw, attraction, a-b-da, 2, 2, 4, 2, 90, 165, 165, 90, 163, 89, 1, 1.90674
311, 3, bw, attraction, a-b-da, 2, 2, 4, 2, 90, 165, 165, 90, 163, 89, 3, 0.700878
311, 3, bw, catch, NA, 999, 999, 4, 3, 175, 140, 104, 151, 65, 130, 1, 0.606536
311, 3, bw, catch, NA, 999, 999, 4, 3, 175, 140, 104, 151, 65, 130, 3, 0.663235
311, 3, bw, attraction, a-b-db, 14, 2, 4, 4, 90, 165, 165, 90, 83, 153, 1, 1.50402
311, 3, bw, attraction, a-b-db, 14, 2, 4, 4, 90, 165, 165, 90, 83, 153, 3, 0.57895
311, 3, bw, attraction, a-b-da, 5, 3, 4, 5, 190, 117, 195, 120, 120, 195, 3, 2.52142
311, 3, bw, attraction, a-b-da, 5, 3, 4, 5, 190, 117, 195, 120, 120, 195, 2, 1.0272
311, 3, bw, attraction, a-b-db, 5, 3, 4, 6, 117, 190, 120, 195, 195, 120, 1, 1.82344
311, 3, bw, attraction, a-b-db, 5, 3, 4, 6, 117, 190, 120, 195, 195, 120, 3, 1.02894
311, 3, bw, filler, NA, 999, 999, 4, 7, 61, 120, 60, 152, 164, 103, 3, 0.905121
311, 3, bw, filler, NA, 999, 999, 4, 7, 61, 120, 60, 152, 164, 103, 1, 0.587546
311, 3, bw, filler, NA, 999, 999, 4, 8, 177, 114, 136, 132, 179, 138, 3, 1.48196
311, 3, bw, filler, NA, 999, 999, 4, 8, 177, 114, 136, 132, 179, 138, 1, 5.21359
311, 3, bw, attraction, a-b-db, 14, 1, 4, 9, 56, 125, 60, 135, 135, 60, 2, 2.09708
311, 3, bw, attraction, a-b-db, 14, 1, 4, 9, 56, 125, 60, 135, 135, 60, 1, 1.89985
311, 3, bw, attraction, a-b-da, 2, 3, 4, 10, 193, 119, 120, 195, 195, 120, 2, 1.54104
311, 3, bw, attraction, a-b-da, 2, 3, 4, 10, 193, 119, 120, 195, 195, 120, 3, 1.37396
311, 3, bw, attraction, a-b-da, 14, 3, 4, 11, 120, 195, 195, 120, 181, 111, 2, 2.30008
311, 3, bw, attraction, a-b-da, 14, 3, 4, 11, 120, 195, 195, 120, 181, 111, 3, 1.23871
311, 3, bw, attraction, a-b-da, 9, 2, 4, 12, 165, 90, 90, 165, 157, 86, 2, 1.43493
311, 3, bw, attraction, a-b-da, 9, 2, 4, 12, 165, 90, 90, 165, 157, 86, 3, 0.968487
311, 3, bw, attraction, a-b-db, 2, 3, 4, 13, 120, 195, 195, 120, 119, 193, 3, 4.02344
311, 3, bw, attraction, a-b-db, 2, 3, 4, 13, 120, 195, 195, 120, 119, 193, 1, 2.87622
311, 3, bw, filler, NA, 999, 999, 4, 14, 183, 76, 163, 158, 129, 133, 2, 0.989838
311, 3, bw, filler, NA, 999, 999, 4, 14, 183, 76, 163, 158, 129, 133, 1, 2.72478
311, 3, bw, filler, NA, 999, 999, 4, 15, 79, 132, 124, 111, 70, 59, 2, 1.89251
311, 3, bw, filler, NA, 999, 999, 4, 15, 79, 132, 124, 111, 70, 59, 3, 2.1913
311, 3, bw, attraction, a-b-da, 5, 2, 4, 16, 165, 90, 161, 88, 90, 165, 3, 2.8125
311, 3, bw, attraction, a-b-da, 5, 2, 4, 16, 165, 90, 161, 88, 90, 165, 1, 0.610417
311, 3, bw, filler, NA, 999, 999, 4, 17, 87, 128, 138, 184, 68, 185, 2, 0.776004
311, 3, bw, filler, NA, 999, 999, 4, 17, 87, 128, 138, 184, 68, 185, 1, 2.77537
311, 3, bw, attraction, a-b-db, 14, 3, 4, 18, 120, 195, 195, 120, 111, 181, 1, 1.28492
311, 3, bw, attraction, a-b-db, 14, 3, 4, 18, 120, 195, 195, 120, 111, 181, 3, 0.536689
311, 3, bw, attraction, a-b-db, 9, 3, 4, 19, 114, 186, 120, 195, 195, 120, 2, 1.51293
311, 3, bw, attraction, a-b-db, 9, 3, 4, 19, 114, 186, 120, 195, 195, 120, 1, 1.00305
311, 3, bw, catch, NA, 999, 999, 4, 20, 139, 176, 126, 69, 130, 125, 1, 1.47271
311, 3, bw, catch, NA, 999, 999, 4, 20, 139, 176, 126, 69, 130, 125, 2, 0.604635
311, 3, bw, attraction, a-b-db, 9, 2, 4, 21, 86, 157, 165, 90, 90, 165, 3, 1.9059
311, 3, bw, attraction, a-b-db, 9, 2, 4, 21, 86, 157, 165, 90, 90, 165, 1, 0.707923
311, 3, bw, filler, NA, 999, 999, 4, 22, 61, 90, 93, 116, 182, 195, 3, 0.541141
311, 3, bw, filler, NA, 999, 999, 4, 22, 61, 90, 93, 116, 182, 195, 1, 0.510154
311, 3, bw, attraction, a-b-da, 5, 1, 4, 23, 132, 58, 60, 135, 135, 60, 2, 1.40723
311, 3, bw, attraction, a-b-da, 5, 1, 4, 23, 132, 58, 60, 135, 135, 60, 3, 0.805514
311, 3, bw, attraction, a-b-db, 2, 1, 4, 24, 60, 135, 135, 60, 59, 134, 1, 2.66729
311, 3, bw, attraction, a-b-db, 2, 1, 4, 24, 60, 135, 135, 60, 59, 134, 2, 1.0629
311, 3, bw, attraction, a-b-db, 5, 1, 4, 25, 58, 132, 135, 60, 60, 135, 3, 1.25801
311, 3, bw, attraction, a-b-db, 5, 1, 4, 25, 58, 132, 135, 60, 60, 135, 1, 0.758178
311, 3, bw, attraction, a-b-da, 14, 2, 4, 26, 165, 90, 153, 83, 90, 165, 3, 3.34121
311, 3, bw, attraction, a-b-da, 14, 2, 4, 26, 165, 90, 153, 83, 90, 165, 2, 0.469434
311, 3, bw, attraction, a-b-db, 2, 2, 4, 27, 90, 165, 165, 90, 89, 163, 3, 3.3127
311, 3, bw, attraction, a-b-db, 2, 2, 4, 27, 90, 165, 165, 90, 89, 163, 1, 0.562209
311, 3, bw, attraction, a-b-da, 9, 3, 4, 28, 186, 114, 195, 120, 120, 195, 2, 1.87337
311, 3, bw, attraction, a-b-da, 9, 3, 4, 28, 186, 114, 195, 120, 120, 195, 1, 0.564674
311, 3, bw, filler, NA, 999, 999, 4, 29, 189, 105, 164, 146, 144, 164, 2, 1.14777
311, 3, bw, filler, NA, 999, 999, 4, 29, 189, 105, 164, 146, 144, 164, 1, 1.78082
311, 3, bw, attraction, a-b-db, 9, 1, 4, 30, 135, 60, 60, 135, 57, 129, 2, 1.1388
311, 3, bw, attraction, a-b-db, 9, 1, 4, 30, 135, 60, 60, 135, 57, 129, 3, 1.00373
311, 3, bw, filler, NA, 999, 999, 4, 31, 118, 165, 99, 68, 84, 190, 1, 5.54539
311, 3, bw, filler, NA, 999, 999, 4, 31, 118, 165, 99, 68, 84, 190, 2, 0.456984
311, 3, bw, attraction, a-b-da, 2, 1, 4, 32, 134, 59, 135, 60, 60, 135, 2, 7.95607
311, 3, bw, attraction, a-b-da, 2, 1, 4, 32, 134, 59, 135, 60, 60, 135, 1, 0.682917
311, 3, bw, filler, NA, 999, 999, 4, 33, 114, 164, 60, 142, 182, 72, 1, 1.4612
311, 3, bw, filler, NA, 999, 999, 4, 33, 114, 164, 60, 142, 182, 72, 2, 0.625516
311, 3, bw, attraction, a-b-da, 14, 1, 4, 34, 125, 56, 135, 60, 60, 135, 3, 1.83799
311, 3, bw, attraction, a-b-da, 14, 1, 4, 34, 125, 56, 135, 60, 60, 135, 1, 1.61125
311, 3, bw, attraction, a-b-db, 5, 2, 4, 35, 90, 165, 88, 161, 165, 90, 2, 8.7361
311, 3, bw, attraction, a-b-db, 5, 2, 4, 35, 90, 165, 88, 161, 165, 90, 3, 1.05533
311, 3, bw, attraction, a-b-da, 9, 1, 4, 36, 135, 60, 129, 57, 60, 135, 3, 1.75495
311, 3, bw, attraction, a-b-da, 9, 1, 4, 36, 135, 60, 129, 57, 60, 135, 2, 0.466992
311, 3, bw, catch, NA, 999, 999, 4, 37, 110, 85, 102, 153, 142, 173, 3, 0.67016
311, 3, bw, catch, NA, 999, 999, 4, 37, 110, 85, 102, 153, 142, 173, 1, 0.666577
311, 3, bw, attraction, a-b-db, 9, 1, 5, 1, 135, 60, 60, 135, 57, 129, 2, 2.62846
311, 3, bw, attraction, a-b-db, 9, 1, 5, 1, 135, 60, 60, 135, 57, 129, 3, 0.897523
311, 3, bw, attraction, a-b-db, 14, 3, 5, 2, 111, 181, 195, 120, 120, 195, 3, 0.995168
311, 3, bw, attraction, a-b-db, 14, 3, 5, 2, 111, 181, 195, 120, 120, 195, 1, 0.586089
311, 3, bw, attraction, a-b-da, 9, 2, 5, 3, 157, 86, 165, 90, 90, 165, 3, 2.30451
311, 3, bw, attraction, a-b-da, 9, 2, 5, 3, 157, 86, 165, 90, 90, 165, 1, 0.851063
311, 3, bw, attraction, a-b-da, 9, 3, 5, 4, 195, 120, 120, 195, 186, 114, 2, 1.04672
311, 3, bw, attraction, a-b-da, 9, 3, 5, 4, 195, 120, 120, 195, 186, 114, 3, 0.507727
311, 3, bw, catch, NA, 999, 999, 5, 5, 148, 107, 60, 135, 125, 190, 3, 0.740872
311, 3, bw, catch, NA, 999, 999, 5, 5, 148, 107, 60, 135, 125, 190, 2, 0.421956
311, 3, bw, filler, NA, 999, 999, 5, 6, 83, 56, 99, 92, 107, 105, 3, 0.843075
311, 3, bw, filler, NA, 999, 999, 5, 6, 83, 56, 99, 92, 107, 105, 1, 0.680222
311, 3, bw, attraction, a-b-db, 2, 3, 5, 7, 195, 120, 120, 195, 119, 193, 3, 1.46652
311, 3, bw, attraction, a-b-db, 2, 3, 5, 7, 195, 120, 120, 195, 119, 193, 1, 0.62268
311, 3, bw, attraction, a-b-db, 5, 3, 5, 8, 195, 120, 117, 190, 120, 195, 2, 1.05985
311, 3, bw, attraction, a-b-db, 5, 3, 5, 8, 195, 120, 117, 190, 120, 195, 1, 0.488088
311, 3, bw, filler, NA, 999, 999, 5, 9, 105, 112, 144, 132, 83, 156, 2, 1.06652
311, 3, bw, filler, NA, 999, 999, 5, 9, 105, 112, 144, 132, 83, 156, 1, 0.694834
311, 3, bw, attraction, a-b-da, 14, 3, 5, 10, 195, 120, 120, 195, 181, 111, 2, 1.00065
311, 3, bw, attraction, a-b-da, 14, 3, 5, 10, 195, 120, 120, 195, 181, 111, 3, 0.407577
311, 3, bw, filler, NA, 999, 999, 5, 11, 190, 56, 115, 127, 175, 118, 3, 2.40473
311, 3, bw, filler, NA, 999, 999, 5, 11, 190, 56, 115, 127, 175, 118, 1, 1.87535
311, 3, bw, attraction, a-b-da, 5, 2, 5, 12, 161, 88, 165, 90, 90, 165, 3, 6.08539
311, 3, bw, attraction, a-b-da, 5, 2, 5, 12, 161, 88, 165, 90, 90, 165, 1, 0.423288
311, 3, bw, attraction, a-b-db, 14, 2, 5, 13, 90, 165, 165, 90, 83, 153, 1, 2.84377
311, 3, bw, attraction, a-b-db, 14, 2, 5, 13, 90, 165, 165, 90, 83, 153, 3, 0.744293
311, 3, bw, filler, NA, 999, 999, 5, 14, 79, 63, 135, 122, 72, 90, 2, 2.05602
311, 3, bw, filler, NA, 999, 999, 5, 14, 79, 63, 135, 122, 72, 90, 1, 0.507933
311, 3, bw, attraction, a-b-db, 5, 1, 5, 15, 60, 135, 135, 60, 58, 132, 2, 5.78916
311, 3, bw, attraction, a-b-db, 5, 1, 5, 15, 60, 135, 135, 60, 58, 132, 1, 1.19523
311, 3, bw, attraction, a-b-da, 14, 1, 5, 16, 60, 135, 135, 60, 125, 56, 2, 1.4249
311, 3, bw, attraction, a-b-da, 14, 1, 5, 16, 60, 135, 135, 60, 125, 56, 1, 0.718394
311, 3, bw, filler, NA, 999, 999, 5, 17, 194, 135, 140, 102, 193, 60, 1, 0.84735
311, 3, bw, filler, NA, 999, 999, 5, 17, 194, 135, 140, 102, 193, 60, 3, 1.84462
311, 3, bw, attraction, a-b-db, 9, 3, 5, 18, 195, 120, 114, 186, 120, 195, 3, 2.1118
311, 3, bw, attraction, a-b-db, 9, 3, 5, 18, 195, 120, 114, 186, 120, 195, 2, 1.84976
311, 3, bw, filler, NA, 999, 999, 5, 19, 135, 142, 177, 78, 117, 130, 1, 4.07719
311, 3, bw, filler, NA, 999, 999, 5, 19, 135, 142, 177, 78, 117, 130, 2, 0.871783
311, 3, bw, filler, NA, 999, 999, 5, 20, 85, 166, 110, 161, 118, 170, 3, 1.75486
311, 3, bw, filler, NA, 999, 999, 5, 20, 85, 166, 110, 161, 118, 170, 1, 0.979573
311, 3, bw, attraction, a-b-db, 5, 2, 5, 21, 90, 165, 88, 161, 165, 90, 3, 4.50596
311, 3, bw, attraction, a-b-db, 5, 2, 5, 21, 90, 165, 88, 161, 165, 90, 2, 3.41115
311, 3, bw, filler, NA, 999, 999, 5, 22, 83, 171, 139, 175, 127, 195, 3, 2.01526
311, 3, bw, filler, NA, 999, 999, 5, 22, 83, 171, 139, 175, 127, 195, 1, 1.30938
311, 3, bw, attraction, a-b-db, 14, 1, 5, 23, 135, 60, 56, 125, 60, 135, 3, 1.46218
311, 3, bw, attraction, a-b-db, 14, 1, 5, 23, 135, 60, 56, 125, 60, 135, 1, 1.04245
311, 3, bw, attraction, a-b-db, 2, 2, 5, 24, 90, 165, 89, 163, 165, 90, 3, 3.31011
311, 3, bw, attraction, a-b-db, 2, 2, 5, 24, 90, 165, 89, 163, 165, 90, 2, 0.839693
311, 3, bw, attraction, a-b-db, 2, 1, 5, 25, 135, 60, 59, 134, 60, 135, 3, 1.47595
311, 3, bw, attraction, a-b-db, 2, 1, 5, 25, 135, 60, 59, 134, 60, 135, 1, 0.551471
311, 3, bw, attraction, a-b-da, 9, 1, 5, 26, 60, 135, 135, 60, 129, 57, 1, 1.51916
311, 3, bw, attraction, a-b-da, 9, 1, 5, 26, 60, 135, 135, 60, 129, 57, 3, 0.569448
311, 3, bw, attraction, a-b-da, 5, 1, 5, 27, 132, 58, 135, 60, 60, 135, 3, 1.82464
311, 3, bw, attraction, a-b-da, 5, 1, 5, 27, 132, 58, 135, 60, 60, 135, 1, 0.629895
311, 3, bw, attraction, a-b-da, 5, 3, 5, 28, 195, 120, 190, 117, 120, 195, 2, 2.10628
311, 3, bw, attraction, a-b-da, 5, 3, 5, 28, 195, 120, 190, 117, 120, 195, 3, 0.844345
311, 3, bw, attraction, a-b-db, 9, 2, 5, 29, 86, 157, 165, 90, 90, 165, 3, 2.37605
311, 3, bw, attraction, a-b-db, 9, 2, 5, 29, 86, 157, 165, 90, 90, 165, 1, 0.463308
311, 3, bw, filler, NA, 999, 999, 5, 30, 102, 166, 133, 171, 116, 158, 2, 1.13038
311, 3, bw, filler, NA, 999, 999, 5, 30, 102, 166, 133, 171, 116, 158, 1, 0.63602
311, 3, bw, attraction, a-b-da, 2, 2, 5, 31, 90, 165, 163, 89, 165, 90, 1, 6.2884
311, 3, bw, attraction, a-b-da, 2, 2, 5, 31, 90, 165, 163, 89, 165, 90, 3, 0.6904
311, 3, bw, catch, NA, 999, 999, 5, 32, 161, 154, 111, 144, 62, 133, 1, 1.04379
311, 3, bw, catch, NA, 999, 999, 5, 32, 161, 154, 111, 144, 62, 133, 3, 0.345017
311, 3, bw, catch, NA, 999, 999, 5, 33, 141, 174, 113, 142, 88, 107, 1, 0.5209
311, 3, bw, catch, NA, 999, 999, 5, 33, 141, 174, 113, 142, 88, 107, 3, 0.411396
311, 3, bw, attraction, a-b-da, 2, 1, 5, 34, 135, 60, 134, 59, 60, 135, 3, 1.55256
311, 3, bw, attraction, a-b-da, 2, 1, 5, 34, 135, 60, 134, 59, 60, 135, 2, 0.489316
311, 3, bw, attraction, a-b-da, 2, 3, 5, 35, 193, 119, 195, 120, 120, 195, 3, 2.01179
311, 3, bw, attraction, a-b-da, 2, 3, 5, 35, 193, 119, 195, 120, 120, 195, 1, 0.513824
311, 3, bw, attraction, a-b-da, 14, 2, 5, 36, 165, 90, 153, 83, 90, 165, 3, 1.55487
311, 3, bw, attraction, a-b-da, 14, 2, 5, 36, 165, 90, 153, 83, 90, 165, 2, 0.643922
311, 3, bw, filler, NA, 999, 999, 5, 37, 142, 180, 190, 62, 62, 187, 1, 1.16755
311, 3, bw, filler, NA, 999, 999, 5, 37, 142, 180, 190, 62, 62, 187, 2, 13.2158
311, 3, bw, attraction, a-b-db, 5, 1, 6, 1, 60, 135, 135, 60, 58, 132, 1, 4.05694
311, 3, bw, attraction, a-b-db, 5, 1, 6, 1, 60, 135, 135, 60, 58, 132, 3, 0.756265
311, 3, bw, attraction, a-b-db, 14, 1, 6, 2, 135, 60, 56, 125, 60, 135, 3, 1.36406
311, 3, bw, attraction, a-b-db, 14, 1, 6, 2, 135, 60, 56, 125, 60, 135, 2, 0.972218
311, 3, bw, attraction, a-b-da, 5, 3, 6, 3, 120, 195, 195, 120, 190, 117, 1, 2.72317
311, 3, bw, attraction, a-b-da, 5, 3, 6, 3, 120, 195, 195, 120, 190, 117, 3, 0.860356
311, 3, bw, attraction, a-b-da, 14, 2, 6, 4, 165, 90, 90, 165, 153, 83, 2, 1.84732
311, 3, bw, attraction, a-b-da, 14, 2, 6, 4, 165, 90, 90, 165, 153, 83, 3, 0.636082
311, 3, bw, attraction, a-b-da, 9, 1, 6, 5, 135, 60, 129, 57, 60, 135, 3, 1.40853
311, 3, bw, attraction, a-b-da, 9, 1, 6, 5, 135, 60, 129, 57, 60, 135, 2, 0.582758
311, 3, bw, attraction, a-b-da, 5, 1, 6, 6, 60, 135, 135, 60, 132, 58, 1, 1.63709
311, 3, bw, attraction, a-b-da, 5, 1, 6, 6, 60, 135, 135, 60, 132, 58, 3, 1.20254
311, 3, bw, filler, NA, 999, 999, 6, 7, 104, 120, 145, 72, 93, 57, 1, 8.04809
311, 3, bw, filler, NA, 999, 999, 6, 7, 104, 120, 145, 72, 93, 57, 3, 0.875022
311, 3, bw, attraction, a-b-db, 2, 1, 6, 8, 59, 134, 135, 60, 60, 135, 3, 1.3172
311, 3, bw, attraction, a-b-db, 2, 1, 6, 8, 59, 134, 135, 60, 60, 135, 2, 0.631455
311, 3, bw, filler, NA, 999, 999, 6, 9, 65, 67, 195, 129, 109, 90, 2, 0.803853
311, 3, bw, filler, NA, 999, 999, 6, 9, 65, 67, 195, 129, 109, 90, 1, 0.978939
311, 3, bw, attraction, a-b-db, 2, 2, 6, 10, 89, 163, 165, 90, 90, 165, 1, 1.37726
311, 3, bw, attraction, a-b-db, 2, 2, 6, 10, 89, 163, 165, 90, 90, 165, 2, 0.536826
311, 3, bw, filler, NA, 999, 999, 6, 11, 174, 171, 103, 135, 98, 119, 1, 0.825187
311, 3, bw, filler, NA, 999, 999, 6, 11, 174, 171, 103, 135, 98, 119, 3, 0.711067
311, 3, bw, filler, NA, 999, 999, 6, 12, 178, 110, 101, 102, 97, 145, 1, 0.999923
311, 3, bw, filler, NA, 999, 999, 6, 12, 178, 110, 101, 102, 97, 145, 2, 0.630937
311, 3, bw, filler, NA, 999, 999, 6, 13, 121, 121, 111, 90, 79, 110, 1, 0.667344
311, 3, bw, filler, NA, 999, 999, 6, 13, 121, 121, 111, 90, 79, 110, 3, 0.584023
311, 3, bw, attraction, a-b-da, 5, 2, 6, 14, 165, 90, 161, 88, 90, 165, 3, 1.55023
311, 3, bw, attraction, a-b-da, 5, 2, 6, 14, 165, 90, 161, 88, 90, 165, 1, 0.751069
311, 3, bw, attraction, a-b-db, 9, 3, 6, 15, 114, 186, 120, 195, 195, 120, 2, 2.19875
311, 3, bw, attraction, a-b-db, 9, 3, 6, 15, 114, 186, 120, 195, 195, 120, 1, 0.49343
311, 3, bw, attraction, a-b-da, 14, 3, 6, 16, 195, 120, 181, 111, 120, 195, 2, 2.13513
311, 3, bw, attraction, a-b-da, 14, 3, 6, 16, 195, 120, 181, 111, 120, 195, 1, 0.408465
311, 3, bw, catch, NA, 999, 999, 6, 17, 123, 192, 96, 99, 152, 103, 1, 1.50964
311, 3, bw, catch, NA, 999, 999, 6, 17, 123, 192, 96, 99, 152, 103, 2, 0.415793
311, 3, bw, catch, NA, 999, 999, 6, 18, 194, 121, 148, 107, 73, 122, 1, 1.10895
311, 3, bw, catch, NA, 999, 999, 6, 18, 194, 121, 148, 107, 73, 122, 3, 0.631208
311, 3, bw, filler, NA, 999, 999, 6, 19, 175, 139, 102, 165, 77, 61, 1, 1.56375
311, 3, bw, filler, NA, 999, 999, 6, 19, 175, 139, 102, 165, 77, 61, 3, 0.715891
311, 3, bw, attraction, a-b-da, 9, 2, 6, 20, 157, 86, 165, 90, 90, 165, 2, 1.56488
311, 3, bw, attraction, a-b-da, 9, 2, 6, 20, 157, 86, 165, 90, 90, 165, 1, 0.557092
311, 3, bw, attraction, a-b-da, 2, 1, 6, 21, 134, 59, 60, 135, 135, 60, 3, 2.26009
311, 3, bw, attraction, a-b-da, 2, 1, 6, 21, 134, 59, 60, 135, 135, 60, 1, 1.07204
311, 3, bw, attraction, a-b-db, 2, 3, 6, 22, 120, 195, 119, 193, 195, 120, 3, 2.60315
311, 3, bw, attraction, a-b-db, 2, 3, 6, 22, 120, 195, 119, 193, 195, 120, 1, 2.0015
311, 3, bw, attraction, a-b-db, 14, 2, 6, 23, 83, 153, 90, 165, 165, 90, 3, 1.62283
311, 3, bw, attraction, a-b-db, 14, 2, 6, 23, 83, 153, 90, 165, 165, 90, 1, 0.668336
311, 3, bw, filler, NA, 999, 999, 6, 24, 69, 66, 58, 149, 82, 106, 3, 1.02331
311, 3, bw, filler, NA, 999, 999, 6, 24, 69, 66, 58, 149, 82, 106, 1, 0.709
311, 3, bw, attraction, a-b-da, 14, 1, 6, 25, 135, 60, 60, 135, 125, 56, 2, 2.81398
311, 3, bw, attraction, a-b-da, 14, 1, 6, 25, 135, 60, 60, 135, 125, 56, 3, 1.01982
311, 3, bw, attraction, a-b-da, 2, 3, 6, 26, 195, 120, 193, 119, 120, 195, 2, 2.03282
311, 3, bw, attraction, a-b-da, 2, 3, 6, 26, 195, 120, 193, 119, 120, 195, 1, 1.10228
311, 3, bw, attraction, a-b-da, 2, 2, 6, 27, 165, 90, 90, 165, 163, 89, 2, 3.34373
311, 3, bw, attraction, a-b-da, 2, 2, 6, 27, 165, 90, 90, 165, 163, 89, 1, 0.703985
311, 3, bw, attraction, a-b-db, 14, 3, 6, 28, 111, 181, 195, 120, 120, 195, 3, 0.913749
311, 3, bw, attraction, a-b-db, 14, 3, 6, 28, 111, 181, 195, 120, 120, 195, 1, 0.564097
311, 3, bw, filler, NA, 999, 999, 6, 29, 72, 121, 140, 192, 68, 132, 2, 0.707188
311, 3, bw, filler, NA, 999, 999, 6, 29, 72, 121, 140, 192, 68, 132, 1, 1.22954
311, 3, bw, attraction, a-b-da, 9, 3, 6, 30, 195, 120, 186, 114, 120, 195, 3, 0.937688
311, 3, bw, attraction, a-b-da, 9, 3, 6, 30, 195, 120, 186, 114, 120, 195, 2, 0.906715
311, 3, bw, attraction, a-b-db, 5, 3, 6, 31, 117, 190, 120, 195, 195, 120, 2, 1.41177
311, 3, bw, attraction, a-b-db, 5, 3, 6, 31, 117, 190, 120, 195, 195, 120, 3, 0.50599
311, 3, bw, catch, NA, 999, 999, 6, 32, 70, 125, 136, 119, 177, 138, 3, 0.891783
311, 3, bw, catch, NA, 999, 999, 6, 32, 70, 125, 136, 119, 177, 138, 1, 0.558836
311, 3, bw, filler, NA, 999, 999, 6, 33, 144, 131, 110, 117, 176, 107, 1, 1.49384
311, 3, bw, filler, NA, 999, 999, 6, 33, 144, 131, 110, 117, 176, 107, 2, 0.512891
311, 3, bw, attraction, a-b-db, 5, 2, 6, 34, 165, 90, 90, 165, 88, 161, 2, 2.05784
311, 3, bw, attraction, a-b-db, 5, 2, 6, 34, 165, 90, 90, 165, 88, 161, 3, 0.693844
311, 3, bw, filler, NA, 999, 999, 6, 35, 159, 184, 85, 68, 172, 191, 3, 1.0077
311, 3, bw, filler, NA, 999, 999, 6, 35, 159, 184, 85, 68, 172, 191, 2, 0.397921
311, 3, bw, attraction, a-b-db, 9, 1, 6, 36, 60, 135, 135, 60, 57, 129, 1, 4.57169
311, 3, bw, attraction, a-b-db, 9, 1, 6, 36, 60, 135, 135, 60, 57, 129, 3, 1.21098
311, 3, bw, attraction, a-b-db, 9, 2, 6, 37, 90, 165, 86, 157, 165, 90, 1, 3.02378
311, 3, bw, attraction, a-b-db, 9, 2, 6, 37, 90, 165, 86, 157, 165, 90, 2, 1.02881
311, 3, bw, catch, NA, 999, 999, 7, 1, 140, 175, 89, 106, 100, 155, 1, 1.84119
311, 3, bw, catch, NA, 999, 999, 7, 1, 140, 175, 89, 106, 100, 155, 2, 0.317854
311, 3, bw, filler, NA, 999, 999, 7, 2, 192, 88, 172, 123, 161, 114, 2, 1.03918
311, 3, bw, filler, NA, 999, 999, 7, 2, 192, 88, 172, 123, 161, 114, 1, 2.99602
311, 3, bw, catch, NA, 999, 999, 7, 3, 82, 113, 123, 192, 115, 140, 2, 0.897006
311, 3, bw, catch, NA, 999, 999, 7, 3, 82, 113, 123, 192, 115, 140, 1, 0.38011
311, 3, bw, attraction, a-b-da, 14, 3, 7, 4, 181, 111, 120, 195, 195, 120, 2, 1.87466
311, 3, bw, attraction, a-b-da, 14, 3, 7, 4, 181, 111, 120, 195, 195, 120, 1, 0.717919
311, 3, bw, attraction, a-b-da, 9, 2, 7, 5, 157, 86, 90, 165, 165, 90, 2, 1.87891
311, 3, bw, attraction, a-b-da, 9, 2, 7, 5, 157, 86, 90, 165, 165, 90, 1, 0.450346
311, 3, bw, attraction, a-b-da, 5, 1, 7, 6, 132, 58, 135, 60, 60, 135, 2, 3.27016
311, 3, bw, attraction, a-b-da, 5, 1, 7, 6, 132, 58, 135, 60, 60, 135, 1, 0.601743
311, 3, bw, filler, NA, 999, 999, 7, 7, 130, 143, 187, 141, 79, 73, 2, 0.967507
311, 3, bw, filler, NA, 999, 999, 7, 7, 130, 143, 187, 141, 79, 73, 3, 0.53599
311, 3, bw, attraction, a-b-da, 14, 2, 7, 8, 165, 90, 153, 83, 90, 165, 3, 1.20028
311, 3, bw, attraction, a-b-da, 14, 2, 7, 8, 165, 90, 153, 83, 90, 165, 2, 0.967257
311, 3, bw, catch, NA, 999, 999, 7, 9, 134, 181, 133, 62, 151, 104, 1, 1.26225
311, 3, bw, catch, NA, 999, 999, 7, 9, 134, 181, 133, 62, 151, 104, 2, 0.418481
311, 3, bw, attraction, a-b-db, 14, 3, 7, 10, 111, 181, 120, 195, 195, 120, 2, 2.07165
311, 3, bw, attraction, a-b-db, 14, 3, 7, 10, 111, 181, 120, 195, 195, 120, 1, 0.707624
311, 3, bw, filler, NA, 999, 999, 7, 11, 160, 136, 128, 169, 194, 162, 3, 1.49271
311, 3, bw, filler, NA, 999, 999, 7, 11, 160, 136, 128, 169, 194, 162, 1, 3.05548
311, 3, bw, attraction, a-b-da, 9, 3, 7, 12, 120, 195, 186, 114, 195, 120, 1, 1.63449
311, 3, bw, attraction, a-b-da, 9, 3, 7, 12, 120, 195, 186, 114, 195, 120, 3, 1.54393
311, 3, bw, filler, NA, 999, 999, 7, 13, 95, 170, 144, 146, 116, 89, 2, 2.32737
311, 3, bw, filler, NA, 999, 999, 7, 13, 95, 170, 144, 146, 116, 89, 3, 0.576739
311, 3, bw, filler, NA, 999, 999, 7, 14, 186, 189, 173, 140, 182, 178, 1, 0.863004
311, 3, bw, filler, NA, 999, 999, 7, 14, 186, 189, 173, 140, 182, 178, 2, 0.835498
311, 3, bw, attraction, a-b-db, 2, 1, 7, 15, 59, 134, 60, 135, 135, 60, 3, 1.23984
311, 3, bw, attraction, a-b-db, 2, 1, 7, 15, 59, 134, 60, 135, 135, 60, 1, 0.972741
311, 3, bw, attraction, a-b-db, 9, 2, 7, 16, 90, 165, 165, 90, 86, 157, 2, 3.70776
311, 3, bw, attraction, a-b-db, 9, 2, 7, 16, 90, 165, 165, 90, 86, 157, 1, 0.453192
311, 3, bw, attraction, a-b-db, 9, 1, 7, 17, 135, 60, 57, 129, 60, 135, 3, 1.92894
311, 3, bw, attraction, a-b-db, 9, 1, 7, 17, 135, 60, 57, 129, 60, 135, 2, 0.714353
311, 3, bw, filler, NA, 999, 999, 7, 18, 175, 132, 127, 61, 80, 61, 1, 0.779408
311, 3, bw, filler, NA, 999, 999, 7, 18, 175, 132, 127, 61, 80, 61, 3, 0.47515
311, 3, bw, attraction, a-b-db, 5, 1, 7, 19, 60, 135, 58, 132, 135, 60, 3, 2.43761
311, 3, bw, attraction, a-b-db, 5, 1, 7, 19, 60, 135, 58, 132, 135, 60, 2, 1.32287
311, 3, bw, attraction, a-b-db, 5, 2, 7, 20, 88, 161, 165, 90, 90, 165, 1, 1.6517
311, 3, bw, attraction, a-b-db, 5, 2, 7, 20, 88, 161, 165, 90, 90, 165, 2, 0.376498
311, 3, bw, filler, NA, 999, 999, 7, 21, 63, 193, 134, 170, 163, 166, 3, 0.654966
311, 3, bw, filler, NA, 999, 999, 7, 21, 63, 193, 134, 170, 163, 166, 1, 0.507469
311, 3, bw, attraction, a-b-db, 9, 3, 7, 22, 195, 120, 120, 195, 114, 186, 2, 1.78054
311, 3, bw, attraction, a-b-db, 9, 3, 7, 22, 195, 120, 120, 195, 114, 186, 1, 0.955989
311, 3, bw, attraction, a-b-db, 2, 2, 7, 23, 90, 165, 165, 90, 89, 163, 3, 1.41952
311, 3, bw, attraction, a-b-db, 2, 2, 7, 23, 90, 165, 165, 90, 89, 163, 2, 0.401802
311, 3, bw, attraction, a-b-da, 14, 1, 7, 24, 125, 56, 135, 60, 60, 135, 2, 2.50364
311, 3, bw, attraction, a-b-da, 14, 1, 7, 24, 125, 56, 135, 60, 60, 135, 1, 0.642212
311, 3, bw, attraction, a-b-db, 5, 3, 7, 25, 117, 190, 195, 120, 120, 195, 3, 1.18995
311, 3, bw, attraction, a-b-db, 5, 3, 7, 25, 117, 190, 195, 120, 120, 195, 1, 2.33276
311, 3, bw, attraction, a-b-da, 5, 3, 7, 26, 120, 195, 195, 120, 190, 117, 1, 3.06065
311, 3, bw, attraction, a-b-da, 5, 3, 7, 26, 120, 195, 195, 120, 190, 117, 2, 0.448403
311, 3, bw, attraction, a-b-da, 2, 2, 7, 27, 165, 90, 163, 89, 90, 165, 3, 0.804212
311, 3, bw, attraction, a-b-da, 2, 2, 7, 27, 165, 90, 163, 89, 90, 165, 2, 0.659237
311, 3, bw, attraction, a-b-da, 2, 3, 7, 28, 193, 119, 120, 195, 195, 120, 2, 1.42235
311, 3, bw, attraction, a-b-da, 2, 3, 7, 28, 193, 119, 120, 195, 195, 120, 3, 0.755893
311, 3, bw, attraction, a-b-db, 2, 3, 7, 29, 119, 193, 120, 195, 195, 120, 2, 1.4275
311, 3, bw, attraction, a-b-db, 2, 3, 7, 29, 119, 193, 120, 195, 195, 120, 3, 0.401093
311, 3, bw, filler, NA, 999, 999, 7, 30, 99, 177, 108, 100, 86, 110, 1, 1.23087
311, 3, bw, filler, NA, 999, 999, 7, 30, 99, 177, 108, 100, 86, 110, 3, 0.660531
311, 3, bw, attraction, a-b-db, 14, 2, 7, 31, 165, 90, 90, 165, 83, 153, 2, 1.49542
311, 3, bw, attraction, a-b-db, 14, 2, 7, 31, 165, 90, 90, 165, 83, 153, 3, 1.00244
311, 3, bw, filler, NA, 999, 999, 7, 32, 155, 179, 62, 158, 97, 176, 1, 0.655911
311, 3, bw, filler, NA, 999, 999, 7, 32, 155, 179, 62, 158, 97, 176, 2, 0.36445
311, 3, bw, attraction, a-b-da, 2, 1, 7, 33, 60, 135, 134, 59, 135, 60, 2, 1.74756
311, 3, bw, attraction, a-b-da, 2, 1, 7, 33, 60, 135, 134, 59, 135, 60, 3, 0.420413
311, 3, bw, attraction, a-b-da, 9, 1, 7, 34, 135, 60, 60, 135, 129, 57, 2, 2.90539
311, 3, bw, attraction, a-b-da, 9, 1, 7, 34, 135, 60, 60, 135, 129, 57, 3, 0.491146
311, 3, bw, attraction, a-b-db, 14, 1, 7, 35, 56, 125, 135, 60, 60, 135, 3, 1.14093
311, 3, bw, attraction, a-b-db, 14, 1, 7, 35, 56, 125, 135, 60, 60, 135, 1, 0.685849
311, 3, bw, filler, NA, 999, 999, 7, 36, 83, 82, 106, 59, 104, 158, 3, 0.77632
311, 3, bw, filler, NA, 999, 999, 7, 36, 83, 82, 106, 59, 104, 158, 1, 6.93605
311, 3, bw, attraction, a-b-da, 5, 2, 7, 37, 165, 90, 161, 88, 90, 165, 3, 1.74247
311, 3, bw, attraction, a-b-da, 5, 2, 7, 37, 165, 90, 161, 88, 90, 165, 1, 0.695364
311, 3, bw, attraction, a-b-db, 14, 3, 8, 1, 120, 195, 111, 181, 195, 120, 1, 1.40903
311, 3, bw, attraction, a-b-db, 14, 3, 8, 1, 120, 195, 111, 181, 195, 120, 2, 0.591304
311, 3, bw, filler, NA, 999, 999, 8, 2, 190, 171, 182, 78, 135, 100, 1, 1.34888
311, 3, bw, filler, NA, 999, 999, 8, 2, 190, 171, 182, 78, 135, 100, 3, 1.42977
311, 3, bw, filler, NA, 999, 999, 8, 3, 85, 126, 115, 192, 59, 192, 2, 0.826008
311, 3, bw, filler, NA, 999, 999, 8, 3, 85, 126, 115, 192, 59, 192, 1, 0.415764
311, 3, bw, attraction, a-b-da, 14, 3, 8, 4, 181, 111, 120, 195, 195, 120, 2, 1.30882
311, 3, bw, attraction, a-b-da, 14, 3, 8, 4, 181, 111, 120, 195, 195, 120, 1, 0.847035
311, 3, bw, attraction, a-b-db, 5, 2, 8, 5, 90, 165, 88, 161, 165, 90, 1, 4.06683
311, 3, bw, attraction, a-b-db, 5, 2, 8, 5, 90, 165, 88, 161, 165, 90, 2, 0.558055
311, 3, bw, catch, NA, 999, 999, 8, 6, 105, 150, 124, 191, 75, 120, 2, 0.749237
311, 3, bw, catch, NA, 999, 999, 8, 6, 105, 150, 124, 191, 75, 120, 3, 0.601834
311, 3, bw, attraction, a-b-da, 9, 3, 8, 7, 195, 120, 120, 195, 186, 114, 2, 1.33202
311, 3, bw, attraction, a-b-da, 9, 3, 8, 7, 195, 120, 120, 195, 186, 114, 3, 0.381502
311, 3, bw, attraction, a-b-db, 5, 1, 8, 8, 60, 135, 135, 60, 58, 132, 1, 2.26013
311, 3, bw, attraction, a-b-db, 5, 1, 8, 8, 60, 135, 135, 60, 58, 132, 3, 0.919988
311, 3, bw, attraction, a-b-db, 9, 1, 8, 9, 135, 60, 60, 135, 57, 129, 2, 1.77696
311, 3, bw, attraction, a-b-db, 9, 1, 8, 9, 135, 60, 60, 135, 57, 129, 3, 0.816406
311, 3, bw, attraction, a-b-db, 2, 3, 8, 10, 120, 195, 119, 193, 195, 120, 2, 5.29342
311, 3, bw, attraction, a-b-db, 2, 3, 8, 10, 120, 195, 119, 193, 195, 120, 3, 0.351149
311, 3, bw, filler, NA, 999, 999, 8, 11, 177, 184, 160, 87, 84, 77, 1, 0.694936
311, 3, bw, filler, NA, 999, 999, 8, 11, 177, 184, 160, 87, 84, 77, 3, 0.618113
311, 3, bw, attraction, a-b-da, 9, 2, 8, 12, 90, 165, 165, 90, 157, 86, 1, 2.10315
311, 3, bw, attraction, a-b-da, 9, 2, 8, 12, 90, 165, 165, 90, 157, 86, 2, 0.313844
311, 3, bw, attraction, a-b-db, 14, 2, 8, 13, 90, 165, 165, 90, 83, 153, 1, 0.9069
311, 3, bw, attraction, a-b-db, 14, 2, 8, 13, 90, 165, 165, 90, 83, 153, 2, 0.285379
311, 3, bw, attraction, a-b-db, 2, 2, 8, 14, 89, 163, 165, 90, 90, 165, 3, 2.27174
311, 3, bw, attraction, a-b-db, 2, 2, 8, 14, 89, 163, 165, 90, 90, 165, 1, 0.787064
311, 3, bw, attraction, a-b-db, 9, 3, 8, 15, 120, 195, 195, 120, 114, 186, 1, 1.50539
311, 3, bw, attraction, a-b-db, 9, 3, 8, 15, 120, 195, 195, 120, 114, 186, 2, 0.603556
311, 3, bw, filler, NA, 999, 999, 8, 16, 102, 194, 82, 94, 104, 120, 1, 0.713287
311, 3, bw, filler, NA, 999, 999, 8, 16, 102, 194, 82, 94, 104, 120, 2, 0.339747
311, 3, bw, attraction, a-b-da, 14, 2, 8, 17, 90, 165, 153, 83, 165, 90, 3, 0.812304
311, 3, bw, attraction, a-b-da, 14, 2, 8, 17, 90, 165, 153, 83, 165, 90, 1, 0.490719
311, 3, bw, filler, NA, 999, 999, 8, 18, 183, 113, 149, 156, 105, 72, 2, 1.94842
311, 3, bw, filler, NA, 999, 999, 8, 18, 183, 113, 149, 156, 105, 72, 3, 0.557156
311, 3, bw, attraction, a-b-da, 5, 3, 8, 19, 195, 120, 120, 195, 190, 117, 1, 1.37221
311, 3, bw, attraction, a-b-da, 5, 3, 8, 19, 195, 120, 120, 195, 190, 117, 3, 0.515843
311, 3, bw, catch, NA, 999, 999, 8, 20, 147, 168, 90, 105, 102, 153, 1, 0.540818
311, 3, bw, catch, NA, 999, 999, 8, 20, 147, 168, 90, 105, 102, 153, 2, 0.462136
311, 3, bw, attraction, a-b-da, 14, 1, 8, 21, 60, 135, 125, 56, 135, 60, 3, 1.37713
311, 3, bw, attraction, a-b-da, 14, 1, 8, 21, 60, 135, 125, 56, 135, 60, 1, 0.712804
311, 3, bw, filler, NA, 999, 999, 8, 22, 174, 60, 187, 160, 97, 56, 2, 0.569676
311, 3, bw, filler, NA, 999, 999, 8, 22, 174, 60, 187, 160, 97, 56, 3, 0.826288
311, 3, bw, attraction, a-b-da, 2, 1, 8, 23, 134, 59, 60, 135, 135, 60, 3, 1.76655
311, 3, bw, attraction, a-b-da, 2, 1, 8, 23, 134, 59, 60, 135, 135, 60, 1, 0.718321
311, 3, bw, attraction, a-b-db, 9, 2, 8, 24, 165, 90, 86, 157, 90, 165, 2, 1.21574
311, 3, bw, attraction, a-b-db, 9, 2, 8, 24, 165, 90, 86, 157, 90, 165, 3, 1.23793
311, 3, bw, attraction, a-b-db, 14, 1, 8, 25, 60, 135, 56, 125, 135, 60, 3, 2.56241
311, 3, bw, attraction, a-b-db, 14, 1, 8, 25, 60, 135, 56, 125, 135, 60, 2, 0.442119
311, 3, bw, attraction, a-b-db, 2, 1, 8, 26, 59, 134, 60, 135, 135, 60, 3, 4.4938
311, 3, bw, attraction, a-b-db, 2, 1, 8, 26, 59, 134, 60, 135, 135, 60, 1, 1.27169
311, 3, bw, filler, NA, 999, 999, 8, 27, 170, 88, 170, 145, 163, 155, 2, 4.43459
311, 3, bw, filler, NA, 999, 999, 8, 27, 170, 88, 170, 145, 163, 155, 1, 0.711151
311, 3, bw, attraction, a-b-da, 5, 1, 8, 28, 60, 135, 135, 60, 132, 58, 2, 1.55227
311, 3, bw, attraction, a-b-da, 5, 1, 8, 28, 60, 135, 135, 60, 132, 58, 1, 1.1851
311, 3, bw, filler, NA, 999, 999, 8, 29, 175, 149, 140, 58, 96, 168, 1, 0.671271
311, 3, bw, filler, NA, 999, 999, 8, 29, 175, 149, 140, 58, 96, 168, 2, 0.459029
311, 3, bw, filler, NA, 999, 999, 8, 30, 164, 119, 125, 91, 139, 169, 3, 0.838201
311, 3, bw, filler, NA, 999, 999, 8, 30, 164, 119, 125, 91, 139, 169, 2, 0.456605
311, 3, bw, filler, NA, 999, 999, 8, 31, 70, 144, 187, 120, 156, 154, 2, 2.33429
311, 3, bw, filler, NA, 999, 999, 8, 31, 70, 144, 187, 120, 156, 154, 1, 0.99158
311, 3, bw, catch, NA, 999, 999, 8, 32, 155, 160, 140, 115, 108, 87, 1, 0.997265
311, 3, bw, catch, NA, 999, 999, 8, 32, 155, 160, 140, 115, 108, 87, 3, 0.548204
311, 3, bw, attraction, a-b-da, 5, 2, 8, 33, 161, 88, 90, 165, 165, 90, 2, 1.18001
311, 3, bw, attraction, a-b-da, 5, 2, 8, 33, 161, 88, 90, 165, 165, 90, 1, 0.531672
311, 3, bw, attraction, a-b-da, 9, 1, 8, 34, 129, 57, 60, 135, 135, 60, 3, 0.980069
311, 3, bw, attraction, a-b-da, 9, 1, 8, 34, 129, 57, 60, 135, 135, 60, 1, 0.867785
311, 3, bw, attraction, a-b-db, 5, 3, 8, 35, 117, 190, 195, 120, 120, 195, 3, 2.03871
311, 3, bw, attraction, a-b-db, 5, 3, 8, 35, 117, 190, 195, 120, 120, 195, 1, 1.39537
311, 3, bw, attraction, a-b-da, 2, 2, 8, 36, 165, 90, 163, 89, 90, 165, 3, 1.73687
311, 3, bw, attraction, a-b-da, 2, 2, 8, 36, 165, 90, 163, 89, 90, 165, 1, 0.442367
311, 3, bw, attraction, a-b-da, 2, 3, 8, 37, 120, 195, 195, 120, 193, 119, 2, 1.03015
311, 3, bw, attraction, a-b-da, 2, 3, 8, 37, 120, 195, 195, 120, 193, 119, 3, 0.523757
