sub_n, computer_n, bw_cond, effect, set, distance, diag, block_n, trial_n, h1, w1, h2, w2, h3, w3, choice, rt 
398, 3, wb, practice, NA, 999, 999, 0, 1, 91, 91, 111, 72, 76, 131, 2, 9.00444
398, 3, wb, practice, NA, 999, 999, 0, 1, 91, 91, 111, 72, 76, 131, 3, 2.72684
398, 3, wb, practice, NA, 999, 999, 0, 2, 102, 151, 183, 85, 119, 160, 1, 3.65497
398, 3, wb, practice, NA, 999, 999, 0, 2, 102, 151, 183, 85, 119, 160, 3, 4.77077
398, 3, wb, practice, NA, 999, 999, 0, 3, 164, 118, 65, 151, 189, 95, 2, 2.41292
398, 3, wb, practice, NA, 999, 999, 0, 3, 164, 118, 65, 151, 189, 95, 1, 2.36207
398, 3, wb, attraction, a-b-da, 5, 2, 1, 1, 90, 165, 161, 88, 165, 90, 3, 3.60338
398, 3, wb, attraction, a-b-da, 5, 2, 1, 1, 90, 165, 161, 88, 165, 90, 1, 1.38562
398, 3, wb, attraction, a-b-da, 2, 3, 1, 2, 193, 119, 120, 195, 195, 120, 1, 6.22372
398, 3, wb, attraction, a-b-da, 2, 3, 1, 2, 193, 119, 120, 195, 195, 120, 2, 1.65171
398, 3, wb, attraction, a-b-db, 5, 1, 1, 3, 60, 135, 135, 60, 58, 132, 2, 2.8073
398, 3, wb, attraction, a-b-db, 5, 1, 1, 3, 60, 135, 135, 60, 58, 132, 3, 1.72502
398, 3, wb, filler, NA, 999, 999, 1, 4, 61, 136, 77, 104, 56, 187, 1, 3.64501
398, 3, wb, filler, NA, 999, 999, 1, 4, 61, 136, 77, 104, 56, 187, 3, 1.5452
398, 3, wb, attraction, a-b-db, 5, 3, 1, 5, 120, 195, 195, 120, 117, 190, 2, 4.52071
398, 3, wb, attraction, a-b-db, 5, 3, 1, 5, 120, 195, 195, 120, 117, 190, 1, 1.29788
398, 3, wb, attraction, a-b-da, 5, 3, 1, 6, 190, 117, 120, 195, 195, 120, 1, 1.81131
398, 3, wb, attraction, a-b-da, 5, 3, 1, 6, 190, 117, 120, 195, 195, 120, 2, 1.05745
398, 3, wb, attraction, a-b-db, 9, 3, 1, 7, 195, 120, 120, 195, 114, 186, 3, 1.77238
398, 3, wb, attraction, a-b-db, 9, 3, 1, 7, 195, 120, 120, 195, 114, 186, 2, 1.9318
398, 3, wb, attraction, a-b-db, 2, 3, 1, 8, 120, 195, 195, 120, 119, 193, 2, 5.03578
398, 3, wb, attraction, a-b-db, 2, 3, 1, 8, 120, 195, 195, 120, 119, 193, 3, 1.15227
398, 3, wb, filler, NA, 999, 999, 1, 9, 95, 104, 77, 183, 177, 115, 1, 1.51983
398, 3, wb, filler, NA, 999, 999, 1, 9, 95, 104, 77, 183, 177, 115, 3, 1.31399
398, 3, wb, attraction, a-b-da, 14, 3, 1, 10, 195, 120, 181, 111, 120, 195, 2, 2.48294
398, 3, wb, attraction, a-b-da, 14, 3, 1, 10, 195, 120, 181, 111, 120, 195, 3, 0.958143
398, 3, wb, attraction, a-b-da, 9, 1, 1, 11, 60, 135, 129, 57, 135, 60, 3, 2.22109
398, 3, wb, attraction, a-b-da, 9, 1, 1, 11, 60, 135, 129, 57, 135, 60, 1, 1.75435
398, 3, wb, attraction, a-b-db, 2, 2, 1, 12, 89, 163, 165, 90, 90, 165, 2, 2.40166
398, 3, wb, attraction, a-b-db, 2, 2, 1, 12, 89, 163, 165, 90, 90, 165, 3, 0.944198
398, 3, wb, attraction, a-b-db, 9, 2, 1, 13, 165, 90, 90, 165, 86, 157, 1, 4.39989
398, 3, wb, attraction, a-b-db, 9, 2, 1, 13, 165, 90, 90, 165, 86, 157, 2, 1.93381
398, 3, wb, attraction, a-b-da, 9, 2, 1, 14, 157, 86, 165, 90, 90, 165, 1, 5.06982
398, 3, wb, attraction, a-b-da, 9, 2, 1, 14, 157, 86, 165, 90, 90, 165, 3, 1.25693
398, 3, wb, attraction, a-b-db, 2, 1, 1, 15, 59, 134, 135, 60, 60, 135, 2, 3.13971
398, 3, wb, attraction, a-b-db, 2, 1, 1, 15, 59, 134, 135, 60, 60, 135, 1, 1.62809
398, 3, wb, attraction, a-b-da, 2, 2, 1, 16, 163, 89, 165, 90, 90, 165, 2, 2.85618
398, 3, wb, attraction, a-b-da, 2, 2, 1, 16, 163, 89, 165, 90, 90, 165, 3, 0.85998
398, 3, wb, catch, NA, 999, 999, 1, 17, 147, 168, 101, 154, 128, 67, 3, 1.31903
398, 3, wb, catch, NA, 999, 999, 1, 17, 147, 168, 101, 154, 128, 67, 1, 1.09711
398, 3, wb, attraction, a-b-da, 9, 3, 1, 18, 186, 114, 195, 120, 120, 195, 1, 2.12277
398, 3, wb, attraction, a-b-da, 9, 3, 1, 18, 186, 114, 195, 120, 120, 195, 2, 1.43608
398, 3, wb, filler, NA, 999, 999, 1, 19, 165, 121, 153, 158, 160, 77, 3, 1.40021
398, 3, wb, filler, NA, 999, 999, 1, 19, 165, 121, 153, 158, 160, 77, 2, 0.647157
398, 3, wb, attraction, a-b-da, 5, 1, 1, 20, 60, 135, 132, 58, 135, 60, 1, 1.37884
398, 3, wb, attraction, a-b-da, 5, 1, 1, 20, 60, 135, 132, 58, 135, 60, 2, 2.13843
398, 3, wb, filler, NA, 999, 999, 1, 21, 63, 101, 167, 79, 75, 172, 1, 1.11422
398, 3, wb, filler, NA, 999, 999, 1, 21, 63, 101, 167, 79, 75, 172, 3, 1.54061
398, 3, wb, attraction, a-b-db, 14, 1, 1, 22, 56, 125, 60, 135, 135, 60, 1, 2.36412
398, 3, wb, attraction, a-b-db, 14, 1, 1, 22, 56, 125, 60, 135, 135, 60, 2, 1.36399
398, 3, wb, attraction, a-b-db, 5, 2, 1, 23, 165, 90, 90, 165, 88, 161, 1, 4.7068
398, 3, wb, attraction, a-b-db, 5, 2, 1, 23, 165, 90, 90, 165, 88, 161, 2, 0.876015
398, 3, wb, filler, NA, 999, 999, 1, 24, 119, 142, 138, 94, 108, 127, 2, 6.36634
398, 3, wb, filler, NA, 999, 999, 1, 24, 119, 142, 138, 94, 108, 127, 1, 1.35696
398, 3, wb, filler, NA, 999, 999, 1, 25, 112, 152, 95, 85, 113, 65, 3, 1.92444
398, 3, wb, filler, NA, 999, 999, 1, 25, 112, 152, 95, 85, 113, 65, 1, 2.76588
398, 3, wb, filler, NA, 999, 999, 1, 26, 180, 59, 188, 188, 101, 152, 1, 2.44433
398, 3, wb, filler, NA, 999, 999, 1, 26, 180, 59, 188, 188, 101, 152, 2, 0.944837
398, 3, wb, attraction, a-b-db, 14, 3, 1, 27, 120, 195, 195, 120, 111, 181, 3, 1.87247
398, 3, wb, attraction, a-b-db, 14, 3, 1, 27, 120, 195, 195, 120, 111, 181, 1, 0.95605
398, 3, wb, attraction, a-b-db, 9, 1, 1, 28, 60, 135, 57, 129, 135, 60, 2, 4.21946
398, 3, wb, attraction, a-b-db, 9, 1, 1, 28, 60, 135, 57, 129, 135, 60, 1, 1.2008
398, 3, wb, filler, NA, 999, 999, 1, 29, 142, 116, 170, 173, 110, 119, 3, 2.24649
398, 3, wb, filler, NA, 999, 999, 1, 29, 142, 116, 170, 173, 110, 119, 2, 0.611018
398, 3, wb, attraction, a-b-da, 14, 2, 1, 30, 153, 83, 90, 165, 165, 90, 1, 4.73605
398, 3, wb, attraction, a-b-da, 14, 2, 1, 30, 153, 83, 90, 165, 165, 90, 2, 0.688587
398, 3, wb, attraction, a-b-da, 2, 1, 1, 31, 134, 59, 60, 135, 135, 60, 1, 1.17894
398, 3, wb, attraction, a-b-da, 2, 1, 1, 31, 134, 59, 60, 135, 135, 60, 2, 1.05059
398, 3, wb, attraction, a-b-db, 14, 2, 1, 32, 165, 90, 90, 165, 83, 153, 3, 1.56631
398, 3, wb, attraction, a-b-db, 14, 2, 1, 32, 165, 90, 90, 165, 83, 153, 2, 0.446341
398, 3, wb, catch, NA, 999, 999, 1, 33, 99, 96, 151, 164, 141, 114, 1, 1.0741
398, 3, wb, catch, NA, 999, 999, 1, 33, 99, 96, 151, 164, 141, 114, 2, 0.621803
398, 3, wb, filler, NA, 999, 999, 1, 34, 64, 136, 142, 65, 76, 118, 1, 1.25078
398, 3, wb, filler, NA, 999, 999, 1, 34, 64, 136, 142, 65, 76, 118, 3, 0.623763
398, 3, wb, catch, NA, 999, 999, 1, 35, 144, 111, 124, 191, 68, 127, 3, 1.2842
398, 3, wb, catch, NA, 999, 999, 1, 35, 144, 111, 124, 191, 68, 127, 2, 0.615787
398, 3, wb, filler, NA, 999, 999, 1, 36, 117, 94, 57, 135, 182, 67, 2, 1.42891
398, 3, wb, filler, NA, 999, 999, 1, 36, 117, 94, 57, 135, 182, 67, 3, 0.722555
398, 3, wb, attraction, a-b-da, 14, 1, 1, 37, 135, 60, 60, 135, 125, 56, 3, 1.31536
398, 3, wb, attraction, a-b-da, 14, 1, 1, 37, 135, 60, 60, 135, 125, 56, 2, 0.541716
398, 3, wb, attraction, a-b-db, 2, 2, 2, 1, 89, 163, 90, 165, 165, 90, 1, 2.06944
398, 3, wb, attraction, a-b-db, 2, 2, 2, 1, 89, 163, 90, 165, 165, 90, 2, 1.2334
398, 3, wb, attraction, a-b-da, 9, 1, 2, 2, 60, 135, 135, 60, 129, 57, 1, 1.68563
398, 3, wb, attraction, a-b-da, 9, 1, 2, 2, 60, 135, 135, 60, 129, 57, 2, 0.569026
398, 3, wb, attraction, a-b-da, 14, 1, 2, 3, 60, 135, 135, 60, 125, 56, 1, 0.86417
398, 3, wb, attraction, a-b-da, 14, 1, 2, 3, 60, 135, 135, 60, 125, 56, 2, 0.620555
398, 3, wb, attraction, a-b-da, 14, 3, 2, 4, 120, 195, 181, 111, 195, 120, 1, 1.1056
398, 3, wb, attraction, a-b-da, 14, 3, 2, 4, 120, 195, 181, 111, 195, 120, 3, 0.987937
398, 3, wb, attraction, a-b-db, 14, 1, 2, 5, 135, 60, 60, 135, 56, 125, 3, 1.34625
398, 3, wb, attraction, a-b-db, 14, 1, 2, 5, 135, 60, 60, 135, 56, 125, 2, 0.459045
398, 3, wb, filler, NA, 999, 999, 2, 6, 77, 131, 64, 64, 75, 122, 2, 1.67022
398, 3, wb, filler, NA, 999, 999, 2, 6, 77, 131, 64, 64, 75, 122, 1, 2.25036
398, 3, wb, attraction, a-b-db, 2, 1, 2, 7, 59, 134, 60, 135, 135, 60, 1, 1.06969
398, 3, wb, attraction, a-b-db, 2, 1, 2, 7, 59, 134, 60, 135, 135, 60, 2, 0.689893
398, 3, wb, attraction, a-b-da, 14, 2, 2, 8, 165, 90, 153, 83, 90, 165, 2, 2.09226
398, 3, wb, attraction, a-b-da, 14, 2, 2, 8, 165, 90, 153, 83, 90, 165, 3, 0.678968
398, 3, wb, attraction, a-b-da, 2, 3, 2, 9, 193, 119, 195, 120, 120, 195, 1, 3.50528
398, 3, wb, attraction, a-b-da, 2, 3, 2, 9, 193, 119, 195, 120, 120, 195, 3, 0.867593
398, 3, wb, attraction, a-b-db, 9, 1, 2, 10, 135, 60, 57, 129, 60, 135, 1, 4.93451
398, 3, wb, attraction, a-b-db, 9, 1, 2, 10, 135, 60, 57, 129, 60, 135, 3, 0.863033
398, 3, wb, filler, NA, 999, 999, 2, 11, 159, 100, 75, 137, 155, 62, 3, 4.27404
398, 3, wb, filler, NA, 999, 999, 2, 11, 159, 100, 75, 137, 155, 62, 1, 0.964721
398, 3, wb, attraction, a-b-da, 5, 2, 2, 12, 161, 88, 90, 165, 165, 90, 3, 2.5478
398, 3, wb, attraction, a-b-da, 5, 2, 2, 12, 161, 88, 90, 165, 165, 90, 2, 0.596087
398, 3, wb, attraction, a-b-da, 9, 2, 2, 13, 165, 90, 90, 165, 157, 86, 3, 1.36986
398, 3, wb, attraction, a-b-da, 9, 2, 2, 13, 165, 90, 90, 165, 157, 86, 2, 0.530047
398, 3, wb, filler, NA, 999, 999, 2, 14, 153, 166, 100, 161, 191, 110, 2, 1.69048
398, 3, wb, filler, NA, 999, 999, 2, 14, 153, 166, 100, 161, 191, 110, 1, 0.509383
398, 3, wb, catch, NA, 999, 999, 2, 15, 93, 102, 97, 158, 180, 135, 1, 1.1264
398, 3, wb, catch, NA, 999, 999, 2, 15, 93, 102, 97, 158, 180, 135, 3, 0.920115
398, 3, wb, attraction, a-b-da, 5, 3, 2, 16, 190, 117, 195, 120, 120, 195, 1, 2.07324
398, 3, wb, attraction, a-b-da, 5, 3, 2, 16, 190, 117, 195, 120, 120, 195, 3, 0.780458
398, 3, wb, attraction, a-b-db, 5, 2, 2, 17, 165, 90, 88, 161, 90, 165, 1, 1.13871
398, 3, wb, attraction, a-b-db, 5, 2, 2, 17, 165, 90, 88, 161, 90, 165, 2, 1.17179
398, 3, wb, filler, NA, 999, 999, 2, 18, 145, 165, 184, 86, 92, 172, 3, 1.45054
398, 3, wb, filler, NA, 999, 999, 2, 18, 145, 165, 184, 86, 92, 172, 1, 0.495524
398, 3, wb, attraction, a-b-db, 5, 1, 2, 19, 60, 135, 58, 132, 135, 60, 3, 1.36117
398, 3, wb, attraction, a-b-db, 5, 1, 2, 19, 60, 135, 58, 132, 135, 60, 2, 0.609404
398, 3, wb, catch, NA, 999, 999, 2, 20, 157, 158, 118, 137, 90, 105, 3, 0.814512
398, 3, wb, catch, NA, 999, 999, 2, 20, 157, 158, 118, 137, 90, 105, 1, 0.620968
398, 3, wb, attraction, a-b-db, 14, 2, 2, 21, 165, 90, 83, 153, 90, 165, 2, 1.74603
398, 3, wb, attraction, a-b-db, 14, 2, 2, 21, 165, 90, 83, 153, 90, 165, 3, 0.698716
398, 3, wb, catch, NA, 999, 999, 2, 22, 75, 120, 120, 195, 118, 137, 1, 0.86852
398, 3, wb, catch, NA, 999, 999, 2, 22, 75, 120, 120, 195, 118, 137, 2, 0.44879
398, 3, wb, filler, NA, 999, 999, 2, 23, 73, 71, 183, 107, 98, 129, 1, 0.86065
398, 3, wb, filler, NA, 999, 999, 2, 23, 73, 71, 183, 107, 98, 129, 2, 0.593068
398, 3, wb, attraction, a-b-da, 2, 2, 2, 24, 163, 89, 90, 165, 165, 90, 1, 1.56682
398, 3, wb, attraction, a-b-da, 2, 2, 2, 24, 163, 89, 90, 165, 165, 90, 2, 0.438989
398, 3, wb, filler, NA, 999, 999, 2, 25, 79, 99, 97, 70, 149, 92, 2, 1.7634
398, 3, wb, filler, NA, 999, 999, 2, 25, 79, 99, 97, 70, 149, 92, 3, 0.403564
398, 3, wb, attraction, a-b-da, 2, 1, 2, 26, 134, 59, 60, 135, 135, 60, 3, 1.55335
398, 3, wb, attraction, a-b-da, 2, 1, 2, 26, 134, 59, 60, 135, 135, 60, 2, 1.37823
398, 3, wb, filler, NA, 999, 999, 2, 27, 153, 63, 131, 188, 170, 87, 1, 1.48827
398, 3, wb, filler, NA, 999, 999, 2, 27, 153, 63, 131, 188, 170, 87, 2, 0.459133
398, 3, wb, filler, NA, 999, 999, 2, 28, 170, 59, 152, 58, 147, 150, 2, 1.8544
398, 3, wb, filler, NA, 999, 999, 2, 28, 170, 59, 152, 58, 147, 150, 3, 0.427016
398, 3, wb, attraction, a-b-da, 5, 1, 2, 29, 60, 135, 135, 60, 132, 58, 3, 1.2395
398, 3, wb, attraction, a-b-da, 5, 1, 2, 29, 60, 135, 135, 60, 132, 58, 1, 0.476395
398, 3, wb, attraction, a-b-db, 5, 3, 2, 30, 120, 195, 195, 120, 117, 190, 3, 1.2868
398, 3, wb, attraction, a-b-db, 5, 3, 2, 30, 120, 195, 195, 120, 117, 190, 1, 0.498437
398, 3, wb, filler, NA, 999, 999, 2, 31, 87, 164, 60, 162, 134, 179, 2, 2.49218
398, 3, wb, filler, NA, 999, 999, 2, 31, 87, 164, 60, 162, 134, 179, 3, 0.742796
398, 3, wb, filler, NA, 999, 999, 2, 32, 83, 88, 110, 163, 107, 184, 1, 0.73441
398, 3, wb, filler, NA, 999, 999, 2, 32, 83, 88, 110, 163, 107, 184, 3, 2.23216
398, 3, wb, attraction, a-b-db, 2, 3, 2, 33, 119, 193, 195, 120, 120, 195, 3, 5.74028
398, 3, wb, attraction, a-b-db, 2, 3, 2, 33, 119, 193, 195, 120, 120, 195, 2, 0.299658
398, 3, wb, attraction, a-b-db, 14, 3, 2, 34, 120, 195, 195, 120, 111, 181, 3, 1.00546
398, 3, wb, attraction, a-b-db, 14, 3, 2, 34, 120, 195, 195, 120, 111, 181, 2, 1.29974
398, 3, wb, attraction, a-b-db, 9, 3, 2, 35, 195, 120, 114, 186, 120, 195, 3, 0.853393
398, 3, wb, attraction, a-b-db, 9, 3, 2, 35, 195, 120, 114, 186, 120, 195, 2, 0.314318
398, 3, wb, attraction, a-b-db, 9, 2, 2, 36, 165, 90, 86, 157, 90, 165, 1, 0.675488
398, 3, wb, attraction, a-b-db, 9, 2, 2, 36, 165, 90, 86, 157, 90, 165, 3, 0.37525
398, 3, wb, attraction, a-b-da, 9, 3, 2, 37, 120, 195, 195, 120, 186, 114, 3, 0.821765
398, 3, wb, attraction, a-b-da, 9, 3, 2, 37, 120, 195, 195, 120, 186, 114, 2, 0.64349
398, 3, wb, catch, NA, 999, 999, 3, 1, 127, 68, 135, 180, 126, 129, 1, 0.839179
398, 3, wb, catch, NA, 999, 999, 3, 1, 127, 68, 135, 180, 126, 129, 2, 0.324298
398, 3, wb, attraction, a-b-da, 2, 3, 3, 2, 195, 120, 193, 119, 120, 195, 2, 1.36473
398, 3, wb, attraction, a-b-da, 2, 3, 3, 2, 195, 120, 193, 119, 120, 195, 1, 0.357011
398, 3, wb, attraction, a-b-db, 9, 3, 3, 3, 120, 195, 195, 120, 114, 186, 2, 0.692143
398, 3, wb, attraction, a-b-db, 9, 3, 3, 3, 120, 195, 195, 120, 114, 186, 1, 1.91123
398, 3, wb, attraction, a-b-da, 14, 3, 3, 4, 181, 111, 195, 120, 120, 195, 1, 0.959931
398, 3, wb, attraction, a-b-da, 14, 3, 3, 4, 181, 111, 195, 120, 120, 195, 2, 0.768298
398, 3, wb, filler, NA, 999, 999, 3, 5, 171, 187, 145, 65, 95, 168, 2, 1.16728
398, 3, wb, filler, NA, 999, 999, 3, 5, 171, 187, 145, 65, 95, 168, 1, 0.35165
398, 3, wb, attraction, a-b-da, 9, 3, 3, 6, 120, 195, 195, 120, 186, 114, 1, 1.80742
398, 3, wb, attraction, a-b-da, 9, 3, 3, 6, 120, 195, 195, 120, 186, 114, 2, 0.661474
398, 3, wb, filler, NA, 999, 999, 3, 7, 165, 118, 150, 142, 170, 180, 1, 2.47248
398, 3, wb, filler, NA, 999, 999, 3, 7, 165, 118, 150, 142, 170, 180, 3, 0.45984
398, 3, wb, filler, NA, 999, 999, 3, 8, 183, 131, 172, 134, 85, 132, 3, 0.774929
398, 3, wb, filler, NA, 999, 999, 3, 8, 183, 131, 172, 134, 85, 132, 2, 0.670556
398, 3, wb, attraction, a-b-db, 9, 1, 3, 9, 60, 135, 57, 129, 135, 60, 2, 1.76164
398, 3, wb, attraction, a-b-db, 9, 1, 3, 9, 60, 135, 57, 129, 135, 60, 3, 0.601838
398, 3, wb, filler, NA, 999, 999, 3, 10, 149, 132, 96, 165, 171, 145, 2, 1.78352
398, 3, wb, filler, NA, 999, 999, 3, 10, 149, 132, 96, 165, 171, 145, 3, 0.6951
398, 3, wb, attraction, a-b-da, 5, 1, 3, 11, 135, 60, 132, 58, 60, 135, 3, 2.92072
398, 3, wb, attraction, a-b-da, 5, 1, 3, 11, 135, 60, 132, 58, 60, 135, 2, 0.882405
398, 3, wb, attraction, a-b-db, 2, 1, 3, 12, 60, 135, 135, 60, 59, 134, 1, 2.10873
398, 3, wb, attraction, a-b-db, 2, 1, 3, 12, 60, 135, 135, 60, 59, 134, 3, 0.926726
398, 3, wb, attraction, a-b-db, 5, 2, 3, 13, 90, 165, 165, 90, 88, 161, 3, 1.47097
398, 3, wb, attraction, a-b-db, 5, 2, 3, 13, 90, 165, 165, 90, 88, 161, 1, 0.491132
398, 3, wb, filler, NA, 999, 999, 3, 14, 146, 180, 177, 181, 160, 166, 1, 6.63717
398, 3, wb, filler, NA, 999, 999, 3, 14, 146, 180, 177, 181, 160, 166, 2, 0.904884
398, 3, wb, filler, NA, 999, 999, 3, 15, 91, 130, 57, 60, 124, 151, 2, 0.76247
398, 3, wb, filler, NA, 999, 999, 3, 15, 91, 130, 57, 60, 124, 151, 3, 0.418983
398, 3, wb, attraction, a-b-db, 14, 1, 3, 16, 56, 125, 60, 135, 135, 60, 3, 1.15211
398, 3, wb, attraction, a-b-db, 14, 1, 3, 16, 56, 125, 60, 135, 135, 60, 2, 0.441046
398, 3, wb, attraction, a-b-da, 9, 2, 3, 17, 90, 165, 157, 86, 165, 90, 1, 1.34878
398, 3, wb, attraction, a-b-da, 9, 2, 3, 17, 90, 165, 157, 86, 165, 90, 2, 1.02184
398, 3, wb, attraction, a-b-db, 9, 2, 3, 18, 165, 90, 90, 165, 86, 157, 3, 1.33877
398, 3, wb, attraction, a-b-db, 9, 2, 3, 18, 165, 90, 90, 165, 86, 157, 2, 0.395499
398, 3, wb, filler, NA, 999, 999, 3, 19, 87, 163, 57, 135, 101, 121, 2, 1.08145
398, 3, wb, filler, NA, 999, 999, 3, 19, 87, 163, 57, 135, 101, 121, 1, 1.27706
398, 3, wb, attraction, a-b-da, 5, 3, 3, 20, 195, 120, 120, 195, 190, 117, 3, 1.76719
398, 3, wb, attraction, a-b-da, 5, 3, 3, 20, 195, 120, 120, 195, 190, 117, 2, 0.407417
398, 3, wb, attraction, a-b-db, 5, 3, 3, 21, 120, 195, 117, 190, 195, 120, 1, 2.84455
398, 3, wb, attraction, a-b-db, 5, 3, 3, 21, 120, 195, 117, 190, 195, 120, 3, 1.56084
398, 3, wb, attraction, a-b-da, 14, 1, 3, 22, 135, 60, 125, 56, 60, 135, 1, 1.61566
398, 3, wb, attraction, a-b-da, 14, 1, 3, 22, 135, 60, 125, 56, 60, 135, 3, 0.501763
398, 3, wb, filler, NA, 999, 999, 3, 23, 94, 71, 73, 187, 145, 102, 1, 0.75154
398, 3, wb, filler, NA, 999, 999, 3, 23, 94, 71, 73, 187, 145, 102, 2, 0.840694
398, 3, wb, catch, NA, 999, 999, 3, 24, 140, 175, 112, 83, 97, 158, 2, 1.75635
398, 3, wb, catch, NA, 999, 999, 3, 24, 140, 175, 112, 83, 97, 158, 1, 0.516506
398, 3, wb, attraction, a-b-db, 14, 2, 3, 25, 165, 90, 90, 165, 83, 153, 3, 1.20557
398, 3, wb, attraction, a-b-db, 14, 2, 3, 25, 165, 90, 90, 165, 83, 153, 1, 0.76391
398, 3, wb, attraction, a-b-db, 14, 3, 3, 26, 111, 181, 195, 120, 120, 195, 1, 1.33885
398, 3, wb, attraction, a-b-db, 14, 3, 3, 26, 111, 181, 195, 120, 120, 195, 2, 0.435689
398, 3, wb, catch, NA, 999, 999, 3, 27, 123, 192, 101, 94, 150, 105, 2, 0.800245
398, 3, wb, catch, NA, 999, 999, 3, 27, 123, 192, 101, 94, 150, 105, 1, 0.391314
398, 3, wb, filler, NA, 999, 999, 3, 28, 120, 74, 189, 118, 184, 170, 1, 2.29299
398, 3, wb, filler, NA, 999, 999, 3, 28, 120, 74, 189, 118, 184, 170, 3, 0.391676
398, 3, wb, attraction, a-b-da, 2, 1, 3, 29, 134, 59, 60, 135, 135, 60, 3, 2.60557
398, 3, wb, attraction, a-b-da, 2, 1, 3, 29, 134, 59, 60, 135, 135, 60, 2, 0.659274
398, 3, wb, attraction, a-b-da, 14, 2, 3, 30, 153, 83, 165, 90, 90, 165, 1, 0.830372
398, 3, wb, attraction, a-b-da, 14, 2, 3, 30, 153, 83, 165, 90, 90, 165, 2, 0.500059
398, 3, wb, filler, NA, 999, 999, 3, 31, 155, 81, 174, 159, 157, 149, 1, 1.7418
398, 3, wb, filler, NA, 999, 999, 3, 31, 155, 81, 174, 159, 157, 149, 2, 0.894702
398, 3, wb, attraction, a-b-db, 2, 3, 3, 32, 195, 120, 119, 193, 120, 195, 3, 1.57632
398, 3, wb, attraction, a-b-db, 2, 3, 3, 32, 195, 120, 119, 193, 120, 195, 2, 0.807855
398, 3, wb, attraction, a-b-db, 5, 1, 3, 33, 60, 135, 135, 60, 58, 132, 1, 0.860761
398, 3, wb, attraction, a-b-db, 5, 1, 3, 33, 60, 135, 135, 60, 58, 132, 2, 0.441322
398, 3, wb, attraction, a-b-db, 2, 2, 3, 34, 90, 165, 165, 90, 89, 163, 2, 2.30896
398, 3, wb, attraction, a-b-db, 2, 2, 3, 34, 90, 165, 165, 90, 89, 163, 3, 0.334933
398, 3, wb, attraction, a-b-da, 2, 2, 3, 35, 165, 90, 90, 165, 163, 89, 1, 1.27941
398, 3, wb, attraction, a-b-da, 2, 2, 3, 35, 165, 90, 90, 165, 163, 89, 2, 0.378986
398, 3, wb, attraction, a-b-da, 9, 1, 3, 36, 129, 57, 135, 60, 60, 135, 3, 1.3934
398, 3, wb, attraction, a-b-da, 9, 1, 3, 36, 129, 57, 135, 60, 60, 135, 2, 0.904286
398, 3, wb, attraction, a-b-da, 5, 2, 3, 37, 165, 90, 161, 88, 90, 165, 1, 2.70595
398, 3, wb, attraction, a-b-da, 5, 2, 3, 37, 165, 90, 161, 88, 90, 165, 3, 1.00377
398, 3, wb, attraction, a-b-da, 2, 2, 4, 1, 90, 165, 163, 89, 165, 90, 3, 1.47354
398, 3, wb, attraction, a-b-da, 2, 2, 4, 1, 90, 165, 163, 89, 165, 90, 1, 1.10893
398, 3, wb, attraction, a-b-db, 2, 2, 4, 2, 89, 163, 90, 165, 165, 90, 3, 1.35787
398, 3, wb, attraction, a-b-db, 2, 2, 4, 2, 89, 163, 90, 165, 165, 90, 1, 0.518059
398, 3, wb, filler, NA, 999, 999, 4, 3, 59, 79, 182, 112, 119, 141, 1, 1.04712
398, 3, wb, filler, NA, 999, 999, 4, 3, 59, 79, 182, 112, 119, 141, 2, 0.348151
398, 3, wb, filler, NA, 999, 999, 4, 4, 76, 193, 167, 154, 175, 68, 3, 1.21202
398, 3, wb, filler, NA, 999, 999, 4, 4, 76, 193, 167, 154, 175, 68, 2, 0.330249
398, 3, wb, catch, NA, 999, 999, 4, 5, 132, 183, 96, 99, 112, 143, 2, 1.28275
398, 3, wb, catch, NA, 999, 999, 4, 5, 132, 183, 96, 99, 112, 143, 1, 0.486437
398, 3, wb, attraction, a-b-db, 14, 3, 4, 6, 111, 181, 120, 195, 195, 120, 3, 5.7129
398, 3, wb, attraction, a-b-db, 14, 3, 4, 6, 111, 181, 120, 195, 195, 120, 2, 0.329592
398, 3, wb, catch, NA, 999, 999, 4, 7, 148, 107, 113, 82, 148, 167, 2, 1.12215
398, 3, wb, catch, NA, 999, 999, 4, 7, 148, 107, 113, 82, 148, 167, 3, 0.347901
398, 3, wb, attraction, a-b-da, 14, 3, 4, 8, 120, 195, 195, 120, 181, 111, 3, 1.17165
398, 3, wb, attraction, a-b-da, 14, 3, 4, 8, 120, 195, 195, 120, 181, 111, 1, 0.355254
398, 3, wb, attraction, a-b-db, 2, 1, 4, 9, 60, 135, 59, 134, 135, 60, 3, 1.23511
398, 3, wb, attraction, a-b-db, 2, 1, 4, 9, 60, 135, 59, 134, 135, 60, 2, 1.1046
398, 3, wb, attraction, a-b-da, 5, 2, 4, 10, 90, 165, 165, 90, 161, 88, 3, 1.20218
398, 3, wb, attraction, a-b-da, 5, 2, 4, 10, 90, 165, 165, 90, 161, 88, 1, 0.401178
398, 3, wb, catch, NA, 999, 999, 4, 11, 127, 68, 152, 163, 126, 129, 1, 0.870947
398, 3, wb, catch, NA, 999, 999, 4, 11, 127, 68, 152, 163, 126, 129, 2, 0.347302
398, 3, wb, filler, NA, 999, 999, 4, 12, 65, 153, 158, 125, 86, 80, 3, 0.699128
398, 3, wb, filler, NA, 999, 999, 4, 12, 65, 153, 158, 125, 86, 80, 2, 0.558194
398, 3, wb, attraction, a-b-da, 14, 1, 4, 13, 60, 135, 135, 60, 125, 56, 1, 1.56535
398, 3, wb, attraction, a-b-da, 14, 1, 4, 13, 60, 135, 135, 60, 125, 56, 2, 0.693516
398, 3, wb, filler, NA, 999, 999, 4, 14, 121, 110, 83, 104, 175, 173, 2, 1.12718
398, 3, wb, filler, NA, 999, 999, 4, 14, 121, 110, 83, 104, 175, 173, 3, 0.384802
398, 3, wb, attraction, a-b-db, 2, 3, 4, 15, 120, 195, 119, 193, 195, 120, 3, 2.27137
398, 3, wb, attraction, a-b-db, 2, 3, 4, 15, 120, 195, 119, 193, 195, 120, 2, 0.602626
398, 3, wb, attraction, a-b-db, 5, 3, 4, 16, 120, 195, 117, 190, 195, 120, 1, 1.74447
398, 3, wb, attraction, a-b-db, 5, 3, 4, 16, 120, 195, 117, 190, 195, 120, 2, 0.417103
398, 3, wb, attraction, a-b-db, 14, 2, 4, 17, 90, 165, 83, 153, 165, 90, 1, 1.15024
398, 3, wb, attraction, a-b-db, 14, 2, 4, 17, 90, 165, 83, 153, 165, 90, 2, 0.775176
398, 3, wb, filler, NA, 999, 999, 4, 18, 93, 167, 171, 174, 128, 143, 1, 1.00562
398, 3, wb, filler, NA, 999, 999, 4, 18, 93, 167, 171, 174, 128, 143, 2, 0.355911
398, 3, wb, attraction, a-b-da, 9, 3, 4, 19, 195, 120, 120, 195, 186, 114, 2, 1.18768
398, 3, wb, attraction, a-b-da, 9, 3, 4, 19, 195, 120, 120, 195, 186, 114, 3, 0.339329
398, 3, wb, attraction, a-b-da, 9, 1, 4, 20, 60, 135, 129, 57, 135, 60, 2, 0.77193
398, 3, wb, attraction, a-b-da, 9, 1, 4, 20, 60, 135, 129, 57, 135, 60, 3, 0.45957
398, 3, wb, attraction, a-b-da, 14, 2, 4, 21, 153, 83, 90, 165, 165, 90, 3, 0.71067
398, 3, wb, attraction, a-b-da, 14, 2, 4, 21, 153, 83, 90, 165, 165, 90, 2, 0.649101
398, 3, wb, attraction, a-b-db, 5, 2, 4, 22, 165, 90, 88, 161, 90, 165, 1, 1.38089
398, 3, wb, attraction, a-b-db, 5, 2, 4, 22, 165, 90, 88, 161, 90, 165, 2, 0.396448
398, 3, wb, attraction, a-b-db, 9, 3, 4, 23, 114, 186, 120, 195, 195, 120, 3, 1.17818
398, 3, wb, attraction, a-b-db, 9, 3, 4, 23, 114, 186, 120, 195, 195, 120, 1, 0.473812
398, 3, wb, filler, NA, 999, 999, 4, 24, 89, 103, 110, 68, 129, 59, 2, 2.1003
398, 3, wb, filler, NA, 999, 999, 4, 24, 89, 103, 110, 68, 129, 59, 1, 0.775028
398, 3, wb, attraction, a-b-db, 5, 1, 4, 25, 60, 135, 58, 132, 135, 60, 1, 1.98928
398, 3, wb, attraction, a-b-db, 5, 1, 4, 25, 60, 135, 58, 132, 135, 60, 3, 0.76405
398, 3, wb, filler, NA, 999, 999, 4, 26, 193, 66, 122, 114, 92, 59, 3, 1.17099
398, 3, wb, filler, NA, 999, 999, 4, 26, 193, 66, 122, 114, 92, 59, 2, 2.82732
398, 3, wb, attraction, a-b-da, 2, 1, 4, 27, 60, 135, 134, 59, 135, 60, 3, 1.42306
398, 3, wb, attraction, a-b-da, 2, 1, 4, 27, 60, 135, 134, 59, 135, 60, 2, 0.460501
398, 3, wb, attraction, a-b-da, 5, 1, 4, 28, 60, 135, 132, 58, 135, 60, 1, 1.28769
398, 3, wb, attraction, a-b-da, 5, 1, 4, 28, 60, 135, 132, 58, 135, 60, 2, 1.39453
398, 3, wb, attraction, a-b-da, 2, 3, 4, 29, 193, 119, 195, 120, 120, 195, 1, 1.00002
398, 3, wb, attraction, a-b-da, 2, 3, 4, 29, 193, 119, 195, 120, 120, 195, 2, 0.527213
398, 3, wb, filler, NA, 999, 999, 4, 30, 130, 120, 66, 194, 96, 188, 2, 3.36754
398, 3, wb, filler, NA, 999, 999, 4, 30, 130, 120, 66, 194, 96, 188, 3, 1.31926
398, 3, wb, attraction, a-b-da, 9, 2, 4, 31, 157, 86, 90, 165, 165, 90, 1, 5.48795
398, 3, wb, attraction, a-b-da, 9, 2, 4, 31, 157, 86, 90, 165, 165, 90, 2, 0.522196
398, 3, wb, attraction, a-b-db, 14, 1, 4, 32, 56, 125, 60, 135, 135, 60, 1, 1.01139
398, 3, wb, attraction, a-b-db, 14, 1, 4, 32, 56, 125, 60, 135, 135, 60, 2, 0.401617
398, 3, wb, filler, NA, 999, 999, 4, 33, 112, 134, 189, 103, 174, 193, 1, 1.75953
398, 3, wb, filler, NA, 999, 999, 4, 33, 112, 134, 189, 103, 174, 193, 3, 0.567649
398, 3, wb, filler, NA, 999, 999, 4, 34, 136, 190, 73, 144, 178, 60, 2, 1.99063
398, 3, wb, filler, NA, 999, 999, 4, 34, 136, 190, 73, 144, 178, 60, 1, 0.381392
398, 3, wb, attraction, a-b-db, 9, 2, 4, 35, 86, 157, 90, 165, 165, 90, 1, 1.40385
398, 3, wb, attraction, a-b-db, 9, 2, 4, 35, 86, 157, 90, 165, 165, 90, 2, 0.370802
398, 3, wb, attraction, a-b-da, 5, 3, 4, 36, 120, 195, 190, 117, 195, 120, 1, 0.809827
398, 3, wb, attraction, a-b-da, 5, 3, 4, 36, 120, 195, 190, 117, 195, 120, 2, 0.608366
398, 3, wb, attraction, a-b-db, 9, 1, 4, 37, 60, 135, 135, 60, 57, 129, 1, 0.597547
398, 3, wb, attraction, a-b-db, 9, 1, 4, 37, 60, 135, 135, 60, 57, 129, 2, 0.388461
398, 3, wb, attraction, a-b-db, 9, 1, 5, 1, 60, 135, 57, 129, 135, 60, 2, 7.84093
398, 3, wb, attraction, a-b-db, 9, 1, 5, 1, 60, 135, 57, 129, 135, 60, 1, 0.939789
398, 3, wb, filler, NA, 999, 999, 5, 2, 181, 100, 130, 181, 184, 87, 3, 0.996001
398, 3, wb, filler, NA, 999, 999, 5, 2, 181, 100, 130, 181, 184, 87, 2, 0.531038
398, 3, wb, attraction, a-b-db, 14, 2, 5, 3, 83, 153, 90, 165, 165, 90, 1, 0.851465
398, 3, wb, attraction, a-b-db, 14, 2, 5, 3, 83, 153, 90, 165, 165, 90, 2, 0.448534
398, 3, wb, filler, NA, 999, 999, 5, 4, 115, 85, 178, 103, 127, 104, 1, 0.796323
398, 3, wb, filler, NA, 999, 999, 5, 4, 115, 85, 178, 103, 127, 104, 2, 0.347486
398, 3, wb, attraction, a-b-db, 2, 3, 5, 5, 119, 193, 120, 195, 195, 120, 3, 1.38726
398, 3, wb, attraction, a-b-db, 2, 3, 5, 5, 119, 193, 120, 195, 195, 120, 2, 0.514763
398, 3, wb, attraction, a-b-db, 9, 3, 5, 6, 195, 120, 120, 195, 114, 186, 1, 0.94783
398, 3, wb, attraction, a-b-db, 9, 3, 5, 6, 195, 120, 120, 195, 114, 186, 2, 0.548869
398, 3, wb, filler, NA, 999, 999, 5, 7, 134, 82, 94, 57, 157, 106, 2, 1.2447
398, 3, wb, filler, NA, 999, 999, 5, 7, 134, 82, 94, 57, 157, 106, 3, 0.42558
398, 3, wb, attraction, a-b-da, 9, 2, 5, 8, 157, 86, 90, 165, 165, 90, 1, 1.046
398, 3, wb, attraction, a-b-da, 9, 2, 5, 8, 157, 86, 90, 165, 165, 90, 2, 0.339059
398, 3, wb, attraction, a-b-db, 14, 3, 5, 9, 111, 181, 120, 195, 195, 120, 1, 0.971529
398, 3, wb, attraction, a-b-db, 14, 3, 5, 9, 111, 181, 120, 195, 195, 120, 2, 1.1961
398, 3, wb, attraction, a-b-da, 2, 2, 5, 10, 165, 90, 163, 89, 90, 165, 1, 0.913402
398, 3, wb, attraction, a-b-da, 2, 2, 5, 10, 165, 90, 163, 89, 90, 165, 3, 0.547863
398, 3, wb, catch, NA, 999, 999, 5, 11, 175, 140, 98, 97, 142, 113, 2, 0.939681
398, 3, wb, catch, NA, 999, 999, 5, 11, 175, 140, 98, 97, 142, 113, 1, 0.340671
398, 3, wb, filler, NA, 999, 999, 5, 12, 92, 136, 134, 111, 73, 176, 1, 5.90048
398, 3, wb, filler, NA, 999, 999, 5, 12, 92, 136, 134, 111, 73, 176, 2, 0.709892
398, 3, wb, attraction, a-b-da, 2, 1, 5, 13, 135, 60, 60, 135, 134, 59, 3, 2.83101
398, 3, wb, attraction, a-b-da, 2, 1, 5, 13, 135, 60, 60, 135, 134, 59, 2, 1.44412
398, 3, wb, attraction, a-b-db, 2, 1, 5, 14, 60, 135, 135, 60, 59, 134, 1, 0.879547
398, 3, wb, attraction, a-b-db, 2, 1, 5, 14, 60, 135, 135, 60, 59, 134, 3, 0.499188
398, 3, wb, filler, NA, 999, 999, 5, 15, 61, 109, 66, 130, 80, 172, 1, 0.733048
398, 3, wb, filler, NA, 999, 999, 5, 15, 61, 109, 66, 130, 80, 172, 3, 0.350726
398, 3, wb, attraction, a-b-da, 9, 3, 5, 16, 186, 114, 195, 120, 120, 195, 1, 0.822549
398, 3, wb, attraction, a-b-da, 9, 3, 5, 16, 186, 114, 195, 120, 120, 195, 2, 0.420332
398, 3, wb, attraction, a-b-da, 2, 3, 5, 17, 195, 120, 193, 119, 120, 195, 1, 2.37748
398, 3, wb, attraction, a-b-da, 2, 3, 5, 17, 195, 120, 193, 119, 120, 195, 3, 0.416725
398, 3, wb, filler, NA, 999, 999, 5, 18, 89, 180, 184, 164, 104, 103, 3, 0.941796
398, 3, wb, filler, NA, 999, 999, 5, 18, 89, 180, 184, 164, 104, 103, 2, 0.310862
398, 3, wb, attraction, a-b-da, 5, 3, 5, 19, 195, 120, 190, 117, 120, 195, 1, 1.29599
398, 3, wb, attraction, a-b-da, 5, 3, 5, 19, 195, 120, 190, 117, 120, 195, 3, 0.674933
398, 3, wb, filler, NA, 999, 999, 5, 20, 73, 99, 170, 116, 70, 125, 1, 0.637411
398, 3, wb, filler, NA, 999, 999, 5, 20, 73, 99, 170, 116, 70, 125, 2, 0.355188
398, 3, wb, attraction, a-b-da, 14, 1, 5, 21, 125, 56, 135, 60, 60, 135, 1, 1.74707
398, 3, wb, attraction, a-b-da, 14, 1, 5, 21, 125, 56, 135, 60, 60, 135, 3, 0.683664
398, 3, wb, attraction, a-b-db, 5, 1, 5, 22, 135, 60, 60, 135, 58, 132, 3, 1.3181
398, 3, wb, attraction, a-b-db, 5, 1, 5, 22, 135, 60, 60, 135, 58, 132, 1, 0.888363
398, 3, wb, attraction, a-b-da, 5, 1, 5, 23, 132, 58, 135, 60, 60, 135, 1, 5.38657
398, 3, wb, attraction, a-b-da, 5, 1, 5, 23, 132, 58, 135, 60, 60, 135, 2, 0.888994
398, 3, wb, attraction, a-b-db, 14, 1, 5, 24, 135, 60, 60, 135, 56, 125, 3, 1.57939
398, 3, wb, attraction, a-b-db, 14, 1, 5, 24, 135, 60, 60, 135, 56, 125, 1, 0.802864
398, 3, wb, attraction, a-b-da, 14, 3, 5, 25, 120, 195, 195, 120, 181, 111, 3, 1.76059
398, 3, wb, attraction, a-b-da, 14, 3, 5, 25, 120, 195, 195, 120, 181, 111, 1, 0.560454
398, 3, wb, attraction, a-b-da, 5, 2, 5, 26, 165, 90, 90, 165, 161, 88, 1, 4.34366
398, 3, wb, attraction, a-b-da, 5, 2, 5, 26, 165, 90, 90, 165, 161, 88, 3, 0.671622
398, 3, wb, attraction, a-b-da, 9, 1, 5, 27, 129, 57, 135, 60, 60, 135, 1, 0.882684
398, 3, wb, attraction, a-b-da, 9, 1, 5, 27, 129, 57, 135, 60, 60, 135, 3, 0.470351
398, 3, wb, attraction, a-b-db, 5, 3, 5, 28, 117, 190, 120, 195, 195, 120, 1, 1.71351
398, 3, wb, attraction, a-b-db, 5, 3, 5, 28, 117, 190, 120, 195, 195, 120, 2, 0.31563
398, 3, wb, attraction, a-b-db, 2, 2, 5, 29, 90, 165, 165, 90, 89, 163, 3, 1.05286
398, 3, wb, attraction, a-b-db, 2, 2, 5, 29, 90, 165, 165, 90, 89, 163, 1, 0.689834
398, 3, wb, filler, NA, 999, 999, 5, 30, 113, 117, 70, 69, 134, 59, 2, 0.892127
398, 3, wb, filler, NA, 999, 999, 5, 30, 113, 117, 70, 69, 134, 59, 1, 0.391208
398, 3, wb, catch, NA, 999, 999, 5, 31, 115, 80, 135, 180, 125, 130, 1, 1.53305
398, 3, wb, catch, NA, 999, 999, 5, 31, 115, 80, 135, 180, 125, 130, 2, 0.294562
398, 3, wb, attraction, a-b-db, 9, 2, 5, 32, 90, 165, 86, 157, 165, 90, 2, 1.60027
398, 3, wb, attraction, a-b-db, 9, 2, 5, 32, 90, 165, 86, 157, 165, 90, 3, 0.527221
398, 3, wb, attraction, a-b-db, 5, 2, 5, 33, 90, 165, 165, 90, 88, 161, 3, 1.48762
398, 3, wb, attraction, a-b-db, 5, 2, 5, 33, 90, 165, 165, 90, 88, 161, 2, 0.514423
398, 3, wb, filler, NA, 999, 999, 5, 34, 130, 155, 132, 134, 64, 166, 3, 2.25949
398, 3, wb, filler, NA, 999, 999, 5, 34, 130, 155, 132, 134, 64, 166, 1, 0.551477
398, 3, wb, catch, NA, 999, 999, 5, 35, 120, 135, 75, 120, 147, 168, 2, 0.935264
398, 3, wb, catch, NA, 999, 999, 5, 35, 120, 135, 75, 120, 147, 168, 3, 0.544979
398, 3, wb, filler, NA, 999, 999, 5, 36, 58, 116, 178, 147, 185, 108, 1, 1.0966
398, 3, wb, filler, NA, 999, 999, 5, 36, 58, 116, 178, 147, 185, 108, 2, 0.251554
398, 3, wb, attraction, a-b-da, 14, 2, 5, 37, 165, 90, 90, 165, 153, 83, 3, 1.3515
398, 3, wb, attraction, a-b-da, 14, 2, 5, 37, 165, 90, 90, 165, 153, 83, 2, 0.448463
398, 3, wb, filler, NA, 999, 999, 6, 1, 186, 105, 87, 181, 158, 148, 1, 2.45216
398, 3, wb, filler, NA, 999, 999, 6, 1, 186, 105, 87, 181, 158, 148, 3, 0.544744
398, 3, wb, attraction, a-b-db, 9, 3, 6, 2, 195, 120, 120, 195, 114, 186, 1, 0.840478
398, 3, wb, attraction, a-b-db, 9, 3, 6, 2, 195, 120, 120, 195, 114, 186, 2, 0.533459
398, 3, wb, attraction, a-b-da, 2, 2, 6, 3, 165, 90, 90, 165, 163, 89, 2, 2.32602
398, 3, wb, attraction, a-b-da, 2, 2, 6, 3, 165, 90, 90, 165, 163, 89, 3, 0.295217
398, 3, wb, catch, NA, 999, 999, 6, 4, 114, 141, 120, 195, 89, 106, 3, 0.905046
398, 3, wb, catch, NA, 999, 999, 6, 4, 114, 141, 120, 195, 89, 106, 2, 0.555413
398, 3, wb, attraction, a-b-da, 14, 1, 6, 5, 125, 56, 60, 135, 135, 60, 1, 1.29915
398, 3, wb, attraction, a-b-da, 14, 1, 6, 5, 125, 56, 60, 135, 135, 60, 3, 0.830182
398, 3, wb, catch, NA, 999, 999, 6, 6, 106, 89, 186, 129, 95, 160, 1, 0.650383
398, 3, wb, catch, NA, 999, 999, 6, 6, 106, 89, 186, 129, 95, 160, 2, 0.21551
398, 3, wb, attraction, a-b-db, 2, 3, 6, 7, 119, 193, 120, 195, 195, 120, 1, 1.56475
398, 3, wb, attraction, a-b-db, 2, 3, 6, 7, 119, 193, 120, 195, 195, 120, 2, 0.188882
398, 3, wb, filler, NA, 999, 999, 6, 8, 79, 133, 136, 191, 69, 172, 1, 0.763401
398, 3, wb, filler, NA, 999, 999, 6, 8, 79, 133, 136, 191, 69, 172, 2, 0.203861
398, 3, wb, attraction, a-b-db, 9, 2, 6, 9, 165, 90, 86, 157, 90, 165, 2, 1.53767
398, 3, wb, attraction, a-b-db, 9, 2, 6, 9, 165, 90, 86, 157, 90, 165, 3, 0.651398
398, 3, wb, filler, NA, 999, 999, 6, 10, 90, 112, 123, 131, 143, 165, 1, 0.623021
398, 3, wb, filler, NA, 999, 999, 6, 10, 90, 112, 123, 131, 143, 165, 3, 0.324712
398, 3, wb, attraction, a-b-da, 14, 2, 6, 11, 153, 83, 165, 90, 90, 165, 1, 0.669289
398, 3, wb, attraction, a-b-da, 14, 2, 6, 11, 153, 83, 165, 90, 90, 165, 2, 0.217757
398, 3, wb, filler, NA, 999, 999, 6, 12, 192, 171, 194, 95, 134, 57, 3, 0.806895
398, 3, wb, filler, NA, 999, 999, 6, 12, 192, 171, 194, 95, 134, 57, 1, 0.301267
398, 3, wb, catch, NA, 999, 999, 6, 13, 135, 120, 79, 116, 137, 178, 1, 0.807189
398, 3, wb, catch, NA, 999, 999, 6, 13, 135, 120, 79, 116, 137, 178, 3, 1.13359
398, 3, wb, attraction, a-b-db, 14, 1, 6, 14, 56, 125, 135, 60, 60, 135, 1, 0.901711
398, 3, wb, attraction, a-b-db, 14, 1, 6, 14, 56, 125, 135, 60, 60, 135, 3, 0.408791
398, 3, wb, attraction, a-b-da, 9, 1, 6, 15, 129, 57, 135, 60, 60, 135, 1, 0.957969
398, 3, wb, attraction, a-b-da, 9, 1, 6, 15, 129, 57, 135, 60, 60, 135, 3, 0.414243
398, 3, wb, attraction, a-b-da, 5, 3, 6, 16, 195, 120, 120, 195, 190, 117, 1, 1.71547
398, 3, wb, attraction, a-b-da, 5, 3, 6, 16, 195, 120, 120, 195, 190, 117, 2, 1.16553
398, 3, wb, attraction, a-b-db, 5, 1, 6, 17, 58, 132, 135, 60, 60, 135, 1, 0.916545
398, 3, wb, attraction, a-b-db, 5, 1, 6, 17, 58, 132, 135, 60, 60, 135, 3, 0.350924
398, 3, wb, attraction, a-b-da, 5, 2, 6, 18, 90, 165, 161, 88, 165, 90, 1, 0.886725
398, 3, wb, attraction, a-b-da, 5, 2, 6, 18, 90, 165, 161, 88, 165, 90, 2, 1.0743
398, 3, wb, attraction, a-b-db, 5, 3, 6, 19, 195, 120, 117, 190, 120, 195, 1, 0.756561
398, 3, wb, attraction, a-b-db, 5, 3, 6, 19, 195, 120, 117, 190, 120, 195, 2, 0.557001
398, 3, wb, attraction, a-b-db, 14, 2, 6, 20, 83, 153, 165, 90, 90, 165, 1, 0.948057
398, 3, wb, attraction, a-b-db, 14, 2, 6, 20, 83, 153, 165, 90, 90, 165, 2, 0.54106
398, 3, wb, filler, NA, 999, 999, 6, 21, 77, 77, 161, 128, 166, 142, 1, 0.676859
398, 3, wb, filler, NA, 999, 999, 6, 21, 77, 77, 161, 128, 166, 142, 3, 0.840645
398, 3, wb, attraction, a-b-db, 14, 3, 6, 22, 120, 195, 111, 181, 195, 120, 3, 1.53228
398, 3, wb, attraction, a-b-db, 14, 3, 6, 22, 120, 195, 111, 181, 195, 120, 2, 0.35778
398, 3, wb, filler, NA, 999, 999, 6, 23, 178, 168, 111, 89, 155, 123, 2, 0.75699
398, 3, wb, filler, NA, 999, 999, 6, 23, 178, 168, 111, 89, 155, 123, 1, 0.293428
398, 3, wb, attraction, a-b-da, 14, 3, 6, 24, 195, 120, 120, 195, 181, 111, 1, 1.5432
398, 3, wb, attraction, a-b-da, 14, 3, 6, 24, 195, 120, 120, 195, 181, 111, 2, 0.24807
398, 3, wb, attraction, a-b-da, 5, 1, 6, 25, 60, 135, 135, 60, 132, 58, 1, 1.21998
398, 3, wb, attraction, a-b-da, 5, 1, 6, 25, 60, 135, 135, 60, 132, 58, 2, 0.650227
398, 3, wb, attraction, a-b-db, 9, 1, 6, 26, 60, 135, 57, 129, 135, 60, 2, 2.10192
398, 3, wb, attraction, a-b-db, 9, 1, 6, 26, 60, 135, 57, 129, 135, 60, 3, 0.624521
398, 3, wb, filler, NA, 999, 999, 6, 27, 138, 111, 162, 168, 103, 127, 3, 1.853
398, 3, wb, filler, NA, 999, 999, 6, 27, 138, 111, 162, 168, 103, 127, 2, 0.553669
398, 3, wb, attraction, a-b-da, 2, 3, 6, 28, 195, 120, 193, 119, 120, 195, 1, 1.98559
398, 3, wb, attraction, a-b-da, 2, 3, 6, 28, 195, 120, 193, 119, 120, 195, 3, 0.592849
398, 3, wb, attraction, a-b-da, 2, 1, 6, 29, 60, 135, 134, 59, 135, 60, 1, 1.55859
398, 3, wb, attraction, a-b-da, 2, 1, 6, 29, 60, 135, 134, 59, 135, 60, 2, 0.470842
398, 3, wb, filler, NA, 999, 999, 6, 30, 153, 183, 134, 180, 194, 163, 2, 1.15389
398, 3, wb, filler, NA, 999, 999, 6, 30, 153, 183, 134, 180, 194, 163, 3, 0.394889
398, 3, wb, filler, NA, 999, 999, 6, 31, 184, 59, 129, 112, 148, 124, 1, 2.05684
398, 3, wb, filler, NA, 999, 999, 6, 31, 184, 59, 129, 112, 148, 124, 3, 0.388735
398, 3, wb, attraction, a-b-db, 2, 1, 6, 32, 135, 60, 60, 135, 59, 134, 1, 2.15513
398, 3, wb, attraction, a-b-db, 2, 1, 6, 32, 135, 60, 60, 135, 59, 134, 2, 0.291743
398, 3, wb, attraction, a-b-da, 9, 2, 6, 33, 157, 86, 165, 90, 90, 165, 1, 1.4696
398, 3, wb, attraction, a-b-da, 9, 2, 6, 33, 157, 86, 165, 90, 90, 165, 3, 0.617883
398, 3, wb, attraction, a-b-db, 2, 2, 6, 34, 165, 90, 89, 163, 90, 165, 1, 0.726939
398, 3, wb, attraction, a-b-db, 2, 2, 6, 34, 165, 90, 89, 163, 90, 165, 2, 0.424726
398, 3, wb, attraction, a-b-da, 9, 3, 6, 35, 120, 195, 195, 120, 186, 114, 3, 0.845085
398, 3, wb, attraction, a-b-da, 9, 3, 6, 35, 120, 195, 195, 120, 186, 114, 2, 0.634158
398, 3, wb, filler, NA, 999, 999, 6, 36, 185, 69, 138, 136, 119, 99, 1, 1.10254
398, 3, wb, filler, NA, 999, 999, 6, 36, 185, 69, 138, 136, 119, 99, 2, 0.59351
398, 3, wb, attraction, a-b-db, 5, 2, 6, 37, 88, 161, 90, 165, 165, 90, 1, 1.76727
398, 3, wb, attraction, a-b-db, 5, 2, 6, 37, 88, 161, 90, 165, 165, 90, 3, 0.623368
398, 3, wb, attraction, a-b-db, 2, 1, 7, 1, 59, 134, 60, 135, 135, 60, 3, 1.68376
398, 3, wb, attraction, a-b-db, 2, 1, 7, 1, 59, 134, 60, 135, 135, 60, 1, 0.719359
398, 3, wb, attraction, a-b-db, 5, 1, 7, 2, 58, 132, 135, 60, 60, 135, 1, 2.24821
398, 3, wb, attraction, a-b-db, 5, 1, 7, 2, 58, 132, 135, 60, 60, 135, 2, 0.252853
398, 3, wb, filler, NA, 999, 999, 7, 3, 138, 58, 88, 146, 147, 83, 1, 1.91268
398, 3, wb, filler, NA, 999, 999, 7, 3, 138, 58, 88, 146, 147, 83, 2, 4.37091
398, 3, wb, filler, NA, 999, 999, 7, 4, 110, 96, 185, 80, 95, 130, 1, 1.5447
398, 3, wb, filler, NA, 999, 999, 7, 4, 110, 96, 185, 80, 95, 130, 2, 0.489643
398, 3, wb, attraction, a-b-db, 2, 2, 7, 5, 90, 165, 89, 163, 165, 90, 1, 2.77204
398, 3, wb, attraction, a-b-db, 2, 2, 7, 5, 90, 165, 89, 163, 165, 90, 3, 0.915114
398, 3, wb, attraction, a-b-db, 2, 3, 7, 6, 120, 195, 119, 193, 195, 120, 3, 2.90002
398, 3, wb, attraction, a-b-db, 2, 3, 7, 6, 120, 195, 119, 193, 195, 120, 2, 0.318414
398, 3, wb, attraction, a-b-da, 14, 3, 7, 7, 120, 195, 195, 120, 181, 111, 3, 1.86383
398, 3, wb, attraction, a-b-da, 14, 3, 7, 7, 120, 195, 195, 120, 181, 111, 2, 0.3957
398, 3, wb, attraction, a-b-da, 14, 1, 7, 8, 125, 56, 60, 135, 135, 60, 1, 1.92157
398, 3, wb, attraction, a-b-da, 14, 1, 7, 8, 125, 56, 60, 135, 135, 60, 3, 0.442971
398, 3, wb, attraction, a-b-da, 9, 3, 7, 9, 120, 195, 195, 120, 186, 114, 1, 3.85468
398, 3, wb, attraction, a-b-da, 9, 3, 7, 9, 120, 195, 195, 120, 186, 114, 2, 1.17085
398, 3, wb, filler, NA, 999, 999, 7, 10, 134, 143, 64, 85, 95, 146, 2, 1.08974
398, 3, wb, filler, NA, 999, 999, 7, 10, 134, 143, 64, 85, 95, 146, 1, 0.26859
398, 3, wb, filler, NA, 999, 999, 7, 11, 147, 99, 157, 171, 100, 57, 3, 0.727817
398, 3, wb, filler, NA, 999, 999, 7, 11, 147, 99, 157, 171, 100, 57, 2, 0.345681
398, 3, wb, attraction, a-b-db, 14, 3, 7, 12, 120, 195, 195, 120, 111, 181, 3, 1.04943
398, 3, wb, attraction, a-b-db, 14, 3, 7, 12, 120, 195, 195, 120, 111, 181, 2, 0.302395
398, 3, wb, attraction, a-b-da, 2, 2, 7, 13, 165, 90, 90, 165, 163, 89, 3, 1.32842
398, 3, wb, attraction, a-b-da, 2, 2, 7, 13, 165, 90, 90, 165, 163, 89, 2, 0.378001
398, 3, wb, attraction, a-b-db, 14, 2, 7, 14, 165, 90, 83, 153, 90, 165, 1, 0.616404
398, 3, wb, attraction, a-b-db, 14, 2, 7, 14, 165, 90, 83, 153, 90, 165, 3, 0.366769
398, 3, wb, attraction, a-b-db, 14, 1, 7, 15, 56, 125, 135, 60, 60, 135, 1, 1.24591
398, 3, wb, attraction, a-b-db, 14, 1, 7, 15, 56, 125, 135, 60, 60, 135, 3, 1.05883
398, 3, wb, attraction, a-b-da, 2, 1, 7, 16, 135, 60, 60, 135, 134, 59, 2, 1.65386
398, 3, wb, attraction, a-b-da, 2, 1, 7, 16, 135, 60, 60, 135, 134, 59, 1, 0.834496
398, 3, wb, attraction, a-b-db, 9, 1, 7, 17, 60, 135, 57, 129, 135, 60, 1, 1.31096
398, 3, wb, attraction, a-b-db, 9, 1, 7, 17, 60, 135, 57, 129, 135, 60, 2, 0.553279
398, 3, wb, attraction, a-b-db, 9, 3, 7, 18, 114, 186, 195, 120, 120, 195, 1, 1.46492
398, 3, wb, attraction, a-b-db, 9, 3, 7, 18, 114, 186, 195, 120, 120, 195, 3, 0.597125
398, 3, wb, filler, NA, 999, 999, 7, 19, 101, 68, 60, 170, 193, 194, 1, 0.851008
398, 3, wb, filler, NA, 999, 999, 7, 19, 101, 68, 60, 170, 193, 194, 3, 0.4239
398, 3, wb, attraction, a-b-da, 5, 3, 7, 20, 190, 117, 120, 195, 195, 120, 1, 2.86032
398, 3, wb, attraction, a-b-da, 5, 3, 7, 20, 190, 117, 120, 195, 195, 120, 2, 0.44012
398, 3, wb, attraction, a-b-db, 5, 2, 7, 21, 90, 165, 88, 161, 165, 90, 1, 1.10801
398, 3, wb, attraction, a-b-db, 5, 2, 7, 21, 90, 165, 88, 161, 165, 90, 2, 1.59032
398, 3, wb, attraction, a-b-db, 5, 3, 7, 22, 195, 120, 117, 190, 120, 195, 1, 0.740331
398, 3, wb, attraction, a-b-db, 5, 3, 7, 22, 195, 120, 117, 190, 120, 195, 2, 0.325395
398, 3, wb, attraction, a-b-da, 5, 2, 7, 23, 161, 88, 90, 165, 165, 90, 1, 0.893893
398, 3, wb, attraction, a-b-da, 5, 2, 7, 23, 161, 88, 90, 165, 165, 90, 2, 0.408948
398, 3, wb, attraction, a-b-da, 2, 3, 7, 24, 193, 119, 120, 195, 195, 120, 3, 0.670182
398, 3, wb, attraction, a-b-da, 2, 3, 7, 24, 193, 119, 120, 195, 195, 120, 2, 0.418557
398, 3, wb, catch, NA, 999, 999, 7, 25, 165, 150, 70, 125, 153, 102, 1, 0.607636
398, 3, wb, catch, NA, 999, 999, 7, 25, 165, 150, 70, 125, 153, 102, 2, 1.28612
398, 3, wb, filler, NA, 999, 999, 7, 26, 131, 153, 161, 76, 166, 117, 2, 2.48036
398, 3, wb, filler, NA, 999, 999, 7, 26, 131, 153, 161, 76, 166, 117, 1, 0.483543
398, 3, wb, attraction, a-b-da, 9, 1, 7, 27, 135, 60, 60, 135, 129, 57, 3, 1.23017
398, 3, wb, attraction, a-b-da, 9, 1, 7, 27, 135, 60, 60, 135, 129, 57, 2, 0.611711
398, 3, wb, filler, NA, 999, 999, 7, 28, 118, 169, 184, 170, 129, 168, 1, 1.02472
398, 3, wb, filler, NA, 999, 999, 7, 28, 118, 169, 184, 170, 129, 168, 2, 0.366253
398, 3, wb, filler, NA, 999, 999, 7, 29, 171, 92, 186, 66, 56, 158, 3, 0.94943
398, 3, wb, filler, NA, 999, 999, 7, 29, 171, 92, 186, 66, 56, 158, 1, 0.534537
398, 3, wb, attraction, a-b-da, 9, 2, 7, 30, 165, 90, 90, 165, 157, 86, 3, 1.61491
398, 3, wb, attraction, a-b-da, 9, 2, 7, 30, 165, 90, 90, 165, 157, 86, 2, 0.685099
398, 3, wb, catch, NA, 999, 999, 7, 31, 96, 159, 85, 110, 136, 179, 2, 0.839422
398, 3, wb, catch, NA, 999, 999, 7, 31, 96, 159, 85, 110, 136, 179, 3, 0.364466
398, 3, wb, attraction, a-b-da, 14, 2, 7, 32, 90, 165, 165, 90, 153, 83, 3, 1.27575
398, 3, wb, attraction, a-b-da, 14, 2, 7, 32, 90, 165, 165, 90, 153, 83, 1, 0.407156
398, 3, wb, attraction, a-b-da, 5, 1, 7, 33, 135, 60, 60, 135, 132, 58, 1, 1.10838
398, 3, wb, attraction, a-b-da, 5, 1, 7, 33, 135, 60, 60, 135, 132, 58, 2, 0.678752
398, 3, wb, catch, NA, 999, 999, 7, 34, 153, 102, 82, 113, 174, 141, 2, 1.21713
398, 3, wb, catch, NA, 999, 999, 7, 34, 153, 102, 82, 113, 174, 141, 3, 0.367314
398, 3, wb, attraction, a-b-db, 9, 2, 7, 35, 90, 165, 165, 90, 86, 157, 3, 1.04648
398, 3, wb, attraction, a-b-db, 9, 2, 7, 35, 90, 165, 165, 90, 86, 157, 1, 0.499532
398, 3, wb, filler, NA, 999, 999, 7, 36, 107, 108, 118, 171, 185, 155, 1, 0.757177
398, 3, wb, filler, NA, 999, 999, 7, 36, 107, 108, 118, 171, 185, 155, 3, 0.413585
398, 3, wb, filler, NA, 999, 999, 7, 37, 154, 138, 108, 86, 162, 123, 2, 0.970827
398, 3, wb, filler, NA, 999, 999, 7, 37, 154, 138, 108, 86, 162, 123, 1, 0.578415
398, 3, wb, filler, NA, 999, 999, 8, 1, 64, 140, 181, 65, 60, 161, 1, 1.84092
398, 3, wb, filler, NA, 999, 999, 8, 1, 64, 140, 181, 65, 60, 161, 2, 0.285647
398, 3, wb, attraction, a-b-da, 14, 1, 8, 2, 60, 135, 125, 56, 135, 60, 2, 1.90418
398, 3, wb, attraction, a-b-da, 14, 1, 8, 2, 60, 135, 125, 56, 135, 60, 1, 0.394964
398, 3, wb, filler, NA, 999, 999, 8, 3, 106, 158, 92, 108, 77, 73, 3, 0.952604
398, 3, wb, filler, NA, 999, 999, 8, 3, 106, 158, 92, 108, 77, 73, 1, 0.425641
398, 3, wb, attraction, a-b-da, 14, 2, 8, 4, 165, 90, 153, 83, 90, 165, 1, 0.966158
398, 3, wb, attraction, a-b-da, 14, 2, 8, 4, 165, 90, 153, 83, 90, 165, 3, 0.782552
398, 3, wb, attraction, a-b-da, 9, 3, 8, 5, 195, 120, 186, 114, 120, 195, 2, 1.67686
398, 3, wb, attraction, a-b-da, 9, 3, 8, 5, 195, 120, 186, 114, 120, 195, 1, 0.232217
398, 3, wb, attraction, a-b-db, 9, 1, 8, 6, 60, 135, 135, 60, 57, 129, 2, 1.02878
398, 3, wb, attraction, a-b-db, 9, 1, 8, 6, 60, 135, 135, 60, 57, 129, 1, 0.962558
398, 3, wb, attraction, a-b-db, 5, 1, 8, 7, 58, 132, 60, 135, 135, 60, 1, 0.929515
398, 3, wb, attraction, a-b-db, 5, 1, 8, 7, 58, 132, 60, 135, 135, 60, 3, 0.427144
398, 3, wb, attraction, a-b-da, 2, 3, 8, 8, 195, 120, 193, 119, 120, 195, 1, 12.2556
398, 3, wb, attraction, a-b-da, 2, 3, 8, 8, 195, 120, 193, 119, 120, 195, 3, 0.609056
398, 3, wb, filler, NA, 999, 999, 8, 9, 194, 101, 116, 176, 69, 115, 3, 2.63037
398, 3, wb, filler, NA, 999, 999, 8, 9, 194, 101, 116, 176, 69, 115, 2, 0.915423
398, 3, wb, attraction, a-b-db, 5, 3, 8, 10, 117, 190, 195, 120, 120, 195, 1, 6.79634
398, 3, wb, attraction, a-b-db, 5, 3, 8, 10, 117, 190, 195, 120, 120, 195, 3, 0.625523
398, 3, wb, catch, NA, 999, 999, 8, 11, 137, 178, 119, 76, 110, 145, 2, 1.13392
398, 3, wb, catch, NA, 999, 999, 8, 11, 137, 178, 119, 76, 110, 145, 1, 0.303568
398, 3, wb, filler, NA, 999, 999, 8, 12, 64, 90, 84, 115, 124, 149, 1, 1.28938
398, 3, wb, filler, NA, 999, 999, 8, 12, 64, 90, 84, 115, 124, 149, 3, 0.412396
398, 3, wb, filler, NA, 999, 999, 8, 13, 160, 190, 136, 184, 188, 157, 2, 2.09745
398, 3, wb, filler, NA, 999, 999, 8, 13, 160, 190, 136, 184, 188, 157, 1, 0.460087
398, 3, wb, attraction, a-b-db, 14, 1, 8, 14, 56, 125, 60, 135, 135, 60, 1, 1.68725
398, 3, wb, attraction, a-b-db, 14, 1, 8, 14, 56, 125, 60, 135, 135, 60, 2, 0.490671
398, 3, wb, catch, NA, 999, 999, 8, 15, 97, 98, 160, 155, 126, 129, 1, 0.908527
398, 3, wb, catch, NA, 999, 999, 8, 15, 97, 98, 160, 155, 126, 129, 2, 0.430855
398, 3, wb, filler, NA, 999, 999, 8, 16, 175, 163, 141, 185, 133, 129, 3, 1.45132
398, 3, wb, filler, NA, 999, 999, 8, 16, 175, 163, 141, 185, 133, 129, 1, 0.432056
398, 3, wb, attraction, a-b-db, 2, 1, 8, 17, 60, 135, 59, 134, 135, 60, 1, 1.94851
398, 3, wb, attraction, a-b-db, 2, 1, 8, 17, 60, 135, 59, 134, 135, 60, 2, 0.485318
398, 3, wb, attraction, a-b-da, 5, 3, 8, 18, 190, 117, 120, 195, 195, 120, 1, 1.02371
398, 3, wb, attraction, a-b-da, 5, 3, 8, 18, 190, 117, 120, 195, 195, 120, 2, 0.525452
398, 3, wb, filler, NA, 999, 999, 8, 19, 58, 81, 86, 164, 80, 104, 1, 0.741794
398, 3, wb, filler, NA, 999, 999, 8, 19, 58, 81, 86, 164, 80, 104, 2, 0.446868
398, 3, wb, attraction, a-b-db, 5, 2, 8, 20, 165, 90, 90, 165, 88, 161, 1, 3.98683
398, 3, wb, attraction, a-b-db, 5, 2, 8, 20, 165, 90, 90, 165, 88, 161, 2, 0.497537
398, 3, wb, filler, NA, 999, 999, 8, 21, 63, 112, 83, 98, 132, 76, 1, 1.04333
398, 3, wb, filler, NA, 999, 999, 8, 21, 63, 112, 83, 98, 132, 76, 3, 1.79225
398, 3, wb, attraction, a-b-da, 9, 1, 8, 22, 60, 135, 135, 60, 129, 57, 3, 1.11765
398, 3, wb, attraction, a-b-da, 9, 1, 8, 22, 60, 135, 135, 60, 129, 57, 1, 1.73583
398, 3, wb, filler, NA, 999, 999, 8, 23, 194, 157, 127, 56, 188, 190, 2, 0.975873
398, 3, wb, filler, NA, 999, 999, 8, 23, 194, 157, 127, 56, 188, 190, 3, 1.19967
398, 3, wb, attraction, a-b-da, 2, 2, 8, 24, 163, 89, 165, 90, 90, 165, 1, 12.9012
398, 3, wb, attraction, a-b-da, 2, 2, 8, 24, 163, 89, 165, 90, 90, 165, 2, 1.12453
398, 3, wb, attraction, a-b-da, 14, 3, 8, 25, 120, 195, 195, 120, 181, 111, 3, 1.82874
398, 3, wb, attraction, a-b-da, 14, 3, 8, 25, 120, 195, 195, 120, 181, 111, 1, 0.78619
398, 3, wb, attraction, a-b-da, 9, 2, 8, 26, 165, 90, 90, 165, 157, 86, 3, 1.48846
398, 3, wb, attraction, a-b-da, 9, 2, 8, 26, 165, 90, 90, 165, 157, 86, 1, 0.635294
398, 3, wb, attraction, a-b-da, 5, 1, 8, 27, 132, 58, 60, 135, 135, 60, 3, 1.19969
398, 3, wb, attraction, a-b-da, 5, 1, 8, 27, 132, 58, 60, 135, 135, 60, 2, 0.614705
398, 3, wb, attraction, a-b-db, 9, 2, 8, 28, 165, 90, 90, 165, 86, 157, 1, 1.25975
398, 3, wb, attraction, a-b-db, 9, 2, 8, 28, 165, 90, 90, 165, 86, 157, 2, 0.58415
398, 3, wb, attraction, a-b-db, 2, 3, 8, 29, 120, 195, 119, 193, 195, 120, 2, 3.87055
398, 3, wb, attraction, a-b-db, 2, 3, 8, 29, 120, 195, 119, 193, 195, 120, 3, 0.729823
398, 3, wb, attraction, a-b-db, 9, 3, 8, 30, 114, 186, 195, 120, 120, 195, 1, 0.922235
398, 3, wb, attraction, a-b-db, 9, 3, 8, 30, 114, 186, 195, 120, 120, 195, 2, 0.403898
398, 3, wb, catch, NA, 999, 999, 8, 31, 142, 173, 96, 99, 93, 162, 2, 0.825756
398, 3, wb, catch, NA, 999, 999, 8, 31, 142, 173, 96, 99, 93, 162, 1, 0.383401
398, 3, wb, attraction, a-b-db, 14, 3, 8, 32, 195, 120, 111, 181, 120, 195, 1, 1.79796
398, 3, wb, attraction, a-b-db, 14, 3, 8, 32, 195, 120, 111, 181, 120, 195, 3, 0.596738
398, 3, wb, attraction, a-b-db, 14, 2, 8, 33, 165, 90, 90, 165, 83, 153, 3, 0.914545
398, 3, wb, attraction, a-b-db, 14, 2, 8, 33, 165, 90, 90, 165, 83, 153, 2, 0.740955
398, 3, wb, filler, NA, 999, 999, 8, 34, 156, 164, 112, 83, 143, 123, 2, 0.724528
398, 3, wb, filler, NA, 999, 999, 8, 34, 156, 164, 112, 83, 143, 123, 1, 0.39031
398, 3, wb, attraction, a-b-da, 5, 2, 8, 35, 165, 90, 90, 165, 161, 88, 1, 1.11613
398, 3, wb, attraction, a-b-da, 5, 2, 8, 35, 165, 90, 90, 165, 161, 88, 2, 0.470443
398, 3, wb, attraction, a-b-da, 2, 1, 8, 36, 134, 59, 135, 60, 60, 135, 3, 1.08148
398, 3, wb, attraction, a-b-da, 2, 1, 8, 36, 134, 59, 135, 60, 60, 135, 2, 0.565136
398, 3, wb, attraction, a-b-db, 2, 2, 8, 37, 90, 165, 89, 163, 165, 90, 1, 2.86821
398, 3, wb, attraction, a-b-db, 2, 2, 8, 37, 90, 165, 89, 163, 165, 90, 2, 0.599942
