sub_n, computer_n, bw_cond, effect, set, distance, diag, block_n, trial_n, h1, w1, h2, w2, h3, w3, choice, rt 
327, 3, bw, practice, NA, 999, 999, 0, 1, 154, 181, 183, 60, 179, 136, 1, 2.36864
327, 3, bw, practice, NA, 999, 999, 0, 1, 154, 181, 183, 60, 179, 136, 2, 1.72601
327, 3, bw, practice, NA, 999, 999, 0, 2, 60, 135, 150, 164, 75, 144, 2, 2.17353
327, 3, bw, practice, NA, 999, 999, 0, 2, 60, 135, 150, 164, 75, 144, 1, 0.627743
327, 3, bw, practice, NA, 999, 999, 0, 3, 123, 150, 170, 178, 195, 185, 3, 1.75858
327, 3, bw, practice, NA, 999, 999, 0, 3, 123, 150, 170, 178, 195, 185, 1, 0.566216
327, 3, bw, attraction, a-b-da, 9, 3, 1, 1, 120, 195, 195, 120, 186, 114, 3, 2.87208
327, 3, bw, attraction, a-b-da, 9, 3, 1, 1, 120, 195, 195, 120, 186, 114, 1, 0.811807
327, 3, bw, attraction, a-b-da, 2, 3, 1, 2, 193, 119, 120, 195, 195, 120, 1, 3.18478
327, 3, bw, attraction, a-b-da, 2, 3, 1, 2, 193, 119, 120, 195, 195, 120, 3, 1.0799
327, 3, bw, attraction, a-b-db, 14, 3, 1, 3, 195, 120, 120, 195, 111, 181, 2, 1.92202
327, 3, bw, attraction, a-b-db, 14, 3, 1, 3, 195, 120, 120, 195, 111, 181, 1, 0.995479
327, 3, bw, filler, NA, 999, 999, 1, 4, 138, 157, 107, 181, 127, 136, 1, 1.85711
327, 3, bw, filler, NA, 999, 999, 1, 4, 138, 157, 107, 181, 127, 136, 3, 0.44529
327, 3, bw, attraction, a-b-da, 5, 1, 1, 5, 132, 58, 135, 60, 60, 135, 3, 4.34495
327, 3, bw, attraction, a-b-da, 5, 1, 1, 5, 132, 58, 135, 60, 60, 135, 2, 0.608912
327, 3, bw, attraction, a-b-db, 14, 2, 1, 6, 165, 90, 90, 165, 83, 153, 2, 2.16599
327, 3, bw, attraction, a-b-db, 14, 2, 1, 6, 165, 90, 90, 165, 83, 153, 3, 0.829968
327, 3, bw, attraction, a-b-db, 5, 1, 1, 7, 58, 132, 60, 135, 135, 60, 3, 2.46632
327, 3, bw, attraction, a-b-db, 5, 1, 1, 7, 58, 132, 60, 135, 135, 60, 1, 0.822149
327, 3, bw, filler, NA, 999, 999, 1, 8, 169, 154, 96, 103, 130, 95, 1, 1.42717
327, 3, bw, filler, NA, 999, 999, 1, 8, 169, 154, 96, 103, 130, 95, 2, 0.528722
327, 3, bw, filler, NA, 999, 999, 1, 9, 157, 110, 71, 161, 74, 65, 1, 1.20912
327, 3, bw, filler, NA, 999, 999, 1, 9, 157, 110, 71, 161, 74, 65, 3, 0.527407
327, 3, bw, attraction, a-b-da, 14, 1, 1, 10, 125, 56, 60, 135, 135, 60, 3, 1.24785
327, 3, bw, attraction, a-b-da, 14, 1, 1, 10, 125, 56, 60, 135, 135, 60, 1, 0.548778
327, 3, bw, attraction, a-b-db, 2, 1, 1, 11, 135, 60, 60, 135, 59, 134, 1, 2.23664
327, 3, bw, attraction, a-b-db, 2, 1, 1, 11, 135, 60, 60, 135, 59, 134, 3, 0.753927
327, 3, bw, filler, NA, 999, 999, 1, 12, 111, 179, 107, 134, 83, 84, 1, 1.48151
327, 3, bw, filler, NA, 999, 999, 1, 12, 111, 179, 107, 134, 83, 84, 3, 0.42103
327, 3, bw, attraction, a-b-da, 9, 2, 1, 13, 165, 90, 157, 86, 90, 165, 3, 1.95416
327, 3, bw, attraction, a-b-da, 9, 2, 1, 13, 165, 90, 157, 86, 90, 165, 2, 0.634993
327, 3, bw, attraction, a-b-da, 9, 1, 1, 14, 129, 57, 60, 135, 135, 60, 2, 2.07131
327, 3, bw, attraction, a-b-da, 9, 1, 1, 14, 129, 57, 60, 135, 135, 60, 1, 1.7393
327, 3, bw, filler, NA, 999, 999, 1, 15, 183, 83, 99, 127, 111, 79, 1, 1.09935
327, 3, bw, filler, NA, 999, 999, 1, 15, 183, 83, 99, 127, 111, 79, 3, 1.27035
327, 3, bw, attraction, a-b-db, 9, 3, 1, 16, 114, 186, 120, 195, 195, 120, 3, 1.26525
327, 3, bw, attraction, a-b-db, 9, 3, 1, 16, 114, 186, 120, 195, 195, 120, 1, 0.613441
327, 3, bw, attraction, a-b-da, 5, 2, 1, 17, 161, 88, 165, 90, 90, 165, 3, 2.55449
327, 3, bw, attraction, a-b-da, 5, 2, 1, 17, 161, 88, 165, 90, 90, 165, 1, 0.507056
327, 3, bw, attraction, a-b-da, 2, 1, 1, 18, 135, 60, 134, 59, 60, 135, 3, 1.06012
327, 3, bw, attraction, a-b-da, 2, 1, 1, 18, 135, 60, 134, 59, 60, 135, 1, 0.880468
327, 3, bw, attraction, a-b-db, 14, 1, 1, 19, 60, 135, 56, 125, 135, 60, 1, 1.13074
327, 3, bw, attraction, a-b-db, 14, 1, 1, 19, 60, 135, 56, 125, 135, 60, 2, 0.892364
327, 3, bw, filler, NA, 999, 999, 1, 20, 57, 140, 186, 88, 64, 162, 2, 1.14206
327, 3, bw, filler, NA, 999, 999, 1, 20, 57, 140, 186, 88, 64, 162, 1, 0.535013
327, 3, bw, filler, NA, 999, 999, 1, 21, 77, 84, 174, 118, 56, 90, 2, 0.823372
327, 3, bw, filler, NA, 999, 999, 1, 21, 77, 84, 174, 118, 56, 90, 1, 1.79718
327, 3, bw, attraction, a-b-da, 5, 3, 1, 22, 120, 195, 190, 117, 195, 120, 3, 1.08256
327, 3, bw, attraction, a-b-da, 5, 3, 1, 22, 120, 195, 190, 117, 195, 120, 2, 1.18215
327, 3, bw, catch, NA, 999, 999, 1, 23, 124, 131, 93, 102, 150, 165, 3, 1.52441
327, 3, bw, catch, NA, 999, 999, 1, 23, 124, 131, 93, 102, 150, 165, 2, 0.43785
327, 3, bw, attraction, a-b-db, 5, 2, 1, 24, 165, 90, 90, 165, 88, 161, 1, 3.6663
327, 3, bw, attraction, a-b-db, 5, 2, 1, 24, 165, 90, 90, 165, 88, 161, 2, 0.725819
327, 3, bw, filler, NA, 999, 999, 1, 25, 149, 110, 60, 101, 151, 75, 1, 1.03829
327, 3, bw, filler, NA, 999, 999, 1, 25, 149, 110, 60, 101, 151, 75, 2, 0.411203
327, 3, bw, filler, NA, 999, 999, 1, 26, 174, 101, 175, 80, 139, 114, 1, 2.63234
327, 3, bw, filler, NA, 999, 999, 1, 26, 174, 101, 175, 80, 139, 114, 2, 0.621505
327, 3, bw, catch, NA, 999, 999, 1, 27, 129, 186, 97, 158, 87, 108, 1, 0.986574
327, 3, bw, catch, NA, 999, 999, 1, 27, 129, 186, 97, 158, 87, 108, 3, 0.466267
327, 3, bw, attraction, a-b-db, 9, 1, 1, 28, 57, 129, 60, 135, 135, 60, 3, 0.949327
327, 3, bw, attraction, a-b-db, 9, 1, 1, 28, 57, 129, 60, 135, 135, 60, 1, 0.526487
327, 3, bw, attraction, a-b-db, 9, 2, 1, 29, 86, 157, 165, 90, 90, 165, 3, 1.18292
327, 3, bw, attraction, a-b-db, 9, 2, 1, 29, 86, 157, 165, 90, 90, 165, 2, 0.414398
327, 3, bw, attraction, a-b-db, 2, 3, 1, 30, 119, 193, 120, 195, 195, 120, 3, 2.56358
327, 3, bw, attraction, a-b-db, 2, 3, 1, 30, 119, 193, 120, 195, 195, 120, 2, 0.395375
327, 3, bw, attraction, a-b-db, 2, 2, 1, 31, 89, 163, 165, 90, 90, 165, 1, 0.849294
327, 3, bw, attraction, a-b-db, 2, 2, 1, 31, 89, 163, 165, 90, 90, 165, 2, 0.318351
327, 3, bw, attraction, a-b-db, 5, 3, 1, 32, 120, 195, 195, 120, 117, 190, 1, 0.807444
327, 3, bw, attraction, a-b-db, 5, 3, 1, 32, 120, 195, 195, 120, 117, 190, 2, 0.285999
327, 3, bw, attraction, a-b-da, 14, 2, 1, 33, 153, 83, 90, 165, 165, 90, 3, 1.21653
327, 3, bw, attraction, a-b-da, 14, 2, 1, 33, 153, 83, 90, 165, 165, 90, 1, 0.494611
327, 3, bw, attraction, a-b-da, 14, 3, 1, 34, 195, 120, 120, 195, 181, 111, 1, 1.07236
327, 3, bw, attraction, a-b-da, 14, 3, 1, 34, 195, 120, 120, 195, 181, 111, 2, 0.348237
327, 3, bw, catch, NA, 999, 999, 1, 35, 89, 106, 187, 128, 127, 128, 2, 1.16388
327, 3, bw, catch, NA, 999, 999, 1, 35, 89, 106, 187, 128, 127, 128, 1, 0.396174
327, 3, bw, filler, NA, 999, 999, 1, 36, 163, 79, 59, 165, 151, 147, 3, 0.666046
327, 3, bw, filler, NA, 999, 999, 1, 36, 163, 79, 59, 165, 151, 147, 2, 0.582507
327, 3, bw, attraction, a-b-da, 2, 2, 1, 37, 165, 90, 163, 89, 90, 165, 1, 1.01293
327, 3, bw, attraction, a-b-da, 2, 2, 1, 37, 165, 90, 163, 89, 90, 165, 3, 0.315247
327, 3, bw, filler, NA, 999, 999, 2, 1, 154, 149, 61, 108, 108, 102, 1, 0.844405
327, 3, bw, filler, NA, 999, 999, 2, 1, 154, 149, 61, 108, 108, 102, 2, 0.433474
327, 3, bw, attraction, a-b-db, 14, 3, 2, 2, 111, 181, 120, 195, 195, 120, 2, 0.829865
327, 3, bw, attraction, a-b-db, 14, 3, 2, 2, 111, 181, 120, 195, 195, 120, 1, 0.875624
327, 3, bw, attraction, a-b-da, 2, 1, 2, 3, 60, 135, 135, 60, 134, 59, 2, 2.98985
327, 3, bw, attraction, a-b-da, 2, 1, 2, 3, 60, 135, 135, 60, 134, 59, 1, 0.23623
327, 3, bw, filler, NA, 999, 999, 2, 4, 195, 78, 57, 137, 87, 184, 1, 3.38477
327, 3, bw, filler, NA, 999, 999, 2, 4, 195, 78, 57, 137, 87, 184, 2, 1.2477
327, 3, bw, attraction, a-b-db, 14, 2, 2, 5, 90, 165, 83, 153, 165, 90, 1, 1.04331
327, 3, bw, attraction, a-b-db, 14, 2, 2, 5, 90, 165, 83, 153, 165, 90, 2, 1.72837
327, 3, bw, filler, NA, 999, 999, 2, 6, 167, 89, 195, 94, 164, 114, 3, 0.952349
327, 3, bw, filler, NA, 999, 999, 2, 6, 167, 89, 195, 94, 164, 114, 2, 1.41735
327, 3, bw, attraction, a-b-da, 14, 1, 2, 7, 60, 135, 135, 60, 125, 56, 1, 0.926134
327, 3, bw, attraction, a-b-da, 14, 1, 2, 7, 60, 135, 135, 60, 125, 56, 3, 0.51189
327, 3, bw, attraction, a-b-db, 9, 2, 2, 8, 165, 90, 90, 165, 86, 157, 1, 1.04901
327, 3, bw, attraction, a-b-db, 9, 2, 2, 8, 165, 90, 90, 165, 86, 157, 3, 0.374001
327, 3, bw, attraction, a-b-db, 9, 1, 2, 9, 57, 129, 60, 135, 135, 60, 3, 1.59647
327, 3, bw, attraction, a-b-db, 9, 1, 2, 9, 57, 129, 60, 135, 135, 60, 2, 0.315239
327, 3, bw, attraction, a-b-da, 9, 1, 2, 10, 60, 135, 129, 57, 135, 60, 3, 1.50845
327, 3, bw, attraction, a-b-da, 9, 1, 2, 10, 60, 135, 129, 57, 135, 60, 2, 0.30255
327, 3, bw, filler, NA, 999, 999, 2, 11, 166, 191, 178, 70, 76, 191, 1, 0.664447
327, 3, bw, filler, NA, 999, 999, 2, 11, 166, 191, 178, 70, 76, 191, 2, 0.612928
327, 3, bw, filler, NA, 999, 999, 2, 12, 178, 101, 192, 192, 118, 167, 2, 0.938042
327, 3, bw, filler, NA, 999, 999, 2, 12, 178, 101, 192, 192, 118, 167, 1, 1.38774
327, 3, bw, attraction, a-b-da, 14, 3, 2, 13, 120, 195, 195, 120, 181, 111, 3, 1.40981
327, 3, bw, attraction, a-b-da, 14, 3, 2, 13, 120, 195, 195, 120, 181, 111, 2, 0.271974
327, 3, bw, attraction, a-b-db, 14, 1, 2, 14, 60, 135, 135, 60, 56, 125, 1, 1.25126
327, 3, bw, attraction, a-b-db, 14, 1, 2, 14, 60, 135, 135, 60, 56, 125, 2, 0.632242
327, 3, bw, filler, NA, 999, 999, 2, 15, 185, 159, 169, 167, 93, 157, 1, 0.740519
327, 3, bw, filler, NA, 999, 999, 2, 15, 185, 159, 169, 167, 93, 157, 3, 0.381647
327, 3, bw, catch, NA, 999, 999, 2, 16, 99, 156, 105, 90, 180, 135, 3, 0.892125
327, 3, bw, catch, NA, 999, 999, 2, 16, 99, 156, 105, 90, 180, 135, 2, 0.599114
327, 3, bw, attraction, a-b-db, 2, 2, 2, 17, 90, 165, 89, 163, 165, 90, 3, 1.00493
327, 3, bw, attraction, a-b-db, 2, 2, 2, 17, 90, 165, 89, 163, 165, 90, 2, 0.339836
327, 3, bw, attraction, a-b-db, 9, 3, 2, 18, 114, 186, 120, 195, 195, 120, 3, 0.948453
327, 3, bw, attraction, a-b-db, 9, 3, 2, 18, 114, 186, 120, 195, 195, 120, 2, 0.261439
327, 3, bw, attraction, a-b-db, 2, 1, 2, 19, 59, 134, 135, 60, 60, 135, 1, 1.16057
327, 3, bw, attraction, a-b-db, 2, 1, 2, 19, 59, 134, 135, 60, 60, 135, 3, 0.520943
327, 3, bw, attraction, a-b-db, 5, 3, 2, 20, 117, 190, 195, 120, 120, 195, 3, 0.906013
327, 3, bw, attraction, a-b-db, 5, 3, 2, 20, 117, 190, 195, 120, 120, 195, 2, 0.276331
327, 3, bw, attraction, a-b-da, 9, 2, 2, 21, 90, 165, 165, 90, 157, 86, 3, 0.974806
327, 3, bw, attraction, a-b-da, 9, 2, 2, 21, 90, 165, 165, 90, 157, 86, 2, 0.246555
327, 3, bw, filler, NA, 999, 999, 2, 22, 185, 195, 188, 193, 190, 99, 1, 1.03448
327, 3, bw, filler, NA, 999, 999, 2, 22, 185, 195, 188, 193, 190, 99, 3, 0.272117
327, 3, bw, filler, NA, 999, 999, 2, 23, 60, 190, 111, 101, 96, 190, 3, 0.987245
327, 3, bw, filler, NA, 999, 999, 2, 23, 60, 190, 111, 101, 96, 190, 2, 0.346997
327, 3, bw, catch, NA, 999, 999, 2, 24, 163, 92, 95, 100, 180, 135, 3, 0.882731
327, 3, bw, catch, NA, 999, 999, 2, 24, 163, 92, 95, 100, 180, 135, 2, 0.342421
327, 3, bw, filler, NA, 999, 999, 2, 25, 91, 113, 63, 142, 161, 174, 3, 0.774195
327, 3, bw, filler, NA, 999, 999, 2, 25, 91, 113, 63, 142, 161, 174, 2, 0.381941
327, 3, bw, attraction, a-b-db, 2, 3, 2, 26, 120, 195, 195, 120, 119, 193, 1, 0.652479
327, 3, bw, attraction, a-b-db, 2, 3, 2, 26, 120, 195, 195, 120, 119, 193, 2, 0.281703
327, 3, bw, attraction, a-b-da, 14, 2, 2, 27, 165, 90, 153, 83, 90, 165, 1, 0.660203
327, 3, bw, attraction, a-b-da, 14, 2, 2, 27, 165, 90, 153, 83, 90, 165, 2, 0.280595
327, 3, bw, filler, NA, 999, 999, 2, 28, 182, 77, 188, 179, 89, 125, 2, 1.6352
327, 3, bw, filler, NA, 999, 999, 2, 28, 182, 77, 188, 179, 89, 125, 3, 0.248576
327, 3, bw, attraction, a-b-db, 5, 1, 2, 29, 60, 135, 135, 60, 58, 132, 1, 0.68437
327, 3, bw, attraction, a-b-db, 5, 1, 2, 29, 60, 135, 135, 60, 58, 132, 2, 0.240201
327, 3, bw, attraction, a-b-da, 2, 3, 2, 30, 193, 119, 120, 195, 195, 120, 1, 0.787968
327, 3, bw, attraction, a-b-da, 2, 3, 2, 30, 193, 119, 120, 195, 195, 120, 2, 0.259761
327, 3, bw, attraction, a-b-da, 5, 2, 2, 31, 161, 88, 165, 90, 90, 165, 3, 0.574879
327, 3, bw, attraction, a-b-da, 5, 2, 2, 31, 161, 88, 165, 90, 90, 165, 2, 0.326701
327, 3, bw, attraction, a-b-db, 5, 2, 2, 32, 88, 161, 90, 165, 165, 90, 3, 1.35916
327, 3, bw, attraction, a-b-db, 5, 2, 2, 32, 88, 161, 90, 165, 165, 90, 2, 0.239428
327, 3, bw, attraction, a-b-da, 5, 1, 2, 33, 60, 135, 135, 60, 132, 58, 3, 0.779963
327, 3, bw, attraction, a-b-da, 5, 1, 2, 33, 60, 135, 135, 60, 132, 58, 2, 0.283715
327, 3, bw, attraction, a-b-da, 9, 3, 2, 34, 195, 120, 186, 114, 120, 195, 1, 2.18221
327, 3, bw, attraction, a-b-da, 9, 3, 2, 34, 195, 120, 186, 114, 120, 195, 3, 0.325509
327, 3, bw, attraction, a-b-da, 5, 3, 2, 35, 120, 195, 190, 117, 195, 120, 1, 0.709977
327, 3, bw, attraction, a-b-da, 5, 3, 2, 35, 120, 195, 190, 117, 195, 120, 2, 0.360479
327, 3, bw, attraction, a-b-da, 2, 2, 2, 36, 163, 89, 165, 90, 90, 165, 3, 0.95162
327, 3, bw, attraction, a-b-da, 2, 2, 2, 36, 163, 89, 165, 90, 90, 165, 2, 0.384608
327, 3, bw, catch, NA, 999, 999, 2, 37, 167, 148, 107, 148, 62, 133, 1, 0.759092
327, 3, bw, catch, NA, 999, 999, 2, 37, 167, 148, 107, 148, 62, 133, 3, 0.399597
327, 3, bw, filler, NA, 999, 999, 3, 1, 180, 140, 190, 66, 143, 115, 1, 0.845285
327, 3, bw, filler, NA, 999, 999, 3, 1, 180, 140, 190, 66, 143, 115, 2, 0.514333
327, 3, bw, attraction, a-b-da, 14, 3, 3, 2, 195, 120, 181, 111, 120, 195, 3, 1.21147
327, 3, bw, attraction, a-b-da, 14, 3, 3, 2, 195, 120, 181, 111, 120, 195, 2, 0.449754
327, 3, bw, filler, NA, 999, 999, 3, 3, 132, 127, 110, 157, 56, 130, 1, 1.70152
327, 3, bw, filler, NA, 999, 999, 3, 3, 132, 127, 110, 157, 56, 130, 3, 0.400449
327, 3, bw, filler, NA, 999, 999, 3, 4, 193, 109, 163, 95, 104, 61, 1, 1.1421
327, 3, bw, filler, NA, 999, 999, 3, 4, 193, 109, 163, 95, 104, 61, 3, 0.335137
327, 3, bw, attraction, a-b-db, 5, 3, 3, 5, 195, 120, 120, 195, 117, 190, 1, 0.911631
327, 3, bw, attraction, a-b-db, 5, 3, 3, 5, 195, 120, 120, 195, 117, 190, 3, 0.521926
327, 3, bw, attraction, a-b-db, 5, 1, 3, 6, 58, 132, 60, 135, 135, 60, 2, 1.20308
327, 3, bw, attraction, a-b-db, 5, 1, 3, 6, 58, 132, 60, 135, 135, 60, 3, 0.298018
327, 3, bw, attraction, a-b-da, 14, 1, 3, 7, 125, 56, 135, 60, 60, 135, 1, 0.787863
327, 3, bw, attraction, a-b-da, 14, 1, 3, 7, 125, 56, 135, 60, 60, 135, 3, 0.29957
327, 3, bw, attraction, a-b-db, 9, 2, 3, 8, 165, 90, 86, 157, 90, 165, 1, 0.709397
327, 3, bw, attraction, a-b-db, 9, 2, 3, 8, 165, 90, 86, 157, 90, 165, 3, 0.335806
327, 3, bw, attraction, a-b-da, 5, 2, 3, 9, 165, 90, 161, 88, 90, 165, 1, 0.544431
327, 3, bw, attraction, a-b-da, 5, 2, 3, 9, 165, 90, 161, 88, 90, 165, 3, 0.273493
327, 3, bw, attraction, a-b-da, 5, 1, 3, 10, 135, 60, 60, 135, 132, 58, 1, 0.54005
327, 3, bw, attraction, a-b-da, 5, 1, 3, 10, 135, 60, 60, 135, 132, 58, 2, 1.03715
327, 3, bw, filler, NA, 999, 999, 3, 11, 184, 126, 71, 163, 85, 177, 1, 1.08945
327, 3, bw, filler, NA, 999, 999, 3, 11, 184, 126, 71, 163, 85, 177, 2, 0.428371
327, 3, bw, filler, NA, 999, 999, 3, 12, 189, 153, 146, 72, 105, 179, 1, 0.809026
327, 3, bw, filler, NA, 999, 999, 3, 12, 189, 153, 146, 72, 105, 179, 2, 0.383224
327, 3, bw, attraction, a-b-db, 2, 3, 3, 13, 120, 195, 119, 193, 195, 120, 3, 0.869778
327, 3, bw, attraction, a-b-db, 2, 3, 3, 13, 120, 195, 119, 193, 195, 120, 1, 0.266171
327, 3, bw, catch, NA, 999, 999, 3, 14, 118, 77, 118, 137, 122, 193, 3, 1.10936
327, 3, bw, catch, NA, 999, 999, 3, 14, 118, 77, 118, 137, 122, 193, 1, 0.367554
327, 3, bw, attraction, a-b-da, 2, 3, 3, 15, 195, 120, 120, 195, 193, 119, 3, 0.670774
327, 3, bw, attraction, a-b-da, 2, 3, 3, 15, 195, 120, 120, 195, 193, 119, 2, 0.29122
327, 3, bw, attraction, a-b-db, 5, 2, 3, 16, 165, 90, 88, 161, 90, 165, 3, 0.741199
327, 3, bw, attraction, a-b-db, 5, 2, 3, 16, 165, 90, 88, 161, 90, 165, 2, 0.286303
327, 3, bw, attraction, a-b-da, 2, 1, 3, 17, 135, 60, 134, 59, 60, 135, 1, 0.59254
327, 3, bw, attraction, a-b-da, 2, 1, 3, 17, 135, 60, 134, 59, 60, 135, 2, 0.327807
327, 3, bw, filler, NA, 999, 999, 3, 18, 62, 180, 188, 155, 163, 68, 2, 0.744237
327, 3, bw, filler, NA, 999, 999, 3, 18, 62, 180, 188, 155, 163, 68, 3, 0.329396
327, 3, bw, catch, NA, 999, 999, 3, 19, 188, 127, 110, 85, 101, 154, 1, 0.801842
327, 3, bw, catch, NA, 999, 999, 3, 19, 188, 127, 110, 85, 101, 154, 2, 0.400864
327, 3, bw, attraction, a-b-da, 9, 1, 3, 20, 60, 135, 129, 57, 135, 60, 3, 0.590714
327, 3, bw, attraction, a-b-da, 9, 1, 3, 20, 60, 135, 129, 57, 135, 60, 2, 0.429816
327, 3, bw, filler, NA, 999, 999, 3, 21, 157, 144, 63, 74, 76, 177, 1, 0.474473
327, 3, bw, filler, NA, 999, 999, 3, 21, 157, 144, 63, 74, 76, 177, 2, 0.334191
327, 3, bw, filler, NA, 999, 999, 3, 22, 133, 62, 61, 125, 95, 84, 3, 1.27064
327, 3, bw, filler, NA, 999, 999, 3, 22, 133, 62, 61, 125, 95, 84, 2, 0.930953
327, 3, bw, attraction, a-b-da, 5, 3, 3, 23, 120, 195, 195, 120, 190, 117, 1, 0.699213
327, 3, bw, attraction, a-b-da, 5, 3, 3, 23, 120, 195, 195, 120, 190, 117, 2, 0.270375
327, 3, bw, attraction, a-b-db, 14, 3, 3, 24, 195, 120, 111, 181, 120, 195, 2, 1.3855
327, 3, bw, attraction, a-b-db, 14, 3, 3, 24, 195, 120, 111, 181, 120, 195, 1, 0.240965
327, 3, bw, attraction, a-b-da, 9, 3, 3, 25, 186, 114, 120, 195, 195, 120, 2, 0.516819
327, 3, bw, attraction, a-b-da, 9, 3, 3, 25, 186, 114, 120, 195, 195, 120, 3, 0.4635
327, 3, bw, catch, NA, 999, 999, 3, 26, 123, 192, 154, 101, 68, 127, 1, 0.97045
327, 3, bw, catch, NA, 999, 999, 3, 26, 123, 192, 154, 101, 68, 127, 3, 0.4188
327, 3, bw, attraction, a-b-db, 9, 3, 3, 27, 114, 186, 120, 195, 195, 120, 3, 0.896024
327, 3, bw, attraction, a-b-db, 9, 3, 3, 27, 114, 186, 120, 195, 195, 120, 1, 0.330967
327, 3, bw, attraction, a-b-db, 9, 1, 3, 28, 57, 129, 60, 135, 135, 60, 3, 0.723484
327, 3, bw, attraction, a-b-db, 9, 1, 3, 28, 57, 129, 60, 135, 135, 60, 2, 0.349312
327, 3, bw, attraction, a-b-db, 2, 1, 3, 29, 60, 135, 59, 134, 135, 60, 3, 1.43707
327, 3, bw, attraction, a-b-db, 2, 1, 3, 29, 60, 135, 59, 134, 135, 60, 2, 0.322685
327, 3, bw, attraction, a-b-da, 9, 2, 3, 30, 157, 86, 165, 90, 90, 165, 1, 0.587812
327, 3, bw, attraction, a-b-da, 9, 2, 3, 30, 157, 86, 165, 90, 90, 165, 2, 0.331522
327, 3, bw, attraction, a-b-da, 14, 2, 3, 31, 165, 90, 90, 165, 153, 83, 1, 1.06004
327, 3, bw, attraction, a-b-da, 14, 2, 3, 31, 165, 90, 90, 165, 153, 83, 2, 0.41634
327, 3, bw, attraction, a-b-db, 14, 1, 3, 32, 135, 60, 60, 135, 56, 125, 1, 0.533639
327, 3, bw, attraction, a-b-db, 14, 1, 3, 32, 135, 60, 60, 135, 56, 125, 3, 0.623443
327, 3, bw, attraction, a-b-db, 14, 2, 3, 33, 90, 165, 165, 90, 83, 153, 1, 0.387915
327, 3, bw, attraction, a-b-db, 14, 2, 3, 33, 90, 165, 165, 90, 83, 153, 3, 0.482979
327, 3, bw, attraction, a-b-da, 2, 2, 3, 34, 163, 89, 90, 165, 165, 90, 1, 0.477446
327, 3, bw, attraction, a-b-da, 2, 2, 3, 34, 163, 89, 90, 165, 165, 90, 2, 0.28119
327, 3, bw, attraction, a-b-db, 2, 2, 3, 35, 90, 165, 165, 90, 89, 163, 1, 0.499676
327, 3, bw, attraction, a-b-db, 2, 2, 3, 35, 90, 165, 165, 90, 89, 163, 2, 0.366833
327, 3, bw, filler, NA, 999, 999, 3, 36, 120, 141, 131, 76, 106, 86, 1, 0.558009
327, 3, bw, filler, NA, 999, 999, 3, 36, 120, 141, 131, 76, 106, 86, 3, 0.782526
327, 3, bw, filler, NA, 999, 999, 3, 37, 146, 57, 183, 127, 162, 183, 3, 1.14097
327, 3, bw, filler, NA, 999, 999, 3, 37, 146, 57, 183, 127, 162, 183, 1, 0.861889
327, 3, bw, catch, NA, 999, 999, 4, 1, 119, 76, 195, 120, 94, 161, 2, 0.832755
327, 3, bw, catch, NA, 999, 999, 4, 1, 119, 76, 195, 120, 94, 161, 1, 0.382554
327, 3, bw, attraction, a-b-db, 9, 2, 4, 2, 86, 157, 90, 165, 165, 90, 3, 0.893061
327, 3, bw, attraction, a-b-db, 9, 2, 4, 2, 86, 157, 90, 165, 165, 90, 2, 0.384171
327, 3, bw, attraction, a-b-db, 9, 3, 4, 3, 195, 120, 120, 195, 114, 186, 1, 0.57464
327, 3, bw, attraction, a-b-db, 9, 3, 4, 3, 195, 120, 120, 195, 114, 186, 2, 0.358377
327, 3, bw, attraction, a-b-db, 9, 1, 4, 4, 57, 129, 60, 135, 135, 60, 2, 1.18157
327, 3, bw, attraction, a-b-db, 9, 1, 4, 4, 57, 129, 60, 135, 135, 60, 1, 0.245038
327, 3, bw, attraction, a-b-da, 2, 3, 4, 5, 193, 119, 195, 120, 120, 195, 2, 0.448888
327, 3, bw, attraction, a-b-da, 2, 3, 4, 5, 193, 119, 195, 120, 120, 195, 1, 0.270113
327, 3, bw, attraction, a-b-da, 5, 3, 4, 6, 190, 117, 195, 120, 120, 195, 2, 0.385241
327, 3, bw, attraction, a-b-da, 5, 3, 4, 6, 190, 117, 195, 120, 120, 195, 3, 0.297241
327, 3, bw, filler, NA, 999, 999, 4, 7, 147, 121, 170, 162, 174, 66, 2, 0.419058
327, 3, bw, filler, NA, 999, 999, 4, 7, 147, 121, 170, 162, 174, 66, 3, 0.497486
327, 3, bw, filler, NA, 999, 999, 4, 8, 64, 107, 172, 192, 194, 174, 2, 0.427278
327, 3, bw, filler, NA, 999, 999, 4, 8, 64, 107, 172, 192, 194, 174, 1, 0.281166
327, 3, bw, attraction, a-b-da, 14, 1, 4, 9, 125, 56, 60, 135, 135, 60, 2, 0.835683
327, 3, bw, attraction, a-b-da, 14, 1, 4, 9, 125, 56, 60, 135, 135, 60, 3, 0.345416
327, 3, bw, filler, NA, 999, 999, 4, 10, 60, 166, 145, 160, 95, 182, 2, 0.649379
327, 3, bw, filler, NA, 999, 999, 4, 10, 60, 166, 145, 160, 95, 182, 1, 0.422347
327, 3, bw, filler, NA, 999, 999, 4, 11, 80, 183, 71, 125, 182, 58, 1, 1.19555
327, 3, bw, filler, NA, 999, 999, 4, 11, 80, 183, 71, 125, 182, 58, 2, 0.538441
327, 3, bw, filler, NA, 999, 999, 4, 12, 99, 137, 89, 163, 105, 191, 3, 0.826966
327, 3, bw, filler, NA, 999, 999, 4, 12, 99, 137, 89, 163, 105, 191, 1, 0.472655
327, 3, bw, attraction, a-b-db, 14, 1, 4, 13, 56, 125, 60, 135, 135, 60, 3, 0.97981
327, 3, bw, attraction, a-b-db, 14, 1, 4, 13, 56, 125, 60, 135, 135, 60, 1, 0.547499
327, 3, bw, attraction, a-b-da, 9, 2, 4, 14, 165, 90, 90, 165, 157, 86, 1, 0.979493
327, 3, bw, attraction, a-b-da, 9, 2, 4, 14, 165, 90, 90, 165, 157, 86, 2, 0.234744
327, 3, bw, attraction, a-b-da, 9, 3, 4, 15, 186, 114, 195, 120, 120, 195, 1, 0.551356
327, 3, bw, attraction, a-b-da, 9, 3, 4, 15, 186, 114, 195, 120, 120, 195, 2, 0.304518
327, 3, bw, attraction, a-b-da, 5, 2, 4, 16, 165, 90, 161, 88, 90, 165, 1, 0.442245
327, 3, bw, attraction, a-b-da, 5, 2, 4, 16, 165, 90, 161, 88, 90, 165, 2, 0.287545
327, 3, bw, filler, NA, 999, 999, 4, 17, 166, 67, 136, 134, 170, 179, 3, 0.538077
327, 3, bw, filler, NA, 999, 999, 4, 17, 166, 67, 136, 134, 170, 179, 2, 0.299747
327, 3, bw, attraction, a-b-db, 5, 1, 4, 18, 135, 60, 60, 135, 58, 132, 3, 0.837677
327, 3, bw, attraction, a-b-db, 5, 1, 4, 18, 135, 60, 60, 135, 58, 132, 2, 0.298712
327, 3, bw, attraction, a-b-da, 2, 1, 4, 19, 134, 59, 135, 60, 60, 135, 1, 0.708512
327, 3, bw, attraction, a-b-da, 2, 1, 4, 19, 134, 59, 135, 60, 60, 135, 2, 0.534967
327, 3, bw, attraction, a-b-db, 5, 3, 4, 20, 120, 195, 195, 120, 117, 190, 1, 0.711376
327, 3, bw, attraction, a-b-db, 5, 3, 4, 20, 120, 195, 195, 120, 117, 190, 2, 0.265826
327, 3, bw, attraction, a-b-da, 14, 3, 4, 21, 181, 111, 195, 120, 120, 195, 3, 0.549091
327, 3, bw, attraction, a-b-da, 14, 3, 4, 21, 181, 111, 195, 120, 120, 195, 2, 0.270278
327, 3, bw, filler, NA, 999, 999, 4, 22, 115, 80, 195, 130, 150, 65, 2, 0.697348
327, 3, bw, filler, NA, 999, 999, 4, 22, 115, 80, 195, 130, 150, 65, 1, 0.260479
327, 3, bw, attraction, a-b-db, 14, 2, 4, 23, 165, 90, 83, 153, 90, 165, 3, 0.639591
327, 3, bw, attraction, a-b-db, 14, 2, 4, 23, 165, 90, 83, 153, 90, 165, 2, 0.293002
327, 3, bw, attraction, a-b-db, 14, 3, 4, 24, 195, 120, 120, 195, 111, 181, 1, 0.657079
327, 3, bw, attraction, a-b-db, 14, 3, 4, 24, 195, 120, 120, 195, 111, 181, 2, 0.371054
327, 3, bw, attraction, a-b-da, 2, 2, 4, 25, 163, 89, 165, 90, 90, 165, 1, 0.794246
327, 3, bw, attraction, a-b-da, 2, 2, 4, 25, 163, 89, 165, 90, 90, 165, 3, 0.729271
327, 3, bw, catch, NA, 999, 999, 4, 26, 146, 109, 152, 163, 77, 118, 2, 1.42566
327, 3, bw, catch, NA, 999, 999, 4, 26, 146, 109, 152, 163, 77, 118, 3, 0.367157
327, 3, bw, attraction, a-b-db, 2, 2, 4, 27, 165, 90, 89, 163, 90, 165, 1, 0.902346
327, 3, bw, attraction, a-b-db, 2, 2, 4, 27, 165, 90, 89, 163, 90, 165, 2, 0.361363
327, 3, bw, attraction, a-b-db, 2, 3, 4, 28, 119, 193, 120, 195, 195, 120, 2, 0.56049
327, 3, bw, attraction, a-b-db, 2, 3, 4, 28, 119, 193, 120, 195, 195, 120, 3, 0.281035
327, 3, bw, filler, NA, 999, 999, 4, 29, 124, 146, 120, 76, 145, 61, 1, 0.475473
327, 3, bw, filler, NA, 999, 999, 4, 29, 124, 146, 120, 76, 145, 61, 2, 0.367244
327, 3, bw, attraction, a-b-da, 14, 2, 4, 30, 90, 165, 153, 83, 165, 90, 3, 0.686453
327, 3, bw, attraction, a-b-da, 14, 2, 4, 30, 90, 165, 153, 83, 165, 90, 2, 0.290402
327, 3, bw, filler, NA, 999, 999, 4, 31, 95, 70, 61, 129, 128, 176, 3, 0.64409
327, 3, bw, filler, NA, 999, 999, 4, 31, 95, 70, 61, 129, 128, 176, 1, 0.625125
327, 3, bw, attraction, a-b-db, 5, 2, 4, 32, 88, 161, 165, 90, 90, 165, 3, 0.541626
327, 3, bw, attraction, a-b-db, 5, 2, 4, 32, 88, 161, 165, 90, 90, 165, 2, 0.502781
327, 3, bw, attraction, a-b-da, 5, 1, 4, 33, 135, 60, 132, 58, 60, 135, 3, 0.504523
327, 3, bw, attraction, a-b-da, 5, 1, 4, 33, 135, 60, 132, 58, 60, 135, 2, 0.483012
327, 3, bw, catch, NA, 999, 999, 4, 34, 105, 90, 132, 123, 152, 163, 3, 0.589542
327, 3, bw, catch, NA, 999, 999, 4, 34, 105, 90, 132, 123, 152, 163, 1, 0.532725
327, 3, bw, attraction, a-b-da, 9, 1, 4, 35, 135, 60, 129, 57, 60, 135, 3, 0.644939
327, 3, bw, attraction, a-b-da, 9, 1, 4, 35, 135, 60, 129, 57, 60, 135, 2, 0.266109
327, 3, bw, filler, NA, 999, 999, 4, 36, 113, 189, 87, 122, 121, 163, 3, 0.805351
327, 3, bw, filler, NA, 999, 999, 4, 36, 113, 189, 87, 122, 121, 163, 1, 0.70777
327, 3, bw, attraction, a-b-db, 2, 1, 4, 37, 135, 60, 60, 135, 59, 134, 1, 0.740762
327, 3, bw, attraction, a-b-db, 2, 1, 4, 37, 135, 60, 60, 135, 59, 134, 2, 0.517855
327, 3, bw, filler, NA, 999, 999, 5, 1, 146, 165, 129, 133, 149, 159, 1, 2.16551
327, 3, bw, filler, NA, 999, 999, 5, 1, 146, 165, 129, 133, 149, 159, 2, 0.597616
327, 3, bw, filler, NA, 999, 999, 5, 2, 167, 56, 63, 133, 186, 154, 3, 0.723216
327, 3, bw, filler, NA, 999, 999, 5, 2, 167, 56, 63, 133, 186, 154, 2, 0.51707
327, 3, bw, catch, NA, 999, 999, 5, 3, 162, 153, 133, 62, 106, 149, 1, 0.662169
327, 3, bw, catch, NA, 999, 999, 5, 3, 162, 153, 133, 62, 106, 149, 2, 0.298516
327, 3, bw, attraction, a-b-da, 5, 1, 5, 4, 135, 60, 60, 135, 132, 58, 2, 0.89237
327, 3, bw, attraction, a-b-da, 5, 1, 5, 4, 135, 60, 60, 135, 132, 58, 3, 0.311466
327, 3, bw, attraction, a-b-da, 2, 2, 5, 5, 165, 90, 90, 165, 163, 89, 1, 2.12865
327, 3, bw, attraction, a-b-da, 2, 2, 5, 5, 165, 90, 90, 165, 163, 89, 2, 0.337903
327, 3, bw, filler, NA, 999, 999, 5, 6, 184, 141, 167, 93, 59, 107, 1, 0.682358
327, 3, bw, filler, NA, 999, 999, 5, 6, 184, 141, 167, 93, 59, 107, 3, 0.366217
327, 3, bw, attraction, a-b-da, 9, 1, 5, 7, 135, 60, 129, 57, 60, 135, 3, 0.677305
327, 3, bw, attraction, a-b-da, 9, 1, 5, 7, 135, 60, 129, 57, 60, 135, 2, 0.289119
327, 3, bw, catch, NA, 999, 999, 5, 8, 136, 179, 79, 116, 155, 100, 1, 0.787578
327, 3, bw, catch, NA, 999, 999, 5, 8, 136, 179, 79, 116, 155, 100, 2, 0.291506
327, 3, bw, filler, NA, 999, 999, 5, 9, 186, 195, 83, 127, 148, 170, 1, 0.597176
327, 3, bw, filler, NA, 999, 999, 5, 9, 186, 195, 83, 127, 148, 170, 2, 0.292399
327, 3, bw, attraction, a-b-da, 14, 2, 5, 10, 90, 165, 165, 90, 153, 83, 3, 1.35828
327, 3, bw, attraction, a-b-da, 14, 2, 5, 10, 90, 165, 165, 90, 153, 83, 2, 0.582432
327, 3, bw, filler, NA, 999, 999, 5, 11, 144, 71, 69, 67, 176, 122, 3, 0.740808
327, 3, bw, filler, NA, 999, 999, 5, 11, 144, 71, 69, 67, 176, 122, 2, 0.534004
327, 3, bw, attraction, a-b-db, 14, 3, 5, 12, 111, 181, 195, 120, 120, 195, 2, 0.590366
327, 3, bw, attraction, a-b-db, 14, 3, 5, 12, 111, 181, 195, 120, 120, 195, 3, 0.285579
327, 3, bw, filler, NA, 999, 999, 5, 13, 61, 61, 138, 96, 147, 65, 2, 0.960138
327, 3, bw, filler, NA, 999, 999, 5, 13, 61, 61, 138, 96, 147, 65, 1, 0.800459
327, 3, bw, attraction, a-b-db, 5, 2, 5, 14, 90, 165, 88, 161, 165, 90, 3, 0.926033
327, 3, bw, attraction, a-b-db, 5, 2, 5, 14, 90, 165, 88, 161, 165, 90, 2, 0.327773
327, 3, bw, attraction, a-b-db, 9, 1, 5, 15, 60, 135, 57, 129, 135, 60, 3, 0.664337
327, 3, bw, attraction, a-b-db, 9, 1, 5, 15, 60, 135, 57, 129, 135, 60, 2, 0.316659
327, 3, bw, attraction, a-b-da, 2, 1, 5, 16, 60, 135, 135, 60, 134, 59, 1, 1.74973
327, 3, bw, attraction, a-b-da, 2, 1, 5, 16, 60, 135, 135, 60, 134, 59, 2, 0.502542
327, 3, bw, attraction, a-b-db, 5, 1, 5, 17, 135, 60, 58, 132, 60, 135, 1, 2.66448
327, 3, bw, attraction, a-b-db, 5, 1, 5, 17, 135, 60, 58, 132, 60, 135, 2, 0.340157
327, 3, bw, filler, NA, 999, 999, 5, 18, 57, 169, 180, 150, 156, 62, 2, 0.579932
327, 3, bw, filler, NA, 999, 999, 5, 18, 57, 169, 180, 150, 156, 62, 1, 0.691759
327, 3, bw, attraction, a-b-db, 9, 3, 5, 19, 114, 186, 195, 120, 120, 195, 3, 1.30949
327, 3, bw, attraction, a-b-db, 9, 3, 5, 19, 114, 186, 195, 120, 120, 195, 2, 0.487702
327, 3, bw, attraction, a-b-db, 14, 1, 5, 20, 60, 135, 135, 60, 56, 125, 1, 1.62624
327, 3, bw, attraction, a-b-db, 14, 1, 5, 20, 60, 135, 135, 60, 56, 125, 2, 0.351831
327, 3, bw, filler, NA, 999, 999, 5, 21, 174, 156, 177, 150, 130, 181, 1, 0.719556
327, 3, bw, filler, NA, 999, 999, 5, 21, 174, 156, 177, 150, 130, 181, 2, 2.10607
327, 3, bw, attraction, a-b-db, 2, 2, 5, 22, 89, 163, 90, 165, 165, 90, 1, 1.47515
327, 3, bw, attraction, a-b-db, 2, 2, 5, 22, 89, 163, 90, 165, 165, 90, 2, 0.566677
327, 3, bw, attraction, a-b-da, 5, 3, 5, 23, 190, 117, 120, 195, 195, 120, 3, 2.66985
327, 3, bw, attraction, a-b-da, 5, 3, 5, 23, 190, 117, 120, 195, 195, 120, 2, 0.297658
327, 3, bw, attraction, a-b-db, 14, 2, 5, 24, 165, 90, 90, 165, 83, 153, 1, 2.37945
327, 3, bw, attraction, a-b-db, 14, 2, 5, 24, 165, 90, 90, 165, 83, 153, 2, 0.266772
327, 3, bw, attraction, a-b-da, 2, 3, 5, 25, 120, 195, 193, 119, 195, 120, 3, 2.1899
327, 3, bw, attraction, a-b-da, 2, 3, 5, 25, 120, 195, 193, 119, 195, 120, 1, 0.812674
327, 3, bw, attraction, a-b-db, 9, 2, 5, 26, 90, 165, 86, 157, 165, 90, 3, 3.89752
327, 3, bw, attraction, a-b-db, 9, 2, 5, 26, 90, 165, 86, 157, 165, 90, 1, 0.515745
327, 3, bw, attraction, a-b-da, 14, 1, 5, 27, 60, 135, 135, 60, 125, 56, 1, 1.35672
327, 3, bw, attraction, a-b-da, 14, 1, 5, 27, 60, 135, 135, 60, 125, 56, 3, 0.892963
327, 3, bw, filler, NA, 999, 999, 5, 28, 171, 148, 96, 178, 101, 118, 1, 0.69453
327, 3, bw, filler, NA, 999, 999, 5, 28, 171, 148, 96, 178, 101, 118, 3, 0.345742
327, 3, bw, filler, NA, 999, 999, 5, 29, 177, 153, 185, 160, 69, 117, 1, 0.785452
327, 3, bw, filler, NA, 999, 999, 5, 29, 177, 153, 185, 160, 69, 117, 3, 0.873379
327, 3, bw, attraction, a-b-db, 2, 3, 5, 30, 195, 120, 120, 195, 119, 193, 3, 2.82826
327, 3, bw, attraction, a-b-db, 2, 3, 5, 30, 195, 120, 120, 195, 119, 193, 1, 0.98541
327, 3, bw, attraction, a-b-db, 2, 1, 5, 31, 135, 60, 59, 134, 60, 135, 2, 1.67968
327, 3, bw, attraction, a-b-db, 2, 1, 5, 31, 135, 60, 59, 134, 60, 135, 1, 1.17109
327, 3, bw, attraction, a-b-da, 9, 3, 5, 32, 195, 120, 120, 195, 186, 114, 3, 0.881994
327, 3, bw, attraction, a-b-da, 9, 3, 5, 32, 195, 120, 120, 195, 186, 114, 2, 0.285722
327, 3, bw, attraction, a-b-da, 5, 2, 5, 33, 90, 165, 161, 88, 165, 90, 3, 0.63242
327, 3, bw, attraction, a-b-da, 5, 2, 5, 33, 90, 165, 161, 88, 165, 90, 2, 0.221939
327, 3, bw, catch, NA, 999, 999, 5, 34, 123, 72, 153, 162, 126, 129, 2, 1.10717
327, 3, bw, catch, NA, 999, 999, 5, 34, 123, 72, 153, 162, 126, 129, 1, 0.413521
327, 3, bw, attraction, a-b-da, 9, 2, 5, 35, 157, 86, 90, 165, 165, 90, 1, 0.802568
327, 3, bw, attraction, a-b-da, 9, 2, 5, 35, 157, 86, 90, 165, 165, 90, 2, 0.257777
327, 3, bw, attraction, a-b-da, 14, 3, 5, 36, 120, 195, 181, 111, 195, 120, 1, 0.724859
327, 3, bw, attraction, a-b-da, 14, 3, 5, 36, 120, 195, 181, 111, 195, 120, 2, 0.638629
327, 3, bw, attraction, a-b-db, 5, 3, 5, 37, 195, 120, 120, 195, 117, 190, 1, 0.939033
327, 3, bw, attraction, a-b-db, 5, 3, 5, 37, 195, 120, 120, 195, 117, 190, 2, 0.500153
327, 3, bw, filler, NA, 999, 999, 6, 1, 167, 69, 67, 171, 128, 57, 1, 0.877845
327, 3, bw, filler, NA, 999, 999, 6, 1, 167, 69, 67, 171, 128, 57, 3, 0.609524
327, 3, bw, attraction, a-b-db, 2, 2, 6, 2, 165, 90, 90, 165, 89, 163, 1, 1.82259
327, 3, bw, attraction, a-b-db, 2, 2, 6, 2, 165, 90, 90, 165, 89, 163, 2, 0.32406
327, 3, bw, attraction, a-b-da, 2, 3, 6, 3, 120, 195, 193, 119, 195, 120, 3, 1.74849
327, 3, bw, attraction, a-b-da, 2, 3, 6, 3, 120, 195, 193, 119, 195, 120, 2, 0.21334
327, 3, bw, attraction, a-b-db, 2, 1, 6, 4, 60, 135, 59, 134, 135, 60, 3, 0.706549
327, 3, bw, attraction, a-b-db, 2, 1, 6, 4, 60, 135, 59, 134, 135, 60, 2, 0.500965
327, 3, bw, attraction, a-b-da, 5, 1, 6, 5, 135, 60, 132, 58, 60, 135, 1, 0.974737
327, 3, bw, attraction, a-b-da, 5, 1, 6, 5, 135, 60, 132, 58, 60, 135, 2, 0.278424
327, 3, bw, filler, NA, 999, 999, 6, 6, 133, 191, 103, 128, 114, 141, 1, 1.48089
327, 3, bw, filler, NA, 999, 999, 6, 6, 133, 191, 103, 128, 114, 141, 2, 0.204483
327, 3, bw, filler, NA, 999, 999, 6, 7, 103, 118, 89, 179, 136, 103, 2, 1.88223
327, 3, bw, filler, NA, 999, 999, 6, 7, 103, 118, 89, 179, 136, 103, 1, 0.205688
327, 3, bw, attraction, a-b-da, 14, 1, 6, 8, 135, 60, 125, 56, 60, 135, 2, 1.20355
327, 3, bw, attraction, a-b-da, 14, 1, 6, 8, 135, 60, 125, 56, 60, 135, 3, 0.762594
327, 3, bw, attraction, a-b-db, 14, 3, 6, 9, 195, 120, 120, 195, 111, 181, 2, 2.87361
327, 3, bw, attraction, a-b-db, 14, 3, 6, 9, 195, 120, 120, 195, 111, 181, 3, 1.10857
327, 3, bw, attraction, a-b-da, 9, 1, 6, 10, 60, 135, 129, 57, 135, 60, 1, 2.11761
327, 3, bw, attraction, a-b-da, 9, 1, 6, 10, 60, 135, 129, 57, 135, 60, 2, 0.231618
327, 3, bw, attraction, a-b-db, 5, 3, 6, 11, 117, 190, 120, 195, 195, 120, 1, 1.88404
327, 3, bw, attraction, a-b-db, 5, 3, 6, 11, 117, 190, 120, 195, 195, 120, 2, 0.207452
327, 3, bw, attraction, a-b-db, 14, 1, 6, 12, 56, 125, 60, 135, 135, 60, 1, 1.59665
327, 3, bw, attraction, a-b-db, 14, 1, 6, 12, 56, 125, 60, 135, 135, 60, 3, 1.18747
327, 3, bw, catch, NA, 999, 999, 6, 13, 141, 114, 92, 103, 189, 126, 3, 1.03366
327, 3, bw, catch, NA, 999, 999, 6, 13, 141, 114, 92, 103, 189, 126, 2, 0.27932
327, 3, bw, attraction, a-b-da, 2, 1, 6, 14, 134, 59, 135, 60, 60, 135, 1, 0.737891
327, 3, bw, attraction, a-b-da, 2, 1, 6, 14, 134, 59, 135, 60, 60, 135, 2, 0.275627
327, 3, bw, attraction, a-b-db, 9, 2, 6, 15, 90, 165, 86, 157, 165, 90, 3, 0.942141
327, 3, bw, attraction, a-b-db, 9, 2, 6, 15, 90, 165, 86, 157, 165, 90, 2, 0.223153
327, 3, bw, filler, NA, 999, 999, 6, 16, 141, 185, 74, 107, 181, 155, 3, 0.780301
327, 3, bw, filler, NA, 999, 999, 6, 16, 141, 185, 74, 107, 181, 155, 2, 1.3482
327, 3, bw, attraction, a-b-db, 9, 1, 6, 17, 135, 60, 60, 135, 57, 129, 1, 0.579533
327, 3, bw, attraction, a-b-db, 9, 1, 6, 17, 135, 60, 60, 135, 57, 129, 2, 0.227361
327, 3, bw, attraction, a-b-da, 14, 2, 6, 18, 153, 83, 90, 165, 165, 90, 1, 0.599998
327, 3, bw, attraction, a-b-da, 14, 2, 6, 18, 153, 83, 90, 165, 165, 90, 2, 0.207155
327, 3, bw, attraction, a-b-db, 5, 2, 6, 19, 165, 90, 90, 165, 88, 161, 3, 0.532321
327, 3, bw, attraction, a-b-db, 5, 2, 6, 19, 165, 90, 90, 165, 88, 161, 2, 0.262117
327, 3, bw, attraction, a-b-da, 5, 3, 6, 20, 120, 195, 190, 117, 195, 120, 3, 0.665197
327, 3, bw, attraction, a-b-da, 5, 3, 6, 20, 120, 195, 190, 117, 195, 120, 2, 0.301673
327, 3, bw, filler, NA, 999, 999, 6, 21, 182, 141, 127, 126, 139, 165, 1, 0.791526
327, 3, bw, filler, NA, 999, 999, 6, 21, 182, 141, 127, 126, 139, 165, 2, 0.278595
327, 3, bw, attraction, a-b-da, 2, 2, 6, 22, 90, 165, 165, 90, 163, 89, 3, 0.561108
327, 3, bw, attraction, a-b-da, 2, 2, 6, 22, 90, 165, 165, 90, 163, 89, 2, 0.249545
327, 3, bw, catch, NA, 999, 999, 6, 23, 101, 154, 128, 67, 135, 180, 3, 1.32555
327, 3, bw, catch, NA, 999, 999, 6, 23, 101, 154, 128, 67, 135, 180, 2, 0.231071
327, 3, bw, filler, NA, 999, 999, 6, 24, 87, 182, 79, 94, 154, 156, 3, 1.07556
327, 3, bw, filler, NA, 999, 999, 6, 24, 87, 182, 79, 94, 154, 156, 2, 0.255196
327, 3, bw, attraction, a-b-db, 5, 1, 6, 25, 135, 60, 58, 132, 60, 135, 1, 0.691052
327, 3, bw, attraction, a-b-db, 5, 1, 6, 25, 135, 60, 58, 132, 60, 135, 2, 0.262249
327, 3, bw, attraction, a-b-db, 9, 3, 6, 26, 195, 120, 120, 195, 114, 186, 1, 0.713261
327, 3, bw, attraction, a-b-db, 9, 3, 6, 26, 195, 120, 120, 195, 114, 186, 2, 0.21186
327, 3, bw, attraction, a-b-db, 14, 2, 6, 27, 83, 153, 90, 165, 165, 90, 3, 2.32886
327, 3, bw, attraction, a-b-db, 14, 2, 6, 27, 83, 153, 90, 165, 165, 90, 2, 0.722257
327, 3, bw, filler, NA, 999, 999, 6, 28, 185, 187, 137, 127, 99, 173, 1, 0.88318
327, 3, bw, filler, NA, 999, 999, 6, 28, 185, 187, 137, 127, 99, 173, 2, 0.670959
327, 3, bw, filler, NA, 999, 999, 6, 29, 164, 117, 140, 140, 61, 195, 1, 0.977959
327, 3, bw, filler, NA, 999, 999, 6, 29, 164, 117, 140, 140, 61, 195, 2, 0.225625
327, 3, bw, attraction, a-b-da, 14, 3, 6, 30, 120, 195, 181, 111, 195, 120, 1, 0.798175
327, 3, bw, attraction, a-b-da, 14, 3, 6, 30, 120, 195, 181, 111, 195, 120, 2, 1.30125
327, 3, bw, filler, NA, 999, 999, 6, 31, 65, 180, 148, 104, 194, 112, 3, 0.542777
327, 3, bw, filler, NA, 999, 999, 6, 31, 65, 180, 148, 104, 194, 112, 1, 1.09596
327, 3, bw, catch, NA, 999, 999, 6, 32, 131, 64, 183, 132, 104, 151, 2, 1.08968
327, 3, bw, catch, NA, 999, 999, 6, 32, 131, 64, 183, 132, 104, 151, 1, 1.06049
327, 3, bw, attraction, a-b-da, 5, 2, 6, 33, 165, 90, 90, 165, 161, 88, 1, 1.1835
327, 3, bw, attraction, a-b-da, 5, 2, 6, 33, 165, 90, 90, 165, 161, 88, 2, 0.343081
327, 3, bw, attraction, a-b-da, 9, 3, 6, 34, 120, 195, 195, 120, 186, 114, 3, 0.679012
327, 3, bw, attraction, a-b-da, 9, 3, 6, 34, 120, 195, 195, 120, 186, 114, 2, 0.322692
327, 3, bw, attraction, a-b-da, 9, 2, 6, 35, 90, 165, 165, 90, 157, 86, 3, 0.515855
327, 3, bw, attraction, a-b-da, 9, 2, 6, 35, 90, 165, 165, 90, 157, 86, 2, 0.238356
327, 3, bw, attraction, a-b-db, 2, 3, 6, 36, 120, 195, 119, 193, 195, 120, 1, 0.562739
327, 3, bw, attraction, a-b-db, 2, 3, 6, 36, 120, 195, 119, 193, 195, 120, 2, 0.283226
327, 3, bw, filler, NA, 999, 999, 6, 37, 186, 115, 131, 95, 56, 188, 1, 0.501915
327, 3, bw, filler, NA, 999, 999, 6, 37, 186, 115, 131, 95, 56, 188, 3, 1.18501
327, 3, bw, catch, NA, 999, 999, 7, 1, 159, 156, 113, 82, 105, 150, 3, 0.727221
327, 3, bw, catch, NA, 999, 999, 7, 1, 159, 156, 113, 82, 105, 150, 2, 1.02497
327, 3, bw, filler, NA, 999, 999, 7, 2, 177, 189, 91, 182, 108, 191, 1, 0.64526
327, 3, bw, filler, NA, 999, 999, 7, 2, 177, 189, 91, 182, 108, 191, 2, 0.410363
327, 3, bw, attraction, a-b-db, 14, 1, 7, 3, 56, 125, 135, 60, 60, 135, 1, 0.831484
327, 3, bw, attraction, a-b-db, 14, 1, 7, 3, 56, 125, 135, 60, 60, 135, 2, 0.781206
327, 3, bw, attraction, a-b-db, 5, 1, 7, 4, 60, 135, 58, 132, 135, 60, 3, 0.963526
327, 3, bw, attraction, a-b-db, 5, 1, 7, 4, 60, 135, 58, 132, 135, 60, 2, 0.331916
327, 3, bw, filler, NA, 999, 999, 7, 5, 163, 152, 74, 157, 135, 67, 1, 0.772469
327, 3, bw, filler, NA, 999, 999, 7, 5, 163, 152, 74, 157, 135, 67, 3, 0.652259
327, 3, bw, catch, NA, 999, 999, 7, 6, 80, 115, 141, 174, 102, 153, 2, 1.1759
327, 3, bw, catch, NA, 999, 999, 7, 6, 80, 115, 141, 174, 102, 153, 1, 0.271576
327, 3, bw, attraction, a-b-da, 9, 1, 7, 7, 135, 60, 60, 135, 129, 57, 3, 0.586676
327, 3, bw, attraction, a-b-da, 9, 1, 7, 7, 135, 60, 60, 135, 129, 57, 2, 0.282413
327, 3, bw, filler, NA, 999, 999, 7, 8, 146, 138, 108, 92, 193, 93, 1, 2.02909
327, 3, bw, filler, NA, 999, 999, 7, 8, 146, 138, 108, 92, 193, 93, 2, 0.26632
327, 3, bw, attraction, a-b-da, 14, 1, 7, 9, 60, 135, 125, 56, 135, 60, 3, 0.741492
327, 3, bw, attraction, a-b-da, 14, 1, 7, 9, 60, 135, 125, 56, 135, 60, 2, 0.678677
327, 3, bw, filler, NA, 999, 999, 7, 10, 134, 92, 74, 88, 169, 74, 3, 1.26499
327, 3, bw, filler, NA, 999, 999, 7, 10, 134, 92, 74, 88, 169, 74, 2, 0.445227
327, 3, bw, attraction, a-b-da, 2, 2, 7, 11, 90, 165, 163, 89, 165, 90, 1, 1.08902
327, 3, bw, attraction, a-b-da, 2, 2, 7, 11, 90, 165, 163, 89, 165, 90, 3, 0.404194
327, 3, bw, filler, NA, 999, 999, 7, 12, 184, 137, 186, 154, 171, 63, 2, 0.849923
327, 3, bw, filler, NA, 999, 999, 7, 12, 184, 137, 186, 154, 171, 63, 3, 0.391231
327, 3, bw, filler, NA, 999, 999, 7, 13, 180, 190, 69, 169, 84, 144, 1, 0.660768
327, 3, bw, filler, NA, 999, 999, 7, 13, 180, 190, 69, 169, 84, 144, 2, 0.681118
327, 3, bw, attraction, a-b-da, 5, 1, 7, 14, 132, 58, 60, 135, 135, 60, 2, 0.875541
327, 3, bw, attraction, a-b-da, 5, 1, 7, 14, 132, 58, 60, 135, 135, 60, 3, 0.303269
327, 3, bw, filler, NA, 999, 999, 7, 15, 139, 193, 191, 125, 120, 60, 1, 0.745103
327, 3, bw, filler, NA, 999, 999, 7, 15, 139, 193, 191, 125, 120, 60, 3, 0.490208
327, 3, bw, attraction, a-b-da, 5, 2, 7, 16, 90, 165, 161, 88, 165, 90, 3, 0.755978
327, 3, bw, attraction, a-b-da, 5, 2, 7, 16, 90, 165, 161, 88, 165, 90, 2, 0.284334
327, 3, bw, attraction, a-b-db, 9, 2, 7, 17, 86, 157, 90, 165, 165, 90, 3, 0.686965
327, 3, bw, attraction, a-b-db, 9, 2, 7, 17, 86, 157, 90, 165, 165, 90, 2, 0.250604
327, 3, bw, attraction, a-b-db, 5, 3, 7, 18, 195, 120, 120, 195, 117, 190, 1, 0.788339
327, 3, bw, attraction, a-b-db, 5, 3, 7, 18, 195, 120, 120, 195, 117, 190, 2, 0.30159
327, 3, bw, catch, NA, 999, 999, 7, 19, 67, 128, 181, 134, 138, 117, 2, 0.943385
327, 3, bw, catch, NA, 999, 999, 7, 19, 67, 128, 181, 134, 138, 117, 1, 0.416467
327, 3, bw, attraction, a-b-db, 9, 1, 7, 20, 135, 60, 57, 129, 60, 135, 1, 0.813617
327, 3, bw, attraction, a-b-db, 9, 1, 7, 20, 135, 60, 57, 129, 60, 135, 2, 0.299912
327, 3, bw, filler, NA, 999, 999, 7, 21, 77, 59, 82, 103, 160, 137, 3, 0.669723
327, 3, bw, filler, NA, 999, 999, 7, 21, 77, 59, 82, 103, 160, 137, 1, 0.386169
327, 3, bw, attraction, a-b-da, 9, 3, 7, 22, 120, 195, 186, 114, 195, 120, 3, 0.616638
327, 3, bw, attraction, a-b-da, 9, 3, 7, 22, 120, 195, 186, 114, 195, 120, 2, 0.495178
327, 3, bw, attraction, a-b-da, 5, 3, 7, 23, 190, 117, 195, 120, 120, 195, 1, 0.920819
327, 3, bw, attraction, a-b-da, 5, 3, 7, 23, 190, 117, 195, 120, 120, 195, 2, 0.322535
327, 3, bw, attraction, a-b-da, 9, 2, 7, 24, 157, 86, 90, 165, 165, 90, 2, 1.4517
327, 3, bw, attraction, a-b-da, 9, 2, 7, 24, 157, 86, 90, 165, 165, 90, 3, 0.432585
327, 3, bw, attraction, a-b-da, 2, 3, 7, 25, 195, 120, 120, 195, 193, 119, 3, 0.925067
327, 3, bw, attraction, a-b-da, 2, 3, 7, 25, 195, 120, 120, 195, 193, 119, 2, 0.390866
327, 3, bw, attraction, a-b-db, 2, 1, 7, 26, 135, 60, 59, 134, 60, 135, 1, 0.756522
327, 3, bw, attraction, a-b-db, 2, 1, 7, 26, 135, 60, 59, 134, 60, 135, 2, 0.380949
327, 3, bw, attraction, a-b-da, 14, 3, 7, 27, 120, 195, 181, 111, 195, 120, 1, 0.739501
327, 3, bw, attraction, a-b-da, 14, 3, 7, 27, 120, 195, 181, 111, 195, 120, 2, 0.33256
327, 3, bw, attraction, a-b-db, 14, 2, 7, 28, 165, 90, 83, 153, 90, 165, 1, 0.613159
327, 3, bw, attraction, a-b-db, 14, 2, 7, 28, 165, 90, 83, 153, 90, 165, 2, 0.635497
327, 3, bw, attraction, a-b-da, 14, 2, 7, 29, 90, 165, 153, 83, 165, 90, 3, 1.0639
327, 3, bw, attraction, a-b-da, 14, 2, 7, 29, 90, 165, 153, 83, 165, 90, 2, 0.484238
327, 3, bw, filler, NA, 999, 999, 7, 30, 154, 127, 96, 121, 100, 189, 1, 0.838718
327, 3, bw, filler, NA, 999, 999, 7, 30, 154, 127, 96, 121, 100, 189, 2, 0.851693
327, 3, bw, filler, NA, 999, 999, 7, 31, 98, 186, 119, 59, 191, 99, 3, 0.663496
327, 3, bw, filler, NA, 999, 999, 7, 31, 98, 186, 119, 59, 191, 99, 2, 0.315804
327, 3, bw, attraction, a-b-db, 5, 2, 7, 32, 88, 161, 165, 90, 90, 165, 2, 0.860957
327, 3, bw, attraction, a-b-db, 5, 2, 7, 32, 88, 161, 165, 90, 90, 165, 1, 0.329408
327, 3, bw, attraction, a-b-db, 2, 3, 7, 33, 195, 120, 119, 193, 120, 195, 1, 0.681977
327, 3, bw, attraction, a-b-db, 2, 3, 7, 33, 195, 120, 119, 193, 120, 195, 2, 0.381686
327, 3, bw, attraction, a-b-da, 2, 1, 7, 34, 134, 59, 60, 135, 135, 60, 1, 2.18009
327, 3, bw, attraction, a-b-da, 2, 1, 7, 34, 134, 59, 60, 135, 135, 60, 2, 0.77941
327, 3, bw, attraction, a-b-db, 9, 3, 7, 35, 120, 195, 114, 186, 195, 120, 3, 0.62591
327, 3, bw, attraction, a-b-db, 9, 3, 7, 35, 120, 195, 114, 186, 195, 120, 2, 0.639612
327, 3, bw, attraction, a-b-db, 2, 2, 7, 36, 89, 163, 165, 90, 90, 165, 3, 1.076
327, 3, bw, attraction, a-b-db, 2, 2, 7, 36, 89, 163, 165, 90, 90, 165, 2, 0.40766
327, 3, bw, attraction, a-b-db, 14, 3, 7, 37, 111, 181, 120, 195, 195, 120, 2, 1.50873
327, 3, bw, attraction, a-b-db, 14, 3, 7, 37, 111, 181, 120, 195, 195, 120, 3, 0.310953
327, 3, bw, attraction, a-b-db, 5, 1, 8, 1, 135, 60, 60, 135, 58, 132, 1, 1.24004
327, 3, bw, attraction, a-b-db, 5, 1, 8, 1, 135, 60, 60, 135, 58, 132, 2, 0.405113
327, 3, bw, attraction, a-b-db, 2, 1, 8, 2, 60, 135, 135, 60, 59, 134, 2, 1.61892
327, 3, bw, attraction, a-b-db, 2, 1, 8, 2, 60, 135, 135, 60, 59, 134, 3, 0.353096
327, 3, bw, filler, NA, 999, 999, 8, 3, 118, 101, 118, 189, 85, 127, 2, 0.76884
327, 3, bw, filler, NA, 999, 999, 8, 3, 118, 101, 118, 189, 85, 127, 3, 0.593239
327, 3, bw, attraction, a-b-da, 14, 2, 8, 4, 165, 90, 153, 83, 90, 165, 3, 1.00698
327, 3, bw, attraction, a-b-da, 14, 2, 8, 4, 165, 90, 153, 83, 90, 165, 2, 0.293283
327, 3, bw, attraction, a-b-db, 9, 3, 8, 5, 195, 120, 114, 186, 120, 195, 1, 0.959197
327, 3, bw, attraction, a-b-db, 9, 3, 8, 5, 195, 120, 114, 186, 120, 195, 3, 0.351516
327, 3, bw, attraction, a-b-da, 9, 3, 8, 6, 120, 195, 186, 114, 195, 120, 1, 0.655241
327, 3, bw, attraction, a-b-da, 9, 3, 8, 6, 120, 195, 186, 114, 195, 120, 2, 0.243895
327, 3, bw, attraction, a-b-da, 5, 3, 8, 7, 190, 117, 120, 195, 195, 120, 1, 2.67971
327, 3, bw, attraction, a-b-da, 5, 3, 8, 7, 190, 117, 120, 195, 195, 120, 2, 0.386833
327, 3, bw, attraction, a-b-da, 14, 3, 8, 8, 120, 195, 195, 120, 181, 111, 2, 0.777272
327, 3, bw, attraction, a-b-da, 14, 3, 8, 8, 120, 195, 195, 120, 181, 111, 3, 0.809056
327, 3, bw, attraction, a-b-db, 2, 2, 8, 9, 165, 90, 89, 163, 90, 165, 1, 3.07805
327, 3, bw, attraction, a-b-db, 2, 2, 8, 9, 165, 90, 89, 163, 90, 165, 2, 0.969024
327, 3, bw, attraction, a-b-db, 9, 1, 8, 10, 60, 135, 135, 60, 57, 129, 2, 2.07998
327, 3, bw, attraction, a-b-db, 9, 1, 8, 10, 60, 135, 135, 60, 57, 129, 1, 0.643284
327, 3, bw, attraction, a-b-db, 5, 2, 8, 11, 90, 165, 165, 90, 88, 161, 2, 1.23106
327, 3, bw, attraction, a-b-db, 5, 2, 8, 11, 90, 165, 165, 90, 88, 161, 3, 0.892633
327, 3, bw, attraction, a-b-db, 14, 3, 8, 12, 195, 120, 111, 181, 120, 195, 1, 1.51025
327, 3, bw, attraction, a-b-db, 14, 3, 8, 12, 195, 120, 111, 181, 120, 195, 2, 0.272451
327, 3, bw, filler, NA, 999, 999, 8, 13, 148, 62, 80, 180, 88, 151, 2, 3.74762
327, 3, bw, filler, NA, 999, 999, 8, 13, 148, 62, 80, 180, 88, 151, 1, 0.395765
327, 3, bw, filler, NA, 999, 999, 8, 14, 59, 124, 106, 159, 78, 190, 2, 0.881631
327, 3, bw, filler, NA, 999, 999, 8, 14, 59, 124, 106, 159, 78, 190, 1, 0.589299
327, 3, bw, filler, NA, 999, 999, 8, 15, 90, 189, 146, 69, 138, 195, 3, 0.707686
327, 3, bw, filler, NA, 999, 999, 8, 15, 90, 189, 146, 69, 138, 195, 2, 0.294109
327, 3, bw, attraction, a-b-da, 9, 1, 8, 16, 60, 135, 129, 57, 135, 60, 3, 1.06392
327, 3, bw, attraction, a-b-da, 9, 1, 8, 16, 60, 135, 129, 57, 135, 60, 2, 0.956389
327, 3, bw, attraction, a-b-da, 2, 1, 8, 17, 134, 59, 135, 60, 60, 135, 1, 0.955943
327, 3, bw, attraction, a-b-da, 2, 1, 8, 17, 134, 59, 135, 60, 60, 135, 3, 0.412302
327, 3, bw, filler, NA, 999, 999, 8, 18, 117, 97, 166, 89, 73, 100, 2, 1.16937
327, 3, bw, filler, NA, 999, 999, 8, 18, 117, 97, 166, 89, 73, 100, 3, 0.409848
327, 3, bw, attraction, a-b-da, 2, 3, 8, 19, 193, 119, 195, 120, 120, 195, 2, 0.79872
327, 3, bw, attraction, a-b-da, 2, 3, 8, 19, 193, 119, 195, 120, 120, 195, 3, 0.229956
327, 3, bw, attraction, a-b-da, 2, 2, 8, 20, 165, 90, 163, 89, 90, 165, 2, 0.666405
327, 3, bw, attraction, a-b-da, 2, 2, 8, 20, 165, 90, 163, 89, 90, 165, 3, 0.294962
327, 3, bw, filler, NA, 999, 999, 8, 21, 141, 88, 190, 162, 63, 126, 2, 0.728797
327, 3, bw, filler, NA, 999, 999, 8, 21, 141, 88, 190, 162, 63, 126, 3, 0.282539
327, 3, bw, attraction, a-b-da, 5, 1, 8, 22, 132, 58, 135, 60, 60, 135, 2, 0.788971
327, 3, bw, attraction, a-b-da, 5, 1, 8, 22, 132, 58, 135, 60, 60, 135, 3, 0.312061
327, 3, bw, attraction, a-b-da, 9, 2, 8, 23, 90, 165, 157, 86, 165, 90, 2, 0.69323
327, 3, bw, attraction, a-b-da, 9, 2, 8, 23, 90, 165, 157, 86, 165, 90, 3, 0.280374
327, 3, bw, attraction, a-b-da, 14, 1, 8, 24, 125, 56, 135, 60, 60, 135, 3, 0.810865
327, 3, bw, attraction, a-b-da, 14, 1, 8, 24, 125, 56, 135, 60, 60, 135, 2, 0.441169
327, 3, bw, filler, NA, 999, 999, 8, 25, 82, 77, 190, 155, 108, 117, 2, 0.932975
327, 3, bw, filler, NA, 999, 999, 8, 25, 82, 77, 190, 155, 108, 117, 1, 1.26285
327, 3, bw, attraction, a-b-db, 14, 2, 8, 26, 165, 90, 83, 153, 90, 165, 1, 0.961612
327, 3, bw, attraction, a-b-db, 14, 2, 8, 26, 165, 90, 83, 153, 90, 165, 2, 0.24195
327, 3, bw, attraction, a-b-db, 9, 2, 8, 27, 90, 165, 165, 90, 86, 157, 1, 1.73372
327, 3, bw, attraction, a-b-db, 9, 2, 8, 27, 90, 165, 165, 90, 86, 157, 3, 0.335234
327, 3, bw, filler, NA, 999, 999, 8, 28, 174, 87, 183, 140, 68, 154, 2, 0.935735
327, 3, bw, filler, NA, 999, 999, 8, 28, 174, 87, 183, 140, 68, 154, 3, 0.233429
327, 3, bw, attraction, a-b-da, 5, 2, 8, 29, 90, 165, 161, 88, 165, 90, 3, 0.789919
327, 3, bw, attraction, a-b-da, 5, 2, 8, 29, 90, 165, 161, 88, 165, 90, 2, 0.23699
327, 3, bw, attraction, a-b-db, 14, 1, 8, 30, 135, 60, 56, 125, 60, 135, 1, 1.60159
327, 3, bw, attraction, a-b-db, 14, 1, 8, 30, 135, 60, 56, 125, 60, 135, 2, 0.400368
327, 3, bw, filler, NA, 999, 999, 8, 31, 139, 95, 111, 101, 100, 155, 1, 1.23013
327, 3, bw, filler, NA, 999, 999, 8, 31, 139, 95, 111, 101, 100, 155, 2, 1.23579
327, 3, bw, filler, NA, 999, 999, 8, 32, 170, 132, 60, 118, 148, 104, 1, 0.983983
327, 3, bw, filler, NA, 999, 999, 8, 32, 170, 132, 60, 118, 148, 104, 2, 0.351622
327, 3, bw, attraction, a-b-db, 5, 3, 8, 33, 117, 190, 195, 120, 120, 195, 2, 0.607435
327, 3, bw, attraction, a-b-db, 5, 3, 8, 33, 117, 190, 195, 120, 120, 195, 3, 0.278052
327, 3, bw, catch, NA, 999, 999, 8, 34, 150, 165, 108, 87, 108, 147, 1, 0.736391
327, 3, bw, catch, NA, 999, 999, 8, 34, 150, 165, 108, 87, 108, 147, 2, 0.330192
327, 3, bw, attraction, a-b-db, 2, 3, 8, 35, 195, 120, 120, 195, 119, 193, 1, 0.674742
327, 3, bw, attraction, a-b-db, 2, 3, 8, 35, 195, 120, 120, 195, 119, 193, 2, 0.246575
327, 3, bw, catch, NA, 999, 999, 8, 36, 102, 93, 94, 161, 165, 150, 3, 0.714331
327, 3, bw, catch, NA, 999, 999, 8, 36, 102, 93, 94, 161, 165, 150, 1, 0.804729
327, 3, bw, catch, NA, 999, 999, 8, 37, 140, 115, 82, 113, 165, 150, 3, 0.626462
327, 3, bw, catch, NA, 999, 999, 8, 37, 140, 115, 82, 113, 165, 150, 2, 0.320212
