sub_n, computer_n, bw_cond, effect, set, distance, diag, block_n, trial_n, h1, w1, h2, w2, h3, w3, choice, rt 
307, 3, bw, practice, NA, 999, 999, 0, 1, 143, 99, 177, 110, 132, 187, 3, 4.1781
307, 3, bw, practice, NA, 999, 999, 0, 1, 143, 99, 177, 110, 132, 187, 1, 3.71147
307, 3, bw, practice, NA, 999, 999, 0, 2, 195, 58, 136, 195, 138, 141, 2, 2.26969
307, 3, bw, practice, NA, 999, 999, 0, 2, 195, 58, 136, 195, 138, 141, 1, 3.02657
307, 3, bw, practice, NA, 999, 999, 0, 3, 70, 119, 167, 75, 187, 107, 3, 2.76295
307, 3, bw, practice, NA, 999, 999, 0, 3, 70, 119, 167, 75, 187, 107, 1, 1.58692
307, 3, bw, catch, NA, 999, 999, 1, 1, 63, 132, 90, 165, 181, 134, 3, 2.32454
307, 3, bw, catch, NA, 999, 999, 1, 1, 63, 132, 90, 165, 181, 134, 1, 1.58197
307, 3, bw, attraction, a-b-db, 5, 3, 1, 2, 117, 190, 195, 120, 120, 195, 2, 2.13201
307, 3, bw, attraction, a-b-db, 5, 3, 1, 2, 117, 190, 195, 120, 120, 195, 3, 4.83745
307, 3, bw, filler, NA, 999, 999, 1, 3, 63, 58, 120, 125, 66, 136, 2, 1.51239
307, 3, bw, filler, NA, 999, 999, 1, 3, 63, 58, 120, 125, 66, 136, 1, 1.07453
307, 3, bw, attraction, a-b-db, 5, 2, 1, 4, 165, 90, 90, 165, 88, 161, 3, 3.2929
307, 3, bw, attraction, a-b-db, 5, 2, 1, 4, 165, 90, 90, 165, 88, 161, 1, 3.56726
307, 3, bw, filler, NA, 999, 999, 1, 5, 111, 102, 168, 135, 80, 132, 2, 0.845416
307, 3, bw, filler, NA, 999, 999, 1, 5, 111, 102, 168, 135, 80, 132, 3, 4.1224
307, 3, bw, attraction, a-b-da, 5, 1, 1, 6, 60, 135, 135, 60, 132, 58, 1, 4.88237
307, 3, bw, attraction, a-b-da, 5, 1, 1, 6, 60, 135, 135, 60, 132, 58, 3, 2.60478
307, 3, bw, attraction, a-b-db, 2, 3, 1, 7, 120, 195, 119, 193, 195, 120, 2, 2.18587
307, 3, bw, attraction, a-b-db, 2, 3, 1, 7, 120, 195, 119, 193, 195, 120, 3, 1.46523
307, 3, bw, catch, NA, 999, 999, 1, 8, 176, 139, 121, 74, 114, 141, 1, 1.06801
307, 3, bw, catch, NA, 999, 999, 1, 8, 176, 139, 121, 74, 114, 141, 2, 1.13634
307, 3, bw, attraction, a-b-da, 9, 2, 1, 9, 165, 90, 90, 165, 157, 86, 2, 1.49663
307, 3, bw, attraction, a-b-da, 9, 2, 1, 9, 165, 90, 90, 165, 157, 86, 3, 2.87555
307, 3, bw, attraction, a-b-da, 9, 1, 1, 10, 135, 60, 60, 135, 129, 57, 2, 2.69314
307, 3, bw, attraction, a-b-da, 9, 1, 1, 10, 135, 60, 60, 135, 129, 57, 3, 1.2876
307, 3, bw, attraction, a-b-da, 2, 3, 1, 11, 195, 120, 193, 119, 120, 195, 3, 4.9539
307, 3, bw, attraction, a-b-da, 2, 3, 1, 11, 195, 120, 193, 119, 120, 195, 1, 1.23353
307, 3, bw, attraction, a-b-db, 14, 2, 1, 12, 83, 153, 90, 165, 165, 90, 2, 4.21379
307, 3, bw, attraction, a-b-db, 14, 2, 1, 12, 83, 153, 90, 165, 165, 90, 1, 1.8831
307, 3, bw, attraction, a-b-da, 5, 2, 1, 13, 165, 90, 161, 88, 90, 165, 3, 4.89312
307, 3, bw, attraction, a-b-da, 5, 2, 1, 13, 165, 90, 161, 88, 90, 165, 2, 1.551
307, 3, bw, filler, NA, 999, 999, 1, 14, 192, 91, 184, 103, 100, 151, 2, 1.04648
307, 3, bw, filler, NA, 999, 999, 1, 14, 192, 91, 184, 103, 100, 151, 1, 1.09136
307, 3, bw, attraction, a-b-db, 9, 2, 1, 15, 90, 165, 165, 90, 86, 157, 1, 1.43685
307, 3, bw, attraction, a-b-db, 9, 2, 1, 15, 90, 165, 165, 90, 86, 157, 2, 0.71451
307, 3, bw, attraction, a-b-da, 14, 3, 1, 16, 181, 111, 120, 195, 195, 120, 2, 1.16351
307, 3, bw, attraction, a-b-da, 14, 3, 1, 16, 181, 111, 120, 195, 195, 120, 1, 1.88383
307, 3, bw, attraction, a-b-da, 14, 2, 1, 17, 165, 90, 90, 165, 153, 83, 2, 2.03781
307, 3, bw, attraction, a-b-da, 14, 2, 1, 17, 165, 90, 90, 165, 153, 83, 3, 0.843143
307, 3, bw, filler, NA, 999, 999, 1, 18, 175, 128, 75, 79, 94, 121, 1, 0.742803
307, 3, bw, filler, NA, 999, 999, 1, 18, 175, 128, 75, 79, 94, 121, 2, 0.776005
307, 3, bw, filler, NA, 999, 999, 1, 19, 133, 134, 79, 154, 186, 63, 1, 1.96621
307, 3, bw, filler, NA, 999, 999, 1, 19, 133, 134, 79, 154, 186, 63, 2, 0.542258
307, 3, bw, catch, NA, 999, 999, 1, 20, 129, 66, 158, 157, 146, 109, 2, 0.630024
307, 3, bw, catch, NA, 999, 999, 1, 20, 129, 66, 158, 157, 146, 109, 1, 1.05184
307, 3, bw, attraction, a-b-da, 5, 3, 1, 21, 120, 195, 190, 117, 195, 120, 3, 2.25552
307, 3, bw, attraction, a-b-da, 5, 3, 1, 21, 120, 195, 190, 117, 195, 120, 2, 3.30738
307, 3, bw, filler, NA, 999, 999, 1, 22, 137, 182, 58, 186, 171, 93, 1, 0.572284
307, 3, bw, filler, NA, 999, 999, 1, 22, 137, 182, 58, 186, 171, 93, 2, 0.900087
307, 3, bw, attraction, a-b-db, 5, 1, 1, 23, 135, 60, 60, 135, 58, 132, 2, 2.46171
307, 3, bw, attraction, a-b-db, 5, 1, 1, 23, 135, 60, 60, 135, 58, 132, 1, 0.369749
307, 3, bw, filler, NA, 999, 999, 1, 24, 102, 72, 119, 136, 91, 173, 2, 0.800692
307, 3, bw, filler, NA, 999, 999, 1, 24, 102, 72, 119, 136, 91, 173, 1, 0.543856
307, 3, bw, attraction, a-b-da, 2, 1, 1, 25, 135, 60, 134, 59, 60, 135, 3, 0.82362
307, 3, bw, attraction, a-b-da, 2, 1, 1, 25, 135, 60, 134, 59, 60, 135, 1, 0.973258
307, 3, bw, attraction, a-b-db, 2, 2, 1, 26, 165, 90, 90, 165, 89, 163, 2, 2.10834
307, 3, bw, attraction, a-b-db, 2, 2, 1, 26, 165, 90, 90, 165, 89, 163, 1, 0.94232
307, 3, bw, attraction, a-b-db, 14, 3, 1, 27, 111, 181, 120, 195, 195, 120, 2, 1.54198
307, 3, bw, attraction, a-b-db, 14, 3, 1, 27, 111, 181, 120, 195, 195, 120, 1, 0.606795
307, 3, bw, attraction, a-b-da, 9, 3, 1, 28, 195, 120, 186, 114, 120, 195, 1, 1.88391
307, 3, bw, attraction, a-b-da, 9, 3, 1, 28, 195, 120, 186, 114, 120, 195, 2, 0.53516
307, 3, bw, attraction, a-b-da, 2, 2, 1, 29, 163, 89, 90, 165, 165, 90, 2, 1.83977
307, 3, bw, attraction, a-b-da, 2, 2, 1, 29, 163, 89, 90, 165, 165, 90, 1, 0.692283
307, 3, bw, filler, NA, 999, 999, 1, 30, 157, 70, 90, 129, 78, 68, 2, 0.886064
307, 3, bw, filler, NA, 999, 999, 1, 30, 157, 70, 90, 129, 78, 68, 3, 0.465724
307, 3, bw, filler, NA, 999, 999, 1, 31, 134, 166, 152, 178, 161, 128, 2, 0.821015
307, 3, bw, filler, NA, 999, 999, 1, 31, 134, 166, 152, 178, 161, 128, 3, 4.81946
307, 3, bw, attraction, a-b-da, 14, 1, 1, 32, 135, 60, 125, 56, 60, 135, 1, 1.35917
307, 3, bw, attraction, a-b-da, 14, 1, 1, 32, 135, 60, 125, 56, 60, 135, 2, 0.559438
307, 3, bw, attraction, a-b-db, 14, 1, 1, 33, 60, 135, 135, 60, 56, 125, 1, 3.83845
307, 3, bw, attraction, a-b-db, 14, 1, 1, 33, 60, 135, 135, 60, 56, 125, 2, 0.763097
307, 3, bw, filler, NA, 999, 999, 1, 34, 83, 74, 132, 111, 135, 160, 3, 1.26622
307, 3, bw, filler, NA, 999, 999, 1, 34, 83, 74, 132, 111, 135, 160, 1, 0.542457
307, 3, bw, attraction, a-b-db, 9, 1, 1, 35, 57, 129, 135, 60, 60, 135, 3, 4.70218
307, 3, bw, attraction, a-b-db, 9, 1, 1, 35, 57, 129, 135, 60, 60, 135, 2, 0.424036
307, 3, bw, attraction, a-b-db, 9, 3, 1, 36, 114, 186, 120, 195, 195, 120, 2, 1.00454
307, 3, bw, attraction, a-b-db, 9, 3, 1, 36, 114, 186, 120, 195, 195, 120, 1, 0.434885
307, 3, bw, attraction, a-b-db, 2, 1, 1, 37, 60, 135, 135, 60, 59, 134, 1, 0.743243
307, 3, bw, attraction, a-b-db, 2, 1, 1, 37, 60, 135, 135, 60, 59, 134, 2, 0.912467
307, 3, bw, attraction, a-b-da, 9, 2, 2, 1, 165, 90, 157, 86, 90, 165, 1, 0.857353
307, 3, bw, attraction, a-b-da, 9, 2, 2, 1, 165, 90, 157, 86, 90, 165, 2, 0.533709
307, 3, bw, attraction, a-b-db, 14, 3, 2, 2, 111, 181, 195, 120, 120, 195, 2, 0.470153
307, 3, bw, attraction, a-b-db, 14, 3, 2, 2, 111, 181, 195, 120, 120, 195, 1, 0.346724
307, 3, bw, catch, NA, 999, 999, 2, 3, 144, 111, 161, 154, 135, 60, 2, 0.482561
307, 3, bw, catch, NA, 999, 999, 2, 3, 144, 111, 161, 154, 135, 60, 3, 0.366421
307, 3, bw, attraction, a-b-db, 9, 2, 2, 4, 165, 90, 86, 157, 90, 165, 1, 2.48554
307, 3, bw, attraction, a-b-db, 9, 2, 2, 4, 165, 90, 86, 157, 90, 165, 2, 0.552758
307, 3, bw, attraction, a-b-db, 2, 1, 2, 5, 59, 134, 135, 60, 60, 135, 3, 2.49646
307, 3, bw, attraction, a-b-db, 2, 1, 2, 5, 59, 134, 135, 60, 60, 135, 2, 0.842978
307, 3, bw, attraction, a-b-da, 9, 1, 2, 6, 135, 60, 60, 135, 129, 57, 2, 1.20668
307, 3, bw, attraction, a-b-da, 9, 1, 2, 6, 135, 60, 60, 135, 129, 57, 1, 1.49293
307, 3, bw, attraction, a-b-db, 9, 1, 2, 7, 60, 135, 135, 60, 57, 129, 2, 2.21445
307, 3, bw, attraction, a-b-db, 9, 1, 2, 7, 60, 135, 135, 60, 57, 129, 3, 1.0924
307, 3, bw, catch, NA, 999, 999, 2, 8, 101, 154, 135, 180, 73, 122, 2, 0.605999
307, 3, bw, catch, NA, 999, 999, 2, 8, 101, 154, 135, 180, 73, 122, 3, 0.628538
307, 3, bw, attraction, a-b-da, 14, 1, 2, 9, 135, 60, 125, 56, 60, 135, 2, 1.1448
307, 3, bw, attraction, a-b-da, 14, 1, 2, 9, 135, 60, 125, 56, 60, 135, 3, 0.969794
307, 3, bw, filler, NA, 999, 999, 2, 10, 72, 105, 143, 170, 185, 117, 2, 0.488708
307, 3, bw, filler, NA, 999, 999, 2, 10, 72, 105, 143, 170, 185, 117, 1, 0.867908
307, 3, bw, filler, NA, 999, 999, 2, 11, 156, 165, 97, 192, 186, 64, 1, 0.854891
307, 3, bw, filler, NA, 999, 999, 2, 11, 156, 165, 97, 192, 186, 64, 3, 1.21126
307, 3, bw, filler, NA, 999, 999, 2, 12, 146, 110, 117, 65, 191, 172, 3, 0.816264
307, 3, bw, filler, NA, 999, 999, 2, 12, 146, 110, 117, 65, 191, 172, 2, 0.47854
307, 3, bw, attraction, a-b-db, 5, 3, 2, 13, 120, 195, 195, 120, 117, 190, 2, 0.713051
307, 3, bw, attraction, a-b-db, 5, 3, 2, 13, 120, 195, 195, 120, 117, 190, 1, 0.435393
307, 3, bw, attraction, a-b-da, 14, 3, 2, 14, 120, 195, 181, 111, 195, 120, 1, 1.16792
307, 3, bw, attraction, a-b-da, 14, 3, 2, 14, 120, 195, 181, 111, 195, 120, 2, 1.13629
307, 3, bw, attraction, a-b-db, 2, 3, 2, 15, 120, 195, 119, 193, 195, 120, 2, 0.504391
307, 3, bw, attraction, a-b-db, 2, 3, 2, 15, 120, 195, 119, 193, 195, 120, 1, 0.891745
307, 3, bw, filler, NA, 999, 999, 2, 16, 129, 180, 162, 148, 187, 166, 3, 0.877204
307, 3, bw, filler, NA, 999, 999, 2, 16, 129, 180, 162, 148, 187, 166, 1, 0.776891
307, 3, bw, attraction, a-b-da, 14, 2, 2, 17, 165, 90, 90, 165, 153, 83, 2, 1.41532
307, 3, bw, attraction, a-b-da, 14, 2, 2, 17, 165, 90, 90, 165, 153, 83, 1, 1.25351
307, 3, bw, attraction, a-b-db, 14, 2, 2, 18, 165, 90, 90, 165, 83, 153, 2, 1.63298
307, 3, bw, attraction, a-b-db, 14, 2, 2, 18, 165, 90, 90, 165, 83, 153, 3, 0.462517
307, 3, bw, filler, NA, 999, 999, 2, 19, 194, 72, 165, 106, 142, 63, 2, 0.489704
307, 3, bw, filler, NA, 999, 999, 2, 19, 194, 72, 165, 106, 142, 63, 3, 1.2048
307, 3, bw, attraction, a-b-da, 2, 2, 2, 20, 163, 89, 165, 90, 90, 165, 3, 1.22646
307, 3, bw, attraction, a-b-da, 2, 2, 2, 20, 163, 89, 165, 90, 90, 165, 2, 1.40014
307, 3, bw, filler, NA, 999, 999, 2, 21, 115, 175, 144, 135, 187, 153, 3, 0.733473
307, 3, bw, filler, NA, 999, 999, 2, 21, 115, 175, 144, 135, 187, 153, 1, 0.647215
307, 3, bw, attraction, a-b-da, 5, 2, 2, 22, 90, 165, 165, 90, 161, 88, 1, 0.763037
307, 3, bw, attraction, a-b-da, 5, 2, 2, 22, 90, 165, 165, 90, 161, 88, 3, 1.21944
307, 3, bw, attraction, a-b-da, 2, 1, 2, 23, 60, 135, 135, 60, 134, 59, 1, 4.60818
307, 3, bw, attraction, a-b-da, 2, 1, 2, 23, 60, 135, 135, 60, 134, 59, 2, 0.71739
307, 3, bw, catch, NA, 999, 999, 2, 24, 87, 108, 111, 144, 146, 169, 3, 0.798476
307, 3, bw, catch, NA, 999, 999, 2, 24, 87, 108, 111, 144, 146, 169, 1, 0.589556
307, 3, bw, attraction, a-b-da, 5, 1, 2, 25, 135, 60, 132, 58, 60, 135, 1, 0.883975
307, 3, bw, attraction, a-b-da, 5, 1, 2, 25, 135, 60, 132, 58, 60, 135, 2, 1.13584
307, 3, bw, filler, NA, 999, 999, 2, 26, 193, 135, 110, 189, 183, 88, 1, 0.90392
307, 3, bw, filler, NA, 999, 999, 2, 26, 193, 135, 110, 189, 183, 88, 3, 0.563047
307, 3, bw, filler, NA, 999, 999, 2, 27, 193, 170, 171, 180, 149, 75, 2, 0.442231
307, 3, bw, filler, NA, 999, 999, 2, 27, 193, 170, 171, 180, 149, 75, 3, 0.583431
307, 3, bw, attraction, a-b-db, 5, 2, 2, 28, 88, 161, 90, 165, 165, 90, 2, 1.20567
307, 3, bw, attraction, a-b-db, 5, 2, 2, 28, 88, 161, 90, 165, 165, 90, 1, 0.507972
307, 3, bw, attraction, a-b-db, 2, 2, 2, 29, 90, 165, 165, 90, 89, 163, 3, 0.709055
307, 3, bw, attraction, a-b-db, 2, 2, 2, 29, 90, 165, 165, 90, 89, 163, 2, 0.383457
307, 3, bw, attraction, a-b-db, 5, 1, 2, 30, 60, 135, 135, 60, 58, 132, 3, 1.23803
307, 3, bw, attraction, a-b-db, 5, 1, 2, 30, 60, 135, 135, 60, 58, 132, 2, 0.75549
307, 3, bw, attraction, a-b-db, 14, 1, 2, 31, 56, 125, 60, 135, 135, 60, 2, 0.619177
307, 3, bw, attraction, a-b-db, 14, 1, 2, 31, 56, 125, 60, 135, 135, 60, 1, 0.601674
307, 3, bw, attraction, a-b-da, 5, 3, 2, 32, 190, 117, 120, 195, 195, 120, 2, 1.08738
307, 3, bw, attraction, a-b-da, 5, 3, 2, 32, 190, 117, 120, 195, 195, 120, 1, 1.17904
307, 3, bw, attraction, a-b-da, 9, 3, 2, 33, 195, 120, 186, 114, 120, 195, 3, 1.06531
307, 3, bw, attraction, a-b-da, 9, 3, 2, 33, 195, 120, 186, 114, 120, 195, 2, 0.501555
307, 3, bw, attraction, a-b-db, 9, 3, 2, 34, 114, 186, 195, 120, 120, 195, 2, 1.36741
307, 3, bw, attraction, a-b-db, 9, 3, 2, 34, 114, 186, 195, 120, 120, 195, 1, 0.823742
307, 3, bw, filler, NA, 999, 999, 2, 35, 132, 85, 130, 170, 149, 86, 2, 0.603949
307, 3, bw, filler, NA, 999, 999, 2, 35, 132, 85, 130, 170, 149, 86, 1, 0.763118
307, 3, bw, attraction, a-b-da, 2, 3, 2, 36, 195, 120, 120, 195, 193, 119, 3, 1.09011
307, 3, bw, attraction, a-b-da, 2, 3, 2, 36, 195, 120, 120, 195, 193, 119, 1, 0.549078
307, 3, bw, filler, NA, 999, 999, 2, 37, 173, 160, 103, 119, 128, 61, 1, 0.884814
307, 3, bw, filler, NA, 999, 999, 2, 37, 173, 160, 103, 119, 128, 61, 3, 1.10457
307, 3, bw, attraction, a-b-db, 9, 3, 3, 1, 195, 120, 120, 195, 114, 186, 2, 3.3702
307, 3, bw, attraction, a-b-db, 9, 3, 3, 1, 195, 120, 120, 195, 114, 186, 1, 0.713862
307, 3, bw, attraction, a-b-da, 9, 2, 3, 2, 157, 86, 90, 165, 165, 90, 2, 2.32286
307, 3, bw, attraction, a-b-da, 9, 2, 3, 2, 157, 86, 90, 165, 165, 90, 1, 0.660054
307, 3, bw, attraction, a-b-da, 5, 1, 3, 3, 60, 135, 132, 58, 135, 60, 1, 1.5111
307, 3, bw, attraction, a-b-da, 5, 1, 3, 3, 60, 135, 132, 58, 135, 60, 2, 0.425311
307, 3, bw, filler, NA, 999, 999, 3, 4, 193, 135, 96, 175, 173, 171, 3, 1.50167
307, 3, bw, filler, NA, 999, 999, 3, 4, 193, 135, 96, 175, 173, 171, 2, 0.352566
307, 3, bw, attraction, a-b-da, 14, 1, 3, 5, 135, 60, 60, 135, 125, 56, 2, 0.680458
307, 3, bw, attraction, a-b-da, 14, 1, 3, 5, 135, 60, 60, 135, 125, 56, 1, 0.460198
307, 3, bw, attraction, a-b-db, 14, 2, 3, 6, 83, 153, 165, 90, 90, 165, 2, 2.87131
307, 3, bw, attraction, a-b-db, 14, 2, 3, 6, 83, 153, 165, 90, 90, 165, 1, 0.603016
307, 3, bw, filler, NA, 999, 999, 3, 7, 130, 172, 186, 87, 79, 100, 1, 0.864798
307, 3, bw, filler, NA, 999, 999, 3, 7, 130, 172, 186, 87, 79, 100, 3, 1.64513
307, 3, bw, catch, NA, 999, 999, 3, 8, 61, 134, 165, 150, 132, 123, 2, 0.488723
307, 3, bw, catch, NA, 999, 999, 3, 8, 61, 134, 165, 150, 132, 123, 1, 1.39576
307, 3, bw, attraction, a-b-da, 14, 3, 3, 9, 181, 111, 195, 120, 120, 195, 3, 2.12126
307, 3, bw, attraction, a-b-da, 14, 3, 3, 9, 181, 111, 195, 120, 120, 195, 1, 1.36321
307, 3, bw, filler, NA, 999, 999, 3, 10, 193, 96, 101, 108, 60, 161, 1, 1.73817
307, 3, bw, filler, NA, 999, 999, 3, 10, 193, 96, 101, 108, 60, 161, 2, 0.594974
307, 3, bw, attraction, a-b-db, 2, 2, 3, 11, 165, 90, 89, 163, 90, 165, 2, 5.32857
307, 3, bw, attraction, a-b-db, 2, 2, 3, 11, 165, 90, 89, 163, 90, 165, 1, 0.832927
307, 3, bw, attraction, a-b-da, 14, 2, 3, 12, 165, 90, 90, 165, 153, 83, 2, 2.26924
307, 3, bw, attraction, a-b-da, 14, 2, 3, 12, 165, 90, 90, 165, 153, 83, 3, 0.497154
307, 3, bw, attraction, a-b-db, 9, 2, 3, 13, 90, 165, 165, 90, 86, 157, 1, 5.70694
307, 3, bw, attraction, a-b-db, 9, 2, 3, 13, 90, 165, 165, 90, 86, 157, 3, 0.811929
307, 3, bw, attraction, a-b-da, 2, 2, 3, 14, 90, 165, 163, 89, 165, 90, 1, 1.08886
307, 3, bw, attraction, a-b-da, 2, 2, 3, 14, 90, 165, 163, 89, 165, 90, 3, 0.53984
307, 3, bw, filler, NA, 999, 999, 3, 15, 109, 104, 167, 177, 138, 135, 2, 0.636221
307, 3, bw, filler, NA, 999, 999, 3, 15, 109, 104, 167, 177, 138, 135, 1, 0.442116
307, 3, bw, attraction, a-b-db, 5, 2, 3, 16, 90, 165, 165, 90, 88, 161, 1, 2.23786
307, 3, bw, attraction, a-b-db, 5, 2, 3, 16, 90, 165, 165, 90, 88, 161, 2, 1.0911
307, 3, bw, filler, NA, 999, 999, 3, 17, 102, 163, 97, 191, 90, 141, 2, 0.908702
307, 3, bw, filler, NA, 999, 999, 3, 17, 102, 163, 97, 191, 90, 141, 3, 0.983022
307, 3, bw, attraction, a-b-db, 2, 3, 3, 18, 195, 120, 119, 193, 120, 195, 1, 1.18145
307, 3, bw, attraction, a-b-db, 2, 3, 3, 18, 195, 120, 119, 193, 120, 195, 2, 0.452919
307, 3, bw, catch, NA, 999, 999, 3, 19, 103, 92, 158, 97, 152, 163, 3, 0.832655
307, 3, bw, catch, NA, 999, 999, 3, 19, 103, 92, 158, 97, 152, 163, 1, 0.622463
307, 3, bw, attraction, a-b-db, 5, 1, 3, 20, 60, 135, 135, 60, 58, 132, 1, 5.70766
307, 3, bw, attraction, a-b-db, 5, 1, 3, 20, 60, 135, 135, 60, 58, 132, 2, 1.09239
307, 3, bw, attraction, a-b-db, 14, 1, 3, 21, 60, 135, 135, 60, 56, 125, 1, 2.38202
307, 3, bw, attraction, a-b-db, 14, 1, 3, 21, 60, 135, 135, 60, 56, 125, 2, 0.509227
307, 3, bw, attraction, a-b-da, 5, 3, 3, 22, 190, 117, 120, 195, 195, 120, 2, 0.918309
307, 3, bw, attraction, a-b-da, 5, 3, 3, 22, 190, 117, 120, 195, 195, 120, 1, 0.856827
307, 3, bw, attraction, a-b-da, 2, 1, 3, 23, 134, 59, 135, 60, 60, 135, 3, 1.86769
307, 3, bw, attraction, a-b-da, 2, 1, 3, 23, 134, 59, 135, 60, 60, 135, 2, 0.455828
307, 3, bw, attraction, a-b-da, 5, 2, 3, 24, 90, 165, 165, 90, 161, 88, 2, 0.843609
307, 3, bw, attraction, a-b-da, 5, 2, 3, 24, 90, 165, 165, 90, 161, 88, 1, 0.488604
307, 3, bw, attraction, a-b-da, 9, 3, 3, 25, 120, 195, 195, 120, 186, 114, 1, 0.907117
307, 3, bw, attraction, a-b-da, 9, 3, 3, 25, 120, 195, 195, 120, 186, 114, 3, 1.2615
307, 3, bw, attraction, a-b-db, 2, 1, 3, 26, 60, 135, 135, 60, 59, 134, 2, 1.21637
307, 3, bw, attraction, a-b-db, 2, 1, 3, 26, 60, 135, 135, 60, 59, 134, 1, 0.582559
307, 3, bw, attraction, a-b-da, 2, 3, 3, 27, 120, 195, 195, 120, 193, 119, 1, 1.76494
307, 3, bw, attraction, a-b-da, 2, 3, 3, 27, 120, 195, 195, 120, 193, 119, 2, 0.653157
307, 3, bw, attraction, a-b-db, 14, 3, 3, 28, 195, 120, 120, 195, 111, 181, 2, 1.38483
307, 3, bw, attraction, a-b-db, 14, 3, 3, 28, 195, 120, 120, 195, 111, 181, 1, 0.656513
307, 3, bw, attraction, a-b-da, 9, 1, 3, 29, 135, 60, 129, 57, 60, 135, 3, 3.07609
307, 3, bw, attraction, a-b-da, 9, 1, 3, 29, 135, 60, 129, 57, 60, 135, 2, 0.471145
307, 3, bw, filler, NA, 999, 999, 3, 30, 91, 61, 127, 192, 182, 151, 2, 0.754259
307, 3, bw, filler, NA, 999, 999, 3, 30, 91, 61, 127, 192, 182, 151, 1, 0.4033
307, 3, bw, attraction, a-b-db, 9, 1, 3, 31, 57, 129, 60, 135, 135, 60, 2, 2.16112
307, 3, bw, attraction, a-b-db, 9, 1, 3, 31, 57, 129, 60, 135, 135, 60, 1, 0.945195
307, 3, bw, filler, NA, 999, 999, 3, 32, 130, 111, 74, 74, 175, 174, 3, 1.58478
307, 3, bw, filler, NA, 999, 999, 3, 32, 130, 111, 74, 74, 175, 174, 2, 0.512221
307, 3, bw, filler, NA, 999, 999, 3, 33, 69, 155, 169, 149, 190, 182, 3, 1.63339
307, 3, bw, filler, NA, 999, 999, 3, 33, 69, 155, 169, 149, 190, 182, 1, 0.566754
307, 3, bw, catch, NA, 999, 999, 3, 34, 185, 130, 133, 62, 130, 125, 1, 0.701838
307, 3, bw, catch, NA, 999, 999, 3, 34, 185, 130, 133, 62, 130, 125, 2, 0.424992
307, 3, bw, filler, NA, 999, 999, 3, 35, 180, 120, 60, 144, 190, 113, 3, 1.06952
307, 3, bw, filler, NA, 999, 999, 3, 35, 180, 120, 60, 144, 190, 113, 2, 0.441763
307, 3, bw, filler, NA, 999, 999, 3, 36, 151, 138, 143, 123, 126, 97, 1, 1.90157
307, 3, bw, filler, NA, 999, 999, 3, 36, 151, 138, 143, 123, 126, 97, 3, 0.432381
307, 3, bw, attraction, a-b-db, 5, 3, 3, 37, 120, 195, 117, 190, 195, 120, 1, 1.18084
307, 3, bw, attraction, a-b-db, 5, 3, 3, 37, 120, 195, 117, 190, 195, 120, 2, 0.532396
307, 3, bw, filler, NA, 999, 999, 4, 1, 186, 166, 78, 119, 59, 195, 1, 0.492823
307, 3, bw, filler, NA, 999, 999, 4, 1, 186, 166, 78, 119, 59, 195, 2, 0.512172
307, 3, bw, attraction, a-b-db, 5, 3, 4, 2, 117, 190, 120, 195, 195, 120, 2, 0.5131
307, 3, bw, attraction, a-b-db, 5, 3, 4, 2, 117, 190, 120, 195, 195, 120, 1, 0.35563
307, 3, bw, catch, NA, 999, 999, 4, 3, 124, 191, 60, 135, 114, 141, 1, 0.891422
307, 3, bw, catch, NA, 999, 999, 4, 3, 124, 191, 60, 135, 114, 141, 2, 1.43843
307, 3, bw, filler, NA, 999, 999, 4, 4, 162, 144, 163, 91, 106, 83, 1, 0.85056
307, 3, bw, filler, NA, 999, 999, 4, 4, 162, 144, 163, 91, 106, 83, 3, 0.511597
307, 3, bw, attraction, a-b-da, 5, 2, 4, 5, 165, 90, 90, 165, 161, 88, 2, 2.57675
307, 3, bw, attraction, a-b-da, 5, 2, 4, 5, 165, 90, 90, 165, 161, 88, 1, 0.447915
307, 3, bw, attraction, a-b-da, 2, 3, 4, 6, 195, 120, 193, 119, 120, 195, 1, 2.60376
307, 3, bw, attraction, a-b-da, 2, 3, 4, 6, 195, 120, 193, 119, 120, 195, 2, 0.594192
307, 3, bw, filler, NA, 999, 999, 4, 7, 96, 87, 70, 66, 120, 177, 3, 1.36791
307, 3, bw, filler, NA, 999, 999, 4, 7, 96, 87, 70, 66, 120, 177, 2, 0.744152
307, 3, bw, filler, NA, 999, 999, 4, 8, 66, 56, 81, 154, 78, 131, 2, 0.799854
307, 3, bw, filler, NA, 999, 999, 4, 8, 66, 56, 81, 154, 78, 131, 1, 0.782967
307, 3, bw, attraction, a-b-db, 5, 1, 4, 9, 60, 135, 135, 60, 58, 132, 2, 1.48531
307, 3, bw, attraction, a-b-db, 5, 1, 4, 9, 60, 135, 135, 60, 58, 132, 1, 0.840746
307, 3, bw, catch, NA, 999, 999, 4, 10, 122, 193, 132, 63, 151, 104, 1, 0.612708
307, 3, bw, catch, NA, 999, 999, 4, 10, 122, 193, 132, 63, 151, 104, 2, 0.658987
307, 3, bw, attraction, a-b-db, 2, 1, 4, 11, 135, 60, 60, 135, 59, 134, 1, 1.10206
307, 3, bw, attraction, a-b-db, 2, 1, 4, 11, 135, 60, 60, 135, 59, 134, 2, 2.37693
307, 3, bw, attraction, a-b-da, 9, 3, 4, 12, 195, 120, 186, 114, 120, 195, 3, 1.13505
307, 3, bw, attraction, a-b-da, 9, 3, 4, 12, 195, 120, 186, 114, 120, 195, 2, 1.06452
307, 3, bw, attraction, a-b-db, 2, 2, 4, 13, 165, 90, 89, 163, 90, 165, 2, 4.44341
307, 3, bw, attraction, a-b-db, 2, 2, 4, 13, 165, 90, 89, 163, 90, 165, 1, 0.759363
307, 3, bw, attraction, a-b-db, 5, 2, 4, 14, 90, 165, 165, 90, 88, 161, 3, 1.01436
307, 3, bw, attraction, a-b-db, 5, 2, 4, 14, 90, 165, 165, 90, 88, 161, 2, 0.404607
307, 3, bw, filler, NA, 999, 999, 4, 15, 86, 75, 80, 75, 163, 89, 3, 0.962488
307, 3, bw, filler, NA, 999, 999, 4, 15, 86, 75, 80, 75, 163, 89, 2, 1.06686
307, 3, bw, attraction, a-b-da, 14, 1, 4, 16, 60, 135, 135, 60, 125, 56, 1, 1.12579
307, 3, bw, attraction, a-b-da, 14, 1, 4, 16, 60, 135, 135, 60, 125, 56, 3, 0.799441
307, 3, bw, filler, NA, 999, 999, 4, 17, 145, 156, 110, 101, 166, 95, 1, 0.853122
307, 3, bw, filler, NA, 999, 999, 4, 17, 145, 156, 110, 101, 166, 95, 2, 0.402215
307, 3, bw, attraction, a-b-db, 9, 2, 4, 18, 90, 165, 86, 157, 165, 90, 1, 3.59197
307, 3, bw, attraction, a-b-db, 9, 2, 4, 18, 90, 165, 86, 157, 165, 90, 2, 0.398191
307, 3, bw, filler, NA, 999, 999, 4, 19, 106, 78, 60, 151, 108, 99, 3, 1.36405
307, 3, bw, filler, NA, 999, 999, 4, 19, 106, 78, 60, 151, 108, 99, 1, 0.828272
307, 3, bw, attraction, a-b-da, 2, 1, 4, 20, 135, 60, 134, 59, 60, 135, 3, 1.3845
307, 3, bw, attraction, a-b-da, 2, 1, 4, 20, 135, 60, 134, 59, 60, 135, 1, 3.47209
307, 3, bw, attraction, a-b-da, 9, 1, 4, 21, 129, 57, 60, 135, 135, 60, 3, 0.83426
307, 3, bw, attraction, a-b-da, 9, 1, 4, 21, 129, 57, 60, 135, 135, 60, 1, 1.02398
307, 3, bw, attraction, a-b-da, 5, 1, 4, 22, 135, 60, 132, 58, 60, 135, 3, 0.844275
307, 3, bw, attraction, a-b-da, 5, 1, 4, 22, 135, 60, 132, 58, 60, 135, 2, 0.593408
307, 3, bw, attraction, a-b-db, 14, 3, 4, 23, 111, 181, 120, 195, 195, 120, 2, 0.799087
307, 3, bw, attraction, a-b-db, 14, 3, 4, 23, 111, 181, 120, 195, 195, 120, 1, 0.462181
307, 3, bw, attraction, a-b-db, 14, 2, 4, 24, 90, 165, 165, 90, 83, 153, 1, 1.66519
307, 3, bw, attraction, a-b-db, 14, 2, 4, 24, 90, 165, 165, 90, 83, 153, 3, 1.60542
307, 3, bw, attraction, a-b-db, 9, 1, 4, 25, 135, 60, 57, 129, 60, 135, 1, 1.50671
307, 3, bw, attraction, a-b-db, 9, 1, 4, 25, 135, 60, 57, 129, 60, 135, 2, 0.676929
307, 3, bw, attraction, a-b-da, 9, 2, 4, 26, 157, 86, 165, 90, 90, 165, 3, 1.0554
307, 3, bw, attraction, a-b-da, 9, 2, 4, 26, 157, 86, 165, 90, 90, 165, 1, 0.563722
307, 3, bw, attraction, a-b-db, 9, 3, 4, 27, 195, 120, 114, 186, 120, 195, 1, 1.2428
307, 3, bw, attraction, a-b-db, 9, 3, 4, 27, 195, 120, 114, 186, 120, 195, 2, 0.591635
307, 3, bw, attraction, a-b-da, 14, 2, 4, 28, 153, 83, 165, 90, 90, 165, 3, 1.09348
307, 3, bw, attraction, a-b-da, 14, 2, 4, 28, 153, 83, 165, 90, 90, 165, 1, 1.02445
307, 3, bw, attraction, a-b-da, 5, 3, 4, 29, 190, 117, 120, 195, 195, 120, 2, 1.94064
307, 3, bw, attraction, a-b-da, 5, 3, 4, 29, 190, 117, 120, 195, 195, 120, 1, 0.509341
307, 3, bw, attraction, a-b-db, 14, 1, 4, 30, 135, 60, 56, 125, 60, 135, 1, 0.990524
307, 3, bw, attraction, a-b-db, 14, 1, 4, 30, 135, 60, 56, 125, 60, 135, 2, 0.37355
307, 3, bw, attraction, a-b-da, 14, 3, 4, 31, 120, 195, 195, 120, 181, 111, 3, 1.09206
307, 3, bw, attraction, a-b-da, 14, 3, 4, 31, 120, 195, 195, 120, 181, 111, 1, 0.598946
307, 3, bw, filler, NA, 999, 999, 4, 32, 161, 143, 100, 164, 103, 180, 1, 1.11666
307, 3, bw, filler, NA, 999, 999, 4, 32, 161, 143, 100, 164, 103, 180, 2, 0.919007
307, 3, bw, filler, NA, 999, 999, 4, 33, 166, 146, 102, 102, 133, 65, 1, 0.839928
307, 3, bw, filler, NA, 999, 999, 4, 33, 166, 146, 102, 102, 133, 65, 3, 1.557
307, 3, bw, filler, NA, 999, 999, 4, 34, 169, 88, 178, 86, 105, 157, 3, 1.47586
307, 3, bw, filler, NA, 999, 999, 4, 34, 169, 88, 178, 86, 105, 157, 2, 0.775373
307, 3, bw, attraction, a-b-db, 2, 3, 4, 35, 119, 193, 120, 195, 195, 120, 1, 1.91767
307, 3, bw, attraction, a-b-db, 2, 3, 4, 35, 119, 193, 120, 195, 195, 120, 2, 1.61578
307, 3, bw, catch, NA, 999, 999, 4, 36, 166, 149, 152, 103, 70, 125, 1, 0.660532
307, 3, bw, catch, NA, 999, 999, 4, 36, 166, 149, 152, 103, 70, 125, 3, 0.664962
307, 3, bw, attraction, a-b-da, 2, 2, 4, 37, 163, 89, 90, 165, 165, 90, 2, 5.92404
307, 3, bw, attraction, a-b-da, 2, 2, 4, 37, 163, 89, 90, 165, 165, 90, 1, 0.43617
307, 3, bw, attraction, a-b-db, 14, 1, 5, 1, 60, 135, 135, 60, 56, 125, 1, 13.9352
307, 3, bw, attraction, a-b-db, 14, 1, 5, 1, 60, 135, 135, 60, 56, 125, 3, 1.86089
307, 3, bw, filler, NA, 999, 999, 5, 2, 104, 150, 158, 178, 123, 164, 2, 0.559555
307, 3, bw, filler, NA, 999, 999, 5, 2, 104, 150, 158, 178, 123, 164, 1, 2.13616
307, 3, bw, attraction, a-b-da, 2, 2, 5, 3, 90, 165, 163, 89, 165, 90, 3, 0.887917
307, 3, bw, attraction, a-b-da, 2, 2, 5, 3, 90, 165, 163, 89, 165, 90, 1, 0.658974
307, 3, bw, catch, NA, 999, 999, 5, 4, 150, 105, 125, 190, 131, 64, 2, 0.48603
307, 3, bw, catch, NA, 999, 999, 5, 4, 150, 105, 125, 190, 131, 64, 3, 0.593876
307, 3, bw, attraction, a-b-da, 5, 1, 5, 5, 132, 58, 135, 60, 60, 135, 3, 1.37557
307, 3, bw, attraction, a-b-da, 5, 1, 5, 5, 132, 58, 135, 60, 60, 135, 1, 0.711162
307, 3, bw, attraction, a-b-db, 9, 1, 5, 6, 135, 60, 60, 135, 57, 129, 2, 2.16022
307, 3, bw, attraction, a-b-db, 9, 1, 5, 6, 135, 60, 60, 135, 57, 129, 3, 0.496153
307, 3, bw, attraction, a-b-db, 5, 1, 5, 7, 135, 60, 58, 132, 60, 135, 3, 1.80199
307, 3, bw, attraction, a-b-db, 5, 1, 5, 7, 135, 60, 58, 132, 60, 135, 1, 0.840687
307, 3, bw, catch, NA, 999, 999, 5, 8, 189, 126, 83, 112, 109, 146, 1, 1.54832
307, 3, bw, catch, NA, 999, 999, 5, 8, 189, 126, 83, 112, 109, 146, 2, 0.341214
307, 3, bw, filler, NA, 999, 999, 5, 9, 153, 125, 86, 162, 56, 115, 1, 1.90906
307, 3, bw, filler, NA, 999, 999, 5, 9, 153, 125, 86, 162, 56, 115, 3, 0.48722
307, 3, bw, attraction, a-b-db, 5, 3, 5, 10, 120, 195, 117, 190, 195, 120, 3, 2.31367
307, 3, bw, attraction, a-b-db, 5, 3, 5, 10, 120, 195, 117, 190, 195, 120, 2, 1.09938
307, 3, bw, filler, NA, 999, 999, 5, 11, 78, 101, 71, 90, 119, 108, 3, 2.03696
307, 3, bw, filler, NA, 999, 999, 5, 11, 78, 101, 71, 90, 119, 108, 2, 0.442359
307, 3, bw, attraction, a-b-db, 2, 2, 5, 12, 165, 90, 90, 165, 89, 163, 2, 2.03019
307, 3, bw, attraction, a-b-db, 2, 2, 5, 12, 165, 90, 90, 165, 89, 163, 1, 0.339627
307, 3, bw, attraction, a-b-da, 5, 3, 5, 13, 120, 195, 195, 120, 190, 117, 3, 6.55604
307, 3, bw, attraction, a-b-da, 5, 3, 5, 13, 120, 195, 195, 120, 190, 117, 1, 0.691294
307, 3, bw, attraction, a-b-da, 14, 3, 5, 14, 195, 120, 181, 111, 120, 195, 3, 12.717
307, 3, bw, attraction, a-b-da, 14, 3, 5, 14, 195, 120, 181, 111, 120, 195, 2, 0.587617
307, 3, bw, filler, NA, 999, 999, 5, 15, 111, 77, 130, 143, 87, 84, 2, 0.586091
307, 3, bw, filler, NA, 999, 999, 5, 15, 111, 77, 130, 143, 87, 84, 3, 0.641866
307, 3, bw, attraction, a-b-db, 9, 3, 5, 16, 114, 186, 195, 120, 120, 195, 2, 1.18158
307, 3, bw, attraction, a-b-db, 9, 3, 5, 16, 114, 186, 195, 120, 120, 195, 1, 0.725271
307, 3, bw, filler, NA, 999, 999, 5, 17, 136, 134, 123, 117, 135, 110, 2, 1.54167
307, 3, bw, filler, NA, 999, 999, 5, 17, 136, 134, 123, 117, 135, 110, 3, 3.25446
307, 3, bw, attraction, a-b-db, 5, 2, 5, 18, 90, 165, 165, 90, 88, 161, 1, 4.92928
307, 3, bw, attraction, a-b-db, 5, 2, 5, 18, 90, 165, 165, 90, 88, 161, 2, 0.593877
307, 3, bw, filler, NA, 999, 999, 5, 19, 85, 57, 125, 64, 124, 90, 3, 0.983516
307, 3, bw, filler, NA, 999, 999, 5, 19, 85, 57, 125, 64, 124, 90, 1, 0.415192
307, 3, bw, attraction, a-b-da, 5, 2, 5, 20, 161, 88, 165, 90, 90, 165, 2, 0.836358
307, 3, bw, attraction, a-b-da, 5, 2, 5, 20, 161, 88, 165, 90, 90, 165, 1, 1.45004
307, 3, bw, attraction, a-b-da, 2, 3, 5, 21, 120, 195, 195, 120, 193, 119, 2, 0.949641
307, 3, bw, attraction, a-b-da, 2, 3, 5, 21, 120, 195, 195, 120, 193, 119, 3, 0.550691
307, 3, bw, attraction, a-b-da, 9, 2, 5, 22, 90, 165, 157, 86, 165, 90, 1, 1.13434
307, 3, bw, attraction, a-b-da, 9, 2, 5, 22, 90, 165, 157, 86, 165, 90, 2, 0.335912
307, 3, bw, attraction, a-b-db, 2, 1, 5, 23, 135, 60, 59, 134, 60, 135, 1, 3.57644
307, 3, bw, attraction, a-b-db, 2, 1, 5, 23, 135, 60, 59, 134, 60, 135, 3, 0.679336
307, 3, bw, attraction, a-b-db, 2, 3, 5, 24, 119, 193, 195, 120, 120, 195, 2, 1.24169
307, 3, bw, attraction, a-b-db, 2, 3, 5, 24, 119, 193, 195, 120, 120, 195, 3, 1.3596
307, 3, bw, attraction, a-b-da, 2, 1, 5, 25, 134, 59, 60, 135, 135, 60, 2, 1.34158
307, 3, bw, attraction, a-b-da, 2, 1, 5, 25, 134, 59, 60, 135, 135, 60, 1, 0.734395
307, 3, bw, attraction, a-b-da, 14, 2, 5, 26, 165, 90, 90, 165, 153, 83, 2, 0.726861
307, 3, bw, attraction, a-b-da, 14, 2, 5, 26, 165, 90, 90, 165, 153, 83, 3, 2.77646
307, 3, bw, filler, NA, 999, 999, 5, 27, 180, 189, 166, 135, 130, 169, 1, 1.30225
307, 3, bw, filler, NA, 999, 999, 5, 27, 180, 189, 166, 135, 130, 169, 2, 2.25714
307, 3, bw, attraction, a-b-db, 9, 2, 5, 28, 165, 90, 90, 165, 86, 157, 1, 5.88382
307, 3, bw, attraction, a-b-db, 9, 2, 5, 28, 165, 90, 90, 165, 86, 157, 2, 0.65379
307, 3, bw, attraction, a-b-db, 14, 3, 5, 29, 195, 120, 111, 181, 120, 195, 2, 0.633584
307, 3, bw, attraction, a-b-db, 14, 3, 5, 29, 195, 120, 111, 181, 120, 195, 1, 0.663326
307, 3, bw, attraction, a-b-da, 9, 3, 5, 30, 195, 120, 186, 114, 120, 195, 2, 0.666445
307, 3, bw, attraction, a-b-da, 9, 3, 5, 30, 195, 120, 186, 114, 120, 195, 1, 0.542901
307, 3, bw, catch, NA, 999, 999, 5, 31, 153, 162, 66, 129, 158, 97, 1, 0.838623
307, 3, bw, catch, NA, 999, 999, 5, 31, 153, 162, 66, 129, 158, 97, 2, 1.01168
307, 3, bw, filler, NA, 999, 999, 5, 32, 79, 192, 118, 194, 121, 194, 2, 0.648639
307, 3, bw, filler, NA, 999, 999, 5, 32, 79, 192, 118, 194, 121, 194, 1, 0.421846
307, 3, bw, attraction, a-b-da, 14, 1, 5, 33, 135, 60, 125, 56, 60, 135, 3, 1.33107
307, 3, bw, attraction, a-b-da, 14, 1, 5, 33, 135, 60, 125, 56, 60, 135, 1, 0.884551
307, 3, bw, attraction, a-b-da, 9, 1, 5, 34, 129, 57, 60, 135, 135, 60, 2, 3.07876
307, 3, bw, attraction, a-b-da, 9, 1, 5, 34, 129, 57, 60, 135, 135, 60, 1, 0.521823
307, 3, bw, filler, NA, 999, 999, 5, 35, 112, 104, 79, 80, 98, 117, 3, 5.77091
307, 3, bw, filler, NA, 999, 999, 5, 35, 112, 104, 79, 80, 98, 117, 2, 0.569739
307, 3, bw, filler, NA, 999, 999, 5, 36, 166, 119, 195, 132, 96, 155, 2, 0.904943
307, 3, bw, filler, NA, 999, 999, 5, 36, 166, 119, 195, 132, 96, 155, 3, 0.803282
307, 3, bw, attraction, a-b-db, 14, 2, 5, 37, 90, 165, 165, 90, 83, 153, 2, 9.33691
307, 3, bw, attraction, a-b-db, 14, 2, 5, 37, 90, 165, 165, 90, 83, 153, 1, 0.599905
307, 3, bw, attraction, a-b-db, 2, 3, 6, 1, 119, 193, 120, 195, 195, 120, 2, 0.605716
307, 3, bw, attraction, a-b-db, 2, 3, 6, 1, 119, 193, 120, 195, 195, 120, 1, 0.468178
307, 3, bw, filler, NA, 999, 999, 6, 2, 178, 91, 85, 134, 162, 125, 3, 1.28723
307, 3, bw, filler, NA, 999, 999, 6, 2, 178, 91, 85, 134, 162, 125, 2, 0.538873
307, 3, bw, attraction, a-b-da, 2, 1, 6, 3, 135, 60, 134, 59, 60, 135, 3, 1.15531
307, 3, bw, attraction, a-b-da, 2, 1, 6, 3, 135, 60, 134, 59, 60, 135, 2, 0.987596
307, 3, bw, filler, NA, 999, 999, 6, 4, 96, 161, 112, 190, 142, 122, 2, 0.521815
307, 3, bw, filler, NA, 999, 999, 6, 4, 96, 161, 112, 190, 142, 122, 1, 1.37169
307, 3, bw, attraction, a-b-db, 5, 2, 6, 5, 165, 90, 88, 161, 90, 165, 3, 1.90648
307, 3, bw, attraction, a-b-db, 5, 2, 6, 5, 165, 90, 88, 161, 90, 165, 2, 0.588612
307, 3, bw, attraction, a-b-da, 5, 2, 6, 6, 90, 165, 161, 88, 165, 90, 3, 2.22703
307, 3, bw, attraction, a-b-da, 5, 2, 6, 6, 90, 165, 161, 88, 165, 90, 2, 0.904292
307, 3, bw, filler, NA, 999, 999, 6, 7, 175, 140, 86, 162, 121, 144, 1, 0.553904
307, 3, bw, filler, NA, 999, 999, 6, 7, 175, 140, 86, 162, 121, 144, 2, 0.55504
307, 3, bw, attraction, a-b-db, 14, 3, 6, 8, 111, 181, 120, 195, 195, 120, 2, 0.73877
307, 3, bw, attraction, a-b-db, 14, 3, 6, 8, 111, 181, 120, 195, 195, 120, 1, 0.419867
307, 3, bw, filler, NA, 999, 999, 6, 9, 106, 97, 119, 89, 131, 62, 2, 0.833029
307, 3, bw, filler, NA, 999, 999, 6, 9, 106, 97, 119, 89, 131, 62, 3, 1.59078
307, 3, bw, attraction, a-b-da, 5, 1, 6, 10, 135, 60, 60, 135, 132, 58, 2, 0.9722
307, 3, bw, attraction, a-b-da, 5, 1, 6, 10, 135, 60, 60, 135, 132, 58, 1, 0.419801
307, 3, bw, filler, NA, 999, 999, 6, 11, 85, 75, 114, 151, 154, 107, 2, 0.51298
307, 3, bw, filler, NA, 999, 999, 6, 11, 85, 75, 114, 151, 154, 107, 1, 0.531552
307, 3, bw, attraction, a-b-da, 5, 3, 6, 12, 190, 117, 195, 120, 120, 195, 3, 3.10802
307, 3, bw, attraction, a-b-da, 5, 3, 6, 12, 190, 117, 195, 120, 120, 195, 2, 1.1656
307, 3, bw, catch, NA, 999, 999, 6, 13, 165, 90, 186, 129, 131, 64, 2, 0.420556
307, 3, bw, catch, NA, 999, 999, 6, 13, 165, 90, 186, 129, 131, 64, 3, 0.395037
307, 3, bw, attraction, a-b-da, 2, 3, 6, 14, 120, 195, 195, 120, 193, 119, 1, 1.75281
307, 3, bw, attraction, a-b-da, 2, 3, 6, 14, 120, 195, 195, 120, 193, 119, 2, 0.593577
307, 3, bw, catch, NA, 999, 999, 6, 15, 152, 103, 80, 115, 127, 188, 3, 0.719373
307, 3, bw, catch, NA, 999, 999, 6, 15, 152, 103, 80, 115, 127, 188, 2, 0.601794
307, 3, bw, attraction, a-b-db, 2, 1, 6, 16, 60, 135, 59, 134, 135, 60, 1, 5.59968
307, 3, bw, attraction, a-b-db, 2, 1, 6, 16, 60, 135, 59, 134, 135, 60, 2, 2.70916
307, 3, bw, attraction, a-b-db, 9, 1, 6, 17, 135, 60, 57, 129, 60, 135, 2, 1.39757
307, 3, bw, attraction, a-b-db, 9, 1, 6, 17, 135, 60, 57, 129, 60, 135, 3, 0.644383
307, 3, bw, attraction, a-b-db, 9, 3, 6, 18, 195, 120, 114, 186, 120, 195, 1, 1.43207
307, 3, bw, attraction, a-b-db, 9, 3, 6, 18, 195, 120, 114, 186, 120, 195, 2, 0.629622
307, 3, bw, attraction, a-b-db, 5, 1, 6, 19, 60, 135, 135, 60, 58, 132, 2, 1.50611
307, 3, bw, attraction, a-b-db, 5, 1, 6, 19, 60, 135, 135, 60, 58, 132, 3, 0.628301
307, 3, bw, attraction, a-b-db, 14, 1, 6, 20, 135, 60, 56, 125, 60, 135, 1, 2.52873
307, 3, bw, attraction, a-b-db, 14, 1, 6, 20, 135, 60, 56, 125, 60, 135, 2, 0.473855
307, 3, bw, attraction, a-b-da, 2, 2, 6, 21, 165, 90, 163, 89, 90, 165, 2, 0.844288
307, 3, bw, attraction, a-b-da, 2, 2, 6, 21, 165, 90, 163, 89, 90, 165, 3, 0.697338
307, 3, bw, filler, NA, 999, 999, 6, 22, 123, 86, 69, 87, 99, 63, 1, 1.25907
307, 3, bw, filler, NA, 999, 999, 6, 22, 123, 86, 69, 87, 99, 63, 2, 0.679418
307, 3, bw, filler, NA, 999, 999, 6, 23, 60, 112, 160, 138, 60, 138, 2, 0.569705
307, 3, bw, filler, NA, 999, 999, 6, 23, 60, 112, 160, 138, 60, 138, 1, 0.418149
307, 3, bw, filler, NA, 999, 999, 6, 24, 97, 189, 112, 106, 115, 119, 1, 1.2154
307, 3, bw, filler, NA, 999, 999, 6, 24, 97, 189, 112, 106, 115, 119, 2, 0.533522
307, 3, bw, filler, NA, 999, 999, 6, 25, 58, 130, 67, 108, 86, 109, 1, 2.92598
307, 3, bw, filler, NA, 999, 999, 6, 25, 58, 130, 67, 108, 86, 109, 2, 0.583054
307, 3, bw, attraction, a-b-da, 9, 2, 6, 26, 165, 90, 90, 165, 157, 86, 2, 2.46152
307, 3, bw, attraction, a-b-da, 9, 2, 6, 26, 165, 90, 90, 165, 157, 86, 1, 1.02536
307, 3, bw, attraction, a-b-db, 9, 2, 6, 27, 86, 157, 165, 90, 90, 165, 3, 1.55761
307, 3, bw, attraction, a-b-db, 9, 2, 6, 27, 86, 157, 165, 90, 90, 165, 2, 0.501801
307, 3, bw, attraction, a-b-db, 5, 3, 6, 28, 117, 190, 120, 195, 195, 120, 2, 0.703696
307, 3, bw, attraction, a-b-db, 5, 3, 6, 28, 117, 190, 120, 195, 195, 120, 1, 0.738627
307, 3, bw, attraction, a-b-da, 14, 3, 6, 29, 195, 120, 120, 195, 181, 111, 2, 0.827029
307, 3, bw, attraction, a-b-da, 14, 3, 6, 29, 195, 120, 120, 195, 181, 111, 3, 0.568815
307, 3, bw, attraction, a-b-db, 2, 2, 6, 30, 90, 165, 165, 90, 89, 163, 2, 1.46384
307, 3, bw, attraction, a-b-db, 2, 2, 6, 30, 90, 165, 165, 90, 89, 163, 1, 0.348044
307, 3, bw, catch, NA, 999, 999, 6, 31, 192, 123, 143, 112, 109, 86, 1, 1.67585
307, 3, bw, catch, NA, 999, 999, 6, 31, 192, 123, 143, 112, 109, 86, 3, 1.4714
307, 3, bw, attraction, a-b-da, 9, 3, 6, 32, 120, 195, 195, 120, 186, 114, 2, 0.786183
307, 3, bw, attraction, a-b-da, 9, 3, 6, 32, 120, 195, 195, 120, 186, 114, 1, 0.874027
307, 3, bw, attraction, a-b-da, 9, 1, 6, 33, 135, 60, 129, 57, 60, 135, 3, 1.07617
307, 3, bw, attraction, a-b-da, 9, 1, 6, 33, 135, 60, 129, 57, 60, 135, 2, 0.51984
307, 3, bw, attraction, a-b-db, 14, 2, 6, 34, 83, 153, 165, 90, 90, 165, 3, 2.889
307, 3, bw, attraction, a-b-db, 14, 2, 6, 34, 83, 153, 165, 90, 90, 165, 1, 1.22735
307, 3, bw, filler, NA, 999, 999, 6, 35, 124, 188, 177, 100, 171, 75, 1, 0.719594
307, 3, bw, filler, NA, 999, 999, 6, 35, 124, 188, 177, 100, 171, 75, 3, 0.962033
307, 3, bw, attraction, a-b-da, 14, 2, 6, 36, 90, 165, 153, 83, 165, 90, 3, 1.13693
307, 3, bw, attraction, a-b-da, 14, 2, 6, 36, 90, 165, 153, 83, 165, 90, 2, 1.68258
307, 3, bw, attraction, a-b-da, 14, 1, 6, 37, 135, 60, 60, 135, 125, 56, 2, 3.02066
307, 3, bw, attraction, a-b-da, 14, 1, 6, 37, 135, 60, 60, 135, 125, 56, 1, 0.858453
307, 3, bw, attraction, a-b-da, 2, 3, 7, 1, 195, 120, 120, 195, 193, 119, 1, 1.86941
307, 3, bw, attraction, a-b-da, 2, 3, 7, 1, 195, 120, 120, 195, 193, 119, 3, 3.05746
307, 3, bw, filler, NA, 999, 999, 7, 2, 142, 160, 162, 131, 130, 86, 1, 1.93184
307, 3, bw, filler, NA, 999, 999, 7, 2, 142, 160, 162, 131, 130, 86, 3, 0.789212
307, 3, bw, filler, NA, 999, 999, 7, 3, 111, 120, 128, 151, 180, 91, 2, 1.34751
307, 3, bw, filler, NA, 999, 999, 7, 3, 111, 120, 128, 151, 180, 91, 1, 1.24438
307, 3, bw, attraction, a-b-da, 9, 3, 7, 4, 120, 195, 195, 120, 186, 114, 2, 1.43987
307, 3, bw, attraction, a-b-da, 9, 3, 7, 4, 120, 195, 195, 120, 186, 114, 3, 3.13287
307, 3, bw, filler, NA, 999, 999, 7, 5, 125, 62, 185, 109, 56, 136, 2, 0.676354
307, 3, bw, filler, NA, 999, 999, 7, 5, 125, 62, 185, 109, 56, 136, 1, 0.448117
307, 3, bw, attraction, a-b-db, 14, 2, 7, 6, 165, 90, 83, 153, 90, 165, 3, 1.8279
307, 3, bw, attraction, a-b-db, 14, 2, 7, 6, 165, 90, 83, 153, 90, 165, 1, 0.681345
307, 3, bw, attraction, a-b-db, 2, 1, 7, 7, 59, 134, 135, 60, 60, 135, 1, 1.63586
307, 3, bw, attraction, a-b-db, 2, 1, 7, 7, 59, 134, 135, 60, 60, 135, 2, 1.01719
307, 3, bw, attraction, a-b-db, 5, 1, 7, 8, 135, 60, 58, 132, 60, 135, 1, 1.08614
307, 3, bw, attraction, a-b-db, 5, 1, 7, 8, 135, 60, 58, 132, 60, 135, 2, 0.521883
307, 3, bw, filler, NA, 999, 999, 7, 9, 189, 86, 164, 101, 162, 92, 2, 0.531034
307, 3, bw, filler, NA, 999, 999, 7, 9, 189, 86, 164, 101, 162, 92, 1, 0.372702
307, 3, bw, attraction, a-b-db, 2, 2, 7, 10, 90, 165, 165, 90, 89, 163, 3, 2.54809
307, 3, bw, attraction, a-b-db, 2, 2, 7, 10, 90, 165, 165, 90, 89, 163, 2, 0.460469
307, 3, bw, filler, NA, 999, 999, 7, 11, 130, 188, 123, 141, 97, 140, 1, 0.703542
307, 3, bw, filler, NA, 999, 999, 7, 11, 130, 188, 123, 141, 97, 140, 3, 0.85079
307, 3, bw, filler, NA, 999, 999, 7, 12, 95, 116, 130, 147, 192, 140, 3, 1.0143
307, 3, bw, filler, NA, 999, 999, 7, 12, 95, 116, 130, 147, 192, 140, 1, 0.396602
307, 3, bw, attraction, a-b-da, 14, 2, 7, 13, 153, 83, 165, 90, 90, 165, 3, 2.73855
307, 3, bw, attraction, a-b-da, 14, 2, 7, 13, 153, 83, 165, 90, 90, 165, 1, 0.490953
307, 3, bw, filler, NA, 999, 999, 7, 14, 101, 101, 125, 78, 134, 169, 3, 0.700674
307, 3, bw, filler, NA, 999, 999, 7, 14, 101, 101, 125, 78, 134, 169, 2, 0.799713
307, 3, bw, attraction, a-b-db, 5, 3, 7, 15, 195, 120, 120, 195, 117, 190, 2, 0.541522
307, 3, bw, attraction, a-b-db, 5, 3, 7, 15, 195, 120, 120, 195, 117, 190, 1, 0.550583
307, 3, bw, attraction, a-b-da, 14, 1, 7, 16, 135, 60, 60, 135, 125, 56, 2, 1.39833
307, 3, bw, attraction, a-b-da, 14, 1, 7, 16, 135, 60, 60, 135, 125, 56, 3, 0.637329
307, 3, bw, attraction, a-b-db, 2, 3, 7, 17, 120, 195, 119, 193, 195, 120, 1, 1.16965
307, 3, bw, attraction, a-b-db, 2, 3, 7, 17, 120, 195, 119, 193, 195, 120, 2, 0.410051
307, 3, bw, attraction, a-b-da, 9, 2, 7, 18, 157, 86, 90, 165, 165, 90, 3, 0.791075
307, 3, bw, attraction, a-b-da, 9, 2, 7, 18, 157, 86, 90, 165, 165, 90, 1, 0.566081
307, 3, bw, attraction, a-b-db, 9, 3, 7, 19, 120, 195, 195, 120, 114, 186, 1, 1.54924
307, 3, bw, attraction, a-b-db, 9, 3, 7, 19, 120, 195, 195, 120, 114, 186, 2, 0.654069
307, 3, bw, attraction, a-b-da, 2, 2, 7, 20, 165, 90, 163, 89, 90, 165, 2, 6.3058
307, 3, bw, attraction, a-b-da, 2, 2, 7, 20, 165, 90, 163, 89, 90, 165, 3, 0.562546
307, 3, bw, attraction, a-b-db, 9, 1, 7, 21, 60, 135, 135, 60, 57, 129, 1, 1.06558
307, 3, bw, attraction, a-b-db, 9, 1, 7, 21, 60, 135, 135, 60, 57, 129, 2, 0.605912
307, 3, bw, attraction, a-b-da, 14, 3, 7, 22, 181, 111, 195, 120, 120, 195, 2, 0.771596
307, 3, bw, attraction, a-b-da, 14, 3, 7, 22, 181, 111, 195, 120, 120, 195, 1, 0.491336
307, 3, bw, catch, NA, 999, 999, 7, 23, 70, 125, 138, 177, 115, 140, 2, 0.653147
307, 3, bw, catch, NA, 999, 999, 7, 23, 70, 125, 138, 177, 115, 140, 1, 0.850225
307, 3, bw, attraction, a-b-db, 14, 3, 7, 24, 111, 181, 120, 195, 195, 120, 2, 0.718012
307, 3, bw, attraction, a-b-db, 14, 3, 7, 24, 111, 181, 120, 195, 195, 120, 1, 0.89634
307, 3, bw, catch, NA, 999, 999, 7, 25, 119, 136, 126, 189, 60, 135, 2, 0.626013
307, 3, bw, catch, NA, 999, 999, 7, 25, 119, 136, 126, 189, 60, 135, 3, 0.567796
307, 3, bw, attraction, a-b-db, 9, 2, 7, 26, 165, 90, 90, 165, 86, 157, 1, 1.1269
307, 3, bw, attraction, a-b-db, 9, 2, 7, 26, 165, 90, 90, 165, 86, 157, 2, 2.72852
307, 3, bw, attraction, a-b-db, 5, 2, 7, 27, 88, 161, 165, 90, 90, 165, 3, 2.05625
307, 3, bw, attraction, a-b-db, 5, 2, 7, 27, 88, 161, 165, 90, 90, 165, 2, 0.716259
307, 3, bw, attraction, a-b-da, 5, 3, 7, 28, 190, 117, 195, 120, 120, 195, 2, 0.805353
307, 3, bw, attraction, a-b-da, 5, 3, 7, 28, 190, 117, 195, 120, 120, 195, 1, 0.435665
307, 3, bw, attraction, a-b-da, 5, 2, 7, 29, 165, 90, 90, 165, 161, 88, 2, 3.33621
307, 3, bw, attraction, a-b-da, 5, 2, 7, 29, 165, 90, 90, 165, 161, 88, 3, 1.19322
307, 3, bw, filler, NA, 999, 999, 7, 30, 109, 104, 142, 161, 183, 112, 2, 0.462666
307, 3, bw, filler, NA, 999, 999, 7, 30, 109, 104, 142, 161, 183, 112, 1, 0.33924
307, 3, bw, attraction, a-b-da, 5, 1, 7, 31, 60, 135, 132, 58, 135, 60, 3, 0.99571
307, 3, bw, attraction, a-b-da, 5, 1, 7, 31, 60, 135, 132, 58, 135, 60, 2, 0.946699
307, 3, bw, filler, NA, 999, 999, 7, 32, 75, 167, 159, 94, 172, 160, 3, 1.2343
307, 3, bw, filler, NA, 999, 999, 7, 32, 75, 167, 159, 94, 172, 160, 1, 0.831869
307, 3, bw, catch, NA, 999, 999, 7, 33, 154, 101, 187, 128, 107, 88, 2, 0.564299
307, 3, bw, catch, NA, 999, 999, 7, 33, 154, 101, 187, 128, 107, 88, 3, 0.604761
307, 3, bw, attraction, a-b-da, 9, 1, 7, 34, 129, 57, 60, 135, 135, 60, 2, 1.01855
307, 3, bw, attraction, a-b-da, 9, 1, 7, 34, 129, 57, 60, 135, 135, 60, 1, 0.624798
307, 3, bw, attraction, a-b-da, 2, 1, 7, 35, 134, 59, 135, 60, 60, 135, 1, 1.75718
307, 3, bw, attraction, a-b-da, 2, 1, 7, 35, 134, 59, 135, 60, 60, 135, 2, 0.637377
307, 3, bw, attraction, a-b-db, 14, 1, 7, 36, 135, 60, 56, 125, 60, 135, 3, 1.30574
307, 3, bw, attraction, a-b-db, 14, 1, 7, 36, 135, 60, 56, 125, 60, 135, 1, 0.91594
307, 3, bw, filler, NA, 999, 999, 7, 37, 136, 182, 112, 68, 89, 166, 1, 0.924874
307, 3, bw, filler, NA, 999, 999, 7, 37, 136, 182, 112, 68, 89, 166, 2, 0.454697
307, 3, bw, attraction, a-b-da, 9, 3, 8, 1, 120, 195, 186, 114, 195, 120, 2, 0.674405
307, 3, bw, attraction, a-b-da, 9, 3, 8, 1, 120, 195, 186, 114, 195, 120, 3, 3.03825
307, 3, bw, attraction, a-b-db, 5, 2, 8, 2, 90, 165, 165, 90, 88, 161, 1, 1.16986
307, 3, bw, attraction, a-b-db, 5, 2, 8, 2, 90, 165, 165, 90, 88, 161, 2, 0.498142
307, 3, bw, attraction, a-b-db, 2, 2, 8, 3, 90, 165, 89, 163, 165, 90, 1, 1.57188
307, 3, bw, attraction, a-b-db, 2, 2, 8, 3, 90, 165, 89, 163, 165, 90, 2, 0.683302
307, 3, bw, attraction, a-b-da, 9, 1, 8, 4, 135, 60, 129, 57, 60, 135, 3, 1.90176
307, 3, bw, attraction, a-b-da, 9, 1, 8, 4, 135, 60, 129, 57, 60, 135, 1, 0.640482
307, 3, bw, catch, NA, 999, 999, 8, 5, 119, 136, 172, 143, 87, 108, 2, 1.00419
307, 3, bw, catch, NA, 999, 999, 8, 5, 119, 136, 172, 143, 87, 108, 3, 0.515261
307, 3, bw, attraction, a-b-db, 9, 1, 8, 6, 135, 60, 57, 129, 60, 135, 1, 1.26028
307, 3, bw, attraction, a-b-db, 9, 1, 8, 6, 135, 60, 57, 129, 60, 135, 2, 0.488559
307, 3, bw, attraction, a-b-db, 5, 1, 8, 7, 60, 135, 135, 60, 58, 132, 2, 1.91506
307, 3, bw, attraction, a-b-db, 5, 1, 8, 7, 60, 135, 135, 60, 58, 132, 1, 1.02105
307, 3, bw, attraction, a-b-db, 2, 3, 8, 8, 119, 193, 120, 195, 195, 120, 2, 3.6261
307, 3, bw, attraction, a-b-db, 2, 3, 8, 8, 119, 193, 120, 195, 195, 120, 1, 0.943013
307, 3, bw, attraction, a-b-da, 14, 2, 8, 9, 153, 83, 165, 90, 90, 165, 2, 8.92643
307, 3, bw, attraction, a-b-da, 14, 2, 8, 9, 153, 83, 165, 90, 90, 165, 1, 0.469676
307, 3, bw, attraction, a-b-db, 2, 1, 8, 10, 60, 135, 59, 134, 135, 60, 2, 1.59285
307, 3, bw, attraction, a-b-db, 2, 1, 8, 10, 60, 135, 59, 134, 135, 60, 1, 0.815616
307, 3, bw, attraction, a-b-db, 5, 3, 8, 11, 195, 120, 120, 195, 117, 190, 2, 1.58069
307, 3, bw, attraction, a-b-db, 5, 3, 8, 11, 195, 120, 120, 195, 117, 190, 3, 0.444171
307, 3, bw, filler, NA, 999, 999, 8, 12, 186, 78, 113, 169, 138, 152, 3, 2.22387
307, 3, bw, filler, NA, 999, 999, 8, 12, 186, 78, 113, 169, 138, 152, 1, 0.573215
307, 3, bw, filler, NA, 999, 999, 8, 13, 64, 177, 130, 63, 104, 150, 3, 1.16366
307, 3, bw, filler, NA, 999, 999, 8, 13, 64, 177, 130, 63, 104, 150, 2, 0.55602
307, 3, bw, attraction, a-b-da, 5, 1, 8, 14, 132, 58, 135, 60, 60, 135, 2, 2.03562
307, 3, bw, attraction, a-b-da, 5, 1, 8, 14, 132, 58, 135, 60, 60, 135, 1, 0.537093
307, 3, bw, filler, NA, 999, 999, 8, 15, 71, 116, 193, 97, 63, 190, 2, 0.513567
307, 3, bw, filler, NA, 999, 999, 8, 15, 71, 116, 193, 97, 63, 190, 1, 0.611921
307, 3, bw, catch, NA, 999, 999, 8, 16, 129, 126, 82, 113, 121, 194, 3, 1.10506
307, 3, bw, catch, NA, 999, 999, 8, 16, 129, 126, 82, 113, 121, 194, 2, 0.403332
307, 3, bw, filler, NA, 999, 999, 8, 17, 85, 107, 106, 99, 143, 192, 3, 0.657078
307, 3, bw, filler, NA, 999, 999, 8, 17, 85, 107, 106, 99, 143, 192, 1, 0.661581
307, 3, bw, attraction, a-b-da, 5, 3, 8, 18, 190, 117, 195, 120, 120, 195, 3, 1.39268
307, 3, bw, attraction, a-b-da, 5, 3, 8, 18, 190, 117, 195, 120, 120, 195, 2, 0.591641
307, 3, bw, filler, NA, 999, 999, 8, 19, 64, 90, 99, 160, 112, 173, 2, 0.653262
307, 3, bw, filler, NA, 999, 999, 8, 19, 64, 90, 99, 160, 112, 173, 1, 0.594361
307, 3, bw, filler, NA, 999, 999, 8, 20, 101, 153, 88, 112, 58, 71, 1, 0.816151
307, 3, bw, filler, NA, 999, 999, 8, 20, 101, 153, 88, 112, 58, 71, 3, 0.494552
307, 3, bw, attraction, a-b-db, 14, 2, 8, 21, 90, 165, 165, 90, 83, 153, 2, 0.576235
307, 3, bw, attraction, a-b-db, 14, 2, 8, 21, 90, 165, 165, 90, 83, 153, 1, 1.33605
307, 3, bw, attraction, a-b-da, 14, 1, 8, 22, 135, 60, 60, 135, 125, 56, 2, 0.568319
307, 3, bw, attraction, a-b-da, 14, 1, 8, 22, 135, 60, 60, 135, 125, 56, 3, 0.55268
307, 3, bw, attraction, a-b-da, 5, 2, 8, 23, 90, 165, 165, 90, 161, 88, 1, 1.00856
307, 3, bw, attraction, a-b-da, 5, 2, 8, 23, 90, 165, 165, 90, 161, 88, 3, 0.638921
307, 3, bw, attraction, a-b-db, 9, 3, 8, 24, 120, 195, 195, 120, 114, 186, 1, 1.10718
307, 3, bw, attraction, a-b-db, 9, 3, 8, 24, 120, 195, 195, 120, 114, 186, 2, 0.429546
307, 3, bw, catch, NA, 999, 999, 8, 25, 132, 63, 109, 146, 188, 127, 3, 1.18599
307, 3, bw, catch, NA, 999, 999, 8, 25, 132, 63, 109, 146, 188, 127, 1, 0.721677
307, 3, bw, attraction, a-b-db, 14, 1, 8, 26, 56, 125, 135, 60, 60, 135, 2, 1.41861
307, 3, bw, attraction, a-b-db, 14, 1, 8, 26, 56, 125, 135, 60, 60, 135, 1, 0.720901
307, 3, bw, attraction, a-b-da, 9, 2, 8, 27, 157, 86, 90, 165, 165, 90, 2, 2.19399
307, 3, bw, attraction, a-b-da, 9, 2, 8, 27, 157, 86, 90, 165, 165, 90, 1, 0.680598
307, 3, bw, attraction, a-b-da, 14, 3, 8, 28, 181, 111, 195, 120, 120, 195, 1, 1.82686
307, 3, bw, attraction, a-b-da, 14, 3, 8, 28, 181, 111, 195, 120, 120, 195, 2, 0.592279
307, 3, bw, attraction, a-b-db, 9, 2, 8, 29, 86, 157, 90, 165, 165, 90, 1, 1.25405
307, 3, bw, attraction, a-b-db, 9, 2, 8, 29, 86, 157, 90, 165, 165, 90, 2, 0.675017
307, 3, bw, filler, NA, 999, 999, 8, 30, 109, 130, 113, 173, 168, 159, 3, 0.909418
307, 3, bw, filler, NA, 999, 999, 8, 30, 109, 130, 113, 173, 168, 159, 1, 0.583793
307, 3, bw, attraction, a-b-db, 14, 3, 8, 31, 111, 181, 195, 120, 120, 195, 3, 0.750163
307, 3, bw, attraction, a-b-db, 14, 3, 8, 31, 111, 181, 195, 120, 120, 195, 2, 0.967221
307, 3, bw, attraction, a-b-da, 2, 2, 8, 32, 90, 165, 165, 90, 163, 89, 1, 0.998107
307, 3, bw, attraction, a-b-da, 2, 2, 8, 32, 90, 165, 165, 90, 163, 89, 2, 0.901172
307, 3, bw, attraction, a-b-da, 2, 1, 8, 33, 60, 135, 134, 59, 135, 60, 2, 1.05494
307, 3, bw, attraction, a-b-da, 2, 1, 8, 33, 60, 135, 134, 59, 135, 60, 1, 0.971945
307, 3, bw, attraction, a-b-da, 2, 3, 8, 34, 193, 119, 120, 195, 195, 120, 2, 1.97077
307, 3, bw, attraction, a-b-da, 2, 3, 8, 34, 193, 119, 120, 195, 195, 120, 1, 0.77884
307, 3, bw, filler, NA, 999, 999, 8, 35, 179, 124, 153, 105, 108, 93, 1, 0.809141
307, 3, bw, filler, NA, 999, 999, 8, 35, 179, 124, 153, 105, 108, 93, 3, 0.439724
307, 3, bw, filler, NA, 999, 999, 8, 36, 105, 159, 192, 143, 177, 147, 2, 2.53207
307, 3, bw, filler, NA, 999, 999, 8, 36, 105, 159, 192, 143, 177, 147, 1, 0.381367
307, 3, bw, filler, NA, 999, 999, 8, 37, 154, 135, 173, 68, 178, 189, 3, 0.915816
307, 3, bw, filler, NA, 999, 999, 8, 37, 154, 135, 173, 68, 178, 189, 2, 1.09423
