sub_n, computer_n, bw_cond, effect, set, distance, diag, block_n, trial_n, h1, w1, h2, w2, h3, w3, choice, rt 
387, 3, bw, practice, NA, 999, 999, 0, 1, 82, 183, 64, 161, 195, 138, 3, 2.87007
387, 3, bw, practice, NA, 999, 999, 0, 1, 82, 183, 64, 161, 195, 138, 2, 2.25826
387, 3, bw, practice, NA, 999, 999, 0, 2, 92, 129, 70, 154, 117, 110, 1, 5.48259
387, 3, bw, practice, NA, 999, 999, 0, 2, 92, 129, 70, 154, 117, 110, 2, 1.9977
387, 3, bw, practice, NA, 999, 999, 0, 3, 137, 100, 191, 96, 118, 58, 2, 2.36787
387, 3, bw, practice, NA, 999, 999, 0, 3, 137, 100, 191, 96, 118, 58, 3, 1.10325
387, 3, bw, attraction, a-b-db, 9, 2, 1, 1, 86, 157, 90, 165, 165, 90, 3, 4.28329
387, 3, bw, attraction, a-b-db, 9, 2, 1, 1, 86, 157, 90, 165, 165, 90, 1, 1.49381
387, 3, bw, attraction, a-b-db, 5, 1, 1, 2, 135, 60, 60, 135, 58, 132, 2, 3.05531
387, 3, bw, attraction, a-b-db, 5, 1, 1, 2, 135, 60, 60, 135, 58, 132, 3, 1.755
387, 3, bw, attraction, a-b-db, 2, 2, 1, 3, 89, 163, 165, 90, 90, 165, 3, 2.80239
387, 3, bw, attraction, a-b-db, 2, 2, 1, 3, 89, 163, 165, 90, 90, 165, 2, 1.32877
387, 3, bw, catch, NA, 999, 999, 1, 4, 99, 156, 135, 60, 121, 194, 3, 1.36892
387, 3, bw, catch, NA, 999, 999, 1, 4, 99, 156, 135, 60, 121, 194, 2, 0.601547
387, 3, bw, filler, NA, 999, 999, 1, 5, 80, 146, 130, 63, 92, 131, 3, 1.81502
387, 3, bw, filler, NA, 999, 999, 1, 5, 80, 146, 130, 63, 92, 131, 2, 0.917032
387, 3, bw, filler, NA, 999, 999, 1, 6, 61, 107, 95, 143, 69, 189, 3, 2.34197
387, 3, bw, filler, NA, 999, 999, 1, 6, 61, 107, 95, 143, 69, 189, 1, 0.710581
387, 3, bw, attraction, a-b-da, 2, 2, 1, 7, 165, 90, 163, 89, 90, 165, 1, 2.48759
387, 3, bw, attraction, a-b-da, 2, 2, 1, 7, 165, 90, 163, 89, 90, 165, 2, 0.746851
387, 3, bw, attraction, a-b-da, 5, 2, 1, 8, 165, 90, 90, 165, 161, 88, 2, 1.83452
387, 3, bw, attraction, a-b-da, 5, 2, 1, 8, 165, 90, 90, 165, 161, 88, 3, 0.639998
387, 3, bw, attraction, a-b-da, 2, 1, 1, 9, 134, 59, 135, 60, 60, 135, 3, 1.44365
387, 3, bw, attraction, a-b-da, 2, 1, 1, 9, 134, 59, 135, 60, 60, 135, 2, 1.48851
387, 3, bw, filler, NA, 999, 999, 1, 10, 142, 115, 139, 182, 120, 118, 2, 1.21866
387, 3, bw, filler, NA, 999, 999, 1, 10, 142, 115, 139, 182, 120, 118, 3, 1.01694
387, 3, bw, attraction, a-b-db, 2, 1, 1, 11, 135, 60, 60, 135, 59, 134, 2, 2.43788
387, 3, bw, attraction, a-b-db, 2, 1, 1, 11, 135, 60, 60, 135, 59, 134, 1, 0.995048
387, 3, bw, filler, NA, 999, 999, 1, 12, 169, 168, 128, 63, 80, 129, 1, 0.856712
387, 3, bw, filler, NA, 999, 999, 1, 12, 169, 168, 128, 63, 80, 129, 2, 0.80504
387, 3, bw, attraction, a-b-da, 2, 3, 1, 13, 193, 119, 195, 120, 120, 195, 3, 2.40285
387, 3, bw, attraction, a-b-da, 2, 3, 1, 13, 193, 119, 195, 120, 120, 195, 1, 1.32139
387, 3, bw, catch, NA, 999, 999, 1, 14, 102, 153, 125, 190, 115, 80, 2, 0.946257
387, 3, bw, catch, NA, 999, 999, 1, 14, 102, 153, 125, 190, 115, 80, 3, 0.923201
387, 3, bw, filler, NA, 999, 999, 1, 15, 67, 72, 108, 122, 115, 83, 2, 1.37215
387, 3, bw, filler, NA, 999, 999, 1, 15, 67, 72, 108, 122, 115, 83, 1, 0.699725
387, 3, bw, attraction, a-b-db, 9, 3, 1, 16, 195, 120, 114, 186, 120, 195, 1, 1.78951
387, 3, bw, attraction, a-b-db, 9, 3, 1, 16, 195, 120, 114, 186, 120, 195, 2, 0.460252
387, 3, bw, attraction, a-b-db, 9, 1, 1, 17, 60, 135, 135, 60, 57, 129, 1, 1.84732
387, 3, bw, attraction, a-b-db, 9, 1, 1, 17, 60, 135, 135, 60, 57, 129, 2, 0.508088
387, 3, bw, attraction, a-b-da, 5, 1, 1, 18, 60, 135, 135, 60, 132, 58, 1, 1.99715
387, 3, bw, attraction, a-b-da, 5, 1, 1, 18, 60, 135, 135, 60, 132, 58, 2, 0.827911
387, 3, bw, filler, NA, 999, 999, 1, 19, 182, 176, 153, 74, 114, 161, 1, 0.696152
387, 3, bw, filler, NA, 999, 999, 1, 19, 182, 176, 153, 74, 114, 161, 2, 0.71532
387, 3, bw, attraction, a-b-da, 14, 1, 1, 20, 60, 135, 125, 56, 135, 60, 3, 1.09246
387, 3, bw, attraction, a-b-da, 14, 1, 1, 20, 60, 135, 125, 56, 135, 60, 2, 0.49539
387, 3, bw, attraction, a-b-db, 5, 3, 1, 21, 117, 190, 195, 120, 120, 195, 3, 2.60121
387, 3, bw, attraction, a-b-db, 5, 3, 1, 21, 117, 190, 195, 120, 120, 195, 2, 0.519696
387, 3, bw, filler, NA, 999, 999, 1, 22, 140, 67, 147, 73, 159, 128, 3, 0.696885
387, 3, bw, filler, NA, 999, 999, 1, 22, 140, 67, 147, 73, 159, 128, 2, 0.875837
387, 3, bw, catch, NA, 999, 999, 1, 23, 103, 152, 137, 178, 107, 88, 2, 1.08616
387, 3, bw, catch, NA, 999, 999, 1, 23, 103, 152, 137, 178, 107, 88, 3, 0.625835
387, 3, bw, attraction, a-b-da, 14, 3, 1, 24, 195, 120, 181, 111, 120, 195, 1, 1.23815
387, 3, bw, attraction, a-b-da, 14, 3, 1, 24, 195, 120, 181, 111, 120, 195, 2, 0.987133
387, 3, bw, filler, NA, 999, 999, 1, 25, 195, 122, 76, 89, 125, 71, 1, 0.70543
387, 3, bw, filler, NA, 999, 999, 1, 25, 195, 122, 76, 89, 125, 71, 2, 0.603795
387, 3, bw, attraction, a-b-da, 9, 1, 1, 26, 135, 60, 60, 135, 129, 57, 3, 1.00155
387, 3, bw, attraction, a-b-da, 9, 1, 1, 26, 135, 60, 60, 135, 129, 57, 1, 2.75265
387, 3, bw, filler, NA, 999, 999, 1, 27, 171, 118, 188, 129, 124, 107, 2, 0.559652
387, 3, bw, filler, NA, 999, 999, 1, 27, 171, 118, 188, 129, 124, 107, 3, 0.488185
387, 3, bw, attraction, a-b-da, 14, 2, 1, 28, 165, 90, 90, 165, 153, 83, 3, 0.786614
387, 3, bw, attraction, a-b-da, 14, 2, 1, 28, 165, 90, 90, 165, 153, 83, 2, 0.826301
387, 3, bw, attraction, a-b-db, 14, 3, 1, 29, 111, 181, 120, 195, 195, 120, 3, 0.894738
387, 3, bw, attraction, a-b-db, 14, 3, 1, 29, 111, 181, 120, 195, 195, 120, 1, 0.497702
387, 3, bw, filler, NA, 999, 999, 1, 30, 184, 79, 85, 180, 78, 56, 1, 2.45146
387, 3, bw, filler, NA, 999, 999, 1, 30, 184, 79, 85, 180, 78, 56, 3, 0.864055
387, 3, bw, attraction, a-b-db, 2, 3, 1, 31, 119, 193, 120, 195, 195, 120, 3, 0.827018
387, 3, bw, attraction, a-b-db, 2, 3, 1, 31, 119, 193, 120, 195, 195, 120, 2, 0.768699
387, 3, bw, attraction, a-b-da, 5, 3, 1, 32, 190, 117, 195, 120, 120, 195, 2, 3.52783
387, 3, bw, attraction, a-b-da, 5, 3, 1, 32, 190, 117, 195, 120, 120, 195, 3, 0.472641
387, 3, bw, attraction, a-b-db, 14, 2, 1, 33, 90, 165, 83, 153, 165, 90, 3, 0.939863
387, 3, bw, attraction, a-b-db, 14, 2, 1, 33, 90, 165, 83, 153, 165, 90, 2, 1.11684
387, 3, bw, attraction, a-b-da, 9, 2, 1, 34, 90, 165, 157, 86, 165, 90, 1, 2.74968
387, 3, bw, attraction, a-b-da, 9, 2, 1, 34, 90, 165, 157, 86, 165, 90, 2, 0.886142
387, 3, bw, attraction, a-b-db, 14, 1, 1, 35, 56, 125, 60, 135, 135, 60, 2, 2.2085
387, 3, bw, attraction, a-b-db, 14, 1, 1, 35, 56, 125, 60, 135, 135, 60, 1, 1.15051
387, 3, bw, attraction, a-b-db, 5, 2, 1, 36, 165, 90, 88, 161, 90, 165, 3, 3.222
387, 3, bw, attraction, a-b-db, 5, 2, 1, 36, 165, 90, 88, 161, 90, 165, 2, 1.89899
387, 3, bw, attraction, a-b-da, 9, 3, 1, 37, 120, 195, 195, 120, 186, 114, 1, 2.42048
387, 3, bw, attraction, a-b-da, 9, 3, 1, 37, 120, 195, 195, 120, 186, 114, 3, 1.20232
387, 3, bw, attraction, a-b-db, 14, 2, 2, 1, 165, 90, 90, 165, 83, 153, 2, 1.1038
387, 3, bw, attraction, a-b-db, 14, 2, 2, 1, 165, 90, 90, 165, 83, 153, 3, 1.44272
387, 3, bw, filler, NA, 999, 999, 2, 2, 94, 152, 102, 137, 111, 80, 1, 3.15024
387, 3, bw, filler, NA, 999, 999, 2, 2, 94, 152, 102, 137, 111, 80, 3, 0.878583
387, 3, bw, attraction, a-b-db, 14, 1, 2, 3, 56, 125, 60, 135, 135, 60, 3, 1.78491
387, 3, bw, attraction, a-b-db, 14, 1, 2, 3, 56, 125, 60, 135, 135, 60, 1, 0.488478
387, 3, bw, attraction, a-b-da, 2, 1, 2, 4, 134, 59, 60, 135, 135, 60, 2, 1.49088
387, 3, bw, attraction, a-b-da, 2, 1, 2, 4, 134, 59, 60, 135, 135, 60, 3, 0.437699
387, 3, bw, attraction, a-b-db, 5, 3, 2, 5, 117, 190, 120, 195, 195, 120, 3, 3.1061
387, 3, bw, attraction, a-b-db, 5, 3, 2, 5, 117, 190, 120, 195, 195, 120, 1, 0.883846
387, 3, bw, attraction, a-b-db, 9, 3, 2, 6, 114, 186, 120, 195, 195, 120, 2, 2.38202
387, 3, bw, attraction, a-b-db, 9, 3, 2, 6, 114, 186, 120, 195, 195, 120, 3, 0.693349
387, 3, bw, attraction, a-b-db, 5, 1, 2, 7, 60, 135, 135, 60, 58, 132, 1, 2.24711
387, 3, bw, attraction, a-b-db, 5, 1, 2, 7, 60, 135, 135, 60, 58, 132, 2, 0.86781
387, 3, bw, attraction, a-b-db, 5, 2, 2, 8, 165, 90, 88, 161, 90, 165, 2, 1.74261
387, 3, bw, attraction, a-b-db, 5, 2, 2, 8, 165, 90, 88, 161, 90, 165, 1, 1.42349
387, 3, bw, attraction, a-b-da, 9, 1, 2, 9, 129, 57, 135, 60, 60, 135, 3, 2.71572
387, 3, bw, attraction, a-b-da, 9, 1, 2, 9, 129, 57, 135, 60, 60, 135, 2, 1.07734
387, 3, bw, filler, NA, 999, 999, 2, 10, 95, 80, 76, 63, 135, 132, 3, 1.46365
387, 3, bw, filler, NA, 999, 999, 2, 10, 95, 80, 76, 63, 135, 132, 2, 0.435933
387, 3, bw, filler, NA, 999, 999, 2, 11, 162, 65, 114, 69, 86, 138, 3, 1.68828
387, 3, bw, filler, NA, 999, 999, 2, 11, 162, 65, 114, 69, 86, 138, 2, 0.811726
387, 3, bw, filler, NA, 999, 999, 2, 12, 76, 76, 113, 131, 126, 114, 2, 1.87275
387, 3, bw, filler, NA, 999, 999, 2, 12, 76, 76, 113, 131, 126, 114, 1, 0.452174
387, 3, bw, attraction, a-b-da, 9, 2, 2, 13, 90, 165, 165, 90, 157, 86, 1, 2.632
387, 3, bw, attraction, a-b-da, 9, 2, 2, 13, 90, 165, 165, 90, 157, 86, 3, 0.629122
387, 3, bw, attraction, a-b-db, 2, 3, 2, 14, 120, 195, 119, 193, 195, 120, 2, 3.24152
387, 3, bw, attraction, a-b-db, 2, 3, 2, 14, 120, 195, 119, 193, 195, 120, 3, 0.877863
387, 3, bw, attraction, a-b-da, 9, 3, 2, 15, 186, 114, 120, 195, 195, 120, 2, 1.32808
387, 3, bw, attraction, a-b-da, 9, 3, 2, 15, 186, 114, 120, 195, 195, 120, 1, 0.497768
387, 3, bw, filler, NA, 999, 999, 2, 16, 182, 156, 104, 87, 78, 118, 1, 0.875481
387, 3, bw, filler, NA, 999, 999, 2, 16, 182, 156, 104, 87, 78, 118, 2, 0.399199
387, 3, bw, catch, NA, 999, 999, 2, 17, 68, 127, 158, 157, 155, 100, 2, 0.997084
387, 3, bw, catch, NA, 999, 999, 2, 17, 68, 127, 158, 157, 155, 100, 1, 0.443949
387, 3, bw, catch, NA, 999, 999, 2, 18, 145, 170, 122, 73, 118, 137, 1, 0.759807
387, 3, bw, catch, NA, 999, 999, 2, 18, 145, 170, 122, 73, 118, 137, 2, 0.424209
387, 3, bw, attraction, a-b-da, 2, 2, 2, 19, 163, 89, 165, 90, 90, 165, 3, 3.91672
387, 3, bw, attraction, a-b-da, 2, 2, 2, 19, 163, 89, 165, 90, 90, 165, 1, 0.502179
387, 3, bw, attraction, a-b-da, 14, 1, 2, 20, 60, 135, 135, 60, 125, 56, 2, 1.71989
387, 3, bw, attraction, a-b-da, 14, 1, 2, 20, 60, 135, 135, 60, 125, 56, 3, 0.801997
387, 3, bw, attraction, a-b-db, 9, 2, 2, 21, 165, 90, 86, 157, 90, 165, 1, 1.36768
387, 3, bw, attraction, a-b-db, 9, 2, 2, 21, 165, 90, 86, 157, 90, 165, 2, 0.415849
387, 3, bw, filler, NA, 999, 999, 2, 22, 195, 96, 56, 98, 193, 156, 3, 1.10912
387, 3, bw, filler, NA, 999, 999, 2, 22, 195, 96, 56, 98, 193, 156, 2, 0.375331
387, 3, bw, filler, NA, 999, 999, 2, 23, 79, 56, 112, 143, 97, 182, 3, 1.34178
387, 3, bw, filler, NA, 999, 999, 2, 23, 79, 56, 112, 143, 97, 182, 1, 0.590756
387, 3, bw, attraction, a-b-db, 2, 1, 2, 24, 60, 135, 59, 134, 135, 60, 3, 2.48449
387, 3, bw, attraction, a-b-db, 2, 1, 2, 24, 60, 135, 59, 134, 135, 60, 2, 0.615681
387, 3, bw, attraction, a-b-da, 5, 2, 2, 25, 165, 90, 90, 165, 161, 88, 1, 1.54872
387, 3, bw, attraction, a-b-da, 5, 2, 2, 25, 165, 90, 90, 165, 161, 88, 2, 0.853584
387, 3, bw, attraction, a-b-db, 9, 1, 2, 26, 135, 60, 60, 135, 57, 129, 2, 0.897238
387, 3, bw, attraction, a-b-db, 9, 1, 2, 26, 135, 60, 60, 135, 57, 129, 3, 2.26833
387, 3, bw, attraction, a-b-da, 5, 1, 2, 27, 132, 58, 135, 60, 60, 135, 3, 2.25497
387, 3, bw, attraction, a-b-da, 5, 1, 2, 27, 132, 58, 135, 60, 60, 135, 2, 0.523473
387, 3, bw, filler, NA, 999, 999, 2, 28, 65, 158, 67, 193, 179, 78, 2, 1.80403
387, 3, bw, filler, NA, 999, 999, 2, 28, 65, 158, 67, 193, 179, 78, 3, 0.586667
387, 3, bw, attraction, a-b-db, 14, 3, 2, 29, 120, 195, 195, 120, 111, 181, 1, 1.50499
387, 3, bw, attraction, a-b-db, 14, 3, 2, 29, 120, 195, 195, 120, 111, 181, 3, 1.01931
387, 3, bw, attraction, a-b-da, 14, 2, 2, 30, 165, 90, 153, 83, 90, 165, 3, 1.20825
387, 3, bw, attraction, a-b-da, 14, 2, 2, 30, 165, 90, 153, 83, 90, 165, 2, 0.518469
387, 3, bw, attraction, a-b-db, 2, 2, 2, 31, 89, 163, 165, 90, 90, 165, 3, 3.21554
387, 3, bw, attraction, a-b-db, 2, 2, 2, 31, 89, 163, 165, 90, 90, 165, 2, 0.629241
387, 3, bw, attraction, a-b-da, 14, 3, 2, 32, 181, 111, 120, 195, 195, 120, 3, 2.30556
387, 3, bw, attraction, a-b-da, 14, 3, 2, 32, 181, 111, 120, 195, 195, 120, 1, 1.00358
387, 3, bw, filler, NA, 999, 999, 2, 33, 70, 143, 81, 59, 102, 171, 3, 0.529255
387, 3, bw, filler, NA, 999, 999, 2, 33, 70, 143, 81, 59, 102, 171, 2, 0.386974
387, 3, bw, attraction, a-b-da, 5, 3, 2, 34, 120, 195, 195, 120, 190, 117, 2, 0.713445
387, 3, bw, attraction, a-b-da, 5, 3, 2, 34, 120, 195, 195, 120, 190, 117, 3, 0.667882
387, 3, bw, catch, NA, 999, 999, 2, 35, 111, 84, 95, 160, 185, 130, 3, 1.42291
387, 3, bw, catch, NA, 999, 999, 2, 35, 111, 84, 95, 160, 185, 130, 1, 0.604506
387, 3, bw, attraction, a-b-da, 2, 3, 2, 36, 193, 119, 195, 120, 120, 195, 2, 0.546154
387, 3, bw, attraction, a-b-da, 2, 3, 2, 36, 193, 119, 195, 120, 120, 195, 3, 2.89939
387, 3, bw, filler, NA, 999, 999, 2, 37, 111, 91, 114, 56, 151, 134, 3, 0.788375
387, 3, bw, filler, NA, 999, 999, 2, 37, 111, 91, 114, 56, 151, 134, 2, 0.659465
387, 3, bw, attraction, a-b-db, 5, 3, 3, 1, 120, 195, 117, 190, 195, 120, 2, 2.15857
387, 3, bw, attraction, a-b-db, 5, 3, 3, 1, 120, 195, 117, 190, 195, 120, 3, 0.630521
387, 3, bw, attraction, a-b-db, 2, 2, 3, 2, 90, 165, 165, 90, 89, 163, 1, 2.8833
387, 3, bw, attraction, a-b-db, 2, 2, 3, 2, 90, 165, 165, 90, 89, 163, 3, 0.590053
387, 3, bw, attraction, a-b-da, 14, 1, 3, 3, 125, 56, 60, 135, 135, 60, 3, 2.53169
387, 3, bw, attraction, a-b-da, 14, 1, 3, 3, 125, 56, 60, 135, 135, 60, 2, 0.524928
387, 3, bw, attraction, a-b-da, 2, 1, 3, 4, 134, 59, 135, 60, 60, 135, 3, 2.6933
387, 3, bw, attraction, a-b-da, 2, 1, 3, 4, 134, 59, 135, 60, 60, 135, 2, 0.543778
387, 3, bw, filler, NA, 999, 999, 3, 5, 68, 93, 138, 168, 85, 134, 2, 0.559594
387, 3, bw, filler, NA, 999, 999, 3, 5, 68, 93, 138, 168, 85, 134, 1, 0.888033
387, 3, bw, catch, NA, 999, 999, 3, 6, 158, 97, 142, 173, 61, 134, 2, 2.21839
387, 3, bw, catch, NA, 999, 999, 3, 6, 158, 97, 142, 173, 61, 134, 3, 0.720366
387, 3, bw, attraction, a-b-db, 14, 2, 3, 7, 90, 165, 165, 90, 83, 153, 1, 1.96936
387, 3, bw, attraction, a-b-db, 14, 2, 3, 7, 90, 165, 165, 90, 83, 153, 3, 0.697507
387, 3, bw, filler, NA, 999, 999, 3, 8, 102, 174, 72, 160, 89, 105, 1, 1.23511
387, 3, bw, filler, NA, 999, 999, 3, 8, 102, 174, 72, 160, 89, 105, 3, 0.528716
387, 3, bw, filler, NA, 999, 999, 3, 9, 130, 126, 100, 163, 130, 165, 3, 0.953176
387, 3, bw, filler, NA, 999, 999, 3, 9, 130, 126, 100, 163, 130, 165, 2, 0.794148
387, 3, bw, attraction, a-b-da, 14, 3, 3, 10, 195, 120, 181, 111, 120, 195, 1, 1.6638
387, 3, bw, attraction, a-b-da, 14, 3, 3, 10, 195, 120, 181, 111, 120, 195, 2, 0.668056
387, 3, bw, filler, NA, 999, 999, 3, 11, 148, 132, 170, 85, 159, 176, 3, 1.25497
387, 3, bw, filler, NA, 999, 999, 3, 11, 148, 132, 170, 85, 159, 176, 2, 0.404029
387, 3, bw, attraction, a-b-da, 5, 3, 3, 12, 120, 195, 195, 120, 190, 117, 1, 2.46586
387, 3, bw, attraction, a-b-da, 5, 3, 3, 12, 120, 195, 195, 120, 190, 117, 3, 0.461831
387, 3, bw, attraction, a-b-db, 5, 2, 3, 13, 165, 90, 88, 161, 90, 165, 2, 3.26476
387, 3, bw, attraction, a-b-db, 5, 2, 3, 13, 165, 90, 88, 161, 90, 165, 1, 1.39644
387, 3, bw, catch, NA, 999, 999, 3, 14, 108, 147, 188, 127, 121, 74, 2, 0.809948
387, 3, bw, catch, NA, 999, 999, 3, 14, 108, 147, 188, 127, 121, 74, 3, 0.44032
387, 3, bw, attraction, a-b-db, 9, 1, 3, 15, 60, 135, 57, 129, 135, 60, 3, 1.50014
387, 3, bw, attraction, a-b-db, 9, 1, 3, 15, 60, 135, 57, 129, 135, 60, 2, 0.46285
387, 3, bw, attraction, a-b-db, 2, 3, 3, 16, 119, 193, 195, 120, 120, 195, 2, 0.570053
387, 3, bw, attraction, a-b-db, 2, 3, 3, 16, 119, 193, 195, 120, 120, 195, 3, 0.354553
387, 3, bw, attraction, a-b-da, 5, 1, 3, 17, 132, 58, 60, 135, 135, 60, 3, 1.34642
387, 3, bw, attraction, a-b-da, 5, 1, 3, 17, 132, 58, 60, 135, 135, 60, 1, 0.803336
387, 3, bw, filler, NA, 999, 999, 3, 18, 125, 98, 114, 62, 78, 88, 1, 0.696984
387, 3, bw, filler, NA, 999, 999, 3, 18, 125, 98, 114, 62, 78, 88, 3, 0.428133
387, 3, bw, attraction, a-b-da, 2, 3, 3, 19, 193, 119, 120, 195, 195, 120, 2, 1.29653
387, 3, bw, attraction, a-b-da, 2, 3, 3, 19, 193, 119, 120, 195, 195, 120, 1, 1.20349
387, 3, bw, filler, NA, 999, 999, 3, 20, 179, 57, 75, 187, 166, 183, 3, 0.752986
387, 3, bw, filler, NA, 999, 999, 3, 20, 179, 57, 75, 187, 166, 183, 1, 0.762097
387, 3, bw, catch, NA, 999, 999, 3, 21, 100, 155, 84, 111, 131, 184, 3, 0.761066
387, 3, bw, catch, NA, 999, 999, 3, 21, 100, 155, 84, 111, 131, 184, 2, 0.70551
387, 3, bw, attraction, a-b-da, 14, 2, 3, 22, 165, 90, 153, 83, 90, 165, 2, 1.04318
387, 3, bw, attraction, a-b-da, 14, 2, 3, 22, 165, 90, 153, 83, 90, 165, 3, 1.7203
387, 3, bw, attraction, a-b-db, 14, 3, 3, 23, 111, 181, 195, 120, 120, 195, 2, 1.46483
387, 3, bw, attraction, a-b-db, 14, 3, 3, 23, 111, 181, 195, 120, 120, 195, 1, 0.485163
387, 3, bw, attraction, a-b-db, 9, 2, 3, 24, 165, 90, 86, 157, 90, 165, 3, 2.03956
387, 3, bw, attraction, a-b-db, 9, 2, 3, 24, 165, 90, 86, 157, 90, 165, 1, 0.700237
387, 3, bw, attraction, a-b-da, 9, 1, 3, 25, 60, 135, 135, 60, 129, 57, 2, 0.92592
387, 3, bw, attraction, a-b-da, 9, 1, 3, 25, 60, 135, 135, 60, 129, 57, 3, 0.96764
387, 3, bw, attraction, a-b-da, 9, 3, 3, 26, 120, 195, 195, 120, 186, 114, 1, 0.918584
387, 3, bw, attraction, a-b-da, 9, 3, 3, 26, 120, 195, 195, 120, 186, 114, 3, 0.944939
387, 3, bw, attraction, a-b-db, 2, 1, 3, 27, 135, 60, 59, 134, 60, 135, 2, 1.27262
387, 3, bw, attraction, a-b-db, 2, 1, 3, 27, 135, 60, 59, 134, 60, 135, 1, 0.796189
387, 3, bw, filler, NA, 999, 999, 3, 28, 148, 127, 146, 82, 71, 90, 1, 0.73784
387, 3, bw, filler, NA, 999, 999, 3, 28, 148, 127, 146, 82, 71, 90, 3, 1.31565
387, 3, bw, attraction, a-b-db, 9, 3, 3, 29, 114, 186, 195, 120, 120, 195, 3, 1.10845
387, 3, bw, attraction, a-b-db, 9, 3, 3, 29, 114, 186, 195, 120, 120, 195, 1, 0.782801
387, 3, bw, attraction, a-b-da, 2, 2, 3, 30, 90, 165, 163, 89, 165, 90, 2, 1.10914
387, 3, bw, attraction, a-b-da, 2, 2, 3, 30, 90, 165, 163, 89, 165, 90, 3, 0.503524
387, 3, bw, attraction, a-b-db, 14, 1, 3, 31, 135, 60, 60, 135, 56, 125, 2, 1.32916
387, 3, bw, attraction, a-b-db, 14, 1, 3, 31, 135, 60, 60, 135, 56, 125, 3, 0.602793
387, 3, bw, attraction, a-b-da, 5, 2, 3, 32, 90, 165, 161, 88, 165, 90, 3, 2.61644
387, 3, bw, attraction, a-b-da, 5, 2, 3, 32, 90, 165, 161, 88, 165, 90, 2, 1.14231
387, 3, bw, filler, NA, 999, 999, 3, 33, 104, 99, 58, 74, 78, 167, 3, 0.741913
387, 3, bw, filler, NA, 999, 999, 3, 33, 104, 99, 58, 74, 78, 167, 2, 0.479028
387, 3, bw, filler, NA, 999, 999, 3, 34, 112, 180, 77, 187, 168, 76, 1, 1.07346
387, 3, bw, filler, NA, 999, 999, 3, 34, 112, 180, 77, 187, 168, 76, 3, 0.485053
387, 3, bw, filler, NA, 999, 999, 3, 35, 141, 71, 120, 136, 73, 158, 2, 0.735517
387, 3, bw, filler, NA, 999, 999, 3, 35, 141, 71, 120, 136, 73, 158, 1, 0.809293
387, 3, bw, attraction, a-b-db, 5, 1, 3, 36, 60, 135, 58, 132, 135, 60, 3, 2.67033
387, 3, bw, attraction, a-b-db, 5, 1, 3, 36, 60, 135, 58, 132, 135, 60, 2, 0.562188
387, 3, bw, attraction, a-b-da, 9, 2, 3, 37, 90, 165, 165, 90, 157, 86, 1, 1.90529
387, 3, bw, attraction, a-b-da, 9, 2, 3, 37, 90, 165, 165, 90, 157, 86, 3, 0.603306
387, 3, bw, attraction, a-b-db, 2, 1, 4, 1, 135, 60, 60, 135, 59, 134, 2, 2.07306
387, 3, bw, attraction, a-b-db, 2, 1, 4, 1, 135, 60, 60, 135, 59, 134, 1, 0.7644
387, 3, bw, filler, NA, 999, 999, 4, 2, 175, 195, 119, 173, 75, 158, 1, 0.715424
387, 3, bw, filler, NA, 999, 999, 4, 2, 175, 195, 119, 173, 75, 158, 3, 0.805805
387, 3, bw, attraction, a-b-da, 14, 1, 4, 3, 125, 56, 135, 60, 60, 135, 3, 1.25954
387, 3, bw, attraction, a-b-da, 14, 1, 4, 3, 125, 56, 135, 60, 60, 135, 1, 0.687838
387, 3, bw, attraction, a-b-db, 14, 1, 4, 4, 60, 135, 56, 125, 135, 60, 1, 1.62619
387, 3, bw, attraction, a-b-db, 14, 1, 4, 4, 60, 135, 56, 125, 135, 60, 3, 0.719631
387, 3, bw, attraction, a-b-da, 5, 3, 4, 5, 195, 120, 120, 195, 190, 117, 2, 1.36067
387, 3, bw, attraction, a-b-da, 5, 3, 4, 5, 195, 120, 120, 195, 190, 117, 3, 0.888884
387, 3, bw, attraction, a-b-da, 14, 3, 4, 6, 120, 195, 195, 120, 181, 111, 1, 1.54725
387, 3, bw, attraction, a-b-da, 14, 3, 4, 6, 120, 195, 195, 120, 181, 111, 3, 0.564075
387, 3, bw, attraction, a-b-da, 5, 2, 4, 7, 161, 88, 165, 90, 90, 165, 3, 2.92317
387, 3, bw, attraction, a-b-da, 5, 2, 4, 7, 161, 88, 165, 90, 90, 165, 1, 0.804117
387, 3, bw, attraction, a-b-db, 5, 2, 4, 8, 165, 90, 88, 161, 90, 165, 3, 1.32187
387, 3, bw, attraction, a-b-db, 5, 2, 4, 8, 165, 90, 88, 161, 90, 165, 1, 0.827397
387, 3, bw, catch, NA, 999, 999, 4, 9, 144, 171, 92, 163, 68, 127, 1, 0.615842
387, 3, bw, catch, NA, 999, 999, 4, 9, 144, 171, 92, 163, 68, 127, 3, 0.510159
387, 3, bw, filler, NA, 999, 999, 4, 10, 123, 163, 188, 123, 103, 170, 2, 0.79932
387, 3, bw, filler, NA, 999, 999, 4, 10, 123, 163, 188, 123, 103, 170, 3, 1.92641
387, 3, bw, attraction, a-b-db, 9, 1, 4, 11, 57, 129, 60, 135, 135, 60, 2, 2.51047
387, 3, bw, attraction, a-b-db, 9, 1, 4, 11, 57, 129, 60, 135, 135, 60, 1, 1.46432
387, 3, bw, attraction, a-b-da, 2, 2, 4, 12, 163, 89, 165, 90, 90, 165, 3, 1.72321
387, 3, bw, attraction, a-b-da, 2, 2, 4, 12, 163, 89, 165, 90, 90, 165, 1, 0.46057
387, 3, bw, attraction, a-b-db, 9, 2, 4, 13, 90, 165, 86, 157, 165, 90, 3, 1.93567
387, 3, bw, attraction, a-b-db, 9, 2, 4, 13, 90, 165, 86, 157, 165, 90, 2, 0.96903
387, 3, bw, filler, NA, 999, 999, 4, 14, 159, 72, 65, 187, 168, 130, 3, 0.808002
387, 3, bw, filler, NA, 999, 999, 4, 14, 159, 72, 65, 187, 168, 130, 1, 0.982406
387, 3, bw, filler, NA, 999, 999, 4, 15, 105, 152, 131, 111, 188, 146, 3, 0.66071
387, 3, bw, filler, NA, 999, 999, 4, 15, 105, 152, 131, 111, 188, 146, 2, 0.58514
387, 3, bw, filler, NA, 999, 999, 4, 16, 98, 68, 68, 69, 62, 88, 1, 1.04751
387, 3, bw, filler, NA, 999, 999, 4, 16, 98, 68, 68, 69, 62, 88, 2, 1.5885
387, 3, bw, attraction, a-b-db, 14, 3, 4, 17, 111, 181, 195, 120, 120, 195, 3, 1.79455
387, 3, bw, attraction, a-b-db, 14, 3, 4, 17, 111, 181, 195, 120, 120, 195, 1, 0.64139
387, 3, bw, attraction, a-b-da, 5, 1, 4, 18, 135, 60, 132, 58, 60, 135, 3, 1.48517
387, 3, bw, attraction, a-b-da, 5, 1, 4, 18, 135, 60, 132, 58, 60, 135, 2, 1.23263
387, 3, bw, attraction, a-b-da, 14, 2, 4, 19, 153, 83, 165, 90, 90, 165, 3, 1.54887
387, 3, bw, attraction, a-b-da, 14, 2, 4, 19, 153, 83, 165, 90, 90, 165, 1, 0.421659
387, 3, bw, filler, NA, 999, 999, 4, 20, 99, 116, 63, 89, 156, 153, 3, 1.00276
387, 3, bw, filler, NA, 999, 999, 4, 20, 99, 116, 63, 89, 156, 153, 2, 0.417727
387, 3, bw, catch, NA, 999, 999, 4, 21, 132, 123, 124, 191, 94, 101, 2, 0.998939
387, 3, bw, catch, NA, 999, 999, 4, 21, 132, 123, 124, 191, 94, 101, 3, 0.405978
387, 3, bw, attraction, a-b-da, 9, 2, 4, 22, 157, 86, 90, 165, 165, 90, 3, 1.66779
387, 3, bw, attraction, a-b-da, 9, 2, 4, 22, 157, 86, 90, 165, 165, 90, 1, 1.39189
387, 3, bw, attraction, a-b-db, 2, 2, 4, 23, 165, 90, 89, 163, 90, 165, 3, 3.61341
387, 3, bw, attraction, a-b-db, 2, 2, 4, 23, 165, 90, 89, 163, 90, 165, 1, 2.24288
387, 3, bw, filler, NA, 999, 999, 4, 24, 108, 112, 120, 66, 150, 145, 3, 0.838242
387, 3, bw, filler, NA, 999, 999, 4, 24, 108, 112, 120, 66, 150, 145, 2, 1.27526
387, 3, bw, filler, NA, 999, 999, 4, 25, 176, 157, 71, 190, 143, 187, 3, 0.965381
387, 3, bw, filler, NA, 999, 999, 4, 25, 176, 157, 71, 190, 143, 187, 2, 0.589777
387, 3, bw, attraction, a-b-da, 9, 3, 4, 26, 120, 195, 186, 114, 195, 120, 3, 2.18817
387, 3, bw, attraction, a-b-da, 9, 3, 4, 26, 120, 195, 186, 114, 195, 120, 1, 3.6355
387, 3, bw, attraction, a-b-da, 9, 1, 4, 27, 129, 57, 135, 60, 60, 135, 3, 1.80685
387, 3, bw, attraction, a-b-da, 9, 1, 4, 27, 129, 57, 135, 60, 60, 135, 2, 0.628981
387, 3, bw, attraction, a-b-db, 5, 1, 4, 28, 58, 132, 60, 135, 135, 60, 2, 2.34539
387, 3, bw, attraction, a-b-db, 5, 1, 4, 28, 58, 132, 60, 135, 135, 60, 1, 2.64198
387, 3, bw, attraction, a-b-db, 5, 3, 4, 29, 195, 120, 117, 190, 120, 195, 3, 2.03712
387, 3, bw, attraction, a-b-db, 5, 3, 4, 29, 195, 120, 117, 190, 120, 195, 1, 0.786447
387, 3, bw, catch, NA, 999, 999, 4, 30, 131, 64, 149, 166, 147, 108, 2, 1.67285
387, 3, bw, catch, NA, 999, 999, 4, 30, 131, 64, 149, 166, 147, 108, 1, 0.460343
387, 3, bw, attraction, a-b-da, 2, 3, 4, 31, 120, 195, 195, 120, 193, 119, 3, 4.55156
387, 3, bw, attraction, a-b-da, 2, 3, 4, 31, 120, 195, 195, 120, 193, 119, 2, 0.455265
387, 3, bw, filler, NA, 999, 999, 4, 32, 111, 166, 120, 140, 183, 115, 3, 2.32301
387, 3, bw, filler, NA, 999, 999, 4, 32, 111, 166, 120, 140, 183, 115, 2, 0.388287
387, 3, bw, attraction, a-b-db, 9, 3, 4, 33, 114, 186, 120, 195, 195, 120, 3, 1.14683
387, 3, bw, attraction, a-b-db, 9, 3, 4, 33, 114, 186, 120, 195, 195, 120, 1, 2.1078
387, 3, bw, filler, NA, 999, 999, 4, 34, 60, 177, 101, 130, 173, 162, 3, 0.940421
387, 3, bw, filler, NA, 999, 999, 4, 34, 60, 177, 101, 130, 173, 162, 1, 0.477332
387, 3, bw, attraction, a-b-db, 2, 3, 4, 35, 120, 195, 119, 193, 195, 120, 3, 3.35995
387, 3, bw, attraction, a-b-db, 2, 3, 4, 35, 120, 195, 119, 193, 195, 120, 1, 0.575461
387, 3, bw, attraction, a-b-db, 14, 2, 4, 36, 83, 153, 165, 90, 90, 165, 2, 2.85398
387, 3, bw, attraction, a-b-db, 14, 2, 4, 36, 83, 153, 165, 90, 90, 165, 1, 0.394239
387, 3, bw, attraction, a-b-da, 2, 1, 4, 37, 60, 135, 135, 60, 134, 59, 1, 2.91209
387, 3, bw, attraction, a-b-da, 2, 1, 4, 37, 60, 135, 135, 60, 134, 59, 3, 2.92986
387, 3, bw, attraction, a-b-da, 14, 1, 5, 1, 125, 56, 135, 60, 60, 135, 3, 3.28026
387, 3, bw, attraction, a-b-da, 14, 1, 5, 1, 125, 56, 135, 60, 60, 135, 1, 0.483112
387, 3, bw, attraction, a-b-db, 14, 1, 5, 2, 56, 125, 135, 60, 60, 135, 3, 1.26958
387, 3, bw, attraction, a-b-db, 14, 1, 5, 2, 56, 125, 135, 60, 60, 135, 1, 0.481771
387, 3, bw, filler, NA, 999, 999, 5, 3, 175, 175, 178, 185, 167, 157, 2, 1.70824
387, 3, bw, filler, NA, 999, 999, 5, 3, 175, 175, 178, 185, 167, 157, 3, 0.726374
387, 3, bw, attraction, a-b-db, 9, 1, 5, 4, 60, 135, 57, 129, 135, 60, 1, 2.97467
387, 3, bw, attraction, a-b-db, 9, 1, 5, 4, 60, 135, 57, 129, 135, 60, 2, 1.06984
387, 3, bw, attraction, a-b-da, 9, 1, 5, 5, 135, 60, 129, 57, 60, 135, 3, 1.33678
387, 3, bw, attraction, a-b-da, 9, 1, 5, 5, 135, 60, 129, 57, 60, 135, 2, 0.458274
387, 3, bw, attraction, a-b-da, 9, 3, 5, 6, 195, 120, 120, 195, 186, 114, 2, 1.49337
387, 3, bw, attraction, a-b-da, 9, 3, 5, 6, 195, 120, 120, 195, 186, 114, 3, 1.20018
387, 3, bw, filler, NA, 999, 999, 5, 7, 187, 166, 139, 132, 152, 70, 1, 0.869785
387, 3, bw, filler, NA, 999, 999, 5, 7, 187, 166, 139, 132, 152, 70, 3, 0.530176
387, 3, bw, attraction, a-b-da, 5, 2, 5, 8, 165, 90, 161, 88, 90, 165, 3, 2.05869
387, 3, bw, attraction, a-b-da, 5, 2, 5, 8, 165, 90, 161, 88, 90, 165, 2, 0.56676
387, 3, bw, attraction, a-b-db, 5, 2, 5, 9, 88, 161, 165, 90, 90, 165, 3, 2.12566
387, 3, bw, attraction, a-b-db, 5, 2, 5, 9, 88, 161, 165, 90, 90, 165, 1, 0.823178
387, 3, bw, attraction, a-b-db, 2, 3, 5, 10, 195, 120, 120, 195, 119, 193, 2, 2.356
387, 3, bw, attraction, a-b-db, 2, 3, 5, 10, 195, 120, 120, 195, 119, 193, 3, 0.755957
387, 3, bw, attraction, a-b-db, 9, 3, 5, 11, 195, 120, 114, 186, 120, 195, 3, 1.45164
387, 3, bw, attraction, a-b-db, 9, 3, 5, 11, 195, 120, 114, 186, 120, 195, 1, 0.760557
387, 3, bw, filler, NA, 999, 999, 5, 12, 163, 125, 183, 172, 69, 102, 2, 0.535628
387, 3, bw, filler, NA, 999, 999, 5, 12, 163, 125, 183, 172, 69, 102, 3, 0.681379
387, 3, bw, attraction, a-b-db, 14, 3, 5, 13, 111, 181, 195, 120, 120, 195, 3, 0.843852
387, 3, bw, attraction, a-b-db, 14, 3, 5, 13, 111, 181, 195, 120, 120, 195, 1, 0.544907
387, 3, bw, filler, NA, 999, 999, 5, 14, 114, 67, 111, 160, 63, 81, 2, 0.64866
387, 3, bw, filler, NA, 999, 999, 5, 14, 114, 67, 111, 160, 63, 81, 3, 0.413637
387, 3, bw, attraction, a-b-db, 5, 1, 5, 15, 135, 60, 58, 132, 60, 135, 3, 2.16281
387, 3, bw, attraction, a-b-db, 5, 1, 5, 15, 135, 60, 58, 132, 60, 135, 1, 0.674748
387, 3, bw, filler, NA, 999, 999, 5, 16, 91, 93, 58, 141, 193, 104, 3, 0.645137
387, 3, bw, filler, NA, 999, 999, 5, 16, 91, 93, 58, 141, 193, 104, 2, 0.410273
387, 3, bw, attraction, a-b-db, 9, 2, 5, 17, 165, 90, 86, 157, 90, 165, 3, 1.95943
387, 3, bw, attraction, a-b-db, 9, 2, 5, 17, 165, 90, 86, 157, 90, 165, 2, 1.13547
387, 3, bw, filler, NA, 999, 999, 5, 18, 131, 72, 107, 92, 167, 184, 3, 0.591679
387, 3, bw, filler, NA, 999, 999, 5, 18, 131, 72, 107, 92, 167, 184, 2, 2.96689
387, 3, bw, attraction, a-b-da, 14, 3, 5, 19, 120, 195, 195, 120, 181, 111, 1, 3.94915
387, 3, bw, attraction, a-b-da, 14, 3, 5, 19, 120, 195, 195, 120, 181, 111, 3, 0.645231
387, 3, bw, attraction, a-b-da, 2, 3, 5, 20, 195, 120, 193, 119, 120, 195, 3, 2.785
387, 3, bw, attraction, a-b-da, 2, 3, 5, 20, 195, 120, 193, 119, 120, 195, 1, 2.28006
387, 3, bw, attraction, a-b-da, 5, 1, 5, 21, 132, 58, 135, 60, 60, 135, 2, 4.03393
387, 3, bw, attraction, a-b-da, 5, 1, 5, 21, 132, 58, 135, 60, 60, 135, 1, 0.678625
387, 3, bw, filler, NA, 999, 999, 5, 22, 69, 169, 60, 93, 120, 111, 3, 1.76107
387, 3, bw, filler, NA, 999, 999, 5, 22, 69, 169, 60, 93, 120, 111, 2, 0.625214
387, 3, bw, filler, NA, 999, 999, 5, 23, 99, 75, 61, 91, 170, 64, 3, 0.78959
387, 3, bw, filler, NA, 999, 999, 5, 23, 99, 75, 61, 91, 170, 64, 2, 0.564625
387, 3, bw, attraction, a-b-db, 14, 2, 5, 24, 83, 153, 90, 165, 165, 90, 3, 2.13986
387, 3, bw, attraction, a-b-db, 14, 2, 5, 24, 83, 153, 90, 165, 165, 90, 1, 0.468319
387, 3, bw, attraction, a-b-db, 2, 1, 5, 25, 59, 134, 60, 135, 135, 60, 2, 2.38358
387, 3, bw, attraction, a-b-db, 2, 1, 5, 25, 59, 134, 60, 135, 135, 60, 3, 0.694864
387, 3, bw, attraction, a-b-db, 2, 2, 5, 26, 165, 90, 89, 163, 90, 165, 3, 4.45639
387, 3, bw, attraction, a-b-db, 2, 2, 5, 26, 165, 90, 89, 163, 90, 165, 2, 1.10766
387, 3, bw, attraction, a-b-da, 14, 2, 5, 27, 165, 90, 90, 165, 153, 83, 1, 1.38076
387, 3, bw, attraction, a-b-da, 14, 2, 5, 27, 165, 90, 90, 165, 153, 83, 2, 1.25215
387, 3, bw, filler, NA, 999, 999, 5, 28, 72, 138, 137, 124, 137, 178, 3, 0.639662
387, 3, bw, filler, NA, 999, 999, 5, 28, 72, 138, 137, 124, 137, 178, 1, 0.636835
387, 3, bw, catch, NA, 999, 999, 5, 29, 131, 64, 134, 181, 138, 117, 2, 0.777307
387, 3, bw, catch, NA, 999, 999, 5, 29, 131, 64, 134, 181, 138, 117, 1, 0.472888
387, 3, bw, attraction, a-b-da, 9, 2, 5, 30, 90, 165, 165, 90, 157, 86, 1, 3.74003
387, 3, bw, attraction, a-b-da, 9, 2, 5, 30, 90, 165, 165, 90, 157, 86, 3, 1.12419
387, 3, bw, attraction, a-b-da, 2, 2, 5, 31, 90, 165, 165, 90, 163, 89, 1, 2.12448
387, 3, bw, attraction, a-b-da, 2, 2, 5, 31, 90, 165, 165, 90, 163, 89, 3, 0.765859
387, 3, bw, attraction, a-b-da, 5, 3, 5, 32, 190, 117, 120, 195, 195, 120, 2, 2.30901
387, 3, bw, attraction, a-b-da, 5, 3, 5, 32, 190, 117, 120, 195, 195, 120, 1, 2.04671
387, 3, bw, attraction, a-b-db, 5, 3, 5, 33, 120, 195, 195, 120, 117, 190, 1, 3.61806
387, 3, bw, attraction, a-b-db, 5, 3, 5, 33, 120, 195, 195, 120, 117, 190, 3, 3.3036
387, 3, bw, catch, NA, 999, 999, 5, 34, 68, 127, 158, 157, 148, 107, 2, 1.0564
387, 3, bw, catch, NA, 999, 999, 5, 34, 68, 127, 158, 157, 148, 107, 1, 0.372726
387, 3, bw, attraction, a-b-da, 2, 1, 5, 35, 60, 135, 135, 60, 134, 59, 3, 3.14002
387, 3, bw, attraction, a-b-da, 2, 1, 5, 35, 60, 135, 135, 60, 134, 59, 2, 1.51631
387, 3, bw, filler, NA, 999, 999, 5, 36, 150, 163, 99, 157, 71, 178, 1, 0.821013
387, 3, bw, filler, NA, 999, 999, 5, 36, 150, 163, 99, 157, 71, 178, 3, 0.579632
387, 3, bw, catch, NA, 999, 999, 5, 37, 174, 141, 97, 98, 91, 164, 1, 0.553928
387, 3, bw, catch, NA, 999, 999, 5, 37, 174, 141, 97, 98, 91, 164, 2, 0.562402
387, 3, bw, attraction, a-b-da, 9, 2, 6, 1, 165, 90, 90, 165, 157, 86, 2, 0.785525
387, 3, bw, attraction, a-b-da, 9, 2, 6, 1, 165, 90, 90, 165, 157, 86, 3, 1.71311
387, 3, bw, attraction, a-b-db, 14, 2, 6, 2, 83, 153, 165, 90, 90, 165, 3, 1.36195
387, 3, bw, attraction, a-b-db, 14, 2, 6, 2, 83, 153, 165, 90, 90, 165, 1, 0.60206
387, 3, bw, attraction, a-b-da, 9, 1, 6, 3, 129, 57, 60, 135, 135, 60, 2, 1.16792
387, 3, bw, attraction, a-b-da, 9, 1, 6, 3, 129, 57, 60, 135, 135, 60, 1, 0.528182
387, 3, bw, filler, NA, 999, 999, 6, 4, 61, 111, 160, 77, 184, 73, 2, 0.872611
387, 3, bw, filler, NA, 999, 999, 6, 4, 61, 111, 160, 77, 184, 73, 1, 0.492348
387, 3, bw, attraction, a-b-da, 5, 3, 6, 5, 190, 117, 120, 195, 195, 120, 2, 2.2061
387, 3, bw, attraction, a-b-da, 5, 3, 6, 5, 190, 117, 120, 195, 195, 120, 1, 1.10799
387, 3, bw, attraction, a-b-da, 14, 2, 6, 6, 153, 83, 165, 90, 90, 165, 2, 0.597009
387, 3, bw, attraction, a-b-da, 14, 2, 6, 6, 153, 83, 165, 90, 90, 165, 1, 0.692085
387, 3, bw, filler, NA, 999, 999, 6, 7, 186, 181, 182, 189, 84, 193, 2, 0.541776
387, 3, bw, filler, NA, 999, 999, 6, 7, 186, 181, 182, 189, 84, 193, 3, 1.29498
387, 3, bw, attraction, a-b-da, 2, 1, 6, 8, 135, 60, 60, 135, 134, 59, 2, 1.04841
387, 3, bw, attraction, a-b-da, 2, 1, 6, 8, 135, 60, 60, 135, 134, 59, 1, 0.589382
387, 3, bw, attraction, a-b-db, 14, 3, 6, 9, 195, 120, 120, 195, 111, 181, 2, 2.57183
387, 3, bw, attraction, a-b-db, 14, 3, 6, 9, 195, 120, 120, 195, 111, 181, 3, 0.491752
387, 3, bw, attraction, a-b-db, 2, 2, 6, 10, 165, 90, 89, 163, 90, 165, 2, 2.26141
387, 3, bw, attraction, a-b-db, 2, 2, 6, 10, 165, 90, 89, 163, 90, 165, 1, 0.5375
387, 3, bw, filler, NA, 999, 999, 6, 11, 100, 128, 87, 95, 189, 173, 3, 0.697932
387, 3, bw, filler, NA, 999, 999, 6, 11, 100, 128, 87, 95, 189, 173, 2, 0.42907
387, 3, bw, attraction, a-b-db, 9, 3, 6, 12, 114, 186, 195, 120, 120, 195, 2, 0.817628
387, 3, bw, attraction, a-b-db, 9, 3, 6, 12, 114, 186, 195, 120, 120, 195, 3, 0.479821
387, 3, bw, attraction, a-b-da, 2, 3, 6, 13, 195, 120, 120, 195, 193, 119, 2, 1.35421
387, 3, bw, attraction, a-b-da, 2, 3, 6, 13, 195, 120, 120, 195, 193, 119, 3, 1.24312
387, 3, bw, attraction, a-b-db, 9, 1, 6, 14, 57, 129, 135, 60, 60, 135, 1, 1.16675
387, 3, bw, attraction, a-b-db, 9, 1, 6, 14, 57, 129, 135, 60, 60, 135, 3, 1.007
387, 3, bw, filler, NA, 999, 999, 6, 15, 65, 175, 92, 93, 118, 106, 3, 1.84392
387, 3, bw, filler, NA, 999, 999, 6, 15, 65, 175, 92, 93, 118, 106, 2, 0.760703
387, 3, bw, attraction, a-b-da, 9, 3, 6, 16, 186, 114, 195, 120, 120, 195, 3, 3.39969
387, 3, bw, attraction, a-b-da, 9, 3, 6, 16, 186, 114, 195, 120, 120, 195, 1, 0.589929
387, 3, bw, attraction, a-b-db, 5, 2, 6, 17, 88, 161, 165, 90, 90, 165, 3, 1.51639
387, 3, bw, attraction, a-b-db, 5, 2, 6, 17, 88, 161, 165, 90, 90, 165, 1, 1.32652
387, 3, bw, filler, NA, 999, 999, 6, 18, 112, 70, 159, 73, 92, 110, 2, 2.13474
387, 3, bw, filler, NA, 999, 999, 6, 18, 112, 70, 159, 73, 92, 110, 1, 1.26408
387, 3, bw, filler, NA, 999, 999, 6, 19, 176, 184, 81, 83, 152, 111, 1, 0.955067
387, 3, bw, filler, NA, 999, 999, 6, 19, 176, 184, 81, 83, 152, 111, 2, 0.499264
387, 3, bw, attraction, a-b-db, 2, 3, 6, 20, 195, 120, 120, 195, 119, 193, 2, 1.4691
387, 3, bw, attraction, a-b-db, 2, 3, 6, 20, 195, 120, 120, 195, 119, 193, 1, 0.513198
387, 3, bw, attraction, a-b-da, 2, 2, 6, 21, 163, 89, 90, 165, 165, 90, 2, 1.43437
387, 3, bw, attraction, a-b-da, 2, 2, 6, 21, 163, 89, 90, 165, 165, 90, 3, 0.535942
387, 3, bw, attraction, a-b-db, 5, 3, 6, 22, 117, 190, 195, 120, 120, 195, 3, 1.44032
387, 3, bw, attraction, a-b-db, 5, 3, 6, 22, 117, 190, 195, 120, 120, 195, 1, 0.653113
387, 3, bw, attraction, a-b-da, 14, 1, 6, 23, 125, 56, 135, 60, 60, 135, 2, 1.58487
387, 3, bw, attraction, a-b-da, 14, 1, 6, 23, 125, 56, 135, 60, 60, 135, 1, 1.26435
387, 3, bw, filler, NA, 999, 999, 6, 24, 106, 146, 194, 165, 169, 58, 2, 0.739339
387, 3, bw, filler, NA, 999, 999, 6, 24, 106, 146, 194, 165, 169, 58, 3, 0.828392
387, 3, bw, attraction, a-b-db, 9, 2, 6, 25, 165, 90, 90, 165, 86, 157, 2, 1.49671
387, 3, bw, attraction, a-b-db, 9, 2, 6, 25, 165, 90, 90, 165, 86, 157, 1, 0.531552
387, 3, bw, filler, NA, 999, 999, 6, 26, 128, 160, 151, 185, 99, 148, 2, 0.531924
387, 3, bw, filler, NA, 999, 999, 6, 26, 128, 160, 151, 185, 99, 148, 3, 0.541863
387, 3, bw, catch, NA, 999, 999, 6, 27, 146, 109, 77, 118, 174, 141, 3, 0.581657
387, 3, bw, catch, NA, 999, 999, 6, 27, 146, 109, 77, 118, 174, 141, 2, 0.549451
387, 3, bw, attraction, a-b-da, 5, 1, 6, 28, 60, 135, 135, 60, 132, 58, 2, 0.773062
387, 3, bw, attraction, a-b-da, 5, 1, 6, 28, 60, 135, 135, 60, 132, 58, 3, 1.2209
387, 3, bw, attraction, a-b-db, 5, 1, 6, 29, 60, 135, 58, 132, 135, 60, 1, 1.70567
387, 3, bw, attraction, a-b-db, 5, 1, 6, 29, 60, 135, 58, 132, 135, 60, 3, 0.651986
387, 3, bw, attraction, a-b-db, 14, 1, 6, 30, 135, 60, 60, 135, 56, 125, 2, 1.43154
387, 3, bw, attraction, a-b-db, 14, 1, 6, 30, 135, 60, 60, 135, 56, 125, 3, 0.613254
387, 3, bw, attraction, a-b-db, 2, 1, 6, 31, 135, 60, 59, 134, 60, 135, 2, 1.08229
387, 3, bw, attraction, a-b-db, 2, 1, 6, 31, 135, 60, 59, 134, 60, 135, 1, 0.509965
387, 3, bw, attraction, a-b-da, 14, 3, 6, 32, 181, 111, 195, 120, 120, 195, 3, 1.93495
387, 3, bw, attraction, a-b-da, 14, 3, 6, 32, 181, 111, 195, 120, 120, 195, 1, 0.552368
387, 3, bw, catch, NA, 999, 999, 6, 33, 166, 149, 156, 99, 74, 121, 1, 1.31209
387, 3, bw, catch, NA, 999, 999, 6, 33, 166, 149, 156, 99, 74, 121, 3, 0.738441
387, 3, bw, filler, NA, 999, 999, 6, 34, 132, 165, 154, 177, 98, 151, 2, 1.08276
387, 3, bw, filler, NA, 999, 999, 6, 34, 132, 165, 154, 177, 98, 151, 3, 0.574371
387, 3, bw, attraction, a-b-da, 5, 2, 6, 35, 90, 165, 165, 90, 161, 88, 1, 1.81274
387, 3, bw, attraction, a-b-da, 5, 2, 6, 35, 90, 165, 165, 90, 161, 88, 3, 0.762829
387, 3, bw, catch, NA, 999, 999, 6, 36, 156, 159, 120, 75, 143, 112, 1, 0.617802
387, 3, bw, catch, NA, 999, 999, 6, 36, 156, 159, 120, 75, 143, 112, 2, 0.512331
387, 3, bw, filler, NA, 999, 999, 6, 37, 68, 115, 150, 160, 174, 183, 3, 0.585489
387, 3, bw, filler, NA, 999, 999, 6, 37, 68, 115, 150, 160, 174, 183, 1, 0.505319
387, 3, bw, attraction, a-b-da, 9, 2, 7, 1, 90, 165, 157, 86, 165, 90, 1, 1.77108
387, 3, bw, attraction, a-b-da, 9, 2, 7, 1, 90, 165, 157, 86, 165, 90, 2, 0.443146
387, 3, bw, attraction, a-b-db, 9, 3, 7, 2, 120, 195, 195, 120, 114, 186, 1, 1.24686
387, 3, bw, attraction, a-b-db, 9, 3, 7, 2, 120, 195, 195, 120, 114, 186, 3, 0.675785
387, 3, bw, attraction, a-b-db, 14, 1, 7, 3, 60, 135, 135, 60, 56, 125, 1, 1.23022
387, 3, bw, attraction, a-b-db, 14, 1, 7, 3, 60, 135, 135, 60, 56, 125, 3, 0.555859
387, 3, bw, attraction, a-b-db, 2, 3, 7, 4, 119, 193, 195, 120, 120, 195, 3, 0.955608
387, 3, bw, attraction, a-b-db, 2, 3, 7, 4, 119, 193, 195, 120, 120, 195, 2, 0.451951
387, 3, bw, filler, NA, 999, 999, 7, 5, 191, 104, 165, 170, 77, 152, 2, 1.87171
387, 3, bw, filler, NA, 999, 999, 7, 5, 191, 104, 165, 170, 77, 152, 3, 0.947759
387, 3, bw, attraction, a-b-da, 2, 2, 7, 6, 90, 165, 165, 90, 163, 89, 1, 1.06746
387, 3, bw, attraction, a-b-da, 2, 2, 7, 6, 90, 165, 165, 90, 163, 89, 2, 0.543822
387, 3, bw, filler, NA, 999, 999, 7, 7, 158, 128, 78, 164, 81, 94, 1, 0.751405
387, 3, bw, filler, NA, 999, 999, 7, 7, 158, 128, 78, 164, 81, 94, 3, 0.632525
387, 3, bw, filler, NA, 999, 999, 7, 8, 154, 77, 165, 114, 121, 59, 2, 1.04493
387, 3, bw, filler, NA, 999, 999, 7, 8, 154, 77, 165, 114, 121, 59, 3, 0.513895
387, 3, bw, attraction, a-b-db, 2, 2, 7, 9, 90, 165, 89, 163, 165, 90, 3, 2.011
387, 3, bw, attraction, a-b-db, 2, 2, 7, 9, 90, 165, 89, 163, 165, 90, 2, 0.825177
387, 3, bw, attraction, a-b-da, 14, 2, 7, 10, 90, 165, 153, 83, 165, 90, 1, 2.46943
387, 3, bw, attraction, a-b-da, 14, 2, 7, 10, 90, 165, 153, 83, 165, 90, 2, 0.393395
387, 3, bw, catch, NA, 999, 999, 7, 11, 145, 110, 84, 111, 185, 130, 3, 0.91118
387, 3, bw, catch, NA, 999, 999, 7, 11, 145, 110, 84, 111, 185, 130, 2, 0.481584
387, 3, bw, attraction, a-b-db, 9, 1, 7, 12, 135, 60, 60, 135, 57, 129, 2, 1.13193
387, 3, bw, attraction, a-b-db, 9, 1, 7, 12, 135, 60, 60, 135, 57, 129, 3, 1.10151
387, 3, bw, filler, NA, 999, 999, 7, 13, 153, 188, 166, 169, 139, 114, 1, 1.3512
387, 3, bw, filler, NA, 999, 999, 7, 13, 153, 188, 166, 169, 139, 114, 3, 0.632036
387, 3, bw, filler, NA, 999, 999, 7, 14, 181, 188, 125, 128, 189, 56, 1, 0.676501
387, 3, bw, filler, NA, 999, 999, 7, 14, 181, 188, 125, 128, 189, 56, 3, 0.512229
387, 3, bw, attraction, a-b-da, 5, 1, 7, 15, 132, 58, 135, 60, 60, 135, 3, 1.34539
387, 3, bw, attraction, a-b-da, 5, 1, 7, 15, 132, 58, 135, 60, 60, 135, 2, 0.69024
387, 3, bw, attraction, a-b-da, 9, 1, 7, 16, 135, 60, 60, 135, 129, 57, 1, 2.1081
387, 3, bw, attraction, a-b-da, 9, 1, 7, 16, 135, 60, 60, 135, 129, 57, 3, 0.549942
387, 3, bw, attraction, a-b-da, 5, 3, 7, 17, 190, 117, 120, 195, 195, 120, 3, 2.56568
387, 3, bw, attraction, a-b-da, 5, 3, 7, 17, 190, 117, 120, 195, 195, 120, 2, 0.397534
387, 3, bw, filler, NA, 999, 999, 7, 18, 116, 163, 102, 94, 147, 143, 1, 1.3233
387, 3, bw, filler, NA, 999, 999, 7, 18, 116, 163, 102, 94, 147, 143, 2, 0.460996
387, 3, bw, catch, NA, 999, 999, 7, 19, 141, 114, 110, 85, 126, 189, 3, 0.680048
387, 3, bw, catch, NA, 999, 999, 7, 19, 141, 114, 110, 85, 126, 189, 2, 0.579682
387, 3, bw, filler, NA, 999, 999, 7, 20, 99, 56, 177, 175, 99, 84, 2, 1.21815
387, 3, bw, filler, NA, 999, 999, 7, 20, 99, 56, 177, 175, 99, 84, 1, 1.72048
387, 3, bw, filler, NA, 999, 999, 7, 21, 72, 77, 160, 182, 86, 60, 2, 0.737215
387, 3, bw, filler, NA, 999, 999, 7, 21, 72, 77, 160, 182, 86, 60, 3, 0.962251
387, 3, bw, attraction, a-b-da, 14, 3, 7, 22, 120, 195, 195, 120, 181, 111, 2, 4.69717
387, 3, bw, attraction, a-b-da, 14, 3, 7, 22, 120, 195, 195, 120, 181, 111, 1, 0.79518
387, 3, bw, attraction, a-b-da, 14, 1, 7, 23, 135, 60, 125, 56, 60, 135, 1, 1.00871
387, 3, bw, attraction, a-b-da, 14, 1, 7, 23, 135, 60, 125, 56, 60, 135, 3, 0.567207
387, 3, bw, attraction, a-b-db, 2, 1, 7, 24, 59, 134, 135, 60, 60, 135, 2, 0.566249
387, 3, bw, attraction, a-b-db, 2, 1, 7, 24, 59, 134, 135, 60, 60, 135, 1, 0.630759
387, 3, bw, filler, NA, 999, 999, 7, 25, 109, 160, 174, 57, 167, 156, 3, 0.971239
387, 3, bw, filler, NA, 999, 999, 7, 25, 109, 160, 174, 57, 167, 156, 2, 1.07546
387, 3, bw, attraction, a-b-da, 9, 3, 7, 26, 186, 114, 120, 195, 195, 120, 2, 1.4618
387, 3, bw, attraction, a-b-da, 9, 3, 7, 26, 186, 114, 120, 195, 195, 120, 1, 1.03391
387, 3, bw, attraction, a-b-db, 14, 2, 7, 27, 90, 165, 165, 90, 83, 153, 1, 1.16619
387, 3, bw, attraction, a-b-db, 14, 2, 7, 27, 90, 165, 165, 90, 83, 153, 3, 0.454483
387, 3, bw, attraction, a-b-db, 9, 2, 7, 28, 90, 165, 165, 90, 86, 157, 1, 1.05826
387, 3, bw, attraction, a-b-db, 9, 2, 7, 28, 90, 165, 165, 90, 86, 157, 2, 0.534578
387, 3, bw, attraction, a-b-da, 2, 3, 7, 29, 120, 195, 193, 119, 195, 120, 1, 1.04695
387, 3, bw, attraction, a-b-da, 2, 3, 7, 29, 120, 195, 193, 119, 195, 120, 3, 0.499954
387, 3, bw, attraction, a-b-db, 5, 3, 7, 30, 195, 120, 117, 190, 120, 195, 3, 1.43778
387, 3, bw, attraction, a-b-db, 5, 3, 7, 30, 195, 120, 117, 190, 120, 195, 1, 0.635391
387, 3, bw, attraction, a-b-db, 5, 2, 7, 31, 165, 90, 90, 165, 88, 161, 2, 1.28768
387, 3, bw, attraction, a-b-db, 5, 2, 7, 31, 165, 90, 90, 165, 88, 161, 3, 0.483346
387, 3, bw, attraction, a-b-db, 5, 1, 7, 32, 58, 132, 60, 135, 135, 60, 3, 1.26184
387, 3, bw, attraction, a-b-db, 5, 1, 7, 32, 58, 132, 60, 135, 135, 60, 1, 0.866042
387, 3, bw, filler, NA, 999, 999, 7, 33, 186, 124, 60, 85, 154, 62, 1, 1.02096
387, 3, bw, filler, NA, 999, 999, 7, 33, 186, 124, 60, 85, 154, 62, 2, 0.547297
387, 3, bw, catch, NA, 999, 999, 7, 34, 156, 159, 162, 93, 105, 90, 1, 1.06711
387, 3, bw, catch, NA, 999, 999, 7, 34, 156, 159, 162, 93, 105, 90, 3, 0.567415
387, 3, bw, attraction, a-b-da, 2, 1, 7, 35, 135, 60, 60, 135, 134, 59, 2, 1.8705
387, 3, bw, attraction, a-b-da, 2, 1, 7, 35, 135, 60, 60, 135, 134, 59, 3, 0.858584
387, 3, bw, attraction, a-b-da, 5, 2, 7, 36, 161, 88, 90, 165, 165, 90, 2, 2.81351
387, 3, bw, attraction, a-b-da, 5, 2, 7, 36, 161, 88, 90, 165, 165, 90, 3, 1.25925
387, 3, bw, attraction, a-b-db, 14, 3, 7, 37, 195, 120, 120, 195, 111, 181, 2, 1.64615
387, 3, bw, attraction, a-b-db, 14, 3, 7, 37, 195, 120, 120, 195, 111, 181, 3, 0.795036
387, 3, bw, filler, NA, 999, 999, 8, 1, 179, 135, 124, 153, 146, 86, 1, 0.848711
387, 3, bw, filler, NA, 999, 999, 8, 1, 179, 135, 124, 153, 146, 86, 3, 0.477731
387, 3, bw, attraction, a-b-da, 2, 2, 8, 2, 165, 90, 90, 165, 163, 89, 2, 1.04025
387, 3, bw, attraction, a-b-da, 2, 2, 8, 2, 165, 90, 90, 165, 163, 89, 1, 0.445176
387, 3, bw, filler, NA, 999, 999, 8, 3, 167, 102, 98, 124, 171, 87, 1, 1.337
387, 3, bw, filler, NA, 999, 999, 8, 3, 167, 102, 98, 124, 171, 87, 2, 0.514491
387, 3, bw, attraction, a-b-db, 9, 3, 8, 4, 195, 120, 120, 195, 114, 186, 2, 0.923673
387, 3, bw, attraction, a-b-db, 9, 3, 8, 4, 195, 120, 120, 195, 114, 186, 1, 0.405445
387, 3, bw, attraction, a-b-da, 14, 1, 8, 5, 135, 60, 125, 56, 60, 135, 1, 1.66701
387, 3, bw, attraction, a-b-da, 14, 1, 8, 5, 135, 60, 125, 56, 60, 135, 3, 0.487243
387, 3, bw, catch, NA, 999, 999, 8, 6, 110, 85, 143, 112, 175, 140, 3, 0.889817
387, 3, bw, catch, NA, 999, 999, 8, 6, 110, 85, 143, 112, 175, 140, 1, 0.46081
387, 3, bw, attraction, a-b-db, 2, 2, 8, 7, 165, 90, 89, 163, 90, 165, 3, 2.15198
387, 3, bw, attraction, a-b-db, 2, 2, 8, 7, 165, 90, 89, 163, 90, 165, 1, 0.576471
387, 3, bw, attraction, a-b-db, 2, 3, 8, 8, 195, 120, 120, 195, 119, 193, 1, 1.39094
387, 3, bw, attraction, a-b-db, 2, 3, 8, 8, 195, 120, 120, 195, 119, 193, 3, 0.581822
387, 3, bw, attraction, a-b-da, 9, 3, 8, 9, 195, 120, 186, 114, 120, 195, 2, 1.0523
387, 3, bw, attraction, a-b-da, 9, 3, 8, 9, 195, 120, 186, 114, 120, 195, 3, 0.4412
387, 3, bw, filler, NA, 999, 999, 8, 10, 133, 115, 166, 173, 186, 154, 3, 0.757098
387, 3, bw, filler, NA, 999, 999, 8, 10, 133, 115, 166, 173, 186, 154, 1, 0.509425
387, 3, bw, attraction, a-b-da, 2, 3, 8, 11, 195, 120, 120, 195, 193, 119, 1, 1.84647
387, 3, bw, attraction, a-b-da, 2, 3, 8, 11, 195, 120, 120, 195, 193, 119, 2, 0.843311
387, 3, bw, attraction, a-b-da, 9, 2, 8, 12, 165, 90, 90, 165, 157, 86, 2, 0.958876
387, 3, bw, attraction, a-b-da, 9, 2, 8, 12, 165, 90, 90, 165, 157, 86, 3, 0.439304
387, 3, bw, attraction, a-b-da, 5, 1, 8, 13, 135, 60, 132, 58, 60, 135, 3, 0.963754
387, 3, bw, attraction, a-b-da, 5, 1, 8, 13, 135, 60, 132, 58, 60, 135, 1, 0.42009
387, 3, bw, catch, NA, 999, 999, 8, 14, 126, 189, 63, 132, 143, 112, 1, 0.713227
387, 3, bw, catch, NA, 999, 999, 8, 14, 126, 189, 63, 132, 143, 112, 2, 0.395658
387, 3, bw, attraction, a-b-db, 9, 1, 8, 15, 57, 129, 60, 135, 135, 60, 2, 1.28142
387, 3, bw, attraction, a-b-db, 9, 1, 8, 15, 57, 129, 60, 135, 135, 60, 1, 1.06904
387, 3, bw, attraction, a-b-db, 2, 1, 8, 16, 59, 134, 60, 135, 135, 60, 2, 0.943884
387, 3, bw, attraction, a-b-db, 2, 1, 8, 16, 59, 134, 60, 135, 135, 60, 1, 0.376994
387, 3, bw, attraction, a-b-da, 5, 2, 8, 17, 90, 165, 161, 88, 165, 90, 2, 0.719386
387, 3, bw, attraction, a-b-da, 5, 2, 8, 17, 90, 165, 161, 88, 165, 90, 1, 1.61801
387, 3, bw, attraction, a-b-db, 14, 1, 8, 18, 56, 125, 60, 135, 135, 60, 2, 2.31058
387, 3, bw, attraction, a-b-db, 14, 1, 8, 18, 56, 125, 60, 135, 135, 60, 3, 0.44859
387, 3, bw, filler, NA, 999, 999, 8, 19, 139, 133, 152, 88, 172, 147, 3, 0.73236
387, 3, bw, filler, NA, 999, 999, 8, 19, 139, 133, 152, 88, 172, 147, 2, 0.646078
387, 3, bw, attraction, a-b-db, 5, 3, 8, 20, 120, 195, 195, 120, 117, 190, 3, 3.1379
387, 3, bw, attraction, a-b-db, 5, 3, 8, 20, 120, 195, 195, 120, 117, 190, 2, 0.506896
387, 3, bw, attraction, a-b-da, 14, 2, 8, 21, 153, 83, 165, 90, 90, 165, 3, 1.91602
387, 3, bw, attraction, a-b-da, 14, 2, 8, 21, 153, 83, 165, 90, 90, 165, 1, 1.19799
387, 3, bw, attraction, a-b-da, 2, 1, 8, 22, 134, 59, 135, 60, 60, 135, 3, 1.4915
387, 3, bw, attraction, a-b-da, 2, 1, 8, 22, 134, 59, 135, 60, 60, 135, 2, 0.918501
387, 3, bw, filler, NA, 999, 999, 8, 23, 85, 75, 145, 73, 83, 139, 3, 0.911369
387, 3, bw, filler, NA, 999, 999, 8, 23, 85, 75, 145, 73, 83, 139, 1, 0.721818
387, 3, bw, attraction, a-b-db, 9, 2, 8, 24, 86, 157, 90, 165, 165, 90, 2, 1.18692
387, 3, bw, attraction, a-b-db, 9, 2, 8, 24, 86, 157, 90, 165, 165, 90, 3, 0.794426
387, 3, bw, catch, NA, 999, 999, 8, 25, 165, 90, 118, 77, 141, 174, 3, 0.704051
387, 3, bw, catch, NA, 999, 999, 8, 25, 165, 90, 118, 77, 141, 174, 2, 0.499256
387, 3, bw, attraction, a-b-db, 14, 3, 8, 26, 195, 120, 111, 181, 120, 195, 2, 1.54094
387, 3, bw, attraction, a-b-db, 14, 3, 8, 26, 195, 120, 111, 181, 120, 195, 3, 1.26185
387, 3, bw, filler, NA, 999, 999, 8, 27, 69, 171, 110, 83, 195, 191, 3, 0.7607
387, 3, bw, filler, NA, 999, 999, 8, 27, 69, 171, 110, 83, 195, 191, 2, 1.01715
387, 3, bw, attraction, a-b-da, 5, 3, 8, 28, 195, 120, 190, 117, 120, 195, 2, 2.51004
387, 3, bw, attraction, a-b-da, 5, 3, 8, 28, 195, 120, 190, 117, 120, 195, 1, 2.07193
387, 3, bw, attraction, a-b-da, 9, 1, 8, 29, 129, 57, 135, 60, 60, 135, 3, 2.29053
387, 3, bw, attraction, a-b-da, 9, 1, 8, 29, 129, 57, 135, 60, 60, 135, 1, 0.653083
387, 3, bw, attraction, a-b-db, 14, 2, 8, 30, 165, 90, 83, 153, 90, 165, 3, 1.52888
387, 3, bw, attraction, a-b-db, 14, 2, 8, 30, 165, 90, 83, 153, 90, 165, 1, 0.594291
387, 3, bw, filler, NA, 999, 999, 8, 31, 183, 76, 59, 168, 189, 148, 3, 0.544058
387, 3, bw, filler, NA, 999, 999, 8, 31, 183, 76, 59, 168, 189, 148, 2, 0.633218
387, 3, bw, filler, NA, 999, 999, 8, 32, 131, 192, 172, 127, 181, 157, 3, 2.41365
387, 3, bw, filler, NA, 999, 999, 8, 32, 131, 192, 172, 127, 181, 157, 2, 0.587571
387, 3, bw, attraction, a-b-db, 5, 2, 8, 33, 90, 165, 88, 161, 165, 90, 3, 1.57012
387, 3, bw, attraction, a-b-db, 5, 2, 8, 33, 90, 165, 88, 161, 165, 90, 2, 0.602094
387, 3, bw, filler, NA, 999, 999, 8, 34, 150, 168, 165, 165, 106, 61, 2, 0.86386
387, 3, bw, filler, NA, 999, 999, 8, 34, 150, 168, 165, 165, 106, 61, 3, 0.58822
387, 3, bw, attraction, a-b-da, 14, 3, 8, 35, 120, 195, 181, 111, 195, 120, 3, 1.30667
387, 3, bw, attraction, a-b-da, 14, 3, 8, 35, 120, 195, 181, 111, 195, 120, 2, 0.469064
387, 3, bw, filler, NA, 999, 999, 8, 36, 113, 149, 155, 151, 112, 121, 2, 0.92808
387, 3, bw, filler, NA, 999, 999, 8, 36, 113, 149, 155, 151, 112, 121, 3, 0.721657
387, 3, bw, attraction, a-b-db, 5, 1, 8, 37, 135, 60, 60, 135, 58, 132, 2, 2.24282
387, 3, bw, attraction, a-b-db, 5, 1, 8, 37, 135, 60, 60, 135, 58, 132, 3, 0.703369
