sub_n, computer_n, bw_cond, effect, set, distance, diag, block_n, trial_n, h1, w1, h2, w2, h3, w3, choice, rt 
374, 3, wb, practice, NA, 999, 999, 0, 1, 192, 80, 98, 193, 195, 63, 3, 5.35139
374, 3, wb, practice, NA, 999, 999, 0, 1, 192, 80, 98, 193, 195, 63, 2, 2.27727
374, 3, wb, practice, NA, 999, 999, 0, 2, 97, 60, 117, 101, 188, 134, 1, 2.59649
374, 3, wb, practice, NA, 999, 999, 0, 2, 97, 60, 117, 101, 188, 134, 3, 0.969355
374, 3, wb, practice, NA, 999, 999, 0, 3, 190, 100, 78, 99, 123, 94, 2, 4.80542
374, 3, wb, practice, NA, 999, 999, 0, 3, 190, 100, 78, 99, 123, 94, 1, 2.21388
374, 3, wb, attraction, a-b-da, 9, 3, 1, 1, 120, 195, 186, 114, 195, 120, 2, 11.6216
374, 3, wb, attraction, a-b-da, 9, 3, 1, 1, 120, 195, 186, 114, 195, 120, 3, 4.01665
374, 3, wb, attraction, a-b-da, 5, 3, 1, 2, 195, 120, 120, 195, 190, 117, 3, 2.83655
374, 3, wb, attraction, a-b-da, 5, 3, 1, 2, 195, 120, 120, 195, 190, 117, 2, 1.3058
374, 3, wb, attraction, a-b-da, 9, 2, 1, 3, 165, 90, 157, 86, 90, 165, 2, 3.18715
374, 3, wb, attraction, a-b-da, 9, 2, 1, 3, 165, 90, 157, 86, 90, 165, 3, 4.09031
374, 3, wb, catch, NA, 999, 999, 1, 4, 106, 149, 193, 122, 64, 131, 3, 1.32345
374, 3, wb, catch, NA, 999, 999, 1, 4, 106, 149, 193, 122, 64, 131, 2, 1.58116
374, 3, wb, attraction, a-b-da, 2, 3, 1, 5, 120, 195, 193, 119, 195, 120, 3, 1.63522
374, 3, wb, attraction, a-b-da, 2, 3, 1, 5, 120, 195, 193, 119, 195, 120, 1, 0.496697
374, 3, wb, attraction, a-b-da, 14, 3, 1, 6, 195, 120, 181, 111, 120, 195, 2, 6.99438
374, 3, wb, attraction, a-b-da, 14, 3, 1, 6, 195, 120, 181, 111, 120, 195, 3, 1.99173
374, 3, wb, filler, NA, 999, 999, 1, 7, 93, 168, 174, 194, 67, 122, 3, 0.948879
374, 3, wb, filler, NA, 999, 999, 1, 7, 93, 168, 174, 194, 67, 122, 2, 2.00588
374, 3, wb, attraction, a-b-da, 9, 1, 1, 8, 135, 60, 129, 57, 60, 135, 3, 2.00315
374, 3, wb, attraction, a-b-da, 9, 1, 1, 8, 135, 60, 129, 57, 60, 135, 1, 2.11392
374, 3, wb, filler, NA, 999, 999, 1, 9, 98, 160, 163, 64, 127, 122, 2, 4.85044
374, 3, wb, filler, NA, 999, 999, 1, 9, 98, 160, 163, 64, 127, 122, 1, 3.99022
374, 3, wb, catch, NA, 999, 999, 1, 10, 134, 121, 175, 140, 84, 111, 3, 24.1318
374, 3, wb, catch, NA, 999, 999, 1, 10, 134, 121, 175, 140, 84, 111, 2, 1.41406
374, 3, wb, filler, NA, 999, 999, 1, 11, 64, 134, 62, 146, 74, 124, 1, 2.93088
374, 3, wb, filler, NA, 999, 999, 1, 11, 64, 134, 62, 146, 74, 124, 3, 0.635995
374, 3, wb, attraction, a-b-db, 14, 3, 1, 12, 195, 120, 120, 195, 111, 181, 3, 2.77644
374, 3, wb, attraction, a-b-db, 14, 3, 1, 12, 195, 120, 120, 195, 111, 181, 1, 0.647497
374, 3, wb, attraction, a-b-db, 5, 2, 1, 13, 165, 90, 88, 161, 90, 165, 2, 3.53127
374, 3, wb, attraction, a-b-db, 5, 2, 1, 13, 165, 90, 88, 161, 90, 165, 3, 0.836056
374, 3, wb, attraction, a-b-db, 9, 2, 1, 14, 90, 165, 86, 157, 165, 90, 2, 2.24847
374, 3, wb, attraction, a-b-db, 9, 2, 1, 14, 90, 165, 86, 157, 165, 90, 3, 2.69308
374, 3, wb, filler, NA, 999, 999, 1, 15, 60, 182, 73, 165, 62, 180, 3, 4.5982
374, 3, wb, filler, NA, 999, 999, 1, 15, 60, 182, 73, 165, 62, 180, 1, 1.9413
374, 3, wb, filler, NA, 999, 999, 1, 16, 156, 78, 74, 136, 167, 70, 2, 3.71549
374, 3, wb, filler, NA, 999, 999, 1, 16, 156, 78, 74, 136, 167, 70, 3, 1.41286
374, 3, wb, filler, NA, 999, 999, 1, 17, 130, 122, 102, 172, 180, 167, 1, 6.44169
374, 3, wb, filler, NA, 999, 999, 1, 17, 130, 122, 102, 172, 180, 167, 3, 0.548973
374, 3, wb, attraction, a-b-db, 9, 1, 1, 18, 57, 129, 60, 135, 135, 60, 1, 4.59672
374, 3, wb, attraction, a-b-db, 9, 1, 1, 18, 57, 129, 60, 135, 135, 60, 3, 1.7546
374, 3, wb, filler, NA, 999, 999, 1, 19, 106, 133, 166, 180, 111, 167, 1, 1.38597
374, 3, wb, filler, NA, 999, 999, 1, 19, 106, 133, 166, 180, 111, 167, 2, 1.00151
374, 3, wb, attraction, a-b-db, 2, 2, 1, 20, 165, 90, 90, 165, 89, 163, 2, 3.64722
374, 3, wb, attraction, a-b-db, 2, 2, 1, 20, 165, 90, 90, 165, 89, 163, 1, 0.731319
374, 3, wb, attraction, a-b-db, 5, 1, 1, 21, 135, 60, 60, 135, 58, 132, 3, 6.33976
374, 3, wb, attraction, a-b-db, 5, 1, 1, 21, 135, 60, 60, 135, 58, 132, 1, 1.42705
374, 3, wb, attraction, a-b-db, 9, 3, 1, 22, 195, 120, 120, 195, 114, 186, 3, 10.0792
374, 3, wb, attraction, a-b-db, 9, 3, 1, 22, 195, 120, 120, 195, 114, 186, 1, 0.840011
374, 3, wb, attraction, a-b-da, 2, 1, 1, 23, 135, 60, 60, 135, 134, 59, 2, 2.21181
374, 3, wb, attraction, a-b-da, 2, 1, 1, 23, 135, 60, 60, 135, 134, 59, 3, 0.873704
374, 3, wb, attraction, a-b-db, 5, 3, 1, 24, 117, 190, 120, 195, 195, 120, 2, 3.51594
374, 3, wb, attraction, a-b-db, 5, 3, 1, 24, 117, 190, 120, 195, 195, 120, 3, 0.413501
374, 3, wb, attraction, a-b-db, 14, 1, 1, 25, 56, 125, 135, 60, 60, 135, 2, 1.41064
374, 3, wb, attraction, a-b-db, 14, 1, 1, 25, 56, 125, 135, 60, 60, 135, 3, 8.70485
374, 3, wb, catch, NA, 999, 999, 1, 26, 170, 145, 148, 107, 84, 111, 3, 1.92012
374, 3, wb, catch, NA, 999, 999, 1, 26, 170, 145, 148, 107, 84, 111, 1, 1.40212
374, 3, wb, filler, NA, 999, 999, 1, 27, 194, 91, 161, 148, 143, 175, 1, 2.8716
374, 3, wb, filler, NA, 999, 999, 1, 27, 194, 91, 161, 148, 143, 175, 3, 1.06736
374, 3, wb, attraction, a-b-da, 5, 1, 1, 28, 132, 58, 135, 60, 60, 135, 3, 7.81422
374, 3, wb, attraction, a-b-da, 5, 1, 1, 28, 132, 58, 135, 60, 60, 135, 1, 0.682484
374, 3, wb, filler, NA, 999, 999, 1, 29, 90, 75, 158, 149, 182, 137, 1, 2.31691
374, 3, wb, filler, NA, 999, 999, 1, 29, 90, 75, 158, 149, 182, 137, 3, 2.19098
374, 3, wb, attraction, a-b-db, 14, 2, 1, 30, 90, 165, 83, 153, 165, 90, 2, 2.34806
374, 3, wb, attraction, a-b-db, 14, 2, 1, 30, 90, 165, 83, 153, 165, 90, 3, 0.676687
374, 3, wb, filler, NA, 999, 999, 1, 31, 92, 93, 56, 72, 165, 104, 2, 0.870969
374, 3, wb, filler, NA, 999, 999, 1, 31, 92, 93, 56, 72, 165, 104, 3, 0.595369
374, 3, wb, attraction, a-b-da, 14, 1, 1, 32, 125, 56, 60, 135, 135, 60, 1, 2.51308
374, 3, wb, attraction, a-b-da, 14, 1, 1, 32, 125, 56, 60, 135, 135, 60, 3, 1.82705
374, 3, wb, attraction, a-b-da, 2, 2, 1, 33, 165, 90, 163, 89, 90, 165, 1, 5.17505
374, 3, wb, attraction, a-b-da, 2, 2, 1, 33, 165, 90, 163, 89, 90, 165, 2, 1.28543
374, 3, wb, attraction, a-b-db, 2, 1, 1, 34, 59, 134, 135, 60, 60, 135, 1, 1.97576
374, 3, wb, attraction, a-b-db, 2, 1, 1, 34, 59, 134, 135, 60, 60, 135, 3, 0.84701
374, 3, wb, attraction, a-b-db, 2, 3, 1, 35, 195, 120, 120, 195, 119, 193, 3, 9.81868
374, 3, wb, attraction, a-b-db, 2, 3, 1, 35, 195, 120, 120, 195, 119, 193, 1, 1.2863
374, 3, wb, attraction, a-b-da, 5, 2, 1, 36, 161, 88, 90, 165, 165, 90, 2, 7.12842
374, 3, wb, attraction, a-b-da, 5, 2, 1, 36, 161, 88, 90, 165, 165, 90, 3, 0.744169
374, 3, wb, attraction, a-b-da, 14, 2, 1, 37, 165, 90, 90, 165, 153, 83, 2, 6.96787
374, 3, wb, attraction, a-b-da, 14, 2, 1, 37, 165, 90, 90, 165, 153, 83, 1, 0.542354
374, 3, wb, attraction, a-b-da, 14, 1, 2, 1, 60, 135, 125, 56, 135, 60, 3, 3.40615
374, 3, wb, attraction, a-b-da, 14, 1, 2, 1, 60, 135, 125, 56, 135, 60, 1, 3.97164
374, 3, wb, filler, NA, 999, 999, 2, 2, 159, 115, 77, 108, 173, 102, 2, 1.12973
374, 3, wb, filler, NA, 999, 999, 2, 2, 159, 115, 77, 108, 173, 102, 1, 0.899367
374, 3, wb, attraction, a-b-db, 2, 3, 2, 3, 195, 120, 119, 193, 120, 195, 2, 17.317
374, 3, wb, attraction, a-b-db, 2, 3, 2, 3, 195, 120, 119, 193, 120, 195, 1, 1.50639
374, 3, wb, attraction, a-b-da, 14, 2, 2, 4, 90, 165, 153, 83, 165, 90, 2, 1.74762
374, 3, wb, attraction, a-b-da, 14, 2, 2, 4, 90, 165, 153, 83, 165, 90, 1, 1.48458
374, 3, wb, attraction, a-b-da, 2, 3, 2, 5, 195, 120, 120, 195, 193, 119, 3, 2.1347
374, 3, wb, attraction, a-b-da, 2, 3, 2, 5, 195, 120, 120, 195, 193, 119, 2, 1.64795
374, 3, wb, attraction, a-b-db, 9, 3, 2, 6, 114, 186, 120, 195, 195, 120, 3, 1.61144
374, 3, wb, attraction, a-b-db, 9, 3, 2, 6, 114, 186, 120, 195, 195, 120, 1, 0.353549
374, 3, wb, filler, NA, 999, 999, 2, 7, 181, 171, 152, 164, 158, 85, 3, 1.51333
374, 3, wb, filler, NA, 999, 999, 2, 7, 181, 171, 152, 164, 158, 85, 1, 0.867533
374, 3, wb, filler, NA, 999, 999, 2, 8, 60, 158, 57, 170, 119, 102, 2, 37.2624
374, 3, wb, filler, NA, 999, 999, 2, 8, 60, 158, 57, 170, 119, 102, 3, 0.504251
374, 3, wb, attraction, a-b-db, 14, 1, 2, 9, 135, 60, 60, 135, 56, 125, 3, 2.54597
374, 3, wb, attraction, a-b-db, 14, 1, 2, 9, 135, 60, 60, 135, 56, 125, 1, 0.74643
374, 3, wb, attraction, a-b-db, 14, 2, 2, 10, 90, 165, 165, 90, 83, 153, 3, 0.962131
374, 3, wb, attraction, a-b-db, 14, 2, 2, 10, 90, 165, 165, 90, 83, 153, 2, 0.570466
374, 3, wb, attraction, a-b-db, 14, 3, 2, 11, 111, 181, 195, 120, 120, 195, 3, 1.40161
374, 3, wb, attraction, a-b-db, 14, 3, 2, 11, 111, 181, 195, 120, 120, 195, 2, 0.792564
374, 3, wb, attraction, a-b-db, 9, 1, 2, 12, 135, 60, 57, 129, 60, 135, 3, 0.806313
374, 3, wb, attraction, a-b-db, 9, 1, 2, 12, 135, 60, 57, 129, 60, 135, 1, 0.444508
374, 3, wb, filler, NA, 999, 999, 2, 13, 138, 168, 93, 105, 141, 88, 2, 1.1923
374, 3, wb, filler, NA, 999, 999, 2, 13, 138, 168, 93, 105, 141, 88, 1, 0.63133
374, 3, wb, filler, NA, 999, 999, 2, 14, 99, 95, 68, 127, 66, 166, 2, 18.0358
374, 3, wb, filler, NA, 999, 999, 2, 14, 99, 95, 68, 127, 66, 166, 1, 1.01197
374, 3, wb, attraction, a-b-da, 2, 2, 2, 15, 163, 89, 165, 90, 90, 165, 1, 5.92089
374, 3, wb, attraction, a-b-da, 2, 2, 2, 15, 163, 89, 165, 90, 90, 165, 3, 0.665803
374, 3, wb, filler, NA, 999, 999, 2, 16, 139, 63, 88, 87, 75, 56, 3, 1.72491
374, 3, wb, filler, NA, 999, 999, 2, 16, 139, 63, 88, 87, 75, 56, 1, 2.59833
374, 3, wb, filler, NA, 999, 999, 2, 17, 147, 103, 169, 123, 190, 146, 1, 5.79547
374, 3, wb, filler, NA, 999, 999, 2, 17, 147, 103, 169, 123, 190, 146, 3, 1.25703
374, 3, wb, filler, NA, 999, 999, 2, 18, 131, 64, 94, 194, 93, 127, 1, 3.21984
374, 3, wb, filler, NA, 999, 999, 2, 18, 131, 64, 94, 194, 93, 127, 2, 1.04956
374, 3, wb, catch, NA, 999, 999, 2, 19, 93, 162, 127, 188, 129, 66, 3, 0.957171
374, 3, wb, catch, NA, 999, 999, 2, 19, 93, 162, 127, 188, 129, 66, 2, 0.677351
374, 3, wb, attraction, a-b-da, 5, 1, 2, 20, 132, 58, 135, 60, 60, 135, 1, 0.767766
374, 3, wb, attraction, a-b-da, 5, 1, 2, 20, 132, 58, 135, 60, 60, 135, 3, 0.416137
374, 3, wb, attraction, a-b-da, 9, 2, 2, 21, 90, 165, 157, 86, 165, 90, 3, 1.37336
374, 3, wb, attraction, a-b-da, 9, 2, 2, 21, 90, 165, 157, 86, 165, 90, 1, 0.364825
374, 3, wb, attraction, a-b-da, 5, 3, 2, 22, 120, 195, 190, 117, 195, 120, 2, 2.39605
374, 3, wb, attraction, a-b-da, 5, 3, 2, 22, 120, 195, 190, 117, 195, 120, 1, 0.410604
374, 3, wb, catch, NA, 999, 999, 2, 23, 93, 102, 157, 158, 127, 128, 1, 2.01578
374, 3, wb, catch, NA, 999, 999, 2, 23, 93, 102, 157, 158, 127, 128, 2, 0.693793
374, 3, wb, filler, NA, 999, 999, 2, 24, 112, 110, 94, 174, 162, 62, 3, 0.967454
374, 3, wb, filler, NA, 999, 999, 2, 24, 112, 110, 94, 174, 162, 62, 2, 1.94386
374, 3, wb, attraction, a-b-db, 5, 1, 2, 25, 58, 132, 60, 135, 135, 60, 2, 0.967117
374, 3, wb, attraction, a-b-db, 5, 1, 2, 25, 58, 132, 60, 135, 135, 60, 3, 0.647592
374, 3, wb, attraction, a-b-da, 9, 3, 2, 26, 195, 120, 120, 195, 186, 114, 1, 1.04318
374, 3, wb, attraction, a-b-da, 9, 3, 2, 26, 195, 120, 120, 195, 186, 114, 2, 0.400122
374, 3, wb, catch, NA, 999, 999, 2, 27, 75, 120, 176, 139, 157, 98, 1, 2.23796
374, 3, wb, catch, NA, 999, 999, 2, 27, 75, 120, 176, 139, 157, 98, 2, 0.411268
374, 3, wb, attraction, a-b-db, 5, 2, 2, 28, 90, 165, 165, 90, 88, 161, 1, 0.864483
374, 3, wb, attraction, a-b-db, 5, 2, 2, 28, 90, 165, 165, 90, 88, 161, 2, 0.644947
374, 3, wb, attraction, a-b-da, 9, 1, 2, 29, 60, 135, 135, 60, 129, 57, 1, 0.728531
374, 3, wb, attraction, a-b-da, 9, 1, 2, 29, 60, 135, 135, 60, 129, 57, 3, 0.570338
374, 3, wb, attraction, a-b-db, 2, 1, 2, 30, 135, 60, 59, 134, 60, 135, 2, 0.609359
374, 3, wb, attraction, a-b-db, 2, 1, 2, 30, 135, 60, 59, 134, 60, 135, 1, 2.02376
374, 3, wb, filler, NA, 999, 999, 2, 31, 171, 110, 83, 76, 65, 86, 2, 1.45972
374, 3, wb, filler, NA, 999, 999, 2, 31, 171, 110, 83, 76, 65, 86, 1, 1.08795
374, 3, wb, attraction, a-b-db, 5, 3, 2, 32, 195, 120, 120, 195, 117, 190, 2, 0.506269
374, 3, wb, attraction, a-b-db, 5, 3, 2, 32, 195, 120, 120, 195, 117, 190, 1, 0.668714
374, 3, wb, attraction, a-b-db, 9, 2, 2, 33, 90, 165, 86, 157, 165, 90, 2, 0.903833
374, 3, wb, attraction, a-b-db, 9, 2, 2, 33, 90, 165, 86, 157, 165, 90, 1, 1.06687
374, 3, wb, attraction, a-b-db, 2, 2, 2, 34, 89, 163, 165, 90, 90, 165, 3, 1.0058
374, 3, wb, attraction, a-b-db, 2, 2, 2, 34, 89, 163, 165, 90, 90, 165, 2, 0.4441
374, 3, wb, attraction, a-b-da, 14, 3, 2, 35, 181, 111, 195, 120, 120, 195, 3, 2.34404
374, 3, wb, attraction, a-b-da, 14, 3, 2, 35, 181, 111, 195, 120, 120, 195, 2, 0.264508
374, 3, wb, attraction, a-b-da, 5, 2, 2, 36, 161, 88, 165, 90, 90, 165, 3, 0.715759
374, 3, wb, attraction, a-b-da, 5, 2, 2, 36, 161, 88, 165, 90, 90, 165, 2, 0.510091
374, 3, wb, attraction, a-b-da, 2, 1, 2, 37, 60, 135, 134, 59, 135, 60, 1, 0.831171
374, 3, wb, attraction, a-b-da, 2, 1, 2, 37, 60, 135, 134, 59, 135, 60, 2, 0.836943
374, 3, wb, filler, NA, 999, 999, 3, 1, 72, 181, 88, 124, 153, 73, 2, 1.86525
374, 3, wb, filler, NA, 999, 999, 3, 1, 72, 181, 88, 124, 153, 73, 1, 0.573304
374, 3, wb, attraction, a-b-da, 2, 1, 3, 2, 135, 60, 60, 135, 134, 59, 2, 0.812376
374, 3, wb, attraction, a-b-da, 2, 1, 3, 2, 135, 60, 60, 135, 134, 59, 3, 0.298809
374, 3, wb, catch, NA, 999, 999, 3, 3, 142, 173, 65, 130, 105, 150, 2, 1.31657
374, 3, wb, catch, NA, 999, 999, 3, 3, 142, 173, 65, 130, 105, 150, 1, 0.782865
374, 3, wb, attraction, a-b-da, 2, 2, 3, 4, 163, 89, 165, 90, 90, 165, 3, 0.813344
374, 3, wb, attraction, a-b-da, 2, 2, 3, 4, 163, 89, 165, 90, 90, 165, 2, 0.675673
374, 3, wb, catch, NA, 999, 999, 3, 5, 144, 111, 194, 121, 109, 86, 3, 1.73406
374, 3, wb, catch, NA, 999, 999, 3, 5, 144, 111, 194, 121, 109, 86, 2, 0.967494
374, 3, wb, attraction, a-b-db, 14, 3, 3, 6, 120, 195, 195, 120, 111, 181, 3, 0.550569
374, 3, wb, attraction, a-b-db, 14, 3, 3, 6, 120, 195, 195, 120, 111, 181, 2, 0.455577
374, 3, wb, attraction, a-b-db, 5, 3, 3, 7, 195, 120, 117, 190, 120, 195, 3, 0.507397
374, 3, wb, attraction, a-b-db, 5, 3, 3, 7, 195, 120, 117, 190, 120, 195, 1, 0.501991
374, 3, wb, attraction, a-b-da, 9, 1, 3, 8, 60, 135, 129, 57, 135, 60, 2, 0.743604
374, 3, wb, attraction, a-b-da, 9, 1, 3, 8, 60, 135, 129, 57, 135, 60, 3, 0.392761
374, 3, wb, attraction, a-b-db, 14, 1, 3, 9, 56, 125, 135, 60, 60, 135, 2, 0.478543
374, 3, wb, attraction, a-b-db, 14, 1, 3, 9, 56, 125, 135, 60, 60, 135, 3, 0.426357
374, 3, wb, filler, NA, 999, 999, 3, 10, 85, 70, 193, 120, 191, 110, 1, 1.27876
374, 3, wb, filler, NA, 999, 999, 3, 10, 85, 70, 193, 120, 191, 110, 2, 0.378318
374, 3, wb, attraction, a-b-db, 9, 1, 3, 11, 60, 135, 57, 129, 135, 60, 3, 0.880775
374, 3, wb, attraction, a-b-db, 9, 1, 3, 11, 60, 135, 57, 129, 135, 60, 2, 0.716566
374, 3, wb, attraction, a-b-db, 9, 2, 3, 12, 90, 165, 165, 90, 86, 157, 3, 0.525605
374, 3, wb, attraction, a-b-db, 9, 2, 3, 12, 90, 165, 165, 90, 86, 157, 2, 0.463469
374, 3, wb, attraction, a-b-da, 14, 1, 3, 13, 135, 60, 60, 135, 125, 56, 1, 0.930562
374, 3, wb, attraction, a-b-da, 14, 1, 3, 13, 135, 60, 60, 135, 125, 56, 2, 0.46027
374, 3, wb, attraction, a-b-da, 5, 1, 3, 14, 132, 58, 135, 60, 60, 135, 3, 0.639431
374, 3, wb, attraction, a-b-da, 5, 1, 3, 14, 132, 58, 135, 60, 60, 135, 1, 0.612521
374, 3, wb, attraction, a-b-db, 14, 2, 3, 15, 165, 90, 83, 153, 90, 165, 3, 0.345576
374, 3, wb, attraction, a-b-db, 14, 2, 3, 15, 165, 90, 83, 153, 90, 165, 2, 0.434776
374, 3, wb, attraction, a-b-da, 2, 3, 3, 16, 195, 120, 120, 195, 193, 119, 1, 0.663255
374, 3, wb, attraction, a-b-da, 2, 3, 3, 16, 195, 120, 120, 195, 193, 119, 2, 0.947737
374, 3, wb, attraction, a-b-da, 5, 3, 3, 17, 120, 195, 190, 117, 195, 120, 3, 0.395349
374, 3, wb, attraction, a-b-da, 5, 3, 3, 17, 120, 195, 190, 117, 195, 120, 2, 0.906608
374, 3, wb, attraction, a-b-da, 14, 3, 3, 18, 195, 120, 120, 195, 181, 111, 3, 0.4841
374, 3, wb, attraction, a-b-da, 14, 3, 3, 18, 195, 120, 120, 195, 181, 111, 2, 0.615913
374, 3, wb, attraction, a-b-db, 2, 1, 3, 19, 60, 135, 135, 60, 59, 134, 1, 0.685023
374, 3, wb, attraction, a-b-db, 2, 1, 3, 19, 60, 135, 135, 60, 59, 134, 2, 0.624899
374, 3, wb, filler, NA, 999, 999, 3, 20, 70, 138, 158, 123, 110, 170, 3, 0.477233
374, 3, wb, filler, NA, 999, 999, 3, 20, 70, 138, 158, 123, 110, 170, 2, 0.793082
374, 3, wb, attraction, a-b-da, 9, 2, 3, 21, 157, 86, 165, 90, 90, 165, 3, 0.382796
374, 3, wb, attraction, a-b-da, 9, 2, 3, 21, 157, 86, 165, 90, 90, 165, 1, 0.790667
374, 3, wb, attraction, a-b-da, 5, 2, 3, 22, 161, 88, 90, 165, 165, 90, 3, 1.09237
374, 3, wb, attraction, a-b-da, 5, 2, 3, 22, 161, 88, 90, 165, 165, 90, 2, 0.575283
374, 3, wb, filler, NA, 999, 999, 3, 23, 152, 150, 144, 171, 81, 190, 1, 0.685625
374, 3, wb, filler, NA, 999, 999, 3, 23, 152, 150, 144, 171, 81, 190, 2, 0.481416
374, 3, wb, filler, NA, 999, 999, 3, 24, 144, 74, 112, 140, 82, 116, 3, 0.571909
374, 3, wb, filler, NA, 999, 999, 3, 24, 144, 74, 112, 140, 82, 116, 2, 0.571802
374, 3, wb, attraction, a-b-da, 14, 2, 3, 25, 165, 90, 153, 83, 90, 165, 3, 0.426869
374, 3, wb, attraction, a-b-da, 14, 2, 3, 25, 165, 90, 153, 83, 90, 165, 2, 0.816721
374, 3, wb, filler, NA, 999, 999, 3, 26, 107, 70, 154, 115, 119, 111, 1, 0.73372
374, 3, wb, filler, NA, 999, 999, 3, 26, 107, 70, 154, 115, 119, 111, 2, 0.407423
374, 3, wb, attraction, a-b-da, 9, 3, 3, 27, 120, 195, 186, 114, 195, 120, 2, 2.02853
374, 3, wb, attraction, a-b-da, 9, 3, 3, 27, 120, 195, 186, 114, 195, 120, 1, 0.537919
374, 3, wb, catch, NA, 999, 999, 3, 28, 174, 141, 116, 79, 158, 97, 2, 0.626287
374, 3, wb, catch, NA, 999, 999, 3, 28, 174, 141, 116, 79, 158, 97, 1, 0.448163
374, 3, wb, attraction, a-b-db, 2, 3, 3, 29, 120, 195, 195, 120, 119, 193, 3, 0.819848
374, 3, wb, attraction, a-b-db, 2, 3, 3, 29, 120, 195, 195, 120, 119, 193, 1, 0.690217
374, 3, wb, filler, NA, 999, 999, 3, 30, 84, 193, 142, 120, 133, 141, 2, 0.531964
374, 3, wb, filler, NA, 999, 999, 3, 30, 84, 193, 142, 120, 133, 141, 3, 1.46987
374, 3, wb, filler, NA, 999, 999, 3, 31, 129, 64, 89, 76, 172, 95, 2, 8.66466
374, 3, wb, filler, NA, 999, 999, 3, 31, 129, 64, 89, 76, 172, 95, 3, 0.626622
374, 3, wb, attraction, a-b-db, 5, 1, 3, 32, 135, 60, 60, 135, 58, 132, 3, 0.870924
374, 3, wb, attraction, a-b-db, 5, 1, 3, 32, 135, 60, 60, 135, 58, 132, 1, 0.63531
374, 3, wb, attraction, a-b-db, 2, 2, 3, 33, 90, 165, 165, 90, 89, 163, 2, 0.535783
374, 3, wb, attraction, a-b-db, 2, 2, 3, 33, 90, 165, 165, 90, 89, 163, 3, 0.697714
374, 3, wb, attraction, a-b-db, 9, 3, 3, 34, 114, 186, 120, 195, 195, 120, 2, 0.475354
374, 3, wb, attraction, a-b-db, 9, 3, 3, 34, 114, 186, 120, 195, 195, 120, 3, 0.967273
374, 3, wb, attraction, a-b-db, 5, 2, 3, 35, 88, 161, 165, 90, 90, 165, 2, 0.806058
374, 3, wb, attraction, a-b-db, 5, 2, 3, 35, 88, 161, 165, 90, 90, 165, 1, 0.428628
374, 3, wb, filler, NA, 999, 999, 3, 36, 130, 89, 129, 78, 177, 118, 2, 0.449054
374, 3, wb, filler, NA, 999, 999, 3, 36, 130, 89, 129, 78, 177, 118, 3, 0.35828
374, 3, wb, filler, NA, 999, 999, 3, 37, 61, 98, 186, 119, 164, 94, 2, 0.477242
374, 3, wb, filler, NA, 999, 999, 3, 37, 61, 98, 186, 119, 164, 94, 1, 1.84107
374, 3, wb, filler, NA, 999, 999, 4, 1, 154, 134, 178, 175, 151, 156, 3, 2.05254
374, 3, wb, filler, NA, 999, 999, 4, 1, 154, 134, 178, 175, 151, 156, 2, 0.497118
374, 3, wb, attraction, a-b-da, 14, 3, 4, 2, 181, 111, 195, 120, 120, 195, 2, 1.78687
374, 3, wb, attraction, a-b-da, 14, 3, 4, 2, 181, 111, 195, 120, 120, 195, 3, 0.634418
374, 3, wb, attraction, a-b-db, 9, 1, 4, 3, 57, 129, 60, 135, 135, 60, 1, 1.39073
374, 3, wb, attraction, a-b-db, 9, 1, 4, 3, 57, 129, 60, 135, 135, 60, 2, 0.517593
374, 3, wb, attraction, a-b-db, 9, 3, 4, 4, 195, 120, 120, 195, 114, 186, 3, 1.35069
374, 3, wb, attraction, a-b-db, 9, 3, 4, 4, 195, 120, 120, 195, 114, 186, 2, 0.591559
374, 3, wb, attraction, a-b-da, 14, 2, 4, 5, 90, 165, 153, 83, 165, 90, 2, 1.26136
374, 3, wb, attraction, a-b-da, 14, 2, 4, 5, 90, 165, 153, 83, 165, 90, 1, 2.67363
374, 3, wb, attraction, a-b-db, 9, 2, 4, 6, 86, 157, 90, 165, 165, 90, 3, 1.78803
374, 3, wb, attraction, a-b-db, 9, 2, 4, 6, 86, 157, 90, 165, 165, 90, 1, 0.546794
374, 3, wb, filler, NA, 999, 999, 4, 7, 82, 128, 172, 167, 116, 106, 3, 0.730683
374, 3, wb, filler, NA, 999, 999, 4, 7, 82, 128, 172, 167, 116, 106, 2, 0.548447
374, 3, wb, attraction, a-b-db, 5, 3, 4, 8, 195, 120, 117, 190, 120, 195, 2, 1.14011
374, 3, wb, attraction, a-b-db, 5, 3, 4, 8, 195, 120, 117, 190, 120, 195, 1, 0.965011
374, 3, wb, attraction, a-b-db, 5, 1, 4, 9, 135, 60, 58, 132, 60, 135, 3, 0.636036
374, 3, wb, attraction, a-b-db, 5, 1, 4, 9, 135, 60, 58, 132, 60, 135, 2, 1.81782
374, 3, wb, filler, NA, 999, 999, 4, 10, 158, 164, 62, 112, 163, 142, 2, 0.958675
374, 3, wb, filler, NA, 999, 999, 4, 10, 158, 164, 62, 112, 163, 142, 1, 0.894928
374, 3, wb, attraction, a-b-db, 14, 2, 4, 11, 165, 90, 83, 153, 90, 165, 3, 0.728521
374, 3, wb, attraction, a-b-db, 14, 2, 4, 11, 165, 90, 83, 153, 90, 165, 1, 0.834295
374, 3, wb, filler, NA, 999, 999, 4, 12, 82, 105, 155, 132, 148, 144, 1, 1.27856
374, 3, wb, filler, NA, 999, 999, 4, 12, 82, 105, 155, 132, 148, 144, 3, 1.44215
374, 3, wb, attraction, a-b-da, 9, 2, 4, 13, 90, 165, 157, 86, 165, 90, 3, 2.69361
374, 3, wb, attraction, a-b-da, 9, 2, 4, 13, 90, 165, 157, 86, 165, 90, 1, 0.53615
374, 3, wb, filler, NA, 999, 999, 4, 14, 181, 98, 68, 153, 182, 97, 2, 0.744669
374, 3, wb, filler, NA, 999, 999, 4, 14, 181, 98, 68, 153, 182, 97, 3, 0.537649
374, 3, wb, catch, NA, 999, 999, 4, 15, 121, 194, 117, 138, 71, 124, 3, 0.770027
374, 3, wb, catch, NA, 999, 999, 4, 15, 121, 194, 117, 138, 71, 124, 1, 0.634552
374, 3, wb, attraction, a-b-da, 2, 3, 4, 16, 193, 119, 120, 195, 195, 120, 3, 1.28687
374, 3, wb, attraction, a-b-da, 2, 3, 4, 16, 193, 119, 120, 195, 195, 120, 1, 0.970477
374, 3, wb, attraction, a-b-da, 9, 1, 4, 17, 129, 57, 60, 135, 135, 60, 2, 0.593407
374, 3, wb, attraction, a-b-da, 9, 1, 4, 17, 129, 57, 60, 135, 135, 60, 3, 0.656524
374, 3, wb, attraction, a-b-da, 2, 2, 4, 18, 90, 165, 163, 89, 165, 90, 1, 1.14024
374, 3, wb, attraction, a-b-da, 2, 2, 4, 18, 90, 165, 163, 89, 165, 90, 2, 0.381233
374, 3, wb, attraction, a-b-db, 5, 2, 4, 19, 90, 165, 88, 161, 165, 90, 1, 0.643641
374, 3, wb, attraction, a-b-db, 5, 2, 4, 19, 90, 165, 88, 161, 165, 90, 2, 0.616961
374, 3, wb, attraction, a-b-da, 9, 3, 4, 20, 186, 114, 195, 120, 120, 195, 3, 0.858711
374, 3, wb, attraction, a-b-da, 9, 3, 4, 20, 186, 114, 195, 120, 120, 195, 2, 0.434263
374, 3, wb, attraction, a-b-db, 14, 3, 4, 21, 111, 181, 195, 120, 120, 195, 3, 0.454822
374, 3, wb, attraction, a-b-db, 14, 3, 4, 21, 111, 181, 195, 120, 120, 195, 2, 0.363251
374, 3, wb, catch, NA, 999, 999, 4, 22, 166, 149, 98, 157, 76, 119, 3, 1.16242
374, 3, wb, catch, NA, 999, 999, 4, 22, 166, 149, 98, 157, 76, 119, 2, 0.410728
374, 3, wb, catch, NA, 999, 999, 4, 23, 111, 84, 188, 127, 111, 144, 1, 0.631915
374, 3, wb, catch, NA, 999, 999, 4, 23, 111, 84, 188, 127, 111, 144, 2, 0.461614
374, 3, wb, filler, NA, 999, 999, 4, 24, 126, 167, 57, 160, 190, 120, 2, 0.89679
374, 3, wb, filler, NA, 999, 999, 4, 24, 126, 167, 57, 160, 190, 120, 3, 1.65976
374, 3, wb, attraction, a-b-db, 14, 1, 4, 25, 135, 60, 60, 135, 56, 125, 2, 0.542508
374, 3, wb, attraction, a-b-db, 14, 1, 4, 25, 135, 60, 60, 135, 56, 125, 1, 1.15183
374, 3, wb, attraction, a-b-da, 5, 1, 4, 26, 60, 135, 132, 58, 135, 60, 3, 0.655276
374, 3, wb, attraction, a-b-da, 5, 1, 4, 26, 60, 135, 132, 58, 135, 60, 2, 0.371705
374, 3, wb, attraction, a-b-db, 2, 1, 4, 27, 135, 60, 60, 135, 59, 134, 1, 0.818934
374, 3, wb, attraction, a-b-db, 2, 1, 4, 27, 135, 60, 60, 135, 59, 134, 2, 1.21721
374, 3, wb, filler, NA, 999, 999, 4, 28, 155, 85, 195, 67, 121, 116, 1, 3.05419
374, 3, wb, filler, NA, 999, 999, 4, 28, 155, 85, 195, 67, 121, 116, 2, 3.55463
374, 3, wb, attraction, a-b-da, 14, 1, 4, 29, 125, 56, 135, 60, 60, 135, 3, 2.29728
374, 3, wb, attraction, a-b-da, 14, 1, 4, 29, 125, 56, 135, 60, 60, 135, 2, 0.491855
374, 3, wb, filler, NA, 999, 999, 4, 30, 168, 98, 153, 105, 164, 91, 3, 0.525632
374, 3, wb, filler, NA, 999, 999, 4, 30, 168, 98, 153, 105, 164, 91, 2, 0.431451
374, 3, wb, attraction, a-b-da, 5, 3, 4, 31, 120, 195, 190, 117, 195, 120, 1, 0.515962
374, 3, wb, attraction, a-b-da, 5, 3, 4, 31, 120, 195, 190, 117, 195, 120, 2, 0.654476
374, 3, wb, attraction, a-b-db, 2, 2, 4, 32, 165, 90, 89, 163, 90, 165, 3, 0.434184
374, 3, wb, attraction, a-b-db, 2, 2, 4, 32, 165, 90, 89, 163, 90, 165, 1, 0.479971
374, 3, wb, filler, NA, 999, 999, 4, 33, 103, 67, 65, 91, 167, 151, 3, 0.34646
374, 3, wb, filler, NA, 999, 999, 4, 33, 103, 67, 65, 91, 167, 151, 2, 2.16366
374, 3, wb, attraction, a-b-da, 5, 2, 4, 34, 90, 165, 161, 88, 165, 90, 3, 0.794429
374, 3, wb, attraction, a-b-da, 5, 2, 4, 34, 90, 165, 161, 88, 165, 90, 2, 1.31339
374, 3, wb, attraction, a-b-db, 2, 3, 4, 35, 119, 193, 195, 120, 120, 195, 1, 5.15427
374, 3, wb, attraction, a-b-db, 2, 3, 4, 35, 119, 193, 195, 120, 120, 195, 2, 0.505932
374, 3, wb, attraction, a-b-da, 2, 1, 4, 36, 134, 59, 60, 135, 135, 60, 3, 0.659736
374, 3, wb, attraction, a-b-da, 2, 1, 4, 36, 134, 59, 60, 135, 135, 60, 2, 1.12818
374, 3, wb, filler, NA, 999, 999, 4, 37, 192, 176, 110, 160, 186, 132, 2, 0.920407
374, 3, wb, filler, NA, 999, 999, 4, 37, 192, 176, 110, 160, 186, 132, 3, 0.522737
374, 3, wb, attraction, a-b-da, 5, 2, 5, 1, 165, 90, 161, 88, 90, 165, 3, 3.79371
374, 3, wb, attraction, a-b-da, 5, 2, 5, 1, 165, 90, 161, 88, 90, 165, 1, 0.527991
374, 3, wb, attraction, a-b-db, 2, 2, 5, 2, 90, 165, 89, 163, 165, 90, 3, 0.936383
374, 3, wb, attraction, a-b-db, 2, 2, 5, 2, 90, 165, 89, 163, 165, 90, 2, 0.362055
374, 3, wb, filler, NA, 999, 999, 5, 3, 193, 82, 95, 107, 183, 135, 2, 0.793145
374, 3, wb, filler, NA, 999, 999, 5, 3, 193, 82, 95, 107, 183, 135, 3, 0.472302
374, 3, wb, attraction, a-b-da, 9, 3, 5, 4, 195, 120, 186, 114, 120, 195, 3, 0.65944
374, 3, wb, attraction, a-b-da, 9, 3, 5, 4, 195, 120, 186, 114, 120, 195, 2, 0.335875
374, 3, wb, attraction, a-b-db, 14, 3, 5, 5, 195, 120, 111, 181, 120, 195, 3, 0.584384
374, 3, wb, attraction, a-b-db, 14, 3, 5, 5, 195, 120, 111, 181, 120, 195, 2, 0.296133
374, 3, wb, filler, NA, 999, 999, 5, 6, 75, 75, 58, 182, 75, 116, 1, 0.857888
374, 3, wb, filler, NA, 999, 999, 5, 6, 75, 75, 58, 182, 75, 116, 3, 0.910282
374, 3, wb, attraction, a-b-da, 5, 1, 5, 7, 132, 58, 135, 60, 60, 135, 3, 1.17527
374, 3, wb, attraction, a-b-da, 5, 1, 5, 7, 132, 58, 135, 60, 60, 135, 2, 0.406939
374, 3, wb, attraction, a-b-db, 5, 1, 5, 8, 60, 135, 58, 132, 135, 60, 1, 1.41205
374, 3, wb, attraction, a-b-db, 5, 1, 5, 8, 60, 135, 58, 132, 135, 60, 3, 0.538345
374, 3, wb, filler, NA, 999, 999, 5, 9, 78, 113, 175, 142, 67, 132, 3, 1.61071
374, 3, wb, filler, NA, 999, 999, 5, 9, 78, 113, 175, 142, 67, 132, 2, 0.432839
374, 3, wb, filler, NA, 999, 999, 5, 10, 163, 153, 123, 124, 64, 164, 3, 0.6453
374, 3, wb, filler, NA, 999, 999, 5, 10, 163, 153, 123, 124, 64, 164, 1, 2.75441
374, 3, wb, attraction, a-b-db, 9, 2, 5, 11, 90, 165, 165, 90, 86, 157, 3, 0.5936
374, 3, wb, attraction, a-b-db, 9, 2, 5, 11, 90, 165, 165, 90, 86, 157, 2, 0.456694
374, 3, wb, attraction, a-b-db, 2, 3, 5, 12, 120, 195, 119, 193, 195, 120, 3, 0.979856
374, 3, wb, attraction, a-b-db, 2, 3, 5, 12, 120, 195, 119, 193, 195, 120, 1, 0.451397
374, 3, wb, attraction, a-b-db, 14, 2, 5, 13, 90, 165, 165, 90, 83, 153, 1, 0.831282
374, 3, wb, attraction, a-b-db, 14, 2, 5, 13, 90, 165, 165, 90, 83, 153, 2, 1.38103
374, 3, wb, filler, NA, 999, 999, 5, 14, 139, 88, 107, 159, 129, 69, 3, 0.80309
374, 3, wb, filler, NA, 999, 999, 5, 14, 139, 88, 107, 159, 129, 69, 1, 0.906223
374, 3, wb, attraction, a-b-db, 2, 1, 5, 15, 60, 135, 135, 60, 59, 134, 3, 1.13988
374, 3, wb, attraction, a-b-db, 2, 1, 5, 15, 60, 135, 135, 60, 59, 134, 2, 0.764779
374, 3, wb, catch, NA, 999, 999, 5, 16, 180, 135, 159, 96, 73, 122, 3, 0.731872
374, 3, wb, catch, NA, 999, 999, 5, 16, 180, 135, 159, 96, 73, 122, 1, 0.709519
374, 3, wb, filler, NA, 999, 999, 5, 17, 164, 98, 100, 129, 114, 175, 2, 2.2706
374, 3, wb, filler, NA, 999, 999, 5, 17, 164, 98, 100, 129, 114, 175, 3, 0.970553
374, 3, wb, attraction, a-b-db, 14, 1, 5, 18, 56, 125, 60, 135, 135, 60, 1, 2.74549
374, 3, wb, attraction, a-b-db, 14, 1, 5, 18, 56, 125, 60, 135, 135, 60, 2, 1.38603
374, 3, wb, attraction, a-b-da, 2, 1, 5, 19, 134, 59, 135, 60, 60, 135, 3, 0.752176
374, 3, wb, attraction, a-b-da, 2, 1, 5, 19, 134, 59, 135, 60, 60, 135, 2, 0.433225
374, 3, wb, attraction, a-b-da, 14, 3, 5, 20, 120, 195, 195, 120, 181, 111, 3, 1.56568
374, 3, wb, attraction, a-b-da, 14, 3, 5, 20, 120, 195, 195, 120, 181, 111, 1, 0.573808
374, 3, wb, attraction, a-b-db, 9, 1, 5, 21, 60, 135, 135, 60, 57, 129, 3, 0.900277
374, 3, wb, attraction, a-b-db, 9, 1, 5, 21, 60, 135, 135, 60, 57, 129, 1, 0.647395
374, 3, wb, catch, NA, 999, 999, 5, 22, 137, 118, 102, 93, 124, 191, 2, 1.36302
374, 3, wb, catch, NA, 999, 999, 5, 22, 137, 118, 102, 93, 124, 191, 3, 0.643239
374, 3, wb, attraction, a-b-da, 14, 1, 5, 23, 135, 60, 125, 56, 60, 135, 1, 1.08701
374, 3, wb, attraction, a-b-da, 14, 1, 5, 23, 135, 60, 125, 56, 60, 135, 2, 0.626703
374, 3, wb, filler, NA, 999, 999, 5, 24, 180, 84, 126, 108, 171, 140, 2, 0.679099
374, 3, wb, filler, NA, 999, 999, 5, 24, 180, 84, 126, 108, 171, 140, 3, 1.04283
374, 3, wb, filler, NA, 999, 999, 5, 25, 163, 120, 178, 122, 150, 75, 3, 0.694412
374, 3, wb, filler, NA, 999, 999, 5, 25, 163, 120, 178, 122, 150, 75, 2, 1.44959
374, 3, wb, filler, NA, 999, 999, 5, 26, 167, 66, 59, 116, 99, 95, 2, 0.805091
374, 3, wb, filler, NA, 999, 999, 5, 26, 167, 66, 59, 116, 99, 95, 1, 1.15535
374, 3, wb, attraction, a-b-da, 9, 2, 5, 27, 157, 86, 90, 165, 165, 90, 3, 39.9949
374, 3, wb, attraction, a-b-da, 9, 2, 5, 27, 157, 86, 90, 165, 165, 90, 2, 0.998454
374, 3, wb, attraction, a-b-db, 9, 3, 5, 28, 195, 120, 114, 186, 120, 195, 2, 1.06809
374, 3, wb, attraction, a-b-db, 9, 3, 5, 28, 195, 120, 114, 186, 120, 195, 3, 0.672412
374, 3, wb, attraction, a-b-da, 2, 2, 5, 29, 163, 89, 90, 165, 165, 90, 2, 0.37139
374, 3, wb, attraction, a-b-da, 2, 2, 5, 29, 163, 89, 90, 165, 165, 90, 3, 0.411271
374, 3, wb, attraction, a-b-da, 14, 2, 5, 30, 90, 165, 165, 90, 153, 83, 3, 0.960371
374, 3, wb, attraction, a-b-da, 14, 2, 5, 30, 90, 165, 165, 90, 153, 83, 1, 0.752909
374, 3, wb, attraction, a-b-db, 5, 3, 5, 31, 120, 195, 117, 190, 195, 120, 2, 1.61649
374, 3, wb, attraction, a-b-db, 5, 3, 5, 31, 120, 195, 117, 190, 195, 120, 3, 1.15867
374, 3, wb, attraction, a-b-da, 9, 1, 5, 32, 60, 135, 129, 57, 135, 60, 3, 0.965659
374, 3, wb, attraction, a-b-da, 9, 1, 5, 32, 60, 135, 129, 57, 135, 60, 1, 1.27802
374, 3, wb, filler, NA, 999, 999, 5, 33, 171, 171, 115, 183, 78, 193, 2, 1.1281
374, 3, wb, filler, NA, 999, 999, 5, 33, 171, 171, 115, 183, 78, 193, 3, 2.04973
374, 3, wb, attraction, a-b-da, 5, 3, 5, 34, 195, 120, 190, 117, 120, 195, 2, 2.76509
374, 3, wb, attraction, a-b-da, 5, 3, 5, 34, 195, 120, 190, 117, 120, 195, 3, 0.948894
374, 3, wb, catch, NA, 999, 999, 5, 35, 149, 166, 125, 70, 92, 163, 2, 0.788435
374, 3, wb, catch, NA, 999, 999, 5, 35, 149, 166, 125, 70, 92, 163, 1, 0.787665
374, 3, wb, attraction, a-b-da, 2, 3, 5, 36, 193, 119, 120, 195, 195, 120, 3, 2.12989
374, 3, wb, attraction, a-b-da, 2, 3, 5, 36, 193, 119, 120, 195, 195, 120, 2, 2.69919
374, 3, wb, attraction, a-b-db, 5, 2, 5, 37, 165, 90, 90, 165, 88, 161, 2, 2.05228
374, 3, wb, attraction, a-b-db, 5, 2, 5, 37, 165, 90, 90, 165, 88, 161, 3, 2.92095
374, 3, wb, attraction, a-b-da, 9, 1, 6, 1, 135, 60, 129, 57, 60, 135, 3, 0.641292
374, 3, wb, attraction, a-b-da, 9, 1, 6, 1, 135, 60, 129, 57, 60, 135, 1, 0.526383
374, 3, wb, filler, NA, 999, 999, 6, 2, 103, 85, 59, 125, 144, 152, 2, 0.91887
374, 3, wb, filler, NA, 999, 999, 6, 2, 103, 85, 59, 125, 144, 152, 3, 0.377213
374, 3, wb, attraction, a-b-da, 2, 3, 6, 3, 120, 195, 195, 120, 193, 119, 3, 0.6956
374, 3, wb, attraction, a-b-da, 2, 3, 6, 3, 120, 195, 195, 120, 193, 119, 2, 0.418715
374, 3, wb, attraction, a-b-db, 9, 2, 6, 4, 90, 165, 86, 157, 165, 90, 2, 1.4399
374, 3, wb, attraction, a-b-db, 9, 2, 6, 4, 90, 165, 86, 157, 165, 90, 3, 0.372716
374, 3, wb, filler, NA, 999, 999, 6, 5, 187, 64, 161, 170, 142, 58, 3, 1.01988
374, 3, wb, filler, NA, 999, 999, 6, 5, 187, 64, 161, 170, 142, 58, 2, 1.03426
374, 3, wb, filler, NA, 999, 999, 6, 6, 85, 142, 115, 86, 116, 60, 3, 1.19061
374, 3, wb, filler, NA, 999, 999, 6, 6, 85, 142, 115, 86, 116, 60, 1, 1.63762
374, 3, wb, filler, NA, 999, 999, 6, 7, 120, 85, 175, 123, 100, 149, 1, 1.47348
374, 3, wb, filler, NA, 999, 999, 6, 7, 120, 85, 175, 123, 100, 149, 2, 0.485055
374, 3, wb, attraction, a-b-da, 5, 3, 6, 8, 190, 117, 195, 120, 120, 195, 3, 1.47151
374, 3, wb, attraction, a-b-da, 5, 3, 6, 8, 190, 117, 195, 120, 120, 195, 2, 0.339792
374, 3, wb, attraction, a-b-da, 2, 2, 6, 9, 90, 165, 165, 90, 163, 89, 1, 0.868177
374, 3, wb, attraction, a-b-da, 2, 2, 6, 9, 90, 165, 165, 90, 163, 89, 2, 0.40859
374, 3, wb, attraction, a-b-da, 9, 2, 6, 10, 157, 86, 165, 90, 90, 165, 3, 0.773801
374, 3, wb, attraction, a-b-da, 9, 2, 6, 10, 157, 86, 165, 90, 90, 165, 2, 0.349496
374, 3, wb, attraction, a-b-db, 2, 2, 6, 11, 89, 163, 90, 165, 165, 90, 2, 0.989243
374, 3, wb, attraction, a-b-db, 2, 2, 6, 11, 89, 163, 90, 165, 165, 90, 3, 0.844461
374, 3, wb, attraction, a-b-da, 14, 3, 6, 12, 181, 111, 120, 195, 195, 120, 3, 1.86405
374, 3, wb, attraction, a-b-da, 14, 3, 6, 12, 181, 111, 120, 195, 195, 120, 2, 0.3001
374, 3, wb, filler, NA, 999, 999, 6, 13, 110, 169, 181, 74, 163, 164, 2, 2.23794
374, 3, wb, filler, NA, 999, 999, 6, 13, 110, 169, 181, 74, 163, 164, 3, 0.379148
374, 3, wb, attraction, a-b-da, 9, 3, 6, 14, 195, 120, 120, 195, 186, 114, 3, 1.05769
374, 3, wb, attraction, a-b-da, 9, 3, 6, 14, 195, 120, 120, 195, 186, 114, 2, 0.294027
374, 3, wb, attraction, a-b-da, 5, 1, 6, 15, 135, 60, 60, 135, 132, 58, 2, 0.807767
374, 3, wb, attraction, a-b-da, 5, 1, 6, 15, 135, 60, 60, 135, 132, 58, 3, 0.638138
374, 3, wb, attraction, a-b-da, 5, 2, 6, 16, 165, 90, 90, 165, 161, 88, 3, 2.5226
374, 3, wb, attraction, a-b-da, 5, 2, 6, 16, 165, 90, 90, 165, 161, 88, 2, 2.39581
374, 3, wb, attraction, a-b-da, 14, 2, 6, 17, 153, 83, 90, 165, 165, 90, 3, 0.792945
374, 3, wb, attraction, a-b-da, 14, 2, 6, 17, 153, 83, 90, 165, 165, 90, 2, 0.352106
374, 3, wb, attraction, a-b-db, 2, 1, 6, 18, 60, 135, 135, 60, 59, 134, 3, 2.5678
374, 3, wb, attraction, a-b-db, 2, 1, 6, 18, 60, 135, 135, 60, 59, 134, 1, 0.623826
374, 3, wb, attraction, a-b-db, 5, 2, 6, 19, 165, 90, 88, 161, 90, 165, 3, 1.29208
374, 3, wb, attraction, a-b-db, 5, 2, 6, 19, 165, 90, 88, 161, 90, 165, 1, 0.663014
374, 3, wb, attraction, a-b-db, 14, 2, 6, 20, 165, 90, 83, 153, 90, 165, 3, 0.738057
374, 3, wb, attraction, a-b-db, 14, 2, 6, 20, 165, 90, 83, 153, 90, 165, 1, 0.39522
374, 3, wb, attraction, a-b-db, 9, 3, 6, 21, 120, 195, 114, 186, 195, 120, 2, 2.11293
374, 3, wb, attraction, a-b-db, 9, 3, 6, 21, 120, 195, 114, 186, 195, 120, 3, 1.64294
374, 3, wb, filler, NA, 999, 999, 6, 22, 191, 99, 153, 58, 157, 172, 2, 0.902387
374, 3, wb, filler, NA, 999, 999, 6, 22, 191, 99, 153, 58, 157, 172, 3, 0.401435
374, 3, wb, filler, NA, 999, 999, 6, 23, 143, 160, 169, 61, 192, 178, 2, 1.71132
374, 3, wb, filler, NA, 999, 999, 6, 23, 143, 160, 169, 61, 192, 178, 3, 0.633402
374, 3, wb, filler, NA, 999, 999, 6, 24, 84, 132, 65, 138, 86, 135, 2, 0.797748
374, 3, wb, filler, NA, 999, 999, 6, 24, 84, 132, 65, 138, 86, 135, 3, 0.916819
374, 3, wb, attraction, a-b-db, 14, 1, 6, 25, 60, 135, 135, 60, 56, 125, 2, 0.733794
374, 3, wb, attraction, a-b-db, 14, 1, 6, 25, 60, 135, 135, 60, 56, 125, 3, 0.687563
374, 3, wb, filler, NA, 999, 999, 6, 26, 154, 180, 148, 105, 97, 151, 2, 1.70592
374, 3, wb, filler, NA, 999, 999, 6, 26, 154, 180, 148, 105, 97, 151, 1, 0.500018
374, 3, wb, attraction, a-b-db, 5, 3, 6, 27, 120, 195, 117, 190, 195, 120, 2, 1.25403
374, 3, wb, attraction, a-b-db, 5, 3, 6, 27, 120, 195, 117, 190, 195, 120, 3, 1.71484
374, 3, wb, attraction, a-b-db, 14, 3, 6, 28, 195, 120, 120, 195, 111, 181, 2, 0.555388
374, 3, wb, attraction, a-b-db, 14, 3, 6, 28, 195, 120, 120, 195, 111, 181, 1, 0.323885
374, 3, wb, filler, NA, 999, 999, 6, 29, 136, 97, 94, 106, 71, 114, 2, 1.5004
374, 3, wb, filler, NA, 999, 999, 6, 29, 136, 97, 94, 106, 71, 114, 1, 0.399239
374, 3, wb, attraction, a-b-db, 2, 3, 6, 30, 195, 120, 120, 195, 119, 193, 2, 0.981081
374, 3, wb, attraction, a-b-db, 2, 3, 6, 30, 195, 120, 120, 195, 119, 193, 1, 0.556847
374, 3, wb, catch, NA, 999, 999, 6, 31, 146, 109, 178, 137, 64, 131, 3, 0.827883
374, 3, wb, catch, NA, 999, 999, 6, 31, 146, 109, 178, 137, 64, 131, 2, 1.40957
374, 3, wb, attraction, a-b-db, 5, 1, 6, 32, 135, 60, 60, 135, 58, 132, 3, 0.926424
374, 3, wb, attraction, a-b-db, 5, 1, 6, 32, 135, 60, 60, 135, 58, 132, 1, 0.760291
374, 3, wb, catch, NA, 999, 999, 6, 33, 194, 121, 92, 163, 99, 96, 3, 2.7271
374, 3, wb, catch, NA, 999, 999, 6, 33, 194, 121, 92, 163, 99, 96, 1, 0.416204
374, 3, wb, catch, NA, 999, 999, 6, 34, 102, 93, 192, 123, 150, 105, 1, 1.04541
374, 3, wb, catch, NA, 999, 999, 6, 34, 102, 93, 192, 123, 150, 105, 2, 0.586363
374, 3, wb, attraction, a-b-db, 9, 1, 6, 35, 135, 60, 57, 129, 60, 135, 3, 0.832857
374, 3, wb, attraction, a-b-db, 9, 1, 6, 35, 135, 60, 57, 129, 60, 135, 1, 0.41466
374, 3, wb, attraction, a-b-da, 2, 1, 6, 36, 135, 60, 134, 59, 60, 135, 2, 0.843721
374, 3, wb, attraction, a-b-da, 2, 1, 6, 36, 135, 60, 134, 59, 60, 135, 1, 0.432724
374, 3, wb, attraction, a-b-da, 14, 1, 6, 37, 125, 56, 60, 135, 135, 60, 2, 0.957144
374, 3, wb, attraction, a-b-da, 14, 1, 6, 37, 125, 56, 60, 135, 135, 60, 3, 0.34947
374, 3, wb, attraction, a-b-da, 14, 1, 7, 1, 125, 56, 60, 135, 135, 60, 2, 0.469316
374, 3, wb, attraction, a-b-da, 14, 1, 7, 1, 125, 56, 60, 135, 135, 60, 1, 0.577817
374, 3, wb, attraction, a-b-db, 9, 2, 7, 2, 86, 157, 90, 165, 165, 90, 2, 0.496239
374, 3, wb, attraction, a-b-db, 9, 2, 7, 2, 86, 157, 90, 165, 165, 90, 3, 0.419488
374, 3, wb, attraction, a-b-da, 14, 2, 7, 3, 165, 90, 90, 165, 153, 83, 2, 0.520723
374, 3, wb, attraction, a-b-da, 14, 2, 7, 3, 165, 90, 90, 165, 153, 83, 1, 0.571129
374, 3, wb, attraction, a-b-db, 5, 1, 7, 4, 135, 60, 60, 135, 58, 132, 2, 0.722144
374, 3, wb, attraction, a-b-db, 5, 1, 7, 4, 135, 60, 60, 135, 58, 132, 3, 0.563951
374, 3, wb, filler, NA, 999, 999, 7, 5, 101, 140, 95, 100, 111, 176, 3, 0.274923
374, 3, wb, filler, NA, 999, 999, 7, 5, 101, 140, 95, 100, 111, 176, 2, 0.854917
374, 3, wb, attraction, a-b-db, 14, 1, 7, 6, 60, 135, 56, 125, 135, 60, 2, 3.12262
374, 3, wb, attraction, a-b-db, 14, 1, 7, 6, 60, 135, 56, 125, 135, 60, 3, 0.51558
374, 3, wb, catch, NA, 999, 999, 7, 7, 121, 74, 118, 137, 156, 159, 1, 1.30066
374, 3, wb, catch, NA, 999, 999, 7, 7, 121, 74, 118, 137, 156, 159, 3, 0.511728
374, 3, wb, filler, NA, 999, 999, 7, 8, 146, 80, 191, 183, 143, 168, 1, 1.32863
374, 3, wb, filler, NA, 999, 999, 7, 8, 146, 80, 191, 183, 143, 168, 2, 0.354259
374, 3, wb, attraction, a-b-db, 5, 2, 7, 9, 88, 161, 90, 165, 165, 90, 2, 3.27407
374, 3, wb, attraction, a-b-db, 5, 2, 7, 9, 88, 161, 90, 165, 165, 90, 1, 2.06904
374, 3, wb, attraction, a-b-da, 2, 1, 7, 10, 60, 135, 134, 59, 135, 60, 1, 0.967606
374, 3, wb, attraction, a-b-da, 2, 1, 7, 10, 60, 135, 134, 59, 135, 60, 2, 0.536011
374, 3, wb, filler, NA, 999, 999, 7, 11, 65, 162, 80, 62, 184, 127, 2, 2.40841
374, 3, wb, filler, NA, 999, 999, 7, 11, 65, 162, 80, 62, 184, 127, 3, 0.326301
374, 3, wb, filler, NA, 999, 999, 7, 12, 168, 69, 68, 68, 125, 154, 2, 0.774784
374, 3, wb, filler, NA, 999, 999, 7, 12, 168, 69, 68, 68, 125, 154, 3, 0.710532
374, 3, wb, attraction, a-b-da, 14, 3, 7, 13, 181, 111, 195, 120, 120, 195, 3, 0.935564
374, 3, wb, attraction, a-b-da, 14, 3, 7, 13, 181, 111, 195, 120, 120, 195, 2, 0.40133
374, 3, wb, attraction, a-b-da, 9, 2, 7, 14, 165, 90, 90, 165, 157, 86, 2, 2.19123
374, 3, wb, attraction, a-b-da, 9, 2, 7, 14, 165, 90, 90, 165, 157, 86, 1, 0.925714
374, 3, wb, attraction, a-b-da, 9, 3, 7, 15, 120, 195, 186, 114, 195, 120, 3, 1.59801
374, 3, wb, attraction, a-b-da, 9, 3, 7, 15, 120, 195, 186, 114, 195, 120, 2, 1.1329
374, 3, wb, filler, NA, 999, 999, 7, 16, 161, 82, 133, 160, 100, 101, 3, 0.765144
374, 3, wb, filler, NA, 999, 999, 7, 16, 161, 82, 133, 160, 100, 101, 2, 0.741596
374, 3, wb, attraction, a-b-da, 5, 3, 7, 17, 195, 120, 120, 195, 190, 117, 3, 2.27729
374, 3, wb, attraction, a-b-da, 5, 3, 7, 17, 195, 120, 120, 195, 190, 117, 2, 0.336594
374, 3, wb, attraction, a-b-da, 5, 2, 7, 18, 161, 88, 90, 165, 165, 90, 3, 1.08902
374, 3, wb, attraction, a-b-da, 5, 2, 7, 18, 161, 88, 90, 165, 165, 90, 2, 0.371919
374, 3, wb, attraction, a-b-da, 2, 3, 7, 19, 193, 119, 195, 120, 120, 195, 1, 1.13109
374, 3, wb, attraction, a-b-da, 2, 3, 7, 19, 193, 119, 195, 120, 120, 195, 2, 1.09277
374, 3, wb, attraction, a-b-db, 9, 1, 7, 20, 135, 60, 60, 135, 57, 129, 3, 1.68635
374, 3, wb, attraction, a-b-db, 9, 1, 7, 20, 135, 60, 60, 135, 57, 129, 1, 0.833812
374, 3, wb, attraction, a-b-db, 14, 2, 7, 21, 83, 153, 165, 90, 90, 165, 3, 1.0542
374, 3, wb, attraction, a-b-db, 14, 2, 7, 21, 83, 153, 165, 90, 90, 165, 2, 0.514438
374, 3, wb, attraction, a-b-db, 9, 3, 7, 22, 195, 120, 120, 195, 114, 186, 3, 1.3076
374, 3, wb, attraction, a-b-db, 9, 3, 7, 22, 195, 120, 120, 195, 114, 186, 1, 0.589794
374, 3, wb, attraction, a-b-db, 5, 3, 7, 23, 117, 190, 195, 120, 120, 195, 1, 1.63619
374, 3, wb, attraction, a-b-db, 5, 3, 7, 23, 117, 190, 195, 120, 120, 195, 2, 1.0897
374, 3, wb, filler, NA, 999, 999, 7, 24, 124, 135, 116, 126, 156, 73, 2, 0.947945
374, 3, wb, filler, NA, 999, 999, 7, 24, 124, 135, 116, 126, 156, 73, 3, 0.461014
374, 3, wb, catch, NA, 999, 999, 7, 25, 143, 112, 175, 140, 124, 71, 3, 0.880082
374, 3, wb, catch, NA, 999, 999, 7, 25, 143, 112, 175, 140, 124, 71, 2, 0.56372
374, 3, wb, filler, NA, 999, 999, 7, 26, 83, 62, 119, 160, 85, 64, 1, 1.37087
374, 3, wb, filler, NA, 999, 999, 7, 26, 83, 62, 119, 160, 85, 64, 2, 0.363176
374, 3, wb, filler, NA, 999, 999, 7, 27, 123, 89, 133, 108, 87, 92, 3, 0.466183
374, 3, wb, filler, NA, 999, 999, 7, 27, 123, 89, 133, 108, 87, 92, 2, 0.430824
374, 3, wb, attraction, a-b-db, 2, 2, 7, 28, 165, 90, 89, 163, 90, 165, 2, 1.12328
374, 3, wb, attraction, a-b-db, 2, 2, 7, 28, 165, 90, 89, 163, 90, 165, 1, 0.660843
374, 3, wb, attraction, a-b-db, 2, 3, 7, 29, 120, 195, 119, 193, 195, 120, 2, 3.04787
374, 3, wb, attraction, a-b-db, 2, 3, 7, 29, 120, 195, 119, 193, 195, 120, 3, 0.420328
374, 3, wb, filler, NA, 999, 999, 7, 30, 194, 113, 63, 88, 150, 114, 2, 0.873354
374, 3, wb, filler, NA, 999, 999, 7, 30, 194, 113, 63, 88, 150, 114, 1, 0.357215
374, 3, wb, filler, NA, 999, 999, 7, 31, 72, 75, 93, 146, 121, 66, 1, 0.972253
374, 3, wb, filler, NA, 999, 999, 7, 31, 72, 75, 93, 146, 121, 66, 2, 0.483975
374, 3, wb, attraction, a-b-da, 9, 1, 7, 32, 60, 135, 135, 60, 129, 57, 2, 1.03038
374, 3, wb, attraction, a-b-da, 9, 1, 7, 32, 60, 135, 135, 60, 129, 57, 1, 0.348023
374, 3, wb, attraction, a-b-db, 14, 3, 7, 33, 195, 120, 111, 181, 120, 195, 2, 0.435937
374, 3, wb, attraction, a-b-db, 14, 3, 7, 33, 195, 120, 111, 181, 120, 195, 3, 0.289661
374, 3, wb, catch, NA, 999, 999, 7, 34, 100, 95, 179, 136, 109, 146, 1, 0.636217
374, 3, wb, catch, NA, 999, 999, 7, 34, 100, 95, 179, 136, 109, 146, 2, 0.674039
374, 3, wb, attraction, a-b-db, 2, 1, 7, 35, 60, 135, 59, 134, 135, 60, 2, 0.812433
374, 3, wb, attraction, a-b-db, 2, 1, 7, 35, 60, 135, 59, 134, 135, 60, 3, 0.506853
374, 3, wb, attraction, a-b-da, 2, 2, 7, 36, 165, 90, 90, 165, 163, 89, 2, 1.01188
374, 3, wb, attraction, a-b-da, 2, 2, 7, 36, 165, 90, 90, 165, 163, 89, 1, 0.474207
374, 3, wb, attraction, a-b-da, 5, 1, 7, 37, 132, 58, 60, 135, 135, 60, 2, 0.796702
374, 3, wb, attraction, a-b-da, 5, 1, 7, 37, 132, 58, 60, 135, 135, 60, 3, 0.995721
374, 3, wb, catch, NA, 999, 999, 8, 1, 147, 168, 122, 73, 123, 132, 3, 1.26533
374, 3, wb, catch, NA, 999, 999, 8, 1, 147, 168, 122, 73, 123, 132, 1, 1.22962
374, 3, wb, filler, NA, 999, 999, 8, 2, 149, 63, 79, 97, 65, 171, 2, 1.01787
374, 3, wb, filler, NA, 999, 999, 8, 2, 149, 63, 79, 97, 65, 171, 1, 2.1682
374, 3, wb, attraction, a-b-da, 5, 1, 8, 3, 135, 60, 132, 58, 60, 135, 3, 0.71876
374, 3, wb, attraction, a-b-da, 5, 1, 8, 3, 135, 60, 132, 58, 60, 135, 2, 0.377145
374, 3, wb, catch, NA, 999, 999, 8, 4, 192, 123, 66, 129, 151, 104, 2, 1.49568
374, 3, wb, catch, NA, 999, 999, 8, 4, 192, 123, 66, 129, 151, 104, 1, 0.466576
374, 3, wb, attraction, a-b-da, 5, 2, 8, 5, 90, 165, 161, 88, 165, 90, 2, 1.06166
374, 3, wb, attraction, a-b-da, 5, 2, 8, 5, 90, 165, 161, 88, 165, 90, 1, 0.561954
374, 3, wb, attraction, a-b-db, 5, 3, 8, 6, 120, 195, 117, 190, 195, 120, 2, 1.27315
374, 3, wb, attraction, a-b-db, 5, 3, 8, 6, 120, 195, 117, 190, 195, 120, 3, 0.404626
374, 3, wb, attraction, a-b-da, 14, 3, 8, 7, 181, 111, 120, 195, 195, 120, 2, 1.7145
374, 3, wb, attraction, a-b-da, 14, 3, 8, 7, 181, 111, 120, 195, 195, 120, 3, 0.444605
374, 3, wb, attraction, a-b-da, 2, 1, 8, 8, 135, 60, 134, 59, 60, 135, 3, 1.08049
374, 3, wb, attraction, a-b-da, 2, 1, 8, 8, 135, 60, 134, 59, 60, 135, 2, 0.348013
374, 3, wb, attraction, a-b-da, 2, 3, 8, 9, 195, 120, 120, 195, 193, 119, 2, 0.683767
374, 3, wb, attraction, a-b-da, 2, 3, 8, 9, 195, 120, 120, 195, 193, 119, 3, 0.887691
374, 3, wb, filler, NA, 999, 999, 8, 10, 144, 167, 134, 189, 68, 88, 3, 0.977865
374, 3, wb, filler, NA, 999, 999, 8, 10, 144, 167, 134, 189, 68, 88, 2, 0.657582
374, 3, wb, attraction, a-b-da, 2, 2, 8, 11, 165, 90, 90, 165, 163, 89, 2, 0.596658
374, 3, wb, attraction, a-b-da, 2, 2, 8, 11, 165, 90, 90, 165, 163, 89, 3, 0.60392
374, 3, wb, attraction, a-b-da, 9, 1, 8, 12, 60, 135, 129, 57, 135, 60, 2, 0.569451
374, 3, wb, attraction, a-b-da, 9, 1, 8, 12, 60, 135, 129, 57, 135, 60, 3, 0.65014
374, 3, wb, attraction, a-b-db, 5, 2, 8, 13, 88, 161, 165, 90, 90, 165, 2, 0.453623
374, 3, wb, attraction, a-b-db, 5, 2, 8, 13, 88, 161, 165, 90, 90, 165, 3, 0.586954
374, 3, wb, attraction, a-b-da, 14, 2, 8, 14, 165, 90, 153, 83, 90, 165, 1, 0.537273
374, 3, wb, attraction, a-b-da, 14, 2, 8, 14, 165, 90, 153, 83, 90, 165, 2, 0.688341
374, 3, wb, catch, NA, 999, 999, 8, 15, 132, 183, 120, 75, 123, 132, 2, 1.04553
374, 3, wb, catch, NA, 999, 999, 8, 15, 132, 183, 120, 75, 123, 132, 1, 0.386474
374, 3, wb, attraction, a-b-da, 14, 1, 8, 16, 135, 60, 125, 56, 60, 135, 2, 5.52896
374, 3, wb, attraction, a-b-da, 14, 1, 8, 16, 135, 60, 125, 56, 60, 135, 3, 1.08937
374, 3, wb, filler, NA, 999, 999, 8, 17, 122, 136, 60, 64, 125, 116, 2, 0.547597
374, 3, wb, filler, NA, 999, 999, 8, 17, 122, 136, 60, 64, 125, 116, 3, 0.572664
374, 3, wb, filler, NA, 999, 999, 8, 18, 180, 125, 165, 162, 158, 118, 3, 0.931696
374, 3, wb, filler, NA, 999, 999, 8, 18, 180, 125, 165, 162, 158, 118, 2, 0.413436
374, 3, wb, attraction, a-b-db, 2, 3, 8, 19, 120, 195, 119, 193, 195, 120, 2, 0.658592
374, 3, wb, attraction, a-b-db, 2, 3, 8, 19, 120, 195, 119, 193, 195, 120, 3, 0.43902
374, 3, wb, attraction, a-b-db, 14, 1, 8, 20, 60, 135, 56, 125, 135, 60, 2, 0.72345
374, 3, wb, attraction, a-b-db, 14, 1, 8, 20, 60, 135, 56, 125, 135, 60, 3, 0.405331
374, 3, wb, attraction, a-b-da, 9, 2, 8, 21, 165, 90, 157, 86, 90, 165, 2, 0.603081
374, 3, wb, attraction, a-b-da, 9, 2, 8, 21, 165, 90, 157, 86, 90, 165, 3, 0.474098
374, 3, wb, attraction, a-b-db, 2, 2, 8, 22, 89, 163, 90, 165, 165, 90, 3, 1.08458
374, 3, wb, attraction, a-b-db, 2, 2, 8, 22, 89, 163, 90, 165, 165, 90, 2, 0.360221
374, 3, wb, attraction, a-b-db, 9, 1, 8, 23, 60, 135, 135, 60, 57, 129, 3, 0.591398
374, 3, wb, attraction, a-b-db, 9, 1, 8, 23, 60, 135, 135, 60, 57, 129, 2, 0.414558
374, 3, wb, attraction, a-b-da, 5, 3, 8, 24, 120, 195, 195, 120, 190, 117, 2, 1.36378
374, 3, wb, attraction, a-b-da, 5, 3, 8, 24, 120, 195, 195, 120, 190, 117, 3, 0.443847
374, 3, wb, attraction, a-b-db, 14, 2, 8, 25, 90, 165, 165, 90, 83, 153, 2, 0.543618
374, 3, wb, attraction, a-b-db, 14, 2, 8, 25, 90, 165, 165, 90, 83, 153, 3, 0.480796
374, 3, wb, filler, NA, 999, 999, 8, 26, 192, 137, 169, 81, 95, 82, 3, 0.91526
374, 3, wb, filler, NA, 999, 999, 8, 26, 192, 137, 169, 81, 95, 82, 2, 0.365586
374, 3, wb, attraction, a-b-db, 9, 2, 8, 27, 90, 165, 165, 90, 86, 157, 3, 0.532776
374, 3, wb, attraction, a-b-db, 9, 2, 8, 27, 90, 165, 165, 90, 86, 157, 2, 0.406585
374, 3, wb, filler, NA, 999, 999, 8, 28, 88, 91, 173, 108, 68, 172, 1, 1.01968
374, 3, wb, filler, NA, 999, 999, 8, 28, 88, 91, 173, 108, 68, 172, 2, 0.505986
374, 3, wb, attraction, a-b-da, 9, 3, 8, 29, 186, 114, 120, 195, 195, 120, 2, 1.01984
374, 3, wb, attraction, a-b-da, 9, 3, 8, 29, 186, 114, 120, 195, 195, 120, 3, 0.530306
374, 3, wb, filler, NA, 999, 999, 8, 30, 134, 69, 178, 161, 194, 103, 1, 0.522577
374, 3, wb, filler, NA, 999, 999, 8, 30, 134, 69, 178, 161, 194, 103, 2, 0.364416
374, 3, wb, filler, NA, 999, 999, 8, 31, 114, 129, 125, 165, 173, 94, 1, 0.571539
374, 3, wb, filler, NA, 999, 999, 8, 31, 114, 129, 125, 165, 173, 94, 2, 0.763427
374, 3, wb, attraction, a-b-db, 14, 3, 8, 32, 120, 195, 111, 181, 195, 120, 2, 0.682512
374, 3, wb, attraction, a-b-db, 14, 3, 8, 32, 120, 195, 111, 181, 195, 120, 3, 0.566221
374, 3, wb, attraction, a-b-db, 5, 1, 8, 33, 135, 60, 60, 135, 58, 132, 3, 0.94123
374, 3, wb, attraction, a-b-db, 5, 1, 8, 33, 135, 60, 60, 135, 58, 132, 2, 0.654266
374, 3, wb, attraction, a-b-db, 2, 1, 8, 34, 59, 134, 60, 135, 135, 60, 1, 1.13797
374, 3, wb, attraction, a-b-db, 2, 1, 8, 34, 59, 134, 60, 135, 135, 60, 3, 0.843701
374, 3, wb, attraction, a-b-db, 9, 3, 8, 35, 120, 195, 195, 120, 114, 186, 2, 0.479378
374, 3, wb, attraction, a-b-db, 9, 3, 8, 35, 120, 195, 195, 120, 114, 186, 3, 0.643208
374, 3, wb, filler, NA, 999, 999, 8, 36, 158, 86, 149, 103, 99, 141, 3, 1.86289
374, 3, wb, filler, NA, 999, 999, 8, 36, 158, 86, 149, 103, 99, 141, 1, 0.570966
374, 3, wb, filler, NA, 999, 999, 8, 37, 70, 102, 131, 176, 123, 133, 1, 1.37803
374, 3, wb, filler, NA, 999, 999, 8, 37, 70, 102, 131, 176, 123, 133, 2, 0.321618
