sub_n, computer_n, bw_cond, effect, set, distance, diag, block_n, trial_n, h1, w1, h2, w2, h3, w3, choice, rt 
334, 3, wb, practice, NA, 999, 999, 0, 1, 149, 82, 154, 116, 75, 140, 3, 9.79835
334, 3, wb, practice, NA, 999, 999, 0, 1, 149, 82, 154, 116, 75, 140, 2, 5.25283
334, 3, wb, practice, NA, 999, 999, 0, 2, 195, 156, 76, 170, 170, 165, 2, 2.187
334, 3, wb, practice, NA, 999, 999, 0, 2, 195, 156, 76, 170, 170, 165, 1, 2.16039
334, 3, wb, practice, NA, 999, 999, 0, 3, 102, 76, 129, 71, 59, 57, 3, 2.02958
334, 3, wb, practice, NA, 999, 999, 0, 3, 102, 76, 129, 71, 59, 57, 2, 1.94546
334, 3, wb, filler, NA, 999, 999, 1, 1, 104, 129, 191, 164, 95, 143, 1, 2.18713
334, 3, wb, filler, NA, 999, 999, 1, 1, 104, 129, 191, 164, 95, 143, 2, 0.802504
334, 3, wb, attraction, a-b-db, 2, 3, 1, 2, 119, 193, 120, 195, 195, 120, 1, 1.55213
334, 3, wb, attraction, a-b-db, 2, 3, 1, 2, 119, 193, 120, 195, 195, 120, 2, 1.69693
334, 3, wb, filler, NA, 999, 999, 1, 3, 90, 66, 105, 171, 119, 117, 1, 1.80243
334, 3, wb, filler, NA, 999, 999, 1, 3, 90, 66, 105, 171, 119, 117, 2, 1.48107
334, 3, wb, attraction, a-b-db, 2, 2, 1, 4, 89, 163, 90, 165, 165, 90, 1, 4.17928
334, 3, wb, attraction, a-b-db, 2, 2, 1, 4, 89, 163, 90, 165, 165, 90, 3, 1.39395
334, 3, wb, attraction, a-b-da, 14, 2, 1, 5, 153, 83, 90, 165, 165, 90, 1, 2.5673
334, 3, wb, attraction, a-b-da, 14, 2, 1, 5, 153, 83, 90, 165, 165, 90, 2, 2.29537
334, 3, wb, attraction, a-b-db, 9, 3, 1, 6, 120, 195, 114, 186, 195, 120, 3, 4.63256
334, 3, wb, attraction, a-b-db, 9, 3, 1, 6, 120, 195, 114, 186, 195, 120, 2, 1.33296
334, 3, wb, filler, NA, 999, 999, 1, 7, 129, 92, 171, 125, 113, 69, 3, 1.78911
334, 3, wb, filler, NA, 999, 999, 1, 7, 129, 92, 171, 125, 113, 69, 2, 1.40394
334, 3, wb, attraction, a-b-da, 9, 1, 1, 8, 129, 57, 60, 135, 135, 60, 2, 1.84137
334, 3, wb, attraction, a-b-da, 9, 1, 1, 8, 129, 57, 60, 135, 135, 60, 3, 1.82209
334, 3, wb, attraction, a-b-db, 14, 2, 1, 9, 83, 153, 165, 90, 90, 165, 1, 1.94685
334, 3, wb, attraction, a-b-db, 14, 2, 1, 9, 83, 153, 165, 90, 90, 165, 3, 1.25965
334, 3, wb, catch, NA, 999, 999, 1, 10, 127, 128, 178, 137, 89, 106, 3, 1.95047
334, 3, wb, catch, NA, 999, 999, 1, 10, 127, 128, 178, 137, 89, 106, 2, 1.43911
334, 3, wb, attraction, a-b-da, 2, 3, 1, 11, 120, 195, 195, 120, 193, 119, 3, 3.28326
334, 3, wb, attraction, a-b-da, 2, 3, 1, 11, 120, 195, 195, 120, 193, 119, 1, 3.99022
334, 3, wb, attraction, a-b-db, 9, 1, 1, 12, 60, 135, 57, 129, 135, 60, 3, 2.35553
334, 3, wb, attraction, a-b-db, 9, 1, 1, 12, 60, 135, 57, 129, 135, 60, 1, 0.907453
334, 3, wb, attraction, a-b-da, 9, 2, 1, 13, 90, 165, 157, 86, 165, 90, 2, 2.6525
334, 3, wb, attraction, a-b-da, 9, 2, 1, 13, 90, 165, 157, 86, 165, 90, 1, 0.969043
334, 3, wb, catch, NA, 999, 999, 1, 14, 168, 147, 73, 122, 107, 148, 2, 1.272
334, 3, wb, catch, NA, 999, 999, 1, 14, 168, 147, 73, 122, 107, 148, 1, 1.41154
334, 3, wb, attraction, a-b-db, 5, 2, 1, 15, 90, 165, 88, 161, 165, 90, 1, 3.1123
334, 3, wb, attraction, a-b-db, 5, 2, 1, 15, 90, 165, 88, 161, 165, 90, 2, 0.890037
334, 3, wb, attraction, a-b-da, 2, 2, 1, 16, 165, 90, 90, 165, 163, 89, 3, 2.0923
334, 3, wb, attraction, a-b-da, 2, 2, 1, 16, 165, 90, 90, 165, 163, 89, 2, 1.85502
334, 3, wb, catch, NA, 999, 999, 1, 17, 147, 108, 128, 67, 176, 139, 2, 1.26638
334, 3, wb, catch, NA, 999, 999, 1, 17, 147, 108, 128, 67, 176, 139, 3, 1.20664
334, 3, wb, filler, NA, 999, 999, 1, 18, 72, 59, 92, 179, 134, 171, 1, 1.24419
334, 3, wb, filler, NA, 999, 999, 1, 18, 72, 59, 92, 179, 134, 171, 3, 1.17718
334, 3, wb, attraction, a-b-da, 5, 2, 1, 19, 161, 88, 165, 90, 90, 165, 1, 2.15137
334, 3, wb, attraction, a-b-da, 5, 2, 1, 19, 161, 88, 165, 90, 90, 165, 2, 1.67193
334, 3, wb, filler, NA, 999, 999, 1, 20, 65, 73, 60, 156, 107, 121, 1, 1.13875
334, 3, wb, filler, NA, 999, 999, 1, 20, 65, 73, 60, 156, 107, 121, 3, 1.10766
334, 3, wb, attraction, a-b-db, 14, 1, 1, 21, 56, 125, 60, 135, 135, 60, 1, 2.64454
334, 3, wb, attraction, a-b-db, 14, 1, 1, 21, 56, 125, 60, 135, 135, 60, 3, 1.22513
334, 3, wb, attraction, a-b-db, 5, 3, 1, 22, 117, 190, 120, 195, 195, 120, 1, 1.60532
334, 3, wb, attraction, a-b-db, 5, 3, 1, 22, 117, 190, 120, 195, 195, 120, 2, 0.923496
334, 3, wb, filler, NA, 999, 999, 1, 23, 125, 163, 146, 166, 104, 117, 3, 1.52382
334, 3, wb, filler, NA, 999, 999, 1, 23, 125, 163, 146, 166, 104, 117, 2, 1.06935
334, 3, wb, attraction, a-b-da, 14, 1, 1, 24, 135, 60, 60, 135, 125, 56, 3, 2.30424
334, 3, wb, attraction, a-b-da, 14, 1, 1, 24, 135, 60, 60, 135, 125, 56, 1, 1.65875
334, 3, wb, attraction, a-b-da, 5, 3, 1, 25, 120, 195, 190, 117, 195, 120, 2, 3.35753
334, 3, wb, attraction, a-b-da, 5, 3, 1, 25, 120, 195, 190, 117, 195, 120, 3, 2.52523
334, 3, wb, filler, NA, 999, 999, 1, 26, 124, 173, 156, 133, 76, 112, 3, 0.988999
334, 3, wb, filler, NA, 999, 999, 1, 26, 124, 173, 156, 133, 76, 112, 1, 1.20399
334, 3, wb, attraction, a-b-da, 5, 1, 1, 27, 60, 135, 135, 60, 132, 58, 1, 2.34547
334, 3, wb, attraction, a-b-da, 5, 1, 1, 27, 60, 135, 135, 60, 132, 58, 2, 0.89811
334, 3, wb, attraction, a-b-db, 5, 1, 1, 28, 135, 60, 60, 135, 58, 132, 1, 1.91568
334, 3, wb, attraction, a-b-db, 5, 1, 1, 28, 135, 60, 60, 135, 58, 132, 2, 1.4058
334, 3, wb, attraction, a-b-db, 14, 3, 1, 29, 111, 181, 195, 120, 120, 195, 1, 8.13124
334, 3, wb, attraction, a-b-db, 14, 3, 1, 29, 111, 181, 195, 120, 120, 195, 2, 0.738711
334, 3, wb, attraction, a-b-da, 2, 1, 1, 30, 134, 59, 60, 135, 135, 60, 2, 1.37933
334, 3, wb, attraction, a-b-da, 2, 1, 1, 30, 134, 59, 60, 135, 135, 60, 3, 1.60268
334, 3, wb, filler, NA, 999, 999, 1, 31, 98, 181, 85, 74, 83, 60, 3, 1.14416
334, 3, wb, filler, NA, 999, 999, 1, 31, 98, 181, 85, 74, 83, 60, 1, 1.12911
334, 3, wb, attraction, a-b-da, 9, 3, 1, 32, 186, 114, 195, 120, 120, 195, 1, 1.40922
334, 3, wb, attraction, a-b-da, 9, 3, 1, 32, 186, 114, 195, 120, 120, 195, 3, 1.05551
334, 3, wb, filler, NA, 999, 999, 1, 33, 180, 112, 131, 56, 111, 145, 3, 1.23516
334, 3, wb, filler, NA, 999, 999, 1, 33, 180, 112, 131, 56, 111, 145, 1, 1.87273
334, 3, wb, filler, NA, 999, 999, 1, 34, 66, 99, 103, 167, 66, 194, 1, 0.97132
334, 3, wb, filler, NA, 999, 999, 1, 34, 66, 99, 103, 167, 66, 194, 2, 0.915764
334, 3, wb, attraction, a-b-da, 14, 3, 1, 35, 181, 111, 120, 195, 195, 120, 1, 2.26072
334, 3, wb, attraction, a-b-da, 14, 3, 1, 35, 181, 111, 120, 195, 195, 120, 2, 0.744673
334, 3, wb, attraction, a-b-db, 2, 1, 1, 36, 59, 134, 60, 135, 135, 60, 1, 0.928299
334, 3, wb, attraction, a-b-db, 2, 1, 1, 36, 59, 134, 60, 135, 135, 60, 3, 1.12207
334, 3, wb, attraction, a-b-db, 9, 2, 1, 37, 86, 157, 165, 90, 90, 165, 1, 0.93906
334, 3, wb, attraction, a-b-db, 9, 2, 1, 37, 86, 157, 165, 90, 90, 165, 2, 1.60401
334, 3, wb, attraction, a-b-db, 14, 2, 2, 1, 90, 165, 83, 153, 165, 90, 2, 2.00139
334, 3, wb, attraction, a-b-db, 14, 2, 2, 1, 90, 165, 83, 153, 165, 90, 3, 1.44819
334, 3, wb, attraction, a-b-da, 5, 3, 2, 2, 120, 195, 190, 117, 195, 120, 2, 1.41972
334, 3, wb, attraction, a-b-da, 5, 3, 2, 2, 120, 195, 190, 117, 195, 120, 1, 0.801791
334, 3, wb, attraction, a-b-db, 9, 3, 2, 3, 195, 120, 114, 186, 120, 195, 2, 2.18341
334, 3, wb, attraction, a-b-db, 9, 3, 2, 3, 195, 120, 114, 186, 120, 195, 1, 0.582827
334, 3, wb, attraction, a-b-db, 14, 3, 2, 4, 195, 120, 111, 181, 120, 195, 2, 2.32527
334, 3, wb, attraction, a-b-db, 14, 3, 2, 4, 195, 120, 111, 181, 120, 195, 1, 0.68655
334, 3, wb, attraction, a-b-db, 5, 1, 2, 5, 60, 135, 58, 132, 135, 60, 1, 1.1528
334, 3, wb, attraction, a-b-db, 5, 1, 2, 5, 60, 135, 58, 132, 135, 60, 2, 1.05783
334, 3, wb, filler, NA, 999, 999, 2, 6, 158, 137, 195, 87, 149, 126, 1, 2.30085
334, 3, wb, filler, NA, 999, 999, 2, 6, 158, 137, 195, 87, 149, 126, 2, 0.55134
334, 3, wb, attraction, a-b-da, 2, 1, 2, 7, 134, 59, 135, 60, 60, 135, 1, 1.67903
334, 3, wb, attraction, a-b-da, 2, 1, 2, 7, 134, 59, 135, 60, 60, 135, 2, 1.27452
334, 3, wb, attraction, a-b-db, 9, 2, 2, 8, 165, 90, 86, 157, 90, 165, 1, 3.23667
334, 3, wb, attraction, a-b-db, 9, 2, 2, 8, 165, 90, 86, 157, 90, 165, 3, 0.833883
334, 3, wb, filler, NA, 999, 999, 2, 9, 193, 64, 177, 94, 68, 179, 1, 2.91001
334, 3, wb, filler, NA, 999, 999, 2, 9, 193, 64, 177, 94, 68, 179, 2, 0.783922
334, 3, wb, filler, NA, 999, 999, 2, 10, 184, 101, 79, 70, 155, 148, 2, 1.03816
334, 3, wb, filler, NA, 999, 999, 2, 10, 184, 101, 79, 70, 155, 148, 3, 0.739112
334, 3, wb, catch, NA, 999, 999, 2, 11, 102, 93, 155, 160, 122, 133, 1, 1.87552
334, 3, wb, catch, NA, 999, 999, 2, 11, 102, 93, 155, 160, 122, 133, 2, 0.518943
334, 3, wb, attraction, a-b-da, 14, 1, 2, 12, 135, 60, 60, 135, 125, 56, 3, 1.35198
334, 3, wb, attraction, a-b-da, 14, 1, 2, 12, 135, 60, 60, 135, 125, 56, 2, 1.12091
334, 3, wb, attraction, a-b-db, 2, 2, 2, 13, 89, 163, 165, 90, 90, 165, 2, 2.6578
334, 3, wb, attraction, a-b-db, 2, 2, 2, 13, 89, 163, 165, 90, 90, 165, 1, 0.949696
334, 3, wb, catch, NA, 999, 999, 2, 14, 88, 107, 152, 163, 159, 96, 1, 1.28524
334, 3, wb, catch, NA, 999, 999, 2, 14, 88, 107, 152, 163, 159, 96, 2, 0.432828
334, 3, wb, filler, NA, 999, 999, 2, 15, 68, 137, 177, 131, 76, 127, 1, 3.11731
334, 3, wb, filler, NA, 999, 999, 2, 15, 68, 137, 177, 131, 76, 127, 2, 0.679194
334, 3, wb, attraction, a-b-da, 2, 3, 2, 16, 193, 119, 120, 195, 195, 120, 1, 4.41748
334, 3, wb, attraction, a-b-da, 2, 3, 2, 16, 193, 119, 120, 195, 195, 120, 2, 0.702631
334, 3, wb, filler, NA, 999, 999, 2, 17, 77, 160, 91, 99, 60, 133, 2, 1.88033
334, 3, wb, filler, NA, 999, 999, 2, 17, 77, 160, 91, 99, 60, 133, 1, 0.66778
334, 3, wb, filler, NA, 999, 999, 2, 18, 146, 192, 57, 164, 86, 113, 3, 3.69482
334, 3, wb, filler, NA, 999, 999, 2, 18, 146, 192, 57, 164, 86, 113, 1, 0.472996
334, 3, wb, attraction, a-b-db, 5, 3, 2, 19, 120, 195, 195, 120, 117, 190, 1, 5.5241
334, 3, wb, attraction, a-b-db, 5, 3, 2, 19, 120, 195, 195, 120, 117, 190, 2, 0.436381
334, 3, wb, catch, NA, 999, 999, 2, 20, 67, 128, 125, 130, 122, 193, 1, 0.856807
334, 3, wb, catch, NA, 999, 999, 2, 20, 67, 128, 125, 130, 122, 193, 3, 0.685189
334, 3, wb, filler, NA, 999, 999, 2, 21, 176, 155, 183, 182, 103, 81, 3, 0.935622
334, 3, wb, filler, NA, 999, 999, 2, 21, 176, 155, 183, 182, 103, 81, 2, 0.537169
334, 3, wb, attraction, a-b-da, 9, 1, 2, 22, 135, 60, 129, 57, 60, 135, 1, 2.40974
334, 3, wb, attraction, a-b-da, 9, 1, 2, 22, 135, 60, 129, 57, 60, 135, 2, 0.535594
334, 3, wb, attraction, a-b-da, 9, 2, 2, 23, 157, 86, 90, 165, 165, 90, 1, 6.79205
334, 3, wb, attraction, a-b-da, 9, 2, 2, 23, 157, 86, 90, 165, 165, 90, 2, 0.885359
334, 3, wb, attraction, a-b-db, 2, 3, 2, 24, 195, 120, 120, 195, 119, 193, 1, 2.38353
334, 3, wb, attraction, a-b-db, 2, 3, 2, 24, 195, 120, 120, 195, 119, 193, 2, 0.454848
334, 3, wb, filler, NA, 999, 999, 2, 25, 116, 143, 181, 113, 88, 133, 3, 1.37055
334, 3, wb, filler, NA, 999, 999, 2, 25, 116, 143, 181, 113, 88, 133, 2, 0.498809
334, 3, wb, attraction, a-b-da, 2, 2, 2, 26, 163, 89, 165, 90, 90, 165, 1, 1.02862
334, 3, wb, attraction, a-b-da, 2, 2, 2, 26, 163, 89, 165, 90, 90, 165, 2, 0.522256
334, 3, wb, filler, NA, 999, 999, 2, 27, 152, 125, 65, 143, 91, 143, 2, 1.06733
334, 3, wb, filler, NA, 999, 999, 2, 27, 152, 125, 65, 143, 91, 143, 1, 0.487652
334, 3, wb, filler, NA, 999, 999, 2, 28, 66, 84, 188, 101, 168, 155, 1, 1.27409
334, 3, wb, filler, NA, 999, 999, 2, 28, 66, 84, 188, 101, 168, 155, 3, 0.893654
334, 3, wb, attraction, a-b-da, 14, 2, 2, 29, 90, 165, 165, 90, 153, 83, 3, 1.47932
334, 3, wb, attraction, a-b-da, 14, 2, 2, 29, 90, 165, 165, 90, 153, 83, 1, 0.978842
334, 3, wb, attraction, a-b-db, 2, 1, 2, 30, 135, 60, 60, 135, 59, 134, 2, 1.08915
334, 3, wb, attraction, a-b-db, 2, 1, 2, 30, 135, 60, 60, 135, 59, 134, 1, 0.772148
334, 3, wb, attraction, a-b-db, 5, 2, 2, 31, 88, 161, 165, 90, 90, 165, 2, 1.29924
334, 3, wb, attraction, a-b-db, 5, 2, 2, 31, 88, 161, 165, 90, 90, 165, 1, 0.646042
334, 3, wb, attraction, a-b-da, 14, 3, 2, 32, 195, 120, 181, 111, 120, 195, 2, 1.60979
334, 3, wb, attraction, a-b-da, 14, 3, 2, 32, 195, 120, 181, 111, 120, 195, 3, 0.551961
334, 3, wb, attraction, a-b-da, 9, 3, 2, 33, 186, 114, 195, 120, 120, 195, 1, 1.81565
334, 3, wb, attraction, a-b-da, 9, 3, 2, 33, 186, 114, 195, 120, 120, 195, 2, 0.549736
334, 3, wb, attraction, a-b-da, 5, 2, 2, 34, 165, 90, 161, 88, 90, 165, 1, 2.05352
334, 3, wb, attraction, a-b-da, 5, 2, 2, 34, 165, 90, 161, 88, 90, 165, 3, 0.474193
334, 3, wb, attraction, a-b-db, 9, 1, 2, 35, 57, 129, 135, 60, 60, 135, 1, 1.48469
334, 3, wb, attraction, a-b-db, 9, 1, 2, 35, 57, 129, 135, 60, 60, 135, 2, 0.968334
334, 3, wb, attraction, a-b-da, 5, 1, 2, 36, 135, 60, 132, 58, 60, 135, 2, 3.1112
334, 3, wb, attraction, a-b-da, 5, 1, 2, 36, 135, 60, 132, 58, 60, 135, 1, 0.904871
334, 3, wb, attraction, a-b-db, 14, 1, 2, 37, 135, 60, 56, 125, 60, 135, 2, 1.25851
334, 3, wb, attraction, a-b-db, 14, 1, 2, 37, 135, 60, 56, 125, 60, 135, 1, 2.13478
334, 3, wb, catch, NA, 999, 999, 3, 1, 124, 131, 153, 162, 63, 132, 3, 1.34266
334, 3, wb, catch, NA, 999, 999, 3, 1, 124, 131, 153, 162, 63, 132, 2, 0.671548
334, 3, wb, attraction, a-b-da, 9, 3, 3, 2, 186, 114, 195, 120, 120, 195, 1, 2.5546
334, 3, wb, attraction, a-b-da, 9, 3, 3, 2, 186, 114, 195, 120, 120, 195, 3, 0.787184
334, 3, wb, attraction, a-b-db, 2, 1, 3, 3, 60, 135, 59, 134, 135, 60, 3, 2.69753
334, 3, wb, attraction, a-b-db, 2, 1, 3, 3, 60, 135, 59, 134, 135, 60, 1, 0.940043
334, 3, wb, filler, NA, 999, 999, 3, 4, 146, 180, 136, 138, 99, 140, 3, 1.26768
334, 3, wb, filler, NA, 999, 999, 3, 4, 146, 180, 136, 138, 99, 140, 1, 0.599846
334, 3, wb, attraction, a-b-da, 14, 2, 3, 5, 165, 90, 153, 83, 90, 165, 2, 5.32561
334, 3, wb, attraction, a-b-da, 14, 2, 3, 5, 165, 90, 153, 83, 90, 165, 1, 0.669897
334, 3, wb, attraction, a-b-db, 14, 1, 3, 6, 56, 125, 135, 60, 60, 135, 2, 0.808977
334, 3, wb, attraction, a-b-db, 14, 1, 3, 6, 56, 125, 135, 60, 60, 135, 3, 1.70341
334, 3, wb, filler, NA, 999, 999, 3, 7, 117, 172, 81, 57, 116, 120, 2, 0.920725
334, 3, wb, filler, NA, 999, 999, 3, 7, 117, 172, 81, 57, 116, 120, 1, 0.491172
334, 3, wb, attraction, a-b-da, 9, 1, 3, 8, 135, 60, 60, 135, 129, 57, 1, 1.29293
334, 3, wb, attraction, a-b-da, 9, 1, 3, 8, 135, 60, 60, 135, 129, 57, 2, 0.791922
334, 3, wb, filler, NA, 999, 999, 3, 9, 132, 116, 69, 145, 131, 90, 2, 1.8455
334, 3, wb, filler, NA, 999, 999, 3, 9, 132, 116, 69, 145, 131, 90, 1, 0.474408
334, 3, wb, attraction, a-b-da, 2, 3, 3, 10, 120, 195, 193, 119, 195, 120, 2, 3.69265
334, 3, wb, attraction, a-b-da, 2, 3, 3, 10, 120, 195, 193, 119, 195, 120, 1, 0.502797
334, 3, wb, attraction, a-b-da, 14, 3, 3, 11, 120, 195, 195, 120, 181, 111, 1, 2.92069
334, 3, wb, attraction, a-b-da, 14, 3, 3, 11, 120, 195, 195, 120, 181, 111, 2, 0.594437
334, 3, wb, catch, NA, 999, 999, 3, 12, 171, 144, 125, 130, 88, 107, 3, 0.888268
334, 3, wb, catch, NA, 999, 999, 3, 12, 171, 144, 125, 130, 88, 107, 1, 0.507208
334, 3, wb, attraction, a-b-db, 9, 3, 3, 13, 114, 186, 195, 120, 120, 195, 1, 2.42833
334, 3, wb, attraction, a-b-db, 9, 3, 3, 13, 114, 186, 195, 120, 120, 195, 3, 0.449593
334, 3, wb, filler, NA, 999, 999, 3, 14, 104, 119, 86, 191, 104, 107, 3, 2.35747
334, 3, wb, filler, NA, 999, 999, 3, 14, 104, 119, 86, 191, 104, 107, 2, 0.477204
334, 3, wb, attraction, a-b-da, 5, 3, 3, 15, 120, 195, 190, 117, 195, 120, 2, 1.71971
334, 3, wb, attraction, a-b-da, 5, 3, 3, 15, 120, 195, 190, 117, 195, 120, 1, 0.537796
334, 3, wb, attraction, a-b-db, 2, 3, 3, 16, 120, 195, 119, 193, 195, 120, 1, 1.47418
334, 3, wb, attraction, a-b-db, 2, 3, 3, 16, 120, 195, 119, 193, 195, 120, 3, 0.501818
334, 3, wb, attraction, a-b-db, 5, 2, 3, 17, 88, 161, 165, 90, 90, 165, 1, 0.887418
334, 3, wb, attraction, a-b-db, 5, 2, 3, 17, 88, 161, 165, 90, 90, 165, 2, 0.427119
334, 3, wb, attraction, a-b-db, 5, 3, 3, 18, 195, 120, 120, 195, 117, 190, 3, 1.59972
334, 3, wb, attraction, a-b-db, 5, 3, 3, 18, 195, 120, 120, 195, 117, 190, 1, 0.75041
334, 3, wb, attraction, a-b-db, 9, 1, 3, 19, 135, 60, 57, 129, 60, 135, 2, 0.70216
334, 3, wb, attraction, a-b-db, 9, 1, 3, 19, 135, 60, 57, 129, 60, 135, 1, 0.609259
334, 3, wb, attraction, a-b-da, 2, 1, 3, 20, 135, 60, 134, 59, 60, 135, 2, 0.974357
334, 3, wb, attraction, a-b-da, 2, 1, 3, 20, 135, 60, 134, 59, 60, 135, 1, 0.59
334, 3, wb, attraction, a-b-db, 5, 1, 3, 21, 60, 135, 135, 60, 58, 132, 2, 1.13173
334, 3, wb, attraction, a-b-db, 5, 1, 3, 21, 60, 135, 135, 60, 58, 132, 1, 0.59744
334, 3, wb, attraction, a-b-da, 9, 2, 3, 22, 90, 165, 157, 86, 165, 90, 2, 1.5392
334, 3, wb, attraction, a-b-da, 9, 2, 3, 22, 90, 165, 157, 86, 165, 90, 1, 0.804058
334, 3, wb, filler, NA, 999, 999, 3, 23, 185, 68, 76, 125, 56, 115, 3, 1.24183
334, 3, wb, filler, NA, 999, 999, 3, 23, 185, 68, 76, 125, 56, 115, 1, 0.630624
334, 3, wb, attraction, a-b-da, 14, 1, 3, 24, 60, 135, 125, 56, 135, 60, 2, 0.986968
334, 3, wb, attraction, a-b-da, 14, 1, 3, 24, 60, 135, 125, 56, 135, 60, 1, 0.522644
334, 3, wb, attraction, a-b-db, 9, 2, 3, 25, 165, 90, 86, 157, 90, 165, 1, 2.12387
334, 3, wb, attraction, a-b-db, 9, 2, 3, 25, 165, 90, 86, 157, 90, 165, 2, 0.677053
334, 3, wb, catch, NA, 999, 999, 3, 26, 96, 99, 115, 140, 168, 147, 1, 0.951464
334, 3, wb, catch, NA, 999, 999, 3, 26, 96, 99, 115, 140, 168, 147, 3, 0.47245
334, 3, wb, attraction, a-b-db, 14, 2, 3, 27, 83, 153, 90, 165, 165, 90, 1, 3.69954
334, 3, wb, attraction, a-b-db, 14, 2, 3, 27, 83, 153, 90, 165, 165, 90, 3, 0.437737
334, 3, wb, filler, NA, 999, 999, 3, 28, 67, 57, 170, 82, 126, 96, 1, 0.930205
334, 3, wb, filler, NA, 999, 999, 3, 28, 67, 57, 170, 82, 126, 96, 2, 0.475965
334, 3, wb, filler, NA, 999, 999, 3, 29, 93, 122, 174, 140, 140, 94, 1, 1.33441
334, 3, wb, filler, NA, 999, 999, 3, 29, 93, 122, 174, 140, 140, 94, 2, 0.463934
334, 3, wb, attraction, a-b-da, 2, 2, 3, 30, 90, 165, 165, 90, 163, 89, 2, 2.53119
334, 3, wb, attraction, a-b-da, 2, 2, 3, 30, 90, 165, 165, 90, 163, 89, 1, 1.70822
334, 3, wb, attraction, a-b-db, 14, 3, 3, 31, 120, 195, 111, 181, 195, 120, 1, 3.797
334, 3, wb, attraction, a-b-db, 14, 3, 3, 31, 120, 195, 111, 181, 195, 120, 2, 1.15508
334, 3, wb, attraction, a-b-db, 2, 2, 3, 32, 90, 165, 89, 163, 165, 90, 1, 0.802637
334, 3, wb, attraction, a-b-db, 2, 2, 3, 32, 90, 165, 89, 163, 165, 90, 2, 0.465702
334, 3, wb, filler, NA, 999, 999, 3, 33, 73, 90, 107, 56, 67, 84, 2, 5.54887
334, 3, wb, filler, NA, 999, 999, 3, 33, 73, 90, 107, 56, 67, 84, 1, 0.684473
334, 3, wb, attraction, a-b-da, 5, 2, 3, 34, 161, 88, 165, 90, 90, 165, 1, 1.11879
334, 3, wb, attraction, a-b-da, 5, 2, 3, 34, 161, 88, 165, 90, 90, 165, 2, 0.665217
334, 3, wb, filler, NA, 999, 999, 3, 35, 184, 74, 195, 186, 115, 158, 1, 3.10025
334, 3, wb, filler, NA, 999, 999, 3, 35, 184, 74, 195, 186, 115, 158, 2, 0.566531
334, 3, wb, filler, NA, 999, 999, 3, 36, 58, 179, 190, 174, 178, 118, 1, 0.925627
334, 3, wb, filler, NA, 999, 999, 3, 36, 58, 179, 190, 174, 178, 118, 2, 0.551349
334, 3, wb, attraction, a-b-da, 5, 1, 3, 37, 135, 60, 132, 58, 60, 135, 1, 2.49509
334, 3, wb, attraction, a-b-da, 5, 1, 3, 37, 135, 60, 132, 58, 60, 135, 3, 0.897625
334, 3, wb, attraction, a-b-db, 2, 1, 4, 1, 135, 60, 59, 134, 60, 135, 2, 0.811286
334, 3, wb, attraction, a-b-db, 2, 1, 4, 1, 135, 60, 59, 134, 60, 135, 1, 0.545769
334, 3, wb, attraction, a-b-da, 2, 3, 4, 2, 120, 195, 195, 120, 193, 119, 2, 0.7375
334, 3, wb, attraction, a-b-da, 2, 3, 4, 2, 120, 195, 195, 120, 193, 119, 1, 0.595241
334, 3, wb, attraction, a-b-da, 9, 1, 4, 3, 135, 60, 129, 57, 60, 135, 2, 0.66501
334, 3, wb, attraction, a-b-da, 9, 1, 4, 3, 135, 60, 129, 57, 60, 135, 1, 0.749417
334, 3, wb, filler, NA, 999, 999, 4, 4, 126, 171, 176, 190, 172, 108, 3, 1.78909
334, 3, wb, filler, NA, 999, 999, 4, 4, 126, 171, 176, 190, 172, 108, 2, 0.539946
334, 3, wb, catch, NA, 999, 999, 4, 5, 162, 93, 120, 75, 162, 153, 2, 1.45959
334, 3, wb, catch, NA, 999, 999, 4, 5, 162, 93, 120, 75, 162, 153, 3, 0.543779
334, 3, wb, catch, NA, 999, 999, 4, 6, 63, 132, 123, 192, 156, 99, 1, 0.935502
334, 3, wb, catch, NA, 999, 999, 4, 6, 63, 132, 123, 192, 156, 99, 2, 0.521206
334, 3, wb, attraction, a-b-da, 2, 2, 4, 7, 163, 89, 90, 165, 165, 90, 2, 1.49036
334, 3, wb, attraction, a-b-da, 2, 2, 4, 7, 163, 89, 90, 165, 165, 90, 1, 0.813173
334, 3, wb, filler, NA, 999, 999, 4, 8, 166, 188, 60, 168, 97, 156, 2, 0.722126
334, 3, wb, filler, NA, 999, 999, 4, 8, 166, 188, 60, 168, 97, 156, 1, 0.587897
334, 3, wb, attraction, a-b-da, 2, 1, 4, 9, 60, 135, 135, 60, 134, 59, 2, 0.76233
334, 3, wb, attraction, a-b-da, 2, 1, 4, 9, 60, 135, 135, 60, 134, 59, 1, 0.73879
334, 3, wb, attraction, a-b-db, 5, 2, 4, 10, 90, 165, 165, 90, 88, 161, 2, 0.819178
334, 3, wb, attraction, a-b-db, 5, 2, 4, 10, 90, 165, 165, 90, 88, 161, 1, 0.633571
334, 3, wb, filler, NA, 999, 999, 4, 11, 100, 113, 87, 61, 75, 103, 2, 0.678001
334, 3, wb, filler, NA, 999, 999, 4, 11, 100, 113, 87, 61, 75, 103, 1, 0.473822
334, 3, wb, attraction, a-b-da, 5, 2, 4, 12, 161, 88, 90, 165, 165, 90, 2, 0.860147
334, 3, wb, attraction, a-b-da, 5, 2, 4, 12, 161, 88, 90, 165, 165, 90, 1, 0.664644
334, 3, wb, attraction, a-b-da, 14, 3, 4, 13, 120, 195, 195, 120, 181, 111, 2, 1.34755
334, 3, wb, attraction, a-b-da, 14, 3, 4, 13, 120, 195, 195, 120, 181, 111, 1, 0.572441
334, 3, wb, filler, NA, 999, 999, 4, 14, 148, 80, 83, 106, 128, 192, 2, 0.739575
334, 3, wb, filler, NA, 999, 999, 4, 14, 148, 80, 83, 106, 128, 192, 3, 0.40465
334, 3, wb, filler, NA, 999, 999, 4, 15, 82, 161, 138, 136, 146, 144, 1, 0.978492
334, 3, wb, filler, NA, 999, 999, 4, 15, 82, 161, 138, 136, 146, 144, 2, 0.602178
334, 3, wb, attraction, a-b-db, 5, 1, 4, 16, 135, 60, 58, 132, 60, 135, 2, 2.3039
334, 3, wb, attraction, a-b-db, 5, 1, 4, 16, 135, 60, 58, 132, 60, 135, 1, 0.642629
334, 3, wb, attraction, a-b-da, 5, 1, 4, 17, 132, 58, 135, 60, 60, 135, 3, 2.66218
334, 3, wb, attraction, a-b-da, 5, 1, 4, 17, 132, 58, 135, 60, 60, 135, 1, 0.481997
334, 3, wb, attraction, a-b-db, 9, 1, 4, 18, 60, 135, 57, 129, 135, 60, 2, 1.15663
334, 3, wb, attraction, a-b-db, 9, 1, 4, 18, 60, 135, 57, 129, 135, 60, 3, 1.06882
334, 3, wb, attraction, a-b-db, 14, 2, 4, 19, 90, 165, 165, 90, 83, 153, 3, 1.07976
334, 3, wb, attraction, a-b-db, 14, 2, 4, 19, 90, 165, 165, 90, 83, 153, 1, 0.691384
334, 3, wb, attraction, a-b-da, 9, 3, 4, 20, 120, 195, 195, 120, 186, 114, 3, 3.02908
334, 3, wb, attraction, a-b-da, 9, 3, 4, 20, 120, 195, 195, 120, 186, 114, 2, 0.866071
334, 3, wb, attraction, a-b-db, 5, 3, 4, 21, 195, 120, 120, 195, 117, 190, 3, 2.0772
334, 3, wb, attraction, a-b-db, 5, 3, 4, 21, 195, 120, 120, 195, 117, 190, 2, 0.744444
334, 3, wb, catch, NA, 999, 999, 4, 22, 158, 97, 142, 173, 69, 126, 3, 0.904064
334, 3, wb, catch, NA, 999, 999, 4, 22, 158, 97, 142, 173, 69, 126, 2, 1.13912
334, 3, wb, filler, NA, 999, 999, 4, 23, 169, 69, 129, 171, 58, 57, 3, 0.912772
334, 3, wb, filler, NA, 999, 999, 4, 23, 169, 69, 129, 171, 58, 57, 2, 0.557804
334, 3, wb, attraction, a-b-da, 14, 2, 4, 24, 153, 83, 165, 90, 90, 165, 2, 1.10902
334, 3, wb, attraction, a-b-da, 14, 2, 4, 24, 153, 83, 165, 90, 90, 165, 3, 1.55115
334, 3, wb, attraction, a-b-da, 14, 1, 4, 25, 125, 56, 135, 60, 60, 135, 1, 1.98257
334, 3, wb, attraction, a-b-da, 14, 1, 4, 25, 125, 56, 135, 60, 60, 135, 2, 0.813951
334, 3, wb, filler, NA, 999, 999, 4, 26, 89, 111, 163, 66, 83, 98, 3, 1.78699
334, 3, wb, filler, NA, 999, 999, 4, 26, 89, 111, 163, 66, 83, 98, 2, 2.17045
334, 3, wb, attraction, a-b-db, 2, 2, 4, 27, 89, 163, 90, 165, 165, 90, 3, 2.025
334, 3, wb, attraction, a-b-db, 2, 2, 4, 27, 89, 163, 90, 165, 165, 90, 2, 0.71038
334, 3, wb, filler, NA, 999, 999, 4, 28, 151, 142, 75, 123, 81, 116, 2, 0.895374
334, 3, wb, filler, NA, 999, 999, 4, 28, 151, 142, 75, 123, 81, 116, 1, 0.498387
334, 3, wb, filler, NA, 999, 999, 4, 29, 91, 138, 61, 78, 100, 74, 2, 0.908287
334, 3, wb, filler, NA, 999, 999, 4, 29, 91, 138, 61, 78, 100, 74, 1, 0.494536
334, 3, wb, attraction, a-b-db, 9, 2, 4, 30, 165, 90, 86, 157, 90, 165, 2, 0.968296
334, 3, wb, attraction, a-b-db, 9, 2, 4, 30, 165, 90, 86, 157, 90, 165, 1, 0.728825
334, 3, wb, attraction, a-b-db, 9, 3, 4, 31, 120, 195, 114, 186, 195, 120, 2, 2.05697
334, 3, wb, attraction, a-b-db, 9, 3, 4, 31, 120, 195, 114, 186, 195, 120, 3, 0.557182
334, 3, wb, filler, NA, 999, 999, 4, 32, 174, 120, 66, 105, 120, 152, 2, 0.580166
334, 3, wb, filler, NA, 999, 999, 4, 32, 174, 120, 66, 105, 120, 152, 1, 0.611931
334, 3, wb, attraction, a-b-db, 2, 3, 4, 33, 120, 195, 195, 120, 119, 193, 2, 0.737056
334, 3, wb, attraction, a-b-db, 2, 3, 4, 33, 120, 195, 195, 120, 119, 193, 1, 0.586927
334, 3, wb, attraction, a-b-db, 14, 1, 4, 34, 135, 60, 56, 125, 60, 135, 2, 0.905281
334, 3, wb, attraction, a-b-db, 14, 1, 4, 34, 135, 60, 56, 125, 60, 135, 1, 0.795581
334, 3, wb, attraction, a-b-db, 14, 3, 4, 35, 195, 120, 120, 195, 111, 181, 2, 0.665222
334, 3, wb, attraction, a-b-db, 14, 3, 4, 35, 195, 120, 120, 195, 111, 181, 1, 0.773715
334, 3, wb, attraction, a-b-da, 5, 3, 4, 36, 190, 117, 120, 195, 195, 120, 2, 0.708131
334, 3, wb, attraction, a-b-da, 5, 3, 4, 36, 190, 117, 120, 195, 195, 120, 3, 0.534471
334, 3, wb, attraction, a-b-da, 9, 2, 4, 37, 90, 165, 157, 86, 165, 90, 2, 0.758955
334, 3, wb, attraction, a-b-da, 9, 2, 4, 37, 90, 165, 157, 86, 165, 90, 1, 0.631365
334, 3, wb, attraction, a-b-da, 9, 1, 5, 1, 135, 60, 129, 57, 60, 135, 2, 2.10639
334, 3, wb, attraction, a-b-da, 9, 1, 5, 1, 135, 60, 129, 57, 60, 135, 3, 0.900331
334, 3, wb, attraction, a-b-db, 2, 2, 5, 2, 90, 165, 89, 163, 165, 90, 3, 1.00605
334, 3, wb, attraction, a-b-db, 2, 2, 5, 2, 90, 165, 89, 163, 165, 90, 2, 0.372265
334, 3, wb, filler, NA, 999, 999, 5, 3, 86, 148, 117, 191, 184, 164, 1, 0.835395
334, 3, wb, filler, NA, 999, 999, 5, 3, 86, 148, 117, 191, 184, 164, 3, 0.377347
334, 3, wb, filler, NA, 999, 999, 5, 4, 67, 131, 150, 82, 58, 182, 1, 1.1036
334, 3, wb, filler, NA, 999, 999, 5, 4, 67, 131, 150, 82, 58, 182, 2, 0.514728
334, 3, wb, attraction, a-b-da, 9, 2, 5, 5, 90, 165, 165, 90, 157, 86, 3, 1.46781
334, 3, wb, attraction, a-b-da, 9, 2, 5, 5, 90, 165, 165, 90, 157, 86, 1, 0.447978
334, 3, wb, attraction, a-b-da, 5, 3, 5, 6, 195, 120, 190, 117, 120, 195, 1, 1.98775
334, 3, wb, attraction, a-b-da, 5, 3, 5, 6, 195, 120, 190, 117, 120, 195, 3, 0.707123
334, 3, wb, attraction, a-b-db, 14, 1, 5, 7, 60, 135, 56, 125, 135, 60, 2, 2.27608
334, 3, wb, attraction, a-b-db, 14, 1, 5, 7, 60, 135, 56, 125, 135, 60, 3, 0.6634
334, 3, wb, attraction, a-b-da, 14, 2, 5, 8, 165, 90, 153, 83, 90, 165, 3, 1.17851
334, 3, wb, attraction, a-b-da, 14, 2, 5, 8, 165, 90, 153, 83, 90, 165, 1, 0.770125
334, 3, wb, attraction, a-b-db, 9, 3, 5, 9, 195, 120, 114, 186, 120, 195, 2, 0.809043
334, 3, wb, attraction, a-b-db, 9, 3, 5, 9, 195, 120, 114, 186, 120, 195, 3, 0.759651
334, 3, wb, filler, NA, 999, 999, 5, 10, 170, 146, 117, 159, 93, 132, 3, 0.726574
334, 3, wb, filler, NA, 999, 999, 5, 10, 170, 146, 117, 159, 93, 132, 1, 0.456448
334, 3, wb, attraction, a-b-da, 2, 3, 5, 11, 195, 120, 193, 119, 120, 195, 1, 2.29201
334, 3, wb, attraction, a-b-da, 2, 3, 5, 11, 195, 120, 193, 119, 120, 195, 3, 1.44678
334, 3, wb, attraction, a-b-da, 5, 1, 5, 12, 135, 60, 60, 135, 132, 58, 3, 1.65015
334, 3, wb, attraction, a-b-da, 5, 1, 5, 12, 135, 60, 60, 135, 132, 58, 2, 0.614927
334, 3, wb, attraction, a-b-db, 9, 2, 5, 13, 90, 165, 165, 90, 86, 157, 2, 1.81996
334, 3, wb, attraction, a-b-db, 9, 2, 5, 13, 90, 165, 165, 90, 86, 157, 1, 0.482114
334, 3, wb, filler, NA, 999, 999, 5, 14, 125, 88, 191, 57, 195, 173, 1, 1.35652
334, 3, wb, filler, NA, 999, 999, 5, 14, 125, 88, 191, 57, 195, 173, 3, 0.38886
334, 3, wb, filler, NA, 999, 999, 5, 15, 119, 154, 121, 145, 130, 87, 3, 1.10727
334, 3, wb, filler, NA, 999, 999, 5, 15, 119, 154, 121, 145, 130, 87, 1, 0.48559
334, 3, wb, catch, NA, 999, 999, 5, 16, 141, 114, 151, 164, 132, 63, 3, 0.864117
334, 3, wb, catch, NA, 999, 999, 5, 16, 141, 114, 151, 164, 132, 63, 2, 0.724425
334, 3, wb, attraction, a-b-db, 5, 2, 5, 17, 165, 90, 88, 161, 90, 165, 1, 1.24474
334, 3, wb, attraction, a-b-db, 5, 2, 5, 17, 165, 90, 88, 161, 90, 165, 2, 0.713679
334, 3, wb, attraction, a-b-db, 5, 3, 5, 18, 195, 120, 117, 190, 120, 195, 2, 1.95479
334, 3, wb, attraction, a-b-db, 5, 3, 5, 18, 195, 120, 117, 190, 120, 195, 1, 0.603472
334, 3, wb, attraction, a-b-db, 5, 1, 5, 19, 60, 135, 58, 132, 135, 60, 2, 0.769236
334, 3, wb, attraction, a-b-db, 5, 1, 5, 19, 60, 135, 58, 132, 135, 60, 1, 0.681664
334, 3, wb, filler, NA, 999, 999, 5, 20, 129, 85, 140, 102, 140, 135, 2, 0.867914
334, 3, wb, filler, NA, 999, 999, 5, 20, 129, 85, 140, 102, 140, 135, 3, 0.36044
334, 3, wb, attraction, a-b-db, 2, 1, 5, 21, 60, 135, 135, 60, 59, 134, 2, 0.735628
334, 3, wb, attraction, a-b-db, 2, 1, 5, 21, 60, 135, 135, 60, 59, 134, 1, 0.545238
334, 3, wb, filler, NA, 999, 999, 5, 22, 175, 193, 150, 157, 137, 161, 2, 1.61741
334, 3, wb, filler, NA, 999, 999, 5, 22, 175, 193, 150, 157, 137, 161, 1, 0.423123
334, 3, wb, filler, NA, 999, 999, 5, 23, 96, 74, 110, 81, 183, 134, 1, 1.00429
334, 3, wb, filler, NA, 999, 999, 5, 23, 96, 74, 110, 81, 183, 134, 3, 0.843455
334, 3, wb, attraction, a-b-da, 2, 1, 5, 24, 60, 135, 135, 60, 134, 59, 2, 0.74297
334, 3, wb, attraction, a-b-da, 2, 1, 5, 24, 60, 135, 135, 60, 134, 59, 1, 0.536188
334, 3, wb, attraction, a-b-db, 2, 3, 5, 25, 119, 193, 195, 120, 120, 195, 1, 1.76849
334, 3, wb, attraction, a-b-db, 2, 3, 5, 25, 119, 193, 195, 120, 120, 195, 2, 0.336572
334, 3, wb, attraction, a-b-da, 5, 2, 5, 26, 165, 90, 161, 88, 90, 165, 2, 1.15317
334, 3, wb, attraction, a-b-da, 5, 2, 5, 26, 165, 90, 161, 88, 90, 165, 3, 0.594136
334, 3, wb, catch, NA, 999, 999, 5, 27, 72, 123, 142, 173, 99, 156, 1, 0.75977
334, 3, wb, catch, NA, 999, 999, 5, 27, 72, 123, 142, 173, 99, 156, 2, 0.472312
334, 3, wb, attraction, a-b-db, 14, 2, 5, 28, 165, 90, 83, 153, 90, 165, 2, 0.827321
334, 3, wb, attraction, a-b-db, 14, 2, 5, 28, 165, 90, 83, 153, 90, 165, 1, 0.657117
334, 3, wb, attraction, a-b-da, 14, 3, 5, 29, 195, 120, 181, 111, 120, 195, 2, 0.772183
334, 3, wb, attraction, a-b-da, 14, 3, 5, 29, 195, 120, 181, 111, 120, 195, 1, 0.515893
334, 3, wb, attraction, a-b-da, 2, 2, 5, 30, 90, 165, 165, 90, 163, 89, 2, 0.796995
334, 3, wb, attraction, a-b-da, 2, 2, 5, 30, 90, 165, 165, 90, 163, 89, 3, 0.396001
334, 3, wb, filler, NA, 999, 999, 5, 31, 59, 127, 121, 148, 138, 132, 1, 0.953935
334, 3, wb, filler, NA, 999, 999, 5, 31, 59, 127, 121, 148, 138, 132, 2, 0.410846
334, 3, wb, catch, NA, 999, 999, 5, 32, 84, 111, 144, 171, 100, 155, 1, 0.84803
334, 3, wb, catch, NA, 999, 999, 5, 32, 84, 111, 144, 171, 100, 155, 2, 0.3491
334, 3, wb, filler, NA, 999, 999, 5, 33, 136, 114, 67, 119, 153, 136, 2, 0.84489
334, 3, wb, filler, NA, 999, 999, 5, 33, 136, 114, 67, 119, 153, 136, 3, 0.369951
334, 3, wb, attraction, a-b-da, 9, 3, 5, 34, 195, 120, 120, 195, 186, 114, 2, 0.641046
334, 3, wb, attraction, a-b-da, 9, 3, 5, 34, 195, 120, 120, 195, 186, 114, 1, 0.390133
334, 3, wb, attraction, a-b-db, 14, 3, 5, 35, 120, 195, 111, 181, 195, 120, 2, 0.796047
334, 3, wb, attraction, a-b-db, 14, 3, 5, 35, 120, 195, 111, 181, 195, 120, 1, 0.49122
334, 3, wb, attraction, a-b-da, 14, 1, 5, 36, 135, 60, 60, 135, 125, 56, 2, 0.668879
334, 3, wb, attraction, a-b-da, 14, 1, 5, 36, 135, 60, 60, 135, 125, 56, 3, 0.433328
334, 3, wb, attraction, a-b-db, 9, 1, 5, 37, 135, 60, 57, 129, 60, 135, 2, 0.717757
334, 3, wb, attraction, a-b-db, 9, 1, 5, 37, 135, 60, 57, 129, 60, 135, 1, 0.848248
334, 3, wb, attraction, a-b-da, 9, 2, 6, 1, 90, 165, 165, 90, 157, 86, 2, 0.619872
334, 3, wb, attraction, a-b-da, 9, 2, 6, 1, 90, 165, 165, 90, 157, 86, 1, 0.538504
334, 3, wb, attraction, a-b-da, 14, 3, 6, 2, 181, 111, 120, 195, 195, 120, 2, 0.754694
334, 3, wb, attraction, a-b-da, 14, 3, 6, 2, 181, 111, 120, 195, 195, 120, 3, 0.363153
334, 3, wb, attraction, a-b-db, 2, 1, 6, 3, 135, 60, 59, 134, 60, 135, 2, 1.10637
334, 3, wb, attraction, a-b-db, 2, 1, 6, 3, 135, 60, 59, 134, 60, 135, 1, 0.77258
334, 3, wb, filler, NA, 999, 999, 6, 4, 57, 126, 126, 147, 183, 135, 1, 0.787616
334, 3, wb, filler, NA, 999, 999, 6, 4, 57, 126, 126, 147, 183, 135, 2, 0.395365
334, 3, wb, filler, NA, 999, 999, 6, 5, 176, 189, 195, 191, 118, 72, 3, 1.11318
334, 3, wb, filler, NA, 999, 999, 6, 5, 176, 189, 195, 191, 118, 72, 2, 1.12348
334, 3, wb, attraction, a-b-da, 9, 3, 6, 6, 120, 195, 186, 114, 195, 120, 2, 1.27574
334, 3, wb, attraction, a-b-da, 9, 3, 6, 6, 120, 195, 186, 114, 195, 120, 1, 0.607386
334, 3, wb, catch, NA, 999, 999, 6, 7, 121, 194, 124, 131, 72, 123, 3, 0.700397
334, 3, wb, catch, NA, 999, 999, 6, 7, 121, 194, 124, 131, 72, 123, 1, 0.615441
334, 3, wb, attraction, a-b-db, 2, 3, 6, 8, 120, 195, 195, 120, 119, 193, 1, 1.44454
334, 3, wb, attraction, a-b-db, 2, 3, 6, 8, 120, 195, 195, 120, 119, 193, 2, 1.38536
334, 3, wb, filler, NA, 999, 999, 6, 9, 154, 187, 133, 93, 170, 93, 2, 0.991653
334, 3, wb, filler, NA, 999, 999, 6, 9, 154, 187, 133, 93, 170, 93, 1, 0.446586
334, 3, wb, attraction, a-b-db, 14, 1, 6, 10, 56, 125, 135, 60, 60, 135, 1, 0.834341
334, 3, wb, attraction, a-b-db, 14, 1, 6, 10, 56, 125, 135, 60, 60, 135, 2, 0.672245
334, 3, wb, attraction, a-b-db, 2, 2, 6, 11, 90, 165, 165, 90, 89, 163, 1, 3.4513
334, 3, wb, attraction, a-b-db, 2, 2, 6, 11, 90, 165, 165, 90, 89, 163, 2, 0.719397
334, 3, wb, attraction, a-b-db, 9, 1, 6, 12, 135, 60, 57, 129, 60, 135, 2, 1.04053
334, 3, wb, attraction, a-b-db, 9, 1, 6, 12, 135, 60, 57, 129, 60, 135, 3, 0.901384
334, 3, wb, attraction, a-b-db, 14, 2, 6, 13, 83, 153, 90, 165, 165, 90, 1, 1.27118
334, 3, wb, attraction, a-b-db, 14, 2, 6, 13, 83, 153, 90, 165, 165, 90, 2, 0.467332
334, 3, wb, attraction, a-b-da, 2, 1, 6, 14, 60, 135, 134, 59, 135, 60, 2, 1.19056
334, 3, wb, attraction, a-b-da, 2, 1, 6, 14, 60, 135, 134, 59, 135, 60, 1, 0.621361
334, 3, wb, filler, NA, 999, 999, 6, 15, 79, 66, 190, 124, 96, 76, 1, 0.786483
334, 3, wb, filler, NA, 999, 999, 6, 15, 79, 66, 190, 124, 96, 76, 2, 0.378277
334, 3, wb, filler, NA, 999, 999, 6, 16, 157, 94, 83, 136, 160, 59, 2, 1.85663
334, 3, wb, filler, NA, 999, 999, 6, 16, 157, 94, 83, 136, 160, 59, 1, 0.452916
334, 3, wb, attraction, a-b-da, 5, 1, 6, 17, 135, 60, 132, 58, 60, 135, 2, 0.656585
334, 3, wb, attraction, a-b-da, 5, 1, 6, 17, 135, 60, 132, 58, 60, 135, 3, 0.685017
334, 3, wb, attraction, a-b-db, 5, 2, 6, 18, 90, 165, 165, 90, 88, 161, 2, 0.791387
334, 3, wb, attraction, a-b-db, 5, 2, 6, 18, 90, 165, 165, 90, 88, 161, 1, 0.67041
334, 3, wb, filler, NA, 999, 999, 6, 19, 89, 154, 175, 94, 160, 61, 3, 1.27345
334, 3, wb, filler, NA, 999, 999, 6, 19, 89, 154, 175, 94, 160, 61, 2, 0.461084
334, 3, wb, attraction, a-b-db, 9, 3, 6, 20, 195, 120, 120, 195, 114, 186, 3, 1.87237
334, 3, wb, attraction, a-b-db, 9, 3, 6, 20, 195, 120, 120, 195, 114, 186, 2, 0.555575
334, 3, wb, attraction, a-b-db, 5, 3, 6, 21, 120, 195, 195, 120, 117, 190, 3, 2.12336
334, 3, wb, attraction, a-b-db, 5, 3, 6, 21, 120, 195, 195, 120, 117, 190, 2, 0.57269
334, 3, wb, catch, NA, 999, 999, 6, 22, 79, 116, 134, 181, 132, 123, 1, 1.0198
334, 3, wb, catch, NA, 999, 999, 6, 22, 79, 116, 134, 181, 132, 123, 2, 0.706094
334, 3, wb, filler, NA, 999, 999, 6, 23, 122, 160, 137, 64, 187, 65, 2, 0.979735
334, 3, wb, filler, NA, 999, 999, 6, 23, 122, 160, 137, 64, 187, 65, 1, 0.459434
334, 3, wb, attraction, a-b-db, 9, 2, 6, 24, 86, 157, 90, 165, 165, 90, 2, 1.63064
334, 3, wb, attraction, a-b-db, 9, 2, 6, 24, 86, 157, 90, 165, 165, 90, 3, 0.676231
334, 3, wb, attraction, a-b-da, 14, 1, 6, 25, 60, 135, 125, 56, 135, 60, 2, 0.702432
334, 3, wb, attraction, a-b-da, 14, 1, 6, 25, 60, 135, 125, 56, 135, 60, 1, 0.817517
334, 3, wb, filler, NA, 999, 999, 6, 26, 169, 63, 137, 130, 174, 143, 1, 1.21459
334, 3, wb, filler, NA, 999, 999, 6, 26, 169, 63, 137, 130, 174, 143, 3, 0.629055
334, 3, wb, attraction, a-b-da, 2, 2, 6, 27, 163, 89, 165, 90, 90, 165, 2, 1.0652
334, 3, wb, attraction, a-b-da, 2, 2, 6, 27, 163, 89, 165, 90, 90, 165, 1, 0.469555
334, 3, wb, attraction, a-b-da, 14, 2, 6, 28, 90, 165, 153, 83, 165, 90, 2, 0.568756
334, 3, wb, attraction, a-b-da, 14, 2, 6, 28, 90, 165, 153, 83, 165, 90, 1, 0.425093
334, 3, wb, attraction, a-b-da, 2, 3, 6, 29, 120, 195, 193, 119, 195, 120, 2, 0.797622
334, 3, wb, attraction, a-b-da, 2, 3, 6, 29, 120, 195, 193, 119, 195, 120, 1, 0.508705
334, 3, wb, attraction, a-b-da, 5, 2, 6, 30, 165, 90, 161, 88, 90, 165, 2, 0.749803
334, 3, wb, attraction, a-b-da, 5, 2, 6, 30, 165, 90, 161, 88, 90, 165, 1, 0.734886
334, 3, wb, attraction, a-b-db, 14, 3, 6, 31, 195, 120, 120, 195, 111, 181, 2, 0.671346
334, 3, wb, attraction, a-b-db, 14, 3, 6, 31, 195, 120, 120, 195, 111, 181, 1, 0.611011
334, 3, wb, attraction, a-b-da, 5, 3, 6, 32, 195, 120, 190, 117, 120, 195, 2, 2.66415
334, 3, wb, attraction, a-b-da, 5, 3, 6, 32, 195, 120, 190, 117, 120, 195, 1, 0.65996
334, 3, wb, attraction, a-b-db, 5, 1, 6, 33, 60, 135, 135, 60, 58, 132, 2, 0.70295
334, 3, wb, attraction, a-b-db, 5, 1, 6, 33, 60, 135, 135, 60, 58, 132, 1, 0.714057
334, 3, wb, catch, NA, 999, 999, 6, 34, 96, 99, 153, 102, 179, 136, 1, 2.33915
334, 3, wb, catch, NA, 999, 999, 6, 34, 96, 99, 153, 102, 179, 136, 3, 0.499663
334, 3, wb, filler, NA, 999, 999, 6, 35, 169, 66, 90, 80, 125, 166, 2, 0.813517
334, 3, wb, filler, NA, 999, 999, 6, 35, 169, 66, 90, 80, 125, 166, 3, 0.395812
334, 3, wb, attraction, a-b-da, 9, 1, 6, 36, 129, 57, 135, 60, 60, 135, 2, 0.953691
334, 3, wb, attraction, a-b-da, 9, 1, 6, 36, 129, 57, 135, 60, 60, 135, 1, 0.730716
334, 3, wb, filler, NA, 999, 999, 6, 37, 140, 95, 86, 92, 171, 166, 2, 0.5951
334, 3, wb, filler, NA, 999, 999, 6, 37, 140, 95, 86, 92, 171, 166, 3, 0.290144
334, 3, wb, filler, NA, 999, 999, 7, 1, 178, 104, 81, 105, 175, 149, 2, 0.628076
334, 3, wb, filler, NA, 999, 999, 7, 1, 178, 104, 81, 105, 175, 149, 3, 0.361789
334, 3, wb, attraction, a-b-da, 9, 3, 7, 2, 195, 120, 120, 195, 186, 114, 1, 1.32898
334, 3, wb, attraction, a-b-da, 9, 3, 7, 2, 195, 120, 120, 195, 186, 114, 2, 0.426568
334, 3, wb, catch, NA, 999, 999, 7, 3, 117, 138, 158, 157, 107, 88, 3, 0.719044
334, 3, wb, catch, NA, 999, 999, 7, 3, 117, 138, 158, 157, 107, 88, 2, 0.321573
334, 3, wb, attraction, a-b-da, 5, 2, 7, 4, 165, 90, 161, 88, 90, 165, 2, 1.01067
334, 3, wb, attraction, a-b-da, 5, 2, 7, 4, 165, 90, 161, 88, 90, 165, 1, 0.53709
334, 3, wb, attraction, a-b-da, 9, 1, 7, 5, 129, 57, 60, 135, 135, 60, 1, 0.961375
334, 3, wb, attraction, a-b-da, 9, 1, 7, 5, 129, 57, 60, 135, 135, 60, 2, 0.473737
334, 3, wb, attraction, a-b-db, 2, 3, 7, 6, 120, 195, 195, 120, 119, 193, 3, 2.79618
334, 3, wb, attraction, a-b-db, 2, 3, 7, 6, 120, 195, 195, 120, 119, 193, 2, 0.930582
334, 3, wb, filler, NA, 999, 999, 7, 7, 136, 88, 117, 181, 183, 169, 1, 0.555009
334, 3, wb, filler, NA, 999, 999, 7, 7, 136, 88, 117, 181, 183, 169, 3, 0.635351
334, 3, wb, attraction, a-b-da, 9, 2, 7, 8, 165, 90, 90, 165, 157, 86, 2, 1.00796
334, 3, wb, attraction, a-b-da, 9, 2, 7, 8, 165, 90, 90, 165, 157, 86, 1, 0.774098
334, 3, wb, attraction, a-b-da, 2, 3, 7, 9, 193, 119, 120, 195, 195, 120, 2, 1.85248
334, 3, wb, attraction, a-b-da, 2, 3, 7, 9, 193, 119, 120, 195, 195, 120, 3, 0.409256
334, 3, wb, attraction, a-b-db, 5, 1, 7, 10, 60, 135, 135, 60, 58, 132, 1, 0.766352
334, 3, wb, attraction, a-b-db, 5, 1, 7, 10, 60, 135, 135, 60, 58, 132, 2, 0.398714
334, 3, wb, attraction, a-b-da, 14, 3, 7, 11, 120, 195, 181, 111, 195, 120, 2, 2.10056
334, 3, wb, attraction, a-b-da, 14, 3, 7, 11, 120, 195, 181, 111, 195, 120, 1, 0.663147
334, 3, wb, attraction, a-b-da, 14, 1, 7, 12, 60, 135, 125, 56, 135, 60, 1, 1.69034
334, 3, wb, attraction, a-b-da, 14, 1, 7, 12, 60, 135, 125, 56, 135, 60, 2, 0.517165
334, 3, wb, attraction, a-b-db, 5, 3, 7, 13, 195, 120, 120, 195, 117, 190, 2, 3.03829
334, 3, wb, attraction, a-b-db, 5, 3, 7, 13, 195, 120, 120, 195, 117, 190, 1, 0.603289
334, 3, wb, attraction, a-b-db, 14, 3, 7, 14, 120, 195, 195, 120, 111, 181, 3, 1.96906
334, 3, wb, attraction, a-b-db, 14, 3, 7, 14, 120, 195, 195, 120, 111, 181, 1, 0.776948
334, 3, wb, filler, NA, 999, 999, 7, 15, 81, 193, 176, 89, 59, 88, 3, 0.90344
334, 3, wb, filler, NA, 999, 999, 7, 15, 81, 193, 176, 89, 59, 88, 2, 0.530331
334, 3, wb, attraction, a-b-db, 9, 1, 7, 16, 60, 135, 135, 60, 57, 129, 2, 2.97082
334, 3, wb, attraction, a-b-db, 9, 1, 7, 16, 60, 135, 135, 60, 57, 129, 1, 0.882491
334, 3, wb, attraction, a-b-da, 5, 3, 7, 17, 190, 117, 120, 195, 195, 120, 2, 2.25283
334, 3, wb, attraction, a-b-da, 5, 3, 7, 17, 190, 117, 120, 195, 195, 120, 1, 0.609472
334, 3, wb, attraction, a-b-da, 2, 1, 7, 18, 60, 135, 134, 59, 135, 60, 1, 1.48664
334, 3, wb, attraction, a-b-da, 2, 1, 7, 18, 60, 135, 134, 59, 135, 60, 2, 0.602065
334, 3, wb, filler, NA, 999, 999, 7, 19, 170, 167, 111, 176, 84, 129, 3, 3.0398
334, 3, wb, filler, NA, 999, 999, 7, 19, 170, 167, 111, 176, 84, 129, 1, 0.484191
334, 3, wb, attraction, a-b-db, 14, 2, 7, 20, 165, 90, 90, 165, 83, 153, 3, 4.11066
334, 3, wb, attraction, a-b-db, 14, 2, 7, 20, 165, 90, 90, 165, 83, 153, 2, 0.447997
334, 3, wb, attraction, a-b-da, 14, 2, 7, 21, 153, 83, 90, 165, 165, 90, 1, 1.09987
334, 3, wb, attraction, a-b-da, 14, 2, 7, 21, 153, 83, 90, 165, 165, 90, 2, 0.678747
334, 3, wb, filler, NA, 999, 999, 7, 22, 73, 59, 153, 165, 150, 148, 1, 1.05708
334, 3, wb, filler, NA, 999, 999, 7, 22, 73, 59, 153, 165, 150, 148, 2, 0.557535
334, 3, wb, attraction, a-b-da, 2, 2, 7, 23, 90, 165, 163, 89, 165, 90, 3, 2.10055
334, 3, wb, attraction, a-b-da, 2, 2, 7, 23, 90, 165, 163, 89, 165, 90, 1, 1.07123
334, 3, wb, attraction, a-b-db, 9, 3, 7, 24, 114, 186, 195, 120, 120, 195, 1, 2.24216
334, 3, wb, attraction, a-b-db, 9, 3, 7, 24, 114, 186, 195, 120, 120, 195, 2, 0.750782
334, 3, wb, filler, NA, 999, 999, 7, 25, 60, 85, 103, 150, 116, 109, 1, 0.966452
334, 3, wb, filler, NA, 999, 999, 7, 25, 60, 85, 103, 150, 116, 109, 2, 0.926803
334, 3, wb, attraction, a-b-db, 2, 1, 7, 26, 135, 60, 59, 134, 60, 135, 2, 3.17503
334, 3, wb, attraction, a-b-db, 2, 1, 7, 26, 135, 60, 59, 134, 60, 135, 1, 0.694067
334, 3, wb, attraction, a-b-db, 5, 2, 7, 27, 165, 90, 88, 161, 90, 165, 2, 3.39178
334, 3, wb, attraction, a-b-db, 5, 2, 7, 27, 165, 90, 88, 161, 90, 165, 1, 0.782001
334, 3, wb, attraction, a-b-db, 2, 2, 7, 28, 165, 90, 89, 163, 90, 165, 3, 1.57241
334, 3, wb, attraction, a-b-db, 2, 2, 7, 28, 165, 90, 89, 163, 90, 165, 2, 0.515954
334, 3, wb, filler, NA, 999, 999, 7, 29, 99, 61, 95, 176, 167, 85, 1, 1.43706
334, 3, wb, filler, NA, 999, 999, 7, 29, 99, 61, 95, 176, 167, 85, 2, 0.426606
334, 3, wb, catch, NA, 999, 999, 7, 30, 97, 158, 158, 157, 61, 134, 3, 1.21505
334, 3, wb, catch, NA, 999, 999, 7, 30, 97, 158, 158, 157, 61, 134, 2, 0.405365
334, 3, wb, filler, NA, 999, 999, 7, 31, 86, 145, 84, 190, 90, 179, 1, 2.40308
334, 3, wb, filler, NA, 999, 999, 7, 31, 86, 145, 84, 190, 90, 179, 2, 0.521689
334, 3, wb, attraction, a-b-db, 14, 1, 7, 32, 135, 60, 60, 135, 56, 125, 2, 1.8188
334, 3, wb, attraction, a-b-db, 14, 1, 7, 32, 135, 60, 60, 135, 56, 125, 1, 0.688809
334, 3, wb, attraction, a-b-db, 9, 2, 7, 33, 86, 157, 90, 165, 165, 90, 1, 2.51518
334, 3, wb, attraction, a-b-db, 9, 2, 7, 33, 86, 157, 90, 165, 165, 90, 2, 0.965086
334, 3, wb, filler, NA, 999, 999, 7, 34, 108, 125, 115, 100, 107, 135, 2, 0.796095
334, 3, wb, filler, NA, 999, 999, 7, 34, 108, 125, 115, 100, 107, 135, 3, 1.17109
334, 3, wb, filler, NA, 999, 999, 7, 35, 135, 162, 72, 90, 188, 174, 2, 0.874078
334, 3, wb, filler, NA, 999, 999, 7, 35, 135, 162, 72, 90, 188, 174, 3, 0.365751
334, 3, wb, attraction, a-b-da, 5, 1, 7, 36, 60, 135, 132, 58, 135, 60, 3, 2.64492
334, 3, wb, attraction, a-b-da, 5, 1, 7, 36, 60, 135, 132, 58, 135, 60, 1, 1.26545
334, 3, wb, catch, NA, 999, 999, 7, 37, 158, 97, 190, 125, 112, 83, 3, 2.31629
334, 3, wb, catch, NA, 999, 999, 7, 37, 158, 97, 190, 125, 112, 83, 2, 0.6382
334, 3, wb, filler, NA, 999, 999, 8, 1, 185, 79, 183, 140, 141, 157, 1, 3.04252
334, 3, wb, filler, NA, 999, 999, 8, 1, 185, 79, 183, 140, 141, 157, 2, 0.478968
334, 3, wb, attraction, a-b-db, 9, 3, 8, 2, 120, 195, 114, 186, 195, 120, 2, 3.83331
334, 3, wb, attraction, a-b-db, 9, 3, 8, 2, 120, 195, 114, 186, 195, 120, 3, 0.942125
334, 3, wb, attraction, a-b-da, 2, 1, 8, 3, 134, 59, 135, 60, 60, 135, 2, 2.08582
334, 3, wb, attraction, a-b-da, 2, 1, 8, 3, 134, 59, 135, 60, 60, 135, 1, 1.76925
334, 3, wb, attraction, a-b-db, 14, 2, 8, 4, 90, 165, 165, 90, 83, 153, 3, 4.15996
334, 3, wb, attraction, a-b-db, 14, 2, 8, 4, 90, 165, 165, 90, 83, 153, 1, 0.727242
334, 3, wb, attraction, a-b-db, 5, 3, 8, 5, 120, 195, 195, 120, 117, 190, 3, 6.75954
334, 3, wb, attraction, a-b-db, 5, 3, 8, 5, 120, 195, 195, 120, 117, 190, 1, 1.15809
334, 3, wb, attraction, a-b-db, 9, 2, 8, 6, 165, 90, 90, 165, 86, 157, 3, 1.5171
334, 3, wb, attraction, a-b-db, 9, 2, 8, 6, 165, 90, 90, 165, 86, 157, 2, 1.25525
334, 3, wb, attraction, a-b-db, 5, 1, 8, 7, 60, 135, 58, 132, 135, 60, 2, 3.25067
334, 3, wb, attraction, a-b-db, 5, 1, 8, 7, 60, 135, 58, 132, 135, 60, 3, 1.69509
334, 3, wb, attraction, a-b-da, 2, 2, 8, 8, 165, 90, 90, 165, 163, 89, 3, 5.73641
334, 3, wb, attraction, a-b-da, 2, 2, 8, 8, 165, 90, 90, 165, 163, 89, 2, 0.720573
334, 3, wb, filler, NA, 999, 999, 8, 9, 141, 134, 146, 113, 143, 82, 3, 0.745711
334, 3, wb, filler, NA, 999, 999, 8, 9, 141, 134, 146, 113, 143, 82, 1, 0.562959
334, 3, wb, attraction, a-b-db, 14, 1, 8, 10, 135, 60, 60, 135, 56, 125, 3, 3.3378
334, 3, wb, attraction, a-b-db, 14, 1, 8, 10, 135, 60, 60, 135, 56, 125, 1, 0.994817
334, 3, wb, attraction, a-b-da, 14, 3, 8, 11, 120, 195, 195, 120, 181, 111, 2, 2.44043
334, 3, wb, attraction, a-b-da, 14, 3, 8, 11, 120, 195, 195, 120, 181, 111, 1, 0.629058
334, 3, wb, attraction, a-b-db, 5, 2, 8, 12, 90, 165, 88, 161, 165, 90, 3, 3.86536
334, 3, wb, attraction, a-b-db, 5, 2, 8, 12, 90, 165, 88, 161, 165, 90, 2, 0.524725
334, 3, wb, attraction, a-b-da, 5, 3, 8, 13, 120, 195, 195, 120, 190, 117, 3, 4.02124
334, 3, wb, attraction, a-b-da, 5, 3, 8, 13, 120, 195, 195, 120, 190, 117, 1, 0.866695
334, 3, wb, attraction, a-b-da, 5, 1, 8, 14, 135, 60, 132, 58, 60, 135, 2, 1.68566
334, 3, wb, attraction, a-b-da, 5, 1, 8, 14, 135, 60, 132, 58, 60, 135, 3, 0.737164
334, 3, wb, attraction, a-b-da, 5, 2, 8, 15, 161, 88, 90, 165, 165, 90, 1, 4.90553
334, 3, wb, attraction, a-b-da, 5, 2, 8, 15, 161, 88, 90, 165, 165, 90, 2, 0.810543
334, 3, wb, catch, NA, 999, 999, 8, 16, 102, 153, 71, 124, 128, 187, 2, 0.74353
334, 3, wb, catch, NA, 999, 999, 8, 16, 102, 153, 71, 124, 128, 187, 3, 0.416746
334, 3, wb, filler, NA, 999, 999, 8, 17, 154, 110, 153, 68, 71, 80, 3, 1.0138
334, 3, wb, filler, NA, 999, 999, 8, 17, 154, 110, 153, 68, 71, 80, 1, 0.4041
334, 3, wb, filler, NA, 999, 999, 8, 18, 121, 63, 86, 175, 127, 111, 1, 0.905991
334, 3, wb, filler, NA, 999, 999, 8, 18, 121, 63, 86, 175, 127, 111, 2, 0.436341
334, 3, wb, attraction, a-b-db, 2, 2, 8, 19, 89, 163, 90, 165, 165, 90, 3, 1.99277
334, 3, wb, attraction, a-b-db, 2, 2, 8, 19, 89, 163, 90, 165, 165, 90, 1, 0.783429
334, 3, wb, filler, NA, 999, 999, 8, 20, 178, 168, 185, 103, 157, 126, 3, 1.14979
334, 3, wb, filler, NA, 999, 999, 8, 20, 178, 168, 185, 103, 157, 126, 1, 0.470826
334, 3, wb, attraction, a-b-da, 9, 3, 8, 21, 186, 114, 120, 195, 195, 120, 1, 2.27397
334, 3, wb, attraction, a-b-da, 9, 3, 8, 21, 186, 114, 120, 195, 195, 120, 2, 0.773141
334, 3, wb, attraction, a-b-da, 9, 2, 8, 22, 157, 86, 90, 165, 165, 90, 1, 1.20426
334, 3, wb, attraction, a-b-da, 9, 2, 8, 22, 157, 86, 90, 165, 165, 90, 2, 0.635106
334, 3, wb, attraction, a-b-da, 2, 3, 8, 23, 120, 195, 193, 119, 195, 120, 3, 2.63953
334, 3, wb, attraction, a-b-da, 2, 3, 8, 23, 120, 195, 193, 119, 195, 120, 1, 0.804036
334, 3, wb, filler, NA, 999, 999, 8, 24, 157, 74, 72, 68, 188, 183, 2, 0.65767
334, 3, wb, filler, NA, 999, 999, 8, 24, 157, 74, 72, 68, 188, 183, 3, 0.374087
334, 3, wb, attraction, a-b-da, 9, 1, 8, 25, 129, 57, 60, 135, 135, 60, 1, 1.67658
334, 3, wb, attraction, a-b-da, 9, 1, 8, 25, 129, 57, 60, 135, 135, 60, 2, 0.472097
334, 3, wb, catch, NA, 999, 999, 8, 26, 103, 92, 129, 126, 159, 156, 1, 1.14719
334, 3, wb, catch, NA, 999, 999, 8, 26, 103, 92, 129, 126, 159, 156, 3, 0.676142
334, 3, wb, attraction, a-b-db, 9, 1, 8, 27, 135, 60, 60, 135, 57, 129, 3, 1.31051
334, 3, wb, attraction, a-b-db, 9, 1, 8, 27, 135, 60, 60, 135, 57, 129, 2, 1.00873
334, 3, wb, filler, NA, 999, 999, 8, 28, 147, 83, 129, 147, 174, 137, 1, 0.877725
334, 3, wb, filler, NA, 999, 999, 8, 28, 147, 83, 129, 147, 174, 137, 3, 1.17747
334, 3, wb, attraction, a-b-da, 14, 2, 8, 29, 90, 165, 153, 83, 165, 90, 2, 2.10384
334, 3, wb, attraction, a-b-da, 14, 2, 8, 29, 90, 165, 153, 83, 165, 90, 1, 0.96233
334, 3, wb, attraction, a-b-db, 2, 3, 8, 30, 119, 193, 195, 120, 120, 195, 2, 2.66544
334, 3, wb, attraction, a-b-db, 2, 3, 8, 30, 119, 193, 195, 120, 120, 195, 1, 1.28516
334, 3, wb, filler, NA, 999, 999, 8, 31, 155, 193, 67, 168, 121, 112, 2, 11.6153
334, 3, wb, filler, NA, 999, 999, 8, 31, 155, 193, 67, 168, 121, 112, 1, 0.994332
334, 3, wb, attraction, a-b-db, 2, 1, 8, 32, 135, 60, 59, 134, 60, 135, 3, 3.38412
334, 3, wb, attraction, a-b-db, 2, 1, 8, 32, 135, 60, 59, 134, 60, 135, 1, 1.77502
334, 3, wb, attraction, a-b-da, 14, 1, 8, 33, 60, 135, 135, 60, 125, 56, 2, 2.50895
334, 3, wb, attraction, a-b-da, 14, 1, 8, 33, 60, 135, 135, 60, 125, 56, 1, 0.60674
334, 3, wb, filler, NA, 999, 999, 8, 34, 82, 138, 164, 89, 160, 171, 1, 1.29198
334, 3, wb, filler, NA, 999, 999, 8, 34, 82, 138, 164, 89, 160, 171, 3, 0.614748
334, 3, wb, catch, NA, 999, 999, 8, 35, 132, 183, 89, 106, 165, 90, 2, 1.93985
334, 3, wb, catch, NA, 999, 999, 8, 35, 132, 183, 89, 106, 165, 90, 1, 0.404523
334, 3, wb, filler, NA, 999, 999, 8, 36, 78, 183, 107, 157, 81, 105, 3, 1.01837
334, 3, wb, filler, NA, 999, 999, 8, 36, 78, 183, 107, 157, 81, 105, 2, 0.488721
334, 3, wb, attraction, a-b-db, 14, 3, 8, 37, 111, 181, 120, 195, 195, 120, 1, 1.56321
334, 3, wb, attraction, a-b-db, 14, 3, 8, 37, 111, 181, 120, 195, 195, 120, 2, 0.795252
