sub_n, computer_n, bw_cond, effect, set, distance, diag, block_n, trial_n, h1, w1, h2, w2, h3, w3, choice, rt 
32, 3, wb, practice, NA, 999, 999, 0, 1, 85, 96, 100, 104, 110, 193, 1, 1.68998
32, 3, wb, practice, NA, 999, 999, 0, 1, 85, 96, 100, 104, 110, 193, 3, 1.53497
32, 3, wb, practice, NA, 999, 999, 0, 2, 82, 194, 58, 107, 165, 184, 2, 2.03349
32, 3, wb, practice, NA, 999, 999, 0, 2, 82, 194, 58, 107, 165, 184, 3, 1.63242
32, 3, wb, practice, NA, 999, 999, 0, 3, 112, 131, 86, 80, 127, 146, 2, 2.28764
32, 3, wb, practice, NA, 999, 999, 0, 3, 112, 131, 86, 80, 127, 146, 3, 3.98757
32, 3, wb, attraction, a-b-db, 2, 1, 1, 1, 60, 135, 59, 134, 135, 60, 2, 2.57811
32, 3, wb, attraction, a-b-db, 2, 1, 1, 1, 60, 135, 59, 134, 135, 60, 3, 1.28924
32, 3, wb, catch, NA, 999, 999, 1, 2, 84, 111, 123, 192, 151, 104, 1, 1.35555
32, 3, wb, catch, NA, 999, 999, 1, 2, 84, 111, 123, 192, 151, 104, 2, 0.8757
32, 3, wb, attraction, a-b-da, 5, 3, 1, 3, 195, 120, 190, 117, 120, 195, 2, 3.22995
32, 3, wb, attraction, a-b-da, 5, 3, 1, 3, 195, 120, 190, 117, 120, 195, 3, 0.80294
32, 3, wb, catch, NA, 999, 999, 1, 4, 159, 156, 129, 126, 108, 87, 3, 1.57668
32, 3, wb, catch, NA, 999, 999, 1, 4, 159, 156, 129, 126, 108, 87, 1, 1.20009
32, 3, wb, attraction, a-b-db, 9, 3, 1, 5, 120, 195, 195, 120, 114, 186, 3, 2.0057
32, 3, wb, attraction, a-b-db, 9, 3, 1, 5, 120, 195, 195, 120, 114, 186, 1, 0.675614
32, 3, wb, attraction, a-b-db, 14, 3, 1, 6, 120, 195, 111, 181, 195, 120, 2, 3.35809
32, 3, wb, attraction, a-b-db, 14, 3, 1, 6, 120, 195, 111, 181, 195, 120, 3, 0.893685
32, 3, wb, attraction, a-b-da, 9, 2, 1, 7, 90, 165, 157, 86, 165, 90, 2, 1.59937
32, 3, wb, attraction, a-b-da, 9, 2, 1, 7, 90, 165, 157, 86, 165, 90, 1, 1.61413
32, 3, wb, filler, NA, 999, 999, 1, 8, 64, 135, 126, 121, 187, 177, 1, 1.10694
32, 3, wb, filler, NA, 999, 999, 1, 8, 64, 135, 126, 121, 187, 177, 3, 0.669234
32, 3, wb, attraction, a-b-db, 9, 1, 1, 9, 60, 135, 135, 60, 57, 129, 2, 1.46421
32, 3, wb, attraction, a-b-db, 9, 1, 1, 9, 60, 135, 135, 60, 57, 129, 1, 1.39647
32, 3, wb, attraction, a-b-da, 14, 1, 1, 10, 125, 56, 60, 135, 135, 60, 1, 2.4099
32, 3, wb, attraction, a-b-da, 14, 1, 1, 10, 125, 56, 60, 135, 135, 60, 2, 1.03195
32, 3, wb, attraction, a-b-da, 2, 3, 1, 11, 195, 120, 193, 119, 120, 195, 1, 2.1641
32, 3, wb, attraction, a-b-da, 2, 3, 1, 11, 195, 120, 193, 119, 120, 195, 3, 0.62817
32, 3, wb, attraction, a-b-da, 2, 2, 1, 12, 163, 89, 90, 165, 165, 90, 2, 2.00838
32, 3, wb, attraction, a-b-da, 2, 2, 1, 12, 163, 89, 90, 165, 165, 90, 1, 0.806472
32, 3, wb, filler, NA, 999, 999, 1, 13, 110, 145, 111, 184, 97, 69, 3, 0.852167
32, 3, wb, filler, NA, 999, 999, 1, 13, 110, 145, 111, 184, 97, 69, 2, 1.00115
32, 3, wb, attraction, a-b-da, 14, 2, 1, 14, 165, 90, 153, 83, 90, 165, 2, 2.23096
32, 3, wb, attraction, a-b-da, 14, 2, 1, 14, 165, 90, 153, 83, 90, 165, 3, 2.69216
32, 3, wb, filler, NA, 999, 999, 1, 15, 177, 66, 137, 99, 81, 63, 3, 1.02116
32, 3, wb, filler, NA, 999, 999, 1, 15, 177, 66, 137, 99, 81, 63, 2, 0.795749
32, 3, wb, attraction, a-b-db, 2, 3, 1, 16, 195, 120, 119, 193, 120, 195, 3, 3.64935
32, 3, wb, attraction, a-b-db, 2, 3, 1, 16, 195, 120, 119, 193, 120, 195, 2, 1.26945
32, 3, wb, attraction, a-b-da, 9, 3, 1, 17, 195, 120, 186, 114, 120, 195, 2, 1.7523
32, 3, wb, attraction, a-b-da, 9, 3, 1, 17, 195, 120, 186, 114, 120, 195, 3, 1.00107
32, 3, wb, attraction, a-b-db, 14, 1, 1, 18, 60, 135, 135, 60, 56, 125, 2, 2.34275
32, 3, wb, attraction, a-b-db, 14, 1, 1, 18, 60, 135, 135, 60, 56, 125, 3, 1.40725
32, 3, wb, attraction, a-b-da, 2, 1, 1, 19, 134, 59, 135, 60, 60, 135, 1, 4.20408
32, 3, wb, attraction, a-b-da, 2, 1, 1, 19, 134, 59, 135, 60, 60, 135, 3, 1.57806
32, 3, wb, attraction, a-b-db, 5, 2, 1, 20, 165, 90, 88, 161, 90, 165, 1, 1.58419
32, 3, wb, attraction, a-b-db, 5, 2, 1, 20, 165, 90, 88, 161, 90, 165, 2, 1.22371
32, 3, wb, filler, NA, 999, 999, 1, 21, 98, 116, 173, 144, 99, 154, 1, 1.44389
32, 3, wb, filler, NA, 999, 999, 1, 21, 98, 116, 173, 144, 99, 154, 2, 1.32883
32, 3, wb, attraction, a-b-db, 2, 2, 1, 22, 90, 165, 89, 163, 165, 90, 1, 3.96896
32, 3, wb, attraction, a-b-db, 2, 2, 1, 22, 90, 165, 89, 163, 165, 90, 2, 1.43233
32, 3, wb, attraction, a-b-da, 9, 1, 1, 23, 60, 135, 135, 60, 129, 57, 3, 6.42051
32, 3, wb, attraction, a-b-da, 9, 1, 1, 23, 60, 135, 135, 60, 129, 57, 2, 1.76112
32, 3, wb, filler, NA, 999, 999, 1, 24, 58, 135, 191, 161, 165, 144, 1, 0.975779
32, 3, wb, filler, NA, 999, 999, 1, 24, 58, 135, 191, 161, 165, 144, 2, 1.0635
32, 3, wb, filler, NA, 999, 999, 1, 25, 62, 151, 92, 64, 173, 177, 2, 2.08272
32, 3, wb, filler, NA, 999, 999, 1, 25, 62, 151, 92, 64, 173, 177, 3, 0.725919
32, 3, wb, attraction, a-b-db, 14, 2, 1, 26, 83, 153, 165, 90, 90, 165, 2, 6.61424
32, 3, wb, attraction, a-b-db, 14, 2, 1, 26, 83, 153, 165, 90, 90, 165, 3, 1.34674
32, 3, wb, attraction, a-b-db, 5, 3, 1, 27, 117, 190, 195, 120, 120, 195, 2, 6.05033
32, 3, wb, attraction, a-b-db, 5, 3, 1, 27, 117, 190, 195, 120, 120, 195, 3, 0.933838
32, 3, wb, attraction, a-b-da, 5, 2, 1, 28, 90, 165, 161, 88, 165, 90, 2, 1.55806
32, 3, wb, attraction, a-b-da, 5, 2, 1, 28, 90, 165, 161, 88, 165, 90, 3, 1.07831
32, 3, wb, attraction, a-b-db, 5, 1, 1, 29, 58, 132, 60, 135, 135, 60, 1, 2.07247
32, 3, wb, attraction, a-b-db, 5, 1, 1, 29, 58, 132, 60, 135, 135, 60, 2, 1.71588
32, 3, wb, filler, NA, 999, 999, 1, 30, 120, 136, 190, 97, 176, 90, 3, 9.55642
32, 3, wb, filler, NA, 999, 999, 1, 30, 120, 136, 190, 97, 176, 90, 2, 1.43484
32, 3, wb, attraction, a-b-db, 9, 2, 1, 31, 86, 157, 165, 90, 90, 165, 1, 2.83898
32, 3, wb, attraction, a-b-db, 9, 2, 1, 31, 86, 157, 165, 90, 90, 165, 3, 2.0435
32, 3, wb, attraction, a-b-da, 14, 3, 1, 32, 181, 111, 120, 195, 195, 120, 1, 1.91068
32, 3, wb, attraction, a-b-da, 14, 3, 1, 32, 181, 111, 120, 195, 195, 120, 3, 2.2089
32, 3, wb, filler, NA, 999, 999, 1, 33, 111, 59, 82, 97, 129, 95, 1, 1.51724
32, 3, wb, filler, NA, 999, 999, 1, 33, 111, 59, 82, 97, 129, 95, 3, 1.33557
32, 3, wb, filler, NA, 999, 999, 1, 34, 108, 108, 79, 158, 151, 74, 1, 3.69595
32, 3, wb, filler, NA, 999, 999, 1, 34, 108, 108, 79, 158, 151, 74, 2, 1.62582
32, 3, wb, filler, NA, 999, 999, 1, 35, 191, 168, 186, 112, 151, 169, 2, 11.902
32, 3, wb, filler, NA, 999, 999, 1, 35, 191, 168, 186, 112, 151, 169, 1, 0.357436
32, 3, wb, attraction, a-b-da, 5, 1, 1, 36, 132, 58, 135, 60, 60, 135, 1, 4.80463
32, 3, wb, attraction, a-b-da, 5, 1, 1, 36, 132, 58, 135, 60, 60, 135, 2, 1.01855
32, 3, wb, catch, NA, 999, 999, 1, 37, 125, 70, 143, 112, 122, 193, 1, 1.46347
32, 3, wb, catch, NA, 999, 999, 1, 37, 125, 70, 143, 112, 122, 193, 3, 0.87561
32, 3, wb, attraction, a-b-da, 14, 2, 2, 1, 165, 90, 153, 83, 90, 165, 2, 3.5261
32, 3, wb, attraction, a-b-da, 14, 2, 2, 1, 165, 90, 153, 83, 90, 165, 3, 1.21479
32, 3, wb, attraction, a-b-db, 9, 1, 2, 2, 60, 135, 135, 60, 57, 129, 2, 2.09173
32, 3, wb, attraction, a-b-db, 9, 1, 2, 2, 60, 135, 135, 60, 57, 129, 1, 0.998451
32, 3, wb, attraction, a-b-da, 9, 3, 2, 3, 195, 120, 186, 114, 120, 195, 3, 3.34006
32, 3, wb, attraction, a-b-da, 9, 3, 2, 3, 195, 120, 186, 114, 120, 195, 2, 2.43637
32, 3, wb, attraction, a-b-da, 5, 1, 2, 4, 135, 60, 132, 58, 60, 135, 2, 1.83225
32, 3, wb, attraction, a-b-da, 5, 1, 2, 4, 135, 60, 132, 58, 60, 135, 3, 1.72568
32, 3, wb, filler, NA, 999, 999, 2, 5, 100, 80, 183, 183, 91, 118, 1, 1.7896
32, 3, wb, filler, NA, 999, 999, 2, 5, 100, 80, 183, 183, 91, 118, 2, 0.644332
32, 3, wb, filler, NA, 999, 999, 2, 6, 66, 137, 150, 186, 163, 188, 1, 3.63207
32, 3, wb, filler, NA, 999, 999, 2, 6, 66, 137, 150, 186, 163, 188, 3, 1.89296
32, 3, wb, attraction, a-b-db, 14, 3, 2, 7, 195, 120, 111, 181, 120, 195, 2, 4.54233
32, 3, wb, attraction, a-b-db, 14, 3, 2, 7, 195, 120, 111, 181, 120, 195, 3, 0.782177
32, 3, wb, attraction, a-b-db, 5, 3, 2, 8, 117, 190, 195, 120, 120, 195, 1, 5.20451
32, 3, wb, attraction, a-b-db, 5, 3, 2, 8, 117, 190, 195, 120, 120, 195, 3, 2.90621
32, 3, wb, catch, NA, 999, 999, 2, 9, 110, 85, 151, 164, 158, 97, 1, 1.08324
32, 3, wb, catch, NA, 999, 999, 2, 9, 110, 85, 151, 164, 158, 97, 2, 0.838796
32, 3, wb, attraction, a-b-db, 2, 1, 2, 10, 59, 134, 135, 60, 60, 135, 2, 4.81127
32, 3, wb, attraction, a-b-db, 2, 1, 2, 10, 59, 134, 135, 60, 60, 135, 3, 1.30439
32, 3, wb, filler, NA, 999, 999, 2, 11, 175, 148, 173, 187, 71, 104, 3, 1.61786
32, 3, wb, filler, NA, 999, 999, 2, 11, 175, 148, 173, 187, 71, 104, 2, 1.33612
32, 3, wb, attraction, a-b-db, 2, 3, 2, 12, 195, 120, 119, 193, 120, 195, 3, 15.9122
32, 3, wb, attraction, a-b-db, 2, 3, 2, 12, 195, 120, 119, 193, 120, 195, 1, 1.37382
32, 3, wb, attraction, a-b-db, 9, 3, 2, 13, 195, 120, 120, 195, 114, 186, 3, 1.65207
32, 3, wb, attraction, a-b-db, 9, 3, 2, 13, 195, 120, 120, 195, 114, 186, 2, 1.20098
32, 3, wb, attraction, a-b-da, 2, 2, 2, 14, 90, 165, 163, 89, 165, 90, 1, 7.57454
32, 3, wb, attraction, a-b-da, 2, 2, 2, 14, 90, 165, 163, 89, 165, 90, 3, 1.57203
32, 3, wb, attraction, a-b-da, 14, 1, 2, 15, 60, 135, 135, 60, 125, 56, 3, 2.9708
32, 3, wb, attraction, a-b-da, 14, 1, 2, 15, 60, 135, 135, 60, 125, 56, 2, 3.77862
32, 3, wb, attraction, a-b-da, 14, 3, 2, 16, 120, 195, 181, 111, 195, 120, 2, 1.45602
32, 3, wb, attraction, a-b-da, 14, 3, 2, 16, 120, 195, 181, 111, 195, 120, 3, 1.70813
32, 3, wb, catch, NA, 999, 999, 2, 17, 129, 66, 164, 91, 142, 173, 1, 1.14893
32, 3, wb, catch, NA, 999, 999, 2, 17, 129, 66, 164, 91, 142, 173, 3, 1.59782
32, 3, wb, attraction, a-b-db, 5, 1, 2, 18, 58, 132, 60, 135, 135, 60, 3, 3.76323
32, 3, wb, attraction, a-b-db, 5, 1, 2, 18, 58, 132, 60, 135, 135, 60, 2, 1.57072
32, 3, wb, filler, NA, 999, 999, 2, 19, 143, 188, 125, 179, 173, 116, 3, 1.60951
32, 3, wb, filler, NA, 999, 999, 2, 19, 143, 188, 125, 179, 173, 116, 1, 2.74372
32, 3, wb, attraction, a-b-db, 9, 2, 2, 20, 86, 157, 90, 165, 165, 90, 1, 2.44672
32, 3, wb, attraction, a-b-db, 9, 2, 2, 20, 86, 157, 90, 165, 165, 90, 2, 1.49932
32, 3, wb, attraction, a-b-da, 5, 3, 2, 21, 120, 195, 190, 117, 195, 120, 1, 10.3408
32, 3, wb, attraction, a-b-da, 5, 3, 2, 21, 120, 195, 190, 117, 195, 120, 3, 1.15489
32, 3, wb, attraction, a-b-da, 2, 3, 2, 22, 195, 120, 120, 195, 193, 119, 1, 5.97853
32, 3, wb, attraction, a-b-da, 2, 3, 2, 22, 195, 120, 120, 195, 193, 119, 2, 2.63261
32, 3, wb, filler, NA, 999, 999, 2, 23, 193, 77, 175, 103, 91, 180, 1, 1.33224
32, 3, wb, filler, NA, 999, 999, 2, 23, 193, 77, 175, 103, 91, 180, 2, 1.16591
32, 3, wb, filler, NA, 999, 999, 2, 24, 181, 125, 176, 162, 102, 94, 3, 1.06075
32, 3, wb, filler, NA, 999, 999, 2, 24, 181, 125, 176, 162, 102, 94, 2, 0.769026
32, 3, wb, catch, NA, 999, 999, 2, 25, 98, 157, 184, 131, 127, 68, 3, 1.6561
32, 3, wb, catch, NA, 999, 999, 2, 25, 98, 157, 184, 131, 127, 68, 2, 0.428231
32, 3, wb, filler, NA, 999, 999, 2, 26, 78, 109, 87, 191, 95, 79, 3, 4.71271
32, 3, wb, filler, NA, 999, 999, 2, 26, 78, 109, 87, 191, 95, 79, 2, 0.489907
32, 3, wb, attraction, a-b-db, 14, 1, 2, 27, 56, 125, 135, 60, 60, 135, 2, 2.78833
32, 3, wb, attraction, a-b-db, 14, 1, 2, 27, 56, 125, 135, 60, 60, 135, 3, 1.09148
32, 3, wb, attraction, a-b-da, 5, 2, 2, 28, 165, 90, 90, 165, 161, 88, 3, 5.78909
32, 3, wb, attraction, a-b-da, 5, 2, 2, 28, 165, 90, 90, 165, 161, 88, 2, 0.819206
32, 3, wb, attraction, a-b-da, 2, 1, 2, 29, 135, 60, 134, 59, 60, 135, 2, 1.67233
32, 3, wb, attraction, a-b-da, 2, 1, 2, 29, 135, 60, 134, 59, 60, 135, 3, 1.6117
32, 3, wb, filler, NA, 999, 999, 2, 30, 58, 64, 179, 194, 183, 170, 1, 0.960439
32, 3, wb, filler, NA, 999, 999, 2, 30, 58, 64, 179, 194, 183, 170, 3, 0.568708
32, 3, wb, attraction, a-b-da, 9, 1, 2, 31, 60, 135, 129, 57, 135, 60, 2, 2.20784
32, 3, wb, attraction, a-b-da, 9, 1, 2, 31, 60, 135, 129, 57, 135, 60, 3, 1.82197
32, 3, wb, attraction, a-b-da, 9, 2, 2, 32, 90, 165, 157, 86, 165, 90, 2, 1.6265
32, 3, wb, attraction, a-b-da, 9, 2, 2, 32, 90, 165, 157, 86, 165, 90, 3, 1.10393
32, 3, wb, filler, NA, 999, 999, 2, 33, 184, 109, 192, 155, 106, 151, 3, 2.80959
32, 3, wb, filler, NA, 999, 999, 2, 33, 184, 109, 192, 155, 106, 151, 2, 0.711336
32, 3, wb, attraction, a-b-db, 2, 2, 2, 34, 165, 90, 90, 165, 89, 163, 1, 3.35235
32, 3, wb, attraction, a-b-db, 2, 2, 2, 34, 165, 90, 90, 165, 89, 163, 2, 1.43268
32, 3, wb, attraction, a-b-db, 5, 2, 2, 35, 90, 165, 88, 161, 165, 90, 2, 7.42884
32, 3, wb, attraction, a-b-db, 5, 2, 2, 35, 90, 165, 88, 161, 165, 90, 3, 2.72057
32, 3, wb, filler, NA, 999, 999, 2, 36, 117, 74, 63, 183, 61, 67, 3, 1.14485
32, 3, wb, filler, NA, 999, 999, 2, 36, 117, 74, 63, 183, 61, 67, 2, 5.20198
32, 3, wb, attraction, a-b-db, 14, 2, 2, 37, 90, 165, 83, 153, 165, 90, 2, 1.51819
32, 3, wb, attraction, a-b-db, 14, 2, 2, 37, 90, 165, 83, 153, 165, 90, 3, 1.53633
32, 3, wb, attraction, a-b-da, 2, 2, 3, 1, 165, 90, 163, 89, 90, 165, 2, 3.19245
32, 3, wb, attraction, a-b-da, 2, 2, 3, 1, 165, 90, 163, 89, 90, 165, 1, 1.35075
32, 3, wb, filler, NA, 999, 999, 3, 2, 58, 119, 192, 128, 72, 180, 1, 0.822348
32, 3, wb, filler, NA, 999, 999, 3, 2, 58, 119, 192, 128, 72, 180, 2, 0.99613
32, 3, wb, attraction, a-b-da, 5, 1, 3, 3, 60, 135, 132, 58, 135, 60, 2, 4.00161
32, 3, wb, attraction, a-b-da, 5, 1, 3, 3, 60, 135, 132, 58, 135, 60, 3, 2.67166
32, 3, wb, attraction, a-b-db, 14, 1, 3, 4, 135, 60, 60, 135, 56, 125, 1, 6.36214
32, 3, wb, attraction, a-b-db, 14, 1, 3, 4, 135, 60, 60, 135, 56, 125, 2, 0.992915
32, 3, wb, attraction, a-b-da, 14, 1, 3, 5, 135, 60, 125, 56, 60, 135, 2, 1.74265
32, 3, wb, attraction, a-b-da, 14, 1, 3, 5, 135, 60, 125, 56, 60, 135, 3, 0.911237
32, 3, wb, attraction, a-b-da, 9, 3, 3, 6, 195, 120, 186, 114, 120, 195, 2, 3.06429
32, 3, wb, attraction, a-b-da, 9, 3, 3, 6, 195, 120, 186, 114, 120, 195, 3, 1.30799
32, 3, wb, attraction, a-b-da, 14, 3, 3, 7, 120, 195, 181, 111, 195, 120, 2, 4.97271
32, 3, wb, attraction, a-b-da, 14, 3, 3, 7, 120, 195, 181, 111, 195, 120, 3, 0.539257
32, 3, wb, attraction, a-b-da, 5, 2, 3, 8, 90, 165, 161, 88, 165, 90, 2, 2.20359
32, 3, wb, attraction, a-b-da, 5, 2, 3, 8, 90, 165, 161, 88, 165, 90, 3, 2.1702
32, 3, wb, attraction, a-b-da, 9, 1, 3, 9, 129, 57, 135, 60, 60, 135, 2, 0.984847
32, 3, wb, attraction, a-b-da, 9, 1, 3, 9, 129, 57, 135, 60, 60, 135, 3, 1.14449
32, 3, wb, filler, NA, 999, 999, 3, 10, 180, 165, 90, 178, 163, 100, 2, 1.18404
32, 3, wb, filler, NA, 999, 999, 3, 10, 180, 165, 90, 178, 163, 100, 1, 0.695717
32, 3, wb, attraction, a-b-db, 2, 1, 3, 11, 135, 60, 60, 135, 59, 134, 1, 2.92136
32, 3, wb, attraction, a-b-db, 2, 1, 3, 11, 135, 60, 60, 135, 59, 134, 2, 2.95444
32, 3, wb, attraction, a-b-db, 2, 3, 3, 12, 195, 120, 119, 193, 120, 195, 1, 3.29757
32, 3, wb, attraction, a-b-db, 2, 3, 3, 12, 195, 120, 119, 193, 120, 195, 2, 0.883739
32, 3, wb, filler, NA, 999, 999, 3, 13, 167, 179, 100, 88, 105, 79, 3, 1.79817
32, 3, wb, filler, NA, 999, 999, 3, 13, 167, 179, 100, 88, 105, 79, 1, 0.740746
32, 3, wb, attraction, a-b-db, 5, 3, 3, 14, 117, 190, 195, 120, 120, 195, 2, 5.60454
32, 3, wb, attraction, a-b-db, 5, 3, 3, 14, 117, 190, 195, 120, 120, 195, 3, 1.49003
32, 3, wb, filler, NA, 999, 999, 3, 15, 165, 186, 154, 159, 74, 177, 3, 0.908187
32, 3, wb, filler, NA, 999, 999, 3, 15, 165, 186, 154, 159, 74, 177, 1, 1.22253
32, 3, wb, catch, NA, 999, 999, 3, 16, 77, 118, 186, 129, 119, 136, 1, 0.955396
32, 3, wb, catch, NA, 999, 999, 3, 16, 77, 118, 186, 129, 119, 136, 2, 1.26777
32, 3, wb, attraction, a-b-db, 9, 2, 3, 17, 86, 157, 90, 165, 165, 90, 1, 2.27884
32, 3, wb, attraction, a-b-db, 9, 2, 3, 17, 86, 157, 90, 165, 165, 90, 2, 1.0499
32, 3, wb, catch, NA, 999, 999, 3, 18, 90, 165, 171, 144, 74, 121, 3, 0.957599
32, 3, wb, catch, NA, 999, 999, 3, 18, 90, 165, 171, 144, 74, 121, 2, 0.565965
32, 3, wb, filler, NA, 999, 999, 3, 19, 163, 85, 59, 69, 182, 145, 2, 0.789098
32, 3, wb, filler, NA, 999, 999, 3, 19, 163, 85, 59, 69, 182, 145, 3, 0.668095
32, 3, wb, attraction, a-b-da, 9, 2, 3, 20, 165, 90, 90, 165, 157, 86, 3, 2.69518
32, 3, wb, attraction, a-b-da, 9, 2, 3, 20, 165, 90, 90, 165, 157, 86, 2, 0.801589
32, 3, wb, filler, NA, 999, 999, 3, 21, 65, 133, 148, 134, 88, 71, 3, 2.05533
32, 3, wb, filler, NA, 999, 999, 3, 21, 65, 133, 148, 134, 88, 71, 2, 2.01132
32, 3, wb, attraction, a-b-db, 14, 2, 3, 22, 90, 165, 165, 90, 83, 153, 2, 8.07189
32, 3, wb, attraction, a-b-db, 14, 2, 3, 22, 90, 165, 165, 90, 83, 153, 1, 1.24195
32, 3, wb, attraction, a-b-da, 14, 2, 3, 23, 165, 90, 153, 83, 90, 165, 2, 1.99763
32, 3, wb, attraction, a-b-da, 14, 2, 3, 23, 165, 90, 153, 83, 90, 165, 3, 1.17236
32, 3, wb, attraction, a-b-da, 2, 1, 3, 24, 60, 135, 135, 60, 134, 59, 2, 3.18724
32, 3, wb, attraction, a-b-da, 2, 1, 3, 24, 60, 135, 135, 60, 134, 59, 1, 3.4904
32, 3, wb, attraction, a-b-db, 14, 3, 3, 25, 120, 195, 111, 181, 195, 120, 2, 1.65166
32, 3, wb, attraction, a-b-db, 14, 3, 3, 25, 120, 195, 111, 181, 195, 120, 3, 1.39247
32, 3, wb, filler, NA, 999, 999, 3, 26, 113, 65, 172, 94, 95, 61, 3, 0.997895
32, 3, wb, filler, NA, 999, 999, 3, 26, 113, 65, 172, 94, 95, 61, 2, 0.813009
32, 3, wb, attraction, a-b-da, 5, 3, 3, 27, 190, 117, 195, 120, 120, 195, 2, 3.69003
32, 3, wb, attraction, a-b-da, 5, 3, 3, 27, 190, 117, 195, 120, 120, 195, 3, 1.02006
32, 3, wb, catch, NA, 999, 999, 3, 28, 132, 123, 139, 176, 131, 64, 3, 0.753077
32, 3, wb, catch, NA, 999, 999, 3, 28, 132, 123, 139, 176, 131, 64, 2, 0.69023
32, 3, wb, filler, NA, 999, 999, 3, 29, 61, 92, 173, 89, 120, 92, 1, 0.931971
32, 3, wb, filler, NA, 999, 999, 3, 29, 61, 92, 173, 89, 120, 92, 2, 1.31757
32, 3, wb, attraction, a-b-db, 9, 3, 3, 30, 114, 186, 120, 195, 195, 120, 1, 3.42253
32, 3, wb, attraction, a-b-db, 9, 3, 3, 30, 114, 186, 120, 195, 195, 120, 2, 1.05138
32, 3, wb, attraction, a-b-db, 9, 1, 3, 31, 135, 60, 57, 129, 60, 135, 2, 3.31101
32, 3, wb, attraction, a-b-db, 9, 1, 3, 31, 135, 60, 57, 129, 60, 135, 3, 0.552619
32, 3, wb, attraction, a-b-db, 5, 1, 3, 32, 58, 132, 135, 60, 60, 135, 1, 1.33634
32, 3, wb, attraction, a-b-db, 5, 1, 3, 32, 58, 132, 135, 60, 60, 135, 3, 1.91398
32, 3, wb, filler, NA, 999, 999, 3, 33, 110, 150, 56, 164, 178, 155, 2, 1.88252
32, 3, wb, filler, NA, 999, 999, 3, 33, 110, 150, 56, 164, 178, 155, 3, 0.437935
32, 3, wb, attraction, a-b-db, 5, 2, 3, 34, 165, 90, 88, 161, 90, 165, 1, 8.43449
32, 3, wb, attraction, a-b-db, 5, 2, 3, 34, 165, 90, 88, 161, 90, 165, 2, 1.70973
32, 3, wb, filler, NA, 999, 999, 3, 35, 98, 112, 162, 168, 93, 56, 3, 1.32648
32, 3, wb, filler, NA, 999, 999, 3, 35, 98, 112, 162, 168, 93, 56, 2, 1.04806
32, 3, wb, attraction, a-b-da, 2, 3, 3, 36, 195, 120, 120, 195, 193, 119, 1, 6.14767
32, 3, wb, attraction, a-b-da, 2, 3, 3, 36, 195, 120, 120, 195, 193, 119, 2, 1.66694
32, 3, wb, attraction, a-b-db, 2, 2, 3, 37, 165, 90, 90, 165, 89, 163, 1, 1.34987
32, 3, wb, attraction, a-b-db, 2, 2, 3, 37, 165, 90, 90, 165, 89, 163, 2, 0.518685
32, 3, wb, attraction, a-b-db, 9, 3, 4, 1, 195, 120, 114, 186, 120, 195, 1, 1.8478
32, 3, wb, attraction, a-b-db, 9, 3, 4, 1, 195, 120, 114, 186, 120, 195, 2, 1.03655
32, 3, wb, attraction, a-b-da, 5, 3, 4, 2, 120, 195, 190, 117, 195, 120, 2, 2.44084
32, 3, wb, attraction, a-b-da, 5, 3, 4, 2, 120, 195, 190, 117, 195, 120, 3, 0.773436
32, 3, wb, filler, NA, 999, 999, 4, 3, 136, 167, 65, 124, 139, 103, 2, 0.755788
32, 3, wb, filler, NA, 999, 999, 4, 3, 136, 167, 65, 124, 139, 103, 1, 0.428146
32, 3, wb, attraction, a-b-da, 2, 2, 4, 4, 90, 165, 163, 89, 165, 90, 2, 1.66457
32, 3, wb, attraction, a-b-da, 2, 2, 4, 4, 90, 165, 163, 89, 165, 90, 1, 0.540788
32, 3, wb, attraction, a-b-da, 9, 3, 4, 5, 186, 114, 120, 195, 195, 120, 1, 1.38862
32, 3, wb, attraction, a-b-da, 9, 3, 4, 5, 186, 114, 120, 195, 195, 120, 2, 0.747454
32, 3, wb, filler, NA, 999, 999, 4, 6, 139, 99, 92, 100, 115, 162, 2, 1.33906
32, 3, wb, filler, NA, 999, 999, 4, 6, 139, 99, 92, 100, 115, 162, 3, 0.523994
32, 3, wb, attraction, a-b-da, 5, 1, 4, 7, 60, 135, 132, 58, 135, 60, 2, 1.22842
32, 3, wb, attraction, a-b-da, 5, 1, 4, 7, 60, 135, 132, 58, 135, 60, 3, 1.40195
32, 3, wb, filler, NA, 999, 999, 4, 8, 140, 174, 71, 191, 127, 118, 2, 1.11944
32, 3, wb, filler, NA, 999, 999, 4, 8, 140, 174, 71, 191, 127, 118, 1, 1.19389
32, 3, wb, attraction, a-b-da, 5, 2, 4, 9, 90, 165, 165, 90, 161, 88, 2, 2.73547
32, 3, wb, attraction, a-b-da, 5, 2, 4, 9, 90, 165, 165, 90, 161, 88, 1, 4.56851
32, 3, wb, attraction, a-b-da, 9, 2, 4, 10, 157, 86, 90, 165, 165, 90, 1, 2.57433
32, 3, wb, attraction, a-b-da, 9, 2, 4, 10, 157, 86, 90, 165, 165, 90, 2, 0.709477
32, 3, wb, filler, NA, 999, 999, 4, 11, 149, 139, 96, 132, 70, 124, 3, 1.6787
32, 3, wb, filler, NA, 999, 999, 4, 11, 149, 139, 96, 132, 70, 124, 1, 0.850078
32, 3, wb, attraction, a-b-db, 14, 1, 4, 12, 60, 135, 56, 125, 135, 60, 2, 3.02983
32, 3, wb, attraction, a-b-db, 14, 1, 4, 12, 60, 135, 56, 125, 135, 60, 1, 1.14678
32, 3, wb, attraction, a-b-da, 14, 1, 4, 13, 60, 135, 135, 60, 125, 56, 3, 3.24238
32, 3, wb, attraction, a-b-da, 14, 1, 4, 13, 60, 135, 135, 60, 125, 56, 2, 1.07865
32, 3, wb, filler, NA, 999, 999, 4, 14, 65, 108, 81, 145, 69, 156, 1, 0.800911
32, 3, wb, filler, NA, 999, 999, 4, 14, 65, 108, 81, 145, 69, 156, 2, 0.559845
32, 3, wb, catch, NA, 999, 999, 4, 15, 102, 93, 132, 123, 189, 126, 1, 1.14324
32, 3, wb, catch, NA, 999, 999, 4, 15, 102, 93, 132, 123, 189, 126, 2, 0.744007
32, 3, wb, catch, NA, 999, 999, 4, 16, 90, 165, 157, 158, 107, 88, 3, 1.8478
32, 3, wb, catch, NA, 999, 999, 4, 16, 90, 165, 157, 158, 107, 88, 2, 0.86053
32, 3, wb, filler, NA, 999, 999, 4, 17, 155, 111, 130, 172, 105, 146, 3, 5.11142
32, 3, wb, filler, NA, 999, 999, 4, 17, 155, 111, 130, 172, 105, 146, 2, 0.712528
32, 3, wb, attraction, a-b-db, 2, 3, 4, 18, 119, 193, 195, 120, 120, 195, 2, 2.32951
32, 3, wb, attraction, a-b-db, 2, 3, 4, 18, 119, 193, 195, 120, 120, 195, 1, 1.21884
32, 3, wb, attraction, a-b-db, 2, 2, 4, 19, 90, 165, 89, 163, 165, 90, 1, 4.89571
32, 3, wb, attraction, a-b-db, 2, 2, 4, 19, 90, 165, 89, 163, 165, 90, 2, 0.745411
32, 3, wb, attraction, a-b-db, 14, 3, 4, 20, 195, 120, 111, 181, 120, 195, 2, 2.96923
32, 3, wb, attraction, a-b-db, 14, 3, 4, 20, 195, 120, 111, 181, 120, 195, 1, 0.608855
32, 3, wb, attraction, a-b-db, 9, 2, 4, 21, 165, 90, 90, 165, 86, 157, 3, 6.7179
32, 3, wb, attraction, a-b-db, 9, 2, 4, 21, 165, 90, 90, 165, 86, 157, 2, 0.654516
32, 3, wb, attraction, a-b-da, 14, 2, 4, 22, 153, 83, 165, 90, 90, 165, 3, 6.20217
32, 3, wb, attraction, a-b-da, 14, 2, 4, 22, 153, 83, 165, 90, 90, 165, 2, 1.38369
32, 3, wb, attraction, a-b-db, 2, 1, 4, 23, 135, 60, 59, 134, 60, 135, 1, 1.36574
32, 3, wb, attraction, a-b-db, 2, 1, 4, 23, 135, 60, 59, 134, 60, 135, 2, 1.1499
32, 3, wb, attraction, a-b-db, 14, 2, 4, 24, 90, 165, 83, 153, 165, 90, 2, 2.44556
32, 3, wb, attraction, a-b-db, 14, 2, 4, 24, 90, 165, 83, 153, 165, 90, 1, 0.514138
32, 3, wb, attraction, a-b-db, 5, 1, 4, 25, 135, 60, 58, 132, 60, 135, 1, 2.67523
32, 3, wb, attraction, a-b-db, 5, 1, 4, 25, 135, 60, 58, 132, 60, 135, 3, 0.726302
32, 3, wb, filler, NA, 999, 999, 4, 26, 136, 128, 151, 152, 169, 154, 1, 1.15077
32, 3, wb, filler, NA, 999, 999, 4, 26, 136, 128, 151, 152, 169, 154, 3, 1.74373
32, 3, wb, attraction, a-b-db, 5, 3, 4, 27, 117, 190, 195, 120, 120, 195, 3, 6.91124
32, 3, wb, attraction, a-b-db, 5, 3, 4, 27, 117, 190, 195, 120, 120, 195, 1, 4.94366
32, 3, wb, attraction, a-b-da, 2, 3, 4, 28, 195, 120, 120, 195, 193, 119, 1, 1.30991
32, 3, wb, attraction, a-b-da, 2, 3, 4, 28, 195, 120, 120, 195, 193, 119, 2, 0.480212
32, 3, wb, attraction, a-b-db, 5, 2, 4, 29, 165, 90, 90, 165, 88, 161, 1, 2.26664
32, 3, wb, attraction, a-b-db, 5, 2, 4, 29, 165, 90, 90, 165, 88, 161, 2, 0.926641
32, 3, wb, filler, NA, 999, 999, 4, 30, 166, 161, 144, 85, 79, 155, 2, 1.01478
32, 3, wb, filler, NA, 999, 999, 4, 30, 166, 161, 144, 85, 79, 155, 1, 0.789173
32, 3, wb, attraction, a-b-db, 9, 1, 4, 31, 135, 60, 60, 135, 57, 129, 1, 2.29965
32, 3, wb, attraction, a-b-db, 9, 1, 4, 31, 135, 60, 60, 135, 57, 129, 2, 0.510118
32, 3, wb, attraction, a-b-da, 2, 1, 4, 32, 134, 59, 60, 135, 135, 60, 1, 1.42327
32, 3, wb, attraction, a-b-da, 2, 1, 4, 32, 134, 59, 60, 135, 135, 60, 2, 0.844703
32, 3, wb, attraction, a-b-da, 14, 3, 4, 33, 181, 111, 195, 120, 120, 195, 1, 1.61651
32, 3, wb, attraction, a-b-da, 14, 3, 4, 33, 181, 111, 195, 120, 120, 195, 3, 0.918676
32, 3, wb, attraction, a-b-da, 9, 1, 4, 34, 135, 60, 129, 57, 60, 135, 1, 1.52772
32, 3, wb, attraction, a-b-da, 9, 1, 4, 34, 135, 60, 129, 57, 60, 135, 3, 0.697036
32, 3, wb, catch, NA, 999, 999, 4, 35, 136, 119, 88, 107, 137, 178, 2, 0.826704
32, 3, wb, catch, NA, 999, 999, 4, 35, 136, 119, 88, 107, 137, 178, 3, 0.648612
32, 3, wb, filler, NA, 999, 999, 4, 36, 88, 178, 70, 160, 76, 178, 2, 2.7322
32, 3, wb, filler, NA, 999, 999, 4, 36, 88, 178, 70, 160, 76, 178, 1, 0.653441
32, 3, wb, filler, NA, 999, 999, 4, 37, 141, 129, 157, 120, 117, 166, 2, 2.22526
32, 3, wb, filler, NA, 999, 999, 4, 37, 141, 129, 157, 120, 117, 166, 1, 2.03835
32, 3, wb, attraction, a-b-db, 5, 1, 5, 1, 60, 135, 58, 132, 135, 60, 3, 8.28033
32, 3, wb, attraction, a-b-db, 5, 1, 5, 1, 60, 135, 58, 132, 135, 60, 2, 0.753674
32, 3, wb, attraction, a-b-db, 9, 1, 5, 2, 135, 60, 60, 135, 57, 129, 1, 1.91341
32, 3, wb, attraction, a-b-db, 9, 1, 5, 2, 135, 60, 60, 135, 57, 129, 2, 0.819459
32, 3, wb, attraction, a-b-db, 14, 2, 5, 3, 165, 90, 90, 165, 83, 153, 3, 2.40049
32, 3, wb, attraction, a-b-db, 14, 2, 5, 3, 165, 90, 90, 165, 83, 153, 2, 0.607106
32, 3, wb, filler, NA, 999, 999, 5, 4, 94, 148, 67, 91, 172, 147, 2, 0.820095
32, 3, wb, filler, NA, 999, 999, 5, 4, 94, 148, 67, 91, 172, 147, 3, 0.666513
32, 3, wb, filler, NA, 999, 999, 5, 5, 172, 96, 184, 177, 57, 119, 3, 1.26963
32, 3, wb, filler, NA, 999, 999, 5, 5, 172, 96, 184, 177, 57, 119, 2, 0.489833
32, 3, wb, attraction, a-b-da, 14, 3, 5, 6, 195, 120, 120, 195, 181, 111, 3, 1.82028
32, 3, wb, attraction, a-b-da, 14, 3, 5, 6, 195, 120, 120, 195, 181, 111, 2, 1.08236
32, 3, wb, filler, NA, 999, 999, 5, 7, 133, 88, 195, 62, 60, 157, 3, 6.79657
32, 3, wb, filler, NA, 999, 999, 5, 7, 133, 88, 195, 62, 60, 157, 1, 1.08985
32, 3, wb, attraction, a-b-db, 14, 3, 5, 8, 120, 195, 195, 120, 111, 181, 2, 1.69215
32, 3, wb, attraction, a-b-db, 14, 3, 5, 8, 120, 195, 195, 120, 111, 181, 1, 0.742779
32, 3, wb, attraction, a-b-da, 5, 3, 5, 9, 190, 117, 120, 195, 195, 120, 2, 7.15871
32, 3, wb, attraction, a-b-da, 5, 3, 5, 9, 190, 117, 120, 195, 195, 120, 3, 1.19694
32, 3, wb, attraction, a-b-da, 2, 2, 5, 10, 90, 165, 163, 89, 165, 90, 2, 4.01065
32, 3, wb, attraction, a-b-da, 2, 2, 5, 10, 90, 165, 163, 89, 165, 90, 1, 3.3999
32, 3, wb, catch, NA, 999, 999, 5, 11, 101, 94, 169, 146, 98, 157, 1, 1.07671
32, 3, wb, catch, NA, 999, 999, 5, 11, 101, 94, 169, 146, 98, 157, 2, 0.520379
32, 3, wb, attraction, a-b-db, 14, 1, 5, 12, 56, 125, 135, 60, 60, 135, 1, 2.60948
32, 3, wb, attraction, a-b-db, 14, 1, 5, 12, 56, 125, 135, 60, 60, 135, 3, 0.871285
32, 3, wb, filler, NA, 999, 999, 5, 13, 81, 71, 155, 119, 79, 129, 1, 0.826283
32, 3, wb, filler, NA, 999, 999, 5, 13, 81, 71, 155, 119, 79, 129, 2, 0.792229
32, 3, wb, attraction, a-b-da, 2, 1, 5, 14, 135, 60, 134, 59, 60, 135, 2, 2.41385
32, 3, wb, attraction, a-b-da, 2, 1, 5, 14, 135, 60, 134, 59, 60, 135, 1, 1.62762
32, 3, wb, catch, NA, 999, 999, 5, 15, 109, 146, 127, 188, 99, 96, 3, 4.76783
32, 3, wb, catch, NA, 999, 999, 5, 15, 109, 146, 127, 188, 99, 96, 2, 1.56689
32, 3, wb, attraction, a-b-da, 14, 2, 5, 16, 165, 90, 153, 83, 90, 165, 2, 2.31767
32, 3, wb, attraction, a-b-da, 14, 2, 5, 16, 165, 90, 153, 83, 90, 165, 3, 1.48778
32, 3, wb, attraction, a-b-da, 9, 3, 5, 17, 120, 195, 195, 120, 186, 114, 3, 5.56983
32, 3, wb, attraction, a-b-da, 9, 3, 5, 17, 120, 195, 195, 120, 186, 114, 1, 1.08867
32, 3, wb, filler, NA, 999, 999, 5, 18, 70, 166, 182, 127, 107, 156, 1, 2.07495
32, 3, wb, filler, NA, 999, 999, 5, 18, 70, 166, 182, 127, 107, 156, 2, 1.13424
32, 3, wb, attraction, a-b-da, 9, 1, 5, 19, 129, 57, 60, 135, 135, 60, 1, 2.46249
32, 3, wb, attraction, a-b-da, 9, 1, 5, 19, 129, 57, 60, 135, 135, 60, 2, 0.754343
32, 3, wb, filler, NA, 999, 999, 5, 20, 84, 190, 60, 138, 190, 190, 2, 1.06602
32, 3, wb, filler, NA, 999, 999, 5, 20, 84, 190, 60, 138, 190, 190, 3, 0.598356
32, 3, wb, attraction, a-b-da, 14, 1, 5, 21, 125, 56, 135, 60, 60, 135, 2, 2.22016
32, 3, wb, attraction, a-b-da, 14, 1, 5, 21, 125, 56, 135, 60, 60, 135, 3, 2.3062
32, 3, wb, attraction, a-b-db, 5, 2, 5, 22, 90, 165, 165, 90, 88, 161, 2, 2.83543
32, 3, wb, attraction, a-b-db, 5, 2, 5, 22, 90, 165, 165, 90, 88, 161, 3, 2.8646
32, 3, wb, filler, NA, 999, 999, 5, 23, 142, 173, 79, 106, 188, 80, 2, 0.754727
32, 3, wb, filler, NA, 999, 999, 5, 23, 142, 173, 79, 106, 188, 80, 1, 0.763124
32, 3, wb, attraction, a-b-db, 2, 2, 5, 24, 165, 90, 89, 163, 90, 165, 2, 3.62619
32, 3, wb, attraction, a-b-db, 2, 2, 5, 24, 165, 90, 89, 163, 90, 165, 1, 4.22305
32, 3, wb, attraction, a-b-db, 2, 1, 5, 25, 59, 134, 135, 60, 60, 135, 2, 1.90698
32, 3, wb, attraction, a-b-db, 2, 1, 5, 25, 59, 134, 135, 60, 60, 135, 3, 0.725118
32, 3, wb, attraction, a-b-da, 5, 2, 5, 26, 90, 165, 161, 88, 165, 90, 2, 4.04559
32, 3, wb, attraction, a-b-da, 5, 2, 5, 26, 90, 165, 161, 88, 165, 90, 1, 0.625407
32, 3, wb, attraction, a-b-db, 5, 3, 5, 27, 195, 120, 117, 190, 120, 195, 2, 2.46988
32, 3, wb, attraction, a-b-db, 5, 3, 5, 27, 195, 120, 117, 190, 120, 195, 3, 1.78585
32, 3, wb, attraction, a-b-da, 5, 1, 5, 28, 60, 135, 135, 60, 132, 58, 3, 1.53578
32, 3, wb, attraction, a-b-da, 5, 1, 5, 28, 60, 135, 135, 60, 132, 58, 2, 0.817267
32, 3, wb, catch, NA, 999, 999, 5, 29, 193, 122, 131, 64, 135, 120, 2, 1.09429
32, 3, wb, catch, NA, 999, 999, 5, 29, 193, 122, 131, 64, 135, 120, 1, 0.529263
32, 3, wb, filler, NA, 999, 999, 5, 30, 132, 130, 183, 153, 104, 180, 1, 4.76172
32, 3, wb, filler, NA, 999, 999, 5, 30, 132, 130, 183, 153, 104, 180, 2, 0.456943
32, 3, wb, attraction, a-b-db, 9, 2, 5, 31, 165, 90, 86, 157, 90, 165, 1, 5.26801
32, 3, wb, attraction, a-b-db, 9, 2, 5, 31, 165, 90, 86, 157, 90, 165, 2, 0.654991
32, 3, wb, attraction, a-b-db, 2, 3, 5, 32, 119, 193, 120, 195, 195, 120, 1, 4.49078
32, 3, wb, attraction, a-b-db, 2, 3, 5, 32, 119, 193, 120, 195, 195, 120, 3, 1.12482
32, 3, wb, filler, NA, 999, 999, 5, 33, 128, 153, 167, 149, 187, 147, 1, 1.46085
32, 3, wb, filler, NA, 999, 999, 5, 33, 128, 153, 167, 149, 187, 147, 3, 1.4731
32, 3, wb, attraction, a-b-da, 9, 2, 5, 34, 90, 165, 157, 86, 165, 90, 1, 1.72393
32, 3, wb, attraction, a-b-da, 9, 2, 5, 34, 90, 165, 157, 86, 165, 90, 3, 4.06955
32, 3, wb, attraction, a-b-db, 9, 3, 5, 35, 195, 120, 114, 186, 120, 195, 2, 2.60731
32, 3, wb, attraction, a-b-db, 9, 3, 5, 35, 195, 120, 114, 186, 120, 195, 3, 1.39717
32, 3, wb, filler, NA, 999, 999, 5, 36, 116, 95, 162, 84, 133, 113, 1, 1.00268
32, 3, wb, filler, NA, 999, 999, 5, 36, 116, 95, 162, 84, 133, 113, 2, 0.865746
32, 3, wb, attraction, a-b-da, 2, 3, 5, 37, 120, 195, 193, 119, 195, 120, 1, 1.46858
32, 3, wb, attraction, a-b-da, 2, 3, 5, 37, 120, 195, 193, 119, 195, 120, 2, 0.5688
32, 3, wb, attraction, a-b-da, 2, 1, 6, 1, 134, 59, 60, 135, 135, 60, 1, 1.01586
32, 3, wb, attraction, a-b-da, 2, 1, 6, 1, 134, 59, 60, 135, 135, 60, 2, 0.790267
32, 3, wb, filler, NA, 999, 999, 6, 2, 117, 174, 195, 148, 60, 120, 3, 0.796008
32, 3, wb, filler, NA, 999, 999, 6, 2, 117, 174, 195, 148, 60, 120, 2, 0.443041
32, 3, wb, attraction, a-b-da, 9, 2, 6, 3, 90, 165, 157, 86, 165, 90, 1, 1.00699
32, 3, wb, attraction, a-b-da, 9, 2, 6, 3, 90, 165, 157, 86, 165, 90, 2, 0.581123
32, 3, wb, attraction, a-b-db, 5, 3, 6, 4, 195, 120, 117, 190, 120, 195, 2, 4.40382
32, 3, wb, attraction, a-b-db, 5, 3, 6, 4, 195, 120, 117, 190, 120, 195, 3, 1.02551
32, 3, wb, filler, NA, 999, 999, 6, 5, 63, 187, 157, 93, 139, 81, 1, 0.997684
32, 3, wb, filler, NA, 999, 999, 6, 5, 63, 187, 157, 93, 139, 81, 2, 0.716733
32, 3, wb, attraction, a-b-da, 5, 2, 6, 6, 90, 165, 161, 88, 165, 90, 2, 1.70983
32, 3, wb, attraction, a-b-da, 5, 2, 6, 6, 90, 165, 161, 88, 165, 90, 3, 0.76806
32, 3, wb, attraction, a-b-da, 9, 1, 6, 7, 129, 57, 135, 60, 60, 135, 1, 1.22308
32, 3, wb, attraction, a-b-da, 9, 1, 6, 7, 129, 57, 135, 60, 60, 135, 2, 2.06861
32, 3, wb, attraction, a-b-db, 5, 2, 6, 8, 165, 90, 90, 165, 88, 161, 1, 3.44734
32, 3, wb, attraction, a-b-db, 5, 2, 6, 8, 165, 90, 90, 165, 88, 161, 2, 0.699523
32, 3, wb, attraction, a-b-db, 2, 3, 6, 9, 195, 120, 120, 195, 119, 193, 2, 4.86127
32, 3, wb, attraction, a-b-db, 2, 3, 6, 9, 195, 120, 120, 195, 119, 193, 3, 1.10429
32, 3, wb, filler, NA, 999, 999, 6, 10, 89, 104, 102, 177, 82, 135, 1, 0.721853
32, 3, wb, filler, NA, 999, 999, 6, 10, 89, 104, 102, 177, 82, 135, 2, 0.507636
32, 3, wb, attraction, a-b-da, 14, 3, 6, 11, 120, 195, 195, 120, 181, 111, 2, 7.31681
32, 3, wb, attraction, a-b-da, 14, 3, 6, 11, 120, 195, 195, 120, 181, 111, 1, 0.957226
32, 3, wb, attraction, a-b-da, 2, 3, 6, 12, 195, 120, 120, 195, 193, 119, 1, 5.47607
32, 3, wb, attraction, a-b-da, 2, 3, 6, 12, 195, 120, 120, 195, 193, 119, 2, 2.24634
32, 3, wb, filler, NA, 999, 999, 6, 13, 58, 185, 185, 136, 74, 60, 3, 1.43353
32, 3, wb, filler, NA, 999, 999, 6, 13, 58, 185, 185, 136, 74, 60, 2, 0.935184
32, 3, wb, attraction, a-b-da, 14, 2, 6, 14, 90, 165, 153, 83, 165, 90, 2, 2.15153
32, 3, wb, attraction, a-b-da, 14, 2, 6, 14, 90, 165, 153, 83, 165, 90, 3, 0.680146
32, 3, wb, attraction, a-b-db, 14, 1, 6, 15, 60, 135, 135, 60, 56, 125, 3, 2.10644
32, 3, wb, attraction, a-b-db, 14, 1, 6, 15, 60, 135, 135, 60, 56, 125, 1, 0.556421
32, 3, wb, filler, NA, 999, 999, 6, 16, 146, 185, 75, 80, 133, 113, 2, 2.15617
32, 3, wb, filler, NA, 999, 999, 6, 16, 146, 185, 75, 80, 133, 113, 1, 0.32407
32, 3, wb, attraction, a-b-db, 2, 1, 6, 17, 135, 60, 59, 134, 60, 135, 1, 3.18873
32, 3, wb, attraction, a-b-db, 2, 1, 6, 17, 135, 60, 59, 134, 60, 135, 2, 0.499006
32, 3, wb, attraction, a-b-db, 2, 2, 6, 18, 90, 165, 165, 90, 89, 163, 3, 3.51681
32, 3, wb, attraction, a-b-db, 2, 2, 6, 18, 90, 165, 165, 90, 89, 163, 2, 0.782452
32, 3, wb, attraction, a-b-db, 5, 1, 6, 19, 58, 132, 135, 60, 60, 135, 1, 1.60463
32, 3, wb, attraction, a-b-db, 5, 1, 6, 19, 58, 132, 135, 60, 60, 135, 2, 1.53937
32, 3, wb, attraction, a-b-db, 9, 1, 6, 20, 57, 129, 135, 60, 60, 135, 1, 0.843524
32, 3, wb, attraction, a-b-db, 9, 1, 6, 20, 57, 129, 135, 60, 60, 135, 2, 0.84065
32, 3, wb, filler, NA, 999, 999, 6, 21, 91, 148, 139, 87, 137, 174, 1, 0.852225
32, 3, wb, filler, NA, 999, 999, 6, 21, 91, 148, 139, 87, 137, 174, 3, 0.289415
32, 3, wb, attraction, a-b-da, 2, 2, 6, 22, 90, 165, 165, 90, 163, 89, 1, 5.06799
32, 3, wb, attraction, a-b-da, 2, 2, 6, 22, 90, 165, 165, 90, 163, 89, 3, 1.58303
32, 3, wb, catch, NA, 999, 999, 6, 23, 171, 144, 118, 137, 132, 63, 3, 0.757031
32, 3, wb, catch, NA, 999, 999, 6, 23, 171, 144, 118, 137, 132, 63, 1, 0.429489
32, 3, wb, filler, NA, 999, 999, 6, 24, 84, 94, 137, 166, 154, 64, 1, 1.04186
32, 3, wb, filler, NA, 999, 999, 6, 24, 84, 94, 137, 166, 154, 64, 2, 0.326867
32, 3, wb, attraction, a-b-db, 9, 2, 6, 25, 86, 157, 90, 165, 165, 90, 1, 2.31933
32, 3, wb, attraction, a-b-db, 9, 2, 6, 25, 86, 157, 90, 165, 165, 90, 2, 0.345319
32, 3, wb, catch, NA, 999, 999, 6, 26, 103, 92, 134, 121, 152, 163, 1, 0.617085
32, 3, wb, catch, NA, 999, 999, 6, 26, 103, 92, 134, 121, 152, 163, 3, 0.53556
32, 3, wb, attraction, a-b-da, 9, 3, 6, 27, 186, 114, 195, 120, 120, 195, 1, 5.60005
32, 3, wb, attraction, a-b-da, 9, 3, 6, 27, 186, 114, 195, 120, 120, 195, 2, 0.885609
32, 3, wb, attraction, a-b-da, 5, 3, 6, 28, 190, 117, 120, 195, 195, 120, 1, 3.03208
32, 3, wb, attraction, a-b-da, 5, 3, 6, 28, 190, 117, 120, 195, 195, 120, 2, 0.700916
32, 3, wb, attraction, a-b-da, 14, 1, 6, 29, 125, 56, 60, 135, 135, 60, 1, 1.58261
32, 3, wb, attraction, a-b-da, 14, 1, 6, 29, 125, 56, 60, 135, 135, 60, 2, 0.462113
32, 3, wb, attraction, a-b-db, 14, 3, 6, 30, 195, 120, 111, 181, 120, 195, 2, 3.61736
32, 3, wb, attraction, a-b-db, 14, 3, 6, 30, 195, 120, 111, 181, 120, 195, 3, 0.814814
32, 3, wb, attraction, a-b-da, 5, 1, 6, 31, 60, 135, 132, 58, 135, 60, 2, 1.87591
32, 3, wb, attraction, a-b-da, 5, 1, 6, 31, 60, 135, 132, 58, 135, 60, 3, 3.39923
32, 3, wb, catch, NA, 999, 999, 6, 32, 177, 138, 123, 132, 92, 103, 3, 1.30016
32, 3, wb, catch, NA, 999, 999, 6, 32, 177, 138, 123, 132, 92, 103, 1, 0.423064
32, 3, wb, filler, NA, 999, 999, 6, 33, 57, 180, 150, 60, 82, 100, 3, 2.26828
32, 3, wb, filler, NA, 999, 999, 6, 33, 57, 180, 150, 60, 82, 100, 1, 0.91207
32, 3, wb, attraction, a-b-db, 14, 2, 6, 34, 83, 153, 165, 90, 90, 165, 1, 2.44118
32, 3, wb, attraction, a-b-db, 14, 2, 6, 34, 83, 153, 165, 90, 90, 165, 3, 1.57368
32, 3, wb, filler, NA, 999, 999, 6, 35, 150, 164, 75, 94, 135, 186, 2, 0.70776
32, 3, wb, filler, NA, 999, 999, 6, 35, 150, 164, 75, 94, 135, 186, 1, 4.19019
32, 3, wb, filler, NA, 999, 999, 6, 36, 166, 128, 192, 89, 122, 109, 2, 1.03553
32, 3, wb, filler, NA, 999, 999, 6, 36, 166, 128, 192, 89, 122, 109, 1, 2.52903
32, 3, wb, attraction, a-b-db, 9, 3, 6, 37, 114, 186, 120, 195, 195, 120, 2, 2.42499
32, 3, wb, attraction, a-b-db, 9, 3, 6, 37, 114, 186, 120, 195, 195, 120, 3, 0.606111
32, 3, wb, filler, NA, 999, 999, 7, 1, 64, 95, 184, 98, 174, 94, 1, 0.93183
32, 3, wb, filler, NA, 999, 999, 7, 1, 64, 95, 184, 98, 174, 94, 2, 1.66956
32, 3, wb, attraction, a-b-db, 14, 2, 7, 2, 90, 165, 165, 90, 83, 153, 3, 2.77631
32, 3, wb, attraction, a-b-db, 14, 2, 7, 2, 90, 165, 165, 90, 83, 153, 2, 0.999413
32, 3, wb, attraction, a-b-da, 2, 2, 7, 3, 165, 90, 163, 89, 90, 165, 1, 4.9411
32, 3, wb, attraction, a-b-da, 2, 2, 7, 3, 165, 90, 163, 89, 90, 165, 3, 0.524741
32, 3, wb, catch, NA, 999, 999, 7, 4, 158, 157, 102, 93, 109, 146, 2, 0.981235
32, 3, wb, catch, NA, 999, 999, 7, 4, 158, 157, 102, 93, 109, 146, 1, 0.773019
32, 3, wb, filler, NA, 999, 999, 7, 5, 183, 138, 144, 122, 109, 145, 3, 2.02796
32, 3, wb, filler, NA, 999, 999, 7, 5, 183, 138, 144, 122, 109, 145, 1, 1.28924
32, 3, wb, attraction, a-b-da, 2, 3, 7, 6, 195, 120, 193, 119, 120, 195, 1, 3.75554
32, 3, wb, attraction, a-b-da, 2, 3, 7, 6, 195, 120, 193, 119, 120, 195, 2, 0.458977
32, 3, wb, attraction, a-b-db, 9, 1, 7, 7, 57, 129, 135, 60, 60, 135, 1, 3.19806
32, 3, wb, attraction, a-b-db, 9, 1, 7, 7, 57, 129, 135, 60, 60, 135, 3, 2.08443
32, 3, wb, attraction, a-b-db, 2, 3, 7, 8, 195, 120, 119, 193, 120, 195, 3, 5.91038
32, 3, wb, attraction, a-b-db, 2, 3, 7, 8, 195, 120, 119, 193, 120, 195, 1, 1.3512
32, 3, wb, attraction, a-b-db, 2, 2, 7, 9, 90, 165, 89, 163, 165, 90, 2, 8.32674
32, 3, wb, attraction, a-b-db, 2, 2, 7, 9, 90, 165, 89, 163, 165, 90, 1, 0.454003
32, 3, wb, filler, NA, 999, 999, 7, 10, 158, 178, 149, 103, 149, 170, 2, 1.16981
32, 3, wb, filler, NA, 999, 999, 7, 10, 158, 178, 149, 103, 149, 170, 1, 1.06607
32, 3, wb, attraction, a-b-db, 5, 2, 7, 11, 165, 90, 90, 165, 88, 161, 3, 5.46921
32, 3, wb, attraction, a-b-db, 5, 2, 7, 11, 165, 90, 90, 165, 88, 161, 2, 0.872028
32, 3, wb, filler, NA, 999, 999, 7, 12, 106, 95, 109, 89, 97, 136, 2, 3.08301
32, 3, wb, filler, NA, 999, 999, 7, 12, 106, 95, 109, 89, 97, 136, 3, 0.573963
32, 3, wb, attraction, a-b-db, 5, 3, 7, 13, 195, 120, 117, 190, 120, 195, 1, 3.26878
32, 3, wb, attraction, a-b-db, 5, 3, 7, 13, 195, 120, 117, 190, 120, 195, 3, 2.68002
32, 3, wb, attraction, a-b-da, 14, 1, 7, 14, 135, 60, 60, 135, 125, 56, 3, 1.40192
32, 3, wb, attraction, a-b-da, 14, 1, 7, 14, 135, 60, 60, 135, 125, 56, 2, 1.65679
32, 3, wb, attraction, a-b-da, 9, 3, 7, 15, 195, 120, 120, 195, 186, 114, 3, 4.3001
32, 3, wb, attraction, a-b-da, 9, 3, 7, 15, 195, 120, 120, 195, 186, 114, 2, 1.91009
32, 3, wb, filler, NA, 999, 999, 7, 16, 77, 174, 106, 132, 171, 67, 3, 4.63076
32, 3, wb, filler, NA, 999, 999, 7, 16, 77, 174, 106, 132, 171, 67, 1, 3.2113
32, 3, wb, attraction, a-b-db, 5, 1, 7, 17, 135, 60, 58, 132, 60, 135, 1, 1.05575
32, 3, wb, attraction, a-b-db, 5, 1, 7, 17, 135, 60, 58, 132, 60, 135, 2, 2.49204
32, 3, wb, filler, NA, 999, 999, 7, 18, 194, 146, 180, 177, 114, 137, 3, 1.35714
32, 3, wb, filler, NA, 999, 999, 7, 18, 194, 146, 180, 177, 114, 137, 2, 0.517243
32, 3, wb, filler, NA, 999, 999, 7, 19, 122, 112, 178, 57, 133, 157, 2, 1.41438
32, 3, wb, filler, NA, 999, 999, 7, 19, 122, 112, 178, 57, 133, 157, 3, 0.988547
32, 3, wb, attraction, a-b-db, 14, 1, 7, 20, 60, 135, 56, 125, 135, 60, 2, 2.47493
32, 3, wb, attraction, a-b-db, 14, 1, 7, 20, 60, 135, 56, 125, 135, 60, 1, 0.486023
32, 3, wb, attraction, a-b-da, 5, 1, 7, 21, 135, 60, 60, 135, 132, 58, 3, 1.99255
32, 3, wb, attraction, a-b-da, 5, 1, 7, 21, 135, 60, 60, 135, 132, 58, 1, 1.6632
32, 3, wb, attraction, a-b-da, 14, 3, 7, 22, 195, 120, 181, 111, 120, 195, 2, 2.93794
32, 3, wb, attraction, a-b-da, 14, 3, 7, 22, 195, 120, 181, 111, 120, 195, 3, 1.29895
32, 3, wb, attraction, a-b-da, 2, 1, 7, 23, 134, 59, 60, 135, 135, 60, 2, 8.97256
32, 3, wb, attraction, a-b-da, 2, 1, 7, 23, 134, 59, 60, 135, 135, 60, 3, 0.538388
32, 3, wb, attraction, a-b-db, 14, 3, 7, 24, 120, 195, 195, 120, 111, 181, 3, 1.57096
32, 3, wb, attraction, a-b-db, 14, 3, 7, 24, 120, 195, 195, 120, 111, 181, 2, 1.51506
32, 3, wb, attraction, a-b-da, 5, 3, 7, 25, 120, 195, 195, 120, 190, 117, 1, 3.60372
32, 3, wb, attraction, a-b-da, 5, 3, 7, 25, 120, 195, 195, 120, 190, 117, 2, 0.481883
32, 3, wb, attraction, a-b-da, 9, 1, 7, 26, 135, 60, 129, 57, 60, 135, 3, 3.62844
32, 3, wb, attraction, a-b-da, 9, 1, 7, 26, 135, 60, 129, 57, 60, 135, 1, 1.17728
32, 3, wb, filler, NA, 999, 999, 7, 27, 157, 78, 94, 149, 90, 74, 3, 1.02347
32, 3, wb, filler, NA, 999, 999, 7, 27, 157, 78, 94, 149, 90, 74, 2, 0.525163
32, 3, wb, filler, NA, 999, 999, 7, 28, 166, 114, 88, 183, 143, 183, 2, 3.92568
32, 3, wb, filler, NA, 999, 999, 7, 28, 166, 114, 88, 183, 143, 183, 3, 0.470301
32, 3, wb, attraction, a-b-db, 2, 1, 7, 29, 135, 60, 59, 134, 60, 135, 2, 1.41743
32, 3, wb, attraction, a-b-db, 2, 1, 7, 29, 135, 60, 59, 134, 60, 135, 3, 1.55166
32, 3, wb, catch, NA, 999, 999, 7, 30, 105, 90, 161, 94, 130, 185, 1, 1.05501
32, 3, wb, catch, NA, 999, 999, 7, 30, 105, 90, 161, 94, 130, 185, 3, 0.49142
32, 3, wb, attraction, a-b-da, 9, 2, 7, 31, 165, 90, 90, 165, 157, 86, 3, 4.20521
32, 3, wb, attraction, a-b-da, 9, 2, 7, 31, 165, 90, 90, 165, 157, 86, 1, 0.651497
32, 3, wb, attraction, a-b-db, 9, 2, 7, 32, 86, 157, 165, 90, 90, 165, 2, 3.04703
32, 3, wb, attraction, a-b-db, 9, 2, 7, 32, 86, 157, 165, 90, 90, 165, 3, 1.13131
32, 3, wb, attraction, a-b-db, 9, 3, 7, 33, 195, 120, 120, 195, 114, 186, 3, 2.81163
32, 3, wb, attraction, a-b-db, 9, 3, 7, 33, 195, 120, 120, 195, 114, 186, 2, 0.441284
32, 3, wb, filler, NA, 999, 999, 7, 34, 142, 161, 56, 195, 143, 168, 2, 0.94117
32, 3, wb, filler, NA, 999, 999, 7, 34, 142, 161, 56, 195, 143, 168, 3, 1.14216
32, 3, wb, attraction, a-b-da, 5, 2, 7, 35, 161, 88, 90, 165, 165, 90, 1, 3.29366
32, 3, wb, attraction, a-b-da, 5, 2, 7, 35, 161, 88, 90, 165, 165, 90, 3, 1.24799
32, 3, wb, catch, NA, 999, 999, 7, 36, 187, 128, 97, 98, 154, 101, 2, 1.2435
32, 3, wb, catch, NA, 999, 999, 7, 36, 187, 128, 97, 98, 154, 101, 1, 0.656526
32, 3, wb, attraction, a-b-da, 14, 2, 7, 37, 165, 90, 90, 165, 153, 83, 3, 3.16422
32, 3, wb, attraction, a-b-da, 14, 2, 7, 37, 165, 90, 90, 165, 153, 83, 2, 0.771948
32, 3, wb, attraction, a-b-db, 9, 2, 8, 1, 86, 157, 165, 90, 90, 165, 1, 6.02691
32, 3, wb, attraction, a-b-db, 9, 2, 8, 1, 86, 157, 165, 90, 90, 165, 3, 0.335014
32, 3, wb, attraction, a-b-db, 2, 2, 8, 2, 165, 90, 89, 163, 90, 165, 1, 4.82355
32, 3, wb, attraction, a-b-db, 2, 2, 8, 2, 165, 90, 89, 163, 90, 165, 3, 0.89204
32, 3, wb, attraction, a-b-db, 14, 1, 8, 3, 135, 60, 56, 125, 60, 135, 2, 1.6536
32, 3, wb, attraction, a-b-db, 14, 1, 8, 3, 135, 60, 56, 125, 60, 135, 3, 1.19446
32, 3, wb, attraction, a-b-da, 14, 2, 8, 4, 90, 165, 165, 90, 153, 83, 2, 4.95214
32, 3, wb, attraction, a-b-da, 14, 2, 8, 4, 90, 165, 165, 90, 153, 83, 1, 0.631813
32, 3, wb, filler, NA, 999, 999, 8, 5, 107, 68, 176, 110, 195, 142, 1, 0.844226
32, 3, wb, filler, NA, 999, 999, 8, 5, 107, 68, 176, 110, 195, 142, 3, 0.481145
32, 3, wb, attraction, a-b-da, 9, 1, 8, 6, 129, 57, 60, 135, 135, 60, 2, 3.13974
32, 3, wb, attraction, a-b-da, 9, 1, 8, 6, 129, 57, 60, 135, 135, 60, 1, 1.18005
32, 3, wb, attraction, a-b-db, 9, 1, 8, 7, 57, 129, 135, 60, 60, 135, 1, 2.35436
32, 3, wb, attraction, a-b-db, 9, 1, 8, 7, 57, 129, 135, 60, 60, 135, 3, 0.554822
32, 3, wb, catch, NA, 999, 999, 8, 8, 92, 103, 195, 120, 134, 121, 1, 0.778537
32, 3, wb, catch, NA, 999, 999, 8, 8, 92, 103, 195, 120, 134, 121, 2, 0.730222
32, 3, wb, attraction, a-b-db, 2, 1, 8, 9, 135, 60, 60, 135, 59, 134, 1, 9.21866
32, 3, wb, attraction, a-b-db, 2, 1, 8, 9, 135, 60, 60, 135, 59, 134, 2, 1.15039
32, 3, wb, attraction, a-b-da, 2, 1, 8, 10, 60, 135, 134, 59, 135, 60, 2, 4.67003
32, 3, wb, attraction, a-b-da, 2, 1, 8, 10, 60, 135, 134, 59, 135, 60, 3, 0.673207
32, 3, wb, attraction, a-b-da, 2, 3, 8, 11, 195, 120, 120, 195, 193, 119, 1, 9.63578
32, 3, wb, attraction, a-b-da, 2, 3, 8, 11, 195, 120, 120, 195, 193, 119, 2, 4.58257
32, 3, wb, attraction, a-b-db, 14, 2, 8, 12, 165, 90, 83, 153, 90, 165, 2, 11.4438
32, 3, wb, attraction, a-b-db, 14, 2, 8, 12, 165, 90, 83, 153, 90, 165, 1, 1.07743
32, 3, wb, attraction, a-b-db, 5, 2, 8, 13, 90, 165, 165, 90, 88, 161, 3, 5.10374
32, 3, wb, attraction, a-b-db, 5, 2, 8, 13, 90, 165, 165, 90, 88, 161, 1, 0.52133
32, 3, wb, attraction, a-b-db, 9, 3, 8, 14, 114, 186, 195, 120, 120, 195, 1, 2.11454
32, 3, wb, attraction, a-b-db, 9, 3, 8, 14, 114, 186, 195, 120, 120, 195, 3, 0.580446
32, 3, wb, filler, NA, 999, 999, 8, 15, 111, 130, 153, 189, 145, 84, 3, 1.1709
32, 3, wb, filler, NA, 999, 999, 8, 15, 111, 130, 153, 189, 145, 84, 2, 0.499202
32, 3, wb, attraction, a-b-da, 5, 1, 8, 16, 132, 58, 60, 135, 135, 60, 3, 1.65302
32, 3, wb, attraction, a-b-da, 5, 1, 8, 16, 132, 58, 60, 135, 135, 60, 2, 1.74593
32, 3, wb, filler, NA, 999, 999, 8, 17, 125, 90, 121, 61, 77, 136, 2, 1.19332
32, 3, wb, filler, NA, 999, 999, 8, 17, 125, 90, 121, 61, 77, 136, 1, 0.664227
32, 3, wb, attraction, a-b-db, 5, 1, 8, 18, 135, 60, 60, 135, 58, 132, 1, 1.48327
32, 3, wb, attraction, a-b-db, 5, 1, 8, 18, 135, 60, 60, 135, 58, 132, 2, 0.798719
32, 3, wb, attraction, a-b-db, 14, 3, 8, 19, 111, 181, 195, 120, 120, 195, 1, 2.47634
32, 3, wb, attraction, a-b-db, 14, 3, 8, 19, 111, 181, 195, 120, 120, 195, 3, 0.455506
32, 3, wb, filler, NA, 999, 999, 8, 20, 109, 146, 98, 156, 145, 116, 1, 1.66738
32, 3, wb, filler, NA, 999, 999, 8, 20, 109, 146, 98, 156, 145, 116, 3, 0.759478
32, 3, wb, catch, NA, 999, 999, 8, 21, 195, 120, 151, 104, 91, 104, 3, 3.48658
32, 3, wb, catch, NA, 999, 999, 8, 21, 195, 120, 151, 104, 91, 104, 1, 0.785432
32, 3, wb, attraction, a-b-db, 2, 3, 8, 22, 195, 120, 120, 195, 119, 193, 1, 2.78398
32, 3, wb, attraction, a-b-db, 2, 3, 8, 22, 195, 120, 120, 195, 119, 193, 3, 1.09512
32, 3, wb, filler, NA, 999, 999, 8, 23, 115, 129, 176, 179, 151, 144, 1, 0.816509
32, 3, wb, filler, NA, 999, 999, 8, 23, 115, 129, 176, 179, 151, 144, 2, 0.3989
32, 3, wb, attraction, a-b-da, 5, 3, 8, 24, 120, 195, 190, 117, 195, 120, 3, 16.9168
32, 3, wb, attraction, a-b-da, 5, 3, 8, 24, 120, 195, 190, 117, 195, 120, 2, 0.426146
32, 3, wb, filler, NA, 999, 999, 8, 25, 149, 120, 125, 68, 87, 156, 2, 0.942601
32, 3, wb, filler, NA, 999, 999, 8, 25, 149, 120, 125, 68, 87, 156, 1, 0.5437
32, 3, wb, attraction, a-b-da, 5, 2, 8, 26, 161, 88, 90, 165, 165, 90, 1, 9.7434
32, 3, wb, attraction, a-b-da, 5, 2, 8, 26, 161, 88, 90, 165, 165, 90, 2, 0.573588
32, 3, wb, filler, NA, 999, 999, 8, 27, 165, 145, 144, 154, 86, 89, 3, 1.43604
32, 3, wb, filler, NA, 999, 999, 8, 27, 165, 145, 144, 154, 86, 89, 2, 0.409475
32, 3, wb, attraction, a-b-db, 5, 3, 8, 28, 195, 120, 120, 195, 117, 190, 1, 2.35863
32, 3, wb, attraction, a-b-db, 5, 3, 8, 28, 195, 120, 120, 195, 117, 190, 3, 0.774663
32, 3, wb, attraction, a-b-da, 2, 2, 8, 29, 163, 89, 165, 90, 90, 165, 2, 2.73311
32, 3, wb, attraction, a-b-da, 2, 2, 8, 29, 163, 89, 165, 90, 90, 165, 3, 1.27809
32, 3, wb, attraction, a-b-da, 9, 3, 8, 30, 195, 120, 120, 195, 186, 114, 3, 6.51229
32, 3, wb, attraction, a-b-da, 9, 3, 8, 30, 195, 120, 120, 195, 186, 114, 2, 0.320849
32, 3, wb, attraction, a-b-da, 9, 2, 8, 31, 165, 90, 90, 165, 157, 86, 3, 1.4582
32, 3, wb, attraction, a-b-da, 9, 2, 8, 31, 165, 90, 90, 165, 157, 86, 2, 0.5822
32, 3, wb, filler, NA, 999, 999, 8, 32, 155, 57, 167, 152, 193, 179, 1, 0.77258
32, 3, wb, filler, NA, 999, 999, 8, 32, 155, 57, 167, 152, 193, 179, 3, 1.12442
32, 3, wb, attraction, a-b-da, 14, 1, 8, 33, 60, 135, 135, 60, 125, 56, 2, 2.20468
32, 3, wb, attraction, a-b-da, 14, 1, 8, 33, 60, 135, 135, 60, 125, 56, 1, 0.57063
32, 3, wb, filler, NA, 999, 999, 8, 34, 183, 98, 189, 124, 187, 108, 1, 1.40968
32, 3, wb, filler, NA, 999, 999, 8, 34, 183, 98, 189, 124, 187, 108, 2, 0.527941
32, 3, wb, catch, NA, 999, 999, 8, 35, 149, 106, 63, 132, 147, 168, 2, 1.45622
32, 3, wb, catch, NA, 999, 999, 8, 35, 149, 106, 63, 132, 147, 168, 3, 0.324608
32, 3, wb, filler, NA, 999, 999, 8, 36, 121, 89, 117, 144, 106, 109, 3, 4.12509
32, 3, wb, filler, NA, 999, 999, 8, 36, 121, 89, 117, 144, 106, 109, 2, 0.293845
32, 3, wb, attraction, a-b-da, 14, 3, 8, 37, 181, 111, 120, 195, 195, 120, 1, 4.66363
32, 3, wb, attraction, a-b-da, 14, 3, 8, 37, 181, 111, 120, 195, 195, 120, 3, 0.938761
