sub_n, computer_n, bw_cond, effect, set, distance, diag, block_n, trial_n, h1, w1, h2, w2, h3, w3, choice, rt 
46, 3, wb, practice, NA, 999, 999, 0, 1, 191, 149, 89, 165, 92, 161, 2, 3.1131
46, 3, wb, practice, NA, 999, 999, 0, 1, 191, 149, 89, 165, 92, 161, 1, 1.95399
46, 3, wb, practice, NA, 999, 999, 0, 2, 126, 125, 128, 167, 150, 92, 3, 2.03779
46, 3, wb, practice, NA, 999, 999, 0, 2, 126, 125, 128, 167, 150, 92, 2, 2.03831
46, 3, wb, practice, NA, 999, 999, 0, 3, 88, 56, 59, 119, 68, 129, 1, 2.17367
46, 3, wb, practice, NA, 999, 999, 0, 3, 88, 56, 59, 119, 68, 129, 3, 2.78898
46, 3, wb, filler, NA, 999, 999, 1, 1, 76, 126, 193, 134, 137, 74, 1, 2.2301
46, 3, wb, filler, NA, 999, 999, 1, 1, 76, 126, 193, 134, 137, 74, 2, 1.3073
46, 3, wb, attraction, a-b-db, 2, 1, 1, 2, 135, 60, 59, 134, 60, 135, 2, 1.6523
46, 3, wb, attraction, a-b-db, 2, 1, 1, 2, 135, 60, 59, 134, 60, 135, 1, 6.23297
46, 3, wb, filler, NA, 999, 999, 1, 3, 85, 106, 139, 123, 161, 176, 1, 1.65161
46, 3, wb, filler, NA, 999, 999, 1, 3, 85, 106, 139, 123, 161, 176, 3, 2.70444
46, 3, wb, attraction, a-b-da, 14, 1, 1, 4, 60, 135, 125, 56, 135, 60, 2, 2.18565
46, 3, wb, attraction, a-b-da, 14, 1, 1, 4, 60, 135, 125, 56, 135, 60, 1, 3.29687
46, 3, wb, attraction, a-b-da, 14, 3, 1, 5, 120, 195, 195, 120, 181, 111, 3, 2.06585
46, 3, wb, attraction, a-b-da, 14, 3, 1, 5, 120, 195, 195, 120, 181, 111, 1, 1.65372
46, 3, wb, attraction, a-b-da, 9, 1, 1, 6, 60, 135, 135, 60, 129, 57, 1, 1.72117
46, 3, wb, attraction, a-b-da, 9, 1, 1, 6, 60, 135, 135, 60, 129, 57, 2, 1.31538
46, 3, wb, filler, NA, 999, 999, 1, 7, 104, 151, 148, 60, 191, 142, 2, 1.70015
46, 3, wb, filler, NA, 999, 999, 1, 7, 104, 151, 148, 60, 191, 142, 3, 1.64687
46, 3, wb, attraction, a-b-da, 5, 3, 1, 8, 195, 120, 190, 117, 120, 195, 2, 2.53839
46, 3, wb, attraction, a-b-da, 5, 3, 1, 8, 195, 120, 190, 117, 120, 195, 1, 2.21154
46, 3, wb, attraction, a-b-da, 9, 3, 1, 9, 195, 120, 120, 195, 186, 114, 3, 1.50407
46, 3, wb, attraction, a-b-da, 9, 3, 1, 9, 195, 120, 120, 195, 186, 114, 2, 0.866318
46, 3, wb, attraction, a-b-db, 14, 3, 1, 10, 195, 120, 111, 181, 120, 195, 3, 2.98935
46, 3, wb, attraction, a-b-db, 14, 3, 1, 10, 195, 120, 111, 181, 120, 195, 2, 1.79574
46, 3, wb, attraction, a-b-da, 5, 2, 1, 11, 165, 90, 161, 88, 90, 165, 1, 1.92111
46, 3, wb, attraction, a-b-da, 5, 2, 1, 11, 165, 90, 161, 88, 90, 165, 2, 1.52247
46, 3, wb, attraction, a-b-db, 14, 1, 1, 12, 60, 135, 56, 125, 135, 60, 3, 1.14719
46, 3, wb, attraction, a-b-db, 14, 1, 1, 12, 60, 135, 56, 125, 135, 60, 2, 1.62016
46, 3, wb, attraction, a-b-db, 9, 2, 1, 13, 165, 90, 86, 157, 90, 165, 2, 2.24895
46, 3, wb, attraction, a-b-db, 9, 2, 1, 13, 165, 90, 86, 157, 90, 165, 1, 1.07763
46, 3, wb, filler, NA, 999, 999, 1, 14, 124, 111, 119, 141, 157, 103, 1, 1.5678
46, 3, wb, filler, NA, 999, 999, 1, 14, 124, 111, 119, 141, 157, 103, 2, 2.52795
46, 3, wb, filler, NA, 999, 999, 1, 15, 119, 136, 189, 91, 66, 146, 3, 2.32779
46, 3, wb, filler, NA, 999, 999, 1, 15, 119, 136, 189, 91, 66, 146, 1, 1.38515
46, 3, wb, attraction, a-b-db, 14, 2, 1, 16, 90, 165, 165, 90, 83, 153, 3, 2.11132
46, 3, wb, attraction, a-b-db, 14, 2, 1, 16, 90, 165, 165, 90, 83, 153, 2, 1.60134
46, 3, wb, attraction, a-b-da, 9, 2, 1, 17, 165, 90, 157, 86, 90, 165, 2, 1.61467
46, 3, wb, attraction, a-b-da, 9, 2, 1, 17, 165, 90, 157, 86, 90, 165, 3, 1.98879
46, 3, wb, filler, NA, 999, 999, 1, 18, 112, 185, 69, 104, 137, 77, 2, 1.5067
46, 3, wb, filler, NA, 999, 999, 1, 18, 112, 185, 69, 104, 137, 77, 1, 0.580884
46, 3, wb, attraction, a-b-da, 14, 2, 1, 19, 153, 83, 165, 90, 90, 165, 1, 3.00339
46, 3, wb, attraction, a-b-da, 14, 2, 1, 19, 153, 83, 165, 90, 90, 165, 3, 0.905676
46, 3, wb, attraction, a-b-db, 9, 3, 1, 20, 114, 186, 195, 120, 120, 195, 1, 1.81135
46, 3, wb, attraction, a-b-db, 9, 3, 1, 20, 114, 186, 195, 120, 120, 195, 3, 0.809535
46, 3, wb, attraction, a-b-da, 2, 1, 1, 21, 134, 59, 60, 135, 135, 60, 1, 3.66256
46, 3, wb, attraction, a-b-da, 2, 1, 1, 21, 134, 59, 60, 135, 135, 60, 2, 1.42597
46, 3, wb, attraction, a-b-da, 5, 1, 1, 22, 60, 135, 132, 58, 135, 60, 2, 1.85417
46, 3, wb, attraction, a-b-da, 5, 1, 1, 22, 60, 135, 132, 58, 135, 60, 1, 0.794815
46, 3, wb, catch, NA, 999, 999, 1, 23, 126, 129, 138, 177, 120, 75, 3, 1.13652
46, 3, wb, catch, NA, 999, 999, 1, 23, 126, 129, 138, 177, 120, 75, 2, 0.562297
46, 3, wb, attraction, a-b-db, 5, 2, 1, 24, 90, 165, 88, 161, 165, 90, 2, 2.16939
46, 3, wb, attraction, a-b-db, 5, 2, 1, 24, 90, 165, 88, 161, 165, 90, 3, 0.529303
46, 3, wb, filler, NA, 999, 999, 1, 25, 107, 56, 173, 84, 102, 115, 1, 1.12971
46, 3, wb, filler, NA, 999, 999, 1, 25, 107, 56, 173, 84, 102, 115, 2, 1.60335
46, 3, wb, catch, NA, 999, 999, 1, 26, 78, 117, 165, 150, 92, 163, 1, 1.2407
46, 3, wb, catch, NA, 999, 999, 1, 26, 78, 117, 165, 150, 92, 163, 2, 0.693551
46, 3, wb, catch, NA, 999, 999, 1, 27, 96, 99, 103, 152, 172, 143, 1, 0.975342
46, 3, wb, catch, NA, 999, 999, 1, 27, 96, 99, 103, 152, 172, 143, 3, 1.15112
46, 3, wb, attraction, a-b-db, 9, 1, 1, 28, 60, 135, 57, 129, 135, 60, 2, 1.67863
46, 3, wb, attraction, a-b-db, 9, 1, 1, 28, 60, 135, 57, 129, 135, 60, 3, 1.57018
46, 3, wb, attraction, a-b-da, 2, 2, 1, 29, 165, 90, 90, 165, 163, 89, 2, 2.44086
46, 3, wb, attraction, a-b-da, 2, 2, 1, 29, 165, 90, 90, 165, 163, 89, 1, 1.08533
46, 3, wb, attraction, a-b-db, 5, 1, 1, 30, 60, 135, 135, 60, 58, 132, 1, 1.54384
46, 3, wb, attraction, a-b-db, 5, 1, 1, 30, 60, 135, 135, 60, 58, 132, 2, 0.888492
46, 3, wb, attraction, a-b-db, 5, 3, 1, 31, 117, 190, 120, 195, 195, 120, 1, 3.18678
46, 3, wb, attraction, a-b-db, 5, 3, 1, 31, 117, 190, 120, 195, 195, 120, 3, 1.00975
46, 3, wb, filler, NA, 999, 999, 1, 32, 190, 180, 157, 182, 154, 117, 3, 1.07885
46, 3, wb, filler, NA, 999, 999, 1, 32, 190, 180, 157, 182, 154, 117, 1, 0.658353
46, 3, wb, attraction, a-b-db, 2, 2, 1, 33, 89, 163, 90, 165, 165, 90, 1, 1.42147
46, 3, wb, attraction, a-b-db, 2, 2, 1, 33, 89, 163, 90, 165, 165, 90, 3, 0.875106
46, 3, wb, filler, NA, 999, 999, 1, 34, 97, 195, 91, 125, 191, 132, 2, 1.22143
46, 3, wb, filler, NA, 999, 999, 1, 34, 97, 195, 91, 125, 191, 132, 3, 0.587522
46, 3, wb, filler, NA, 999, 999, 1, 35, 121, 122, 187, 112, 63, 97, 3, 0.858041
46, 3, wb, filler, NA, 999, 999, 1, 35, 121, 122, 187, 112, 63, 97, 2, 0.814472
46, 3, wb, attraction, a-b-da, 2, 3, 1, 36, 193, 119, 120, 195, 195, 120, 3, 3.42743
46, 3, wb, attraction, a-b-da, 2, 3, 1, 36, 193, 119, 120, 195, 195, 120, 1, 1.11229
46, 3, wb, attraction, a-b-db, 2, 3, 1, 37, 120, 195, 119, 193, 195, 120, 1, 4.08136
46, 3, wb, attraction, a-b-db, 2, 3, 1, 37, 120, 195, 119, 193, 195, 120, 3, 0.588021
46, 3, wb, attraction, a-b-db, 2, 3, 2, 1, 120, 195, 195, 120, 119, 193, 1, 1.26647
46, 3, wb, attraction, a-b-db, 2, 3, 2, 1, 120, 195, 195, 120, 119, 193, 2, 0.558629
46, 3, wb, filler, NA, 999, 999, 2, 2, 66, 152, 130, 78, 126, 92, 2, 2.4297
46, 3, wb, filler, NA, 999, 999, 2, 2, 66, 152, 130, 78, 126, 92, 3, 0.714886
46, 3, wb, attraction, a-b-db, 5, 2, 2, 3, 88, 161, 90, 165, 165, 90, 3, 1.50802
46, 3, wb, attraction, a-b-db, 5, 2, 2, 3, 88, 161, 90, 165, 165, 90, 2, 0.478105
46, 3, wb, attraction, a-b-db, 2, 1, 2, 4, 60, 135, 59, 134, 135, 60, 1, 0.720495
46, 3, wb, attraction, a-b-db, 2, 1, 2, 4, 60, 135, 59, 134, 135, 60, 3, 2.38715
46, 3, wb, attraction, a-b-db, 9, 2, 2, 5, 90, 165, 86, 157, 165, 90, 2, 1.62494
46, 3, wb, attraction, a-b-db, 9, 2, 2, 5, 90, 165, 86, 157, 165, 90, 3, 0.678293
46, 3, wb, filler, NA, 999, 999, 2, 6, 116, 169, 169, 135, 65, 119, 3, 1.29686
46, 3, wb, filler, NA, 999, 999, 2, 6, 116, 169, 169, 135, 65, 119, 2, 0.587631
46, 3, wb, filler, NA, 999, 999, 2, 7, 154, 113, 173, 57, 59, 193, 2, 2.0421
46, 3, wb, filler, NA, 999, 999, 2, 7, 154, 113, 173, 57, 59, 193, 1, 0.622625
46, 3, wb, filler, NA, 999, 999, 2, 8, 63, 118, 141, 81, 116, 75, 3, 3.77181
46, 3, wb, filler, NA, 999, 999, 2, 8, 63, 118, 141, 81, 116, 75, 2, 0.787391
46, 3, wb, filler, NA, 999, 999, 2, 9, 121, 131, 137, 194, 162, 185, 1, 1.00973
46, 3, wb, filler, NA, 999, 999, 2, 9, 121, 131, 137, 194, 162, 185, 3, 0.504028
46, 3, wb, attraction, a-b-da, 9, 1, 2, 10, 60, 135, 135, 60, 129, 57, 3, 1.52972
46, 3, wb, attraction, a-b-da, 9, 1, 2, 10, 60, 135, 135, 60, 129, 57, 2, 2.3633
46, 3, wb, attraction, a-b-da, 2, 2, 2, 11, 165, 90, 90, 165, 163, 89, 3, 1.58584
46, 3, wb, attraction, a-b-da, 2, 2, 2, 11, 165, 90, 90, 165, 163, 89, 2, 1.11326
46, 3, wb, filler, NA, 999, 999, 2, 12, 152, 183, 115, 113, 105, 116, 2, 1.20214
46, 3, wb, filler, NA, 999, 999, 2, 12, 152, 183, 115, 113, 105, 116, 1, 0.449048
46, 3, wb, attraction, a-b-da, 5, 3, 2, 13, 195, 120, 190, 117, 120, 195, 3, 1.46893
46, 3, wb, attraction, a-b-da, 5, 3, 2, 13, 195, 120, 190, 117, 120, 195, 1, 0.569065
46, 3, wb, attraction, a-b-da, 9, 2, 2, 14, 90, 165, 165, 90, 157, 86, 1, 2.04812
46, 3, wb, attraction, a-b-da, 9, 2, 2, 14, 90, 165, 165, 90, 157, 86, 3, 0.997338
46, 3, wb, attraction, a-b-db, 14, 1, 2, 15, 56, 125, 135, 60, 60, 135, 1, 1.41851
46, 3, wb, attraction, a-b-db, 14, 1, 2, 15, 56, 125, 135, 60, 60, 135, 3, 0.76874
46, 3, wb, filler, NA, 999, 999, 2, 16, 136, 60, 83, 154, 65, 64, 3, 0.935681
46, 3, wb, filler, NA, 999, 999, 2, 16, 136, 60, 83, 154, 65, 64, 2, 0.721499
46, 3, wb, attraction, a-b-da, 2, 1, 2, 17, 135, 60, 134, 59, 60, 135, 1, 1.55444
46, 3, wb, attraction, a-b-da, 2, 1, 2, 17, 135, 60, 134, 59, 60, 135, 3, 0.555266
46, 3, wb, attraction, a-b-da, 5, 1, 2, 18, 132, 58, 135, 60, 60, 135, 2, 1.79509
46, 3, wb, attraction, a-b-da, 5, 1, 2, 18, 132, 58, 135, 60, 60, 135, 3, 0.833774
46, 3, wb, attraction, a-b-da, 9, 3, 2, 19, 195, 120, 186, 114, 120, 195, 1, 0.902123
46, 3, wb, attraction, a-b-da, 9, 3, 2, 19, 195, 120, 186, 114, 120, 195, 3, 0.657206
46, 3, wb, attraction, a-b-db, 2, 2, 2, 20, 90, 165, 165, 90, 89, 163, 1, 1.14026
46, 3, wb, attraction, a-b-db, 2, 2, 2, 20, 90, 165, 165, 90, 89, 163, 3, 2.02919
46, 3, wb, attraction, a-b-da, 14, 1, 2, 21, 60, 135, 125, 56, 135, 60, 3, 2.18536
46, 3, wb, attraction, a-b-da, 14, 1, 2, 21, 60, 135, 125, 56, 135, 60, 1, 0.592409
46, 3, wb, attraction, a-b-db, 5, 3, 2, 22, 117, 190, 120, 195, 195, 120, 1, 1.91837
46, 3, wb, attraction, a-b-db, 5, 3, 2, 22, 117, 190, 120, 195, 195, 120, 2, 0.832404
46, 3, wb, filler, NA, 999, 999, 2, 23, 175, 136, 99, 195, 137, 124, 3, 1.10859
46, 3, wb, filler, NA, 999, 999, 2, 23, 175, 136, 99, 195, 137, 124, 1, 0.774991
46, 3, wb, attraction, a-b-da, 5, 2, 2, 24, 165, 90, 161, 88, 90, 165, 1, 0.989433
46, 3, wb, attraction, a-b-da, 5, 2, 2, 24, 165, 90, 161, 88, 90, 165, 3, 0.852391
46, 3, wb, attraction, a-b-db, 9, 1, 2, 25, 57, 129, 135, 60, 60, 135, 1, 1.00806
46, 3, wb, attraction, a-b-db, 9, 1, 2, 25, 57, 129, 135, 60, 60, 135, 3, 0.526334
46, 3, wb, catch, NA, 999, 999, 2, 26, 163, 152, 110, 145, 121, 74, 3, 1.15868
46, 3, wb, catch, NA, 999, 999, 2, 26, 163, 152, 110, 145, 121, 74, 1, 0.766969
46, 3, wb, filler, NA, 999, 999, 2, 27, 72, 123, 59, 76, 112, 67, 2, 0.918113
46, 3, wb, filler, NA, 999, 999, 2, 27, 72, 123, 59, 76, 112, 67, 1, 1.00033
46, 3, wb, attraction, a-b-db, 14, 2, 2, 28, 165, 90, 83, 153, 90, 165, 2, 1.78214
46, 3, wb, attraction, a-b-db, 14, 2, 2, 28, 165, 90, 83, 153, 90, 165, 1, 0.789409
46, 3, wb, attraction, a-b-db, 9, 3, 2, 29, 114, 186, 195, 120, 120, 195, 2, 1.99581
46, 3, wb, attraction, a-b-db, 9, 3, 2, 29, 114, 186, 195, 120, 120, 195, 1, 0.610584
46, 3, wb, attraction, a-b-da, 14, 2, 2, 30, 153, 83, 90, 165, 165, 90, 1, 1.70362
46, 3, wb, attraction, a-b-da, 14, 2, 2, 30, 153, 83, 90, 165, 165, 90, 2, 0.522385
46, 3, wb, attraction, a-b-db, 5, 1, 2, 31, 58, 132, 60, 135, 135, 60, 3, 1.45954
46, 3, wb, attraction, a-b-db, 5, 1, 2, 31, 58, 132, 60, 135, 135, 60, 2, 0.607545
46, 3, wb, catch, NA, 999, 999, 2, 32, 83, 112, 90, 165, 181, 134, 1, 1.66864
46, 3, wb, catch, NA, 999, 999, 2, 32, 83, 112, 90, 165, 181, 134, 3, 0.488776
46, 3, wb, catch, NA, 999, 999, 2, 33, 162, 153, 110, 85, 111, 144, 2, 1.09125
46, 3, wb, catch, NA, 999, 999, 2, 33, 162, 153, 110, 85, 111, 144, 1, 0.342331
46, 3, wb, attraction, a-b-da, 14, 3, 2, 34, 195, 120, 181, 111, 120, 195, 2, 3.21411
46, 3, wb, attraction, a-b-da, 14, 3, 2, 34, 195, 120, 181, 111, 120, 195, 1, 0.547659
46, 3, wb, filler, NA, 999, 999, 2, 35, 82, 57, 158, 99, 66, 111, 1, 0.739602
46, 3, wb, filler, NA, 999, 999, 2, 35, 82, 57, 158, 99, 66, 111, 2, 0.740667
46, 3, wb, attraction, a-b-da, 2, 3, 2, 36, 195, 120, 193, 119, 120, 195, 3, 1.18032
46, 3, wb, attraction, a-b-da, 2, 3, 2, 36, 195, 120, 193, 119, 120, 195, 2, 0.772027
46, 3, wb, attraction, a-b-db, 14, 3, 2, 37, 195, 120, 111, 181, 120, 195, 2, 2.40289
46, 3, wb, attraction, a-b-db, 14, 3, 2, 37, 195, 120, 111, 181, 120, 195, 3, 0.52964
46, 3, wb, attraction, a-b-da, 14, 2, 3, 1, 90, 165, 153, 83, 165, 90, 2, 1.68205
46, 3, wb, attraction, a-b-da, 14, 2, 3, 1, 90, 165, 153, 83, 165, 90, 1, 0.581347
46, 3, wb, filler, NA, 999, 999, 3, 2, 137, 166, 92, 110, 186, 119, 2, 0.803866
46, 3, wb, filler, NA, 999, 999, 3, 2, 137, 166, 92, 110, 186, 119, 3, 1.00285
46, 3, wb, attraction, a-b-db, 14, 3, 3, 3, 111, 181, 195, 120, 120, 195, 1, 1.8165
46, 3, wb, attraction, a-b-db, 14, 3, 3, 3, 111, 181, 195, 120, 120, 195, 2, 0.486658
46, 3, wb, attraction, a-b-da, 5, 3, 3, 4, 195, 120, 190, 117, 120, 195, 1, 2.12901
46, 3, wb, attraction, a-b-da, 5, 3, 3, 4, 195, 120, 190, 117, 120, 195, 3, 0.54637
46, 3, wb, attraction, a-b-db, 5, 3, 3, 5, 195, 120, 117, 190, 120, 195, 3, 2.34614
46, 3, wb, attraction, a-b-db, 5, 3, 3, 5, 195, 120, 117, 190, 120, 195, 1, 1.13073
46, 3, wb, attraction, a-b-db, 2, 1, 3, 6, 135, 60, 60, 135, 59, 134, 1, 1.95501
46, 3, wb, attraction, a-b-db, 2, 1, 3, 6, 135, 60, 60, 135, 59, 134, 2, 0.747036
46, 3, wb, attraction, a-b-da, 9, 3, 3, 7, 120, 195, 195, 120, 186, 114, 3, 1.25078
46, 3, wb, attraction, a-b-da, 9, 3, 3, 7, 120, 195, 195, 120, 186, 114, 2, 1.19957
46, 3, wb, filler, NA, 999, 999, 3, 8, 138, 164, 106, 99, 130, 65, 3, 1.0291
46, 3, wb, filler, NA, 999, 999, 3, 8, 138, 164, 106, 99, 130, 65, 1, 0.53069
46, 3, wb, attraction, a-b-db, 5, 1, 3, 9, 135, 60, 58, 132, 60, 135, 1, 1.55525
46, 3, wb, attraction, a-b-db, 5, 1, 3, 9, 135, 60, 58, 132, 60, 135, 3, 0.619454
46, 3, wb, attraction, a-b-da, 14, 1, 3, 10, 135, 60, 60, 135, 125, 56, 3, 2.88848
46, 3, wb, attraction, a-b-da, 14, 1, 3, 10, 135, 60, 60, 135, 125, 56, 1, 1.37148
46, 3, wb, attraction, a-b-db, 9, 2, 3, 11, 86, 157, 90, 165, 165, 90, 3, 1.9064
46, 3, wb, attraction, a-b-db, 9, 2, 3, 11, 86, 157, 90, 165, 165, 90, 2, 0.460355
46, 3, wb, attraction, a-b-db, 2, 2, 3, 12, 165, 90, 89, 163, 90, 165, 1, 0.903458
46, 3, wb, attraction, a-b-db, 2, 2, 3, 12, 165, 90, 89, 163, 90, 165, 3, 0.490524
46, 3, wb, attraction, a-b-db, 9, 3, 3, 13, 120, 195, 114, 186, 195, 120, 2, 2.70836
46, 3, wb, attraction, a-b-db, 9, 3, 3, 13, 120, 195, 114, 186, 195, 120, 3, 0.526329
46, 3, wb, attraction, a-b-da, 9, 2, 3, 14, 157, 86, 165, 90, 90, 165, 1, 0.998614
46, 3, wb, attraction, a-b-da, 9, 2, 3, 14, 157, 86, 165, 90, 90, 165, 3, 0.693647
46, 3, wb, filler, NA, 999, 999, 3, 15, 182, 179, 162, 115, 165, 186, 2, 2.06334
46, 3, wb, filler, NA, 999, 999, 3, 15, 182, 179, 162, 115, 165, 186, 3, 0.531498
46, 3, wb, catch, NA, 999, 999, 3, 16, 86, 109, 152, 103, 166, 149, 1, 0.755844
46, 3, wb, catch, NA, 999, 999, 3, 16, 86, 109, 152, 103, 166, 149, 3, 0.772194
46, 3, wb, attraction, a-b-db, 5, 2, 3, 17, 165, 90, 90, 165, 88, 161, 2, 1.29914
46, 3, wb, attraction, a-b-db, 5, 2, 3, 17, 165, 90, 90, 165, 88, 161, 1, 0.646221
46, 3, wb, filler, NA, 999, 999, 3, 18, 183, 120, 118, 170, 161, 86, 3, 1.06583
46, 3, wb, filler, NA, 999, 999, 3, 18, 183, 120, 118, 170, 161, 86, 1, 0.558167
46, 3, wb, catch, NA, 999, 999, 3, 19, 193, 122, 123, 72, 146, 109, 2, 1.0453
46, 3, wb, catch, NA, 999, 999, 3, 19, 193, 122, 123, 72, 146, 109, 1, 0.410255
46, 3, wb, attraction, a-b-db, 14, 1, 3, 20, 60, 135, 135, 60, 56, 125, 2, 1.05536
46, 3, wb, attraction, a-b-db, 14, 1, 3, 20, 60, 135, 135, 60, 56, 125, 3, 1.90774
46, 3, wb, attraction, a-b-da, 5, 1, 3, 21, 132, 58, 60, 135, 135, 60, 1, 1.00438
46, 3, wb, attraction, a-b-da, 5, 1, 3, 21, 132, 58, 60, 135, 135, 60, 2, 0.571377
46, 3, wb, attraction, a-b-da, 2, 3, 3, 22, 195, 120, 120, 195, 193, 119, 3, 0.962571
46, 3, wb, attraction, a-b-da, 2, 3, 3, 22, 195, 120, 120, 195, 193, 119, 1, 1.10694
46, 3, wb, attraction, a-b-db, 14, 2, 3, 23, 90, 165, 83, 153, 165, 90, 2, 5.36365
46, 3, wb, attraction, a-b-db, 14, 2, 3, 23, 90, 165, 83, 153, 165, 90, 3, 0.770635
46, 3, wb, attraction, a-b-da, 9, 1, 3, 24, 60, 135, 135, 60, 129, 57, 3, 2.97777
46, 3, wb, attraction, a-b-da, 9, 1, 3, 24, 60, 135, 135, 60, 129, 57, 1, 1.27281
46, 3, wb, filler, NA, 999, 999, 3, 25, 171, 172, 156, 156, 133, 161, 3, 2.13166
46, 3, wb, filler, NA, 999, 999, 3, 25, 171, 172, 156, 156, 133, 161, 1, 0.652983
46, 3, wb, attraction, a-b-da, 5, 2, 3, 26, 161, 88, 90, 165, 165, 90, 3, 1.52073
46, 3, wb, attraction, a-b-da, 5, 2, 3, 26, 161, 88, 90, 165, 165, 90, 1, 0.594842
46, 3, wb, attraction, a-b-db, 9, 1, 3, 27, 135, 60, 60, 135, 57, 129, 3, 1.72862
46, 3, wb, attraction, a-b-db, 9, 1, 3, 27, 135, 60, 60, 135, 57, 129, 2, 1.14613
46, 3, wb, filler, NA, 999, 999, 3, 28, 178, 173, 113, 181, 109, 194, 3, 0.817573
46, 3, wb, filler, NA, 999, 999, 3, 28, 178, 173, 113, 181, 109, 194, 1, 0.448093
46, 3, wb, catch, NA, 999, 999, 3, 29, 105, 150, 134, 61, 123, 192, 2, 1.05972
46, 3, wb, catch, NA, 999, 999, 3, 29, 105, 150, 134, 61, 123, 192, 3, 0.408173
46, 3, wb, filler, NA, 999, 999, 3, 30, 137, 62, 97, 187, 155, 95, 1, 1.01324
46, 3, wb, filler, NA, 999, 999, 3, 30, 137, 62, 97, 187, 155, 95, 2, 0.603598
46, 3, wb, filler, NA, 999, 999, 3, 31, 146, 138, 134, 86, 84, 97, 3, 0.841422
46, 3, wb, filler, NA, 999, 999, 3, 31, 146, 138, 134, 86, 84, 97, 1, 0.910461
46, 3, wb, filler, NA, 999, 999, 3, 32, 78, 134, 91, 192, 177, 76, 1, 2.28752
46, 3, wb, filler, NA, 999, 999, 3, 32, 78, 134, 91, 192, 177, 76, 2, 0.794682
46, 3, wb, filler, NA, 999, 999, 3, 33, 175, 135, 76, 140, 138, 164, 2, 1.07223
46, 3, wb, filler, NA, 999, 999, 3, 33, 175, 135, 76, 140, 138, 164, 1, 0.771955
46, 3, wb, attraction, a-b-da, 14, 3, 3, 34, 120, 195, 195, 120, 181, 111, 3, 1.32298
46, 3, wb, attraction, a-b-da, 14, 3, 3, 34, 120, 195, 195, 120, 181, 111, 2, 0.692533
46, 3, wb, attraction, a-b-da, 2, 1, 3, 35, 134, 59, 60, 135, 135, 60, 2, 1.25429
46, 3, wb, attraction, a-b-da, 2, 1, 3, 35, 134, 59, 60, 135, 135, 60, 3, 0.667112
46, 3, wb, attraction, a-b-db, 2, 3, 3, 36, 120, 195, 119, 193, 195, 120, 3, 1.80631
46, 3, wb, attraction, a-b-db, 2, 3, 3, 36, 120, 195, 119, 193, 195, 120, 1, 0.588363
46, 3, wb, attraction, a-b-da, 2, 2, 3, 37, 163, 89, 165, 90, 90, 165, 1, 2.37076
46, 3, wb, attraction, a-b-da, 2, 2, 3, 37, 163, 89, 165, 90, 90, 165, 2, 0.778801
46, 3, wb, attraction, a-b-da, 14, 3, 4, 1, 195, 120, 181, 111, 120, 195, 2, 2.36098
46, 3, wb, attraction, a-b-da, 14, 3, 4, 1, 195, 120, 181, 111, 120, 195, 1, 0.464964
46, 3, wb, attraction, a-b-db, 9, 1, 4, 2, 60, 135, 135, 60, 57, 129, 3, 2.37207
46, 3, wb, attraction, a-b-db, 9, 1, 4, 2, 60, 135, 135, 60, 57, 129, 1, 1.22737
46, 3, wb, attraction, a-b-da, 2, 1, 4, 3, 60, 135, 134, 59, 135, 60, 3, 1.06344
46, 3, wb, attraction, a-b-da, 2, 1, 4, 3, 60, 135, 134, 59, 135, 60, 2, 1.02791
46, 3, wb, attraction, a-b-da, 5, 3, 4, 4, 190, 117, 195, 120, 120, 195, 1, 5.54412
46, 3, wb, attraction, a-b-da, 5, 3, 4, 4, 190, 117, 195, 120, 120, 195, 2, 0.423692
46, 3, wb, attraction, a-b-db, 2, 1, 4, 5, 60, 135, 59, 134, 135, 60, 1, 3.86017
46, 3, wb, attraction, a-b-db, 2, 1, 4, 5, 60, 135, 59, 134, 135, 60, 2, 0.863669
46, 3, wb, filler, NA, 999, 999, 4, 6, 76, 137, 120, 104, 58, 123, 3, 0.826594
46, 3, wb, filler, NA, 999, 999, 4, 6, 76, 137, 120, 104, 58, 123, 2, 0.504269
46, 3, wb, attraction, a-b-da, 5, 2, 4, 7, 165, 90, 90, 165, 161, 88, 3, 1.01009
46, 3, wb, attraction, a-b-da, 5, 2, 4, 7, 165, 90, 90, 165, 161, 88, 2, 0.504363
46, 3, wb, filler, NA, 999, 999, 4, 8, 183, 107, 180, 117, 69, 63, 3, 0.874162
46, 3, wb, filler, NA, 999, 999, 4, 8, 183, 107, 180, 117, 69, 63, 2, 0.517912
46, 3, wb, filler, NA, 999, 999, 4, 9, 78, 113, 67, 76, 122, 178, 1, 1.43117
46, 3, wb, filler, NA, 999, 999, 4, 9, 78, 113, 67, 76, 122, 178, 2, 1.2126
46, 3, wb, filler, NA, 999, 999, 4, 10, 124, 81, 134, 148, 85, 166, 1, 1.16133
46, 3, wb, filler, NA, 999, 999, 4, 10, 124, 81, 134, 148, 85, 166, 2, 0.785696
46, 3, wb, attraction, a-b-db, 2, 3, 4, 11, 119, 193, 195, 120, 120, 195, 3, 0.848201
46, 3, wb, attraction, a-b-db, 2, 3, 4, 11, 119, 193, 195, 120, 120, 195, 2, 0.693064
46, 3, wb, attraction, a-b-da, 9, 1, 4, 12, 135, 60, 129, 57, 60, 135, 3, 0.70283
46, 3, wb, attraction, a-b-da, 9, 1, 4, 12, 135, 60, 129, 57, 60, 135, 2, 0.842072
46, 3, wb, attraction, a-b-db, 5, 1, 4, 13, 58, 132, 135, 60, 60, 135, 3, 0.885576
46, 3, wb, attraction, a-b-db, 5, 1, 4, 13, 58, 132, 135, 60, 60, 135, 2, 1.11328
46, 3, wb, attraction, a-b-da, 9, 3, 4, 14, 120, 195, 186, 114, 195, 120, 1, 1.57827
46, 3, wb, attraction, a-b-da, 9, 3, 4, 14, 120, 195, 186, 114, 195, 120, 2, 2.06569
46, 3, wb, filler, NA, 999, 999, 4, 15, 139, 86, 169, 122, 173, 108, 1, 0.956314
46, 3, wb, filler, NA, 999, 999, 4, 15, 139, 86, 169, 122, 173, 108, 2, 0.428828
46, 3, wb, filler, NA, 999, 999, 4, 16, 168, 188, 123, 186, 111, 83, 3, 0.737127
46, 3, wb, filler, NA, 999, 999, 4, 16, 168, 188, 123, 186, 111, 83, 1, 0.843024
46, 3, wb, filler, NA, 999, 999, 4, 17, 140, 128, 141, 144, 117, 60, 3, 0.582508
46, 3, wb, filler, NA, 999, 999, 4, 17, 140, 128, 141, 144, 117, 60, 2, 0.590433
46, 3, wb, catch, NA, 999, 999, 4, 18, 163, 152, 61, 134, 158, 97, 2, 1.0921
46, 3, wb, catch, NA, 999, 999, 4, 18, 163, 152, 61, 134, 158, 97, 1, 0.607104
46, 3, wb, attraction, a-b-db, 5, 2, 4, 19, 88, 161, 165, 90, 90, 165, 2, 1.87614
46, 3, wb, attraction, a-b-db, 5, 2, 4, 19, 88, 161, 165, 90, 90, 165, 3, 0.679547
46, 3, wb, attraction, a-b-db, 5, 3, 4, 20, 117, 190, 195, 120, 120, 195, 3, 1.72198
46, 3, wb, attraction, a-b-db, 5, 3, 4, 20, 117, 190, 195, 120, 120, 195, 1, 1.16341
46, 3, wb, attraction, a-b-db, 14, 3, 4, 21, 111, 181, 120, 195, 195, 120, 1, 1.93026
46, 3, wb, attraction, a-b-db, 14, 3, 4, 21, 111, 181, 120, 195, 195, 120, 2, 0.643606
46, 3, wb, filler, NA, 999, 999, 4, 22, 164, 59, 103, 179, 184, 84, 1, 1.44728
46, 3, wb, filler, NA, 999, 999, 4, 22, 164, 59, 103, 179, 184, 84, 2, 0.716189
46, 3, wb, attraction, a-b-db, 14, 1, 4, 23, 60, 135, 56, 125, 135, 60, 2, 1.62136
46, 3, wb, attraction, a-b-db, 14, 1, 4, 23, 60, 135, 56, 125, 135, 60, 3, 0.66738
46, 3, wb, catch, NA, 999, 999, 4, 24, 153, 102, 99, 96, 132, 183, 2, 1.3825
46, 3, wb, catch, NA, 999, 999, 4, 24, 153, 102, 99, 96, 132, 183, 3, 0.502027
46, 3, wb, attraction, a-b-db, 9, 3, 4, 25, 114, 186, 120, 195, 195, 120, 1, 1.28783
46, 3, wb, attraction, a-b-db, 9, 3, 4, 25, 114, 186, 120, 195, 195, 120, 3, 1.09944
46, 3, wb, attraction, a-b-da, 2, 3, 4, 26, 193, 119, 195, 120, 120, 195, 3, 1.30104
46, 3, wb, attraction, a-b-da, 2, 3, 4, 26, 193, 119, 195, 120, 120, 195, 1, 1.352
46, 3, wb, attraction, a-b-db, 2, 2, 4, 27, 90, 165, 165, 90, 89, 163, 2, 1.98351
46, 3, wb, attraction, a-b-db, 2, 2, 4, 27, 90, 165, 165, 90, 89, 163, 1, 0.614766
46, 3, wb, catch, NA, 999, 999, 4, 28, 103, 92, 104, 151, 182, 133, 1, 0.891799
46, 3, wb, catch, NA, 999, 999, 4, 28, 103, 92, 104, 151, 182, 133, 3, 0.630888
46, 3, wb, attraction, a-b-da, 14, 2, 4, 29, 153, 83, 90, 165, 165, 90, 1, 6.56336
46, 3, wb, attraction, a-b-da, 14, 2, 4, 29, 153, 83, 90, 165, 165, 90, 2, 0.337845
46, 3, wb, attraction, a-b-da, 9, 2, 4, 30, 165, 90, 90, 165, 157, 86, 1, 0.818395
46, 3, wb, attraction, a-b-da, 9, 2, 4, 30, 165, 90, 90, 165, 157, 86, 2, 1.40089
46, 3, wb, attraction, a-b-da, 14, 1, 4, 31, 125, 56, 60, 135, 135, 60, 3, 1.01426
46, 3, wb, attraction, a-b-da, 14, 1, 4, 31, 125, 56, 60, 135, 135, 60, 2, 0.500572
46, 3, wb, attraction, a-b-da, 5, 1, 4, 32, 60, 135, 132, 58, 135, 60, 3, 1.3904
46, 3, wb, attraction, a-b-da, 5, 1, 4, 32, 60, 135, 132, 58, 135, 60, 2, 0.645373
46, 3, wb, attraction, a-b-da, 2, 2, 4, 33, 90, 165, 163, 89, 165, 90, 3, 1.17701
46, 3, wb, attraction, a-b-da, 2, 2, 4, 33, 90, 165, 163, 89, 165, 90, 2, 0.66467
46, 3, wb, filler, NA, 999, 999, 4, 34, 174, 176, 111, 165, 96, 185, 3, 1.32376
46, 3, wb, filler, NA, 999, 999, 4, 34, 174, 176, 111, 165, 96, 185, 1, 0.429272
46, 3, wb, filler, NA, 999, 999, 4, 35, 163, 110, 78, 168, 187, 60, 3, 0.833703
46, 3, wb, filler, NA, 999, 999, 4, 35, 163, 110, 78, 168, 187, 60, 1, 1.31143
46, 3, wb, attraction, a-b-db, 14, 2, 4, 36, 90, 165, 165, 90, 83, 153, 3, 1.02436
46, 3, wb, attraction, a-b-db, 14, 2, 4, 36, 90, 165, 165, 90, 83, 153, 2, 0.573957
46, 3, wb, attraction, a-b-db, 9, 2, 4, 37, 90, 165, 165, 90, 86, 157, 1, 1.01236
46, 3, wb, attraction, a-b-db, 9, 2, 4, 37, 90, 165, 165, 90, 86, 157, 2, 0.466695
46, 3, wb, attraction, a-b-db, 14, 1, 5, 1, 135, 60, 60, 135, 56, 125, 3, 12.5964
46, 3, wb, attraction, a-b-db, 14, 1, 5, 1, 135, 60, 60, 135, 56, 125, 1, 1.79175
46, 3, wb, attraction, a-b-da, 9, 2, 5, 2, 157, 86, 165, 90, 90, 165, 1, 0.9577
46, 3, wb, attraction, a-b-da, 9, 2, 5, 2, 157, 86, 165, 90, 90, 165, 3, 0.445554
46, 3, wb, attraction, a-b-da, 2, 2, 5, 3, 165, 90, 163, 89, 90, 165, 1, 0.665334
46, 3, wb, attraction, a-b-da, 2, 2, 5, 3, 165, 90, 163, 89, 90, 165, 2, 0.477844
46, 3, wb, filler, NA, 999, 999, 5, 4, 108, 175, 172, 133, 83, 95, 3, 0.65624
46, 3, wb, filler, NA, 999, 999, 5, 4, 108, 175, 172, 133, 83, 95, 2, 0.356617
46, 3, wb, attraction, a-b-da, 5, 1, 5, 5, 135, 60, 60, 135, 132, 58, 3, 1.01177
46, 3, wb, attraction, a-b-da, 5, 1, 5, 5, 135, 60, 60, 135, 132, 58, 2, 0.530131
46, 3, wb, filler, NA, 999, 999, 5, 6, 171, 182, 195, 195, 103, 62, 3, 0.674637
46, 3, wb, filler, NA, 999, 999, 5, 6, 171, 182, 195, 195, 103, 62, 2, 0.43033
46, 3, wb, attraction, a-b-db, 9, 1, 5, 7, 135, 60, 60, 135, 57, 129, 3, 1.60292
46, 3, wb, attraction, a-b-db, 9, 1, 5, 7, 135, 60, 60, 135, 57, 129, 1, 1.00159
46, 3, wb, attraction, a-b-da, 2, 1, 5, 8, 135, 60, 134, 59, 60, 135, 2, 1.87924
46, 3, wb, attraction, a-b-da, 2, 1, 5, 8, 135, 60, 134, 59, 60, 135, 3, 0.554663
46, 3, wb, filler, NA, 999, 999, 5, 9, 96, 154, 71, 107, 105, 69, 3, 1.89837
46, 3, wb, filler, NA, 999, 999, 5, 9, 96, 154, 71, 107, 105, 69, 1, 0.597056
46, 3, wb, attraction, a-b-da, 9, 3, 5, 10, 120, 195, 186, 114, 195, 120, 2, 2.39493
46, 3, wb, attraction, a-b-da, 9, 3, 5, 10, 120, 195, 186, 114, 195, 120, 1, 0.697555
46, 3, wb, attraction, a-b-da, 5, 2, 5, 11, 165, 90, 161, 88, 90, 165, 2, 2.82722
46, 3, wb, attraction, a-b-da, 5, 2, 5, 11, 165, 90, 161, 88, 90, 165, 3, 0.63236
46, 3, wb, attraction, a-b-da, 2, 3, 5, 12, 193, 119, 195, 120, 120, 195, 1, 2.80463
46, 3, wb, attraction, a-b-da, 2, 3, 5, 12, 193, 119, 195, 120, 120, 195, 3, 0.371135
46, 3, wb, attraction, a-b-db, 2, 3, 5, 13, 120, 195, 195, 120, 119, 193, 1, 2.01017
46, 3, wb, attraction, a-b-db, 2, 3, 5, 13, 120, 195, 195, 120, 119, 193, 2, 0.672278
46, 3, wb, attraction, a-b-da, 14, 1, 5, 14, 125, 56, 60, 135, 135, 60, 2, 1.90734
46, 3, wb, attraction, a-b-da, 14, 1, 5, 14, 125, 56, 60, 135, 135, 60, 3, 0.669463
46, 3, wb, attraction, a-b-db, 9, 2, 5, 15, 165, 90, 86, 157, 90, 165, 2, 2.28046
46, 3, wb, attraction, a-b-db, 9, 2, 5, 15, 165, 90, 86, 157, 90, 165, 1, 0.491757
46, 3, wb, attraction, a-b-da, 9, 1, 5, 16, 60, 135, 135, 60, 129, 57, 2, 3.04561
46, 3, wb, attraction, a-b-da, 9, 1, 5, 16, 60, 135, 135, 60, 129, 57, 1, 0.761858
46, 3, wb, filler, NA, 999, 999, 5, 17, 136, 147, 169, 88, 127, 92, 3, 2.20899
46, 3, wb, filler, NA, 999, 999, 5, 17, 136, 147, 169, 88, 127, 92, 1, 0.670756
46, 3, wb, filler, NA, 999, 999, 5, 18, 132, 140, 172, 103, 176, 133, 1, 2.71387
46, 3, wb, filler, NA, 999, 999, 5, 18, 132, 140, 172, 103, 176, 133, 3, 0.587642
46, 3, wb, attraction, a-b-da, 14, 3, 5, 19, 181, 111, 195, 120, 120, 195, 1, 2.42611
46, 3, wb, attraction, a-b-da, 14, 3, 5, 19, 181, 111, 195, 120, 120, 195, 2, 1.11131
46, 3, wb, filler, NA, 999, 999, 5, 20, 69, 116, 184, 122, 173, 69, 1, 0.880195
46, 3, wb, filler, NA, 999, 999, 5, 20, 69, 116, 184, 122, 173, 69, 2, 0.852034
46, 3, wb, filler, NA, 999, 999, 5, 21, 117, 136, 87, 58, 128, 155, 2, 0.815632
46, 3, wb, filler, NA, 999, 999, 5, 21, 117, 136, 87, 58, 128, 155, 3, 0.38206
46, 3, wb, attraction, a-b-db, 2, 1, 5, 22, 59, 134, 60, 135, 135, 60, 2, 1.73259
46, 3, wb, attraction, a-b-db, 2, 1, 5, 22, 59, 134, 60, 135, 135, 60, 3, 0.557947
46, 3, wb, attraction, a-b-db, 9, 3, 5, 23, 195, 120, 114, 186, 120, 195, 2, 1.637
46, 3, wb, attraction, a-b-db, 9, 3, 5, 23, 195, 120, 114, 186, 120, 195, 3, 0.570536
46, 3, wb, attraction, a-b-da, 5, 3, 5, 24, 190, 117, 195, 120, 120, 195, 1, 1.1777
46, 3, wb, attraction, a-b-da, 5, 3, 5, 24, 190, 117, 195, 120, 120, 195, 3, 0.44138
46, 3, wb, catch, NA, 999, 999, 5, 25, 172, 143, 69, 126, 162, 93, 2, 0.724949
46, 3, wb, catch, NA, 999, 999, 5, 25, 172, 143, 69, 126, 162, 93, 1, 0.718799
46, 3, wb, filler, NA, 999, 999, 5, 26, 122, 195, 137, 114, 162, 118, 2, 1.24783
46, 3, wb, filler, NA, 999, 999, 5, 26, 122, 195, 137, 114, 162, 118, 1, 0.516695
46, 3, wb, filler, NA, 999, 999, 5, 27, 183, 187, 145, 88, 83, 83, 3, 0.797758
46, 3, wb, filler, NA, 999, 999, 5, 27, 183, 187, 145, 88, 83, 83, 1, 0.389072
46, 3, wb, filler, NA, 999, 999, 5, 28, 67, 75, 138, 161, 58, 117, 1, 0.947358
46, 3, wb, filler, NA, 999, 999, 5, 28, 67, 75, 138, 161, 58, 117, 2, 0.292398
46, 3, wb, attraction, a-b-db, 14, 3, 5, 29, 195, 120, 120, 195, 111, 181, 3, 2.36626
46, 3, wb, attraction, a-b-db, 14, 3, 5, 29, 195, 120, 120, 195, 111, 181, 1, 0.72629
46, 3, wb, attraction, a-b-db, 5, 3, 5, 30, 120, 195, 195, 120, 117, 190, 2, 1.4385
46, 3, wb, attraction, a-b-db, 5, 3, 5, 30, 120, 195, 195, 120, 117, 190, 3, 0.403408
46, 3, wb, attraction, a-b-db, 2, 2, 5, 31, 90, 165, 89, 163, 165, 90, 2, 1.64139
46, 3, wb, attraction, a-b-db, 2, 2, 5, 31, 90, 165, 89, 163, 165, 90, 3, 0.59001
46, 3, wb, attraction, a-b-da, 14, 2, 5, 32, 90, 165, 165, 90, 153, 83, 3, 4.65968
46, 3, wb, attraction, a-b-da, 14, 2, 5, 32, 90, 165, 165, 90, 153, 83, 2, 1.38303
46, 3, wb, attraction, a-b-db, 5, 1, 5, 33, 58, 132, 60, 135, 135, 60, 2, 1.23709
46, 3, wb, attraction, a-b-db, 5, 1, 5, 33, 58, 132, 60, 135, 135, 60, 3, 0.906671
46, 3, wb, catch, NA, 999, 999, 5, 34, 189, 126, 114, 81, 104, 151, 2, 1.17232
46, 3, wb, catch, NA, 999, 999, 5, 34, 189, 126, 114, 81, 104, 151, 1, 0.428017
46, 3, wb, attraction, a-b-db, 14, 2, 5, 35, 83, 153, 165, 90, 90, 165, 1, 2.0484
46, 3, wb, attraction, a-b-db, 14, 2, 5, 35, 83, 153, 165, 90, 90, 165, 3, 0.837214
46, 3, wb, catch, NA, 999, 999, 5, 36, 192, 123, 150, 105, 91, 104, 3, 1.88944
46, 3, wb, catch, NA, 999, 999, 5, 36, 192, 123, 150, 105, 91, 104, 1, 0.62816
46, 3, wb, attraction, a-b-db, 5, 2, 5, 37, 90, 165, 165, 90, 88, 161, 2, 0.904511
46, 3, wb, attraction, a-b-db, 5, 2, 5, 37, 90, 165, 165, 90, 88, 161, 3, 0.834926
46, 3, wb, filler, NA, 999, 999, 6, 1, 149, 169, 107, 70, 59, 115, 2, 1.61539
46, 3, wb, filler, NA, 999, 999, 6, 1, 149, 169, 107, 70, 59, 115, 1, 0.469489
46, 3, wb, attraction, a-b-da, 5, 1, 6, 2, 135, 60, 132, 58, 60, 135, 2, 1.02459
46, 3, wb, attraction, a-b-da, 5, 1, 6, 2, 135, 60, 132, 58, 60, 135, 1, 2.03836
46, 3, wb, filler, NA, 999, 999, 6, 3, 111, 113, 76, 115, 78, 87, 3, 0.834177
46, 3, wb, filler, NA, 999, 999, 6, 3, 111, 113, 76, 115, 78, 87, 1, 0.415918
46, 3, wb, filler, NA, 999, 999, 6, 4, 182, 161, 102, 122, 84, 160, 3, 0.852961
46, 3, wb, filler, NA, 999, 999, 6, 4, 182, 161, 102, 122, 84, 160, 1, 0.562092
46, 3, wb, attraction, a-b-da, 5, 2, 6, 5, 165, 90, 90, 165, 161, 88, 3, 1.6653
46, 3, wb, attraction, a-b-da, 5, 2, 6, 5, 165, 90, 90, 165, 161, 88, 2, 1.85343
46, 3, wb, attraction, a-b-da, 2, 1, 6, 6, 135, 60, 60, 135, 134, 59, 2, 1.69661
46, 3, wb, attraction, a-b-da, 2, 1, 6, 6, 135, 60, 60, 135, 134, 59, 3, 1.70752
46, 3, wb, attraction, a-b-db, 14, 1, 6, 7, 56, 125, 60, 135, 135, 60, 3, 3.78011
46, 3, wb, attraction, a-b-db, 14, 1, 6, 7, 56, 125, 60, 135, 135, 60, 2, 0.538976
46, 3, wb, filler, NA, 999, 999, 6, 8, 138, 57, 129, 110, 178, 131, 1, 2.28335
46, 3, wb, filler, NA, 999, 999, 6, 8, 138, 57, 129, 110, 178, 131, 3, 0.518717
46, 3, wb, catch, NA, 999, 999, 6, 9, 88, 107, 162, 93, 153, 162, 1, 0.655764
46, 3, wb, catch, NA, 999, 999, 6, 9, 88, 107, 162, 93, 153, 162, 3, 0.37215
46, 3, wb, filler, NA, 999, 999, 6, 10, 68, 131, 185, 98, 162, 130, 1, 1.0193
46, 3, wb, filler, NA, 999, 999, 6, 10, 68, 131, 185, 98, 162, 130, 3, 0.413289
46, 3, wb, attraction, a-b-da, 9, 2, 6, 11, 90, 165, 165, 90, 157, 86, 3, 1.20683
46, 3, wb, attraction, a-b-da, 9, 2, 6, 11, 90, 165, 165, 90, 157, 86, 2, 0.741103
46, 3, wb, attraction, a-b-da, 14, 3, 6, 12, 195, 120, 181, 111, 120, 195, 2, 3.32482
46, 3, wb, attraction, a-b-da, 14, 3, 6, 12, 195, 120, 181, 111, 120, 195, 1, 0.821761
46, 3, wb, attraction, a-b-da, 14, 2, 6, 13, 165, 90, 153, 83, 90, 165, 3, 1.55468
46, 3, wb, attraction, a-b-da, 14, 2, 6, 13, 165, 90, 153, 83, 90, 165, 2, 0.531545
46, 3, wb, attraction, a-b-db, 9, 3, 6, 14, 120, 195, 114, 186, 195, 120, 2, 1.34796
46, 3, wb, attraction, a-b-db, 9, 3, 6, 14, 120, 195, 114, 186, 195, 120, 3, 0.396934
46, 3, wb, attraction, a-b-da, 5, 3, 6, 15, 120, 195, 190, 117, 195, 120, 3, 2.50674
46, 3, wb, attraction, a-b-da, 5, 3, 6, 15, 120, 195, 190, 117, 195, 120, 1, 0.596513
46, 3, wb, attraction, a-b-db, 5, 1, 6, 16, 60, 135, 58, 132, 135, 60, 2, 1.41833
46, 3, wb, attraction, a-b-db, 5, 1, 6, 16, 60, 135, 58, 132, 135, 60, 3, 0.776719
46, 3, wb, attraction, a-b-da, 14, 1, 6, 17, 135, 60, 125, 56, 60, 135, 3, 4.62469
46, 3, wb, attraction, a-b-da, 14, 1, 6, 17, 135, 60, 125, 56, 60, 135, 1, 0.603501
46, 3, wb, attraction, a-b-db, 2, 2, 6, 18, 165, 90, 90, 165, 89, 163, 2, 2.43322
46, 3, wb, attraction, a-b-db, 2, 2, 6, 18, 165, 90, 90, 165, 89, 163, 1, 0.582328
46, 3, wb, attraction, a-b-db, 14, 2, 6, 19, 165, 90, 90, 165, 83, 153, 3, 1.73293
46, 3, wb, attraction, a-b-db, 14, 2, 6, 19, 165, 90, 90, 165, 83, 153, 2, 1.00624
46, 3, wb, attraction, a-b-db, 14, 3, 6, 20, 120, 195, 111, 181, 195, 120, 2, 20.1959
46, 3, wb, attraction, a-b-db, 14, 3, 6, 20, 120, 195, 111, 181, 195, 120, 3, 0.524851
46, 3, wb, catch, NA, 999, 999, 6, 21, 94, 161, 172, 143, 109, 86, 3, 0.901394
46, 3, wb, catch, NA, 999, 999, 6, 21, 94, 161, 172, 143, 109, 86, 2, 0.400345
46, 3, wb, filler, NA, 999, 999, 6, 22, 192, 58, 157, 61, 147, 61, 3, 1.19019
46, 3, wb, filler, NA, 999, 999, 6, 22, 192, 58, 157, 61, 147, 61, 1, 0.693063
46, 3, wb, attraction, a-b-da, 9, 1, 6, 23, 60, 135, 135, 60, 129, 57, 1, 1.27887
46, 3, wb, attraction, a-b-da, 9, 1, 6, 23, 60, 135, 135, 60, 129, 57, 2, 1.35442
46, 3, wb, attraction, a-b-db, 2, 3, 6, 24, 119, 193, 195, 120, 120, 195, 1, 1.47387
46, 3, wb, attraction, a-b-db, 2, 3, 6, 24, 119, 193, 195, 120, 120, 195, 3, 0.62944
46, 3, wb, attraction, a-b-db, 5, 2, 6, 25, 165, 90, 88, 161, 90, 165, 3, 1.72975
46, 3, wb, attraction, a-b-db, 5, 2, 6, 25, 165, 90, 88, 161, 90, 165, 2, 0.819272
46, 3, wb, filler, NA, 999, 999, 6, 26, 194, 158, 110, 102, 120, 153, 2, 0.920252
46, 3, wb, filler, NA, 999, 999, 6, 26, 194, 158, 110, 102, 120, 153, 1, 0.386662
46, 3, wb, attraction, a-b-db, 9, 2, 6, 27, 90, 165, 86, 157, 165, 90, 1, 1.34514
46, 3, wb, attraction, a-b-db, 9, 2, 6, 27, 90, 165, 86, 157, 165, 90, 2, 1.43413
46, 3, wb, attraction, a-b-db, 9, 1, 6, 28, 135, 60, 57, 129, 60, 135, 3, 0.902122
46, 3, wb, attraction, a-b-db, 9, 1, 6, 28, 135, 60, 57, 129, 60, 135, 1, 0.441149
46, 3, wb, attraction, a-b-da, 9, 3, 6, 29, 120, 195, 195, 120, 186, 114, 3, 1.05293
46, 3, wb, attraction, a-b-da, 9, 3, 6, 29, 120, 195, 195, 120, 186, 114, 1, 0.434121
46, 3, wb, filler, NA, 999, 999, 6, 30, 184, 99, 160, 133, 184, 69, 3, 0.830382
46, 3, wb, filler, NA, 999, 999, 6, 30, 184, 99, 160, 133, 184, 69, 2, 0.476097
46, 3, wb, attraction, a-b-db, 5, 3, 6, 31, 117, 190, 195, 120, 120, 195, 1, 1.68671
46, 3, wb, attraction, a-b-db, 5, 3, 6, 31, 117, 190, 195, 120, 120, 195, 3, 0.410109
46, 3, wb, attraction, a-b-da, 2, 3, 6, 32, 120, 195, 195, 120, 193, 119, 3, 0.999183
46, 3, wb, attraction, a-b-da, 2, 3, 6, 32, 120, 195, 195, 120, 193, 119, 2, 0.502352
46, 3, wb, filler, NA, 999, 999, 6, 33, 62, 180, 166, 132, 148, 97, 1, 1.33594
46, 3, wb, filler, NA, 999, 999, 6, 33, 62, 180, 166, 132, 148, 97, 2, 0.577559
46, 3, wb, attraction, a-b-db, 2, 1, 6, 34, 135, 60, 60, 135, 59, 134, 3, 1.01598
46, 3, wb, attraction, a-b-db, 2, 1, 6, 34, 135, 60, 60, 135, 59, 134, 1, 0.598253
46, 3, wb, attraction, a-b-da, 2, 2, 6, 35, 165, 90, 90, 165, 163, 89, 3, 1.72407
46, 3, wb, attraction, a-b-da, 2, 2, 6, 35, 165, 90, 90, 165, 163, 89, 1, 0.74165
46, 3, wb, filler, NA, 999, 999, 6, 36, 169, 94, 122, 73, 106, 72, 3, 0.789175
46, 3, wb, filler, NA, 999, 999, 6, 36, 169, 94, 122, 73, 106, 72, 1, 0.724271
46, 3, wb, catch, NA, 999, 999, 6, 37, 142, 173, 101, 94, 98, 157, 2, 0.732551
46, 3, wb, catch, NA, 999, 999, 6, 37, 142, 173, 101, 94, 98, 157, 1, 0.814314
46, 3, wb, attraction, a-b-da, 14, 3, 7, 1, 195, 120, 181, 111, 120, 195, 2, 2.41151
46, 3, wb, attraction, a-b-da, 14, 3, 7, 1, 195, 120, 181, 111, 120, 195, 3, 0.48123
46, 3, wb, catch, NA, 999, 999, 7, 2, 153, 162, 79, 116, 99, 156, 2, 1.29974
46, 3, wb, catch, NA, 999, 999, 7, 2, 153, 162, 79, 116, 99, 156, 1, 1.15875
46, 3, wb, attraction, a-b-db, 5, 3, 7, 3, 120, 195, 117, 190, 195, 120, 3, 1.74158
46, 3, wb, attraction, a-b-db, 5, 3, 7, 3, 120, 195, 117, 190, 195, 120, 2, 0.566374
46, 3, wb, filler, NA, 999, 999, 7, 4, 173, 103, 121, 76, 138, 167, 2, 0.901543
46, 3, wb, filler, NA, 999, 999, 7, 4, 173, 103, 121, 76, 138, 167, 3, 0.74484
46, 3, wb, filler, NA, 999, 999, 7, 5, 194, 95, 73, 79, 123, 194, 2, 0.704149
46, 3, wb, filler, NA, 999, 999, 7, 5, 194, 95, 73, 79, 123, 194, 3, 0.562578
46, 3, wb, attraction, a-b-db, 5, 1, 7, 6, 135, 60, 58, 132, 60, 135, 1, 0.905722
46, 3, wb, attraction, a-b-db, 5, 1, 7, 6, 135, 60, 58, 132, 60, 135, 3, 0.540063
46, 3, wb, attraction, a-b-db, 14, 3, 7, 7, 111, 181, 195, 120, 120, 195, 3, 1.14778
46, 3, wb, attraction, a-b-db, 14, 3, 7, 7, 111, 181, 195, 120, 120, 195, 2, 0.484695
46, 3, wb, attraction, a-b-db, 2, 2, 7, 8, 165, 90, 90, 165, 89, 163, 1, 0.959218
46, 3, wb, attraction, a-b-db, 2, 2, 7, 8, 165, 90, 90, 165, 89, 163, 2, 0.471452
46, 3, wb, attraction, a-b-da, 14, 2, 7, 9, 153, 83, 165, 90, 90, 165, 1, 0.802723
46, 3, wb, attraction, a-b-da, 14, 2, 7, 9, 153, 83, 165, 90, 90, 165, 3, 0.529658
46, 3, wb, attraction, a-b-db, 9, 1, 7, 10, 57, 129, 135, 60, 60, 135, 2, 0.810163
46, 3, wb, attraction, a-b-db, 9, 1, 7, 10, 57, 129, 135, 60, 60, 135, 1, 0.600715
46, 3, wb, attraction, a-b-db, 9, 3, 7, 11, 114, 186, 195, 120, 120, 195, 2, 1.63041
46, 3, wb, attraction, a-b-db, 9, 3, 7, 11, 114, 186, 195, 120, 120, 195, 3, 0.595779
46, 3, wb, attraction, a-b-da, 5, 1, 7, 12, 60, 135, 132, 58, 135, 60, 2, 1.12161
46, 3, wb, attraction, a-b-da, 5, 1, 7, 12, 60, 135, 132, 58, 135, 60, 1, 0.459802
46, 3, wb, attraction, a-b-db, 9, 2, 7, 13, 90, 165, 165, 90, 86, 157, 3, 0.630885
46, 3, wb, attraction, a-b-db, 9, 2, 7, 13, 90, 165, 165, 90, 86, 157, 1, 0.540813
46, 3, wb, attraction, a-b-da, 5, 2, 7, 14, 165, 90, 90, 165, 161, 88, 3, 1.18057
46, 3, wb, attraction, a-b-da, 5, 2, 7, 14, 165, 90, 90, 165, 161, 88, 2, 0.468032
46, 3, wb, attraction, a-b-da, 14, 1, 7, 15, 135, 60, 60, 135, 125, 56, 3, 0.8233
46, 3, wb, attraction, a-b-da, 14, 1, 7, 15, 135, 60, 60, 135, 125, 56, 2, 0.66897
46, 3, wb, filler, NA, 999, 999, 7, 16, 124, 195, 114, 176, 103, 116, 3, 0.631993
46, 3, wb, filler, NA, 999, 999, 7, 16, 124, 195, 114, 176, 103, 116, 1, 0.461746
46, 3, wb, attraction, a-b-db, 2, 1, 7, 17, 60, 135, 135, 60, 59, 134, 2, 0.761026
46, 3, wb, attraction, a-b-db, 2, 1, 7, 17, 60, 135, 135, 60, 59, 134, 3, 0.649404
46, 3, wb, attraction, a-b-db, 5, 2, 7, 18, 90, 165, 88, 161, 165, 90, 3, 2.17312
46, 3, wb, attraction, a-b-db, 5, 2, 7, 18, 90, 165, 88, 161, 165, 90, 1, 0.460356
46, 3, wb, attraction, a-b-da, 9, 1, 7, 19, 60, 135, 135, 60, 129, 57, 3, 0.783452
46, 3, wb, attraction, a-b-da, 9, 1, 7, 19, 60, 135, 135, 60, 129, 57, 2, 0.647146
46, 3, wb, filler, NA, 999, 999, 7, 20, 119, 122, 130, 90, 164, 61, 3, 0.922883
46, 3, wb, filler, NA, 999, 999, 7, 20, 119, 122, 130, 90, 164, 61, 1, 0.556666
46, 3, wb, filler, NA, 999, 999, 7, 21, 127, 189, 78, 111, 151, 153, 2, 0.955723
46, 3, wb, filler, NA, 999, 999, 7, 21, 127, 189, 78, 111, 151, 153, 3, 0.42804
46, 3, wb, attraction, a-b-da, 9, 2, 7, 22, 157, 86, 165, 90, 90, 165, 1, 0.792484
46, 3, wb, attraction, a-b-da, 9, 2, 7, 22, 157, 86, 165, 90, 90, 165, 3, 0.575616
46, 3, wb, filler, NA, 999, 999, 7, 23, 117, 65, 154, 106, 115, 117, 1, 0.846028
46, 3, wb, filler, NA, 999, 999, 7, 23, 117, 65, 154, 106, 115, 117, 2, 0.443185
46, 3, wb, attraction, a-b-da, 2, 1, 7, 24, 135, 60, 60, 135, 134, 59, 2, 1.00681
46, 3, wb, attraction, a-b-da, 2, 1, 7, 24, 135, 60, 60, 135, 134, 59, 3, 0.517254
46, 3, wb, attraction, a-b-da, 5, 3, 7, 25, 190, 117, 120, 195, 195, 120, 1, 1.63031
46, 3, wb, attraction, a-b-da, 5, 3, 7, 25, 190, 117, 120, 195, 195, 120, 2, 0.355922
46, 3, wb, attraction, a-b-db, 2, 3, 7, 26, 119, 193, 120, 195, 195, 120, 1, 1.82772
46, 3, wb, attraction, a-b-db, 2, 3, 7, 26, 119, 193, 120, 195, 195, 120, 2, 0.521062
46, 3, wb, attraction, a-b-da, 2, 3, 7, 27, 193, 119, 120, 195, 195, 120, 3, 1.03414
46, 3, wb, attraction, a-b-da, 2, 3, 7, 27, 193, 119, 120, 195, 195, 120, 1, 0.911773
46, 3, wb, attraction, a-b-db, 14, 1, 7, 28, 60, 135, 135, 60, 56, 125, 3, 1.02487
46, 3, wb, attraction, a-b-db, 14, 1, 7, 28, 60, 135, 135, 60, 56, 125, 2, 0.470447
46, 3, wb, attraction, a-b-da, 9, 3, 7, 29, 120, 195, 186, 114, 195, 120, 3, 4.32958
46, 3, wb, attraction, a-b-da, 9, 3, 7, 29, 120, 195, 186, 114, 195, 120, 2, 0.538189
46, 3, wb, filler, NA, 999, 999, 7, 30, 57, 192, 183, 192, 96, 76, 3, 0.6106
46, 3, wb, filler, NA, 999, 999, 7, 30, 57, 192, 183, 192, 96, 76, 2, 0.296969
46, 3, wb, filler, NA, 999, 999, 7, 31, 115, 81, 76, 117, 123, 112, 2, 1.11492
46, 3, wb, filler, NA, 999, 999, 7, 31, 115, 81, 76, 117, 123, 112, 3, 0.349167
46, 3, wb, catch, NA, 999, 999, 7, 32, 155, 100, 139, 176, 91, 104, 3, 0.629034
46, 3, wb, catch, NA, 999, 999, 7, 32, 155, 100, 139, 176, 91, 104, 2, 0.386855
46, 3, wb, filler, NA, 999, 999, 7, 33, 89, 137, 91, 102, 173, 69, 2, 1.48921
46, 3, wb, filler, NA, 999, 999, 7, 33, 89, 137, 91, 102, 173, 69, 3, 1.55615
46, 3, wb, filler, NA, 999, 999, 7, 34, 77, 192, 164, 72, 87, 119, 2, 1.74757
46, 3, wb, filler, NA, 999, 999, 7, 34, 77, 192, 164, 72, 87, 119, 1, 0.716343
46, 3, wb, attraction, a-b-da, 2, 2, 7, 35, 163, 89, 165, 90, 90, 165, 2, 1.62932
46, 3, wb, attraction, a-b-da, 2, 2, 7, 35, 163, 89, 165, 90, 90, 165, 3, 0.434947
46, 3, wb, catch, NA, 999, 999, 7, 36, 109, 146, 75, 120, 177, 138, 2, 0.687304
46, 3, wb, catch, NA, 999, 999, 7, 36, 109, 146, 75, 120, 177, 138, 3, 0.403094
46, 3, wb, attraction, a-b-db, 14, 2, 7, 37, 83, 153, 90, 165, 165, 90, 1, 1.54491
46, 3, wb, attraction, a-b-db, 14, 2, 7, 37, 83, 153, 90, 165, 165, 90, 3, 0.481746
46, 3, wb, filler, NA, 999, 999, 8, 1, 98, 64, 81, 84, 94, 118, 2, 1.03615
46, 3, wb, filler, NA, 999, 999, 8, 1, 98, 64, 81, 84, 94, 118, 3, 0.489844
46, 3, wb, attraction, a-b-db, 9, 2, 8, 2, 86, 157, 90, 165, 165, 90, 1, 1.80433
46, 3, wb, attraction, a-b-db, 9, 2, 8, 2, 86, 157, 90, 165, 165, 90, 3, 0.611003
46, 3, wb, attraction, a-b-db, 2, 1, 8, 3, 60, 135, 59, 134, 135, 60, 2, 0.768074
46, 3, wb, attraction, a-b-db, 2, 1, 8, 3, 60, 135, 59, 134, 135, 60, 1, 0.712586
46, 3, wb, attraction, a-b-da, 9, 3, 8, 4, 195, 120, 120, 195, 186, 114, 3, 2.0096
46, 3, wb, attraction, a-b-da, 9, 3, 8, 4, 195, 120, 120, 195, 186, 114, 2, 0.407521
46, 3, wb, attraction, a-b-db, 2, 3, 8, 5, 119, 193, 120, 195, 195, 120, 1, 2.18067
46, 3, wb, attraction, a-b-db, 2, 3, 8, 5, 119, 193, 120, 195, 195, 120, 2, 0.355965
46, 3, wb, catch, NA, 999, 999, 8, 6, 162, 153, 96, 99, 147, 108, 2, 0.71596
46, 3, wb, catch, NA, 999, 999, 8, 6, 162, 153, 96, 99, 147, 108, 1, 0.654301
46, 3, wb, attraction, a-b-da, 14, 3, 8, 7, 195, 120, 181, 111, 120, 195, 2, 1.69011
46, 3, wb, attraction, a-b-da, 14, 3, 8, 7, 195, 120, 181, 111, 120, 195, 1, 0.428815
46, 3, wb, filler, NA, 999, 999, 8, 8, 120, 80, 125, 132, 129, 128, 1, 0.953255
46, 3, wb, filler, NA, 999, 999, 8, 8, 120, 80, 125, 132, 129, 128, 2, 0.586332
46, 3, wb, attraction, a-b-da, 2, 3, 8, 9, 120, 195, 193, 119, 195, 120, 3, 1.63274
46, 3, wb, attraction, a-b-da, 2, 3, 8, 9, 120, 195, 193, 119, 195, 120, 2, 0.670255
46, 3, wb, attraction, a-b-da, 5, 2, 8, 10, 161, 88, 90, 165, 165, 90, 2, 3.28124
46, 3, wb, attraction, a-b-da, 5, 2, 8, 10, 161, 88, 90, 165, 165, 90, 3, 0.380252
46, 3, wb, filler, NA, 999, 999, 8, 11, 128, 161, 190, 188, 131, 144, 1, 0.994703
46, 3, wb, filler, NA, 999, 999, 8, 11, 128, 161, 190, 188, 131, 144, 2, 0.297617
46, 3, wb, attraction, a-b-db, 9, 1, 8, 12, 135, 60, 57, 129, 60, 135, 2, 2.04359
46, 3, wb, attraction, a-b-db, 9, 1, 8, 12, 135, 60, 57, 129, 60, 135, 1, 0.560194
46, 3, wb, attraction, a-b-db, 14, 3, 8, 13, 111, 181, 195, 120, 120, 195, 1, 0.83933
46, 3, wb, attraction, a-b-db, 14, 3, 8, 13, 111, 181, 195, 120, 120, 195, 3, 0.748325
46, 3, wb, attraction, a-b-da, 9, 1, 8, 14, 60, 135, 129, 57, 135, 60, 1, 1.10005
46, 3, wb, attraction, a-b-da, 9, 1, 8, 14, 60, 135, 129, 57, 135, 60, 3, 0.935036
46, 3, wb, attraction, a-b-da, 5, 1, 8, 15, 60, 135, 135, 60, 132, 58, 3, 3.68732
46, 3, wb, attraction, a-b-da, 5, 1, 8, 15, 60, 135, 135, 60, 132, 58, 2, 0.506054
46, 3, wb, filler, NA, 999, 999, 8, 16, 118, 73, 127, 73, 78, 107, 3, 0.947963
46, 3, wb, filler, NA, 999, 999, 8, 16, 118, 73, 127, 73, 78, 107, 2, 0.668895
46, 3, wb, attraction, a-b-db, 5, 1, 8, 17, 60, 135, 58, 132, 135, 60, 1, 1.08003
46, 3, wb, attraction, a-b-db, 5, 1, 8, 17, 60, 135, 58, 132, 135, 60, 3, 0.635649
46, 3, wb, filler, NA, 999, 999, 8, 18, 85, 64, 158, 138, 167, 97, 1, 0.63202
46, 3, wb, filler, NA, 999, 999, 8, 18, 85, 64, 158, 138, 167, 97, 2, 0.381876
46, 3, wb, attraction, a-b-da, 5, 3, 8, 19, 190, 117, 120, 195, 195, 120, 1, 1.36433
46, 3, wb, attraction, a-b-da, 5, 3, 8, 19, 190, 117, 120, 195, 195, 120, 2, 0.444685
46, 3, wb, catch, NA, 999, 999, 8, 20, 189, 126, 117, 138, 80, 115, 3, 0.93633
46, 3, wb, catch, NA, 999, 999, 8, 20, 189, 126, 117, 138, 80, 115, 2, 0.505942
46, 3, wb, attraction, a-b-da, 2, 2, 8, 21, 163, 89, 90, 165, 165, 90, 3, 3.04387
46, 3, wb, attraction, a-b-da, 2, 2, 8, 21, 163, 89, 90, 165, 165, 90, 1, 1.63221
46, 3, wb, catch, NA, 999, 999, 8, 22, 165, 150, 136, 119, 75, 120, 3, 1.02032
46, 3, wb, catch, NA, 999, 999, 8, 22, 165, 150, 136, 119, 75, 120, 1, 0.394638
46, 3, wb, attraction, a-b-da, 14, 1, 8, 23, 135, 60, 60, 135, 125, 56, 3, 0.792429
46, 3, wb, attraction, a-b-da, 14, 1, 8, 23, 135, 60, 60, 135, 125, 56, 2, 0.543571
46, 3, wb, attraction, a-b-db, 14, 1, 8, 24, 135, 60, 60, 135, 56, 125, 3, 1.47123
46, 3, wb, attraction, a-b-db, 14, 1, 8, 24, 135, 60, 60, 135, 56, 125, 2, 0.56344
46, 3, wb, attraction, a-b-da, 2, 1, 8, 25, 135, 60, 60, 135, 134, 59, 3, 0.666663
46, 3, wb, attraction, a-b-da, 2, 1, 8, 25, 135, 60, 60, 135, 134, 59, 1, 0.623005
46, 3, wb, filler, NA, 999, 999, 8, 26, 62, 74, 150, 160, 84, 162, 1, 1.11593
46, 3, wb, filler, NA, 999, 999, 8, 26, 62, 74, 150, 160, 84, 162, 2, 0.478257
46, 3, wb, attraction, a-b-da, 9, 2, 8, 27, 157, 86, 165, 90, 90, 165, 1, 0.67275
46, 3, wb, attraction, a-b-da, 9, 2, 8, 27, 157, 86, 165, 90, 90, 165, 3, 0.372669
46, 3, wb, attraction, a-b-db, 9, 3, 8, 28, 195, 120, 114, 186, 120, 195, 1, 0.507694
46, 3, wb, attraction, a-b-db, 9, 3, 8, 28, 195, 120, 114, 186, 120, 195, 2, 0.630185
46, 3, wb, attraction, a-b-db, 5, 2, 8, 29, 165, 90, 88, 161, 90, 165, 3, 0.84264
46, 3, wb, attraction, a-b-db, 5, 2, 8, 29, 165, 90, 88, 161, 90, 165, 1, 0.607645
46, 3, wb, filler, NA, 999, 999, 8, 30, 120, 186, 144, 184, 193, 101, 3, 0.77272
46, 3, wb, filler, NA, 999, 999, 8, 30, 120, 186, 144, 184, 193, 101, 2, 0.460377
46, 3, wb, filler, NA, 999, 999, 8, 31, 130, 103, 155, 74, 164, 65, 1, 0.975579
46, 3, wb, filler, NA, 999, 999, 8, 31, 130, 103, 155, 74, 164, 65, 3, 0.559358
46, 3, wb, filler, NA, 999, 999, 8, 32, 63, 61, 96, 98, 87, 57, 1, 0.766322
46, 3, wb, filler, NA, 999, 999, 8, 32, 63, 61, 96, 98, 87, 57, 2, 0.422802
46, 3, wb, attraction, a-b-db, 14, 2, 8, 33, 165, 90, 90, 165, 83, 153, 1, 1.35588
46, 3, wb, attraction, a-b-db, 14, 2, 8, 33, 165, 90, 90, 165, 83, 153, 2, 0.436214
46, 3, wb, filler, NA, 999, 999, 8, 34, 122, 162, 85, 72, 194, 168, 2, 1.44064
46, 3, wb, filler, NA, 999, 999, 8, 34, 122, 162, 85, 72, 194, 168, 3, 0.645476
46, 3, wb, attraction, a-b-db, 2, 2, 8, 35, 89, 163, 90, 165, 165, 90, 1, 0.977099
46, 3, wb, attraction, a-b-db, 2, 2, 8, 35, 89, 163, 90, 165, 165, 90, 3, 0.816809
46, 3, wb, attraction, a-b-da, 14, 2, 8, 36, 90, 165, 153, 83, 165, 90, 2, 3.6139
46, 3, wb, attraction, a-b-da, 14, 2, 8, 36, 90, 165, 153, 83, 165, 90, 3, 0.619509
46, 3, wb, attraction, a-b-db, 5, 3, 8, 37, 117, 190, 120, 195, 195, 120, 1, 1.17652
46, 3, wb, attraction, a-b-db, 5, 3, 8, 37, 117, 190, 120, 195, 195, 120, 2, 0.432029
