sub_n, computer_n, bw_cond, effect, set, distance, diag, block_n, trial_n, h1, w1, h2, w2, h3, w3, choice, rt 
42, 3, wb, practice, NA, 999, 999, 0, 1, 139, 94, 86, 79, 116, 173, 2, 4.05074
42, 3, wb, practice, NA, 999, 999, 0, 1, 139, 94, 86, 79, 116, 173, 3, 2.37616
42, 3, wb, practice, NA, 999, 999, 0, 2, 77, 170, 85, 91, 71, 124, 2, 2.7047
42, 3, wb, practice, NA, 999, 999, 0, 2, 77, 170, 85, 91, 71, 124, 1, 1.69168
42, 3, wb, practice, NA, 999, 999, 0, 3, 90, 150, 181, 100, 175, 65, 3, 3.69113
42, 3, wb, practice, NA, 999, 999, 0, 3, 90, 150, 181, 100, 175, 65, 2, 1.11662
42, 3, wb, attraction, a-b-db, 14, 2, 1, 1, 83, 153, 90, 165, 165, 90, 1, 2.97712
42, 3, wb, attraction, a-b-db, 14, 2, 1, 1, 83, 153, 90, 165, 165, 90, 2, 1.50436
42, 3, wb, filler, NA, 999, 999, 1, 2, 159, 122, 184, 105, 110, 115, 3, 3.40184
42, 3, wb, filler, NA, 999, 999, 1, 2, 159, 122, 184, 105, 110, 115, 2, 0.903931
42, 3, wb, attraction, a-b-db, 2, 2, 1, 3, 165, 90, 89, 163, 90, 165, 1, 1.40149
42, 3, wb, attraction, a-b-db, 2, 2, 1, 3, 165, 90, 89, 163, 90, 165, 3, 0.616514
42, 3, wb, catch, NA, 999, 999, 1, 4, 118, 137, 166, 149, 132, 63, 3, 1.46969
42, 3, wb, catch, NA, 999, 999, 1, 4, 118, 137, 166, 149, 132, 63, 2, 0.617756
42, 3, wb, filler, NA, 999, 999, 1, 5, 169, 77, 56, 184, 78, 188, 2, 1.39098
42, 3, wb, filler, NA, 999, 999, 1, 5, 169, 77, 56, 184, 78, 188, 3, 0.685714
42, 3, wb, filler, NA, 999, 999, 1, 6, 151, 68, 175, 176, 161, 175, 1, 1.18407
42, 3, wb, filler, NA, 999, 999, 1, 6, 151, 68, 175, 176, 161, 175, 2, 0.695795
42, 3, wb, attraction, a-b-da, 14, 2, 1, 7, 90, 165, 153, 83, 165, 90, 2, 3.48141
42, 3, wb, attraction, a-b-da, 14, 2, 1, 7, 90, 165, 153, 83, 165, 90, 3, 0.836279
42, 3, wb, attraction, a-b-da, 2, 2, 1, 8, 90, 165, 163, 89, 165, 90, 2, 1.87264
42, 3, wb, attraction, a-b-da, 2, 2, 1, 8, 90, 165, 163, 89, 165, 90, 1, 1.71598
42, 3, wb, attraction, a-b-da, 9, 2, 1, 9, 157, 86, 165, 90, 90, 165, 2, 1.66877
42, 3, wb, attraction, a-b-da, 9, 2, 1, 9, 157, 86, 165, 90, 90, 165, 3, 0.704874
42, 3, wb, filler, NA, 999, 999, 1, 10, 92, 185, 142, 127, 183, 111, 1, 1.81065
42, 3, wb, filler, NA, 999, 999, 1, 10, 92, 185, 142, 127, 183, 111, 3, 2.82464
42, 3, wb, attraction, a-b-da, 5, 1, 1, 11, 60, 135, 135, 60, 132, 58, 1, 1.38834
42, 3, wb, attraction, a-b-da, 5, 1, 1, 11, 60, 135, 135, 60, 132, 58, 2, 3.10729
42, 3, wb, attraction, a-b-db, 5, 1, 1, 12, 135, 60, 60, 135, 58, 132, 3, 3.40382
42, 3, wb, attraction, a-b-db, 5, 1, 1, 12, 135, 60, 60, 135, 58, 132, 1, 0.953806
42, 3, wb, attraction, a-b-da, 2, 1, 1, 13, 60, 135, 135, 60, 134, 59, 2, 2.48945
42, 3, wb, attraction, a-b-da, 2, 1, 1, 13, 60, 135, 135, 60, 134, 59, 1, 1.02809
42, 3, wb, filler, NA, 999, 999, 1, 14, 85, 87, 186, 153, 174, 131, 1, 1.30424
42, 3, wb, filler, NA, 999, 999, 1, 14, 85, 87, 186, 153, 174, 131, 2, 0.77917
42, 3, wb, attraction, a-b-db, 9, 3, 1, 15, 195, 120, 114, 186, 120, 195, 1, 4.36964
42, 3, wb, attraction, a-b-db, 9, 3, 1, 15, 195, 120, 114, 186, 120, 195, 3, 1.32883
42, 3, wb, attraction, a-b-db, 5, 3, 1, 16, 195, 120, 117, 190, 120, 195, 1, 3.58511
42, 3, wb, attraction, a-b-db, 5, 3, 1, 16, 195, 120, 117, 190, 120, 195, 3, 1.51183
42, 3, wb, attraction, a-b-da, 5, 3, 1, 17, 120, 195, 190, 117, 195, 120, 1, 1.72077
42, 3, wb, attraction, a-b-da, 5, 3, 1, 17, 120, 195, 190, 117, 195, 120, 3, 0.842703
42, 3, wb, attraction, a-b-da, 14, 3, 1, 18, 195, 120, 120, 195, 181, 111, 1, 2.57447
42, 3, wb, attraction, a-b-da, 14, 3, 1, 18, 195, 120, 120, 195, 181, 111, 3, 1.83763
42, 3, wb, attraction, a-b-da, 14, 1, 1, 19, 125, 56, 60, 135, 135, 60, 1, 1.9536
42, 3, wb, attraction, a-b-da, 14, 1, 1, 19, 125, 56, 60, 135, 135, 60, 3, 2.01049
42, 3, wb, filler, NA, 999, 999, 1, 20, 144, 75, 115, 89, 119, 108, 1, 3.42298
42, 3, wb, filler, NA, 999, 999, 1, 20, 144, 75, 115, 89, 119, 108, 3, 0.884002
42, 3, wb, attraction, a-b-db, 14, 1, 1, 21, 56, 125, 135, 60, 60, 135, 1, 1.7424
42, 3, wb, attraction, a-b-db, 14, 1, 1, 21, 56, 125, 135, 60, 60, 135, 3, 1.01508
42, 3, wb, attraction, a-b-db, 2, 3, 1, 22, 119, 193, 195, 120, 120, 195, 3, 2.96405
42, 3, wb, attraction, a-b-db, 2, 3, 1, 22, 119, 193, 195, 120, 120, 195, 2, 2.81171
42, 3, wb, filler, NA, 999, 999, 1, 23, 114, 109, 85, 81, 73, 192, 2, 2.18404
42, 3, wb, filler, NA, 999, 999, 1, 23, 114, 109, 85, 81, 73, 192, 3, 1.5275
42, 3, wb, attraction, a-b-db, 5, 2, 1, 24, 165, 90, 90, 165, 88, 161, 2, 7.87943
42, 3, wb, attraction, a-b-db, 5, 2, 1, 24, 165, 90, 90, 165, 88, 161, 3, 0.777125
42, 3, wb, attraction, a-b-da, 2, 3, 1, 25, 193, 119, 120, 195, 195, 120, 1, 1.09535
42, 3, wb, attraction, a-b-da, 2, 3, 1, 25, 193, 119, 120, 195, 195, 120, 2, 0.898331
42, 3, wb, attraction, a-b-da, 5, 2, 1, 26, 165, 90, 90, 165, 161, 88, 1, 1.39601
42, 3, wb, attraction, a-b-da, 5, 2, 1, 26, 165, 90, 90, 165, 161, 88, 2, 0.842878
42, 3, wb, attraction, a-b-da, 9, 1, 1, 27, 129, 57, 60, 135, 135, 60, 1, 2.35069
42, 3, wb, attraction, a-b-da, 9, 1, 1, 27, 129, 57, 60, 135, 135, 60, 3, 1.43903
42, 3, wb, filler, NA, 999, 999, 1, 28, 125, 89, 86, 94, 152, 176, 2, 1.84327
42, 3, wb, filler, NA, 999, 999, 1, 28, 125, 89, 86, 94, 152, 176, 3, 0.704024
42, 3, wb, catch, NA, 999, 999, 1, 29, 148, 167, 112, 143, 96, 99, 3, 1.25783
42, 3, wb, catch, NA, 999, 999, 1, 29, 148, 167, 112, 143, 96, 99, 1, 0.685917
42, 3, wb, attraction, a-b-db, 14, 3, 1, 30, 120, 195, 111, 181, 195, 120, 2, 2.61633
42, 3, wb, attraction, a-b-db, 14, 3, 1, 30, 120, 195, 111, 181, 195, 120, 3, 1.01421
42, 3, wb, filler, NA, 999, 999, 1, 31, 182, 92, 79, 127, 164, 131, 2, 1.13112
42, 3, wb, filler, NA, 999, 999, 1, 31, 182, 92, 79, 127, 164, 131, 3, 1.1089
42, 3, wb, attraction, a-b-da, 9, 3, 1, 32, 186, 114, 120, 195, 195, 120, 3, 2.90182
42, 3, wb, attraction, a-b-da, 9, 3, 1, 32, 186, 114, 120, 195, 195, 120, 1, 1.02421
42, 3, wb, attraction, a-b-db, 2, 1, 1, 33, 60, 135, 59, 134, 135, 60, 2, 2.1323
42, 3, wb, attraction, a-b-db, 2, 1, 1, 33, 60, 135, 59, 134, 135, 60, 3, 0.957723
42, 3, wb, catch, NA, 999, 999, 1, 34, 62, 133, 140, 115, 142, 173, 1, 1.70064
42, 3, wb, catch, NA, 999, 999, 1, 34, 62, 133, 140, 115, 142, 173, 3, 0.831404
42, 3, wb, filler, NA, 999, 999, 1, 35, 109, 140, 77, 192, 70, 94, 3, 1.13184
42, 3, wb, filler, NA, 999, 999, 1, 35, 109, 140, 77, 192, 70, 94, 1, 1.0054
42, 3, wb, attraction, a-b-db, 9, 2, 1, 36, 86, 157, 165, 90, 90, 165, 1, 1.12301
42, 3, wb, attraction, a-b-db, 9, 2, 1, 36, 86, 157, 165, 90, 90, 165, 3, 0.572756
42, 3, wb, attraction, a-b-db, 9, 1, 1, 37, 57, 129, 60, 135, 135, 60, 3, 1.60376
42, 3, wb, attraction, a-b-db, 9, 1, 1, 37, 57, 129, 60, 135, 135, 60, 2, 0.834532
42, 3, wb, attraction, a-b-da, 14, 2, 2, 1, 153, 83, 165, 90, 90, 165, 1, 1.26304
42, 3, wb, attraction, a-b-da, 14, 2, 2, 1, 153, 83, 165, 90, 90, 165, 2, 1.63508
42, 3, wb, filler, NA, 999, 999, 2, 2, 61, 60, 157, 66, 62, 113, 1, 1.55117
42, 3, wb, filler, NA, 999, 999, 2, 2, 61, 60, 157, 66, 62, 113, 2, 1.48833
42, 3, wb, catch, NA, 999, 999, 2, 3, 140, 175, 66, 129, 115, 140, 2, 1.87429
42, 3, wb, catch, NA, 999, 999, 2, 3, 140, 175, 66, 129, 115, 140, 1, 0.717699
42, 3, wb, attraction, a-b-da, 2, 1, 2, 4, 134, 59, 135, 60, 60, 135, 2, 3.87069
42, 3, wb, attraction, a-b-da, 2, 1, 2, 4, 134, 59, 135, 60, 60, 135, 1, 0.67409
42, 3, wb, attraction, a-b-db, 14, 3, 2, 5, 111, 181, 195, 120, 120, 195, 1, 5.9006
42, 3, wb, attraction, a-b-db, 14, 3, 2, 5, 111, 181, 195, 120, 120, 195, 3, 0.861916
42, 3, wb, attraction, a-b-db, 5, 3, 2, 6, 120, 195, 117, 190, 195, 120, 1, 1.56893
42, 3, wb, attraction, a-b-db, 5, 3, 2, 6, 120, 195, 117, 190, 195, 120, 2, 0.489126
42, 3, wb, catch, NA, 999, 999, 2, 7, 153, 162, 83, 112, 156, 99, 2, 0.939495
42, 3, wb, catch, NA, 999, 999, 2, 7, 153, 162, 83, 112, 156, 99, 1, 0.540661
42, 3, wb, attraction, a-b-da, 14, 1, 2, 8, 135, 60, 60, 135, 125, 56, 3, 1.50025
42, 3, wb, attraction, a-b-da, 14, 1, 2, 8, 135, 60, 60, 135, 125, 56, 1, 0.767208
42, 3, wb, attraction, a-b-db, 9, 2, 2, 9, 165, 90, 86, 157, 90, 165, 1, 2.03818
42, 3, wb, attraction, a-b-db, 9, 2, 2, 9, 165, 90, 86, 157, 90, 165, 2, 0.65956
42, 3, wb, attraction, a-b-da, 5, 3, 2, 10, 190, 117, 120, 195, 195, 120, 1, 3.39064
42, 3, wb, attraction, a-b-da, 5, 3, 2, 10, 190, 117, 120, 195, 195, 120, 3, 0.860885
42, 3, wb, attraction, a-b-da, 9, 3, 2, 11, 186, 114, 195, 120, 120, 195, 1, 2.87189
42, 3, wb, attraction, a-b-da, 9, 3, 2, 11, 186, 114, 195, 120, 120, 195, 3, 0.778909
42, 3, wb, attraction, a-b-da, 2, 2, 2, 12, 90, 165, 165, 90, 163, 89, 2, 1.69741
42, 3, wb, attraction, a-b-da, 2, 2, 2, 12, 90, 165, 165, 90, 163, 89, 1, 1.45206
42, 3, wb, attraction, a-b-db, 9, 1, 2, 13, 60, 135, 57, 129, 135, 60, 2, 1.35959
42, 3, wb, attraction, a-b-db, 9, 1, 2, 13, 60, 135, 57, 129, 135, 60, 1, 0.62393
42, 3, wb, attraction, a-b-db, 2, 2, 2, 14, 89, 163, 90, 165, 165, 90, 1, 4.26817
42, 3, wb, attraction, a-b-db, 2, 2, 2, 14, 89, 163, 90, 165, 165, 90, 3, 0.943627
42, 3, wb, filler, NA, 999, 999, 2, 15, 139, 177, 56, 118, 125, 175, 2, 1.32707
42, 3, wb, filler, NA, 999, 999, 2, 15, 139, 177, 56, 118, 125, 175, 1, 1.32865
42, 3, wb, attraction, a-b-db, 14, 2, 2, 16, 165, 90, 90, 165, 83, 153, 2, 1.88096
42, 3, wb, attraction, a-b-db, 14, 2, 2, 16, 165, 90, 90, 165, 83, 153, 1, 0.564231
42, 3, wb, catch, NA, 999, 999, 2, 17, 121, 74, 101, 154, 192, 123, 1, 1.33935
42, 3, wb, catch, NA, 999, 999, 2, 17, 121, 74, 101, 154, 192, 123, 3, 0.860227
42, 3, wb, filler, NA, 999, 999, 2, 18, 118, 77, 193, 106, 151, 104, 1, 1.03922
42, 3, wb, filler, NA, 999, 999, 2, 18, 118, 77, 193, 106, 151, 104, 2, 0.964292
42, 3, wb, attraction, a-b-da, 2, 3, 2, 19, 193, 119, 120, 195, 195, 120, 3, 1.76324
42, 3, wb, attraction, a-b-da, 2, 3, 2, 19, 193, 119, 120, 195, 195, 120, 1, 3.01927
42, 3, wb, filler, NA, 999, 999, 2, 20, 175, 97, 108, 173, 94, 174, 1, 1.75177
42, 3, wb, filler, NA, 999, 999, 2, 20, 175, 97, 108, 173, 94, 174, 2, 2.16839
42, 3, wb, filler, NA, 999, 999, 2, 21, 127, 127, 58, 120, 75, 114, 2, 1.07907
42, 3, wb, filler, NA, 999, 999, 2, 21, 127, 127, 58, 120, 75, 114, 1, 1.61073
42, 3, wb, attraction, a-b-da, 5, 2, 2, 22, 161, 88, 90, 165, 165, 90, 1, 5.42348
42, 3, wb, attraction, a-b-da, 5, 2, 2, 22, 161, 88, 90, 165, 165, 90, 3, 0.931835
42, 3, wb, attraction, a-b-db, 5, 2, 2, 23, 88, 161, 165, 90, 90, 165, 2, 2.21202
42, 3, wb, attraction, a-b-db, 5, 2, 2, 23, 88, 161, 165, 90, 90, 165, 1, 0.689949
42, 3, wb, filler, NA, 999, 999, 2, 24, 56, 141, 86, 104, 69, 148, 1, 1.42765
42, 3, wb, filler, NA, 999, 999, 2, 24, 56, 141, 86, 104, 69, 148, 2, 0.489142
42, 3, wb, attraction, a-b-db, 14, 1, 2, 25, 60, 135, 135, 60, 56, 125, 3, 1.80368
42, 3, wb, attraction, a-b-db, 14, 1, 2, 25, 60, 135, 135, 60, 56, 125, 2, 0.530555
42, 3, wb, attraction, a-b-da, 14, 3, 2, 26, 120, 195, 195, 120, 181, 111, 3, 3.22685
42, 3, wb, attraction, a-b-da, 14, 3, 2, 26, 120, 195, 195, 120, 181, 111, 1, 1.2478
42, 3, wb, filler, NA, 999, 999, 2, 27, 110, 139, 67, 92, 185, 190, 2, 1.09138
42, 3, wb, filler, NA, 999, 999, 2, 27, 110, 139, 67, 92, 185, 190, 3, 0.734343
42, 3, wb, attraction, a-b-da, 9, 2, 2, 28, 90, 165, 165, 90, 157, 86, 3, 1.92666
42, 3, wb, attraction, a-b-da, 9, 2, 2, 28, 90, 165, 165, 90, 157, 86, 2, 0.50411
42, 3, wb, attraction, a-b-db, 9, 3, 2, 29, 114, 186, 195, 120, 120, 195, 3, 1.58588
42, 3, wb, attraction, a-b-db, 9, 3, 2, 29, 114, 186, 195, 120, 120, 195, 2, 0.449674
42, 3, wb, attraction, a-b-db, 2, 1, 2, 30, 59, 134, 135, 60, 60, 135, 1, 0.965219
42, 3, wb, attraction, a-b-db, 2, 1, 2, 30, 59, 134, 135, 60, 60, 135, 2, 0.885492
42, 3, wb, filler, NA, 999, 999, 2, 31, 73, 137, 181, 111, 188, 123, 1, 1.10382
42, 3, wb, filler, NA, 999, 999, 2, 31, 73, 137, 181, 111, 188, 123, 3, 0.922805
42, 3, wb, attraction, a-b-db, 5, 1, 2, 32, 60, 135, 135, 60, 58, 132, 1, 0.707787
42, 3, wb, attraction, a-b-db, 5, 1, 2, 32, 60, 135, 135, 60, 58, 132, 2, 0.414239
42, 3, wb, attraction, a-b-da, 9, 1, 2, 33, 135, 60, 60, 135, 129, 57, 1, 1.34736
42, 3, wb, attraction, a-b-da, 9, 1, 2, 33, 135, 60, 60, 135, 129, 57, 3, 0.908231
42, 3, wb, attraction, a-b-db, 2, 3, 2, 34, 195, 120, 120, 195, 119, 193, 1, 1.98921
42, 3, wb, attraction, a-b-db, 2, 3, 2, 34, 195, 120, 120, 195, 119, 193, 2, 0.995853
42, 3, wb, filler, NA, 999, 999, 2, 35, 57, 131, 126, 115, 118, 86, 1, 1.48162
42, 3, wb, filler, NA, 999, 999, 2, 35, 57, 131, 126, 115, 118, 86, 3, 1.20502
42, 3, wb, attraction, a-b-da, 5, 1, 2, 36, 135, 60, 60, 135, 132, 58, 1, 0.954603
42, 3, wb, attraction, a-b-da, 5, 1, 2, 36, 135, 60, 60, 135, 132, 58, 3, 0.707594
42, 3, wb, filler, NA, 999, 999, 2, 37, 187, 87, 161, 191, 149, 137, 3, 2.07668
42, 3, wb, filler, NA, 999, 999, 2, 37, 187, 87, 161, 191, 149, 137, 2, 1.18392
42, 3, wb, attraction, a-b-db, 14, 2, 3, 1, 165, 90, 90, 165, 83, 153, 1, 1.35029
42, 3, wb, attraction, a-b-db, 14, 2, 3, 1, 165, 90, 90, 165, 83, 153, 3, 0.567097
42, 3, wb, attraction, a-b-db, 5, 3, 3, 2, 195, 120, 120, 195, 117, 190, 1, 1.7422
42, 3, wb, attraction, a-b-db, 5, 3, 3, 2, 195, 120, 120, 195, 117, 190, 2, 0.911075
42, 3, wb, catch, NA, 999, 999, 3, 3, 180, 135, 77, 118, 93, 162, 2, 1.1999
42, 3, wb, catch, NA, 999, 999, 3, 3, 180, 135, 77, 118, 93, 162, 1, 0.430881
42, 3, wb, filler, NA, 999, 999, 3, 4, 70, 191, 117, 96, 90, 189, 2, 1.63534
42, 3, wb, filler, NA, 999, 999, 3, 4, 70, 191, 117, 96, 90, 189, 3, 0.632873
42, 3, wb, filler, NA, 999, 999, 3, 5, 164, 175, 84, 84, 60, 62, 3, 1.02127
42, 3, wb, filler, NA, 999, 999, 3, 5, 164, 175, 84, 84, 60, 62, 1, 0.554869
42, 3, wb, attraction, a-b-db, 14, 3, 3, 6, 111, 181, 195, 120, 120, 195, 3, 1.97876
42, 3, wb, attraction, a-b-db, 14, 3, 3, 6, 111, 181, 195, 120, 120, 195, 1, 0.810066
42, 3, wb, attraction, a-b-da, 14, 3, 3, 7, 195, 120, 181, 111, 120, 195, 2, 2.58313
42, 3, wb, attraction, a-b-da, 14, 3, 3, 7, 195, 120, 181, 111, 120, 195, 3, 0.614187
42, 3, wb, attraction, a-b-da, 9, 2, 3, 8, 157, 86, 165, 90, 90, 165, 2, 2.81126
42, 3, wb, attraction, a-b-da, 9, 2, 3, 8, 157, 86, 165, 90, 90, 165, 3, 0.729051
42, 3, wb, filler, NA, 999, 999, 3, 9, 142, 190, 185, 73, 64, 99, 3, 0.985528
42, 3, wb, filler, NA, 999, 999, 3, 9, 142, 190, 185, 73, 64, 99, 1, 0.425103
42, 3, wb, filler, NA, 999, 999, 3, 10, 153, 189, 154, 78, 89, 71, 3, 1.13353
42, 3, wb, filler, NA, 999, 999, 3, 10, 153, 189, 154, 78, 89, 71, 1, 0.383105
42, 3, wb, attraction, a-b-da, 14, 1, 3, 11, 60, 135, 125, 56, 135, 60, 1, 1.04568
42, 3, wb, attraction, a-b-da, 14, 1, 3, 11, 60, 135, 125, 56, 135, 60, 3, 0.402629
42, 3, wb, attraction, a-b-da, 14, 2, 3, 12, 153, 83, 165, 90, 90, 165, 1, 5.32042
42, 3, wb, attraction, a-b-da, 14, 2, 3, 12, 153, 83, 165, 90, 90, 165, 2, 0.433392
42, 3, wb, attraction, a-b-da, 5, 3, 3, 13, 120, 195, 190, 117, 195, 120, 3, 2.28588
42, 3, wb, attraction, a-b-da, 5, 3, 3, 13, 120, 195, 190, 117, 195, 120, 1, 0.601266
42, 3, wb, attraction, a-b-db, 5, 1, 3, 14, 60, 135, 135, 60, 58, 132, 3, 1.07088
42, 3, wb, attraction, a-b-db, 5, 1, 3, 14, 60, 135, 135, 60, 58, 132, 2, 0.643242
42, 3, wb, attraction, a-b-da, 2, 1, 3, 15, 60, 135, 134, 59, 135, 60, 3, 0.839018
42, 3, wb, attraction, a-b-da, 2, 1, 3, 15, 60, 135, 134, 59, 135, 60, 1, 0.468023
42, 3, wb, attraction, a-b-db, 5, 2, 3, 16, 165, 90, 90, 165, 88, 161, 3, 0.927144
42, 3, wb, attraction, a-b-db, 5, 2, 3, 16, 165, 90, 90, 165, 88, 161, 1, 0.616836
42, 3, wb, attraction, a-b-db, 9, 2, 3, 17, 165, 90, 86, 157, 90, 165, 2, 1.34989
42, 3, wb, attraction, a-b-db, 9, 2, 3, 17, 165, 90, 86, 157, 90, 165, 3, 0.494842
42, 3, wb, attraction, a-b-da, 2, 2, 3, 18, 163, 89, 165, 90, 90, 165, 1, 0.544588
42, 3, wb, attraction, a-b-da, 2, 2, 3, 18, 163, 89, 165, 90, 90, 165, 2, 0.425872
42, 3, wb, attraction, a-b-da, 5, 1, 3, 19, 135, 60, 132, 58, 60, 135, 1, 0.446156
42, 3, wb, attraction, a-b-da, 5, 1, 3, 19, 135, 60, 132, 58, 60, 135, 2, 0.547492
42, 3, wb, attraction, a-b-da, 5, 2, 3, 20, 161, 88, 90, 165, 165, 90, 2, 1.03514
42, 3, wb, attraction, a-b-da, 5, 2, 3, 20, 161, 88, 90, 165, 165, 90, 3, 0.424782
42, 3, wb, filler, NA, 999, 999, 3, 21, 185, 129, 159, 173, 85, 120, 3, 0.853262
42, 3, wb, filler, NA, 999, 999, 3, 21, 185, 129, 159, 173, 85, 120, 2, 0.778319
42, 3, wb, attraction, a-b-db, 9, 1, 3, 22, 57, 129, 60, 135, 135, 60, 1, 0.960747
42, 3, wb, attraction, a-b-db, 9, 1, 3, 22, 57, 129, 60, 135, 135, 60, 3, 0.78514
42, 3, wb, attraction, a-b-db, 2, 1, 3, 23, 60, 135, 59, 134, 135, 60, 2, 1.44734
42, 3, wb, attraction, a-b-db, 2, 1, 3, 23, 60, 135, 59, 134, 135, 60, 3, 0.508168
42, 3, wb, attraction, a-b-db, 2, 2, 3, 24, 89, 163, 165, 90, 90, 165, 1, 1.23731
42, 3, wb, attraction, a-b-db, 2, 2, 3, 24, 89, 163, 165, 90, 90, 165, 2, 0.963
42, 3, wb, attraction, a-b-db, 9, 3, 3, 25, 195, 120, 114, 186, 120, 195, 1, 0.593889
42, 3, wb, attraction, a-b-db, 9, 3, 3, 25, 195, 120, 114, 186, 120, 195, 2, 0.568985
42, 3, wb, filler, NA, 999, 999, 3, 26, 98, 69, 166, 97, 81, 189, 1, 0.768159
42, 3, wb, filler, NA, 999, 999, 3, 26, 98, 69, 166, 97, 81, 189, 2, 0.496567
42, 3, wb, filler, NA, 999, 999, 3, 27, 139, 184, 114, 114, 92, 142, 2, 2.0424
42, 3, wb, filler, NA, 999, 999, 3, 27, 139, 184, 114, 114, 92, 142, 1, 0.454964
42, 3, wb, catch, NA, 999, 999, 3, 28, 84, 111, 163, 92, 190, 125, 1, 0.954828
42, 3, wb, catch, NA, 999, 999, 3, 28, 84, 111, 163, 92, 190, 125, 3, 0.387162
42, 3, wb, attraction, a-b-da, 2, 3, 3, 29, 195, 120, 120, 195, 193, 119, 1, 1.0816
42, 3, wb, attraction, a-b-da, 2, 3, 3, 29, 195, 120, 120, 195, 193, 119, 2, 0.877197
42, 3, wb, attraction, a-b-da, 9, 3, 3, 30, 120, 195, 186, 114, 195, 120, 1, 2.43962
42, 3, wb, attraction, a-b-da, 9, 3, 3, 30, 120, 195, 186, 114, 195, 120, 3, 1.15609
42, 3, wb, attraction, a-b-da, 9, 1, 3, 31, 129, 57, 60, 135, 135, 60, 1, 1.19569
42, 3, wb, attraction, a-b-da, 9, 1, 3, 31, 129, 57, 60, 135, 135, 60, 3, 0.602651
42, 3, wb, filler, NA, 999, 999, 3, 32, 141, 162, 123, 140, 119, 102, 3, 1.50444
42, 3, wb, filler, NA, 999, 999, 3, 32, 141, 162, 123, 140, 119, 102, 1, 0.611349
42, 3, wb, filler, NA, 999, 999, 3, 33, 76, 123, 84, 139, 175, 99, 1, 1.11223
42, 3, wb, filler, NA, 999, 999, 3, 33, 76, 123, 84, 139, 175, 99, 3, 0.522544
42, 3, wb, catch, NA, 999, 999, 3, 34, 67, 128, 98, 157, 169, 146, 1, 0.683696
42, 3, wb, catch, NA, 999, 999, 3, 34, 67, 128, 98, 157, 169, 146, 3, 0.871443
42, 3, wb, attraction, a-b-db, 14, 1, 3, 35, 60, 135, 135, 60, 56, 125, 1, 0.770424
42, 3, wb, attraction, a-b-db, 14, 1, 3, 35, 60, 135, 135, 60, 56, 125, 2, 0.682853
42, 3, wb, attraction, a-b-db, 2, 3, 3, 36, 195, 120, 119, 193, 120, 195, 1, 1.31735
42, 3, wb, attraction, a-b-db, 2, 3, 3, 36, 195, 120, 119, 193, 120, 195, 3, 0.727477
42, 3, wb, filler, NA, 999, 999, 3, 37, 132, 167, 182, 78, 101, 93, 3, 1.37596
42, 3, wb, filler, NA, 999, 999, 3, 37, 132, 167, 182, 78, 101, 93, 1, 0.543459
42, 3, wb, catch, NA, 999, 999, 4, 1, 88, 107, 136, 119, 180, 135, 1, 1.03919
42, 3, wb, catch, NA, 999, 999, 4, 1, 88, 107, 136, 119, 180, 135, 3, 0.488109
42, 3, wb, filler, NA, 999, 999, 4, 2, 121, 71, 121, 85, 56, 187, 2, 1.36668
42, 3, wb, filler, NA, 999, 999, 4, 2, 121, 71, 121, 85, 56, 187, 1, 0.574885
42, 3, wb, filler, NA, 999, 999, 4, 3, 62, 97, 150, 178, 65, 151, 1, 0.949281
42, 3, wb, filler, NA, 999, 999, 4, 3, 62, 97, 150, 178, 65, 151, 2, 0.422283
42, 3, wb, attraction, a-b-db, 9, 2, 4, 4, 165, 90, 90, 165, 86, 157, 1, 2.14745
42, 3, wb, attraction, a-b-db, 9, 2, 4, 4, 165, 90, 90, 165, 86, 157, 3, 0.556225
42, 3, wb, filler, NA, 999, 999, 4, 5, 123, 116, 119, 79, 176, 62, 2, 3.47597
42, 3, wb, filler, NA, 999, 999, 4, 5, 123, 116, 119, 79, 176, 62, 1, 1.13472
42, 3, wb, attraction, a-b-db, 2, 1, 4, 6, 59, 134, 60, 135, 135, 60, 1, 1.87103
42, 3, wb, attraction, a-b-db, 2, 1, 4, 6, 59, 134, 60, 135, 135, 60, 3, 0.962991
42, 3, wb, filler, NA, 999, 999, 4, 7, 99, 184, 75, 110, 77, 172, 2, 0.985944
42, 3, wb, filler, NA, 999, 999, 4, 7, 99, 184, 75, 110, 77, 172, 1, 0.553625
42, 3, wb, attraction, a-b-db, 5, 2, 4, 8, 90, 165, 165, 90, 88, 161, 3, 1.84147
42, 3, wb, attraction, a-b-db, 5, 2, 4, 8, 90, 165, 165, 90, 88, 161, 2, 0.990252
42, 3, wb, catch, NA, 999, 999, 4, 9, 159, 96, 133, 62, 130, 185, 2, 1.42778
42, 3, wb, catch, NA, 999, 999, 4, 9, 159, 96, 133, 62, 130, 185, 3, 0.529457
42, 3, wb, attraction, a-b-db, 14, 3, 4, 10, 111, 181, 195, 120, 120, 195, 1, 0.897704
42, 3, wb, attraction, a-b-db, 14, 3, 4, 10, 111, 181, 195, 120, 120, 195, 2, 0.420752
42, 3, wb, attraction, a-b-db, 5, 3, 4, 11, 120, 195, 117, 190, 195, 120, 1, 0.785905
42, 3, wb, attraction, a-b-db, 5, 3, 4, 11, 120, 195, 117, 190, 195, 120, 3, 0.721729
42, 3, wb, filler, NA, 999, 999, 4, 12, 181, 192, 99, 183, 182, 133, 2, 1.02674
42, 3, wb, filler, NA, 999, 999, 4, 12, 181, 192, 99, 183, 182, 133, 3, 0.528507
42, 3, wb, filler, NA, 999, 999, 4, 13, 183, 143, 90, 192, 105, 104, 3, 0.896763
42, 3, wb, filler, NA, 999, 999, 4, 13, 183, 143, 90, 192, 105, 104, 1, 0.539812
42, 3, wb, filler, NA, 999, 999, 4, 14, 191, 150, 152, 92, 90, 168, 3, 0.924316
42, 3, wb, filler, NA, 999, 999, 4, 14, 191, 150, 152, 92, 90, 168, 1, 0.502068
42, 3, wb, attraction, a-b-db, 2, 2, 4, 15, 165, 90, 89, 163, 90, 165, 3, 1.42381
42, 3, wb, attraction, a-b-db, 2, 2, 4, 15, 165, 90, 89, 163, 90, 165, 1, 0.533311
42, 3, wb, attraction, a-b-db, 14, 2, 4, 16, 165, 90, 83, 153, 90, 165, 2, 2.55785
42, 3, wb, attraction, a-b-db, 14, 2, 4, 16, 165, 90, 83, 153, 90, 165, 1, 0.725512
42, 3, wb, attraction, a-b-da, 9, 3, 4, 17, 120, 195, 195, 120, 186, 114, 3, 1.26998
42, 3, wb, attraction, a-b-da, 9, 3, 4, 17, 120, 195, 195, 120, 186, 114, 2, 0.650187
42, 3, wb, attraction, a-b-da, 2, 1, 4, 18, 134, 59, 60, 135, 135, 60, 3, 1.08593
42, 3, wb, attraction, a-b-da, 2, 1, 4, 18, 134, 59, 60, 135, 135, 60, 2, 1.28156
42, 3, wb, attraction, a-b-db, 9, 3, 4, 19, 114, 186, 195, 120, 120, 195, 3, 1.59576
42, 3, wb, attraction, a-b-db, 9, 3, 4, 19, 114, 186, 195, 120, 120, 195, 2, 0.706682
42, 3, wb, attraction, a-b-db, 9, 1, 4, 20, 57, 129, 60, 135, 135, 60, 1, 0.980394
42, 3, wb, attraction, a-b-db, 9, 1, 4, 20, 57, 129, 60, 135, 135, 60, 3, 0.987977
42, 3, wb, attraction, a-b-da, 5, 3, 4, 21, 190, 117, 120, 195, 195, 120, 1, 0.802238
42, 3, wb, attraction, a-b-da, 5, 3, 4, 21, 190, 117, 120, 195, 195, 120, 3, 0.449412
42, 3, wb, attraction, a-b-db, 14, 1, 4, 22, 60, 135, 135, 60, 56, 125, 1, 1.28521
42, 3, wb, attraction, a-b-db, 14, 1, 4, 22, 60, 135, 135, 60, 56, 125, 2, 0.760758
42, 3, wb, filler, NA, 999, 999, 4, 23, 60, 117, 62, 163, 164, 56, 1, 1.06377
42, 3, wb, filler, NA, 999, 999, 4, 23, 60, 117, 62, 163, 164, 56, 2, 0.588145
42, 3, wb, filler, NA, 999, 999, 4, 24, 181, 136, 119, 132, 99, 189, 1, 1.0985
42, 3, wb, filler, NA, 999, 999, 4, 24, 181, 136, 119, 132, 99, 189, 2, 1.14954
42, 3, wb, attraction, a-b-da, 9, 2, 4, 25, 165, 90, 157, 86, 90, 165, 3, 0.949156
42, 3, wb, attraction, a-b-da, 9, 2, 4, 25, 165, 90, 157, 86, 90, 165, 2, 0.766137
42, 3, wb, attraction, a-b-da, 5, 2, 4, 26, 165, 90, 90, 165, 161, 88, 3, 0.829
42, 3, wb, attraction, a-b-da, 5, 2, 4, 26, 165, 90, 90, 165, 161, 88, 1, 0.594886
42, 3, wb, filler, NA, 999, 999, 4, 27, 90, 125, 172, 152, 63, 175, 1, 1.90458
42, 3, wb, filler, NA, 999, 999, 4, 27, 90, 125, 172, 152, 63, 175, 2, 0.483271
42, 3, wb, attraction, a-b-da, 2, 2, 4, 28, 165, 90, 163, 89, 90, 165, 3, 1.66966
42, 3, wb, attraction, a-b-da, 2, 2, 4, 28, 165, 90, 163, 89, 90, 165, 2, 0.641769
42, 3, wb, attraction, a-b-da, 14, 2, 4, 29, 90, 165, 153, 83, 165, 90, 1, 0.925622
42, 3, wb, attraction, a-b-da, 14, 2, 4, 29, 90, 165, 153, 83, 165, 90, 3, 0.719272
42, 3, wb, attraction, a-b-da, 9, 1, 4, 30, 135, 60, 129, 57, 60, 135, 1, 0.520493
42, 3, wb, attraction, a-b-da, 9, 1, 4, 30, 135, 60, 129, 57, 60, 135, 2, 0.594817
42, 3, wb, catch, NA, 999, 999, 4, 31, 135, 60, 175, 140, 91, 164, 1, 0.640503
42, 3, wb, catch, NA, 999, 999, 4, 31, 135, 60, 175, 140, 91, 164, 2, 0.621653
42, 3, wb, attraction, a-b-da, 14, 1, 4, 32, 60, 135, 125, 56, 135, 60, 1, 0.794747
42, 3, wb, attraction, a-b-da, 14, 1, 4, 32, 60, 135, 125, 56, 135, 60, 3, 0.937827
42, 3, wb, attraction, a-b-db, 5, 1, 4, 33, 60, 135, 135, 60, 58, 132, 1, 0.610088
42, 3, wb, attraction, a-b-db, 5, 1, 4, 33, 60, 135, 135, 60, 58, 132, 2, 0.67259
42, 3, wb, attraction, a-b-db, 2, 3, 4, 34, 120, 195, 195, 120, 119, 193, 1, 0.491745
42, 3, wb, attraction, a-b-db, 2, 3, 4, 34, 120, 195, 195, 120, 119, 193, 2, 0.918897
42, 3, wb, attraction, a-b-da, 2, 3, 4, 35, 193, 119, 195, 120, 120, 195, 1, 0.567705
42, 3, wb, attraction, a-b-da, 2, 3, 4, 35, 193, 119, 195, 120, 120, 195, 2, 0.62416
42, 3, wb, attraction, a-b-da, 14, 3, 4, 36, 181, 111, 195, 120, 120, 195, 1, 0.500687
42, 3, wb, attraction, a-b-da, 14, 3, 4, 36, 181, 111, 195, 120, 120, 195, 3, 0.567747
42, 3, wb, attraction, a-b-da, 5, 1, 4, 37, 135, 60, 132, 58, 60, 135, 1, 0.68693
42, 3, wb, attraction, a-b-da, 5, 1, 4, 37, 135, 60, 132, 58, 60, 135, 2, 0.810738
42, 3, wb, filler, NA, 999, 999, 5, 1, 146, 190, 161, 156, 101, 160, 3, 2.5424
42, 3, wb, filler, NA, 999, 999, 5, 1, 146, 190, 161, 156, 101, 160, 1, 0.790834
42, 3, wb, filler, NA, 999, 999, 5, 2, 191, 118, 153, 79, 143, 110, 3, 2.26046
42, 3, wb, filler, NA, 999, 999, 5, 2, 191, 118, 153, 79, 143, 110, 1, 0.544431
42, 3, wb, attraction, a-b-db, 5, 1, 5, 3, 58, 132, 60, 135, 135, 60, 3, 1.00828
42, 3, wb, attraction, a-b-db, 5, 1, 5, 3, 58, 132, 60, 135, 135, 60, 1, 0.502637
42, 3, wb, attraction, a-b-da, 5, 2, 5, 4, 161, 88, 90, 165, 165, 90, 3, 0.928335
42, 3, wb, attraction, a-b-da, 5, 2, 5, 4, 161, 88, 90, 165, 165, 90, 2, 0.602129
42, 3, wb, attraction, a-b-db, 9, 2, 5, 5, 90, 165, 165, 90, 86, 157, 3, 1.55973
42, 3, wb, attraction, a-b-db, 9, 2, 5, 5, 90, 165, 165, 90, 86, 157, 2, 1.336
42, 3, wb, catch, NA, 999, 999, 5, 6, 111, 84, 182, 133, 120, 135, 1, 0.848161
42, 3, wb, catch, NA, 999, 999, 5, 6, 111, 84, 182, 133, 120, 135, 2, 0.661113
42, 3, wb, attraction, a-b-da, 5, 3, 5, 7, 190, 117, 120, 195, 195, 120, 1, 1.06418
42, 3, wb, attraction, a-b-da, 5, 3, 5, 7, 190, 117, 120, 195, 195, 120, 3, 0.932522
42, 3, wb, attraction, a-b-da, 9, 2, 5, 8, 90, 165, 165, 90, 157, 86, 1, 0.868839
42, 3, wb, attraction, a-b-da, 9, 2, 5, 8, 90, 165, 165, 90, 157, 86, 3, 0.817152
42, 3, wb, filler, NA, 999, 999, 5, 9, 155, 118, 131, 177, 148, 125, 1, 0.750241
42, 3, wb, filler, NA, 999, 999, 5, 9, 155, 118, 131, 177, 148, 125, 2, 0.559445
42, 3, wb, attraction, a-b-da, 14, 1, 5, 10, 125, 56, 60, 135, 135, 60, 1, 1.34723
42, 3, wb, attraction, a-b-da, 14, 1, 5, 10, 125, 56, 60, 135, 135, 60, 3, 1.19142
42, 3, wb, attraction, a-b-db, 9, 1, 5, 11, 57, 129, 60, 135, 135, 60, 1, 0.74882
42, 3, wb, attraction, a-b-db, 9, 1, 5, 11, 57, 129, 60, 135, 135, 60, 3, 1.28609
42, 3, wb, attraction, a-b-da, 14, 2, 5, 12, 153, 83, 90, 165, 165, 90, 1, 0.568066
42, 3, wb, attraction, a-b-da, 14, 2, 5, 12, 153, 83, 90, 165, 165, 90, 2, 0.696632
42, 3, wb, filler, NA, 999, 999, 5, 13, 179, 138, 86, 61, 153, 86, 2, 1.03428
42, 3, wb, filler, NA, 999, 999, 5, 13, 179, 138, 86, 61, 153, 86, 1, 0.608079
42, 3, wb, attraction, a-b-db, 14, 3, 5, 14, 120, 195, 111, 181, 195, 120, 2, 0.941093
42, 3, wb, attraction, a-b-db, 14, 3, 5, 14, 120, 195, 111, 181, 195, 120, 3, 0.998119
42, 3, wb, catch, NA, 999, 999, 5, 15, 160, 155, 95, 160, 130, 65, 3, 1.55596
42, 3, wb, catch, NA, 999, 999, 5, 15, 160, 155, 95, 160, 130, 65, 1, 0.372
42, 3, wb, attraction, a-b-da, 2, 3, 5, 16, 120, 195, 193, 119, 195, 120, 1, 4.10701
42, 3, wb, attraction, a-b-da, 2, 3, 5, 16, 120, 195, 193, 119, 195, 120, 2, 1.95632
42, 3, wb, attraction, a-b-da, 9, 3, 5, 17, 195, 120, 120, 195, 186, 114, 1, 1.01173
42, 3, wb, attraction, a-b-da, 9, 3, 5, 17, 195, 120, 120, 195, 186, 114, 2, 0.569971
42, 3, wb, attraction, a-b-db, 2, 1, 5, 18, 60, 135, 59, 134, 135, 60, 1, 0.737204
42, 3, wb, attraction, a-b-db, 2, 1, 5, 18, 60, 135, 59, 134, 135, 60, 3, 0.506825
42, 3, wb, filler, NA, 999, 999, 5, 19, 66, 75, 69, 187, 134, 123, 1, 0.619902
42, 3, wb, filler, NA, 999, 999, 5, 19, 66, 75, 69, 187, 134, 123, 3, 0.770528
42, 3, wb, filler, NA, 999, 999, 5, 20, 66, 128, 80, 111, 117, 78, 3, 1.04145
42, 3, wb, filler, NA, 999, 999, 5, 20, 66, 128, 80, 111, 117, 78, 1, 0.518431
42, 3, wb, filler, NA, 999, 999, 5, 21, 175, 152, 191, 156, 108, 142, 3, 0.687636
42, 3, wb, filler, NA, 999, 999, 5, 21, 175, 152, 191, 156, 108, 142, 2, 1.02727
42, 3, wb, attraction, a-b-da, 9, 1, 5, 22, 135, 60, 129, 57, 60, 135, 3, 0.999512
42, 3, wb, attraction, a-b-da, 9, 1, 5, 22, 135, 60, 129, 57, 60, 135, 2, 1.32657
42, 3, wb, attraction, a-b-db, 14, 1, 5, 23, 60, 135, 135, 60, 56, 125, 1, 0.654788
42, 3, wb, attraction, a-b-db, 14, 1, 5, 23, 60, 135, 135, 60, 56, 125, 2, 0.779902
42, 3, wb, filler, NA, 999, 999, 5, 24, 176, 190, 185, 126, 185, 143, 1, 4.63432
42, 3, wb, filler, NA, 999, 999, 5, 24, 176, 190, 185, 126, 185, 143, 2, 2.7188
42, 3, wb, catch, NA, 999, 999, 5, 25, 123, 132, 131, 184, 130, 65, 1, 2.12715
42, 3, wb, catch, NA, 999, 999, 5, 25, 123, 132, 131, 184, 130, 65, 2, 0.760502
42, 3, wb, attraction, a-b-db, 2, 2, 5, 26, 90, 165, 89, 163, 165, 90, 3, 0.95147
42, 3, wb, attraction, a-b-db, 2, 2, 5, 26, 90, 165, 89, 163, 165, 90, 1, 0.592519
42, 3, wb, filler, NA, 999, 999, 5, 27, 167, 174, 59, 183, 193, 137, 2, 1.71029
42, 3, wb, filler, NA, 999, 999, 5, 27, 167, 174, 59, 183, 193, 137, 3, 0.624425
42, 3, wb, attraction, a-b-db, 2, 3, 5, 28, 119, 193, 120, 195, 195, 120, 1, 1.60479
42, 3, wb, attraction, a-b-db, 2, 3, 5, 28, 119, 193, 120, 195, 195, 120, 2, 0.979666
42, 3, wb, attraction, a-b-da, 14, 3, 5, 29, 181, 111, 195, 120, 120, 195, 1, 0.809971
42, 3, wb, attraction, a-b-da, 14, 3, 5, 29, 181, 111, 195, 120, 120, 195, 3, 0.464321
42, 3, wb, attraction, a-b-da, 2, 1, 5, 30, 134, 59, 60, 135, 135, 60, 1, 0.947441
42, 3, wb, attraction, a-b-da, 2, 1, 5, 30, 134, 59, 60, 135, 135, 60, 2, 0.604481
42, 3, wb, attraction, a-b-db, 5, 2, 5, 31, 88, 161, 165, 90, 90, 165, 1, 0.570225
42, 3, wb, attraction, a-b-db, 5, 2, 5, 31, 88, 161, 165, 90, 90, 165, 2, 0.61876
42, 3, wb, attraction, a-b-db, 9, 3, 5, 32, 120, 195, 114, 186, 195, 120, 1, 0.807728
42, 3, wb, attraction, a-b-db, 9, 3, 5, 32, 120, 195, 114, 186, 195, 120, 3, 0.68627
42, 3, wb, filler, NA, 999, 999, 5, 33, 82, 114, 107, 189, 106, 121, 3, 1.35262
42, 3, wb, filler, NA, 999, 999, 5, 33, 82, 114, 107, 189, 106, 121, 2, 0.673505
42, 3, wb, attraction, a-b-db, 14, 2, 5, 34, 165, 90, 83, 153, 90, 165, 2, 4.31599
42, 3, wb, attraction, a-b-db, 14, 2, 5, 34, 165, 90, 83, 153, 90, 165, 1, 0.725125
42, 3, wb, attraction, a-b-da, 2, 2, 5, 35, 163, 89, 90, 165, 165, 90, 3, 0.917474
42, 3, wb, attraction, a-b-da, 2, 2, 5, 35, 163, 89, 90, 165, 165, 90, 1, 0.78399
42, 3, wb, attraction, a-b-da, 5, 1, 5, 36, 135, 60, 132, 58, 60, 135, 2, 0.750363
42, 3, wb, attraction, a-b-da, 5, 1, 5, 36, 135, 60, 132, 58, 60, 135, 1, 0.615281
42, 3, wb, attraction, a-b-db, 5, 3, 5, 37, 117, 190, 120, 195, 195, 120, 2, 0.94835
42, 3, wb, attraction, a-b-db, 5, 3, 5, 37, 117, 190, 120, 195, 195, 120, 3, 0.621451
42, 3, wb, filler, NA, 999, 999, 6, 1, 78, 77, 127, 120, 81, 123, 1, 0.786454
42, 3, wb, filler, NA, 999, 999, 6, 1, 78, 77, 127, 120, 81, 123, 2, 0.458241
42, 3, wb, attraction, a-b-db, 5, 3, 6, 2, 117, 190, 195, 120, 120, 195, 1, 0.877383
42, 3, wb, attraction, a-b-db, 5, 3, 6, 2, 117, 190, 195, 120, 120, 195, 3, 0.521014
42, 3, wb, attraction, a-b-da, 9, 3, 6, 3, 195, 120, 120, 195, 186, 114, 1, 0.530151
42, 3, wb, attraction, a-b-da, 9, 3, 6, 3, 195, 120, 120, 195, 186, 114, 2, 0.459939
42, 3, wb, attraction, a-b-db, 9, 3, 6, 4, 120, 195, 114, 186, 195, 120, 1, 0.687015
42, 3, wb, attraction, a-b-db, 9, 3, 6, 4, 120, 195, 114, 186, 195, 120, 3, 0.610988
42, 3, wb, attraction, a-b-db, 2, 1, 6, 5, 135, 60, 60, 135, 59, 134, 1, 0.576092
42, 3, wb, attraction, a-b-db, 2, 1, 6, 5, 135, 60, 60, 135, 59, 134, 2, 0.831872
42, 3, wb, filler, NA, 999, 999, 6, 6, 179, 183, 101, 99, 104, 68, 2, 1.33205
42, 3, wb, filler, NA, 999, 999, 6, 6, 179, 183, 101, 99, 104, 68, 1, 0.501629
42, 3, wb, filler, NA, 999, 999, 6, 7, 159, 97, 180, 60, 191, 100, 3, 0.583402
42, 3, wb, filler, NA, 999, 999, 6, 7, 159, 97, 180, 60, 191, 100, 1, 0.527198
42, 3, wb, filler, NA, 999, 999, 6, 8, 174, 61, 183, 170, 135, 185, 1, 0.919573
42, 3, wb, filler, NA, 999, 999, 6, 8, 174, 61, 183, 170, 135, 185, 2, 0.633932
42, 3, wb, filler, NA, 999, 999, 6, 9, 129, 74, 178, 119, 142, 158, 1, 0.774343
42, 3, wb, filler, NA, 999, 999, 6, 9, 129, 74, 178, 119, 142, 158, 2, 0.470253
42, 3, wb, attraction, a-b-db, 14, 2, 6, 10, 90, 165, 83, 153, 165, 90, 1, 0.921319
42, 3, wb, attraction, a-b-db, 14, 2, 6, 10, 90, 165, 83, 153, 165, 90, 3, 0.955728
42, 3, wb, catch, NA, 999, 999, 6, 11, 147, 168, 126, 129, 78, 117, 3, 0.939411
42, 3, wb, catch, NA, 999, 999, 6, 11, 147, 168, 126, 129, 78, 117, 1, 0.35623
42, 3, wb, attraction, a-b-db, 5, 2, 6, 12, 165, 90, 90, 165, 88, 161, 1, 1.08484
42, 3, wb, attraction, a-b-db, 5, 2, 6, 12, 165, 90, 90, 165, 88, 161, 2, 0.527755
42, 3, wb, attraction, a-b-da, 9, 1, 6, 13, 135, 60, 129, 57, 60, 135, 1, 0.840124
42, 3, wb, attraction, a-b-da, 9, 1, 6, 13, 135, 60, 129, 57, 60, 135, 3, 0.717299
42, 3, wb, attraction, a-b-db, 9, 1, 6, 14, 60, 135, 57, 129, 135, 60, 1, 0.894302
42, 3, wb, attraction, a-b-db, 9, 1, 6, 14, 60, 135, 57, 129, 135, 60, 3, 0.497456
42, 3, wb, filler, NA, 999, 999, 6, 15, 104, 147, 132, 156, 174, 195, 1, 0.483093
42, 3, wb, filler, NA, 999, 999, 6, 15, 104, 147, 132, 156, 174, 195, 3, 0.494926
42, 3, wb, attraction, a-b-da, 2, 3, 6, 16, 120, 195, 193, 119, 195, 120, 1, 0.336658
42, 3, wb, attraction, a-b-da, 2, 3, 6, 16, 120, 195, 193, 119, 195, 120, 3, 0.498613
42, 3, wb, attraction, a-b-da, 9, 2, 6, 17, 165, 90, 157, 86, 90, 165, 1, 0.500375
42, 3, wb, attraction, a-b-da, 9, 2, 6, 17, 165, 90, 157, 86, 90, 165, 2, 0.50358
42, 3, wb, attraction, a-b-db, 9, 2, 6, 18, 86, 157, 90, 165, 165, 90, 1, 0.857349
42, 3, wb, attraction, a-b-db, 9, 2, 6, 18, 86, 157, 90, 165, 165, 90, 3, 0.677647
42, 3, wb, attraction, a-b-da, 2, 1, 6, 19, 134, 59, 135, 60, 60, 135, 1, 1.06404
42, 3, wb, attraction, a-b-da, 2, 1, 6, 19, 134, 59, 135, 60, 60, 135, 2, 0.868294
42, 3, wb, attraction, a-b-da, 14, 1, 6, 20, 60, 135, 125, 56, 135, 60, 1, 0.703378
42, 3, wb, attraction, a-b-da, 14, 1, 6, 20, 60, 135, 125, 56, 135, 60, 3, 0.874512
42, 3, wb, attraction, a-b-da, 5, 1, 6, 21, 60, 135, 132, 58, 135, 60, 1, 0.964849
42, 3, wb, attraction, a-b-da, 5, 1, 6, 21, 60, 135, 132, 58, 135, 60, 2, 1.17315
42, 3, wb, attraction, a-b-db, 2, 3, 6, 22, 120, 195, 195, 120, 119, 193, 1, 0.699963
42, 3, wb, attraction, a-b-db, 2, 3, 6, 22, 120, 195, 195, 120, 119, 193, 3, 0.639132
42, 3, wb, attraction, a-b-da, 14, 2, 6, 23, 153, 83, 165, 90, 90, 165, 1, 1.0755
42, 3, wb, attraction, a-b-da, 14, 2, 6, 23, 153, 83, 165, 90, 90, 165, 2, 0.895217
42, 3, wb, catch, NA, 999, 999, 6, 24, 171, 144, 155, 100, 61, 134, 3, 1.54482
42, 3, wb, catch, NA, 999, 999, 6, 24, 171, 144, 155, 100, 61, 134, 1, 0.31365
42, 3, wb, attraction, a-b-db, 5, 1, 6, 25, 135, 60, 60, 135, 58, 132, 3, 0.554755
42, 3, wb, attraction, a-b-db, 5, 1, 6, 25, 135, 60, 60, 135, 58, 132, 1, 0.675272
42, 3, wb, filler, NA, 999, 999, 6, 26, 108, 155, 77, 71, 158, 128, 1, 0.749732
42, 3, wb, filler, NA, 999, 999, 6, 26, 108, 155, 77, 71, 158, 128, 3, 1.86282
42, 3, wb, filler, NA, 999, 999, 6, 27, 131, 92, 56, 145, 77, 134, 1, 2.26553
42, 3, wb, filler, NA, 999, 999, 6, 27, 131, 92, 56, 145, 77, 134, 3, 0.637475
42, 3, wb, attraction, a-b-db, 14, 1, 6, 28, 60, 135, 135, 60, 56, 125, 3, 2.35396
42, 3, wb, attraction, a-b-db, 14, 1, 6, 28, 60, 135, 135, 60, 56, 125, 1, 0.930412
42, 3, wb, catch, NA, 999, 999, 6, 29, 127, 128, 79, 116, 142, 173, 2, 1.20274
42, 3, wb, catch, NA, 999, 999, 6, 29, 127, 128, 79, 116, 142, 173, 3, 0.56161
42, 3, wb, attraction, a-b-db, 14, 3, 6, 30, 195, 120, 120, 195, 111, 181, 1, 1.25678
42, 3, wb, attraction, a-b-db, 14, 3, 6, 30, 195, 120, 120, 195, 111, 181, 2, 0.581143
42, 3, wb, filler, NA, 999, 999, 6, 31, 121, 90, 70, 126, 58, 137, 1, 1.78744
42, 3, wb, filler, NA, 999, 999, 6, 31, 121, 90, 70, 126, 58, 137, 3, 0.722851
42, 3, wb, attraction, a-b-da, 2, 2, 6, 32, 163, 89, 90, 165, 165, 90, 3, 1.45186
42, 3, wb, attraction, a-b-da, 2, 2, 6, 32, 163, 89, 90, 165, 165, 90, 1, 0.688706
42, 3, wb, attraction, a-b-da, 14, 3, 6, 33, 195, 120, 120, 195, 181, 111, 3, 1.13909
42, 3, wb, attraction, a-b-da, 14, 3, 6, 33, 195, 120, 120, 195, 181, 111, 2, 0.420091
42, 3, wb, filler, NA, 999, 999, 6, 34, 168, 171, 188, 73, 132, 183, 3, 2.30517
42, 3, wb, filler, NA, 999, 999, 6, 34, 168, 171, 188, 73, 132, 183, 1, 0.451863
42, 3, wb, attraction, a-b-db, 2, 2, 6, 35, 89, 163, 165, 90, 90, 165, 1, 4.28773
42, 3, wb, attraction, a-b-db, 2, 2, 6, 35, 89, 163, 165, 90, 90, 165, 2, 0.530202
42, 3, wb, attraction, a-b-da, 5, 2, 6, 36, 161, 88, 165, 90, 90, 165, 1, 1.16269
42, 3, wb, attraction, a-b-da, 5, 2, 6, 36, 161, 88, 165, 90, 90, 165, 3, 0.634873
42, 3, wb, attraction, a-b-da, 5, 3, 6, 37, 190, 117, 195, 120, 120, 195, 1, 0.583325
42, 3, wb, attraction, a-b-da, 5, 3, 6, 37, 190, 117, 195, 120, 120, 195, 2, 0.415275
42, 3, wb, attraction, a-b-da, 5, 3, 7, 1, 195, 120, 190, 117, 120, 195, 1, 0.94037
42, 3, wb, attraction, a-b-da, 5, 3, 7, 1, 195, 120, 190, 117, 120, 195, 3, 0.661353
42, 3, wb, attraction, a-b-db, 2, 2, 7, 2, 165, 90, 90, 165, 89, 163, 1, 0.768391
42, 3, wb, attraction, a-b-db, 2, 2, 7, 2, 165, 90, 90, 165, 89, 163, 2, 0.432833
42, 3, wb, filler, NA, 999, 999, 7, 3, 103, 117, 167, 186, 74, 187, 1, 0.757202
42, 3, wb, filler, NA, 999, 999, 7, 3, 103, 117, 167, 186, 74, 187, 2, 0.517616
42, 3, wb, attraction, a-b-da, 2, 1, 7, 4, 135, 60, 60, 135, 134, 59, 1, 0.622678
42, 3, wb, attraction, a-b-da, 2, 1, 7, 4, 135, 60, 60, 135, 134, 59, 3, 0.588569
42, 3, wb, catch, NA, 999, 999, 7, 5, 121, 194, 92, 103, 116, 139, 1, 0.378948
42, 3, wb, catch, NA, 999, 999, 7, 5, 121, 194, 92, 103, 116, 139, 2, 0.610792
42, 3, wb, attraction, a-b-da, 14, 1, 7, 6, 125, 56, 135, 60, 60, 135, 1, 1.28795
42, 3, wb, attraction, a-b-da, 14, 1, 7, 6, 125, 56, 135, 60, 60, 135, 3, 0.86752
42, 3, wb, attraction, a-b-db, 9, 2, 7, 7, 86, 157, 90, 165, 165, 90, 1, 0.798635
42, 3, wb, attraction, a-b-db, 9, 2, 7, 7, 86, 157, 90, 165, 165, 90, 2, 0.741609
42, 3, wb, filler, NA, 999, 999, 7, 8, 93, 110, 107, 134, 88, 158, 1, 1.07727
42, 3, wb, filler, NA, 999, 999, 7, 8, 93, 110, 107, 134, 88, 158, 3, 0.672981
42, 3, wb, attraction, a-b-db, 14, 1, 7, 9, 60, 135, 56, 125, 135, 60, 1, 0.667935
42, 3, wb, attraction, a-b-db, 14, 1, 7, 9, 60, 135, 56, 125, 135, 60, 3, 0.736452
42, 3, wb, attraction, a-b-da, 5, 1, 7, 10, 132, 58, 60, 135, 135, 60, 1, 0.536775
42, 3, wb, attraction, a-b-da, 5, 1, 7, 10, 132, 58, 60, 135, 135, 60, 2, 0.62656
42, 3, wb, filler, NA, 999, 999, 7, 11, 174, 102, 179, 69, 129, 79, 3, 1.43894
42, 3, wb, filler, NA, 999, 999, 7, 11, 174, 102, 179, 69, 129, 79, 1, 0.443862
42, 3, wb, attraction, a-b-da, 5, 2, 7, 12, 165, 90, 161, 88, 90, 165, 2, 1.35974
42, 3, wb, attraction, a-b-da, 5, 2, 7, 12, 165, 90, 161, 88, 90, 165, 1, 1.01585
42, 3, wb, attraction, a-b-db, 5, 1, 7, 13, 135, 60, 60, 135, 58, 132, 2, 0.972905
42, 3, wb, attraction, a-b-db, 5, 1, 7, 13, 135, 60, 60, 135, 58, 132, 1, 0.580495
42, 3, wb, attraction, a-b-da, 9, 3, 7, 14, 195, 120, 186, 114, 120, 195, 2, 0.858931
42, 3, wb, attraction, a-b-da, 9, 3, 7, 14, 195, 120, 186, 114, 120, 195, 3, 0.535319
42, 3, wb, attraction, a-b-db, 9, 1, 7, 15, 60, 135, 57, 129, 135, 60, 1, 0.863711
42, 3, wb, attraction, a-b-db, 9, 1, 7, 15, 60, 135, 57, 129, 135, 60, 2, 0.588227
42, 3, wb, attraction, a-b-da, 2, 2, 7, 16, 90, 165, 165, 90, 163, 89, 1, 1.37052
42, 3, wb, attraction, a-b-da, 2, 2, 7, 16, 90, 165, 165, 90, 163, 89, 3, 0.522858
42, 3, wb, filler, NA, 999, 999, 7, 17, 80, 109, 89, 193, 57, 63, 1, 0.363837
42, 3, wb, filler, NA, 999, 999, 7, 17, 80, 109, 89, 193, 57, 63, 2, 0.660348
42, 3, wb, attraction, a-b-db, 14, 3, 7, 18, 120, 195, 111, 181, 195, 120, 1, 1.35155
42, 3, wb, attraction, a-b-db, 14, 3, 7, 18, 120, 195, 111, 181, 195, 120, 2, 1.0243
42, 3, wb, attraction, a-b-db, 2, 1, 7, 19, 135, 60, 60, 135, 59, 134, 1, 1.24464
42, 3, wb, attraction, a-b-db, 2, 1, 7, 19, 135, 60, 60, 135, 59, 134, 2, 0.481484
42, 3, wb, filler, NA, 999, 999, 7, 20, 167, 135, 124, 95, 130, 129, 1, 1.13999
42, 3, wb, filler, NA, 999, 999, 7, 20, 167, 135, 124, 95, 130, 129, 2, 0.484908
42, 3, wb, attraction, a-b-db, 5, 3, 7, 21, 120, 195, 117, 190, 195, 120, 1, 0.631475
42, 3, wb, attraction, a-b-db, 5, 3, 7, 21, 120, 195, 117, 190, 195, 120, 3, 0.645255
42, 3, wb, filler, NA, 999, 999, 7, 22, 182, 104, 82, 188, 174, 184, 2, 1.57691
42, 3, wb, filler, NA, 999, 999, 7, 22, 182, 104, 82, 188, 174, 184, 3, 0.408465
42, 3, wb, filler, NA, 999, 999, 7, 23, 61, 99, 88, 124, 164, 180, 1, 0.973589
42, 3, wb, filler, NA, 999, 999, 7, 23, 61, 99, 88, 124, 164, 180, 3, 0.461244
42, 3, wb, attraction, a-b-da, 9, 1, 7, 24, 135, 60, 129, 57, 60, 135, 1, 0.632297
42, 3, wb, attraction, a-b-da, 9, 1, 7, 24, 135, 60, 129, 57, 60, 135, 3, 1.04612
42, 3, wb, attraction, a-b-da, 14, 3, 7, 25, 195, 120, 181, 111, 120, 195, 1, 0.52969
42, 3, wb, attraction, a-b-da, 14, 3, 7, 25, 195, 120, 181, 111, 120, 195, 2, 0.507485
42, 3, wb, attraction, a-b-db, 5, 2, 7, 26, 90, 165, 88, 161, 165, 90, 1, 0.89278
42, 3, wb, attraction, a-b-db, 5, 2, 7, 26, 90, 165, 88, 161, 165, 90, 3, 1.19162
42, 3, wb, catch, NA, 999, 999, 7, 27, 115, 80, 98, 157, 187, 128, 1, 0.67723
42, 3, wb, catch, NA, 999, 999, 7, 27, 115, 80, 98, 157, 187, 128, 3, 0.624948
42, 3, wb, catch, NA, 999, 999, 7, 28, 186, 129, 100, 155, 60, 135, 3, 1.14142
42, 3, wb, catch, NA, 999, 999, 7, 28, 186, 129, 100, 155, 60, 135, 1, 0.430464
42, 3, wb, attraction, a-b-da, 9, 2, 7, 29, 157, 86, 165, 90, 90, 165, 2, 0.762836
42, 3, wb, attraction, a-b-da, 9, 2, 7, 29, 157, 86, 165, 90, 90, 165, 3, 0.37123
42, 3, wb, filler, NA, 999, 999, 7, 30, 192, 185, 138, 68, 183, 99, 1, 0.386408
42, 3, wb, filler, NA, 999, 999, 7, 30, 192, 185, 138, 68, 183, 99, 2, 0.642204
42, 3, wb, attraction, a-b-da, 14, 2, 7, 31, 90, 165, 153, 83, 165, 90, 3, 2.51801
42, 3, wb, attraction, a-b-da, 14, 2, 7, 31, 90, 165, 153, 83, 165, 90, 1, 0.447856
42, 3, wb, attraction, a-b-db, 14, 2, 7, 32, 165, 90, 90, 165, 83, 153, 3, 1.09973
42, 3, wb, attraction, a-b-db, 14, 2, 7, 32, 165, 90, 90, 165, 83, 153, 1, 0.750622
42, 3, wb, filler, NA, 999, 999, 7, 33, 60, 111, 169, 115, 171, 195, 1, 1.00643
42, 3, wb, filler, NA, 999, 999, 7, 33, 60, 111, 169, 115, 171, 195, 3, 0.676734
42, 3, wb, filler, NA, 999, 999, 7, 34, 110, 86, 93, 121, 188, 119, 2, 1.87111
42, 3, wb, filler, NA, 999, 999, 7, 34, 110, 86, 93, 121, 188, 119, 3, 0.467067
42, 3, wb, attraction, a-b-db, 2, 3, 7, 35, 119, 193, 120, 195, 195, 120, 3, 2.53426
42, 3, wb, attraction, a-b-db, 2, 3, 7, 35, 119, 193, 120, 195, 195, 120, 2, 0.487357
42, 3, wb, attraction, a-b-da, 2, 3, 7, 36, 195, 120, 120, 195, 193, 119, 1, 2.0979
42, 3, wb, attraction, a-b-da, 2, 3, 7, 36, 195, 120, 120, 195, 193, 119, 3, 1.51658
42, 3, wb, attraction, a-b-db, 9, 3, 7, 37, 120, 195, 195, 120, 114, 186, 1, 0.941329
42, 3, wb, attraction, a-b-db, 9, 3, 7, 37, 120, 195, 195, 120, 114, 186, 2, 0.558382
42, 3, wb, filler, NA, 999, 999, 8, 1, 88, 125, 64, 114, 110, 144, 2, 1.18145
42, 3, wb, filler, NA, 999, 999, 8, 1, 88, 125, 64, 114, 110, 144, 3, 0.56509
42, 3, wb, catch, NA, 999, 999, 8, 2, 134, 181, 121, 134, 62, 133, 3, 0.908196
42, 3, wb, catch, NA, 999, 999, 8, 2, 134, 181, 121, 134, 62, 133, 1, 0.494652
42, 3, wb, filler, NA, 999, 999, 8, 3, 74, 105, 183, 78, 75, 97, 1, 1.36822
42, 3, wb, filler, NA, 999, 999, 8, 3, 74, 105, 183, 78, 75, 97, 2, 0.392491
42, 3, wb, filler, NA, 999, 999, 8, 4, 94, 56, 160, 120, 166, 123, 1, 0.67023
42, 3, wb, filler, NA, 999, 999, 8, 4, 94, 56, 160, 120, 166, 123, 3, 0.842911
42, 3, wb, filler, NA, 999, 999, 8, 5, 148, 59, 170, 128, 192, 83, 1, 0.510375
42, 3, wb, filler, NA, 999, 999, 8, 5, 148, 59, 170, 128, 192, 83, 3, 0.440932
42, 3, wb, catch, NA, 999, 999, 8, 6, 119, 136, 69, 126, 164, 151, 2, 0.748698
42, 3, wb, catch, NA, 999, 999, 8, 6, 119, 136, 69, 126, 164, 151, 3, 0.397802
42, 3, wb, attraction, a-b-db, 5, 2, 8, 7, 165, 90, 90, 165, 88, 161, 2, 0.571626
42, 3, wb, attraction, a-b-db, 5, 2, 8, 7, 165, 90, 90, 165, 88, 161, 1, 0.331337
42, 3, wb, attraction, a-b-da, 2, 1, 8, 8, 135, 60, 134, 59, 60, 135, 2, 0.499887
42, 3, wb, attraction, a-b-da, 2, 1, 8, 8, 135, 60, 134, 59, 60, 135, 3, 0.351225
42, 3, wb, attraction, a-b-db, 14, 1, 8, 9, 56, 125, 60, 135, 135, 60, 2, 0.918896
42, 3, wb, attraction, a-b-db, 14, 1, 8, 9, 56, 125, 60, 135, 135, 60, 1, 1.15328
42, 3, wb, attraction, a-b-da, 9, 1, 8, 10, 60, 135, 129, 57, 135, 60, 2, 0.664798
42, 3, wb, attraction, a-b-da, 9, 1, 8, 10, 60, 135, 129, 57, 135, 60, 3, 0.693332
42, 3, wb, filler, NA, 999, 999, 8, 11, 129, 103, 109, 97, 75, 122, 2, 1.01505
42, 3, wb, filler, NA, 999, 999, 8, 11, 129, 103, 109, 97, 75, 122, 1, 0.405207
42, 3, wb, attraction, a-b-db, 9, 1, 8, 12, 57, 129, 60, 135, 135, 60, 2, 0.363068
42, 3, wb, attraction, a-b-db, 9, 1, 8, 12, 57, 129, 60, 135, 135, 60, 1, 0.859697
42, 3, wb, attraction, a-b-db, 9, 2, 8, 13, 90, 165, 165, 90, 86, 157, 2, 0.462621
42, 3, wb, attraction, a-b-db, 9, 2, 8, 13, 90, 165, 165, 90, 86, 157, 3, 0.347155
42, 3, wb, attraction, a-b-da, 14, 3, 8, 14, 195, 120, 120, 195, 181, 111, 2, 0.931062
42, 3, wb, attraction, a-b-da, 14, 3, 8, 14, 195, 120, 120, 195, 181, 111, 1, 0.340602
42, 3, wb, attraction, a-b-da, 5, 1, 8, 15, 135, 60, 132, 58, 60, 135, 1, 0.876433
42, 3, wb, attraction, a-b-da, 5, 1, 8, 15, 135, 60, 132, 58, 60, 135, 2, 0.472256
42, 3, wb, filler, NA, 999, 999, 8, 16, 169, 146, 130, 69, 170, 157, 2, 1.03535
42, 3, wb, filler, NA, 999, 999, 8, 16, 169, 146, 130, 69, 170, 157, 1, 0.369059
42, 3, wb, attraction, a-b-da, 5, 3, 8, 17, 120, 195, 195, 120, 190, 117, 2, 0.448169
42, 3, wb, attraction, a-b-da, 5, 3, 8, 17, 120, 195, 195, 120, 190, 117, 3, 0.453308
42, 3, wb, attraction, a-b-da, 5, 2, 8, 18, 165, 90, 90, 165, 161, 88, 2, 0.617176
42, 3, wb, attraction, a-b-da, 5, 2, 8, 18, 165, 90, 90, 165, 161, 88, 1, 0.799531
42, 3, wb, filler, NA, 999, 999, 8, 19, 60, 134, 57, 108, 191, 63, 2, 0.341185
42, 3, wb, filler, NA, 999, 999, 8, 19, 60, 134, 57, 108, 191, 63, 1, 0.934406
42, 3, wb, attraction, a-b-db, 2, 1, 8, 20, 135, 60, 60, 135, 59, 134, 2, 0.566711
42, 3, wb, attraction, a-b-db, 2, 1, 8, 20, 135, 60, 60, 135, 59, 134, 3, 0.367345
42, 3, wb, attraction, a-b-db, 2, 2, 8, 21, 165, 90, 90, 165, 89, 163, 2, 0.73455
42, 3, wb, attraction, a-b-db, 2, 2, 8, 21, 165, 90, 90, 165, 89, 163, 1, 0.528084
42, 3, wb, attraction, a-b-da, 2, 2, 8, 22, 163, 89, 165, 90, 90, 165, 2, 0.392616
42, 3, wb, attraction, a-b-da, 2, 2, 8, 22, 163, 89, 165, 90, 90, 165, 1, 0.415745
42, 3, wb, filler, NA, 999, 999, 8, 23, 104, 104, 68, 85, 158, 176, 2, 0.500812
42, 3, wb, filler, NA, 999, 999, 8, 23, 104, 104, 68, 85, 158, 176, 3, 0.40807
42, 3, wb, attraction, a-b-db, 14, 2, 8, 24, 90, 165, 83, 153, 165, 90, 2, 0.517205
42, 3, wb, attraction, a-b-db, 14, 2, 8, 24, 90, 165, 83, 153, 165, 90, 3, 0.463637
42, 3, wb, attraction, a-b-da, 9, 2, 8, 25, 165, 90, 157, 86, 90, 165, 2, 0.522853
42, 3, wb, attraction, a-b-da, 9, 2, 8, 25, 165, 90, 157, 86, 90, 165, 1, 0.396594
42, 3, wb, attraction, a-b-da, 14, 1, 8, 26, 60, 135, 135, 60, 125, 56, 2, 0.498415
42, 3, wb, attraction, a-b-da, 14, 1, 8, 26, 60, 135, 135, 60, 125, 56, 3, 0.389666
42, 3, wb, attraction, a-b-db, 5, 1, 8, 27, 135, 60, 60, 135, 58, 132, 2, 0.324065
42, 3, wb, attraction, a-b-db, 5, 1, 8, 27, 135, 60, 60, 135, 58, 132, 3, 0.629996
42, 3, wb, filler, NA, 999, 999, 8, 28, 136, 61, 103, 167, 163, 152, 2, 0.386278
42, 3, wb, filler, NA, 999, 999, 8, 28, 136, 61, 103, 167, 163, 152, 1, 0.434284
42, 3, wb, attraction, a-b-db, 5, 3, 8, 29, 117, 190, 195, 120, 120, 195, 2, 0.302591
42, 3, wb, attraction, a-b-db, 5, 3, 8, 29, 117, 190, 195, 120, 120, 195, 3, 0.377851
42, 3, wb, attraction, a-b-da, 2, 3, 8, 30, 195, 120, 193, 119, 120, 195, 2, 0.304317
42, 3, wb, attraction, a-b-da, 2, 3, 8, 30, 195, 120, 193, 119, 120, 195, 3, 0.443532
42, 3, wb, attraction, a-b-da, 9, 3, 8, 31, 186, 114, 120, 195, 195, 120, 2, 0.471603
42, 3, wb, attraction, a-b-da, 9, 3, 8, 31, 186, 114, 120, 195, 195, 120, 1, 0.36323
42, 3, wb, attraction, a-b-db, 9, 3, 8, 32, 195, 120, 114, 186, 120, 195, 1, 1.28243
42, 3, wb, attraction, a-b-db, 9, 3, 8, 32, 195, 120, 114, 186, 120, 195, 3, 0.350011
42, 3, wb, attraction, a-b-db, 2, 3, 8, 33, 119, 193, 120, 195, 195, 120, 2, 0.373801
42, 3, wb, attraction, a-b-db, 2, 3, 8, 33, 119, 193, 120, 195, 195, 120, 1, 0.3576
42, 3, wb, filler, NA, 999, 999, 8, 34, 193, 77, 110, 159, 182, 127, 3, 0.548928
42, 3, wb, filler, NA, 999, 999, 8, 34, 193, 77, 110, 159, 182, 127, 1, 0.557926
42, 3, wb, attraction, a-b-db, 14, 3, 8, 35, 195, 120, 111, 181, 120, 195, 2, 0.668977
42, 3, wb, attraction, a-b-db, 14, 3, 8, 35, 195, 120, 111, 181, 120, 195, 3, 0.665436
42, 3, wb, catch, NA, 999, 999, 8, 36, 160, 95, 138, 177, 110, 85, 3, 1.50052
42, 3, wb, catch, NA, 999, 999, 8, 36, 160, 95, 138, 177, 110, 85, 2, 0.623343
42, 3, wb, attraction, a-b-da, 14, 2, 8, 37, 153, 83, 90, 165, 165, 90, 1, 0.68443
42, 3, wb, attraction, a-b-da, 14, 2, 8, 37, 153, 83, 90, 165, 165, 90, 3, 0.568329
