sub_n, computer_n, bw_cond, effect, set, distance, diag, block_n, trial_n, h1, w1, h2, w2, h3, w3, choice, rt 
5, 3, bw, practice, NA, 999, 999, 0, 1, 70, 166, 184, 174, 175, 191, 3, 2.42535
5, 3, bw, practice, NA, 999, 999, 0, 1, 70, 166, 184, 174, 175, 191, 1, 2.32332
5, 3, bw, practice, NA, 999, 999, 0, 2, 64, 155, 127, 149, 180, 140, 3, 1.98192
5, 3, bw, practice, NA, 999, 999, 0, 2, 64, 155, 127, 149, 180, 140, 1, 1.0706
5, 3, bw, practice, NA, 999, 999, 0, 3, 64, 190, 176, 105, 147, 143, 3, 2.66866
5, 3, bw, practice, NA, 999, 999, 0, 3, 64, 190, 176, 105, 147, 143, 1, 1.06543
5, 3, bw, attraction, a-b-da, 9, 3, 1, 1, 120, 195, 195, 120, 186, 114, 1, 2.41791
5, 3, bw, attraction, a-b-da, 9, 3, 1, 1, 120, 195, 195, 120, 186, 114, 3, 2.32778
5, 3, bw, filler, NA, 999, 999, 1, 2, 98, 169, 179, 65, 111, 77, 1, 1.62504
5, 3, bw, filler, NA, 999, 999, 1, 2, 98, 169, 179, 65, 111, 77, 3, 2.02405
5, 3, bw, filler, NA, 999, 999, 1, 3, 88, 129, 159, 140, 101, 75, 2, 1.41968
5, 3, bw, filler, NA, 999, 999, 1, 3, 88, 129, 159, 140, 101, 75, 3, 1.16122
5, 3, bw, filler, NA, 999, 999, 1, 4, 104, 131, 57, 64, 114, 160, 3, 1.73825
5, 3, bw, filler, NA, 999, 999, 1, 4, 104, 131, 57, 64, 114, 160, 2, 0.971755
5, 3, bw, filler, NA, 999, 999, 1, 5, 168, 72, 114, 109, 118, 62, 2, 3.05727
5, 3, bw, filler, NA, 999, 999, 1, 5, 168, 72, 114, 109, 118, 62, 3, 0.936241
5, 3, bw, filler, NA, 999, 999, 1, 6, 59, 83, 123, 153, 121, 124, 2, 1.39018
5, 3, bw, filler, NA, 999, 999, 1, 6, 59, 83, 123, 153, 121, 124, 1, 0.679076
5, 3, bw, attraction, a-b-da, 14, 2, 1, 7, 90, 165, 165, 90, 153, 83, 1, 2.60855
5, 3, bw, attraction, a-b-da, 14, 2, 1, 7, 90, 165, 165, 90, 153, 83, 3, 1.10615
5, 3, bw, catch, NA, 999, 999, 1, 8, 128, 127, 149, 166, 82, 113, 2, 1.18715
5, 3, bw, catch, NA, 999, 999, 1, 8, 128, 127, 149, 166, 82, 113, 3, 0.584657
5, 3, bw, filler, NA, 999, 999, 1, 9, 160, 86, 143, 113, 180, 65, 2, 4.27341
5, 3, bw, filler, NA, 999, 999, 1, 9, 160, 86, 143, 113, 180, 65, 3, 3.47688
5, 3, bw, attraction, a-b-db, 5, 2, 1, 10, 165, 90, 88, 161, 90, 165, 3, 5.678
5, 3, bw, attraction, a-b-db, 5, 2, 1, 10, 165, 90, 88, 161, 90, 165, 1, 3.12981
5, 3, bw, attraction, a-b-db, 9, 1, 1, 11, 135, 60, 60, 135, 57, 129, 2, 4.69724
5, 3, bw, attraction, a-b-db, 9, 1, 1, 11, 135, 60, 60, 135, 57, 129, 1, 3.89835
5, 3, bw, attraction, a-b-db, 9, 3, 1, 12, 114, 186, 120, 195, 195, 120, 3, 6.05938
5, 3, bw, attraction, a-b-db, 9, 3, 1, 12, 114, 186, 120, 195, 195, 120, 1, 0.621924
5, 3, bw, filler, NA, 999, 999, 1, 13, 153, 123, 173, 134, 127, 116, 2, 1.35607
5, 3, bw, filler, NA, 999, 999, 1, 13, 153, 123, 173, 134, 127, 116, 3, 0.603889
5, 3, bw, attraction, a-b-da, 5, 2, 1, 14, 161, 88, 90, 165, 165, 90, 3, 3.00891
5, 3, bw, attraction, a-b-da, 5, 2, 1, 14, 161, 88, 90, 165, 165, 90, 1, 1.03993
5, 3, bw, attraction, a-b-db, 2, 3, 1, 15, 119, 193, 195, 120, 120, 195, 1, 4.9397
5, 3, bw, attraction, a-b-db, 2, 3, 1, 15, 119, 193, 195, 120, 120, 195, 2, 0.662191
5, 3, bw, attraction, a-b-db, 5, 3, 1, 16, 195, 120, 117, 190, 120, 195, 1, 4.2019
5, 3, bw, attraction, a-b-db, 5, 3, 1, 16, 195, 120, 117, 190, 120, 195, 2, 0.727898
5, 3, bw, attraction, a-b-da, 14, 1, 1, 17, 135, 60, 60, 135, 125, 56, 2, 3.05136
5, 3, bw, attraction, a-b-da, 14, 1, 1, 17, 135, 60, 60, 135, 125, 56, 3, 0.555835
5, 3, bw, filler, NA, 999, 999, 1, 18, 76, 138, 116, 179, 70, 172, 2, 1.03695
5, 3, bw, filler, NA, 999, 999, 1, 18, 76, 138, 116, 179, 70, 172, 3, 0.664861
5, 3, bw, attraction, a-b-db, 14, 2, 1, 19, 83, 153, 165, 90, 90, 165, 3, 2.50042
5, 3, bw, attraction, a-b-db, 14, 2, 1, 19, 83, 153, 165, 90, 90, 165, 1, 1.8962
5, 3, bw, attraction, a-b-da, 5, 1, 1, 20, 60, 135, 132, 58, 135, 60, 1, 2.77834
5, 3, bw, attraction, a-b-da, 5, 1, 1, 20, 60, 135, 132, 58, 135, 60, 2, 0.705161
5, 3, bw, attraction, a-b-da, 9, 2, 1, 21, 157, 86, 90, 165, 165, 90, 2, 2.00322
5, 3, bw, attraction, a-b-da, 9, 2, 1, 21, 157, 86, 90, 165, 165, 90, 1, 1.08192
5, 3, bw, attraction, a-b-da, 9, 1, 1, 22, 135, 60, 60, 135, 129, 57, 1, 2.15457
5, 3, bw, attraction, a-b-da, 9, 1, 1, 22, 135, 60, 60, 135, 129, 57, 3, 0.915634
5, 3, bw, attraction, a-b-db, 5, 1, 1, 23, 58, 132, 60, 135, 135, 60, 2, 4.02083
5, 3, bw, attraction, a-b-db, 5, 1, 1, 23, 58, 132, 60, 135, 135, 60, 1, 1.70107
5, 3, bw, attraction, a-b-db, 2, 1, 1, 24, 60, 135, 135, 60, 59, 134, 3, 3.74776
5, 3, bw, attraction, a-b-db, 2, 1, 1, 24, 60, 135, 135, 60, 59, 134, 2, 1.30777
5, 3, bw, attraction, a-b-db, 9, 2, 1, 25, 165, 90, 86, 157, 90, 165, 3, 5.80531
5, 3, bw, attraction, a-b-db, 9, 2, 1, 25, 165, 90, 86, 157, 90, 165, 2, 0.521251
5, 3, bw, attraction, a-b-db, 14, 3, 1, 26, 120, 195, 111, 181, 195, 120, 3, 3.48331
5, 3, bw, attraction, a-b-db, 14, 3, 1, 26, 120, 195, 111, 181, 195, 120, 2, 1.60669
5, 3, bw, attraction, a-b-da, 2, 2, 1, 27, 163, 89, 165, 90, 90, 165, 3, 1.95444
5, 3, bw, attraction, a-b-da, 2, 2, 1, 27, 163, 89, 165, 90, 90, 165, 2, 3.15632
5, 3, bw, attraction, a-b-da, 2, 1, 1, 28, 135, 60, 60, 135, 134, 59, 2, 3.73932
5, 3, bw, attraction, a-b-da, 2, 1, 1, 28, 135, 60, 60, 135, 134, 59, 3, 2.84443
5, 3, bw, attraction, a-b-db, 2, 2, 1, 29, 90, 165, 165, 90, 89, 163, 3, 5.07996
5, 3, bw, attraction, a-b-db, 2, 2, 1, 29, 90, 165, 165, 90, 89, 163, 2, 1.46748
5, 3, bw, catch, NA, 999, 999, 1, 30, 105, 90, 167, 148, 150, 105, 2, 1.50825
5, 3, bw, catch, NA, 999, 999, 1, 30, 105, 90, 167, 148, 150, 105, 1, 0.738135
5, 3, bw, filler, NA, 999, 999, 1, 31, 73, 174, 152, 154, 124, 153, 2, 1.44798
5, 3, bw, filler, NA, 999, 999, 1, 31, 73, 174, 152, 154, 124, 153, 1, 0.620538
5, 3, bw, attraction, a-b-da, 14, 3, 1, 32, 120, 195, 195, 120, 181, 111, 1, 1.67563
5, 3, bw, attraction, a-b-da, 14, 3, 1, 32, 120, 195, 195, 120, 181, 111, 3, 0.559582
5, 3, bw, filler, NA, 999, 999, 1, 33, 140, 103, 74, 180, 152, 67, 2, 1.65565
5, 3, bw, filler, NA, 999, 999, 1, 33, 140, 103, 74, 180, 152, 67, 3, 0.684206
5, 3, bw, attraction, a-b-da, 5, 3, 1, 34, 195, 120, 120, 195, 190, 117, 1, 1.55703
5, 3, bw, attraction, a-b-da, 5, 3, 1, 34, 195, 120, 120, 195, 190, 117, 3, 0.695246
5, 3, bw, catch, NA, 999, 999, 1, 35, 163, 152, 69, 126, 161, 94, 1, 1.19273
5, 3, bw, catch, NA, 999, 999, 1, 35, 163, 152, 69, 126, 161, 94, 2, 0.561648
5, 3, bw, attraction, a-b-db, 14, 1, 1, 36, 60, 135, 56, 125, 135, 60, 2, 1.70411
5, 3, bw, attraction, a-b-db, 14, 1, 1, 36, 60, 135, 56, 125, 135, 60, 3, 1.71452
5, 3, bw, attraction, a-b-da, 2, 3, 1, 37, 120, 195, 195, 120, 193, 119, 2, 1.12557
5, 3, bw, attraction, a-b-da, 2, 3, 1, 37, 120, 195, 195, 120, 193, 119, 3, 1.39144
5, 3, bw, attraction, a-b-db, 14, 3, 2, 1, 111, 181, 120, 195, 195, 120, 2, 1.42901
5, 3, bw, attraction, a-b-db, 14, 3, 2, 1, 111, 181, 120, 195, 195, 120, 1, 0.625251
5, 3, bw, filler, NA, 999, 999, 2, 2, 172, 65, 118, 187, 59, 148, 2, 1.16736
5, 3, bw, filler, NA, 999, 999, 2, 2, 172, 65, 118, 187, 59, 148, 3, 0.553871
5, 3, bw, filler, NA, 999, 999, 2, 3, 183, 175, 159, 68, 152, 61, 1, 1.03962
5, 3, bw, filler, NA, 999, 999, 2, 3, 183, 175, 159, 68, 152, 61, 3, 0.669613
5, 3, bw, attraction, a-b-db, 14, 2, 2, 4, 90, 165, 165, 90, 83, 153, 1, 1.28777
5, 3, bw, attraction, a-b-db, 14, 2, 2, 4, 90, 165, 165, 90, 83, 153, 3, 0.874909
5, 3, bw, filler, NA, 999, 999, 2, 5, 191, 80, 155, 84, 68, 73, 1, 1.63086
5, 3, bw, filler, NA, 999, 999, 2, 5, 191, 80, 155, 84, 68, 73, 3, 0.533479
5, 3, bw, attraction, a-b-db, 9, 2, 2, 6, 86, 157, 165, 90, 90, 165, 3, 4.30843
5, 3, bw, attraction, a-b-db, 9, 2, 2, 6, 86, 157, 165, 90, 90, 165, 2, 1.18297
5, 3, bw, attraction, a-b-da, 2, 3, 2, 7, 193, 119, 120, 195, 195, 120, 2, 2.06273
5, 3, bw, attraction, a-b-da, 2, 3, 2, 7, 193, 119, 120, 195, 195, 120, 3, 1.06421
5, 3, bw, attraction, a-b-da, 9, 1, 2, 8, 135, 60, 60, 135, 129, 57, 2, 2.21215
5, 3, bw, attraction, a-b-da, 9, 1, 2, 8, 135, 60, 60, 135, 129, 57, 3, 1.33072
5, 3, bw, attraction, a-b-da, 14, 2, 2, 9, 165, 90, 90, 165, 153, 83, 1, 2.53888
5, 3, bw, attraction, a-b-da, 14, 2, 2, 9, 165, 90, 90, 165, 153, 83, 3, 0.763946
5, 3, bw, filler, NA, 999, 999, 2, 10, 92, 100, 73, 95, 135, 143, 3, 1.3166
5, 3, bw, filler, NA, 999, 999, 2, 10, 92, 100, 73, 95, 135, 143, 2, 0.648825
5, 3, bw, attraction, a-b-da, 5, 1, 2, 11, 60, 135, 135, 60, 132, 58, 2, 1.23452
5, 3, bw, attraction, a-b-da, 5, 1, 2, 11, 60, 135, 135, 60, 132, 58, 3, 1.9112
5, 3, bw, attraction, a-b-db, 2, 3, 2, 12, 119, 193, 120, 195, 195, 120, 3, 1.73086
5, 3, bw, attraction, a-b-db, 2, 3, 2, 12, 119, 193, 120, 195, 195, 120, 1, 1.16184
5, 3, bw, filler, NA, 999, 999, 2, 13, 183, 194, 89, 117, 172, 104, 1, 1.10702
5, 3, bw, filler, NA, 999, 999, 2, 13, 183, 194, 89, 117, 172, 104, 2, 0.579619
5, 3, bw, catch, NA, 999, 999, 2, 14, 121, 74, 134, 181, 97, 158, 2, 1.01939
5, 3, bw, catch, NA, 999, 999, 2, 14, 121, 74, 134, 181, 97, 158, 1, 0.595675
5, 3, bw, attraction, a-b-db, 2, 2, 2, 15, 165, 90, 90, 165, 89, 163, 3, 2.03926
5, 3, bw, attraction, a-b-db, 2, 2, 2, 15, 165, 90, 90, 165, 89, 163, 1, 0.575316
5, 3, bw, attraction, a-b-db, 2, 1, 2, 16, 59, 134, 60, 135, 135, 60, 3, 2.29984
5, 3, bw, attraction, a-b-db, 2, 1, 2, 16, 59, 134, 60, 135, 135, 60, 1, 0.616831
5, 3, bw, filler, NA, 999, 999, 2, 17, 178, 153, 114, 66, 78, 121, 1, 1.06133
5, 3, bw, filler, NA, 999, 999, 2, 17, 178, 153, 114, 66, 78, 121, 2, 0.81778
5, 3, bw, attraction, a-b-db, 5, 2, 2, 18, 90, 165, 88, 161, 165, 90, 2, 1.22866
5, 3, bw, attraction, a-b-db, 5, 2, 2, 18, 90, 165, 88, 161, 165, 90, 1, 2.30145
5, 3, bw, attraction, a-b-db, 14, 1, 2, 19, 135, 60, 56, 125, 60, 135, 3, 1.98029
5, 3, bw, attraction, a-b-db, 14, 1, 2, 19, 135, 60, 56, 125, 60, 135, 1, 0.573117
5, 3, bw, filler, NA, 999, 999, 2, 20, 100, 125, 130, 107, 155, 124, 3, 1.33967
5, 3, bw, filler, NA, 999, 999, 2, 20, 100, 125, 130, 107, 155, 124, 1, 0.580668
5, 3, bw, filler, NA, 999, 999, 2, 21, 171, 112, 140, 80, 71, 127, 1, 1.20465
5, 3, bw, filler, NA, 999, 999, 2, 21, 171, 112, 140, 80, 71, 127, 3, 0.658404
5, 3, bw, attraction, a-b-db, 9, 1, 2, 22, 135, 60, 60, 135, 57, 129, 2, 1.13505
5, 3, bw, attraction, a-b-db, 9, 1, 2, 22, 135, 60, 60, 135, 57, 129, 3, 0.936716
5, 3, bw, attraction, a-b-db, 5, 3, 2, 23, 120, 195, 195, 120, 117, 190, 1, 1.30471
5, 3, bw, attraction, a-b-db, 5, 3, 2, 23, 120, 195, 195, 120, 117, 190, 3, 0.72409
5, 3, bw, filler, NA, 999, 999, 2, 24, 157, 176, 158, 59, 173, 93, 1, 1.17153
5, 3, bw, filler, NA, 999, 999, 2, 24, 157, 176, 158, 59, 173, 93, 2, 0.742541
5, 3, bw, attraction, a-b-da, 5, 3, 2, 25, 190, 117, 195, 120, 120, 195, 3, 1.50115
5, 3, bw, attraction, a-b-da, 5, 3, 2, 25, 190, 117, 195, 120, 120, 195, 1, 0.847899
5, 3, bw, filler, NA, 999, 999, 2, 26, 131, 85, 58, 67, 65, 100, 1, 1.01818
5, 3, bw, filler, NA, 999, 999, 2, 26, 131, 85, 58, 67, 65, 100, 2, 0.513894
5, 3, bw, attraction, a-b-db, 5, 1, 2, 27, 135, 60, 58, 132, 60, 135, 1, 2.14759
5, 3, bw, attraction, a-b-db, 5, 1, 2, 27, 135, 60, 58, 132, 60, 135, 3, 0.948289
5, 3, bw, catch, NA, 999, 999, 2, 28, 146, 109, 144, 171, 77, 118, 2, 1.46908
5, 3, bw, catch, NA, 999, 999, 2, 28, 146, 109, 144, 171, 77, 118, 3, 0.969027
5, 3, bw, attraction, a-b-da, 2, 2, 2, 29, 165, 90, 163, 89, 90, 165, 3, 1.90272
5, 3, bw, attraction, a-b-da, 2, 2, 2, 29, 165, 90, 163, 89, 90, 165, 2, 0.938173
5, 3, bw, attraction, a-b-da, 5, 2, 2, 30, 165, 90, 90, 165, 161, 88, 1, 1.62732
5, 3, bw, attraction, a-b-da, 5, 2, 2, 30, 165, 90, 90, 165, 161, 88, 3, 0.688581
5, 3, bw, attraction, a-b-da, 14, 3, 2, 31, 120, 195, 181, 111, 195, 120, 1, 1.75487
5, 3, bw, attraction, a-b-da, 14, 3, 2, 31, 120, 195, 181, 111, 195, 120, 2, 0.740902
5, 3, bw, attraction, a-b-db, 9, 3, 2, 32, 114, 186, 195, 120, 120, 195, 3, 1.62066
5, 3, bw, attraction, a-b-db, 9, 3, 2, 32, 114, 186, 195, 120, 120, 195, 1, 0.673483
5, 3, bw, attraction, a-b-da, 9, 3, 2, 33, 186, 114, 120, 195, 195, 120, 3, 1.37291
5, 3, bw, attraction, a-b-da, 9, 3, 2, 33, 186, 114, 120, 195, 195, 120, 1, 0.669658
5, 3, bw, attraction, a-b-da, 9, 2, 2, 34, 165, 90, 157, 86, 90, 165, 3, 1.78453
5, 3, bw, attraction, a-b-da, 9, 2, 2, 34, 165, 90, 157, 86, 90, 165, 2, 1.41521
5, 3, bw, attraction, a-b-da, 2, 1, 2, 35, 135, 60, 60, 135, 134, 59, 2, 1.09935
5, 3, bw, attraction, a-b-da, 2, 1, 2, 35, 135, 60, 60, 135, 134, 59, 1, 1.07868
5, 3, bw, attraction, a-b-da, 14, 1, 2, 36, 60, 135, 125, 56, 135, 60, 1, 1.58508
5, 3, bw, attraction, a-b-da, 14, 1, 2, 36, 60, 135, 125, 56, 135, 60, 2, 0.673105
5, 3, bw, catch, NA, 999, 999, 2, 37, 126, 189, 90, 105, 114, 141, 1, 1.00633
5, 3, bw, catch, NA, 999, 999, 2, 37, 126, 189, 90, 105, 114, 141, 2, 0.531195
5, 3, bw, attraction, a-b-db, 14, 2, 3, 1, 90, 165, 83, 153, 165, 90, 2, 1.04306
5, 3, bw, attraction, a-b-db, 14, 2, 3, 1, 90, 165, 83, 153, 165, 90, 1, 1.10465
5, 3, bw, attraction, a-b-db, 9, 3, 3, 2, 114, 186, 195, 120, 120, 195, 1, 1.61807
5, 3, bw, attraction, a-b-db, 9, 3, 3, 2, 114, 186, 195, 120, 120, 195, 2, 0.561515
5, 3, bw, filler, NA, 999, 999, 3, 3, 72, 65, 67, 141, 124, 171, 3, 1.0647
5, 3, bw, filler, NA, 999, 999, 3, 3, 72, 65, 67, 141, 124, 171, 1, 0.556613
5, 3, bw, attraction, a-b-db, 9, 2, 3, 4, 86, 157, 165, 90, 90, 165, 2, 1.66792
5, 3, bw, attraction, a-b-db, 9, 2, 3, 4, 86, 157, 165, 90, 90, 165, 1, 0.519915
5, 3, bw, attraction, a-b-db, 14, 1, 3, 5, 60, 135, 135, 60, 56, 125, 2, 0.999892
5, 3, bw, attraction, a-b-db, 14, 1, 3, 5, 60, 135, 135, 60, 56, 125, 3, 1.47315
5, 3, bw, filler, NA, 999, 999, 3, 6, 74, 166, 101, 142, 102, 175, 3, 1.0915
5, 3, bw, filler, NA, 999, 999, 3, 6, 74, 166, 101, 142, 102, 175, 1, 1.06419
5, 3, bw, filler, NA, 999, 999, 3, 7, 70, 116, 177, 91, 62, 70, 2, 2.18044
5, 3, bw, filler, NA, 999, 999, 3, 7, 70, 116, 177, 91, 62, 70, 3, 2.53985
5, 3, bw, attraction, a-b-da, 2, 3, 3, 8, 193, 119, 195, 120, 120, 195, 3, 1.5764
5, 3, bw, attraction, a-b-da, 2, 3, 3, 8, 193, 119, 195, 120, 120, 195, 1, 0.994515
5, 3, bw, filler, NA, 999, 999, 3, 9, 160, 62, 149, 158, 161, 73, 2, 1.0241
5, 3, bw, filler, NA, 999, 999, 3, 9, 160, 62, 149, 158, 161, 73, 1, 0.70291
5, 3, bw, attraction, a-b-db, 2, 1, 3, 10, 59, 134, 135, 60, 60, 135, 3, 11.1918
5, 3, bw, attraction, a-b-db, 2, 1, 3, 10, 59, 134, 135, 60, 60, 135, 2, 0.556321
5, 3, bw, attraction, a-b-da, 14, 1, 3, 11, 135, 60, 125, 56, 60, 135, 3, 5.10903
5, 3, bw, attraction, a-b-da, 14, 1, 3, 11, 135, 60, 125, 56, 60, 135, 2, 0.790838
5, 3, bw, attraction, a-b-db, 2, 3, 3, 12, 119, 193, 120, 195, 195, 120, 2, 6.49187
5, 3, bw, attraction, a-b-db, 2, 3, 3, 12, 119, 193, 120, 195, 195, 120, 1, 0.719331
5, 3, bw, filler, NA, 999, 999, 3, 13, 161, 169, 117, 86, 58, 129, 1, 3.59261
5, 3, bw, filler, NA, 999, 999, 3, 13, 161, 169, 117, 86, 58, 129, 3, 0.767094
5, 3, bw, attraction, a-b-db, 5, 3, 3, 14, 195, 120, 117, 190, 120, 195, 3, 4.35704
5, 3, bw, attraction, a-b-db, 5, 3, 3, 14, 195, 120, 117, 190, 120, 195, 1, 0.669706
5, 3, bw, catch, NA, 999, 999, 3, 15, 128, 67, 183, 132, 161, 94, 2, 2.96924
5, 3, bw, catch, NA, 999, 999, 3, 15, 128, 67, 183, 132, 161, 94, 1, 0.655967
5, 3, bw, filler, NA, 999, 999, 3, 16, 66, 59, 78, 145, 169, 108, 3, 1.04348
5, 3, bw, filler, NA, 999, 999, 3, 16, 66, 59, 78, 145, 169, 108, 1, 0.712806
5, 3, bw, attraction, a-b-da, 9, 1, 3, 17, 129, 57, 60, 135, 135, 60, 3, 2.18752
5, 3, bw, attraction, a-b-da, 9, 1, 3, 17, 129, 57, 60, 135, 135, 60, 1, 0.713266
5, 3, bw, attraction, a-b-da, 9, 3, 3, 18, 195, 120, 186, 114, 120, 195, 1, 2.29106
5, 3, bw, attraction, a-b-da, 9, 3, 3, 18, 195, 120, 186, 114, 120, 195, 2, 1.14484
5, 3, bw, catch, NA, 999, 999, 3, 19, 132, 123, 151, 164, 107, 88, 2, 1.49466
5, 3, bw, catch, NA, 999, 999, 3, 19, 132, 123, 151, 164, 107, 88, 3, 1.23449
5, 3, bw, attraction, a-b-da, 14, 2, 3, 20, 165, 90, 90, 165, 153, 83, 2, 1.18299
5, 3, bw, attraction, a-b-da, 14, 2, 3, 20, 165, 90, 90, 165, 153, 83, 3, 0.765186
5, 3, bw, filler, NA, 999, 999, 3, 21, 93, 195, 112, 114, 137, 187, 3, 1.11
5, 3, bw, filler, NA, 999, 999, 3, 21, 93, 195, 112, 114, 137, 187, 2, 0.711217
5, 3, bw, filler, NA, 999, 999, 3, 22, 86, 76, 160, 61, 178, 192, 3, 0.912841
5, 3, bw, filler, NA, 999, 999, 3, 22, 86, 76, 160, 61, 178, 192, 1, 0.619837
5, 3, bw, filler, NA, 999, 999, 3, 23, 194, 129, 103, 96, 71, 142, 1, 0.922325
5, 3, bw, filler, NA, 999, 999, 3, 23, 194, 129, 103, 96, 71, 142, 2, 1.98753
5, 3, bw, attraction, a-b-da, 2, 2, 3, 24, 165, 90, 90, 165, 163, 89, 2, 0.923022
5, 3, bw, attraction, a-b-da, 2, 2, 3, 24, 165, 90, 90, 165, 163, 89, 3, 1.01245
5, 3, bw, attraction, a-b-db, 5, 2, 3, 25, 90, 165, 88, 161, 165, 90, 3, 1.76157
5, 3, bw, attraction, a-b-db, 5, 2, 3, 25, 90, 165, 88, 161, 165, 90, 2, 1.29638
5, 3, bw, attraction, a-b-db, 5, 1, 3, 26, 58, 132, 60, 135, 135, 60, 3, 1.97794
5, 3, bw, attraction, a-b-db, 5, 1, 3, 26, 58, 132, 60, 135, 135, 60, 1, 0.641997
5, 3, bw, attraction, a-b-da, 5, 3, 3, 27, 120, 195, 190, 117, 195, 120, 1, 1.39316
5, 3, bw, attraction, a-b-da, 5, 3, 3, 27, 120, 195, 190, 117, 195, 120, 2, 0.671632
5, 3, bw, attraction, a-b-da, 5, 1, 3, 28, 135, 60, 60, 135, 132, 58, 3, 4.37892
5, 3, bw, attraction, a-b-da, 5, 1, 3, 28, 135, 60, 60, 135, 132, 58, 1, 0.751648
5, 3, bw, attraction, a-b-db, 2, 2, 3, 29, 165, 90, 90, 165, 89, 163, 2, 2.26473
5, 3, bw, attraction, a-b-db, 2, 2, 3, 29, 165, 90, 90, 165, 89, 163, 3, 0.97088
5, 3, bw, attraction, a-b-db, 14, 3, 3, 30, 120, 195, 111, 181, 195, 120, 3, 1.25035
5, 3, bw, attraction, a-b-db, 14, 3, 3, 30, 120, 195, 111, 181, 195, 120, 2, 1.01597
5, 3, bw, attraction, a-b-da, 5, 2, 3, 31, 161, 88, 165, 90, 90, 165, 3, 1.85967
5, 3, bw, attraction, a-b-da, 5, 2, 3, 31, 161, 88, 165, 90, 90, 165, 1, 1.30618
5, 3, bw, catch, NA, 999, 999, 3, 32, 187, 128, 97, 158, 74, 121, 1, 3.37139
5, 3, bw, catch, NA, 999, 999, 3, 32, 187, 128, 97, 158, 74, 121, 3, 0.587018
5, 3, bw, attraction, a-b-db, 9, 1, 3, 33, 60, 135, 135, 60, 57, 129, 2, 1.80254
5, 3, bw, attraction, a-b-db, 9, 1, 3, 33, 60, 135, 135, 60, 57, 129, 3, 0.750646
5, 3, bw, filler, NA, 999, 999, 3, 34, 127, 119, 62, 82, 134, 87, 1, 0.993197
5, 3, bw, filler, NA, 999, 999, 3, 34, 127, 119, 62, 82, 134, 87, 2, 0.679303
5, 3, bw, attraction, a-b-da, 2, 1, 3, 35, 134, 59, 135, 60, 60, 135, 2, 1.96298
5, 3, bw, attraction, a-b-da, 2, 1, 3, 35, 134, 59, 135, 60, 60, 135, 3, 0.746449
5, 3, bw, attraction, a-b-da, 14, 3, 3, 36, 120, 195, 181, 111, 195, 120, 3, 1.19539
5, 3, bw, attraction, a-b-da, 14, 3, 3, 36, 120, 195, 181, 111, 195, 120, 2, 0.635494
5, 3, bw, attraction, a-b-da, 9, 2, 3, 37, 157, 86, 90, 165, 165, 90, 2, 1.25447
5, 3, bw, attraction, a-b-da, 9, 2, 3, 37, 157, 86, 90, 165, 165, 90, 1, 0.691962
5, 3, bw, attraction, a-b-da, 5, 1, 4, 1, 132, 58, 135, 60, 60, 135, 2, 1.18975
5, 3, bw, attraction, a-b-da, 5, 1, 4, 1, 132, 58, 135, 60, 60, 135, 3, 0.606769
5, 3, bw, filler, NA, 999, 999, 4, 2, 153, 77, 191, 126, 147, 182, 3, 1.30788
5, 3, bw, filler, NA, 999, 999, 4, 2, 153, 77, 191, 126, 147, 182, 1, 0.702009
5, 3, bw, attraction, a-b-da, 9, 1, 4, 3, 135, 60, 129, 57, 60, 135, 2, 2.21643
5, 3, bw, attraction, a-b-da, 9, 1, 4, 3, 135, 60, 129, 57, 60, 135, 3, 0.701785
5, 3, bw, filler, NA, 999, 999, 4, 4, 153, 127, 120, 86, 141, 131, 1, 0.982041
5, 3, bw, filler, NA, 999, 999, 4, 4, 153, 127, 120, 86, 141, 131, 2, 0.646352
5, 3, bw, attraction, a-b-da, 9, 3, 4, 5, 120, 195, 186, 114, 195, 120, 2, 1.23485
5, 3, bw, attraction, a-b-da, 9, 3, 4, 5, 120, 195, 186, 114, 195, 120, 3, 0.615732
5, 3, bw, catch, NA, 999, 999, 4, 6, 139, 176, 99, 156, 97, 98, 1, 1.00807
5, 3, bw, catch, NA, 999, 999, 4, 6, 139, 176, 99, 156, 97, 98, 3, 1.21247
5, 3, bw, attraction, a-b-da, 14, 3, 4, 7, 195, 120, 181, 111, 120, 195, 2, 1.03476
5, 3, bw, attraction, a-b-da, 14, 3, 4, 7, 195, 120, 181, 111, 120, 195, 1, 0.679175
5, 3, bw, attraction, a-b-da, 5, 2, 4, 8, 161, 88, 90, 165, 165, 90, 2, 1.0609
5, 3, bw, attraction, a-b-da, 5, 2, 4, 8, 161, 88, 90, 165, 165, 90, 1, 0.73453
5, 3, bw, attraction, a-b-db, 5, 1, 4, 9, 60, 135, 135, 60, 58, 132, 2, 1.8382
5, 3, bw, attraction, a-b-db, 5, 1, 4, 9, 60, 135, 135, 60, 58, 132, 3, 1.00657
5, 3, bw, attraction, a-b-db, 9, 2, 4, 10, 165, 90, 86, 157, 90, 165, 1, 1.42029
5, 3, bw, attraction, a-b-db, 9, 2, 4, 10, 165, 90, 86, 157, 90, 165, 2, 0.887786
5, 3, bw, attraction, a-b-db, 9, 1, 4, 11, 60, 135, 135, 60, 57, 129, 2, 1.73839
5, 3, bw, attraction, a-b-db, 9, 1, 4, 11, 60, 135, 135, 60, 57, 129, 3, 0.678618
5, 3, bw, attraction, a-b-db, 14, 3, 4, 12, 120, 195, 111, 181, 195, 120, 3, 1.57596
5, 3, bw, attraction, a-b-db, 14, 3, 4, 12, 120, 195, 111, 181, 195, 120, 2, 1.06403
5, 3, bw, attraction, a-b-da, 14, 1, 4, 13, 125, 56, 135, 60, 60, 135, 3, 1.95459
5, 3, bw, attraction, a-b-da, 14, 1, 4, 13, 125, 56, 135, 60, 60, 135, 1, 0.579815
5, 3, bw, filler, NA, 999, 999, 4, 14, 131, 169, 148, 143, 165, 86, 2, 1.16376
5, 3, bw, filler, NA, 999, 999, 4, 14, 131, 169, 148, 143, 165, 86, 3, 0.691482
5, 3, bw, filler, NA, 999, 999, 4, 15, 65, 186, 105, 178, 115, 84, 2, 1.05386
5, 3, bw, filler, NA, 999, 999, 4, 15, 65, 186, 105, 178, 115, 84, 3, 0.625835
5, 3, bw, catch, NA, 999, 999, 4, 16, 148, 107, 193, 122, 105, 90, 2, 0.92812
5, 3, bw, catch, NA, 999, 999, 4, 16, 148, 107, 193, 122, 105, 90, 3, 1.29906
5, 3, bw, attraction, a-b-da, 2, 3, 4, 17, 195, 120, 120, 195, 193, 119, 2, 1.42702
5, 3, bw, attraction, a-b-da, 2, 3, 4, 17, 195, 120, 120, 195, 193, 119, 1, 0.649549
5, 3, bw, filler, NA, 999, 999, 4, 18, 101, 158, 173, 173, 81, 113, 2, 1.01445
5, 3, bw, filler, NA, 999, 999, 4, 18, 101, 158, 173, 173, 81, 113, 3, 0.714961
5, 3, bw, filler, NA, 999, 999, 4, 19, 187, 72, 114, 176, 154, 129, 3, 1.7641
5, 3, bw, filler, NA, 999, 999, 4, 19, 187, 72, 114, 176, 154, 129, 1, 0.735102
5, 3, bw, attraction, a-b-da, 2, 2, 4, 20, 165, 90, 90, 165, 163, 89, 2, 0.883987
5, 3, bw, attraction, a-b-da, 2, 2, 4, 20, 165, 90, 90, 165, 163, 89, 1, 0.872192
5, 3, bw, attraction, a-b-db, 14, 2, 4, 21, 83, 153, 90, 165, 165, 90, 2, 1.69301
5, 3, bw, attraction, a-b-db, 14, 2, 4, 21, 83, 153, 90, 165, 165, 90, 1, 0.672214
5, 3, bw, attraction, a-b-db, 2, 1, 4, 22, 59, 134, 135, 60, 60, 135, 3, 4.85706
5, 3, bw, attraction, a-b-db, 2, 1, 4, 22, 59, 134, 135, 60, 60, 135, 2, 0.821103
5, 3, bw, filler, NA, 999, 999, 4, 23, 147, 145, 126, 119, 65, 157, 1, 1.40306
5, 3, bw, filler, NA, 999, 999, 4, 23, 147, 145, 126, 119, 65, 157, 3, 0.984472
5, 3, bw, attraction, a-b-db, 5, 3, 4, 24, 120, 195, 117, 190, 195, 120, 2, 7.15283
5, 3, bw, attraction, a-b-db, 5, 3, 4, 24, 120, 195, 117, 190, 195, 120, 1, 1.12671
5, 3, bw, attraction, a-b-da, 2, 1, 4, 25, 60, 135, 135, 60, 134, 59, 2, 2.69586
5, 3, bw, attraction, a-b-da, 2, 1, 4, 25, 60, 135, 135, 60, 134, 59, 3, 0.848697
5, 3, bw, filler, NA, 999, 999, 4, 26, 173, 144, 114, 96, 129, 161, 1, 1.11945
5, 3, bw, filler, NA, 999, 999, 4, 26, 173, 144, 114, 96, 129, 161, 2, 0.681763
5, 3, bw, attraction, a-b-db, 14, 1, 4, 27, 135, 60, 56, 125, 60, 135, 3, 4.3452
5, 3, bw, attraction, a-b-db, 14, 1, 4, 27, 135, 60, 56, 125, 60, 135, 1, 0.515342
5, 3, bw, attraction, a-b-da, 5, 3, 4, 28, 190, 117, 195, 120, 120, 195, 3, 1.9986
5, 3, bw, attraction, a-b-da, 5, 3, 4, 28, 190, 117, 195, 120, 120, 195, 1, 0.868171
5, 3, bw, attraction, a-b-da, 9, 2, 4, 29, 157, 86, 90, 165, 165, 90, 2, 1.47183
5, 3, bw, attraction, a-b-da, 9, 2, 4, 29, 157, 86, 90, 165, 165, 90, 1, 0.819214
5, 3, bw, attraction, a-b-db, 9, 3, 4, 30, 120, 195, 195, 120, 114, 186, 2, 1.02153
5, 3, bw, attraction, a-b-db, 9, 3, 4, 30, 120, 195, 195, 120, 114, 186, 3, 0.734475
5, 3, bw, catch, NA, 999, 999, 4, 31, 181, 134, 97, 158, 99, 96, 1, 1.07726
5, 3, bw, catch, NA, 999, 999, 4, 31, 181, 134, 97, 158, 99, 96, 3, 0.699017
5, 3, bw, attraction, a-b-db, 2, 3, 4, 32, 120, 195, 119, 193, 195, 120, 2, 1.49183
5, 3, bw, attraction, a-b-db, 2, 3, 4, 32, 120, 195, 119, 193, 195, 120, 1, 0.615776
5, 3, bw, attraction, a-b-da, 14, 2, 4, 33, 165, 90, 153, 83, 90, 165, 3, 1.38115
5, 3, bw, attraction, a-b-da, 14, 2, 4, 33, 165, 90, 153, 83, 90, 165, 2, 0.643719
5, 3, bw, filler, NA, 999, 999, 4, 34, 88, 194, 111, 165, 121, 142, 2, 1.03948
5, 3, bw, filler, NA, 999, 999, 4, 34, 88, 194, 111, 165, 121, 142, 1, 0.977387
5, 3, bw, attraction, a-b-db, 5, 2, 4, 35, 88, 161, 165, 90, 90, 165, 3, 2.14047
5, 3, bw, attraction, a-b-db, 5, 2, 4, 35, 88, 161, 165, 90, 90, 165, 1, 0.759648
5, 3, bw, attraction, a-b-db, 2, 2, 4, 36, 165, 90, 89, 163, 90, 165, 1, 1.43106
5, 3, bw, attraction, a-b-db, 2, 2, 4, 36, 165, 90, 89, 163, 90, 165, 2, 0.727079
5, 3, bw, filler, NA, 999, 999, 4, 37, 73, 185, 134, 120, 186, 181, 3, 1.0364
5, 3, bw, filler, NA, 999, 999, 4, 37, 73, 185, 134, 120, 186, 181, 1, 0.923224
5, 3, bw, attraction, a-b-db, 14, 1, 5, 1, 135, 60, 56, 125, 60, 135, 3, 7.71203
5, 3, bw, attraction, a-b-db, 14, 1, 5, 1, 135, 60, 56, 125, 60, 135, 2, 0.730487
5, 3, bw, attraction, a-b-da, 9, 2, 5, 2, 90, 165, 165, 90, 157, 86, 2, 3.0035
5, 3, bw, attraction, a-b-da, 9, 2, 5, 2, 90, 165, 165, 90, 157, 86, 3, 0.588132
5, 3, bw, attraction, a-b-db, 5, 2, 5, 3, 88, 161, 165, 90, 90, 165, 3, 2.01698
5, 3, bw, attraction, a-b-db, 5, 2, 5, 3, 88, 161, 165, 90, 90, 165, 1, 0.543918
5, 3, bw, filler, NA, 999, 999, 5, 4, 98, 114, 101, 186, 139, 192, 3, 1.15095
5, 3, bw, filler, NA, 999, 999, 5, 4, 98, 114, 101, 186, 139, 192, 1, 0.526634
5, 3, bw, filler, NA, 999, 999, 5, 5, 77, 169, 173, 125, 80, 187, 2, 1.5125
5, 3, bw, filler, NA, 999, 999, 5, 5, 77, 169, 173, 125, 80, 187, 1, 1.0512
5, 3, bw, attraction, a-b-da, 2, 3, 5, 6, 120, 195, 195, 120, 193, 119, 1, 1.31944
5, 3, bw, attraction, a-b-da, 2, 3, 5, 6, 120, 195, 195, 120, 193, 119, 3, 0.875175
5, 3, bw, attraction, a-b-da, 9, 3, 5, 7, 195, 120, 186, 114, 120, 195, 3, 1.69319
5, 3, bw, attraction, a-b-da, 9, 3, 5, 7, 195, 120, 186, 114, 120, 195, 2, 0.999305
5, 3, bw, attraction, a-b-da, 5, 1, 5, 8, 60, 135, 135, 60, 132, 58, 2, 2.21585
5, 3, bw, attraction, a-b-da, 5, 1, 5, 8, 60, 135, 135, 60, 132, 58, 1, 0.806082
5, 3, bw, attraction, a-b-db, 9, 2, 5, 9, 165, 90, 86, 157, 90, 165, 1, 2.67996
5, 3, bw, attraction, a-b-db, 9, 2, 5, 9, 165, 90, 86, 157, 90, 165, 2, 0.725667
5, 3, bw, filler, NA, 999, 999, 5, 10, 98, 157, 87, 61, 108, 109, 1, 1.10102
5, 3, bw, filler, NA, 999, 999, 5, 10, 98, 157, 87, 61, 108, 109, 2, 0.623127
5, 3, bw, catch, NA, 999, 999, 5, 11, 133, 62, 142, 173, 138, 117, 2, 0.990836
5, 3, bw, catch, NA, 999, 999, 5, 11, 133, 62, 142, 173, 138, 117, 1, 0.612737
5, 3, bw, filler, NA, 999, 999, 5, 12, 68, 139, 137, 92, 102, 149, 3, 1.25898
5, 3, bw, filler, NA, 999, 999, 5, 12, 68, 139, 137, 92, 102, 149, 1, 0.751347
5, 3, bw, attraction, a-b-da, 2, 2, 5, 13, 90, 165, 165, 90, 163, 89, 1, 1.87919
5, 3, bw, attraction, a-b-da, 2, 2, 5, 13, 90, 165, 165, 90, 163, 89, 3, 0.835084
5, 3, bw, attraction, a-b-db, 5, 1, 5, 14, 135, 60, 60, 135, 58, 132, 1, 2.61556
5, 3, bw, attraction, a-b-db, 5, 1, 5, 14, 135, 60, 60, 135, 58, 132, 3, 0.756037
5, 3, bw, filler, NA, 999, 999, 5, 15, 194, 131, 151, 101, 133, 109, 1, 1.18694
5, 3, bw, filler, NA, 999, 999, 5, 15, 194, 131, 151, 101, 133, 109, 3, 0.621624
5, 3, bw, attraction, a-b-db, 2, 3, 5, 16, 195, 120, 119, 193, 120, 195, 2, 2.20974
5, 3, bw, attraction, a-b-db, 2, 3, 5, 16, 195, 120, 119, 193, 120, 195, 1, 0.704296
5, 3, bw, attraction, a-b-da, 9, 1, 5, 17, 135, 60, 60, 135, 129, 57, 1, 1.69032
5, 3, bw, attraction, a-b-da, 9, 1, 5, 17, 135, 60, 60, 135, 129, 57, 2, 1.43845
5, 3, bw, attraction, a-b-da, 5, 3, 5, 18, 120, 195, 195, 120, 190, 117, 1, 2.13904
5, 3, bw, attraction, a-b-da, 5, 3, 5, 18, 120, 195, 195, 120, 190, 117, 3, 1.61905
5, 3, bw, attraction, a-b-da, 14, 1, 5, 19, 60, 135, 135, 60, 125, 56, 1, 1.93667
5, 3, bw, attraction, a-b-da, 14, 1, 5, 19, 60, 135, 135, 60, 125, 56, 3, 0.674423
5, 3, bw, catch, NA, 999, 999, 5, 20, 170, 145, 160, 95, 83, 112, 1, 1.57265
5, 3, bw, catch, NA, 999, 999, 5, 20, 170, 145, 160, 95, 83, 112, 3, 0.883037
5, 3, bw, attraction, a-b-db, 2, 2, 5, 21, 90, 165, 89, 163, 165, 90, 3, 2.09614
5, 3, bw, attraction, a-b-db, 2, 2, 5, 21, 90, 165, 89, 163, 165, 90, 1, 1.35268
5, 3, bw, catch, NA, 999, 999, 5, 22, 155, 160, 160, 95, 89, 106, 1, 1.00075
5, 3, bw, catch, NA, 999, 999, 5, 22, 155, 160, 160, 95, 89, 106, 3, 0.72707
5, 3, bw, attraction, a-b-db, 5, 3, 5, 23, 195, 120, 120, 195, 117, 190, 2, 1.13044
5, 3, bw, attraction, a-b-db, 5, 3, 5, 23, 195, 120, 120, 195, 117, 190, 3, 0.626431
5, 3, bw, filler, NA, 999, 999, 5, 24, 187, 182, 194, 97, 107, 169, 1, 0.998037
5, 3, bw, filler, NA, 999, 999, 5, 24, 187, 182, 194, 97, 107, 169, 3, 1.19836
5, 3, bw, attraction, a-b-db, 9, 1, 5, 25, 60, 135, 135, 60, 57, 129, 3, 2.46801
5, 3, bw, attraction, a-b-db, 9, 1, 5, 25, 60, 135, 135, 60, 57, 129, 1, 1.95131
5, 3, bw, attraction, a-b-da, 2, 1, 5, 26, 135, 60, 134, 59, 60, 135, 2, 1.93556
5, 3, bw, attraction, a-b-da, 2, 1, 5, 26, 135, 60, 134, 59, 60, 135, 3, 0.61778
5, 3, bw, attraction, a-b-da, 5, 2, 5, 27, 161, 88, 165, 90, 90, 165, 3, 2.15594
5, 3, bw, attraction, a-b-da, 5, 2, 5, 27, 161, 88, 165, 90, 90, 165, 2, 0.590917
5, 3, bw, filler, NA, 999, 999, 5, 28, 86, 57, 94, 187, 155, 172, 3, 1.14081
5, 3, bw, filler, NA, 999, 999, 5, 28, 86, 57, 94, 187, 155, 172, 1, 0.679892
5, 3, bw, attraction, a-b-da, 14, 2, 5, 29, 153, 83, 165, 90, 90, 165, 2, 1.45749
5, 3, bw, attraction, a-b-da, 14, 2, 5, 29, 153, 83, 165, 90, 90, 165, 1, 0.855282
5, 3, bw, filler, NA, 999, 999, 5, 30, 182, 191, 160, 78, 88, 148, 1, 0.962962
5, 3, bw, filler, NA, 999, 999, 5, 30, 182, 191, 160, 78, 88, 148, 2, 1.65033
5, 3, bw, attraction, a-b-da, 14, 3, 5, 31, 181, 111, 120, 195, 195, 120, 2, 1.28568
5, 3, bw, attraction, a-b-da, 14, 3, 5, 31, 181, 111, 120, 195, 195, 120, 1, 0.73793
5, 3, bw, attraction, a-b-db, 2, 1, 5, 32, 135, 60, 59, 134, 60, 135, 2, 1.8839
5, 3, bw, attraction, a-b-db, 2, 1, 5, 32, 135, 60, 59, 134, 60, 135, 3, 0.701197
5, 3, bw, attraction, a-b-db, 9, 3, 5, 33, 120, 195, 114, 186, 195, 120, 3, 1.77496
5, 3, bw, attraction, a-b-db, 9, 3, 5, 33, 120, 195, 114, 186, 195, 120, 2, 0.815846
5, 3, bw, attraction, a-b-db, 14, 2, 5, 34, 90, 165, 165, 90, 83, 153, 1, 2.33139
5, 3, bw, attraction, a-b-db, 14, 2, 5, 34, 90, 165, 165, 90, 83, 153, 3, 0.581758
5, 3, bw, filler, NA, 999, 999, 5, 35, 80, 93, 105, 195, 146, 58, 2, 0.907953
5, 3, bw, filler, NA, 999, 999, 5, 35, 80, 93, 105, 195, 146, 58, 1, 1.41407
5, 3, bw, attraction, a-b-db, 14, 3, 5, 36, 195, 120, 120, 195, 111, 181, 2, 1.66838
5, 3, bw, attraction, a-b-db, 14, 3, 5, 36, 195, 120, 120, 195, 111, 181, 3, 0.60842
5, 3, bw, filler, NA, 999, 999, 5, 37, 148, 194, 152, 61, 119, 66, 1, 1.15958
5, 3, bw, filler, NA, 999, 999, 5, 37, 148, 194, 152, 61, 119, 66, 3, 0.758978
5, 3, bw, attraction, a-b-da, 9, 1, 6, 1, 135, 60, 60, 135, 129, 57, 1, 1.89421
5, 3, bw, attraction, a-b-da, 9, 1, 6, 1, 135, 60, 60, 135, 129, 57, 2, 0.63432
5, 3, bw, attraction, a-b-db, 9, 2, 6, 2, 86, 157, 90, 165, 165, 90, 2, 1.80739
5, 3, bw, attraction, a-b-db, 9, 2, 6, 2, 86, 157, 90, 165, 165, 90, 1, 0.766945
5, 3, bw, attraction, a-b-da, 5, 3, 6, 3, 120, 195, 195, 120, 190, 117, 1, 2.60204
5, 3, bw, attraction, a-b-da, 5, 3, 6, 3, 120, 195, 195, 120, 190, 117, 3, 0.634105
5, 3, bw, attraction, a-b-db, 2, 2, 6, 4, 89, 163, 165, 90, 90, 165, 2, 1.41405
5, 3, bw, attraction, a-b-db, 2, 2, 6, 4, 89, 163, 165, 90, 90, 165, 3, 0.596951
5, 3, bw, attraction, a-b-da, 5, 1, 6, 5, 135, 60, 132, 58, 60, 135, 1, 1.28559
5, 3, bw, attraction, a-b-da, 5, 1, 6, 5, 135, 60, 132, 58, 60, 135, 3, 0.718634
5, 3, bw, filler, NA, 999, 999, 6, 6, 84, 103, 82, 73, 76, 165, 3, 1.05525
5, 3, bw, filler, NA, 999, 999, 6, 6, 84, 103, 82, 73, 76, 165, 2, 0.908434
5, 3, bw, catch, NA, 999, 999, 6, 7, 112, 83, 186, 129, 138, 117, 2, 0.941596
5, 3, bw, catch, NA, 999, 999, 6, 7, 112, 83, 186, 129, 138, 117, 1, 0.681746
5, 3, bw, attraction, a-b-da, 2, 2, 6, 8, 165, 90, 90, 165, 163, 89, 2, 1.83595
5, 3, bw, attraction, a-b-da, 2, 2, 6, 8, 165, 90, 90, 165, 163, 89, 3, 0.785158
5, 3, bw, filler, NA, 999, 999, 6, 9, 183, 168, 173, 93, 138, 136, 1, 1.19961
5, 3, bw, filler, NA, 999, 999, 6, 9, 183, 168, 173, 93, 138, 136, 2, 0.70837
5, 3, bw, attraction, a-b-da, 9, 2, 6, 10, 157, 86, 90, 165, 165, 90, 2, 1.79187
5, 3, bw, attraction, a-b-da, 9, 2, 6, 10, 157, 86, 90, 165, 165, 90, 1, 2.47118
5, 3, bw, attraction, a-b-da, 2, 1, 6, 11, 60, 135, 135, 60, 134, 59, 1, 1.81664
5, 3, bw, attraction, a-b-da, 2, 1, 6, 11, 60, 135, 135, 60, 134, 59, 3, 0.760461
5, 3, bw, attraction, a-b-da, 14, 2, 6, 12, 90, 165, 165, 90, 153, 83, 2, 1.4241
5, 3, bw, attraction, a-b-da, 14, 2, 6, 12, 90, 165, 165, 90, 153, 83, 3, 0.566208
5, 3, bw, attraction, a-b-db, 9, 1, 6, 13, 135, 60, 57, 129, 60, 135, 3, 1.64444
5, 3, bw, attraction, a-b-db, 9, 1, 6, 13, 135, 60, 57, 129, 60, 135, 2, 0.714023
5, 3, bw, attraction, a-b-da, 9, 3, 6, 14, 186, 114, 195, 120, 120, 195, 2, 1.15599
5, 3, bw, attraction, a-b-da, 9, 3, 6, 14, 186, 114, 195, 120, 120, 195, 1, 0.860405
5, 3, bw, filler, NA, 999, 999, 6, 15, 174, 127, 79, 110, 91, 135, 1, 1.33551
5, 3, bw, filler, NA, 999, 999, 6, 15, 174, 127, 79, 110, 91, 135, 2, 0.523262
5, 3, bw, filler, NA, 999, 999, 6, 16, 57, 98, 118, 96, 143, 168, 3, 0.946046
5, 3, bw, filler, NA, 999, 999, 6, 16, 57, 98, 118, 96, 143, 168, 1, 0.578552
5, 3, bw, filler, NA, 999, 999, 6, 17, 65, 158, 128, 64, 156, 177, 3, 0.995295
5, 3, bw, filler, NA, 999, 999, 6, 17, 65, 158, 128, 64, 156, 177, 2, 1.60295
5, 3, bw, filler, NA, 999, 999, 6, 18, 122, 193, 156, 158, 193, 124, 2, 1.15084
5, 3, bw, filler, NA, 999, 999, 6, 18, 122, 193, 156, 158, 193, 124, 1, 0.864982
5, 3, bw, attraction, a-b-da, 5, 2, 6, 19, 90, 165, 165, 90, 161, 88, 1, 3.23368
5, 3, bw, attraction, a-b-da, 5, 2, 6, 19, 90, 165, 165, 90, 161, 88, 3, 0.632519
5, 3, bw, attraction, a-b-db, 2, 3, 6, 20, 195, 120, 119, 193, 120, 195, 1, 2.41137
5, 3, bw, attraction, a-b-db, 2, 3, 6, 20, 195, 120, 119, 193, 120, 195, 3, 0.651973
5, 3, bw, attraction, a-b-da, 14, 1, 6, 21, 60, 135, 125, 56, 135, 60, 3, 2.37403
5, 3, bw, attraction, a-b-da, 14, 1, 6, 21, 60, 135, 125, 56, 135, 60, 2, 0.63663
5, 3, bw, attraction, a-b-db, 5, 3, 6, 22, 117, 190, 120, 195, 195, 120, 3, 1.49933
5, 3, bw, attraction, a-b-db, 5, 3, 6, 22, 117, 190, 120, 195, 195, 120, 1, 0.741713
5, 3, bw, attraction, a-b-da, 2, 3, 6, 23, 120, 195, 193, 119, 195, 120, 2, 1.38215
5, 3, bw, attraction, a-b-da, 2, 3, 6, 23, 120, 195, 193, 119, 195, 120, 3, 0.795986
5, 3, bw, filler, NA, 999, 999, 6, 24, 166, 95, 178, 69, 116, 108, 1, 0.99608
5, 3, bw, filler, NA, 999, 999, 6, 24, 166, 95, 178, 69, 116, 108, 2, 0.690848
5, 3, bw, attraction, a-b-db, 14, 1, 6, 25, 60, 135, 135, 60, 56, 125, 2, 1.93224
5, 3, bw, attraction, a-b-db, 14, 1, 6, 25, 60, 135, 135, 60, 56, 125, 3, 2.02895
5, 3, bw, filler, NA, 999, 999, 6, 26, 193, 92, 146, 178, 107, 56, 3, 2.02722
5, 3, bw, filler, NA, 999, 999, 6, 26, 193, 92, 146, 178, 107, 56, 2, 1.07302
5, 3, bw, filler, NA, 999, 999, 6, 27, 78, 89, 66, 140, 126, 143, 3, 1.1162
5, 3, bw, filler, NA, 999, 999, 6, 27, 78, 89, 66, 140, 126, 143, 1, 0.886722
5, 3, bw, attraction, a-b-db, 2, 1, 6, 28, 135, 60, 59, 134, 60, 135, 2, 1.29637
5, 3, bw, attraction, a-b-db, 2, 1, 6, 28, 135, 60, 59, 134, 60, 135, 3, 2.12551
5, 3, bw, attraction, a-b-db, 5, 1, 6, 29, 60, 135, 135, 60, 58, 132, 2, 1.94024
5, 3, bw, attraction, a-b-db, 5, 1, 6, 29, 60, 135, 135, 60, 58, 132, 3, 0.72682
5, 3, bw, attraction, a-b-db, 14, 2, 6, 30, 165, 90, 83, 153, 90, 165, 1, 1.14353
5, 3, bw, attraction, a-b-db, 14, 2, 6, 30, 165, 90, 83, 153, 90, 165, 2, 0.746246
5, 3, bw, attraction, a-b-db, 5, 2, 6, 31, 88, 161, 90, 165, 165, 90, 2, 1.09687
5, 3, bw, attraction, a-b-db, 5, 2, 6, 31, 88, 161, 90, 165, 165, 90, 1, 0.73349
5, 3, bw, attraction, a-b-da, 14, 3, 6, 32, 195, 120, 120, 195, 181, 111, 2, 1.06699
5, 3, bw, attraction, a-b-da, 14, 3, 6, 32, 195, 120, 120, 195, 181, 111, 3, 0.673568
5, 3, bw, attraction, a-b-db, 14, 3, 6, 33, 111, 181, 120, 195, 195, 120, 2, 1.19632
5, 3, bw, attraction, a-b-db, 14, 3, 6, 33, 111, 181, 120, 195, 195, 120, 1, 0.62692
5, 3, bw, catch, NA, 999, 999, 6, 34, 96, 159, 165, 150, 94, 101, 2, 0.991345
5, 3, bw, catch, NA, 999, 999, 6, 34, 96, 159, 165, 150, 94, 101, 3, 0.575397
5, 3, bw, attraction, a-b-db, 9, 3, 6, 35, 114, 186, 120, 195, 195, 120, 3, 1.34072
5, 3, bw, attraction, a-b-db, 9, 3, 6, 35, 114, 186, 120, 195, 195, 120, 1, 0.55301
5, 3, bw, filler, NA, 999, 999, 6, 36, 60, 84, 138, 172, 138, 110, 2, 0.887709
5, 3, bw, filler, NA, 999, 999, 6, 36, 60, 84, 138, 172, 138, 110, 1, 0.555425
5, 3, bw, catch, NA, 999, 999, 6, 37, 136, 119, 154, 161, 90, 105, 2, 1.38105
5, 3, bw, catch, NA, 999, 999, 6, 37, 136, 119, 154, 161, 90, 105, 3, 0.858958
5, 3, bw, attraction, a-b-da, 2, 2, 7, 1, 165, 90, 163, 89, 90, 165, 1, 1.18262
5, 3, bw, attraction, a-b-da, 2, 2, 7, 1, 165, 90, 163, 89, 90, 165, 2, 0.653961
5, 3, bw, filler, NA, 999, 999, 7, 2, 176, 105, 87, 184, 172, 109, 1, 1.38597
5, 3, bw, filler, NA, 999, 999, 7, 2, 176, 105, 87, 184, 172, 109, 2, 0.667145
5, 3, bw, filler, NA, 999, 999, 7, 3, 104, 195, 96, 100, 171, 176, 3, 1.19684
5, 3, bw, filler, NA, 999, 999, 7, 3, 104, 195, 96, 100, 171, 176, 2, 0.570319
5, 3, bw, attraction, a-b-da, 14, 3, 7, 4, 195, 120, 120, 195, 181, 111, 2, 1.05916
5, 3, bw, attraction, a-b-da, 14, 3, 7, 4, 195, 120, 120, 195, 181, 111, 1, 0.693905
5, 3, bw, filler, NA, 999, 999, 7, 5, 178, 80, 124, 132, 103, 187, 3, 1.3602
5, 3, bw, filler, NA, 999, 999, 7, 5, 178, 80, 124, 132, 103, 187, 1, 0.627213
5, 3, bw, attraction, a-b-da, 5, 3, 7, 6, 120, 195, 195, 120, 190, 117, 2, 1.00755
5, 3, bw, attraction, a-b-da, 5, 3, 7, 6, 120, 195, 195, 120, 190, 117, 3, 0.567684
5, 3, bw, attraction, a-b-da, 9, 3, 7, 7, 120, 195, 195, 120, 186, 114, 2, 1.3914
5, 3, bw, attraction, a-b-da, 9, 3, 7, 7, 120, 195, 195, 120, 186, 114, 1, 0.547632
5, 3, bw, attraction, a-b-db, 14, 2, 7, 8, 165, 90, 83, 153, 90, 165, 3, 1.79126
5, 3, bw, attraction, a-b-db, 14, 2, 7, 8, 165, 90, 83, 153, 90, 165, 2, 0.558445
5, 3, bw, attraction, a-b-db, 2, 3, 7, 9, 119, 193, 195, 120, 120, 195, 2, 1.03861
5, 3, bw, attraction, a-b-db, 2, 3, 7, 9, 119, 193, 195, 120, 120, 195, 3, 0.650719
5, 3, bw, attraction, a-b-db, 2, 2, 7, 10, 89, 163, 90, 165, 165, 90, 3, 2.04073
5, 3, bw, attraction, a-b-db, 2, 2, 7, 10, 89, 163, 90, 165, 165, 90, 1, 0.650952
5, 3, bw, attraction, a-b-db, 5, 2, 7, 11, 165, 90, 90, 165, 88, 161, 2, 1.25557
5, 3, bw, attraction, a-b-db, 5, 2, 7, 11, 165, 90, 90, 165, 88, 161, 3, 0.573786
5, 3, bw, attraction, a-b-da, 9, 1, 7, 12, 135, 60, 129, 57, 60, 135, 3, 1.32532
5, 3, bw, attraction, a-b-da, 9, 1, 7, 12, 135, 60, 129, 57, 60, 135, 2, 0.604027
5, 3, bw, filler, NA, 999, 999, 7, 13, 93, 188, 174, 161, 108, 120, 2, 0.988446
5, 3, bw, filler, NA, 999, 999, 7, 13, 93, 188, 174, 161, 108, 120, 3, 0.68381
5, 3, bw, filler, NA, 999, 999, 7, 14, 132, 84, 106, 183, 195, 161, 3, 1.13201
5, 3, bw, filler, NA, 999, 999, 7, 14, 132, 84, 106, 183, 195, 161, 1, 0.750003
5, 3, bw, attraction, a-b-db, 2, 1, 7, 15, 135, 60, 60, 135, 59, 134, 2, 1.28729
5, 3, bw, attraction, a-b-db, 2, 1, 7, 15, 135, 60, 60, 135, 59, 134, 3, 0.680895
5, 3, bw, catch, NA, 999, 999, 7, 16, 187, 128, 64, 131, 118, 137, 1, 0.996877
5, 3, bw, catch, NA, 999, 999, 7, 16, 187, 128, 64, 131, 118, 137, 2, 0.605362
5, 3, bw, attraction, a-b-da, 5, 2, 7, 17, 165, 90, 90, 165, 161, 88, 2, 1.19497
5, 3, bw, attraction, a-b-da, 5, 2, 7, 17, 165, 90, 90, 165, 161, 88, 3, 3.28761
5, 3, bw, attraction, a-b-db, 9, 1, 7, 18, 135, 60, 57, 129, 60, 135, 2, 2.32115
5, 3, bw, attraction, a-b-db, 9, 1, 7, 18, 135, 60, 57, 129, 60, 135, 3, 2.40627
5, 3, bw, filler, NA, 999, 999, 7, 19, 184, 110, 90, 111, 112, 97, 1, 1.30588
5, 3, bw, filler, NA, 999, 999, 7, 19, 184, 110, 90, 111, 112, 97, 2, 2.27611
5, 3, bw, attraction, a-b-da, 14, 2, 7, 20, 90, 165, 165, 90, 153, 83, 2, 1.05434
5, 3, bw, attraction, a-b-da, 14, 2, 7, 20, 90, 165, 165, 90, 153, 83, 3, 0.718048
5, 3, bw, attraction, a-b-db, 5, 1, 7, 21, 135, 60, 58, 132, 60, 135, 3, 2.07823
5, 3, bw, attraction, a-b-db, 5, 1, 7, 21, 135, 60, 58, 132, 60, 135, 2, 0.831805
5, 3, bw, attraction, a-b-da, 5, 1, 7, 22, 135, 60, 60, 135, 132, 58, 3, 1.61218
5, 3, bw, attraction, a-b-da, 5, 1, 7, 22, 135, 60, 60, 135, 132, 58, 1, 0.826038
5, 3, bw, catch, NA, 999, 999, 7, 23, 194, 121, 91, 164, 78, 117, 1, 1.13543
5, 3, bw, catch, NA, 999, 999, 7, 23, 194, 121, 91, 164, 78, 117, 3, 0.600654
5, 3, bw, attraction, a-b-da, 14, 1, 7, 24, 125, 56, 60, 135, 135, 60, 2, 1.09486
5, 3, bw, attraction, a-b-da, 14, 1, 7, 24, 125, 56, 60, 135, 135, 60, 1, 0.668347
5, 3, bw, attraction, a-b-da, 2, 3, 7, 25, 120, 195, 193, 119, 195, 120, 3, 1.70873
5, 3, bw, attraction, a-b-da, 2, 3, 7, 25, 120, 195, 193, 119, 195, 120, 2, 0.801177
5, 3, bw, filler, NA, 999, 999, 7, 26, 149, 150, 99, 67, 188, 112, 3, 1.65391
5, 3, bw, filler, NA, 999, 999, 7, 26, 149, 150, 99, 67, 188, 112, 2, 0.692289
5, 3, bw, filler, NA, 999, 999, 7, 27, 156, 62, 80, 120, 169, 72, 3, 1.82212
5, 3, bw, filler, NA, 999, 999, 7, 27, 156, 62, 80, 120, 169, 72, 2, 3.26112
5, 3, bw, attraction, a-b-db, 9, 3, 7, 28, 195, 120, 114, 186, 120, 195, 3, 3.03161
5, 3, bw, attraction, a-b-db, 9, 3, 7, 28, 195, 120, 114, 186, 120, 195, 2, 0.627053
5, 3, bw, attraction, a-b-db, 14, 3, 7, 29, 120, 195, 195, 120, 111, 181, 2, 1.20911
5, 3, bw, attraction, a-b-db, 14, 3, 7, 29, 120, 195, 195, 120, 111, 181, 3, 1.12088
5, 3, bw, catch, NA, 999, 999, 7, 30, 135, 60, 113, 142, 184, 131, 3, 1.24747
5, 3, bw, catch, NA, 999, 999, 7, 30, 135, 60, 113, 142, 184, 131, 1, 0.74876
5, 3, bw, attraction, a-b-da, 9, 2, 7, 31, 90, 165, 157, 86, 165, 90, 1, 2.52621
5, 3, bw, attraction, a-b-da, 9, 2, 7, 31, 90, 165, 157, 86, 165, 90, 3, 1.15111
5, 3, bw, attraction, a-b-db, 14, 1, 7, 32, 56, 125, 135, 60, 60, 135, 3, 1.31105
5, 3, bw, attraction, a-b-db, 14, 1, 7, 32, 56, 125, 135, 60, 60, 135, 2, 0.687604
5, 3, bw, attraction, a-b-da, 2, 1, 7, 33, 134, 59, 135, 60, 60, 135, 3, 1.69168
5, 3, bw, attraction, a-b-da, 2, 1, 7, 33, 134, 59, 135, 60, 60, 135, 2, 0.655319
5, 3, bw, filler, NA, 999, 999, 7, 34, 84, 92, 84, 165, 186, 132, 3, 1.2436
5, 3, bw, filler, NA, 999, 999, 7, 34, 84, 92, 84, 165, 186, 132, 1, 0.713223
5, 3, bw, attraction, a-b-db, 9, 2, 7, 35, 165, 90, 86, 157, 90, 165, 3, 1.37951
5, 3, bw, attraction, a-b-db, 9, 2, 7, 35, 165, 90, 86, 157, 90, 165, 2, 0.555225
5, 3, bw, attraction, a-b-db, 5, 3, 7, 36, 120, 195, 195, 120, 117, 190, 3, 1.50387
5, 3, bw, attraction, a-b-db, 5, 3, 7, 36, 120, 195, 195, 120, 117, 190, 1, 0.71668
5, 3, bw, filler, NA, 999, 999, 7, 37, 195, 174, 152, 120, 67, 99, 1, 1.22961
5, 3, bw, filler, NA, 999, 999, 7, 37, 195, 174, 152, 120, 67, 99, 3, 0.579129
5, 3, bw, attraction, a-b-db, 2, 3, 8, 1, 195, 120, 119, 193, 120, 195, 3, 1.42678
5, 3, bw, attraction, a-b-db, 2, 3, 8, 1, 195, 120, 119, 193, 120, 195, 1, 0.600073
5, 3, bw, filler, NA, 999, 999, 8, 2, 114, 176, 91, 66, 63, 77, 1, 1.23848
5, 3, bw, filler, NA, 999, 999, 8, 2, 114, 176, 91, 66, 63, 77, 3, 0.747517
5, 3, bw, filler, NA, 999, 999, 8, 3, 131, 106, 174, 99, 91, 66, 2, 1.2599
5, 3, bw, filler, NA, 999, 999, 8, 3, 131, 106, 174, 99, 91, 66, 3, 0.585274
5, 3, bw, attraction, a-b-db, 14, 3, 8, 4, 195, 120, 120, 195, 111, 181, 2, 1.28706
5, 3, bw, attraction, a-b-db, 14, 3, 8, 4, 195, 120, 120, 195, 111, 181, 3, 0.691433
5, 3, bw, attraction, a-b-db, 9, 3, 8, 5, 195, 120, 114, 186, 120, 195, 3, 1.36526
5, 3, bw, attraction, a-b-db, 9, 3, 8, 5, 195, 120, 114, 186, 120, 195, 2, 0.661206
5, 3, bw, attraction, a-b-db, 2, 1, 8, 6, 135, 60, 60, 135, 59, 134, 2, 1.6331
5, 3, bw, attraction, a-b-db, 2, 1, 8, 6, 135, 60, 60, 135, 59, 134, 3, 0.703193
5, 3, bw, attraction, a-b-da, 9, 1, 8, 7, 60, 135, 129, 57, 135, 60, 1, 1.43089
5, 3, bw, attraction, a-b-da, 9, 1, 8, 7, 60, 135, 129, 57, 135, 60, 2, 0.525595
5, 3, bw, attraction, a-b-da, 9, 3, 8, 8, 195, 120, 120, 195, 186, 114, 2, 0.991323
5, 3, bw, attraction, a-b-da, 9, 3, 8, 8, 195, 120, 120, 195, 186, 114, 3, 0.533866
5, 3, bw, filler, NA, 999, 999, 8, 9, 122, 97, 151, 137, 183, 101, 2, 0.888035
5, 3, bw, filler, NA, 999, 999, 8, 9, 122, 97, 151, 137, 183, 101, 1, 1.98019
5, 3, bw, filler, NA, 999, 999, 8, 10, 123, 120, 169, 57, 169, 75, 3, 4.60994
5, 3, bw, filler, NA, 999, 999, 8, 10, 123, 120, 169, 57, 169, 75, 2, 2.47909
5, 3, bw, attraction, a-b-db, 14, 1, 8, 11, 56, 125, 60, 135, 135, 60, 2, 1.48982
5, 3, bw, attraction, a-b-db, 14, 1, 8, 11, 56, 125, 60, 135, 135, 60, 1, 0.709355
5, 3, bw, attraction, a-b-db, 2, 2, 8, 12, 165, 90, 89, 163, 90, 165, 3, 2.92139
5, 3, bw, attraction, a-b-db, 2, 2, 8, 12, 165, 90, 89, 163, 90, 165, 2, 0.970554
5, 3, bw, catch, NA, 999, 999, 8, 13, 99, 156, 166, 149, 134, 61, 2, 1.87959
5, 3, bw, catch, NA, 999, 999, 8, 13, 99, 156, 166, 149, 134, 61, 3, 0.787243
5, 3, bw, attraction, a-b-da, 14, 3, 8, 14, 120, 195, 195, 120, 181, 111, 1, 2.56214
5, 3, bw, attraction, a-b-da, 14, 3, 8, 14, 120, 195, 195, 120, 181, 111, 3, 0.77787
5, 3, bw, attraction, a-b-da, 14, 1, 8, 15, 135, 60, 125, 56, 60, 135, 3, 1.39068
5, 3, bw, attraction, a-b-da, 14, 1, 8, 15, 135, 60, 125, 56, 60, 135, 2, 0.734706
5, 3, bw, attraction, a-b-da, 5, 2, 8, 16, 90, 165, 165, 90, 161, 88, 3, 1.47321
5, 3, bw, attraction, a-b-da, 5, 2, 8, 16, 90, 165, 165, 90, 161, 88, 2, 0.642462
5, 3, bw, attraction, a-b-da, 14, 2, 8, 17, 153, 83, 165, 90, 90, 165, 3, 1.13869
5, 3, bw, attraction, a-b-da, 14, 2, 8, 17, 153, 83, 165, 90, 90, 165, 1, 0.76245
5, 3, bw, catch, NA, 999, 999, 8, 18, 191, 124, 89, 106, 148, 107, 1, 1.018
5, 3, bw, catch, NA, 999, 999, 8, 18, 191, 124, 89, 106, 148, 107, 2, 0.767082
5, 3, bw, attraction, a-b-db, 5, 2, 8, 19, 165, 90, 88, 161, 90, 165, 3, 1.9026
5, 3, bw, attraction, a-b-db, 5, 2, 8, 19, 165, 90, 88, 161, 90, 165, 2, 1.40281
5, 3, bw, attraction, a-b-db, 9, 2, 8, 20, 165, 90, 86, 157, 90, 165, 3, 1.50213
5, 3, bw, attraction, a-b-db, 9, 2, 8, 20, 165, 90, 86, 157, 90, 165, 1, 1.05121
5, 3, bw, catch, NA, 999, 999, 8, 21, 68, 127, 126, 129, 165, 150, 3, 0.949371
5, 3, bw, catch, NA, 999, 999, 8, 21, 68, 127, 126, 129, 165, 150, 1, 0.712299
5, 3, bw, filler, NA, 999, 999, 8, 22, 113, 85, 170, 181, 105, 107, 2, 0.888988
5, 3, bw, filler, NA, 999, 999, 8, 22, 113, 85, 170, 181, 105, 107, 3, 1.05978
5, 3, bw, attraction, a-b-db, 5, 3, 8, 23, 120, 195, 117, 190, 195, 120, 3, 1.21597
5, 3, bw, attraction, a-b-db, 5, 3, 8, 23, 120, 195, 117, 190, 195, 120, 2, 0.775429
5, 3, bw, attraction, a-b-db, 14, 2, 8, 24, 165, 90, 83, 153, 90, 165, 3, 1.47725
5, 3, bw, attraction, a-b-db, 14, 2, 8, 24, 165, 90, 83, 153, 90, 165, 2, 0.818414
5, 3, bw, attraction, a-b-da, 9, 2, 8, 25, 165, 90, 90, 165, 157, 86, 2, 1.06234
5, 3, bw, attraction, a-b-da, 9, 2, 8, 25, 165, 90, 90, 165, 157, 86, 3, 0.658114
5, 3, bw, attraction, a-b-da, 5, 3, 8, 26, 190, 117, 195, 120, 120, 195, 2, 1.17348
5, 3, bw, attraction, a-b-da, 5, 3, 8, 26, 190, 117, 195, 120, 120, 195, 3, 1.01375
5, 3, bw, attraction, a-b-da, 2, 2, 8, 27, 163, 89, 165, 90, 90, 165, 2, 1.99522
5, 3, bw, attraction, a-b-da, 2, 2, 8, 27, 163, 89, 165, 90, 90, 165, 3, 0.859616
5, 3, bw, attraction, a-b-db, 9, 1, 8, 28, 57, 129, 60, 135, 135, 60, 2, 1.13615
5, 3, bw, attraction, a-b-db, 9, 1, 8, 28, 57, 129, 60, 135, 135, 60, 1, 0.914061
5, 3, bw, attraction, a-b-db, 5, 1, 8, 29, 60, 135, 135, 60, 58, 132, 2, 1.12137
5, 3, bw, attraction, a-b-db, 5, 1, 8, 29, 60, 135, 135, 60, 58, 132, 3, 0.773242
5, 3, bw, filler, NA, 999, 999, 8, 30, 151, 169, 187, 119, 183, 150, 3, 1.40369
5, 3, bw, filler, NA, 999, 999, 8, 30, 151, 169, 187, 119, 183, 150, 2, 0.690459
5, 3, bw, filler, NA, 999, 999, 8, 31, 195, 162, 168, 158, 131, 128, 1, 1.428
5, 3, bw, filler, NA, 999, 999, 8, 31, 195, 162, 168, 158, 131, 128, 3, 0.722867
5, 3, bw, attraction, a-b-da, 5, 1, 8, 32, 60, 135, 135, 60, 132, 58, 3, 2.78713
5, 3, bw, attraction, a-b-da, 5, 1, 8, 32, 60, 135, 135, 60, 132, 58, 1, 0.700842
5, 3, bw, attraction, a-b-da, 2, 1, 8, 33, 135, 60, 134, 59, 60, 135, 2, 1.10247
5, 3, bw, attraction, a-b-da, 2, 1, 8, 33, 135, 60, 134, 59, 60, 135, 3, 0.80837
5, 3, bw, filler, NA, 999, 999, 8, 34, 178, 80, 116, 104, 96, 193, 3, 1.0546
5, 3, bw, filler, NA, 999, 999, 8, 34, 178, 80, 116, 104, 96, 193, 2, 0.755269
5, 3, bw, attraction, a-b-da, 2, 3, 8, 35, 120, 195, 195, 120, 193, 119, 2, 1.03559
5, 3, bw, attraction, a-b-da, 2, 3, 8, 35, 120, 195, 195, 120, 193, 119, 1, 0.880745
5, 3, bw, filler, NA, 999, 999, 8, 36, 157, 177, 182, 115, 124, 118, 1, 2.37797
5, 3, bw, filler, NA, 999, 999, 8, 36, 157, 177, 182, 115, 124, 118, 3, 0.684413
5, 3, bw, filler, NA, 999, 999, 8, 37, 76, 76, 143, 164, 87, 154, 2, 0.908692
5, 3, bw, filler, NA, 999, 999, 8, 37, 76, 76, 143, 164, 87, 154, 1, 0.769669
