sub_n, computer_n, bw_cond, effect, set, distance, diag, block_n, trial_n, h1, w1, h2, w2, h3, w3, choice, rt 
51, 3, bw, practice, NA, 999, 999, 0, 1, 174, 93, 97, 188, 72, 122, 2, 6.80419
51, 3, bw, practice, NA, 999, 999, 0, 1, 174, 93, 97, 188, 72, 122, 3, 2.02674
51, 3, bw, practice, NA, 999, 999, 0, 2, 90, 183, 87, 157, 72, 137, 1, 3.01922
51, 3, bw, practice, NA, 999, 999, 0, 2, 90, 183, 87, 157, 72, 137, 3, 1.55188
51, 3, bw, practice, NA, 999, 999, 0, 3, 123, 135, 78, 111, 123, 170, 3, 2.85431
51, 3, bw, practice, NA, 999, 999, 0, 3, 123, 135, 78, 111, 123, 170, 2, 0.993134
51, 3, bw, filler, NA, 999, 999, 1, 1, 102, 187, 88, 147, 120, 83, 1, 2.16061
51, 3, bw, filler, NA, 999, 999, 1, 1, 102, 187, 88, 147, 120, 83, 3, 0.968537
51, 3, bw, attraction, a-b-da, 14, 1, 1, 2, 125, 56, 60, 135, 135, 60, 2, 3.71958
51, 3, bw, attraction, a-b-da, 14, 1, 1, 2, 125, 56, 60, 135, 135, 60, 1, 0.968918
51, 3, bw, attraction, a-b-da, 9, 3, 1, 3, 120, 195, 186, 114, 195, 120, 1, 4.68013
51, 3, bw, attraction, a-b-da, 9, 3, 1, 3, 120, 195, 186, 114, 195, 120, 2, 0.938382
51, 3, bw, attraction, a-b-db, 14, 3, 1, 4, 111, 181, 120, 195, 195, 120, 2, 3.09085
51, 3, bw, attraction, a-b-db, 14, 3, 1, 4, 111, 181, 120, 195, 195, 120, 3, 3.86114
51, 3, bw, attraction, a-b-db, 5, 3, 1, 5, 195, 120, 117, 190, 120, 195, 3, 4.15932
51, 3, bw, attraction, a-b-db, 5, 3, 1, 5, 195, 120, 117, 190, 120, 195, 1, 5.43861
51, 3, bw, attraction, a-b-da, 14, 2, 1, 6, 165, 90, 90, 165, 153, 83, 1, 4.3215
51, 3, bw, attraction, a-b-da, 14, 2, 1, 6, 165, 90, 90, 165, 153, 83, 3, 1.25867
51, 3, bw, attraction, a-b-da, 2, 1, 1, 7, 134, 59, 135, 60, 60, 135, 3, 5.0536
51, 3, bw, attraction, a-b-da, 2, 1, 1, 7, 134, 59, 135, 60, 60, 135, 1, 1.63334
51, 3, bw, filler, NA, 999, 999, 1, 8, 100, 192, 175, 75, 84, 139, 1, 1.45338
51, 3, bw, filler, NA, 999, 999, 1, 8, 100, 192, 175, 75, 84, 139, 2, 2.29833
51, 3, bw, attraction, a-b-da, 5, 3, 1, 9, 120, 195, 190, 117, 195, 120, 1, 3.57153
51, 3, bw, attraction, a-b-da, 5, 3, 1, 9, 120, 195, 190, 117, 195, 120, 2, 1.96246
51, 3, bw, filler, NA, 999, 999, 1, 10, 120, 69, 169, 152, 122, 180, 2, 1.58498
51, 3, bw, filler, NA, 999, 999, 1, 10, 120, 69, 169, 152, 122, 180, 1, 0.952468
51, 3, bw, attraction, a-b-db, 2, 1, 1, 11, 59, 134, 135, 60, 60, 135, 3, 1.91241
51, 3, bw, attraction, a-b-db, 2, 1, 1, 11, 59, 134, 135, 60, 60, 135, 1, 3.22623
51, 3, bw, attraction, a-b-da, 5, 1, 1, 12, 132, 58, 60, 135, 135, 60, 2, 2.56593
51, 3, bw, attraction, a-b-da, 5, 1, 1, 12, 132, 58, 60, 135, 135, 60, 1, 0.653522
51, 3, bw, attraction, a-b-da, 14, 3, 1, 13, 120, 195, 181, 111, 195, 120, 1, 3.30529
51, 3, bw, attraction, a-b-da, 14, 3, 1, 13, 120, 195, 181, 111, 195, 120, 2, 1.89961
51, 3, bw, filler, NA, 999, 999, 1, 14, 97, 106, 98, 61, 119, 106, 3, 2.0851
51, 3, bw, filler, NA, 999, 999, 1, 14, 97, 106, 98, 61, 119, 106, 2, 0.808383
51, 3, bw, attraction, a-b-da, 9, 2, 1, 15, 165, 90, 157, 86, 90, 165, 3, 2.5175
51, 3, bw, attraction, a-b-da, 9, 2, 1, 15, 165, 90, 157, 86, 90, 165, 2, 4.1912
51, 3, bw, attraction, a-b-db, 14, 1, 1, 16, 56, 125, 60, 135, 135, 60, 2, 1.89189
51, 3, bw, attraction, a-b-db, 14, 1, 1, 16, 56, 125, 60, 135, 135, 60, 1, 0.622499
51, 3, bw, attraction, a-b-da, 5, 2, 1, 17, 90, 165, 161, 88, 165, 90, 3, 5.93963
51, 3, bw, attraction, a-b-da, 5, 2, 1, 17, 90, 165, 161, 88, 165, 90, 2, 1.81922
51, 3, bw, attraction, a-b-db, 9, 2, 1, 18, 86, 157, 90, 165, 165, 90, 2, 13.3758
51, 3, bw, attraction, a-b-db, 9, 2, 1, 18, 86, 157, 90, 165, 165, 90, 3, 2.4356
51, 3, bw, attraction, a-b-da, 9, 1, 1, 19, 60, 135, 135, 60, 129, 57, 1, 11.1274
51, 3, bw, attraction, a-b-da, 9, 1, 1, 19, 60, 135, 135, 60, 129, 57, 3, 3.22984
51, 3, bw, attraction, a-b-db, 2, 2, 1, 20, 89, 163, 90, 165, 165, 90, 2, 2.78551
51, 3, bw, attraction, a-b-db, 2, 2, 1, 20, 89, 163, 90, 165, 165, 90, 1, 2.74465
51, 3, bw, attraction, a-b-db, 5, 2, 1, 21, 165, 90, 90, 165, 88, 161, 2, 15.5358
51, 3, bw, attraction, a-b-db, 5, 2, 1, 21, 165, 90, 90, 165, 88, 161, 1, 2.15691
51, 3, bw, attraction, a-b-da, 2, 2, 1, 22, 90, 165, 163, 89, 165, 90, 1, 1.9642
51, 3, bw, attraction, a-b-da, 2, 2, 1, 22, 90, 165, 163, 89, 165, 90, 3, 1.57214
51, 3, bw, filler, NA, 999, 999, 1, 23, 78, 116, 159, 68, 177, 129, 3, 1.18679
51, 3, bw, filler, NA, 999, 999, 1, 23, 78, 116, 159, 68, 177, 129, 1, 1.77858
51, 3, bw, filler, NA, 999, 999, 1, 24, 161, 119, 94, 193, 187, 184, 3, 2.53658
51, 3, bw, filler, NA, 999, 999, 1, 24, 161, 119, 94, 193, 187, 184, 2, 2.04979
51, 3, bw, attraction, a-b-db, 9, 1, 1, 25, 60, 135, 57, 129, 135, 60, 1, 3.22909
51, 3, bw, attraction, a-b-db, 9, 1, 1, 25, 60, 135, 57, 129, 135, 60, 2, 1.38599
51, 3, bw, filler, NA, 999, 999, 1, 26, 152, 174, 89, 126, 109, 77, 1, 0.992265
51, 3, bw, filler, NA, 999, 999, 1, 26, 152, 174, 89, 126, 109, 77, 3, 1.74321
51, 3, bw, attraction, a-b-db, 5, 1, 1, 27, 58, 132, 60, 135, 135, 60, 2, 2.99865
51, 3, bw, attraction, a-b-db, 5, 1, 1, 27, 58, 132, 60, 135, 135, 60, 3, 6.40503
51, 3, bw, catch, NA, 999, 999, 1, 28, 162, 93, 113, 82, 175, 140, 3, 1.87282
51, 3, bw, catch, NA, 999, 999, 1, 28, 162, 93, 113, 82, 175, 140, 2, 0.820365
51, 3, bw, attraction, a-b-db, 14, 2, 1, 29, 165, 90, 83, 153, 90, 165, 3, 2.20131
51, 3, bw, attraction, a-b-db, 14, 2, 1, 29, 165, 90, 83, 153, 90, 165, 2, 0.775998
51, 3, bw, attraction, a-b-da, 2, 3, 1, 30, 193, 119, 120, 195, 195, 120, 2, 4.19834
51, 3, bw, attraction, a-b-da, 2, 3, 1, 30, 193, 119, 120, 195, 195, 120, 3, 4.21229
51, 3, bw, filler, NA, 999, 999, 1, 31, 189, 160, 166, 88, 134, 152, 1, 1.1841
51, 3, bw, filler, NA, 999, 999, 1, 31, 189, 160, 166, 88, 134, 152, 2, 4.89595
51, 3, bw, attraction, a-b-db, 9, 3, 1, 32, 114, 186, 195, 120, 120, 195, 3, 12.6884
51, 3, bw, attraction, a-b-db, 9, 3, 1, 32, 114, 186, 195, 120, 120, 195, 2, 2.13625
51, 3, bw, attraction, a-b-db, 2, 3, 1, 33, 195, 120, 120, 195, 119, 193, 1, 7.52815
51, 3, bw, attraction, a-b-db, 2, 3, 1, 33, 195, 120, 120, 195, 119, 193, 3, 1.7519
51, 3, bw, filler, NA, 999, 999, 1, 34, 143, 149, 137, 89, 116, 115, 1, 1.16722
51, 3, bw, filler, NA, 999, 999, 1, 34, 143, 149, 137, 89, 116, 115, 2, 2.8635
51, 3, bw, filler, NA, 999, 999, 1, 35, 178, 96, 191, 103, 87, 119, 2, 1.30592
51, 3, bw, filler, NA, 999, 999, 1, 35, 178, 96, 191, 103, 87, 119, 3, 1.01209
51, 3, bw, catch, NA, 999, 999, 1, 36, 168, 147, 106, 149, 89, 106, 1, 2.64104
51, 3, bw, catch, NA, 999, 999, 1, 36, 168, 147, 106, 149, 89, 106, 3, 1.34153
51, 3, bw, catch, NA, 999, 999, 1, 37, 132, 123, 182, 133, 91, 104, 2, 2.20498
51, 3, bw, catch, NA, 999, 999, 1, 37, 132, 123, 182, 133, 91, 104, 3, 1.07502
51, 3, bw, attraction, a-b-db, 2, 1, 2, 1, 135, 60, 59, 134, 60, 135, 2, 3.74926
51, 3, bw, attraction, a-b-db, 2, 1, 2, 1, 135, 60, 59, 134, 60, 135, 1, 0.869431
51, 3, bw, attraction, a-b-da, 14, 3, 2, 2, 120, 195, 181, 111, 195, 120, 1, 2.00057
51, 3, bw, attraction, a-b-da, 14, 3, 2, 2, 120, 195, 181, 111, 195, 120, 2, 0.935078
51, 3, bw, catch, NA, 999, 999, 2, 3, 104, 151, 159, 156, 129, 66, 2, 1.03928
51, 3, bw, catch, NA, 999, 999, 2, 3, 104, 151, 159, 156, 129, 66, 3, 0.972375
51, 3, bw, attraction, a-b-da, 9, 2, 2, 4, 157, 86, 165, 90, 90, 165, 3, 2.21136
51, 3, bw, attraction, a-b-da, 9, 2, 2, 4, 157, 86, 165, 90, 90, 165, 1, 1.20125
51, 3, bw, filler, NA, 999, 999, 2, 5, 131, 84, 190, 80, 189, 149, 3, 1.43095
51, 3, bw, filler, NA, 999, 999, 2, 5, 131, 84, 190, 80, 189, 149, 1, 0.892416
51, 3, bw, attraction, a-b-da, 14, 1, 2, 6, 135, 60, 125, 56, 60, 135, 3, 10.4062
51, 3, bw, attraction, a-b-da, 14, 1, 2, 6, 135, 60, 125, 56, 60, 135, 2, 2.97808
51, 3, bw, attraction, a-b-da, 14, 2, 2, 7, 153, 83, 90, 165, 165, 90, 2, 3.27175
51, 3, bw, attraction, a-b-da, 14, 2, 2, 7, 153, 83, 90, 165, 165, 90, 1, 0.595343
51, 3, bw, attraction, a-b-da, 9, 3, 2, 8, 120, 195, 195, 120, 186, 114, 1, 7.23322
51, 3, bw, attraction, a-b-da, 9, 3, 2, 8, 120, 195, 195, 120, 186, 114, 3, 0.676857
51, 3, bw, attraction, a-b-db, 2, 3, 2, 9, 120, 195, 119, 193, 195, 120, 2, 2.75133
51, 3, bw, attraction, a-b-db, 2, 3, 2, 9, 120, 195, 119, 193, 195, 120, 3, 1.46369
51, 3, bw, attraction, a-b-db, 2, 2, 2, 10, 90, 165, 165, 90, 89, 163, 3, 5.26655
51, 3, bw, attraction, a-b-db, 2, 2, 2, 10, 90, 165, 165, 90, 89, 163, 2, 0.58154
51, 3, bw, attraction, a-b-db, 5, 2, 2, 11, 88, 161, 90, 165, 165, 90, 1, 4.57203
51, 3, bw, attraction, a-b-db, 5, 2, 2, 11, 88, 161, 90, 165, 165, 90, 3, 0.731131
51, 3, bw, attraction, a-b-db, 5, 3, 2, 12, 195, 120, 117, 190, 120, 195, 1, 7.17146
51, 3, bw, attraction, a-b-db, 5, 3, 2, 12, 195, 120, 117, 190, 120, 195, 2, 1.41803
51, 3, bw, filler, NA, 999, 999, 2, 13, 139, 158, 98, 116, 74, 145, 1, 1.05473
51, 3, bw, filler, NA, 999, 999, 2, 13, 139, 158, 98, 116, 74, 145, 2, 4.91528
51, 3, bw, attraction, a-b-da, 5, 1, 2, 14, 60, 135, 132, 58, 135, 60, 1, 7.62678
51, 3, bw, attraction, a-b-da, 5, 1, 2, 14, 60, 135, 132, 58, 135, 60, 2, 0.686386
51, 3, bw, attraction, a-b-db, 14, 3, 2, 15, 195, 120, 111, 181, 120, 195, 3, 5.40086
51, 3, bw, attraction, a-b-db, 14, 3, 2, 15, 195, 120, 111, 181, 120, 195, 2, 0.486536
51, 3, bw, catch, NA, 999, 999, 2, 16, 151, 164, 165, 90, 123, 72, 1, 1.72078
51, 3, bw, catch, NA, 999, 999, 2, 16, 151, 164, 165, 90, 123, 72, 3, 0.938937
51, 3, bw, filler, NA, 999, 999, 2, 17, 117, 108, 155, 169, 100, 96, 2, 1.09926
51, 3, bw, filler, NA, 999, 999, 2, 17, 117, 108, 155, 169, 100, 96, 3, 0.574252
51, 3, bw, filler, NA, 999, 999, 2, 18, 58, 193, 160, 180, 127, 155, 2, 1.3408
51, 3, bw, filler, NA, 999, 999, 2, 18, 58, 193, 160, 180, 127, 155, 1, 4.15762
51, 3, bw, attraction, a-b-db, 9, 2, 2, 19, 90, 165, 165, 90, 86, 157, 1, 1.99558
51, 3, bw, attraction, a-b-db, 9, 2, 2, 19, 90, 165, 165, 90, 86, 157, 3, 0.666293
51, 3, bw, filler, NA, 999, 999, 2, 20, 104, 118, 123, 125, 75, 149, 2, 2.35731
51, 3, bw, filler, NA, 999, 999, 2, 20, 104, 118, 123, 125, 75, 149, 3, 3.90919
51, 3, bw, attraction, a-b-db, 5, 1, 2, 21, 135, 60, 60, 135, 58, 132, 2, 7.33325
51, 3, bw, attraction, a-b-db, 5, 1, 2, 21, 135, 60, 60, 135, 58, 132, 1, 1.13299
51, 3, bw, attraction, a-b-da, 5, 3, 2, 22, 195, 120, 190, 117, 120, 195, 3, 4.79725
51, 3, bw, attraction, a-b-da, 5, 3, 2, 22, 195, 120, 190, 117, 120, 195, 2, 1.40302
51, 3, bw, attraction, a-b-db, 9, 3, 2, 23, 195, 120, 120, 195, 114, 186, 2, 3.98454
51, 3, bw, attraction, a-b-db, 9, 3, 2, 23, 195, 120, 120, 195, 114, 186, 3, 2.74343
51, 3, bw, filler, NA, 999, 999, 2, 24, 69, 133, 158, 189, 96, 102, 2, 0.830435
51, 3, bw, filler, NA, 999, 999, 2, 24, 69, 133, 158, 189, 96, 102, 3, 7.63622
51, 3, bw, attraction, a-b-db, 14, 1, 2, 25, 60, 135, 135, 60, 56, 125, 1, 5.65424
51, 3, bw, attraction, a-b-db, 14, 1, 2, 25, 60, 135, 135, 60, 56, 125, 3, 1.62582
51, 3, bw, attraction, a-b-da, 5, 2, 2, 26, 161, 88, 90, 165, 165, 90, 2, 7.6619
51, 3, bw, attraction, a-b-da, 5, 2, 2, 26, 161, 88, 90, 165, 165, 90, 1, 1.06411
51, 3, bw, filler, NA, 999, 999, 2, 27, 172, 149, 73, 182, 169, 140, 1, 1.7791
51, 3, bw, filler, NA, 999, 999, 2, 27, 172, 149, 73, 182, 169, 140, 2, 1.54652
51, 3, bw, catch, NA, 999, 999, 2, 28, 123, 132, 193, 122, 119, 76, 2, 1.68995
51, 3, bw, catch, NA, 999, 999, 2, 28, 123, 132, 193, 122, 119, 76, 3, 1.09284
51, 3, bw, attraction, a-b-db, 9, 1, 2, 29, 135, 60, 57, 129, 60, 135, 3, 3.39837
51, 3, bw, attraction, a-b-db, 9, 1, 2, 29, 135, 60, 57, 129, 60, 135, 1, 1.22051
51, 3, bw, attraction, a-b-da, 9, 1, 2, 30, 129, 57, 135, 60, 60, 135, 3, 2.51346
51, 3, bw, attraction, a-b-da, 9, 1, 2, 30, 129, 57, 135, 60, 60, 135, 1, 0.85136
51, 3, bw, attraction, a-b-da, 2, 2, 2, 31, 90, 165, 165, 90, 163, 89, 1, 2.75904
51, 3, bw, attraction, a-b-da, 2, 2, 2, 31, 90, 165, 165, 90, 163, 89, 2, 1.31082
51, 3, bw, attraction, a-b-da, 2, 3, 2, 32, 193, 119, 120, 195, 195, 120, 2, 5.36773
51, 3, bw, attraction, a-b-da, 2, 3, 2, 32, 193, 119, 120, 195, 195, 120, 1, 2.55858
51, 3, bw, attraction, a-b-da, 2, 1, 2, 33, 60, 135, 134, 59, 135, 60, 1, 4.64525
51, 3, bw, attraction, a-b-da, 2, 1, 2, 33, 60, 135, 134, 59, 135, 60, 2, 0.528941
51, 3, bw, attraction, a-b-db, 14, 2, 2, 34, 165, 90, 90, 165, 83, 153, 2, 6.22549
51, 3, bw, attraction, a-b-db, 14, 2, 2, 34, 165, 90, 90, 165, 83, 153, 3, 1.48543
51, 3, bw, filler, NA, 999, 999, 2, 35, 87, 83, 179, 73, 84, 180, 3, 3.08764
51, 3, bw, filler, NA, 999, 999, 2, 35, 87, 83, 179, 73, 84, 180, 1, 0.849886
51, 3, bw, filler, NA, 999, 999, 2, 36, 59, 71, 93, 129, 90, 171, 3, 1.19761
51, 3, bw, filler, NA, 999, 999, 2, 36, 59, 71, 93, 129, 90, 171, 1, 1.0606
51, 3, bw, filler, NA, 999, 999, 2, 37, 66, 189, 152, 133, 97, 104, 2, 2.15954
51, 3, bw, filler, NA, 999, 999, 2, 37, 66, 189, 152, 133, 97, 104, 3, 1.03155
51, 3, bw, filler, NA, 999, 999, 3, 1, 126, 130, 139, 86, 191, 185, 3, 1.2596
51, 3, bw, filler, NA, 999, 999, 3, 1, 126, 130, 139, 86, 191, 185, 2, 0.863903
51, 3, bw, attraction, a-b-db, 14, 2, 3, 2, 165, 90, 90, 165, 83, 153, 2, 5.03492
51, 3, bw, attraction, a-b-db, 14, 2, 3, 2, 165, 90, 90, 165, 83, 153, 3, 0.623329
51, 3, bw, attraction, a-b-da, 14, 2, 3, 3, 90, 165, 165, 90, 153, 83, 1, 3.69246
51, 3, bw, attraction, a-b-da, 14, 2, 3, 3, 90, 165, 165, 90, 153, 83, 3, 0.774738
51, 3, bw, attraction, a-b-db, 5, 2, 3, 4, 88, 161, 165, 90, 90, 165, 3, 3.74892
51, 3, bw, attraction, a-b-db, 5, 2, 3, 4, 88, 161, 165, 90, 90, 165, 2, 2.66109
51, 3, bw, attraction, a-b-da, 14, 3, 3, 5, 181, 111, 120, 195, 195, 120, 2, 2.05559
51, 3, bw, attraction, a-b-da, 14, 3, 3, 5, 181, 111, 120, 195, 195, 120, 1, 2.69165
51, 3, bw, attraction, a-b-da, 5, 2, 3, 6, 165, 90, 90, 165, 161, 88, 2, 10.0687
51, 3, bw, attraction, a-b-da, 5, 2, 3, 6, 165, 90, 90, 165, 161, 88, 1, 1.13409
51, 3, bw, filler, NA, 999, 999, 3, 7, 124, 178, 178, 137, 131, 71, 2, 1.1503
51, 3, bw, filler, NA, 999, 999, 3, 7, 124, 178, 178, 137, 131, 71, 3, 0.503335
51, 3, bw, attraction, a-b-da, 2, 3, 3, 8, 120, 195, 193, 119, 195, 120, 1, 19.5452
51, 3, bw, attraction, a-b-da, 2, 3, 3, 8, 120, 195, 193, 119, 195, 120, 3, 1.53237
51, 3, bw, attraction, a-b-da, 2, 2, 3, 9, 90, 165, 165, 90, 163, 89, 1, 4.64455
51, 3, bw, attraction, a-b-da, 2, 2, 3, 9, 90, 165, 165, 90, 163, 89, 2, 1.21621
51, 3, bw, attraction, a-b-db, 5, 3, 3, 10, 117, 190, 120, 195, 195, 120, 2, 3.81328
51, 3, bw, attraction, a-b-db, 5, 3, 3, 10, 117, 190, 120, 195, 195, 120, 3, 2.1067
51, 3, bw, attraction, a-b-db, 9, 3, 3, 11, 195, 120, 120, 195, 114, 186, 1, 1.89193
51, 3, bw, attraction, a-b-db, 9, 3, 3, 11, 195, 120, 120, 195, 114, 186, 3, 0.974684
51, 3, bw, attraction, a-b-da, 9, 2, 3, 12, 90, 165, 165, 90, 157, 86, 1, 2.46933
51, 3, bw, attraction, a-b-da, 9, 2, 3, 12, 90, 165, 165, 90, 157, 86, 3, 0.672847
51, 3, bw, attraction, a-b-da, 9, 1, 3, 13, 135, 60, 60, 135, 129, 57, 2, 1.87589
51, 3, bw, attraction, a-b-da, 9, 1, 3, 13, 135, 60, 60, 135, 129, 57, 3, 1.16719
51, 3, bw, filler, NA, 999, 999, 3, 14, 128, 94, 113, 64, 159, 94, 3, 1.15832
51, 3, bw, filler, NA, 999, 999, 3, 14, 128, 94, 113, 64, 159, 94, 2, 0.638559
51, 3, bw, attraction, a-b-da, 9, 3, 3, 15, 120, 195, 186, 114, 195, 120, 1, 2.75497
51, 3, bw, attraction, a-b-da, 9, 3, 3, 15, 120, 195, 186, 114, 195, 120, 2, 0.70657
51, 3, bw, attraction, a-b-db, 14, 3, 3, 16, 111, 181, 120, 195, 195, 120, 2, 5.64438
51, 3, bw, attraction, a-b-db, 14, 3, 3, 16, 111, 181, 120, 195, 195, 120, 3, 1.39213
51, 3, bw, filler, NA, 999, 999, 3, 17, 72, 192, 157, 97, 84, 133, 2, 2.76539
51, 3, bw, filler, NA, 999, 999, 3, 17, 72, 192, 157, 97, 84, 133, 3, 0.805245
51, 3, bw, filler, NA, 999, 999, 3, 18, 187, 74, 177, 194, 66, 101, 2, 1.05084
51, 3, bw, filler, NA, 999, 999, 3, 18, 187, 74, 177, 194, 66, 101, 3, 0.959874
51, 3, bw, filler, NA, 999, 999, 3, 19, 165, 80, 148, 120, 115, 99, 2, 4.07884
51, 3, bw, filler, NA, 999, 999, 3, 19, 165, 80, 148, 120, 115, 99, 3, 0.857618
51, 3, bw, attraction, a-b-db, 5, 1, 3, 20, 58, 132, 135, 60, 60, 135, 1, 4.57252
51, 3, bw, attraction, a-b-db, 5, 1, 3, 20, 58, 132, 135, 60, 60, 135, 3, 0.963094
51, 3, bw, filler, NA, 999, 999, 3, 21, 83, 74, 153, 112, 160, 95, 2, 1.64212
51, 3, bw, filler, NA, 999, 999, 3, 21, 83, 74, 153, 112, 160, 95, 1, 0.774816
51, 3, bw, attraction, a-b-da, 5, 3, 3, 22, 190, 117, 120, 195, 195, 120, 2, 4.54939
51, 3, bw, attraction, a-b-da, 5, 3, 3, 22, 190, 117, 120, 195, 195, 120, 3, 3.03707
51, 3, bw, attraction, a-b-da, 14, 1, 3, 23, 125, 56, 60, 135, 135, 60, 2, 4.28876
51, 3, bw, attraction, a-b-da, 14, 1, 3, 23, 125, 56, 60, 135, 135, 60, 1, 0.603373
51, 3, bw, catch, NA, 999, 999, 3, 24, 75, 120, 144, 111, 185, 130, 3, 1.23416
51, 3, bw, catch, NA, 999, 999, 3, 24, 75, 120, 144, 111, 185, 130, 1, 0.942687
51, 3, bw, attraction, a-b-db, 2, 2, 3, 25, 165, 90, 89, 163, 90, 165, 3, 4.65448
51, 3, bw, attraction, a-b-db, 2, 2, 3, 25, 165, 90, 89, 163, 90, 165, 2, 1.86624
51, 3, bw, attraction, a-b-db, 9, 1, 3, 26, 60, 135, 135, 60, 57, 129, 1, 15.1889
51, 3, bw, attraction, a-b-db, 9, 1, 3, 26, 60, 135, 135, 60, 57, 129, 3, 0.824257
51, 3, bw, catch, NA, 999, 999, 3, 27, 179, 136, 110, 145, 83, 112, 1, 1.05242
51, 3, bw, catch, NA, 999, 999, 3, 27, 179, 136, 110, 145, 83, 112, 3, 0.593539
51, 3, bw, catch, NA, 999, 999, 3, 28, 96, 159, 120, 195, 71, 124, 2, 1.1673
51, 3, bw, catch, NA, 999, 999, 3, 28, 96, 159, 120, 195, 71, 124, 3, 0.887527
51, 3, bw, attraction, a-b-da, 2, 1, 3, 29, 135, 60, 60, 135, 134, 59, 3, 3.12186
51, 3, bw, attraction, a-b-da, 2, 1, 3, 29, 135, 60, 60, 135, 134, 59, 2, 1.33151
51, 3, bw, attraction, a-b-da, 5, 1, 3, 30, 60, 135, 132, 58, 135, 60, 1, 2.2517
51, 3, bw, attraction, a-b-da, 5, 1, 3, 30, 60, 135, 132, 58, 135, 60, 2, 0.824296
51, 3, bw, attraction, a-b-db, 2, 3, 3, 31, 195, 120, 120, 195, 119, 193, 1, 2.84458
51, 3, bw, attraction, a-b-db, 2, 3, 3, 31, 195, 120, 120, 195, 119, 193, 3, 1.70513
51, 3, bw, filler, NA, 999, 999, 3, 32, 102, 92, 113, 60, 119, 192, 3, 1.09835
51, 3, bw, filler, NA, 999, 999, 3, 32, 102, 92, 113, 60, 119, 192, 2, 0.573583
51, 3, bw, attraction, a-b-db, 9, 2, 3, 33, 86, 157, 90, 165, 165, 90, 2, 6.09196
51, 3, bw, attraction, a-b-db, 9, 2, 3, 33, 86, 157, 90, 165, 165, 90, 3, 0.581261
51, 3, bw, filler, NA, 999, 999, 3, 34, 176, 148, 144, 177, 194, 195, 3, 0.835785
51, 3, bw, filler, NA, 999, 999, 3, 34, 176, 148, 144, 177, 194, 195, 2, 2.58547
51, 3, bw, attraction, a-b-db, 14, 1, 3, 35, 135, 60, 60, 135, 56, 125, 2, 2.27923
51, 3, bw, attraction, a-b-db, 14, 1, 3, 35, 135, 60, 60, 135, 56, 125, 3, 0.666454
51, 3, bw, filler, NA, 999, 999, 3, 36, 146, 68, 155, 176, 146, 56, 2, 0.773455
51, 3, bw, filler, NA, 999, 999, 3, 36, 146, 68, 155, 176, 146, 56, 3, 1.90934
51, 3, bw, attraction, a-b-db, 2, 1, 3, 37, 60, 135, 135, 60, 59, 134, 3, 1.59792
51, 3, bw, attraction, a-b-db, 2, 1, 3, 37, 60, 135, 135, 60, 59, 134, 2, 0.772725
51, 3, bw, attraction, a-b-db, 14, 1, 4, 1, 60, 135, 56, 125, 135, 60, 1, 2.14788
51, 3, bw, attraction, a-b-db, 14, 1, 4, 1, 60, 135, 56, 125, 135, 60, 3, 0.972646
51, 3, bw, attraction, a-b-da, 2, 3, 4, 2, 120, 195, 193, 119, 195, 120, 1, 6.60339
51, 3, bw, attraction, a-b-da, 2, 3, 4, 2, 120, 195, 193, 119, 195, 120, 3, 0.744656
51, 3, bw, attraction, a-b-db, 9, 2, 4, 3, 165, 90, 90, 165, 86, 157, 2, 3.73657
51, 3, bw, attraction, a-b-db, 9, 2, 4, 3, 165, 90, 90, 165, 86, 157, 1, 0.809276
51, 3, bw, filler, NA, 999, 999, 4, 4, 64, 60, 59, 121, 140, 78, 3, 1.16616
51, 3, bw, filler, NA, 999, 999, 4, 4, 64, 60, 59, 121, 140, 78, 1, 0.742633
51, 3, bw, attraction, a-b-db, 2, 1, 4, 5, 59, 134, 60, 135, 135, 60, 2, 1.86219
51, 3, bw, attraction, a-b-db, 2, 1, 4, 5, 59, 134, 60, 135, 135, 60, 3, 0.50628
51, 3, bw, filler, NA, 999, 999, 4, 6, 96, 179, 130, 187, 189, 177, 3, 0.924047
51, 3, bw, filler, NA, 999, 999, 4, 6, 96, 179, 130, 187, 189, 177, 1, 0.565759
51, 3, bw, filler, NA, 999, 999, 4, 7, 64, 170, 61, 139, 74, 178, 3, 2.08492
51, 3, bw, filler, NA, 999, 999, 4, 7, 64, 170, 61, 139, 74, 178, 2, 0.44805
51, 3, bw, attraction, a-b-db, 2, 3, 4, 8, 195, 120, 119, 193, 120, 195, 2, 13.5159
51, 3, bw, attraction, a-b-db, 2, 3, 4, 8, 195, 120, 119, 193, 120, 195, 3, 0.738423
51, 3, bw, attraction, a-b-da, 14, 2, 4, 9, 165, 90, 153, 83, 90, 165, 3, 1.44294
51, 3, bw, attraction, a-b-da, 14, 2, 4, 9, 165, 90, 153, 83, 90, 165, 2, 1.03964
51, 3, bw, attraction, a-b-db, 2, 2, 4, 10, 89, 163, 90, 165, 165, 90, 1, 2.76382
51, 3, bw, attraction, a-b-db, 2, 2, 4, 10, 89, 163, 90, 165, 165, 90, 2, 0.627615
51, 3, bw, filler, NA, 999, 999, 4, 11, 98, 115, 99, 64, 183, 93, 3, 1.32003
51, 3, bw, filler, NA, 999, 999, 4, 11, 98, 115, 99, 64, 183, 93, 2, 0.762349
51, 3, bw, attraction, a-b-da, 9, 1, 4, 12, 129, 57, 60, 135, 135, 60, 2, 2.48931
51, 3, bw, attraction, a-b-da, 9, 1, 4, 12, 129, 57, 60, 135, 135, 60, 3, 2.21997
51, 3, bw, catch, NA, 999, 999, 4, 13, 98, 97, 153, 162, 127, 128, 2, 0.944492
51, 3, bw, catch, NA, 999, 999, 4, 13, 98, 97, 153, 162, 127, 128, 1, 0.62544
51, 3, bw, attraction, a-b-da, 9, 2, 4, 14, 157, 86, 165, 90, 90, 165, 3, 3.02986
51, 3, bw, attraction, a-b-da, 9, 2, 4, 14, 157, 86, 165, 90, 90, 165, 2, 0.506853
51, 3, bw, attraction, a-b-da, 2, 1, 4, 15, 135, 60, 60, 135, 134, 59, 2, 1.53193
51, 3, bw, attraction, a-b-da, 2, 1, 4, 15, 135, 60, 60, 135, 134, 59, 1, 1.9576
51, 3, bw, filler, NA, 999, 999, 4, 16, 172, 78, 185, 88, 124, 75, 2, 2.0442
51, 3, bw, filler, NA, 999, 999, 4, 16, 172, 78, 185, 88, 124, 75, 3, 0.928815
51, 3, bw, attraction, a-b-db, 5, 1, 4, 17, 135, 60, 58, 132, 60, 135, 2, 20.6971
51, 3, bw, attraction, a-b-db, 5, 1, 4, 17, 135, 60, 58, 132, 60, 135, 3, 0.758181
51, 3, bw, attraction, a-b-db, 5, 3, 4, 18, 120, 195, 195, 120, 117, 190, 2, 3.78103
51, 3, bw, attraction, a-b-db, 5, 3, 4, 18, 120, 195, 195, 120, 117, 190, 3, 0.771761
51, 3, bw, filler, NA, 999, 999, 4, 19, 187, 136, 97, 117, 146, 98, 1, 1.53079
51, 3, bw, filler, NA, 999, 999, 4, 19, 187, 136, 97, 117, 146, 98, 2, 0.772221
51, 3, bw, filler, NA, 999, 999, 4, 20, 127, 154, 150, 124, 64, 144, 2, 2.84341
51, 3, bw, filler, NA, 999, 999, 4, 20, 127, 154, 150, 124, 64, 144, 3, 1.31178
51, 3, bw, filler, NA, 999, 999, 4, 21, 131, 152, 134, 171, 91, 109, 2, 0.936586
51, 3, bw, filler, NA, 999, 999, 4, 21, 131, 152, 134, 171, 91, 109, 3, 0.562316
51, 3, bw, attraction, a-b-da, 2, 2, 4, 22, 163, 89, 90, 165, 165, 90, 2, 1.88146
51, 3, bw, attraction, a-b-da, 2, 2, 4, 22, 163, 89, 90, 165, 165, 90, 3, 0.972834
51, 3, bw, attraction, a-b-db, 9, 3, 4, 23, 114, 186, 120, 195, 195, 120, 2, 5.57992
51, 3, bw, attraction, a-b-db, 9, 3, 4, 23, 114, 186, 120, 195, 195, 120, 1, 0.665967
51, 3, bw, attraction, a-b-da, 14, 1, 4, 24, 125, 56, 60, 135, 135, 60, 2, 2.43722
51, 3, bw, attraction, a-b-da, 14, 1, 4, 24, 125, 56, 60, 135, 135, 60, 1, 0.906203
51, 3, bw, filler, NA, 999, 999, 4, 25, 121, 88, 127, 101, 87, 90, 2, 1.22792
51, 3, bw, filler, NA, 999, 999, 4, 25, 121, 88, 127, 101, 87, 90, 3, 0.545538
51, 3, bw, attraction, a-b-db, 5, 2, 4, 26, 88, 161, 165, 90, 90, 165, 3, 2.73732
51, 3, bw, attraction, a-b-db, 5, 2, 4, 26, 88, 161, 165, 90, 90, 165, 2, 2.39454
51, 3, bw, catch, NA, 999, 999, 4, 27, 107, 148, 125, 190, 124, 71, 2, 0.8316
51, 3, bw, catch, NA, 999, 999, 4, 27, 107, 148, 125, 190, 124, 71, 3, 0.693328
51, 3, bw, attraction, a-b-da, 9, 3, 4, 28, 195, 120, 186, 114, 120, 195, 1, 3.54309
51, 3, bw, attraction, a-b-da, 9, 3, 4, 28, 195, 120, 186, 114, 120, 195, 2, 1.36732
51, 3, bw, attraction, a-b-da, 5, 3, 4, 29, 190, 117, 120, 195, 195, 120, 2, 1.20606
51, 3, bw, attraction, a-b-da, 5, 3, 4, 29, 190, 117, 120, 195, 195, 120, 3, 1.65242
51, 3, bw, catch, NA, 999, 999, 4, 30, 110, 145, 75, 120, 160, 155, 3, 1.24784
51, 3, bw, catch, NA, 999, 999, 4, 30, 110, 145, 75, 120, 160, 155, 2, 0.508669
51, 3, bw, attraction, a-b-db, 14, 3, 4, 31, 111, 181, 195, 120, 120, 195, 3, 2.3179
51, 3, bw, attraction, a-b-db, 14, 3, 4, 31, 111, 181, 195, 120, 120, 195, 1, 0.783795
51, 3, bw, filler, NA, 999, 999, 4, 32, 56, 147, 119, 64, 169, 160, 3, 0.766011
51, 3, bw, filler, NA, 999, 999, 4, 32, 56, 147, 119, 64, 169, 160, 2, 0.534542
51, 3, bw, attraction, a-b-da, 5, 1, 4, 33, 132, 58, 135, 60, 60, 135, 2, 1.39899
51, 3, bw, attraction, a-b-da, 5, 1, 4, 33, 132, 58, 135, 60, 60, 135, 3, 0.629767
51, 3, bw, attraction, a-b-db, 14, 2, 4, 34, 165, 90, 90, 165, 83, 153, 2, 1.24226
51, 3, bw, attraction, a-b-db, 14, 2, 4, 34, 165, 90, 90, 165, 83, 153, 3, 0.927069
51, 3, bw, attraction, a-b-da, 14, 3, 4, 35, 120, 195, 195, 120, 181, 111, 1, 1.7354
51, 3, bw, attraction, a-b-da, 14, 3, 4, 35, 120, 195, 195, 120, 181, 111, 3, 0.496891
51, 3, bw, attraction, a-b-db, 9, 1, 4, 36, 135, 60, 57, 129, 60, 135, 3, 3.07474
51, 3, bw, attraction, a-b-db, 9, 1, 4, 36, 135, 60, 57, 129, 60, 135, 1, 0.805789
51, 3, bw, attraction, a-b-da, 5, 2, 4, 37, 161, 88, 90, 165, 165, 90, 2, 2.46748
51, 3, bw, attraction, a-b-da, 5, 2, 4, 37, 161, 88, 90, 165, 165, 90, 3, 0.991265
51, 3, bw, attraction, a-b-da, 2, 2, 5, 1, 90, 165, 163, 89, 165, 90, 1, 6.53943
51, 3, bw, attraction, a-b-da, 2, 2, 5, 1, 90, 165, 163, 89, 165, 90, 2, 0.707392
51, 3, bw, attraction, a-b-db, 2, 1, 5, 2, 60, 135, 59, 134, 135, 60, 1, 2.68457
51, 3, bw, attraction, a-b-db, 2, 1, 5, 2, 60, 135, 59, 134, 135, 60, 3, 0.999712
51, 3, bw, attraction, a-b-da, 2, 3, 5, 3, 195, 120, 120, 195, 193, 119, 2, 2.50128
51, 3, bw, attraction, a-b-da, 2, 3, 5, 3, 195, 120, 120, 195, 193, 119, 3, 0.61575
51, 3, bw, catch, NA, 999, 999, 5, 4, 132, 183, 91, 164, 90, 105, 1, 0.836968
51, 3, bw, catch, NA, 999, 999, 5, 4, 132, 183, 91, 164, 90, 105, 3, 0.666606
51, 3, bw, attraction, a-b-da, 14, 2, 5, 5, 90, 165, 165, 90, 153, 83, 1, 1.85374
51, 3, bw, attraction, a-b-da, 14, 2, 5, 5, 90, 165, 165, 90, 153, 83, 3, 0.594376
51, 3, bw, filler, NA, 999, 999, 5, 6, 76, 136, 105, 64, 70, 115, 1, 1.74417
51, 3, bw, filler, NA, 999, 999, 5, 6, 76, 136, 105, 64, 70, 115, 2, 0.496907
51, 3, bw, attraction, a-b-db, 5, 2, 5, 7, 165, 90, 88, 161, 90, 165, 2, 2.73877
51, 3, bw, attraction, a-b-db, 5, 2, 5, 7, 165, 90, 88, 161, 90, 165, 3, 2.53921
51, 3, bw, filler, NA, 999, 999, 5, 8, 69, 170, 112, 78, 187, 138, 3, 0.906947
51, 3, bw, filler, NA, 999, 999, 5, 8, 69, 170, 112, 78, 187, 138, 2, 0.517333
51, 3, bw, attraction, a-b-db, 2, 2, 5, 9, 90, 165, 89, 163, 165, 90, 1, 2.6063
51, 3, bw, attraction, a-b-db, 2, 2, 5, 9, 90, 165, 89, 163, 165, 90, 3, 1.02825
51, 3, bw, filler, NA, 999, 999, 5, 10, 159, 123, 94, 189, 110, 181, 1, 4.55252
51, 3, bw, filler, NA, 999, 999, 5, 10, 159, 123, 94, 189, 110, 181, 2, 0.488376
51, 3, bw, attraction, a-b-da, 9, 3, 5, 11, 120, 195, 186, 114, 195, 120, 1, 3.14697
51, 3, bw, attraction, a-b-da, 9, 3, 5, 11, 120, 195, 186, 114, 195, 120, 2, 0.587364
51, 3, bw, filler, NA, 999, 999, 5, 12, 70, 134, 91, 94, 75, 126, 3, 2.44166
51, 3, bw, filler, NA, 999, 999, 5, 12, 70, 134, 91, 94, 75, 126, 1, 2.0782
51, 3, bw, attraction, a-b-db, 14, 2, 5, 13, 90, 165, 83, 153, 165, 90, 1, 7.31215
51, 3, bw, attraction, a-b-db, 14, 2, 5, 13, 90, 165, 83, 153, 165, 90, 2, 0.680387
51, 3, bw, attraction, a-b-da, 14, 1, 5, 14, 125, 56, 60, 135, 135, 60, 3, 4.72291
51, 3, bw, attraction, a-b-da, 14, 1, 5, 14, 125, 56, 60, 135, 135, 60, 1, 0.771401
51, 3, bw, filler, NA, 999, 999, 5, 15, 99, 157, 192, 102, 71, 192, 2, 3.3464
51, 3, bw, filler, NA, 999, 999, 5, 15, 99, 157, 192, 102, 71, 192, 3, 0.602712
51, 3, bw, catch, NA, 999, 999, 5, 16, 159, 156, 115, 80, 155, 100, 1, 0.896461
51, 3, bw, catch, NA, 999, 999, 5, 16, 159, 156, 115, 80, 155, 100, 2, 0.859469
51, 3, bw, attraction, a-b-da, 2, 1, 5, 17, 135, 60, 60, 135, 134, 59, 2, 3.08662
51, 3, bw, attraction, a-b-da, 2, 1, 5, 17, 135, 60, 60, 135, 134, 59, 3, 0.657419
51, 3, bw, catch, NA, 999, 999, 5, 18, 98, 157, 84, 111, 151, 164, 3, 0.948536
51, 3, bw, catch, NA, 999, 999, 5, 18, 98, 157, 84, 111, 151, 164, 2, 0.461444
51, 3, bw, attraction, a-b-db, 9, 1, 5, 19, 135, 60, 60, 135, 57, 129, 2, 2.73661
51, 3, bw, attraction, a-b-db, 9, 1, 5, 19, 135, 60, 60, 135, 57, 129, 3, 0.537797
51, 3, bw, attraction, a-b-db, 9, 2, 5, 20, 165, 90, 86, 157, 90, 165, 1, 4.41022
51, 3, bw, attraction, a-b-db, 9, 2, 5, 20, 165, 90, 86, 157, 90, 165, 2, 0.431626
51, 3, bw, attraction, a-b-da, 9, 1, 5, 21, 129, 57, 135, 60, 60, 135, 3, 3.44392
51, 3, bw, attraction, a-b-da, 9, 1, 5, 21, 129, 57, 135, 60, 60, 135, 1, 0.752225
51, 3, bw, attraction, a-b-db, 14, 1, 5, 22, 135, 60, 56, 125, 60, 135, 3, 2.83192
51, 3, bw, attraction, a-b-db, 14, 1, 5, 22, 135, 60, 56, 125, 60, 135, 2, 0.668967
51, 3, bw, attraction, a-b-db, 5, 3, 5, 23, 195, 120, 120, 195, 117, 190, 2, 4.13603
51, 3, bw, attraction, a-b-db, 5, 3, 5, 23, 195, 120, 120, 195, 117, 190, 3, 0.392727
51, 3, bw, filler, NA, 999, 999, 5, 24, 176, 135, 93, 114, 104, 158, 1, 0.814501
51, 3, bw, filler, NA, 999, 999, 5, 24, 176, 135, 93, 114, 104, 158, 2, 0.372889
51, 3, bw, attraction, a-b-db, 2, 3, 5, 25, 195, 120, 119, 193, 120, 195, 2, 3.08416
51, 3, bw, attraction, a-b-db, 2, 3, 5, 25, 195, 120, 119, 193, 120, 195, 3, 2.51132
51, 3, bw, filler, NA, 999, 999, 5, 26, 118, 150, 93, 120, 194, 107, 1, 8.73567
51, 3, bw, filler, NA, 999, 999, 5, 26, 118, 150, 93, 120, 194, 107, 2, 1.23892
51, 3, bw, attraction, a-b-da, 5, 1, 5, 27, 60, 135, 132, 58, 135, 60, 1, 2.59508
51, 3, bw, attraction, a-b-da, 5, 1, 5, 27, 60, 135, 132, 58, 135, 60, 2, 0.777552
51, 3, bw, attraction, a-b-db, 9, 3, 5, 28, 195, 120, 114, 186, 120, 195, 1, 3.57613
51, 3, bw, attraction, a-b-db, 9, 3, 5, 28, 195, 120, 114, 186, 120, 195, 2, 0.902762
51, 3, bw, attraction, a-b-da, 9, 2, 5, 29, 157, 86, 165, 90, 90, 165, 3, 6.69654
51, 3, bw, attraction, a-b-da, 9, 2, 5, 29, 157, 86, 165, 90, 90, 165, 2, 0.961617
51, 3, bw, filler, NA, 999, 999, 5, 30, 77, 57, 191, 160, 132, 160, 2, 0.976598
51, 3, bw, filler, NA, 999, 999, 5, 30, 77, 57, 191, 160, 132, 160, 1, 0.9923
51, 3, bw, attraction, a-b-da, 5, 3, 5, 31, 120, 195, 195, 120, 190, 117, 1, 2.13396
51, 3, bw, attraction, a-b-da, 5, 3, 5, 31, 120, 195, 195, 120, 190, 117, 3, 1.73522
51, 3, bw, attraction, a-b-da, 14, 3, 5, 32, 195, 120, 120, 195, 181, 111, 1, 1.59935
51, 3, bw, attraction, a-b-da, 14, 3, 5, 32, 195, 120, 120, 195, 181, 111, 3, 1.09404
51, 3, bw, attraction, a-b-da, 5, 2, 5, 33, 90, 165, 165, 90, 161, 88, 1, 4.2078
51, 3, bw, attraction, a-b-da, 5, 2, 5, 33, 90, 165, 165, 90, 161, 88, 3, 1.11705
51, 3, bw, filler, NA, 999, 999, 5, 34, 177, 56, 131, 165, 69, 191, 2, 0.917873
51, 3, bw, filler, NA, 999, 999, 5, 34, 177, 56, 131, 165, 69, 191, 1, 2.7362
51, 3, bw, attraction, a-b-db, 14, 3, 5, 35, 195, 120, 120, 195, 111, 181, 2, 3.43215
51, 3, bw, attraction, a-b-db, 14, 3, 5, 35, 195, 120, 120, 195, 111, 181, 3, 0.700949
51, 3, bw, attraction, a-b-db, 5, 1, 5, 36, 135, 60, 58, 132, 60, 135, 3, 2.22274
51, 3, bw, attraction, a-b-db, 5, 1, 5, 36, 135, 60, 58, 132, 60, 135, 2, 0.708033
51, 3, bw, filler, NA, 999, 999, 5, 37, 191, 124, 141, 81, 191, 171, 3, 0.741106
51, 3, bw, filler, NA, 999, 999, 5, 37, 191, 124, 141, 81, 191, 171, 2, 0.518224
51, 3, bw, attraction, a-b-db, 5, 3, 6, 1, 195, 120, 117, 190, 120, 195, 3, 4.61521
51, 3, bw, attraction, a-b-db, 5, 3, 6, 1, 195, 120, 117, 190, 120, 195, 2, 0.644429
51, 3, bw, attraction, a-b-db, 2, 3, 6, 2, 120, 195, 119, 193, 195, 120, 1, 3.10409
51, 3, bw, attraction, a-b-db, 2, 3, 6, 2, 120, 195, 119, 193, 195, 120, 2, 0.426448
51, 3, bw, attraction, a-b-db, 2, 2, 6, 3, 165, 90, 90, 165, 89, 163, 1, 4.24693
51, 3, bw, attraction, a-b-db, 2, 2, 6, 3, 165, 90, 90, 165, 89, 163, 2, 0.554946
51, 3, bw, attraction, a-b-da, 14, 1, 6, 4, 135, 60, 125, 56, 60, 135, 3, 8.52277
51, 3, bw, attraction, a-b-da, 14, 1, 6, 4, 135, 60, 125, 56, 60, 135, 2, 0.626665
51, 3, bw, attraction, a-b-db, 9, 2, 6, 5, 90, 165, 86, 157, 165, 90, 1, 3.07915
51, 3, bw, attraction, a-b-db, 9, 2, 6, 5, 90, 165, 86, 157, 165, 90, 3, 4.30625
51, 3, bw, filler, NA, 999, 999, 6, 6, 131, 82, 100, 88, 162, 108, 3, 1.25069
51, 3, bw, filler, NA, 999, 999, 6, 6, 131, 82, 100, 88, 162, 108, 2, 0.447594
51, 3, bw, filler, NA, 999, 999, 6, 7, 181, 97, 150, 166, 71, 141, 2, 1.01144
51, 3, bw, filler, NA, 999, 999, 6, 7, 181, 97, 150, 166, 71, 141, 3, 1.55387
51, 3, bw, attraction, a-b-db, 14, 2, 6, 8, 165, 90, 83, 153, 90, 165, 3, 2.28925
51, 3, bw, attraction, a-b-db, 14, 2, 6, 8, 165, 90, 83, 153, 90, 165, 2, 0.787743
51, 3, bw, filler, NA, 999, 999, 6, 9, 57, 124, 91, 101, 192, 66, 3, 2.81011
51, 3, bw, filler, NA, 999, 999, 6, 9, 57, 124, 91, 101, 192, 66, 1, 5.40803
51, 3, bw, attraction, a-b-da, 2, 1, 6, 10, 134, 59, 135, 60, 60, 135, 3, 1.18746
51, 3, bw, attraction, a-b-da, 2, 1, 6, 10, 134, 59, 135, 60, 60, 135, 1, 1.45904
51, 3, bw, attraction, a-b-da, 2, 3, 6, 11, 193, 119, 195, 120, 120, 195, 2, 2.21391
51, 3, bw, attraction, a-b-da, 2, 3, 6, 11, 193, 119, 195, 120, 120, 195, 3, 0.899887
51, 3, bw, catch, NA, 999, 999, 6, 12, 85, 110, 146, 169, 150, 105, 2, 0.84549
51, 3, bw, catch, NA, 999, 999, 6, 12, 85, 110, 146, 169, 150, 105, 1, 0.546478
51, 3, bw, attraction, a-b-db, 14, 3, 6, 13, 111, 181, 195, 120, 120, 195, 3, 2.44236
51, 3, bw, attraction, a-b-db, 14, 3, 6, 13, 111, 181, 195, 120, 120, 195, 1, 0.534871
51, 3, bw, attraction, a-b-db, 5, 1, 6, 14, 135, 60, 60, 135, 58, 132, 2, 2.03943
51, 3, bw, attraction, a-b-db, 5, 1, 6, 14, 135, 60, 60, 135, 58, 132, 3, 0.692049
51, 3, bw, attraction, a-b-da, 2, 2, 6, 15, 90, 165, 165, 90, 163, 89, 1, 2.39774
51, 3, bw, attraction, a-b-da, 2, 2, 6, 15, 90, 165, 165, 90, 163, 89, 2, 3.25234
51, 3, bw, attraction, a-b-da, 9, 2, 6, 16, 90, 165, 165, 90, 157, 86, 1, 2.86331
51, 3, bw, attraction, a-b-da, 9, 2, 6, 16, 90, 165, 165, 90, 157, 86, 2, 1.09103
51, 3, bw, filler, NA, 999, 999, 6, 17, 177, 110, 104, 90, 171, 121, 3, 4.4447
51, 3, bw, filler, NA, 999, 999, 6, 17, 177, 110, 104, 90, 171, 121, 2, 0.648472
51, 3, bw, attraction, a-b-da, 9, 1, 6, 18, 129, 57, 135, 60, 60, 135, 3, 4.5722
51, 3, bw, attraction, a-b-da, 9, 1, 6, 18, 129, 57, 135, 60, 60, 135, 1, 0.667377
51, 3, bw, attraction, a-b-da, 14, 2, 6, 19, 90, 165, 153, 83, 165, 90, 1, 1.59859
51, 3, bw, attraction, a-b-da, 14, 2, 6, 19, 90, 165, 153, 83, 165, 90, 2, 0.613247
51, 3, bw, attraction, a-b-db, 9, 1, 6, 20, 135, 60, 57, 129, 60, 135, 3, 1.91447
51, 3, bw, attraction, a-b-db, 9, 1, 6, 20, 135, 60, 57, 129, 60, 135, 2, 1.95644
51, 3, bw, attraction, a-b-da, 9, 3, 6, 21, 120, 195, 195, 120, 186, 114, 1, 1.77973
51, 3, bw, attraction, a-b-da, 9, 3, 6, 21, 120, 195, 195, 120, 186, 114, 3, 3.59517
51, 3, bw, attraction, a-b-db, 5, 2, 6, 22, 165, 90, 88, 161, 90, 165, 3, 8.55244
51, 3, bw, attraction, a-b-db, 5, 2, 6, 22, 165, 90, 88, 161, 90, 165, 2, 0.694633
51, 3, bw, catch, NA, 999, 999, 6, 23, 125, 130, 95, 100, 138, 177, 3, 0.920315
51, 3, bw, catch, NA, 999, 999, 6, 23, 125, 130, 95, 100, 138, 177, 2, 0.874667
51, 3, bw, filler, NA, 999, 999, 6, 24, 173, 161, 104, 103, 82, 126, 1, 0.741051
51, 3, bw, filler, NA, 999, 999, 6, 24, 173, 161, 104, 103, 82, 126, 2, 0.50207
51, 3, bw, catch, NA, 999, 999, 6, 25, 84, 111, 167, 148, 125, 130, 2, 2.24787
51, 3, bw, catch, NA, 999, 999, 6, 25, 84, 111, 167, 148, 125, 130, 1, 0.740471
51, 3, bw, filler, NA, 999, 999, 6, 26, 56, 113, 163, 176, 194, 152, 2, 4.77221
51, 3, bw, filler, NA, 999, 999, 6, 26, 56, 113, 163, 176, 194, 152, 1, 0.723367
51, 3, bw, attraction, a-b-da, 5, 3, 6, 27, 120, 195, 190, 117, 195, 120, 1, 2.1478
51, 3, bw, attraction, a-b-da, 5, 3, 6, 27, 120, 195, 190, 117, 195, 120, 2, 0.556347
51, 3, bw, filler, NA, 999, 999, 6, 28, 61, 62, 57, 191, 145, 156, 3, 0.932085
51, 3, bw, filler, NA, 999, 999, 6, 28, 61, 62, 57, 191, 145, 156, 1, 0.789817
51, 3, bw, filler, NA, 999, 999, 6, 29, 82, 95, 112, 142, 137, 190, 3, 0.980232
51, 3, bw, filler, NA, 999, 999, 6, 29, 82, 95, 112, 142, 137, 190, 1, 0.739873
51, 3, bw, filler, NA, 999, 999, 6, 30, 70, 186, 66, 136, 101, 101, 1, 2.3484
51, 3, bw, filler, NA, 999, 999, 6, 30, 70, 186, 66, 136, 101, 101, 2, 2.72489
51, 3, bw, attraction, a-b-da, 5, 1, 6, 31, 132, 58, 135, 60, 60, 135, 2, 5.67656
51, 3, bw, attraction, a-b-da, 5, 1, 6, 31, 132, 58, 135, 60, 60, 135, 3, 3.15878
51, 3, bw, attraction, a-b-da, 5, 2, 6, 32, 165, 90, 161, 88, 90, 165, 3, 2.98114
51, 3, bw, attraction, a-b-da, 5, 2, 6, 32, 165, 90, 161, 88, 90, 165, 1, 1.92417
51, 3, bw, attraction, a-b-db, 2, 1, 6, 33, 60, 135, 135, 60, 59, 134, 3, 6.66017
51, 3, bw, attraction, a-b-db, 2, 1, 6, 33, 60, 135, 135, 60, 59, 134, 1, 2.95065
51, 3, bw, attraction, a-b-db, 9, 3, 6, 34, 114, 186, 195, 120, 120, 195, 3, 5.09375
51, 3, bw, attraction, a-b-db, 9, 3, 6, 34, 114, 186, 195, 120, 120, 195, 2, 3.31954
51, 3, bw, attraction, a-b-da, 14, 3, 6, 35, 120, 195, 181, 111, 195, 120, 3, 6.48772
51, 3, bw, attraction, a-b-da, 14, 3, 6, 35, 120, 195, 181, 111, 195, 120, 2, 1.40962
51, 3, bw, filler, NA, 999, 999, 6, 36, 109, 70, 129, 179, 126, 93, 2, 1.23041
51, 3, bw, filler, NA, 999, 999, 6, 36, 109, 70, 129, 179, 126, 93, 1, 0.876086
51, 3, bw, attraction, a-b-db, 14, 1, 6, 37, 60, 135, 56, 125, 135, 60, 1, 3.68641
51, 3, bw, attraction, a-b-db, 14, 1, 6, 37, 60, 135, 56, 125, 135, 60, 2, 1.52929
51, 3, bw, filler, NA, 999, 999, 7, 1, 125, 106, 91, 187, 63, 87, 2, 1.8014
51, 3, bw, filler, NA, 999, 999, 7, 1, 125, 106, 91, 187, 63, 87, 3, 0.600213
51, 3, bw, attraction, a-b-da, 5, 1, 7, 2, 135, 60, 60, 135, 132, 58, 2, 3.58988
51, 3, bw, attraction, a-b-da, 5, 1, 7, 2, 135, 60, 60, 135, 132, 58, 3, 1.24408
51, 3, bw, catch, NA, 999, 999, 7, 3, 187, 128, 90, 105, 106, 149, 1, 1.23147
51, 3, bw, catch, NA, 999, 999, 7, 3, 187, 128, 90, 105, 106, 149, 2, 0.701072
51, 3, bw, catch, NA, 999, 999, 7, 4, 128, 127, 186, 129, 85, 110, 2, 1.92683
51, 3, bw, catch, NA, 999, 999, 7, 4, 128, 127, 186, 129, 85, 110, 3, 0.792224
51, 3, bw, attraction, a-b-da, 2, 3, 7, 5, 193, 119, 195, 120, 120, 195, 3, 8.83808
51, 3, bw, attraction, a-b-da, 2, 3, 7, 5, 193, 119, 195, 120, 120, 195, 2, 0.753155
51, 3, bw, attraction, a-b-da, 2, 1, 7, 6, 134, 59, 135, 60, 60, 135, 3, 2.00886
51, 3, bw, attraction, a-b-da, 2, 1, 7, 6, 134, 59, 135, 60, 60, 135, 1, 0.790823
51, 3, bw, filler, NA, 999, 999, 7, 7, 126, 120, 188, 194, 101, 120, 2, 0.788493
51, 3, bw, filler, NA, 999, 999, 7, 7, 126, 120, 188, 194, 101, 120, 3, 0.851708
51, 3, bw, attraction, a-b-da, 2, 2, 7, 8, 90, 165, 163, 89, 165, 90, 1, 3.35134
51, 3, bw, attraction, a-b-da, 2, 2, 7, 8, 90, 165, 163, 89, 165, 90, 2, 0.623512
51, 3, bw, filler, NA, 999, 999, 7, 9, 182, 139, 57, 62, 97, 169, 1, 1.25194
51, 3, bw, filler, NA, 999, 999, 7, 9, 182, 139, 57, 62, 97, 169, 2, 0.888854
51, 3, bw, attraction, a-b-db, 9, 2, 7, 10, 165, 90, 86, 157, 90, 165, 1, 3.58727
51, 3, bw, attraction, a-b-db, 9, 2, 7, 10, 165, 90, 86, 157, 90, 165, 2, 0.481961
51, 3, bw, attraction, a-b-db, 9, 1, 7, 11, 60, 135, 57, 129, 135, 60, 1, 1.72455
51, 3, bw, attraction, a-b-db, 9, 1, 7, 11, 60, 135, 57, 129, 135, 60, 3, 0.541938
51, 3, bw, filler, NA, 999, 999, 7, 12, 131, 132, 100, 84, 122, 69, 1, 2.17387
51, 3, bw, filler, NA, 999, 999, 7, 12, 131, 132, 100, 84, 122, 69, 2, 0.476973
51, 3, bw, attraction, a-b-db, 5, 3, 7, 13, 195, 120, 120, 195, 117, 190, 2, 20.5995
51, 3, bw, attraction, a-b-db, 5, 3, 7, 13, 195, 120, 120, 195, 117, 190, 3, 0.664329
51, 3, bw, filler, NA, 999, 999, 7, 14, 123, 184, 147, 62, 91, 172, 1, 1.62744
51, 3, bw, filler, NA, 999, 999, 7, 14, 123, 184, 147, 62, 91, 172, 2, 0.400981
51, 3, bw, attraction, a-b-da, 9, 3, 7, 15, 186, 114, 195, 120, 120, 195, 2, 1.27065
51, 3, bw, attraction, a-b-da, 9, 3, 7, 15, 186, 114, 195, 120, 120, 195, 1, 1.90694
51, 3, bw, attraction, a-b-da, 9, 2, 7, 16, 90, 165, 165, 90, 157, 86, 1, 3.89236
51, 3, bw, attraction, a-b-da, 9, 2, 7, 16, 90, 165, 165, 90, 157, 86, 3, 1.01442
51, 3, bw, attraction, a-b-db, 14, 3, 7, 17, 120, 195, 111, 181, 195, 120, 1, 2.85933
51, 3, bw, attraction, a-b-db, 14, 3, 7, 17, 120, 195, 111, 181, 195, 120, 2, 0.543146
51, 3, bw, attraction, a-b-db, 2, 2, 7, 18, 90, 165, 165, 90, 89, 163, 1, 3.87893
51, 3, bw, attraction, a-b-db, 2, 2, 7, 18, 90, 165, 165, 90, 89, 163, 2, 0.48954
51, 3, bw, attraction, a-b-da, 14, 3, 7, 19, 120, 195, 181, 111, 195, 120, 1, 2.04396
51, 3, bw, attraction, a-b-da, 14, 3, 7, 19, 120, 195, 181, 111, 195, 120, 2, 0.520642
51, 3, bw, filler, NA, 999, 999, 7, 20, 87, 100, 162, 57, 80, 58, 2, 3.80186
51, 3, bw, filler, NA, 999, 999, 7, 20, 87, 100, 162, 57, 80, 58, 3, 0.848038
51, 3, bw, filler, NA, 999, 999, 7, 21, 92, 57, 149, 110, 97, 186, 3, 1.77969
51, 3, bw, filler, NA, 999, 999, 7, 21, 92, 57, 149, 110, 97, 186, 1, 0.699098
51, 3, bw, attraction, a-b-da, 14, 1, 7, 22, 60, 135, 125, 56, 135, 60, 3, 3.9408
51, 3, bw, attraction, a-b-da, 14, 1, 7, 22, 60, 135, 125, 56, 135, 60, 2, 0.532782
51, 3, bw, attraction, a-b-db, 2, 1, 7, 23, 135, 60, 60, 135, 59, 134, 3, 13.9733
51, 3, bw, attraction, a-b-db, 2, 1, 7, 23, 135, 60, 60, 135, 59, 134, 2, 2.03362
51, 3, bw, attraction, a-b-da, 5, 3, 7, 24, 190, 117, 195, 120, 120, 195, 2, 6.56555
51, 3, bw, attraction, a-b-da, 5, 3, 7, 24, 190, 117, 195, 120, 120, 195, 3, 0.57208
51, 3, bw, attraction, a-b-da, 14, 2, 7, 25, 165, 90, 153, 83, 90, 165, 3, 3.08316
51, 3, bw, attraction, a-b-da, 14, 2, 7, 25, 165, 90, 153, 83, 90, 165, 2, 0.398325
51, 3, bw, attraction, a-b-da, 9, 1, 7, 26, 135, 60, 129, 57, 60, 135, 1, 3.06022
51, 3, bw, attraction, a-b-da, 9, 1, 7, 26, 135, 60, 129, 57, 60, 135, 2, 0.575742
51, 3, bw, filler, NA, 999, 999, 7, 27, 98, 71, 111, 113, 71, 66, 2, 0.774118
51, 3, bw, filler, NA, 999, 999, 7, 27, 98, 71, 111, 113, 71, 66, 3, 0.469883
51, 3, bw, attraction, a-b-da, 5, 2, 7, 28, 161, 88, 90, 165, 165, 90, 2, 12.025
51, 3, bw, attraction, a-b-da, 5, 2, 7, 28, 161, 88, 90, 165, 165, 90, 1, 1.57134
51, 3, bw, attraction, a-b-db, 5, 1, 7, 29, 58, 132, 60, 135, 135, 60, 2, 3.38598
51, 3, bw, attraction, a-b-db, 5, 1, 7, 29, 58, 132, 60, 135, 135, 60, 1, 0.688887
51, 3, bw, attraction, a-b-db, 5, 2, 7, 30, 88, 161, 165, 90, 90, 165, 3, 3.15569
51, 3, bw, attraction, a-b-db, 5, 2, 7, 30, 88, 161, 165, 90, 90, 165, 1, 0.954903
51, 3, bw, filler, NA, 999, 999, 7, 31, 70, 97, 142, 172, 60, 88, 2, 1.00266
51, 3, bw, filler, NA, 999, 999, 7, 31, 70, 97, 142, 172, 60, 88, 3, 0.497634
51, 3, bw, attraction, a-b-db, 9, 3, 7, 32, 114, 186, 195, 120, 120, 195, 3, 5.20347
51, 3, bw, attraction, a-b-db, 9, 3, 7, 32, 114, 186, 195, 120, 120, 195, 1, 0.601064
51, 3, bw, filler, NA, 999, 999, 7, 33, 79, 148, 165, 174, 65, 57, 2, 1.08694
51, 3, bw, filler, NA, 999, 999, 7, 33, 79, 148, 165, 174, 65, 57, 3, 0.65052
51, 3, bw, catch, NA, 999, 999, 7, 34, 145, 170, 95, 100, 155, 100, 1, 1.07818
51, 3, bw, catch, NA, 999, 999, 7, 34, 145, 170, 95, 100, 155, 100, 2, 0.481793
51, 3, bw, attraction, a-b-db, 2, 3, 7, 35, 119, 193, 195, 120, 120, 195, 3, 10.0123
51, 3, bw, attraction, a-b-db, 2, 3, 7, 35, 119, 193, 195, 120, 120, 195, 1, 0.791813
51, 3, bw, attraction, a-b-db, 14, 1, 7, 36, 60, 135, 56, 125, 135, 60, 1, 5.95764
51, 3, bw, attraction, a-b-db, 14, 1, 7, 36, 60, 135, 56, 125, 135, 60, 2, 2.13232
51, 3, bw, attraction, a-b-db, 14, 2, 7, 37, 83, 153, 90, 165, 165, 90, 2, 14.9804
51, 3, bw, attraction, a-b-db, 14, 2, 7, 37, 83, 153, 90, 165, 165, 90, 1, 0.66348
51, 3, bw, filler, NA, 999, 999, 8, 1, 119, 169, 56, 140, 112, 74, 1, 1.18657
51, 3, bw, filler, NA, 999, 999, 8, 1, 119, 169, 56, 140, 112, 74, 3, 0.722223
51, 3, bw, attraction, a-b-db, 9, 2, 8, 2, 90, 165, 165, 90, 86, 157, 1, 4.10723
51, 3, bw, attraction, a-b-db, 9, 2, 8, 2, 90, 165, 165, 90, 86, 157, 3, 1.56468
51, 3, bw, catch, NA, 999, 999, 8, 3, 146, 109, 104, 91, 191, 124, 3, 1.75549
51, 3, bw, catch, NA, 999, 999, 8, 3, 146, 109, 104, 91, 191, 124, 2, 0.587387
51, 3, bw, attraction, a-b-db, 14, 1, 8, 4, 60, 135, 135, 60, 56, 125, 1, 16.138
51, 3, bw, attraction, a-b-db, 14, 1, 8, 4, 60, 135, 135, 60, 56, 125, 3, 0.638807
51, 3, bw, attraction, a-b-db, 2, 3, 8, 5, 195, 120, 119, 193, 120, 195, 2, 21.3714
51, 3, bw, attraction, a-b-db, 2, 3, 8, 5, 195, 120, 119, 193, 120, 195, 3, 0.85327
51, 3, bw, attraction, a-b-db, 5, 3, 8, 6, 195, 120, 117, 190, 120, 195, 1, 40.321
51, 3, bw, attraction, a-b-db, 5, 3, 8, 6, 195, 120, 117, 190, 120, 195, 2, 1.31089
51, 3, bw, attraction, a-b-da, 2, 2, 8, 7, 165, 90, 163, 89, 90, 165, 3, 2.8478
51, 3, bw, attraction, a-b-da, 2, 2, 8, 7, 165, 90, 163, 89, 90, 165, 2, 0.676169
51, 3, bw, attraction, a-b-da, 5, 1, 8, 8, 135, 60, 132, 58, 60, 135, 3, 1.56662
51, 3, bw, attraction, a-b-da, 5, 1, 8, 8, 135, 60, 132, 58, 60, 135, 2, 0.622675
51, 3, bw, attraction, a-b-db, 14, 2, 8, 9, 165, 90, 90, 165, 83, 153, 2, 1.81978
51, 3, bw, attraction, a-b-db, 14, 2, 8, 9, 165, 90, 90, 165, 83, 153, 3, 0.62596
51, 3, bw, attraction, a-b-db, 9, 1, 8, 10, 60, 135, 57, 129, 135, 60, 2, 2.95033
51, 3, bw, attraction, a-b-db, 9, 1, 8, 10, 60, 135, 57, 129, 135, 60, 3, 0.694719
51, 3, bw, attraction, a-b-da, 5, 3, 8, 11, 190, 117, 195, 120, 120, 195, 2, 1.9284
51, 3, bw, attraction, a-b-da, 5, 3, 8, 11, 190, 117, 195, 120, 120, 195, 3, 0.865791
51, 3, bw, filler, NA, 999, 999, 8, 12, 179, 95, 162, 161, 168, 164, 2, 1.07677
51, 3, bw, filler, NA, 999, 999, 8, 12, 179, 95, 162, 161, 168, 164, 1, 1.73644
51, 3, bw, catch, NA, 999, 999, 8, 13, 188, 127, 106, 149, 66, 129, 1, 1.53655
51, 3, bw, catch, NA, 999, 999, 8, 13, 188, 127, 106, 149, 66, 129, 3, 0.633961
51, 3, bw, attraction, a-b-db, 2, 1, 8, 14, 60, 135, 135, 60, 59, 134, 1, 2.69445
51, 3, bw, attraction, a-b-db, 2, 1, 8, 14, 60, 135, 135, 60, 59, 134, 3, 1.4969
51, 3, bw, attraction, a-b-db, 2, 2, 8, 15, 89, 163, 90, 165, 165, 90, 1, 4.96234
51, 3, bw, attraction, a-b-db, 2, 2, 8, 15, 89, 163, 90, 165, 165, 90, 3, 1.76939
51, 3, bw, attraction, a-b-da, 9, 2, 8, 16, 157, 86, 165, 90, 90, 165, 3, 4.91221
51, 3, bw, attraction, a-b-da, 9, 2, 8, 16, 157, 86, 165, 90, 90, 165, 2, 0.593251
51, 3, bw, attraction, a-b-db, 14, 3, 8, 17, 120, 195, 195, 120, 111, 181, 2, 1.00708
51, 3, bw, attraction, a-b-db, 14, 3, 8, 17, 120, 195, 195, 120, 111, 181, 3, 0.389498
51, 3, bw, attraction, a-b-db, 5, 1, 8, 18, 135, 60, 58, 132, 60, 135, 2, 2.12387
51, 3, bw, attraction, a-b-db, 5, 1, 8, 18, 135, 60, 58, 132, 60, 135, 1, 3.09324
51, 3, bw, filler, NA, 999, 999, 8, 19, 163, 115, 114, 84, 127, 118, 1, 1.29417
51, 3, bw, filler, NA, 999, 999, 8, 19, 163, 115, 114, 84, 127, 118, 2, 0.993081
51, 3, bw, filler, NA, 999, 999, 8, 20, 112, 69, 179, 88, 94, 169, 2, 0.982721
51, 3, bw, filler, NA, 999, 999, 8, 20, 112, 69, 179, 88, 94, 169, 1, 0.64632
51, 3, bw, attraction, a-b-da, 9, 3, 8, 21, 186, 114, 195, 120, 120, 195, 2, 4.93803
51, 3, bw, attraction, a-b-da, 9, 3, 8, 21, 186, 114, 195, 120, 120, 195, 3, 1.50644
51, 3, bw, attraction, a-b-db, 9, 3, 8, 22, 114, 186, 120, 195, 195, 120, 2, 15.1241
51, 3, bw, attraction, a-b-db, 9, 3, 8, 22, 114, 186, 120, 195, 195, 120, 3, 0.897948
51, 3, bw, filler, NA, 999, 999, 8, 23, 79, 164, 161, 134, 161, 150, 3, 1.90754
51, 3, bw, filler, NA, 999, 999, 8, 23, 79, 164, 161, 134, 161, 150, 1, 0.629466
51, 3, bw, attraction, a-b-da, 5, 2, 8, 24, 161, 88, 165, 90, 90, 165, 2, 5.73007
51, 3, bw, attraction, a-b-da, 5, 2, 8, 24, 161, 88, 165, 90, 90, 165, 3, 0.858105
51, 3, bw, filler, NA, 999, 999, 8, 25, 64, 146, 112, 194, 165, 137, 3, 2.14117
51, 3, bw, filler, NA, 999, 999, 8, 25, 64, 146, 112, 194, 165, 137, 1, 0.989874
51, 3, bw, attraction, a-b-db, 5, 2, 8, 26, 88, 161, 165, 90, 90, 165, 1, 2.02817
51, 3, bw, attraction, a-b-db, 5, 2, 8, 26, 88, 161, 165, 90, 90, 165, 2, 4.03342
51, 3, bw, filler, NA, 999, 999, 8, 27, 59, 83, 151, 98, 132, 167, 3, 1.34118
51, 3, bw, filler, NA, 999, 999, 8, 27, 59, 83, 151, 98, 132, 167, 1, 0.517722
51, 3, bw, attraction, a-b-da, 14, 2, 8, 28, 165, 90, 90, 165, 153, 83, 1, 2.71089
51, 3, bw, attraction, a-b-da, 14, 2, 8, 28, 165, 90, 90, 165, 153, 83, 3, 0.920611
51, 3, bw, catch, NA, 999, 999, 8, 29, 168, 147, 108, 87, 138, 117, 1, 0.865429
51, 3, bw, catch, NA, 999, 999, 8, 29, 168, 147, 108, 87, 138, 117, 2, 0.582011
51, 3, bw, attraction, a-b-da, 14, 3, 8, 30, 120, 195, 181, 111, 195, 120, 1, 1.8125
51, 3, bw, attraction, a-b-da, 14, 3, 8, 30, 120, 195, 181, 111, 195, 120, 2, 0.530395
51, 3, bw, filler, NA, 999, 999, 8, 31, 168, 148, 105, 194, 192, 63, 1, 3.16288
51, 3, bw, filler, NA, 999, 999, 8, 31, 168, 148, 105, 194, 192, 63, 3, 1.2025
51, 3, bw, attraction, a-b-da, 14, 1, 8, 32, 125, 56, 135, 60, 60, 135, 3, 1.84011
51, 3, bw, attraction, a-b-da, 14, 1, 8, 32, 125, 56, 135, 60, 60, 135, 1, 0.900856
51, 3, bw, attraction, a-b-da, 2, 3, 8, 33, 193, 119, 120, 195, 195, 120, 2, 2.36677
51, 3, bw, attraction, a-b-da, 2, 3, 8, 33, 193, 119, 120, 195, 195, 120, 3, 2.60648
51, 3, bw, attraction, a-b-da, 2, 1, 8, 34, 60, 135, 134, 59, 135, 60, 3, 11.8195
51, 3, bw, attraction, a-b-da, 2, 1, 8, 34, 60, 135, 134, 59, 135, 60, 2, 0.614492
51, 3, bw, attraction, a-b-da, 9, 1, 8, 35, 60, 135, 135, 60, 129, 57, 1, 2.75568
51, 3, bw, attraction, a-b-da, 9, 1, 8, 35, 60, 135, 135, 60, 129, 57, 3, 1.41933
51, 3, bw, filler, NA, 999, 999, 8, 36, 83, 147, 81, 82, 191, 91, 3, 2.9282
51, 3, bw, filler, NA, 999, 999, 8, 36, 83, 147, 81, 82, 191, 91, 2, 0.681185
51, 3, bw, filler, NA, 999, 999, 8, 37, 138, 150, 59, 126, 121, 112, 1, 0.93959
51, 3, bw, filler, NA, 999, 999, 8, 37, 138, 150, 59, 126, 121, 112, 2, 1.12481
