sub_n, computer_n, bw_cond, effect, set, distance, diag, block_n, trial_n, h1, w1, h2, w2, h3, w3, choice, rt 
58, 3, wb, practice, NA, 999, 999, 0, 1, 155, 139, 159, 186, 176, 168, 1, 3.72914
58, 3, wb, practice, NA, 999, 999, 0, 1, 155, 139, 159, 186, 176, 168, 2, 3.87336
58, 3, wb, practice, NA, 999, 999, 0, 2, 144, 136, 130, 138, 193, 80, 2, 7.15409
58, 3, wb, practice, NA, 999, 999, 0, 2, 144, 136, 130, 138, 193, 80, 3, 4.20149
58, 3, wb, practice, NA, 999, 999, 0, 3, 184, 114, 194, 122, 69, 175, 3, 3.80223
58, 3, wb, practice, NA, 999, 999, 0, 3, 184, 114, 194, 122, 69, 175, 2, 2.55181
58, 3, wb, attraction, a-b-db, 14, 1, 1, 1, 135, 60, 56, 125, 60, 135, 2, 5.05191
58, 3, wb, attraction, a-b-db, 14, 1, 1, 1, 135, 60, 56, 125, 60, 135, 3, 2.20774
58, 3, wb, filler, NA, 999, 999, 1, 2, 131, 123, 113, 57, 107, 175, 2, 6.38832
58, 3, wb, filler, NA, 999, 999, 1, 2, 131, 123, 113, 57, 107, 175, 3, 1.99421
58, 3, wb, attraction, a-b-db, 14, 2, 1, 3, 90, 165, 83, 153, 165, 90, 2, 2.79156
58, 3, wb, attraction, a-b-db, 14, 2, 1, 3, 90, 165, 83, 153, 165, 90, 1, 1.59789
58, 3, wb, filler, NA, 999, 999, 1, 4, 111, 162, 171, 105, 67, 84, 3, 1.10744
58, 3, wb, filler, NA, 999, 999, 1, 4, 111, 162, 171, 105, 67, 84, 2, 1.93374
58, 3, wb, catch, NA, 999, 999, 1, 5, 88, 107, 182, 133, 134, 121, 1, 1.2856
58, 3, wb, catch, NA, 999, 999, 1, 5, 88, 107, 182, 133, 134, 121, 2, 0.825278
58, 3, wb, attraction, a-b-db, 2, 3, 1, 6, 120, 195, 195, 120, 119, 193, 2, 5.09361
58, 3, wb, attraction, a-b-db, 2, 3, 1, 6, 120, 195, 195, 120, 119, 193, 3, 0.535309
58, 3, wb, attraction, a-b-db, 9, 1, 1, 7, 60, 135, 57, 129, 135, 60, 1, 2.68775
58, 3, wb, attraction, a-b-db, 9, 1, 1, 7, 60, 135, 57, 129, 135, 60, 3, 0.522884
58, 3, wb, attraction, a-b-db, 2, 1, 1, 8, 59, 134, 135, 60, 60, 135, 2, 1.04404
58, 3, wb, attraction, a-b-db, 2, 1, 1, 8, 59, 134, 135, 60, 60, 135, 1, 0.721019
58, 3, wb, attraction, a-b-da, 9, 1, 1, 9, 135, 60, 129, 57, 60, 135, 2, 0.986025
58, 3, wb, attraction, a-b-da, 9, 1, 1, 9, 135, 60, 129, 57, 60, 135, 3, 0.665726
58, 3, wb, attraction, a-b-da, 5, 1, 1, 10, 60, 135, 132, 58, 135, 60, 1, 1.02085
58, 3, wb, attraction, a-b-da, 5, 1, 1, 10, 60, 135, 132, 58, 135, 60, 3, 0.659166
58, 3, wb, filler, NA, 999, 999, 1, 11, 98, 131, 109, 178, 68, 56, 3, 1.14228
58, 3, wb, filler, NA, 999, 999, 1, 11, 98, 131, 109, 178, 68, 56, 2, 0.719145
58, 3, wb, attraction, a-b-da, 2, 2, 1, 12, 165, 90, 163, 89, 90, 165, 1, 3.12011
58, 3, wb, attraction, a-b-da, 2, 2, 1, 12, 165, 90, 163, 89, 90, 165, 2, 0.465842
58, 3, wb, attraction, a-b-db, 14, 3, 1, 13, 195, 120, 111, 181, 120, 195, 2, 1.18106
58, 3, wb, attraction, a-b-db, 14, 3, 1, 13, 195, 120, 111, 181, 120, 195, 1, 0.412655
58, 3, wb, filler, NA, 999, 999, 1, 14, 114, 70, 93, 111, 138, 155, 2, 1.70578
58, 3, wb, filler, NA, 999, 999, 1, 14, 114, 70, 93, 111, 138, 155, 3, 0.339899
58, 3, wb, attraction, a-b-db, 5, 2, 1, 15, 165, 90, 90, 165, 88, 161, 2, 0.995674
58, 3, wb, attraction, a-b-db, 5, 2, 1, 15, 165, 90, 90, 165, 88, 161, 1, 0.970764
58, 3, wb, attraction, a-b-db, 9, 2, 1, 16, 90, 165, 86, 157, 165, 90, 2, 0.625687
58, 3, wb, attraction, a-b-db, 9, 2, 1, 16, 90, 165, 86, 157, 165, 90, 3, 0.399405
58, 3, wb, attraction, a-b-db, 5, 3, 1, 17, 117, 190, 195, 120, 120, 195, 1, 0.877226
58, 3, wb, attraction, a-b-db, 5, 3, 1, 17, 117, 190, 195, 120, 120, 195, 3, 0.664886
58, 3, wb, filler, NA, 999, 999, 1, 18, 134, 136, 100, 146, 80, 174, 2, 0.652035
58, 3, wb, filler, NA, 999, 999, 1, 18, 134, 136, 100, 146, 80, 174, 3, 1.22527
58, 3, wb, attraction, a-b-da, 2, 1, 1, 19, 60, 135, 135, 60, 134, 59, 2, 0.893299
58, 3, wb, attraction, a-b-da, 2, 1, 1, 19, 60, 135, 135, 60, 134, 59, 1, 0.440319
58, 3, wb, attraction, a-b-da, 9, 2, 1, 20, 90, 165, 157, 86, 165, 90, 2, 0.620139
58, 3, wb, attraction, a-b-da, 9, 2, 1, 20, 90, 165, 157, 86, 165, 90, 3, 0.466609
58, 3, wb, filler, NA, 999, 999, 1, 21, 103, 151, 117, 122, 86, 131, 3, 1.45376
58, 3, wb, filler, NA, 999, 999, 1, 21, 103, 151, 117, 122, 86, 131, 1, 0.898507
58, 3, wb, attraction, a-b-da, 14, 2, 1, 22, 90, 165, 153, 83, 165, 90, 2, 0.540157
58, 3, wb, attraction, a-b-da, 14, 2, 1, 22, 90, 165, 153, 83, 165, 90, 3, 0.557338
58, 3, wb, catch, NA, 999, 999, 1, 23, 131, 124, 68, 127, 140, 175, 2, 0.620514
58, 3, wb, catch, NA, 999, 999, 1, 23, 131, 124, 68, 127, 140, 175, 3, 0.530989
58, 3, wb, attraction, a-b-da, 5, 3, 1, 24, 120, 195, 190, 117, 195, 120, 1, 0.595264
58, 3, wb, attraction, a-b-da, 5, 3, 1, 24, 120, 195, 190, 117, 195, 120, 3, 0.730636
58, 3, wb, filler, NA, 999, 999, 1, 25, 90, 176, 136, 96, 85, 130, 2, 0.522833
58, 3, wb, filler, NA, 999, 999, 1, 25, 90, 176, 136, 96, 85, 130, 1, 1.63669
58, 3, wb, attraction, a-b-db, 2, 2, 1, 26, 89, 163, 165, 90, 90, 165, 2, 0.728832
58, 3, wb, attraction, a-b-db, 2, 2, 1, 26, 89, 163, 165, 90, 90, 165, 3, 0.450637
58, 3, wb, attraction, a-b-da, 5, 2, 1, 27, 161, 88, 165, 90, 90, 165, 1, 0.846215
58, 3, wb, attraction, a-b-da, 5, 2, 1, 27, 161, 88, 165, 90, 90, 165, 3, 1.03546
58, 3, wb, filler, NA, 999, 999, 1, 28, 142, 74, 84, 190, 58, 177, 3, 2.62366
58, 3, wb, filler, NA, 999, 999, 1, 28, 142, 74, 84, 190, 58, 177, 2, 0.684821
58, 3, wb, attraction, a-b-da, 14, 3, 1, 29, 181, 111, 195, 120, 120, 195, 1, 1.65543
58, 3, wb, attraction, a-b-da, 14, 3, 1, 29, 181, 111, 195, 120, 120, 195, 3, 0.411296
58, 3, wb, attraction, a-b-db, 5, 1, 1, 30, 60, 135, 58, 132, 135, 60, 2, 0.976564
58, 3, wb, attraction, a-b-db, 5, 1, 1, 30, 60, 135, 58, 132, 135, 60, 3, 0.520159
58, 3, wb, filler, NA, 999, 999, 1, 31, 102, 181, 102, 177, 160, 190, 2, 0.529204
58, 3, wb, filler, NA, 999, 999, 1, 31, 102, 181, 102, 177, 160, 190, 3, 0.555089
58, 3, wb, attraction, a-b-da, 9, 3, 1, 32, 195, 120, 186, 114, 120, 195, 2, 0.882831
58, 3, wb, attraction, a-b-da, 9, 3, 1, 32, 195, 120, 186, 114, 120, 195, 3, 0.638479
58, 3, wb, filler, NA, 999, 999, 1, 33, 188, 83, 184, 136, 56, 168, 3, 1.16298
58, 3, wb, filler, NA, 999, 999, 1, 33, 188, 83, 184, 136, 56, 168, 2, 0.739241
58, 3, wb, catch, NA, 999, 999, 1, 34, 69, 126, 189, 126, 96, 159, 1, 0.875554
58, 3, wb, catch, NA, 999, 999, 1, 34, 69, 126, 189, 126, 96, 159, 2, 0.487235
58, 3, wb, attraction, a-b-da, 14, 1, 1, 35, 135, 60, 125, 56, 60, 135, 2, 1.20171
58, 3, wb, attraction, a-b-da, 14, 1, 1, 35, 135, 60, 125, 56, 60, 135, 3, 0.520687
58, 3, wb, attraction, a-b-db, 9, 3, 1, 36, 114, 186, 120, 195, 195, 120, 1, 1.87385
58, 3, wb, attraction, a-b-db, 9, 3, 1, 36, 114, 186, 120, 195, 195, 120, 3, 0.445197
58, 3, wb, attraction, a-b-da, 2, 3, 1, 37, 120, 195, 195, 120, 193, 119, 1, 0.776989
58, 3, wb, attraction, a-b-da, 2, 3, 1, 37, 120, 195, 195, 120, 193, 119, 3, 0.448837
58, 3, wb, filler, NA, 999, 999, 2, 1, 174, 65, 107, 186, 163, 127, 1, 0.700439
58, 3, wb, filler, NA, 999, 999, 2, 1, 174, 65, 107, 186, 163, 127, 3, 0.647686
58, 3, wb, catch, NA, 999, 999, 2, 2, 166, 149, 87, 108, 113, 142, 2, 0.579344
58, 3, wb, catch, NA, 999, 999, 2, 2, 166, 149, 87, 108, 113, 142, 1, 0.419044
58, 3, wb, attraction, a-b-da, 14, 1, 2, 3, 125, 56, 135, 60, 60, 135, 1, 0.848269
58, 3, wb, attraction, a-b-da, 14, 1, 2, 3, 125, 56, 135, 60, 60, 135, 2, 0.365298
58, 3, wb, attraction, a-b-db, 5, 2, 2, 4, 88, 161, 165, 90, 90, 165, 2, 0.540444
58, 3, wb, attraction, a-b-db, 5, 2, 2, 4, 88, 161, 165, 90, 90, 165, 3, 0.325706
58, 3, wb, attraction, a-b-db, 2, 3, 2, 5, 119, 193, 195, 120, 120, 195, 1, 0.462094
58, 3, wb, attraction, a-b-db, 2, 3, 2, 5, 119, 193, 195, 120, 120, 195, 3, 0.306659
58, 3, wb, attraction, a-b-da, 5, 1, 2, 6, 135, 60, 60, 135, 132, 58, 1, 0.411777
58, 3, wb, attraction, a-b-da, 5, 1, 2, 6, 135, 60, 60, 135, 132, 58, 3, 0.370336
58, 3, wb, attraction, a-b-da, 5, 3, 2, 7, 195, 120, 120, 195, 190, 117, 2, 0.42547
58, 3, wb, attraction, a-b-da, 5, 3, 2, 7, 195, 120, 120, 195, 190, 117, 1, 1.38334
58, 3, wb, attraction, a-b-da, 14, 3, 2, 8, 120, 195, 195, 120, 181, 111, 1, 0.629471
58, 3, wb, attraction, a-b-da, 14, 3, 2, 8, 120, 195, 195, 120, 181, 111, 3, 0.619256
58, 3, wb, attraction, a-b-da, 9, 2, 2, 9, 165, 90, 157, 86, 90, 165, 2, 0.672473
58, 3, wb, attraction, a-b-da, 9, 2, 2, 9, 165, 90, 157, 86, 90, 165, 1, 0.420197
58, 3, wb, attraction, a-b-da, 9, 3, 2, 10, 186, 114, 195, 120, 120, 195, 2, 0.433149
58, 3, wb, attraction, a-b-da, 9, 3, 2, 10, 186, 114, 195, 120, 120, 195, 3, 0.359022
58, 3, wb, attraction, a-b-da, 5, 2, 2, 11, 165, 90, 90, 165, 161, 88, 2, 0.390188
58, 3, wb, attraction, a-b-da, 5, 2, 2, 11, 165, 90, 90, 165, 161, 88, 3, 0.64544
58, 3, wb, filler, NA, 999, 999, 2, 12, 87, 79, 195, 101, 132, 76, 1, 1.00132
58, 3, wb, filler, NA, 999, 999, 2, 12, 87, 79, 195, 101, 132, 76, 2, 0.344153
58, 3, wb, attraction, a-b-da, 2, 1, 2, 13, 135, 60, 60, 135, 134, 59, 1, 0.696005
58, 3, wb, attraction, a-b-da, 2, 1, 2, 13, 135, 60, 60, 135, 134, 59, 2, 0.451105
58, 3, wb, filler, NA, 999, 999, 2, 14, 159, 111, 116, 69, 149, 134, 2, 0.662822
58, 3, wb, filler, NA, 999, 999, 2, 14, 159, 111, 116, 69, 149, 134, 3, 0.331346
58, 3, wb, filler, NA, 999, 999, 2, 15, 57, 62, 60, 108, 175, 94, 1, 1.45979
58, 3, wb, filler, NA, 999, 999, 2, 15, 57, 62, 60, 108, 175, 94, 3, 0.359985
58, 3, wb, filler, NA, 999, 999, 2, 16, 93, 86, 172, 116, 116, 138, 1, 0.61533
58, 3, wb, filler, NA, 999, 999, 2, 16, 93, 86, 172, 116, 116, 138, 2, 0.341589
58, 3, wb, attraction, a-b-db, 2, 2, 2, 17, 90, 165, 165, 90, 89, 163, 1, 0.677507
58, 3, wb, attraction, a-b-db, 2, 2, 2, 17, 90, 165, 165, 90, 89, 163, 3, 0.45734
58, 3, wb, attraction, a-b-db, 5, 1, 2, 18, 58, 132, 60, 135, 135, 60, 2, 0.620326
58, 3, wb, attraction, a-b-db, 5, 1, 2, 18, 58, 132, 60, 135, 135, 60, 3, 0.746828
58, 3, wb, attraction, a-b-db, 14, 2, 2, 19, 83, 153, 90, 165, 165, 90, 1, 0.802402
58, 3, wb, attraction, a-b-db, 14, 2, 2, 19, 83, 153, 90, 165, 165, 90, 2, 0.433661
58, 3, wb, filler, NA, 999, 999, 2, 20, 180, 87, 129, 157, 146, 96, 3, 1.5821
58, 3, wb, filler, NA, 999, 999, 2, 20, 180, 87, 129, 157, 146, 96, 2, 0.733561
58, 3, wb, filler, NA, 999, 999, 2, 21, 125, 178, 68, 65, 130, 190, 2, 0.837924
58, 3, wb, filler, NA, 999, 999, 2, 21, 125, 178, 68, 65, 130, 190, 3, 0.314932
58, 3, wb, catch, NA, 999, 999, 2, 22, 183, 132, 95, 160, 90, 105, 3, 0.732064
58, 3, wb, catch, NA, 999, 999, 2, 22, 183, 132, 95, 160, 90, 105, 1, 0.597793
58, 3, wb, filler, NA, 999, 999, 2, 23, 157, 84, 136, 59, 153, 169, 2, 0.579733
58, 3, wb, filler, NA, 999, 999, 2, 23, 157, 84, 136, 59, 153, 169, 3, 0.307405
58, 3, wb, attraction, a-b-db, 9, 1, 2, 24, 60, 135, 57, 129, 135, 60, 2, 0.580504
58, 3, wb, attraction, a-b-db, 9, 1, 2, 24, 60, 135, 57, 129, 135, 60, 3, 0.508443
58, 3, wb, attraction, a-b-da, 9, 1, 2, 25, 135, 60, 60, 135, 129, 57, 2, 0.485489
58, 3, wb, attraction, a-b-da, 9, 1, 2, 25, 135, 60, 60, 135, 129, 57, 3, 0.497406
58, 3, wb, catch, NA, 999, 999, 2, 26, 134, 61, 95, 160, 174, 141, 1, 0.483003
58, 3, wb, catch, NA, 999, 999, 2, 26, 134, 61, 95, 160, 174, 141, 3, 0.679016
58, 3, wb, attraction, a-b-db, 14, 1, 2, 27, 56, 125, 135, 60, 60, 135, 2, 0.649276
58, 3, wb, attraction, a-b-db, 14, 1, 2, 27, 56, 125, 135, 60, 60, 135, 3, 0.662599
58, 3, wb, attraction, a-b-db, 14, 3, 2, 28, 120, 195, 195, 120, 111, 181, 1, 0.441374
58, 3, wb, attraction, a-b-db, 14, 3, 2, 28, 120, 195, 195, 120, 111, 181, 3, 0.382527
58, 3, wb, attraction, a-b-db, 9, 3, 2, 29, 120, 195, 114, 186, 195, 120, 2, 0.509068
58, 3, wb, attraction, a-b-db, 9, 3, 2, 29, 120, 195, 114, 186, 195, 120, 3, 0.327715
58, 3, wb, attraction, a-b-da, 14, 2, 2, 30, 90, 165, 165, 90, 153, 83, 2, 0.76822
58, 3, wb, attraction, a-b-da, 14, 2, 2, 30, 90, 165, 165, 90, 153, 83, 3, 0.336616
58, 3, wb, attraction, a-b-da, 2, 3, 2, 31, 195, 120, 120, 195, 193, 119, 2, 0.321044
58, 3, wb, attraction, a-b-da, 2, 3, 2, 31, 195, 120, 120, 195, 193, 119, 3, 0.499671
58, 3, wb, attraction, a-b-da, 2, 2, 2, 32, 165, 90, 163, 89, 90, 165, 1, 0.429333
58, 3, wb, attraction, a-b-da, 2, 2, 2, 32, 165, 90, 163, 89, 90, 165, 3, 0.355257
58, 3, wb, attraction, a-b-db, 2, 1, 2, 33, 59, 134, 135, 60, 60, 135, 2, 0.643047
58, 3, wb, attraction, a-b-db, 2, 1, 2, 33, 59, 134, 135, 60, 60, 135, 3, 0.448211
58, 3, wb, attraction, a-b-db, 5, 3, 2, 34, 120, 195, 195, 120, 117, 190, 2, 0.451883
58, 3, wb, attraction, a-b-db, 5, 3, 2, 34, 120, 195, 195, 120, 117, 190, 3, 0.417259
58, 3, wb, attraction, a-b-db, 9, 2, 2, 35, 86, 157, 165, 90, 90, 165, 2, 0.270222
58, 3, wb, attraction, a-b-db, 9, 2, 2, 35, 86, 157, 165, 90, 90, 165, 3, 0.346931
58, 3, wb, filler, NA, 999, 999, 2, 36, 87, 187, 158, 153, 169, 125, 2, 0.21074
58, 3, wb, filler, NA, 999, 999, 2, 36, 87, 187, 158, 153, 169, 125, 3, 2.86521
58, 3, wb, filler, NA, 999, 999, 2, 37, 77, 137, 77, 189, 103, 192, 2, 0.931499
58, 3, wb, filler, NA, 999, 999, 2, 37, 77, 137, 77, 189, 103, 192, 3, 3.17338
58, 3, wb, attraction, a-b-da, 9, 2, 3, 1, 165, 90, 157, 86, 90, 165, 2, 0.955668
58, 3, wb, attraction, a-b-da, 9, 2, 3, 1, 165, 90, 157, 86, 90, 165, 3, 0.468078
58, 3, wb, attraction, a-b-da, 9, 1, 3, 2, 135, 60, 60, 135, 129, 57, 2, 0.631004
58, 3, wb, attraction, a-b-da, 9, 1, 3, 2, 135, 60, 60, 135, 129, 57, 3, 0.964863
58, 3, wb, catch, NA, 999, 999, 3, 3, 152, 103, 129, 66, 139, 176, 2, 1.13182
58, 3, wb, catch, NA, 999, 999, 3, 3, 152, 103, 129, 66, 139, 176, 3, 0.621325
58, 3, wb, attraction, a-b-da, 9, 3, 3, 4, 186, 114, 195, 120, 120, 195, 2, 0.994488
58, 3, wb, attraction, a-b-da, 9, 3, 3, 4, 186, 114, 195, 120, 120, 195, 3, 0.681467
58, 3, wb, attraction, a-b-db, 5, 3, 3, 5, 120, 195, 117, 190, 195, 120, 1, 0.851843
58, 3, wb, attraction, a-b-db, 5, 3, 3, 5, 120, 195, 117, 190, 195, 120, 2, 0.576959
58, 3, wb, filler, NA, 999, 999, 3, 6, 65, 94, 80, 93, 125, 63, 1, 1.51937
58, 3, wb, filler, NA, 999, 999, 3, 6, 65, 94, 80, 93, 125, 63, 2, 0.417562
58, 3, wb, filler, NA, 999, 999, 3, 7, 153, 175, 113, 147, 140, 142, 2, 1.43875
58, 3, wb, filler, NA, 999, 999, 3, 7, 153, 175, 113, 147, 140, 142, 1, 0.547557
58, 3, wb, attraction, a-b-da, 14, 1, 3, 8, 135, 60, 60, 135, 125, 56, 2, 1.45134
58, 3, wb, attraction, a-b-da, 14, 1, 3, 8, 135, 60, 60, 135, 125, 56, 1, 1.1042
58, 3, wb, attraction, a-b-db, 5, 1, 3, 9, 58, 132, 60, 135, 135, 60, 2, 1.10587
58, 3, wb, attraction, a-b-db, 5, 1, 3, 9, 58, 132, 60, 135, 135, 60, 3, 1.09207
58, 3, wb, filler, NA, 999, 999, 3, 10, 177, 187, 134, 117, 98, 160, 2, 0.517729
58, 3, wb, filler, NA, 999, 999, 3, 10, 177, 187, 134, 117, 98, 160, 1, 0.592067
58, 3, wb, filler, NA, 999, 999, 3, 11, 187, 192, 166, 169, 174, 129, 3, 1.03802
58, 3, wb, filler, NA, 999, 999, 3, 11, 187, 192, 166, 169, 174, 129, 1, 1.08287
58, 3, wb, attraction, a-b-db, 9, 1, 3, 12, 135, 60, 60, 135, 57, 129, 1, 1.00513
58, 3, wb, attraction, a-b-db, 9, 1, 3, 12, 135, 60, 60, 135, 57, 129, 2, 0.331478
58, 3, wb, attraction, a-b-db, 2, 2, 3, 13, 90, 165, 165, 90, 89, 163, 2, 0.61997
58, 3, wb, attraction, a-b-db, 2, 2, 3, 13, 90, 165, 165, 90, 89, 163, 3, 0.434338
58, 3, wb, attraction, a-b-db, 14, 3, 3, 14, 120, 195, 111, 181, 195, 120, 2, 0.446907
58, 3, wb, attraction, a-b-db, 14, 3, 3, 14, 120, 195, 111, 181, 195, 120, 3, 0.324065
58, 3, wb, attraction, a-b-da, 5, 1, 3, 15, 60, 135, 135, 60, 132, 58, 2, 0.564555
58, 3, wb, attraction, a-b-da, 5, 1, 3, 15, 60, 135, 135, 60, 132, 58, 1, 0.445102
58, 3, wb, attraction, a-b-da, 2, 3, 3, 16, 120, 195, 193, 119, 195, 120, 2, 0.448725
58, 3, wb, attraction, a-b-da, 2, 3, 3, 16, 120, 195, 193, 119, 195, 120, 3, 0.302135
58, 3, wb, attraction, a-b-db, 14, 1, 3, 17, 56, 125, 60, 135, 135, 60, 1, 0.671958
58, 3, wb, attraction, a-b-db, 14, 1, 3, 17, 56, 125, 60, 135, 135, 60, 2, 0.859656
58, 3, wb, filler, NA, 999, 999, 3, 18, 143, 101, 71, 168, 89, 103, 3, 0.926474
58, 3, wb, filler, NA, 999, 999, 3, 18, 143, 101, 71, 168, 89, 103, 2, 0.304214
58, 3, wb, catch, NA, 999, 999, 3, 19, 132, 63, 130, 125, 166, 149, 1, 0.746029
58, 3, wb, catch, NA, 999, 999, 3, 19, 132, 63, 130, 125, 166, 149, 3, 0.323118
58, 3, wb, attraction, a-b-db, 14, 2, 3, 20, 165, 90, 90, 165, 83, 153, 3, 0.644265
58, 3, wb, attraction, a-b-db, 14, 2, 3, 20, 165, 90, 90, 165, 83, 153, 1, 0.617545
58, 3, wb, filler, NA, 999, 999, 3, 21, 192, 70, 154, 139, 112, 139, 1, 0.734613
58, 3, wb, filler, NA, 999, 999, 3, 21, 192, 70, 154, 139, 112, 139, 2, 0.312343
58, 3, wb, catch, NA, 999, 999, 3, 22, 68, 127, 155, 160, 161, 94, 1, 0.697396
58, 3, wb, catch, NA, 999, 999, 3, 22, 68, 127, 155, 160, 161, 94, 2, 0.332636
58, 3, wb, attraction, a-b-db, 9, 3, 3, 23, 114, 186, 195, 120, 120, 195, 2, 2.14103
58, 3, wb, attraction, a-b-db, 9, 3, 3, 23, 114, 186, 195, 120, 120, 195, 1, 0.565625
58, 3, wb, attraction, a-b-da, 5, 3, 3, 24, 195, 120, 190, 117, 120, 195, 2, 1.0447
58, 3, wb, attraction, a-b-da, 5, 3, 3, 24, 195, 120, 190, 117, 120, 195, 3, 0.305747
58, 3, wb, attraction, a-b-db, 5, 2, 3, 25, 90, 165, 88, 161, 165, 90, 2, 1.79559
58, 3, wb, attraction, a-b-db, 5, 2, 3, 25, 90, 165, 88, 161, 165, 90, 1, 1.01841
58, 3, wb, filler, NA, 999, 999, 3, 26, 195, 137, 148, 77, 115, 113, 2, 0.775222
58, 3, wb, filler, NA, 999, 999, 3, 26, 195, 137, 148, 77, 115, 113, 1, 0.838988
58, 3, wb, attraction, a-b-da, 14, 3, 3, 27, 181, 111, 195, 120, 120, 195, 2, 0.875388
58, 3, wb, attraction, a-b-da, 14, 3, 3, 27, 181, 111, 195, 120, 120, 195, 1, 0.295119
58, 3, wb, attraction, a-b-da, 5, 2, 3, 28, 90, 165, 161, 88, 165, 90, 2, 0.56895
58, 3, wb, attraction, a-b-da, 5, 2, 3, 28, 90, 165, 161, 88, 165, 90, 3, 0.297451
58, 3, wb, attraction, a-b-da, 2, 2, 3, 29, 163, 89, 90, 165, 165, 90, 2, 0.475264
58, 3, wb, attraction, a-b-da, 2, 2, 3, 29, 163, 89, 90, 165, 165, 90, 1, 0.335002
58, 3, wb, attraction, a-b-db, 2, 1, 3, 30, 59, 134, 135, 60, 60, 135, 2, 0.487584
58, 3, wb, attraction, a-b-db, 2, 1, 3, 30, 59, 134, 135, 60, 60, 135, 3, 0.395338
58, 3, wb, attraction, a-b-da, 2, 1, 3, 31, 135, 60, 134, 59, 60, 135, 1, 1.54524
58, 3, wb, attraction, a-b-da, 2, 1, 3, 31, 135, 60, 134, 59, 60, 135, 3, 0.722069
58, 3, wb, filler, NA, 999, 999, 3, 32, 103, 90, 110, 158, 105, 172, 1, 0.507111
58, 3, wb, filler, NA, 999, 999, 3, 32, 103, 90, 110, 158, 105, 172, 3, 0.50958
58, 3, wb, attraction, a-b-db, 9, 2, 3, 33, 165, 90, 90, 165, 86, 157, 2, 0.974729
58, 3, wb, attraction, a-b-db, 9, 2, 3, 33, 165, 90, 90, 165, 86, 157, 1, 0.334511
58, 3, wb, attraction, a-b-db, 2, 3, 3, 34, 120, 195, 119, 193, 195, 120, 2, 0.414819
58, 3, wb, attraction, a-b-db, 2, 3, 3, 34, 120, 195, 119, 193, 195, 120, 3, 0.309378
58, 3, wb, filler, NA, 999, 999, 3, 35, 73, 78, 82, 157, 159, 94, 1, 0.638492
58, 3, wb, filler, NA, 999, 999, 3, 35, 73, 78, 82, 157, 159, 94, 3, 0.427624
58, 3, wb, filler, NA, 999, 999, 3, 36, 182, 84, 182, 181, 130, 188, 1, 0.47209
58, 3, wb, filler, NA, 999, 999, 3, 36, 182, 84, 182, 181, 130, 188, 2, 0.483913
58, 3, wb, attraction, a-b-da, 14, 2, 3, 37, 165, 90, 153, 83, 90, 165, 2, 0.822491
58, 3, wb, attraction, a-b-da, 14, 2, 3, 37, 165, 90, 153, 83, 90, 165, 3, 0.556161
58, 3, wb, attraction, a-b-da, 9, 3, 4, 1, 120, 195, 195, 120, 186, 114, 1, 0.379882
58, 3, wb, attraction, a-b-da, 9, 3, 4, 1, 120, 195, 195, 120, 186, 114, 2, 0.35591
58, 3, wb, attraction, a-b-db, 2, 3, 4, 2, 120, 195, 195, 120, 119, 193, 2, 0.427723
58, 3, wb, attraction, a-b-db, 2, 3, 4, 2, 120, 195, 195, 120, 119, 193, 3, 0.337457
58, 3, wb, attraction, a-b-da, 2, 3, 4, 3, 195, 120, 193, 119, 120, 195, 2, 0.545948
58, 3, wb, attraction, a-b-da, 2, 3, 4, 3, 195, 120, 193, 119, 120, 195, 1, 0.378996
58, 3, wb, attraction, a-b-db, 14, 3, 4, 4, 120, 195, 195, 120, 111, 181, 2, 0.361726
58, 3, wb, attraction, a-b-db, 14, 3, 4, 4, 120, 195, 195, 120, 111, 181, 3, 0.282091
58, 3, wb, attraction, a-b-db, 5, 1, 4, 5, 60, 135, 135, 60, 58, 132, 2, 0.740592
58, 3, wb, attraction, a-b-db, 5, 1, 4, 5, 60, 135, 135, 60, 58, 132, 3, 0.469719
58, 3, wb, attraction, a-b-da, 2, 2, 4, 6, 90, 165, 165, 90, 163, 89, 2, 0.416892
58, 3, wb, attraction, a-b-da, 2, 2, 4, 6, 90, 165, 165, 90, 163, 89, 3, 0.351316
58, 3, wb, attraction, a-b-da, 5, 2, 4, 7, 165, 90, 161, 88, 90, 165, 2, 0.559135
58, 3, wb, attraction, a-b-da, 5, 2, 4, 7, 165, 90, 161, 88, 90, 165, 3, 0.35156
58, 3, wb, attraction, a-b-db, 9, 1, 4, 8, 60, 135, 135, 60, 57, 129, 2, 0.815361
58, 3, wb, attraction, a-b-db, 9, 1, 4, 8, 60, 135, 135, 60, 57, 129, 3, 0.621959
58, 3, wb, attraction, a-b-db, 2, 2, 4, 9, 90, 165, 165, 90, 89, 163, 1, 2.27489
58, 3, wb, attraction, a-b-db, 2, 2, 4, 9, 90, 165, 165, 90, 89, 163, 3, 0.326232
58, 3, wb, filler, NA, 999, 999, 4, 10, 79, 64, 95, 147, 169, 108, 1, 0.718751
58, 3, wb, filler, NA, 999, 999, 4, 10, 79, 64, 95, 147, 169, 108, 3, 0.809276
58, 3, wb, filler, NA, 999, 999, 4, 11, 72, 159, 190, 192, 79, 118, 3, 0.926339
58, 3, wb, filler, NA, 999, 999, 4, 11, 72, 159, 190, 192, 79, 118, 2, 0.295897
58, 3, wb, attraction, a-b-da, 9, 2, 4, 12, 90, 165, 157, 86, 165, 90, 2, 0.617635
58, 3, wb, attraction, a-b-da, 9, 2, 4, 12, 90, 165, 157, 86, 165, 90, 3, 0.296081
58, 3, wb, attraction, a-b-db, 2, 1, 4, 13, 60, 135, 135, 60, 59, 134, 2, 0.458009
58, 3, wb, attraction, a-b-db, 2, 1, 4, 13, 60, 135, 135, 60, 59, 134, 3, 0.326422
58, 3, wb, attraction, a-b-db, 9, 2, 4, 14, 86, 157, 165, 90, 90, 165, 2, 0.422932
58, 3, wb, attraction, a-b-db, 9, 2, 4, 14, 86, 157, 165, 90, 90, 165, 3, 0.316763
58, 3, wb, attraction, a-b-da, 14, 3, 4, 15, 181, 111, 195, 120, 120, 195, 1, 0.557937
58, 3, wb, attraction, a-b-da, 14, 3, 4, 15, 181, 111, 195, 120, 120, 195, 3, 0.286587
58, 3, wb, filler, NA, 999, 999, 4, 16, 113, 136, 154, 68, 167, 182, 2, 0.689023
58, 3, wb, filler, NA, 999, 999, 4, 16, 113, 136, 154, 68, 167, 182, 3, 0.299931
58, 3, wb, attraction, a-b-db, 14, 2, 4, 17, 90, 165, 165, 90, 83, 153, 2, 0.389856
58, 3, wb, attraction, a-b-db, 14, 2, 4, 17, 90, 165, 165, 90, 83, 153, 3, 0.357064
58, 3, wb, filler, NA, 999, 999, 4, 18, 171, 66, 103, 194, 111, 186, 2, 0.37227
58, 3, wb, filler, NA, 999, 999, 4, 18, 171, 66, 103, 194, 111, 186, 3, 0.35607
58, 3, wb, catch, NA, 999, 999, 4, 19, 124, 191, 132, 123, 61, 134, 3, 0.788022
58, 3, wb, catch, NA, 999, 999, 4, 19, 124, 191, 132, 123, 61, 134, 2, 0.275604
58, 3, wb, catch, NA, 999, 999, 4, 20, 121, 194, 138, 117, 94, 101, 3, 0.478245
58, 3, wb, catch, NA, 999, 999, 4, 20, 121, 194, 138, 117, 94, 101, 1, 0.378098
58, 3, wb, attraction, a-b-db, 9, 3, 4, 21, 120, 195, 195, 120, 114, 186, 2, 0.528579
58, 3, wb, attraction, a-b-db, 9, 3, 4, 21, 120, 195, 195, 120, 114, 186, 1, 0.778441
58, 3, wb, filler, NA, 999, 999, 4, 22, 97, 115, 86, 65, 79, 133, 2, 0.640712
58, 3, wb, filler, NA, 999, 999, 4, 22, 97, 115, 86, 65, 79, 133, 1, 1.13385
58, 3, wb, attraction, a-b-da, 9, 1, 4, 23, 60, 135, 135, 60, 129, 57, 3, 2.3821
58, 3, wb, attraction, a-b-da, 9, 1, 4, 23, 60, 135, 135, 60, 129, 57, 1, 0.493314
58, 3, wb, attraction, a-b-db, 5, 3, 4, 24, 195, 120, 120, 195, 117, 190, 1, 0.695107
58, 3, wb, attraction, a-b-db, 5, 3, 4, 24, 195, 120, 120, 195, 117, 190, 2, 0.63417
58, 3, wb, catch, NA, 999, 999, 4, 25, 66, 129, 134, 181, 164, 91, 1, 0.68644
58, 3, wb, catch, NA, 999, 999, 4, 25, 66, 129, 134, 181, 164, 91, 2, 0.282374
58, 3, wb, filler, NA, 999, 999, 4, 26, 73, 181, 107, 90, 116, 102, 2, 0.956756
58, 3, wb, filler, NA, 999, 999, 4, 26, 73, 181, 107, 90, 116, 102, 3, 0.629182
58, 3, wb, attraction, a-b-da, 14, 1, 4, 27, 125, 56, 60, 135, 135, 60, 1, 0.545625
58, 3, wb, attraction, a-b-da, 14, 1, 4, 27, 125, 56, 60, 135, 135, 60, 2, 0.298716
58, 3, wb, filler, NA, 999, 999, 4, 28, 193, 184, 80, 88, 128, 157, 2, 0.756628
58, 3, wb, filler, NA, 999, 999, 4, 28, 193, 184, 80, 88, 128, 157, 1, 0.277062
58, 3, wb, attraction, a-b-da, 14, 2, 4, 29, 153, 83, 90, 165, 165, 90, 1, 0.927487
58, 3, wb, attraction, a-b-da, 14, 2, 4, 29, 153, 83, 90, 165, 165, 90, 2, 0.529136
58, 3, wb, filler, NA, 999, 999, 4, 30, 170, 155, 81, 114, 188, 89, 2, 1.00152
58, 3, wb, filler, NA, 999, 999, 4, 30, 170, 155, 81, 114, 188, 89, 1, 0.408661
58, 3, wb, attraction, a-b-da, 2, 1, 4, 31, 134, 59, 135, 60, 60, 135, 1, 1.16585
58, 3, wb, attraction, a-b-da, 2, 1, 4, 31, 134, 59, 135, 60, 60, 135, 2, 0.57399
58, 3, wb, attraction, a-b-da, 5, 3, 4, 32, 195, 120, 120, 195, 190, 117, 1, 0.724409
58, 3, wb, attraction, a-b-da, 5, 3, 4, 32, 195, 120, 120, 195, 190, 117, 2, 0.750285
58, 3, wb, filler, NA, 999, 999, 4, 33, 194, 121, 66, 159, 155, 109, 2, 2.85398
58, 3, wb, filler, NA, 999, 999, 4, 33, 194, 121, 66, 159, 155, 109, 1, 0.530326
58, 3, wb, attraction, a-b-da, 5, 1, 4, 34, 132, 58, 60, 135, 135, 60, 2, 0.922721
58, 3, wb, attraction, a-b-da, 5, 1, 4, 34, 132, 58, 60, 135, 135, 60, 1, 0.356454
58, 3, wb, filler, NA, 999, 999, 4, 35, 61, 115, 61, 153, 167, 159, 1, 0.788239
58, 3, wb, filler, NA, 999, 999, 4, 35, 61, 115, 61, 153, 167, 159, 3, 0.307414
58, 3, wb, attraction, a-b-db, 14, 1, 4, 36, 135, 60, 56, 125, 60, 135, 1, 1.90848
58, 3, wb, attraction, a-b-db, 14, 1, 4, 36, 135, 60, 56, 125, 60, 135, 2, 0.382624
58, 3, wb, attraction, a-b-db, 5, 2, 4, 37, 165, 90, 90, 165, 88, 161, 1, 0.653064
58, 3, wb, attraction, a-b-db, 5, 2, 4, 37, 165, 90, 90, 165, 88, 161, 2, 0.418152
58, 3, wb, filler, NA, 999, 999, 5, 1, 192, 182, 148, 165, 99, 69, 3, 1.84593
58, 3, wb, filler, NA, 999, 999, 5, 1, 192, 182, 148, 165, 99, 69, 1, 0.778644
58, 3, wb, attraction, a-b-db, 14, 3, 5, 2, 120, 195, 195, 120, 111, 181, 1, 0.832967
58, 3, wb, attraction, a-b-db, 14, 3, 5, 2, 120, 195, 195, 120, 111, 181, 2, 0.318849
58, 3, wb, filler, NA, 999, 999, 5, 3, 115, 174, 58, 188, 102, 92, 3, 1.25588
58, 3, wb, filler, NA, 999, 999, 5, 3, 115, 174, 58, 188, 102, 92, 1, 0.49212
58, 3, wb, attraction, a-b-da, 9, 2, 5, 4, 165, 90, 90, 165, 157, 86, 2, 0.485967
58, 3, wb, attraction, a-b-da, 9, 2, 5, 4, 165, 90, 90, 165, 157, 86, 3, 0.441716
58, 3, wb, attraction, a-b-da, 2, 2, 5, 5, 90, 165, 165, 90, 163, 89, 1, 0.54154
58, 3, wb, attraction, a-b-da, 2, 2, 5, 5, 90, 165, 165, 90, 163, 89, 2, 0.678645
58, 3, wb, attraction, a-b-db, 2, 3, 5, 6, 195, 120, 119, 193, 120, 195, 1, 1.353
58, 3, wb, attraction, a-b-db, 2, 3, 5, 6, 195, 120, 119, 193, 120, 195, 2, 0.87391
58, 3, wb, filler, NA, 999, 999, 5, 7, 178, 106, 91, 121, 128, 57, 3, 1.15634
58, 3, wb, filler, NA, 999, 999, 5, 7, 178, 106, 91, 121, 128, 57, 1, 0.532601
58, 3, wb, attraction, a-b-db, 5, 1, 5, 8, 58, 132, 60, 135, 135, 60, 1, 0.949018
58, 3, wb, attraction, a-b-db, 5, 1, 5, 8, 58, 132, 60, 135, 135, 60, 2, 0.69397
58, 3, wb, attraction, a-b-db, 9, 2, 5, 9, 90, 165, 86, 157, 165, 90, 1, 0.895698
58, 3, wb, attraction, a-b-db, 9, 2, 5, 9, 90, 165, 86, 157, 165, 90, 3, 0.378744
58, 3, wb, attraction, a-b-da, 5, 1, 5, 10, 60, 135, 132, 58, 135, 60, 2, 0.553231
58, 3, wb, attraction, a-b-da, 5, 1, 5, 10, 60, 135, 132, 58, 135, 60, 1, 0.370396
58, 3, wb, attraction, a-b-da, 9, 1, 5, 11, 129, 57, 135, 60, 60, 135, 1, 0.777672
58, 3, wb, attraction, a-b-da, 9, 1, 5, 11, 129, 57, 135, 60, 60, 135, 2, 0.345276
58, 3, wb, attraction, a-b-db, 5, 3, 5, 12, 117, 190, 120, 195, 195, 120, 3, 0.777055
58, 3, wb, attraction, a-b-db, 5, 3, 5, 12, 117, 190, 120, 195, 195, 120, 1, 0.400827
58, 3, wb, attraction, a-b-da, 2, 1, 5, 13, 134, 59, 60, 135, 135, 60, 3, 0.526654
58, 3, wb, attraction, a-b-da, 2, 1, 5, 13, 134, 59, 60, 135, 135, 60, 1, 0.512414
58, 3, wb, attraction, a-b-da, 14, 1, 5, 14, 135, 60, 125, 56, 60, 135, 2, 0.809562
58, 3, wb, attraction, a-b-da, 14, 1, 5, 14, 135, 60, 125, 56, 60, 135, 3, 1.03208
58, 3, wb, catch, NA, 999, 999, 5, 15, 188, 127, 78, 117, 115, 140, 2, 0.468335
58, 3, wb, catch, NA, 999, 999, 5, 15, 188, 127, 78, 117, 115, 140, 1, 0.400823
58, 3, wb, attraction, a-b-da, 2, 3, 5, 16, 193, 119, 120, 195, 195, 120, 2, 0.470515
58, 3, wb, attraction, a-b-da, 2, 3, 5, 16, 193, 119, 120, 195, 195, 120, 3, 0.419115
58, 3, wb, attraction, a-b-da, 14, 3, 5, 17, 181, 111, 120, 195, 195, 120, 1, 0.488251
58, 3, wb, attraction, a-b-da, 14, 3, 5, 17, 181, 111, 120, 195, 195, 120, 2, 0.291544
58, 3, wb, attraction, a-b-db, 14, 1, 5, 18, 56, 125, 60, 135, 135, 60, 1, 0.829127
58, 3, wb, attraction, a-b-db, 14, 1, 5, 18, 56, 125, 60, 135, 135, 60, 2, 0.883023
58, 3, wb, attraction, a-b-da, 5, 2, 5, 19, 165, 90, 161, 88, 90, 165, 1, 0.501237
58, 3, wb, attraction, a-b-da, 5, 2, 5, 19, 165, 90, 161, 88, 90, 165, 3, 0.672542
58, 3, wb, filler, NA, 999, 999, 5, 20, 139, 141, 195, 127, 154, 188, 1, 0.419539
58, 3, wb, filler, NA, 999, 999, 5, 20, 139, 141, 195, 127, 154, 188, 3, 0.314132
58, 3, wb, attraction, a-b-db, 9, 1, 5, 21, 60, 135, 135, 60, 57, 129, 1, 0.731234
58, 3, wb, attraction, a-b-db, 9, 1, 5, 21, 60, 135, 135, 60, 57, 129, 3, 0.38891
58, 3, wb, attraction, a-b-db, 2, 1, 5, 22, 135, 60, 59, 134, 60, 135, 1, 0.515406
58, 3, wb, attraction, a-b-db, 2, 1, 5, 22, 135, 60, 59, 134, 60, 135, 2, 0.997977
58, 3, wb, filler, NA, 999, 999, 5, 23, 104, 95, 99, 98, 106, 93, 2, 0.539527
58, 3, wb, filler, NA, 999, 999, 5, 23, 104, 95, 99, 98, 106, 93, 3, 0.820658
58, 3, wb, attraction, a-b-db, 2, 2, 5, 24, 165, 90, 90, 165, 89, 163, 2, 0.67368
58, 3, wb, attraction, a-b-db, 2, 2, 5, 24, 165, 90, 90, 165, 89, 163, 3, 0.469424
58, 3, wb, attraction, a-b-da, 9, 3, 5, 25, 120, 195, 186, 114, 195, 120, 2, 3.88861
58, 3, wb, attraction, a-b-da, 9, 3, 5, 25, 120, 195, 186, 114, 195, 120, 1, 0.339418
58, 3, wb, attraction, a-b-da, 14, 2, 5, 26, 165, 90, 90, 165, 153, 83, 2, 0.763884
58, 3, wb, attraction, a-b-da, 14, 2, 5, 26, 165, 90, 90, 165, 153, 83, 1, 0.796254
58, 3, wb, attraction, a-b-db, 14, 2, 5, 27, 165, 90, 83, 153, 90, 165, 2, 0.361931
58, 3, wb, attraction, a-b-db, 14, 2, 5, 27, 165, 90, 83, 153, 90, 165, 3, 1.33845
58, 3, wb, attraction, a-b-da, 5, 3, 5, 28, 120, 195, 190, 117, 195, 120, 2, 0.450649
58, 3, wb, attraction, a-b-da, 5, 3, 5, 28, 120, 195, 190, 117, 195, 120, 3, 0.319809
58, 3, wb, filler, NA, 999, 999, 5, 29, 95, 77, 108, 129, 171, 152, 1, 0.456969
58, 3, wb, filler, NA, 999, 999, 5, 29, 95, 77, 108, 129, 171, 152, 3, 0.637492
58, 3, wb, filler, NA, 999, 999, 5, 30, 148, 135, 148, 85, 76, 59, 3, 0.953963
58, 3, wb, filler, NA, 999, 999, 5, 30, 148, 135, 148, 85, 76, 59, 1, 0.394888
58, 3, wb, catch, NA, 999, 999, 5, 31, 117, 78, 98, 157, 174, 141, 1, 0.952707
58, 3, wb, catch, NA, 999, 999, 5, 31, 117, 78, 98, 157, 174, 141, 3, 0.513744
58, 3, wb, attraction, a-b-db, 9, 3, 5, 32, 114, 186, 120, 195, 195, 120, 1, 0.394846
58, 3, wb, attraction, a-b-db, 9, 3, 5, 32, 114, 186, 120, 195, 195, 120, 2, 2.17013
58, 3, wb, catch, NA, 999, 999, 5, 33, 66, 129, 131, 124, 191, 124, 1, 1.4567
58, 3, wb, catch, NA, 999, 999, 5, 33, 66, 129, 131, 124, 191, 124, 3, 0.716809
58, 3, wb, filler, NA, 999, 999, 5, 34, 195, 65, 188, 156, 183, 128, 1, 0.797812
58, 3, wb, filler, NA, 999, 999, 5, 34, 195, 65, 188, 156, 183, 128, 2, 0.532895
58, 3, wb, attraction, a-b-db, 5, 2, 5, 35, 88, 161, 165, 90, 90, 165, 1, 0.717444
58, 3, wb, attraction, a-b-db, 5, 2, 5, 35, 88, 161, 165, 90, 90, 165, 2, 0.351791
58, 3, wb, filler, NA, 999, 999, 5, 36, 113, 97, 117, 188, 129, 110, 1, 0.663578
58, 3, wb, filler, NA, 999, 999, 5, 36, 113, 97, 117, 188, 129, 110, 2, 0.356033
58, 3, wb, filler, NA, 999, 999, 5, 37, 124, 154, 74, 182, 76, 61, 3, 0.531821
58, 3, wb, filler, NA, 999, 999, 5, 37, 124, 154, 74, 182, 76, 61, 1, 0.621587
58, 3, wb, filler, NA, 999, 999, 6, 1, 133, 180, 117, 63, 66, 165, 2, 0.794868
58, 3, wb, filler, NA, 999, 999, 6, 1, 133, 180, 117, 63, 66, 165, 1, 0.313771
58, 3, wb, attraction, a-b-db, 2, 1, 6, 2, 135, 60, 60, 135, 59, 134, 1, 1.24313
58, 3, wb, attraction, a-b-db, 2, 1, 6, 2, 135, 60, 60, 135, 59, 134, 3, 0.447917
58, 3, wb, filler, NA, 999, 999, 6, 3, 114, 166, 110, 113, 115, 168, 1, 0.339758
58, 3, wb, filler, NA, 999, 999, 6, 3, 114, 166, 110, 113, 115, 168, 3, 2.86895
58, 3, wb, filler, NA, 999, 999, 6, 4, 110, 162, 57, 133, 75, 140, 2, 0.583257
58, 3, wb, filler, NA, 999, 999, 6, 4, 110, 162, 57, 133, 75, 140, 1, 0.359112
58, 3, wb, catch, NA, 999, 999, 6, 5, 78, 117, 98, 157, 191, 124, 1, 0.798249
58, 3, wb, catch, NA, 999, 999, 6, 5, 78, 117, 98, 157, 191, 124, 3, 1.51744
58, 3, wb, attraction, a-b-da, 5, 1, 6, 6, 135, 60, 132, 58, 60, 135, 1, 0.670194
58, 3, wb, attraction, a-b-da, 5, 1, 6, 6, 135, 60, 132, 58, 60, 135, 2, 0.434635
58, 3, wb, filler, NA, 999, 999, 6, 7, 159, 133, 95, 185, 57, 152, 3, 1.01507
58, 3, wb, filler, NA, 999, 999, 6, 7, 159, 133, 95, 185, 57, 152, 2, 1.08528
58, 3, wb, attraction, a-b-da, 2, 3, 6, 8, 195, 120, 193, 119, 120, 195, 1, 0.751609
58, 3, wb, attraction, a-b-da, 2, 3, 6, 8, 195, 120, 193, 119, 120, 195, 2, 0.232694
58, 3, wb, filler, NA, 999, 999, 6, 9, 92, 119, 107, 149, 76, 159, 1, 0.485201
58, 3, wb, filler, NA, 999, 999, 6, 9, 92, 119, 107, 149, 76, 159, 2, 0.66507
58, 3, wb, attraction, a-b-da, 5, 3, 6, 10, 195, 120, 120, 195, 190, 117, 1, 0.660137
58, 3, wb, attraction, a-b-da, 5, 3, 6, 10, 195, 120, 120, 195, 190, 117, 2, 0.37656
58, 3, wb, attraction, a-b-da, 14, 2, 6, 11, 153, 83, 165, 90, 90, 165, 1, 0.527008
58, 3, wb, attraction, a-b-da, 14, 2, 6, 11, 153, 83, 165, 90, 90, 165, 2, 0.656802
58, 3, wb, attraction, a-b-da, 5, 2, 6, 12, 165, 90, 90, 165, 161, 88, 1, 0.659868
58, 3, wb, attraction, a-b-da, 5, 2, 6, 12, 165, 90, 90, 165, 161, 88, 3, 0.744291
58, 3, wb, attraction, a-b-db, 9, 3, 6, 13, 195, 120, 120, 195, 114, 186, 1, 0.351967
58, 3, wb, attraction, a-b-db, 9, 3, 6, 13, 195, 120, 120, 195, 114, 186, 2, 0.473252
58, 3, wb, attraction, a-b-da, 9, 3, 6, 14, 186, 114, 195, 120, 120, 195, 1, 0.428407
58, 3, wb, attraction, a-b-da, 9, 3, 6, 14, 186, 114, 195, 120, 120, 195, 3, 0.650225
58, 3, wb, attraction, a-b-db, 2, 3, 6, 15, 195, 120, 119, 193, 120, 195, 1, 0.405972
58, 3, wb, attraction, a-b-db, 2, 3, 6, 15, 195, 120, 119, 193, 120, 195, 3, 0.420596
58, 3, wb, filler, NA, 999, 999, 6, 16, 66, 154, 182, 100, 61, 118, 3, 0.865603
58, 3, wb, filler, NA, 999, 999, 6, 16, 66, 154, 182, 100, 61, 118, 2, 0.581983
58, 3, wb, catch, NA, 999, 999, 6, 17, 69, 126, 91, 164, 130, 185, 1, 0.580513
58, 3, wb, catch, NA, 999, 999, 6, 17, 69, 126, 91, 164, 130, 185, 3, 0.644267
58, 3, wb, attraction, a-b-db, 5, 2, 6, 18, 90, 165, 88, 161, 165, 90, 2, 3.52795
58, 3, wb, attraction, a-b-db, 5, 2, 6, 18, 90, 165, 88, 161, 165, 90, 1, 0.440756
58, 3, wb, attraction, a-b-da, 2, 2, 6, 19, 165, 90, 90, 165, 163, 89, 2, 0.548615
58, 3, wb, attraction, a-b-da, 2, 2, 6, 19, 165, 90, 90, 165, 163, 89, 3, 0.501915
58, 3, wb, attraction, a-b-da, 9, 2, 6, 20, 157, 86, 90, 165, 165, 90, 2, 0.711568
58, 3, wb, attraction, a-b-da, 9, 2, 6, 20, 157, 86, 90, 165, 165, 90, 3, 0.321979
58, 3, wb, attraction, a-b-db, 14, 3, 6, 21, 111, 181, 195, 120, 120, 195, 1, 0.459105
58, 3, wb, attraction, a-b-db, 14, 3, 6, 21, 111, 181, 195, 120, 120, 195, 3, 0.295611
58, 3, wb, attraction, a-b-da, 14, 1, 6, 22, 60, 135, 135, 60, 125, 56, 1, 0.561437
58, 3, wb, attraction, a-b-da, 14, 1, 6, 22, 60, 135, 135, 60, 125, 56, 3, 0.489893
58, 3, wb, attraction, a-b-db, 9, 2, 6, 23, 90, 165, 86, 157, 165, 90, 2, 0.484328
58, 3, wb, attraction, a-b-db, 9, 2, 6, 23, 90, 165, 86, 157, 165, 90, 1, 0.608177
58, 3, wb, filler, NA, 999, 999, 6, 24, 96, 56, 181, 145, 174, 172, 1, 1.49063
58, 3, wb, filler, NA, 999, 999, 6, 24, 96, 56, 181, 145, 174, 172, 3, 0.784163
58, 3, wb, filler, NA, 999, 999, 6, 25, 169, 114, 94, 113, 105, 56, 3, 0.6305
58, 3, wb, filler, NA, 999, 999, 6, 25, 169, 114, 94, 113, 105, 56, 1, 0.532291
58, 3, wb, attraction, a-b-da, 14, 3, 6, 26, 195, 120, 120, 195, 181, 111, 1, 0.57277
58, 3, wb, attraction, a-b-da, 14, 3, 6, 26, 195, 120, 120, 195, 181, 111, 2, 0.644534
58, 3, wb, attraction, a-b-db, 2, 2, 6, 27, 165, 90, 90, 165, 89, 163, 1, 0.400262
58, 3, wb, attraction, a-b-db, 2, 2, 6, 27, 165, 90, 90, 165, 89, 163, 3, 0.46345
58, 3, wb, attraction, a-b-db, 5, 1, 6, 28, 135, 60, 60, 135, 58, 132, 1, 0.618522
58, 3, wb, attraction, a-b-db, 5, 1, 6, 28, 135, 60, 60, 135, 58, 132, 3, 0.417053
58, 3, wb, filler, NA, 999, 999, 6, 29, 111, 108, 86, 161, 157, 195, 1, 0.430137
58, 3, wb, filler, NA, 999, 999, 6, 29, 111, 108, 86, 161, 157, 195, 3, 0.404041
58, 3, wb, attraction, a-b-db, 14, 1, 6, 30, 60, 135, 135, 60, 56, 125, 1, 0.641936
58, 3, wb, attraction, a-b-db, 14, 1, 6, 30, 60, 135, 135, 60, 56, 125, 3, 0.863024
58, 3, wb, filler, NA, 999, 999, 6, 31, 95, 118, 124, 58, 184, 169, 1, 0.273841
58, 3, wb, filler, NA, 999, 999, 6, 31, 95, 118, 124, 58, 184, 169, 3, 0.389961
58, 3, wb, catch, NA, 999, 999, 6, 32, 71, 124, 106, 149, 189, 126, 1, 0.443588
58, 3, wb, catch, NA, 999, 999, 6, 32, 71, 124, 106, 149, 189, 126, 3, 0.768777
58, 3, wb, attraction, a-b-db, 5, 3, 6, 33, 195, 120, 120, 195, 117, 190, 1, 0.5359
58, 3, wb, attraction, a-b-db, 5, 3, 6, 33, 195, 120, 120, 195, 117, 190, 3, 0.409612
58, 3, wb, attraction, a-b-da, 9, 1, 6, 34, 60, 135, 129, 57, 135, 60, 1, 0.326709
58, 3, wb, attraction, a-b-da, 9, 1, 6, 34, 60, 135, 129, 57, 135, 60, 3, 0.832617
58, 3, wb, attraction, a-b-da, 2, 1, 6, 35, 135, 60, 134, 59, 60, 135, 1, 0.53293
58, 3, wb, attraction, a-b-da, 2, 1, 6, 35, 135, 60, 134, 59, 60, 135, 3, 0.486969
58, 3, wb, attraction, a-b-db, 9, 1, 6, 36, 135, 60, 57, 129, 60, 135, 1, 0.569237
58, 3, wb, attraction, a-b-db, 9, 1, 6, 36, 135, 60, 57, 129, 60, 135, 3, 0.593715
58, 3, wb, attraction, a-b-db, 14, 2, 6, 37, 90, 165, 165, 90, 83, 153, 1, 0.527445
58, 3, wb, attraction, a-b-db, 14, 2, 6, 37, 90, 165, 165, 90, 83, 153, 3, 0.409309
58, 3, wb, attraction, a-b-db, 5, 1, 7, 1, 60, 135, 58, 132, 135, 60, 1, 0.462427
58, 3, wb, attraction, a-b-db, 5, 1, 7, 1, 60, 135, 58, 132, 135, 60, 3, 0.546941
58, 3, wb, attraction, a-b-db, 2, 3, 7, 2, 195, 120, 120, 195, 119, 193, 1, 0.386651
58, 3, wb, attraction, a-b-db, 2, 3, 7, 2, 195, 120, 120, 195, 119, 193, 3, 0.39464
58, 3, wb, attraction, a-b-db, 5, 2, 7, 3, 90, 165, 165, 90, 88, 161, 1, 0.256324
58, 3, wb, attraction, a-b-db, 5, 2, 7, 3, 90, 165, 165, 90, 88, 161, 3, 0.388892
58, 3, wb, attraction, a-b-db, 5, 3, 7, 4, 195, 120, 120, 195, 117, 190, 1, 0.211395
58, 3, wb, attraction, a-b-db, 5, 3, 7, 4, 195, 120, 120, 195, 117, 190, 3, 0.47403
58, 3, wb, attraction, a-b-db, 2, 1, 7, 5, 135, 60, 59, 134, 60, 135, 1, 0.548475
58, 3, wb, attraction, a-b-db, 2, 1, 7, 5, 135, 60, 59, 134, 60, 135, 3, 0.413687
58, 3, wb, attraction, a-b-da, 14, 3, 7, 6, 195, 120, 120, 195, 181, 111, 1, 0.242786
58, 3, wb, attraction, a-b-da, 14, 3, 7, 6, 195, 120, 120, 195, 181, 111, 3, 0.447986
58, 3, wb, filler, NA, 999, 999, 7, 7, 172, 188, 79, 71, 158, 77, 1, 0.371778
58, 3, wb, filler, NA, 999, 999, 7, 7, 172, 188, 79, 71, 158, 77, 2, 1.94764
58, 3, wb, attraction, a-b-da, 2, 1, 7, 8, 60, 135, 134, 59, 135, 60, 1, 0.546958
58, 3, wb, attraction, a-b-da, 2, 1, 7, 8, 60, 135, 134, 59, 135, 60, 2, 0.508127
58, 3, wb, filler, NA, 999, 999, 7, 9, 106, 146, 175, 101, 112, 179, 1, 0.701138
58, 3, wb, filler, NA, 999, 999, 7, 9, 106, 146, 175, 101, 112, 179, 3, 0.376207
58, 3, wb, attraction, a-b-da, 14, 2, 7, 10, 153, 83, 90, 165, 165, 90, 1, 1.3427
58, 3, wb, attraction, a-b-da, 14, 2, 7, 10, 153, 83, 90, 165, 165, 90, 2, 0.263783
58, 3, wb, attraction, a-b-da, 9, 2, 7, 11, 157, 86, 90, 165, 165, 90, 2, 0.578878
58, 3, wb, attraction, a-b-da, 9, 2, 7, 11, 157, 86, 90, 165, 165, 90, 1, 0.594786
58, 3, wb, attraction, a-b-da, 14, 1, 7, 12, 125, 56, 60, 135, 135, 60, 2, 0.584366
58, 3, wb, attraction, a-b-da, 14, 1, 7, 12, 125, 56, 60, 135, 135, 60, 3, 0.600161
58, 3, wb, catch, NA, 999, 999, 7, 13, 180, 135, 131, 124, 93, 102, 3, 0.669907
58, 3, wb, catch, NA, 999, 999, 7, 13, 180, 135, 131, 124, 93, 102, 1, 0.338509
58, 3, wb, attraction, a-b-da, 9, 1, 7, 14, 60, 135, 135, 60, 129, 57, 1, 0.67484
58, 3, wb, attraction, a-b-da, 9, 1, 7, 14, 60, 135, 135, 60, 129, 57, 3, 0.462727
58, 3, wb, attraction, a-b-db, 14, 1, 7, 15, 135, 60, 60, 135, 56, 125, 2, 1.0737
58, 3, wb, attraction, a-b-db, 14, 1, 7, 15, 135, 60, 60, 135, 56, 125, 1, 0.389335
58, 3, wb, attraction, a-b-db, 9, 1, 7, 16, 135, 60, 60, 135, 57, 129, 2, 0.387951
58, 3, wb, attraction, a-b-db, 9, 1, 7, 16, 135, 60, 60, 135, 57, 129, 1, 0.587076
58, 3, wb, attraction, a-b-da, 2, 2, 7, 17, 163, 89, 90, 165, 165, 90, 2, 0.393455
58, 3, wb, attraction, a-b-da, 2, 2, 7, 17, 163, 89, 90, 165, 165, 90, 3, 0.32879
58, 3, wb, attraction, a-b-da, 5, 2, 7, 18, 161, 88, 90, 165, 165, 90, 2, 0.417384
58, 3, wb, attraction, a-b-da, 5, 2, 7, 18, 161, 88, 90, 165, 165, 90, 3, 0.687712
58, 3, wb, attraction, a-b-db, 9, 3, 7, 19, 120, 195, 114, 186, 195, 120, 1, 1.09009
58, 3, wb, attraction, a-b-db, 9, 3, 7, 19, 120, 195, 114, 186, 195, 120, 2, 0.253159
58, 3, wb, attraction, a-b-db, 9, 2, 7, 20, 86, 157, 165, 90, 90, 165, 1, 0.568911
58, 3, wb, attraction, a-b-db, 9, 2, 7, 20, 86, 157, 165, 90, 90, 165, 2, 0.585435
58, 3, wb, attraction, a-b-db, 2, 2, 7, 21, 165, 90, 90, 165, 89, 163, 2, 0.695848
58, 3, wb, attraction, a-b-db, 2, 2, 7, 21, 165, 90, 90, 165, 89, 163, 1, 0.338833
58, 3, wb, filler, NA, 999, 999, 7, 22, 104, 111, 180, 141, 185, 110, 1, 0.523422
58, 3, wb, filler, NA, 999, 999, 7, 22, 104, 111, 180, 141, 185, 110, 2, 0.285233
58, 3, wb, attraction, a-b-da, 5, 1, 7, 23, 135, 60, 132, 58, 60, 135, 2, 0.607736
58, 3, wb, attraction, a-b-da, 5, 1, 7, 23, 135, 60, 132, 58, 60, 135, 1, 0.558097
58, 3, wb, attraction, a-b-db, 14, 2, 7, 24, 90, 165, 165, 90, 83, 153, 2, 0.605306
58, 3, wb, attraction, a-b-db, 14, 2, 7, 24, 90, 165, 165, 90, 83, 153, 3, 0.603748
58, 3, wb, filler, NA, 999, 999, 7, 25, 56, 151, 90, 160, 174, 166, 1, 0.593471
58, 3, wb, filler, NA, 999, 999, 7, 25, 56, 151, 90, 160, 174, 166, 3, 0.400623
58, 3, wb, attraction, a-b-da, 2, 3, 7, 26, 195, 120, 193, 119, 120, 195, 1, 0.59035
58, 3, wb, attraction, a-b-da, 2, 3, 7, 26, 195, 120, 193, 119, 120, 195, 2, 0.317677
58, 3, wb, filler, NA, 999, 999, 7, 27, 123, 78, 107, 102, 148, 137, 1, 0.542705
58, 3, wb, filler, NA, 999, 999, 7, 27, 123, 78, 107, 102, 148, 137, 3, 0.368043
58, 3, wb, attraction, a-b-db, 14, 3, 7, 28, 195, 120, 111, 181, 120, 195, 2, 0.6069
58, 3, wb, attraction, a-b-db, 14, 3, 7, 28, 195, 120, 111, 181, 120, 195, 3, 0.293504
58, 3, wb, catch, NA, 999, 999, 7, 29, 106, 89, 94, 161, 136, 179, 1, 0.519268
58, 3, wb, catch, NA, 999, 999, 7, 29, 106, 89, 94, 161, 136, 179, 3, 0.385751
58, 3, wb, filler, NA, 999, 999, 7, 30, 169, 182, 116, 61, 139, 167, 2, 0.955197
58, 3, wb, filler, NA, 999, 999, 7, 30, 169, 182, 116, 61, 139, 167, 1, 0.504638
58, 3, wb, filler, NA, 999, 999, 7, 31, 161, 121, 62, 60, 171, 188, 2, 0.434499
58, 3, wb, filler, NA, 999, 999, 7, 31, 161, 121, 62, 60, 171, 188, 3, 0.288287
58, 3, wb, attraction, a-b-da, 9, 3, 7, 32, 195, 120, 120, 195, 186, 114, 2, 0.522763
58, 3, wb, attraction, a-b-da, 9, 3, 7, 32, 195, 120, 120, 195, 186, 114, 1, 0.972622
58, 3, wb, attraction, a-b-da, 5, 3, 7, 33, 195, 120, 120, 195, 190, 117, 1, 0.92363
58, 3, wb, attraction, a-b-da, 5, 3, 7, 33, 195, 120, 120, 195, 190, 117, 2, 0.309229
58, 3, wb, filler, NA, 999, 999, 7, 34, 104, 124, 108, 111, 157, 160, 2, 1.05446
58, 3, wb, filler, NA, 999, 999, 7, 34, 104, 124, 108, 111, 157, 160, 3, 0.299538
58, 3, wb, filler, NA, 999, 999, 7, 35, 182, 122, 63, 97, 177, 189, 2, 0.621176
58, 3, wb, filler, NA, 999, 999, 7, 35, 182, 122, 63, 97, 177, 189, 3, 0.291676
58, 3, wb, catch, NA, 999, 999, 7, 36, 73, 122, 127, 188, 129, 126, 1, 0.605485
58, 3, wb, catch, NA, 999, 999, 7, 36, 73, 122, 127, 188, 129, 126, 2, 0.283943
58, 3, wb, filler, NA, 999, 999, 7, 37, 158, 129, 79, 149, 186, 134, 2, 0.582439
58, 3, wb, filler, NA, 999, 999, 7, 37, 158, 129, 79, 149, 186, 134, 1, 0.670269
58, 3, wb, attraction, a-b-da, 2, 1, 8, 1, 60, 135, 134, 59, 135, 60, 2, 0.457479
58, 3, wb, attraction, a-b-da, 2, 1, 8, 1, 60, 135, 134, 59, 135, 60, 3, 0.317991
58, 3, wb, filler, NA, 999, 999, 8, 2, 159, 185, 77, 60, 137, 88, 2, 0.447039
58, 3, wb, filler, NA, 999, 999, 8, 2, 159, 185, 77, 60, 137, 88, 1, 0.284141
58, 3, wb, attraction, a-b-db, 14, 3, 8, 3, 120, 195, 195, 120, 111, 181, 2, 0.36669
58, 3, wb, attraction, a-b-db, 14, 3, 8, 3, 120, 195, 195, 120, 111, 181, 1, 0.335242
58, 3, wb, catch, NA, 999, 999, 8, 4, 160, 95, 176, 139, 78, 117, 3, 0.903732
58, 3, wb, catch, NA, 999, 999, 8, 4, 160, 95, 176, 139, 78, 117, 2, 0.35481
58, 3, wb, attraction, a-b-db, 9, 3, 8, 5, 114, 186, 120, 195, 195, 120, 2, 0.650539
58, 3, wb, attraction, a-b-db, 9, 3, 8, 5, 114, 186, 120, 195, 195, 120, 3, 0.319771
58, 3, wb, filler, NA, 999, 999, 8, 6, 78, 134, 122, 66, 103, 179, 2, 0.520905
58, 3, wb, filler, NA, 999, 999, 8, 6, 78, 134, 122, 66, 103, 179, 3, 0.458754
58, 3, wb, attraction, a-b-db, 5, 2, 8, 7, 90, 165, 88, 161, 165, 90, 2, 0.397836
58, 3, wb, attraction, a-b-db, 5, 2, 8, 7, 90, 165, 88, 161, 165, 90, 1, 0.629093
58, 3, wb, filler, NA, 999, 999, 8, 8, 137, 171, 123, 66, 138, 56, 2, 0.553533
58, 3, wb, filler, NA, 999, 999, 8, 8, 137, 171, 123, 66, 138, 56, 1, 0.298831
58, 3, wb, attraction, a-b-da, 9, 3, 8, 9, 186, 114, 120, 195, 195, 120, 2, 0.612352
58, 3, wb, attraction, a-b-da, 9, 3, 8, 9, 186, 114, 120, 195, 195, 120, 3, 0.626958
58, 3, wb, attraction, a-b-da, 5, 3, 8, 10, 120, 195, 190, 117, 195, 120, 1, 0.359216
58, 3, wb, attraction, a-b-da, 5, 3, 8, 10, 120, 195, 190, 117, 195, 120, 2, 0.287763
58, 3, wb, attraction, a-b-da, 9, 2, 8, 11, 165, 90, 90, 165, 157, 86, 1, 0.642397
58, 3, wb, attraction, a-b-da, 9, 2, 8, 11, 165, 90, 90, 165, 157, 86, 2, 0.391465
58, 3, wb, attraction, a-b-db, 5, 1, 8, 12, 58, 132, 60, 135, 135, 60, 1, 0.997274
58, 3, wb, attraction, a-b-db, 5, 1, 8, 12, 58, 132, 60, 135, 135, 60, 2, 0.5962
58, 3, wb, attraction, a-b-db, 5, 3, 8, 13, 117, 190, 195, 120, 120, 195, 2, 0.545942
58, 3, wb, attraction, a-b-db, 5, 3, 8, 13, 117, 190, 195, 120, 120, 195, 3, 0.291136
58, 3, wb, filler, NA, 999, 999, 8, 14, 147, 187, 183, 100, 191, 94, 2, 1.01289
58, 3, wb, filler, NA, 999, 999, 8, 14, 147, 187, 183, 100, 191, 94, 1, 0.30749
58, 3, wb, catch, NA, 999, 999, 8, 15, 98, 157, 109, 86, 138, 177, 2, 0.916472
58, 3, wb, catch, NA, 999, 999, 8, 15, 98, 157, 109, 86, 138, 177, 3, 0.334795
58, 3, wb, catch, NA, 999, 999, 8, 16, 158, 97, 174, 141, 119, 76, 3, 0.791362
58, 3, wb, catch, NA, 999, 999, 8, 16, 158, 97, 174, 141, 119, 76, 2, 0.286429
58, 3, wb, filler, NA, 999, 999, 8, 17, 180, 165, 130, 60, 138, 80, 2, 0.71282
58, 3, wb, filler, NA, 999, 999, 8, 17, 180, 165, 130, 60, 138, 80, 1, 0.275485
58, 3, wb, attraction, a-b-db, 2, 3, 8, 18, 120, 195, 195, 120, 119, 193, 2, 0.53381
58, 3, wb, attraction, a-b-db, 2, 3, 8, 18, 120, 195, 195, 120, 119, 193, 3, 0.255694
58, 3, wb, attraction, a-b-da, 2, 3, 8, 19, 195, 120, 193, 119, 120, 195, 2, 0.611487
58, 3, wb, attraction, a-b-da, 2, 3, 8, 19, 195, 120, 193, 119, 120, 195, 1, 0.609908
58, 3, wb, attraction, a-b-da, 14, 3, 8, 20, 181, 111, 120, 195, 195, 120, 2, 0.366974
58, 3, wb, attraction, a-b-da, 14, 3, 8, 20, 181, 111, 120, 195, 195, 120, 3, 0.287567
58, 3, wb, filler, NA, 999, 999, 8, 21, 190, 149, 77, 90, 155, 158, 2, 0.514207
58, 3, wb, filler, NA, 999, 999, 8, 21, 190, 149, 77, 90, 155, 158, 1, 0.692681
58, 3, wb, filler, NA, 999, 999, 8, 22, 186, 141, 78, 93, 98, 110, 2, 0.382245
58, 3, wb, filler, NA, 999, 999, 8, 22, 186, 141, 78, 93, 98, 110, 1, 0.382123
58, 3, wb, attraction, a-b-da, 9, 1, 8, 23, 129, 57, 135, 60, 60, 135, 2, 0.716646
58, 3, wb, attraction, a-b-da, 9, 1, 8, 23, 129, 57, 135, 60, 60, 135, 3, 0.279126
58, 3, wb, filler, NA, 999, 999, 8, 24, 182, 195, 150, 166, 149, 122, 3, 1.00166
58, 3, wb, filler, NA, 999, 999, 8, 24, 182, 195, 150, 166, 149, 122, 1, 0.336547
58, 3, wb, attraction, a-b-db, 2, 2, 8, 25, 90, 165, 89, 163, 165, 90, 2, 0.55314
58, 3, wb, attraction, a-b-db, 2, 2, 8, 25, 90, 165, 89, 163, 165, 90, 3, 0.498249
58, 3, wb, filler, NA, 999, 999, 8, 26, 145, 136, 57, 94, 61, 135, 2, 0.484123
58, 3, wb, filler, NA, 999, 999, 8, 26, 145, 136, 57, 94, 61, 135, 1, 0.335942
58, 3, wb, attraction, a-b-db, 14, 2, 8, 27, 90, 165, 83, 153, 165, 90, 2, 0.456309
58, 3, wb, attraction, a-b-db, 14, 2, 8, 27, 90, 165, 83, 153, 165, 90, 3, 0.284974
58, 3, wb, attraction, a-b-db, 9, 1, 8, 28, 135, 60, 60, 135, 57, 129, 1, 0.967402
58, 3, wb, attraction, a-b-db, 9, 1, 8, 28, 135, 60, 60, 135, 57, 129, 2, 0.271738
58, 3, wb, attraction, a-b-da, 2, 2, 8, 29, 163, 89, 90, 165, 165, 90, 1, 0.506848
58, 3, wb, attraction, a-b-da, 2, 2, 8, 29, 163, 89, 90, 165, 165, 90, 2, 0.349452
58, 3, wb, filler, NA, 999, 999, 8, 30, 162, 100, 191, 168, 188, 190, 1, 0.597261
58, 3, wb, filler, NA, 999, 999, 8, 30, 162, 100, 191, 168, 188, 190, 2, 0.324306
58, 3, wb, attraction, a-b-da, 5, 1, 8, 31, 60, 135, 135, 60, 132, 58, 1, 0.532768
58, 3, wb, attraction, a-b-da, 5, 1, 8, 31, 60, 135, 135, 60, 132, 58, 3, 0.334621
58, 3, wb, attraction, a-b-da, 14, 2, 8, 32, 153, 83, 165, 90, 90, 165, 1, 0.607155
58, 3, wb, attraction, a-b-da, 14, 2, 8, 32, 153, 83, 165, 90, 90, 165, 2, 0.445635
58, 3, wb, attraction, a-b-db, 2, 1, 8, 33, 135, 60, 59, 134, 60, 135, 1, 0.617314
58, 3, wb, attraction, a-b-db, 2, 1, 8, 33, 135, 60, 59, 134, 60, 135, 2, 0.543784
58, 3, wb, attraction, a-b-da, 14, 1, 8, 34, 60, 135, 125, 56, 135, 60, 1, 0.951517
58, 3, wb, attraction, a-b-da, 14, 1, 8, 34, 60, 135, 125, 56, 135, 60, 3, 0.352693
58, 3, wb, attraction, a-b-db, 14, 1, 8, 35, 56, 125, 135, 60, 60, 135, 1, 0.512435
58, 3, wb, attraction, a-b-db, 14, 1, 8, 35, 56, 125, 135, 60, 60, 135, 3, 0.314895
58, 3, wb, attraction, a-b-db, 9, 2, 8, 36, 90, 165, 86, 157, 165, 90, 1, 0.500231
58, 3, wb, attraction, a-b-db, 9, 2, 8, 36, 90, 165, 86, 157, 165, 90, 2, 0.663239
58, 3, wb, attraction, a-b-da, 5, 2, 8, 37, 161, 88, 165, 90, 90, 165, 1, 0.538307
58, 3, wb, attraction, a-b-da, 5, 2, 8, 37, 161, 88, 165, 90, 90, 165, 3, 0.307487
