sub_n, computer_n, bw_cond, effect, set, distance, diag, block_n, trial_n, h1, w1, h2, w2, h3, w3, choice, rt 
54, 3, wb, practice, NA, 999, 999, 0, 1, 190, 182, 70, 134, 152, 74, 2, 2.08404
54, 3, wb, practice, NA, 999, 999, 0, 1, 190, 182, 70, 134, 152, 74, 1, 3.93598
54, 3, wb, practice, NA, 999, 999, 0, 2, 58, 124, 125, 133, 144, 79, 1, 3.15534
54, 3, wb, practice, NA, 999, 999, 0, 2, 58, 124, 125, 133, 144, 79, 2, 1.90632
54, 3, wb, practice, NA, 999, 999, 0, 3, 151, 116, 112, 183, 172, 130, 1, 4.06693
54, 3, wb, practice, NA, 999, 999, 0, 3, 151, 116, 112, 183, 172, 130, 3, 3.57452
54, 3, wb, attraction, a-b-db, 14, 3, 1, 1, 195, 120, 111, 181, 120, 195, 2, 23.8726
54, 3, wb, attraction, a-b-db, 14, 3, 1, 1, 195, 120, 111, 181, 120, 195, 3, 4.8619
54, 3, wb, filler, NA, 999, 999, 1, 2, 109, 107, 65, 98, 179, 109, 2, 1.84751
54, 3, wb, filler, NA, 999, 999, 1, 2, 109, 107, 65, 98, 179, 109, 3, 7.42032
54, 3, wb, filler, NA, 999, 999, 1, 3, 153, 151, 125, 81, 146, 96, 2, 1.6313
54, 3, wb, filler, NA, 999, 999, 1, 3, 153, 151, 125, 81, 146, 96, 1, 1.48468
54, 3, wb, attraction, a-b-db, 14, 1, 1, 4, 135, 60, 60, 135, 56, 125, 3, 2.79888
54, 3, wb, attraction, a-b-db, 14, 1, 1, 4, 135, 60, 60, 135, 56, 125, 2, 5.97334
54, 3, wb, attraction, a-b-da, 14, 1, 1, 5, 125, 56, 60, 135, 135, 60, 1, 2.6588
54, 3, wb, attraction, a-b-da, 14, 1, 1, 5, 125, 56, 60, 135, 135, 60, 2, 1.41448
54, 3, wb, attraction, a-b-db, 5, 1, 1, 6, 135, 60, 60, 135, 58, 132, 3, 9.07531
54, 3, wb, attraction, a-b-db, 5, 1, 1, 6, 135, 60, 60, 135, 58, 132, 2, 4.10849
54, 3, wb, attraction, a-b-db, 2, 2, 1, 7, 90, 165, 89, 163, 165, 90, 3, 16.6366
54, 3, wb, attraction, a-b-db, 2, 2, 1, 7, 90, 165, 89, 163, 165, 90, 2, 1.48515
54, 3, wb, catch, NA, 999, 999, 1, 8, 84, 111, 161, 154, 136, 119, 1, 1.02339
54, 3, wb, catch, NA, 999, 999, 1, 8, 84, 111, 161, 154, 136, 119, 2, 0.437021
54, 3, wb, filler, NA, 999, 999, 1, 9, 169, 167, 120, 65, 137, 82, 2, 1.59351
54, 3, wb, filler, NA, 999, 999, 1, 9, 169, 167, 120, 65, 137, 82, 1, 0.872366
54, 3, wb, attraction, a-b-db, 5, 2, 1, 10, 90, 165, 165, 90, 88, 161, 1, 5.46721
54, 3, wb, attraction, a-b-db, 5, 2, 1, 10, 90, 165, 165, 90, 88, 161, 2, 5.07832
54, 3, wb, attraction, a-b-da, 5, 3, 1, 11, 195, 120, 120, 195, 190, 117, 1, 16.4952
54, 3, wb, attraction, a-b-da, 5, 3, 1, 11, 195, 120, 120, 195, 190, 117, 2, 1.2054
54, 3, wb, catch, NA, 999, 999, 1, 12, 135, 180, 112, 143, 122, 73, 3, 0.755048
54, 3, wb, catch, NA, 999, 999, 1, 12, 135, 180, 112, 143, 122, 73, 1, 0.523309
54, 3, wb, attraction, a-b-da, 2, 3, 1, 13, 120, 195, 193, 119, 195, 120, 3, 5.30785
54, 3, wb, attraction, a-b-da, 2, 3, 1, 13, 120, 195, 193, 119, 195, 120, 1, 1.29275
54, 3, wb, filler, NA, 999, 999, 1, 14, 143, 183, 99, 189, 131, 105, 3, 1.21435
54, 3, wb, filler, NA, 999, 999, 1, 14, 143, 183, 99, 189, 131, 105, 1, 1.3006
54, 3, wb, attraction, a-b-da, 2, 2, 1, 15, 90, 165, 165, 90, 163, 89, 3, 5.05408
54, 3, wb, attraction, a-b-da, 2, 2, 1, 15, 90, 165, 165, 90, 163, 89, 1, 16.2018
54, 3, wb, filler, NA, 999, 999, 1, 16, 73, 174, 70, 104, 113, 135, 2, 1.09077
54, 3, wb, filler, NA, 999, 999, 1, 16, 73, 174, 70, 104, 113, 135, 3, 3.90964
54, 3, wb, attraction, a-b-db, 14, 2, 1, 17, 90, 165, 165, 90, 83, 153, 2, 10.1098
54, 3, wb, attraction, a-b-db, 14, 2, 1, 17, 90, 165, 165, 90, 83, 153, 1, 4.90934
54, 3, wb, attraction, a-b-db, 9, 3, 1, 18, 114, 186, 120, 195, 195, 120, 1, 42.861
54, 3, wb, attraction, a-b-db, 9, 3, 1, 18, 114, 186, 120, 195, 195, 120, 2, 1.10088
54, 3, wb, attraction, a-b-da, 2, 1, 1, 19, 60, 135, 134, 59, 135, 60, 1, 16.0465
54, 3, wb, attraction, a-b-da, 2, 1, 1, 19, 60, 135, 134, 59, 135, 60, 2, 2.639
54, 3, wb, attraction, a-b-da, 5, 2, 1, 20, 90, 165, 165, 90, 161, 88, 3, 16.2186
54, 3, wb, attraction, a-b-da, 5, 2, 1, 20, 90, 165, 165, 90, 161, 88, 1, 2.77216
54, 3, wb, filler, NA, 999, 999, 1, 21, 159, 135, 74, 140, 98, 118, 2, 4.17051
54, 3, wb, filler, NA, 999, 999, 1, 21, 159, 135, 74, 140, 98, 118, 1, 4.56193
54, 3, wb, filler, NA, 999, 999, 1, 22, 57, 80, 95, 80, 102, 100, 1, 3.3677
54, 3, wb, filler, NA, 999, 999, 1, 22, 57, 80, 95, 80, 102, 100, 3, 0.839384
54, 3, wb, attraction, a-b-db, 9, 1, 1, 23, 60, 135, 57, 129, 135, 60, 2, 16.1717
54, 3, wb, attraction, a-b-db, 9, 1, 1, 23, 60, 135, 57, 129, 135, 60, 3, 10.6633
54, 3, wb, attraction, a-b-db, 2, 1, 1, 24, 60, 135, 59, 134, 135, 60, 1, 28.9912
54, 3, wb, attraction, a-b-db, 2, 1, 1, 24, 60, 135, 59, 134, 135, 60, 3, 21.1421
54, 3, wb, attraction, a-b-da, 14, 3, 1, 25, 195, 120, 120, 195, 181, 111, 3, 14.0002
54, 3, wb, attraction, a-b-da, 14, 3, 1, 25, 195, 120, 120, 195, 181, 111, 2, 0.49911
54, 3, wb, catch, NA, 999, 999, 1, 26, 163, 92, 74, 121, 171, 144, 2, 1.12484
54, 3, wb, catch, NA, 999, 999, 1, 26, 163, 92, 74, 121, 171, 144, 3, 0.958543
54, 3, wb, attraction, a-b-da, 5, 1, 1, 27, 60, 135, 132, 58, 135, 60, 1, 5.83755
54, 3, wb, attraction, a-b-da, 5, 1, 1, 27, 60, 135, 132, 58, 135, 60, 2, 7.6416
54, 3, wb, attraction, a-b-db, 9, 2, 1, 28, 86, 157, 165, 90, 90, 165, 1, 2.81187
54, 3, wb, attraction, a-b-db, 9, 2, 1, 28, 86, 157, 165, 90, 90, 165, 3, 0.729502
54, 3, wb, attraction, a-b-da, 14, 2, 1, 29, 90, 165, 165, 90, 153, 83, 3, 4.53799
54, 3, wb, attraction, a-b-da, 14, 2, 1, 29, 90, 165, 165, 90, 153, 83, 1, 4.65062
54, 3, wb, filler, NA, 999, 999, 1, 30, 195, 183, 153, 81, 186, 113, 2, 1.39694
54, 3, wb, filler, NA, 999, 999, 1, 30, 195, 183, 153, 81, 186, 113, 1, 0.635862
54, 3, wb, attraction, a-b-da, 9, 1, 1, 31, 60, 135, 135, 60, 129, 57, 3, 6.34435
54, 3, wb, attraction, a-b-da, 9, 1, 1, 31, 60, 135, 135, 60, 129, 57, 1, 0.471608
54, 3, wb, filler, NA, 999, 999, 1, 32, 193, 109, 158, 108, 172, 146, 2, 3.0667
54, 3, wb, filler, NA, 999, 999, 1, 32, 193, 109, 158, 108, 172, 146, 3, 0.39035
54, 3, wb, attraction, a-b-db, 2, 3, 1, 33, 120, 195, 195, 120, 119, 193, 1, 10.5962
54, 3, wb, attraction, a-b-db, 2, 3, 1, 33, 120, 195, 195, 120, 119, 193, 2, 0.496171
54, 3, wb, filler, NA, 999, 999, 1, 34, 117, 137, 159, 168, 143, 166, 1, 0.882134
54, 3, wb, filler, NA, 999, 999, 1, 34, 117, 137, 159, 168, 143, 166, 2, 1.38184
54, 3, wb, attraction, a-b-da, 9, 3, 1, 35, 195, 120, 120, 195, 186, 114, 3, 3.29989
54, 3, wb, attraction, a-b-da, 9, 3, 1, 35, 195, 120, 120, 195, 186, 114, 2, 3.91819
54, 3, wb, attraction, a-b-da, 9, 2, 1, 36, 165, 90, 90, 165, 157, 86, 3, 1.47032
54, 3, wb, attraction, a-b-da, 9, 2, 1, 36, 165, 90, 90, 165, 157, 86, 2, 4.08265
54, 3, wb, attraction, a-b-db, 5, 3, 1, 37, 120, 195, 195, 120, 117, 190, 3, 3.34777
54, 3, wb, attraction, a-b-db, 5, 3, 1, 37, 120, 195, 195, 120, 117, 190, 1, 7.05993
54, 3, wb, attraction, a-b-da, 5, 2, 2, 1, 90, 165, 165, 90, 161, 88, 3, 37.6211
54, 3, wb, attraction, a-b-da, 5, 2, 2, 1, 90, 165, 165, 90, 161, 88, 1, 0.623935
54, 3, wb, filler, NA, 999, 999, 2, 2, 91, 171, 188, 171, 176, 131, 1, 1.2044
54, 3, wb, filler, NA, 999, 999, 2, 2, 91, 171, 188, 171, 176, 131, 2, 0.843335
54, 3, wb, filler, NA, 999, 999, 2, 3, 119, 87, 109, 71, 130, 130, 2, 1.39893
54, 3, wb, filler, NA, 999, 999, 2, 3, 119, 87, 109, 71, 130, 130, 3, 0.877776
54, 3, wb, attraction, a-b-da, 14, 2, 2, 4, 165, 90, 153, 83, 90, 165, 2, 7.29623
54, 3, wb, attraction, a-b-da, 14, 2, 2, 4, 165, 90, 153, 83, 90, 165, 3, 9.20127
54, 3, wb, attraction, a-b-db, 9, 2, 2, 5, 90, 165, 86, 157, 165, 90, 2, 22.4203
54, 3, wb, attraction, a-b-db, 9, 2, 2, 5, 90, 165, 86, 157, 165, 90, 1, 2.14803
54, 3, wb, attraction, a-b-db, 5, 2, 2, 6, 165, 90, 90, 165, 88, 161, 3, 21.9792
54, 3, wb, attraction, a-b-db, 5, 2, 2, 6, 165, 90, 90, 165, 88, 161, 2, 1.78828
54, 3, wb, attraction, a-b-da, 14, 1, 2, 7, 60, 135, 135, 60, 125, 56, 1, 2.37833
54, 3, wb, attraction, a-b-da, 14, 1, 2, 7, 60, 135, 135, 60, 125, 56, 2, 1.01757
54, 3, wb, attraction, a-b-da, 2, 1, 2, 8, 134, 59, 60, 135, 135, 60, 2, 2.14247
54, 3, wb, attraction, a-b-da, 2, 1, 2, 8, 134, 59, 60, 135, 135, 60, 3, 2.23113
54, 3, wb, attraction, a-b-da, 9, 2, 2, 9, 157, 86, 165, 90, 90, 165, 1, 5.68311
54, 3, wb, attraction, a-b-da, 9, 2, 2, 9, 157, 86, 165, 90, 90, 165, 3, 1.18935
54, 3, wb, attraction, a-b-da, 5, 3, 2, 10, 120, 195, 195, 120, 190, 117, 3, 23.4756
54, 3, wb, attraction, a-b-da, 5, 3, 2, 10, 120, 195, 195, 120, 190, 117, 1, 0.552752
54, 3, wb, catch, NA, 999, 999, 2, 11, 114, 141, 178, 137, 100, 95, 3, 1.04862
54, 3, wb, catch, NA, 999, 999, 2, 11, 114, 141, 178, 137, 100, 95, 2, 0.381526
54, 3, wb, attraction, a-b-da, 14, 3, 2, 12, 120, 195, 195, 120, 181, 111, 3, 7.08418
54, 3, wb, attraction, a-b-da, 14, 3, 2, 12, 120, 195, 195, 120, 181, 111, 2, 0.725797
54, 3, wb, attraction, a-b-db, 14, 3, 2, 13, 111, 181, 120, 195, 195, 120, 1, 1.71827
54, 3, wb, attraction, a-b-db, 14, 3, 2, 13, 111, 181, 120, 195, 195, 120, 3, 6.21641
54, 3, wb, attraction, a-b-da, 2, 2, 2, 14, 90, 165, 165, 90, 163, 89, 1, 24.6997
54, 3, wb, attraction, a-b-da, 2, 2, 2, 14, 90, 165, 165, 90, 163, 89, 2, 1.77528
54, 3, wb, attraction, a-b-db, 9, 3, 2, 15, 120, 195, 114, 186, 195, 120, 3, 20.4533
54, 3, wb, attraction, a-b-db, 9, 3, 2, 15, 120, 195, 114, 186, 195, 120, 1, 0.532173
54, 3, wb, attraction, a-b-db, 14, 1, 2, 16, 60, 135, 135, 60, 56, 125, 3, 10.7087
54, 3, wb, attraction, a-b-db, 14, 1, 2, 16, 60, 135, 135, 60, 56, 125, 2, 0.78791
54, 3, wb, attraction, a-b-db, 5, 3, 2, 17, 195, 120, 117, 190, 120, 195, 1, 14.2105
54, 3, wb, attraction, a-b-db, 5, 3, 2, 17, 195, 120, 117, 190, 120, 195, 3, 4.02852
54, 3, wb, filler, NA, 999, 999, 2, 18, 65, 61, 71, 81, 94, 68, 1, 1.71181
54, 3, wb, filler, NA, 999, 999, 2, 18, 65, 61, 71, 81, 94, 68, 3, 1.40196
54, 3, wb, attraction, a-b-db, 14, 2, 2, 19, 83, 153, 165, 90, 90, 165, 1, 1.27945
54, 3, wb, attraction, a-b-db, 14, 2, 2, 19, 83, 153, 165, 90, 90, 165, 3, 4.99516
54, 3, wb, filler, NA, 999, 999, 2, 20, 85, 145, 161, 191, 167, 131, 1, 2.67136
54, 3, wb, filler, NA, 999, 999, 2, 20, 85, 145, 161, 191, 167, 131, 2, 0.467227
54, 3, wb, attraction, a-b-db, 5, 1, 2, 21, 60, 135, 135, 60, 58, 132, 1, 28.0382
54, 3, wb, attraction, a-b-db, 5, 1, 2, 21, 60, 135, 135, 60, 58, 132, 2, 0.691506
54, 3, wb, filler, NA, 999, 999, 2, 22, 103, 168, 98, 152, 101, 56, 3, 0.853512
54, 3, wb, filler, NA, 999, 999, 2, 22, 103, 168, 98, 152, 101, 56, 1, 1.02628
54, 3, wb, attraction, a-b-da, 9, 1, 2, 23, 60, 135, 135, 60, 129, 57, 1, 4.20664
54, 3, wb, attraction, a-b-da, 9, 1, 2, 23, 60, 135, 135, 60, 129, 57, 3, 1.85937
54, 3, wb, attraction, a-b-da, 2, 3, 2, 24, 195, 120, 120, 195, 193, 119, 3, 7.06257
54, 3, wb, attraction, a-b-da, 2, 3, 2, 24, 195, 120, 120, 195, 193, 119, 2, 1.10504
54, 3, wb, filler, NA, 999, 999, 2, 25, 148, 119, 184, 122, 163, 165, 1, 1.05062
54, 3, wb, filler, NA, 999, 999, 2, 25, 148, 119, 184, 122, 163, 165, 3, 0.991733
54, 3, wb, attraction, a-b-db, 2, 1, 2, 26, 60, 135, 135, 60, 59, 134, 3, 6.24544
54, 3, wb, attraction, a-b-db, 2, 1, 2, 26, 60, 135, 135, 60, 59, 134, 1, 1.55256
54, 3, wb, catch, NA, 999, 999, 2, 27, 176, 139, 104, 151, 93, 102, 3, 0.924682
54, 3, wb, catch, NA, 999, 999, 2, 27, 176, 139, 104, 151, 93, 102, 1, 0.361693
54, 3, wb, filler, NA, 999, 999, 2, 28, 148, 156, 117, 134, 56, 163, 3, 1.18488
54, 3, wb, filler, NA, 999, 999, 2, 28, 148, 156, 117, 134, 56, 163, 1, 1.19251
54, 3, wb, catch, NA, 999, 999, 2, 29, 164, 151, 134, 121, 121, 74, 3, 1.45406
54, 3, wb, catch, NA, 999, 999, 2, 29, 164, 151, 134, 121, 121, 74, 1, 0.778197
54, 3, wb, attraction, a-b-db, 2, 3, 2, 30, 195, 120, 120, 195, 119, 193, 1, 12.5687
54, 3, wb, attraction, a-b-db, 2, 3, 2, 30, 195, 120, 120, 195, 119, 193, 2, 0.637392
54, 3, wb, filler, NA, 999, 999, 2, 31, 65, 84, 101, 115, 70, 114, 1, 1.13776
54, 3, wb, filler, NA, 999, 999, 2, 31, 65, 84, 101, 115, 70, 114, 2, 0.98737
54, 3, wb, filler, NA, 999, 999, 2, 32, 101, 93, 143, 67, 119, 93, 2, 7.19368
54, 3, wb, filler, NA, 999, 999, 2, 32, 101, 93, 143, 67, 119, 93, 3, 3.35879
54, 3, wb, attraction, a-b-db, 9, 1, 2, 33, 57, 129, 135, 60, 60, 135, 1, 13.1972
54, 3, wb, attraction, a-b-db, 9, 1, 2, 33, 57, 129, 135, 60, 60, 135, 2, 0.86404
54, 3, wb, attraction, a-b-db, 2, 2, 2, 34, 89, 163, 90, 165, 165, 90, 1, 7.13113
54, 3, wb, attraction, a-b-db, 2, 2, 2, 34, 89, 163, 90, 165, 165, 90, 2, 2.47485
54, 3, wb, attraction, a-b-da, 5, 1, 2, 35, 60, 135, 135, 60, 132, 58, 1, 2.85276
54, 3, wb, attraction, a-b-da, 5, 1, 2, 35, 60, 135, 135, 60, 132, 58, 2, 6.16123
54, 3, wb, filler, NA, 999, 999, 2, 36, 116, 162, 56, 188, 168, 122, 2, 2.45446
54, 3, wb, filler, NA, 999, 999, 2, 36, 116, 162, 56, 188, 168, 122, 3, 0.819018
54, 3, wb, attraction, a-b-da, 9, 3, 2, 37, 120, 195, 195, 120, 186, 114, 3, 21.9201
54, 3, wb, attraction, a-b-da, 9, 3, 2, 37, 120, 195, 195, 120, 186, 114, 2, 1.77997
54, 3, wb, attraction, a-b-da, 2, 2, 3, 1, 90, 165, 163, 89, 165, 90, 2, 2.88181
54, 3, wb, attraction, a-b-da, 2, 2, 3, 1, 90, 165, 163, 89, 165, 90, 1, 1.18896
54, 3, wb, attraction, a-b-da, 9, 2, 3, 2, 157, 86, 90, 165, 165, 90, 1, 1.45917
54, 3, wb, attraction, a-b-da, 9, 2, 3, 2, 157, 86, 90, 165, 165, 90, 2, 4.79144
54, 3, wb, attraction, a-b-da, 9, 1, 3, 3, 129, 57, 60, 135, 135, 60, 1, 4.6038
54, 3, wb, attraction, a-b-da, 9, 1, 3, 3, 129, 57, 60, 135, 135, 60, 2, 0.833717
54, 3, wb, attraction, a-b-db, 2, 3, 3, 4, 119, 193, 195, 120, 120, 195, 2, 8.16611
54, 3, wb, attraction, a-b-db, 2, 3, 3, 4, 119, 193, 195, 120, 120, 195, 3, 1.77217
54, 3, wb, filler, NA, 999, 999, 3, 5, 124, 181, 134, 102, 88, 190, 2, 1.74686
54, 3, wb, filler, NA, 999, 999, 3, 5, 124, 181, 134, 102, 88, 190, 1, 2.97958
54, 3, wb, filler, NA, 999, 999, 3, 6, 93, 60, 124, 100, 129, 90, 1, 1.05733
54, 3, wb, filler, NA, 999, 999, 3, 6, 93, 60, 124, 100, 129, 90, 2, 1.50203
54, 3, wb, attraction, a-b-db, 14, 2, 3, 7, 165, 90, 90, 165, 83, 153, 3, 29.1992
54, 3, wb, attraction, a-b-db, 14, 2, 3, 7, 165, 90, 90, 165, 83, 153, 2, 0.477153
54, 3, wb, attraction, a-b-db, 5, 3, 3, 8, 195, 120, 120, 195, 117, 190, 3, 9.22375
54, 3, wb, attraction, a-b-db, 5, 3, 3, 8, 195, 120, 120, 195, 117, 190, 2, 0.483435
54, 3, wb, filler, NA, 999, 999, 3, 9, 181, 77, 75, 67, 173, 105, 2, 1.32593
54, 3, wb, filler, NA, 999, 999, 3, 9, 181, 77, 75, 67, 173, 105, 3, 0.511603
54, 3, wb, attraction, a-b-db, 2, 1, 3, 10, 59, 134, 60, 135, 135, 60, 3, 5.72059
54, 3, wb, attraction, a-b-db, 2, 1, 3, 10, 59, 134, 60, 135, 135, 60, 2, 0.969385
54, 3, wb, filler, NA, 999, 999, 3, 11, 162, 66, 158, 179, 75, 138, 1, 48.4006
54, 3, wb, filler, NA, 999, 999, 3, 11, 162, 66, 158, 179, 75, 138, 2, 1.09728
54, 3, wb, attraction, a-b-da, 2, 1, 3, 12, 134, 59, 60, 135, 135, 60, 1, 12.4589
54, 3, wb, attraction, a-b-da, 2, 1, 3, 12, 134, 59, 60, 135, 135, 60, 2, 2.7717
54, 3, wb, attraction, a-b-da, 5, 1, 3, 13, 135, 60, 60, 135, 132, 58, 3, 4.25811
54, 3, wb, attraction, a-b-da, 5, 1, 3, 13, 135, 60, 60, 135, 132, 58, 2, 2.02929
54, 3, wb, attraction, a-b-db, 2, 2, 3, 14, 90, 165, 89, 163, 165, 90, 3, 3.11336
54, 3, wb, attraction, a-b-db, 2, 2, 3, 14, 90, 165, 89, 163, 165, 90, 2, 3.65096
54, 3, wb, catch, NA, 999, 999, 3, 15, 83, 112, 163, 92, 161, 154, 1, 2.28573
54, 3, wb, catch, NA, 999, 999, 3, 15, 83, 112, 163, 92, 161, 154, 3, 0.937035
54, 3, wb, filler, NA, 999, 999, 3, 16, 69, 76, 130, 131, 108, 75, 1, 1.42531
54, 3, wb, filler, NA, 999, 999, 3, 16, 69, 76, 130, 131, 108, 75, 2, 0.76691
54, 3, wb, attraction, a-b-db, 5, 1, 3, 17, 58, 132, 60, 135, 135, 60, 1, 18.5179
54, 3, wb, attraction, a-b-db, 5, 1, 3, 17, 58, 132, 60, 135, 135, 60, 3, 3.11476
54, 3, wb, catch, NA, 999, 999, 3, 18, 165, 90, 156, 159, 129, 66, 3, 1.93907
54, 3, wb, catch, NA, 999, 999, 3, 18, 165, 90, 156, 159, 129, 66, 2, 0.77984
54, 3, wb, attraction, a-b-da, 14, 2, 3, 19, 165, 90, 153, 83, 90, 165, 2, 19.9301
54, 3, wb, attraction, a-b-da, 14, 2, 3, 19, 165, 90, 153, 83, 90, 165, 3, 1.74195
54, 3, wb, filler, NA, 999, 999, 3, 20, 64, 129, 67, 66, 173, 90, 2, 1.00532
54, 3, wb, filler, NA, 999, 999, 3, 20, 64, 129, 67, 66, 173, 90, 3, 0.971739
54, 3, wb, attraction, a-b-da, 5, 2, 3, 21, 90, 165, 161, 88, 165, 90, 2, 8.14653
54, 3, wb, attraction, a-b-da, 5, 2, 3, 21, 90, 165, 161, 88, 165, 90, 1, 1.12945
54, 3, wb, attraction, a-b-db, 14, 3, 3, 22, 195, 120, 120, 195, 111, 181, 3, 1.63356
54, 3, wb, attraction, a-b-db, 14, 3, 3, 22, 195, 120, 120, 195, 111, 181, 1, 0.830992
54, 3, wb, attraction, a-b-db, 14, 1, 3, 23, 60, 135, 56, 125, 135, 60, 2, 11.2514
54, 3, wb, attraction, a-b-db, 14, 1, 3, 23, 60, 135, 56, 125, 135, 60, 1, 1.00518
54, 3, wb, filler, NA, 999, 999, 3, 24, 189, 79, 126, 81, 120, 163, 2, 24.5549
54, 3, wb, filler, NA, 999, 999, 3, 24, 189, 79, 126, 81, 120, 163, 3, 0.580388
54, 3, wb, filler, NA, 999, 999, 3, 25, 137, 56, 69, 118, 180, 170, 2, 1.64292
54, 3, wb, filler, NA, 999, 999, 3, 25, 137, 56, 69, 118, 180, 170, 3, 0.695685
54, 3, wb, attraction, a-b-da, 14, 3, 3, 26, 195, 120, 181, 111, 120, 195, 2, 10.1695
54, 3, wb, attraction, a-b-da, 14, 3, 3, 26, 195, 120, 181, 111, 120, 195, 3, 1.62287
54, 3, wb, attraction, a-b-da, 9, 3, 3, 27, 186, 114, 120, 195, 195, 120, 1, 1.49967
54, 3, wb, attraction, a-b-da, 9, 3, 3, 27, 186, 114, 120, 195, 195, 120, 2, 1.48647
54, 3, wb, filler, NA, 999, 999, 3, 28, 100, 187, 65, 114, 164, 67, 2, 1.37663
54, 3, wb, filler, NA, 999, 999, 3, 28, 100, 187, 65, 114, 164, 67, 1, 0.928159
54, 3, wb, filler, NA, 999, 999, 3, 29, 65, 146, 121, 134, 132, 131, 1, 1.26442
54, 3, wb, filler, NA, 999, 999, 3, 29, 65, 146, 121, 134, 132, 131, 3, 6.93288
54, 3, wb, attraction, a-b-db, 9, 3, 3, 30, 120, 195, 195, 120, 114, 186, 3, 14.1792
54, 3, wb, attraction, a-b-db, 9, 3, 3, 30, 120, 195, 195, 120, 114, 186, 1, 2.22285
54, 3, wb, attraction, a-b-db, 5, 2, 3, 31, 165, 90, 90, 165, 88, 161, 1, 5.23529
54, 3, wb, attraction, a-b-db, 5, 2, 3, 31, 165, 90, 90, 165, 88, 161, 2, 0.655605
54, 3, wb, attraction, a-b-db, 9, 1, 3, 32, 57, 129, 60, 135, 135, 60, 1, 12.2274
54, 3, wb, attraction, a-b-db, 9, 1, 3, 32, 57, 129, 60, 135, 135, 60, 2, 1.1655
54, 3, wb, catch, NA, 999, 999, 3, 33, 168, 147, 68, 127, 101, 154, 2, 1.20434
54, 3, wb, catch, NA, 999, 999, 3, 33, 168, 147, 68, 127, 101, 154, 1, 0.664973
54, 3, wb, attraction, a-b-da, 5, 3, 3, 34, 190, 117, 195, 120, 120, 195, 1, 24.0625
54, 3, wb, attraction, a-b-da, 5, 3, 3, 34, 190, 117, 195, 120, 120, 195, 2, 6.85161
54, 3, wb, attraction, a-b-da, 2, 3, 3, 35, 193, 119, 195, 120, 120, 195, 1, 9.64544
54, 3, wb, attraction, a-b-da, 2, 3, 3, 35, 193, 119, 195, 120, 120, 195, 3, 0.687662
54, 3, wb, attraction, a-b-db, 9, 2, 3, 36, 90, 165, 86, 157, 165, 90, 1, 26.5941
54, 3, wb, attraction, a-b-db, 9, 2, 3, 36, 90, 165, 86, 157, 165, 90, 2, 0.449727
54, 3, wb, attraction, a-b-da, 14, 1, 3, 37, 125, 56, 60, 135, 135, 60, 1, 1.34954
54, 3, wb, attraction, a-b-da, 14, 1, 3, 37, 125, 56, 60, 135, 135, 60, 2, 1.39849
54, 3, wb, attraction, a-b-db, 9, 3, 4, 1, 195, 120, 120, 195, 114, 186, 3, 1.78799
54, 3, wb, attraction, a-b-db, 9, 3, 4, 1, 195, 120, 120, 195, 114, 186, 2, 1.34675
54, 3, wb, attraction, a-b-da, 9, 2, 4, 2, 165, 90, 90, 165, 157, 86, 1, 10.2181
54, 3, wb, attraction, a-b-da, 9, 2, 4, 2, 165, 90, 90, 165, 157, 86, 2, 1.27758
54, 3, wb, attraction, a-b-da, 14, 3, 4, 3, 195, 120, 181, 111, 120, 195, 1, 2.5038
54, 3, wb, attraction, a-b-da, 14, 3, 4, 3, 195, 120, 181, 111, 120, 195, 3, 0.578496
54, 3, wb, filler, NA, 999, 999, 4, 4, 164, 113, 125, 130, 102, 127, 3, 1.44079
54, 3, wb, filler, NA, 999, 999, 4, 4, 164, 113, 125, 130, 102, 127, 1, 1.38962
54, 3, wb, attraction, a-b-db, 2, 3, 4, 5, 120, 195, 195, 120, 119, 193, 1, 4.0679
54, 3, wb, attraction, a-b-db, 2, 3, 4, 5, 120, 195, 195, 120, 119, 193, 3, 1.89521
54, 3, wb, attraction, a-b-db, 14, 1, 4, 6, 60, 135, 56, 125, 135, 60, 1, 1.40845
54, 3, wb, attraction, a-b-db, 14, 1, 4, 6, 60, 135, 56, 125, 135, 60, 3, 2.27871
54, 3, wb, attraction, a-b-da, 9, 1, 4, 7, 135, 60, 129, 57, 60, 135, 2, 3.08865
54, 3, wb, attraction, a-b-da, 9, 1, 4, 7, 135, 60, 129, 57, 60, 135, 1, 1.0269
54, 3, wb, attraction, a-b-da, 5, 1, 4, 8, 135, 60, 60, 135, 132, 58, 3, 5.70324
54, 3, wb, attraction, a-b-da, 5, 1, 4, 8, 135, 60, 60, 135, 132, 58, 2, 0.808722
54, 3, wb, attraction, a-b-da, 14, 2, 4, 9, 153, 83, 165, 90, 90, 165, 1, 1.25388
54, 3, wb, attraction, a-b-da, 14, 2, 4, 9, 153, 83, 165, 90, 90, 165, 3, 1.6988
54, 3, wb, attraction, a-b-db, 14, 2, 4, 10, 83, 153, 90, 165, 165, 90, 1, 1.12412
54, 3, wb, attraction, a-b-db, 14, 2, 4, 10, 83, 153, 90, 165, 165, 90, 2, 1.40567
54, 3, wb, attraction, a-b-db, 9, 1, 4, 11, 135, 60, 57, 129, 60, 135, 2, 6.22723
54, 3, wb, attraction, a-b-db, 9, 1, 4, 11, 135, 60, 57, 129, 60, 135, 1, 2.02325
54, 3, wb, catch, NA, 999, 999, 4, 12, 95, 100, 178, 137, 116, 139, 1, 0.963996
54, 3, wb, catch, NA, 999, 999, 4, 12, 95, 100, 178, 137, 116, 139, 2, 1.29232
54, 3, wb, filler, NA, 999, 999, 4, 13, 93, 137, 136, 89, 92, 103, 3, 1.53391
54, 3, wb, filler, NA, 999, 999, 4, 13, 93, 137, 136, 89, 92, 103, 2, 2.53543
54, 3, wb, filler, NA, 999, 999, 4, 14, 89, 186, 152, 73, 139, 96, 2, 3.95109
54, 3, wb, filler, NA, 999, 999, 4, 14, 89, 186, 152, 73, 139, 96, 1, 0.439143
54, 3, wb, attraction, a-b-da, 5, 2, 4, 15, 161, 88, 165, 90, 90, 165, 1, 4.46766
54, 3, wb, attraction, a-b-da, 5, 2, 4, 15, 161, 88, 165, 90, 90, 165, 3, 1.95091
54, 3, wb, attraction, a-b-db, 5, 3, 4, 16, 195, 120, 120, 195, 117, 190, 3, 19.2782
54, 3, wb, attraction, a-b-db, 5, 3, 4, 16, 195, 120, 120, 195, 117, 190, 2, 2.01224
54, 3, wb, filler, NA, 999, 999, 4, 17, 180, 138, 136, 121, 143, 149, 2, 3.69682
54, 3, wb, filler, NA, 999, 999, 4, 17, 180, 138, 136, 121, 143, 149, 1, 0.810967
54, 3, wb, attraction, a-b-da, 9, 3, 4, 18, 195, 120, 186, 114, 120, 195, 1, 29.416
54, 3, wb, attraction, a-b-da, 9, 3, 4, 18, 195, 120, 186, 114, 120, 195, 3, 0.485468
54, 3, wb, filler, NA, 999, 999, 4, 19, 99, 193, 163, 170, 109, 73, 3, 1.05588
54, 3, wb, filler, NA, 999, 999, 4, 19, 99, 193, 163, 170, 109, 73, 2, 6.89235
54, 3, wb, attraction, a-b-da, 2, 3, 4, 20, 195, 120, 193, 119, 120, 195, 1, 20.4521
54, 3, wb, attraction, a-b-da, 2, 3, 4, 20, 195, 120, 193, 119, 120, 195, 3, 2.63502
54, 3, wb, catch, NA, 999, 999, 4, 21, 130, 125, 135, 180, 94, 101, 3, 1.63069
54, 3, wb, catch, NA, 999, 999, 4, 21, 130, 125, 135, 180, 94, 101, 2, 0.588224
54, 3, wb, attraction, a-b-db, 5, 1, 4, 22, 58, 132, 60, 135, 135, 60, 1, 1.49063
54, 3, wb, attraction, a-b-db, 5, 1, 4, 22, 58, 132, 60, 135, 135, 60, 2, 3.7255
54, 3, wb, attraction, a-b-db, 2, 2, 4, 23, 89, 163, 90, 165, 165, 90, 1, 2.09289
54, 3, wb, attraction, a-b-db, 2, 2, 4, 23, 89, 163, 90, 165, 165, 90, 2, 0.679644
54, 3, wb, attraction, a-b-db, 14, 3, 4, 24, 111, 181, 120, 195, 195, 120, 1, 1.25795
54, 3, wb, attraction, a-b-db, 14, 3, 4, 24, 111, 181, 120, 195, 195, 120, 2, 0.886166
54, 3, wb, attraction, a-b-da, 2, 2, 4, 25, 90, 165, 163, 89, 165, 90, 2, 20.6965
54, 3, wb, attraction, a-b-da, 2, 2, 4, 25, 90, 165, 163, 89, 165, 90, 1, 0.565384
54, 3, wb, attraction, a-b-db, 5, 2, 4, 26, 165, 90, 90, 165, 88, 161, 1, 56.0046
54, 3, wb, attraction, a-b-db, 5, 2, 4, 26, 165, 90, 90, 165, 88, 161, 2, 0.882861
54, 3, wb, attraction, a-b-da, 2, 1, 4, 27, 60, 135, 135, 60, 134, 59, 1, 4.6932
54, 3, wb, attraction, a-b-da, 2, 1, 4, 27, 60, 135, 135, 60, 134, 59, 2, 0.735083
54, 3, wb, attraction, a-b-db, 2, 1, 4, 28, 59, 134, 135, 60, 60, 135, 1, 158.664
54, 3, wb, attraction, a-b-db, 2, 1, 4, 28, 59, 134, 135, 60, 60, 135, 3, 0.876639
54, 3, wb, filler, NA, 999, 999, 4, 29, 160, 157, 156, 61, 107, 157, 2, 123.159
54, 3, wb, filler, NA, 999, 999, 4, 29, 160, 157, 156, 61, 107, 157, 1, 0.610341
54, 3, wb, filler, NA, 999, 999, 4, 30, 89, 186, 116, 112, 74, 59, 3, 1.18407
54, 3, wb, filler, NA, 999, 999, 4, 30, 89, 186, 116, 112, 74, 59, 1, 46.2472
54, 3, wb, filler, NA, 999, 999, 4, 31, 79, 110, 179, 92, 180, 85, 1, 3.02123
54, 3, wb, filler, NA, 999, 999, 4, 31, 79, 110, 179, 92, 180, 85, 3, 1.09085
54, 3, wb, filler, NA, 999, 999, 4, 32, 104, 89, 105, 192, 126, 162, 1, 109.085
54, 3, wb, filler, NA, 999, 999, 4, 32, 104, 89, 105, 192, 126, 162, 3, 0.527867
54, 3, wb, filler, NA, 999, 999, 4, 33, 169, 104, 95, 155, 157, 136, 2, 2.73623
54, 3, wb, filler, NA, 999, 999, 4, 33, 169, 104, 95, 155, 157, 136, 3, 0.561339
54, 3, wb, attraction, a-b-da, 5, 3, 4, 34, 190, 117, 195, 120, 120, 195, 1, 4.1205
54, 3, wb, attraction, a-b-da, 5, 3, 4, 34, 190, 117, 195, 120, 120, 195, 2, 2.25781
54, 3, wb, catch, NA, 999, 999, 4, 35, 107, 88, 128, 187, 94, 161, 1, 1.32424
54, 3, wb, catch, NA, 999, 999, 4, 35, 107, 88, 128, 187, 94, 161, 2, 0.773955
54, 3, wb, attraction, a-b-db, 9, 2, 4, 36, 165, 90, 86, 157, 90, 165, 1, 44.7723
54, 3, wb, attraction, a-b-db, 9, 2, 4, 36, 165, 90, 86, 157, 90, 165, 3, 1.33509
54, 3, wb, attraction, a-b-da, 14, 1, 4, 37, 125, 56, 60, 135, 135, 60, 1, 50.7194
54, 3, wb, attraction, a-b-da, 14, 1, 4, 37, 125, 56, 60, 135, 135, 60, 2, 1.29857
54, 3, wb, attraction, a-b-db, 2, 1, 5, 1, 60, 135, 135, 60, 59, 134, 1, 1109.77
54, 3, wb, attraction, a-b-db, 2, 1, 5, 1, 60, 135, 135, 60, 59, 134, 3, 0.941957
54, 3, wb, attraction, a-b-da, 14, 2, 5, 2, 165, 90, 90, 165, 153, 83, 1, 3.15775
54, 3, wb, attraction, a-b-da, 14, 2, 5, 2, 165, 90, 90, 165, 153, 83, 2, 0.709235
54, 3, wb, filler, NA, 999, 999, 5, 3, 163, 183, 116, 74, 97, 165, 2, 1.37431
54, 3, wb, filler, NA, 999, 999, 5, 3, 163, 183, 116, 74, 97, 165, 1, 0.693891
