sub_n, computer_n, bw_cond, effect, set, distance, diag, block_n, trial_n, h1, w1, h2, w2, h3, w3, choice, rt 
69, 3, bw, practice, NA, 999, 999, 0, 1, 101, 172, 187, 114, 62, 117, 2, 2.89317
69, 3, bw, practice, NA, 999, 999, 0, 1, 101, 172, 187, 114, 62, 117, 3, 1.29434
69, 3, bw, practice, NA, 999, 999, 0, 2, 88, 119, 61, 107, 107, 67, 1, 1.78918
69, 3, bw, practice, NA, 999, 999, 0, 2, 88, 119, 61, 107, 107, 67, 2, 1.1411
69, 3, bw, practice, NA, 999, 999, 0, 3, 123, 159, 64, 131, 184, 178, 3, 1.52191
69, 3, bw, practice, NA, 999, 999, 0, 3, 123, 159, 64, 131, 184, 178, 2, 0.740881
69, 3, bw, catch, NA, 999, 999, 1, 1, 63, 132, 152, 103, 175, 140, 3, 1.69167
69, 3, bw, catch, NA, 999, 999, 1, 1, 63, 132, 152, 103, 175, 140, 1, 1.16613
69, 3, bw, attraction, a-b-da, 2, 3, 1, 2, 195, 120, 120, 195, 193, 119, 2, 1.78123
69, 3, bw, attraction, a-b-da, 2, 3, 1, 2, 195, 120, 120, 195, 193, 119, 3, 3.15661
69, 3, bw, attraction, a-b-db, 2, 1, 1, 3, 59, 134, 135, 60, 60, 135, 1, 6.84371
69, 3, bw, attraction, a-b-db, 2, 1, 1, 3, 59, 134, 135, 60, 60, 135, 3, 0.830677
69, 3, bw, attraction, a-b-db, 9, 1, 1, 4, 60, 135, 57, 129, 135, 60, 1, 2.147
69, 3, bw, attraction, a-b-db, 9, 1, 1, 4, 60, 135, 57, 129, 135, 60, 2, 0.547673
69, 3, bw, attraction, a-b-da, 5, 3, 1, 5, 120, 195, 195, 120, 190, 117, 1, 2.81141
69, 3, bw, attraction, a-b-da, 5, 3, 1, 5, 120, 195, 195, 120, 190, 117, 2, 0.833191
69, 3, bw, filler, NA, 999, 999, 1, 6, 146, 112, 57, 122, 138, 182, 3, 1.14957
69, 3, bw, filler, NA, 999, 999, 1, 6, 146, 112, 57, 122, 138, 182, 2, 0.558494
69, 3, bw, attraction, a-b-db, 2, 3, 1, 7, 120, 195, 119, 193, 195, 120, 2, 1.20551
69, 3, bw, attraction, a-b-db, 2, 3, 1, 7, 120, 195, 119, 193, 195, 120, 1, 3.65986
69, 3, bw, filler, NA, 999, 999, 1, 8, 66, 144, 195, 176, 167, 92, 2, 0.669992
69, 3, bw, filler, NA, 999, 999, 1, 8, 66, 144, 195, 176, 167, 92, 1, 0.666335
69, 3, bw, attraction, a-b-db, 5, 3, 1, 9, 117, 190, 120, 195, 195, 120, 2, 2.98941
69, 3, bw, attraction, a-b-db, 5, 3, 1, 9, 117, 190, 120, 195, 195, 120, 1, 0.939755
69, 3, bw, attraction, a-b-da, 9, 1, 1, 10, 129, 57, 135, 60, 60, 135, 2, 1.74012
69, 3, bw, attraction, a-b-da, 9, 1, 1, 10, 129, 57, 135, 60, 60, 135, 3, 0.684886
69, 3, bw, attraction, a-b-da, 5, 1, 1, 11, 132, 58, 135, 60, 60, 135, 3, 3.58342
69, 3, bw, attraction, a-b-da, 5, 1, 1, 11, 132, 58, 135, 60, 60, 135, 2, 1.20623
69, 3, bw, attraction, a-b-da, 14, 1, 1, 12, 60, 135, 135, 60, 125, 56, 1, 1.41168
69, 3, bw, attraction, a-b-da, 14, 1, 1, 12, 60, 135, 135, 60, 125, 56, 3, 0.91392
69, 3, bw, filler, NA, 999, 999, 1, 13, 150, 155, 124, 184, 157, 93, 1, 6.94689
69, 3, bw, filler, NA, 999, 999, 1, 13, 150, 155, 124, 184, 157, 93, 3, 0.474087
69, 3, bw, attraction, a-b-da, 5, 2, 1, 14, 90, 165, 161, 88, 165, 90, 2, 1.74057
69, 3, bw, attraction, a-b-da, 5, 2, 1, 14, 90, 165, 161, 88, 165, 90, 3, 1.46943
69, 3, bw, filler, NA, 999, 999, 1, 15, 172, 125, 68, 139, 138, 157, 3, 1.36019
69, 3, bw, filler, NA, 999, 999, 1, 15, 172, 125, 68, 139, 138, 157, 2, 0.35225
69, 3, bw, attraction, a-b-da, 2, 2, 1, 16, 165, 90, 90, 165, 163, 89, 2, 0.872287
69, 3, bw, attraction, a-b-da, 2, 2, 1, 16, 165, 90, 90, 165, 163, 89, 1, 0.603847
69, 3, bw, attraction, a-b-da, 9, 2, 1, 17, 90, 165, 157, 86, 165, 90, 1, 1.05761
69, 3, bw, attraction, a-b-da, 9, 2, 1, 17, 90, 165, 157, 86, 165, 90, 2, 0.349885
69, 3, bw, attraction, a-b-db, 9, 2, 1, 18, 86, 157, 165, 90, 90, 165, 3, 1.22169
69, 3, bw, attraction, a-b-db, 9, 2, 1, 18, 86, 157, 165, 90, 90, 165, 2, 0.731301
69, 3, bw, catch, NA, 999, 999, 1, 19, 89, 106, 146, 109, 161, 154, 3, 0.739743
69, 3, bw, catch, NA, 999, 999, 1, 19, 89, 106, 146, 109, 161, 154, 1, 0.460764
69, 3, bw, attraction, a-b-db, 2, 2, 1, 20, 165, 90, 90, 165, 89, 163, 2, 2.35987
69, 3, bw, attraction, a-b-db, 2, 2, 1, 20, 165, 90, 90, 165, 89, 163, 3, 0.47975
69, 3, bw, filler, NA, 999, 999, 1, 21, 143, 181, 156, 185, 152, 164, 1, 2.18641
69, 3, bw, filler, NA, 999, 999, 1, 21, 143, 181, 156, 185, 152, 164, 2, 1.0576
69, 3, bw, attraction, a-b-da, 14, 3, 1, 22, 181, 111, 120, 195, 195, 120, 2, 1.03645
69, 3, bw, attraction, a-b-da, 14, 3, 1, 22, 181, 111, 120, 195, 195, 120, 1, 0.498259
69, 3, bw, attraction, a-b-da, 14, 2, 1, 23, 165, 90, 153, 83, 90, 165, 3, 2.57986
69, 3, bw, attraction, a-b-da, 14, 2, 1, 23, 165, 90, 153, 83, 90, 165, 2, 0.387457
69, 3, bw, attraction, a-b-db, 9, 3, 1, 24, 120, 195, 195, 120, 114, 186, 1, 2.00954
69, 3, bw, attraction, a-b-db, 9, 3, 1, 24, 120, 195, 195, 120, 114, 186, 2, 0.383546
69, 3, bw, filler, NA, 999, 999, 1, 25, 73, 187, 116, 133, 150, 58, 2, 1.38221
69, 3, bw, filler, NA, 999, 999, 1, 25, 73, 187, 116, 133, 150, 58, 3, 0.677595
69, 3, bw, attraction, a-b-db, 5, 2, 1, 26, 88, 161, 90, 165, 165, 90, 1, 7.57607
69, 3, bw, attraction, a-b-db, 5, 2, 1, 26, 88, 161, 90, 165, 165, 90, 3, 0.381623
69, 3, bw, filler, NA, 999, 999, 1, 27, 157, 105, 81, 118, 71, 147, 1, 0.844037
69, 3, bw, filler, NA, 999, 999, 1, 27, 157, 105, 81, 118, 71, 147, 2, 0.689272
69, 3, bw, attraction, a-b-da, 9, 3, 1, 28, 120, 195, 186, 114, 195, 120, 1, 1.20356
69, 3, bw, attraction, a-b-da, 9, 3, 1, 28, 120, 195, 186, 114, 195, 120, 2, 0.418507
69, 3, bw, attraction, a-b-db, 5, 1, 1, 29, 135, 60, 58, 132, 60, 135, 3, 2.26367
69, 3, bw, attraction, a-b-db, 5, 1, 1, 29, 135, 60, 58, 132, 60, 135, 1, 0.403546
69, 3, bw, catch, NA, 999, 999, 1, 30, 86, 109, 170, 145, 125, 130, 2, 0.857349
69, 3, bw, catch, NA, 999, 999, 1, 30, 86, 109, 170, 145, 125, 130, 1, 0.381868
69, 3, bw, attraction, a-b-da, 2, 1, 1, 31, 60, 135, 134, 59, 135, 60, 1, 1.6523
69, 3, bw, attraction, a-b-da, 2, 1, 1, 31, 60, 135, 134, 59, 135, 60, 2, 0.608991
69, 3, bw, filler, NA, 999, 999, 1, 32, 105, 189, 150, 119, 189, 95, 1, 3.73416
69, 3, bw, filler, NA, 999, 999, 1, 32, 105, 189, 150, 119, 189, 95, 2, 0.334978
69, 3, bw, attraction, a-b-db, 14, 3, 1, 33, 195, 120, 120, 195, 111, 181, 2, 1.14348
69, 3, bw, attraction, a-b-db, 14, 3, 1, 33, 195, 120, 120, 195, 111, 181, 3, 0.240394
69, 3, bw, filler, NA, 999, 999, 1, 34, 69, 158, 152, 106, 106, 155, 3, 0.956334
69, 3, bw, filler, NA, 999, 999, 1, 34, 69, 158, 152, 106, 106, 155, 1, 0.300651
69, 3, bw, filler, NA, 999, 999, 1, 35, 108, 81, 106, 88, 157, 153, 3, 0.886456
69, 3, bw, filler, NA, 999, 999, 1, 35, 108, 81, 106, 88, 157, 153, 1, 0.450133
69, 3, bw, attraction, a-b-db, 14, 2, 1, 36, 90, 165, 165, 90, 83, 153, 1, 1.50191
69, 3, bw, attraction, a-b-db, 14, 2, 1, 36, 90, 165, 165, 90, 83, 153, 3, 0.352859
69, 3, bw, attraction, a-b-db, 14, 1, 1, 37, 60, 135, 135, 60, 56, 125, 1, 1.25659
69, 3, bw, attraction, a-b-db, 14, 1, 1, 37, 60, 135, 135, 60, 56, 125, 3, 0.300858
69, 3, bw, filler, NA, 999, 999, 2, 1, 100, 177, 64, 140, 56, 141, 1, 0.694596
69, 3, bw, filler, NA, 999, 999, 2, 1, 100, 177, 64, 140, 56, 141, 3, 0.609784
69, 3, bw, catch, NA, 999, 999, 2, 2, 95, 100, 140, 115, 183, 132, 3, 1.02298
69, 3, bw, catch, NA, 999, 999, 2, 2, 95, 100, 140, 115, 183, 132, 1, 0.412529
69, 3, bw, attraction, a-b-da, 5, 3, 2, 3, 120, 195, 190, 117, 195, 120, 1, 1.32174
69, 3, bw, attraction, a-b-da, 5, 3, 2, 3, 120, 195, 190, 117, 195, 120, 2, 0.3632
69, 3, bw, attraction, a-b-da, 14, 3, 2, 4, 120, 195, 181, 111, 195, 120, 1, 0.970402
69, 3, bw, attraction, a-b-da, 14, 3, 2, 4, 120, 195, 181, 111, 195, 120, 2, 0.35405
69, 3, bw, attraction, a-b-da, 9, 3, 2, 5, 120, 195, 195, 120, 186, 114, 2, 5.70586
69, 3, bw, attraction, a-b-da, 9, 3, 2, 5, 120, 195, 195, 120, 186, 114, 3, 0.843328
69, 3, bw, attraction, a-b-da, 2, 3, 2, 6, 120, 195, 195, 120, 193, 119, 1, 2.15914
69, 3, bw, attraction, a-b-da, 2, 3, 2, 6, 120, 195, 195, 120, 193, 119, 2, 0.214976
69, 3, bw, attraction, a-b-da, 5, 2, 2, 7, 165, 90, 161, 88, 90, 165, 3, 2.85241
69, 3, bw, attraction, a-b-da, 5, 2, 2, 7, 165, 90, 161, 88, 90, 165, 2, 0.416633
69, 3, bw, filler, NA, 999, 999, 2, 8, 91, 177, 123, 81, 152, 176, 3, 0.757804
69, 3, bw, filler, NA, 999, 999, 2, 8, 91, 177, 123, 81, 152, 176, 2, 0.358188
69, 3, bw, catch, NA, 999, 999, 2, 9, 159, 156, 140, 115, 111, 84, 1, 0.733302
69, 3, bw, catch, NA, 999, 999, 2, 9, 159, 156, 140, 115, 111, 84, 3, 0.431187
69, 3, bw, attraction, a-b-db, 9, 2, 2, 10, 86, 157, 90, 165, 165, 90, 2, 1.94772
69, 3, bw, attraction, a-b-db, 9, 2, 2, 10, 86, 157, 90, 165, 165, 90, 1, 0.532247
69, 3, bw, attraction, a-b-db, 2, 1, 2, 11, 59, 134, 135, 60, 60, 135, 1, 3.12484
69, 3, bw, attraction, a-b-db, 2, 1, 2, 11, 59, 134, 135, 60, 60, 135, 2, 0.237727
69, 3, bw, attraction, a-b-db, 2, 3, 2, 12, 120, 195, 119, 193, 195, 120, 3, 2.01041
69, 3, bw, attraction, a-b-db, 2, 3, 2, 12, 120, 195, 119, 193, 195, 120, 2, 0.576236
69, 3, bw, attraction, a-b-db, 14, 2, 2, 13, 83, 153, 90, 165, 165, 90, 2, 0.934711
69, 3, bw, attraction, a-b-db, 14, 2, 2, 13, 83, 153, 90, 165, 165, 90, 1, 0.3123
69, 3, bw, filler, NA, 999, 999, 2, 14, 97, 173, 136, 135, 100, 193, 2, 1.3136
69, 3, bw, filler, NA, 999, 999, 2, 14, 97, 173, 136, 135, 100, 193, 1, 0.723786
69, 3, bw, attraction, a-b-db, 2, 2, 2, 15, 165, 90, 90, 165, 89, 163, 2, 0.588124
69, 3, bw, attraction, a-b-db, 2, 2, 2, 15, 165, 90, 90, 165, 89, 163, 1, 0.411357
69, 3, bw, attraction, a-b-da, 14, 2, 2, 16, 165, 90, 153, 83, 90, 165, 3, 1.35243
69, 3, bw, attraction, a-b-da, 14, 2, 2, 16, 165, 90, 153, 83, 90, 165, 2, 0.41742
69, 3, bw, filler, NA, 999, 999, 2, 17, 183, 187, 93, 181, 177, 163, 1, 0.878449
69, 3, bw, filler, NA, 999, 999, 2, 17, 183, 187, 93, 181, 177, 163, 2, 0.290193
69, 3, bw, attraction, a-b-db, 9, 1, 2, 18, 60, 135, 57, 129, 135, 60, 1, 2.508
69, 3, bw, attraction, a-b-db, 9, 1, 2, 18, 60, 135, 57, 129, 135, 60, 2, 0.317826
69, 3, bw, attraction, a-b-da, 9, 1, 2, 19, 60, 135, 129, 57, 135, 60, 3, 2.80705
69, 3, bw, attraction, a-b-da, 9, 1, 2, 19, 60, 135, 129, 57, 135, 60, 2, 0.244861
69, 3, bw, attraction, a-b-da, 2, 1, 2, 20, 60, 135, 135, 60, 134, 59, 1, 2.57668
69, 3, bw, attraction, a-b-da, 2, 1, 2, 20, 60, 135, 135, 60, 134, 59, 2, 0.223815
69, 3, bw, attraction, a-b-da, 9, 2, 2, 21, 90, 165, 165, 90, 157, 86, 1, 1.97241
69, 3, bw, attraction, a-b-da, 9, 2, 2, 21, 90, 165, 165, 90, 157, 86, 2, 0.235718
69, 3, bw, attraction, a-b-da, 14, 1, 2, 22, 60, 135, 125, 56, 135, 60, 3, 2.03238
69, 3, bw, attraction, a-b-da, 14, 1, 2, 22, 60, 135, 125, 56, 135, 60, 2, 0.285616
69, 3, bw, filler, NA, 999, 999, 2, 23, 136, 150, 154, 78, 164, 138, 3, 1.13613
69, 3, bw, filler, NA, 999, 999, 2, 23, 136, 150, 154, 78, 164, 138, 2, 0.585778
69, 3, bw, attraction, a-b-db, 5, 1, 2, 24, 58, 132, 60, 135, 135, 60, 2, 3.67216
69, 3, bw, attraction, a-b-db, 5, 1, 2, 24, 58, 132, 60, 135, 135, 60, 3, 0.571636
69, 3, bw, attraction, a-b-da, 5, 1, 2, 25, 60, 135, 135, 60, 132, 58, 1, 2.51488
69, 3, bw, attraction, a-b-da, 5, 1, 2, 25, 60, 135, 135, 60, 132, 58, 2, 0.548627
69, 3, bw, attraction, a-b-db, 14, 3, 2, 26, 111, 181, 195, 120, 120, 195, 2, 4.5644
69, 3, bw, attraction, a-b-db, 14, 3, 2, 26, 111, 181, 195, 120, 120, 195, 1, 0.395601
69, 3, bw, attraction, a-b-db, 5, 2, 2, 27, 88, 161, 165, 90, 90, 165, 3, 2.59361
69, 3, bw, attraction, a-b-db, 5, 2, 2, 27, 88, 161, 165, 90, 90, 165, 2, 0.57594
69, 3, bw, filler, NA, 999, 999, 2, 28, 108, 78, 166, 185, 191, 59, 2, 0.766244
69, 3, bw, filler, NA, 999, 999, 2, 28, 108, 78, 166, 185, 191, 59, 1, 0.446677
69, 3, bw, attraction, a-b-db, 9, 3, 2, 29, 195, 120, 114, 186, 120, 195, 1, 1.00251
69, 3, bw, attraction, a-b-db, 9, 3, 2, 29, 195, 120, 114, 186, 120, 195, 2, 0.665725
69, 3, bw, attraction, a-b-da, 2, 2, 2, 30, 90, 165, 163, 89, 165, 90, 1, 1.75668
69, 3, bw, attraction, a-b-da, 2, 2, 2, 30, 90, 165, 163, 89, 165, 90, 2, 0.644717
69, 3, bw, filler, NA, 999, 999, 2, 31, 129, 140, 73, 129, 117, 70, 1, 1.50441
69, 3, bw, filler, NA, 999, 999, 2, 31, 129, 140, 73, 129, 117, 70, 3, 0.378577
69, 3, bw, attraction, a-b-db, 14, 1, 2, 32, 60, 135, 135, 60, 56, 125, 1, 1.04109
69, 3, bw, attraction, a-b-db, 14, 1, 2, 32, 60, 135, 135, 60, 56, 125, 3, 0.95803
69, 3, bw, catch, NA, 999, 999, 2, 33, 135, 60, 151, 164, 125, 130, 2, 0.996994
69, 3, bw, catch, NA, 999, 999, 2, 33, 135, 60, 151, 164, 125, 130, 1, 0.700064
69, 3, bw, filler, NA, 999, 999, 2, 34, 144, 172, 109, 179, 138, 139, 1, 0.789886
69, 3, bw, filler, NA, 999, 999, 2, 34, 144, 172, 109, 179, 138, 139, 3, 0.900979
69, 3, bw, filler, NA, 999, 999, 2, 35, 103, 194, 64, 95, 64, 104, 1, 0.934437
69, 3, bw, filler, NA, 999, 999, 2, 35, 103, 194, 64, 95, 64, 104, 2, 0.424154
69, 3, bw, filler, NA, 999, 999, 2, 36, 63, 91, 61, 74, 61, 184, 3, 1.3168
69, 3, bw, filler, NA, 999, 999, 2, 36, 63, 91, 61, 74, 61, 184, 2, 0.318936
69, 3, bw, attraction, a-b-db, 5, 3, 2, 37, 120, 195, 195, 120, 117, 190, 1, 1.62405
69, 3, bw, attraction, a-b-db, 5, 3, 2, 37, 120, 195, 195, 120, 117, 190, 3, 1.00552
69, 3, bw, catch, NA, 999, 999, 3, 1, 154, 161, 152, 103, 85, 110, 1, 0.827108
69, 3, bw, catch, NA, 999, 999, 3, 1, 154, 161, 152, 103, 85, 110, 3, 0.328857
69, 3, bw, attraction, a-b-db, 5, 2, 3, 2, 90, 165, 88, 161, 165, 90, 1, 0.913303
69, 3, bw, attraction, a-b-db, 5, 2, 3, 2, 90, 165, 88, 161, 165, 90, 2, 0.451666
69, 3, bw, attraction, a-b-da, 9, 3, 3, 3, 186, 114, 120, 195, 195, 120, 2, 0.807499
69, 3, bw, attraction, a-b-da, 9, 3, 3, 3, 186, 114, 120, 195, 195, 120, 1, 0.437915
69, 3, bw, filler, NA, 999, 999, 3, 4, 68, 122, 162, 156, 151, 64, 2, 0.778393
69, 3, bw, filler, NA, 999, 999, 3, 4, 68, 122, 162, 156, 151, 64, 1, 1.35419
69, 3, bw, attraction, a-b-db, 9, 3, 3, 5, 114, 186, 120, 195, 195, 120, 2, 1.41763
69, 3, bw, attraction, a-b-db, 9, 3, 3, 5, 114, 186, 120, 195, 195, 120, 1, 0.335785
69, 3, bw, filler, NA, 999, 999, 3, 6, 162, 105, 99, 76, 87, 74, 1, 0.800259
69, 3, bw, filler, NA, 999, 999, 3, 6, 162, 105, 99, 76, 87, 74, 3, 0.407444
69, 3, bw, attraction, a-b-da, 5, 2, 3, 7, 161, 88, 90, 165, 165, 90, 2, 1.02053
69, 3, bw, attraction, a-b-da, 5, 2, 3, 7, 161, 88, 90, 165, 165, 90, 1, 0.314847
69, 3, bw, attraction, a-b-da, 9, 1, 3, 8, 60, 135, 129, 57, 135, 60, 3, 3.30808
69, 3, bw, attraction, a-b-da, 9, 1, 3, 8, 60, 135, 129, 57, 135, 60, 2, 1.10961
69, 3, bw, attraction, a-b-db, 5, 3, 3, 9, 195, 120, 117, 190, 120, 195, 2, 1.78263
69, 3, bw, attraction, a-b-db, 5, 3, 3, 9, 195, 120, 117, 190, 120, 195, 1, 0.413988
69, 3, bw, attraction, a-b-da, 5, 3, 3, 10, 190, 117, 195, 120, 120, 195, 2, 0.907059
69, 3, bw, attraction, a-b-da, 5, 3, 3, 10, 190, 117, 195, 120, 120, 195, 3, 0.821411
69, 3, bw, filler, NA, 999, 999, 3, 11, 161, 139, 106, 91, 193, 133, 1, 0.898618
69, 3, bw, filler, NA, 999, 999, 3, 11, 161, 139, 106, 91, 193, 133, 3, 0.621613
69, 3, bw, filler, NA, 999, 999, 3, 12, 120, 78, 90, 59, 109, 180, 3, 0.866642
69, 3, bw, filler, NA, 999, 999, 3, 12, 120, 78, 90, 59, 109, 180, 2, 0.359035
69, 3, bw, filler, NA, 999, 999, 3, 13, 120, 126, 163, 105, 66, 107, 1, 1.22214
69, 3, bw, filler, NA, 999, 999, 3, 13, 120, 126, 163, 105, 66, 107, 3, 0.515851
69, 3, bw, attraction, a-b-da, 5, 1, 3, 14, 135, 60, 132, 58, 60, 135, 3, 1.23683
69, 3, bw, attraction, a-b-da, 5, 1, 3, 14, 135, 60, 132, 58, 60, 135, 2, 0.418514
69, 3, bw, attraction, a-b-db, 5, 1, 3, 15, 135, 60, 60, 135, 58, 132, 1, 1.45555
69, 3, bw, attraction, a-b-db, 5, 1, 3, 15, 135, 60, 60, 135, 58, 132, 2, 0.23573
69, 3, bw, attraction, a-b-db, 14, 1, 3, 16, 135, 60, 60, 135, 56, 125, 1, 0.760333
69, 3, bw, attraction, a-b-db, 14, 1, 3, 16, 135, 60, 60, 135, 56, 125, 2, 0.248868
69, 3, bw, attraction, a-b-db, 2, 2, 3, 17, 89, 163, 165, 90, 90, 165, 3, 2.17259
69, 3, bw, attraction, a-b-db, 2, 2, 3, 17, 89, 163, 165, 90, 90, 165, 1, 0.684016
69, 3, bw, attraction, a-b-da, 14, 1, 3, 18, 125, 56, 60, 135, 135, 60, 2, 8.43041
69, 3, bw, attraction, a-b-da, 14, 1, 3, 18, 125, 56, 60, 135, 135, 60, 1, 0.881635
69, 3, bw, filler, NA, 999, 999, 3, 19, 97, 95, 153, 87, 93, 83, 2, 2.7639
69, 3, bw, filler, NA, 999, 999, 3, 19, 97, 95, 153, 87, 93, 83, 3, 0.507721
69, 3, bw, filler, NA, 999, 999, 3, 20, 86, 122, 87, 118, 93, 193, 3, 0.69273
69, 3, bw, filler, NA, 999, 999, 3, 20, 86, 122, 87, 118, 93, 193, 2, 0.464033
69, 3, bw, attraction, a-b-db, 9, 1, 3, 21, 135, 60, 60, 135, 57, 129, 2, 2.52307
69, 3, bw, attraction, a-b-db, 9, 1, 3, 21, 135, 60, 60, 135, 57, 129, 3, 0.612203
69, 3, bw, attraction, a-b-db, 14, 2, 3, 22, 90, 165, 165, 90, 83, 153, 1, 1.49731
69, 3, bw, attraction, a-b-db, 14, 2, 3, 22, 90, 165, 165, 90, 83, 153, 3, 0.668191
69, 3, bw, attraction, a-b-da, 14, 2, 3, 23, 153, 83, 165, 90, 90, 165, 2, 1.48736
69, 3, bw, attraction, a-b-da, 14, 2, 3, 23, 153, 83, 165, 90, 90, 165, 3, 0.850815
69, 3, bw, filler, NA, 999, 999, 3, 24, 141, 56, 97, 150, 78, 152, 2, 1.18231
69, 3, bw, filler, NA, 999, 999, 3, 24, 141, 56, 97, 150, 78, 152, 1, 0.51794
69, 3, bw, attraction, a-b-da, 14, 3, 3, 25, 120, 195, 195, 120, 181, 111, 1, 1.48724
69, 3, bw, attraction, a-b-da, 14, 3, 3, 25, 120, 195, 195, 120, 181, 111, 3, 0.482644
69, 3, bw, attraction, a-b-db, 2, 3, 3, 26, 119, 193, 195, 120, 120, 195, 1, 1.61319
69, 3, bw, attraction, a-b-db, 2, 3, 3, 26, 119, 193, 195, 120, 120, 195, 2, 0.94718
69, 3, bw, filler, NA, 999, 999, 3, 27, 110, 85, 95, 188, 130, 91, 2, 0.938976
69, 3, bw, filler, NA, 999, 999, 3, 27, 110, 85, 95, 188, 130, 91, 1, 0.299841
69, 3, bw, catch, NA, 999, 999, 3, 28, 76, 119, 167, 148, 99, 156, 2, 0.557719
69, 3, bw, catch, NA, 999, 999, 3, 28, 76, 119, 167, 148, 99, 156, 1, 0.97416
69, 3, bw, attraction, a-b-da, 2, 1, 3, 29, 135, 60, 134, 59, 60, 135, 1, 2.5326
69, 3, bw, attraction, a-b-da, 2, 1, 3, 29, 135, 60, 134, 59, 60, 135, 2, 0.397683
69, 3, bw, attraction, a-b-db, 2, 1, 3, 30, 135, 60, 59, 134, 60, 135, 3, 1.01141
69, 3, bw, attraction, a-b-db, 2, 1, 3, 30, 135, 60, 59, 134, 60, 135, 2, 0.329855
69, 3, bw, attraction, a-b-da, 2, 3, 3, 31, 195, 120, 120, 195, 193, 119, 2, 2.18643
69, 3, bw, attraction, a-b-da, 2, 3, 3, 31, 195, 120, 120, 195, 193, 119, 3, 0.193634
69, 3, bw, attraction, a-b-db, 14, 3, 3, 32, 111, 181, 120, 195, 195, 120, 2, 0.839505
69, 3, bw, attraction, a-b-db, 14, 3, 3, 32, 111, 181, 120, 195, 195, 120, 1, 0.228601
69, 3, bw, attraction, a-b-da, 2, 2, 3, 33, 165, 90, 90, 165, 163, 89, 2, 0.816991
69, 3, bw, attraction, a-b-da, 2, 2, 3, 33, 165, 90, 90, 165, 163, 89, 3, 0.527508
69, 3, bw, filler, NA, 999, 999, 3, 34, 82, 62, 124, 113, 129, 145, 3, 1.02386
69, 3, bw, filler, NA, 999, 999, 3, 34, 82, 62, 124, 113, 129, 145, 1, 0.541557
69, 3, bw, catch, NA, 999, 999, 3, 35, 119, 76, 90, 165, 174, 141, 3, 0.581283
69, 3, bw, catch, NA, 999, 999, 3, 35, 119, 76, 90, 165, 174, 141, 1, 0.566175
69, 3, bw, attraction, a-b-db, 9, 2, 3, 36, 86, 157, 165, 90, 90, 165, 3, 1.22825
69, 3, bw, attraction, a-b-db, 9, 2, 3, 36, 86, 157, 165, 90, 90, 165, 1, 0.281933
69, 3, bw, attraction, a-b-da, 9, 2, 3, 37, 90, 165, 157, 86, 165, 90, 3, 0.788265
69, 3, bw, attraction, a-b-da, 9, 2, 3, 37, 90, 165, 157, 86, 165, 90, 1, 0.227483
69, 3, bw, attraction, a-b-da, 2, 2, 4, 1, 90, 165, 163, 89, 165, 90, 3, 1.19196
69, 3, bw, attraction, a-b-da, 2, 2, 4, 1, 90, 165, 163, 89, 165, 90, 2, 0.198873
69, 3, bw, attraction, a-b-db, 9, 1, 4, 2, 60, 135, 57, 129, 135, 60, 3, 0.652633
69, 3, bw, attraction, a-b-db, 9, 1, 4, 2, 60, 135, 57, 129, 135, 60, 2, 0.217824
69, 3, bw, filler, NA, 999, 999, 4, 3, 181, 179, 177, 183, 137, 194, 1, 1.59906
69, 3, bw, filler, NA, 999, 999, 4, 3, 181, 179, 177, 183, 137, 194, 3, 0.925921
69, 3, bw, catch, NA, 999, 999, 4, 4, 153, 102, 110, 85, 134, 181, 3, 0.886236
69, 3, bw, catch, NA, 999, 999, 4, 4, 153, 102, 110, 85, 134, 181, 2, 0.505852
69, 3, bw, attraction, a-b-db, 2, 2, 4, 5, 165, 90, 89, 163, 90, 165, 1, 2.51562
69, 3, bw, attraction, a-b-db, 2, 2, 4, 5, 165, 90, 89, 163, 90, 165, 2, 0.645442
69, 3, bw, attraction, a-b-da, 9, 2, 4, 6, 165, 90, 90, 165, 157, 86, 1, 1.41726
69, 3, bw, attraction, a-b-da, 9, 2, 4, 6, 165, 90, 90, 165, 157, 86, 3, 0.743452
69, 3, bw, attraction, a-b-da, 2, 3, 4, 7, 120, 195, 193, 119, 195, 120, 3, 0.927073
69, 3, bw, attraction, a-b-da, 2, 3, 4, 7, 120, 195, 193, 119, 195, 120, 1, 0.600803
69, 3, bw, catch, NA, 999, 999, 4, 8, 184, 131, 94, 101, 123, 132, 1, 1.38252
69, 3, bw, catch, NA, 999, 999, 4, 8, 184, 131, 94, 101, 123, 132, 2, 0.214107
69, 3, bw, filler, NA, 999, 999, 4, 9, 121, 155, 59, 185, 163, 148, 3, 0.891277
69, 3, bw, filler, NA, 999, 999, 4, 9, 121, 155, 59, 185, 163, 148, 2, 0.374365
69, 3, bw, attraction, a-b-da, 14, 2, 4, 10, 153, 83, 90, 165, 165, 90, 2, 0.876775
69, 3, bw, attraction, a-b-da, 14, 2, 4, 10, 153, 83, 90, 165, 165, 90, 1, 0.568539
69, 3, bw, filler, NA, 999, 999, 4, 11, 130, 85, 146, 67, 147, 93, 3, 0.711664
69, 3, bw, filler, NA, 999, 999, 4, 11, 130, 85, 146, 67, 147, 93, 2, 0.474175
69, 3, bw, attraction, a-b-db, 2, 3, 4, 12, 119, 193, 195, 120, 120, 195, 3, 0.620585
69, 3, bw, attraction, a-b-db, 2, 3, 4, 12, 119, 193, 195, 120, 120, 195, 2, 0.819096
69, 3, bw, catch, NA, 999, 999, 4, 13, 70, 125, 133, 122, 194, 121, 3, 0.792144
69, 3, bw, catch, NA, 999, 999, 4, 13, 70, 125, 133, 122, 194, 121, 1, 0.319133
69, 3, bw, attraction, a-b-da, 9, 3, 4, 14, 120, 195, 186, 114, 195, 120, 3, 1.11232
69, 3, bw, attraction, a-b-da, 9, 3, 4, 14, 120, 195, 186, 114, 195, 120, 1, 0.346563
69, 3, bw, attraction, a-b-db, 2, 1, 4, 15, 59, 134, 135, 60, 60, 135, 3, 2.14631
69, 3, bw, attraction, a-b-db, 2, 1, 4, 15, 59, 134, 135, 60, 60, 135, 1, 0.419031
69, 3, bw, attraction, a-b-da, 5, 2, 4, 16, 90, 165, 165, 90, 161, 88, 1, 2.04809
69, 3, bw, attraction, a-b-da, 5, 2, 4, 16, 90, 165, 165, 90, 161, 88, 2, 0.604724
69, 3, bw, filler, NA, 999, 999, 4, 17, 110, 90, 108, 167, 177, 187, 3, 0.610662
69, 3, bw, filler, NA, 999, 999, 4, 17, 110, 90, 108, 167, 177, 187, 1, 0.433105
69, 3, bw, attraction, a-b-db, 14, 2, 4, 18, 90, 165, 165, 90, 83, 153, 1, 0.949481
69, 3, bw, attraction, a-b-db, 14, 2, 4, 18, 90, 165, 165, 90, 83, 153, 3, 0.99852
69, 3, bw, attraction, a-b-db, 5, 1, 4, 19, 135, 60, 58, 132, 60, 135, 3, 1.25215
69, 3, bw, attraction, a-b-db, 5, 1, 4, 19, 135, 60, 58, 132, 60, 135, 2, 0.304992
69, 3, bw, filler, NA, 999, 999, 4, 20, 73, 190, 140, 100, 118, 143, 3, 0.594863
69, 3, bw, filler, NA, 999, 999, 4, 20, 73, 190, 140, 100, 118, 143, 2, 0.625996
69, 3, bw, attraction, a-b-da, 14, 1, 4, 21, 125, 56, 60, 135, 135, 60, 2, 1.0704
69, 3, bw, attraction, a-b-da, 14, 1, 4, 21, 125, 56, 60, 135, 135, 60, 1, 0.586717
69, 3, bw, filler, NA, 999, 999, 4, 22, 153, 58, 190, 119, 151, 108, 2, 1.34514
69, 3, bw, filler, NA, 999, 999, 4, 22, 153, 58, 190, 119, 151, 108, 1, 0.545996
69, 3, bw, attraction, a-b-db, 5, 2, 4, 23, 165, 90, 90, 165, 88, 161, 2, 2.06576
69, 3, bw, attraction, a-b-db, 5, 2, 4, 23, 165, 90, 90, 165, 88, 161, 1, 0.325853
69, 3, bw, filler, NA, 999, 999, 4, 24, 79, 123, 129, 182, 87, 117, 2, 0.598225
69, 3, bw, filler, NA, 999, 999, 4, 24, 79, 123, 129, 182, 87, 117, 1, 0.477397
69, 3, bw, attraction, a-b-db, 9, 3, 4, 25, 195, 120, 120, 195, 114, 186, 2, 1.82393
69, 3, bw, attraction, a-b-db, 9, 3, 4, 25, 195, 120, 120, 195, 114, 186, 3, 0.197276
69, 3, bw, attraction, a-b-da, 2, 1, 4, 26, 135, 60, 60, 135, 134, 59, 1, 2.05122
69, 3, bw, attraction, a-b-da, 2, 1, 4, 26, 135, 60, 60, 135, 134, 59, 2, 0.207806
69, 3, bw, filler, NA, 999, 999, 4, 27, 89, 84, 195, 177, 155, 116, 2, 0.757006
69, 3, bw, filler, NA, 999, 999, 4, 27, 89, 84, 195, 177, 155, 116, 1, 0.493392
69, 3, bw, attraction, a-b-db, 9, 2, 4, 28, 90, 165, 86, 157, 165, 90, 3, 2.07142
69, 3, bw, attraction, a-b-db, 9, 2, 4, 28, 90, 165, 86, 157, 165, 90, 1, 0.330783
69, 3, bw, filler, NA, 999, 999, 4, 29, 120, 111, 172, 188, 127, 79, 2, 0.787174
69, 3, bw, filler, NA, 999, 999, 4, 29, 120, 111, 172, 188, 127, 79, 3, 0.314734
69, 3, bw, attraction, a-b-da, 14, 3, 4, 30, 195, 120, 120, 195, 181, 111, 2, 0.691935
69, 3, bw, attraction, a-b-da, 14, 3, 4, 30, 195, 120, 120, 195, 181, 111, 3, 0.57511
69, 3, bw, attraction, a-b-db, 5, 3, 4, 31, 117, 190, 120, 195, 195, 120, 1, 3.74942
69, 3, bw, attraction, a-b-db, 5, 3, 4, 31, 117, 190, 120, 195, 195, 120, 2, 0.293559
69, 3, bw, attraction, a-b-da, 5, 3, 4, 32, 195, 120, 190, 117, 120, 195, 3, 1.08748
69, 3, bw, attraction, a-b-da, 5, 3, 4, 32, 195, 120, 190, 117, 120, 195, 2, 0.58711
69, 3, bw, attraction, a-b-da, 5, 1, 4, 33, 60, 135, 135, 60, 132, 58, 1, 0.857472
69, 3, bw, attraction, a-b-da, 5, 1, 4, 33, 60, 135, 135, 60, 132, 58, 2, 0.269981
69, 3, bw, attraction, a-b-da, 9, 1, 4, 34, 129, 57, 135, 60, 60, 135, 3, 0.67317
69, 3, bw, attraction, a-b-da, 9, 1, 4, 34, 129, 57, 135, 60, 60, 135, 2, 0.228842
69, 3, bw, attraction, a-b-db, 14, 1, 4, 35, 56, 125, 135, 60, 60, 135, 2, 0.729418
69, 3, bw, attraction, a-b-db, 14, 1, 4, 35, 56, 125, 135, 60, 60, 135, 1, 0.227036
69, 3, bw, filler, NA, 999, 999, 4, 36, 78, 160, 92, 123, 178, 106, 3, 0.887738
69, 3, bw, filler, NA, 999, 999, 4, 36, 78, 160, 92, 123, 178, 106, 2, 0.707348
69, 3, bw, attraction, a-b-db, 14, 3, 4, 37, 120, 195, 111, 181, 195, 120, 3, 1.75638
69, 3, bw, attraction, a-b-db, 14, 3, 4, 37, 120, 195, 111, 181, 195, 120, 2, 0.380468
69, 3, bw, filler, NA, 999, 999, 5, 1, 72, 124, 86, 82, 146, 125, 3, 2.6416
69, 3, bw, filler, NA, 999, 999, 5, 1, 72, 124, 86, 82, 146, 125, 2, 0.566233
69, 3, bw, catch, NA, 999, 999, 5, 2, 172, 143, 67, 128, 163, 92, 1, 1.61323
69, 3, bw, catch, NA, 999, 999, 5, 2, 172, 143, 67, 128, 163, 92, 2, 0.555308
69, 3, bw, attraction, a-b-db, 2, 2, 5, 3, 89, 163, 165, 90, 90, 165, 3, 4.42711
69, 3, bw, attraction, a-b-db, 2, 2, 5, 3, 89, 163, 165, 90, 90, 165, 1, 0.487736
69, 3, bw, attraction, a-b-db, 14, 1, 5, 4, 60, 135, 135, 60, 56, 125, 2, 2.72231
69, 3, bw, attraction, a-b-db, 14, 1, 5, 4, 60, 135, 135, 60, 56, 125, 3, 0.37935
69, 3, bw, filler, NA, 999, 999, 5, 5, 70, 128, 86, 86, 172, 115, 3, 1.13776
69, 3, bw, filler, NA, 999, 999, 5, 5, 70, 128, 86, 86, 172, 115, 2, 0.530847
69, 3, bw, attraction, a-b-da, 9, 3, 5, 6, 186, 114, 195, 120, 120, 195, 2, 1.72317
69, 3, bw, attraction, a-b-da, 9, 3, 5, 6, 186, 114, 195, 120, 120, 195, 1, 2.50064
69, 3, bw, attraction, a-b-da, 2, 1, 5, 7, 60, 135, 134, 59, 135, 60, 3, 2.90973
69, 3, bw, attraction, a-b-da, 2, 1, 5, 7, 60, 135, 134, 59, 135, 60, 2, 0.40752
69, 3, bw, filler, NA, 999, 999, 5, 8, 138, 82, 71, 75, 154, 145, 3, 0.804612
69, 3, bw, filler, NA, 999, 999, 5, 8, 138, 82, 71, 75, 154, 145, 2, 0.371042
69, 3, bw, filler, NA, 999, 999, 5, 9, 145, 187, 168, 152, 181, 171, 3, 2.04207
69, 3, bw, filler, NA, 999, 999, 5, 9, 145, 187, 168, 152, 181, 171, 1, 0.470808
69, 3, bw, filler, NA, 999, 999, 5, 10, 71, 189, 116, 128, 144, 63, 2, 0.785912
69, 3, bw, filler, NA, 999, 999, 5, 10, 71, 189, 116, 128, 144, 63, 3, 0.769712
69, 3, bw, attraction, a-b-db, 9, 1, 5, 11, 135, 60, 60, 135, 57, 129, 1, 1.69676
69, 3, bw, attraction, a-b-db, 9, 1, 5, 11, 135, 60, 60, 135, 57, 129, 3, 0.547581
69, 3, bw, attraction, a-b-da, 14, 2, 5, 12, 90, 165, 153, 83, 165, 90, 1, 3.09122
69, 3, bw, attraction, a-b-da, 14, 2, 5, 12, 90, 165, 153, 83, 165, 90, 2, 0.453622
69, 3, bw, filler, NA, 999, 999, 5, 13, 151, 191, 191, 62, 107, 60, 1, 0.721476
69, 3, bw, filler, NA, 999, 999, 5, 13, 151, 191, 191, 62, 107, 60, 3, 0.403097
69, 3, bw, attraction, a-b-db, 9, 2, 5, 14, 165, 90, 90, 165, 86, 157, 2, 3.22493
69, 3, bw, attraction, a-b-db, 9, 2, 5, 14, 165, 90, 90, 165, 86, 157, 3, 0.61394
69, 3, bw, filler, NA, 999, 999, 5, 15, 150, 141, 185, 117, 150, 190, 3, 1.06706
69, 3, bw, filler, NA, 999, 999, 5, 15, 150, 141, 185, 117, 150, 190, 2, 0.935397
69, 3, bw, attraction, a-b-db, 2, 1, 5, 16, 135, 60, 59, 134, 60, 135, 1, 2.95177
69, 3, bw, attraction, a-b-db, 2, 1, 5, 16, 135, 60, 59, 134, 60, 135, 2, 0.511988
69, 3, bw, catch, NA, 999, 999, 5, 17, 145, 110, 146, 169, 86, 109, 2, 1.02513
69, 3, bw, catch, NA, 999, 999, 5, 17, 145, 110, 146, 169, 86, 109, 3, 0.48676
69, 3, bw, attraction, a-b-da, 5, 1, 5, 18, 132, 58, 60, 135, 135, 60, 1, 2.09721
69, 3, bw, attraction, a-b-da, 5, 1, 5, 18, 132, 58, 60, 135, 135, 60, 2, 0.65194
69, 3, bw, attraction, a-b-db, 5, 1, 5, 19, 60, 135, 58, 132, 135, 60, 3, 1.57566
69, 3, bw, attraction, a-b-db, 5, 1, 5, 19, 60, 135, 58, 132, 135, 60, 2, 0.615235
69, 3, bw, attraction, a-b-da, 2, 2, 5, 20, 165, 90, 163, 89, 90, 165, 2, 0.748344
69, 3, bw, attraction, a-b-da, 2, 2, 5, 20, 165, 90, 163, 89, 90, 165, 3, 0.50131
69, 3, bw, attraction, a-b-db, 5, 3, 5, 21, 120, 195, 117, 190, 195, 120, 3, 1.05509
69, 3, bw, attraction, a-b-db, 5, 3, 5, 21, 120, 195, 117, 190, 195, 120, 2, 0.707377
69, 3, bw, attraction, a-b-da, 2, 3, 5, 22, 193, 119, 120, 195, 195, 120, 3, 4.18058
69, 3, bw, attraction, a-b-da, 2, 3, 5, 22, 193, 119, 120, 195, 195, 120, 2, 0.707066
69, 3, bw, attraction, a-b-da, 14, 3, 5, 23, 120, 195, 181, 111, 195, 120, 3, 0.65213
69, 3, bw, attraction, a-b-da, 14, 3, 5, 23, 120, 195, 181, 111, 195, 120, 1, 0.665357
69, 3, bw, attraction, a-b-da, 9, 1, 5, 24, 135, 60, 129, 57, 60, 135, 1, 1.4443
69, 3, bw, attraction, a-b-da, 9, 1, 5, 24, 135, 60, 129, 57, 60, 135, 2, 0.489158
69, 3, bw, attraction, a-b-db, 14, 2, 5, 25, 165, 90, 90, 165, 83, 153, 2, 1.50762
69, 3, bw, attraction, a-b-db, 14, 2, 5, 25, 165, 90, 90, 165, 83, 153, 3, 0.669806
69, 3, bw, filler, NA, 999, 999, 5, 26, 175, 139, 184, 97, 175, 172, 3, 0.760835
69, 3, bw, filler, NA, 999, 999, 5, 26, 175, 139, 184, 97, 175, 172, 2, 0.321393
69, 3, bw, filler, NA, 999, 999, 5, 27, 95, 189, 103, 85, 190, 170, 3, 0.722429
69, 3, bw, filler, NA, 999, 999, 5, 27, 95, 189, 103, 85, 190, 170, 2, 0.30821
69, 3, bw, filler, NA, 999, 999, 5, 28, 83, 102, 171, 176, 127, 194, 2, 0.64538
69, 3, bw, filler, NA, 999, 999, 5, 28, 83, 102, 171, 176, 127, 194, 1, 0.298445
69, 3, bw, attraction, a-b-da, 9, 2, 5, 29, 157, 86, 90, 165, 165, 90, 2, 1.14829
69, 3, bw, attraction, a-b-da, 9, 2, 5, 29, 157, 86, 90, 165, 165, 90, 1, 0.389266
69, 3, bw, attraction, a-b-da, 5, 2, 5, 30, 161, 88, 165, 90, 90, 165, 3, 0.635765
69, 3, bw, attraction, a-b-da, 5, 2, 5, 30, 161, 88, 165, 90, 90, 165, 2, 0.537537
69, 3, bw, attraction, a-b-db, 14, 3, 5, 31, 120, 195, 195, 120, 111, 181, 3, 0.890001
69, 3, bw, attraction, a-b-db, 14, 3, 5, 31, 120, 195, 195, 120, 111, 181, 2, 1.101
69, 3, bw, attraction, a-b-db, 5, 2, 5, 32, 88, 161, 90, 165, 165, 90, 2, 0.91066
69, 3, bw, attraction, a-b-db, 5, 2, 5, 32, 88, 161, 90, 165, 165, 90, 1, 0.280977
69, 3, bw, attraction, a-b-da, 14, 1, 5, 33, 135, 60, 125, 56, 60, 135, 1, 0.971616
69, 3, bw, attraction, a-b-da, 14, 1, 5, 33, 135, 60, 125, 56, 60, 135, 2, 0.243056
69, 3, bw, catch, NA, 999, 999, 5, 34, 177, 138, 109, 86, 153, 102, 1, 0.983063
69, 3, bw, catch, NA, 999, 999, 5, 34, 177, 138, 109, 86, 153, 102, 2, 0.590668
69, 3, bw, attraction, a-b-da, 5, 3, 5, 35, 120, 195, 190, 117, 195, 120, 2, 0.956538
69, 3, bw, attraction, a-b-da, 5, 3, 5, 35, 120, 195, 190, 117, 195, 120, 1, 1.75673
69, 3, bw, attraction, a-b-db, 2, 3, 5, 36, 119, 193, 195, 120, 120, 195, 1, 2.82807
69, 3, bw, attraction, a-b-db, 2, 3, 5, 36, 119, 193, 195, 120, 120, 195, 2, 0.561258
69, 3, bw, attraction, a-b-db, 9, 3, 5, 37, 120, 195, 114, 186, 195, 120, 2, 1.72832
69, 3, bw, attraction, a-b-db, 9, 3, 5, 37, 120, 195, 114, 186, 195, 120, 1, 0.84983
69, 3, bw, attraction, a-b-db, 2, 1, 6, 1, 60, 135, 135, 60, 59, 134, 2, 1.98954
69, 3, bw, attraction, a-b-db, 2, 1, 6, 1, 60, 135, 135, 60, 59, 134, 3, 0.276131
69, 3, bw, attraction, a-b-da, 2, 1, 6, 2, 135, 60, 60, 135, 134, 59, 1, 1.23073
69, 3, bw, attraction, a-b-da, 2, 1, 6, 2, 135, 60, 60, 135, 134, 59, 3, 0.388237
69, 3, bw, attraction, a-b-da, 5, 1, 6, 3, 60, 135, 132, 58, 135, 60, 2, 1.91476
69, 3, bw, attraction, a-b-da, 5, 1, 6, 3, 60, 135, 132, 58, 135, 60, 3, 0.492835
69, 3, bw, filler, NA, 999, 999, 6, 4, 71, 69, 67, 131, 114, 108, 3, 0.790602
69, 3, bw, filler, NA, 999, 999, 6, 4, 71, 69, 67, 131, 114, 108, 1, 0.733787
69, 3, bw, attraction, a-b-da, 9, 3, 6, 5, 186, 114, 120, 195, 195, 120, 2, 1.71805
69, 3, bw, attraction, a-b-da, 9, 3, 6, 5, 186, 114, 120, 195, 195, 120, 1, 0.256101
69, 3, bw, attraction, a-b-da, 5, 3, 6, 6, 120, 195, 190, 117, 195, 120, 3, 0.892064
69, 3, bw, attraction, a-b-da, 5, 3, 6, 6, 120, 195, 190, 117, 195, 120, 1, 0.358918
69, 3, bw, attraction, a-b-da, 14, 1, 6, 7, 60, 135, 135, 60, 125, 56, 3, 1.60616
69, 3, bw, attraction, a-b-da, 14, 1, 6, 7, 60, 135, 135, 60, 125, 56, 1, 0.420247
69, 3, bw, catch, NA, 999, 999, 6, 8, 153, 102, 96, 99, 165, 150, 3, 0.713382
69, 3, bw, catch, NA, 999, 999, 6, 8, 153, 102, 96, 99, 165, 150, 2, 0.371862
69, 3, bw, filler, NA, 999, 999, 6, 9, 155, 106, 176, 68, 103, 170, 1, 1.81104
69, 3, bw, filler, NA, 999, 999, 6, 9, 155, 106, 176, 68, 103, 170, 3, 0.297015
69, 3, bw, attraction, a-b-da, 5, 2, 6, 10, 90, 165, 161, 88, 165, 90, 1, 3.50695
69, 3, bw, attraction, a-b-da, 5, 2, 6, 10, 90, 165, 161, 88, 165, 90, 2, 0.292548
69, 3, bw, filler, NA, 999, 999, 6, 11, 154, 73, 72, 189, 81, 91, 2, 1.43829
69, 3, bw, filler, NA, 999, 999, 6, 11, 154, 73, 72, 189, 81, 91, 3, 0.499801
69, 3, bw, attraction, a-b-da, 9, 1, 6, 12, 135, 60, 60, 135, 129, 57, 2, 1.41368
69, 3, bw, attraction, a-b-da, 9, 1, 6, 12, 135, 60, 60, 135, 129, 57, 3, 0.339969
69, 3, bw, attraction, a-b-da, 14, 2, 6, 13, 153, 83, 165, 90, 90, 165, 2, 1.82768
69, 3, bw, attraction, a-b-da, 14, 2, 6, 13, 153, 83, 165, 90, 90, 165, 1, 0.537089
69, 3, bw, attraction, a-b-db, 9, 2, 6, 14, 165, 90, 86, 157, 90, 165, 2, 1.12162
69, 3, bw, attraction, a-b-db, 9, 2, 6, 14, 165, 90, 86, 157, 90, 165, 3, 0.363153
69, 3, bw, attraction, a-b-da, 9, 2, 6, 15, 157, 86, 90, 165, 165, 90, 2, 0.546355
69, 3, bw, attraction, a-b-da, 9, 2, 6, 15, 157, 86, 90, 165, 165, 90, 1, 0.387577
69, 3, bw, filler, NA, 999, 999, 6, 16, 109, 129, 134, 176, 164, 132, 2, 0.777835
69, 3, bw, filler, NA, 999, 999, 6, 16, 109, 129, 134, 176, 164, 132, 1, 0.281563
69, 3, bw, attraction, a-b-da, 14, 3, 6, 17, 120, 195, 181, 111, 195, 120, 3, 1.16425
69, 3, bw, attraction, a-b-da, 14, 3, 6, 17, 120, 195, 181, 111, 195, 120, 1, 1.05247
69, 3, bw, attraction, a-b-db, 14, 1, 6, 18, 135, 60, 60, 135, 56, 125, 2, 1.0001
69, 3, bw, attraction, a-b-db, 14, 1, 6, 18, 135, 60, 60, 135, 56, 125, 3, 0.567057
69, 3, bw, attraction, a-b-db, 5, 2, 6, 19, 165, 90, 88, 161, 90, 165, 1, 3.05426
69, 3, bw, attraction, a-b-db, 5, 2, 6, 19, 165, 90, 88, 161, 90, 165, 2, 0.682523
69, 3, bw, attraction, a-b-db, 2, 2, 6, 20, 90, 165, 165, 90, 89, 163, 3, 5.47692
69, 3, bw, attraction, a-b-db, 2, 2, 6, 20, 90, 165, 165, 90, 89, 163, 2, 0.183199
69, 3, bw, filler, NA, 999, 999, 6, 21, 89, 146, 179, 85, 134, 128, 2, 1.5497
69, 3, bw, filler, NA, 999, 999, 6, 21, 89, 146, 179, 85, 134, 128, 1, 0.694553
69, 3, bw, filler, NA, 999, 999, 6, 22, 70, 58, 132, 125, 113, 83, 2, 0.936304
69, 3, bw, filler, NA, 999, 999, 6, 22, 70, 58, 132, 125, 113, 83, 1, 0.3299
69, 3, bw, attraction, a-b-db, 9, 1, 6, 23, 135, 60, 60, 135, 57, 129, 1, 4.23456
69, 3, bw, attraction, a-b-db, 9, 1, 6, 23, 135, 60, 60, 135, 57, 129, 2, 0.599119
69, 3, bw, attraction, a-b-db, 5, 1, 6, 24, 58, 132, 60, 135, 135, 60, 3, 2.47681
69, 3, bw, attraction, a-b-db, 5, 1, 6, 24, 58, 132, 60, 135, 135, 60, 1, 0.463985
69, 3, bw, attraction, a-b-db, 5, 3, 6, 25, 117, 190, 195, 120, 120, 195, 2, 4.03519
69, 3, bw, attraction, a-b-db, 5, 3, 6, 25, 117, 190, 195, 120, 120, 195, 3, 0.768077
69, 3, bw, attraction, a-b-db, 9, 3, 6, 26, 114, 186, 195, 120, 120, 195, 2, 1.68698
69, 3, bw, attraction, a-b-db, 9, 3, 6, 26, 114, 186, 195, 120, 120, 195, 1, 0.986522
69, 3, bw, attraction, a-b-da, 2, 2, 6, 27, 165, 90, 90, 165, 163, 89, 2, 3.12875
69, 3, bw, attraction, a-b-da, 2, 2, 6, 27, 165, 90, 90, 165, 163, 89, 3, 0.329751
69, 3, bw, filler, NA, 999, 999, 6, 28, 70, 168, 107, 143, 93, 179, 2, 3.13818
69, 3, bw, filler, NA, 999, 999, 6, 28, 70, 168, 107, 143, 93, 179, 1, 0.266516
69, 3, bw, filler, NA, 999, 999, 6, 29, 173, 171, 120, 190, 169, 61, 1, 0.77365
69, 3, bw, filler, NA, 999, 999, 6, 29, 173, 171, 120, 190, 169, 61, 3, 0.541485
69, 3, bw, attraction, a-b-db, 14, 2, 6, 30, 83, 153, 90, 165, 165, 90, 3, 1.93332
69, 3, bw, attraction, a-b-db, 14, 2, 6, 30, 83, 153, 90, 165, 165, 90, 1, 0.318633
69, 3, bw, filler, NA, 999, 999, 6, 31, 76, 166, 171, 56, 137, 132, 3, 1.77588
69, 3, bw, filler, NA, 999, 999, 6, 31, 76, 166, 171, 56, 137, 132, 1, 0.887262
69, 3, bw, attraction, a-b-db, 2, 3, 6, 32, 195, 120, 119, 193, 120, 195, 1, 2.92944
69, 3, bw, attraction, a-b-db, 2, 3, 6, 32, 195, 120, 119, 193, 120, 195, 2, 0.610519
69, 3, bw, attraction, a-b-da, 2, 3, 6, 33, 120, 195, 195, 120, 193, 119, 2, 1.46364
69, 3, bw, attraction, a-b-da, 2, 3, 6, 33, 120, 195, 195, 120, 193, 119, 1, 0.603923
69, 3, bw, catch, NA, 999, 999, 6, 34, 132, 183, 120, 75, 126, 129, 1, 1.48169
69, 3, bw, catch, NA, 999, 999, 6, 34, 132, 183, 120, 75, 126, 129, 2, 0.333088
69, 3, bw, filler, NA, 999, 999, 6, 35, 132, 113, 173, 188, 169, 90, 2, 1.17362
69, 3, bw, filler, NA, 999, 999, 6, 35, 132, 113, 173, 188, 169, 90, 1, 0.357225
69, 3, bw, attraction, a-b-db, 14, 3, 6, 36, 195, 120, 120, 195, 111, 181, 2, 1.91631
69, 3, bw, attraction, a-b-db, 14, 3, 6, 36, 195, 120, 120, 195, 111, 181, 3, 1.31845
69, 3, bw, catch, NA, 999, 999, 6, 37, 135, 120, 173, 142, 91, 104, 2, 0.703198
69, 3, bw, catch, NA, 999, 999, 6, 37, 135, 120, 173, 142, 91, 104, 3, 0.298403
69, 3, bw, attraction, a-b-db, 2, 2, 7, 1, 165, 90, 89, 163, 90, 165, 3, 2.07614
69, 3, bw, attraction, a-b-db, 2, 2, 7, 1, 165, 90, 89, 163, 90, 165, 2, 0.295605
69, 3, bw, attraction, a-b-db, 14, 1, 7, 2, 56, 125, 60, 135, 135, 60, 3, 1.64936
69, 3, bw, attraction, a-b-db, 14, 1, 7, 2, 56, 125, 60, 135, 135, 60, 1, 0.430152
69, 3, bw, attraction, a-b-da, 5, 2, 7, 3, 161, 88, 165, 90, 90, 165, 3, 1.30673
69, 3, bw, attraction, a-b-da, 5, 2, 7, 3, 161, 88, 165, 90, 90, 165, 2, 0.236825
69, 3, bw, attraction, a-b-da, 2, 2, 7, 4, 163, 89, 165, 90, 90, 165, 2, 1.56955
69, 3, bw, attraction, a-b-da, 2, 2, 7, 4, 163, 89, 165, 90, 90, 165, 3, 0.249586
69, 3, bw, filler, NA, 999, 999, 7, 5, 117, 98, 179, 85, 160, 61, 2, 1.93345
69, 3, bw, filler, NA, 999, 999, 7, 5, 117, 98, 179, 85, 160, 61, 3, 0.401644
69, 3, bw, attraction, a-b-da, 2, 3, 7, 6, 193, 119, 120, 195, 195, 120, 3, 0.844602
69, 3, bw, attraction, a-b-da, 2, 3, 7, 6, 193, 119, 120, 195, 195, 120, 1, 0.697657
69, 3, bw, attraction, a-b-db, 14, 2, 7, 7, 90, 165, 83, 153, 165, 90, 3, 2.79548
69, 3, bw, attraction, a-b-db, 14, 2, 7, 7, 90, 165, 83, 153, 165, 90, 2, 0.313817
69, 3, bw, catch, NA, 999, 999, 7, 8, 81, 114, 165, 90, 176, 139, 3, 0.603032
69, 3, bw, catch, NA, 999, 999, 7, 8, 81, 114, 165, 90, 176, 139, 1, 0.450191
69, 3, bw, attraction, a-b-db, 2, 3, 7, 9, 119, 193, 120, 195, 195, 120, 2, 0.63793
69, 3, bw, attraction, a-b-db, 2, 3, 7, 9, 119, 193, 120, 195, 195, 120, 1, 0.403576
69, 3, bw, attraction, a-b-da, 9, 2, 7, 10, 157, 86, 90, 165, 165, 90, 2, 0.86566
69, 3, bw, attraction, a-b-da, 9, 2, 7, 10, 157, 86, 90, 165, 165, 90, 1, 0.557776
69, 3, bw, attraction, a-b-db, 5, 1, 7, 11, 58, 132, 60, 135, 135, 60, 2, 0.557049
69, 3, bw, attraction, a-b-db, 5, 1, 7, 11, 58, 132, 60, 135, 135, 60, 3, 0.581484
69, 3, bw, filler, NA, 999, 999, 7, 12, 111, 174, 174, 68, 186, 155, 3, 0.555966
69, 3, bw, filler, NA, 999, 999, 7, 12, 111, 174, 174, 68, 186, 155, 2, 0.836297
69, 3, bw, attraction, a-b-da, 5, 1, 7, 13, 60, 135, 132, 58, 135, 60, 3, 1.06462
69, 3, bw, attraction, a-b-da, 5, 1, 7, 13, 60, 135, 132, 58, 135, 60, 2, 0.285108
69, 3, bw, attraction, a-b-da, 9, 1, 7, 14, 129, 57, 135, 60, 60, 135, 2, 2.26353
69, 3, bw, attraction, a-b-da, 9, 1, 7, 14, 129, 57, 135, 60, 60, 135, 3, 0.53146
69, 3, bw, filler, NA, 999, 999, 7, 15, 182, 62, 193, 191, 97, 92, 2, 1.04392
69, 3, bw, filler, NA, 999, 999, 7, 15, 182, 62, 193, 191, 97, 92, 3, 0.856796
69, 3, bw, catch, NA, 999, 999, 7, 16, 126, 129, 80, 115, 151, 164, 3, 1.00387
69, 3, bw, catch, NA, 999, 999, 7, 16, 126, 129, 80, 115, 151, 164, 2, 0.355014
69, 3, bw, catch, NA, 999, 999, 7, 17, 113, 142, 126, 189, 78, 117, 2, 1.15465
69, 3, bw, catch, NA, 999, 999, 7, 17, 113, 142, 126, 189, 78, 117, 3, 0.219738
69, 3, bw, filler, NA, 999, 999, 7, 18, 74, 108, 129, 144, 67, 185, 2, 0.688928
69, 3, bw, filler, NA, 999, 999, 7, 18, 74, 108, 129, 144, 67, 185, 1, 0.195851
69, 3, bw, attraction, a-b-db, 9, 3, 7, 19, 120, 195, 114, 186, 195, 120, 3, 2.24985
69, 3, bw, attraction, a-b-db, 9, 3, 7, 19, 120, 195, 114, 186, 195, 120, 2, 0.478491
69, 3, bw, attraction, a-b-da, 14, 3, 7, 20, 181, 111, 195, 120, 120, 195, 2, 4.39287
69, 3, bw, attraction, a-b-da, 14, 3, 7, 20, 181, 111, 195, 120, 120, 195, 1, 0.310828
69, 3, bw, filler, NA, 999, 999, 7, 21, 85, 85, 145, 121, 115, 182, 3, 1.50412
69, 3, bw, filler, NA, 999, 999, 7, 21, 85, 85, 145, 121, 115, 182, 1, 0.474804
69, 3, bw, filler, NA, 999, 999, 7, 22, 178, 170, 110, 173, 76, 109, 1, 0.717214
69, 3, bw, filler, NA, 999, 999, 7, 22, 178, 170, 110, 173, 76, 109, 3, 0.51971
69, 3, bw, filler, NA, 999, 999, 7, 23, 194, 78, 71, 174, 57, 118, 1, 1.1928
69, 3, bw, filler, NA, 999, 999, 7, 23, 194, 78, 71, 174, 57, 118, 3, 0.463769
69, 3, bw, attraction, a-b-da, 5, 3, 7, 24, 195, 120, 190, 117, 120, 195, 1, 1.74682
69, 3, bw, attraction, a-b-da, 5, 3, 7, 24, 195, 120, 190, 117, 120, 195, 2, 0.275699
69, 3, bw, attraction, a-b-da, 14, 1, 7, 25, 60, 135, 135, 60, 125, 56, 1, 2.13424
69, 3, bw, attraction, a-b-da, 14, 1, 7, 25, 60, 135, 135, 60, 125, 56, 2, 0.407512
69, 3, bw, attraction, a-b-db, 5, 2, 7, 26, 88, 161, 90, 165, 165, 90, 2, 0.732567
69, 3, bw, attraction, a-b-db, 5, 2, 7, 26, 88, 161, 90, 165, 165, 90, 1, 0.4384
69, 3, bw, attraction, a-b-da, 2, 1, 7, 27, 134, 59, 60, 135, 135, 60, 3, 2.01876
69, 3, bw, attraction, a-b-da, 2, 1, 7, 27, 134, 59, 60, 135, 135, 60, 2, 0.264864
69, 3, bw, attraction, a-b-da, 9, 3, 7, 28, 186, 114, 195, 120, 120, 195, 3, 1.85211
69, 3, bw, attraction, a-b-da, 9, 3, 7, 28, 186, 114, 195, 120, 120, 195, 2, 0.400775
69, 3, bw, filler, NA, 999, 999, 7, 29, 120, 149, 109, 117, 142, 147, 3, 0.982666
69, 3, bw, filler, NA, 999, 999, 7, 29, 120, 149, 109, 117, 142, 147, 2, 0.278302
69, 3, bw, attraction, a-b-db, 9, 1, 7, 30, 60, 135, 135, 60, 57, 129, 1, 0.952781
69, 3, bw, attraction, a-b-db, 9, 1, 7, 30, 60, 135, 135, 60, 57, 129, 2, 0.553738
69, 3, bw, filler, NA, 999, 999, 7, 31, 88, 93, 94, 75, 85, 126, 3, 1.24956
69, 3, bw, filler, NA, 999, 999, 7, 31, 88, 93, 94, 75, 85, 126, 1, 1.0944
69, 3, bw, attraction, a-b-db, 2, 1, 7, 32, 60, 135, 59, 134, 135, 60, 1, 2.19197
69, 3, bw, attraction, a-b-db, 2, 1, 7, 32, 60, 135, 59, 134, 135, 60, 3, 0.494628
69, 3, bw, attraction, a-b-db, 14, 3, 7, 33, 195, 120, 111, 181, 120, 195, 1, 1.8164
69, 3, bw, attraction, a-b-db, 14, 3, 7, 33, 195, 120, 111, 181, 120, 195, 2, 0.246519
69, 3, bw, attraction, a-b-da, 14, 2, 7, 34, 165, 90, 90, 165, 153, 83, 2, 0.890345
69, 3, bw, attraction, a-b-da, 14, 2, 7, 34, 165, 90, 90, 165, 153, 83, 3, 0.253558
69, 3, bw, attraction, a-b-db, 5, 3, 7, 35, 117, 190, 120, 195, 195, 120, 3, 1.36144
69, 3, bw, attraction, a-b-db, 5, 3, 7, 35, 117, 190, 120, 195, 195, 120, 2, 0.249629
69, 3, bw, attraction, a-b-db, 9, 2, 7, 36, 165, 90, 90, 165, 86, 157, 1, 2.5494
69, 3, bw, attraction, a-b-db, 9, 2, 7, 36, 165, 90, 90, 165, 86, 157, 3, 0.229853
69, 3, bw, filler, NA, 999, 999, 7, 37, 131, 77, 64, 116, 75, 160, 3, 2.05855
69, 3, bw, filler, NA, 999, 999, 7, 37, 131, 77, 64, 116, 75, 160, 2, 0.462366
69, 3, bw, attraction, a-b-da, 9, 3, 8, 1, 120, 195, 186, 114, 195, 120, 3, 1.48945
69, 3, bw, attraction, a-b-da, 9, 3, 8, 1, 120, 195, 186, 114, 195, 120, 1, 1.06036
69, 3, bw, attraction, a-b-da, 2, 2, 8, 2, 163, 89, 165, 90, 90, 165, 1, 1.47933
69, 3, bw, attraction, a-b-da, 2, 2, 8, 2, 163, 89, 165, 90, 90, 165, 2, 0.346891
69, 3, bw, attraction, a-b-db, 14, 2, 8, 3, 90, 165, 83, 153, 165, 90, 3, 0.954648
69, 3, bw, attraction, a-b-db, 14, 2, 8, 3, 90, 165, 83, 153, 165, 90, 2, 0.547633
69, 3, bw, filler, NA, 999, 999, 8, 4, 194, 106, 143, 62, 168, 109, 1, 1.57962
69, 3, bw, filler, NA, 999, 999, 8, 4, 194, 106, 143, 62, 168, 109, 2, 0.267051
69, 3, bw, attraction, a-b-db, 5, 3, 8, 5, 117, 190, 120, 195, 195, 120, 3, 1.0701
69, 3, bw, attraction, a-b-db, 5, 3, 8, 5, 117, 190, 120, 195, 195, 120, 1, 1.22646
69, 3, bw, attraction, a-b-db, 9, 3, 8, 6, 120, 195, 114, 186, 195, 120, 3, 0.958642
69, 3, bw, attraction, a-b-db, 9, 3, 8, 6, 120, 195, 114, 186, 195, 120, 2, 0.223046
69, 3, bw, attraction, a-b-db, 14, 3, 8, 7, 111, 181, 195, 120, 120, 195, 3, 1.08425
69, 3, bw, attraction, a-b-db, 14, 3, 8, 7, 111, 181, 195, 120, 120, 195, 1, 0.399839
69, 3, bw, attraction, a-b-da, 14, 1, 8, 8, 60, 135, 125, 56, 135, 60, 3, 1.4377
69, 3, bw, attraction, a-b-da, 14, 1, 8, 8, 60, 135, 125, 56, 135, 60, 2, 0.323179
69, 3, bw, attraction, a-b-da, 14, 3, 8, 9, 195, 120, 120, 195, 181, 111, 1, 2.60369
69, 3, bw, attraction, a-b-da, 14, 3, 8, 9, 195, 120, 120, 195, 181, 111, 3, 0.490237
69, 3, bw, attraction, a-b-db, 2, 3, 8, 10, 119, 193, 195, 120, 120, 195, 2, 0.859923
69, 3, bw, attraction, a-b-db, 2, 3, 8, 10, 119, 193, 195, 120, 120, 195, 1, 0.408345
69, 3, bw, attraction, a-b-db, 2, 2, 8, 11, 165, 90, 90, 165, 89, 163, 3, 1.11754
69, 3, bw, attraction, a-b-db, 2, 2, 8, 11, 165, 90, 90, 165, 89, 163, 2, 0.31188
69, 3, bw, attraction, a-b-da, 5, 3, 8, 12, 120, 195, 195, 120, 190, 117, 2, 0.688926
69, 3, bw, attraction, a-b-da, 5, 3, 8, 12, 120, 195, 195, 120, 190, 117, 1, 0.532219
69, 3, bw, filler, NA, 999, 999, 8, 13, 133, 139, 152, 149, 131, 128, 2, 0.820695
69, 3, bw, filler, NA, 999, 999, 8, 13, 133, 139, 152, 149, 131, 128, 3, 0.259008
69, 3, bw, catch, NA, 999, 999, 8, 14, 63, 132, 107, 148, 181, 134, 3, 0.75808
69, 3, bw, catch, NA, 999, 999, 8, 14, 63, 132, 107, 148, 181, 134, 1, 0.534585
69, 3, bw, filler, NA, 999, 999, 8, 15, 193, 85, 111, 160, 169, 99, 3, 1.91111
69, 3, bw, filler, NA, 999, 999, 8, 15, 193, 85, 111, 160, 169, 99, 2, 0.424984
69, 3, bw, attraction, a-b-db, 9, 2, 8, 16, 165, 90, 90, 165, 86, 157, 1, 0.989475
69, 3, bw, attraction, a-b-db, 9, 2, 8, 16, 165, 90, 90, 165, 86, 157, 3, 0.340526
69, 3, bw, attraction, a-b-db, 5, 1, 8, 17, 135, 60, 58, 132, 60, 135, 1, 1.07635
69, 3, bw, attraction, a-b-db, 5, 1, 8, 17, 135, 60, 58, 132, 60, 135, 2, 0.463977
69, 3, bw, attraction, a-b-da, 5, 1, 8, 18, 135, 60, 132, 58, 60, 135, 3, 1.17101
69, 3, bw, attraction, a-b-da, 5, 1, 8, 18, 135, 60, 132, 58, 60, 135, 2, 0.498606
69, 3, bw, filler, NA, 999, 999, 8, 19, 163, 177, 148, 154, 79, 185, 1, 0.684412
69, 3, bw, filler, NA, 999, 999, 8, 19, 163, 177, 148, 154, 79, 185, 3, 2.20827
69, 3, bw, attraction, a-b-da, 5, 2, 8, 20, 165, 90, 90, 165, 161, 88, 2, 1.97273
69, 3, bw, attraction, a-b-da, 5, 2, 8, 20, 165, 90, 90, 165, 161, 88, 3, 1.06821
69, 3, bw, catch, NA, 999, 999, 8, 21, 100, 95, 102, 153, 149, 166, 3, 1.09508
69, 3, bw, catch, NA, 999, 999, 8, 21, 100, 95, 102, 153, 149, 166, 1, 0.426052
69, 3, bw, attraction, a-b-da, 9, 2, 8, 22, 90, 165, 165, 90, 157, 86, 3, 2.07053
69, 3, bw, attraction, a-b-da, 9, 2, 8, 22, 90, 165, 165, 90, 157, 86, 1, 0.40249
69, 3, bw, filler, NA, 999, 999, 8, 23, 116, 59, 176, 88, 64, 128, 2, 0.640398
69, 3, bw, filler, NA, 999, 999, 8, 23, 116, 59, 176, 88, 64, 128, 3, 0.453449
69, 3, bw, attraction, a-b-db, 2, 1, 8, 24, 60, 135, 135, 60, 59, 134, 1, 1.39318
69, 3, bw, attraction, a-b-db, 2, 1, 8, 24, 60, 135, 135, 60, 59, 134, 3, 0.592123
69, 3, bw, attraction, a-b-db, 9, 1, 8, 25, 57, 129, 60, 135, 135, 60, 3, 0.901846
69, 3, bw, attraction, a-b-db, 9, 1, 8, 25, 57, 129, 60, 135, 135, 60, 2, 0.352927
69, 3, bw, attraction, a-b-da, 2, 3, 8, 26, 195, 120, 120, 195, 193, 119, 3, 1.48083
69, 3, bw, attraction, a-b-da, 2, 3, 8, 26, 195, 120, 120, 195, 193, 119, 2, 0.292409
69, 3, bw, catch, NA, 999, 999, 8, 27, 82, 113, 151, 104, 143, 172, 3, 0.478114
69, 3, bw, catch, NA, 999, 999, 8, 27, 82, 113, 151, 104, 143, 172, 1, 0.290022
69, 3, bw, attraction, a-b-da, 14, 2, 8, 28, 153, 83, 165, 90, 90, 165, 2, 0.747743
69, 3, bw, attraction, a-b-da, 14, 2, 8, 28, 153, 83, 165, 90, 90, 165, 1, 0.468847
69, 3, bw, filler, NA, 999, 999, 8, 29, 100, 110, 62, 163, 161, 147, 3, 0.543926
69, 3, bw, filler, NA, 999, 999, 8, 29, 100, 110, 62, 163, 161, 147, 1, 0.689083
69, 3, bw, filler, NA, 999, 999, 8, 30, 152, 114, 104, 61, 170, 63, 1, 0.74745
69, 3, bw, filler, NA, 999, 999, 8, 30, 152, 114, 104, 61, 170, 63, 2, 0.300556
69, 3, bw, filler, NA, 999, 999, 8, 31, 69, 150, 99, 114, 194, 182, 3, 0.982475
69, 3, bw, filler, NA, 999, 999, 8, 31, 69, 150, 99, 114, 194, 182, 2, 0.79821
69, 3, bw, filler, NA, 999, 999, 8, 32, 65, 151, 169, 182, 115, 67, 2, 0.811716
69, 3, bw, filler, NA, 999, 999, 8, 32, 65, 151, 169, 182, 115, 67, 3, 0.522142
69, 3, bw, attraction, a-b-da, 9, 1, 8, 33, 60, 135, 135, 60, 129, 57, 1, 5.91533
69, 3, bw, attraction, a-b-da, 9, 1, 8, 33, 60, 135, 135, 60, 129, 57, 2, 0.595973
69, 3, bw, filler, NA, 999, 999, 8, 34, 118, 115, 189, 68, 93, 174, 1, 0.969778
69, 3, bw, filler, NA, 999, 999, 8, 34, 118, 115, 189, 68, 93, 174, 3, 0.906138
69, 3, bw, attraction, a-b-db, 14, 1, 8, 35, 60, 135, 56, 125, 135, 60, 3, 1.97986
69, 3, bw, attraction, a-b-db, 14, 1, 8, 35, 60, 135, 56, 125, 135, 60, 2, 0.331206
69, 3, bw, attraction, a-b-da, 2, 1, 8, 36, 135, 60, 60, 135, 134, 59, 1, 2.48363
69, 3, bw, attraction, a-b-da, 2, 1, 8, 36, 135, 60, 60, 135, 134, 59, 3, 0.606992
69, 3, bw, attraction, a-b-db, 5, 2, 8, 37, 165, 90, 88, 161, 90, 165, 1, 1.05986
69, 3, bw, attraction, a-b-db, 5, 2, 8, 37, 165, 90, 88, 161, 90, 165, 2, 0.712257
