sub_n, computer_n, bw_cond, effect, set, distance, diag, block_n, trial_n, h1, w1, h2, w2, h3, w3, choice, rt 
65, 3, bw, practice, NA, 999, 999, 0, 1, 180, 95, 91, 163, 145, 86, 2, 14.7204
65, 3, bw, practice, NA, 999, 999, 0, 1, 180, 95, 91, 163, 145, 86, 3, 3.59887
65, 3, bw, practice, NA, 999, 999, 0, 2, 104, 119, 89, 190, 135, 89, 2, 3.11332
65, 3, bw, practice, NA, 999, 999, 0, 2, 104, 119, 89, 190, 135, 89, 3, 3.81023
65, 3, bw, practice, NA, 999, 999, 0, 3, 171, 166, 160, 79, 137, 133, 1, 2.0765
65, 3, bw, practice, NA, 999, 999, 0, 3, 171, 166, 160, 79, 137, 133, 2, 6.71332
65, 3, bw, filler, NA, 999, 999, 1, 1, 83, 193, 179, 118, 82, 100, 2, 1.96623
65, 3, bw, filler, NA, 999, 999, 1, 1, 83, 193, 179, 118, 82, 100, 3, 1.72624
65, 3, bw, attraction, a-b-db, 2, 1, 1, 2, 135, 60, 60, 135, 59, 134, 1, 26.7903
65, 3, bw, attraction, a-b-db, 2, 1, 1, 2, 135, 60, 60, 135, 59, 134, 3, 2.05385
65, 3, bw, attraction, a-b-da, 5, 1, 1, 3, 60, 135, 135, 60, 132, 58, 1, 19.0254
65, 3, bw, attraction, a-b-da, 5, 1, 1, 3, 60, 135, 135, 60, 132, 58, 3, 1.52187
65, 3, bw, attraction, a-b-db, 2, 2, 1, 4, 89, 163, 165, 90, 90, 165, 3, 2.85871
65, 3, bw, attraction, a-b-db, 2, 2, 1, 4, 89, 163, 165, 90, 90, 165, 2, 1.82237
65, 3, bw, attraction, a-b-db, 2, 3, 1, 5, 195, 120, 119, 193, 120, 195, 2, 18.0513
65, 3, bw, attraction, a-b-db, 2, 3, 1, 5, 195, 120, 119, 193, 120, 195, 1, 3.68279
65, 3, bw, attraction, a-b-da, 9, 1, 1, 6, 60, 135, 135, 60, 129, 57, 1, 2.42026
65, 3, bw, attraction, a-b-da, 9, 1, 1, 6, 60, 135, 135, 60, 129, 57, 2, 2.36233
65, 3, bw, attraction, a-b-db, 5, 3, 1, 7, 120, 195, 195, 120, 117, 190, 1, 6.56864
65, 3, bw, attraction, a-b-db, 5, 3, 1, 7, 120, 195, 195, 120, 117, 190, 3, 2.2713
65, 3, bw, attraction, a-b-db, 14, 2, 1, 8, 90, 165, 165, 90, 83, 153, 1, 6.81793
65, 3, bw, attraction, a-b-db, 14, 2, 1, 8, 90, 165, 165, 90, 83, 153, 3, 0.878344
65, 3, bw, catch, NA, 999, 999, 1, 9, 120, 135, 74, 121, 137, 178, 3, 1.40083
65, 3, bw, catch, NA, 999, 999, 1, 9, 120, 135, 74, 121, 137, 178, 2, 0.999559
65, 3, bw, catch, NA, 999, 999, 1, 10, 127, 188, 125, 130, 108, 87, 1, 1.36518
65, 3, bw, catch, NA, 999, 999, 1, 10, 127, 188, 125, 130, 108, 87, 3, 0.925383
65, 3, bw, attraction, a-b-da, 5, 2, 1, 11, 165, 90, 161, 88, 90, 165, 3, 5.62164
65, 3, bw, attraction, a-b-da, 5, 2, 1, 11, 165, 90, 161, 88, 90, 165, 2, 2.20265
65, 3, bw, attraction, a-b-da, 9, 2, 1, 12, 157, 86, 90, 165, 165, 90, 2, 2.47981
65, 3, bw, attraction, a-b-da, 9, 2, 1, 12, 157, 86, 90, 165, 165, 90, 1, 0.995038
65, 3, bw, attraction, a-b-da, 14, 1, 1, 13, 125, 56, 135, 60, 60, 135, 3, 2.01665
65, 3, bw, attraction, a-b-da, 14, 1, 1, 13, 125, 56, 135, 60, 60, 135, 1, 1.03064
65, 3, bw, filler, NA, 999, 999, 1, 14, 145, 92, 167, 168, 154, 89, 2, 1.40301
65, 3, bw, filler, NA, 999, 999, 1, 14, 145, 92, 167, 168, 154, 89, 1, 5.53004
65, 3, bw, attraction, a-b-da, 9, 3, 1, 15, 120, 195, 186, 114, 195, 120, 1, 2.07286
65, 3, bw, attraction, a-b-da, 9, 3, 1, 15, 120, 195, 186, 114, 195, 120, 2, 1.11614
65, 3, bw, attraction, a-b-db, 14, 1, 1, 16, 60, 135, 135, 60, 56, 125, 2, 2.88497
65, 3, bw, attraction, a-b-db, 14, 1, 1, 16, 60, 135, 135, 60, 56, 125, 3, 0.807999
65, 3, bw, attraction, a-b-da, 5, 3, 1, 17, 195, 120, 190, 117, 120, 195, 3, 3.9651
65, 3, bw, attraction, a-b-da, 5, 3, 1, 17, 195, 120, 190, 117, 120, 195, 2, 1.51642
65, 3, bw, filler, NA, 999, 999, 1, 18, 126, 190, 138, 138, 112, 66, 1, 2.22928
65, 3, bw, filler, NA, 999, 999, 1, 18, 126, 190, 138, 138, 112, 66, 3, 0.882584
65, 3, bw, attraction, a-b-da, 2, 2, 1, 19, 163, 89, 90, 165, 165, 90, 2, 3.39698
65, 3, bw, attraction, a-b-da, 2, 2, 1, 19, 163, 89, 90, 165, 165, 90, 1, 0.747155
65, 3, bw, attraction, a-b-da, 14, 2, 1, 20, 90, 165, 165, 90, 153, 83, 1, 3.44291
65, 3, bw, attraction, a-b-da, 14, 2, 1, 20, 90, 165, 165, 90, 153, 83, 3, 0.999125
65, 3, bw, filler, NA, 999, 999, 1, 21, 189, 118, 56, 160, 110, 88, 1, 1.54868
65, 3, bw, filler, NA, 999, 999, 1, 21, 189, 118, 56, 160, 110, 88, 2, 4.70158
65, 3, bw, filler, NA, 999, 999, 1, 22, 74, 138, 127, 123, 125, 135, 3, 1.97417
65, 3, bw, filler, NA, 999, 999, 1, 22, 74, 138, 127, 123, 125, 135, 1, 0.957306
65, 3, bw, attraction, a-b-da, 14, 3, 1, 23, 181, 111, 195, 120, 120, 195, 3, 8.66043
65, 3, bw, attraction, a-b-da, 14, 3, 1, 23, 181, 111, 195, 120, 120, 195, 1, 0.846302
65, 3, bw, catch, NA, 999, 999, 1, 24, 99, 96, 97, 158, 178, 137, 3, 2.60987
65, 3, bw, catch, NA, 999, 999, 1, 24, 99, 96, 97, 158, 178, 137, 1, 0.847759
65, 3, bw, filler, NA, 999, 999, 1, 25, 181, 112, 112, 173, 125, 132, 2, 6.33953
65, 3, bw, filler, NA, 999, 999, 1, 25, 181, 112, 112, 173, 125, 132, 3, 0.834832
65, 3, bw, filler, NA, 999, 999, 1, 26, 186, 124, 190, 137, 128, 110, 2, 1.71116
65, 3, bw, filler, NA, 999, 999, 1, 26, 186, 124, 190, 137, 128, 110, 3, 0.761367
65, 3, bw, filler, NA, 999, 999, 1, 27, 120, 146, 112, 60, 181, 82, 1, 2.63223
65, 3, bw, filler, NA, 999, 999, 1, 27, 120, 146, 112, 60, 181, 82, 2, 0.541325
65, 3, bw, attraction, a-b-db, 5, 1, 1, 28, 58, 132, 60, 135, 135, 60, 2, 4.03716
65, 3, bw, attraction, a-b-db, 5, 1, 1, 28, 58, 132, 60, 135, 135, 60, 1, 1.56986
65, 3, bw, attraction, a-b-db, 5, 2, 1, 29, 88, 161, 90, 165, 165, 90, 2, 3.09667
65, 3, bw, attraction, a-b-db, 5, 2, 1, 29, 88, 161, 90, 165, 165, 90, 1, 2.96301
65, 3, bw, attraction, a-b-db, 9, 2, 1, 30, 86, 157, 165, 90, 90, 165, 3, 6.08939
65, 3, bw, attraction, a-b-db, 9, 2, 1, 30, 86, 157, 165, 90, 90, 165, 2, 0.906849
65, 3, bw, attraction, a-b-db, 9, 1, 1, 31, 135, 60, 60, 135, 57, 129, 2, 4.05974
65, 3, bw, attraction, a-b-db, 9, 1, 1, 31, 135, 60, 60, 135, 57, 129, 1, 0.927264
65, 3, bw, filler, NA, 999, 999, 1, 32, 100, 107, 82, 91, 171, 175, 3, 1.78347
65, 3, bw, filler, NA, 999, 999, 1, 32, 100, 107, 82, 91, 171, 175, 2, 0.830994
65, 3, bw, attraction, a-b-db, 14, 3, 1, 33, 195, 120, 120, 195, 111, 181, 2, 5.15524
65, 3, bw, attraction, a-b-db, 14, 3, 1, 33, 195, 120, 120, 195, 111, 181, 1, 2.81889
65, 3, bw, attraction, a-b-da, 2, 3, 1, 34, 193, 119, 120, 195, 195, 120, 2, 3.37529
65, 3, bw, attraction, a-b-da, 2, 3, 1, 34, 193, 119, 120, 195, 195, 120, 1, 3.47022
65, 3, bw, attraction, a-b-db, 9, 3, 1, 35, 114, 186, 120, 195, 195, 120, 2, 2.68843
65, 3, bw, attraction, a-b-db, 9, 3, 1, 35, 114, 186, 120, 195, 195, 120, 3, 1.66681
65, 3, bw, filler, NA, 999, 999, 1, 36, 64, 88, 138, 192, 91, 147, 2, 1.62164
65, 3, bw, filler, NA, 999, 999, 1, 36, 64, 88, 138, 192, 91, 147, 1, 0.787009
65, 3, bw, attraction, a-b-da, 2, 1, 1, 37, 60, 135, 135, 60, 134, 59, 1, 4.86545
65, 3, bw, attraction, a-b-da, 2, 1, 1, 37, 60, 135, 135, 60, 134, 59, 2, 4.12449
65, 3, bw, attraction, a-b-db, 9, 2, 2, 1, 86, 157, 165, 90, 90, 165, 1, 8.39589
65, 3, bw, attraction, a-b-db, 9, 2, 2, 1, 86, 157, 165, 90, 90, 165, 2, 0.592651
65, 3, bw, attraction, a-b-da, 2, 2, 2, 2, 90, 165, 165, 90, 163, 89, 1, 3.66242
65, 3, bw, attraction, a-b-da, 2, 2, 2, 2, 90, 165, 165, 90, 163, 89, 2, 1.01794
65, 3, bw, filler, NA, 999, 999, 2, 3, 167, 69, 80, 66, 165, 61, 1, 5.75075
65, 3, bw, filler, NA, 999, 999, 2, 3, 167, 69, 80, 66, 165, 61, 2, 0.750282
65, 3, bw, attraction, a-b-da, 14, 3, 2, 4, 181, 111, 195, 120, 120, 195, 3, 5.63794
65, 3, bw, attraction, a-b-da, 14, 3, 2, 4, 181, 111, 195, 120, 120, 195, 1, 1.05017
65, 3, bw, attraction, a-b-db, 2, 3, 2, 5, 119, 193, 195, 120, 120, 195, 3, 20.2299
65, 3, bw, attraction, a-b-db, 2, 3, 2, 5, 119, 193, 195, 120, 120, 195, 2, 0.845423
65, 3, bw, attraction, a-b-da, 2, 1, 2, 6, 135, 60, 134, 59, 60, 135, 3, 10.9371
65, 3, bw, attraction, a-b-da, 2, 1, 2, 6, 135, 60, 134, 59, 60, 135, 2, 0.711748
65, 3, bw, filler, NA, 999, 999, 2, 7, 144, 104, 73, 75, 127, 96, 1, 2.02479
65, 3, bw, filler, NA, 999, 999, 2, 7, 144, 104, 73, 75, 127, 96, 2, 0.606107
65, 3, bw, filler, NA, 999, 999, 2, 8, 99, 140, 110, 156, 150, 139, 3, 6.74786
65, 3, bw, filler, NA, 999, 999, 2, 8, 99, 140, 110, 156, 150, 139, 1, 1.02704
65, 3, bw, attraction, a-b-da, 2, 3, 2, 9, 120, 195, 195, 120, 193, 119, 1, 2.83932
65, 3, bw, attraction, a-b-da, 2, 3, 2, 9, 120, 195, 195, 120, 193, 119, 2, 0.435659
65, 3, bw, attraction, a-b-da, 14, 1, 2, 10, 60, 135, 125, 56, 135, 60, 1, 2.17618
65, 3, bw, attraction, a-b-da, 14, 1, 2, 10, 60, 135, 125, 56, 135, 60, 2, 0.519485
65, 3, bw, attraction, a-b-da, 5, 2, 2, 11, 90, 165, 161, 88, 165, 90, 1, 9.88872
65, 3, bw, attraction, a-b-da, 5, 2, 2, 11, 90, 165, 161, 88, 165, 90, 3, 0.593769
65, 3, bw, catch, NA, 999, 999, 2, 12, 150, 105, 87, 108, 120, 195, 3, 1.36727
65, 3, bw, catch, NA, 999, 999, 2, 12, 150, 105, 87, 108, 120, 195, 2, 0.607569
65, 3, bw, catch, NA, 999, 999, 2, 13, 161, 154, 60, 135, 93, 162, 1, 1.45258
65, 3, bw, catch, NA, 999, 999, 2, 13, 161, 154, 60, 135, 93, 162, 2, 0.945459
65, 3, bw, attraction, a-b-da, 9, 2, 2, 14, 157, 86, 90, 165, 165, 90, 2, 2.76113
65, 3, bw, attraction, a-b-da, 9, 2, 2, 14, 157, 86, 90, 165, 165, 90, 1, 0.712815
65, 3, bw, filler, NA, 999, 999, 2, 15, 127, 121, 110, 109, 92, 59, 1, 1.68987
65, 3, bw, filler, NA, 999, 999, 2, 15, 127, 121, 110, 109, 92, 59, 3, 0.996789
65, 3, bw, attraction, a-b-db, 14, 3, 2, 16, 120, 195, 195, 120, 111, 181, 2, 5.73034
65, 3, bw, attraction, a-b-db, 14, 3, 2, 16, 120, 195, 195, 120, 111, 181, 3, 0.874398
65, 3, bw, attraction, a-b-db, 9, 1, 2, 17, 57, 129, 135, 60, 60, 135, 3, 3.80483
65, 3, bw, attraction, a-b-db, 9, 1, 2, 17, 57, 129, 135, 60, 60, 135, 1, 0.53897
65, 3, bw, catch, NA, 999, 999, 2, 18, 67, 128, 155, 100, 159, 156, 3, 1.28335
65, 3, bw, catch, NA, 999, 999, 2, 18, 67, 128, 155, 100, 159, 156, 1, 0.814954
65, 3, bw, attraction, a-b-da, 5, 3, 2, 19, 190, 117, 195, 120, 120, 195, 3, 9.27608
65, 3, bw, attraction, a-b-da, 5, 3, 2, 19, 190, 117, 195, 120, 120, 195, 1, 0.77304
65, 3, bw, attraction, a-b-da, 5, 1, 2, 20, 135, 60, 60, 135, 132, 58, 2, 4.26805
65, 3, bw, attraction, a-b-da, 5, 1, 2, 20, 135, 60, 60, 135, 132, 58, 1, 0.687493
65, 3, bw, filler, NA, 999, 999, 2, 21, 129, 173, 153, 165, 157, 157, 2, 16.4899
65, 3, bw, filler, NA, 999, 999, 2, 21, 129, 173, 153, 165, 157, 157, 3, 0.728627
65, 3, bw, attraction, a-b-db, 5, 2, 2, 22, 165, 90, 90, 165, 88, 161, 2, 12.073
65, 3, bw, attraction, a-b-db, 5, 2, 2, 22, 165, 90, 90, 165, 88, 161, 3, 1.14593
65, 3, bw, attraction, a-b-da, 9, 1, 2, 23, 129, 57, 135, 60, 60, 135, 3, 5.09758
65, 3, bw, attraction, a-b-da, 9, 1, 2, 23, 129, 57, 135, 60, 60, 135, 2, 1.27518
65, 3, bw, filler, NA, 999, 999, 2, 24, 176, 57, 180, 142, 173, 175, 3, 3.52543
65, 3, bw, filler, NA, 999, 999, 2, 24, 176, 57, 180, 142, 173, 175, 1, 1.03027
65, 3, bw, attraction, a-b-db, 9, 3, 2, 25, 195, 120, 114, 186, 120, 195, 3, 11.6186
65, 3, bw, attraction, a-b-db, 9, 3, 2, 25, 195, 120, 114, 186, 120, 195, 2, 0.661608
65, 3, bw, filler, NA, 999, 999, 2, 26, 91, 128, 120, 187, 109, 80, 2, 2.36061
65, 3, bw, filler, NA, 999, 999, 2, 26, 91, 128, 120, 187, 109, 80, 3, 2.27255
65, 3, bw, attraction, a-b-db, 5, 1, 2, 27, 58, 132, 135, 60, 60, 135, 3, 7.31503
65, 3, bw, attraction, a-b-db, 5, 1, 2, 27, 58, 132, 135, 60, 60, 135, 2, 1.07536
65, 3, bw, attraction, a-b-db, 14, 1, 2, 28, 135, 60, 60, 135, 56, 125, 2, 18.4058
65, 3, bw, attraction, a-b-db, 14, 1, 2, 28, 135, 60, 60, 135, 56, 125, 1, 0.967445
65, 3, bw, attraction, a-b-db, 2, 1, 2, 29, 135, 60, 59, 134, 60, 135, 3, 10.8143
65, 3, bw, attraction, a-b-db, 2, 1, 2, 29, 135, 60, 59, 134, 60, 135, 2, 1.89757
65, 3, bw, attraction, a-b-da, 14, 2, 2, 30, 165, 90, 153, 83, 90, 165, 3, 4.00278
65, 3, bw, attraction, a-b-da, 14, 2, 2, 30, 165, 90, 153, 83, 90, 165, 2, 0.56889
65, 3, bw, attraction, a-b-da, 9, 3, 2, 31, 186, 114, 120, 195, 195, 120, 2, 6.736
65, 3, bw, attraction, a-b-da, 9, 3, 2, 31, 186, 114, 120, 195, 195, 120, 1, 0.543911
65, 3, bw, attraction, a-b-db, 2, 2, 2, 32, 89, 163, 165, 90, 90, 165, 3, 8.97585
65, 3, bw, attraction, a-b-db, 2, 2, 2, 32, 89, 163, 165, 90, 90, 165, 2, 0.708925
65, 3, bw, attraction, a-b-db, 5, 3, 2, 33, 120, 195, 195, 120, 117, 190, 1, 24.4779
65, 3, bw, attraction, a-b-db, 5, 3, 2, 33, 120, 195, 195, 120, 117, 190, 3, 1.52293
65, 3, bw, attraction, a-b-db, 14, 2, 2, 34, 83, 153, 90, 165, 165, 90, 2, 3.60361
65, 3, bw, attraction, a-b-db, 14, 2, 2, 34, 83, 153, 90, 165, 165, 90, 1, 0.985868
65, 3, bw, filler, NA, 999, 999, 2, 35, 144, 146, 162, 116, 192, 95, 1, 7.98412
65, 3, bw, filler, NA, 999, 999, 2, 35, 144, 146, 162, 116, 192, 95, 3, 1.08554
65, 3, bw, filler, NA, 999, 999, 2, 36, 102, 102, 190, 74, 95, 94, 2, 1.87211
65, 3, bw, filler, NA, 999, 999, 2, 36, 102, 102, 190, 74, 95, 94, 3, 0.803285
65, 3, bw, filler, NA, 999, 999, 2, 37, 188, 61, 153, 138, 130, 136, 2, 17.7531
65, 3, bw, filler, NA, 999, 999, 2, 37, 188, 61, 153, 138, 130, 136, 1, 0.740705
65, 3, bw, filler, NA, 999, 999, 3, 1, 163, 158, 147, 187, 115, 116, 2, 1.58851
65, 3, bw, filler, NA, 999, 999, 3, 1, 163, 158, 147, 187, 115, 116, 3, 1.23528
65, 3, bw, attraction, a-b-da, 2, 2, 3, 2, 90, 165, 163, 89, 165, 90, 1, 3.68747
65, 3, bw, attraction, a-b-da, 2, 2, 3, 2, 90, 165, 163, 89, 165, 90, 2, 0.610255
65, 3, bw, filler, NA, 999, 999, 3, 3, 105, 146, 104, 185, 71, 61, 2, 2.37542
65, 3, bw, filler, NA, 999, 999, 3, 3, 105, 146, 104, 185, 71, 61, 3, 0.838526
65, 3, bw, attraction, a-b-da, 14, 1, 3, 4, 60, 135, 125, 56, 135, 60, 3, 2.29981
65, 3, bw, attraction, a-b-da, 14, 1, 3, 4, 60, 135, 125, 56, 135, 60, 2, 1.08571
65, 3, bw, filler, NA, 999, 999, 3, 5, 106, 105, 78, 147, 183, 105, 3, 1.46382
65, 3, bw, filler, NA, 999, 999, 3, 5, 106, 105, 78, 147, 183, 105, 2, 12.2761
65, 3, bw, attraction, a-b-db, 9, 3, 3, 6, 195, 120, 114, 186, 120, 195, 3, 16.9314
65, 3, bw, attraction, a-b-db, 9, 3, 3, 6, 195, 120, 114, 186, 120, 195, 2, 1.07214
65, 3, bw, filler, NA, 999, 999, 3, 7, 96, 76, 137, 81, 175, 129, 3, 1.34715
65, 3, bw, filler, NA, 999, 999, 3, 7, 96, 76, 137, 81, 175, 129, 1, 0.98798
65, 3, bw, attraction, a-b-da, 5, 1, 3, 8, 132, 58, 60, 135, 135, 60, 2, 2.67428
65, 3, bw, attraction, a-b-da, 5, 1, 3, 8, 132, 58, 60, 135, 135, 60, 1, 1.00536
65, 3, bw, filler, NA, 999, 999, 3, 9, 172, 112, 119, 96, 170, 121, 1, 9.52308
65, 3, bw, filler, NA, 999, 999, 3, 9, 172, 112, 119, 96, 170, 121, 2, 0.698627
65, 3, bw, attraction, a-b-db, 2, 1, 3, 10, 60, 135, 59, 134, 135, 60, 2, 1.71645
65, 3, bw, attraction, a-b-db, 2, 1, 3, 10, 60, 135, 59, 134, 135, 60, 3, 0.830578
65, 3, bw, filler, NA, 999, 999, 3, 11, 99, 178, 136, 125, 96, 137, 1, 10.2988
65, 3, bw, filler, NA, 999, 999, 3, 11, 99, 178, 136, 125, 96, 137, 3, 0.819023
65, 3, bw, filler, NA, 999, 999, 3, 12, 172, 82, 82, 139, 195, 80, 3, 6.60798
65, 3, bw, filler, NA, 999, 999, 3, 12, 172, 82, 82, 139, 195, 80, 2, 0.812629
65, 3, bw, catch, NA, 999, 999, 3, 13, 79, 116, 186, 129, 94, 161, 2, 2.15355
65, 3, bw, catch, NA, 999, 999, 3, 13, 79, 116, 186, 129, 94, 161, 1, 0.786217
65, 3, bw, attraction, a-b-da, 9, 2, 3, 14, 165, 90, 90, 165, 157, 86, 2, 5.81664
65, 3, bw, attraction, a-b-da, 9, 2, 3, 14, 165, 90, 90, 165, 157, 86, 1, 1.70139
65, 3, bw, attraction, a-b-db, 5, 2, 3, 15, 90, 165, 88, 161, 165, 90, 3, 9.28722
65, 3, bw, attraction, a-b-db, 5, 2, 3, 15, 90, 165, 88, 161, 165, 90, 2, 0.679864
65, 3, bw, filler, NA, 999, 999, 3, 16, 67, 118, 70, 182, 105, 122, 3, 6.80217
65, 3, bw, filler, NA, 999, 999, 3, 16, 67, 118, 70, 182, 105, 122, 1, 1.03147
65, 3, bw, attraction, a-b-db, 14, 3, 3, 17, 120, 195, 111, 181, 195, 120, 1, 3.83583
65, 3, bw, attraction, a-b-db, 14, 3, 3, 17, 120, 195, 111, 181, 195, 120, 2, 0.560634
65, 3, bw, catch, NA, 999, 999, 3, 18, 122, 73, 132, 123, 131, 184, 3, 1.18356
65, 3, bw, catch, NA, 999, 999, 3, 18, 122, 73, 132, 123, 131, 184, 1, 0.863208
65, 3, bw, attraction, a-b-da, 2, 1, 3, 19, 60, 135, 134, 59, 135, 60, 1, 5.87417
65, 3, bw, attraction, a-b-da, 2, 1, 3, 19, 60, 135, 134, 59, 135, 60, 2, 0.548419
65, 3, bw, attraction, a-b-db, 2, 3, 3, 20, 195, 120, 119, 193, 120, 195, 2, 4.4282
65, 3, bw, attraction, a-b-db, 2, 3, 3, 20, 195, 120, 119, 193, 120, 195, 1, 2.9607
65, 3, bw, attraction, a-b-db, 14, 1, 3, 21, 60, 135, 135, 60, 56, 125, 1, 2.32712
65, 3, bw, attraction, a-b-db, 14, 1, 3, 21, 60, 135, 135, 60, 56, 125, 3, 0.752406
65, 3, bw, filler, NA, 999, 999, 3, 22, 83, 153, 59, 144, 98, 175, 3, 1.53596
65, 3, bw, filler, NA, 999, 999, 3, 22, 83, 153, 59, 144, 98, 175, 2, 0.90551
65, 3, bw, filler, NA, 999, 999, 3, 23, 111, 140, 115, 101, 130, 103, 1, 3.13917
65, 3, bw, filler, NA, 999, 999, 3, 23, 111, 140, 115, 101, 130, 103, 2, 1.35544
65, 3, bw, attraction, a-b-da, 5, 2, 3, 24, 90, 165, 161, 88, 165, 90, 1, 13.251
65, 3, bw, attraction, a-b-da, 5, 2, 3, 24, 90, 165, 161, 88, 165, 90, 2, 0.828191
65, 3, bw, attraction, a-b-db, 9, 1, 3, 25, 57, 129, 60, 135, 135, 60, 2, 3.32058
65, 3, bw, attraction, a-b-db, 9, 1, 3, 25, 57, 129, 60, 135, 135, 60, 3, 0.954065
65, 3, bw, attraction, a-b-db, 14, 2, 3, 26, 83, 153, 90, 165, 165, 90, 2, 1.83373
65, 3, bw, attraction, a-b-db, 14, 2, 3, 26, 83, 153, 90, 165, 165, 90, 1, 1.42326
65, 3, bw, attraction, a-b-da, 9, 1, 3, 27, 135, 60, 129, 57, 60, 135, 3, 1.40397
65, 3, bw, attraction, a-b-da, 9, 1, 3, 27, 135, 60, 129, 57, 60, 135, 2, 0.858831
65, 3, bw, attraction, a-b-da, 14, 3, 3, 28, 181, 111, 120, 195, 195, 120, 2, 3.38186
65, 3, bw, attraction, a-b-da, 14, 3, 3, 28, 181, 111, 120, 195, 195, 120, 1, 0.70084
65, 3, bw, attraction, a-b-db, 9, 2, 3, 29, 86, 157, 90, 165, 165, 90, 2, 6.07861
65, 3, bw, attraction, a-b-db, 9, 2, 3, 29, 86, 157, 90, 165, 165, 90, 1, 6.53662
65, 3, bw, attraction, a-b-db, 5, 1, 3, 30, 58, 132, 135, 60, 60, 135, 3, 1.9592
65, 3, bw, attraction, a-b-db, 5, 1, 3, 30, 58, 132, 135, 60, 60, 135, 1, 1.07923
65, 3, bw, attraction, a-b-db, 5, 3, 3, 31, 120, 195, 117, 190, 195, 120, 1, 5.16144
65, 3, bw, attraction, a-b-db, 5, 3, 3, 31, 120, 195, 117, 190, 195, 120, 2, 0.696553
65, 3, bw, attraction, a-b-db, 2, 2, 3, 32, 165, 90, 90, 165, 89, 163, 2, 6.39431
65, 3, bw, attraction, a-b-db, 2, 2, 3, 32, 165, 90, 90, 165, 89, 163, 3, 2.07152
65, 3, bw, attraction, a-b-da, 9, 3, 3, 33, 186, 114, 195, 120, 120, 195, 2, 3.96217
65, 3, bw, attraction, a-b-da, 9, 3, 3, 33, 186, 114, 195, 120, 120, 195, 1, 0.713564
65, 3, bw, catch, NA, 999, 999, 3, 34, 118, 77, 158, 97, 136, 179, 3, 1.93849
65, 3, bw, catch, NA, 999, 999, 3, 34, 118, 77, 158, 97, 136, 179, 1, 1.07521
65, 3, bw, attraction, a-b-da, 2, 3, 3, 35, 120, 195, 195, 120, 193, 119, 1, 3.62156
65, 3, bw, attraction, a-b-da, 2, 3, 3, 35, 120, 195, 195, 120, 193, 119, 2, 1.36319
65, 3, bw, attraction, a-b-da, 5, 3, 3, 36, 190, 117, 120, 195, 195, 120, 2, 3.47403
65, 3, bw, attraction, a-b-da, 5, 3, 3, 36, 190, 117, 120, 195, 195, 120, 1, 0.844827
65, 3, bw, attraction, a-b-da, 14, 2, 3, 37, 165, 90, 153, 83, 90, 165, 3, 11.7605
65, 3, bw, attraction, a-b-da, 14, 2, 3, 37, 165, 90, 153, 83, 90, 165, 2, 0.741537
65, 3, bw, filler, NA, 999, 999, 4, 1, 124, 85, 161, 140, 107, 142, 2, 0.973175
65, 3, bw, filler, NA, 999, 999, 4, 1, 124, 85, 161, 140, 107, 142, 1, 0.620878
65, 3, bw, attraction, a-b-da, 2, 1, 4, 2, 60, 135, 135, 60, 134, 59, 1, 2.43407
65, 3, bw, attraction, a-b-da, 2, 1, 4, 2, 60, 135, 135, 60, 134, 59, 2, 1.16719
65, 3, bw, attraction, a-b-db, 2, 1, 4, 3, 59, 134, 135, 60, 60, 135, 3, 2.11797
65, 3, bw, attraction, a-b-db, 2, 1, 4, 3, 59, 134, 135, 60, 60, 135, 2, 0.687956
65, 3, bw, catch, NA, 999, 999, 4, 4, 178, 137, 144, 111, 111, 84, 1, 1.12252
65, 3, bw, catch, NA, 999, 999, 4, 4, 178, 137, 144, 111, 111, 84, 3, 0.756116
65, 3, bw, attraction, a-b-da, 5, 3, 4, 5, 190, 117, 120, 195, 195, 120, 2, 2.53184
65, 3, bw, attraction, a-b-da, 5, 3, 4, 5, 190, 117, 120, 195, 195, 120, 1, 1.32502
65, 3, bw, filler, NA, 999, 999, 4, 6, 82, 148, 153, 178, 127, 172, 2, 1.18914
65, 3, bw, filler, NA, 999, 999, 4, 6, 82, 148, 153, 178, 127, 172, 1, 0.732007
65, 3, bw, attraction, a-b-db, 5, 3, 4, 7, 117, 190, 195, 120, 120, 195, 1, 3.10055
65, 3, bw, attraction, a-b-db, 5, 3, 4, 7, 117, 190, 195, 120, 120, 195, 2, 0.51873
65, 3, bw, attraction, a-b-da, 14, 3, 4, 8, 195, 120, 120, 195, 181, 111, 2, 9.00787
65, 3, bw, attraction, a-b-da, 14, 3, 4, 8, 195, 120, 120, 195, 181, 111, 3, 0.867733
65, 3, bw, catch, NA, 999, 999, 4, 9, 126, 129, 107, 88, 184, 131, 3, 1.56668
65, 3, bw, catch, NA, 999, 999, 4, 9, 126, 129, 107, 88, 184, 131, 2, 0.774906
65, 3, bw, attraction, a-b-da, 2, 3, 4, 10, 193, 119, 195, 120, 120, 195, 3, 7.05322
65, 3, bw, attraction, a-b-da, 2, 3, 4, 10, 193, 119, 195, 120, 120, 195, 1, 0.800327
65, 3, bw, filler, NA, 999, 999, 4, 11, 121, 146, 107, 87, 110, 81, 1, 1.11001
65, 3, bw, filler, NA, 999, 999, 4, 11, 121, 146, 107, 87, 110, 81, 3, 1.25642
65, 3, bw, filler, NA, 999, 999, 4, 12, 195, 183, 59, 157, 63, 142, 1, 1.37177
65, 3, bw, filler, NA, 999, 999, 4, 12, 195, 183, 59, 157, 63, 142, 3, 1.16337
65, 3, bw, attraction, a-b-db, 5, 2, 4, 13, 88, 161, 165, 90, 90, 165, 1, 12.4104
65, 3, bw, attraction, a-b-db, 5, 2, 4, 13, 88, 161, 165, 90, 90, 165, 2, 0.6771
65, 3, bw, filler, NA, 999, 999, 4, 14, 61, 127, 94, 152, 144, 161, 3, 0.855602
65, 3, bw, filler, NA, 999, 999, 4, 14, 61, 127, 94, 152, 144, 161, 1, 0.979843
65, 3, bw, attraction, a-b-db, 9, 1, 4, 15, 57, 129, 135, 60, 60, 135, 3, 3.10615
65, 3, bw, attraction, a-b-db, 9, 1, 4, 15, 57, 129, 135, 60, 60, 135, 2, 0.843915
65, 3, bw, attraction, a-b-da, 14, 2, 4, 16, 165, 90, 90, 165, 153, 83, 2, 1.82352
65, 3, bw, attraction, a-b-da, 14, 2, 4, 16, 165, 90, 90, 165, 153, 83, 3, 1.21288
65, 3, bw, attraction, a-b-da, 9, 2, 4, 17, 157, 86, 90, 165, 165, 90, 2, 1.62577
65, 3, bw, attraction, a-b-da, 9, 2, 4, 17, 157, 86, 90, 165, 165, 90, 1, 0.551229
65, 3, bw, attraction, a-b-da, 5, 1, 4, 18, 132, 58, 60, 135, 135, 60, 2, 1.72701
65, 3, bw, attraction, a-b-da, 5, 1, 4, 18, 132, 58, 60, 135, 135, 60, 1, 0.640446
65, 3, bw, attraction, a-b-db, 14, 1, 4, 19, 60, 135, 135, 60, 56, 125, 1, 1.71623
65, 3, bw, attraction, a-b-db, 14, 1, 4, 19, 60, 135, 135, 60, 56, 125, 3, 1.07836
65, 3, bw, attraction, a-b-db, 9, 3, 4, 20, 195, 120, 120, 195, 114, 186, 2, 2.62459
65, 3, bw, attraction, a-b-db, 9, 3, 4, 20, 195, 120, 120, 195, 114, 186, 3, 1.05381
65, 3, bw, attraction, a-b-da, 5, 2, 4, 21, 165, 90, 161, 88, 90, 165, 3, 8.35334
65, 3, bw, attraction, a-b-da, 5, 2, 4, 21, 165, 90, 161, 88, 90, 165, 2, 0.52812
65, 3, bw, attraction, a-b-db, 2, 2, 4, 22, 165, 90, 89, 163, 90, 165, 3, 15.7286
65, 3, bw, attraction, a-b-db, 2, 2, 4, 22, 165, 90, 89, 163, 90, 165, 2, 0.677597
65, 3, bw, attraction, a-b-da, 2, 2, 4, 23, 163, 89, 90, 165, 165, 90, 2, 8.63188
65, 3, bw, attraction, a-b-da, 2, 2, 4, 23, 163, 89, 90, 165, 165, 90, 1, 1.53936
65, 3, bw, attraction, a-b-db, 5, 1, 4, 24, 58, 132, 135, 60, 60, 135, 3, 5.46732
65, 3, bw, attraction, a-b-db, 5, 1, 4, 24, 58, 132, 135, 60, 60, 135, 2, 0.614309
65, 3, bw, attraction, a-b-db, 9, 2, 4, 25, 90, 165, 165, 90, 86, 157, 1, 2.25933
65, 3, bw, attraction, a-b-db, 9, 2, 4, 25, 90, 165, 165, 90, 86, 157, 2, 1.58326
65, 3, bw, catch, NA, 999, 999, 4, 26, 183, 132, 126, 69, 96, 159, 1, 1.49336
65, 3, bw, catch, NA, 999, 999, 4, 26, 183, 132, 126, 69, 96, 159, 2, 0.792274
65, 3, bw, attraction, a-b-da, 9, 3, 4, 27, 120, 195, 186, 114, 195, 120, 1, 2.66201
65, 3, bw, attraction, a-b-da, 9, 3, 4, 27, 120, 195, 186, 114, 195, 120, 2, 0.729794
65, 3, bw, filler, NA, 999, 999, 4, 28, 147, 97, 75, 193, 126, 164, 3, 2.56219
65, 3, bw, filler, NA, 999, 999, 4, 28, 147, 97, 75, 193, 126, 164, 1, 1.12204
65, 3, bw, filler, NA, 999, 999, 4, 29, 94, 101, 124, 58, 84, 160, 3, 1.90685
65, 3, bw, filler, NA, 999, 999, 4, 29, 94, 101, 124, 58, 84, 160, 2, 0.764917
65, 3, bw, filler, NA, 999, 999, 4, 30, 140, 149, 162, 129, 108, 128, 1, 4.92391
65, 3, bw, filler, NA, 999, 999, 4, 30, 140, 149, 162, 129, 108, 128, 3, 0.628449
65, 3, bw, attraction, a-b-db, 2, 3, 4, 31, 195, 120, 120, 195, 119, 193, 2, 2.73675
65, 3, bw, attraction, a-b-db, 2, 3, 4, 31, 195, 120, 120, 195, 119, 193, 3, 3.05793
65, 3, bw, attraction, a-b-db, 14, 2, 4, 32, 90, 165, 83, 153, 165, 90, 3, 6.39628
65, 3, bw, attraction, a-b-db, 14, 2, 4, 32, 90, 165, 83, 153, 165, 90, 2, 0.473498
65, 3, bw, filler, NA, 999, 999, 4, 33, 184, 57, 176, 150, 166, 112, 2, 1.34799
65, 3, bw, filler, NA, 999, 999, 4, 33, 184, 57, 176, 150, 166, 112, 1, 7.90103
65, 3, bw, attraction, a-b-da, 9, 1, 4, 34, 129, 57, 135, 60, 60, 135, 3, 3.34034
65, 3, bw, attraction, a-b-da, 9, 1, 4, 34, 129, 57, 135, 60, 60, 135, 1, 1.09262
65, 3, bw, attraction, a-b-da, 14, 1, 4, 35, 125, 56, 60, 135, 135, 60, 3, 5.0784
65, 3, bw, attraction, a-b-da, 14, 1, 4, 35, 125, 56, 60, 135, 135, 60, 1, 0.592626
65, 3, bw, filler, NA, 999, 999, 4, 36, 78, 115, 90, 70, 134, 102, 3, 1.94238
65, 3, bw, filler, NA, 999, 999, 4, 36, 78, 115, 90, 70, 134, 102, 2, 0.719018
65, 3, bw, attraction, a-b-db, 14, 3, 4, 37, 111, 181, 195, 120, 120, 195, 3, 2.98416
65, 3, bw, attraction, a-b-db, 14, 3, 4, 37, 111, 181, 195, 120, 120, 195, 1, 0.543159
65, 3, bw, filler, NA, 999, 999, 5, 1, 176, 60, 63, 115, 185, 146, 3, 6.26164
65, 3, bw, filler, NA, 999, 999, 5, 1, 176, 60, 63, 115, 185, 146, 2, 0.984248
65, 3, bw, filler, NA, 999, 999, 5, 2, 147, 168, 139, 82, 113, 76, 1, 0.886722
65, 3, bw, filler, NA, 999, 999, 5, 2, 147, 168, 139, 82, 113, 76, 3, 0.602224
65, 3, bw, filler, NA, 999, 999, 5, 3, 72, 57, 172, 79, 91, 156, 3, 2.60792
65, 3, bw, filler, NA, 999, 999, 5, 3, 72, 57, 172, 79, 91, 156, 1, 0.85382
65, 3, bw, filler, NA, 999, 999, 5, 4, 177, 127, 139, 83, 106, 165, 1, 1.5135
65, 3, bw, filler, NA, 999, 999, 5, 4, 177, 127, 139, 83, 106, 165, 2, 0.515659
65, 3, bw, filler, NA, 999, 999, 5, 5, 91, 113, 69, 82, 118, 193, 3, 1.52473
65, 3, bw, filler, NA, 999, 999, 5, 5, 91, 113, 69, 82, 118, 193, 2, 0.478249
65, 3, bw, catch, NA, 999, 999, 5, 6, 151, 104, 148, 167, 71, 124, 2, 4.92882
65, 3, bw, catch, NA, 999, 999, 5, 6, 151, 104, 148, 167, 71, 124, 3, 0.665293
65, 3, bw, attraction, a-b-db, 2, 1, 5, 7, 59, 134, 60, 135, 135, 60, 2, 2.10027
65, 3, bw, attraction, a-b-db, 2, 1, 5, 7, 59, 134, 60, 135, 135, 60, 3, 0.863028
65, 3, bw, filler, NA, 999, 999, 5, 8, 125, 83, 71, 110, 176, 95, 3, 1.79396
65, 3, bw, filler, NA, 999, 999, 5, 8, 125, 83, 71, 110, 176, 95, 2, 0.800642
65, 3, bw, attraction, a-b-da, 5, 2, 5, 9, 90, 165, 161, 88, 165, 90, 1, 3.18241
65, 3, bw, attraction, a-b-da, 5, 2, 5, 9, 90, 165, 161, 88, 165, 90, 2, 0.469276
65, 3, bw, attraction, a-b-db, 9, 2, 5, 10, 165, 90, 90, 165, 86, 157, 2, 8.36039
65, 3, bw, attraction, a-b-db, 9, 2, 5, 10, 165, 90, 90, 165, 86, 157, 3, 1.93451
65, 3, bw, catch, NA, 999, 999, 5, 11, 171, 144, 131, 124, 112, 83, 1, 1.4786
65, 3, bw, catch, NA, 999, 999, 5, 11, 171, 144, 131, 124, 112, 83, 3, 0.68998
65, 3, bw, filler, NA, 999, 999, 5, 12, 89, 162, 127, 68, 74, 75, 1, 2.8037
65, 3, bw, filler, NA, 999, 999, 5, 12, 89, 162, 127, 68, 74, 75, 3, 0.65813
65, 3, bw, filler, NA, 999, 999, 5, 13, 116, 104, 90, 190, 74, 82, 2, 0.933201
65, 3, bw, filler, NA, 999, 999, 5, 13, 116, 104, 90, 190, 74, 82, 3, 1.05489
65, 3, bw, attraction, a-b-da, 14, 1, 5, 14, 60, 135, 125, 56, 135, 60, 1, 2.46636
65, 3, bw, attraction, a-b-da, 14, 1, 5, 14, 60, 135, 125, 56, 135, 60, 2, 0.582445
65, 3, bw, attraction, a-b-da, 5, 1, 5, 15, 132, 58, 60, 135, 135, 60, 2, 5.94871
65, 3, bw, attraction, a-b-da, 5, 1, 5, 15, 132, 58, 60, 135, 135, 60, 3, 0.660276
65, 3, bw, attraction, a-b-da, 2, 3, 5, 16, 120, 195, 193, 119, 195, 120, 1, 4.78338
65, 3, bw, attraction, a-b-da, 2, 3, 5, 16, 120, 195, 193, 119, 195, 120, 3, 5.26176
65, 3, bw, filler, NA, 999, 999, 5, 17, 115, 85, 60, 170, 150, 106, 3, 2.3034
65, 3, bw, filler, NA, 999, 999, 5, 17, 115, 85, 60, 170, 150, 106, 1, 0.90597
65, 3, bw, attraction, a-b-da, 5, 3, 5, 18, 195, 120, 120, 195, 190, 117, 2, 4.51578
65, 3, bw, attraction, a-b-da, 5, 3, 5, 18, 195, 120, 120, 195, 190, 117, 3, 0.668851
65, 3, bw, attraction, a-b-da, 14, 3, 5, 19, 181, 111, 195, 120, 120, 195, 2, 4.07197
65, 3, bw, attraction, a-b-da, 14, 3, 5, 19, 181, 111, 195, 120, 120, 195, 1, 0.667412
65, 3, bw, attraction, a-b-db, 14, 1, 5, 20, 56, 125, 60, 135, 135, 60, 2, 2.9023
65, 3, bw, attraction, a-b-db, 14, 1, 5, 20, 56, 125, 60, 135, 135, 60, 1, 0.600943
65, 3, bw, attraction, a-b-db, 9, 3, 5, 21, 114, 186, 195, 120, 120, 195, 3, 2.5745
65, 3, bw, attraction, a-b-db, 9, 3, 5, 21, 114, 186, 195, 120, 120, 195, 2, 0.653766
65, 3, bw, catch, NA, 999, 999, 5, 22, 101, 94, 167, 148, 108, 147, 2, 1.68938
65, 3, bw, catch, NA, 999, 999, 5, 22, 101, 94, 167, 148, 108, 147, 1, 0.724315
65, 3, bw, attraction, a-b-db, 2, 3, 5, 23, 119, 193, 120, 195, 195, 120, 2, 7.24456
65, 3, bw, attraction, a-b-db, 2, 3, 5, 23, 119, 193, 120, 195, 195, 120, 3, 1.07167
65, 3, bw, attraction, a-b-da, 9, 1, 5, 24, 129, 57, 135, 60, 60, 135, 3, 1.8186
65, 3, bw, attraction, a-b-da, 9, 1, 5, 24, 129, 57, 135, 60, 60, 135, 2, 0.488713
65, 3, bw, attraction, a-b-da, 2, 2, 5, 25, 163, 89, 90, 165, 165, 90, 3, 4.68319
65, 3, bw, attraction, a-b-da, 2, 2, 5, 25, 163, 89, 90, 165, 165, 90, 1, 1.10166
65, 3, bw, attraction, a-b-da, 9, 3, 5, 26, 120, 195, 195, 120, 186, 114, 1, 6.71916
65, 3, bw, attraction, a-b-da, 9, 3, 5, 26, 120, 195, 195, 120, 186, 114, 3, 0.823733
65, 3, bw, attraction, a-b-db, 14, 2, 5, 27, 165, 90, 90, 165, 83, 153, 2, 1.32414
65, 3, bw, attraction, a-b-db, 14, 2, 5, 27, 165, 90, 90, 165, 83, 153, 1, 0.805692
65, 3, bw, attraction, a-b-da, 14, 2, 5, 28, 90, 165, 153, 83, 165, 90, 1, 2.41146
65, 3, bw, attraction, a-b-da, 14, 2, 5, 28, 90, 165, 153, 83, 165, 90, 2, 0.713271
65, 3, bw, attraction, a-b-da, 2, 1, 5, 29, 60, 135, 134, 59, 135, 60, 3, 3.17036
65, 3, bw, attraction, a-b-da, 2, 1, 5, 29, 60, 135, 134, 59, 135, 60, 1, 1.54598
65, 3, bw, attraction, a-b-db, 9, 1, 5, 30, 135, 60, 57, 129, 60, 135, 3, 5.30549
65, 3, bw, attraction, a-b-db, 9, 1, 5, 30, 135, 60, 57, 129, 60, 135, 2, 0.763211
65, 3, bw, attraction, a-b-db, 5, 1, 5, 31, 60, 135, 58, 132, 135, 60, 1, 2.48206
65, 3, bw, attraction, a-b-db, 5, 1, 5, 31, 60, 135, 58, 132, 135, 60, 2, 0.97327
65, 3, bw, attraction, a-b-db, 14, 3, 5, 32, 111, 181, 120, 195, 195, 120, 2, 2.74024
65, 3, bw, attraction, a-b-db, 14, 3, 5, 32, 111, 181, 120, 195, 195, 120, 1, 1.63682
65, 3, bw, attraction, a-b-da, 9, 2, 5, 33, 90, 165, 157, 86, 165, 90, 1, 3.6488
65, 3, bw, attraction, a-b-da, 9, 2, 5, 33, 90, 165, 157, 86, 165, 90, 2, 0.581086
65, 3, bw, attraction, a-b-db, 5, 2, 5, 34, 165, 90, 88, 161, 90, 165, 2, 7.65135
65, 3, bw, attraction, a-b-db, 5, 2, 5, 34, 165, 90, 88, 161, 90, 165, 1, 1.43028
65, 3, bw, attraction, a-b-db, 5, 3, 5, 35, 120, 195, 195, 120, 117, 190, 2, 8.14648
65, 3, bw, attraction, a-b-db, 5, 3, 5, 35, 120, 195, 195, 120, 117, 190, 3, 2.08139
65, 3, bw, filler, NA, 999, 999, 5, 36, 113, 64, 68, 74, 138, 125, 3, 1.07524
65, 3, bw, filler, NA, 999, 999, 5, 36, 113, 64, 68, 74, 138, 125, 2, 0.966893
65, 3, bw, attraction, a-b-db, 2, 2, 5, 37, 90, 165, 89, 163, 165, 90, 2, 6.70177
65, 3, bw, attraction, a-b-db, 2, 2, 5, 37, 90, 165, 89, 163, 165, 90, 1, 0.911072
65, 3, bw, attraction, a-b-db, 9, 1, 6, 1, 57, 129, 135, 60, 60, 135, 3, 1.77617
65, 3, bw, attraction, a-b-db, 9, 1, 6, 1, 57, 129, 135, 60, 60, 135, 1, 0.999469
65, 3, bw, filler, NA, 999, 999, 6, 2, 176, 138, 127, 194, 82, 189, 2, 3.1572
65, 3, bw, filler, NA, 999, 999, 6, 2, 176, 138, 127, 194, 82, 189, 3, 1.25274
65, 3, bw, attraction, a-b-db, 2, 3, 6, 3, 119, 193, 195, 120, 120, 195, 3, 2.76028
65, 3, bw, attraction, a-b-db, 2, 3, 6, 3, 119, 193, 195, 120, 120, 195, 2, 0.600039
65, 3, bw, filler, NA, 999, 999, 6, 4, 93, 117, 123, 140, 103, 160, 2, 5.18988
65, 3, bw, filler, NA, 999, 999, 6, 4, 93, 117, 123, 140, 103, 160, 1, 0.555444
65, 3, bw, attraction, a-b-db, 5, 3, 6, 5, 117, 190, 120, 195, 195, 120, 2, 2.97926
65, 3, bw, attraction, a-b-db, 5, 3, 6, 5, 117, 190, 120, 195, 195, 120, 3, 0.442346
65, 3, bw, attraction, a-b-db, 14, 3, 6, 6, 120, 195, 195, 120, 111, 181, 1, 2.67032
65, 3, bw, attraction, a-b-db, 14, 3, 6, 6, 120, 195, 195, 120, 111, 181, 3, 0.553982
65, 3, bw, attraction, a-b-db, 14, 1, 6, 7, 60, 135, 135, 60, 56, 125, 1, 1.66573
65, 3, bw, attraction, a-b-db, 14, 1, 6, 7, 60, 135, 135, 60, 56, 125, 3, 0.621763
65, 3, bw, filler, NA, 999, 999, 6, 8, 83, 167, 103, 74, 94, 99, 1, 2.24283
65, 3, bw, filler, NA, 999, 999, 6, 8, 83, 167, 103, 74, 94, 99, 2, 0.615585
65, 3, bw, attraction, a-b-da, 9, 2, 6, 9, 165, 90, 157, 86, 90, 165, 3, 4.31659
65, 3, bw, attraction, a-b-da, 9, 2, 6, 9, 165, 90, 157, 86, 90, 165, 2, 0.853881
65, 3, bw, filler, NA, 999, 999, 6, 10, 87, 146, 93, 188, 86, 109, 2, 1.81752
65, 3, bw, filler, NA, 999, 999, 6, 10, 87, 146, 93, 188, 86, 109, 3, 0.767693
65, 3, bw, attraction, a-b-db, 5, 2, 6, 11, 88, 161, 90, 165, 165, 90, 2, 11.3106
65, 3, bw, attraction, a-b-db, 5, 2, 6, 11, 88, 161, 90, 165, 165, 90, 1, 0.637935
65, 3, bw, attraction, a-b-db, 5, 1, 6, 12, 58, 132, 135, 60, 60, 135, 1, 3.9542
65, 3, bw, attraction, a-b-db, 5, 1, 6, 12, 58, 132, 135, 60, 60, 135, 2, 0.834297
65, 3, bw, filler, NA, 999, 999, 6, 13, 163, 94, 175, 58, 100, 145, 3, 6.28662
65, 3, bw, filler, NA, 999, 999, 6, 13, 163, 94, 175, 58, 100, 145, 1, 0.744727
65, 3, bw, attraction, a-b-da, 5, 2, 6, 14, 90, 165, 165, 90, 161, 88, 1, 9.15231
65, 3, bw, attraction, a-b-da, 5, 2, 6, 14, 90, 165, 165, 90, 161, 88, 2, 0.966814
65, 3, bw, attraction, a-b-da, 14, 1, 6, 15, 60, 135, 135, 60, 125, 56, 1, 2.70968
65, 3, bw, attraction, a-b-da, 14, 1, 6, 15, 60, 135, 135, 60, 125, 56, 3, 0.719595
65, 3, bw, filler, NA, 999, 999, 6, 16, 169, 98, 174, 92, 95, 155, 3, 11.1766
65, 3, bw, filler, NA, 999, 999, 6, 16, 169, 98, 174, 92, 95, 155, 2, 0.509162
65, 3, bw, attraction, a-b-da, 14, 3, 6, 17, 195, 120, 181, 111, 120, 195, 3, 6.89421
65, 3, bw, attraction, a-b-da, 14, 3, 6, 17, 195, 120, 181, 111, 120, 195, 2, 0.615347
65, 3, bw, attraction, a-b-da, 5, 1, 6, 18, 132, 58, 60, 135, 135, 60, 2, 3.50843
65, 3, bw, attraction, a-b-da, 5, 1, 6, 18, 132, 58, 60, 135, 135, 60, 1, 0.549915
65, 3, bw, filler, NA, 999, 999, 6, 19, 145, 117, 73, 81, 58, 57, 1, 1.00572
65, 3, bw, filler, NA, 999, 999, 6, 19, 145, 117, 73, 81, 58, 57, 3, 0.571961
65, 3, bw, filler, NA, 999, 999, 6, 20, 62, 170, 90, 126, 145, 65, 2, 8.04336
65, 3, bw, filler, NA, 999, 999, 6, 20, 62, 170, 90, 126, 145, 65, 3, 0.685979
65, 3, bw, attraction, a-b-da, 2, 1, 6, 21, 134, 59, 135, 60, 60, 135, 3, 3.90446
65, 3, bw, attraction, a-b-da, 2, 1, 6, 21, 134, 59, 135, 60, 60, 135, 2, 0.834445
65, 3, bw, attraction, a-b-db, 14, 2, 6, 22, 90, 165, 165, 90, 83, 153, 1, 5.25475
65, 3, bw, attraction, a-b-db, 14, 2, 6, 22, 90, 165, 165, 90, 83, 153, 3, 0.57058
65, 3, bw, attraction, a-b-da, 5, 3, 6, 23, 195, 120, 120, 195, 190, 117, 1, 41.8261
65, 3, bw, attraction, a-b-da, 5, 3, 6, 23, 195, 120, 120, 195, 190, 117, 3, 0.611156
65, 3, bw, attraction, a-b-da, 14, 2, 6, 24, 153, 83, 90, 165, 165, 90, 2, 1.44028
65, 3, bw, attraction, a-b-da, 14, 2, 6, 24, 153, 83, 90, 165, 165, 90, 1, 0.461012
65, 3, bw, attraction, a-b-da, 2, 2, 6, 25, 90, 165, 165, 90, 163, 89, 1, 4.16018
65, 3, bw, attraction, a-b-da, 2, 2, 6, 25, 90, 165, 165, 90, 163, 89, 2, 0.535503
65, 3, bw, filler, NA, 999, 999, 6, 26, 167, 177, 68, 177, 186, 186, 3, 1.98402
65, 3, bw, filler, NA, 999, 999, 6, 26, 167, 177, 68, 177, 186, 186, 2, 0.62339
65, 3, bw, attraction, a-b-db, 2, 2, 6, 27, 165, 90, 90, 165, 89, 163, 3, 10.8997
65, 3, bw, attraction, a-b-db, 2, 2, 6, 27, 165, 90, 90, 165, 89, 163, 1, 0.875582
65, 3, bw, catch, NA, 999, 999, 6, 28, 61, 134, 110, 145, 194, 121, 3, 2.46205
65, 3, bw, catch, NA, 999, 999, 6, 28, 61, 134, 110, 145, 194, 121, 1, 1.57779
65, 3, bw, attraction, a-b-db, 9, 3, 6, 29, 195, 120, 114, 186, 120, 195, 3, 3.728
65, 3, bw, attraction, a-b-db, 9, 3, 6, 29, 195, 120, 114, 186, 120, 195, 2, 0.464756
65, 3, bw, attraction, a-b-db, 2, 1, 6, 30, 60, 135, 59, 134, 135, 60, 1, 8.66796
65, 3, bw, attraction, a-b-db, 2, 1, 6, 30, 60, 135, 59, 134, 135, 60, 3, 4.82197
65, 3, bw, catch, NA, 999, 999, 6, 31, 178, 137, 164, 91, 105, 90, 1, 1.60159
65, 3, bw, catch, NA, 999, 999, 6, 31, 178, 137, 164, 91, 105, 90, 3, 0.800371
65, 3, bw, attraction, a-b-da, 9, 1, 6, 32, 135, 60, 60, 135, 129, 57, 2, 3.59006
65, 3, bw, attraction, a-b-da, 9, 1, 6, 32, 135, 60, 60, 135, 129, 57, 1, 0.604305
65, 3, bw, attraction, a-b-da, 2, 3, 6, 33, 193, 119, 120, 195, 195, 120, 2, 5.77816
65, 3, bw, attraction, a-b-da, 2, 3, 6, 33, 193, 119, 120, 195, 195, 120, 3, 0.680179
65, 3, bw, attraction, a-b-db, 9, 2, 6, 34, 86, 157, 90, 165, 165, 90, 2, 6.9065
65, 3, bw, attraction, a-b-db, 9, 2, 6, 34, 86, 157, 90, 165, 165, 90, 1, 0.491019
65, 3, bw, attraction, a-b-da, 9, 3, 6, 35, 186, 114, 120, 195, 195, 120, 2, 6.12495
65, 3, bw, attraction, a-b-da, 9, 3, 6, 35, 186, 114, 120, 195, 195, 120, 1, 0.644979
65, 3, bw, catch, NA, 999, 999, 6, 36, 109, 86, 147, 108, 190, 125, 3, 1.16861
65, 3, bw, catch, NA, 999, 999, 6, 36, 109, 86, 147, 108, 190, 125, 1, 0.704875
65, 3, bw, filler, NA, 999, 999, 6, 37, 189, 111, 109, 98, 180, 136, 3, 2.48258
65, 3, bw, filler, NA, 999, 999, 6, 37, 189, 111, 109, 98, 180, 136, 2, 0.741836
65, 3, bw, attraction, a-b-db, 14, 1, 7, 1, 60, 135, 56, 125, 135, 60, 1, 2.39747
65, 3, bw, attraction, a-b-db, 14, 1, 7, 1, 60, 135, 56, 125, 135, 60, 2, 1.18805
65, 3, bw, filler, NA, 999, 999, 7, 2, 88, 131, 79, 57, 65, 171, 1, 1.4983
65, 3, bw, filler, NA, 999, 999, 7, 2, 88, 131, 79, 57, 65, 171, 2, 0.749161
65, 3, bw, filler, NA, 999, 999, 7, 3, 164, 71, 182, 147, 166, 97, 2, 1.39704
65, 3, bw, filler, NA, 999, 999, 7, 3, 164, 71, 182, 147, 166, 97, 1, 0.539784
65, 3, bw, attraction, a-b-da, 2, 2, 7, 4, 163, 89, 90, 165, 165, 90, 2, 11.9643
65, 3, bw, attraction, a-b-da, 2, 2, 7, 4, 163, 89, 90, 165, 165, 90, 1, 0.881236
65, 3, bw, attraction, a-b-da, 2, 3, 7, 5, 195, 120, 193, 119, 120, 195, 1, 3.27556
65, 3, bw, attraction, a-b-da, 2, 3, 7, 5, 195, 120, 193, 119, 120, 195, 2, 0.854385
65, 3, bw, attraction, a-b-db, 14, 3, 7, 6, 120, 195, 195, 120, 111, 181, 1, 1.78601
65, 3, bw, attraction, a-b-db, 14, 3, 7, 6, 120, 195, 195, 120, 111, 181, 3, 4.00964
65, 3, bw, attraction, a-b-db, 5, 2, 7, 7, 90, 165, 88, 161, 165, 90, 1, 6.27771
65, 3, bw, attraction, a-b-db, 5, 2, 7, 7, 90, 165, 88, 161, 165, 90, 3, 0.679547
65, 3, bw, attraction, a-b-da, 9, 3, 7, 8, 120, 195, 186, 114, 195, 120, 1, 2.14596
65, 3, bw, attraction, a-b-da, 9, 3, 7, 8, 120, 195, 186, 114, 195, 120, 2, 0.954479
65, 3, bw, attraction, a-b-db, 9, 3, 7, 9, 114, 186, 120, 195, 195, 120, 2, 16.3543
65, 3, bw, attraction, a-b-db, 9, 3, 7, 9, 114, 186, 120, 195, 195, 120, 1, 0.774537
65, 3, bw, attraction, a-b-db, 2, 3, 7, 10, 120, 195, 119, 193, 195, 120, 3, 16.5248
65, 3, bw, attraction, a-b-db, 2, 3, 7, 10, 120, 195, 119, 193, 195, 120, 1, 0.682157
65, 3, bw, filler, NA, 999, 999, 7, 11, 76, 88, 59, 108, 82, 192, 3, 1.01263
65, 3, bw, filler, NA, 999, 999, 7, 11, 76, 88, 59, 108, 82, 192, 1, 2.33096
65, 3, bw, attraction, a-b-db, 14, 2, 7, 12, 83, 153, 165, 90, 90, 165, 3, 2.58688
65, 3, bw, attraction, a-b-db, 14, 2, 7, 12, 83, 153, 165, 90, 90, 165, 1, 1.15404
65, 3, bw, attraction, a-b-db, 9, 1, 7, 13, 60, 135, 135, 60, 57, 129, 1, 7.92953
65, 3, bw, attraction, a-b-db, 9, 1, 7, 13, 60, 135, 135, 60, 57, 129, 2, 0.737159
65, 3, bw, attraction, a-b-da, 5, 1, 7, 14, 132, 58, 135, 60, 60, 135, 3, 10.7535
65, 3, bw, attraction, a-b-da, 5, 1, 7, 14, 132, 58, 135, 60, 60, 135, 1, 0.783387
65, 3, bw, attraction, a-b-db, 2, 2, 7, 15, 90, 165, 89, 163, 165, 90, 1, 7.09376
65, 3, bw, attraction, a-b-db, 2, 2, 7, 15, 90, 165, 89, 163, 165, 90, 2, 0.518883
65, 3, bw, filler, NA, 999, 999, 7, 16, 72, 173, 124, 76, 173, 134, 3, 1.08808
65, 3, bw, filler, NA, 999, 999, 7, 16, 72, 173, 124, 76, 173, 134, 2, 0.651004
65, 3, bw, attraction, a-b-db, 2, 1, 7, 17, 135, 60, 59, 134, 60, 135, 1, 10.6386
65, 3, bw, attraction, a-b-db, 2, 1, 7, 17, 135, 60, 59, 134, 60, 135, 2, 0.761353
65, 3, bw, catch, NA, 999, 999, 7, 18, 131, 64, 130, 125, 135, 180, 3, 1.12037
65, 3, bw, catch, NA, 999, 999, 7, 18, 131, 64, 130, 125, 135, 180, 1, 2.14671
65, 3, bw, filler, NA, 999, 999, 7, 19, 131, 146, 86, 158, 185, 140, 3, 2.09799
65, 3, bw, filler, NA, 999, 999, 7, 19, 131, 146, 86, 158, 185, 140, 2, 12.4767
65, 3, bw, attraction, a-b-da, 9, 1, 7, 20, 135, 60, 129, 57, 60, 135, 1, 5.73204
65, 3, bw, attraction, a-b-da, 9, 1, 7, 20, 135, 60, 129, 57, 60, 135, 2, 1.18028
65, 3, bw, catch, NA, 999, 999, 7, 21, 61, 134, 133, 182, 134, 121, 2, 3.03443
65, 3, bw, catch, NA, 999, 999, 7, 21, 61, 134, 133, 182, 134, 121, 1, 1.40747
65, 3, bw, attraction, a-b-db, 5, 3, 7, 22, 117, 190, 120, 195, 195, 120, 2, 8.16426
65, 3, bw, attraction, a-b-db, 5, 3, 7, 22, 117, 190, 120, 195, 195, 120, 1, 0.858416
65, 3, bw, filler, NA, 999, 999, 7, 23, 185, 178, 179, 98, 70, 80, 1, 2.91748
65, 3, bw, filler, NA, 999, 999, 7, 23, 185, 178, 179, 98, 70, 80, 3, 0.654989
65, 3, bw, filler, NA, 999, 999, 7, 24, 71, 80, 159, 116, 70, 174, 2, 1.06685
65, 3, bw, filler, NA, 999, 999, 7, 24, 71, 80, 159, 116, 70, 174, 1, 0.887109
65, 3, bw, attraction, a-b-da, 5, 2, 7, 25, 161, 88, 165, 90, 90, 165, 3, 8.1854
65, 3, bw, attraction, a-b-da, 5, 2, 7, 25, 161, 88, 165, 90, 90, 165, 1, 1.3828
65, 3, bw, attraction, a-b-da, 14, 1, 7, 26, 135, 60, 125, 56, 60, 135, 3, 1.62909
65, 3, bw, attraction, a-b-da, 14, 1, 7, 26, 135, 60, 125, 56, 60, 135, 2, 0.63456
65, 3, bw, attraction, a-b-da, 5, 3, 7, 27, 190, 117, 120, 195, 195, 120, 2, 7.21496
65, 3, bw, attraction, a-b-da, 5, 3, 7, 27, 190, 117, 120, 195, 195, 120, 1, 0.467359
65, 3, bw, catch, NA, 999, 999, 7, 28, 184, 131, 82, 113, 101, 154, 1, 1.15844
65, 3, bw, catch, NA, 999, 999, 7, 28, 184, 131, 82, 113, 101, 154, 2, 0.662745
65, 3, bw, attraction, a-b-db, 9, 2, 7, 29, 90, 165, 165, 90, 86, 157, 2, 4.90572
65, 3, bw, attraction, a-b-db, 9, 2, 7, 29, 90, 165, 165, 90, 86, 157, 1, 0.44287
65, 3, bw, attraction, a-b-da, 2, 1, 7, 30, 134, 59, 60, 135, 135, 60, 2, 2.03878
65, 3, bw, attraction, a-b-da, 2, 1, 7, 30, 134, 59, 60, 135, 135, 60, 1, 0.547308
65, 3, bw, filler, NA, 999, 999, 7, 31, 170, 118, 169, 169, 76, 108, 2, 1.09903
65, 3, bw, filler, NA, 999, 999, 7, 31, 170, 118, 169, 169, 76, 108, 3, 0.662146
65, 3, bw, attraction, a-b-db, 5, 1, 7, 32, 135, 60, 60, 135, 58, 132, 3, 2.05722
65, 3, bw, attraction, a-b-db, 5, 1, 7, 32, 135, 60, 60, 135, 58, 132, 2, 1.05327
65, 3, bw, filler, NA, 999, 999, 7, 33, 181, 83, 182, 56, 69, 134, 1, 2.88885
65, 3, bw, filler, NA, 999, 999, 7, 33, 181, 83, 182, 56, 69, 134, 3, 0.483279
65, 3, bw, filler, NA, 999, 999, 7, 34, 64, 93, 106, 148, 94, 56, 2, 1.62961
65, 3, bw, filler, NA, 999, 999, 7, 34, 64, 93, 106, 148, 94, 56, 3, 2.24313
65, 3, bw, attraction, a-b-da, 14, 2, 7, 35, 153, 83, 90, 165, 165, 90, 2, 5.07836
65, 3, bw, attraction, a-b-da, 14, 2, 7, 35, 153, 83, 90, 165, 165, 90, 1, 0.448714
65, 3, bw, attraction, a-b-da, 14, 3, 7, 36, 181, 111, 120, 195, 195, 120, 2, 2.08444
65, 3, bw, attraction, a-b-da, 14, 3, 7, 36, 181, 111, 120, 195, 195, 120, 1, 1.23187
65, 3, bw, attraction, a-b-da, 9, 2, 7, 37, 90, 165, 165, 90, 157, 86, 1, 3.76412
65, 3, bw, attraction, a-b-da, 9, 2, 7, 37, 90, 165, 165, 90, 157, 86, 2, 1.88359
65, 3, bw, filler, NA, 999, 999, 8, 1, 187, 180, 149, 144, 141, 115, 1, 2.08547
65, 3, bw, filler, NA, 999, 999, 8, 1, 187, 180, 149, 144, 141, 115, 3, 2.03289
65, 3, bw, filler, NA, 999, 999, 8, 2, 63, 139, 182, 152, 62, 105, 2, 1.62087
65, 3, bw, filler, NA, 999, 999, 8, 2, 63, 139, 182, 152, 62, 105, 3, 1.34705
65, 3, bw, attraction, a-b-db, 9, 2, 8, 3, 90, 165, 86, 157, 165, 90, 1, 7.37854
65, 3, bw, attraction, a-b-db, 9, 2, 8, 3, 90, 165, 86, 157, 165, 90, 3, 0.84024
65, 3, bw, attraction, a-b-da, 5, 3, 8, 4, 120, 195, 190, 117, 195, 120, 1, 8.57979
65, 3, bw, attraction, a-b-da, 5, 3, 8, 4, 120, 195, 190, 117, 195, 120, 2, 0.481211
65, 3, bw, filler, NA, 999, 999, 8, 5, 93, 183, 76, 155, 160, 140, 3, 1.38761
65, 3, bw, filler, NA, 999, 999, 8, 5, 93, 183, 76, 155, 160, 140, 2, 0.643262
65, 3, bw, attraction, a-b-da, 5, 2, 8, 6, 165, 90, 161, 88, 90, 165, 3, 4.6068
65, 3, bw, attraction, a-b-da, 5, 2, 8, 6, 165, 90, 161, 88, 90, 165, 2, 0.468007
65, 3, bw, filler, NA, 999, 999, 8, 7, 100, 165, 173, 65, 169, 144, 3, 1.24721
65, 3, bw, filler, NA, 999, 999, 8, 7, 100, 165, 173, 65, 169, 144, 2, 3.67614
65, 3, bw, attraction, a-b-db, 2, 3, 8, 8, 119, 193, 195, 120, 120, 195, 3, 3.65355
65, 3, bw, attraction, a-b-db, 2, 3, 8, 8, 119, 193, 195, 120, 120, 195, 2, 0.753888
65, 3, bw, attraction, a-b-da, 14, 1, 8, 9, 60, 135, 125, 56, 135, 60, 1, 4.14552
65, 3, bw, attraction, a-b-da, 14, 1, 8, 9, 60, 135, 125, 56, 135, 60, 2, 0.689555
65, 3, bw, catch, NA, 999, 999, 8, 10, 159, 156, 125, 70, 151, 104, 1, 0.963849
65, 3, bw, catch, NA, 999, 999, 8, 10, 159, 156, 125, 70, 151, 104, 2, 0.652142
65, 3, bw, filler, NA, 999, 999, 8, 11, 146, 99, 104, 173, 170, 193, 3, 1.22394
65, 3, bw, filler, NA, 999, 999, 8, 11, 146, 99, 104, 173, 170, 193, 1, 2.06964
65, 3, bw, attraction, a-b-da, 9, 1, 8, 12, 60, 135, 135, 60, 129, 57, 1, 4.60817
65, 3, bw, attraction, a-b-da, 9, 1, 8, 12, 60, 135, 135, 60, 129, 57, 2, 1.29337
65, 3, bw, filler, NA, 999, 999, 8, 13, 181, 106, 70, 64, 154, 181, 3, 2.55883
65, 3, bw, filler, NA, 999, 999, 8, 13, 181, 106, 70, 64, 154, 181, 2, 0.670724
65, 3, bw, attraction, a-b-db, 5, 3, 8, 14, 195, 120, 117, 190, 120, 195, 2, 3.15383
65, 3, bw, attraction, a-b-db, 5, 3, 8, 14, 195, 120, 117, 190, 120, 195, 1, 0.730162
65, 3, bw, attraction, a-b-da, 14, 3, 8, 15, 195, 120, 120, 195, 181, 111, 2, 2.33058
65, 3, bw, attraction, a-b-da, 14, 3, 8, 15, 195, 120, 120, 195, 181, 111, 1, 1.57978
65, 3, bw, filler, NA, 999, 999, 8, 16, 180, 58, 69, 152, 126, 79, 1, 7.8259
65, 3, bw, filler, NA, 999, 999, 8, 16, 180, 58, 69, 152, 126, 79, 3, 1.37344
65, 3, bw, attraction, a-b-db, 14, 1, 8, 17, 60, 135, 135, 60, 56, 125, 1, 11.7002
65, 3, bw, attraction, a-b-db, 14, 1, 8, 17, 60, 135, 135, 60, 56, 125, 3, 1.22787
65, 3, bw, filler, NA, 999, 999, 8, 18, 111, 58, 101, 175, 172, 189, 3, 1.22405
65, 3, bw, filler, NA, 999, 999, 8, 18, 111, 58, 101, 175, 172, 189, 1, 0.797638
65, 3, bw, filler, NA, 999, 999, 8, 19, 137, 99, 66, 137, 159, 72, 1, 4.99546
65, 3, bw, filler, NA, 999, 999, 8, 19, 137, 99, 66, 137, 159, 72, 2, 0.793133
65, 3, bw, attraction, a-b-db, 2, 1, 8, 20, 59, 134, 60, 135, 135, 60, 2, 8.07891
65, 3, bw, attraction, a-b-db, 2, 1, 8, 20, 59, 134, 60, 135, 135, 60, 3, 0.848336
65, 3, bw, attraction, a-b-db, 14, 3, 8, 21, 111, 181, 195, 120, 120, 195, 3, 5.25199
65, 3, bw, attraction, a-b-db, 14, 3, 8, 21, 111, 181, 195, 120, 120, 195, 1, 0.615679
65, 3, bw, attraction, a-b-db, 5, 2, 8, 22, 88, 161, 165, 90, 90, 165, 1, 6.82066
65, 3, bw, attraction, a-b-db, 5, 2, 8, 22, 88, 161, 165, 90, 90, 165, 2, 0.529131
65, 3, bw, filler, NA, 999, 999, 8, 23, 98, 154, 97, 137, 66, 61, 1, 1.18577
65, 3, bw, filler, NA, 999, 999, 8, 23, 98, 154, 97, 137, 66, 61, 3, 0.593343
65, 3, bw, attraction, a-b-da, 2, 2, 8, 24, 163, 89, 90, 165, 165, 90, 2, 5.183
65, 3, bw, attraction, a-b-da, 2, 2, 8, 24, 163, 89, 90, 165, 165, 90, 1, 0.429351
65, 3, bw, attraction, a-b-da, 9, 2, 8, 25, 90, 165, 157, 86, 165, 90, 1, 3.7139
65, 3, bw, attraction, a-b-da, 9, 2, 8, 25, 90, 165, 157, 86, 165, 90, 2, 0.499556
65, 3, bw, attraction, a-b-db, 9, 1, 8, 26, 135, 60, 60, 135, 57, 129, 2, 2.02105
65, 3, bw, attraction, a-b-db, 9, 1, 8, 26, 135, 60, 60, 135, 57, 129, 1, 0.498411
65, 3, bw, attraction, a-b-db, 9, 3, 8, 27, 195, 120, 114, 186, 120, 195, 3, 6.45227
65, 3, bw, attraction, a-b-db, 9, 3, 8, 27, 195, 120, 114, 186, 120, 195, 1, 0.767517
65, 3, bw, catch, NA, 999, 999, 8, 28, 135, 120, 145, 170, 125, 70, 2, 4.87064
65, 3, bw, catch, NA, 999, 999, 8, 28, 135, 120, 145, 170, 125, 70, 3, 0.546312
65, 3, bw, attraction, a-b-db, 14, 2, 8, 29, 83, 153, 165, 90, 90, 165, 3, 1.91358
65, 3, bw, attraction, a-b-db, 14, 2, 8, 29, 83, 153, 165, 90, 90, 165, 1, 2.27554
65, 3, bw, attraction, a-b-da, 9, 3, 8, 30, 186, 114, 195, 120, 120, 195, 3, 6.07745
65, 3, bw, attraction, a-b-da, 9, 3, 8, 30, 186, 114, 195, 120, 120, 195, 1, 0.463537
65, 3, bw, attraction, a-b-da, 2, 3, 8, 31, 195, 120, 193, 119, 120, 195, 1, 6.84257
65, 3, bw, attraction, a-b-da, 2, 3, 8, 31, 195, 120, 193, 119, 120, 195, 2, 0.853758
65, 3, bw, attraction, a-b-da, 5, 1, 8, 32, 132, 58, 60, 135, 135, 60, 2, 5.55339
65, 3, bw, attraction, a-b-da, 5, 1, 8, 32, 132, 58, 60, 135, 135, 60, 3, 1.24901
65, 3, bw, catch, NA, 999, 999, 8, 33, 113, 82, 150, 105, 163, 152, 3, 1.34058
65, 3, bw, catch, NA, 999, 999, 8, 33, 113, 82, 150, 105, 163, 152, 1, 0.509433
65, 3, bw, attraction, a-b-da, 14, 2, 8, 34, 165, 90, 153, 83, 90, 165, 3, 2.77455
65, 3, bw, attraction, a-b-da, 14, 2, 8, 34, 165, 90, 153, 83, 90, 165, 2, 0.429785
65, 3, bw, attraction, a-b-db, 2, 2, 8, 35, 90, 165, 89, 163, 165, 90, 2, 3.02624
65, 3, bw, attraction, a-b-db, 2, 2, 8, 35, 90, 165, 89, 163, 165, 90, 3, 0.583144
65, 3, bw, attraction, a-b-da, 2, 1, 8, 36, 135, 60, 60, 135, 134, 59, 2, 2.51764
65, 3, bw, attraction, a-b-da, 2, 1, 8, 36, 135, 60, 60, 135, 134, 59, 3, 0.695422
65, 3, bw, attraction, a-b-db, 5, 1, 8, 37, 58, 132, 135, 60, 60, 135, 3, 1.77718
65, 3, bw, attraction, a-b-db, 5, 1, 8, 37, 58, 132, 135, 60, 60, 135, 2, 1.29659
