sub_n, computer_n, bw_cond, effect, set, distance, diag, block_n, trial_n, h1, w1, h2, w2, h3, w3, choice, rt 
62, 3, wb, practice, NA, 999, 999, 0, 1, 191, 136, 133, 120, 126, 107, 3, 2.37166
62, 3, wb, practice, NA, 999, 999, 0, 1, 191, 136, 133, 120, 126, 107, 1, 2.2367
62, 3, wb, practice, NA, 999, 999, 0, 2, 138, 77, 82, 183, 116, 88, 1, 3.47693
62, 3, wb, practice, NA, 999, 999, 0, 2, 138, 77, 82, 183, 116, 88, 2, 1.31536
62, 3, wb, practice, NA, 999, 999, 0, 3, 69, 188, 163, 173, 131, 59, 3, 2.34932
62, 3, wb, practice, NA, 999, 999, 0, 3, 69, 188, 163, 173, 131, 59, 2, 0.86242
62, 3, wb, catch, NA, 999, 999, 1, 1, 120, 75, 99, 156, 144, 171, 1, 1.59143
62, 3, wb, catch, NA, 999, 999, 1, 1, 120, 75, 99, 156, 144, 171, 3, 1.12636
62, 3, wb, catch, NA, 999, 999, 1, 2, 82, 113, 137, 118, 124, 191, 1, 1.41441
62, 3, wb, catch, NA, 999, 999, 1, 2, 82, 113, 137, 118, 124, 191, 3, 0.620708
62, 3, wb, attraction, a-b-da, 5, 2, 1, 3, 165, 90, 90, 165, 161, 88, 1, 5.84188
62, 3, wb, attraction, a-b-da, 5, 2, 1, 3, 165, 90, 90, 165, 161, 88, 2, 0.485359
62, 3, wb, attraction, a-b-db, 14, 1, 1, 4, 135, 60, 56, 125, 60, 135, 2, 2.01573
62, 3, wb, attraction, a-b-db, 14, 1, 1, 4, 135, 60, 56, 125, 60, 135, 3, 1.17381
62, 3, wb, attraction, a-b-da, 9, 2, 1, 5, 90, 165, 165, 90, 157, 86, 3, 3.77996
62, 3, wb, attraction, a-b-da, 9, 2, 1, 5, 90, 165, 165, 90, 157, 86, 1, 0.65878
62, 3, wb, attraction, a-b-db, 14, 2, 1, 6, 83, 153, 90, 165, 165, 90, 1, 2.42983
62, 3, wb, attraction, a-b-db, 14, 2, 1, 6, 83, 153, 90, 165, 165, 90, 2, 0.971127
62, 3, wb, attraction, a-b-db, 2, 1, 1, 7, 60, 135, 59, 134, 135, 60, 2, 2.05817
62, 3, wb, attraction, a-b-db, 2, 1, 1, 7, 60, 135, 59, 134, 135, 60, 3, 1.46996
62, 3, wb, catch, NA, 999, 999, 1, 8, 119, 76, 117, 138, 136, 179, 1, 1.29684
62, 3, wb, catch, NA, 999, 999, 1, 8, 119, 76, 117, 138, 136, 179, 3, 0.531705
62, 3, wb, filler, NA, 999, 999, 1, 9, 182, 160, 63, 71, 138, 143, 2, 0.764063
62, 3, wb, filler, NA, 999, 999, 1, 9, 182, 160, 63, 71, 138, 143, 1, 0.572476
62, 3, wb, attraction, a-b-da, 9, 3, 1, 10, 195, 120, 186, 114, 120, 195, 1, 2.66759
62, 3, wb, attraction, a-b-da, 9, 3, 1, 10, 195, 120, 186, 114, 120, 195, 3, 1.15943
62, 3, wb, filler, NA, 999, 999, 1, 11, 122, 73, 154, 140, 145, 74, 1, 1.78237
62, 3, wb, filler, NA, 999, 999, 1, 11, 122, 73, 154, 140, 145, 74, 2, 0.597899
62, 3, wb, attraction, a-b-da, 9, 1, 1, 12, 129, 57, 60, 135, 135, 60, 1, 1.74758
62, 3, wb, attraction, a-b-da, 9, 1, 1, 12, 129, 57, 60, 135, 135, 60, 2, 1.31632
62, 3, wb, filler, NA, 999, 999, 1, 13, 98, 116, 172, 192, 104, 94, 3, 1.14923
62, 3, wb, filler, NA, 999, 999, 1, 13, 98, 116, 172, 192, 104, 94, 2, 1.31813
62, 3, wb, attraction, a-b-da, 2, 2, 1, 14, 163, 89, 90, 165, 165, 90, 1, 1.75893
62, 3, wb, attraction, a-b-da, 2, 2, 1, 14, 163, 89, 90, 165, 165, 90, 2, 1.63106
62, 3, wb, attraction, a-b-db, 5, 1, 1, 15, 135, 60, 58, 132, 60, 135, 2, 2.29114
62, 3, wb, attraction, a-b-db, 5, 1, 1, 15, 135, 60, 58, 132, 60, 135, 1, 1.52576
62, 3, wb, filler, NA, 999, 999, 1, 16, 86, 141, 108, 73, 150, 64, 2, 1.06191
62, 3, wb, filler, NA, 999, 999, 1, 16, 86, 141, 108, 73, 150, 64, 1, 0.578175
62, 3, wb, attraction, a-b-da, 5, 1, 1, 17, 135, 60, 60, 135, 132, 58, 1, 1.41661
62, 3, wb, attraction, a-b-da, 5, 1, 1, 17, 135, 60, 60, 135, 132, 58, 2, 0.62282
62, 3, wb, filler, NA, 999, 999, 1, 18, 61, 99, 132, 107, 104, 148, 1, 1.30781
62, 3, wb, filler, NA, 999, 999, 1, 18, 61, 99, 132, 107, 104, 148, 3, 1.79832
62, 3, wb, attraction, a-b-db, 9, 2, 1, 19, 90, 165, 86, 157, 165, 90, 3, 3.01143
62, 3, wb, attraction, a-b-db, 9, 2, 1, 19, 90, 165, 86, 157, 165, 90, 1, 0.841325
62, 3, wb, attraction, a-b-db, 9, 3, 1, 20, 195, 120, 120, 195, 114, 186, 1, 3.437
62, 3, wb, attraction, a-b-db, 9, 3, 1, 20, 195, 120, 120, 195, 114, 186, 2, 0.625737
62, 3, wb, attraction, a-b-db, 2, 3, 1, 21, 195, 120, 120, 195, 119, 193, 1, 2.17414
62, 3, wb, attraction, a-b-db, 2, 3, 1, 21, 195, 120, 120, 195, 119, 193, 2, 0.805593
62, 3, wb, attraction, a-b-da, 14, 2, 1, 22, 153, 83, 165, 90, 90, 165, 1, 1.24321
62, 3, wb, attraction, a-b-da, 14, 2, 1, 22, 153, 83, 165, 90, 90, 165, 2, 2.00008
62, 3, wb, attraction, a-b-db, 14, 3, 1, 23, 111, 181, 195, 120, 120, 195, 1, 0.757482
62, 3, wb, attraction, a-b-db, 14, 3, 1, 23, 111, 181, 195, 120, 120, 195, 2, 0.989829
62, 3, wb, filler, NA, 999, 999, 1, 24, 188, 74, 182, 106, 126, 134, 1, 1.1562
62, 3, wb, filler, NA, 999, 999, 1, 24, 188, 74, 182, 106, 126, 134, 2, 0.380432
62, 3, wb, attraction, a-b-db, 5, 3, 1, 25, 120, 195, 117, 190, 195, 120, 3, 2.10699
62, 3, wb, attraction, a-b-db, 5, 3, 1, 25, 120, 195, 117, 190, 195, 120, 1, 0.820834
62, 3, wb, attraction, a-b-da, 5, 3, 1, 26, 195, 120, 190, 117, 120, 195, 1, 3.76191
62, 3, wb, attraction, a-b-da, 5, 3, 1, 26, 195, 120, 190, 117, 120, 195, 3, 0.521298
62, 3, wb, attraction, a-b-da, 14, 1, 1, 27, 125, 56, 135, 60, 60, 135, 1, 4.52248
62, 3, wb, attraction, a-b-da, 14, 1, 1, 27, 125, 56, 135, 60, 60, 135, 3, 0.835728
62, 3, wb, attraction, a-b-da, 2, 1, 1, 28, 60, 135, 134, 59, 135, 60, 2, 2.03204
62, 3, wb, attraction, a-b-da, 2, 1, 1, 28, 60, 135, 134, 59, 135, 60, 3, 3.7014
62, 3, wb, attraction, a-b-db, 5, 2, 1, 29, 165, 90, 88, 161, 90, 165, 1, 1.9262
62, 3, wb, attraction, a-b-db, 5, 2, 1, 29, 165, 90, 88, 161, 90, 165, 2, 0.527591
62, 3, wb, filler, NA, 999, 999, 1, 30, 164, 59, 114, 188, 148, 123, 1, 0.943997
62, 3, wb, filler, NA, 999, 999, 1, 30, 164, 59, 114, 188, 148, 123, 3, 0.417009
62, 3, wb, attraction, a-b-db, 9, 1, 1, 31, 60, 135, 135, 60, 57, 129, 1, 0.798274
62, 3, wb, attraction, a-b-db, 9, 1, 1, 31, 60, 135, 135, 60, 57, 129, 2, 0.389188
62, 3, wb, filler, NA, 999, 999, 1, 32, 181, 161, 104, 100, 142, 189, 2, 1.12372
62, 3, wb, filler, NA, 999, 999, 1, 32, 181, 161, 104, 100, 142, 189, 1, 0.349284
62, 3, wb, filler, NA, 999, 999, 1, 33, 185, 134, 91, 185, 85, 173, 3, 0.997203
62, 3, wb, filler, NA, 999, 999, 1, 33, 185, 134, 91, 185, 85, 173, 1, 0.364105
62, 3, wb, filler, NA, 999, 999, 1, 34, 83, 193, 147, 128, 150, 84, 3, 0.875247
62, 3, wb, filler, NA, 999, 999, 1, 34, 83, 193, 147, 128, 150, 84, 2, 0.503038
62, 3, wb, attraction, a-b-da, 2, 3, 1, 35, 120, 195, 193, 119, 195, 120, 2, 1.55272
62, 3, wb, attraction, a-b-da, 2, 3, 1, 35, 120, 195, 193, 119, 195, 120, 1, 0.585589
62, 3, wb, attraction, a-b-da, 14, 3, 1, 36, 120, 195, 181, 111, 195, 120, 2, 2.23197
62, 3, wb, attraction, a-b-da, 14, 3, 1, 36, 120, 195, 181, 111, 195, 120, 3, 0.989358
62, 3, wb, attraction, a-b-db, 2, 2, 1, 37, 89, 163, 90, 165, 165, 90, 3, 2.07561
62, 3, wb, attraction, a-b-db, 2, 2, 1, 37, 89, 163, 90, 165, 165, 90, 2, 0.486888
62, 3, wb, attraction, a-b-da, 9, 3, 2, 1, 186, 114, 120, 195, 195, 120, 1, 2.71338
62, 3, wb, attraction, a-b-da, 9, 3, 2, 1, 186, 114, 120, 195, 195, 120, 2, 0.555133
62, 3, wb, attraction, a-b-db, 2, 2, 2, 2, 165, 90, 90, 165, 89, 163, 1, 1.29908
62, 3, wb, attraction, a-b-db, 2, 2, 2, 2, 165, 90, 90, 165, 89, 163, 2, 0.509766
62, 3, wb, filler, NA, 999, 999, 2, 3, 143, 83, 113, 167, 62, 71, 3, 0.879059
62, 3, wb, filler, NA, 999, 999, 2, 3, 143, 83, 113, 167, 62, 71, 2, 0.538617
62, 3, wb, attraction, a-b-da, 14, 3, 2, 4, 181, 111, 195, 120, 120, 195, 1, 3.82715
62, 3, wb, attraction, a-b-da, 14, 3, 2, 4, 181, 111, 195, 120, 120, 195, 3, 0.792012
62, 3, wb, attraction, a-b-da, 5, 1, 2, 5, 132, 58, 60, 135, 135, 60, 1, 0.86965
62, 3, wb, attraction, a-b-da, 5, 1, 2, 5, 132, 58, 60, 135, 135, 60, 2, 1.35392
62, 3, wb, filler, NA, 999, 999, 2, 6, 194, 191, 74, 137, 144, 63, 3, 1.21758
62, 3, wb, filler, NA, 999, 999, 2, 6, 194, 191, 74, 137, 144, 63, 1, 0.383796
62, 3, wb, attraction, a-b-da, 2, 2, 2, 7, 165, 90, 163, 89, 90, 165, 1, 0.902141
62, 3, wb, attraction, a-b-da, 2, 2, 2, 7, 165, 90, 163, 89, 90, 165, 2, 0.561313
62, 3, wb, filler, NA, 999, 999, 2, 8, 120, 112, 120, 129, 123, 165, 1, 0.944367
62, 3, wb, filler, NA, 999, 999, 2, 8, 120, 112, 120, 129, 123, 165, 3, 0.713491
62, 3, wb, filler, NA, 999, 999, 2, 9, 102, 70, 129, 101, 151, 65, 1, 2.09048
62, 3, wb, filler, NA, 999, 999, 2, 9, 102, 70, 129, 101, 151, 65, 2, 0.645101
62, 3, wb, attraction, a-b-db, 9, 3, 2, 10, 195, 120, 114, 186, 120, 195, 1, 2.51278
62, 3, wb, attraction, a-b-db, 9, 3, 2, 10, 195, 120, 114, 186, 120, 195, 3, 0.354669
62, 3, wb, attraction, a-b-da, 9, 1, 2, 11, 129, 57, 60, 135, 135, 60, 1, 0.882502
62, 3, wb, attraction, a-b-da, 9, 1, 2, 11, 129, 57, 60, 135, 135, 60, 2, 0.630167
62, 3, wb, filler, NA, 999, 999, 2, 12, 105, 82, 136, 124, 57, 72, 3, 0.882758
62, 3, wb, filler, NA, 999, 999, 2, 12, 105, 82, 136, 124, 57, 72, 2, 0.630486
62, 3, wb, attraction, a-b-db, 2, 1, 2, 13, 135, 60, 59, 134, 60, 135, 2, 7.25085
62, 3, wb, attraction, a-b-db, 2, 1, 2, 13, 135, 60, 59, 134, 60, 135, 1, 0.669869
62, 3, wb, attraction, a-b-da, 14, 2, 2, 14, 165, 90, 153, 83, 90, 165, 2, 1.06485
62, 3, wb, attraction, a-b-da, 14, 2, 2, 14, 165, 90, 153, 83, 90, 165, 3, 0.829107
62, 3, wb, attraction, a-b-da, 2, 1, 2, 15, 134, 59, 135, 60, 60, 135, 2, 0.817437
62, 3, wb, attraction, a-b-da, 2, 1, 2, 15, 134, 59, 135, 60, 60, 135, 1, 0.440009
62, 3, wb, filler, NA, 999, 999, 2, 16, 183, 95, 108, 71, 77, 109, 3, 0.875602
62, 3, wb, filler, NA, 999, 999, 2, 16, 183, 95, 108, 71, 77, 109, 1, 0.431289
62, 3, wb, attraction, a-b-da, 9, 2, 2, 17, 90, 165, 165, 90, 157, 86, 3, 1.01981
62, 3, wb, attraction, a-b-da, 9, 2, 2, 17, 90, 165, 165, 90, 157, 86, 1, 0.394184
62, 3, wb, attraction, a-b-da, 2, 3, 2, 18, 120, 195, 193, 119, 195, 120, 1, 0.784004
62, 3, wb, attraction, a-b-da, 2, 3, 2, 18, 120, 195, 193, 119, 195, 120, 2, 0.447721
62, 3, wb, filler, NA, 999, 999, 2, 19, 138, 83, 98, 94, 103, 122, 2, 4.56353
62, 3, wb, filler, NA, 999, 999, 2, 19, 138, 83, 98, 94, 103, 122, 3, 1.48276
62, 3, wb, attraction, a-b-db, 2, 3, 2, 20, 120, 195, 119, 193, 195, 120, 1, 6.93287
62, 3, wb, attraction, a-b-db, 2, 3, 2, 20, 120, 195, 119, 193, 195, 120, 3, 0.644749
62, 3, wb, attraction, a-b-da, 14, 1, 2, 21, 135, 60, 125, 56, 60, 135, 3, 0.904485
62, 3, wb, attraction, a-b-da, 14, 1, 2, 21, 135, 60, 125, 56, 60, 135, 1, 0.810783
62, 3, wb, attraction, a-b-db, 9, 2, 2, 22, 165, 90, 86, 157, 90, 165, 2, 0.791789
62, 3, wb, attraction, a-b-db, 9, 2, 2, 22, 165, 90, 86, 157, 90, 165, 1, 0.366858
62, 3, wb, attraction, a-b-db, 9, 1, 2, 23, 57, 129, 135, 60, 60, 135, 1, 1.03803
62, 3, wb, attraction, a-b-db, 9, 1, 2, 23, 57, 129, 135, 60, 60, 135, 2, 0.522952
62, 3, wb, catch, NA, 999, 999, 2, 24, 129, 66, 118, 137, 140, 175, 1, 0.988161
62, 3, wb, catch, NA, 999, 999, 2, 24, 129, 66, 118, 137, 140, 175, 3, 0.451641
62, 3, wb, filler, NA, 999, 999, 2, 25, 66, 194, 79, 182, 121, 184, 1, 1.03956
62, 3, wb, filler, NA, 999, 999, 2, 25, 66, 194, 79, 182, 121, 184, 3, 0.556533
62, 3, wb, filler, NA, 999, 999, 2, 26, 58, 143, 56, 96, 115, 95, 2, 1.05241
62, 3, wb, filler, NA, 999, 999, 2, 26, 58, 143, 56, 96, 115, 95, 3, 0.681289
62, 3, wb, catch, NA, 999, 999, 2, 27, 120, 75, 123, 192, 155, 100, 1, 3.05178
62, 3, wb, catch, NA, 999, 999, 2, 27, 120, 75, 123, 192, 155, 100, 2, 0.352055
62, 3, wb, attraction, a-b-db, 5, 3, 2, 28, 117, 190, 195, 120, 120, 195, 1, 4.34385
62, 3, wb, attraction, a-b-db, 5, 3, 2, 28, 117, 190, 195, 120, 120, 195, 2, 1.35983
62, 3, wb, attraction, a-b-db, 5, 2, 2, 29, 165, 90, 90, 165, 88, 161, 1, 2.9666
62, 3, wb, attraction, a-b-db, 5, 2, 2, 29, 165, 90, 90, 165, 88, 161, 2, 0.742374
62, 3, wb, attraction, a-b-da, 5, 3, 2, 30, 190, 117, 120, 195, 195, 120, 1, 0.790106
62, 3, wb, attraction, a-b-da, 5, 3, 2, 30, 190, 117, 120, 195, 195, 120, 2, 0.349147
62, 3, wb, attraction, a-b-db, 14, 1, 2, 31, 135, 60, 60, 135, 56, 125, 3, 4.85295
62, 3, wb, attraction, a-b-db, 14, 1, 2, 31, 135, 60, 60, 135, 56, 125, 1, 1.41676
62, 3, wb, filler, NA, 999, 999, 2, 32, 190, 124, 120, 152, 63, 162, 3, 0.901566
62, 3, wb, filler, NA, 999, 999, 2, 32, 190, 124, 120, 152, 63, 162, 1, 0.368579
62, 3, wb, attraction, a-b-db, 5, 1, 2, 33, 58, 132, 135, 60, 60, 135, 1, 1.35174
62, 3, wb, attraction, a-b-db, 5, 1, 2, 33, 58, 132, 135, 60, 60, 135, 2, 0.624774
62, 3, wb, attraction, a-b-da, 5, 2, 2, 34, 90, 165, 165, 90, 161, 88, 3, 0.86117
62, 3, wb, attraction, a-b-da, 5, 2, 2, 34, 90, 165, 165, 90, 161, 88, 1, 1.28941
62, 3, wb, catch, NA, 999, 999, 2, 35, 104, 91, 151, 104, 125, 190, 1, 1.10757
62, 3, wb, catch, NA, 999, 999, 2, 35, 104, 91, 151, 104, 125, 190, 3, 0.430075
62, 3, wb, attraction, a-b-db, 14, 2, 2, 36, 90, 165, 83, 153, 165, 90, 1, 1.21855
62, 3, wb, attraction, a-b-db, 14, 2, 2, 36, 90, 165, 83, 153, 165, 90, 3, 0.544708
62, 3, wb, attraction, a-b-db, 14, 3, 2, 37, 195, 120, 120, 195, 111, 181, 1, 1.74457
62, 3, wb, attraction, a-b-db, 14, 3, 2, 37, 195, 120, 120, 195, 111, 181, 3, 0.489211
62, 3, wb, attraction, a-b-da, 9, 1, 3, 1, 60, 135, 135, 60, 129, 57, 3, 0.97974
62, 3, wb, attraction, a-b-da, 9, 1, 3, 1, 60, 135, 135, 60, 129, 57, 1, 0.539361
62, 3, wb, attraction, a-b-da, 2, 3, 3, 2, 195, 120, 193, 119, 120, 195, 1, 0.731749
62, 3, wb, attraction, a-b-da, 2, 3, 3, 2, 195, 120, 193, 119, 120, 195, 2, 0.42152
62, 3, wb, filler, NA, 999, 999, 3, 3, 181, 59, 172, 167, 156, 103, 1, 0.762722
62, 3, wb, filler, NA, 999, 999, 3, 3, 181, 59, 172, 167, 156, 103, 2, 0.37908
62, 3, wb, filler, NA, 999, 999, 3, 4, 85, 160, 147, 80, 180, 158, 1, 0.761571
62, 3, wb, filler, NA, 999, 999, 3, 4, 85, 160, 147, 80, 180, 158, 3, 0.618072
62, 3, wb, attraction, a-b-db, 2, 3, 3, 5, 119, 193, 195, 120, 120, 195, 3, 0.863135
62, 3, wb, attraction, a-b-db, 2, 3, 3, 5, 119, 193, 195, 120, 120, 195, 2, 0.579512
62, 3, wb, filler, NA, 999, 999, 3, 6, 73, 160, 169, 159, 110, 125, 1, 0.985828
62, 3, wb, filler, NA, 999, 999, 3, 6, 73, 160, 169, 159, 110, 125, 2, 0.377683
62, 3, wb, catch, NA, 999, 999, 3, 7, 91, 104, 106, 149, 132, 183, 1, 0.84797
62, 3, wb, catch, NA, 999, 999, 3, 7, 91, 104, 106, 149, 132, 183, 3, 0.509054
62, 3, wb, attraction, a-b-db, 5, 2, 3, 8, 165, 90, 90, 165, 88, 161, 3, 0.910124
62, 3, wb, attraction, a-b-db, 5, 2, 3, 8, 165, 90, 90, 165, 88, 161, 1, 0.408541
62, 3, wb, filler, NA, 999, 999, 3, 9, 162, 163, 167, 64, 63, 127, 3, 0.765704
62, 3, wb, filler, NA, 999, 999, 3, 9, 162, 163, 167, 64, 63, 127, 1, 0.326037
62, 3, wb, attraction, a-b-da, 9, 3, 3, 10, 120, 195, 195, 120, 186, 114, 1, 0.726537
62, 3, wb, attraction, a-b-da, 9, 3, 3, 10, 120, 195, 195, 120, 186, 114, 3, 0.344275
62, 3, wb, attraction, a-b-da, 14, 2, 3, 11, 90, 165, 165, 90, 153, 83, 3, 0.728267
62, 3, wb, attraction, a-b-da, 14, 2, 3, 11, 90, 165, 165, 90, 153, 83, 1, 0.329896
62, 3, wb, filler, NA, 999, 999, 3, 12, 170, 87, 183, 194, 80, 95, 3, 0.826486
62, 3, wb, filler, NA, 999, 999, 3, 12, 170, 87, 183, 194, 80, 95, 2, 0.280176
62, 3, wb, attraction, a-b-db, 5, 1, 3, 13, 135, 60, 60, 135, 58, 132, 1, 0.754693
62, 3, wb, attraction, a-b-db, 5, 1, 3, 13, 135, 60, 60, 135, 58, 132, 2, 0.323674
62, 3, wb, attraction, a-b-db, 14, 1, 3, 14, 56, 125, 135, 60, 60, 135, 1, 0.676346
62, 3, wb, attraction, a-b-db, 14, 1, 3, 14, 56, 125, 135, 60, 60, 135, 3, 1.12009
62, 3, wb, attraction, a-b-db, 2, 1, 3, 15, 59, 134, 60, 135, 135, 60, 3, 3.93695
62, 3, wb, attraction, a-b-db, 2, 1, 3, 15, 59, 134, 60, 135, 135, 60, 2, 0.345664
62, 3, wb, filler, NA, 999, 999, 3, 16, 151, 148, 125, 83, 148, 115, 2, 1.12942
62, 3, wb, filler, NA, 999, 999, 3, 16, 151, 148, 125, 83, 148, 115, 1, 0.643081
62, 3, wb, attraction, a-b-db, 2, 2, 3, 17, 89, 163, 165, 90, 90, 165, 3, 2.51081
62, 3, wb, attraction, a-b-db, 2, 2, 3, 17, 89, 163, 165, 90, 90, 165, 2, 0.544639
62, 3, wb, filler, NA, 999, 999, 3, 18, 132, 90, 106, 148, 178, 64, 1, 0.808525
62, 3, wb, filler, NA, 999, 999, 3, 18, 132, 90, 106, 148, 178, 64, 2, 0.75083
62, 3, wb, filler, NA, 999, 999, 3, 19, 161, 147, 87, 179, 132, 128, 2, 1.65462
62, 3, wb, filler, NA, 999, 999, 3, 19, 161, 147, 87, 179, 132, 128, 1, 1.13146
62, 3, wb, attraction, a-b-da, 2, 1, 3, 20, 134, 59, 60, 135, 135, 60, 3, 1.33175
62, 3, wb, attraction, a-b-da, 2, 1, 3, 20, 134, 59, 60, 135, 135, 60, 2, 0.45319
62, 3, wb, attraction, a-b-db, 9, 2, 3, 21, 165, 90, 90, 165, 86, 157, 1, 2.99299
62, 3, wb, attraction, a-b-db, 9, 2, 3, 21, 165, 90, 90, 165, 86, 157, 2, 0.359374
62, 3, wb, filler, NA, 999, 999, 3, 22, 90, 194, 171, 155, 175, 172, 1, 0.678391
62, 3, wb, filler, NA, 999, 999, 3, 22, 90, 194, 171, 155, 175, 172, 3, 0.394174
62, 3, wb, attraction, a-b-da, 5, 1, 3, 23, 132, 58, 135, 60, 60, 135, 1, 0.800001
62, 3, wb, attraction, a-b-da, 5, 1, 3, 23, 132, 58, 135, 60, 60, 135, 2, 0.879187
62, 3, wb, catch, NA, 999, 999, 3, 24, 72, 123, 177, 138, 137, 118, 1, 0.657467
62, 3, wb, catch, NA, 999, 999, 3, 24, 72, 123, 177, 138, 137, 118, 2, 0.485933
62, 3, wb, attraction, a-b-db, 9, 1, 3, 25, 60, 135, 135, 60, 57, 129, 1, 0.680427
62, 3, wb, attraction, a-b-db, 9, 1, 3, 25, 60, 135, 135, 60, 57, 129, 2, 0.764143
62, 3, wb, attraction, a-b-da, 9, 2, 3, 26, 90, 165, 157, 86, 165, 90, 2, 4.41119
62, 3, wb, attraction, a-b-da, 9, 2, 3, 26, 90, 165, 157, 86, 165, 90, 1, 0.368524
62, 3, wb, attraction, a-b-da, 2, 2, 3, 27, 90, 165, 163, 89, 165, 90, 1, 0.903615
62, 3, wb, attraction, a-b-da, 2, 2, 3, 27, 90, 165, 163, 89, 165, 90, 3, 0.434559
62, 3, wb, attraction, a-b-da, 5, 3, 3, 28, 195, 120, 120, 195, 190, 117, 1, 1.84719
62, 3, wb, attraction, a-b-da, 5, 3, 3, 28, 195, 120, 120, 195, 190, 117, 2, 0.62786
62, 3, wb, attraction, a-b-da, 14, 1, 3, 29, 125, 56, 60, 135, 135, 60, 3, 1.43225
62, 3, wb, attraction, a-b-da, 14, 1, 3, 29, 125, 56, 60, 135, 135, 60, 2, 0.413712
62, 3, wb, attraction, a-b-db, 14, 3, 3, 30, 111, 181, 195, 120, 120, 195, 3, 0.658855
62, 3, wb, attraction, a-b-db, 14, 3, 3, 30, 111, 181, 195, 120, 120, 195, 2, 0.343434
62, 3, wb, attraction, a-b-db, 5, 3, 3, 31, 117, 190, 195, 120, 120, 195, 3, 0.751241
62, 3, wb, attraction, a-b-db, 5, 3, 3, 31, 117, 190, 195, 120, 120, 195, 2, 0.824273
62, 3, wb, attraction, a-b-db, 14, 2, 3, 32, 83, 153, 165, 90, 90, 165, 2, 1.82048
62, 3, wb, attraction, a-b-db, 14, 2, 3, 32, 83, 153, 165, 90, 90, 165, 3, 1.16268
62, 3, wb, attraction, a-b-da, 14, 3, 3, 33, 195, 120, 120, 195, 181, 111, 3, 1.42567
62, 3, wb, attraction, a-b-da, 14, 3, 3, 33, 195, 120, 120, 195, 181, 111, 2, 0.407085
62, 3, wb, filler, NA, 999, 999, 3, 34, 153, 130, 120, 132, 114, 138, 3, 0.988331
62, 3, wb, filler, NA, 999, 999, 3, 34, 153, 130, 120, 132, 114, 138, 1, 0.651291
62, 3, wb, attraction, a-b-da, 5, 2, 3, 35, 165, 90, 161, 88, 90, 165, 3, 0.742966
62, 3, wb, attraction, a-b-da, 5, 2, 3, 35, 165, 90, 161, 88, 90, 165, 1, 1.07206
62, 3, wb, attraction, a-b-db, 9, 3, 3, 36, 120, 195, 195, 120, 114, 186, 2, 0.811039
62, 3, wb, attraction, a-b-db, 9, 3, 3, 36, 120, 195, 195, 120, 114, 186, 1, 0.58528
62, 3, wb, catch, NA, 999, 999, 3, 37, 152, 163, 102, 93, 136, 119, 2, 1.04769
62, 3, wb, catch, NA, 999, 999, 3, 37, 152, 163, 102, 93, 136, 119, 1, 0.484757
62, 3, wb, attraction, a-b-db, 2, 3, 4, 1, 120, 195, 195, 120, 119, 193, 3, 1.0072
62, 3, wb, attraction, a-b-db, 2, 3, 4, 1, 120, 195, 195, 120, 119, 193, 2, 0.405732
62, 3, wb, attraction, a-b-da, 5, 2, 4, 2, 161, 88, 90, 165, 165, 90, 2, 0.843359
62, 3, wb, attraction, a-b-da, 5, 2, 4, 2, 161, 88, 90, 165, 165, 90, 1, 0.536379
62, 3, wb, attraction, a-b-db, 5, 3, 4, 3, 195, 120, 120, 195, 117, 190, 1, 1.47286
62, 3, wb, attraction, a-b-db, 5, 3, 4, 3, 195, 120, 120, 195, 117, 190, 2, 0.340405
62, 3, wb, attraction, a-b-db, 9, 2, 4, 4, 86, 157, 90, 165, 165, 90, 1, 0.956174
62, 3, wb, attraction, a-b-db, 9, 2, 4, 4, 86, 157, 90, 165, 165, 90, 2, 1.83653
62, 3, wb, attraction, a-b-da, 14, 3, 4, 5, 120, 195, 181, 111, 195, 120, 3, 1.80055
62, 3, wb, attraction, a-b-da, 14, 3, 4, 5, 120, 195, 181, 111, 195, 120, 1, 0.383403
62, 3, wb, filler, NA, 999, 999, 4, 6, 98, 101, 115, 70, 78, 68, 3, 0.669741
62, 3, wb, filler, NA, 999, 999, 4, 6, 98, 101, 115, 70, 78, 68, 1, 0.386322
62, 3, wb, attraction, a-b-da, 5, 3, 4, 7, 120, 195, 190, 117, 195, 120, 1, 1.82475
62, 3, wb, attraction, a-b-da, 5, 3, 4, 7, 120, 195, 190, 117, 195, 120, 2, 0.582206
62, 3, wb, filler, NA, 999, 999, 4, 8, 94, 73, 138, 81, 112, 75, 1, 0.940482
62, 3, wb, filler, NA, 999, 999, 4, 8, 94, 73, 138, 81, 112, 75, 2, 0.373521
62, 3, wb, filler, NA, 999, 999, 4, 9, 183, 166, 64, 56, 189, 57, 2, 0.884114
62, 3, wb, filler, NA, 999, 999, 4, 9, 183, 166, 64, 56, 189, 57, 1, 0.343852
62, 3, wb, filler, NA, 999, 999, 4, 10, 139, 181, 102, 114, 57, 59, 3, 0.639531
62, 3, wb, filler, NA, 999, 999, 4, 10, 139, 181, 102, 114, 57, 59, 1, 0.500618
62, 3, wb, attraction, a-b-da, 9, 3, 4, 11, 195, 120, 120, 195, 186, 114, 1, 0.870414
62, 3, wb, attraction, a-b-da, 9, 3, 4, 11, 195, 120, 120, 195, 186, 114, 2, 0.650797
62, 3, wb, catch, NA, 999, 999, 4, 12, 151, 104, 77, 118, 143, 172, 2, 0.670609
62, 3, wb, catch, NA, 999, 999, 4, 12, 151, 104, 77, 118, 143, 172, 3, 0.554509
62, 3, wb, filler, NA, 999, 999, 4, 13, 79, 132, 195, 163, 56, 193, 1, 1.03405
62, 3, wb, filler, NA, 999, 999, 4, 13, 79, 132, 195, 163, 56, 193, 2, 0.455798
62, 3, wb, catch, NA, 999, 999, 4, 14, 159, 96, 63, 132, 189, 126, 2, 1.34756
62, 3, wb, catch, NA, 999, 999, 4, 14, 159, 96, 63, 132, 189, 126, 3, 0.500467
62, 3, wb, attraction, a-b-da, 5, 1, 4, 15, 132, 58, 135, 60, 60, 135, 1, 4.61427
62, 3, wb, attraction, a-b-da, 5, 1, 4, 15, 132, 58, 135, 60, 60, 135, 3, 0.771391
62, 3, wb, filler, NA, 999, 999, 4, 16, 192, 78, 98, 157, 70, 66, 3, 0.602557
62, 3, wb, filler, NA, 999, 999, 4, 16, 192, 78, 98, 157, 70, 66, 2, 0.713717
62, 3, wb, attraction, a-b-db, 2, 1, 4, 17, 59, 134, 60, 135, 135, 60, 2, 0.906698
62, 3, wb, attraction, a-b-db, 2, 1, 4, 17, 59, 134, 60, 135, 135, 60, 3, 0.501109
62, 3, wb, filler, NA, 999, 999, 4, 18, 137, 195, 97, 58, 140, 66, 2, 0.550811
62, 3, wb, filler, NA, 999, 999, 4, 18, 137, 195, 97, 58, 140, 66, 1, 0.327976
62, 3, wb, attraction, a-b-db, 14, 3, 4, 19, 120, 195, 195, 120, 111, 181, 1, 1.02438
62, 3, wb, attraction, a-b-db, 14, 3, 4, 19, 120, 195, 195, 120, 111, 181, 2, 0.334052
62, 3, wb, attraction, a-b-db, 2, 2, 4, 20, 90, 165, 89, 163, 165, 90, 1, 0.830716
62, 3, wb, attraction, a-b-db, 2, 2, 4, 20, 90, 165, 89, 163, 165, 90, 3, 0.852202
62, 3, wb, filler, NA, 999, 999, 4, 21, 81, 88, 121, 96, 73, 71, 3, 0.832017
62, 3, wb, filler, NA, 999, 999, 4, 21, 81, 88, 121, 96, 73, 71, 2, 0.325661
62, 3, wb, attraction, a-b-db, 5, 1, 4, 22, 60, 135, 58, 132, 135, 60, 2, 0.830286
62, 3, wb, attraction, a-b-db, 5, 1, 4, 22, 60, 135, 58, 132, 135, 60, 3, 0.323939
62, 3, wb, attraction, a-b-da, 14, 2, 4, 23, 153, 83, 90, 165, 165, 90, 1, 1.00446
62, 3, wb, attraction, a-b-da, 14, 2, 4, 23, 153, 83, 90, 165, 165, 90, 2, 0.371485
62, 3, wb, attraction, a-b-db, 14, 1, 4, 24, 56, 125, 60, 135, 135, 60, 2, 1.36264
62, 3, wb, attraction, a-b-db, 14, 1, 4, 24, 56, 125, 60, 135, 135, 60, 3, 0.378758
62, 3, wb, attraction, a-b-db, 14, 2, 4, 25, 90, 165, 83, 153, 165, 90, 3, 0.857192
62, 3, wb, attraction, a-b-db, 14, 2, 4, 25, 90, 165, 83, 153, 165, 90, 2, 0.445778
62, 3, wb, attraction, a-b-da, 2, 1, 4, 26, 134, 59, 60, 135, 135, 60, 3, 2.00939
62, 3, wb, attraction, a-b-da, 2, 1, 4, 26, 134, 59, 60, 135, 135, 60, 2, 0.511545
62, 3, wb, attraction, a-b-da, 2, 2, 4, 27, 163, 89, 90, 165, 165, 90, 3, 0.93666
62, 3, wb, attraction, a-b-da, 2, 2, 4, 27, 163, 89, 90, 165, 165, 90, 2, 0.514271
62, 3, wb, attraction, a-b-db, 9, 1, 4, 28, 135, 60, 57, 129, 60, 135, 1, 2.22729
62, 3, wb, attraction, a-b-db, 9, 1, 4, 28, 135, 60, 57, 129, 60, 135, 2, 0.808572
62, 3, wb, attraction, a-b-db, 9, 3, 4, 29, 195, 120, 114, 186, 120, 195, 1, 2.92561
62, 3, wb, attraction, a-b-db, 9, 3, 4, 29, 195, 120, 114, 186, 120, 195, 3, 0.406721
62, 3, wb, attraction, a-b-da, 14, 1, 4, 30, 125, 56, 60, 135, 135, 60, 1, 1.55589
62, 3, wb, attraction, a-b-da, 14, 1, 4, 30, 125, 56, 60, 135, 135, 60, 2, 1.04407
62, 3, wb, filler, NA, 999, 999, 4, 31, 161, 99, 107, 101, 65, 159, 2, 1.39177
62, 3, wb, filler, NA, 999, 999, 4, 31, 161, 99, 107, 101, 65, 159, 1, 1.57467
62, 3, wb, filler, NA, 999, 999, 4, 32, 150, 144, 113, 98, 72, 179, 2, 2.30075
62, 3, wb, filler, NA, 999, 999, 4, 32, 150, 144, 113, 98, 72, 179, 1, 0.447197
62, 3, wb, attraction, a-b-db, 5, 2, 4, 33, 165, 90, 90, 165, 88, 161, 3, 0.986999
62, 3, wb, attraction, a-b-db, 5, 2, 4, 33, 165, 90, 90, 165, 88, 161, 2, 1.07479
62, 3, wb, attraction, a-b-da, 2, 3, 4, 34, 193, 119, 120, 195, 195, 120, 3, 1.21303
62, 3, wb, attraction, a-b-da, 2, 3, 4, 34, 193, 119, 120, 195, 195, 120, 2, 1.0033
62, 3, wb, attraction, a-b-da, 9, 1, 4, 35, 135, 60, 129, 57, 60, 135, 3, 1.17695
62, 3, wb, attraction, a-b-da, 9, 1, 4, 35, 135, 60, 129, 57, 60, 135, 1, 0.824459
62, 3, wb, catch, NA, 999, 999, 4, 36, 66, 129, 173, 142, 105, 150, 1, 0.884785
62, 3, wb, catch, NA, 999, 999, 4, 36, 66, 129, 173, 142, 105, 150, 2, 0.400412
62, 3, wb, attraction, a-b-da, 9, 2, 4, 37, 165, 90, 157, 86, 90, 165, 2, 1.19039
62, 3, wb, attraction, a-b-da, 9, 2, 4, 37, 165, 90, 157, 86, 90, 165, 3, 0.501308
62, 3, wb, attraction, a-b-db, 14, 3, 5, 1, 111, 181, 195, 120, 120, 195, 1, 7.28568
62, 3, wb, attraction, a-b-db, 14, 3, 5, 1, 111, 181, 195, 120, 120, 195, 2, 0.999333
62, 3, wb, attraction, a-b-db, 14, 1, 5, 2, 60, 135, 135, 60, 56, 125, 3, 0.861001
62, 3, wb, attraction, a-b-db, 14, 1, 5, 2, 60, 135, 135, 60, 56, 125, 2, 0.625458
62, 3, wb, attraction, a-b-da, 14, 1, 5, 3, 125, 56, 60, 135, 135, 60, 1, 0.789814
62, 3, wb, attraction, a-b-da, 14, 1, 5, 3, 125, 56, 60, 135, 135, 60, 2, 0.42082
62, 3, wb, filler, NA, 999, 999, 5, 4, 179, 58, 107, 91, 67, 171, 1, 1.90594
62, 3, wb, filler, NA, 999, 999, 5, 4, 179, 58, 107, 91, 67, 171, 2, 1.14004
62, 3, wb, attraction, a-b-da, 2, 3, 5, 5, 193, 119, 120, 195, 195, 120, 3, 0.948344
62, 3, wb, attraction, a-b-da, 2, 3, 5, 5, 193, 119, 120, 195, 195, 120, 2, 0.565324
62, 3, wb, attraction, a-b-db, 14, 2, 5, 6, 90, 165, 165, 90, 83, 153, 3, 1.82038
62, 3, wb, attraction, a-b-db, 14, 2, 5, 6, 90, 165, 165, 90, 83, 153, 1, 0.490465
62, 3, wb, attraction, a-b-db, 9, 3, 5, 7, 114, 186, 120, 195, 195, 120, 1, 2.57222
62, 3, wb, attraction, a-b-db, 9, 3, 5, 7, 114, 186, 120, 195, 195, 120, 3, 0.395426
62, 3, wb, filler, NA, 999, 999, 5, 8, 128, 191, 84, 166, 77, 132, 3, 1.04132
62, 3, wb, filler, NA, 999, 999, 5, 8, 128, 191, 84, 166, 77, 132, 1, 0.374266
62, 3, wb, attraction, a-b-db, 9, 2, 5, 9, 165, 90, 86, 157, 90, 165, 1, 1.26061
62, 3, wb, attraction, a-b-db, 9, 2, 5, 9, 165, 90, 86, 157, 90, 165, 3, 0.929095
62, 3, wb, attraction, a-b-db, 2, 3, 5, 10, 195, 120, 120, 195, 119, 193, 3, 1.48129
62, 3, wb, attraction, a-b-db, 2, 3, 5, 10, 195, 120, 120, 195, 119, 193, 1, 0.700886
62, 3, wb, attraction, a-b-da, 5, 1, 5, 11, 60, 135, 135, 60, 132, 58, 1, 0.958616
62, 3, wb, attraction, a-b-da, 5, 1, 5, 11, 60, 135, 135, 60, 132, 58, 2, 0.454951
62, 3, wb, catch, NA, 999, 999, 5, 12, 127, 68, 133, 122, 189, 126, 1, 1.13057
62, 3, wb, catch, NA, 999, 999, 5, 12, 127, 68, 133, 122, 189, 126, 3, 0.484229
62, 3, wb, attraction, a-b-da, 2, 1, 5, 13, 134, 59, 135, 60, 60, 135, 1, 1.35884
62, 3, wb, attraction, a-b-da, 2, 1, 5, 13, 134, 59, 135, 60, 60, 135, 2, 0.582888
62, 3, wb, attraction, a-b-da, 14, 3, 5, 14, 181, 111, 195, 120, 120, 195, 1, 2.27744
62, 3, wb, attraction, a-b-da, 14, 3, 5, 14, 181, 111, 195, 120, 120, 195, 3, 0.992576
62, 3, wb, attraction, a-b-db, 5, 1, 5, 15, 60, 135, 58, 132, 135, 60, 3, 1.8943
62, 3, wb, attraction, a-b-db, 5, 1, 5, 15, 60, 135, 58, 132, 135, 60, 1, 0.464993
62, 3, wb, catch, NA, 999, 999, 5, 16, 106, 149, 127, 68, 194, 121, 2, 1.02809
62, 3, wb, catch, NA, 999, 999, 5, 16, 106, 149, 127, 68, 194, 121, 3, 0.59392
62, 3, wb, filler, NA, 999, 999, 5, 17, 188, 58, 170, 81, 145, 102, 1, 1.6476
62, 3, wb, filler, NA, 999, 999, 5, 17, 188, 58, 170, 81, 145, 102, 3, 0.548282
62, 3, wb, attraction, a-b-da, 5, 3, 5, 18, 195, 120, 190, 117, 120, 195, 2, 1.75599
62, 3, wb, attraction, a-b-da, 5, 3, 5, 18, 195, 120, 190, 117, 120, 195, 3, 0.372249
62, 3, wb, attraction, a-b-db, 2, 2, 5, 19, 165, 90, 89, 163, 90, 165, 2, 0.803367
62, 3, wb, attraction, a-b-db, 2, 2, 5, 19, 165, 90, 89, 163, 90, 165, 1, 0.370328
62, 3, wb, attraction, a-b-db, 2, 1, 5, 20, 60, 135, 59, 134, 135, 60, 2, 1.25754
62, 3, wb, attraction, a-b-db, 2, 1, 5, 20, 60, 135, 59, 134, 135, 60, 3, 0.365844
62, 3, wb, filler, NA, 999, 999, 5, 21, 137, 109, 127, 64, 130, 103, 2, 1.06089
62, 3, wb, filler, NA, 999, 999, 5, 21, 137, 109, 127, 64, 130, 103, 1, 0.58524
62, 3, wb, attraction, a-b-db, 5, 3, 5, 22, 195, 120, 120, 195, 117, 190, 1, 1.16767
62, 3, wb, attraction, a-b-db, 5, 3, 5, 22, 195, 120, 120, 195, 117, 190, 2, 0.376034
62, 3, wb, catch, NA, 999, 999, 5, 23, 108, 147, 103, 92, 167, 148, 2, 0.734519
62, 3, wb, catch, NA, 999, 999, 5, 23, 108, 147, 103, 92, 167, 148, 3, 0.384228
62, 3, wb, attraction, a-b-da, 9, 3, 5, 24, 195, 120, 186, 114, 120, 195, 1, 1.16663
62, 3, wb, attraction, a-b-da, 9, 3, 5, 24, 195, 120, 186, 114, 120, 195, 3, 1.37488
62, 3, wb, attraction, a-b-da, 5, 2, 5, 25, 90, 165, 161, 88, 165, 90, 3, 0.741218
62, 3, wb, attraction, a-b-da, 5, 2, 5, 25, 90, 165, 161, 88, 165, 90, 1, 0.486151
62, 3, wb, attraction, a-b-da, 9, 2, 5, 26, 90, 165, 157, 86, 165, 90, 3, 0.744707
62, 3, wb, attraction, a-b-da, 9, 2, 5, 26, 90, 165, 157, 86, 165, 90, 1, 1.45781
62, 3, wb, filler, NA, 999, 999, 5, 27, 106, 150, 124, 77, 191, 75, 2, 0.804595
62, 3, wb, filler, NA, 999, 999, 5, 27, 106, 150, 124, 77, 191, 75, 1, 1.05168
62, 3, wb, filler, NA, 999, 999, 5, 28, 166, 83, 99, 163, 124, 117, 1, 1.1512
62, 3, wb, filler, NA, 999, 999, 5, 28, 166, 83, 99, 163, 124, 117, 2, 2.7442
62, 3, wb, filler, NA, 999, 999, 5, 29, 112, 134, 182, 122, 179, 159, 1, 1.0312
62, 3, wb, filler, NA, 999, 999, 5, 29, 112, 134, 182, 122, 179, 159, 3, 0.38086
62, 3, wb, attraction, a-b-db, 9, 1, 5, 30, 57, 129, 60, 135, 135, 60, 1, 2.41137
62, 3, wb, attraction, a-b-db, 9, 1, 5, 30, 57, 129, 60, 135, 135, 60, 2, 0.329291
62, 3, wb, filler, NA, 999, 999, 5, 31, 170, 89, 98, 60, 154, 56, 2, 0.673808
62, 3, wb, filler, NA, 999, 999, 5, 31, 170, 89, 98, 60, 154, 56, 1, 0.325476
62, 3, wb, filler, NA, 999, 999, 5, 32, 83, 156, 58, 83, 121, 149, 2, 0.694082
62, 3, wb, filler, NA, 999, 999, 5, 32, 83, 156, 58, 83, 121, 149, 3, 0.273056
62, 3, wb, attraction, a-b-da, 2, 2, 5, 33, 165, 90, 163, 89, 90, 165, 2, 2.72433
62, 3, wb, attraction, a-b-da, 2, 2, 5, 33, 165, 90, 163, 89, 90, 165, 3, 0.541445
62, 3, wb, attraction, a-b-db, 5, 2, 5, 34, 90, 165, 165, 90, 88, 161, 1, 3.65325
62, 3, wb, attraction, a-b-db, 5, 2, 5, 34, 90, 165, 165, 90, 88, 161, 3, 1.42535
62, 3, wb, filler, NA, 999, 999, 5, 35, 185, 126, 192, 151, 179, 160, 1, 0.757543
62, 3, wb, filler, NA, 999, 999, 5, 35, 185, 126, 192, 151, 179, 160, 3, 3.07005
62, 3, wb, attraction, a-b-da, 14, 2, 5, 36, 153, 83, 90, 165, 165, 90, 1, 1.16027
62, 3, wb, attraction, a-b-da, 14, 2, 5, 36, 153, 83, 90, 165, 165, 90, 2, 0.336546
62, 3, wb, attraction, a-b-da, 9, 1, 5, 37, 60, 135, 129, 57, 135, 60, 2, 2.56913
62, 3, wb, attraction, a-b-da, 9, 1, 5, 37, 60, 135, 129, 57, 135, 60, 3, 0.808895
62, 3, wb, filler, NA, 999, 999, 6, 1, 107, 58, 190, 96, 72, 113, 1, 0.653833
62, 3, wb, filler, NA, 999, 999, 6, 1, 107, 58, 190, 96, 72, 113, 2, 0.354963
62, 3, wb, attraction, a-b-da, 2, 2, 6, 2, 163, 89, 90, 165, 165, 90, 1, 1.95474
62, 3, wb, attraction, a-b-da, 2, 2, 6, 2, 163, 89, 90, 165, 165, 90, 2, 0.419474
62, 3, wb, attraction, a-b-db, 2, 1, 6, 3, 135, 60, 59, 134, 60, 135, 1, 1.24064
62, 3, wb, attraction, a-b-db, 2, 1, 6, 3, 135, 60, 59, 134, 60, 135, 3, 0.781617
62, 3, wb, attraction, a-b-db, 5, 3, 6, 4, 195, 120, 117, 190, 120, 195, 1, 1.01993
62, 3, wb, attraction, a-b-db, 5, 3, 6, 4, 195, 120, 117, 190, 120, 195, 2, 0.754234
62, 3, wb, filler, NA, 999, 999, 6, 5, 70, 92, 118, 85, 161, 125, 1, 0.802104
62, 3, wb, filler, NA, 999, 999, 6, 5, 70, 92, 118, 85, 161, 125, 3, 0.601047
62, 3, wb, filler, NA, 999, 999, 6, 6, 144, 71, 105, 190, 183, 62, 1, 0.66278
62, 3, wb, filler, NA, 999, 999, 6, 6, 144, 71, 105, 190, 183, 62, 2, 0.507327
62, 3, wb, attraction, a-b-db, 9, 1, 6, 7, 60, 135, 135, 60, 57, 129, 3, 1.50035
62, 3, wb, attraction, a-b-db, 9, 1, 6, 7, 60, 135, 135, 60, 57, 129, 2, 1.02322
62, 3, wb, attraction, a-b-db, 9, 2, 6, 8, 165, 90, 86, 157, 90, 165, 3, 7.16425
62, 3, wb, attraction, a-b-db, 9, 2, 6, 8, 165, 90, 86, 157, 90, 165, 2, 0.882577
62, 3, wb, attraction, a-b-db, 14, 2, 6, 9, 83, 153, 165, 90, 90, 165, 1, 1.71701
62, 3, wb, attraction, a-b-db, 14, 2, 6, 9, 83, 153, 165, 90, 90, 165, 3, 0.415002
62, 3, wb, attraction, a-b-da, 2, 1, 6, 10, 134, 59, 135, 60, 60, 135, 2, 4.13212
62, 3, wb, attraction, a-b-da, 2, 1, 6, 10, 134, 59, 135, 60, 60, 135, 3, 0.716764
62, 3, wb, attraction, a-b-da, 14, 2, 6, 11, 153, 83, 165, 90, 90, 165, 1, 0.893814
62, 3, wb, attraction, a-b-da, 14, 2, 6, 11, 153, 83, 165, 90, 90, 165, 3, 0.512841
62, 3, wb, catch, NA, 999, 999, 6, 12, 173, 142, 150, 105, 77, 118, 3, 0.882059
62, 3, wb, catch, NA, 999, 999, 6, 12, 173, 142, 150, 105, 77, 118, 1, 0.957681
62, 3, wb, attraction, a-b-da, 9, 2, 6, 13, 90, 165, 157, 86, 165, 90, 1, 0.716647
62, 3, wb, attraction, a-b-da, 9, 2, 6, 13, 90, 165, 157, 86, 165, 90, 3, 0.591333
62, 3, wb, attraction, a-b-db, 2, 3, 6, 14, 120, 195, 119, 193, 195, 120, 3, 2.16479
62, 3, wb, attraction, a-b-db, 2, 3, 6, 14, 120, 195, 119, 193, 195, 120, 1, 0.436795
62, 3, wb, attraction, a-b-da, 5, 1, 6, 15, 135, 60, 60, 135, 132, 58, 3, 0.985319
62, 3, wb, attraction, a-b-da, 5, 1, 6, 15, 135, 60, 60, 135, 132, 58, 2, 0.568949
62, 3, wb, filler, NA, 999, 999, 6, 16, 79, 81, 56, 155, 140, 100, 1, 0.640056
62, 3, wb, filler, NA, 999, 999, 6, 16, 79, 81, 56, 155, 140, 100, 3, 0.429271
62, 3, wb, attraction, a-b-da, 5, 3, 6, 17, 190, 117, 195, 120, 120, 195, 1, 1.27362
62, 3, wb, attraction, a-b-da, 5, 3, 6, 17, 190, 117, 195, 120, 120, 195, 2, 0.333229
62, 3, wb, attraction, a-b-db, 14, 1, 6, 18, 135, 60, 56, 125, 60, 135, 2, 2.11773
62, 3, wb, attraction, a-b-db, 14, 1, 6, 18, 135, 60, 56, 125, 60, 135, 3, 0.527627
62, 3, wb, attraction, a-b-db, 5, 1, 6, 19, 135, 60, 60, 135, 58, 132, 2, 5.03216
62, 3, wb, attraction, a-b-db, 5, 1, 6, 19, 135, 60, 60, 135, 58, 132, 3, 0.940469
62, 3, wb, filler, NA, 999, 999, 6, 20, 173, 69, 195, 123, 90, 187, 1, 0.812183
62, 3, wb, filler, NA, 999, 999, 6, 20, 173, 69, 195, 123, 90, 187, 2, 0.490517
62, 3, wb, attraction, a-b-da, 14, 3, 6, 21, 181, 111, 195, 120, 120, 195, 1, 1.6283
62, 3, wb, attraction, a-b-da, 14, 3, 6, 21, 181, 111, 195, 120, 120, 195, 2, 2.70578
62, 3, wb, filler, NA, 999, 999, 6, 22, 175, 65, 119, 60, 112, 64, 3, 1.779
62, 3, wb, filler, NA, 999, 999, 6, 22, 175, 65, 119, 60, 112, 64, 1, 0.874311
62, 3, wb, attraction, a-b-db, 2, 2, 6, 23, 89, 163, 165, 90, 90, 165, 3, 3.14877
62, 3, wb, attraction, a-b-db, 2, 2, 6, 23, 89, 163, 165, 90, 90, 165, 2, 0.356975
62, 3, wb, attraction, a-b-db, 5, 2, 6, 24, 88, 161, 90, 165, 165, 90, 1, 0.988189
62, 3, wb, attraction, a-b-db, 5, 2, 6, 24, 88, 161, 90, 165, 165, 90, 3, 0.459131
62, 3, wb, attraction, a-b-db, 14, 3, 6, 25, 120, 195, 195, 120, 111, 181, 3, 1.02234
62, 3, wb, attraction, a-b-db, 14, 3, 6, 25, 120, 195, 195, 120, 111, 181, 2, 0.491896
62, 3, wb, attraction, a-b-da, 5, 2, 6, 26, 165, 90, 161, 88, 90, 165, 1, 1.53381
62, 3, wb, attraction, a-b-da, 5, 2, 6, 26, 165, 90, 161, 88, 90, 165, 2, 0.351274
62, 3, wb, catch, NA, 999, 999, 6, 27, 183, 132, 123, 72, 116, 139, 2, 0.89515
62, 3, wb, catch, NA, 999, 999, 6, 27, 183, 132, 123, 72, 116, 139, 1, 0.457987
62, 3, wb, attraction, a-b-da, 9, 3, 6, 28, 195, 120, 120, 195, 186, 114, 3, 1.49315
62, 3, wb, attraction, a-b-da, 9, 3, 6, 28, 195, 120, 120, 195, 186, 114, 2, 0.320006
62, 3, wb, filler, NA, 999, 999, 6, 29, 65, 133, 104, 190, 194, 81, 1, 0.745182
62, 3, wb, filler, NA, 999, 999, 6, 29, 65, 133, 104, 190, 194, 81, 2, 0.346304
62, 3, wb, attraction, a-b-da, 2, 3, 6, 30, 193, 119, 120, 195, 195, 120, 1, 0.634261
62, 3, wb, attraction, a-b-da, 2, 3, 6, 30, 193, 119, 120, 195, 195, 120, 2, 0.30387
62, 3, wb, attraction, a-b-db, 9, 3, 6, 31, 195, 120, 114, 186, 120, 195, 1, 1.19374
62, 3, wb, attraction, a-b-db, 9, 3, 6, 31, 195, 120, 114, 186, 120, 195, 3, 0.400751
62, 3, wb, catch, NA, 999, 999, 6, 32, 105, 90, 175, 140, 90, 165, 1, 1.27045
62, 3, wb, catch, NA, 999, 999, 6, 32, 105, 90, 175, 140, 90, 165, 2, 0.434677
62, 3, wb, attraction, a-b-da, 9, 1, 6, 33, 60, 135, 135, 60, 129, 57, 1, 1.31123
62, 3, wb, attraction, a-b-da, 9, 1, 6, 33, 60, 135, 135, 60, 129, 57, 3, 0.505455
62, 3, wb, filler, NA, 999, 999, 6, 34, 103, 185, 130, 169, 122, 114, 3, 2.01919
62, 3, wb, filler, NA, 999, 999, 6, 34, 103, 185, 130, 169, 122, 114, 2, 0.793242
62, 3, wb, filler, NA, 999, 999, 6, 35, 148, 191, 121, 154, 56, 132, 3, 0.726968
62, 3, wb, filler, NA, 999, 999, 6, 35, 148, 191, 121, 154, 56, 132, 1, 0.360675
62, 3, wb, filler, NA, 999, 999, 6, 36, 140, 78, 66, 160, 75, 91, 3, 0.919788
62, 3, wb, filler, NA, 999, 999, 6, 36, 140, 78, 66, 160, 75, 91, 1, 0.362245
62, 3, wb, attraction, a-b-da, 14, 1, 6, 37, 60, 135, 135, 60, 125, 56, 3, 0.833328
62, 3, wb, attraction, a-b-da, 14, 1, 6, 37, 60, 135, 135, 60, 125, 56, 1, 0.519042
62, 3, wb, attraction, a-b-da, 5, 2, 7, 1, 90, 165, 161, 88, 165, 90, 3, 1.35234
62, 3, wb, attraction, a-b-da, 5, 2, 7, 1, 90, 165, 161, 88, 165, 90, 2, 0.497184
62, 3, wb, attraction, a-b-db, 14, 2, 7, 2, 165, 90, 90, 165, 83, 153, 1, 1.61884
62, 3, wb, attraction, a-b-db, 14, 2, 7, 2, 165, 90, 90, 165, 83, 153, 2, 0.393063
62, 3, wb, attraction, a-b-da, 14, 1, 7, 3, 125, 56, 135, 60, 60, 135, 3, 1.10287
62, 3, wb, attraction, a-b-da, 14, 1, 7, 3, 125, 56, 135, 60, 60, 135, 2, 0.537766
62, 3, wb, filler, NA, 999, 999, 7, 4, 99, 99, 194, 159, 82, 187, 1, 0.674207
62, 3, wb, filler, NA, 999, 999, 7, 4, 99, 99, 194, 159, 82, 187, 2, 0.366186
62, 3, wb, attraction, a-b-da, 14, 3, 7, 5, 120, 195, 181, 111, 195, 120, 3, 0.725177
62, 3, wb, attraction, a-b-da, 14, 3, 7, 5, 120, 195, 181, 111, 195, 120, 1, 0.350815
62, 3, wb, attraction, a-b-db, 9, 3, 7, 6, 195, 120, 114, 186, 120, 195, 1, 1.27087
62, 3, wb, attraction, a-b-db, 9, 3, 7, 6, 195, 120, 114, 186, 120, 195, 3, 0.394948
62, 3, wb, attraction, a-b-da, 5, 1, 7, 7, 132, 58, 135, 60, 60, 135, 3, 2.55298
62, 3, wb, attraction, a-b-da, 5, 1, 7, 7, 132, 58, 135, 60, 60, 135, 2, 0.497334
62, 3, wb, filler, NA, 999, 999, 7, 8, 71, 92, 155, 110, 63, 148, 1, 1.53904
62, 3, wb, filler, NA, 999, 999, 7, 8, 71, 92, 155, 110, 63, 148, 2, 0.347836
62, 3, wb, filler, NA, 999, 999, 7, 9, 137, 111, 84, 159, 158, 66, 3, 1.92376
62, 3, wb, filler, NA, 999, 999, 7, 9, 137, 111, 84, 159, 158, 66, 2, 2.94906
62, 3, wb, attraction, a-b-da, 5, 3, 7, 10, 120, 195, 190, 117, 195, 120, 1, 0.988089
62, 3, wb, attraction, a-b-da, 5, 3, 7, 10, 120, 195, 190, 117, 195, 120, 2, 0.362991
62, 3, wb, attraction, a-b-da, 2, 2, 7, 11, 163, 89, 90, 165, 165, 90, 1, 9.97819
62, 3, wb, attraction, a-b-da, 2, 2, 7, 11, 163, 89, 90, 165, 165, 90, 2, 0.495166
62, 3, wb, catch, NA, 999, 999, 7, 12, 61, 134, 161, 94, 152, 163, 1, 0.920868
62, 3, wb, catch, NA, 999, 999, 7, 12, 61, 134, 161, 94, 152, 163, 3, 0.482561
62, 3, wb, filler, NA, 999, 999, 7, 13, 134, 123, 104, 132, 165, 94, 2, 3.64508
62, 3, wb, filler, NA, 999, 999, 7, 13, 134, 123, 104, 132, 165, 94, 1, 3.12126
62, 3, wb, attraction, a-b-da, 9, 1, 7, 14, 135, 60, 60, 135, 129, 57, 2, 5.71342
62, 3, wb, attraction, a-b-da, 9, 1, 7, 14, 135, 60, 60, 135, 129, 57, 3, 0.498429
62, 3, wb, attraction, a-b-da, 2, 1, 7, 15, 60, 135, 134, 59, 135, 60, 3, 1.55625
62, 3, wb, attraction, a-b-da, 2, 1, 7, 15, 60, 135, 134, 59, 135, 60, 2, 0.714803
62, 3, wb, attraction, a-b-db, 5, 1, 7, 16, 58, 132, 135, 60, 60, 135, 1, 1.07732
62, 3, wb, attraction, a-b-db, 5, 1, 7, 16, 58, 132, 135, 60, 60, 135, 2, 0.561016
62, 3, wb, attraction, a-b-da, 9, 3, 7, 17, 120, 195, 195, 120, 186, 114, 3, 2.77613
62, 3, wb, attraction, a-b-da, 9, 3, 7, 17, 120, 195, 195, 120, 186, 114, 1, 0.47276
62, 3, wb, filler, NA, 999, 999, 7, 18, 122, 78, 101, 137, 144, 144, 1, 0.922333
62, 3, wb, filler, NA, 999, 999, 7, 18, 122, 78, 101, 137, 144, 144, 3, 0.460131
62, 3, wb, catch, NA, 999, 999, 7, 19, 163, 92, 151, 164, 104, 91, 3, 0.687134
62, 3, wb, catch, NA, 999, 999, 7, 19, 163, 92, 151, 164, 104, 91, 2, 0.362868
62, 3, wb, attraction, a-b-db, 2, 2, 7, 20, 90, 165, 89, 163, 165, 90, 2, 1.13804
62, 3, wb, attraction, a-b-db, 2, 2, 7, 20, 90, 165, 89, 163, 165, 90, 1, 0.443798
62, 3, wb, attraction, a-b-da, 2, 3, 7, 21, 193, 119, 195, 120, 120, 195, 2, 2.35945
62, 3, wb, attraction, a-b-da, 2, 3, 7, 21, 193, 119, 195, 120, 120, 195, 3, 0.607354
62, 3, wb, attraction, a-b-db, 14, 1, 7, 22, 60, 135, 135, 60, 56, 125, 3, 1.32451
62, 3, wb, attraction, a-b-db, 14, 1, 7, 22, 60, 135, 135, 60, 56, 125, 2, 0.398007
62, 3, wb, attraction, a-b-da, 14, 2, 7, 23, 165, 90, 90, 165, 153, 83, 3, 1.75577
62, 3, wb, attraction, a-b-da, 14, 2, 7, 23, 165, 90, 90, 165, 153, 83, 2, 0.404002
62, 3, wb, attraction, a-b-db, 5, 2, 7, 24, 90, 165, 88, 161, 165, 90, 3, 0.9698
62, 3, wb, attraction, a-b-db, 5, 2, 7, 24, 90, 165, 88, 161, 165, 90, 2, 0.402241
62, 3, wb, filler, NA, 999, 999, 7, 25, 152, 112, 62, 186, 169, 149, 1, 1.312
62, 3, wb, filler, NA, 999, 999, 7, 25, 152, 112, 62, 186, 169, 149, 3, 0.402155
62, 3, wb, filler, NA, 999, 999, 7, 26, 179, 170, 166, 76, 124, 126, 3, 0.959939
62, 3, wb, filler, NA, 999, 999, 7, 26, 179, 170, 166, 76, 124, 126, 1, 0.336432
62, 3, wb, filler, NA, 999, 999, 7, 27, 148, 180, 173, 93, 90, 135, 3, 0.856906
62, 3, wb, filler, NA, 999, 999, 7, 27, 148, 180, 173, 93, 90, 135, 1, 0.829292
62, 3, wb, attraction, a-b-db, 9, 1, 7, 28, 135, 60, 57, 129, 60, 135, 2, 2.14546
62, 3, wb, attraction, a-b-db, 9, 1, 7, 28, 135, 60, 57, 129, 60, 135, 3, 0.730087
62, 3, wb, filler, NA, 999, 999, 7, 29, 139, 104, 171, 114, 188, 149, 1, 1.05045
62, 3, wb, filler, NA, 999, 999, 7, 29, 139, 104, 171, 114, 188, 149, 3, 0.455649
62, 3, wb, catch, NA, 999, 999, 7, 30, 111, 84, 115, 140, 121, 194, 1, 1.19524
62, 3, wb, catch, NA, 999, 999, 7, 30, 111, 84, 115, 140, 121, 194, 3, 0.722263
62, 3, wb, attraction, a-b-db, 2, 3, 7, 31, 195, 120, 119, 193, 120, 195, 1, 1.77936
62, 3, wb, attraction, a-b-db, 2, 3, 7, 31, 195, 120, 119, 193, 120, 195, 3, 0.594691
62, 3, wb, attraction, a-b-db, 14, 3, 7, 32, 120, 195, 111, 181, 195, 120, 3, 1.30451
62, 3, wb, attraction, a-b-db, 14, 3, 7, 32, 120, 195, 111, 181, 195, 120, 2, 0.419346
62, 3, wb, attraction, a-b-da, 9, 2, 7, 33, 165, 90, 157, 86, 90, 165, 2, 1.23257
62, 3, wb, attraction, a-b-da, 9, 2, 7, 33, 165, 90, 157, 86, 90, 165, 3, 0.366168
62, 3, wb, filler, NA, 999, 999, 7, 34, 91, 69, 56, 124, 97, 102, 1, 2.19725
62, 3, wb, filler, NA, 999, 999, 7, 34, 91, 69, 56, 124, 97, 102, 3, 0.379957
62, 3, wb, attraction, a-b-db, 2, 1, 7, 35, 60, 135, 135, 60, 59, 134, 1, 0.618389
62, 3, wb, attraction, a-b-db, 2, 1, 7, 35, 60, 135, 135, 60, 59, 134, 3, 0.696951
62, 3, wb, attraction, a-b-db, 5, 3, 7, 36, 195, 120, 120, 195, 117, 190, 1, 1.2426
62, 3, wb, attraction, a-b-db, 5, 3, 7, 36, 195, 120, 120, 195, 117, 190, 2, 0.559527
62, 3, wb, attraction, a-b-db, 9, 2, 7, 37, 165, 90, 86, 157, 90, 165, 1, 2.32674
62, 3, wb, attraction, a-b-db, 9, 2, 7, 37, 165, 90, 86, 157, 90, 165, 3, 0.679789
62, 3, wb, filler, NA, 999, 999, 8, 1, 171, 155, 128, 141, 168, 118, 2, 1.93014
62, 3, wb, filler, NA, 999, 999, 8, 1, 171, 155, 128, 141, 168, 118, 1, 0.595694
62, 3, wb, attraction, a-b-da, 5, 3, 8, 2, 195, 120, 120, 195, 190, 117, 3, 2.04924
62, 3, wb, attraction, a-b-da, 5, 3, 8, 2, 195, 120, 120, 195, 190, 117, 2, 0.670073
62, 3, wb, attraction, a-b-db, 5, 1, 8, 3, 135, 60, 58, 132, 60, 135, 3, 7.37714
62, 3, wb, attraction, a-b-db, 5, 1, 8, 3, 135, 60, 58, 132, 60, 135, 2, 0.542832
62, 3, wb, catch, NA, 999, 999, 8, 4, 147, 168, 107, 148, 133, 62, 3, 1.09467
62, 3, wb, catch, NA, 999, 999, 8, 4, 147, 168, 107, 148, 133, 62, 1, 0.825532
62, 3, wb, filler, NA, 999, 999, 8, 5, 117, 168, 181, 144, 169, 92, 3, 0.974018
62, 3, wb, filler, NA, 999, 999, 8, 5, 117, 168, 181, 144, 169, 92, 2, 0.341492
62, 3, wb, attraction, a-b-da, 9, 3, 8, 6, 195, 120, 120, 195, 186, 114, 3, 0.557385
62, 3, wb, attraction, a-b-da, 9, 3, 8, 6, 195, 120, 120, 195, 186, 114, 2, 0.46972
62, 3, wb, attraction, a-b-db, 2, 1, 8, 7, 60, 135, 135, 60, 59, 134, 3, 0.552919
62, 3, wb, attraction, a-b-db, 2, 1, 8, 7, 60, 135, 135, 60, 59, 134, 2, 0.41803
62, 3, wb, attraction, a-b-da, 5, 1, 8, 8, 135, 60, 132, 58, 60, 135, 3, 0.567227
62, 3, wb, attraction, a-b-da, 5, 1, 8, 8, 135, 60, 132, 58, 60, 135, 2, 0.511669
62, 3, wb, attraction, a-b-da, 14, 1, 8, 9, 135, 60, 125, 56, 60, 135, 2, 1.57681
62, 3, wb, attraction, a-b-da, 14, 1, 8, 9, 135, 60, 125, 56, 60, 135, 1, 0.616197
62, 3, wb, filler, NA, 999, 999, 8, 10, 93, 151, 189, 144, 123, 105, 1, 1.18131
62, 3, wb, filler, NA, 999, 999, 8, 10, 93, 151, 189, 144, 123, 105, 2, 0.26891
62, 3, wb, attraction, a-b-db, 9, 1, 8, 11, 60, 135, 57, 129, 135, 60, 3, 0.920084
62, 3, wb, attraction, a-b-db, 9, 1, 8, 11, 60, 135, 57, 129, 135, 60, 2, 0.538445
62, 3, wb, filler, NA, 999, 999, 8, 12, 194, 153, 104, 181, 172, 169, 3, 1.21095
62, 3, wb, filler, NA, 999, 999, 8, 12, 194, 153, 104, 181, 172, 169, 2, 1.03328
62, 3, wb, attraction, a-b-db, 14, 3, 8, 13, 120, 195, 111, 181, 195, 120, 2, 1.15744
62, 3, wb, attraction, a-b-db, 14, 3, 8, 13, 120, 195, 111, 181, 195, 120, 3, 0.317741
62, 3, wb, attraction, a-b-da, 2, 3, 8, 14, 193, 119, 195, 120, 120, 195, 2, 0.918979
62, 3, wb, attraction, a-b-da, 2, 3, 8, 14, 193, 119, 195, 120, 120, 195, 3, 0.497362
62, 3, wb, filler, NA, 999, 999, 8, 15, 126, 115, 146, 135, 84, 76, 3, 0.715061
62, 3, wb, filler, NA, 999, 999, 8, 15, 126, 115, 146, 135, 84, 76, 2, 0.389511
62, 3, wb, attraction, a-b-db, 14, 2, 8, 16, 165, 90, 90, 165, 83, 153, 3, 0.732034
62, 3, wb, attraction, a-b-db, 14, 2, 8, 16, 165, 90, 90, 165, 83, 153, 1, 0.677759
62, 3, wb, attraction, a-b-db, 9, 3, 8, 17, 120, 195, 195, 120, 114, 186, 2, 3.47215
62, 3, wb, attraction, a-b-db, 9, 3, 8, 17, 120, 195, 195, 120, 114, 186, 3, 0.483039
62, 3, wb, attraction, a-b-da, 9, 1, 8, 18, 135, 60, 129, 57, 60, 135, 2, 1.1495
62, 3, wb, attraction, a-b-da, 9, 1, 8, 18, 135, 60, 129, 57, 60, 135, 1, 0.510576
62, 3, wb, attraction, a-b-da, 2, 1, 8, 19, 60, 135, 134, 59, 135, 60, 2, 0.671629
62, 3, wb, attraction, a-b-da, 2, 1, 8, 19, 60, 135, 134, 59, 135, 60, 1, 0.41128
62, 3, wb, attraction, a-b-db, 9, 2, 8, 20, 90, 165, 86, 157, 165, 90, 2, 0.792413
62, 3, wb, attraction, a-b-db, 9, 2, 8, 20, 90, 165, 86, 157, 165, 90, 3, 0.52751
62, 3, wb, filler, NA, 999, 999, 8, 21, 160, 79, 162, 82, 186, 193, 1, 2.32788
62, 3, wb, filler, NA, 999, 999, 8, 21, 160, 79, 162, 82, 186, 193, 3, 0.361223
62, 3, wb, attraction, a-b-da, 2, 2, 8, 22, 165, 90, 90, 165, 163, 89, 3, 1.18438
62, 3, wb, attraction, a-b-da, 2, 2, 8, 22, 165, 90, 90, 165, 163, 89, 2, 0.471933
62, 3, wb, catch, NA, 999, 999, 8, 23, 169, 146, 69, 126, 110, 145, 2, 0.859163
62, 3, wb, catch, NA, 999, 999, 8, 23, 169, 146, 69, 126, 110, 145, 1, 0.455407
62, 3, wb, attraction, a-b-db, 5, 2, 8, 24, 90, 165, 88, 161, 165, 90, 2, 0.979196
62, 3, wb, attraction, a-b-db, 5, 2, 8, 24, 90, 165, 88, 161, 165, 90, 3, 0.434912
62, 3, wb, catch, NA, 999, 999, 8, 25, 155, 160, 93, 102, 99, 156, 2, 0.695493
62, 3, wb, catch, NA, 999, 999, 8, 25, 155, 160, 93, 102, 99, 156, 1, 0.38646
62, 3, wb, filler, NA, 999, 999, 8, 26, 75, 133, 72, 71, 125, 149, 2, 0.744922
62, 3, wb, filler, NA, 999, 999, 8, 26, 75, 133, 72, 71, 125, 149, 3, 0.361998
62, 3, wb, attraction, a-b-da, 5, 2, 8, 27, 165, 90, 161, 88, 90, 165, 2, 0.777185
62, 3, wb, attraction, a-b-da, 5, 2, 8, 27, 165, 90, 161, 88, 90, 165, 3, 0.368843
62, 3, wb, attraction, a-b-da, 14, 3, 8, 28, 120, 195, 181, 111, 195, 120, 1, 2.88008
62, 3, wb, attraction, a-b-da, 14, 3, 8, 28, 120, 195, 181, 111, 195, 120, 3, 0.411201
62, 3, wb, attraction, a-b-db, 5, 3, 8, 29, 120, 195, 195, 120, 117, 190, 2, 0.832303
62, 3, wb, attraction, a-b-db, 5, 3, 8, 29, 120, 195, 195, 120, 117, 190, 1, 0.805947
62, 3, wb, filler, NA, 999, 999, 8, 30, 72, 101, 90, 194, 153, 151, 1, 0.971741
62, 3, wb, filler, NA, 999, 999, 8, 30, 72, 101, 90, 194, 153, 151, 3, 0.587391
62, 3, wb, filler, NA, 999, 999, 8, 31, 89, 84, 61, 116, 108, 171, 2, 1.56175
62, 3, wb, filler, NA, 999, 999, 8, 31, 89, 84, 61, 116, 108, 171, 3, 0.345974
62, 3, wb, attraction, a-b-db, 2, 2, 8, 32, 89, 163, 90, 165, 165, 90, 2, 0.745743
62, 3, wb, attraction, a-b-db, 2, 2, 8, 32, 89, 163, 90, 165, 165, 90, 3, 0.554775
62, 3, wb, attraction, a-b-da, 14, 2, 8, 33, 90, 165, 165, 90, 153, 83, 3, 1.6106
62, 3, wb, attraction, a-b-da, 14, 2, 8, 33, 90, 165, 165, 90, 153, 83, 2, 0.75275
62, 3, wb, filler, NA, 999, 999, 8, 34, 72, 97, 140, 154, 114, 117, 1, 0.576561
62, 3, wb, filler, NA, 999, 999, 8, 34, 72, 97, 140, 154, 114, 117, 2, 0.688355
62, 3, wb, attraction, a-b-db, 14, 1, 8, 35, 60, 135, 56, 125, 135, 60, 2, 3.66671
62, 3, wb, attraction, a-b-db, 14, 1, 8, 35, 60, 135, 56, 125, 135, 60, 3, 0.670301
62, 3, wb, attraction, a-b-da, 9, 2, 8, 36, 157, 86, 165, 90, 90, 165, 1, 5.94522
62, 3, wb, attraction, a-b-da, 9, 2, 8, 36, 157, 86, 165, 90, 90, 165, 3, 0.568684
62, 3, wb, attraction, a-b-db, 2, 3, 8, 37, 120, 195, 195, 120, 119, 193, 1, 0.83981
62, 3, wb, attraction, a-b-db, 2, 3, 8, 37, 120, 195, 195, 120, 119, 193, 2, 0.364796
