sub_n, computer_n, bw_cond, effect, set, distance, diag, block_n, trial_n, h1, w1, h2, w2, h3, w3, choice, rt 
73, 3, bw, practice, NA, 999, 999, 0, 1, 179, 74, 143, 139, 144, 172, 3, 9.99129
73, 3, bw, practice, NA, 999, 999, 0, 1, 179, 74, 143, 139, 144, 172, 1, 7.73347
73, 3, bw, practice, NA, 999, 999, 0, 2, 60, 140, 150, 135, 148, 121, 2, 2.91116
73, 3, bw, practice, NA, 999, 999, 0, 2, 60, 140, 150, 135, 148, 121, 1, 1.94781
73, 3, bw, practice, NA, 999, 999, 0, 3, 190, 106, 65, 66, 137, 173, 1, 14.0625
73, 3, bw, practice, NA, 999, 999, 0, 3, 190, 106, 65, 66, 137, 173, 2, 0.766378
73, 3, bw, attraction, a-b-db, 5, 3, 1, 1, 195, 120, 117, 190, 120, 195, 1, 5.78325
73, 3, bw, attraction, a-b-db, 5, 3, 1, 1, 195, 120, 117, 190, 120, 195, 3, 2.87736
73, 3, bw, filler, NA, 999, 999, 1, 2, 155, 108, 145, 121, 80, 79, 2, 3.50307
73, 3, bw, filler, NA, 999, 999, 1, 2, 155, 108, 145, 121, 80, 79, 3, 0.937221
73, 3, bw, attraction, a-b-da, 5, 2, 1, 3, 165, 90, 161, 88, 90, 165, 3, 6.20157
73, 3, bw, attraction, a-b-da, 5, 2, 1, 3, 165, 90, 161, 88, 90, 165, 1, 0.91895
73, 3, bw, filler, NA, 999, 999, 1, 4, 95, 190, 135, 74, 71, 158, 1, 2.45584
73, 3, bw, filler, NA, 999, 999, 1, 4, 95, 190, 135, 74, 71, 158, 2, 1.35582
73, 3, bw, attraction, a-b-da, 9, 1, 1, 5, 135, 60, 60, 135, 129, 57, 1, 6.05128
73, 3, bw, attraction, a-b-da, 9, 1, 1, 5, 135, 60, 60, 135, 129, 57, 2, 1.65487
73, 3, bw, filler, NA, 999, 999, 1, 6, 76, 152, 71, 67, 83, 101, 1, 4.08227
73, 3, bw, filler, NA, 999, 999, 1, 6, 76, 152, 71, 67, 83, 101, 2, 0.452763
73, 3, bw, attraction, a-b-db, 14, 1, 1, 7, 56, 125, 135, 60, 60, 135, 2, 4.96875
73, 3, bw, attraction, a-b-db, 14, 1, 1, 7, 56, 125, 135, 60, 60, 135, 1, 0.823657
73, 3, bw, attraction, a-b-db, 14, 2, 1, 8, 90, 165, 165, 90, 83, 153, 1, 5.24401
73, 3, bw, attraction, a-b-db, 14, 2, 1, 8, 90, 165, 165, 90, 83, 153, 2, 1.64778
73, 3, bw, filler, NA, 999, 999, 1, 9, 69, 118, 138, 108, 98, 141, 2, 6.6913
73, 3, bw, filler, NA, 999, 999, 1, 9, 69, 118, 138, 108, 98, 141, 1, 0.87634
73, 3, bw, attraction, a-b-da, 5, 1, 1, 10, 135, 60, 132, 58, 60, 135, 1, 3.55873
73, 3, bw, attraction, a-b-da, 5, 1, 1, 10, 135, 60, 132, 58, 60, 135, 3, 0.766304
73, 3, bw, catch, NA, 999, 999, 1, 11, 143, 112, 176, 139, 70, 125, 2, 2.32537
73, 3, bw, catch, NA, 999, 999, 1, 11, 143, 112, 176, 139, 70, 125, 3, 0.806583
73, 3, bw, filler, NA, 999, 999, 1, 12, 108, 113, 185, 111, 178, 59, 2, 1.79624
73, 3, bw, filler, NA, 999, 999, 1, 12, 108, 113, 185, 111, 178, 59, 1, 3.05101
73, 3, bw, attraction, a-b-da, 5, 3, 1, 13, 190, 117, 195, 120, 120, 195, 3, 2.766
73, 3, bw, attraction, a-b-da, 5, 3, 1, 13, 190, 117, 195, 120, 120, 195, 2, 1.95775
73, 3, bw, attraction, a-b-da, 14, 3, 1, 14, 195, 120, 120, 195, 181, 111, 2, 3.81242
73, 3, bw, attraction, a-b-da, 14, 3, 1, 14, 195, 120, 120, 195, 181, 111, 3, 0.90609
73, 3, bw, attraction, a-b-db, 9, 3, 1, 15, 120, 195, 114, 186, 195, 120, 1, 3.33169
73, 3, bw, attraction, a-b-db, 9, 3, 1, 15, 120, 195, 114, 186, 195, 120, 3, 2.32438
73, 3, bw, attraction, a-b-db, 9, 2, 1, 16, 90, 165, 86, 157, 165, 90, 1, 3.78035
73, 3, bw, attraction, a-b-db, 9, 2, 1, 16, 90, 165, 86, 157, 165, 90, 2, 0.539128
73, 3, bw, attraction, a-b-da, 14, 2, 1, 17, 90, 165, 153, 83, 165, 90, 1, 2.28357
73, 3, bw, attraction, a-b-da, 14, 2, 1, 17, 90, 165, 153, 83, 165, 90, 2, 1.87082
73, 3, bw, attraction, a-b-da, 2, 2, 1, 18, 163, 89, 165, 90, 90, 165, 2, 4.39348
73, 3, bw, attraction, a-b-da, 2, 2, 1, 18, 163, 89, 165, 90, 90, 165, 1, 1.52754
73, 3, bw, attraction, a-b-da, 9, 2, 1, 19, 90, 165, 157, 86, 165, 90, 1, 3.4715
73, 3, bw, attraction, a-b-da, 9, 2, 1, 19, 90, 165, 157, 86, 165, 90, 3, 0.94715
73, 3, bw, filler, NA, 999, 999, 1, 20, 99, 65, 120, 147, 122, 139, 2, 4.7869
73, 3, bw, filler, NA, 999, 999, 1, 20, 99, 65, 120, 147, 122, 139, 1, 0.98525
73, 3, bw, attraction, a-b-da, 2, 1, 1, 21, 134, 59, 135, 60, 60, 135, 3, 5.56768
73, 3, bw, attraction, a-b-da, 2, 1, 1, 21, 134, 59, 135, 60, 60, 135, 2, 0.703998
73, 3, bw, attraction, a-b-da, 14, 1, 1, 22, 135, 60, 60, 135, 125, 56, 1, 2.58425
73, 3, bw, attraction, a-b-da, 14, 1, 1, 22, 135, 60, 60, 135, 125, 56, 3, 1.84746
73, 3, bw, filler, NA, 999, 999, 1, 23, 175, 161, 121, 164, 137, 166, 1, 2.43471
73, 3, bw, filler, NA, 999, 999, 1, 23, 175, 161, 121, 164, 137, 166, 2, 1.49601
73, 3, bw, filler, NA, 999, 999, 1, 24, 121, 85, 99, 64, 159, 102, 3, 3.94537
73, 3, bw, filler, NA, 999, 999, 1, 24, 121, 85, 99, 64, 159, 102, 2, 0.929533
73, 3, bw, catch, NA, 999, 999, 1, 25, 132, 123, 108, 87, 152, 163, 3, 1.1378
73, 3, bw, catch, NA, 999, 999, 1, 25, 132, 123, 108, 87, 152, 163, 2, 0.722794
73, 3, bw, attraction, a-b-db, 5, 1, 1, 26, 60, 135, 135, 60, 58, 132, 1, 2.04375
73, 3, bw, attraction, a-b-db, 5, 1, 1, 26, 60, 135, 135, 60, 58, 132, 2, 0.528445
73, 3, bw, attraction, a-b-db, 9, 1, 1, 27, 57, 129, 60, 135, 135, 60, 3, 2.79298
73, 3, bw, attraction, a-b-db, 9, 1, 1, 27, 57, 129, 60, 135, 135, 60, 1, 1.27127
73, 3, bw, attraction, a-b-db, 5, 2, 1, 28, 90, 165, 165, 90, 88, 161, 1, 4.06628
73, 3, bw, attraction, a-b-db, 5, 2, 1, 28, 90, 165, 165, 90, 88, 161, 3, 0.589625
73, 3, bw, filler, NA, 999, 999, 1, 29, 84, 162, 127, 161, 193, 195, 3, 1.09205
73, 3, bw, filler, NA, 999, 999, 1, 29, 84, 162, 127, 161, 193, 195, 2, 5.67907
73, 3, bw, attraction, a-b-db, 2, 2, 1, 30, 165, 90, 90, 165, 89, 163, 1, 8.34382
73, 3, bw, attraction, a-b-db, 2, 2, 1, 30, 165, 90, 90, 165, 89, 163, 3, 0.678462
73, 3, bw, attraction, a-b-da, 2, 3, 1, 31, 120, 195, 193, 119, 195, 120, 3, 2.76083
73, 3, bw, attraction, a-b-da, 2, 3, 1, 31, 120, 195, 193, 119, 195, 120, 2, 1.53678
73, 3, bw, attraction, a-b-da, 9, 3, 1, 32, 195, 120, 186, 114, 120, 195, 1, 4.0488
73, 3, bw, attraction, a-b-da, 9, 3, 1, 32, 195, 120, 186, 114, 120, 195, 2, 0.876902
73, 3, bw, filler, NA, 999, 999, 1, 33, 170, 121, 84, 192, 170, 59, 1, 3.89517
73, 3, bw, filler, NA, 999, 999, 1, 33, 170, 121, 84, 192, 170, 59, 3, 1.49726
73, 3, bw, attraction, a-b-db, 2, 3, 1, 34, 119, 193, 120, 195, 195, 120, 2, 4.89881
73, 3, bw, attraction, a-b-db, 2, 3, 1, 34, 119, 193, 120, 195, 195, 120, 3, 1.59664
73, 3, bw, catch, NA, 999, 999, 1, 35, 145, 170, 125, 70, 106, 149, 1, 3.39394
73, 3, bw, catch, NA, 999, 999, 1, 35, 145, 170, 125, 70, 106, 149, 2, 0.712296
73, 3, bw, attraction, a-b-db, 2, 1, 1, 36, 135, 60, 60, 135, 59, 134, 1, 4.56127
73, 3, bw, attraction, a-b-db, 2, 1, 1, 36, 135, 60, 60, 135, 59, 134, 2, 0.880531
73, 3, bw, attraction, a-b-db, 14, 3, 1, 37, 120, 195, 195, 120, 111, 181, 1, 4.33881
73, 3, bw, attraction, a-b-db, 14, 3, 1, 37, 120, 195, 195, 120, 111, 181, 2, 0.483425
73, 3, bw, attraction, a-b-da, 14, 3, 2, 1, 195, 120, 120, 195, 181, 111, 1, 2.05381
73, 3, bw, attraction, a-b-da, 14, 3, 2, 1, 195, 120, 120, 195, 181, 111, 2, 0.546517
73, 3, bw, filler, NA, 999, 999, 2, 2, 157, 87, 159, 93, 157, 123, 3, 1.62631
73, 3, bw, filler, NA, 999, 999, 2, 2, 157, 87, 159, 93, 157, 123, 1, 0.895818
73, 3, bw, attraction, a-b-db, 14, 2, 2, 3, 165, 90, 90, 165, 83, 153, 1, 1.39353
73, 3, bw, attraction, a-b-db, 14, 2, 2, 3, 165, 90, 90, 165, 83, 153, 3, 0.551332
73, 3, bw, attraction, a-b-da, 5, 3, 2, 4, 190, 117, 120, 195, 195, 120, 3, 1.80808
73, 3, bw, attraction, a-b-da, 5, 3, 2, 4, 190, 117, 120, 195, 195, 120, 1, 0.550153
73, 3, bw, attraction, a-b-db, 14, 1, 2, 5, 56, 125, 60, 135, 135, 60, 3, 5.85391
73, 3, bw, attraction, a-b-db, 14, 1, 2, 5, 56, 125, 60, 135, 135, 60, 1, 0.473413
73, 3, bw, attraction, a-b-da, 9, 3, 2, 6, 186, 114, 195, 120, 120, 195, 1, 1.5001
73, 3, bw, attraction, a-b-da, 9, 3, 2, 6, 186, 114, 195, 120, 120, 195, 3, 0.422806
73, 3, bw, catch, NA, 999, 999, 2, 7, 61, 134, 158, 157, 146, 109, 2, 6.91585
73, 3, bw, catch, NA, 999, 999, 2, 7, 61, 134, 158, 157, 146, 109, 1, 0.724294
73, 3, bw, attraction, a-b-db, 2, 3, 2, 8, 195, 120, 120, 195, 119, 193, 1, 3.35678
73, 3, bw, attraction, a-b-db, 2, 3, 2, 8, 195, 120, 120, 195, 119, 193, 3, 0.780289
73, 3, bw, catch, NA, 999, 999, 2, 9, 142, 173, 107, 148, 67, 128, 1, 3.11465
73, 3, bw, catch, NA, 999, 999, 2, 9, 142, 173, 107, 148, 67, 128, 3, 0.684248
73, 3, bw, attraction, a-b-da, 2, 2, 2, 10, 163, 89, 165, 90, 90, 165, 3, 3.34287
73, 3, bw, attraction, a-b-da, 2, 2, 2, 10, 163, 89, 165, 90, 90, 165, 1, 1.74294
73, 3, bw, filler, NA, 999, 999, 2, 11, 67, 177, 118, 151, 178, 84, 3, 1.95041
73, 3, bw, filler, NA, 999, 999, 2, 11, 67, 177, 118, 151, 178, 84, 2, 0.775012
73, 3, bw, attraction, a-b-da, 5, 1, 2, 12, 132, 58, 60, 135, 135, 60, 2, 2.78941
73, 3, bw, attraction, a-b-da, 5, 1, 2, 12, 132, 58, 60, 135, 135, 60, 1, 0.907941
73, 3, bw, attraction, a-b-db, 9, 1, 2, 13, 135, 60, 57, 129, 60, 135, 1, 1.07687
73, 3, bw, attraction, a-b-db, 9, 1, 2, 13, 135, 60, 57, 129, 60, 135, 3, 0.584643
73, 3, bw, filler, NA, 999, 999, 2, 14, 66, 167, 167, 152, 154, 149, 2, 1.92701
73, 3, bw, filler, NA, 999, 999, 2, 14, 66, 167, 167, 152, 154, 149, 1, 0.632301
73, 3, bw, filler, NA, 999, 999, 2, 15, 81, 162, 121, 84, 107, 171, 1, 2.92476
73, 3, bw, filler, NA, 999, 999, 2, 15, 81, 162, 121, 84, 107, 171, 3, 0.653733
73, 3, bw, attraction, a-b-db, 14, 3, 2, 16, 111, 181, 120, 195, 195, 120, 3, 3.07367
73, 3, bw, attraction, a-b-db, 14, 3, 2, 16, 111, 181, 120, 195, 195, 120, 2, 1.24451
73, 3, bw, filler, NA, 999, 999, 2, 17, 81, 98, 189, 190, 132, 178, 2, 4.81617
73, 3, bw, filler, NA, 999, 999, 2, 17, 81, 98, 189, 190, 132, 178, 1, 0.445137
73, 3, bw, attraction, a-b-db, 9, 2, 2, 18, 86, 157, 90, 165, 165, 90, 1, 1.83312
73, 3, bw, attraction, a-b-db, 9, 2, 2, 18, 86, 157, 90, 165, 165, 90, 3, 0.462484
73, 3, bw, attraction, a-b-db, 5, 2, 2, 19, 90, 165, 165, 90, 88, 161, 3, 1.20956
73, 3, bw, attraction, a-b-db, 5, 2, 2, 19, 90, 165, 165, 90, 88, 161, 2, 0.543859
73, 3, bw, attraction, a-b-da, 2, 3, 2, 20, 195, 120, 193, 119, 120, 195, 1, 0.927656
73, 3, bw, attraction, a-b-da, 2, 3, 2, 20, 195, 120, 193, 119, 120, 195, 2, 0.521236
73, 3, bw, attraction, a-b-da, 9, 2, 2, 21, 157, 86, 165, 90, 90, 165, 3, 2.30629
73, 3, bw, attraction, a-b-da, 9, 2, 2, 21, 157, 86, 165, 90, 90, 165, 1, 0.668338
73, 3, bw, catch, NA, 999, 999, 2, 22, 132, 123, 82, 113, 166, 149, 3, 1.15934
73, 3, bw, catch, NA, 999, 999, 2, 22, 132, 123, 82, 113, 166, 149, 2, 0.599671
73, 3, bw, filler, NA, 999, 999, 2, 23, 134, 88, 143, 138, 67, 134, 2, 0.94133
73, 3, bw, filler, NA, 999, 999, 2, 23, 134, 88, 143, 138, 67, 134, 3, 0.62237
73, 3, bw, attraction, a-b-da, 14, 1, 2, 24, 125, 56, 135, 60, 60, 135, 2, 1.17144
73, 3, bw, attraction, a-b-da, 14, 1, 2, 24, 125, 56, 135, 60, 60, 135, 3, 0.867057
73, 3, bw, attraction, a-b-da, 5, 2, 2, 25, 165, 90, 90, 165, 161, 88, 1, 1.16608
73, 3, bw, attraction, a-b-da, 5, 2, 2, 25, 165, 90, 90, 165, 161, 88, 2, 1.55031
73, 3, bw, attraction, a-b-db, 2, 1, 2, 26, 59, 134, 135, 60, 60, 135, 3, 1.5099
73, 3, bw, attraction, a-b-db, 2, 1, 2, 26, 59, 134, 135, 60, 60, 135, 1, 0.664018
73, 3, bw, attraction, a-b-db, 5, 3, 2, 27, 117, 190, 195, 120, 120, 195, 2, 2.4032
73, 3, bw, attraction, a-b-db, 5, 3, 2, 27, 117, 190, 195, 120, 120, 195, 3, 0.689641
73, 3, bw, attraction, a-b-da, 14, 2, 2, 28, 165, 90, 153, 83, 90, 165, 1, 1.05196
73, 3, bw, attraction, a-b-da, 14, 2, 2, 28, 165, 90, 153, 83, 90, 165, 2, 1.41701
73, 3, bw, filler, NA, 999, 999, 2, 29, 82, 152, 75, 176, 124, 129, 3, 1.25373
73, 3, bw, filler, NA, 999, 999, 2, 29, 82, 152, 75, 176, 124, 129, 1, 3.84287
73, 3, bw, filler, NA, 999, 999, 2, 30, 132, 188, 116, 80, 154, 148, 1, 1.99739
73, 3, bw, filler, NA, 999, 999, 2, 30, 132, 188, 116, 80, 154, 148, 2, 0.628141
73, 3, bw, filler, NA, 999, 999, 2, 31, 192, 134, 57, 94, 56, 162, 1, 2.02465
73, 3, bw, filler, NA, 999, 999, 2, 31, 192, 134, 57, 94, 56, 162, 2, 1.12591
73, 3, bw, attraction, a-b-db, 5, 1, 2, 32, 58, 132, 60, 135, 135, 60, 2, 5.5501
73, 3, bw, attraction, a-b-db, 5, 1, 2, 32, 58, 132, 60, 135, 135, 60, 3, 1.41367
73, 3, bw, attraction, a-b-db, 2, 2, 2, 33, 90, 165, 165, 90, 89, 163, 1, 1.70661
73, 3, bw, attraction, a-b-db, 2, 2, 2, 33, 90, 165, 165, 90, 89, 163, 2, 0.404571
73, 3, bw, filler, NA, 999, 999, 2, 34, 96, 184, 110, 128, 143, 146, 3, 0.890498
73, 3, bw, filler, NA, 999, 999, 2, 34, 96, 184, 110, 128, 143, 146, 2, 0.989641
73, 3, bw, attraction, a-b-da, 2, 1, 2, 35, 60, 135, 135, 60, 134, 59, 3, 5.02785
73, 3, bw, attraction, a-b-da, 2, 1, 2, 35, 60, 135, 135, 60, 134, 59, 1, 0.640331
73, 3, bw, attraction, a-b-da, 9, 1, 2, 36, 129, 57, 60, 135, 135, 60, 1, 1.14798
73, 3, bw, attraction, a-b-da, 9, 1, 2, 36, 129, 57, 60, 135, 135, 60, 2, 0.605017
73, 3, bw, attraction, a-b-db, 9, 3, 2, 37, 114, 186, 195, 120, 120, 195, 2, 1.43486
73, 3, bw, attraction, a-b-db, 9, 3, 2, 37, 114, 186, 195, 120, 120, 195, 1, 0.672166
73, 3, bw, attraction, a-b-da, 14, 3, 3, 1, 181, 111, 120, 195, 195, 120, 2, 1.00331
73, 3, bw, attraction, a-b-da, 14, 3, 3, 1, 181, 111, 120, 195, 195, 120, 3, 0.602283
73, 3, bw, attraction, a-b-da, 14, 1, 3, 2, 60, 135, 125, 56, 135, 60, 3, 1.48002
73, 3, bw, attraction, a-b-da, 14, 1, 3, 2, 60, 135, 125, 56, 135, 60, 1, 1.08357
73, 3, bw, attraction, a-b-db, 5, 1, 3, 3, 58, 132, 60, 135, 135, 60, 3, 0.8538
73, 3, bw, attraction, a-b-db, 5, 1, 3, 3, 58, 132, 60, 135, 135, 60, 2, 0.722803
73, 3, bw, attraction, a-b-da, 5, 3, 3, 4, 120, 195, 190, 117, 195, 120, 3, 0.931841
73, 3, bw, attraction, a-b-da, 5, 3, 3, 4, 120, 195, 190, 117, 195, 120, 1, 3.32556
73, 3, bw, attraction, a-b-db, 9, 2, 3, 5, 165, 90, 90, 165, 86, 157, 1, 8.45311
73, 3, bw, attraction, a-b-db, 9, 2, 3, 5, 165, 90, 90, 165, 86, 157, 3, 1.06395
73, 3, bw, catch, NA, 999, 999, 3, 6, 121, 194, 85, 110, 112, 143, 1, 1.5227
73, 3, bw, catch, NA, 999, 999, 3, 6, 121, 194, 85, 110, 112, 143, 2, 0.580152
73, 3, bw, filler, NA, 999, 999, 3, 7, 174, 178, 56, 162, 114, 171, 1, 1.03469
73, 3, bw, filler, NA, 999, 999, 3, 7, 174, 178, 56, 162, 114, 171, 2, 0.592319
73, 3, bw, attraction, a-b-db, 14, 2, 3, 8, 90, 165, 165, 90, 83, 153, 3, 1.02202
73, 3, bw, attraction, a-b-db, 14, 2, 3, 8, 90, 165, 165, 90, 83, 153, 1, 0.707662
73, 3, bw, filler, NA, 999, 999, 3, 9, 151, 155, 113, 194, 145, 191, 3, 1.80475
73, 3, bw, filler, NA, 999, 999, 3, 9, 151, 155, 113, 194, 145, 191, 2, 0.459505
73, 3, bw, attraction, a-b-da, 9, 2, 3, 10, 157, 86, 165, 90, 90, 165, 3, 1.3346
73, 3, bw, attraction, a-b-da, 9, 2, 3, 10, 157, 86, 165, 90, 90, 165, 2, 0.640205
73, 3, bw, catch, NA, 999, 999, 3, 11, 85, 110, 154, 161, 94, 161, 3, 4.63593
73, 3, bw, catch, NA, 999, 999, 3, 11, 85, 110, 154, 161, 94, 161, 1, 1.00845
73, 3, bw, attraction, a-b-da, 5, 2, 3, 12, 90, 165, 165, 90, 161, 88, 1, 1.0135
73, 3, bw, attraction, a-b-da, 5, 2, 3, 12, 90, 165, 165, 90, 161, 88, 3, 0.85967
73, 3, bw, filler, NA, 999, 999, 3, 13, 58, 74, 124, 76, 148, 126, 3, 1.15076
73, 3, bw, filler, NA, 999, 999, 3, 13, 58, 74, 124, 76, 148, 126, 1, 1.34381
73, 3, bw, attraction, a-b-db, 2, 3, 3, 14, 195, 120, 120, 195, 119, 193, 1, 3.73528
73, 3, bw, attraction, a-b-db, 2, 3, 3, 14, 195, 120, 120, 195, 119, 193, 3, 0.480031
73, 3, bw, attraction, a-b-db, 9, 3, 3, 15, 114, 186, 120, 195, 195, 120, 3, 1.14658
73, 3, bw, attraction, a-b-db, 9, 3, 3, 15, 114, 186, 120, 195, 195, 120, 2, 0.339443
73, 3, bw, attraction, a-b-db, 14, 3, 3, 16, 195, 120, 111, 181, 120, 195, 1, 0.988003
73, 3, bw, attraction, a-b-db, 14, 3, 3, 16, 195, 120, 111, 181, 120, 195, 2, 0.499683
73, 3, bw, filler, NA, 999, 999, 3, 17, 159, 155, 177, 62, 94, 86, 1, 1.26935
73, 3, bw, filler, NA, 999, 999, 3, 17, 159, 155, 177, 62, 94, 86, 3, 0.857675
73, 3, bw, attraction, a-b-da, 9, 1, 3, 18, 135, 60, 129, 57, 60, 135, 2, 1.19661
73, 3, bw, attraction, a-b-da, 9, 1, 3, 18, 135, 60, 129, 57, 60, 135, 3, 0.57957
73, 3, bw, filler, NA, 999, 999, 3, 19, 159, 57, 65, 105, 175, 85, 3, 1.778
73, 3, bw, filler, NA, 999, 999, 3, 19, 159, 57, 65, 105, 175, 85, 2, 0.569373
73, 3, bw, attraction, a-b-db, 5, 3, 3, 20, 120, 195, 117, 190, 195, 120, 3, 1.40863
73, 3, bw, attraction, a-b-db, 5, 3, 3, 20, 120, 195, 117, 190, 195, 120, 2, 0.606887
73, 3, bw, catch, NA, 999, 999, 3, 21, 135, 60, 122, 193, 98, 157, 2, 3.38821
73, 3, bw, catch, NA, 999, 999, 3, 21, 135, 60, 122, 193, 98, 157, 1, 1.49807
73, 3, bw, filler, NA, 999, 999, 3, 22, 169, 178, 154, 69, 90, 113, 1, 0.899557
73, 3, bw, filler, NA, 999, 999, 3, 22, 169, 178, 154, 69, 90, 113, 3, 1.83867
73, 3, bw, filler, NA, 999, 999, 3, 23, 172, 147, 173, 57, 86, 109, 1, 0.898551
73, 3, bw, filler, NA, 999, 999, 3, 23, 172, 147, 173, 57, 86, 109, 3, 0.661609
73, 3, bw, attraction, a-b-da, 2, 1, 3, 24, 135, 60, 60, 135, 134, 59, 1, 0.77667
73, 3, bw, attraction, a-b-da, 2, 1, 3, 24, 135, 60, 60, 135, 134, 59, 2, 0.464399
73, 3, bw, attraction, a-b-db, 2, 2, 3, 25, 89, 163, 90, 165, 165, 90, 3, 0.827613
73, 3, bw, attraction, a-b-db, 2, 2, 3, 25, 89, 163, 90, 165, 165, 90, 1, 0.585316
73, 3, bw, attraction, a-b-db, 14, 1, 3, 26, 135, 60, 60, 135, 56, 125, 1, 0.711644
73, 3, bw, attraction, a-b-db, 14, 1, 3, 26, 135, 60, 60, 135, 56, 125, 2, 0.586136
73, 3, bw, attraction, a-b-db, 5, 2, 3, 27, 88, 161, 90, 165, 165, 90, 3, 0.608512
73, 3, bw, attraction, a-b-db, 5, 2, 3, 27, 88, 161, 90, 165, 165, 90, 2, 0.382885
73, 3, bw, attraction, a-b-db, 9, 1, 3, 28, 60, 135, 135, 60, 57, 129, 1, 0.973376
73, 3, bw, attraction, a-b-db, 9, 1, 3, 28, 60, 135, 135, 60, 57, 129, 2, 0.5571
73, 3, bw, attraction, a-b-da, 2, 2, 3, 29, 165, 90, 163, 89, 90, 165, 3, 1.46814
73, 3, bw, attraction, a-b-da, 2, 2, 3, 29, 165, 90, 163, 89, 90, 165, 1, 1.4324
73, 3, bw, attraction, a-b-da, 5, 1, 3, 30, 132, 58, 60, 135, 135, 60, 2, 1.32449
73, 3, bw, attraction, a-b-da, 5, 1, 3, 30, 132, 58, 60, 135, 135, 60, 1, 0.971532
73, 3, bw, attraction, a-b-da, 2, 3, 3, 31, 120, 195, 195, 120, 193, 119, 3, 0.75704
73, 3, bw, attraction, a-b-da, 2, 3, 3, 31, 120, 195, 195, 120, 193, 119, 2, 0.573477
73, 3, bw, attraction, a-b-db, 2, 1, 3, 32, 60, 135, 135, 60, 59, 134, 3, 0.79596
73, 3, bw, attraction, a-b-db, 2, 1, 3, 32, 60, 135, 135, 60, 59, 134, 2, 0.507077
73, 3, bw, filler, NA, 999, 999, 3, 33, 181, 89, 119, 73, 120, 166, 1, 1.59613
73, 3, bw, filler, NA, 999, 999, 3, 33, 181, 89, 119, 73, 120, 166, 2, 2.48293
73, 3, bw, filler, NA, 999, 999, 3, 34, 182, 96, 128, 127, 99, 118, 2, 4.02067
73, 3, bw, filler, NA, 999, 999, 3, 34, 182, 96, 128, 127, 99, 118, 3, 0.722042
73, 3, bw, filler, NA, 999, 999, 3, 35, 115, 61, 149, 180, 80, 171, 2, 2.38733
73, 3, bw, filler, NA, 999, 999, 3, 35, 115, 61, 149, 180, 80, 171, 1, 1.03431
73, 3, bw, attraction, a-b-da, 9, 3, 3, 36, 120, 195, 195, 120, 186, 114, 1, 1.31073
73, 3, bw, attraction, a-b-da, 9, 3, 3, 36, 120, 195, 195, 120, 186, 114, 3, 0.89693
73, 3, bw, attraction, a-b-da, 14, 2, 3, 37, 90, 165, 165, 90, 153, 83, 2, 1.53061
73, 3, bw, attraction, a-b-da, 14, 2, 3, 37, 90, 165, 165, 90, 153, 83, 3, 0.668148
73, 3, bw, attraction, a-b-db, 2, 2, 4, 1, 90, 165, 89, 163, 165, 90, 3, 1.26317
73, 3, bw, attraction, a-b-db, 2, 2, 4, 1, 90, 165, 89, 163, 165, 90, 1, 0.491477
73, 3, bw, attraction, a-b-db, 14, 1, 4, 2, 60, 135, 56, 125, 135, 60, 3, 2.49311
73, 3, bw, attraction, a-b-db, 14, 1, 4, 2, 60, 135, 56, 125, 135, 60, 1, 0.575582
73, 3, bw, attraction, a-b-db, 2, 1, 4, 3, 135, 60, 60, 135, 59, 134, 1, 2.52605
73, 3, bw, attraction, a-b-db, 2, 1, 4, 3, 135, 60, 60, 135, 59, 134, 2, 0.983335
73, 3, bw, catch, NA, 999, 999, 4, 4, 100, 95, 151, 104, 176, 139, 3, 0.493638
73, 3, bw, catch, NA, 999, 999, 4, 4, 100, 95, 151, 104, 176, 139, 2, 0.800776
73, 3, bw, catch, NA, 999, 999, 4, 5, 189, 126, 94, 161, 81, 114, 3, 0.998466
73, 3, bw, catch, NA, 999, 999, 4, 5, 189, 126, 94, 161, 81, 114, 2, 2.62949
73, 3, bw, catch, NA, 999, 999, 4, 6, 93, 162, 193, 122, 134, 61, 2, 1.94516
73, 3, bw, catch, NA, 999, 999, 4, 6, 93, 162, 193, 122, 134, 61, 3, 1.68207
73, 3, bw, attraction, a-b-db, 14, 3, 4, 7, 111, 181, 195, 120, 120, 195, 3, 1.76401
73, 3, bw, attraction, a-b-db, 14, 3, 4, 7, 111, 181, 195, 120, 120, 195, 1, 0.740129
73, 3, bw, attraction, a-b-da, 5, 3, 4, 8, 120, 195, 195, 120, 190, 117, 2, 3.23583
73, 3, bw, attraction, a-b-da, 5, 3, 4, 8, 120, 195, 195, 120, 190, 117, 1, 1.21685
73, 3, bw, attraction, a-b-da, 2, 3, 4, 9, 195, 120, 120, 195, 193, 119, 1, 1.29369
73, 3, bw, attraction, a-b-da, 2, 3, 4, 9, 195, 120, 120, 195, 193, 119, 2, 0.520586
73, 3, bw, filler, NA, 999, 999, 4, 10, 160, 127, 161, 149, 109, 70, 2, 1.30573
73, 3, bw, filler, NA, 999, 999, 4, 10, 160, 127, 161, 149, 109, 70, 3, 0.524002
73, 3, bw, attraction, a-b-da, 2, 2, 4, 11, 163, 89, 90, 165, 165, 90, 2, 0.996359
73, 3, bw, attraction, a-b-da, 2, 2, 4, 11, 163, 89, 90, 165, 165, 90, 3, 0.443423
73, 3, bw, filler, NA, 999, 999, 4, 12, 150, 101, 139, 68, 156, 148, 3, 0.791164
73, 3, bw, filler, NA, 999, 999, 4, 12, 150, 101, 139, 68, 156, 148, 2, 0.574241
73, 3, bw, filler, NA, 999, 999, 4, 13, 118, 100, 172, 127, 84, 182, 2, 0.756724
73, 3, bw, filler, NA, 999, 999, 4, 13, 118, 100, 172, 127, 84, 182, 1, 0.652986
73, 3, bw, filler, NA, 999, 999, 4, 14, 142, 193, 61, 118, 85, 121, 1, 0.672801
73, 3, bw, filler, NA, 999, 999, 4, 14, 142, 193, 61, 118, 85, 121, 2, 0.516592
73, 3, bw, filler, NA, 999, 999, 4, 15, 62, 101, 60, 190, 83, 149, 3, 0.717608
73, 3, bw, filler, NA, 999, 999, 4, 15, 62, 101, 60, 190, 83, 149, 1, 0.584003
73, 3, bw, attraction, a-b-db, 9, 3, 4, 16, 195, 120, 114, 186, 120, 195, 3, 2.22242
73, 3, bw, attraction, a-b-db, 9, 3, 4, 16, 195, 120, 114, 186, 120, 195, 2, 1.05173
73, 3, bw, filler, NA, 999, 999, 4, 17, 94, 171, 127, 169, 132, 162, 2, 1.57533
73, 3, bw, filler, NA, 999, 999, 4, 17, 94, 171, 127, 169, 132, 162, 1, 0.422878
73, 3, bw, attraction, a-b-db, 5, 3, 4, 18, 120, 195, 195, 120, 117, 190, 3, 0.987974
73, 3, bw, attraction, a-b-db, 5, 3, 4, 18, 120, 195, 195, 120, 117, 190, 2, 0.315076
73, 3, bw, attraction, a-b-da, 9, 1, 4, 19, 135, 60, 129, 57, 60, 135, 1, 0.812114
73, 3, bw, attraction, a-b-da, 9, 1, 4, 19, 135, 60, 129, 57, 60, 135, 2, 0.930622
73, 3, bw, attraction, a-b-da, 14, 1, 4, 20, 125, 56, 135, 60, 60, 135, 1, 0.594836
73, 3, bw, attraction, a-b-da, 14, 1, 4, 20, 125, 56, 135, 60, 60, 135, 2, 0.514077
73, 3, bw, attraction, a-b-da, 9, 3, 4, 21, 186, 114, 195, 120, 120, 195, 1, 0.595029
73, 3, bw, attraction, a-b-da, 9, 3, 4, 21, 186, 114, 195, 120, 120, 195, 2, 0.506349
73, 3, bw, filler, NA, 999, 999, 4, 22, 174, 165, 87, 76, 113, 168, 1, 1.93995
73, 3, bw, filler, NA, 999, 999, 4, 22, 174, 165, 87, 76, 113, 168, 2, 0.596657
73, 3, bw, attraction, a-b-db, 2, 3, 4, 23, 195, 120, 120, 195, 119, 193, 3, 1.2185
73, 3, bw, attraction, a-b-db, 2, 3, 4, 23, 195, 120, 120, 195, 119, 193, 2, 0.440785
73, 3, bw, filler, NA, 999, 999, 4, 24, 178, 92, 157, 108, 100, 137, 1, 4.2606
73, 3, bw, filler, NA, 999, 999, 4, 24, 178, 92, 157, 108, 100, 137, 3, 0.871998
73, 3, bw, attraction, a-b-da, 5, 2, 4, 25, 165, 90, 161, 88, 90, 165, 1, 0.818997
73, 3, bw, attraction, a-b-da, 5, 2, 4, 25, 165, 90, 161, 88, 90, 165, 2, 0.641203
73, 3, bw, attraction, a-b-db, 5, 1, 4, 26, 58, 132, 135, 60, 60, 135, 2, 0.684933
73, 3, bw, attraction, a-b-db, 5, 1, 4, 26, 58, 132, 135, 60, 60, 135, 1, 0.632676
73, 3, bw, attraction, a-b-da, 2, 1, 4, 27, 135, 60, 134, 59, 60, 135, 1, 0.653158
73, 3, bw, attraction, a-b-da, 2, 1, 4, 27, 135, 60, 134, 59, 60, 135, 2, 0.514213
73, 3, bw, filler, NA, 999, 999, 4, 28, 193, 186, 74, 73, 190, 76, 1, 0.971455
73, 3, bw, filler, NA, 999, 999, 4, 28, 193, 186, 74, 73, 190, 76, 2, 0.906979
73, 3, bw, attraction, a-b-da, 5, 1, 4, 29, 135, 60, 60, 135, 132, 58, 3, 0.844007
73, 3, bw, attraction, a-b-da, 5, 1, 4, 29, 135, 60, 60, 135, 132, 58, 2, 0.70503
73, 3, bw, attraction, a-b-da, 9, 2, 4, 30, 165, 90, 157, 86, 90, 165, 1, 0.634757
73, 3, bw, attraction, a-b-da, 9, 2, 4, 30, 165, 90, 157, 86, 90, 165, 2, 0.408553
73, 3, bw, attraction, a-b-da, 14, 2, 4, 31, 90, 165, 165, 90, 153, 83, 3, 0.822016
73, 3, bw, attraction, a-b-da, 14, 2, 4, 31, 90, 165, 165, 90, 153, 83, 2, 0.555452
73, 3, bw, filler, NA, 999, 999, 4, 32, 85, 111, 190, 147, 98, 167, 2, 1.17925
73, 3, bw, filler, NA, 999, 999, 4, 32, 85, 111, 190, 147, 98, 167, 1, 0.594748
73, 3, bw, attraction, a-b-db, 9, 1, 4, 33, 135, 60, 60, 135, 57, 129, 1, 0.856592
73, 3, bw, attraction, a-b-db, 9, 1, 4, 33, 135, 60, 60, 135, 57, 129, 2, 0.516896
73, 3, bw, attraction, a-b-db, 9, 2, 4, 34, 165, 90, 90, 165, 86, 157, 1, 1.25398
73, 3, bw, attraction, a-b-db, 9, 2, 4, 34, 165, 90, 90, 165, 86, 157, 2, 0.723065
73, 3, bw, attraction, a-b-db, 14, 2, 4, 35, 83, 153, 165, 90, 90, 165, 2, 0.756171
73, 3, bw, attraction, a-b-db, 14, 2, 4, 35, 83, 153, 165, 90, 90, 165, 3, 0.340368
73, 3, bw, attraction, a-b-da, 14, 3, 4, 36, 181, 111, 195, 120, 120, 195, 3, 3.2842
73, 3, bw, attraction, a-b-da, 14, 3, 4, 36, 181, 111, 195, 120, 120, 195, 2, 0.567162
73, 3, bw, attraction, a-b-db, 5, 2, 4, 37, 88, 161, 165, 90, 90, 165, 3, 1.15052
73, 3, bw, attraction, a-b-db, 5, 2, 4, 37, 88, 161, 165, 90, 90, 165, 1, 1.48721
73, 3, bw, attraction, a-b-da, 5, 2, 5, 1, 161, 88, 90, 165, 165, 90, 3, 13.16
73, 3, bw, attraction, a-b-da, 5, 2, 5, 1, 161, 88, 90, 165, 165, 90, 1, 0.630941
73, 3, bw, attraction, a-b-db, 9, 2, 5, 2, 165, 90, 86, 157, 90, 165, 1, 0.793016
73, 3, bw, attraction, a-b-db, 9, 2, 5, 2, 165, 90, 86, 157, 90, 165, 2, 0.520067
73, 3, bw, catch, NA, 999, 999, 5, 3, 122, 133, 121, 74, 139, 176, 3, 2.14516
73, 3, bw, catch, NA, 999, 999, 5, 3, 122, 133, 121, 74, 139, 176, 2, 0.505886
73, 3, bw, attraction, a-b-db, 9, 1, 5, 4, 57, 129, 60, 135, 135, 60, 2, 1.09955
73, 3, bw, attraction, a-b-db, 9, 1, 5, 4, 57, 129, 60, 135, 135, 60, 3, 0.542515
73, 3, bw, filler, NA, 999, 999, 5, 5, 166, 132, 174, 142, 130, 149, 2, 1.51037
73, 3, bw, filler, NA, 999, 999, 5, 5, 166, 132, 174, 142, 130, 149, 3, 0.584492
73, 3, bw, attraction, a-b-da, 14, 2, 5, 6, 165, 90, 90, 165, 153, 83, 1, 1.47887
73, 3, bw, attraction, a-b-da, 14, 2, 5, 6, 165, 90, 90, 165, 153, 83, 3, 0.594314
73, 3, bw, attraction, a-b-da, 9, 2, 5, 7, 165, 90, 157, 86, 90, 165, 1, 0.696113
73, 3, bw, attraction, a-b-da, 9, 2, 5, 7, 165, 90, 157, 86, 90, 165, 2, 0.483233
73, 3, bw, attraction, a-b-da, 2, 3, 5, 8, 195, 120, 120, 195, 193, 119, 1, 1.82165
73, 3, bw, attraction, a-b-da, 2, 3, 5, 8, 195, 120, 120, 195, 193, 119, 3, 0.859744
73, 3, bw, catch, NA, 999, 999, 5, 9, 192, 123, 140, 115, 82, 113, 1, 0.742768
73, 3, bw, catch, NA, 999, 999, 5, 9, 192, 123, 140, 115, 82, 113, 3, 0.511839
73, 3, bw, attraction, a-b-db, 14, 1, 5, 10, 135, 60, 56, 125, 60, 135, 1, 1.99294
73, 3, bw, attraction, a-b-db, 14, 1, 5, 10, 135, 60, 56, 125, 60, 135, 2, 0.335607
73, 3, bw, attraction, a-b-db, 5, 1, 5, 11, 58, 132, 60, 135, 135, 60, 3, 1.1441
73, 3, bw, attraction, a-b-db, 5, 1, 5, 11, 58, 132, 60, 135, 135, 60, 1, 0.497079
73, 3, bw, attraction, a-b-db, 5, 3, 5, 12, 120, 195, 195, 120, 117, 190, 1, 2.69079
73, 3, bw, attraction, a-b-db, 5, 3, 5, 12, 120, 195, 195, 120, 117, 190, 3, 0.773256
73, 3, bw, filler, NA, 999, 999, 5, 13, 160, 107, 148, 91, 150, 125, 3, 2.50036
73, 3, bw, filler, NA, 999, 999, 5, 13, 160, 107, 148, 91, 150, 125, 2, 0.726829
73, 3, bw, attraction, a-b-db, 2, 1, 5, 14, 135, 60, 59, 134, 60, 135, 1, 1.19126
73, 3, bw, attraction, a-b-db, 2, 1, 5, 14, 135, 60, 59, 134, 60, 135, 2, 0.430202
73, 3, bw, attraction, a-b-da, 2, 2, 5, 15, 163, 89, 90, 165, 165, 90, 1, 0.898628
73, 3, bw, attraction, a-b-da, 2, 2, 5, 15, 163, 89, 90, 165, 165, 90, 2, 0.885666
73, 3, bw, attraction, a-b-da, 5, 3, 5, 16, 190, 117, 120, 195, 195, 120, 2, 2.0961
73, 3, bw, attraction, a-b-da, 5, 3, 5, 16, 190, 117, 120, 195, 195, 120, 3, 0.458857
73, 3, bw, catch, NA, 999, 999, 5, 17, 123, 132, 166, 149, 101, 94, 2, 1.14985
73, 3, bw, catch, NA, 999, 999, 5, 17, 123, 132, 166, 149, 101, 94, 3, 0.686848
73, 3, bw, filler, NA, 999, 999, 5, 18, 158, 78, 58, 99, 109, 162, 3, 1.52921
73, 3, bw, filler, NA, 999, 999, 5, 18, 158, 78, 58, 99, 109, 162, 2, 0.426696
73, 3, bw, attraction, a-b-da, 9, 3, 5, 19, 195, 120, 186, 114, 120, 195, 1, 0.887068
73, 3, bw, attraction, a-b-da, 9, 3, 5, 19, 195, 120, 186, 114, 120, 195, 2, 0.722787
73, 3, bw, filler, NA, 999, 999, 5, 20, 86, 147, 89, 111, 69, 152, 1, 1.316
73, 3, bw, filler, NA, 999, 999, 5, 20, 86, 147, 89, 111, 69, 152, 2, 0.638131
73, 3, bw, attraction, a-b-da, 14, 3, 5, 21, 195, 120, 120, 195, 181, 111, 1, 0.850494
73, 3, bw, attraction, a-b-da, 14, 3, 5, 21, 195, 120, 120, 195, 181, 111, 2, 2.11158
73, 3, bw, attraction, a-b-da, 14, 1, 5, 22, 125, 56, 60, 135, 135, 60, 1, 1.67218
73, 3, bw, attraction, a-b-da, 14, 1, 5, 22, 125, 56, 60, 135, 135, 60, 3, 0.587557
73, 3, bw, attraction, a-b-db, 2, 3, 5, 23, 120, 195, 195, 120, 119, 193, 1, 1.67415
73, 3, bw, attraction, a-b-db, 2, 3, 5, 23, 120, 195, 195, 120, 119, 193, 3, 0.773526
73, 3, bw, attraction, a-b-db, 5, 2, 5, 24, 90, 165, 88, 161, 165, 90, 3, 0.987933
73, 3, bw, attraction, a-b-db, 5, 2, 5, 24, 90, 165, 88, 161, 165, 90, 1, 1.00286
73, 3, bw, attraction, a-b-da, 9, 1, 5, 25, 129, 57, 135, 60, 60, 135, 2, 1.28852
73, 3, bw, attraction, a-b-da, 9, 1, 5, 25, 129, 57, 135, 60, 60, 135, 1, 0.435391
73, 3, bw, attraction, a-b-da, 2, 1, 5, 26, 134, 59, 135, 60, 60, 135, 1, 0.879918
73, 3, bw, attraction, a-b-da, 2, 1, 5, 26, 134, 59, 135, 60, 60, 135, 3, 0.379681
73, 3, bw, filler, NA, 999, 999, 5, 27, 185, 182, 136, 145, 75, 58, 1, 0.930038
73, 3, bw, filler, NA, 999, 999, 5, 27, 185, 182, 136, 145, 75, 58, 3, 0.659648
73, 3, bw, filler, NA, 999, 999, 5, 28, 170, 72, 61, 168, 120, 147, 3, 1.53494
73, 3, bw, filler, NA, 999, 999, 5, 28, 170, 72, 61, 168, 120, 147, 2, 1.96824
73, 3, bw, attraction, a-b-db, 14, 3, 5, 29, 195, 120, 120, 195, 111, 181, 1, 1.43107
73, 3, bw, attraction, a-b-db, 14, 3, 5, 29, 195, 120, 120, 195, 111, 181, 3, 0.644644
73, 3, bw, attraction, a-b-db, 14, 2, 5, 30, 90, 165, 165, 90, 83, 153, 1, 0.62424
73, 3, bw, attraction, a-b-db, 14, 2, 5, 30, 90, 165, 165, 90, 83, 153, 3, 0.446007
73, 3, bw, attraction, a-b-da, 5, 1, 5, 31, 132, 58, 60, 135, 135, 60, 1, 0.721792
73, 3, bw, attraction, a-b-da, 5, 1, 5, 31, 132, 58, 60, 135, 135, 60, 2, 0.331525
73, 3, bw, filler, NA, 999, 999, 5, 32, 65, 108, 154, 180, 125, 71, 2, 0.940069
73, 3, bw, filler, NA, 999, 999, 5, 32, 65, 108, 154, 180, 125, 71, 1, 0.629058
73, 3, bw, filler, NA, 999, 999, 5, 33, 61, 177, 66, 152, 193, 123, 3, 1.08137
73, 3, bw, filler, NA, 999, 999, 5, 33, 61, 177, 66, 152, 193, 123, 2, 0.533101
73, 3, bw, filler, NA, 999, 999, 5, 34, 189, 133, 166, 169, 164, 56, 1, 0.845496
73, 3, bw, filler, NA, 999, 999, 5, 34, 189, 133, 166, 169, 164, 56, 3, 2.49869
73, 3, bw, attraction, a-b-db, 2, 2, 5, 35, 89, 163, 90, 165, 165, 90, 1, 2.96377
73, 3, bw, attraction, a-b-db, 2, 2, 5, 35, 89, 163, 90, 165, 165, 90, 3, 0.923468
73, 3, bw, filler, NA, 999, 999, 5, 36, 174, 129, 78, 162, 124, 121, 1, 0.595876
73, 3, bw, filler, NA, 999, 999, 5, 36, 174, 129, 78, 162, 124, 121, 3, 0.690926
73, 3, bw, attraction, a-b-db, 9, 3, 5, 37, 195, 120, 114, 186, 120, 195, 3, 3.21272
73, 3, bw, attraction, a-b-db, 9, 3, 5, 37, 195, 120, 114, 186, 120, 195, 1, 1.60221
73, 3, bw, attraction, a-b-db, 5, 1, 6, 1, 58, 132, 60, 135, 135, 60, 3, 2.42389
73, 3, bw, attraction, a-b-db, 5, 1, 6, 1, 58, 132, 60, 135, 135, 60, 1, 0.372905
73, 3, bw, attraction, a-b-db, 2, 1, 6, 2, 59, 134, 135, 60, 60, 135, 1, 0.892059
73, 3, bw, attraction, a-b-db, 2, 1, 6, 2, 59, 134, 135, 60, 60, 135, 3, 0.543139
73, 3, bw, filler, NA, 999, 999, 6, 3, 67, 195, 83, 193, 155, 171, 3, 3.04684
73, 3, bw, filler, NA, 999, 999, 6, 3, 67, 195, 83, 193, 155, 171, 1, 0.35534
73, 3, bw, catch, NA, 999, 999, 6, 4, 159, 156, 92, 103, 107, 148, 1, 0.691198
73, 3, bw, catch, NA, 999, 999, 6, 4, 159, 156, 92, 103, 107, 148, 2, 0.438119
73, 3, bw, attraction, a-b-da, 14, 2, 6, 5, 165, 90, 153, 83, 90, 165, 3, 0.882549
73, 3, bw, attraction, a-b-da, 14, 2, 6, 5, 165, 90, 153, 83, 90, 165, 2, 0.654347
73, 3, bw, attraction, a-b-da, 5, 2, 6, 6, 165, 90, 161, 88, 90, 165, 3, 0.930207
73, 3, bw, attraction, a-b-da, 5, 2, 6, 6, 165, 90, 161, 88, 90, 165, 2, 0.467862
73, 3, bw, attraction, a-b-db, 14, 3, 6, 7, 111, 181, 120, 195, 195, 120, 3, 3.19092
73, 3, bw, attraction, a-b-db, 14, 3, 6, 7, 111, 181, 120, 195, 195, 120, 2, 0.597311
73, 3, bw, catch, NA, 999, 999, 6, 8, 118, 137, 131, 64, 154, 161, 3, 0.946998
73, 3, bw, catch, NA, 999, 999, 6, 8, 118, 137, 131, 64, 154, 161, 2, 0.460005
73, 3, bw, catch, NA, 999, 999, 6, 9, 130, 125, 120, 195, 87, 108, 2, 1.83909
73, 3, bw, catch, NA, 999, 999, 6, 9, 130, 125, 120, 195, 87, 108, 3, 0.531808
73, 3, bw, attraction, a-b-da, 2, 3, 6, 10, 193, 119, 195, 120, 120, 195, 3, 1.91631
73, 3, bw, attraction, a-b-da, 2, 3, 6, 10, 193, 119, 195, 120, 120, 195, 1, 0.750358
73, 3, bw, filler, NA, 999, 999, 6, 11, 194, 150, 176, 192, 188, 126, 3, 2.96924
73, 3, bw, filler, NA, 999, 999, 6, 11, 194, 150, 176, 192, 188, 126, 1, 0.797702
73, 3, bw, attraction, a-b-da, 5, 3, 6, 12, 195, 120, 120, 195, 190, 117, 1, 1.1554
73, 3, bw, attraction, a-b-da, 5, 3, 6, 12, 195, 120, 120, 195, 190, 117, 2, 0.30769
73, 3, bw, attraction, a-b-db, 2, 3, 6, 13, 119, 193, 120, 195, 195, 120, 3, 0.564916
73, 3, bw, attraction, a-b-db, 2, 3, 6, 13, 119, 193, 120, 195, 195, 120, 2, 0.565378
73, 3, bw, attraction, a-b-db, 14, 2, 6, 14, 83, 153, 90, 165, 165, 90, 3, 1.27669
73, 3, bw, attraction, a-b-db, 14, 2, 6, 14, 83, 153, 90, 165, 165, 90, 1, 0.344036
73, 3, bw, attraction, a-b-da, 9, 1, 6, 15, 60, 135, 135, 60, 129, 57, 1, 0.85581
73, 3, bw, attraction, a-b-da, 9, 1, 6, 15, 60, 135, 135, 60, 129, 57, 2, 0.47618
73, 3, bw, filler, NA, 999, 999, 6, 16, 146, 154, 98, 176, 122, 175, 3, 2.44663
73, 3, bw, filler, NA, 999, 999, 6, 16, 146, 154, 98, 176, 122, 175, 2, 0.947259
73, 3, bw, attraction, a-b-da, 9, 3, 6, 17, 195, 120, 186, 114, 120, 195, 1, 0.842848
73, 3, bw, attraction, a-b-da, 9, 3, 6, 17, 195, 120, 186, 114, 120, 195, 2, 0.943891
73, 3, bw, attraction, a-b-db, 2, 2, 6, 18, 90, 165, 165, 90, 89, 163, 1, 1.11174
73, 3, bw, attraction, a-b-db, 2, 2, 6, 18, 90, 165, 165, 90, 89, 163, 3, 0.553858
73, 3, bw, attraction, a-b-db, 9, 3, 6, 19, 114, 186, 195, 120, 120, 195, 2, 2.11364
73, 3, bw, attraction, a-b-db, 9, 3, 6, 19, 114, 186, 195, 120, 120, 195, 1, 0.47558
73, 3, bw, filler, NA, 999, 999, 6, 20, 158, 115, 149, 106, 111, 77, 1, 1.502
73, 3, bw, filler, NA, 999, 999, 6, 20, 158, 115, 149, 106, 111, 77, 3, 0.848886
73, 3, bw, attraction, a-b-db, 9, 1, 6, 21, 60, 135, 57, 129, 135, 60, 3, 7.06068
73, 3, bw, attraction, a-b-db, 9, 1, 6, 21, 60, 135, 57, 129, 135, 60, 2, 0.366934
73, 3, bw, filler, NA, 999, 999, 6, 22, 165, 148, 178, 171, 182, 73, 2, 7.74211
73, 3, bw, filler, NA, 999, 999, 6, 22, 165, 148, 178, 171, 182, 73, 3, 1.01539
73, 3, bw, filler, NA, 999, 999, 6, 23, 61, 125, 79, 78, 139, 181, 3, 0.834101
73, 3, bw, filler, NA, 999, 999, 6, 23, 61, 125, 79, 78, 139, 181, 2, 0.831721
73, 3, bw, filler, NA, 999, 999, 6, 24, 70, 133, 130, 153, 177, 189, 3, 0.796099
73, 3, bw, filler, NA, 999, 999, 6, 24, 70, 133, 130, 153, 177, 189, 1, 0.443175
73, 3, bw, filler, NA, 999, 999, 6, 25, 154, 68, 162, 105, 194, 175, 3, 0.614852
73, 3, bw, filler, NA, 999, 999, 6, 25, 154, 68, 162, 105, 194, 175, 1, 1.47733
73, 3, bw, attraction, a-b-da, 2, 2, 6, 26, 163, 89, 165, 90, 90, 165, 1, 1.20745
73, 3, bw, attraction, a-b-da, 2, 2, 6, 26, 163, 89, 165, 90, 90, 165, 2, 0.813911
73, 3, bw, filler, NA, 999, 999, 6, 27, 115, 173, 68, 161, 108, 146, 1, 1.07476
73, 3, bw, filler, NA, 999, 999, 6, 27, 115, 173, 68, 161, 108, 146, 3, 1.62242
73, 3, bw, attraction, a-b-db, 14, 1, 6, 28, 60, 135, 56, 125, 135, 60, 1, 2.02723
73, 3, bw, attraction, a-b-db, 14, 1, 6, 28, 60, 135, 56, 125, 135, 60, 2, 0.304598
73, 3, bw, attraction, a-b-da, 9, 2, 6, 29, 165, 90, 90, 165, 157, 86, 1, 1.15439
73, 3, bw, attraction, a-b-da, 9, 2, 6, 29, 165, 90, 90, 165, 157, 86, 3, 0.963269
73, 3, bw, filler, NA, 999, 999, 6, 30, 120, 172, 172, 91, 150, 169, 3, 0.906341
73, 3, bw, filler, NA, 999, 999, 6, 30, 120, 172, 172, 91, 150, 169, 2, 1.14061
73, 3, bw, attraction, a-b-db, 5, 2, 6, 31, 88, 161, 165, 90, 90, 165, 1, 0.828169
73, 3, bw, attraction, a-b-db, 5, 2, 6, 31, 88, 161, 165, 90, 90, 165, 2, 1.25794
73, 3, bw, attraction, a-b-db, 5, 3, 6, 32, 117, 190, 120, 195, 195, 120, 3, 2.44505
73, 3, bw, attraction, a-b-db, 5, 3, 6, 32, 117, 190, 120, 195, 195, 120, 1, 0.729318
73, 3, bw, attraction, a-b-da, 14, 3, 6, 33, 195, 120, 181, 111, 120, 195, 1, 1.60191
73, 3, bw, attraction, a-b-da, 14, 3, 6, 33, 195, 120, 181, 111, 120, 195, 2, 0.456673
73, 3, bw, attraction, a-b-da, 14, 1, 6, 34, 60, 135, 125, 56, 135, 60, 3, 7.13179
73, 3, bw, attraction, a-b-da, 14, 1, 6, 34, 60, 135, 125, 56, 135, 60, 2, 1.22746
73, 3, bw, attraction, a-b-da, 2, 1, 6, 35, 134, 59, 60, 135, 135, 60, 1, 2.0636
73, 3, bw, attraction, a-b-da, 2, 1, 6, 35, 134, 59, 60, 135, 135, 60, 2, 0.49163
73, 3, bw, attraction, a-b-da, 5, 1, 6, 36, 135, 60, 132, 58, 60, 135, 1, 1.41346
73, 3, bw, attraction, a-b-da, 5, 1, 6, 36, 135, 60, 132, 58, 60, 135, 3, 0.435625
73, 3, bw, attraction, a-b-db, 9, 2, 6, 37, 90, 165, 165, 90, 86, 157, 2, 2.60808
73, 3, bw, attraction, a-b-db, 9, 2, 6, 37, 90, 165, 165, 90, 86, 157, 3, 1.23789
73, 3, bw, filler, NA, 999, 999, 7, 1, 114, 163, 187, 87, 130, 70, 2, 3.57111
73, 3, bw, filler, NA, 999, 999, 7, 1, 114, 163, 187, 87, 130, 70, 3, 0.352948
73, 3, bw, attraction, a-b-db, 9, 1, 7, 2, 57, 129, 60, 135, 135, 60, 3, 1.0409
73, 3, bw, attraction, a-b-db, 9, 1, 7, 2, 57, 129, 60, 135, 135, 60, 1, 0.373809
73, 3, bw, attraction, a-b-db, 2, 3, 7, 3, 119, 193, 195, 120, 120, 195, 1, 0.644253
73, 3, bw, attraction, a-b-db, 2, 3, 7, 3, 119, 193, 195, 120, 120, 195, 2, 1.09752
73, 3, bw, attraction, a-b-db, 9, 3, 7, 4, 195, 120, 114, 186, 120, 195, 1, 1.22706
73, 3, bw, attraction, a-b-db, 9, 3, 7, 4, 195, 120, 114, 186, 120, 195, 2, 1.06457
73, 3, bw, catch, NA, 999, 999, 7, 5, 138, 177, 92, 163, 107, 88, 1, 1.00352
73, 3, bw, catch, NA, 999, 999, 7, 5, 138, 177, 92, 163, 107, 88, 3, 0.482553
73, 3, bw, filler, NA, 999, 999, 7, 6, 191, 183, 126, 81, 109, 193, 1, 0.925069
73, 3, bw, filler, NA, 999, 999, 7, 6, 191, 183, 126, 81, 109, 193, 2, 0.422631
73, 3, bw, filler, NA, 999, 999, 7, 7, 180, 126, 77, 130, 140, 104, 1, 1.39583
73, 3, bw, filler, NA, 999, 999, 7, 7, 180, 126, 77, 130, 140, 104, 2, 1.16267
73, 3, bw, attraction, a-b-da, 9, 3, 7, 8, 120, 195, 195, 120, 186, 114, 3, 1.38553
73, 3, bw, attraction, a-b-da, 9, 3, 7, 8, 120, 195, 195, 120, 186, 114, 2, 0.377072
73, 3, bw, attraction, a-b-db, 5, 1, 7, 9, 60, 135, 135, 60, 58, 132, 3, 1.8258
73, 3, bw, attraction, a-b-db, 5, 1, 7, 9, 60, 135, 135, 60, 58, 132, 1, 0.33306
73, 3, bw, filler, NA, 999, 999, 7, 10, 86, 179, 193, 128, 111, 57, 2, 0.941607
73, 3, bw, filler, NA, 999, 999, 7, 10, 86, 179, 193, 128, 111, 57, 3, 0.366538
73, 3, bw, attraction, a-b-da, 14, 1, 7, 11, 135, 60, 125, 56, 60, 135, 1, 0.533677
73, 3, bw, attraction, a-b-da, 14, 1, 7, 11, 135, 60, 125, 56, 60, 135, 2, 0.29553
73, 3, bw, filler, NA, 999, 999, 7, 12, 81, 157, 145, 189, 112, 115, 1, 0.67331
73, 3, bw, filler, NA, 999, 999, 7, 12, 81, 157, 145, 189, 112, 115, 2, 0.269147
73, 3, bw, filler, NA, 999, 999, 7, 13, 185, 122, 123, 126, 106, 190, 1, 0.608424
73, 3, bw, filler, NA, 999, 999, 7, 13, 185, 122, 123, 126, 106, 190, 3, 0.55075
73, 3, bw, attraction, a-b-db, 2, 1, 7, 14, 59, 134, 60, 135, 135, 60, 3, 0.878602
73, 3, bw, attraction, a-b-db, 2, 1, 7, 14, 59, 134, 60, 135, 135, 60, 2, 0.426236
73, 3, bw, catch, NA, 999, 999, 7, 15, 111, 84, 143, 112, 195, 120, 2, 1.84666
73, 3, bw, catch, NA, 999, 999, 7, 15, 111, 84, 143, 112, 195, 120, 3, 0.779494
73, 3, bw, attraction, a-b-da, 9, 2, 7, 16, 90, 165, 165, 90, 157, 86, 1, 0.897798
73, 3, bw, attraction, a-b-da, 9, 2, 7, 16, 90, 165, 165, 90, 157, 86, 2, 0.564853
73, 3, bw, catch, NA, 999, 999, 7, 17, 95, 160, 147, 168, 87, 108, 2, 1.49205
73, 3, bw, catch, NA, 999, 999, 7, 17, 95, 160, 147, 168, 87, 108, 1, 0.406711
73, 3, bw, attraction, a-b-db, 14, 2, 7, 18, 165, 90, 90, 165, 83, 153, 1, 1.12392
73, 3, bw, attraction, a-b-db, 14, 2, 7, 18, 165, 90, 90, 165, 83, 153, 2, 0.701535
73, 3, bw, filler, NA, 999, 999, 7, 19, 176, 75, 159, 162, 73, 103, 2, 1.15931
73, 3, bw, filler, NA, 999, 999, 7, 19, 176, 75, 159, 162, 73, 103, 3, 0.551513
73, 3, bw, attraction, a-b-db, 2, 2, 7, 20, 165, 90, 90, 165, 89, 163, 2, 0.943323
73, 3, bw, attraction, a-b-db, 2, 2, 7, 20, 165, 90, 90, 165, 89, 163, 3, 0.384293
73, 3, bw, attraction, a-b-db, 14, 1, 7, 21, 56, 125, 60, 135, 135, 60, 1, 0.974737
73, 3, bw, attraction, a-b-db, 14, 1, 7, 21, 56, 125, 60, 135, 135, 60, 2, 0.422483
73, 3, bw, attraction, a-b-db, 14, 3, 7, 22, 120, 195, 111, 181, 195, 120, 1, 1.51574
73, 3, bw, attraction, a-b-db, 14, 3, 7, 22, 120, 195, 111, 181, 195, 120, 3, 0.557812
73, 3, bw, filler, NA, 999, 999, 7, 23, 123, 144, 112, 89, 115, 181, 3, 2.62926
73, 3, bw, filler, NA, 999, 999, 7, 23, 123, 144, 112, 89, 115, 181, 2, 0.746071
73, 3, bw, attraction, a-b-da, 14, 3, 7, 24, 195, 120, 181, 111, 120, 195, 1, 5.45786
73, 3, bw, attraction, a-b-da, 14, 3, 7, 24, 195, 120, 181, 111, 120, 195, 3, 0.532714
73, 3, bw, attraction, a-b-db, 5, 2, 7, 25, 88, 161, 165, 90, 90, 165, 2, 1.66113
73, 3, bw, attraction, a-b-db, 5, 2, 7, 25, 88, 161, 165, 90, 90, 165, 3, 0.713341
73, 3, bw, attraction, a-b-db, 9, 2, 7, 26, 90, 165, 86, 157, 165, 90, 1, 0.74634
73, 3, bw, attraction, a-b-db, 9, 2, 7, 26, 90, 165, 86, 157, 165, 90, 3, 0.51545
73, 3, bw, attraction, a-b-da, 2, 1, 7, 27, 135, 60, 134, 59, 60, 135, 2, 0.988538
73, 3, bw, attraction, a-b-da, 2, 1, 7, 27, 135, 60, 134, 59, 60, 135, 3, 0.371449
73, 3, bw, attraction, a-b-da, 5, 2, 7, 28, 165, 90, 90, 165, 161, 88, 2, 0.642781
73, 3, bw, attraction, a-b-da, 5, 2, 7, 28, 165, 90, 90, 165, 161, 88, 1, 0.51172
73, 3, bw, attraction, a-b-da, 5, 1, 7, 29, 60, 135, 132, 58, 135, 60, 1, 0.648905
73, 3, bw, attraction, a-b-da, 5, 1, 7, 29, 60, 135, 132, 58, 135, 60, 2, 0.414014
73, 3, bw, attraction, a-b-db, 5, 3, 7, 30, 120, 195, 195, 120, 117, 190, 3, 0.627132
73, 3, bw, attraction, a-b-db, 5, 3, 7, 30, 120, 195, 195, 120, 117, 190, 1, 0.728853
73, 3, bw, attraction, a-b-da, 2, 3, 7, 31, 195, 120, 193, 119, 120, 195, 1, 0.841249
73, 3, bw, attraction, a-b-da, 2, 3, 7, 31, 195, 120, 193, 119, 120, 195, 3, 0.358351
73, 3, bw, filler, NA, 999, 999, 7, 32, 153, 168, 180, 84, 125, 177, 1, 1.20563
73, 3, bw, filler, NA, 999, 999, 7, 32, 153, 168, 180, 84, 125, 177, 3, 0.795686
73, 3, bw, filler, NA, 999, 999, 7, 33, 177, 59, 126, 61, 154, 160, 1, 1.17735
73, 3, bw, filler, NA, 999, 999, 7, 33, 177, 59, 126, 61, 154, 160, 2, 0.449147
73, 3, bw, attraction, a-b-da, 14, 2, 7, 34, 90, 165, 153, 83, 165, 90, 3, 1.12481
73, 3, bw, attraction, a-b-da, 14, 2, 7, 34, 90, 165, 153, 83, 165, 90, 2, 0.590367
73, 3, bw, attraction, a-b-da, 9, 1, 7, 35, 135, 60, 60, 135, 129, 57, 1, 0.900195
73, 3, bw, attraction, a-b-da, 9, 1, 7, 35, 135, 60, 60, 135, 129, 57, 2, 0.479283
73, 3, bw, attraction, a-b-da, 5, 3, 7, 36, 120, 195, 195, 120, 190, 117, 1, 0.753682
73, 3, bw, attraction, a-b-da, 5, 3, 7, 36, 120, 195, 195, 120, 190, 117, 2, 0.346756
73, 3, bw, attraction, a-b-da, 2, 2, 7, 37, 163, 89, 165, 90, 90, 165, 1, 0.626598
73, 3, bw, attraction, a-b-da, 2, 2, 7, 37, 163, 89, 165, 90, 90, 165, 3, 0.512423
73, 3, bw, filler, NA, 999, 999, 8, 1, 117, 114, 189, 91, 180, 187, 3, 0.681568
73, 3, bw, filler, NA, 999, 999, 8, 1, 117, 114, 189, 91, 180, 187, 1, 0.581388
73, 3, bw, attraction, a-b-db, 9, 3, 8, 2, 114, 186, 120, 195, 195, 120, 3, 0.70779
73, 3, bw, attraction, a-b-db, 9, 3, 8, 2, 114, 186, 120, 195, 195, 120, 2, 3.50202
73, 3, bw, attraction, a-b-db, 14, 2, 8, 3, 165, 90, 90, 165, 83, 153, 1, 2.31901
73, 3, bw, attraction, a-b-db, 14, 2, 8, 3, 165, 90, 90, 165, 83, 153, 2, 0.448801
73, 3, bw, attraction, a-b-da, 9, 1, 8, 4, 60, 135, 135, 60, 129, 57, 1, 1.55682
73, 3, bw, attraction, a-b-da, 9, 1, 8, 4, 60, 135, 135, 60, 129, 57, 3, 0.524862
73, 3, bw, catch, NA, 999, 999, 8, 5, 120, 75, 158, 97, 120, 195, 3, 1.1892
73, 3, bw, catch, NA, 999, 999, 8, 5, 120, 75, 158, 97, 120, 195, 1, 0.476314
73, 3, bw, filler, NA, 999, 999, 8, 6, 57, 85, 126, 111, 66, 174, 2, 2.10276
73, 3, bw, filler, NA, 999, 999, 8, 6, 57, 85, 126, 111, 66, 174, 1, 1.15179
73, 3, bw, catch, NA, 999, 999, 8, 7, 133, 182, 73, 122, 104, 151, 1, 0.816863
73, 3, bw, catch, NA, 999, 999, 8, 7, 133, 182, 73, 122, 104, 151, 2, 0.767359
73, 3, bw, attraction, a-b-db, 9, 2, 8, 8, 90, 165, 165, 90, 86, 157, 2, 3.37433
73, 3, bw, attraction, a-b-db, 9, 2, 8, 8, 90, 165, 165, 90, 86, 157, 1, 0.301201
73, 3, bw, attraction, a-b-db, 2, 1, 8, 9, 59, 134, 135, 60, 60, 135, 2, 1.71109
73, 3, bw, attraction, a-b-db, 2, 1, 8, 9, 59, 134, 135, 60, 60, 135, 3, 0.561109
73, 3, bw, attraction, a-b-da, 5, 3, 8, 10, 190, 117, 195, 120, 120, 195, 3, 3.80038
73, 3, bw, attraction, a-b-da, 5, 3, 8, 10, 190, 117, 195, 120, 120, 195, 1, 0.69436
73, 3, bw, attraction, a-b-db, 14, 3, 8, 11, 111, 181, 195, 120, 120, 195, 2, 0.752093
73, 3, bw, attraction, a-b-db, 14, 3, 8, 11, 111, 181, 195, 120, 120, 195, 1, 0.665169
73, 3, bw, attraction, a-b-db, 5, 2, 8, 12, 88, 161, 165, 90, 90, 165, 2, 2.30819
73, 3, bw, attraction, a-b-db, 5, 2, 8, 12, 88, 161, 165, 90, 90, 165, 1, 0.638181
73, 3, bw, attraction, a-b-db, 5, 1, 8, 13, 60, 135, 135, 60, 58, 132, 1, 1.13056
73, 3, bw, attraction, a-b-db, 5, 1, 8, 13, 60, 135, 135, 60, 58, 132, 2, 0.772307
73, 3, bw, attraction, a-b-da, 5, 2, 8, 14, 161, 88, 165, 90, 90, 165, 1, 2.89117
73, 3, bw, attraction, a-b-da, 5, 2, 8, 14, 161, 88, 165, 90, 90, 165, 2, 1.25367
73, 3, bw, filler, NA, 999, 999, 8, 15, 100, 62, 77, 61, 107, 63, 3, 1.32928
73, 3, bw, filler, NA, 999, 999, 8, 15, 100, 62, 77, 61, 107, 63, 2, 0.554751
73, 3, bw, attraction, a-b-da, 2, 2, 8, 16, 165, 90, 90, 165, 163, 89, 1, 2.53851
73, 3, bw, attraction, a-b-da, 2, 2, 8, 16, 165, 90, 90, 165, 163, 89, 2, 0.563707
73, 3, bw, catch, NA, 999, 999, 8, 17, 134, 181, 103, 92, 155, 100, 1, 0.754801
73, 3, bw, catch, NA, 999, 999, 8, 17, 134, 181, 103, 92, 155, 100, 2, 0.515175
73, 3, bw, attraction, a-b-db, 2, 3, 8, 18, 195, 120, 119, 193, 120, 195, 3, 1.93227
73, 3, bw, attraction, a-b-db, 2, 3, 8, 18, 195, 120, 119, 193, 120, 195, 2, 0.741715
73, 3, bw, filler, NA, 999, 999, 8, 19, 146, 73, 158, 65, 79, 98, 2, 1.10149
73, 3, bw, filler, NA, 999, 999, 8, 19, 146, 73, 158, 65, 79, 98, 3, 0.560298
73, 3, bw, filler, NA, 999, 999, 8, 20, 93, 193, 70, 132, 114, 179, 3, 0.831465
73, 3, bw, filler, NA, 999, 999, 8, 20, 93, 193, 70, 132, 114, 179, 2, 0.477176
73, 3, bw, attraction, a-b-db, 14, 1, 8, 21, 56, 125, 60, 135, 135, 60, 2, 1.00757
73, 3, bw, attraction, a-b-db, 14, 1, 8, 21, 56, 125, 60, 135, 135, 60, 1, 0.782062
73, 3, bw, filler, NA, 999, 999, 8, 22, 102, 107, 68, 119, 189, 117, 3, 0.716314
73, 3, bw, filler, NA, 999, 999, 8, 22, 102, 107, 68, 119, 189, 117, 2, 1.43875
73, 3, bw, filler, NA, 999, 999, 8, 23, 132, 109, 151, 149, 84, 145, 2, 0.890938
73, 3, bw, filler, NA, 999, 999, 8, 23, 132, 109, 151, 149, 84, 145, 3, 1.19799
73, 3, bw, attraction, a-b-da, 9, 3, 8, 24, 195, 120, 120, 195, 186, 114, 1, 1.14745
73, 3, bw, attraction, a-b-da, 9, 3, 8, 24, 195, 120, 120, 195, 186, 114, 2, 0.740491
73, 3, bw, attraction, a-b-da, 2, 3, 8, 25, 120, 195, 193, 119, 195, 120, 3, 0.716172
73, 3, bw, attraction, a-b-da, 2, 3, 8, 25, 120, 195, 193, 119, 195, 120, 2, 0.518607
73, 3, bw, attraction, a-b-da, 9, 2, 8, 26, 90, 165, 165, 90, 157, 86, 3, 0.5917
73, 3, bw, attraction, a-b-da, 9, 2, 8, 26, 90, 165, 165, 90, 157, 86, 1, 0.438848
73, 3, bw, attraction, a-b-db, 2, 2, 8, 27, 165, 90, 90, 165, 89, 163, 1, 0.547173
73, 3, bw, attraction, a-b-db, 2, 2, 8, 27, 165, 90, 90, 165, 89, 163, 2, 0.46043
73, 3, bw, filler, NA, 999, 999, 8, 28, 80, 121, 57, 113, 141, 115, 3, 1.23961
73, 3, bw, filler, NA, 999, 999, 8, 28, 80, 121, 57, 113, 141, 115, 2, 0.3805
73, 3, bw, attraction, a-b-db, 9, 1, 8, 29, 135, 60, 60, 135, 57, 129, 1, 0.818927
73, 3, bw, attraction, a-b-db, 9, 1, 8, 29, 135, 60, 60, 135, 57, 129, 3, 1.0093
73, 3, bw, attraction, a-b-da, 14, 2, 8, 30, 90, 165, 165, 90, 153, 83, 3, 0.782215
73, 3, bw, attraction, a-b-da, 14, 2, 8, 30, 90, 165, 165, 90, 153, 83, 1, 0.718131
73, 3, bw, attraction, a-b-da, 14, 3, 8, 31, 195, 120, 120, 195, 181, 111, 1, 0.639018
73, 3, bw, attraction, a-b-da, 14, 3, 8, 31, 195, 120, 120, 195, 181, 111, 2, 0.372292
73, 3, bw, filler, NA, 999, 999, 8, 32, 98, 133, 122, 60, 128, 109, 3, 0.739294
73, 3, bw, filler, NA, 999, 999, 8, 32, 98, 133, 122, 60, 128, 109, 2, 0.980427
73, 3, bw, attraction, a-b-da, 14, 1, 8, 33, 60, 135, 135, 60, 125, 56, 2, 1.54681
73, 3, bw, attraction, a-b-da, 14, 1, 8, 33, 60, 135, 135, 60, 125, 56, 1, 1.10747
73, 3, bw, attraction, a-b-da, 2, 1, 8, 34, 60, 135, 134, 59, 135, 60, 3, 0.604596
73, 3, bw, attraction, a-b-da, 2, 1, 8, 34, 60, 135, 134, 59, 135, 60, 1, 0.410819
73, 3, bw, attraction, a-b-da, 5, 1, 8, 35, 135, 60, 132, 58, 60, 135, 1, 0.904046
73, 3, bw, attraction, a-b-da, 5, 1, 8, 35, 135, 60, 132, 58, 60, 135, 3, 0.3951
73, 3, bw, attraction, a-b-db, 5, 3, 8, 36, 117, 190, 120, 195, 195, 120, 1, 0.624919
73, 3, bw, attraction, a-b-db, 5, 3, 8, 36, 117, 190, 120, 195, 195, 120, 2, 0.918704
73, 3, bw, filler, NA, 999, 999, 8, 37, 115, 77, 66, 94, 108, 73, 1, 0.839763
73, 3, bw, filler, NA, 999, 999, 8, 37, 115, 77, 66, 94, 108, 73, 2, 0.420791
