sub_n, computer_n, bw_cond, effect, set, distance, diag, block_n, trial_n, h1, w1, h2, w2, h3, w3, choice, rt 
78, 3, wb, practice, NA, 999, 999, 0, 1, 167, 154, 164, 112, 103, 182, 2, 6.93603
78, 3, wb, practice, NA, 999, 999, 0, 1, 167, 154, 164, 112, 103, 182, 1, 5.23292
78, 3, wb, practice, NA, 999, 999, 0, 2, 177, 144, 147, 177, 156, 170, 2, 7.7511
78, 3, wb, practice, NA, 999, 999, 0, 2, 177, 144, 147, 177, 156, 170, 1, 5.08677
78, 3, wb, practice, NA, 999, 999, 0, 3, 149, 137, 88, 134, 105, 91, 3, 3.01449
78, 3, wb, practice, NA, 999, 999, 0, 3, 149, 137, 88, 134, 105, 91, 1, 2.26541
78, 3, wb, attraction, a-b-db, 9, 1, 1, 1, 57, 129, 60, 135, 135, 60, 3, 3.63573
78, 3, wb, attraction, a-b-db, 9, 1, 1, 1, 57, 129, 60, 135, 135, 60, 1, 1.15257
78, 3, wb, attraction, a-b-da, 9, 2, 1, 2, 157, 86, 165, 90, 90, 165, 1, 1.98405
78, 3, wb, attraction, a-b-da, 9, 2, 1, 2, 157, 86, 165, 90, 90, 165, 3, 1.07961
78, 3, wb, attraction, a-b-da, 9, 1, 1, 3, 60, 135, 129, 57, 135, 60, 2, 2.0658
78, 3, wb, attraction, a-b-da, 9, 1, 1, 3, 60, 135, 129, 57, 135, 60, 1, 0.53373
78, 3, wb, filler, NA, 999, 999, 1, 4, 161, 170, 132, 109, 91, 116, 3, 1.9742
78, 3, wb, filler, NA, 999, 999, 1, 4, 161, 170, 132, 109, 91, 116, 1, 0.933624
78, 3, wb, filler, NA, 999, 999, 1, 5, 178, 65, 74, 153, 97, 99, 3, 8.40584
78, 3, wb, filler, NA, 999, 999, 1, 5, 178, 65, 74, 153, 97, 99, 1, 1.5705
78, 3, wb, filler, NA, 999, 999, 1, 6, 86, 69, 133, 191, 68, 74, 3, 1.84929
78, 3, wb, filler, NA, 999, 999, 1, 6, 86, 69, 133, 191, 68, 74, 2, 1.2541
78, 3, wb, attraction, a-b-db, 9, 2, 1, 7, 90, 165, 165, 90, 86, 157, 2, 2.43357
78, 3, wb, attraction, a-b-db, 9, 2, 1, 7, 90, 165, 165, 90, 86, 157, 1, 1.05489
78, 3, wb, filler, NA, 999, 999, 1, 8, 130, 156, 90, 158, 184, 161, 2, 2.02642
78, 3, wb, filler, NA, 999, 999, 1, 8, 130, 156, 90, 158, 184, 161, 3, 0.479766
78, 3, wb, attraction, a-b-db, 5, 1, 1, 9, 58, 132, 135, 60, 60, 135, 1, 1.78629
78, 3, wb, attraction, a-b-db, 5, 1, 1, 9, 58, 132, 135, 60, 60, 135, 3, 1.15363
78, 3, wb, attraction, a-b-da, 14, 2, 1, 10, 90, 165, 165, 90, 153, 83, 3, 4.04928
78, 3, wb, attraction, a-b-da, 14, 2, 1, 10, 90, 165, 165, 90, 153, 83, 1, 0.965377
78, 3, wb, attraction, a-b-da, 14, 3, 1, 11, 120, 195, 181, 111, 195, 120, 1, 1.50027
78, 3, wb, attraction, a-b-da, 14, 3, 1, 11, 120, 195, 181, 111, 195, 120, 3, 2.01515
78, 3, wb, attraction, a-b-db, 2, 3, 1, 12, 119, 193, 195, 120, 120, 195, 2, 2.17983
78, 3, wb, attraction, a-b-db, 2, 3, 1, 12, 119, 193, 195, 120, 120, 195, 1, 1.44308
78, 3, wb, attraction, a-b-da, 2, 3, 1, 13, 193, 119, 120, 195, 195, 120, 1, 5.31848
78, 3, wb, attraction, a-b-da, 2, 3, 1, 13, 193, 119, 120, 195, 195, 120, 2, 1.08755
78, 3, wb, attraction, a-b-db, 14, 3, 1, 14, 120, 195, 111, 181, 195, 120, 2, 1.46579
78, 3, wb, attraction, a-b-db, 14, 3, 1, 14, 120, 195, 111, 181, 195, 120, 3, 2.40606
78, 3, wb, filler, NA, 999, 999, 1, 15, 176, 148, 180, 117, 139, 144, 2, 2.30715
78, 3, wb, filler, NA, 999, 999, 1, 15, 176, 148, 180, 117, 139, 144, 1, 1.00498
78, 3, wb, attraction, a-b-da, 5, 3, 1, 16, 195, 120, 190, 117, 120, 195, 2, 2.57065
78, 3, wb, attraction, a-b-da, 5, 3, 1, 16, 195, 120, 190, 117, 120, 195, 3, 1.01784
78, 3, wb, catch, NA, 999, 999, 1, 17, 106, 89, 116, 139, 133, 182, 1, 1.0548
78, 3, wb, catch, NA, 999, 999, 1, 17, 106, 89, 116, 139, 133, 182, 3, 0.747899
78, 3, wb, attraction, a-b-da, 2, 1, 1, 18, 60, 135, 135, 60, 134, 59, 1, 2.05147
78, 3, wb, attraction, a-b-da, 2, 1, 1, 18, 60, 135, 135, 60, 134, 59, 3, 2.41618
78, 3, wb, catch, NA, 999, 999, 1, 19, 69, 126, 135, 120, 180, 135, 1, 1.30066
78, 3, wb, catch, NA, 999, 999, 1, 19, 69, 126, 135, 120, 180, 135, 3, 0.831653
78, 3, wb, attraction, a-b-da, 14, 1, 1, 20, 125, 56, 135, 60, 60, 135, 1, 1.57192
78, 3, wb, attraction, a-b-da, 14, 1, 1, 20, 125, 56, 135, 60, 60, 135, 2, 2.1075
78, 3, wb, attraction, a-b-da, 2, 2, 1, 21, 90, 165, 163, 89, 165, 90, 2, 1.40403
78, 3, wb, attraction, a-b-da, 2, 2, 1, 21, 90, 165, 163, 89, 165, 90, 1, 0.658343
78, 3, wb, attraction, a-b-db, 5, 3, 1, 22, 195, 120, 120, 195, 117, 190, 3, 1.49333
78, 3, wb, attraction, a-b-db, 5, 3, 1, 22, 195, 120, 120, 195, 117, 190, 1, 0.864197
78, 3, wb, filler, NA, 999, 999, 1, 23, 102, 157, 159, 167, 147, 182, 1, 1.03512
78, 3, wb, filler, NA, 999, 999, 1, 23, 102, 157, 159, 167, 147, 182, 2, 0.928755
78, 3, wb, filler, NA, 999, 999, 1, 24, 174, 103, 138, 157, 80, 151, 3, 0.825136
78, 3, wb, filler, NA, 999, 999, 1, 24, 174, 103, 138, 157, 80, 151, 2, 0.854867
78, 3, wb, filler, NA, 999, 999, 1, 25, 181, 83, 68, 159, 70, 62, 3, 1.19446
78, 3, wb, filler, NA, 999, 999, 1, 25, 181, 83, 68, 159, 70, 62, 1, 0.769905
78, 3, wb, attraction, a-b-da, 5, 1, 1, 26, 135, 60, 132, 58, 60, 135, 1, 1.21655
78, 3, wb, attraction, a-b-da, 5, 1, 1, 26, 135, 60, 132, 58, 60, 135, 2, 1.22285
78, 3, wb, catch, NA, 999, 999, 1, 27, 159, 96, 70, 125, 143, 172, 2, 1.00365
78, 3, wb, catch, NA, 999, 999, 1, 27, 159, 96, 70, 125, 143, 172, 3, 1.17858
78, 3, wb, attraction, a-b-db, 14, 2, 1, 28, 83, 153, 165, 90, 90, 165, 1, 0.880745
78, 3, wb, attraction, a-b-db, 14, 2, 1, 28, 83, 153, 165, 90, 90, 165, 3, 0.860624
78, 3, wb, filler, NA, 999, 999, 1, 29, 162, 56, 168, 107, 190, 111, 1, 0.759647
78, 3, wb, filler, NA, 999, 999, 1, 29, 162, 56, 168, 107, 190, 111, 3, 0.704044
78, 3, wb, filler, NA, 999, 999, 1, 30, 76, 160, 90, 179, 108, 88, 3, 0.905727
78, 3, wb, filler, NA, 999, 999, 1, 30, 76, 160, 90, 179, 108, 88, 2, 0.827973
78, 3, wb, attraction, a-b-db, 5, 2, 1, 31, 88, 161, 90, 165, 165, 90, 1, 1.15243
78, 3, wb, attraction, a-b-db, 5, 2, 1, 31, 88, 161, 90, 165, 165, 90, 2, 0.817401
78, 3, wb, attraction, a-b-db, 2, 1, 1, 32, 60, 135, 59, 134, 135, 60, 1, 1.31845
78, 3, wb, attraction, a-b-db, 2, 1, 1, 32, 60, 135, 59, 134, 135, 60, 2, 1.09661
78, 3, wb, attraction, a-b-db, 14, 1, 1, 33, 56, 125, 135, 60, 60, 135, 1, 2.41021
78, 3, wb, attraction, a-b-db, 14, 1, 1, 33, 56, 125, 135, 60, 60, 135, 2, 0.384103
78, 3, wb, attraction, a-b-db, 9, 3, 1, 34, 120, 195, 114, 186, 195, 120, 3, 2.06267
78, 3, wb, attraction, a-b-db, 9, 3, 1, 34, 120, 195, 114, 186, 195, 120, 1, 0.882581
78, 3, wb, attraction, a-b-db, 2, 2, 1, 35, 89, 163, 165, 90, 90, 165, 1, 1.11686
78, 3, wb, attraction, a-b-db, 2, 2, 1, 35, 89, 163, 165, 90, 90, 165, 2, 0.895208
78, 3, wb, attraction, a-b-da, 9, 3, 1, 36, 120, 195, 186, 114, 195, 120, 2, 2.10492
78, 3, wb, attraction, a-b-da, 9, 3, 1, 36, 120, 195, 186, 114, 195, 120, 3, 1.40361
78, 3, wb, attraction, a-b-da, 5, 2, 1, 37, 90, 165, 165, 90, 161, 88, 1, 1.06492
78, 3, wb, attraction, a-b-da, 5, 2, 1, 37, 90, 165, 165, 90, 161, 88, 2, 0.445273
78, 3, wb, filler, NA, 999, 999, 2, 1, 108, 103, 127, 147, 63, 170, 1, 0.993065
78, 3, wb, filler, NA, 999, 999, 2, 1, 108, 103, 127, 147, 63, 170, 2, 1.30415
78, 3, wb, attraction, a-b-db, 2, 1, 2, 2, 135, 60, 59, 134, 60, 135, 2, 1.15371
78, 3, wb, attraction, a-b-db, 2, 1, 2, 2, 135, 60, 59, 134, 60, 135, 1, 0.618588
78, 3, wb, attraction, a-b-db, 9, 2, 2, 3, 90, 165, 86, 157, 165, 90, 1, 1.18379
78, 3, wb, attraction, a-b-db, 9, 2, 2, 3, 90, 165, 86, 157, 165, 90, 3, 0.711336
78, 3, wb, filler, NA, 999, 999, 2, 4, 175, 155, 74, 111, 145, 127, 2, 0.600376
78, 3, wb, filler, NA, 999, 999, 2, 4, 175, 155, 74, 111, 145, 127, 1, 0.951462
78, 3, wb, attraction, a-b-db, 9, 1, 2, 5, 57, 129, 135, 60, 60, 135, 3, 0.575096
78, 3, wb, attraction, a-b-db, 9, 1, 2, 5, 57, 129, 135, 60, 60, 135, 1, 0.662927
78, 3, wb, catch, NA, 999, 999, 2, 6, 116, 139, 149, 166, 105, 90, 3, 0.666037
78, 3, wb, catch, NA, 999, 999, 2, 6, 116, 139, 149, 166, 105, 90, 2, 0.686386
78, 3, wb, attraction, a-b-db, 2, 2, 2, 7, 89, 163, 165, 90, 90, 165, 1, 1.76079
78, 3, wb, attraction, a-b-db, 2, 2, 2, 7, 89, 163, 165, 90, 90, 165, 2, 1.13706
78, 3, wb, attraction, a-b-da, 2, 2, 2, 8, 163, 89, 165, 90, 90, 165, 1, 0.8491
78, 3, wb, attraction, a-b-da, 2, 2, 2, 8, 163, 89, 165, 90, 90, 165, 3, 1.23015
78, 3, wb, attraction, a-b-db, 5, 2, 2, 9, 88, 161, 90, 165, 165, 90, 1, 1.46636
78, 3, wb, attraction, a-b-db, 5, 2, 2, 9, 88, 161, 90, 165, 165, 90, 3, 0.542545
78, 3, wb, attraction, a-b-da, 5, 2, 2, 10, 90, 165, 161, 88, 165, 90, 2, 0.510401
78, 3, wb, attraction, a-b-da, 5, 2, 2, 10, 90, 165, 161, 88, 165, 90, 1, 0.512991
78, 3, wb, attraction, a-b-da, 14, 2, 2, 11, 153, 83, 90, 165, 165, 90, 1, 0.817937
78, 3, wb, attraction, a-b-da, 14, 2, 2, 11, 153, 83, 90, 165, 165, 90, 3, 0.704505
78, 3, wb, catch, NA, 999, 999, 2, 12, 135, 60, 178, 137, 123, 132, 1, 0.546168
78, 3, wb, catch, NA, 999, 999, 2, 12, 135, 60, 178, 137, 123, 132, 2, 0.995282
78, 3, wb, filler, NA, 999, 999, 2, 13, 133, 170, 58, 166, 107, 57, 3, 1.1369
78, 3, wb, filler, NA, 999, 999, 2, 13, 133, 170, 58, 166, 107, 57, 1, 0.490369
78, 3, wb, filler, NA, 999, 999, 2, 14, 143, 151, 116, 161, 150, 143, 2, 2.26025
78, 3, wb, filler, NA, 999, 999, 2, 14, 143, 151, 116, 161, 150, 143, 1, 2.01627
78, 3, wb, attraction, a-b-da, 9, 3, 2, 15, 120, 195, 186, 114, 195, 120, 1, 1.12487
78, 3, wb, attraction, a-b-da, 9, 3, 2, 15, 120, 195, 186, 114, 195, 120, 3, 0.550537
78, 3, wb, filler, NA, 999, 999, 2, 16, 144, 124, 186, 159, 182, 137, 1, 0.68617
78, 3, wb, filler, NA, 999, 999, 2, 16, 144, 124, 186, 159, 182, 137, 3, 0.545927
78, 3, wb, attraction, a-b-da, 9, 2, 2, 17, 90, 165, 157, 86, 165, 90, 2, 0.769797
78, 3, wb, attraction, a-b-da, 9, 2, 2, 17, 90, 165, 157, 86, 165, 90, 3, 0.410089
78, 3, wb, attraction, a-b-da, 5, 1, 2, 18, 60, 135, 132, 58, 135, 60, 2, 0.767227
78, 3, wb, attraction, a-b-da, 5, 1, 2, 18, 60, 135, 132, 58, 135, 60, 3, 0.623695
78, 3, wb, attraction, a-b-da, 2, 3, 2, 19, 195, 120, 120, 195, 193, 119, 2, 3.12408
78, 3, wb, attraction, a-b-da, 2, 3, 2, 19, 195, 120, 120, 195, 193, 119, 1, 0.861103
78, 3, wb, catch, NA, 999, 999, 2, 20, 73, 122, 186, 129, 97, 158, 1, 0.928155
78, 3, wb, catch, NA, 999, 999, 2, 20, 73, 122, 186, 129, 97, 158, 2, 0.553778
78, 3, wb, attraction, a-b-db, 5, 1, 2, 21, 135, 60, 58, 132, 60, 135, 1, 0.889503
78, 3, wb, attraction, a-b-db, 5, 1, 2, 21, 135, 60, 58, 132, 60, 135, 3, 0.692689
78, 3, wb, filler, NA, 999, 999, 2, 22, 79, 165, 95, 124, 89, 62, 3, 0.910415
78, 3, wb, filler, NA, 999, 999, 2, 22, 79, 165, 95, 124, 89, 62, 1, 1.16879
78, 3, wb, attraction, a-b-db, 14, 3, 2, 23, 120, 195, 195, 120, 111, 181, 1, 6.71156
78, 3, wb, attraction, a-b-db, 14, 3, 2, 23, 120, 195, 195, 120, 111, 181, 3, 0.984105
78, 3, wb, filler, NA, 999, 999, 2, 24, 84, 142, 143, 120, 129, 130, 1, 1.39039
78, 3, wb, filler, NA, 999, 999, 2, 24, 84, 142, 143, 120, 129, 130, 2, 0.653339
78, 3, wb, attraction, a-b-db, 14, 2, 2, 25, 90, 165, 165, 90, 83, 153, 3, 0.745011
78, 3, wb, attraction, a-b-db, 14, 2, 2, 25, 90, 165, 165, 90, 83, 153, 1, 0.658023
78, 3, wb, attraction, a-b-db, 2, 3, 2, 26, 119, 193, 120, 195, 195, 120, 3, 0.99718
78, 3, wb, attraction, a-b-db, 2, 3, 2, 26, 119, 193, 120, 195, 195, 120, 2, 0.72419
78, 3, wb, attraction, a-b-da, 5, 3, 2, 27, 195, 120, 190, 117, 120, 195, 2, 0.876509
78, 3, wb, attraction, a-b-da, 5, 3, 2, 27, 195, 120, 190, 117, 120, 195, 3, 0.744173
78, 3, wb, attraction, a-b-da, 9, 1, 2, 28, 135, 60, 60, 135, 129, 57, 2, 2.12806
78, 3, wb, attraction, a-b-da, 9, 1, 2, 28, 135, 60, 60, 135, 129, 57, 1, 0.385367
78, 3, wb, attraction, a-b-da, 14, 1, 2, 29, 125, 56, 60, 135, 135, 60, 1, 1.27971
78, 3, wb, attraction, a-b-da, 14, 1, 2, 29, 125, 56, 60, 135, 135, 60, 2, 0.499326
78, 3, wb, filler, NA, 999, 999, 2, 30, 99, 98, 177, 112, 182, 89, 1, 0.805116
78, 3, wb, filler, NA, 999, 999, 2, 30, 99, 98, 177, 112, 182, 89, 2, 0.827579
78, 3, wb, attraction, a-b-db, 5, 3, 2, 31, 120, 195, 117, 190, 195, 120, 1, 0.935861
78, 3, wb, attraction, a-b-db, 5, 3, 2, 31, 120, 195, 117, 190, 195, 120, 2, 1.04962
78, 3, wb, attraction, a-b-db, 14, 1, 2, 32, 60, 135, 56, 125, 135, 60, 3, 0.981104
78, 3, wb, attraction, a-b-db, 14, 1, 2, 32, 60, 135, 56, 125, 135, 60, 2, 0.660711
78, 3, wb, filler, NA, 999, 999, 2, 33, 140, 81, 139, 100, 58, 85, 3, 0.823764
78, 3, wb, filler, NA, 999, 999, 2, 33, 140, 81, 139, 100, 58, 85, 2, 0.701655
78, 3, wb, attraction, a-b-da, 2, 1, 2, 34, 135, 60, 134, 59, 60, 135, 2, 1.23123
78, 3, wb, attraction, a-b-da, 2, 1, 2, 34, 135, 60, 134, 59, 60, 135, 3, 0.444865
78, 3, wb, attraction, a-b-da, 14, 3, 2, 35, 120, 195, 181, 111, 195, 120, 1, 0.712657
78, 3, wb, attraction, a-b-da, 14, 3, 2, 35, 120, 195, 181, 111, 195, 120, 2, 0.867042
78, 3, wb, attraction, a-b-db, 9, 3, 2, 36, 120, 195, 195, 120, 114, 186, 3, 2.17414
78, 3, wb, attraction, a-b-db, 9, 3, 2, 36, 120, 195, 195, 120, 114, 186, 1, 0.573505
78, 3, wb, filler, NA, 999, 999, 2, 37, 181, 63, 62, 110, 85, 180, 2, 2.33178
78, 3, wb, filler, NA, 999, 999, 2, 37, 181, 63, 62, 110, 85, 180, 3, 0.421104
78, 3, wb, attraction, a-b-db, 2, 2, 3, 1, 90, 165, 89, 163, 165, 90, 2, 2.61829
78, 3, wb, attraction, a-b-db, 2, 2, 3, 1, 90, 165, 89, 163, 165, 90, 3, 1.52
78, 3, wb, attraction, a-b-da, 14, 3, 3, 2, 120, 195, 195, 120, 181, 111, 3, 1.44087
78, 3, wb, attraction, a-b-da, 14, 3, 3, 2, 120, 195, 195, 120, 181, 111, 1, 0.669681
78, 3, wb, filler, NA, 999, 999, 3, 3, 107, 153, 134, 121, 160, 76, 3, 0.904747
78, 3, wb, filler, NA, 999, 999, 3, 3, 107, 153, 134, 121, 160, 76, 2, 1.30728
78, 3, wb, attraction, a-b-db, 9, 1, 3, 4, 60, 135, 57, 129, 135, 60, 2, 2.57214
78, 3, wb, attraction, a-b-db, 9, 1, 3, 4, 60, 135, 57, 129, 135, 60, 1, 0.675183
78, 3, wb, attraction, a-b-db, 5, 3, 3, 5, 120, 195, 195, 120, 117, 190, 2, 3.25349
78, 3, wb, attraction, a-b-db, 5, 3, 3, 5, 120, 195, 195, 120, 117, 190, 1, 0.585848
78, 3, wb, attraction, a-b-db, 5, 2, 3, 6, 165, 90, 90, 165, 88, 161, 1, 206.321
78, 3, wb, attraction, a-b-db, 5, 2, 3, 6, 165, 90, 90, 165, 88, 161, 2, 0.540429
78, 3, wb, attraction, a-b-da, 2, 3, 3, 7, 193, 119, 195, 120, 120, 195, 1, 1.56427
78, 3, wb, attraction, a-b-da, 2, 3, 3, 7, 193, 119, 195, 120, 120, 195, 3, 0.964389
78, 3, wb, filler, NA, 999, 999, 3, 8, 188, 145, 98, 103, 112, 161, 2, 0.955343
78, 3, wb, filler, NA, 999, 999, 3, 8, 188, 145, 98, 103, 112, 161, 1, 0.667655
78, 3, wb, attraction, a-b-db, 5, 1, 3, 9, 58, 132, 60, 135, 135, 60, 1, 1.02273
78, 3, wb, attraction, a-b-db, 5, 1, 3, 9, 58, 132, 60, 135, 135, 60, 2, 0.764313
78, 3, wb, filler, NA, 999, 999, 3, 10, 118, 83, 150, 72, 164, 103, 1, 0.683401
78, 3, wb, filler, NA, 999, 999, 3, 10, 118, 83, 150, 72, 164, 103, 3, 0.583171
78, 3, wb, attraction, a-b-da, 5, 3, 3, 11, 195, 120, 120, 195, 190, 117, 3, 1.16572
78, 3, wb, attraction, a-b-da, 5, 3, 3, 11, 195, 120, 120, 195, 190, 117, 2, 0.925915
78, 3, wb, attraction, a-b-db, 2, 1, 3, 12, 60, 135, 59, 134, 135, 60, 3, 0.838185
78, 3, wb, attraction, a-b-db, 2, 1, 3, 12, 60, 135, 59, 134, 135, 60, 1, 0.491847
78, 3, wb, attraction, a-b-da, 2, 2, 3, 13, 90, 165, 165, 90, 163, 89, 1, 0.725698
78, 3, wb, attraction, a-b-da, 2, 2, 3, 13, 90, 165, 165, 90, 163, 89, 2, 0.93546
78, 3, wb, attraction, a-b-da, 14, 2, 3, 14, 165, 90, 153, 83, 90, 165, 1, 0.679773
78, 3, wb, attraction, a-b-da, 14, 2, 3, 14, 165, 90, 153, 83, 90, 165, 3, 0.723614
78, 3, wb, attraction, a-b-db, 2, 3, 3, 15, 120, 195, 119, 193, 195, 120, 3, 0.491923
78, 3, wb, attraction, a-b-db, 2, 3, 3, 15, 120, 195, 119, 193, 195, 120, 1, 0.511065
78, 3, wb, attraction, a-b-da, 9, 2, 3, 16, 90, 165, 157, 86, 165, 90, 2, 1.12816
78, 3, wb, attraction, a-b-da, 9, 2, 3, 16, 90, 165, 157, 86, 165, 90, 3, 0.322182
78, 3, wb, attraction, a-b-da, 2, 1, 3, 17, 60, 135, 134, 59, 135, 60, 3, 0.858974
78, 3, wb, attraction, a-b-da, 2, 1, 3, 17, 60, 135, 134, 59, 135, 60, 2, 0.631397
78, 3, wb, filler, NA, 999, 999, 3, 18, 144, 96, 143, 186, 151, 189, 1, 0.691721
78, 3, wb, filler, NA, 999, 999, 3, 18, 144, 96, 143, 186, 151, 189, 2, 2.02291
78, 3, wb, attraction, a-b-da, 9, 3, 3, 19, 186, 114, 120, 195, 195, 120, 1, 112.612
78, 3, wb, attraction, a-b-da, 9, 3, 3, 19, 186, 114, 120, 195, 195, 120, 2, 0.576315
78, 3, wb, attraction, a-b-db, 9, 3, 3, 20, 114, 186, 195, 120, 120, 195, 3, 0.846788
78, 3, wb, attraction, a-b-db, 9, 3, 3, 20, 114, 186, 195, 120, 120, 195, 1, 0.643689
78, 3, wb, attraction, a-b-db, 14, 1, 3, 21, 56, 125, 135, 60, 60, 135, 3, 0.575478
78, 3, wb, attraction, a-b-db, 14, 1, 3, 21, 56, 125, 135, 60, 60, 135, 2, 0.455362
78, 3, wb, catch, NA, 999, 999, 3, 22, 88, 107, 152, 163, 102, 153, 1, 0.835161
78, 3, wb, catch, NA, 999, 999, 3, 22, 88, 107, 152, 163, 102, 153, 2, 0.392889
78, 3, wb, catch, NA, 999, 999, 3, 23, 63, 132, 121, 134, 149, 166, 1, 1.14256
78, 3, wb, catch, NA, 999, 999, 3, 23, 63, 132, 121, 134, 149, 166, 3, 0.415539
78, 3, wb, filler, NA, 999, 999, 3, 24, 173, 125, 190, 89, 150, 63, 3, 0.980772
78, 3, wb, filler, NA, 999, 999, 3, 24, 173, 125, 190, 89, 150, 63, 1, 0.540407
78, 3, wb, filler, NA, 999, 999, 3, 25, 185, 131, 101, 121, 169, 192, 2, 0.628205
78, 3, wb, filler, NA, 999, 999, 3, 25, 185, 131, 101, 121, 169, 192, 3, 0.385851
78, 3, wb, attraction, a-b-db, 14, 2, 3, 26, 83, 153, 165, 90, 90, 165, 1, 1.68039
78, 3, wb, attraction, a-b-db, 14, 2, 3, 26, 83, 153, 165, 90, 90, 165, 3, 0.571924
78, 3, wb, filler, NA, 999, 999, 3, 27, 184, 114, 156, 107, 131, 162, 2, 1.41903
78, 3, wb, filler, NA, 999, 999, 3, 27, 184, 114, 156, 107, 131, 162, 1, 0.497147
78, 3, wb, filler, NA, 999, 999, 3, 28, 71, 63, 181, 64, 185, 92, 1, 0.778914
78, 3, wb, filler, NA, 999, 999, 3, 28, 71, 63, 181, 64, 185, 92, 3, 0.482619
78, 3, wb, attraction, a-b-db, 9, 2, 3, 29, 90, 165, 165, 90, 86, 157, 3, 40.3411
78, 3, wb, attraction, a-b-db, 9, 2, 3, 29, 90, 165, 165, 90, 86, 157, 1, 0.498504
78, 3, wb, attraction, a-b-da, 9, 1, 3, 30, 129, 57, 135, 60, 60, 135, 1, 1.0683
78, 3, wb, attraction, a-b-da, 9, 1, 3, 30, 129, 57, 135, 60, 60, 135, 3, 0.488697
78, 3, wb, filler, NA, 999, 999, 3, 31, 132, 173, 85, 180, 134, 97, 3, 1.01108
78, 3, wb, filler, NA, 999, 999, 3, 31, 132, 173, 85, 180, 134, 97, 1, 0.361463
78, 3, wb, attraction, a-b-db, 14, 3, 3, 32, 111, 181, 195, 120, 120, 195, 1, 0.680659
78, 3, wb, attraction, a-b-db, 14, 3, 3, 32, 111, 181, 195, 120, 120, 195, 3, 0.348267
78, 3, wb, filler, NA, 999, 999, 3, 33, 138, 156, 166, 182, 136, 92, 3, 0.988089
78, 3, wb, filler, NA, 999, 999, 3, 33, 138, 156, 166, 182, 136, 92, 2, 0.323722
78, 3, wb, attraction, a-b-da, 14, 1, 3, 34, 60, 135, 135, 60, 125, 56, 2, 1.03629
78, 3, wb, attraction, a-b-da, 14, 1, 3, 34, 60, 135, 135, 60, 125, 56, 3, 0.322059
78, 3, wb, attraction, a-b-da, 5, 1, 3, 35, 60, 135, 132, 58, 135, 60, 1, 0.907126
78, 3, wb, attraction, a-b-da, 5, 1, 3, 35, 60, 135, 132, 58, 135, 60, 3, 0.317538
78, 3, wb, catch, NA, 999, 999, 3, 36, 70, 125, 144, 171, 107, 148, 1, 1.37462
78, 3, wb, catch, NA, 999, 999, 3, 36, 70, 125, 144, 171, 107, 148, 2, 0.302201
78, 3, wb, attraction, a-b-da, 5, 2, 3, 37, 90, 165, 165, 90, 161, 88, 2, 1.18404
78, 3, wb, attraction, a-b-da, 5, 2, 3, 37, 90, 165, 165, 90, 161, 88, 1, 0.407651
78, 3, wb, attraction, a-b-da, 14, 2, 4, 1, 153, 83, 165, 90, 90, 165, 1, 0.820813
78, 3, wb, attraction, a-b-da, 14, 2, 4, 1, 153, 83, 165, 90, 90, 165, 3, 0.387256
78, 3, wb, attraction, a-b-da, 2, 1, 4, 2, 134, 59, 60, 135, 135, 60, 2, 0.88167
78, 3, wb, attraction, a-b-da, 2, 1, 4, 2, 134, 59, 60, 135, 135, 60, 3, 0.597469
78, 3, wb, attraction, a-b-db, 9, 1, 4, 3, 57, 129, 135, 60, 60, 135, 1, 0.419119
78, 3, wb, attraction, a-b-db, 9, 1, 4, 3, 57, 129, 135, 60, 60, 135, 3, 0.561629
78, 3, wb, attraction, a-b-da, 9, 1, 4, 4, 60, 135, 129, 57, 135, 60, 3, 0.896702
78, 3, wb, attraction, a-b-da, 9, 1, 4, 4, 60, 135, 129, 57, 135, 60, 1, 0.667883
78, 3, wb, attraction, a-b-db, 2, 2, 4, 5, 90, 165, 89, 163, 165, 90, 1, 0.726826
78, 3, wb, attraction, a-b-db, 2, 2, 4, 5, 90, 165, 89, 163, 165, 90, 3, 0.424659
78, 3, wb, catch, NA, 999, 999, 4, 6, 71, 124, 90, 165, 150, 165, 1, 0.637064
78, 3, wb, catch, NA, 999, 999, 4, 6, 71, 124, 90, 165, 150, 165, 2, 0.515011
78, 3, wb, filler, NA, 999, 999, 4, 7, 143, 66, 80, 78, 129, 192, 2, 0.771989
78, 3, wb, filler, NA, 999, 999, 4, 7, 143, 66, 80, 78, 129, 192, 3, 0.635741
78, 3, wb, filler, NA, 999, 999, 4, 8, 117, 68, 160, 64, 155, 187, 1, 0.359998
78, 3, wb, filler, NA, 999, 999, 4, 8, 117, 68, 160, 64, 155, 187, 3, 0.392626
78, 3, wb, attraction, a-b-da, 14, 3, 4, 9, 120, 195, 195, 120, 181, 111, 2, 3.49436
78, 3, wb, attraction, a-b-da, 14, 3, 4, 9, 120, 195, 195, 120, 181, 111, 3, 0.704746
78, 3, wb, attraction, a-b-db, 2, 3, 4, 10, 195, 120, 119, 193, 120, 195, 2, 1.70633
78, 3, wb, attraction, a-b-db, 2, 3, 4, 10, 195, 120, 119, 193, 120, 195, 1, 0.388352
78, 3, wb, filler, NA, 999, 999, 4, 11, 184, 90, 157, 83, 78, 82, 3, 0.530941
78, 3, wb, filler, NA, 999, 999, 4, 11, 184, 90, 157, 83, 78, 82, 1, 1.14876
78, 3, wb, attraction, a-b-da, 5, 1, 4, 12, 135, 60, 60, 135, 132, 58, 2, 1.31634
78, 3, wb, attraction, a-b-da, 5, 1, 4, 12, 135, 60, 60, 135, 132, 58, 1, 0.758549
78, 3, wb, attraction, a-b-db, 9, 2, 4, 13, 90, 165, 86, 157, 165, 90, 2, 1.31768
78, 3, wb, attraction, a-b-db, 9, 2, 4, 13, 90, 165, 86, 157, 165, 90, 3, 0.359857
78, 3, wb, attraction, a-b-da, 9, 2, 4, 14, 157, 86, 90, 165, 165, 90, 2, 0.670997
78, 3, wb, attraction, a-b-da, 9, 2, 4, 14, 157, 86, 90, 165, 165, 90, 1, 0.379511
78, 3, wb, filler, NA, 999, 999, 4, 15, 172, 191, 189, 137, 178, 113, 3, 1.08201
78, 3, wb, filler, NA, 999, 999, 4, 15, 172, 191, 189, 137, 178, 113, 1, 0.413572
78, 3, wb, attraction, a-b-db, 14, 3, 4, 16, 111, 181, 120, 195, 195, 120, 1, 0.858697
78, 3, wb, attraction, a-b-db, 14, 3, 4, 16, 111, 181, 120, 195, 195, 120, 3, 0.735102
78, 3, wb, attraction, a-b-db, 14, 1, 4, 17, 60, 135, 135, 60, 56, 125, 2, 0.655475
78, 3, wb, attraction, a-b-db, 14, 1, 4, 17, 60, 135, 135, 60, 56, 125, 1, 1.27589
78, 3, wb, filler, NA, 999, 999, 4, 18, 131, 77, 110, 194, 85, 92, 3, 0.75
78, 3, wb, filler, NA, 999, 999, 4, 18, 131, 77, 110, 194, 85, 92, 2, 0.447113
78, 3, wb, attraction, a-b-db, 2, 1, 4, 19, 135, 60, 60, 135, 59, 134, 2, 1.0751
78, 3, wb, attraction, a-b-db, 2, 1, 4, 19, 135, 60, 60, 135, 59, 134, 1, 0.718622
78, 3, wb, filler, NA, 999, 999, 4, 20, 144, 94, 99, 57, 135, 83, 2, 0.703592
78, 3, wb, filler, NA, 999, 999, 4, 20, 144, 94, 99, 57, 135, 83, 1, 0.402826
78, 3, wb, attraction, a-b-da, 2, 2, 4, 21, 165, 90, 90, 165, 163, 89, 3, 0.60857
78, 3, wb, attraction, a-b-da, 2, 2, 4, 21, 165, 90, 90, 165, 163, 89, 2, 0.566985
78, 3, wb, attraction, a-b-db, 5, 2, 4, 22, 165, 90, 90, 165, 88, 161, 1, 0.582133
78, 3, wb, attraction, a-b-db, 5, 2, 4, 22, 165, 90, 90, 165, 88, 161, 2, 0.317928
78, 3, wb, filler, NA, 999, 999, 4, 23, 99, 164, 95, 115, 127, 124, 2, 0.615101
78, 3, wb, filler, NA, 999, 999, 4, 23, 99, 164, 95, 115, 127, 124, 1, 0.757561
78, 3, wb, attraction, a-b-db, 5, 1, 4, 24, 60, 135, 58, 132, 135, 60, 1, 0.604586
78, 3, wb, attraction, a-b-db, 5, 1, 4, 24, 60, 135, 58, 132, 135, 60, 3, 0.923053
78, 3, wb, filler, NA, 999, 999, 4, 25, 108, 195, 140, 62, 160, 163, 2, 0.604079
78, 3, wb, filler, NA, 999, 999, 4, 25, 108, 195, 140, 62, 160, 163, 3, 0.347183
78, 3, wb, attraction, a-b-da, 14, 1, 4, 26, 135, 60, 125, 56, 60, 135, 2, 0.530949
78, 3, wb, attraction, a-b-da, 14, 1, 4, 26, 135, 60, 125, 56, 60, 135, 1, 0.276783
78, 3, wb, catch, NA, 999, 999, 4, 27, 125, 190, 86, 109, 131, 124, 2, 1.0153
78, 3, wb, catch, NA, 999, 999, 4, 27, 125, 190, 86, 109, 131, 124, 1, 0.309612
78, 3, wb, attraction, a-b-db, 14, 2, 4, 28, 83, 153, 90, 165, 165, 90, 1, 0.942777
78, 3, wb, attraction, a-b-db, 14, 2, 4, 28, 83, 153, 90, 165, 165, 90, 3, 0.455744
78, 3, wb, filler, NA, 999, 999, 4, 29, 157, 72, 146, 186, 67, 181, 2, 0.339714
78, 3, wb, filler, NA, 999, 999, 4, 29, 157, 72, 146, 186, 67, 181, 1, 1.71681
78, 3, wb, attraction, a-b-da, 2, 3, 4, 30, 193, 119, 195, 120, 120, 195, 2, 0.589527
78, 3, wb, attraction, a-b-da, 2, 3, 4, 30, 193, 119, 195, 120, 120, 195, 1, 0.372732
78, 3, wb, attraction, a-b-da, 5, 3, 4, 31, 190, 117, 195, 120, 120, 195, 1, 1.12381
78, 3, wb, attraction, a-b-da, 5, 3, 4, 31, 190, 117, 195, 120, 120, 195, 3, 0.261449
78, 3, wb, catch, NA, 999, 999, 4, 32, 137, 118, 124, 191, 71, 124, 3, 0.864675
78, 3, wb, catch, NA, 999, 999, 4, 32, 137, 118, 124, 191, 71, 124, 2, 0.701111
78, 3, wb, attraction, a-b-db, 9, 3, 4, 33, 195, 120, 120, 195, 114, 186, 1, 1.13467
78, 3, wb, attraction, a-b-db, 9, 3, 4, 33, 195, 120, 120, 195, 114, 186, 3, 0.616361
78, 3, wb, attraction, a-b-da, 5, 2, 4, 34, 165, 90, 161, 88, 90, 165, 2, 0.493443
78, 3, wb, attraction, a-b-da, 5, 2, 4, 34, 165, 90, 161, 88, 90, 165, 3, 0.440653
78, 3, wb, filler, NA, 999, 999, 4, 35, 126, 133, 171, 83, 71, 100, 3, 0.724533
78, 3, wb, filler, NA, 999, 999, 4, 35, 126, 133, 171, 83, 71, 100, 1, 0.422101
78, 3, wb, attraction, a-b-db, 5, 3, 4, 36, 195, 120, 120, 195, 117, 190, 2, 0.38724
78, 3, wb, attraction, a-b-db, 5, 3, 4, 36, 195, 120, 120, 195, 117, 190, 1, 0.507143
78, 3, wb, attraction, a-b-da, 9, 3, 4, 37, 120, 195, 186, 114, 195, 120, 1, 0.756191
78, 3, wb, attraction, a-b-da, 9, 3, 4, 37, 120, 195, 186, 114, 195, 120, 3, 0.356601
78, 3, wb, attraction, a-b-da, 14, 1, 5, 1, 60, 135, 135, 60, 125, 56, 2, 201.171
78, 3, wb, attraction, a-b-da, 14, 1, 5, 1, 60, 135, 135, 60, 125, 56, 1, 0.382236
78, 3, wb, attraction, a-b-db, 9, 3, 5, 2, 195, 120, 120, 195, 114, 186, 3, 24.5808
78, 3, wb, attraction, a-b-db, 9, 3, 5, 2, 195, 120, 120, 195, 114, 186, 2, 0.372959
78, 3, wb, attraction, a-b-da, 5, 3, 5, 3, 190, 117, 195, 120, 120, 195, 1, 1.19617
78, 3, wb, attraction, a-b-da, 5, 3, 5, 3, 190, 117, 195, 120, 120, 195, 2, 0.515211
78, 3, wb, filler, NA, 999, 999, 5, 4, 187, 60, 126, 110, 156, 193, 2, 1.11617
78, 3, wb, filler, NA, 999, 999, 5, 4, 187, 60, 126, 110, 156, 193, 3, 0.470562
78, 3, wb, filler, NA, 999, 999, 5, 5, 169, 87, 126, 74, 97, 121, 3, 1.19362
78, 3, wb, filler, NA, 999, 999, 5, 5, 169, 87, 126, 74, 97, 121, 1, 0.544626
78, 3, wb, attraction, a-b-db, 14, 3, 5, 6, 111, 181, 120, 195, 195, 120, 1, 0.736239
78, 3, wb, attraction, a-b-db, 14, 3, 5, 6, 111, 181, 120, 195, 195, 120, 3, 0.386049
78, 3, wb, attraction, a-b-db, 5, 1, 5, 7, 58, 132, 60, 135, 135, 60, 2, 0.632568
78, 3, wb, attraction, a-b-db, 5, 1, 5, 7, 58, 132, 60, 135, 135, 60, 3, 0.638381
78, 3, wb, attraction, a-b-da, 14, 2, 5, 8, 90, 165, 165, 90, 153, 83, 2, 0.634926
78, 3, wb, attraction, a-b-da, 14, 2, 5, 8, 90, 165, 165, 90, 153, 83, 1, 0.408524
78, 3, wb, attraction, a-b-da, 9, 1, 5, 9, 129, 57, 135, 60, 60, 135, 1, 0.693627
78, 3, wb, attraction, a-b-da, 9, 1, 5, 9, 129, 57, 135, 60, 60, 135, 2, 0.328724
78, 3, wb, catch, NA, 999, 999, 5, 10, 169, 146, 108, 87, 151, 104, 2, 0.801293
78, 3, wb, catch, NA, 999, 999, 5, 10, 169, 146, 108, 87, 151, 104, 1, 0.376353
78, 3, wb, attraction, a-b-da, 2, 3, 5, 11, 195, 120, 120, 195, 193, 119, 1, 0.934991
78, 3, wb, attraction, a-b-da, 2, 3, 5, 11, 195, 120, 120, 195, 193, 119, 2, 0.376596
78, 3, wb, attraction, a-b-db, 14, 1, 5, 12, 60, 135, 135, 60, 56, 125, 3, 0.943001
78, 3, wb, attraction, a-b-db, 14, 1, 5, 12, 60, 135, 135, 60, 56, 125, 2, 0.384092
78, 3, wb, attraction, a-b-da, 5, 2, 5, 13, 90, 165, 161, 88, 165, 90, 3, 0.342556
78, 3, wb, attraction, a-b-da, 5, 2, 5, 13, 90, 165, 161, 88, 165, 90, 1, 0.45574
78, 3, wb, filler, NA, 999, 999, 5, 14, 166, 164, 117, 159, 72, 175, 1, 0.571461
78, 3, wb, filler, NA, 999, 999, 5, 14, 166, 164, 117, 159, 72, 175, 3, 0.47525
78, 3, wb, filler, NA, 999, 999, 5, 15, 164, 113, 139, 165, 63, 66, 3, 0.949754
78, 3, wb, filler, NA, 999, 999, 5, 15, 164, 113, 139, 165, 63, 66, 2, 0.41476
78, 3, wb, filler, NA, 999, 999, 5, 16, 159, 172, 167, 110, 184, 78, 3, 0.555861
78, 3, wb, filler, NA, 999, 999, 5, 16, 159, 172, 167, 110, 184, 78, 1, 0.444331
78, 3, wb, attraction, a-b-db, 9, 2, 5, 17, 165, 90, 86, 157, 90, 165, 2, 0.472211
78, 3, wb, attraction, a-b-db, 9, 2, 5, 17, 165, 90, 86, 157, 90, 165, 3, 0.444183
78, 3, wb, attraction, a-b-db, 2, 2, 5, 18, 89, 163, 165, 90, 90, 165, 2, 0.439755
78, 3, wb, attraction, a-b-db, 2, 2, 5, 18, 89, 163, 165, 90, 90, 165, 3, 0.51698
78, 3, wb, attraction, a-b-da, 5, 1, 5, 19, 132, 58, 135, 60, 60, 135, 1, 0.373979
78, 3, wb, attraction, a-b-da, 5, 1, 5, 19, 132, 58, 135, 60, 60, 135, 2, 0.326107
78, 3, wb, attraction, a-b-db, 2, 1, 5, 20, 60, 135, 135, 60, 59, 134, 1, 0.38245
78, 3, wb, attraction, a-b-db, 2, 1, 5, 20, 60, 135, 135, 60, 59, 134, 2, 0.462324
78, 3, wb, attraction, a-b-db, 2, 3, 5, 21, 120, 195, 119, 193, 195, 120, 1, 0.825456
78, 3, wb, attraction, a-b-db, 2, 3, 5, 21, 120, 195, 119, 193, 195, 120, 2, 0.319092
78, 3, wb, filler, NA, 999, 999, 5, 22, 67, 186, 135, 195, 116, 175, 1, 55.4245
78, 3, wb, filler, NA, 999, 999, 5, 22, 67, 186, 135, 195, 116, 175, 2, 1.76572
78, 3, wb, attraction, a-b-db, 5, 3, 5, 23, 195, 120, 120, 195, 117, 190, 3, 0.692298
78, 3, wb, attraction, a-b-db, 5, 3, 5, 23, 195, 120, 120, 195, 117, 190, 2, 0.64746
78, 3, wb, attraction, a-b-db, 9, 1, 5, 24, 60, 135, 57, 129, 135, 60, 1, 0.947103
78, 3, wb, attraction, a-b-db, 9, 1, 5, 24, 60, 135, 57, 129, 135, 60, 3, 1.0603
78, 3, wb, attraction, a-b-da, 2, 2, 5, 25, 165, 90, 90, 165, 163, 89, 1, 0.567105
78, 3, wb, attraction, a-b-da, 2, 2, 5, 25, 165, 90, 90, 165, 163, 89, 2, 0.479605
78, 3, wb, attraction, a-b-db, 14, 2, 5, 26, 165, 90, 83, 153, 90, 165, 2, 0.778089
78, 3, wb, attraction, a-b-db, 14, 2, 5, 26, 165, 90, 83, 153, 90, 165, 3, 0.32182
78, 3, wb, attraction, a-b-db, 5, 2, 5, 27, 90, 165, 165, 90, 88, 161, 1, 0.514911
78, 3, wb, attraction, a-b-db, 5, 2, 5, 27, 90, 165, 165, 90, 88, 161, 2, 0.693519
78, 3, wb, attraction, a-b-da, 9, 3, 5, 28, 186, 114, 195, 120, 120, 195, 1, 0.447071
78, 3, wb, attraction, a-b-da, 9, 3, 5, 28, 186, 114, 195, 120, 120, 195, 3, 0.340365
78, 3, wb, attraction, a-b-da, 9, 2, 5, 29, 90, 165, 165, 90, 157, 86, 3, 0.772187
78, 3, wb, attraction, a-b-da, 9, 2, 5, 29, 90, 165, 165, 90, 157, 86, 2, 0.403927
78, 3, wb, filler, NA, 999, 999, 5, 30, 191, 91, 98, 67, 56, 176, 2, 0.721847
78, 3, wb, filler, NA, 999, 999, 5, 30, 191, 91, 98, 67, 56, 176, 1, 0.579475
78, 3, wb, attraction, a-b-da, 14, 3, 5, 31, 195, 120, 120, 195, 181, 111, 1, 1.03395
78, 3, wb, attraction, a-b-da, 14, 3, 5, 31, 195, 120, 120, 195, 181, 111, 2, 0.335576
78, 3, wb, catch, NA, 999, 999, 5, 32, 170, 145, 154, 101, 74, 121, 3, 0.559999
78, 3, wb, catch, NA, 999, 999, 5, 32, 170, 145, 154, 101, 74, 121, 1, 0.400489
78, 3, wb, catch, NA, 999, 999, 5, 33, 124, 191, 111, 84, 92, 163, 2, 0.646228
78, 3, wb, catch, NA, 999, 999, 5, 33, 124, 191, 111, 84, 92, 163, 1, 0.331377
78, 3, wb, filler, NA, 999, 999, 5, 34, 78, 125, 142, 159, 67, 145, 1, 0.795905
78, 3, wb, filler, NA, 999, 999, 5, 34, 78, 125, 142, 159, 67, 145, 2, 0.283132
78, 3, wb, filler, NA, 999, 999, 5, 35, 100, 75, 121, 86, 59, 144, 1, 0.621618
78, 3, wb, filler, NA, 999, 999, 5, 35, 100, 75, 121, 86, 59, 144, 2, 0.355313
78, 3, wb, filler, NA, 999, 999, 5, 36, 156, 108, 172, 98, 192, 110, 3, 0.323125
78, 3, wb, filler, NA, 999, 999, 5, 36, 156, 108, 172, 98, 192, 110, 2, 0.885015
78, 3, wb, attraction, a-b-da, 2, 1, 5, 37, 134, 59, 60, 135, 135, 60, 2, 0.695322
78, 3, wb, attraction, a-b-da, 2, 1, 5, 37, 134, 59, 60, 135, 135, 60, 1, 0.410383
78, 3, wb, attraction, a-b-da, 5, 3, 6, 1, 190, 117, 195, 120, 120, 195, 1, 0.343564
78, 3, wb, attraction, a-b-da, 5, 3, 6, 1, 190, 117, 195, 120, 120, 195, 3, 0.664766
78, 3, wb, attraction, a-b-db, 5, 3, 6, 2, 117, 190, 195, 120, 120, 195, 1, 2.04376
78, 3, wb, attraction, a-b-db, 5, 3, 6, 2, 117, 190, 195, 120, 120, 195, 2, 0.288485
78, 3, wb, filler, NA, 999, 999, 6, 3, 174, 186, 159, 177, 74, 173, 3, 0.514992
78, 3, wb, filler, NA, 999, 999, 6, 3, 174, 186, 159, 177, 74, 173, 1, 0.429533
78, 3, wb, catch, NA, 999, 999, 6, 4, 147, 168, 110, 85, 123, 132, 2, 0.47401
78, 3, wb, catch, NA, 999, 999, 6, 4, 147, 168, 110, 85, 123, 132, 1, 0.31774
78, 3, wb, attraction, a-b-da, 5, 1, 6, 5, 135, 60, 60, 135, 132, 58, 2, 1.58287
78, 3, wb, attraction, a-b-da, 5, 1, 6, 5, 135, 60, 60, 135, 132, 58, 1, 0.366409
78, 3, wb, attraction, a-b-db, 2, 2, 6, 6, 90, 165, 165, 90, 89, 163, 2, 0.63752
78, 3, wb, attraction, a-b-db, 2, 2, 6, 6, 90, 165, 165, 90, 89, 163, 3, 0.562671
78, 3, wb, attraction, a-b-db, 2, 1, 6, 7, 60, 135, 59, 134, 135, 60, 1, 0.725585
78, 3, wb, attraction, a-b-db, 2, 1, 6, 7, 60, 135, 59, 134, 135, 60, 2, 0.763561
78, 3, wb, filler, NA, 999, 999, 6, 8, 127, 80, 123, 187, 179, 191, 1, 0.73853
78, 3, wb, filler, NA, 999, 999, 6, 8, 127, 80, 123, 187, 179, 191, 3, 0.31565
78, 3, wb, filler, NA, 999, 999, 6, 9, 148, 105, 58, 162, 173, 101, 2, 0.701052
78, 3, wb, filler, NA, 999, 999, 6, 9, 148, 105, 58, 162, 173, 101, 3, 0.832154
78, 3, wb, attraction, a-b-db, 5, 2, 6, 10, 88, 161, 90, 165, 165, 90, 3, 0.860238
78, 3, wb, attraction, a-b-db, 5, 2, 6, 10, 88, 161, 90, 165, 165, 90, 2, 0.408595
78, 3, wb, filler, NA, 999, 999, 6, 11, 192, 125, 103, 153, 82, 70, 3, 0.669724
78, 3, wb, filler, NA, 999, 999, 6, 11, 192, 125, 103, 153, 82, 70, 1, 0.514223
78, 3, wb, attraction, a-b-db, 9, 1, 6, 12, 57, 129, 135, 60, 60, 135, 1, 0.731521
78, 3, wb, attraction, a-b-db, 9, 1, 6, 12, 57, 129, 135, 60, 60, 135, 2, 0.333098
78, 3, wb, attraction, a-b-da, 5, 2, 6, 13, 90, 165, 161, 88, 165, 90, 1, 0.75753
78, 3, wb, attraction, a-b-da, 5, 2, 6, 13, 90, 165, 161, 88, 165, 90, 3, 0.358007
78, 3, wb, attraction, a-b-db, 2, 3, 6, 14, 195, 120, 119, 193, 120, 195, 1, 0.645212
78, 3, wb, attraction, a-b-db, 2, 3, 6, 14, 195, 120, 119, 193, 120, 195, 2, 0.266268
78, 3, wb, attraction, a-b-db, 14, 1, 6, 15, 60, 135, 135, 60, 56, 125, 3, 0.58142
78, 3, wb, attraction, a-b-db, 14, 1, 6, 15, 60, 135, 135, 60, 56, 125, 2, 0.549213
78, 3, wb, attraction, a-b-db, 9, 2, 6, 16, 90, 165, 86, 157, 165, 90, 1, 0.68491
78, 3, wb, attraction, a-b-db, 9, 2, 6, 16, 90, 165, 86, 157, 165, 90, 2, 1.03283
78, 3, wb, catch, NA, 999, 999, 6, 17, 67, 128, 157, 98, 157, 158, 1, 0.805064
78, 3, wb, catch, NA, 999, 999, 6, 17, 67, 128, 157, 98, 157, 158, 3, 0.28339
78, 3, wb, attraction, a-b-db, 9, 3, 6, 18, 120, 195, 195, 120, 114, 186, 2, 0.909973
78, 3, wb, attraction, a-b-db, 9, 3, 6, 18, 120, 195, 195, 120, 114, 186, 1, 0.32032
78, 3, wb, attraction, a-b-da, 2, 3, 6, 19, 193, 119, 120, 195, 195, 120, 1, 0.945546
78, 3, wb, attraction, a-b-da, 2, 3, 6, 19, 193, 119, 120, 195, 195, 120, 2, 0.346539
78, 3, wb, filler, NA, 999, 999, 6, 20, 106, 143, 111, 76, 82, 94, 3, 0.418441
78, 3, wb, filler, NA, 999, 999, 6, 20, 106, 143, 111, 76, 82, 94, 1, 0.61694
78, 3, wb, attraction, a-b-da, 2, 2, 6, 21, 90, 165, 163, 89, 165, 90, 1, 0.766025
78, 3, wb, attraction, a-b-da, 2, 2, 6, 21, 90, 165, 163, 89, 165, 90, 2, 0.390227
78, 3, wb, filler, NA, 999, 999, 6, 22, 60, 189, 101, 115, 108, 191, 2, 1.26007
78, 3, wb, filler, NA, 999, 999, 6, 22, 60, 189, 101, 115, 108, 191, 3, 0.464349
78, 3, wb, attraction, a-b-da, 14, 1, 6, 23, 125, 56, 60, 135, 135, 60, 1, 1.01152
78, 3, wb, attraction, a-b-da, 14, 1, 6, 23, 125, 56, 60, 135, 135, 60, 3, 0.737881
78, 3, wb, attraction, a-b-da, 9, 1, 6, 24, 60, 135, 135, 60, 129, 57, 1, 0.834229
78, 3, wb, attraction, a-b-da, 9, 1, 6, 24, 60, 135, 135, 60, 129, 57, 3, 0.447922
78, 3, wb, filler, NA, 999, 999, 6, 25, 175, 143, 141, 104, 144, 90, 2, 1.05977
78, 3, wb, filler, NA, 999, 999, 6, 25, 175, 143, 141, 104, 144, 90, 1, 0.488016
78, 3, wb, attraction, a-b-da, 9, 2, 6, 26, 165, 90, 157, 86, 90, 165, 1, 0.810406
78, 3, wb, attraction, a-b-da, 9, 2, 6, 26, 165, 90, 157, 86, 90, 165, 3, 0.264981
78, 3, wb, filler, NA, 999, 999, 6, 27, 76, 130, 110, 136, 98, 170, 1, 0.532034
78, 3, wb, filler, NA, 999, 999, 6, 27, 76, 130, 110, 136, 98, 170, 3, 0.405865
78, 3, wb, attraction, a-b-db, 5, 1, 6, 28, 60, 135, 58, 132, 135, 60, 2, 0.459783
78, 3, wb, attraction, a-b-db, 5, 1, 6, 28, 60, 135, 58, 132, 135, 60, 3, 0.552241
78, 3, wb, attraction, a-b-da, 2, 1, 6, 29, 134, 59, 60, 135, 135, 60, 2, 1.27197
78, 3, wb, attraction, a-b-da, 2, 1, 6, 29, 134, 59, 60, 135, 135, 60, 1, 1.44365
78, 3, wb, attraction, a-b-da, 14, 2, 6, 30, 165, 90, 90, 165, 153, 83, 2, 0.48702
78, 3, wb, attraction, a-b-da, 14, 2, 6, 30, 165, 90, 90, 165, 153, 83, 3, 0.450882
78, 3, wb, attraction, a-b-db, 14, 3, 6, 31, 111, 181, 120, 195, 195, 120, 1, 1.2626
78, 3, wb, attraction, a-b-db, 14, 3, 6, 31, 111, 181, 120, 195, 195, 120, 3, 0.354905
78, 3, wb, filler, NA, 999, 999, 6, 32, 141, 137, 115, 180, 91, 122, 3, 0.658889
78, 3, wb, filler, NA, 999, 999, 6, 32, 141, 137, 115, 180, 91, 122, 2, 0.33523
78, 3, wb, attraction, a-b-da, 9, 3, 6, 33, 186, 114, 195, 120, 120, 195, 2, 5.19169
78, 3, wb, attraction, a-b-da, 9, 3, 6, 33, 186, 114, 195, 120, 120, 195, 3, 0.333321
78, 3, wb, attraction, a-b-db, 14, 2, 6, 34, 83, 153, 90, 165, 165, 90, 1, 0.597887
78, 3, wb, attraction, a-b-db, 14, 2, 6, 34, 83, 153, 90, 165, 165, 90, 3, 0.548988
78, 3, wb, catch, NA, 999, 999, 6, 35, 90, 105, 114, 141, 120, 195, 1, 0.81279
78, 3, wb, catch, NA, 999, 999, 6, 35, 90, 105, 114, 141, 120, 195, 3, 0.323343
78, 3, wb, filler, NA, 999, 999, 6, 36, 72, 171, 131, 56, 148, 126, 2, 0.715622
78, 3, wb, filler, NA, 999, 999, 6, 36, 72, 171, 131, 56, 148, 126, 3, 0.413994
78, 3, wb, attraction, a-b-da, 14, 3, 6, 37, 195, 120, 120, 195, 181, 111, 2, 0.475219
78, 3, wb, attraction, a-b-da, 14, 3, 6, 37, 195, 120, 120, 195, 181, 111, 1, 0.343038
78, 3, wb, catch, NA, 999, 999, 7, 1, 140, 115, 135, 60, 143, 172, 2, 0.502862
78, 3, wb, catch, NA, 999, 999, 7, 1, 140, 115, 135, 60, 143, 172, 3, 0.722019
78, 3, wb, catch, NA, 999, 999, 7, 2, 144, 171, 163, 92, 86, 109, 3, 0.75503
78, 3, wb, catch, NA, 999, 999, 7, 2, 144, 171, 163, 92, 86, 109, 1, 0.483467
78, 3, wb, attraction, a-b-db, 9, 2, 7, 3, 90, 165, 165, 90, 86, 157, 3, 1.62993
78, 3, wb, attraction, a-b-db, 9, 2, 7, 3, 90, 165, 165, 90, 86, 157, 1, 1.56336
78, 3, wb, attraction, a-b-db, 5, 3, 7, 4, 120, 195, 117, 190, 195, 120, 2, 0.674078
78, 3, wb, attraction, a-b-db, 5, 3, 7, 4, 120, 195, 117, 190, 195, 120, 1, 0.390014
78, 3, wb, attraction, a-b-da, 2, 2, 7, 5, 163, 89, 90, 165, 165, 90, 2, 0.691693
78, 3, wb, attraction, a-b-da, 2, 2, 7, 5, 163, 89, 90, 165, 165, 90, 3, 0.4228
78, 3, wb, filler, NA, 999, 999, 7, 6, 128, 57, 190, 114, 84, 111, 1, 0.731976
78, 3, wb, filler, NA, 999, 999, 7, 6, 128, 57, 190, 114, 84, 111, 2, 0.33388
78, 3, wb, attraction, a-b-da, 9, 2, 7, 7, 90, 165, 157, 86, 165, 90, 2, 0.854238
78, 3, wb, attraction, a-b-da, 9, 2, 7, 7, 90, 165, 157, 86, 165, 90, 3, 1.00326
78, 3, wb, attraction, a-b-db, 2, 1, 7, 8, 59, 134, 135, 60, 60, 135, 3, 0.696984
78, 3, wb, attraction, a-b-db, 2, 1, 7, 8, 59, 134, 135, 60, 60, 135, 1, 0.611982
78, 3, wb, filler, NA, 999, 999, 7, 9, 173, 65, 192, 150, 112, 147, 1, 0.769209
78, 3, wb, filler, NA, 999, 999, 7, 9, 173, 65, 192, 150, 112, 147, 2, 0.361578
78, 3, wb, attraction, a-b-da, 5, 2, 7, 10, 165, 90, 90, 165, 161, 88, 1, 0.544604
78, 3, wb, attraction, a-b-da, 5, 2, 7, 10, 165, 90, 90, 165, 161, 88, 2, 0.369787
78, 3, wb, attraction, a-b-da, 14, 2, 7, 11, 90, 165, 165, 90, 153, 83, 3, 0.90493
78, 3, wb, attraction, a-b-da, 14, 2, 7, 11, 90, 165, 165, 90, 153, 83, 1, 0.355265
78, 3, wb, attraction, a-b-da, 9, 3, 7, 12, 186, 114, 120, 195, 195, 120, 2, 0.71518
78, 3, wb, attraction, a-b-da, 9, 3, 7, 12, 186, 114, 120, 195, 195, 120, 3, 0.741608
78, 3, wb, attraction, a-b-db, 5, 2, 7, 13, 165, 90, 88, 161, 90, 165, 2, 0.637264
78, 3, wb, attraction, a-b-db, 5, 2, 7, 13, 165, 90, 88, 161, 90, 165, 1, 1.06707
78, 3, wb, attraction, a-b-da, 5, 1, 7, 14, 135, 60, 60, 135, 132, 58, 2, 0.725983
78, 3, wb, attraction, a-b-da, 5, 1, 7, 14, 135, 60, 60, 135, 132, 58, 3, 0.503729
78, 3, wb, filler, NA, 999, 999, 7, 15, 185, 167, 119, 187, 123, 189, 3, 0.577514
78, 3, wb, filler, NA, 999, 999, 7, 15, 185, 167, 119, 187, 123, 189, 1, 0.513349
78, 3, wb, filler, NA, 999, 999, 7, 16, 170, 94, 89, 70, 68, 170, 2, 0.810423
78, 3, wb, filler, NA, 999, 999, 7, 16, 170, 94, 89, 70, 68, 170, 1, 0.544827
78, 3, wb, filler, NA, 999, 999, 7, 17, 144, 176, 108, 70, 191, 119, 2, 0.73651
78, 3, wb, filler, NA, 999, 999, 7, 17, 144, 176, 108, 70, 191, 119, 1, 0.714391
78, 3, wb, attraction, a-b-db, 2, 2, 7, 18, 90, 165, 165, 90, 89, 163, 2, 0.595387
78, 3, wb, attraction, a-b-db, 2, 2, 7, 18, 90, 165, 165, 90, 89, 163, 3, 0.394563
78, 3, wb, attraction, a-b-db, 9, 3, 7, 19, 114, 186, 120, 195, 195, 120, 2, 0.672295
78, 3, wb, attraction, a-b-db, 9, 3, 7, 19, 114, 186, 120, 195, 195, 120, 1, 0.348016
78, 3, wb, filler, NA, 999, 999, 7, 20, 76, 97, 169, 82, 97, 148, 1, 0.691839
78, 3, wb, filler, NA, 999, 999, 7, 20, 76, 97, 169, 82, 97, 148, 3, 0.607141
78, 3, wb, attraction, a-b-db, 14, 3, 7, 21, 120, 195, 111, 181, 195, 120, 2, 0.820109
78, 3, wb, attraction, a-b-db, 14, 3, 7, 21, 120, 195, 111, 181, 195, 120, 3, 0.514503
78, 3, wb, filler, NA, 999, 999, 7, 22, 60, 83, 57, 100, 126, 186, 1, 1.80349
78, 3, wb, filler, NA, 999, 999, 7, 22, 60, 83, 57, 100, 126, 186, 3, 0.346245
78, 3, wb, attraction, a-b-db, 14, 1, 7, 23, 60, 135, 135, 60, 56, 125, 2, 0.906256
78, 3, wb, attraction, a-b-db, 14, 1, 7, 23, 60, 135, 135, 60, 56, 125, 1, 0.604542
78, 3, wb, attraction, a-b-da, 9, 1, 7, 24, 129, 57, 60, 135, 135, 60, 2, 0.498252
78, 3, wb, attraction, a-b-da, 9, 1, 7, 24, 129, 57, 60, 135, 135, 60, 1, 0.413394
78, 3, wb, filler, NA, 999, 999, 7, 25, 72, 93, 76, 149, 96, 91, 1, 1.01856
78, 3, wb, filler, NA, 999, 999, 7, 25, 72, 93, 76, 149, 96, 91, 2, 0.505018
78, 3, wb, catch, NA, 999, 999, 7, 26, 153, 162, 97, 158, 69, 126, 3, 1.33868
78, 3, wb, catch, NA, 999, 999, 7, 26, 153, 162, 97, 158, 69, 126, 1, 0.467542
78, 3, wb, attraction, a-b-db, 14, 2, 7, 27, 165, 90, 90, 165, 83, 153, 2, 1.11067
78, 3, wb, attraction, a-b-db, 14, 2, 7, 27, 165, 90, 90, 165, 83, 153, 1, 0.409089
78, 3, wb, attraction, a-b-da, 5, 3, 7, 28, 195, 120, 120, 195, 190, 117, 2, 0.766164
78, 3, wb, attraction, a-b-da, 5, 3, 7, 28, 195, 120, 120, 195, 190, 117, 3, 0.302561
78, 3, wb, attraction, a-b-da, 2, 3, 7, 29, 193, 119, 120, 195, 195, 120, 1, 0.752371
78, 3, wb, attraction, a-b-da, 2, 3, 7, 29, 193, 119, 120, 195, 195, 120, 2, 0.393423
78, 3, wb, attraction, a-b-db, 5, 1, 7, 30, 135, 60, 60, 135, 58, 132, 1, 1.43121
78, 3, wb, attraction, a-b-db, 5, 1, 7, 30, 135, 60, 60, 135, 58, 132, 3, 0.540918
78, 3, wb, attraction, a-b-db, 2, 3, 7, 31, 120, 195, 195, 120, 119, 193, 3, 0.468547
78, 3, wb, attraction, a-b-db, 2, 3, 7, 31, 120, 195, 195, 120, 119, 193, 2, 0.561062
78, 3, wb, attraction, a-b-da, 14, 3, 7, 32, 195, 120, 120, 195, 181, 111, 3, 0.512127
78, 3, wb, attraction, a-b-da, 14, 3, 7, 32, 195, 120, 120, 195, 181, 111, 1, 0.498614
78, 3, wb, filler, NA, 999, 999, 7, 33, 176, 173, 157, 170, 142, 110, 3, 0.644497
78, 3, wb, filler, NA, 999, 999, 7, 33, 176, 173, 157, 170, 142, 110, 1, 0.45751
78, 3, wb, attraction, a-b-da, 14, 1, 7, 34, 60, 135, 125, 56, 135, 60, 1, 0.716602
78, 3, wb, attraction, a-b-da, 14, 1, 7, 34, 60, 135, 125, 56, 135, 60, 3, 0.431066
78, 3, wb, filler, NA, 999, 999, 7, 35, 69, 105, 169, 77, 152, 107, 1, 0.427587
78, 3, wb, filler, NA, 999, 999, 7, 35, 69, 105, 169, 77, 152, 107, 3, 0.53754
78, 3, wb, attraction, a-b-da, 2, 1, 7, 36, 134, 59, 135, 60, 60, 135, 1, 0.833819
78, 3, wb, attraction, a-b-da, 2, 1, 7, 36, 134, 59, 135, 60, 60, 135, 3, 3.12767
78, 3, wb, attraction, a-b-db, 9, 1, 7, 37, 60, 135, 57, 129, 135, 60, 1, 0.823127
78, 3, wb, attraction, a-b-db, 9, 1, 7, 37, 60, 135, 57, 129, 135, 60, 2, 0.484799
78, 3, wb, attraction, a-b-da, 2, 2, 8, 1, 163, 89, 165, 90, 90, 165, 1, 0.879459
78, 3, wb, attraction, a-b-da, 2, 2, 8, 1, 163, 89, 165, 90, 90, 165, 2, 0.627006
78, 3, wb, attraction, a-b-db, 2, 3, 8, 2, 119, 193, 195, 120, 120, 195, 1, 0.799441
78, 3, wb, attraction, a-b-db, 2, 3, 8, 2, 119, 193, 195, 120, 120, 195, 2, 0.462606
78, 3, wb, attraction, a-b-da, 9, 2, 8, 3, 90, 165, 165, 90, 157, 86, 3, 1.18558
78, 3, wb, attraction, a-b-da, 9, 2, 8, 3, 90, 165, 165, 90, 157, 86, 1, 0.585241
78, 3, wb, attraction, a-b-da, 14, 3, 8, 4, 181, 111, 195, 120, 120, 195, 3, 0.407729
78, 3, wb, attraction, a-b-da, 14, 3, 8, 4, 181, 111, 195, 120, 120, 195, 1, 0.518149
78, 3, wb, attraction, a-b-da, 5, 1, 8, 5, 60, 135, 132, 58, 135, 60, 2, 0.543263
78, 3, wb, attraction, a-b-da, 5, 1, 8, 5, 60, 135, 132, 58, 135, 60, 3, 0.712389
78, 3, wb, attraction, a-b-db, 9, 1, 8, 6, 60, 135, 135, 60, 57, 129, 2, 0.761646
78, 3, wb, attraction, a-b-db, 9, 1, 8, 6, 60, 135, 135, 60, 57, 129, 1, 0.68188
78, 3, wb, filler, NA, 999, 999, 8, 7, 116, 189, 136, 145, 129, 69, 3, 0.348197
78, 3, wb, filler, NA, 999, 999, 8, 7, 116, 189, 136, 145, 129, 69, 1, 0.549395
78, 3, wb, filler, NA, 999, 999, 8, 8, 174, 132, 129, 113, 71, 92, 3, 0.59721
78, 3, wb, filler, NA, 999, 999, 8, 8, 174, 132, 129, 113, 71, 92, 1, 0.620394
78, 3, wb, attraction, a-b-db, 9, 2, 8, 9, 90, 165, 86, 157, 165, 90, 2, 1.14546
78, 3, wb, attraction, a-b-db, 9, 2, 8, 9, 90, 165, 86, 157, 165, 90, 1, 0.442471
78, 3, wb, attraction, a-b-da, 2, 3, 8, 10, 193, 119, 120, 195, 195, 120, 2, 0.782144
78, 3, wb, attraction, a-b-da, 2, 3, 8, 10, 193, 119, 120, 195, 195, 120, 3, 0.341852
78, 3, wb, attraction, a-b-db, 14, 3, 8, 11, 120, 195, 195, 120, 111, 181, 3, 0.573751
78, 3, wb, attraction, a-b-db, 14, 3, 8, 11, 120, 195, 195, 120, 111, 181, 1, 0.829556
78, 3, wb, filler, NA, 999, 999, 8, 12, 136, 65, 169, 158, 81, 77, 3, 1.07395
78, 3, wb, filler, NA, 999, 999, 8, 12, 136, 65, 169, 158, 81, 77, 2, 0.357618
78, 3, wb, catch, NA, 999, 999, 8, 13, 157, 98, 130, 185, 88, 107, 3, 0.916671
78, 3, wb, catch, NA, 999, 999, 8, 13, 157, 98, 130, 185, 88, 107, 2, 0.423243
78, 3, wb, filler, NA, 999, 999, 8, 14, 153, 175, 70, 137, 181, 73, 2, 1.17222
78, 3, wb, filler, NA, 999, 999, 8, 14, 153, 175, 70, 137, 181, 73, 1, 0.339787
78, 3, wb, attraction, a-b-da, 9, 3, 8, 15, 120, 195, 186, 114, 195, 120, 2, 1.22761
78, 3, wb, attraction, a-b-da, 9, 3, 8, 15, 120, 195, 186, 114, 195, 120, 1, 0.849253
78, 3, wb, attraction, a-b-da, 2, 1, 8, 16, 134, 59, 135, 60, 60, 135, 3, 1.45294
78, 3, wb, attraction, a-b-da, 2, 1, 8, 16, 134, 59, 135, 60, 60, 135, 2, 1.04975
78, 3, wb, filler, NA, 999, 999, 8, 17, 74, 109, 76, 85, 71, 118, 2, 0.869364
78, 3, wb, filler, NA, 999, 999, 8, 17, 74, 109, 76, 85, 71, 118, 3, 0.657758
78, 3, wb, attraction, a-b-da, 5, 2, 8, 18, 161, 88, 165, 90, 90, 165, 2, 0.66878
78, 3, wb, attraction, a-b-da, 5, 2, 8, 18, 161, 88, 165, 90, 90, 165, 1, 0.345433
78, 3, wb, attraction, a-b-db, 5, 2, 8, 19, 90, 165, 88, 161, 165, 90, 3, 0.665049
78, 3, wb, attraction, a-b-db, 5, 2, 8, 19, 90, 165, 88, 161, 165, 90, 1, 0.445486
78, 3, wb, attraction, a-b-da, 14, 1, 8, 20, 135, 60, 125, 56, 60, 135, 3, 0.63335
78, 3, wb, attraction, a-b-da, 14, 1, 8, 20, 135, 60, 125, 56, 60, 135, 1, 0.671171
78, 3, wb, filler, NA, 999, 999, 8, 21, 149, 176, 85, 78, 88, 103, 2, 0.890179
78, 3, wb, filler, NA, 999, 999, 8, 21, 149, 176, 85, 78, 88, 103, 1, 0.341311
78, 3, wb, attraction, a-b-db, 14, 2, 8, 22, 165, 90, 83, 153, 90, 165, 2, 1.36495
78, 3, wb, attraction, a-b-db, 14, 2, 8, 22, 165, 90, 83, 153, 90, 165, 3, 0.717144
78, 3, wb, attraction, a-b-db, 14, 1, 8, 23, 56, 125, 135, 60, 60, 135, 3, 0.862164
78, 3, wb, attraction, a-b-db, 14, 1, 8, 23, 56, 125, 135, 60, 60, 135, 2, 0.370661
78, 3, wb, attraction, a-b-db, 2, 1, 8, 24, 59, 134, 135, 60, 60, 135, 1, 0.913877
78, 3, wb, attraction, a-b-db, 2, 1, 8, 24, 59, 134, 135, 60, 60, 135, 2, 0.612145
78, 3, wb, attraction, a-b-db, 5, 1, 8, 25, 58, 132, 60, 135, 135, 60, 1, 0.665356
78, 3, wb, attraction, a-b-db, 5, 1, 8, 25, 58, 132, 60, 135, 135, 60, 3, 0.709603
78, 3, wb, catch, NA, 999, 999, 8, 26, 143, 172, 90, 105, 150, 105, 2, 0.350764
78, 3, wb, catch, NA, 999, 999, 8, 26, 143, 172, 90, 105, 150, 105, 1, 0.4079
78, 3, wb, filler, NA, 999, 999, 8, 27, 144, 87, 159, 165, 126, 130, 1, 1.54104
78, 3, wb, filler, NA, 999, 999, 8, 27, 144, 87, 159, 165, 126, 130, 2, 0.317807
78, 3, wb, filler, NA, 999, 999, 8, 28, 77, 184, 115, 99, 176, 154, 1, 0.823052
78, 3, wb, filler, NA, 999, 999, 8, 28, 77, 184, 115, 99, 176, 154, 3, 0.724737
78, 3, wb, attraction, a-b-db, 9, 3, 8, 29, 120, 195, 114, 186, 195, 120, 2, 4.13308
78, 3, wb, attraction, a-b-db, 9, 3, 8, 29, 120, 195, 114, 186, 195, 120, 1, 0.589907
78, 3, wb, catch, NA, 999, 999, 8, 30, 127, 68, 191, 124, 107, 148, 1, 1.12431
78, 3, wb, catch, NA, 999, 999, 8, 30, 127, 68, 191, 124, 107, 148, 2, 0.461895
78, 3, wb, attraction, a-b-db, 5, 3, 8, 31, 120, 195, 117, 190, 195, 120, 3, 2.03304
78, 3, wb, attraction, a-b-db, 5, 3, 8, 31, 120, 195, 117, 190, 195, 120, 1, 0.438343
78, 3, wb, filler, NA, 999, 999, 8, 32, 104, 152, 65, 188, 187, 145, 2, 1.15494
78, 3, wb, filler, NA, 999, 999, 8, 32, 104, 152, 65, 188, 187, 145, 3, 1.07584
78, 3, wb, attraction, a-b-da, 14, 2, 8, 33, 165, 90, 153, 83, 90, 165, 2, 6.78203
78, 3, wb, attraction, a-b-da, 14, 2, 8, 33, 165, 90, 153, 83, 90, 165, 1, 0.635933
78, 3, wb, attraction, a-b-da, 5, 3, 8, 34, 195, 120, 120, 195, 190, 117, 3, 0.624314
78, 3, wb, attraction, a-b-da, 5, 3, 8, 34, 195, 120, 120, 195, 190, 117, 1, 0.558236
78, 3, wb, attraction, a-b-da, 9, 1, 8, 35, 135, 60, 129, 57, 60, 135, 3, 0.493114
78, 3, wb, attraction, a-b-da, 9, 1, 8, 35, 135, 60, 129, 57, 60, 135, 1, 0.504319
78, 3, wb, filler, NA, 999, 999, 8, 36, 138, 166, 117, 164, 122, 59, 3, 0.666169
78, 3, wb, filler, NA, 999, 999, 8, 36, 138, 166, 117, 164, 122, 59, 1, 0.502604
78, 3, wb, attraction, a-b-db, 2, 2, 8, 37, 89, 163, 165, 90, 90, 165, 2, 1.8323
78, 3, wb, attraction, a-b-db, 2, 2, 8, 37, 89, 163, 165, 90, 90, 165, 3, 0.573723
