sub_n, computer_n, bw_cond, effect, set, distance, diag, block_n, trial_n, h1, w1, h2, w2, h3, w3, choice, rt 
81, 3, bw, practice, NA, 999, 999, 0, 1, 107, 135, 66, 140, 154, 140, 3, 5.11095
81, 3, bw, practice, NA, 999, 999, 0, 1, 107, 135, 66, 140, 154, 140, 2, 3.78456
81, 3, bw, practice, NA, 999, 999, 0, 2, 176, 163, 113, 99, 88, 72, 1, 2.3798
81, 3, bw, practice, NA, 999, 999, 0, 2, 176, 163, 113, 99, 88, 72, 3, 1.73094
81, 3, bw, practice, NA, 999, 999, 0, 3, 123, 170, 127, 180, 191, 104, 2, 7.20903
81, 3, bw, practice, NA, 999, 999, 0, 3, 123, 170, 127, 180, 191, 104, 1, 4.02134
81, 3, bw, attraction, a-b-db, 9, 2, 1, 1, 86, 157, 90, 165, 165, 90, 2, 4.95612
81, 3, bw, attraction, a-b-db, 9, 2, 1, 1, 86, 157, 90, 165, 165, 90, 1, 2.30733
81, 3, bw, attraction, a-b-da, 9, 3, 1, 2, 195, 120, 186, 114, 120, 195, 3, 1.84396
81, 3, bw, attraction, a-b-da, 9, 3, 1, 2, 195, 120, 186, 114, 120, 195, 2, 1.09649
81, 3, bw, attraction, a-b-da, 9, 2, 1, 3, 165, 90, 157, 86, 90, 165, 3, 3.49817
81, 3, bw, attraction, a-b-da, 9, 2, 1, 3, 165, 90, 157, 86, 90, 165, 2, 1.18028
81, 3, bw, filler, NA, 999, 999, 1, 4, 113, 111, 158, 150, 150, 183, 3, 1.75455
81, 3, bw, filler, NA, 999, 999, 1, 4, 113, 111, 158, 150, 150, 183, 1, 0.731308
81, 3, bw, attraction, a-b-da, 5, 3, 1, 5, 120, 195, 195, 120, 190, 117, 3, 5.75578
81, 3, bw, attraction, a-b-da, 5, 3, 1, 5, 120, 195, 195, 120, 190, 117, 2, 0.587263
81, 3, bw, attraction, a-b-db, 14, 2, 1, 6, 90, 165, 83, 153, 165, 90, 1, 8.13773
81, 3, bw, attraction, a-b-db, 14, 2, 1, 6, 90, 165, 83, 153, 165, 90, 2, 3.9852
81, 3, bw, catch, NA, 999, 999, 1, 7, 154, 101, 61, 134, 126, 189, 3, 1.71056
81, 3, bw, catch, NA, 999, 999, 1, 7, 154, 101, 61, 134, 126, 189, 2, 0.840518
81, 3, bw, attraction, a-b-db, 9, 3, 1, 8, 195, 120, 120, 195, 114, 186, 2, 4.94826
81, 3, bw, attraction, a-b-db, 9, 3, 1, 8, 195, 120, 120, 195, 114, 186, 1, 3.42002
81, 3, bw, filler, NA, 999, 999, 1, 9, 83, 92, 65, 192, 100, 127, 2, 4.2082
81, 3, bw, filler, NA, 999, 999, 1, 9, 83, 92, 65, 192, 100, 127, 1, 0.565527
81, 3, bw, filler, NA, 999, 999, 1, 10, 139, 62, 190, 137, 189, 189, 3, 0.924574
81, 3, bw, filler, NA, 999, 999, 1, 10, 139, 62, 190, 137, 189, 189, 1, 0.72633
81, 3, bw, attraction, a-b-da, 9, 1, 1, 11, 60, 135, 135, 60, 129, 57, 1, 3.5906
81, 3, bw, attraction, a-b-da, 9, 1, 1, 11, 60, 135, 135, 60, 129, 57, 3, 1.02091
81, 3, bw, filler, NA, 999, 999, 1, 12, 67, 82, 138, 92, 95, 125, 3, 1.59391
81, 3, bw, filler, NA, 999, 999, 1, 12, 67, 82, 138, 92, 95, 125, 1, 0.736568
81, 3, bw, attraction, a-b-db, 14, 3, 1, 13, 111, 181, 195, 120, 120, 195, 3, 2.64113
81, 3, bw, attraction, a-b-db, 14, 3, 1, 13, 111, 181, 195, 120, 120, 195, 1, 1.50958
81, 3, bw, attraction, a-b-db, 14, 1, 1, 14, 60, 135, 135, 60, 56, 125, 2, 3.65423
81, 3, bw, attraction, a-b-db, 14, 1, 1, 14, 60, 135, 135, 60, 56, 125, 3, 0.850538
81, 3, bw, attraction, a-b-da, 14, 1, 1, 15, 125, 56, 135, 60, 60, 135, 3, 3.86213
81, 3, bw, attraction, a-b-da, 14, 1, 1, 15, 125, 56, 135, 60, 60, 135, 1, 1.02549
81, 3, bw, catch, NA, 999, 999, 1, 16, 84, 111, 141, 114, 133, 182, 3, 1.42979
81, 3, bw, catch, NA, 999, 999, 1, 16, 84, 111, 141, 114, 133, 182, 1, 0.499442
81, 3, bw, filler, NA, 999, 999, 1, 17, 105, 84, 167, 162, 170, 89, 2, 1.2291
81, 3, bw, filler, NA, 999, 999, 1, 17, 105, 84, 167, 162, 170, 89, 1, 0.522737
81, 3, bw, attraction, a-b-db, 5, 2, 1, 18, 88, 161, 90, 165, 165, 90, 2, 2.0761
81, 3, bw, attraction, a-b-db, 5, 2, 1, 18, 88, 161, 90, 165, 165, 90, 1, 0.735129
81, 3, bw, filler, NA, 999, 999, 1, 19, 88, 92, 72, 62, 128, 172, 3, 0.511483
81, 3, bw, filler, NA, 999, 999, 1, 19, 88, 92, 72, 62, 128, 172, 2, 1.466
81, 3, bw, attraction, a-b-db, 2, 2, 1, 20, 90, 165, 89, 163, 165, 90, 1, 1.49291
81, 3, bw, attraction, a-b-db, 2, 2, 1, 20, 90, 165, 89, 163, 165, 90, 2, 0.943728
81, 3, bw, attraction, a-b-da, 2, 3, 1, 21, 120, 195, 195, 120, 193, 119, 1, 2.22324
81, 3, bw, attraction, a-b-da, 2, 3, 1, 21, 120, 195, 195, 120, 193, 119, 2, 0.524559
81, 3, bw, attraction, a-b-db, 2, 1, 1, 22, 60, 135, 59, 134, 135, 60, 2, 1.84505
81, 3, bw, attraction, a-b-db, 2, 1, 1, 22, 60, 135, 59, 134, 135, 60, 1, 0.433852
81, 3, bw, attraction, a-b-da, 2, 1, 1, 23, 134, 59, 60, 135, 135, 60, 2, 1.58233
81, 3, bw, attraction, a-b-da, 2, 1, 1, 23, 134, 59, 60, 135, 135, 60, 1, 0.541658
81, 3, bw, filler, NA, 999, 999, 1, 24, 188, 103, 154, 75, 131, 81, 1, 0.797507
81, 3, bw, filler, NA, 999, 999, 1, 24, 188, 103, 154, 75, 131, 81, 3, 1.13257
81, 3, bw, attraction, a-b-db, 5, 3, 1, 25, 120, 195, 195, 120, 117, 190, 1, 2.13288
81, 3, bw, attraction, a-b-db, 5, 3, 1, 25, 120, 195, 195, 120, 117, 190, 2, 6.62217
81, 3, bw, attraction, a-b-da, 5, 1, 1, 26, 60, 135, 132, 58, 135, 60, 1, 1.27336
81, 3, bw, attraction, a-b-da, 5, 1, 1, 26, 60, 135, 132, 58, 135, 60, 2, 0.908978
81, 3, bw, attraction, a-b-da, 5, 2, 1, 27, 165, 90, 90, 165, 161, 88, 2, 1.62203
81, 3, bw, attraction, a-b-da, 5, 2, 1, 27, 165, 90, 90, 165, 161, 88, 1, 0.747347
81, 3, bw, filler, NA, 999, 999, 1, 28, 58, 69, 97, 139, 194, 88, 3, 4.09914
81, 3, bw, filler, NA, 999, 999, 1, 28, 58, 69, 97, 139, 194, 88, 1, 0.973116
81, 3, bw, attraction, a-b-da, 14, 2, 1, 29, 153, 83, 165, 90, 90, 165, 3, 2.98826
81, 3, bw, attraction, a-b-da, 14, 2, 1, 29, 153, 83, 165, 90, 90, 165, 1, 1.19444
81, 3, bw, filler, NA, 999, 999, 1, 30, 83, 186, 182, 187, 148, 58, 2, 0.791986
81, 3, bw, filler, NA, 999, 999, 1, 30, 83, 186, 182, 187, 148, 58, 3, 0.935081
81, 3, bw, catch, NA, 999, 999, 1, 31, 129, 186, 109, 146, 88, 107, 1, 0.727311
81, 3, bw, catch, NA, 999, 999, 1, 31, 129, 186, 109, 146, 88, 107, 3, 0.521268
81, 3, bw, attraction, a-b-db, 2, 3, 1, 32, 195, 120, 119, 193, 120, 195, 2, 3.03432
81, 3, bw, attraction, a-b-db, 2, 3, 1, 32, 195, 120, 119, 193, 120, 195, 3, 2.41535
81, 3, bw, filler, NA, 999, 999, 1, 33, 91, 89, 101, 165, 127, 85, 2, 1.99595
81, 3, bw, filler, NA, 999, 999, 1, 33, 91, 89, 101, 165, 127, 85, 1, 0.698494
81, 3, bw, attraction, a-b-da, 14, 3, 1, 34, 181, 111, 195, 120, 120, 195, 3, 1.29217
81, 3, bw, attraction, a-b-da, 14, 3, 1, 34, 181, 111, 195, 120, 120, 195, 1, 1.18305
81, 3, bw, attraction, a-b-da, 2, 2, 1, 35, 90, 165, 165, 90, 163, 89, 1, 1.90927
81, 3, bw, attraction, a-b-da, 2, 2, 1, 35, 90, 165, 165, 90, 163, 89, 3, 0.591431
81, 3, bw, attraction, a-b-db, 5, 1, 1, 36, 60, 135, 58, 132, 135, 60, 3, 1.02103
81, 3, bw, attraction, a-b-db, 5, 1, 1, 36, 60, 135, 58, 132, 135, 60, 2, 1.01152
81, 3, bw, attraction, a-b-db, 9, 1, 1, 37, 60, 135, 135, 60, 57, 129, 2, 1.24041
81, 3, bw, attraction, a-b-db, 9, 1, 1, 37, 60, 135, 135, 60, 57, 129, 3, 1.29335
81, 3, bw, catch, NA, 999, 999, 2, 1, 78, 117, 144, 171, 160, 95, 2, 0.622852
81, 3, bw, catch, NA, 999, 999, 2, 1, 78, 117, 144, 171, 160, 95, 1, 0.444604
81, 3, bw, attraction, a-b-db, 14, 3, 2, 2, 120, 195, 195, 120, 111, 181, 2, 5.17662
81, 3, bw, attraction, a-b-db, 14, 3, 2, 2, 120, 195, 195, 120, 111, 181, 3, 0.334765
81, 3, bw, attraction, a-b-db, 2, 1, 2, 3, 135, 60, 60, 135, 59, 134, 2, 3.30334
81, 3, bw, attraction, a-b-db, 2, 1, 2, 3, 135, 60, 60, 135, 59, 134, 3, 1.8097
81, 3, bw, filler, NA, 999, 999, 2, 4, 186, 105, 121, 93, 116, 92, 1, 0.670284
81, 3, bw, filler, NA, 999, 999, 2, 4, 186, 105, 121, 93, 116, 92, 2, 1.6587
81, 3, bw, catch, NA, 999, 999, 2, 5, 152, 103, 178, 137, 66, 129, 2, 0.853617
81, 3, bw, catch, NA, 999, 999, 2, 5, 152, 103, 178, 137, 66, 129, 3, 0.91451
81, 3, bw, attraction, a-b-db, 2, 3, 2, 6, 195, 120, 119, 193, 120, 195, 2, 4.39563
81, 3, bw, attraction, a-b-db, 2, 3, 2, 6, 195, 120, 119, 193, 120, 195, 3, 1.02549
81, 3, bw, attraction, a-b-da, 14, 2, 2, 7, 153, 83, 90, 165, 165, 90, 2, 1.29376
81, 3, bw, attraction, a-b-da, 14, 2, 2, 7, 153, 83, 90, 165, 165, 90, 1, 1.20865
81, 3, bw, filler, NA, 999, 999, 2, 8, 121, 71, 193, 68, 138, 79, 2, 0.845523
81, 3, bw, filler, NA, 999, 999, 2, 8, 121, 71, 193, 68, 138, 79, 1, 0.914536
81, 3, bw, attraction, a-b-da, 2, 3, 2, 9, 195, 120, 193, 119, 120, 195, 1, 2.57162
81, 3, bw, attraction, a-b-da, 2, 3, 2, 9, 195, 120, 193, 119, 120, 195, 3, 4.02676
81, 3, bw, attraction, a-b-da, 9, 2, 2, 10, 165, 90, 157, 86, 90, 165, 3, 1.454
81, 3, bw, attraction, a-b-da, 9, 2, 2, 10, 165, 90, 157, 86, 90, 165, 1, 0.658919
81, 3, bw, attraction, a-b-da, 5, 3, 2, 11, 195, 120, 120, 195, 190, 117, 1, 2.15007
81, 3, bw, attraction, a-b-da, 5, 3, 2, 11, 195, 120, 120, 195, 190, 117, 3, 0.96661
81, 3, bw, attraction, a-b-da, 5, 1, 2, 12, 135, 60, 60, 135, 132, 58, 3, 2.9336
81, 3, bw, attraction, a-b-da, 5, 1, 2, 12, 135, 60, 60, 135, 132, 58, 2, 0.406665
81, 3, bw, attraction, a-b-db, 9, 1, 2, 13, 57, 129, 135, 60, 60, 135, 3, 1.61189
81, 3, bw, attraction, a-b-db, 9, 1, 2, 13, 57, 129, 135, 60, 60, 135, 2, 0.577928
81, 3, bw, filler, NA, 999, 999, 2, 14, 176, 178, 160, 112, 75, 161, 1, 0.776437
81, 3, bw, filler, NA, 999, 999, 2, 14, 176, 178, 160, 112, 75, 161, 3, 2.31398
81, 3, bw, filler, NA, 999, 999, 2, 15, 114, 177, 174, 61, 60, 182, 1, 1.36062
81, 3, bw, filler, NA, 999, 999, 2, 15, 114, 177, 174, 61, 60, 182, 3, 2.36093
81, 3, bw, filler, NA, 999, 999, 2, 16, 90, 99, 100, 66, 152, 120, 3, 1.25537
81, 3, bw, filler, NA, 999, 999, 2, 16, 90, 99, 100, 66, 152, 120, 2, 0.683652
81, 3, bw, attraction, a-b-db, 9, 2, 2, 17, 86, 157, 90, 165, 165, 90, 3, 2.02206
81, 3, bw, attraction, a-b-db, 9, 2, 2, 17, 86, 157, 90, 165, 165, 90, 1, 1.97142
81, 3, bw, attraction, a-b-da, 9, 3, 2, 18, 186, 114, 195, 120, 120, 195, 3, 1.64216
81, 3, bw, attraction, a-b-da, 9, 3, 2, 18, 186, 114, 195, 120, 120, 195, 2, 0.694841
81, 3, bw, filler, NA, 999, 999, 2, 19, 92, 119, 190, 125, 192, 141, 3, 0.672494
81, 3, bw, filler, NA, 999, 999, 2, 19, 92, 119, 190, 125, 192, 141, 1, 0.820289
81, 3, bw, attraction, a-b-da, 2, 2, 2, 20, 165, 90, 163, 89, 90, 165, 1, 2.86529
81, 3, bw, attraction, a-b-da, 2, 2, 2, 20, 165, 90, 163, 89, 90, 165, 3, 0.749123
81, 3, bw, filler, NA, 999, 999, 2, 21, 187, 108, 106, 179, 189, 176, 3, 0.716822
81, 3, bw, filler, NA, 999, 999, 2, 21, 187, 108, 106, 179, 189, 176, 2, 1.18328
81, 3, bw, attraction, a-b-db, 2, 2, 2, 22, 89, 163, 90, 165, 165, 90, 1, 1.69343
81, 3, bw, attraction, a-b-db, 2, 2, 2, 22, 89, 163, 90, 165, 165, 90, 3, 1.13639
81, 3, bw, attraction, a-b-da, 2, 1, 2, 23, 135, 60, 134, 59, 60, 135, 1, 0.800522
81, 3, bw, attraction, a-b-da, 2, 1, 2, 23, 135, 60, 134, 59, 60, 135, 2, 1.00761
81, 3, bw, attraction, a-b-db, 14, 2, 2, 24, 83, 153, 90, 165, 165, 90, 2, 2.06852
81, 3, bw, attraction, a-b-db, 14, 2, 2, 24, 83, 153, 90, 165, 165, 90, 1, 1.32849
81, 3, bw, attraction, a-b-da, 14, 1, 2, 25, 135, 60, 60, 135, 125, 56, 1, 1.01666
81, 3, bw, attraction, a-b-da, 14, 1, 2, 25, 135, 60, 60, 135, 125, 56, 2, 0.454986
81, 3, bw, attraction, a-b-db, 5, 2, 2, 26, 165, 90, 88, 161, 90, 165, 2, 0.714784
81, 3, bw, attraction, a-b-db, 5, 2, 2, 26, 165, 90, 88, 161, 90, 165, 3, 1.86918
81, 3, bw, attraction, a-b-db, 14, 1, 2, 27, 56, 125, 135, 60, 60, 135, 2, 0.743898
81, 3, bw, attraction, a-b-db, 14, 1, 2, 27, 56, 125, 135, 60, 60, 135, 1, 0.912903
81, 3, bw, attraction, a-b-db, 5, 3, 2, 28, 117, 190, 120, 195, 195, 120, 1, 1.51391
81, 3, bw, attraction, a-b-db, 5, 3, 2, 28, 117, 190, 120, 195, 195, 120, 2, 0.612193
81, 3, bw, attraction, a-b-db, 9, 3, 2, 29, 114, 186, 120, 195, 195, 120, 2, 3.08118
81, 3, bw, attraction, a-b-db, 9, 3, 2, 29, 114, 186, 120, 195, 195, 120, 1, 0.612244
81, 3, bw, attraction, a-b-da, 9, 1, 2, 30, 129, 57, 60, 135, 135, 60, 1, 2.39332
81, 3, bw, attraction, a-b-da, 9, 1, 2, 30, 129, 57, 60, 135, 135, 60, 2, 0.863921
81, 3, bw, filler, NA, 999, 999, 2, 31, 92, 63, 118, 104, 188, 152, 3, 0.546854
81, 3, bw, filler, NA, 999, 999, 2, 31, 92, 63, 118, 104, 188, 152, 1, 0.604007
81, 3, bw, catch, NA, 999, 999, 2, 32, 186, 129, 95, 100, 107, 148, 1, 1.46581
81, 3, bw, catch, NA, 999, 999, 2, 32, 186, 129, 95, 100, 107, 148, 2, 0.333931
81, 3, bw, filler, NA, 999, 999, 2, 33, 94, 62, 165, 171, 150, 77, 2, 0.614463
81, 3, bw, filler, NA, 999, 999, 2, 33, 94, 62, 165, 171, 150, 77, 1, 0.413008
81, 3, bw, attraction, a-b-db, 5, 1, 2, 34, 58, 132, 135, 60, 60, 135, 1, 1.73803
81, 3, bw, attraction, a-b-db, 5, 1, 2, 34, 58, 132, 135, 60, 60, 135, 2, 2.6595
81, 3, bw, filler, NA, 999, 999, 2, 35, 139, 62, 129, 135, 59, 124, 2, 0.877999
81, 3, bw, filler, NA, 999, 999, 2, 35, 139, 62, 129, 135, 59, 124, 3, 1.28957
81, 3, bw, attraction, a-b-da, 5, 2, 2, 36, 90, 165, 165, 90, 161, 88, 1, 1.63577
81, 3, bw, attraction, a-b-da, 5, 2, 2, 36, 90, 165, 165, 90, 161, 88, 2, 1.18547
81, 3, bw, attraction, a-b-da, 14, 3, 2, 37, 120, 195, 195, 120, 181, 111, 2, 2.96755
81, 3, bw, attraction, a-b-da, 14, 3, 2, 37, 120, 195, 195, 120, 181, 111, 3, 1.02323
81, 3, bw, filler, NA, 999, 999, 3, 1, 91, 65, 104, 94, 186, 135, 3, 0.667566
81, 3, bw, filler, NA, 999, 999, 3, 1, 91, 65, 104, 94, 186, 135, 1, 0.503958
81, 3, bw, attraction, a-b-da, 5, 2, 3, 2, 90, 165, 161, 88, 165, 90, 1, 1.68193
81, 3, bw, attraction, a-b-da, 5, 2, 3, 2, 90, 165, 161, 88, 165, 90, 2, 3.25328
81, 3, bw, attraction, a-b-da, 2, 2, 3, 3, 163, 89, 165, 90, 90, 165, 2, 3.44019
81, 3, bw, attraction, a-b-da, 2, 2, 3, 3, 163, 89, 165, 90, 90, 165, 3, 0.80444
81, 3, bw, attraction, a-b-da, 14, 2, 3, 4, 165, 90, 153, 83, 90, 165, 1, 1.16203
81, 3, bw, attraction, a-b-da, 14, 2, 3, 4, 165, 90, 153, 83, 90, 165, 2, 0.738307
81, 3, bw, filler, NA, 999, 999, 3, 5, 59, 101, 156, 144, 100, 100, 2, 0.650731
81, 3, bw, filler, NA, 999, 999, 3, 5, 59, 101, 156, 144, 100, 100, 1, 0.775849
81, 3, bw, attraction, a-b-da, 9, 3, 3, 6, 186, 114, 195, 120, 120, 195, 2, 5.19816
81, 3, bw, attraction, a-b-da, 9, 3, 3, 6, 186, 114, 195, 120, 120, 195, 3, 1.61197
81, 3, bw, catch, NA, 999, 999, 3, 7, 104, 91, 154, 161, 99, 156, 2, 0.648781
81, 3, bw, catch, NA, 999, 999, 3, 7, 104, 91, 154, 161, 99, 156, 1, 0.589661
81, 3, bw, catch, NA, 999, 999, 3, 8, 151, 164, 103, 152, 117, 78, 1, 1.1723
81, 3, bw, catch, NA, 999, 999, 3, 8, 151, 164, 103, 152, 117, 78, 3, 1.66797
81, 3, bw, attraction, a-b-da, 2, 1, 3, 9, 134, 59, 135, 60, 60, 135, 1, 1.02259
81, 3, bw, attraction, a-b-da, 2, 1, 3, 9, 134, 59, 135, 60, 60, 135, 3, 0.63617
81, 3, bw, attraction, a-b-db, 9, 1, 3, 10, 60, 135, 135, 60, 57, 129, 1, 0.520581
81, 3, bw, attraction, a-b-db, 9, 1, 3, 10, 60, 135, 135, 60, 57, 129, 2, 0.875161
81, 3, bw, catch, NA, 999, 999, 3, 11, 147, 168, 164, 91, 99, 96, 1, 0.517335
81, 3, bw, catch, NA, 999, 999, 3, 11, 147, 168, 164, 91, 99, 96, 3, 0.615882
81, 3, bw, attraction, a-b-da, 9, 2, 3, 12, 90, 165, 165, 90, 157, 86, 2, 1.04497
81, 3, bw, attraction, a-b-da, 9, 2, 3, 12, 90, 165, 165, 90, 157, 86, 3, 1.3541
81, 3, bw, filler, NA, 999, 999, 3, 13, 124, 173, 140, 134, 193, 102, 1, 1.83353
81, 3, bw, filler, NA, 999, 999, 3, 13, 124, 173, 140, 134, 193, 102, 2, 0.894763
81, 3, bw, attraction, a-b-db, 2, 1, 3, 14, 135, 60, 60, 135, 59, 134, 1, 0.5286
81, 3, bw, attraction, a-b-db, 2, 1, 3, 14, 135, 60, 60, 135, 59, 134, 3, 2.72232
81, 3, bw, filler, NA, 999, 999, 3, 15, 161, 103, 68, 76, 138, 179, 3, 1.29881
81, 3, bw, filler, NA, 999, 999, 3, 15, 161, 103, 68, 76, 138, 179, 2, 0.765613
81, 3, bw, attraction, a-b-db, 2, 3, 3, 16, 119, 193, 120, 195, 195, 120, 3, 1.09263
81, 3, bw, attraction, a-b-db, 2, 3, 3, 16, 119, 193, 120, 195, 195, 120, 1, 1.1278
81, 3, bw, attraction, a-b-da, 5, 3, 3, 17, 190, 117, 120, 195, 195, 120, 2, 0.975969
81, 3, bw, attraction, a-b-da, 5, 3, 3, 17, 190, 117, 120, 195, 195, 120, 3, 0.879641
81, 3, bw, filler, NA, 999, 999, 3, 18, 101, 117, 88, 115, 86, 102, 1, 1.18593
81, 3, bw, filler, NA, 999, 999, 3, 18, 101, 117, 88, 115, 86, 102, 3, 0.969466
81, 3, bw, attraction, a-b-db, 9, 3, 3, 19, 195, 120, 114, 186, 120, 195, 1, 1.46448
81, 3, bw, attraction, a-b-db, 9, 3, 3, 19, 195, 120, 114, 186, 120, 195, 2, 0.40476
81, 3, bw, filler, NA, 999, 999, 3, 20, 86, 57, 135, 155, 147, 179, 3, 0.922526
81, 3, bw, filler, NA, 999, 999, 3, 20, 86, 57, 135, 155, 147, 179, 1, 0.412218
81, 3, bw, filler, NA, 999, 999, 3, 21, 148, 126, 93, 184, 59, 151, 1, 0.753265
81, 3, bw, filler, NA, 999, 999, 3, 21, 148, 126, 93, 184, 59, 151, 3, 0.58652
81, 3, bw, filler, NA, 999, 999, 3, 22, 68, 144, 126, 164, 182, 66, 2, 0.968896
81, 3, bw, filler, NA, 999, 999, 3, 22, 68, 144, 126, 164, 182, 66, 1, 0.561296
81, 3, bw, attraction, a-b-db, 9, 2, 3, 23, 86, 157, 90, 165, 165, 90, 2, 1.79232
81, 3, bw, attraction, a-b-db, 9, 2, 3, 23, 86, 157, 90, 165, 165, 90, 3, 0.414965
81, 3, bw, attraction, a-b-da, 14, 3, 3, 24, 181, 111, 195, 120, 120, 195, 3, 0.932256
81, 3, bw, attraction, a-b-da, 14, 3, 3, 24, 181, 111, 195, 120, 120, 195, 1, 1.20601
81, 3, bw, filler, NA, 999, 999, 3, 25, 65, 181, 59, 187, 62, 149, 1, 0.843321
81, 3, bw, filler, NA, 999, 999, 3, 25, 65, 181, 59, 187, 62, 149, 3, 0.608395
81, 3, bw, attraction, a-b-db, 2, 2, 3, 26, 165, 90, 89, 163, 90, 165, 1, 1.8935
81, 3, bw, attraction, a-b-db, 2, 2, 3, 26, 165, 90, 89, 163, 90, 165, 3, 1.49635
81, 3, bw, filler, NA, 999, 999, 3, 27, 145, 78, 110, 59, 173, 108, 3, 0.953683
81, 3, bw, filler, NA, 999, 999, 3, 27, 145, 78, 110, 59, 173, 108, 2, 0.515064
81, 3, bw, attraction, a-b-db, 5, 1, 3, 28, 60, 135, 135, 60, 58, 132, 2, 1.32387
81, 3, bw, attraction, a-b-db, 5, 1, 3, 28, 60, 135, 135, 60, 58, 132, 3, 0.333408
81, 3, bw, attraction, a-b-db, 14, 3, 3, 29, 111, 181, 120, 195, 195, 120, 2, 1.31001
81, 3, bw, attraction, a-b-db, 14, 3, 3, 29, 111, 181, 120, 195, 195, 120, 1, 2.73608
81, 3, bw, attraction, a-b-da, 9, 1, 3, 30, 60, 135, 129, 57, 135, 60, 1, 2.42386
81, 3, bw, attraction, a-b-da, 9, 1, 3, 30, 60, 135, 129, 57, 135, 60, 3, 0.421101
81, 3, bw, attraction, a-b-db, 5, 2, 3, 31, 165, 90, 88, 161, 90, 165, 1, 1.33018
81, 3, bw, attraction, a-b-db, 5, 2, 3, 31, 165, 90, 88, 161, 90, 165, 3, 0.95579
81, 3, bw, attraction, a-b-da, 2, 3, 3, 32, 120, 195, 193, 119, 195, 120, 2, 2.34755
81, 3, bw, attraction, a-b-da, 2, 3, 3, 32, 120, 195, 193, 119, 195, 120, 3, 0.708053
81, 3, bw, attraction, a-b-da, 5, 1, 3, 33, 132, 58, 60, 135, 135, 60, 3, 2.26914
81, 3, bw, attraction, a-b-da, 5, 1, 3, 33, 132, 58, 60, 135, 135, 60, 2, 0.432947
81, 3, bw, attraction, a-b-db, 5, 3, 3, 34, 117, 190, 195, 120, 120, 195, 2, 1.1415
81, 3, bw, attraction, a-b-db, 5, 3, 3, 34, 117, 190, 195, 120, 120, 195, 3, 0.358451
81, 3, bw, attraction, a-b-db, 14, 2, 3, 35, 165, 90, 90, 165, 83, 153, 1, 0.829557
81, 3, bw, attraction, a-b-db, 14, 2, 3, 35, 165, 90, 90, 165, 83, 153, 3, 0.923352
81, 3, bw, attraction, a-b-db, 14, 1, 3, 36, 135, 60, 60, 135, 56, 125, 1, 0.659676
81, 3, bw, attraction, a-b-db, 14, 1, 3, 36, 135, 60, 60, 135, 56, 125, 2, 0.624109
81, 3, bw, attraction, a-b-da, 14, 1, 3, 37, 125, 56, 135, 60, 60, 135, 2, 5.59644
81, 3, bw, attraction, a-b-da, 14, 1, 3, 37, 125, 56, 135, 60, 60, 135, 1, 1.00196
81, 3, bw, attraction, a-b-da, 9, 3, 4, 1, 195, 120, 120, 195, 186, 114, 2, 1.52767
81, 3, bw, attraction, a-b-da, 9, 3, 4, 1, 195, 120, 120, 195, 186, 114, 3, 1.06518
81, 3, bw, attraction, a-b-db, 9, 1, 4, 2, 57, 129, 135, 60, 60, 135, 1, 0.99614
81, 3, bw, attraction, a-b-db, 9, 1, 4, 2, 57, 129, 135, 60, 60, 135, 2, 1.01902
81, 3, bw, attraction, a-b-da, 5, 3, 4, 3, 190, 117, 195, 120, 120, 195, 2, 1.16007
81, 3, bw, attraction, a-b-da, 5, 3, 4, 3, 190, 117, 195, 120, 120, 195, 1, 0.520391
81, 3, bw, catch, NA, 999, 999, 4, 4, 96, 159, 190, 125, 131, 64, 2, 0.753433
81, 3, bw, catch, NA, 999, 999, 4, 4, 96, 159, 190, 125, 131, 64, 3, 0.818552
81, 3, bw, attraction, a-b-da, 14, 2, 4, 5, 90, 165, 165, 90, 153, 83, 1, 0.943486
81, 3, bw, attraction, a-b-da, 14, 2, 4, 5, 90, 165, 165, 90, 153, 83, 2, 0.752563
81, 3, bw, attraction, a-b-da, 9, 2, 4, 6, 90, 165, 165, 90, 157, 86, 1, 1.41627
81, 3, bw, attraction, a-b-da, 9, 2, 4, 6, 90, 165, 165, 90, 157, 86, 2, 0.694358
81, 3, bw, filler, NA, 999, 999, 4, 7, 73, 103, 124, 88, 58, 82, 2, 1.68011
81, 3, bw, filler, NA, 999, 999, 4, 7, 73, 103, 124, 88, 58, 82, 3, 0.87086
81, 3, bw, attraction, a-b-db, 5, 1, 4, 8, 135, 60, 58, 132, 60, 135, 3, 1.70263
81, 3, bw, attraction, a-b-db, 5, 1, 4, 8, 135, 60, 58, 132, 60, 135, 2, 0.841404
81, 3, bw, filler, NA, 999, 999, 4, 9, 131, 105, 163, 194, 151, 117, 2, 0.861064
81, 3, bw, filler, NA, 999, 999, 4, 9, 131, 105, 163, 194, 151, 117, 1, 1.64144
81, 3, bw, attraction, a-b-db, 5, 2, 4, 10, 165, 90, 88, 161, 90, 165, 3, 2.55687
81, 3, bw, attraction, a-b-db, 5, 2, 4, 10, 165, 90, 88, 161, 90, 165, 1, 0.996619
81, 3, bw, attraction, a-b-da, 2, 1, 4, 11, 60, 135, 135, 60, 134, 59, 1, 0.938402
81, 3, bw, attraction, a-b-da, 2, 1, 4, 11, 60, 135, 135, 60, 134, 59, 2, 0.643355
81, 3, bw, attraction, a-b-da, 5, 2, 4, 12, 90, 165, 165, 90, 161, 88, 1, 0.799075
81, 3, bw, attraction, a-b-da, 5, 2, 4, 12, 90, 165, 165, 90, 161, 88, 2, 1.36619
81, 3, bw, attraction, a-b-db, 9, 3, 4, 13, 195, 120, 114, 186, 120, 195, 3, 5.29311
81, 3, bw, attraction, a-b-db, 9, 3, 4, 13, 195, 120, 114, 186, 120, 195, 2, 1.0787
81, 3, bw, attraction, a-b-db, 2, 2, 4, 14, 90, 165, 165, 90, 89, 163, 3, 1.30488
81, 3, bw, attraction, a-b-db, 2, 2, 4, 14, 90, 165, 165, 90, 89, 163, 2, 0.379136
81, 3, bw, filler, NA, 999, 999, 4, 15, 108, 193, 166, 58, 95, 84, 1, 2.10565
81, 3, bw, filler, NA, 999, 999, 4, 15, 108, 193, 166, 58, 95, 84, 3, 1.15579
81, 3, bw, attraction, a-b-db, 14, 3, 4, 16, 111, 181, 120, 195, 195, 120, 2, 1.74718
81, 3, bw, attraction, a-b-db, 14, 3, 4, 16, 111, 181, 120, 195, 195, 120, 1, 0.915953
81, 3, bw, filler, NA, 999, 999, 4, 17, 195, 188, 189, 172, 128, 65, 1, 0.908931
81, 3, bw, filler, NA, 999, 999, 4, 17, 195, 188, 189, 172, 128, 65, 3, 1.42334
81, 3, bw, attraction, a-b-da, 2, 2, 4, 18, 90, 165, 163, 89, 165, 90, 1, 2.15611
81, 3, bw, attraction, a-b-da, 2, 2, 4, 18, 90, 165, 163, 89, 165, 90, 3, 1.19615
81, 3, bw, attraction, a-b-db, 5, 3, 4, 19, 120, 195, 117, 190, 195, 120, 1, 1.14571
81, 3, bw, attraction, a-b-db, 5, 3, 4, 19, 120, 195, 117, 190, 195, 120, 2, 0.858657
81, 3, bw, attraction, a-b-db, 14, 2, 4, 20, 83, 153, 165, 90, 90, 165, 3, 1.42162
81, 3, bw, attraction, a-b-db, 14, 2, 4, 20, 83, 153, 165, 90, 90, 165, 2, 0.411063
81, 3, bw, attraction, a-b-da, 2, 3, 4, 21, 120, 195, 195, 120, 193, 119, 1, 1.22437
81, 3, bw, attraction, a-b-da, 2, 3, 4, 21, 120, 195, 195, 120, 193, 119, 2, 0.645827
81, 3, bw, attraction, a-b-da, 5, 1, 4, 22, 135, 60, 132, 58, 60, 135, 1, 1.44161
81, 3, bw, attraction, a-b-da, 5, 1, 4, 22, 135, 60, 132, 58, 60, 135, 2, 0.326572
81, 3, bw, filler, NA, 999, 999, 4, 23, 185, 96, 160, 121, 182, 162, 3, 0.614999
81, 3, bw, filler, NA, 999, 999, 4, 23, 185, 96, 160, 121, 182, 162, 2, 0.581633
81, 3, bw, filler, NA, 999, 999, 4, 24, 160, 102, 182, 92, 140, 114, 3, 1.76392
81, 3, bw, filler, NA, 999, 999, 4, 24, 160, 102, 182, 92, 140, 114, 2, 0.524055
81, 3, bw, attraction, a-b-db, 9, 2, 4, 25, 86, 157, 90, 165, 165, 90, 1, 1.06847
81, 3, bw, attraction, a-b-db, 9, 2, 4, 25, 86, 157, 90, 165, 165, 90, 3, 0.664809
81, 3, bw, attraction, a-b-da, 14, 1, 4, 26, 135, 60, 125, 56, 60, 135, 1, 1.01979
81, 3, bw, attraction, a-b-da, 14, 1, 4, 26, 135, 60, 125, 56, 60, 135, 2, 0.602237
81, 3, bw, catch, NA, 999, 999, 4, 27, 100, 95, 138, 177, 99, 156, 2, 0.663725
81, 3, bw, catch, NA, 999, 999, 4, 27, 100, 95, 138, 177, 99, 156, 1, 0.668254
81, 3, bw, filler, NA, 999, 999, 4, 28, 146, 97, 80, 191, 194, 121, 3, 1.03931
81, 3, bw, filler, NA, 999, 999, 4, 28, 146, 97, 80, 191, 194, 121, 1, 0.916346
81, 3, bw, attraction, a-b-db, 2, 1, 4, 29, 60, 135, 135, 60, 59, 134, 1, 1.30126
81, 3, bw, attraction, a-b-db, 2, 1, 4, 29, 60, 135, 135, 60, 59, 134, 2, 0.376313
81, 3, bw, filler, NA, 999, 999, 4, 30, 192, 167, 174, 106, 117, 133, 1, 0.71877
81, 3, bw, filler, NA, 999, 999, 4, 30, 192, 167, 174, 106, 117, 133, 3, 1.5612
81, 3, bw, attraction, a-b-db, 14, 1, 4, 31, 135, 60, 60, 135, 56, 125, 2, 1.19986
81, 3, bw, attraction, a-b-db, 14, 1, 4, 31, 135, 60, 60, 135, 56, 125, 3, 0.518925
81, 3, bw, filler, NA, 999, 999, 4, 32, 138, 100, 104, 117, 82, 101, 1, 1.09597
81, 3, bw, filler, NA, 999, 999, 4, 32, 138, 100, 104, 117, 82, 101, 3, 1.11496
81, 3, bw, attraction, a-b-da, 9, 1, 4, 33, 129, 57, 135, 60, 60, 135, 3, 2.0279
81, 3, bw, attraction, a-b-da, 9, 1, 4, 33, 129, 57, 135, 60, 60, 135, 2, 0.417231
81, 3, bw, attraction, a-b-da, 14, 3, 4, 34, 195, 120, 181, 111, 120, 195, 3, 1.09433
81, 3, bw, attraction, a-b-da, 14, 3, 4, 34, 195, 120, 181, 111, 120, 195, 1, 0.513452
81, 3, bw, attraction, a-b-db, 2, 3, 4, 35, 195, 120, 120, 195, 119, 193, 1, 2.2744
81, 3, bw, attraction, a-b-db, 2, 3, 4, 35, 195, 120, 120, 195, 119, 193, 2, 1.14174
81, 3, bw, filler, NA, 999, 999, 4, 36, 152, 190, 108, 172, 64, 65, 1, 0.685301
81, 3, bw, filler, NA, 999, 999, 4, 36, 152, 190, 108, 172, 64, 65, 3, 0.545134
81, 3, bw, catch, NA, 999, 999, 4, 37, 118, 77, 130, 185, 125, 130, 2, 1.15271
81, 3, bw, catch, NA, 999, 999, 4, 37, 118, 77, 130, 185, 125, 130, 1, 0.577821
81, 3, bw, filler, NA, 999, 999, 5, 1, 133, 56, 136, 108, 118, 90, 2, 5.85481
81, 3, bw, filler, NA, 999, 999, 5, 1, 133, 56, 136, 108, 118, 90, 1, 0.962257
81, 3, bw, filler, NA, 999, 999, 5, 2, 131, 145, 117, 168, 161, 143, 2, 2.87324
81, 3, bw, filler, NA, 999, 999, 5, 2, 131, 145, 117, 168, 161, 143, 1, 0.540319
81, 3, bw, attraction, a-b-da, 14, 1, 5, 3, 125, 56, 135, 60, 60, 135, 3, 3.45206
81, 3, bw, attraction, a-b-da, 14, 1, 5, 3, 125, 56, 135, 60, 60, 135, 1, 0.76836
81, 3, bw, attraction, a-b-db, 5, 1, 5, 4, 60, 135, 58, 132, 135, 60, 1, 1.37479
81, 3, bw, attraction, a-b-db, 5, 1, 5, 4, 60, 135, 58, 132, 135, 60, 2, 0.590891
81, 3, bw, filler, NA, 999, 999, 5, 5, 160, 172, 123, 121, 66, 179, 1, 0.556598
81, 3, bw, filler, NA, 999, 999, 5, 5, 160, 172, 123, 121, 66, 179, 3, 1.75714
81, 3, bw, filler, NA, 999, 999, 5, 6, 138, 56, 186, 113, 168, 143, 3, 0.659781
81, 3, bw, filler, NA, 999, 999, 5, 6, 138, 56, 186, 113, 168, 143, 1, 0.696262
81, 3, bw, attraction, a-b-da, 5, 1, 5, 7, 60, 135, 135, 60, 132, 58, 1, 2.17815
81, 3, bw, attraction, a-b-da, 5, 1, 5, 7, 60, 135, 135, 60, 132, 58, 2, 0.969243
81, 3, bw, attraction, a-b-da, 9, 2, 5, 8, 157, 86, 90, 165, 165, 90, 2, 1.62439
81, 3, bw, attraction, a-b-da, 9, 2, 5, 8, 157, 86, 90, 165, 165, 90, 1, 0.621888
81, 3, bw, attraction, a-b-db, 9, 1, 5, 9, 135, 60, 60, 135, 57, 129, 2, 2.12277
81, 3, bw, attraction, a-b-db, 9, 1, 5, 9, 135, 60, 60, 135, 57, 129, 3, 0.324097
81, 3, bw, attraction, a-b-db, 14, 1, 5, 10, 56, 125, 60, 135, 135, 60, 2, 1.16464
81, 3, bw, attraction, a-b-db, 14, 1, 5, 10, 56, 125, 60, 135, 135, 60, 1, 0.932844
81, 3, bw, attraction, a-b-da, 2, 3, 5, 11, 120, 195, 195, 120, 193, 119, 2, 1.66923
81, 3, bw, attraction, a-b-da, 2, 3, 5, 11, 120, 195, 195, 120, 193, 119, 3, 0.553437
81, 3, bw, attraction, a-b-da, 9, 1, 5, 12, 129, 57, 135, 60, 60, 135, 3, 1.08106
81, 3, bw, attraction, a-b-da, 9, 1, 5, 12, 129, 57, 135, 60, 60, 135, 2, 0.476712
81, 3, bw, attraction, a-b-da, 14, 2, 5, 13, 153, 83, 165, 90, 90, 165, 3, 0.759195
81, 3, bw, attraction, a-b-da, 14, 2, 5, 13, 153, 83, 165, 90, 90, 165, 2, 0.479612
81, 3, bw, attraction, a-b-db, 5, 3, 5, 14, 117, 190, 195, 120, 120, 195, 3, 1.20207
81, 3, bw, attraction, a-b-db, 5, 3, 5, 14, 117, 190, 195, 120, 120, 195, 2, 0.520915
81, 3, bw, filler, NA, 999, 999, 5, 15, 99, 161, 130, 80, 186, 117, 3, 1.07421
81, 3, bw, filler, NA, 999, 999, 5, 15, 99, 161, 130, 80, 186, 117, 2, 0.69378
81, 3, bw, attraction, a-b-db, 9, 3, 5, 16, 120, 195, 114, 186, 195, 120, 2, 1.52748
81, 3, bw, attraction, a-b-db, 9, 3, 5, 16, 120, 195, 114, 186, 195, 120, 3, 0.368984
81, 3, bw, attraction, a-b-db, 14, 2, 5, 17, 90, 165, 83, 153, 165, 90, 1, 0.880092
81, 3, bw, attraction, a-b-db, 14, 2, 5, 17, 90, 165, 83, 153, 165, 90, 2, 0.563933
81, 3, bw, catch, NA, 999, 999, 5, 18, 97, 158, 97, 98, 144, 171, 3, 0.754853
81, 3, bw, catch, NA, 999, 999, 5, 18, 97, 158, 97, 98, 144, 171, 2, 1.40395
81, 3, bw, attraction, a-b-da, 5, 3, 5, 19, 195, 120, 190, 117, 120, 195, 2, 1.09755
81, 3, bw, attraction, a-b-da, 5, 3, 5, 19, 195, 120, 190, 117, 120, 195, 3, 0.468511
81, 3, bw, filler, NA, 999, 999, 5, 20, 69, 134, 191, 182, 78, 120, 2, 0.559584
81, 3, bw, filler, NA, 999, 999, 5, 20, 69, 134, 191, 182, 78, 120, 3, 1.39207
81, 3, bw, attraction, a-b-da, 9, 3, 5, 21, 186, 114, 120, 195, 195, 120, 2, 1.72551
81, 3, bw, attraction, a-b-da, 9, 3, 5, 21, 186, 114, 120, 195, 195, 120, 1, 0.518941
81, 3, bw, attraction, a-b-da, 2, 1, 5, 22, 60, 135, 134, 59, 135, 60, 1, 1.26413
81, 3, bw, attraction, a-b-da, 2, 1, 5, 22, 60, 135, 134, 59, 135, 60, 2, 0.836396
81, 3, bw, attraction, a-b-db, 2, 1, 5, 23, 60, 135, 59, 134, 135, 60, 1, 1.09678
81, 3, bw, attraction, a-b-db, 2, 1, 5, 23, 60, 135, 59, 134, 135, 60, 2, 1.83567
81, 3, bw, attraction, a-b-db, 5, 2, 5, 24, 165, 90, 88, 161, 90, 165, 3, 0.831695
81, 3, bw, attraction, a-b-db, 5, 2, 5, 24, 165, 90, 88, 161, 90, 165, 2, 0.885401
81, 3, bw, attraction, a-b-da, 2, 2, 5, 25, 163, 89, 165, 90, 90, 165, 2, 1.13565
81, 3, bw, attraction, a-b-da, 2, 2, 5, 25, 163, 89, 165, 90, 90, 165, 3, 0.497376
81, 3, bw, attraction, a-b-da, 5, 2, 5, 26, 90, 165, 161, 88, 165, 90, 1, 1.15509
81, 3, bw, attraction, a-b-da, 5, 2, 5, 26, 90, 165, 161, 88, 165, 90, 2, 0.515388
81, 3, bw, catch, NA, 999, 999, 5, 27, 72, 123, 173, 142, 148, 107, 2, 0.932518
81, 3, bw, catch, NA, 999, 999, 5, 27, 72, 123, 173, 142, 148, 107, 1, 0.406188
81, 3, bw, filler, NA, 999, 999, 5, 28, 77, 186, 179, 65, 77, 129, 1, 1.54005
81, 3, bw, filler, NA, 999, 999, 5, 28, 77, 186, 179, 65, 77, 129, 3, 0.612827
81, 3, bw, attraction, a-b-db, 2, 2, 5, 29, 165, 90, 89, 163, 90, 165, 2, 1.16995
81, 3, bw, attraction, a-b-db, 2, 2, 5, 29, 165, 90, 89, 163, 90, 165, 1, 0.570193
81, 3, bw, attraction, a-b-db, 9, 2, 5, 30, 86, 157, 165, 90, 90, 165, 1, 0.897293
81, 3, bw, attraction, a-b-db, 9, 2, 5, 30, 86, 157, 165, 90, 90, 165, 3, 1.23637
81, 3, bw, attraction, a-b-da, 14, 3, 5, 31, 195, 120, 181, 111, 120, 195, 1, 0.736597
81, 3, bw, attraction, a-b-da, 14, 3, 5, 31, 195, 120, 181, 111, 120, 195, 2, 2.01037
81, 3, bw, filler, NA, 999, 999, 5, 32, 148, 100, 115, 191, 101, 155, 2, 0.766991
81, 3, bw, filler, NA, 999, 999, 5, 32, 148, 100, 115, 191, 101, 155, 1, 1.26334
81, 3, bw, attraction, a-b-db, 14, 3, 5, 33, 195, 120, 111, 181, 120, 195, 1, 1.3383
81, 3, bw, attraction, a-b-db, 14, 3, 5, 33, 195, 120, 111, 181, 120, 195, 2, 0.883117
81, 3, bw, filler, NA, 999, 999, 5, 34, 189, 67, 84, 158, 137, 191, 3, 0.765404
81, 3, bw, filler, NA, 999, 999, 5, 34, 189, 67, 84, 158, 137, 191, 2, 1.2299
81, 3, bw, catch, NA, 999, 999, 5, 35, 134, 121, 146, 169, 88, 107, 2, 1.36202
81, 3, bw, catch, NA, 999, 999, 5, 35, 134, 121, 146, 169, 88, 107, 3, 1.09831
81, 3, bw, filler, NA, 999, 999, 5, 36, 162, 95, 153, 85, 66, 94, 1, 2.57196
81, 3, bw, filler, NA, 999, 999, 5, 36, 162, 95, 153, 85, 66, 94, 3, 0.475125
81, 3, bw, attraction, a-b-db, 2, 3, 5, 37, 119, 193, 195, 120, 120, 195, 2, 3.97351
81, 3, bw, attraction, a-b-db, 2, 3, 5, 37, 119, 193, 195, 120, 120, 195, 1, 0.524254
81, 3, bw, filler, NA, 999, 999, 6, 1, 85, 115, 72, 192, 136, 180, 3, 1.07678
81, 3, bw, filler, NA, 999, 999, 6, 1, 85, 115, 72, 192, 136, 180, 1, 0.64032
81, 3, bw, attraction, a-b-da, 9, 2, 6, 2, 90, 165, 157, 86, 165, 90, 3, 3.74805
81, 3, bw, attraction, a-b-da, 9, 2, 6, 2, 90, 165, 157, 86, 165, 90, 2, 0.484231
81, 3, bw, attraction, a-b-da, 5, 1, 6, 3, 135, 60, 132, 58, 60, 135, 2, 4.55065
81, 3, bw, attraction, a-b-da, 5, 1, 6, 3, 135, 60, 132, 58, 60, 135, 3, 1.19855
81, 3, bw, attraction, a-b-db, 2, 3, 6, 4, 119, 193, 120, 195, 195, 120, 2, 1.66005
81, 3, bw, attraction, a-b-db, 2, 3, 6, 4, 119, 193, 120, 195, 195, 120, 3, 0.928132
81, 3, bw, attraction, a-b-db, 2, 2, 6, 5, 89, 163, 90, 165, 165, 90, 3, 12.1686
81, 3, bw, attraction, a-b-db, 2, 2, 6, 5, 89, 163, 90, 165, 165, 90, 2, 0.565501
81, 3, bw, attraction, a-b-da, 2, 3, 6, 6, 120, 195, 195, 120, 193, 119, 3, 0.828481
81, 3, bw, attraction, a-b-da, 2, 3, 6, 6, 120, 195, 195, 120, 193, 119, 2, 0.546217
81, 3, bw, attraction, a-b-db, 9, 3, 6, 7, 195, 120, 114, 186, 120, 195, 3, 1.29005
81, 3, bw, attraction, a-b-db, 9, 3, 6, 7, 195, 120, 114, 186, 120, 195, 2, 0.900792
81, 3, bw, attraction, a-b-da, 5, 2, 6, 8, 165, 90, 161, 88, 90, 165, 3, 0.542429
81, 3, bw, attraction, a-b-da, 5, 2, 6, 8, 165, 90, 161, 88, 90, 165, 2, 1.07166
81, 3, bw, attraction, a-b-db, 5, 1, 6, 9, 135, 60, 60, 135, 58, 132, 2, 0.938654
81, 3, bw, attraction, a-b-db, 5, 1, 6, 9, 135, 60, 60, 135, 58, 132, 1, 0.635604
81, 3, bw, attraction, a-b-da, 9, 1, 6, 10, 129, 57, 60, 135, 135, 60, 2, 0.536128
81, 3, bw, attraction, a-b-da, 9, 1, 6, 10, 129, 57, 60, 135, 135, 60, 3, 0.657846
81, 3, bw, filler, NA, 999, 999, 6, 11, 175, 180, 146, 176, 166, 93, 1, 1.2369
81, 3, bw, filler, NA, 999, 999, 6, 11, 175, 180, 146, 176, 166, 93, 3, 0.730534
81, 3, bw, attraction, a-b-da, 14, 1, 6, 12, 60, 135, 135, 60, 125, 56, 1, 0.89886
81, 3, bw, attraction, a-b-da, 14, 1, 6, 12, 60, 135, 135, 60, 125, 56, 3, 0.357896
81, 3, bw, attraction, a-b-da, 14, 3, 6, 13, 181, 111, 120, 195, 195, 120, 3, 0.933084
81, 3, bw, attraction, a-b-da, 14, 3, 6, 13, 181, 111, 120, 195, 195, 120, 2, 0.518763
81, 3, bw, filler, NA, 999, 999, 6, 14, 67, 68, 102, 95, 108, 65, 2, 1.78384
81, 3, bw, filler, NA, 999, 999, 6, 14, 67, 68, 102, 95, 108, 65, 1, 0.655271
81, 3, bw, filler, NA, 999, 999, 6, 15, 178, 104, 129, 144, 130, 111, 1, 1.25901
81, 3, bw, filler, NA, 999, 999, 6, 15, 178, 104, 129, 144, 130, 111, 3, 0.359395
81, 3, bw, attraction, a-b-da, 9, 3, 6, 16, 195, 120, 120, 195, 186, 114, 2, 1.61445
81, 3, bw, attraction, a-b-da, 9, 3, 6, 16, 195, 120, 120, 195, 186, 114, 3, 0.708557
81, 3, bw, attraction, a-b-da, 14, 2, 6, 17, 90, 165, 153, 83, 165, 90, 2, 1.00562
81, 3, bw, attraction, a-b-da, 14, 2, 6, 17, 90, 165, 153, 83, 165, 90, 3, 0.323931
81, 3, bw, filler, NA, 999, 999, 6, 18, 152, 129, 112, 153, 188, 179, 3, 0.580441
81, 3, bw, filler, NA, 999, 999, 6, 18, 152, 129, 112, 153, 188, 179, 2, 0.692234
81, 3, bw, attraction, a-b-db, 9, 2, 6, 19, 86, 157, 165, 90, 90, 165, 2, 1.22198
81, 3, bw, attraction, a-b-db, 9, 2, 6, 19, 86, 157, 165, 90, 90, 165, 3, 0.283681
81, 3, bw, catch, NA, 999, 999, 6, 20, 158, 97, 165, 150, 116, 79, 2, 0.550031
81, 3, bw, catch, NA, 999, 999, 6, 20, 158, 97, 165, 150, 116, 79, 3, 0.535202
81, 3, bw, attraction, a-b-db, 14, 3, 6, 21, 195, 120, 120, 195, 111, 181, 2, 1.58365
81, 3, bw, attraction, a-b-db, 14, 3, 6, 21, 195, 120, 120, 195, 111, 181, 1, 0.479119
81, 3, bw, filler, NA, 999, 999, 6, 22, 162, 71, 166, 60, 80, 73, 3, 1.13756
81, 3, bw, filler, NA, 999, 999, 6, 22, 162, 71, 166, 60, 80, 73, 2, 4.45926
81, 3, bw, filler, NA, 999, 999, 6, 23, 190, 157, 108, 169, 183, 101, 1, 3.65314
81, 3, bw, filler, NA, 999, 999, 6, 23, 190, 157, 108, 169, 183, 101, 3, 1.76123
81, 3, bw, attraction, a-b-db, 14, 2, 6, 24, 165, 90, 90, 165, 83, 153, 2, 1.30389
81, 3, bw, attraction, a-b-db, 14, 2, 6, 24, 165, 90, 90, 165, 83, 153, 1, 0.370931
81, 3, bw, attraction, a-b-db, 5, 2, 6, 25, 165, 90, 90, 165, 88, 161, 1, 1.64204
81, 3, bw, attraction, a-b-db, 5, 2, 6, 25, 165, 90, 90, 165, 88, 161, 2, 0.830867
81, 3, bw, filler, NA, 999, 999, 6, 26, 162, 138, 128, 57, 143, 106, 1, 1.37917
81, 3, bw, filler, NA, 999, 999, 6, 26, 162, 138, 128, 57, 143, 106, 2, 0.756198
81, 3, bw, catch, NA, 999, 999, 6, 27, 70, 125, 163, 152, 118, 137, 2, 0.56974
81, 3, bw, catch, NA, 999, 999, 6, 27, 70, 125, 163, 152, 118, 137, 1, 0.842285
81, 3, bw, filler, NA, 999, 999, 6, 28, 122, 106, 127, 62, 149, 56, 1, 1.74189
81, 3, bw, filler, NA, 999, 999, 6, 28, 122, 106, 127, 62, 149, 56, 2, 1.71863
81, 3, bw, catch, NA, 999, 999, 6, 29, 183, 132, 72, 123, 146, 109, 1, 0.719377
81, 3, bw, catch, NA, 999, 999, 6, 29, 183, 132, 72, 123, 146, 109, 2, 0.833818
81, 3, bw, attraction, a-b-da, 2, 2, 6, 30, 163, 89, 90, 165, 165, 90, 1, 1.22215
81, 3, bw, attraction, a-b-da, 2, 2, 6, 30, 163, 89, 90, 165, 165, 90, 2, 0.443756
81, 3, bw, attraction, a-b-db, 9, 1, 6, 31, 57, 129, 135, 60, 60, 135, 2, 1.47952
81, 3, bw, attraction, a-b-db, 9, 1, 6, 31, 57, 129, 135, 60, 60, 135, 1, 0.443055
81, 3, bw, attraction, a-b-db, 5, 3, 6, 32, 195, 120, 117, 190, 120, 195, 2, 0.830862
81, 3, bw, attraction, a-b-db, 5, 3, 6, 32, 195, 120, 117, 190, 120, 195, 3, 2.23665
81, 3, bw, attraction, a-b-db, 14, 1, 6, 33, 56, 125, 60, 135, 135, 60, 3, 1.34449
81, 3, bw, attraction, a-b-db, 14, 1, 6, 33, 56, 125, 60, 135, 135, 60, 2, 0.489346
81, 3, bw, attraction, a-b-da, 2, 1, 6, 34, 135, 60, 60, 135, 134, 59, 2, 1.11577
81, 3, bw, attraction, a-b-da, 2, 1, 6, 34, 135, 60, 60, 135, 134, 59, 1, 0.47806
81, 3, bw, attraction, a-b-da, 5, 3, 6, 35, 120, 195, 190, 117, 195, 120, 1, 2.13675
81, 3, bw, attraction, a-b-da, 5, 3, 6, 35, 120, 195, 190, 117, 195, 120, 2, 0.401847
81, 3, bw, filler, NA, 999, 999, 6, 36, 185, 173, 77, 106, 79, 72, 1, 0.855636
81, 3, bw, filler, NA, 999, 999, 6, 36, 185, 173, 77, 106, 79, 72, 3, 0.524213
81, 3, bw, attraction, a-b-db, 2, 1, 6, 37, 59, 134, 135, 60, 60, 135, 2, 0.924517
81, 3, bw, attraction, a-b-db, 2, 1, 6, 37, 59, 134, 135, 60, 60, 135, 1, 0.414195
81, 3, bw, filler, NA, 999, 999, 7, 1, 111, 176, 101, 83, 56, 156, 1, 0.907322
81, 3, bw, filler, NA, 999, 999, 7, 1, 111, 176, 101, 83, 56, 156, 2, 2.18181
81, 3, bw, attraction, a-b-da, 5, 1, 7, 2, 135, 60, 132, 58, 60, 135, 3, 1.40364
81, 3, bw, attraction, a-b-da, 5, 1, 7, 2, 135, 60, 132, 58, 60, 135, 2, 0.962496
81, 3, bw, attraction, a-b-da, 5, 3, 7, 3, 195, 120, 120, 195, 190, 117, 2, 8.88145
81, 3, bw, attraction, a-b-da, 5, 3, 7, 3, 195, 120, 120, 195, 190, 117, 1, 0.546678
81, 3, bw, filler, NA, 999, 999, 7, 4, 59, 167, 98, 68, 86, 57, 1, 2.45038
81, 3, bw, filler, NA, 999, 999, 7, 4, 59, 167, 98, 68, 86, 57, 3, 1.09496
81, 3, bw, filler, NA, 999, 999, 7, 5, 112, 186, 194, 143, 103, 87, 1, 2.73654
81, 3, bw, filler, NA, 999, 999, 7, 5, 112, 186, 194, 143, 103, 87, 3, 1.28959
81, 3, bw, attraction, a-b-da, 14, 1, 7, 6, 125, 56, 60, 135, 135, 60, 2, 1.14778
81, 3, bw, attraction, a-b-da, 14, 1, 7, 6, 125, 56, 60, 135, 135, 60, 1, 0.612824
81, 3, bw, filler, NA, 999, 999, 7, 7, 195, 60, 102, 146, 59, 93, 2, 0.946014
81, 3, bw, filler, NA, 999, 999, 7, 7, 195, 60, 102, 146, 59, 93, 3, 0.54699
81, 3, bw, filler, NA, 999, 999, 7, 8, 169, 188, 97, 112, 116, 140, 1, 0.634648
81, 3, bw, filler, NA, 999, 999, 7, 8, 169, 188, 97, 112, 116, 140, 2, 0.424415
81, 3, bw, catch, NA, 999, 999, 7, 9, 192, 123, 133, 122, 70, 125, 2, 1.05298
81, 3, bw, catch, NA, 999, 999, 7, 9, 192, 123, 133, 122, 70, 125, 3, 0.658229
81, 3, bw, attraction, a-b-db, 2, 2, 7, 10, 165, 90, 89, 163, 90, 165, 3, 1.11706
81, 3, bw, attraction, a-b-db, 2, 2, 7, 10, 165, 90, 89, 163, 90, 165, 2, 0.719372
81, 3, bw, attraction, a-b-db, 14, 1, 7, 11, 135, 60, 56, 125, 60, 135, 1, 1.1844
81, 3, bw, attraction, a-b-db, 14, 1, 7, 11, 135, 60, 56, 125, 60, 135, 2, 0.712023
81, 3, bw, attraction, a-b-da, 14, 2, 7, 12, 153, 83, 165, 90, 90, 165, 3, 0.800944
81, 3, bw, attraction, a-b-da, 14, 2, 7, 12, 153, 83, 165, 90, 90, 165, 1, 1.72019
81, 3, bw, attraction, a-b-db, 2, 1, 7, 13, 60, 135, 135, 60, 59, 134, 3, 3.99288
81, 3, bw, attraction, a-b-db, 2, 1, 7, 13, 60, 135, 135, 60, 59, 134, 1, 0.710936
81, 3, bw, catch, NA, 999, 999, 7, 14, 116, 139, 118, 77, 179, 136, 3, 1.54392
81, 3, bw, catch, NA, 999, 999, 7, 14, 116, 139, 118, 77, 179, 136, 2, 0.888656
81, 3, bw, attraction, a-b-da, 14, 3, 7, 15, 120, 195, 195, 120, 181, 111, 2, 1.08308
81, 3, bw, attraction, a-b-da, 14, 3, 7, 15, 120, 195, 195, 120, 181, 111, 1, 0.846676
81, 3, bw, catch, NA, 999, 999, 7, 16, 71, 124, 147, 108, 194, 121, 3, 1.05846
81, 3, bw, catch, NA, 999, 999, 7, 16, 71, 124, 147, 108, 194, 121, 1, 1.43073
81, 3, bw, attraction, a-b-da, 5, 2, 7, 17, 165, 90, 90, 165, 161, 88, 2, 1.53885
81, 3, bw, attraction, a-b-da, 5, 2, 7, 17, 165, 90, 90, 165, 161, 88, 3, 0.579792
81, 3, bw, filler, NA, 999, 999, 7, 18, 139, 123, 69, 161, 59, 169, 1, 1.44213
81, 3, bw, filler, NA, 999, 999, 7, 18, 139, 123, 69, 161, 59, 169, 3, 2.24704
81, 3, bw, attraction, a-b-db, 9, 2, 7, 19, 165, 90, 86, 157, 90, 165, 2, 2.09817
81, 3, bw, attraction, a-b-db, 9, 2, 7, 19, 165, 90, 86, 157, 90, 165, 3, 0.932912
81, 3, bw, filler, NA, 999, 999, 7, 20, 93, 161, 151, 108, 178, 106, 3, 2.01337
81, 3, bw, filler, NA, 999, 999, 7, 20, 93, 161, 151, 108, 178, 106, 2, 0.7711
81, 3, bw, attraction, a-b-db, 9, 3, 7, 21, 120, 195, 114, 186, 195, 120, 3, 1.74629
81, 3, bw, attraction, a-b-db, 9, 3, 7, 21, 120, 195, 114, 186, 195, 120, 2, 0.682995
81, 3, bw, attraction, a-b-db, 14, 2, 7, 22, 90, 165, 83, 153, 165, 90, 1, 1.83748
81, 3, bw, attraction, a-b-db, 14, 2, 7, 22, 90, 165, 83, 153, 165, 90, 2, 1.3868
81, 3, bw, attraction, a-b-da, 9, 2, 7, 23, 165, 90, 90, 165, 157, 86, 3, 2.32896
81, 3, bw, attraction, a-b-da, 9, 2, 7, 23, 165, 90, 90, 165, 157, 86, 2, 0.570197
81, 3, bw, filler, NA, 999, 999, 7, 24, 62, 103, 114, 185, 118, 101, 2, 1.16127
81, 3, bw, filler, NA, 999, 999, 7, 24, 62, 103, 114, 185, 118, 101, 1, 0.769603
81, 3, bw, attraction, a-b-db, 5, 2, 7, 25, 88, 161, 90, 165, 165, 90, 2, 3.37656
81, 3, bw, attraction, a-b-db, 5, 2, 7, 25, 88, 161, 90, 165, 165, 90, 3, 0.511504
81, 3, bw, attraction, a-b-db, 5, 1, 7, 26, 60, 135, 135, 60, 58, 132, 1, 2.30469
81, 3, bw, attraction, a-b-db, 5, 1, 7, 26, 60, 135, 135, 60, 58, 132, 2, 0.755325
81, 3, bw, attraction, a-b-da, 9, 1, 7, 27, 135, 60, 129, 57, 60, 135, 3, 1.53891
81, 3, bw, attraction, a-b-da, 9, 1, 7, 27, 135, 60, 129, 57, 60, 135, 2, 0.763801
81, 3, bw, attraction, a-b-db, 14, 3, 7, 28, 111, 181, 195, 120, 120, 195, 3, 4.03486
81, 3, bw, attraction, a-b-db, 14, 3, 7, 28, 111, 181, 195, 120, 120, 195, 1, 2.95168
81, 3, bw, attraction, a-b-da, 2, 3, 7, 29, 193, 119, 195, 120, 120, 195, 3, 3.73464
81, 3, bw, attraction, a-b-da, 2, 3, 7, 29, 193, 119, 195, 120, 120, 195, 2, 0.415358
81, 3, bw, attraction, a-b-db, 2, 3, 7, 30, 119, 193, 120, 195, 195, 120, 2, 2.20451
81, 3, bw, attraction, a-b-db, 2, 3, 7, 30, 119, 193, 120, 195, 195, 120, 3, 0.755111
81, 3, bw, attraction, a-b-db, 5, 3, 7, 31, 195, 120, 120, 195, 117, 190, 3, 5.24281
81, 3, bw, attraction, a-b-db, 5, 3, 7, 31, 195, 120, 120, 195, 117, 190, 2, 0.414528
81, 3, bw, attraction, a-b-da, 9, 3, 7, 32, 195, 120, 120, 195, 186, 114, 2, 1.14757
81, 3, bw, attraction, a-b-da, 9, 3, 7, 32, 195, 120, 120, 195, 186, 114, 3, 0.468705
81, 3, bw, attraction, a-b-da, 2, 1, 7, 33, 135, 60, 60, 135, 134, 59, 2, 1.88769
81, 3, bw, attraction, a-b-da, 2, 1, 7, 33, 135, 60, 60, 135, 134, 59, 1, 1.11503
81, 3, bw, attraction, a-b-db, 9, 1, 7, 34, 60, 135, 57, 129, 135, 60, 1, 6.55606
81, 3, bw, attraction, a-b-db, 9, 1, 7, 34, 60, 135, 57, 129, 135, 60, 2, 0.594641
81, 3, bw, attraction, a-b-da, 2, 2, 7, 35, 163, 89, 165, 90, 90, 165, 3, 1.23231
81, 3, bw, attraction, a-b-da, 2, 2, 7, 35, 163, 89, 165, 90, 90, 165, 2, 0.461918
81, 3, bw, filler, NA, 999, 999, 7, 36, 139, 108, 159, 182, 169, 161, 2, 2.08909
81, 3, bw, filler, NA, 999, 999, 7, 36, 139, 108, 159, 182, 169, 161, 1, 0.427695
81, 3, bw, filler, NA, 999, 999, 7, 37, 63, 132, 58, 134, 58, 149, 3, 6.88023
81, 3, bw, filler, NA, 999, 999, 7, 37, 63, 132, 58, 134, 58, 149, 1, 1.44195
81, 3, bw, attraction, a-b-db, 9, 1, 8, 1, 57, 129, 60, 135, 135, 60, 1, 1.87272
81, 3, bw, attraction, a-b-db, 9, 1, 8, 1, 57, 129, 60, 135, 135, 60, 3, 1.33872
81, 3, bw, attraction, a-b-da, 5, 2, 8, 2, 165, 90, 90, 165, 161, 88, 2, 1.00113
81, 3, bw, attraction, a-b-da, 5, 2, 8, 2, 165, 90, 90, 165, 161, 88, 1, 0.976182
81, 3, bw, attraction, a-b-db, 2, 2, 8, 3, 165, 90, 90, 165, 89, 163, 3, 0.822374
81, 3, bw, attraction, a-b-db, 2, 2, 8, 3, 165, 90, 90, 165, 89, 163, 1, 0.644202
81, 3, bw, filler, NA, 999, 999, 8, 4, 77, 78, 56, 133, 114, 126, 3, 0.991812
81, 3, bw, filler, NA, 999, 999, 8, 4, 77, 78, 56, 133, 114, 126, 1, 0.69491
81, 3, bw, attraction, a-b-da, 14, 2, 8, 5, 165, 90, 153, 83, 90, 165, 1, 1.02451
81, 3, bw, attraction, a-b-da, 14, 2, 8, 5, 165, 90, 153, 83, 90, 165, 2, 0.758275
81, 3, bw, attraction, a-b-da, 2, 3, 8, 6, 193, 119, 120, 195, 195, 120, 2, 3.89336
81, 3, bw, attraction, a-b-da, 2, 3, 8, 6, 193, 119, 120, 195, 195, 120, 1, 1.12789
81, 3, bw, attraction, a-b-da, 9, 2, 8, 7, 157, 86, 90, 165, 165, 90, 2, 2.19152
81, 3, bw, attraction, a-b-da, 9, 2, 8, 7, 157, 86, 90, 165, 165, 90, 1, 1.19018
81, 3, bw, filler, NA, 999, 999, 8, 8, 83, 56, 139, 94, 129, 132, 3, 0.980377
81, 3, bw, filler, NA, 999, 999, 8, 8, 83, 56, 139, 94, 129, 132, 1, 1.37204
81, 3, bw, attraction, a-b-da, 14, 3, 8, 9, 120, 195, 195, 120, 181, 111, 1, 2.947
81, 3, bw, attraction, a-b-da, 14, 3, 8, 9, 120, 195, 195, 120, 181, 111, 3, 1.54739
81, 3, bw, attraction, a-b-db, 14, 2, 8, 10, 165, 90, 83, 153, 90, 165, 3, 3.47479
81, 3, bw, attraction, a-b-db, 14, 2, 8, 10, 165, 90, 83, 153, 90, 165, 2, 1.44571
81, 3, bw, attraction, a-b-da, 2, 1, 8, 11, 60, 135, 135, 60, 134, 59, 2, 1.39321
81, 3, bw, attraction, a-b-da, 2, 1, 8, 11, 60, 135, 135, 60, 134, 59, 3, 0.52013
81, 3, bw, filler, NA, 999, 999, 8, 12, 152, 86, 182, 158, 174, 127, 2, 1.41728
81, 3, bw, filler, NA, 999, 999, 8, 12, 152, 86, 182, 158, 174, 127, 1, 0.679406
81, 3, bw, attraction, a-b-db, 5, 3, 8, 13, 120, 195, 117, 190, 195, 120, 3, 2.9377
81, 3, bw, attraction, a-b-db, 5, 3, 8, 13, 120, 195, 117, 190, 195, 120, 2, 0.92282
81, 3, bw, filler, NA, 999, 999, 8, 14, 73, 155, 140, 182, 144, 93, 2, 0.779825
81, 3, bw, filler, NA, 999, 999, 8, 14, 73, 155, 140, 182, 144, 93, 1, 1.37958
81, 3, bw, attraction, a-b-da, 9, 1, 8, 15, 60, 135, 129, 57, 135, 60, 1, 1.66564
81, 3, bw, attraction, a-b-da, 9, 1, 8, 15, 60, 135, 129, 57, 135, 60, 2, 0.717749
81, 3, bw, filler, NA, 999, 999, 8, 16, 111, 123, 113, 178, 169, 102, 2, 0.80687
81, 3, bw, filler, NA, 999, 999, 8, 16, 111, 123, 113, 178, 169, 102, 1, 1.18927
81, 3, bw, attraction, a-b-db, 5, 2, 8, 17, 165, 90, 88, 161, 90, 165, 1, 3.27552
81, 3, bw, attraction, a-b-db, 5, 2, 8, 17, 165, 90, 88, 161, 90, 165, 2, 0.758459
81, 3, bw, attraction, a-b-db, 9, 3, 8, 18, 195, 120, 120, 195, 114, 186, 1, 1.42148
81, 3, bw, attraction, a-b-db, 9, 3, 8, 18, 195, 120, 120, 195, 114, 186, 3, 2.81966
81, 3, bw, filler, NA, 999, 999, 8, 19, 98, 105, 137, 162, 188, 103, 2, 6.71214
81, 3, bw, filler, NA, 999, 999, 8, 19, 98, 105, 137, 162, 188, 103, 1, 0.880699
81, 3, bw, attraction, a-b-da, 9, 3, 8, 20, 120, 195, 186, 114, 195, 120, 3, 4.86691
81, 3, bw, attraction, a-b-da, 9, 3, 8, 20, 120, 195, 186, 114, 195, 120, 2, 0.542118
81, 3, bw, attraction, a-b-db, 2, 3, 8, 21, 119, 193, 195, 120, 120, 195, 1, 2.40597
81, 3, bw, attraction, a-b-db, 2, 3, 8, 21, 119, 193, 195, 120, 120, 195, 3, 0.58772
81, 3, bw, catch, NA, 999, 999, 8, 22, 71, 124, 103, 152, 135, 180, 3, 0.954155
81, 3, bw, catch, NA, 999, 999, 8, 22, 71, 124, 103, 152, 135, 180, 1, 1.26648
81, 3, bw, attraction, a-b-da, 2, 2, 8, 23, 165, 90, 163, 89, 90, 165, 3, 1.27735
81, 3, bw, attraction, a-b-da, 2, 2, 8, 23, 165, 90, 163, 89, 90, 165, 1, 0.792981
81, 3, bw, attraction, a-b-db, 14, 1, 8, 24, 60, 135, 135, 60, 56, 125, 1, 1.27063
81, 3, bw, attraction, a-b-db, 14, 1, 8, 24, 60, 135, 135, 60, 56, 125, 3, 0.714936
81, 3, bw, filler, NA, 999, 999, 8, 25, 136, 191, 105, 182, 130, 165, 3, 1.22798
81, 3, bw, filler, NA, 999, 999, 8, 25, 136, 191, 105, 182, 130, 165, 2, 0.393606
81, 3, bw, attraction, a-b-db, 14, 3, 8, 26, 111, 181, 120, 195, 195, 120, 2, 0.799375
81, 3, bw, attraction, a-b-db, 14, 3, 8, 26, 111, 181, 120, 195, 195, 120, 1, 0.966466
81, 3, bw, filler, NA, 999, 999, 8, 27, 141, 146, 85, 91, 190, 134, 3, 1.80556
81, 3, bw, filler, NA, 999, 999, 8, 27, 141, 146, 85, 91, 190, 134, 2, 0.563444
81, 3, bw, attraction, a-b-da, 5, 3, 8, 28, 120, 195, 195, 120, 190, 117, 1, 1.02657
81, 3, bw, attraction, a-b-da, 5, 3, 8, 28, 120, 195, 195, 120, 190, 117, 3, 0.648273
81, 3, bw, filler, NA, 999, 999, 8, 29, 161, 92, 63, 161, 128, 130, 3, 0.98799
81, 3, bw, filler, NA, 999, 999, 8, 29, 161, 92, 63, 161, 128, 130, 1, 1.40299
81, 3, bw, attraction, a-b-db, 5, 1, 8, 30, 135, 60, 60, 135, 58, 132, 2, 1.33639
81, 3, bw, attraction, a-b-db, 5, 1, 8, 30, 135, 60, 60, 135, 58, 132, 1, 0.482096
81, 3, bw, attraction, a-b-da, 14, 1, 8, 31, 135, 60, 60, 135, 125, 56, 2, 1.32461
81, 3, bw, attraction, a-b-da, 14, 1, 8, 31, 135, 60, 60, 135, 125, 56, 3, 0.422099
81, 3, bw, catch, NA, 999, 999, 8, 32, 62, 133, 104, 151, 193, 122, 3, 1.05113
81, 3, bw, catch, NA, 999, 999, 8, 32, 62, 133, 104, 151, 193, 122, 1, 0.544135
81, 3, bw, filler, NA, 999, 999, 8, 33, 96, 180, 130, 188, 57, 143, 2, 2.06388
81, 3, bw, filler, NA, 999, 999, 8, 33, 96, 180, 130, 188, 57, 143, 3, 0.467943
81, 3, bw, attraction, a-b-db, 9, 2, 8, 34, 165, 90, 90, 165, 86, 157, 3, 1.87097
81, 3, bw, attraction, a-b-db, 9, 2, 8, 34, 165, 90, 90, 165, 86, 157, 2, 0.811136
81, 3, bw, attraction, a-b-da, 5, 1, 8, 35, 60, 135, 135, 60, 132, 58, 1, 1.42408
81, 3, bw, attraction, a-b-da, 5, 1, 8, 35, 60, 135, 135, 60, 132, 58, 2, 0.574138
81, 3, bw, attraction, a-b-db, 2, 1, 8, 36, 60, 135, 59, 134, 135, 60, 2, 1.71605
81, 3, bw, attraction, a-b-db, 2, 1, 8, 36, 60, 135, 59, 134, 135, 60, 3, 0.622146
81, 3, bw, catch, NA, 999, 999, 8, 37, 105, 90, 121, 134, 167, 148, 3, 1.24327
81, 3, bw, catch, NA, 999, 999, 8, 37, 105, 90, 121, 134, 167, 148, 2, 1.42424
