sub_n, computer_n, bw_cond, effect, set, distance, diag, block_n, trial_n, h1, w1, h2, w2, h3, w3, choice, rt 
87, 3, bw, practice, NA, 999, 999, 0, 1, 155, 99, 105, 98, 141, 60, 1, 6.44365
87, 3, bw, practice, NA, 999, 999, 0, 1, 155, 99, 105, 98, 141, 60, 3, 4.13633
87, 3, bw, practice, NA, 999, 999, 0, 2, 114, 88, 142, 108, 135, 126, 3, 3.00218
87, 3, bw, practice, NA, 999, 999, 0, 2, 114, 88, 142, 108, 135, 126, 1, 1.49633
87, 3, bw, practice, NA, 999, 999, 0, 3, 176, 61, 151, 169, 101, 129, 2, 1.69495
87, 3, bw, practice, NA, 999, 999, 0, 3, 176, 61, 151, 169, 101, 129, 1, 1.49155
87, 3, bw, attraction, a-b-db, 5, 1, 1, 1, 60, 135, 58, 132, 135, 60, 1, 2.70708
87, 3, bw, attraction, a-b-db, 5, 1, 1, 1, 60, 135, 58, 132, 135, 60, 2, 2.49289
87, 3, bw, attraction, a-b-da, 2, 3, 1, 2, 193, 119, 120, 195, 195, 120, 2, 1.95799
87, 3, bw, attraction, a-b-da, 2, 3, 1, 2, 193, 119, 120, 195, 195, 120, 1, 0.990039
87, 3, bw, attraction, a-b-da, 9, 2, 1, 3, 157, 86, 90, 165, 165, 90, 2, 6.14027
87, 3, bw, attraction, a-b-da, 9, 2, 1, 3, 157, 86, 90, 165, 165, 90, 1, 0.635719
87, 3, bw, filler, NA, 999, 999, 1, 4, 127, 130, 182, 88, 105, 63, 1, 1.00815
87, 3, bw, filler, NA, 999, 999, 1, 4, 127, 130, 182, 88, 105, 63, 3, 1.34253
87, 3, bw, attraction, a-b-db, 2, 3, 1, 5, 119, 193, 120, 195, 195, 120, 2, 3.33401
87, 3, bw, attraction, a-b-db, 2, 3, 1, 5, 119, 193, 120, 195, 195, 120, 3, 0.758997
87, 3, bw, attraction, a-b-db, 14, 2, 1, 6, 83, 153, 165, 90, 90, 165, 3, 1.42198
87, 3, bw, attraction, a-b-db, 14, 2, 1, 6, 83, 153, 165, 90, 90, 165, 2, 1.30748
87, 3, bw, catch, NA, 999, 999, 1, 7, 87, 108, 127, 188, 133, 122, 2, 1.53237
87, 3, bw, catch, NA, 999, 999, 1, 7, 87, 108, 127, 188, 133, 122, 1, 0.733898
87, 3, bw, attraction, a-b-db, 9, 2, 1, 8, 90, 165, 165, 90, 86, 157, 1, 3.07835
87, 3, bw, attraction, a-b-db, 9, 2, 1, 8, 90, 165, 165, 90, 86, 157, 3, 0.529267
87, 3, bw, attraction, a-b-da, 5, 1, 1, 9, 60, 135, 132, 58, 135, 60, 1, 3.77777
87, 3, bw, attraction, a-b-da, 5, 1, 1, 9, 60, 135, 132, 58, 135, 60, 2, 0.832382
87, 3, bw, filler, NA, 999, 999, 1, 10, 147, 191, 83, 131, 192, 195, 3, 0.708856
87, 3, bw, filler, NA, 999, 999, 1, 10, 147, 191, 83, 131, 192, 195, 2, 0.599353
87, 3, bw, filler, NA, 999, 999, 1, 11, 111, 130, 128, 66, 59, 60, 1, 0.741008
87, 3, bw, filler, NA, 999, 999, 1, 11, 111, 130, 128, 66, 59, 60, 3, 0.582111
87, 3, bw, attraction, a-b-db, 14, 1, 1, 12, 135, 60, 60, 135, 56, 125, 1, 6.00451
87, 3, bw, attraction, a-b-db, 14, 1, 1, 12, 135, 60, 60, 135, 56, 125, 3, 0.985964
87, 3, bw, attraction, a-b-da, 2, 1, 1, 13, 134, 59, 60, 135, 135, 60, 3, 3.20046
87, 3, bw, attraction, a-b-da, 2, 1, 1, 13, 134, 59, 60, 135, 135, 60, 1, 0.646536
87, 3, bw, filler, NA, 999, 999, 1, 14, 163, 158, 110, 83, 141, 109, 1, 0.642278
87, 3, bw, filler, NA, 999, 999, 1, 14, 163, 158, 110, 83, 141, 109, 2, 0.471433
87, 3, bw, attraction, a-b-da, 14, 2, 1, 15, 90, 165, 165, 90, 153, 83, 1, 5.0265
87, 3, bw, attraction, a-b-da, 14, 2, 1, 15, 90, 165, 165, 90, 153, 83, 3, 1.35887
87, 3, bw, filler, NA, 999, 999, 1, 16, 108, 92, 103, 110, 192, 175, 3, 1.1898
87, 3, bw, filler, NA, 999, 999, 1, 16, 108, 92, 103, 110, 192, 175, 1, 0.612713
87, 3, bw, attraction, a-b-da, 9, 3, 1, 17, 120, 195, 186, 114, 195, 120, 1, 0.945834
87, 3, bw, attraction, a-b-da, 9, 3, 1, 17, 120, 195, 186, 114, 195, 120, 3, 0.898715
87, 3, bw, attraction, a-b-db, 2, 2, 1, 18, 165, 90, 89, 163, 90, 165, 3, 1.74862
87, 3, bw, attraction, a-b-db, 2, 2, 1, 18, 165, 90, 89, 163, 90, 165, 1, 0.62917
87, 3, bw, attraction, a-b-da, 14, 1, 1, 19, 125, 56, 135, 60, 60, 135, 2, 3.22564
87, 3, bw, attraction, a-b-da, 14, 1, 1, 19, 125, 56, 135, 60, 60, 135, 1, 0.446617
87, 3, bw, attraction, a-b-da, 14, 3, 1, 20, 195, 120, 120, 195, 181, 111, 1, 1.57828
87, 3, bw, attraction, a-b-da, 14, 3, 1, 20, 195, 120, 120, 195, 181, 111, 3, 0.49791
87, 3, bw, attraction, a-b-db, 5, 2, 1, 21, 165, 90, 88, 161, 90, 165, 1, 2.01174
87, 3, bw, attraction, a-b-db, 5, 2, 1, 21, 165, 90, 88, 161, 90, 165, 3, 0.457712
87, 3, bw, attraction, a-b-db, 9, 3, 1, 22, 195, 120, 120, 195, 114, 186, 2, 2.03671
87, 3, bw, attraction, a-b-db, 9, 3, 1, 22, 195, 120, 120, 195, 114, 186, 3, 0.626207
87, 3, bw, attraction, a-b-da, 9, 1, 1, 23, 129, 57, 60, 135, 135, 60, 3, 1.83863
87, 3, bw, attraction, a-b-da, 9, 1, 1, 23, 129, 57, 60, 135, 135, 60, 2, 0.451282
87, 3, bw, attraction, a-b-da, 5, 3, 1, 24, 190, 117, 195, 120, 120, 195, 2, 4.70315
87, 3, bw, attraction, a-b-da, 5, 3, 1, 24, 190, 117, 195, 120, 120, 195, 1, 1.03293
87, 3, bw, attraction, a-b-da, 2, 2, 1, 25, 90, 165, 165, 90, 163, 89, 1, 3.10919
87, 3, bw, attraction, a-b-da, 2, 2, 1, 25, 90, 165, 165, 90, 163, 89, 3, 0.782905
87, 3, bw, filler, NA, 999, 999, 1, 26, 115, 159, 116, 67, 145, 103, 1, 1.71719
87, 3, bw, filler, NA, 999, 999, 1, 26, 115, 159, 116, 67, 145, 103, 2, 0.583502
87, 3, bw, filler, NA, 999, 999, 1, 27, 104, 128, 134, 172, 152, 164, 3, 1.31778
87, 3, bw, filler, NA, 999, 999, 1, 27, 104, 128, 134, 172, 152, 164, 1, 0.600078
87, 3, bw, filler, NA, 999, 999, 1, 28, 146, 70, 161, 175, 82, 58, 2, 0.813853
87, 3, bw, filler, NA, 999, 999, 1, 28, 146, 70, 161, 175, 82, 58, 3, 0.628139
87, 3, bw, filler, NA, 999, 999, 1, 29, 124, 70, 93, 93, 124, 123, 3, 0.904586
87, 3, bw, filler, NA, 999, 999, 1, 29, 124, 70, 93, 93, 124, 123, 2, 0.515591
87, 3, bw, attraction, a-b-db, 2, 1, 1, 30, 59, 134, 135, 60, 60, 135, 2, 0.980698
87, 3, bw, attraction, a-b-db, 2, 1, 1, 30, 59, 134, 135, 60, 60, 135, 3, 0.74833
87, 3, bw, catch, NA, 999, 999, 1, 31, 125, 130, 192, 123, 80, 115, 2, 1.14803
87, 3, bw, catch, NA, 999, 999, 1, 31, 125, 130, 192, 123, 80, 115, 3, 0.573011
87, 3, bw, attraction, a-b-db, 9, 1, 1, 32, 57, 129, 60, 135, 135, 60, 2, 1.996
87, 3, bw, attraction, a-b-db, 9, 1, 1, 32, 57, 129, 60, 135, 135, 60, 3, 0.794704
87, 3, bw, filler, NA, 999, 999, 1, 33, 130, 66, 147, 62, 176, 137, 3, 0.89643
87, 3, bw, filler, NA, 999, 999, 1, 33, 130, 66, 147, 62, 176, 137, 1, 1.23562
87, 3, bw, attraction, a-b-da, 5, 2, 1, 34, 90, 165, 165, 90, 161, 88, 1, 3.0317
87, 3, bw, attraction, a-b-da, 5, 2, 1, 34, 90, 165, 165, 90, 161, 88, 3, 0.484746
87, 3, bw, attraction, a-b-db, 5, 3, 1, 35, 117, 190, 195, 120, 120, 195, 2, 1.13525
87, 3, bw, attraction, a-b-db, 5, 3, 1, 35, 117, 190, 195, 120, 120, 195, 1, 1.00907
87, 3, bw, attraction, a-b-db, 14, 3, 1, 36, 111, 181, 195, 120, 120, 195, 3, 1.33373
87, 3, bw, attraction, a-b-db, 14, 3, 1, 36, 111, 181, 195, 120, 120, 195, 2, 0.503405
87, 3, bw, catch, NA, 999, 999, 1, 37, 189, 126, 89, 106, 93, 162, 1, 0.65723
87, 3, bw, catch, NA, 999, 999, 1, 37, 189, 126, 89, 106, 93, 162, 3, 0.5335
87, 3, bw, filler, NA, 999, 999, 2, 1, 104, 89, 156, 144, 135, 139, 2, 0.797953
87, 3, bw, filler, NA, 999, 999, 2, 1, 104, 89, 156, 144, 135, 139, 1, 0.381188
87, 3, bw, attraction, a-b-da, 2, 1, 2, 2, 60, 135, 134, 59, 135, 60, 2, 2.20362
87, 3, bw, attraction, a-b-da, 2, 1, 2, 2, 60, 135, 134, 59, 135, 60, 3, 0.394229
87, 3, bw, attraction, a-b-da, 5, 3, 2, 3, 190, 117, 120, 195, 195, 120, 2, 0.680223
87, 3, bw, attraction, a-b-da, 5, 3, 2, 3, 190, 117, 120, 195, 195, 120, 1, 0.339778
87, 3, bw, attraction, a-b-db, 5, 3, 2, 4, 195, 120, 117, 190, 120, 195, 2, 1.46038
87, 3, bw, attraction, a-b-db, 5, 3, 2, 4, 195, 120, 117, 190, 120, 195, 1, 0.304498
87, 3, bw, attraction, a-b-db, 9, 1, 2, 5, 60, 135, 135, 60, 57, 129, 2, 0.858379
87, 3, bw, attraction, a-b-db, 9, 1, 2, 5, 60, 135, 135, 60, 57, 129, 3, 0.318606
87, 3, bw, filler, NA, 999, 999, 2, 6, 151, 175, 85, 170, 58, 88, 1, 0.631808
87, 3, bw, filler, NA, 999, 999, 2, 6, 151, 175, 85, 170, 58, 88, 3, 0.397692
87, 3, bw, attraction, a-b-da, 5, 1, 2, 7, 135, 60, 132, 58, 60, 135, 3, 1.13149
87, 3, bw, attraction, a-b-da, 5, 1, 2, 7, 135, 60, 132, 58, 60, 135, 1, 0.733147
87, 3, bw, attraction, a-b-da, 2, 2, 2, 8, 163, 89, 90, 165, 165, 90, 2, 1.0374
87, 3, bw, attraction, a-b-da, 2, 2, 2, 8, 163, 89, 90, 165, 165, 90, 1, 0.675082
87, 3, bw, filler, NA, 999, 999, 2, 9, 73, 110, 118, 132, 181, 149, 3, 0.909456
87, 3, bw, filler, NA, 999, 999, 2, 9, 73, 110, 118, 132, 181, 149, 1, 0.511824
87, 3, bw, attraction, a-b-db, 2, 3, 2, 10, 120, 195, 195, 120, 119, 193, 2, 0.984936
87, 3, bw, attraction, a-b-db, 2, 3, 2, 10, 120, 195, 195, 120, 119, 193, 3, 1.54459
87, 3, bw, attraction, a-b-db, 5, 2, 2, 11, 165, 90, 90, 165, 88, 161, 2, 2.40004
87, 3, bw, attraction, a-b-db, 5, 2, 2, 11, 165, 90, 90, 165, 88, 161, 1, 0.382711
87, 3, bw, attraction, a-b-da, 9, 2, 2, 12, 165, 90, 157, 86, 90, 165, 3, 3.05313
87, 3, bw, attraction, a-b-da, 9, 2, 2, 12, 165, 90, 157, 86, 90, 165, 1, 0.657466
87, 3, bw, filler, NA, 999, 999, 2, 13, 155, 116, 74, 119, 163, 60, 1, 0.916546
87, 3, bw, filler, NA, 999, 999, 2, 13, 155, 116, 74, 119, 163, 60, 2, 0.662906
87, 3, bw, filler, NA, 999, 999, 2, 14, 156, 122, 99, 141, 142, 128, 1, 0.794024
87, 3, bw, filler, NA, 999, 999, 2, 14, 156, 122, 99, 141, 142, 128, 3, 0.401055
87, 3, bw, attraction, a-b-da, 2, 3, 2, 15, 193, 119, 120, 195, 195, 120, 2, 1.41484
87, 3, bw, attraction, a-b-da, 2, 3, 2, 15, 193, 119, 120, 195, 195, 120, 1, 0.413051
87, 3, bw, attraction, a-b-da, 5, 2, 2, 16, 165, 90, 161, 88, 90, 165, 3, 1.88218
87, 3, bw, attraction, a-b-da, 5, 2, 2, 16, 165, 90, 161, 88, 90, 165, 1, 0.333583
87, 3, bw, attraction, a-b-da, 9, 3, 2, 17, 195, 120, 186, 114, 120, 195, 1, 1.34219
87, 3, bw, attraction, a-b-da, 9, 3, 2, 17, 195, 120, 186, 114, 120, 195, 3, 0.390963
87, 3, bw, attraction, a-b-da, 14, 1, 2, 18, 60, 135, 125, 56, 135, 60, 1, 0.900762
87, 3, bw, attraction, a-b-da, 14, 1, 2, 18, 60, 135, 125, 56, 135, 60, 2, 0.695851
87, 3, bw, attraction, a-b-db, 5, 1, 2, 19, 58, 132, 60, 135, 135, 60, 2, 1.93751
87, 3, bw, attraction, a-b-db, 5, 1, 2, 19, 58, 132, 60, 135, 135, 60, 3, 1.09897
87, 3, bw, catch, NA, 999, 999, 2, 20, 121, 194, 141, 114, 130, 65, 1, 0.684492
87, 3, bw, catch, NA, 999, 999, 2, 20, 121, 194, 141, 114, 130, 65, 3, 1.13621
87, 3, bw, attraction, a-b-db, 9, 3, 2, 21, 114, 186, 120, 195, 195, 120, 3, 1.43254
87, 3, bw, attraction, a-b-db, 9, 3, 2, 21, 114, 186, 120, 195, 195, 120, 2, 0.286001
87, 3, bw, attraction, a-b-db, 14, 1, 2, 22, 135, 60, 60, 135, 56, 125, 1, 0.992545
87, 3, bw, attraction, a-b-db, 14, 1, 2, 22, 135, 60, 60, 135, 56, 125, 2, 0.415579
87, 3, bw, filler, NA, 999, 999, 2, 23, 190, 56, 83, 173, 75, 61, 2, 1.01271
87, 3, bw, filler, NA, 999, 999, 2, 23, 190, 56, 83, 173, 75, 61, 3, 0.515031
87, 3, bw, attraction, a-b-db, 2, 1, 2, 24, 60, 135, 135, 60, 59, 134, 2, 3.98009
87, 3, bw, attraction, a-b-db, 2, 1, 2, 24, 60, 135, 135, 60, 59, 134, 3, 0.522858
87, 3, bw, attraction, a-b-db, 2, 2, 2, 25, 90, 165, 165, 90, 89, 163, 2, 0.787955
87, 3, bw, attraction, a-b-db, 2, 2, 2, 25, 90, 165, 165, 90, 89, 163, 1, 6.82713
87, 3, bw, attraction, a-b-db, 9, 2, 2, 26, 86, 157, 165, 90, 90, 165, 3, 1.36568
87, 3, bw, attraction, a-b-db, 9, 2, 2, 26, 86, 157, 165, 90, 90, 165, 2, 0.365737
87, 3, bw, attraction, a-b-db, 14, 3, 2, 27, 195, 120, 111, 181, 120, 195, 1, 0.692832
87, 3, bw, attraction, a-b-db, 14, 3, 2, 27, 195, 120, 111, 181, 120, 195, 2, 0.432078
87, 3, bw, filler, NA, 999, 999, 2, 28, 140, 96, 85, 118, 130, 189, 3, 0.620385
87, 3, bw, filler, NA, 999, 999, 2, 28, 140, 96, 85, 118, 130, 189, 2, 0.546846
87, 3, bw, catch, NA, 999, 999, 2, 29, 60, 135, 128, 187, 150, 105, 2, 0.674597
87, 3, bw, catch, NA, 999, 999, 2, 29, 60, 135, 128, 187, 150, 105, 1, 0.454529
87, 3, bw, filler, NA, 999, 999, 2, 30, 176, 168, 133, 123, 74, 195, 1, 0.658201
87, 3, bw, filler, NA, 999, 999, 2, 30, 176, 168, 133, 123, 74, 195, 2, 0.374659
87, 3, bw, attraction, a-b-da, 14, 3, 2, 31, 195, 120, 181, 111, 120, 195, 2, 0.845226
87, 3, bw, attraction, a-b-da, 14, 3, 2, 31, 195, 120, 181, 111, 120, 195, 1, 0.338178
87, 3, bw, attraction, a-b-da, 14, 2, 2, 32, 165, 90, 90, 165, 153, 83, 1, 1.16277
87, 3, bw, attraction, a-b-da, 14, 2, 2, 32, 165, 90, 90, 165, 153, 83, 3, 0.538979
87, 3, bw, catch, NA, 999, 999, 2, 33, 159, 96, 120, 75, 181, 134, 3, 0.867604
87, 3, bw, catch, NA, 999, 999, 2, 33, 159, 96, 120, 75, 181, 134, 2, 0.287806
87, 3, bw, attraction, a-b-db, 14, 2, 2, 34, 83, 153, 165, 90, 90, 165, 2, 0.714386
87, 3, bw, attraction, a-b-db, 14, 2, 2, 34, 83, 153, 165, 90, 90, 165, 3, 0.316665
87, 3, bw, filler, NA, 999, 999, 2, 35, 154, 155, 70, 85, 89, 59, 1, 0.82978
87, 3, bw, filler, NA, 999, 999, 2, 35, 154, 155, 70, 85, 89, 59, 2, 0.379611
87, 3, bw, attraction, a-b-da, 9, 1, 2, 36, 135, 60, 60, 135, 129, 57, 2, 0.826215
87, 3, bw, attraction, a-b-da, 9, 1, 2, 36, 135, 60, 60, 135, 129, 57, 1, 0.399766
87, 3, bw, filler, NA, 999, 999, 2, 37, 82, 120, 181, 73, 164, 166, 3, 0.661624
87, 3, bw, filler, NA, 999, 999, 2, 37, 82, 120, 181, 73, 164, 166, 2, 0.426049
87, 3, bw, filler, NA, 999, 999, 3, 1, 134, 194, 60, 150, 101, 61, 1, 0.958624
87, 3, bw, filler, NA, 999, 999, 3, 1, 134, 194, 60, 150, 101, 61, 3, 0.878981
87, 3, bw, filler, NA, 999, 999, 3, 2, 60, 116, 148, 101, 87, 141, 2, 1.01725
87, 3, bw, filler, NA, 999, 999, 3, 2, 60, 116, 148, 101, 87, 141, 1, 0.527485
87, 3, bw, filler, NA, 999, 999, 3, 3, 155, 98, 194, 61, 130, 83, 1, 1.19191
87, 3, bw, filler, NA, 999, 999, 3, 3, 155, 98, 194, 61, 130, 83, 3, 0.814903
87, 3, bw, catch, NA, 999, 999, 3, 4, 122, 133, 135, 60, 156, 159, 3, 1.05194
87, 3, bw, catch, NA, 999, 999, 3, 4, 122, 133, 135, 60, 156, 159, 2, 0.633085
87, 3, bw, filler, NA, 999, 999, 3, 5, 84, 71, 130, 149, 175, 78, 2, 2.15742
87, 3, bw, filler, NA, 999, 999, 3, 5, 84, 71, 130, 149, 175, 78, 1, 0.581349
87, 3, bw, filler, NA, 999, 999, 3, 6, 82, 147, 140, 182, 100, 84, 2, 0.57183
87, 3, bw, filler, NA, 999, 999, 3, 6, 82, 147, 140, 182, 100, 84, 3, 0.33152
87, 3, bw, catch, NA, 999, 999, 3, 7, 61, 134, 156, 159, 135, 120, 2, 0.643993
87, 3, bw, catch, NA, 999, 999, 3, 7, 61, 134, 156, 159, 135, 120, 1, 0.345056
87, 3, bw, attraction, a-b-da, 14, 1, 3, 8, 60, 135, 125, 56, 135, 60, 1, 0.849094
87, 3, bw, attraction, a-b-da, 14, 1, 3, 8, 60, 135, 125, 56, 135, 60, 2, 0.36784
87, 3, bw, attraction, a-b-db, 2, 2, 3, 9, 90, 165, 165, 90, 89, 163, 1, 0.837204
87, 3, bw, attraction, a-b-db, 2, 2, 3, 9, 90, 165, 165, 90, 89, 163, 2, 0.682855
87, 3, bw, attraction, a-b-db, 14, 3, 3, 10, 120, 195, 111, 181, 195, 120, 2, 1.44525
87, 3, bw, attraction, a-b-db, 14, 3, 3, 10, 120, 195, 111, 181, 195, 120, 3, 0.346125
87, 3, bw, attraction, a-b-da, 5, 1, 3, 11, 60, 135, 132, 58, 135, 60, 1, 0.793947
87, 3, bw, attraction, a-b-da, 5, 1, 3, 11, 60, 135, 132, 58, 135, 60, 2, 0.913024
87, 3, bw, attraction, a-b-db, 14, 1, 3, 12, 56, 125, 135, 60, 60, 135, 2, 0.986109
87, 3, bw, attraction, a-b-db, 14, 1, 3, 12, 56, 125, 135, 60, 60, 135, 1, 1.58568
87, 3, bw, attraction, a-b-db, 2, 3, 3, 13, 119, 193, 195, 120, 120, 195, 1, 0.895748
87, 3, bw, attraction, a-b-db, 2, 3, 3, 13, 119, 193, 195, 120, 120, 195, 2, 0.77085
87, 3, bw, attraction, a-b-da, 5, 3, 3, 14, 190, 117, 195, 120, 120, 195, 2, 1.00978
87, 3, bw, attraction, a-b-da, 5, 3, 3, 14, 190, 117, 195, 120, 120, 195, 1, 0.472068
87, 3, bw, attraction, a-b-db, 9, 3, 3, 15, 114, 186, 195, 120, 120, 195, 2, 0.595304
87, 3, bw, attraction, a-b-db, 9, 3, 3, 15, 114, 186, 195, 120, 120, 195, 1, 0.53042
87, 3, bw, attraction, a-b-da, 14, 2, 3, 16, 165, 90, 153, 83, 90, 165, 2, 0.618765
87, 3, bw, attraction, a-b-da, 14, 2, 3, 16, 165, 90, 153, 83, 90, 165, 1, 0.345349
87, 3, bw, attraction, a-b-da, 14, 3, 3, 17, 120, 195, 181, 111, 195, 120, 1, 2.80124
87, 3, bw, attraction, a-b-da, 14, 3, 3, 17, 120, 195, 181, 111, 195, 120, 2, 0.43156
87, 3, bw, attraction, a-b-da, 9, 1, 3, 18, 60, 135, 129, 57, 135, 60, 1, 1.21209
87, 3, bw, attraction, a-b-da, 9, 1, 3, 18, 60, 135, 129, 57, 135, 60, 2, 0.330312
87, 3, bw, attraction, a-b-da, 2, 2, 3, 19, 90, 165, 165, 90, 163, 89, 1, 0.586717
87, 3, bw, attraction, a-b-da, 2, 2, 3, 19, 90, 165, 165, 90, 163, 89, 2, 0.394574
87, 3, bw, attraction, a-b-db, 9, 1, 3, 20, 60, 135, 57, 129, 135, 60, 1, 2.18454
87, 3, bw, attraction, a-b-db, 9, 1, 3, 20, 60, 135, 57, 129, 135, 60, 2, 0.327719
87, 3, bw, filler, NA, 999, 999, 3, 21, 99, 159, 179, 119, 189, 167, 3, 1.3362
87, 3, bw, filler, NA, 999, 999, 3, 21, 99, 159, 179, 119, 189, 167, 1, 0.417825
87, 3, bw, filler, NA, 999, 999, 3, 22, 105, 101, 149, 117, 59, 124, 2, 0.95082
87, 3, bw, filler, NA, 999, 999, 3, 22, 105, 101, 149, 117, 59, 124, 3, 2.07188
87, 3, bw, attraction, a-b-db, 9, 2, 3, 23, 165, 90, 90, 165, 86, 157, 1, 0.978521
87, 3, bw, attraction, a-b-db, 9, 2, 3, 23, 165, 90, 90, 165, 86, 157, 2, 0.386184
87, 3, bw, attraction, a-b-db, 5, 3, 3, 24, 117, 190, 195, 120, 120, 195, 2, 1.06479
87, 3, bw, attraction, a-b-db, 5, 3, 3, 24, 117, 190, 195, 120, 120, 195, 1, 0.396999
87, 3, bw, attraction, a-b-da, 9, 2, 3, 25, 165, 90, 90, 165, 157, 86, 1, 2.16293
87, 3, bw, attraction, a-b-da, 9, 2, 3, 25, 165, 90, 90, 165, 157, 86, 2, 0.786778
87, 3, bw, filler, NA, 999, 999, 3, 26, 182, 70, 84, 95, 109, 163, 3, 1.01707
87, 3, bw, filler, NA, 999, 999, 3, 26, 182, 70, 84, 95, 109, 163, 2, 0.615411
87, 3, bw, filler, NA, 999, 999, 3, 27, 154, 123, 172, 120, 56, 189, 2, 0.980525
87, 3, bw, filler, NA, 999, 999, 3, 27, 154, 123, 172, 120, 56, 189, 1, 0.364316
87, 3, bw, attraction, a-b-da, 5, 2, 3, 28, 90, 165, 161, 88, 165, 90, 1, 1.7314
87, 3, bw, attraction, a-b-da, 5, 2, 3, 28, 90, 165, 161, 88, 165, 90, 2, 0.317244
87, 3, bw, attraction, a-b-db, 2, 1, 3, 29, 135, 60, 59, 134, 60, 135, 1, 2.18201
87, 3, bw, attraction, a-b-db, 2, 1, 3, 29, 135, 60, 59, 134, 60, 135, 2, 0.469309
87, 3, bw, attraction, a-b-da, 9, 3, 3, 30, 120, 195, 195, 120, 186, 114, 2, 1.64037
87, 3, bw, attraction, a-b-da, 9, 3, 3, 30, 120, 195, 195, 120, 186, 114, 3, 0.62917
87, 3, bw, attraction, a-b-db, 14, 2, 3, 31, 90, 165, 83, 153, 165, 90, 1, 1.5856
87, 3, bw, attraction, a-b-db, 14, 2, 3, 31, 90, 165, 83, 153, 165, 90, 2, 0.585023
87, 3, bw, filler, NA, 999, 999, 3, 32, 142, 155, 165, 142, 56, 113, 1, 1.67156
87, 3, bw, filler, NA, 999, 999, 3, 32, 142, 155, 165, 142, 56, 113, 3, 0.394952
87, 3, bw, attraction, a-b-da, 2, 1, 3, 33, 60, 135, 134, 59, 135, 60, 2, 2.17686
87, 3, bw, attraction, a-b-da, 2, 1, 3, 33, 60, 135, 134, 59, 135, 60, 3, 0.392138
87, 3, bw, attraction, a-b-db, 5, 2, 3, 34, 165, 90, 90, 165, 88, 161, 1, 0.790006
87, 3, bw, attraction, a-b-db, 5, 2, 3, 34, 165, 90, 90, 165, 88, 161, 2, 0.333056
87, 3, bw, attraction, a-b-db, 5, 1, 3, 35, 135, 60, 60, 135, 58, 132, 1, 0.813482
87, 3, bw, attraction, a-b-db, 5, 1, 3, 35, 135, 60, 60, 135, 58, 132, 2, 0.347849
87, 3, bw, catch, NA, 999, 999, 3, 36, 114, 141, 121, 194, 68, 127, 2, 1.49169
87, 3, bw, catch, NA, 999, 999, 3, 36, 114, 141, 121, 194, 68, 127, 1, 0.510624
87, 3, bw, attraction, a-b-da, 2, 3, 3, 37, 120, 195, 195, 120, 193, 119, 2, 0.663713
87, 3, bw, attraction, a-b-da, 2, 3, 3, 37, 120, 195, 195, 120, 193, 119, 3, 0.324135
87, 3, bw, attraction, a-b-da, 5, 2, 4, 1, 165, 90, 90, 165, 161, 88, 1, 1.03658
87, 3, bw, attraction, a-b-da, 5, 2, 4, 1, 165, 90, 90, 165, 161, 88, 2, 0.306343
87, 3, bw, attraction, a-b-da, 9, 3, 4, 2, 195, 120, 186, 114, 120, 195, 1, 0.692041
87, 3, bw, attraction, a-b-da, 9, 3, 4, 2, 195, 120, 186, 114, 120, 195, 2, 0.335125
87, 3, bw, attraction, a-b-db, 2, 3, 4, 3, 120, 195, 119, 193, 195, 120, 2, 0.767693
87, 3, bw, attraction, a-b-db, 2, 3, 4, 3, 120, 195, 119, 193, 195, 120, 1, 0.66415
87, 3, bw, filler, NA, 999, 999, 4, 4, 121, 164, 169, 86, 75, 130, 1, 0.843083
87, 3, bw, filler, NA, 999, 999, 4, 4, 121, 164, 169, 86, 75, 130, 3, 0.952195
87, 3, bw, attraction, a-b-db, 5, 3, 4, 5, 117, 190, 195, 120, 120, 195, 2, 0.615829
87, 3, bw, attraction, a-b-db, 5, 3, 4, 5, 117, 190, 195, 120, 120, 195, 1, 0.310316
87, 3, bw, attraction, a-b-db, 14, 2, 4, 6, 90, 165, 83, 153, 165, 90, 1, 3.49542
87, 3, bw, attraction, a-b-db, 14, 2, 4, 6, 90, 165, 83, 153, 165, 90, 2, 0.361638
87, 3, bw, filler, NA, 999, 999, 4, 7, 99, 110, 171, 91, 62, 57, 2, 1.46486
87, 3, bw, filler, NA, 999, 999, 4, 7, 99, 110, 171, 91, 62, 57, 3, 0.525001
87, 3, bw, attraction, a-b-db, 14, 1, 4, 8, 56, 125, 60, 135, 135, 60, 2, 1.54966
87, 3, bw, attraction, a-b-db, 14, 1, 4, 8, 56, 125, 60, 135, 135, 60, 3, 0.846294
87, 3, bw, attraction, a-b-da, 9, 1, 4, 9, 129, 57, 60, 135, 135, 60, 2, 0.641977
87, 3, bw, attraction, a-b-da, 9, 1, 4, 9, 129, 57, 60, 135, 135, 60, 1, 0.534996
87, 3, bw, attraction, a-b-db, 2, 1, 4, 10, 59, 134, 60, 135, 135, 60, 1, 0.791435
87, 3, bw, attraction, a-b-db, 2, 1, 4, 10, 59, 134, 60, 135, 135, 60, 2, 0.414534
87, 3, bw, attraction, a-b-db, 5, 2, 4, 11, 88, 161, 165, 90, 90, 165, 1, 0.5798
87, 3, bw, attraction, a-b-db, 5, 2, 4, 11, 88, 161, 165, 90, 90, 165, 2, 0.363461
87, 3, bw, filler, NA, 999, 999, 4, 12, 103, 127, 151, 148, 82, 146, 2, 1.01867
87, 3, bw, filler, NA, 999, 999, 4, 12, 103, 127, 151, 148, 82, 146, 1, 0.31299
87, 3, bw, attraction, a-b-da, 14, 2, 4, 13, 165, 90, 90, 165, 153, 83, 1, 2.58616
87, 3, bw, attraction, a-b-da, 14, 2, 4, 13, 165, 90, 90, 165, 153, 83, 3, 0.489277
87, 3, bw, attraction, a-b-da, 5, 3, 4, 14, 190, 117, 195, 120, 120, 195, 1, 0.931774
87, 3, bw, attraction, a-b-da, 5, 3, 4, 14, 190, 117, 195, 120, 120, 195, 2, 0.33344
87, 3, bw, filler, NA, 999, 999, 4, 15, 187, 112, 102, 136, 114, 128, 1, 0.709995
87, 3, bw, filler, NA, 999, 999, 4, 15, 187, 112, 102, 136, 114, 128, 2, 0.312357
87, 3, bw, filler, NA, 999, 999, 4, 16, 110, 165, 176, 83, 161, 117, 1, 0.977565
87, 3, bw, filler, NA, 999, 999, 4, 16, 110, 165, 176, 83, 161, 117, 2, 0.337245
87, 3, bw, attraction, a-b-da, 2, 1, 4, 17, 134, 59, 60, 135, 135, 60, 3, 1.5298
87, 3, bw, attraction, a-b-da, 2, 1, 4, 17, 134, 59, 60, 135, 135, 60, 2, 1.2673
87, 3, bw, attraction, a-b-db, 9, 3, 4, 18, 120, 195, 195, 120, 114, 186, 1, 1.46214
87, 3, bw, attraction, a-b-db, 9, 3, 4, 18, 120, 195, 195, 120, 114, 186, 2, 0.386329
87, 3, bw, filler, NA, 999, 999, 4, 19, 170, 127, 113, 73, 127, 132, 1, 4.76875
87, 3, bw, filler, NA, 999, 999, 4, 19, 170, 127, 113, 73, 127, 132, 2, 0.743899
87, 3, bw, attraction, a-b-db, 14, 3, 4, 20, 195, 120, 120, 195, 111, 181, 1, 2.2556
87, 3, bw, attraction, a-b-db, 14, 3, 4, 20, 195, 120, 120, 195, 111, 181, 2, 0.8997
87, 3, bw, filler, NA, 999, 999, 4, 21, 162, 100, 156, 81, 118, 135, 3, 1.41328
87, 3, bw, filler, NA, 999, 999, 4, 21, 162, 100, 156, 81, 118, 135, 2, 0.811428
87, 3, bw, attraction, a-b-da, 2, 3, 4, 22, 195, 120, 193, 119, 120, 195, 2, 1.32843
87, 3, bw, attraction, a-b-da, 2, 3, 4, 22, 195, 120, 193, 119, 120, 195, 3, 0.3441
87, 3, bw, attraction, a-b-db, 9, 2, 4, 23, 165, 90, 90, 165, 86, 157, 1, 0.737757
87, 3, bw, attraction, a-b-db, 9, 2, 4, 23, 165, 90, 90, 165, 86, 157, 2, 0.283575
87, 3, bw, attraction, a-b-da, 14, 1, 4, 24, 135, 60, 60, 135, 125, 56, 1, 1.43817
87, 3, bw, attraction, a-b-da, 14, 1, 4, 24, 135, 60, 60, 135, 125, 56, 2, 0.498965
87, 3, bw, catch, NA, 999, 999, 4, 25, 105, 90, 104, 151, 151, 164, 3, 1.28482
87, 3, bw, catch, NA, 999, 999, 4, 25, 105, 90, 104, 151, 151, 164, 1, 0.592444
87, 3, bw, attraction, a-b-db, 5, 1, 4, 26, 58, 132, 60, 135, 135, 60, 2, 1.36608
87, 3, bw, attraction, a-b-db, 5, 1, 4, 26, 58, 132, 60, 135, 135, 60, 3, 0.430361
87, 3, bw, catch, NA, 999, 999, 4, 27, 109, 86, 140, 175, 134, 121, 2, 0.64279
87, 3, bw, catch, NA, 999, 999, 4, 27, 109, 86, 140, 175, 134, 121, 1, 0.383853
87, 3, bw, filler, NA, 999, 999, 4, 28, 184, 56, 120, 180, 152, 170, 3, 1.07831
87, 3, bw, filler, NA, 999, 999, 4, 28, 184, 56, 120, 180, 152, 170, 1, 0.466018
87, 3, bw, attraction, a-b-da, 2, 2, 4, 29, 90, 165, 165, 90, 163, 89, 1, 0.981075
87, 3, bw, attraction, a-b-da, 2, 2, 4, 29, 90, 165, 165, 90, 163, 89, 2, 0.684759
87, 3, bw, attraction, a-b-da, 5, 1, 4, 30, 132, 58, 60, 135, 135, 60, 1, 2.01518
87, 3, bw, attraction, a-b-da, 5, 1, 4, 30, 132, 58, 60, 135, 135, 60, 2, 0.509306
87, 3, bw, filler, NA, 999, 999, 4, 31, 190, 95, 124, 118, 65, 68, 1, 1.82231
87, 3, bw, filler, NA, 999, 999, 4, 31, 190, 95, 124, 118, 65, 68, 3, 1.1797
87, 3, bw, catch, NA, 999, 999, 4, 32, 127, 68, 108, 147, 141, 174, 3, 0.793891
87, 3, bw, catch, NA, 999, 999, 4, 32, 127, 68, 108, 147, 141, 174, 1, 0.42499
87, 3, bw, attraction, a-b-da, 9, 2, 4, 33, 90, 165, 165, 90, 157, 86, 1, 0.725488
87, 3, bw, attraction, a-b-da, 9, 2, 4, 33, 90, 165, 165, 90, 157, 86, 2, 0.287184
87, 3, bw, attraction, a-b-db, 9, 1, 4, 34, 135, 60, 60, 135, 57, 129, 1, 1.49765
87, 3, bw, attraction, a-b-db, 9, 1, 4, 34, 135, 60, 60, 135, 57, 129, 3, 0.876662
87, 3, bw, filler, NA, 999, 999, 4, 35, 108, 179, 142, 96, 100, 185, 1, 0.662838
87, 3, bw, filler, NA, 999, 999, 4, 35, 108, 179, 142, 96, 100, 185, 2, 0.291356
87, 3, bw, attraction, a-b-da, 14, 3, 4, 36, 181, 111, 195, 120, 120, 195, 3, 1.08527
87, 3, bw, attraction, a-b-da, 14, 3, 4, 36, 181, 111, 195, 120, 120, 195, 1, 0.832841
87, 3, bw, attraction, a-b-db, 2, 2, 4, 37, 165, 90, 89, 163, 90, 165, 1, 0.70116
87, 3, bw, attraction, a-b-db, 2, 2, 4, 37, 165, 90, 89, 163, 90, 165, 2, 0.344273
87, 3, bw, attraction, a-b-da, 14, 2, 5, 1, 165, 90, 90, 165, 153, 83, 1, 7.68676
87, 3, bw, attraction, a-b-da, 14, 2, 5, 1, 165, 90, 90, 165, 153, 83, 3, 0.656324
87, 3, bw, filler, NA, 999, 999, 5, 2, 74, 100, 195, 145, 157, 192, 2, 0.924055
87, 3, bw, filler, NA, 999, 999, 5, 2, 74, 100, 195, 145, 157, 192, 1, 0.50168
87, 3, bw, filler, NA, 999, 999, 5, 3, 149, 192, 190, 97, 154, 74, 1, 0.727484
87, 3, bw, filler, NA, 999, 999, 5, 3, 149, 192, 190, 97, 154, 74, 2, 0.361334
87, 3, bw, filler, NA, 999, 999, 5, 4, 91, 97, 98, 141, 76, 163, 2, 0.744483
87, 3, bw, filler, NA, 999, 999, 5, 4, 91, 97, 98, 141, 76, 163, 1, 0.889626
87, 3, bw, filler, NA, 999, 999, 5, 5, 88, 65, 131, 82, 152, 106, 3, 0.62784
87, 3, bw, filler, NA, 999, 999, 5, 5, 88, 65, 131, 82, 152, 106, 1, 0.473635
87, 3, bw, attraction, a-b-da, 5, 2, 5, 6, 90, 165, 165, 90, 161, 88, 1, 1.11606
87, 3, bw, attraction, a-b-da, 5, 2, 5, 6, 90, 165, 165, 90, 161, 88, 2, 0.302445
87, 3, bw, attraction, a-b-db, 9, 1, 5, 7, 57, 129, 135, 60, 60, 135, 1, 1.01633
87, 3, bw, attraction, a-b-db, 9, 1, 5, 7, 57, 129, 135, 60, 60, 135, 2, 0.294493
87, 3, bw, catch, NA, 999, 999, 5, 8, 100, 155, 155, 160, 102, 93, 2, 0.816336
87, 3, bw, catch, NA, 999, 999, 5, 8, 100, 155, 155, 160, 102, 93, 3, 0.630728
87, 3, bw, filler, NA, 999, 999, 5, 9, 122, 158, 96, 104, 173, 70, 1, 0.635236
87, 3, bw, filler, NA, 999, 999, 5, 9, 122, 158, 96, 104, 173, 70, 2, 0.344947
87, 3, bw, filler, NA, 999, 999, 5, 10, 69, 181, 181, 134, 73, 56, 2, 0.59288
87, 3, bw, filler, NA, 999, 999, 5, 10, 69, 181, 181, 134, 73, 56, 3, 0.434002
87, 3, bw, attraction, a-b-db, 2, 2, 5, 11, 165, 90, 90, 165, 89, 163, 1, 0.62047
87, 3, bw, attraction, a-b-db, 2, 2, 5, 11, 165, 90, 90, 165, 89, 163, 2, 0.259083
87, 3, bw, attraction, a-b-db, 9, 2, 5, 12, 90, 165, 165, 90, 86, 157, 2, 0.758102
87, 3, bw, attraction, a-b-db, 9, 2, 5, 12, 90, 165, 165, 90, 86, 157, 1, 0.270419
87, 3, bw, filler, NA, 999, 999, 5, 13, 136, 66, 146, 70, 114, 147, 3, 0.857672
87, 3, bw, filler, NA, 999, 999, 5, 13, 136, 66, 146, 70, 114, 147, 2, 0.494246
87, 3, bw, attraction, a-b-da, 9, 2, 5, 14, 165, 90, 157, 86, 90, 165, 3, 1.42378
87, 3, bw, attraction, a-b-da, 9, 2, 5, 14, 165, 90, 157, 86, 90, 165, 2, 0.277366
87, 3, bw, attraction, a-b-db, 9, 3, 5, 15, 120, 195, 195, 120, 114, 186, 1, 1.22375
87, 3, bw, attraction, a-b-db, 9, 3, 5, 15, 120, 195, 195, 120, 114, 186, 3, 0.733375
87, 3, bw, attraction, a-b-da, 5, 3, 5, 16, 120, 195, 195, 120, 190, 117, 2, 1.84584
87, 3, bw, attraction, a-b-da, 5, 3, 5, 16, 120, 195, 195, 120, 190, 117, 3, 0.44259
87, 3, bw, attraction, a-b-da, 2, 3, 5, 17, 195, 120, 193, 119, 120, 195, 2, 0.662378
87, 3, bw, attraction, a-b-da, 2, 3, 5, 17, 195, 120, 193, 119, 120, 195, 1, 0.602749
87, 3, bw, attraction, a-b-db, 2, 1, 5, 18, 59, 134, 135, 60, 60, 135, 3, 3.76052
87, 3, bw, attraction, a-b-db, 2, 1, 5, 18, 59, 134, 135, 60, 60, 135, 2, 0.480036
87, 3, bw, catch, NA, 999, 999, 5, 19, 140, 175, 100, 95, 150, 105, 1, 0.898438
87, 3, bw, catch, NA, 999, 999, 5, 19, 140, 175, 100, 95, 150, 105, 2, 0.285463
87, 3, bw, attraction, a-b-da, 14, 3, 5, 20, 181, 111, 195, 120, 120, 195, 2, 0.799987
87, 3, bw, attraction, a-b-da, 14, 3, 5, 20, 181, 111, 195, 120, 120, 195, 1, 0.327026
87, 3, bw, filler, NA, 999, 999, 5, 21, 150, 66, 69, 104, 58, 157, 1, 3.62357
87, 3, bw, filler, NA, 999, 999, 5, 21, 150, 66, 69, 104, 58, 157, 2, 0.316351
87, 3, bw, filler, NA, 999, 999, 5, 22, 107, 133, 131, 108, 85, 117, 1, 2.09359
87, 3, bw, filler, NA, 999, 999, 5, 22, 107, 133, 131, 108, 85, 117, 3, 0.344206
87, 3, bw, attraction, a-b-db, 14, 3, 5, 23, 120, 195, 195, 120, 111, 181, 1, 1.11201
87, 3, bw, attraction, a-b-db, 14, 3, 5, 23, 120, 195, 195, 120, 111, 181, 2, 0.578358
87, 3, bw, attraction, a-b-da, 2, 1, 5, 24, 134, 59, 60, 135, 135, 60, 1, 0.832695
87, 3, bw, attraction, a-b-da, 2, 1, 5, 24, 134, 59, 60, 135, 135, 60, 2, 0.590485
87, 3, bw, attraction, a-b-da, 14, 1, 5, 25, 60, 135, 135, 60, 125, 56, 1, 1.07613
87, 3, bw, attraction, a-b-da, 14, 1, 5, 25, 60, 135, 135, 60, 125, 56, 2, 0.439803
87, 3, bw, attraction, a-b-da, 2, 2, 5, 26, 165, 90, 90, 165, 163, 89, 3, 2.55638
87, 3, bw, attraction, a-b-da, 2, 2, 5, 26, 165, 90, 90, 165, 163, 89, 2, 0.34817
87, 3, bw, catch, NA, 999, 999, 5, 27, 105, 150, 120, 75, 161, 154, 2, 0.956002
87, 3, bw, catch, NA, 999, 999, 5, 27, 105, 150, 120, 75, 161, 154, 3, 4.63675
87, 3, bw, attraction, a-b-da, 5, 1, 5, 28, 132, 58, 60, 135, 135, 60, 1, 1.57544
87, 3, bw, attraction, a-b-da, 5, 1, 5, 28, 132, 58, 60, 135, 135, 60, 2, 0.382925
87, 3, bw, attraction, a-b-db, 5, 3, 5, 29, 120, 195, 195, 120, 117, 190, 3, 1.50151
87, 3, bw, attraction, a-b-db, 5, 3, 5, 29, 120, 195, 195, 120, 117, 190, 2, 0.376327
87, 3, bw, attraction, a-b-db, 14, 1, 5, 30, 56, 125, 135, 60, 60, 135, 3, 0.966882
87, 3, bw, attraction, a-b-db, 14, 1, 5, 30, 56, 125, 135, 60, 60, 135, 2, 0.367229
87, 3, bw, attraction, a-b-da, 9, 1, 5, 31, 60, 135, 129, 57, 135, 60, 1, 0.590237
87, 3, bw, attraction, a-b-da, 9, 1, 5, 31, 60, 135, 129, 57, 135, 60, 2, 0.30145
87, 3, bw, attraction, a-b-da, 9, 3, 5, 32, 120, 195, 186, 114, 195, 120, 3, 0.991272
87, 3, bw, attraction, a-b-da, 9, 3, 5, 32, 120, 195, 186, 114, 195, 120, 2, 0.350239
87, 3, bw, attraction, a-b-db, 2, 3, 5, 33, 119, 193, 195, 120, 120, 195, 1, 0.702098
87, 3, bw, attraction, a-b-db, 2, 3, 5, 33, 119, 193, 195, 120, 120, 195, 2, 0.345204
87, 3, bw, attraction, a-b-db, 5, 1, 5, 34, 135, 60, 58, 132, 60, 135, 2, 1.30503
87, 3, bw, attraction, a-b-db, 5, 1, 5, 34, 135, 60, 58, 132, 60, 135, 3, 0.803471
87, 3, bw, attraction, a-b-db, 5, 2, 5, 35, 88, 161, 165, 90, 90, 165, 3, 0.96891
87, 3, bw, attraction, a-b-db, 5, 2, 5, 35, 88, 161, 165, 90, 90, 165, 2, 0.32128
87, 3, bw, filler, NA, 999, 999, 5, 36, 143, 104, 68, 194, 133, 138, 3, 1.01853
87, 3, bw, filler, NA, 999, 999, 5, 36, 143, 104, 68, 194, 133, 138, 2, 0.448965
87, 3, bw, attraction, a-b-db, 14, 2, 5, 37, 165, 90, 90, 165, 83, 153, 1, 0.828584
87, 3, bw, attraction, a-b-db, 14, 2, 5, 37, 165, 90, 90, 165, 83, 153, 2, 0.562314
87, 3, bw, attraction, a-b-db, 5, 2, 6, 1, 88, 161, 165, 90, 90, 165, 3, 0.929408
87, 3, bw, attraction, a-b-db, 5, 2, 6, 1, 88, 161, 165, 90, 90, 165, 2, 0.379046
87, 3, bw, attraction, a-b-da, 5, 3, 6, 2, 120, 195, 195, 120, 190, 117, 1, 1.17764
87, 3, bw, attraction, a-b-da, 5, 3, 6, 2, 120, 195, 195, 120, 190, 117, 2, 0.36118
87, 3, bw, attraction, a-b-da, 5, 2, 6, 3, 161, 88, 165, 90, 90, 165, 3, 1.25651
87, 3, bw, attraction, a-b-da, 5, 2, 6, 3, 161, 88, 165, 90, 90, 165, 2, 0.324552
87, 3, bw, attraction, a-b-da, 14, 3, 6, 4, 120, 195, 195, 120, 181, 111, 1, 1.05308
87, 3, bw, attraction, a-b-da, 14, 3, 6, 4, 120, 195, 195, 120, 181, 111, 2, 0.578089
87, 3, bw, attraction, a-b-db, 9, 1, 6, 5, 57, 129, 60, 135, 135, 60, 3, 0.896516
87, 3, bw, attraction, a-b-db, 9, 1, 6, 5, 57, 129, 60, 135, 135, 60, 2, 0.699465
87, 3, bw, attraction, a-b-db, 5, 1, 6, 6, 58, 132, 135, 60, 60, 135, 3, 1.15731
87, 3, bw, attraction, a-b-db, 5, 1, 6, 6, 58, 132, 135, 60, 60, 135, 2, 0.63758
87, 3, bw, attraction, a-b-db, 2, 1, 6, 7, 135, 60, 59, 134, 60, 135, 3, 0.665913
87, 3, bw, attraction, a-b-db, 2, 1, 6, 7, 135, 60, 59, 134, 60, 135, 1, 1.43032
87, 3, bw, filler, NA, 999, 999, 6, 8, 106, 85, 75, 162, 86, 125, 3, 0.730471
87, 3, bw, filler, NA, 999, 999, 6, 8, 106, 85, 75, 162, 86, 125, 2, 2.53221
87, 3, bw, filler, NA, 999, 999, 6, 9, 150, 182, 101, 87, 184, 191, 3, 0.763996
87, 3, bw, filler, NA, 999, 999, 6, 9, 150, 182, 101, 87, 184, 191, 2, 0.556422
87, 3, bw, attraction, a-b-da, 14, 2, 6, 10, 165, 90, 153, 83, 90, 165, 1, 0.804164
87, 3, bw, attraction, a-b-da, 14, 2, 6, 10, 165, 90, 153, 83, 90, 165, 2, 0.323307
87, 3, bw, attraction, a-b-db, 5, 3, 6, 11, 120, 195, 195, 120, 117, 190, 2, 1.56384
87, 3, bw, attraction, a-b-db, 5, 3, 6, 11, 120, 195, 195, 120, 117, 190, 3, 0.444031
87, 3, bw, attraction, a-b-db, 14, 2, 6, 12, 83, 153, 165, 90, 90, 165, 3, 0.983731
87, 3, bw, attraction, a-b-db, 14, 2, 6, 12, 83, 153, 165, 90, 90, 165, 2, 0.623425
87, 3, bw, attraction, a-b-da, 2, 3, 6, 13, 120, 195, 193, 119, 195, 120, 3, 0.675843
87, 3, bw, attraction, a-b-da, 2, 3, 6, 13, 120, 195, 193, 119, 195, 120, 2, 0.391528
87, 3, bw, attraction, a-b-db, 9, 3, 6, 14, 195, 120, 120, 195, 114, 186, 3, 2.11745
87, 3, bw, attraction, a-b-db, 9, 3, 6, 14, 195, 120, 120, 195, 114, 186, 1, 0.44742
87, 3, bw, filler, NA, 999, 999, 6, 15, 126, 184, 157, 116, 115, 128, 1, 1.81123
87, 3, bw, filler, NA, 999, 999, 6, 15, 126, 184, 157, 116, 115, 128, 3, 0.433328
87, 3, bw, catch, NA, 999, 999, 6, 16, 96, 99, 164, 91, 192, 123, 3, 0.85378
87, 3, bw, catch, NA, 999, 999, 6, 16, 96, 99, 164, 91, 192, 123, 1, 0.434767
87, 3, bw, attraction, a-b-db, 14, 3, 6, 17, 195, 120, 120, 195, 111, 181, 1, 0.847155
87, 3, bw, attraction, a-b-db, 14, 3, 6, 17, 195, 120, 120, 195, 111, 181, 2, 0.340312
87, 3, bw, attraction, a-b-db, 2, 3, 6, 18, 195, 120, 119, 193, 120, 195, 2, 0.884108
87, 3, bw, attraction, a-b-db, 2, 3, 6, 18, 195, 120, 119, 193, 120, 195, 1, 0.319832
87, 3, bw, attraction, a-b-db, 2, 2, 6, 19, 89, 163, 165, 90, 90, 165, 3, 0.832996
87, 3, bw, attraction, a-b-db, 2, 2, 6, 19, 89, 163, 165, 90, 90, 165, 2, 0.326748
87, 3, bw, filler, NA, 999, 999, 6, 20, 106, 58, 173, 163, 139, 84, 2, 0.655141
87, 3, bw, filler, NA, 999, 999, 6, 20, 106, 58, 173, 163, 139, 84, 1, 0.339733
87, 3, bw, attraction, a-b-da, 5, 1, 6, 21, 132, 58, 135, 60, 60, 135, 1, 0.836245
87, 3, bw, attraction, a-b-da, 5, 1, 6, 21, 132, 58, 135, 60, 60, 135, 2, 0.298068
87, 3, bw, attraction, a-b-da, 9, 3, 6, 22, 186, 114, 120, 195, 195, 120, 2, 0.955691
87, 3, bw, attraction, a-b-da, 9, 3, 6, 22, 186, 114, 120, 195, 195, 120, 1, 0.275979
87, 3, bw, filler, NA, 999, 999, 6, 23, 180, 108, 120, 108, 80, 186, 1, 1.37461
87, 3, bw, filler, NA, 999, 999, 6, 23, 180, 108, 120, 108, 80, 186, 2, 0.26212
87, 3, bw, attraction, a-b-da, 9, 2, 6, 24, 90, 165, 165, 90, 157, 86, 2, 0.641429
87, 3, bw, attraction, a-b-da, 9, 2, 6, 24, 90, 165, 165, 90, 157, 86, 3, 0.550366
87, 3, bw, filler, NA, 999, 999, 6, 25, 104, 82, 140, 168, 172, 157, 2, 0.574166
87, 3, bw, filler, NA, 999, 999, 6, 25, 104, 82, 140, 168, 172, 157, 1, 0.270036
87, 3, bw, attraction, a-b-db, 9, 2, 6, 26, 90, 165, 86, 157, 165, 90, 1, 0.673145
87, 3, bw, attraction, a-b-db, 9, 2, 6, 26, 90, 165, 86, 157, 165, 90, 2, 0.548935
87, 3, bw, filler, NA, 999, 999, 6, 27, 195, 69, 132, 152, 125, 137, 2, 0.876662
87, 3, bw, filler, NA, 999, 999, 6, 27, 195, 69, 132, 152, 125, 137, 1, 0.536502
87, 3, bw, attraction, a-b-db, 14, 1, 6, 28, 56, 125, 60, 135, 135, 60, 3, 2.31284
87, 3, bw, attraction, a-b-db, 14, 1, 6, 28, 56, 125, 60, 135, 135, 60, 2, 0.354745
87, 3, bw, attraction, a-b-da, 2, 2, 6, 29, 90, 165, 163, 89, 165, 90, 3, 0.770739
87, 3, bw, attraction, a-b-da, 2, 2, 6, 29, 90, 165, 163, 89, 165, 90, 2, 0.555026
87, 3, bw, filler, NA, 999, 999, 6, 30, 165, 113, 113, 137, 189, 77, 2, 0.994855
87, 3, bw, filler, NA, 999, 999, 6, 30, 165, 113, 113, 137, 189, 77, 1, 0.257663
87, 3, bw, filler, NA, 999, 999, 6, 31, 132, 58, 173, 122, 180, 129, 2, 0.564969
87, 3, bw, filler, NA, 999, 999, 6, 31, 132, 58, 173, 122, 180, 129, 1, 0.605442
87, 3, bw, catch, NA, 999, 999, 6, 32, 122, 73, 126, 129, 139, 176, 2, 0.771204
87, 3, bw, catch, NA, 999, 999, 6, 32, 122, 73, 126, 129, 139, 176, 1, 0.571511
87, 3, bw, attraction, a-b-da, 14, 1, 6, 33, 60, 135, 135, 60, 125, 56, 2, 0.682766
87, 3, bw, attraction, a-b-da, 14, 1, 6, 33, 60, 135, 135, 60, 125, 56, 3, 1.27849
87, 3, bw, attraction, a-b-da, 9, 1, 6, 34, 60, 135, 135, 60, 129, 57, 2, 0.944623
87, 3, bw, attraction, a-b-da, 9, 1, 6, 34, 60, 135, 135, 60, 129, 57, 3, 1.28164
87, 3, bw, attraction, a-b-da, 2, 1, 6, 35, 60, 135, 134, 59, 135, 60, 1, 1.3559
87, 3, bw, attraction, a-b-da, 2, 1, 6, 35, 60, 135, 134, 59, 135, 60, 3, 0.492089
87, 3, bw, catch, NA, 999, 999, 6, 36, 112, 143, 172, 143, 85, 110, 2, 1.36586
87, 3, bw, catch, NA, 999, 999, 6, 36, 112, 143, 172, 143, 85, 110, 3, 0.446013
87, 3, bw, filler, NA, 999, 999, 6, 37, 75, 60, 142, 106, 101, 175, 2, 0.569865
87, 3, bw, filler, NA, 999, 999, 6, 37, 75, 60, 142, 106, 101, 175, 1, 0.394433
87, 3, bw, attraction, a-b-da, 9, 1, 7, 1, 60, 135, 135, 60, 129, 57, 2, 0.592115
87, 3, bw, attraction, a-b-da, 9, 1, 7, 1, 60, 135, 135, 60, 129, 57, 3, 0.39937
87, 3, bw, attraction, a-b-db, 9, 3, 7, 2, 195, 120, 120, 195, 114, 186, 2, 0.725116
87, 3, bw, attraction, a-b-db, 9, 3, 7, 2, 195, 120, 120, 195, 114, 186, 1, 0.302859
87, 3, bw, filler, NA, 999, 999, 7, 3, 57, 158, 97, 120, 107, 158, 3, 0.768696
87, 3, bw, filler, NA, 999, 999, 7, 3, 57, 158, 97, 120, 107, 158, 1, 0.489104
87, 3, bw, filler, NA, 999, 999, 7, 4, 119, 90, 83, 193, 63, 82, 2, 0.723571
87, 3, bw, filler, NA, 999, 999, 7, 4, 119, 90, 83, 193, 63, 82, 3, 0.325258
87, 3, bw, attraction, a-b-db, 9, 2, 7, 5, 86, 157, 90, 165, 165, 90, 3, 2.98176
87, 3, bw, attraction, a-b-db, 9, 2, 7, 5, 86, 157, 90, 165, 165, 90, 2, 0.340867
87, 3, bw, filler, NA, 999, 999, 7, 6, 138, 126, 145, 175, 83, 158, 2, 0.572582
87, 3, bw, filler, NA, 999, 999, 7, 6, 138, 126, 145, 175, 83, 158, 3, 0.340427
87, 3, bw, attraction, a-b-da, 2, 1, 7, 7, 134, 59, 60, 135, 135, 60, 2, 0.716234
87, 3, bw, attraction, a-b-da, 2, 1, 7, 7, 134, 59, 60, 135, 135, 60, 1, 1.13473
87, 3, bw, attraction, a-b-da, 14, 1, 7, 8, 135, 60, 125, 56, 60, 135, 1, 0.975036
87, 3, bw, attraction, a-b-da, 14, 1, 7, 8, 135, 60, 125, 56, 60, 135, 2, 0.406727
87, 3, bw, catch, NA, 999, 999, 7, 9, 133, 62, 109, 146, 169, 146, 2, 0.643777
87, 3, bw, catch, NA, 999, 999, 7, 9, 133, 62, 109, 146, 169, 146, 3, 0.384857
87, 3, bw, attraction, a-b-da, 9, 2, 7, 10, 157, 86, 165, 90, 90, 165, 1, 0.871432
87, 3, bw, attraction, a-b-da, 9, 2, 7, 10, 157, 86, 165, 90, 90, 165, 2, 0.283773
87, 3, bw, attraction, a-b-da, 14, 2, 7, 11, 165, 90, 153, 83, 90, 165, 1, 0.63825
87, 3, bw, attraction, a-b-da, 14, 2, 7, 11, 165, 90, 153, 83, 90, 165, 2, 0.315386
87, 3, bw, attraction, a-b-db, 5, 2, 7, 12, 165, 90, 88, 161, 90, 165, 3, 1.07657
87, 3, bw, attraction, a-b-db, 5, 2, 7, 12, 165, 90, 88, 161, 90, 165, 1, 0.432169
87, 3, bw, catch, NA, 999, 999, 7, 13, 122, 193, 136, 119, 128, 67, 1, 0.716643
87, 3, bw, catch, NA, 999, 999, 7, 13, 122, 193, 136, 119, 128, 67, 3, 0.535114
87, 3, bw, filler, NA, 999, 999, 7, 14, 139, 167, 134, 85, 181, 136, 1, 0.83144
87, 3, bw, filler, NA, 999, 999, 7, 14, 139, 167, 134, 85, 181, 136, 2, 0.301235
87, 3, bw, attraction, a-b-db, 5, 1, 7, 15, 60, 135, 58, 132, 135, 60, 2, 0.871118
87, 3, bw, attraction, a-b-db, 5, 1, 7, 15, 60, 135, 58, 132, 135, 60, 3, 0.387493
87, 3, bw, attraction, a-b-da, 2, 3, 7, 16, 195, 120, 193, 119, 120, 195, 1, 0.570042
87, 3, bw, attraction, a-b-da, 2, 3, 7, 16, 195, 120, 193, 119, 120, 195, 2, 0.322496
87, 3, bw, filler, NA, 999, 999, 7, 17, 118, 178, 80, 141, 96, 157, 1, 0.515606
87, 3, bw, filler, NA, 999, 999, 7, 17, 118, 178, 80, 141, 96, 157, 2, 0.358063
87, 3, bw, attraction, a-b-da, 5, 2, 7, 18, 161, 88, 165, 90, 90, 165, 2, 0.797212
87, 3, bw, attraction, a-b-da, 5, 2, 7, 18, 161, 88, 165, 90, 90, 165, 1, 0.30829
87, 3, bw, filler, NA, 999, 999, 7, 19, 165, 123, 149, 63, 90, 180, 1, 0.84551
87, 3, bw, filler, NA, 999, 999, 7, 19, 165, 123, 149, 63, 90, 180, 2, 0.538529
87, 3, bw, filler, NA, 999, 999, 7, 20, 147, 141, 145, 125, 106, 99, 1, 1.24294
87, 3, bw, filler, NA, 999, 999, 7, 20, 147, 141, 145, 125, 106, 99, 3, 0.487862
87, 3, bw, attraction, a-b-da, 14, 3, 7, 21, 120, 195, 195, 120, 181, 111, 1, 0.666296
87, 3, bw, attraction, a-b-da, 14, 3, 7, 21, 120, 195, 195, 120, 181, 111, 2, 1.31079
87, 3, bw, filler, NA, 999, 999, 7, 22, 132, 77, 193, 60, 164, 180, 3, 1.18364
87, 3, bw, filler, NA, 999, 999, 7, 22, 132, 77, 193, 60, 164, 180, 2, 0.559226
87, 3, bw, filler, NA, 999, 999, 7, 23, 164, 145, 58, 111, 181, 82, 1, 0.68631
87, 3, bw, filler, NA, 999, 999, 7, 23, 164, 145, 58, 111, 181, 82, 2, 0.530101
87, 3, bw, attraction, a-b-db, 9, 1, 7, 24, 60, 135, 57, 129, 135, 60, 3, 1.45064
87, 3, bw, attraction, a-b-db, 9, 1, 7, 24, 60, 135, 57, 129, 135, 60, 2, 0.599314
87, 3, bw, filler, NA, 999, 999, 7, 25, 176, 175, 67, 132, 110, 77, 1, 0.709185
87, 3, bw, filler, NA, 999, 999, 7, 25, 176, 175, 67, 132, 110, 77, 2, 0.887575
87, 3, bw, attraction, a-b-db, 14, 1, 7, 26, 135, 60, 60, 135, 56, 125, 2, 0.665842
87, 3, bw, attraction, a-b-db, 14, 1, 7, 26, 135, 60, 60, 135, 56, 125, 1, 0.302326
87, 3, bw, attraction, a-b-db, 5, 3, 7, 27, 195, 120, 120, 195, 117, 190, 1, 0.784109
87, 3, bw, attraction, a-b-db, 5, 3, 7, 27, 195, 120, 120, 195, 117, 190, 2, 0.295887
87, 3, bw, attraction, a-b-db, 2, 2, 7, 28, 89, 163, 90, 165, 165, 90, 1, 0.609908
87, 3, bw, attraction, a-b-db, 2, 2, 7, 28, 89, 163, 90, 165, 165, 90, 2, 0.384286
87, 3, bw, attraction, a-b-db, 2, 1, 7, 29, 59, 134, 135, 60, 60, 135, 1, 0.9427
87, 3, bw, attraction, a-b-db, 2, 1, 7, 29, 59, 134, 135, 60, 60, 135, 2, 0.415647
87, 3, bw, attraction, a-b-db, 2, 3, 7, 30, 195, 120, 120, 195, 119, 193, 3, 2.0369
87, 3, bw, attraction, a-b-db, 2, 3, 7, 30, 195, 120, 120, 195, 119, 193, 1, 0.402161
87, 3, bw, attraction, a-b-da, 5, 1, 7, 31, 132, 58, 60, 135, 135, 60, 2, 5.49591
87, 3, bw, attraction, a-b-da, 5, 1, 7, 31, 132, 58, 60, 135, 135, 60, 1, 0.449509
87, 3, bw, catch, NA, 999, 999, 7, 32, 104, 151, 138, 177, 131, 64, 2, 0.549454
87, 3, bw, catch, NA, 999, 999, 7, 32, 104, 151, 138, 177, 131, 64, 3, 0.382476
87, 3, bw, attraction, a-b-db, 14, 3, 7, 33, 195, 120, 111, 181, 120, 195, 1, 0.64492
87, 3, bw, attraction, a-b-db, 14, 3, 7, 33, 195, 120, 111, 181, 120, 195, 2, 0.362092
87, 3, bw, attraction, a-b-db, 14, 2, 7, 34, 83, 153, 165, 90, 90, 165, 2, 0.737255
87, 3, bw, attraction, a-b-db, 14, 2, 7, 34, 83, 153, 165, 90, 90, 165, 3, 0.458942
87, 3, bw, attraction, a-b-da, 2, 2, 7, 35, 90, 165, 165, 90, 163, 89, 2, 0.798163
87, 3, bw, attraction, a-b-da, 2, 2, 7, 35, 90, 165, 165, 90, 163, 89, 3, 0.493348
87, 3, bw, attraction, a-b-da, 5, 3, 7, 36, 195, 120, 190, 117, 120, 195, 2, 0.551081
87, 3, bw, attraction, a-b-da, 5, 3, 7, 36, 195, 120, 190, 117, 120, 195, 1, 0.344194
87, 3, bw, attraction, a-b-da, 9, 3, 7, 37, 186, 114, 195, 120, 120, 195, 2, 0.511952
87, 3, bw, attraction, a-b-da, 9, 3, 7, 37, 186, 114, 195, 120, 120, 195, 1, 0.362472
87, 3, bw, filler, NA, 999, 999, 8, 1, 121, 150, 186, 103, 142, 74, 2, 1.20958
87, 3, bw, filler, NA, 999, 999, 8, 1, 121, 150, 186, 103, 142, 74, 3, 0.623844
87, 3, bw, filler, NA, 999, 999, 8, 2, 179, 106, 98, 141, 59, 79, 1, 0.86826
87, 3, bw, filler, NA, 999, 999, 8, 2, 179, 106, 98, 141, 59, 79, 3, 0.440653
87, 3, bw, attraction, a-b-db, 14, 3, 8, 3, 120, 195, 111, 181, 195, 120, 2, 0.580476
87, 3, bw, attraction, a-b-db, 14, 3, 8, 3, 120, 195, 111, 181, 195, 120, 3, 0.340213
87, 3, bw, filler, NA, 999, 999, 8, 4, 89, 109, 89, 161, 182, 139, 2, 0.580027
87, 3, bw, filler, NA, 999, 999, 8, 4, 89, 109, 89, 161, 182, 139, 1, 1.66032
87, 3, bw, attraction, a-b-db, 14, 1, 8, 5, 60, 135, 135, 60, 56, 125, 1, 1.9346
87, 3, bw, attraction, a-b-db, 14, 1, 8, 5, 60, 135, 135, 60, 56, 125, 2, 0.824106
87, 3, bw, attraction, a-b-da, 2, 1, 8, 6, 135, 60, 134, 59, 60, 135, 2, 1.28433
87, 3, bw, attraction, a-b-da, 2, 1, 8, 6, 135, 60, 134, 59, 60, 135, 3, 0.543949
87, 3, bw, catch, NA, 999, 999, 8, 7, 150, 105, 134, 61, 184, 131, 2, 0.631874
87, 3, bw, catch, NA, 999, 999, 8, 7, 150, 105, 134, 61, 184, 131, 1, 2.54141
87, 3, bw, attraction, a-b-da, 9, 1, 8, 8, 135, 60, 129, 57, 60, 135, 1, 0.812511
87, 3, bw, attraction, a-b-da, 9, 1, 8, 8, 135, 60, 129, 57, 60, 135, 2, 0.594987
87, 3, bw, attraction, a-b-db, 5, 3, 8, 9, 120, 195, 117, 190, 195, 120, 2, 0.920724
87, 3, bw, attraction, a-b-db, 5, 3, 8, 9, 120, 195, 117, 190, 195, 120, 3, 0.371066
87, 3, bw, catch, NA, 999, 999, 8, 10, 80, 115, 172, 143, 122, 133, 3, 0.946256
87, 3, bw, catch, NA, 999, 999, 8, 10, 80, 115, 172, 143, 122, 133, 1, 0.531371
87, 3, bw, attraction, a-b-da, 14, 3, 8, 11, 120, 195, 195, 120, 181, 111, 2, 0.603811
87, 3, bw, attraction, a-b-da, 14, 3, 8, 11, 120, 195, 195, 120, 181, 111, 1, 0.314923
87, 3, bw, attraction, a-b-da, 2, 3, 8, 12, 195, 120, 120, 195, 193, 119, 1, 0.571981
87, 3, bw, attraction, a-b-da, 2, 3, 8, 12, 195, 120, 120, 195, 193, 119, 2, 0.251897
87, 3, bw, attraction, a-b-da, 5, 1, 8, 13, 60, 135, 135, 60, 132, 58, 2, 0.703637
87, 3, bw, attraction, a-b-da, 5, 1, 8, 13, 60, 135, 135, 60, 132, 58, 1, 0.586699
87, 3, bw, filler, NA, 999, 999, 8, 14, 165, 156, 58, 106, 172, 181, 1, 0.697201
87, 3, bw, filler, NA, 999, 999, 8, 14, 165, 156, 58, 106, 172, 181, 2, 0.508308
87, 3, bw, filler, NA, 999, 999, 8, 15, 124, 96, 111, 64, 114, 98, 1, 0.965357
87, 3, bw, filler, NA, 999, 999, 8, 15, 124, 96, 111, 64, 114, 98, 2, 0.39773
87, 3, bw, attraction, a-b-db, 2, 3, 8, 16, 195, 120, 119, 193, 120, 195, 1, 1.18751
87, 3, bw, attraction, a-b-db, 2, 3, 8, 16, 195, 120, 119, 193, 120, 195, 2, 0.419109
87, 3, bw, attraction, a-b-db, 14, 2, 8, 17, 165, 90, 90, 165, 83, 153, 1, 1.36829
87, 3, bw, attraction, a-b-db, 14, 2, 8, 17, 165, 90, 90, 165, 83, 153, 2, 0.592651
87, 3, bw, attraction, a-b-db, 2, 2, 8, 18, 90, 165, 89, 163, 165, 90, 1, 0.974263
87, 3, bw, attraction, a-b-db, 2, 2, 8, 18, 90, 165, 89, 163, 165, 90, 2, 0.398036
87, 3, bw, attraction, a-b-da, 5, 3, 8, 19, 190, 117, 195, 120, 120, 195, 1, 1.66779
87, 3, bw, attraction, a-b-da, 5, 3, 8, 19, 190, 117, 195, 120, 120, 195, 2, 0.719844
87, 3, bw, attraction, a-b-db, 9, 3, 8, 20, 120, 195, 114, 186, 195, 120, 1, 1.08091
87, 3, bw, attraction, a-b-db, 9, 3, 8, 20, 120, 195, 114, 186, 195, 120, 2, 0.684547
87, 3, bw, attraction, a-b-da, 2, 2, 8, 21, 90, 165, 165, 90, 163, 89, 1, 0.574901
87, 3, bw, attraction, a-b-da, 2, 2, 8, 21, 90, 165, 165, 90, 163, 89, 2, 0.286877
87, 3, bw, filler, NA, 999, 999, 8, 22, 64, 88, 151, 69, 99, 189, 3, 0.785344
87, 3, bw, filler, NA, 999, 999, 8, 22, 64, 88, 151, 69, 99, 189, 1, 1.0171
87, 3, bw, filler, NA, 999, 999, 8, 23, 65, 192, 85, 122, 89, 144, 3, 1.30196
87, 3, bw, filler, NA, 999, 999, 8, 23, 65, 192, 85, 122, 89, 144, 2, 0.640815
87, 3, bw, attraction, a-b-db, 2, 1, 8, 24, 60, 135, 59, 134, 135, 60, 2, 0.732687
87, 3, bw, attraction, a-b-db, 2, 1, 8, 24, 60, 135, 59, 134, 135, 60, 1, 0.318378
87, 3, bw, attraction, a-b-db, 9, 2, 8, 25, 165, 90, 90, 165, 86, 157, 2, 0.599505
87, 3, bw, attraction, a-b-db, 9, 2, 8, 25, 165, 90, 90, 165, 86, 157, 1, 0.446651
87, 3, bw, attraction, a-b-da, 14, 1, 8, 26, 125, 56, 135, 60, 60, 135, 1, 1.25848
87, 3, bw, attraction, a-b-da, 14, 1, 8, 26, 125, 56, 135, 60, 60, 135, 2, 0.470701
87, 3, bw, attraction, a-b-da, 5, 2, 8, 27, 90, 165, 161, 88, 165, 90, 1, 0.585814
87, 3, bw, attraction, a-b-da, 5, 2, 8, 27, 90, 165, 161, 88, 165, 90, 2, 0.417601
87, 3, bw, filler, NA, 999, 999, 8, 28, 127, 146, 195, 60, 134, 141, 1, 0.598664
87, 3, bw, filler, NA, 999, 999, 8, 28, 127, 146, 195, 60, 134, 141, 2, 0.637869
87, 3, bw, attraction, a-b-db, 5, 2, 8, 29, 165, 90, 90, 165, 88, 161, 1, 0.690365
87, 3, bw, attraction, a-b-db, 5, 2, 8, 29, 165, 90, 90, 165, 88, 161, 2, 0.421444
87, 3, bw, filler, NA, 999, 999, 8, 30, 125, 172, 109, 170, 104, 191, 1, 0.474531
87, 3, bw, filler, NA, 999, 999, 8, 30, 125, 172, 109, 170, 104, 191, 2, 0.366288
87, 3, bw, attraction, a-b-da, 9, 2, 8, 31, 157, 86, 90, 165, 165, 90, 1, 0.837529
87, 3, bw, attraction, a-b-da, 9, 2, 8, 31, 157, 86, 90, 165, 165, 90, 2, 0.362563
87, 3, bw, attraction, a-b-db, 9, 1, 8, 32, 57, 129, 60, 135, 135, 60, 1, 0.77777
87, 3, bw, attraction, a-b-db, 9, 1, 8, 32, 57, 129, 60, 135, 135, 60, 2, 0.345391
87, 3, bw, catch, NA, 999, 999, 8, 33, 170, 145, 87, 108, 149, 106, 1, 0.55322
87, 3, bw, catch, NA, 999, 999, 8, 33, 170, 145, 87, 108, 149, 106, 2, 0.874451
87, 3, bw, attraction, a-b-db, 5, 1, 8, 34, 58, 132, 60, 135, 135, 60, 1, 3.09276
87, 3, bw, attraction, a-b-db, 5, 1, 8, 34, 58, 132, 60, 135, 135, 60, 2, 0.583162
87, 3, bw, attraction, a-b-da, 9, 3, 8, 35, 195, 120, 186, 114, 120, 195, 3, 1.57355
87, 3, bw, attraction, a-b-da, 9, 3, 8, 35, 195, 120, 186, 114, 120, 195, 2, 0.525017
87, 3, bw, filler, NA, 999, 999, 8, 36, 92, 87, 109, 70, 139, 131, 3, 0.701417
87, 3, bw, filler, NA, 999, 999, 8, 36, 92, 87, 109, 70, 139, 131, 2, 0.704458
87, 3, bw, attraction, a-b-da, 14, 2, 8, 37, 90, 165, 165, 90, 153, 83, 1, 0.730281
87, 3, bw, attraction, a-b-da, 14, 2, 8, 37, 90, 165, 165, 90, 153, 83, 2, 0.395983
