sub_n, computer_n, bw_cond, effect, set, distance, diag, block_n, trial_n, h1, w1, h2, w2, h3, w3, choice, rt 
98, 3, wb, practice, NA, 999, 999, 0, 1, 159, 113, 189, 122, 174, 128, 1, 1.85187
98, 3, wb, practice, NA, 999, 999, 0, 1, 159, 113, 189, 122, 174, 128, 3, 1.34014
98, 3, wb, practice, NA, 999, 999, 0, 2, 68, 131, 141, 160, 58, 160, 1, 4.71272
98, 3, wb, practice, NA, 999, 999, 0, 2, 68, 131, 141, 160, 58, 160, 2, 1.12875
98, 3, wb, practice, NA, 999, 999, 0, 3, 164, 152, 142, 138, 121, 88, 3, 1.9584
98, 3, wb, practice, NA, 999, 999, 0, 3, 164, 152, 142, 138, 121, 88, 1, 1.05737
98, 3, wb, attraction, a-b-db, 14, 2, 1, 1, 90, 165, 165, 90, 83, 153, 3, 4.20265
98, 3, wb, attraction, a-b-db, 14, 2, 1, 1, 90, 165, 165, 90, 83, 153, 1, 1.12868
98, 3, wb, filler, NA, 999, 999, 1, 2, 173, 127, 183, 158, 69, 132, 3, 1.00899
98, 3, wb, filler, NA, 999, 999, 1, 2, 173, 127, 183, 158, 69, 132, 2, 0.76734
98, 3, wb, attraction, a-b-da, 2, 1, 1, 3, 134, 59, 60, 135, 135, 60, 1, 2.66224
98, 3, wb, attraction, a-b-da, 2, 1, 1, 3, 134, 59, 60, 135, 135, 60, 3, 3.06614
98, 3, wb, attraction, a-b-db, 5, 2, 1, 4, 90, 165, 165, 90, 88, 161, 2, 7.44442
98, 3, wb, attraction, a-b-db, 5, 2, 1, 4, 90, 165, 165, 90, 88, 161, 1, 0.911517
98, 3, wb, attraction, a-b-db, 5, 1, 1, 5, 135, 60, 58, 132, 60, 135, 3, 7.95245
98, 3, wb, attraction, a-b-db, 5, 1, 1, 5, 135, 60, 58, 132, 60, 135, 1, 3.16731
98, 3, wb, attraction, a-b-db, 5, 3, 1, 6, 117, 190, 120, 195, 195, 120, 3, 3.79744
98, 3, wb, attraction, a-b-db, 5, 3, 1, 6, 117, 190, 120, 195, 195, 120, 2, 1.18762
98, 3, wb, attraction, a-b-da, 9, 3, 1, 7, 186, 114, 120, 195, 195, 120, 1, 2.46585
98, 3, wb, attraction, a-b-da, 9, 3, 1, 7, 186, 114, 120, 195, 195, 120, 3, 2.6537
98, 3, wb, attraction, a-b-da, 2, 2, 1, 8, 163, 89, 90, 165, 165, 90, 3, 3.64079
98, 3, wb, attraction, a-b-da, 2, 2, 1, 8, 163, 89, 90, 165, 165, 90, 2, 0.604969
98, 3, wb, attraction, a-b-db, 2, 2, 1, 9, 90, 165, 89, 163, 165, 90, 3, 6.89894
98, 3, wb, attraction, a-b-db, 2, 2, 1, 9, 90, 165, 89, 163, 165, 90, 2, 2.32401
98, 3, wb, filler, NA, 999, 999, 1, 10, 181, 91, 186, 63, 94, 181, 2, 3.59595
98, 3, wb, filler, NA, 999, 999, 1, 10, 181, 91, 186, 63, 94, 181, 3, 1.35391
98, 3, wb, filler, NA, 999, 999, 1, 11, 70, 169, 131, 85, 125, 123, 2, 2.02552
98, 3, wb, filler, NA, 999, 999, 1, 11, 70, 169, 131, 85, 125, 123, 3, 0.870825
98, 3, wb, filler, NA, 999, 999, 1, 12, 89, 171, 114, 95, 142, 115, 2, 2.84177
98, 3, wb, filler, NA, 999, 999, 1, 12, 89, 171, 114, 95, 142, 115, 3, 2.72633
98, 3, wb, attraction, a-b-da, 14, 3, 1, 13, 181, 111, 120, 195, 195, 120, 1, 1.35001
98, 3, wb, attraction, a-b-da, 14, 3, 1, 13, 181, 111, 120, 195, 195, 120, 2, 0.462884
98, 3, wb, attraction, a-b-da, 14, 2, 1, 14, 153, 83, 165, 90, 90, 165, 1, 1.47418
98, 3, wb, attraction, a-b-da, 14, 2, 1, 14, 153, 83, 165, 90, 90, 165, 3, 2.54962
98, 3, wb, attraction, a-b-db, 9, 2, 1, 15, 86, 157, 165, 90, 90, 165, 1, 2.74078
98, 3, wb, attraction, a-b-db, 9, 2, 1, 15, 86, 157, 165, 90, 90, 165, 3, 0.477139
98, 3, wb, catch, NA, 999, 999, 1, 16, 127, 128, 91, 104, 169, 146, 2, 0.831513
98, 3, wb, catch, NA, 999, 999, 1, 16, 127, 128, 91, 104, 169, 146, 3, 0.605441
98, 3, wb, attraction, a-b-da, 5, 2, 1, 17, 165, 90, 90, 165, 161, 88, 3, 2.66708
98, 3, wb, attraction, a-b-da, 5, 2, 1, 17, 165, 90, 90, 165, 161, 88, 2, 0.742849
98, 3, wb, attraction, a-b-da, 14, 1, 1, 18, 135, 60, 125, 56, 60, 135, 2, 3.44661
98, 3, wb, attraction, a-b-da, 14, 1, 1, 18, 135, 60, 125, 56, 60, 135, 1, 2.13881
98, 3, wb, catch, NA, 999, 999, 1, 19, 128, 127, 179, 136, 115, 80, 3, 1.11476
98, 3, wb, catch, NA, 999, 999, 1, 19, 128, 127, 179, 136, 115, 80, 2, 0.388998
98, 3, wb, attraction, a-b-db, 14, 3, 1, 20, 111, 181, 120, 195, 195, 120, 1, 2.90752
98, 3, wb, attraction, a-b-db, 14, 3, 1, 20, 111, 181, 120, 195, 195, 120, 2, 0.56528
98, 3, wb, attraction, a-b-db, 9, 1, 1, 21, 57, 129, 60, 135, 135, 60, 1, 4.32433
98, 3, wb, attraction, a-b-db, 9, 1, 1, 21, 57, 129, 60, 135, 135, 60, 2, 0.428995
98, 3, wb, filler, NA, 999, 999, 1, 22, 87, 109, 117, 137, 186, 129, 1, 1.30545
98, 3, wb, filler, NA, 999, 999, 1, 22, 87, 109, 117, 137, 186, 129, 3, 0.587759
98, 3, wb, filler, NA, 999, 999, 1, 23, 82, 68, 90, 65, 61, 79, 3, 2.75406
98, 3, wb, filler, NA, 999, 999, 1, 23, 82, 68, 90, 65, 61, 79, 2, 0.84267
98, 3, wb, attraction, a-b-da, 5, 3, 1, 24, 120, 195, 195, 120, 190, 117, 1, 12.3022
98, 3, wb, attraction, a-b-da, 5, 3, 1, 24, 120, 195, 195, 120, 190, 117, 2, 0.965764
98, 3, wb, filler, NA, 999, 999, 1, 25, 70, 121, 123, 131, 118, 140, 1, 0.948594
98, 3, wb, filler, NA, 999, 999, 1, 25, 70, 121, 123, 131, 118, 140, 3, 1.2697
98, 3, wb, attraction, a-b-da, 2, 3, 1, 26, 195, 120, 193, 119, 120, 195, 2, 9.00056
98, 3, wb, attraction, a-b-da, 2, 3, 1, 26, 195, 120, 193, 119, 120, 195, 3, 1.80507
98, 3, wb, filler, NA, 999, 999, 1, 27, 150, 158, 194, 161, 176, 188, 1, 2.03436
98, 3, wb, filler, NA, 999, 999, 1, 27, 150, 158, 194, 161, 176, 188, 3, 1.78378
98, 3, wb, attraction, a-b-da, 9, 2, 1, 28, 165, 90, 157, 86, 90, 165, 1, 5.2218
98, 3, wb, attraction, a-b-da, 9, 2, 1, 28, 165, 90, 157, 86, 90, 165, 3, 0.6269
98, 3, wb, filler, NA, 999, 999, 1, 29, 110, 174, 137, 60, 83, 78, 3, 2.3112
98, 3, wb, filler, NA, 999, 999, 1, 29, 110, 174, 137, 60, 83, 78, 1, 0.729196
98, 3, wb, catch, NA, 999, 999, 1, 30, 178, 137, 94, 161, 73, 122, 3, 1.57757
98, 3, wb, catch, NA, 999, 999, 1, 30, 178, 137, 94, 161, 73, 122, 1, 1.07302
98, 3, wb, attraction, a-b-db, 2, 1, 1, 31, 60, 135, 135, 60, 59, 134, 1, 1.94002
98, 3, wb, attraction, a-b-db, 2, 1, 1, 31, 60, 135, 135, 60, 59, 134, 3, 0.45268
98, 3, wb, attraction, a-b-db, 2, 3, 1, 32, 195, 120, 120, 195, 119, 193, 3, 3.73651
98, 3, wb, attraction, a-b-db, 2, 3, 1, 32, 195, 120, 120, 195, 119, 193, 2, 0.497312
98, 3, wb, attraction, a-b-da, 9, 1, 1, 33, 135, 60, 129, 57, 60, 135, 1, 3.435
98, 3, wb, attraction, a-b-da, 9, 1, 1, 33, 135, 60, 129, 57, 60, 135, 3, 2.59207
98, 3, wb, attraction, a-b-da, 5, 1, 1, 34, 135, 60, 132, 58, 60, 135, 2, 1.90114
98, 3, wb, attraction, a-b-da, 5, 1, 1, 34, 135, 60, 132, 58, 60, 135, 3, 0.807812
98, 3, wb, attraction, a-b-db, 9, 3, 1, 35, 195, 120, 120, 195, 114, 186, 1, 3.41275
98, 3, wb, attraction, a-b-db, 9, 3, 1, 35, 195, 120, 120, 195, 114, 186, 2, 0.666434
98, 3, wb, filler, NA, 999, 999, 1, 36, 182, 187, 59, 162, 166, 105, 2, 1.26155
98, 3, wb, filler, NA, 999, 999, 1, 36, 182, 187, 59, 162, 166, 105, 1, 0.497706
98, 3, wb, attraction, a-b-db, 14, 1, 1, 37, 135, 60, 60, 135, 56, 125, 3, 2.43549
98, 3, wb, attraction, a-b-db, 14, 1, 1, 37, 135, 60, 60, 135, 56, 125, 2, 1.22472
98, 3, wb, filler, NA, 999, 999, 2, 1, 124, 82, 61, 70, 124, 118, 2, 0.940965
98, 3, wb, filler, NA, 999, 999, 2, 1, 124, 82, 61, 70, 124, 118, 3, 0.718022
98, 3, wb, attraction, a-b-db, 5, 2, 2, 2, 90, 165, 88, 161, 165, 90, 2, 3.46305
98, 3, wb, attraction, a-b-db, 5, 2, 2, 2, 90, 165, 88, 161, 165, 90, 1, 0.618571
98, 3, wb, filler, NA, 999, 999, 2, 3, 156, 89, 169, 99, 73, 151, 3, 2.61558
98, 3, wb, filler, NA, 999, 999, 2, 3, 156, 89, 169, 99, 73, 151, 2, 0.453469
98, 3, wb, attraction, a-b-da, 5, 3, 2, 4, 190, 117, 195, 120, 120, 195, 1, 3.35337
98, 3, wb, attraction, a-b-da, 5, 3, 2, 4, 190, 117, 195, 120, 120, 195, 2, 3.52159
98, 3, wb, attraction, a-b-db, 2, 1, 2, 5, 59, 134, 135, 60, 60, 135, 2, 4.7218
98, 3, wb, attraction, a-b-db, 2, 1, 2, 5, 59, 134, 135, 60, 60, 135, 3, 1.52217
98, 3, wb, attraction, a-b-da, 5, 2, 2, 6, 165, 90, 90, 165, 161, 88, 3, 3.14704
98, 3, wb, attraction, a-b-da, 5, 2, 2, 6, 165, 90, 90, 165, 161, 88, 1, 1.49928
98, 3, wb, catch, NA, 999, 999, 2, 7, 130, 65, 127, 128, 148, 167, 1, 1.5247
98, 3, wb, catch, NA, 999, 999, 2, 7, 130, 65, 127, 128, 148, 167, 3, 0.574317
98, 3, wb, attraction, a-b-db, 5, 1, 2, 8, 58, 132, 60, 135, 135, 60, 1, 4.82868
98, 3, wb, attraction, a-b-db, 5, 1, 2, 8, 58, 132, 60, 135, 135, 60, 2, 0.777163
98, 3, wb, filler, NA, 999, 999, 2, 9, 99, 147, 139, 79, 104, 169, 2, 1.39159
98, 3, wb, filler, NA, 999, 999, 2, 9, 99, 147, 139, 79, 104, 169, 3, 0.542489
98, 3, wb, filler, NA, 999, 999, 2, 10, 95, 143, 104, 108, 171, 88, 2, 3.27038
98, 3, wb, filler, NA, 999, 999, 2, 10, 95, 143, 104, 108, 171, 88, 3, 1.66578
98, 3, wb, attraction, a-b-da, 9, 3, 2, 11, 120, 195, 195, 120, 186, 114, 3, 1.41256
98, 3, wb, attraction, a-b-da, 9, 3, 2, 11, 120, 195, 195, 120, 186, 114, 2, 2.97076
98, 3, wb, attraction, a-b-da, 9, 2, 2, 12, 165, 90, 157, 86, 90, 165, 2, 2.0491
98, 3, wb, attraction, a-b-da, 9, 2, 2, 12, 165, 90, 157, 86, 90, 165, 3, 0.389776
98, 3, wb, attraction, a-b-db, 2, 2, 2, 13, 90, 165, 165, 90, 89, 163, 2, 11.9162
98, 3, wb, attraction, a-b-db, 2, 2, 2, 13, 90, 165, 165, 90, 89, 163, 3, 1.05913
98, 3, wb, filler, NA, 999, 999, 2, 14, 171, 184, 76, 138, 61, 159, 2, 5.09414
98, 3, wb, filler, NA, 999, 999, 2, 14, 171, 184, 76, 138, 61, 159, 1, 0.687791
98, 3, wb, filler, NA, 999, 999, 2, 15, 164, 71, 84, 120, 97, 113, 1, 2.50625
98, 3, wb, filler, NA, 999, 999, 2, 15, 164, 71, 84, 120, 97, 113, 3, 1.05201
98, 3, wb, attraction, a-b-db, 14, 1, 2, 16, 56, 125, 60, 135, 135, 60, 1, 1.31965
98, 3, wb, attraction, a-b-db, 14, 1, 2, 16, 56, 125, 60, 135, 135, 60, 2, 0.969897
98, 3, wb, attraction, a-b-db, 5, 3, 2, 17, 195, 120, 117, 190, 120, 195, 1, 1.97694
98, 3, wb, attraction, a-b-db, 5, 3, 2, 17, 195, 120, 117, 190, 120, 195, 3, 2.4643
98, 3, wb, attraction, a-b-da, 14, 2, 2, 18, 90, 165, 153, 83, 165, 90, 2, 2.29084
98, 3, wb, attraction, a-b-da, 14, 2, 2, 18, 90, 165, 153, 83, 165, 90, 1, 0.741372
98, 3, wb, attraction, a-b-da, 5, 1, 2, 19, 135, 60, 132, 58, 60, 135, 1, 1.52504
98, 3, wb, attraction, a-b-da, 5, 1, 2, 19, 135, 60, 132, 58, 60, 135, 3, 1.19056
98, 3, wb, attraction, a-b-db, 9, 1, 2, 20, 60, 135, 135, 60, 57, 129, 1, 1.63615
98, 3, wb, attraction, a-b-db, 9, 1, 2, 20, 60, 135, 135, 60, 57, 129, 2, 1.60967
98, 3, wb, filler, NA, 999, 999, 2, 21, 143, 90, 162, 193, 167, 163, 1, 0.782398
98, 3, wb, filler, NA, 999, 999, 2, 21, 143, 90, 162, 193, 167, 163, 2, 1.00612
98, 3, wb, catch, NA, 999, 999, 2, 22, 157, 158, 111, 144, 77, 118, 3, 1.61173
98, 3, wb, catch, NA, 999, 999, 2, 22, 157, 158, 111, 144, 77, 118, 1, 0.529889
98, 3, wb, attraction, a-b-db, 14, 2, 2, 23, 90, 165, 83, 153, 165, 90, 3, 5.1383
98, 3, wb, attraction, a-b-db, 14, 2, 2, 23, 90, 165, 83, 153, 165, 90, 1, 0.36265
98, 3, wb, attraction, a-b-da, 14, 1, 2, 24, 125, 56, 60, 135, 135, 60, 1, 0.857883
98, 3, wb, attraction, a-b-da, 14, 1, 2, 24, 125, 56, 60, 135, 135, 60, 2, 0.902313
98, 3, wb, attraction, a-b-da, 2, 1, 2, 25, 134, 59, 135, 60, 60, 135, 1, 4.8398
98, 3, wb, attraction, a-b-da, 2, 1, 2, 25, 134, 59, 135, 60, 60, 135, 2, 1.13973
98, 3, wb, attraction, a-b-db, 2, 3, 2, 26, 120, 195, 119, 193, 195, 120, 2, 3.55588
98, 3, wb, attraction, a-b-db, 2, 3, 2, 26, 120, 195, 119, 193, 195, 120, 1, 0.763415
98, 3, wb, attraction, a-b-da, 9, 1, 2, 27, 60, 135, 129, 57, 135, 60, 2, 1.38636
98, 3, wb, attraction, a-b-da, 9, 1, 2, 27, 60, 135, 129, 57, 135, 60, 1, 0.93805
98, 3, wb, attraction, a-b-da, 2, 3, 2, 28, 120, 195, 195, 120, 193, 119, 2, 1.41836
98, 3, wb, attraction, a-b-da, 2, 3, 2, 28, 120, 195, 195, 120, 193, 119, 1, 1.53653
98, 3, wb, attraction, a-b-db, 9, 2, 2, 29, 86, 157, 165, 90, 90, 165, 1, 1.06464
98, 3, wb, attraction, a-b-db, 9, 2, 2, 29, 86, 157, 165, 90, 90, 165, 3, 0.74094
98, 3, wb, attraction, a-b-da, 14, 3, 2, 30, 195, 120, 181, 111, 120, 195, 2, 1.59669
98, 3, wb, attraction, a-b-da, 14, 3, 2, 30, 195, 120, 181, 111, 120, 195, 3, 0.443704
98, 3, wb, attraction, a-b-da, 2, 2, 2, 31, 90, 165, 163, 89, 165, 90, 2, 1.83922
98, 3, wb, attraction, a-b-da, 2, 2, 2, 31, 90, 165, 163, 89, 165, 90, 1, 1.02017
98, 3, wb, filler, NA, 999, 999, 2, 32, 179, 80, 75, 80, 100, 176, 2, 0.720916
98, 3, wb, filler, NA, 999, 999, 2, 32, 179, 80, 75, 80, 100, 176, 3, 0.971385
98, 3, wb, attraction, a-b-db, 14, 3, 2, 33, 195, 120, 111, 181, 120, 195, 2, 2.50637
98, 3, wb, attraction, a-b-db, 14, 3, 2, 33, 195, 120, 111, 181, 120, 195, 3, 0.644252
98, 3, wb, filler, NA, 999, 999, 2, 34, 162, 125, 195, 73, 172, 140, 2, 3.25598
98, 3, wb, filler, NA, 999, 999, 2, 34, 162, 125, 195, 73, 172, 140, 3, 0.451474
98, 3, wb, filler, NA, 999, 999, 2, 35, 78, 183, 133, 115, 108, 156, 2, 6.25541
98, 3, wb, filler, NA, 999, 999, 2, 35, 78, 183, 133, 115, 108, 156, 3, 0.85876
98, 3, wb, catch, NA, 999, 999, 2, 36, 190, 125, 96, 99, 163, 92, 2, 1.48581
98, 3, wb, catch, NA, 999, 999, 2, 36, 190, 125, 96, 99, 163, 92, 1, 0.593319
98, 3, wb, attraction, a-b-db, 9, 3, 2, 37, 114, 186, 120, 195, 195, 120, 1, 6.14302
98, 3, wb, attraction, a-b-db, 9, 3, 2, 37, 114, 186, 120, 195, 195, 120, 2, 0.990412
98, 3, wb, attraction, a-b-db, 14, 2, 3, 1, 90, 165, 165, 90, 83, 153, 3, 1.40409
98, 3, wb, attraction, a-b-db, 14, 2, 3, 1, 90, 165, 165, 90, 83, 153, 1, 0.51481
98, 3, wb, attraction, a-b-db, 9, 1, 3, 2, 60, 135, 135, 60, 57, 129, 3, 2.82803
98, 3, wb, attraction, a-b-db, 9, 1, 3, 2, 60, 135, 135, 60, 57, 129, 2, 1.50514
98, 3, wb, attraction, a-b-db, 14, 3, 3, 3, 111, 181, 195, 120, 120, 195, 1, 4.87458
98, 3, wb, attraction, a-b-db, 14, 3, 3, 3, 111, 181, 195, 120, 120, 195, 3, 0.541005
98, 3, wb, filler, NA, 999, 999, 3, 4, 152, 175, 59, 180, 56, 65, 3, 1.17275
98, 3, wb, filler, NA, 999, 999, 3, 4, 152, 175, 59, 180, 56, 65, 1, 0.356462
98, 3, wb, attraction, a-b-da, 5, 2, 3, 5, 165, 90, 90, 165, 161, 88, 1, 1.93149
98, 3, wb, attraction, a-b-da, 5, 2, 3, 5, 165, 90, 90, 165, 161, 88, 2, 0.3729
98, 3, wb, filler, NA, 999, 999, 3, 6, 179, 110, 132, 145, 63, 189, 3, 3.41201
98, 3, wb, filler, NA, 999, 999, 3, 6, 179, 110, 132, 145, 63, 189, 1, 2.92169
98, 3, wb, attraction, a-b-db, 9, 3, 3, 7, 195, 120, 120, 195, 114, 186, 3, 2.56999
98, 3, wb, attraction, a-b-db, 9, 3, 3, 7, 195, 120, 120, 195, 114, 186, 1, 0.458026
98, 3, wb, filler, NA, 999, 999, 3, 8, 83, 94, 181, 108, 168, 102, 1, 0.844948
98, 3, wb, filler, NA, 999, 999, 3, 8, 83, 94, 181, 108, 168, 102, 2, 1.87401
98, 3, wb, filler, NA, 999, 999, 3, 9, 180, 160, 93, 190, 121, 123, 3, 3.98819
98, 3, wb, filler, NA, 999, 999, 3, 9, 180, 160, 93, 190, 121, 123, 1, 0.514842
98, 3, wb, filler, NA, 999, 999, 3, 10, 169, 189, 96, 128, 148, 171, 2, 0.74797
98, 3, wb, filler, NA, 999, 999, 3, 10, 169, 189, 96, 128, 148, 171, 1, 0.452941
98, 3, wb, filler, NA, 999, 999, 3, 11, 61, 120, 131, 124, 63, 126, 1, 0.864792
98, 3, wb, filler, NA, 999, 999, 3, 11, 61, 120, 131, 124, 63, 126, 2, 0.325042
98, 3, wb, attraction, a-b-db, 2, 2, 3, 12, 90, 165, 89, 163, 165, 90, 2, 1.6456
98, 3, wb, attraction, a-b-db, 2, 2, 3, 12, 90, 165, 89, 163, 165, 90, 1, 0.906431
98, 3, wb, filler, NA, 999, 999, 3, 13, 170, 114, 72, 171, 184, 88, 3, 1.25212
98, 3, wb, filler, NA, 999, 999, 3, 13, 170, 114, 72, 171, 184, 88, 1, 0.689022
98, 3, wb, attraction, a-b-da, 14, 1, 3, 14, 60, 135, 125, 56, 135, 60, 1, 2.50741
98, 3, wb, attraction, a-b-da, 14, 1, 3, 14, 60, 135, 125, 56, 135, 60, 3, 0.565297
98, 3, wb, attraction, a-b-da, 5, 3, 3, 15, 190, 117, 195, 120, 120, 195, 1, 1.82034
98, 3, wb, attraction, a-b-da, 5, 3, 3, 15, 190, 117, 195, 120, 120, 195, 3, 1.12248
98, 3, wb, attraction, a-b-da, 2, 1, 3, 16, 135, 60, 134, 59, 60, 135, 1, 3.51548
98, 3, wb, attraction, a-b-da, 2, 1, 3, 16, 135, 60, 134, 59, 60, 135, 3, 0.66882
98, 3, wb, filler, NA, 999, 999, 3, 17, 112, 177, 89, 181, 116, 195, 2, 2.00805
98, 3, wb, filler, NA, 999, 999, 3, 17, 112, 177, 89, 181, 116, 195, 3, 0.42193
98, 3, wb, attraction, a-b-da, 14, 3, 3, 18, 181, 111, 120, 195, 195, 120, 1, 1.15516
98, 3, wb, attraction, a-b-da, 14, 3, 3, 18, 181, 111, 120, 195, 195, 120, 2, 2.37145
98, 3, wb, attraction, a-b-da, 9, 1, 3, 19, 129, 57, 60, 135, 135, 60, 1, 0.898046
98, 3, wb, attraction, a-b-da, 9, 1, 3, 19, 129, 57, 60, 135, 135, 60, 2, 0.685076
98, 3, wb, attraction, a-b-da, 14, 2, 3, 20, 153, 83, 165, 90, 90, 165, 1, 3.82345
98, 3, wb, attraction, a-b-da, 14, 2, 3, 20, 153, 83, 165, 90, 90, 165, 3, 1.00421
98, 3, wb, filler, NA, 999, 999, 3, 21, 86, 127, 174, 94, 111, 147, 1, 2.46575
98, 3, wb, filler, NA, 999, 999, 3, 21, 86, 127, 174, 94, 111, 147, 2, 2.19764
98, 3, wb, catch, NA, 999, 999, 3, 22, 131, 64, 181, 134, 145, 110, 1, 0.786929
98, 3, wb, catch, NA, 999, 999, 3, 22, 131, 64, 181, 134, 145, 110, 2, 0.546631
98, 3, wb, attraction, a-b-db, 2, 1, 3, 23, 60, 135, 135, 60, 59, 134, 3, 1.53036
98, 3, wb, attraction, a-b-db, 2, 1, 3, 23, 60, 135, 135, 60, 59, 134, 2, 1.37194
98, 3, wb, catch, NA, 999, 999, 3, 24, 165, 90, 163, 152, 63, 132, 3, 0.938756
98, 3, wb, catch, NA, 999, 999, 3, 24, 165, 90, 163, 152, 63, 132, 2, 0.275736
98, 3, wb, attraction, a-b-db, 14, 1, 3, 25, 60, 135, 56, 125, 135, 60, 2, 0.966245
98, 3, wb, attraction, a-b-db, 14, 1, 3, 25, 60, 135, 56, 125, 135, 60, 3, 1.21468
98, 3, wb, attraction, a-b-db, 9, 2, 3, 26, 86, 157, 90, 165, 165, 90, 1, 1.0916
98, 3, wb, attraction, a-b-db, 9, 2, 3, 26, 86, 157, 90, 165, 165, 90, 2, 1.2625
98, 3, wb, filler, NA, 999, 999, 3, 27, 166, 148, 132, 110, 61, 161, 3, 1.1374
98, 3, wb, filler, NA, 999, 999, 3, 27, 166, 148, 132, 110, 61, 161, 1, 0.65092
98, 3, wb, attraction, a-b-db, 5, 3, 3, 28, 117, 190, 120, 195, 195, 120, 3, 1.11871
98, 3, wb, attraction, a-b-db, 5, 3, 3, 28, 117, 190, 120, 195, 195, 120, 2, 0.688915
98, 3, wb, attraction, a-b-db, 5, 1, 3, 29, 60, 135, 58, 132, 135, 60, 2, 0.955362
98, 3, wb, attraction, a-b-db, 5, 1, 3, 29, 60, 135, 58, 132, 135, 60, 3, 0.715714
98, 3, wb, attraction, a-b-da, 9, 2, 3, 30, 157, 86, 90, 165, 165, 90, 1, 1.05288
98, 3, wb, attraction, a-b-da, 9, 2, 3, 30, 157, 86, 90, 165, 165, 90, 2, 0.681752
98, 3, wb, attraction, a-b-da, 5, 1, 3, 31, 132, 58, 135, 60, 60, 135, 1, 1.86027
98, 3, wb, attraction, a-b-da, 5, 1, 3, 31, 132, 58, 135, 60, 60, 135, 2, 0.640219
98, 3, wb, attraction, a-b-db, 2, 3, 3, 32, 195, 120, 120, 195, 119, 193, 1, 0.923909
98, 3, wb, attraction, a-b-db, 2, 3, 3, 32, 195, 120, 120, 195, 119, 193, 2, 0.437777
98, 3, wb, attraction, a-b-da, 2, 3, 3, 33, 193, 119, 195, 120, 120, 195, 1, 1.28211
98, 3, wb, attraction, a-b-da, 2, 3, 3, 33, 193, 119, 195, 120, 120, 195, 3, 0.477828
98, 3, wb, attraction, a-b-da, 9, 3, 3, 34, 120, 195, 195, 120, 186, 114, 3, 1.91218
98, 3, wb, attraction, a-b-da, 9, 3, 3, 34, 120, 195, 195, 120, 186, 114, 1, 0.498306
98, 3, wb, attraction, a-b-da, 2, 2, 3, 35, 90, 165, 165, 90, 163, 89, 3, 2.08397
98, 3, wb, attraction, a-b-da, 2, 2, 3, 35, 90, 165, 165, 90, 163, 89, 1, 0.51137
98, 3, wb, attraction, a-b-db, 5, 2, 3, 36, 165, 90, 90, 165, 88, 161, 3, 1.16836
98, 3, wb, attraction, a-b-db, 5, 2, 3, 36, 165, 90, 90, 165, 88, 161, 1, 0.464646
98, 3, wb, catch, NA, 999, 999, 3, 37, 193, 122, 151, 104, 115, 80, 3, 0.603735
98, 3, wb, catch, NA, 999, 999, 3, 37, 193, 122, 151, 104, 115, 80, 1, 0.450948
98, 3, wb, catch, NA, 999, 999, 4, 1, 131, 124, 114, 81, 194, 121, 2, 0.574675
98, 3, wb, catch, NA, 999, 999, 4, 1, 131, 124, 114, 81, 194, 121, 3, 0.33453
98, 3, wb, attraction, a-b-da, 2, 2, 4, 2, 165, 90, 163, 89, 90, 165, 1, 1.71112
98, 3, wb, attraction, a-b-da, 2, 2, 4, 2, 165, 90, 163, 89, 90, 165, 3, 0.945653
98, 3, wb, attraction, a-b-da, 2, 1, 4, 3, 134, 59, 60, 135, 135, 60, 1, 1.2967
98, 3, wb, attraction, a-b-da, 2, 1, 4, 3, 134, 59, 60, 135, 135, 60, 2, 1.71579
98, 3, wb, attraction, a-b-da, 5, 2, 4, 4, 90, 165, 165, 90, 161, 88, 3, 1.07644
98, 3, wb, attraction, a-b-da, 5, 2, 4, 4, 90, 165, 165, 90, 161, 88, 1, 1.04013
98, 3, wb, attraction, a-b-da, 14, 3, 4, 5, 120, 195, 195, 120, 181, 111, 3, 1.33235
98, 3, wb, attraction, a-b-da, 14, 3, 4, 5, 120, 195, 195, 120, 181, 111, 1, 0.317897
98, 3, wb, attraction, a-b-da, 5, 3, 4, 6, 190, 117, 120, 195, 195, 120, 1, 1.91904
98, 3, wb, attraction, a-b-da, 5, 3, 4, 6, 190, 117, 120, 195, 195, 120, 2, 0.617146
98, 3, wb, attraction, a-b-db, 14, 2, 4, 7, 90, 165, 165, 90, 83, 153, 3, 4.47834
98, 3, wb, attraction, a-b-db, 14, 2, 4, 7, 90, 165, 165, 90, 83, 153, 1, 0.544765
98, 3, wb, attraction, a-b-da, 2, 3, 4, 8, 195, 120, 193, 119, 120, 195, 1, 2.34455
98, 3, wb, attraction, a-b-da, 2, 3, 4, 8, 195, 120, 193, 119, 120, 195, 3, 0.481114
98, 3, wb, attraction, a-b-db, 14, 1, 4, 9, 60, 135, 135, 60, 56, 125, 3, 1.35562
98, 3, wb, attraction, a-b-db, 14, 1, 4, 9, 60, 135, 135, 60, 56, 125, 1, 0.451789
98, 3, wb, filler, NA, 999, 999, 4, 10, 84, 157, 195, 79, 86, 85, 3, 0.807556
98, 3, wb, filler, NA, 999, 999, 4, 10, 84, 157, 195, 79, 86, 85, 2, 1.95808
98, 3, wb, attraction, a-b-db, 2, 3, 4, 11, 195, 120, 119, 193, 120, 195, 2, 5.18858
98, 3, wb, attraction, a-b-db, 2, 3, 4, 11, 195, 120, 119, 193, 120, 195, 1, 0.274987
98, 3, wb, filler, NA, 999, 999, 4, 12, 194, 60, 97, 95, 167, 141, 2, 0.797523
98, 3, wb, filler, NA, 999, 999, 4, 12, 194, 60, 97, 95, 167, 141, 3, 0.2286
98, 3, wb, attraction, a-b-da, 5, 1, 4, 13, 132, 58, 60, 135, 135, 60, 3, 1.07317
98, 3, wb, attraction, a-b-da, 5, 1, 4, 13, 132, 58, 60, 135, 135, 60, 2, 0.652822
98, 3, wb, attraction, a-b-db, 14, 3, 4, 14, 111, 181, 195, 120, 120, 195, 2, 1.82446
98, 3, wb, attraction, a-b-db, 14, 3, 4, 14, 111, 181, 195, 120, 120, 195, 1, 0.261958
98, 3, wb, attraction, a-b-da, 9, 2, 4, 15, 165, 90, 157, 86, 90, 165, 3, 1.3931
98, 3, wb, attraction, a-b-da, 9, 2, 4, 15, 165, 90, 157, 86, 90, 165, 1, 0.543977
98, 3, wb, attraction, a-b-da, 14, 1, 4, 16, 60, 135, 135, 60, 125, 56, 3, 1.07967
98, 3, wb, attraction, a-b-da, 14, 1, 4, 16, 60, 135, 135, 60, 125, 56, 1, 0.379294
98, 3, wb, attraction, a-b-db, 2, 1, 4, 17, 59, 134, 60, 135, 135, 60, 2, 2.62589
98, 3, wb, attraction, a-b-db, 2, 1, 4, 17, 59, 134, 60, 135, 135, 60, 3, 0.96706
98, 3, wb, filler, NA, 999, 999, 4, 18, 61, 61, 74, 65, 119, 63, 1, 0.734055
98, 3, wb, filler, NA, 999, 999, 4, 18, 61, 61, 74, 65, 119, 63, 3, 0.567814
98, 3, wb, attraction, a-b-db, 9, 1, 4, 19, 57, 129, 60, 135, 135, 60, 3, 2.59882
98, 3, wb, attraction, a-b-db, 9, 1, 4, 19, 57, 129, 60, 135, 135, 60, 1, 0.309408
98, 3, wb, catch, NA, 999, 999, 4, 20, 110, 145, 157, 158, 95, 100, 3, 0.654449
98, 3, wb, catch, NA, 999, 999, 4, 20, 110, 145, 157, 158, 95, 100, 2, 0.402941
98, 3, wb, attraction, a-b-db, 9, 3, 4, 21, 195, 120, 120, 195, 114, 186, 1, 1.20071
98, 3, wb, attraction, a-b-db, 9, 3, 4, 21, 195, 120, 120, 195, 114, 186, 2, 0.49567
98, 3, wb, attraction, a-b-da, 14, 2, 4, 22, 153, 83, 165, 90, 90, 165, 1, 0.697516
98, 3, wb, attraction, a-b-da, 14, 2, 4, 22, 153, 83, 165, 90, 90, 165, 2, 0.588471
98, 3, wb, filler, NA, 999, 999, 4, 23, 174, 86, 87, 192, 139, 110, 1, 0.819023
98, 3, wb, filler, NA, 999, 999, 4, 23, 174, 86, 87, 192, 139, 110, 2, 0.625319
98, 3, wb, filler, NA, 999, 999, 4, 24, 79, 93, 178, 82, 101, 87, 1, 0.717657
98, 3, wb, filler, NA, 999, 999, 4, 24, 79, 93, 178, 82, 101, 87, 2, 0.640085
98, 3, wb, attraction, a-b-db, 5, 3, 4, 25, 117, 190, 120, 195, 195, 120, 1, 0.868009
98, 3, wb, attraction, a-b-db, 5, 3, 4, 25, 117, 190, 120, 195, 195, 120, 2, 1.08045
98, 3, wb, catch, NA, 999, 999, 4, 26, 107, 148, 167, 148, 135, 60, 3, 1.33857
98, 3, wb, catch, NA, 999, 999, 4, 26, 107, 148, 167, 148, 135, 60, 2, 0.61153
98, 3, wb, attraction, a-b-da, 9, 3, 4, 27, 120, 195, 195, 120, 186, 114, 3, 1.09667
98, 3, wb, attraction, a-b-da, 9, 3, 4, 27, 120, 195, 195, 120, 186, 114, 1, 0.731616
98, 3, wb, attraction, a-b-db, 9, 2, 4, 28, 90, 165, 165, 90, 86, 157, 3, 2.18791
98, 3, wb, attraction, a-b-db, 9, 2, 4, 28, 90, 165, 165, 90, 86, 157, 1, 0.458534
98, 3, wb, filler, NA, 999, 999, 4, 29, 105, 93, 165, 70, 56, 177, 3, 1.66164
98, 3, wb, filler, NA, 999, 999, 4, 29, 105, 93, 165, 70, 56, 177, 2, 1.62571
98, 3, wb, attraction, a-b-db, 2, 2, 4, 30, 89, 163, 90, 165, 165, 90, 3, 1.24586
98, 3, wb, attraction, a-b-db, 2, 2, 4, 30, 89, 163, 90, 165, 165, 90, 2, 0.266682
98, 3, wb, filler, NA, 999, 999, 4, 31, 180, 95, 160, 106, 128, 103, 3, 0.741886
98, 3, wb, filler, NA, 999, 999, 4, 31, 180, 95, 160, 106, 128, 103, 2, 0.239009
98, 3, wb, filler, NA, 999, 999, 4, 32, 117, 59, 127, 68, 168, 59, 1, 0.811678
98, 3, wb, filler, NA, 999, 999, 4, 32, 117, 59, 127, 68, 168, 59, 3, 1.10634
98, 3, wb, attraction, a-b-db, 5, 1, 4, 33, 135, 60, 60, 135, 58, 132, 2, 1.09154
98, 3, wb, attraction, a-b-db, 5, 1, 4, 33, 135, 60, 60, 135, 58, 132, 1, 0.334462
98, 3, wb, filler, NA, 999, 999, 4, 34, 178, 142, 180, 142, 101, 192, 3, 0.671087
98, 3, wb, filler, NA, 999, 999, 4, 34, 178, 142, 180, 142, 101, 192, 1, 0.434881
98, 3, wb, attraction, a-b-db, 5, 2, 4, 35, 165, 90, 88, 161, 90, 165, 3, 0.599185
98, 3, wb, attraction, a-b-db, 5, 2, 4, 35, 165, 90, 88, 161, 90, 165, 2, 0.294318
98, 3, wb, attraction, a-b-da, 9, 1, 4, 36, 60, 135, 135, 60, 129, 57, 2, 0.672291
98, 3, wb, attraction, a-b-da, 9, 1, 4, 36, 60, 135, 135, 60, 129, 57, 1, 0.652102
98, 3, wb, filler, NA, 999, 999, 4, 37, 65, 116, 125, 186, 76, 112, 1, 1.6717
98, 3, wb, filler, NA, 999, 999, 4, 37, 65, 116, 125, 186, 76, 112, 2, 0.283835
98, 3, wb, attraction, a-b-da, 2, 1, 5, 1, 135, 60, 60, 135, 134, 59, 3, 17.6531
98, 3, wb, attraction, a-b-da, 2, 1, 5, 1, 135, 60, 60, 135, 134, 59, 2, 0.332705
98, 3, wb, attraction, a-b-db, 14, 3, 5, 2, 111, 181, 195, 120, 120, 195, 1, 0.965287
98, 3, wb, attraction, a-b-db, 14, 3, 5, 2, 111, 181, 195, 120, 120, 195, 3, 0.35758
98, 3, wb, attraction, a-b-da, 5, 3, 5, 3, 195, 120, 120, 195, 190, 117, 3, 1.84482
98, 3, wb, attraction, a-b-da, 5, 3, 5, 3, 195, 120, 120, 195, 190, 117, 2, 0.481648
98, 3, wb, catch, NA, 999, 999, 5, 4, 140, 175, 112, 143, 131, 64, 3, 1.05999
98, 3, wb, catch, NA, 999, 999, 5, 4, 140, 175, 112, 143, 131, 64, 1, 0.320285
98, 3, wb, attraction, a-b-da, 14, 2, 5, 5, 90, 165, 165, 90, 153, 83, 3, 1.90547
98, 3, wb, attraction, a-b-da, 14, 2, 5, 5, 90, 165, 165, 90, 153, 83, 2, 0.39551
98, 3, wb, attraction, a-b-db, 5, 3, 5, 6, 120, 195, 195, 120, 117, 190, 3, 1.04931
98, 3, wb, attraction, a-b-db, 5, 3, 5, 6, 120, 195, 195, 120, 117, 190, 2, 0.382324
98, 3, wb, attraction, a-b-da, 2, 3, 5, 7, 195, 120, 193, 119, 120, 195, 2, 1.98077
98, 3, wb, attraction, a-b-da, 2, 3, 5, 7, 195, 120, 193, 119, 120, 195, 1, 0.676202
98, 3, wb, attraction, a-b-db, 5, 2, 5, 8, 90, 165, 165, 90, 88, 161, 3, 1.51843
98, 3, wb, attraction, a-b-db, 5, 2, 5, 8, 90, 165, 165, 90, 88, 161, 1, 0.384649
98, 3, wb, filler, NA, 999, 999, 5, 9, 101, 184, 144, 153, 141, 84, 3, 0.871208
98, 3, wb, filler, NA, 999, 999, 5, 9, 101, 184, 144, 153, 141, 84, 2, 3.02755
98, 3, wb, filler, NA, 999, 999, 5, 10, 81, 76, 100, 89, 160, 183, 1, 0.719202
98, 3, wb, filler, NA, 999, 999, 5, 10, 81, 76, 100, 89, 160, 183, 3, 0.625654
98, 3, wb, attraction, a-b-da, 9, 1, 5, 11, 135, 60, 129, 57, 60, 135, 3, 2.26195
98, 3, wb, attraction, a-b-da, 9, 1, 5, 11, 135, 60, 129, 57, 60, 135, 2, 1.08997
98, 3, wb, attraction, a-b-da, 14, 3, 5, 12, 195, 120, 181, 111, 120, 195, 3, 4.00433
98, 3, wb, attraction, a-b-da, 14, 3, 5, 12, 195, 120, 181, 111, 120, 195, 1, 0.922407
98, 3, wb, filler, NA, 999, 999, 5, 13, 176, 127, 185, 58, 167, 60, 3, 0.971351
98, 3, wb, filler, NA, 999, 999, 5, 13, 176, 127, 185, 58, 167, 60, 1, 0.274896
98, 3, wb, catch, NA, 999, 999, 5, 14, 70, 125, 132, 123, 136, 179, 1, 2.14946
98, 3, wb, catch, NA, 999, 999, 5, 14, 70, 125, 132, 123, 136, 179, 3, 0.566142
98, 3, wb, attraction, a-b-da, 9, 2, 5, 15, 90, 165, 165, 90, 157, 86, 3, 2.4613
98, 3, wb, attraction, a-b-da, 9, 2, 5, 15, 90, 165, 165, 90, 157, 86, 1, 0.433051
98, 3, wb, attraction, a-b-db, 2, 1, 5, 16, 135, 60, 59, 134, 60, 135, 2, 4.58961
98, 3, wb, attraction, a-b-db, 2, 1, 5, 16, 135, 60, 59, 134, 60, 135, 3, 1.09145
98, 3, wb, attraction, a-b-da, 2, 2, 5, 17, 90, 165, 163, 89, 165, 90, 1, 2.35708
98, 3, wb, attraction, a-b-da, 2, 2, 5, 17, 90, 165, 163, 89, 165, 90, 2, 0.621022
98, 3, wb, attraction, a-b-db, 5, 1, 5, 18, 60, 135, 58, 132, 135, 60, 2, 0.762201
98, 3, wb, attraction, a-b-db, 5, 1, 5, 18, 60, 135, 58, 132, 135, 60, 1, 0.586431
98, 3, wb, attraction, a-b-da, 9, 3, 5, 19, 195, 120, 186, 114, 120, 195, 2, 1.68887
98, 3, wb, attraction, a-b-da, 9, 3, 5, 19, 195, 120, 186, 114, 120, 195, 3, 0.363593
98, 3, wb, filler, NA, 999, 999, 5, 20, 133, 185, 108, 67, 57, 89, 3, 0.90676
98, 3, wb, filler, NA, 999, 999, 5, 20, 133, 185, 108, 67, 57, 89, 1, 0.453148
98, 3, wb, attraction, a-b-db, 9, 1, 5, 21, 135, 60, 60, 135, 57, 129, 2, 1.40892
98, 3, wb, attraction, a-b-db, 9, 1, 5, 21, 135, 60, 60, 135, 57, 129, 1, 0.975155
98, 3, wb, catch, NA, 999, 999, 5, 22, 114, 81, 139, 116, 125, 190, 1, 0.717387
98, 3, wb, catch, NA, 999, 999, 5, 22, 114, 81, 139, 116, 125, 190, 3, 0.367836
98, 3, wb, filler, NA, 999, 999, 5, 23, 168, 171, 191, 175, 89, 58, 3, 0.647145
98, 3, wb, filler, NA, 999, 999, 5, 23, 168, 171, 191, 175, 89, 58, 2, 0.580224
98, 3, wb, attraction, a-b-da, 5, 1, 5, 24, 132, 58, 60, 135, 135, 60, 1, 0.898549
98, 3, wb, attraction, a-b-da, 5, 1, 5, 24, 132, 58, 60, 135, 135, 60, 3, 0.461576
98, 3, wb, attraction, a-b-db, 9, 2, 5, 25, 86, 157, 165, 90, 90, 165, 1, 1.36872
98, 3, wb, attraction, a-b-db, 9, 2, 5, 25, 86, 157, 165, 90, 90, 165, 3, 0.264982
98, 3, wb, filler, NA, 999, 999, 5, 26, 194, 103, 90, 115, 134, 188, 2, 0.612305
98, 3, wb, filler, NA, 999, 999, 5, 26, 194, 103, 90, 115, 134, 188, 3, 0.266486
98, 3, wb, filler, NA, 999, 999, 5, 27, 188, 150, 92, 189, 145, 75, 3, 0.701872
98, 3, wb, filler, NA, 999, 999, 5, 27, 188, 150, 92, 189, 145, 75, 1, 0.472815
98, 3, wb, filler, NA, 999, 999, 5, 28, 111, 155, 179, 121, 67, 122, 3, 0.700005
98, 3, wb, filler, NA, 999, 999, 5, 28, 111, 155, 179, 121, 67, 122, 2, 0.455006
98, 3, wb, attraction, a-b-db, 9, 3, 5, 29, 114, 186, 195, 120, 120, 195, 1, 2.49082
98, 3, wb, attraction, a-b-db, 9, 3, 5, 29, 114, 186, 195, 120, 120, 195, 3, 0.221402
98, 3, wb, attraction, a-b-db, 2, 2, 5, 30, 89, 163, 90, 165, 165, 90, 1, 1.66663
98, 3, wb, attraction, a-b-db, 2, 2, 5, 30, 89, 163, 90, 165, 165, 90, 2, 0.702724
98, 3, wb, filler, NA, 999, 999, 5, 31, 185, 195, 190, 69, 195, 107, 2, 0.904485
98, 3, wb, filler, NA, 999, 999, 5, 31, 185, 195, 190, 69, 195, 107, 1, 0.331438
98, 3, wb, attraction, a-b-db, 14, 1, 5, 32, 56, 125, 60, 135, 135, 60, 1, 1.28395
98, 3, wb, attraction, a-b-db, 14, 1, 5, 32, 56, 125, 60, 135, 135, 60, 3, 0.671548
98, 3, wb, attraction, a-b-db, 14, 2, 5, 33, 83, 153, 165, 90, 90, 165, 1, 0.922733
98, 3, wb, attraction, a-b-db, 14, 2, 5, 33, 83, 153, 165, 90, 90, 165, 2, 0.308229
98, 3, wb, attraction, a-b-da, 5, 2, 5, 34, 165, 90, 161, 88, 90, 165, 1, 3.58157
98, 3, wb, attraction, a-b-da, 5, 2, 5, 34, 165, 90, 161, 88, 90, 165, 3, 0.180236
98, 3, wb, attraction, a-b-db, 2, 3, 5, 35, 195, 120, 119, 193, 120, 195, 1, 3.08282
98, 3, wb, attraction, a-b-db, 2, 3, 5, 35, 195, 120, 119, 193, 120, 195, 3, 0.797793
98, 3, wb, filler, NA, 999, 999, 5, 36, 187, 133, 70, 155, 92, 73, 3, 1.84356
98, 3, wb, filler, NA, 999, 999, 5, 36, 187, 133, 70, 155, 92, 73, 1, 0.248286
98, 3, wb, attraction, a-b-da, 14, 1, 5, 37, 125, 56, 135, 60, 60, 135, 1, 0.788256
98, 3, wb, attraction, a-b-da, 14, 1, 5, 37, 125, 56, 135, 60, 60, 135, 3, 0.459206
98, 3, wb, attraction, a-b-da, 2, 1, 6, 1, 135, 60, 134, 59, 60, 135, 2, 5.88641
98, 3, wb, attraction, a-b-da, 2, 1, 6, 1, 135, 60, 134, 59, 60, 135, 3, 0.176449
98, 3, wb, attraction, a-b-da, 9, 3, 6, 2, 120, 195, 186, 114, 195, 120, 1, 1.0231
98, 3, wb, attraction, a-b-da, 9, 3, 6, 2, 120, 195, 186, 114, 195, 120, 3, 0.188792
98, 3, wb, filler, NA, 999, 999, 6, 3, 63, 99, 58, 158, 171, 58, 1, 0.803215
98, 3, wb, filler, NA, 999, 999, 6, 3, 63, 99, 58, 158, 171, 58, 3, 2.29033
98, 3, wb, attraction, a-b-da, 5, 2, 6, 4, 165, 90, 90, 165, 161, 88, 1, 1.7642
98, 3, wb, attraction, a-b-da, 5, 2, 6, 4, 165, 90, 90, 165, 161, 88, 2, 0.652369
98, 3, wb, attraction, a-b-db, 9, 2, 6, 5, 165, 90, 90, 165, 86, 157, 1, 1.384
98, 3, wb, attraction, a-b-db, 9, 2, 6, 5, 165, 90, 90, 165, 86, 157, 3, 0.23952
98, 3, wb, attraction, a-b-db, 5, 3, 6, 6, 120, 195, 195, 120, 117, 190, 3, 1.3321
98, 3, wb, attraction, a-b-db, 5, 3, 6, 6, 120, 195, 195, 120, 117, 190, 1, 0.245653
98, 3, wb, attraction, a-b-db, 5, 1, 6, 7, 58, 132, 60, 135, 135, 60, 1, 1.2815
98, 3, wb, attraction, a-b-db, 5, 1, 6, 7, 58, 132, 60, 135, 135, 60, 3, 0.589217
98, 3, wb, attraction, a-b-da, 2, 2, 6, 8, 163, 89, 165, 90, 90, 165, 1, 0.867745
98, 3, wb, attraction, a-b-da, 2, 2, 6, 8, 163, 89, 165, 90, 90, 165, 2, 0.216074
98, 3, wb, catch, NA, 999, 999, 6, 9, 102, 93, 141, 114, 142, 173, 1, 0.677062
98, 3, wb, catch, NA, 999, 999, 6, 9, 102, 93, 141, 114, 142, 173, 3, 0.208821
98, 3, wb, attraction, a-b-da, 5, 1, 6, 10, 60, 135, 135, 60, 132, 58, 1, 2.42197
98, 3, wb, attraction, a-b-da, 5, 1, 6, 10, 60, 135, 135, 60, 132, 58, 3, 0.539303
98, 3, wb, attraction, a-b-da, 14, 2, 6, 11, 90, 165, 165, 90, 153, 83, 1, 2.00369
98, 3, wb, attraction, a-b-da, 14, 2, 6, 11, 90, 165, 165, 90, 153, 83, 2, 0.522367
98, 3, wb, filler, NA, 999, 999, 6, 12, 143, 127, 90, 109, 194, 134, 2, 0.859475
98, 3, wb, filler, NA, 999, 999, 6, 12, 143, 127, 90, 109, 194, 134, 3, 0.767858
98, 3, wb, attraction, a-b-db, 2, 1, 6, 13, 60, 135, 59, 134, 135, 60, 1, 2.07091
98, 3, wb, attraction, a-b-db, 2, 1, 6, 13, 60, 135, 59, 134, 135, 60, 3, 1.25894
98, 3, wb, attraction, a-b-db, 2, 2, 6, 14, 165, 90, 90, 165, 89, 163, 1, 1.0859
98, 3, wb, attraction, a-b-db, 2, 2, 6, 14, 165, 90, 90, 165, 89, 163, 3, 0.369372
98, 3, wb, attraction, a-b-db, 14, 1, 6, 15, 56, 125, 60, 135, 135, 60, 1, 0.800532
98, 3, wb, attraction, a-b-db, 14, 1, 6, 15, 56, 125, 60, 135, 135, 60, 3, 0.871763
98, 3, wb, attraction, a-b-da, 14, 1, 6, 16, 125, 56, 60, 135, 135, 60, 1, 0.88274
98, 3, wb, attraction, a-b-da, 14, 1, 6, 16, 125, 56, 60, 135, 135, 60, 2, 0.270358
98, 3, wb, attraction, a-b-da, 14, 3, 6, 17, 120, 195, 195, 120, 181, 111, 2, 1.28957
98, 3, wb, attraction, a-b-da, 14, 3, 6, 17, 120, 195, 195, 120, 181, 111, 1, 0.220463
98, 3, wb, catch, NA, 999, 999, 6, 18, 106, 89, 117, 138, 147, 168, 1, 0.849719
98, 3, wb, catch, NA, 999, 999, 6, 18, 106, 89, 117, 138, 147, 168, 3, 0.230666
98, 3, wb, filler, NA, 999, 999, 6, 19, 91, 189, 113, 176, 81, 170, 3, 1.07515
98, 3, wb, filler, NA, 999, 999, 6, 19, 91, 189, 113, 176, 81, 170, 2, 0.278895
98, 3, wb, filler, NA, 999, 999, 6, 20, 182, 66, 165, 140, 164, 146, 1, 3.56945
98, 3, wb, filler, NA, 999, 999, 6, 20, 182, 66, 165, 140, 164, 146, 3, 0.553015
98, 3, wb, attraction, a-b-da, 9, 1, 6, 21, 129, 57, 135, 60, 60, 135, 1, 1.73669
98, 3, wb, attraction, a-b-da, 9, 1, 6, 21, 129, 57, 135, 60, 60, 135, 3, 0.482168
98, 3, wb, attraction, a-b-db, 14, 3, 6, 22, 120, 195, 195, 120, 111, 181, 1, 3.30063
98, 3, wb, attraction, a-b-db, 14, 3, 6, 22, 120, 195, 195, 120, 111, 181, 2, 2.82281
98, 3, wb, attraction, a-b-db, 5, 2, 6, 23, 165, 90, 88, 161, 90, 165, 2, 1.30719
98, 3, wb, attraction, a-b-db, 5, 2, 6, 23, 165, 90, 88, 161, 90, 165, 3, 0.925529
98, 3, wb, filler, NA, 999, 999, 6, 24, 59, 184, 73, 85, 107, 170, 2, 0.861744
98, 3, wb, filler, NA, 999, 999, 6, 24, 59, 184, 73, 85, 107, 170, 3, 0.258158
98, 3, wb, attraction, a-b-db, 9, 3, 6, 25, 114, 186, 195, 120, 120, 195, 1, 1.90942
98, 3, wb, attraction, a-b-db, 9, 3, 6, 25, 114, 186, 195, 120, 120, 195, 3, 0.535757
98, 3, wb, attraction, a-b-da, 5, 3, 6, 26, 120, 195, 190, 117, 195, 120, 2, 2.91996
98, 3, wb, attraction, a-b-da, 5, 3, 6, 26, 120, 195, 190, 117, 195, 120, 1, 0.441581
98, 3, wb, filler, NA, 999, 999, 6, 27, 154, 63, 64, 184, 133, 87, 1, 2.66129
98, 3, wb, filler, NA, 999, 999, 6, 27, 154, 63, 64, 184, 133, 87, 2, 0.745334
98, 3, wb, filler, NA, 999, 999, 6, 28, 194, 173, 70, 171, 72, 153, 3, 1.77693
98, 3, wb, filler, NA, 999, 999, 6, 28, 194, 173, 70, 171, 72, 153, 1, 0.464323
98, 3, wb, filler, NA, 999, 999, 6, 29, 98, 128, 139, 106, 116, 124, 1, 4.43548
98, 3, wb, filler, NA, 999, 999, 6, 29, 98, 128, 139, 106, 116, 124, 3, 0.528034
98, 3, wb, filler, NA, 999, 999, 6, 30, 128, 124, 94, 56, 89, 185, 2, 1.28847
98, 3, wb, filler, NA, 999, 999, 6, 30, 128, 124, 94, 56, 89, 185, 1, 0.49938
98, 3, wb, filler, NA, 999, 999, 6, 31, 140, 128, 59, 96, 134, 176, 2, 0.805118
98, 3, wb, filler, NA, 999, 999, 6, 31, 140, 128, 59, 96, 134, 176, 3, 0.227481
98, 3, wb, attraction, a-b-db, 2, 3, 6, 32, 195, 120, 119, 193, 120, 195, 3, 3.67209
98, 3, wb, attraction, a-b-db, 2, 3, 6, 32, 195, 120, 119, 193, 120, 195, 2, 0.931773
98, 3, wb, attraction, a-b-db, 9, 1, 6, 33, 60, 135, 135, 60, 57, 129, 1, 1.12395
98, 3, wb, attraction, a-b-db, 9, 1, 6, 33, 60, 135, 135, 60, 57, 129, 3, 0.78964
98, 3, wb, attraction, a-b-da, 9, 2, 6, 34, 165, 90, 90, 165, 157, 86, 3, 2.03598
98, 3, wb, attraction, a-b-da, 9, 2, 6, 34, 165, 90, 90, 165, 157, 86, 2, 0.38523
98, 3, wb, attraction, a-b-db, 14, 2, 6, 35, 165, 90, 83, 153, 90, 165, 2, 5.55967
98, 3, wb, attraction, a-b-db, 14, 2, 6, 35, 165, 90, 83, 153, 90, 165, 1, 1.08654
98, 3, wb, attraction, a-b-da, 2, 3, 6, 36, 195, 120, 193, 119, 120, 195, 1, 2.56083
98, 3, wb, attraction, a-b-da, 2, 3, 6, 36, 195, 120, 193, 119, 120, 195, 3, 0.320732
98, 3, wb, catch, NA, 999, 999, 6, 37, 121, 74, 160, 155, 103, 152, 1, 0.961795
98, 3, wb, catch, NA, 999, 999, 6, 37, 121, 74, 160, 155, 103, 152, 2, 0.29817
98, 3, wb, attraction, a-b-da, 2, 1, 7, 1, 60, 135, 135, 60, 134, 59, 2, 4.19615
98, 3, wb, attraction, a-b-da, 2, 1, 7, 1, 60, 135, 135, 60, 134, 59, 1, 0.514133
98, 3, wb, catch, NA, 999, 999, 7, 2, 190, 125, 97, 158, 102, 93, 3, 0.851362
98, 3, wb, catch, NA, 999, 999, 7, 2, 190, 125, 97, 158, 102, 93, 1, 0.392166
98, 3, wb, catch, NA, 999, 999, 7, 3, 116, 79, 120, 195, 147, 108, 1, 0.990082
98, 3, wb, catch, NA, 999, 999, 7, 3, 116, 79, 120, 195, 147, 108, 2, 0.309152
98, 3, wb, attraction, a-b-db, 5, 2, 7, 4, 165, 90, 90, 165, 88, 161, 3, 1.82229
98, 3, wb, attraction, a-b-db, 5, 2, 7, 4, 165, 90, 90, 165, 88, 161, 2, 0.523636
98, 3, wb, filler, NA, 999, 999, 7, 5, 56, 139, 94, 64, 125, 185, 2, 0.708019
98, 3, wb, filler, NA, 999, 999, 7, 5, 56, 139, 94, 64, 125, 185, 3, 0.470485
98, 3, wb, attraction, a-b-db, 9, 3, 7, 6, 195, 120, 114, 186, 120, 195, 1, 1.64957
98, 3, wb, attraction, a-b-db, 9, 3, 7, 6, 195, 120, 114, 186, 120, 195, 3, 0.702547
98, 3, wb, catch, NA, 999, 999, 7, 7, 145, 110, 104, 91, 161, 154, 2, 0.648148
98, 3, wb, catch, NA, 999, 999, 7, 7, 145, 110, 104, 91, 161, 154, 3, 0.51724
98, 3, wb, attraction, a-b-da, 14, 2, 7, 8, 153, 83, 90, 165, 165, 90, 1, 0.886386
98, 3, wb, attraction, a-b-da, 14, 2, 7, 8, 153, 83, 90, 165, 165, 90, 2, 0.594125
98, 3, wb, attraction, a-b-db, 2, 2, 7, 9, 90, 165, 165, 90, 89, 163, 1, 1.07992
98, 3, wb, attraction, a-b-db, 2, 2, 7, 9, 90, 165, 165, 90, 89, 163, 3, 1.0435
98, 3, wb, filler, NA, 999, 999, 7, 10, 183, 80, 133, 108, 128, 116, 2, 2.35915
98, 3, wb, filler, NA, 999, 999, 7, 10, 183, 80, 133, 108, 128, 116, 1, 0.758967
98, 3, wb, attraction, a-b-da, 9, 3, 7, 11, 195, 120, 186, 114, 120, 195, 2, 1.11003
98, 3, wb, attraction, a-b-da, 9, 3, 7, 11, 195, 120, 186, 114, 120, 195, 3, 0.680369
98, 3, wb, filler, NA, 999, 999, 7, 12, 141, 65, 131, 104, 181, 91, 1, 0.77866
98, 3, wb, filler, NA, 999, 999, 7, 12, 141, 65, 131, 104, 181, 91, 2, 0.634493
98, 3, wb, attraction, a-b-db, 2, 1, 7, 13, 59, 134, 60, 135, 135, 60, 1, 2.90285
98, 3, wb, attraction, a-b-db, 2, 1, 7, 13, 59, 134, 60, 135, 135, 60, 2, 1.12135
98, 3, wb, filler, NA, 999, 999, 7, 14, 75, 79, 192, 186, 90, 145, 1, 0.706166
98, 3, wb, filler, NA, 999, 999, 7, 14, 75, 79, 192, 186, 90, 145, 2, 0.300592
98, 3, wb, attraction, a-b-db, 14, 1, 7, 15, 135, 60, 56, 125, 60, 135, 2, 1.85437
98, 3, wb, attraction, a-b-db, 14, 1, 7, 15, 135, 60, 56, 125, 60, 135, 1, 0.483137
98, 3, wb, attraction, a-b-da, 2, 2, 7, 16, 90, 165, 163, 89, 165, 90, 1, 2.3496
98, 3, wb, attraction, a-b-da, 2, 2, 7, 16, 90, 165, 163, 89, 165, 90, 2, 0.590184
98, 3, wb, attraction, a-b-da, 5, 1, 7, 17, 135, 60, 132, 58, 60, 135, 2, 1.68399
98, 3, wb, attraction, a-b-da, 5, 1, 7, 17, 135, 60, 132, 58, 60, 135, 1, 0.687485
98, 3, wb, attraction, a-b-db, 14, 3, 7, 18, 120, 195, 195, 120, 111, 181, 3, 1.2497
98, 3, wb, attraction, a-b-db, 14, 3, 7, 18, 120, 195, 195, 120, 111, 181, 2, 0.614712
98, 3, wb, attraction, a-b-db, 5, 1, 7, 19, 135, 60, 60, 135, 58, 132, 2, 4.27572
98, 3, wb, attraction, a-b-db, 5, 1, 7, 19, 135, 60, 60, 135, 58, 132, 3, 0.62252
98, 3, wb, attraction, a-b-da, 2, 3, 7, 20, 195, 120, 193, 119, 120, 195, 1, 1.6514
98, 3, wb, attraction, a-b-da, 2, 3, 7, 20, 195, 120, 193, 119, 120, 195, 2, 0.280365
98, 3, wb, filler, NA, 999, 999, 7, 21, 178, 98, 194, 147, 113, 90, 3, 0.538814
98, 3, wb, filler, NA, 999, 999, 7, 21, 178, 98, 194, 147, 113, 90, 2, 0.243913
98, 3, wb, attraction, a-b-db, 5, 3, 7, 22, 120, 195, 195, 120, 117, 190, 1, 1.02394
98, 3, wb, attraction, a-b-db, 5, 3, 7, 22, 120, 195, 195, 120, 117, 190, 3, 0.373474
98, 3, wb, filler, NA, 999, 999, 7, 23, 189, 142, 185, 97, 157, 83, 3, 0.843935
98, 3, wb, filler, NA, 999, 999, 7, 23, 189, 142, 185, 97, 157, 83, 1, 0.384897
98, 3, wb, filler, NA, 999, 999, 7, 24, 142, 126, 68, 82, 62, 80, 3, 1.69548
98, 3, wb, filler, NA, 999, 999, 7, 24, 142, 126, 68, 82, 62, 80, 1, 0.378397
98, 3, wb, attraction, a-b-da, 9, 2, 7, 25, 157, 86, 90, 165, 165, 90, 1, 0.976788
98, 3, wb, attraction, a-b-da, 9, 2, 7, 25, 157, 86, 90, 165, 165, 90, 2, 0.408409
98, 3, wb, attraction, a-b-da, 5, 3, 7, 26, 120, 195, 190, 117, 195, 120, 2, 3.18147
98, 3, wb, attraction, a-b-da, 5, 3, 7, 26, 120, 195, 190, 117, 195, 120, 1, 0.204532
98, 3, wb, attraction, a-b-da, 9, 1, 7, 27, 135, 60, 129, 57, 60, 135, 2, 1.27442
98, 3, wb, attraction, a-b-da, 9, 1, 7, 27, 135, 60, 129, 57, 60, 135, 3, 0.510153
98, 3, wb, filler, NA, 999, 999, 7, 28, 101, 57, 95, 64, 150, 111, 1, 1.48711
98, 3, wb, filler, NA, 999, 999, 7, 28, 101, 57, 95, 64, 150, 111, 3, 0.330646
98, 3, wb, attraction, a-b-db, 9, 2, 7, 29, 86, 157, 165, 90, 90, 165, 1, 1.07513
98, 3, wb, attraction, a-b-db, 9, 2, 7, 29, 86, 157, 165, 90, 90, 165, 2, 0.358773
98, 3, wb, attraction, a-b-db, 14, 2, 7, 30, 165, 90, 83, 153, 90, 165, 2, 1.12588
98, 3, wb, attraction, a-b-db, 14, 2, 7, 30, 165, 90, 83, 153, 90, 165, 1, 0.431609
98, 3, wb, attraction, a-b-db, 2, 3, 7, 31, 119, 193, 120, 195, 195, 120, 3, 3.23602
98, 3, wb, attraction, a-b-db, 2, 3, 7, 31, 119, 193, 120, 195, 195, 120, 1, 0.43291
98, 3, wb, filler, NA, 999, 999, 7, 32, 166, 167, 141, 94, 179, 156, 2, 1.67757
98, 3, wb, filler, NA, 999, 999, 7, 32, 166, 167, 141, 94, 179, 156, 3, 0.36108
98, 3, wb, filler, NA, 999, 999, 7, 33, 186, 94, 132, 160, 147, 114, 3, 1.9921
98, 3, wb, filler, NA, 999, 999, 7, 33, 186, 94, 132, 160, 147, 114, 2, 0.59074
98, 3, wb, attraction, a-b-da, 14, 1, 7, 34, 125, 56, 135, 60, 60, 135, 1, 0.96442
98, 3, wb, attraction, a-b-da, 14, 1, 7, 34, 125, 56, 135, 60, 60, 135, 2, 0.372787
98, 3, wb, attraction, a-b-da, 14, 3, 7, 35, 120, 195, 181, 111, 195, 120, 2, 1.24398
98, 3, wb, attraction, a-b-da, 14, 3, 7, 35, 120, 195, 181, 111, 195, 120, 3, 0.864906
98, 3, wb, attraction, a-b-db, 9, 1, 7, 36, 57, 129, 135, 60, 60, 135, 2, 2.21182
98, 3, wb, attraction, a-b-db, 9, 1, 7, 36, 57, 129, 135, 60, 60, 135, 3, 0.985794
98, 3, wb, attraction, a-b-da, 5, 2, 7, 37, 161, 88, 90, 165, 165, 90, 3, 2.72809
98, 3, wb, attraction, a-b-da, 5, 2, 7, 37, 161, 88, 90, 165, 165, 90, 2, 0.657406
98, 3, wb, attraction, a-b-db, 9, 2, 8, 1, 165, 90, 86, 157, 90, 165, 3, 3.70031
98, 3, wb, attraction, a-b-db, 9, 2, 8, 1, 165, 90, 86, 157, 90, 165, 2, 0.350696
98, 3, wb, catch, NA, 999, 999, 8, 2, 167, 148, 130, 125, 64, 131, 3, 1.47847
98, 3, wb, catch, NA, 999, 999, 8, 2, 167, 148, 130, 125, 64, 131, 1, 0.44974
98, 3, wb, filler, NA, 999, 999, 8, 3, 157, 177, 100, 135, 81, 142, 3, 0.901599
98, 3, wb, filler, NA, 999, 999, 8, 3, 157, 177, 100, 135, 81, 142, 1, 0.416785
98, 3, wb, filler, NA, 999, 999, 8, 4, 121, 170, 180, 84, 107, 98, 3, 1.14181
98, 3, wb, filler, NA, 999, 999, 8, 4, 121, 170, 180, 84, 107, 98, 1, 1.26282
98, 3, wb, attraction, a-b-da, 9, 1, 8, 5, 129, 57, 60, 135, 135, 60, 1, 0.985649
98, 3, wb, attraction, a-b-da, 9, 1, 8, 5, 129, 57, 60, 135, 135, 60, 2, 0.329434
98, 3, wb, filler, NA, 999, 999, 8, 6, 127, 107, 87, 83, 170, 115, 2, 0.585819
98, 3, wb, filler, NA, 999, 999, 8, 6, 127, 107, 87, 83, 170, 115, 3, 0.297621
98, 3, wb, filler, NA, 999, 999, 8, 7, 158, 160, 69, 162, 118, 130, 2, 1.40354
98, 3, wb, filler, NA, 999, 999, 8, 7, 158, 160, 69, 162, 118, 130, 1, 0.290258
98, 3, wb, attraction, a-b-da, 5, 1, 8, 8, 135, 60, 60, 135, 132, 58, 2, 0.636177
98, 3, wb, attraction, a-b-da, 5, 1, 8, 8, 135, 60, 60, 135, 132, 58, 1, 0.593971
98, 3, wb, attraction, a-b-db, 14, 2, 8, 9, 83, 153, 90, 165, 165, 90, 2, 0.639718
98, 3, wb, attraction, a-b-db, 14, 2, 8, 9, 83, 153, 90, 165, 165, 90, 1, 0.540948
98, 3, wb, filler, NA, 999, 999, 8, 10, 132, 70, 183, 130, 89, 100, 3, 0.604612
98, 3, wb, filler, NA, 999, 999, 8, 10, 132, 70, 183, 130, 89, 100, 2, 0.363648
98, 3, wb, attraction, a-b-da, 9, 3, 8, 11, 186, 114, 195, 120, 120, 195, 3, 0.866957
98, 3, wb, attraction, a-b-da, 9, 3, 8, 11, 186, 114, 195, 120, 120, 195, 2, 0.271756
98, 3, wb, attraction, a-b-da, 14, 3, 8, 12, 120, 195, 181, 111, 195, 120, 2, 0.914334
98, 3, wb, attraction, a-b-da, 14, 3, 8, 12, 120, 195, 181, 111, 195, 120, 1, 0.532866
98, 3, wb, filler, NA, 999, 999, 8, 13, 79, 160, 111, 71, 59, 94, 2, 0.781356
98, 3, wb, filler, NA, 999, 999, 8, 13, 79, 160, 111, 71, 59, 94, 1, 1.67701
98, 3, wb, attraction, a-b-db, 5, 3, 8, 14, 195, 120, 117, 190, 120, 195, 1, 1.59105
98, 3, wb, attraction, a-b-db, 5, 3, 8, 14, 195, 120, 117, 190, 120, 195, 2, 0.269778
98, 3, wb, attraction, a-b-db, 14, 1, 8, 15, 135, 60, 60, 135, 56, 125, 3, 1.21711
98, 3, wb, attraction, a-b-db, 14, 1, 8, 15, 135, 60, 60, 135, 56, 125, 2, 0.487245
98, 3, wb, filler, NA, 999, 999, 8, 16, 140, 126, 151, 180, 126, 125, 3, 2.31385
98, 3, wb, filler, NA, 999, 999, 8, 16, 140, 126, 151, 180, 126, 125, 2, 0.555742
98, 3, wb, attraction, a-b-da, 5, 3, 8, 17, 195, 120, 120, 195, 190, 117, 2, 2.63541
98, 3, wb, attraction, a-b-da, 5, 3, 8, 17, 195, 120, 120, 195, 190, 117, 1, 0.416557
98, 3, wb, catch, NA, 999, 999, 8, 18, 109, 86, 145, 110, 150, 165, 1, 2.18995
98, 3, wb, catch, NA, 999, 999, 8, 18, 109, 86, 145, 110, 150, 165, 3, 0.804359
98, 3, wb, attraction, a-b-db, 2, 1, 8, 19, 60, 135, 59, 134, 135, 60, 2, 1.79399
98, 3, wb, attraction, a-b-db, 2, 1, 8, 19, 60, 135, 59, 134, 135, 60, 3, 0.632757
98, 3, wb, attraction, a-b-da, 2, 2, 8, 20, 90, 165, 163, 89, 165, 90, 2, 2.45309
98, 3, wb, attraction, a-b-da, 2, 2, 8, 20, 90, 165, 163, 89, 165, 90, 1, 1.64173
98, 3, wb, filler, NA, 999, 999, 8, 21, 65, 189, 122, 111, 79, 130, 1, 2.02113
98, 3, wb, filler, NA, 999, 999, 8, 21, 65, 189, 122, 111, 79, 130, 2, 1.16251
98, 3, wb, attraction, a-b-db, 14, 3, 8, 22, 195, 120, 120, 195, 111, 181, 3, 1.32945
98, 3, wb, attraction, a-b-db, 14, 3, 8, 22, 195, 120, 120, 195, 111, 181, 2, 0.563019
98, 3, wb, filler, NA, 999, 999, 8, 23, 154, 189, 121, 146, 81, 161, 3, 1.16208
98, 3, wb, filler, NA, 999, 999, 8, 23, 154, 189, 121, 146, 81, 161, 1, 0.482305
98, 3, wb, attraction, a-b-db, 2, 3, 8, 24, 120, 195, 119, 193, 195, 120, 3, 2.11685
98, 3, wb, attraction, a-b-db, 2, 3, 8, 24, 120, 195, 119, 193, 195, 120, 1, 0.446828
98, 3, wb, attraction, a-b-da, 9, 2, 8, 25, 165, 90, 90, 165, 157, 86, 3, 2.01866
98, 3, wb, attraction, a-b-da, 9, 2, 8, 25, 165, 90, 90, 165, 157, 86, 1, 0.528648
98, 3, wb, attraction, a-b-da, 14, 2, 8, 26, 165, 90, 90, 165, 153, 83, 2, 3.60913
98, 3, wb, attraction, a-b-da, 14, 2, 8, 26, 165, 90, 90, 165, 153, 83, 1, 0.598596
98, 3, wb, attraction, a-b-da, 2, 1, 8, 27, 60, 135, 134, 59, 135, 60, 3, 4.40432
98, 3, wb, attraction, a-b-da, 2, 1, 8, 27, 60, 135, 134, 59, 135, 60, 1, 0.378261
98, 3, wb, catch, NA, 999, 999, 8, 28, 116, 139, 125, 70, 123, 192, 2, 1.40871
98, 3, wb, catch, NA, 999, 999, 8, 28, 116, 139, 125, 70, 123, 192, 3, 0.566926
98, 3, wb, attraction, a-b-da, 5, 2, 8, 29, 90, 165, 165, 90, 161, 88, 3, 2.47002
98, 3, wb, attraction, a-b-da, 5, 2, 8, 29, 90, 165, 165, 90, 161, 88, 1, 0.577881
98, 3, wb, attraction, a-b-da, 2, 3, 8, 30, 195, 120, 120, 195, 193, 119, 3, 1.20833
98, 3, wb, attraction, a-b-da, 2, 3, 8, 30, 195, 120, 120, 195, 193, 119, 2, 0.326524
98, 3, wb, attraction, a-b-db, 9, 1, 8, 31, 135, 60, 60, 135, 57, 129, 1, 3.6631
98, 3, wb, attraction, a-b-db, 9, 1, 8, 31, 135, 60, 60, 135, 57, 129, 2, 0.306639
98, 3, wb, attraction, a-b-db, 2, 2, 8, 32, 90, 165, 165, 90, 89, 163, 3, 1.53187
98, 3, wb, attraction, a-b-db, 2, 2, 8, 32, 90, 165, 165, 90, 89, 163, 1, 0.349291
98, 3, wb, attraction, a-b-db, 5, 2, 8, 33, 90, 165, 165, 90, 88, 161, 2, 0.797099
98, 3, wb, attraction, a-b-db, 5, 2, 8, 33, 90, 165, 165, 90, 88, 161, 1, 0.524147
98, 3, wb, filler, NA, 999, 999, 8, 34, 181, 187, 130, 67, 103, 147, 2, 0.60461
98, 3, wb, filler, NA, 999, 999, 8, 34, 181, 187, 130, 67, 103, 147, 1, 0.267859
98, 3, wb, attraction, a-b-db, 5, 1, 8, 35, 58, 132, 60, 135, 135, 60, 3, 1.75895
98, 3, wb, attraction, a-b-db, 5, 1, 8, 35, 58, 132, 60, 135, 135, 60, 2, 0.606977
98, 3, wb, attraction, a-b-db, 9, 3, 8, 36, 114, 186, 195, 120, 120, 195, 2, 1.34001
98, 3, wb, attraction, a-b-db, 9, 3, 8, 36, 114, 186, 195, 120, 120, 195, 3, 0.325004
98, 3, wb, attraction, a-b-da, 14, 1, 8, 37, 135, 60, 60, 135, 125, 56, 3, 1.28547
98, 3, wb, attraction, a-b-da, 14, 1, 8, 37, 135, 60, 60, 135, 125, 56, 1, 0.449132
