sub_n, computer_n, bw_cond, effect, set, distance, diag, block_n, trial_n, h1, w1, h2, w2, h3, w3, choice, rt 
92, 3, wb, practice, NA, 999, 999, 0, 1, 149, 83, 87, 128, 77, 93, 3, 5.53946
92, 3, wb, practice, NA, 999, 999, 0, 1, 149, 83, 87, 128, 77, 93, 1, 2.52498
92, 3, wb, practice, NA, 999, 999, 0, 2, 187, 170, 148, 182, 171, 165, 3, 2.86816
92, 3, wb, practice, NA, 999, 999, 0, 2, 187, 170, 148, 182, 171, 165, 1, 2.58156
92, 3, wb, practice, NA, 999, 999, 0, 3, 116, 169, 137, 133, 97, 173, 2, 8.52159
92, 3, wb, practice, NA, 999, 999, 0, 3, 116, 169, 137, 133, 97, 173, 3, 2.00809
92, 3, wb, attraction, a-b-da, 14, 2, 1, 1, 90, 165, 165, 90, 153, 83, 3, 2.21744
92, 3, wb, attraction, a-b-da, 14, 2, 1, 1, 90, 165, 165, 90, 153, 83, 2, 2.01551
92, 3, wb, attraction, a-b-db, 5, 1, 1, 2, 60, 135, 135, 60, 58, 132, 2, 3.6363
92, 3, wb, attraction, a-b-db, 5, 1, 1, 2, 60, 135, 135, 60, 58, 132, 3, 1.80895
92, 3, wb, attraction, a-b-db, 2, 3, 1, 3, 119, 193, 120, 195, 195, 120, 1, 7.2935
92, 3, wb, attraction, a-b-db, 2, 3, 1, 3, 119, 193, 120, 195, 195, 120, 2, 1.61469
92, 3, wb, filler, NA, 999, 999, 1, 4, 110, 61, 94, 190, 96, 99, 1, 1.3153
92, 3, wb, filler, NA, 999, 999, 1, 4, 110, 61, 94, 190, 96, 99, 2, 1.4936
92, 3, wb, attraction, a-b-da, 5, 2, 1, 5, 90, 165, 161, 88, 165, 90, 2, 5.71112
92, 3, wb, attraction, a-b-da, 5, 2, 1, 5, 90, 165, 161, 88, 165, 90, 1, 2.69592
92, 3, wb, attraction, a-b-db, 14, 2, 1, 6, 165, 90, 83, 153, 90, 165, 2, 4.24102
92, 3, wb, attraction, a-b-db, 14, 2, 1, 6, 165, 90, 83, 153, 90, 165, 3, 2.87702
92, 3, wb, filler, NA, 999, 999, 1, 7, 167, 167, 133, 174, 117, 105, 3, 1.3348
92, 3, wb, filler, NA, 999, 999, 1, 7, 167, 167, 133, 174, 117, 105, 1, 2.46436
92, 3, wb, attraction, a-b-da, 9, 1, 1, 8, 135, 60, 129, 57, 60, 135, 2, 1.90683
92, 3, wb, attraction, a-b-da, 9, 1, 1, 8, 135, 60, 129, 57, 60, 135, 3, 1.62879
92, 3, wb, attraction, a-b-da, 5, 3, 1, 9, 195, 120, 190, 117, 120, 195, 2, 4.66494
92, 3, wb, attraction, a-b-da, 5, 3, 1, 9, 195, 120, 190, 117, 120, 195, 1, 2.02816
92, 3, wb, attraction, a-b-db, 14, 1, 1, 10, 135, 60, 56, 125, 60, 135, 2, 1.44807
92, 3, wb, attraction, a-b-db, 14, 1, 1, 10, 135, 60, 56, 125, 60, 135, 3, 1.91695
92, 3, wb, filler, NA, 999, 999, 1, 11, 71, 76, 142, 189, 185, 135, 1, 1.82162
92, 3, wb, filler, NA, 999, 999, 1, 11, 71, 76, 142, 189, 185, 135, 2, 1.467
92, 3, wb, catch, NA, 999, 999, 1, 12, 90, 165, 133, 182, 116, 79, 3, 4.92576
92, 3, wb, catch, NA, 999, 999, 1, 12, 90, 165, 133, 182, 116, 79, 2, 1.11828
92, 3, wb, filler, NA, 999, 999, 1, 13, 130, 76, 188, 57, 106, 80, 1, 3.59123
92, 3, wb, filler, NA, 999, 999, 1, 13, 130, 76, 188, 57, 106, 80, 2, 1.39737
92, 3, wb, attraction, a-b-da, 5, 1, 1, 14, 132, 58, 135, 60, 60, 135, 1, 2.89106
92, 3, wb, attraction, a-b-da, 5, 1, 1, 14, 132, 58, 135, 60, 60, 135, 3, 1.41331
92, 3, wb, attraction, a-b-da, 2, 1, 1, 15, 135, 60, 134, 59, 60, 135, 2, 10.5463
92, 3, wb, attraction, a-b-da, 2, 1, 1, 15, 135, 60, 134, 59, 60, 135, 3, 1.42415
92, 3, wb, filler, NA, 999, 999, 1, 16, 152, 127, 110, 160, 115, 166, 1, 2.45229
92, 3, wb, filler, NA, 999, 999, 1, 16, 152, 127, 110, 160, 115, 166, 3, 1.12088
92, 3, wb, attraction, a-b-da, 9, 3, 1, 17, 195, 120, 186, 114, 120, 195, 1, 2.28986
92, 3, wb, attraction, a-b-da, 9, 3, 1, 17, 195, 120, 186, 114, 120, 195, 3, 1.06827
92, 3, wb, attraction, a-b-db, 14, 3, 1, 18, 111, 181, 120, 195, 195, 120, 1, 1.55932
92, 3, wb, attraction, a-b-db, 14, 3, 1, 18, 111, 181, 120, 195, 195, 120, 2, 0.959397
92, 3, wb, attraction, a-b-da, 2, 2, 1, 19, 163, 89, 165, 90, 90, 165, 2, 2.10239
92, 3, wb, attraction, a-b-da, 2, 2, 1, 19, 163, 89, 165, 90, 90, 165, 3, 1.09709
92, 3, wb, attraction, a-b-db, 2, 1, 1, 20, 135, 60, 59, 134, 60, 135, 2, 1.0266
92, 3, wb, attraction, a-b-db, 2, 1, 1, 20, 135, 60, 59, 134, 60, 135, 3, 1.3925
92, 3, wb, attraction, a-b-da, 9, 2, 1, 21, 90, 165, 157, 86, 165, 90, 1, 6.1098
92, 3, wb, attraction, a-b-da, 9, 2, 1, 21, 90, 165, 157, 86, 165, 90, 3, 3.10252
92, 3, wb, attraction, a-b-da, 14, 1, 1, 22, 135, 60, 125, 56, 60, 135, 2, 3.75151
92, 3, wb, attraction, a-b-da, 14, 1, 1, 22, 135, 60, 125, 56, 60, 135, 1, 0.823671
92, 3, wb, attraction, a-b-da, 2, 3, 1, 23, 195, 120, 193, 119, 120, 195, 1, 7.38808
92, 3, wb, attraction, a-b-da, 2, 3, 1, 23, 195, 120, 193, 119, 120, 195, 3, 1.66569
92, 3, wb, attraction, a-b-db, 9, 3, 1, 24, 114, 186, 120, 195, 195, 120, 1, 4.55644
92, 3, wb, attraction, a-b-db, 9, 3, 1, 24, 114, 186, 120, 195, 195, 120, 3, 2.31572
92, 3, wb, filler, NA, 999, 999, 1, 25, 79, 120, 195, 145, 127, 176, 1, 1.56413
92, 3, wb, filler, NA, 999, 999, 1, 25, 79, 120, 195, 145, 127, 176, 2, 2.66034
92, 3, wb, filler, NA, 999, 999, 1, 26, 74, 128, 165, 108, 155, 88, 1, 1.53483
92, 3, wb, filler, NA, 999, 999, 1, 26, 74, 128, 165, 108, 155, 88, 2, 1.00833
92, 3, wb, filler, NA, 999, 999, 1, 27, 77, 75, 104, 92, 125, 113, 1, 1.2612
92, 3, wb, filler, NA, 999, 999, 1, 27, 77, 75, 104, 92, 125, 113, 3, 2.90554
92, 3, wb, attraction, a-b-db, 9, 2, 1, 28, 90, 165, 165, 90, 86, 157, 2, 4.11461
92, 3, wb, attraction, a-b-db, 9, 2, 1, 28, 90, 165, 165, 90, 86, 157, 3, 1.09208
92, 3, wb, attraction, a-b-da, 14, 3, 1, 29, 195, 120, 181, 111, 120, 195, 1, 6.19749
92, 3, wb, attraction, a-b-da, 14, 3, 1, 29, 195, 120, 181, 111, 120, 195, 3, 1.03488
92, 3, wb, filler, NA, 999, 999, 1, 30, 126, 56, 145, 151, 174, 110, 1, 1.03107
92, 3, wb, filler, NA, 999, 999, 1, 30, 126, 56, 145, 151, 174, 110, 2, 3.66078
92, 3, wb, filler, NA, 999, 999, 1, 31, 73, 116, 91, 90, 61, 93, 3, 3.06281
92, 3, wb, filler, NA, 999, 999, 1, 31, 73, 116, 91, 90, 61, 93, 2, 1.52255
92, 3, wb, attraction, a-b-db, 2, 2, 1, 32, 90, 165, 165, 90, 89, 163, 1, 5.81144
92, 3, wb, attraction, a-b-db, 2, 2, 1, 32, 90, 165, 165, 90, 89, 163, 3, 1.08018
92, 3, wb, catch, NA, 999, 999, 1, 33, 142, 173, 114, 141, 132, 63, 3, 3.48266
92, 3, wb, catch, NA, 999, 999, 1, 33, 142, 173, 114, 141, 132, 63, 1, 1.08532
92, 3, wb, attraction, a-b-db, 5, 3, 1, 34, 117, 190, 120, 195, 195, 120, 1, 2.98368
92, 3, wb, attraction, a-b-db, 5, 3, 1, 34, 117, 190, 120, 195, 195, 120, 2, 2.01474
92, 3, wb, attraction, a-b-db, 5, 2, 1, 35, 88, 161, 165, 90, 90, 165, 2, 5.73935
92, 3, wb, attraction, a-b-db, 5, 2, 1, 35, 88, 161, 165, 90, 90, 165, 3, 2.64361
92, 3, wb, catch, NA, 999, 999, 1, 36, 142, 173, 79, 116, 137, 118, 2, 1.24658
92, 3, wb, catch, NA, 999, 999, 1, 36, 142, 173, 79, 116, 137, 118, 1, 1.13154
92, 3, wb, attraction, a-b-db, 9, 1, 1, 37, 135, 60, 57, 129, 60, 135, 2, 2.33983
92, 3, wb, attraction, a-b-db, 9, 1, 1, 37, 135, 60, 57, 129, 60, 135, 3, 1.90846
92, 3, wb, attraction, a-b-db, 2, 2, 2, 1, 165, 90, 89, 163, 90, 165, 2, 9.6452
92, 3, wb, attraction, a-b-db, 2, 2, 2, 1, 165, 90, 89, 163, 90, 165, 3, 0.751301
92, 3, wb, attraction, a-b-da, 14, 2, 2, 2, 90, 165, 165, 90, 153, 83, 2, 1.99109
92, 3, wb, attraction, a-b-da, 14, 2, 2, 2, 90, 165, 165, 90, 153, 83, 3, 0.96575
92, 3, wb, filler, NA, 999, 999, 2, 3, 96, 158, 180, 103, 147, 143, 1, 3.42878
92, 3, wb, filler, NA, 999, 999, 2, 3, 96, 158, 180, 103, 147, 143, 3, 0.993684
92, 3, wb, catch, NA, 999, 999, 2, 4, 143, 172, 126, 69, 93, 162, 2, 2.27922
92, 3, wb, catch, NA, 999, 999, 2, 4, 143, 172, 126, 69, 93, 162, 1, 1.1865
92, 3, wb, attraction, a-b-db, 2, 1, 2, 5, 135, 60, 60, 135, 59, 134, 1, 1.9848
92, 3, wb, attraction, a-b-db, 2, 1, 2, 5, 135, 60, 60, 135, 59, 134, 2, 0.808106
92, 3, wb, filler, NA, 999, 999, 2, 6, 188, 178, 187, 187, 141, 113, 3, 1.38109
92, 3, wb, filler, NA, 999, 999, 2, 6, 188, 178, 187, 187, 141, 113, 2, 1.34861
92, 3, wb, attraction, a-b-db, 14, 1, 2, 7, 60, 135, 56, 125, 135, 60, 2, 1.97224
92, 3, wb, attraction, a-b-db, 14, 1, 2, 7, 60, 135, 56, 125, 135, 60, 1, 1.51551
92, 3, wb, attraction, a-b-da, 2, 3, 2, 8, 195, 120, 120, 195, 193, 119, 2, 2.22832
92, 3, wb, attraction, a-b-da, 2, 3, 2, 8, 195, 120, 120, 195, 193, 119, 1, 1.34564
92, 3, wb, attraction, a-b-db, 9, 2, 2, 9, 165, 90, 90, 165, 86, 157, 2, 6.6891
92, 3, wb, attraction, a-b-db, 9, 2, 2, 9, 165, 90, 90, 165, 86, 157, 1, 1.107
92, 3, wb, catch, NA, 999, 999, 2, 10, 104, 91, 163, 152, 118, 137, 1, 1.76973
92, 3, wb, catch, NA, 999, 999, 2, 10, 104, 91, 163, 152, 118, 137, 2, 0.804043
92, 3, wb, filler, NA, 999, 999, 2, 11, 73, 191, 127, 74, 86, 91, 2, 2.08977
92, 3, wb, filler, NA, 999, 999, 2, 11, 73, 191, 127, 74, 86, 91, 1, 1.66839
92, 3, wb, attraction, a-b-da, 9, 2, 2, 12, 157, 86, 90, 165, 165, 90, 1, 13.4951
92, 3, wb, attraction, a-b-da, 9, 2, 2, 12, 157, 86, 90, 165, 165, 90, 2, 1.21435
92, 3, wb, attraction, a-b-db, 5, 1, 2, 13, 60, 135, 135, 60, 58, 132, 1, 1.123
92, 3, wb, attraction, a-b-db, 5, 1, 2, 13, 60, 135, 135, 60, 58, 132, 2, 0.89268
92, 3, wb, filler, NA, 999, 999, 2, 14, 106, 160, 153, 173, 98, 180, 1, 1.34244
92, 3, wb, filler, NA, 999, 999, 2, 14, 106, 160, 153, 173, 98, 180, 2, 0.663233
92, 3, wb, attraction, a-b-da, 5, 2, 2, 15, 161, 88, 90, 165, 165, 90, 3, 0.866341
92, 3, wb, attraction, a-b-da, 5, 2, 2, 15, 161, 88, 90, 165, 165, 90, 2, 0.638715
92, 3, wb, attraction, a-b-da, 14, 3, 2, 16, 120, 195, 195, 120, 181, 111, 1, 1.49123
92, 3, wb, attraction, a-b-da, 14, 3, 2, 16, 120, 195, 195, 120, 181, 111, 2, 1.25397
92, 3, wb, catch, NA, 999, 999, 2, 17, 147, 108, 152, 163, 86, 109, 3, 0.993531
92, 3, wb, catch, NA, 999, 999, 2, 17, 147, 108, 152, 163, 86, 109, 2, 0.888528
92, 3, wb, attraction, a-b-db, 9, 1, 2, 18, 57, 129, 135, 60, 60, 135, 3, 1.85081
92, 3, wb, attraction, a-b-db, 9, 1, 2, 18, 57, 129, 135, 60, 60, 135, 2, 0.679579
92, 3, wb, filler, NA, 999, 999, 2, 19, 122, 178, 79, 137, 67, 60, 3, 1.71402
92, 3, wb, filler, NA, 999, 999, 2, 19, 122, 178, 79, 137, 67, 60, 1, 0.820148
92, 3, wb, attraction, a-b-da, 5, 3, 2, 20, 195, 120, 120, 195, 190, 117, 3, 2.37707
92, 3, wb, attraction, a-b-da, 5, 3, 2, 20, 195, 120, 120, 195, 190, 117, 2, 0.76834
92, 3, wb, filler, NA, 999, 999, 2, 21, 170, 175, 98, 178, 102, 90, 3, 0.911352
92, 3, wb, filler, NA, 999, 999, 2, 21, 170, 175, 98, 178, 102, 90, 1, 0.865654
92, 3, wb, attraction, a-b-db, 5, 2, 2, 22, 88, 161, 90, 165, 165, 90, 1, 2.35671
92, 3, wb, attraction, a-b-db, 5, 2, 2, 22, 88, 161, 90, 165, 165, 90, 2, 0.876611
92, 3, wb, filler, NA, 999, 999, 2, 23, 174, 138, 131, 184, 123, 186, 1, 5.34299
92, 3, wb, filler, NA, 999, 999, 2, 23, 174, 138, 131, 184, 123, 186, 2, 1.13453
92, 3, wb, filler, NA, 999, 999, 2, 24, 92, 65, 146, 139, 96, 161, 1, 1.3108
92, 3, wb, filler, NA, 999, 999, 2, 24, 92, 65, 146, 139, 96, 161, 2, 0.873045
92, 3, wb, attraction, a-b-db, 2, 3, 2, 25, 119, 193, 120, 195, 195, 120, 1, 2.68413
92, 3, wb, attraction, a-b-db, 2, 3, 2, 25, 119, 193, 120, 195, 195, 120, 2, 1.6872
92, 3, wb, attraction, a-b-da, 5, 1, 2, 26, 132, 58, 60, 135, 135, 60, 1, 2.62536
92, 3, wb, attraction, a-b-da, 5, 1, 2, 26, 132, 58, 60, 135, 135, 60, 3, 2.79058
92, 3, wb, attraction, a-b-da, 14, 1, 2, 27, 125, 56, 135, 60, 60, 135, 1, 1.50014
92, 3, wb, attraction, a-b-da, 14, 1, 2, 27, 125, 56, 135, 60, 60, 135, 2, 0.903084
92, 3, wb, attraction, a-b-db, 14, 2, 2, 28, 165, 90, 83, 153, 90, 165, 1, 12.6408
92, 3, wb, attraction, a-b-db, 14, 2, 2, 28, 165, 90, 83, 153, 90, 165, 3, 1.45084
92, 3, wb, attraction, a-b-db, 14, 3, 2, 29, 120, 195, 195, 120, 111, 181, 1, 6.66222
92, 3, wb, attraction, a-b-db, 14, 3, 2, 29, 120, 195, 195, 120, 111, 181, 2, 1.15269
92, 3, wb, attraction, a-b-da, 2, 2, 2, 30, 163, 89, 165, 90, 90, 165, 1, 1.23238
92, 3, wb, attraction, a-b-da, 2, 2, 2, 30, 163, 89, 165, 90, 90, 165, 3, 0.870008
92, 3, wb, attraction, a-b-da, 2, 1, 2, 31, 134, 59, 135, 60, 60, 135, 1, 1.52888
92, 3, wb, attraction, a-b-da, 2, 1, 2, 31, 134, 59, 135, 60, 60, 135, 2, 0.802503
92, 3, wb, filler, NA, 999, 999, 2, 32, 86, 170, 182, 89, 79, 139, 3, 8.03216
92, 3, wb, filler, NA, 999, 999, 2, 32, 86, 170, 182, 89, 79, 139, 2, 0.987675
92, 3, wb, attraction, a-b-db, 9, 3, 2, 33, 195, 120, 120, 195, 114, 186, 1, 2.36988
92, 3, wb, attraction, a-b-db, 9, 3, 2, 33, 195, 120, 120, 195, 114, 186, 2, 0.441763
92, 3, wb, attraction, a-b-da, 9, 3, 2, 34, 195, 120, 186, 114, 120, 195, 2, 2.79756
92, 3, wb, attraction, a-b-da, 9, 3, 2, 34, 195, 120, 186, 114, 120, 195, 3, 1.80413
92, 3, wb, filler, NA, 999, 999, 2, 35, 179, 158, 132, 111, 65, 112, 3, 1.44941
92, 3, wb, filler, NA, 999, 999, 2, 35, 179, 158, 132, 111, 65, 112, 1, 0.822224
92, 3, wb, attraction, a-b-da, 9, 1, 2, 36, 129, 57, 135, 60, 60, 135, 1, 2.73921
92, 3, wb, attraction, a-b-da, 9, 1, 2, 36, 129, 57, 135, 60, 60, 135, 3, 1.69978
92, 3, wb, attraction, a-b-db, 5, 3, 2, 37, 120, 195, 117, 190, 195, 120, 1, 1.61324
92, 3, wb, attraction, a-b-db, 5, 3, 2, 37, 120, 195, 117, 190, 195, 120, 2, 1.4673
92, 3, wb, catch, NA, 999, 999, 3, 1, 97, 158, 84, 111, 125, 190, 2, 5.65406
92, 3, wb, catch, NA, 999, 999, 3, 1, 97, 158, 84, 111, 125, 190, 3, 0.77775
92, 3, wb, attraction, a-b-db, 5, 2, 3, 2, 165, 90, 90, 165, 88, 161, 1, 0.783993
92, 3, wb, attraction, a-b-db, 5, 2, 3, 2, 165, 90, 90, 165, 88, 161, 2, 0.751659
92, 3, wb, attraction, a-b-da, 2, 3, 3, 3, 193, 119, 120, 195, 195, 120, 1, 1.23945
92, 3, wb, attraction, a-b-da, 2, 3, 3, 3, 193, 119, 120, 195, 195, 120, 3, 0.684375
92, 3, wb, attraction, a-b-da, 14, 2, 3, 4, 153, 83, 165, 90, 90, 165, 1, 0.742691
92, 3, wb, attraction, a-b-da, 14, 2, 3, 4, 153, 83, 165, 90, 90, 165, 2, 0.535751
92, 3, wb, attraction, a-b-db, 5, 1, 3, 5, 58, 132, 60, 135, 135, 60, 3, 2.79226
92, 3, wb, attraction, a-b-db, 5, 1, 3, 5, 58, 132, 60, 135, 135, 60, 2, 0.374814
92, 3, wb, attraction, a-b-da, 2, 1, 3, 6, 134, 59, 60, 135, 135, 60, 1, 2.54127
92, 3, wb, attraction, a-b-da, 2, 1, 3, 6, 134, 59, 60, 135, 135, 60, 2, 0.442559
92, 3, wb, attraction, a-b-da, 14, 1, 3, 7, 125, 56, 60, 135, 135, 60, 1, 7.48149
92, 3, wb, attraction, a-b-da, 14, 1, 3, 7, 125, 56, 60, 135, 135, 60, 2, 1.72304
92, 3, wb, filler, NA, 999, 999, 3, 8, 160, 165, 173, 92, 87, 178, 3, 3.62792
92, 3, wb, filler, NA, 999, 999, 3, 8, 160, 165, 173, 92, 87, 178, 1, 0.504726
92, 3, wb, attraction, a-b-db, 9, 1, 3, 9, 60, 135, 135, 60, 57, 129, 1, 9.25049
92, 3, wb, attraction, a-b-db, 9, 1, 3, 9, 60, 135, 135, 60, 57, 129, 2, 0.94088
92, 3, wb, attraction, a-b-da, 14, 3, 3, 10, 181, 111, 120, 195, 195, 120, 1, 1.15648
92, 3, wb, attraction, a-b-da, 14, 3, 3, 10, 181, 111, 120, 195, 195, 120, 2, 1.05295
92, 3, wb, catch, NA, 999, 999, 3, 11, 148, 167, 123, 132, 120, 75, 3, 1.32844
92, 3, wb, catch, NA, 999, 999, 3, 11, 148, 167, 123, 132, 120, 75, 1, 0.906157
92, 3, wb, attraction, a-b-db, 5, 3, 3, 12, 195, 120, 120, 195, 117, 190, 1, 1.42781
92, 3, wb, attraction, a-b-db, 5, 3, 3, 12, 195, 120, 120, 195, 117, 190, 3, 0.585219
92, 3, wb, filler, NA, 999, 999, 3, 13, 152, 64, 181, 139, 104, 101, 1, 0.975704
92, 3, wb, filler, NA, 999, 999, 3, 13, 152, 64, 181, 139, 104, 101, 2, 0.695264
92, 3, wb, attraction, a-b-db, 14, 3, 3, 14, 120, 195, 111, 181, 195, 120, 2, 1.68899
92, 3, wb, attraction, a-b-db, 14, 3, 3, 14, 120, 195, 111, 181, 195, 120, 3, 0.563867
92, 3, wb, attraction, a-b-da, 5, 2, 3, 15, 161, 88, 165, 90, 90, 165, 1, 0.77882
92, 3, wb, attraction, a-b-da, 5, 2, 3, 15, 161, 88, 165, 90, 90, 165, 2, 0.570548
92, 3, wb, catch, NA, 999, 999, 3, 16, 128, 187, 106, 89, 115, 140, 2, 1.1698
92, 3, wb, catch, NA, 999, 999, 3, 16, 128, 187, 106, 89, 115, 140, 1, 0.64211
92, 3, wb, filler, NA, 999, 999, 3, 17, 114, 113, 176, 118, 123, 136, 1, 0.565798
92, 3, wb, filler, NA, 999, 999, 3, 17, 114, 113, 176, 118, 123, 136, 2, 2.76615
92, 3, wb, attraction, a-b-db, 14, 2, 3, 18, 83, 153, 90, 165, 165, 90, 1, 3.58062
92, 3, wb, attraction, a-b-db, 14, 2, 3, 18, 83, 153, 90, 165, 165, 90, 3, 0.715428
92, 3, wb, attraction, a-b-da, 9, 3, 3, 19, 195, 120, 186, 114, 120, 195, 1, 6.66858
92, 3, wb, attraction, a-b-da, 9, 3, 3, 19, 195, 120, 186, 114, 120, 195, 2, 0.775081
92, 3, wb, filler, NA, 999, 999, 3, 20, 73, 84, 150, 63, 125, 122, 1, 2.2616
92, 3, wb, filler, NA, 999, 999, 3, 20, 73, 84, 150, 63, 125, 122, 3, 1.57745
92, 3, wb, attraction, a-b-da, 9, 1, 3, 21, 60, 135, 135, 60, 129, 57, 1, 26.1275
92, 3, wb, attraction, a-b-da, 9, 1, 3, 21, 60, 135, 135, 60, 129, 57, 3, 0.434155
92, 3, wb, attraction, a-b-db, 14, 1, 3, 22, 135, 60, 56, 125, 60, 135, 2, 2.4784
92, 3, wb, attraction, a-b-db, 14, 1, 3, 22, 135, 60, 56, 125, 60, 135, 1, 0.641583
92, 3, wb, filler, NA, 999, 999, 3, 23, 95, 177, 72, 113, 85, 153, 2, 2.02937
92, 3, wb, filler, NA, 999, 999, 3, 23, 95, 177, 72, 113, 85, 153, 1, 0.914705
92, 3, wb, attraction, a-b-db, 2, 2, 3, 24, 90, 165, 165, 90, 89, 163, 3, 1.91572
92, 3, wb, attraction, a-b-db, 2, 2, 3, 24, 90, 165, 165, 90, 89, 163, 2, 0.653775
92, 3, wb, attraction, a-b-da, 2, 2, 3, 25, 90, 165, 163, 89, 165, 90, 2, 4.86546
92, 3, wb, attraction, a-b-da, 2, 2, 3, 25, 90, 165, 163, 89, 165, 90, 1, 1.00454
92, 3, wb, attraction, a-b-db, 9, 2, 3, 26, 86, 157, 90, 165, 165, 90, 1, 1.37816
92, 3, wb, attraction, a-b-db, 9, 2, 3, 26, 86, 157, 90, 165, 165, 90, 2, 1.19374
92, 3, wb, attraction, a-b-da, 9, 2, 3, 27, 157, 86, 90, 165, 165, 90, 3, 2.15938
92, 3, wb, attraction, a-b-da, 9, 2, 3, 27, 157, 86, 90, 165, 165, 90, 2, 1.07134
92, 3, wb, filler, NA, 999, 999, 3, 28, 130, 116, 112, 111, 119, 86, 3, 1.32228
92, 3, wb, filler, NA, 999, 999, 3, 28, 130, 116, 112, 111, 119, 86, 1, 1.69198
92, 3, wb, filler, NA, 999, 999, 3, 29, 172, 145, 166, 124, 188, 194, 2, 2.81319
92, 3, wb, filler, NA, 999, 999, 3, 29, 172, 145, 166, 124, 188, 194, 3, 0.60298
92, 3, wb, attraction, a-b-da, 5, 1, 3, 30, 135, 60, 132, 58, 60, 135, 1, 1.50472
92, 3, wb, attraction, a-b-da, 5, 1, 3, 30, 135, 60, 132, 58, 60, 135, 2, 4.74768
92, 3, wb, filler, NA, 999, 999, 3, 31, 110, 135, 129, 93, 138, 170, 2, 1.362
92, 3, wb, filler, NA, 999, 999, 3, 31, 110, 135, 129, 93, 138, 170, 3, 0.682261
92, 3, wb, attraction, a-b-da, 5, 3, 3, 32, 190, 117, 120, 195, 195, 120, 1, 1.40477
92, 3, wb, attraction, a-b-da, 5, 3, 3, 32, 190, 117, 120, 195, 195, 120, 3, 1.49889
92, 3, wb, filler, NA, 999, 999, 3, 33, 142, 143, 104, 101, 73, 103, 3, 1.23642
92, 3, wb, filler, NA, 999, 999, 3, 33, 142, 143, 104, 101, 73, 103, 1, 0.889885
92, 3, wb, filler, NA, 999, 999, 3, 34, 134, 63, 99, 155, 134, 194, 1, 1.32423
92, 3, wb, filler, NA, 999, 999, 3, 34, 134, 63, 99, 155, 134, 194, 3, 1.0219
92, 3, wb, attraction, a-b-db, 2, 1, 3, 35, 59, 134, 135, 60, 60, 135, 1, 1.6267
92, 3, wb, attraction, a-b-db, 2, 1, 3, 35, 59, 134, 135, 60, 60, 135, 2, 1.16018
92, 3, wb, attraction, a-b-db, 9, 3, 3, 36, 114, 186, 195, 120, 120, 195, 1, 1.38317
92, 3, wb, attraction, a-b-db, 9, 3, 3, 36, 114, 186, 195, 120, 120, 195, 2, 0.926634
92, 3, wb, attraction, a-b-db, 2, 3, 3, 37, 120, 195, 195, 120, 119, 193, 1, 1.15899
92, 3, wb, attraction, a-b-db, 2, 3, 3, 37, 120, 195, 195, 120, 119, 193, 2, 0.8152
92, 3, wb, catch, NA, 999, 999, 4, 1, 164, 91, 191, 124, 112, 83, 1, 10.1643
92, 3, wb, catch, NA, 999, 999, 4, 1, 164, 91, 191, 124, 112, 83, 2, 1.76974
92, 3, wb, filler, NA, 999, 999, 4, 2, 104, 156, 110, 67, 122, 137, 2, 1.94444
92, 3, wb, filler, NA, 999, 999, 4, 2, 104, 156, 110, 67, 122, 137, 3, 1.42533
92, 3, wb, attraction, a-b-da, 5, 2, 4, 3, 165, 90, 161, 88, 90, 165, 1, 1.64534
92, 3, wb, attraction, a-b-da, 5, 2, 4, 3, 165, 90, 161, 88, 90, 165, 2, 0.61028
92, 3, wb, attraction, a-b-db, 14, 2, 4, 4, 83, 153, 165, 90, 90, 165, 1, 0.751331
92, 3, wb, attraction, a-b-db, 14, 2, 4, 4, 83, 153, 165, 90, 90, 165, 2, 1.02444
92, 3, wb, attraction, a-b-da, 9, 3, 4, 5, 120, 195, 186, 114, 195, 120, 2, 1.87652
92, 3, wb, attraction, a-b-da, 9, 3, 4, 5, 120, 195, 186, 114, 195, 120, 3, 1.29599
92, 3, wb, attraction, a-b-da, 2, 3, 4, 6, 195, 120, 193, 119, 120, 195, 1, 0.593534
92, 3, wb, attraction, a-b-da, 2, 3, 4, 6, 195, 120, 193, 119, 120, 195, 2, 0.688663
92, 3, wb, filler, NA, 999, 999, 4, 7, 135, 162, 87, 137, 157, 193, 2, 0.713592
92, 3, wb, filler, NA, 999, 999, 4, 7, 135, 162, 87, 137, 157, 193, 1, 0.781466
92, 3, wb, attraction, a-b-db, 2, 2, 4, 8, 90, 165, 89, 163, 165, 90, 1, 0.971678
92, 3, wb, attraction, a-b-db, 2, 2, 4, 8, 90, 165, 89, 163, 165, 90, 3, 0.563398
92, 3, wb, filler, NA, 999, 999, 4, 9, 143, 108, 149, 146, 122, 128, 3, 1.42659
92, 3, wb, filler, NA, 999, 999, 4, 9, 143, 108, 149, 146, 122, 128, 2, 0.848112
92, 3, wb, attraction, a-b-db, 5, 3, 4, 10, 117, 190, 120, 195, 195, 120, 1, 0.85185
92, 3, wb, attraction, a-b-db, 5, 3, 4, 10, 117, 190, 120, 195, 195, 120, 2, 0.688846
92, 3, wb, attraction, a-b-da, 5, 1, 4, 11, 135, 60, 132, 58, 60, 135, 1, 0.795252
92, 3, wb, attraction, a-b-da, 5, 1, 4, 11, 135, 60, 132, 58, 60, 135, 2, 0.730298
92, 3, wb, attraction, a-b-da, 5, 3, 4, 12, 120, 195, 195, 120, 190, 117, 3, 0.730601
92, 3, wb, attraction, a-b-da, 5, 3, 4, 12, 120, 195, 195, 120, 190, 117, 2, 0.580368
92, 3, wb, attraction, a-b-db, 14, 3, 4, 13, 195, 120, 120, 195, 111, 181, 1, 0.626765
92, 3, wb, attraction, a-b-db, 14, 3, 4, 13, 195, 120, 120, 195, 111, 181, 3, 0.584632
92, 3, wb, filler, NA, 999, 999, 4, 14, 163, 156, 89, 191, 117, 127, 3, 1.43899
92, 3, wb, filler, NA, 999, 999, 4, 14, 163, 156, 89, 191, 117, 127, 1, 1.16384
92, 3, wb, filler, NA, 999, 999, 4, 15, 154, 61, 165, 84, 161, 73, 1, 0.810773
92, 3, wb, filler, NA, 999, 999, 4, 15, 154, 61, 165, 84, 161, 73, 2, 1.15304
92, 3, wb, filler, NA, 999, 999, 4, 16, 102, 167, 187, 89, 89, 138, 3, 3.06474
92, 3, wb, filler, NA, 999, 999, 4, 16, 102, 167, 187, 89, 89, 138, 1, 0.924423
92, 3, wb, attraction, a-b-db, 2, 3, 4, 17, 195, 120, 120, 195, 119, 193, 2, 2.82075
92, 3, wb, attraction, a-b-db, 2, 3, 4, 17, 195, 120, 120, 195, 119, 193, 1, 1.33846
92, 3, wb, filler, NA, 999, 999, 4, 18, 59, 153, 109, 177, 170, 165, 1, 0.95472
92, 3, wb, filler, NA, 999, 999, 4, 18, 59, 153, 109, 177, 170, 165, 3, 1.32319
92, 3, wb, attraction, a-b-db, 14, 1, 4, 19, 56, 125, 135, 60, 60, 135, 1, 1.84395
92, 3, wb, attraction, a-b-db, 14, 1, 4, 19, 56, 125, 135, 60, 60, 135, 2, 0.768763
92, 3, wb, attraction, a-b-db, 9, 2, 4, 20, 86, 157, 165, 90, 90, 165, 1, 0.511711
92, 3, wb, attraction, a-b-db, 9, 2, 4, 20, 86, 157, 165, 90, 90, 165, 2, 1.06621
92, 3, wb, catch, NA, 999, 999, 4, 21, 189, 126, 123, 72, 112, 143, 2, 0.9971
92, 3, wb, catch, NA, 999, 999, 4, 21, 189, 126, 123, 72, 112, 143, 1, 0.564087
92, 3, wb, filler, NA, 999, 999, 4, 22, 70, 118, 108, 163, 153, 68, 1, 0.763278
92, 3, wb, filler, NA, 999, 999, 4, 22, 70, 118, 108, 163, 153, 68, 2, 0.611673
92, 3, wb, attraction, a-b-da, 14, 1, 4, 23, 135, 60, 60, 135, 125, 56, 1, 1.56864
92, 3, wb, attraction, a-b-da, 14, 1, 4, 23, 135, 60, 60, 135, 125, 56, 2, 0.680817
92, 3, wb, catch, NA, 999, 999, 4, 24, 167, 148, 140, 115, 85, 110, 3, 1.21122
92, 3, wb, catch, NA, 999, 999, 4, 24, 167, 148, 140, 115, 85, 110, 1, 0.78547
92, 3, wb, attraction, a-b-da, 9, 1, 4, 25, 60, 135, 129, 57, 135, 60, 2, 1.29586
92, 3, wb, attraction, a-b-da, 9, 1, 4, 25, 60, 135, 129, 57, 135, 60, 1, 0.6508
92, 3, wb, attraction, a-b-da, 9, 2, 4, 26, 157, 86, 165, 90, 90, 165, 1, 3.07052
92, 3, wb, attraction, a-b-da, 9, 2, 4, 26, 157, 86, 165, 90, 90, 165, 2, 0.498151
92, 3, wb, attraction, a-b-db, 5, 2, 4, 27, 165, 90, 90, 165, 88, 161, 1, 8.25992
92, 3, wb, attraction, a-b-db, 5, 2, 4, 27, 165, 90, 90, 165, 88, 161, 2, 0.702028
92, 3, wb, attraction, a-b-db, 9, 1, 4, 28, 60, 135, 57, 129, 135, 60, 3, 1.60055
92, 3, wb, attraction, a-b-db, 9, 1, 4, 28, 60, 135, 57, 129, 135, 60, 2, 1.05445
92, 3, wb, attraction, a-b-db, 2, 1, 4, 29, 135, 60, 59, 134, 60, 135, 1, 0.682959
92, 3, wb, attraction, a-b-db, 2, 1, 4, 29, 135, 60, 59, 134, 60, 135, 3, 0.710021
92, 3, wb, filler, NA, 999, 999, 4, 30, 124, 132, 76, 109, 92, 84, 2, 1.63896
92, 3, wb, filler, NA, 999, 999, 4, 30, 124, 132, 76, 109, 92, 84, 1, 0.555759
92, 3, wb, attraction, a-b-da, 14, 2, 4, 31, 90, 165, 153, 83, 165, 90, 1, 8.19551
92, 3, wb, attraction, a-b-da, 14, 2, 4, 31, 90, 165, 153, 83, 165, 90, 2, 0.512228
92, 3, wb, attraction, a-b-da, 2, 1, 4, 32, 135, 60, 60, 135, 134, 59, 3, 2.38537
92, 3, wb, attraction, a-b-da, 2, 1, 4, 32, 135, 60, 60, 135, 134, 59, 2, 0.432667
92, 3, wb, filler, NA, 999, 999, 4, 33, 85, 167, 67, 121, 61, 107, 3, 1.04505
92, 3, wb, filler, NA, 999, 999, 4, 33, 85, 167, 67, 121, 61, 107, 1, 0.634068
92, 3, wb, attraction, a-b-db, 9, 3, 4, 34, 195, 120, 114, 186, 120, 195, 1, 1.51855
92, 3, wb, attraction, a-b-db, 9, 3, 4, 34, 195, 120, 114, 186, 120, 195, 2, 1.76066
92, 3, wb, attraction, a-b-da, 2, 2, 4, 35, 163, 89, 165, 90, 90, 165, 1, 1.12738
92, 3, wb, attraction, a-b-da, 2, 2, 4, 35, 163, 89, 165, 90, 90, 165, 3, 0.880945
92, 3, wb, attraction, a-b-da, 14, 3, 4, 36, 120, 195, 181, 111, 195, 120, 2, 4.10728
92, 3, wb, attraction, a-b-da, 14, 3, 4, 36, 120, 195, 181, 111, 195, 120, 1, 1.59673
92, 3, wb, attraction, a-b-db, 5, 1, 4, 37, 135, 60, 58, 132, 60, 135, 2, 3.20204
92, 3, wb, attraction, a-b-db, 5, 1, 4, 37, 135, 60, 58, 132, 60, 135, 1, 0.920406
92, 3, wb, attraction, a-b-da, 2, 3, 5, 1, 193, 119, 120, 195, 195, 120, 1, 7.76732
92, 3, wb, attraction, a-b-da, 2, 3, 5, 1, 193, 119, 120, 195, 195, 120, 2, 0.605533
92, 3, wb, attraction, a-b-da, 9, 1, 5, 2, 60, 135, 135, 60, 129, 57, 1, 0.939374
92, 3, wb, attraction, a-b-da, 9, 1, 5, 2, 60, 135, 135, 60, 129, 57, 2, 0.74829
92, 3, wb, attraction, a-b-da, 9, 2, 5, 3, 90, 165, 157, 86, 165, 90, 1, 2.40401
92, 3, wb, attraction, a-b-da, 9, 2, 5, 3, 90, 165, 157, 86, 165, 90, 3, 0.845405
92, 3, wb, attraction, a-b-db, 9, 1, 5, 4, 57, 129, 60, 135, 135, 60, 1, 4.30231
92, 3, wb, attraction, a-b-db, 9, 1, 5, 4, 57, 129, 60, 135, 135, 60, 3, 1.6802
92, 3, wb, attraction, a-b-db, 5, 3, 5, 5, 120, 195, 117, 190, 195, 120, 1, 1.33039
92, 3, wb, attraction, a-b-db, 5, 3, 5, 5, 120, 195, 117, 190, 195, 120, 2, 0.899909
92, 3, wb, filler, NA, 999, 999, 5, 6, 60, 161, 96, 112, 74, 171, 1, 4.78957
92, 3, wb, filler, NA, 999, 999, 5, 6, 60, 161, 96, 112, 74, 171, 3, 2.15537
92, 3, wb, attraction, a-b-db, 2, 3, 5, 7, 195, 120, 120, 195, 119, 193, 3, 13.9386
92, 3, wb, attraction, a-b-db, 2, 3, 5, 7, 195, 120, 120, 195, 119, 193, 2, 0.520216
92, 3, wb, attraction, a-b-da, 5, 2, 5, 8, 161, 88, 90, 165, 165, 90, 1, 0.737271
92, 3, wb, attraction, a-b-da, 5, 2, 5, 8, 161, 88, 90, 165, 165, 90, 2, 1.01113
92, 3, wb, attraction, a-b-db, 14, 3, 5, 9, 195, 120, 111, 181, 120, 195, 1, 0.760039
92, 3, wb, attraction, a-b-db, 14, 3, 5, 9, 195, 120, 111, 181, 120, 195, 2, 0.592613
92, 3, wb, catch, NA, 999, 999, 5, 10, 121, 74, 146, 109, 150, 165, 1, 0.974353
92, 3, wb, catch, NA, 999, 999, 5, 10, 121, 74, 146, 109, 150, 165, 2, 0.373866
92, 3, wb, filler, NA, 999, 999, 5, 11, 110, 133, 88, 137, 65, 145, 3, 2.09233
92, 3, wb, filler, NA, 999, 999, 5, 11, 110, 133, 88, 137, 65, 145, 1, 0.415019
92, 3, wb, attraction, a-b-db, 9, 3, 5, 12, 195, 120, 120, 195, 114, 186, 1, 1.19612
92, 3, wb, attraction, a-b-db, 9, 3, 5, 12, 195, 120, 120, 195, 114, 186, 2, 0.523214
92, 3, wb, filler, NA, 999, 999, 5, 13, 131, 83, 147, 70, 65, 121, 3, 1.00417
92, 3, wb, filler, NA, 999, 999, 5, 13, 131, 83, 147, 70, 65, 121, 1, 0.810553
92, 3, wb, catch, NA, 999, 999, 5, 14, 170, 145, 117, 138, 87, 108, 3, 0.975538
92, 3, wb, catch, NA, 999, 999, 5, 14, 170, 145, 117, 138, 87, 108, 1, 0.494361
92, 3, wb, filler, NA, 999, 999, 5, 15, 178, 57, 65, 180, 163, 100, 2, 1.12902
92, 3, wb, filler, NA, 999, 999, 5, 15, 178, 57, 65, 180, 163, 100, 3, 0.810613
92, 3, wb, filler, NA, 999, 999, 5, 16, 81, 159, 157, 80, 121, 160, 1, 0.935642
92, 3, wb, filler, NA, 999, 999, 5, 16, 81, 159, 157, 80, 121, 160, 3, 0.833357
92, 3, wb, filler, NA, 999, 999, 5, 17, 65, 146, 113, 104, 154, 88, 1, 0.701636
92, 3, wb, filler, NA, 999, 999, 5, 17, 65, 146, 113, 104, 154, 88, 2, 0.616719
92, 3, wb, attraction, a-b-db, 5, 1, 5, 18, 135, 60, 58, 132, 60, 135, 2, 1.17393
92, 3, wb, attraction, a-b-db, 5, 1, 5, 18, 135, 60, 58, 132, 60, 135, 1, 1.42942
92, 3, wb, attraction, a-b-da, 2, 2, 5, 19, 90, 165, 163, 89, 165, 90, 1, 4.20166
92, 3, wb, attraction, a-b-da, 2, 2, 5, 19, 90, 165, 163, 89, 165, 90, 2, 1.16764
92, 3, wb, attraction, a-b-db, 2, 1, 5, 20, 135, 60, 59, 134, 60, 135, 2, 7.43059
92, 3, wb, attraction, a-b-db, 2, 1, 5, 20, 135, 60, 59, 134, 60, 135, 1, 0.60217
92, 3, wb, attraction, a-b-da, 9, 3, 5, 21, 120, 195, 195, 120, 186, 114, 1, 2.94384
92, 3, wb, attraction, a-b-da, 9, 3, 5, 21, 120, 195, 195, 120, 186, 114, 2, 0.576319
92, 3, wb, attraction, a-b-da, 2, 1, 5, 22, 60, 135, 134, 59, 135, 60, 1, 1.11872
92, 3, wb, attraction, a-b-da, 2, 1, 5, 22, 60, 135, 134, 59, 135, 60, 2, 0.737081
92, 3, wb, attraction, a-b-db, 14, 1, 5, 23, 56, 125, 135, 60, 60, 135, 1, 0.825438
92, 3, wb, attraction, a-b-db, 14, 1, 5, 23, 56, 125, 135, 60, 60, 135, 3, 0.631255
92, 3, wb, filler, NA, 999, 999, 5, 24, 87, 189, 160, 61, 142, 115, 2, 1.72355
92, 3, wb, filler, NA, 999, 999, 5, 24, 87, 189, 160, 61, 142, 115, 3, 0.589051
92, 3, wb, attraction, a-b-da, 14, 2, 5, 25, 165, 90, 153, 83, 90, 165, 1, 2.10744
92, 3, wb, attraction, a-b-da, 14, 2, 5, 25, 165, 90, 153, 83, 90, 165, 3, 1.14941
92, 3, wb, attraction, a-b-da, 14, 3, 5, 26, 195, 120, 181, 111, 120, 195, 1, 1.90105
92, 3, wb, attraction, a-b-da, 14, 3, 5, 26, 195, 120, 181, 111, 120, 195, 2, 1.21565
92, 3, wb, attraction, a-b-da, 5, 1, 5, 27, 132, 58, 60, 135, 135, 60, 1, 1.02065
92, 3, wb, attraction, a-b-da, 5, 1, 5, 27, 132, 58, 60, 135, 135, 60, 2, 1.29888
92, 3, wb, attraction, a-b-db, 2, 2, 5, 28, 90, 165, 89, 163, 165, 90, 1, 0.772366
92, 3, wb, attraction, a-b-db, 2, 2, 5, 28, 90, 165, 89, 163, 165, 90, 2, 1.18012
92, 3, wb, catch, NA, 999, 999, 5, 29, 117, 138, 145, 170, 128, 67, 3, 1.45849
92, 3, wb, catch, NA, 999, 999, 5, 29, 117, 138, 145, 170, 128, 67, 2, 0.622548
92, 3, wb, attraction, a-b-db, 9, 2, 5, 30, 165, 90, 90, 165, 86, 157, 1, 0.803601
92, 3, wb, attraction, a-b-db, 9, 2, 5, 30, 165, 90, 90, 165, 86, 157, 2, 0.810798
92, 3, wb, filler, NA, 999, 999, 5, 31, 122, 66, 61, 166, 163, 149, 1, 0.767728
92, 3, wb, filler, NA, 999, 999, 5, 31, 122, 66, 61, 166, 163, 149, 3, 0.576308
92, 3, wb, attraction, a-b-da, 14, 1, 5, 32, 135, 60, 125, 56, 60, 135, 2, 1.15874
92, 3, wb, attraction, a-b-da, 14, 1, 5, 32, 135, 60, 125, 56, 60, 135, 1, 1.01481
92, 3, wb, filler, NA, 999, 999, 5, 33, 70, 115, 82, 149, 78, 167, 1, 0.98784
92, 3, wb, filler, NA, 999, 999, 5, 33, 70, 115, 82, 149, 78, 167, 3, 0.851435
92, 3, wb, filler, NA, 999, 999, 5, 34, 140, 158, 76, 94, 122, 180, 2, 1.01509
92, 3, wb, filler, NA, 999, 999, 5, 34, 140, 158, 76, 94, 122, 180, 1, 0.789467
92, 3, wb, attraction, a-b-db, 14, 2, 5, 35, 83, 153, 90, 165, 165, 90, 1, 1.6038
92, 3, wb, attraction, a-b-db, 14, 2, 5, 35, 83, 153, 90, 165, 165, 90, 2, 0.538568
92, 3, wb, attraction, a-b-db, 5, 2, 5, 36, 165, 90, 90, 165, 88, 161, 2, 1.45903
92, 3, wb, attraction, a-b-db, 5, 2, 5, 36, 165, 90, 90, 165, 88, 161, 1, 0.42326
92, 3, wb, attraction, a-b-da, 5, 3, 5, 37, 195, 120, 120, 195, 190, 117, 2, 1.13175
92, 3, wb, attraction, a-b-da, 5, 3, 5, 37, 195, 120, 120, 195, 190, 117, 3, 0.981282
92, 3, wb, filler, NA, 999, 999, 6, 1, 91, 97, 104, 81, 192, 62, 2, 3.02757
92, 3, wb, filler, NA, 999, 999, 6, 1, 91, 97, 104, 81, 192, 62, 3, 1.41666
92, 3, wb, attraction, a-b-db, 14, 3, 6, 2, 195, 120, 111, 181, 120, 195, 1, 4.45357
92, 3, wb, attraction, a-b-db, 14, 3, 6, 2, 195, 120, 111, 181, 120, 195, 2, 0.945526
92, 3, wb, attraction, a-b-da, 5, 3, 6, 3, 195, 120, 190, 117, 120, 195, 1, 4.03306
92, 3, wb, attraction, a-b-da, 5, 3, 6, 3, 195, 120, 190, 117, 120, 195, 3, 1.58978
92, 3, wb, attraction, a-b-db, 9, 2, 6, 4, 86, 157, 165, 90, 90, 165, 2, 5.08397
92, 3, wb, attraction, a-b-db, 9, 2, 6, 4, 86, 157, 165, 90, 90, 165, 3, 0.934361
92, 3, wb, attraction, a-b-db, 14, 2, 6, 5, 83, 153, 90, 165, 165, 90, 1, 0.686703
92, 3, wb, attraction, a-b-db, 14, 2, 6, 5, 83, 153, 90, 165, 165, 90, 3, 0.810408
92, 3, wb, attraction, a-b-db, 5, 3, 6, 6, 195, 120, 120, 195, 117, 190, 2, 1.20739
92, 3, wb, attraction, a-b-db, 5, 3, 6, 6, 195, 120, 120, 195, 117, 190, 1, 0.397652
92, 3, wb, attraction, a-b-db, 9, 1, 6, 7, 135, 60, 60, 135, 57, 129, 2, 0.651529
92, 3, wb, attraction, a-b-db, 9, 1, 6, 7, 135, 60, 60, 135, 57, 129, 1, 0.416548
92, 3, wb, filler, NA, 999, 999, 6, 8, 164, 132, 164, 139, 113, 167, 2, 0.493669
92, 3, wb, filler, NA, 999, 999, 6, 8, 164, 132, 164, 139, 113, 167, 1, 0.344849
92, 3, wb, filler, NA, 999, 999, 6, 9, 78, 84, 142, 139, 111, 131, 2, 0.520774
92, 3, wb, filler, NA, 999, 999, 6, 9, 78, 84, 142, 139, 111, 131, 3, 0.626673
92, 3, wb, filler, NA, 999, 999, 6, 10, 96, 158, 130, 165, 119, 166, 2, 1.11896
92, 3, wb, filler, NA, 999, 999, 6, 10, 96, 158, 130, 165, 119, 166, 3, 2.12925
92, 3, wb, filler, NA, 999, 999, 6, 11, 98, 164, 73, 149, 122, 123, 2, 1.16111
92, 3, wb, filler, NA, 999, 999, 6, 11, 98, 164, 73, 149, 122, 123, 1, 0.625428
92, 3, wb, attraction, a-b-da, 9, 1, 6, 12, 129, 57, 135, 60, 60, 135, 2, 1.37388
92, 3, wb, attraction, a-b-da, 9, 1, 6, 12, 129, 57, 135, 60, 60, 135, 3, 1.12549
92, 3, wb, attraction, a-b-da, 2, 3, 6, 13, 193, 119, 195, 120, 120, 195, 2, 3.10965
92, 3, wb, attraction, a-b-da, 2, 3, 6, 13, 193, 119, 195, 120, 120, 195, 3, 0.543353
92, 3, wb, attraction, a-b-db, 5, 2, 6, 14, 90, 165, 88, 161, 165, 90, 1, 1.20706
92, 3, wb, attraction, a-b-db, 5, 2, 6, 14, 90, 165, 88, 161, 165, 90, 3, 4.31735
92, 3, wb, filler, NA, 999, 999, 6, 15, 74, 143, 59, 155, 140, 131, 2, 1.95723
92, 3, wb, filler, NA, 999, 999, 6, 15, 74, 143, 59, 155, 140, 131, 3, 0.933287
92, 3, wb, catch, NA, 999, 999, 6, 16, 138, 117, 172, 143, 85, 110, 1, 1.01359
92, 3, wb, catch, NA, 999, 999, 6, 16, 138, 117, 172, 143, 85, 110, 3, 1.18793
92, 3, wb, attraction, a-b-da, 9, 2, 6, 17, 90, 165, 157, 86, 165, 90, 1, 1.00217
92, 3, wb, attraction, a-b-da, 9, 2, 6, 17, 90, 165, 157, 86, 165, 90, 2, 1.04918
92, 3, wb, catch, NA, 999, 999, 6, 18, 79, 116, 127, 188, 162, 93, 1, 0.852769
92, 3, wb, catch, NA, 999, 999, 6, 18, 79, 116, 127, 188, 162, 93, 3, 0.905968
92, 3, wb, attraction, a-b-da, 2, 2, 6, 19, 163, 89, 165, 90, 90, 165, 1, 2.34746
92, 3, wb, attraction, a-b-da, 2, 2, 6, 19, 163, 89, 165, 90, 90, 165, 2, 0.596069
92, 3, wb, attraction, a-b-db, 2, 1, 6, 20, 59, 134, 60, 135, 135, 60, 2, 0.68981
92, 3, wb, attraction, a-b-db, 2, 1, 6, 20, 59, 134, 60, 135, 135, 60, 3, 2.10104
92, 3, wb, attraction, a-b-db, 14, 1, 6, 21, 135, 60, 60, 135, 56, 125, 1, 17.4381
92, 3, wb, attraction, a-b-db, 14, 1, 6, 21, 135, 60, 60, 135, 56, 125, 2, 0.886677
92, 3, wb, filler, NA, 999, 999, 6, 22, 142, 155, 172, 171, 75, 137, 1, 0.377169
92, 3, wb, filler, NA, 999, 999, 6, 22, 142, 155, 172, 171, 75, 137, 2, 1.14498
92, 3, wb, catch, NA, 999, 999, 6, 23, 147, 168, 151, 104, 65, 130, 3, 0.680474
92, 3, wb, catch, NA, 999, 999, 6, 23, 147, 168, 151, 104, 65, 130, 1, 0.388258
92, 3, wb, attraction, a-b-db, 5, 1, 6, 24, 58, 132, 60, 135, 135, 60, 1, 0.826746
92, 3, wb, attraction, a-b-db, 5, 1, 6, 24, 58, 132, 60, 135, 135, 60, 2, 0.352532
92, 3, wb, attraction, a-b-da, 5, 1, 6, 25, 132, 58, 60, 135, 135, 60, 1, 1.59597
92, 3, wb, attraction, a-b-da, 5, 1, 6, 25, 132, 58, 60, 135, 135, 60, 2, 0.455086
92, 3, wb, attraction, a-b-da, 14, 3, 6, 26, 181, 111, 120, 195, 195, 120, 1, 1.53099
92, 3, wb, attraction, a-b-da, 14, 3, 6, 26, 181, 111, 120, 195, 195, 120, 2, 0.620381
92, 3, wb, attraction, a-b-db, 2, 3, 6, 27, 195, 120, 120, 195, 119, 193, 1, 2.08947
92, 3, wb, attraction, a-b-db, 2, 3, 6, 27, 195, 120, 120, 195, 119, 193, 2, 0.372119
92, 3, wb, attraction, a-b-db, 2, 2, 6, 28, 89, 163, 90, 165, 165, 90, 3, 1.18725
92, 3, wb, attraction, a-b-db, 2, 2, 6, 28, 89, 163, 90, 165, 165, 90, 2, 0.76292
92, 3, wb, filler, NA, 999, 999, 6, 29, 142, 158, 65, 86, 183, 133, 2, 1.52992
92, 3, wb, filler, NA, 999, 999, 6, 29, 142, 158, 65, 86, 183, 133, 3, 0.579499
92, 3, wb, attraction, a-b-da, 14, 2, 6, 30, 165, 90, 90, 165, 153, 83, 1, 1.85779
92, 3, wb, attraction, a-b-da, 14, 2, 6, 30, 165, 90, 90, 165, 153, 83, 2, 0.509871
92, 3, wb, filler, NA, 999, 999, 6, 31, 139, 143, 56, 102, 176, 101, 2, 1.17505
92, 3, wb, filler, NA, 999, 999, 6, 31, 139, 143, 56, 102, 176, 101, 1, 0.726623
92, 3, wb, attraction, a-b-da, 2, 1, 6, 32, 135, 60, 134, 59, 60, 135, 2, 2.34302
92, 3, wb, attraction, a-b-da, 2, 1, 6, 32, 135, 60, 134, 59, 60, 135, 3, 1.07163
92, 3, wb, attraction, a-b-da, 5, 2, 6, 33, 161, 88, 90, 165, 165, 90, 2, 1.41851
92, 3, wb, attraction, a-b-da, 5, 2, 6, 33, 161, 88, 90, 165, 165, 90, 3, 0.696824
92, 3, wb, attraction, a-b-da, 14, 1, 6, 34, 125, 56, 60, 135, 135, 60, 1, 2.17846
92, 3, wb, attraction, a-b-da, 14, 1, 6, 34, 125, 56, 60, 135, 135, 60, 2, 0.833748
92, 3, wb, attraction, a-b-db, 9, 3, 6, 35, 120, 195, 114, 186, 195, 120, 3, 3.33428
92, 3, wb, attraction, a-b-db, 9, 3, 6, 35, 120, 195, 114, 186, 195, 120, 2, 0.774998
92, 3, wb, attraction, a-b-da, 9, 3, 6, 36, 195, 120, 186, 114, 120, 195, 1, 1.80535
92, 3, wb, attraction, a-b-da, 9, 3, 6, 36, 195, 120, 186, 114, 120, 195, 3, 1.13949
92, 3, wb, filler, NA, 999, 999, 6, 37, 193, 175, 56, 161, 101, 63, 3, 1.2997
92, 3, wb, filler, NA, 999, 999, 6, 37, 193, 175, 56, 161, 101, 63, 1, 0.838574
92, 3, wb, attraction, a-b-da, 14, 2, 7, 1, 153, 83, 90, 165, 165, 90, 1, 0.842998
92, 3, wb, attraction, a-b-da, 14, 2, 7, 1, 153, 83, 90, 165, 165, 90, 2, 0.592033
92, 3, wb, attraction, a-b-da, 9, 2, 7, 2, 157, 86, 165, 90, 90, 165, 1, 1.86204
92, 3, wb, attraction, a-b-da, 9, 2, 7, 2, 157, 86, 165, 90, 90, 165, 3, 0.593874
92, 3, wb, attraction, a-b-da, 5, 2, 7, 3, 90, 165, 165, 90, 161, 88, 3, 1.88763
92, 3, wb, attraction, a-b-da, 5, 2, 7, 3, 90, 165, 165, 90, 161, 88, 1, 0.810923
92, 3, wb, attraction, a-b-db, 2, 1, 7, 4, 59, 134, 60, 135, 135, 60, 3, 1.01598
92, 3, wb, attraction, a-b-db, 2, 1, 7, 4, 59, 134, 60, 135, 135, 60, 2, 0.510351
92, 3, wb, filler, NA, 999, 999, 7, 5, 96, 168, 70, 173, 85, 113, 3, 2.27943
92, 3, wb, filler, NA, 999, 999, 7, 5, 96, 168, 70, 173, 85, 113, 1, 1.48269
92, 3, wb, filler, NA, 999, 999, 7, 6, 131, 171, 97, 147, 185, 184, 2, 2.17293
92, 3, wb, filler, NA, 999, 999, 7, 6, 131, 171, 97, 147, 185, 184, 3, 1.47615
92, 3, wb, catch, NA, 999, 999, 7, 7, 117, 138, 74, 121, 177, 138, 2, 2.67022
92, 3, wb, catch, NA, 999, 999, 7, 7, 117, 138, 74, 121, 177, 138, 3, 0.906067
92, 3, wb, attraction, a-b-da, 9, 1, 7, 8, 135, 60, 129, 57, 60, 135, 1, 1.09174
92, 3, wb, attraction, a-b-da, 9, 1, 7, 8, 135, 60, 129, 57, 60, 135, 3, 1.23882
92, 3, wb, filler, NA, 999, 999, 7, 9, 77, 103, 87, 80, 75, 125, 1, 1.22688
92, 3, wb, filler, NA, 999, 999, 7, 9, 77, 103, 87, 80, 75, 125, 3, 0.840486
92, 3, wb, attraction, a-b-db, 14, 1, 7, 10, 56, 125, 135, 60, 60, 135, 1, 0.996235
92, 3, wb, attraction, a-b-db, 14, 1, 7, 10, 56, 125, 135, 60, 60, 135, 2, 0.475166
92, 3, wb, attraction, a-b-db, 5, 3, 7, 11, 195, 120, 120, 195, 117, 190, 1, 0.773582
92, 3, wb, attraction, a-b-db, 5, 3, 7, 11, 195, 120, 120, 195, 117, 190, 3, 0.485424
92, 3, wb, attraction, a-b-db, 14, 2, 7, 12, 165, 90, 83, 153, 90, 165, 1, 0.575795
92, 3, wb, attraction, a-b-db, 14, 2, 7, 12, 165, 90, 83, 153, 90, 165, 2, 0.863657
92, 3, wb, filler, NA, 999, 999, 7, 13, 94, 125, 119, 141, 150, 193, 1, 0.786551
92, 3, wb, filler, NA, 999, 999, 7, 13, 94, 125, 119, 141, 150, 193, 3, 0.434283
92, 3, wb, attraction, a-b-db, 9, 1, 7, 14, 135, 60, 60, 135, 57, 129, 1, 0.550877
92, 3, wb, attraction, a-b-db, 9, 1, 7, 14, 135, 60, 60, 135, 57, 129, 3, 0.536004
92, 3, wb, attraction, a-b-da, 5, 1, 7, 15, 132, 58, 60, 135, 135, 60, 1, 1.31241
92, 3, wb, attraction, a-b-da, 5, 1, 7, 15, 132, 58, 60, 135, 135, 60, 2, 0.498721
92, 3, wb, attraction, a-b-da, 2, 2, 7, 16, 165, 90, 163, 89, 90, 165, 1, 0.620339
92, 3, wb, attraction, a-b-da, 2, 2, 7, 16, 165, 90, 163, 89, 90, 165, 3, 1.2349
92, 3, wb, attraction, a-b-db, 9, 2, 7, 17, 86, 157, 165, 90, 90, 165, 1, 0.447038
92, 3, wb, attraction, a-b-db, 9, 2, 7, 17, 86, 157, 165, 90, 90, 165, 3, 0.82843
92, 3, wb, catch, NA, 999, 999, 7, 18, 60, 135, 105, 150, 145, 170, 1, 0.432596
92, 3, wb, catch, NA, 999, 999, 7, 18, 60, 135, 105, 150, 145, 170, 2, 0.662451
92, 3, wb, attraction, a-b-db, 2, 3, 7, 19, 119, 193, 120, 195, 195, 120, 1, 0.521546
92, 3, wb, attraction, a-b-db, 2, 3, 7, 19, 119, 193, 120, 195, 195, 120, 3, 0.867486
92, 3, wb, attraction, a-b-db, 5, 2, 7, 20, 88, 161, 90, 165, 165, 90, 1, 0.350336
92, 3, wb, attraction, a-b-db, 5, 2, 7, 20, 88, 161, 90, 165, 165, 90, 3, 0.503498
92, 3, wb, filler, NA, 999, 999, 7, 21, 110, 91, 151, 118, 130, 106, 1, 0.377299
92, 3, wb, filler, NA, 999, 999, 7, 21, 110, 91, 151, 118, 130, 106, 2, 0.865186
92, 3, wb, filler, NA, 999, 999, 7, 22, 58, 96, 84, 86, 191, 93, 1, 0.484309
92, 3, wb, filler, NA, 999, 999, 7, 22, 58, 96, 84, 86, 191, 93, 3, 0.511975
92, 3, wb, attraction, a-b-da, 9, 3, 7, 23, 120, 195, 186, 114, 195, 120, 1, 0.313073
92, 3, wb, attraction, a-b-da, 9, 3, 7, 23, 120, 195, 186, 114, 195, 120, 2, 0.875711
92, 3, wb, attraction, a-b-da, 14, 1, 7, 24, 135, 60, 60, 135, 125, 56, 3, 2.33399
92, 3, wb, attraction, a-b-da, 14, 1, 7, 24, 135, 60, 60, 135, 125, 56, 2, 0.805246
92, 3, wb, filler, NA, 999, 999, 7, 25, 67, 56, 98, 68, 63, 84, 1, 0.908889
92, 3, wb, filler, NA, 999, 999, 7, 25, 67, 56, 98, 68, 63, 84, 2, 0.607322
92, 3, wb, attraction, a-b-db, 5, 1, 7, 26, 135, 60, 60, 135, 58, 132, 1, 1.70029
92, 3, wb, attraction, a-b-db, 5, 1, 7, 26, 135, 60, 60, 135, 58, 132, 2, 0.591115
92, 3, wb, attraction, a-b-db, 14, 3, 7, 27, 111, 181, 120, 195, 195, 120, 1, 0.484853
92, 3, wb, attraction, a-b-db, 14, 3, 7, 27, 111, 181, 120, 195, 195, 120, 3, 0.64088
92, 3, wb, filler, NA, 999, 999, 7, 28, 105, 165, 113, 114, 94, 171, 1, 0.492475
92, 3, wb, filler, NA, 999, 999, 7, 28, 105, 165, 113, 114, 94, 171, 3, 5.7036
92, 3, wb, attraction, a-b-da, 2, 1, 7, 29, 60, 135, 134, 59, 135, 60, 2, 1.74394
92, 3, wb, attraction, a-b-da, 2, 1, 7, 29, 60, 135, 134, 59, 135, 60, 1, 0.536442
92, 3, wb, attraction, a-b-db, 9, 3, 7, 30, 120, 195, 195, 120, 114, 186, 3, 2.89701
92, 3, wb, attraction, a-b-db, 9, 3, 7, 30, 120, 195, 195, 120, 114, 186, 2, 0.947422
92, 3, wb, attraction, a-b-da, 2, 3, 7, 31, 120, 195, 193, 119, 195, 120, 1, 1.87497
92, 3, wb, attraction, a-b-da, 2, 3, 7, 31, 120, 195, 193, 119, 195, 120, 3, 0.502507
92, 3, wb, catch, NA, 999, 999, 7, 32, 157, 98, 139, 176, 116, 79, 3, 1.40361
92, 3, wb, catch, NA, 999, 999, 7, 32, 157, 98, 139, 176, 116, 79, 2, 0.718381
92, 3, wb, attraction, a-b-da, 5, 3, 7, 33, 120, 195, 190, 117, 195, 120, 1, 2.0875
92, 3, wb, attraction, a-b-da, 5, 3, 7, 33, 120, 195, 190, 117, 195, 120, 3, 0.418751
92, 3, wb, filler, NA, 999, 999, 7, 34, 181, 78, 137, 99, 191, 105, 1, 0.551846
92, 3, wb, filler, NA, 999, 999, 7, 34, 181, 78, 137, 99, 191, 105, 2, 1.62497
92, 3, wb, attraction, a-b-db, 2, 2, 7, 35, 90, 165, 165, 90, 89, 163, 1, 1.12512
92, 3, wb, attraction, a-b-db, 2, 2, 7, 35, 90, 165, 165, 90, 89, 163, 2, 0.9588
92, 3, wb, attraction, a-b-da, 14, 3, 7, 36, 181, 111, 195, 120, 120, 195, 1, 1.06179
92, 3, wb, attraction, a-b-da, 14, 3, 7, 36, 181, 111, 195, 120, 120, 195, 2, 1.20207
92, 3, wb, filler, NA, 999, 999, 7, 37, 86, 82, 118, 151, 83, 194, 1, 0.84759
92, 3, wb, filler, NA, 999, 999, 7, 37, 86, 82, 118, 151, 83, 194, 3, 1.05265
92, 3, wb, attraction, a-b-da, 9, 3, 8, 1, 120, 195, 195, 120, 186, 114, 1, 2.93629
92, 3, wb, attraction, a-b-da, 9, 3, 8, 1, 120, 195, 195, 120, 186, 114, 2, 0.593322
92, 3, wb, attraction, a-b-db, 5, 3, 8, 2, 117, 190, 120, 195, 195, 120, 1, 1.54316
92, 3, wb, attraction, a-b-db, 5, 3, 8, 2, 117, 190, 120, 195, 195, 120, 2, 0.767995
92, 3, wb, attraction, a-b-da, 9, 1, 8, 3, 135, 60, 129, 57, 60, 135, 1, 1.09498
92, 3, wb, attraction, a-b-da, 9, 1, 8, 3, 135, 60, 129, 57, 60, 135, 3, 0.865942
92, 3, wb, filler, NA, 999, 999, 8, 4, 171, 183, 138, 148, 160, 81, 3, 1.11697
92, 3, wb, filler, NA, 999, 999, 8, 4, 171, 183, 138, 148, 160, 81, 1, 0.551243
92, 3, wb, filler, NA, 999, 999, 8, 5, 119, 57, 91, 182, 120, 143, 1, 0.878951
92, 3, wb, filler, NA, 999, 999, 8, 5, 119, 57, 91, 182, 120, 143, 2, 0.498546
92, 3, wb, attraction, a-b-da, 14, 1, 8, 6, 60, 135, 135, 60, 125, 56, 3, 1.00442
92, 3, wb, attraction, a-b-da, 14, 1, 8, 6, 60, 135, 135, 60, 125, 56, 2, 4.29159
92, 3, wb, attraction, a-b-da, 5, 3, 8, 7, 195, 120, 190, 117, 120, 195, 3, 1.18013
92, 3, wb, attraction, a-b-da, 5, 3, 8, 7, 195, 120, 190, 117, 120, 195, 1, 4.01977
92, 3, wb, attraction, a-b-da, 2, 2, 8, 8, 90, 165, 163, 89, 165, 90, 1, 7.27168
92, 3, wb, attraction, a-b-da, 2, 2, 8, 8, 90, 165, 163, 89, 165, 90, 3, 1.77006
92, 3, wb, filler, NA, 999, 999, 8, 9, 148, 99, 60, 158, 108, 74, 3, 2.30489
92, 3, wb, filler, NA, 999, 999, 8, 9, 148, 99, 60, 158, 108, 74, 1, 0.826719
92, 3, wb, filler, NA, 999, 999, 8, 10, 86, 90, 137, 130, 58, 73, 3, 1.66306
92, 3, wb, filler, NA, 999, 999, 8, 10, 86, 90, 137, 130, 58, 73, 2, 0.515136
92, 3, wb, filler, NA, 999, 999, 8, 11, 190, 103, 123, 189, 171, 68, 3, 1.71629
92, 3, wb, filler, NA, 999, 999, 8, 11, 190, 103, 123, 189, 171, 68, 2, 0.646442
92, 3, wb, attraction, a-b-db, 2, 2, 8, 12, 89, 163, 165, 90, 90, 165, 1, 0.858158
92, 3, wb, attraction, a-b-db, 2, 2, 8, 12, 89, 163, 165, 90, 90, 165, 3, 0.478544
92, 3, wb, attraction, a-b-db, 5, 2, 8, 13, 88, 161, 165, 90, 90, 165, 2, 5.19295
92, 3, wb, attraction, a-b-db, 5, 2, 8, 13, 88, 161, 165, 90, 90, 165, 1, 0.334667
92, 3, wb, attraction, a-b-db, 9, 1, 8, 14, 60, 135, 57, 129, 135, 60, 2, 1.07908
92, 3, wb, attraction, a-b-db, 9, 1, 8, 14, 60, 135, 57, 129, 135, 60, 1, 0.434757
92, 3, wb, attraction, a-b-db, 14, 3, 8, 15, 195, 120, 120, 195, 111, 181, 3, 0.695373
92, 3, wb, attraction, a-b-db, 14, 3, 8, 15, 195, 120, 120, 195, 111, 181, 2, 0.618385
92, 3, wb, attraction, a-b-db, 2, 1, 8, 16, 59, 134, 60, 135, 135, 60, 1, 0.927366
92, 3, wb, attraction, a-b-db, 2, 1, 8, 16, 59, 134, 60, 135, 135, 60, 2, 0.505037
92, 3, wb, attraction, a-b-da, 9, 2, 8, 17, 157, 86, 165, 90, 90, 165, 1, 0.994799
92, 3, wb, attraction, a-b-da, 9, 2, 8, 17, 157, 86, 165, 90, 90, 165, 3, 0.665861
92, 3, wb, attraction, a-b-db, 5, 1, 8, 18, 58, 132, 135, 60, 60, 135, 2, 1.40493
92, 3, wb, attraction, a-b-db, 5, 1, 8, 18, 58, 132, 135, 60, 60, 135, 3, 0.403878
92, 3, wb, filler, NA, 999, 999, 8, 19, 164, 133, 145, 112, 109, 169, 2, 1.84154
92, 3, wb, filler, NA, 999, 999, 8, 19, 164, 133, 145, 112, 109, 169, 1, 1.19032
92, 3, wb, attraction, a-b-db, 14, 2, 8, 20, 165, 90, 83, 153, 90, 165, 2, 10.3159
92, 3, wb, attraction, a-b-db, 14, 2, 8, 20, 165, 90, 83, 153, 90, 165, 3, 0.587322
92, 3, wb, catch, NA, 999, 999, 8, 21, 117, 138, 148, 167, 104, 91, 3, 1.88976
92, 3, wb, catch, NA, 999, 999, 8, 21, 117, 138, 148, 167, 104, 91, 2, 0.484518
92, 3, wb, attraction, a-b-db, 9, 2, 8, 22, 165, 90, 86, 157, 90, 165, 1, 1.071
92, 3, wb, attraction, a-b-db, 9, 2, 8, 22, 165, 90, 86, 157, 90, 165, 3, 0.835245
92, 3, wb, attraction, a-b-db, 9, 3, 8, 23, 195, 120, 120, 195, 114, 186, 1, 0.871487
92, 3, wb, attraction, a-b-db, 9, 3, 8, 23, 195, 120, 120, 195, 114, 186, 2, 0.451895
92, 3, wb, attraction, a-b-da, 2, 3, 8, 24, 193, 119, 195, 120, 120, 195, 2, 2.11189
92, 3, wb, attraction, a-b-da, 2, 3, 8, 24, 193, 119, 195, 120, 120, 195, 3, 0.449773
92, 3, wb, attraction, a-b-da, 5, 1, 8, 25, 60, 135, 135, 60, 132, 58, 1, 1.0135
92, 3, wb, attraction, a-b-da, 5, 1, 8, 25, 60, 135, 135, 60, 132, 58, 2, 0.507779
92, 3, wb, filler, NA, 999, 999, 8, 26, 131, 131, 125, 100, 159, 124, 2, 1.65295
92, 3, wb, filler, NA, 999, 999, 8, 26, 131, 131, 125, 100, 159, 124, 3, 1.39376
92, 3, wb, attraction, a-b-da, 5, 2, 8, 27, 90, 165, 165, 90, 161, 88, 2, 2.89522
92, 3, wb, attraction, a-b-da, 5, 2, 8, 27, 90, 165, 165, 90, 161, 88, 3, 0.37761
92, 3, wb, catch, NA, 999, 999, 8, 28, 171, 144, 125, 70, 130, 125, 2, 1.22408
92, 3, wb, catch, NA, 999, 999, 8, 28, 171, 144, 125, 70, 130, 125, 1, 0.637826
92, 3, wb, attraction, a-b-da, 14, 2, 8, 29, 153, 83, 90, 165, 165, 90, 1, 0.914512
92, 3, wb, attraction, a-b-da, 14, 2, 8, 29, 153, 83, 90, 165, 165, 90, 2, 0.596498
92, 3, wb, filler, NA, 999, 999, 8, 30, 164, 193, 127, 73, 73, 108, 2, 1.05823
92, 3, wb, filler, NA, 999, 999, 8, 30, 164, 193, 127, 73, 73, 108, 1, 0.438561
92, 3, wb, filler, NA, 999, 999, 8, 31, 137, 61, 119, 97, 152, 178, 1, 0.858989
92, 3, wb, filler, NA, 999, 999, 8, 31, 137, 61, 119, 97, 152, 178, 3, 0.567433
92, 3, wb, attraction, a-b-da, 2, 1, 8, 32, 134, 59, 60, 135, 135, 60, 2, 0.886481
92, 3, wb, attraction, a-b-da, 2, 1, 8, 32, 134, 59, 60, 135, 135, 60, 1, 1.8422
92, 3, wb, filler, NA, 999, 999, 8, 33, 158, 102, 92, 155, 176, 88, 2, 1.6055
92, 3, wb, filler, NA, 999, 999, 8, 33, 158, 102, 92, 155, 176, 88, 1, 0.747726
92, 3, wb, attraction, a-b-db, 2, 3, 8, 34, 119, 193, 120, 195, 195, 120, 1, 1.88356
92, 3, wb, attraction, a-b-db, 2, 3, 8, 34, 119, 193, 120, 195, 195, 120, 3, 0.942816
92, 3, wb, catch, NA, 999, 999, 8, 35, 146, 109, 183, 132, 86, 109, 3, 1.83048
92, 3, wb, catch, NA, 999, 999, 8, 35, 146, 109, 183, 132, 86, 109, 2, 0.523916
92, 3, wb, attraction, a-b-da, 14, 3, 8, 36, 195, 120, 181, 111, 120, 195, 2, 2.98027
92, 3, wb, attraction, a-b-da, 14, 3, 8, 36, 195, 120, 181, 111, 120, 195, 1, 0.571355
92, 3, wb, attraction, a-b-db, 14, 1, 8, 37, 56, 125, 60, 135, 135, 60, 1, 1.21045
92, 3, wb, attraction, a-b-db, 14, 1, 8, 37, 56, 125, 60, 135, 135, 60, 2, 0.936774
