sub_n, computer_n, bw_cond, effect, set, distance, diag, block_n, trial_n, h1, w1, h2, w2, h3, w3, choice, rt 
9, 3, bw, practice, NA, 999, 999, 0, 1, 105, 193, 192, 62, 84, 141, 1, 5.87091
9, 3, bw, practice, NA, 999, 999, 0, 1, 105, 193, 192, 62, 84, 141, 2, 20.0111
9, 3, bw, practice, NA, 999, 999, 0, 2, 180, 74, 57, 121, 183, 180, 3, 3.31796
9, 3, bw, practice, NA, 999, 999, 0, 2, 180, 74, 57, 121, 183, 180, 2, 1.03961
9, 3, bw, practice, NA, 999, 999, 0, 3, 189, 147, 179, 117, 57, 100, 1, 2.30399
9, 3, bw, practice, NA, 999, 999, 0, 3, 189, 147, 179, 117, 57, 100, 3, 0.931018
9, 3, bw, attraction, a-b-db, 14, 2, 1, 1, 83, 153, 90, 165, 165, 90, 2, 6.9552
9, 3, bw, attraction, a-b-db, 14, 2, 1, 1, 83, 153, 90, 165, 165, 90, 1, 6.54635
9, 3, bw, attraction, a-b-db, 5, 3, 1, 2, 195, 120, 117, 190, 120, 195, 3, 4.94352
9, 3, bw, attraction, a-b-db, 5, 3, 1, 2, 195, 120, 117, 190, 120, 195, 1, 2.01591
9, 3, bw, filler, NA, 999, 999, 1, 3, 157, 183, 123, 142, 117, 117, 1, 2.08678
9, 3, bw, filler, NA, 999, 999, 1, 3, 157, 183, 123, 142, 117, 117, 3, 0.784784
9, 3, bw, filler, NA, 999, 999, 1, 4, 96, 167, 179, 149, 171, 175, 3, 1.57709
9, 3, bw, filler, NA, 999, 999, 1, 4, 96, 167, 179, 149, 171, 175, 1, 0.886339
9, 3, bw, attraction, a-b-da, 14, 1, 1, 5, 125, 56, 135, 60, 60, 135, 3, 2.35242
9, 3, bw, attraction, a-b-da, 14, 1, 1, 5, 125, 56, 135, 60, 60, 135, 1, 1.26577
9, 3, bw, attraction, a-b-db, 5, 1, 1, 6, 135, 60, 60, 135, 58, 132, 2, 8.38879
9, 3, bw, attraction, a-b-db, 5, 1, 1, 6, 135, 60, 60, 135, 58, 132, 3, 4.43305
9, 3, bw, attraction, a-b-da, 14, 2, 1, 7, 153, 83, 165, 90, 90, 165, 3, 2.35614
9, 3, bw, attraction, a-b-da, 14, 2, 1, 7, 153, 83, 165, 90, 90, 165, 1, 0.805448
9, 3, bw, catch, NA, 999, 999, 1, 8, 139, 176, 129, 126, 75, 120, 1, 1.43306
9, 3, bw, catch, NA, 999, 999, 1, 8, 139, 176, 129, 126, 75, 120, 3, 0.753072
9, 3, bw, catch, NA, 999, 999, 1, 9, 166, 149, 134, 61, 162, 93, 1, 2.09787
9, 3, bw, catch, NA, 999, 999, 1, 9, 166, 149, 134, 61, 162, 93, 2, 1.00228
9, 3, bw, attraction, a-b-da, 9, 2, 1, 10, 157, 86, 165, 90, 90, 165, 3, 2.40768
9, 3, bw, attraction, a-b-da, 9, 2, 1, 10, 157, 86, 165, 90, 90, 165, 1, 3.27049
9, 3, bw, attraction, a-b-db, 2, 3, 1, 11, 120, 195, 119, 193, 195, 120, 1, 7.12082
9, 3, bw, attraction, a-b-db, 2, 3, 1, 11, 120, 195, 119, 193, 195, 120, 3, 0.922534
9, 3, bw, filler, NA, 999, 999, 1, 12, 186, 80, 92, 95, 148, 190, 3, 1.78608
9, 3, bw, filler, NA, 999, 999, 1, 12, 186, 80, 92, 95, 148, 190, 2, 0.805379
9, 3, bw, filler, NA, 999, 999, 1, 13, 120, 89, 104, 108, 61, 141, 2, 34.184
9, 3, bw, filler, NA, 999, 999, 1, 13, 120, 89, 104, 108, 61, 141, 3, 0.895019
9, 3, bw, attraction, a-b-db, 9, 3, 1, 14, 114, 186, 120, 195, 195, 120, 2, 4.75977
9, 3, bw, attraction, a-b-db, 9, 3, 1, 14, 114, 186, 120, 195, 195, 120, 3, 3.96032
9, 3, bw, attraction, a-b-da, 5, 2, 1, 15, 161, 88, 90, 165, 165, 90, 2, 3.39701
9, 3, bw, attraction, a-b-da, 5, 2, 1, 15, 161, 88, 90, 165, 165, 90, 1, 0.730602
9, 3, bw, filler, NA, 999, 999, 1, 16, 119, 144, 148, 59, 120, 141, 3, 2.89976
9, 3, bw, filler, NA, 999, 999, 1, 16, 119, 144, 148, 59, 120, 141, 2, 1.14503
9, 3, bw, attraction, a-b-db, 14, 1, 1, 17, 56, 125, 135, 60, 60, 135, 3, 3.77478
9, 3, bw, attraction, a-b-db, 14, 1, 1, 17, 56, 125, 135, 60, 60, 135, 1, 5.68042
9, 3, bw, attraction, a-b-da, 2, 3, 1, 18, 193, 119, 195, 120, 120, 195, 3, 4.72022
9, 3, bw, attraction, a-b-da, 2, 3, 1, 18, 193, 119, 195, 120, 120, 195, 2, 2.12378
9, 3, bw, attraction, a-b-db, 2, 1, 1, 19, 60, 135, 59, 134, 135, 60, 1, 16.2911
9, 3, bw, attraction, a-b-db, 2, 1, 1, 19, 60, 135, 59, 134, 135, 60, 3, 0.802728
9, 3, bw, filler, NA, 999, 999, 1, 20, 152, 129, 131, 165, 176, 77, 2, 2.55219
9, 3, bw, filler, NA, 999, 999, 1, 20, 152, 129, 131, 165, 176, 77, 3, 0.703037
9, 3, bw, filler, NA, 999, 999, 1, 21, 94, 71, 59, 75, 143, 150, 3, 1.7461
9, 3, bw, filler, NA, 999, 999, 1, 21, 94, 71, 59, 75, 143, 150, 2, 0.677426
9, 3, bw, attraction, a-b-da, 9, 3, 1, 22, 195, 120, 120, 195, 186, 114, 2, 2.86967
9, 3, bw, attraction, a-b-da, 9, 3, 1, 22, 195, 120, 120, 195, 186, 114, 3, 1.06681
9, 3, bw, attraction, a-b-da, 9, 1, 1, 23, 135, 60, 129, 57, 60, 135, 3, 2.43661
9, 3, bw, attraction, a-b-da, 9, 1, 1, 23, 135, 60, 129, 57, 60, 135, 2, 2.36791
9, 3, bw, attraction, a-b-db, 2, 2, 1, 24, 165, 90, 90, 165, 89, 163, 2, 7.00149
9, 3, bw, attraction, a-b-db, 2, 2, 1, 24, 165, 90, 90, 165, 89, 163, 1, 3.13407
9, 3, bw, attraction, a-b-da, 2, 2, 1, 25, 165, 90, 163, 89, 90, 165, 3, 3.78195
9, 3, bw, attraction, a-b-da, 2, 2, 1, 25, 165, 90, 163, 89, 90, 165, 1, 0.692306
9, 3, bw, attraction, a-b-db, 5, 2, 1, 26, 88, 161, 165, 90, 90, 165, 3, 10.7653
9, 3, bw, attraction, a-b-db, 5, 2, 1, 26, 88, 161, 165, 90, 90, 165, 2, 0.731608
9, 3, bw, attraction, a-b-db, 14, 3, 1, 27, 120, 195, 111, 181, 195, 120, 3, 10.932
9, 3, bw, attraction, a-b-db, 14, 3, 1, 27, 120, 195, 111, 181, 195, 120, 2, 0.705774
9, 3, bw, filler, NA, 999, 999, 1, 28, 83, 133, 89, 59, 96, 167, 3, 1.46684
9, 3, bw, filler, NA, 999, 999, 1, 28, 83, 133, 89, 59, 96, 167, 2, 0.662803
9, 3, bw, filler, NA, 999, 999, 1, 29, 169, 133, 136, 85, 74, 88, 1, 1.8934
9, 3, bw, filler, NA, 999, 999, 1, 29, 169, 133, 136, 85, 74, 88, 3, 0.653693
9, 3, bw, attraction, a-b-da, 2, 1, 1, 30, 60, 135, 134, 59, 135, 60, 1, 4.96168
9, 3, bw, attraction, a-b-da, 2, 1, 1, 30, 60, 135, 134, 59, 135, 60, 2, 1.99421
9, 3, bw, filler, NA, 999, 999, 1, 31, 165, 105, 97, 123, 112, 144, 1, 3.64874
9, 3, bw, filler, NA, 999, 999, 1, 31, 165, 105, 97, 123, 112, 144, 2, 1.11518
9, 3, bw, attraction, a-b-da, 5, 1, 1, 32, 60, 135, 132, 58, 135, 60, 1, 2.90938
9, 3, bw, attraction, a-b-da, 5, 1, 1, 32, 60, 135, 132, 58, 135, 60, 2, 0.702912
9, 3, bw, attraction, a-b-da, 5, 3, 1, 33, 190, 117, 195, 120, 120, 195, 3, 2.92749
9, 3, bw, attraction, a-b-da, 5, 3, 1, 33, 190, 117, 195, 120, 120, 195, 2, 2.50407
9, 3, bw, attraction, a-b-db, 9, 2, 1, 34, 86, 157, 165, 90, 90, 165, 3, 2.659
9, 3, bw, attraction, a-b-db, 9, 2, 1, 34, 86, 157, 165, 90, 90, 165, 2, 1.00726
9, 3, bw, attraction, a-b-da, 14, 3, 1, 35, 181, 111, 120, 195, 195, 120, 3, 2.13202
9, 3, bw, attraction, a-b-da, 14, 3, 1, 35, 181, 111, 120, 195, 195, 120, 1, 3.80513
9, 3, bw, catch, NA, 999, 999, 1, 36, 154, 101, 118, 77, 136, 179, 3, 1.48991
9, 3, bw, catch, NA, 999, 999, 1, 36, 154, 101, 118, 77, 136, 179, 2, 2.0157
9, 3, bw, attraction, a-b-db, 9, 1, 1, 37, 135, 60, 60, 135, 57, 129, 2, 3.61923
9, 3, bw, attraction, a-b-db, 9, 1, 1, 37, 135, 60, 60, 135, 57, 129, 1, 0.921177
9, 3, bw, attraction, a-b-da, 14, 1, 2, 1, 125, 56, 135, 60, 60, 135, 3, 4.64025
9, 3, bw, attraction, a-b-da, 14, 1, 2, 1, 125, 56, 135, 60, 60, 135, 1, 0.934167
9, 3, bw, attraction, a-b-db, 5, 1, 2, 2, 135, 60, 60, 135, 58, 132, 2, 4.26156
9, 3, bw, attraction, a-b-db, 5, 1, 2, 2, 135, 60, 60, 135, 58, 132, 1, 0.712764
9, 3, bw, filler, NA, 999, 999, 2, 3, 62, 160, 81, 124, 112, 134, 3, 5.54075
9, 3, bw, filler, NA, 999, 999, 2, 3, 62, 160, 81, 124, 112, 134, 1, 1.53806
9, 3, bw, filler, NA, 999, 999, 2, 4, 136, 131, 89, 73, 111, 172, 3, 6.37286
9, 3, bw, filler, NA, 999, 999, 2, 4, 136, 131, 89, 73, 111, 172, 2, 0.579175
9, 3, bw, attraction, a-b-da, 5, 2, 2, 5, 90, 165, 165, 90, 161, 88, 1, 2.12121
9, 3, bw, attraction, a-b-da, 5, 2, 2, 5, 90, 165, 165, 90, 161, 88, 3, 0.884843
9, 3, bw, attraction, a-b-da, 5, 3, 2, 6, 190, 117, 195, 120, 120, 195, 3, 2.95079
9, 3, bw, attraction, a-b-da, 5, 3, 2, 6, 190, 117, 195, 120, 120, 195, 1, 0.775816
9, 3, bw, attraction, a-b-db, 2, 2, 2, 7, 90, 165, 165, 90, 89, 163, 2, 3.29382
9, 3, bw, attraction, a-b-db, 2, 2, 2, 7, 90, 165, 165, 90, 89, 163, 1, 0.582591
9, 3, bw, attraction, a-b-da, 14, 2, 2, 8, 90, 165, 165, 90, 153, 83, 1, 1.58144
9, 3, bw, attraction, a-b-da, 14, 2, 2, 8, 90, 165, 165, 90, 153, 83, 2, 0.653107
9, 3, bw, filler, NA, 999, 999, 2, 9, 80, 178, 151, 141, 138, 169, 3, 1.54525
9, 3, bw, filler, NA, 999, 999, 2, 9, 80, 178, 151, 141, 138, 169, 1, 2.00981
9, 3, bw, filler, NA, 999, 999, 2, 10, 164, 59, 133, 174, 126, 150, 2, 1.43959
9, 3, bw, filler, NA, 999, 999, 2, 10, 164, 59, 133, 174, 126, 150, 1, 2.50944
9, 3, bw, attraction, a-b-db, 14, 2, 2, 11, 90, 165, 165, 90, 83, 153, 1, 1.57323
9, 3, bw, attraction, a-b-db, 14, 2, 2, 11, 90, 165, 165, 90, 83, 153, 2, 0.525804
9, 3, bw, catch, NA, 999, 999, 2, 12, 102, 153, 187, 128, 131, 64, 2, 1.62982
9, 3, bw, catch, NA, 999, 999, 2, 12, 102, 153, 187, 128, 131, 64, 3, 0.708888
9, 3, bw, filler, NA, 999, 999, 2, 13, 186, 185, 134, 68, 115, 173, 1, 1.27744
9, 3, bw, filler, NA, 999, 999, 2, 13, 186, 185, 134, 68, 115, 173, 2, 2.53687
9, 3, bw, attraction, a-b-db, 14, 3, 2, 14, 120, 195, 111, 181, 195, 120, 1, 3.42421
9, 3, bw, attraction, a-b-db, 14, 3, 2, 14, 120, 195, 111, 181, 195, 120, 2, 3.08082
9, 3, bw, attraction, a-b-da, 2, 2, 2, 15, 165, 90, 90, 165, 163, 89, 2, 2.33678
9, 3, bw, attraction, a-b-da, 2, 2, 2, 15, 165, 90, 90, 165, 163, 89, 1, 2.30714
9, 3, bw, attraction, a-b-db, 5, 2, 2, 16, 165, 90, 88, 161, 90, 165, 2, 1.91628
9, 3, bw, attraction, a-b-db, 5, 2, 2, 16, 165, 90, 88, 161, 90, 165, 3, 0.637216
9, 3, bw, attraction, a-b-db, 9, 1, 2, 17, 57, 129, 135, 60, 60, 135, 3, 3.48929
9, 3, bw, attraction, a-b-db, 9, 1, 2, 17, 57, 129, 135, 60, 60, 135, 1, 0.830576
9, 3, bw, filler, NA, 999, 999, 2, 18, 69, 100, 151, 76, 117, 87, 2, 4.41738
9, 3, bw, filler, NA, 999, 999, 2, 18, 69, 100, 151, 76, 117, 87, 1, 0.607035
9, 3, bw, attraction, a-b-db, 2, 1, 2, 19, 59, 134, 60, 135, 135, 60, 2, 2.00405
9, 3, bw, attraction, a-b-db, 2, 1, 2, 19, 59, 134, 60, 135, 135, 60, 3, 0.772981
9, 3, bw, attraction, a-b-da, 9, 2, 2, 20, 90, 165, 165, 90, 157, 86, 1, 2.16373
9, 3, bw, attraction, a-b-da, 9, 2, 2, 20, 90, 165, 165, 90, 157, 86, 3, 1.68378
9, 3, bw, attraction, a-b-da, 5, 1, 2, 21, 60, 135, 135, 60, 132, 58, 1, 2.29265
9, 3, bw, attraction, a-b-da, 5, 1, 2, 21, 60, 135, 135, 60, 132, 58, 3, 0.689116
9, 3, bw, attraction, a-b-db, 9, 3, 2, 22, 114, 186, 195, 120, 120, 195, 3, 3.48185
9, 3, bw, attraction, a-b-db, 9, 3, 2, 22, 114, 186, 195, 120, 120, 195, 1, 0.517933
9, 3, bw, filler, NA, 999, 999, 2, 23, 123, 188, 123, 182, 98, 60, 1, 2.64648
9, 3, bw, filler, NA, 999, 999, 2, 23, 123, 188, 123, 182, 98, 60, 3, 1.4201
9, 3, bw, catch, NA, 999, 999, 2, 24, 157, 158, 93, 102, 139, 116, 1, 1.60779
9, 3, bw, catch, NA, 999, 999, 2, 24, 157, 158, 93, 102, 139, 116, 2, 0.83131
9, 3, bw, filler, NA, 999, 999, 2, 25, 178, 96, 179, 99, 88, 60, 1, 1.7336
9, 3, bw, filler, NA, 999, 999, 2, 25, 178, 96, 179, 99, 88, 60, 3, 1.0684
9, 3, bw, attraction, a-b-da, 9, 3, 2, 26, 186, 114, 120, 195, 195, 120, 2, 6.78234
9, 3, bw, attraction, a-b-da, 9, 3, 2, 26, 186, 114, 120, 195, 195, 120, 1, 1.58916
9, 3, bw, attraction, a-b-db, 14, 1, 2, 27, 135, 60, 56, 125, 60, 135, 3, 2.18173
9, 3, bw, attraction, a-b-db, 14, 1, 2, 27, 135, 60, 56, 125, 60, 135, 2, 0.546546
9, 3, bw, attraction, a-b-da, 2, 3, 2, 28, 120, 195, 195, 120, 193, 119, 1, 2.22717
9, 3, bw, attraction, a-b-da, 2, 3, 2, 28, 120, 195, 195, 120, 193, 119, 3, 2.12821
9, 3, bw, attraction, a-b-db, 9, 2, 2, 29, 165, 90, 90, 165, 86, 157, 2, 5.25668
9, 3, bw, attraction, a-b-db, 9, 2, 2, 29, 165, 90, 90, 165, 86, 157, 1, 0.879129
9, 3, bw, attraction, a-b-db, 5, 3, 2, 30, 117, 190, 120, 195, 195, 120, 3, 1.34433
9, 3, bw, attraction, a-b-db, 5, 3, 2, 30, 117, 190, 120, 195, 195, 120, 1, 3.3843
9, 3, bw, catch, NA, 999, 999, 2, 31, 131, 184, 138, 117, 78, 117, 1, 1.39992
9, 3, bw, catch, NA, 999, 999, 2, 31, 131, 184, 138, 117, 78, 117, 3, 1.00574
9, 3, bw, attraction, a-b-da, 14, 3, 2, 32, 195, 120, 181, 111, 120, 195, 3, 1.65117
9, 3, bw, attraction, a-b-da, 14, 3, 2, 32, 195, 120, 181, 111, 120, 195, 2, 1.03978
9, 3, bw, filler, NA, 999, 999, 2, 33, 120, 193, 181, 94, 186, 65, 1, 1.58906
9, 3, bw, filler, NA, 999, 999, 2, 33, 120, 193, 181, 94, 186, 65, 3, 0.740473
9, 3, bw, attraction, a-b-da, 9, 1, 2, 34, 135, 60, 129, 57, 60, 135, 3, 1.7653
9, 3, bw, attraction, a-b-da, 9, 1, 2, 34, 135, 60, 129, 57, 60, 135, 2, 1.57165
9, 3, bw, attraction, a-b-da, 2, 1, 2, 35, 134, 59, 135, 60, 60, 135, 3, 4.08283
9, 3, bw, attraction, a-b-da, 2, 1, 2, 35, 134, 59, 135, 60, 60, 135, 1, 0.591841
9, 3, bw, attraction, a-b-db, 2, 3, 2, 36, 195, 120, 120, 195, 119, 193, 1, 5.50845
9, 3, bw, attraction, a-b-db, 2, 3, 2, 36, 195, 120, 120, 195, 119, 193, 2, 2.23005
9, 3, bw, filler, NA, 999, 999, 2, 37, 114, 98, 194, 60, 63, 141, 2, 7.15644
9, 3, bw, filler, NA, 999, 999, 2, 37, 114, 98, 194, 60, 63, 141, 3, 0.75315
9, 3, bw, attraction, a-b-db, 5, 3, 3, 1, 117, 190, 120, 195, 195, 120, 3, 4.54361
9, 3, bw, attraction, a-b-db, 5, 3, 3, 1, 117, 190, 120, 195, 195, 120, 1, 1.59316
9, 3, bw, filler, NA, 999, 999, 3, 2, 129, 111, 178, 102, 117, 157, 3, 4.06557
9, 3, bw, filler, NA, 999, 999, 3, 2, 129, 111, 178, 102, 117, 157, 1, 1.01954
9, 3, bw, attraction, a-b-da, 9, 3, 3, 3, 120, 195, 186, 114, 195, 120, 1, 1.84909
9, 3, bw, attraction, a-b-da, 9, 3, 3, 3, 120, 195, 186, 114, 195, 120, 2, 0.642945
9, 3, bw, attraction, a-b-db, 9, 2, 3, 4, 90, 165, 86, 157, 165, 90, 3, 2.46701
9, 3, bw, attraction, a-b-db, 9, 2, 3, 4, 90, 165, 86, 157, 165, 90, 2, 2.1505
9, 3, bw, filler, NA, 999, 999, 3, 5, 129, 107, 62, 166, 117, 108, 3, 1.98099
9, 3, bw, filler, NA, 999, 999, 3, 5, 129, 107, 62, 166, 117, 108, 2, 1.16385
9, 3, bw, attraction, a-b-db, 5, 1, 3, 6, 135, 60, 60, 135, 58, 132, 3, 3.74568
9, 3, bw, attraction, a-b-db, 5, 1, 3, 6, 135, 60, 60, 135, 58, 132, 1, 0.748609
9, 3, bw, filler, NA, 999, 999, 3, 7, 102, 114, 152, 142, 56, 143, 2, 1.30676
9, 3, bw, filler, NA, 999, 999, 3, 7, 102, 114, 152, 142, 56, 143, 3, 0.589986
9, 3, bw, attraction, a-b-db, 2, 1, 3, 8, 135, 60, 60, 135, 59, 134, 1, 1.42658
9, 3, bw, attraction, a-b-db, 2, 1, 3, 8, 135, 60, 60, 135, 59, 134, 3, 0.577187
9, 3, bw, attraction, a-b-db, 2, 3, 3, 9, 195, 120, 119, 193, 120, 195, 1, 4.38456
9, 3, bw, attraction, a-b-db, 2, 3, 3, 9, 195, 120, 119, 193, 120, 195, 2, 2.36883
9, 3, bw, attraction, a-b-db, 2, 2, 3, 10, 89, 163, 90, 165, 165, 90, 2, 1.75921
9, 3, bw, attraction, a-b-db, 2, 2, 3, 10, 89, 163, 90, 165, 165, 90, 1, 1.40534
9, 3, bw, attraction, a-b-db, 5, 2, 3, 11, 90, 165, 88, 161, 165, 90, 2, 1.98013
9, 3, bw, attraction, a-b-db, 5, 2, 3, 11, 90, 165, 88, 161, 165, 90, 3, 0.867776
9, 3, bw, attraction, a-b-db, 9, 3, 3, 12, 195, 120, 120, 195, 114, 186, 2, 1.31264
9, 3, bw, attraction, a-b-db, 9, 3, 3, 12, 195, 120, 120, 195, 114, 186, 3, 2.22491
9, 3, bw, attraction, a-b-db, 14, 3, 3, 13, 111, 181, 120, 195, 195, 120, 2, 1.72482
9, 3, bw, attraction, a-b-db, 14, 3, 3, 13, 111, 181, 120, 195, 195, 120, 1, 1.64874
9, 3, bw, attraction, a-b-da, 5, 1, 3, 14, 60, 135, 132, 58, 135, 60, 3, 2.18103
9, 3, bw, attraction, a-b-da, 5, 1, 3, 14, 60, 135, 132, 58, 135, 60, 2, 1.27528
9, 3, bw, filler, NA, 999, 999, 3, 15, 166, 80, 135, 160, 180, 76, 2, 2.67839
9, 3, bw, filler, NA, 999, 999, 3, 15, 166, 80, 135, 160, 180, 76, 3, 0.98388
9, 3, bw, attraction, a-b-da, 2, 3, 3, 16, 120, 195, 195, 120, 193, 119, 3, 5.70383
9, 3, bw, attraction, a-b-da, 2, 3, 3, 16, 120, 195, 195, 120, 193, 119, 2, 0.927727
9, 3, bw, attraction, a-b-db, 14, 1, 3, 17, 60, 135, 56, 125, 135, 60, 1, 2.02597
9, 3, bw, attraction, a-b-db, 14, 1, 3, 17, 60, 135, 56, 125, 135, 60, 2, 0.698677
9, 3, bw, attraction, a-b-da, 14, 1, 3, 18, 60, 135, 135, 60, 125, 56, 3, 1.5451
9, 3, bw, attraction, a-b-da, 14, 1, 3, 18, 60, 135, 135, 60, 125, 56, 2, 2.79518
9, 3, bw, attraction, a-b-da, 5, 2, 3, 19, 161, 88, 90, 165, 165, 90, 2, 2.19968
9, 3, bw, attraction, a-b-da, 5, 2, 3, 19, 161, 88, 90, 165, 165, 90, 1, 0.719121
9, 3, bw, filler, NA, 999, 999, 3, 20, 141, 114, 131, 79, 106, 152, 3, 2.96181
9, 3, bw, filler, NA, 999, 999, 3, 20, 141, 114, 131, 79, 106, 152, 2, 0.712701
9, 3, bw, attraction, a-b-da, 14, 2, 3, 21, 90, 165, 165, 90, 153, 83, 1, 2.88964
9, 3, bw, attraction, a-b-da, 14, 2, 3, 21, 90, 165, 165, 90, 153, 83, 3, 0.940466
9, 3, bw, attraction, a-b-db, 14, 2, 3, 22, 90, 165, 165, 90, 83, 153, 1, 3.32328
9, 3, bw, attraction, a-b-db, 14, 2, 3, 22, 90, 165, 165, 90, 83, 153, 3, 1.48673
9, 3, bw, filler, NA, 999, 999, 3, 23, 161, 145, 158, 146, 75, 149, 1, 6.88135
9, 3, bw, filler, NA, 999, 999, 3, 23, 161, 145, 158, 146, 75, 149, 3, 0.944984
9, 3, bw, filler, NA, 999, 999, 3, 24, 98, 82, 116, 174, 140, 195, 3, 1.58038
9, 3, bw, filler, NA, 999, 999, 3, 24, 98, 82, 116, 174, 140, 195, 1, 0.787521
9, 3, bw, attraction, a-b-da, 2, 1, 3, 25, 135, 60, 134, 59, 60, 135, 3, 2.13498
9, 3, bw, attraction, a-b-da, 2, 1, 3, 25, 135, 60, 134, 59, 60, 135, 2, 0.54557
9, 3, bw, catch, NA, 999, 999, 3, 26, 66, 129, 101, 154, 194, 121, 3, 1.65002
9, 3, bw, catch, NA, 999, 999, 3, 26, 66, 129, 101, 154, 194, 121, 1, 0.728045
9, 3, bw, catch, NA, 999, 999, 3, 27, 127, 68, 91, 164, 149, 166, 3, 1.59394
9, 3, bw, catch, NA, 999, 999, 3, 27, 127, 68, 91, 164, 149, 166, 1, 0.959228
9, 3, bw, catch, NA, 999, 999, 3, 28, 195, 120, 147, 108, 63, 132, 1, 1.22278
9, 3, bw, catch, NA, 999, 999, 3, 28, 195, 120, 147, 108, 63, 132, 3, 1.0532
9, 3, bw, filler, NA, 999, 999, 3, 29, 175, 64, 99, 92, 56, 160, 3, 3.27234
9, 3, bw, filler, NA, 999, 999, 3, 29, 175, 64, 99, 92, 56, 160, 2, 0.868402
9, 3, bw, attraction, a-b-da, 9, 1, 3, 30, 129, 57, 135, 60, 60, 135, 3, 1.86553
9, 3, bw, attraction, a-b-da, 9, 1, 3, 30, 129, 57, 135, 60, 60, 135, 2, 0.827321
9, 3, bw, filler, NA, 999, 999, 3, 31, 188, 129, 112, 157, 59, 186, 1, 1.84689
9, 3, bw, filler, NA, 999, 999, 3, 31, 188, 129, 112, 157, 59, 186, 3, 2.46263
9, 3, bw, attraction, a-b-da, 9, 2, 3, 32, 165, 90, 90, 165, 157, 86, 2, 2.15813
9, 3, bw, attraction, a-b-da, 9, 2, 3, 32, 165, 90, 90, 165, 157, 86, 3, 1.68163
9, 3, bw, attraction, a-b-da, 5, 3, 3, 33, 120, 195, 190, 117, 195, 120, 3, 4.70717
9, 3, bw, attraction, a-b-da, 5, 3, 3, 33, 120, 195, 190, 117, 195, 120, 2, 0.581099
9, 3, bw, attraction, a-b-da, 2, 2, 3, 34, 90, 165, 165, 90, 163, 89, 1, 2.42751
9, 3, bw, attraction, a-b-da, 2, 2, 3, 34, 90, 165, 165, 90, 163, 89, 3, 0.70373
9, 3, bw, attraction, a-b-db, 9, 1, 3, 35, 57, 129, 60, 135, 135, 60, 1, 2.27365
9, 3, bw, attraction, a-b-db, 9, 1, 3, 35, 57, 129, 60, 135, 135, 60, 2, 3.07046
9, 3, bw, attraction, a-b-da, 14, 3, 3, 36, 181, 111, 120, 195, 195, 120, 2, 1.67996
9, 3, bw, attraction, a-b-da, 14, 3, 3, 36, 181, 111, 120, 195, 195, 120, 1, 1.02622
9, 3, bw, filler, NA, 999, 999, 3, 37, 138, 73, 137, 89, 101, 144, 3, 1.42647
9, 3, bw, filler, NA, 999, 999, 3, 37, 138, 73, 137, 89, 101, 144, 1, 0.958163
9, 3, bw, attraction, a-b-da, 2, 1, 4, 1, 135, 60, 60, 135, 134, 59, 2, 2.58302
9, 3, bw, attraction, a-b-da, 2, 1, 4, 1, 135, 60, 60, 135, 134, 59, 3, 2.36651
9, 3, bw, attraction, a-b-db, 9, 3, 4, 2, 195, 120, 120, 195, 114, 186, 2, 2.90642
9, 3, bw, attraction, a-b-db, 9, 3, 4, 2, 195, 120, 120, 195, 114, 186, 1, 0.908897
9, 3, bw, attraction, a-b-db, 5, 2, 4, 3, 165, 90, 90, 165, 88, 161, 2, 1.95152
9, 3, bw, attraction, a-b-db, 5, 2, 4, 3, 165, 90, 90, 165, 88, 161, 1, 0.792219
9, 3, bw, catch, NA, 999, 999, 4, 4, 163, 152, 135, 60, 101, 154, 1, 1.32085
9, 3, bw, catch, NA, 999, 999, 4, 4, 163, 152, 135, 60, 101, 154, 2, 0.69795
9, 3, bw, attraction, a-b-db, 14, 3, 4, 5, 120, 195, 111, 181, 195, 120, 3, 2.03652
9, 3, bw, attraction, a-b-db, 14, 3, 4, 5, 120, 195, 111, 181, 195, 120, 2, 1.67318
9, 3, bw, attraction, a-b-da, 5, 1, 4, 6, 135, 60, 132, 58, 60, 135, 1, 1.69129
9, 3, bw, attraction, a-b-da, 5, 1, 4, 6, 135, 60, 132, 58, 60, 135, 3, 0.894591
9, 3, bw, attraction, a-b-da, 9, 3, 4, 7, 195, 120, 120, 195, 186, 114, 2, 1.73738
9, 3, bw, attraction, a-b-da, 9, 3, 4, 7, 195, 120, 120, 195, 186, 114, 3, 0.657644
9, 3, bw, attraction, a-b-db, 5, 3, 4, 8, 117, 190, 120, 195, 195, 120, 2, 1.64714
9, 3, bw, attraction, a-b-db, 5, 3, 4, 8, 117, 190, 120, 195, 195, 120, 3, 0.626616
9, 3, bw, attraction, a-b-da, 2, 2, 4, 9, 90, 165, 163, 89, 165, 90, 1, 1.58401
9, 3, bw, attraction, a-b-da, 2, 2, 4, 9, 90, 165, 163, 89, 165, 90, 2, 2.39988
9, 3, bw, filler, NA, 999, 999, 4, 10, 99, 124, 139, 135, 75, 71, 2, 1.69331
9, 3, bw, filler, NA, 999, 999, 4, 10, 99, 124, 139, 135, 75, 71, 3, 0.704136
9, 3, bw, filler, NA, 999, 999, 4, 11, 175, 137, 96, 95, 140, 66, 1, 1.633
9, 3, bw, filler, NA, 999, 999, 4, 11, 175, 137, 96, 95, 140, 66, 2, 0.79784
9, 3, bw, attraction, a-b-da, 14, 3, 4, 12, 195, 120, 181, 111, 120, 195, 1, 1.5728
9, 3, bw, attraction, a-b-da, 14, 3, 4, 12, 195, 120, 181, 111, 120, 195, 2, 0.700184
9, 3, bw, attraction, a-b-db, 2, 1, 4, 13, 135, 60, 60, 135, 59, 134, 2, 3.20073
9, 3, bw, attraction, a-b-db, 2, 1, 4, 13, 135, 60, 60, 135, 59, 134, 3, 1.8937
9, 3, bw, attraction, a-b-da, 5, 2, 4, 14, 165, 90, 90, 165, 161, 88, 1, 3.19044
9, 3, bw, attraction, a-b-da, 5, 2, 4, 14, 165, 90, 90, 165, 161, 88, 3, 0.888119
9, 3, bw, attraction, a-b-da, 14, 2, 4, 15, 165, 90, 153, 83, 90, 165, 2, 1.96111
9, 3, bw, attraction, a-b-da, 14, 2, 4, 15, 165, 90, 153, 83, 90, 165, 1, 0.930277
9, 3, bw, filler, NA, 999, 999, 4, 16, 195, 64, 108, 84, 161, 110, 3, 1.43372
9, 3, bw, filler, NA, 999, 999, 4, 16, 195, 64, 108, 84, 161, 110, 2, 0.742142
9, 3, bw, catch, NA, 999, 999, 4, 17, 91, 164, 110, 85, 121, 194, 3, 2.09655
9, 3, bw, catch, NA, 999, 999, 4, 17, 91, 164, 110, 85, 121, 194, 2, 0.667784
9, 3, bw, attraction, a-b-db, 5, 1, 4, 18, 60, 135, 135, 60, 58, 132, 3, 1.56571
9, 3, bw, attraction, a-b-db, 5, 1, 4, 18, 60, 135, 135, 60, 58, 132, 2, 0.876173
9, 3, bw, attraction, a-b-db, 2, 3, 4, 19, 195, 120, 120, 195, 119, 193, 1, 1.36848
9, 3, bw, attraction, a-b-db, 2, 3, 4, 19, 195, 120, 120, 195, 119, 193, 3, 0.720536
9, 3, bw, attraction, a-b-da, 14, 1, 4, 20, 125, 56, 135, 60, 60, 135, 3, 5.89719
9, 3, bw, attraction, a-b-da, 14, 1, 4, 20, 125, 56, 135, 60, 60, 135, 1, 0.68522
9, 3, bw, filler, NA, 999, 999, 4, 21, 165, 192, 107, 139, 169, 131, 1, 1.33478
9, 3, bw, filler, NA, 999, 999, 4, 21, 165, 192, 107, 139, 169, 131, 2, 2.79021
9, 3, bw, attraction, a-b-da, 9, 2, 4, 22, 157, 86, 90, 165, 165, 90, 1, 1.88554
9, 3, bw, attraction, a-b-da, 9, 2, 4, 22, 157, 86, 90, 165, 165, 90, 2, 0.831077
9, 3, bw, filler, NA, 999, 999, 4, 23, 56, 94, 97, 128, 147, 153, 1, 2.30938
9, 3, bw, filler, NA, 999, 999, 4, 23, 56, 94, 97, 128, 147, 153, 3, 1.71214
9, 3, bw, attraction, a-b-da, 5, 3, 4, 24, 190, 117, 120, 195, 195, 120, 2, 3.12747
9, 3, bw, attraction, a-b-da, 5, 3, 4, 24, 190, 117, 120, 195, 195, 120, 1, 0.883529
9, 3, bw, attraction, a-b-db, 9, 1, 4, 25, 135, 60, 57, 129, 60, 135, 2, 2.78968
9, 3, bw, attraction, a-b-db, 9, 1, 4, 25, 135, 60, 57, 129, 60, 135, 1, 1.57319
9, 3, bw, filler, NA, 999, 999, 4, 26, 73, 119, 179, 88, 79, 176, 3, 3.59428
9, 3, bw, filler, NA, 999, 999, 4, 26, 73, 119, 179, 88, 79, 176, 1, 3.09858
9, 3, bw, attraction, a-b-db, 14, 2, 4, 27, 83, 153, 165, 90, 90, 165, 3, 3.23556
9, 3, bw, attraction, a-b-db, 14, 2, 4, 27, 83, 153, 165, 90, 90, 165, 1, 1.11173
9, 3, bw, filler, NA, 999, 999, 4, 28, 154, 139, 77, 186, 58, 161, 1, 1.74399
9, 3, bw, filler, NA, 999, 999, 4, 28, 154, 139, 77, 186, 58, 161, 3, 0.634109
9, 3, bw, attraction, a-b-db, 9, 2, 4, 29, 86, 157, 165, 90, 90, 165, 3, 1.27276
9, 3, bw, attraction, a-b-db, 9, 2, 4, 29, 86, 157, 165, 90, 90, 165, 1, 0.585854
9, 3, bw, filler, NA, 999, 999, 4, 30, 152, 170, 98, 173, 124, 69, 1, 1.46651
9, 3, bw, filler, NA, 999, 999, 4, 30, 152, 170, 98, 173, 124, 69, 3, 0.869241
9, 3, bw, attraction, a-b-db, 14, 1, 4, 31, 135, 60, 56, 125, 60, 135, 3, 1.56073
9, 3, bw, attraction, a-b-db, 14, 1, 4, 31, 135, 60, 56, 125, 60, 135, 1, 0.537668
9, 3, bw, filler, NA, 999, 999, 4, 32, 164, 148, 69, 187, 145, 157, 3, 1.36245
9, 3, bw, filler, NA, 999, 999, 4, 32, 164, 148, 69, 187, 145, 157, 1, 3.05837
9, 3, bw, filler, NA, 999, 999, 4, 33, 188, 182, 98, 88, 86, 151, 1, 2.18777
9, 3, bw, filler, NA, 999, 999, 4, 33, 188, 182, 98, 88, 86, 151, 2, 0.517087
9, 3, bw, attraction, a-b-db, 2, 2, 4, 34, 89, 163, 90, 165, 165, 90, 2, 2.62921
9, 3, bw, attraction, a-b-db, 2, 2, 4, 34, 89, 163, 90, 165, 165, 90, 1, 0.708368
9, 3, bw, catch, NA, 999, 999, 4, 35, 148, 167, 124, 71, 126, 129, 1, 1.54027
9, 3, bw, catch, NA, 999, 999, 4, 35, 148, 167, 124, 71, 126, 129, 2, 0.54235
9, 3, bw, attraction, a-b-da, 9, 1, 4, 36, 60, 135, 135, 60, 129, 57, 1, 2.8933
9, 3, bw, attraction, a-b-da, 9, 1, 4, 36, 60, 135, 135, 60, 129, 57, 3, 0.897789
9, 3, bw, attraction, a-b-da, 2, 3, 4, 37, 195, 120, 120, 195, 193, 119, 2, 1.56398
9, 3, bw, attraction, a-b-da, 2, 3, 4, 37, 195, 120, 120, 195, 193, 119, 1, 1.10145
9, 3, bw, attraction, a-b-da, 5, 1, 5, 1, 132, 58, 135, 60, 60, 135, 3, 4.8998
9, 3, bw, attraction, a-b-da, 5, 1, 5, 1, 132, 58, 135, 60, 60, 135, 1, 0.718193
9, 3, bw, attraction, a-b-da, 14, 2, 5, 2, 153, 83, 165, 90, 90, 165, 3, 1.49371
9, 3, bw, attraction, a-b-da, 14, 2, 5, 2, 153, 83, 165, 90, 90, 165, 1, 0.68293
9, 3, bw, filler, NA, 999, 999, 5, 3, 71, 134, 57, 68, 102, 164, 3, 0.9664
9, 3, bw, filler, NA, 999, 999, 5, 3, 71, 134, 57, 68, 102, 164, 2, 0.572541
9, 3, bw, attraction, a-b-da, 2, 1, 5, 4, 60, 135, 134, 59, 135, 60, 1, 1.22889
9, 3, bw, attraction, a-b-da, 2, 1, 5, 4, 60, 135, 134, 59, 135, 60, 3, 0.562483
9, 3, bw, attraction, a-b-db, 9, 1, 5, 5, 57, 129, 60, 135, 135, 60, 1, 2.0904
9, 3, bw, attraction, a-b-db, 9, 1, 5, 5, 57, 129, 60, 135, 135, 60, 2, 1.12519
9, 3, bw, attraction, a-b-da, 14, 3, 5, 6, 181, 111, 120, 195, 195, 120, 2, 2.85441
9, 3, bw, attraction, a-b-da, 14, 3, 5, 6, 181, 111, 120, 195, 195, 120, 1, 0.843493
9, 3, bw, filler, NA, 999, 999, 5, 7, 185, 112, 155, 93, 120, 171, 3, 1.12584
9, 3, bw, filler, NA, 999, 999, 5, 7, 185, 112, 155, 93, 120, 171, 2, 0.729292
9, 3, bw, attraction, a-b-db, 14, 2, 5, 8, 83, 153, 90, 165, 165, 90, 2, 0.946686
9, 3, bw, attraction, a-b-db, 14, 2, 5, 8, 83, 153, 90, 165, 165, 90, 1, 0.683465
9, 3, bw, attraction, a-b-da, 5, 3, 5, 9, 120, 195, 190, 117, 195, 120, 2, 1.01408
9, 3, bw, attraction, a-b-da, 5, 3, 5, 9, 120, 195, 190, 117, 195, 120, 1, 1.07528
9, 3, bw, attraction, a-b-da, 2, 2, 5, 10, 90, 165, 165, 90, 163, 89, 2, 1.553
9, 3, bw, attraction, a-b-da, 2, 2, 5, 10, 90, 165, 165, 90, 163, 89, 3, 0.719246
9, 3, bw, attraction, a-b-da, 2, 3, 5, 11, 195, 120, 193, 119, 120, 195, 3, 1.28823
9, 3, bw, attraction, a-b-da, 2, 3, 5, 11, 195, 120, 193, 119, 120, 195, 1, 0.708455
9, 3, bw, attraction, a-b-da, 9, 1, 5, 12, 60, 135, 135, 60, 129, 57, 1, 2.03685
9, 3, bw, attraction, a-b-da, 9, 1, 5, 12, 60, 135, 135, 60, 129, 57, 3, 0.72423
9, 3, bw, attraction, a-b-db, 14, 1, 5, 13, 56, 125, 60, 135, 135, 60, 2, 1.15598
9, 3, bw, attraction, a-b-db, 14, 1, 5, 13, 56, 125, 60, 135, 135, 60, 1, 0.541475
9, 3, bw, attraction, a-b-db, 5, 3, 5, 14, 120, 195, 117, 190, 195, 120, 2, 1.23091
9, 3, bw, attraction, a-b-db, 5, 3, 5, 14, 120, 195, 117, 190, 195, 120, 3, 0.67478
9, 3, bw, filler, NA, 999, 999, 5, 15, 126, 171, 82, 166, 120, 127, 1, 1.30128
9, 3, bw, filler, NA, 999, 999, 5, 15, 126, 171, 82, 166, 120, 127, 3, 0.536021
9, 3, bw, filler, NA, 999, 999, 5, 16, 167, 163, 182, 170, 128, 129, 2, 2.03347
9, 3, bw, filler, NA, 999, 999, 5, 16, 167, 163, 182, 170, 128, 129, 3, 1.19921
9, 3, bw, catch, NA, 999, 999, 5, 17, 147, 108, 155, 160, 119, 76, 2, 1.07452
9, 3, bw, catch, NA, 999, 999, 5, 17, 147, 108, 155, 160, 119, 76, 3, 0.671899
9, 3, bw, attraction, a-b-da, 9, 3, 5, 18, 195, 120, 120, 195, 186, 114, 2, 1.69859
9, 3, bw, attraction, a-b-da, 9, 3, 5, 18, 195, 120, 120, 195, 186, 114, 1, 0.878847
9, 3, bw, attraction, a-b-db, 9, 3, 5, 19, 120, 195, 195, 120, 114, 186, 1, 1.92379
9, 3, bw, attraction, a-b-db, 9, 3, 5, 19, 120, 195, 195, 120, 114, 186, 3, 1.67588
9, 3, bw, catch, NA, 999, 999, 5, 20, 158, 157, 112, 83, 92, 163, 1, 1.04677
9, 3, bw, catch, NA, 999, 999, 5, 20, 158, 157, 112, 83, 92, 163, 2, 0.731547
9, 3, bw, attraction, a-b-da, 9, 2, 5, 21, 157, 86, 165, 90, 90, 165, 3, 1.42929
9, 3, bw, attraction, a-b-da, 9, 2, 5, 21, 157, 86, 165, 90, 90, 165, 1, 0.649561
9, 3, bw, attraction, a-b-da, 14, 1, 5, 22, 135, 60, 60, 135, 125, 56, 1, 1.47557
9, 3, bw, attraction, a-b-da, 14, 1, 5, 22, 135, 60, 60, 135, 125, 56, 2, 0.545538
9, 3, bw, filler, NA, 999, 999, 5, 23, 163, 174, 193, 109, 153, 70, 1, 1.42514
9, 3, bw, filler, NA, 999, 999, 5, 23, 163, 174, 193, 109, 153, 70, 2, 0.647822
9, 3, bw, catch, NA, 999, 999, 5, 24, 145, 170, 110, 145, 71, 124, 1, 1.2666
9, 3, bw, catch, NA, 999, 999, 5, 24, 145, 170, 110, 145, 71, 124, 3, 0.545225
9, 3, bw, attraction, a-b-db, 9, 2, 5, 25, 165, 90, 86, 157, 90, 165, 1, 1.52995
9, 3, bw, attraction, a-b-db, 9, 2, 5, 25, 165, 90, 86, 157, 90, 165, 2, 0.617759
9, 3, bw, filler, NA, 999, 999, 5, 26, 132, 98, 92, 74, 118, 56, 1, 1.64032
9, 3, bw, filler, NA, 999, 999, 5, 26, 132, 98, 92, 74, 118, 56, 3, 1.55694
9, 3, bw, attraction, a-b-db, 5, 2, 5, 27, 88, 161, 165, 90, 90, 165, 1, 4.9324
9, 3, bw, attraction, a-b-db, 5, 2, 5, 27, 88, 161, 165, 90, 90, 165, 2, 2.58766
9, 3, bw, attraction, a-b-db, 2, 2, 5, 28, 90, 165, 165, 90, 89, 163, 1, 2.73029
9, 3, bw, attraction, a-b-db, 2, 2, 5, 28, 90, 165, 165, 90, 89, 163, 3, 0.699342
9, 3, bw, attraction, a-b-db, 2, 1, 5, 29, 60, 135, 59, 134, 135, 60, 1, 3.11666
9, 3, bw, attraction, a-b-db, 2, 1, 5, 29, 60, 135, 59, 134, 135, 60, 3, 2.76936
9, 3, bw, filler, NA, 999, 999, 5, 30, 183, 153, 101, 190, 80, 60, 1, 1.59865
9, 3, bw, filler, NA, 999, 999, 5, 30, 183, 153, 101, 190, 80, 60, 3, 2.6286
9, 3, bw, filler, NA, 999, 999, 5, 31, 76, 140, 170, 161, 111, 130, 2, 1.24908
9, 3, bw, filler, NA, 999, 999, 5, 31, 76, 140, 170, 161, 111, 130, 1, 0.876002
9, 3, bw, attraction, a-b-db, 5, 1, 5, 32, 135, 60, 58, 132, 60, 135, 1, 1.18304
9, 3, bw, attraction, a-b-db, 5, 1, 5, 32, 135, 60, 58, 132, 60, 135, 3, 0.92105
9, 3, bw, filler, NA, 999, 999, 5, 33, 135, 171, 195, 178, 87, 74, 2, 1.12936
9, 3, bw, filler, NA, 999, 999, 5, 33, 135, 171, 195, 178, 87, 74, 3, 0.578881
9, 3, bw, filler, NA, 999, 999, 5, 34, 138, 82, 78, 188, 146, 131, 3, 1.33759
9, 3, bw, filler, NA, 999, 999, 5, 34, 138, 82, 78, 188, 146, 131, 1, 0.619276
9, 3, bw, attraction, a-b-db, 2, 3, 5, 35, 120, 195, 195, 120, 119, 193, 3, 1.53763
9, 3, bw, attraction, a-b-db, 2, 3, 5, 35, 120, 195, 195, 120, 119, 193, 2, 0.64284
9, 3, bw, attraction, a-b-db, 14, 3, 5, 36, 120, 195, 195, 120, 111, 181, 1, 1.27848
9, 3, bw, attraction, a-b-db, 14, 3, 5, 36, 120, 195, 195, 120, 111, 181, 3, 1.73836
9, 3, bw, attraction, a-b-da, 5, 2, 5, 37, 161, 88, 165, 90, 90, 165, 2, 1.92846
9, 3, bw, attraction, a-b-da, 5, 2, 5, 37, 161, 88, 165, 90, 90, 165, 1, 2.82796
9, 3, bw, attraction, a-b-da, 5, 1, 6, 1, 132, 58, 60, 135, 135, 60, 2, 4.34552
9, 3, bw, attraction, a-b-da, 5, 1, 6, 1, 132, 58, 60, 135, 135, 60, 1, 0.688503
9, 3, bw, filler, NA, 999, 999, 6, 2, 78, 130, 176, 166, 57, 143, 2, 1.75269
9, 3, bw, filler, NA, 999, 999, 6, 2, 78, 130, 176, 166, 57, 143, 3, 2.43487
9, 3, bw, attraction, a-b-da, 5, 3, 6, 3, 195, 120, 190, 117, 120, 195, 3, 1.8232
9, 3, bw, attraction, a-b-da, 5, 3, 6, 3, 195, 120, 190, 117, 120, 195, 2, 0.733719
9, 3, bw, attraction, a-b-da, 14, 3, 6, 4, 195, 120, 181, 111, 120, 195, 3, 1.54151
9, 3, bw, attraction, a-b-da, 14, 3, 6, 4, 195, 120, 181, 111, 120, 195, 2, 0.597993
9, 3, bw, attraction, a-b-db, 14, 1, 6, 5, 60, 135, 56, 125, 135, 60, 1, 3.0702
9, 3, bw, attraction, a-b-db, 14, 1, 6, 5, 60, 135, 56, 125, 135, 60, 2, 0.665182
9, 3, bw, attraction, a-b-db, 5, 2, 6, 6, 90, 165, 165, 90, 88, 161, 3, 1.57127
9, 3, bw, attraction, a-b-db, 5, 2, 6, 6, 90, 165, 165, 90, 88, 161, 2, 0.621099
9, 3, bw, filler, NA, 999, 999, 6, 7, 94, 77, 95, 133, 132, 152, 3, 1.34446
9, 3, bw, filler, NA, 999, 999, 6, 7, 94, 77, 95, 133, 132, 152, 1, 0.714666
9, 3, bw, filler, NA, 999, 999, 6, 8, 111, 56, 154, 89, 106, 60, 2, 1.13099
9, 3, bw, filler, NA, 999, 999, 6, 8, 111, 56, 154, 89, 106, 60, 1, 1.18105
9, 3, bw, attraction, a-b-db, 9, 2, 6, 9, 165, 90, 86, 157, 90, 165, 3, 2.43607
9, 3, bw, attraction, a-b-db, 9, 2, 6, 9, 165, 90, 86, 157, 90, 165, 1, 1.36953
9, 3, bw, attraction, a-b-da, 5, 2, 6, 10, 90, 165, 165, 90, 161, 88, 1, 1.43173
9, 3, bw, attraction, a-b-da, 5, 2, 6, 10, 90, 165, 165, 90, 161, 88, 3, 0.66181
9, 3, bw, attraction, a-b-db, 9, 1, 6, 11, 60, 135, 57, 129, 135, 60, 3, 1.18551
9, 3, bw, attraction, a-b-db, 9, 1, 6, 11, 60, 135, 57, 129, 135, 60, 1, 0.759697
9, 3, bw, filler, NA, 999, 999, 6, 12, 155, 57, 178, 142, 97, 107, 2, 1.26336
9, 3, bw, filler, NA, 999, 999, 6, 12, 155, 57, 178, 142, 97, 107, 3, 0.746625
9, 3, bw, attraction, a-b-db, 2, 1, 6, 13, 135, 60, 60, 135, 59, 134, 1, 1.37875
9, 3, bw, attraction, a-b-db, 2, 1, 6, 13, 135, 60, 60, 135, 59, 134, 2, 2.99483
9, 3, bw, filler, NA, 999, 999, 6, 14, 184, 161, 135, 161, 175, 136, 1, 1.65018
9, 3, bw, filler, NA, 999, 999, 6, 14, 184, 161, 135, 161, 175, 136, 3, 0.646763
9, 3, bw, attraction, a-b-da, 9, 1, 6, 15, 135, 60, 60, 135, 129, 57, 3, 1.34698
9, 3, bw, attraction, a-b-da, 9, 1, 6, 15, 135, 60, 60, 135, 129, 57, 2, 0.947753
9, 3, bw, attraction, a-b-db, 14, 2, 6, 16, 90, 165, 165, 90, 83, 153, 2, 1.14053
9, 3, bw, attraction, a-b-db, 14, 2, 6, 16, 90, 165, 165, 90, 83, 153, 3, 0.51649
9, 3, bw, attraction, a-b-da, 2, 1, 6, 17, 60, 135, 134, 59, 135, 60, 1, 1.14518
9, 3, bw, attraction, a-b-da, 2, 1, 6, 17, 60, 135, 134, 59, 135, 60, 2, 0.814535
9, 3, bw, catch, NA, 999, 999, 6, 18, 115, 80, 168, 147, 140, 115, 2, 1.69218
9, 3, bw, catch, NA, 999, 999, 6, 18, 115, 80, 168, 147, 140, 115, 1, 0.569689
9, 3, bw, attraction, a-b-da, 2, 3, 6, 19, 120, 195, 195, 120, 193, 119, 1, 3.06414
9, 3, bw, attraction, a-b-da, 2, 3, 6, 19, 120, 195, 195, 120, 193, 119, 3, 0.853014
9, 3, bw, filler, NA, 999, 999, 6, 20, 146, 169, 133, 148, 151, 93, 1, 2.30253
9, 3, bw, filler, NA, 999, 999, 6, 20, 146, 169, 133, 148, 151, 93, 3, 0.627529
9, 3, bw, filler, NA, 999, 999, 6, 21, 76, 63, 159, 66, 185, 128, 3, 1.14413
9, 3, bw, filler, NA, 999, 999, 6, 21, 76, 63, 159, 66, 185, 128, 1, 2.39284
9, 3, bw, filler, NA, 999, 999, 6, 22, 116, 104, 143, 154, 132, 166, 3, 1.69484
9, 3, bw, filler, NA, 999, 999, 6, 22, 116, 104, 143, 154, 132, 166, 1, 0.546454
9, 3, bw, filler, NA, 999, 999, 6, 23, 75, 82, 96, 137, 86, 159, 3, 1.24113
9, 3, bw, filler, NA, 999, 999, 6, 23, 75, 82, 96, 137, 86, 159, 1, 0.734484
9, 3, bw, filler, NA, 999, 999, 6, 24, 195, 152, 112, 81, 195, 60, 1, 1.12902
9, 3, bw, filler, NA, 999, 999, 6, 24, 195, 152, 112, 81, 195, 60, 2, 0.722752
9, 3, bw, attraction, a-b-db, 5, 3, 6, 25, 120, 195, 195, 120, 117, 190, 3, 1.1952
9, 3, bw, attraction, a-b-db, 5, 3, 6, 25, 120, 195, 195, 120, 117, 190, 1, 0.737665
9, 3, bw, attraction, a-b-db, 9, 3, 6, 26, 120, 195, 195, 120, 114, 186, 3, 1.57783
9, 3, bw, attraction, a-b-db, 9, 3, 6, 26, 120, 195, 195, 120, 114, 186, 1, 0.592624
9, 3, bw, attraction, a-b-da, 14, 2, 6, 27, 165, 90, 90, 165, 153, 83, 2, 1.36707
9, 3, bw, attraction, a-b-da, 14, 2, 6, 27, 165, 90, 90, 165, 153, 83, 3, 0.80201
9, 3, bw, attraction, a-b-db, 5, 1, 6, 28, 135, 60, 60, 135, 58, 132, 2, 2.0944
9, 3, bw, attraction, a-b-db, 5, 1, 6, 28, 135, 60, 60, 135, 58, 132, 1, 0.793269
9, 3, bw, attraction, a-b-db, 2, 3, 6, 29, 195, 120, 119, 193, 120, 195, 2, 2.12832
9, 3, bw, attraction, a-b-db, 2, 3, 6, 29, 195, 120, 119, 193, 120, 195, 1, 0.537831
9, 3, bw, attraction, a-b-da, 9, 3, 6, 30, 186, 114, 120, 195, 195, 120, 2, 2.02553
9, 3, bw, attraction, a-b-da, 9, 3, 6, 30, 186, 114, 120, 195, 195, 120, 1, 1.51904
9, 3, bw, attraction, a-b-da, 9, 2, 6, 31, 157, 86, 90, 165, 165, 90, 2, 1.37443
9, 3, bw, attraction, a-b-da, 9, 2, 6, 31, 157, 86, 90, 165, 165, 90, 1, 0.662997
9, 3, bw, catch, NA, 999, 999, 6, 32, 101, 94, 135, 120, 128, 187, 3, 1.53265
9, 3, bw, catch, NA, 999, 999, 6, 32, 101, 94, 135, 120, 128, 187, 1, 0.590312
9, 3, bw, attraction, a-b-da, 14, 1, 6, 33, 135, 60, 60, 135, 125, 56, 1, 1.74867
9, 3, bw, attraction, a-b-da, 14, 1, 6, 33, 135, 60, 60, 135, 125, 56, 3, 2.30105
9, 3, bw, attraction, a-b-db, 14, 3, 6, 34, 195, 120, 120, 195, 111, 181, 2, 2.3426
9, 3, bw, attraction, a-b-db, 14, 3, 6, 34, 195, 120, 120, 195, 111, 181, 1, 0.525805
9, 3, bw, catch, NA, 999, 999, 6, 35, 194, 121, 118, 137, 104, 91, 1, 1.71866
9, 3, bw, catch, NA, 999, 999, 6, 35, 194, 121, 118, 137, 104, 91, 3, 1.10428
9, 3, bw, attraction, a-b-da, 2, 2, 6, 36, 90, 165, 163, 89, 165, 90, 1, 3.7869
9, 3, bw, attraction, a-b-da, 2, 2, 6, 36, 90, 165, 163, 89, 165, 90, 3, 0.625166
9, 3, bw, attraction, a-b-db, 2, 2, 6, 37, 165, 90, 89, 163, 90, 165, 3, 1.8322
9, 3, bw, attraction, a-b-db, 2, 2, 6, 37, 165, 90, 89, 163, 90, 165, 1, 2.58034
9, 3, bw, attraction, a-b-db, 14, 1, 7, 1, 60, 135, 56, 125, 135, 60, 2, 2.31508
9, 3, bw, attraction, a-b-db, 14, 1, 7, 1, 60, 135, 56, 125, 135, 60, 3, 0.661802
9, 3, bw, attraction, a-b-da, 2, 3, 7, 2, 195, 120, 120, 195, 193, 119, 2, 1.91532
9, 3, bw, attraction, a-b-da, 2, 3, 7, 2, 195, 120, 120, 195, 193, 119, 3, 0.523719
9, 3, bw, filler, NA, 999, 999, 7, 3, 68, 92, 156, 190, 117, 58, 2, 1.156
9, 3, bw, filler, NA, 999, 999, 7, 3, 68, 92, 156, 190, 117, 58, 1, 0.678124
9, 3, bw, filler, NA, 999, 999, 7, 4, 88, 173, 67, 104, 193, 158, 3, 1.29484
9, 3, bw, filler, NA, 999, 999, 7, 4, 88, 173, 67, 104, 193, 158, 2, 0.714311
9, 3, bw, filler, NA, 999, 999, 7, 5, 122, 95, 180, 158, 191, 189, 3, 1.37365
9, 3, bw, filler, NA, 999, 999, 7, 5, 122, 95, 180, 158, 191, 189, 1, 0.717483
9, 3, bw, attraction, a-b-da, 9, 2, 7, 6, 157, 86, 90, 165, 165, 90, 2, 1.56481
9, 3, bw, attraction, a-b-da, 9, 2, 7, 6, 157, 86, 90, 165, 165, 90, 1, 0.575326
9, 3, bw, attraction, a-b-db, 2, 1, 7, 7, 60, 135, 59, 134, 135, 60, 2, 1.98035
9, 3, bw, attraction, a-b-db, 2, 1, 7, 7, 60, 135, 59, 134, 135, 60, 3, 0.630443
9, 3, bw, attraction, a-b-da, 2, 2, 7, 8, 165, 90, 163, 89, 90, 165, 3, 2.29853
9, 3, bw, attraction, a-b-da, 2, 2, 7, 8, 165, 90, 163, 89, 90, 165, 2, 1.23482
9, 3, bw, filler, NA, 999, 999, 7, 9, 108, 120, 168, 171, 171, 155, 2, 2.08838
9, 3, bw, filler, NA, 999, 999, 7, 9, 108, 120, 168, 171, 171, 155, 1, 1.17266
9, 3, bw, attraction, a-b-da, 5, 2, 7, 10, 165, 90, 90, 165, 161, 88, 2, 1.63561
9, 3, bw, attraction, a-b-da, 5, 2, 7, 10, 165, 90, 90, 165, 161, 88, 3, 2.88155
9, 3, bw, attraction, a-b-da, 9, 3, 7, 11, 186, 114, 195, 120, 120, 195, 3, 1.48299
9, 3, bw, attraction, a-b-da, 9, 3, 7, 11, 186, 114, 195, 120, 120, 195, 1, 1.22276
9, 3, bw, attraction, a-b-da, 14, 2, 7, 12, 90, 165, 165, 90, 153, 83, 2, 1.59675
9, 3, bw, attraction, a-b-da, 14, 2, 7, 12, 90, 165, 165, 90, 153, 83, 3, 2.52043
9, 3, bw, catch, NA, 999, 999, 7, 13, 64, 131, 127, 128, 174, 141, 3, 1.67427
9, 3, bw, catch, NA, 999, 999, 7, 13, 64, 131, 127, 128, 174, 141, 1, 1.32584
9, 3, bw, attraction, a-b-db, 5, 2, 7, 14, 90, 165, 165, 90, 88, 161, 3, 4.2302
9, 3, bw, attraction, a-b-db, 5, 2, 7, 14, 90, 165, 165, 90, 88, 161, 2, 0.723267
9, 3, bw, attraction, a-b-db, 2, 2, 7, 15, 89, 163, 90, 165, 165, 90, 2, 1.30214
9, 3, bw, attraction, a-b-db, 2, 2, 7, 15, 89, 163, 90, 165, 165, 90, 1, 1.80042
9, 3, bw, attraction, a-b-db, 9, 1, 7, 16, 57, 129, 60, 135, 135, 60, 2, 1.22974
9, 3, bw, attraction, a-b-db, 9, 1, 7, 16, 57, 129, 60, 135, 135, 60, 1, 0.788154
9, 3, bw, attraction, a-b-db, 14, 2, 7, 17, 90, 165, 83, 153, 165, 90, 2, 1.29016
9, 3, bw, attraction, a-b-db, 14, 2, 7, 17, 90, 165, 83, 153, 165, 90, 1, 1.25951
9, 3, bw, attraction, a-b-da, 14, 3, 7, 18, 195, 120, 181, 111, 120, 195, 3, 1.60759
9, 3, bw, attraction, a-b-da, 14, 3, 7, 18, 195, 120, 181, 111, 120, 195, 2, 0.734007
9, 3, bw, attraction, a-b-da, 2, 1, 7, 19, 134, 59, 135, 60, 60, 135, 3, 1.31819
9, 3, bw, attraction, a-b-da, 2, 1, 7, 19, 134, 59, 135, 60, 60, 135, 1, 0.617356
9, 3, bw, filler, NA, 999, 999, 7, 20, 122, 77, 101, 128, 174, 175, 3, 1.06988
9, 3, bw, filler, NA, 999, 999, 7, 20, 122, 77, 101, 128, 174, 175, 1, 0.762607
9, 3, bw, catch, NA, 999, 999, 7, 21, 147, 168, 64, 131, 102, 153, 1, 1.29247
9, 3, bw, catch, NA, 999, 999, 7, 21, 147, 168, 64, 131, 102, 153, 3, 0.75947
9, 3, bw, attraction, a-b-db, 2, 3, 7, 22, 195, 120, 120, 195, 119, 193, 2, 1.36431
9, 3, bw, attraction, a-b-db, 2, 3, 7, 22, 195, 120, 120, 195, 119, 193, 1, 1.21356
9, 3, bw, filler, NA, 999, 999, 7, 23, 180, 115, 146, 160, 80, 129, 2, 1.085
9, 3, bw, filler, NA, 999, 999, 7, 23, 180, 115, 146, 160, 80, 129, 3, 0.687844
9, 3, bw, attraction, a-b-db, 5, 3, 7, 24, 117, 190, 120, 195, 195, 120, 2, 1.75419
9, 3, bw, attraction, a-b-db, 5, 3, 7, 24, 117, 190, 120, 195, 195, 120, 1, 0.85884
9, 3, bw, attraction, a-b-db, 9, 2, 7, 25, 90, 165, 86, 157, 165, 90, 2, 1.57568
9, 3, bw, attraction, a-b-db, 9, 2, 7, 25, 90, 165, 86, 157, 165, 90, 1, 0.632082
9, 3, bw, filler, NA, 999, 999, 7, 26, 105, 70, 129, 163, 181, 186, 3, 1.09038
9, 3, bw, filler, NA, 999, 999, 7, 26, 105, 70, 129, 163, 181, 186, 1, 0.710571
9, 3, bw, attraction, a-b-db, 5, 1, 7, 27, 60, 135, 135, 60, 58, 132, 1, 1.40093
9, 3, bw, attraction, a-b-db, 5, 1, 7, 27, 60, 135, 135, 60, 58, 132, 2, 2.30353
9, 3, bw, catch, NA, 999, 999, 7, 28, 79, 116, 156, 159, 113, 142, 2, 1.60107
9, 3, bw, catch, NA, 999, 999, 7, 28, 79, 116, 156, 159, 113, 142, 1, 0.616529
9, 3, bw, attraction, a-b-da, 14, 1, 7, 29, 125, 56, 135, 60, 60, 135, 3, 1.24386
9, 3, bw, attraction, a-b-da, 14, 1, 7, 29, 125, 56, 135, 60, 60, 135, 2, 0.618318
9, 3, bw, attraction, a-b-da, 9, 1, 7, 30, 135, 60, 129, 57, 60, 135, 1, 1.16735
9, 3, bw, attraction, a-b-da, 9, 1, 7, 30, 135, 60, 129, 57, 60, 135, 2, 0.686807
9, 3, bw, filler, NA, 999, 999, 7, 31, 109, 183, 98, 187, 90, 95, 2, 1.19574
9, 3, bw, filler, NA, 999, 999, 7, 31, 109, 183, 98, 187, 90, 95, 3, 0.633563
9, 3, bw, attraction, a-b-da, 5, 3, 7, 32, 190, 117, 195, 120, 120, 195, 2, 1.16445
9, 3, bw, attraction, a-b-da, 5, 3, 7, 32, 190, 117, 195, 120, 120, 195, 1, 0.582414
9, 3, bw, filler, NA, 999, 999, 7, 33, 91, 192, 105, 144, 151, 185, 3, 1.14654
9, 3, bw, filler, NA, 999, 999, 7, 33, 91, 192, 105, 144, 151, 185, 2, 0.723804
9, 3, bw, attraction, a-b-db, 9, 3, 7, 34, 114, 186, 120, 195, 195, 120, 2, 1.26363
9, 3, bw, attraction, a-b-db, 9, 3, 7, 34, 114, 186, 120, 195, 195, 120, 1, 0.610081
9, 3, bw, attraction, a-b-db, 14, 3, 7, 35, 120, 195, 195, 120, 111, 181, 2, 0.976799
9, 3, bw, attraction, a-b-db, 14, 3, 7, 35, 120, 195, 195, 120, 111, 181, 3, 0.569148
9, 3, bw, filler, NA, 999, 999, 7, 36, 173, 150, 105, 103, 94, 155, 1, 1.40063
9, 3, bw, filler, NA, 999, 999, 7, 36, 173, 150, 105, 103, 94, 155, 2, 0.630993
9, 3, bw, attraction, a-b-da, 5, 1, 7, 37, 132, 58, 135, 60, 60, 135, 3, 1.29858
9, 3, bw, attraction, a-b-da, 5, 1, 7, 37, 132, 58, 135, 60, 60, 135, 2, 0.741769
9, 3, bw, catch, NA, 999, 999, 8, 1, 119, 136, 127, 68, 149, 166, 3, 0.917197
9, 3, bw, catch, NA, 999, 999, 8, 1, 119, 136, 127, 68, 149, 166, 2, 0.625584
9, 3, bw, catch, NA, 999, 999, 8, 2, 98, 157, 95, 100, 176, 139, 3, 0.990943
9, 3, bw, catch, NA, 999, 999, 8, 2, 98, 157, 95, 100, 176, 139, 2, 2.81991
9, 3, bw, filler, NA, 999, 999, 8, 3, 108, 153, 86, 112, 71, 181, 1, 1.7122
9, 3, bw, filler, NA, 999, 999, 8, 3, 108, 153, 86, 112, 71, 181, 2, 0.643461
9, 3, bw, attraction, a-b-db, 2, 1, 8, 4, 135, 60, 60, 135, 59, 134, 2, 1.56132
9, 3, bw, attraction, a-b-db, 2, 1, 8, 4, 135, 60, 60, 135, 59, 134, 1, 0.616801
9, 3, bw, attraction, a-b-da, 2, 1, 8, 5, 60, 135, 135, 60, 134, 59, 1, 1.63048
9, 3, bw, attraction, a-b-da, 2, 1, 8, 5, 60, 135, 135, 60, 134, 59, 3, 2.18784
9, 3, bw, attraction, a-b-da, 5, 3, 8, 6, 195, 120, 190, 117, 120, 195, 3, 1.34605
9, 3, bw, attraction, a-b-da, 5, 3, 8, 6, 195, 120, 190, 117, 120, 195, 2, 0.866821
9, 3, bw, attraction, a-b-db, 9, 2, 8, 7, 86, 157, 90, 165, 165, 90, 2, 1.48025
9, 3, bw, attraction, a-b-db, 9, 2, 8, 7, 86, 157, 90, 165, 165, 90, 1, 0.617133
9, 3, bw, attraction, a-b-db, 2, 2, 8, 8, 90, 165, 165, 90, 89, 163, 2, 0.87869
9, 3, bw, attraction, a-b-db, 2, 2, 8, 8, 90, 165, 165, 90, 89, 163, 1, 0.689426
9, 3, bw, attraction, a-b-db, 5, 3, 8, 9, 195, 120, 120, 195, 117, 190, 2, 0.972317
9, 3, bw, attraction, a-b-db, 5, 3, 8, 9, 195, 120, 120, 195, 117, 190, 1, 0.628644
9, 3, bw, attraction, a-b-da, 14, 1, 8, 10, 125, 56, 60, 135, 135, 60, 2, 1.57778
9, 3, bw, attraction, a-b-da, 14, 1, 8, 10, 125, 56, 60, 135, 135, 60, 1, 2.33051
9, 3, bw, filler, NA, 999, 999, 8, 11, 71, 169, 190, 84, 180, 98, 2, 0.964352
9, 3, bw, filler, NA, 999, 999, 8, 11, 71, 169, 190, 84, 180, 98, 1, 0.755631
9, 3, bw, attraction, a-b-da, 14, 3, 8, 12, 181, 111, 120, 195, 195, 120, 2, 0.979082
9, 3, bw, attraction, a-b-da, 14, 3, 8, 12, 181, 111, 120, 195, 195, 120, 1, 0.769628
9, 3, bw, attraction, a-b-da, 9, 2, 8, 13, 165, 90, 157, 86, 90, 165, 2, 1.5686
9, 3, bw, attraction, a-b-da, 9, 2, 8, 13, 165, 90, 157, 86, 90, 165, 1, 0.721865
9, 3, bw, filler, NA, 999, 999, 8, 14, 83, 133, 137, 161, 182, 64, 2, 1.07649
9, 3, bw, filler, NA, 999, 999, 8, 14, 83, 133, 137, 161, 182, 64, 1, 0.782697
9, 3, bw, filler, NA, 999, 999, 8, 15, 61, 195, 160, 60, 161, 132, 3, 1.02962
9, 3, bw, filler, NA, 999, 999, 8, 15, 61, 195, 160, 60, 161, 132, 2, 0.874774
9, 3, bw, filler, NA, 999, 999, 8, 16, 61, 166, 159, 185, 127, 88, 2, 0.968317
9, 3, bw, filler, NA, 999, 999, 8, 16, 61, 166, 159, 185, 127, 88, 1, 0.616066
9, 3, bw, catch, NA, 999, 999, 8, 17, 158, 97, 117, 78, 136, 179, 3, 1.09145
9, 3, bw, catch, NA, 999, 999, 8, 17, 158, 97, 117, 78, 136, 179, 2, 0.759921
9, 3, bw, filler, NA, 999, 999, 8, 18, 66, 137, 56, 190, 150, 143, 3, 1.20014
9, 3, bw, filler, NA, 999, 999, 8, 18, 66, 137, 56, 190, 150, 143, 1, 0.709705
9, 3, bw, attraction, a-b-da, 5, 1, 8, 19, 132, 58, 135, 60, 60, 135, 1, 1.3115
9, 3, bw, attraction, a-b-da, 5, 1, 8, 19, 132, 58, 135, 60, 60, 135, 3, 0.588049
9, 3, bw, attraction, a-b-db, 5, 2, 8, 20, 88, 161, 165, 90, 90, 165, 3, 1.60886
9, 3, bw, attraction, a-b-db, 5, 2, 8, 20, 88, 161, 165, 90, 90, 165, 1, 0.551498
9, 3, bw, attraction, a-b-da, 14, 2, 8, 21, 90, 165, 153, 83, 165, 90, 3, 1.34986
9, 3, bw, attraction, a-b-da, 14, 2, 8, 21, 90, 165, 153, 83, 165, 90, 1, 0.759002
9, 3, bw, attraction, a-b-db, 14, 1, 8, 22, 135, 60, 56, 125, 60, 135, 2, 1.42238
9, 3, bw, attraction, a-b-db, 14, 1, 8, 22, 135, 60, 56, 125, 60, 135, 1, 0.67942
9, 3, bw, filler, NA, 999, 999, 8, 23, 173, 132, 102, 118, 169, 173, 3, 2.47322
9, 3, bw, filler, NA, 999, 999, 8, 23, 173, 132, 102, 118, 169, 173, 2, 0.683441
9, 3, bw, attraction, a-b-db, 9, 1, 8, 24, 135, 60, 60, 135, 57, 129, 1, 1.16759
9, 3, bw, attraction, a-b-db, 9, 1, 8, 24, 135, 60, 60, 135, 57, 129, 2, 0.833282
9, 3, bw, attraction, a-b-db, 14, 3, 8, 25, 195, 120, 120, 195, 111, 181, 2, 1.12397
9, 3, bw, attraction, a-b-db, 14, 3, 8, 25, 195, 120, 120, 195, 111, 181, 1, 0.733607
9, 3, bw, attraction, a-b-db, 2, 3, 8, 26, 195, 120, 119, 193, 120, 195, 2, 0.983838
9, 3, bw, attraction, a-b-db, 2, 3, 8, 26, 195, 120, 119, 193, 120, 195, 1, 0.591035
9, 3, bw, attraction, a-b-da, 2, 2, 8, 27, 165, 90, 90, 165, 163, 89, 2, 0.998695
9, 3, bw, attraction, a-b-da, 2, 2, 8, 27, 165, 90, 90, 165, 163, 89, 3, 0.604367
9, 3, bw, attraction, a-b-da, 5, 2, 8, 28, 161, 88, 90, 165, 165, 90, 2, 0.977741
9, 3, bw, attraction, a-b-da, 5, 2, 8, 28, 161, 88, 90, 165, 165, 90, 3, 0.561184
9, 3, bw, attraction, a-b-da, 9, 3, 8, 29, 186, 114, 195, 120, 120, 195, 1, 2.08953
9, 3, bw, attraction, a-b-da, 9, 3, 8, 29, 186, 114, 195, 120, 120, 195, 2, 0.65317
9, 3, bw, attraction, a-b-da, 9, 1, 8, 30, 129, 57, 135, 60, 60, 135, 3, 0.943832
9, 3, bw, attraction, a-b-da, 9, 1, 8, 30, 129, 57, 135, 60, 60, 135, 2, 0.682092
9, 3, bw, attraction, a-b-db, 5, 1, 8, 31, 58, 132, 135, 60, 60, 135, 3, 1.31647
9, 3, bw, attraction, a-b-db, 5, 1, 8, 31, 58, 132, 135, 60, 60, 135, 2, 0.670483
9, 3, bw, filler, NA, 999, 999, 8, 32, 109, 115, 154, 192, 138, 128, 2, 0.985179
9, 3, bw, filler, NA, 999, 999, 8, 32, 109, 115, 154, 192, 138, 128, 1, 0.665336
9, 3, bw, filler, NA, 999, 999, 8, 33, 166, 148, 95, 129, 158, 80, 1, 1.13171
9, 3, bw, filler, NA, 999, 999, 8, 33, 166, 148, 95, 129, 158, 80, 2, 0.74151
9, 3, bw, attraction, a-b-da, 2, 3, 8, 34, 195, 120, 120, 195, 193, 119, 2, 1.35054
9, 3, bw, attraction, a-b-da, 2, 3, 8, 34, 195, 120, 120, 195, 193, 119, 1, 0.646928
9, 3, bw, filler, NA, 999, 999, 8, 35, 188, 180, 172, 119, 193, 92, 1, 1.38778
9, 3, bw, filler, NA, 999, 999, 8, 35, 188, 180, 172, 119, 193, 92, 3, 0.875844
9, 3, bw, attraction, a-b-db, 9, 3, 8, 36, 195, 120, 114, 186, 120, 195, 1, 1.61473
9, 3, bw, attraction, a-b-db, 9, 3, 8, 36, 195, 120, 114, 186, 120, 195, 2, 0.614337
9, 3, bw, attraction, a-b-db, 14, 2, 8, 37, 83, 153, 165, 90, 90, 165, 2, 0.92209
9, 3, bw, attraction, a-b-db, 14, 2, 8, 37, 83, 153, 165, 90, 90, 165, 1, 0.755346
