sub_n, computer_n, bw_cond, effect, set, distance, diag, block_n, trial_n, h1, w1, h2, w2, h3, w3, choice, rt 
96, 3, wb, practice, NA, 999, 999, 0, 1, 73, 182, 174, 79, 169, 81, 3, 8.65325
96, 3, wb, practice, NA, 999, 999, 0, 1, 73, 182, 174, 79, 169, 81, 1, 6.91166
96, 3, wb, practice, NA, 999, 999, 0, 2, 142, 68, 189, 127, 184, 119, 1, 2.85336
96, 3, wb, practice, NA, 999, 999, 0, 2, 142, 68, 189, 127, 184, 119, 2, 4.5298
96, 3, wb, practice, NA, 999, 999, 0, 3, 136, 183, 116, 182, 105, 155, 3, 2.29514
96, 3, wb, practice, NA, 999, 999, 0, 3, 136, 183, 116, 182, 105, 155, 1, 2.0176
96, 3, wb, attraction, a-b-da, 9, 3, 1, 1, 195, 120, 186, 114, 120, 195, 2, 7.18035
96, 3, wb, attraction, a-b-da, 9, 3, 1, 1, 195, 120, 186, 114, 120, 195, 3, 1.83402
96, 3, wb, attraction, a-b-da, 2, 3, 1, 2, 193, 119, 195, 120, 120, 195, 1, 2.87007
96, 3, wb, attraction, a-b-da, 2, 3, 1, 2, 193, 119, 195, 120, 120, 195, 3, 1.61774
96, 3, wb, attraction, a-b-db, 5, 1, 1, 3, 58, 132, 60, 135, 135, 60, 1, 8.83065
96, 3, wb, attraction, a-b-db, 5, 1, 1, 3, 58, 132, 60, 135, 135, 60, 2, 2.94572
96, 3, wb, attraction, a-b-da, 14, 2, 1, 4, 165, 90, 153, 83, 90, 165, 2, 3.33694
96, 3, wb, attraction, a-b-da, 14, 2, 1, 4, 165, 90, 153, 83, 90, 165, 3, 5.21778
96, 3, wb, attraction, a-b-db, 5, 3, 1, 5, 120, 195, 195, 120, 117, 190, 2, 7.47741
96, 3, wb, attraction, a-b-db, 5, 3, 1, 5, 120, 195, 195, 120, 117, 190, 1, 1.3911
96, 3, wb, attraction, a-b-da, 9, 1, 1, 6, 60, 135, 135, 60, 129, 57, 2, 15.9165
96, 3, wb, attraction, a-b-da, 9, 1, 1, 6, 60, 135, 135, 60, 129, 57, 1, 2.36219
96, 3, wb, filler, NA, 999, 999, 1, 7, 68, 187, 188, 82, 191, 183, 1, 2.54483
96, 3, wb, filler, NA, 999, 999, 1, 7, 68, 187, 188, 82, 191, 183, 3, 0.921209
96, 3, wb, attraction, a-b-db, 14, 3, 1, 8, 120, 195, 195, 120, 111, 181, 3, 9.45819
96, 3, wb, attraction, a-b-db, 14, 3, 1, 8, 120, 195, 195, 120, 111, 181, 1, 0.843854
96, 3, wb, catch, NA, 999, 999, 1, 9, 160, 155, 132, 123, 80, 115, 3, 1.35157
96, 3, wb, catch, NA, 999, 999, 1, 9, 160, 155, 132, 123, 80, 115, 1, 0.856534
96, 3, wb, filler, NA, 999, 999, 1, 10, 159, 184, 141, 191, 63, 112, 3, 1.24404
96, 3, wb, filler, NA, 999, 999, 1, 10, 159, 184, 141, 191, 63, 112, 1, 5.47317
96, 3, wb, filler, NA, 999, 999, 1, 11, 125, 96, 83, 115, 185, 131, 2, 4.17068
96, 3, wb, filler, NA, 999, 999, 1, 11, 125, 96, 83, 115, 185, 131, 3, 0.898014
96, 3, wb, attraction, a-b-db, 14, 2, 1, 12, 90, 165, 83, 153, 165, 90, 2, 9.8116
96, 3, wb, attraction, a-b-db, 14, 2, 1, 12, 90, 165, 83, 153, 165, 90, 1, 0.631176
96, 3, wb, filler, NA, 999, 999, 1, 13, 171, 67, 139, 193, 135, 185, 1, 4.25155
96, 3, wb, filler, NA, 999, 999, 1, 13, 171, 67, 139, 193, 135, 185, 2, 0.631535
96, 3, wb, attraction, a-b-db, 2, 1, 1, 14, 60, 135, 59, 134, 135, 60, 2, 7.22013
96, 3, wb, attraction, a-b-db, 2, 1, 1, 14, 60, 135, 59, 134, 135, 60, 3, 1.99239
96, 3, wb, attraction, a-b-db, 2, 2, 1, 15, 90, 165, 165, 90, 89, 163, 2, 2.57364
96, 3, wb, attraction, a-b-db, 2, 2, 1, 15, 90, 165, 165, 90, 89, 163, 1, 1.21281
96, 3, wb, attraction, a-b-db, 9, 1, 1, 16, 135, 60, 57, 129, 60, 135, 2, 7.16178
96, 3, wb, attraction, a-b-db, 9, 1, 1, 16, 135, 60, 57, 129, 60, 135, 3, 0.88034
96, 3, wb, attraction, a-b-db, 14, 1, 1, 17, 56, 125, 60, 135, 135, 60, 1, 9.31439
96, 3, wb, attraction, a-b-db, 14, 1, 1, 17, 56, 125, 60, 135, 135, 60, 2, 7.61842
96, 3, wb, attraction, a-b-da, 14, 3, 1, 18, 181, 111, 195, 120, 120, 195, 1, 3.71707
96, 3, wb, attraction, a-b-da, 14, 3, 1, 18, 181, 111, 195, 120, 120, 195, 3, 0.590542
96, 3, wb, filler, NA, 999, 999, 1, 19, 61, 181, 98, 109, 71, 119, 3, 2.07635
96, 3, wb, filler, NA, 999, 999, 1, 19, 61, 181, 98, 109, 71, 119, 2, 0.983595
96, 3, wb, attraction, a-b-db, 9, 2, 1, 20, 165, 90, 90, 165, 86, 157, 3, 8.98205
96, 3, wb, attraction, a-b-db, 9, 2, 1, 20, 165, 90, 90, 165, 86, 157, 1, 1.95514
96, 3, wb, attraction, a-b-da, 5, 2, 1, 21, 161, 88, 165, 90, 90, 165, 3, 2.67463
96, 3, wb, attraction, a-b-da, 5, 2, 1, 21, 161, 88, 165, 90, 90, 165, 2, 0.669548
96, 3, wb, attraction, a-b-da, 5, 1, 1, 22, 135, 60, 60, 135, 132, 58, 2, 1.68861
96, 3, wb, attraction, a-b-da, 5, 1, 1, 22, 135, 60, 60, 135, 132, 58, 3, 0.851502
96, 3, wb, attraction, a-b-db, 9, 3, 1, 23, 195, 120, 114, 186, 120, 195, 2, 1.5751
96, 3, wb, attraction, a-b-db, 9, 3, 1, 23, 195, 120, 114, 186, 120, 195, 1, 0.478529
96, 3, wb, filler, NA, 999, 999, 1, 24, 169, 92, 59, 149, 59, 78, 3, 1.16101
96, 3, wb, filler, NA, 999, 999, 1, 24, 169, 92, 59, 149, 59, 78, 1, 0.801437
96, 3, wb, attraction, a-b-da, 2, 1, 1, 25, 134, 59, 135, 60, 60, 135, 1, 2.76711
96, 3, wb, attraction, a-b-da, 2, 1, 1, 25, 134, 59, 135, 60, 60, 135, 3, 0.550753
96, 3, wb, filler, NA, 999, 999, 1, 26, 161, 59, 85, 110, 114, 58, 3, 2.50259
96, 3, wb, filler, NA, 999, 999, 1, 26, 161, 59, 85, 110, 114, 58, 1, 3.56921
96, 3, wb, filler, NA, 999, 999, 1, 27, 103, 105, 189, 181, 115, 161, 1, 0.927224
96, 3, wb, filler, NA, 999, 999, 1, 27, 103, 105, 189, 181, 115, 161, 2, 0.368885
96, 3, wb, attraction, a-b-da, 9, 2, 1, 28, 90, 165, 157, 86, 165, 90, 2, 2.56022
96, 3, wb, attraction, a-b-da, 9, 2, 1, 28, 90, 165, 157, 86, 165, 90, 1, 0.551895
96, 3, wb, filler, NA, 999, 999, 1, 29, 61, 193, 145, 83, 128, 59, 3, 3.43973
96, 3, wb, filler, NA, 999, 999, 1, 29, 61, 193, 145, 83, 128, 59, 1, 0.603894
96, 3, wb, attraction, a-b-db, 5, 2, 1, 30, 165, 90, 90, 165, 88, 161, 3, 6.14568
96, 3, wb, attraction, a-b-db, 5, 2, 1, 30, 165, 90, 90, 165, 88, 161, 2, 2.0411
96, 3, wb, attraction, a-b-da, 2, 2, 1, 31, 165, 90, 90, 165, 163, 89, 2, 1.30038
96, 3, wb, attraction, a-b-da, 2, 2, 1, 31, 165, 90, 90, 165, 163, 89, 1, 0.495419
96, 3, wb, attraction, a-b-db, 2, 3, 1, 32, 119, 193, 195, 120, 120, 195, 2, 2.18501
96, 3, wb, attraction, a-b-db, 2, 3, 1, 32, 119, 193, 195, 120, 120, 195, 3, 1.68045
96, 3, wb, catch, NA, 999, 999, 1, 33, 142, 173, 156, 99, 85, 110, 3, 1.15455
96, 3, wb, catch, NA, 999, 999, 1, 33, 142, 173, 156, 99, 85, 110, 1, 0.587375
96, 3, wb, attraction, a-b-da, 5, 3, 1, 34, 195, 120, 190, 117, 120, 195, 2, 4.05784
96, 3, wb, attraction, a-b-da, 5, 3, 1, 34, 195, 120, 190, 117, 120, 195, 3, 0.357195
96, 3, wb, filler, NA, 999, 999, 1, 35, 148, 192, 89, 194, 86, 119, 3, 1.06842
96, 3, wb, filler, NA, 999, 999, 1, 35, 148, 192, 89, 194, 86, 119, 1, 0.480742
96, 3, wb, catch, NA, 999, 999, 1, 36, 129, 186, 163, 92, 101, 94, 3, 0.635028
96, 3, wb, catch, NA, 999, 999, 1, 36, 129, 186, 163, 92, 101, 94, 1, 0.352876
96, 3, wb, attraction, a-b-da, 14, 1, 1, 37, 125, 56, 60, 135, 135, 60, 1, 4.14472
96, 3, wb, attraction, a-b-da, 14, 1, 1, 37, 125, 56, 60, 135, 135, 60, 3, 1.0648
96, 3, wb, attraction, a-b-da, 2, 3, 2, 1, 120, 195, 193, 119, 195, 120, 3, 3.25963
96, 3, wb, attraction, a-b-da, 2, 3, 2, 1, 120, 195, 193, 119, 195, 120, 1, 0.807322
96, 3, wb, catch, NA, 999, 999, 2, 2, 140, 175, 62, 133, 101, 154, 2, 0.540312
96, 3, wb, catch, NA, 999, 999, 2, 2, 140, 175, 62, 133, 101, 154, 1, 0.39758
96, 3, wb, attraction, a-b-da, 14, 1, 2, 3, 60, 135, 135, 60, 125, 56, 3, 4.40331
96, 3, wb, attraction, a-b-da, 14, 1, 2, 3, 60, 135, 135, 60, 125, 56, 2, 1.02517
96, 3, wb, filler, NA, 999, 999, 2, 4, 191, 190, 180, 185, 166, 191, 3, 1.30144
96, 3, wb, filler, NA, 999, 999, 2, 4, 191, 190, 180, 185, 166, 191, 1, 0.432392
96, 3, wb, attraction, a-b-db, 9, 3, 2, 5, 114, 186, 195, 120, 120, 195, 1, 1.97288
96, 3, wb, attraction, a-b-db, 9, 3, 2, 5, 114, 186, 195, 120, 120, 195, 3, 0.540312
96, 3, wb, attraction, a-b-db, 9, 1, 2, 6, 57, 129, 135, 60, 60, 135, 1, 2.11608
96, 3, wb, attraction, a-b-db, 9, 1, 2, 6, 57, 129, 135, 60, 60, 135, 3, 0.662038
96, 3, wb, filler, NA, 999, 999, 2, 7, 101, 84, 161, 158, 91, 147, 1, 2.89703
96, 3, wb, filler, NA, 999, 999, 2, 7, 101, 84, 161, 158, 91, 147, 2, 0.419464
96, 3, wb, filler, NA, 999, 999, 2, 8, 103, 125, 62, 138, 171, 114, 2, 1.91256
96, 3, wb, filler, NA, 999, 999, 2, 8, 103, 125, 62, 138, 171, 114, 3, 0.586625
96, 3, wb, attraction, a-b-db, 5, 3, 2, 9, 120, 195, 195, 120, 117, 190, 2, 2.11304
96, 3, wb, attraction, a-b-db, 5, 3, 2, 9, 120, 195, 195, 120, 117, 190, 1, 1.35506
96, 3, wb, attraction, a-b-db, 2, 1, 2, 10, 135, 60, 59, 134, 60, 135, 2, 2.55454
96, 3, wb, attraction, a-b-db, 2, 1, 2, 10, 135, 60, 59, 134, 60, 135, 1, 1.28299
96, 3, wb, attraction, a-b-da, 2, 2, 2, 11, 90, 165, 163, 89, 165, 90, 2, 1.6294
96, 3, wb, attraction, a-b-da, 2, 2, 2, 11, 90, 165, 163, 89, 165, 90, 1, 0.73877
96, 3, wb, filler, NA, 999, 999, 2, 12, 59, 57, 112, 99, 142, 161, 1, 0.723143
96, 3, wb, filler, NA, 999, 999, 2, 12, 59, 57, 112, 99, 142, 161, 3, 0.364867
96, 3, wb, attraction, a-b-da, 14, 3, 2, 13, 120, 195, 181, 111, 195, 120, 2, 2.2761
96, 3, wb, attraction, a-b-da, 14, 3, 2, 13, 120, 195, 181, 111, 195, 120, 1, 0.623288
96, 3, wb, attraction, a-b-db, 2, 3, 2, 14, 119, 193, 120, 195, 195, 120, 1, 1.81185
96, 3, wb, attraction, a-b-db, 2, 3, 2, 14, 119, 193, 120, 195, 195, 120, 3, 0.609797
96, 3, wb, catch, NA, 999, 999, 2, 15, 158, 157, 90, 165, 84, 111, 3, 1.25486
96, 3, wb, catch, NA, 999, 999, 2, 15, 158, 157, 90, 165, 84, 111, 1, 0.411791
96, 3, wb, attraction, a-b-db, 2, 2, 2, 16, 90, 165, 89, 163, 165, 90, 2, 5.36892
96, 3, wb, attraction, a-b-db, 2, 2, 2, 16, 90, 165, 89, 163, 165, 90, 3, 0.687882
96, 3, wb, attraction, a-b-da, 2, 1, 2, 17, 134, 59, 135, 60, 60, 135, 3, 3.22634
96, 3, wb, attraction, a-b-da, 2, 1, 2, 17, 134, 59, 135, 60, 60, 135, 1, 0.839396
96, 3, wb, attraction, a-b-da, 9, 1, 2, 18, 60, 135, 135, 60, 129, 57, 2, 0.71554
96, 3, wb, attraction, a-b-da, 9, 1, 2, 18, 60, 135, 135, 60, 129, 57, 3, 0.350019
96, 3, wb, attraction, a-b-da, 9, 3, 2, 19, 186, 114, 120, 195, 195, 120, 3, 1.76594
96, 3, wb, attraction, a-b-da, 9, 3, 2, 19, 186, 114, 120, 195, 195, 120, 2, 0.34986
96, 3, wb, attraction, a-b-da, 5, 1, 2, 20, 132, 58, 60, 135, 135, 60, 2, 2.52579
96, 3, wb, attraction, a-b-da, 5, 1, 2, 20, 132, 58, 60, 135, 135, 60, 3, 0.702857
96, 3, wb, filler, NA, 999, 999, 2, 21, 187, 70, 113, 115, 167, 169, 2, 2.5207
96, 3, wb, filler, NA, 999, 999, 2, 21, 187, 70, 113, 115, 167, 169, 3, 0.338612
96, 3, wb, attraction, a-b-db, 5, 2, 2, 22, 88, 161, 90, 165, 165, 90, 1, 17.491
96, 3, wb, attraction, a-b-db, 5, 2, 2, 22, 88, 161, 90, 165, 165, 90, 3, 0.761539
96, 3, wb, filler, NA, 999, 999, 2, 23, 111, 112, 109, 156, 170, 95, 1, 0.672499
96, 3, wb, filler, NA, 999, 999, 2, 23, 111, 112, 109, 156, 170, 95, 2, 0.612336
96, 3, wb, filler, NA, 999, 999, 2, 24, 63, 75, 177, 183, 164, 128, 1, 0.905338
96, 3, wb, filler, NA, 999, 999, 2, 24, 63, 75, 177, 183, 164, 128, 2, 0.427718
96, 3, wb, attraction, a-b-db, 14, 1, 2, 25, 60, 135, 56, 125, 135, 60, 2, 0.792453
96, 3, wb, attraction, a-b-db, 14, 1, 2, 25, 60, 135, 56, 125, 135, 60, 1, 0.367475
96, 3, wb, filler, NA, 999, 999, 2, 26, 195, 137, 72, 109, 192, 106, 2, 0.694513
96, 3, wb, filler, NA, 999, 999, 2, 26, 195, 137, 72, 109, 192, 106, 1, 0.3695
96, 3, wb, attraction, a-b-da, 14, 2, 2, 27, 153, 83, 90, 165, 165, 90, 1, 1.21666
96, 3, wb, attraction, a-b-da, 14, 2, 2, 27, 153, 83, 90, 165, 165, 90, 2, 0.358911
96, 3, wb, filler, NA, 999, 999, 2, 28, 119, 82, 171, 128, 155, 179, 1, 0.598082
96, 3, wb, filler, NA, 999, 999, 2, 28, 119, 82, 171, 128, 155, 179, 3, 0.541254
96, 3, wb, attraction, a-b-db, 14, 3, 2, 29, 111, 181, 120, 195, 195, 120, 1, 1.71694
96, 3, wb, attraction, a-b-db, 14, 3, 2, 29, 111, 181, 120, 195, 195, 120, 2, 0.263195
96, 3, wb, attraction, a-b-da, 5, 3, 2, 30, 195, 120, 190, 117, 120, 195, 2, 1.52237
96, 3, wb, attraction, a-b-da, 5, 3, 2, 30, 195, 120, 190, 117, 120, 195, 3, 0.555857
96, 3, wb, filler, NA, 999, 999, 2, 31, 185, 66, 82, 61, 174, 109, 2, 1.1956
96, 3, wb, filler, NA, 999, 999, 2, 31, 185, 66, 82, 61, 174, 109, 3, 0.298531
96, 3, wb, attraction, a-b-db, 14, 2, 2, 32, 83, 153, 90, 165, 165, 90, 1, 1.06838
96, 3, wb, attraction, a-b-db, 14, 2, 2, 32, 83, 153, 90, 165, 165, 90, 2, 0.407355
96, 3, wb, attraction, a-b-db, 9, 2, 2, 33, 86, 157, 90, 165, 165, 90, 1, 1.14181
96, 3, wb, attraction, a-b-db, 9, 2, 2, 33, 86, 157, 90, 165, 165, 90, 2, 0.286785
96, 3, wb, attraction, a-b-da, 9, 2, 2, 34, 165, 90, 157, 86, 90, 165, 2, 1.24131
96, 3, wb, attraction, a-b-da, 9, 2, 2, 34, 165, 90, 157, 86, 90, 165, 3, 0.310215
96, 3, wb, attraction, a-b-da, 5, 2, 2, 35, 161, 88, 90, 165, 165, 90, 1, 0.94334
96, 3, wb, attraction, a-b-da, 5, 2, 2, 35, 161, 88, 90, 165, 165, 90, 2, 0.328419
96, 3, wb, catch, NA, 999, 999, 2, 36, 182, 133, 140, 115, 132, 63, 3, 0.704908
96, 3, wb, catch, NA, 999, 999, 2, 36, 182, 133, 140, 115, 132, 63, 2, 0.299338
96, 3, wb, attraction, a-b-db, 5, 1, 2, 37, 135, 60, 60, 135, 58, 132, 3, 1.48522
96, 3, wb, attraction, a-b-db, 5, 1, 2, 37, 135, 60, 60, 135, 58, 132, 2, 0.360745
96, 3, wb, attraction, a-b-db, 5, 3, 3, 1, 120, 195, 117, 190, 195, 120, 1, 2.83176
96, 3, wb, attraction, a-b-db, 5, 3, 3, 1, 120, 195, 117, 190, 195, 120, 3, 0.516896
96, 3, wb, attraction, a-b-db, 2, 2, 3, 2, 90, 165, 165, 90, 89, 163, 2, 1.98199
96, 3, wb, attraction, a-b-db, 2, 2, 3, 2, 90, 165, 165, 90, 89, 163, 1, 0.317344
96, 3, wb, filler, NA, 999, 999, 3, 3, 159, 60, 153, 138, 182, 182, 1, 1.0387
96, 3, wb, filler, NA, 999, 999, 3, 3, 159, 60, 153, 138, 182, 182, 3, 0.283635
96, 3, wb, attraction, a-b-db, 2, 3, 3, 4, 119, 193, 120, 195, 195, 120, 3, 1.55813
96, 3, wb, attraction, a-b-db, 2, 3, 3, 4, 119, 193, 120, 195, 195, 120, 2, 0.286191
96, 3, wb, attraction, a-b-da, 2, 2, 3, 5, 165, 90, 163, 89, 90, 165, 1, 1.10471
96, 3, wb, attraction, a-b-da, 2, 2, 3, 5, 165, 90, 163, 89, 90, 165, 2, 0.275151
96, 3, wb, filler, NA, 999, 999, 3, 6, 188, 123, 166, 167, 130, 193, 1, 1.64549
96, 3, wb, filler, NA, 999, 999, 3, 6, 188, 123, 166, 167, 130, 193, 2, 0.610255
96, 3, wb, filler, NA, 999, 999, 3, 7, 58, 98, 129, 132, 114, 78, 1, 0.663612
96, 3, wb, filler, NA, 999, 999, 3, 7, 58, 98, 129, 132, 114, 78, 2, 0.283873
96, 3, wb, catch, NA, 999, 999, 3, 8, 148, 167, 148, 107, 96, 99, 3, 0.854397
96, 3, wb, catch, NA, 999, 999, 3, 8, 148, 167, 148, 107, 96, 99, 1, 0.314735
96, 3, wb, attraction, a-b-da, 2, 3, 3, 9, 193, 119, 195, 120, 120, 195, 1, 1.06794
96, 3, wb, attraction, a-b-da, 2, 3, 3, 9, 193, 119, 195, 120, 120, 195, 3, 0.608254
96, 3, wb, catch, NA, 999, 999, 3, 10, 99, 156, 123, 72, 124, 191, 2, 0.757287
96, 3, wb, catch, NA, 999, 999, 3, 10, 99, 156, 123, 72, 124, 191, 3, 0.533667
96, 3, wb, attraction, a-b-db, 14, 2, 3, 11, 90, 165, 165, 90, 83, 153, 3, 1.79811
96, 3, wb, attraction, a-b-db, 14, 2, 3, 11, 90, 165, 165, 90, 83, 153, 2, 1.2209
96, 3, wb, attraction, a-b-da, 5, 2, 3, 12, 161, 88, 90, 165, 165, 90, 1, 1.11388
96, 3, wb, attraction, a-b-da, 5, 2, 3, 12, 161, 88, 90, 165, 165, 90, 2, 0.564183
96, 3, wb, attraction, a-b-da, 9, 1, 3, 13, 135, 60, 129, 57, 60, 135, 1, 1.11518
96, 3, wb, attraction, a-b-da, 9, 1, 3, 13, 135, 60, 129, 57, 60, 135, 3, 0.405498
96, 3, wb, attraction, a-b-da, 5, 3, 3, 14, 195, 120, 120, 195, 190, 117, 1, 0.747401
96, 3, wb, attraction, a-b-da, 5, 3, 3, 14, 195, 120, 120, 195, 190, 117, 2, 1.02834
96, 3, wb, attraction, a-b-da, 9, 3, 3, 15, 120, 195, 186, 114, 195, 120, 2, 1.52063
96, 3, wb, attraction, a-b-da, 9, 3, 3, 15, 120, 195, 186, 114, 195, 120, 1, 0.85886
96, 3, wb, filler, NA, 999, 999, 3, 16, 105, 194, 65, 154, 179, 189, 2, 0.613962
96, 3, wb, filler, NA, 999, 999, 3, 16, 105, 194, 65, 154, 179, 189, 3, 0.308269
96, 3, wb, attraction, a-b-da, 9, 2, 3, 17, 157, 86, 90, 165, 165, 90, 1, 1.86144
96, 3, wb, attraction, a-b-da, 9, 2, 3, 17, 157, 86, 90, 165, 165, 90, 2, 0.46555
96, 3, wb, attraction, a-b-da, 5, 1, 3, 18, 60, 135, 135, 60, 132, 58, 1, 1.88464
96, 3, wb, attraction, a-b-da, 5, 1, 3, 18, 60, 135, 135, 60, 132, 58, 2, 0.528126
96, 3, wb, filler, NA, 999, 999, 3, 19, 106, 62, 105, 66, 153, 152, 1, 1.32844
96, 3, wb, filler, NA, 999, 999, 3, 19, 106, 62, 105, 66, 153, 152, 3, 0.362196
96, 3, wb, attraction, a-b-db, 9, 3, 3, 20, 114, 186, 120, 195, 195, 120, 1, 1.66518
96, 3, wb, attraction, a-b-db, 9, 3, 3, 20, 114, 186, 120, 195, 195, 120, 2, 0.453488
96, 3, wb, attraction, a-b-da, 14, 1, 3, 21, 60, 135, 135, 60, 125, 56, 3, 2.27424
96, 3, wb, attraction, a-b-da, 14, 1, 3, 21, 60, 135, 135, 60, 125, 56, 2, 0.412539
96, 3, wb, attraction, a-b-db, 5, 2, 3, 22, 88, 161, 90, 165, 165, 90, 1, 1.07352
96, 3, wb, attraction, a-b-db, 5, 2, 3, 22, 88, 161, 90, 165, 165, 90, 2, 0.389172
96, 3, wb, attraction, a-b-db, 5, 1, 3, 23, 58, 132, 60, 135, 135, 60, 1, 2.66756
96, 3, wb, attraction, a-b-db, 5, 1, 3, 23, 58, 132, 60, 135, 135, 60, 3, 0.471435
96, 3, wb, filler, NA, 999, 999, 3, 24, 69, 162, 110, 136, 112, 60, 2, 1.91454
96, 3, wb, filler, NA, 999, 999, 3, 24, 69, 162, 110, 136, 112, 60, 3, 1.02071
96, 3, wb, attraction, a-b-db, 9, 2, 3, 25, 86, 157, 90, 165, 165, 90, 1, 3.61783
96, 3, wb, attraction, a-b-db, 9, 2, 3, 25, 86, 157, 90, 165, 165, 90, 2, 0.535086
96, 3, wb, attraction, a-b-db, 14, 3, 3, 26, 111, 181, 120, 195, 195, 120, 1, 1.28755
96, 3, wb, attraction, a-b-db, 14, 3, 3, 26, 111, 181, 120, 195, 195, 120, 3, 0.379125
96, 3, wb, attraction, a-b-db, 2, 1, 3, 27, 59, 134, 135, 60, 60, 135, 2, 1.04958
96, 3, wb, attraction, a-b-db, 2, 1, 3, 27, 59, 134, 135, 60, 60, 135, 1, 1.30257
96, 3, wb, attraction, a-b-db, 9, 1, 3, 28, 57, 129, 60, 135, 135, 60, 1, 1.2162
96, 3, wb, attraction, a-b-db, 9, 1, 3, 28, 57, 129, 60, 135, 135, 60, 3, 1.19833
96, 3, wb, filler, NA, 999, 999, 3, 29, 191, 56, 121, 133, 113, 110, 1, 8.02004
96, 3, wb, filler, NA, 999, 999, 3, 29, 191, 56, 121, 133, 113, 110, 2, 0.496093
96, 3, wb, attraction, a-b-da, 14, 2, 3, 30, 165, 90, 153, 83, 90, 165, 2, 2.6658
96, 3, wb, attraction, a-b-da, 14, 2, 3, 30, 165, 90, 153, 83, 90, 165, 1, 0.333707
96, 3, wb, filler, NA, 999, 999, 3, 31, 133, 195, 127, 179, 59, 127, 3, 0.822245
96, 3, wb, filler, NA, 999, 999, 3, 31, 133, 195, 127, 179, 59, 127, 1, 0.331952
96, 3, wb, filler, NA, 999, 999, 3, 32, 86, 63, 109, 128, 194, 106, 1, 1.30037
96, 3, wb, filler, NA, 999, 999, 3, 32, 86, 63, 109, 128, 194, 106, 3, 1.17529
96, 3, wb, filler, NA, 999, 999, 3, 33, 102, 144, 146, 157, 135, 193, 1, 0.629599
96, 3, wb, filler, NA, 999, 999, 3, 33, 102, 144, 146, 157, 135, 193, 3, 0.491264
96, 3, wb, attraction, a-b-db, 14, 1, 3, 34, 56, 125, 135, 60, 60, 135, 2, 1.65308
96, 3, wb, attraction, a-b-db, 14, 1, 3, 34, 56, 125, 135, 60, 60, 135, 3, 0.38587
96, 3, wb, catch, NA, 999, 999, 3, 35, 174, 141, 117, 78, 158, 97, 2, 1.29634
96, 3, wb, catch, NA, 999, 999, 3, 35, 174, 141, 117, 78, 158, 97, 1, 0.483365
96, 3, wb, attraction, a-b-da, 2, 1, 3, 36, 134, 59, 60, 135, 135, 60, 1, 1.47769
96, 3, wb, attraction, a-b-da, 2, 1, 3, 36, 134, 59, 60, 135, 135, 60, 2, 0.71321
96, 3, wb, attraction, a-b-da, 14, 3, 3, 37, 120, 195, 181, 111, 195, 120, 1, 1.22648
96, 3, wb, attraction, a-b-da, 14, 3, 3, 37, 120, 195, 181, 111, 195, 120, 3, 0.535829
96, 3, wb, attraction, a-b-db, 5, 1, 4, 1, 60, 135, 135, 60, 58, 132, 2, 0.712262
96, 3, wb, attraction, a-b-db, 5, 1, 4, 1, 60, 135, 135, 60, 58, 132, 1, 0.402714
96, 3, wb, attraction, a-b-da, 5, 2, 4, 2, 90, 165, 165, 90, 161, 88, 1, 1.14456
96, 3, wb, attraction, a-b-da, 5, 2, 4, 2, 90, 165, 165, 90, 161, 88, 3, 0.841611
96, 3, wb, attraction, a-b-da, 9, 3, 4, 3, 120, 195, 195, 120, 186, 114, 2, 0.997178
96, 3, wb, attraction, a-b-da, 9, 3, 4, 3, 120, 195, 195, 120, 186, 114, 1, 0.46817
96, 3, wb, attraction, a-b-db, 14, 1, 4, 4, 135, 60, 56, 125, 60, 135, 2, 0.623242
96, 3, wb, attraction, a-b-db, 14, 1, 4, 4, 135, 60, 56, 125, 60, 135, 1, 0.389137
96, 3, wb, attraction, a-b-db, 9, 3, 4, 5, 114, 186, 120, 195, 195, 120, 1, 1.13163
96, 3, wb, attraction, a-b-db, 9, 3, 4, 5, 114, 186, 120, 195, 195, 120, 2, 0.333368
96, 3, wb, catch, NA, 999, 999, 4, 6, 115, 80, 93, 162, 159, 156, 1, 0.685687
96, 3, wb, catch, NA, 999, 999, 4, 6, 115, 80, 93, 162, 159, 156, 3, 0.505432
96, 3, wb, attraction, a-b-da, 14, 1, 4, 7, 135, 60, 125, 56, 60, 135, 2, 0.819284
96, 3, wb, attraction, a-b-da, 14, 1, 4, 7, 135, 60, 125, 56, 60, 135, 1, 0.401584
96, 3, wb, attraction, a-b-db, 5, 3, 4, 8, 195, 120, 117, 190, 120, 195, 2, 2.55954
96, 3, wb, attraction, a-b-db, 5, 3, 4, 8, 195, 120, 117, 190, 120, 195, 1, 0.319305
96, 3, wb, filler, NA, 999, 999, 4, 9, 156, 169, 107, 152, 88, 149, 3, 0.88047
96, 3, wb, filler, NA, 999, 999, 4, 9, 156, 169, 107, 152, 88, 149, 2, 0.308159
96, 3, wb, attraction, a-b-da, 14, 3, 4, 10, 181, 111, 120, 195, 195, 120, 1, 1.92533
96, 3, wb, attraction, a-b-da, 14, 3, 4, 10, 181, 111, 120, 195, 195, 120, 2, 0.782675
96, 3, wb, attraction, a-b-db, 9, 1, 4, 11, 60, 135, 135, 60, 57, 129, 1, 1.93305
96, 3, wb, attraction, a-b-db, 9, 1, 4, 11, 60, 135, 135, 60, 57, 129, 2, 0.334421
96, 3, wb, filler, NA, 999, 999, 4, 12, 107, 86, 121, 86, 67, 165, 1, 1.49491
96, 3, wb, filler, NA, 999, 999, 4, 12, 107, 86, 121, 86, 67, 165, 2, 1.52981
96, 3, wb, attraction, a-b-db, 2, 1, 4, 13, 60, 135, 135, 60, 59, 134, 1, 1.23404
96, 3, wb, attraction, a-b-db, 2, 1, 4, 13, 60, 135, 135, 60, 59, 134, 2, 0.327638
96, 3, wb, attraction, a-b-da, 2, 3, 4, 14, 193, 119, 195, 120, 120, 195, 1, 1.40801
96, 3, wb, attraction, a-b-da, 2, 3, 4, 14, 193, 119, 195, 120, 120, 195, 3, 1.00626
96, 3, wb, attraction, a-b-da, 5, 1, 4, 15, 132, 58, 135, 60, 60, 135, 3, 1.73984
96, 3, wb, attraction, a-b-da, 5, 1, 4, 15, 132, 58, 135, 60, 60, 135, 2, 0.388617
96, 3, wb, attraction, a-b-da, 5, 3, 4, 16, 120, 195, 195, 120, 190, 117, 2, 2.22716
96, 3, wb, attraction, a-b-da, 5, 3, 4, 16, 120, 195, 195, 120, 190, 117, 1, 0.320335
96, 3, wb, filler, NA, 999, 999, 4, 17, 128, 115, 135, 80, 192, 153, 1, 0.897469
96, 3, wb, filler, NA, 999, 999, 4, 17, 128, 115, 135, 80, 192, 153, 3, 0.900636
96, 3, wb, catch, NA, 999, 999, 4, 18, 154, 161, 100, 155, 78, 117, 3, 1.11022
96, 3, wb, catch, NA, 999, 999, 4, 18, 154, 161, 100, 155, 78, 117, 1, 0.328497
96, 3, wb, filler, NA, 999, 999, 4, 19, 161, 92, 179, 71, 59, 131, 3, 0.889025
96, 3, wb, filler, NA, 999, 999, 4, 19, 161, 92, 179, 71, 59, 131, 1, 0.436139
96, 3, wb, attraction, a-b-db, 9, 2, 4, 20, 86, 157, 90, 165, 165, 90, 1, 1.12053
96, 3, wb, attraction, a-b-db, 9, 2, 4, 20, 86, 157, 90, 165, 165, 90, 2, 0.698837
96, 3, wb, filler, NA, 999, 999, 4, 21, 186, 66, 58, 65, 111, 128, 2, 0.644527
96, 3, wb, filler, NA, 999, 999, 4, 21, 186, 66, 58, 65, 111, 128, 3, 0.441711
96, 3, wb, attraction, a-b-da, 9, 1, 4, 22, 60, 135, 135, 60, 129, 57, 3, 1.46146
96, 3, wb, attraction, a-b-da, 9, 1, 4, 22, 60, 135, 135, 60, 129, 57, 2, 0.553633
96, 3, wb, filler, NA, 999, 999, 4, 23, 158, 170, 194, 163, 153, 88, 3, 0.897518
96, 3, wb, filler, NA, 999, 999, 4, 23, 158, 170, 194, 163, 153, 88, 2, 0.66057
96, 3, wb, attraction, a-b-da, 14, 2, 4, 24, 90, 165, 153, 83, 165, 90, 2, 1.98347
96, 3, wb, attraction, a-b-da, 14, 2, 4, 24, 90, 165, 153, 83, 165, 90, 3, 0.414836
96, 3, wb, attraction, a-b-da, 9, 2, 4, 25, 157, 86, 165, 90, 90, 165, 1, 1.13204
96, 3, wb, attraction, a-b-da, 9, 2, 4, 25, 157, 86, 165, 90, 90, 165, 2, 0.413672
96, 3, wb, attraction, a-b-db, 14, 3, 4, 26, 111, 181, 195, 120, 120, 195, 1, 1.06669
96, 3, wb, attraction, a-b-db, 14, 3, 4, 26, 111, 181, 195, 120, 120, 195, 2, 0.343016
96, 3, wb, filler, NA, 999, 999, 4, 27, 188, 153, 95, 112, 103, 111, 2, 1.02297
96, 3, wb, filler, NA, 999, 999, 4, 27, 188, 153, 95, 112, 103, 111, 1, 0.308609
96, 3, wb, filler, NA, 999, 999, 4, 28, 129, 75, 183, 133, 188, 178, 1, 0.637724
96, 3, wb, filler, NA, 999, 999, 4, 28, 129, 75, 183, 133, 188, 178, 3, 0.32298
96, 3, wb, attraction, a-b-db, 2, 2, 4, 29, 89, 163, 90, 165, 165, 90, 1, 1.37204
96, 3, wb, attraction, a-b-db, 2, 2, 4, 29, 89, 163, 90, 165, 165, 90, 2, 2.3557
96, 3, wb, catch, NA, 999, 999, 4, 30, 165, 90, 74, 121, 156, 159, 2, 1.49077
96, 3, wb, catch, NA, 999, 999, 4, 30, 165, 90, 74, 121, 156, 159, 3, 0.309722
96, 3, wb, attraction, a-b-db, 2, 3, 4, 31, 195, 120, 120, 195, 119, 193, 2, 2.71896
96, 3, wb, attraction, a-b-db, 2, 3, 4, 31, 195, 120, 120, 195, 119, 193, 1, 0.280658
96, 3, wb, filler, NA, 999, 999, 4, 32, 83, 161, 65, 60, 172, 154, 2, 0.691039
96, 3, wb, filler, NA, 999, 999, 4, 32, 83, 161, 65, 60, 172, 154, 3, 0.246127
96, 3, wb, attraction, a-b-db, 14, 2, 4, 33, 83, 153, 90, 165, 165, 90, 1, 1.67405
96, 3, wb, attraction, a-b-db, 14, 2, 4, 33, 83, 153, 90, 165, 165, 90, 2, 0.557493
96, 3, wb, attraction, a-b-da, 2, 2, 4, 34, 165, 90, 90, 165, 163, 89, 3, 1.78069
96, 3, wb, attraction, a-b-da, 2, 2, 4, 34, 165, 90, 90, 165, 163, 89, 2, 1.84409
96, 3, wb, attraction, a-b-da, 2, 1, 4, 35, 60, 135, 134, 59, 135, 60, 1, 1.29535
96, 3, wb, attraction, a-b-da, 2, 1, 4, 35, 60, 135, 134, 59, 135, 60, 2, 0.626309
96, 3, wb, filler, NA, 999, 999, 4, 36, 137, 127, 86, 181, 153, 141, 1, 1.36667
96, 3, wb, filler, NA, 999, 999, 4, 36, 137, 127, 86, 181, 153, 141, 3, 0.342943
96, 3, wb, attraction, a-b-db, 5, 2, 4, 37, 88, 161, 165, 90, 90, 165, 1, 1.63079
96, 3, wb, attraction, a-b-db, 5, 2, 4, 37, 88, 161, 165, 90, 90, 165, 3, 0.628302
96, 3, wb, filler, NA, 999, 999, 5, 1, 151, 99, 139, 187, 160, 106, 1, 2.0713
96, 3, wb, filler, NA, 999, 999, 5, 1, 151, 99, 139, 187, 160, 106, 2, 0.298576
96, 3, wb, attraction, a-b-db, 5, 3, 5, 2, 195, 120, 117, 190, 120, 195, 2, 4.57246
96, 3, wb, attraction, a-b-db, 5, 3, 5, 2, 195, 120, 117, 190, 120, 195, 3, 0.779683
96, 3, wb, attraction, a-b-da, 5, 1, 5, 3, 60, 135, 132, 58, 135, 60, 2, 1.834
96, 3, wb, attraction, a-b-da, 5, 1, 5, 3, 60, 135, 132, 58, 135, 60, 1, 1.03944
96, 3, wb, catch, NA, 999, 999, 5, 4, 135, 180, 105, 150, 122, 73, 3, 1.34769
96, 3, wb, catch, NA, 999, 999, 5, 4, 135, 180, 105, 150, 122, 73, 1, 0.420604
96, 3, wb, attraction, a-b-da, 5, 2, 5, 5, 90, 165, 161, 88, 165, 90, 1, 1.84187
96, 3, wb, attraction, a-b-da, 5, 2, 5, 5, 90, 165, 161, 88, 165, 90, 3, 0.534453
96, 3, wb, attraction, a-b-db, 14, 1, 5, 6, 56, 125, 135, 60, 60, 135, 2, 0.82288
96, 3, wb, attraction, a-b-db, 14, 1, 5, 6, 56, 125, 135, 60, 60, 135, 3, 1.06855
96, 3, wb, attraction, a-b-da, 2, 3, 5, 7, 120, 195, 195, 120, 193, 119, 2, 3.77548
96, 3, wb, attraction, a-b-da, 2, 3, 5, 7, 120, 195, 195, 120, 193, 119, 1, 0.390308
96, 3, wb, filler, NA, 999, 999, 5, 8, 158, 72, 128, 99, 129, 108, 2, 2.89211
96, 3, wb, filler, NA, 999, 999, 5, 8, 158, 72, 128, 99, 129, 108, 3, 0.526539
96, 3, wb, attraction, a-b-da, 2, 2, 5, 9, 90, 165, 165, 90, 163, 89, 1, 3.05514
96, 3, wb, attraction, a-b-da, 2, 2, 5, 9, 90, 165, 165, 90, 163, 89, 2, 0.547415
96, 3, wb, filler, NA, 999, 999, 5, 10, 178, 177, 91, 85, 177, 152, 2, 1.73107
96, 3, wb, filler, NA, 999, 999, 5, 10, 178, 177, 91, 85, 177, 152, 1, 1.38057
96, 3, wb, attraction, a-b-db, 9, 3, 5, 11, 195, 120, 114, 186, 120, 195, 1, 1.66671
96, 3, wb, attraction, a-b-db, 9, 3, 5, 11, 195, 120, 114, 186, 120, 195, 3, 0.590848
96, 3, wb, filler, NA, 999, 999, 5, 12, 74, 85, 168, 155, 136, 145, 1, 0.740576
96, 3, wb, filler, NA, 999, 999, 5, 12, 74, 85, 168, 155, 136, 145, 2, 0.50176
96, 3, wb, attraction, a-b-db, 14, 3, 5, 13, 111, 181, 120, 195, 195, 120, 1, 1.83141
96, 3, wb, attraction, a-b-db, 14, 3, 5, 13, 111, 181, 120, 195, 195, 120, 2, 0.476929
96, 3, wb, attraction, a-b-da, 2, 1, 5, 14, 60, 135, 134, 59, 135, 60, 1, 1.51134
96, 3, wb, attraction, a-b-da, 2, 1, 5, 14, 60, 135, 134, 59, 135, 60, 2, 0.457589
96, 3, wb, filler, NA, 999, 999, 5, 15, 56, 121, 186, 177, 171, 103, 1, 0.725177
96, 3, wb, filler, NA, 999, 999, 5, 15, 56, 121, 186, 177, 171, 103, 2, 0.350447
96, 3, wb, attraction, a-b-da, 14, 2, 5, 16, 165, 90, 153, 83, 90, 165, 2, 2.41414
96, 3, wb, attraction, a-b-da, 14, 2, 5, 16, 165, 90, 153, 83, 90, 165, 3, 0.540077
96, 3, wb, catch, NA, 999, 999, 5, 17, 148, 107, 120, 195, 102, 93, 3, 1.72396
96, 3, wb, catch, NA, 999, 999, 5, 17, 148, 107, 120, 195, 102, 93, 2, 0.333233
96, 3, wb, attraction, a-b-db, 2, 3, 5, 18, 119, 193, 120, 195, 195, 120, 1, 1.24579
96, 3, wb, attraction, a-b-db, 2, 3, 5, 18, 119, 193, 120, 195, 195, 120, 2, 0.562766
96, 3, wb, attraction, a-b-da, 9, 2, 5, 19, 90, 165, 165, 90, 157, 86, 1, 0.889731
96, 3, wb, attraction, a-b-da, 9, 2, 5, 19, 90, 165, 165, 90, 157, 86, 2, 0.388943
96, 3, wb, attraction, a-b-db, 2, 2, 5, 20, 90, 165, 89, 163, 165, 90, 2, 1.53129
96, 3, wb, attraction, a-b-db, 2, 2, 5, 20, 90, 165, 89, 163, 165, 90, 1, 0.612745
96, 3, wb, filler, NA, 999, 999, 5, 21, 187, 131, 117, 142, 96, 101, 3, 0.737953
96, 3, wb, filler, NA, 999, 999, 5, 21, 187, 131, 117, 142, 96, 101, 1, 0.77897
96, 3, wb, filler, NA, 999, 999, 5, 22, 99, 133, 183, 136, 152, 180, 1, 0.801274
96, 3, wb, filler, NA, 999, 999, 5, 22, 99, 133, 183, 136, 152, 180, 3, 0.416407
96, 3, wb, attraction, a-b-da, 14, 3, 5, 23, 120, 195, 195, 120, 181, 111, 3, 2.20555
96, 3, wb, attraction, a-b-da, 14, 3, 5, 23, 120, 195, 195, 120, 181, 111, 2, 0.835496
96, 3, wb, filler, NA, 999, 999, 5, 24, 82, 79, 85, 116, 115, 60, 1, 0.743837
96, 3, wb, filler, NA, 999, 999, 5, 24, 82, 79, 85, 116, 115, 60, 2, 0.688924
96, 3, wb, attraction, a-b-db, 5, 2, 5, 25, 88, 161, 165, 90, 90, 165, 1, 1.09922
96, 3, wb, attraction, a-b-db, 5, 2, 5, 25, 88, 161, 165, 90, 90, 165, 2, 0.470267
96, 3, wb, attraction, a-b-da, 9, 3, 5, 26, 195, 120, 120, 195, 186, 114, 2, 1.55342
96, 3, wb, attraction, a-b-da, 9, 3, 5, 26, 195, 120, 120, 195, 186, 114, 1, 0.874279
96, 3, wb, attraction, a-b-db, 14, 2, 5, 27, 165, 90, 83, 153, 90, 165, 2, 0.956498
96, 3, wb, attraction, a-b-db, 14, 2, 5, 27, 165, 90, 83, 153, 90, 165, 3, 0.652965
96, 3, wb, attraction, a-b-da, 5, 3, 5, 28, 195, 120, 190, 117, 120, 195, 2, 1.31269
96, 3, wb, attraction, a-b-da, 5, 3, 5, 28, 195, 120, 190, 117, 120, 195, 3, 0.354863
96, 3, wb, attraction, a-b-db, 9, 1, 5, 29, 57, 129, 60, 135, 135, 60, 1, 1.10671
96, 3, wb, attraction, a-b-db, 9, 1, 5, 29, 57, 129, 60, 135, 135, 60, 3, 0.629027
96, 3, wb, catch, NA, 999, 999, 5, 30, 64, 131, 140, 175, 101, 154, 1, 0.609339
96, 3, wb, catch, NA, 999, 999, 5, 30, 64, 131, 140, 175, 101, 154, 2, 0.271846
96, 3, wb, attraction, a-b-db, 9, 2, 5, 31, 165, 90, 90, 165, 86, 157, 3, 2.12306
96, 3, wb, attraction, a-b-db, 9, 2, 5, 31, 165, 90, 90, 165, 86, 157, 2, 0.684355
96, 3, wb, attraction, a-b-da, 14, 1, 5, 32, 135, 60, 125, 56, 60, 135, 1, 1.17489
96, 3, wb, attraction, a-b-da, 14, 1, 5, 32, 135, 60, 125, 56, 60, 135, 2, 0.590295
96, 3, wb, attraction, a-b-da, 9, 1, 5, 33, 60, 135, 135, 60, 129, 57, 1, 0.692033
96, 3, wb, attraction, a-b-da, 9, 1, 5, 33, 60, 135, 135, 60, 129, 57, 2, 0.551306
96, 3, wb, attraction, a-b-db, 5, 1, 5, 34, 60, 135, 135, 60, 58, 132, 1, 1.23888
96, 3, wb, attraction, a-b-db, 5, 1, 5, 34, 60, 135, 135, 60, 58, 132, 2, 0.38784
96, 3, wb, filler, NA, 999, 999, 5, 35, 125, 103, 137, 106, 115, 165, 1, 0.762332
96, 3, wb, filler, NA, 999, 999, 5, 35, 125, 103, 137, 106, 115, 165, 2, 0.314756
96, 3, wb, filler, NA, 999, 999, 5, 36, 117, 86, 168, 83, 171, 60, 1, 1.516
96, 3, wb, filler, NA, 999, 999, 5, 36, 117, 86, 168, 83, 171, 60, 2, 0.342149
96, 3, wb, attraction, a-b-db, 2, 1, 5, 37, 135, 60, 60, 135, 59, 134, 3, 1.06994
96, 3, wb, attraction, a-b-db, 2, 1, 5, 37, 135, 60, 60, 135, 59, 134, 2, 0.322364
96, 3, wb, attraction, a-b-db, 14, 2, 6, 1, 165, 90, 83, 153, 90, 165, 2, 1.49947
96, 3, wb, attraction, a-b-db, 14, 2, 6, 1, 165, 90, 83, 153, 90, 165, 3, 0.574231
96, 3, wb, attraction, a-b-db, 5, 1, 6, 2, 60, 135, 135, 60, 58, 132, 2, 1.11669
96, 3, wb, attraction, a-b-db, 5, 1, 6, 2, 60, 135, 135, 60, 58, 132, 3, 0.583055
96, 3, wb, catch, NA, 999, 999, 6, 3, 62, 133, 165, 90, 178, 137, 1, 0.797504
96, 3, wb, catch, NA, 999, 999, 6, 3, 62, 133, 165, 90, 178, 137, 3, 0.812574
96, 3, wb, attraction, a-b-db, 2, 1, 6, 4, 60, 135, 135, 60, 59, 134, 1, 1.22544
96, 3, wb, attraction, a-b-db, 2, 1, 6, 4, 60, 135, 135, 60, 59, 134, 2, 0.615053
96, 3, wb, filler, NA, 999, 999, 6, 5, 68, 191, 133, 150, 169, 154, 2, 1.21219
96, 3, wb, filler, NA, 999, 999, 6, 5, 68, 191, 133, 150, 169, 154, 3, 1.67449
96, 3, wb, catch, NA, 999, 999, 6, 6, 120, 75, 104, 151, 149, 166, 1, 0.708457
96, 3, wb, catch, NA, 999, 999, 6, 6, 120, 75, 104, 151, 149, 166, 3, 0.51093
96, 3, wb, filler, NA, 999, 999, 6, 7, 156, 90, 165, 110, 123, 158, 1, 0.864025
96, 3, wb, filler, NA, 999, 999, 6, 7, 156, 90, 165, 110, 123, 158, 2, 0.516542
96, 3, wb, catch, NA, 999, 999, 6, 8, 136, 119, 148, 167, 94, 101, 3, 0.749652
96, 3, wb, catch, NA, 999, 999, 6, 8, 136, 119, 148, 167, 94, 101, 2, 0.454597
96, 3, wb, filler, NA, 999, 999, 6, 9, 167, 74, 160, 118, 76, 156, 3, 1.58634
96, 3, wb, filler, NA, 999, 999, 6, 9, 167, 74, 160, 118, 76, 156, 2, 0.313812
96, 3, wb, attraction, a-b-db, 14, 3, 6, 10, 120, 195, 195, 120, 111, 181, 3, 0.754995
96, 3, wb, attraction, a-b-db, 14, 3, 6, 10, 120, 195, 195, 120, 111, 181, 1, 0.803502
96, 3, wb, filler, NA, 999, 999, 6, 11, 96, 134, 189, 185, 190, 115, 1, 1.00112
96, 3, wb, filler, NA, 999, 999, 6, 11, 96, 134, 189, 185, 190, 115, 2, 0.264216
96, 3, wb, attraction, a-b-db, 2, 3, 6, 12, 119, 193, 195, 120, 120, 195, 1, 1.85929
96, 3, wb, attraction, a-b-db, 2, 3, 6, 12, 119, 193, 195, 120, 120, 195, 3, 0.943511
96, 3, wb, attraction, a-b-db, 2, 2, 6, 13, 89, 163, 165, 90, 90, 165, 1, 1.47903
96, 3, wb, attraction, a-b-db, 2, 2, 6, 13, 89, 163, 165, 90, 90, 165, 3, 1.03469
96, 3, wb, filler, NA, 999, 999, 6, 14, 141, 187, 78, 66, 165, 147, 2, 1.01484
96, 3, wb, filler, NA, 999, 999, 6, 14, 141, 187, 78, 66, 165, 147, 1, 0.445153
96, 3, wb, attraction, a-b-da, 5, 1, 6, 15, 135, 60, 132, 58, 60, 135, 2, 3.94494
96, 3, wb, attraction, a-b-da, 5, 1, 6, 15, 135, 60, 132, 58, 60, 135, 1, 0.633063
96, 3, wb, attraction, a-b-da, 2, 2, 6, 16, 163, 89, 165, 90, 90, 165, 2, 1.30146
96, 3, wb, attraction, a-b-da, 2, 2, 6, 16, 163, 89, 165, 90, 90, 165, 3, 0.400417
96, 3, wb, attraction, a-b-db, 14, 1, 6, 17, 60, 135, 135, 60, 56, 125, 2, 0.942113
96, 3, wb, attraction, a-b-db, 14, 1, 6, 17, 60, 135, 135, 60, 56, 125, 1, 1.27115
96, 3, wb, attraction, a-b-da, 14, 3, 6, 18, 181, 111, 195, 120, 120, 195, 1, 2.03402
96, 3, wb, attraction, a-b-da, 14, 3, 6, 18, 181, 111, 195, 120, 120, 195, 2, 0.415412
96, 3, wb, attraction, a-b-da, 2, 3, 6, 19, 193, 119, 195, 120, 120, 195, 1, 1.9245
96, 3, wb, attraction, a-b-da, 2, 3, 6, 19, 193, 119, 195, 120, 120, 195, 3, 0.245964
96, 3, wb, attraction, a-b-db, 5, 3, 6, 20, 120, 195, 195, 120, 117, 190, 2, 1.68977
96, 3, wb, attraction, a-b-db, 5, 3, 6, 20, 120, 195, 195, 120, 117, 190, 1, 0.548613
96, 3, wb, attraction, a-b-da, 14, 2, 6, 21, 165, 90, 153, 83, 90, 165, 2, 1.27638
96, 3, wb, attraction, a-b-da, 14, 2, 6, 21, 165, 90, 153, 83, 90, 165, 3, 0.927931
96, 3, wb, attraction, a-b-da, 2, 1, 6, 22, 134, 59, 135, 60, 60, 135, 2, 3.50425
96, 3, wb, attraction, a-b-da, 2, 1, 6, 22, 134, 59, 135, 60, 60, 135, 3, 0.298505
96, 3, wb, filler, NA, 999, 999, 6, 23, 125, 76, 149, 147, 180, 73, 1, 1.30034
96, 3, wb, filler, NA, 999, 999, 6, 23, 125, 76, 149, 147, 180, 73, 2, 0.559241
96, 3, wb, attraction, a-b-db, 9, 1, 6, 24, 135, 60, 57, 129, 60, 135, 2, 1.12639
96, 3, wb, attraction, a-b-db, 9, 1, 6, 24, 135, 60, 57, 129, 60, 135, 3, 0.735885
96, 3, wb, filler, NA, 999, 999, 6, 25, 127, 189, 152, 78, 153, 181, 2, 1.08842
96, 3, wb, filler, NA, 999, 999, 6, 25, 127, 189, 152, 78, 153, 181, 3, 0.443171
96, 3, wb, attraction, a-b-db, 9, 3, 6, 26, 114, 186, 120, 195, 195, 120, 1, 1.03101
96, 3, wb, attraction, a-b-db, 9, 3, 6, 26, 114, 186, 120, 195, 195, 120, 2, 0.628701
96, 3, wb, attraction, a-b-da, 5, 3, 6, 27, 190, 117, 120, 195, 195, 120, 1, 2.48115
96, 3, wb, attraction, a-b-da, 5, 3, 6, 27, 190, 117, 120, 195, 195, 120, 2, 0.524264
96, 3, wb, attraction, a-b-da, 9, 1, 6, 28, 129, 57, 60, 135, 135, 60, 2, 1.82083
96, 3, wb, attraction, a-b-da, 9, 1, 6, 28, 129, 57, 60, 135, 135, 60, 3, 0.802133
96, 3, wb, attraction, a-b-db, 9, 2, 6, 29, 86, 157, 165, 90, 90, 165, 2, 1.35987
96, 3, wb, attraction, a-b-db, 9, 2, 6, 29, 86, 157, 165, 90, 90, 165, 3, 0.360033
96, 3, wb, filler, NA, 999, 999, 6, 30, 116, 160, 106, 140, 116, 79, 3, 0.895166
96, 3, wb, filler, NA, 999, 999, 6, 30, 116, 160, 106, 140, 116, 79, 1, 0.546134
96, 3, wb, attraction, a-b-db, 5, 2, 6, 31, 165, 90, 88, 161, 90, 165, 1, 2.37805
96, 3, wb, attraction, a-b-db, 5, 2, 6, 31, 165, 90, 88, 161, 90, 165, 3, 0.881272
96, 3, wb, attraction, a-b-da, 14, 1, 6, 32, 60, 135, 135, 60, 125, 56, 1, 1.47548
96, 3, wb, attraction, a-b-da, 14, 1, 6, 32, 60, 135, 135, 60, 125, 56, 2, 0.575059
96, 3, wb, attraction, a-b-da, 5, 2, 6, 33, 165, 90, 161, 88, 90, 165, 2, 1.96559
96, 3, wb, attraction, a-b-da, 5, 2, 6, 33, 165, 90, 161, 88, 90, 165, 3, 0.397632
96, 3, wb, filler, NA, 999, 999, 6, 34, 169, 140, 67, 100, 194, 126, 2, 1.0113
96, 3, wb, filler, NA, 999, 999, 6, 34, 169, 140, 67, 100, 194, 126, 3, 0.273689
96, 3, wb, attraction, a-b-da, 9, 3, 6, 35, 195, 120, 186, 114, 120, 195, 2, 2.68421
96, 3, wb, attraction, a-b-da, 9, 3, 6, 35, 195, 120, 186, 114, 120, 195, 3, 0.439298
96, 3, wb, attraction, a-b-da, 9, 2, 6, 36, 90, 165, 165, 90, 157, 86, 1, 2.48375
96, 3, wb, attraction, a-b-da, 9, 2, 6, 36, 90, 165, 165, 90, 157, 86, 2, 0.231036
96, 3, wb, filler, NA, 999, 999, 6, 37, 126, 138, 69, 163, 123, 108, 2, 3.95556
96, 3, wb, filler, NA, 999, 999, 6, 37, 126, 138, 69, 163, 123, 108, 1, 0.635559
96, 3, wb, attraction, a-b-db, 9, 2, 7, 1, 165, 90, 90, 165, 86, 157, 3, 2.96011
96, 3, wb, attraction, a-b-db, 9, 2, 7, 1, 165, 90, 90, 165, 86, 157, 2, 0.535708
96, 3, wb, attraction, a-b-db, 5, 1, 7, 2, 58, 132, 135, 60, 60, 135, 2, 5.4561
96, 3, wb, attraction, a-b-db, 5, 1, 7, 2, 58, 132, 135, 60, 60, 135, 1, 0.347745
96, 3, wb, attraction, a-b-da, 5, 3, 7, 3, 195, 120, 120, 195, 190, 117, 3, 2.7077
96, 3, wb, attraction, a-b-da, 5, 3, 7, 3, 195, 120, 120, 195, 190, 117, 2, 0.333418
96, 3, wb, filler, NA, 999, 999, 7, 4, 143, 149, 89, 70, 176, 176, 2, 0.853915
96, 3, wb, filler, NA, 999, 999, 7, 4, 143, 149, 89, 70, 176, 176, 3, 0.28298
96, 3, wb, attraction, a-b-db, 9, 3, 7, 5, 114, 186, 120, 195, 195, 120, 1, 3.19751
96, 3, wb, attraction, a-b-db, 9, 3, 7, 5, 114, 186, 120, 195, 195, 120, 2, 1.01983
96, 3, wb, attraction, a-b-da, 9, 2, 7, 6, 90, 165, 157, 86, 165, 90, 2, 2.03289
96, 3, wb, attraction, a-b-da, 9, 2, 7, 6, 90, 165, 157, 86, 165, 90, 1, 0.286067
96, 3, wb, attraction, a-b-da, 5, 1, 7, 7, 135, 60, 60, 135, 132, 58, 3, 1.1207
96, 3, wb, attraction, a-b-da, 5, 1, 7, 7, 135, 60, 60, 135, 132, 58, 2, 0.33824
96, 3, wb, attraction, a-b-da, 2, 1, 7, 8, 135, 60, 134, 59, 60, 135, 2, 2.13875
96, 3, wb, attraction, a-b-da, 2, 1, 7, 8, 135, 60, 134, 59, 60, 135, 3, 0.30745
96, 3, wb, attraction, a-b-da, 2, 2, 7, 9, 163, 89, 165, 90, 90, 165, 2, 2.78055
96, 3, wb, attraction, a-b-da, 2, 2, 7, 9, 163, 89, 165, 90, 90, 165, 1, 0.499629
96, 3, wb, attraction, a-b-db, 2, 2, 7, 10, 165, 90, 90, 165, 89, 163, 2, 1.94141
96, 3, wb, attraction, a-b-db, 2, 2, 7, 10, 165, 90, 90, 165, 89, 163, 3, 0.318083
96, 3, wb, attraction, a-b-da, 14, 1, 7, 11, 135, 60, 125, 56, 60, 135, 3, 1.83947
96, 3, wb, attraction, a-b-da, 14, 1, 7, 11, 135, 60, 125, 56, 60, 135, 2, 0.756039
96, 3, wb, attraction, a-b-db, 2, 3, 7, 12, 120, 195, 119, 193, 195, 120, 2, 1.6438
96, 3, wb, attraction, a-b-db, 2, 3, 7, 12, 120, 195, 119, 193, 195, 120, 1, 0.328617
96, 3, wb, attraction, a-b-db, 14, 3, 7, 13, 120, 195, 195, 120, 111, 181, 3, 1.20103
96, 3, wb, attraction, a-b-db, 14, 3, 7, 13, 120, 195, 195, 120, 111, 181, 1, 0.824048
96, 3, wb, filler, NA, 999, 999, 7, 14, 141, 111, 72, 81, 153, 75, 2, 1.34831
96, 3, wb, filler, NA, 999, 999, 7, 14, 141, 111, 72, 81, 153, 75, 1, 0.477228
96, 3, wb, attraction, a-b-db, 14, 2, 7, 15, 90, 165, 83, 153, 165, 90, 2, 1.25561
96, 3, wb, attraction, a-b-db, 14, 2, 7, 15, 90, 165, 83, 153, 165, 90, 1, 0.547963
96, 3, wb, filler, NA, 999, 999, 7, 16, 81, 170, 118, 67, 144, 158, 2, 1.02003
96, 3, wb, filler, NA, 999, 999, 7, 16, 81, 170, 118, 67, 144, 158, 3, 0.346071
96, 3, wb, attraction, a-b-db, 2, 1, 7, 17, 59, 134, 60, 135, 135, 60, 2, 1.64189
96, 3, wb, attraction, a-b-db, 2, 1, 7, 17, 59, 134, 60, 135, 135, 60, 1, 0.374718
96, 3, wb, attraction, a-b-da, 14, 3, 7, 18, 181, 111, 195, 120, 120, 195, 1, 2.86108
96, 3, wb, attraction, a-b-da, 14, 3, 7, 18, 181, 111, 195, 120, 120, 195, 3, 0.336845
96, 3, wb, filler, NA, 999, 999, 7, 19, 175, 194, 153, 144, 132, 162, 2, 1.20136
96, 3, wb, filler, NA, 999, 999, 7, 19, 175, 194, 153, 144, 132, 162, 1, 0.296283
96, 3, wb, filler, NA, 999, 999, 7, 20, 95, 89, 80, 178, 84, 138, 1, 1.43413
96, 3, wb, filler, NA, 999, 999, 7, 20, 95, 89, 80, 178, 84, 138, 2, 2.42365
96, 3, wb, attraction, a-b-da, 9, 3, 7, 21, 195, 120, 120, 195, 186, 114, 3, 1.3397
96, 3, wb, attraction, a-b-da, 9, 3, 7, 21, 195, 120, 120, 195, 186, 114, 2, 0.668461
96, 3, wb, attraction, a-b-db, 5, 2, 7, 22, 90, 165, 165, 90, 88, 161, 3, 2.62348
96, 3, wb, attraction, a-b-db, 5, 2, 7, 22, 90, 165, 165, 90, 88, 161, 2, 0.588629
96, 3, wb, attraction, a-b-da, 9, 1, 7, 23, 129, 57, 60, 135, 135, 60, 1, 2.38711
96, 3, wb, attraction, a-b-da, 9, 1, 7, 23, 129, 57, 60, 135, 135, 60, 2, 0.866248
96, 3, wb, filler, NA, 999, 999, 7, 24, 118, 171, 157, 190, 157, 123, 1, 3.66932
96, 3, wb, filler, NA, 999, 999, 7, 24, 118, 171, 157, 190, 157, 123, 2, 0.336765
96, 3, wb, attraction, a-b-db, 14, 1, 7, 25, 56, 125, 60, 135, 135, 60, 1, 1.05725
96, 3, wb, attraction, a-b-db, 14, 1, 7, 25, 56, 125, 60, 135, 135, 60, 3, 0.669603
96, 3, wb, catch, NA, 999, 999, 7, 26, 127, 68, 137, 178, 153, 102, 1, 0.568619
96, 3, wb, catch, NA, 999, 999, 7, 26, 127, 68, 137, 178, 153, 102, 2, 0.313055
96, 3, wb, catch, NA, 999, 999, 7, 27, 104, 151, 81, 114, 194, 121, 2, 1.01825
96, 3, wb, catch, NA, 999, 999, 7, 27, 104, 151, 81, 114, 194, 121, 3, 0.840641
96, 3, wb, catch, NA, 999, 999, 7, 28, 73, 122, 95, 160, 139, 176, 1, 0.700233
96, 3, wb, catch, NA, 999, 999, 7, 28, 73, 122, 95, 160, 139, 176, 3, 0.4875
96, 3, wb, attraction, a-b-db, 9, 1, 7, 29, 60, 135, 135, 60, 57, 129, 2, 1.08191
96, 3, wb, attraction, a-b-db, 9, 1, 7, 29, 60, 135, 135, 60, 57, 129, 3, 0.437433
96, 3, wb, filler, NA, 999, 999, 7, 30, 117, 147, 136, 181, 123, 58, 3, 0.802007
96, 3, wb, filler, NA, 999, 999, 7, 30, 117, 147, 136, 181, 123, 58, 2, 0.329039
96, 3, wb, attraction, a-b-da, 2, 3, 7, 31, 195, 120, 120, 195, 193, 119, 3, 1.60954
96, 3, wb, attraction, a-b-da, 2, 3, 7, 31, 195, 120, 120, 195, 193, 119, 2, 0.647691
96, 3, wb, attraction, a-b-db, 5, 3, 7, 32, 117, 190, 195, 120, 120, 195, 1, 3.30744
96, 3, wb, attraction, a-b-db, 5, 3, 7, 32, 117, 190, 195, 120, 120, 195, 2, 0.549014
96, 3, wb, attraction, a-b-da, 5, 2, 7, 33, 161, 88, 90, 165, 165, 90, 1, 1.18869
96, 3, wb, attraction, a-b-da, 5, 2, 7, 33, 161, 88, 90, 165, 165, 90, 3, 0.731834
96, 3, wb, attraction, a-b-da, 14, 2, 7, 34, 153, 83, 165, 90, 90, 165, 1, 1.05208
96, 3, wb, attraction, a-b-da, 14, 2, 7, 34, 153, 83, 165, 90, 90, 165, 3, 0.39302
96, 3, wb, filler, NA, 999, 999, 7, 35, 154, 193, 191, 164, 165, 104, 3, 1.19892
96, 3, wb, filler, NA, 999, 999, 7, 35, 154, 193, 191, 164, 165, 104, 2, 0.637855
96, 3, wb, filler, NA, 999, 999, 7, 36, 97, 148, 64, 78, 88, 133, 2, 0.930299
96, 3, wb, filler, NA, 999, 999, 7, 36, 97, 148, 64, 78, 88, 133, 1, 0.451958
96, 3, wb, filler, NA, 999, 999, 7, 37, 113, 123, 142, 150, 191, 97, 1, 1.23966
96, 3, wb, filler, NA, 999, 999, 7, 37, 113, 123, 142, 150, 191, 97, 2, 0.660589
96, 3, wb, filler, NA, 999, 999, 8, 1, 106, 98, 181, 179, 67, 122, 1, 1.03167
96, 3, wb, filler, NA, 999, 999, 8, 1, 106, 98, 181, 179, 67, 122, 2, 0.326395
96, 3, wb, filler, NA, 999, 999, 8, 2, 64, 171, 139, 57, 146, 146, 2, 1.06203
96, 3, wb, filler, NA, 999, 999, 8, 2, 64, 171, 139, 57, 146, 146, 3, 0.394122
96, 3, wb, catch, NA, 999, 999, 8, 3, 171, 144, 115, 80, 140, 115, 2, 0.816158
96, 3, wb, catch, NA, 999, 999, 8, 3, 171, 144, 115, 80, 140, 115, 1, 0.358426
96, 3, wb, filler, NA, 999, 999, 8, 4, 116, 61, 87, 141, 163, 175, 1, 0.901535
96, 3, wb, filler, NA, 999, 999, 8, 4, 116, 61, 87, 141, 163, 175, 3, 0.344564
96, 3, wb, attraction, a-b-da, 9, 2, 8, 5, 157, 86, 90, 165, 165, 90, 1, 2.24838
96, 3, wb, attraction, a-b-da, 9, 2, 8, 5, 157, 86, 90, 165, 165, 90, 2, 0.644992
96, 3, wb, attraction, a-b-da, 9, 3, 8, 6, 195, 120, 120, 195, 186, 114, 1, 1.62482
96, 3, wb, attraction, a-b-da, 9, 3, 8, 6, 195, 120, 120, 195, 186, 114, 2, 0.302188
96, 3, wb, attraction, a-b-db, 5, 1, 8, 7, 135, 60, 58, 132, 60, 135, 1, 0.768
96, 3, wb, attraction, a-b-db, 5, 1, 8, 7, 135, 60, 58, 132, 60, 135, 2, 0.624437
96, 3, wb, attraction, a-b-da, 5, 1, 8, 8, 60, 135, 135, 60, 132, 58, 1, 0.724823
96, 3, wb, attraction, a-b-da, 5, 1, 8, 8, 60, 135, 135, 60, 132, 58, 3, 0.510591
96, 3, wb, attraction, a-b-da, 2, 3, 8, 9, 193, 119, 195, 120, 120, 195, 1, 1.67175
96, 3, wb, attraction, a-b-da, 2, 3, 8, 9, 193, 119, 195, 120, 120, 195, 2, 0.507825
96, 3, wb, filler, NA, 999, 999, 8, 10, 137, 126, 167, 156, 76, 101, 3, 0.764943
96, 3, wb, filler, NA, 999, 999, 8, 10, 137, 126, 167, 156, 76, 101, 2, 0.269321
96, 3, wb, attraction, a-b-da, 14, 3, 8, 11, 181, 111, 195, 120, 120, 195, 1, 0.80858
96, 3, wb, attraction, a-b-da, 14, 3, 8, 11, 181, 111, 195, 120, 120, 195, 2, 0.366997
96, 3, wb, attraction, a-b-da, 2, 2, 8, 12, 90, 165, 165, 90, 163, 89, 1, 0.918041
96, 3, wb, attraction, a-b-da, 2, 2, 8, 12, 90, 165, 165, 90, 163, 89, 2, 0.312453
96, 3, wb, attraction, a-b-da, 14, 1, 8, 13, 135, 60, 125, 56, 60, 135, 2, 1.0976
96, 3, wb, attraction, a-b-da, 14, 1, 8, 13, 135, 60, 125, 56, 60, 135, 1, 0.332577
96, 3, wb, attraction, a-b-db, 9, 2, 8, 14, 86, 157, 165, 90, 90, 165, 1, 2.45312
96, 3, wb, attraction, a-b-db, 9, 2, 8, 14, 86, 157, 165, 90, 90, 165, 2, 0.609639
96, 3, wb, attraction, a-b-da, 5, 2, 8, 15, 165, 90, 161, 88, 90, 165, 3, 0.78273
96, 3, wb, attraction, a-b-da, 5, 2, 8, 15, 165, 90, 161, 88, 90, 165, 2, 0.286439
96, 3, wb, attraction, a-b-db, 9, 3, 8, 16, 120, 195, 114, 186, 195, 120, 1, 0.920945
96, 3, wb, attraction, a-b-db, 9, 3, 8, 16, 120, 195, 114, 186, 195, 120, 2, 0.387251
96, 3, wb, filler, NA, 999, 999, 8, 17, 93, 183, 62, 141, 187, 163, 2, 0.817809
96, 3, wb, filler, NA, 999, 999, 8, 17, 93, 183, 62, 141, 187, 163, 3, 0.288204
96, 3, wb, filler, NA, 999, 999, 8, 18, 64, 65, 149, 114, 122, 87, 1, 0.506802
96, 3, wb, filler, NA, 999, 999, 8, 18, 64, 65, 149, 114, 122, 87, 2, 0.549223
96, 3, wb, attraction, a-b-db, 2, 2, 8, 19, 165, 90, 90, 165, 89, 163, 1, 1.629
96, 3, wb, attraction, a-b-db, 2, 2, 8, 19, 165, 90, 90, 165, 89, 163, 2, 0.322406
96, 3, wb, attraction, a-b-da, 2, 1, 8, 20, 60, 135, 134, 59, 135, 60, 2, 1.20361
96, 3, wb, attraction, a-b-da, 2, 1, 8, 20, 60, 135, 134, 59, 135, 60, 3, 0.618539
96, 3, wb, filler, NA, 999, 999, 8, 21, 151, 107, 85, 183, 168, 177, 2, 2.16767
96, 3, wb, filler, NA, 999, 999, 8, 21, 151, 107, 85, 183, 168, 177, 3, 0.23957
96, 3, wb, attraction, a-b-da, 9, 1, 8, 22, 135, 60, 60, 135, 129, 57, 2, 2.51611
96, 3, wb, attraction, a-b-da, 9, 1, 8, 22, 135, 60, 60, 135, 129, 57, 3, 1.06216
96, 3, wb, attraction, a-b-da, 14, 2, 8, 23, 153, 83, 90, 165, 165, 90, 2, 1.11297
96, 3, wb, attraction, a-b-da, 14, 2, 8, 23, 153, 83, 90, 165, 165, 90, 3, 0.31517
96, 3, wb, attraction, a-b-db, 14, 3, 8, 24, 195, 120, 120, 195, 111, 181, 2, 1.06842
96, 3, wb, attraction, a-b-db, 14, 3, 8, 24, 195, 120, 120, 195, 111, 181, 3, 0.336657
96, 3, wb, attraction, a-b-db, 9, 1, 8, 25, 135, 60, 60, 135, 57, 129, 2, 0.705244
96, 3, wb, attraction, a-b-db, 9, 1, 8, 25, 135, 60, 60, 135, 57, 129, 3, 0.363544
96, 3, wb, attraction, a-b-db, 2, 3, 8, 26, 195, 120, 120, 195, 119, 193, 2, 1.16279
96, 3, wb, attraction, a-b-db, 2, 3, 8, 26, 195, 120, 120, 195, 119, 193, 3, 0.499106
96, 3, wb, filler, NA, 999, 999, 8, 27, 160, 195, 109, 71, 80, 101, 2, 0.860781
96, 3, wb, filler, NA, 999, 999, 8, 27, 160, 195, 109, 71, 80, 101, 1, 0.273267
96, 3, wb, catch, NA, 999, 999, 8, 28, 141, 114, 135, 180, 83, 112, 3, 2.55571
96, 3, wb, catch, NA, 999, 999, 8, 28, 141, 114, 135, 180, 83, 112, 2, 0.443585
96, 3, wb, attraction, a-b-db, 5, 2, 8, 29, 90, 165, 88, 161, 165, 90, 1, 2.93535
96, 3, wb, attraction, a-b-db, 5, 2, 8, 29, 90, 165, 88, 161, 165, 90, 2, 0.336519
96, 3, wb, attraction, a-b-db, 14, 2, 8, 30, 83, 153, 165, 90, 90, 165, 1, 0.625002
96, 3, wb, attraction, a-b-db, 14, 2, 8, 30, 83, 153, 165, 90, 90, 165, 2, 0.702677
96, 3, wb, catch, NA, 999, 999, 8, 31, 169, 146, 66, 129, 150, 105, 2, 1.17636
96, 3, wb, catch, NA, 999, 999, 8, 31, 169, 146, 66, 129, 150, 105, 1, 0.440052
96, 3, wb, attraction, a-b-da, 5, 3, 8, 32, 190, 117, 120, 195, 195, 120, 1, 1.37978
96, 3, wb, attraction, a-b-da, 5, 3, 8, 32, 190, 117, 120, 195, 195, 120, 2, 0.267457
96, 3, wb, filler, NA, 999, 999, 8, 33, 176, 141, 161, 190, 161, 106, 3, 0.774633
96, 3, wb, filler, NA, 999, 999, 8, 33, 176, 141, 161, 190, 161, 106, 2, 0.310275
96, 3, wb, attraction, a-b-db, 2, 1, 8, 34, 60, 135, 59, 134, 135, 60, 1, 0.887526
96, 3, wb, attraction, a-b-db, 2, 1, 8, 34, 60, 135, 59, 134, 135, 60, 2, 0.347205
96, 3, wb, attraction, a-b-db, 5, 3, 8, 35, 117, 190, 195, 120, 120, 195, 1, 1.28299
96, 3, wb, attraction, a-b-db, 5, 3, 8, 35, 117, 190, 195, 120, 120, 195, 2, 0.486591
96, 3, wb, filler, NA, 999, 999, 8, 36, 144, 184, 165, 104, 135, 56, 3, 0.793098
96, 3, wb, filler, NA, 999, 999, 8, 36, 144, 184, 165, 104, 135, 56, 1, 0.312126
96, 3, wb, attraction, a-b-db, 14, 1, 8, 37, 56, 125, 135, 60, 60, 135, 1, 1.22524
96, 3, wb, attraction, a-b-db, 14, 1, 8, 37, 56, 125, 135, 60, 60, 135, 2, 0.278822
