sub_n, computer_n, bw_cond, effect, set, distance, diag, block_n, trial_n, h1, w1, h2, w2, h3, w3, choice, rt 
136, 2, wb, practice, NA, 999, 999, 0, 1, 85, 130, 70, 131, 177, 157, 2, 2.93982
136, 2, wb, practice, NA, 999, 999, 0, 1, 85, 130, 70, 131, 177, 157, 3, 2.65427
136, 2, wb, practice, NA, 999, 999, 0, 2, 188, 76, 58, 135, 130, 124, 2, 2.08542
136, 2, wb, practice, NA, 999, 999, 0, 2, 188, 76, 58, 135, 130, 124, 1, 1.41097
136, 2, wb, practice, NA, 999, 999, 0, 3, 56, 67, 136, 156, 155, 58, 1, 1.89058
136, 2, wb, practice, NA, 999, 999, 0, 3, 56, 67, 136, 156, 155, 58, 2, 1.15846
136, 2, wb, attraction, a-b-db, 9, 2, 1, 1, 165, 90, 86, 157, 90, 165, 3, 6.70469
136, 2, wb, attraction, a-b-db, 9, 2, 1, 1, 165, 90, 86, 157, 90, 165, 1, 1.6818
136, 2, wb, filler, NA, 999, 999, 1, 2, 169, 61, 68, 120, 110, 97, 2, 1.46783
136, 2, wb, filler, NA, 999, 999, 1, 2, 169, 61, 68, 120, 110, 97, 3, 1.60813
136, 2, wb, filler, NA, 999, 999, 1, 3, 194, 95, 80, 81, 195, 86, 2, 1.72497
136, 2, wb, filler, NA, 999, 999, 1, 3, 194, 95, 80, 81, 195, 86, 1, 1.0543
136, 2, wb, attraction, a-b-db, 9, 1, 1, 4, 135, 60, 60, 135, 57, 129, 1, 2.86584
136, 2, wb, attraction, a-b-db, 9, 1, 1, 4, 135, 60, 60, 135, 57, 129, 2, 1.28559
136, 2, wb, attraction, a-b-da, 14, 2, 1, 5, 90, 165, 153, 83, 165, 90, 2, 3.21593
136, 2, wb, attraction, a-b-da, 14, 2, 1, 5, 90, 165, 153, 83, 165, 90, 1, 0.661444
136, 2, wb, attraction, a-b-da, 5, 2, 1, 6, 90, 165, 165, 90, 161, 88, 3, 2.34462
136, 2, wb, attraction, a-b-da, 5, 2, 1, 6, 90, 165, 165, 90, 161, 88, 1, 0.88122
136, 2, wb, attraction, a-b-db, 9, 3, 1, 7, 120, 195, 114, 186, 195, 120, 3, 5.62746
136, 2, wb, attraction, a-b-db, 9, 3, 1, 7, 120, 195, 114, 186, 195, 120, 1, 2.1516
136, 2, wb, attraction, a-b-da, 9, 3, 1, 8, 120, 195, 195, 120, 186, 114, 2, 2.66291
136, 2, wb, attraction, a-b-da, 9, 3, 1, 8, 120, 195, 195, 120, 186, 114, 1, 0.610703
136, 2, wb, attraction, a-b-da, 14, 1, 1, 9, 135, 60, 60, 135, 125, 56, 3, 4.62385
136, 2, wb, attraction, a-b-da, 14, 1, 1, 9, 135, 60, 60, 135, 125, 56, 1, 0.732381
136, 2, wb, attraction, a-b-db, 2, 3, 1, 10, 119, 193, 195, 120, 120, 195, 2, 3.26066
136, 2, wb, attraction, a-b-db, 2, 3, 1, 10, 119, 193, 195, 120, 120, 195, 1, 0.824342
136, 2, wb, attraction, a-b-da, 2, 1, 1, 11, 134, 59, 135, 60, 60, 135, 2, 3.91666
136, 2, wb, attraction, a-b-da, 2, 1, 1, 11, 134, 59, 135, 60, 60, 135, 3, 2.23811
136, 2, wb, filler, NA, 999, 999, 1, 12, 152, 133, 183, 149, 110, 88, 3, 1.546
136, 2, wb, filler, NA, 999, 999, 1, 12, 152, 133, 183, 149, 110, 88, 2, 1.03498
136, 2, wb, filler, NA, 999, 999, 1, 13, 118, 132, 93, 64, 100, 180, 2, 0.919217
136, 2, wb, filler, NA, 999, 999, 1, 13, 118, 132, 93, 64, 100, 180, 1, 4.0575
136, 2, wb, attraction, a-b-da, 2, 2, 1, 14, 163, 89, 90, 165, 165, 90, 1, 1.82751
136, 2, wb, attraction, a-b-da, 2, 2, 1, 14, 163, 89, 90, 165, 165, 90, 2, 1.0569
136, 2, wb, attraction, a-b-db, 2, 2, 1, 15, 90, 165, 89, 163, 165, 90, 3, 2.55581
136, 2, wb, attraction, a-b-db, 2, 2, 1, 15, 90, 165, 89, 163, 165, 90, 1, 0.923698
136, 2, wb, attraction, a-b-db, 14, 3, 1, 16, 195, 120, 120, 195, 111, 181, 3, 1.86012
136, 2, wb, attraction, a-b-db, 14, 3, 1, 16, 195, 120, 120, 195, 111, 181, 2, 0.592016
136, 2, wb, attraction, a-b-db, 5, 3, 1, 17, 120, 195, 117, 190, 195, 120, 2, 3.62184
136, 2, wb, attraction, a-b-db, 5, 3, 1, 17, 120, 195, 117, 190, 195, 120, 1, 1.70662
136, 2, wb, attraction, a-b-da, 9, 1, 1, 18, 60, 135, 135, 60, 129, 57, 1, 2.57939
136, 2, wb, attraction, a-b-da, 9, 1, 1, 18, 60, 135, 135, 60, 129, 57, 2, 1.05067
136, 2, wb, catch, NA, 999, 999, 1, 19, 157, 98, 72, 123, 137, 178, 2, 1.78209
136, 2, wb, catch, NA, 999, 999, 1, 19, 157, 98, 72, 123, 137, 178, 3, 1.58161
136, 2, wb, attraction, a-b-db, 5, 1, 1, 20, 58, 132, 60, 135, 135, 60, 1, 2.51564
136, 2, wb, attraction, a-b-db, 5, 1, 1, 20, 58, 132, 60, 135, 135, 60, 3, 1.40559
136, 2, wb, filler, NA, 999, 999, 1, 21, 114, 147, 88, 177, 132, 181, 2, 1.40304
136, 2, wb, filler, NA, 999, 999, 1, 21, 114, 147, 88, 177, 132, 181, 3, 0.78601
136, 2, wb, attraction, a-b-db, 14, 2, 1, 22, 90, 165, 165, 90, 83, 153, 3, 2.66429
136, 2, wb, attraction, a-b-db, 14, 2, 1, 22, 90, 165, 165, 90, 83, 153, 1, 0.732078
136, 2, wb, attraction, a-b-da, 5, 3, 1, 23, 190, 117, 120, 195, 195, 120, 3, 3.21264
136, 2, wb, attraction, a-b-da, 5, 3, 1, 23, 190, 117, 120, 195, 195, 120, 1, 0.714109
136, 2, wb, filler, NA, 999, 999, 1, 24, 65, 98, 152, 123, 81, 182, 1, 0.939231
136, 2, wb, filler, NA, 999, 999, 1, 24, 65, 98, 152, 123, 81, 182, 2, 0.756149
136, 2, wb, attraction, a-b-db, 5, 2, 1, 25, 90, 165, 165, 90, 88, 161, 2, 5.22724
136, 2, wb, attraction, a-b-db, 5, 2, 1, 25, 90, 165, 165, 90, 88, 161, 3, 0.735624
136, 2, wb, attraction, a-b-db, 14, 1, 1, 26, 60, 135, 135, 60, 56, 125, 2, 6.58393
136, 2, wb, attraction, a-b-db, 14, 1, 1, 26, 60, 135, 135, 60, 56, 125, 1, 1.94188
136, 2, wb, filler, NA, 999, 999, 1, 27, 160, 133, 161, 91, 74, 151, 3, 5.06116
136, 2, wb, filler, NA, 999, 999, 1, 27, 160, 133, 161, 91, 74, 151, 1, 1.06436
136, 2, wb, catch, NA, 999, 999, 1, 28, 159, 156, 159, 96, 82, 113, 3, 1.33923
136, 2, wb, catch, NA, 999, 999, 1, 28, 159, 156, 159, 96, 82, 113, 1, 0.476128
136, 2, wb, attraction, a-b-da, 9, 2, 1, 29, 90, 165, 157, 86, 165, 90, 2, 4.23856
136, 2, wb, attraction, a-b-da, 9, 2, 1, 29, 90, 165, 157, 86, 165, 90, 1, 0.530501
136, 2, wb, filler, NA, 999, 999, 1, 30, 86, 72, 195, 184, 69, 106, 1, 0.930893
136, 2, wb, filler, NA, 999, 999, 1, 30, 86, 72, 195, 184, 69, 106, 2, 0.500598
136, 2, wb, filler, NA, 999, 999, 1, 31, 169, 136, 147, 72, 58, 127, 3, 1.10243
136, 2, wb, filler, NA, 999, 999, 1, 31, 169, 136, 147, 72, 58, 127, 1, 0.505322
136, 2, wb, attraction, a-b-da, 2, 3, 1, 32, 195, 120, 120, 195, 193, 119, 3, 2.52319
136, 2, wb, attraction, a-b-da, 2, 3, 1, 32, 195, 120, 120, 195, 193, 119, 2, 0.444383
136, 2, wb, catch, NA, 999, 999, 1, 33, 61, 134, 135, 180, 153, 102, 1, 0.824167
136, 2, wb, catch, NA, 999, 999, 1, 33, 61, 134, 135, 180, 153, 102, 2, 1.23791
136, 2, wb, attraction, a-b-da, 14, 3, 1, 34, 181, 111, 195, 120, 120, 195, 1, 2.99409
136, 2, wb, attraction, a-b-da, 14, 3, 1, 34, 181, 111, 195, 120, 120, 195, 3, 0.800463
136, 2, wb, attraction, a-b-db, 2, 1, 1, 35, 59, 134, 135, 60, 60, 135, 2, 1.98216
136, 2, wb, attraction, a-b-db, 2, 1, 1, 35, 59, 134, 135, 60, 60, 135, 3, 1.43751
136, 2, wb, filler, NA, 999, 999, 1, 36, 166, 177, 62, 91, 71, 61, 3, 0.961658
136, 2, wb, filler, NA, 999, 999, 1, 36, 166, 177, 62, 91, 71, 61, 1, 0.481952
136, 2, wb, attraction, a-b-da, 5, 1, 1, 37, 132, 58, 135, 60, 60, 135, 1, 5.40465
136, 2, wb, attraction, a-b-da, 5, 1, 1, 37, 132, 58, 135, 60, 60, 135, 3, 0.777422
136, 2, wb, filler, NA, 999, 999, 2, 1, 194, 85, 64, 155, 129, 101, 2, 4.83185
136, 2, wb, filler, NA, 999, 999, 2, 1, 194, 85, 64, 155, 129, 101, 3, 1.32421
136, 2, wb, attraction, a-b-da, 9, 2, 2, 2, 165, 90, 90, 165, 157, 86, 1, 1.24437
136, 2, wb, attraction, a-b-da, 9, 2, 2, 2, 165, 90, 90, 165, 157, 86, 2, 0.817316
136, 2, wb, attraction, a-b-db, 9, 1, 2, 3, 60, 135, 57, 129, 135, 60, 1, 1.17433
136, 2, wb, attraction, a-b-db, 9, 1, 2, 3, 60, 135, 57, 129, 135, 60, 3, 1.2162
136, 2, wb, attraction, a-b-da, 2, 3, 2, 4, 195, 120, 120, 195, 193, 119, 3, 1.45095
136, 2, wb, attraction, a-b-da, 2, 3, 2, 4, 195, 120, 120, 195, 193, 119, 2, 1.37572
136, 2, wb, filler, NA, 999, 999, 2, 5, 110, 189, 160, 155, 120, 72, 3, 1.15788
136, 2, wb, filler, NA, 999, 999, 2, 5, 110, 189, 160, 155, 120, 72, 1, 2.91024
136, 2, wb, filler, NA, 999, 999, 2, 6, 169, 131, 156, 101, 152, 95, 3, 3.44649
136, 2, wb, filler, NA, 999, 999, 2, 6, 169, 131, 156, 101, 152, 95, 1, 0.474797
136, 2, wb, filler, NA, 999, 999, 2, 7, 106, 178, 120, 103, 128, 170, 2, 0.76517
136, 2, wb, filler, NA, 999, 999, 2, 7, 106, 178, 120, 103, 128, 170, 1, 2.82981
136, 2, wb, filler, NA, 999, 999, 2, 8, 61, 83, 195, 188, 60, 152, 1, 2.71334
136, 2, wb, filler, NA, 999, 999, 2, 8, 61, 83, 195, 188, 60, 152, 2, 0.547127
136, 2, wb, attraction, a-b-da, 9, 3, 2, 9, 120, 195, 195, 120, 186, 114, 3, 2.29908
136, 2, wb, attraction, a-b-da, 9, 3, 2, 9, 120, 195, 195, 120, 186, 114, 1, 0.485546
136, 2, wb, filler, NA, 999, 999, 2, 10, 95, 110, 169, 162, 122, 79, 1, 0.903979
136, 2, wb, filler, NA, 999, 999, 2, 10, 95, 110, 169, 162, 122, 79, 2, 0.818339
136, 2, wb, attraction, a-b-da, 14, 3, 2, 11, 181, 111, 195, 120, 120, 195, 1, 1.43134
136, 2, wb, attraction, a-b-da, 14, 3, 2, 11, 181, 111, 195, 120, 120, 195, 3, 0.708901
136, 2, wb, attraction, a-b-db, 14, 1, 2, 12, 56, 125, 60, 135, 135, 60, 1, 0.94193
136, 2, wb, attraction, a-b-db, 14, 1, 2, 12, 56, 125, 60, 135, 135, 60, 3, 0.646943
136, 2, wb, catch, NA, 999, 999, 2, 13, 104, 151, 159, 156, 130, 65, 3, 3.88265
136, 2, wb, catch, NA, 999, 999, 2, 13, 104, 151, 159, 156, 130, 65, 2, 1.21361
136, 2, wb, filler, NA, 999, 999, 2, 14, 151, 157, 139, 71, 193, 112, 2, 1.57826
136, 2, wb, filler, NA, 999, 999, 2, 14, 151, 157, 139, 71, 193, 112, 1, 2.64199
136, 2, wb, filler, NA, 999, 999, 2, 15, 85, 69, 174, 164, 72, 78, 1, 2.01286
136, 2, wb, filler, NA, 999, 999, 2, 15, 85, 69, 174, 164, 72, 78, 2, 2.09895
136, 2, wb, attraction, a-b-da, 5, 3, 2, 16, 195, 120, 190, 117, 120, 195, 2, 3.02026
136, 2, wb, attraction, a-b-da, 5, 3, 2, 16, 195, 120, 190, 117, 120, 195, 1, 1.99391
136, 2, wb, attraction, a-b-db, 5, 2, 2, 17, 88, 161, 90, 165, 165, 90, 3, 3.12724
136, 2, wb, attraction, a-b-db, 5, 2, 2, 17, 88, 161, 90, 165, 165, 90, 2, 0.728239
136, 2, wb, attraction, a-b-da, 14, 1, 2, 18, 125, 56, 60, 135, 135, 60, 3, 1.51257
136, 2, wb, attraction, a-b-da, 14, 1, 2, 18, 125, 56, 60, 135, 135, 60, 1, 0.554706
136, 2, wb, attraction, a-b-da, 2, 2, 2, 19, 163, 89, 165, 90, 90, 165, 2, 0.95447
136, 2, wb, attraction, a-b-da, 2, 2, 2, 19, 163, 89, 165, 90, 90, 165, 3, 0.642909
136, 2, wb, attraction, a-b-db, 2, 3, 2, 20, 195, 120, 120, 195, 119, 193, 1, 1.10265
136, 2, wb, attraction, a-b-db, 2, 3, 2, 20, 195, 120, 120, 195, 119, 193, 2, 0.729625
136, 2, wb, attraction, a-b-da, 9, 1, 2, 21, 60, 135, 135, 60, 129, 57, 1, 1.46593
136, 2, wb, attraction, a-b-da, 9, 1, 2, 21, 60, 135, 135, 60, 129, 57, 3, 0.702153
136, 2, wb, catch, NA, 999, 999, 2, 22, 143, 112, 173, 142, 102, 93, 3, 0.823897
136, 2, wb, catch, NA, 999, 999, 2, 22, 143, 112, 173, 142, 102, 93, 2, 0.58962
136, 2, wb, attraction, a-b-db, 14, 3, 2, 23, 111, 181, 120, 195, 195, 120, 1, 1.78733
136, 2, wb, attraction, a-b-db, 14, 3, 2, 23, 111, 181, 120, 195, 195, 120, 3, 0.610777
136, 2, wb, attraction, a-b-da, 14, 2, 2, 24, 165, 90, 90, 165, 153, 83, 3, 1.63185
136, 2, wb, attraction, a-b-da, 14, 2, 2, 24, 165, 90, 90, 165, 153, 83, 2, 0.661426
136, 2, wb, attraction, a-b-da, 2, 1, 2, 25, 60, 135, 134, 59, 135, 60, 1, 0.880357
136, 2, wb, attraction, a-b-da, 2, 1, 2, 25, 60, 135, 134, 59, 135, 60, 2, 0.972042
136, 2, wb, filler, NA, 999, 999, 2, 26, 99, 83, 188, 56, 175, 176, 1, 0.786985
136, 2, wb, filler, NA, 999, 999, 2, 26, 99, 83, 188, 56, 175, 176, 3, 0.52209
136, 2, wb, attraction, a-b-db, 2, 2, 2, 27, 89, 163, 165, 90, 90, 165, 3, 1.00319
136, 2, wb, attraction, a-b-db, 2, 2, 2, 27, 89, 163, 165, 90, 90, 165, 1, 0.530179
136, 2, wb, attraction, a-b-da, 5, 1, 2, 28, 60, 135, 135, 60, 132, 58, 1, 1.71483
136, 2, wb, attraction, a-b-da, 5, 1, 2, 28, 60, 135, 135, 60, 132, 58, 3, 1.2048
136, 2, wb, attraction, a-b-db, 5, 1, 2, 29, 135, 60, 60, 135, 58, 132, 1, 0.898367
136, 2, wb, attraction, a-b-db, 5, 1, 2, 29, 135, 60, 60, 135, 58, 132, 2, 0.421392
136, 2, wb, attraction, a-b-db, 9, 3, 2, 30, 120, 195, 114, 186, 195, 120, 2, 1.1865
136, 2, wb, attraction, a-b-db, 9, 3, 2, 30, 120, 195, 114, 186, 195, 120, 3, 0.562216
136, 2, wb, attraction, a-b-db, 14, 2, 2, 31, 90, 165, 165, 90, 83, 153, 3, 2.95317
136, 2, wb, attraction, a-b-db, 14, 2, 2, 31, 90, 165, 165, 90, 83, 153, 2, 0.585601
136, 2, wb, filler, NA, 999, 999, 2, 32, 191, 61, 131, 122, 142, 127, 1, 1.01608
136, 2, wb, filler, NA, 999, 999, 2, 32, 191, 61, 131, 122, 142, 127, 3, 1.07837
136, 2, wb, attraction, a-b-da, 5, 2, 2, 33, 90, 165, 161, 88, 165, 90, 1, 1.48859
136, 2, wb, attraction, a-b-da, 5, 2, 2, 33, 90, 165, 161, 88, 165, 90, 3, 0.691517
136, 2, wb, catch, NA, 999, 999, 2, 34, 92, 103, 136, 179, 101, 154, 1, 1.42119
136, 2, wb, catch, NA, 999, 999, 2, 34, 92, 103, 136, 179, 101, 154, 3, 0.546711
136, 2, wb, attraction, a-b-db, 2, 1, 2, 35, 135, 60, 59, 134, 60, 135, 2, 0.68246
136, 2, wb, attraction, a-b-db, 2, 1, 2, 35, 135, 60, 59, 134, 60, 135, 3, 0.750316
136, 2, wb, attraction, a-b-db, 5, 3, 2, 36, 120, 195, 117, 190, 195, 120, 1, 0.77391
136, 2, wb, attraction, a-b-db, 5, 3, 2, 36, 120, 195, 117, 190, 195, 120, 3, 0.693673
136, 2, wb, attraction, a-b-db, 9, 2, 2, 37, 86, 157, 165, 90, 90, 165, 2, 0.999311
136, 2, wb, attraction, a-b-db, 9, 2, 2, 37, 86, 157, 165, 90, 90, 165, 3, 0.470392
136, 2, wb, attraction, a-b-db, 14, 1, 3, 1, 60, 135, 135, 60, 56, 125, 1, 0.529448
136, 2, wb, attraction, a-b-db, 14, 1, 3, 1, 60, 135, 135, 60, 56, 125, 2, 1.53135
136, 2, wb, attraction, a-b-da, 14, 3, 3, 2, 195, 120, 120, 195, 181, 111, 2, 0.755533
136, 2, wb, attraction, a-b-da, 14, 3, 3, 2, 195, 120, 120, 195, 181, 111, 1, 0.531926
136, 2, wb, attraction, a-b-db, 9, 3, 3, 3, 114, 186, 120, 195, 195, 120, 3, 0.692334
136, 2, wb, attraction, a-b-db, 9, 3, 3, 3, 114, 186, 120, 195, 195, 120, 2, 0.60743
136, 2, wb, attraction, a-b-db, 2, 1, 3, 4, 59, 134, 135, 60, 60, 135, 2, 0.564549
136, 2, wb, attraction, a-b-db, 2, 1, 3, 4, 59, 134, 135, 60, 60, 135, 3, 0.677119
136, 2, wb, filler, NA, 999, 999, 3, 5, 181, 128, 88, 89, 154, 156, 2, 1.32732
136, 2, wb, filler, NA, 999, 999, 3, 5, 181, 128, 88, 89, 154, 156, 3, 0.424829
136, 2, wb, attraction, a-b-db, 5, 3, 3, 6, 117, 190, 195, 120, 120, 195, 2, 1.41334
136, 2, wb, attraction, a-b-db, 5, 3, 3, 6, 117, 190, 195, 120, 120, 195, 3, 0.451586
136, 2, wb, attraction, a-b-da, 5, 1, 3, 7, 60, 135, 132, 58, 135, 60, 1, 0.719334
136, 2, wb, attraction, a-b-da, 5, 1, 3, 7, 60, 135, 132, 58, 135, 60, 3, 1.00177
136, 2, wb, filler, NA, 999, 999, 3, 8, 80, 88, 113, 105, 152, 187, 1, 1.20736
136, 2, wb, filler, NA, 999, 999, 3, 8, 80, 88, 113, 105, 152, 187, 3, 0.46165
136, 2, wb, attraction, a-b-db, 14, 2, 3, 9, 90, 165, 165, 90, 83, 153, 3, 0.896812
136, 2, wb, attraction, a-b-db, 14, 2, 3, 9, 90, 165, 165, 90, 83, 153, 1, 0.803815
136, 2, wb, attraction, a-b-da, 9, 2, 3, 10, 157, 86, 165, 90, 90, 165, 1, 1.86553
136, 2, wb, attraction, a-b-da, 9, 2, 3, 10, 157, 86, 165, 90, 90, 165, 2, 0.501567
136, 2, wb, filler, NA, 999, 999, 3, 11, 103, 91, 175, 96, 162, 74, 1, 0.735479
136, 2, wb, filler, NA, 999, 999, 3, 11, 103, 91, 175, 96, 162, 74, 2, 0.553124
136, 2, wb, attraction, a-b-db, 2, 2, 3, 12, 89, 163, 90, 165, 165, 90, 3, 1.15285
136, 2, wb, attraction, a-b-db, 2, 2, 3, 12, 89, 163, 90, 165, 165, 90, 1, 0.665973
136, 2, wb, attraction, a-b-db, 5, 1, 3, 13, 135, 60, 60, 135, 58, 132, 2, 0.660831
136, 2, wb, attraction, a-b-db, 5, 1, 3, 13, 135, 60, 60, 135, 58, 132, 1, 0.61735
136, 2, wb, attraction, a-b-da, 2, 1, 3, 14, 135, 60, 60, 135, 134, 59, 2, 0.654382
136, 2, wb, attraction, a-b-da, 2, 1, 3, 14, 135, 60, 60, 135, 134, 59, 1, 0.786831
136, 2, wb, catch, NA, 999, 999, 3, 15, 113, 82, 145, 110, 129, 186, 1, 0.825169
136, 2, wb, catch, NA, 999, 999, 3, 15, 113, 82, 145, 110, 129, 186, 3, 0.750945
136, 2, wb, catch, NA, 999, 999, 3, 16, 168, 147, 108, 147, 84, 111, 3, 0.854581
136, 2, wb, catch, NA, 999, 999, 3, 16, 168, 147, 108, 147, 84, 111, 1, 0.474996
136, 2, wb, attraction, a-b-db, 9, 2, 3, 17, 90, 165, 165, 90, 86, 157, 1, 1.26939
136, 2, wb, attraction, a-b-db, 9, 2, 3, 17, 90, 165, 165, 90, 86, 157, 3, 0.465704
136, 2, wb, attraction, a-b-db, 14, 3, 3, 18, 120, 195, 195, 120, 111, 181, 3, 1.06075
136, 2, wb, attraction, a-b-db, 14, 3, 3, 18, 120, 195, 195, 120, 111, 181, 1, 0.489122
136, 2, wb, attraction, a-b-da, 9, 3, 3, 19, 186, 114, 120, 195, 195, 120, 1, 0.867622
136, 2, wb, attraction, a-b-da, 9, 3, 3, 19, 186, 114, 120, 195, 195, 120, 3, 0.608026
136, 2, wb, attraction, a-b-da, 14, 2, 3, 20, 90, 165, 153, 83, 165, 90, 1, 0.845103
136, 2, wb, attraction, a-b-da, 14, 2, 3, 20, 90, 165, 153, 83, 165, 90, 3, 0.666128
136, 2, wb, filler, NA, 999, 999, 3, 21, 172, 102, 94, 168, 185, 167, 1, 0.773156
136, 2, wb, filler, NA, 999, 999, 3, 21, 172, 102, 94, 168, 185, 167, 3, 0.764982
136, 2, wb, attraction, a-b-da, 5, 2, 3, 22, 90, 165, 165, 90, 161, 88, 2, 0.844016
136, 2, wb, attraction, a-b-da, 5, 2, 3, 22, 90, 165, 165, 90, 161, 88, 1, 0.841041
136, 2, wb, attraction, a-b-db, 2, 3, 3, 23, 120, 195, 119, 193, 195, 120, 1, 0.684616
136, 2, wb, attraction, a-b-db, 2, 3, 3, 23, 120, 195, 119, 193, 195, 120, 3, 0.696349
136, 2, wb, catch, NA, 999, 999, 3, 24, 125, 70, 122, 193, 100, 155, 1, 0.546212
136, 2, wb, catch, NA, 999, 999, 3, 24, 125, 70, 122, 193, 100, 155, 2, 0.627235
136, 2, wb, filler, NA, 999, 999, 3, 25, 56, 192, 125, 118, 165, 91, 1, 0.647621
136, 2, wb, filler, NA, 999, 999, 3, 25, 56, 192, 125, 118, 165, 91, 3, 0.932747
136, 2, wb, filler, NA, 999, 999, 3, 26, 64, 57, 124, 124, 174, 64, 1, 0.501058
136, 2, wb, filler, NA, 999, 999, 3, 26, 64, 57, 124, 124, 174, 64, 2, 0.456347
136, 2, wb, filler, NA, 999, 999, 3, 27, 61, 138, 171, 69, 119, 92, 1, 0.667322
136, 2, wb, filler, NA, 999, 999, 3, 27, 61, 138, 171, 69, 119, 92, 2, 0.431816
136, 2, wb, filler, NA, 999, 999, 3, 28, 121, 131, 77, 155, 128, 145, 1, 0.660223
136, 2, wb, filler, NA, 999, 999, 3, 28, 121, 131, 77, 155, 128, 145, 3, 0.512706
136, 2, wb, filler, NA, 999, 999, 3, 29, 137, 160, 139, 177, 71, 185, 3, 0.849831
136, 2, wb, filler, NA, 999, 999, 3, 29, 137, 160, 139, 177, 71, 185, 1, 0.766895
136, 2, wb, attraction, a-b-da, 9, 1, 3, 30, 60, 135, 135, 60, 129, 57, 1, 3.05394
136, 2, wb, attraction, a-b-da, 9, 1, 3, 30, 60, 135, 135, 60, 129, 57, 3, 0.698349
136, 2, wb, attraction, a-b-db, 5, 2, 3, 31, 88, 161, 165, 90, 90, 165, 1, 1.02002
136, 2, wb, attraction, a-b-db, 5, 2, 3, 31, 88, 161, 165, 90, 90, 165, 2, 0.914319
136, 2, wb, attraction, a-b-da, 2, 2, 3, 32, 90, 165, 165, 90, 163, 89, 3, 1.42723
136, 2, wb, attraction, a-b-da, 2, 2, 3, 32, 90, 165, 165, 90, 163, 89, 2, 0.456785
136, 2, wb, attraction, a-b-da, 5, 3, 3, 33, 120, 195, 190, 117, 195, 120, 2, 2.33188
136, 2, wb, attraction, a-b-da, 5, 3, 3, 33, 120, 195, 190, 117, 195, 120, 1, 0.461207
136, 2, wb, attraction, a-b-da, 14, 1, 3, 34, 125, 56, 135, 60, 60, 135, 3, 1.89634
136, 2, wb, attraction, a-b-da, 14, 1, 3, 34, 125, 56, 135, 60, 60, 135, 2, 0.578993
136, 2, wb, filler, NA, 999, 999, 3, 35, 192, 136, 171, 171, 194, 187, 1, 1.0815
136, 2, wb, filler, NA, 999, 999, 3, 35, 192, 136, 171, 171, 194, 187, 3, 1.36515
136, 2, wb, attraction, a-b-da, 2, 3, 3, 36, 195, 120, 193, 119, 120, 195, 1, 2.21997
136, 2, wb, attraction, a-b-da, 2, 3, 3, 36, 195, 120, 193, 119, 120, 195, 2, 1.16988
136, 2, wb, attraction, a-b-db, 9, 1, 3, 37, 135, 60, 60, 135, 57, 129, 1, 2.61675
136, 2, wb, attraction, a-b-db, 9, 1, 3, 37, 135, 60, 60, 135, 57, 129, 2, 0.790608
136, 2, wb, attraction, a-b-da, 9, 2, 4, 1, 90, 165, 165, 90, 157, 86, 3, 3.65243
136, 2, wb, attraction, a-b-da, 9, 2, 4, 1, 90, 165, 165, 90, 157, 86, 2, 0.448495
136, 2, wb, attraction, a-b-db, 14, 3, 4, 2, 120, 195, 195, 120, 111, 181, 3, 1.34029
136, 2, wb, attraction, a-b-db, 14, 3, 4, 2, 120, 195, 195, 120, 111, 181, 1, 0.51719
136, 2, wb, filler, NA, 999, 999, 4, 3, 124, 74, 152, 71, 116, 184, 1, 1.09434
136, 2, wb, filler, NA, 999, 999, 4, 3, 124, 74, 152, 71, 116, 184, 2, 0.401367
136, 2, wb, filler, NA, 999, 999, 4, 4, 60, 59, 156, 191, 112, 185, 1, 1.02309
136, 2, wb, filler, NA, 999, 999, 4, 4, 60, 59, 156, 191, 112, 185, 2, 0.660826
136, 2, wb, filler, NA, 999, 999, 4, 5, 105, 157, 138, 118, 164, 90, 3, 2.75976
136, 2, wb, filler, NA, 999, 999, 4, 5, 105, 157, 138, 118, 164, 90, 1, 0.423521
136, 2, wb, attraction, a-b-da, 2, 2, 4, 6, 163, 89, 90, 165, 165, 90, 3, 2.09216
136, 2, wb, attraction, a-b-da, 2, 2, 4, 6, 163, 89, 90, 165, 165, 90, 1, 0.75073
136, 2, wb, attraction, a-b-da, 5, 3, 4, 7, 195, 120, 190, 117, 120, 195, 1, 0.99842
136, 2, wb, attraction, a-b-da, 5, 3, 4, 7, 195, 120, 190, 117, 120, 195, 2, 0.493466
136, 2, wb, attraction, a-b-db, 5, 2, 4, 8, 88, 161, 165, 90, 90, 165, 1, 3.19119
136, 2, wb, attraction, a-b-db, 5, 2, 4, 8, 88, 161, 165, 90, 90, 165, 3, 0.605447
136, 2, wb, attraction, a-b-da, 9, 3, 4, 9, 186, 114, 195, 120, 120, 195, 2, 3.10726
136, 2, wb, attraction, a-b-da, 9, 3, 4, 9, 186, 114, 195, 120, 120, 195, 3, 0.397052
136, 2, wb, attraction, a-b-db, 2, 3, 4, 10, 119, 193, 195, 120, 120, 195, 2, 3.44268
136, 2, wb, attraction, a-b-db, 2, 3, 4, 10, 119, 193, 195, 120, 120, 195, 1, 0.647078
136, 2, wb, filler, NA, 999, 999, 4, 11, 119, 189, 141, 57, 162, 78, 2, 1.97072
136, 2, wb, filler, NA, 999, 999, 4, 11, 119, 189, 141, 57, 162, 78, 1, 0.53817
136, 2, wb, filler, NA, 999, 999, 4, 12, 114, 59, 78, 103, 177, 58, 1, 1.30647
136, 2, wb, filler, NA, 999, 999, 4, 12, 114, 59, 78, 103, 177, 58, 2, 0.396834
136, 2, wb, attraction, a-b-db, 9, 1, 4, 13, 135, 60, 57, 129, 60, 135, 2, 1.01058
136, 2, wb, attraction, a-b-db, 9, 1, 4, 13, 135, 60, 57, 129, 60, 135, 1, 0.736984
136, 2, wb, attraction, a-b-db, 14, 1, 4, 14, 135, 60, 60, 135, 56, 125, 2, 0.953179
136, 2, wb, attraction, a-b-db, 14, 1, 4, 14, 135, 60, 60, 135, 56, 125, 1, 0.954321
136, 2, wb, catch, NA, 999, 999, 4, 15, 111, 144, 129, 186, 103, 92, 1, 1.56998
136, 2, wb, catch, NA, 999, 999, 4, 15, 111, 144, 129, 186, 103, 92, 2, 0.41012
136, 2, wb, attraction, a-b-db, 2, 1, 4, 16, 135, 60, 59, 134, 60, 135, 1, 0.935202
136, 2, wb, attraction, a-b-db, 2, 1, 4, 16, 135, 60, 59, 134, 60, 135, 3, 0.912885
136, 2, wb, filler, NA, 999, 999, 4, 17, 85, 90, 162, 88, 107, 89, 1, 1.00191
136, 2, wb, filler, NA, 999, 999, 4, 17, 85, 90, 162, 88, 107, 89, 2, 0.401045
136, 2, wb, attraction, a-b-db, 5, 3, 4, 18, 195, 120, 117, 190, 120, 195, 2, 1.75081
136, 2, wb, attraction, a-b-db, 5, 3, 4, 18, 195, 120, 117, 190, 120, 195, 1, 0.583408
136, 2, wb, attraction, a-b-db, 9, 2, 4, 19, 90, 165, 165, 90, 86, 157, 1, 1.01388
136, 2, wb, attraction, a-b-db, 9, 2, 4, 19, 90, 165, 165, 90, 86, 157, 3, 1.3882
136, 2, wb, attraction, a-b-da, 14, 2, 4, 20, 90, 165, 153, 83, 165, 90, 2, 2.8104
136, 2, wb, attraction, a-b-da, 14, 2, 4, 20, 90, 165, 153, 83, 165, 90, 3, 0.432237
136, 2, wb, attraction, a-b-da, 14, 3, 4, 21, 181, 111, 195, 120, 120, 195, 1, 1.29261
136, 2, wb, attraction, a-b-da, 14, 3, 4, 21, 181, 111, 195, 120, 120, 195, 2, 0.375542
136, 2, wb, attraction, a-b-da, 2, 3, 4, 22, 193, 119, 195, 120, 120, 195, 1, 1.75004
136, 2, wb, attraction, a-b-da, 2, 3, 4, 22, 193, 119, 195, 120, 120, 195, 2, 0.462797
136, 2, wb, attraction, a-b-db, 2, 2, 4, 23, 165, 90, 90, 165, 89, 163, 3, 2.84185
136, 2, wb, attraction, a-b-db, 2, 2, 4, 23, 165, 90, 90, 165, 89, 163, 2, 0.422393
136, 2, wb, attraction, a-b-da, 14, 1, 4, 24, 60, 135, 125, 56, 135, 60, 1, 1.02749
136, 2, wb, attraction, a-b-da, 14, 1, 4, 24, 60, 135, 125, 56, 135, 60, 2, 0.617193
136, 2, wb, attraction, a-b-da, 2, 1, 4, 25, 60, 135, 134, 59, 135, 60, 2, 3.2862
136, 2, wb, attraction, a-b-da, 2, 1, 4, 25, 60, 135, 134, 59, 135, 60, 3, 0.385236
136, 2, wb, catch, NA, 999, 999, 4, 26, 130, 185, 137, 118, 126, 69, 3, 1.48758
136, 2, wb, catch, NA, 999, 999, 4, 26, 130, 185, 137, 118, 126, 69, 1, 0.522522
136, 2, wb, filler, NA, 999, 999, 4, 27, 182, 129, 124, 86, 140, 116, 2, 8.38762
136, 2, wb, filler, NA, 999, 999, 4, 27, 182, 129, 124, 86, 140, 116, 1, 0.537955
136, 2, wb, filler, NA, 999, 999, 4, 28, 118, 77, 116, 138, 81, 137, 1, 0.977363
136, 2, wb, filler, NA, 999, 999, 4, 28, 118, 77, 116, 138, 81, 137, 2, 0.537135
136, 2, wb, attraction, a-b-da, 5, 1, 4, 29, 132, 58, 60, 135, 135, 60, 1, 2.30545
136, 2, wb, attraction, a-b-da, 5, 1, 4, 29, 132, 58, 60, 135, 135, 60, 3, 0.95544
136, 2, wb, attraction, a-b-db, 5, 1, 4, 30, 58, 132, 60, 135, 135, 60, 2, 1.05104
136, 2, wb, attraction, a-b-db, 5, 1, 4, 30, 58, 132, 60, 135, 135, 60, 1, 1.03208
136, 2, wb, filler, NA, 999, 999, 4, 31, 195, 94, 127, 101, 140, 123, 2, 0.796408
136, 2, wb, filler, NA, 999, 999, 4, 31, 195, 94, 127, 101, 140, 123, 3, 0.42742
136, 2, wb, attraction, a-b-da, 5, 2, 4, 32, 90, 165, 161, 88, 165, 90, 3, 1.54385
136, 2, wb, attraction, a-b-da, 5, 2, 4, 32, 90, 165, 161, 88, 165, 90, 2, 0.400644
136, 2, wb, attraction, a-b-db, 14, 2, 4, 33, 83, 153, 165, 90, 90, 165, 1, 1.11846
136, 2, wb, attraction, a-b-db, 14, 2, 4, 33, 83, 153, 165, 90, 90, 165, 3, 0.456708
136, 2, wb, attraction, a-b-db, 9, 3, 4, 34, 120, 195, 114, 186, 195, 120, 1, 0.691847
136, 2, wb, attraction, a-b-db, 9, 3, 4, 34, 120, 195, 114, 186, 195, 120, 2, 0.559165
136, 2, wb, catch, NA, 999, 999, 4, 35, 193, 122, 103, 152, 98, 97, 3, 0.750118
136, 2, wb, catch, NA, 999, 999, 4, 35, 193, 122, 103, 152, 98, 97, 2, 0.567206
136, 2, wb, attraction, a-b-da, 9, 1, 4, 36, 129, 57, 135, 60, 60, 135, 1, 0.454268
136, 2, wb, attraction, a-b-da, 9, 1, 4, 36, 129, 57, 135, 60, 60, 135, 2, 0.602756
136, 2, wb, filler, NA, 999, 999, 4, 37, 80, 112, 128, 74, 121, 68, 3, 0.720523
136, 2, wb, filler, NA, 999, 999, 4, 37, 80, 112, 128, 74, 121, 68, 2, 0.418908
136, 2, wb, attraction, a-b-db, 9, 1, 5, 1, 60, 135, 57, 129, 135, 60, 2, 2.43878
136, 2, wb, attraction, a-b-db, 9, 1, 5, 1, 60, 135, 57, 129, 135, 60, 1, 0.723206
136, 2, wb, catch, NA, 999, 999, 5, 2, 156, 99, 139, 176, 72, 123, 3, 0.947603
136, 2, wb, catch, NA, 999, 999, 5, 2, 156, 99, 139, 176, 72, 123, 2, 0.484593
136, 2, wb, attraction, a-b-da, 9, 3, 5, 3, 195, 120, 186, 114, 120, 195, 2, 1.35106
136, 2, wb, attraction, a-b-da, 9, 3, 5, 3, 195, 120, 186, 114, 120, 195, 1, 0.504867
136, 2, wb, attraction, a-b-da, 9, 1, 5, 4, 135, 60, 60, 135, 129, 57, 3, 1.51374
136, 2, wb, attraction, a-b-da, 9, 1, 5, 4, 135, 60, 60, 135, 129, 57, 2, 0.507939
136, 2, wb, filler, NA, 999, 999, 5, 5, 109, 191, 173, 147, 109, 147, 3, 1.1651
136, 2, wb, filler, NA, 999, 999, 5, 5, 109, 191, 173, 147, 109, 147, 2, 1.0853
136, 2, wb, filler, NA, 999, 999, 5, 6, 172, 123, 170, 142, 172, 59, 3, 1.11168
136, 2, wb, filler, NA, 999, 999, 5, 6, 172, 123, 170, 142, 172, 59, 2, 0.601946
136, 2, wb, attraction, a-b-db, 14, 1, 5, 7, 60, 135, 56, 125, 135, 60, 1, 1.09561
136, 2, wb, attraction, a-b-db, 14, 1, 5, 7, 60, 135, 56, 125, 135, 60, 2, 0.530043
136, 2, wb, filler, NA, 999, 999, 5, 8, 155, 64, 168, 127, 107, 155, 1, 1.40305
136, 2, wb, filler, NA, 999, 999, 5, 8, 155, 64, 168, 127, 107, 155, 2, 0.497951
136, 2, wb, filler, NA, 999, 999, 5, 9, 123, 178, 130, 89, 83, 105, 3, 0.747682
136, 2, wb, filler, NA, 999, 999, 5, 9, 123, 178, 130, 89, 83, 105, 1, 0.67681
136, 2, wb, attraction, a-b-da, 2, 1, 5, 10, 135, 60, 60, 135, 134, 59, 3, 2.7192
136, 2, wb, attraction, a-b-da, 2, 1, 5, 10, 135, 60, 60, 135, 134, 59, 1, 0.569238
136, 2, wb, attraction, a-b-da, 5, 3, 5, 11, 120, 195, 190, 117, 195, 120, 2, 1.04805
136, 2, wb, attraction, a-b-da, 5, 3, 5, 11, 120, 195, 190, 117, 195, 120, 3, 0.885131
136, 2, wb, attraction, a-b-db, 2, 2, 5, 12, 89, 163, 90, 165, 165, 90, 2, 1.54342
136, 2, wb, attraction, a-b-db, 2, 2, 5, 12, 89, 163, 90, 165, 165, 90, 1, 0.616236
136, 2, wb, attraction, a-b-da, 5, 1, 5, 13, 135, 60, 60, 135, 132, 58, 1, 0.909284
136, 2, wb, attraction, a-b-da, 5, 1, 5, 13, 135, 60, 60, 135, 132, 58, 2, 0.408781
136, 2, wb, filler, NA, 999, 999, 5, 14, 153, 155, 87, 143, 177, 190, 2, 1.48479
136, 2, wb, filler, NA, 999, 999, 5, 14, 153, 155, 87, 143, 177, 190, 3, 0.728272
136, 2, wb, attraction, a-b-da, 9, 2, 5, 15, 90, 165, 165, 90, 157, 86, 2, 1.32063
136, 2, wb, attraction, a-b-da, 9, 2, 5, 15, 90, 165, 165, 90, 157, 86, 3, 0.426214
136, 2, wb, attraction, a-b-db, 5, 3, 5, 16, 120, 195, 117, 190, 195, 120, 2, 1.47882
136, 2, wb, attraction, a-b-db, 5, 3, 5, 16, 120, 195, 117, 190, 195, 120, 3, 0.386281
136, 2, wb, catch, NA, 999, 999, 5, 17, 157, 98, 165, 150, 100, 95, 3, 1.03264
136, 2, wb, catch, NA, 999, 999, 5, 17, 157, 98, 165, 150, 100, 95, 2, 0.406347
136, 2, wb, filler, NA, 999, 999, 5, 18, 122, 112, 192, 146, 116, 114, 3, 0.667609
136, 2, wb, filler, NA, 999, 999, 5, 18, 122, 112, 192, 146, 116, 114, 2, 0.415918
136, 2, wb, filler, NA, 999, 999, 5, 19, 125, 97, 154, 109, 119, 130, 1, 2.02905
136, 2, wb, filler, NA, 999, 999, 5, 19, 125, 97, 154, 109, 119, 130, 3, 0.418484
136, 2, wb, catch, NA, 999, 999, 5, 20, 190, 125, 156, 99, 78, 117, 3, 1.1035
136, 2, wb, catch, NA, 999, 999, 5, 20, 190, 125, 156, 99, 78, 117, 1, 0.394512
136, 2, wb, attraction, a-b-da, 14, 1, 5, 21, 135, 60, 60, 135, 125, 56, 3, 1.37642
136, 2, wb, attraction, a-b-da, 14, 1, 5, 21, 135, 60, 60, 135, 125, 56, 1, 0.791897
136, 2, wb, attraction, a-b-da, 14, 3, 5, 22, 120, 195, 195, 120, 181, 111, 2, 0.52555
136, 2, wb, attraction, a-b-da, 14, 3, 5, 22, 120, 195, 195, 120, 181, 111, 3, 0.527391
136, 2, wb, filler, NA, 999, 999, 5, 23, 145, 178, 136, 169, 87, 101, 3, 1.21579
136, 2, wb, filler, NA, 999, 999, 5, 23, 145, 178, 136, 169, 87, 101, 1, 0.486067
136, 2, wb, attraction, a-b-da, 5, 2, 5, 24, 90, 165, 165, 90, 161, 88, 2, 1.82451
136, 2, wb, attraction, a-b-da, 5, 2, 5, 24, 90, 165, 165, 90, 161, 88, 3, 0.318056
136, 2, wb, attraction, a-b-db, 5, 2, 5, 25, 88, 161, 165, 90, 90, 165, 1, 1.11921
136, 2, wb, attraction, a-b-db, 5, 2, 5, 25, 88, 161, 165, 90, 90, 165, 2, 0.569393
136, 2, wb, attraction, a-b-db, 2, 3, 5, 26, 119, 193, 195, 120, 120, 195, 3, 0.576434
136, 2, wb, attraction, a-b-db, 2, 3, 5, 26, 119, 193, 195, 120, 120, 195, 1, 0.9523
136, 2, wb, attraction, a-b-db, 14, 3, 5, 27, 111, 181, 195, 120, 120, 195, 2, 0.79192
136, 2, wb, attraction, a-b-db, 14, 3, 5, 27, 111, 181, 195, 120, 120, 195, 3, 0.407026
136, 2, wb, attraction, a-b-da, 14, 2, 5, 28, 153, 83, 165, 90, 90, 165, 1, 2.68414
136, 2, wb, attraction, a-b-da, 14, 2, 5, 28, 153, 83, 165, 90, 90, 165, 2, 0.399323
136, 2, wb, attraction, a-b-db, 14, 2, 5, 29, 90, 165, 165, 90, 83, 153, 1, 0.85309
136, 2, wb, attraction, a-b-db, 14, 2, 5, 29, 90, 165, 165, 90, 83, 153, 2, 0.434229
136, 2, wb, attraction, a-b-da, 2, 2, 5, 30, 163, 89, 165, 90, 90, 165, 1, 0.750592
136, 2, wb, attraction, a-b-da, 2, 2, 5, 30, 163, 89, 165, 90, 90, 165, 2, 0.655651
136, 2, wb, attraction, a-b-db, 5, 1, 5, 31, 135, 60, 58, 132, 60, 135, 1, 0.61942
136, 2, wb, attraction, a-b-db, 5, 1, 5, 31, 135, 60, 58, 132, 60, 135, 3, 0.601924
136, 2, wb, attraction, a-b-db, 9, 2, 5, 32, 165, 90, 86, 157, 90, 165, 1, 0.791601
136, 2, wb, attraction, a-b-db, 9, 2, 5, 32, 165, 90, 86, 157, 90, 165, 2, 0.42268
136, 2, wb, attraction, a-b-db, 2, 1, 5, 33, 135, 60, 60, 135, 59, 134, 1, 0.555887
136, 2, wb, attraction, a-b-db, 2, 1, 5, 33, 135, 60, 60, 135, 59, 134, 3, 0.51637
136, 2, wb, filler, NA, 999, 999, 5, 34, 79, 118, 79, 148, 78, 130, 1, 0.429347
136, 2, wb, filler, NA, 999, 999, 5, 34, 79, 118, 79, 148, 78, 130, 2, 0.459222
136, 2, wb, attraction, a-b-da, 2, 3, 5, 35, 193, 119, 120, 195, 195, 120, 1, 1.15835
136, 2, wb, attraction, a-b-da, 2, 3, 5, 35, 193, 119, 120, 195, 195, 120, 3, 0.654698
136, 2, wb, filler, NA, 999, 999, 5, 36, 177, 142, 145, 105, 81, 122, 3, 0.930377
136, 2, wb, filler, NA, 999, 999, 5, 36, 177, 142, 145, 105, 81, 122, 1, 0.628049
136, 2, wb, attraction, a-b-db, 9, 3, 5, 37, 114, 186, 120, 195, 195, 120, 1, 0.768444
136, 2, wb, attraction, a-b-db, 9, 3, 5, 37, 114, 186, 120, 195, 195, 120, 3, 0.521015
136, 2, wb, filler, NA, 999, 999, 6, 1, 187, 122, 106, 180, 119, 107, 3, 0.914113
136, 2, wb, filler, NA, 999, 999, 6, 1, 187, 122, 106, 180, 119, 107, 1, 1.59635
136, 2, wb, attraction, a-b-db, 14, 2, 6, 2, 90, 165, 83, 153, 165, 90, 2, 1.6739
136, 2, wb, attraction, a-b-db, 14, 2, 6, 2, 90, 165, 83, 153, 165, 90, 1, 0.541289
136, 2, wb, attraction, a-b-da, 14, 1, 6, 3, 135, 60, 125, 56, 60, 135, 2, 1.50904
136, 2, wb, attraction, a-b-da, 14, 1, 6, 3, 135, 60, 125, 56, 60, 135, 1, 0.559237
136, 2, wb, attraction, a-b-db, 5, 2, 6, 4, 90, 165, 88, 161, 165, 90, 2, 1.10228
136, 2, wb, attraction, a-b-db, 5, 2, 6, 4, 90, 165, 88, 161, 165, 90, 1, 0.729285
136, 2, wb, attraction, a-b-db, 14, 3, 6, 5, 111, 181, 195, 120, 120, 195, 1, 0.713703
136, 2, wb, attraction, a-b-db, 14, 3, 6, 5, 111, 181, 195, 120, 120, 195, 3, 0.692108
136, 2, wb, attraction, a-b-da, 14, 2, 6, 6, 165, 90, 153, 83, 90, 165, 2, 1.01379
136, 2, wb, attraction, a-b-da, 14, 2, 6, 6, 165, 90, 153, 83, 90, 165, 1, 0.44408
136, 2, wb, attraction, a-b-da, 9, 2, 6, 7, 90, 165, 165, 90, 157, 86, 2, 0.719878
136, 2, wb, attraction, a-b-da, 9, 2, 6, 7, 90, 165, 165, 90, 157, 86, 3, 0.738312
136, 2, wb, filler, NA, 999, 999, 6, 8, 160, 179, 110, 57, 77, 94, 2, 1.31478
136, 2, wb, filler, NA, 999, 999, 6, 8, 160, 179, 110, 57, 77, 94, 1, 0.444953
136, 2, wb, attraction, a-b-db, 9, 2, 6, 9, 86, 157, 165, 90, 90, 165, 1, 1.04069
136, 2, wb, attraction, a-b-db, 9, 2, 6, 9, 86, 157, 165, 90, 90, 165, 3, 0.525061
136, 2, wb, attraction, a-b-db, 5, 1, 6, 10, 58, 132, 135, 60, 60, 135, 1, 0.662293
136, 2, wb, attraction, a-b-db, 5, 1, 6, 10, 58, 132, 135, 60, 60, 135, 2, 0.378801
136, 2, wb, attraction, a-b-da, 2, 3, 6, 11, 195, 120, 120, 195, 193, 119, 2, 0.545119
136, 2, wb, attraction, a-b-da, 2, 3, 6, 11, 195, 120, 120, 195, 193, 119, 3, 0.698386
136, 2, wb, attraction, a-b-da, 14, 3, 6, 12, 181, 111, 120, 195, 195, 120, 1, 0.571888
136, 2, wb, attraction, a-b-da, 14, 3, 6, 12, 181, 111, 120, 195, 195, 120, 2, 0.427723
136, 2, wb, attraction, a-b-da, 9, 1, 6, 13, 135, 60, 129, 57, 60, 135, 2, 0.696139
136, 2, wb, attraction, a-b-da, 9, 1, 6, 13, 135, 60, 129, 57, 60, 135, 1, 0.731257
136, 2, wb, attraction, a-b-da, 5, 3, 6, 14, 120, 195, 195, 120, 190, 117, 2, 0.451681
136, 2, wb, attraction, a-b-da, 5, 3, 6, 14, 120, 195, 195, 120, 190, 117, 3, 0.745021
136, 2, wb, filler, NA, 999, 999, 6, 15, 78, 142, 133, 177, 87, 75, 3, 1.3925
136, 2, wb, filler, NA, 999, 999, 6, 15, 78, 142, 133, 177, 87, 75, 2, 0.415585
136, 2, wb, attraction, a-b-db, 2, 3, 6, 16, 120, 195, 195, 120, 119, 193, 3, 0.92466
136, 2, wb, attraction, a-b-db, 2, 3, 6, 16, 120, 195, 195, 120, 119, 193, 2, 0.582201
136, 2, wb, attraction, a-b-da, 2, 2, 6, 17, 90, 165, 163, 89, 165, 90, 2, 2.03659
136, 2, wb, attraction, a-b-da, 2, 2, 6, 17, 90, 165, 163, 89, 165, 90, 1, 0.569318
136, 2, wb, filler, NA, 999, 999, 6, 18, 76, 157, 156, 127, 56, 129, 3, 0.656447
136, 2, wb, filler, NA, 999, 999, 6, 18, 76, 157, 156, 127, 56, 129, 2, 0.460913
136, 2, wb, attraction, a-b-db, 14, 1, 6, 19, 135, 60, 56, 125, 60, 135, 2, 0.775996
136, 2, wb, attraction, a-b-db, 14, 1, 6, 19, 135, 60, 56, 125, 60, 135, 1, 0.511657
136, 2, wb, catch, NA, 999, 999, 6, 20, 75, 120, 123, 192, 161, 94, 1, 0.896857
136, 2, wb, catch, NA, 999, 999, 6, 20, 75, 120, 123, 192, 161, 94, 2, 0.531887
136, 2, wb, filler, NA, 999, 999, 6, 21, 62, 178, 194, 118, 96, 113, 3, 1.13234
136, 2, wb, filler, NA, 999, 999, 6, 21, 62, 178, 194, 118, 96, 113, 2, 0.621956
136, 2, wb, attraction, a-b-da, 5, 2, 6, 22, 90, 165, 165, 90, 161, 88, 3, 1.71504
136, 2, wb, attraction, a-b-da, 5, 2, 6, 22, 90, 165, 165, 90, 161, 88, 2, 0.421141
136, 2, wb, filler, NA, 999, 999, 6, 23, 112, 91, 130, 127, 132, 136, 1, 0.818256
136, 2, wb, filler, NA, 999, 999, 6, 23, 112, 91, 130, 127, 132, 136, 2, 0.368817
136, 2, wb, filler, NA, 999, 999, 6, 24, 178, 121, 138, 156, 108, 184, 3, 0.687777
136, 2, wb, filler, NA, 999, 999, 6, 24, 178, 121, 138, 156, 108, 184, 1, 0.530908
136, 2, wb, filler, NA, 999, 999, 6, 25, 103, 93, 166, 114, 189, 76, 1, 1.09937
136, 2, wb, filler, NA, 999, 999, 6, 25, 103, 93, 166, 114, 189, 76, 2, 0.902318
136, 2, wb, catch, NA, 999, 999, 6, 26, 108, 87, 124, 191, 152, 103, 1, 0.72796
136, 2, wb, catch, NA, 999, 999, 6, 26, 108, 87, 124, 191, 152, 103, 2, 0.393687
136, 2, wb, attraction, a-b-da, 2, 1, 6, 27, 135, 60, 60, 135, 134, 59, 2, 1.19145
136, 2, wb, attraction, a-b-da, 2, 1, 6, 27, 135, 60, 60, 135, 134, 59, 1, 0.518385
136, 2, wb, attraction, a-b-da, 9, 3, 6, 28, 186, 114, 120, 195, 195, 120, 2, 0.69559
136, 2, wb, attraction, a-b-da, 9, 3, 6, 28, 186, 114, 120, 195, 195, 120, 1, 0.642637
136, 2, wb, attraction, a-b-db, 2, 1, 6, 29, 60, 135, 135, 60, 59, 134, 2, 0.846389
136, 2, wb, attraction, a-b-db, 2, 1, 6, 29, 60, 135, 135, 60, 59, 134, 1, 0.57144
136, 2, wb, attraction, a-b-db, 5, 3, 6, 30, 195, 120, 117, 190, 120, 195, 2, 0.546508
136, 2, wb, attraction, a-b-db, 5, 3, 6, 30, 195, 120, 117, 190, 120, 195, 3, 1.0277
136, 2, wb, filler, NA, 999, 999, 6, 31, 109, 95, 159, 148, 135, 108, 1, 0.639989
136, 2, wb, filler, NA, 999, 999, 6, 31, 109, 95, 159, 148, 135, 108, 2, 0.357069
136, 2, wb, attraction, a-b-da, 5, 1, 6, 32, 135, 60, 60, 135, 132, 58, 2, 0.924194
136, 2, wb, attraction, a-b-da, 5, 1, 6, 32, 135, 60, 60, 135, 132, 58, 1, 0.462049
136, 2, wb, filler, NA, 999, 999, 6, 33, 104, 171, 88, 162, 132, 103, 2, 0.520997
136, 2, wb, filler, NA, 999, 999, 6, 33, 104, 171, 88, 162, 132, 103, 1, 0.466812
136, 2, wb, catch, NA, 999, 999, 6, 34, 161, 94, 169, 146, 102, 93, 3, 0.709926
136, 2, wb, catch, NA, 999, 999, 6, 34, 161, 94, 169, 146, 102, 93, 2, 0.432384
136, 2, wb, attraction, a-b-db, 9, 1, 6, 35, 135, 60, 57, 129, 60, 135, 3, 0.556815
136, 2, wb, attraction, a-b-db, 9, 1, 6, 35, 135, 60, 57, 129, 60, 135, 2, 0.461283
136, 2, wb, attraction, a-b-db, 9, 3, 6, 36, 114, 186, 195, 120, 120, 195, 1, 0.4884
136, 2, wb, attraction, a-b-db, 9, 3, 6, 36, 114, 186, 195, 120, 120, 195, 2, 0.379676
136, 2, wb, attraction, a-b-db, 2, 2, 6, 37, 90, 165, 165, 90, 89, 163, 1, 0.570085
136, 2, wb, attraction, a-b-db, 2, 2, 6, 37, 90, 165, 165, 90, 89, 163, 2, 0.601861
136, 2, wb, attraction, a-b-da, 2, 2, 7, 1, 165, 90, 90, 165, 163, 89, 2, 0.887609
136, 2, wb, attraction, a-b-da, 2, 2, 7, 1, 165, 90, 90, 165, 163, 89, 1, 0.434798
136, 2, wb, catch, NA, 999, 999, 7, 2, 157, 98, 81, 114, 131, 184, 2, 0.927148
136, 2, wb, catch, NA, 999, 999, 7, 2, 157, 98, 81, 114, 131, 184, 3, 0.456823
136, 2, wb, filler, NA, 999, 999, 7, 3, 91, 159, 190, 108, 65, 71, 3, 0.867913
136, 2, wb, filler, NA, 999, 999, 7, 3, 91, 159, 190, 108, 65, 71, 2, 0.408292
136, 2, wb, attraction, a-b-db, 2, 3, 7, 4, 195, 120, 119, 193, 120, 195, 2, 1.31751
136, 2, wb, attraction, a-b-db, 2, 3, 7, 4, 195, 120, 119, 193, 120, 195, 1, 0.647846
136, 2, wb, attraction, a-b-da, 2, 3, 7, 5, 193, 119, 195, 120, 120, 195, 2, 0.723554
136, 2, wb, attraction, a-b-da, 2, 3, 7, 5, 193, 119, 195, 120, 120, 195, 3, 0.381367
136, 2, wb, catch, NA, 999, 999, 7, 6, 118, 77, 155, 160, 128, 127, 1, 0.595613
136, 2, wb, catch, NA, 999, 999, 7, 6, 118, 77, 155, 160, 128, 127, 2, 0.338908
136, 2, wb, filler, NA, 999, 999, 7, 7, 129, 76, 72, 59, 187, 142, 2, 0.659309
136, 2, wb, filler, NA, 999, 999, 7, 7, 129, 76, 72, 59, 187, 142, 3, 0.42373
136, 2, wb, attraction, a-b-da, 5, 2, 7, 8, 90, 165, 161, 88, 165, 90, 1, 1.46822
136, 2, wb, attraction, a-b-da, 5, 2, 7, 8, 90, 165, 161, 88, 165, 90, 3, 0.49637
136, 2, wb, attraction, a-b-db, 2, 1, 7, 9, 60, 135, 59, 134, 135, 60, 2, 0.490161
136, 2, wb, attraction, a-b-db, 2, 1, 7, 9, 60, 135, 59, 134, 135, 60, 3, 0.533332
136, 2, wb, attraction, a-b-da, 9, 2, 7, 10, 90, 165, 157, 86, 165, 90, 1, 0.597795
136, 2, wb, attraction, a-b-da, 9, 2, 7, 10, 90, 165, 157, 86, 165, 90, 3, 0.46894
136, 2, wb, attraction, a-b-db, 14, 1, 7, 11, 56, 125, 60, 135, 135, 60, 1, 0.567997
136, 2, wb, attraction, a-b-db, 14, 1, 7, 11, 56, 125, 60, 135, 135, 60, 3, 0.560513
136, 2, wb, filler, NA, 999, 999, 7, 12, 83, 186, 129, 73, 142, 108, 1, 0.359594
136, 2, wb, filler, NA, 999, 999, 7, 12, 83, 186, 129, 73, 142, 108, 3, 0.592125
136, 2, wb, attraction, a-b-db, 14, 2, 7, 13, 165, 90, 90, 165, 83, 153, 2, 0.54993
136, 2, wb, attraction, a-b-db, 14, 2, 7, 13, 165, 90, 90, 165, 83, 153, 1, 0.567089
136, 2, wb, attraction, a-b-da, 9, 1, 7, 14, 129, 57, 60, 135, 135, 60, 1, 0.830233
136, 2, wb, attraction, a-b-da, 9, 1, 7, 14, 129, 57, 60, 135, 135, 60, 3, 0.65192
136, 2, wb, attraction, a-b-da, 9, 3, 7, 15, 120, 195, 195, 120, 186, 114, 1, 0.383493
136, 2, wb, attraction, a-b-da, 9, 3, 7, 15, 120, 195, 195, 120, 186, 114, 2, 0.423429
136, 2, wb, attraction, a-b-db, 9, 3, 7, 16, 195, 120, 120, 195, 114, 186, 3, 0.491916
136, 2, wb, attraction, a-b-db, 9, 3, 7, 16, 195, 120, 120, 195, 114, 186, 2, 0.439071
136, 2, wb, attraction, a-b-da, 14, 3, 7, 17, 195, 120, 181, 111, 120, 195, 1, 0.459496
136, 2, wb, attraction, a-b-da, 14, 3, 7, 17, 195, 120, 181, 111, 120, 195, 3, 0.58403
136, 2, wb, filler, NA, 999, 999, 7, 18, 135, 68, 95, 147, 91, 148, 1, 0.918508
136, 2, wb, filler, NA, 999, 999, 7, 18, 135, 68, 95, 147, 91, 148, 2, 0.352142
136, 2, wb, attraction, a-b-db, 5, 1, 7, 19, 135, 60, 60, 135, 58, 132, 2, 0.75193
136, 2, wb, attraction, a-b-db, 5, 1, 7, 19, 135, 60, 60, 135, 58, 132, 1, 0.601049
136, 2, wb, attraction, a-b-db, 9, 1, 7, 20, 57, 129, 135, 60, 60, 135, 2, 0.830786
136, 2, wb, attraction, a-b-db, 9, 1, 7, 20, 57, 129, 135, 60, 60, 135, 3, 0.516465
136, 2, wb, attraction, a-b-da, 14, 2, 7, 21, 90, 165, 153, 83, 165, 90, 2, 0.541603
136, 2, wb, attraction, a-b-da, 14, 2, 7, 21, 90, 165, 153, 83, 165, 90, 1, 0.598722
136, 2, wb, attraction, a-b-db, 9, 2, 7, 22, 86, 157, 165, 90, 90, 165, 2, 0.596435
136, 2, wb, attraction, a-b-db, 9, 2, 7, 22, 86, 157, 165, 90, 90, 165, 3, 0.435676
136, 2, wb, filler, NA, 999, 999, 7, 23, 99, 185, 155, 160, 98, 142, 3, 0.768106
136, 2, wb, filler, NA, 999, 999, 7, 23, 99, 185, 155, 160, 98, 142, 2, 0.408423
136, 2, wb, catch, NA, 999, 999, 7, 24, 110, 145, 81, 114, 191, 124, 2, 1.29365
136, 2, wb, catch, NA, 999, 999, 7, 24, 110, 145, 81, 114, 191, 124, 3, 0.488583
136, 2, wb, filler, NA, 999, 999, 7, 25, 178, 131, 79, 164, 124, 102, 3, 1.01101
136, 2, wb, filler, NA, 999, 999, 7, 25, 178, 131, 79, 164, 124, 102, 1, 0.50535
136, 2, wb, attraction, a-b-da, 2, 1, 7, 26, 134, 59, 135, 60, 60, 135, 2, 0.835037
136, 2, wb, attraction, a-b-da, 2, 1, 7, 26, 134, 59, 135, 60, 60, 135, 3, 0.464782
136, 2, wb, filler, NA, 999, 999, 7, 27, 101, 123, 95, 177, 159, 113, 1, 0.619894
136, 2, wb, filler, NA, 999, 999, 7, 27, 101, 123, 95, 177, 159, 113, 2, 0.417681
136, 2, wb, filler, NA, 999, 999, 7, 28, 186, 61, 58, 151, 111, 71, 3, 0.774874
136, 2, wb, filler, NA, 999, 999, 7, 28, 186, 61, 58, 151, 111, 71, 2, 0.43069
136, 2, wb, filler, NA, 999, 999, 7, 29, 120, 96, 77, 140, 173, 132, 1, 0.475067
136, 2, wb, filler, NA, 999, 999, 7, 29, 120, 96, 77, 140, 173, 132, 3, 0.606939
136, 2, wb, attraction, a-b-db, 14, 3, 7, 30, 111, 181, 195, 120, 120, 195, 3, 1.10796
136, 2, wb, attraction, a-b-db, 14, 3, 7, 30, 111, 181, 195, 120, 120, 195, 2, 0.462322
136, 2, wb, attraction, a-b-da, 5, 3, 7, 31, 190, 117, 120, 195, 195, 120, 1, 0.529376
136, 2, wb, attraction, a-b-da, 5, 3, 7, 31, 190, 117, 120, 195, 195, 120, 2, 0.459208
136, 2, wb, attraction, a-b-db, 5, 2, 7, 32, 90, 165, 165, 90, 88, 161, 1, 0.814274
136, 2, wb, attraction, a-b-db, 5, 2, 7, 32, 90, 165, 165, 90, 88, 161, 2, 0.628955
136, 2, wb, filler, NA, 999, 999, 7, 33, 166, 83, 103, 126, 107, 149, 1, 0.513129
136, 2, wb, filler, NA, 999, 999, 7, 33, 166, 83, 103, 126, 107, 149, 3, 0.819727
136, 2, wb, attraction, a-b-db, 2, 2, 7, 34, 90, 165, 89, 163, 165, 90, 1, 0.656606
136, 2, wb, attraction, a-b-db, 2, 2, 7, 34, 90, 165, 89, 163, 165, 90, 2, 0.429041
136, 2, wb, attraction, a-b-da, 5, 1, 7, 35, 135, 60, 60, 135, 132, 58, 3, 0.561525
136, 2, wb, attraction, a-b-da, 5, 1, 7, 35, 135, 60, 60, 135, 132, 58, 2, 0.873958
136, 2, wb, attraction, a-b-da, 14, 1, 7, 36, 135, 60, 60, 135, 125, 56, 3, 0.564336
136, 2, wb, attraction, a-b-da, 14, 1, 7, 36, 135, 60, 60, 135, 125, 56, 1, 0.908739
136, 2, wb, attraction, a-b-db, 5, 3, 7, 37, 120, 195, 195, 120, 117, 190, 2, 3.82194
136, 2, wb, attraction, a-b-db, 5, 3, 7, 37, 120, 195, 195, 120, 117, 190, 1, 0.402576
136, 2, wb, filler, NA, 999, 999, 8, 1, 74, 178, 147, 172, 108, 89, 3, 1.5604
136, 2, wb, filler, NA, 999, 999, 8, 1, 74, 178, 147, 172, 108, 89, 2, 0.456568
136, 2, wb, attraction, a-b-db, 2, 3, 8, 2, 195, 120, 120, 195, 119, 193, 2, 1.08363
136, 2, wb, attraction, a-b-db, 2, 3, 8, 2, 195, 120, 120, 195, 119, 193, 1, 0.479317
136, 2, wb, attraction, a-b-da, 2, 3, 8, 3, 193, 119, 120, 195, 195, 120, 2, 0.521761
136, 2, wb, attraction, a-b-da, 2, 3, 8, 3, 193, 119, 120, 195, 195, 120, 3, 0.623759
136, 2, wb, attraction, a-b-db, 2, 2, 8, 4, 89, 163, 90, 165, 165, 90, 1, 0.656015
136, 2, wb, attraction, a-b-db, 2, 2, 8, 4, 89, 163, 90, 165, 165, 90, 2, 0.388376
136, 2, wb, attraction, a-b-db, 2, 1, 8, 5, 135, 60, 59, 134, 60, 135, 2, 0.675255
136, 2, wb, attraction, a-b-db, 2, 1, 8, 5, 135, 60, 59, 134, 60, 135, 1, 0.574701
136, 2, wb, filler, NA, 999, 999, 8, 6, 159, 126, 104, 93, 102, 191, 2, 0.845062
136, 2, wb, filler, NA, 999, 999, 8, 6, 159, 126, 104, 93, 102, 191, 3, 0.410184
136, 2, wb, filler, NA, 999, 999, 8, 7, 114, 128, 180, 90, 60, 61, 3, 0.631196
136, 2, wb, filler, NA, 999, 999, 8, 7, 114, 128, 180, 90, 60, 61, 1, 0.653085
136, 2, wb, attraction, a-b-da, 5, 3, 8, 8, 195, 120, 120, 195, 190, 117, 3, 0.640748
136, 2, wb, attraction, a-b-da, 5, 3, 8, 8, 195, 120, 120, 195, 190, 117, 2, 0.413929
136, 2, wb, attraction, a-b-db, 5, 1, 8, 9, 58, 132, 135, 60, 60, 135, 3, 0.739031
136, 2, wb, attraction, a-b-db, 5, 1, 8, 9, 58, 132, 135, 60, 60, 135, 2, 0.428113
136, 2, wb, attraction, a-b-da, 5, 1, 8, 10, 135, 60, 60, 135, 132, 58, 2, 0.728578
136, 2, wb, attraction, a-b-da, 5, 1, 8, 10, 135, 60, 60, 135, 132, 58, 1, 0.554361
136, 2, wb, attraction, a-b-db, 14, 3, 8, 11, 111, 181, 120, 195, 195, 120, 2, 0.47419
136, 2, wb, attraction, a-b-db, 14, 3, 8, 11, 111, 181, 120, 195, 195, 120, 3, 0.486042
136, 2, wb, attraction, a-b-db, 9, 2, 8, 12, 165, 90, 86, 157, 90, 165, 2, 0.448465
136, 2, wb, attraction, a-b-db, 9, 2, 8, 12, 165, 90, 86, 157, 90, 165, 1, 0.517519
136, 2, wb, catch, NA, 999, 999, 8, 13, 167, 148, 140, 115, 89, 106, 2, 0.358587
136, 2, wb, catch, NA, 999, 999, 8, 13, 167, 148, 140, 115, 89, 106, 1, 0.663141
136, 2, wb, attraction, a-b-db, 5, 2, 8, 14, 165, 90, 88, 161, 90, 165, 2, 0.274293
136, 2, wb, attraction, a-b-db, 5, 2, 8, 14, 165, 90, 88, 161, 90, 165, 3, 0.486195
136, 2, wb, attraction, a-b-da, 2, 2, 8, 15, 90, 165, 165, 90, 163, 89, 2, 0.552571
136, 2, wb, attraction, a-b-da, 2, 2, 8, 15, 90, 165, 165, 90, 163, 89, 3, 0.593839
136, 2, wb, attraction, a-b-da, 2, 1, 8, 16, 135, 60, 60, 135, 134, 59, 2, 0.687506
136, 2, wb, attraction, a-b-da, 2, 1, 8, 16, 135, 60, 60, 135, 134, 59, 1, 0.91461
136, 2, wb, attraction, a-b-da, 5, 2, 8, 17, 165, 90, 161, 88, 90, 165, 1, 0.787608
136, 2, wb, attraction, a-b-da, 5, 2, 8, 17, 165, 90, 161, 88, 90, 165, 2, 0.41869
136, 2, wb, attraction, a-b-db, 5, 3, 8, 18, 117, 190, 195, 120, 120, 195, 2, 0.583762
136, 2, wb, attraction, a-b-db, 5, 3, 8, 18, 117, 190, 195, 120, 120, 195, 3, 0.599579
136, 2, wb, filler, NA, 999, 999, 8, 19, 118, 168, 83, 123, 72, 69, 3, 0.877386
136, 2, wb, filler, NA, 999, 999, 8, 19, 118, 168, 83, 123, 72, 69, 1, 0.41701
136, 2, wb, filler, NA, 999, 999, 8, 20, 105, 79, 155, 182, 142, 91, 1, 0.734111
136, 2, wb, filler, NA, 999, 999, 8, 20, 105, 79, 155, 182, 142, 91, 2, 0.624029
136, 2, wb, attraction, a-b-db, 14, 1, 8, 21, 56, 125, 135, 60, 60, 135, 1, 0.668289
136, 2, wb, attraction, a-b-db, 14, 1, 8, 21, 56, 125, 135, 60, 60, 135, 2, 0.608883
136, 2, wb, attraction, a-b-da, 9, 2, 8, 22, 165, 90, 90, 165, 157, 86, 1, 0.469952
136, 2, wb, attraction, a-b-da, 9, 2, 8, 22, 165, 90, 90, 165, 157, 86, 2, 0.602465
136, 2, wb, filler, NA, 999, 999, 8, 23, 191, 195, 92, 63, 114, 133, 1, 0.296021
136, 2, wb, filler, NA, 999, 999, 8, 23, 191, 195, 92, 63, 114, 133, 3, 4.63195
136, 2, wb, catch, NA, 999, 999, 8, 24, 147, 108, 149, 166, 79, 116, 3, 1.38247
136, 2, wb, catch, NA, 999, 999, 8, 24, 147, 108, 149, 166, 79, 116, 2, 0.638005
136, 2, wb, attraction, a-b-db, 14, 2, 8, 25, 83, 153, 90, 165, 165, 90, 1, 0.866418
136, 2, wb, attraction, a-b-db, 14, 2, 8, 25, 83, 153, 90, 165, 165, 90, 3, 0.974768
136, 2, wb, attraction, a-b-da, 14, 2, 8, 26, 90, 165, 153, 83, 165, 90, 2, 0.66905
136, 2, wb, attraction, a-b-da, 14, 2, 8, 26, 90, 165, 153, 83, 165, 90, 1, 0.529495
136, 2, wb, filler, NA, 999, 999, 8, 27, 95, 118, 110, 112, 87, 112, 2, 0.745976
136, 2, wb, filler, NA, 999, 999, 8, 27, 95, 118, 110, 112, 87, 112, 1, 0.474999
136, 2, wb, attraction, a-b-da, 9, 3, 8, 28, 195, 120, 186, 114, 120, 195, 2, 1.14155
136, 2, wb, attraction, a-b-da, 9, 3, 8, 28, 195, 120, 186, 114, 120, 195, 3, 0.366478
136, 2, wb, attraction, a-b-da, 14, 3, 8, 29, 120, 195, 181, 111, 195, 120, 2, 1.5977
136, 2, wb, attraction, a-b-da, 14, 3, 8, 29, 120, 195, 181, 111, 195, 120, 3, 0.436443
136, 2, wb, filler, NA, 999, 999, 8, 30, 135, 72, 93, 179, 89, 145, 1, 0.704842
136, 2, wb, filler, NA, 999, 999, 8, 30, 135, 72, 93, 179, 89, 145, 2, 0.547355
136, 2, wb, attraction, a-b-da, 14, 1, 8, 31, 60, 135, 125, 56, 135, 60, 2, 3.31509
136, 2, wb, attraction, a-b-da, 14, 1, 8, 31, 60, 135, 125, 56, 135, 60, 3, 0.620664
136, 2, wb, filler, NA, 999, 999, 8, 32, 113, 143, 117, 56, 143, 176, 2, 0.49781
136, 2, wb, filler, NA, 999, 999, 8, 32, 113, 143, 117, 56, 143, 176, 3, 0.596883
136, 2, wb, attraction, a-b-db, 9, 1, 8, 33, 57, 129, 135, 60, 60, 135, 1, 1.30662
136, 2, wb, attraction, a-b-db, 9, 1, 8, 33, 57, 129, 135, 60, 60, 135, 2, 0.357016
136, 2, wb, attraction, a-b-db, 9, 3, 8, 34, 120, 195, 114, 186, 195, 120, 3, 1.98004
136, 2, wb, attraction, a-b-db, 9, 3, 8, 34, 120, 195, 114, 186, 195, 120, 1, 0.403367
136, 2, wb, attraction, a-b-da, 9, 1, 8, 35, 129, 57, 135, 60, 60, 135, 3, 0.817228
136, 2, wb, attraction, a-b-da, 9, 1, 8, 35, 129, 57, 135, 60, 60, 135, 1, 0.727645
136, 2, wb, filler, NA, 999, 999, 8, 36, 177, 173, 100, 168, 94, 121, 3, 0.767909
136, 2, wb, filler, NA, 999, 999, 8, 36, 177, 173, 100, 168, 94, 121, 1, 0.448426
136, 2, wb, catch, NA, 999, 999, 8, 37, 123, 132, 100, 95, 167, 148, 2, 1.14842
136, 2, wb, catch, NA, 999, 999, 8, 37, 123, 132, 100, 95, 167, 148, 3, 0.381148
