sub_n, computer_n, bw_cond, effect, set, distance, diag, block_n, trial_n, h1, w1, h2, w2, h3, w3, choice, rt 
142, 2, wb, practice, NA, 999, 999, 0, 1, 95, 147, 137, 82, 70, 119, 3, 5.05081
142, 2, wb, practice, NA, 999, 999, 0, 1, 95, 147, 137, 82, 70, 119, 1, 3.08621
142, 2, wb, practice, NA, 999, 999, 0, 2, 162, 163, 108, 195, 149, 143, 3, 4.81961
142, 2, wb, practice, NA, 999, 999, 0, 2, 162, 163, 108, 195, 149, 143, 1, 2.16433
142, 2, wb, practice, NA, 999, 999, 0, 3, 138, 190, 131, 68, 107, 100, 2, 4.65329
142, 2, wb, practice, NA, 999, 999, 0, 3, 138, 190, 131, 68, 107, 100, 1, 1.53772
142, 2, wb, filler, NA, 999, 999, 1, 1, 161, 83, 167, 190, 86, 190, 1, 4.08667
142, 2, wb, filler, NA, 999, 999, 1, 1, 161, 83, 167, 190, 86, 190, 2, 1.22535
142, 2, wb, catch, NA, 999, 999, 1, 2, 98, 157, 195, 120, 95, 100, 3, 2.45368
142, 2, wb, catch, NA, 999, 999, 1, 2, 98, 157, 195, 120, 95, 100, 2, 0.882177
142, 2, wb, attraction, a-b-db, 14, 3, 1, 3, 120, 195, 111, 181, 195, 120, 2, 5.79662
142, 2, wb, attraction, a-b-db, 14, 3, 1, 3, 120, 195, 111, 181, 195, 120, 1, 0.921987
142, 2, wb, attraction, a-b-da, 5, 3, 1, 4, 195, 120, 190, 117, 120, 195, 1, 4.02713
142, 2, wb, attraction, a-b-da, 5, 3, 1, 4, 195, 120, 190, 117, 120, 195, 3, 3.7038
142, 2, wb, filler, NA, 999, 999, 1, 5, 187, 117, 112, 194, 74, 110, 3, 1.50446
142, 2, wb, filler, NA, 999, 999, 1, 5, 187, 117, 112, 194, 74, 110, 1, 1.77062
142, 2, wb, attraction, a-b-db, 9, 3, 1, 6, 120, 195, 195, 120, 114, 186, 2, 3.44133
142, 2, wb, attraction, a-b-db, 9, 3, 1, 6, 120, 195, 195, 120, 114, 186, 1, 1.67752
142, 2, wb, filler, NA, 999, 999, 1, 7, 129, 193, 69, 191, 183, 116, 2, 1.39965
142, 2, wb, filler, NA, 999, 999, 1, 7, 129, 193, 69, 191, 183, 116, 1, 1.50258
142, 2, wb, attraction, a-b-da, 14, 2, 1, 8, 165, 90, 90, 165, 153, 83, 3, 3.75199
142, 2, wb, attraction, a-b-da, 14, 2, 1, 8, 165, 90, 90, 165, 153, 83, 2, 3.22411
142, 2, wb, attraction, a-b-db, 9, 2, 1, 9, 165, 90, 90, 165, 86, 157, 3, 2.86776
142, 2, wb, attraction, a-b-db, 9, 2, 1, 9, 165, 90, 90, 165, 86, 157, 2, 2.77551
142, 2, wb, attraction, a-b-db, 14, 1, 1, 10, 60, 135, 135, 60, 56, 125, 3, 3.00522
142, 2, wb, attraction, a-b-db, 14, 1, 1, 10, 60, 135, 135, 60, 56, 125, 1, 0.778919
142, 2, wb, catch, NA, 999, 999, 1, 11, 154, 161, 65, 130, 122, 133, 2, 1.77729
142, 2, wb, catch, NA, 999, 999, 1, 11, 154, 161, 65, 130, 122, 133, 1, 0.872733
142, 2, wb, attraction, a-b-da, 14, 1, 1, 12, 60, 135, 125, 56, 135, 60, 2, 5.48373
142, 2, wb, attraction, a-b-da, 14, 1, 1, 12, 60, 135, 125, 56, 135, 60, 1, 1.07011
142, 2, wb, attraction, a-b-da, 14, 3, 1, 13, 181, 111, 195, 120, 120, 195, 1, 3.01695
142, 2, wb, attraction, a-b-da, 14, 3, 1, 13, 181, 111, 195, 120, 120, 195, 3, 1.04666
142, 2, wb, attraction, a-b-db, 2, 2, 1, 14, 89, 163, 165, 90, 90, 165, 2, 3.41822
142, 2, wb, attraction, a-b-db, 2, 2, 1, 14, 89, 163, 165, 90, 90, 165, 1, 0.895817
142, 2, wb, attraction, a-b-da, 9, 2, 1, 15, 157, 86, 165, 90, 90, 165, 1, 2.52139
142, 2, wb, attraction, a-b-da, 9, 2, 1, 15, 157, 86, 165, 90, 90, 165, 3, 1.01866
142, 2, wb, attraction, a-b-da, 9, 1, 1, 16, 129, 57, 60, 135, 135, 60, 1, 2.19966
142, 2, wb, attraction, a-b-da, 9, 1, 1, 16, 129, 57, 60, 135, 135, 60, 2, 1.60626
142, 2, wb, attraction, a-b-db, 5, 3, 1, 17, 117, 190, 120, 195, 195, 120, 1, 5.16371
142, 2, wb, attraction, a-b-db, 5, 3, 1, 17, 117, 190, 120, 195, 195, 120, 2, 0.466745
142, 2, wb, attraction, a-b-db, 5, 2, 1, 18, 90, 165, 88, 161, 165, 90, 2, 2.62986
142, 2, wb, attraction, a-b-db, 5, 2, 1, 18, 90, 165, 88, 161, 165, 90, 1, 1.843
142, 2, wb, attraction, a-b-da, 5, 1, 1, 19, 132, 58, 135, 60, 60, 135, 1, 3.15843
142, 2, wb, attraction, a-b-da, 5, 1, 1, 19, 132, 58, 135, 60, 60, 135, 2, 6.46195
142, 2, wb, attraction, a-b-da, 9, 3, 1, 20, 186, 114, 195, 120, 120, 195, 1, 3.11926
142, 2, wb, attraction, a-b-da, 9, 3, 1, 20, 186, 114, 195, 120, 120, 195, 2, 1.9449
142, 2, wb, attraction, a-b-db, 14, 2, 1, 21, 165, 90, 83, 153, 90, 165, 2, 3.52837
142, 2, wb, attraction, a-b-db, 14, 2, 1, 21, 165, 90, 83, 153, 90, 165, 1, 1.17716
142, 2, wb, filler, NA, 999, 999, 1, 22, 76, 139, 85, 173, 68, 109, 3, 1.4153
142, 2, wb, filler, NA, 999, 999, 1, 22, 76, 139, 85, 173, 68, 109, 2, 0.749521
142, 2, wb, attraction, a-b-da, 2, 2, 1, 23, 165, 90, 163, 89, 90, 165, 2, 8.54929
142, 2, wb, attraction, a-b-da, 2, 2, 1, 23, 165, 90, 163, 89, 90, 165, 3, 1.74793
142, 2, wb, attraction, a-b-da, 2, 1, 1, 24, 60, 135, 135, 60, 134, 59, 3, 1.92347
142, 2, wb, attraction, a-b-da, 2, 1, 1, 24, 60, 135, 135, 60, 134, 59, 1, 0.644729
142, 2, wb, filler, NA, 999, 999, 1, 25, 105, 116, 180, 169, 145, 150, 1, 1.1444
142, 2, wb, filler, NA, 999, 999, 1, 25, 105, 116, 180, 169, 145, 150, 2, 0.561335
142, 2, wb, catch, NA, 999, 999, 1, 26, 175, 140, 128, 127, 125, 70, 3, 1.28847
142, 2, wb, catch, NA, 999, 999, 1, 26, 175, 140, 128, 127, 125, 70, 1, 0.707408
142, 2, wb, attraction, a-b-db, 9, 1, 1, 27, 60, 135, 57, 129, 135, 60, 2, 2.15649
142, 2, wb, attraction, a-b-db, 9, 1, 1, 27, 60, 135, 57, 129, 135, 60, 1, 1.46055
142, 2, wb, attraction, a-b-da, 2, 3, 1, 28, 195, 120, 193, 119, 120, 195, 2, 3.05535
142, 2, wb, attraction, a-b-da, 2, 3, 1, 28, 195, 120, 193, 119, 120, 195, 1, 2.11489
142, 2, wb, attraction, a-b-db, 2, 1, 1, 29, 135, 60, 59, 134, 60, 135, 2, 1.92354
142, 2, wb, attraction, a-b-db, 2, 1, 1, 29, 135, 60, 59, 134, 60, 135, 1, 1.90882
142, 2, wb, filler, NA, 999, 999, 1, 30, 179, 181, 75, 171, 159, 165, 2, 1.30947
142, 2, wb, filler, NA, 999, 999, 1, 30, 179, 181, 75, 171, 159, 165, 1, 0.919785
142, 2, wb, filler, NA, 999, 999, 1, 31, 115, 126, 186, 132, 125, 190, 1, 1.03286
142, 2, wb, filler, NA, 999, 999, 1, 31, 115, 126, 186, 132, 125, 190, 2, 2.77443
142, 2, wb, filler, NA, 999, 999, 1, 32, 172, 189, 141, 88, 82, 138, 3, 0.908163
142, 2, wb, filler, NA, 999, 999, 1, 32, 172, 189, 141, 88, 82, 138, 1, 0.846501
142, 2, wb, attraction, a-b-db, 2, 3, 1, 33, 119, 193, 195, 120, 120, 195, 3, 5.53817
142, 2, wb, attraction, a-b-db, 2, 3, 1, 33, 119, 193, 195, 120, 120, 195, 2, 1.72248
142, 2, wb, filler, NA, 999, 999, 1, 34, 129, 74, 69, 87, 107, 186, 2, 0.939138
142, 2, wb, filler, NA, 999, 999, 1, 34, 129, 74, 69, 87, 107, 186, 3, 0.516178
142, 2, wb, attraction, a-b-da, 5, 2, 1, 35, 161, 88, 165, 90, 90, 165, 1, 2.68525
142, 2, wb, attraction, a-b-da, 5, 2, 1, 35, 161, 88, 165, 90, 90, 165, 2, 1.60848
142, 2, wb, filler, NA, 999, 999, 1, 36, 141, 167, 159, 86, 81, 170, 3, 2.81325
142, 2, wb, filler, NA, 999, 999, 1, 36, 141, 167, 159, 86, 81, 170, 1, 0.931038
142, 2, wb, attraction, a-b-db, 5, 1, 1, 37, 58, 132, 135, 60, 60, 135, 1, 2.30726
142, 2, wb, attraction, a-b-db, 5, 1, 1, 37, 58, 132, 135, 60, 60, 135, 3, 0.621608
142, 2, wb, attraction, a-b-da, 2, 3, 2, 1, 193, 119, 195, 120, 120, 195, 2, 5.6103
142, 2, wb, attraction, a-b-da, 2, 3, 2, 1, 193, 119, 195, 120, 120, 195, 3, 0.567188
142, 2, wb, attraction, a-b-da, 2, 2, 2, 2, 165, 90, 163, 89, 90, 165, 2, 3.20629
142, 2, wb, attraction, a-b-da, 2, 2, 2, 2, 165, 90, 163, 89, 90, 165, 1, 1.00381
142, 2, wb, catch, NA, 999, 999, 2, 3, 123, 132, 191, 124, 89, 106, 3, 0.793588
142, 2, wb, catch, NA, 999, 999, 2, 3, 123, 132, 191, 124, 89, 106, 2, 1.24854
142, 2, wb, filler, NA, 999, 999, 2, 4, 177, 182, 77, 192, 137, 131, 2, 3.63614
142, 2, wb, filler, NA, 999, 999, 2, 4, 177, 182, 77, 192, 137, 131, 1, 0.960944
142, 2, wb, filler, NA, 999, 999, 2, 5, 56, 73, 187, 187, 64, 149, 1, 1.25589
142, 2, wb, filler, NA, 999, 999, 2, 5, 56, 73, 187, 187, 64, 149, 2, 0.548221
142, 2, wb, attraction, a-b-db, 5, 1, 2, 6, 60, 135, 135, 60, 58, 132, 3, 2.96398
142, 2, wb, attraction, a-b-db, 5, 1, 2, 6, 60, 135, 135, 60, 58, 132, 2, 0.907701
142, 2, wb, attraction, a-b-db, 14, 2, 2, 7, 90, 165, 165, 90, 83, 153, 2, 2.15664
142, 2, wb, attraction, a-b-db, 14, 2, 2, 7, 90, 165, 165, 90, 83, 153, 1, 0.940625
142, 2, wb, attraction, a-b-db, 9, 2, 2, 8, 165, 90, 90, 165, 86, 157, 3, 3.79627
142, 2, wb, attraction, a-b-db, 9, 2, 2, 8, 165, 90, 90, 165, 86, 157, 2, 1.35433
142, 2, wb, attraction, a-b-da, 14, 2, 2, 9, 153, 83, 165, 90, 90, 165, 1, 4.6019
142, 2, wb, attraction, a-b-da, 14, 2, 2, 9, 153, 83, 165, 90, 90, 165, 3, 2.46386
142, 2, wb, filler, NA, 999, 999, 2, 10, 69, 79, 67, 84, 103, 178, 1, 1.97022
142, 2, wb, filler, NA, 999, 999, 2, 10, 69, 79, 67, 84, 103, 178, 3, 0.642305
142, 2, wb, attraction, a-b-da, 9, 2, 2, 11, 157, 86, 165, 90, 90, 165, 2, 4.35001
142, 2, wb, attraction, a-b-da, 9, 2, 2, 11, 157, 86, 165, 90, 90, 165, 3, 0.629947
142, 2, wb, attraction, a-b-db, 2, 2, 2, 12, 165, 90, 89, 163, 90, 165, 1, 4.41048
142, 2, wb, attraction, a-b-db, 2, 2, 2, 12, 165, 90, 89, 163, 90, 165, 2, 0.783646
142, 2, wb, attraction, a-b-da, 14, 1, 2, 13, 125, 56, 135, 60, 60, 135, 3, 1.742
142, 2, wb, attraction, a-b-da, 14, 1, 2, 13, 125, 56, 135, 60, 60, 135, 1, 1.55081
142, 2, wb, attraction, a-b-da, 9, 3, 2, 14, 186, 114, 120, 195, 195, 120, 1, 2.00627
142, 2, wb, attraction, a-b-da, 9, 3, 2, 14, 186, 114, 120, 195, 195, 120, 2, 0.868242
142, 2, wb, attraction, a-b-db, 14, 1, 2, 15, 135, 60, 56, 125, 60, 135, 2, 2.58335
142, 2, wb, attraction, a-b-db, 14, 1, 2, 15, 135, 60, 56, 125, 60, 135, 1, 0.622457
142, 2, wb, filler, NA, 999, 999, 2, 16, 171, 183, 96, 180, 164, 179, 2, 0.987444
142, 2, wb, filler, NA, 999, 999, 2, 16, 171, 183, 96, 180, 164, 179, 1, 0.90659
142, 2, wb, attraction, a-b-db, 5, 3, 2, 17, 195, 120, 117, 190, 120, 195, 3, 1.61949
142, 2, wb, attraction, a-b-db, 5, 3, 2, 17, 195, 120, 117, 190, 120, 195, 1, 1.66561
142, 2, wb, attraction, a-b-db, 14, 3, 2, 18, 120, 195, 195, 120, 111, 181, 3, 1.40436
142, 2, wb, attraction, a-b-db, 14, 3, 2, 18, 120, 195, 195, 120, 111, 181, 1, 0.7146
142, 2, wb, filler, NA, 999, 999, 2, 19, 122, 157, 175, 183, 158, 133, 1, 1.68365
142, 2, wb, filler, NA, 999, 999, 2, 19, 122, 157, 175, 183, 158, 133, 2, 0.423037
142, 2, wb, attraction, a-b-db, 9, 3, 2, 20, 120, 195, 195, 120, 114, 186, 3, 3.5316
142, 2, wb, attraction, a-b-db, 9, 3, 2, 20, 120, 195, 195, 120, 114, 186, 1, 0.900376
142, 2, wb, attraction, a-b-db, 9, 1, 2, 21, 135, 60, 60, 135, 57, 129, 3, 1.84623
142, 2, wb, attraction, a-b-db, 9, 1, 2, 21, 135, 60, 60, 135, 57, 129, 1, 2.17878
142, 2, wb, filler, NA, 999, 999, 2, 22, 100, 105, 100, 104, 129, 143, 1, 2.14477
142, 2, wb, filler, NA, 999, 999, 2, 22, 100, 105, 100, 104, 129, 143, 3, 0.545421
142, 2, wb, catch, NA, 999, 999, 2, 23, 116, 79, 148, 167, 115, 140, 1, 1.41708
142, 2, wb, catch, NA, 999, 999, 2, 23, 116, 79, 148, 167, 115, 140, 2, 0.559391
142, 2, wb, attraction, a-b-da, 9, 1, 2, 24, 129, 57, 60, 135, 135, 60, 2, 2.18246
142, 2, wb, attraction, a-b-da, 9, 1, 2, 24, 129, 57, 60, 135, 135, 60, 1, 0.821819
142, 2, wb, attraction, a-b-da, 14, 3, 2, 25, 120, 195, 181, 111, 195, 120, 2, 1.82682
142, 2, wb, attraction, a-b-da, 14, 3, 2, 25, 120, 195, 181, 111, 195, 120, 1, 0.584167
142, 2, wb, catch, NA, 999, 999, 2, 26, 132, 183, 103, 92, 126, 129, 2, 0.830652
142, 2, wb, catch, NA, 999, 999, 2, 26, 132, 183, 103, 92, 126, 129, 1, 0.516335
142, 2, wb, filler, NA, 999, 999, 2, 27, 156, 73, 116, 186, 182, 100, 1, 1.22145
142, 2, wb, filler, NA, 999, 999, 2, 27, 156, 73, 116, 186, 182, 100, 2, 0.402987
142, 2, wb, attraction, a-b-db, 2, 1, 2, 28, 59, 134, 135, 60, 60, 135, 1, 2.54488
142, 2, wb, attraction, a-b-db, 2, 1, 2, 28, 59, 134, 135, 60, 60, 135, 3, 2.48153
142, 2, wb, filler, NA, 999, 999, 2, 29, 60, 141, 74, 149, 121, 169, 1, 1.43511
142, 2, wb, filler, NA, 999, 999, 2, 29, 60, 141, 74, 149, 121, 169, 3, 0.576728
142, 2, wb, filler, NA, 999, 999, 2, 30, 117, 89, 65, 97, 190, 158, 2, 0.887135
142, 2, wb, filler, NA, 999, 999, 2, 30, 117, 89, 65, 97, 190, 158, 3, 0.506855
142, 2, wb, attraction, a-b-da, 5, 2, 2, 31, 161, 88, 165, 90, 90, 165, 3, 4.45998
142, 2, wb, attraction, a-b-da, 5, 2, 2, 31, 161, 88, 165, 90, 90, 165, 1, 1.0312
142, 2, wb, filler, NA, 999, 999, 2, 32, 76, 70, 103, 145, 159, 189, 1, 0.963463
142, 2, wb, filler, NA, 999, 999, 2, 32, 76, 70, 103, 145, 159, 189, 3, 0.443782
142, 2, wb, attraction, a-b-db, 5, 2, 2, 33, 88, 161, 90, 165, 165, 90, 1, 1.71962
142, 2, wb, attraction, a-b-db, 5, 2, 2, 33, 88, 161, 90, 165, 165, 90, 2, 1.11374
142, 2, wb, attraction, a-b-da, 5, 1, 2, 34, 132, 58, 135, 60, 60, 135, 3, 1.11463
142, 2, wb, attraction, a-b-da, 5, 1, 2, 34, 132, 58, 135, 60, 60, 135, 1, 1.38094
142, 2, wb, attraction, a-b-da, 2, 1, 2, 35, 135, 60, 60, 135, 134, 59, 3, 1.56319
142, 2, wb, attraction, a-b-da, 2, 1, 2, 35, 135, 60, 60, 135, 134, 59, 1, 0.955323
142, 2, wb, attraction, a-b-da, 5, 3, 2, 36, 120, 195, 190, 117, 195, 120, 2, 2.17892
142, 2, wb, attraction, a-b-da, 5, 3, 2, 36, 120, 195, 190, 117, 195, 120, 1, 1.05024
142, 2, wb, attraction, a-b-db, 2, 3, 2, 37, 120, 195, 119, 193, 195, 120, 3, 2.29388
142, 2, wb, attraction, a-b-db, 2, 3, 2, 37, 120, 195, 119, 193, 195, 120, 1, 0.73639
142, 2, wb, attraction, a-b-da, 5, 2, 3, 1, 161, 88, 90, 165, 165, 90, 1, 3.51283
142, 2, wb, attraction, a-b-da, 5, 2, 3, 1, 161, 88, 90, 165, 165, 90, 2, 0.578321
142, 2, wb, attraction, a-b-da, 14, 3, 3, 2, 181, 111, 195, 120, 120, 195, 1, 2.10479
142, 2, wb, attraction, a-b-da, 14, 3, 3, 2, 181, 111, 195, 120, 120, 195, 3, 2.42676
142, 2, wb, filler, NA, 999, 999, 3, 3, 101, 169, 79, 108, 87, 59, 3, 0.710536
142, 2, wb, filler, NA, 999, 999, 3, 3, 101, 169, 79, 108, 87, 59, 1, 0.48104
142, 2, wb, attraction, a-b-db, 2, 1, 3, 4, 59, 134, 60, 135, 135, 60, 3, 3.51559
142, 2, wb, attraction, a-b-db, 2, 1, 3, 4, 59, 134, 60, 135, 135, 60, 1, 0.829066
142, 2, wb, attraction, a-b-db, 5, 3, 3, 5, 117, 190, 195, 120, 120, 195, 2, 2.09735
142, 2, wb, attraction, a-b-db, 5, 3, 3, 5, 117, 190, 195, 120, 120, 195, 3, 1.14797
142, 2, wb, attraction, a-b-db, 9, 2, 3, 6, 165, 90, 86, 157, 90, 165, 2, 4.19559
142, 2, wb, attraction, a-b-db, 9, 2, 3, 6, 165, 90, 86, 157, 90, 165, 1, 0.64959
142, 2, wb, filler, NA, 999, 999, 3, 7, 122, 140, 101, 114, 102, 70, 3, 0.637202
142, 2, wb, filler, NA, 999, 999, 3, 7, 122, 140, 101, 114, 102, 70, 1, 0.394542
142, 2, wb, filler, NA, 999, 999, 3, 8, 163, 164, 110, 113, 92, 104, 3, 0.744173
142, 2, wb, filler, NA, 999, 999, 3, 8, 163, 164, 110, 113, 92, 104, 1, 0.92939
142, 2, wb, attraction, a-b-db, 14, 2, 3, 9, 90, 165, 83, 153, 165, 90, 2, 2.56155
142, 2, wb, attraction, a-b-db, 14, 2, 3, 9, 90, 165, 83, 153, 165, 90, 1, 0.777464
142, 2, wb, attraction, a-b-db, 2, 2, 3, 10, 165, 90, 89, 163, 90, 165, 3, 7.35995
142, 2, wb, attraction, a-b-db, 2, 2, 3, 10, 165, 90, 89, 163, 90, 165, 1, 0.774161
142, 2, wb, filler, NA, 999, 999, 3, 11, 160, 69, 132, 135, 187, 123, 1, 1.15649
142, 2, wb, filler, NA, 999, 999, 3, 11, 160, 69, 132, 135, 187, 123, 3, 0.468803
142, 2, wb, filler, NA, 999, 999, 3, 12, 88, 192, 158, 82, 144, 135, 2, 0.783984
142, 2, wb, filler, NA, 999, 999, 3, 12, 88, 192, 158, 82, 144, 135, 3, 4.84768
142, 2, wb, attraction, a-b-da, 14, 1, 3, 13, 135, 60, 60, 135, 125, 56, 3, 0.914125
142, 2, wb, attraction, a-b-da, 14, 1, 3, 13, 135, 60, 60, 135, 125, 56, 1, 1.03638
142, 2, wb, attraction, a-b-da, 5, 1, 3, 14, 135, 60, 132, 58, 60, 135, 3, 2.85689
142, 2, wb, attraction, a-b-da, 5, 1, 3, 14, 135, 60, 132, 58, 60, 135, 1, 1.2205
142, 2, wb, attraction, a-b-db, 9, 1, 3, 15, 57, 129, 60, 135, 135, 60, 1, 1.0734
142, 2, wb, attraction, a-b-db, 9, 1, 3, 15, 57, 129, 60, 135, 135, 60, 3, 1.65303
142, 2, wb, catch, NA, 999, 999, 3, 16, 140, 175, 90, 105, 128, 127, 2, 0.704422
142, 2, wb, catch, NA, 999, 999, 3, 16, 140, 175, 90, 105, 128, 127, 1, 0.418787
142, 2, wb, filler, NA, 999, 999, 3, 17, 138, 191, 131, 150, 139, 142, 2, 1.27211
142, 2, wb, filler, NA, 999, 999, 3, 17, 138, 191, 131, 150, 139, 142, 1, 1.5476
142, 2, wb, filler, NA, 999, 999, 3, 18, 172, 190, 109, 193, 77, 65, 3, 0.675041
142, 2, wb, filler, NA, 999, 999, 3, 18, 172, 190, 109, 193, 77, 65, 1, 0.566818
142, 2, wb, attraction, a-b-da, 9, 1, 3, 19, 129, 57, 60, 135, 135, 60, 1, 1.20599
142, 2, wb, attraction, a-b-da, 9, 1, 3, 19, 129, 57, 60, 135, 135, 60, 2, 0.500088
142, 2, wb, attraction, a-b-da, 2, 3, 3, 20, 120, 195, 195, 120, 193, 119, 3, 2.62189
142, 2, wb, attraction, a-b-da, 2, 3, 3, 20, 120, 195, 195, 120, 193, 119, 1, 0.467119
142, 2, wb, attraction, a-b-db, 14, 1, 3, 21, 60, 135, 56, 125, 135, 60, 2, 1.43022
142, 2, wb, attraction, a-b-db, 14, 1, 3, 21, 60, 135, 56, 125, 135, 60, 1, 1.21974
142, 2, wb, attraction, a-b-da, 9, 3, 3, 22, 120, 195, 195, 120, 186, 114, 2, 4.10463
142, 2, wb, attraction, a-b-da, 9, 3, 3, 22, 120, 195, 195, 120, 186, 114, 1, 2.57072
142, 2, wb, attraction, a-b-db, 9, 3, 3, 23, 120, 195, 195, 120, 114, 186, 3, 2.59314
142, 2, wb, attraction, a-b-db, 9, 3, 3, 23, 120, 195, 195, 120, 114, 186, 1, 0.591678
142, 2, wb, attraction, a-b-db, 5, 1, 3, 24, 60, 135, 135, 60, 58, 132, 3, 2.36533
142, 2, wb, attraction, a-b-db, 5, 1, 3, 24, 60, 135, 135, 60, 58, 132, 1, 0.845268
142, 2, wb, attraction, a-b-da, 5, 3, 3, 25, 120, 195, 195, 120, 190, 117, 2, 2.73695
142, 2, wb, attraction, a-b-da, 5, 3, 3, 25, 120, 195, 195, 120, 190, 117, 1, 0.842098
142, 2, wb, filler, NA, 999, 999, 3, 26, 165, 118, 185, 137, 130, 159, 1, 4.46176
142, 2, wb, filler, NA, 999, 999, 3, 26, 165, 118, 185, 137, 130, 159, 2, 0.945039
142, 2, wb, attraction, a-b-db, 5, 2, 3, 27, 165, 90, 88, 161, 90, 165, 2, 2.24063
142, 2, wb, attraction, a-b-db, 5, 2, 3, 27, 165, 90, 88, 161, 90, 165, 1, 0.957266
142, 2, wb, catch, NA, 999, 999, 3, 28, 99, 156, 154, 161, 101, 94, 3, 0.748342
142, 2, wb, catch, NA, 999, 999, 3, 28, 99, 156, 154, 161, 101, 94, 2, 0.549269
142, 2, wb, attraction, a-b-db, 14, 3, 3, 29, 120, 195, 195, 120, 111, 181, 3, 2.33314
142, 2, wb, attraction, a-b-db, 14, 3, 3, 29, 120, 195, 195, 120, 111, 181, 1, 0.446402
142, 2, wb, catch, NA, 999, 999, 3, 30, 138, 117, 78, 117, 183, 132, 2, 0.962084
142, 2, wb, catch, NA, 999, 999, 3, 30, 138, 117, 78, 117, 183, 132, 1, 0.554612
142, 2, wb, attraction, a-b-da, 2, 1, 3, 31, 60, 135, 135, 60, 134, 59, 1, 4.08234
142, 2, wb, attraction, a-b-da, 2, 1, 3, 31, 60, 135, 135, 60, 134, 59, 2, 0.764905
142, 2, wb, attraction, a-b-db, 2, 3, 3, 32, 119, 193, 195, 120, 120, 195, 1, 3.71607
142, 2, wb, attraction, a-b-db, 2, 3, 3, 32, 119, 193, 195, 120, 120, 195, 2, 0.741403
142, 2, wb, attraction, a-b-da, 2, 2, 3, 33, 165, 90, 90, 165, 163, 89, 3, 3.63723
142, 2, wb, attraction, a-b-da, 2, 2, 3, 33, 165, 90, 90, 165, 163, 89, 2, 1.16203
142, 2, wb, filler, NA, 999, 999, 3, 34, 70, 116, 158, 111, 165, 73, 1, 0.96893
142, 2, wb, filler, NA, 999, 999, 3, 34, 70, 116, 158, 111, 165, 73, 2, 0.417218
142, 2, wb, attraction, a-b-da, 9, 2, 3, 35, 165, 90, 90, 165, 157, 86, 3, 2.07045
142, 2, wb, attraction, a-b-da, 9, 2, 3, 35, 165, 90, 90, 165, 157, 86, 1, 0.658398
142, 2, wb, attraction, a-b-da, 14, 2, 3, 36, 153, 83, 90, 165, 165, 90, 1, 2.21339
142, 2, wb, attraction, a-b-da, 14, 2, 3, 36, 153, 83, 90, 165, 165, 90, 2, 0.379355
142, 2, wb, filler, NA, 999, 999, 3, 37, 67, 111, 139, 188, 123, 89, 1, 1.00999
142, 2, wb, filler, NA, 999, 999, 3, 37, 67, 111, 139, 188, 123, 89, 2, 0.320231
142, 2, wb, attraction, a-b-db, 2, 3, 4, 1, 195, 120, 120, 195, 119, 193, 3, 8.21736
142, 2, wb, attraction, a-b-db, 2, 3, 4, 1, 195, 120, 120, 195, 119, 193, 1, 0.573546
142, 2, wb, attraction, a-b-da, 5, 1, 4, 2, 135, 60, 132, 58, 60, 135, 2, 2.97197
142, 2, wb, attraction, a-b-da, 5, 1, 4, 2, 135, 60, 132, 58, 60, 135, 1, 0.539009
142, 2, wb, filler, NA, 999, 999, 4, 3, 192, 107, 174, 154, 126, 60, 3, 0.731395
142, 2, wb, filler, NA, 999, 999, 4, 3, 192, 107, 174, 154, 126, 60, 2, 0.397084
142, 2, wb, attraction, a-b-da, 5, 2, 4, 4, 161, 88, 90, 165, 165, 90, 3, 2.82698
142, 2, wb, attraction, a-b-da, 5, 2, 4, 4, 161, 88, 90, 165, 165, 90, 1, 0.800057
142, 2, wb, attraction, a-b-da, 14, 3, 4, 5, 181, 111, 120, 195, 195, 120, 1, 1.27765
142, 2, wb, attraction, a-b-da, 14, 3, 4, 5, 181, 111, 120, 195, 195, 120, 2, 1.09724
142, 2, wb, attraction, a-b-da, 2, 2, 4, 6, 163, 89, 90, 165, 165, 90, 2, 5.99486
142, 2, wb, attraction, a-b-da, 2, 2, 4, 6, 163, 89, 90, 165, 165, 90, 3, 0.576312
142, 2, wb, attraction, a-b-db, 2, 1, 4, 7, 60, 135, 135, 60, 59, 134, 2, 4.21475
142, 2, wb, attraction, a-b-db, 2, 1, 4, 7, 60, 135, 135, 60, 59, 134, 1, 1.05211
142, 2, wb, attraction, a-b-da, 14, 2, 4, 8, 90, 165, 153, 83, 165, 90, 2, 1.95975
142, 2, wb, attraction, a-b-da, 14, 2, 4, 8, 90, 165, 153, 83, 165, 90, 1, 0.695731
142, 2, wb, filler, NA, 999, 999, 4, 9, 133, 163, 117, 137, 170, 112, 2, 1.09754
142, 2, wb, filler, NA, 999, 999, 4, 9, 133, 163, 117, 137, 170, 112, 1, 1.57241
142, 2, wb, filler, NA, 999, 999, 4, 10, 97, 84, 72, 131, 184, 127, 1, 0.803134
142, 2, wb, filler, NA, 999, 999, 4, 10, 97, 84, 72, 131, 184, 127, 3, 0.673574
142, 2, wb, attraction, a-b-db, 14, 2, 4, 11, 90, 165, 165, 90, 83, 153, 2, 2.81996
142, 2, wb, attraction, a-b-db, 14, 2, 4, 11, 90, 165, 165, 90, 83, 153, 1, 0.657891
142, 2, wb, attraction, a-b-da, 2, 1, 4, 12, 60, 135, 135, 60, 134, 59, 3, 2.70881
142, 2, wb, attraction, a-b-da, 2, 1, 4, 12, 60, 135, 135, 60, 134, 59, 1, 0.55055
142, 2, wb, filler, NA, 999, 999, 4, 13, 117, 107, 110, 58, 56, 64, 3, 0.782308
142, 2, wb, filler, NA, 999, 999, 4, 13, 117, 107, 110, 58, 56, 64, 1, 0.390128
142, 2, wb, attraction, a-b-db, 5, 2, 4, 14, 165, 90, 88, 161, 90, 165, 3, 3.83603
142, 2, wb, attraction, a-b-db, 5, 2, 4, 14, 165, 90, 88, 161, 90, 165, 1, 0.752643
142, 2, wb, attraction, a-b-da, 14, 1, 4, 15, 60, 135, 125, 56, 135, 60, 2, 2.67246
142, 2, wb, attraction, a-b-da, 14, 1, 4, 15, 60, 135, 125, 56, 135, 60, 1, 0.571587
142, 2, wb, catch, NA, 999, 999, 4, 16, 79, 116, 164, 91, 144, 171, 1, 0.834659
142, 2, wb, catch, NA, 999, 999, 4, 16, 79, 116, 164, 91, 144, 171, 3, 0.520427
142, 2, wb, attraction, a-b-da, 9, 2, 4, 17, 90, 165, 157, 86, 165, 90, 2, 3.9134
142, 2, wb, attraction, a-b-da, 9, 2, 4, 17, 90, 165, 157, 86, 165, 90, 1, 0.506798
142, 2, wb, catch, NA, 999, 999, 4, 18, 100, 95, 189, 126, 93, 162, 1, 0.763935
142, 2, wb, catch, NA, 999, 999, 4, 18, 100, 95, 189, 126, 93, 162, 2, 0.3644
142, 2, wb, attraction, a-b-db, 2, 2, 4, 19, 90, 165, 165, 90, 89, 163, 2, 3.25152
142, 2, wb, attraction, a-b-db, 2, 2, 4, 19, 90, 165, 165, 90, 89, 163, 1, 0.687824
142, 2, wb, filler, NA, 999, 999, 4, 20, 139, 124, 185, 174, 66, 159, 3, 1.33033
142, 2, wb, filler, NA, 999, 999, 4, 20, 139, 124, 185, 174, 66, 159, 2, 0.859832
142, 2, wb, attraction, a-b-da, 2, 3, 4, 21, 193, 119, 195, 120, 120, 195, 1, 4.35083
142, 2, wb, attraction, a-b-da, 2, 3, 4, 21, 193, 119, 195, 120, 120, 195, 2, 0.598769
142, 2, wb, attraction, a-b-db, 14, 3, 4, 22, 120, 195, 195, 120, 111, 181, 3, 1.71655
142, 2, wb, attraction, a-b-db, 14, 3, 4, 22, 120, 195, 195, 120, 111, 181, 1, 0.798597
142, 2, wb, filler, NA, 999, 999, 4, 23, 170, 189, 102, 165, 177, 101, 2, 1.33222
142, 2, wb, filler, NA, 999, 999, 4, 23, 170, 189, 102, 165, 177, 101, 1, 0.469817
142, 2, wb, attraction, a-b-db, 9, 3, 4, 24, 114, 186, 195, 120, 120, 195, 1, 3.01701
142, 2, wb, attraction, a-b-db, 9, 3, 4, 24, 114, 186, 195, 120, 120, 195, 3, 1.3507
142, 2, wb, attraction, a-b-da, 5, 3, 4, 25, 195, 120, 120, 195, 190, 117, 3, 1.83037
142, 2, wb, attraction, a-b-da, 5, 3, 4, 25, 195, 120, 120, 195, 190, 117, 1, 1.0516
142, 2, wb, filler, NA, 999, 999, 4, 26, 107, 174, 169, 92, 91, 170, 3, 1.82327
142, 2, wb, filler, NA, 999, 999, 4, 26, 107, 174, 169, 92, 91, 170, 1, 0.740625
142, 2, wb, attraction, a-b-db, 9, 1, 4, 27, 135, 60, 57, 129, 60, 135, 2, 1.62027
142, 2, wb, attraction, a-b-db, 9, 1, 4, 27, 135, 60, 57, 129, 60, 135, 1, 0.80245
142, 2, wb, attraction, a-b-da, 9, 1, 4, 28, 135, 60, 129, 57, 60, 135, 2, 2.53632
142, 2, wb, attraction, a-b-da, 9, 1, 4, 28, 135, 60, 129, 57, 60, 135, 1, 0.857325
142, 2, wb, attraction, a-b-db, 5, 1, 4, 29, 60, 135, 58, 132, 135, 60, 1, 3.18028
142, 2, wb, attraction, a-b-db, 5, 1, 4, 29, 60, 135, 58, 132, 135, 60, 3, 0.651334
142, 2, wb, attraction, a-b-db, 14, 1, 4, 30, 60, 135, 135, 60, 56, 125, 3, 1.19105
142, 2, wb, attraction, a-b-db, 14, 1, 4, 30, 60, 135, 135, 60, 56, 125, 1, 0.701977
142, 2, wb, attraction, a-b-db, 9, 2, 4, 31, 90, 165, 86, 157, 165, 90, 2, 1.9437
142, 2, wb, attraction, a-b-db, 9, 2, 4, 31, 90, 165, 86, 157, 165, 90, 3, 0.67259
142, 2, wb, filler, NA, 999, 999, 4, 32, 165, 81, 187, 92, 72, 142, 3, 1.10757
142, 2, wb, filler, NA, 999, 999, 4, 32, 165, 81, 187, 92, 72, 142, 2, 1.6138
142, 2, wb, filler, NA, 999, 999, 4, 33, 61, 122, 121, 104, 76, 189, 1, 2.1705
142, 2, wb, filler, NA, 999, 999, 4, 33, 61, 122, 121, 104, 76, 189, 3, 1.6585
142, 2, wb, filler, NA, 999, 999, 4, 34, 67, 139, 82, 182, 142, 68, 1, 0.901266
142, 2, wb, filler, NA, 999, 999, 4, 34, 67, 139, 82, 182, 142, 68, 2, 1.68841
142, 2, wb, catch, NA, 999, 999, 4, 35, 99, 156, 190, 125, 104, 91, 3, 1.03445
142, 2, wb, catch, NA, 999, 999, 4, 35, 99, 156, 190, 125, 104, 91, 2, 0.720139
142, 2, wb, attraction, a-b-db, 5, 3, 4, 36, 120, 195, 117, 190, 195, 120, 2, 2.32109
142, 2, wb, attraction, a-b-db, 5, 3, 4, 36, 120, 195, 117, 190, 195, 120, 1, 2.45832
142, 2, wb, attraction, a-b-da, 9, 3, 4, 37, 120, 195, 186, 114, 195, 120, 2, 2.80486
142, 2, wb, attraction, a-b-da, 9, 3, 4, 37, 120, 195, 186, 114, 195, 120, 1, 0.770669
142, 2, wb, attraction, a-b-da, 2, 2, 5, 1, 163, 89, 165, 90, 90, 165, 3, 3.31963
142, 2, wb, attraction, a-b-da, 2, 2, 5, 1, 163, 89, 165, 90, 90, 165, 1, 1.34527
142, 2, wb, attraction, a-b-da, 5, 1, 5, 2, 60, 135, 135, 60, 132, 58, 3, 3.26463
142, 2, wb, attraction, a-b-da, 5, 1, 5, 2, 60, 135, 135, 60, 132, 58, 1, 1.76437
142, 2, wb, attraction, a-b-db, 5, 2, 5, 3, 90, 165, 88, 161, 165, 90, 2, 3.09918
142, 2, wb, attraction, a-b-db, 5, 2, 5, 3, 90, 165, 88, 161, 165, 90, 1, 0.693445
142, 2, wb, attraction, a-b-db, 5, 3, 5, 4, 195, 120, 120, 195, 117, 190, 1, 1.78305
142, 2, wb, attraction, a-b-db, 5, 3, 5, 4, 195, 120, 120, 195, 117, 190, 2, 0.806532
142, 2, wb, filler, NA, 999, 999, 5, 5, 193, 176, 96, 161, 128, 63, 3, 0.963596
142, 2, wb, filler, NA, 999, 999, 5, 5, 193, 176, 96, 161, 128, 63, 1, 0.651997
142, 2, wb, attraction, a-b-da, 14, 3, 5, 6, 195, 120, 120, 195, 181, 111, 3, 2.80756
142, 2, wb, attraction, a-b-da, 14, 3, 5, 6, 195, 120, 120, 195, 181, 111, 2, 0.645403
142, 2, wb, attraction, a-b-db, 9, 2, 5, 7, 86, 157, 90, 165, 165, 90, 2, 5.93708
142, 2, wb, attraction, a-b-db, 9, 2, 5, 7, 86, 157, 90, 165, 165, 90, 1, 1.52926
142, 2, wb, catch, NA, 999, 999, 5, 8, 147, 168, 67, 128, 158, 97, 2, 1.09741
142, 2, wb, catch, NA, 999, 999, 5, 8, 147, 168, 67, 128, 158, 97, 1, 0.500366
142, 2, wb, attraction, a-b-db, 9, 3, 5, 9, 195, 120, 120, 195, 114, 186, 3, 2.0862
142, 2, wb, attraction, a-b-db, 9, 3, 5, 9, 195, 120, 120, 195, 114, 186, 2, 0.601435
142, 2, wb, filler, NA, 999, 999, 5, 10, 132, 148, 104, 152, 153, 141, 2, 1.86319
142, 2, wb, filler, NA, 999, 999, 5, 10, 132, 148, 104, 152, 153, 141, 3, 0.787209
142, 2, wb, attraction, a-b-da, 14, 1, 5, 11, 60, 135, 125, 56, 135, 60, 2, 2.37761
142, 2, wb, attraction, a-b-da, 14, 1, 5, 11, 60, 135, 125, 56, 135, 60, 1, 1.36892
142, 2, wb, attraction, a-b-db, 9, 1, 5, 12, 60, 135, 57, 129, 135, 60, 3, 2.87985
142, 2, wb, attraction, a-b-db, 9, 1, 5, 12, 60, 135, 57, 129, 135, 60, 1, 0.538886
142, 2, wb, attraction, a-b-da, 9, 3, 5, 13, 120, 195, 186, 114, 195, 120, 2, 2.45923
142, 2, wb, attraction, a-b-da, 9, 3, 5, 13, 120, 195, 186, 114, 195, 120, 1, 0.623121
142, 2, wb, attraction, a-b-db, 5, 1, 5, 14, 58, 132, 135, 60, 60, 135, 2, 3.29953
142, 2, wb, attraction, a-b-db, 5, 1, 5, 14, 58, 132, 135, 60, 60, 135, 3, 1.19783
142, 2, wb, attraction, a-b-da, 14, 2, 5, 15, 153, 83, 90, 165, 165, 90, 1, 1.75541
142, 2, wb, attraction, a-b-da, 14, 2, 5, 15, 153, 83, 90, 165, 165, 90, 2, 0.403356
142, 2, wb, attraction, a-b-db, 14, 3, 5, 16, 111, 181, 120, 195, 195, 120, 1, 3.33722
142, 2, wb, attraction, a-b-db, 14, 3, 5, 16, 111, 181, 120, 195, 195, 120, 2, 0.434162
142, 2, wb, catch, NA, 999, 999, 5, 17, 124, 71, 180, 135, 116, 139, 1, 1.15067
142, 2, wb, catch, NA, 999, 999, 5, 17, 124, 71, 180, 135, 116, 139, 2, 0.303545
142, 2, wb, attraction, a-b-da, 9, 1, 5, 18, 60, 135, 129, 57, 135, 60, 2, 2.56955
142, 2, wb, attraction, a-b-da, 9, 1, 5, 18, 60, 135, 129, 57, 135, 60, 1, 0.745303
142, 2, wb, filler, NA, 999, 999, 5, 19, 61, 111, 117, 132, 87, 125, 1, 1.17699
142, 2, wb, filler, NA, 999, 999, 5, 19, 61, 111, 117, 132, 87, 125, 2, 0.336668
142, 2, wb, filler, NA, 999, 999, 5, 20, 122, 187, 142, 124, 82, 191, 2, 2.44111
142, 2, wb, filler, NA, 999, 999, 5, 20, 122, 187, 142, 124, 82, 191, 1, 0.973673
142, 2, wb, filler, NA, 999, 999, 5, 21, 113, 136, 161, 62, 108, 146, 3, 5.60409
142, 2, wb, filler, NA, 999, 999, 5, 21, 113, 136, 161, 62, 108, 146, 1, 1.50549
142, 2, wb, attraction, a-b-da, 2, 1, 5, 22, 134, 59, 135, 60, 60, 135, 3, 1.60308
142, 2, wb, attraction, a-b-da, 2, 1, 5, 22, 134, 59, 135, 60, 60, 135, 2, 1.60183
142, 2, wb, attraction, a-b-db, 2, 1, 5, 23, 135, 60, 60, 135, 59, 134, 3, 4.71126
142, 2, wb, attraction, a-b-db, 2, 1, 5, 23, 135, 60, 60, 135, 59, 134, 1, 1.16841
142, 2, wb, catch, NA, 999, 999, 5, 24, 65, 130, 158, 97, 174, 141, 1, 0.735252
142, 2, wb, catch, NA, 999, 999, 5, 24, 65, 130, 158, 97, 174, 141, 3, 0.417037
142, 2, wb, filler, NA, 999, 999, 5, 25, 173, 182, 105, 114, 67, 180, 2, 1.35825
142, 2, wb, filler, NA, 999, 999, 5, 25, 173, 182, 105, 114, 67, 180, 1, 0.766393
142, 2, wb, filler, NA, 999, 999, 5, 26, 115, 174, 182, 190, 104, 164, 3, 1.46935
142, 2, wb, filler, NA, 999, 999, 5, 26, 115, 174, 182, 190, 104, 164, 2, 0.753618
142, 2, wb, filler, NA, 999, 999, 5, 27, 142, 74, 78, 156, 163, 62, 1, 3.24132
142, 2, wb, filler, NA, 999, 999, 5, 27, 142, 74, 78, 156, 163, 62, 2, 0.65361
142, 2, wb, attraction, a-b-da, 9, 2, 5, 28, 165, 90, 90, 165, 157, 86, 3, 1.38539
142, 2, wb, attraction, a-b-da, 9, 2, 5, 28, 165, 90, 90, 165, 157, 86, 1, 3.17691
142, 2, wb, filler, NA, 999, 999, 5, 29, 86, 67, 151, 137, 94, 86, 1, 0.966546
142, 2, wb, filler, NA, 999, 999, 5, 29, 86, 67, 151, 137, 94, 86, 2, 0.294862
142, 2, wb, filler, NA, 999, 999, 5, 30, 123, 56, 81, 187, 114, 134, 1, 1.52065
142, 2, wb, filler, NA, 999, 999, 5, 30, 123, 56, 81, 187, 114, 134, 3, 0.642872
142, 2, wb, attraction, a-b-db, 2, 2, 5, 31, 90, 165, 165, 90, 89, 163, 1, 1.9587
142, 2, wb, attraction, a-b-db, 2, 2, 5, 31, 90, 165, 165, 90, 89, 163, 2, 2.00679
142, 2, wb, attraction, a-b-da, 2, 3, 5, 32, 195, 120, 120, 195, 193, 119, 3, 2.2673
142, 2, wb, attraction, a-b-da, 2, 3, 5, 32, 195, 120, 120, 195, 193, 119, 1, 0.743412
142, 2, wb, attraction, a-b-da, 5, 2, 5, 33, 161, 88, 90, 165, 165, 90, 1, 3.62285
142, 2, wb, attraction, a-b-da, 5, 2, 5, 33, 161, 88, 90, 165, 165, 90, 2, 0.755811
142, 2, wb, attraction, a-b-db, 14, 2, 5, 34, 83, 153, 165, 90, 90, 165, 1, 1.81161
142, 2, wb, attraction, a-b-db, 14, 2, 5, 34, 83, 153, 165, 90, 90, 165, 3, 0.76952
142, 2, wb, attraction, a-b-db, 14, 1, 5, 35, 56, 125, 135, 60, 60, 135, 1, 4.94479
142, 2, wb, attraction, a-b-db, 14, 1, 5, 35, 56, 125, 135, 60, 60, 135, 3, 1.18444
142, 2, wb, attraction, a-b-db, 2, 3, 5, 36, 119, 193, 120, 195, 195, 120, 1, 5.95867
142, 2, wb, attraction, a-b-db, 2, 3, 5, 36, 119, 193, 120, 195, 195, 120, 3, 1.07739
142, 2, wb, attraction, a-b-da, 5, 3, 5, 37, 190, 117, 120, 195, 195, 120, 1, 3.6316
142, 2, wb, attraction, a-b-da, 5, 3, 5, 37, 190, 117, 120, 195, 195, 120, 2, 0.684623
142, 2, wb, attraction, a-b-db, 9, 3, 6, 1, 114, 186, 195, 120, 120, 195, 1, 3.12688
142, 2, wb, attraction, a-b-db, 9, 3, 6, 1, 114, 186, 195, 120, 120, 195, 2, 1.59989
142, 2, wb, attraction, a-b-da, 9, 1, 6, 2, 135, 60, 129, 57, 60, 135, 2, 3.51731
142, 2, wb, attraction, a-b-da, 9, 1, 6, 2, 135, 60, 129, 57, 60, 135, 3, 0.606861
142, 2, wb, filler, NA, 999, 999, 6, 3, 187, 72, 153, 123, 119, 166, 1, 5.35601
142, 2, wb, filler, NA, 999, 999, 6, 3, 187, 72, 153, 123, 119, 166, 3, 0.562953
142, 2, wb, attraction, a-b-da, 5, 2, 6, 4, 161, 88, 165, 90, 90, 165, 1, 5.04201
142, 2, wb, attraction, a-b-da, 5, 2, 6, 4, 161, 88, 165, 90, 90, 165, 3, 0.949766
142, 2, wb, attraction, a-b-da, 5, 1, 6, 5, 132, 58, 135, 60, 60, 135, 2, 2.00538
142, 2, wb, attraction, a-b-da, 5, 1, 6, 5, 132, 58, 135, 60, 60, 135, 3, 0.723369
142, 2, wb, filler, NA, 999, 999, 6, 6, 71, 124, 190, 93, 90, 104, 1, 5.86777
142, 2, wb, filler, NA, 999, 999, 6, 6, 71, 124, 190, 93, 90, 104, 2, 2.7266
142, 2, wb, filler, NA, 999, 999, 6, 7, 187, 57, 71, 169, 170, 108, 2, 2.83844
142, 2, wb, filler, NA, 999, 999, 6, 7, 187, 57, 71, 169, 170, 108, 3, 0.96274
142, 2, wb, attraction, a-b-db, 5, 3, 6, 8, 117, 190, 120, 195, 195, 120, 3, 2.24965
142, 2, wb, attraction, a-b-db, 5, 3, 6, 8, 117, 190, 120, 195, 195, 120, 2, 1.43829
142, 2, wb, catch, NA, 999, 999, 6, 9, 163, 92, 124, 191, 100, 95, 3, 1.03445
142, 2, wb, catch, NA, 999, 999, 6, 9, 163, 92, 124, 191, 100, 95, 2, 0.456111
142, 2, wb, attraction, a-b-da, 9, 2, 6, 10, 157, 86, 165, 90, 90, 165, 2, 2.07529
142, 2, wb, attraction, a-b-da, 9, 2, 6, 10, 157, 86, 165, 90, 90, 165, 3, 0.830588
142, 2, wb, attraction, a-b-db, 2, 2, 6, 11, 165, 90, 90, 165, 89, 163, 3, 3.5469
142, 2, wb, attraction, a-b-db, 2, 2, 6, 11, 165, 90, 90, 165, 89, 163, 1, 0.69913
142, 2, wb, filler, NA, 999, 999, 6, 12, 148, 71, 156, 180, 107, 76, 3, 0.620829
142, 2, wb, filler, NA, 999, 999, 6, 12, 148, 71, 156, 180, 107, 76, 2, 0.402622
142, 2, wb, attraction, a-b-db, 2, 3, 6, 13, 119, 193, 120, 195, 195, 120, 3, 4.51246
142, 2, wb, attraction, a-b-db, 2, 3, 6, 13, 119, 193, 120, 195, 195, 120, 1, 1.01768
142, 2, wb, filler, NA, 999, 999, 6, 14, 121, 68, 64, 120, 79, 138, 2, 1.34266
142, 2, wb, filler, NA, 999, 999, 6, 14, 121, 68, 64, 120, 79, 138, 3, 0.423513
142, 2, wb, catch, NA, 999, 999, 6, 15, 179, 136, 103, 152, 129, 66, 3, 0.956007
142, 2, wb, catch, NA, 999, 999, 6, 15, 179, 136, 103, 152, 129, 66, 1, 0.412452
142, 2, wb, attraction, a-b-db, 14, 2, 6, 16, 165, 90, 83, 153, 90, 165, 2, 2.66569
142, 2, wb, attraction, a-b-db, 14, 2, 6, 16, 165, 90, 83, 153, 90, 165, 3, 1.77333
142, 2, wb, attraction, a-b-da, 2, 2, 6, 17, 165, 90, 90, 165, 163, 89, 1, 2.13138
142, 2, wb, attraction, a-b-da, 2, 2, 6, 17, 165, 90, 90, 165, 163, 89, 2, 0.860793
142, 2, wb, attraction, a-b-db, 9, 2, 6, 18, 165, 90, 86, 157, 90, 165, 2, 3.07174
142, 2, wb, attraction, a-b-db, 9, 2, 6, 18, 165, 90, 86, 157, 90, 165, 3, 2.6347
142, 2, wb, attraction, a-b-db, 5, 2, 6, 19, 165, 90, 88, 161, 90, 165, 1, 4.43847
142, 2, wb, attraction, a-b-db, 5, 2, 6, 19, 165, 90, 88, 161, 90, 165, 3, 1.35443
142, 2, wb, attraction, a-b-db, 14, 1, 6, 20, 56, 125, 60, 135, 135, 60, 1, 2.41805
142, 2, wb, attraction, a-b-db, 14, 1, 6, 20, 56, 125, 60, 135, 135, 60, 2, 1.0798
142, 2, wb, attraction, a-b-db, 2, 1, 6, 21, 59, 134, 60, 135, 135, 60, 2, 2.15405
142, 2, wb, attraction, a-b-db, 2, 1, 6, 21, 59, 134, 60, 135, 135, 60, 1, 1.53804
142, 2, wb, attraction, a-b-da, 2, 3, 6, 22, 120, 195, 195, 120, 193, 119, 3, 3.81021
142, 2, wb, attraction, a-b-da, 2, 3, 6, 22, 120, 195, 195, 120, 193, 119, 1, 1.80758
142, 2, wb, attraction, a-b-db, 5, 1, 6, 23, 135, 60, 60, 135, 58, 132, 3, 3.14841
142, 2, wb, attraction, a-b-db, 5, 1, 6, 23, 135, 60, 60, 135, 58, 132, 1, 0.964776
142, 2, wb, attraction, a-b-da, 5, 3, 6, 24, 120, 195, 195, 120, 190, 117, 2, 6.75567
142, 2, wb, attraction, a-b-da, 5, 3, 6, 24, 120, 195, 195, 120, 190, 117, 1, 1.10616
142, 2, wb, filler, NA, 999, 999, 6, 25, 74, 124, 93, 107, 195, 148, 1, 1.65965
142, 2, wb, filler, NA, 999, 999, 6, 25, 74, 124, 93, 107, 195, 148, 3, 0.583858
142, 2, wb, filler, NA, 999, 999, 6, 26, 90, 139, 73, 97, 86, 98, 2, 1.52632
142, 2, wb, filler, NA, 999, 999, 6, 26, 90, 139, 73, 97, 86, 98, 1, 0.983734
142, 2, wb, attraction, a-b-da, 9, 3, 6, 27, 186, 114, 120, 195, 195, 120, 1, 2.15807
142, 2, wb, attraction, a-b-da, 9, 3, 6, 27, 186, 114, 120, 195, 195, 120, 2, 0.654
142, 2, wb, attraction, a-b-da, 14, 2, 6, 28, 90, 165, 165, 90, 153, 83, 3, 1.86582
142, 2, wb, attraction, a-b-da, 14, 2, 6, 28, 90, 165, 165, 90, 153, 83, 1, 1.21379
142, 2, wb, attraction, a-b-da, 14, 3, 6, 29, 120, 195, 195, 120, 181, 111, 3, 2.58674
142, 2, wb, attraction, a-b-da, 14, 3, 6, 29, 120, 195, 195, 120, 181, 111, 1, 0.577916
142, 2, wb, attraction, a-b-da, 2, 1, 6, 30, 134, 59, 60, 135, 135, 60, 2, 4.87235
142, 2, wb, attraction, a-b-da, 2, 1, 6, 30, 134, 59, 60, 135, 135, 60, 3, 0.69879
142, 2, wb, catch, NA, 999, 999, 6, 31, 77, 118, 177, 138, 97, 158, 1, 0.860448
142, 2, wb, catch, NA, 999, 999, 6, 31, 77, 118, 177, 138, 97, 158, 2, 0.496878
142, 2, wb, filler, NA, 999, 999, 6, 32, 190, 58, 82, 123, 169, 108, 2, 2.29063
142, 2, wb, filler, NA, 999, 999, 6, 32, 190, 58, 82, 123, 169, 108, 3, 0.51727
142, 2, wb, attraction, a-b-db, 14, 3, 6, 33, 120, 195, 195, 120, 111, 181, 3, 3.71839
142, 2, wb, attraction, a-b-db, 14, 3, 6, 33, 120, 195, 195, 120, 111, 181, 1, 0.951787
142, 2, wb, attraction, a-b-da, 14, 1, 6, 34, 60, 135, 125, 56, 135, 60, 2, 1.76751
142, 2, wb, attraction, a-b-da, 14, 1, 6, 34, 60, 135, 125, 56, 135, 60, 1, 0.711527
142, 2, wb, attraction, a-b-db, 9, 1, 6, 35, 135, 60, 57, 129, 60, 135, 2, 3.06456
142, 2, wb, attraction, a-b-db, 9, 1, 6, 35, 135, 60, 57, 129, 60, 135, 3, 1.7483
142, 2, wb, filler, NA, 999, 999, 6, 36, 181, 73, 185, 94, 106, 160, 1, 1.5476
142, 2, wb, filler, NA, 999, 999, 6, 36, 181, 73, 185, 94, 106, 160, 3, 0.844575
142, 2, wb, filler, NA, 999, 999, 6, 37, 154, 194, 194, 80, 151, 157, 3, 2.34427
142, 2, wb, filler, NA, 999, 999, 6, 37, 154, 194, 194, 80, 151, 157, 1, 0.41684
142, 2, wb, attraction, a-b-da, 5, 1, 7, 1, 60, 135, 135, 60, 132, 58, 2, 2.22203
142, 2, wb, attraction, a-b-da, 5, 1, 7, 1, 60, 135, 135, 60, 132, 58, 1, 1.57119
142, 2, wb, attraction, a-b-da, 14, 3, 7, 2, 181, 111, 120, 195, 195, 120, 1, 2.12996
142, 2, wb, attraction, a-b-da, 14, 3, 7, 2, 181, 111, 120, 195, 195, 120, 2, 2.56325
142, 2, wb, filler, NA, 999, 999, 7, 3, 72, 190, 172, 88, 79, 75, 3, 0.745713
142, 2, wb, filler, NA, 999, 999, 7, 3, 72, 190, 172, 88, 79, 75, 2, 0.914863
142, 2, wb, filler, NA, 999, 999, 7, 4, 124, 74, 119, 183, 110, 81, 3, 1.20381
142, 2, wb, filler, NA, 999, 999, 7, 4, 124, 74, 119, 183, 110, 81, 2, 1.01013
142, 2, wb, attraction, a-b-db, 9, 3, 7, 5, 114, 186, 120, 195, 195, 120, 1, 2.00708
142, 2, wb, attraction, a-b-db, 9, 3, 7, 5, 114, 186, 120, 195, 195, 120, 2, 1.19703
142, 2, wb, filler, NA, 999, 999, 7, 6, 150, 152, 189, 157, 130, 111, 3, 1.58674
142, 2, wb, filler, NA, 999, 999, 7, 6, 150, 152, 189, 157, 130, 111, 2, 1.11413
142, 2, wb, attraction, a-b-db, 14, 2, 7, 7, 165, 90, 83, 153, 90, 165, 2, 2.30706
142, 2, wb, attraction, a-b-db, 14, 2, 7, 7, 165, 90, 83, 153, 90, 165, 1, 1.93293
142, 2, wb, filler, NA, 999, 999, 7, 8, 110, 109, 112, 150, 124, 146, 1, 1.46892
142, 2, wb, filler, NA, 999, 999, 7, 8, 110, 109, 112, 150, 124, 146, 2, 3.35317
142, 2, wb, attraction, a-b-da, 2, 1, 7, 9, 60, 135, 135, 60, 134, 59, 1, 4.07202
142, 2, wb, attraction, a-b-da, 2, 1, 7, 9, 60, 135, 135, 60, 134, 59, 2, 1.13869
142, 2, wb, filler, NA, 999, 999, 7, 10, 115, 128, 89, 94, 141, 170, 2, 1.16297
142, 2, wb, filler, NA, 999, 999, 7, 10, 115, 128, 89, 94, 141, 170, 3, 0.443257
142, 2, wb, attraction, a-b-da, 9, 1, 7, 11, 135, 60, 129, 57, 60, 135, 2, 2.68707
142, 2, wb, attraction, a-b-da, 9, 1, 7, 11, 135, 60, 129, 57, 60, 135, 1, 0.86617
142, 2, wb, filler, NA, 999, 999, 7, 12, 190, 125, 142, 159, 130, 147, 3, 1.73321
142, 2, wb, filler, NA, 999, 999, 7, 12, 190, 125, 142, 159, 130, 147, 2, 2.05467
142, 2, wb, attraction, a-b-da, 9, 2, 7, 13, 157, 86, 165, 90, 90, 165, 3, 5.08993
142, 2, wb, attraction, a-b-da, 9, 2, 7, 13, 157, 86, 165, 90, 90, 165, 2, 1.59562
142, 2, wb, filler, NA, 999, 999, 7, 14, 146, 170, 57, 126, 184, 72, 2, 0.993045
142, 2, wb, filler, NA, 999, 999, 7, 14, 146, 170, 57, 126, 184, 72, 1, 0.432006
142, 2, wb, attraction, a-b-db, 14, 3, 7, 15, 195, 120, 120, 195, 111, 181, 3, 2.18858
142, 2, wb, attraction, a-b-db, 14, 3, 7, 15, 195, 120, 120, 195, 111, 181, 1, 1.56325
142, 2, wb, attraction, a-b-db, 9, 2, 7, 16, 90, 165, 165, 90, 86, 157, 2, 4.66601
142, 2, wb, attraction, a-b-db, 9, 2, 7, 16, 90, 165, 165, 90, 86, 157, 1, 0.685115
142, 2, wb, attraction, a-b-db, 14, 1, 7, 17, 60, 135, 56, 125, 135, 60, 2, 2.84759
142, 2, wb, attraction, a-b-db, 14, 1, 7, 17, 60, 135, 56, 125, 135, 60, 1, 0.875936
142, 2, wb, attraction, a-b-db, 5, 2, 7, 18, 88, 161, 90, 165, 165, 90, 1, 2.37425
142, 2, wb, attraction, a-b-db, 5, 2, 7, 18, 88, 161, 90, 165, 165, 90, 3, 0.925517
142, 2, wb, attraction, a-b-da, 14, 2, 7, 19, 90, 165, 165, 90, 153, 83, 3, 3.48582
142, 2, wb, attraction, a-b-da, 14, 2, 7, 19, 90, 165, 165, 90, 153, 83, 1, 0.600686
142, 2, wb, attraction, a-b-db, 2, 2, 7, 20, 165, 90, 90, 165, 89, 163, 3, 7.66263
142, 2, wb, attraction, a-b-db, 2, 2, 7, 20, 165, 90, 90, 165, 89, 163, 2, 1.56869
142, 2, wb, catch, NA, 999, 999, 7, 21, 91, 104, 163, 152, 164, 91, 1, 0.967478
142, 2, wb, catch, NA, 999, 999, 7, 21, 91, 104, 163, 152, 164, 91, 2, 0.431896
142, 2, wb, catch, NA, 999, 999, 7, 22, 125, 70, 96, 159, 136, 179, 1, 1.54829
142, 2, wb, catch, NA, 999, 999, 7, 22, 125, 70, 96, 159, 136, 179, 3, 0.685156
142, 2, wb, attraction, a-b-da, 2, 3, 7, 23, 195, 120, 120, 195, 193, 119, 3, 7.2156
142, 2, wb, attraction, a-b-da, 2, 3, 7, 23, 195, 120, 120, 195, 193, 119, 2, 0.627935
142, 2, wb, attraction, a-b-db, 9, 1, 7, 24, 57, 129, 135, 60, 60, 135, 1, 2.17636
142, 2, wb, attraction, a-b-db, 9, 1, 7, 24, 57, 129, 135, 60, 60, 135, 3, 1.49567
142, 2, wb, attraction, a-b-da, 2, 2, 7, 25, 90, 165, 163, 89, 165, 90, 2, 5.65707
142, 2, wb, attraction, a-b-da, 2, 2, 7, 25, 90, 165, 163, 89, 165, 90, 3, 1.21196
142, 2, wb, filler, NA, 999, 999, 7, 26, 165, 159, 180, 120, 82, 171, 3, 1.44081
142, 2, wb, filler, NA, 999, 999, 7, 26, 165, 159, 180, 120, 82, 171, 1, 1.13379
142, 2, wb, attraction, a-b-da, 14, 1, 7, 27, 125, 56, 60, 135, 135, 60, 1, 2.7179
142, 2, wb, attraction, a-b-da, 14, 1, 7, 27, 125, 56, 60, 135, 135, 60, 2, 1.87174
142, 2, wb, filler, NA, 999, 999, 7, 28, 115, 98, 94, 72, 183, 150, 2, 1.03441
142, 2, wb, filler, NA, 999, 999, 7, 28, 115, 98, 94, 72, 183, 150, 3, 0.43207
142, 2, wb, catch, NA, 999, 999, 7, 29, 154, 161, 125, 70, 164, 91, 2, 1.53251
142, 2, wb, catch, NA, 999, 999, 7, 29, 154, 161, 125, 70, 164, 91, 1, 1.03009
142, 2, wb, attraction, a-b-db, 2, 1, 7, 30, 135, 60, 60, 135, 59, 134, 3, 3.10635
142, 2, wb, attraction, a-b-db, 2, 1, 7, 30, 135, 60, 60, 135, 59, 134, 2, 2.10004
142, 2, wb, attraction, a-b-db, 5, 1, 7, 31, 58, 132, 135, 60, 60, 135, 2, 3.12532
142, 2, wb, attraction, a-b-db, 5, 1, 7, 31, 58, 132, 135, 60, 60, 135, 3, 0.886368
142, 2, wb, attraction, a-b-da, 5, 2, 7, 32, 90, 165, 161, 88, 165, 90, 2, 3.4968
142, 2, wb, attraction, a-b-da, 5, 2, 7, 32, 90, 165, 161, 88, 165, 90, 1, 2.73086
142, 2, wb, attraction, a-b-da, 9, 3, 7, 33, 186, 114, 195, 120, 120, 195, 1, 7.61862
142, 2, wb, attraction, a-b-da, 9, 3, 7, 33, 186, 114, 195, 120, 120, 195, 2, 0.990847
142, 2, wb, attraction, a-b-db, 5, 3, 7, 34, 120, 195, 195, 120, 117, 190, 2, 2.46065
142, 2, wb, attraction, a-b-db, 5, 3, 7, 34, 120, 195, 195, 120, 117, 190, 1, 0.608383
142, 2, wb, filler, NA, 999, 999, 7, 35, 62, 85, 119, 67, 56, 92, 1, 1.12538
142, 2, wb, filler, NA, 999, 999, 7, 35, 62, 85, 119, 67, 56, 92, 2, 0.783053
142, 2, wb, attraction, a-b-da, 5, 3, 7, 36, 195, 120, 190, 117, 120, 195, 2, 2.3494
142, 2, wb, attraction, a-b-da, 5, 3, 7, 36, 195, 120, 190, 117, 120, 195, 1, 1.36606
142, 2, wb, attraction, a-b-db, 2, 3, 7, 37, 120, 195, 195, 120, 119, 193, 2, 6.06886
142, 2, wb, attraction, a-b-db, 2, 3, 7, 37, 120, 195, 195, 120, 119, 193, 1, 0.6076
142, 2, wb, filler, NA, 999, 999, 8, 1, 129, 117, 187, 155, 105, 67, 3, 0.884663
142, 2, wb, filler, NA, 999, 999, 8, 1, 129, 117, 187, 155, 105, 67, 2, 0.328402
142, 2, wb, attraction, a-b-da, 5, 1, 8, 2, 132, 58, 60, 135, 135, 60, 2, 4.19287
142, 2, wb, attraction, a-b-da, 5, 1, 8, 2, 132, 58, 60, 135, 135, 60, 1, 0.982872
142, 2, wb, filler, NA, 999, 999, 8, 3, 140, 108, 186, 182, 131, 115, 1, 1.15718
142, 2, wb, filler, NA, 999, 999, 8, 3, 140, 108, 186, 182, 131, 115, 2, 0.557431
142, 2, wb, attraction, a-b-da, 14, 3, 8, 4, 195, 120, 181, 111, 120, 195, 2, 3.97257
142, 2, wb, attraction, a-b-da, 14, 3, 8, 4, 195, 120, 181, 111, 120, 195, 1, 2.13134
142, 2, wb, catch, NA, 999, 999, 8, 5, 128, 67, 160, 95, 123, 192, 1, 1.71528
142, 2, wb, catch, NA, 999, 999, 8, 5, 128, 67, 160, 95, 123, 192, 3, 0.581449
142, 2, wb, filler, NA, 999, 999, 8, 6, 190, 165, 108, 185, 87, 90, 3, 0.915744
142, 2, wb, filler, NA, 999, 999, 8, 6, 190, 165, 108, 185, 87, 90, 1, 0.470118
142, 2, wb, attraction, a-b-db, 5, 1, 8, 7, 58, 132, 135, 60, 60, 135, 1, 2.62529
142, 2, wb, attraction, a-b-db, 5, 1, 8, 7, 58, 132, 135, 60, 60, 135, 3, 1.06244
142, 2, wb, attraction, a-b-db, 5, 3, 8, 8, 120, 195, 117, 190, 195, 120, 2, 2.32935
142, 2, wb, attraction, a-b-db, 5, 3, 8, 8, 120, 195, 117, 190, 195, 120, 1, 3.08269
142, 2, wb, attraction, a-b-db, 9, 1, 8, 9, 57, 129, 60, 135, 135, 60, 2, 3.64422
142, 2, wb, attraction, a-b-db, 9, 1, 8, 9, 57, 129, 60, 135, 135, 60, 1, 0.56851
142, 2, wb, attraction, a-b-da, 9, 1, 8, 10, 60, 135, 129, 57, 135, 60, 2, 1.45556
142, 2, wb, attraction, a-b-da, 9, 1, 8, 10, 60, 135, 129, 57, 135, 60, 1, 1.6117
142, 2, wb, filler, NA, 999, 999, 8, 11, 79, 133, 177, 83, 191, 90, 1, 0.752424
142, 2, wb, filler, NA, 999, 999, 8, 11, 79, 133, 177, 83, 191, 90, 3, 3.03353
142, 2, wb, filler, NA, 999, 999, 8, 12, 138, 157, 129, 169, 71, 171, 3, 1.3492
142, 2, wb, filler, NA, 999, 999, 8, 12, 138, 157, 129, 169, 71, 171, 1, 2.31815
142, 2, wb, attraction, a-b-db, 9, 3, 8, 13, 195, 120, 120, 195, 114, 186, 3, 1.07065
142, 2, wb, attraction, a-b-db, 9, 3, 8, 13, 195, 120, 120, 195, 114, 186, 2, 1.26694
142, 2, wb, catch, NA, 999, 999, 8, 14, 77, 118, 107, 148, 126, 189, 1, 3.40582
142, 2, wb, catch, NA, 999, 999, 8, 14, 77, 118, 107, 148, 126, 189, 3, 0.571441
142, 2, wb, attraction, a-b-db, 2, 3, 8, 15, 195, 120, 119, 193, 120, 195, 3, 2.03453
142, 2, wb, attraction, a-b-db, 2, 3, 8, 15, 195, 120, 119, 193, 120, 195, 2, 1.25581
142, 2, wb, attraction, a-b-da, 9, 2, 8, 16, 165, 90, 157, 86, 90, 165, 2, 1.89138
142, 2, wb, attraction, a-b-da, 9, 2, 8, 16, 165, 90, 157, 86, 90, 165, 1, 2.33405
142, 2, wb, attraction, a-b-da, 2, 2, 8, 17, 165, 90, 163, 89, 90, 165, 3, 2.99814
142, 2, wb, attraction, a-b-da, 2, 2, 8, 17, 165, 90, 163, 89, 90, 165, 1, 1.61229
142, 2, wb, attraction, a-b-da, 2, 3, 8, 18, 195, 120, 193, 119, 120, 195, 2, 2.86525
142, 2, wb, attraction, a-b-da, 2, 3, 8, 18, 195, 120, 193, 119, 120, 195, 1, 1.1808
142, 2, wb, filler, NA, 999, 999, 8, 19, 194, 69, 192, 103, 154, 160, 1, 3.94711
142, 2, wb, filler, NA, 999, 999, 8, 19, 194, 69, 192, 103, 154, 160, 3, 2.3312
142, 2, wb, attraction, a-b-db, 9, 2, 8, 20, 90, 165, 86, 157, 165, 90, 2, 1.77103
142, 2, wb, attraction, a-b-db, 9, 2, 8, 20, 90, 165, 86, 157, 165, 90, 3, 0.97844
142, 2, wb, attraction, a-b-da, 5, 2, 8, 21, 165, 90, 161, 88, 90, 165, 3, 2.09681
142, 2, wb, attraction, a-b-da, 5, 2, 8, 21, 165, 90, 161, 88, 90, 165, 2, 1.17145
142, 2, wb, attraction, a-b-da, 2, 1, 8, 22, 135, 60, 60, 135, 134, 59, 2, 3.29034
142, 2, wb, attraction, a-b-da, 2, 1, 8, 22, 135, 60, 60, 135, 134, 59, 1, 0.63657
142, 2, wb, filler, NA, 999, 999, 8, 23, 91, 138, 129, 149, 128, 105, 1, 1.13702
142, 2, wb, filler, NA, 999, 999, 8, 23, 91, 138, 129, 149, 128, 105, 2, 0.466636
142, 2, wb, attraction, a-b-db, 14, 1, 8, 24, 56, 125, 135, 60, 60, 135, 1, 1.71781
142, 2, wb, attraction, a-b-db, 14, 1, 8, 24, 56, 125, 135, 60, 60, 135, 3, 0.583886
142, 2, wb, attraction, a-b-db, 2, 1, 8, 25, 60, 135, 135, 60, 59, 134, 2, 2.99836
142, 2, wb, attraction, a-b-db, 2, 1, 8, 25, 60, 135, 135, 60, 59, 134, 3, 0.852851
142, 2, wb, catch, NA, 999, 999, 8, 26, 136, 119, 132, 63, 129, 186, 2, 1.20853
142, 2, wb, catch, NA, 999, 999, 8, 26, 136, 119, 132, 63, 129, 186, 3, 0.52657
142, 2, wb, filler, NA, 999, 999, 8, 27, 78, 128, 120, 96, 87, 61, 3, 1.25497
142, 2, wb, filler, NA, 999, 999, 8, 27, 78, 128, 120, 96, 87, 61, 1, 2.55534
142, 2, wb, attraction, a-b-da, 9, 3, 8, 28, 186, 114, 195, 120, 120, 195, 1, 3.59458
142, 2, wb, attraction, a-b-da, 9, 3, 8, 28, 186, 114, 195, 120, 120, 195, 3, 0.400621
142, 2, wb, filler, NA, 999, 999, 8, 29, 108, 61, 59, 82, 120, 77, 2, 0.806379
142, 2, wb, filler, NA, 999, 999, 8, 29, 108, 61, 59, 82, 120, 77, 3, 0.42087
142, 2, wb, attraction, a-b-db, 14, 2, 8, 30, 165, 90, 83, 153, 90, 165, 2, 4.96201
142, 2, wb, attraction, a-b-db, 14, 2, 8, 30, 165, 90, 83, 153, 90, 165, 1, 1.31304
142, 2, wb, attraction, a-b-da, 14, 1, 8, 31, 60, 135, 125, 56, 135, 60, 2, 2.96207
142, 2, wb, attraction, a-b-da, 14, 1, 8, 31, 60, 135, 125, 56, 135, 60, 1, 0.633574
142, 2, wb, attraction, a-b-db, 14, 3, 8, 32, 195, 120, 111, 181, 120, 195, 2, 1.31006
142, 2, wb, attraction, a-b-db, 14, 3, 8, 32, 195, 120, 111, 181, 120, 195, 3, 1.01625
142, 2, wb, attraction, a-b-da, 14, 2, 8, 33, 90, 165, 165, 90, 153, 83, 2, 3.52535
142, 2, wb, attraction, a-b-da, 14, 2, 8, 33, 90, 165, 165, 90, 153, 83, 1, 0.598142
142, 2, wb, attraction, a-b-db, 5, 2, 8, 34, 88, 161, 165, 90, 90, 165, 1, 3.6039
142, 2, wb, attraction, a-b-db, 5, 2, 8, 34, 88, 161, 165, 90, 90, 165, 3, 0.57807
142, 2, wb, filler, NA, 999, 999, 8, 35, 194, 175, 62, 97, 119, 133, 2, 0.736491
142, 2, wb, filler, NA, 999, 999, 8, 35, 194, 175, 62, 97, 119, 133, 1, 0.322234
142, 2, wb, attraction, a-b-db, 2, 2, 8, 36, 90, 165, 165, 90, 89, 163, 1, 3.93141
142, 2, wb, attraction, a-b-db, 2, 2, 8, 36, 90, 165, 165, 90, 89, 163, 3, 0.444183
142, 2, wb, attraction, a-b-da, 5, 3, 8, 37, 120, 195, 195, 120, 190, 117, 2, 1.58395
142, 2, wb, attraction, a-b-da, 5, 3, 8, 37, 120, 195, 195, 120, 190, 117, 1, 1.31137
