sub_n, computer_n, bw_cond, effect, set, distance, diag, block_n, trial_n, h1, w1, h2, w2, h3, w3, choice, rt 
108, 2, wb, practice, NA, 999, 999, 0, 1, 99, 108, 93, 125, 159, 77, 1, 2.05508
108, 2, wb, practice, NA, 999, 999, 0, 1, 99, 108, 93, 125, 159, 77, 3, 1.47535
108, 2, wb, practice, NA, 999, 999, 0, 2, 61, 146, 92, 61, 101, 194, 2, 2.73303
108, 2, wb, practice, NA, 999, 999, 0, 2, 61, 146, 92, 61, 101, 194, 3, 0.693728
108, 2, wb, practice, NA, 999, 999, 0, 3, 135, 111, 153, 195, 113, 132, 3, 2.44516
108, 2, wb, practice, NA, 999, 999, 0, 3, 135, 111, 153, 195, 113, 132, 2, 0.534898
108, 2, wb, attraction, a-b-db, 2, 1, 1, 1, 135, 60, 60, 135, 59, 134, 3, 4.71011
108, 2, wb, attraction, a-b-db, 2, 1, 1, 1, 135, 60, 60, 135, 59, 134, 1, 1.61533
108, 2, wb, attraction, a-b-da, 14, 2, 1, 2, 153, 83, 165, 90, 90, 165, 1, 2.86821
108, 2, wb, attraction, a-b-da, 14, 2, 1, 2, 153, 83, 165, 90, 90, 165, 3, 0.799863
108, 2, wb, filler, NA, 999, 999, 1, 3, 136, 186, 94, 163, 182, 185, 2, 1.16555
108, 2, wb, filler, NA, 999, 999, 1, 3, 136, 186, 94, 163, 182, 185, 3, 0.58978
108, 2, wb, attraction, a-b-da, 2, 3, 1, 4, 120, 195, 193, 119, 195, 120, 1, 2.07566
108, 2, wb, attraction, a-b-da, 2, 3, 1, 4, 120, 195, 193, 119, 195, 120, 2, 1.28691
108, 2, wb, filler, NA, 999, 999, 1, 5, 117, 94, 63, 175, 151, 148, 1, 1.4331
108, 2, wb, filler, NA, 999, 999, 1, 5, 117, 94, 63, 175, 151, 148, 3, 0.510714
108, 2, wb, attraction, a-b-da, 5, 3, 1, 6, 190, 117, 195, 120, 120, 195, 3, 1.79973
108, 2, wb, attraction, a-b-da, 5, 3, 1, 6, 190, 117, 195, 120, 120, 195, 2, 1.4706
108, 2, wb, attraction, a-b-da, 2, 1, 1, 7, 135, 60, 60, 135, 134, 59, 2, 2.9452
108, 2, wb, attraction, a-b-da, 2, 1, 1, 7, 135, 60, 60, 135, 134, 59, 3, 0.465617
108, 2, wb, catch, NA, 999, 999, 1, 8, 179, 136, 94, 101, 146, 109, 2, 1.04475
108, 2, wb, catch, NA, 999, 999, 1, 8, 179, 136, 94, 101, 146, 109, 1, 0.441747
108, 2, wb, filler, NA, 999, 999, 1, 9, 90, 188, 98, 184, 72, 83, 3, 1.07774
108, 2, wb, filler, NA, 999, 999, 1, 9, 90, 188, 98, 184, 72, 83, 1, 0.601374
108, 2, wb, filler, NA, 999, 999, 1, 10, 136, 172, 186, 193, 175, 129, 1, 1.01501
108, 2, wb, filler, NA, 999, 999, 1, 10, 136, 172, 186, 193, 175, 129, 2, 0.941401
108, 2, wb, filler, NA, 999, 999, 1, 11, 160, 175, 160, 135, 69, 99, 3, 0.588871
108, 2, wb, filler, NA, 999, 999, 1, 11, 160, 175, 160, 135, 69, 99, 1, 0.620086
108, 2, wb, filler, NA, 999, 999, 1, 12, 72, 123, 113, 103, 125, 58, 3, 1.88118
108, 2, wb, filler, NA, 999, 999, 1, 12, 72, 123, 113, 103, 125, 58, 2, 0.43661
108, 2, wb, attraction, a-b-db, 14, 1, 1, 13, 60, 135, 56, 125, 135, 60, 2, 1.32902
108, 2, wb, attraction, a-b-db, 14, 1, 1, 13, 60, 135, 56, 125, 135, 60, 3, 0.698785
108, 2, wb, attraction, a-b-db, 9, 2, 1, 14, 90, 165, 165, 90, 86, 157, 2, 1.4523
108, 2, wb, attraction, a-b-db, 9, 2, 1, 14, 90, 165, 165, 90, 86, 157, 3, 0.441108
108, 2, wb, attraction, a-b-da, 9, 3, 1, 15, 120, 195, 195, 120, 186, 114, 1, 1.3809
108, 2, wb, attraction, a-b-da, 9, 3, 1, 15, 120, 195, 195, 120, 186, 114, 2, 0.388447
108, 2, wb, attraction, a-b-db, 2, 2, 1, 16, 90, 165, 165, 90, 89, 163, 2, 1.19497
108, 2, wb, attraction, a-b-db, 2, 2, 1, 16, 90, 165, 165, 90, 89, 163, 3, 0.337922
108, 2, wb, attraction, a-b-da, 5, 1, 1, 17, 60, 135, 132, 58, 135, 60, 2, 0.978453
108, 2, wb, attraction, a-b-da, 5, 1, 1, 17, 60, 135, 132, 58, 135, 60, 3, 0.418082
108, 2, wb, attraction, a-b-db, 5, 2, 1, 18, 165, 90, 88, 161, 90, 165, 2, 0.823202
108, 2, wb, attraction, a-b-db, 5, 2, 1, 18, 165, 90, 88, 161, 90, 165, 3, 0.356949
108, 2, wb, filler, NA, 999, 999, 1, 19, 140, 167, 68, 148, 180, 181, 2, 0.772106
108, 2, wb, filler, NA, 999, 999, 1, 19, 140, 167, 68, 148, 180, 181, 3, 0.355813
108, 2, wb, attraction, a-b-da, 2, 2, 1, 20, 165, 90, 90, 165, 163, 89, 2, 1.31574
108, 2, wb, attraction, a-b-da, 2, 2, 1, 20, 165, 90, 90, 165, 163, 89, 1, 0.59788
108, 2, wb, attraction, a-b-da, 14, 1, 1, 21, 60, 135, 125, 56, 135, 60, 2, 1.13178
108, 2, wb, attraction, a-b-da, 14, 1, 1, 21, 60, 135, 125, 56, 135, 60, 1, 1.17332
108, 2, wb, attraction, a-b-db, 9, 3, 1, 22, 120, 195, 195, 120, 114, 186, 3, 1.97952
108, 2, wb, attraction, a-b-db, 9, 3, 1, 22, 120, 195, 195, 120, 114, 186, 1, 1.09081
108, 2, wb, attraction, a-b-db, 5, 1, 1, 23, 58, 132, 60, 135, 135, 60, 2, 1.01256
108, 2, wb, attraction, a-b-db, 5, 1, 1, 23, 58, 132, 60, 135, 135, 60, 1, 0.522742
108, 2, wb, attraction, a-b-da, 14, 3, 1, 24, 195, 120, 120, 195, 181, 111, 2, 2.53924
108, 2, wb, attraction, a-b-da, 14, 3, 1, 24, 195, 120, 120, 195, 181, 111, 1, 0.395682
108, 2, wb, filler, NA, 999, 999, 1, 25, 67, 95, 161, 77, 142, 169, 1, 0.649542
108, 2, wb, filler, NA, 999, 999, 1, 25, 67, 95, 161, 77, 142, 169, 3, 0.302667
108, 2, wb, catch, NA, 999, 999, 1, 26, 159, 96, 112, 83, 178, 137, 2, 0.552432
108, 2, wb, catch, NA, 999, 999, 1, 26, 159, 96, 112, 83, 178, 137, 3, 0.313697
108, 2, wb, attraction, a-b-db, 14, 3, 1, 27, 111, 181, 195, 120, 120, 195, 1, 0.906814
108, 2, wb, attraction, a-b-db, 14, 3, 1, 27, 111, 181, 195, 120, 120, 195, 2, 0.373133
108, 2, wb, attraction, a-b-db, 5, 3, 1, 28, 120, 195, 195, 120, 117, 190, 1, 0.94762
108, 2, wb, attraction, a-b-db, 5, 3, 1, 28, 120, 195, 195, 120, 117, 190, 2, 0.316626
108, 2, wb, attraction, a-b-db, 2, 3, 1, 29, 120, 195, 119, 193, 195, 120, 2, 3.26989
108, 2, wb, attraction, a-b-db, 2, 3, 1, 29, 120, 195, 119, 193, 195, 120, 3, 0.385524
108, 2, wb, attraction, a-b-da, 9, 2, 1, 30, 157, 86, 90, 165, 165, 90, 1, 0.583941
108, 2, wb, attraction, a-b-da, 9, 2, 1, 30, 157, 86, 90, 165, 165, 90, 2, 0.511918
108, 2, wb, catch, NA, 999, 999, 1, 31, 124, 131, 97, 98, 168, 147, 2, 0.880852
108, 2, wb, catch, NA, 999, 999, 1, 31, 124, 131, 97, 98, 168, 147, 3, 0.220546
108, 2, wb, attraction, a-b-da, 5, 2, 1, 32, 90, 165, 161, 88, 165, 90, 2, 0.9778
108, 2, wb, attraction, a-b-da, 5, 2, 1, 32, 90, 165, 161, 88, 165, 90, 3, 0.393525
108, 2, wb, filler, NA, 999, 999, 1, 33, 185, 137, 57, 87, 158, 136, 2, 0.455326
108, 2, wb, filler, NA, 999, 999, 1, 33, 185, 137, 57, 87, 158, 136, 1, 0.331697
108, 2, wb, filler, NA, 999, 999, 1, 34, 119, 75, 76, 190, 83, 96, 1, 1.66826
108, 2, wb, filler, NA, 999, 999, 1, 34, 119, 75, 76, 190, 83, 96, 2, 0.368372
108, 2, wb, attraction, a-b-da, 9, 1, 1, 35, 129, 57, 135, 60, 60, 135, 1, 2.25568
108, 2, wb, attraction, a-b-da, 9, 1, 1, 35, 129, 57, 135, 60, 60, 135, 2, 0.443433
108, 2, wb, attraction, a-b-db, 14, 2, 1, 36, 83, 153, 90, 165, 165, 90, 1, 1.02324
108, 2, wb, attraction, a-b-db, 14, 2, 1, 36, 83, 153, 90, 165, 165, 90, 3, 1.54104
108, 2, wb, attraction, a-b-db, 9, 1, 1, 37, 57, 129, 60, 135, 135, 60, 2, 0.668343
108, 2, wb, attraction, a-b-db, 9, 1, 1, 37, 57, 129, 60, 135, 135, 60, 3, 2.95283
108, 2, wb, attraction, a-b-db, 14, 2, 2, 1, 83, 153, 165, 90, 90, 165, 1, 1.2718
108, 2, wb, attraction, a-b-db, 14, 2, 2, 1, 83, 153, 165, 90, 90, 165, 2, 0.371374
108, 2, wb, attraction, a-b-da, 2, 3, 2, 2, 195, 120, 120, 195, 193, 119, 1, 1.2506
108, 2, wb, attraction, a-b-da, 2, 3, 2, 2, 195, 120, 120, 195, 193, 119, 2, 0.367579
108, 2, wb, filler, NA, 999, 999, 2, 3, 82, 130, 143, 173, 95, 105, 1, 0.670632
108, 2, wb, filler, NA, 999, 999, 2, 3, 82, 130, 143, 173, 95, 105, 2, 0.37837
108, 2, wb, catch, NA, 999, 999, 2, 4, 76, 119, 90, 165, 137, 178, 1, 0.504962
108, 2, wb, catch, NA, 999, 999, 2, 4, 76, 119, 90, 165, 137, 178, 3, 0.355359
108, 2, wb, catch, NA, 999, 999, 2, 5, 83, 112, 188, 127, 146, 109, 1, 0.419191
108, 2, wb, catch, NA, 999, 999, 2, 5, 83, 112, 188, 127, 146, 109, 2, 0.345721
108, 2, wb, filler, NA, 999, 999, 2, 6, 95, 83, 75, 115, 138, 70, 1, 0.641599
108, 2, wb, filler, NA, 999, 999, 2, 6, 95, 83, 75, 115, 138, 70, 2, 0.790693
108, 2, wb, attraction, a-b-da, 2, 2, 2, 7, 165, 90, 163, 89, 90, 165, 2, 1.6443
108, 2, wb, attraction, a-b-da, 2, 2, 2, 7, 165, 90, 163, 89, 90, 165, 1, 0.329229
108, 2, wb, attraction, a-b-da, 14, 1, 2, 8, 125, 56, 135, 60, 60, 135, 1, 0.705655
108, 2, wb, attraction, a-b-da, 14, 1, 2, 8, 125, 56, 135, 60, 60, 135, 3, 0.460164
108, 2, wb, attraction, a-b-da, 9, 2, 2, 9, 157, 86, 165, 90, 90, 165, 1, 1.06319
108, 2, wb, attraction, a-b-da, 9, 2, 2, 9, 157, 86, 165, 90, 90, 165, 2, 0.307705
108, 2, wb, filler, NA, 999, 999, 2, 10, 171, 183, 120, 170, 66, 126, 3, 0.99684
108, 2, wb, filler, NA, 999, 999, 2, 10, 171, 183, 120, 170, 66, 126, 1, 0.307625
108, 2, wb, attraction, a-b-da, 14, 3, 2, 11, 181, 111, 120, 195, 195, 120, 1, 0.748858
108, 2, wb, attraction, a-b-da, 14, 3, 2, 11, 181, 111, 120, 195, 195, 120, 2, 0.406055
108, 2, wb, attraction, a-b-da, 14, 2, 2, 12, 165, 90, 153, 83, 90, 165, 1, 1.57112
108, 2, wb, attraction, a-b-da, 14, 2, 2, 12, 165, 90, 153, 83, 90, 165, 3, 0.514609
108, 2, wb, attraction, a-b-db, 9, 2, 2, 13, 165, 90, 90, 165, 86, 157, 1, 1.26766
108, 2, wb, attraction, a-b-db, 9, 2, 2, 13, 165, 90, 90, 165, 86, 157, 2, 1.12795
108, 2, wb, attraction, a-b-db, 9, 1, 2, 14, 57, 129, 135, 60, 60, 135, 1, 0.768167
108, 2, wb, attraction, a-b-db, 9, 1, 2, 14, 57, 129, 135, 60, 60, 135, 3, 1.66459
108, 2, wb, filler, NA, 999, 999, 2, 15, 185, 71, 129, 77, 185, 167, 1, 1.03543
108, 2, wb, filler, NA, 999, 999, 2, 15, 185, 71, 129, 77, 185, 167, 2, 1.28105
108, 2, wb, attraction, a-b-db, 5, 1, 2, 16, 60, 135, 135, 60, 58, 132, 2, 2.19514
108, 2, wb, attraction, a-b-db, 5, 1, 2, 16, 60, 135, 135, 60, 58, 132, 1, 0.369803
108, 2, wb, filler, NA, 999, 999, 2, 17, 154, 137, 130, 110, 117, 90, 3, 0.808937
108, 2, wb, filler, NA, 999, 999, 2, 17, 154, 137, 130, 110, 117, 90, 1, 0.407343
108, 2, wb, attraction, a-b-db, 9, 3, 2, 18, 120, 195, 114, 186, 195, 120, 2, 1.70852
108, 2, wb, attraction, a-b-db, 9, 3, 2, 18, 120, 195, 114, 186, 195, 120, 3, 0.286569
108, 2, wb, attraction, a-b-db, 5, 2, 2, 19, 165, 90, 88, 161, 90, 165, 1, 0.961047
108, 2, wb, attraction, a-b-db, 5, 2, 2, 19, 165, 90, 88, 161, 90, 165, 2, 0.377577
108, 2, wb, attraction, a-b-da, 9, 3, 2, 20, 195, 120, 120, 195, 186, 114, 1, 1.47997
108, 2, wb, attraction, a-b-da, 9, 3, 2, 20, 195, 120, 120, 195, 186, 114, 2, 0.363554
108, 2, wb, attraction, a-b-db, 2, 3, 2, 21, 119, 193, 195, 120, 120, 195, 2, 1.46665
108, 2, wb, attraction, a-b-db, 2, 3, 2, 21, 119, 193, 195, 120, 120, 195, 3, 0.326852
108, 2, wb, attraction, a-b-db, 14, 3, 2, 22, 120, 195, 195, 120, 111, 181, 3, 1.79141
108, 2, wb, attraction, a-b-db, 14, 3, 2, 22, 120, 195, 195, 120, 111, 181, 2, 0.702018
108, 2, wb, filler, NA, 999, 999, 2, 23, 105, 79, 193, 169, 67, 73, 3, 0.623758
108, 2, wb, filler, NA, 999, 999, 2, 23, 105, 79, 193, 169, 67, 73, 2, 0.357542
108, 2, wb, attraction, a-b-da, 9, 1, 2, 24, 135, 60, 60, 135, 129, 57, 1, 1.71672
108, 2, wb, attraction, a-b-da, 9, 1, 2, 24, 135, 60, 60, 135, 129, 57, 2, 3.55876
108, 2, wb, filler, NA, 999, 999, 2, 25, 63, 121, 177, 129, 192, 93, 1, 0.788909
108, 2, wb, filler, NA, 999, 999, 2, 25, 63, 121, 177, 129, 192, 93, 2, 0.444188
108, 2, wb, attraction, a-b-db, 5, 3, 2, 26, 195, 120, 117, 190, 120, 195, 2, 2.01579
108, 2, wb, attraction, a-b-db, 5, 3, 2, 26, 195, 120, 117, 190, 120, 195, 1, 0.949831
108, 2, wb, attraction, a-b-da, 5, 1, 2, 27, 60, 135, 132, 58, 135, 60, 2, 0.741618
108, 2, wb, attraction, a-b-da, 5, 1, 2, 27, 60, 135, 132, 58, 135, 60, 3, 0.334568
108, 2, wb, attraction, a-b-db, 14, 1, 2, 28, 60, 135, 56, 125, 135, 60, 2, 0.455143
108, 2, wb, attraction, a-b-db, 14, 1, 2, 28, 60, 135, 56, 125, 135, 60, 3, 0.323551
108, 2, wb, filler, NA, 999, 999, 2, 29, 131, 162, 73, 170, 170, 165, 2, 0.420076
108, 2, wb, filler, NA, 999, 999, 2, 29, 131, 162, 73, 170, 170, 165, 3, 0.282054
108, 2, wb, catch, NA, 999, 999, 2, 30, 154, 161, 102, 93, 101, 154, 2, 0.500403
108, 2, wb, catch, NA, 999, 999, 2, 30, 154, 161, 102, 93, 101, 154, 1, 0.327716
108, 2, wb, attraction, a-b-da, 5, 3, 2, 31, 120, 195, 190, 117, 195, 120, 1, 1.52802
108, 2, wb, attraction, a-b-da, 5, 3, 2, 31, 120, 195, 190, 117, 195, 120, 3, 0.561669
108, 2, wb, attraction, a-b-da, 5, 2, 2, 32, 161, 88, 165, 90, 90, 165, 2, 0.480679
108, 2, wb, attraction, a-b-da, 5, 2, 2, 32, 161, 88, 165, 90, 90, 165, 3, 0.684522
108, 2, wb, attraction, a-b-db, 2, 2, 2, 33, 90, 165, 165, 90, 89, 163, 2, 0.494858
108, 2, wb, attraction, a-b-db, 2, 2, 2, 33, 90, 165, 165, 90, 89, 163, 3, 0.330089
108, 2, wb, filler, NA, 999, 999, 2, 34, 173, 121, 69, 112, 137, 60, 2, 0.474653
108, 2, wb, filler, NA, 999, 999, 2, 34, 173, 121, 69, 112, 137, 60, 1, 0.28639
108, 2, wb, attraction, a-b-db, 2, 1, 2, 35, 59, 134, 135, 60, 60, 135, 2, 0.784953
108, 2, wb, attraction, a-b-db, 2, 1, 2, 35, 59, 134, 135, 60, 60, 135, 1, 0.664655
108, 2, wb, filler, NA, 999, 999, 2, 36, 144, 85, 142, 169, 168, 187, 1, 0.739611
108, 2, wb, filler, NA, 999, 999, 2, 36, 144, 85, 142, 169, 168, 187, 3, 0.332886
108, 2, wb, attraction, a-b-da, 2, 1, 2, 37, 135, 60, 60, 135, 134, 59, 1, 0.677298
108, 2, wb, attraction, a-b-da, 2, 1, 2, 37, 135, 60, 60, 135, 134, 59, 2, 0.609136
108, 2, wb, filler, NA, 999, 999, 3, 1, 146, 99, 147, 132, 61, 93, 3, 0.774145
108, 2, wb, filler, NA, 999, 999, 3, 1, 146, 99, 147, 132, 61, 93, 2, 0.253831
108, 2, wb, catch, NA, 999, 999, 3, 2, 155, 160, 73, 122, 151, 104, 2, 0.609743
108, 2, wb, catch, NA, 999, 999, 3, 2, 155, 160, 73, 122, 151, 104, 1, 0.296165
108, 2, wb, attraction, a-b-db, 14, 3, 3, 3, 111, 181, 120, 195, 195, 120, 1, 1.43402
108, 2, wb, attraction, a-b-db, 14, 3, 3, 3, 111, 181, 120, 195, 195, 120, 2, 0.263606
108, 2, wb, attraction, a-b-da, 2, 2, 3, 4, 165, 90, 163, 89, 90, 165, 2, 0.794767
108, 2, wb, attraction, a-b-da, 2, 2, 3, 4, 165, 90, 163, 89, 90, 165, 1, 0.24179
108, 2, wb, attraction, a-b-db, 2, 3, 3, 5, 119, 193, 120, 195, 195, 120, 2, 3.09367
108, 2, wb, attraction, a-b-db, 2, 3, 3, 5, 119, 193, 120, 195, 195, 120, 3, 0.439969
108, 2, wb, attraction, a-b-da, 5, 2, 3, 6, 161, 88, 165, 90, 90, 165, 2, 0.987793
108, 2, wb, attraction, a-b-da, 5, 2, 3, 6, 161, 88, 165, 90, 90, 165, 1, 0.914897
108, 2, wb, filler, NA, 999, 999, 3, 7, 116, 60, 57, 57, 121, 118, 2, 1.5398
108, 2, wb, filler, NA, 999, 999, 3, 7, 116, 60, 57, 57, 121, 118, 3, 0.54865
108, 2, wb, attraction, a-b-db, 14, 1, 3, 8, 56, 125, 60, 135, 135, 60, 1, 0.988395
108, 2, wb, attraction, a-b-db, 14, 1, 3, 8, 56, 125, 60, 135, 135, 60, 2, 0.355282
108, 2, wb, attraction, a-b-da, 2, 3, 3, 9, 193, 119, 120, 195, 195, 120, 1, 1.14715
108, 2, wb, attraction, a-b-da, 2, 3, 3, 9, 193, 119, 120, 195, 195, 120, 2, 0.284241
108, 2, wb, filler, NA, 999, 999, 3, 10, 72, 68, 141, 68, 127, 85, 1, 1.33461
108, 2, wb, filler, NA, 999, 999, 3, 10, 72, 68, 141, 68, 127, 85, 3, 0.352265
108, 2, wb, attraction, a-b-da, 5, 3, 3, 11, 190, 117, 195, 120, 120, 195, 3, 2.64011
108, 2, wb, attraction, a-b-da, 5, 3, 3, 11, 190, 117, 195, 120, 120, 195, 2, 0.724619
108, 2, wb, filler, NA, 999, 999, 3, 12, 114, 85, 129, 77, 87, 66, 3, 0.556893
108, 2, wb, filler, NA, 999, 999, 3, 12, 114, 85, 129, 77, 87, 66, 2, 0.501432
108, 2, wb, filler, NA, 999, 999, 3, 13, 116, 99, 143, 141, 60, 189, 3, 0.663126
108, 2, wb, filler, NA, 999, 999, 3, 13, 116, 99, 143, 141, 60, 189, 2, 0.987716
108, 2, wb, attraction, a-b-db, 9, 3, 3, 14, 120, 195, 114, 186, 195, 120, 1, 1.04189
108, 2, wb, attraction, a-b-db, 9, 3, 3, 14, 120, 195, 114, 186, 195, 120, 3, 1.071
108, 2, wb, attraction, a-b-db, 5, 3, 3, 15, 117, 190, 120, 195, 195, 120, 3, 1.90577
108, 2, wb, attraction, a-b-db, 5, 3, 3, 15, 117, 190, 120, 195, 195, 120, 2, 0.339971
108, 2, wb, attraction, a-b-db, 2, 2, 3, 16, 90, 165, 165, 90, 89, 163, 3, 0.795663
108, 2, wb, attraction, a-b-db, 2, 2, 3, 16, 90, 165, 165, 90, 89, 163, 2, 0.634881
108, 2, wb, filler, NA, 999, 999, 3, 17, 101, 126, 85, 111, 186, 193, 2, 0.839303
108, 2, wb, filler, NA, 999, 999, 3, 17, 101, 126, 85, 111, 186, 193, 3, 0.324247
108, 2, wb, attraction, a-b-da, 14, 1, 3, 18, 135, 60, 125, 56, 60, 135, 3, 0.692737
108, 2, wb, attraction, a-b-da, 14, 1, 3, 18, 135, 60, 125, 56, 60, 135, 2, 0.775746
108, 2, wb, filler, NA, 999, 999, 3, 19, 165, 102, 173, 75, 98, 130, 3, 0.966258
108, 2, wb, filler, NA, 999, 999, 3, 19, 165, 102, 173, 75, 98, 130, 1, 0.398552
108, 2, wb, filler, NA, 999, 999, 3, 20, 58, 169, 104, 84, 108, 64, 3, 1.93231
108, 2, wb, filler, NA, 999, 999, 3, 20, 58, 169, 104, 84, 108, 64, 1, 2.41379
108, 2, wb, attraction, a-b-db, 9, 2, 3, 21, 165, 90, 86, 157, 90, 165, 2, 0.922382
108, 2, wb, attraction, a-b-db, 9, 2, 3, 21, 165, 90, 86, 157, 90, 165, 1, 0.708028
108, 2, wb, attraction, a-b-db, 2, 1, 3, 22, 60, 135, 135, 60, 59, 134, 3, 1.99688
108, 2, wb, attraction, a-b-db, 2, 1, 3, 22, 60, 135, 135, 60, 59, 134, 1, 0.803762
108, 2, wb, attraction, a-b-db, 5, 1, 3, 23, 58, 132, 60, 135, 135, 60, 1, 1.18527
108, 2, wb, attraction, a-b-db, 5, 1, 3, 23, 58, 132, 60, 135, 135, 60, 3, 0.792966
108, 2, wb, attraction, a-b-da, 14, 2, 3, 24, 153, 83, 90, 165, 165, 90, 1, 2.01477
108, 2, wb, attraction, a-b-da, 14, 2, 3, 24, 153, 83, 90, 165, 165, 90, 2, 0.548742
108, 2, wb, filler, NA, 999, 999, 3, 25, 67, 151, 103, 100, 132, 160, 2, 0.612386
108, 2, wb, filler, NA, 999, 999, 3, 25, 67, 151, 103, 100, 132, 160, 3, 0.66683
108, 2, wb, catch, NA, 999, 999, 3, 26, 88, 107, 142, 173, 161, 94, 1, 0.573873
108, 2, wb, catch, NA, 999, 999, 3, 26, 88, 107, 142, 173, 161, 94, 2, 0.397681
108, 2, wb, attraction, a-b-da, 9, 2, 3, 27, 165, 90, 157, 86, 90, 165, 3, 0.963562
108, 2, wb, attraction, a-b-da, 9, 2, 3, 27, 165, 90, 157, 86, 90, 165, 2, 0.315881
108, 2, wb, attraction, a-b-da, 14, 3, 3, 28, 195, 120, 181, 111, 120, 195, 2, 3.14911
108, 2, wb, attraction, a-b-da, 14, 3, 3, 28, 195, 120, 181, 111, 120, 195, 1, 0.269394
108, 2, wb, attraction, a-b-da, 9, 1, 3, 29, 129, 57, 135, 60, 60, 135, 2, 0.832563
108, 2, wb, attraction, a-b-da, 9, 1, 3, 29, 129, 57, 135, 60, 60, 135, 3, 1.33424
108, 2, wb, attraction, a-b-da, 5, 1, 3, 30, 60, 135, 135, 60, 132, 58, 2, 2.62253
108, 2, wb, attraction, a-b-da, 5, 1, 3, 30, 60, 135, 135, 60, 132, 58, 1, 0.3236
108, 2, wb, attraction, a-b-da, 2, 1, 3, 31, 135, 60, 134, 59, 60, 135, 1, 2.0361
108, 2, wb, attraction, a-b-da, 2, 1, 3, 31, 135, 60, 134, 59, 60, 135, 3, 0.369414
108, 2, wb, catch, NA, 999, 999, 3, 32, 142, 173, 128, 127, 84, 111, 2, 1.11267
108, 2, wb, catch, NA, 999, 999, 3, 32, 142, 173, 128, 127, 84, 111, 3, 1.707
108, 2, wb, filler, NA, 999, 999, 3, 33, 181, 116, 173, 172, 64, 187, 3, 1.40366
108, 2, wb, filler, NA, 999, 999, 3, 33, 181, 116, 173, 172, 64, 187, 2, 0.289911
108, 2, wb, attraction, a-b-db, 9, 1, 3, 34, 60, 135, 135, 60, 57, 129, 3, 0.907673
108, 2, wb, attraction, a-b-db, 9, 1, 3, 34, 60, 135, 135, 60, 57, 129, 1, 0.822083
108, 2, wb, attraction, a-b-db, 14, 2, 3, 35, 90, 165, 165, 90, 83, 153, 3, 2.40316
108, 2, wb, attraction, a-b-db, 14, 2, 3, 35, 90, 165, 165, 90, 83, 153, 1, 0.72959
108, 2, wb, attraction, a-b-da, 9, 3, 3, 36, 186, 114, 195, 120, 120, 195, 1, 1.64998
108, 2, wb, attraction, a-b-da, 9, 3, 3, 36, 186, 114, 195, 120, 120, 195, 3, 0.238817
108, 2, wb, attraction, a-b-db, 5, 2, 3, 37, 90, 165, 88, 161, 165, 90, 2, 1.58729
108, 2, wb, attraction, a-b-db, 5, 2, 3, 37, 90, 165, 88, 161, 165, 90, 3, 0.282825
108, 2, wb, filler, NA, 999, 999, 4, 1, 98, 148, 139, 84, 156, 160, 2, 1.52539
108, 2, wb, filler, NA, 999, 999, 4, 1, 98, 148, 139, 84, 156, 160, 3, 0.486762
108, 2, wb, catch, NA, 999, 999, 4, 2, 97, 98, 175, 140, 149, 106, 1, 0.785342
108, 2, wb, catch, NA, 999, 999, 4, 2, 97, 98, 175, 140, 149, 106, 2, 0.273126
108, 2, wb, attraction, a-b-da, 5, 2, 4, 3, 90, 165, 165, 90, 161, 88, 1, 0.787628
108, 2, wb, attraction, a-b-da, 5, 2, 4, 3, 90, 165, 165, 90, 161, 88, 2, 0.26663
108, 2, wb, attraction, a-b-db, 9, 3, 4, 4, 114, 186, 195, 120, 120, 195, 3, 1.12581
108, 2, wb, attraction, a-b-db, 9, 3, 4, 4, 114, 186, 195, 120, 120, 195, 1, 0.711487
108, 2, wb, attraction, a-b-da, 14, 2, 4, 5, 90, 165, 165, 90, 153, 83, 3, 0.584498
108, 2, wb, attraction, a-b-da, 14, 2, 4, 5, 90, 165, 165, 90, 153, 83, 2, 0.480384
108, 2, wb, attraction, a-b-da, 5, 1, 4, 6, 132, 58, 60, 135, 135, 60, 1, 0.938759
108, 2, wb, attraction, a-b-da, 5, 1, 4, 6, 132, 58, 60, 135, 135, 60, 2, 0.635742
108, 2, wb, attraction, a-b-db, 9, 2, 4, 7, 90, 165, 165, 90, 86, 157, 1, 0.648152
108, 2, wb, attraction, a-b-db, 9, 2, 4, 7, 90, 165, 165, 90, 86, 157, 2, 0.293366
108, 2, wb, filler, NA, 999, 999, 4, 8, 125, 119, 111, 77, 194, 110, 2, 1.14309
108, 2, wb, filler, NA, 999, 999, 4, 8, 125, 119, 111, 77, 194, 110, 3, 0.336139
108, 2, wb, filler, NA, 999, 999, 4, 9, 106, 72, 118, 148, 128, 72, 1, 1.16051
108, 2, wb, filler, NA, 999, 999, 4, 9, 106, 72, 118, 148, 128, 72, 2, 0.624882
108, 2, wb, attraction, a-b-db, 14, 3, 4, 10, 120, 195, 195, 120, 111, 181, 1, 1.71719
108, 2, wb, attraction, a-b-db, 14, 3, 4, 10, 120, 195, 195, 120, 111, 181, 2, 0.247309
108, 2, wb, attraction, a-b-da, 9, 3, 4, 11, 195, 120, 120, 195, 186, 114, 1, 0.779176
108, 2, wb, attraction, a-b-da, 9, 3, 4, 11, 195, 120, 120, 195, 186, 114, 2, 0.274916
108, 2, wb, filler, NA, 999, 999, 4, 12, 100, 134, 132, 154, 162, 134, 3, 0.581476
108, 2, wb, filler, NA, 999, 999, 4, 12, 100, 134, 132, 154, 162, 134, 2, 0.917174
108, 2, wb, attraction, a-b-db, 2, 3, 4, 13, 120, 195, 195, 120, 119, 193, 3, 1.47833
108, 2, wb, attraction, a-b-db, 2, 3, 4, 13, 120, 195, 195, 120, 119, 193, 1, 0.593736
108, 2, wb, attraction, a-b-da, 14, 3, 4, 14, 195, 120, 181, 111, 120, 195, 1, 2.25543
108, 2, wb, attraction, a-b-da, 14, 3, 4, 14, 195, 120, 181, 111, 120, 195, 2, 0.299541
108, 2, wb, attraction, a-b-db, 5, 3, 4, 15, 117, 190, 195, 120, 120, 195, 2, 0.725295
108, 2, wb, attraction, a-b-db, 5, 3, 4, 15, 117, 190, 195, 120, 120, 195, 3, 1.19109
108, 2, wb, attraction, a-b-da, 9, 1, 4, 16, 135, 60, 129, 57, 60, 135, 2, 1.97256
108, 2, wb, attraction, a-b-da, 9, 1, 4, 16, 135, 60, 129, 57, 60, 135, 3, 1.04395
108, 2, wb, attraction, a-b-da, 2, 1, 4, 17, 60, 135, 135, 60, 134, 59, 1, 0.815598
108, 2, wb, attraction, a-b-da, 2, 1, 4, 17, 60, 135, 135, 60, 134, 59, 2, 0.765919
108, 2, wb, attraction, a-b-da, 14, 1, 4, 18, 135, 60, 60, 135, 125, 56, 3, 1.56498
108, 2, wb, attraction, a-b-da, 14, 1, 4, 18, 135, 60, 60, 135, 125, 56, 2, 0.357118
108, 2, wb, attraction, a-b-db, 2, 2, 4, 19, 165, 90, 90, 165, 89, 163, 1, 2.62823
108, 2, wb, attraction, a-b-db, 2, 2, 4, 19, 165, 90, 90, 165, 89, 163, 2, 0.425439
108, 2, wb, attraction, a-b-db, 14, 1, 4, 20, 135, 60, 56, 125, 60, 135, 2, 3.98189
108, 2, wb, attraction, a-b-db, 14, 1, 4, 20, 135, 60, 56, 125, 60, 135, 1, 0.64466
108, 2, wb, filler, NA, 999, 999, 4, 21, 170, 152, 124, 101, 59, 81, 3, 0.95243
108, 2, wb, filler, NA, 999, 999, 4, 21, 170, 152, 124, 101, 59, 81, 1, 0.409366
108, 2, wb, attraction, a-b-db, 5, 2, 4, 22, 88, 161, 90, 165, 165, 90, 1, 2.13454
108, 2, wb, attraction, a-b-db, 5, 2, 4, 22, 88, 161, 90, 165, 165, 90, 3, 0.591837
108, 2, wb, attraction, a-b-da, 5, 3, 4, 23, 195, 120, 120, 195, 190, 117, 1, 0.477726
108, 2, wb, attraction, a-b-da, 5, 3, 4, 23, 195, 120, 120, 195, 190, 117, 2, 0.297382
108, 2, wb, filler, NA, 999, 999, 4, 24, 69, 97, 97, 116, 184, 159, 1, 0.523427
108, 2, wb, filler, NA, 999, 999, 4, 24, 69, 97, 97, 116, 184, 159, 3, 0.317052
108, 2, wb, catch, NA, 999, 999, 4, 25, 183, 132, 95, 160, 86, 109, 3, 0.742208
108, 2, wb, catch, NA, 999, 999, 4, 25, 183, 132, 95, 160, 86, 109, 1, 0.551341
108, 2, wb, attraction, a-b-da, 2, 3, 4, 26, 193, 119, 195, 120, 120, 195, 1, 0.903151
108, 2, wb, attraction, a-b-da, 2, 3, 4, 26, 193, 119, 195, 120, 120, 195, 2, 0.434113
108, 2, wb, filler, NA, 999, 999, 4, 27, 179, 109, 132, 178, 85, 123, 3, 0.558568
108, 2, wb, filler, NA, 999, 999, 4, 27, 179, 109, 132, 178, 85, 123, 2, 0.887089
108, 2, wb, filler, NA, 999, 999, 4, 28, 107, 110, 88, 56, 186, 124, 2, 0.793404
108, 2, wb, filler, NA, 999, 999, 4, 28, 107, 110, 88, 56, 186, 124, 3, 0.296419
108, 2, wb, attraction, a-b-da, 9, 2, 4, 29, 165, 90, 90, 165, 157, 86, 1, 0.618242
108, 2, wb, attraction, a-b-da, 9, 2, 4, 29, 165, 90, 90, 165, 157, 86, 2, 0.320763
108, 2, wb, attraction, a-b-db, 9, 1, 4, 30, 57, 129, 60, 135, 135, 60, 1, 0.874098
108, 2, wb, attraction, a-b-db, 9, 1, 4, 30, 57, 129, 60, 135, 135, 60, 3, 0.845698
108, 2, wb, catch, NA, 999, 999, 4, 31, 171, 144, 112, 143, 92, 103, 3, 1.72932
108, 2, wb, catch, NA, 999, 999, 4, 31, 171, 144, 112, 143, 92, 103, 1, 0.354703
108, 2, wb, attraction, a-b-db, 5, 1, 4, 32, 135, 60, 58, 132, 60, 135, 2, 2.56258
108, 2, wb, attraction, a-b-db, 5, 1, 4, 32, 135, 60, 58, 132, 60, 135, 1, 2.03442
108, 2, wb, filler, NA, 999, 999, 4, 33, 91, 144, 94, 102, 190, 174, 2, 1.05434
108, 2, wb, filler, NA, 999, 999, 4, 33, 91, 144, 94, 102, 190, 174, 3, 0.346668
108, 2, wb, filler, NA, 999, 999, 4, 34, 107, 109, 156, 109, 188, 114, 1, 1.06654
108, 2, wb, filler, NA, 999, 999, 4, 34, 107, 109, 156, 109, 188, 114, 3, 1.75097
108, 2, wb, attraction, a-b-da, 2, 2, 4, 35, 90, 165, 163, 89, 165, 90, 1, 1.89414
108, 2, wb, attraction, a-b-da, 2, 2, 4, 35, 90, 165, 163, 89, 165, 90, 2, 1.2651
108, 2, wb, attraction, a-b-db, 2, 1, 4, 36, 59, 134, 60, 135, 135, 60, 3, 1.85994
108, 2, wb, attraction, a-b-db, 2, 1, 4, 36, 59, 134, 60, 135, 135, 60, 2, 0.487981
108, 2, wb, attraction, a-b-db, 14, 2, 4, 37, 90, 165, 165, 90, 83, 153, 3, 0.8104
108, 2, wb, attraction, a-b-db, 14, 2, 4, 37, 90, 165, 165, 90, 83, 153, 1, 0.640676
108, 2, wb, filler, NA, 999, 999, 5, 1, 107, 175, 173, 87, 171, 69, 3, 2.80303
108, 2, wb, filler, NA, 999, 999, 5, 1, 107, 175, 173, 87, 171, 69, 1, 0.521532
108, 2, wb, attraction, a-b-db, 9, 3, 5, 2, 114, 186, 195, 120, 120, 195, 1, 1.25075
108, 2, wb, attraction, a-b-db, 9, 3, 5, 2, 114, 186, 195, 120, 120, 195, 2, 0.60753
108, 2, wb, attraction, a-b-db, 2, 3, 5, 3, 119, 193, 120, 195, 195, 120, 1, 0.716717
108, 2, wb, attraction, a-b-db, 2, 3, 5, 3, 119, 193, 120, 195, 195, 120, 3, 0.39919
108, 2, wb, catch, NA, 999, 999, 5, 4, 66, 129, 100, 155, 183, 132, 1, 0.444954
108, 2, wb, catch, NA, 999, 999, 5, 4, 66, 129, 100, 155, 183, 132, 3, 0.673974
108, 2, wb, filler, NA, 999, 999, 5, 5, 56, 105, 115, 157, 148, 168, 1, 0.46044
108, 2, wb, filler, NA, 999, 999, 5, 5, 56, 105, 115, 157, 148, 168, 3, 0.472858
108, 2, wb, attraction, a-b-db, 5, 2, 5, 6, 90, 165, 165, 90, 88, 161, 3, 2.14739
108, 2, wb, attraction, a-b-db, 5, 2, 5, 6, 90, 165, 165, 90, 88, 161, 2, 0.419981
108, 2, wb, attraction, a-b-da, 5, 3, 5, 7, 190, 117, 195, 120, 120, 195, 3, 1.63324
108, 2, wb, attraction, a-b-da, 5, 3, 5, 7, 190, 117, 195, 120, 120, 195, 1, 0.382725
108, 2, wb, attraction, a-b-db, 14, 2, 5, 8, 90, 165, 83, 153, 165, 90, 1, 0.717135
108, 2, wb, attraction, a-b-db, 14, 2, 5, 8, 90, 165, 83, 153, 165, 90, 2, 0.839571
108, 2, wb, attraction, a-b-db, 14, 1, 5, 9, 135, 60, 60, 135, 56, 125, 3, 1.30727
108, 2, wb, attraction, a-b-db, 14, 1, 5, 9, 135, 60, 60, 135, 56, 125, 1, 0.677425
108, 2, wb, filler, NA, 999, 999, 5, 10, 176, 173, 65, 186, 164, 61, 3, 1.45579
108, 2, wb, filler, NA, 999, 999, 5, 10, 176, 173, 65, 186, 164, 61, 1, 0.347969
108, 2, wb, attraction, a-b-da, 14, 2, 5, 11, 165, 90, 90, 165, 153, 83, 1, 1.484
108, 2, wb, attraction, a-b-da, 14, 2, 5, 11, 165, 90, 90, 165, 153, 83, 2, 2.31158
108, 2, wb, attraction, a-b-da, 2, 3, 5, 12, 193, 119, 120, 195, 195, 120, 2, 2.38386
108, 2, wb, attraction, a-b-da, 2, 3, 5, 12, 193, 119, 120, 195, 195, 120, 3, 0.327175
108, 2, wb, attraction, a-b-db, 14, 3, 5, 13, 111, 181, 120, 195, 195, 120, 1, 1.03961
108, 2, wb, attraction, a-b-db, 14, 3, 5, 13, 111, 181, 120, 195, 195, 120, 3, 0.364603
108, 2, wb, attraction, a-b-da, 2, 1, 5, 14, 60, 135, 134, 59, 135, 60, 1, 0.835799
108, 2, wb, attraction, a-b-da, 2, 1, 5, 14, 60, 135, 134, 59, 135, 60, 2, 0.953645
108, 2, wb, attraction, a-b-db, 9, 2, 5, 15, 86, 157, 165, 90, 90, 165, 1, 1.04914
108, 2, wb, attraction, a-b-db, 9, 2, 5, 15, 86, 157, 165, 90, 90, 165, 2, 0.350242
108, 2, wb, attraction, a-b-db, 2, 2, 5, 16, 165, 90, 89, 163, 90, 165, 1, 2.06993
108, 2, wb, attraction, a-b-db, 2, 2, 5, 16, 165, 90, 89, 163, 90, 165, 3, 0.697956
108, 2, wb, catch, NA, 999, 999, 5, 17, 137, 178, 129, 66, 133, 122, 2, 0.73165
108, 2, wb, catch, NA, 999, 999, 5, 17, 137, 178, 129, 66, 133, 122, 1, 0.437473
108, 2, wb, filler, NA, 999, 999, 5, 18, 175, 141, 141, 91, 82, 86, 3, 0.929944
108, 2, wb, filler, NA, 999, 999, 5, 18, 175, 141, 141, 91, 82, 86, 1, 0.443653
108, 2, wb, attraction, a-b-db, 5, 3, 5, 19, 195, 120, 120, 195, 117, 190, 3, 3.05531
108, 2, wb, attraction, a-b-db, 5, 3, 5, 19, 195, 120, 120, 195, 117, 190, 1, 0.427019
108, 2, wb, attraction, a-b-db, 5, 1, 5, 20, 60, 135, 135, 60, 58, 132, 2, 0.551612
108, 2, wb, attraction, a-b-db, 5, 1, 5, 20, 60, 135, 135, 60, 58, 132, 1, 2.67259
108, 2, wb, filler, NA, 999, 999, 5, 21, 161, 156, 150, 168, 131, 90, 3, 0.915049
108, 2, wb, filler, NA, 999, 999, 5, 21, 161, 156, 150, 168, 131, 90, 2, 1.17361
108, 2, wb, attraction, a-b-da, 5, 2, 5, 22, 90, 165, 165, 90, 161, 88, 1, 0.627685
108, 2, wb, attraction, a-b-da, 5, 2, 5, 22, 90, 165, 165, 90, 161, 88, 2, 1.08959
108, 2, wb, attraction, a-b-db, 2, 1, 5, 23, 59, 134, 60, 135, 135, 60, 1, 2.42705
108, 2, wb, attraction, a-b-db, 2, 1, 5, 23, 59, 134, 60, 135, 135, 60, 3, 3.30431
108, 2, wb, catch, NA, 999, 999, 5, 24, 134, 121, 130, 65, 183, 132, 2, 0.921179
108, 2, wb, catch, NA, 999, 999, 5, 24, 134, 121, 130, 65, 183, 132, 3, 0.202943
108, 2, wb, filler, NA, 999, 999, 5, 25, 100, 191, 78, 195, 84, 122, 3, 1.71283
108, 2, wb, filler, NA, 999, 999, 5, 25, 100, 191, 78, 195, 84, 122, 1, 0.266994
108, 2, wb, filler, NA, 999, 999, 5, 26, 151, 57, 150, 153, 157, 92, 1, 0.910188
108, 2, wb, filler, NA, 999, 999, 5, 26, 151, 57, 150, 153, 157, 92, 2, 0.272448
108, 2, wb, attraction, a-b-db, 9, 1, 5, 27, 57, 129, 60, 135, 135, 60, 3, 1.77159
108, 2, wb, attraction, a-b-db, 9, 1, 5, 27, 57, 129, 60, 135, 135, 60, 2, 0.323028
108, 2, wb, attraction, a-b-da, 9, 3, 5, 28, 186, 114, 120, 195, 195, 120, 1, 2.25167
108, 2, wb, attraction, a-b-da, 9, 3, 5, 28, 186, 114, 120, 195, 195, 120, 2, 0.352176
108, 2, wb, attraction, a-b-da, 14, 3, 5, 29, 120, 195, 195, 120, 181, 111, 1, 2.2079
108, 2, wb, attraction, a-b-da, 14, 3, 5, 29, 120, 195, 195, 120, 181, 111, 2, 0.229886
108, 2, wb, attraction, a-b-da, 14, 1, 5, 30, 125, 56, 135, 60, 60, 135, 1, 0.866568
108, 2, wb, attraction, a-b-da, 14, 1, 5, 30, 125, 56, 135, 60, 60, 135, 3, 0.230808
108, 2, wb, attraction, a-b-da, 9, 2, 5, 31, 157, 86, 90, 165, 165, 90, 1, 2.33139
108, 2, wb, attraction, a-b-da, 9, 2, 5, 31, 157, 86, 90, 165, 165, 90, 2, 0.244579
108, 2, wb, attraction, a-b-da, 2, 2, 5, 32, 165, 90, 90, 165, 163, 89, 3, 0.920496
108, 2, wb, attraction, a-b-da, 2, 2, 5, 32, 165, 90, 90, 165, 163, 89, 2, 0.322858
108, 2, wb, filler, NA, 999, 999, 5, 33, 182, 160, 127, 166, 64, 147, 3, 0.787348
108, 2, wb, filler, NA, 999, 999, 5, 33, 182, 160, 127, 166, 64, 147, 1, 0.250356
108, 2, wb, attraction, a-b-da, 9, 1, 5, 34, 135, 60, 60, 135, 129, 57, 3, 1.7424
108, 2, wb, attraction, a-b-da, 9, 1, 5, 34, 135, 60, 60, 135, 129, 57, 2, 0.431002
108, 2, wb, filler, NA, 999, 999, 5, 35, 153, 169, 141, 162, 116, 81, 3, 0.635455
108, 2, wb, filler, NA, 999, 999, 5, 35, 153, 169, 141, 162, 116, 81, 2, 0.529352
108, 2, wb, filler, NA, 999, 999, 5, 36, 69, 103, 137, 134, 94, 183, 1, 0.889733
108, 2, wb, filler, NA, 999, 999, 5, 36, 69, 103, 137, 134, 94, 183, 2, 0.228735
108, 2, wb, attraction, a-b-da, 5, 1, 5, 37, 60, 135, 132, 58, 135, 60, 1, 2.96124
108, 2, wb, attraction, a-b-da, 5, 1, 5, 37, 60, 135, 132, 58, 135, 60, 2, 0.75297
108, 2, wb, filler, NA, 999, 999, 6, 1, 74, 62, 97, 83, 92, 76, 1, 1.20066
108, 2, wb, filler, NA, 999, 999, 6, 1, 74, 62, 97, 83, 92, 76, 2, 0.559669
108, 2, wb, attraction, a-b-da, 2, 2, 6, 2, 163, 89, 90, 165, 165, 90, 2, 1.37478
108, 2, wb, attraction, a-b-da, 2, 2, 6, 2, 163, 89, 90, 165, 165, 90, 1, 0.606279
108, 2, wb, filler, NA, 999, 999, 6, 3, 83, 126, 68, 59, 163, 163, 2, 0.563327
108, 2, wb, filler, NA, 999, 999, 6, 3, 83, 126, 68, 59, 163, 163, 3, 0.195826
108, 2, wb, attraction, a-b-da, 14, 1, 6, 4, 135, 60, 125, 56, 60, 135, 2, 0.713691
108, 2, wb, attraction, a-b-da, 14, 1, 6, 4, 135, 60, 125, 56, 60, 135, 3, 0.492179
108, 2, wb, attraction, a-b-da, 14, 3, 6, 5, 195, 120, 120, 195, 181, 111, 2, 1.94198
108, 2, wb, attraction, a-b-da, 14, 3, 6, 5, 195, 120, 120, 195, 181, 111, 3, 0.168034
108, 2, wb, attraction, a-b-db, 9, 3, 6, 6, 120, 195, 114, 186, 195, 120, 2, 1.39779
108, 2, wb, attraction, a-b-db, 9, 3, 6, 6, 120, 195, 114, 186, 195, 120, 3, 0.22068
108, 2, wb, filler, NA, 999, 999, 6, 7, 150, 150, 147, 93, 57, 96, 3, 0.793864
108, 2, wb, filler, NA, 999, 999, 6, 7, 150, 150, 147, 93, 57, 96, 1, 0.280982
108, 2, wb, attraction, a-b-db, 14, 3, 6, 8, 195, 120, 111, 181, 120, 195, 2, 1.73947
108, 2, wb, attraction, a-b-db, 14, 3, 6, 8, 195, 120, 111, 181, 120, 195, 3, 1.65227
108, 2, wb, attraction, a-b-db, 14, 1, 6, 9, 60, 135, 56, 125, 135, 60, 2, 3.73571
108, 2, wb, attraction, a-b-db, 14, 1, 6, 9, 60, 135, 56, 125, 135, 60, 1, 1.53641
108, 2, wb, attraction, a-b-da, 2, 1, 6, 10, 134, 59, 135, 60, 60, 135, 1, 4.53654
108, 2, wb, attraction, a-b-da, 2, 1, 6, 10, 134, 59, 135, 60, 60, 135, 2, 0.38511
108, 2, wb, filler, NA, 999, 999, 6, 11, 185, 123, 174, 109, 72, 179, 2, 2.67171
108, 2, wb, filler, NA, 999, 999, 6, 11, 185, 123, 174, 109, 72, 179, 1, 0.386839
108, 2, wb, attraction, a-b-db, 2, 3, 6, 12, 119, 193, 195, 120, 120, 195, 3, 1.96928
108, 2, wb, attraction, a-b-db, 2, 3, 6, 12, 119, 193, 195, 120, 120, 195, 2, 0.297417
108, 2, wb, filler, NA, 999, 999, 6, 13, 68, 162, 150, 174, 153, 123, 1, 1.6432
108, 2, wb, filler, NA, 999, 999, 6, 13, 68, 162, 150, 174, 153, 123, 2, 0.384017
108, 2, wb, catch, NA, 999, 999, 6, 14, 164, 91, 152, 163, 67, 128, 3, 1.06249
108, 2, wb, catch, NA, 999, 999, 6, 14, 164, 91, 152, 163, 67, 128, 2, 0.282696
108, 2, wb, filler, NA, 999, 999, 6, 15, 170, 190, 155, 169, 77, 171, 3, 1.67736
108, 2, wb, filler, NA, 999, 999, 6, 15, 170, 190, 155, 169, 77, 171, 1, 0.416724
108, 2, wb, attraction, a-b-db, 2, 1, 6, 16, 59, 134, 60, 135, 135, 60, 2, 1.98992
108, 2, wb, attraction, a-b-db, 2, 1, 6, 16, 59, 134, 60, 135, 135, 60, 3, 0.268603
108, 2, wb, attraction, a-b-db, 5, 1, 6, 17, 60, 135, 135, 60, 58, 132, 3, 4.33577
108, 2, wb, attraction, a-b-db, 5, 1, 6, 17, 60, 135, 135, 60, 58, 132, 2, 0.32835
108, 2, wb, catch, NA, 999, 999, 6, 18, 142, 173, 153, 102, 67, 128, 3, 0.712842
108, 2, wb, catch, NA, 999, 999, 6, 18, 142, 173, 153, 102, 67, 128, 1, 0.587248
108, 2, wb, attraction, a-b-db, 5, 3, 6, 19, 117, 190, 120, 195, 195, 120, 1, 3.23366
108, 2, wb, attraction, a-b-db, 5, 3, 6, 19, 117, 190, 120, 195, 195, 120, 3, 0.974828
108, 2, wb, catch, NA, 999, 999, 6, 20, 146, 169, 135, 60, 164, 91, 2, 0.636886
108, 2, wb, catch, NA, 999, 999, 6, 20, 146, 169, 135, 60, 164, 91, 1, 0.298705
108, 2, wb, attraction, a-b-da, 5, 3, 6, 21, 120, 195, 195, 120, 190, 117, 1, 1.57257
108, 2, wb, attraction, a-b-da, 5, 3, 6, 21, 120, 195, 195, 120, 190, 117, 2, 0.276059
108, 2, wb, attraction, a-b-db, 2, 2, 6, 22, 89, 163, 165, 90, 90, 165, 2, 1.21462
108, 2, wb, attraction, a-b-db, 2, 2, 6, 22, 89, 163, 165, 90, 90, 165, 3, 0.428979
108, 2, wb, attraction, a-b-da, 9, 2, 6, 23, 157, 86, 165, 90, 90, 165, 1, 0.729445
108, 2, wb, attraction, a-b-da, 9, 2, 6, 23, 157, 86, 165, 90, 90, 165, 3, 0.40309
108, 2, wb, attraction, a-b-db, 5, 2, 6, 24, 90, 165, 165, 90, 88, 161, 2, 0.744938
108, 2, wb, attraction, a-b-db, 5, 2, 6, 24, 90, 165, 165, 90, 88, 161, 1, 0.746031
108, 2, wb, filler, NA, 999, 999, 6, 25, 152, 124, 75, 111, 61, 190, 2, 0.561859
108, 2, wb, filler, NA, 999, 999, 6, 25, 152, 124, 75, 111, 61, 190, 1, 0.282267
108, 2, wb, attraction, a-b-da, 5, 2, 6, 26, 90, 165, 161, 88, 165, 90, 2, 0.836735
108, 2, wb, attraction, a-b-da, 5, 2, 6, 26, 90, 165, 161, 88, 165, 90, 3, 2.20168
108, 2, wb, filler, NA, 999, 999, 6, 27, 93, 147, 171, 121, 78, 133, 3, 1.34287
108, 2, wb, filler, NA, 999, 999, 6, 27, 93, 147, 171, 121, 78, 133, 2, 0.327761
108, 2, wb, attraction, a-b-db, 9, 2, 6, 28, 165, 90, 86, 157, 90, 165, 2, 1.89632
108, 2, wb, attraction, a-b-db, 9, 2, 6, 28, 165, 90, 86, 157, 90, 165, 1, 0.363026
108, 2, wb, attraction, a-b-db, 14, 2, 6, 29, 83, 153, 90, 165, 165, 90, 3, 1.04233
108, 2, wb, attraction, a-b-db, 14, 2, 6, 29, 83, 153, 90, 165, 165, 90, 2, 0.351113
108, 2, wb, attraction, a-b-db, 9, 1, 6, 30, 135, 60, 60, 135, 57, 129, 1, 1.67104
108, 2, wb, attraction, a-b-db, 9, 1, 6, 30, 135, 60, 60, 135, 57, 129, 2, 0.570524
108, 2, wb, attraction, a-b-da, 2, 3, 6, 31, 193, 119, 195, 120, 120, 195, 1, 1.03377
108, 2, wb, attraction, a-b-da, 2, 3, 6, 31, 193, 119, 195, 120, 120, 195, 2, 0.407197
108, 2, wb, filler, NA, 999, 999, 6, 32, 103, 142, 63, 69, 109, 119, 2, 0.884319
108, 2, wb, filler, NA, 999, 999, 6, 32, 103, 142, 63, 69, 109, 119, 1, 0.33609
108, 2, wb, attraction, a-b-da, 5, 1, 6, 33, 132, 58, 135, 60, 60, 135, 2, 0.688641
108, 2, wb, attraction, a-b-da, 5, 1, 6, 33, 132, 58, 135, 60, 60, 135, 1, 0.291606
108, 2, wb, attraction, a-b-da, 9, 1, 6, 34, 60, 135, 135, 60, 129, 57, 2, 0.997495
108, 2, wb, attraction, a-b-da, 9, 1, 6, 34, 60, 135, 135, 60, 129, 57, 3, 0.460475
108, 2, wb, attraction, a-b-da, 14, 2, 6, 35, 165, 90, 90, 165, 153, 83, 3, 1.74375
108, 2, wb, attraction, a-b-da, 14, 2, 6, 35, 165, 90, 90, 165, 153, 83, 1, 0.89643
108, 2, wb, filler, NA, 999, 999, 6, 36, 150, 75, 117, 60, 88, 57, 3, 1.02602
108, 2, wb, filler, NA, 999, 999, 6, 36, 150, 75, 117, 60, 88, 57, 1, 0.375787
108, 2, wb, attraction, a-b-da, 9, 3, 6, 37, 195, 120, 120, 195, 186, 114, 2, 1.0702
108, 2, wb, attraction, a-b-da, 9, 3, 6, 37, 195, 120, 120, 195, 186, 114, 3, 0.282474
108, 2, wb, filler, NA, 999, 999, 7, 1, 139, 138, 147, 70, 61, 149, 2, 0.621006
108, 2, wb, filler, NA, 999, 999, 7, 1, 139, 138, 147, 70, 61, 149, 1, 0.634753
108, 2, wb, catch, NA, 999, 999, 7, 2, 125, 190, 95, 100, 149, 106, 2, 0.791357
108, 2, wb, catch, NA, 999, 999, 7, 2, 125, 190, 95, 100, 149, 106, 1, 0.358283
108, 2, wb, filler, NA, 999, 999, 7, 3, 191, 184, 167, 147, 66, 132, 2, 0.877412
108, 2, wb, filler, NA, 999, 999, 7, 3, 191, 184, 167, 147, 66, 132, 1, 0.345204
108, 2, wb, attraction, a-b-db, 9, 2, 7, 4, 165, 90, 86, 157, 90, 165, 2, 1.56095
108, 2, wb, attraction, a-b-db, 9, 2, 7, 4, 165, 90, 86, 157, 90, 165, 3, 0.513133
108, 2, wb, filler, NA, 999, 999, 7, 5, 174, 145, 187, 68, 83, 182, 2, 1.25025
108, 2, wb, filler, NA, 999, 999, 7, 5, 174, 145, 187, 68, 83, 182, 1, 0.303146
108, 2, wb, attraction, a-b-db, 9, 3, 7, 6, 195, 120, 120, 195, 114, 186, 3, 1.74497
108, 2, wb, attraction, a-b-db, 9, 3, 7, 6, 195, 120, 120, 195, 114, 186, 2, 0.233797
108, 2, wb, attraction, a-b-db, 14, 1, 7, 7, 56, 125, 135, 60, 60, 135, 2, 0.622267
108, 2, wb, attraction, a-b-db, 14, 1, 7, 7, 56, 125, 135, 60, 60, 135, 3, 0.428153
108, 2, wb, attraction, a-b-da, 2, 3, 7, 8, 193, 119, 120, 195, 195, 120, 3, 1.26461
108, 2, wb, attraction, a-b-da, 2, 3, 7, 8, 193, 119, 120, 195, 195, 120, 1, 0.796796
108, 2, wb, attraction, a-b-db, 5, 3, 7, 9, 117, 190, 120, 195, 195, 120, 2, 0.834448
108, 2, wb, attraction, a-b-db, 5, 3, 7, 9, 117, 190, 120, 195, 195, 120, 3, 0.840258
108, 2, wb, attraction, a-b-da, 2, 1, 7, 10, 135, 60, 60, 135, 134, 59, 3, 2.63591
108, 2, wb, attraction, a-b-da, 2, 1, 7, 10, 135, 60, 60, 135, 134, 59, 1, 0.561022
108, 2, wb, attraction, a-b-da, 9, 2, 7, 11, 165, 90, 157, 86, 90, 165, 2, 0.632113
108, 2, wb, attraction, a-b-da, 9, 2, 7, 11, 165, 90, 157, 86, 90, 165, 1, 0.501945
108, 2, wb, attraction, a-b-db, 2, 2, 7, 12, 89, 163, 90, 165, 165, 90, 2, 0.695688
108, 2, wb, attraction, a-b-db, 2, 2, 7, 12, 89, 163, 90, 165, 165, 90, 3, 0.322767
108, 2, wb, attraction, a-b-da, 14, 2, 7, 13, 165, 90, 153, 83, 90, 165, 2, 0.60333
108, 2, wb, attraction, a-b-da, 14, 2, 7, 13, 165, 90, 153, 83, 90, 165, 1, 0.370385
108, 2, wb, attraction, a-b-da, 14, 1, 7, 14, 135, 60, 60, 135, 125, 56, 2, 0.593554
108, 2, wb, attraction, a-b-da, 14, 1, 7, 14, 135, 60, 60, 135, 125, 56, 3, 0.472833
108, 2, wb, filler, NA, 999, 999, 7, 15, 176, 90, 110, 95, 98, 121, 2, 0.563147
108, 2, wb, filler, NA, 999, 999, 7, 15, 176, 90, 110, 95, 98, 121, 3, 0.603663
108, 2, wb, attraction, a-b-db, 2, 1, 7, 16, 60, 135, 59, 134, 135, 60, 2, 0.673327
108, 2, wb, attraction, a-b-db, 2, 1, 7, 16, 60, 135, 59, 134, 135, 60, 3, 0.637129
108, 2, wb, attraction, a-b-da, 5, 2, 7, 17, 165, 90, 161, 88, 90, 165, 2, 0.401533
108, 2, wb, attraction, a-b-da, 5, 2, 7, 17, 165, 90, 161, 88, 90, 165, 1, 0.32865
108, 2, wb, attraction, a-b-da, 5, 1, 7, 18, 135, 60, 60, 135, 132, 58, 2, 0.513163
108, 2, wb, attraction, a-b-da, 5, 1, 7, 18, 135, 60, 60, 135, 132, 58, 1, 0.379663
108, 2, wb, filler, NA, 999, 999, 7, 19, 97, 169, 146, 62, 136, 66, 2, 0.81819
108, 2, wb, filler, NA, 999, 999, 7, 19, 97, 169, 146, 62, 136, 66, 1, 0.496556
108, 2, wb, attraction, a-b-da, 2, 2, 7, 20, 163, 89, 90, 165, 165, 90, 2, 0.786414
108, 2, wb, attraction, a-b-da, 2, 2, 7, 20, 163, 89, 90, 165, 165, 90, 3, 0.529417
108, 2, wb, attraction, a-b-da, 5, 3, 7, 21, 190, 117, 195, 120, 120, 195, 1, 1.24995
108, 2, wb, attraction, a-b-da, 5, 3, 7, 21, 190, 117, 195, 120, 120, 195, 2, 0.319094
108, 2, wb, attraction, a-b-db, 5, 2, 7, 22, 90, 165, 165, 90, 88, 161, 1, 1.00794
108, 2, wb, attraction, a-b-db, 5, 2, 7, 22, 90, 165, 165, 90, 88, 161, 2, 0.478208
108, 2, wb, attraction, a-b-da, 14, 3, 7, 23, 120, 195, 181, 111, 195, 120, 3, 2.86473
108, 2, wb, attraction, a-b-da, 14, 3, 7, 23, 120, 195, 181, 111, 195, 120, 1, 0.292492
108, 2, wb, attraction, a-b-db, 14, 2, 7, 24, 165, 90, 90, 165, 83, 153, 2, 0.686335
108, 2, wb, attraction, a-b-db, 14, 2, 7, 24, 165, 90, 90, 165, 83, 153, 3, 0.826364
108, 2, wb, filler, NA, 999, 999, 7, 25, 171, 118, 104, 114, 176, 193, 2, 0.590414
108, 2, wb, filler, NA, 999, 999, 7, 25, 171, 118, 104, 114, 176, 193, 3, 0.285563
108, 2, wb, filler, NA, 999, 999, 7, 26, 60, 90, 141, 91, 127, 123, 1, 0.59216
108, 2, wb, filler, NA, 999, 999, 7, 26, 60, 90, 141, 91, 127, 123, 2, 0.31112
108, 2, wb, attraction, a-b-da, 9, 1, 7, 27, 129, 57, 60, 135, 135, 60, 1, 2.57635
108, 2, wb, attraction, a-b-da, 9, 1, 7, 27, 129, 57, 60, 135, 135, 60, 3, 0.855593
108, 2, wb, catch, NA, 999, 999, 7, 28, 95, 160, 128, 187, 71, 124, 3, 0.691278
108, 2, wb, catch, NA, 999, 999, 7, 28, 95, 160, 128, 187, 71, 124, 2, 0.430329
108, 2, wb, attraction, a-b-db, 14, 3, 7, 29, 111, 181, 195, 120, 120, 195, 1, 1.89077
108, 2, wb, attraction, a-b-db, 14, 3, 7, 29, 111, 181, 195, 120, 120, 195, 3, 0.389576
108, 2, wb, filler, NA, 999, 999, 7, 30, 94, 142, 172, 184, 64, 104, 3, 0.771341
108, 2, wb, filler, NA, 999, 999, 7, 30, 94, 142, 172, 184, 64, 104, 2, 0.227144
108, 2, wb, attraction, a-b-db, 5, 1, 7, 31, 60, 135, 135, 60, 58, 132, 3, 0.935576
108, 2, wb, attraction, a-b-db, 5, 1, 7, 31, 60, 135, 135, 60, 58, 132, 1, 0.697254
108, 2, wb, catch, NA, 999, 999, 7, 32, 157, 98, 62, 133, 182, 133, 2, 0.547036
108, 2, wb, catch, NA, 999, 999, 7, 32, 157, 98, 62, 133, 182, 133, 3, 0.54014
108, 2, wb, attraction, a-b-db, 9, 1, 7, 33, 135, 60, 60, 135, 57, 129, 2, 0.651893
108, 2, wb, attraction, a-b-db, 9, 1, 7, 33, 135, 60, 60, 135, 57, 129, 3, 2.46494
108, 2, wb, attraction, a-b-da, 9, 3, 7, 34, 195, 120, 120, 195, 186, 114, 2, 1.82742
108, 2, wb, attraction, a-b-da, 9, 3, 7, 34, 195, 120, 120, 195, 186, 114, 3, 0.200983
108, 2, wb, attraction, a-b-db, 2, 3, 7, 35, 195, 120, 120, 195, 119, 193, 2, 1.83876
108, 2, wb, attraction, a-b-db, 2, 3, 7, 35, 195, 120, 120, 195, 119, 193, 3, 0.323473
108, 2, wb, filler, NA, 999, 999, 7, 36, 128, 116, 168, 122, 183, 59, 1, 3.39598
108, 2, wb, filler, NA, 999, 999, 7, 36, 128, 116, 168, 122, 183, 59, 2, 0.250207
108, 2, wb, filler, NA, 999, 999, 7, 37, 83, 134, 103, 115, 129, 174, 2, 1.07012
108, 2, wb, filler, NA, 999, 999, 7, 37, 83, 134, 103, 115, 129, 174, 3, 0.218394
108, 2, wb, attraction, a-b-da, 2, 1, 8, 1, 60, 135, 134, 59, 135, 60, 2, 0.839659
108, 2, wb, attraction, a-b-da, 2, 1, 8, 1, 60, 135, 134, 59, 135, 60, 3, 0.308885
108, 2, wb, attraction, a-b-da, 14, 3, 8, 2, 195, 120, 181, 111, 120, 195, 2, 0.829897
108, 2, wb, attraction, a-b-da, 14, 3, 8, 2, 195, 120, 181, 111, 120, 195, 1, 0.259536
108, 2, wb, filler, NA, 999, 999, 8, 3, 110, 104, 175, 63, 92, 96, 3, 1.10278
108, 2, wb, filler, NA, 999, 999, 8, 3, 110, 104, 175, 63, 92, 96, 1, 0.409721
108, 2, wb, attraction, a-b-db, 14, 1, 8, 4, 56, 125, 135, 60, 60, 135, 2, 2.54283
108, 2, wb, attraction, a-b-db, 14, 1, 8, 4, 56, 125, 135, 60, 60, 135, 3, 0.287416
108, 2, wb, attraction, a-b-db, 9, 3, 8, 5, 120, 195, 114, 186, 195, 120, 2, 1.61789
108, 2, wb, attraction, a-b-db, 9, 3, 8, 5, 120, 195, 114, 186, 195, 120, 3, 0.343976
108, 2, wb, attraction, a-b-da, 14, 1, 8, 6, 135, 60, 60, 135, 125, 56, 3, 2.02387
108, 2, wb, attraction, a-b-da, 14, 1, 8, 6, 135, 60, 60, 135, 125, 56, 1, 0.349174
108, 2, wb, attraction, a-b-da, 2, 3, 8, 7, 195, 120, 193, 119, 120, 195, 3, 1.0051
108, 2, wb, attraction, a-b-da, 2, 3, 8, 7, 195, 120, 193, 119, 120, 195, 1, 0.299372
108, 2, wb, attraction, a-b-da, 5, 1, 8, 8, 135, 60, 60, 135, 132, 58, 2, 1.70132
108, 2, wb, attraction, a-b-da, 5, 1, 8, 8, 135, 60, 60, 135, 132, 58, 1, 0.887983
108, 2, wb, attraction, a-b-db, 14, 2, 8, 9, 90, 165, 83, 153, 165, 90, 2, 3.28236
108, 2, wb, attraction, a-b-db, 14, 2, 8, 9, 90, 165, 83, 153, 165, 90, 3, 0.573253
108, 2, wb, attraction, a-b-da, 5, 3, 8, 10, 195, 120, 120, 195, 190, 117, 2, 0.651713
108, 2, wb, attraction, a-b-da, 5, 3, 8, 10, 195, 120, 120, 195, 190, 117, 3, 0.552792
108, 2, wb, filler, NA, 999, 999, 8, 11, 158, 149, 193, 77, 85, 105, 3, 1.1845
108, 2, wb, filler, NA, 999, 999, 8, 11, 158, 149, 193, 77, 85, 105, 1, 0.400181
108, 2, wb, filler, NA, 999, 999, 8, 12, 163, 155, 83, 177, 91, 79, 3, 1.21396
108, 2, wb, filler, NA, 999, 999, 8, 12, 163, 155, 83, 177, 91, 79, 1, 0.452364
108, 2, wb, attraction, a-b-db, 5, 3, 8, 13, 117, 190, 120, 195, 195, 120, 3, 2.21611
108, 2, wb, attraction, a-b-db, 5, 3, 8, 13, 117, 190, 120, 195, 195, 120, 2, 0.349979
108, 2, wb, attraction, a-b-da, 14, 2, 8, 14, 165, 90, 90, 165, 153, 83, 3, 1.06187
108, 2, wb, attraction, a-b-da, 14, 2, 8, 14, 165, 90, 90, 165, 153, 83, 2, 0.362185
108, 2, wb, filler, NA, 999, 999, 8, 15, 151, 177, 151, 152, 90, 168, 3, 0.58527
108, 2, wb, filler, NA, 999, 999, 8, 15, 151, 177, 151, 152, 90, 168, 1, 0.497185
108, 2, wb, attraction, a-b-db, 2, 3, 8, 16, 119, 193, 195, 120, 120, 195, 3, 0.450811
108, 2, wb, attraction, a-b-db, 2, 3, 8, 16, 119, 193, 195, 120, 120, 195, 2, 0.656098
108, 2, wb, attraction, a-b-db, 14, 3, 8, 17, 195, 120, 120, 195, 111, 181, 1, 1.09116
108, 2, wb, attraction, a-b-db, 14, 3, 8, 17, 195, 120, 120, 195, 111, 181, 2, 2.05416
108, 2, wb, attraction, a-b-db, 9, 1, 8, 18, 57, 129, 135, 60, 60, 135, 1, 1.77737
108, 2, wb, attraction, a-b-db, 9, 1, 8, 18, 57, 129, 135, 60, 60, 135, 2, 0.68879
108, 2, wb, attraction, a-b-db, 2, 2, 8, 19, 90, 165, 89, 163, 165, 90, 2, 1.75524
108, 2, wb, attraction, a-b-db, 2, 2, 8, 19, 90, 165, 89, 163, 165, 90, 3, 0.403442
108, 2, wb, attraction, a-b-db, 5, 1, 8, 20, 135, 60, 60, 135, 58, 132, 2, 1.41716
108, 2, wb, attraction, a-b-db, 5, 1, 8, 20, 135, 60, 60, 135, 58, 132, 1, 0.471261
108, 2, wb, catch, NA, 999, 999, 8, 21, 167, 148, 104, 91, 123, 132, 2, 1.14639
108, 2, wb, catch, NA, 999, 999, 8, 21, 167, 148, 104, 91, 123, 132, 1, 0.35537
108, 2, wb, attraction, a-b-da, 9, 1, 8, 22, 135, 60, 129, 57, 60, 135, 2, 0.939174
108, 2, wb, attraction, a-b-da, 9, 1, 8, 22, 135, 60, 129, 57, 60, 135, 1, 0.239357
108, 2, wb, catch, NA, 999, 999, 8, 23, 186, 129, 94, 101, 113, 142, 2, 0.568055
108, 2, wb, catch, NA, 999, 999, 8, 23, 186, 129, 94, 101, 113, 142, 1, 0.304546
108, 2, wb, filler, NA, 999, 999, 8, 24, 185, 182, 151, 62, 164, 63, 3, 2.33833
108, 2, wb, filler, NA, 999, 999, 8, 24, 185, 182, 151, 62, 164, 63, 1, 0.307048
108, 2, wb, attraction, a-b-db, 9, 2, 8, 25, 90, 165, 165, 90, 86, 157, 3, 1.74021
108, 2, wb, attraction, a-b-db, 9, 2, 8, 25, 90, 165, 165, 90, 86, 157, 2, 0.62886
108, 2, wb, attraction, a-b-da, 2, 2, 8, 26, 165, 90, 90, 165, 163, 89, 2, 1.24935
108, 2, wb, attraction, a-b-da, 2, 2, 8, 26, 165, 90, 90, 165, 163, 89, 1, 0.342203
108, 2, wb, attraction, a-b-db, 2, 1, 8, 27, 59, 134, 135, 60, 60, 135, 2, 0.702023
108, 2, wb, attraction, a-b-db, 2, 1, 8, 27, 59, 134, 135, 60, 60, 135, 1, 0.273147
108, 2, wb, filler, NA, 999, 999, 8, 28, 135, 135, 111, 78, 95, 86, 2, 0.767283
108, 2, wb, filler, NA, 999, 999, 8, 28, 135, 135, 111, 78, 95, 86, 1, 0.220049
108, 2, wb, attraction, a-b-da, 5, 2, 8, 29, 90, 165, 161, 88, 165, 90, 1, 1.3133
108, 2, wb, attraction, a-b-da, 5, 2, 8, 29, 90, 165, 161, 88, 165, 90, 2, 0.283574
108, 2, wb, filler, NA, 999, 999, 8, 30, 75, 139, 146, 155, 172, 178, 1, 0.766078
108, 2, wb, filler, NA, 999, 999, 8, 30, 75, 139, 146, 155, 172, 178, 3, 0.302577
108, 2, wb, filler, NA, 999, 999, 8, 31, 112, 129, 58, 74, 146, 111, 2, 0.864257
108, 2, wb, filler, NA, 999, 999, 8, 31, 112, 129, 58, 74, 146, 111, 3, 0.380772
108, 2, wb, attraction, a-b-da, 9, 3, 8, 32, 195, 120, 186, 114, 120, 195, 2, 0.867146
108, 2, wb, attraction, a-b-da, 9, 3, 8, 32, 195, 120, 186, 114, 120, 195, 1, 0.383595
108, 2, wb, filler, NA, 999, 999, 8, 33, 179, 186, 65, 103, 139, 73, 2, 0.566022
108, 2, wb, filler, NA, 999, 999, 8, 33, 179, 186, 65, 103, 139, 73, 1, 0.590473
108, 2, wb, attraction, a-b-da, 9, 2, 8, 34, 165, 90, 157, 86, 90, 165, 1, 1.35624
108, 2, wb, attraction, a-b-da, 9, 2, 8, 34, 165, 90, 157, 86, 90, 165, 2, 0.300405
108, 2, wb, catch, NA, 999, 999, 8, 35, 165, 150, 163, 92, 131, 64, 3, 0.790308
108, 2, wb, catch, NA, 999, 999, 8, 35, 165, 150, 163, 92, 131, 64, 1, 0.709374
108, 2, wb, filler, NA, 999, 999, 8, 36, 185, 91, 149, 76, 165, 174, 1, 0.75837
108, 2, wb, filler, NA, 999, 999, 8, 36, 185, 91, 149, 76, 165, 174, 3, 2.02293
108, 2, wb, attraction, a-b-db, 5, 2, 8, 37, 165, 90, 88, 161, 90, 165, 2, 2.61947
108, 2, wb, attraction, a-b-db, 5, 2, 8, 37, 165, 90, 88, 161, 90, 165, 1, 0.617249
