sub_n, computer_n, bw_cond, effect, set, distance, diag, block_n, trial_n, h1, w1, h2, w2, h3, w3, choice, rt 
191, 2, bw, practice, NA, 999, 999, 0, 1, 77, 74, 162, 81, 194, 141, 3, 2.38441
191, 2, bw, practice, NA, 999, 999, 0, 1, 77, 74, 162, 81, 194, 141, 1, 1.73379
191, 2, bw, practice, NA, 999, 999, 0, 2, 111, 58, 128, 60, 117, 147, 3, 2.49237
191, 2, bw, practice, NA, 999, 999, 0, 2, 111, 58, 128, 60, 117, 147, 1, 1.09513
191, 2, bw, practice, NA, 999, 999, 0, 3, 113, 58, 180, 160, 175, 158, 2, 1.79871
191, 2, bw, practice, NA, 999, 999, 0, 3, 113, 58, 180, 160, 175, 158, 1, 0.771586
191, 2, bw, attraction, a-b-db, 14, 2, 1, 1, 90, 165, 83, 153, 165, 90, 3, 14.1687
191, 2, bw, attraction, a-b-db, 14, 2, 1, 1, 90, 165, 83, 153, 165, 90, 2, 1.46907
191, 2, bw, attraction, a-b-db, 9, 3, 1, 2, 114, 186, 120, 195, 195, 120, 2, 2.27989
191, 2, bw, attraction, a-b-db, 9, 3, 1, 2, 114, 186, 120, 195, 195, 120, 1, 0.530976
191, 2, bw, attraction, a-b-da, 14, 2, 1, 3, 165, 90, 90, 165, 153, 83, 2, 1.98741
191, 2, bw, attraction, a-b-da, 14, 2, 1, 3, 165, 90, 90, 165, 153, 83, 1, 1.32297
191, 2, bw, attraction, a-b-db, 9, 2, 1, 4, 165, 90, 90, 165, 86, 157, 1, 1.86774
191, 2, bw, attraction, a-b-db, 9, 2, 1, 4, 165, 90, 90, 165, 86, 157, 3, 0.407709
191, 2, bw, catch, NA, 999, 999, 1, 5, 144, 111, 65, 130, 124, 191, 3, 0.90892
191, 2, bw, catch, NA, 999, 999, 1, 5, 144, 111, 65, 130, 124, 191, 2, 0.599238
191, 2, bw, attraction, a-b-db, 2, 3, 1, 6, 119, 193, 120, 195, 195, 120, 2, 1.67703
191, 2, bw, attraction, a-b-db, 2, 3, 1, 6, 119, 193, 120, 195, 195, 120, 1, 0.536547
191, 2, bw, attraction, a-b-da, 14, 1, 1, 7, 135, 60, 60, 135, 125, 56, 2, 2.90498
191, 2, bw, attraction, a-b-da, 14, 1, 1, 7, 135, 60, 60, 135, 125, 56, 3, 0.562627
191, 2, bw, attraction, a-b-da, 9, 3, 1, 8, 186, 114, 195, 120, 120, 195, 3, 2.45787
191, 2, bw, attraction, a-b-da, 9, 3, 1, 8, 186, 114, 195, 120, 120, 195, 1, 0.365533
191, 2, bw, attraction, a-b-db, 5, 2, 1, 9, 165, 90, 88, 161, 90, 165, 3, 1.7488
191, 2, bw, attraction, a-b-db, 5, 2, 1, 9, 165, 90, 88, 161, 90, 165, 2, 0.429518
191, 2, bw, attraction, a-b-da, 5, 3, 1, 10, 190, 117, 120, 195, 195, 120, 2, 1.14602
191, 2, bw, attraction, a-b-da, 5, 3, 1, 10, 190, 117, 120, 195, 195, 120, 1, 0.427038
191, 2, bw, filler, NA, 999, 999, 1, 11, 86, 60, 192, 180, 169, 119, 2, 0.535435
191, 2, bw, filler, NA, 999, 999, 1, 11, 86, 60, 192, 180, 169, 119, 1, 0.529193
191, 2, bw, filler, NA, 999, 999, 1, 12, 123, 125, 118, 183, 56, 79, 2, 0.865647
191, 2, bw, filler, NA, 999, 999, 1, 12, 123, 125, 118, 183, 56, 79, 3, 0.421993
191, 2, bw, filler, NA, 999, 999, 1, 13, 79, 118, 159, 127, 101, 112, 2, 0.699219
191, 2, bw, filler, NA, 999, 999, 1, 13, 79, 118, 159, 127, 101, 112, 1, 0.342292
191, 2, bw, attraction, a-b-db, 14, 3, 1, 14, 111, 181, 120, 195, 195, 120, 2, 1.03812
191, 2, bw, attraction, a-b-db, 14, 3, 1, 14, 111, 181, 120, 195, 195, 120, 3, 0.875172
191, 2, bw, filler, NA, 999, 999, 1, 15, 194, 121, 191, 78, 163, 146, 3, 1.2054
191, 2, bw, filler, NA, 999, 999, 1, 15, 194, 121, 191, 78, 163, 146, 2, 0.667747
191, 2, bw, attraction, a-b-da, 5, 1, 1, 16, 60, 135, 135, 60, 132, 58, 1, 2.18286
191, 2, bw, attraction, a-b-da, 5, 1, 1, 16, 60, 135, 135, 60, 132, 58, 3, 0.693978
191, 2, bw, filler, NA, 999, 999, 1, 17, 62, 129, 81, 89, 100, 154, 3, 1.0477
191, 2, bw, filler, NA, 999, 999, 1, 17, 62, 129, 81, 89, 100, 154, 2, 0.316664
191, 2, bw, filler, NA, 999, 999, 1, 18, 132, 135, 195, 169, 91, 169, 2, 0.66986
191, 2, bw, filler, NA, 999, 999, 1, 18, 132, 135, 195, 169, 91, 169, 3, 0.553729
191, 2, bw, filler, NA, 999, 999, 1, 19, 94, 101, 158, 139, 82, 81, 2, 0.705488
191, 2, bw, filler, NA, 999, 999, 1, 19, 94, 101, 158, 139, 82, 81, 3, 0.411938
191, 2, bw, attraction, a-b-da, 9, 1, 1, 20, 135, 60, 129, 57, 60, 135, 3, 1.12905
191, 2, bw, attraction, a-b-da, 9, 1, 1, 20, 135, 60, 129, 57, 60, 135, 2, 0.626662
191, 2, bw, attraction, a-b-db, 2, 1, 1, 21, 135, 60, 59, 134, 60, 135, 3, 1.23112
191, 2, bw, attraction, a-b-db, 2, 1, 1, 21, 135, 60, 59, 134, 60, 135, 2, 0.308574
191, 2, bw, filler, NA, 999, 999, 1, 22, 89, 81, 137, 185, 180, 71, 2, 0.58176
191, 2, bw, filler, NA, 999, 999, 1, 22, 89, 81, 137, 185, 180, 71, 1, 0.437191
191, 2, bw, attraction, a-b-db, 2, 2, 1, 23, 90, 165, 165, 90, 89, 163, 3, 0.770121
191, 2, bw, attraction, a-b-db, 2, 2, 1, 23, 90, 165, 165, 90, 89, 163, 2, 0.3298
191, 2, bw, attraction, a-b-db, 5, 1, 1, 24, 58, 132, 60, 135, 135, 60, 2, 1.43427
191, 2, bw, attraction, a-b-db, 5, 1, 1, 24, 58, 132, 60, 135, 135, 60, 3, 0.927875
191, 2, bw, attraction, a-b-da, 9, 2, 1, 25, 90, 165, 165, 90, 157, 86, 2, 2.08013
191, 2, bw, attraction, a-b-da, 9, 2, 1, 25, 90, 165, 165, 90, 157, 86, 3, 0.803434
191, 2, bw, catch, NA, 999, 999, 1, 26, 181, 134, 125, 70, 145, 110, 1, 0.561098
191, 2, bw, catch, NA, 999, 999, 1, 26, 181, 134, 125, 70, 145, 110, 2, 0.36161
191, 2, bw, attraction, a-b-da, 5, 2, 1, 27, 90, 165, 165, 90, 161, 88, 2, 0.592788
191, 2, bw, attraction, a-b-da, 5, 2, 1, 27, 90, 165, 165, 90, 161, 88, 3, 0.407929
191, 2, bw, attraction, a-b-da, 2, 2, 1, 28, 90, 165, 163, 89, 165, 90, 1, 1.27703
191, 2, bw, attraction, a-b-da, 2, 2, 1, 28, 90, 165, 163, 89, 165, 90, 2, 0.73672
191, 2, bw, attraction, a-b-da, 14, 3, 1, 29, 195, 120, 181, 111, 120, 195, 3, 2.46522
191, 2, bw, attraction, a-b-da, 14, 3, 1, 29, 195, 120, 181, 111, 120, 195, 2, 0.260867
191, 2, bw, attraction, a-b-db, 5, 3, 1, 30, 120, 195, 117, 190, 195, 120, 2, 0.992049
191, 2, bw, attraction, a-b-db, 5, 3, 1, 30, 120, 195, 117, 190, 195, 120, 3, 0.471072
191, 2, bw, filler, NA, 999, 999, 1, 31, 178, 139, 65, 60, 117, 143, 1, 0.826141
191, 2, bw, filler, NA, 999, 999, 1, 31, 178, 139, 65, 60, 117, 143, 2, 0.263899
191, 2, bw, filler, NA, 999, 999, 1, 32, 111, 74, 135, 142, 163, 154, 3, 0.851026
191, 2, bw, filler, NA, 999, 999, 1, 32, 111, 74, 135, 142, 163, 154, 1, 0.400138
191, 2, bw, catch, NA, 999, 999, 1, 33, 122, 73, 137, 178, 161, 94, 2, 0.477917
191, 2, bw, catch, NA, 999, 999, 1, 33, 122, 73, 137, 178, 161, 94, 1, 0.409737
191, 2, bw, attraction, a-b-da, 2, 3, 1, 34, 195, 120, 120, 195, 193, 119, 1, 1.55097
191, 2, bw, attraction, a-b-da, 2, 3, 1, 34, 195, 120, 120, 195, 193, 119, 3, 0.383779
191, 2, bw, attraction, a-b-da, 2, 1, 1, 35, 134, 59, 60, 135, 135, 60, 1, 2.7583
191, 2, bw, attraction, a-b-da, 2, 1, 1, 35, 134, 59, 60, 135, 135, 60, 3, 0.390007
191, 2, bw, attraction, a-b-db, 9, 1, 1, 36, 60, 135, 135, 60, 57, 129, 1, 1.0758
191, 2, bw, attraction, a-b-db, 9, 1, 1, 36, 60, 135, 135, 60, 57, 129, 3, 0.59144
191, 2, bw, attraction, a-b-db, 14, 1, 1, 37, 56, 125, 135, 60, 60, 135, 2, 0.805229
191, 2, bw, attraction, a-b-db, 14, 1, 1, 37, 56, 125, 135, 60, 60, 135, 1, 0.523544
191, 2, bw, filler, NA, 999, 999, 2, 1, 158, 124, 113, 92, 117, 58, 1, 0.635994
191, 2, bw, filler, NA, 999, 999, 2, 1, 158, 124, 113, 92, 117, 58, 3, 0.433833
191, 2, bw, attraction, a-b-db, 2, 3, 2, 2, 120, 195, 195, 120, 119, 193, 3, 0.734302
191, 2, bw, attraction, a-b-db, 2, 3, 2, 2, 120, 195, 195, 120, 119, 193, 1, 0.4002
191, 2, bw, attraction, a-b-da, 14, 3, 2, 3, 181, 111, 195, 120, 120, 195, 2, 0.637949
191, 2, bw, attraction, a-b-da, 14, 3, 2, 3, 181, 111, 195, 120, 120, 195, 1, 0.383785
191, 2, bw, attraction, a-b-da, 14, 2, 2, 4, 165, 90, 153, 83, 90, 165, 3, 0.785535
191, 2, bw, attraction, a-b-da, 14, 2, 2, 4, 165, 90, 153, 83, 90, 165, 2, 0.585244
191, 2, bw, catch, NA, 999, 999, 2, 5, 130, 125, 101, 94, 123, 192, 3, 0.999645
191, 2, bw, catch, NA, 999, 999, 2, 5, 130, 125, 101, 94, 123, 192, 2, 0.37458
191, 2, bw, filler, NA, 999, 999, 2, 6, 83, 115, 161, 154, 195, 108, 2, 0.541123
191, 2, bw, filler, NA, 999, 999, 2, 6, 83, 115, 161, 154, 195, 108, 1, 0.358218
191, 2, bw, filler, NA, 999, 999, 2, 7, 150, 183, 122, 181, 168, 161, 1, 1.07735
191, 2, bw, filler, NA, 999, 999, 2, 7, 150, 183, 122, 181, 168, 161, 2, 0.297001
191, 2, bw, attraction, a-b-da, 14, 1, 2, 8, 135, 60, 125, 56, 60, 135, 3, 1.22696
191, 2, bw, attraction, a-b-da, 14, 1, 2, 8, 135, 60, 125, 56, 60, 135, 2, 0.504598
191, 2, bw, filler, NA, 999, 999, 2, 9, 187, 115, 90, 178, 153, 99, 1, 0.858332
191, 2, bw, filler, NA, 999, 999, 2, 9, 187, 115, 90, 178, 153, 99, 2, 0.83865
191, 2, bw, attraction, a-b-da, 5, 1, 2, 10, 132, 58, 135, 60, 60, 135, 3, 1.73894
191, 2, bw, attraction, a-b-da, 5, 1, 2, 10, 132, 58, 135, 60, 60, 135, 2, 0.603741
191, 2, bw, attraction, a-b-db, 9, 2, 2, 11, 90, 165, 165, 90, 86, 157, 1, 1.25746
191, 2, bw, attraction, a-b-db, 9, 2, 2, 11, 90, 165, 165, 90, 86, 157, 2, 0.325758
191, 2, bw, attraction, a-b-db, 2, 2, 2, 12, 165, 90, 90, 165, 89, 163, 2, 0.838205
191, 2, bw, attraction, a-b-db, 2, 2, 2, 12, 165, 90, 90, 165, 89, 163, 1, 0.363306
191, 2, bw, attraction, a-b-da, 5, 3, 2, 13, 120, 195, 195, 120, 190, 117, 1, 1.42665
191, 2, bw, attraction, a-b-da, 5, 3, 2, 13, 120, 195, 195, 120, 190, 117, 3, 0.495991
191, 2, bw, attraction, a-b-db, 2, 1, 2, 14, 59, 134, 135, 60, 60, 135, 3, 1.13779
191, 2, bw, attraction, a-b-db, 2, 1, 2, 14, 59, 134, 135, 60, 60, 135, 1, 0.386712
191, 2, bw, catch, NA, 999, 999, 2, 15, 80, 115, 95, 160, 176, 139, 3, 0.697209
191, 2, bw, catch, NA, 999, 999, 2, 15, 80, 115, 95, 160, 176, 139, 1, 0.772249
191, 2, bw, attraction, a-b-da, 2, 2, 2, 16, 163, 89, 165, 90, 90, 165, 1, 1.07527
191, 2, bw, attraction, a-b-da, 2, 2, 2, 16, 163, 89, 165, 90, 90, 165, 3, 0.358911
191, 2, bw, attraction, a-b-db, 9, 3, 2, 17, 195, 120, 114, 186, 120, 195, 1, 0.854044
191, 2, bw, attraction, a-b-db, 9, 3, 2, 17, 195, 120, 114, 186, 120, 195, 3, 0.54644
191, 2, bw, catch, NA, 999, 999, 2, 18, 84, 111, 118, 137, 167, 148, 3, 0.618302
191, 2, bw, catch, NA, 999, 999, 2, 18, 84, 111, 118, 137, 167, 148, 1, 0.360731
191, 2, bw, attraction, a-b-da, 2, 1, 2, 19, 135, 60, 60, 135, 134, 59, 1, 0.823793
191, 2, bw, attraction, a-b-da, 2, 1, 2, 19, 135, 60, 60, 135, 134, 59, 2, 0.405782
191, 2, bw, attraction, a-b-da, 9, 2, 2, 20, 157, 86, 165, 90, 90, 165, 3, 0.899451
191, 2, bw, attraction, a-b-da, 9, 2, 2, 20, 157, 86, 165, 90, 90, 165, 1, 0.382453
191, 2, bw, attraction, a-b-db, 14, 1, 2, 21, 135, 60, 56, 125, 60, 135, 3, 1.57294
191, 2, bw, attraction, a-b-db, 14, 1, 2, 21, 135, 60, 56, 125, 60, 135, 2, 0.340449
191, 2, bw, attraction, a-b-da, 9, 1, 2, 22, 135, 60, 129, 57, 60, 135, 1, 0.932276
191, 2, bw, attraction, a-b-da, 9, 1, 2, 22, 135, 60, 129, 57, 60, 135, 2, 0.725967
191, 2, bw, attraction, a-b-db, 5, 2, 2, 23, 90, 165, 165, 90, 88, 161, 2, 1.21429
191, 2, bw, attraction, a-b-db, 5, 2, 2, 23, 90, 165, 165, 90, 88, 161, 3, 0.47665
191, 2, bw, attraction, a-b-da, 2, 3, 2, 24, 195, 120, 193, 119, 120, 195, 3, 1.65502
191, 2, bw, attraction, a-b-da, 2, 3, 2, 24, 195, 120, 193, 119, 120, 195, 1, 0.619143
191, 2, bw, attraction, a-b-db, 5, 1, 2, 25, 135, 60, 58, 132, 60, 135, 1, 1.00026
191, 2, bw, attraction, a-b-db, 5, 1, 2, 25, 135, 60, 58, 132, 60, 135, 3, 0.351394
191, 2, bw, filler, NA, 999, 999, 2, 26, 174, 71, 158, 154, 157, 100, 2, 0.511047
191, 2, bw, filler, NA, 999, 999, 2, 26, 174, 71, 158, 154, 157, 100, 1, 0.353575
191, 2, bw, filler, NA, 999, 999, 2, 27, 103, 178, 164, 71, 87, 79, 1, 0.585327
191, 2, bw, filler, NA, 999, 999, 2, 27, 103, 178, 164, 71, 87, 79, 3, 0.985183
191, 2, bw, filler, NA, 999, 999, 2, 28, 164, 106, 171, 156, 133, 62, 2, 0.703411
191, 2, bw, filler, NA, 999, 999, 2, 28, 164, 106, 171, 156, 133, 62, 3, 0.410525
191, 2, bw, filler, NA, 999, 999, 2, 29, 183, 68, 80, 98, 69, 133, 1, 1.65571
191, 2, bw, filler, NA, 999, 999, 2, 29, 183, 68, 80, 98, 69, 133, 2, 0.35582
191, 2, bw, attraction, a-b-da, 9, 3, 2, 30, 186, 114, 120, 195, 195, 120, 2, 1.32364
191, 2, bw, attraction, a-b-da, 9, 3, 2, 30, 186, 114, 120, 195, 195, 120, 1, 0.341117
191, 2, bw, attraction, a-b-db, 14, 2, 2, 31, 165, 90, 90, 165, 83, 153, 3, 1.66098
191, 2, bw, attraction, a-b-db, 14, 2, 2, 31, 165, 90, 90, 165, 83, 153, 1, 0.297273
191, 2, bw, attraction, a-b-da, 5, 2, 2, 32, 90, 165, 161, 88, 165, 90, 1, 1.5149
191, 2, bw, attraction, a-b-da, 5, 2, 2, 32, 90, 165, 161, 88, 165, 90, 2, 0.70113
191, 2, bw, attraction, a-b-db, 14, 3, 2, 33, 120, 195, 195, 120, 111, 181, 2, 0.815057
191, 2, bw, attraction, a-b-db, 14, 3, 2, 33, 120, 195, 195, 120, 111, 181, 3, 1.20533
191, 2, bw, filler, NA, 999, 999, 2, 34, 105, 111, 135, 114, 112, 195, 3, 0.93082
191, 2, bw, filler, NA, 999, 999, 2, 34, 105, 111, 135, 114, 112, 195, 1, 0.356456
191, 2, bw, filler, NA, 999, 999, 2, 35, 144, 116, 166, 117, 185, 99, 2, 0.899837
191, 2, bw, filler, NA, 999, 999, 2, 35, 144, 116, 166, 117, 185, 99, 3, 0.29468
191, 2, bw, attraction, a-b-db, 5, 3, 2, 36, 195, 120, 120, 195, 117, 190, 1, 4.00049
191, 2, bw, attraction, a-b-db, 5, 3, 2, 36, 195, 120, 120, 195, 117, 190, 2, 0.262542
191, 2, bw, attraction, a-b-db, 9, 1, 2, 37, 60, 135, 57, 129, 135, 60, 3, 2.39385
191, 2, bw, attraction, a-b-db, 9, 1, 2, 37, 60, 135, 57, 129, 135, 60, 2, 0.728355
191, 2, bw, attraction, a-b-db, 9, 1, 3, 1, 60, 135, 57, 129, 135, 60, 1, 1.5688
191, 2, bw, attraction, a-b-db, 9, 1, 3, 1, 60, 135, 57, 129, 135, 60, 2, 0.328855
191, 2, bw, attraction, a-b-db, 14, 2, 3, 2, 83, 153, 90, 165, 165, 90, 2, 1.19344
191, 2, bw, attraction, a-b-db, 14, 2, 3, 2, 83, 153, 90, 165, 165, 90, 1, 0.464352
191, 2, bw, attraction, a-b-da, 9, 1, 3, 3, 135, 60, 60, 135, 129, 57, 1, 2.13156
191, 2, bw, attraction, a-b-da, 9, 1, 3, 3, 135, 60, 60, 135, 129, 57, 3, 0.540849
191, 2, bw, attraction, a-b-da, 5, 1, 3, 4, 135, 60, 132, 58, 60, 135, 1, 4.07666
191, 2, bw, attraction, a-b-da, 5, 1, 3, 4, 135, 60, 132, 58, 60, 135, 2, 0.535318
191, 2, bw, filler, NA, 999, 999, 3, 5, 183, 81, 180, 78, 65, 169, 1, 1.67975
191, 2, bw, filler, NA, 999, 999, 3, 5, 183, 81, 180, 78, 65, 169, 2, 0.323138
191, 2, bw, attraction, a-b-da, 9, 2, 3, 6, 157, 86, 90, 165, 165, 90, 2, 6.09173
191, 2, bw, attraction, a-b-da, 9, 2, 3, 6, 157, 86, 90, 165, 165, 90, 1, 1.07723
191, 2, bw, catch, NA, 999, 999, 3, 7, 169, 146, 127, 68, 142, 113, 1, 0.719246
191, 2, bw, catch, NA, 999, 999, 3, 7, 169, 146, 127, 68, 142, 113, 2, 0.521672
191, 2, bw, catch, NA, 999, 999, 3, 8, 135, 120, 94, 101, 157, 158, 3, 0.658986
191, 2, bw, catch, NA, 999, 999, 3, 8, 135, 120, 94, 101, 157, 158, 2, 0.295316
191, 2, bw, attraction, a-b-db, 2, 2, 3, 9, 165, 90, 90, 165, 89, 163, 1, 1.9212
191, 2, bw, attraction, a-b-db, 2, 2, 3, 9, 165, 90, 90, 165, 89, 163, 2, 1.27456
191, 2, bw, attraction, a-b-da, 14, 2, 3, 10, 165, 90, 90, 165, 153, 83, 2, 3.63668
191, 2, bw, attraction, a-b-da, 14, 2, 3, 10, 165, 90, 90, 165, 153, 83, 3, 0.313507
191, 2, bw, attraction, a-b-da, 5, 2, 3, 11, 90, 165, 165, 90, 161, 88, 1, 1.89874
191, 2, bw, attraction, a-b-da, 5, 2, 3, 11, 90, 165, 165, 90, 161, 88, 3, 0.605426
191, 2, bw, attraction, a-b-db, 9, 2, 3, 12, 165, 90, 86, 157, 90, 165, 3, 0.963261
191, 2, bw, attraction, a-b-db, 9, 2, 3, 12, 165, 90, 86, 157, 90, 165, 2, 0.859482
191, 2, bw, filler, NA, 999, 999, 3, 13, 60, 171, 146, 141, 129, 66, 2, 0.510434
191, 2, bw, filler, NA, 999, 999, 3, 13, 60, 171, 146, 141, 129, 66, 3, 0.697093
191, 2, bw, filler, NA, 999, 999, 3, 14, 157, 191, 103, 149, 94, 140, 1, 0.466651
191, 2, bw, filler, NA, 999, 999, 3, 14, 157, 191, 103, 149, 94, 140, 3, 0.399322
191, 2, bw, attraction, a-b-da, 2, 2, 3, 15, 90, 165, 163, 89, 165, 90, 2, 0.717086
191, 2, bw, attraction, a-b-da, 2, 2, 3, 15, 90, 165, 163, 89, 165, 90, 1, 0.360257
191, 2, bw, attraction, a-b-da, 2, 1, 3, 16, 135, 60, 60, 135, 134, 59, 2, 1.44656
191, 2, bw, attraction, a-b-da, 2, 1, 3, 16, 135, 60, 60, 135, 134, 59, 3, 0.851664
191, 2, bw, attraction, a-b-db, 5, 2, 3, 17, 90, 165, 165, 90, 88, 161, 1, 1.02313
191, 2, bw, attraction, a-b-db, 5, 2, 3, 17, 90, 165, 165, 90, 88, 161, 2, 0.332837
191, 2, bw, attraction, a-b-da, 9, 3, 3, 18, 195, 120, 186, 114, 120, 195, 3, 0.981336
191, 2, bw, attraction, a-b-da, 9, 3, 3, 18, 195, 120, 186, 114, 120, 195, 2, 0.348956
191, 2, bw, filler, NA, 999, 999, 3, 19, 124, 110, 147, 150, 161, 162, 3, 0.62078
191, 2, bw, filler, NA, 999, 999, 3, 19, 124, 110, 147, 150, 161, 162, 1, 0.498712
191, 2, bw, filler, NA, 999, 999, 3, 20, 160, 183, 118, 97, 79, 148, 1, 0.580311
191, 2, bw, filler, NA, 999, 999, 3, 20, 160, 183, 118, 97, 79, 148, 3, 0.340128
191, 2, bw, attraction, a-b-da, 5, 3, 3, 21, 120, 195, 190, 117, 195, 120, 1, 1.17993
191, 2, bw, attraction, a-b-da, 5, 3, 3, 21, 120, 195, 190, 117, 195, 120, 3, 0.483589
191, 2, bw, filler, NA, 999, 999, 3, 22, 162, 123, 193, 117, 115, 132, 2, 0.774042
191, 2, bw, filler, NA, 999, 999, 3, 22, 162, 123, 193, 117, 115, 132, 3, 0.685774
191, 2, bw, attraction, a-b-db, 2, 1, 3, 23, 59, 134, 60, 135, 135, 60, 1, 2.23217
191, 2, bw, attraction, a-b-db, 2, 1, 3, 23, 59, 134, 60, 135, 135, 60, 3, 0.429483
191, 2, bw, attraction, a-b-db, 14, 3, 3, 24, 195, 120, 111, 181, 120, 195, 3, 4.04192
191, 2, bw, attraction, a-b-db, 14, 3, 3, 24, 195, 120, 111, 181, 120, 195, 2, 0.301956
191, 2, bw, attraction, a-b-db, 5, 3, 3, 25, 117, 190, 120, 195, 195, 120, 3, 2.3198
191, 2, bw, attraction, a-b-db, 5, 3, 3, 25, 117, 190, 120, 195, 195, 120, 2, 1.04185
191, 2, bw, filler, NA, 999, 999, 3, 26, 151, 118, 87, 97, 139, 188, 3, 1.4373
191, 2, bw, filler, NA, 999, 999, 3, 26, 151, 118, 87, 97, 139, 188, 2, 0.314919
191, 2, bw, attraction, a-b-db, 5, 1, 3, 27, 60, 135, 135, 60, 58, 132, 2, 2.4282
191, 2, bw, attraction, a-b-db, 5, 1, 3, 27, 60, 135, 135, 60, 58, 132, 1, 0.881248
191, 2, bw, attraction, a-b-da, 2, 3, 3, 28, 195, 120, 193, 119, 120, 195, 3, 10.6196
191, 2, bw, attraction, a-b-da, 2, 3, 3, 28, 195, 120, 193, 119, 120, 195, 2, 0.246902
191, 2, bw, filler, NA, 999, 999, 3, 29, 94, 107, 120, 170, 121, 77, 2, 0.610878
191, 2, bw, filler, NA, 999, 999, 3, 29, 94, 107, 120, 170, 121, 77, 1, 0.249197
191, 2, bw, attraction, a-b-da, 14, 1, 3, 30, 135, 60, 125, 56, 60, 135, 1, 1.30109
191, 2, bw, attraction, a-b-da, 14, 1, 3, 30, 135, 60, 125, 56, 60, 135, 2, 0.512026
191, 2, bw, attraction, a-b-da, 14, 3, 3, 31, 181, 111, 120, 195, 195, 120, 2, 1.23307
191, 2, bw, attraction, a-b-da, 14, 3, 3, 31, 181, 111, 120, 195, 195, 120, 1, 0.406672
191, 2, bw, attraction, a-b-db, 2, 3, 3, 32, 120, 195, 195, 120, 119, 193, 3, 3.05205
191, 2, bw, attraction, a-b-db, 2, 3, 3, 32, 120, 195, 195, 120, 119, 193, 2, 0.3682
191, 2, bw, filler, NA, 999, 999, 3, 33, 180, 134, 152, 79, 75, 63, 1, 0.679378
191, 2, bw, filler, NA, 999, 999, 3, 33, 180, 134, 152, 79, 75, 63, 3, 0.219161
191, 2, bw, filler, NA, 999, 999, 3, 34, 103, 149, 91, 159, 78, 133, 2, 1.10435
191, 2, bw, filler, NA, 999, 999, 3, 34, 103, 149, 91, 159, 78, 133, 3, 0.418818
191, 2, bw, attraction, a-b-db, 14, 1, 3, 35, 60, 135, 135, 60, 56, 125, 1, 1.51995
191, 2, bw, attraction, a-b-db, 14, 1, 3, 35, 60, 135, 135, 60, 56, 125, 2, 0.561892
191, 2, bw, attraction, a-b-db, 9, 3, 3, 36, 120, 195, 114, 186, 195, 120, 2, 1.0971
191, 2, bw, attraction, a-b-db, 9, 3, 3, 36, 120, 195, 114, 186, 195, 120, 3, 0.300001
191, 2, bw, catch, NA, 999, 999, 3, 37, 158, 97, 135, 60, 171, 144, 3, 0.749864
191, 2, bw, catch, NA, 999, 999, 3, 37, 158, 97, 135, 60, 171, 144, 2, 0.230932
191, 2, bw, attraction, a-b-da, 14, 2, 4, 1, 165, 90, 90, 165, 153, 83, 2, 1.30747
191, 2, bw, attraction, a-b-da, 14, 2, 4, 1, 165, 90, 90, 165, 153, 83, 3, 0.517714
191, 2, bw, attraction, a-b-db, 2, 1, 4, 2, 135, 60, 59, 134, 60, 135, 2, 1.13483
191, 2, bw, attraction, a-b-db, 2, 1, 4, 2, 135, 60, 59, 134, 60, 135, 1, 0.600454
191, 2, bw, filler, NA, 999, 999, 4, 3, 182, 131, 187, 190, 175, 111, 2, 0.550287
191, 2, bw, filler, NA, 999, 999, 4, 3, 182, 131, 187, 190, 175, 111, 3, 0.287328
191, 2, bw, attraction, a-b-da, 9, 2, 4, 4, 90, 165, 165, 90, 157, 86, 1, 1.47385
191, 2, bw, attraction, a-b-da, 9, 2, 4, 4, 90, 165, 165, 90, 157, 86, 2, 1.36533
191, 2, bw, filler, NA, 999, 999, 4, 5, 193, 105, 132, 167, 97, 100, 2, 1.42016
191, 2, bw, filler, NA, 999, 999, 4, 5, 193, 105, 132, 167, 97, 100, 3, 0.202421
191, 2, bw, catch, NA, 999, 999, 4, 6, 62, 133, 185, 130, 156, 99, 2, 0.896312
191, 2, bw, catch, NA, 999, 999, 4, 6, 62, 133, 185, 130, 156, 99, 1, 0.755434
191, 2, bw, filler, NA, 999, 999, 4, 7, 163, 193, 133, 121, 130, 106, 1, 0.547124
191, 2, bw, filler, NA, 999, 999, 4, 7, 163, 193, 133, 121, 130, 106, 3, 0.26016
191, 2, bw, attraction, a-b-da, 2, 2, 4, 8, 90, 165, 163, 89, 165, 90, 3, 1.63935
191, 2, bw, attraction, a-b-da, 2, 2, 4, 8, 90, 165, 163, 89, 165, 90, 1, 0.29216
191, 2, bw, filler, NA, 999, 999, 4, 9, 189, 88, 92, 172, 110, 182, 3, 1.3421
191, 2, bw, filler, NA, 999, 999, 4, 9, 189, 88, 92, 172, 110, 182, 2, 0.878865
191, 2, bw, attraction, a-b-db, 2, 2, 4, 10, 90, 165, 89, 163, 165, 90, 3, 4.47327
191, 2, bw, attraction, a-b-db, 2, 2, 4, 10, 90, 165, 89, 163, 165, 90, 2, 0.571769
191, 2, bw, attraction, a-b-da, 2, 3, 4, 11, 195, 120, 120, 195, 193, 119, 2, 1.34687
191, 2, bw, attraction, a-b-da, 2, 3, 4, 11, 195, 120, 120, 195, 193, 119, 3, 0.195738
191, 2, bw, attraction, a-b-da, 14, 3, 4, 12, 120, 195, 181, 111, 195, 120, 3, 1.6896
191, 2, bw, attraction, a-b-da, 14, 3, 4, 12, 120, 195, 181, 111, 195, 120, 2, 1.02839
191, 2, bw, filler, NA, 999, 999, 4, 13, 152, 167, 98, 62, 150, 112, 1, 0.816642
191, 2, bw, filler, NA, 999, 999, 4, 13, 152, 167, 98, 62, 150, 112, 2, 0.223064
191, 2, bw, attraction, a-b-da, 14, 1, 4, 14, 125, 56, 135, 60, 60, 135, 2, 0.723628
191, 2, bw, attraction, a-b-da, 14, 1, 4, 14, 125, 56, 135, 60, 60, 135, 1, 0.22938
191, 2, bw, filler, NA, 999, 999, 4, 15, 122, 159, 96, 139, 146, 76, 1, 1.20985
191, 2, bw, filler, NA, 999, 999, 4, 15, 122, 159, 96, 139, 146, 76, 3, 0.312119
191, 2, bw, attraction, a-b-db, 2, 3, 4, 16, 195, 120, 119, 193, 120, 195, 2, 1.17754
191, 2, bw, attraction, a-b-db, 2, 3, 4, 16, 195, 120, 119, 193, 120, 195, 1, 2.25699
191, 2, bw, attraction, a-b-db, 5, 2, 4, 17, 90, 165, 88, 161, 165, 90, 2, 2.52345
191, 2, bw, attraction, a-b-db, 5, 2, 4, 17, 90, 165, 88, 161, 165, 90, 3, 0.220659
191, 2, bw, attraction, a-b-db, 9, 1, 4, 18, 60, 135, 135, 60, 57, 129, 1, 3.47385
191, 2, bw, attraction, a-b-db, 9, 1, 4, 18, 60, 135, 135, 60, 57, 129, 3, 0.420834
191, 2, bw, filler, NA, 999, 999, 4, 19, 162, 76, 193, 134, 123, 121, 2, 0.657876
191, 2, bw, filler, NA, 999, 999, 4, 19, 162, 76, 193, 134, 123, 121, 1, 6.15043
191, 2, bw, attraction, a-b-da, 9, 3, 4, 20, 195, 120, 186, 114, 120, 195, 1, 2.10841
191, 2, bw, attraction, a-b-da, 9, 3, 4, 20, 195, 120, 186, 114, 120, 195, 2, 0.47036
191, 2, bw, attraction, a-b-db, 9, 3, 4, 21, 114, 186, 120, 195, 195, 120, 2, 1.46559
191, 2, bw, attraction, a-b-db, 9, 3, 4, 21, 114, 186, 120, 195, 195, 120, 1, 0.221738
191, 2, bw, filler, NA, 999, 999, 4, 22, 174, 164, 190, 159, 178, 177, 3, 1.75493
191, 2, bw, filler, NA, 999, 999, 4, 22, 174, 164, 190, 159, 178, 177, 1, 0.195112
191, 2, bw, attraction, a-b-da, 5, 1, 4, 23, 60, 135, 135, 60, 132, 58, 1, 1.85688
191, 2, bw, attraction, a-b-da, 5, 1, 4, 23, 60, 135, 135, 60, 132, 58, 3, 0.421021
191, 2, bw, filler, NA, 999, 999, 4, 24, 142, 143, 170, 172, 99, 127, 2, 0.586097
191, 2, bw, filler, NA, 999, 999, 4, 24, 142, 143, 170, 172, 99, 127, 3, 0.23385
191, 2, bw, catch, NA, 999, 999, 4, 25, 147, 168, 128, 127, 121, 74, 1, 0.806421
191, 2, bw, catch, NA, 999, 999, 4, 25, 147, 168, 128, 127, 121, 74, 3, 0.828789
191, 2, bw, filler, NA, 999, 999, 4, 26, 163, 134, 128, 156, 84, 94, 2, 0.977136
191, 2, bw, filler, NA, 999, 999, 4, 26, 163, 134, 128, 156, 84, 94, 3, 0.472799
191, 2, bw, attraction, a-b-db, 9, 2, 4, 27, 165, 90, 86, 157, 90, 165, 3, 1.4752
191, 2, bw, attraction, a-b-db, 9, 2, 4, 27, 165, 90, 86, 157, 90, 165, 2, 0.590762
191, 2, bw, attraction, a-b-db, 14, 2, 4, 28, 165, 90, 83, 153, 90, 165, 3, 1.84457
191, 2, bw, attraction, a-b-db, 14, 2, 4, 28, 165, 90, 83, 153, 90, 165, 2, 0.225362
191, 2, bw, attraction, a-b-da, 5, 2, 4, 29, 165, 90, 161, 88, 90, 165, 1, 2.46992
191, 2, bw, attraction, a-b-da, 5, 2, 4, 29, 165, 90, 161, 88, 90, 165, 2, 0.56178
191, 2, bw, attraction, a-b-db, 5, 3, 4, 30, 117, 190, 120, 195, 195, 120, 2, 1.80876
191, 2, bw, attraction, a-b-db, 5, 3, 4, 30, 117, 190, 120, 195, 195, 120, 3, 0.246757
191, 2, bw, attraction, a-b-da, 9, 1, 4, 31, 60, 135, 135, 60, 129, 57, 1, 1.87477
191, 2, bw, attraction, a-b-da, 9, 1, 4, 31, 60, 135, 135, 60, 129, 57, 2, 0.398076
191, 2, bw, catch, NA, 999, 999, 4, 32, 177, 138, 155, 100, 134, 61, 1, 0.683915
191, 2, bw, catch, NA, 999, 999, 4, 32, 177, 138, 155, 100, 134, 61, 3, 0.359698
191, 2, bw, attraction, a-b-da, 5, 3, 4, 33, 190, 117, 195, 120, 120, 195, 3, 0.958847
191, 2, bw, attraction, a-b-da, 5, 3, 4, 33, 190, 117, 195, 120, 120, 195, 1, 0.519118
191, 2, bw, attraction, a-b-da, 2, 1, 4, 34, 60, 135, 134, 59, 135, 60, 1, 1.26429
191, 2, bw, attraction, a-b-da, 2, 1, 4, 34, 60, 135, 134, 59, 135, 60, 2, 0.580499
191, 2, bw, attraction, a-b-db, 14, 3, 4, 35, 195, 120, 111, 181, 120, 195, 3, 1.05091
191, 2, bw, attraction, a-b-db, 14, 3, 4, 35, 195, 120, 111, 181, 120, 195, 1, 0.559892
191, 2, bw, attraction, a-b-db, 14, 1, 4, 36, 60, 135, 56, 125, 135, 60, 1, 1.26297
191, 2, bw, attraction, a-b-db, 14, 1, 4, 36, 60, 135, 56, 125, 135, 60, 3, 0.603184
191, 2, bw, attraction, a-b-db, 5, 1, 4, 37, 60, 135, 135, 60, 58, 132, 1, 1.06497
191, 2, bw, attraction, a-b-db, 5, 1, 4, 37, 60, 135, 135, 60, 58, 132, 3, 1.86132
191, 2, bw, attraction, a-b-da, 2, 2, 5, 1, 90, 165, 165, 90, 163, 89, 1, 3.18259
191, 2, bw, attraction, a-b-da, 2, 2, 5, 1, 90, 165, 165, 90, 163, 89, 3, 0.261621
191, 2, bw, filler, NA, 999, 999, 5, 2, 121, 116, 97, 175, 68, 116, 2, 0.624737
191, 2, bw, filler, NA, 999, 999, 5, 2, 121, 116, 97, 175, 68, 116, 3, 0.278565
191, 2, bw, filler, NA, 999, 999, 5, 3, 139, 109, 65, 175, 86, 171, 1, 1.76925
191, 2, bw, filler, NA, 999, 999, 5, 3, 139, 109, 65, 175, 86, 171, 2, 0.577209
191, 2, bw, attraction, a-b-da, 9, 1, 5, 4, 60, 135, 135, 60, 129, 57, 1, 1.3196
191, 2, bw, attraction, a-b-da, 9, 1, 5, 4, 60, 135, 135, 60, 129, 57, 3, 0.601817
191, 2, bw, attraction, a-b-db, 9, 1, 5, 5, 135, 60, 57, 129, 60, 135, 3, 3.08766
191, 2, bw, attraction, a-b-db, 9, 1, 5, 5, 135, 60, 57, 129, 60, 135, 2, 0.241887
191, 2, bw, catch, NA, 999, 999, 5, 6, 121, 134, 193, 122, 98, 97, 2, 0.549848
191, 2, bw, catch, NA, 999, 999, 5, 6, 121, 134, 193, 122, 98, 97, 3, 0.223003
191, 2, bw, attraction, a-b-db, 14, 1, 5, 7, 60, 135, 56, 125, 135, 60, 1, 2.24347
191, 2, bw, attraction, a-b-db, 14, 1, 5, 7, 60, 135, 56, 125, 135, 60, 3, 0.512053
191, 2, bw, attraction, a-b-db, 5, 1, 5, 8, 58, 132, 60, 135, 135, 60, 2, 0.969132
191, 2, bw, attraction, a-b-db, 5, 1, 5, 8, 58, 132, 60, 135, 135, 60, 3, 0.809582
191, 2, bw, attraction, a-b-da, 5, 1, 5, 9, 135, 60, 60, 135, 132, 58, 2, 1.35068
191, 2, bw, attraction, a-b-da, 5, 1, 5, 9, 135, 60, 60, 135, 132, 58, 3, 0.551408
191, 2, bw, attraction, a-b-da, 5, 3, 5, 10, 190, 117, 195, 120, 120, 195, 1, 4.43117
191, 2, bw, attraction, a-b-da, 5, 3, 5, 10, 190, 117, 195, 120, 120, 195, 2, 0.179773
191, 2, bw, attraction, a-b-db, 5, 2, 5, 11, 88, 161, 165, 90, 90, 165, 3, 2.9463
191, 2, bw, attraction, a-b-db, 5, 2, 5, 11, 88, 161, 165, 90, 90, 165, 2, 0.642817
191, 2, bw, attraction, a-b-db, 9, 2, 5, 12, 86, 157, 165, 90, 90, 165, 3, 1.26243
191, 2, bw, attraction, a-b-db, 9, 2, 5, 12, 86, 157, 165, 90, 90, 165, 2, 0.41881
191, 2, bw, filler, NA, 999, 999, 5, 13, 67, 132, 127, 110, 122, 59, 2, 0.823912
191, 2, bw, filler, NA, 999, 999, 5, 13, 67, 132, 127, 110, 122, 59, 1, 1.82161
191, 2, bw, attraction, a-b-db, 2, 3, 5, 14, 195, 120, 119, 193, 120, 195, 3, 4.11429
191, 2, bw, attraction, a-b-db, 2, 3, 5, 14, 195, 120, 119, 193, 120, 195, 1, 2.89963
191, 2, bw, attraction, a-b-db, 9, 3, 5, 15, 114, 186, 120, 195, 195, 120, 2, 2.29284
191, 2, bw, attraction, a-b-db, 9, 3, 5, 15, 114, 186, 120, 195, 195, 120, 1, 1.52738
191, 2, bw, attraction, a-b-da, 5, 2, 5, 16, 161, 88, 90, 165, 165, 90, 2, 1.92748
191, 2, bw, attraction, a-b-da, 5, 2, 5, 16, 161, 88, 90, 165, 165, 90, 1, 0.224795
191, 2, bw, filler, NA, 999, 999, 5, 17, 135, 113, 137, 170, 58, 183, 2, 0.853287
191, 2, bw, filler, NA, 999, 999, 5, 17, 135, 113, 137, 170, 58, 183, 3, 3.62641
191, 2, bw, filler, NA, 999, 999, 5, 18, 91, 102, 72, 118, 72, 155, 3, 2.50179
191, 2, bw, filler, NA, 999, 999, 5, 18, 91, 102, 72, 118, 72, 155, 2, 0.216306
191, 2, bw, attraction, a-b-db, 2, 1, 5, 19, 135, 60, 60, 135, 59, 134, 2, 2.92559
191, 2, bw, attraction, a-b-db, 2, 1, 5, 19, 135, 60, 60, 135, 59, 134, 3, 0.246594
191, 2, bw, filler, NA, 999, 999, 5, 20, 161, 125, 142, 183, 125, 180, 2, 0.986528
191, 2, bw, filler, NA, 999, 999, 5, 20, 161, 125, 142, 183, 125, 180, 1, 6.0575
191, 2, bw, attraction, a-b-db, 14, 2, 5, 21, 90, 165, 83, 153, 165, 90, 1, 3.38751
191, 2, bw, attraction, a-b-db, 14, 2, 5, 21, 90, 165, 83, 153, 165, 90, 3, 0.273906
191, 2, bw, attraction, a-b-db, 14, 3, 5, 22, 195, 120, 111, 181, 120, 195, 3, 1.88428
191, 2, bw, attraction, a-b-db, 14, 3, 5, 22, 195, 120, 111, 181, 120, 195, 2, 0.567676
191, 2, bw, attraction, a-b-db, 2, 2, 5, 23, 90, 165, 165, 90, 89, 163, 3, 4.05479
191, 2, bw, attraction, a-b-db, 2, 2, 5, 23, 90, 165, 165, 90, 89, 163, 2, 0.426149
191, 2, bw, filler, NA, 999, 999, 5, 24, 163, 149, 171, 91, 62, 131, 1, 0.974613
191, 2, bw, filler, NA, 999, 999, 5, 24, 163, 149, 171, 91, 62, 131, 3, 0.22222
191, 2, bw, attraction, a-b-da, 14, 2, 5, 25, 153, 83, 90, 165, 165, 90, 2, 1.3314
191, 2, bw, attraction, a-b-da, 14, 2, 5, 25, 153, 83, 90, 165, 165, 90, 1, 0.357062
191, 2, bw, attraction, a-b-da, 9, 2, 5, 26, 90, 165, 157, 86, 165, 90, 1, 2.22031
191, 2, bw, attraction, a-b-da, 9, 2, 5, 26, 90, 165, 157, 86, 165, 90, 2, 0.361421
191, 2, bw, attraction, a-b-db, 5, 3, 5, 27, 120, 195, 195, 120, 117, 190, 1, 3.80861
191, 2, bw, attraction, a-b-db, 5, 3, 5, 27, 120, 195, 195, 120, 117, 190, 3, 1.14211
191, 2, bw, catch, NA, 999, 999, 5, 28, 65, 130, 141, 174, 106, 149, 2, 0.653806
191, 2, bw, catch, NA, 999, 999, 5, 28, 65, 130, 141, 174, 106, 149, 1, 0.242018
191, 2, bw, attraction, a-b-da, 14, 1, 5, 29, 135, 60, 60, 135, 125, 56, 2, 4.61398
191, 2, bw, attraction, a-b-da, 14, 1, 5, 29, 135, 60, 60, 135, 125, 56, 3, 0.211159
191, 2, bw, filler, NA, 999, 999, 5, 30, 76, 72, 88, 153, 133, 147, 3, 0.600373
191, 2, bw, filler, NA, 999, 999, 5, 30, 76, 72, 88, 153, 133, 147, 1, 0.727513
191, 2, bw, attraction, a-b-da, 14, 3, 5, 31, 120, 195, 181, 111, 195, 120, 1, 3.19986
191, 2, bw, attraction, a-b-da, 14, 3, 5, 31, 120, 195, 181, 111, 195, 120, 2, 0.318207
191, 2, bw, filler, NA, 999, 999, 5, 32, 75, 67, 153, 160, 121, 127, 2, 0.51131
191, 2, bw, filler, NA, 999, 999, 5, 32, 75, 67, 153, 160, 121, 127, 1, 0.889846
191, 2, bw, attraction, a-b-da, 9, 3, 5, 33, 195, 120, 120, 195, 186, 114, 1, 2.81961
191, 2, bw, attraction, a-b-da, 9, 3, 5, 33, 195, 120, 120, 195, 186, 114, 3, 0.473257
191, 2, bw, attraction, a-b-da, 2, 3, 5, 34, 193, 119, 120, 195, 195, 120, 1, 4.63574
191, 2, bw, attraction, a-b-da, 2, 3, 5, 34, 193, 119, 120, 195, 195, 120, 3, 0.264216
191, 2, bw, catch, NA, 999, 999, 5, 35, 186, 129, 129, 126, 105, 90, 1, 1.4034
191, 2, bw, catch, NA, 999, 999, 5, 35, 186, 129, 129, 126, 105, 90, 3, 0.482316
191, 2, bw, filler, NA, 999, 999, 5, 36, 166, 64, 179, 94, 99, 165, 3, 0.868707
191, 2, bw, filler, NA, 999, 999, 5, 36, 166, 64, 179, 94, 99, 165, 1, 0.481239
191, 2, bw, attraction, a-b-da, 2, 1, 5, 37, 135, 60, 60, 135, 134, 59, 1, 5.50762
191, 2, bw, attraction, a-b-da, 2, 1, 5, 37, 135, 60, 60, 135, 134, 59, 2, 0.452581
191, 2, bw, attraction, a-b-db, 2, 3, 6, 1, 120, 195, 119, 193, 195, 120, 3, 1.32826
191, 2, bw, attraction, a-b-db, 2, 3, 6, 1, 120, 195, 119, 193, 195, 120, 1, 0.537923
191, 2, bw, attraction, a-b-da, 9, 2, 6, 2, 90, 165, 165, 90, 157, 86, 1, 3.18646
191, 2, bw, attraction, a-b-da, 9, 2, 6, 2, 90, 165, 165, 90, 157, 86, 3, 0.545263
191, 2, bw, filler, NA, 999, 999, 6, 3, 127, 60, 144, 160, 194, 76, 2, 0.577097
191, 2, bw, filler, NA, 999, 999, 6, 3, 127, 60, 144, 160, 194, 76, 1, 0.296824
191, 2, bw, filler, NA, 999, 999, 6, 4, 90, 58, 143, 137, 120, 95, 2, 0.546631
191, 2, bw, filler, NA, 999, 999, 6, 4, 90, 58, 143, 137, 120, 95, 1, 0.299775
191, 2, bw, attraction, a-b-da, 2, 1, 6, 5, 134, 59, 60, 135, 135, 60, 1, 1.67775
191, 2, bw, attraction, a-b-da, 2, 1, 6, 5, 134, 59, 60, 135, 135, 60, 3, 0.52129
191, 2, bw, filler, NA, 999, 999, 6, 6, 84, 183, 101, 167, 67, 124, 2, 1.18626
191, 2, bw, filler, NA, 999, 999, 6, 6, 84, 183, 101, 167, 67, 124, 3, 0.58585
191, 2, bw, attraction, a-b-da, 14, 3, 6, 7, 181, 111, 195, 120, 120, 195, 3, 0.768299
191, 2, bw, attraction, a-b-da, 14, 3, 6, 7, 181, 111, 195, 120, 120, 195, 1, 1.14468
191, 2, bw, filler, NA, 999, 999, 6, 8, 97, 118, 79, 100, 97, 82, 1, 0.856248
191, 2, bw, filler, NA, 999, 999, 6, 8, 97, 118, 79, 100, 97, 82, 2, 0.388642
191, 2, bw, catch, NA, 999, 999, 6, 9, 130, 125, 134, 181, 114, 81, 2, 0.651048
191, 2, bw, catch, NA, 999, 999, 6, 9, 130, 125, 134, 181, 114, 81, 3, 0.320205
191, 2, bw, filler, NA, 999, 999, 6, 10, 125, 91, 103, 84, 122, 169, 3, 0.641364
191, 2, bw, filler, NA, 999, 999, 6, 10, 125, 91, 103, 84, 122, 169, 2, 0.382502
191, 2, bw, attraction, a-b-db, 2, 1, 6, 11, 60, 135, 135, 60, 59, 134, 3, 2.31704
191, 2, bw, attraction, a-b-db, 2, 1, 6, 11, 60, 135, 135, 60, 59, 134, 2, 0.822886
191, 2, bw, attraction, a-b-db, 9, 3, 6, 12, 195, 120, 120, 195, 114, 186, 2, 1.63531
191, 2, bw, attraction, a-b-db, 9, 3, 6, 12, 195, 120, 120, 195, 114, 186, 1, 0.536744
191, 2, bw, attraction, a-b-da, 9, 3, 6, 13, 186, 114, 195, 120, 120, 195, 1, 2.96116
191, 2, bw, attraction, a-b-da, 9, 3, 6, 13, 186, 114, 195, 120, 120, 195, 2, 0.440851
191, 2, bw, attraction, a-b-db, 14, 2, 6, 14, 90, 165, 165, 90, 83, 153, 1, 3.17269
191, 2, bw, attraction, a-b-db, 14, 2, 6, 14, 90, 165, 165, 90, 83, 153, 3, 0.443654
191, 2, bw, filler, NA, 999, 999, 6, 15, 70, 144, 164, 83, 151, 85, 2, 5.07949
191, 2, bw, filler, NA, 999, 999, 6, 15, 70, 144, 164, 83, 151, 85, 1, 0.509853
191, 2, bw, attraction, a-b-da, 2, 2, 6, 16, 90, 165, 163, 89, 165, 90, 3, 3.52315
191, 2, bw, attraction, a-b-da, 2, 2, 6, 16, 90, 165, 163, 89, 165, 90, 1, 0.243987
191, 2, bw, filler, NA, 999, 999, 6, 17, 129, 176, 62, 59, 189, 122, 3, 0.863733
191, 2, bw, filler, NA, 999, 999, 6, 17, 129, 176, 62, 59, 189, 122, 2, 0.412046
191, 2, bw, attraction, a-b-db, 14, 3, 6, 18, 111, 181, 195, 120, 120, 195, 3, 3.54528
191, 2, bw, attraction, a-b-db, 14, 3, 6, 18, 111, 181, 195, 120, 120, 195, 1, 0.465535
191, 2, bw, attraction, a-b-da, 5, 3, 6, 19, 195, 120, 120, 195, 190, 117, 2, 6.98063
191, 2, bw, attraction, a-b-da, 5, 3, 6, 19, 195, 120, 120, 195, 190, 117, 3, 0.514464
191, 2, bw, attraction, a-b-db, 14, 1, 6, 20, 135, 60, 60, 135, 56, 125, 2, 0.875457
191, 2, bw, attraction, a-b-db, 14, 1, 6, 20, 135, 60, 60, 135, 56, 125, 3, 0.311154
191, 2, bw, filler, NA, 999, 999, 6, 21, 107, 116, 181, 94, 135, 101, 2, 1.00049
191, 2, bw, filler, NA, 999, 999, 6, 21, 107, 116, 181, 94, 135, 101, 1, 2.39928
191, 2, bw, attraction, a-b-db, 5, 3, 6, 22, 120, 195, 195, 120, 117, 190, 1, 2.66069
191, 2, bw, attraction, a-b-db, 5, 3, 6, 22, 120, 195, 195, 120, 117, 190, 2, 0.192277
191, 2, bw, attraction, a-b-db, 5, 2, 6, 23, 165, 90, 90, 165, 88, 161, 3, 2.40623
191, 2, bw, attraction, a-b-db, 5, 2, 6, 23, 165, 90, 90, 165, 88, 161, 1, 0.260034
191, 2, bw, filler, NA, 999, 999, 6, 24, 103, 190, 111, 96, 176, 85, 1, 1.5993
191, 2, bw, filler, NA, 999, 999, 6, 24, 103, 190, 111, 96, 176, 85, 2, 0.494091
191, 2, bw, attraction, a-b-da, 9, 1, 6, 25, 135, 60, 60, 135, 129, 57, 2, 1.14392
191, 2, bw, attraction, a-b-da, 9, 1, 6, 25, 135, 60, 60, 135, 129, 57, 3, 2.28085
191, 2, bw, catch, NA, 999, 999, 6, 26, 140, 175, 109, 86, 145, 110, 1, 0.698657
191, 2, bw, catch, NA, 999, 999, 6, 26, 140, 175, 109, 86, 145, 110, 2, 0.269757
191, 2, bw, attraction, a-b-db, 9, 2, 6, 27, 86, 157, 165, 90, 90, 165, 2, 0.801047
191, 2, bw, attraction, a-b-db, 9, 2, 6, 27, 86, 157, 165, 90, 90, 165, 1, 3.50416
191, 2, bw, attraction, a-b-db, 9, 1, 6, 28, 57, 129, 135, 60, 60, 135, 2, 3.33685
191, 2, bw, attraction, a-b-db, 9, 1, 6, 28, 57, 129, 135, 60, 60, 135, 1, 0.473796
191, 2, bw, attraction, a-b-da, 14, 1, 6, 29, 60, 135, 125, 56, 135, 60, 3, 3.3725
191, 2, bw, attraction, a-b-da, 14, 1, 6, 29, 60, 135, 125, 56, 135, 60, 2, 0.313986
191, 2, bw, filler, NA, 999, 999, 6, 30, 75, 184, 194, 158, 127, 131, 2, 0.652449
191, 2, bw, filler, NA, 999, 999, 6, 30, 75, 184, 194, 158, 127, 131, 1, 1.11352
191, 2, bw, attraction, a-b-db, 2, 2, 6, 31, 165, 90, 89, 163, 90, 165, 1, 3.63449
191, 2, bw, attraction, a-b-db, 2, 2, 6, 31, 165, 90, 89, 163, 90, 165, 2, 0.207247
191, 2, bw, attraction, a-b-da, 14, 2, 6, 32, 90, 165, 165, 90, 153, 83, 1, 1.99656
191, 2, bw, attraction, a-b-da, 14, 2, 6, 32, 90, 165, 165, 90, 153, 83, 3, 0.259222
191, 2, bw, catch, NA, 999, 999, 6, 33, 141, 114, 149, 166, 133, 62, 2, 0.654331
191, 2, bw, catch, NA, 999, 999, 6, 33, 141, 114, 149, 166, 133, 62, 3, 0.418761
191, 2, bw, attraction, a-b-da, 5, 1, 6, 34, 135, 60, 60, 135, 132, 58, 2, 1.07995
191, 2, bw, attraction, a-b-da, 5, 1, 6, 34, 135, 60, 60, 135, 132, 58, 3, 0.379566
191, 2, bw, attraction, a-b-db, 5, 1, 6, 35, 58, 132, 60, 135, 135, 60, 2, 2.25814
191, 2, bw, attraction, a-b-db, 5, 1, 6, 35, 58, 132, 60, 135, 135, 60, 3, 0.389999
191, 2, bw, attraction, a-b-da, 5, 2, 6, 36, 165, 90, 161, 88, 90, 165, 1, 2.02795
191, 2, bw, attraction, a-b-da, 5, 2, 6, 36, 165, 90, 161, 88, 90, 165, 2, 0.185244
191, 2, bw, attraction, a-b-da, 2, 3, 6, 37, 120, 195, 193, 119, 195, 120, 1, 6.50374
191, 2, bw, attraction, a-b-da, 2, 3, 6, 37, 120, 195, 193, 119, 195, 120, 2, 0.168983
191, 2, bw, attraction, a-b-db, 5, 2, 7, 1, 88, 161, 165, 90, 90, 165, 1, 2.41625
191, 2, bw, attraction, a-b-db, 5, 2, 7, 1, 88, 161, 165, 90, 90, 165, 2, 0.166143
191, 2, bw, attraction, a-b-db, 2, 1, 7, 2, 135, 60, 59, 134, 60, 135, 3, 1.66123
191, 2, bw, attraction, a-b-db, 2, 1, 7, 2, 135, 60, 59, 134, 60, 135, 2, 0.68939
191, 2, bw, filler, NA, 999, 999, 7, 3, 81, 114, 99, 167, 129, 90, 2, 0.795158
191, 2, bw, filler, NA, 999, 999, 7, 3, 81, 114, 99, 167, 129, 90, 1, 0.770231
191, 2, bw, attraction, a-b-da, 9, 1, 7, 4, 60, 135, 135, 60, 129, 57, 3, 1.5532
191, 2, bw, attraction, a-b-da, 9, 1, 7, 4, 60, 135, 135, 60, 129, 57, 2, 0.418051
191, 2, bw, attraction, a-b-da, 2, 2, 7, 5, 163, 89, 165, 90, 90, 165, 3, 0.791232
191, 2, bw, attraction, a-b-da, 2, 2, 7, 5, 163, 89, 165, 90, 90, 165, 2, 0.494304
191, 2, bw, filler, NA, 999, 999, 7, 6, 141, 122, 186, 162, 109, 156, 2, 1.64006
191, 2, bw, filler, NA, 999, 999, 7, 6, 141, 122, 186, 162, 109, 156, 3, 0.300949
191, 2, bw, catch, NA, 999, 999, 7, 7, 92, 103, 169, 146, 115, 140, 2, 0.830801
191, 2, bw, catch, NA, 999, 999, 7, 7, 92, 103, 169, 146, 115, 140, 3, 0.292459
191, 2, bw, filler, NA, 999, 999, 7, 8, 59, 171, 186, 77, 162, 131, 3, 1.18226
191, 2, bw, filler, NA, 999, 999, 7, 8, 59, 171, 186, 77, 162, 131, 1, 0.40584
191, 2, bw, attraction, a-b-da, 5, 3, 7, 9, 195, 120, 120, 195, 190, 117, 2, 3.49967
191, 2, bw, attraction, a-b-da, 5, 3, 7, 9, 195, 120, 120, 195, 190, 117, 3, 0.245956
191, 2, bw, attraction, a-b-da, 5, 2, 7, 10, 165, 90, 90, 165, 161, 88, 2, 1.68988
191, 2, bw, attraction, a-b-da, 5, 2, 7, 10, 165, 90, 90, 165, 161, 88, 3, 0.276481
191, 2, bw, attraction, a-b-da, 14, 1, 7, 11, 135, 60, 60, 135, 125, 56, 2, 1.71111
191, 2, bw, attraction, a-b-da, 14, 1, 7, 11, 135, 60, 60, 135, 125, 56, 3, 0.233225
191, 2, bw, attraction, a-b-db, 5, 3, 7, 12, 195, 120, 120, 195, 117, 190, 2, 5.9337
191, 2, bw, attraction, a-b-db, 5, 3, 7, 12, 195, 120, 120, 195, 117, 190, 1, 0.445834
191, 2, bw, filler, NA, 999, 999, 7, 13, 139, 159, 106, 130, 159, 96, 1, 1.1376
191, 2, bw, filler, NA, 999, 999, 7, 13, 139, 159, 106, 130, 159, 96, 2, 0.186575
191, 2, bw, filler, NA, 999, 999, 7, 14, 180, 150, 154, 83, 186, 64, 1, 0.705011
191, 2, bw, filler, NA, 999, 999, 7, 14, 180, 150, 154, 83, 186, 64, 2, 0.475528
191, 2, bw, attraction, a-b-da, 2, 1, 7, 15, 60, 135, 134, 59, 135, 60, 1, 4.09415
191, 2, bw, attraction, a-b-da, 2, 1, 7, 15, 60, 135, 134, 59, 135, 60, 2, 1.09602
191, 2, bw, attraction, a-b-db, 5, 1, 7, 16, 58, 132, 60, 135, 135, 60, 2, 3.2816
191, 2, bw, attraction, a-b-db, 5, 1, 7, 16, 58, 132, 60, 135, 135, 60, 1, 0.900564
191, 2, bw, filler, NA, 999, 999, 7, 17, 154, 168, 78, 188, 142, 139, 1, 1.15023
191, 2, bw, filler, NA, 999, 999, 7, 17, 154, 168, 78, 188, 142, 139, 2, 0.735183
191, 2, bw, attraction, a-b-db, 14, 3, 7, 18, 120, 195, 195, 120, 111, 181, 2, 1.71158
191, 2, bw, attraction, a-b-db, 14, 3, 7, 18, 120, 195, 195, 120, 111, 181, 3, 1.53774
191, 2, bw, attraction, a-b-db, 9, 1, 7, 19, 60, 135, 57, 129, 135, 60, 2, 2.59385
191, 2, bw, attraction, a-b-db, 9, 1, 7, 19, 60, 135, 57, 129, 135, 60, 3, 0.544282
191, 2, bw, attraction, a-b-da, 9, 3, 7, 20, 186, 114, 195, 120, 120, 195, 2, 1.32818
191, 2, bw, attraction, a-b-da, 9, 3, 7, 20, 186, 114, 195, 120, 120, 195, 1, 0.673715
191, 2, bw, catch, NA, 999, 999, 7, 21, 96, 159, 114, 81, 192, 123, 3, 0.732066
191, 2, bw, catch, NA, 999, 999, 7, 21, 96, 159, 114, 81, 192, 123, 2, 0.29369
191, 2, bw, attraction, a-b-db, 14, 2, 7, 22, 83, 153, 165, 90, 90, 165, 2, 3.36764
191, 2, bw, attraction, a-b-db, 14, 2, 7, 22, 83, 153, 165, 90, 90, 165, 1, 0.23921
191, 2, bw, filler, NA, 999, 999, 7, 23, 171, 133, 70, 175, 143, 175, 1, 1.13175
191, 2, bw, filler, NA, 999, 999, 7, 23, 171, 133, 70, 175, 143, 175, 2, 0.261396
191, 2, bw, attraction, a-b-da, 2, 3, 7, 24, 120, 195, 193, 119, 195, 120, 2, 6.15261
191, 2, bw, attraction, a-b-da, 2, 3, 7, 24, 120, 195, 193, 119, 195, 120, 1, 0.200003
191, 2, bw, attraction, a-b-db, 9, 2, 7, 25, 165, 90, 86, 157, 90, 165, 2, 2.60577
191, 2, bw, attraction, a-b-db, 9, 2, 7, 25, 165, 90, 86, 157, 90, 165, 1, 0.451702
191, 2, bw, attraction, a-b-db, 2, 3, 7, 26, 120, 195, 195, 120, 119, 193, 1, 5.22342
191, 2, bw, attraction, a-b-db, 2, 3, 7, 26, 120, 195, 195, 120, 119, 193, 2, 0.187691
191, 2, bw, attraction, a-b-da, 14, 2, 7, 27, 165, 90, 90, 165, 153, 83, 2, 1.39431
191, 2, bw, attraction, a-b-da, 14, 2, 7, 27, 165, 90, 90, 165, 153, 83, 3, 0.289184
191, 2, bw, attraction, a-b-da, 14, 3, 7, 28, 195, 120, 120, 195, 181, 111, 2, 1.11575
191, 2, bw, attraction, a-b-da, 14, 3, 7, 28, 195, 120, 120, 195, 181, 111, 3, 0.288327
191, 2, bw, attraction, a-b-db, 2, 2, 7, 29, 165, 90, 89, 163, 90, 165, 2, 1.77652
191, 2, bw, attraction, a-b-db, 2, 2, 7, 29, 165, 90, 89, 163, 90, 165, 1, 0.263907
191, 2, bw, attraction, a-b-db, 14, 1, 7, 30, 135, 60, 56, 125, 60, 135, 3, 1.38724
191, 2, bw, attraction, a-b-db, 14, 1, 7, 30, 135, 60, 56, 125, 60, 135, 2, 0.969998
191, 2, bw, catch, NA, 999, 999, 7, 31, 96, 99, 119, 136, 156, 159, 3, 0.593121
191, 2, bw, catch, NA, 999, 999, 7, 31, 96, 99, 119, 136, 156, 159, 1, 0.413709
191, 2, bw, attraction, a-b-db, 9, 3, 7, 32, 120, 195, 114, 186, 195, 120, 1, 0.87721
191, 2, bw, attraction, a-b-db, 9, 3, 7, 32, 120, 195, 114, 186, 195, 120, 2, 0.744989
191, 2, bw, attraction, a-b-da, 9, 2, 7, 33, 165, 90, 90, 165, 157, 86, 1, 1.85658
191, 2, bw, attraction, a-b-da, 9, 2, 7, 33, 165, 90, 90, 165, 157, 86, 2, 1.34067
191, 2, bw, filler, NA, 999, 999, 7, 34, 93, 85, 188, 182, 193, 119, 2, 0.692268
191, 2, bw, filler, NA, 999, 999, 7, 34, 93, 85, 188, 182, 193, 119, 1, 0.527242
191, 2, bw, filler, NA, 999, 999, 7, 35, 175, 112, 56, 68, 119, 125, 1, 1.5598
191, 2, bw, filler, NA, 999, 999, 7, 35, 175, 112, 56, 68, 119, 125, 2, 0.207921
191, 2, bw, attraction, a-b-da, 5, 1, 7, 36, 132, 58, 60, 135, 135, 60, 2, 1.35709
191, 2, bw, attraction, a-b-da, 5, 1, 7, 36, 132, 58, 60, 135, 135, 60, 1, 0.18128
191, 2, bw, filler, NA, 999, 999, 7, 37, 63, 184, 86, 189, 87, 164, 2, 0.988041
191, 2, bw, filler, NA, 999, 999, 7, 37, 63, 184, 86, 189, 87, 164, 3, 1.34691
191, 2, bw, filler, NA, 999, 999, 8, 1, 62, 168, 66, 105, 178, 128, 3, 0.946432
191, 2, bw, filler, NA, 999, 999, 8, 1, 62, 168, 66, 105, 178, 128, 2, 0.251399
191, 2, bw, catch, NA, 999, 999, 8, 2, 131, 184, 153, 102, 64, 131, 1, 0.575267
191, 2, bw, catch, NA, 999, 999, 8, 2, 131, 184, 153, 102, 64, 131, 3, 0.223108
191, 2, bw, attraction, a-b-da, 14, 2, 8, 3, 153, 83, 165, 90, 90, 165, 3, 1.80365
191, 2, bw, attraction, a-b-da, 14, 2, 8, 3, 153, 83, 165, 90, 90, 165, 2, 1.1703
191, 2, bw, attraction, a-b-da, 9, 1, 8, 4, 129, 57, 60, 135, 135, 60, 2, 1.62086
191, 2, bw, attraction, a-b-da, 9, 1, 8, 4, 129, 57, 60, 135, 135, 60, 1, 0.598808
191, 2, bw, catch, NA, 999, 999, 8, 5, 179, 136, 114, 141, 113, 82, 1, 1.03643
191, 2, bw, catch, NA, 999, 999, 8, 5, 179, 136, 114, 141, 113, 82, 3, 0.29007
191, 2, bw, attraction, a-b-da, 14, 3, 8, 6, 120, 195, 181, 111, 195, 120, 3, 1.47606
191, 2, bw, attraction, a-b-da, 14, 3, 8, 6, 120, 195, 181, 111, 195, 120, 2, 0.359472
191, 2, bw, attraction, a-b-db, 5, 3, 8, 7, 120, 195, 195, 120, 117, 190, 2, 1.03068
191, 2, bw, attraction, a-b-db, 5, 3, 8, 7, 120, 195, 195, 120, 117, 190, 1, 0.604244
191, 2, bw, attraction, a-b-db, 14, 2, 8, 8, 165, 90, 90, 165, 83, 153, 2, 1.48214
191, 2, bw, attraction, a-b-db, 14, 2, 8, 8, 165, 90, 90, 165, 83, 153, 1, 0.733573
191, 2, bw, attraction, a-b-da, 5, 2, 8, 9, 90, 165, 161, 88, 165, 90, 1, 3.15812
191, 2, bw, attraction, a-b-da, 5, 2, 8, 9, 90, 165, 161, 88, 165, 90, 3, 0.205623
191, 2, bw, attraction, a-b-db, 5, 1, 8, 10, 135, 60, 58, 132, 60, 135, 2, 2.31542
191, 2, bw, attraction, a-b-db, 5, 1, 8, 10, 135, 60, 58, 132, 60, 135, 1, 0.205356
191, 2, bw, attraction, a-b-da, 9, 3, 8, 11, 120, 195, 186, 114, 195, 120, 1, 1.08324
191, 2, bw, attraction, a-b-da, 9, 3, 8, 11, 120, 195, 186, 114, 195, 120, 2, 1.31094
191, 2, bw, attraction, a-b-db, 9, 1, 8, 12, 60, 135, 57, 129, 135, 60, 2, 1.32774
191, 2, bw, attraction, a-b-db, 9, 1, 8, 12, 60, 135, 57, 129, 135, 60, 3, 0.297406
191, 2, bw, filler, NA, 999, 999, 8, 13, 104, 114, 117, 84, 119, 124, 3, 1.22714
191, 2, bw, filler, NA, 999, 999, 8, 13, 104, 114, 117, 84, 119, 124, 2, 6.12884
191, 2, bw, filler, NA, 999, 999, 8, 14, 166, 106, 195, 170, 194, 140, 2, 0.655456
191, 2, bw, filler, NA, 999, 999, 8, 14, 166, 106, 195, 170, 194, 140, 1, 0.187885
191, 2, bw, filler, NA, 999, 999, 8, 15, 66, 179, 153, 89, 191, 179, 3, 0.666382
191, 2, bw, filler, NA, 999, 999, 8, 15, 66, 179, 153, 89, 191, 179, 1, 1.09489
191, 2, bw, filler, NA, 999, 999, 8, 16, 72, 120, 134, 160, 74, 176, 2, 0.696488
191, 2, bw, filler, NA, 999, 999, 8, 16, 72, 120, 134, 160, 74, 176, 1, 0.987636
191, 2, bw, attraction, a-b-da, 14, 1, 8, 17, 125, 56, 60, 135, 135, 60, 2, 10.1379
191, 2, bw, attraction, a-b-da, 14, 1, 8, 17, 125, 56, 60, 135, 135, 60, 1, 0.9848
191, 2, bw, filler, NA, 999, 999, 8, 18, 57, 64, 186, 120, 59, 145, 2, 0.823018
191, 2, bw, filler, NA, 999, 999, 8, 18, 57, 64, 186, 120, 59, 145, 1, 0.220823
191, 2, bw, attraction, a-b-db, 2, 3, 8, 19, 119, 193, 195, 120, 120, 195, 2, 0.921899
191, 2, bw, attraction, a-b-db, 2, 3, 8, 19, 119, 193, 195, 120, 120, 195, 3, 0.291649
191, 2, bw, attraction, a-b-da, 2, 2, 8, 20, 163, 89, 165, 90, 90, 165, 3, 15.0614
191, 2, bw, attraction, a-b-da, 2, 2, 8, 20, 163, 89, 165, 90, 90, 165, 2, 0.685356
191, 2, bw, attraction, a-b-da, 2, 1, 8, 21, 134, 59, 135, 60, 60, 135, 1, 1.08776
191, 2, bw, attraction, a-b-da, 2, 1, 8, 21, 134, 59, 135, 60, 60, 135, 3, 0.442692
191, 2, bw, attraction, a-b-db, 2, 1, 8, 22, 60, 135, 59, 134, 135, 60, 2, 0.662482
191, 2, bw, attraction, a-b-db, 2, 1, 8, 22, 60, 135, 59, 134, 135, 60, 3, 0.562976
191, 2, bw, filler, NA, 999, 999, 8, 23, 79, 179, 72, 192, 68, 190, 1, 0.578052
191, 2, bw, filler, NA, 999, 999, 8, 23, 79, 179, 72, 192, 68, 190, 3, 0.63386
191, 2, bw, attraction, a-b-db, 2, 2, 8, 24, 89, 163, 90, 165, 165, 90, 3, 2.37428
191, 2, bw, attraction, a-b-db, 2, 2, 8, 24, 89, 163, 90, 165, 165, 90, 1, 0.333447
191, 2, bw, filler, NA, 999, 999, 8, 25, 108, 167, 85, 91, 187, 112, 1, 1.07796
191, 2, bw, filler, NA, 999, 999, 8, 25, 108, 167, 85, 91, 187, 112, 2, 0.449675
191, 2, bw, attraction, a-b-db, 5, 2, 8, 26, 165, 90, 90, 165, 88, 161, 2, 0.677413
191, 2, bw, attraction, a-b-db, 5, 2, 8, 26, 165, 90, 90, 165, 88, 161, 3, 0.217147
191, 2, bw, attraction, a-b-da, 2, 3, 8, 27, 120, 195, 193, 119, 195, 120, 1, 1.16637
191, 2, bw, attraction, a-b-da, 2, 3, 8, 27, 120, 195, 193, 119, 195, 120, 2, 0.670631
191, 2, bw, filler, NA, 999, 999, 8, 28, 151, 127, 153, 137, 111, 179, 3, 1.12169
191, 2, bw, filler, NA, 999, 999, 8, 28, 151, 127, 153, 137, 111, 179, 2, 0.659303
191, 2, bw, catch, NA, 999, 999, 8, 29, 147, 168, 108, 147, 125, 70, 1, 0.838389
191, 2, bw, catch, NA, 999, 999, 8, 29, 147, 168, 108, 147, 125, 70, 3, 0.203438
191, 2, bw, filler, NA, 999, 999, 8, 30, 191, 96, 107, 129, 109, 91, 2, 0.729252
191, 2, bw, filler, NA, 999, 999, 8, 30, 191, 96, 107, 129, 109, 91, 3, 0.603099
191, 2, bw, attraction, a-b-da, 9, 2, 8, 31, 157, 86, 90, 165, 165, 90, 2, 1.32877
191, 2, bw, attraction, a-b-da, 9, 2, 8, 31, 157, 86, 90, 165, 165, 90, 1, 0.322535
191, 2, bw, attraction, a-b-db, 14, 1, 8, 32, 56, 125, 135, 60, 60, 135, 3, 0.859648
191, 2, bw, attraction, a-b-db, 14, 1, 8, 32, 56, 125, 135, 60, 60, 135, 2, 0.512084
191, 2, bw, attraction, a-b-db, 14, 3, 8, 33, 111, 181, 195, 120, 120, 195, 2, 0.937186
191, 2, bw, attraction, a-b-db, 14, 3, 8, 33, 111, 181, 195, 120, 120, 195, 1, 0.762752
191, 2, bw, attraction, a-b-db, 9, 2, 8, 34, 86, 157, 90, 165, 165, 90, 2, 1.04173
191, 2, bw, attraction, a-b-db, 9, 2, 8, 34, 86, 157, 90, 165, 165, 90, 1, 1.08684
191, 2, bw, attraction, a-b-da, 5, 1, 8, 35, 60, 135, 132, 58, 135, 60, 3, 1.90508
191, 2, bw, attraction, a-b-da, 5, 1, 8, 35, 60, 135, 132, 58, 135, 60, 1, 0.291048
191, 2, bw, attraction, a-b-da, 5, 3, 8, 36, 190, 117, 120, 195, 195, 120, 2, 1.26891
191, 2, bw, attraction, a-b-da, 5, 3, 8, 36, 190, 117, 120, 195, 195, 120, 1, 0.361163
191, 2, bw, attraction, a-b-db, 9, 3, 8, 37, 114, 186, 120, 195, 195, 120, 2, 1.25637
191, 2, bw, attraction, a-b-db, 9, 3, 8, 37, 114, 186, 120, 195, 195, 120, 1, 0.908713
