sub_n, computer_n, bw_cond, effect, set, distance, diag, block_n, trial_n, h1, w1, h2, w2, h3, w3, choice, rt 
10, 2, wb, practice, NA, 999, 999, 0, 1, 140, 142, 144, 178, 147, 148, 1, 5.45661
10, 2, wb, practice, NA, 999, 999, 0, 1, 140, 142, 144, 178, 147, 148, 2, 1.73045
10, 2, wb, practice, NA, 999, 999, 0, 2, 78, 165, 57, 170, 66, 161, 2, 2.12081
10, 2, wb, practice, NA, 999, 999, 0, 2, 78, 165, 57, 170, 66, 161, 1, 1.10585
10, 2, wb, practice, NA, 999, 999, 0, 3, 114, 105, 114, 152, 106, 144, 1, 1.67332
10, 2, wb, practice, NA, 999, 999, 0, 3, 114, 105, 114, 152, 106, 144, 2, 1.30042
10, 2, wb, attraction, a-b-da, 14, 3, 1, 1, 195, 120, 181, 111, 120, 195, 2, 2.75744
10, 2, wb, attraction, a-b-da, 14, 3, 1, 1, 195, 120, 181, 111, 120, 195, 3, 1.99525
10, 2, wb, attraction, a-b-da, 2, 1, 1, 2, 134, 59, 60, 135, 135, 60, 2, 3.60146
10, 2, wb, attraction, a-b-da, 2, 1, 1, 2, 134, 59, 60, 135, 135, 60, 3, 1.76868
10, 2, wb, attraction, a-b-db, 5, 3, 1, 3, 117, 190, 195, 120, 120, 195, 1, 2.33466
10, 2, wb, attraction, a-b-db, 5, 3, 1, 3, 117, 190, 195, 120, 120, 195, 3, 1.7038
10, 2, wb, attraction, a-b-db, 9, 3, 1, 4, 195, 120, 114, 186, 120, 195, 2, 2.62089
10, 2, wb, attraction, a-b-db, 9, 3, 1, 4, 195, 120, 114, 186, 120, 195, 3, 0.936783
10, 2, wb, attraction, a-b-da, 2, 3, 1, 5, 193, 119, 120, 195, 195, 120, 3, 4.61844
10, 2, wb, attraction, a-b-da, 2, 3, 1, 5, 193, 119, 120, 195, 195, 120, 2, 1.22211
10, 2, wb, filler, NA, 999, 999, 1, 6, 189, 96, 154, 84, 124, 171, 2, 1.79314
10, 2, wb, filler, NA, 999, 999, 1, 6, 189, 96, 154, 84, 124, 171, 3, 0.80943
10, 2, wb, filler, NA, 999, 999, 1, 7, 63, 130, 111, 181, 133, 139, 1, 1.56017
10, 2, wb, filler, NA, 999, 999, 1, 7, 63, 130, 111, 181, 133, 139, 2, 3.1096
10, 2, wb, filler, NA, 999, 999, 1, 8, 103, 170, 184, 178, 93, 58, 3, 1.64647
10, 2, wb, filler, NA, 999, 999, 1, 8, 103, 170, 184, 178, 93, 58, 2, 1.00541
10, 2, wb, filler, NA, 999, 999, 1, 9, 86, 188, 83, 57, 153, 134, 2, 1.76307
10, 2, wb, filler, NA, 999, 999, 1, 9, 86, 188, 83, 57, 153, 134, 1, 6.00105
10, 2, wb, attraction, a-b-db, 2, 3, 1, 10, 120, 195, 195, 120, 119, 193, 2, 2.04672
10, 2, wb, attraction, a-b-db, 2, 3, 1, 10, 120, 195, 195, 120, 119, 193, 1, 0.778973
10, 2, wb, attraction, a-b-db, 2, 1, 1, 11, 59, 134, 135, 60, 60, 135, 2, 5.82516
10, 2, wb, attraction, a-b-db, 2, 1, 1, 11, 59, 134, 135, 60, 60, 135, 3, 0.862304
10, 2, wb, attraction, a-b-db, 5, 1, 1, 12, 135, 60, 58, 132, 60, 135, 2, 3.98002
10, 2, wb, attraction, a-b-db, 5, 1, 1, 12, 135, 60, 58, 132, 60, 135, 3, 0.816147
10, 2, wb, catch, NA, 999, 999, 1, 13, 79, 116, 90, 165, 193, 122, 1, 4.29387
10, 2, wb, catch, NA, 999, 999, 1, 13, 79, 116, 90, 165, 193, 122, 3, 1.04095
10, 2, wb, attraction, a-b-da, 9, 3, 1, 14, 195, 120, 186, 114, 120, 195, 2, 2.79881
10, 2, wb, attraction, a-b-da, 9, 3, 1, 14, 195, 120, 186, 114, 120, 195, 3, 1.12967
10, 2, wb, filler, NA, 999, 999, 1, 15, 125, 181, 138, 149, 177, 150, 2, 2.83594
10, 2, wb, filler, NA, 999, 999, 1, 15, 125, 181, 138, 149, 177, 150, 3, 0.799935
10, 2, wb, attraction, a-b-db, 5, 2, 1, 16, 165, 90, 90, 165, 88, 161, 2, 2.72832
10, 2, wb, attraction, a-b-db, 5, 2, 1, 16, 165, 90, 90, 165, 88, 161, 3, 0.850357
10, 2, wb, filler, NA, 999, 999, 1, 17, 102, 184, 144, 171, 156, 106, 3, 3.9555
10, 2, wb, filler, NA, 999, 999, 1, 17, 102, 184, 144, 171, 156, 106, 2, 6.42063
10, 2, wb, attraction, a-b-da, 2, 2, 1, 18, 163, 89, 90, 165, 165, 90, 2, 2.28043
10, 2, wb, attraction, a-b-da, 2, 2, 1, 18, 163, 89, 90, 165, 165, 90, 3, 2.77022
10, 2, wb, catch, NA, 999, 999, 1, 19, 122, 133, 112, 83, 120, 195, 2, 2.81642
10, 2, wb, catch, NA, 999, 999, 1, 19, 122, 133, 112, 83, 120, 195, 3, 1.03159
10, 2, wb, filler, NA, 999, 999, 1, 20, 60, 183, 104, 191, 98, 149, 1, 6.11466
10, 2, wb, filler, NA, 999, 999, 1, 20, 60, 183, 104, 191, 98, 149, 2, 0.788016
10, 2, wb, attraction, a-b-db, 14, 1, 1, 21, 56, 125, 60, 135, 135, 60, 1, 3.3949
10, 2, wb, attraction, a-b-db, 14, 1, 1, 21, 56, 125, 60, 135, 135, 60, 3, 1.04882
10, 2, wb, attraction, a-b-da, 9, 1, 1, 22, 129, 57, 135, 60, 60, 135, 1, 2.79536
10, 2, wb, attraction, a-b-da, 9, 1, 1, 22, 129, 57, 135, 60, 60, 135, 2, 1.73199
10, 2, wb, attraction, a-b-db, 9, 1, 1, 23, 135, 60, 57, 129, 60, 135, 2, 3.71379
10, 2, wb, attraction, a-b-db, 9, 1, 1, 23, 135, 60, 57, 129, 60, 135, 1, 0.892879
10, 2, wb, filler, NA, 999, 999, 1, 24, 138, 99, 150, 64, 66, 163, 2, 2.36558
10, 2, wb, filler, NA, 999, 999, 1, 24, 138, 99, 150, 64, 66, 163, 1, 1.10936
10, 2, wb, attraction, a-b-da, 14, 2, 1, 25, 153, 83, 90, 165, 165, 90, 1, 2.91487
10, 2, wb, attraction, a-b-da, 14, 2, 1, 25, 153, 83, 90, 165, 165, 90, 3, 1.4433
10, 2, wb, catch, NA, 999, 999, 1, 26, 174, 141, 93, 162, 63, 132, 3, 1.8214
10, 2, wb, catch, NA, 999, 999, 1, 26, 174, 141, 93, 162, 63, 132, 1, 1.62756
10, 2, wb, filler, NA, 999, 999, 1, 27, 111, 151, 92, 56, 145, 106, 2, 2.02408
10, 2, wb, filler, NA, 999, 999, 1, 27, 111, 151, 92, 56, 145, 106, 1, 1.51673
10, 2, wb, attraction, a-b-da, 5, 1, 1, 28, 135, 60, 132, 58, 60, 135, 2, 2.98232
10, 2, wb, attraction, a-b-da, 5, 1, 1, 28, 135, 60, 132, 58, 60, 135, 1, 0.766898
10, 2, wb, attraction, a-b-da, 9, 2, 1, 29, 90, 165, 165, 90, 157, 86, 3, 1.73556
10, 2, wb, attraction, a-b-da, 9, 2, 1, 29, 90, 165, 165, 90, 157, 86, 1, 1.55824
10, 2, wb, attraction, a-b-db, 2, 2, 1, 30, 165, 90, 89, 163, 90, 165, 2, 2.5685
10, 2, wb, attraction, a-b-db, 2, 2, 1, 30, 165, 90, 89, 163, 90, 165, 1, 0.982718
10, 2, wb, attraction, a-b-db, 14, 3, 1, 31, 195, 120, 120, 195, 111, 181, 1, 2.14199
10, 2, wb, attraction, a-b-db, 14, 3, 1, 31, 195, 120, 120, 195, 111, 181, 2, 1.43187
10, 2, wb, attraction, a-b-db, 14, 2, 1, 32, 83, 153, 90, 165, 165, 90, 1, 4.59252
10, 2, wb, attraction, a-b-db, 14, 2, 1, 32, 83, 153, 90, 165, 165, 90, 3, 1.80847
10, 2, wb, attraction, a-b-da, 14, 1, 1, 33, 135, 60, 60, 135, 125, 56, 3, 2.49636
10, 2, wb, attraction, a-b-da, 14, 1, 1, 33, 135, 60, 60, 135, 125, 56, 1, 1.87341
10, 2, wb, attraction, a-b-da, 5, 3, 1, 34, 195, 120, 190, 117, 120, 195, 3, 9.91669
10, 2, wb, attraction, a-b-da, 5, 3, 1, 34, 195, 120, 190, 117, 120, 195, 1, 1.38143
10, 2, wb, filler, NA, 999, 999, 1, 35, 117, 154, 73, 144, 163, 181, 2, 2.02406
10, 2, wb, filler, NA, 999, 999, 1, 35, 117, 154, 73, 144, 163, 181, 3, 1.03128
10, 2, wb, attraction, a-b-db, 9, 2, 1, 36, 86, 157, 90, 165, 165, 90, 1, 4.33845
10, 2, wb, attraction, a-b-db, 9, 2, 1, 36, 86, 157, 90, 165, 165, 90, 3, 0.899326
10, 2, wb, attraction, a-b-da, 5, 2, 1, 37, 90, 165, 165, 90, 161, 88, 2, 3.34992
10, 2, wb, attraction, a-b-da, 5, 2, 1, 37, 90, 165, 165, 90, 161, 88, 1, 0.901265
10, 2, wb, filler, NA, 999, 999, 2, 1, 184, 82, 107, 91, 110, 106, 2, 1.67989
10, 2, wb, filler, NA, 999, 999, 2, 1, 184, 82, 107, 91, 110, 106, 1, 1.43489
10, 2, wb, catch, NA, 999, 999, 2, 2, 105, 90, 118, 137, 152, 163, 1, 1.84076
10, 2, wb, catch, NA, 999, 999, 2, 2, 105, 90, 118, 137, 152, 163, 3, 0.908805
10, 2, wb, attraction, a-b-db, 2, 1, 2, 3, 59, 134, 135, 60, 60, 135, 1, 4.44527
10, 2, wb, attraction, a-b-db, 2, 1, 2, 3, 59, 134, 135, 60, 60, 135, 3, 0.763572
10, 2, wb, filler, NA, 999, 999, 2, 4, 125, 86, 71, 73, 164, 75, 2, 1.96863
10, 2, wb, filler, NA, 999, 999, 2, 4, 125, 86, 71, 73, 164, 75, 3, 0.762727
10, 2, wb, attraction, a-b-da, 9, 1, 2, 5, 129, 57, 135, 60, 60, 135, 1, 3.35639
10, 2, wb, attraction, a-b-da, 9, 1, 2, 5, 129, 57, 135, 60, 60, 135, 3, 0.618269
10, 2, wb, filler, NA, 999, 999, 2, 6, 119, 188, 120, 194, 62, 178, 3, 1.8792
10, 2, wb, filler, NA, 999, 999, 2, 6, 119, 188, 120, 194, 62, 178, 1, 0.739989
10, 2, wb, attraction, a-b-db, 2, 3, 2, 7, 195, 120, 120, 195, 119, 193, 2, 2.97735
10, 2, wb, attraction, a-b-db, 2, 3, 2, 7, 195, 120, 120, 195, 119, 193, 3, 0.760832
10, 2, wb, attraction, a-b-da, 5, 1, 2, 8, 132, 58, 60, 135, 135, 60, 2, 5.49935
10, 2, wb, attraction, a-b-da, 5, 1, 2, 8, 132, 58, 60, 135, 135, 60, 3, 1.03546
10, 2, wb, attraction, a-b-da, 5, 3, 2, 9, 120, 195, 190, 117, 195, 120, 1, 3.66374
10, 2, wb, attraction, a-b-da, 5, 3, 2, 9, 120, 195, 190, 117, 195, 120, 3, 2.99388
10, 2, wb, attraction, a-b-db, 14, 1, 2, 10, 135, 60, 60, 135, 56, 125, 3, 3.04005
10, 2, wb, attraction, a-b-db, 14, 1, 2, 10, 135, 60, 60, 135, 56, 125, 1, 1.46901
10, 2, wb, attraction, a-b-db, 2, 2, 2, 11, 165, 90, 89, 163, 90, 165, 1, 2.06387
10, 2, wb, attraction, a-b-db, 2, 2, 2, 11, 165, 90, 89, 163, 90, 165, 3, 2.19774
10, 2, wb, filler, NA, 999, 999, 2, 12, 144, 187, 83, 173, 92, 193, 2, 1.91241
10, 2, wb, filler, NA, 999, 999, 2, 12, 144, 187, 83, 173, 92, 193, 1, 0.827039
10, 2, wb, attraction, a-b-da, 9, 2, 2, 13, 165, 90, 90, 165, 157, 86, 3, 7.75271
10, 2, wb, attraction, a-b-da, 9, 2, 2, 13, 165, 90, 90, 165, 157, 86, 1, 0.814495
10, 2, wb, attraction, a-b-da, 14, 2, 2, 14, 90, 165, 165, 90, 153, 83, 3, 7.10124
10, 2, wb, attraction, a-b-da, 14, 2, 2, 14, 90, 165, 165, 90, 153, 83, 1, 0.78183
10, 2, wb, attraction, a-b-da, 2, 3, 2, 15, 120, 195, 195, 120, 193, 119, 3, 2.26194
10, 2, wb, attraction, a-b-da, 2, 3, 2, 15, 120, 195, 195, 120, 193, 119, 1, 0.663765
10, 2, wb, filler, NA, 999, 999, 2, 16, 182, 87, 171, 142, 135, 108, 3, 11.9301
10, 2, wb, filler, NA, 999, 999, 2, 16, 182, 87, 171, 142, 135, 108, 2, 1.20973
10, 2, wb, attraction, a-b-da, 14, 3, 2, 17, 120, 195, 195, 120, 181, 111, 3, 7.16673
10, 2, wb, attraction, a-b-da, 14, 3, 2, 17, 120, 195, 195, 120, 181, 111, 1, 0.78841
10, 2, wb, filler, NA, 999, 999, 2, 18, 173, 89, 162, 195, 57, 85, 3, 1.45225
10, 2, wb, filler, NA, 999, 999, 2, 18, 173, 89, 162, 195, 57, 85, 2, 1.03999
10, 2, wb, filler, NA, 999, 999, 2, 19, 124, 141, 105, 64, 73, 113, 2, 2.21163
10, 2, wb, filler, NA, 999, 999, 2, 19, 124, 141, 105, 64, 73, 113, 1, 0.739391
10, 2, wb, attraction, a-b-db, 9, 3, 2, 20, 114, 186, 120, 195, 195, 120, 1, 4.25103
10, 2, wb, attraction, a-b-db, 9, 3, 2, 20, 114, 186, 120, 195, 195, 120, 2, 1.86489
10, 2, wb, attraction, a-b-da, 2, 2, 2, 21, 90, 165, 165, 90, 163, 89, 2, 15.521
10, 2, wb, attraction, a-b-da, 2, 2, 2, 21, 90, 165, 165, 90, 163, 89, 1, 1.42442
10, 2, wb, catch, NA, 999, 999, 2, 22, 125, 70, 146, 169, 102, 153, 1, 1.71776
10, 2, wb, catch, NA, 999, 999, 2, 22, 125, 70, 146, 169, 102, 153, 2, 0.838186
10, 2, wb, attraction, a-b-db, 5, 2, 2, 23, 165, 90, 88, 161, 90, 165, 2, 4.10734
10, 2, wb, attraction, a-b-db, 5, 2, 2, 23, 165, 90, 88, 161, 90, 165, 1, 4.66052
10, 2, wb, attraction, a-b-db, 14, 2, 2, 24, 83, 153, 90, 165, 165, 90, 1, 1.97449
10, 2, wb, attraction, a-b-db, 14, 2, 2, 24, 83, 153, 90, 165, 165, 90, 3, 1.6477
10, 2, wb, filler, NA, 999, 999, 2, 25, 80, 73, 71, 84, 78, 123, 1, 1.84298
10, 2, wb, filler, NA, 999, 999, 2, 25, 80, 73, 71, 84, 78, 123, 3, 0.872421
10, 2, wb, attraction, a-b-da, 14, 1, 2, 26, 135, 60, 125, 56, 60, 135, 2, 2.916
10, 2, wb, attraction, a-b-da, 14, 1, 2, 26, 135, 60, 125, 56, 60, 135, 3, 0.80611
10, 2, wb, attraction, a-b-db, 9, 2, 2, 27, 90, 165, 165, 90, 86, 157, 3, 12.7227
10, 2, wb, attraction, a-b-db, 9, 2, 2, 27, 90, 165, 165, 90, 86, 157, 1, 0.786146
10, 2, wb, attraction, a-b-db, 9, 1, 2, 28, 57, 129, 135, 60, 60, 135, 3, 1.95288
10, 2, wb, attraction, a-b-db, 9, 1, 2, 28, 57, 129, 135, 60, 60, 135, 2, 0.817215
10, 2, wb, filler, NA, 999, 999, 2, 29, 130, 145, 80, 141, 86, 147, 2, 2.56628
10, 2, wb, filler, NA, 999, 999, 2, 29, 130, 145, 80, 141, 86, 147, 1, 0.821645
10, 2, wb, attraction, a-b-da, 5, 2, 2, 30, 90, 165, 161, 88, 165, 90, 3, 8.33977
10, 2, wb, attraction, a-b-da, 5, 2, 2, 30, 90, 165, 161, 88, 165, 90, 1, 1.77684
10, 2, wb, filler, NA, 999, 999, 2, 31, 125, 114, 174, 176, 155, 142, 1, 1.51209
10, 2, wb, filler, NA, 999, 999, 2, 31, 125, 114, 174, 176, 155, 142, 3, 0.785921
10, 2, wb, attraction, a-b-da, 9, 3, 2, 32, 120, 195, 186, 114, 195, 120, 2, 7.76028
10, 2, wb, attraction, a-b-da, 9, 3, 2, 32, 120, 195, 186, 114, 195, 120, 3, 1.10431
10, 2, wb, catch, NA, 999, 999, 2, 33, 171, 144, 76, 119, 96, 159, 2, 1.64261
10, 2, wb, catch, NA, 999, 999, 2, 33, 171, 144, 76, 119, 96, 159, 1, 0.831579
10, 2, wb, attraction, a-b-da, 2, 1, 2, 34, 134, 59, 135, 60, 60, 135, 1, 2.28341
10, 2, wb, attraction, a-b-da, 2, 1, 2, 34, 134, 59, 135, 60, 60, 135, 3, 0.806843
10, 2, wb, attraction, a-b-db, 14, 3, 2, 35, 120, 195, 195, 120, 111, 181, 3, 5.23618
10, 2, wb, attraction, a-b-db, 14, 3, 2, 35, 120, 195, 195, 120, 111, 181, 1, 1.72319
10, 2, wb, attraction, a-b-db, 5, 1, 2, 36, 60, 135, 135, 60, 58, 132, 3, 5.97748
10, 2, wb, attraction, a-b-db, 5, 1, 2, 36, 60, 135, 135, 60, 58, 132, 1, 0.799885
10, 2, wb, attraction, a-b-db, 5, 3, 2, 37, 117, 190, 120, 195, 195, 120, 3, 4.48433
10, 2, wb, attraction, a-b-db, 5, 3, 2, 37, 117, 190, 120, 195, 195, 120, 1, 1.03217
10, 2, wb, attraction, a-b-da, 5, 3, 3, 1, 120, 195, 190, 117, 195, 120, 2, 5.22931
10, 2, wb, attraction, a-b-da, 5, 3, 3, 1, 120, 195, 190, 117, 195, 120, 3, 2.16202
10, 2, wb, attraction, a-b-db, 14, 3, 3, 2, 120, 195, 111, 181, 195, 120, 2, 2.77551
10, 2, wb, attraction, a-b-db, 14, 3, 3, 2, 120, 195, 111, 181, 195, 120, 3, 1.50311
10, 2, wb, filler, NA, 999, 999, 3, 3, 170, 119, 119, 83, 91, 82, 3, 2.05002
10, 2, wb, filler, NA, 999, 999, 3, 3, 170, 119, 119, 83, 91, 82, 1, 0.821719
10, 2, wb, attraction, a-b-da, 2, 3, 3, 4, 193, 119, 195, 120, 120, 195, 1, 3.81083
10, 2, wb, attraction, a-b-da, 2, 3, 3, 4, 193, 119, 195, 120, 120, 195, 3, 2.4642
10, 2, wb, attraction, a-b-db, 5, 1, 3, 5, 135, 60, 60, 135, 58, 132, 2, 8.02813
10, 2, wb, attraction, a-b-db, 5, 1, 3, 5, 135, 60, 60, 135, 58, 132, 1, 2.84818
10, 2, wb, filler, NA, 999, 999, 3, 6, 85, 129, 147, 178, 143, 59, 3, 2.67566
10, 2, wb, filler, NA, 999, 999, 3, 6, 85, 129, 147, 178, 143, 59, 2, 1.07103
10, 2, wb, attraction, a-b-da, 14, 1, 3, 7, 60, 135, 135, 60, 125, 56, 3, 3.60389
10, 2, wb, attraction, a-b-da, 14, 1, 3, 7, 60, 135, 135, 60, 125, 56, 1, 2.03971
10, 2, wb, attraction, a-b-da, 9, 2, 3, 8, 90, 165, 157, 86, 165, 90, 2, 2.27587
10, 2, wb, attraction, a-b-da, 9, 2, 3, 8, 90, 165, 157, 86, 165, 90, 3, 1.00015
10, 2, wb, filler, NA, 999, 999, 3, 9, 84, 181, 96, 58, 117, 103, 2, 1.5892
10, 2, wb, filler, NA, 999, 999, 3, 9, 84, 181, 96, 58, 117, 103, 1, 4.81391
10, 2, wb, attraction, a-b-da, 14, 3, 3, 10, 120, 195, 181, 111, 195, 120, 2, 2.53725
10, 2, wb, attraction, a-b-da, 14, 3, 3, 10, 120, 195, 181, 111, 195, 120, 1, 3.01078
10, 2, wb, filler, NA, 999, 999, 3, 11, 188, 113, 67, 113, 182, 193, 2, 10.5043
10, 2, wb, filler, NA, 999, 999, 3, 11, 188, 113, 67, 113, 182, 193, 3, 0.993185
10, 2, wb, attraction, a-b-db, 9, 1, 3, 12, 60, 135, 57, 129, 135, 60, 2, 2.55815
10, 2, wb, attraction, a-b-db, 9, 1, 3, 12, 60, 135, 57, 129, 135, 60, 3, 1.262
10, 2, wb, attraction, a-b-da, 2, 1, 3, 13, 60, 135, 135, 60, 134, 59, 1, 4.87554
10, 2, wb, attraction, a-b-da, 2, 1, 3, 13, 60, 135, 135, 60, 134, 59, 2, 1.75059
10, 2, wb, attraction, a-b-da, 9, 3, 3, 14, 186, 114, 120, 195, 195, 120, 1, 6.59001
10, 2, wb, attraction, a-b-da, 9, 3, 3, 14, 186, 114, 120, 195, 195, 120, 2, 1.69165
10, 2, wb, attraction, a-b-db, 5, 3, 3, 15, 120, 195, 117, 190, 195, 120, 3, 3.86151
10, 2, wb, attraction, a-b-db, 5, 3, 3, 15, 120, 195, 117, 190, 195, 120, 1, 1.27327
10, 2, wb, catch, NA, 999, 999, 3, 16, 180, 135, 103, 92, 136, 119, 2, 1.77298
10, 2, wb, catch, NA, 999, 999, 3, 16, 180, 135, 103, 92, 136, 119, 1, 1.15608
10, 2, wb, catch, NA, 999, 999, 3, 17, 160, 95, 193, 122, 103, 92, 3, 1.53209
10, 2, wb, catch, NA, 999, 999, 3, 17, 160, 95, 193, 122, 103, 92, 2, 0.812518
10, 2, wb, filler, NA, 999, 999, 3, 18, 174, 172, 114, 129, 65, 75, 3, 1.28265
10, 2, wb, filler, NA, 999, 999, 3, 18, 174, 172, 114, 129, 65, 75, 1, 0.80413
10, 2, wb, filler, NA, 999, 999, 3, 19, 191, 101, 193, 181, 151, 89, 3, 1.81263
10, 2, wb, filler, NA, 999, 999, 3, 19, 191, 101, 193, 181, 151, 89, 2, 0.728489
10, 2, wb, attraction, a-b-db, 2, 1, 3, 20, 59, 134, 60, 135, 135, 60, 1, 7.10551
10, 2, wb, attraction, a-b-db, 2, 1, 3, 20, 59, 134, 60, 135, 135, 60, 2, 0.962142
10, 2, wb, filler, NA, 999, 999, 3, 21, 141, 188, 132, 174, 59, 156, 3, 1.92458
10, 2, wb, filler, NA, 999, 999, 3, 21, 141, 188, 132, 174, 59, 156, 1, 1.08519
10, 2, wb, attraction, a-b-db, 14, 2, 3, 22, 83, 153, 90, 165, 165, 90, 1, 3.21478
10, 2, wb, attraction, a-b-db, 14, 2, 3, 22, 83, 153, 90, 165, 165, 90, 3, 0.702317
10, 2, wb, attraction, a-b-da, 5, 2, 3, 23, 90, 165, 165, 90, 161, 88, 1, 2.02285
10, 2, wb, attraction, a-b-da, 5, 2, 3, 23, 90, 165, 165, 90, 161, 88, 2, 1.48446
10, 2, wb, attraction, a-b-da, 14, 2, 3, 24, 90, 165, 165, 90, 153, 83, 3, 2.78454
10, 2, wb, attraction, a-b-da, 14, 2, 3, 24, 90, 165, 165, 90, 153, 83, 2, 1.04555
10, 2, wb, attraction, a-b-da, 2, 2, 3, 25, 165, 90, 90, 165, 163, 89, 3, 14.4668
10, 2, wb, attraction, a-b-da, 2, 2, 3, 25, 165, 90, 90, 165, 163, 89, 1, 0.585187
10, 2, wb, attraction, a-b-db, 2, 2, 3, 26, 90, 165, 89, 163, 165, 90, 2, 2.19915
10, 2, wb, attraction, a-b-db, 2, 2, 3, 26, 90, 165, 89, 163, 165, 90, 3, 2.21573
10, 2, wb, attraction, a-b-da, 9, 1, 3, 27, 135, 60, 129, 57, 60, 135, 2, 4.23598
10, 2, wb, attraction, a-b-da, 9, 1, 3, 27, 135, 60, 129, 57, 60, 135, 3, 1.15369
10, 2, wb, catch, NA, 999, 999, 3, 28, 158, 157, 134, 61, 101, 154, 2, 1.58256
10, 2, wb, catch, NA, 999, 999, 3, 28, 158, 157, 134, 61, 101, 154, 1, 0.911339
10, 2, wb, attraction, a-b-db, 9, 2, 3, 29, 86, 157, 90, 165, 165, 90, 1, 3.74398
10, 2, wb, attraction, a-b-db, 9, 2, 3, 29, 86, 157, 90, 165, 165, 90, 3, 1.28176
10, 2, wb, attraction, a-b-db, 14, 1, 3, 30, 56, 125, 60, 135, 135, 60, 1, 2.46822
10, 2, wb, attraction, a-b-db, 14, 1, 3, 30, 56, 125, 60, 135, 135, 60, 3, 1.11349
10, 2, wb, filler, NA, 999, 999, 3, 31, 135, 86, 114, 141, 150, 160, 1, 1.52954
10, 2, wb, filler, NA, 999, 999, 3, 31, 135, 86, 114, 141, 150, 160, 3, 0.764774
10, 2, wb, attraction, a-b-db, 9, 3, 3, 32, 114, 186, 195, 120, 120, 195, 1, 3.68994
10, 2, wb, attraction, a-b-db, 9, 3, 3, 32, 114, 186, 195, 120, 120, 195, 3, 0.963475
10, 2, wb, attraction, a-b-da, 5, 1, 3, 33, 135, 60, 132, 58, 60, 135, 2, 3.44522
10, 2, wb, attraction, a-b-da, 5, 1, 3, 33, 135, 60, 132, 58, 60, 135, 3, 1.33095
10, 2, wb, filler, NA, 999, 999, 3, 34, 187, 90, 182, 74, 170, 57, 3, 1.88794
10, 2, wb, filler, NA, 999, 999, 3, 34, 187, 90, 182, 74, 170, 57, 1, 0.997997
10, 2, wb, attraction, a-b-db, 2, 3, 3, 35, 120, 195, 119, 193, 195, 120, 1, 8.22628
10, 2, wb, attraction, a-b-db, 2, 3, 3, 35, 120, 195, 119, 193, 195, 120, 3, 1.44531
10, 2, wb, filler, NA, 999, 999, 3, 36, 115, 159, 176, 173, 180, 83, 3, 4.45885
10, 2, wb, filler, NA, 999, 999, 3, 36, 115, 159, 176, 173, 180, 83, 2, 0.896283
10, 2, wb, attraction, a-b-db, 5, 2, 3, 37, 88, 161, 90, 165, 165, 90, 2, 2.20874
10, 2, wb, attraction, a-b-db, 5, 2, 3, 37, 88, 161, 90, 165, 165, 90, 3, 0.814836
10, 2, wb, filler, NA, 999, 999, 4, 1, 66, 118, 107, 148, 187, 120, 1, 1.30033
10, 2, wb, filler, NA, 999, 999, 4, 1, 66, 118, 107, 148, 187, 120, 3, 0.74985
10, 2, wb, filler, NA, 999, 999, 4, 2, 129, 62, 190, 139, 142, 193, 1, 1.69556
10, 2, wb, filler, NA, 999, 999, 4, 2, 129, 62, 190, 139, 142, 193, 2, 5.75268
10, 2, wb, attraction, a-b-db, 14, 3, 4, 3, 111, 181, 120, 195, 195, 120, 1, 3.96034
10, 2, wb, attraction, a-b-db, 14, 3, 4, 3, 111, 181, 120, 195, 195, 120, 2, 0.576562
10, 2, wb, attraction, a-b-db, 9, 1, 4, 4, 135, 60, 57, 129, 60, 135, 2, 1.8479
10, 2, wb, attraction, a-b-db, 9, 1, 4, 4, 135, 60, 57, 129, 60, 135, 3, 1.49299
10, 2, wb, attraction, a-b-da, 14, 2, 4, 5, 90, 165, 165, 90, 153, 83, 3, 3.30925
10, 2, wb, attraction, a-b-da, 14, 2, 4, 5, 90, 165, 165, 90, 153, 83, 1, 0.800436
10, 2, wb, catch, NA, 999, 999, 4, 6, 172, 143, 94, 101, 120, 135, 2, 2.24486
10, 2, wb, catch, NA, 999, 999, 4, 6, 172, 143, 94, 101, 120, 135, 1, 0.705434
10, 2, wb, filler, NA, 999, 999, 4, 7, 121, 190, 125, 175, 171, 156, 1, 2.31679
10, 2, wb, filler, NA, 999, 999, 4, 7, 121, 190, 125, 175, 171, 156, 3, 0.918295
10, 2, wb, attraction, a-b-da, 9, 3, 4, 8, 195, 120, 186, 114, 120, 195, 2, 5.35927
10, 2, wb, attraction, a-b-da, 9, 3, 4, 8, 195, 120, 186, 114, 120, 195, 1, 3.11881
10, 2, wb, attraction, a-b-db, 5, 3, 4, 9, 120, 195, 195, 120, 117, 190, 1, 3.16889
10, 2, wb, attraction, a-b-db, 5, 3, 4, 9, 120, 195, 195, 120, 117, 190, 3, 0.909909
10, 2, wb, attraction, a-b-da, 9, 2, 4, 10, 90, 165, 157, 86, 165, 90, 2, 2.36778
10, 2, wb, attraction, a-b-da, 9, 2, 4, 10, 90, 165, 157, 86, 165, 90, 1, 1.27242
10, 2, wb, filler, NA, 999, 999, 4, 11, 174, 152, 174, 175, 109, 77, 3, 1.38728
10, 2, wb, filler, NA, 999, 999, 4, 11, 174, 152, 174, 175, 109, 77, 2, 1.99652
10, 2, wb, filler, NA, 999, 999, 4, 12, 132, 129, 74, 78, 179, 104, 2, 3.2485
10, 2, wb, filler, NA, 999, 999, 4, 12, 132, 129, 74, 78, 179, 104, 1, 4.30848
10, 2, wb, attraction, a-b-da, 2, 3, 4, 13, 120, 195, 193, 119, 195, 120, 3, 4.43757
10, 2, wb, attraction, a-b-da, 2, 3, 4, 13, 120, 195, 193, 119, 195, 120, 2, 1.00219
10, 2, wb, attraction, a-b-da, 9, 1, 4, 14, 129, 57, 135, 60, 60, 135, 1, 2.10496
10, 2, wb, attraction, a-b-da, 9, 1, 4, 14, 129, 57, 135, 60, 60, 135, 3, 2.01711
10, 2, wb, filler, NA, 999, 999, 4, 15, 141, 112, 95, 149, 80, 122, 3, 2.23921
10, 2, wb, filler, NA, 999, 999, 4, 15, 141, 112, 95, 149, 80, 122, 1, 0.892932
10, 2, wb, attraction, a-b-db, 5, 2, 4, 16, 165, 90, 90, 165, 88, 161, 3, 2.82163
10, 2, wb, attraction, a-b-db, 5, 2, 4, 16, 165, 90, 90, 165, 88, 161, 1, 1.13253
10, 2, wb, filler, NA, 999, 999, 4, 17, 133, 147, 117, 186, 182, 195, 1, 1.79472
10, 2, wb, filler, NA, 999, 999, 4, 17, 133, 147, 117, 186, 182, 195, 3, 1.01051
10, 2, wb, attraction, a-b-da, 2, 1, 4, 18, 60, 135, 135, 60, 134, 59, 1, 12.0792
10, 2, wb, attraction, a-b-da, 2, 1, 4, 18, 60, 135, 135, 60, 134, 59, 3, 0.825503
10, 2, wb, attraction, a-b-db, 14, 1, 4, 19, 135, 60, 60, 135, 56, 125, 3, 4.07864
10, 2, wb, attraction, a-b-db, 14, 1, 4, 19, 135, 60, 60, 135, 56, 125, 1, 0.961878
10, 2, wb, attraction, a-b-db, 2, 2, 4, 20, 89, 163, 165, 90, 90, 165, 1, 4.44029
10, 2, wb, attraction, a-b-db, 2, 2, 4, 20, 89, 163, 165, 90, 90, 165, 3, 1.05349
10, 2, wb, attraction, a-b-db, 5, 1, 4, 21, 135, 60, 60, 135, 58, 132, 3, 4.39178
10, 2, wb, attraction, a-b-db, 5, 1, 4, 21, 135, 60, 60, 135, 58, 132, 1, 0.727466
10, 2, wb, attraction, a-b-db, 9, 2, 4, 22, 86, 157, 90, 165, 165, 90, 3, 8.54426
10, 2, wb, attraction, a-b-db, 9, 2, 4, 22, 86, 157, 90, 165, 165, 90, 2, 1.25673
10, 2, wb, filler, NA, 999, 999, 4, 23, 94, 141, 91, 142, 193, 102, 2, 2.0983
10, 2, wb, filler, NA, 999, 999, 4, 23, 94, 141, 91, 142, 193, 102, 3, 0.743019
10, 2, wb, attraction, a-b-da, 14, 3, 4, 24, 181, 111, 195, 120, 120, 195, 1, 4.83955
10, 2, wb, attraction, a-b-da, 14, 3, 4, 24, 181, 111, 195, 120, 120, 195, 2, 0.761746
10, 2, wb, attraction, a-b-da, 14, 1, 4, 25, 135, 60, 125, 56, 60, 135, 2, 2.66696
10, 2, wb, attraction, a-b-da, 14, 1, 4, 25, 135, 60, 125, 56, 60, 135, 1, 4.65553
10, 2, wb, catch, NA, 999, 999, 4, 26, 80, 115, 108, 147, 171, 144, 1, 1.48198
10, 2, wb, catch, NA, 999, 999, 4, 26, 80, 115, 108, 147, 171, 144, 3, 1.96387
10, 2, wb, attraction, a-b-db, 14, 2, 4, 27, 165, 90, 83, 153, 90, 165, 2, 4.31744
10, 2, wb, attraction, a-b-db, 14, 2, 4, 27, 165, 90, 83, 153, 90, 165, 1, 1.34984
10, 2, wb, attraction, a-b-da, 2, 2, 4, 28, 163, 89, 90, 165, 165, 90, 1, 5.76525
10, 2, wb, attraction, a-b-da, 2, 2, 4, 28, 163, 89, 90, 165, 165, 90, 3, 2.6528
10, 2, wb, attraction, a-b-db, 9, 3, 4, 29, 195, 120, 120, 195, 114, 186, 3, 3.78196
10, 2, wb, attraction, a-b-db, 9, 3, 4, 29, 195, 120, 120, 195, 114, 186, 1, 0.99978
10, 2, wb, attraction, a-b-da, 5, 1, 4, 30, 132, 58, 60, 135, 135, 60, 2, 3.56426
10, 2, wb, attraction, a-b-da, 5, 1, 4, 30, 132, 58, 60, 135, 135, 60, 1, 1.49211
10, 2, wb, attraction, a-b-da, 5, 2, 4, 31, 165, 90, 90, 165, 161, 88, 2, 2.33273
10, 2, wb, attraction, a-b-da, 5, 2, 4, 31, 165, 90, 90, 165, 161, 88, 1, 0.750209
10, 2, wb, attraction, a-b-da, 5, 3, 4, 32, 190, 117, 195, 120, 120, 195, 1, 3.0769
10, 2, wb, attraction, a-b-da, 5, 3, 4, 32, 190, 117, 195, 120, 120, 195, 3, 0.994397
10, 2, wb, catch, NA, 999, 999, 4, 33, 119, 76, 108, 147, 175, 140, 1, 1.63162
10, 2, wb, catch, NA, 999, 999, 4, 33, 119, 76, 108, 147, 175, 140, 3, 0.653969
10, 2, wb, attraction, a-b-db, 2, 3, 4, 34, 120, 195, 119, 193, 195, 120, 1, 3.92172
10, 2, wb, attraction, a-b-db, 2, 3, 4, 34, 120, 195, 119, 193, 195, 120, 2, 0.970903
10, 2, wb, filler, NA, 999, 999, 4, 35, 69, 140, 137, 163, 58, 64, 3, 1.5391
10, 2, wb, filler, NA, 999, 999, 4, 35, 69, 140, 137, 163, 58, 64, 2, 0.585716
10, 2, wb, attraction, a-b-db, 2, 1, 4, 36, 135, 60, 59, 134, 60, 135, 2, 5.70531
10, 2, wb, attraction, a-b-db, 2, 1, 4, 36, 135, 60, 59, 134, 60, 135, 1, 0.940134
10, 2, wb, filler, NA, 999, 999, 4, 37, 87, 163, 169, 89, 171, 96, 1, 5.19714
10, 2, wb, filler, NA, 999, 999, 4, 37, 87, 163, 169, 89, 171, 96, 3, 0.96943
10, 2, wb, attraction, a-b-db, 14, 3, 5, 1, 120, 195, 111, 181, 195, 120, 2, 6.24842
10, 2, wb, attraction, a-b-db, 14, 3, 5, 1, 120, 195, 111, 181, 195, 120, 3, 1.16942
10, 2, wb, attraction, a-b-da, 2, 3, 5, 2, 195, 120, 193, 119, 120, 195, 1, 2.7935
10, 2, wb, attraction, a-b-da, 2, 3, 5, 2, 195, 120, 193, 119, 120, 195, 3, 1.75223
10, 2, wb, catch, NA, 999, 999, 5, 3, 152, 103, 179, 136, 132, 63, 3, 9.30471
10, 2, wb, catch, NA, 999, 999, 5, 3, 152, 103, 179, 136, 132, 63, 2, 1.20744
10, 2, wb, attraction, a-b-db, 2, 1, 5, 4, 60, 135, 135, 60, 59, 134, 2, 3.94143
10, 2, wb, attraction, a-b-db, 2, 1, 5, 4, 60, 135, 135, 60, 59, 134, 3, 0.805767
10, 2, wb, attraction, a-b-db, 5, 1, 5, 5, 135, 60, 58, 132, 60, 135, 2, 4.26068
10, 2, wb, attraction, a-b-db, 5, 1, 5, 5, 135, 60, 58, 132, 60, 135, 1, 1.09446
10, 2, wb, attraction, a-b-da, 9, 2, 5, 6, 90, 165, 165, 90, 157, 86, 2, 3.56236
10, 2, wb, attraction, a-b-da, 9, 2, 5, 6, 90, 165, 165, 90, 157, 86, 1, 0.73666
10, 2, wb, filler, NA, 999, 999, 5, 7, 192, 92, 71, 155, 162, 154, 2, 3.94775
10, 2, wb, filler, NA, 999, 999, 5, 7, 192, 92, 71, 155, 162, 154, 3, 1.499
10, 2, wb, filler, NA, 999, 999, 5, 8, 120, 158, 91, 176, 193, 152, 2, 2.16479
10, 2, wb, filler, NA, 999, 999, 5, 8, 120, 158, 91, 176, 193, 152, 3, 0.587925
10, 2, wb, attraction, a-b-da, 14, 3, 5, 9, 181, 111, 120, 195, 195, 120, 1, 5.738
10, 2, wb, attraction, a-b-da, 14, 3, 5, 9, 181, 111, 120, 195, 195, 120, 2, 2.55343
10, 2, wb, filler, NA, 999, 999, 5, 10, 193, 161, 56, 62, 131, 76, 2, 1.92092
10, 2, wb, filler, NA, 999, 999, 5, 10, 193, 161, 56, 62, 131, 76, 1, 1.19433
10, 2, wb, catch, NA, 999, 999, 5, 11, 79, 116, 177, 138, 120, 135, 1, 1.56174
10, 2, wb, catch, NA, 999, 999, 5, 11, 79, 116, 177, 138, 120, 135, 2, 0.984562
10, 2, wb, attraction, a-b-db, 5, 2, 5, 12, 88, 161, 165, 90, 90, 165, 1, 1.776
10, 2, wb, attraction, a-b-db, 5, 2, 5, 12, 88, 161, 165, 90, 90, 165, 3, 1.6794
10, 2, wb, attraction, a-b-da, 9, 3, 5, 13, 120, 195, 195, 120, 186, 114, 3, 4.3237
10, 2, wb, attraction, a-b-da, 9, 3, 5, 13, 120, 195, 195, 120, 186, 114, 1, 1.04433
10, 2, wb, attraction, a-b-db, 9, 3, 5, 14, 195, 120, 114, 186, 120, 195, 2, 4.01725
10, 2, wb, attraction, a-b-db, 9, 3, 5, 14, 195, 120, 114, 186, 120, 195, 1, 0.925487
10, 2, wb, filler, NA, 999, 999, 5, 15, 91, 57, 101, 143, 185, 165, 1, 2.23121
10, 2, wb, filler, NA, 999, 999, 5, 15, 91, 57, 101, 143, 185, 165, 3, 0.96346
10, 2, wb, attraction, a-b-db, 9, 2, 5, 16, 165, 90, 86, 157, 90, 165, 2, 2.08395
10, 2, wb, attraction, a-b-db, 9, 2, 5, 16, 165, 90, 86, 157, 90, 165, 1, 0.991547
10, 2, wb, attraction, a-b-da, 14, 2, 5, 17, 165, 90, 153, 83, 90, 165, 2, 3.4274
10, 2, wb, attraction, a-b-da, 14, 2, 5, 17, 165, 90, 153, 83, 90, 165, 1, 1.12222
10, 2, wb, filler, NA, 999, 999, 5, 18, 96, 92, 93, 106, 135, 101, 1, 2.5799
10, 2, wb, filler, NA, 999, 999, 5, 18, 96, 92, 93, 106, 135, 101, 3, 0.820064
10, 2, wb, filler, NA, 999, 999, 5, 19, 163, 159, 179, 86, 64, 74, 3, 1.8885
10, 2, wb, filler, NA, 999, 999, 5, 19, 163, 159, 179, 86, 64, 74, 1, 0.89898
10, 2, wb, attraction, a-b-db, 2, 2, 5, 20, 90, 165, 89, 163, 165, 90, 3, 5.35629
10, 2, wb, attraction, a-b-db, 2, 2, 5, 20, 90, 165, 89, 163, 165, 90, 1, 0.974343
10, 2, wb, attraction, a-b-da, 2, 2, 5, 21, 90, 165, 163, 89, 165, 90, 2, 9.17031
10, 2, wb, attraction, a-b-da, 2, 2, 5, 21, 90, 165, 163, 89, 165, 90, 1, 1.41036
10, 2, wb, attraction, a-b-da, 14, 1, 5, 22, 125, 56, 60, 135, 135, 60, 1, 2.8246
10, 2, wb, attraction, a-b-da, 14, 1, 5, 22, 125, 56, 60, 135, 135, 60, 3, 1.25374
10, 2, wb, attraction, a-b-db, 14, 2, 5, 23, 90, 165, 165, 90, 83, 153, 3, 3.1936
10, 2, wb, attraction, a-b-db, 14, 2, 5, 23, 90, 165, 165, 90, 83, 153, 2, 3.92538
10, 2, wb, attraction, a-b-db, 5, 3, 5, 24, 120, 195, 117, 190, 195, 120, 3, 4.18395
10, 2, wb, attraction, a-b-db, 5, 3, 5, 24, 120, 195, 117, 190, 195, 120, 1, 0.63009
10, 2, wb, attraction, a-b-da, 5, 2, 5, 25, 90, 165, 161, 88, 165, 90, 1, 6.48409
10, 2, wb, attraction, a-b-da, 5, 2, 5, 25, 90, 165, 161, 88, 165, 90, 3, 0.726822
10, 2, wb, filler, NA, 999, 999, 5, 26, 66, 117, 125, 79, 156, 93, 1, 2.03737
10, 2, wb, filler, NA, 999, 999, 5, 26, 66, 117, 125, 79, 156, 93, 3, 0.747032
10, 2, wb, catch, NA, 999, 999, 5, 27, 117, 78, 120, 195, 137, 118, 1, 1.65907
10, 2, wb, catch, NA, 999, 999, 5, 27, 117, 78, 120, 195, 137, 118, 2, 1.73598
10, 2, wb, attraction, a-b-db, 14, 1, 5, 28, 60, 135, 56, 125, 135, 60, 2, 5.59419
10, 2, wb, attraction, a-b-db, 14, 1, 5, 28, 60, 135, 56, 125, 135, 60, 1, 1.02287
10, 2, wb, attraction, a-b-da, 5, 1, 5, 29, 60, 135, 135, 60, 132, 58, 2, 6.85937
10, 2, wb, attraction, a-b-da, 5, 1, 5, 29, 60, 135, 135, 60, 132, 58, 1, 1.25473
10, 2, wb, attraction, a-b-da, 2, 1, 5, 30, 60, 135, 134, 59, 135, 60, 2, 9.56252
10, 2, wb, attraction, a-b-da, 2, 1, 5, 30, 60, 135, 134, 59, 135, 60, 1, 1.07308
10, 2, wb, attraction, a-b-db, 2, 3, 5, 31, 120, 195, 195, 120, 119, 193, 3, 6.27652
10, 2, wb, attraction, a-b-db, 2, 3, 5, 31, 120, 195, 195, 120, 119, 193, 2, 0.813895
10, 2, wb, attraction, a-b-da, 9, 1, 5, 32, 129, 57, 135, 60, 60, 135, 1, 7.0299
10, 2, wb, attraction, a-b-da, 9, 1, 5, 32, 129, 57, 135, 60, 60, 135, 3, 0.897719
10, 2, wb, filler, NA, 999, 999, 5, 33, 126, 190, 112, 150, 164, 130, 2, 4.29069
10, 2, wb, filler, NA, 999, 999, 5, 33, 126, 190, 112, 150, 164, 130, 1, 0.812617
10, 2, wb, attraction, a-b-da, 5, 3, 5, 34, 120, 195, 190, 117, 195, 120, 3, 7.50681
10, 2, wb, attraction, a-b-da, 5, 3, 5, 34, 120, 195, 190, 117, 195, 120, 1, 0.938797
10, 2, wb, filler, NA, 999, 999, 5, 35, 100, 171, 136, 109, 90, 126, 3, 1.69352
10, 2, wb, filler, NA, 999, 999, 5, 35, 100, 171, 136, 109, 90, 126, 1, 0.862174
10, 2, wb, filler, NA, 999, 999, 5, 36, 180, 171, 67, 163, 108, 104, 3, 1.89058
10, 2, wb, filler, NA, 999, 999, 5, 36, 180, 171, 67, 163, 108, 104, 1, 1.75857
10, 2, wb, attraction, a-b-db, 9, 1, 5, 37, 135, 60, 57, 129, 60, 135, 2, 6.45298
10, 2, wb, attraction, a-b-db, 9, 1, 5, 37, 135, 60, 57, 129, 60, 135, 1, 1.00878
10, 2, wb, attraction, a-b-da, 2, 1, 6, 1, 134, 59, 135, 60, 60, 135, 1, 5.06236
10, 2, wb, attraction, a-b-da, 2, 1, 6, 1, 134, 59, 135, 60, 60, 135, 2, 1.21863
10, 2, wb, attraction, a-b-db, 2, 1, 6, 2, 135, 60, 59, 134, 60, 135, 3, 4.11056
10, 2, wb, attraction, a-b-db, 2, 1, 6, 2, 135, 60, 59, 134, 60, 135, 1, 1.02653
10, 2, wb, filler, NA, 999, 999, 6, 3, 80, 132, 85, 147, 109, 75, 3, 1.90338
10, 2, wb, filler, NA, 999, 999, 6, 3, 80, 132, 85, 147, 109, 75, 2, 1.13845
10, 2, wb, filler, NA, 999, 999, 6, 4, 144, 167, 81, 139, 189, 152, 2, 1.48084
10, 2, wb, filler, NA, 999, 999, 6, 4, 144, 167, 81, 139, 189, 152, 3, 1.7486
10, 2, wb, attraction, a-b-da, 5, 3, 6, 5, 190, 117, 120, 195, 195, 120, 3, 2.34722
10, 2, wb, attraction, a-b-da, 5, 3, 6, 5, 190, 117, 120, 195, 195, 120, 2, 1.61105
10, 2, wb, attraction, a-b-db, 14, 2, 6, 6, 83, 153, 165, 90, 90, 165, 1, 1.57698
10, 2, wb, attraction, a-b-db, 14, 2, 6, 6, 83, 153, 165, 90, 90, 165, 3, 0.882109
10, 2, wb, filler, NA, 999, 999, 6, 7, 104, 181, 94, 140, 122, 179, 2, 2.0516
10, 2, wb, filler, NA, 999, 999, 6, 7, 104, 181, 94, 140, 122, 179, 3, 1.01883
10, 2, wb, attraction, a-b-db, 14, 1, 6, 8, 56, 125, 135, 60, 60, 135, 1, 6.12462
10, 2, wb, attraction, a-b-db, 14, 1, 6, 8, 56, 125, 135, 60, 60, 135, 2, 0.813127
10, 2, wb, attraction, a-b-da, 9, 1, 6, 9, 129, 57, 60, 135, 135, 60, 2, 1.89318
10, 2, wb, attraction, a-b-da, 9, 1, 6, 9, 129, 57, 60, 135, 135, 60, 3, 0.696794
10, 2, wb, attraction, a-b-da, 14, 3, 6, 10, 120, 195, 195, 120, 181, 111, 3, 2.86509
10, 2, wb, attraction, a-b-da, 14, 3, 6, 10, 120, 195, 195, 120, 181, 111, 1, 2.36578
10, 2, wb, attraction, a-b-da, 14, 2, 6, 11, 165, 90, 90, 165, 153, 83, 3, 3.30905
10, 2, wb, attraction, a-b-da, 14, 2, 6, 11, 165, 90, 90, 165, 153, 83, 1, 2.18253
10, 2, wb, attraction, a-b-db, 5, 3, 6, 12, 120, 195, 195, 120, 117, 190, 3, 4.54993
10, 2, wb, attraction, a-b-db, 5, 3, 6, 12, 120, 195, 195, 120, 117, 190, 1, 0.974121
10, 2, wb, attraction, a-b-db, 9, 3, 6, 13, 195, 120, 120, 195, 114, 186, 3, 1.93061
10, 2, wb, attraction, a-b-db, 9, 3, 6, 13, 195, 120, 120, 195, 114, 186, 1, 1.1169
10, 2, wb, attraction, a-b-db, 5, 2, 6, 14, 165, 90, 90, 165, 88, 161, 1, 3.26872
10, 2, wb, attraction, a-b-db, 5, 2, 6, 14, 165, 90, 90, 165, 88, 161, 2, 4.12186
10, 2, wb, attraction, a-b-da, 9, 3, 6, 15, 195, 120, 186, 114, 120, 195, 1, 6.3461
10, 2, wb, attraction, a-b-da, 9, 3, 6, 15, 195, 120, 186, 114, 120, 195, 3, 0.96976
10, 2, wb, attraction, a-b-da, 5, 1, 6, 16, 60, 135, 132, 58, 135, 60, 2, 6.19874
10, 2, wb, attraction, a-b-da, 5, 1, 6, 16, 60, 135, 132, 58, 135, 60, 1, 1.25149
10, 2, wb, filler, NA, 999, 999, 6, 17, 114, 132, 74, 106, 152, 94, 2, 1.60046
10, 2, wb, filler, NA, 999, 999, 6, 17, 114, 132, 74, 106, 152, 94, 1, 5.0001
10, 2, wb, attraction, a-b-db, 2, 2, 6, 18, 90, 165, 89, 163, 165, 90, 2, 6.11579
10, 2, wb, attraction, a-b-db, 2, 2, 6, 18, 90, 165, 89, 163, 165, 90, 1, 3.87814
10, 2, wb, catch, NA, 999, 999, 6, 19, 91, 164, 86, 109, 129, 186, 2, 1.68879
10, 2, wb, catch, NA, 999, 999, 6, 19, 91, 164, 86, 109, 129, 186, 3, 0.801464
10, 2, wb, attraction, a-b-da, 2, 3, 6, 20, 193, 119, 120, 195, 195, 120, 2, 7.62288
10, 2, wb, attraction, a-b-da, 2, 3, 6, 20, 193, 119, 120, 195, 195, 120, 1, 0.883886
10, 2, wb, attraction, a-b-db, 9, 1, 6, 21, 135, 60, 57, 129, 60, 135, 2, 1.94128
10, 2, wb, attraction, a-b-db, 9, 1, 6, 21, 135, 60, 57, 129, 60, 135, 1, 1.04046
10, 2, wb, attraction, a-b-db, 9, 2, 6, 22, 165, 90, 86, 157, 90, 165, 2, 1.52215
10, 2, wb, attraction, a-b-db, 9, 2, 6, 22, 165, 90, 86, 157, 90, 165, 3, 1.213
10, 2, wb, attraction, a-b-db, 5, 1, 6, 23, 58, 132, 135, 60, 60, 135, 1, 3.94748
10, 2, wb, attraction, a-b-db, 5, 1, 6, 23, 58, 132, 135, 60, 60, 135, 3, 0.819868
10, 2, wb, attraction, a-b-db, 14, 3, 6, 24, 111, 181, 195, 120, 120, 195, 1, 8.08195
10, 2, wb, attraction, a-b-db, 14, 3, 6, 24, 111, 181, 195, 120, 120, 195, 3, 0.698486
10, 2, wb, attraction, a-b-db, 2, 3, 6, 25, 119, 193, 195, 120, 120, 195, 2, 2.26052
10, 2, wb, attraction, a-b-db, 2, 3, 6, 25, 119, 193, 195, 120, 120, 195, 3, 2.91936
10, 2, wb, filler, NA, 999, 999, 6, 26, 158, 181, 150, 130, 130, 175, 2, 2.70316
10, 2, wb, filler, NA, 999, 999, 6, 26, 158, 181, 150, 130, 130, 175, 1, 0.746446
10, 2, wb, attraction, a-b-da, 5, 2, 6, 27, 165, 90, 90, 165, 161, 88, 3, 2.7236
10, 2, wb, attraction, a-b-da, 5, 2, 6, 27, 165, 90, 90, 165, 161, 88, 1, 1.43898
10, 2, wb, filler, NA, 999, 999, 6, 28, 126, 183, 81, 183, 66, 130, 3, 1.31259
10, 2, wb, filler, NA, 999, 999, 6, 28, 126, 183, 81, 183, 66, 130, 1, 0.954448
10, 2, wb, filler, NA, 999, 999, 6, 29, 98, 84, 184, 182, 164, 123, 1, 3.17883
10, 2, wb, filler, NA, 999, 999, 6, 29, 98, 84, 184, 182, 164, 123, 2, 1.76121
10, 2, wb, filler, NA, 999, 999, 6, 30, 79, 154, 126, 61, 109, 71, 3, 5.1376
10, 2, wb, filler, NA, 999, 999, 6, 30, 79, 154, 126, 61, 109, 71, 1, 0.683919
10, 2, wb, attraction, a-b-da, 14, 1, 6, 31, 125, 56, 60, 135, 135, 60, 1, 3.02757
10, 2, wb, attraction, a-b-da, 14, 1, 6, 31, 125, 56, 60, 135, 135, 60, 2, 2.70639
10, 2, wb, attraction, a-b-da, 2, 2, 6, 32, 165, 90, 90, 165, 163, 89, 1, 4.06604
10, 2, wb, attraction, a-b-da, 2, 2, 6, 32, 165, 90, 90, 165, 163, 89, 3, 1.1342
10, 2, wb, filler, NA, 999, 999, 6, 33, 110, 186, 156, 72, 92, 153, 2, 1.95919
10, 2, wb, filler, NA, 999, 999, 6, 33, 110, 186, 156, 72, 92, 153, 1, 0.825007
10, 2, wb, filler, NA, 999, 999, 6, 34, 116, 113, 176, 173, 90, 194, 1, 2.13156
10, 2, wb, filler, NA, 999, 999, 6, 34, 116, 113, 176, 173, 90, 194, 2, 0.703046
10, 2, wb, catch, NA, 999, 999, 6, 35, 188, 127, 94, 161, 83, 112, 3, 1.46422
10, 2, wb, catch, NA, 999, 999, 6, 35, 188, 127, 94, 161, 83, 112, 1, 0.627056
10, 2, wb, attraction, a-b-da, 9, 2, 6, 36, 90, 165, 165, 90, 157, 86, 1, 3.30492
10, 2, wb, attraction, a-b-da, 9, 2, 6, 36, 90, 165, 165, 90, 157, 86, 2, 0.610471
10, 2, wb, catch, NA, 999, 999, 6, 37, 146, 169, 115, 80, 106, 149, 2, 1.44711
10, 2, wb, catch, NA, 999, 999, 6, 37, 146, 169, 115, 80, 106, 149, 1, 1.28431
10, 2, wb, attraction, a-b-da, 5, 1, 7, 1, 132, 58, 60, 135, 135, 60, 1, 4.20712
10, 2, wb, attraction, a-b-da, 5, 1, 7, 1, 132, 58, 60, 135, 135, 60, 2, 1.12547
10, 2, wb, attraction, a-b-da, 14, 2, 7, 2, 90, 165, 165, 90, 153, 83, 3, 3.19188
10, 2, wb, attraction, a-b-da, 14, 2, 7, 2, 90, 165, 165, 90, 153, 83, 1, 0.684426
10, 2, wb, filler, NA, 999, 999, 7, 3, 119, 94, 123, 163, 180, 163, 1, 1.34514
10, 2, wb, filler, NA, 999, 999, 7, 3, 119, 94, 123, 163, 180, 163, 3, 1.20203
10, 2, wb, attraction, a-b-db, 9, 3, 7, 4, 195, 120, 120, 195, 114, 186, 3, 2.96859
10, 2, wb, attraction, a-b-db, 9, 3, 7, 4, 195, 120, 120, 195, 114, 186, 1, 1.5349
10, 2, wb, attraction, a-b-da, 9, 1, 7, 5, 129, 57, 135, 60, 60, 135, 1, 3.48663
10, 2, wb, attraction, a-b-da, 9, 1, 7, 5, 129, 57, 135, 60, 60, 135, 3, 1.64248
10, 2, wb, attraction, a-b-db, 5, 2, 7, 6, 165, 90, 90, 165, 88, 161, 3, 7.55706
10, 2, wb, attraction, a-b-db, 5, 2, 7, 6, 165, 90, 90, 165, 88, 161, 1, 0.723285
10, 2, wb, attraction, a-b-db, 14, 1, 7, 7, 56, 125, 60, 135, 135, 60, 1, 4.13271
10, 2, wb, attraction, a-b-db, 14, 1, 7, 7, 56, 125, 60, 135, 135, 60, 3, 1.06964
10, 2, wb, attraction, a-b-db, 2, 3, 7, 8, 120, 195, 119, 193, 195, 120, 3, 2.33071
10, 2, wb, attraction, a-b-db, 2, 3, 7, 8, 120, 195, 119, 193, 195, 120, 2, 1.09742
10, 2, wb, catch, NA, 999, 999, 7, 9, 100, 95, 149, 166, 108, 147, 1, 1.83052
10, 2, wb, catch, NA, 999, 999, 7, 9, 100, 95, 149, 166, 108, 147, 2, 0.515004
10, 2, wb, attraction, a-b-db, 2, 1, 7, 10, 135, 60, 60, 135, 59, 134, 1, 2.07573
10, 2, wb, attraction, a-b-db, 2, 1, 7, 10, 135, 60, 60, 135, 59, 134, 2, 1.33608
10, 2, wb, filler, NA, 999, 999, 7, 11, 99, 103, 130, 68, 157, 68, 2, 7.40798
10, 2, wb, filler, NA, 999, 999, 7, 11, 99, 103, 130, 68, 157, 68, 3, 1.10117
10, 2, wb, filler, NA, 999, 999, 7, 12, 166, 141, 81, 82, 116, 89, 2, 1.63138
10, 2, wb, filler, NA, 999, 999, 7, 12, 166, 141, 81, 82, 116, 89, 1, 0.530406
10, 2, wb, attraction, a-b-da, 2, 1, 7, 13, 134, 59, 60, 135, 135, 60, 1, 2.45429
10, 2, wb, attraction, a-b-da, 2, 1, 7, 13, 134, 59, 60, 135, 135, 60, 3, 0.840765
10, 2, wb, attraction, a-b-db, 5, 1, 7, 14, 135, 60, 58, 132, 60, 135, 2, 2.39072
10, 2, wb, attraction, a-b-db, 5, 1, 7, 14, 135, 60, 58, 132, 60, 135, 1, 0.869142
10, 2, wb, filler, NA, 999, 999, 7, 15, 83, 176, 138, 89, 158, 131, 2, 2.03367
10, 2, wb, filler, NA, 999, 999, 7, 15, 83, 176, 138, 89, 158, 131, 3, 0.582042
10, 2, wb, attraction, a-b-da, 5, 2, 7, 16, 161, 88, 165, 90, 90, 165, 1, 5.68239
10, 2, wb, attraction, a-b-da, 5, 2, 7, 16, 161, 88, 165, 90, 90, 165, 3, 1.02108
10, 2, wb, attraction, a-b-db, 14, 2, 7, 17, 165, 90, 83, 153, 90, 165, 2, 2.37845
10, 2, wb, attraction, a-b-db, 14, 2, 7, 17, 165, 90, 83, 153, 90, 165, 1, 0.947092
10, 2, wb, attraction, a-b-da, 14, 3, 7, 18, 120, 195, 195, 120, 181, 111, 3, 2.09696
10, 2, wb, attraction, a-b-da, 14, 3, 7, 18, 120, 195, 195, 120, 181, 111, 1, 1.30063
10, 2, wb, attraction, a-b-da, 14, 1, 7, 19, 125, 56, 135, 60, 60, 135, 1, 3.13442
10, 2, wb, attraction, a-b-da, 14, 1, 7, 19, 125, 56, 135, 60, 60, 135, 3, 1.10454
10, 2, wb, filler, NA, 999, 999, 7, 20, 140, 83, 155, 84, 101, 127, 1, 3.78435
10, 2, wb, filler, NA, 999, 999, 7, 20, 140, 83, 155, 84, 101, 127, 2, 0.878285
10, 2, wb, filler, NA, 999, 999, 7, 21, 98, 108, 66, 78, 113, 87, 2, 1.50789
10, 2, wb, filler, NA, 999, 999, 7, 21, 98, 108, 66, 78, 113, 87, 1, 1.08628
10, 2, wb, attraction, a-b-db, 2, 2, 7, 22, 89, 163, 90, 165, 165, 90, 3, 4.07285
10, 2, wb, attraction, a-b-db, 2, 2, 7, 22, 89, 163, 90, 165, 165, 90, 1, 0.698615
10, 2, wb, filler, NA, 999, 999, 7, 23, 126, 96, 110, 78, 147, 72, 2, 2.75844
10, 2, wb, filler, NA, 999, 999, 7, 23, 126, 96, 110, 78, 147, 72, 1, 1.0541
10, 2, wb, catch, NA, 999, 999, 7, 24, 82, 113, 145, 170, 95, 160, 1, 1.40827
10, 2, wb, catch, NA, 999, 999, 7, 24, 82, 113, 145, 170, 95, 160, 2, 0.657153
10, 2, wb, catch, NA, 999, 999, 7, 25, 126, 69, 122, 193, 128, 127, 1, 2.06032
10, 2, wb, catch, NA, 999, 999, 7, 25, 126, 69, 122, 193, 128, 127, 2, 0.625458
10, 2, wb, attraction, a-b-db, 9, 2, 7, 26, 90, 165, 86, 157, 165, 90, 2, 4.71044
10, 2, wb, attraction, a-b-db, 9, 2, 7, 26, 90, 165, 86, 157, 165, 90, 1, 0.887326
10, 2, wb, filler, NA, 999, 999, 7, 27, 150, 77, 89, 57, 58, 166, 2, 1.55221
10, 2, wb, filler, NA, 999, 999, 7, 27, 150, 77, 89, 57, 58, 166, 1, 1.02597
10, 2, wb, attraction, a-b-da, 9, 2, 7, 28, 90, 165, 165, 90, 157, 86, 3, 3.44802
10, 2, wb, attraction, a-b-da, 9, 2, 7, 28, 90, 165, 165, 90, 157, 86, 2, 0.747909
10, 2, wb, attraction, a-b-db, 14, 3, 7, 29, 111, 181, 195, 120, 120, 195, 1, 2.14095
10, 2, wb, attraction, a-b-db, 14, 3, 7, 29, 111, 181, 195, 120, 120, 195, 3, 1.05349
10, 2, wb, attraction, a-b-da, 2, 3, 7, 30, 195, 120, 193, 119, 120, 195, 2, 4.8883
10, 2, wb, attraction, a-b-da, 2, 3, 7, 30, 195, 120, 193, 119, 120, 195, 3, 1.35708
10, 2, wb, attraction, a-b-da, 5, 3, 7, 31, 190, 117, 120, 195, 195, 120, 3, 4.30481
10, 2, wb, attraction, a-b-da, 5, 3, 7, 31, 190, 117, 120, 195, 195, 120, 2, 2.13233
10, 2, wb, attraction, a-b-db, 5, 3, 7, 32, 117, 190, 195, 120, 120, 195, 2, 2.54846
10, 2, wb, attraction, a-b-db, 5, 3, 7, 32, 117, 190, 195, 120, 120, 195, 1, 0.804225
10, 2, wb, attraction, a-b-da, 2, 2, 7, 33, 163, 89, 165, 90, 90, 165, 1, 4.09785
10, 2, wb, attraction, a-b-da, 2, 2, 7, 33, 163, 89, 165, 90, 90, 165, 3, 0.940848
10, 2, wb, attraction, a-b-db, 9, 1, 7, 34, 60, 135, 57, 129, 135, 60, 2, 7.5168
10, 2, wb, attraction, a-b-db, 9, 1, 7, 34, 60, 135, 57, 129, 135, 60, 3, 1.9961
10, 2, wb, attraction, a-b-da, 9, 3, 7, 35, 186, 114, 195, 120, 120, 195, 1, 1.81032
10, 2, wb, attraction, a-b-da, 9, 3, 7, 35, 186, 114, 195, 120, 120, 195, 3, 0.809131
10, 2, wb, filler, NA, 999, 999, 7, 36, 124, 128, 71, 152, 182, 161, 2, 2.15155
10, 2, wb, filler, NA, 999, 999, 7, 36, 124, 128, 71, 152, 182, 161, 3, 0.991536
10, 2, wb, filler, NA, 999, 999, 7, 37, 174, 132, 115, 143, 65, 69, 3, 2.53503
10, 2, wb, filler, NA, 999, 999, 7, 37, 174, 132, 115, 143, 65, 69, 1, 0.976633
10, 2, wb, catch, NA, 999, 999, 8, 1, 129, 186, 111, 84, 138, 117, 2, 6.24637
10, 2, wb, catch, NA, 999, 999, 8, 1, 129, 186, 111, 84, 138, 117, 1, 0.714513
10, 2, wb, filler, NA, 999, 999, 8, 2, 59, 149, 87, 90, 104, 102, 2, 1.81039
10, 2, wb, filler, NA, 999, 999, 8, 2, 59, 149, 87, 90, 104, 102, 3, 1.64096
10, 2, wb, attraction, a-b-db, 9, 3, 8, 3, 114, 186, 120, 195, 195, 120, 3, 4.80515
10, 2, wb, attraction, a-b-db, 9, 3, 8, 3, 114, 186, 120, 195, 195, 120, 2, 0.788764
10, 2, wb, filler, NA, 999, 999, 8, 4, 103, 74, 92, 161, 86, 152, 1, 1.71391
10, 2, wb, filler, NA, 999, 999, 8, 4, 103, 74, 92, 161, 86, 152, 2, 0.8946
10, 2, wb, attraction, a-b-db, 14, 3, 8, 5, 120, 195, 195, 120, 111, 181, 3, 2.79224
10, 2, wb, attraction, a-b-db, 14, 3, 8, 5, 120, 195, 195, 120, 111, 181, 1, 3.08645
10, 2, wb, filler, NA, 999, 999, 8, 6, 190, 112, 59, 80, 118, 59, 2, 1.64133
10, 2, wb, filler, NA, 999, 999, 8, 6, 190, 112, 59, 80, 118, 59, 1, 1.22886
10, 2, wb, filler, NA, 999, 999, 8, 7, 117, 147, 112, 134, 126, 167, 2, 2.21102
10, 2, wb, filler, NA, 999, 999, 8, 7, 117, 147, 112, 134, 126, 167, 3, 0.673191
10, 2, wb, attraction, a-b-da, 5, 1, 8, 8, 60, 135, 132, 58, 135, 60, 2, 7.90872
10, 2, wb, attraction, a-b-da, 5, 1, 8, 8, 60, 135, 132, 58, 135, 60, 1, 0.997058
10, 2, wb, attraction, a-b-db, 2, 3, 8, 9, 119, 193, 195, 120, 120, 195, 2, 3.53019
10, 2, wb, attraction, a-b-db, 2, 3, 8, 9, 119, 193, 195, 120, 120, 195, 1, 1.56457
10, 2, wb, attraction, a-b-db, 5, 1, 8, 10, 60, 135, 58, 132, 135, 60, 2, 4.88335
10, 2, wb, attraction, a-b-db, 5, 1, 8, 10, 60, 135, 58, 132, 135, 60, 3, 1.9562
10, 2, wb, filler, NA, 999, 999, 8, 11, 114, 190, 119, 125, 134, 64, 3, 1.91572
10, 2, wb, filler, NA, 999, 999, 8, 11, 114, 190, 119, 125, 134, 64, 1, 0.528224
10, 2, wb, attraction, a-b-da, 5, 3, 8, 12, 195, 120, 190, 117, 120, 195, 2, 14.3195
10, 2, wb, attraction, a-b-da, 5, 3, 8, 12, 195, 120, 190, 117, 120, 195, 1, 0.821914
10, 2, wb, filler, NA, 999, 999, 8, 13, 167, 99, 123, 128, 70, 67, 3, 2.0578
10, 2, wb, filler, NA, 999, 999, 8, 13, 167, 99, 123, 128, 70, 67, 1, 1.08755
10, 2, wb, filler, NA, 999, 999, 8, 14, 127, 70, 75, 143, 187, 105, 1, 1.60949
10, 2, wb, filler, NA, 999, 999, 8, 14, 127, 70, 75, 143, 187, 105, 3, 0.800835
10, 2, wb, attraction, a-b-da, 14, 2, 8, 15, 165, 90, 90, 165, 153, 83, 3, 2.03078
10, 2, wb, attraction, a-b-da, 14, 2, 8, 15, 165, 90, 90, 165, 153, 83, 1, 0.956546
10, 2, wb, attraction, a-b-db, 14, 2, 8, 16, 90, 165, 165, 90, 83, 153, 3, 3.73361
10, 2, wb, attraction, a-b-db, 14, 2, 8, 16, 90, 165, 165, 90, 83, 153, 1, 0.732639
10, 2, wb, attraction, a-b-da, 2, 1, 8, 17, 134, 59, 60, 135, 135, 60, 2, 2.01235
10, 2, wb, attraction, a-b-da, 2, 1, 8, 17, 134, 59, 60, 135, 135, 60, 3, 0.841542
10, 2, wb, filler, NA, 999, 999, 8, 18, 104, 117, 174, 109, 109, 150, 1, 2.08852
10, 2, wb, filler, NA, 999, 999, 8, 18, 104, 117, 174, 109, 109, 150, 2, 0.816675
10, 2, wb, attraction, a-b-db, 2, 2, 8, 19, 90, 165, 89, 163, 165, 90, 2, 5.09438
10, 2, wb, attraction, a-b-db, 2, 2, 8, 19, 90, 165, 89, 163, 165, 90, 3, 1.06496
10, 2, wb, attraction, a-b-db, 9, 1, 8, 20, 60, 135, 57, 129, 135, 60, 2, 2.51649
10, 2, wb, attraction, a-b-db, 9, 1, 8, 20, 60, 135, 57, 129, 135, 60, 1, 0.893369
10, 2, wb, attraction, a-b-db, 14, 1, 8, 21, 56, 125, 135, 60, 60, 135, 1, 2.66561
10, 2, wb, attraction, a-b-db, 14, 1, 8, 21, 56, 125, 135, 60, 60, 135, 2, 1.8908
10, 2, wb, attraction, a-b-db, 2, 1, 8, 22, 59, 134, 60, 135, 135, 60, 2, 3.68014
10, 2, wb, attraction, a-b-db, 2, 1, 8, 22, 59, 134, 60, 135, 135, 60, 3, 0.770586
10, 2, wb, attraction, a-b-da, 2, 3, 8, 23, 193, 119, 195, 120, 120, 195, 1, 4.049
10, 2, wb, attraction, a-b-da, 2, 3, 8, 23, 193, 119, 195, 120, 120, 195, 2, 1.86011
10, 2, wb, attraction, a-b-da, 9, 1, 8, 24, 135, 60, 60, 135, 129, 57, 3, 2.65652
10, 2, wb, attraction, a-b-da, 9, 1, 8, 24, 135, 60, 60, 135, 129, 57, 2, 1.07659
10, 2, wb, attraction, a-b-da, 9, 2, 8, 25, 90, 165, 157, 86, 165, 90, 2, 2.5822
10, 2, wb, attraction, a-b-da, 9, 2, 8, 25, 90, 165, 157, 86, 165, 90, 1, 0.678773
10, 2, wb, attraction, a-b-da, 14, 3, 8, 26, 195, 120, 181, 111, 120, 195, 2, 1.83182
10, 2, wb, attraction, a-b-da, 14, 3, 8, 26, 195, 120, 181, 111, 120, 195, 1, 0.845873
10, 2, wb, filler, NA, 999, 999, 8, 27, 89, 157, 106, 61, 133, 63, 2, 1.85021
10, 2, wb, filler, NA, 999, 999, 8, 27, 89, 157, 106, 61, 133, 63, 1, 0.982735
10, 2, wb, attraction, a-b-db, 5, 2, 8, 28, 90, 165, 165, 90, 88, 161, 2, 2.7189
10, 2, wb, attraction, a-b-db, 5, 2, 8, 28, 90, 165, 165, 90, 88, 161, 1, 1.03266
10, 2, wb, catch, NA, 999, 999, 8, 29, 101, 154, 119, 76, 167, 148, 2, 1.70712
10, 2, wb, catch, NA, 999, 999, 8, 29, 101, 154, 119, 76, 167, 148, 3, 1.17435
10, 2, wb, attraction, a-b-da, 5, 2, 8, 30, 161, 88, 165, 90, 90, 165, 1, 3.90975
10, 2, wb, attraction, a-b-da, 5, 2, 8, 30, 161, 88, 165, 90, 90, 165, 2, 1.18474
10, 2, wb, catch, NA, 999, 999, 8, 31, 118, 77, 120, 195, 98, 157, 1, 1.83227
10, 2, wb, catch, NA, 999, 999, 8, 31, 118, 77, 120, 195, 98, 157, 2, 0.563682
10, 2, wb, attraction, a-b-da, 14, 1, 8, 32, 135, 60, 60, 135, 125, 56, 3, 2.27699
10, 2, wb, attraction, a-b-da, 14, 1, 8, 32, 135, 60, 60, 135, 125, 56, 1, 0.790646
10, 2, wb, attraction, a-b-da, 9, 3, 8, 33, 120, 195, 195, 120, 186, 114, 3, 1.55009
10, 2, wb, attraction, a-b-da, 9, 3, 8, 33, 120, 195, 195, 120, 186, 114, 1, 0.703357
10, 2, wb, attraction, a-b-da, 2, 2, 8, 34, 165, 90, 163, 89, 90, 165, 1, 4.50631
10, 2, wb, attraction, a-b-da, 2, 2, 8, 34, 165, 90, 163, 89, 90, 165, 3, 0.577368
10, 2, wb, filler, NA, 999, 999, 8, 35, 132, 136, 73, 88, 193, 172, 2, 1.44904
10, 2, wb, filler, NA, 999, 999, 8, 35, 132, 136, 73, 88, 193, 172, 3, 0.894084
10, 2, wb, attraction, a-b-db, 5, 3, 8, 36, 117, 190, 195, 120, 120, 195, 1, 3.49795
10, 2, wb, attraction, a-b-db, 5, 3, 8, 36, 117, 190, 195, 120, 120, 195, 2, 1.30813
10, 2, wb, attraction, a-b-db, 9, 2, 8, 37, 90, 165, 165, 90, 86, 157, 3, 1.74114
10, 2, wb, attraction, a-b-db, 9, 2, 8, 37, 90, 165, 165, 90, 86, 157, 1, 1.12581
