sub_n, computer_n, bw_cond, effect, set, distance, diag, block_n, trial_n, h1, w1, h2, w2, h3, w3, choice, rt 
199, 2, bw, practice, NA, 999, 999, 0, 1, 83, 179, 57, 86, 134, 125, 1, 6.00374
199, 2, bw, practice, NA, 999, 999, 0, 1, 83, 179, 57, 86, 134, 125, 2, 2.36788
199, 2, bw, practice, NA, 999, 999, 0, 2, 182, 138, 146, 149, 165, 80, 1, 4.50091
199, 2, bw, practice, NA, 999, 999, 0, 2, 182, 138, 146, 149, 165, 80, 3, 1.90383
199, 2, bw, practice, NA, 999, 999, 0, 3, 185, 165, 174, 165, 152, 74, 2, 3.65262
199, 2, bw, practice, NA, 999, 999, 0, 3, 185, 165, 174, 165, 152, 74, 3, 1.64723
199, 2, bw, attraction, a-b-da, 9, 1, 1, 1, 135, 60, 60, 135, 129, 57, 1, 3.66553
199, 2, bw, attraction, a-b-da, 9, 1, 1, 1, 135, 60, 60, 135, 129, 57, 2, 1.89309
199, 2, bw, catch, NA, 999, 999, 1, 2, 148, 107, 156, 159, 111, 84, 2, 1.53429
199, 2, bw, catch, NA, 999, 999, 1, 2, 148, 107, 156, 159, 111, 84, 3, 1.0558
199, 2, bw, attraction, a-b-da, 14, 2, 1, 3, 90, 165, 165, 90, 153, 83, 2, 2.36335
199, 2, bw, attraction, a-b-da, 14, 2, 1, 3, 90, 165, 165, 90, 153, 83, 3, 3.36332
199, 2, bw, catch, NA, 999, 999, 1, 4, 138, 177, 95, 100, 141, 114, 1, 1.12944
199, 2, bw, catch, NA, 999, 999, 1, 4, 138, 177, 95, 100, 141, 114, 2, 0.939071
199, 2, bw, filler, NA, 999, 999, 1, 5, 59, 158, 181, 150, 113, 184, 2, 2.48342
199, 2, bw, filler, NA, 999, 999, 1, 5, 59, 158, 181, 150, 113, 184, 1, 1.19057
199, 2, bw, catch, NA, 999, 999, 1, 6, 169, 146, 96, 99, 101, 154, 1, 1.50827
199, 2, bw, catch, NA, 999, 999, 1, 6, 169, 146, 96, 99, 101, 154, 2, 1.05449
199, 2, bw, attraction, a-b-db, 5, 3, 1, 7, 195, 120, 117, 190, 120, 195, 3, 3.10606
199, 2, bw, attraction, a-b-db, 5, 3, 1, 7, 195, 120, 117, 190, 120, 195, 2, 2.03577
199, 2, bw, attraction, a-b-da, 5, 3, 1, 8, 190, 117, 195, 120, 120, 195, 2, 2.7677
199, 2, bw, attraction, a-b-da, 5, 3, 1, 8, 190, 117, 195, 120, 120, 195, 1, 1.95143
199, 2, bw, attraction, a-b-da, 9, 3, 1, 9, 186, 114, 195, 120, 120, 195, 2, 4.94271
199, 2, bw, attraction, a-b-da, 9, 3, 1, 9, 186, 114, 195, 120, 120, 195, 1, 1.17448
199, 2, bw, attraction, a-b-da, 5, 1, 1, 10, 135, 60, 132, 58, 60, 135, 3, 2.10865
199, 2, bw, attraction, a-b-da, 5, 1, 1, 10, 135, 60, 132, 58, 60, 135, 1, 1.12673
199, 2, bw, attraction, a-b-db, 14, 2, 1, 11, 90, 165, 83, 153, 165, 90, 3, 9.02307
199, 2, bw, attraction, a-b-db, 14, 2, 1, 11, 90, 165, 83, 153, 165, 90, 1, 1.22677
199, 2, bw, filler, NA, 999, 999, 1, 12, 79, 113, 100, 104, 171, 60, 2, 2.24703
199, 2, bw, filler, NA, 999, 999, 1, 12, 79, 113, 100, 104, 171, 60, 1, 4.0437
199, 2, bw, attraction, a-b-db, 14, 3, 1, 13, 111, 181, 195, 120, 120, 195, 2, 1.60627
199, 2, bw, attraction, a-b-db, 14, 3, 1, 13, 111, 181, 195, 120, 120, 195, 1, 0.948375
199, 2, bw, filler, NA, 999, 999, 1, 14, 86, 98, 118, 194, 175, 100, 2, 1.32411
199, 2, bw, filler, NA, 999, 999, 1, 14, 86, 98, 118, 194, 175, 100, 1, 0.845597
199, 2, bw, attraction, a-b-db, 5, 2, 1, 15, 88, 161, 165, 90, 90, 165, 2, 5.73724
199, 2, bw, attraction, a-b-db, 5, 2, 1, 15, 88, 161, 165, 90, 90, 165, 1, 0.809621
199, 2, bw, attraction, a-b-db, 5, 1, 1, 16, 135, 60, 58, 132, 60, 135, 3, 4.04655
199, 2, bw, attraction, a-b-db, 5, 1, 1, 16, 135, 60, 58, 132, 60, 135, 2, 1.01057
199, 2, bw, filler, NA, 999, 999, 1, 17, 187, 143, 130, 94, 132, 144, 1, 1.1995
199, 2, bw, filler, NA, 999, 999, 1, 17, 187, 143, 130, 94, 132, 144, 2, 0.758436
199, 2, bw, attraction, a-b-da, 9, 2, 1, 18, 90, 165, 165, 90, 157, 86, 2, 6.03767
199, 2, bw, attraction, a-b-da, 9, 2, 1, 18, 90, 165, 165, 90, 157, 86, 1, 1.05759
199, 2, bw, filler, NA, 999, 999, 1, 19, 151, 195, 87, 57, 143, 99, 1, 1.07644
199, 2, bw, filler, NA, 999, 999, 1, 19, 151, 195, 87, 57, 143, 99, 2, 0.864181
199, 2, bw, filler, NA, 999, 999, 1, 20, 122, 139, 100, 82, 149, 135, 3, 1.02711
199, 2, bw, filler, NA, 999, 999, 1, 20, 122, 139, 100, 82, 149, 135, 2, 0.704818
199, 2, bw, filler, NA, 999, 999, 1, 21, 141, 120, 122, 81, 96, 58, 1, 0.97077
199, 2, bw, filler, NA, 999, 999, 1, 21, 141, 120, 122, 81, 96, 58, 3, 0.778493
199, 2, bw, attraction, a-b-da, 14, 3, 1, 22, 195, 120, 120, 195, 181, 111, 2, 1.43299
199, 2, bw, attraction, a-b-da, 14, 3, 1, 22, 195, 120, 120, 195, 181, 111, 3, 0.782267
199, 2, bw, attraction, a-b-db, 2, 2, 1, 23, 165, 90, 89, 163, 90, 165, 3, 3.90045
199, 2, bw, attraction, a-b-db, 2, 2, 1, 23, 165, 90, 89, 163, 90, 165, 2, 4.35062
199, 2, bw, filler, NA, 999, 999, 1, 24, 154, 89, 86, 152, 159, 120, 3, 0.989167
199, 2, bw, filler, NA, 999, 999, 1, 24, 154, 89, 86, 152, 159, 120, 1, 1.16415
199, 2, bw, attraction, a-b-db, 2, 1, 1, 25, 59, 134, 135, 60, 60, 135, 3, 1.81108
199, 2, bw, attraction, a-b-db, 2, 1, 1, 25, 59, 134, 135, 60, 60, 135, 1, 0.801111
199, 2, bw, attraction, a-b-da, 5, 2, 1, 26, 165, 90, 161, 88, 90, 165, 3, 2.27087
199, 2, bw, attraction, a-b-da, 5, 2, 1, 26, 165, 90, 161, 88, 90, 165, 2, 2.36208
199, 2, bw, attraction, a-b-da, 2, 3, 1, 27, 195, 120, 193, 119, 120, 195, 2, 5.60857
199, 2, bw, attraction, a-b-da, 2, 3, 1, 27, 195, 120, 193, 119, 120, 195, 1, 1.42944
199, 2, bw, attraction, a-b-db, 9, 1, 1, 28, 60, 135, 135, 60, 57, 129, 3, 2.68172
199, 2, bw, attraction, a-b-db, 9, 1, 1, 28, 60, 135, 135, 60, 57, 129, 1, 1.84478
199, 2, bw, attraction, a-b-db, 9, 2, 1, 29, 165, 90, 90, 165, 86, 157, 3, 3.50418
199, 2, bw, attraction, a-b-db, 9, 2, 1, 29, 165, 90, 90, 165, 86, 157, 1, 0.602411
199, 2, bw, attraction, a-b-da, 2, 1, 1, 30, 134, 59, 135, 60, 60, 135, 3, 1.26424
199, 2, bw, attraction, a-b-da, 2, 1, 1, 30, 134, 59, 135, 60, 60, 135, 1, 0.748286
199, 2, bw, attraction, a-b-db, 2, 3, 1, 31, 120, 195, 119, 193, 195, 120, 2, 3.20406
199, 2, bw, attraction, a-b-db, 2, 3, 1, 31, 120, 195, 119, 193, 195, 120, 1, 1.33837
199, 2, bw, attraction, a-b-da, 2, 2, 1, 32, 165, 90, 90, 165, 163, 89, 2, 8.68249
199, 2, bw, attraction, a-b-da, 2, 2, 1, 32, 165, 90, 90, 165, 163, 89, 3, 0.899844
199, 2, bw, attraction, a-b-db, 14, 1, 1, 33, 135, 60, 60, 135, 56, 125, 2, 2.88558
199, 2, bw, attraction, a-b-db, 14, 1, 1, 33, 135, 60, 60, 135, 56, 125, 1, 0.792504
199, 2, bw, filler, NA, 999, 999, 1, 34, 188, 110, 81, 56, 187, 155, 3, 1.11025
199, 2, bw, filler, NA, 999, 999, 1, 34, 188, 110, 81, 56, 187, 155, 2, 0.888499
199, 2, bw, attraction, a-b-db, 9, 3, 1, 35, 120, 195, 114, 186, 195, 120, 3, 2.47484
199, 2, bw, attraction, a-b-db, 9, 3, 1, 35, 120, 195, 114, 186, 195, 120, 2, 1.15806
199, 2, bw, filler, NA, 999, 999, 1, 36, 175, 111, 133, 111, 145, 110, 1, 1.62092
199, 2, bw, filler, NA, 999, 999, 1, 36, 175, 111, 133, 111, 145, 110, 2, 0.858489
199, 2, bw, attraction, a-b-da, 14, 1, 1, 37, 135, 60, 60, 135, 125, 56, 2, 1.41343
199, 2, bw, attraction, a-b-da, 14, 1, 1, 37, 135, 60, 60, 135, 125, 56, 3, 0.915703
199, 2, bw, attraction, a-b-db, 5, 3, 2, 1, 117, 190, 195, 120, 120, 195, 3, 2.51671
199, 2, bw, attraction, a-b-db, 5, 3, 2, 1, 117, 190, 195, 120, 120, 195, 1, 2.09465
199, 2, bw, attraction, a-b-db, 2, 2, 2, 2, 90, 165, 89, 163, 165, 90, 2, 2.90389
199, 2, bw, attraction, a-b-db, 2, 2, 2, 2, 90, 165, 89, 163, 165, 90, 1, 0.626177
199, 2, bw, attraction, a-b-db, 14, 1, 2, 3, 60, 135, 56, 125, 135, 60, 3, 3.3826
199, 2, bw, attraction, a-b-db, 14, 1, 2, 3, 60, 135, 56, 125, 135, 60, 2, 0.765482
199, 2, bw, filler, NA, 999, 999, 2, 4, 114, 188, 179, 185, 155, 111, 2, 1.14052
199, 2, bw, filler, NA, 999, 999, 2, 4, 114, 188, 179, 185, 155, 111, 3, 0.629432
199, 2, bw, attraction, a-b-db, 5, 2, 2, 5, 88, 161, 165, 90, 90, 165, 3, 5.37794
199, 2, bw, attraction, a-b-db, 5, 2, 2, 5, 88, 161, 165, 90, 90, 165, 1, 0.760373
199, 2, bw, attraction, a-b-da, 5, 1, 2, 6, 60, 135, 135, 60, 132, 58, 2, 2.90322
199, 2, bw, attraction, a-b-da, 5, 1, 2, 6, 60, 135, 135, 60, 132, 58, 1, 0.985609
199, 2, bw, filler, NA, 999, 999, 2, 7, 161, 63, 159, 111, 119, 122, 2, 1.89593
199, 2, bw, filler, NA, 999, 999, 2, 7, 161, 63, 159, 111, 119, 122, 1, 0.874696
199, 2, bw, attraction, a-b-db, 9, 3, 2, 8, 114, 186, 195, 120, 120, 195, 2, 4.62094
199, 2, bw, attraction, a-b-db, 9, 3, 2, 8, 114, 186, 195, 120, 120, 195, 1, 1.01816
199, 2, bw, attraction, a-b-da, 14, 2, 2, 9, 165, 90, 90, 165, 153, 83, 2, 1.74318
199, 2, bw, attraction, a-b-da, 14, 2, 2, 9, 165, 90, 90, 165, 153, 83, 3, 0.743899
199, 2, bw, filler, NA, 999, 999, 2, 10, 185, 162, 64, 63, 183, 68, 1, 0.855591
199, 2, bw, filler, NA, 999, 999, 2, 10, 185, 162, 64, 63, 183, 68, 2, 0.68397
199, 2, bw, attraction, a-b-da, 2, 2, 2, 11, 90, 165, 165, 90, 163, 89, 2, 3.94244
199, 2, bw, attraction, a-b-da, 2, 2, 2, 11, 90, 165, 165, 90, 163, 89, 1, 0.71847
199, 2, bw, attraction, a-b-db, 2, 1, 2, 12, 59, 134, 135, 60, 60, 135, 3, 6.16755
199, 2, bw, attraction, a-b-db, 2, 1, 2, 12, 59, 134, 135, 60, 60, 135, 1, 1.11019
199, 2, bw, attraction, a-b-da, 2, 1, 2, 13, 134, 59, 60, 135, 135, 60, 2, 1.30317
199, 2, bw, attraction, a-b-da, 2, 1, 2, 13, 134, 59, 60, 135, 135, 60, 1, 0.74599
199, 2, bw, attraction, a-b-da, 9, 2, 2, 14, 90, 165, 157, 86, 165, 90, 2, 3.32975
199, 2, bw, attraction, a-b-da, 9, 2, 2, 14, 90, 165, 157, 86, 165, 90, 1, 0.730717
199, 2, bw, attraction, a-b-da, 9, 3, 2, 15, 186, 114, 195, 120, 120, 195, 2, 2.83513
199, 2, bw, attraction, a-b-da, 9, 3, 2, 15, 186, 114, 195, 120, 120, 195, 1, 2.10413
199, 2, bw, attraction, a-b-db, 14, 3, 2, 16, 195, 120, 111, 181, 120, 195, 1, 3.81751
199, 2, bw, attraction, a-b-db, 14, 3, 2, 16, 195, 120, 111, 181, 120, 195, 2, 5.04691
199, 2, bw, filler, NA, 999, 999, 2, 17, 59, 75, 191, 191, 68, 126, 2, 1.03316
199, 2, bw, filler, NA, 999, 999, 2, 17, 59, 75, 191, 191, 68, 126, 1, 0.654919
199, 2, bw, filler, NA, 999, 999, 2, 18, 79, 74, 115, 95, 136, 101, 3, 1.77069
199, 2, bw, filler, NA, 999, 999, 2, 18, 79, 74, 115, 95, 136, 101, 1, 0.714112
199, 2, bw, attraction, a-b-da, 2, 3, 2, 19, 193, 119, 120, 195, 195, 120, 1, 3.33909
199, 2, bw, attraction, a-b-da, 2, 3, 2, 19, 193, 119, 120, 195, 195, 120, 3, 6.10743
199, 2, bw, filler, NA, 999, 999, 2, 20, 182, 159, 140, 60, 161, 110, 1, 0.931546
199, 2, bw, filler, NA, 999, 999, 2, 20, 182, 159, 140, 60, 161, 110, 2, 0.597111
199, 2, bw, attraction, a-b-da, 14, 3, 2, 21, 195, 120, 120, 195, 181, 111, 2, 2.51485
199, 2, bw, attraction, a-b-da, 14, 3, 2, 21, 195, 120, 120, 195, 181, 111, 3, 0.668745
199, 2, bw, attraction, a-b-da, 14, 1, 2, 22, 135, 60, 125, 56, 60, 135, 3, 1.43981
199, 2, bw, attraction, a-b-da, 14, 1, 2, 22, 135, 60, 125, 56, 60, 135, 2, 1.9487
199, 2, bw, attraction, a-b-db, 14, 2, 2, 23, 83, 153, 90, 165, 165, 90, 3, 4.732
199, 2, bw, attraction, a-b-db, 14, 2, 2, 23, 83, 153, 90, 165, 165, 90, 1, 0.892408
199, 2, bw, catch, NA, 999, 999, 2, 24, 95, 100, 170, 145, 161, 94, 2, 0.94204
199, 2, bw, catch, NA, 999, 999, 2, 24, 95, 100, 170, 145, 161, 94, 1, 0.775162
199, 2, bw, attraction, a-b-da, 5, 3, 2, 25, 190, 117, 120, 195, 195, 120, 2, 1.97354
199, 2, bw, attraction, a-b-da, 5, 3, 2, 25, 190, 117, 120, 195, 195, 120, 3, 1.35678
199, 2, bw, catch, NA, 999, 999, 2, 26, 87, 108, 156, 99, 169, 146, 3, 0.923643
199, 2, bw, catch, NA, 999, 999, 2, 26, 87, 108, 156, 99, 169, 146, 1, 0.693353
199, 2, bw, catch, NA, 999, 999, 2, 27, 107, 88, 185, 130, 111, 144, 2, 1.4872
199, 2, bw, catch, NA, 999, 999, 2, 27, 107, 88, 185, 130, 111, 144, 1, 0.562603
199, 2, bw, filler, NA, 999, 999, 2, 28, 57, 165, 105, 85, 170, 69, 3, 1.60979
199, 2, bw, filler, NA, 999, 999, 2, 28, 57, 165, 105, 85, 170, 69, 2, 3.46392
199, 2, bw, attraction, a-b-da, 5, 2, 2, 29, 90, 165, 161, 88, 165, 90, 1, 3.258
199, 2, bw, attraction, a-b-da, 5, 2, 2, 29, 90, 165, 161, 88, 165, 90, 2, 0.909614
199, 2, bw, attraction, a-b-db, 5, 1, 2, 30, 58, 132, 135, 60, 60, 135, 3, 1.22257
199, 2, bw, attraction, a-b-db, 5, 1, 2, 30, 58, 132, 135, 60, 60, 135, 1, 0.892169
199, 2, bw, filler, NA, 999, 999, 2, 31, 120, 163, 131, 95, 68, 78, 1, 0.901948
199, 2, bw, filler, NA, 999, 999, 2, 31, 120, 163, 131, 95, 68, 78, 3, 0.617036
199, 2, bw, attraction, a-b-da, 9, 1, 2, 32, 129, 57, 135, 60, 60, 135, 3, 1.78195
199, 2, bw, attraction, a-b-da, 9, 1, 2, 32, 129, 57, 135, 60, 60, 135, 1, 0.685546
199, 2, bw, attraction, a-b-db, 9, 2, 2, 33, 90, 165, 86, 157, 165, 90, 3, 1.39982
199, 2, bw, attraction, a-b-db, 9, 2, 2, 33, 90, 165, 86, 157, 165, 90, 2, 0.998688
199, 2, bw, attraction, a-b-db, 2, 3, 2, 34, 195, 120, 119, 193, 120, 195, 1, 1.55631
199, 2, bw, attraction, a-b-db, 2, 3, 2, 34, 195, 120, 119, 193, 120, 195, 3, 2.62846
199, 2, bw, attraction, a-b-db, 9, 1, 2, 35, 135, 60, 57, 129, 60, 135, 3, 1.83243
199, 2, bw, attraction, a-b-db, 9, 1, 2, 35, 135, 60, 57, 129, 60, 135, 2, 1.98962
199, 2, bw, filler, NA, 999, 999, 2, 36, 195, 129, 86, 127, 146, 57, 1, 2.58705
199, 2, bw, filler, NA, 999, 999, 2, 36, 195, 129, 86, 127, 146, 57, 3, 0.849486
199, 2, bw, filler, NA, 999, 999, 2, 37, 93, 89, 137, 129, 179, 195, 3, 0.989157
199, 2, bw, filler, NA, 999, 999, 2, 37, 93, 89, 137, 129, 179, 195, 1, 0.72412
199, 2, bw, attraction, a-b-da, 14, 1, 3, 1, 125, 56, 135, 60, 60, 135, 3, 2.84472
199, 2, bw, attraction, a-b-da, 14, 1, 3, 1, 125, 56, 135, 60, 60, 135, 1, 0.640895
199, 2, bw, filler, NA, 999, 999, 3, 2, 115, 132, 151, 104, 125, 84, 2, 4.23674
199, 2, bw, filler, NA, 999, 999, 3, 2, 115, 132, 151, 104, 125, 84, 3, 0.913381
199, 2, bw, filler, NA, 999, 999, 3, 3, 173, 100, 86, 117, 186, 173, 3, 1.03427
199, 2, bw, filler, NA, 999, 999, 3, 3, 173, 100, 86, 117, 186, 173, 2, 0.528033
199, 2, bw, attraction, a-b-da, 2, 3, 3, 4, 195, 120, 120, 195, 193, 119, 2, 2.58443
199, 2, bw, attraction, a-b-da, 2, 3, 3, 4, 195, 120, 120, 195, 193, 119, 3, 1.78374
199, 2, bw, attraction, a-b-db, 2, 1, 3, 5, 135, 60, 60, 135, 59, 134, 3, 1.47776
199, 2, bw, attraction, a-b-db, 2, 1, 3, 5, 135, 60, 60, 135, 59, 134, 1, 1.28908
199, 2, bw, filler, NA, 999, 999, 3, 6, 147, 58, 71, 163, 191, 108, 3, 1.21925
199, 2, bw, filler, NA, 999, 999, 3, 6, 147, 58, 71, 163, 191, 108, 1, 0.625561
199, 2, bw, catch, NA, 999, 999, 3, 7, 72, 123, 168, 147, 127, 128, 2, 1.29395
199, 2, bw, catch, NA, 999, 999, 3, 7, 72, 123, 168, 147, 127, 128, 1, 0.657022
199, 2, bw, attraction, a-b-db, 9, 2, 3, 8, 86, 157, 90, 165, 165, 90, 2, 1.39603
199, 2, bw, attraction, a-b-db, 9, 2, 3, 8, 86, 157, 90, 165, 165, 90, 3, 0.786853
199, 2, bw, filler, NA, 999, 999, 3, 9, 153, 76, 64, 136, 132, 62, 1, 2.22523
199, 2, bw, filler, NA, 999, 999, 3, 9, 153, 76, 64, 136, 132, 62, 3, 0.750518
199, 2, bw, attraction, a-b-db, 2, 2, 3, 10, 89, 163, 90, 165, 165, 90, 1, 3.61421
199, 2, bw, attraction, a-b-db, 2, 2, 3, 10, 89, 163, 90, 165, 165, 90, 3, 3.42774
199, 2, bw, catch, NA, 999, 999, 3, 11, 139, 116, 81, 114, 141, 174, 3, 0.991221
199, 2, bw, catch, NA, 999, 999, 3, 11, 139, 116, 81, 114, 141, 174, 2, 0.454297
199, 2, bw, attraction, a-b-da, 14, 2, 3, 12, 153, 83, 90, 165, 165, 90, 2, 2.0661
199, 2, bw, attraction, a-b-da, 14, 2, 3, 12, 153, 83, 90, 165, 165, 90, 1, 0.605968
199, 2, bw, attraction, a-b-da, 9, 3, 3, 13, 186, 114, 120, 195, 195, 120, 2, 2.56386
199, 2, bw, attraction, a-b-da, 9, 3, 3, 13, 186, 114, 120, 195, 195, 120, 3, 0.835664
199, 2, bw, attraction, a-b-db, 2, 3, 3, 14, 120, 195, 119, 193, 195, 120, 2, 1.3519
199, 2, bw, attraction, a-b-db, 2, 3, 3, 14, 120, 195, 119, 193, 195, 120, 3, 4.00899
199, 2, bw, attraction, a-b-db, 5, 2, 3, 15, 88, 161, 90, 165, 165, 90, 2, 2.32488
199, 2, bw, attraction, a-b-db, 5, 2, 3, 15, 88, 161, 90, 165, 165, 90, 1, 1.15008
199, 2, bw, attraction, a-b-db, 5, 1, 3, 16, 58, 132, 60, 135, 135, 60, 2, 1.50984
199, 2, bw, attraction, a-b-db, 5, 1, 3, 16, 58, 132, 60, 135, 135, 60, 3, 0.799877
199, 2, bw, attraction, a-b-db, 9, 3, 3, 17, 114, 186, 195, 120, 120, 195, 2, 1.39759
199, 2, bw, attraction, a-b-db, 9, 3, 3, 17, 114, 186, 195, 120, 120, 195, 1, 6.00467
199, 2, bw, attraction, a-b-db, 14, 3, 3, 18, 120, 195, 111, 181, 195, 120, 3, 2.8886
199, 2, bw, attraction, a-b-db, 14, 3, 3, 18, 120, 195, 111, 181, 195, 120, 2, 0.962899
199, 2, bw, attraction, a-b-da, 2, 2, 3, 19, 90, 165, 163, 89, 165, 90, 2, 1.88997
199, 2, bw, attraction, a-b-da, 2, 2, 3, 19, 90, 165, 163, 89, 165, 90, 3, 1.8927
199, 2, bw, filler, NA, 999, 999, 3, 20, 126, 81, 65, 75, 84, 110, 1, 3.74988
199, 2, bw, filler, NA, 999, 999, 3, 20, 126, 81, 65, 75, 84, 110, 2, 0.598038
199, 2, bw, filler, NA, 999, 999, 3, 21, 165, 95, 100, 67, 122, 89, 1, 0.979755
199, 2, bw, filler, NA, 999, 999, 3, 21, 165, 95, 100, 67, 122, 89, 2, 0.523455
199, 2, bw, attraction, a-b-da, 9, 2, 3, 22, 90, 165, 165, 90, 157, 86, 2, 1.30791
199, 2, bw, attraction, a-b-da, 9, 2, 3, 22, 90, 165, 165, 90, 157, 86, 1, 1.79836
199, 2, bw, filler, NA, 999, 999, 3, 23, 175, 136, 139, 168, 73, 91, 1, 2.9876
199, 2, bw, filler, NA, 999, 999, 3, 23, 175, 136, 139, 168, 73, 91, 3, 0.746588
199, 2, bw, attraction, a-b-db, 14, 2, 3, 24, 90, 165, 165, 90, 83, 153, 2, 2.66641
199, 2, bw, attraction, a-b-db, 14, 2, 3, 24, 90, 165, 165, 90, 83, 153, 3, 2.27032
199, 2, bw, attraction, a-b-db, 9, 1, 3, 25, 135, 60, 60, 135, 57, 129, 2, 2.02471
199, 2, bw, attraction, a-b-db, 9, 1, 3, 25, 135, 60, 60, 135, 57, 129, 1, 0.57396
199, 2, bw, attraction, a-b-db, 5, 3, 3, 26, 120, 195, 195, 120, 117, 190, 2, 1.17244
199, 2, bw, attraction, a-b-db, 5, 3, 3, 26, 120, 195, 195, 120, 117, 190, 3, 1.01205
199, 2, bw, attraction, a-b-da, 5, 2, 3, 27, 161, 88, 90, 165, 165, 90, 3, 1.95293
199, 2, bw, attraction, a-b-da, 5, 2, 3, 27, 161, 88, 90, 165, 165, 90, 2, 4.67375
199, 2, bw, attraction, a-b-da, 9, 1, 3, 28, 135, 60, 129, 57, 60, 135, 3, 2.17951
199, 2, bw, attraction, a-b-da, 9, 1, 3, 28, 135, 60, 129, 57, 60, 135, 2, 0.698825
199, 2, bw, attraction, a-b-da, 2, 1, 3, 29, 134, 59, 135, 60, 60, 135, 3, 1.74051
199, 2, bw, attraction, a-b-da, 2, 1, 3, 29, 134, 59, 135, 60, 60, 135, 1, 1.26128
199, 2, bw, attraction, a-b-da, 14, 3, 3, 30, 120, 195, 195, 120, 181, 111, 2, 1.75212
199, 2, bw, attraction, a-b-da, 14, 3, 3, 30, 120, 195, 195, 120, 181, 111, 3, 1.169
199, 2, bw, filler, NA, 999, 999, 3, 31, 152, 160, 160, 186, 160, 179, 2, 1.24783
199, 2, bw, filler, NA, 999, 999, 3, 31, 152, 160, 160, 186, 160, 179, 1, 0.564755
199, 2, bw, filler, NA, 999, 999, 3, 32, 179, 181, 139, 173, 138, 138, 1, 4.8679
199, 2, bw, filler, NA, 999, 999, 3, 32, 179, 181, 139, 173, 138, 138, 3, 0.575006
199, 2, bw, attraction, a-b-da, 5, 3, 3, 33, 120, 195, 195, 120, 190, 117, 2, 3.53346
199, 2, bw, attraction, a-b-da, 5, 3, 3, 33, 120, 195, 195, 120, 190, 117, 3, 1.73433
199, 2, bw, attraction, a-b-da, 5, 1, 3, 34, 132, 58, 60, 135, 135, 60, 2, 1.23836
199, 2, bw, attraction, a-b-da, 5, 1, 3, 34, 132, 58, 60, 135, 135, 60, 1, 0.707263
199, 2, bw, attraction, a-b-db, 14, 1, 3, 35, 135, 60, 56, 125, 60, 135, 3, 2.64435
199, 2, bw, attraction, a-b-db, 14, 1, 3, 35, 135, 60, 56, 125, 60, 135, 2, 2.68885
199, 2, bw, catch, NA, 999, 999, 3, 36, 124, 191, 130, 125, 118, 77, 1, 0.866505
199, 2, bw, catch, NA, 999, 999, 3, 36, 124, 191, 130, 125, 118, 77, 3, 0.534986
199, 2, bw, filler, NA, 999, 999, 3, 37, 71, 172, 114, 98, 75, 159, 3, 4.34336
199, 2, bw, filler, NA, 999, 999, 3, 37, 71, 172, 114, 98, 75, 159, 1, 1.52745
199, 2, bw, attraction, a-b-db, 14, 3, 4, 1, 195, 120, 111, 181, 120, 195, 1, 1.61549
199, 2, bw, attraction, a-b-db, 14, 3, 4, 1, 195, 120, 111, 181, 120, 195, 2, 2.83773
199, 2, bw, attraction, a-b-db, 2, 3, 4, 2, 120, 195, 195, 120, 119, 193, 2, 3.64144
199, 2, bw, attraction, a-b-db, 2, 3, 4, 2, 120, 195, 195, 120, 119, 193, 3, 0.509634
199, 2, bw, attraction, a-b-da, 14, 3, 4, 3, 181, 111, 195, 120, 120, 195, 2, 2.13467
199, 2, bw, attraction, a-b-da, 14, 3, 4, 3, 181, 111, 195, 120, 120, 195, 1, 0.855957
199, 2, bw, attraction, a-b-db, 5, 1, 4, 4, 58, 132, 135, 60, 60, 135, 3, 1.49155
199, 2, bw, attraction, a-b-db, 5, 1, 4, 4, 58, 132, 135, 60, 60, 135, 2, 2.64647
199, 2, bw, attraction, a-b-db, 14, 1, 4, 5, 135, 60, 56, 125, 60, 135, 3, 2.90575
199, 2, bw, attraction, a-b-db, 14, 1, 4, 5, 135, 60, 56, 125, 60, 135, 1, 1.50733
199, 2, bw, filler, NA, 999, 999, 4, 6, 90, 191, 63, 135, 125, 72, 1, 1.22015
199, 2, bw, filler, NA, 999, 999, 4, 6, 90, 191, 63, 135, 125, 72, 3, 1.2343
199, 2, bw, attraction, a-b-da, 14, 2, 4, 7, 90, 165, 153, 83, 165, 90, 3, 7.01452
199, 2, bw, attraction, a-b-da, 14, 2, 4, 7, 90, 165, 153, 83, 165, 90, 2, 0.955009
199, 2, bw, filler, NA, 999, 999, 4, 8, 147, 137, 124, 82, 146, 57, 1, 1.0586
199, 2, bw, filler, NA, 999, 999, 4, 8, 147, 137, 124, 82, 146, 57, 3, 0.678916
199, 2, bw, attraction, a-b-da, 9, 2, 4, 9, 165, 90, 90, 165, 157, 86, 2, 1.77738
199, 2, bw, attraction, a-b-da, 9, 2, 4, 9, 165, 90, 90, 165, 157, 86, 3, 1.12087
199, 2, bw, attraction, a-b-da, 5, 2, 4, 10, 161, 88, 165, 90, 90, 165, 2, 2.62584
199, 2, bw, attraction, a-b-da, 5, 2, 4, 10, 161, 88, 165, 90, 90, 165, 1, 3.62288
199, 2, bw, attraction, a-b-da, 9, 3, 4, 11, 195, 120, 120, 195, 186, 114, 2, 1.53102
199, 2, bw, attraction, a-b-da, 9, 3, 4, 11, 195, 120, 120, 195, 186, 114, 3, 3.47654
199, 2, bw, attraction, a-b-db, 9, 1, 4, 12, 135, 60, 57, 129, 60, 135, 3, 1.58207
199, 2, bw, attraction, a-b-db, 9, 1, 4, 12, 135, 60, 57, 129, 60, 135, 2, 1.36554
199, 2, bw, attraction, a-b-da, 2, 3, 4, 13, 193, 119, 195, 120, 120, 195, 2, 1.78033
199, 2, bw, attraction, a-b-da, 2, 3, 4, 13, 193, 119, 195, 120, 120, 195, 1, 1.29972
199, 2, bw, filler, NA, 999, 999, 4, 14, 103, 157, 96, 179, 79, 143, 2, 1.69331
199, 2, bw, filler, NA, 999, 999, 4, 14, 103, 157, 96, 179, 79, 143, 3, 0.488098
199, 2, bw, attraction, a-b-db, 5, 2, 4, 15, 88, 161, 90, 165, 165, 90, 3, 6.38657
199, 2, bw, attraction, a-b-db, 5, 2, 4, 15, 88, 161, 90, 165, 165, 90, 1, 1.43253
199, 2, bw, filler, NA, 999, 999, 4, 16, 166, 93, 190, 59, 107, 145, 3, 5.45264
199, 2, bw, filler, NA, 999, 999, 4, 16, 166, 93, 190, 59, 107, 145, 2, 0.768233
199, 2, bw, attraction, a-b-da, 5, 3, 4, 17, 195, 120, 120, 195, 190, 117, 1, 2.75937
199, 2, bw, attraction, a-b-da, 5, 3, 4, 17, 195, 120, 120, 195, 190, 117, 3, 0.799148
199, 2, bw, filler, NA, 999, 999, 4, 18, 82, 71, 135, 167, 164, 140, 3, 3.10884
199, 2, bw, filler, NA, 999, 999, 4, 18, 82, 71, 135, 167, 164, 140, 1, 0.630469
199, 2, bw, attraction, a-b-db, 2, 1, 4, 19, 135, 60, 59, 134, 60, 135, 3, 1.43489
199, 2, bw, attraction, a-b-db, 2, 1, 4, 19, 135, 60, 59, 134, 60, 135, 2, 1.44043
199, 2, bw, filler, NA, 999, 999, 4, 20, 107, 78, 116, 184, 160, 82, 2, 1.52411
199, 2, bw, filler, NA, 999, 999, 4, 20, 107, 78, 116, 184, 160, 82, 1, 0.925339
199, 2, bw, attraction, a-b-db, 9, 2, 4, 21, 165, 90, 86, 157, 90, 165, 3, 3.04571
199, 2, bw, attraction, a-b-db, 9, 2, 4, 21, 165, 90, 86, 157, 90, 165, 2, 1.79402
199, 2, bw, attraction, a-b-da, 14, 1, 4, 22, 135, 60, 60, 135, 125, 56, 1, 2.72774
199, 2, bw, attraction, a-b-da, 14, 1, 4, 22, 135, 60, 60, 135, 125, 56, 3, 1.12054
199, 2, bw, catch, NA, 999, 999, 4, 23, 137, 178, 151, 104, 73, 122, 1, 0.937389
199, 2, bw, catch, NA, 999, 999, 4, 23, 137, 178, 151, 104, 73, 122, 3, 0.554498
199, 2, bw, catch, NA, 999, 999, 4, 24, 88, 107, 137, 178, 146, 109, 2, 1.07348
199, 2, bw, catch, NA, 999, 999, 4, 24, 88, 107, 137, 178, 146, 109, 1, 0.30984
199, 2, bw, attraction, a-b-db, 2, 2, 4, 25, 90, 165, 165, 90, 89, 163, 2, 4.43112
199, 2, bw, attraction, a-b-db, 2, 2, 4, 25, 90, 165, 165, 90, 89, 163, 3, 0.71569
199, 2, bw, filler, NA, 999, 999, 4, 26, 140, 145, 101, 69, 100, 150, 1, 0.892671
199, 2, bw, filler, NA, 999, 999, 4, 26, 140, 145, 101, 69, 100, 150, 2, 0.655732
199, 2, bw, filler, NA, 999, 999, 4, 27, 123, 151, 170, 168, 66, 84, 2, 0.72347
199, 2, bw, filler, NA, 999, 999, 4, 27, 123, 151, 170, 168, 66, 84, 3, 1.40521
199, 2, bw, attraction, a-b-db, 9, 3, 4, 28, 120, 195, 114, 186, 195, 120, 3, 2.29877
199, 2, bw, attraction, a-b-db, 9, 3, 4, 28, 120, 195, 114, 186, 195, 120, 2, 0.789315
199, 2, bw, filler, NA, 999, 999, 4, 29, 136, 100, 151, 88, 103, 135, 2, 2.17964
199, 2, bw, filler, NA, 999, 999, 4, 29, 136, 100, 151, 88, 103, 135, 3, 3.38701
199, 2, bw, attraction, a-b-da, 9, 1, 4, 30, 135, 60, 60, 135, 129, 57, 2, 5.54459
199, 2, bw, attraction, a-b-da, 9, 1, 4, 30, 135, 60, 60, 135, 129, 57, 3, 2.83215
199, 2, bw, attraction, a-b-db, 5, 3, 4, 31, 195, 120, 120, 195, 117, 190, 1, 2.64379
199, 2, bw, attraction, a-b-db, 5, 3, 4, 31, 195, 120, 120, 195, 117, 190, 3, 0.480451
199, 2, bw, attraction, a-b-da, 2, 1, 4, 32, 60, 135, 135, 60, 134, 59, 2, 1.8349
199, 2, bw, attraction, a-b-da, 2, 1, 4, 32, 60, 135, 135, 60, 134, 59, 1, 0.464126
199, 2, bw, filler, NA, 999, 999, 4, 33, 73, 65, 184, 75, 183, 163, 3, 0.899334
199, 2, bw, filler, NA, 999, 999, 4, 33, 73, 65, 184, 75, 183, 163, 1, 0.574364
199, 2, bw, catch, NA, 999, 999, 4, 34, 62, 133, 130, 185, 132, 123, 2, 0.93276
199, 2, bw, catch, NA, 999, 999, 4, 34, 62, 133, 130, 185, 132, 123, 1, 0.694434
199, 2, bw, attraction, a-b-da, 5, 1, 4, 35, 132, 58, 135, 60, 60, 135, 3, 1.58408
199, 2, bw, attraction, a-b-da, 5, 1, 4, 35, 132, 58, 135, 60, 60, 135, 1, 0.615526
199, 2, bw, attraction, a-b-db, 14, 2, 4, 36, 165, 90, 83, 153, 90, 165, 3, 2.62094
199, 2, bw, attraction, a-b-db, 14, 2, 4, 36, 165, 90, 83, 153, 90, 165, 2, 1.04997
199, 2, bw, attraction, a-b-da, 2, 2, 4, 37, 163, 89, 90, 165, 165, 90, 2, 1.56541
199, 2, bw, attraction, a-b-da, 2, 2, 4, 37, 163, 89, 90, 165, 165, 90, 3, 2.83768
199, 2, bw, attraction, a-b-db, 9, 2, 5, 1, 90, 165, 86, 157, 165, 90, 3, 2.82327
199, 2, bw, attraction, a-b-db, 9, 2, 5, 1, 90, 165, 86, 157, 165, 90, 2, 1.18036
199, 2, bw, attraction, a-b-db, 5, 3, 5, 2, 195, 120, 117, 190, 120, 195, 2, 1.25857
199, 2, bw, attraction, a-b-db, 5, 3, 5, 2, 195, 120, 117, 190, 120, 195, 3, 0.694805
199, 2, bw, filler, NA, 999, 999, 5, 3, 155, 182, 103, 154, 147, 169, 1, 0.896503
199, 2, bw, filler, NA, 999, 999, 5, 3, 155, 182, 103, 154, 147, 169, 2, 0.467591
199, 2, bw, filler, NA, 999, 999, 5, 4, 114, 140, 133, 129, 176, 63, 2, 1.71076
199, 2, bw, filler, NA, 999, 999, 5, 4, 114, 140, 133, 129, 176, 63, 3, 1.97683
199, 2, bw, attraction, a-b-db, 5, 1, 5, 5, 135, 60, 60, 135, 58, 132, 2, 1.37481
199, 2, bw, attraction, a-b-db, 5, 1, 5, 5, 135, 60, 60, 135, 58, 132, 3, 0.846407
199, 2, bw, filler, NA, 999, 999, 5, 6, 136, 154, 85, 195, 56, 154, 1, 0.913981
199, 2, bw, filler, NA, 999, 999, 5, 6, 136, 154, 85, 195, 56, 154, 3, 0.548438
199, 2, bw, catch, NA, 999, 999, 5, 7, 131, 124, 170, 145, 96, 99, 2, 0.73216
199, 2, bw, catch, NA, 999, 999, 5, 7, 131, 124, 170, 145, 96, 99, 3, 0.541921
199, 2, bw, attraction, a-b-da, 5, 1, 5, 8, 60, 135, 135, 60, 132, 58, 2, 1.36564
199, 2, bw, attraction, a-b-da, 5, 1, 5, 8, 60, 135, 135, 60, 132, 58, 1, 0.605918
199, 2, bw, attraction, a-b-da, 9, 2, 5, 9, 157, 86, 90, 165, 165, 90, 2, 2.76371
199, 2, bw, attraction, a-b-da, 9, 2, 5, 9, 157, 86, 90, 165, 165, 90, 1, 0.939447
199, 2, bw, attraction, a-b-da, 14, 1, 5, 10, 60, 135, 125, 56, 135, 60, 3, 1.06784
199, 2, bw, attraction, a-b-da, 14, 1, 5, 10, 60, 135, 125, 56, 135, 60, 2, 1.06407
199, 2, bw, filler, NA, 999, 999, 5, 11, 85, 147, 134, 151, 70, 90, 2, 0.610942
199, 2, bw, filler, NA, 999, 999, 5, 11, 85, 147, 134, 151, 70, 90, 3, 0.409431
199, 2, bw, attraction, a-b-da, 5, 2, 5, 12, 90, 165, 165, 90, 161, 88, 2, 1.52662
199, 2, bw, attraction, a-b-da, 5, 2, 5, 12, 90, 165, 165, 90, 161, 88, 1, 0.584046
199, 2, bw, attraction, a-b-db, 14, 2, 5, 13, 83, 153, 90, 165, 165, 90, 2, 0.950506
199, 2, bw, attraction, a-b-db, 14, 2, 5, 13, 83, 153, 90, 165, 165, 90, 1, 0.847552
199, 2, bw, filler, NA, 999, 999, 5, 14, 116, 58, 72, 118, 192, 86, 3, 1.1471
199, 2, bw, filler, NA, 999, 999, 5, 14, 116, 58, 72, 118, 192, 86, 1, 0.484129
199, 2, bw, attraction, a-b-db, 2, 2, 5, 15, 165, 90, 90, 165, 89, 163, 2, 1.9908
199, 2, bw, attraction, a-b-db, 2, 2, 5, 15, 165, 90, 90, 165, 89, 163, 3, 1.04534
199, 2, bw, attraction, a-b-da, 9, 1, 5, 16, 129, 57, 135, 60, 60, 135, 2, 2.20088
199, 2, bw, attraction, a-b-da, 9, 1, 5, 16, 129, 57, 135, 60, 60, 135, 1, 0.615532
199, 2, bw, attraction, a-b-da, 2, 1, 5, 17, 135, 60, 134, 59, 60, 135, 3, 1.46073
199, 2, bw, attraction, a-b-da, 2, 1, 5, 17, 135, 60, 134, 59, 60, 135, 2, 0.880858
199, 2, bw, filler, NA, 999, 999, 5, 18, 167, 135, 135, 83, 109, 174, 1, 0.787102
199, 2, bw, filler, NA, 999, 999, 5, 18, 167, 135, 135, 83, 109, 174, 2, 0.570802
199, 2, bw, filler, NA, 999, 999, 5, 19, 176, 77, 195, 107, 163, 71, 2, 1.12191
199, 2, bw, filler, NA, 999, 999, 5, 19, 176, 77, 195, 107, 163, 71, 3, 0.515623
199, 2, bw, attraction, a-b-da, 9, 3, 5, 20, 186, 114, 195, 120, 120, 195, 2, 4.20472
199, 2, bw, attraction, a-b-da, 9, 3, 5, 20, 186, 114, 195, 120, 120, 195, 1, 0.73802
199, 2, bw, attraction, a-b-db, 2, 1, 5, 21, 59, 134, 60, 135, 135, 60, 2, 3.1865
199, 2, bw, attraction, a-b-db, 2, 1, 5, 21, 59, 134, 60, 135, 135, 60, 1, 0.465348
199, 2, bw, catch, NA, 999, 999, 5, 22, 182, 133, 125, 130, 100, 95, 1, 0.772493
199, 2, bw, catch, NA, 999, 999, 5, 22, 182, 133, 125, 130, 100, 95, 3, 0.532251
199, 2, bw, attraction, a-b-db, 5, 2, 5, 23, 165, 90, 90, 165, 88, 161, 2, 1.90866
199, 2, bw, attraction, a-b-db, 5, 2, 5, 23, 165, 90, 90, 165, 88, 161, 1, 0.398686
199, 2, bw, attraction, a-b-db, 2, 3, 5, 24, 120, 195, 195, 120, 119, 193, 2, 1.34063
199, 2, bw, attraction, a-b-db, 2, 3, 5, 24, 120, 195, 195, 120, 119, 193, 3, 0.405434
199, 2, bw, attraction, a-b-da, 14, 3, 5, 25, 195, 120, 120, 195, 181, 111, 1, 2.12319
199, 2, bw, attraction, a-b-da, 14, 3, 5, 25, 195, 120, 120, 195, 181, 111, 3, 0.468607
199, 2, bw, attraction, a-b-db, 14, 1, 5, 26, 56, 125, 135, 60, 60, 135, 2, 1.04771
199, 2, bw, attraction, a-b-db, 14, 1, 5, 26, 56, 125, 135, 60, 60, 135, 1, 0.692722
199, 2, bw, attraction, a-b-db, 14, 3, 5, 27, 195, 120, 120, 195, 111, 181, 1, 2.31847
199, 2, bw, attraction, a-b-db, 14, 3, 5, 27, 195, 120, 120, 195, 111, 181, 3, 0.520262
199, 2, bw, attraction, a-b-da, 2, 3, 5, 28, 120, 195, 193, 119, 195, 120, 2, 0.881401
199, 2, bw, attraction, a-b-da, 2, 3, 5, 28, 120, 195, 193, 119, 195, 120, 1, 0.62925
199, 2, bw, filler, NA, 999, 999, 5, 29, 143, 168, 75, 178, 74, 106, 1, 0.673434
199, 2, bw, filler, NA, 999, 999, 5, 29, 143, 168, 75, 178, 74, 106, 3, 0.42122
199, 2, bw, filler, NA, 999, 999, 5, 30, 70, 165, 118, 149, 77, 95, 2, 0.618407
199, 2, bw, filler, NA, 999, 999, 5, 30, 70, 165, 118, 149, 77, 95, 3, 0.472927
199, 2, bw, attraction, a-b-da, 5, 3, 5, 31, 120, 195, 195, 120, 190, 117, 2, 2.45927
199, 2, bw, attraction, a-b-da, 5, 3, 5, 31, 120, 195, 195, 120, 190, 117, 1, 0.447155
199, 2, bw, filler, NA, 999, 999, 5, 32, 120, 150, 193, 81, 154, 181, 3, 0.891037
199, 2, bw, filler, NA, 999, 999, 5, 32, 120, 150, 193, 81, 154, 181, 1, 0.694084
199, 2, bw, attraction, a-b-db, 9, 3, 5, 33, 114, 186, 120, 195, 195, 120, 3, 1.77574
199, 2, bw, attraction, a-b-db, 9, 3, 5, 33, 114, 186, 120, 195, 195, 120, 1, 0.591289
199, 2, bw, attraction, a-b-db, 9, 1, 5, 34, 60, 135, 57, 129, 135, 60, 3, 1.14895
199, 2, bw, attraction, a-b-db, 9, 1, 5, 34, 60, 135, 57, 129, 135, 60, 2, 0.389894
199, 2, bw, attraction, a-b-da, 14, 2, 5, 35, 165, 90, 90, 165, 153, 83, 2, 0.843711
199, 2, bw, attraction, a-b-da, 14, 2, 5, 35, 165, 90, 90, 165, 153, 83, 3, 0.416857
199, 2, bw, attraction, a-b-da, 2, 2, 5, 36, 90, 165, 165, 90, 163, 89, 2, 4.68603
199, 2, bw, attraction, a-b-da, 2, 2, 5, 36, 90, 165, 165, 90, 163, 89, 3, 0.504457
199, 2, bw, catch, NA, 999, 999, 5, 37, 162, 153, 159, 96, 67, 128, 1, 0.714244
199, 2, bw, catch, NA, 999, 999, 5, 37, 162, 153, 159, 96, 67, 128, 3, 0.436699
199, 2, bw, filler, NA, 999, 999, 6, 1, 120, 81, 86, 60, 114, 123, 3, 0.833047
199, 2, bw, filler, NA, 999, 999, 6, 1, 120, 81, 86, 60, 114, 123, 2, 0.478841
199, 2, bw, filler, NA, 999, 999, 6, 2, 111, 142, 135, 107, 140, 168, 3, 0.849526
199, 2, bw, filler, NA, 999, 999, 6, 2, 111, 142, 135, 107, 140, 168, 2, 0.526415
199, 2, bw, filler, NA, 999, 999, 6, 3, 186, 182, 164, 99, 168, 100, 1, 0.702733
199, 2, bw, filler, NA, 999, 999, 6, 3, 186, 182, 164, 99, 168, 100, 3, 1.20187
199, 2, bw, filler, NA, 999, 999, 6, 4, 144, 156, 144, 112, 129, 94, 1, 0.695304
199, 2, bw, filler, NA, 999, 999, 6, 4, 144, 156, 144, 112, 129, 94, 3, 1.10655
199, 2, bw, attraction, a-b-da, 14, 1, 6, 5, 125, 56, 135, 60, 60, 135, 3, 1.61933
199, 2, bw, attraction, a-b-da, 14, 1, 6, 5, 125, 56, 135, 60, 60, 135, 1, 1.59365
199, 2, bw, filler, NA, 999, 999, 6, 6, 189, 185, 77, 82, 76, 57, 1, 0.631059
199, 2, bw, filler, NA, 999, 999, 6, 6, 189, 185, 77, 82, 76, 57, 3, 0.436762
199, 2, bw, filler, NA, 999, 999, 6, 7, 138, 187, 125, 71, 96, 95, 1, 0.801124
199, 2, bw, filler, NA, 999, 999, 6, 7, 138, 187, 125, 71, 96, 95, 3, 0.456301
199, 2, bw, attraction, a-b-db, 5, 3, 6, 8, 120, 195, 117, 190, 195, 120, 3, 0.891363
199, 2, bw, attraction, a-b-db, 5, 3, 6, 8, 120, 195, 117, 190, 195, 120, 1, 0.478452
199, 2, bw, attraction, a-b-db, 14, 1, 6, 9, 60, 135, 56, 125, 135, 60, 3, 2.20895
199, 2, bw, attraction, a-b-db, 14, 1, 6, 9, 60, 135, 56, 125, 135, 60, 2, 0.358816
199, 2, bw, attraction, a-b-da, 2, 2, 6, 10, 163, 89, 165, 90, 90, 165, 2, 2.81409
199, 2, bw, attraction, a-b-da, 2, 2, 6, 10, 163, 89, 165, 90, 90, 165, 3, 0.499905
199, 2, bw, attraction, a-b-da, 5, 2, 6, 11, 90, 165, 165, 90, 161, 88, 2, 2.08558
199, 2, bw, attraction, a-b-da, 5, 2, 6, 11, 90, 165, 165, 90, 161, 88, 3, 0.840928
199, 2, bw, attraction, a-b-db, 2, 2, 6, 12, 165, 90, 90, 165, 89, 163, 2, 3.20455
199, 2, bw, attraction, a-b-db, 2, 2, 6, 12, 165, 90, 90, 165, 89, 163, 3, 1.06619
199, 2, bw, filler, NA, 999, 999, 6, 13, 195, 140, 136, 150, 162, 111, 1, 0.957061
199, 2, bw, filler, NA, 999, 999, 6, 13, 195, 140, 136, 150, 162, 111, 3, 0.501419
199, 2, bw, attraction, a-b-da, 9, 2, 6, 14, 165, 90, 90, 165, 157, 86, 2, 5.8073
199, 2, bw, attraction, a-b-da, 9, 2, 6, 14, 165, 90, 90, 165, 157, 86, 3, 0.628075
199, 2, bw, catch, NA, 999, 999, 6, 15, 109, 86, 137, 178, 137, 118, 2, 0.624451
199, 2, bw, catch, NA, 999, 999, 6, 15, 109, 86, 137, 178, 137, 118, 1, 0.366325
199, 2, bw, attraction, a-b-da, 5, 1, 6, 16, 132, 58, 135, 60, 60, 135, 3, 1.67743
199, 2, bw, attraction, a-b-da, 5, 1, 6, 16, 132, 58, 135, 60, 60, 135, 1, 0.832824
199, 2, bw, attraction, a-b-da, 2, 1, 6, 17, 60, 135, 135, 60, 134, 59, 3, 5.18922
199, 2, bw, attraction, a-b-da, 2, 1, 6, 17, 60, 135, 135, 60, 134, 59, 1, 0.450829
199, 2, bw, attraction, a-b-db, 5, 2, 6, 18, 88, 161, 90, 165, 165, 90, 3, 2.41486
199, 2, bw, attraction, a-b-db, 5, 2, 6, 18, 88, 161, 90, 165, 165, 90, 1, 0.596545
199, 2, bw, attraction, a-b-db, 14, 3, 6, 19, 120, 195, 111, 181, 195, 120, 3, 0.850384
199, 2, bw, attraction, a-b-db, 14, 3, 6, 19, 120, 195, 111, 181, 195, 120, 2, 0.455481
199, 2, bw, attraction, a-b-da, 9, 3, 6, 20, 186, 114, 120, 195, 195, 120, 2, 0.859235
199, 2, bw, attraction, a-b-da, 9, 3, 6, 20, 186, 114, 120, 195, 195, 120, 3, 1.08758
199, 2, bw, attraction, a-b-da, 5, 3, 6, 21, 120, 195, 190, 117, 195, 120, 3, 2.93788
199, 2, bw, attraction, a-b-da, 5, 3, 6, 21, 120, 195, 190, 117, 195, 120, 2, 1.88225
199, 2, bw, attraction, a-b-da, 2, 3, 6, 22, 193, 119, 120, 195, 195, 120, 3, 1.43623
199, 2, bw, attraction, a-b-da, 2, 3, 6, 22, 193, 119, 120, 195, 195, 120, 2, 1.17791
199, 2, bw, attraction, a-b-db, 9, 1, 6, 23, 60, 135, 57, 129, 135, 60, 3, 1.03206
199, 2, bw, attraction, a-b-db, 9, 1, 6, 23, 60, 135, 57, 129, 135, 60, 2, 0.573672
199, 2, bw, attraction, a-b-db, 2, 3, 6, 24, 120, 195, 195, 120, 119, 193, 2, 1.18809
199, 2, bw, attraction, a-b-db, 2, 3, 6, 24, 120, 195, 195, 120, 119, 193, 3, 0.51516
199, 2, bw, attraction, a-b-da, 14, 2, 6, 25, 165, 90, 90, 165, 153, 83, 2, 1.37212
199, 2, bw, attraction, a-b-da, 14, 2, 6, 25, 165, 90, 90, 165, 153, 83, 3, 0.483695
199, 2, bw, attraction, a-b-db, 14, 2, 6, 26, 165, 90, 90, 165, 83, 153, 1, 0.894077
199, 2, bw, attraction, a-b-db, 14, 2, 6, 26, 165, 90, 90, 165, 83, 153, 3, 0.465156
199, 2, bw, filler, NA, 999, 999, 6, 27, 162, 84, 182, 181, 129, 144, 2, 0.740308
199, 2, bw, filler, NA, 999, 999, 6, 27, 162, 84, 182, 181, 129, 144, 1, 0.469465
199, 2, bw, filler, NA, 999, 999, 6, 28, 109, 129, 121, 183, 110, 109, 2, 0.79252
199, 2, bw, filler, NA, 999, 999, 6, 28, 109, 129, 121, 183, 110, 109, 3, 0.559484
199, 2, bw, catch, NA, 999, 999, 6, 29, 113, 142, 144, 171, 76, 119, 2, 0.630583
199, 2, bw, catch, NA, 999, 999, 6, 29, 113, 142, 144, 171, 76, 119, 3, 0.508516
199, 2, bw, attraction, a-b-db, 9, 3, 6, 30, 120, 195, 195, 120, 114, 186, 2, 1.14963
199, 2, bw, attraction, a-b-db, 9, 3, 6, 30, 120, 195, 195, 120, 114, 186, 3, 0.414655
199, 2, bw, catch, NA, 999, 999, 6, 31, 102, 93, 172, 143, 100, 155, 2, 0.699578
199, 2, bw, catch, NA, 999, 999, 6, 31, 102, 93, 172, 143, 100, 155, 1, 0.462655
199, 2, bw, attraction, a-b-db, 9, 2, 6, 32, 86, 157, 165, 90, 90, 165, 3, 0.906026
199, 2, bw, attraction, a-b-db, 9, 2, 6, 32, 86, 157, 165, 90, 90, 165, 1, 0.580217
199, 2, bw, attraction, a-b-db, 2, 1, 6, 33, 60, 135, 135, 60, 59, 134, 1, 3.36265
199, 2, bw, attraction, a-b-db, 2, 1, 6, 33, 60, 135, 135, 60, 59, 134, 3, 0.45032
199, 2, bw, filler, NA, 999, 999, 6, 34, 111, 139, 115, 193, 124, 175, 2, 0.830078
199, 2, bw, filler, NA, 999, 999, 6, 34, 111, 139, 115, 193, 124, 175, 1, 0.419699
199, 2, bw, attraction, a-b-da, 14, 3, 6, 35, 181, 111, 120, 195, 195, 120, 3, 1.08882
199, 2, bw, attraction, a-b-da, 14, 3, 6, 35, 181, 111, 120, 195, 195, 120, 1, 1.33183
199, 2, bw, attraction, a-b-db, 5, 1, 6, 36, 60, 135, 135, 60, 58, 132, 2, 2.30816
199, 2, bw, attraction, a-b-db, 5, 1, 6, 36, 60, 135, 135, 60, 58, 132, 3, 0.93395
199, 2, bw, attraction, a-b-da, 9, 1, 6, 37, 135, 60, 60, 135, 129, 57, 1, 2.58226
199, 2, bw, attraction, a-b-da, 9, 1, 6, 37, 135, 60, 60, 135, 129, 57, 3, 0.501435
199, 2, bw, attraction, a-b-db, 14, 2, 7, 1, 83, 153, 165, 90, 90, 165, 2, 0.791286
199, 2, bw, attraction, a-b-db, 14, 2, 7, 1, 83, 153, 165, 90, 90, 165, 1, 0.502239
199, 2, bw, attraction, a-b-db, 5, 1, 7, 2, 60, 135, 58, 132, 135, 60, 3, 0.928083
199, 2, bw, attraction, a-b-db, 5, 1, 7, 2, 60, 135, 58, 132, 135, 60, 2, 0.65777
199, 2, bw, filler, NA, 999, 999, 7, 3, 165, 186, 101, 98, 179, 109, 1, 0.788789
199, 2, bw, filler, NA, 999, 999, 7, 3, 165, 186, 101, 98, 179, 109, 2, 0.61998
199, 2, bw, attraction, a-b-db, 2, 1, 7, 4, 59, 134, 135, 60, 60, 135, 2, 0.888978
199, 2, bw, attraction, a-b-db, 2, 1, 7, 4, 59, 134, 135, 60, 60, 135, 1, 0.524033
199, 2, bw, catch, NA, 999, 999, 7, 5, 127, 188, 104, 91, 141, 114, 1, 0.836408
199, 2, bw, catch, NA, 999, 999, 7, 5, 127, 188, 104, 91, 141, 114, 2, 0.514081
199, 2, bw, attraction, a-b-db, 9, 3, 7, 6, 195, 120, 120, 195, 114, 186, 1, 2.74724
199, 2, bw, attraction, a-b-db, 9, 3, 7, 6, 195, 120, 120, 195, 114, 186, 3, 0.579823
199, 2, bw, filler, NA, 999, 999, 7, 7, 153, 62, 122, 187, 149, 154, 2, 7.55424
199, 2, bw, filler, NA, 999, 999, 7, 7, 153, 62, 122, 187, 149, 154, 1, 0.721092
199, 2, bw, attraction, a-b-db, 5, 3, 7, 8, 120, 195, 195, 120, 117, 190, 2, 3.89025
199, 2, bw, attraction, a-b-db, 5, 3, 7, 8, 120, 195, 195, 120, 117, 190, 3, 0.612186
199, 2, bw, attraction, a-b-da, 9, 2, 7, 9, 157, 86, 90, 165, 165, 90, 3, 1.4253
199, 2, bw, attraction, a-b-da, 9, 2, 7, 9, 157, 86, 90, 165, 165, 90, 2, 0.502955
199, 2, bw, attraction, a-b-db, 14, 3, 7, 10, 195, 120, 120, 195, 111, 181, 1, 2.2407
199, 2, bw, attraction, a-b-db, 14, 3, 7, 10, 195, 120, 120, 195, 111, 181, 3, 0.54932
199, 2, bw, attraction, a-b-da, 9, 3, 7, 11, 120, 195, 186, 114, 195, 120, 3, 0.941031
199, 2, bw, attraction, a-b-da, 9, 3, 7, 11, 120, 195, 186, 114, 195, 120, 1, 0.726041
199, 2, bw, filler, NA, 999, 999, 7, 12, 130, 57, 101, 114, 139, 123, 3, 0.774482
199, 2, bw, filler, NA, 999, 999, 7, 12, 130, 57, 101, 114, 139, 123, 1, 0.598121
199, 2, bw, filler, NA, 999, 999, 7, 13, 115, 63, 100, 145, 189, 144, 3, 0.643905
199, 2, bw, filler, NA, 999, 999, 7, 13, 115, 63, 100, 145, 189, 144, 1, 1.04089
199, 2, bw, attraction, a-b-db, 2, 2, 7, 14, 89, 163, 165, 90, 90, 165, 2, 0.916586
199, 2, bw, attraction, a-b-db, 2, 2, 7, 14, 89, 163, 165, 90, 90, 165, 3, 0.775005
199, 2, bw, attraction, a-b-db, 2, 3, 7, 15, 119, 193, 195, 120, 120, 195, 3, 1.68535
199, 2, bw, attraction, a-b-db, 2, 3, 7, 15, 119, 193, 195, 120, 120, 195, 1, 1.40085
199, 2, bw, catch, NA, 999, 999, 7, 16, 71, 124, 164, 91, 187, 128, 3, 0.630271
199, 2, bw, catch, NA, 999, 999, 7, 16, 71, 124, 164, 91, 187, 128, 1, 0.403993
199, 2, bw, filler, NA, 999, 999, 7, 17, 166, 156, 119, 69, 110, 130, 1, 0.809829
199, 2, bw, filler, NA, 999, 999, 7, 17, 166, 156, 119, 69, 110, 130, 2, 1.04018
199, 2, bw, attraction, a-b-da, 14, 1, 7, 18, 125, 56, 60, 135, 135, 60, 2, 1.13985
199, 2, bw, attraction, a-b-da, 14, 1, 7, 18, 125, 56, 60, 135, 135, 60, 1, 0.572758
199, 2, bw, attraction, a-b-da, 2, 3, 7, 19, 195, 120, 120, 195, 193, 119, 2, 3.57124
199, 2, bw, attraction, a-b-da, 2, 3, 7, 19, 195, 120, 120, 195, 193, 119, 3, 0.618027
199, 2, bw, attraction, a-b-db, 9, 1, 7, 20, 60, 135, 135, 60, 57, 129, 2, 1.09522
199, 2, bw, attraction, a-b-db, 9, 1, 7, 20, 60, 135, 135, 60, 57, 129, 3, 0.514146
199, 2, bw, attraction, a-b-da, 9, 1, 7, 21, 135, 60, 129, 57, 60, 135, 1, 2.65927
199, 2, bw, attraction, a-b-da, 9, 1, 7, 21, 135, 60, 129, 57, 60, 135, 2, 1.79107
199, 2, bw, attraction, a-b-da, 5, 1, 7, 22, 135, 60, 60, 135, 132, 58, 1, 3.20443
199, 2, bw, attraction, a-b-da, 5, 1, 7, 22, 135, 60, 60, 135, 132, 58, 2, 0.698064
199, 2, bw, attraction, a-b-da, 14, 3, 7, 23, 181, 111, 195, 120, 120, 195, 2, 1.4198
199, 2, bw, attraction, a-b-da, 14, 3, 7, 23, 181, 111, 195, 120, 120, 195, 1, 0.762005
199, 2, bw, attraction, a-b-da, 5, 2, 7, 24, 90, 165, 165, 90, 161, 88, 2, 2.32905
199, 2, bw, attraction, a-b-da, 5, 2, 7, 24, 90, 165, 165, 90, 161, 88, 1, 0.578276
199, 2, bw, attraction, a-b-da, 14, 2, 7, 25, 90, 165, 165, 90, 153, 83, 2, 0.928668
199, 2, bw, attraction, a-b-da, 14, 2, 7, 25, 90, 165, 165, 90, 153, 83, 3, 1.10636
199, 2, bw, attraction, a-b-da, 2, 1, 7, 26, 135, 60, 134, 59, 60, 135, 3, 0.947309
199, 2, bw, attraction, a-b-da, 2, 1, 7, 26, 135, 60, 134, 59, 60, 135, 2, 0.588284
199, 2, bw, filler, NA, 999, 999, 7, 27, 185, 62, 138, 133, 146, 169, 3, 1.25878
199, 2, bw, filler, NA, 999, 999, 7, 27, 185, 62, 138, 133, 146, 169, 1, 0.870994
199, 2, bw, filler, NA, 999, 999, 7, 28, 125, 183, 133, 104, 173, 184, 3, 0.921962
199, 2, bw, filler, NA, 999, 999, 7, 28, 125, 183, 133, 104, 173, 184, 2, 0.571747
199, 2, bw, attraction, a-b-db, 5, 2, 7, 29, 90, 165, 88, 161, 165, 90, 1, 3.14674
199, 2, bw, attraction, a-b-db, 5, 2, 7, 29, 90, 165, 88, 161, 165, 90, 2, 0.771053
199, 2, bw, attraction, a-b-da, 2, 2, 7, 30, 90, 165, 163, 89, 165, 90, 2, 2.61011
199, 2, bw, attraction, a-b-da, 2, 2, 7, 30, 90, 165, 163, 89, 165, 90, 1, 0.951928
199, 2, bw, filler, NA, 999, 999, 7, 31, 125, 164, 176, 90, 181, 193, 3, 0.61554
199, 2, bw, filler, NA, 999, 999, 7, 31, 125, 164, 176, 90, 181, 193, 2, 0.41401
199, 2, bw, attraction, a-b-da, 5, 3, 7, 32, 195, 120, 120, 195, 190, 117, 2, 0.78716
199, 2, bw, attraction, a-b-da, 5, 3, 7, 32, 195, 120, 120, 195, 190, 117, 3, 0.586285
199, 2, bw, attraction, a-b-db, 14, 1, 7, 33, 56, 125, 60, 135, 135, 60, 2, 1.96869
199, 2, bw, attraction, a-b-db, 14, 1, 7, 33, 56, 125, 60, 135, 135, 60, 1, 0.480722
199, 2, bw, filler, NA, 999, 999, 7, 34, 129, 102, 91, 190, 57, 77, 2, 0.81923
199, 2, bw, filler, NA, 999, 999, 7, 34, 129, 102, 91, 190, 57, 77, 3, 0.817571
199, 2, bw, attraction, a-b-db, 9, 2, 7, 35, 165, 90, 90, 165, 86, 157, 1, 2.23058
199, 2, bw, attraction, a-b-db, 9, 2, 7, 35, 165, 90, 90, 165, 86, 157, 2, 0.747887
199, 2, bw, filler, NA, 999, 999, 7, 36, 167, 85, 102, 171, 86, 85, 2, 0.835514
199, 2, bw, filler, NA, 999, 999, 7, 36, 167, 85, 102, 171, 86, 85, 3, 0.457267
199, 2, bw, catch, NA, 999, 999, 7, 37, 184, 131, 163, 92, 64, 131, 1, 0.692474
199, 2, bw, catch, NA, 999, 999, 7, 37, 184, 131, 163, 92, 64, 131, 3, 0.439531
199, 2, bw, filler, NA, 999, 999, 8, 1, 127, 94, 131, 155, 80, 184, 2, 1.26746
199, 2, bw, filler, NA, 999, 999, 8, 1, 127, 94, 131, 155, 80, 184, 1, 0.39948
199, 2, bw, attraction, a-b-db, 5, 3, 8, 2, 117, 190, 195, 120, 120, 195, 2, 1.14936
199, 2, bw, attraction, a-b-db, 5, 3, 8, 2, 117, 190, 195, 120, 120, 195, 1, 0.374362
199, 2, bw, filler, NA, 999, 999, 8, 3, 57, 122, 69, 186, 106, 65, 2, 0.788918
199, 2, bw, filler, NA, 999, 999, 8, 3, 57, 122, 69, 186, 106, 65, 1, 0.4759
199, 2, bw, attraction, a-b-db, 9, 2, 8, 4, 165, 90, 90, 165, 86, 157, 1, 2.59031
199, 2, bw, attraction, a-b-db, 9, 2, 8, 4, 165, 90, 90, 165, 86, 157, 2, 0.524894
199, 2, bw, attraction, a-b-db, 14, 2, 8, 5, 83, 153, 90, 165, 165, 90, 3, 1.08522
199, 2, bw, attraction, a-b-db, 14, 2, 8, 5, 83, 153, 90, 165, 165, 90, 1, 0.584842
199, 2, bw, attraction, a-b-da, 9, 2, 8, 6, 165, 90, 90, 165, 157, 86, 1, 1.75123
199, 2, bw, attraction, a-b-da, 9, 2, 8, 6, 165, 90, 90, 165, 157, 86, 3, 0.600009
199, 2, bw, attraction, a-b-db, 5, 1, 8, 7, 60, 135, 58, 132, 135, 60, 3, 1.08581
199, 2, bw, attraction, a-b-db, 5, 1, 8, 7, 60, 135, 58, 132, 135, 60, 2, 0.601434
199, 2, bw, attraction, a-b-da, 5, 3, 8, 8, 120, 195, 190, 117, 195, 120, 2, 1.15917
199, 2, bw, attraction, a-b-da, 5, 3, 8, 8, 120, 195, 190, 117, 195, 120, 1, 0.727556
199, 2, bw, attraction, a-b-db, 14, 1, 8, 9, 60, 135, 56, 125, 135, 60, 3, 0.783851
199, 2, bw, attraction, a-b-db, 14, 1, 8, 9, 60, 135, 56, 125, 135, 60, 2, 0.495559
199, 2, bw, catch, NA, 999, 999, 8, 10, 107, 148, 159, 156, 98, 97, 2, 0.657397
199, 2, bw, catch, NA, 999, 999, 8, 10, 107, 148, 159, 156, 98, 97, 3, 0.549764
199, 2, bw, filler, NA, 999, 999, 8, 11, 173, 62, 129, 174, 144, 77, 2, 1.24555
199, 2, bw, filler, NA, 999, 999, 8, 11, 173, 62, 129, 174, 144, 77, 3, 0.834497
199, 2, bw, catch, NA, 999, 999, 8, 12, 91, 164, 166, 149, 116, 79, 2, 0.686774
199, 2, bw, catch, NA, 999, 999, 8, 12, 91, 164, 166, 149, 116, 79, 3, 0.610576
199, 2, bw, attraction, a-b-da, 9, 1, 8, 13, 129, 57, 60, 135, 135, 60, 3, 0.879835
199, 2, bw, attraction, a-b-da, 9, 1, 8, 13, 129, 57, 60, 135, 135, 60, 2, 0.891444
199, 2, bw, attraction, a-b-db, 9, 1, 8, 14, 60, 135, 135, 60, 57, 129, 2, 1.37306
199, 2, bw, attraction, a-b-db, 9, 1, 8, 14, 60, 135, 135, 60, 57, 129, 3, 0.644614
199, 2, bw, attraction, a-b-da, 2, 3, 8, 15, 195, 120, 193, 119, 120, 195, 2, 1.94432
199, 2, bw, attraction, a-b-da, 2, 3, 8, 15, 195, 120, 193, 119, 120, 195, 3, 3.70508
199, 2, bw, attraction, a-b-da, 5, 1, 8, 16, 60, 135, 132, 58, 135, 60, 2, 2.76981
199, 2, bw, attraction, a-b-da, 5, 1, 8, 16, 60, 135, 132, 58, 135, 60, 1, 0.537555
199, 2, bw, attraction, a-b-db, 14, 3, 8, 17, 195, 120, 120, 195, 111, 181, 2, 1.10609
199, 2, bw, attraction, a-b-db, 14, 3, 8, 17, 195, 120, 120, 195, 111, 181, 3, 0.59643
199, 2, bw, attraction, a-b-db, 2, 2, 8, 18, 165, 90, 90, 165, 89, 163, 2, 2.17807
199, 2, bw, attraction, a-b-db, 2, 2, 8, 18, 165, 90, 90, 165, 89, 163, 3, 4.9054
199, 2, bw, filler, NA, 999, 999, 8, 19, 90, 191, 99, 173, 95, 190, 1, 1.20979
199, 2, bw, filler, NA, 999, 999, 8, 19, 90, 191, 99, 173, 95, 190, 2, 0.800022
199, 2, bw, filler, NA, 999, 999, 8, 20, 84, 140, 62, 106, 180, 124, 3, 0.701764
199, 2, bw, filler, NA, 999, 999, 8, 20, 84, 140, 62, 106, 180, 124, 2, 0.456947
199, 2, bw, filler, NA, 999, 999, 8, 21, 100, 112, 188, 142, 163, 84, 2, 0.77197
199, 2, bw, filler, NA, 999, 999, 8, 21, 100, 112, 188, 142, 163, 84, 1, 0.507637
199, 2, bw, attraction, a-b-da, 14, 3, 8, 22, 195, 120, 120, 195, 181, 111, 1, 1.55673
199, 2, bw, attraction, a-b-da, 14, 3, 8, 22, 195, 120, 120, 195, 181, 111, 3, 0.548945
199, 2, bw, attraction, a-b-db, 2, 1, 8, 23, 60, 135, 135, 60, 59, 134, 3, 1.26881
199, 2, bw, attraction, a-b-db, 2, 1, 8, 23, 60, 135, 135, 60, 59, 134, 1, 1.02493
199, 2, bw, filler, NA, 999, 999, 8, 24, 105, 88, 129, 152, 65, 64, 2, 0.861205
199, 2, bw, filler, NA, 999, 999, 8, 24, 105, 88, 129, 152, 65, 64, 3, 0.489639
199, 2, bw, attraction, a-b-da, 5, 2, 8, 25, 90, 165, 161, 88, 165, 90, 3, 1.17948
199, 2, bw, attraction, a-b-da, 5, 2, 8, 25, 90, 165, 161, 88, 165, 90, 2, 1.21102
199, 2, bw, attraction, a-b-da, 2, 1, 8, 26, 60, 135, 134, 59, 135, 60, 3, 1.21589
199, 2, bw, attraction, a-b-da, 2, 1, 8, 26, 60, 135, 134, 59, 135, 60, 1, 0.510182
199, 2, bw, filler, NA, 999, 999, 8, 27, 110, 109, 96, 186, 71, 190, 2, 1.00732
199, 2, bw, filler, NA, 999, 999, 8, 27, 110, 109, 96, 186, 71, 190, 3, 1.72568
199, 2, bw, attraction, a-b-da, 2, 2, 8, 28, 165, 90, 90, 165, 163, 89, 1, 1.24574
199, 2, bw, attraction, a-b-da, 2, 2, 8, 28, 165, 90, 90, 165, 163, 89, 2, 0.458595
199, 2, bw, filler, NA, 999, 999, 8, 29, 136, 83, 152, 188, 125, 191, 2, 0.629729
199, 2, bw, filler, NA, 999, 999, 8, 29, 136, 83, 152, 188, 125, 191, 1, 0.403506
199, 2, bw, attraction, a-b-da, 9, 3, 8, 30, 186, 114, 195, 120, 120, 195, 2, 1.86535
199, 2, bw, attraction, a-b-da, 9, 3, 8, 30, 186, 114, 195, 120, 120, 195, 1, 1.61337
199, 2, bw, attraction, a-b-db, 2, 3, 8, 31, 119, 193, 195, 120, 120, 195, 2, 1.46619
199, 2, bw, attraction, a-b-db, 2, 3, 8, 31, 119, 193, 195, 120, 120, 195, 3, 0.510348
199, 2, bw, attraction, a-b-da, 14, 1, 8, 32, 135, 60, 60, 135, 125, 56, 1, 1.79149
199, 2, bw, attraction, a-b-da, 14, 1, 8, 32, 135, 60, 60, 135, 125, 56, 3, 0.806309
199, 2, bw, attraction, a-b-db, 9, 3, 8, 33, 120, 195, 114, 186, 195, 120, 3, 1.71527
199, 2, bw, attraction, a-b-db, 9, 3, 8, 33, 120, 195, 114, 186, 195, 120, 2, 0.549422
199, 2, bw, catch, NA, 999, 999, 8, 34, 118, 77, 130, 185, 96, 159, 2, 0.685256
199, 2, bw, catch, NA, 999, 999, 8, 34, 118, 77, 130, 185, 96, 159, 1, 0.544858
199, 2, bw, attraction, a-b-da, 14, 2, 8, 35, 90, 165, 153, 83, 165, 90, 1, 4.39268
199, 2, bw, attraction, a-b-da, 14, 2, 8, 35, 90, 165, 153, 83, 165, 90, 2, 0.630559
199, 2, bw, attraction, a-b-db, 5, 2, 8, 36, 88, 161, 165, 90, 90, 165, 3, 0.850987
199, 2, bw, attraction, a-b-db, 5, 2, 8, 36, 88, 161, 165, 90, 90, 165, 1, 0.66405
199, 2, bw, filler, NA, 999, 999, 8, 37, 143, 76, 111, 139, 140, 162, 3, 0.755083
199, 2, bw, filler, NA, 999, 999, 8, 37, 143, 76, 111, 139, 140, 162, 1, 0.483415
