sub_n, computer_n, bw_cond, effect, set, distance, diag, block_n, trial_n, h1, w1, h2, w2, h3, w3, choice, rt 
100, 2, wb, practice, NA, 999, 999, 0, 1, 153, 140, 137, 180, 127, 106, 3, 5.51556
100, 2, wb, practice, NA, 999, 999, 0, 1, 153, 140, 137, 180, 127, 106, 2, 2.81373
100, 2, wb, practice, NA, 999, 999, 0, 2, 149, 70, 124, 191, 61, 81, 3, 9.86021
100, 2, wb, practice, NA, 999, 999, 0, 2, 149, 70, 124, 191, 61, 81, 2, 1.16021
100, 2, wb, practice, NA, 999, 999, 0, 3, 166, 74, 129, 64, 190, 71, 2, 5.74822
100, 2, wb, practice, NA, 999, 999, 0, 3, 166, 74, 129, 64, 190, 71, 3, 1.4355
100, 2, wb, filler, NA, 999, 999, 1, 1, 67, 104, 83, 128, 192, 149, 1, 2.44939
100, 2, wb, filler, NA, 999, 999, 1, 1, 67, 104, 83, 128, 192, 149, 3, 0.989882
100, 2, wb, attraction, a-b-db, 14, 2, 1, 2, 90, 165, 83, 153, 165, 90, 2, 2.72346
100, 2, wb, attraction, a-b-db, 14, 2, 1, 2, 90, 165, 83, 153, 165, 90, 1, 1.84464
100, 2, wb, attraction, a-b-da, 9, 3, 1, 3, 195, 120, 186, 114, 120, 195, 1, 11.824
100, 2, wb, attraction, a-b-da, 9, 3, 1, 3, 195, 120, 186, 114, 120, 195, 3, 0.746967
100, 2, wb, attraction, a-b-da, 14, 1, 1, 4, 125, 56, 60, 135, 135, 60, 1, 2.49864
100, 2, wb, attraction, a-b-da, 14, 1, 1, 4, 125, 56, 60, 135, 135, 60, 3, 5.87729
100, 2, wb, attraction, a-b-da, 2, 1, 1, 5, 135, 60, 60, 135, 134, 59, 1, 12.4379
100, 2, wb, attraction, a-b-da, 2, 1, 1, 5, 135, 60, 60, 135, 134, 59, 2, 0.78405
100, 2, wb, filler, NA, 999, 999, 1, 6, 149, 189, 121, 177, 192, 95, 2, 2.27851
100, 2, wb, filler, NA, 999, 999, 1, 6, 149, 189, 121, 177, 192, 95, 1, 4.80173
100, 2, wb, filler, NA, 999, 999, 1, 7, 56, 73, 112, 140, 68, 88, 1, 2.72613
100, 2, wb, filler, NA, 999, 999, 1, 7, 56, 73, 112, 140, 68, 88, 2, 0.67138
100, 2, wb, catch, NA, 999, 999, 1, 8, 126, 189, 127, 128, 100, 95, 3, 1.38634
100, 2, wb, catch, NA, 999, 999, 1, 8, 126, 189, 127, 128, 100, 95, 1, 0.745765
100, 2, wb, catch, NA, 999, 999, 1, 9, 135, 120, 115, 80, 195, 120, 2, 2.00953
100, 2, wb, catch, NA, 999, 999, 1, 9, 135, 120, 115, 80, 195, 120, 3, 0.671624
100, 2, wb, attraction, a-b-da, 9, 2, 1, 10, 157, 86, 90, 165, 165, 90, 1, 5.61063
100, 2, wb, attraction, a-b-da, 9, 2, 1, 10, 157, 86, 90, 165, 165, 90, 2, 0.791663
100, 2, wb, attraction, a-b-db, 14, 3, 1, 11, 111, 181, 195, 120, 120, 195, 1, 4.85319
100, 2, wb, attraction, a-b-db, 14, 3, 1, 11, 111, 181, 195, 120, 120, 195, 3, 2.13707
100, 2, wb, filler, NA, 999, 999, 1, 12, 135, 148, 95, 64, 161, 58, 2, 1.85685
100, 2, wb, filler, NA, 999, 999, 1, 12, 135, 148, 95, 64, 161, 58, 1, 1.92502
100, 2, wb, filler, NA, 999, 999, 1, 13, 66, 94, 64, 124, 161, 137, 1, 1.94907
100, 2, wb, filler, NA, 999, 999, 1, 13, 66, 94, 64, 124, 161, 137, 3, 1.33389
100, 2, wb, attraction, a-b-db, 5, 3, 1, 14, 120, 195, 195, 120, 117, 190, 3, 1.742
100, 2, wb, attraction, a-b-db, 5, 3, 1, 14, 120, 195, 195, 120, 117, 190, 1, 1.43074
100, 2, wb, filler, NA, 999, 999, 1, 15, 135, 114, 186, 129, 114, 135, 1, 1.25883
100, 2, wb, filler, NA, 999, 999, 1, 15, 135, 114, 186, 129, 114, 135, 2, 0.887171
100, 2, wb, attraction, a-b-da, 5, 2, 1, 16, 161, 88, 165, 90, 90, 165, 1, 3.36943
100, 2, wb, attraction, a-b-da, 5, 2, 1, 16, 161, 88, 165, 90, 90, 165, 3, 0.736973
100, 2, wb, filler, NA, 999, 999, 1, 17, 182, 118, 114, 175, 79, 160, 3, 1.22544
100, 2, wb, filler, NA, 999, 999, 1, 17, 182, 118, 114, 175, 79, 160, 1, 1.11905
100, 2, wb, attraction, a-b-db, 9, 2, 1, 18, 165, 90, 86, 157, 90, 165, 2, 4.51999
100, 2, wb, attraction, a-b-db, 9, 2, 1, 18, 165, 90, 86, 157, 90, 165, 3, 0.761082
100, 2, wb, attraction, a-b-da, 9, 1, 1, 19, 60, 135, 129, 57, 135, 60, 2, 2.15219
100, 2, wb, attraction, a-b-da, 9, 1, 1, 19, 60, 135, 129, 57, 135, 60, 1, 2.02488
100, 2, wb, attraction, a-b-db, 2, 3, 1, 20, 120, 195, 195, 120, 119, 193, 3, 4.84486
100, 2, wb, attraction, a-b-db, 2, 3, 1, 20, 120, 195, 195, 120, 119, 193, 1, 2.40863
100, 2, wb, attraction, a-b-db, 9, 3, 1, 21, 195, 120, 114, 186, 120, 195, 3, 5.34108
100, 2, wb, attraction, a-b-db, 9, 3, 1, 21, 195, 120, 114, 186, 120, 195, 1, 0.964784
100, 2, wb, attraction, a-b-db, 9, 1, 1, 22, 135, 60, 60, 135, 57, 129, 3, 2.11568
100, 2, wb, attraction, a-b-db, 9, 1, 1, 22, 135, 60, 60, 135, 57, 129, 1, 4.02169
100, 2, wb, filler, NA, 999, 999, 1, 23, 63, 60, 138, 138, 71, 152, 1, 0.801749
100, 2, wb, filler, NA, 999, 999, 1, 23, 63, 60, 138, 138, 71, 152, 2, 0.720762
100, 2, wb, attraction, a-b-da, 2, 2, 1, 24, 163, 89, 165, 90, 90, 165, 1, 5.46574
100, 2, wb, attraction, a-b-da, 2, 2, 1, 24, 163, 89, 165, 90, 90, 165, 3, 0.628704
100, 2, wb, attraction, a-b-db, 14, 1, 1, 25, 135, 60, 60, 135, 56, 125, 3, 3.82512
100, 2, wb, attraction, a-b-db, 14, 1, 1, 25, 135, 60, 60, 135, 56, 125, 2, 3.79794
100, 2, wb, filler, NA, 999, 999, 1, 26, 78, 167, 159, 146, 122, 192, 1, 1.30666
100, 2, wb, filler, NA, 999, 999, 1, 26, 78, 167, 159, 146, 122, 192, 2, 0.932844
100, 2, wb, attraction, a-b-da, 14, 3, 1, 27, 181, 111, 120, 195, 195, 120, 3, 3.02133
100, 2, wb, attraction, a-b-da, 14, 3, 1, 27, 181, 111, 120, 195, 195, 120, 2, 0.706913
100, 2, wb, attraction, a-b-db, 5, 1, 1, 28, 135, 60, 58, 132, 60, 135, 2, 3.71586
100, 2, wb, attraction, a-b-db, 5, 1, 1, 28, 135, 60, 58, 132, 60, 135, 3, 1.64545
100, 2, wb, filler, NA, 999, 999, 1, 29, 72, 125, 106, 99, 152, 68, 1, 4.41684
100, 2, wb, filler, NA, 999, 999, 1, 29, 72, 125, 106, 99, 152, 68, 3, 2.2462
100, 2, wb, attraction, a-b-db, 5, 2, 1, 30, 88, 161, 165, 90, 90, 165, 1, 1.95331
100, 2, wb, attraction, a-b-db, 5, 2, 1, 30, 88, 161, 165, 90, 90, 165, 3, 0.834222
100, 2, wb, attraction, a-b-da, 5, 1, 1, 31, 135, 60, 132, 58, 60, 135, 3, 10.4064
100, 2, wb, attraction, a-b-da, 5, 1, 1, 31, 135, 60, 132, 58, 60, 135, 1, 1.12995
100, 2, wb, attraction, a-b-da, 14, 2, 1, 32, 165, 90, 90, 165, 153, 83, 3, 1.59412
100, 2, wb, attraction, a-b-da, 14, 2, 1, 32, 165, 90, 90, 165, 153, 83, 2, 1.42498
100, 2, wb, attraction, a-b-db, 2, 2, 1, 33, 90, 165, 165, 90, 89, 163, 1, 45.477
100, 2, wb, attraction, a-b-db, 2, 2, 1, 33, 90, 165, 165, 90, 89, 163, 2, 1.74756
100, 2, wb, attraction, a-b-da, 2, 3, 1, 34, 193, 119, 120, 195, 195, 120, 1, 7.86687
100, 2, wb, attraction, a-b-da, 2, 3, 1, 34, 193, 119, 120, 195, 195, 120, 2, 0.75705
100, 2, wb, catch, NA, 999, 999, 1, 35, 134, 121, 78, 117, 168, 147, 2, 1.06015
100, 2, wb, catch, NA, 999, 999, 1, 35, 134, 121, 78, 117, 168, 147, 3, 0.456415
100, 2, wb, attraction, a-b-da, 5, 3, 1, 36, 195, 120, 120, 195, 190, 117, 3, 2.12352
100, 2, wb, attraction, a-b-da, 5, 3, 1, 36, 195, 120, 120, 195, 190, 117, 2, 0.556762
100, 2, wb, attraction, a-b-db, 2, 1, 1, 37, 59, 134, 60, 135, 135, 60, 3, 7.90792
100, 2, wb, attraction, a-b-db, 2, 1, 1, 37, 59, 134, 60, 135, 135, 60, 1, 0.420034
100, 2, wb, attraction, a-b-db, 14, 3, 2, 1, 195, 120, 120, 195, 111, 181, 3, 4.09726
100, 2, wb, attraction, a-b-db, 14, 3, 2, 1, 195, 120, 120, 195, 111, 181, 2, 0.803221
100, 2, wb, filler, NA, 999, 999, 2, 2, 62, 93, 92, 132, 163, 134, 1, 0.713018
100, 2, wb, filler, NA, 999, 999, 2, 2, 62, 93, 92, 132, 163, 134, 3, 0.323442
100, 2, wb, filler, NA, 999, 999, 2, 3, 74, 194, 150, 165, 86, 68, 3, 0.579857
100, 2, wb, filler, NA, 999, 999, 2, 3, 74, 194, 150, 165, 86, 68, 2, 0.323714
100, 2, wb, attraction, a-b-da, 5, 1, 2, 4, 135, 60, 132, 58, 60, 135, 2, 3.99614
100, 2, wb, attraction, a-b-da, 5, 1, 2, 4, 135, 60, 132, 58, 60, 135, 3, 0.362274
100, 2, wb, attraction, a-b-db, 14, 2, 2, 5, 165, 90, 90, 165, 83, 153, 3, 1.93744
100, 2, wb, attraction, a-b-db, 14, 2, 2, 5, 165, 90, 90, 165, 83, 153, 2, 0.402783
100, 2, wb, attraction, a-b-da, 9, 3, 2, 6, 195, 120, 120, 195, 186, 114, 3, 5.04057
100, 2, wb, attraction, a-b-da, 9, 3, 2, 6, 195, 120, 120, 195, 186, 114, 2, 0.308424
100, 2, wb, filler, NA, 999, 999, 2, 7, 149, 149, 138, 160, 77, 112, 3, 0.661438
100, 2, wb, filler, NA, 999, 999, 2, 7, 149, 149, 138, 160, 77, 112, 2, 0.402034
100, 2, wb, attraction, a-b-db, 5, 1, 2, 8, 135, 60, 58, 132, 60, 135, 2, 1.26365
100, 2, wb, attraction, a-b-db, 5, 1, 2, 8, 135, 60, 58, 132, 60, 135, 1, 0.651955
100, 2, wb, attraction, a-b-db, 9, 2, 2, 9, 86, 157, 165, 90, 90, 165, 1, 2.63971
100, 2, wb, attraction, a-b-db, 9, 2, 2, 9, 86, 157, 165, 90, 90, 165, 3, 0.932344
100, 2, wb, filler, NA, 999, 999, 2, 10, 121, 84, 82, 191, 131, 74, 1, 0.716421
100, 2, wb, filler, NA, 999, 999, 2, 10, 121, 84, 82, 191, 131, 74, 2, 0.44705
100, 2, wb, filler, NA, 999, 999, 2, 11, 67, 56, 86, 163, 193, 141, 1, 0.594738
100, 2, wb, filler, NA, 999, 999, 2, 11, 67, 56, 86, 163, 193, 141, 3, 0.401801
100, 2, wb, attraction, a-b-db, 14, 1, 2, 12, 56, 125, 135, 60, 60, 135, 1, 0.935747
100, 2, wb, attraction, a-b-db, 14, 1, 2, 12, 56, 125, 135, 60, 60, 135, 3, 3.37752
100, 2, wb, filler, NA, 999, 999, 2, 13, 63, 155, 61, 164, 108, 156, 1, 2.37497
100, 2, wb, filler, NA, 999, 999, 2, 13, 63, 155, 61, 164, 108, 156, 3, 0.438241
100, 2, wb, attraction, a-b-db, 2, 2, 2, 14, 90, 165, 165, 90, 89, 163, 1, 5.26678
100, 2, wb, attraction, a-b-db, 2, 2, 2, 14, 90, 165, 165, 90, 89, 163, 3, 0.469677
100, 2, wb, attraction, a-b-db, 5, 3, 2, 15, 117, 190, 195, 120, 120, 195, 1, 5.31275
100, 2, wb, attraction, a-b-db, 5, 3, 2, 15, 117, 190, 195, 120, 120, 195, 3, 0.577753
100, 2, wb, attraction, a-b-da, 5, 2, 2, 16, 90, 165, 165, 90, 161, 88, 3, 1.71213
100, 2, wb, attraction, a-b-da, 5, 2, 2, 16, 90, 165, 165, 90, 161, 88, 1, 0.802191
100, 2, wb, attraction, a-b-da, 5, 3, 2, 17, 190, 117, 195, 120, 120, 195, 1, 24.9919
100, 2, wb, attraction, a-b-da, 5, 3, 2, 17, 190, 117, 195, 120, 120, 195, 3, 0.488226
100, 2, wb, filler, NA, 999, 999, 2, 18, 112, 181, 157, 175, 186, 119, 1, 0.914577
100, 2, wb, filler, NA, 999, 999, 2, 18, 112, 181, 157, 175, 186, 119, 2, 0.348981
100, 2, wb, attraction, a-b-da, 2, 1, 2, 19, 60, 135, 135, 60, 134, 59, 3, 3.56478
100, 2, wb, attraction, a-b-da, 2, 1, 2, 19, 60, 135, 135, 60, 134, 59, 2, 1.52434
100, 2, wb, attraction, a-b-da, 14, 2, 2, 20, 90, 165, 153, 83, 165, 90, 2, 1.37239
100, 2, wb, attraction, a-b-da, 14, 2, 2, 20, 90, 165, 153, 83, 165, 90, 1, 0.691899
100, 2, wb, attraction, a-b-db, 5, 2, 2, 21, 165, 90, 88, 161, 90, 165, 2, 3.82965
100, 2, wb, attraction, a-b-db, 5, 2, 2, 21, 165, 90, 88, 161, 90, 165, 3, 0.418432
100, 2, wb, catch, NA, 999, 999, 2, 22, 106, 149, 133, 62, 130, 185, 2, 0.679598
100, 2, wb, catch, NA, 999, 999, 2, 22, 106, 149, 133, 62, 130, 185, 3, 0.315408
100, 2, wb, attraction, a-b-da, 2, 3, 2, 23, 195, 120, 120, 195, 193, 119, 1, 0.940536
100, 2, wb, attraction, a-b-da, 2, 3, 2, 23, 195, 120, 120, 195, 193, 119, 2, 0.365498
100, 2, wb, attraction, a-b-da, 14, 1, 2, 24, 135, 60, 125, 56, 60, 135, 2, 1.57271
100, 2, wb, attraction, a-b-da, 14, 1, 2, 24, 135, 60, 125, 56, 60, 135, 1, 0.908159
100, 2, wb, attraction, a-b-db, 2, 3, 2, 25, 119, 193, 195, 120, 120, 195, 1, 5.29327
100, 2, wb, attraction, a-b-db, 2, 3, 2, 25, 119, 193, 195, 120, 120, 195, 3, 0.350833
100, 2, wb, attraction, a-b-da, 9, 2, 2, 26, 90, 165, 157, 86, 165, 90, 2, 1.34266
100, 2, wb, attraction, a-b-da, 9, 2, 2, 26, 90, 165, 157, 86, 165, 90, 1, 0.503465
100, 2, wb, attraction, a-b-da, 14, 3, 2, 27, 120, 195, 181, 111, 195, 120, 2, 1.92929
100, 2, wb, attraction, a-b-da, 14, 3, 2, 27, 120, 195, 181, 111, 195, 120, 1, 0.914609
100, 2, wb, filler, NA, 999, 999, 2, 28, 166, 182, 69, 188, 194, 71, 2, 1.91577
100, 2, wb, filler, NA, 999, 999, 2, 28, 166, 182, 69, 188, 194, 71, 1, 0.76569
100, 2, wb, filler, NA, 999, 999, 2, 29, 88, 146, 142, 93, 114, 180, 1, 0.812727
100, 2, wb, filler, NA, 999, 999, 2, 29, 88, 146, 142, 93, 114, 180, 3, 0.595215
100, 2, wb, attraction, a-b-db, 9, 3, 2, 30, 114, 186, 195, 120, 120, 195, 1, 0.688917
100, 2, wb, attraction, a-b-db, 9, 3, 2, 30, 114, 186, 195, 120, 120, 195, 3, 0.604189
100, 2, wb, catch, NA, 999, 999, 2, 31, 71, 124, 100, 155, 125, 190, 1, 0.569714
100, 2, wb, catch, NA, 999, 999, 2, 31, 71, 124, 100, 155, 125, 190, 3, 0.474371
100, 2, wb, filler, NA, 999, 999, 2, 32, 82, 79, 127, 160, 184, 185, 1, 0.492604
100, 2, wb, filler, NA, 999, 999, 2, 32, 82, 79, 127, 160, 184, 185, 3, 0.375752
100, 2, wb, attraction, a-b-da, 9, 1, 2, 33, 60, 135, 129, 57, 135, 60, 2, 1.88629
100, 2, wb, attraction, a-b-da, 9, 1, 2, 33, 60, 135, 129, 57, 135, 60, 1, 0.977783
100, 2, wb, attraction, a-b-da, 2, 2, 2, 34, 163, 89, 90, 165, 165, 90, 1, 1.36002
100, 2, wb, attraction, a-b-da, 2, 2, 2, 34, 163, 89, 90, 165, 165, 90, 2, 0.528158
100, 2, wb, attraction, a-b-db, 9, 1, 2, 35, 60, 135, 135, 60, 57, 129, 1, 0.616616
100, 2, wb, attraction, a-b-db, 9, 1, 2, 35, 60, 135, 135, 60, 57, 129, 3, 0.415118
100, 2, wb, catch, NA, 999, 999, 2, 36, 84, 111, 193, 122, 128, 127, 1, 0.436241
100, 2, wb, catch, NA, 999, 999, 2, 36, 84, 111, 193, 122, 128, 127, 2, 0.578142
100, 2, wb, attraction, a-b-db, 2, 1, 2, 37, 135, 60, 59, 134, 60, 135, 2, 1.23247
100, 2, wb, attraction, a-b-db, 2, 1, 2, 37, 135, 60, 59, 134, 60, 135, 3, 0.462087
100, 2, wb, attraction, a-b-da, 14, 3, 3, 1, 181, 111, 120, 195, 195, 120, 1, 0.649323
100, 2, wb, attraction, a-b-da, 14, 3, 3, 1, 181, 111, 120, 195, 195, 120, 2, 0.82232
100, 2, wb, attraction, a-b-db, 5, 2, 3, 2, 90, 165, 88, 161, 165, 90, 1, 1.4753
100, 2, wb, attraction, a-b-db, 5, 2, 3, 2, 90, 165, 88, 161, 165, 90, 2, 1.23891
100, 2, wb, attraction, a-b-da, 5, 3, 3, 3, 190, 117, 195, 120, 120, 195, 1, 0.763173
100, 2, wb, attraction, a-b-da, 5, 3, 3, 3, 190, 117, 195, 120, 120, 195, 3, 0.611434
100, 2, wb, attraction, a-b-da, 9, 1, 3, 4, 60, 135, 129, 57, 135, 60, 1, 0.760673
100, 2, wb, attraction, a-b-da, 9, 1, 3, 4, 60, 135, 129, 57, 135, 60, 2, 1.69703
100, 2, wb, attraction, a-b-da, 2, 1, 3, 5, 60, 135, 134, 59, 135, 60, 2, 1.17043
100, 2, wb, attraction, a-b-da, 2, 1, 3, 5, 60, 135, 134, 59, 135, 60, 1, 0.938686
100, 2, wb, filler, NA, 999, 999, 3, 6, 88, 108, 124, 174, 122, 138, 1, 0.778967
100, 2, wb, filler, NA, 999, 999, 3, 6, 88, 108, 124, 174, 122, 138, 2, 0.354695
100, 2, wb, attraction, a-b-db, 14, 2, 3, 7, 90, 165, 165, 90, 83, 153, 3, 1.21053
100, 2, wb, attraction, a-b-db, 14, 2, 3, 7, 90, 165, 165, 90, 83, 153, 1, 1.46473
100, 2, wb, attraction, a-b-db, 2, 3, 3, 8, 195, 120, 120, 195, 119, 193, 1, 2.17181
100, 2, wb, attraction, a-b-db, 2, 3, 3, 8, 195, 120, 120, 195, 119, 193, 2, 0.52296
100, 2, wb, attraction, a-b-db, 14, 1, 3, 9, 56, 125, 60, 135, 135, 60, 1, 0.659262
100, 2, wb, attraction, a-b-db, 14, 1, 3, 9, 56, 125, 60, 135, 135, 60, 2, 0.399819
100, 2, wb, attraction, a-b-db, 2, 2, 3, 10, 165, 90, 89, 163, 90, 165, 3, 1.3016
100, 2, wb, attraction, a-b-db, 2, 2, 3, 10, 165, 90, 89, 163, 90, 165, 2, 1.65649
100, 2, wb, attraction, a-b-db, 9, 1, 3, 11, 57, 129, 135, 60, 60, 135, 1, 1.93128
100, 2, wb, attraction, a-b-db, 9, 1, 3, 11, 57, 129, 135, 60, 60, 135, 3, 0.460606
100, 2, wb, filler, NA, 999, 999, 3, 12, 75, 160, 188, 128, 67, 163, 1, 0.471725
100, 2, wb, filler, NA, 999, 999, 3, 12, 75, 160, 188, 128, 67, 163, 2, 0.307593
100, 2, wb, filler, NA, 999, 999, 3, 13, 179, 97, 105, 109, 104, 165, 2, 1.43673
100, 2, wb, filler, NA, 999, 999, 3, 13, 179, 97, 105, 109, 104, 165, 3, 0.50634
100, 2, wb, filler, NA, 999, 999, 3, 14, 182, 85, 173, 149, 81, 107, 1, 0.579408
100, 2, wb, filler, NA, 999, 999, 3, 14, 182, 85, 173, 149, 81, 107, 2, 1.7472
100, 2, wb, filler, NA, 999, 999, 3, 15, 115, 89, 101, 183, 127, 142, 1, 0.554603
100, 2, wb, filler, NA, 999, 999, 3, 15, 115, 89, 101, 183, 127, 142, 2, 2.84315
100, 2, wb, attraction, a-b-db, 9, 3, 3, 16, 114, 186, 195, 120, 120, 195, 1, 1.0861
100, 2, wb, attraction, a-b-db, 9, 3, 3, 16, 114, 186, 195, 120, 120, 195, 3, 1.28977
100, 2, wb, attraction, a-b-db, 14, 3, 3, 17, 195, 120, 111, 181, 120, 195, 1, 1.61924
100, 2, wb, attraction, a-b-db, 14, 3, 3, 17, 195, 120, 111, 181, 120, 195, 3, 0.617353
100, 2, wb, attraction, a-b-db, 9, 2, 3, 18, 90, 165, 165, 90, 86, 157, 3, 1.3266
100, 2, wb, attraction, a-b-db, 9, 2, 3, 18, 90, 165, 165, 90, 86, 157, 1, 1.56796
100, 2, wb, catch, NA, 999, 999, 3, 19, 157, 158, 119, 136, 95, 100, 3, 0.558896
100, 2, wb, catch, NA, 999, 999, 3, 19, 157, 158, 119, 136, 95, 100, 1, 0.60728
100, 2, wb, filler, NA, 999, 999, 3, 20, 151, 146, 155, 107, 83, 162, 3, 4.11649
100, 2, wb, filler, NA, 999, 999, 3, 20, 151, 146, 155, 107, 83, 162, 1, 0.381744
100, 2, wb, attraction, a-b-da, 2, 2, 3, 21, 90, 165, 163, 89, 165, 90, 1, 2.28419
100, 2, wb, attraction, a-b-da, 2, 2, 3, 21, 90, 165, 163, 89, 165, 90, 2, 0.703559
100, 2, wb, catch, NA, 999, 999, 3, 22, 83, 112, 188, 127, 109, 146, 1, 0.625309
100, 2, wb, catch, NA, 999, 999, 3, 22, 83, 112, 188, 127, 109, 146, 2, 0.36692
100, 2, wb, filler, NA, 999, 999, 3, 23, 65, 88, 117, 138, 96, 183, 1, 0.486099
100, 2, wb, filler, NA, 999, 999, 3, 23, 65, 88, 117, 138, 96, 183, 3, 0.833981
100, 2, wb, attraction, a-b-db, 2, 1, 3, 24, 135, 60, 60, 135, 59, 134, 1, 2.04637
100, 2, wb, attraction, a-b-db, 2, 1, 3, 24, 135, 60, 60, 135, 59, 134, 2, 0.403099
100, 2, wb, catch, NA, 999, 999, 3, 25, 161, 94, 127, 188, 85, 110, 3, 0.88885
100, 2, wb, catch, NA, 999, 999, 3, 25, 161, 94, 127, 188, 85, 110, 2, 0.307779
100, 2, wb, filler, NA, 999, 999, 3, 26, 112, 75, 92, 169, 194, 145, 1, 0.564987
100, 2, wb, filler, NA, 999, 999, 3, 26, 112, 75, 92, 169, 194, 145, 3, 0.741521
100, 2, wb, filler, NA, 999, 999, 3, 27, 139, 87, 195, 104, 86, 168, 1, 0.925154
100, 2, wb, filler, NA, 999, 999, 3, 27, 139, 87, 195, 104, 86, 168, 2, 0.543086
100, 2, wb, attraction, a-b-da, 5, 2, 3, 28, 165, 90, 90, 165, 161, 88, 3, 1.16665
100, 2, wb, attraction, a-b-da, 5, 2, 3, 28, 165, 90, 90, 165, 161, 88, 2, 0.470921
100, 2, wb, attraction, a-b-da, 14, 2, 3, 29, 90, 165, 153, 83, 165, 90, 3, 3.05809
100, 2, wb, attraction, a-b-da, 14, 2, 3, 29, 90, 165, 153, 83, 165, 90, 1, 0.877721
100, 2, wb, attraction, a-b-da, 9, 2, 3, 30, 157, 86, 165, 90, 90, 165, 1, 0.712081
100, 2, wb, attraction, a-b-da, 9, 2, 3, 30, 157, 86, 165, 90, 90, 165, 3, 0.690432
100, 2, wb, attraction, a-b-da, 9, 3, 3, 31, 120, 195, 186, 114, 195, 120, 2, 2.57229
100, 2, wb, attraction, a-b-da, 9, 3, 3, 31, 120, 195, 186, 114, 195, 120, 1, 0.963532
100, 2, wb, attraction, a-b-da, 14, 1, 3, 32, 60, 135, 135, 60, 125, 56, 3, 0.898264
100, 2, wb, attraction, a-b-da, 14, 1, 3, 32, 60, 135, 135, 60, 125, 56, 1, 0.397506
100, 2, wb, attraction, a-b-db, 5, 3, 3, 33, 120, 195, 195, 120, 117, 190, 2, 0.883182
100, 2, wb, attraction, a-b-db, 5, 3, 3, 33, 120, 195, 195, 120, 117, 190, 1, 1.00692
100, 2, wb, attraction, a-b-da, 2, 3, 3, 34, 193, 119, 195, 120, 120, 195, 2, 0.595836
100, 2, wb, attraction, a-b-da, 2, 3, 3, 34, 193, 119, 195, 120, 120, 195, 3, 0.27499
100, 2, wb, attraction, a-b-db, 5, 1, 3, 35, 60, 135, 58, 132, 135, 60, 2, 1.31745
100, 2, wb, attraction, a-b-db, 5, 1, 3, 35, 60, 135, 58, 132, 135, 60, 1, 0.383643
100, 2, wb, attraction, a-b-da, 5, 1, 3, 36, 135, 60, 132, 58, 60, 135, 2, 0.830177
100, 2, wb, attraction, a-b-da, 5, 1, 3, 36, 135, 60, 132, 58, 60, 135, 3, 0.419912
100, 2, wb, filler, NA, 999, 999, 3, 37, 127, 73, 76, 141, 183, 176, 1, 0.43298
100, 2, wb, filler, NA, 999, 999, 3, 37, 127, 73, 76, 141, 183, 176, 3, 0.390868
100, 2, wb, attraction, a-b-db, 14, 3, 4, 1, 195, 120, 120, 195, 111, 181, 3, 0.708822
100, 2, wb, attraction, a-b-db, 14, 3, 4, 1, 195, 120, 120, 195, 111, 181, 2, 1.02328
100, 2, wb, attraction, a-b-da, 14, 1, 4, 2, 60, 135, 125, 56, 135, 60, 1, 0.619387
100, 2, wb, attraction, a-b-da, 14, 1, 4, 2, 60, 135, 125, 56, 135, 60, 3, 0.657861
100, 2, wb, attraction, a-b-da, 9, 3, 4, 3, 186, 114, 195, 120, 120, 195, 1, 0.476931
100, 2, wb, attraction, a-b-da, 9, 3, 4, 3, 186, 114, 195, 120, 120, 195, 2, 0.35275
100, 2, wb, attraction, a-b-db, 14, 2, 4, 4, 90, 165, 83, 153, 165, 90, 2, 1.00062
100, 2, wb, attraction, a-b-db, 14, 2, 4, 4, 90, 165, 83, 153, 165, 90, 1, 0.47159
100, 2, wb, attraction, a-b-db, 9, 2, 4, 5, 86, 157, 90, 165, 165, 90, 2, 0.658722
100, 2, wb, attraction, a-b-db, 9, 2, 4, 5, 86, 157, 90, 165, 165, 90, 3, 1.07915
100, 2, wb, filler, NA, 999, 999, 4, 6, 73, 58, 133, 161, 60, 163, 1, 0.625502
100, 2, wb, filler, NA, 999, 999, 4, 6, 73, 58, 133, 161, 60, 163, 2, 0.375276
100, 2, wb, filler, NA, 999, 999, 4, 7, 80, 119, 120, 190, 77, 112, 1, 1.58965
100, 2, wb, filler, NA, 999, 999, 4, 7, 80, 119, 120, 190, 77, 112, 2, 0.516405
100, 2, wb, attraction, a-b-db, 9, 3, 4, 8, 114, 186, 195, 120, 120, 195, 2, 1.03754
100, 2, wb, attraction, a-b-db, 9, 3, 4, 8, 114, 186, 195, 120, 120, 195, 3, 0.378623
100, 2, wb, attraction, a-b-db, 5, 2, 4, 9, 90, 165, 88, 161, 165, 90, 1, 1.71314
100, 2, wb, attraction, a-b-db, 5, 2, 4, 9, 90, 165, 88, 161, 165, 90, 2, 0.835092
100, 2, wb, attraction, a-b-db, 2, 2, 4, 10, 165, 90, 89, 163, 90, 165, 1, 1.17565
100, 2, wb, attraction, a-b-db, 2, 2, 4, 10, 165, 90, 89, 163, 90, 165, 3, 0.839162
100, 2, wb, filler, NA, 999, 999, 4, 11, 91, 185, 123, 142, 114, 70, 3, 0.635346
100, 2, wb, filler, NA, 999, 999, 4, 11, 91, 185, 123, 142, 114, 70, 2, 0.313375
100, 2, wb, attraction, a-b-db, 9, 1, 4, 12, 135, 60, 60, 135, 57, 129, 1, 0.762386
100, 2, wb, attraction, a-b-db, 9, 1, 4, 12, 135, 60, 60, 135, 57, 129, 2, 0.746827
100, 2, wb, attraction, a-b-db, 2, 1, 4, 13, 60, 135, 135, 60, 59, 134, 1, 1.2185
100, 2, wb, attraction, a-b-db, 2, 1, 4, 13, 60, 135, 135, 60, 59, 134, 2, 0.824773
100, 2, wb, attraction, a-b-da, 2, 1, 4, 14, 60, 135, 135, 60, 134, 59, 1, 0.837269
100, 2, wb, attraction, a-b-da, 2, 1, 4, 14, 60, 135, 135, 60, 134, 59, 3, 0.586924
100, 2, wb, attraction, a-b-da, 2, 3, 4, 15, 193, 119, 195, 120, 120, 195, 1, 0.985233
100, 2, wb, attraction, a-b-da, 2, 3, 4, 15, 193, 119, 195, 120, 120, 195, 3, 0.40893
100, 2, wb, attraction, a-b-da, 9, 2, 4, 16, 157, 86, 90, 165, 165, 90, 1, 0.534039
100, 2, wb, attraction, a-b-da, 9, 2, 4, 16, 157, 86, 90, 165, 165, 90, 2, 0.58389
100, 2, wb, attraction, a-b-da, 2, 2, 4, 17, 165, 90, 163, 89, 90, 165, 2, 0.894298
100, 2, wb, attraction, a-b-da, 2, 2, 4, 17, 165, 90, 163, 89, 90, 165, 3, 0.821965
100, 2, wb, attraction, a-b-da, 5, 1, 4, 18, 132, 58, 60, 135, 135, 60, 1, 1.11842
100, 2, wb, attraction, a-b-da, 5, 1, 4, 18, 132, 58, 60, 135, 135, 60, 3, 0.600659
100, 2, wb, filler, NA, 999, 999, 4, 19, 80, 180, 87, 97, 183, 131, 2, 1.21442
100, 2, wb, filler, NA, 999, 999, 4, 19, 80, 180, 87, 97, 183, 131, 3, 0.428809
100, 2, wb, catch, NA, 999, 999, 4, 20, 111, 84, 112, 143, 159, 156, 1, 0.513138
100, 2, wb, catch, NA, 999, 999, 4, 20, 111, 84, 112, 143, 159, 156, 3, 0.507662
100, 2, wb, attraction, a-b-db, 14, 1, 4, 21, 60, 135, 56, 125, 135, 60, 3, 1.54074
100, 2, wb, attraction, a-b-db, 14, 1, 4, 21, 60, 135, 56, 125, 135, 60, 2, 1.34159
100, 2, wb, attraction, a-b-db, 5, 1, 4, 22, 135, 60, 60, 135, 58, 132, 3, 2.76515
100, 2, wb, attraction, a-b-db, 5, 1, 4, 22, 135, 60, 60, 135, 58, 132, 2, 2.12488
100, 2, wb, attraction, a-b-da, 5, 2, 4, 23, 90, 165, 165, 90, 161, 88, 1, 4.89281
100, 2, wb, attraction, a-b-da, 5, 2, 4, 23, 90, 165, 165, 90, 161, 88, 2, 0.454583
100, 2, wb, attraction, a-b-da, 14, 2, 4, 24, 153, 83, 165, 90, 90, 165, 1, 2.44236
100, 2, wb, attraction, a-b-da, 14, 2, 4, 24, 153, 83, 165, 90, 90, 165, 3, 0.422947
100, 2, wb, attraction, a-b-db, 5, 3, 4, 25, 117, 190, 195, 120, 120, 195, 3, 5.97938
100, 2, wb, attraction, a-b-db, 5, 3, 4, 25, 117, 190, 195, 120, 120, 195, 2, 0.681537
100, 2, wb, filler, NA, 999, 999, 4, 26, 192, 70, 144, 121, 185, 79, 3, 2.60399
100, 2, wb, filler, NA, 999, 999, 4, 26, 192, 70, 144, 121, 185, 79, 2, 0.362581
100, 2, wb, filler, NA, 999, 999, 4, 27, 83, 66, 61, 81, 119, 59, 2, 1.59355
100, 2, wb, filler, NA, 999, 999, 4, 27, 83, 66, 61, 81, 119, 59, 3, 0.424319
100, 2, wb, filler, NA, 999, 999, 4, 28, 159, 105, 134, 126, 174, 169, 1, 6.74078
100, 2, wb, filler, NA, 999, 999, 4, 28, 159, 105, 134, 126, 174, 169, 3, 0.408611
100, 2, wb, attraction, a-b-da, 5, 3, 4, 29, 190, 117, 195, 120, 120, 195, 2, 2.85717
100, 2, wb, attraction, a-b-da, 5, 3, 4, 29, 190, 117, 195, 120, 120, 195, 3, 0.404976
100, 2, wb, attraction, a-b-da, 14, 3, 4, 30, 195, 120, 181, 111, 120, 195, 2, 1.59478
100, 2, wb, attraction, a-b-da, 14, 3, 4, 30, 195, 120, 181, 111, 120, 195, 3, 0.337522
100, 2, wb, catch, NA, 999, 999, 4, 31, 116, 79, 133, 182, 91, 164, 1, 0.546042
100, 2, wb, catch, NA, 999, 999, 4, 31, 116, 79, 133, 182, 91, 164, 2, 0.299163
100, 2, wb, attraction, a-b-db, 2, 3, 4, 32, 195, 120, 119, 193, 120, 195, 2, 1.06902
100, 2, wb, attraction, a-b-db, 2, 3, 4, 32, 195, 120, 119, 193, 120, 195, 1, 0.329353
100, 2, wb, attraction, a-b-da, 9, 1, 4, 33, 60, 135, 129, 57, 135, 60, 2, 0.73783
100, 2, wb, attraction, a-b-da, 9, 1, 4, 33, 60, 135, 129, 57, 135, 60, 3, 0.450943
100, 2, wb, filler, NA, 999, 999, 4, 34, 56, 151, 154, 118, 61, 163, 1, 0.598734
100, 2, wb, filler, NA, 999, 999, 4, 34, 56, 151, 154, 118, 61, 163, 2, 0.357858
100, 2, wb, catch, NA, 999, 999, 4, 35, 103, 152, 100, 95, 193, 122, 2, 0.757054
100, 2, wb, catch, NA, 999, 999, 4, 35, 103, 152, 100, 95, 193, 122, 3, 0.309431
100, 2, wb, filler, NA, 999, 999, 4, 36, 159, 185, 170, 147, 160, 134, 3, 0.934678
100, 2, wb, filler, NA, 999, 999, 4, 36, 159, 185, 170, 147, 160, 134, 1, 0.328385
100, 2, wb, filler, NA, 999, 999, 4, 37, 71, 114, 131, 128, 170, 115, 1, 0.752741
100, 2, wb, filler, NA, 999, 999, 4, 37, 71, 114, 131, 128, 170, 115, 3, 0.953868
100, 2, wb, attraction, a-b-db, 5, 3, 5, 1, 120, 195, 117, 190, 195, 120, 3, 7.91943
100, 2, wb, attraction, a-b-db, 5, 3, 5, 1, 120, 195, 117, 190, 195, 120, 1, 0.927601
100, 2, wb, attraction, a-b-db, 2, 1, 5, 2, 60, 135, 135, 60, 59, 134, 1, 1.07193
100, 2, wb, attraction, a-b-db, 2, 1, 5, 2, 60, 135, 135, 60, 59, 134, 3, 0.843565
100, 2, wb, attraction, a-b-db, 5, 2, 5, 3, 90, 165, 165, 90, 88, 161, 3, 1.02338
100, 2, wb, attraction, a-b-db, 5, 2, 5, 3, 90, 165, 165, 90, 88, 161, 1, 1.08491
100, 2, wb, catch, NA, 999, 999, 5, 4, 129, 186, 134, 121, 79, 116, 3, 0.631287
100, 2, wb, catch, NA, 999, 999, 5, 4, 129, 186, 134, 121, 79, 116, 1, 0.75698
100, 2, wb, attraction, a-b-db, 9, 2, 5, 5, 90, 165, 86, 157, 165, 90, 1, 1.81994
100, 2, wb, attraction, a-b-db, 9, 2, 5, 5, 90, 165, 86, 157, 165, 90, 2, 0.546036
100, 2, wb, attraction, a-b-da, 5, 1, 5, 6, 132, 58, 60, 135, 135, 60, 2, 1.72981
100, 2, wb, attraction, a-b-da, 5, 1, 5, 6, 132, 58, 60, 135, 135, 60, 3, 0.563349
100, 2, wb, attraction, a-b-da, 2, 1, 5, 7, 134, 59, 60, 135, 135, 60, 2, 3.69837
100, 2, wb, attraction, a-b-da, 2, 1, 5, 7, 134, 59, 60, 135, 135, 60, 1, 0.364499
100, 2, wb, attraction, a-b-db, 9, 1, 5, 8, 60, 135, 135, 60, 57, 129, 1, 1.35578
100, 2, wb, attraction, a-b-db, 9, 1, 5, 8, 60, 135, 135, 60, 57, 129, 3, 0.37185
100, 2, wb, attraction, a-b-db, 2, 3, 5, 9, 195, 120, 119, 193, 120, 195, 1, 4.25108
100, 2, wb, attraction, a-b-db, 2, 3, 5, 9, 195, 120, 119, 193, 120, 195, 3, 0.855116
100, 2, wb, attraction, a-b-da, 9, 3, 5, 10, 120, 195, 186, 114, 195, 120, 2, 8.17875
100, 2, wb, attraction, a-b-da, 9, 3, 5, 10, 120, 195, 186, 114, 195, 120, 1, 0.600253
100, 2, wb, attraction, a-b-da, 9, 2, 5, 11, 157, 86, 90, 165, 165, 90, 1, 4.47795
100, 2, wb, attraction, a-b-da, 9, 2, 5, 11, 157, 86, 90, 165, 165, 90, 2, 0.320443
100, 2, wb, attraction, a-b-db, 14, 3, 5, 12, 120, 195, 195, 120, 111, 181, 3, 3.5457
100, 2, wb, attraction, a-b-db, 14, 3, 5, 12, 120, 195, 195, 120, 111, 181, 2, 1.02589
100, 2, wb, filler, NA, 999, 999, 5, 13, 189, 88, 112, 187, 129, 72, 3, 0.98215
100, 2, wb, filler, NA, 999, 999, 5, 13, 189, 88, 112, 187, 129, 72, 2, 0.429791
100, 2, wb, filler, NA, 999, 999, 5, 14, 57, 146, 56, 144, 176, 122, 2, 2.64225
100, 2, wb, filler, NA, 999, 999, 5, 14, 57, 146, 56, 144, 176, 122, 3, 0.342713
100, 2, wb, filler, NA, 999, 999, 5, 15, 131, 147, 125, 158, 173, 112, 1, 1.43057
100, 2, wb, filler, NA, 999, 999, 5, 15, 131, 147, 125, 158, 173, 112, 3, 1.78007
100, 2, wb, attraction, a-b-da, 2, 2, 5, 16, 90, 165, 163, 89, 165, 90, 2, 1.4982
100, 2, wb, attraction, a-b-da, 2, 2, 5, 16, 90, 165, 163, 89, 165, 90, 1, 0.397069
100, 2, wb, catch, NA, 999, 999, 5, 17, 132, 123, 100, 95, 166, 149, 2, 0.674949
100, 2, wb, catch, NA, 999, 999, 5, 17, 132, 123, 100, 95, 166, 149, 3, 0.294564
100, 2, wb, filler, NA, 999, 999, 5, 18, 169, 66, 180, 193, 65, 85, 3, 0.728418
100, 2, wb, filler, NA, 999, 999, 5, 18, 169, 66, 180, 193, 65, 85, 2, 0.346211
100, 2, wb, attraction, a-b-da, 5, 2, 5, 19, 165, 90, 161, 88, 90, 165, 2, 0.913961
100, 2, wb, attraction, a-b-da, 5, 2, 5, 19, 165, 90, 161, 88, 90, 165, 3, 0.440269
100, 2, wb, filler, NA, 999, 999, 5, 20, 93, 121, 192, 135, 149, 132, 1, 0.552179
100, 2, wb, filler, NA, 999, 999, 5, 20, 93, 121, 192, 135, 149, 132, 2, 0.441344
100, 2, wb, attraction, a-b-db, 14, 1, 5, 21, 135, 60, 60, 135, 56, 125, 2, 1.58107
100, 2, wb, attraction, a-b-db, 14, 1, 5, 21, 135, 60, 60, 135, 56, 125, 3, 2.10865
100, 2, wb, filler, NA, 999, 999, 5, 22, 60, 76, 173, 94, 191, 137, 1, 0.453169
100, 2, wb, filler, NA, 999, 999, 5, 22, 60, 76, 173, 94, 191, 137, 3, 0.441731
100, 2, wb, attraction, a-b-da, 14, 3, 5, 23, 120, 195, 181, 111, 195, 120, 2, 1.49357
100, 2, wb, attraction, a-b-da, 14, 3, 5, 23, 120, 195, 181, 111, 195, 120, 1, 0.48032
100, 2, wb, attraction, a-b-db, 9, 3, 5, 24, 114, 186, 195, 120, 120, 195, 1, 5.38676
100, 2, wb, attraction, a-b-db, 9, 3, 5, 24, 114, 186, 195, 120, 120, 195, 3, 0.785046
100, 2, wb, filler, NA, 999, 999, 5, 25, 140, 72, 135, 86, 132, 117, 1, 0.639527
100, 2, wb, filler, NA, 999, 999, 5, 25, 140, 72, 135, 86, 132, 117, 3, 0.380602
100, 2, wb, attraction, a-b-db, 5, 1, 5, 26, 58, 132, 135, 60, 60, 135, 1, 1.72307
100, 2, wb, attraction, a-b-db, 5, 1, 5, 26, 58, 132, 135, 60, 60, 135, 3, 1.03645
100, 2, wb, attraction, a-b-da, 2, 3, 5, 27, 195, 120, 193, 119, 120, 195, 1, 1.87276
100, 2, wb, attraction, a-b-da, 2, 3, 5, 27, 195, 120, 193, 119, 120, 195, 3, 0.428259
100, 2, wb, catch, NA, 999, 999, 5, 28, 63, 132, 137, 118, 152, 163, 1, 0.848504
100, 2, wb, catch, NA, 999, 999, 5, 28, 63, 132, 137, 118, 152, 163, 3, 0.565701
100, 2, wb, attraction, a-b-da, 14, 1, 5, 29, 60, 135, 135, 60, 125, 56, 3, 1.96483
100, 2, wb, attraction, a-b-da, 14, 1, 5, 29, 60, 135, 135, 60, 125, 56, 1, 0.676735
100, 2, wb, filler, NA, 999, 999, 5, 30, 154, 59, 59, 138, 124, 154, 2, 0.919106
100, 2, wb, filler, NA, 999, 999, 5, 30, 154, 59, 59, 138, 124, 154, 3, 0.401535
100, 2, wb, filler, NA, 999, 999, 5, 31, 179, 118, 99, 113, 65, 159, 3, 0.919291
100, 2, wb, filler, NA, 999, 999, 5, 31, 179, 118, 99, 113, 65, 159, 1, 0.385828
100, 2, wb, filler, NA, 999, 999, 5, 32, 191, 113, 151, 126, 158, 177, 2, 2.16013
100, 2, wb, filler, NA, 999, 999, 5, 32, 191, 113, 151, 126, 158, 177, 3, 0.528101
100, 2, wb, attraction, a-b-da, 9, 1, 5, 33, 129, 57, 60, 135, 135, 60, 1, 1.72864
100, 2, wb, attraction, a-b-da, 9, 1, 5, 33, 129, 57, 60, 135, 135, 60, 2, 0.682051
100, 2, wb, attraction, a-b-da, 14, 2, 5, 34, 153, 83, 165, 90, 90, 165, 1, 1.55658
100, 2, wb, attraction, a-b-da, 14, 2, 5, 34, 153, 83, 165, 90, 90, 165, 3, 0.47655
100, 2, wb, attraction, a-b-db, 14, 2, 5, 35, 90, 165, 165, 90, 83, 153, 3, 1.81512
100, 2, wb, attraction, a-b-db, 14, 2, 5, 35, 90, 165, 165, 90, 83, 153, 1, 3.31711
100, 2, wb, attraction, a-b-db, 2, 2, 5, 36, 165, 90, 90, 165, 89, 163, 1, 8.3573
100, 2, wb, attraction, a-b-db, 2, 2, 5, 36, 165, 90, 90, 165, 89, 163, 2, 0.347354
100, 2, wb, attraction, a-b-da, 5, 3, 5, 37, 190, 117, 120, 195, 195, 120, 2, 1.49122
100, 2, wb, attraction, a-b-da, 5, 3, 5, 37, 190, 117, 120, 195, 195, 120, 1, 0.694058
100, 2, wb, attraction, a-b-da, 14, 3, 6, 1, 195, 120, 181, 111, 120, 195, 2, 8.39174
100, 2, wb, attraction, a-b-da, 14, 3, 6, 1, 195, 120, 181, 111, 120, 195, 1, 0.476388
100, 2, wb, filler, NA, 999, 999, 6, 2, 159, 105, 121, 70, 180, 68, 2, 1.13511
100, 2, wb, filler, NA, 999, 999, 6, 2, 159, 105, 121, 70, 180, 68, 1, 0.69654
100, 2, wb, attraction, a-b-db, 5, 1, 6, 3, 58, 132, 60, 135, 135, 60, 2, 16.7943
100, 2, wb, attraction, a-b-db, 5, 1, 6, 3, 58, 132, 60, 135, 135, 60, 3, 1.14849
100, 2, wb, attraction, a-b-db, 14, 1, 6, 4, 60, 135, 56, 125, 135, 60, 2, 4.26787
100, 2, wb, attraction, a-b-db, 14, 1, 6, 4, 60, 135, 56, 125, 135, 60, 1, 0.695283
100, 2, wb, attraction, a-b-da, 2, 3, 6, 5, 195, 120, 120, 195, 193, 119, 3, 2.87294
100, 2, wb, attraction, a-b-da, 2, 3, 6, 5, 195, 120, 120, 195, 193, 119, 2, 0.571977
100, 2, wb, attraction, a-b-da, 5, 2, 6, 6, 165, 90, 90, 165, 161, 88, 1, 5.44308
100, 2, wb, attraction, a-b-da, 5, 2, 6, 6, 165, 90, 90, 165, 161, 88, 2, 0.302659
100, 2, wb, attraction, a-b-da, 9, 1, 6, 7, 129, 57, 60, 135, 135, 60, 1, 0.664562
100, 2, wb, attraction, a-b-da, 9, 1, 6, 7, 129, 57, 60, 135, 135, 60, 2, 0.429058
100, 2, wb, attraction, a-b-db, 9, 2, 6, 8, 90, 165, 86, 157, 165, 90, 2, 3.10546
100, 2, wb, attraction, a-b-db, 9, 2, 6, 8, 90, 165, 86, 157, 165, 90, 1, 1.09906
100, 2, wb, attraction, a-b-db, 14, 3, 6, 9, 111, 181, 120, 195, 195, 120, 1, 0.876685
100, 2, wb, attraction, a-b-db, 14, 3, 6, 9, 111, 181, 120, 195, 195, 120, 2, 0.472405
100, 2, wb, attraction, a-b-db, 14, 2, 6, 10, 165, 90, 90, 165, 83, 153, 3, 0.947588
100, 2, wb, attraction, a-b-db, 14, 2, 6, 10, 165, 90, 90, 165, 83, 153, 2, 0.796546
100, 2, wb, attraction, a-b-db, 2, 1, 6, 11, 59, 134, 60, 135, 135, 60, 2, 1.56224
100, 2, wb, attraction, a-b-db, 2, 1, 6, 11, 59, 134, 60, 135, 135, 60, 3, 1.29841
100, 2, wb, filler, NA, 999, 999, 6, 12, 124, 82, 154, 119, 131, 111, 1, 0.563901
100, 2, wb, filler, NA, 999, 999, 6, 12, 124, 82, 154, 119, 131, 111, 2, 0.572484
100, 2, wb, filler, NA, 999, 999, 6, 13, 111, 111, 150, 101, 78, 107, 3, 1.19552
100, 2, wb, filler, NA, 999, 999, 6, 13, 111, 111, 150, 101, 78, 107, 2, 0.618532
100, 2, wb, catch, NA, 999, 999, 6, 14, 163, 152, 114, 81, 149, 106, 2, 0.999479
100, 2, wb, catch, NA, 999, 999, 6, 14, 163, 152, 114, 81, 149, 106, 1, 0.662451
100, 2, wb, attraction, a-b-db, 2, 3, 6, 15, 120, 195, 195, 120, 119, 193, 1, 0.921653
100, 2, wb, attraction, a-b-db, 2, 3, 6, 15, 120, 195, 195, 120, 119, 193, 2, 0.291258
100, 2, wb, catch, NA, 999, 999, 6, 16, 163, 92, 133, 182, 75, 120, 3, 0.821133
100, 2, wb, catch, NA, 999, 999, 6, 16, 163, 92, 133, 182, 75, 120, 2, 0.30682
100, 2, wb, attraction, a-b-da, 9, 3, 6, 17, 120, 195, 186, 114, 195, 120, 2, 0.931975
100, 2, wb, attraction, a-b-da, 9, 3, 6, 17, 120, 195, 186, 114, 195, 120, 1, 0.693709
100, 2, wb, catch, NA, 999, 999, 6, 18, 192, 123, 131, 124, 114, 81, 3, 0.78342
100, 2, wb, catch, NA, 999, 999, 6, 18, 192, 123, 131, 124, 114, 81, 1, 0.375132
100, 2, wb, filler, NA, 999, 999, 6, 19, 128, 69, 159, 84, 180, 195, 1, 0.941673
100, 2, wb, filler, NA, 999, 999, 6, 19, 128, 69, 159, 84, 180, 195, 3, 0.422603
100, 2, wb, attraction, a-b-da, 14, 2, 6, 20, 90, 165, 165, 90, 153, 83, 1, 2.46783
100, 2, wb, attraction, a-b-da, 14, 2, 6, 20, 90, 165, 165, 90, 153, 83, 2, 0.375588
100, 2, wb, attraction, a-b-db, 9, 1, 6, 21, 60, 135, 135, 60, 57, 129, 2, 1.86211
100, 2, wb, attraction, a-b-db, 9, 1, 6, 21, 60, 135, 135, 60, 57, 129, 1, 0.874177
100, 2, wb, attraction, a-b-db, 9, 3, 6, 22, 114, 186, 120, 195, 195, 120, 2, 2.52453
100, 2, wb, attraction, a-b-db, 9, 3, 6, 22, 114, 186, 120, 195, 195, 120, 3, 0.445893
100, 2, wb, filler, NA, 999, 999, 6, 23, 159, 124, 138, 133, 160, 73, 3, 1.24947
100, 2, wb, filler, NA, 999, 999, 6, 23, 159, 124, 138, 133, 160, 73, 1, 0.542418
100, 2, wb, attraction, a-b-da, 5, 1, 6, 24, 60, 135, 135, 60, 132, 58, 1, 0.838305
100, 2, wb, attraction, a-b-da, 5, 1, 6, 24, 60, 135, 135, 60, 132, 58, 2, 0.635362
100, 2, wb, attraction, a-b-da, 5, 3, 6, 25, 195, 120, 120, 195, 190, 117, 3, 1.91161
100, 2, wb, attraction, a-b-da, 5, 3, 6, 25, 195, 120, 120, 195, 190, 117, 1, 0.857781
100, 2, wb, attraction, a-b-db, 2, 2, 6, 26, 90, 165, 89, 163, 165, 90, 2, 0.876663
100, 2, wb, attraction, a-b-db, 2, 2, 6, 26, 90, 165, 89, 163, 165, 90, 1, 1.34435
100, 2, wb, attraction, a-b-db, 5, 3, 6, 27, 195, 120, 120, 195, 117, 190, 1, 3.59195
100, 2, wb, attraction, a-b-db, 5, 3, 6, 27, 195, 120, 120, 195, 117, 190, 2, 0.726067
100, 2, wb, filler, NA, 999, 999, 6, 28, 106, 165, 147, 194, 156, 121, 1, 0.502563
100, 2, wb, filler, NA, 999, 999, 6, 28, 106, 165, 147, 194, 156, 121, 2, 0.361598
100, 2, wb, filler, NA, 999, 999, 6, 29, 145, 141, 140, 184, 173, 162, 1, 0.64068
100, 2, wb, filler, NA, 999, 999, 6, 29, 145, 141, 140, 184, 173, 162, 3, 0.742081
100, 2, wb, filler, NA, 999, 999, 6, 30, 175, 91, 84, 138, 113, 174, 2, 0.837742
100, 2, wb, filler, NA, 999, 999, 6, 30, 175, 91, 84, 138, 113, 174, 3, 0.514635
100, 2, wb, attraction, a-b-da, 2, 1, 6, 31, 134, 59, 135, 60, 60, 135, 1, 1.51592
100, 2, wb, attraction, a-b-da, 2, 1, 6, 31, 134, 59, 135, 60, 60, 135, 2, 0.637979
100, 2, wb, filler, NA, 999, 999, 6, 32, 56, 158, 78, 181, 172, 121, 1, 0.746313
100, 2, wb, filler, NA, 999, 999, 6, 32, 56, 158, 78, 181, 172, 121, 3, 0.603451
100, 2, wb, attraction, a-b-da, 9, 2, 6, 33, 165, 90, 157, 86, 90, 165, 2, 2.28911
100, 2, wb, attraction, a-b-da, 9, 2, 6, 33, 165, 90, 157, 86, 90, 165, 3, 0.667732
100, 2, wb, attraction, a-b-da, 14, 1, 6, 34, 135, 60, 60, 135, 125, 56, 3, 1.59892
100, 2, wb, attraction, a-b-da, 14, 1, 6, 34, 135, 60, 60, 135, 125, 56, 2, 0.50966
100, 2, wb, attraction, a-b-da, 2, 2, 6, 35, 163, 89, 90, 165, 165, 90, 3, 3.90276
100, 2, wb, attraction, a-b-da, 2, 2, 6, 35, 163, 89, 90, 165, 165, 90, 2, 0.608751
100, 2, wb, filler, NA, 999, 999, 6, 36, 132, 169, 168, 159, 182, 165, 1, 0.741806
100, 2, wb, filler, NA, 999, 999, 6, 36, 132, 169, 168, 159, 182, 165, 3, 0.743062
100, 2, wb, attraction, a-b-db, 5, 2, 6, 37, 88, 161, 90, 165, 165, 90, 1, 1.74275
100, 2, wb, attraction, a-b-db, 5, 2, 6, 37, 88, 161, 90, 165, 165, 90, 2, 1.09549
100, 2, wb, attraction, a-b-da, 9, 3, 7, 1, 120, 195, 195, 120, 186, 114, 3, 0.921046
100, 2, wb, attraction, a-b-da, 9, 3, 7, 1, 120, 195, 195, 120, 186, 114, 2, 0.706764
100, 2, wb, filler, NA, 999, 999, 7, 2, 140, 149, 154, 169, 106, 145, 1, 0.603784
100, 2, wb, filler, NA, 999, 999, 7, 2, 140, 149, 154, 169, 106, 145, 2, 0.674355
100, 2, wb, attraction, a-b-da, 5, 2, 7, 3, 90, 165, 161, 88, 165, 90, 2, 1.42866
100, 2, wb, attraction, a-b-da, 5, 2, 7, 3, 90, 165, 161, 88, 165, 90, 3, 0.506286
100, 2, wb, filler, NA, 999, 999, 7, 4, 140, 166, 151, 145, 184, 166, 2, 1.16326
100, 2, wb, filler, NA, 999, 999, 7, 4, 140, 166, 151, 145, 184, 166, 3, 0.419525
100, 2, wb, attraction, a-b-db, 9, 1, 7, 5, 60, 135, 57, 129, 135, 60, 2, 1.21669
100, 2, wb, attraction, a-b-db, 9, 1, 7, 5, 60, 135, 57, 129, 135, 60, 1, 0.55901
100, 2, wb, catch, NA, 999, 999, 7, 6, 165, 150, 138, 117, 101, 94, 3, 0.870051
100, 2, wb, catch, NA, 999, 999, 7, 6, 165, 150, 138, 117, 101, 94, 1, 0.546466
100, 2, wb, filler, NA, 999, 999, 7, 7, 184, 87, 103, 113, 181, 184, 2, 1.23417
100, 2, wb, filler, NA, 999, 999, 7, 7, 184, 87, 103, 113, 181, 184, 3, 0.343815
100, 2, wb, filler, NA, 999, 999, 7, 8, 104, 123, 129, 177, 142, 115, 1, 0.689855
100, 2, wb, filler, NA, 999, 999, 7, 8, 104, 123, 129, 177, 142, 115, 2, 0.498752
100, 2, wb, filler, NA, 999, 999, 7, 9, 154, 175, 89, 105, 84, 85, 3, 1.52452
100, 2, wb, filler, NA, 999, 999, 7, 9, 154, 175, 89, 105, 84, 85, 1, 0.310032
100, 2, wb, filler, NA, 999, 999, 7, 10, 98, 187, 157, 119, 74, 120, 3, 1.14313
100, 2, wb, filler, NA, 999, 999, 7, 10, 98, 187, 157, 119, 74, 120, 2, 0.808088
100, 2, wb, catch, NA, 999, 999, 7, 11, 166, 149, 165, 90, 102, 93, 3, 0.501203
100, 2, wb, catch, NA, 999, 999, 7, 11, 166, 149, 165, 90, 102, 93, 1, 0.640289
100, 2, wb, attraction, a-b-da, 2, 2, 7, 12, 165, 90, 90, 165, 163, 89, 1, 1.03603
100, 2, wb, attraction, a-b-da, 2, 2, 7, 12, 165, 90, 90, 165, 163, 89, 2, 0.433763
100, 2, wb, attraction, a-b-da, 5, 3, 7, 13, 190, 117, 120, 195, 195, 120, 1, 0.742159
100, 2, wb, attraction, a-b-da, 5, 3, 7, 13, 190, 117, 120, 195, 195, 120, 2, 0.463291
100, 2, wb, catch, NA, 999, 999, 7, 14, 136, 119, 84, 111, 171, 144, 2, 0.714334
100, 2, wb, catch, NA, 999, 999, 7, 14, 136, 119, 84, 111, 171, 144, 3, 0.348855
100, 2, wb, attraction, a-b-da, 14, 1, 7, 15, 135, 60, 60, 135, 125, 56, 3, 1.87663
100, 2, wb, attraction, a-b-da, 14, 1, 7, 15, 135, 60, 60, 135, 125, 56, 1, 0.647992
100, 2, wb, attraction, a-b-db, 5, 2, 7, 16, 88, 161, 90, 165, 165, 90, 1, 0.867646
100, 2, wb, attraction, a-b-db, 5, 2, 7, 16, 88, 161, 90, 165, 165, 90, 2, 0.344303
100, 2, wb, attraction, a-b-db, 5, 3, 7, 17, 195, 120, 120, 195, 117, 190, 3, 1.28787
100, 2, wb, attraction, a-b-db, 5, 3, 7, 17, 195, 120, 120, 195, 117, 190, 2, 0.762887
100, 2, wb, filler, NA, 999, 999, 7, 18, 93, 183, 174, 140, 187, 64, 1, 0.729902
100, 2, wb, filler, NA, 999, 999, 7, 18, 93, 183, 174, 140, 187, 64, 2, 0.291625
100, 2, wb, attraction, a-b-da, 2, 3, 7, 19, 193, 119, 120, 195, 195, 120, 1, 0.725556
100, 2, wb, attraction, a-b-da, 2, 3, 7, 19, 193, 119, 120, 195, 195, 120, 2, 0.287196
100, 2, wb, attraction, a-b-db, 14, 3, 7, 20, 120, 195, 111, 181, 195, 120, 1, 1.43373
100, 2, wb, attraction, a-b-db, 14, 3, 7, 20, 120, 195, 111, 181, 195, 120, 3, 0.583279
100, 2, wb, attraction, a-b-da, 14, 3, 7, 21, 181, 111, 195, 120, 120, 195, 1, 0.621617
100, 2, wb, attraction, a-b-da, 14, 3, 7, 21, 181, 111, 195, 120, 120, 195, 2, 0.323456
100, 2, wb, attraction, a-b-db, 14, 1, 7, 22, 135, 60, 60, 135, 56, 125, 3, 0.899958
100, 2, wb, attraction, a-b-db, 14, 1, 7, 22, 135, 60, 60, 135, 56, 125, 1, 0.79916
100, 2, wb, attraction, a-b-da, 9, 2, 7, 23, 165, 90, 157, 86, 90, 165, 2, 1.91662
100, 2, wb, attraction, a-b-da, 9, 2, 7, 23, 165, 90, 157, 86, 90, 165, 3, 1.75077
100, 2, wb, attraction, a-b-db, 2, 2, 7, 24, 89, 163, 90, 165, 165, 90, 1, 0.4861
100, 2, wb, attraction, a-b-db, 2, 2, 7, 24, 89, 163, 90, 165, 165, 90, 3, 2.20999
100, 2, wb, filler, NA, 999, 999, 7, 25, 60, 166, 180, 63, 148, 95, 1, 0.974531
100, 2, wb, filler, NA, 999, 999, 7, 25, 60, 166, 180, 63, 148, 95, 2, 1.71022
100, 2, wb, attraction, a-b-db, 5, 1, 7, 26, 135, 60, 60, 135, 58, 132, 3, 4.46285
100, 2, wb, attraction, a-b-db, 5, 1, 7, 26, 135, 60, 60, 135, 58, 132, 1, 0.482093
100, 2, wb, attraction, a-b-db, 2, 3, 7, 27, 195, 120, 120, 195, 119, 193, 1, 4.29276
100, 2, wb, attraction, a-b-db, 2, 3, 7, 27, 195, 120, 120, 195, 119, 193, 2, 0.398554
100, 2, wb, attraction, a-b-da, 9, 1, 7, 28, 129, 57, 135, 60, 60, 135, 1, 1.64447
100, 2, wb, attraction, a-b-da, 9, 1, 7, 28, 129, 57, 135, 60, 60, 135, 3, 0.53723
100, 2, wb, attraction, a-b-da, 2, 1, 7, 29, 60, 135, 134, 59, 135, 60, 2, 1.39362
100, 2, wb, attraction, a-b-da, 2, 1, 7, 29, 60, 135, 134, 59, 135, 60, 1, 0.736437
100, 2, wb, filler, NA, 999, 999, 7, 30, 153, 156, 157, 153, 101, 73, 3, 0.600902
100, 2, wb, filler, NA, 999, 999, 7, 30, 153, 156, 157, 153, 101, 73, 2, 2.09608
100, 2, wb, attraction, a-b-db, 9, 2, 7, 31, 165, 90, 86, 157, 90, 165, 1, 6.77745
100, 2, wb, attraction, a-b-db, 9, 2, 7, 31, 165, 90, 86, 157, 90, 165, 3, 0.887166
100, 2, wb, attraction, a-b-da, 5, 1, 7, 32, 135, 60, 132, 58, 60, 135, 2, 2.25765
100, 2, wb, attraction, a-b-da, 5, 1, 7, 32, 135, 60, 132, 58, 60, 135, 3, 0.477475
100, 2, wb, attraction, a-b-db, 9, 3, 7, 33, 114, 186, 195, 120, 120, 195, 1, 1.20782
100, 2, wb, attraction, a-b-db, 9, 3, 7, 33, 114, 186, 195, 120, 120, 195, 3, 0.350166
100, 2, wb, filler, NA, 999, 999, 7, 34, 89, 142, 111, 145, 130, 184, 1, 1.01395
100, 2, wb, filler, NA, 999, 999, 7, 34, 89, 142, 111, 145, 130, 184, 3, 0.524316
100, 2, wb, attraction, a-b-db, 14, 2, 7, 35, 90, 165, 165, 90, 83, 153, 3, 1.09277
100, 2, wb, attraction, a-b-db, 14, 2, 7, 35, 90, 165, 165, 90, 83, 153, 1, 0.615656
100, 2, wb, attraction, a-b-da, 14, 2, 7, 36, 153, 83, 165, 90, 90, 165, 1, 1.07669
100, 2, wb, attraction, a-b-da, 14, 2, 7, 36, 153, 83, 165, 90, 90, 165, 3, 0.512432
100, 2, wb, attraction, a-b-db, 2, 1, 7, 37, 135, 60, 59, 134, 60, 135, 2, 3.04949
100, 2, wb, attraction, a-b-db, 2, 1, 7, 37, 135, 60, 59, 134, 60, 135, 3, 0.469973
100, 2, wb, attraction, a-b-da, 9, 1, 8, 1, 135, 60, 60, 135, 129, 57, 3, 1.32903
100, 2, wb, attraction, a-b-da, 9, 1, 8, 1, 135, 60, 60, 135, 129, 57, 1, 0.530642
100, 2, wb, filler, NA, 999, 999, 8, 2, 82, 166, 133, 145, 108, 58, 3, 0.731087
100, 2, wb, filler, NA, 999, 999, 8, 2, 82, 166, 133, 145, 108, 58, 2, 0.556702
100, 2, wb, attraction, a-b-db, 9, 1, 8, 3, 57, 129, 135, 60, 60, 135, 1, 2.49182
100, 2, wb, attraction, a-b-db, 9, 1, 8, 3, 57, 129, 135, 60, 60, 135, 3, 0.822455
100, 2, wb, attraction, a-b-db, 14, 2, 8, 4, 83, 153, 90, 165, 165, 90, 1, 5.08344
100, 2, wb, attraction, a-b-db, 14, 2, 8, 4, 83, 153, 90, 165, 165, 90, 2, 0.445797
100, 2, wb, attraction, a-b-db, 14, 1, 8, 5, 60, 135, 135, 60, 56, 125, 3, 1.66566
100, 2, wb, attraction, a-b-db, 14, 1, 8, 5, 60, 135, 135, 60, 56, 125, 1, 0.949654
100, 2, wb, attraction, a-b-da, 14, 1, 8, 6, 125, 56, 60, 135, 135, 60, 1, 3.24532
100, 2, wb, attraction, a-b-da, 14, 1, 8, 6, 125, 56, 60, 135, 135, 60, 2, 0.409708
100, 2, wb, filler, NA, 999, 999, 8, 7, 59, 117, 189, 82, 101, 170, 1, 0.614859
100, 2, wb, filler, NA, 999, 999, 8, 7, 59, 117, 189, 82, 101, 170, 3, 0.293225
100, 2, wb, attraction, a-b-db, 2, 3, 8, 8, 119, 193, 195, 120, 120, 195, 1, 4.39912
100, 2, wb, attraction, a-b-db, 2, 3, 8, 8, 119, 193, 195, 120, 120, 195, 3, 0.621073
100, 2, wb, filler, NA, 999, 999, 8, 9, 72, 100, 160, 70, 143, 159, 1, 0.442078
100, 2, wb, filler, NA, 999, 999, 8, 9, 72, 100, 160, 70, 143, 159, 3, 0.351296
100, 2, wb, attraction, a-b-da, 5, 1, 8, 10, 132, 58, 135, 60, 60, 135, 1, 0.623196
100, 2, wb, attraction, a-b-da, 5, 1, 8, 10, 132, 58, 135, 60, 60, 135, 3, 0.564899
100, 2, wb, attraction, a-b-db, 5, 3, 8, 11, 117, 190, 195, 120, 120, 195, 1, 0.707968
100, 2, wb, attraction, a-b-db, 5, 3, 8, 11, 117, 190, 195, 120, 120, 195, 3, 1.29443
100, 2, wb, filler, NA, 999, 999, 8, 12, 94, 118, 87, 173, 98, 88, 3, 0.719928
100, 2, wb, filler, NA, 999, 999, 8, 12, 94, 118, 87, 173, 98, 88, 2, 0.730385
100, 2, wb, attraction, a-b-da, 5, 2, 8, 13, 165, 90, 90, 165, 161, 88, 3, 1.54679
100, 2, wb, attraction, a-b-da, 5, 2, 8, 13, 165, 90, 90, 165, 161, 88, 1, 0.627575
100, 2, wb, filler, NA, 999, 999, 8, 14, 113, 114, 118, 108, 109, 106, 1, 0.847951
100, 2, wb, filler, NA, 999, 999, 8, 14, 113, 114, 118, 108, 109, 106, 2, 0.56508
100, 2, wb, attraction, a-b-da, 2, 2, 8, 15, 90, 165, 163, 89, 165, 90, 1, 1.16404
100, 2, wb, attraction, a-b-da, 2, 2, 8, 15, 90, 165, 163, 89, 165, 90, 2, 0.788354
100, 2, wb, filler, NA, 999, 999, 8, 16, 87, 129, 100, 103, 152, 71, 2, 3.55481
100, 2, wb, filler, NA, 999, 999, 8, 16, 87, 129, 100, 103, 152, 71, 1, 0.818295
100, 2, wb, attraction, a-b-da, 2, 3, 8, 17, 195, 120, 120, 195, 193, 119, 3, 1.8713
100, 2, wb, attraction, a-b-da, 2, 3, 8, 17, 195, 120, 120, 195, 193, 119, 2, 0.434718
100, 2, wb, attraction, a-b-da, 14, 3, 8, 18, 120, 195, 195, 120, 181, 111, 3, 1.57519
100, 2, wb, attraction, a-b-da, 14, 3, 8, 18, 120, 195, 195, 120, 181, 111, 1, 0.87067
100, 2, wb, attraction, a-b-db, 5, 1, 8, 19, 60, 135, 135, 60, 58, 132, 2, 1.65771
100, 2, wb, attraction, a-b-db, 5, 1, 8, 19, 60, 135, 135, 60, 58, 132, 1, 0.629773
100, 2, wb, attraction, a-b-db, 9, 2, 8, 20, 90, 165, 165, 90, 86, 157, 1, 1.18617
100, 2, wb, attraction, a-b-db, 9, 2, 8, 20, 90, 165, 165, 90, 86, 157, 3, 0.585799
100, 2, wb, catch, NA, 999, 999, 8, 21, 119, 136, 101, 94, 194, 121, 2, 0.896125
100, 2, wb, catch, NA, 999, 999, 8, 21, 119, 136, 101, 94, 194, 121, 3, 0.363213
100, 2, wb, catch, NA, 999, 999, 8, 22, 89, 106, 169, 146, 118, 137, 1, 0.730384
100, 2, wb, catch, NA, 999, 999, 8, 22, 89, 106, 169, 146, 118, 137, 2, 0.34815
100, 2, wb, filler, NA, 999, 999, 8, 23, 64, 77, 88, 189, 88, 178, 1, 0.635923
100, 2, wb, filler, NA, 999, 999, 8, 23, 64, 77, 88, 189, 88, 178, 3, 0.80173
100, 2, wb, attraction, a-b-da, 2, 1, 8, 24, 134, 59, 135, 60, 60, 135, 3, 2.47152
100, 2, wb, attraction, a-b-da, 2, 1, 8, 24, 134, 59, 135, 60, 60, 135, 2, 0.706581
100, 2, wb, filler, NA, 999, 999, 8, 25, 167, 87, 127, 115, 83, 63, 3, 0.659799
100, 2, wb, filler, NA, 999, 999, 8, 25, 167, 87, 127, 115, 83, 63, 1, 0.672097
100, 2, wb, filler, NA, 999, 999, 8, 26, 59, 116, 132, 191, 109, 131, 1, 0.763087
100, 2, wb, filler, NA, 999, 999, 8, 26, 59, 116, 132, 191, 109, 131, 2, 0.291706
100, 2, wb, attraction, a-b-da, 9, 3, 8, 27, 195, 120, 186, 114, 120, 195, 2, 1.85335
100, 2, wb, attraction, a-b-da, 9, 3, 8, 27, 195, 120, 186, 114, 120, 195, 3, 0.314171
100, 2, wb, catch, NA, 999, 999, 8, 28, 111, 144, 66, 129, 176, 139, 2, 1.40332
100, 2, wb, catch, NA, 999, 999, 8, 28, 111, 144, 66, 129, 176, 139, 3, 0.402251
100, 2, wb, attraction, a-b-da, 14, 2, 8, 29, 90, 165, 165, 90, 153, 83, 3, 0.831965
100, 2, wb, attraction, a-b-da, 14, 2, 8, 29, 90, 165, 165, 90, 153, 83, 2, 0.63776
100, 2, wb, attraction, a-b-da, 5, 3, 8, 30, 120, 195, 190, 117, 195, 120, 1, 0.522199
100, 2, wb, attraction, a-b-da, 5, 3, 8, 30, 120, 195, 190, 117, 195, 120, 2, 1.29996
100, 2, wb, attraction, a-b-db, 14, 3, 8, 31, 111, 181, 120, 195, 195, 120, 1, 0.901525
100, 2, wb, attraction, a-b-db, 14, 3, 8, 31, 111, 181, 120, 195, 195, 120, 2, 0.720588
100, 2, wb, attraction, a-b-db, 5, 2, 8, 32, 88, 161, 165, 90, 90, 165, 1, 1.16159
100, 2, wb, attraction, a-b-db, 5, 2, 8, 32, 88, 161, 165, 90, 90, 165, 2, 1.27393
100, 2, wb, filler, NA, 999, 999, 8, 33, 92, 191, 131, 189, 133, 70, 3, 0.812101
100, 2, wb, filler, NA, 999, 999, 8, 33, 92, 191, 131, 189, 133, 70, 2, 0.330466
100, 2, wb, attraction, a-b-db, 2, 1, 8, 34, 135, 60, 59, 134, 60, 135, 3, 1.59493
100, 2, wb, attraction, a-b-db, 2, 1, 8, 34, 135, 60, 59, 134, 60, 135, 2, 0.321682
100, 2, wb, attraction, a-b-db, 9, 3, 8, 35, 114, 186, 120, 195, 195, 120, 1, 0.794981
100, 2, wb, attraction, a-b-db, 9, 3, 8, 35, 114, 186, 120, 195, 195, 120, 3, 0.522101
100, 2, wb, attraction, a-b-da, 9, 2, 8, 36, 157, 86, 90, 165, 165, 90, 1, 1.14709
100, 2, wb, attraction, a-b-da, 9, 2, 8, 36, 157, 86, 90, 165, 165, 90, 2, 0.532031
100, 2, wb, attraction, a-b-db, 2, 2, 8, 37, 165, 90, 90, 165, 89, 163, 1, 1.92456
100, 2, wb, attraction, a-b-db, 2, 2, 8, 37, 165, 90, 90, 165, 89, 163, 3, 0.613835
