sub_n, computer_n, bw_cond, effect, set, distance, diag, block_n, trial_n, h1, w1, h2, w2, h3, w3, choice, rt 
179, 2, bw, practice, NA, 999, 999, 0, 1, 144, 125, 114, 136, 116, 82, 1, 2.80941
179, 2, bw, practice, NA, 999, 999, 0, 1, 144, 125, 114, 136, 116, 82, 3, 2.90356
179, 2, bw, practice, NA, 999, 999, 0, 2, 191, 91, 98, 90, 178, 70, 1, 2.1673
179, 2, bw, practice, NA, 999, 999, 0, 2, 191, 91, 98, 90, 178, 70, 3, 6.34106
179, 2, bw, practice, NA, 999, 999, 0, 3, 89, 78, 118, 99, 66, 76, 2, 2.24235
179, 2, bw, practice, NA, 999, 999, 0, 3, 89, 78, 118, 99, 66, 76, 3, 1.366
179, 2, bw, filler, NA, 999, 999, 1, 1, 191, 156, 145, 187, 187, 163, 1, 3.70703
179, 2, bw, filler, NA, 999, 999, 1, 1, 191, 156, 145, 187, 187, 163, 3, 1.54851
179, 2, bw, attraction, a-b-da, 14, 1, 1, 2, 60, 135, 135, 60, 125, 56, 1, 2.25988
179, 2, bw, attraction, a-b-da, 14, 1, 1, 2, 60, 135, 135, 60, 125, 56, 3, 0.895906
179, 2, bw, attraction, a-b-db, 9, 1, 1, 3, 135, 60, 57, 129, 60, 135, 2, 1.17756
179, 2, bw, attraction, a-b-db, 9, 1, 1, 3, 135, 60, 57, 129, 60, 135, 1, 0.569052
179, 2, bw, attraction, a-b-da, 2, 3, 1, 4, 193, 119, 195, 120, 120, 195, 2, 0.896215
179, 2, bw, attraction, a-b-da, 2, 3, 1, 4, 193, 119, 195, 120, 120, 195, 3, 0.555225
179, 2, bw, attraction, a-b-da, 5, 3, 1, 5, 190, 117, 120, 195, 195, 120, 2, 1.28305
179, 2, bw, attraction, a-b-da, 5, 3, 1, 5, 190, 117, 120, 195, 195, 120, 3, 0.478561
179, 2, bw, attraction, a-b-da, 2, 2, 1, 6, 163, 89, 165, 90, 90, 165, 2, 1.68908
179, 2, bw, attraction, a-b-da, 2, 2, 1, 6, 163, 89, 165, 90, 90, 165, 3, 0.61183
179, 2, bw, filler, NA, 999, 999, 1, 7, 174, 100, 157, 69, 58, 195, 1, 1.1449
179, 2, bw, filler, NA, 999, 999, 1, 7, 174, 100, 157, 69, 58, 195, 3, 0.465918
179, 2, bw, catch, NA, 999, 999, 1, 8, 124, 131, 155, 160, 133, 62, 2, 0.748984
179, 2, bw, catch, NA, 999, 999, 1, 8, 124, 131, 155, 160, 133, 62, 3, 0.902075
179, 2, bw, filler, NA, 999, 999, 1, 9, 89, 152, 140, 114, 70, 174, 2, 1.16767
179, 2, bw, filler, NA, 999, 999, 1, 9, 89, 152, 140, 114, 70, 174, 3, 0.775985
179, 2, bw, attraction, a-b-da, 9, 3, 1, 10, 120, 195, 195, 120, 186, 114, 1, 0.926277
179, 2, bw, attraction, a-b-da, 9, 3, 1, 10, 120, 195, 195, 120, 186, 114, 3, 0.400055
179, 2, bw, filler, NA, 999, 999, 1, 11, 133, 118, 148, 175, 163, 82, 2, 0.605869
179, 2, bw, filler, NA, 999, 999, 1, 11, 133, 118, 148, 175, 163, 82, 3, 0.588302
179, 2, bw, attraction, a-b-da, 5, 2, 1, 12, 161, 88, 165, 90, 90, 165, 2, 1.63472
179, 2, bw, attraction, a-b-da, 5, 2, 1, 12, 161, 88, 165, 90, 90, 165, 3, 0.408329
179, 2, bw, filler, NA, 999, 999, 1, 13, 153, 127, 111, 126, 92, 168, 1, 0.965348
179, 2, bw, filler, NA, 999, 999, 1, 13, 153, 127, 111, 126, 92, 168, 3, 0.693824
179, 2, bw, filler, NA, 999, 999, 1, 14, 112, 106, 182, 139, 71, 128, 2, 0.743514
179, 2, bw, filler, NA, 999, 999, 1, 14, 112, 106, 182, 139, 71, 128, 3, 0.776419
179, 2, bw, attraction, a-b-db, 5, 2, 1, 15, 90, 165, 88, 161, 165, 90, 2, 1.17486
179, 2, bw, attraction, a-b-db, 5, 2, 1, 15, 90, 165, 88, 161, 165, 90, 3, 0.350404
179, 2, bw, attraction, a-b-db, 9, 2, 1, 16, 165, 90, 90, 165, 86, 157, 2, 0.574253
179, 2, bw, attraction, a-b-db, 9, 2, 1, 16, 165, 90, 90, 165, 86, 157, 3, 0.510041
179, 2, bw, attraction, a-b-db, 14, 2, 1, 17, 83, 153, 90, 165, 165, 90, 2, 0.567203
179, 2, bw, attraction, a-b-db, 14, 2, 1, 17, 83, 153, 90, 165, 165, 90, 3, 0.423671
179, 2, bw, filler, NA, 999, 999, 1, 18, 156, 80, 148, 86, 68, 117, 2, 1.16417
179, 2, bw, filler, NA, 999, 999, 1, 18, 156, 80, 148, 86, 68, 117, 3, 0.564463
179, 2, bw, filler, NA, 999, 999, 1, 19, 120, 166, 60, 83, 127, 72, 1, 0.483489
179, 2, bw, filler, NA, 999, 999, 1, 19, 120, 166, 60, 83, 127, 72, 2, 0.791378
179, 2, bw, attraction, a-b-da, 9, 1, 1, 20, 135, 60, 129, 57, 60, 135, 1, 0.637051
179, 2, bw, attraction, a-b-da, 9, 1, 1, 20, 135, 60, 129, 57, 60, 135, 3, 0.394137
179, 2, bw, catch, NA, 999, 999, 1, 21, 111, 84, 108, 147, 185, 130, 3, 1.19995
179, 2, bw, catch, NA, 999, 999, 1, 21, 111, 84, 108, 147, 185, 130, 1, 0.8629
179, 2, bw, attraction, a-b-da, 14, 2, 1, 22, 165, 90, 90, 165, 153, 83, 1, 0.793918
179, 2, bw, attraction, a-b-da, 14, 2, 1, 22, 165, 90, 90, 165, 153, 83, 3, 0.441003
179, 2, bw, attraction, a-b-da, 2, 1, 1, 23, 134, 59, 60, 135, 135, 60, 2, 1.58872
179, 2, bw, attraction, a-b-da, 2, 1, 1, 23, 134, 59, 60, 135, 135, 60, 3, 0.347663
179, 2, bw, attraction, a-b-db, 2, 1, 1, 24, 60, 135, 59, 134, 135, 60, 1, 0.699462
179, 2, bw, attraction, a-b-db, 2, 1, 1, 24, 60, 135, 59, 134, 135, 60, 3, 0.718588
179, 2, bw, attraction, a-b-da, 5, 1, 1, 25, 60, 135, 135, 60, 132, 58, 1, 0.504884
179, 2, bw, attraction, a-b-da, 5, 1, 1, 25, 60, 135, 135, 60, 132, 58, 3, 0.489964
179, 2, bw, attraction, a-b-db, 2, 2, 1, 26, 165, 90, 89, 163, 90, 165, 1, 1.20374
179, 2, bw, attraction, a-b-db, 2, 2, 1, 26, 165, 90, 89, 163, 90, 165, 3, 0.378731
179, 2, bw, attraction, a-b-da, 14, 3, 1, 27, 181, 111, 120, 195, 195, 120, 2, 1.2573
179, 2, bw, attraction, a-b-da, 14, 3, 1, 27, 181, 111, 120, 195, 195, 120, 3, 0.277484
179, 2, bw, filler, NA, 999, 999, 1, 28, 64, 71, 58, 123, 118, 171, 3, 0.800084
179, 2, bw, filler, NA, 999, 999, 1, 28, 64, 71, 58, 123, 118, 171, 1, 0.583014
179, 2, bw, attraction, a-b-da, 9, 2, 1, 29, 157, 86, 165, 90, 90, 165, 3, 1.74145
179, 2, bw, attraction, a-b-da, 9, 2, 1, 29, 157, 86, 165, 90, 90, 165, 1, 0.6942
179, 2, bw, attraction, a-b-db, 5, 3, 1, 30, 117, 190, 120, 195, 195, 120, 2, 0.815962
179, 2, bw, attraction, a-b-db, 5, 3, 1, 30, 117, 190, 120, 195, 195, 120, 3, 0.334393
179, 2, bw, attraction, a-b-db, 14, 1, 1, 31, 56, 125, 135, 60, 60, 135, 3, 1.19882
179, 2, bw, attraction, a-b-db, 14, 1, 1, 31, 56, 125, 135, 60, 60, 135, 1, 0.629792
179, 2, bw, attraction, a-b-db, 14, 3, 1, 32, 111, 181, 120, 195, 195, 120, 3, 1.13022
179, 2, bw, attraction, a-b-db, 14, 3, 1, 32, 111, 181, 120, 195, 195, 120, 2, 0.363871
179, 2, bw, attraction, a-b-db, 9, 3, 1, 33, 114, 186, 120, 195, 195, 120, 1, 0.62698
179, 2, bw, attraction, a-b-db, 9, 3, 1, 33, 114, 186, 120, 195, 195, 120, 3, 1.0968
179, 2, bw, filler, NA, 999, 999, 1, 34, 94, 167, 91, 134, 96, 165, 1, 0.882273
179, 2, bw, filler, NA, 999, 999, 1, 34, 94, 167, 91, 134, 96, 165, 3, 0.486003
179, 2, bw, attraction, a-b-db, 2, 3, 1, 35, 120, 195, 119, 193, 195, 120, 1, 0.640431
179, 2, bw, attraction, a-b-db, 2, 3, 1, 35, 120, 195, 119, 193, 195, 120, 3, 0.397681
179, 2, bw, catch, NA, 999, 999, 1, 36, 65, 130, 174, 141, 125, 130, 2, 0.483358
179, 2, bw, catch, NA, 999, 999, 1, 36, 65, 130, 174, 141, 125, 130, 1, 1.32721
179, 2, bw, attraction, a-b-db, 5, 1, 1, 37, 60, 135, 58, 132, 135, 60, 2, 1.24758
179, 2, bw, attraction, a-b-db, 5, 1, 1, 37, 60, 135, 58, 132, 135, 60, 3, 0.404323
179, 2, bw, attraction, a-b-db, 5, 2, 2, 1, 165, 90, 88, 161, 90, 165, 1, 0.570377
179, 2, bw, attraction, a-b-db, 5, 2, 2, 1, 165, 90, 88, 161, 90, 165, 3, 0.369965
179, 2, bw, attraction, a-b-da, 5, 2, 2, 2, 161, 88, 165, 90, 90, 165, 2, 0.545131
179, 2, bw, attraction, a-b-da, 5, 2, 2, 2, 161, 88, 165, 90, 90, 165, 3, 0.354325
179, 2, bw, attraction, a-b-db, 14, 2, 2, 3, 90, 165, 165, 90, 83, 153, 1, 0.642116
179, 2, bw, attraction, a-b-db, 14, 2, 2, 3, 90, 165, 165, 90, 83, 153, 3, 0.367409
179, 2, bw, attraction, a-b-da, 2, 2, 2, 4, 165, 90, 163, 89, 90, 165, 1, 0.854337
179, 2, bw, attraction, a-b-da, 2, 2, 2, 4, 165, 90, 163, 89, 90, 165, 3, 0.386768
179, 2, bw, attraction, a-b-da, 9, 1, 2, 5, 60, 135, 129, 57, 135, 60, 1, 0.497257
179, 2, bw, attraction, a-b-da, 9, 1, 2, 5, 60, 135, 129, 57, 135, 60, 3, 0.716388
179, 2, bw, attraction, a-b-db, 9, 2, 2, 6, 165, 90, 90, 165, 86, 157, 2, 1.82157
179, 2, bw, attraction, a-b-db, 9, 2, 2, 6, 165, 90, 90, 165, 86, 157, 3, 0.690886
179, 2, bw, attraction, a-b-da, 5, 3, 2, 7, 195, 120, 120, 195, 190, 117, 2, 1.15659
179, 2, bw, attraction, a-b-da, 5, 3, 2, 7, 195, 120, 120, 195, 190, 117, 1, 0.692808
179, 2, bw, filler, NA, 999, 999, 2, 8, 166, 70, 64, 161, 190, 195, 3, 0.590565
179, 2, bw, filler, NA, 999, 999, 2, 8, 166, 70, 64, 161, 190, 195, 2, 0.405773
179, 2, bw, filler, NA, 999, 999, 2, 9, 100, 183, 142, 139, 89, 189, 2, 1.33959
179, 2, bw, filler, NA, 999, 999, 2, 9, 100, 183, 142, 139, 89, 189, 3, 0.388388
179, 2, bw, attraction, a-b-db, 2, 3, 2, 10, 119, 193, 120, 195, 195, 120, 2, 0.730779
179, 2, bw, attraction, a-b-db, 2, 3, 2, 10, 119, 193, 120, 195, 195, 120, 3, 0.348629
179, 2, bw, catch, NA, 999, 999, 2, 11, 111, 144, 126, 69, 120, 195, 3, 0.764393
179, 2, bw, catch, NA, 999, 999, 2, 11, 111, 144, 126, 69, 120, 195, 2, 0.388818
179, 2, bw, catch, NA, 999, 999, 2, 12, 171, 144, 151, 104, 115, 80, 1, 0.435242
179, 2, bw, catch, NA, 999, 999, 2, 12, 171, 144, 151, 104, 115, 80, 3, 0.497664
179, 2, bw, filler, NA, 999, 999, 2, 13, 186, 167, 109, 62, 118, 169, 1, 1.09892
179, 2, bw, filler, NA, 999, 999, 2, 13, 186, 167, 109, 62, 118, 169, 2, 0.549979
179, 2, bw, attraction, a-b-da, 14, 3, 2, 14, 181, 111, 195, 120, 120, 195, 2, 0.789596
179, 2, bw, attraction, a-b-da, 14, 3, 2, 14, 181, 111, 195, 120, 120, 195, 3, 0.316809
179, 2, bw, attraction, a-b-db, 9, 1, 2, 15, 60, 135, 57, 129, 135, 60, 1, 0.75791
179, 2, bw, attraction, a-b-db, 9, 1, 2, 15, 60, 135, 57, 129, 135, 60, 3, 0.598319
179, 2, bw, filler, NA, 999, 999, 2, 16, 113, 173, 58, 126, 167, 90, 1, 0.420134
179, 2, bw, filler, NA, 999, 999, 2, 16, 113, 173, 58, 126, 167, 90, 2, 1.12994
179, 2, bw, filler, NA, 999, 999, 2, 17, 150, 95, 189, 154, 190, 125, 2, 0.666211
179, 2, bw, filler, NA, 999, 999, 2, 17, 150, 95, 189, 154, 190, 125, 1, 0.630644
179, 2, bw, filler, NA, 999, 999, 2, 18, 84, 60, 126, 166, 75, 61, 2, 0.490952
179, 2, bw, filler, NA, 999, 999, 2, 18, 84, 60, 126, 166, 75, 61, 3, 0.574136
179, 2, bw, attraction, a-b-db, 5, 1, 2, 19, 60, 135, 58, 132, 135, 60, 1, 1.12458
179, 2, bw, attraction, a-b-db, 5, 1, 2, 19, 60, 135, 58, 132, 135, 60, 3, 0.622242
179, 2, bw, attraction, a-b-da, 9, 3, 2, 20, 120, 195, 186, 114, 195, 120, 1, 1.05931
179, 2, bw, attraction, a-b-da, 9, 3, 2, 20, 120, 195, 186, 114, 195, 120, 3, 0.439649
179, 2, bw, filler, NA, 999, 999, 2, 21, 77, 115, 103, 193, 179, 190, 3, 0.867373
179, 2, bw, filler, NA, 999, 999, 2, 21, 77, 115, 103, 193, 179, 190, 1, 0.391818
179, 2, bw, attraction, a-b-da, 14, 2, 2, 22, 153, 83, 165, 90, 90, 165, 2, 0.573656
179, 2, bw, attraction, a-b-da, 14, 2, 2, 22, 153, 83, 165, 90, 90, 165, 3, 0.293413
179, 2, bw, attraction, a-b-da, 2, 3, 2, 23, 120, 195, 193, 119, 195, 120, 3, 0.735298
179, 2, bw, attraction, a-b-da, 2, 3, 2, 23, 120, 195, 193, 119, 195, 120, 2, 0.336966
179, 2, bw, attraction, a-b-da, 2, 1, 2, 24, 134, 59, 135, 60, 60, 135, 2, 1.1695
179, 2, bw, attraction, a-b-da, 2, 1, 2, 24, 134, 59, 135, 60, 60, 135, 3, 0.297906
179, 2, bw, attraction, a-b-db, 5, 3, 2, 25, 117, 190, 120, 195, 195, 120, 1, 0.555648
179, 2, bw, attraction, a-b-db, 5, 3, 2, 25, 117, 190, 120, 195, 195, 120, 3, 0.348043
179, 2, bw, attraction, a-b-db, 2, 1, 2, 26, 59, 134, 135, 60, 60, 135, 2, 0.867883
179, 2, bw, attraction, a-b-db, 2, 1, 2, 26, 59, 134, 135, 60, 60, 135, 3, 0.304234
179, 2, bw, filler, NA, 999, 999, 2, 27, 193, 72, 99, 154, 166, 124, 1, 0.370021
179, 2, bw, filler, NA, 999, 999, 2, 27, 193, 72, 99, 154, 166, 124, 3, 0.866784
179, 2, bw, filler, NA, 999, 999, 2, 28, 139, 194, 152, 152, 89, 161, 1, 0.453686
179, 2, bw, filler, NA, 999, 999, 2, 28, 139, 194, 152, 152, 89, 161, 3, 0.346107
179, 2, bw, attraction, a-b-db, 14, 1, 2, 29, 60, 135, 56, 125, 135, 60, 1, 0.649991
179, 2, bw, attraction, a-b-db, 14, 1, 2, 29, 60, 135, 56, 125, 135, 60, 3, 0.359053
179, 2, bw, attraction, a-b-da, 5, 1, 2, 30, 60, 135, 132, 58, 135, 60, 1, 0.462201
179, 2, bw, attraction, a-b-da, 5, 1, 2, 30, 60, 135, 132, 58, 135, 60, 3, 0.450772
179, 2, bw, attraction, a-b-db, 2, 2, 2, 31, 89, 163, 165, 90, 90, 165, 1, 0.590654
179, 2, bw, attraction, a-b-db, 2, 2, 2, 31, 89, 163, 165, 90, 90, 165, 3, 0.845677
179, 2, bw, attraction, a-b-db, 9, 3, 2, 32, 120, 195, 195, 120, 114, 186, 1, 0.449437
179, 2, bw, attraction, a-b-db, 9, 3, 2, 32, 120, 195, 195, 120, 114, 186, 3, 0.454508
179, 2, bw, attraction, a-b-da, 14, 1, 2, 33, 125, 56, 60, 135, 135, 60, 1, 0.618268
179, 2, bw, attraction, a-b-da, 14, 1, 2, 33, 125, 56, 60, 135, 135, 60, 3, 0.928786
179, 2, bw, attraction, a-b-da, 9, 2, 2, 34, 157, 86, 90, 165, 165, 90, 1, 0.321079
179, 2, bw, attraction, a-b-da, 9, 2, 2, 34, 157, 86, 90, 165, 165, 90, 3, 0.402923
179, 2, bw, filler, NA, 999, 999, 2, 35, 149, 155, 151, 173, 123, 111, 1, 0.352713
179, 2, bw, filler, NA, 999, 999, 2, 35, 149, 155, 151, 173, 123, 111, 3, 0.78596
179, 2, bw, attraction, a-b-db, 14, 3, 2, 36, 195, 120, 111, 181, 120, 195, 1, 0.344253
179, 2, bw, attraction, a-b-db, 14, 3, 2, 36, 195, 120, 111, 181, 120, 195, 3, 0.35353
179, 2, bw, catch, NA, 999, 999, 2, 37, 131, 184, 68, 127, 90, 165, 1, 0.601316
179, 2, bw, catch, NA, 999, 999, 2, 37, 131, 184, 68, 127, 90, 165, 2, 0.696448
179, 2, bw, catch, NA, 999, 999, 3, 1, 76, 119, 92, 163, 163, 152, 3, 0.682239
179, 2, bw, catch, NA, 999, 999, 3, 1, 76, 119, 92, 163, 163, 152, 1, 0.397989
179, 2, bw, attraction, a-b-da, 9, 3, 3, 2, 120, 195, 186, 114, 195, 120, 3, 0.787785
179, 2, bw, attraction, a-b-da, 9, 3, 3, 2, 120, 195, 186, 114, 195, 120, 1, 0.370817
179, 2, bw, attraction, a-b-da, 9, 1, 3, 3, 129, 57, 60, 135, 135, 60, 2, 1.00192
179, 2, bw, attraction, a-b-da, 9, 1, 3, 3, 129, 57, 60, 135, 135, 60, 1, 0.633097
179, 2, bw, attraction, a-b-da, 14, 2, 3, 4, 153, 83, 165, 90, 90, 165, 2, 0.573332
179, 2, bw, attraction, a-b-da, 14, 2, 3, 4, 153, 83, 165, 90, 90, 165, 1, 0.413285
179, 2, bw, attraction, a-b-db, 5, 3, 3, 5, 120, 195, 117, 190, 195, 120, 3, 0.506267
179, 2, bw, attraction, a-b-db, 5, 3, 3, 5, 120, 195, 117, 190, 195, 120, 2, 0.324902
179, 2, bw, attraction, a-b-db, 9, 3, 3, 6, 114, 186, 120, 195, 195, 120, 1, 0.44528
179, 2, bw, attraction, a-b-db, 9, 3, 3, 6, 114, 186, 120, 195, 195, 120, 3, 0.362581
179, 2, bw, filler, NA, 999, 999, 3, 7, 159, 68, 62, 190, 137, 82, 2, 0.745622
179, 2, bw, filler, NA, 999, 999, 3, 7, 159, 68, 62, 190, 137, 82, 3, 0.426653
179, 2, bw, attraction, a-b-da, 9, 2, 3, 8, 157, 86, 165, 90, 90, 165, 1, 0.439265
179, 2, bw, attraction, a-b-da, 9, 2, 3, 8, 157, 86, 165, 90, 90, 165, 3, 0.308375
179, 2, bw, attraction, a-b-da, 2, 3, 3, 9, 193, 119, 195, 120, 120, 195, 1, 0.917553
179, 2, bw, attraction, a-b-da, 2, 3, 3, 9, 193, 119, 195, 120, 120, 195, 3, 0.679892
179, 2, bw, attraction, a-b-db, 14, 3, 3, 10, 120, 195, 111, 181, 195, 120, 1, 0.346248
179, 2, bw, attraction, a-b-db, 14, 3, 3, 10, 120, 195, 111, 181, 195, 120, 3, 0.411449
179, 2, bw, filler, NA, 999, 999, 3, 11, 151, 137, 87, 156, 108, 96, 1, 0.464697
179, 2, bw, filler, NA, 999, 999, 3, 11, 151, 137, 87, 156, 108, 96, 3, 0.661206
179, 2, bw, filler, NA, 999, 999, 3, 12, 75, 165, 140, 175, 121, 119, 3, 0.706563
179, 2, bw, filler, NA, 999, 999, 3, 12, 75, 165, 140, 175, 121, 119, 1, 1.5866
179, 2, bw, filler, NA, 999, 999, 3, 13, 188, 133, 56, 73, 67, 82, 1, 0.624727
179, 2, bw, filler, NA, 999, 999, 3, 13, 188, 133, 56, 73, 67, 82, 2, 0.350488
179, 2, bw, attraction, a-b-da, 14, 1, 3, 14, 60, 135, 135, 60, 125, 56, 2, 0.686275
179, 2, bw, attraction, a-b-da, 14, 1, 3, 14, 60, 135, 135, 60, 125, 56, 3, 0.498195
179, 2, bw, attraction, a-b-da, 14, 3, 3, 15, 195, 120, 181, 111, 120, 195, 1, 0.579935
179, 2, bw, attraction, a-b-da, 14, 3, 3, 15, 195, 120, 181, 111, 120, 195, 3, 0.347815
179, 2, bw, filler, NA, 999, 999, 3, 16, 177, 68, 68, 61, 68, 147, 1, 0.435603
179, 2, bw, filler, NA, 999, 999, 3, 16, 177, 68, 68, 61, 68, 147, 2, 0.417317
179, 2, bw, filler, NA, 999, 999, 3, 17, 78, 189, 142, 123, 104, 129, 2, 1.04649
179, 2, bw, filler, NA, 999, 999, 3, 17, 78, 189, 142, 123, 104, 129, 1, 0.635662
179, 2, bw, attraction, a-b-da, 5, 2, 3, 18, 90, 165, 165, 90, 161, 88, 2, 0.743898
179, 2, bw, attraction, a-b-da, 5, 2, 3, 18, 90, 165, 165, 90, 161, 88, 3, 0.368971
179, 2, bw, attraction, a-b-db, 5, 2, 3, 19, 90, 165, 165, 90, 88, 161, 2, 1.44014
179, 2, bw, attraction, a-b-db, 5, 2, 3, 19, 90, 165, 165, 90, 88, 161, 3, 0.332928
179, 2, bw, filler, NA, 999, 999, 3, 20, 132, 181, 142, 111, 159, 115, 1, 0.613416
179, 2, bw, filler, NA, 999, 999, 3, 20, 132, 181, 142, 111, 159, 115, 3, 0.331964
179, 2, bw, attraction, a-b-da, 5, 3, 3, 21, 195, 120, 120, 195, 190, 117, 1, 0.548476
179, 2, bw, attraction, a-b-da, 5, 3, 3, 21, 195, 120, 120, 195, 190, 117, 3, 0.349648
179, 2, bw, attraction, a-b-db, 9, 1, 3, 22, 60, 135, 135, 60, 57, 129, 1, 0.589389
179, 2, bw, attraction, a-b-db, 9, 1, 3, 22, 60, 135, 135, 60, 57, 129, 3, 0.340567
179, 2, bw, filler, NA, 999, 999, 3, 23, 61, 71, 176, 132, 161, 89, 2, 1.43639
179, 2, bw, filler, NA, 999, 999, 3, 23, 61, 71, 176, 132, 161, 89, 1, 0.505816
179, 2, bw, attraction, a-b-da, 2, 2, 3, 24, 165, 90, 163, 89, 90, 165, 2, 0.507706
179, 2, bw, attraction, a-b-da, 2, 2, 3, 24, 165, 90, 163, 89, 90, 165, 3, 0.310192
179, 2, bw, attraction, a-b-db, 5, 1, 3, 25, 58, 132, 60, 135, 135, 60, 2, 0.59137
179, 2, bw, attraction, a-b-db, 5, 1, 3, 25, 58, 132, 60, 135, 135, 60, 3, 0.502584
179, 2, bw, attraction, a-b-db, 2, 1, 3, 26, 60, 135, 135, 60, 59, 134, 1, 0.560266
179, 2, bw, attraction, a-b-db, 2, 1, 3, 26, 60, 135, 135, 60, 59, 134, 3, 0.352618
179, 2, bw, attraction, a-b-db, 9, 2, 3, 27, 86, 157, 90, 165, 165, 90, 1, 0.400683
179, 2, bw, attraction, a-b-db, 9, 2, 3, 27, 86, 157, 90, 165, 165, 90, 3, 0.775716
179, 2, bw, attraction, a-b-db, 14, 2, 3, 28, 83, 153, 90, 165, 165, 90, 1, 0.326066
179, 2, bw, attraction, a-b-db, 14, 2, 3, 28, 83, 153, 90, 165, 165, 90, 3, 1.11996
179, 2, bw, attraction, a-b-da, 2, 1, 3, 29, 135, 60, 60, 135, 134, 59, 1, 0.872785
179, 2, bw, attraction, a-b-da, 2, 1, 3, 29, 135, 60, 60, 135, 134, 59, 2, 0.163076
179, 2, bw, attraction, a-b-db, 2, 3, 3, 30, 195, 120, 119, 193, 120, 195, 1, 0.739859
179, 2, bw, attraction, a-b-db, 2, 3, 3, 30, 195, 120, 119, 193, 120, 195, 2, 0.32488
179, 2, bw, attraction, a-b-db, 2, 2, 3, 31, 165, 90, 90, 165, 89, 163, 1, 0.5573
179, 2, bw, attraction, a-b-db, 2, 2, 3, 31, 165, 90, 90, 165, 89, 163, 3, 0.341816
179, 2, bw, catch, NA, 999, 999, 3, 32, 123, 72, 165, 150, 138, 117, 2, 0.669617
179, 2, bw, catch, NA, 999, 999, 3, 32, 123, 72, 165, 150, 138, 117, 1, 0.346047
179, 2, bw, catch, NA, 999, 999, 3, 33, 102, 93, 151, 164, 128, 127, 2, 0.666035
179, 2, bw, catch, NA, 999, 999, 3, 33, 102, 93, 151, 164, 128, 127, 1, 0.414384
179, 2, bw, filler, NA, 999, 999, 3, 34, 141, 65, 157, 67, 75, 154, 2, 0.675503
179, 2, bw, filler, NA, 999, 999, 3, 34, 141, 65, 157, 67, 75, 154, 3, 0.391312
179, 2, bw, filler, NA, 999, 999, 3, 35, 68, 57, 65, 110, 137, 151, 3, 0.717122
179, 2, bw, filler, NA, 999, 999, 3, 35, 68, 57, 65, 110, 137, 151, 1, 0.767445
179, 2, bw, attraction, a-b-da, 5, 1, 3, 36, 60, 135, 132, 58, 135, 60, 1, 0.838519
179, 2, bw, attraction, a-b-da, 5, 1, 3, 36, 60, 135, 132, 58, 135, 60, 3, 0.395584
179, 2, bw, attraction, a-b-db, 14, 1, 3, 37, 56, 125, 135, 60, 60, 135, 1, 0.441398
179, 2, bw, attraction, a-b-db, 14, 1, 3, 37, 56, 125, 135, 60, 60, 135, 3, 0.590555
179, 2, bw, attraction, a-b-db, 5, 1, 4, 1, 58, 132, 60, 135, 135, 60, 1, 0.524383
179, 2, bw, attraction, a-b-db, 5, 1, 4, 1, 58, 132, 60, 135, 135, 60, 2, 0.374182
179, 2, bw, filler, NA, 999, 999, 4, 2, 124, 174, 180, 148, 172, 100, 1, 0.564666
179, 2, bw, filler, NA, 999, 999, 4, 2, 124, 174, 180, 148, 172, 100, 3, 0.365174
179, 2, bw, catch, NA, 999, 999, 4, 3, 99, 156, 90, 105, 128, 187, 1, 0.332227
179, 2, bw, catch, NA, 999, 999, 4, 3, 99, 156, 90, 105, 128, 187, 3, 0.310125
179, 2, bw, attraction, a-b-da, 2, 1, 4, 4, 60, 135, 135, 60, 134, 59, 2, 0.799262
179, 2, bw, attraction, a-b-da, 2, 1, 4, 4, 60, 135, 135, 60, 134, 59, 3, 0.606304
179, 2, bw, attraction, a-b-da, 14, 3, 4, 5, 120, 195, 181, 111, 195, 120, 1, 0.331363
179, 2, bw, attraction, a-b-da, 14, 3, 4, 5, 120, 195, 181, 111, 195, 120, 3, 0.52539
179, 2, bw, attraction, a-b-db, 5, 2, 4, 6, 165, 90, 90, 165, 88, 161, 1, 0.525709
179, 2, bw, attraction, a-b-db, 5, 2, 4, 6, 165, 90, 90, 165, 88, 161, 2, 0.359525
179, 2, bw, filler, NA, 999, 999, 4, 7, 79, 167, 94, 176, 70, 169, 1, 0.430635
179, 2, bw, filler, NA, 999, 999, 4, 7, 79, 167, 94, 176, 70, 169, 3, 0.364664
179, 2, bw, attraction, a-b-da, 5, 2, 4, 8, 161, 88, 90, 165, 165, 90, 1, 0.66378
179, 2, bw, attraction, a-b-da, 5, 2, 4, 8, 161, 88, 90, 165, 165, 90, 3, 0.656147
179, 2, bw, attraction, a-b-da, 9, 3, 4, 9, 120, 195, 186, 114, 195, 120, 1, 0.315851
179, 2, bw, attraction, a-b-da, 9, 3, 4, 9, 120, 195, 186, 114, 195, 120, 3, 0.542356
179, 2, bw, attraction, a-b-db, 9, 3, 4, 10, 120, 195, 114, 186, 195, 120, 1, 0.382182
179, 2, bw, attraction, a-b-db, 9, 3, 4, 10, 120, 195, 114, 186, 195, 120, 3, 1.06211
179, 2, bw, attraction, a-b-db, 2, 3, 4, 11, 120, 195, 119, 193, 195, 120, 1, 0.800925
179, 2, bw, attraction, a-b-db, 2, 3, 4, 11, 120, 195, 119, 193, 195, 120, 2, 0.312024
179, 2, bw, attraction, a-b-db, 9, 1, 4, 12, 57, 129, 135, 60, 60, 135, 1, 1.03321
179, 2, bw, attraction, a-b-db, 9, 1, 4, 12, 57, 129, 135, 60, 60, 135, 3, 0.412147
179, 2, bw, attraction, a-b-da, 5, 1, 4, 13, 135, 60, 60, 135, 132, 58, 1, 0.332017
179, 2, bw, attraction, a-b-da, 5, 1, 4, 13, 135, 60, 60, 135, 132, 58, 3, 0.557891
179, 2, bw, attraction, a-b-da, 14, 2, 4, 14, 90, 165, 153, 83, 165, 90, 1, 0.32489
179, 2, bw, attraction, a-b-da, 14, 2, 4, 14, 90, 165, 153, 83, 165, 90, 3, 0.422836
179, 2, bw, filler, NA, 999, 999, 4, 15, 138, 61, 167, 98, 174, 183, 1, 0.355272
179, 2, bw, filler, NA, 999, 999, 4, 15, 138, 61, 167, 98, 174, 183, 3, 0.395841
179, 2, bw, filler, NA, 999, 999, 4, 16, 75, 115, 59, 185, 87, 158, 2, 1.60026
179, 2, bw, filler, NA, 999, 999, 4, 16, 75, 115, 59, 185, 87, 158, 3, 0.312551
179, 2, bw, catch, NA, 999, 999, 4, 17, 73, 122, 142, 113, 187, 128, 3, 0.817666
179, 2, bw, catch, NA, 999, 999, 4, 17, 73, 122, 142, 113, 187, 128, 1, 0.528021
179, 2, bw, attraction, a-b-db, 2, 1, 4, 18, 59, 134, 135, 60, 60, 135, 2, 0.952586
179, 2, bw, attraction, a-b-db, 2, 1, 4, 18, 59, 134, 135, 60, 60, 135, 3, 0.545486
179, 2, bw, filler, NA, 999, 999, 4, 19, 121, 104, 192, 161, 101, 166, 2, 0.633297
179, 2, bw, filler, NA, 999, 999, 4, 19, 121, 104, 192, 161, 101, 166, 1, 0.39904
179, 2, bw, attraction, a-b-db, 2, 2, 4, 20, 89, 163, 165, 90, 90, 165, 1, 0.748974
179, 2, bw, attraction, a-b-db, 2, 2, 4, 20, 89, 163, 165, 90, 90, 165, 3, 0.421959
179, 2, bw, catch, NA, 999, 999, 4, 21, 126, 69, 194, 121, 141, 114, 2, 0.651128
179, 2, bw, catch, NA, 999, 999, 4, 21, 126, 69, 194, 121, 141, 114, 1, 0.79217
179, 2, bw, filler, NA, 999, 999, 4, 22, 133, 76, 114, 142, 190, 85, 2, 0.357808
179, 2, bw, filler, NA, 999, 999, 4, 22, 133, 76, 114, 142, 190, 85, 3, 0.286423
179, 2, bw, attraction, a-b-da, 5, 3, 4, 23, 190, 117, 120, 195, 195, 120, 2, 0.425011
179, 2, bw, attraction, a-b-da, 5, 3, 4, 23, 190, 117, 120, 195, 195, 120, 3, 0.3029
179, 2, bw, attraction, a-b-da, 9, 1, 4, 24, 135, 60, 129, 57, 60, 135, 1, 1.02457
179, 2, bw, attraction, a-b-da, 9, 1, 4, 24, 135, 60, 129, 57, 60, 135, 3, 0.454269
179, 2, bw, attraction, a-b-db, 9, 2, 4, 25, 90, 165, 86, 157, 165, 90, 1, 0.35404
179, 2, bw, attraction, a-b-db, 9, 2, 4, 25, 90, 165, 86, 157, 165, 90, 3, 0.674576
179, 2, bw, filler, NA, 999, 999, 4, 26, 194, 184, 76, 127, 108, 177, 1, 0.436991
179, 2, bw, filler, NA, 999, 999, 4, 26, 194, 184, 76, 127, 108, 177, 2, 0.54619
179, 2, bw, attraction, a-b-db, 14, 1, 4, 27, 135, 60, 56, 125, 60, 135, 1, 0.553943
179, 2, bw, attraction, a-b-db, 14, 1, 4, 27, 135, 60, 56, 125, 60, 135, 2, 0.435083
179, 2, bw, filler, NA, 999, 999, 4, 28, 78, 83, 73, 162, 83, 80, 2, 0.6075
179, 2, bw, filler, NA, 999, 999, 4, 28, 78, 83, 73, 162, 83, 80, 3, 0.494024
179, 2, bw, attraction, a-b-db, 5, 3, 4, 29, 195, 120, 120, 195, 117, 190, 1, 0.303734
179, 2, bw, attraction, a-b-db, 5, 3, 4, 29, 195, 120, 120, 195, 117, 190, 2, 0.394468
179, 2, bw, attraction, a-b-db, 14, 2, 4, 30, 90, 165, 165, 90, 83, 153, 2, 0.672082
179, 2, bw, attraction, a-b-db, 14, 2, 4, 30, 90, 165, 165, 90, 83, 153, 3, 0.332031
179, 2, bw, filler, NA, 999, 999, 4, 31, 168, 62, 73, 59, 107, 189, 3, 1.00441
179, 2, bw, filler, NA, 999, 999, 4, 31, 168, 62, 73, 59, 107, 189, 1, 0.450745
179, 2, bw, attraction, a-b-da, 2, 2, 4, 32, 163, 89, 165, 90, 90, 165, 1, 0.806513
179, 2, bw, attraction, a-b-da, 2, 2, 4, 32, 163, 89, 165, 90, 90, 165, 2, 0.548895
179, 2, bw, filler, NA, 999, 999, 4, 33, 184, 85, 86, 82, 174, 180, 3, 0.852626
179, 2, bw, filler, NA, 999, 999, 4, 33, 184, 85, 86, 82, 174, 180, 2, 0.40178
179, 2, bw, attraction, a-b-da, 14, 1, 4, 34, 60, 135, 135, 60, 125, 56, 3, 0.751492
179, 2, bw, attraction, a-b-da, 14, 1, 4, 34, 60, 135, 135, 60, 125, 56, 2, 0.432563
179, 2, bw, attraction, a-b-db, 14, 3, 4, 35, 111, 181, 195, 120, 120, 195, 3, 0.589049
179, 2, bw, attraction, a-b-db, 14, 3, 4, 35, 111, 181, 195, 120, 120, 195, 2, 0.452163
179, 2, bw, attraction, a-b-da, 2, 3, 4, 36, 193, 119, 195, 120, 120, 195, 3, 0.583986
179, 2, bw, attraction, a-b-da, 2, 3, 4, 36, 193, 119, 195, 120, 120, 195, 2, 0.439766
179, 2, bw, attraction, a-b-da, 9, 2, 4, 37, 165, 90, 157, 86, 90, 165, 1, 0.491679
179, 2, bw, attraction, a-b-da, 9, 2, 4, 37, 165, 90, 157, 86, 90, 165, 2, 0.582766
179, 2, bw, catch, NA, 999, 999, 5, 1, 94, 101, 122, 133, 184, 131, 3, 1.6118
179, 2, bw, catch, NA, 999, 999, 5, 1, 94, 101, 122, 133, 184, 131, 1, 0.361887
179, 2, bw, catch, NA, 999, 999, 5, 2, 164, 91, 140, 175, 114, 81, 2, 0.553125
179, 2, bw, catch, NA, 999, 999, 5, 2, 164, 91, 140, 175, 114, 81, 3, 0.306219
179, 2, bw, attraction, a-b-db, 2, 1, 5, 3, 59, 134, 60, 135, 135, 60, 1, 0.670642
179, 2, bw, attraction, a-b-db, 2, 1, 5, 3, 59, 134, 60, 135, 135, 60, 3, 0.735209
179, 2, bw, attraction, a-b-da, 2, 3, 5, 4, 193, 119, 120, 195, 195, 120, 2, 0.839554
179, 2, bw, attraction, a-b-da, 2, 3, 5, 4, 193, 119, 120, 195, 195, 120, 3, 0.292718
179, 2, bw, attraction, a-b-db, 5, 2, 5, 5, 165, 90, 90, 165, 88, 161, 2, 0.854518
179, 2, bw, attraction, a-b-db, 5, 2, 5, 5, 165, 90, 90, 165, 88, 161, 3, 0.282913
179, 2, bw, filler, NA, 999, 999, 5, 6, 83, 189, 76, 123, 135, 149, 3, 0.957451
179, 2, bw, filler, NA, 999, 999, 5, 6, 83, 189, 76, 123, 135, 149, 2, 0.381727
179, 2, bw, attraction, a-b-db, 2, 3, 5, 7, 195, 120, 120, 195, 119, 193, 1, 0.58821
179, 2, bw, attraction, a-b-db, 2, 3, 5, 7, 195, 120, 120, 195, 119, 193, 2, 0.32332
179, 2, bw, attraction, a-b-da, 5, 2, 5, 8, 90, 165, 165, 90, 161, 88, 2, 0.683776
179, 2, bw, attraction, a-b-da, 5, 2, 5, 8, 90, 165, 165, 90, 161, 88, 3, 0.327558
179, 2, bw, catch, NA, 999, 999, 5, 9, 93, 162, 135, 180, 105, 90, 2, 0.663991
179, 2, bw, catch, NA, 999, 999, 5, 9, 93, 162, 135, 180, 105, 90, 1, 0.380426
179, 2, bw, attraction, a-b-db, 9, 3, 5, 10, 195, 120, 120, 195, 114, 186, 2, 0.498923
179, 2, bw, attraction, a-b-db, 9, 3, 5, 10, 195, 120, 120, 195, 114, 186, 3, 0.286177
179, 2, bw, attraction, a-b-db, 9, 1, 5, 11, 135, 60, 60, 135, 57, 129, 2, 0.536645
179, 2, bw, attraction, a-b-db, 9, 1, 5, 11, 135, 60, 60, 135, 57, 129, 3, 0.322508
179, 2, bw, attraction, a-b-db, 2, 2, 5, 12, 90, 165, 89, 163, 165, 90, 2, 0.571685
179, 2, bw, attraction, a-b-db, 2, 2, 5, 12, 90, 165, 89, 163, 165, 90, 3, 0.507504
179, 2, bw, attraction, a-b-da, 9, 1, 5, 13, 60, 135, 135, 60, 129, 57, 2, 0.556532
179, 2, bw, attraction, a-b-da, 9, 1, 5, 13, 60, 135, 135, 60, 129, 57, 3, 0.557009
179, 2, bw, attraction, a-b-da, 9, 3, 5, 14, 120, 195, 186, 114, 195, 120, 2, 0.764138
179, 2, bw, attraction, a-b-da, 9, 3, 5, 14, 120, 195, 186, 114, 195, 120, 3, 0.796686
179, 2, bw, attraction, a-b-db, 14, 3, 5, 15, 195, 120, 111, 181, 120, 195, 2, 0.418139
179, 2, bw, attraction, a-b-db, 14, 3, 5, 15, 195, 120, 111, 181, 120, 195, 3, 0.360744
179, 2, bw, attraction, a-b-da, 5, 3, 5, 16, 190, 117, 195, 120, 120, 195, 2, 0.567821
179, 2, bw, attraction, a-b-da, 5, 3, 5, 16, 190, 117, 195, 120, 120, 195, 3, 0.392309
179, 2, bw, filler, NA, 999, 999, 5, 17, 149, 119, 126, 152, 107, 187, 3, 0.902159
179, 2, bw, filler, NA, 999, 999, 5, 17, 149, 119, 126, 152, 107, 187, 2, 0.305139
179, 2, bw, attraction, a-b-db, 9, 2, 5, 18, 86, 157, 90, 165, 165, 90, 2, 0.515007
179, 2, bw, attraction, a-b-db, 9, 2, 5, 18, 86, 157, 90, 165, 165, 90, 3, 0.397501
179, 2, bw, attraction, a-b-db, 5, 3, 5, 19, 120, 195, 117, 190, 195, 120, 3, 0.819245
179, 2, bw, attraction, a-b-db, 5, 3, 5, 19, 120, 195, 117, 190, 195, 120, 2, 0.289702
179, 2, bw, attraction, a-b-da, 5, 1, 5, 20, 60, 135, 135, 60, 132, 58, 2, 0.803628
179, 2, bw, attraction, a-b-da, 5, 1, 5, 20, 60, 135, 135, 60, 132, 58, 3, 0.738669
179, 2, bw, attraction, a-b-da, 14, 2, 5, 21, 153, 83, 165, 90, 90, 165, 2, 0.507029
179, 2, bw, attraction, a-b-da, 14, 2, 5, 21, 153, 83, 165, 90, 90, 165, 3, 0.341649
179, 2, bw, filler, NA, 999, 999, 5, 22, 78, 57, 190, 139, 88, 102, 2, 0.397302
179, 2, bw, filler, NA, 999, 999, 5, 22, 78, 57, 190, 139, 88, 102, 3, 0.340425
179, 2, bw, filler, NA, 999, 999, 5, 23, 149, 170, 159, 147, 136, 121, 2, 0.46035
179, 2, bw, filler, NA, 999, 999, 5, 23, 149, 170, 159, 147, 136, 121, 3, 0.640972
179, 2, bw, filler, NA, 999, 999, 5, 24, 147, 60, 139, 120, 171, 117, 3, 1.34185
179, 2, bw, filler, NA, 999, 999, 5, 24, 147, 60, 139, 120, 171, 117, 2, 0.477429
179, 2, bw, filler, NA, 999, 999, 5, 25, 163, 179, 82, 177, 190, 128, 1, 1.96794
179, 2, bw, filler, NA, 999, 999, 5, 25, 163, 179, 82, 177, 190, 128, 2, 0.407921
179, 2, bw, attraction, a-b-da, 14, 1, 5, 26, 125, 56, 135, 60, 60, 135, 3, 1.30103
179, 2, bw, attraction, a-b-da, 14, 1, 5, 26, 125, 56, 135, 60, 60, 135, 2, 0.487964
179, 2, bw, attraction, a-b-db, 14, 1, 5, 27, 60, 135, 135, 60, 56, 125, 2, 0.770403
179, 2, bw, attraction, a-b-db, 14, 1, 5, 27, 60, 135, 135, 60, 56, 125, 3, 0.514837
179, 2, bw, filler, NA, 999, 999, 5, 28, 96, 170, 183, 186, 72, 124, 2, 1.65998
179, 2, bw, filler, NA, 999, 999, 5, 28, 96, 170, 183, 186, 72, 124, 3, 0.44024
179, 2, bw, attraction, a-b-da, 2, 1, 5, 29, 134, 59, 135, 60, 60, 135, 2, 0.675974
179, 2, bw, attraction, a-b-da, 2, 1, 5, 29, 134, 59, 135, 60, 60, 135, 3, 0.455752
179, 2, bw, filler, NA, 999, 999, 5, 30, 101, 70, 90, 138, 181, 170, 3, 0.579395
179, 2, bw, filler, NA, 999, 999, 5, 30, 101, 70, 90, 138, 181, 170, 1, 0.915251
179, 2, bw, attraction, a-b-da, 2, 2, 5, 31, 163, 89, 165, 90, 90, 165, 3, 0.556207
179, 2, bw, attraction, a-b-da, 2, 2, 5, 31, 163, 89, 165, 90, 90, 165, 2, 0.340605
179, 2, bw, attraction, a-b-db, 5, 1, 5, 32, 135, 60, 60, 135, 58, 132, 1, 1.50658
179, 2, bw, attraction, a-b-db, 5, 1, 5, 32, 135, 60, 60, 135, 58, 132, 3, 0.558688
179, 2, bw, attraction, a-b-db, 14, 2, 5, 33, 90, 165, 165, 90, 83, 153, 1, 0.50177
179, 2, bw, attraction, a-b-db, 14, 2, 5, 33, 90, 165, 165, 90, 83, 153, 3, 0.409028
179, 2, bw, filler, NA, 999, 999, 5, 34, 157, 110, 116, 56, 177, 171, 3, 0.61404
179, 2, bw, filler, NA, 999, 999, 5, 34, 157, 110, 116, 56, 177, 171, 2, 0.588575
179, 2, bw, attraction, a-b-da, 9, 2, 5, 35, 165, 90, 90, 165, 157, 86, 1, 0.554941
179, 2, bw, attraction, a-b-da, 9, 2, 5, 35, 165, 90, 90, 165, 157, 86, 3, 0.403429
179, 2, bw, filler, NA, 999, 999, 5, 36, 192, 156, 74, 161, 68, 62, 1, 0.417247
179, 2, bw, filler, NA, 999, 999, 5, 36, 192, 156, 74, 161, 68, 62, 3, 0.463785
179, 2, bw, attraction, a-b-da, 14, 3, 5, 37, 195, 120, 181, 111, 120, 195, 1, 0.434827
179, 2, bw, attraction, a-b-da, 14, 3, 5, 37, 195, 120, 181, 111, 120, 195, 3, 0.352731
179, 2, bw, attraction, a-b-da, 5, 1, 6, 1, 135, 60, 132, 58, 60, 135, 1, 0.480507
179, 2, bw, attraction, a-b-da, 5, 1, 6, 1, 135, 60, 132, 58, 60, 135, 2, 0.452348
179, 2, bw, filler, NA, 999, 999, 6, 2, 131, 95, 188, 150, 127, 107, 2, 0.696171
179, 2, bw, filler, NA, 999, 999, 6, 2, 131, 95, 188, 150, 127, 107, 3, 0.43526
179, 2, bw, catch, NA, 999, 999, 6, 3, 186, 129, 94, 161, 102, 93, 1, 0.4957
179, 2, bw, catch, NA, 999, 999, 6, 3, 186, 129, 94, 161, 102, 93, 3, 0.514883
179, 2, bw, attraction, a-b-da, 9, 3, 6, 4, 186, 114, 195, 120, 120, 195, 1, 0.459991
179, 2, bw, attraction, a-b-da, 9, 3, 6, 4, 186, 114, 195, 120, 120, 195, 3, 0.360493
179, 2, bw, filler, NA, 999, 999, 6, 5, 96, 119, 168, 147, 88, 181, 2, 0.751646
179, 2, bw, filler, NA, 999, 999, 6, 5, 96, 119, 168, 147, 88, 181, 1, 0.416673
179, 2, bw, attraction, a-b-db, 14, 3, 6, 6, 120, 195, 111, 181, 195, 120, 3, 0.549958
179, 2, bw, attraction, a-b-db, 14, 3, 6, 6, 120, 195, 111, 181, 195, 120, 2, 0.358969
179, 2, bw, filler, NA, 999, 999, 6, 7, 183, 83, 121, 119, 195, 100, 1, 0.566185
179, 2, bw, filler, NA, 999, 999, 6, 7, 183, 83, 121, 119, 195, 100, 3, 0.486622
179, 2, bw, attraction, a-b-db, 9, 2, 6, 8, 86, 157, 90, 165, 165, 90, 2, 0.513051
179, 2, bw, attraction, a-b-db, 9, 2, 6, 8, 86, 157, 90, 165, 165, 90, 3, 0.515565
179, 2, bw, attraction, a-b-db, 2, 2, 6, 9, 89, 163, 165, 90, 90, 165, 1, 0.620594
179, 2, bw, attraction, a-b-db, 2, 2, 6, 9, 89, 163, 165, 90, 90, 165, 3, 0.618485
179, 2, bw, attraction, a-b-da, 2, 2, 6, 10, 163, 89, 90, 165, 165, 90, 1, 1.05556
179, 2, bw, attraction, a-b-da, 2, 2, 6, 10, 163, 89, 90, 165, 165, 90, 3, 0.9207
179, 2, bw, attraction, a-b-db, 2, 3, 6, 11, 195, 120, 120, 195, 119, 193, 1, 0.564913
179, 2, bw, attraction, a-b-db, 2, 3, 6, 11, 195, 120, 120, 195, 119, 193, 3, 0.55767
179, 2, bw, filler, NA, 999, 999, 6, 12, 189, 86, 116, 115, 163, 153, 3, 0.708369
179, 2, bw, filler, NA, 999, 999, 6, 12, 189, 86, 116, 115, 163, 153, 1, 0.462986
179, 2, bw, attraction, a-b-da, 14, 1, 6, 13, 60, 135, 135, 60, 125, 56, 2, 0.569888
179, 2, bw, attraction, a-b-da, 14, 1, 6, 13, 60, 135, 135, 60, 125, 56, 3, 0.49035
179, 2, bw, attraction, a-b-da, 14, 2, 6, 14, 153, 83, 165, 90, 90, 165, 2, 0.452167
179, 2, bw, attraction, a-b-da, 14, 2, 6, 14, 153, 83, 165, 90, 90, 165, 3, 0.313353
179, 2, bw, attraction, a-b-db, 14, 1, 6, 15, 60, 135, 135, 60, 56, 125, 2, 0.682684
179, 2, bw, attraction, a-b-db, 14, 1, 6, 15, 60, 135, 135, 60, 56, 125, 3, 0.598288
179, 2, bw, attraction, a-b-db, 9, 3, 6, 16, 195, 120, 120, 195, 114, 186, 1, 0.692147
179, 2, bw, attraction, a-b-db, 9, 3, 6, 16, 195, 120, 120, 195, 114, 186, 3, 0.3592
179, 2, bw, filler, NA, 999, 999, 6, 17, 192, 89, 95, 153, 146, 142, 3, 0.822359
179, 2, bw, filler, NA, 999, 999, 6, 17, 192, 89, 95, 153, 146, 142, 2, 0.492031
179, 2, bw, attraction, a-b-da, 2, 3, 6, 18, 193, 119, 120, 195, 195, 120, 1, 0.557865
179, 2, bw, attraction, a-b-da, 2, 3, 6, 18, 193, 119, 120, 195, 195, 120, 3, 0.686255
179, 2, bw, filler, NA, 999, 999, 6, 19, 99, 76, 156, 58, 108, 165, 3, 0.68065
179, 2, bw, filler, NA, 999, 999, 6, 19, 99, 76, 156, 58, 108, 165, 2, 0.588411
179, 2, bw, attraction, a-b-da, 9, 2, 6, 20, 90, 165, 157, 86, 165, 90, 1, 0.546777
179, 2, bw, attraction, a-b-da, 9, 2, 6, 20, 90, 165, 157, 86, 165, 90, 3, 0.356004
179, 2, bw, attraction, a-b-da, 5, 3, 6, 21, 190, 117, 120, 195, 195, 120, 3, 0.499119
179, 2, bw, attraction, a-b-da, 5, 3, 6, 21, 190, 117, 120, 195, 195, 120, 2, 0.382296
179, 2, bw, attraction, a-b-da, 5, 2, 6, 22, 90, 165, 161, 88, 165, 90, 1, 0.524821
179, 2, bw, attraction, a-b-da, 5, 2, 6, 22, 90, 165, 161, 88, 165, 90, 3, 0.390695
179, 2, bw, filler, NA, 999, 999, 6, 23, 119, 75, 74, 81, 119, 134, 3, 0.508473
179, 2, bw, filler, NA, 999, 999, 6, 23, 119, 75, 74, 81, 119, 134, 2, 0.342912
179, 2, bw, filler, NA, 999, 999, 6, 24, 88, 154, 103, 120, 151, 108, 1, 0.446815
179, 2, bw, filler, NA, 999, 999, 6, 24, 88, 154, 103, 120, 151, 108, 3, 0.323921
179, 2, bw, attraction, a-b-db, 5, 2, 6, 25, 88, 161, 90, 165, 165, 90, 1, 3.42044
179, 2, bw, attraction, a-b-db, 5, 2, 6, 25, 88, 161, 90, 165, 165, 90, 3, 0.449972
179, 2, bw, attraction, a-b-da, 9, 1, 6, 26, 129, 57, 60, 135, 135, 60, 1, 0.4857
179, 2, bw, attraction, a-b-da, 9, 1, 6, 26, 129, 57, 60, 135, 135, 60, 3, 1.00966
179, 2, bw, attraction, a-b-da, 14, 3, 6, 27, 195, 120, 181, 111, 120, 195, 1, 0.558615
179, 2, bw, attraction, a-b-da, 14, 3, 6, 27, 195, 120, 181, 111, 120, 195, 3, 0.535028
179, 2, bw, attraction, a-b-db, 5, 3, 6, 28, 117, 190, 195, 120, 120, 195, 1, 0.495427
179, 2, bw, attraction, a-b-db, 5, 3, 6, 28, 117, 190, 195, 120, 120, 195, 3, 0.394584
179, 2, bw, attraction, a-b-da, 2, 1, 6, 29, 135, 60, 60, 135, 134, 59, 1, 0.680371
179, 2, bw, attraction, a-b-da, 2, 1, 6, 29, 135, 60, 60, 135, 134, 59, 3, 0.548218
179, 2, bw, attraction, a-b-db, 14, 2, 6, 30, 83, 153, 90, 165, 165, 90, 1, 0.380028
179, 2, bw, attraction, a-b-db, 14, 2, 6, 30, 83, 153, 90, 165, 165, 90, 3, 0.627816
179, 2, bw, filler, NA, 999, 999, 6, 31, 175, 146, 169, 106, 172, 188, 1, 0.27225
179, 2, bw, filler, NA, 999, 999, 6, 31, 175, 146, 169, 106, 172, 188, 3, 0.468071
179, 2, bw, filler, NA, 999, 999, 6, 32, 182, 140, 89, 84, 100, 90, 1, 0.479208
179, 2, bw, filler, NA, 999, 999, 6, 32, 182, 140, 89, 84, 100, 90, 2, 0.411061
179, 2, bw, attraction, a-b-db, 9, 1, 6, 33, 60, 135, 135, 60, 57, 129, 1, 0.496366
179, 2, bw, attraction, a-b-db, 9, 1, 6, 33, 60, 135, 135, 60, 57, 129, 3, 0.387363
179, 2, bw, catch, NA, 999, 999, 6, 34, 122, 73, 134, 121, 182, 133, 3, 0.609853
179, 2, bw, catch, NA, 999, 999, 6, 34, 122, 73, 134, 121, 182, 133, 1, 0.528337
179, 2, bw, attraction, a-b-db, 5, 1, 6, 35, 135, 60, 60, 135, 58, 132, 3, 0.632777
179, 2, bw, attraction, a-b-db, 5, 1, 6, 35, 135, 60, 60, 135, 58, 132, 1, 0.45454
179, 2, bw, catch, NA, 999, 999, 6, 36, 112, 143, 108, 87, 124, 191, 3, 0.74629
179, 2, bw, catch, NA, 999, 999, 6, 36, 112, 143, 108, 87, 124, 191, 2, 0.787585
179, 2, bw, attraction, a-b-db, 2, 1, 6, 37, 59, 134, 60, 135, 135, 60, 3, 0.641803
179, 2, bw, attraction, a-b-db, 2, 1, 6, 37, 59, 134, 60, 135, 135, 60, 2, 0.358791
179, 2, bw, attraction, a-b-da, 9, 3, 7, 1, 120, 195, 186, 114, 195, 120, 3, 0.710023
179, 2, bw, attraction, a-b-da, 9, 3, 7, 1, 120, 195, 186, 114, 195, 120, 2, 0.28842
179, 2, bw, attraction, a-b-da, 14, 3, 7, 2, 120, 195, 195, 120, 181, 111, 3, 0.498976
179, 2, bw, attraction, a-b-da, 14, 3, 7, 2, 120, 195, 195, 120, 181, 111, 2, 0.302249
179, 2, bw, attraction, a-b-db, 14, 1, 7, 3, 60, 135, 56, 125, 135, 60, 3, 0.543974
179, 2, bw, attraction, a-b-db, 14, 1, 7, 3, 60, 135, 56, 125, 135, 60, 2, 0.441115
179, 2, bw, filler, NA, 999, 999, 7, 4, 130, 75, 141, 64, 107, 59, 1, 0.788893
179, 2, bw, filler, NA, 999, 999, 7, 4, 130, 75, 141, 64, 107, 59, 2, 0.379965
179, 2, bw, filler, NA, 999, 999, 7, 5, 58, 79, 166, 107, 126, 127, 2, 1.29852
179, 2, bw, filler, NA, 999, 999, 7, 5, 58, 79, 166, 107, 126, 127, 1, 0.621331
179, 2, bw, filler, NA, 999, 999, 7, 6, 180, 97, 104, 129, 135, 175, 3, 1.25037
179, 2, bw, filler, NA, 999, 999, 7, 6, 180, 97, 104, 129, 135, 175, 1, 0.631485
179, 2, bw, attraction, a-b-da, 2, 3, 7, 7, 193, 119, 120, 195, 195, 120, 2, 1.36372
179, 2, bw, attraction, a-b-da, 2, 3, 7, 7, 193, 119, 120, 195, 195, 120, 3, 0.371996
179, 2, bw, attraction, a-b-db, 2, 3, 7, 8, 195, 120, 119, 193, 120, 195, 1, 0.987064
179, 2, bw, attraction, a-b-db, 2, 3, 7, 8, 195, 120, 119, 193, 120, 195, 3, 0.562773
179, 2, bw, filler, NA, 999, 999, 7, 9, 94, 100, 125, 81, 180, 83, 3, 0.713872
179, 2, bw, filler, NA, 999, 999, 7, 9, 94, 100, 125, 81, 180, 83, 2, 0.884294
179, 2, bw, attraction, a-b-da, 5, 1, 7, 10, 132, 58, 60, 135, 135, 60, 1, 0.598657
179, 2, bw, attraction, a-b-da, 5, 1, 7, 10, 132, 58, 60, 135, 135, 60, 2, 0.725751
179, 2, bw, attraction, a-b-db, 5, 3, 7, 11, 120, 195, 195, 120, 117, 190, 1, 0.518171
179, 2, bw, attraction, a-b-db, 5, 3, 7, 11, 120, 195, 195, 120, 117, 190, 3, 0.448628
179, 2, bw, attraction, a-b-db, 2, 1, 7, 12, 135, 60, 59, 134, 60, 135, 1, 1.13244
179, 2, bw, attraction, a-b-db, 2, 1, 7, 12, 135, 60, 59, 134, 60, 135, 3, 0.44609
179, 2, bw, attraction, a-b-da, 2, 1, 7, 13, 134, 59, 60, 135, 135, 60, 1, 0.497812
179, 2, bw, attraction, a-b-da, 2, 1, 7, 13, 134, 59, 60, 135, 135, 60, 3, 0.372961
179, 2, bw, filler, NA, 999, 999, 7, 14, 168, 123, 72, 125, 162, 172, 3, 0.739462
179, 2, bw, filler, NA, 999, 999, 7, 14, 168, 123, 72, 125, 162, 172, 1, 0.556637
179, 2, bw, attraction, a-b-da, 5, 3, 7, 15, 195, 120, 190, 117, 120, 195, 3, 0.571628
179, 2, bw, attraction, a-b-da, 5, 3, 7, 15, 195, 120, 190, 117, 120, 195, 2, 0.307416
179, 2, bw, catch, NA, 999, 999, 7, 16, 173, 142, 126, 69, 92, 163, 1, 0.796602
179, 2, bw, catch, NA, 999, 999, 7, 16, 173, 142, 126, 69, 92, 163, 2, 0.603652
179, 2, bw, attraction, a-b-da, 9, 1, 7, 17, 129, 57, 135, 60, 60, 135, 1, 1.07341
179, 2, bw, attraction, a-b-da, 9, 1, 7, 17, 129, 57, 135, 60, 60, 135, 2, 0.75708
179, 2, bw, attraction, a-b-db, 5, 2, 7, 18, 90, 165, 88, 161, 165, 90, 1, 0.460275
179, 2, bw, attraction, a-b-db, 5, 2, 7, 18, 90, 165, 88, 161, 165, 90, 3, 0.328706
179, 2, bw, filler, NA, 999, 999, 7, 19, 82, 130, 83, 158, 181, 132, 3, 1.1532
179, 2, bw, filler, NA, 999, 999, 7, 19, 82, 130, 83, 158, 181, 132, 1, 0.546161
179, 2, bw, attraction, a-b-da, 5, 2, 7, 20, 161, 88, 90, 165, 165, 90, 1, 0.897908
179, 2, bw, attraction, a-b-da, 5, 2, 7, 20, 161, 88, 90, 165, 165, 90, 3, 0.652907
179, 2, bw, filler, NA, 999, 999, 7, 21, 138, 140, 93, 57, 89, 178, 1, 0.384592
179, 2, bw, filler, NA, 999, 999, 7, 21, 138, 140, 93, 57, 89, 178, 2, 0.608497
179, 2, bw, filler, NA, 999, 999, 7, 22, 167, 191, 85, 143, 194, 182, 3, 0.789657
179, 2, bw, filler, NA, 999, 999, 7, 22, 167, 191, 85, 143, 194, 182, 1, 0.41256
179, 2, bw, attraction, a-b-da, 2, 2, 7, 23, 163, 89, 165, 90, 90, 165, 3, 0.585767
179, 2, bw, attraction, a-b-da, 2, 2, 7, 23, 163, 89, 165, 90, 90, 165, 2, 0.273724
179, 2, bw, catch, NA, 999, 999, 7, 24, 93, 102, 127, 128, 159, 156, 3, 0.588134
179, 2, bw, catch, NA, 999, 999, 7, 24, 93, 102, 127, 128, 159, 156, 1, 0.387205
179, 2, bw, attraction, a-b-db, 9, 2, 7, 25, 86, 157, 90, 165, 165, 90, 3, 0.54564
179, 2, bw, attraction, a-b-db, 9, 2, 7, 25, 86, 157, 90, 165, 165, 90, 2, 0.410793
179, 2, bw, attraction, a-b-db, 2, 2, 7, 26, 165, 90, 90, 165, 89, 163, 1, 0.535918
179, 2, bw, attraction, a-b-db, 2, 2, 7, 26, 165, 90, 90, 165, 89, 163, 2, 0.377727
179, 2, bw, filler, NA, 999, 999, 7, 27, 194, 159, 145, 101, 73, 162, 1, 0.416248
179, 2, bw, filler, NA, 999, 999, 7, 27, 194, 159, 145, 101, 73, 162, 2, 0.742817
179, 2, bw, attraction, a-b-db, 9, 1, 7, 28, 60, 135, 135, 60, 57, 129, 1, 0.58249
179, 2, bw, attraction, a-b-db, 9, 1, 7, 28, 60, 135, 135, 60, 57, 129, 3, 0.350226
179, 2, bw, attraction, a-b-db, 14, 3, 7, 29, 111, 181, 195, 120, 120, 195, 1, 0.420003
179, 2, bw, attraction, a-b-db, 14, 3, 7, 29, 111, 181, 195, 120, 120, 195, 3, 0.484057
179, 2, bw, filler, NA, 999, 999, 7, 30, 173, 76, 180, 79, 75, 188, 1, 0.446394
179, 2, bw, filler, NA, 999, 999, 7, 30, 173, 76, 180, 79, 75, 188, 2, 0.547581
179, 2, bw, attraction, a-b-db, 9, 3, 7, 31, 195, 120, 120, 195, 114, 186, 1, 1.00337
179, 2, bw, attraction, a-b-db, 9, 3, 7, 31, 195, 120, 120, 195, 114, 186, 3, 0.346383
179, 2, bw, attraction, a-b-db, 5, 1, 7, 32, 135, 60, 60, 135, 58, 132, 1, 0.826119
179, 2, bw, attraction, a-b-db, 5, 1, 7, 32, 135, 60, 60, 135, 58, 132, 2, 0.367901
179, 2, bw, attraction, a-b-da, 9, 2, 7, 33, 165, 90, 90, 165, 157, 86, 1, 0.447032
179, 2, bw, attraction, a-b-da, 9, 2, 7, 33, 165, 90, 90, 165, 157, 86, 3, 0.484282
179, 2, bw, attraction, a-b-da, 14, 2, 7, 34, 153, 83, 90, 165, 165, 90, 1, 0.294577
179, 2, bw, attraction, a-b-da, 14, 2, 7, 34, 153, 83, 90, 165, 165, 90, 3, 0.393866
179, 2, bw, attraction, a-b-da, 14, 1, 7, 35, 135, 60, 125, 56, 60, 135, 1, 1.46366
179, 2, bw, attraction, a-b-da, 14, 1, 7, 35, 135, 60, 125, 56, 60, 135, 3, 0.355876
179, 2, bw, attraction, a-b-db, 14, 2, 7, 36, 165, 90, 83, 153, 90, 165, 1, 0.395732
179, 2, bw, attraction, a-b-db, 14, 2, 7, 36, 165, 90, 83, 153, 90, 165, 3, 0.298813
179, 2, bw, catch, NA, 999, 999, 7, 37, 98, 157, 124, 191, 127, 68, 1, 0.332869
179, 2, bw, catch, NA, 999, 999, 7, 37, 98, 157, 124, 191, 127, 68, 2, 0.398635
179, 2, bw, attraction, a-b-da, 9, 2, 8, 1, 90, 165, 165, 90, 157, 86, 1, 0.484396
179, 2, bw, attraction, a-b-da, 9, 2, 8, 1, 90, 165, 165, 90, 157, 86, 3, 0.440975
179, 2, bw, attraction, a-b-da, 14, 1, 8, 2, 60, 135, 135, 60, 125, 56, 1, 0.276107
179, 2, bw, attraction, a-b-da, 14, 1, 8, 2, 60, 135, 135, 60, 125, 56, 2, 0.655984
179, 2, bw, attraction, a-b-da, 14, 3, 8, 3, 181, 111, 195, 120, 120, 195, 1, 0.746991
179, 2, bw, attraction, a-b-da, 14, 3, 8, 3, 181, 111, 195, 120, 120, 195, 3, 0.404046
179, 2, bw, attraction, a-b-db, 5, 3, 8, 4, 120, 195, 117, 190, 195, 120, 1, 0.585922
179, 2, bw, attraction, a-b-db, 5, 3, 8, 4, 120, 195, 117, 190, 195, 120, 3, 1.10576
179, 2, bw, attraction, a-b-db, 2, 1, 8, 5, 59, 134, 135, 60, 60, 135, 1, 0.299225
179, 2, bw, attraction, a-b-db, 2, 1, 8, 5, 59, 134, 135, 60, 60, 135, 3, 0.358555
179, 2, bw, attraction, a-b-da, 2, 1, 8, 6, 134, 59, 60, 135, 135, 60, 1, 0.389646
179, 2, bw, attraction, a-b-da, 2, 1, 8, 6, 134, 59, 60, 135, 135, 60, 3, 0.364879
179, 2, bw, attraction, a-b-db, 2, 3, 8, 7, 195, 120, 119, 193, 120, 195, 1, 0.284035
179, 2, bw, attraction, a-b-db, 2, 3, 8, 7, 195, 120, 119, 193, 120, 195, 3, 0.311842
179, 2, bw, attraction, a-b-db, 14, 1, 8, 8, 135, 60, 56, 125, 60, 135, 1, 0.488979
179, 2, bw, attraction, a-b-db, 14, 1, 8, 8, 135, 60, 56, 125, 60, 135, 3, 0.492222
179, 2, bw, attraction, a-b-da, 2, 3, 8, 9, 120, 195, 195, 120, 193, 119, 1, 0.438097
179, 2, bw, attraction, a-b-da, 2, 3, 8, 9, 120, 195, 195, 120, 193, 119, 2, 0.267175
179, 2, bw, filler, NA, 999, 999, 8, 10, 141, 138, 111, 184, 155, 58, 1, 0.454332
179, 2, bw, filler, NA, 999, 999, 8, 10, 141, 138, 111, 184, 155, 58, 2, 0.274888
179, 2, bw, filler, NA, 999, 999, 8, 11, 72, 136, 103, 129, 105, 178, 1, 0.44539
179, 2, bw, filler, NA, 999, 999, 8, 11, 72, 136, 103, 129, 105, 178, 3, 0.274491
179, 2, bw, filler, NA, 999, 999, 8, 12, 79, 123, 89, 58, 71, 140, 1, 0.404991
179, 2, bw, filler, NA, 999, 999, 8, 12, 79, 123, 89, 58, 71, 140, 3, 0.603623
179, 2, bw, attraction, a-b-da, 5, 2, 8, 13, 90, 165, 161, 88, 165, 90, 1, 0.329331
179, 2, bw, attraction, a-b-da, 5, 2, 8, 13, 90, 165, 161, 88, 165, 90, 2, 0.307127
179, 2, bw, attraction, a-b-da, 9, 3, 8, 14, 120, 195, 186, 114, 195, 120, 1, 0.436425
179, 2, bw, attraction, a-b-da, 9, 3, 8, 14, 120, 195, 186, 114, 195, 120, 3, 0.290275
179, 2, bw, attraction, a-b-db, 9, 2, 8, 15, 165, 90, 90, 165, 86, 157, 1, 0.53199
179, 2, bw, attraction, a-b-db, 9, 2, 8, 15, 165, 90, 90, 165, 86, 157, 2, 0.253916
179, 2, bw, attraction, a-b-db, 9, 1, 8, 16, 60, 135, 57, 129, 135, 60, 1, 0.481687
179, 2, bw, attraction, a-b-db, 9, 1, 8, 16, 60, 135, 57, 129, 135, 60, 2, 0.52556
179, 2, bw, filler, NA, 999, 999, 8, 17, 185, 190, 84, 175, 153, 92, 1, 0.773935
179, 2, bw, filler, NA, 999, 999, 8, 17, 185, 190, 84, 175, 153, 92, 2, 0.325721
179, 2, bw, filler, NA, 999, 999, 8, 18, 191, 104, 153, 120, 188, 58, 1, 0.27019
179, 2, bw, filler, NA, 999, 999, 8, 18, 191, 104, 153, 120, 188, 58, 2, 0.794816
179, 2, bw, attraction, a-b-db, 5, 1, 8, 19, 58, 132, 135, 60, 60, 135, 1, 0.424426
179, 2, bw, attraction, a-b-db, 5, 1, 8, 19, 58, 132, 135, 60, 60, 135, 3, 0.342248
179, 2, bw, filler, NA, 999, 999, 8, 20, 66, 143, 170, 181, 100, 87, 2, 1.15825
179, 2, bw, filler, NA, 999, 999, 8, 20, 66, 143, 170, 181, 100, 87, 3, 0.590479
179, 2, bw, attraction, a-b-da, 2, 2, 8, 21, 165, 90, 163, 89, 90, 165, 2, 0.500169
179, 2, bw, attraction, a-b-da, 2, 2, 8, 21, 165, 90, 163, 89, 90, 165, 3, 0.311343
179, 2, bw, attraction, a-b-db, 14, 3, 8, 22, 111, 181, 120, 195, 195, 120, 3, 1.0098
179, 2, bw, attraction, a-b-db, 14, 3, 8, 22, 111, 181, 120, 195, 195, 120, 2, 0.262791
179, 2, bw, attraction, a-b-db, 5, 2, 8, 23, 90, 165, 165, 90, 88, 161, 1, 1.40203
179, 2, bw, attraction, a-b-db, 5, 2, 8, 23, 90, 165, 165, 90, 88, 161, 2, 0.424871
179, 2, bw, catch, NA, 999, 999, 8, 24, 124, 191, 112, 143, 100, 95, 1, 0.485483
179, 2, bw, catch, NA, 999, 999, 8, 24, 124, 191, 112, 143, 100, 95, 2, 0.265124
179, 2, bw, attraction, a-b-db, 9, 3, 8, 25, 120, 195, 195, 120, 114, 186, 1, 0.388344
179, 2, bw, attraction, a-b-db, 9, 3, 8, 25, 120, 195, 195, 120, 114, 186, 2, 0.299528
179, 2, bw, attraction, a-b-da, 5, 3, 8, 26, 190, 117, 195, 120, 120, 195, 1, 1.04117
179, 2, bw, attraction, a-b-da, 5, 3, 8, 26, 190, 117, 195, 120, 120, 195, 2, 0.290473
179, 2, bw, attraction, a-b-db, 2, 2, 8, 27, 89, 163, 165, 90, 90, 165, 2, 0.860229
179, 2, bw, attraction, a-b-db, 2, 2, 8, 27, 89, 163, 165, 90, 90, 165, 1, 0.512676
179, 2, bw, catch, NA, 999, 999, 8, 28, 124, 131, 159, 156, 114, 81, 2, 1.22574
179, 2, bw, catch, NA, 999, 999, 8, 28, 124, 131, 159, 156, 114, 81, 1, 0.407412
179, 2, bw, attraction, a-b-da, 5, 1, 8, 29, 135, 60, 60, 135, 132, 58, 2, 0.796511
179, 2, bw, attraction, a-b-da, 5, 1, 8, 29, 135, 60, 60, 135, 132, 58, 3, 0.523481
179, 2, bw, attraction, a-b-da, 14, 2, 8, 30, 90, 165, 165, 90, 153, 83, 1, 0.763951
179, 2, bw, attraction, a-b-da, 14, 2, 8, 30, 90, 165, 165, 90, 153, 83, 2, 0.436408
179, 2, bw, filler, NA, 999, 999, 8, 31, 146, 100, 152, 136, 122, 70, 1, 0.336891
179, 2, bw, filler, NA, 999, 999, 8, 31, 146, 100, 152, 136, 122, 70, 2, 0.578055
179, 2, bw, attraction, a-b-db, 14, 2, 8, 32, 165, 90, 83, 153, 90, 165, 1, 1.23248
179, 2, bw, attraction, a-b-db, 14, 2, 8, 32, 165, 90, 83, 153, 90, 165, 2, 0.326057
179, 2, bw, filler, NA, 999, 999, 8, 33, 99, 174, 107, 158, 159, 111, 3, 0.782538
179, 2, bw, filler, NA, 999, 999, 8, 33, 99, 174, 107, 158, 159, 111, 2, 0.302368
179, 2, bw, catch, NA, 999, 999, 8, 34, 146, 169, 84, 111, 113, 142, 1, 0.752159
179, 2, bw, catch, NA, 999, 999, 8, 34, 146, 169, 84, 111, 113, 142, 2, 0.625324
179, 2, bw, attraction, a-b-da, 9, 1, 8, 35, 60, 135, 135, 60, 129, 57, 2, 0.589664
179, 2, bw, attraction, a-b-da, 9, 1, 8, 35, 60, 135, 135, 60, 129, 57, 3, 0.556927
179, 2, bw, filler, NA, 999, 999, 8, 36, 179, 85, 161, 86, 165, 106, 1, 0.299953
179, 2, bw, filler, NA, 999, 999, 8, 36, 179, 85, 161, 86, 165, 106, 2, 0.359025
179, 2, bw, filler, NA, 999, 999, 8, 37, 172, 98, 65, 170, 69, 151, 1, 0.598251
179, 2, bw, filler, NA, 999, 999, 8, 37, 172, 98, 65, 170, 69, 151, 2, 0.389306
