sub_n, computer_n, bw_cond, effect, set, distance, diag, block_n, trial_n, h1, w1, h2, w2, h3, w3, choice, rt 
176, 2, wb, practice, NA, 999, 999, 0, 1, 98, 140, 107, 118, 56, 57, 3, 3.64821
176, 2, wb, practice, NA, 999, 999, 0, 1, 98, 140, 107, 118, 56, 57, 1, 22.6989
176, 2, wb, practice, NA, 999, 999, 0, 2, 186, 61, 141, 84, 189, 81, 1, 5.77196
176, 2, wb, practice, NA, 999, 999, 0, 2, 186, 61, 141, 84, 189, 81, 3, 2.74681
176, 2, wb, practice, NA, 999, 999, 0, 3, 179, 126, 188, 87, 183, 92, 3, 5.73191
176, 2, wb, practice, NA, 999, 999, 0, 3, 179, 126, 188, 87, 183, 92, 1, 1.51054
176, 2, wb, catch, NA, 999, 999, 1, 1, 129, 66, 118, 137, 138, 177, 1, 2.29487
176, 2, wb, catch, NA, 999, 999, 1, 1, 129, 66, 118, 137, 138, 177, 3, 1.4175
176, 2, wb, catch, NA, 999, 999, 1, 2, 172, 143, 66, 129, 115, 140, 2, 4.07036
176, 2, wb, catch, NA, 999, 999, 1, 2, 172, 143, 66, 129, 115, 140, 1, 1.38571
176, 2, wb, attraction, a-b-db, 9, 3, 1, 3, 114, 186, 195, 120, 120, 195, 1, 6.54401
176, 2, wb, attraction, a-b-db, 9, 3, 1, 3, 114, 186, 195, 120, 120, 195, 2, 2.23916
176, 2, wb, attraction, a-b-da, 2, 1, 1, 4, 134, 59, 60, 135, 135, 60, 1, 7.82712
176, 2, wb, attraction, a-b-da, 2, 1, 1, 4, 134, 59, 60, 135, 135, 60, 2, 0.93468
176, 2, wb, attraction, a-b-db, 9, 2, 1, 5, 90, 165, 165, 90, 86, 157, 3, 3.95895
176, 2, wb, attraction, a-b-db, 9, 2, 1, 5, 90, 165, 165, 90, 86, 157, 1, 3.71047
176, 2, wb, attraction, a-b-da, 5, 3, 1, 6, 190, 117, 195, 120, 120, 195, 1, 10.8544
176, 2, wb, attraction, a-b-da, 5, 3, 1, 6, 190, 117, 195, 120, 120, 195, 2, 4.52843
176, 2, wb, filler, NA, 999, 999, 1, 7, 120, 77, 195, 90, 126, 75, 1, 1.35955
176, 2, wb, filler, NA, 999, 999, 1, 7, 120, 77, 195, 90, 126, 75, 2, 0.519897
176, 2, wb, filler, NA, 999, 999, 1, 8, 101, 167, 156, 118, 173, 73, 3, 3.70497
176, 2, wb, filler, NA, 999, 999, 1, 8, 101, 167, 156, 118, 173, 73, 1, 2.46641
176, 2, wb, filler, NA, 999, 999, 1, 9, 151, 116, 118, 92, 102, 159, 2, 1.25289
176, 2, wb, filler, NA, 999, 999, 1, 9, 151, 116, 118, 92, 102, 159, 1, 0.713991
176, 2, wb, attraction, a-b-da, 5, 1, 1, 10, 135, 60, 60, 135, 132, 58, 3, 9.29879
176, 2, wb, attraction, a-b-da, 5, 1, 1, 10, 135, 60, 60, 135, 132, 58, 2, 1.18731
176, 2, wb, attraction, a-b-da, 9, 2, 1, 11, 90, 165, 157, 86, 165, 90, 2, 10.7855
176, 2, wb, attraction, a-b-da, 9, 2, 1, 11, 90, 165, 157, 86, 165, 90, 3, 1.70207
176, 2, wb, attraction, a-b-db, 5, 2, 1, 12, 90, 165, 165, 90, 88, 161, 3, 10.1835
176, 2, wb, attraction, a-b-db, 5, 2, 1, 12, 90, 165, 165, 90, 88, 161, 2, 2.91637
176, 2, wb, attraction, a-b-db, 2, 3, 1, 13, 119, 193, 195, 120, 120, 195, 3, 9.16484
176, 2, wb, attraction, a-b-db, 2, 3, 1, 13, 119, 193, 195, 120, 120, 195, 2, 0.282369
176, 2, wb, attraction, a-b-da, 9, 3, 1, 14, 120, 195, 195, 120, 186, 114, 1, 5.32506
176, 2, wb, attraction, a-b-da, 9, 3, 1, 14, 120, 195, 195, 120, 186, 114, 2, 4.96531
176, 2, wb, attraction, a-b-db, 5, 3, 1, 15, 195, 120, 117, 190, 120, 195, 2, 6.79496
176, 2, wb, attraction, a-b-db, 5, 3, 1, 15, 195, 120, 117, 190, 120, 195, 3, 3.32026
176, 2, wb, filler, NA, 999, 999, 1, 16, 102, 83, 175, 193, 57, 121, 3, 3.1604
176, 2, wb, filler, NA, 999, 999, 1, 16, 102, 83, 175, 193, 57, 121, 2, 0.360066
176, 2, wb, attraction, a-b-da, 14, 2, 1, 17, 153, 83, 90, 165, 165, 90, 2, 4.25531
176, 2, wb, attraction, a-b-da, 14, 2, 1, 17, 153, 83, 90, 165, 165, 90, 3, 1.19451
176, 2, wb, attraction, a-b-da, 2, 2, 1, 18, 90, 165, 165, 90, 163, 89, 1, 8.78405
176, 2, wb, attraction, a-b-da, 2, 2, 1, 18, 90, 165, 165, 90, 163, 89, 3, 1.36545
176, 2, wb, attraction, a-b-db, 14, 3, 1, 19, 195, 120, 111, 181, 120, 195, 2, 2.71611
176, 2, wb, attraction, a-b-db, 14, 3, 1, 19, 195, 120, 111, 181, 120, 195, 1, 2.206
176, 2, wb, attraction, a-b-da, 2, 3, 1, 20, 193, 119, 195, 120, 120, 195, 1, 4.82719
176, 2, wb, attraction, a-b-da, 2, 3, 1, 20, 193, 119, 195, 120, 120, 195, 3, 0.623718
176, 2, wb, filler, NA, 999, 999, 1, 21, 103, 155, 66, 109, 105, 155, 2, 0.668114
176, 2, wb, filler, NA, 999, 999, 1, 21, 103, 155, 66, 109, 105, 155, 3, 3.1766
176, 2, wb, filler, NA, 999, 999, 1, 22, 108, 148, 95, 189, 150, 162, 1, 2.54207
176, 2, wb, filler, NA, 999, 999, 1, 22, 108, 148, 95, 189, 150, 162, 3, 0.478747
176, 2, wb, filler, NA, 999, 999, 1, 23, 120, 112, 61, 90, 102, 69, 2, 0.977085
176, 2, wb, filler, NA, 999, 999, 1, 23, 120, 112, 61, 90, 102, 69, 1, 1.06474
176, 2, wb, filler, NA, 999, 999, 1, 24, 140, 193, 136, 177, 120, 120, 3, 0.747687
176, 2, wb, filler, NA, 999, 999, 1, 24, 140, 193, 136, 177, 120, 120, 1, 1.32472
176, 2, wb, attraction, a-b-db, 14, 2, 1, 25, 90, 165, 165, 90, 83, 153, 3, 1.69307
176, 2, wb, attraction, a-b-db, 14, 2, 1, 25, 90, 165, 165, 90, 83, 153, 2, 1.3358
176, 2, wb, attraction, a-b-db, 2, 1, 1, 26, 135, 60, 59, 134, 60, 135, 2, 7.49589
176, 2, wb, attraction, a-b-db, 2, 1, 1, 26, 135, 60, 59, 134, 60, 135, 1, 0.776889
176, 2, wb, filler, NA, 999, 999, 1, 27, 162, 99, 129, 105, 94, 137, 3, 3.6793
176, 2, wb, filler, NA, 999, 999, 1, 27, 162, 99, 129, 105, 94, 137, 1, 0.794087
176, 2, wb, attraction, a-b-db, 5, 1, 1, 28, 58, 132, 135, 60, 60, 135, 1, 5.13576
176, 2, wb, attraction, a-b-db, 5, 1, 1, 28, 58, 132, 135, 60, 60, 135, 2, 0.320242
176, 2, wb, attraction, a-b-db, 2, 2, 1, 29, 90, 165, 89, 163, 165, 90, 2, 2.0494
176, 2, wb, attraction, a-b-db, 2, 2, 1, 29, 90, 165, 89, 163, 165, 90, 3, 0.606126
176, 2, wb, attraction, a-b-da, 5, 2, 1, 30, 90, 165, 165, 90, 161, 88, 1, 2.44308
176, 2, wb, attraction, a-b-da, 5, 2, 1, 30, 90, 165, 165, 90, 161, 88, 2, 0.855657
176, 2, wb, attraction, a-b-db, 14, 1, 1, 31, 135, 60, 56, 125, 60, 135, 2, 2.20335
176, 2, wb, attraction, a-b-db, 14, 1, 1, 31, 135, 60, 56, 125, 60, 135, 1, 0.297947
176, 2, wb, attraction, a-b-db, 9, 1, 1, 32, 60, 135, 135, 60, 57, 129, 2, 3.37187
176, 2, wb, attraction, a-b-db, 9, 1, 1, 32, 60, 135, 135, 60, 57, 129, 1, 1.07465
176, 2, wb, attraction, a-b-da, 14, 3, 1, 33, 181, 111, 120, 195, 195, 120, 1, 1.58097
176, 2, wb, attraction, a-b-da, 14, 3, 1, 33, 181, 111, 120, 195, 195, 120, 2, 1.12442
176, 2, wb, attraction, a-b-da, 14, 1, 1, 34, 125, 56, 60, 135, 135, 60, 1, 2.15662
176, 2, wb, attraction, a-b-da, 14, 1, 1, 34, 125, 56, 60, 135, 135, 60, 3, 0.420643
176, 2, wb, filler, NA, 999, 999, 1, 35, 87, 185, 124, 67, 137, 176, 2, 0.809736
176, 2, wb, filler, NA, 999, 999, 1, 35, 87, 185, 124, 67, 137, 176, 3, 0.320222
176, 2, wb, catch, NA, 999, 999, 1, 36, 163, 92, 156, 159, 102, 93, 3, 0.793331
176, 2, wb, catch, NA, 999, 999, 1, 36, 163, 92, 156, 159, 102, 93, 2, 0.352448
176, 2, wb, attraction, a-b-da, 9, 1, 1, 37, 60, 135, 135, 60, 129, 57, 1, 2.56818
176, 2, wb, attraction, a-b-da, 9, 1, 1, 37, 60, 135, 135, 60, 129, 57, 2, 1.60821
176, 2, wb, attraction, a-b-db, 9, 2, 2, 1, 90, 165, 165, 90, 86, 157, 3, 1.54885
176, 2, wb, attraction, a-b-db, 9, 2, 2, 1, 90, 165, 165, 90, 86, 157, 2, 1.54968
176, 2, wb, attraction, a-b-da, 14, 1, 2, 2, 135, 60, 125, 56, 60, 135, 2, 2.57312
176, 2, wb, attraction, a-b-da, 14, 1, 2, 2, 135, 60, 125, 56, 60, 135, 3, 0.620353
176, 2, wb, catch, NA, 999, 999, 2, 3, 195, 120, 119, 76, 106, 149, 2, 0.649468
176, 2, wb, catch, NA, 999, 999, 2, 3, 195, 120, 119, 76, 106, 149, 1, 0.310604
176, 2, wb, attraction, a-b-db, 9, 3, 2, 4, 120, 195, 114, 186, 195, 120, 2, 2.24767
176, 2, wb, attraction, a-b-db, 9, 3, 2, 4, 120, 195, 114, 186, 195, 120, 3, 3.19633
176, 2, wb, attraction, a-b-da, 5, 3, 2, 5, 120, 195, 195, 120, 190, 117, 1, 3.98536
176, 2, wb, attraction, a-b-da, 5, 3, 2, 5, 120, 195, 195, 120, 190, 117, 2, 1.03994
176, 2, wb, attraction, a-b-da, 2, 2, 2, 6, 165, 90, 90, 165, 163, 89, 2, 3.10775
176, 2, wb, attraction, a-b-da, 2, 2, 2, 6, 165, 90, 90, 165, 163, 89, 3, 1.3493
176, 2, wb, attraction, a-b-db, 14, 3, 2, 7, 111, 181, 120, 195, 195, 120, 1, 4.64474
176, 2, wb, attraction, a-b-db, 14, 3, 2, 7, 111, 181, 120, 195, 195, 120, 2, 0.360688
176, 2, wb, attraction, a-b-da, 9, 1, 2, 8, 60, 135, 135, 60, 129, 57, 3, 1.08779
176, 2, wb, attraction, a-b-da, 9, 1, 2, 8, 60, 135, 135, 60, 129, 57, 2, 1.0828
176, 2, wb, catch, NA, 999, 999, 2, 9, 66, 129, 130, 185, 163, 92, 1, 0.701013
176, 2, wb, catch, NA, 999, 999, 2, 9, 66, 129, 130, 185, 163, 92, 2, 0.376139
176, 2, wb, attraction, a-b-da, 2, 1, 2, 10, 135, 60, 60, 135, 134, 59, 2, 1.59079
176, 2, wb, attraction, a-b-da, 2, 1, 2, 10, 135, 60, 60, 135, 134, 59, 1, 1.50138
176, 2, wb, filler, NA, 999, 999, 2, 11, 174, 180, 190, 124, 80, 175, 3, 1.16698
176, 2, wb, filler, NA, 999, 999, 2, 11, 174, 180, 190, 124, 80, 175, 1, 0.255147
176, 2, wb, filler, NA, 999, 999, 2, 12, 82, 172, 179, 186, 97, 192, 1, 0.899101
176, 2, wb, filler, NA, 999, 999, 2, 12, 82, 172, 179, 186, 97, 192, 2, 0.262048
176, 2, wb, attraction, a-b-da, 14, 2, 2, 13, 90, 165, 165, 90, 153, 83, 1, 9.50518
176, 2, wb, attraction, a-b-da, 14, 2, 2, 13, 90, 165, 165, 90, 153, 83, 2, 0.321524
176, 2, wb, attraction, a-b-db, 9, 1, 2, 14, 57, 129, 135, 60, 60, 135, 1, 1.08283
176, 2, wb, attraction, a-b-db, 9, 1, 2, 14, 57, 129, 135, 60, 60, 135, 3, 1.73444
176, 2, wb, attraction, a-b-db, 5, 1, 2, 15, 58, 132, 135, 60, 60, 135, 1, 1.09452
176, 2, wb, attraction, a-b-db, 5, 1, 2, 15, 58, 132, 135, 60, 60, 135, 2, 0.377353
176, 2, wb, attraction, a-b-da, 5, 1, 2, 16, 135, 60, 60, 135, 132, 58, 3, 6.65605
176, 2, wb, attraction, a-b-da, 5, 1, 2, 16, 135, 60, 60, 135, 132, 58, 2, 0.458461
176, 2, wb, attraction, a-b-db, 2, 1, 2, 17, 135, 60, 60, 135, 59, 134, 3, 3.52564
176, 2, wb, attraction, a-b-db, 2, 1, 2, 17, 135, 60, 60, 135, 59, 134, 1, 1.49454
176, 2, wb, attraction, a-b-db, 5, 2, 2, 18, 165, 90, 90, 165, 88, 161, 3, 8.6881
176, 2, wb, attraction, a-b-db, 5, 2, 2, 18, 165, 90, 90, 165, 88, 161, 1, 0.361154
176, 2, wb, attraction, a-b-db, 5, 3, 2, 19, 120, 195, 117, 190, 195, 120, 3, 11.2004
176, 2, wb, attraction, a-b-db, 5, 3, 2, 19, 120, 195, 117, 190, 195, 120, 1, 0.588185
176, 2, wb, filler, NA, 999, 999, 2, 20, 179, 84, 140, 110, 69, 122, 3, 0.610521
176, 2, wb, filler, NA, 999, 999, 2, 20, 179, 84, 140, 110, 69, 122, 1, 0.91322
176, 2, wb, attraction, a-b-da, 2, 3, 2, 21, 195, 120, 120, 195, 193, 119, 3, 4.85003
176, 2, wb, attraction, a-b-da, 2, 3, 2, 21, 195, 120, 120, 195, 193, 119, 2, 0.701992
176, 2, wb, filler, NA, 999, 999, 2, 22, 87, 178, 119, 151, 82, 159, 3, 2.43961
176, 2, wb, filler, NA, 999, 999, 2, 22, 87, 178, 119, 151, 82, 159, 2, 0.316121
176, 2, wb, catch, NA, 999, 999, 2, 23, 68, 127, 121, 134, 150, 165, 1, 0.669268
176, 2, wb, catch, NA, 999, 999, 2, 23, 68, 127, 121, 134, 150, 165, 3, 0.329716
176, 2, wb, filler, NA, 999, 999, 2, 24, 78, 99, 163, 69, 102, 132, 1, 5.93818
176, 2, wb, filler, NA, 999, 999, 2, 24, 78, 99, 163, 69, 102, 132, 3, 0.354279
176, 2, wb, attraction, a-b-db, 14, 1, 2, 25, 56, 125, 135, 60, 60, 135, 1, 1.49011
176, 2, wb, attraction, a-b-db, 14, 1, 2, 25, 56, 125, 135, 60, 60, 135, 2, 0.309079
176, 2, wb, attraction, a-b-db, 2, 2, 2, 26, 89, 163, 165, 90, 90, 165, 2, 4.87813
176, 2, wb, attraction, a-b-db, 2, 2, 2, 26, 89, 163, 165, 90, 90, 165, 1, 0.224741
176, 2, wb, filler, NA, 999, 999, 2, 27, 80, 114, 68, 97, 95, 81, 2, 2.08518
176, 2, wb, filler, NA, 999, 999, 2, 27, 80, 114, 68, 97, 95, 81, 1, 0.576438
176, 2, wb, attraction, a-b-db, 14, 2, 2, 28, 83, 153, 90, 165, 165, 90, 3, 7.36704
176, 2, wb, attraction, a-b-db, 14, 2, 2, 28, 83, 153, 90, 165, 165, 90, 2, 0.957207
176, 2, wb, filler, NA, 999, 999, 2, 29, 180, 67, 170, 116, 78, 154, 1, 4.78822
176, 2, wb, filler, NA, 999, 999, 2, 29, 180, 67, 170, 116, 78, 154, 2, 0.650698
176, 2, wb, filler, NA, 999, 999, 2, 30, 100, 56, 114, 66, 138, 156, 1, 0.894481
176, 2, wb, filler, NA, 999, 999, 2, 30, 100, 56, 114, 66, 138, 156, 3, 0.577434
176, 2, wb, attraction, a-b-da, 5, 2, 2, 31, 161, 88, 90, 165, 165, 90, 1, 6.26396
176, 2, wb, attraction, a-b-da, 5, 2, 2, 31, 161, 88, 90, 165, 165, 90, 3, 1.1226
176, 2, wb, attraction, a-b-da, 9, 2, 2, 32, 157, 86, 165, 90, 90, 165, 1, 2.83555
176, 2, wb, attraction, a-b-da, 9, 2, 2, 32, 157, 86, 165, 90, 90, 165, 3, 0.288613
176, 2, wb, attraction, a-b-da, 9, 3, 2, 33, 186, 114, 120, 195, 195, 120, 1, 1.76311
176, 2, wb, attraction, a-b-da, 9, 3, 2, 33, 186, 114, 120, 195, 195, 120, 2, 0.275147
176, 2, wb, filler, NA, 999, 999, 2, 34, 179, 128, 193, 186, 170, 108, 3, 1.06976
176, 2, wb, filler, NA, 999, 999, 2, 34, 179, 128, 193, 186, 170, 108, 2, 0.506055
176, 2, wb, attraction, a-b-da, 14, 3, 2, 35, 195, 120, 181, 111, 120, 195, 2, 2.19514
176, 2, wb, attraction, a-b-da, 14, 3, 2, 35, 195, 120, 181, 111, 120, 195, 1, 0.769839
176, 2, wb, filler, NA, 999, 999, 2, 36, 88, 84, 62, 123, 111, 86, 2, 2.75273
176, 2, wb, filler, NA, 999, 999, 2, 36, 88, 84, 62, 123, 111, 86, 3, 0.369225
176, 2, wb, attraction, a-b-db, 2, 3, 2, 37, 120, 195, 119, 193, 195, 120, 3, 3.08834
176, 2, wb, attraction, a-b-db, 2, 3, 2, 37, 120, 195, 119, 193, 195, 120, 1, 0.443376
176, 2, wb, attraction, a-b-db, 5, 3, 3, 1, 120, 195, 117, 190, 195, 120, 3, 2.30329
176, 2, wb, attraction, a-b-db, 5, 3, 3, 1, 120, 195, 117, 190, 195, 120, 1, 0.35376
176, 2, wb, attraction, a-b-da, 5, 3, 3, 2, 195, 120, 120, 195, 190, 117, 3, 8.7376
176, 2, wb, attraction, a-b-da, 5, 3, 3, 2, 195, 120, 120, 195, 190, 117, 2, 0.280854
176, 2, wb, attraction, a-b-da, 5, 1, 3, 3, 135, 60, 60, 135, 132, 58, 3, 2.17165
176, 2, wb, attraction, a-b-da, 5, 1, 3, 3, 135, 60, 60, 135, 132, 58, 1, 1.40272
176, 2, wb, attraction, a-b-da, 9, 1, 3, 4, 135, 60, 60, 135, 129, 57, 3, 4.56303
176, 2, wb, attraction, a-b-da, 9, 1, 3, 4, 135, 60, 60, 135, 129, 57, 2, 0.623599
176, 2, wb, catch, NA, 999, 999, 3, 5, 122, 193, 121, 74, 129, 126, 2, 0.947873
176, 2, wb, catch, NA, 999, 999, 3, 5, 122, 193, 121, 74, 129, 126, 1, 0.244815
176, 2, wb, catch, NA, 999, 999, 3, 6, 98, 157, 66, 129, 184, 131, 2, 1.01664
176, 2, wb, catch, NA, 999, 999, 3, 6, 98, 157, 66, 129, 184, 131, 3, 0.503139
176, 2, wb, attraction, a-b-da, 9, 2, 3, 7, 157, 86, 165, 90, 90, 165, 1, 1.75283
176, 2, wb, attraction, a-b-da, 9, 2, 3, 7, 157, 86, 165, 90, 90, 165, 2, 0.513659
176, 2, wb, attraction, a-b-db, 2, 1, 3, 8, 60, 135, 59, 134, 135, 60, 3, 2.69873
176, 2, wb, attraction, a-b-db, 2, 1, 3, 8, 60, 135, 59, 134, 135, 60, 1, 2.81325
176, 2, wb, filler, NA, 999, 999, 3, 9, 176, 124, 67, 148, 86, 139, 2, 1.92949
176, 2, wb, filler, NA, 999, 999, 3, 9, 176, 124, 67, 148, 86, 139, 1, 0.258879
176, 2, wb, attraction, a-b-db, 14, 1, 3, 10, 60, 135, 56, 125, 135, 60, 3, 1.79806
176, 2, wb, attraction, a-b-db, 14, 1, 3, 10, 60, 135, 56, 125, 135, 60, 1, 0.356874
176, 2, wb, attraction, a-b-da, 9, 3, 3, 11, 186, 114, 120, 195, 195, 120, 3, 3.85208
176, 2, wb, attraction, a-b-da, 9, 3, 3, 11, 186, 114, 120, 195, 195, 120, 2, 0.344086
176, 2, wb, attraction, a-b-db, 5, 2, 3, 12, 165, 90, 90, 165, 88, 161, 3, 2.84796
176, 2, wb, attraction, a-b-db, 5, 2, 3, 12, 165, 90, 90, 165, 88, 161, 2, 0.924556
176, 2, wb, filler, NA, 999, 999, 3, 13, 162, 117, 62, 169, 64, 168, 2, 2.94079
176, 2, wb, filler, NA, 999, 999, 3, 13, 162, 117, 62, 169, 64, 168, 1, 0.293125
176, 2, wb, filler, NA, 999, 999, 3, 14, 130, 92, 171, 176, 93, 144, 1, 2.27889
176, 2, wb, filler, NA, 999, 999, 3, 14, 130, 92, 171, 176, 93, 144, 2, 0.250111
176, 2, wb, attraction, a-b-da, 14, 2, 3, 15, 165, 90, 90, 165, 153, 83, 3, 4.50209
176, 2, wb, attraction, a-b-da, 14, 2, 3, 15, 165, 90, 90, 165, 153, 83, 1, 2.93592
176, 2, wb, attraction, a-b-da, 5, 2, 3, 16, 165, 90, 161, 88, 90, 165, 1, 1.96756
176, 2, wb, attraction, a-b-da, 5, 2, 3, 16, 165, 90, 161, 88, 90, 165, 2, 0.439634
176, 2, wb, attraction, a-b-da, 14, 1, 3, 17, 135, 60, 125, 56, 60, 135, 2, 5.58754
176, 2, wb, attraction, a-b-da, 14, 1, 3, 17, 135, 60, 125, 56, 60, 135, 3, 0.321698
176, 2, wb, filler, NA, 999, 999, 3, 18, 195, 84, 65, 179, 147, 152, 2, 1.86692
176, 2, wb, filler, NA, 999, 999, 3, 18, 195, 84, 65, 179, 147, 152, 3, 0.254864
176, 2, wb, attraction, a-b-da, 2, 3, 3, 19, 195, 120, 120, 195, 193, 119, 3, 4.77882
176, 2, wb, attraction, a-b-da, 2, 3, 3, 19, 195, 120, 120, 195, 193, 119, 2, 0.297288
176, 2, wb, filler, NA, 999, 999, 3, 20, 170, 134, 102, 177, 83, 76, 3, 0.67516
176, 2, wb, filler, NA, 999, 999, 3, 20, 170, 134, 102, 177, 83, 76, 1, 2.35888
176, 2, wb, attraction, a-b-db, 14, 2, 3, 21, 83, 153, 90, 165, 165, 90, 1, 4.38936
176, 2, wb, attraction, a-b-db, 14, 2, 3, 21, 83, 153, 90, 165, 165, 90, 2, 0.811375
176, 2, wb, attraction, a-b-da, 2, 2, 3, 22, 165, 90, 90, 165, 163, 89, 1, 6.52042
176, 2, wb, attraction, a-b-da, 2, 2, 3, 22, 165, 90, 90, 165, 163, 89, 2, 1.56096
176, 2, wb, filler, NA, 999, 999, 3, 23, 167, 71, 173, 184, 123, 73, 3, 0.887719
176, 2, wb, filler, NA, 999, 999, 3, 23, 167, 71, 173, 184, 123, 73, 2, 0.322775
176, 2, wb, filler, NA, 999, 999, 3, 24, 195, 147, 59, 75, 74, 64, 2, 4.0594
176, 2, wb, filler, NA, 999, 999, 3, 24, 195, 147, 59, 75, 74, 64, 1, 0.26259
176, 2, wb, attraction, a-b-db, 9, 2, 3, 25, 90, 165, 165, 90, 86, 157, 3, 6.33785
176, 2, wb, attraction, a-b-db, 9, 2, 3, 25, 90, 165, 165, 90, 86, 157, 1, 2.86588
176, 2, wb, attraction, a-b-db, 14, 3, 3, 26, 195, 120, 111, 181, 120, 195, 2, 3.65233
176, 2, wb, attraction, a-b-db, 14, 3, 3, 26, 195, 120, 111, 181, 120, 195, 1, 0.336441
176, 2, wb, attraction, a-b-db, 9, 1, 3, 27, 57, 129, 135, 60, 60, 135, 1, 5.68892
176, 2, wb, attraction, a-b-db, 9, 1, 3, 27, 57, 129, 135, 60, 60, 135, 2, 1.42648
176, 2, wb, attraction, a-b-da, 14, 3, 3, 28, 181, 111, 195, 120, 120, 195, 1, 1.08664
176, 2, wb, attraction, a-b-da, 14, 3, 3, 28, 181, 111, 195, 120, 120, 195, 2, 0.762208
176, 2, wb, attraction, a-b-da, 2, 1, 3, 29, 60, 135, 135, 60, 134, 59, 3, 7.51325
176, 2, wb, attraction, a-b-da, 2, 1, 3, 29, 60, 135, 135, 60, 134, 59, 2, 1.96959
176, 2, wb, attraction, a-b-db, 2, 2, 3, 30, 165, 90, 90, 165, 89, 163, 3, 3.00032
176, 2, wb, attraction, a-b-db, 2, 2, 3, 30, 165, 90, 90, 165, 89, 163, 2, 0.31861
176, 2, wb, filler, NA, 999, 999, 3, 31, 177, 130, 93, 165, 123, 67, 3, 0.89576
176, 2, wb, filler, NA, 999, 999, 3, 31, 177, 130, 93, 165, 123, 67, 1, 0.362823
176, 2, wb, attraction, a-b-db, 5, 1, 3, 32, 135, 60, 60, 135, 58, 132, 3, 4.0419
176, 2, wb, attraction, a-b-db, 5, 1, 3, 32, 135, 60, 60, 135, 58, 132, 1, 3.20615
176, 2, wb, attraction, a-b-db, 2, 3, 3, 33, 195, 120, 120, 195, 119, 193, 1, 8.33105
176, 2, wb, attraction, a-b-db, 2, 3, 3, 33, 195, 120, 120, 195, 119, 193, 2, 1.08238
176, 2, wb, filler, NA, 999, 999, 3, 34, 188, 66, 99, 151, 141, 114, 3, 3.36461
176, 2, wb, filler, NA, 999, 999, 3, 34, 188, 66, 99, 151, 141, 114, 2, 1.07622
176, 2, wb, attraction, a-b-db, 9, 3, 3, 35, 114, 186, 195, 120, 120, 195, 1, 3.46248
176, 2, wb, attraction, a-b-db, 9, 3, 3, 35, 114, 186, 195, 120, 120, 195, 2, 1.46594
176, 2, wb, catch, NA, 999, 999, 3, 36, 119, 136, 122, 73, 184, 131, 2, 0.796743
176, 2, wb, catch, NA, 999, 999, 3, 36, 119, 136, 122, 73, 184, 131, 3, 0.571844
176, 2, wb, filler, NA, 999, 999, 3, 37, 131, 84, 154, 118, 192, 93, 1, 0.562928
176, 2, wb, filler, NA, 999, 999, 3, 37, 131, 84, 154, 118, 192, 93, 2, 4.41145
176, 2, wb, attraction, a-b-db, 2, 1, 4, 1, 135, 60, 60, 135, 59, 134, 1, 4.54348
176, 2, wb, attraction, a-b-db, 2, 1, 4, 1, 135, 60, 60, 135, 59, 134, 2, 0.759245
176, 2, wb, attraction, a-b-da, 9, 2, 4, 2, 90, 165, 165, 90, 157, 86, 3, 3.03827
176, 2, wb, attraction, a-b-da, 9, 2, 4, 2, 90, 165, 165, 90, 157, 86, 1, 0.306963
176, 2, wb, catch, NA, 999, 999, 4, 3, 163, 92, 191, 124, 135, 60, 3, 0.643757
176, 2, wb, catch, NA, 999, 999, 4, 3, 163, 92, 191, 124, 135, 60, 2, 0.321009
176, 2, wb, attraction, a-b-db, 14, 2, 4, 4, 90, 165, 165, 90, 83, 153, 3, 2.10609
176, 2, wb, attraction, a-b-db, 14, 2, 4, 4, 90, 165, 165, 90, 83, 153, 2, 0.820061
176, 2, wb, attraction, a-b-db, 9, 2, 4, 5, 165, 90, 90, 165, 86, 157, 3, 3.85703
176, 2, wb, attraction, a-b-db, 9, 2, 4, 5, 165, 90, 90, 165, 86, 157, 1, 0.652598
176, 2, wb, filler, NA, 999, 999, 4, 6, 96, 178, 151, 185, 178, 82, 3, 2.73627
176, 2, wb, filler, NA, 999, 999, 4, 6, 96, 178, 151, 185, 178, 82, 2, 0.249354
176, 2, wb, attraction, a-b-da, 9, 1, 4, 7, 135, 60, 129, 57, 60, 135, 2, 5.51735
176, 2, wb, attraction, a-b-da, 9, 1, 4, 7, 135, 60, 129, 57, 60, 135, 1, 2.67012
176, 2, wb, attraction, a-b-da, 2, 2, 4, 8, 165, 90, 163, 89, 90, 165, 2, 5.06461
176, 2, wb, attraction, a-b-da, 2, 2, 4, 8, 165, 90, 163, 89, 90, 165, 3, 0.235579
176, 2, wb, filler, NA, 999, 999, 4, 9, 67, 101, 173, 132, 191, 99, 1, 0.576163
176, 2, wb, filler, NA, 999, 999, 4, 9, 67, 101, 173, 132, 191, 99, 2, 1.43993
176, 2, wb, attraction, a-b-db, 9, 1, 4, 10, 135, 60, 60, 135, 57, 129, 3, 2.15549
176, 2, wb, attraction, a-b-db, 9, 1, 4, 10, 135, 60, 60, 135, 57, 129, 1, 3.89943
176, 2, wb, filler, NA, 999, 999, 4, 11, 77, 191, 73, 71, 161, 147, 2, 1.00423
176, 2, wb, filler, NA, 999, 999, 4, 11, 77, 191, 73, 71, 161, 147, 3, 0.258497
176, 2, wb, filler, NA, 999, 999, 4, 12, 189, 85, 127, 186, 86, 158, 3, 1.76571
176, 2, wb, filler, NA, 999, 999, 4, 12, 189, 85, 127, 186, 86, 158, 2, 0.237691
176, 2, wb, attraction, a-b-da, 2, 1, 4, 13, 134, 59, 135, 60, 60, 135, 3, 2.32285
176, 2, wb, attraction, a-b-da, 2, 1, 4, 13, 134, 59, 135, 60, 60, 135, 2, 1.6595
176, 2, wb, attraction, a-b-db, 2, 2, 4, 14, 90, 165, 165, 90, 89, 163, 1, 2.75838
176, 2, wb, attraction, a-b-db, 2, 2, 4, 14, 90, 165, 165, 90, 89, 163, 2, 4.02217
176, 2, wb, filler, NA, 999, 999, 4, 15, 126, 170, 81, 184, 169, 127, 2, 5.80222
176, 2, wb, filler, NA, 999, 999, 4, 15, 126, 170, 81, 184, 169, 127, 1, 2.92767
176, 2, wb, attraction, a-b-db, 9, 3, 4, 16, 195, 120, 114, 186, 120, 195, 2, 6.72736
176, 2, wb, attraction, a-b-db, 9, 3, 4, 16, 195, 120, 114, 186, 120, 195, 3, 0.439264
176, 2, wb, attraction, a-b-db, 14, 3, 4, 17, 111, 181, 195, 120, 120, 195, 1, 1.27557
176, 2, wb, attraction, a-b-db, 14, 3, 4, 17, 111, 181, 195, 120, 120, 195, 3, 0.263126
176, 2, wb, filler, NA, 999, 999, 4, 18, 178, 125, 147, 157, 117, 101, 3, 0.778393
176, 2, wb, filler, NA, 999, 999, 4, 18, 178, 125, 147, 157, 117, 101, 2, 1.57811
176, 2, wb, attraction, a-b-db, 2, 3, 4, 19, 195, 120, 119, 193, 120, 195, 1, 1.52818
176, 2, wb, attraction, a-b-db, 2, 3, 4, 19, 195, 120, 119, 193, 120, 195, 2, 0.825667
176, 2, wb, attraction, a-b-db, 14, 1, 4, 20, 60, 135, 135, 60, 56, 125, 3, 1.39004
176, 2, wb, attraction, a-b-db, 14, 1, 4, 20, 60, 135, 135, 60, 56, 125, 2, 3.58887
176, 2, wb, attraction, a-b-db, 5, 2, 4, 21, 88, 161, 165, 90, 90, 165, 1, 3.83445
176, 2, wb, attraction, a-b-db, 5, 2, 4, 21, 88, 161, 165, 90, 90, 165, 2, 0.495317
176, 2, wb, filler, NA, 999, 999, 4, 22, 153, 119, 122, 98, 106, 149, 2, 0.977125
176, 2, wb, filler, NA, 999, 999, 4, 22, 153, 119, 122, 98, 106, 149, 1, 0.141274
176, 2, wb, attraction, a-b-db, 5, 1, 4, 23, 135, 60, 60, 135, 58, 132, 3, 4.9525
176, 2, wb, attraction, a-b-db, 5, 1, 4, 23, 135, 60, 60, 135, 58, 132, 2, 0.496403
176, 2, wb, filler, NA, 999, 999, 4, 24, 85, 125, 75, 173, 150, 193, 1, 1.32206
176, 2, wb, filler, NA, 999, 999, 4, 24, 85, 125, 75, 173, 150, 193, 3, 0.251638
176, 2, wb, attraction, a-b-da, 5, 1, 4, 25, 135, 60, 60, 135, 132, 58, 1, 3.72744
176, 2, wb, attraction, a-b-da, 5, 1, 4, 25, 135, 60, 60, 135, 132, 58, 2, 1.04834
176, 2, wb, attraction, a-b-da, 14, 3, 4, 26, 195, 120, 181, 111, 120, 195, 2, 4.71595
176, 2, wb, attraction, a-b-da, 14, 3, 4, 26, 195, 120, 181, 111, 120, 195, 1, 0.925061
176, 2, wb, catch, NA, 999, 999, 4, 27, 60, 135, 128, 127, 168, 147, 1, 1.09344
176, 2, wb, catch, NA, 999, 999, 4, 27, 60, 135, 128, 127, 168, 147, 3, 0.560388
176, 2, wb, attraction, a-b-da, 14, 1, 4, 28, 60, 135, 125, 56, 135, 60, 2, 1.81549
176, 2, wb, attraction, a-b-da, 14, 1, 4, 28, 60, 135, 125, 56, 135, 60, 1, 3.50961
176, 2, wb, catch, NA, 999, 999, 4, 29, 100, 95, 110, 145, 149, 166, 1, 0.965795
176, 2, wb, catch, NA, 999, 999, 4, 29, 100, 95, 110, 145, 149, 166, 3, 0.654027
176, 2, wb, attraction, a-b-da, 5, 2, 4, 30, 90, 165, 161, 88, 165, 90, 2, 3.16186
176, 2, wb, attraction, a-b-da, 5, 2, 4, 30, 90, 165, 161, 88, 165, 90, 1, 1.8894
176, 2, wb, filler, NA, 999, 999, 4, 31, 62, 163, 134, 194, 117, 174, 1, 0.867507
176, 2, wb, filler, NA, 999, 999, 4, 31, 62, 163, 134, 194, 117, 174, 2, 0.295827
176, 2, wb, attraction, a-b-da, 5, 3, 4, 32, 120, 195, 195, 120, 190, 117, 3, 5.99373
176, 2, wb, attraction, a-b-da, 5, 3, 4, 32, 120, 195, 195, 120, 190, 117, 1, 0.271116
176, 2, wb, filler, NA, 999, 999, 4, 33, 132, 122, 127, 65, 188, 63, 2, 0.778369
176, 2, wb, filler, NA, 999, 999, 4, 33, 132, 122, 127, 65, 188, 63, 1, 4.90609
176, 2, wb, attraction, a-b-da, 9, 3, 4, 34, 186, 114, 120, 195, 195, 120, 1, 2.81864
176, 2, wb, attraction, a-b-da, 9, 3, 4, 34, 186, 114, 120, 195, 195, 120, 2, 1.52841
176, 2, wb, attraction, a-b-da, 2, 3, 4, 35, 195, 120, 120, 195, 193, 119, 3, 3.79233
176, 2, wb, attraction, a-b-da, 2, 3, 4, 35, 195, 120, 120, 195, 193, 119, 2, 3.51849
176, 2, wb, attraction, a-b-da, 14, 2, 4, 36, 90, 165, 153, 83, 165, 90, 2, 2.35075
176, 2, wb, attraction, a-b-da, 14, 2, 4, 36, 90, 165, 153, 83, 165, 90, 1, 0.783214
176, 2, wb, attraction, a-b-db, 5, 3, 4, 37, 120, 195, 195, 120, 117, 190, 3, 4.71762
176, 2, wb, attraction, a-b-db, 5, 3, 4, 37, 120, 195, 195, 120, 117, 190, 2, 4.1188
176, 2, wb, attraction, a-b-da, 14, 2, 5, 1, 90, 165, 165, 90, 153, 83, 3, 11.2293
176, 2, wb, attraction, a-b-da, 14, 2, 5, 1, 90, 165, 165, 90, 153, 83, 2, 0.551846
176, 2, wb, catch, NA, 999, 999, 5, 2, 166, 149, 113, 82, 109, 146, 2, 0.847644
176, 2, wb, catch, NA, 999, 999, 5, 2, 166, 149, 113, 82, 109, 146, 1, 0.252634
176, 2, wb, attraction, a-b-db, 14, 2, 5, 3, 90, 165, 165, 90, 83, 153, 3, 1.05652
176, 2, wb, attraction, a-b-db, 14, 2, 5, 3, 90, 165, 165, 90, 83, 153, 2, 2.30077
176, 2, wb, attraction, a-b-da, 5, 1, 5, 4, 135, 60, 132, 58, 60, 135, 2, 3.06218
176, 2, wb, attraction, a-b-da, 5, 1, 5, 4, 135, 60, 132, 58, 60, 135, 3, 0.233782
176, 2, wb, attraction, a-b-db, 5, 2, 5, 5, 165, 90, 90, 165, 88, 161, 3, 1.95826
176, 2, wb, attraction, a-b-db, 5, 2, 5, 5, 165, 90, 90, 165, 88, 161, 1, 0.966318
176, 2, wb, attraction, a-b-da, 9, 2, 5, 6, 165, 90, 90, 165, 157, 86, 3, 4.54128
176, 2, wb, attraction, a-b-da, 9, 2, 5, 6, 165, 90, 90, 165, 157, 86, 2, 1.31717
176, 2, wb, attraction, a-b-db, 5, 1, 5, 7, 60, 135, 135, 60, 58, 132, 3, 2.25395
176, 2, wb, attraction, a-b-db, 5, 1, 5, 7, 60, 135, 135, 60, 58, 132, 2, 0.38665
176, 2, wb, attraction, a-b-da, 5, 3, 5, 8, 120, 195, 190, 117, 195, 120, 2, 6.68107
176, 2, wb, attraction, a-b-da, 5, 3, 5, 8, 120, 195, 190, 117, 195, 120, 1, 0.235016
176, 2, wb, attraction, a-b-db, 5, 3, 5, 9, 120, 195, 195, 120, 117, 190, 2, 2.47152
176, 2, wb, attraction, a-b-db, 5, 3, 5, 9, 120, 195, 195, 120, 117, 190, 1, 0.354738
176, 2, wb, filler, NA, 999, 999, 5, 10, 115, 106, 105, 189, 127, 110, 1, 2.6666
176, 2, wb, filler, NA, 999, 999, 5, 10, 115, 106, 105, 189, 127, 110, 2, 0.318547
176, 2, wb, attraction, a-b-da, 9, 3, 5, 11, 195, 120, 186, 114, 120, 195, 1, 49.6156
176, 2, wb, attraction, a-b-da, 9, 3, 5, 11, 195, 120, 186, 114, 120, 195, 3, 0.279368
176, 2, wb, filler, NA, 999, 999, 5, 12, 59, 111, 132, 145, 169, 182, 1, 0.577887
176, 2, wb, filler, NA, 999, 999, 5, 12, 59, 111, 132, 145, 169, 182, 3, 0.297643
176, 2, wb, filler, NA, 999, 999, 5, 13, 183, 94, 84, 121, 174, 77, 2, 1.93956
176, 2, wb, filler, NA, 999, 999, 5, 13, 183, 94, 84, 121, 174, 77, 1, 0.276302
176, 2, wb, attraction, a-b-db, 2, 2, 5, 14, 89, 163, 165, 90, 90, 165, 3, 4.38275
176, 2, wb, attraction, a-b-db, 2, 2, 5, 14, 89, 163, 165, 90, 90, 165, 2, 0.949434
176, 2, wb, catch, NA, 999, 999, 5, 15, 75, 120, 123, 132, 173, 142, 1, 0.597045
176, 2, wb, catch, NA, 999, 999, 5, 15, 75, 120, 123, 132, 173, 142, 3, 0.484111
176, 2, wb, attraction, a-b-da, 9, 1, 5, 16, 135, 60, 129, 57, 60, 135, 2, 1.87048
176, 2, wb, attraction, a-b-da, 9, 1, 5, 16, 135, 60, 129, 57, 60, 135, 1, 1.06663
176, 2, wb, attraction, a-b-da, 14, 1, 5, 17, 125, 56, 60, 135, 135, 60, 1, 1.4536
176, 2, wb, attraction, a-b-da, 14, 1, 5, 17, 125, 56, 60, 135, 135, 60, 2, 0.337738
176, 2, wb, filler, NA, 999, 999, 5, 18, 69, 59, 189, 132, 177, 82, 1, 0.642295
176, 2, wb, filler, NA, 999, 999, 5, 18, 69, 59, 189, 132, 177, 82, 2, 0.279454
176, 2, wb, attraction, a-b-db, 2, 1, 5, 19, 59, 134, 135, 60, 60, 135, 3, 1.21789
176, 2, wb, attraction, a-b-db, 2, 1, 5, 19, 59, 134, 135, 60, 60, 135, 2, 1.01616
176, 2, wb, attraction, a-b-db, 14, 3, 5, 20, 195, 120, 111, 181, 120, 195, 2, 2.78105
176, 2, wb, attraction, a-b-db, 14, 3, 5, 20, 195, 120, 111, 181, 120, 195, 1, 0.316185
176, 2, wb, filler, NA, 999, 999, 5, 21, 149, 160, 193, 81, 93, 189, 2, 4.0054
176, 2, wb, filler, NA, 999, 999, 5, 21, 149, 160, 193, 81, 93, 189, 1, 1.88274
176, 2, wb, attraction, a-b-da, 14, 3, 5, 22, 195, 120, 120, 195, 181, 111, 3, 2.12474
176, 2, wb, attraction, a-b-da, 14, 3, 5, 22, 195, 120, 120, 195, 181, 111, 2, 0.422111
176, 2, wb, filler, NA, 999, 999, 5, 23, 122, 170, 70, 118, 118, 98, 2, 0.683287
176, 2, wb, filler, NA, 999, 999, 5, 23, 122, 170, 70, 118, 118, 98, 1, 0.278965
176, 2, wb, attraction, a-b-da, 2, 1, 5, 24, 134, 59, 60, 135, 135, 60, 2, 3.76163
176, 2, wb, attraction, a-b-da, 2, 1, 5, 24, 134, 59, 60, 135, 135, 60, 1, 1.53692
176, 2, wb, filler, NA, 999, 999, 5, 25, 152, 187, 184, 71, 145, 108, 3, 1.19315
176, 2, wb, filler, NA, 999, 999, 5, 25, 152, 187, 184, 71, 145, 108, 1, 0.383998
176, 2, wb, filler, NA, 999, 999, 5, 26, 125, 156, 161, 91, 160, 140, 2, 2.95068
176, 2, wb, filler, NA, 999, 999, 5, 26, 125, 156, 161, 91, 160, 140, 3, 0.334912
176, 2, wb, attraction, a-b-db, 9, 1, 5, 27, 57, 129, 135, 60, 60, 135, 3, 0.983379
176, 2, wb, attraction, a-b-db, 9, 1, 5, 27, 57, 129, 135, 60, 60, 135, 2, 1.1111
176, 2, wb, attraction, a-b-db, 9, 3, 5, 28, 114, 186, 195, 120, 120, 195, 1, 3.70393
176, 2, wb, attraction, a-b-db, 9, 3, 5, 28, 114, 186, 195, 120, 120, 195, 2, 0.962192
176, 2, wb, attraction, a-b-da, 5, 2, 5, 29, 90, 165, 161, 88, 165, 90, 3, 1.93718
176, 2, wb, attraction, a-b-da, 5, 2, 5, 29, 90, 165, 161, 88, 165, 90, 2, 2.80254
176, 2, wb, filler, NA, 999, 999, 5, 30, 169, 179, 163, 83, 157, 181, 2, 1.09558
176, 2, wb, filler, NA, 999, 999, 5, 30, 169, 179, 163, 83, 157, 181, 1, 0.442515
176, 2, wb, attraction, a-b-db, 9, 2, 5, 31, 90, 165, 165, 90, 86, 157, 3, 2.26243
176, 2, wb, attraction, a-b-db, 9, 2, 5, 31, 90, 165, 165, 90, 86, 157, 2, 3.98622
176, 2, wb, attraction, a-b-da, 2, 2, 5, 32, 163, 89, 90, 165, 165, 90, 1, 5.54368
176, 2, wb, attraction, a-b-da, 2, 2, 5, 32, 163, 89, 90, 165, 165, 90, 2, 1.19123
176, 2, wb, catch, NA, 999, 999, 5, 33, 180, 135, 104, 151, 90, 105, 3, 0.612823
176, 2, wb, catch, NA, 999, 999, 5, 33, 180, 135, 104, 151, 90, 105, 1, 0.30719
176, 2, wb, attraction, a-b-db, 14, 1, 5, 34, 135, 60, 56, 125, 60, 135, 2, 1.83641
176, 2, wb, attraction, a-b-db, 14, 1, 5, 34, 135, 60, 56, 125, 60, 135, 3, 0.273771
176, 2, wb, filler, NA, 999, 999, 5, 35, 154, 141, 147, 167, 192, 190, 1, 1.10029
176, 2, wb, filler, NA, 999, 999, 5, 35, 154, 141, 147, 167, 192, 190, 3, 0.327268
176, 2, wb, attraction, a-b-db, 2, 3, 5, 36, 119, 193, 195, 120, 120, 195, 1, 2.83185
176, 2, wb, attraction, a-b-db, 2, 3, 5, 36, 119, 193, 195, 120, 120, 195, 2, 0.316889
176, 2, wb, attraction, a-b-da, 2, 3, 5, 37, 195, 120, 193, 119, 120, 195, 1, 13.5821
176, 2, wb, attraction, a-b-da, 2, 3, 5, 37, 195, 120, 193, 119, 120, 195, 3, 0.441729
176, 2, wb, attraction, a-b-db, 2, 1, 6, 1, 60, 135, 135, 60, 59, 134, 3, 11.3656
176, 2, wb, attraction, a-b-db, 2, 1, 6, 1, 60, 135, 135, 60, 59, 134, 1, 0.49066
176, 2, wb, attraction, a-b-db, 9, 2, 6, 2, 86, 157, 90, 165, 165, 90, 1, 1.26858
176, 2, wb, attraction, a-b-db, 9, 2, 6, 2, 86, 157, 90, 165, 165, 90, 2, 2.12071
176, 2, wb, filler, NA, 999, 999, 6, 3, 69, 104, 160, 157, 57, 99, 3, 0.793297
176, 2, wb, filler, NA, 999, 999, 6, 3, 69, 104, 160, 157, 57, 99, 2, 0.27245
176, 2, wb, filler, NA, 999, 999, 6, 4, 109, 60, 147, 166, 97, 194, 1, 0.691578
176, 2, wb, filler, NA, 999, 999, 6, 4, 109, 60, 147, 166, 97, 194, 2, 0.422626
176, 2, wb, filler, NA, 999, 999, 6, 5, 179, 108, 157, 65, 85, 107, 2, 7.74718
176, 2, wb, filler, NA, 999, 999, 6, 5, 179, 108, 157, 65, 85, 107, 1, 0.179784
176, 2, wb, filler, NA, 999, 999, 6, 6, 104, 86, 133, 156, 190, 78, 1, 1.28854
176, 2, wb, filler, NA, 999, 999, 6, 6, 104, 86, 133, 156, 190, 78, 2, 0.251458
176, 2, wb, attraction, a-b-db, 5, 3, 6, 7, 195, 120, 120, 195, 117, 190, 2, 3.14338
176, 2, wb, attraction, a-b-db, 5, 3, 6, 7, 195, 120, 120, 195, 117, 190, 1, 0.311685
176, 2, wb, attraction, a-b-da, 14, 2, 6, 8, 165, 90, 153, 83, 90, 165, 2, 2.40891
176, 2, wb, attraction, a-b-da, 14, 2, 6, 8, 165, 90, 153, 83, 90, 165, 3, 2.22286
176, 2, wb, attraction, a-b-db, 14, 1, 6, 9, 60, 135, 56, 125, 135, 60, 2, 6.57939
176, 2, wb, attraction, a-b-db, 14, 1, 6, 9, 60, 135, 56, 125, 135, 60, 1, 0.281143
176, 2, wb, attraction, a-b-da, 14, 1, 6, 10, 125, 56, 135, 60, 60, 135, 1, 1.51578
176, 2, wb, attraction, a-b-da, 14, 1, 6, 10, 125, 56, 135, 60, 60, 135, 2, 0.325955
176, 2, wb, filler, NA, 999, 999, 6, 11, 102, 152, 148, 126, 128, 120, 1, 4.36641
176, 2, wb, filler, NA, 999, 999, 6, 11, 102, 152, 148, 126, 128, 120, 2, 0.285744
176, 2, wb, attraction, a-b-da, 9, 3, 6, 12, 186, 114, 195, 120, 120, 195, 1, 3.96021
176, 2, wb, attraction, a-b-da, 9, 3, 6, 12, 186, 114, 195, 120, 120, 195, 3, 0.335592
176, 2, wb, attraction, a-b-db, 5, 1, 6, 13, 135, 60, 58, 132, 60, 135, 2, 7.03219
176, 2, wb, attraction, a-b-db, 5, 1, 6, 13, 135, 60, 58, 132, 60, 135, 1, 0.659887
176, 2, wb, attraction, a-b-da, 9, 1, 6, 14, 129, 57, 60, 135, 135, 60, 1, 2.19095
176, 2, wb, attraction, a-b-da, 9, 1, 6, 14, 129, 57, 60, 135, 135, 60, 3, 6.22964
176, 2, wb, attraction, a-b-db, 14, 2, 6, 15, 90, 165, 165, 90, 83, 153, 3, 2.48832
176, 2, wb, attraction, a-b-db, 14, 2, 6, 15, 90, 165, 165, 90, 83, 153, 2, 0.770846
176, 2, wb, filler, NA, 999, 999, 6, 16, 124, 159, 101, 101, 74, 174, 2, 0.99387
176, 2, wb, filler, NA, 999, 999, 6, 16, 124, 159, 101, 101, 74, 174, 1, 0.29685
176, 2, wb, attraction, a-b-da, 9, 2, 6, 17, 90, 165, 157, 86, 165, 90, 2, 3.10681
176, 2, wb, attraction, a-b-da, 9, 2, 6, 17, 90, 165, 157, 86, 165, 90, 1, 0.348367
176, 2, wb, attraction, a-b-db, 9, 3, 6, 18, 120, 195, 114, 186, 195, 120, 2, 2.86016
176, 2, wb, attraction, a-b-db, 9, 3, 6, 18, 120, 195, 114, 186, 195, 120, 3, 0.424093
176, 2, wb, filler, NA, 999, 999, 6, 19, 97, 98, 77, 172, 152, 132, 1, 1.57256
176, 2, wb, filler, NA, 999, 999, 6, 19, 97, 98, 77, 172, 152, 132, 3, 0.251861
176, 2, wb, attraction, a-b-db, 2, 2, 6, 20, 90, 165, 165, 90, 89, 163, 2, 2.31173
176, 2, wb, attraction, a-b-db, 2, 2, 6, 20, 90, 165, 165, 90, 89, 163, 1, 0.329578
176, 2, wb, attraction, a-b-da, 2, 3, 6, 21, 193, 119, 195, 120, 120, 195, 1, 3.43416
176, 2, wb, attraction, a-b-da, 2, 3, 6, 21, 193, 119, 195, 120, 120, 195, 3, 0.270979
176, 2, wb, filler, NA, 999, 999, 6, 22, 149, 146, 156, 68, 107, 149, 2, 0.86618
176, 2, wb, filler, NA, 999, 999, 6, 22, 149, 146, 156, 68, 107, 149, 1, 0.318686
176, 2, wb, catch, NA, 999, 999, 6, 23, 104, 151, 97, 98, 150, 165, 2, 0.69576
176, 2, wb, catch, NA, 999, 999, 6, 23, 104, 151, 97, 98, 150, 165, 3, 0.298873
176, 2, wb, attraction, a-b-db, 14, 3, 6, 24, 195, 120, 111, 181, 120, 195, 2, 2.73276
176, 2, wb, attraction, a-b-db, 14, 3, 6, 24, 195, 120, 111, 181, 120, 195, 1, 0.301838
176, 2, wb, attraction, a-b-db, 9, 1, 6, 25, 60, 135, 135, 60, 57, 129, 3, 6.11974
176, 2, wb, attraction, a-b-db, 9, 1, 6, 25, 60, 135, 135, 60, 57, 129, 1, 1.60839
176, 2, wb, attraction, a-b-da, 14, 3, 6, 26, 120, 195, 195, 120, 181, 111, 3, 1.69316
176, 2, wb, attraction, a-b-da, 14, 3, 6, 26, 120, 195, 195, 120, 181, 111, 2, 0.319923
176, 2, wb, filler, NA, 999, 999, 6, 27, 84, 87, 139, 59, 84, 175, 2, 1.46518
176, 2, wb, filler, NA, 999, 999, 6, 27, 84, 87, 139, 59, 84, 175, 3, 0.269312
176, 2, wb, catch, NA, 999, 999, 6, 28, 149, 166, 101, 94, 93, 162, 2, 0.632448
176, 2, wb, catch, NA, 999, 999, 6, 28, 149, 166, 101, 94, 93, 162, 1, 0.254309
176, 2, wb, attraction, a-b-da, 2, 1, 6, 29, 60, 135, 134, 59, 135, 60, 3, 4.43418
176, 2, wb, attraction, a-b-da, 2, 1, 6, 29, 60, 135, 134, 59, 135, 60, 1, 0.286734
176, 2, wb, attraction, a-b-da, 5, 1, 6, 30, 132, 58, 135, 60, 60, 135, 3, 5.73731
176, 2, wb, attraction, a-b-da, 5, 1, 6, 30, 132, 58, 135, 60, 60, 135, 2, 0.321509
176, 2, wb, catch, NA, 999, 999, 6, 31, 144, 111, 101, 94, 157, 158, 2, 0.77861
176, 2, wb, catch, NA, 999, 999, 6, 31, 144, 111, 101, 94, 157, 158, 3, 0.282385
176, 2, wb, attraction, a-b-da, 2, 2, 6, 32, 165, 90, 163, 89, 90, 165, 2, 4.84495
176, 2, wb, attraction, a-b-da, 2, 2, 6, 32, 165, 90, 163, 89, 90, 165, 3, 0.584649
176, 2, wb, attraction, a-b-db, 5, 2, 6, 33, 165, 90, 90, 165, 88, 161, 3, 2.75907
176, 2, wb, attraction, a-b-db, 5, 2, 6, 33, 165, 90, 90, 165, 88, 161, 1, 0.327013
176, 2, wb, filler, NA, 999, 999, 6, 34, 113, 181, 171, 71, 92, 134, 2, 4.42338
176, 2, wb, filler, NA, 999, 999, 6, 34, 113, 181, 171, 71, 92, 134, 1, 0.307999
176, 2, wb, attraction, a-b-da, 5, 2, 6, 35, 165, 90, 90, 165, 161, 88, 2, 2.90114
176, 2, wb, attraction, a-b-da, 5, 2, 6, 35, 165, 90, 90, 165, 161, 88, 1, 0.799528
176, 2, wb, attraction, a-b-da, 5, 3, 6, 36, 195, 120, 120, 195, 190, 117, 1, 47.1499
176, 2, wb, attraction, a-b-da, 5, 3, 6, 36, 195, 120, 120, 195, 190, 117, 2, 0.32858
176, 2, wb, attraction, a-b-db, 2, 3, 6, 37, 119, 193, 195, 120, 120, 195, 1, 5.45695
176, 2, wb, attraction, a-b-db, 2, 3, 6, 37, 119, 193, 195, 120, 120, 195, 2, 1.13212
176, 2, wb, attraction, a-b-da, 14, 2, 7, 1, 90, 165, 153, 83, 165, 90, 2, 3.1882
176, 2, wb, attraction, a-b-da, 14, 2, 7, 1, 90, 165, 153, 83, 165, 90, 1, 3.39449
176, 2, wb, attraction, a-b-db, 14, 1, 7, 2, 60, 135, 135, 60, 56, 125, 3, 1.39132
176, 2, wb, attraction, a-b-db, 14, 1, 7, 2, 60, 135, 135, 60, 56, 125, 2, 3.7103
176, 2, wb, attraction, a-b-da, 2, 1, 7, 3, 135, 60, 134, 59, 60, 135, 3, 6.83842
176, 2, wb, attraction, a-b-da, 2, 1, 7, 3, 135, 60, 134, 59, 60, 135, 1, 0.410162
176, 2, wb, attraction, a-b-db, 9, 3, 7, 4, 114, 186, 120, 195, 195, 120, 1, 7.75146
176, 2, wb, attraction, a-b-db, 9, 3, 7, 4, 114, 186, 120, 195, 195, 120, 3, 0.8542
176, 2, wb, filler, NA, 999, 999, 7, 5, 70, 90, 188, 105, 176, 58, 1, 0.713835
176, 2, wb, filler, NA, 999, 999, 7, 5, 70, 90, 188, 105, 176, 58, 2, 0.252402
176, 2, wb, attraction, a-b-db, 2, 1, 7, 6, 60, 135, 59, 134, 135, 60, 1, 3.81618
176, 2, wb, attraction, a-b-db, 2, 1, 7, 6, 60, 135, 59, 134, 135, 60, 3, 0.417937
176, 2, wb, attraction, a-b-db, 14, 3, 7, 7, 111, 181, 120, 195, 195, 120, 1, 1.18674
176, 2, wb, attraction, a-b-db, 14, 3, 7, 7, 111, 181, 120, 195, 195, 120, 3, 1.24238
176, 2, wb, attraction, a-b-da, 9, 3, 7, 8, 186, 114, 120, 195, 195, 120, 1, 2.66196
176, 2, wb, attraction, a-b-da, 9, 3, 7, 8, 186, 114, 120, 195, 195, 120, 3, 1.97777
176, 2, wb, attraction, a-b-db, 14, 2, 7, 9, 165, 90, 90, 165, 83, 153, 3, 2.31173
176, 2, wb, attraction, a-b-db, 14, 2, 7, 9, 165, 90, 90, 165, 83, 153, 1, 3.77769
176, 2, wb, attraction, a-b-db, 5, 1, 7, 10, 135, 60, 58, 132, 60, 135, 2, 1.23113
176, 2, wb, attraction, a-b-db, 5, 1, 7, 10, 135, 60, 58, 132, 60, 135, 3, 0.588739
176, 2, wb, attraction, a-b-db, 9, 2, 7, 11, 90, 165, 165, 90, 86, 157, 3, 1.95519
176, 2, wb, attraction, a-b-db, 9, 2, 7, 11, 90, 165, 165, 90, 86, 157, 2, 1.00303
176, 2, wb, filler, NA, 999, 999, 7, 12, 114, 97, 176, 131, 100, 195, 1, 0.672699
176, 2, wb, filler, NA, 999, 999, 7, 12, 114, 97, 176, 131, 100, 195, 2, 0.252483
176, 2, wb, attraction, a-b-db, 2, 3, 7, 13, 195, 120, 119, 193, 120, 195, 2, 2.1284
176, 2, wb, attraction, a-b-db, 2, 3, 7, 13, 195, 120, 119, 193, 120, 195, 3, 0.401666
176, 2, wb, filler, NA, 999, 999, 7, 14, 101, 72, 123, 56, 125, 165, 2, 2.23154
176, 2, wb, filler, NA, 999, 999, 7, 14, 101, 72, 123, 56, 125, 165, 3, 0.212771
176, 2, wb, attraction, a-b-da, 14, 1, 7, 15, 135, 60, 125, 56, 60, 135, 2, 4.51406
176, 2, wb, attraction, a-b-da, 14, 1, 7, 15, 135, 60, 125, 56, 60, 135, 3, 1.06719
176, 2, wb, filler, NA, 999, 999, 7, 16, 105, 183, 108, 145, 123, 88, 3, 1.4941
176, 2, wb, filler, NA, 999, 999, 7, 16, 105, 183, 108, 145, 123, 88, 1, 0.296941
176, 2, wb, catch, NA, 999, 999, 7, 17, 90, 165, 111, 84, 178, 137, 2, 1.25086
176, 2, wb, catch, NA, 999, 999, 7, 17, 90, 165, 111, 84, 178, 137, 3, 0.56772
176, 2, wb, attraction, a-b-db, 5, 2, 7, 18, 165, 90, 90, 165, 88, 161, 3, 3.13477
176, 2, wb, attraction, a-b-db, 5, 2, 7, 18, 165, 90, 90, 165, 88, 161, 2, 0.9598
176, 2, wb, attraction, a-b-db, 2, 2, 7, 19, 165, 90, 90, 165, 89, 163, 2, 1.73477
176, 2, wb, attraction, a-b-db, 2, 2, 7, 19, 165, 90, 90, 165, 89, 163, 3, 1.41628
176, 2, wb, filler, NA, 999, 999, 7, 20, 62, 136, 135, 194, 160, 78, 1, 0.597151
176, 2, wb, filler, NA, 999, 999, 7, 20, 62, 136, 135, 194, 160, 78, 2, 0.284255
176, 2, wb, attraction, a-b-da, 2, 3, 7, 21, 195, 120, 193, 119, 120, 195, 2, 2.44678
176, 2, wb, attraction, a-b-da, 2, 3, 7, 21, 195, 120, 193, 119, 120, 195, 3, 1.20335
176, 2, wb, attraction, a-b-da, 5, 3, 7, 22, 190, 117, 120, 195, 195, 120, 1, 3.03273
176, 2, wb, attraction, a-b-da, 5, 3, 7, 22, 190, 117, 120, 195, 195, 120, 3, 0.525828
176, 2, wb, attraction, a-b-da, 5, 2, 7, 23, 165, 90, 161, 88, 90, 165, 1, 5.31826
176, 2, wb, attraction, a-b-da, 5, 2, 7, 23, 165, 90, 161, 88, 90, 165, 2, 1.19125
176, 2, wb, attraction, a-b-db, 9, 1, 7, 24, 135, 60, 60, 135, 57, 129, 3, 2.5408
176, 2, wb, attraction, a-b-db, 9, 1, 7, 24, 135, 60, 60, 135, 57, 129, 2, 1.22938
176, 2, wb, attraction, a-b-da, 2, 2, 7, 25, 163, 89, 165, 90, 90, 165, 2, 1.7615
176, 2, wb, attraction, a-b-da, 2, 2, 7, 25, 163, 89, 165, 90, 90, 165, 3, 1.08964
176, 2, wb, attraction, a-b-db, 5, 3, 7, 26, 120, 195, 117, 190, 195, 120, 2, 4.89134
176, 2, wb, attraction, a-b-db, 5, 3, 7, 26, 120, 195, 117, 190, 195, 120, 1, 0.372975
176, 2, wb, attraction, a-b-da, 9, 2, 7, 27, 90, 165, 165, 90, 157, 86, 3, 2.15546
176, 2, wb, attraction, a-b-da, 9, 2, 7, 27, 90, 165, 165, 90, 157, 86, 1, 2.80361
176, 2, wb, attraction, a-b-da, 5, 1, 7, 28, 60, 135, 132, 58, 135, 60, 2, 2.14469
176, 2, wb, attraction, a-b-da, 5, 1, 7, 28, 60, 135, 132, 58, 135, 60, 3, 1.68928
176, 2, wb, attraction, a-b-da, 14, 3, 7, 29, 181, 111, 120, 195, 195, 120, 1, 2.7553
176, 2, wb, attraction, a-b-da, 14, 3, 7, 29, 181, 111, 120, 195, 195, 120, 2, 1.44308
176, 2, wb, catch, NA, 999, 999, 7, 30, 154, 161, 131, 124, 101, 94, 3, 0.702542
176, 2, wb, catch, NA, 999, 999, 7, 30, 154, 161, 131, 124, 101, 94, 1, 0.40972
176, 2, wb, filler, NA, 999, 999, 7, 31, 56, 172, 179, 148, 147, 166, 1, 1.02288
176, 2, wb, filler, NA, 999, 999, 7, 31, 56, 172, 179, 148, 147, 166, 2, 2.06042
176, 2, wb, catch, NA, 999, 999, 7, 32, 149, 106, 151, 164, 129, 66, 3, 0.687118
176, 2, wb, catch, NA, 999, 999, 7, 32, 149, 106, 151, 164, 129, 66, 2, 0.290215
176, 2, wb, filler, NA, 999, 999, 7, 33, 107, 113, 161, 110, 125, 127, 1, 5.18805
176, 2, wb, filler, NA, 999, 999, 7, 33, 107, 113, 161, 110, 125, 127, 2, 2.56158
176, 2, wb, filler, NA, 999, 999, 7, 34, 72, 164, 83, 105, 123, 190, 2, 0.640135
176, 2, wb, filler, NA, 999, 999, 7, 34, 72, 164, 83, 105, 123, 190, 3, 0.245265
176, 2, wb, filler, NA, 999, 999, 7, 35, 103, 124, 124, 148, 187, 164, 1, 0.753073
176, 2, wb, filler, NA, 999, 999, 7, 35, 103, 124, 124, 148, 187, 164, 3, 0.298156
176, 2, wb, attraction, a-b-da, 9, 1, 7, 36, 129, 57, 60, 135, 135, 60, 1, 3.60404
176, 2, wb, attraction, a-b-da, 9, 1, 7, 36, 129, 57, 60, 135, 135, 60, 3, 2.0423
176, 2, wb, filler, NA, 999, 999, 7, 37, 109, 154, 64, 170, 137, 123, 2, 3.17351
176, 2, wb, filler, NA, 999, 999, 7, 37, 109, 154, 64, 170, 137, 123, 3, 3.00462
176, 2, wb, attraction, a-b-db, 14, 3, 8, 1, 120, 195, 195, 120, 111, 181, 3, 1.46563
176, 2, wb, attraction, a-b-db, 14, 3, 8, 1, 120, 195, 195, 120, 111, 181, 1, 1.40582
176, 2, wb, attraction, a-b-da, 9, 2, 8, 2, 90, 165, 157, 86, 165, 90, 2, 5.97923
176, 2, wb, attraction, a-b-da, 9, 2, 8, 2, 90, 165, 157, 86, 165, 90, 1, 1.26528
176, 2, wb, attraction, a-b-da, 5, 3, 8, 3, 195, 120, 120, 195, 190, 117, 3, 6.19629
176, 2, wb, attraction, a-b-da, 5, 3, 8, 3, 195, 120, 120, 195, 190, 117, 2, 0.353544
176, 2, wb, attraction, a-b-db, 5, 2, 8, 4, 88, 161, 90, 165, 165, 90, 1, 3.82542
176, 2, wb, attraction, a-b-db, 5, 2, 8, 4, 88, 161, 90, 165, 165, 90, 2, 5.06222
176, 2, wb, attraction, a-b-db, 2, 3, 8, 5, 195, 120, 119, 193, 120, 195, 2, 3.01587
176, 2, wb, attraction, a-b-db, 2, 3, 8, 5, 195, 120, 119, 193, 120, 195, 3, 2.58968
176, 2, wb, attraction, a-b-db, 2, 1, 8, 6, 60, 135, 135, 60, 59, 134, 1, 3.7393
176, 2, wb, attraction, a-b-db, 2, 1, 8, 6, 60, 135, 135, 60, 59, 134, 2, 1.4435
176, 2, wb, filler, NA, 999, 999, 8, 7, 86, 181, 105, 155, 180, 109, 1, 3.42291
176, 2, wb, filler, NA, 999, 999, 8, 7, 86, 181, 105, 155, 180, 109, 3, 0.459879
176, 2, wb, filler, NA, 999, 999, 8, 8, 102, 147, 100, 144, 176, 102, 1, 22.335
176, 2, wb, filler, NA, 999, 999, 8, 8, 102, 147, 100, 144, 176, 102, 3, 0.466106
176, 2, wb, attraction, a-b-da, 9, 1, 8, 9, 60, 135, 135, 60, 129, 57, 3, 1.6212
176, 2, wb, attraction, a-b-da, 9, 1, 8, 9, 60, 135, 135, 60, 129, 57, 1, 1.53065
176, 2, wb, attraction, a-b-da, 5, 1, 8, 10, 132, 58, 135, 60, 60, 135, 1, 1.56268
176, 2, wb, attraction, a-b-da, 5, 1, 8, 10, 132, 58, 135, 60, 60, 135, 3, 0.506877
176, 2, wb, catch, NA, 999, 999, 8, 11, 158, 157, 114, 81, 144, 111, 2, 0.563988
176, 2, wb, catch, NA, 999, 999, 8, 11, 158, 157, 114, 81, 144, 111, 1, 0.212479
176, 2, wb, filler, NA, 999, 999, 8, 12, 114, 103, 167, 164, 153, 132, 1, 0.689666
176, 2, wb, filler, NA, 999, 999, 8, 12, 114, 103, 167, 164, 153, 132, 2, 0.220721
176, 2, wb, attraction, a-b-db, 2, 2, 8, 13, 89, 163, 165, 90, 90, 165, 2, 3.26598
176, 2, wb, attraction, a-b-db, 2, 2, 8, 13, 89, 163, 165, 90, 90, 165, 1, 0.349605
176, 2, wb, attraction, a-b-db, 14, 1, 8, 14, 60, 135, 56, 125, 135, 60, 2, 1.01341
176, 2, wb, attraction, a-b-db, 14, 1, 8, 14, 60, 135, 56, 125, 135, 60, 1, 1.28394
176, 2, wb, attraction, a-b-db, 5, 3, 8, 15, 120, 195, 117, 190, 195, 120, 2, 2.75797
176, 2, wb, attraction, a-b-db, 5, 3, 8, 15, 120, 195, 117, 190, 195, 120, 3, 1.48581
176, 2, wb, filler, NA, 999, 999, 8, 16, 56, 140, 71, 139, 162, 134, 1, 1.00784
176, 2, wb, filler, NA, 999, 999, 8, 16, 56, 140, 71, 139, 162, 134, 3, 0.318198
176, 2, wb, attraction, a-b-da, 2, 2, 8, 17, 90, 165, 165, 90, 163, 89, 3, 11.3594
176, 2, wb, attraction, a-b-da, 2, 2, 8, 17, 90, 165, 165, 90, 163, 89, 2, 1.5966
176, 2, wb, attraction, a-b-db, 5, 1, 8, 18, 135, 60, 60, 135, 58, 132, 1, 1.96987
176, 2, wb, attraction, a-b-db, 5, 1, 8, 18, 135, 60, 60, 135, 58, 132, 2, 1.1619
176, 2, wb, filler, NA, 999, 999, 8, 19, 189, 120, 151, 171, 167, 89, 3, 0.864868
176, 2, wb, filler, NA, 999, 999, 8, 19, 189, 120, 151, 171, 167, 89, 2, 0.46122
176, 2, wb, attraction, a-b-da, 14, 1, 8, 20, 135, 60, 60, 135, 125, 56, 3, 2.00034
176, 2, wb, attraction, a-b-da, 14, 1, 8, 20, 135, 60, 60, 135, 125, 56, 2, 4.0791
176, 2, wb, attraction, a-b-db, 9, 2, 8, 21, 86, 157, 165, 90, 90, 165, 1, 1.58436
176, 2, wb, attraction, a-b-db, 9, 2, 8, 21, 86, 157, 165, 90, 90, 165, 3, 1.47991
176, 2, wb, catch, NA, 999, 999, 8, 22, 87, 108, 162, 153, 116, 139, 1, 0.769917
176, 2, wb, catch, NA, 999, 999, 8, 22, 87, 108, 162, 153, 116, 139, 2, 0.23431
176, 2, wb, filler, NA, 999, 999, 8, 23, 94, 84, 112, 65, 90, 72, 3, 3.67093
176, 2, wb, filler, NA, 999, 999, 8, 23, 94, 84, 112, 65, 90, 72, 1, 1.57776
176, 2, wb, attraction, a-b-da, 14, 2, 8, 24, 153, 83, 90, 165, 165, 90, 1, 1.75987
176, 2, wb, attraction, a-b-da, 14, 2, 8, 24, 153, 83, 90, 165, 165, 90, 2, 0.376026
176, 2, wb, attraction, a-b-da, 2, 1, 8, 25, 134, 59, 60, 135, 135, 60, 1, 3.43846
176, 2, wb, attraction, a-b-da, 2, 1, 8, 25, 134, 59, 60, 135, 135, 60, 3, 1.1388
176, 2, wb, filler, NA, 999, 999, 8, 26, 119, 71, 183, 92, 120, 183, 1, 0.850996
176, 2, wb, filler, NA, 999, 999, 8, 26, 119, 71, 183, 92, 120, 183, 3, 0.279978
176, 2, wb, catch, NA, 999, 999, 8, 27, 194, 121, 148, 107, 83, 112, 3, 0.890423
176, 2, wb, catch, NA, 999, 999, 8, 27, 194, 121, 148, 107, 83, 112, 1, 0.413696
176, 2, wb, filler, NA, 999, 999, 8, 28, 77, 146, 123, 194, 93, 129, 1, 1.1946
176, 2, wb, filler, NA, 999, 999, 8, 28, 77, 146, 123, 194, 93, 129, 2, 0.489628
176, 2, wb, attraction, a-b-db, 9, 3, 8, 29, 195, 120, 120, 195, 114, 186, 3, 3.27538
176, 2, wb, attraction, a-b-db, 9, 3, 8, 29, 195, 120, 120, 195, 114, 186, 2, 1.04623
176, 2, wb, attraction, a-b-da, 9, 3, 8, 30, 186, 114, 195, 120, 120, 195, 1, 2.01784
176, 2, wb, attraction, a-b-da, 9, 3, 8, 30, 186, 114, 195, 120, 120, 195, 2, 1.82399
176, 2, wb, attraction, a-b-da, 5, 2, 8, 31, 161, 88, 165, 90, 90, 165, 2, 8.09215
176, 2, wb, attraction, a-b-da, 5, 2, 8, 31, 161, 88, 165, 90, 90, 165, 3, 0.676825
176, 2, wb, attraction, a-b-da, 2, 3, 8, 32, 120, 195, 193, 119, 195, 120, 3, 8.15922
176, 2, wb, attraction, a-b-da, 2, 3, 8, 32, 120, 195, 193, 119, 195, 120, 1, 0.277239
176, 2, wb, attraction, a-b-da, 14, 3, 8, 33, 181, 111, 120, 195, 195, 120, 1, 1.67176
176, 2, wb, attraction, a-b-da, 14, 3, 8, 33, 181, 111, 120, 195, 195, 120, 2, 0.25923
176, 2, wb, attraction, a-b-db, 14, 2, 8, 34, 165, 90, 83, 153, 90, 165, 2, 3.56637
176, 2, wb, attraction, a-b-db, 14, 2, 8, 34, 165, 90, 83, 153, 90, 165, 1, 0.23798
176, 2, wb, attraction, a-b-db, 9, 1, 8, 35, 135, 60, 60, 135, 57, 129, 3, 4.98652
176, 2, wb, attraction, a-b-db, 9, 1, 8, 35, 135, 60, 60, 135, 57, 129, 1, 0.537014
176, 2, wb, filler, NA, 999, 999, 8, 36, 92, 191, 129, 183, 194, 134, 1, 1.34534
176, 2, wb, filler, NA, 999, 999, 8, 36, 92, 191, 129, 183, 194, 134, 2, 0.266357
176, 2, wb, filler, NA, 999, 999, 8, 37, 138, 190, 192, 118, 154, 183, 2, 1.87741
176, 2, wb, filler, NA, 999, 999, 8, 37, 138, 190, 192, 118, 154, 183, 3, 0.248833
