sub_n, computer_n, bw_cond, effect, set, distance, diag, block_n, trial_n, h1, w1, h2, w2, h3, w3, choice, rt 
145, 2, bw, practice, NA, 999, 999, 0, 1, 133, 77, 164, 184, 75, 69, 2, 4.66389
145, 2, bw, practice, NA, 999, 999, 0, 1, 133, 77, 164, 184, 75, 69, 3, 2.77718
145, 2, bw, practice, NA, 999, 999, 0, 2, 168, 178, 119, 109, 135, 171, 1, 4.40365
145, 2, bw, practice, NA, 999, 999, 0, 2, 168, 178, 119, 109, 135, 171, 2, 2.2605
145, 2, bw, practice, NA, 999, 999, 0, 3, 168, 94, 102, 102, 139, 138, 1, 5.25205
145, 2, bw, practice, NA, 999, 999, 0, 3, 168, 94, 102, 102, 139, 138, 2, 1.99128
145, 2, bw, filler, NA, 999, 999, 1, 1, 91, 186, 73, 102, 122, 108, 1, 2.44953
145, 2, bw, filler, NA, 999, 999, 1, 1, 91, 186, 73, 102, 122, 108, 2, 1.31818
145, 2, bw, attraction, a-b-da, 9, 1, 1, 2, 129, 57, 135, 60, 60, 135, 3, 3.63905
145, 2, bw, attraction, a-b-da, 9, 1, 1, 2, 129, 57, 135, 60, 60, 135, 1, 1.51514
145, 2, bw, catch, NA, 999, 999, 1, 3, 142, 113, 91, 104, 148, 167, 3, 3.15599
145, 2, bw, catch, NA, 999, 999, 1, 3, 142, 113, 91, 104, 148, 167, 2, 1.16362
145, 2, bw, filler, NA, 999, 999, 1, 4, 93, 156, 143, 78, 182, 106, 3, 2.4025
145, 2, bw, filler, NA, 999, 999, 1, 4, 93, 156, 143, 78, 182, 106, 2, 1.01709
145, 2, bw, attraction, a-b-da, 2, 3, 1, 5, 195, 120, 193, 119, 120, 195, 3, 2.55002
145, 2, bw, attraction, a-b-da, 2, 3, 1, 5, 195, 120, 193, 119, 120, 195, 2, 2.3426
145, 2, bw, attraction, a-b-da, 5, 2, 1, 6, 90, 165, 165, 90, 161, 88, 1, 3.15773
145, 2, bw, attraction, a-b-da, 5, 2, 1, 6, 90, 165, 165, 90, 161, 88, 3, 1.12545
145, 2, bw, catch, NA, 999, 999, 1, 7, 106, 149, 119, 76, 120, 195, 3, 1.87759
145, 2, bw, catch, NA, 999, 999, 1, 7, 106, 149, 119, 76, 120, 195, 2, 0.969069
145, 2, bw, attraction, a-b-db, 14, 3, 1, 8, 195, 120, 120, 195, 111, 181, 2, 3.36011
145, 2, bw, attraction, a-b-db, 14, 3, 1, 8, 195, 120, 120, 195, 111, 181, 3, 2.52763
145, 2, bw, attraction, a-b-db, 5, 2, 1, 9, 88, 161, 165, 90, 90, 165, 1, 3.23142
145, 2, bw, attraction, a-b-db, 5, 2, 1, 9, 88, 161, 165, 90, 90, 165, 2, 0.684459
145, 2, bw, attraction, a-b-da, 2, 1, 1, 10, 60, 135, 134, 59, 135, 60, 1, 2.20671
145, 2, bw, attraction, a-b-da, 2, 1, 1, 10, 60, 135, 134, 59, 135, 60, 2, 0.812768
145, 2, bw, attraction, a-b-da, 14, 1, 1, 11, 60, 135, 125, 56, 135, 60, 1, 2.23377
145, 2, bw, attraction, a-b-da, 14, 1, 1, 11, 60, 135, 125, 56, 135, 60, 2, 0.511038
145, 2, bw, filler, NA, 999, 999, 1, 12, 191, 94, 91, 93, 110, 144, 1, 2.07209
145, 2, bw, filler, NA, 999, 999, 1, 12, 191, 94, 91, 93, 110, 144, 2, 0.523486
145, 2, bw, attraction, a-b-db, 9, 2, 1, 13, 165, 90, 86, 157, 90, 165, 1, 3.41205
145, 2, bw, attraction, a-b-db, 9, 2, 1, 13, 165, 90, 86, 157, 90, 165, 2, 0.465534
145, 2, bw, attraction, a-b-db, 14, 1, 1, 14, 56, 125, 60, 135, 135, 60, 2, 1.90854
145, 2, bw, attraction, a-b-db, 14, 1, 1, 14, 56, 125, 60, 135, 135, 60, 3, 0.894604
145, 2, bw, attraction, a-b-db, 9, 1, 1, 15, 60, 135, 135, 60, 57, 129, 1, 1.89631
145, 2, bw, attraction, a-b-db, 9, 1, 1, 15, 60, 135, 135, 60, 57, 129, 3, 2.00303
145, 2, bw, attraction, a-b-db, 2, 1, 1, 16, 135, 60, 60, 135, 59, 134, 1, 1.68838
145, 2, bw, attraction, a-b-db, 2, 1, 1, 16, 135, 60, 60, 135, 59, 134, 2, 0.859071
145, 2, bw, attraction, a-b-db, 14, 2, 1, 17, 83, 153, 165, 90, 90, 165, 3, 1.31008
145, 2, bw, attraction, a-b-db, 14, 2, 1, 17, 83, 153, 165, 90, 90, 165, 1, 1.48037
145, 2, bw, attraction, a-b-da, 9, 3, 1, 18, 120, 195, 195, 120, 186, 114, 1, 2.37052
145, 2, bw, attraction, a-b-da, 9, 3, 1, 18, 120, 195, 195, 120, 186, 114, 2, 1.31455
145, 2, bw, filler, NA, 999, 999, 1, 19, 58, 87, 165, 172, 60, 154, 2, 1.13923
145, 2, bw, filler, NA, 999, 999, 1, 19, 58, 87, 165, 172, 60, 154, 1, 0.644189
145, 2, bw, attraction, a-b-db, 2, 2, 1, 20, 89, 163, 90, 165, 165, 90, 3, 3.6961
145, 2, bw, attraction, a-b-db, 2, 2, 1, 20, 89, 163, 90, 165, 165, 90, 2, 0.690158
145, 2, bw, attraction, a-b-db, 5, 3, 1, 21, 120, 195, 195, 120, 117, 190, 1, 0.92383
145, 2, bw, attraction, a-b-db, 5, 3, 1, 21, 120, 195, 195, 120, 117, 190, 3, 1.2135
145, 2, bw, filler, NA, 999, 999, 1, 22, 85, 68, 88, 171, 149, 75, 2, 1.37842
145, 2, bw, filler, NA, 999, 999, 1, 22, 85, 68, 88, 171, 149, 75, 1, 1.15396
145, 2, bw, catch, NA, 999, 999, 1, 23, 162, 93, 92, 103, 159, 156, 3, 1.52956
145, 2, bw, catch, NA, 999, 999, 1, 23, 162, 93, 92, 103, 159, 156, 2, 1.56303
145, 2, bw, attraction, a-b-da, 5, 1, 1, 24, 132, 58, 135, 60, 60, 135, 1, 1.64992
145, 2, bw, attraction, a-b-da, 5, 1, 1, 24, 132, 58, 135, 60, 60, 135, 2, 0.918583
145, 2, bw, attraction, a-b-da, 2, 2, 1, 25, 90, 165, 163, 89, 165, 90, 1, 3.94354
145, 2, bw, attraction, a-b-da, 2, 2, 1, 25, 90, 165, 163, 89, 165, 90, 2, 1.12763
145, 2, bw, attraction, a-b-da, 14, 2, 1, 26, 165, 90, 153, 83, 90, 165, 1, 1.07192
145, 2, bw, attraction, a-b-da, 14, 2, 1, 26, 165, 90, 153, 83, 90, 165, 2, 0.715538
145, 2, bw, attraction, a-b-db, 5, 1, 1, 27, 58, 132, 135, 60, 60, 135, 3, 1.71658
145, 2, bw, attraction, a-b-db, 5, 1, 1, 27, 58, 132, 135, 60, 60, 135, 2, 0.622719
145, 2, bw, filler, NA, 999, 999, 1, 28, 106, 84, 101, 138, 114, 158, 3, 1.86779
145, 2, bw, filler, NA, 999, 999, 1, 28, 106, 84, 101, 138, 114, 158, 1, 1.47188
145, 2, bw, filler, NA, 999, 999, 1, 29, 134, 187, 125, 172, 164, 142, 1, 2.07486
145, 2, bw, filler, NA, 999, 999, 1, 29, 134, 187, 125, 172, 164, 142, 2, 0.597981
145, 2, bw, attraction, a-b-db, 2, 3, 1, 30, 119, 193, 195, 120, 120, 195, 3, 1.67584
145, 2, bw, attraction, a-b-db, 2, 3, 1, 30, 119, 193, 195, 120, 120, 195, 2, 0.439296
145, 2, bw, attraction, a-b-da, 9, 2, 1, 31, 90, 165, 157, 86, 165, 90, 3, 1.71512
145, 2, bw, attraction, a-b-da, 9, 2, 1, 31, 90, 165, 157, 86, 165, 90, 2, 0.725167
145, 2, bw, filler, NA, 999, 999, 1, 32, 173, 147, 82, 118, 65, 76, 1, 0.677515
145, 2, bw, filler, NA, 999, 999, 1, 32, 173, 147, 82, 118, 65, 76, 3, 0.625261
145, 2, bw, attraction, a-b-da, 14, 3, 1, 33, 181, 111, 195, 120, 120, 195, 2, 1.4858
145, 2, bw, attraction, a-b-da, 14, 3, 1, 33, 181, 111, 195, 120, 120, 195, 1, 0.841145
145, 2, bw, attraction, a-b-db, 9, 3, 1, 34, 114, 186, 120, 195, 195, 120, 1, 1.13281
145, 2, bw, attraction, a-b-db, 9, 3, 1, 34, 114, 186, 120, 195, 195, 120, 3, 1.64641
145, 2, bw, attraction, a-b-da, 5, 3, 1, 35, 120, 195, 190, 117, 195, 120, 1, 3.07398
145, 2, bw, attraction, a-b-da, 5, 3, 1, 35, 120, 195, 190, 117, 195, 120, 2, 0.852909
145, 2, bw, filler, NA, 999, 999, 1, 36, 84, 95, 116, 102, 176, 58, 3, 1.4246
145, 2, bw, filler, NA, 999, 999, 1, 36, 84, 95, 116, 102, 176, 58, 1, 1.06209
145, 2, bw, filler, NA, 999, 999, 1, 37, 73, 90, 152, 84, 126, 81, 2, 1.65707
145, 2, bw, filler, NA, 999, 999, 1, 37, 73, 90, 152, 84, 126, 81, 1, 1.42911
145, 2, bw, attraction, a-b-da, 5, 3, 2, 1, 190, 117, 120, 195, 195, 120, 3, 1.45739
145, 2, bw, attraction, a-b-da, 5, 3, 2, 1, 190, 117, 120, 195, 195, 120, 1, 0.837463
145, 2, bw, attraction, a-b-db, 14, 1, 2, 2, 135, 60, 60, 135, 56, 125, 2, 1.23396
145, 2, bw, attraction, a-b-db, 14, 1, 2, 2, 135, 60, 60, 135, 56, 125, 3, 1.16751
145, 2, bw, attraction, a-b-db, 14, 3, 2, 3, 120, 195, 195, 120, 111, 181, 1, 0.958495
145, 2, bw, attraction, a-b-db, 14, 3, 2, 3, 120, 195, 195, 120, 111, 181, 3, 0.82267
145, 2, bw, attraction, a-b-db, 14, 2, 2, 4, 165, 90, 83, 153, 90, 165, 1, 0.93971
145, 2, bw, attraction, a-b-db, 14, 2, 2, 4, 165, 90, 83, 153, 90, 165, 2, 0.644739
145, 2, bw, attraction, a-b-da, 5, 2, 2, 5, 165, 90, 161, 88, 90, 165, 1, 0.680463
145, 2, bw, attraction, a-b-da, 5, 2, 2, 5, 165, 90, 161, 88, 90, 165, 3, 0.988238
145, 2, bw, filler, NA, 999, 999, 2, 6, 131, 163, 100, 126, 61, 93, 1, 0.946526
145, 2, bw, filler, NA, 999, 999, 2, 6, 131, 163, 100, 126, 61, 93, 3, 0.747516
145, 2, bw, filler, NA, 999, 999, 2, 7, 126, 163, 140, 61, 101, 139, 1, 0.699293
145, 2, bw, filler, NA, 999, 999, 2, 7, 126, 163, 140, 61, 101, 139, 2, 0.934402
145, 2, bw, attraction, a-b-da, 9, 3, 2, 8, 195, 120, 120, 195, 186, 114, 1, 3.69465
145, 2, bw, attraction, a-b-da, 9, 3, 2, 8, 195, 120, 120, 195, 186, 114, 2, 0.584797
145, 2, bw, attraction, a-b-da, 14, 1, 2, 9, 60, 135, 125, 56, 135, 60, 1, 0.983231
145, 2, bw, attraction, a-b-da, 14, 1, 2, 9, 60, 135, 125, 56, 135, 60, 2, 0.590944
145, 2, bw, attraction, a-b-da, 2, 1, 2, 10, 60, 135, 135, 60, 134, 59, 1, 0.772797
145, 2, bw, attraction, a-b-da, 2, 1, 2, 10, 60, 135, 135, 60, 134, 59, 2, 0.804408
145, 2, bw, attraction, a-b-da, 2, 3, 2, 11, 120, 195, 193, 119, 195, 120, 1, 1.38606
145, 2, bw, attraction, a-b-da, 2, 3, 2, 11, 120, 195, 193, 119, 195, 120, 3, 0.849601
145, 2, bw, catch, NA, 999, 999, 2, 12, 146, 109, 107, 88, 180, 135, 3, 1.20527
145, 2, bw, catch, NA, 999, 999, 2, 12, 146, 109, 107, 88, 180, 135, 2, 0.523547
145, 2, bw, attraction, a-b-da, 5, 1, 2, 13, 135, 60, 132, 58, 60, 135, 3, 1.98806
145, 2, bw, attraction, a-b-da, 5, 1, 2, 13, 135, 60, 132, 58, 60, 135, 2, 0.522633
145, 2, bw, attraction, a-b-db, 9, 3, 2, 14, 114, 186, 195, 120, 120, 195, 3, 2.6438
145, 2, bw, attraction, a-b-db, 9, 3, 2, 14, 114, 186, 195, 120, 120, 195, 2, 0.632222
145, 2, bw, catch, NA, 999, 999, 2, 15, 131, 64, 193, 122, 149, 106, 2, 1.03686
145, 2, bw, catch, NA, 999, 999, 2, 15, 131, 64, 193, 122, 149, 106, 1, 0.714415
145, 2, bw, filler, NA, 999, 999, 2, 16, 129, 116, 97, 157, 193, 96, 3, 0.819699
145, 2, bw, filler, NA, 999, 999, 2, 16, 129, 116, 97, 157, 193, 96, 2, 0.705854
145, 2, bw, attraction, a-b-da, 9, 2, 2, 17, 90, 165, 157, 86, 165, 90, 1, 0.883506
145, 2, bw, attraction, a-b-da, 9, 2, 2, 17, 90, 165, 157, 86, 165, 90, 2, 0.543226
145, 2, bw, filler, NA, 999, 999, 2, 18, 140, 109, 117, 173, 113, 141, 2, 2.32697
145, 2, bw, filler, NA, 999, 999, 2, 18, 140, 109, 117, 173, 113, 141, 1, 0.536148
145, 2, bw, attraction, a-b-db, 2, 2, 2, 19, 89, 163, 90, 165, 165, 90, 3, 0.808635
145, 2, bw, attraction, a-b-db, 2, 2, 2, 19, 89, 163, 90, 165, 165, 90, 2, 0.703064
145, 2, bw, filler, NA, 999, 999, 2, 20, 171, 123, 163, 123, 164, 153, 3, 1.14488
145, 2, bw, filler, NA, 999, 999, 2, 20, 171, 123, 163, 123, 164, 153, 1, 0.553693
145, 2, bw, attraction, a-b-db, 5, 3, 2, 21, 195, 120, 120, 195, 117, 190, 1, 0.865464
145, 2, bw, attraction, a-b-db, 5, 3, 2, 21, 195, 120, 120, 195, 117, 190, 3, 0.622032
145, 2, bw, attraction, a-b-db, 9, 2, 2, 22, 90, 165, 86, 157, 165, 90, 3, 3.69102
145, 2, bw, attraction, a-b-db, 9, 2, 2, 22, 90, 165, 86, 157, 165, 90, 2, 0.741118
145, 2, bw, filler, NA, 999, 999, 2, 23, 80, 121, 152, 69, 58, 106, 1, 0.58881
145, 2, bw, filler, NA, 999, 999, 2, 23, 80, 121, 152, 69, 58, 106, 3, 1.56397
145, 2, bw, attraction, a-b-db, 5, 1, 2, 24, 58, 132, 135, 60, 60, 135, 3, 1.65871
145, 2, bw, attraction, a-b-db, 5, 1, 2, 24, 58, 132, 135, 60, 60, 135, 1, 0.606874
145, 2, bw, filler, NA, 999, 999, 2, 25, 153, 96, 62, 110, 174, 127, 3, 0.851873
145, 2, bw, filler, NA, 999, 999, 2, 25, 153, 96, 62, 110, 174, 127, 2, 0.505092
145, 2, bw, catch, NA, 999, 999, 2, 26, 86, 109, 139, 176, 140, 115, 2, 1.16275
145, 2, bw, catch, NA, 999, 999, 2, 26, 86, 109, 139, 176, 140, 115, 1, 0.475015
145, 2, bw, attraction, a-b-da, 2, 2, 2, 27, 90, 165, 163, 89, 165, 90, 3, 1.09349
145, 2, bw, attraction, a-b-da, 2, 2, 2, 27, 90, 165, 163, 89, 165, 90, 2, 0.512473
145, 2, bw, attraction, a-b-db, 2, 3, 2, 28, 120, 195, 119, 193, 195, 120, 2, 3.52948
145, 2, bw, attraction, a-b-db, 2, 3, 2, 28, 120, 195, 119, 193, 195, 120, 3, 0.674555
145, 2, bw, filler, NA, 999, 999, 2, 29, 149, 86, 126, 165, 152, 153, 2, 1.08479
145, 2, bw, filler, NA, 999, 999, 2, 29, 149, 86, 126, 165, 152, 153, 1, 0.760457
145, 2, bw, attraction, a-b-da, 9, 1, 2, 30, 60, 135, 135, 60, 129, 57, 1, 1.36748
145, 2, bw, attraction, a-b-da, 9, 1, 2, 30, 60, 135, 135, 60, 129, 57, 3, 0.679681
145, 2, bw, attraction, a-b-db, 5, 2, 2, 31, 90, 165, 88, 161, 165, 90, 3, 1.17819
145, 2, bw, attraction, a-b-db, 5, 2, 2, 31, 90, 165, 88, 161, 165, 90, 2, 0.633683
145, 2, bw, attraction, a-b-db, 9, 1, 2, 32, 135, 60, 57, 129, 60, 135, 3, 2.11005
145, 2, bw, attraction, a-b-db, 9, 1, 2, 32, 135, 60, 57, 129, 60, 135, 1, 0.49611
145, 2, bw, attraction, a-b-da, 14, 3, 2, 33, 195, 120, 120, 195, 181, 111, 1, 1.12994
145, 2, bw, attraction, a-b-da, 14, 3, 2, 33, 195, 120, 120, 195, 181, 111, 3, 0.635507
145, 2, bw, attraction, a-b-da, 14, 2, 2, 34, 153, 83, 165, 90, 90, 165, 3, 1.23994
145, 2, bw, attraction, a-b-da, 14, 2, 2, 34, 153, 83, 165, 90, 90, 165, 1, 0.46084
145, 2, bw, attraction, a-b-db, 2, 1, 2, 35, 135, 60, 60, 135, 59, 134, 2, 1.04798
145, 2, bw, attraction, a-b-db, 2, 1, 2, 35, 135, 60, 60, 135, 59, 134, 1, 0.589094
145, 2, bw, filler, NA, 999, 999, 2, 36, 141, 159, 131, 94, 79, 100, 1, 0.651433
145, 2, bw, filler, NA, 999, 999, 2, 36, 141, 159, 131, 94, 79, 100, 3, 0.480595
145, 2, bw, filler, NA, 999, 999, 2, 37, 77, 78, 131, 125, 139, 129, 3, 0.890914
145, 2, bw, filler, NA, 999, 999, 2, 37, 77, 78, 131, 125, 139, 129, 1, 0.461944
145, 2, bw, attraction, a-b-da, 9, 1, 3, 1, 60, 135, 129, 57, 135, 60, 1, 0.817019
145, 2, bw, attraction, a-b-da, 9, 1, 3, 1, 60, 135, 129, 57, 135, 60, 3, 0.647398
145, 2, bw, attraction, a-b-da, 5, 2, 3, 2, 161, 88, 165, 90, 90, 165, 2, 1.00328
145, 2, bw, attraction, a-b-da, 5, 2, 3, 2, 161, 88, 165, 90, 90, 165, 1, 0.570222
145, 2, bw, attraction, a-b-da, 14, 1, 3, 3, 135, 60, 60, 135, 125, 56, 1, 0.825257
145, 2, bw, attraction, a-b-da, 14, 1, 3, 3, 135, 60, 60, 135, 125, 56, 3, 0.71896
145, 2, bw, attraction, a-b-db, 5, 2, 3, 4, 90, 165, 165, 90, 88, 161, 1, 0.888105
145, 2, bw, attraction, a-b-db, 5, 2, 3, 4, 90, 165, 165, 90, 88, 161, 3, 0.531185
145, 2, bw, filler, NA, 999, 999, 3, 5, 137, 73, 69, 155, 71, 180, 2, 1.10757
145, 2, bw, filler, NA, 999, 999, 3, 5, 137, 73, 69, 155, 71, 180, 1, 0.509852
145, 2, bw, catch, NA, 999, 999, 3, 6, 95, 100, 118, 137, 149, 166, 3, 0.678884
145, 2, bw, catch, NA, 999, 999, 3, 6, 95, 100, 118, 137, 149, 166, 1, 0.530716
145, 2, bw, attraction, a-b-db, 14, 1, 3, 7, 135, 60, 56, 125, 60, 135, 1, 1.2512
145, 2, bw, attraction, a-b-db, 14, 1, 3, 7, 135, 60, 56, 125, 60, 135, 3, 0.528135
145, 2, bw, attraction, a-b-da, 9, 2, 3, 8, 157, 86, 165, 90, 90, 165, 1, 0.608572
145, 2, bw, attraction, a-b-da, 9, 2, 3, 8, 157, 86, 165, 90, 90, 165, 3, 0.551023
145, 2, bw, attraction, a-b-db, 9, 1, 3, 9, 135, 60, 60, 135, 57, 129, 1, 1.42279
145, 2, bw, attraction, a-b-db, 9, 1, 3, 9, 135, 60, 60, 135, 57, 129, 3, 0.628255
145, 2, bw, attraction, a-b-da, 5, 1, 3, 10, 135, 60, 60, 135, 132, 58, 2, 1.11269
145, 2, bw, attraction, a-b-da, 5, 1, 3, 10, 135, 60, 60, 135, 132, 58, 3, 0.594947
145, 2, bw, attraction, a-b-db, 14, 3, 3, 11, 120, 195, 111, 181, 195, 120, 3, 1.42471
145, 2, bw, attraction, a-b-db, 14, 3, 3, 11, 120, 195, 111, 181, 195, 120, 1, 0.550187
145, 2, bw, attraction, a-b-db, 2, 3, 3, 12, 120, 195, 195, 120, 119, 193, 2, 0.605994
145, 2, bw, attraction, a-b-db, 2, 3, 3, 12, 120, 195, 195, 120, 119, 193, 1, 0.588487
145, 2, bw, attraction, a-b-db, 2, 1, 3, 13, 59, 134, 60, 135, 135, 60, 1, 0.610804
145, 2, bw, attraction, a-b-db, 2, 1, 3, 13, 59, 134, 60, 135, 135, 60, 3, 0.513336
145, 2, bw, catch, NA, 999, 999, 3, 14, 111, 144, 161, 154, 113, 82, 2, 0.738443
145, 2, bw, catch, NA, 999, 999, 3, 14, 111, 144, 161, 154, 113, 82, 3, 0.603564
145, 2, bw, filler, NA, 999, 999, 3, 15, 152, 123, 100, 130, 143, 57, 1, 0.553252
145, 2, bw, filler, NA, 999, 999, 3, 15, 152, 123, 100, 130, 143, 57, 3, 0.690423
145, 2, bw, attraction, a-b-da, 2, 2, 3, 16, 90, 165, 163, 89, 165, 90, 2, 0.836088
145, 2, bw, attraction, a-b-da, 2, 2, 3, 16, 90, 165, 163, 89, 165, 90, 3, 0.585808
145, 2, bw, attraction, a-b-db, 5, 1, 3, 17, 58, 132, 60, 135, 135, 60, 1, 0.600209
145, 2, bw, attraction, a-b-db, 5, 1, 3, 17, 58, 132, 60, 135, 135, 60, 3, 0.44744
145, 2, bw, filler, NA, 999, 999, 3, 18, 77, 116, 165, 101, 112, 156, 2, 0.987197
145, 2, bw, filler, NA, 999, 999, 3, 18, 77, 116, 165, 101, 112, 156, 1, 2.2182
145, 2, bw, filler, NA, 999, 999, 3, 19, 118, 177, 106, 195, 101, 120, 2, 1.81475
145, 2, bw, filler, NA, 999, 999, 3, 19, 118, 177, 106, 195, 101, 120, 3, 0.604957
145, 2, bw, attraction, a-b-da, 2, 3, 3, 20, 120, 195, 193, 119, 195, 120, 3, 1.58666
145, 2, bw, attraction, a-b-da, 2, 3, 3, 20, 120, 195, 193, 119, 195, 120, 1, 0.738296
145, 2, bw, filler, NA, 999, 999, 3, 21, 92, 116, 100, 73, 176, 193, 3, 0.698466
145, 2, bw, filler, NA, 999, 999, 3, 21, 92, 116, 100, 73, 176, 193, 2, 0.493518
145, 2, bw, attraction, a-b-db, 9, 2, 3, 22, 165, 90, 90, 165, 86, 157, 1, 0.631361
145, 2, bw, attraction, a-b-db, 9, 2, 3, 22, 165, 90, 90, 165, 86, 157, 3, 1.19715
145, 2, bw, attraction, a-b-db, 5, 3, 3, 23, 195, 120, 117, 190, 120, 195, 1, 0.810629
145, 2, bw, attraction, a-b-db, 5, 3, 3, 23, 195, 120, 117, 190, 120, 195, 3, 0.697205
145, 2, bw, filler, NA, 999, 999, 3, 24, 120, 60, 188, 179, 141, 137, 2, 1.36291
145, 2, bw, filler, NA, 999, 999, 3, 24, 120, 60, 188, 179, 141, 137, 1, 0.562943
145, 2, bw, filler, NA, 999, 999, 3, 25, 78, 193, 169, 83, 195, 142, 3, 0.970135
145, 2, bw, filler, NA, 999, 999, 3, 25, 78, 193, 169, 83, 195, 142, 1, 0.458582
145, 2, bw, attraction, a-b-da, 14, 3, 3, 26, 195, 120, 181, 111, 120, 195, 1, 0.829517
145, 2, bw, attraction, a-b-da, 14, 3, 3, 26, 195, 120, 181, 111, 120, 195, 2, 0.475321
145, 2, bw, attraction, a-b-db, 2, 2, 3, 27, 89, 163, 90, 165, 165, 90, 1, 0.509679
145, 2, bw, attraction, a-b-db, 2, 2, 3, 27, 89, 163, 90, 165, 165, 90, 3, 0.432248
145, 2, bw, filler, NA, 999, 999, 3, 28, 91, 162, 113, 134, 140, 190, 3, 0.764755
145, 2, bw, filler, NA, 999, 999, 3, 28, 91, 162, 113, 134, 140, 190, 2, 0.72513
145, 2, bw, attraction, a-b-db, 14, 2, 3, 29, 83, 153, 90, 165, 165, 90, 1, 0.773535
145, 2, bw, attraction, a-b-db, 14, 2, 3, 29, 83, 153, 90, 165, 165, 90, 2, 2.2132
145, 2, bw, attraction, a-b-db, 9, 3, 3, 30, 114, 186, 195, 120, 120, 195, 2, 1.44176
145, 2, bw, attraction, a-b-db, 9, 3, 3, 30, 114, 186, 195, 120, 120, 195, 1, 0.822706
145, 2, bw, attraction, a-b-da, 5, 3, 3, 31, 120, 195, 195, 120, 190, 117, 2, 1.01965
145, 2, bw, attraction, a-b-da, 5, 3, 3, 31, 120, 195, 195, 120, 190, 117, 1, 0.426126
145, 2, bw, attraction, a-b-da, 9, 3, 3, 32, 195, 120, 120, 195, 186, 114, 2, 0.662413
145, 2, bw, attraction, a-b-da, 9, 3, 3, 32, 195, 120, 120, 195, 186, 114, 3, 0.690813
145, 2, bw, attraction, a-b-da, 14, 2, 3, 33, 165, 90, 90, 165, 153, 83, 2, 0.772707
145, 2, bw, attraction, a-b-da, 14, 2, 3, 33, 165, 90, 90, 165, 153, 83, 1, 0.41228
145, 2, bw, attraction, a-b-da, 2, 1, 3, 34, 135, 60, 134, 59, 60, 135, 1, 1.09753
145, 2, bw, attraction, a-b-da, 2, 1, 3, 34, 135, 60, 134, 59, 60, 135, 2, 0.372433
145, 2, bw, filler, NA, 999, 999, 3, 35, 177, 157, 178, 130, 62, 119, 1, 0.723636
145, 2, bw, filler, NA, 999, 999, 3, 35, 177, 157, 178, 130, 62, 119, 3, 0.749467
145, 2, bw, filler, NA, 999, 999, 3, 36, 73, 131, 61, 183, 116, 157, 3, 0.989067
145, 2, bw, filler, NA, 999, 999, 3, 36, 73, 131, 61, 183, 116, 157, 1, 0.444007
145, 2, bw, catch, NA, 999, 999, 3, 37, 157, 158, 152, 103, 123, 72, 1, 0.703875
145, 2, bw, catch, NA, 999, 999, 3, 37, 157, 158, 152, 103, 123, 72, 3, 0.442456
145, 2, bw, filler, NA, 999, 999, 4, 1, 184, 87, 106, 142, 192, 105, 1, 0.686015
145, 2, bw, filler, NA, 999, 999, 4, 1, 184, 87, 106, 142, 192, 105, 2, 0.377905
145, 2, bw, attraction, a-b-da, 9, 1, 4, 2, 135, 60, 129, 57, 60, 135, 1, 1.01632
145, 2, bw, attraction, a-b-da, 9, 1, 4, 2, 135, 60, 129, 57, 60, 135, 3, 0.366607
145, 2, bw, attraction, a-b-db, 2, 3, 4, 3, 119, 193, 195, 120, 120, 195, 3, 1.05385
145, 2, bw, attraction, a-b-db, 2, 3, 4, 3, 119, 193, 195, 120, 120, 195, 2, 0.386196
145, 2, bw, attraction, a-b-da, 2, 2, 4, 4, 90, 165, 163, 89, 165, 90, 3, 0.872659
145, 2, bw, attraction, a-b-da, 2, 2, 4, 4, 90, 165, 163, 89, 165, 90, 2, 0.524354
145, 2, bw, attraction, a-b-db, 14, 1, 4, 5, 56, 125, 135, 60, 60, 135, 1, 0.836803
145, 2, bw, attraction, a-b-db, 14, 1, 4, 5, 56, 125, 135, 60, 60, 135, 3, 0.378455
145, 2, bw, filler, NA, 999, 999, 4, 6, 186, 148, 77, 108, 185, 85, 1, 0.4649
145, 2, bw, filler, NA, 999, 999, 4, 6, 186, 148, 77, 108, 185, 85, 2, 0.397407
145, 2, bw, catch, NA, 999, 999, 4, 7, 61, 134, 114, 141, 158, 157, 3, 0.755395
145, 2, bw, catch, NA, 999, 999, 4, 7, 61, 134, 114, 141, 158, 157, 1, 0.875632
145, 2, bw, catch, NA, 999, 999, 4, 8, 161, 94, 176, 139, 78, 117, 2, 0.845933
145, 2, bw, catch, NA, 999, 999, 4, 8, 161, 94, 176, 139, 78, 117, 3, 0.355206
145, 2, bw, attraction, a-b-da, 5, 2, 4, 9, 161, 88, 90, 165, 165, 90, 1, 0.610857
145, 2, bw, attraction, a-b-da, 5, 2, 4, 9, 161, 88, 90, 165, 165, 90, 2, 0.297404
145, 2, bw, attraction, a-b-db, 9, 1, 4, 10, 135, 60, 60, 135, 57, 129, 1, 0.667229
145, 2, bw, attraction, a-b-db, 9, 1, 4, 10, 135, 60, 60, 135, 57, 129, 2, 0.343583
145, 2, bw, attraction, a-b-db, 9, 2, 4, 11, 86, 157, 90, 165, 165, 90, 2, 1.51936
145, 2, bw, attraction, a-b-db, 9, 2, 4, 11, 86, 157, 90, 165, 165, 90, 1, 0.353592
145, 2, bw, attraction, a-b-da, 5, 1, 4, 12, 135, 60, 60, 135, 132, 58, 2, 0.801381
145, 2, bw, attraction, a-b-da, 5, 1, 4, 12, 135, 60, 60, 135, 132, 58, 1, 0.384561
145, 2, bw, filler, NA, 999, 999, 4, 13, 114, 193, 132, 90, 100, 153, 1, 0.694981
145, 2, bw, filler, NA, 999, 999, 4, 13, 114, 193, 132, 90, 100, 153, 2, 0.298056
145, 2, bw, attraction, a-b-db, 2, 2, 4, 14, 165, 90, 90, 165, 89, 163, 1, 0.635939
145, 2, bw, attraction, a-b-db, 2, 2, 4, 14, 165, 90, 90, 165, 89, 163, 2, 0.353677
145, 2, bw, attraction, a-b-da, 14, 2, 4, 15, 165, 90, 153, 83, 90, 165, 1, 0.545545
145, 2, bw, attraction, a-b-da, 14, 2, 4, 15, 165, 90, 153, 83, 90, 165, 2, 0.618701
145, 2, bw, attraction, a-b-db, 5, 1, 4, 16, 58, 132, 60, 135, 135, 60, 2, 0.887716
145, 2, bw, attraction, a-b-db, 5, 1, 4, 16, 58, 132, 60, 135, 135, 60, 3, 0.39488
145, 2, bw, attraction, a-b-da, 2, 3, 4, 17, 193, 119, 195, 120, 120, 195, 1, 0.480535
145, 2, bw, attraction, a-b-da, 2, 3, 4, 17, 193, 119, 195, 120, 120, 195, 2, 0.356385
145, 2, bw, attraction, a-b-da, 9, 3, 4, 18, 120, 195, 195, 120, 186, 114, 2, 1.03556
145, 2, bw, attraction, a-b-da, 9, 3, 4, 18, 120, 195, 195, 120, 186, 114, 3, 1.08123
145, 2, bw, filler, NA, 999, 999, 4, 19, 87, 169, 116, 130, 184, 93, 1, 2.11574
145, 2, bw, filler, NA, 999, 999, 4, 19, 87, 169, 116, 130, 184, 93, 2, 0.389542
145, 2, bw, filler, NA, 999, 999, 4, 20, 172, 86, 95, 150, 116, 187, 3, 1.09931
145, 2, bw, filler, NA, 999, 999, 4, 20, 172, 86, 95, 150, 116, 187, 2, 0.43824
145, 2, bw, filler, NA, 999, 999, 4, 21, 131, 109, 168, 60, 112, 128, 1, 1.01869
145, 2, bw, filler, NA, 999, 999, 4, 21, 131, 109, 168, 60, 112, 128, 2, 0.385144
145, 2, bw, attraction, a-b-da, 2, 1, 4, 22, 135, 60, 134, 59, 60, 135, 1, 0.679554
145, 2, bw, attraction, a-b-da, 2, 1, 4, 22, 135, 60, 134, 59, 60, 135, 2, 0.299389
145, 2, bw, attraction, a-b-da, 14, 3, 4, 23, 195, 120, 181, 111, 120, 195, 1, 0.557189
145, 2, bw, attraction, a-b-da, 14, 3, 4, 23, 195, 120, 181, 111, 120, 195, 2, 0.301689
145, 2, bw, filler, NA, 999, 999, 4, 24, 71, 76, 148, 120, 160, 138, 2, 0.783508
145, 2, bw, filler, NA, 999, 999, 4, 24, 71, 76, 148, 120, 160, 138, 1, 0.399263
145, 2, bw, attraction, a-b-db, 14, 2, 4, 25, 90, 165, 83, 153, 165, 90, 1, 0.692986
145, 2, bw, attraction, a-b-db, 14, 2, 4, 25, 90, 165, 83, 153, 165, 90, 2, 0.264201
145, 2, bw, attraction, a-b-da, 14, 1, 4, 26, 135, 60, 125, 56, 60, 135, 1, 0.827243
145, 2, bw, attraction, a-b-da, 14, 1, 4, 26, 135, 60, 125, 56, 60, 135, 3, 0.320985
145, 2, bw, attraction, a-b-db, 14, 3, 4, 27, 195, 120, 120, 195, 111, 181, 1, 1.08219
145, 2, bw, attraction, a-b-db, 14, 3, 4, 27, 195, 120, 120, 195, 111, 181, 3, 0.469807
145, 2, bw, attraction, a-b-db, 5, 3, 4, 28, 117, 190, 195, 120, 120, 195, 1, 0.536965
145, 2, bw, attraction, a-b-db, 5, 3, 4, 28, 117, 190, 195, 120, 120, 195, 2, 1.12289
145, 2, bw, filler, NA, 999, 999, 4, 29, 149, 113, 128, 85, 191, 84, 1, 0.675655
145, 2, bw, filler, NA, 999, 999, 4, 29, 149, 113, 128, 85, 191, 84, 2, 0.495458
145, 2, bw, attraction, a-b-db, 5, 2, 4, 30, 165, 90, 90, 165, 88, 161, 1, 0.76128
145, 2, bw, attraction, a-b-db, 5, 2, 4, 30, 165, 90, 90, 165, 88, 161, 2, 0.59362
145, 2, bw, attraction, a-b-db, 9, 3, 4, 31, 195, 120, 120, 195, 114, 186, 1, 0.575533
145, 2, bw, attraction, a-b-db, 9, 3, 4, 31, 195, 120, 120, 195, 114, 186, 2, 0.367193
145, 2, bw, attraction, a-b-da, 5, 3, 4, 32, 190, 117, 120, 195, 195, 120, 1, 0.462326
145, 2, bw, attraction, a-b-da, 5, 3, 4, 32, 190, 117, 120, 195, 195, 120, 2, 0.354859
145, 2, bw, filler, NA, 999, 999, 4, 33, 107, 177, 195, 92, 92, 125, 1, 1.17077
145, 2, bw, filler, NA, 999, 999, 4, 33, 107, 177, 195, 92, 92, 125, 2, 0.682262
145, 2, bw, attraction, a-b-da, 9, 2, 4, 34, 165, 90, 157, 86, 90, 165, 1, 0.588787
145, 2, bw, attraction, a-b-da, 9, 2, 4, 34, 165, 90, 157, 86, 90, 165, 2, 0.435807
145, 2, bw, filler, NA, 999, 999, 4, 35, 71, 127, 144, 138, 95, 134, 2, 1.00831
145, 2, bw, filler, NA, 999, 999, 4, 35, 71, 127, 144, 138, 95, 134, 1, 0.438588
145, 2, bw, attraction, a-b-db, 2, 1, 4, 36, 135, 60, 60, 135, 59, 134, 1, 0.803035
145, 2, bw, attraction, a-b-db, 2, 1, 4, 36, 135, 60, 60, 135, 59, 134, 2, 0.426096
145, 2, bw, catch, NA, 999, 999, 4, 37, 106, 89, 162, 93, 128, 187, 3, 5.4787
145, 2, bw, catch, NA, 999, 999, 4, 37, 106, 89, 162, 93, 128, 187, 1, 0.640859
145, 2, bw, filler, NA, 999, 999, 5, 1, 79, 171, 98, 140, 154, 107, 3, 2.82726
145, 2, bw, filler, NA, 999, 999, 5, 1, 79, 171, 98, 140, 154, 107, 2, 0.616285
145, 2, bw, attraction, a-b-db, 2, 2, 5, 2, 165, 90, 89, 163, 90, 165, 1, 0.837481
145, 2, bw, attraction, a-b-db, 2, 2, 5, 2, 165, 90, 89, 163, 90, 165, 2, 0.378401
145, 2, bw, attraction, a-b-db, 5, 1, 5, 3, 58, 132, 135, 60, 60, 135, 1, 0.552933
145, 2, bw, attraction, a-b-db, 5, 1, 5, 3, 58, 132, 135, 60, 60, 135, 2, 0.362007
145, 2, bw, attraction, a-b-db, 14, 2, 5, 4, 165, 90, 83, 153, 90, 165, 1, 0.777208
145, 2, bw, attraction, a-b-db, 14, 2, 5, 4, 165, 90, 83, 153, 90, 165, 2, 0.569
145, 2, bw, attraction, a-b-da, 14, 2, 5, 5, 90, 165, 165, 90, 153, 83, 1, 1.088
145, 2, bw, attraction, a-b-da, 14, 2, 5, 5, 90, 165, 165, 90, 153, 83, 2, 0.667083
145, 2, bw, filler, NA, 999, 999, 5, 6, 110, 183, 88, 192, 78, 59, 1, 1.93404
145, 2, bw, filler, NA, 999, 999, 5, 6, 110, 183, 88, 192, 78, 59, 3, 0.975394
145, 2, bw, attraction, a-b-da, 9, 3, 5, 7, 120, 195, 186, 114, 195, 120, 3, 0.789773
145, 2, bw, attraction, a-b-da, 9, 3, 5, 7, 120, 195, 186, 114, 195, 120, 2, 0.428805
145, 2, bw, attraction, a-b-db, 2, 1, 5, 8, 59, 134, 135, 60, 60, 135, 1, 0.64921
145, 2, bw, attraction, a-b-db, 2, 1, 5, 8, 59, 134, 135, 60, 60, 135, 2, 0.454381
145, 2, bw, attraction, a-b-da, 14, 3, 5, 9, 120, 195, 181, 111, 195, 120, 1, 0.938153
145, 2, bw, attraction, a-b-da, 14, 3, 5, 9, 120, 195, 181, 111, 195, 120, 2, 0.379261
145, 2, bw, attraction, a-b-da, 5, 1, 5, 10, 135, 60, 132, 58, 60, 135, 1, 0.537585
145, 2, bw, attraction, a-b-da, 5, 1, 5, 10, 135, 60, 132, 58, 60, 135, 2, 0.394756
145, 2, bw, attraction, a-b-da, 14, 1, 5, 11, 125, 56, 60, 135, 135, 60, 1, 0.840653
145, 2, bw, attraction, a-b-da, 14, 1, 5, 11, 125, 56, 60, 135, 135, 60, 2, 0.541846
145, 2, bw, catch, NA, 999, 999, 5, 12, 161, 154, 112, 83, 164, 91, 1, 2.37341
145, 2, bw, catch, NA, 999, 999, 5, 12, 161, 154, 112, 83, 164, 91, 2, 0.684657
145, 2, bw, filler, NA, 999, 999, 5, 13, 164, 148, 63, 129, 114, 161, 1, 0.663059
145, 2, bw, filler, NA, 999, 999, 5, 13, 164, 148, 63, 129, 114, 161, 2, 0.451516
145, 2, bw, attraction, a-b-db, 14, 1, 5, 14, 56, 125, 135, 60, 60, 135, 1, 0.60738
145, 2, bw, attraction, a-b-db, 14, 1, 5, 14, 56, 125, 135, 60, 60, 135, 2, 0.453744
145, 2, bw, filler, NA, 999, 999, 5, 15, 151, 155, 110, 72, 80, 136, 1, 0.505543
145, 2, bw, filler, NA, 999, 999, 5, 15, 151, 155, 110, 72, 80, 136, 2, 0.500148
145, 2, bw, attraction, a-b-db, 9, 3, 5, 16, 120, 195, 195, 120, 114, 186, 1, 0.501916
145, 2, bw, attraction, a-b-db, 9, 3, 5, 16, 120, 195, 195, 120, 114, 186, 2, 0.353094
145, 2, bw, attraction, a-b-db, 14, 3, 5, 17, 120, 195, 111, 181, 195, 120, 1, 0.560768
145, 2, bw, attraction, a-b-db, 14, 3, 5, 17, 120, 195, 111, 181, 195, 120, 2, 0.345381
145, 2, bw, attraction, a-b-da, 2, 3, 5, 18, 195, 120, 193, 119, 120, 195, 1, 0.561093
145, 2, bw, attraction, a-b-da, 2, 3, 5, 18, 195, 120, 193, 119, 120, 195, 2, 0.369596
145, 2, bw, filler, NA, 999, 999, 5, 19, 127, 61, 126, 163, 69, 79, 2, 1.11277
145, 2, bw, filler, NA, 999, 999, 5, 19, 127, 61, 126, 163, 69, 79, 3, 0.690937
145, 2, bw, attraction, a-b-da, 9, 1, 5, 20, 60, 135, 129, 57, 135, 60, 3, 1.11676
145, 2, bw, attraction, a-b-da, 9, 1, 5, 20, 60, 135, 129, 57, 135, 60, 2, 0.791101
145, 2, bw, attraction, a-b-da, 5, 3, 5, 21, 195, 120, 120, 195, 190, 117, 1, 0.876732
145, 2, bw, attraction, a-b-da, 5, 3, 5, 21, 195, 120, 120, 195, 190, 117, 2, 0.528592
145, 2, bw, filler, NA, 999, 999, 5, 22, 61, 73, 166, 187, 161, 68, 2, 0.840857
145, 2, bw, filler, NA, 999, 999, 5, 22, 61, 73, 166, 187, 161, 68, 1, 0.941911
145, 2, bw, catch, NA, 999, 999, 5, 23, 61, 134, 131, 124, 148, 167, 3, 0.917587
145, 2, bw, catch, NA, 999, 999, 5, 23, 61, 134, 131, 124, 148, 167, 1, 0.575878
145, 2, bw, attraction, a-b-da, 9, 2, 5, 24, 157, 86, 165, 90, 90, 165, 1, 0.737382
145, 2, bw, attraction, a-b-da, 9, 2, 5, 24, 157, 86, 165, 90, 90, 165, 2, 0.895446
145, 2, bw, attraction, a-b-db, 2, 3, 5, 25, 195, 120, 120, 195, 119, 193, 1, 0.625125
145, 2, bw, attraction, a-b-db, 2, 3, 5, 25, 195, 120, 120, 195, 119, 193, 2, 0.830904
145, 2, bw, attraction, a-b-db, 9, 2, 5, 26, 165, 90, 90, 165, 86, 157, 1, 0.70717
145, 2, bw, attraction, a-b-db, 9, 2, 5, 26, 165, 90, 90, 165, 86, 157, 2, 0.773613
145, 2, bw, attraction, a-b-db, 9, 1, 5, 27, 60, 135, 135, 60, 57, 129, 1, 1.37211
145, 2, bw, attraction, a-b-db, 9, 1, 5, 27, 60, 135, 135, 60, 57, 129, 2, 0.651538
145, 2, bw, attraction, a-b-db, 5, 3, 5, 28, 195, 120, 117, 190, 120, 195, 1, 0.991187
145, 2, bw, attraction, a-b-db, 5, 3, 5, 28, 195, 120, 117, 190, 120, 195, 2, 0.462231
145, 2, bw, attraction, a-b-da, 5, 2, 5, 29, 165, 90, 161, 88, 90, 165, 1, 0.617296
145, 2, bw, attraction, a-b-da, 5, 2, 5, 29, 165, 90, 161, 88, 90, 165, 2, 0.671884
145, 2, bw, filler, NA, 999, 999, 5, 30, 148, 162, 192, 87, 164, 56, 1, 1.18682
145, 2, bw, filler, NA, 999, 999, 5, 30, 148, 162, 192, 87, 164, 56, 3, 0.954633
145, 2, bw, catch, NA, 999, 999, 5, 31, 152, 103, 167, 148, 132, 63, 2, 1.43411
145, 2, bw, catch, NA, 999, 999, 5, 31, 152, 103, 167, 148, 132, 63, 3, 0.8477
145, 2, bw, attraction, a-b-da, 2, 2, 5, 32, 165, 90, 163, 89, 90, 165, 1, 0.763269
145, 2, bw, attraction, a-b-da, 2, 2, 5, 32, 165, 90, 163, 89, 90, 165, 2, 0.675755
145, 2, bw, filler, NA, 999, 999, 5, 33, 94, 82, 107, 139, 175, 127, 3, 1.57419
145, 2, bw, filler, NA, 999, 999, 5, 33, 94, 82, 107, 139, 175, 127, 1, 0.62171
145, 2, bw, attraction, a-b-da, 2, 1, 5, 34, 134, 59, 135, 60, 60, 135, 1, 1.01867
145, 2, bw, attraction, a-b-da, 2, 1, 5, 34, 134, 59, 135, 60, 60, 135, 2, 0.592952
145, 2, bw, attraction, a-b-db, 5, 2, 5, 35, 90, 165, 165, 90, 88, 161, 1, 0.62276
145, 2, bw, attraction, a-b-db, 5, 2, 5, 35, 90, 165, 165, 90, 88, 161, 2, 0.380638
145, 2, bw, filler, NA, 999, 999, 5, 36, 93, 159, 123, 125, 95, 144, 1, 0.483048
145, 2, bw, filler, NA, 999, 999, 5, 36, 93, 159, 123, 125, 95, 144, 2, 0.415035
145, 2, bw, filler, NA, 999, 999, 5, 37, 128, 195, 81, 117, 65, 64, 1, 1.24403
145, 2, bw, filler, NA, 999, 999, 5, 37, 128, 195, 81, 117, 65, 64, 3, 0.705013
145, 2, bw, attraction, a-b-da, 5, 3, 6, 1, 195, 120, 120, 195, 190, 117, 1, 0.738751
145, 2, bw, attraction, a-b-da, 5, 3, 6, 1, 195, 120, 120, 195, 190, 117, 2, 0.435834
145, 2, bw, attraction, a-b-db, 9, 2, 6, 2, 165, 90, 86, 157, 90, 165, 1, 2.6163
145, 2, bw, attraction, a-b-db, 9, 2, 6, 2, 165, 90, 86, 157, 90, 165, 2, 0.69425
145, 2, bw, attraction, a-b-db, 14, 3, 6, 3, 195, 120, 120, 195, 111, 181, 1, 0.663805
145, 2, bw, attraction, a-b-db, 14, 3, 6, 3, 195, 120, 120, 195, 111, 181, 2, 0.380253
145, 2, bw, attraction, a-b-da, 5, 1, 6, 4, 132, 58, 135, 60, 60, 135, 3, 0.842685
145, 2, bw, attraction, a-b-da, 5, 1, 6, 4, 132, 58, 135, 60, 60, 135, 1, 0.551722
145, 2, bw, attraction, a-b-db, 2, 1, 6, 5, 135, 60, 60, 135, 59, 134, 1, 0.623472
145, 2, bw, attraction, a-b-db, 2, 1, 6, 5, 135, 60, 60, 135, 59, 134, 2, 0.653255
145, 2, bw, attraction, a-b-da, 14, 3, 6, 6, 181, 111, 120, 195, 195, 120, 1, 0.457157
145, 2, bw, attraction, a-b-da, 14, 3, 6, 6, 181, 111, 120, 195, 195, 120, 2, 0.421446
145, 2, bw, attraction, a-b-da, 2, 2, 6, 7, 165, 90, 163, 89, 90, 165, 1, 0.498622
145, 2, bw, attraction, a-b-da, 2, 2, 6, 7, 165, 90, 163, 89, 90, 165, 2, 0.677832
145, 2, bw, attraction, a-b-db, 5, 2, 6, 8, 88, 161, 165, 90, 90, 165, 1, 0.528288
145, 2, bw, attraction, a-b-db, 5, 2, 6, 8, 88, 161, 165, 90, 90, 165, 2, 0.394076
145, 2, bw, attraction, a-b-db, 5, 3, 6, 9, 117, 190, 120, 195, 195, 120, 2, 0.815801
145, 2, bw, attraction, a-b-db, 5, 3, 6, 9, 117, 190, 120, 195, 195, 120, 1, 0.462205
145, 2, bw, attraction, a-b-da, 5, 2, 6, 10, 165, 90, 90, 165, 161, 88, 2, 0.681399
145, 2, bw, attraction, a-b-da, 5, 2, 6, 10, 165, 90, 90, 165, 161, 88, 1, 0.373097
145, 2, bw, catch, NA, 999, 999, 6, 11, 159, 96, 181, 134, 61, 134, 2, 0.723565
145, 2, bw, catch, NA, 999, 999, 6, 11, 159, 96, 181, 134, 61, 134, 3, 0.421448
145, 2, bw, attraction, a-b-da, 14, 2, 6, 12, 90, 165, 165, 90, 153, 83, 1, 0.554448
145, 2, bw, attraction, a-b-da, 14, 2, 6, 12, 90, 165, 165, 90, 153, 83, 2, 0.522967
145, 2, bw, attraction, a-b-db, 14, 2, 6, 13, 90, 165, 83, 153, 165, 90, 3, 1.96351
145, 2, bw, attraction, a-b-db, 14, 2, 6, 13, 90, 165, 83, 153, 165, 90, 2, 0.379402
145, 2, bw, filler, NA, 999, 999, 6, 14, 116, 94, 85, 69, 123, 183, 3, 0.890002
145, 2, bw, filler, NA, 999, 999, 6, 14, 116, 94, 85, 69, 123, 183, 2, 0.372946
145, 2, bw, filler, NA, 999, 999, 6, 15, 184, 113, 132, 105, 195, 108, 1, 0.499332
145, 2, bw, filler, NA, 999, 999, 6, 15, 184, 113, 132, 105, 195, 108, 2, 0.382768
145, 2, bw, attraction, a-b-db, 2, 3, 6, 16, 119, 193, 120, 195, 195, 120, 3, 0.853048
145, 2, bw, attraction, a-b-db, 2, 3, 6, 16, 119, 193, 120, 195, 195, 120, 2, 0.682101
145, 2, bw, filler, NA, 999, 999, 6, 17, 176, 187, 124, 135, 193, 152, 3, 1.98854
145, 2, bw, filler, NA, 999, 999, 6, 17, 176, 187, 124, 135, 193, 152, 2, 0.387232
145, 2, bw, attraction, a-b-db, 9, 3, 6, 18, 114, 186, 195, 120, 120, 195, 1, 0.681739
145, 2, bw, attraction, a-b-db, 9, 3, 6, 18, 114, 186, 195, 120, 120, 195, 2, 0.365495
145, 2, bw, filler, NA, 999, 999, 6, 19, 84, 87, 72, 193, 60, 77, 2, 0.772584
145, 2, bw, filler, NA, 999, 999, 6, 19, 84, 87, 72, 193, 60, 77, 1, 0.404342
145, 2, bw, attraction, a-b-da, 14, 1, 6, 20, 135, 60, 125, 56, 60, 135, 3, 1.13815
145, 2, bw, attraction, a-b-da, 14, 1, 6, 20, 135, 60, 125, 56, 60, 135, 2, 0.363106
145, 2, bw, attraction, a-b-da, 2, 1, 6, 21, 134, 59, 135, 60, 60, 135, 1, 0.474278
145, 2, bw, attraction, a-b-da, 2, 1, 6, 21, 134, 59, 135, 60, 60, 135, 2, 0.390052
145, 2, bw, filler, NA, 999, 999, 6, 22, 164, 151, 121, 133, 70, 59, 1, 1.17987
145, 2, bw, filler, NA, 999, 999, 6, 22, 164, 151, 121, 133, 70, 59, 3, 0.659534
145, 2, bw, attraction, a-b-db, 2, 2, 6, 23, 90, 165, 165, 90, 89, 163, 3, 1.95863
145, 2, bw, attraction, a-b-db, 2, 2, 6, 23, 90, 165, 165, 90, 89, 163, 2, 0.702651
145, 2, bw, filler, NA, 999, 999, 6, 24, 146, 83, 150, 94, 95, 72, 1, 1.03231
145, 2, bw, filler, NA, 999, 999, 6, 24, 146, 83, 150, 94, 95, 72, 3, 0.654013
145, 2, bw, attraction, a-b-da, 9, 2, 6, 25, 157, 86, 90, 165, 165, 90, 1, 0.433752
145, 2, bw, attraction, a-b-da, 9, 2, 6, 25, 157, 86, 90, 165, 165, 90, 2, 0.407493
145, 2, bw, catch, NA, 999, 999, 6, 26, 139, 116, 119, 76, 135, 180, 3, 0.804657
145, 2, bw, catch, NA, 999, 999, 6, 26, 139, 116, 119, 76, 135, 180, 2, 0.587055
145, 2, bw, attraction, a-b-da, 9, 1, 6, 27, 60, 135, 129, 57, 135, 60, 1, 0.841487
145, 2, bw, attraction, a-b-da, 9, 1, 6, 27, 60, 135, 129, 57, 135, 60, 2, 0.77465
145, 2, bw, attraction, a-b-db, 5, 1, 6, 28, 58, 132, 60, 135, 135, 60, 3, 0.900938
145, 2, bw, attraction, a-b-db, 5, 1, 6, 28, 58, 132, 60, 135, 135, 60, 2, 0.584004
145, 2, bw, filler, NA, 999, 999, 6, 29, 78, 128, 130, 73, 163, 152, 3, 0.614428
145, 2, bw, filler, NA, 999, 999, 6, 29, 78, 128, 130, 73, 163, 152, 2, 0.876798
145, 2, bw, attraction, a-b-db, 14, 1, 6, 30, 56, 125, 60, 135, 135, 60, 1, 0.831136
145, 2, bw, attraction, a-b-db, 14, 1, 6, 30, 56, 125, 60, 135, 135, 60, 3, 0.764904
145, 2, bw, attraction, a-b-da, 2, 3, 6, 31, 193, 119, 120, 195, 195, 120, 1, 0.732006
145, 2, bw, attraction, a-b-da, 2, 3, 6, 31, 193, 119, 120, 195, 195, 120, 2, 0.845596
145, 2, bw, filler, NA, 999, 999, 6, 32, 101, 59, 191, 96, 62, 108, 2, 0.825374
145, 2, bw, filler, NA, 999, 999, 6, 32, 101, 59, 191, 96, 62, 108, 1, 1.32706
145, 2, bw, filler, NA, 999, 999, 6, 33, 121, 153, 124, 105, 80, 83, 1, 0.615177
145, 2, bw, filler, NA, 999, 999, 6, 33, 121, 153, 124, 105, 80, 83, 3, 0.621693
145, 2, bw, attraction, a-b-da, 9, 3, 6, 34, 120, 195, 195, 120, 186, 114, 1, 0.898713
145, 2, bw, attraction, a-b-da, 9, 3, 6, 34, 120, 195, 195, 120, 186, 114, 2, 0.301816
145, 2, bw, filler, NA, 999, 999, 6, 35, 170, 146, 85, 153, 74, 182, 1, 0.519625
145, 2, bw, filler, NA, 999, 999, 6, 35, 170, 146, 85, 153, 74, 182, 2, 0.610213
145, 2, bw, catch, NA, 999, 999, 6, 36, 102, 93, 182, 133, 154, 101, 2, 0.815169
145, 2, bw, catch, NA, 999, 999, 6, 36, 102, 93, 182, 133, 154, 101, 1, 0.517677
145, 2, bw, attraction, a-b-db, 9, 1, 6, 37, 60, 135, 135, 60, 57, 129, 1, 0.934649
145, 2, bw, attraction, a-b-db, 9, 1, 6, 37, 60, 135, 135, 60, 57, 129, 2, 0.424315
145, 2, bw, attraction, a-b-da, 2, 3, 7, 1, 195, 120, 120, 195, 193, 119, 1, 0.748802
145, 2, bw, attraction, a-b-da, 2, 3, 7, 1, 195, 120, 120, 195, 193, 119, 2, 0.550063
145, 2, bw, filler, NA, 999, 999, 7, 2, 89, 99, 84, 99, 156, 92, 3, 1.00567
145, 2, bw, filler, NA, 999, 999, 7, 2, 89, 99, 84, 99, 156, 92, 2, 0.660106
145, 2, bw, attraction, a-b-db, 14, 3, 7, 3, 195, 120, 120, 195, 111, 181, 1, 0.527064
145, 2, bw, attraction, a-b-db, 14, 3, 7, 3, 195, 120, 120, 195, 111, 181, 3, 0.528893
145, 2, bw, attraction, a-b-db, 9, 1, 7, 4, 135, 60, 60, 135, 57, 129, 1, 0.545269
145, 2, bw, attraction, a-b-db, 9, 1, 7, 4, 135, 60, 60, 135, 57, 129, 2, 0.514457
145, 2, bw, filler, NA, 999, 999, 7, 5, 155, 163, 98, 164, 190, 149, 3, 0.891551
145, 2, bw, filler, NA, 999, 999, 7, 5, 155, 163, 98, 164, 190, 149, 2, 0.566584
145, 2, bw, filler, NA, 999, 999, 7, 6, 76, 91, 185, 96, 121, 114, 2, 0.76567
145, 2, bw, filler, NA, 999, 999, 7, 6, 76, 91, 185, 96, 121, 114, 1, 0.39023
145, 2, bw, filler, NA, 999, 999, 7, 7, 151, 178, 98, 94, 181, 192, 3, 0.763874
145, 2, bw, filler, NA, 999, 999, 7, 7, 151, 178, 98, 94, 181, 192, 2, 0.428466
145, 2, bw, attraction, a-b-da, 9, 2, 7, 8, 90, 165, 157, 86, 165, 90, 1, 0.528756
145, 2, bw, attraction, a-b-da, 9, 2, 7, 8, 90, 165, 157, 86, 165, 90, 2, 0.354586
145, 2, bw, attraction, a-b-db, 2, 3, 7, 9, 120, 195, 119, 193, 195, 120, 1, 0.530381
145, 2, bw, attraction, a-b-db, 2, 3, 7, 9, 120, 195, 119, 193, 195, 120, 2, 0.396254
145, 2, bw, attraction, a-b-db, 5, 2, 7, 10, 88, 161, 90, 165, 165, 90, 1, 0.642154
145, 2, bw, attraction, a-b-db, 5, 2, 7, 10, 88, 161, 90, 165, 165, 90, 2, 0.343169
145, 2, bw, catch, NA, 999, 999, 7, 11, 169, 146, 131, 124, 93, 102, 1, 0.518997
145, 2, bw, catch, NA, 999, 999, 7, 11, 169, 146, 131, 124, 93, 102, 3, 0.593461
145, 2, bw, attraction, a-b-da, 14, 2, 7, 12, 153, 83, 90, 165, 165, 90, 1, 0.527215
145, 2, bw, attraction, a-b-da, 14, 2, 7, 12, 153, 83, 90, 165, 165, 90, 2, 0.353011
145, 2, bw, attraction, a-b-da, 5, 1, 7, 13, 135, 60, 60, 135, 132, 58, 1, 0.536925
145, 2, bw, attraction, a-b-da, 5, 1, 7, 13, 135, 60, 60, 135, 132, 58, 2, 0.3467
145, 2, bw, attraction, a-b-db, 5, 3, 7, 14, 117, 190, 195, 120, 120, 195, 3, 0.690668
145, 2, bw, attraction, a-b-db, 5, 3, 7, 14, 117, 190, 195, 120, 120, 195, 1, 0.365687
145, 2, bw, attraction, a-b-db, 2, 2, 7, 15, 90, 165, 165, 90, 89, 163, 3, 0.604734
145, 2, bw, attraction, a-b-db, 2, 2, 7, 15, 90, 165, 165, 90, 89, 163, 1, 0.371274
145, 2, bw, attraction, a-b-db, 9, 3, 7, 16, 195, 120, 114, 186, 120, 195, 1, 0.906353
145, 2, bw, attraction, a-b-db, 9, 3, 7, 16, 195, 120, 114, 186, 120, 195, 3, 0.324768
145, 2, bw, attraction, a-b-da, 5, 3, 7, 17, 190, 117, 195, 120, 120, 195, 3, 1.76537
145, 2, bw, attraction, a-b-da, 5, 3, 7, 17, 190, 117, 195, 120, 120, 195, 1, 0.693338
145, 2, bw, filler, NA, 999, 999, 7, 18, 147, 127, 79, 168, 73, 91, 1, 0.662955
145, 2, bw, filler, NA, 999, 999, 7, 18, 147, 127, 79, 168, 73, 91, 3, 0.619467
145, 2, bw, filler, NA, 999, 999, 7, 19, 128, 91, 111, 181, 189, 128, 3, 0.888525
145, 2, bw, filler, NA, 999, 999, 7, 19, 128, 91, 111, 181, 189, 128, 1, 0.851506
145, 2, bw, attraction, a-b-db, 2, 1, 7, 20, 135, 60, 59, 134, 60, 135, 1, 0.743223
145, 2, bw, attraction, a-b-db, 2, 1, 7, 20, 135, 60, 59, 134, 60, 135, 3, 0.976301
145, 2, bw, filler, NA, 999, 999, 7, 21, 64, 121, 155, 166, 118, 97, 2, 0.710647
145, 2, bw, filler, NA, 999, 999, 7, 21, 64, 121, 155, 166, 118, 97, 1, 0.369158
145, 2, bw, attraction, a-b-da, 14, 3, 7, 22, 195, 120, 181, 111, 120, 195, 1, 0.544215
145, 2, bw, attraction, a-b-da, 14, 3, 7, 22, 195, 120, 181, 111, 120, 195, 3, 0.329391
145, 2, bw, attraction, a-b-db, 5, 1, 7, 23, 60, 135, 58, 132, 135, 60, 1, 0.52977
145, 2, bw, attraction, a-b-db, 5, 1, 7, 23, 60, 135, 58, 132, 135, 60, 2, 0.611628
145, 2, bw, attraction, a-b-db, 14, 2, 7, 24, 165, 90, 90, 165, 83, 153, 1, 0.416707
145, 2, bw, attraction, a-b-db, 14, 2, 7, 24, 165, 90, 90, 165, 83, 153, 2, 0.327221
145, 2, bw, attraction, a-b-da, 2, 2, 7, 25, 90, 165, 163, 89, 165, 90, 1, 0.575733
145, 2, bw, attraction, a-b-da, 2, 2, 7, 25, 90, 165, 163, 89, 165, 90, 2, 0.287535
145, 2, bw, attraction, a-b-da, 9, 1, 7, 26, 129, 57, 60, 135, 135, 60, 1, 0.474061
145, 2, bw, attraction, a-b-da, 9, 1, 7, 26, 129, 57, 60, 135, 135, 60, 2, 0.469846
145, 2, bw, filler, NA, 999, 999, 7, 27, 56, 190, 79, 183, 136, 167, 3, 0.825028
145, 2, bw, filler, NA, 999, 999, 7, 27, 56, 190, 79, 183, 136, 167, 1, 0.51087
145, 2, bw, attraction, a-b-da, 9, 3, 7, 28, 120, 195, 186, 114, 195, 120, 1, 0.943877
145, 2, bw, attraction, a-b-da, 9, 3, 7, 28, 120, 195, 186, 114, 195, 120, 2, 0.408911
145, 2, bw, attraction, a-b-db, 14, 1, 7, 29, 60, 135, 56, 125, 135, 60, 1, 0.78316
145, 2, bw, attraction, a-b-db, 14, 1, 7, 29, 60, 135, 56, 125, 135, 60, 3, 0.829903
145, 2, bw, filler, NA, 999, 999, 7, 30, 134, 94, 92, 133, 146, 85, 1, 0.722074
145, 2, bw, filler, NA, 999, 999, 7, 30, 134, 94, 92, 133, 146, 85, 2, 0.331919
145, 2, bw, catch, NA, 999, 999, 7, 31, 70, 125, 191, 124, 152, 103, 2, 0.748366
145, 2, bw, catch, NA, 999, 999, 7, 31, 70, 125, 191, 124, 152, 103, 1, 0.461423
145, 2, bw, attraction, a-b-db, 9, 2, 7, 32, 165, 90, 90, 165, 86, 157, 1, 1.52054
145, 2, bw, attraction, a-b-db, 9, 2, 7, 32, 165, 90, 90, 165, 86, 157, 2, 0.330114
145, 2, bw, attraction, a-b-da, 2, 1, 7, 33, 135, 60, 134, 59, 60, 135, 1, 0.482534
145, 2, bw, attraction, a-b-da, 2, 1, 7, 33, 135, 60, 134, 59, 60, 135, 2, 0.458411
145, 2, bw, attraction, a-b-da, 5, 2, 7, 34, 165, 90, 90, 165, 161, 88, 1, 0.513429
145, 2, bw, attraction, a-b-da, 5, 2, 7, 34, 165, 90, 90, 165, 161, 88, 2, 0.364004
145, 2, bw, catch, NA, 999, 999, 7, 35, 164, 151, 131, 124, 61, 134, 1, 0.443095
145, 2, bw, catch, NA, 999, 999, 7, 35, 164, 151, 131, 124, 61, 134, 3, 0.720483
145, 2, bw, attraction, a-b-da, 14, 1, 7, 36, 125, 56, 135, 60, 60, 135, 3, 1.08945
145, 2, bw, attraction, a-b-da, 14, 1, 7, 36, 125, 56, 135, 60, 60, 135, 1, 0.580362
145, 2, bw, filler, NA, 999, 999, 7, 37, 183, 135, 121, 146, 70, 191, 1, 0.514689
145, 2, bw, filler, NA, 999, 999, 7, 37, 183, 135, 121, 146, 70, 191, 3, 0.517332
145, 2, bw, attraction, a-b-da, 9, 3, 8, 1, 120, 195, 195, 120, 186, 114, 1, 0.518458
145, 2, bw, attraction, a-b-da, 9, 3, 8, 1, 120, 195, 195, 120, 186, 114, 2, 0.400819
145, 2, bw, filler, NA, 999, 999, 8, 2, 138, 97, 59, 177, 188, 194, 3, 1.83866
145, 2, bw, filler, NA, 999, 999, 8, 2, 138, 97, 59, 177, 188, 194, 2, 0.635378
145, 2, bw, attraction, a-b-da, 2, 3, 8, 3, 120, 195, 195, 120, 193, 119, 1, 0.447766
145, 2, bw, attraction, a-b-da, 2, 3, 8, 3, 120, 195, 195, 120, 193, 119, 2, 0.348991
145, 2, bw, filler, NA, 999, 999, 8, 4, 67, 156, 82, 107, 190, 118, 3, 0.860747
145, 2, bw, filler, NA, 999, 999, 8, 4, 67, 156, 82, 107, 190, 118, 2, 0.641093
145, 2, bw, filler, NA, 999, 999, 8, 5, 84, 103, 71, 131, 180, 70, 3, 1.01301
145, 2, bw, filler, NA, 999, 999, 8, 5, 84, 103, 71, 131, 180, 70, 1, 0.611339
145, 2, bw, attraction, a-b-da, 2, 1, 8, 6, 134, 59, 135, 60, 60, 135, 3, 0.912301
145, 2, bw, attraction, a-b-da, 2, 1, 8, 6, 134, 59, 135, 60, 60, 135, 2, 0.426634
145, 2, bw, attraction, a-b-db, 5, 2, 8, 7, 88, 161, 165, 90, 90, 165, 1, 0.495097
145, 2, bw, attraction, a-b-db, 5, 2, 8, 7, 88, 161, 165, 90, 90, 165, 2, 0.354253
145, 2, bw, attraction, a-b-da, 5, 3, 8, 8, 195, 120, 120, 195, 190, 117, 1, 0.442214
145, 2, bw, attraction, a-b-da, 5, 3, 8, 8, 195, 120, 120, 195, 190, 117, 2, 0.311254
145, 2, bw, attraction, a-b-db, 9, 2, 8, 9, 165, 90, 86, 157, 90, 165, 1, 0.464383
145, 2, bw, attraction, a-b-db, 9, 2, 8, 9, 165, 90, 86, 157, 90, 165, 2, 0.436926
145, 2, bw, attraction, a-b-da, 9, 1, 8, 10, 129, 57, 60, 135, 135, 60, 3, 1.02543
145, 2, bw, attraction, a-b-da, 9, 1, 8, 10, 129, 57, 60, 135, 135, 60, 1, 0.623026
145, 2, bw, attraction, a-b-db, 9, 1, 8, 11, 135, 60, 57, 129, 60, 135, 1, 0.691431
145, 2, bw, attraction, a-b-db, 9, 1, 8, 11, 135, 60, 57, 129, 60, 135, 3, 0.670559
145, 2, bw, attraction, a-b-db, 2, 1, 8, 12, 59, 134, 135, 60, 60, 135, 1, 0.385625
145, 2, bw, attraction, a-b-db, 2, 1, 8, 12, 59, 134, 135, 60, 60, 135, 2, 0.609466
145, 2, bw, attraction, a-b-da, 5, 2, 8, 13, 161, 88, 90, 165, 165, 90, 1, 0.454508
145, 2, bw, attraction, a-b-da, 5, 2, 8, 13, 161, 88, 90, 165, 165, 90, 2, 0.371059
145, 2, bw, attraction, a-b-db, 14, 2, 8, 14, 165, 90, 83, 153, 90, 165, 1, 0.450352
145, 2, bw, attraction, a-b-db, 14, 2, 8, 14, 165, 90, 83, 153, 90, 165, 2, 0.703454
145, 2, bw, attraction, a-b-db, 14, 3, 8, 15, 120, 195, 111, 181, 195, 120, 1, 0.353127
145, 2, bw, attraction, a-b-db, 14, 3, 8, 15, 120, 195, 111, 181, 195, 120, 2, 0.353649
145, 2, bw, attraction, a-b-da, 9, 2, 8, 16, 157, 86, 165, 90, 90, 165, 1, 0.321431
145, 2, bw, attraction, a-b-da, 9, 2, 8, 16, 157, 86, 165, 90, 90, 165, 2, 0.467436
145, 2, bw, filler, NA, 999, 999, 8, 17, 151, 110, 180, 152, 160, 95, 1, 0.694616
145, 2, bw, filler, NA, 999, 999, 8, 17, 151, 110, 180, 152, 160, 95, 2, 0.393566
145, 2, bw, attraction, a-b-da, 2, 2, 8, 18, 163, 89, 165, 90, 90, 165, 1, 0.431389
145, 2, bw, attraction, a-b-da, 2, 2, 8, 18, 163, 89, 165, 90, 90, 165, 2, 0.461186
145, 2, bw, attraction, a-b-db, 5, 3, 8, 19, 120, 195, 195, 120, 117, 190, 1, 0.720433
145, 2, bw, attraction, a-b-db, 5, 3, 8, 19, 120, 195, 195, 120, 117, 190, 2, 0.434766
145, 2, bw, attraction, a-b-db, 14, 1, 8, 20, 56, 125, 60, 135, 135, 60, 1, 0.695187
145, 2, bw, attraction, a-b-db, 14, 1, 8, 20, 56, 125, 60, 135, 135, 60, 2, 0.650276
145, 2, bw, filler, NA, 999, 999, 8, 21, 101, 108, 94, 105, 181, 94, 3, 1.53419
145, 2, bw, filler, NA, 999, 999, 8, 21, 101, 108, 94, 105, 181, 94, 2, 0.615592
145, 2, bw, filler, NA, 999, 999, 8, 22, 121, 166, 136, 194, 80, 88, 2, 1.11664
145, 2, bw, filler, NA, 999, 999, 8, 22, 121, 166, 136, 194, 80, 88, 3, 0.654894
145, 2, bw, attraction, a-b-da, 5, 1, 8, 23, 132, 58, 135, 60, 60, 135, 1, 0.498652
145, 2, bw, attraction, a-b-da, 5, 1, 8, 23, 132, 58, 135, 60, 60, 135, 2, 0.309799
145, 2, bw, filler, NA, 999, 999, 8, 24, 184, 75, 81, 61, 90, 112, 1, 0.542927
145, 2, bw, filler, NA, 999, 999, 8, 24, 184, 75, 81, 61, 90, 112, 2, 0.312108
145, 2, bw, attraction, a-b-db, 5, 1, 8, 25, 60, 135, 58, 132, 135, 60, 1, 0.665277
145, 2, bw, attraction, a-b-db, 5, 1, 8, 25, 60, 135, 58, 132, 135, 60, 2, 0.397718
145, 2, bw, catch, NA, 999, 999, 8, 26, 113, 82, 164, 91, 122, 193, 3, 0.851537
145, 2, bw, catch, NA, 999, 999, 8, 26, 113, 82, 164, 91, 122, 193, 1, 0.544748
145, 2, bw, filler, NA, 999, 999, 8, 27, 64, 98, 147, 88, 187, 94, 3, 0.776404
145, 2, bw, filler, NA, 999, 999, 8, 27, 64, 98, 147, 88, 187, 94, 1, 1.08013
145, 2, bw, filler, NA, 999, 999, 8, 28, 135, 150, 191, 98, 184, 175, 3, 0.706391
145, 2, bw, filler, NA, 999, 999, 8, 28, 135, 150, 191, 98, 184, 175, 1, 0.732879
145, 2, bw, catch, NA, 999, 999, 8, 29, 104, 151, 78, 117, 153, 162, 3, 0.581253
145, 2, bw, catch, NA, 999, 999, 8, 29, 104, 151, 78, 117, 153, 162, 2, 0.55701
145, 2, bw, attraction, a-b-db, 2, 3, 8, 30, 120, 195, 195, 120, 119, 193, 1, 0.67603
145, 2, bw, attraction, a-b-db, 2, 3, 8, 30, 120, 195, 195, 120, 119, 193, 2, 0.335764
145, 2, bw, attraction, a-b-da, 14, 3, 8, 31, 120, 195, 181, 111, 195, 120, 1, 0.600359
145, 2, bw, attraction, a-b-da, 14, 3, 8, 31, 120, 195, 181, 111, 195, 120, 2, 0.383513
145, 2, bw, attraction, a-b-db, 2, 2, 8, 32, 89, 163, 90, 165, 165, 90, 1, 0.638018
145, 2, bw, attraction, a-b-db, 2, 2, 8, 32, 89, 163, 90, 165, 165, 90, 2, 0.347046
145, 2, bw, attraction, a-b-db, 9, 3, 8, 33, 195, 120, 120, 195, 114, 186, 1, 0.450829
145, 2, bw, attraction, a-b-db, 9, 3, 8, 33, 195, 120, 120, 195, 114, 186, 2, 0.376173
145, 2, bw, attraction, a-b-da, 14, 2, 8, 34, 90, 165, 153, 83, 165, 90, 1, 0.566544
145, 2, bw, attraction, a-b-da, 14, 2, 8, 34, 90, 165, 153, 83, 165, 90, 2, 0.310987
145, 2, bw, attraction, a-b-da, 14, 1, 8, 35, 60, 135, 135, 60, 125, 56, 1, 0.528206
145, 2, bw, attraction, a-b-da, 14, 1, 8, 35, 60, 135, 135, 60, 125, 56, 2, 0.450018
145, 2, bw, filler, NA, 999, 999, 8, 36, 57, 56, 105, 175, 99, 166, 3, 0.733708
145, 2, bw, filler, NA, 999, 999, 8, 36, 57, 56, 105, 175, 99, 166, 1, 1.2475
145, 2, bw, catch, NA, 999, 999, 8, 37, 96, 159, 117, 78, 180, 135, 3, 1.08306
145, 2, bw, catch, NA, 999, 999, 8, 37, 96, 159, 117, 78, 180, 135, 2, 0.35069
