sub_n, computer_n, bw_cond, effect, set, distance, diag, block_n, trial_n, h1, w1, h2, w2, h3, w3, choice, rt 
122, 2, wb, practice, NA, 999, 999, 0, 1, 115, 108, 108, 90, 192, 105, 2, 3.92385
122, 2, wb, practice, NA, 999, 999, 0, 1, 115, 108, 108, 90, 192, 105, 3, 2.14196
122, 2, wb, practice, NA, 999, 999, 0, 2, 171, 149, 176, 100, 98, 150, 3, 2.92977
122, 2, wb, practice, NA, 999, 999, 0, 2, 171, 149, 176, 100, 98, 150, 1, 3.41142
122, 2, wb, practice, NA, 999, 999, 0, 3, 146, 138, 65, 100, 174, 130, 2, 2.74038
122, 2, wb, practice, NA, 999, 999, 0, 3, 146, 138, 65, 100, 174, 130, 3, 1.63592
122, 2, wb, attraction, a-b-db, 14, 3, 1, 1, 195, 120, 111, 181, 120, 195, 2, 2.15336
122, 2, wb, attraction, a-b-db, 14, 3, 1, 1, 195, 120, 111, 181, 120, 195, 3, 4.98608
122, 2, wb, attraction, a-b-da, 2, 2, 1, 2, 90, 165, 165, 90, 163, 89, 2, 3.19109
122, 2, wb, attraction, a-b-da, 2, 2, 1, 2, 90, 165, 165, 90, 163, 89, 1, 1.59749
122, 2, wb, attraction, a-b-db, 9, 2, 1, 3, 90, 165, 86, 157, 165, 90, 3, 3.34684
122, 2, wb, attraction, a-b-db, 9, 2, 1, 3, 90, 165, 86, 157, 165, 90, 2, 1.01916
122, 2, wb, attraction, a-b-da, 5, 3, 1, 4, 190, 117, 195, 120, 120, 195, 1, 3.712
122, 2, wb, attraction, a-b-da, 5, 3, 1, 4, 190, 117, 195, 120, 120, 195, 3, 1.81746
122, 2, wb, attraction, a-b-da, 5, 1, 1, 5, 60, 135, 135, 60, 132, 58, 1, 2.74213
122, 2, wb, attraction, a-b-da, 5, 1, 1, 5, 60, 135, 135, 60, 132, 58, 3, 1.12666
122, 2, wb, filler, NA, 999, 999, 1, 6, 90, 133, 129, 162, 191, 153, 1, 0.982934
122, 2, wb, filler, NA, 999, 999, 1, 6, 90, 133, 129, 162, 191, 153, 3, 0.878646
122, 2, wb, catch, NA, 999, 999, 1, 7, 160, 155, 158, 97, 119, 76, 3, 0.88895
122, 2, wb, catch, NA, 999, 999, 1, 7, 160, 155, 158, 97, 119, 76, 1, 0.732036
122, 2, wb, attraction, a-b-db, 2, 2, 1, 8, 165, 90, 89, 163, 90, 165, 3, 2.18034
122, 2, wb, attraction, a-b-db, 2, 2, 1, 8, 165, 90, 89, 163, 90, 165, 2, 0.763693
122, 2, wb, attraction, a-b-da, 9, 3, 1, 9, 195, 120, 120, 195, 186, 114, 3, 2.4747
122, 2, wb, attraction, a-b-da, 9, 3, 1, 9, 195, 120, 120, 195, 186, 114, 2, 0.853868
122, 2, wb, attraction, a-b-da, 14, 2, 1, 10, 165, 90, 90, 165, 153, 83, 3, 1.60157
122, 2, wb, attraction, a-b-da, 14, 2, 1, 10, 165, 90, 90, 165, 153, 83, 2, 0.64839
122, 2, wb, attraction, a-b-db, 2, 1, 1, 11, 135, 60, 60, 135, 59, 134, 1, 3.06012
122, 2, wb, attraction, a-b-db, 2, 1, 1, 11, 135, 60, 60, 135, 59, 134, 2, 0.711679
122, 2, wb, catch, NA, 999, 999, 1, 12, 165, 90, 97, 98, 186, 129, 2, 1.16887
122, 2, wb, catch, NA, 999, 999, 1, 12, 165, 90, 97, 98, 186, 129, 3, 0.449099
122, 2, wb, filler, NA, 999, 999, 1, 13, 152, 149, 188, 91, 114, 145, 3, 2.50894
122, 2, wb, filler, NA, 999, 999, 1, 13, 152, 149, 188, 91, 114, 145, 1, 0.90278
122, 2, wb, filler, NA, 999, 999, 1, 14, 146, 74, 91, 70, 68, 186, 2, 0.872437
122, 2, wb, filler, NA, 999, 999, 1, 14, 146, 74, 91, 70, 68, 186, 1, 1.0761
122, 2, wb, filler, NA, 999, 999, 1, 15, 115, 93, 71, 188, 100, 104, 3, 1.50236
122, 2, wb, filler, NA, 999, 999, 1, 15, 115, 93, 71, 188, 100, 104, 2, 0.761307
122, 2, wb, filler, NA, 999, 999, 1, 16, 158, 184, 80, 111, 111, 115, 2, 1.23228
122, 2, wb, filler, NA, 999, 999, 1, 16, 158, 184, 80, 111, 111, 115, 1, 0.44577
122, 2, wb, attraction, a-b-db, 5, 3, 1, 17, 117, 190, 120, 195, 195, 120, 3, 2.15369
122, 2, wb, attraction, a-b-db, 5, 3, 1, 17, 117, 190, 120, 195, 195, 120, 2, 0.538192
122, 2, wb, attraction, a-b-da, 2, 1, 1, 18, 135, 60, 134, 59, 60, 135, 2, 2.00278
122, 2, wb, attraction, a-b-da, 2, 1, 1, 18, 135, 60, 134, 59, 60, 135, 3, 0.433465
122, 2, wb, attraction, a-b-db, 5, 2, 1, 19, 165, 90, 90, 165, 88, 161, 1, 1.58211
122, 2, wb, attraction, a-b-db, 5, 2, 1, 19, 165, 90, 90, 165, 88, 161, 2, 0.501299
122, 2, wb, attraction, a-b-db, 14, 2, 1, 20, 90, 165, 165, 90, 83, 153, 2, 0.90323
122, 2, wb, attraction, a-b-db, 14, 2, 1, 20, 90, 165, 165, 90, 83, 153, 3, 0.426241
122, 2, wb, attraction, a-b-da, 5, 2, 1, 21, 161, 88, 165, 90, 90, 165, 1, 1.71862
122, 2, wb, attraction, a-b-da, 5, 2, 1, 21, 161, 88, 165, 90, 90, 165, 2, 0.77686
122, 2, wb, attraction, a-b-da, 14, 1, 1, 22, 135, 60, 125, 56, 60, 135, 2, 1.76708
122, 2, wb, attraction, a-b-da, 14, 1, 1, 22, 135, 60, 125, 56, 60, 135, 3, 0.687281
122, 2, wb, attraction, a-b-da, 9, 2, 1, 23, 90, 165, 165, 90, 157, 86, 2, 1.79359
122, 2, wb, attraction, a-b-da, 9, 2, 1, 23, 90, 165, 165, 90, 157, 86, 1, 0.744325
122, 2, wb, filler, NA, 999, 999, 1, 24, 191, 77, 87, 121, 142, 126, 2, 1.43217
122, 2, wb, filler, NA, 999, 999, 1, 24, 191, 77, 87, 121, 142, 126, 3, 0.55753
122, 2, wb, attraction, a-b-db, 9, 1, 1, 25, 135, 60, 57, 129, 60, 135, 3, 1.57274
122, 2, wb, attraction, a-b-db, 9, 1, 1, 25, 135, 60, 57, 129, 60, 135, 1, 0.692125
122, 2, wb, attraction, a-b-da, 2, 3, 1, 26, 195, 120, 120, 195, 193, 119, 2, 1.31786
122, 2, wb, attraction, a-b-da, 2, 3, 1, 26, 195, 120, 120, 195, 193, 119, 3, 0.616102
122, 2, wb, attraction, a-b-db, 2, 3, 1, 27, 195, 120, 119, 193, 120, 195, 2, 1.14924
122, 2, wb, attraction, a-b-db, 2, 3, 1, 27, 195, 120, 119, 193, 120, 195, 1, 0.454284
122, 2, wb, catch, NA, 999, 999, 1, 28, 151, 164, 123, 132, 120, 75, 3, 0.793932
122, 2, wb, catch, NA, 999, 999, 1, 28, 151, 164, 123, 132, 120, 75, 1, 0.521134
122, 2, wb, filler, NA, 999, 999, 1, 29, 161, 60, 156, 125, 104, 151, 1, 1.05009
122, 2, wb, filler, NA, 999, 999, 1, 29, 161, 60, 156, 125, 104, 151, 2, 0.575115
122, 2, wb, attraction, a-b-da, 14, 3, 1, 30, 120, 195, 181, 111, 195, 120, 3, 0.82153
122, 2, wb, attraction, a-b-da, 14, 3, 1, 30, 120, 195, 181, 111, 195, 120, 2, 0.587212
122, 2, wb, filler, NA, 999, 999, 1, 31, 117, 171, 57, 176, 72, 102, 3, 1.59379
122, 2, wb, filler, NA, 999, 999, 1, 31, 117, 171, 57, 176, 72, 102, 1, 0.448459
122, 2, wb, filler, NA, 999, 999, 1, 32, 193, 195, 144, 127, 68, 123, 3, 0.596234
122, 2, wb, filler, NA, 999, 999, 1, 32, 193, 195, 144, 127, 68, 123, 1, 0.563453
122, 2, wb, attraction, a-b-db, 14, 1, 1, 33, 135, 60, 56, 125, 60, 135, 3, 1.07454
122, 2, wb, attraction, a-b-db, 14, 1, 1, 33, 135, 60, 56, 125, 60, 135, 1, 1.64614
122, 2, wb, attraction, a-b-db, 9, 3, 1, 34, 195, 120, 114, 186, 120, 195, 1, 1.24152
122, 2, wb, attraction, a-b-db, 9, 3, 1, 34, 195, 120, 114, 186, 120, 195, 2, 0.43854
122, 2, wb, attraction, a-b-db, 5, 1, 1, 35, 135, 60, 60, 135, 58, 132, 3, 0.770988
122, 2, wb, attraction, a-b-db, 5, 1, 1, 35, 135, 60, 60, 135, 58, 132, 2, 0.706666
122, 2, wb, attraction, a-b-da, 9, 1, 1, 36, 129, 57, 60, 135, 135, 60, 3, 0.739793
122, 2, wb, attraction, a-b-da, 9, 1, 1, 36, 129, 57, 60, 135, 135, 60, 2, 0.492927
122, 2, wb, filler, NA, 999, 999, 1, 37, 183, 124, 179, 57, 75, 107, 3, 0.630624
122, 2, wb, filler, NA, 999, 999, 1, 37, 183, 124, 179, 57, 75, 107, 1, 0.444337
122, 2, wb, filler, NA, 999, 999, 2, 1, 139, 120, 182, 129, 114, 68, 3, 0.672211
122, 2, wb, filler, NA, 999, 999, 2, 1, 139, 120, 182, 129, 114, 68, 2, 0.452068
122, 2, wb, attraction, a-b-da, 5, 2, 2, 2, 165, 90, 90, 165, 161, 88, 3, 0.719751
122, 2, wb, attraction, a-b-da, 5, 2, 2, 2, 165, 90, 90, 165, 161, 88, 1, 0.474127
122, 2, wb, attraction, a-b-da, 2, 3, 2, 3, 193, 119, 195, 120, 120, 195, 3, 0.780719
122, 2, wb, attraction, a-b-da, 2, 3, 2, 3, 193, 119, 195, 120, 120, 195, 2, 0.812258
122, 2, wb, filler, NA, 999, 999, 2, 4, 63, 171, 66, 96, 186, 150, 2, 0.681361
122, 2, wb, filler, NA, 999, 999, 2, 4, 63, 171, 66, 96, 186, 150, 3, 0.365099
122, 2, wb, attraction, a-b-db, 2, 1, 2, 5, 59, 134, 135, 60, 60, 135, 2, 0.748382
122, 2, wb, attraction, a-b-db, 2, 1, 2, 5, 59, 134, 135, 60, 60, 135, 3, 0.573398
122, 2, wb, filler, NA, 999, 999, 2, 6, 66, 188, 70, 174, 115, 80, 3, 0.619716
122, 2, wb, filler, NA, 999, 999, 2, 6, 66, 188, 70, 174, 115, 80, 2, 0.858273
122, 2, wb, attraction, a-b-db, 2, 2, 2, 7, 90, 165, 165, 90, 89, 163, 2, 0.845256
122, 2, wb, attraction, a-b-db, 2, 2, 2, 7, 90, 165, 165, 90, 89, 163, 3, 0.546378
122, 2, wb, attraction, a-b-da, 14, 3, 2, 8, 195, 120, 120, 195, 181, 111, 1, 0.713986
122, 2, wb, attraction, a-b-da, 14, 3, 2, 8, 195, 120, 120, 195, 181, 111, 2, 0.9405
122, 2, wb, attraction, a-b-da, 9, 1, 2, 9, 135, 60, 129, 57, 60, 135, 3, 0.636132
122, 2, wb, attraction, a-b-da, 9, 1, 2, 9, 135, 60, 129, 57, 60, 135, 2, 0.60187
122, 2, wb, attraction, a-b-da, 5, 3, 2, 10, 190, 117, 120, 195, 195, 120, 3, 0.847619
122, 2, wb, attraction, a-b-da, 5, 3, 2, 10, 190, 117, 120, 195, 195, 120, 2, 2.14869
122, 2, wb, filler, NA, 999, 999, 2, 11, 61, 95, 99, 162, 75, 145, 1, 0.987906
122, 2, wb, filler, NA, 999, 999, 2, 11, 61, 95, 99, 162, 75, 145, 2, 0.69896
122, 2, wb, filler, NA, 999, 999, 2, 12, 186, 89, 100, 151, 193, 191, 2, 1.62066
122, 2, wb, filler, NA, 999, 999, 2, 12, 186, 89, 100, 151, 193, 191, 3, 0.434151
122, 2, wb, attraction, a-b-db, 14, 1, 2, 13, 60, 135, 56, 125, 135, 60, 3, 1.15868
122, 2, wb, attraction, a-b-db, 14, 1, 2, 13, 60, 135, 56, 125, 135, 60, 1, 0.478861
122, 2, wb, attraction, a-b-da, 2, 2, 2, 14, 165, 90, 90, 165, 163, 89, 1, 1.42534
122, 2, wb, attraction, a-b-da, 2, 2, 2, 14, 165, 90, 90, 165, 163, 89, 2, 0.830925
122, 2, wb, attraction, a-b-da, 9, 2, 2, 15, 90, 165, 157, 86, 165, 90, 3, 1.15524
122, 2, wb, attraction, a-b-da, 9, 2, 2, 15, 90, 165, 157, 86, 165, 90, 2, 1.08347
122, 2, wb, catch, NA, 999, 999, 2, 16, 60, 135, 124, 131, 136, 179, 1, 0.781734
122, 2, wb, catch, NA, 999, 999, 2, 16, 60, 135, 124, 131, 136, 179, 3, 0.365421
122, 2, wb, catch, NA, 999, 999, 2, 17, 93, 102, 126, 129, 133, 182, 1, 1.00459
122, 2, wb, catch, NA, 999, 999, 2, 17, 93, 102, 126, 129, 133, 182, 3, 0.522984
122, 2, wb, attraction, a-b-db, 9, 1, 2, 18, 57, 129, 135, 60, 60, 135, 1, 0.723481
122, 2, wb, attraction, a-b-db, 9, 1, 2, 18, 57, 129, 135, 60, 60, 135, 2, 0.373096
122, 2, wb, filler, NA, 999, 999, 2, 19, 93, 89, 80, 121, 112, 185, 1, 0.755696
122, 2, wb, filler, NA, 999, 999, 2, 19, 93, 89, 80, 121, 112, 185, 3, 0.292024
122, 2, wb, attraction, a-b-db, 14, 2, 2, 20, 83, 153, 90, 165, 165, 90, 3, 1.30209
122, 2, wb, attraction, a-b-db, 14, 2, 2, 20, 83, 153, 90, 165, 165, 90, 2, 0.392822
122, 2, wb, attraction, a-b-db, 9, 3, 2, 21, 195, 120, 114, 186, 120, 195, 3, 1.27864
122, 2, wb, attraction, a-b-db, 9, 3, 2, 21, 195, 120, 114, 186, 120, 195, 2, 0.570168
122, 2, wb, attraction, a-b-db, 9, 2, 2, 22, 90, 165, 86, 157, 165, 90, 3, 0.88131
122, 2, wb, attraction, a-b-db, 9, 2, 2, 22, 90, 165, 86, 157, 165, 90, 1, 0.508977
122, 2, wb, filler, NA, 999, 999, 2, 23, 67, 75, 168, 61, 183, 186, 1, 0.846119
122, 2, wb, filler, NA, 999, 999, 2, 23, 67, 75, 168, 61, 183, 186, 3, 0.323272
122, 2, wb, catch, NA, 999, 999, 2, 24, 147, 168, 148, 107, 106, 89, 3, 0.715779
122, 2, wb, catch, NA, 999, 999, 2, 24, 147, 168, 148, 107, 106, 89, 1, 0.61402
122, 2, wb, attraction, a-b-da, 5, 1, 2, 25, 135, 60, 60, 135, 132, 58, 1, 0.891186
122, 2, wb, attraction, a-b-da, 5, 1, 2, 25, 135, 60, 60, 135, 132, 58, 2, 1.17425
122, 2, wb, attraction, a-b-db, 5, 1, 2, 26, 135, 60, 58, 132, 60, 135, 1, 0.732507
122, 2, wb, attraction, a-b-db, 5, 1, 2, 26, 135, 60, 58, 132, 60, 135, 2, 0.550132
122, 2, wb, filler, NA, 999, 999, 2, 27, 194, 150, 65, 175, 95, 131, 3, 0.621976
122, 2, wb, filler, NA, 999, 999, 2, 27, 194, 150, 65, 175, 95, 131, 1, 0.403683
122, 2, wb, attraction, a-b-da, 14, 2, 2, 28, 165, 90, 153, 83, 90, 165, 3, 0.73757
122, 2, wb, attraction, a-b-da, 14, 2, 2, 28, 165, 90, 153, 83, 90, 165, 1, 0.410678
122, 2, wb, attraction, a-b-db, 5, 2, 2, 29, 90, 165, 88, 161, 165, 90, 3, 0.655742
122, 2, wb, attraction, a-b-db, 5, 2, 2, 29, 90, 165, 88, 161, 165, 90, 2, 0.324185
122, 2, wb, filler, NA, 999, 999, 2, 30, 119, 102, 193, 161, 159, 190, 1, 0.748659
122, 2, wb, filler, NA, 999, 999, 2, 30, 119, 102, 193, 161, 159, 190, 3, 0.877927
122, 2, wb, filler, NA, 999, 999, 2, 31, 60, 126, 162, 81, 177, 98, 1, 0.648106
122, 2, wb, filler, NA, 999, 999, 2, 31, 60, 126, 162, 81, 177, 98, 3, 0.84536
122, 2, wb, attraction, a-b-da, 14, 1, 2, 32, 135, 60, 60, 135, 125, 56, 1, 0.60082
122, 2, wb, attraction, a-b-da, 14, 1, 2, 32, 135, 60, 60, 135, 125, 56, 2, 0.479918
122, 2, wb, attraction, a-b-db, 14, 3, 2, 33, 111, 181, 195, 120, 120, 195, 2, 0.610373
122, 2, wb, attraction, a-b-db, 14, 3, 2, 33, 111, 181, 195, 120, 120, 195, 3, 0.392824
122, 2, wb, attraction, a-b-db, 2, 3, 2, 34, 195, 120, 120, 195, 119, 193, 3, 0.926704
122, 2, wb, attraction, a-b-db, 2, 3, 2, 34, 195, 120, 120, 195, 119, 193, 2, 0.328332
122, 2, wb, attraction, a-b-db, 5, 3, 2, 35, 120, 195, 195, 120, 117, 190, 3, 0.600878
122, 2, wb, attraction, a-b-db, 5, 3, 2, 35, 120, 195, 195, 120, 117, 190, 2, 0.383965
122, 2, wb, attraction, a-b-da, 2, 1, 2, 36, 60, 135, 135, 60, 134, 59, 1, 0.662485
122, 2, wb, attraction, a-b-da, 2, 1, 2, 36, 60, 135, 135, 60, 134, 59, 2, 0.426868
122, 2, wb, attraction, a-b-da, 9, 3, 2, 37, 186, 114, 195, 120, 120, 195, 3, 1.20731
122, 2, wb, attraction, a-b-da, 9, 3, 2, 37, 186, 114, 195, 120, 120, 195, 2, 0.365729
122, 2, wb, filler, NA, 999, 999, 3, 1, 81, 125, 106, 62, 179, 189, 2, 0.724866
122, 2, wb, filler, NA, 999, 999, 3, 1, 81, 125, 106, 62, 179, 189, 3, 0.390599
122, 2, wb, filler, NA, 999, 999, 3, 2, 116, 146, 170, 142, 185, 162, 1, 0.716422
122, 2, wb, filler, NA, 999, 999, 3, 2, 116, 146, 170, 142, 185, 162, 3, 0.494741
122, 2, wb, filler, NA, 999, 999, 3, 3, 138, 74, 164, 57, 165, 165, 2, 1.55276
122, 2, wb, filler, NA, 999, 999, 3, 3, 138, 74, 164, 57, 165, 165, 3, 0.361531
122, 2, wb, attraction, a-b-db, 5, 2, 3, 4, 88, 161, 165, 90, 90, 165, 2, 0.720542
122, 2, wb, attraction, a-b-db, 5, 2, 3, 4, 88, 161, 165, 90, 90, 165, 3, 1.5383
122, 2, wb, attraction, a-b-da, 14, 1, 3, 5, 60, 135, 135, 60, 125, 56, 3, 1.92242
122, 2, wb, attraction, a-b-da, 14, 1, 3, 5, 60, 135, 135, 60, 125, 56, 2, 0.635812
122, 2, wb, attraction, a-b-db, 2, 3, 3, 6, 120, 195, 119, 193, 195, 120, 3, 1.72032
122, 2, wb, attraction, a-b-db, 2, 3, 3, 6, 120, 195, 119, 193, 195, 120, 2, 0.562298
122, 2, wb, filler, NA, 999, 999, 3, 7, 175, 195, 122, 120, 114, 116, 3, 0.769537
122, 2, wb, filler, NA, 999, 999, 3, 7, 175, 195, 122, 120, 114, 116, 1, 0.393926
122, 2, wb, attraction, a-b-db, 14, 1, 3, 8, 135, 60, 56, 125, 60, 135, 1, 1.07966
122, 2, wb, attraction, a-b-db, 14, 1, 3, 8, 135, 60, 56, 125, 60, 135, 2, 0.731394
122, 2, wb, attraction, a-b-db, 9, 2, 3, 9, 90, 165, 86, 157, 165, 90, 3, 0.923683
122, 2, wb, attraction, a-b-db, 9, 2, 3, 9, 90, 165, 86, 157, 165, 90, 1, 0.613374
122, 2, wb, attraction, a-b-da, 5, 1, 3, 10, 132, 58, 60, 135, 135, 60, 3, 2.45045
122, 2, wb, attraction, a-b-da, 5, 1, 3, 10, 132, 58, 60, 135, 135, 60, 2, 1.51916
122, 2, wb, attraction, a-b-da, 14, 3, 3, 11, 195, 120, 181, 111, 120, 195, 3, 2.04788
122, 2, wb, attraction, a-b-da, 14, 3, 3, 11, 195, 120, 181, 111, 120, 195, 2, 0.748585
122, 2, wb, filler, NA, 999, 999, 3, 12, 169, 115, 126, 59, 169, 87, 2, 0.980109
122, 2, wb, filler, NA, 999, 999, 3, 12, 169, 115, 126, 59, 169, 87, 1, 0.315835
122, 2, wb, filler, NA, 999, 999, 3, 13, 137, 129, 127, 167, 178, 186, 1, 2.797
122, 2, wb, filler, NA, 999, 999, 3, 13, 137, 129, 127, 167, 178, 186, 3, 0.483426
122, 2, wb, attraction, a-b-da, 5, 3, 3, 14, 120, 195, 195, 120, 190, 117, 3, 1.54986
122, 2, wb, attraction, a-b-da, 5, 3, 3, 14, 120, 195, 195, 120, 190, 117, 2, 0.582684
122, 2, wb, filler, NA, 999, 999, 3, 15, 66, 76, 160, 112, 168, 78, 1, 0.885182
122, 2, wb, filler, NA, 999, 999, 3, 15, 66, 76, 160, 112, 168, 78, 2, 1.0169
122, 2, wb, attraction, a-b-db, 5, 3, 3, 16, 120, 195, 195, 120, 117, 190, 1, 0.941866
122, 2, wb, attraction, a-b-db, 5, 3, 3, 16, 120, 195, 195, 120, 117, 190, 2, 0.374775
122, 2, wb, filler, NA, 999, 999, 3, 17, 116, 189, 192, 81, 136, 145, 1, 4.34143
122, 2, wb, filler, NA, 999, 999, 3, 17, 116, 189, 192, 81, 136, 145, 3, 1.13333
122, 2, wb, attraction, a-b-db, 14, 3, 3, 18, 111, 181, 195, 120, 120, 195, 2, 0.757576
122, 2, wb, attraction, a-b-db, 14, 3, 3, 18, 111, 181, 195, 120, 120, 195, 3, 2.0699
122, 2, wb, attraction, a-b-da, 9, 2, 3, 19, 165, 90, 90, 165, 157, 86, 3, 1.5686
122, 2, wb, attraction, a-b-da, 9, 2, 3, 19, 165, 90, 90, 165, 157, 86, 2, 0.472686
122, 2, wb, attraction, a-b-db, 9, 3, 3, 20, 120, 195, 195, 120, 114, 186, 1, 2.08309
122, 2, wb, attraction, a-b-db, 9, 3, 3, 20, 120, 195, 195, 120, 114, 186, 2, 0.63847
122, 2, wb, attraction, a-b-db, 2, 1, 3, 21, 135, 60, 60, 135, 59, 134, 3, 2.4509
122, 2, wb, attraction, a-b-db, 2, 1, 3, 21, 135, 60, 60, 135, 59, 134, 1, 0.967369
122, 2, wb, attraction, a-b-db, 14, 2, 3, 22, 165, 90, 90, 165, 83, 153, 3, 2.0144
122, 2, wb, attraction, a-b-db, 14, 2, 3, 22, 165, 90, 90, 165, 83, 153, 2, 1.26841
122, 2, wb, filler, NA, 999, 999, 3, 23, 117, 122, 56, 113, 88, 80, 3, 1.23924
122, 2, wb, filler, NA, 999, 999, 3, 23, 117, 122, 56, 113, 88, 80, 1, 0.748322
122, 2, wb, attraction, a-b-da, 2, 3, 3, 24, 195, 120, 193, 119, 120, 195, 1, 1.94787
122, 2, wb, attraction, a-b-da, 2, 3, 3, 24, 195, 120, 193, 119, 120, 195, 3, 0.940717
122, 2, wb, attraction, a-b-da, 9, 1, 3, 25, 129, 57, 135, 60, 60, 135, 1, 1.77233
122, 2, wb, attraction, a-b-da, 9, 1, 3, 25, 129, 57, 135, 60, 60, 135, 2, 1.09967
122, 2, wb, catch, NA, 999, 999, 3, 26, 180, 135, 86, 109, 133, 122, 2, 0.757282
122, 2, wb, catch, NA, 999, 999, 3, 26, 180, 135, 86, 109, 133, 122, 1, 0.357669
122, 2, wb, attraction, a-b-da, 5, 2, 3, 27, 90, 165, 161, 88, 165, 90, 2, 0.820792
122, 2, wb, attraction, a-b-da, 5, 2, 3, 27, 90, 165, 161, 88, 165, 90, 1, 0.402564
122, 2, wb, attraction, a-b-da, 9, 3, 3, 28, 195, 120, 120, 195, 186, 114, 3, 0.696366
122, 2, wb, attraction, a-b-da, 9, 3, 3, 28, 195, 120, 120, 195, 186, 114, 2, 0.467451
122, 2, wb, filler, NA, 999, 999, 3, 29, 193, 161, 129, 80, 65, 81, 3, 0.710579
122, 2, wb, filler, NA, 999, 999, 3, 29, 193, 161, 129, 80, 65, 81, 1, 0.392976
122, 2, wb, attraction, a-b-db, 2, 2, 3, 30, 165, 90, 90, 165, 89, 163, 3, 1.5508
122, 2, wb, attraction, a-b-db, 2, 2, 3, 30, 165, 90, 90, 165, 89, 163, 1, 0.38357
122, 2, wb, catch, NA, 999, 999, 3, 31, 106, 89, 131, 124, 151, 164, 1, 0.702134
122, 2, wb, catch, NA, 999, 999, 3, 31, 106, 89, 131, 124, 151, 164, 3, 0.345129
122, 2, wb, catch, NA, 999, 999, 3, 32, 95, 160, 147, 168, 114, 81, 3, 0.769045
122, 2, wb, catch, NA, 999, 999, 3, 32, 95, 160, 147, 168, 114, 81, 2, 0.353446
122, 2, wb, attraction, a-b-db, 5, 1, 3, 33, 60, 135, 135, 60, 58, 132, 3, 0.969369
122, 2, wb, attraction, a-b-db, 5, 1, 3, 33, 60, 135, 135, 60, 58, 132, 2, 0.457606
122, 2, wb, attraction, a-b-da, 2, 2, 3, 34, 163, 89, 90, 165, 165, 90, 3, 0.65276
122, 2, wb, attraction, a-b-da, 2, 2, 3, 34, 163, 89, 90, 165, 165, 90, 2, 0.345892
122, 2, wb, attraction, a-b-da, 2, 1, 3, 35, 134, 59, 60, 135, 135, 60, 3, 0.633695
122, 2, wb, attraction, a-b-da, 2, 1, 3, 35, 134, 59, 60, 135, 135, 60, 2, 0.423482
122, 2, wb, attraction, a-b-da, 14, 2, 3, 36, 90, 165, 165, 90, 153, 83, 3, 0.532025
122, 2, wb, attraction, a-b-da, 14, 2, 3, 36, 90, 165, 165, 90, 153, 83, 1, 0.533922
122, 2, wb, attraction, a-b-db, 9, 1, 3, 37, 135, 60, 57, 129, 60, 135, 2, 0.582133
122, 2, wb, attraction, a-b-db, 9, 1, 3, 37, 135, 60, 57, 129, 60, 135, 1, 0.437973
122, 2, wb, catch, NA, 999, 999, 4, 1, 108, 87, 182, 133, 122, 133, 1, 1.53848
122, 2, wb, catch, NA, 999, 999, 4, 1, 108, 87, 182, 133, 122, 133, 2, 0.787399
122, 2, wb, attraction, a-b-db, 9, 1, 4, 2, 135, 60, 57, 129, 60, 135, 2, 0.745626
122, 2, wb, attraction, a-b-db, 9, 1, 4, 2, 135, 60, 57, 129, 60, 135, 1, 0.458727
122, 2, wb, attraction, a-b-db, 2, 1, 4, 3, 59, 134, 60, 135, 135, 60, 3, 0.565894
122, 2, wb, attraction, a-b-db, 2, 1, 4, 3, 59, 134, 60, 135, 135, 60, 2, 0.406266
122, 2, wb, attraction, a-b-da, 14, 2, 4, 4, 90, 165, 153, 83, 165, 90, 3, 0.563464
122, 2, wb, attraction, a-b-da, 14, 2, 4, 4, 90, 165, 153, 83, 165, 90, 2, 0.459902
122, 2, wb, attraction, a-b-da, 2, 2, 4, 5, 163, 89, 90, 165, 165, 90, 3, 0.599017
122, 2, wb, attraction, a-b-da, 2, 2, 4, 5, 163, 89, 90, 165, 165, 90, 1, 0.558249
122, 2, wb, filler, NA, 999, 999, 4, 6, 131, 145, 126, 141, 115, 60, 3, 0.901339
122, 2, wb, filler, NA, 999, 999, 4, 6, 131, 145, 126, 141, 115, 60, 2, 0.376249
122, 2, wb, filler, NA, 999, 999, 4, 7, 102, 80, 124, 88, 57, 127, 3, 1.08677
122, 2, wb, filler, NA, 999, 999, 4, 7, 102, 80, 124, 88, 57, 127, 2, 0.314425
122, 2, wb, attraction, a-b-da, 9, 2, 4, 8, 157, 86, 165, 90, 90, 165, 2, 0.747587
122, 2, wb, attraction, a-b-da, 9, 2, 4, 8, 157, 86, 165, 90, 90, 165, 1, 0.484631
122, 2, wb, attraction, a-b-da, 5, 1, 4, 9, 132, 58, 60, 135, 135, 60, 2, 0.695167
122, 2, wb, attraction, a-b-da, 5, 1, 4, 9, 132, 58, 60, 135, 135, 60, 1, 0.514311
122, 2, wb, attraction, a-b-da, 5, 3, 4, 10, 195, 120, 120, 195, 190, 117, 3, 0.963379
122, 2, wb, attraction, a-b-da, 5, 3, 4, 10, 195, 120, 120, 195, 190, 117, 2, 0.331691
122, 2, wb, attraction, a-b-da, 9, 3, 4, 11, 186, 114, 120, 195, 195, 120, 3, 0.796247
122, 2, wb, attraction, a-b-da, 9, 3, 4, 11, 186, 114, 120, 195, 195, 120, 2, 0.435333
122, 2, wb, attraction, a-b-da, 2, 3, 4, 12, 120, 195, 193, 119, 195, 120, 1, 1.13569
122, 2, wb, attraction, a-b-da, 2, 3, 4, 12, 120, 195, 193, 119, 195, 120, 2, 0.729333
122, 2, wb, filler, NA, 999, 999, 4, 13, 107, 158, 112, 73, 153, 100, 2, 0.825683
122, 2, wb, filler, NA, 999, 999, 4, 13, 107, 158, 112, 73, 153, 100, 1, 1.98353
122, 2, wb, catch, NA, 999, 999, 4, 14, 87, 108, 118, 137, 178, 137, 1, 0.653314
122, 2, wb, catch, NA, 999, 999, 4, 14, 87, 108, 118, 137, 178, 137, 3, 0.626561
122, 2, wb, filler, NA, 999, 999, 4, 15, 60, 68, 135, 59, 97, 192, 1, 0.726881
122, 2, wb, filler, NA, 999, 999, 4, 15, 60, 68, 135, 59, 97, 192, 3, 0.600648
122, 2, wb, attraction, a-b-db, 5, 2, 4, 16, 165, 90, 88, 161, 90, 165, 1, 1.45434
122, 2, wb, attraction, a-b-db, 5, 2, 4, 16, 165, 90, 88, 161, 90, 165, 2, 0.578598
122, 2, wb, filler, NA, 999, 999, 4, 17, 160, 62, 57, 102, 73, 149, 2, 1.67304
122, 2, wb, filler, NA, 999, 999, 4, 17, 160, 62, 57, 102, 73, 149, 3, 0.556434
122, 2, wb, attraction, a-b-db, 5, 1, 4, 18, 60, 135, 135, 60, 58, 132, 3, 1.70762
122, 2, wb, attraction, a-b-db, 5, 1, 4, 18, 60, 135, 135, 60, 58, 132, 2, 0.533656
122, 2, wb, filler, NA, 999, 999, 4, 19, 95, 164, 63, 134, 194, 162, 2, 1.03017
122, 2, wb, filler, NA, 999, 999, 4, 19, 95, 164, 63, 134, 194, 162, 3, 0.41181
122, 2, wb, attraction, a-b-da, 5, 2, 4, 20, 161, 88, 90, 165, 165, 90, 1, 2.36893
122, 2, wb, attraction, a-b-da, 5, 2, 4, 20, 161, 88, 90, 165, 165, 90, 2, 0.792901
122, 2, wb, attraction, a-b-db, 14, 3, 4, 21, 120, 195, 195, 120, 111, 181, 3, 2.2306
122, 2, wb, attraction, a-b-db, 14, 3, 4, 21, 120, 195, 195, 120, 111, 181, 2, 0.475849
122, 2, wb, attraction, a-b-da, 14, 3, 4, 22, 120, 195, 195, 120, 181, 111, 1, 2.76632
122, 2, wb, attraction, a-b-da, 14, 3, 4, 22, 120, 195, 195, 120, 181, 111, 2, 0.437943
122, 2, wb, attraction, a-b-db, 9, 3, 4, 23, 195, 120, 120, 195, 114, 186, 3, 1.42642
122, 2, wb, attraction, a-b-db, 9, 3, 4, 23, 195, 120, 120, 195, 114, 186, 1, 0.479985
122, 2, wb, attraction, a-b-db, 2, 3, 4, 24, 195, 120, 119, 193, 120, 195, 2, 3.3226
122, 2, wb, attraction, a-b-db, 2, 3, 4, 24, 195, 120, 119, 193, 120, 195, 3, 0.71544
122, 2, wb, filler, NA, 999, 999, 4, 25, 165, 118, 116, 69, 165, 161, 2, 0.660525
122, 2, wb, filler, NA, 999, 999, 4, 25, 165, 118, 116, 69, 165, 161, 3, 0.505025
122, 2, wb, attraction, a-b-da, 14, 1, 4, 26, 60, 135, 135, 60, 125, 56, 3, 2.86669
122, 2, wb, attraction, a-b-da, 14, 1, 4, 26, 60, 135, 135, 60, 125, 56, 1, 1.24649
122, 2, wb, attraction, a-b-db, 2, 2, 4, 27, 90, 165, 165, 90, 89, 163, 2, 2.42596
122, 2, wb, attraction, a-b-db, 2, 2, 4, 27, 90, 165, 165, 90, 89, 163, 3, 0.807213
122, 2, wb, filler, NA, 999, 999, 4, 28, 92, 87, 148, 116, 125, 179, 1, 0.924218
122, 2, wb, filler, NA, 999, 999, 4, 28, 92, 87, 148, 116, 125, 179, 3, 0.526005
122, 2, wb, attraction, a-b-db, 5, 3, 4, 29, 117, 190, 120, 195, 195, 120, 3, 1.55844
122, 2, wb, attraction, a-b-db, 5, 3, 4, 29, 117, 190, 120, 195, 195, 120, 2, 0.518507
122, 2, wb, attraction, a-b-db, 9, 2, 4, 30, 165, 90, 86, 157, 90, 165, 3, 1.24769
122, 2, wb, attraction, a-b-db, 9, 2, 4, 30, 165, 90, 86, 157, 90, 165, 1, 0.564481
122, 2, wb, attraction, a-b-db, 14, 2, 4, 31, 165, 90, 90, 165, 83, 153, 2, 1.30756
122, 2, wb, attraction, a-b-db, 14, 2, 4, 31, 165, 90, 90, 165, 83, 153, 3, 0.517828
122, 2, wb, filler, NA, 999, 999, 4, 32, 60, 168, 71, 150, 138, 160, 1, 0.879125
122, 2, wb, filler, NA, 999, 999, 4, 32, 60, 168, 71, 150, 138, 160, 3, 0.810716
122, 2, wb, attraction, a-b-db, 14, 1, 4, 33, 60, 135, 135, 60, 56, 125, 2, 0.871647
122, 2, wb, attraction, a-b-db, 14, 1, 4, 33, 60, 135, 135, 60, 56, 125, 3, 0.515424
122, 2, wb, filler, NA, 999, 999, 4, 34, 144, 143, 177, 115, 64, 152, 3, 0.748501
122, 2, wb, filler, NA, 999, 999, 4, 34, 144, 143, 177, 115, 64, 152, 2, 0.46949
122, 2, wb, attraction, a-b-da, 9, 1, 4, 35, 135, 60, 60, 135, 129, 57, 3, 1.75272
122, 2, wb, attraction, a-b-da, 9, 1, 4, 35, 135, 60, 60, 135, 129, 57, 2, 1.0495
122, 2, wb, catch, NA, 999, 999, 4, 36, 119, 136, 96, 99, 120, 195, 3, 2.00513
122, 2, wb, catch, NA, 999, 999, 4, 36, 119, 136, 96, 99, 120, 195, 1, 1.63509
122, 2, wb, attraction, a-b-da, 2, 1, 4, 37, 60, 135, 135, 60, 134, 59, 2, 0.951357
122, 2, wb, attraction, a-b-da, 2, 1, 4, 37, 60, 135, 135, 60, 134, 59, 3, 0.576232
122, 2, wb, filler, NA, 999, 999, 5, 1, 177, 62, 188, 139, 161, 121, 1, 2.08524
122, 2, wb, filler, NA, 999, 999, 5, 1, 177, 62, 188, 139, 161, 121, 2, 1.12061
122, 2, wb, filler, NA, 999, 999, 5, 2, 188, 149, 116, 113, 185, 58, 3, 4.52151
122, 2, wb, filler, NA, 999, 999, 5, 2, 188, 149, 116, 113, 185, 58, 1, 0.498066
122, 2, wb, attraction, a-b-da, 9, 1, 5, 3, 135, 60, 129, 57, 60, 135, 3, 1.13192
122, 2, wb, attraction, a-b-da, 9, 1, 5, 3, 135, 60, 129, 57, 60, 135, 2, 0.637519
122, 2, wb, attraction, a-b-da, 2, 1, 5, 4, 60, 135, 134, 59, 135, 60, 2, 1.13794
122, 2, wb, attraction, a-b-da, 2, 1, 5, 4, 60, 135, 134, 59, 135, 60, 1, 0.59491
122, 2, wb, attraction, a-b-da, 2, 3, 5, 5, 193, 119, 195, 120, 120, 195, 3, 1.31258
122, 2, wb, attraction, a-b-da, 2, 3, 5, 5, 193, 119, 195, 120, 120, 195, 2, 0.466759
122, 2, wb, attraction, a-b-da, 9, 2, 5, 6, 165, 90, 157, 86, 90, 165, 1, 1.50997
122, 2, wb, attraction, a-b-da, 9, 2, 5, 6, 165, 90, 157, 86, 90, 165, 2, 0.672056
122, 2, wb, filler, NA, 999, 999, 5, 7, 194, 84, 194, 174, 136, 166, 1, 1.22718
122, 2, wb, filler, NA, 999, 999, 5, 7, 194, 84, 194, 174, 136, 166, 2, 0.512688
122, 2, wb, attraction, a-b-db, 5, 3, 5, 8, 120, 195, 117, 190, 195, 120, 3, 0.873892
122, 2, wb, attraction, a-b-db, 5, 3, 5, 8, 120, 195, 117, 190, 195, 120, 1, 0.621561
122, 2, wb, attraction, a-b-db, 9, 3, 5, 9, 120, 195, 114, 186, 195, 120, 2, 1.30671
122, 2, wb, attraction, a-b-db, 9, 3, 5, 9, 120, 195, 114, 186, 195, 120, 3, 0.308988
122, 2, wb, attraction, a-b-da, 14, 3, 5, 10, 195, 120, 120, 195, 181, 111, 2, 0.654067
122, 2, wb, attraction, a-b-da, 14, 3, 5, 10, 195, 120, 120, 195, 181, 111, 3, 0.41845
122, 2, wb, attraction, a-b-da, 14, 2, 5, 11, 153, 83, 165, 90, 90, 165, 1, 0.647621
122, 2, wb, attraction, a-b-da, 14, 2, 5, 11, 153, 83, 165, 90, 90, 165, 2, 0.436819
122, 2, wb, attraction, a-b-da, 14, 1, 5, 12, 60, 135, 125, 56, 135, 60, 3, 0.617239
122, 2, wb, attraction, a-b-da, 14, 1, 5, 12, 60, 135, 125, 56, 135, 60, 2, 0.48765
122, 2, wb, catch, NA, 999, 999, 5, 13, 129, 126, 87, 108, 132, 183, 3, 1.30613
122, 2, wb, catch, NA, 999, 999, 5, 13, 129, 126, 87, 108, 132, 183, 2, 0.62831
122, 2, wb, attraction, a-b-db, 5, 1, 5, 14, 60, 135, 58, 132, 135, 60, 2, 1.67276
122, 2, wb, attraction, a-b-db, 5, 1, 5, 14, 60, 135, 58, 132, 135, 60, 3, 0.492218
122, 2, wb, filler, NA, 999, 999, 5, 15, 184, 86, 84, 167, 74, 157, 3, 1.34199
122, 2, wb, filler, NA, 999, 999, 5, 15, 184, 86, 84, 167, 74, 157, 1, 1.21494
122, 2, wb, filler, NA, 999, 999, 5, 16, 170, 121, 174, 164, 118, 75, 3, 1.08381
122, 2, wb, filler, NA, 999, 999, 5, 16, 170, 121, 174, 164, 118, 75, 2, 0.367435
122, 2, wb, attraction, a-b-db, 2, 2, 5, 17, 89, 163, 90, 165, 165, 90, 3, 1.50259
122, 2, wb, attraction, a-b-db, 2, 2, 5, 17, 89, 163, 90, 165, 165, 90, 2, 0.617533
122, 2, wb, attraction, a-b-db, 2, 1, 5, 18, 135, 60, 60, 135, 59, 134, 3, 0.878561
122, 2, wb, attraction, a-b-db, 2, 1, 5, 18, 135, 60, 60, 135, 59, 134, 2, 0.522134
122, 2, wb, filler, NA, 999, 999, 5, 19, 120, 104, 87, 65, 148, 114, 2, 0.963348
122, 2, wb, filler, NA, 999, 999, 5, 19, 120, 104, 87, 65, 148, 114, 3, 0.395656
122, 2, wb, attraction, a-b-da, 2, 2, 5, 20, 163, 89, 165, 90, 90, 165, 3, 0.857588
122, 2, wb, attraction, a-b-da, 2, 2, 5, 20, 163, 89, 165, 90, 90, 165, 2, 0.429959
122, 2, wb, catch, NA, 999, 999, 5, 21, 111, 84, 150, 165, 161, 94, 1, 0.826414
122, 2, wb, catch, NA, 999, 999, 5, 21, 111, 84, 150, 165, 161, 94, 2, 0.36
122, 2, wb, attraction, a-b-db, 5, 2, 5, 22, 90, 165, 165, 90, 88, 161, 3, 1.82319
122, 2, wb, attraction, a-b-db, 5, 2, 5, 22, 90, 165, 165, 90, 88, 161, 1, 0.692573
122, 2, wb, attraction, a-b-db, 2, 3, 5, 23, 119, 193, 195, 120, 120, 195, 2, 1.3903
122, 2, wb, attraction, a-b-db, 2, 3, 5, 23, 119, 193, 195, 120, 120, 195, 3, 0.645257
122, 2, wb, filler, NA, 999, 999, 5, 24, 101, 153, 188, 189, 120, 59, 3, 0.800913
122, 2, wb, filler, NA, 999, 999, 5, 24, 101, 153, 188, 189, 120, 59, 2, 0.399957
122, 2, wb, filler, NA, 999, 999, 5, 25, 153, 194, 134, 151, 164, 151, 2, 1.25387
122, 2, wb, filler, NA, 999, 999, 5, 25, 153, 194, 134, 151, 164, 151, 3, 0.578726
122, 2, wb, attraction, a-b-db, 14, 3, 5, 26, 195, 120, 111, 181, 120, 195, 2, 1.33717
122, 2, wb, attraction, a-b-db, 14, 3, 5, 26, 195, 120, 111, 181, 120, 195, 3, 0.666826
122, 2, wb, attraction, a-b-db, 14, 2, 5, 27, 90, 165, 165, 90, 83, 153, 3, 0.861784
122, 2, wb, attraction, a-b-db, 14, 2, 5, 27, 90, 165, 165, 90, 83, 153, 2, 0.794235
122, 2, wb, attraction, a-b-db, 14, 1, 5, 28, 56, 125, 135, 60, 60, 135, 2, 0.73579
122, 2, wb, attraction, a-b-db, 14, 1, 5, 28, 56, 125, 135, 60, 60, 135, 3, 1.20953
122, 2, wb, filler, NA, 999, 999, 5, 29, 174, 137, 119, 62, 151, 135, 2, 1.27049
122, 2, wb, filler, NA, 999, 999, 5, 29, 174, 137, 119, 62, 151, 135, 1, 0.466651
122, 2, wb, attraction, a-b-da, 5, 3, 5, 30, 195, 120, 190, 117, 120, 195, 2, 2.92604
122, 2, wb, attraction, a-b-da, 5, 3, 5, 30, 195, 120, 190, 117, 120, 195, 1, 0.99889
122, 2, wb, attraction, a-b-da, 5, 2, 5, 31, 90, 165, 161, 88, 165, 90, 3, 0.988658
122, 2, wb, attraction, a-b-da, 5, 2, 5, 31, 90, 165, 161, 88, 165, 90, 2, 0.635575
122, 2, wb, filler, NA, 999, 999, 5, 32, 192, 152, 166, 170, 63, 97, 3, 0.712006
122, 2, wb, filler, NA, 999, 999, 5, 32, 192, 152, 166, 170, 63, 97, 2, 0.618439
122, 2, wb, attraction, a-b-db, 9, 2, 5, 33, 86, 157, 90, 165, 165, 90, 2, 0.999476
122, 2, wb, attraction, a-b-db, 9, 2, 5, 33, 86, 157, 90, 165, 165, 90, 3, 0.414428
122, 2, wb, attraction, a-b-da, 5, 1, 5, 34, 135, 60, 132, 58, 60, 135, 2, 0.8517
122, 2, wb, attraction, a-b-da, 5, 1, 5, 34, 135, 60, 132, 58, 60, 135, 3, 0.528688
122, 2, wb, catch, NA, 999, 999, 5, 35, 110, 85, 129, 186, 104, 151, 1, 1.48904
122, 2, wb, catch, NA, 999, 999, 5, 35, 110, 85, 129, 186, 104, 151, 2, 0.603907
122, 2, wb, attraction, a-b-da, 9, 3, 5, 36, 195, 120, 186, 114, 120, 195, 2, 2.85769
122, 2, wb, attraction, a-b-da, 9, 3, 5, 36, 195, 120, 186, 114, 120, 195, 3, 0.89342
122, 2, wb, attraction, a-b-db, 9, 1, 5, 37, 60, 135, 135, 60, 57, 129, 2, 0.887182
122, 2, wb, attraction, a-b-db, 9, 1, 5, 37, 60, 135, 135, 60, 57, 129, 3, 0.466811
122, 2, wb, catch, NA, 999, 999, 6, 1, 164, 151, 126, 69, 113, 142, 2, 0.781941
122, 2, wb, catch, NA, 999, 999, 6, 1, 164, 151, 126, 69, 113, 142, 1, 0.877618
122, 2, wb, attraction, a-b-db, 5, 3, 6, 2, 117, 190, 195, 120, 120, 195, 2, 1.1199
122, 2, wb, attraction, a-b-db, 5, 3, 6, 2, 117, 190, 195, 120, 120, 195, 3, 0.962188
122, 2, wb, filler, NA, 999, 999, 6, 3, 65, 170, 160, 144, 119, 103, 1, 0.881285
122, 2, wb, filler, NA, 999, 999, 6, 3, 65, 170, 160, 144, 119, 103, 2, 0.596906
122, 2, wb, attraction, a-b-db, 2, 1, 6, 4, 60, 135, 135, 60, 59, 134, 1, 1.0987
122, 2, wb, attraction, a-b-db, 2, 1, 6, 4, 60, 135, 135, 60, 59, 134, 2, 0.58166
122, 2, wb, attraction, a-b-da, 5, 2, 6, 5, 161, 88, 90, 165, 165, 90, 2, 1.98801
122, 2, wb, attraction, a-b-da, 5, 2, 6, 5, 161, 88, 90, 165, 165, 90, 3, 0.450774
122, 2, wb, attraction, a-b-db, 9, 1, 6, 6, 60, 135, 57, 129, 135, 60, 3, 1.47055
122, 2, wb, attraction, a-b-db, 9, 1, 6, 6, 60, 135, 57, 129, 135, 60, 2, 0.490015
122, 2, wb, attraction, a-b-db, 14, 2, 6, 7, 165, 90, 90, 165, 83, 153, 1, 2.39583
122, 2, wb, attraction, a-b-db, 14, 2, 6, 7, 165, 90, 90, 165, 83, 153, 2, 0.314364
122, 2, wb, attraction, a-b-db, 14, 1, 6, 8, 135, 60, 56, 125, 60, 135, 1, 1.13155
122, 2, wb, attraction, a-b-db, 14, 1, 6, 8, 135, 60, 56, 125, 60, 135, 3, 0.749179
122, 2, wb, attraction, a-b-da, 2, 2, 6, 9, 90, 165, 165, 90, 163, 89, 3, 0.78104
122, 2, wb, attraction, a-b-da, 2, 2, 6, 9, 90, 165, 165, 90, 163, 89, 2, 1.49262
122, 2, wb, catch, NA, 999, 999, 6, 10, 155, 100, 100, 95, 164, 151, 2, 0.790209
122, 2, wb, catch, NA, 999, 999, 6, 10, 155, 100, 100, 95, 164, 151, 3, 0.301184
122, 2, wb, attraction, a-b-db, 9, 2, 6, 11, 86, 157, 165, 90, 90, 165, 2, 1.05503
122, 2, wb, attraction, a-b-db, 9, 2, 6, 11, 86, 157, 165, 90, 90, 165, 1, 0.691395
122, 2, wb, catch, NA, 999, 999, 6, 12, 135, 60, 129, 186, 161, 94, 1, 3.37336
122, 2, wb, catch, NA, 999, 999, 6, 12, 135, 60, 129, 186, 161, 94, 2, 0.555917
122, 2, wb, filler, NA, 999, 999, 6, 13, 60, 71, 184, 165, 182, 132, 1, 0.819781
122, 2, wb, filler, NA, 999, 999, 6, 13, 60, 71, 184, 165, 182, 132, 2, 0.466114
122, 2, wb, attraction, a-b-db, 5, 1, 6, 14, 135, 60, 58, 132, 60, 135, 2, 1.20521
122, 2, wb, attraction, a-b-db, 5, 1, 6, 14, 135, 60, 58, 132, 60, 135, 3, 0.587463
122, 2, wb, filler, NA, 999, 999, 6, 15, 122, 124, 74, 181, 151, 176, 2, 1.61789
122, 2, wb, filler, NA, 999, 999, 6, 15, 122, 124, 74, 181, 151, 176, 3, 0.840334
122, 2, wb, attraction, a-b-da, 9, 2, 6, 16, 90, 165, 165, 90, 157, 86, 1, 1.09176
122, 2, wb, attraction, a-b-da, 9, 2, 6, 16, 90, 165, 165, 90, 157, 86, 2, 0.57475
122, 2, wb, attraction, a-b-da, 14, 3, 6, 17, 195, 120, 181, 111, 120, 195, 1, 1.44513
122, 2, wb, attraction, a-b-da, 14, 3, 6, 17, 195, 120, 181, 111, 120, 195, 3, 0.67401
122, 2, wb, attraction, a-b-db, 2, 3, 6, 18, 195, 120, 120, 195, 119, 193, 3, 1.06037
122, 2, wb, attraction, a-b-db, 2, 3, 6, 18, 195, 120, 120, 195, 119, 193, 2, 0.432802
122, 2, wb, filler, NA, 999, 999, 6, 19, 160, 85, 66, 164, 183, 131, 2, 0.949151
122, 2, wb, filler, NA, 999, 999, 6, 19, 160, 85, 66, 164, 183, 131, 3, 0.550406
122, 2, wb, attraction, a-b-da, 2, 1, 6, 20, 60, 135, 135, 60, 134, 59, 3, 1.01406
122, 2, wb, attraction, a-b-da, 2, 1, 6, 20, 60, 135, 135, 60, 134, 59, 2, 0.404346
122, 2, wb, filler, NA, 999, 999, 6, 21, 119, 73, 149, 57, 193, 79, 1, 0.842097
122, 2, wb, filler, NA, 999, 999, 6, 21, 119, 73, 149, 57, 193, 79, 3, 0.463086
122, 2, wb, attraction, a-b-db, 14, 3, 6, 22, 195, 120, 120, 195, 111, 181, 1, 1.2183
122, 2, wb, attraction, a-b-db, 14, 3, 6, 22, 195, 120, 120, 195, 111, 181, 2, 0.704541
122, 2, wb, attraction, a-b-da, 9, 3, 6, 23, 186, 114, 120, 195, 195, 120, 2, 0.690246
122, 2, wb, attraction, a-b-da, 9, 3, 6, 23, 186, 114, 120, 195, 195, 120, 1, 0.541333
122, 2, wb, attraction, a-b-da, 5, 1, 6, 24, 135, 60, 132, 58, 60, 135, 3, 0.581068
122, 2, wb, attraction, a-b-da, 5, 1, 6, 24, 135, 60, 132, 58, 60, 135, 2, 0.860917
122, 2, wb, attraction, a-b-db, 5, 2, 6, 25, 165, 90, 88, 161, 90, 165, 2, 1.2239
122, 2, wb, attraction, a-b-db, 5, 2, 6, 25, 165, 90, 88, 161, 90, 165, 3, 0.389413
122, 2, wb, attraction, a-b-da, 14, 2, 6, 26, 90, 165, 153, 83, 165, 90, 1, 0.739299
122, 2, wb, attraction, a-b-da, 14, 2, 6, 26, 90, 165, 153, 83, 165, 90, 2, 0.580347
122, 2, wb, attraction, a-b-da, 5, 3, 6, 27, 190, 117, 195, 120, 120, 195, 3, 0.82685
122, 2, wb, attraction, a-b-da, 5, 3, 6, 27, 190, 117, 195, 120, 120, 195, 2, 0.68845
122, 2, wb, attraction, a-b-db, 2, 2, 6, 28, 89, 163, 90, 165, 165, 90, 2, 0.763001
122, 2, wb, attraction, a-b-db, 2, 2, 6, 28, 89, 163, 90, 165, 165, 90, 3, 0.427356
122, 2, wb, filler, NA, 999, 999, 6, 29, 172, 109, 69, 139, 102, 127, 1, 1.35175
122, 2, wb, filler, NA, 999, 999, 6, 29, 172, 109, 69, 139, 102, 127, 2, 0.560704
122, 2, wb, attraction, a-b-da, 14, 1, 6, 30, 125, 56, 135, 60, 60, 135, 2, 0.799718
122, 2, wb, attraction, a-b-da, 14, 1, 6, 30, 125, 56, 135, 60, 60, 135, 1, 0.614946
122, 2, wb, filler, NA, 999, 999, 6, 31, 75, 143, 81, 140, 164, 180, 1, 0.907892
122, 2, wb, filler, NA, 999, 999, 6, 31, 75, 143, 81, 140, 164, 180, 3, 0.358234
122, 2, wb, attraction, a-b-db, 9, 3, 6, 32, 120, 195, 195, 120, 114, 186, 3, 0.981576
122, 2, wb, attraction, a-b-db, 9, 3, 6, 32, 120, 195, 195, 120, 114, 186, 2, 0.789102
122, 2, wb, filler, NA, 999, 999, 6, 33, 99, 126, 181, 115, 76, 57, 3, 0.723478
122, 2, wb, filler, NA, 999, 999, 6, 33, 99, 126, 181, 115, 76, 57, 2, 1.45328
122, 2, wb, attraction, a-b-da, 9, 1, 6, 34, 135, 60, 60, 135, 129, 57, 2, 1.43281
122, 2, wb, attraction, a-b-da, 9, 1, 6, 34, 135, 60, 60, 135, 129, 57, 1, 0.774344
122, 2, wb, attraction, a-b-da, 2, 3, 6, 35, 195, 120, 193, 119, 120, 195, 3, 0.90861
122, 2, wb, attraction, a-b-da, 2, 3, 6, 35, 195, 120, 193, 119, 120, 195, 2, 0.478953
122, 2, wb, filler, NA, 999, 999, 6, 36, 195, 146, 81, 122, 106, 68, 3, 0.745613
122, 2, wb, filler, NA, 999, 999, 6, 36, 195, 146, 81, 122, 106, 68, 1, 0.482413
122, 2, wb, filler, NA, 999, 999, 6, 37, 139, 141, 140, 195, 157, 195, 1, 0.764935
122, 2, wb, filler, NA, 999, 999, 6, 37, 139, 141, 140, 195, 157, 195, 3, 0.59749
122, 2, wb, attraction, a-b-da, 2, 1, 7, 1, 60, 135, 134, 59, 135, 60, 3, 0.723218
122, 2, wb, attraction, a-b-da, 2, 1, 7, 1, 60, 135, 134, 59, 135, 60, 2, 0.364829
122, 2, wb, filler, NA, 999, 999, 7, 2, 109, 117, 85, 76, 150, 118, 2, 0.692032
122, 2, wb, filler, NA, 999, 999, 7, 2, 109, 117, 85, 76, 150, 118, 3, 0.247047
122, 2, wb, catch, NA, 999, 999, 7, 3, 86, 109, 135, 120, 127, 188, 1, 0.650987
122, 2, wb, catch, NA, 999, 999, 7, 3, 86, 109, 135, 120, 127, 188, 3, 1.0561
122, 2, wb, attraction, a-b-db, 9, 3, 7, 4, 195, 120, 120, 195, 114, 186, 3, 0.763049
122, 2, wb, attraction, a-b-db, 9, 3, 7, 4, 195, 120, 120, 195, 114, 186, 2, 0.36342
122, 2, wb, attraction, a-b-da, 14, 1, 7, 5, 125, 56, 135, 60, 60, 135, 3, 0.938673
122, 2, wb, attraction, a-b-da, 14, 1, 7, 5, 125, 56, 135, 60, 60, 135, 2, 0.315676
122, 2, wb, filler, NA, 999, 999, 7, 6, 162, 163, 171, 112, 95, 94, 3, 1.1088
122, 2, wb, filler, NA, 999, 999, 7, 6, 162, 163, 171, 112, 95, 94, 1, 0.359186
122, 2, wb, attraction, a-b-da, 14, 2, 7, 7, 90, 165, 153, 83, 165, 90, 2, 0.57426
122, 2, wb, attraction, a-b-da, 14, 2, 7, 7, 90, 165, 153, 83, 165, 90, 3, 0.40614
122, 2, wb, attraction, a-b-db, 14, 1, 7, 8, 60, 135, 56, 125, 135, 60, 2, 0.619133
122, 2, wb, attraction, a-b-db, 14, 1, 7, 8, 60, 135, 56, 125, 135, 60, 3, 0.585763
122, 2, wb, attraction, a-b-da, 2, 2, 7, 9, 165, 90, 163, 89, 90, 165, 2, 0.559958
122, 2, wb, attraction, a-b-da, 2, 2, 7, 9, 165, 90, 163, 89, 90, 165, 3, 0.496506
122, 2, wb, attraction, a-b-db, 9, 1, 7, 10, 60, 135, 57, 129, 135, 60, 3, 0.79426
122, 2, wb, attraction, a-b-db, 9, 1, 7, 10, 60, 135, 57, 129, 135, 60, 1, 0.50529
122, 2, wb, attraction, a-b-db, 9, 2, 7, 11, 86, 157, 90, 165, 165, 90, 2, 0.603161
122, 2, wb, attraction, a-b-db, 9, 2, 7, 11, 86, 157, 90, 165, 165, 90, 3, 0.554223
122, 2, wb, filler, NA, 999, 999, 7, 12, 176, 159, 140, 167, 186, 100, 2, 0.561914
122, 2, wb, filler, NA, 999, 999, 7, 12, 176, 159, 140, 167, 186, 100, 3, 0.762492
122, 2, wb, attraction, a-b-db, 2, 3, 7, 13, 195, 120, 119, 193, 120, 195, 1, 0.929449
122, 2, wb, attraction, a-b-db, 2, 3, 7, 13, 195, 120, 119, 193, 120, 195, 2, 0.307175
122, 2, wb, filler, NA, 999, 999, 7, 14, 82, 94, 192, 152, 138, 97, 1, 0.676349
122, 2, wb, filler, NA, 999, 999, 7, 14, 82, 94, 192, 152, 138, 97, 2, 0.552155
122, 2, wb, attraction, a-b-db, 2, 1, 7, 15, 135, 60, 59, 134, 60, 135, 3, 0.599915
122, 2, wb, attraction, a-b-db, 2, 1, 7, 15, 135, 60, 59, 134, 60, 135, 2, 0.318965
122, 2, wb, filler, NA, 999, 999, 7, 16, 86, 171, 73, 140, 127, 124, 3, 0.688246
122, 2, wb, filler, NA, 999, 999, 7, 16, 86, 171, 73, 140, 127, 124, 2, 0.339255
122, 2, wb, attraction, a-b-da, 5, 2, 7, 17, 165, 90, 161, 88, 90, 165, 1, 0.787072
122, 2, wb, attraction, a-b-da, 5, 2, 7, 17, 165, 90, 161, 88, 90, 165, 2, 0.522178
122, 2, wb, attraction, a-b-db, 5, 2, 7, 18, 90, 165, 165, 90, 88, 161, 1, 0.47549
122, 2, wb, attraction, a-b-db, 5, 2, 7, 18, 90, 165, 165, 90, 88, 161, 2, 0.35904
122, 2, wb, attraction, a-b-db, 5, 3, 7, 19, 117, 190, 195, 120, 120, 195, 3, 0.558326
122, 2, wb, attraction, a-b-db, 5, 3, 7, 19, 117, 190, 195, 120, 120, 195, 2, 0.582826
122, 2, wb, attraction, a-b-db, 2, 2, 7, 20, 89, 163, 90, 165, 165, 90, 3, 0.453181
122, 2, wb, attraction, a-b-db, 2, 2, 7, 20, 89, 163, 90, 165, 165, 90, 2, 0.522339
122, 2, wb, filler, NA, 999, 999, 7, 21, 71, 174, 172, 141, 103, 86, 3, 0.683444
122, 2, wb, filler, NA, 999, 999, 7, 21, 71, 174, 172, 141, 103, 86, 2, 0.271213
122, 2, wb, filler, NA, 999, 999, 7, 22, 79, 75, 154, 65, 127, 155, 1, 0.834356
122, 2, wb, filler, NA, 999, 999, 7, 22, 79, 75, 154, 65, 127, 155, 3, 0.288074
122, 2, wb, attraction, a-b-db, 14, 2, 7, 23, 83, 153, 90, 165, 165, 90, 3, 0.858536
122, 2, wb, attraction, a-b-db, 14, 2, 7, 23, 83, 153, 90, 165, 165, 90, 2, 0.335024
122, 2, wb, catch, NA, 999, 999, 7, 24, 110, 85, 152, 103, 184, 131, 1, 1.08744
122, 2, wb, catch, NA, 999, 999, 7, 24, 110, 85, 152, 103, 184, 131, 3, 0.938456
122, 2, wb, attraction, a-b-da, 9, 2, 7, 25, 157, 86, 165, 90, 90, 165, 1, 1.25874
122, 2, wb, attraction, a-b-da, 9, 2, 7, 25, 157, 86, 165, 90, 90, 165, 2, 0.383031
122, 2, wb, filler, NA, 999, 999, 7, 26, 147, 78, 61, 61, 195, 152, 2, 0.661576
122, 2, wb, filler, NA, 999, 999, 7, 26, 147, 78, 61, 61, 195, 152, 3, 0.266061
122, 2, wb, attraction, a-b-da, 9, 3, 7, 27, 186, 114, 195, 120, 120, 195, 1, 0.725258
122, 2, wb, attraction, a-b-da, 9, 3, 7, 27, 186, 114, 195, 120, 120, 195, 2, 0.303009
122, 2, wb, catch, NA, 999, 999, 7, 28, 113, 82, 180, 135, 152, 103, 1, 0.816765
122, 2, wb, catch, NA, 999, 999, 7, 28, 113, 82, 180, 135, 152, 103, 2, 0.279084
122, 2, wb, attraction, a-b-db, 14, 3, 7, 29, 111, 181, 120, 195, 195, 120, 3, 0.721687
122, 2, wb, attraction, a-b-db, 14, 3, 7, 29, 111, 181, 120, 195, 195, 120, 2, 0.275358
122, 2, wb, attraction, a-b-da, 5, 3, 7, 30, 120, 195, 195, 120, 190, 117, 3, 0.949874
122, 2, wb, attraction, a-b-da, 5, 3, 7, 30, 120, 195, 195, 120, 190, 117, 2, 0.214973
122, 2, wb, filler, NA, 999, 999, 7, 31, 64, 135, 175, 166, 105, 60, 3, 1.07614
122, 2, wb, filler, NA, 999, 999, 7, 31, 64, 135, 175, 166, 105, 60, 2, 0.247751
122, 2, wb, attraction, a-b-da, 9, 1, 7, 32, 129, 57, 135, 60, 60, 135, 2, 0.915672
122, 2, wb, attraction, a-b-da, 9, 1, 7, 32, 129, 57, 135, 60, 60, 135, 3, 0.901972
122, 2, wb, attraction, a-b-da, 2, 3, 7, 33, 193, 119, 120, 195, 195, 120, 1, 0.911724
122, 2, wb, attraction, a-b-da, 2, 3, 7, 33, 193, 119, 120, 195, 195, 120, 2, 1.20195
122, 2, wb, attraction, a-b-da, 14, 3, 7, 34, 181, 111, 120, 195, 195, 120, 1, 0.919661
122, 2, wb, attraction, a-b-da, 14, 3, 7, 34, 181, 111, 120, 195, 195, 120, 2, 0.761971
122, 2, wb, filler, NA, 999, 999, 7, 35, 79, 115, 184, 144, 148, 192, 1, 0.71298
122, 2, wb, filler, NA, 999, 999, 7, 35, 79, 115, 184, 144, 148, 192, 3, 1.06734
122, 2, wb, attraction, a-b-db, 5, 1, 7, 36, 60, 135, 135, 60, 58, 132, 2, 1.17427
122, 2, wb, attraction, a-b-db, 5, 1, 7, 36, 60, 135, 135, 60, 58, 132, 1, 0.461923
122, 2, wb, attraction, a-b-da, 5, 1, 7, 37, 135, 60, 132, 58, 60, 135, 3, 1.4171
122, 2, wb, attraction, a-b-da, 5, 1, 7, 37, 135, 60, 132, 58, 60, 135, 2, 0.983285
122, 2, wb, attraction, a-b-da, 9, 1, 8, 1, 135, 60, 60, 135, 129, 57, 3, 1.11756
122, 2, wb, attraction, a-b-da, 9, 1, 8, 1, 135, 60, 60, 135, 129, 57, 2, 0.711969
122, 2, wb, filler, NA, 999, 999, 8, 2, 123, 115, 85, 156, 74, 71, 3, 0.912898
122, 2, wb, filler, NA, 999, 999, 8, 2, 123, 115, 85, 156, 74, 71, 2, 3.99532
122, 2, wb, attraction, a-b-db, 2, 2, 8, 3, 165, 90, 90, 165, 89, 163, 1, 1.1199
122, 2, wb, attraction, a-b-db, 2, 2, 8, 3, 165, 90, 90, 165, 89, 163, 2, 0.513509
122, 2, wb, attraction, a-b-db, 14, 1, 8, 4, 56, 125, 60, 135, 135, 60, 3, 0.970743
122, 2, wb, attraction, a-b-db, 14, 1, 8, 4, 56, 125, 60, 135, 135, 60, 2, 0.458532
122, 2, wb, attraction, a-b-db, 2, 3, 8, 5, 195, 120, 119, 193, 120, 195, 1, 0.957476
122, 2, wb, attraction, a-b-db, 2, 3, 8, 5, 195, 120, 119, 193, 120, 195, 2, 0.701814
122, 2, wb, attraction, a-b-da, 14, 1, 8, 6, 135, 60, 60, 135, 125, 56, 1, 0.967506
122, 2, wb, attraction, a-b-da, 14, 1, 8, 6, 135, 60, 60, 135, 125, 56, 2, 0.815918
122, 2, wb, filler, NA, 999, 999, 8, 7, 161, 166, 59, 77, 134, 110, 2, 0.692979
122, 2, wb, filler, NA, 999, 999, 8, 7, 161, 166, 59, 77, 134, 110, 1, 0.295933
122, 2, wb, attraction, a-b-da, 2, 3, 8, 8, 120, 195, 193, 119, 195, 120, 1, 1.53776
122, 2, wb, attraction, a-b-da, 2, 3, 8, 8, 120, 195, 193, 119, 195, 120, 2, 0.386767
122, 2, wb, attraction, a-b-db, 5, 3, 8, 9, 117, 190, 120, 195, 195, 120, 1, 0.769104
122, 2, wb, attraction, a-b-db, 5, 3, 8, 9, 117, 190, 120, 195, 195, 120, 3, 1.20151
122, 2, wb, filler, NA, 999, 999, 8, 10, 56, 157, 107, 63, 165, 125, 2, 1.19905
122, 2, wb, filler, NA, 999, 999, 8, 10, 56, 157, 107, 63, 165, 125, 3, 0.597963
122, 2, wb, attraction, a-b-db, 14, 2, 8, 11, 90, 165, 165, 90, 83, 153, 2, 1.14778
122, 2, wb, attraction, a-b-db, 14, 2, 8, 11, 90, 165, 165, 90, 83, 153, 1, 0.532717
122, 2, wb, attraction, a-b-db, 9, 2, 8, 12, 90, 165, 165, 90, 86, 157, 2, 1.10122
122, 2, wb, attraction, a-b-db, 9, 2, 8, 12, 90, 165, 165, 90, 86, 157, 3, 0.488123
122, 2, wb, filler, NA, 999, 999, 8, 13, 145, 113, 109, 165, 123, 127, 1, 0.938585
122, 2, wb, filler, NA, 999, 999, 8, 13, 145, 113, 109, 165, 123, 127, 2, 0.723674
122, 2, wb, attraction, a-b-da, 5, 3, 8, 14, 120, 195, 195, 120, 190, 117, 2, 1.19612
122, 2, wb, attraction, a-b-da, 5, 3, 8, 14, 120, 195, 195, 120, 190, 117, 3, 0.667055
122, 2, wb, filler, NA, 999, 999, 8, 15, 173, 121, 182, 144, 181, 114, 3, 0.685975
122, 2, wb, filler, NA, 999, 999, 8, 15, 173, 121, 182, 144, 181, 114, 2, 0.441757
122, 2, wb, attraction, a-b-da, 5, 1, 8, 16, 132, 58, 60, 135, 135, 60, 1, 0.765551
122, 2, wb, attraction, a-b-da, 5, 1, 8, 16, 132, 58, 60, 135, 135, 60, 2, 0.446094
122, 2, wb, attraction, a-b-da, 14, 2, 8, 17, 90, 165, 165, 90, 153, 83, 1, 0.633843
122, 2, wb, attraction, a-b-da, 14, 2, 8, 17, 90, 165, 165, 90, 153, 83, 2, 0.751527
122, 2, wb, attraction, a-b-da, 2, 1, 8, 18, 134, 59, 60, 135, 135, 60, 2, 0.591281
122, 2, wb, attraction, a-b-da, 2, 1, 8, 18, 134, 59, 60, 135, 135, 60, 3, 0.382489
122, 2, wb, filler, NA, 999, 999, 8, 19, 191, 191, 89, 195, 156, 80, 3, 1.51689
122, 2, wb, filler, NA, 999, 999, 8, 19, 191, 191, 89, 195, 156, 80, 1, 0.31898
122, 2, wb, attraction, a-b-db, 9, 1, 8, 20, 60, 135, 135, 60, 57, 129, 2, 1.28012
122, 2, wb, attraction, a-b-db, 9, 1, 8, 20, 60, 135, 135, 60, 57, 129, 3, 0.355854
122, 2, wb, filler, NA, 999, 999, 8, 21, 195, 120, 109, 191, 117, 95, 3, 0.835589
122, 2, wb, filler, NA, 999, 999, 8, 21, 195, 120, 109, 191, 117, 95, 2, 0.353267
122, 2, wb, attraction, a-b-da, 9, 3, 8, 22, 120, 195, 195, 120, 186, 114, 1, 1.07313
122, 2, wb, attraction, a-b-da, 9, 3, 8, 22, 120, 195, 195, 120, 186, 114, 2, 0.468828
122, 2, wb, filler, NA, 999, 999, 8, 23, 126, 123, 142, 134, 179, 176, 1, 0.696053
122, 2, wb, filler, NA, 999, 999, 8, 23, 126, 123, 142, 134, 179, 176, 3, 0.315172
122, 2, wb, catch, NA, 999, 999, 8, 24, 156, 99, 186, 129, 130, 65, 3, 0.532305
122, 2, wb, catch, NA, 999, 999, 8, 24, 156, 99, 186, 129, 130, 65, 2, 0.366035
122, 2, wb, attraction, a-b-da, 2, 2, 8, 25, 165, 90, 163, 89, 90, 165, 1, 0.853172
122, 2, wb, attraction, a-b-da, 2, 2, 8, 25, 165, 90, 163, 89, 90, 165, 2, 0.314229
122, 2, wb, attraction, a-b-db, 5, 2, 8, 26, 165, 90, 88, 161, 90, 165, 1, 0.723331
122, 2, wb, attraction, a-b-db, 5, 2, 8, 26, 165, 90, 88, 161, 90, 165, 2, 0.317131
122, 2, wb, attraction, a-b-da, 14, 3, 8, 27, 195, 120, 181, 111, 120, 195, 2, 1.27045
122, 2, wb, attraction, a-b-da, 14, 3, 8, 27, 195, 120, 181, 111, 120, 195, 1, 0.258629
122, 2, wb, attraction, a-b-db, 14, 3, 8, 28, 120, 195, 111, 181, 195, 120, 3, 0.485709
122, 2, wb, attraction, a-b-db, 14, 3, 8, 28, 120, 195, 111, 181, 195, 120, 2, 0.297474
122, 2, wb, attraction, a-b-da, 9, 2, 8, 29, 90, 165, 165, 90, 157, 86, 3, 0.531407
122, 2, wb, attraction, a-b-da, 9, 2, 8, 29, 90, 165, 165, 90, 157, 86, 2, 0.261354
122, 2, wb, catch, NA, 999, 999, 8, 30, 166, 149, 66, 129, 127, 128, 2, 0.616443
122, 2, wb, catch, NA, 999, 999, 8, 30, 166, 149, 66, 129, 127, 128, 1, 0.294894
122, 2, wb, attraction, a-b-da, 5, 2, 8, 31, 90, 165, 161, 88, 165, 90, 3, 0.872689
122, 2, wb, attraction, a-b-da, 5, 2, 8, 31, 90, 165, 161, 88, 165, 90, 2, 0.26033
122, 2, wb, filler, NA, 999, 999, 8, 32, 146, 189, 136, 127, 182, 64, 3, 0.543522
122, 2, wb, filler, NA, 999, 999, 8, 32, 146, 189, 136, 127, 182, 64, 2, 0.784658
122, 2, wb, catch, NA, 999, 999, 8, 33, 163, 92, 92, 103, 194, 121, 2, 0.695104
122, 2, wb, catch, NA, 999, 999, 8, 33, 163, 92, 92, 103, 194, 121, 3, 0.410205
122, 2, wb, attraction, a-b-db, 2, 1, 8, 34, 135, 60, 59, 134, 60, 135, 2, 0.647332
122, 2, wb, attraction, a-b-db, 2, 1, 8, 34, 135, 60, 59, 134, 60, 135, 1, 0.324394
122, 2, wb, attraction, a-b-db, 5, 1, 8, 35, 135, 60, 60, 135, 58, 132, 1, 0.908925
122, 2, wb, attraction, a-b-db, 5, 1, 8, 35, 135, 60, 60, 135, 58, 132, 2, 0.327266
122, 2, wb, attraction, a-b-db, 9, 3, 8, 36, 195, 120, 114, 186, 120, 195, 2, 0.959888
122, 2, wb, attraction, a-b-db, 9, 3, 8, 36, 195, 120, 114, 186, 120, 195, 1, 0.296143
122, 2, wb, filler, NA, 999, 999, 8, 37, 133, 169, 159, 99, 107, 66, 3, 0.490109
122, 2, wb, filler, NA, 999, 999, 8, 37, 133, 169, 159, 99, 107, 66, 2, 0.333143
