sub_n, computer_n, bw_cond, effect, set, distance, diag, block_n, trial_n, h1, w1, h2, w2, h3, w3, choice, rt 
130, 2, wb, practice, NA, 999, 999, 0, 1, 104, 79, 86, 100, 107, 133, 1, 5.64981
130, 2, wb, practice, NA, 999, 999, 0, 1, 104, 79, 86, 100, 107, 133, 3, 1.86966
130, 2, wb, practice, NA, 999, 999, 0, 2, 107, 102, 163, 134, 191, 156, 1, 1.89927
130, 2, wb, practice, NA, 999, 999, 0, 2, 107, 102, 163, 134, 191, 156, 3, 1.52015
130, 2, wb, practice, NA, 999, 999, 0, 3, 122, 156, 95, 81, 75, 188, 2, 2.53244
130, 2, wb, practice, NA, 999, 999, 0, 3, 122, 156, 95, 81, 75, 188, 1, 0.894104
130, 2, wb, filler, NA, 999, 999, 1, 1, 154, 97, 185, 75, 139, 187, 1, 6.3501
130, 2, wb, filler, NA, 999, 999, 1, 1, 154, 97, 185, 75, 139, 187, 3, 2.19741
130, 2, wb, attraction, a-b-da, 14, 1, 1, 2, 60, 135, 135, 60, 125, 56, 3, 3.1066
130, 2, wb, attraction, a-b-da, 14, 1, 1, 2, 60, 135, 135, 60, 125, 56, 1, 0.612246
130, 2, wb, attraction, a-b-db, 2, 2, 1, 3, 90, 165, 165, 90, 89, 163, 3, 9.00941
130, 2, wb, attraction, a-b-db, 2, 2, 1, 3, 90, 165, 165, 90, 89, 163, 2, 6.78924
130, 2, wb, attraction, a-b-db, 14, 1, 1, 4, 135, 60, 56, 125, 60, 135, 2, 3.53778
130, 2, wb, attraction, a-b-db, 14, 1, 1, 4, 135, 60, 56, 125, 60, 135, 3, 2.86601
130, 2, wb, attraction, a-b-da, 2, 2, 1, 5, 163, 89, 165, 90, 90, 165, 1, 5.22826
130, 2, wb, attraction, a-b-da, 2, 2, 1, 5, 163, 89, 165, 90, 90, 165, 2, 1.85666
130, 2, wb, filler, NA, 999, 999, 1, 6, 91, 154, 159, 185, 160, 103, 1, 2.03531
130, 2, wb, filler, NA, 999, 999, 1, 6, 91, 154, 159, 185, 160, 103, 2, 0.552665
130, 2, wb, attraction, a-b-db, 2, 3, 1, 7, 119, 193, 120, 195, 195, 120, 3, 6.09644
130, 2, wb, attraction, a-b-db, 2, 3, 1, 7, 119, 193, 120, 195, 195, 120, 1, 5.28183
130, 2, wb, attraction, a-b-da, 14, 3, 1, 8, 181, 111, 195, 120, 120, 195, 1, 4.05077
130, 2, wb, attraction, a-b-da, 14, 3, 1, 8, 181, 111, 195, 120, 120, 195, 2, 1.52697
130, 2, wb, filler, NA, 999, 999, 1, 9, 115, 60, 79, 168, 157, 173, 1, 0.830899
130, 2, wb, filler, NA, 999, 999, 1, 9, 115, 60, 79, 168, 157, 173, 3, 0.540603
130, 2, wb, attraction, a-b-db, 5, 2, 1, 10, 165, 90, 90, 165, 88, 161, 3, 6.81245
130, 2, wb, attraction, a-b-db, 5, 2, 1, 10, 165, 90, 90, 165, 88, 161, 1, 0.632915
130, 2, wb, attraction, a-b-db, 5, 1, 1, 11, 58, 132, 135, 60, 60, 135, 1, 7.5173
130, 2, wb, attraction, a-b-db, 5, 1, 1, 11, 58, 132, 135, 60, 60, 135, 2, 1.56564
130, 2, wb, attraction, a-b-db, 9, 1, 1, 12, 57, 129, 60, 135, 135, 60, 2, 5.23643
130, 2, wb, attraction, a-b-db, 9, 1, 1, 12, 57, 129, 60, 135, 135, 60, 3, 1.73678
130, 2, wb, filler, NA, 999, 999, 1, 13, 65, 141, 134, 80, 183, 146, 1, 1.74488
130, 2, wb, filler, NA, 999, 999, 1, 13, 65, 141, 134, 80, 183, 146, 3, 0.505553
130, 2, wb, filler, NA, 999, 999, 1, 14, 64, 192, 143, 174, 139, 127, 1, 10.1153
130, 2, wb, filler, NA, 999, 999, 1, 14, 64, 192, 143, 174, 139, 127, 2, 0.528137
130, 2, wb, attraction, a-b-db, 14, 3, 1, 15, 111, 181, 120, 195, 195, 120, 1, 5.0993
130, 2, wb, attraction, a-b-db, 14, 3, 1, 15, 111, 181, 120, 195, 195, 120, 3, 0.989107
130, 2, wb, attraction, a-b-db, 14, 2, 1, 16, 165, 90, 83, 153, 90, 165, 2, 11.1153
130, 2, wb, attraction, a-b-db, 14, 2, 1, 16, 165, 90, 83, 153, 90, 165, 1, 2.87444
130, 2, wb, attraction, a-b-da, 5, 1, 1, 17, 135, 60, 132, 58, 60, 135, 1, 2.8202
130, 2, wb, attraction, a-b-da, 5, 1, 1, 17, 135, 60, 132, 58, 60, 135, 3, 1.36997
130, 2, wb, filler, NA, 999, 999, 1, 18, 94, 184, 72, 129, 151, 124, 2, 2.10482
130, 2, wb, filler, NA, 999, 999, 1, 18, 94, 184, 72, 129, 151, 124, 3, 0.972468
130, 2, wb, attraction, a-b-da, 9, 1, 1, 19, 129, 57, 135, 60, 60, 135, 1, 3.82583
130, 2, wb, attraction, a-b-da, 9, 1, 1, 19, 129, 57, 135, 60, 60, 135, 3, 3.70262
130, 2, wb, catch, NA, 999, 999, 1, 20, 134, 121, 177, 138, 66, 129, 3, 1.35929
130, 2, wb, catch, NA, 999, 999, 1, 20, 134, 121, 177, 138, 66, 129, 2, 0.743492
130, 2, wb, attraction, a-b-da, 14, 2, 1, 21, 153, 83, 90, 165, 165, 90, 1, 2.15121
130, 2, wb, attraction, a-b-da, 14, 2, 1, 21, 153, 83, 90, 165, 165, 90, 2, 0.583878
130, 2, wb, filler, NA, 999, 999, 1, 22, 68, 90, 130, 80, 140, 85, 1, 1.13431
130, 2, wb, filler, NA, 999, 999, 1, 22, 68, 90, 130, 80, 140, 85, 3, 1.13598
130, 2, wb, attraction, a-b-da, 9, 3, 1, 23, 120, 195, 195, 120, 186, 114, 3, 2.42426
130, 2, wb, attraction, a-b-da, 9, 3, 1, 23, 120, 195, 195, 120, 186, 114, 2, 1.52542
130, 2, wb, attraction, a-b-db, 9, 2, 1, 24, 90, 165, 165, 90, 86, 157, 3, 1.9015
130, 2, wb, attraction, a-b-db, 9, 2, 1, 24, 90, 165, 165, 90, 86, 157, 2, 2.42428
130, 2, wb, attraction, a-b-da, 5, 3, 1, 25, 120, 195, 190, 117, 195, 120, 3, 2.1481
130, 2, wb, attraction, a-b-da, 5, 3, 1, 25, 120, 195, 190, 117, 195, 120, 1, 2.92473
130, 2, wb, attraction, a-b-db, 9, 3, 1, 26, 114, 186, 195, 120, 120, 195, 1, 1.7164
130, 2, wb, attraction, a-b-db, 9, 3, 1, 26, 114, 186, 195, 120, 120, 195, 2, 2.38248
130, 2, wb, attraction, a-b-da, 5, 2, 1, 27, 165, 90, 161, 88, 90, 165, 3, 10.5724
130, 2, wb, attraction, a-b-da, 5, 2, 1, 27, 165, 90, 161, 88, 90, 165, 1, 0.721764
130, 2, wb, catch, NA, 999, 999, 1, 28, 81, 114, 146, 109, 120, 195, 1, 2.40274
130, 2, wb, catch, NA, 999, 999, 1, 28, 81, 114, 146, 109, 120, 195, 3, 0.473279
130, 2, wb, filler, NA, 999, 999, 1, 29, 80, 86, 108, 99, 80, 102, 1, 0.923786
130, 2, wb, filler, NA, 999, 999, 1, 29, 80, 86, 108, 99, 80, 102, 2, 1.17349
130, 2, wb, filler, NA, 999, 999, 1, 30, 144, 77, 120, 99, 94, 100, 3, 3.61972
130, 2, wb, filler, NA, 999, 999, 1, 30, 144, 77, 120, 99, 94, 100, 2, 1.57726
130, 2, wb, catch, NA, 999, 999, 1, 31, 175, 140, 109, 86, 132, 123, 2, 1.15132
130, 2, wb, catch, NA, 999, 999, 1, 31, 175, 140, 109, 86, 132, 123, 1, 0.856252
130, 2, wb, attraction, a-b-da, 2, 3, 1, 32, 195, 120, 193, 119, 120, 195, 1, 2.66731
130, 2, wb, attraction, a-b-da, 2, 3, 1, 32, 195, 120, 193, 119, 120, 195, 3, 0.991134
130, 2, wb, attraction, a-b-db, 2, 1, 1, 33, 135, 60, 59, 134, 60, 135, 3, 1.78069
130, 2, wb, attraction, a-b-db, 2, 1, 1, 33, 135, 60, 59, 134, 60, 135, 1, 2.58015
130, 2, wb, attraction, a-b-da, 9, 2, 1, 34, 165, 90, 90, 165, 157, 86, 3, 1.82592
130, 2, wb, attraction, a-b-da, 9, 2, 1, 34, 165, 90, 90, 165, 157, 86, 2, 0.52732
130, 2, wb, filler, NA, 999, 999, 1, 35, 171, 181, 136, 63, 71, 148, 2, 1.99181
130, 2, wb, filler, NA, 999, 999, 1, 35, 171, 181, 136, 63, 71, 148, 1, 0.414463
130, 2, wb, attraction, a-b-da, 2, 1, 1, 36, 60, 135, 134, 59, 135, 60, 3, 14.6996
130, 2, wb, attraction, a-b-da, 2, 1, 1, 36, 60, 135, 134, 59, 135, 60, 1, 0.962464
130, 2, wb, attraction, a-b-db, 5, 3, 1, 37, 117, 190, 120, 195, 195, 120, 1, 7.27332
130, 2, wb, attraction, a-b-db, 5, 3, 1, 37, 117, 190, 120, 195, 195, 120, 2, 0.499008
130, 2, wb, filler, NA, 999, 999, 2, 1, 175, 130, 88, 192, 193, 157, 2, 3.36475
130, 2, wb, filler, NA, 999, 999, 2, 1, 175, 130, 88, 192, 193, 157, 3, 0.5724
130, 2, wb, filler, NA, 999, 999, 2, 2, 89, 152, 91, 139, 116, 92, 3, 3.53152
130, 2, wb, filler, NA, 999, 999, 2, 2, 89, 152, 91, 139, 116, 92, 1, 2.21246
130, 2, wb, attraction, a-b-db, 5, 2, 2, 3, 88, 161, 90, 165, 165, 90, 1, 2.3849
130, 2, wb, attraction, a-b-db, 5, 2, 2, 3, 88, 161, 90, 165, 165, 90, 3, 0.904287
130, 2, wb, catch, NA, 999, 999, 2, 4, 91, 164, 142, 173, 112, 83, 3, 1.71381
130, 2, wb, catch, NA, 999, 999, 2, 4, 91, 164, 142, 173, 112, 83, 2, 0.571882
130, 2, wb, catch, NA, 999, 999, 2, 5, 140, 175, 151, 104, 108, 87, 3, 1.13899
130, 2, wb, catch, NA, 999, 999, 2, 5, 140, 175, 151, 104, 108, 87, 1, 0.491904
130, 2, wb, attraction, a-b-db, 2, 3, 2, 6, 195, 120, 120, 195, 119, 193, 1, 8.39788
130, 2, wb, attraction, a-b-db, 2, 3, 2, 6, 195, 120, 120, 195, 119, 193, 2, 0.778387
130, 2, wb, attraction, a-b-db, 14, 1, 2, 7, 60, 135, 135, 60, 56, 125, 3, 2.00878
130, 2, wb, attraction, a-b-db, 14, 1, 2, 7, 60, 135, 135, 60, 56, 125, 1, 0.758817
130, 2, wb, attraction, a-b-da, 14, 2, 2, 8, 153, 83, 90, 165, 165, 90, 1, 1.59803
130, 2, wb, attraction, a-b-da, 14, 2, 2, 8, 153, 83, 90, 165, 165, 90, 2, 0.844638
130, 2, wb, filler, NA, 999, 999, 2, 9, 113, 73, 126, 174, 127, 93, 1, 1.07231
130, 2, wb, filler, NA, 999, 999, 2, 9, 113, 73, 126, 174, 127, 93, 2, 0.595911
130, 2, wb, filler, NA, 999, 999, 2, 10, 121, 131, 120, 172, 155, 86, 3, 7.00173
130, 2, wb, filler, NA, 999, 999, 2, 10, 121, 131, 120, 172, 155, 86, 2, 2.18286
130, 2, wb, attraction, a-b-da, 5, 2, 2, 11, 161, 88, 90, 165, 165, 90, 1, 1.61294
130, 2, wb, attraction, a-b-da, 5, 2, 2, 11, 161, 88, 90, 165, 165, 90, 2, 2.48309
130, 2, wb, attraction, a-b-da, 5, 1, 2, 12, 60, 135, 135, 60, 132, 58, 1, 17.4847
130, 2, wb, attraction, a-b-da, 5, 1, 2, 12, 60, 135, 135, 60, 132, 58, 2, 2.05127
130, 2, wb, attraction, a-b-db, 14, 2, 2, 13, 83, 153, 90, 165, 165, 90, 1, 2.75859
130, 2, wb, attraction, a-b-db, 14, 2, 2, 13, 83, 153, 90, 165, 165, 90, 2, 0.438251
130, 2, wb, attraction, a-b-da, 5, 3, 2, 14, 120, 195, 190, 117, 195, 120, 2, 2.02677
130, 2, wb, attraction, a-b-da, 5, 3, 2, 14, 120, 195, 190, 117, 195, 120, 1, 1.22422
130, 2, wb, attraction, a-b-da, 2, 1, 2, 15, 60, 135, 134, 59, 135, 60, 3, 1.42834
130, 2, wb, attraction, a-b-da, 2, 1, 2, 15, 60, 135, 134, 59, 135, 60, 1, 0.8899
130, 2, wb, filler, NA, 999, 999, 2, 16, 107, 78, 63, 120, 60, 167, 2, 1.54753
130, 2, wb, filler, NA, 999, 999, 2, 16, 107, 78, 63, 120, 60, 167, 1, 1.02035
130, 2, wb, catch, NA, 999, 999, 2, 17, 154, 101, 123, 72, 129, 186, 2, 1.28148
130, 2, wb, catch, NA, 999, 999, 2, 17, 154, 101, 123, 72, 129, 186, 3, 0.421028
130, 2, wb, attraction, a-b-da, 14, 1, 2, 18, 60, 135, 135, 60, 125, 56, 3, 4.72204
130, 2, wb, attraction, a-b-da, 14, 1, 2, 18, 60, 135, 135, 60, 125, 56, 2, 0.746557
130, 2, wb, attraction, a-b-db, 9, 2, 2, 19, 86, 157, 90, 165, 165, 90, 1, 7.25025
130, 2, wb, attraction, a-b-db, 9, 2, 2, 19, 86, 157, 90, 165, 165, 90, 2, 0.52542
130, 2, wb, filler, NA, 999, 999, 2, 20, 171, 131, 153, 117, 115, 130, 3, 1.06973
130, 2, wb, filler, NA, 999, 999, 2, 20, 171, 131, 153, 117, 115, 130, 1, 1.03405
130, 2, wb, attraction, a-b-db, 9, 1, 2, 21, 57, 129, 60, 135, 135, 60, 1, 1.60641
130, 2, wb, attraction, a-b-db, 9, 1, 2, 21, 57, 129, 60, 135, 135, 60, 3, 1.62063
130, 2, wb, attraction, a-b-da, 9, 3, 2, 22, 186, 114, 195, 120, 120, 195, 1, 0.961155
130, 2, wb, attraction, a-b-da, 9, 3, 2, 22, 186, 114, 195, 120, 120, 195, 2, 2.51358
130, 2, wb, filler, NA, 999, 999, 2, 23, 94, 148, 79, 161, 188, 139, 2, 1.60206
130, 2, wb, filler, NA, 999, 999, 2, 23, 94, 148, 79, 161, 188, 139, 3, 0.472958
130, 2, wb, attraction, a-b-da, 2, 3, 2, 24, 120, 195, 193, 119, 195, 120, 2, 3.10732
130, 2, wb, attraction, a-b-da, 2, 3, 2, 24, 120, 195, 193, 119, 195, 120, 1, 3.51704
130, 2, wb, attraction, a-b-db, 14, 3, 2, 25, 111, 181, 120, 195, 195, 120, 1, 4.11719
130, 2, wb, attraction, a-b-db, 14, 3, 2, 25, 111, 181, 120, 195, 195, 120, 2, 2.16652
130, 2, wb, attraction, a-b-da, 9, 2, 2, 26, 157, 86, 165, 90, 90, 165, 1, 2.01315
130, 2, wb, attraction, a-b-da, 9, 2, 2, 26, 157, 86, 165, 90, 90, 165, 2, 0.635109
130, 2, wb, attraction, a-b-db, 2, 1, 2, 27, 135, 60, 60, 135, 59, 134, 3, 3.71163
130, 2, wb, attraction, a-b-db, 2, 1, 2, 27, 135, 60, 60, 135, 59, 134, 1, 1.84107
130, 2, wb, attraction, a-b-da, 9, 1, 2, 28, 135, 60, 129, 57, 60, 135, 2, 2.83631
130, 2, wb, attraction, a-b-da, 9, 1, 2, 28, 135, 60, 129, 57, 60, 135, 1, 0.817455
130, 2, wb, attraction, a-b-db, 5, 3, 2, 29, 117, 190, 120, 195, 195, 120, 1, 3.05447
130, 2, wb, attraction, a-b-db, 5, 3, 2, 29, 117, 190, 120, 195, 195, 120, 3, 1.7549
130, 2, wb, filler, NA, 999, 999, 2, 30, 65, 111, 139, 169, 130, 81, 1, 1.93829
130, 2, wb, filler, NA, 999, 999, 2, 30, 65, 111, 139, 169, 130, 81, 2, 0.370965
130, 2, wb, filler, NA, 999, 999, 2, 31, 175, 183, 70, 152, 91, 163, 2, 1.37025
130, 2, wb, filler, NA, 999, 999, 2, 31, 175, 183, 70, 152, 91, 163, 1, 0.618445
130, 2, wb, attraction, a-b-da, 14, 3, 2, 32, 195, 120, 120, 195, 181, 111, 3, 1.20736
130, 2, wb, attraction, a-b-da, 14, 3, 2, 32, 195, 120, 120, 195, 181, 111, 2, 3.22178
130, 2, wb, attraction, a-b-da, 2, 2, 2, 33, 90, 165, 165, 90, 163, 89, 3, 2.00198
130, 2, wb, attraction, a-b-da, 2, 2, 2, 33, 90, 165, 165, 90, 163, 89, 1, 1.07264
130, 2, wb, attraction, a-b-db, 5, 1, 2, 34, 58, 132, 60, 135, 135, 60, 1, 1.77157
130, 2, wb, attraction, a-b-db, 5, 1, 2, 34, 58, 132, 60, 135, 135, 60, 3, 1.12309
130, 2, wb, filler, NA, 999, 999, 2, 35, 120, 179, 72, 64, 187, 149, 2, 1.48314
130, 2, wb, filler, NA, 999, 999, 2, 35, 120, 179, 72, 64, 187, 149, 3, 0.590726
130, 2, wb, attraction, a-b-db, 9, 3, 2, 36, 195, 120, 120, 195, 114, 186, 3, 2.4286
130, 2, wb, attraction, a-b-db, 9, 3, 2, 36, 195, 120, 120, 195, 114, 186, 1, 2.62572
130, 2, wb, attraction, a-b-db, 2, 2, 2, 37, 90, 165, 89, 163, 165, 90, 3, 6.84558
130, 2, wb, attraction, a-b-db, 2, 2, 2, 37, 90, 165, 89, 163, 165, 90, 1, 0.808753
130, 2, wb, attraction, a-b-da, 2, 3, 3, 1, 195, 120, 120, 195, 193, 119, 3, 2.25371
130, 2, wb, attraction, a-b-da, 2, 3, 3, 1, 195, 120, 120, 195, 193, 119, 1, 0.986252
130, 2, wb, attraction, a-b-da, 2, 2, 3, 2, 165, 90, 90, 165, 163, 89, 2, 4.81661
130, 2, wb, attraction, a-b-da, 2, 2, 3, 2, 165, 90, 90, 165, 163, 89, 1, 0.645695
130, 2, wb, attraction, a-b-db, 2, 1, 3, 3, 60, 135, 59, 134, 135, 60, 2, 2.28943
130, 2, wb, attraction, a-b-db, 2, 1, 3, 3, 60, 135, 59, 134, 135, 60, 1, 1.30012
130, 2, wb, attraction, a-b-da, 14, 2, 3, 4, 153, 83, 165, 90, 90, 165, 3, 2.77364
130, 2, wb, attraction, a-b-da, 14, 2, 3, 4, 153, 83, 165, 90, 90, 165, 2, 0.476792
130, 2, wb, attraction, a-b-db, 5, 2, 3, 5, 88, 161, 165, 90, 90, 165, 3, 1.36729
130, 2, wb, attraction, a-b-db, 5, 2, 3, 5, 88, 161, 165, 90, 90, 165, 2, 0.615394
130, 2, wb, attraction, a-b-db, 2, 3, 3, 6, 120, 195, 195, 120, 119, 193, 3, 1.31648
130, 2, wb, attraction, a-b-db, 2, 3, 3, 6, 120, 195, 195, 120, 119, 193, 2, 0.454689
130, 2, wb, filler, NA, 999, 999, 3, 7, 66, 186, 191, 68, 96, 175, 1, 3.81051
130, 2, wb, filler, NA, 999, 999, 3, 7, 66, 186, 191, 68, 96, 175, 3, 0.528074
130, 2, wb, attraction, a-b-db, 9, 3, 3, 8, 120, 195, 114, 186, 195, 120, 3, 2.6004
130, 2, wb, attraction, a-b-db, 9, 3, 3, 8, 120, 195, 114, 186, 195, 120, 1, 0.854968
130, 2, wb, filler, NA, 999, 999, 3, 9, 111, 143, 191, 68, 140, 192, 1, 14.3306
130, 2, wb, filler, NA, 999, 999, 3, 9, 111, 143, 191, 68, 140, 192, 3, 0.359988
130, 2, wb, filler, NA, 999, 999, 3, 10, 191, 75, 83, 106, 58, 161, 2, 2.97524
130, 2, wb, filler, NA, 999, 999, 3, 10, 191, 75, 83, 106, 58, 161, 1, 0.534221
130, 2, wb, attraction, a-b-db, 9, 2, 3, 11, 165, 90, 86, 157, 90, 165, 3, 1.75077
130, 2, wb, attraction, a-b-db, 9, 2, 3, 11, 165, 90, 86, 157, 90, 165, 1, 0.967449
130, 2, wb, attraction, a-b-db, 14, 3, 3, 12, 111, 181, 120, 195, 195, 120, 1, 1.09441
130, 2, wb, attraction, a-b-db, 14, 3, 3, 12, 111, 181, 120, 195, 195, 120, 3, 0.905431
130, 2, wb, catch, NA, 999, 999, 3, 13, 184, 131, 97, 98, 125, 130, 2, 1.13897
130, 2, wb, catch, NA, 999, 999, 3, 13, 184, 131, 97, 98, 125, 130, 1, 0.484058
130, 2, wb, attraction, a-b-db, 5, 1, 3, 14, 60, 135, 135, 60, 58, 132, 1, 1.15044
130, 2, wb, attraction, a-b-db, 5, 1, 3, 14, 60, 135, 135, 60, 58, 132, 3, 0.607421
130, 2, wb, filler, NA, 999, 999, 3, 15, 124, 189, 79, 189, 174, 116, 2, 2.37255
130, 2, wb, filler, NA, 999, 999, 3, 15, 124, 189, 79, 189, 174, 116, 1, 1.20373
130, 2, wb, attraction, a-b-da, 9, 1, 3, 16, 60, 135, 135, 60, 129, 57, 3, 1.82529
130, 2, wb, attraction, a-b-da, 9, 1, 3, 16, 60, 135, 135, 60, 129, 57, 2, 0.534702
130, 2, wb, catch, NA, 999, 999, 3, 17, 187, 128, 92, 163, 107, 88, 3, 0.807144
130, 2, wb, catch, NA, 999, 999, 3, 17, 187, 128, 92, 163, 107, 88, 1, 0.445491
130, 2, wb, filler, NA, 999, 999, 3, 18, 99, 141, 180, 181, 182, 172, 1, 1.12928
130, 2, wb, filler, NA, 999, 999, 3, 18, 99, 141, 180, 181, 182, 172, 2, 0.331006
130, 2, wb, attraction, a-b-db, 2, 2, 3, 19, 89, 163, 90, 165, 165, 90, 1, 1.0755
130, 2, wb, attraction, a-b-db, 2, 2, 3, 19, 89, 163, 90, 165, 165, 90, 3, 0.967188
130, 2, wb, filler, NA, 999, 999, 3, 20, 150, 149, 60, 156, 103, 112, 3, 1.23012
130, 2, wb, filler, NA, 999, 999, 3, 20, 150, 149, 60, 156, 103, 112, 1, 0.435736
130, 2, wb, attraction, a-b-db, 9, 1, 3, 21, 60, 135, 57, 129, 135, 60, 2, 1.68812
130, 2, wb, attraction, a-b-db, 9, 1, 3, 21, 60, 135, 57, 129, 135, 60, 1, 0.490882
130, 2, wb, filler, NA, 999, 999, 3, 22, 156, 99, 95, 154, 118, 89, 3, 1.02065
130, 2, wb, filler, NA, 999, 999, 3, 22, 156, 99, 95, 154, 118, 89, 1, 0.63429
130, 2, wb, attraction, a-b-da, 9, 3, 3, 23, 120, 195, 195, 120, 186, 114, 1, 3.72672
130, 2, wb, attraction, a-b-da, 9, 3, 3, 23, 120, 195, 195, 120, 186, 114, 2, 0.903519
130, 2, wb, attraction, a-b-db, 5, 3, 3, 24, 120, 195, 195, 120, 117, 190, 3, 3.25732
130, 2, wb, attraction, a-b-db, 5, 3, 3, 24, 120, 195, 195, 120, 117, 190, 1, 0.980847
130, 2, wb, filler, NA, 999, 999, 3, 25, 177, 132, 142, 100, 166, 188, 2, 2.10712
130, 2, wb, filler, NA, 999, 999, 3, 25, 177, 132, 142, 100, 166, 188, 3, 0.525109
130, 2, wb, attraction, a-b-db, 14, 2, 3, 26, 165, 90, 83, 153, 90, 165, 2, 3.96548
130, 2, wb, attraction, a-b-db, 14, 2, 3, 26, 165, 90, 83, 153, 90, 165, 3, 0.396905
130, 2, wb, filler, NA, 999, 999, 3, 27, 119, 66, 117, 60, 97, 128, 2, 1.26679
130, 2, wb, filler, NA, 999, 999, 3, 27, 119, 66, 117, 60, 97, 128, 3, 0.59108
130, 2, wb, attraction, a-b-db, 14, 1, 3, 28, 135, 60, 56, 125, 60, 135, 2, 1.7328
130, 2, wb, attraction, a-b-db, 14, 1, 3, 28, 135, 60, 56, 125, 60, 135, 1, 0.438344
130, 2, wb, filler, NA, 999, 999, 3, 29, 79, 104, 60, 63, 137, 124, 2, 0.714663
130, 2, wb, filler, NA, 999, 999, 3, 29, 79, 104, 60, 63, 137, 124, 3, 0.365053
130, 2, wb, attraction, a-b-da, 2, 1, 3, 30, 135, 60, 60, 135, 134, 59, 1, 1.46831
130, 2, wb, attraction, a-b-da, 2, 1, 3, 30, 135, 60, 60, 135, 134, 59, 2, 2.45649
130, 2, wb, attraction, a-b-da, 9, 2, 3, 31, 157, 86, 165, 90, 90, 165, 1, 3.53162
130, 2, wb, attraction, a-b-da, 9, 2, 3, 31, 157, 86, 165, 90, 90, 165, 2, 0.996454
130, 2, wb, attraction, a-b-da, 14, 1, 3, 32, 125, 56, 135, 60, 60, 135, 1, 1.41806
130, 2, wb, attraction, a-b-da, 14, 1, 3, 32, 125, 56, 135, 60, 60, 135, 2, 0.92834
130, 2, wb, attraction, a-b-da, 5, 1, 3, 33, 60, 135, 135, 60, 132, 58, 3, 3.96064
130, 2, wb, attraction, a-b-da, 5, 1, 3, 33, 60, 135, 135, 60, 132, 58, 1, 0.440024
130, 2, wb, attraction, a-b-da, 14, 3, 3, 34, 181, 111, 195, 120, 120, 195, 1, 3.55575
130, 2, wb, attraction, a-b-da, 14, 3, 3, 34, 181, 111, 195, 120, 120, 195, 3, 0.90746
130, 2, wb, catch, NA, 999, 999, 3, 35, 101, 154, 188, 127, 128, 67, 3, 1.20445
130, 2, wb, catch, NA, 999, 999, 3, 35, 101, 154, 188, 127, 128, 67, 2, 0.36261
130, 2, wb, attraction, a-b-da, 5, 2, 3, 36, 165, 90, 90, 165, 161, 88, 3, 1.60978
130, 2, wb, attraction, a-b-da, 5, 2, 3, 36, 165, 90, 90, 165, 161, 88, 2, 0.455896
130, 2, wb, attraction, a-b-da, 5, 3, 3, 37, 195, 120, 120, 195, 190, 117, 3, 1.54777
130, 2, wb, attraction, a-b-da, 5, 3, 3, 37, 195, 120, 120, 195, 190, 117, 1, 0.916544
130, 2, wb, filler, NA, 999, 999, 4, 1, 65, 110, 176, 94, 156, 162, 1, 0.725506
130, 2, wb, filler, NA, 999, 999, 4, 1, 65, 110, 176, 94, 156, 162, 3, 0.351251
130, 2, wb, attraction, a-b-da, 14, 1, 4, 2, 60, 135, 125, 56, 135, 60, 2, 2.61528
130, 2, wb, attraction, a-b-da, 14, 1, 4, 2, 60, 135, 125, 56, 135, 60, 1, 0.404895
130, 2, wb, filler, NA, 999, 999, 4, 3, 79, 79, 123, 187, 80, 141, 1, 1.07469
130, 2, wb, filler, NA, 999, 999, 4, 3, 79, 79, 123, 187, 80, 141, 2, 0.302459
130, 2, wb, attraction, a-b-db, 14, 3, 4, 4, 195, 120, 120, 195, 111, 181, 3, 5.16023
130, 2, wb, attraction, a-b-db, 14, 3, 4, 4, 195, 120, 120, 195, 111, 181, 2, 1.37525
130, 2, wb, filler, NA, 999, 999, 4, 5, 112, 120, 135, 118, 98, 152, 1, 2.05341
130, 2, wb, filler, NA, 999, 999, 4, 5, 112, 120, 135, 118, 98, 152, 2, 0.84215
130, 2, wb, catch, NA, 999, 999, 4, 6, 149, 106, 131, 184, 135, 60, 3, 0.797836
130, 2, wb, catch, NA, 999, 999, 4, 6, 149, 106, 131, 184, 135, 60, 2, 0.58897
130, 2, wb, filler, NA, 999, 999, 4, 7, 128, 171, 179, 76, 61, 138, 3, 0.763233
130, 2, wb, filler, NA, 999, 999, 4, 7, 128, 171, 179, 76, 61, 138, 1, 0.643658
130, 2, wb, filler, NA, 999, 999, 4, 8, 184, 120, 121, 141, 91, 69, 3, 0.791461
130, 2, wb, filler, NA, 999, 999, 4, 8, 184, 120, 121, 141, 91, 69, 1, 0.990417
130, 2, wb, attraction, a-b-db, 9, 2, 4, 9, 165, 90, 86, 157, 90, 165, 2, 1.43608
130, 2, wb, attraction, a-b-db, 9, 2, 4, 9, 165, 90, 86, 157, 90, 165, 1, 2.51362
130, 2, wb, filler, NA, 999, 999, 4, 10, 123, 152, 185, 190, 188, 172, 1, 0.970237
130, 2, wb, filler, NA, 999, 999, 4, 10, 123, 152, 185, 190, 188, 172, 2, 1.64185
130, 2, wb, attraction, a-b-db, 2, 2, 4, 11, 89, 163, 165, 90, 90, 165, 1, 2.83715
130, 2, wb, attraction, a-b-db, 2, 2, 4, 11, 89, 163, 165, 90, 90, 165, 2, 0.938273
130, 2, wb, attraction, a-b-db, 14, 2, 4, 12, 165, 90, 83, 153, 90, 165, 2, 3.05058
130, 2, wb, attraction, a-b-db, 14, 2, 4, 12, 165, 90, 83, 153, 90, 165, 3, 1.21496
130, 2, wb, attraction, a-b-db, 5, 2, 4, 13, 88, 161, 90, 165, 165, 90, 1, 3.36384
130, 2, wb, attraction, a-b-db, 5, 2, 4, 13, 88, 161, 90, 165, 165, 90, 2, 0.435469
130, 2, wb, filler, NA, 999, 999, 4, 14, 194, 107, 179, 190, 89, 94, 3, 1.00798
130, 2, wb, filler, NA, 999, 999, 4, 14, 194, 107, 179, 190, 89, 94, 2, 0.334347
130, 2, wb, attraction, a-b-db, 14, 1, 4, 15, 135, 60, 56, 125, 60, 135, 2, 2.3347
130, 2, wb, attraction, a-b-db, 14, 1, 4, 15, 135, 60, 56, 125, 60, 135, 1, 0.847922
130, 2, wb, attraction, a-b-da, 2, 2, 4, 16, 90, 165, 163, 89, 165, 90, 3, 1.61967
130, 2, wb, attraction, a-b-da, 2, 2, 4, 16, 90, 165, 163, 89, 165, 90, 1, 0.425786
130, 2, wb, attraction, a-b-db, 2, 1, 4, 17, 60, 135, 59, 134, 135, 60, 1, 2.41418
130, 2, wb, attraction, a-b-db, 2, 1, 4, 17, 60, 135, 59, 134, 135, 60, 2, 1.70036
130, 2, wb, attraction, a-b-db, 9, 1, 4, 18, 57, 129, 60, 135, 135, 60, 2, 3.67751
130, 2, wb, attraction, a-b-db, 9, 1, 4, 18, 57, 129, 60, 135, 135, 60, 1, 1.20842
130, 2, wb, attraction, a-b-da, 2, 1, 4, 19, 60, 135, 134, 59, 135, 60, 3, 1.14926
130, 2, wb, attraction, a-b-da, 2, 1, 4, 19, 60, 135, 134, 59, 135, 60, 1, 0.422253
130, 2, wb, attraction, a-b-da, 9, 2, 4, 20, 165, 90, 157, 86, 90, 165, 2, 3.2433
130, 2, wb, attraction, a-b-da, 9, 2, 4, 20, 165, 90, 157, 86, 90, 165, 3, 0.759718
130, 2, wb, attraction, a-b-da, 14, 3, 4, 21, 120, 195, 195, 120, 181, 111, 3, 1.99073
130, 2, wb, attraction, a-b-da, 14, 3, 4, 21, 120, 195, 195, 120, 181, 111, 1, 0.741415
130, 2, wb, attraction, a-b-db, 5, 1, 4, 22, 60, 135, 135, 60, 58, 132, 3, 1.74104
130, 2, wb, attraction, a-b-db, 5, 1, 4, 22, 60, 135, 135, 60, 58, 132, 1, 1.62183
130, 2, wb, attraction, a-b-da, 2, 3, 4, 23, 193, 119, 120, 195, 195, 120, 3, 7.1146
130, 2, wb, attraction, a-b-da, 2, 3, 4, 23, 193, 119, 120, 195, 195, 120, 2, 0.522976
130, 2, wb, attraction, a-b-da, 9, 1, 4, 24, 129, 57, 60, 135, 135, 60, 1, 1.34746
130, 2, wb, attraction, a-b-da, 9, 1, 4, 24, 129, 57, 60, 135, 135, 60, 2, 0.444411
130, 2, wb, filler, NA, 999, 999, 4, 25, 117, 168, 77, 67, 95, 140, 2, 1.50421
130, 2, wb, filler, NA, 999, 999, 4, 25, 117, 168, 77, 67, 95, 140, 1, 0.426335
130, 2, wb, attraction, a-b-da, 5, 2, 4, 26, 161, 88, 165, 90, 90, 165, 3, 6.77486
130, 2, wb, attraction, a-b-da, 5, 2, 4, 26, 161, 88, 165, 90, 90, 165, 2, 0.372707
130, 2, wb, attraction, a-b-da, 5, 3, 4, 27, 190, 117, 120, 195, 195, 120, 1, 1.05112
130, 2, wb, attraction, a-b-da, 5, 3, 4, 27, 190, 117, 120, 195, 195, 120, 2, 0.552243
130, 2, wb, filler, NA, 999, 999, 4, 28, 165, 101, 56, 95, 56, 88, 3, 0.912032
130, 2, wb, filler, NA, 999, 999, 4, 28, 165, 101, 56, 95, 56, 88, 1, 0.482244
130, 2, wb, attraction, a-b-da, 5, 1, 4, 29, 135, 60, 60, 135, 132, 58, 3, 1.78871
130, 2, wb, attraction, a-b-da, 5, 1, 4, 29, 135, 60, 60, 135, 132, 58, 2, 0.379641
130, 2, wb, attraction, a-b-db, 2, 3, 4, 30, 195, 120, 120, 195, 119, 193, 3, 1.25803
130, 2, wb, attraction, a-b-db, 2, 3, 4, 30, 195, 120, 120, 195, 119, 193, 2, 0.798174
130, 2, wb, attraction, a-b-db, 5, 3, 4, 31, 117, 190, 195, 120, 120, 195, 3, 1.17988
130, 2, wb, attraction, a-b-db, 5, 3, 4, 31, 117, 190, 195, 120, 120, 195, 2, 0.339568
130, 2, wb, filler, NA, 999, 999, 4, 32, 80, 129, 94, 76, 186, 57, 2, 1.25934
130, 2, wb, filler, NA, 999, 999, 4, 32, 80, 129, 94, 76, 186, 57, 3, 3.56755
130, 2, wb, attraction, a-b-db, 9, 3, 4, 33, 120, 195, 195, 120, 114, 186, 3, 1.2857
130, 2, wb, attraction, a-b-db, 9, 3, 4, 33, 120, 195, 195, 120, 114, 186, 2, 1.89732
130, 2, wb, attraction, a-b-da, 9, 3, 4, 34, 195, 120, 120, 195, 186, 114, 3, 4.24277
130, 2, wb, attraction, a-b-da, 9, 3, 4, 34, 195, 120, 120, 195, 186, 114, 2, 1.10266
130, 2, wb, attraction, a-b-da, 14, 2, 4, 35, 153, 83, 90, 165, 165, 90, 3, 6.3843
130, 2, wb, attraction, a-b-da, 14, 2, 4, 35, 153, 83, 90, 165, 165, 90, 2, 0.950316
130, 2, wb, catch, NA, 999, 999, 4, 36, 96, 99, 134, 121, 158, 157, 1, 1.14198
130, 2, wb, catch, NA, 999, 999, 4, 36, 96, 99, 134, 121, 158, 157, 3, 0.550822
130, 2, wb, catch, NA, 999, 999, 4, 37, 138, 117, 80, 115, 144, 171, 2, 1.65455
130, 2, wb, catch, NA, 999, 999, 4, 37, 138, 117, 80, 115, 144, 171, 3, 0.37072
130, 2, wb, filler, NA, 999, 999, 5, 1, 57, 155, 165, 70, 180, 108, 1, 2.23981
130, 2, wb, filler, NA, 999, 999, 5, 1, 57, 155, 165, 70, 180, 108, 3, 0.620509
130, 2, wb, attraction, a-b-db, 2, 3, 5, 2, 195, 120, 119, 193, 120, 195, 3, 1.22552
130, 2, wb, attraction, a-b-db, 2, 3, 5, 2, 195, 120, 119, 193, 120, 195, 1, 0.895113
130, 2, wb, filler, NA, 999, 999, 5, 3, 185, 102, 59, 184, 158, 179, 2, 1.02477
130, 2, wb, filler, NA, 999, 999, 5, 3, 185, 102, 59, 184, 158, 179, 3, 0.41437
130, 2, wb, catch, NA, 999, 999, 5, 4, 68, 127, 110, 145, 183, 132, 1, 1.03555
130, 2, wb, catch, NA, 999, 999, 5, 4, 68, 127, 110, 145, 183, 132, 3, 0.505184
130, 2, wb, attraction, a-b-db, 14, 3, 5, 5, 195, 120, 120, 195, 111, 181, 3, 0.947012
130, 2, wb, attraction, a-b-db, 14, 3, 5, 5, 195, 120, 120, 195, 111, 181, 1, 0.524007
130, 2, wb, filler, NA, 999, 999, 5, 6, 167, 70, 115, 183, 179, 150, 1, 0.972496
130, 2, wb, filler, NA, 999, 999, 5, 6, 167, 70, 115, 183, 179, 150, 3, 0.604127
130, 2, wb, filler, NA, 999, 999, 5, 7, 59, 111, 147, 184, 86, 106, 1, 0.857864
130, 2, wb, filler, NA, 999, 999, 5, 7, 59, 111, 147, 184, 86, 106, 2, 0.358316
130, 2, wb, attraction, a-b-da, 9, 1, 5, 8, 129, 57, 60, 135, 135, 60, 1, 1.43736
130, 2, wb, attraction, a-b-da, 9, 1, 5, 8, 129, 57, 60, 135, 135, 60, 2, 0.370268
130, 2, wb, attraction, a-b-da, 14, 1, 5, 9, 60, 135, 125, 56, 135, 60, 1, 1.0494
130, 2, wb, attraction, a-b-da, 14, 1, 5, 9, 60, 135, 125, 56, 135, 60, 3, 0.686404
130, 2, wb, filler, NA, 999, 999, 5, 10, 61, 154, 70, 166, 118, 160, 1, 1.86496
130, 2, wb, filler, NA, 999, 999, 5, 10, 61, 154, 70, 166, 118, 160, 3, 0.420855
130, 2, wb, attraction, a-b-db, 5, 1, 5, 11, 58, 132, 135, 60, 60, 135, 2, 1.48194
130, 2, wb, attraction, a-b-db, 5, 1, 5, 11, 58, 132, 135, 60, 60, 135, 1, 1.10948
130, 2, wb, attraction, a-b-da, 5, 1, 5, 12, 132, 58, 60, 135, 135, 60, 2, 2.00643
130, 2, wb, attraction, a-b-da, 5, 1, 5, 12, 132, 58, 60, 135, 135, 60, 3, 0.420503
130, 2, wb, attraction, a-b-db, 9, 1, 5, 13, 57, 129, 60, 135, 135, 60, 3, 1.25756
130, 2, wb, attraction, a-b-db, 9, 1, 5, 13, 57, 129, 60, 135, 135, 60, 2, 0.661772
130, 2, wb, attraction, a-b-db, 2, 1, 5, 14, 135, 60, 59, 134, 60, 135, 1, 0.928905
130, 2, wb, attraction, a-b-db, 2, 1, 5, 14, 135, 60, 59, 134, 60, 135, 2, 0.546594
130, 2, wb, attraction, a-b-db, 9, 3, 5, 15, 195, 120, 114, 186, 120, 195, 2, 2.99435
130, 2, wb, attraction, a-b-db, 9, 3, 5, 15, 195, 120, 114, 186, 120, 195, 1, 0.624768
130, 2, wb, attraction, a-b-db, 9, 2, 5, 16, 86, 157, 90, 165, 165, 90, 3, 2.65311
130, 2, wb, attraction, a-b-db, 9, 2, 5, 16, 86, 157, 90, 165, 165, 90, 2, 0.393556
130, 2, wb, attraction, a-b-da, 5, 2, 5, 17, 90, 165, 165, 90, 161, 88, 3, 1.35147
130, 2, wb, attraction, a-b-da, 5, 2, 5, 17, 90, 165, 165, 90, 161, 88, 1, 0.616247
130, 2, wb, attraction, a-b-da, 2, 2, 5, 18, 165, 90, 163, 89, 90, 165, 3, 0.797455
130, 2, wb, attraction, a-b-da, 2, 2, 5, 18, 165, 90, 163, 89, 90, 165, 1, 0.5165
130, 2, wb, attraction, a-b-da, 2, 3, 5, 19, 120, 195, 193, 119, 195, 120, 3, 1.38956
130, 2, wb, attraction, a-b-da, 2, 3, 5, 19, 120, 195, 193, 119, 195, 120, 1, 0.556411
130, 2, wb, catch, NA, 999, 999, 5, 20, 190, 125, 112, 143, 121, 74, 3, 1.61158
130, 2, wb, catch, NA, 999, 999, 5, 20, 190, 125, 112, 143, 121, 74, 1, 0.529711
130, 2, wb, attraction, a-b-da, 14, 3, 5, 21, 120, 195, 181, 111, 195, 120, 3, 1.25012
130, 2, wb, attraction, a-b-da, 14, 3, 5, 21, 120, 195, 181, 111, 195, 120, 1, 0.551136
130, 2, wb, attraction, a-b-da, 9, 3, 5, 22, 186, 114, 120, 195, 195, 120, 3, 2.99893
130, 2, wb, attraction, a-b-da, 9, 3, 5, 22, 186, 114, 120, 195, 195, 120, 2, 0.413141
130, 2, wb, attraction, a-b-db, 14, 1, 5, 23, 60, 135, 135, 60, 56, 125, 3, 1.16234
130, 2, wb, attraction, a-b-db, 14, 1, 5, 23, 60, 135, 135, 60, 56, 125, 1, 1.00269
130, 2, wb, catch, NA, 999, 999, 5, 24, 177, 138, 126, 129, 114, 81, 3, 1.00821
130, 2, wb, catch, NA, 999, 999, 5, 24, 177, 138, 126, 129, 114, 81, 1, 0.526603
130, 2, wb, filler, NA, 999, 999, 5, 25, 176, 60, 132, 146, 148, 141, 1, 1.13501
130, 2, wb, filler, NA, 999, 999, 5, 25, 176, 60, 132, 146, 148, 141, 2, 0.768682
130, 2, wb, attraction, a-b-da, 5, 3, 5, 26, 120, 195, 190, 117, 195, 120, 2, 4.17569
130, 2, wb, attraction, a-b-da, 5, 3, 5, 26, 120, 195, 190, 117, 195, 120, 1, 0.734339
130, 2, wb, attraction, a-b-db, 14, 2, 5, 27, 83, 153, 90, 165, 165, 90, 1, 1.19064
130, 2, wb, attraction, a-b-db, 14, 2, 5, 27, 83, 153, 90, 165, 165, 90, 3, 0.653644
130, 2, wb, attraction, a-b-db, 5, 2, 5, 28, 90, 165, 165, 90, 88, 161, 3, 2.00934
130, 2, wb, attraction, a-b-db, 5, 2, 5, 28, 90, 165, 165, 90, 88, 161, 1, 0.975364
130, 2, wb, attraction, a-b-da, 9, 2, 5, 29, 165, 90, 157, 86, 90, 165, 3, 3.42172
130, 2, wb, attraction, a-b-da, 9, 2, 5, 29, 165, 90, 157, 86, 90, 165, 1, 1.55453
130, 2, wb, attraction, a-b-db, 2, 2, 5, 30, 89, 163, 165, 90, 90, 165, 1, 3.25002
130, 2, wb, attraction, a-b-db, 2, 2, 5, 30, 89, 163, 165, 90, 90, 165, 2, 0.398375
130, 2, wb, filler, NA, 999, 999, 5, 31, 111, 93, 129, 150, 167, 113, 1, 0.63611
130, 2, wb, filler, NA, 999, 999, 5, 31, 111, 93, 129, 150, 167, 113, 2, 1.80988
130, 2, wb, attraction, a-b-da, 2, 1, 5, 32, 60, 135, 135, 60, 134, 59, 3, 2.65459
130, 2, wb, attraction, a-b-da, 2, 1, 5, 32, 60, 135, 135, 60, 134, 59, 2, 0.490391
130, 2, wb, filler, NA, 999, 999, 5, 33, 122, 178, 135, 152, 125, 90, 3, 1.40436
130, 2, wb, filler, NA, 999, 999, 5, 33, 122, 178, 135, 152, 125, 90, 1, 0.450333
130, 2, wb, filler, NA, 999, 999, 5, 34, 112, 124, 78, 107, 121, 119, 2, 0.774314
130, 2, wb, filler, NA, 999, 999, 5, 34, 112, 124, 78, 107, 121, 119, 3, 0.709985
130, 2, wb, filler, NA, 999, 999, 5, 35, 109, 92, 121, 69, 161, 143, 2, 3.66301
130, 2, wb, filler, NA, 999, 999, 5, 35, 109, 92, 121, 69, 161, 143, 3, 0.322668
130, 2, wb, attraction, a-b-da, 14, 2, 5, 36, 153, 83, 165, 90, 90, 165, 1, 2.16305
130, 2, wb, attraction, a-b-da, 14, 2, 5, 36, 153, 83, 165, 90, 90, 165, 2, 0.458952
130, 2, wb, attraction, a-b-db, 5, 3, 5, 37, 195, 120, 117, 190, 120, 195, 3, 3.63011
130, 2, wb, attraction, a-b-db, 5, 3, 5, 37, 195, 120, 117, 190, 120, 195, 1, 2.73899
130, 2, wb, filler, NA, 999, 999, 6, 1, 56, 56, 58, 186, 180, 138, 1, 1.1547
130, 2, wb, filler, NA, 999, 999, 6, 1, 56, 56, 58, 186, 180, 138, 3, 0.442974
130, 2, wb, attraction, a-b-da, 5, 3, 6, 2, 120, 195, 190, 117, 195, 120, 3, 2.11879
130, 2, wb, attraction, a-b-da, 5, 3, 6, 2, 120, 195, 190, 117, 195, 120, 1, 0.480773
130, 2, wb, attraction, a-b-db, 5, 3, 6, 3, 195, 120, 120, 195, 117, 190, 3, 2.1232
130, 2, wb, attraction, a-b-db, 5, 3, 6, 3, 195, 120, 120, 195, 117, 190, 2, 0.444483
130, 2, wb, attraction, a-b-db, 9, 1, 6, 4, 135, 60, 57, 129, 60, 135, 2, 3.36032
130, 2, wb, attraction, a-b-db, 9, 1, 6, 4, 135, 60, 57, 129, 60, 135, 3, 0.599893
130, 2, wb, attraction, a-b-db, 5, 2, 6, 5, 88, 161, 165, 90, 90, 165, 1, 2.47777
130, 2, wb, attraction, a-b-db, 5, 2, 6, 5, 88, 161, 165, 90, 90, 165, 2, 0.576979
130, 2, wb, attraction, a-b-da, 14, 1, 6, 6, 135, 60, 125, 56, 60, 135, 2, 3.63131
130, 2, wb, attraction, a-b-da, 14, 1, 6, 6, 135, 60, 125, 56, 60, 135, 1, 0.572073
130, 2, wb, catch, NA, 999, 999, 6, 7, 195, 120, 80, 115, 98, 157, 2, 1.02721
130, 2, wb, catch, NA, 999, 999, 6, 7, 195, 120, 80, 115, 98, 157, 1, 0.496863
130, 2, wb, attraction, a-b-da, 9, 2, 6, 8, 165, 90, 90, 165, 157, 86, 3, 2.10673
130, 2, wb, attraction, a-b-da, 9, 2, 6, 8, 165, 90, 90, 165, 157, 86, 1, 0.940719
130, 2, wb, filler, NA, 999, 999, 6, 9, 106, 179, 101, 176, 108, 88, 3, 1.18031
130, 2, wb, filler, NA, 999, 999, 6, 9, 106, 179, 101, 176, 108, 88, 1, 0.683857
130, 2, wb, attraction, a-b-da, 5, 2, 6, 10, 161, 88, 90, 165, 165, 90, 1, 3.1342
130, 2, wb, attraction, a-b-da, 5, 2, 6, 10, 161, 88, 90, 165, 165, 90, 2, 0.383244
130, 2, wb, attraction, a-b-db, 14, 2, 6, 11, 90, 165, 165, 90, 83, 153, 3, 1.32584
130, 2, wb, attraction, a-b-db, 14, 2, 6, 11, 90, 165, 165, 90, 83, 153, 1, 0.64734
130, 2, wb, attraction, a-b-da, 14, 3, 6, 12, 181, 111, 195, 120, 120, 195, 3, 3.3632
130, 2, wb, attraction, a-b-da, 14, 3, 6, 12, 181, 111, 195, 120, 120, 195, 2, 1.68277
130, 2, wb, attraction, a-b-db, 2, 1, 6, 13, 135, 60, 60, 135, 59, 134, 1, 1.60468
130, 2, wb, attraction, a-b-db, 2, 1, 6, 13, 135, 60, 60, 135, 59, 134, 2, 0.506852
130, 2, wb, attraction, a-b-da, 5, 1, 6, 14, 60, 135, 135, 60, 132, 58, 3, 1.1
130, 2, wb, attraction, a-b-da, 5, 1, 6, 14, 60, 135, 135, 60, 132, 58, 1, 0.582976
130, 2, wb, catch, NA, 999, 999, 6, 15, 145, 110, 140, 175, 77, 118, 3, 1.31743
130, 2, wb, catch, NA, 999, 999, 6, 15, 145, 110, 140, 175, 77, 118, 2, 0.359732
130, 2, wb, attraction, a-b-da, 14, 2, 6, 16, 153, 83, 165, 90, 90, 165, 1, 3.08674
130, 2, wb, attraction, a-b-da, 14, 2, 6, 16, 153, 83, 165, 90, 90, 165, 2, 0.833836
130, 2, wb, filler, NA, 999, 999, 6, 17, 149, 145, 193, 175, 136, 99, 3, 0.870117
130, 2, wb, filler, NA, 999, 999, 6, 17, 149, 145, 193, 175, 136, 99, 2, 0.385952
130, 2, wb, attraction, a-b-db, 9, 2, 6, 18, 165, 90, 86, 157, 90, 165, 2, 3.72836
130, 2, wb, attraction, a-b-db, 9, 2, 6, 18, 165, 90, 86, 157, 90, 165, 1, 0.849153
130, 2, wb, filler, NA, 999, 999, 6, 19, 130, 58, 169, 83, 161, 158, 1, 0.77276
130, 2, wb, filler, NA, 999, 999, 6, 19, 130, 58, 169, 83, 161, 158, 3, 0.428469
130, 2, wb, attraction, a-b-db, 5, 1, 6, 20, 135, 60, 58, 132, 60, 135, 2, 1.19302
130, 2, wb, attraction, a-b-db, 5, 1, 6, 20, 135, 60, 58, 132, 60, 135, 3, 1.57594
130, 2, wb, attraction, a-b-db, 9, 3, 6, 21, 195, 120, 114, 186, 120, 195, 2, 1.67004
130, 2, wb, attraction, a-b-db, 9, 3, 6, 21, 195, 120, 114, 186, 120, 195, 1, 0.67417
130, 2, wb, filler, NA, 999, 999, 6, 22, 162, 177, 161, 188, 75, 94, 3, 0.756584
130, 2, wb, filler, NA, 999, 999, 6, 22, 162, 177, 161, 188, 75, 94, 1, 0.492938
130, 2, wb, filler, NA, 999, 999, 6, 23, 86, 186, 120, 180, 131, 148, 1, 5.68688
130, 2, wb, filler, NA, 999, 999, 6, 23, 86, 186, 120, 180, 131, 148, 2, 0.69693
130, 2, wb, attraction, a-b-da, 2, 3, 6, 24, 193, 119, 195, 120, 120, 195, 1, 4.9546
130, 2, wb, attraction, a-b-da, 2, 3, 6, 24, 193, 119, 195, 120, 120, 195, 2, 0.770511
130, 2, wb, attraction, a-b-db, 14, 1, 6, 25, 135, 60, 60, 135, 56, 125, 3, 2.52145
130, 2, wb, attraction, a-b-db, 14, 1, 6, 25, 135, 60, 60, 135, 56, 125, 2, 0.69867
130, 2, wb, filler, NA, 999, 999, 6, 26, 74, 155, 141, 142, 156, 140, 1, 2.92434
130, 2, wb, filler, NA, 999, 999, 6, 26, 74, 155, 141, 142, 156, 140, 2, 0.325407
130, 2, wb, catch, NA, 999, 999, 6, 27, 154, 101, 189, 126, 102, 93, 3, 0.941876
130, 2, wb, catch, NA, 999, 999, 6, 27, 154, 101, 189, 126, 102, 93, 2, 0.366878
130, 2, wb, filler, NA, 999, 999, 6, 28, 188, 149, 180, 140, 70, 134, 3, 0.590117
130, 2, wb, filler, NA, 999, 999, 6, 28, 188, 149, 180, 140, 70, 134, 1, 0.477301
130, 2, wb, attraction, a-b-da, 2, 1, 6, 29, 134, 59, 60, 135, 135, 60, 1, 1.34367
130, 2, wb, attraction, a-b-da, 2, 1, 6, 29, 134, 59, 60, 135, 135, 60, 2, 0.368521
130, 2, wb, attraction, a-b-da, 2, 2, 6, 30, 90, 165, 165, 90, 163, 89, 2, 2.21576
130, 2, wb, attraction, a-b-da, 2, 2, 6, 30, 90, 165, 165, 90, 163, 89, 1, 0.341631
130, 2, wb, filler, NA, 999, 999, 6, 31, 134, 121, 116, 113, 181, 151, 2, 0.957524
130, 2, wb, filler, NA, 999, 999, 6, 31, 134, 121, 116, 113, 181, 151, 3, 0.365876
130, 2, wb, attraction, a-b-da, 9, 1, 6, 32, 135, 60, 129, 57, 60, 135, 2, 1.7491
130, 2, wb, attraction, a-b-da, 9, 1, 6, 32, 135, 60, 129, 57, 60, 135, 1, 0.637773
130, 2, wb, filler, NA, 999, 999, 6, 33, 78, 116, 141, 98, 151, 87, 1, 0.737384
130, 2, wb, filler, NA, 999, 999, 6, 33, 78, 116, 141, 98, 151, 87, 2, 1.3873
130, 2, wb, attraction, a-b-db, 2, 2, 6, 34, 165, 90, 90, 165, 89, 163, 2, 2.76141
130, 2, wb, attraction, a-b-db, 2, 2, 6, 34, 165, 90, 90, 165, 89, 163, 1, 0.513211
130, 2, wb, attraction, a-b-db, 2, 3, 6, 35, 119, 193, 120, 195, 195, 120, 3, 1.29848
130, 2, wb, attraction, a-b-db, 2, 3, 6, 35, 119, 193, 120, 195, 195, 120, 1, 0.501226
130, 2, wb, attraction, a-b-da, 9, 3, 6, 36, 195, 120, 120, 195, 186, 114, 3, 1.15899
130, 2, wb, attraction, a-b-da, 9, 3, 6, 36, 195, 120, 120, 195, 186, 114, 2, 0.73542
130, 2, wb, attraction, a-b-db, 14, 3, 6, 37, 111, 181, 120, 195, 195, 120, 1, 1.38361
130, 2, wb, attraction, a-b-db, 14, 3, 6, 37, 111, 181, 120, 195, 195, 120, 2, 0.51925
130, 2, wb, attraction, a-b-db, 2, 3, 7, 1, 120, 195, 195, 120, 119, 193, 1, 3.76846
130, 2, wb, attraction, a-b-db, 2, 3, 7, 1, 120, 195, 195, 120, 119, 193, 2, 2.06376
130, 2, wb, attraction, a-b-da, 5, 3, 7, 2, 120, 195, 190, 117, 195, 120, 3, 2.09041
130, 2, wb, attraction, a-b-da, 5, 3, 7, 2, 120, 195, 190, 117, 195, 120, 1, 0.405076
130, 2, wb, attraction, a-b-da, 2, 3, 7, 3, 193, 119, 120, 195, 195, 120, 3, 2.27487
130, 2, wb, attraction, a-b-da, 2, 3, 7, 3, 193, 119, 120, 195, 195, 120, 2, 0.558156
130, 2, wb, attraction, a-b-db, 5, 2, 7, 4, 88, 161, 165, 90, 90, 165, 1, 1.40526
130, 2, wb, attraction, a-b-db, 5, 2, 7, 4, 88, 161, 165, 90, 90, 165, 2, 1.81939
130, 2, wb, attraction, a-b-db, 9, 3, 7, 5, 120, 195, 195, 120, 114, 186, 3, 4.97617
130, 2, wb, attraction, a-b-db, 9, 3, 7, 5, 120, 195, 195, 120, 114, 186, 1, 0.414558
130, 2, wb, attraction, a-b-db, 14, 2, 7, 6, 165, 90, 83, 153, 90, 165, 2, 2.84374
130, 2, wb, attraction, a-b-db, 14, 2, 7, 6, 165, 90, 83, 153, 90, 165, 3, 0.552191
130, 2, wb, filler, NA, 999, 999, 7, 7, 150, 101, 187, 94, 134, 103, 3, 0.839939
130, 2, wb, filler, NA, 999, 999, 7, 7, 150, 101, 187, 94, 134, 103, 2, 0.732986
130, 2, wb, attraction, a-b-db, 9, 2, 7, 8, 86, 157, 90, 165, 165, 90, 1, 2.83725
130, 2, wb, attraction, a-b-db, 9, 2, 7, 8, 86, 157, 90, 165, 165, 90, 2, 0.961762
130, 2, wb, filler, NA, 999, 999, 7, 9, 169, 96, 143, 114, 69, 82, 3, 0.648716
130, 2, wb, filler, NA, 999, 999, 7, 9, 169, 96, 143, 114, 69, 82, 2, 3.81397
130, 2, wb, attraction, a-b-da, 5, 1, 7, 10, 60, 135, 132, 58, 135, 60, 3, 2.60205
130, 2, wb, attraction, a-b-da, 5, 1, 7, 10, 60, 135, 132, 58, 135, 60, 1, 1.3124
130, 2, wb, attraction, a-b-da, 14, 3, 7, 11, 195, 120, 120, 195, 181, 111, 3, 6.03331
130, 2, wb, attraction, a-b-da, 14, 3, 7, 11, 195, 120, 120, 195, 181, 111, 1, 0.541403
130, 2, wb, attraction, a-b-db, 9, 1, 7, 12, 57, 129, 60, 135, 135, 60, 3, 1.43724
130, 2, wb, attraction, a-b-db, 9, 1, 7, 12, 57, 129, 60, 135, 135, 60, 1, 0.922618
130, 2, wb, filler, NA, 999, 999, 7, 13, 131, 182, 169, 101, 193, 193, 2, 3.37963
130, 2, wb, filler, NA, 999, 999, 7, 13, 131, 182, 169, 101, 193, 193, 3, 0.466563
130, 2, wb, filler, NA, 999, 999, 7, 14, 92, 74, 82, 126, 108, 175, 1, 1.04567
130, 2, wb, filler, NA, 999, 999, 7, 14, 92, 74, 82, 126, 108, 175, 3, 0.522634
130, 2, wb, catch, NA, 999, 999, 7, 15, 69, 126, 120, 135, 155, 160, 1, 0.915092
130, 2, wb, catch, NA, 999, 999, 7, 15, 69, 126, 120, 135, 155, 160, 3, 0.613461
130, 2, wb, filler, NA, 999, 999, 7, 16, 106, 72, 71, 62, 100, 106, 2, 0.546514
130, 2, wb, filler, NA, 999, 999, 7, 16, 106, 72, 71, 62, 100, 106, 3, 1.56367
130, 2, wb, attraction, a-b-da, 5, 2, 7, 17, 165, 90, 90, 165, 161, 88, 3, 1.07452
130, 2, wb, attraction, a-b-da, 5, 2, 7, 17, 165, 90, 90, 165, 161, 88, 2, 1.09413
130, 2, wb, filler, NA, 999, 999, 7, 18, 120, 164, 140, 125, 85, 159, 3, 2.30371
130, 2, wb, filler, NA, 999, 999, 7, 18, 120, 164, 140, 125, 85, 159, 1, 0.986237
130, 2, wb, attraction, a-b-db, 14, 1, 7, 19, 56, 125, 60, 135, 135, 60, 1, 2.96858
130, 2, wb, attraction, a-b-db, 14, 1, 7, 19, 56, 125, 60, 135, 135, 60, 3, 1.25653
130, 2, wb, attraction, a-b-da, 2, 2, 7, 20, 165, 90, 163, 89, 90, 165, 1, 9.40321
130, 2, wb, attraction, a-b-da, 2, 2, 7, 20, 165, 90, 163, 89, 90, 165, 3, 0.447505
130, 2, wb, attraction, a-b-db, 2, 2, 7, 21, 165, 90, 90, 165, 89, 163, 3, 1.60358
130, 2, wb, attraction, a-b-db, 2, 2, 7, 21, 165, 90, 90, 165, 89, 163, 2, 0.458336
130, 2, wb, filler, NA, 999, 999, 7, 22, 74, 164, 101, 132, 148, 156, 2, 1.13334
130, 2, wb, filler, NA, 999, 999, 7, 22, 74, 164, 101, 132, 148, 156, 3, 0.35094
130, 2, wb, catch, NA, 999, 999, 7, 23, 110, 145, 160, 155, 129, 66, 3, 1.12682
130, 2, wb, catch, NA, 999, 999, 7, 23, 110, 145, 160, 155, 129, 66, 2, 0.360337
130, 2, wb, attraction, a-b-da, 9, 2, 7, 24, 90, 165, 157, 86, 165, 90, 2, 3.54353
130, 2, wb, attraction, a-b-da, 9, 2, 7, 24, 90, 165, 157, 86, 165, 90, 1, 0.463752
130, 2, wb, attraction, a-b-db, 14, 3, 7, 25, 111, 181, 120, 195, 195, 120, 1, 6.72281
130, 2, wb, attraction, a-b-db, 14, 3, 7, 25, 111, 181, 120, 195, 195, 120, 2, 1.20345
130, 2, wb, catch, NA, 999, 999, 7, 26, 129, 66, 109, 146, 135, 180, 1, 0.776978
130, 2, wb, catch, NA, 999, 999, 7, 26, 129, 66, 109, 146, 135, 180, 3, 0.44874
130, 2, wb, attraction, a-b-db, 5, 1, 7, 27, 60, 135, 58, 132, 135, 60, 1, 1.87645
130, 2, wb, attraction, a-b-db, 5, 1, 7, 27, 60, 135, 58, 132, 135, 60, 2, 0.575882
130, 2, wb, attraction, a-b-da, 9, 3, 7, 28, 186, 114, 120, 195, 195, 120, 1, 1.59829
130, 2, wb, attraction, a-b-da, 9, 3, 7, 28, 186, 114, 120, 195, 195, 120, 2, 0.397214
130, 2, wb, filler, NA, 999, 999, 7, 29, 110, 159, 172, 92, 117, 122, 3, 2.85092
130, 2, wb, filler, NA, 999, 999, 7, 29, 110, 159, 172, 92, 117, 122, 1, 1.58328
130, 2, wb, attraction, a-b-da, 14, 2, 7, 30, 153, 83, 90, 165, 165, 90, 1, 10.2296
130, 2, wb, attraction, a-b-da, 14, 2, 7, 30, 153, 83, 90, 165, 165, 90, 2, 0.528222
130, 2, wb, filler, NA, 999, 999, 7, 31, 123, 170, 121, 118, 149, 172, 2, 0.752689
130, 2, wb, filler, NA, 999, 999, 7, 31, 123, 170, 121, 118, 149, 172, 3, 0.377794
130, 2, wb, attraction, a-b-da, 14, 1, 7, 32, 125, 56, 135, 60, 60, 135, 1, 1.96019
130, 2, wb, attraction, a-b-da, 14, 1, 7, 32, 125, 56, 135, 60, 60, 135, 2, 0.456382
130, 2, wb, attraction, a-b-db, 5, 3, 7, 33, 120, 195, 117, 190, 195, 120, 3, 1.4915
130, 2, wb, attraction, a-b-db, 5, 3, 7, 33, 120, 195, 117, 190, 195, 120, 1, 0.550244
130, 2, wb, attraction, a-b-da, 2, 1, 7, 34, 134, 59, 135, 60, 60, 135, 1, 0.965992
130, 2, wb, attraction, a-b-da, 2, 1, 7, 34, 134, 59, 135, 60, 60, 135, 3, 0.606376
130, 2, wb, attraction, a-b-da, 9, 1, 7, 35, 129, 57, 135, 60, 60, 135, 1, 1.6595
130, 2, wb, attraction, a-b-da, 9, 1, 7, 35, 129, 57, 135, 60, 60, 135, 3, 0.479675
130, 2, wb, filler, NA, 999, 999, 7, 36, 105, 177, 81, 84, 77, 190, 2, 0.946032
130, 2, wb, filler, NA, 999, 999, 7, 36, 105, 177, 81, 84, 77, 190, 1, 0.427013
130, 2, wb, attraction, a-b-db, 2, 1, 7, 37, 59, 134, 60, 135, 135, 60, 1, 1.65549
130, 2, wb, attraction, a-b-db, 2, 1, 7, 37, 59, 134, 60, 135, 135, 60, 2, 0.371616
130, 2, wb, attraction, a-b-da, 9, 3, 8, 1, 195, 120, 120, 195, 186, 114, 3, 1.21079
130, 2, wb, attraction, a-b-da, 9, 3, 8, 1, 195, 120, 120, 195, 186, 114, 2, 0.625007
130, 2, wb, attraction, a-b-db, 2, 2, 8, 2, 89, 163, 90, 165, 165, 90, 3, 1.64547
130, 2, wb, attraction, a-b-db, 2, 2, 8, 2, 89, 163, 90, 165, 165, 90, 1, 0.514212
130, 2, wb, filler, NA, 999, 999, 8, 3, 124, 178, 175, 167, 182, 136, 1, 0.923299
130, 2, wb, filler, NA, 999, 999, 8, 3, 124, 178, 175, 167, 182, 136, 2, 0.485011
130, 2, wb, attraction, a-b-db, 14, 2, 8, 4, 165, 90, 90, 165, 83, 153, 3, 1.32755
130, 2, wb, attraction, a-b-db, 14, 2, 8, 4, 165, 90, 90, 165, 83, 153, 1, 0.817013
130, 2, wb, filler, NA, 999, 999, 8, 5, 64, 109, 193, 110, 146, 159, 1, 0.742035
130, 2, wb, filler, NA, 999, 999, 8, 5, 64, 109, 193, 110, 146, 159, 2, 0.927176
130, 2, wb, attraction, a-b-da, 2, 3, 8, 6, 195, 120, 120, 195, 193, 119, 3, 1.89545
130, 2, wb, attraction, a-b-da, 2, 3, 8, 6, 195, 120, 120, 195, 193, 119, 1, 0.546172
130, 2, wb, attraction, a-b-da, 2, 2, 8, 7, 90, 165, 163, 89, 165, 90, 3, 4.56993
130, 2, wb, attraction, a-b-da, 2, 2, 8, 7, 90, 165, 163, 89, 165, 90, 1, 0.609153
130, 2, wb, filler, NA, 999, 999, 8, 8, 123, 78, 57, 158, 191, 152, 2, 0.838232
130, 2, wb, filler, NA, 999, 999, 8, 8, 123, 78, 57, 158, 191, 152, 3, 0.283484
130, 2, wb, attraction, a-b-db, 5, 3, 8, 9, 195, 120, 117, 190, 120, 195, 3, 1.72581
130, 2, wb, attraction, a-b-db, 5, 3, 8, 9, 195, 120, 117, 190, 120, 195, 1, 1.11124
130, 2, wb, attraction, a-b-db, 14, 3, 8, 10, 120, 195, 195, 120, 111, 181, 3, 1.69635
130, 2, wb, attraction, a-b-db, 14, 3, 8, 10, 120, 195, 195, 120, 111, 181, 1, 0.410935
130, 2, wb, filler, NA, 999, 999, 8, 11, 102, 161, 76, 176, 189, 59, 2, 2.32005
130, 2, wb, filler, NA, 999, 999, 8, 11, 102, 161, 76, 176, 189, 59, 3, 1.19401
130, 2, wb, attraction, a-b-db, 9, 3, 8, 12, 120, 195, 114, 186, 195, 120, 2, 3.47952
130, 2, wb, attraction, a-b-db, 9, 3, 8, 12, 120, 195, 114, 186, 195, 120, 3, 0.442431
130, 2, wb, catch, NA, 999, 999, 8, 13, 124, 191, 110, 145, 90, 105, 3, 0.782195
130, 2, wb, catch, NA, 999, 999, 8, 13, 124, 191, 110, 145, 90, 105, 1, 0.397927
130, 2, wb, filler, NA, 999, 999, 8, 14, 62, 63, 176, 189, 150, 117, 1, 1.46781
130, 2, wb, filler, NA, 999, 999, 8, 14, 62, 63, 176, 189, 150, 117, 2, 0.35997
130, 2, wb, attraction, a-b-db, 14, 1, 8, 15, 135, 60, 56, 125, 60, 135, 2, 3.83115
130, 2, wb, attraction, a-b-db, 14, 1, 8, 15, 135, 60, 56, 125, 60, 135, 3, 0.411922
130, 2, wb, filler, NA, 999, 999, 8, 16, 170, 117, 127, 167, 96, 65, 3, 1.00908
130, 2, wb, filler, NA, 999, 999, 8, 16, 170, 117, 127, 167, 96, 65, 2, 0.375407
130, 2, wb, attraction, a-b-da, 5, 1, 8, 17, 60, 135, 135, 60, 132, 58, 3, 2.99796
130, 2, wb, attraction, a-b-da, 5, 1, 8, 17, 60, 135, 135, 60, 132, 58, 2, 0.340249
130, 2, wb, attraction, a-b-db, 9, 2, 8, 18, 165, 90, 90, 165, 86, 157, 3, 1.3561
130, 2, wb, attraction, a-b-db, 9, 2, 8, 18, 165, 90, 90, 165, 86, 157, 1, 0.948256
130, 2, wb, filler, NA, 999, 999, 8, 19, 161, 158, 191, 78, 102, 81, 3, 0.772095
130, 2, wb, filler, NA, 999, 999, 8, 19, 161, 158, 191, 78, 102, 81, 1, 1.61183
130, 2, wb, attraction, a-b-da, 2, 1, 8, 20, 135, 60, 134, 59, 60, 135, 3, 1.4325
130, 2, wb, attraction, a-b-da, 2, 1, 8, 20, 135, 60, 134, 59, 60, 135, 2, 0.798051
130, 2, wb, attraction, a-b-da, 14, 3, 8, 21, 120, 195, 181, 111, 195, 120, 2, 3.45966
130, 2, wb, attraction, a-b-da, 14, 3, 8, 21, 120, 195, 181, 111, 195, 120, 1, 0.487197
130, 2, wb, attraction, a-b-db, 5, 1, 8, 22, 58, 132, 135, 60, 60, 135, 1, 4.0657
130, 2, wb, attraction, a-b-db, 5, 1, 8, 22, 58, 132, 135, 60, 60, 135, 2, 1.57309
130, 2, wb, attraction, a-b-db, 5, 2, 8, 23, 165, 90, 90, 165, 88, 161, 1, 3.44315
130, 2, wb, attraction, a-b-db, 5, 2, 8, 23, 165, 90, 90, 165, 88, 161, 2, 0.295355
130, 2, wb, filler, NA, 999, 999, 8, 24, 86, 176, 62, 172, 89, 181, 2, 0.897328
130, 2, wb, filler, NA, 999, 999, 8, 24, 86, 176, 62, 172, 89, 181, 1, 0.37226
130, 2, wb, catch, NA, 999, 999, 8, 25, 177, 138, 131, 124, 80, 115, 3, 1.3634
130, 2, wb, catch, NA, 999, 999, 8, 25, 177, 138, 131, 124, 80, 115, 1, 0.491675
130, 2, wb, attraction, a-b-da, 9, 2, 8, 26, 157, 86, 165, 90, 90, 165, 1, 1.72545
130, 2, wb, attraction, a-b-da, 9, 2, 8, 26, 157, 86, 165, 90, 90, 165, 2, 1.023
130, 2, wb, attraction, a-b-da, 14, 1, 8, 27, 60, 135, 125, 56, 135, 60, 3, 1.91516
130, 2, wb, attraction, a-b-da, 14, 1, 8, 27, 60, 135, 125, 56, 135, 60, 1, 0.661193
130, 2, wb, filler, NA, 999, 999, 8, 28, 60, 187, 121, 163, 131, 107, 3, 7.82424
130, 2, wb, filler, NA, 999, 999, 8, 28, 60, 187, 121, 163, 131, 107, 2, 0.363769
130, 2, wb, catch, NA, 999, 999, 8, 29, 150, 105, 164, 151, 66, 129, 3, 0.874919
130, 2, wb, catch, NA, 999, 999, 8, 29, 150, 105, 164, 151, 66, 129, 2, 0.390616
130, 2, wb, attraction, a-b-da, 5, 3, 8, 30, 190, 117, 195, 120, 120, 195, 1, 2.76441
130, 2, wb, attraction, a-b-da, 5, 3, 8, 30, 190, 117, 195, 120, 120, 195, 2, 0.340206
130, 2, wb, attraction, a-b-db, 2, 3, 8, 31, 120, 195, 195, 120, 119, 193, 3, 3.30804
130, 2, wb, attraction, a-b-db, 2, 3, 8, 31, 120, 195, 195, 120, 119, 193, 2, 0.325698
130, 2, wb, attraction, a-b-db, 9, 1, 8, 32, 135, 60, 57, 129, 60, 135, 2, 2.59833
130, 2, wb, attraction, a-b-db, 9, 1, 8, 32, 135, 60, 57, 129, 60, 135, 1, 0.628678
130, 2, wb, attraction, a-b-da, 14, 2, 8, 33, 153, 83, 165, 90, 90, 165, 1, 2.96909
130, 2, wb, attraction, a-b-da, 14, 2, 8, 33, 153, 83, 165, 90, 90, 165, 3, 0.584854
130, 2, wb, filler, NA, 999, 999, 8, 34, 86, 156, 137, 159, 182, 142, 1, 1.31921
130, 2, wb, filler, NA, 999, 999, 8, 34, 86, 156, 137, 159, 182, 142, 2, 0.649472
130, 2, wb, attraction, a-b-da, 9, 1, 8, 35, 60, 135, 135, 60, 129, 57, 1, 3.72527
130, 2, wb, attraction, a-b-da, 9, 1, 8, 35, 60, 135, 135, 60, 129, 57, 2, 0.365988
130, 2, wb, attraction, a-b-db, 2, 1, 8, 36, 59, 134, 135, 60, 60, 135, 3, 2.29319
130, 2, wb, attraction, a-b-db, 2, 1, 8, 36, 59, 134, 135, 60, 60, 135, 2, 0.391865
130, 2, wb, attraction, a-b-da, 5, 2, 8, 37, 90, 165, 165, 90, 161, 88, 1, 2.03751
130, 2, wb, attraction, a-b-da, 5, 2, 8, 37, 90, 165, 165, 90, 161, 88, 3, 0.418925
