sub_n, computer_n, bw_cond, effect, set, distance, diag, block_n, trial_n, h1, w1, h2, w2, h3, w3, choice, rt 
111, 2, bw, practice, NA, 999, 999, 0, 1, 185, 79, 99, 141, 72, 169, 2, 8.11615
111, 2, bw, practice, NA, 999, 999, 0, 1, 185, 79, 99, 141, 72, 169, 3, 2.15092
111, 2, bw, practice, NA, 999, 999, 0, 2, 176, 75, 149, 158, 63, 71, 2, 1.84791
111, 2, bw, practice, NA, 999, 999, 0, 2, 176, 75, 149, 158, 63, 71, 3, 1.30256
111, 2, bw, practice, NA, 999, 999, 0, 3, 109, 191, 161, 105, 80, 158, 1, 1.8688
111, 2, bw, practice, NA, 999, 999, 0, 3, 109, 191, 161, 105, 80, 158, 3, 1.12105
111, 2, bw, attraction, a-b-db, 14, 3, 1, 1, 111, 181, 120, 195, 195, 120, 2, 2.47369
111, 2, bw, attraction, a-b-db, 14, 3, 1, 1, 111, 181, 120, 195, 195, 120, 1, 0.788895
111, 2, bw, filler, NA, 999, 999, 1, 2, 93, 111, 147, 105, 70, 79, 2, 1.10713
111, 2, bw, filler, NA, 999, 999, 1, 2, 93, 111, 147, 105, 70, 79, 3, 0.789428
111, 2, bw, attraction, a-b-da, 2, 1, 1, 3, 134, 59, 135, 60, 60, 135, 2, 11.8993
111, 2, bw, attraction, a-b-da, 2, 1, 1, 3, 134, 59, 135, 60, 60, 135, 1, 0.754723
111, 2, bw, catch, NA, 999, 999, 1, 4, 160, 155, 99, 156, 131, 64, 1, 1.05042
111, 2, bw, catch, NA, 999, 999, 1, 4, 160, 155, 99, 156, 131, 64, 3, 0.647351
111, 2, bw, attraction, a-b-da, 14, 3, 1, 5, 181, 111, 120, 195, 195, 120, 2, 2.51516
111, 2, bw, attraction, a-b-da, 14, 3, 1, 5, 181, 111, 120, 195, 195, 120, 1, 0.997147
111, 2, bw, filler, NA, 999, 999, 1, 6, 148, 63, 99, 87, 169, 155, 3, 0.882748
111, 2, bw, filler, NA, 999, 999, 1, 6, 148, 63, 99, 87, 169, 155, 2, 3.3584
111, 2, bw, attraction, a-b-da, 9, 1, 1, 7, 129, 57, 60, 135, 135, 60, 2, 2.1966
111, 2, bw, attraction, a-b-da, 9, 1, 1, 7, 129, 57, 60, 135, 135, 60, 1, 0.723224
111, 2, bw, attraction, a-b-da, 5, 3, 1, 8, 190, 117, 195, 120, 120, 195, 2, 2.71564
111, 2, bw, attraction, a-b-da, 5, 3, 1, 8, 190, 117, 195, 120, 120, 195, 1, 0.509569
111, 2, bw, attraction, a-b-db, 5, 2, 1, 9, 90, 165, 165, 90, 88, 161, 2, 3.47085
111, 2, bw, attraction, a-b-db, 5, 2, 1, 9, 90, 165, 165, 90, 88, 161, 3, 0.490074
111, 2, bw, attraction, a-b-db, 5, 3, 1, 10, 117, 190, 120, 195, 195, 120, 2, 1.39603
111, 2, bw, attraction, a-b-db, 5, 3, 1, 10, 117, 190, 120, 195, 195, 120, 1, 3.01064
111, 2, bw, attraction, a-b-db, 2, 1, 1, 11, 60, 135, 59, 134, 135, 60, 1, 2.79099
111, 2, bw, attraction, a-b-db, 2, 1, 1, 11, 60, 135, 59, 134, 135, 60, 3, 0.829498
111, 2, bw, attraction, a-b-da, 2, 3, 1, 12, 120, 195, 193, 119, 195, 120, 1, 2.64176
111, 2, bw, attraction, a-b-da, 2, 3, 1, 12, 120, 195, 193, 119, 195, 120, 3, 1.84641
111, 2, bw, catch, NA, 999, 999, 1, 13, 147, 108, 158, 157, 119, 76, 2, 1.21771
111, 2, bw, catch, NA, 999, 999, 1, 13, 147, 108, 158, 157, 119, 76, 3, 0.759962
111, 2, bw, attraction, a-b-db, 14, 2, 1, 14, 83, 153, 165, 90, 90, 165, 3, 1.33495
111, 2, bw, attraction, a-b-db, 14, 2, 1, 14, 83, 153, 165, 90, 90, 165, 1, 0.552561
111, 2, bw, attraction, a-b-da, 14, 1, 1, 15, 135, 60, 60, 135, 125, 56, 2, 2.09627
111, 2, bw, attraction, a-b-da, 14, 1, 1, 15, 135, 60, 60, 135, 125, 56, 3, 1.66707
111, 2, bw, filler, NA, 999, 999, 1, 16, 126, 128, 142, 185, 114, 132, 2, 0.949754
111, 2, bw, filler, NA, 999, 999, 1, 16, 126, 128, 142, 185, 114, 132, 3, 2.06274
111, 2, bw, attraction, a-b-db, 9, 2, 1, 17, 86, 157, 165, 90, 90, 165, 2, 2.13728
111, 2, bw, attraction, a-b-db, 9, 2, 1, 17, 86, 157, 165, 90, 90, 165, 1, 0.570628
111, 2, bw, attraction, a-b-db, 14, 1, 1, 18, 60, 135, 135, 60, 56, 125, 1, 1.94583
111, 2, bw, attraction, a-b-db, 14, 1, 1, 18, 60, 135, 135, 60, 56, 125, 3, 0.50649
111, 2, bw, filler, NA, 999, 999, 1, 19, 177, 90, 149, 131, 73, 137, 2, 1.21155
111, 2, bw, filler, NA, 999, 999, 1, 19, 177, 90, 149, 131, 73, 137, 3, 0.409787
111, 2, bw, attraction, a-b-da, 5, 1, 1, 20, 135, 60, 60, 135, 132, 58, 2, 3.447
111, 2, bw, attraction, a-b-da, 5, 1, 1, 20, 135, 60, 60, 135, 132, 58, 3, 1.83517
111, 2, bw, filler, NA, 999, 999, 1, 21, 159, 120, 188, 77, 102, 170, 1, 3.19931
111, 2, bw, filler, NA, 999, 999, 1, 21, 159, 120, 188, 77, 102, 170, 3, 1.46159
111, 2, bw, attraction, a-b-da, 9, 2, 1, 22, 165, 90, 157, 86, 90, 165, 1, 2.82436
111, 2, bw, attraction, a-b-da, 9, 2, 1, 22, 165, 90, 157, 86, 90, 165, 2, 1.18139
111, 2, bw, filler, NA, 999, 999, 1, 23, 99, 160, 192, 183, 60, 123, 2, 0.955704
111, 2, bw, filler, NA, 999, 999, 1, 23, 99, 160, 192, 183, 60, 123, 3, 0.796067
111, 2, bw, attraction, a-b-da, 14, 2, 1, 24, 90, 165, 153, 83, 165, 90, 1, 1.45771
111, 2, bw, attraction, a-b-da, 14, 2, 1, 24, 90, 165, 153, 83, 165, 90, 2, 0.589987
111, 2, bw, filler, NA, 999, 999, 1, 25, 88, 172, 99, 138, 138, 144, 3, 3.13958
111, 2, bw, filler, NA, 999, 999, 1, 25, 88, 172, 99, 138, 138, 144, 2, 1.01192
111, 2, bw, attraction, a-b-db, 2, 3, 1, 26, 120, 195, 195, 120, 119, 193, 2, 2.72106
111, 2, bw, attraction, a-b-db, 2, 3, 1, 26, 120, 195, 195, 120, 119, 193, 3, 0.474718
111, 2, bw, filler, NA, 999, 999, 1, 27, 150, 91, 108, 177, 107, 194, 3, 1.98123
111, 2, bw, filler, NA, 999, 999, 1, 27, 150, 91, 108, 177, 107, 194, 1, 0.4605
111, 2, bw, attraction, a-b-db, 2, 2, 1, 28, 89, 163, 165, 90, 90, 165, 2, 1.4238
111, 2, bw, attraction, a-b-db, 2, 2, 1, 28, 89, 163, 165, 90, 90, 165, 1, 0.365156
111, 2, bw, attraction, a-b-da, 2, 2, 1, 29, 163, 89, 165, 90, 90, 165, 2, 3.85233
111, 2, bw, attraction, a-b-da, 2, 2, 1, 29, 163, 89, 165, 90, 90, 165, 3, 1.03244
111, 2, bw, attraction, a-b-db, 9, 3, 1, 30, 195, 120, 120, 195, 114, 186, 2, 1.34882
111, 2, bw, attraction, a-b-db, 9, 3, 1, 30, 195, 120, 120, 195, 114, 186, 3, 0.413684
111, 2, bw, catch, NA, 999, 999, 1, 31, 180, 135, 135, 120, 110, 85, 1, 0.77885
111, 2, bw, catch, NA, 999, 999, 1, 31, 180, 135, 135, 120, 110, 85, 3, 0.810592
111, 2, bw, attraction, a-b-db, 9, 1, 1, 32, 57, 129, 135, 60, 60, 135, 2, 1.77548
111, 2, bw, attraction, a-b-db, 9, 1, 1, 32, 57, 129, 135, 60, 60, 135, 1, 0.902862
111, 2, bw, filler, NA, 999, 999, 1, 33, 56, 156, 84, 110, 129, 185, 3, 0.888693
111, 2, bw, filler, NA, 999, 999, 1, 33, 56, 156, 84, 110, 129, 185, 2, 1.79579
111, 2, bw, attraction, a-b-db, 5, 1, 1, 34, 58, 132, 135, 60, 60, 135, 2, 1.93699
111, 2, bw, attraction, a-b-db, 5, 1, 1, 34, 58, 132, 135, 60, 60, 135, 1, 0.362362
111, 2, bw, attraction, a-b-da, 9, 3, 1, 35, 120, 195, 186, 114, 195, 120, 1, 1.49751
111, 2, bw, attraction, a-b-da, 9, 3, 1, 35, 120, 195, 186, 114, 195, 120, 2, 0.692356
111, 2, bw, attraction, a-b-da, 5, 2, 1, 36, 165, 90, 90, 165, 161, 88, 2, 1.91002
111, 2, bw, attraction, a-b-da, 5, 2, 1, 36, 165, 90, 90, 165, 161, 88, 3, 0.392276
111, 2, bw, filler, NA, 999, 999, 1, 37, 109, 71, 191, 92, 114, 69, 2, 1.45406
111, 2, bw, filler, NA, 999, 999, 1, 37, 109, 71, 191, 92, 114, 69, 1, 2.29025
111, 2, bw, attraction, a-b-db, 9, 1, 2, 1, 135, 60, 60, 135, 57, 129, 2, 2.09133
111, 2, bw, attraction, a-b-db, 9, 1, 2, 1, 135, 60, 60, 135, 57, 129, 1, 0.581904
111, 2, bw, catch, NA, 999, 999, 2, 2, 101, 154, 161, 154, 127, 68, 2, 0.748325
111, 2, bw, catch, NA, 999, 999, 2, 2, 101, 154, 161, 154, 127, 68, 3, 0.429574
111, 2, bw, filler, NA, 999, 999, 2, 3, 106, 104, 93, 186, 136, 103, 2, 3.18595
111, 2, bw, filler, NA, 999, 999, 2, 3, 106, 104, 93, 186, 136, 103, 1, 0.416968
111, 2, bw, filler, NA, 999, 999, 2, 4, 195, 151, 160, 123, 143, 147, 1, 1.09414
111, 2, bw, filler, NA, 999, 999, 2, 4, 195, 151, 160, 123, 143, 147, 2, 0.545124
111, 2, bw, attraction, a-b-da, 2, 1, 2, 5, 135, 60, 60, 135, 134, 59, 2, 1.66482
111, 2, bw, attraction, a-b-da, 2, 1, 2, 5, 135, 60, 60, 135, 134, 59, 1, 1.47693
111, 2, bw, attraction, a-b-da, 2, 3, 2, 6, 195, 120, 120, 195, 193, 119, 2, 4.35111
111, 2, bw, attraction, a-b-da, 2, 3, 2, 6, 195, 120, 120, 195, 193, 119, 3, 0.447046
111, 2, bw, attraction, a-b-da, 9, 3, 2, 7, 186, 114, 195, 120, 120, 195, 2, 1.13897
111, 2, bw, attraction, a-b-da, 9, 3, 2, 7, 186, 114, 195, 120, 120, 195, 3, 1.21982
111, 2, bw, filler, NA, 999, 999, 2, 8, 194, 60, 76, 97, 86, 170, 3, 3.38461
111, 2, bw, filler, NA, 999, 999, 2, 8, 194, 60, 76, 97, 86, 170, 2, 0.695661
111, 2, bw, attraction, a-b-db, 14, 2, 2, 9, 83, 153, 90, 165, 165, 90, 2, 1.18532
111, 2, bw, attraction, a-b-db, 14, 2, 2, 9, 83, 153, 90, 165, 165, 90, 1, 0.968948
111, 2, bw, attraction, a-b-db, 14, 1, 2, 10, 56, 125, 135, 60, 60, 135, 2, 1.12003
111, 2, bw, attraction, a-b-db, 14, 1, 2, 10, 56, 125, 135, 60, 60, 135, 1, 0.746313
111, 2, bw, attraction, a-b-da, 14, 1, 2, 11, 60, 135, 135, 60, 125, 56, 1, 1.72184
111, 2, bw, attraction, a-b-da, 14, 1, 2, 11, 60, 135, 135, 60, 125, 56, 3, 0.491316
111, 2, bw, catch, NA, 999, 999, 2, 12, 129, 126, 148, 167, 96, 99, 2, 0.765157
111, 2, bw, catch, NA, 999, 999, 2, 12, 129, 126, 148, 167, 96, 99, 3, 0.445583
111, 2, bw, attraction, a-b-db, 2, 3, 2, 13, 120, 195, 119, 193, 195, 120, 2, 3.67346
111, 2, bw, attraction, a-b-db, 2, 3, 2, 13, 120, 195, 119, 193, 195, 120, 3, 1.58014
111, 2, bw, attraction, a-b-db, 5, 1, 2, 14, 60, 135, 58, 132, 135, 60, 3, 1.53839
111, 2, bw, attraction, a-b-db, 5, 1, 2, 14, 60, 135, 58, 132, 135, 60, 2, 0.315041
111, 2, bw, attraction, a-b-db, 14, 3, 2, 15, 111, 181, 195, 120, 120, 195, 2, 2.05226
111, 2, bw, attraction, a-b-db, 14, 3, 2, 15, 111, 181, 195, 120, 120, 195, 1, 0.368838
111, 2, bw, filler, NA, 999, 999, 2, 16, 85, 192, 156, 70, 84, 150, 1, 1.04819
111, 2, bw, filler, NA, 999, 999, 2, 16, 85, 192, 156, 70, 84, 150, 2, 0.42113
111, 2, bw, attraction, a-b-da, 14, 2, 2, 17, 90, 165, 165, 90, 153, 83, 2, 1.85042
111, 2, bw, attraction, a-b-da, 14, 2, 2, 17, 90, 165, 165, 90, 153, 83, 3, 0.414871
111, 2, bw, attraction, a-b-da, 14, 3, 2, 18, 195, 120, 120, 195, 181, 111, 2, 1.33228
111, 2, bw, attraction, a-b-da, 14, 3, 2, 18, 195, 120, 120, 195, 181, 111, 3, 0.389677
111, 2, bw, filler, NA, 999, 999, 2, 19, 171, 75, 154, 112, 158, 172, 3, 1.21945
111, 2, bw, filler, NA, 999, 999, 2, 19, 171, 75, 154, 112, 158, 172, 1, 0.8817
111, 2, bw, attraction, a-b-db, 2, 2, 2, 20, 89, 163, 90, 165, 165, 90, 2, 1.36408
111, 2, bw, attraction, a-b-db, 2, 2, 2, 20, 89, 163, 90, 165, 165, 90, 3, 0.484291
111, 2, bw, attraction, a-b-db, 9, 2, 2, 21, 165, 90, 86, 157, 90, 165, 1, 1.72678
111, 2, bw, attraction, a-b-db, 9, 2, 2, 21, 165, 90, 86, 157, 90, 165, 2, 0.48818
111, 2, bw, attraction, a-b-db, 5, 3, 2, 22, 195, 120, 120, 195, 117, 190, 2, 3.05874
111, 2, bw, attraction, a-b-db, 5, 3, 2, 22, 195, 120, 120, 195, 117, 190, 1, 0.59021
111, 2, bw, filler, NA, 999, 999, 2, 23, 191, 155, 173, 179, 104, 73, 2, 1.15614
111, 2, bw, filler, NA, 999, 999, 2, 23, 191, 155, 173, 179, 104, 73, 3, 0.508326
111, 2, bw, attraction, a-b-da, 5, 2, 2, 24, 165, 90, 161, 88, 90, 165, 3, 1.07744
111, 2, bw, attraction, a-b-da, 5, 2, 2, 24, 165, 90, 161, 88, 90, 165, 2, 0.713195
111, 2, bw, attraction, a-b-da, 9, 2, 2, 25, 157, 86, 165, 90, 90, 165, 2, 2.10623
111, 2, bw, attraction, a-b-da, 9, 2, 2, 25, 157, 86, 165, 90, 90, 165, 1, 0.61219
111, 2, bw, filler, NA, 999, 999, 2, 26, 184, 138, 131, 108, 167, 105, 1, 1.36914
111, 2, bw, filler, NA, 999, 999, 2, 26, 184, 138, 131, 108, 167, 105, 2, 0.921464
111, 2, bw, attraction, a-b-da, 9, 1, 2, 27, 60, 135, 135, 60, 129, 57, 2, 2.47439
111, 2, bw, attraction, a-b-da, 9, 1, 2, 27, 60, 135, 135, 60, 129, 57, 3, 1.31764
111, 2, bw, catch, NA, 999, 999, 2, 28, 65, 130, 116, 139, 127, 188, 3, 1.13451
111, 2, bw, catch, NA, 999, 999, 2, 28, 65, 130, 116, 139, 127, 188, 1, 0.736086
111, 2, bw, attraction, a-b-db, 9, 3, 2, 29, 120, 195, 195, 120, 114, 186, 2, 7.54453
111, 2, bw, attraction, a-b-db, 9, 3, 2, 29, 120, 195, 195, 120, 114, 186, 3, 0.50341
111, 2, bw, attraction, a-b-da, 5, 3, 2, 30, 190, 117, 120, 195, 195, 120, 3, 3.71313
111, 2, bw, attraction, a-b-da, 5, 3, 2, 30, 190, 117, 120, 195, 195, 120, 1, 1.01064
111, 2, bw, attraction, a-b-da, 2, 2, 2, 31, 163, 89, 90, 165, 165, 90, 3, 2.87968
111, 2, bw, attraction, a-b-da, 2, 2, 2, 31, 163, 89, 90, 165, 165, 90, 1, 0.786737
111, 2, bw, filler, NA, 999, 999, 2, 32, 159, 180, 193, 133, 195, 105, 1, 3.44909
111, 2, bw, filler, NA, 999, 999, 2, 32, 159, 180, 193, 133, 195, 105, 3, 0.749346
111, 2, bw, attraction, a-b-db, 2, 1, 2, 33, 60, 135, 59, 134, 135, 60, 3, 1.51709
111, 2, bw, attraction, a-b-db, 2, 1, 2, 33, 60, 135, 59, 134, 135, 60, 2, 0.767308
111, 2, bw, attraction, a-b-da, 5, 1, 2, 34, 135, 60, 132, 58, 60, 135, 3, 1.32616
111, 2, bw, attraction, a-b-da, 5, 1, 2, 34, 135, 60, 132, 58, 60, 135, 2, 0.767732
111, 2, bw, filler, NA, 999, 999, 2, 35, 109, 122, 72, 147, 104, 87, 2, 2.09483
111, 2, bw, filler, NA, 999, 999, 2, 35, 109, 122, 72, 147, 104, 87, 3, 1.03345
111, 2, bw, attraction, a-b-db, 5, 2, 2, 36, 90, 165, 88, 161, 165, 90, 3, 1.98164
111, 2, bw, attraction, a-b-db, 5, 2, 2, 36, 90, 165, 88, 161, 165, 90, 1, 0.389342
111, 2, bw, filler, NA, 999, 999, 2, 37, 132, 172, 107, 66, 135, 112, 1, 0.811027
111, 2, bw, filler, NA, 999, 999, 2, 37, 132, 172, 107, 66, 135, 112, 2, 0.417329
111, 2, bw, attraction, a-b-da, 9, 3, 3, 1, 195, 120, 120, 195, 186, 114, 2, 1.52661
111, 2, bw, attraction, a-b-da, 9, 3, 3, 1, 195, 120, 120, 195, 186, 114, 3, 0.615912
111, 2, bw, filler, NA, 999, 999, 3, 2, 152, 153, 144, 158, 155, 58, 2, 1.36501
111, 2, bw, filler, NA, 999, 999, 3, 2, 152, 153, 144, 158, 155, 58, 3, 0.901263
111, 2, bw, attraction, a-b-da, 5, 1, 3, 3, 132, 58, 60, 135, 135, 60, 2, 0.886849
111, 2, bw, attraction, a-b-da, 5, 1, 3, 3, 132, 58, 60, 135, 135, 60, 1, 0.730547
111, 2, bw, attraction, a-b-db, 9, 1, 3, 4, 135, 60, 57, 129, 60, 135, 3, 1.91511
111, 2, bw, attraction, a-b-db, 9, 1, 3, 4, 135, 60, 57, 129, 60, 135, 2, 0.821124
111, 2, bw, attraction, a-b-da, 14, 3, 3, 5, 120, 195, 195, 120, 181, 111, 2, 1.6102
111, 2, bw, attraction, a-b-da, 14, 3, 3, 5, 120, 195, 195, 120, 181, 111, 3, 1.05612
111, 2, bw, attraction, a-b-db, 9, 3, 3, 6, 120, 195, 195, 120, 114, 186, 1, 2.4431
111, 2, bw, attraction, a-b-db, 9, 3, 3, 6, 120, 195, 195, 120, 114, 186, 2, 0.407672
111, 2, bw, attraction, a-b-da, 2, 3, 3, 7, 120, 195, 195, 120, 193, 119, 1, 1.74082
111, 2, bw, attraction, a-b-da, 2, 3, 3, 7, 120, 195, 195, 120, 193, 119, 2, 0.509674
111, 2, bw, catch, NA, 999, 999, 3, 8, 112, 83, 159, 156, 95, 160, 2, 0.94273
111, 2, bw, catch, NA, 999, 999, 3, 8, 112, 83, 159, 156, 95, 160, 1, 0.783647
111, 2, bw, attraction, a-b-db, 5, 3, 3, 9, 120, 195, 195, 120, 117, 190, 1, 2.45401
111, 2, bw, attraction, a-b-db, 5, 3, 3, 9, 120, 195, 195, 120, 117, 190, 3, 0.546696
111, 2, bw, attraction, a-b-db, 2, 2, 3, 10, 90, 165, 89, 163, 165, 90, 3, 1.01846
111, 2, bw, attraction, a-b-db, 2, 2, 3, 10, 90, 165, 89, 163, 165, 90, 1, 1.28069
111, 2, bw, attraction, a-b-db, 14, 1, 3, 11, 56, 125, 60, 135, 135, 60, 2, 1.83508
111, 2, bw, attraction, a-b-db, 14, 1, 3, 11, 56, 125, 60, 135, 135, 60, 1, 0.432316
111, 2, bw, attraction, a-b-da, 14, 1, 3, 12, 135, 60, 125, 56, 60, 135, 3, 1.54884
111, 2, bw, attraction, a-b-da, 14, 1, 3, 12, 135, 60, 125, 56, 60, 135, 2, 0.541668
111, 2, bw, attraction, a-b-db, 14, 2, 3, 13, 90, 165, 83, 153, 165, 90, 1, 4.10955
111, 2, bw, attraction, a-b-db, 14, 2, 3, 13, 90, 165, 83, 153, 165, 90, 2, 0.990864
111, 2, bw, filler, NA, 999, 999, 3, 14, 159, 116, 96, 176, 69, 193, 2, 6.98039
111, 2, bw, filler, NA, 999, 999, 3, 14, 159, 116, 96, 176, 69, 193, 3, 0.642169
111, 2, bw, attraction, a-b-da, 5, 2, 3, 15, 161, 88, 90, 165, 165, 90, 2, 2.88598
111, 2, bw, attraction, a-b-da, 5, 2, 3, 15, 161, 88, 90, 165, 165, 90, 1, 0.408957
111, 2, bw, attraction, a-b-da, 9, 1, 3, 16, 135, 60, 129, 57, 60, 135, 2, 2.18221
111, 2, bw, attraction, a-b-da, 9, 1, 3, 16, 135, 60, 129, 57, 60, 135, 1, 0.437449
111, 2, bw, filler, NA, 999, 999, 3, 17, 90, 106, 95, 163, 161, 173, 3, 0.681846
111, 2, bw, filler, NA, 999, 999, 3, 17, 90, 106, 95, 163, 161, 173, 1, 0.741613
111, 2, bw, filler, NA, 999, 999, 3, 18, 70, 140, 185, 140, 94, 103, 2, 0.901472
111, 2, bw, filler, NA, 999, 999, 3, 18, 70, 140, 185, 140, 94, 103, 3, 1.34438
111, 2, bw, attraction, a-b-da, 2, 1, 3, 19, 134, 59, 135, 60, 60, 135, 2, 0.895893
111, 2, bw, attraction, a-b-da, 2, 1, 3, 19, 134, 59, 135, 60, 60, 135, 3, 0.723075
111, 2, bw, attraction, a-b-db, 14, 3, 3, 20, 195, 120, 111, 181, 120, 195, 3, 1.93134
111, 2, bw, attraction, a-b-db, 14, 3, 3, 20, 195, 120, 111, 181, 120, 195, 2, 0.372682
111, 2, bw, attraction, a-b-db, 5, 2, 3, 21, 88, 161, 90, 165, 165, 90, 2, 1.97918
111, 2, bw, attraction, a-b-db, 5, 2, 3, 21, 88, 161, 90, 165, 165, 90, 1, 0.794618
111, 2, bw, attraction, a-b-db, 2, 1, 3, 22, 60, 135, 135, 60, 59, 134, 2, 2.23237
111, 2, bw, attraction, a-b-db, 2, 1, 3, 22, 60, 135, 135, 60, 59, 134, 1, 0.709379
111, 2, bw, catch, NA, 999, 999, 3, 23, 173, 142, 97, 98, 123, 132, 1, 0.734598
111, 2, bw, catch, NA, 999, 999, 3, 23, 173, 142, 97, 98, 123, 132, 2, 0.464266
111, 2, bw, filler, NA, 999, 999, 3, 24, 146, 192, 129, 103, 192, 139, 1, 1.14739
111, 2, bw, filler, NA, 999, 999, 3, 24, 146, 192, 129, 103, 192, 139, 2, 0.372294
111, 2, bw, attraction, a-b-da, 5, 3, 3, 25, 120, 195, 190, 117, 195, 120, 2, 3.83551
111, 2, bw, attraction, a-b-da, 5, 3, 3, 25, 120, 195, 190, 117, 195, 120, 1, 0.296296
111, 2, bw, filler, NA, 999, 999, 3, 26, 129, 131, 148, 189, 99, 116, 2, 1.07418
111, 2, bw, filler, NA, 999, 999, 3, 26, 129, 131, 148, 189, 99, 116, 3, 0.637811
111, 2, bw, attraction, a-b-db, 5, 1, 3, 27, 58, 132, 135, 60, 60, 135, 3, 2.17816
111, 2, bw, attraction, a-b-db, 5, 1, 3, 27, 58, 132, 135, 60, 60, 135, 1, 0.361411
111, 2, bw, catch, NA, 999, 999, 3, 28, 104, 151, 172, 143, 131, 64, 2, 0.976642
111, 2, bw, catch, NA, 999, 999, 3, 28, 104, 151, 172, 143, 131, 64, 3, 0.360341
111, 2, bw, attraction, a-b-da, 2, 2, 3, 29, 163, 89, 165, 90, 90, 165, 3, 1.55144
111, 2, bw, attraction, a-b-da, 2, 2, 3, 29, 163, 89, 165, 90, 90, 165, 1, 0.312251
111, 2, bw, filler, NA, 999, 999, 3, 30, 56, 94, 89, 181, 106, 193, 3, 0.777503
111, 2, bw, filler, NA, 999, 999, 3, 30, 56, 94, 89, 181, 106, 193, 1, 0.545232
111, 2, bw, filler, NA, 999, 999, 3, 31, 126, 90, 102, 178, 60, 112, 2, 1.08902
111, 2, bw, filler, NA, 999, 999, 3, 31, 126, 90, 102, 178, 60, 112, 3, 0.795923
111, 2, bw, attraction, a-b-da, 9, 2, 3, 32, 165, 90, 90, 165, 157, 86, 2, 1.57778
111, 2, bw, attraction, a-b-da, 9, 2, 3, 32, 165, 90, 90, 165, 157, 86, 1, 0.305097
111, 2, bw, filler, NA, 999, 999, 3, 33, 146, 112, 80, 144, 169, 72, 1, 0.986867
111, 2, bw, filler, NA, 999, 999, 3, 33, 146, 112, 80, 144, 169, 72, 2, 0.378793
111, 2, bw, filler, NA, 999, 999, 3, 34, 64, 58, 79, 122, 129, 162, 3, 0.729289
111, 2, bw, filler, NA, 999, 999, 3, 34, 64, 58, 79, 122, 129, 162, 1, 0.466794
111, 2, bw, attraction, a-b-da, 14, 2, 3, 35, 153, 83, 165, 90, 90, 165, 3, 1.08597
111, 2, bw, attraction, a-b-da, 14, 2, 3, 35, 153, 83, 165, 90, 90, 165, 1, 0.3696
111, 2, bw, attraction, a-b-db, 2, 3, 3, 36, 195, 120, 120, 195, 119, 193, 2, 2.05671
111, 2, bw, attraction, a-b-db, 2, 3, 3, 36, 195, 120, 120, 195, 119, 193, 1, 0.692724
111, 2, bw, attraction, a-b-db, 9, 2, 3, 37, 86, 157, 165, 90, 90, 165, 3, 2.72655
111, 2, bw, attraction, a-b-db, 9, 2, 3, 37, 86, 157, 165, 90, 90, 165, 1, 0.375581
111, 2, bw, filler, NA, 999, 999, 4, 1, 64, 123, 76, 139, 81, 103, 2, 1.60611
111, 2, bw, filler, NA, 999, 999, 4, 1, 64, 123, 76, 139, 81, 103, 1, 1.36425
111, 2, bw, attraction, a-b-da, 14, 2, 4, 2, 153, 83, 90, 165, 165, 90, 2, 1.11517
111, 2, bw, attraction, a-b-da, 14, 2, 4, 2, 153, 83, 90, 165, 165, 90, 1, 0.661398
111, 2, bw, attraction, a-b-da, 2, 3, 4, 3, 120, 195, 195, 120, 193, 119, 3, 1.68857
111, 2, bw, attraction, a-b-da, 2, 3, 4, 3, 120, 195, 195, 120, 193, 119, 2, 0.387256
111, 2, bw, attraction, a-b-db, 2, 1, 4, 4, 135, 60, 59, 134, 60, 135, 3, 3.78587
111, 2, bw, attraction, a-b-db, 2, 1, 4, 4, 135, 60, 59, 134, 60, 135, 1, 0.472496
111, 2, bw, attraction, a-b-da, 14, 1, 4, 5, 60, 135, 135, 60, 125, 56, 1, 1.02773
111, 2, bw, attraction, a-b-da, 14, 1, 4, 5, 60, 135, 135, 60, 125, 56, 2, 0.329279
111, 2, bw, attraction, a-b-db, 9, 2, 4, 6, 165, 90, 86, 157, 90, 165, 3, 3.32187
111, 2, bw, attraction, a-b-db, 9, 2, 4, 6, 165, 90, 86, 157, 90, 165, 2, 1.21071
111, 2, bw, attraction, a-b-db, 14, 3, 4, 7, 195, 120, 120, 195, 111, 181, 1, 0.663618
111, 2, bw, attraction, a-b-db, 14, 3, 4, 7, 195, 120, 120, 195, 111, 181, 3, 1.46805
111, 2, bw, attraction, a-b-db, 5, 3, 4, 8, 117, 190, 120, 195, 195, 120, 3, 1.12689
111, 2, bw, attraction, a-b-db, 5, 3, 4, 8, 117, 190, 120, 195, 195, 120, 1, 0.384575
111, 2, bw, filler, NA, 999, 999, 4, 9, 169, 97, 136, 163, 72, 172, 2, 0.998918
111, 2, bw, filler, NA, 999, 999, 4, 9, 169, 97, 136, 163, 72, 172, 3, 0.757916
111, 2, bw, attraction, a-b-db, 5, 2, 4, 10, 90, 165, 88, 161, 165, 90, 3, 1.18904
111, 2, bw, attraction, a-b-db, 5, 2, 4, 10, 90, 165, 88, 161, 165, 90, 1, 0.411945
111, 2, bw, filler, NA, 999, 999, 4, 11, 96, 137, 158, 175, 113, 170, 2, 0.79307
111, 2, bw, filler, NA, 999, 999, 4, 11, 96, 137, 158, 175, 113, 170, 1, 0.320121
111, 2, bw, filler, NA, 999, 999, 4, 12, 98, 115, 183, 104, 57, 106, 2, 0.721383
111, 2, bw, filler, NA, 999, 999, 4, 12, 98, 115, 183, 104, 57, 106, 3, 0.411127
111, 2, bw, attraction, a-b-da, 5, 2, 4, 13, 161, 88, 165, 90, 90, 165, 3, 1.36029
111, 2, bw, attraction, a-b-da, 5, 2, 4, 13, 161, 88, 165, 90, 90, 165, 2, 0.984456
111, 2, bw, attraction, a-b-da, 2, 2, 4, 14, 90, 165, 163, 89, 165, 90, 2, 1.39077
111, 2, bw, attraction, a-b-da, 2, 2, 4, 14, 90, 165, 163, 89, 165, 90, 1, 0.365597
111, 2, bw, attraction, a-b-db, 9, 1, 4, 15, 135, 60, 60, 135, 57, 129, 2, 1.90888
111, 2, bw, attraction, a-b-db, 9, 1, 4, 15, 135, 60, 60, 135, 57, 129, 1, 0.67086
111, 2, bw, filler, NA, 999, 999, 4, 16, 169, 167, 64, 165, 152, 101, 1, 0.641851
111, 2, bw, filler, NA, 999, 999, 4, 16, 169, 167, 64, 165, 152, 101, 2, 0.494965
111, 2, bw, attraction, a-b-da, 9, 1, 4, 17, 60, 135, 129, 57, 135, 60, 3, 3.41676
111, 2, bw, attraction, a-b-da, 9, 1, 4, 17, 60, 135, 129, 57, 135, 60, 1, 0.358416
111, 2, bw, filler, NA, 999, 999, 4, 18, 137, 135, 130, 139, 194, 178, 3, 2.14156
111, 2, bw, filler, NA, 999, 999, 4, 18, 137, 135, 130, 139, 194, 178, 1, 0.494156
111, 2, bw, catch, NA, 999, 999, 4, 19, 188, 127, 165, 90, 129, 66, 1, 0.895944
111, 2, bw, catch, NA, 999, 999, 4, 19, 188, 127, 165, 90, 129, 66, 3, 0.498912
111, 2, bw, attraction, a-b-da, 9, 3, 4, 20, 186, 114, 120, 195, 195, 120, 2, 1.99676
111, 2, bw, attraction, a-b-da, 9, 3, 4, 20, 186, 114, 120, 195, 195, 120, 1, 0.491401
111, 2, bw, filler, NA, 999, 999, 4, 21, 176, 122, 106, 117, 112, 104, 1, 0.925151
111, 2, bw, filler, NA, 999, 999, 4, 21, 176, 122, 106, 117, 112, 104, 3, 0.862881
111, 2, bw, attraction, a-b-db, 9, 3, 4, 22, 120, 195, 114, 186, 195, 120, 3, 0.913923
111, 2, bw, attraction, a-b-db, 9, 3, 4, 22, 120, 195, 114, 186, 195, 120, 2, 0.428299
111, 2, bw, catch, NA, 999, 999, 4, 23, 120, 75, 185, 130, 92, 163, 2, 0.936919
111, 2, bw, catch, NA, 999, 999, 4, 23, 120, 75, 185, 130, 92, 163, 1, 0.410367
111, 2, bw, filler, NA, 999, 999, 4, 24, 116, 123, 193, 117, 135, 93, 2, 0.911548
111, 2, bw, filler, NA, 999, 999, 4, 24, 116, 123, 193, 117, 135, 93, 3, 1.31393
111, 2, bw, filler, NA, 999, 999, 4, 25, 117, 72, 74, 119, 134, 57, 2, 1.01078
111, 2, bw, filler, NA, 999, 999, 4, 25, 117, 72, 74, 119, 134, 57, 3, 0.50514
111, 2, bw, attraction, a-b-da, 2, 1, 4, 26, 134, 59, 60, 135, 135, 60, 1, 2.78698
111, 2, bw, attraction, a-b-da, 2, 1, 4, 26, 134, 59, 60, 135, 135, 60, 2, 1.178
111, 2, bw, attraction, a-b-da, 5, 3, 4, 27, 120, 195, 190, 117, 195, 120, 2, 1.00024
111, 2, bw, attraction, a-b-da, 5, 3, 4, 27, 120, 195, 190, 117, 195, 120, 1, 0.37522
111, 2, bw, catch, NA, 999, 999, 4, 28, 122, 193, 144, 111, 106, 89, 1, 1.22164
111, 2, bw, catch, NA, 999, 999, 4, 28, 122, 193, 144, 111, 106, 89, 3, 0.723366
111, 2, bw, attraction, a-b-db, 14, 1, 4, 29, 56, 125, 135, 60, 60, 135, 3, 1.45966
111, 2, bw, attraction, a-b-db, 14, 1, 4, 29, 56, 125, 135, 60, 60, 135, 1, 0.551895
111, 2, bw, attraction, a-b-db, 2, 2, 4, 30, 165, 90, 89, 163, 90, 165, 3, 1.31159
111, 2, bw, attraction, a-b-db, 2, 2, 4, 30, 165, 90, 89, 163, 90, 165, 1, 0.577821
111, 2, bw, attraction, a-b-db, 2, 3, 4, 31, 195, 120, 119, 193, 120, 195, 3, 1.47224
111, 2, bw, attraction, a-b-db, 2, 3, 4, 31, 195, 120, 119, 193, 120, 195, 1, 0.323749
111, 2, bw, attraction, a-b-da, 5, 1, 4, 32, 135, 60, 132, 58, 60, 135, 3, 0.812265
111, 2, bw, attraction, a-b-da, 5, 1, 4, 32, 135, 60, 132, 58, 60, 135, 2, 0.682585
111, 2, bw, attraction, a-b-db, 14, 2, 4, 33, 165, 90, 83, 153, 90, 165, 3, 1.65312
111, 2, bw, attraction, a-b-db, 14, 2, 4, 33, 165, 90, 83, 153, 90, 165, 2, 0.417872
111, 2, bw, attraction, a-b-da, 14, 3, 4, 34, 195, 120, 120, 195, 181, 111, 2, 1.03902
111, 2, bw, attraction, a-b-da, 14, 3, 4, 34, 195, 120, 120, 195, 181, 111, 3, 0.35596
111, 2, bw, attraction, a-b-da, 9, 2, 4, 35, 165, 90, 90, 165, 157, 86, 1, 0.731812
111, 2, bw, attraction, a-b-da, 9, 2, 4, 35, 165, 90, 90, 165, 157, 86, 2, 0.341626
111, 2, bw, attraction, a-b-db, 5, 1, 4, 36, 135, 60, 58, 132, 60, 135, 3, 1.3654
111, 2, bw, attraction, a-b-db, 5, 1, 4, 36, 135, 60, 58, 132, 60, 135, 1, 0.733632
111, 2, bw, filler, NA, 999, 999, 4, 37, 65, 66, 109, 115, 166, 163, 3, 0.742009
111, 2, bw, filler, NA, 999, 999, 4, 37, 65, 66, 109, 115, 166, 163, 1, 0.535037
111, 2, bw, attraction, a-b-da, 14, 1, 5, 1, 135, 60, 60, 135, 125, 56, 1, 13.9821
111, 2, bw, attraction, a-b-da, 14, 1, 5, 1, 135, 60, 60, 135, 125, 56, 3, 0.897737
111, 2, bw, attraction, a-b-db, 5, 1, 5, 2, 135, 60, 60, 135, 58, 132, 1, 0.779466
111, 2, bw, attraction, a-b-db, 5, 1, 5, 2, 135, 60, 60, 135, 58, 132, 2, 0.547128
111, 2, bw, filler, NA, 999, 999, 5, 3, 77, 190, 184, 180, 73, 98, 2, 0.882947
111, 2, bw, filler, NA, 999, 999, 5, 3, 77, 190, 184, 180, 73, 98, 3, 0.446671
111, 2, bw, attraction, a-b-da, 9, 1, 5, 4, 135, 60, 129, 57, 60, 135, 3, 0.93856
111, 2, bw, attraction, a-b-da, 9, 1, 5, 4, 135, 60, 129, 57, 60, 135, 2, 0.443435
111, 2, bw, attraction, a-b-db, 2, 2, 5, 5, 89, 163, 165, 90, 90, 165, 2, 1.91115
111, 2, bw, attraction, a-b-db, 2, 2, 5, 5, 89, 163, 165, 90, 90, 165, 1, 0.313396
111, 2, bw, filler, NA, 999, 999, 5, 6, 170, 193, 90, 148, 65, 75, 1, 1.0824
111, 2, bw, filler, NA, 999, 999, 5, 6, 170, 193, 90, 148, 65, 75, 3, 0.46208
111, 2, bw, attraction, a-b-db, 9, 1, 5, 7, 57, 129, 135, 60, 60, 135, 2, 0.66511
111, 2, bw, attraction, a-b-db, 9, 1, 5, 7, 57, 129, 135, 60, 60, 135, 1, 0.405646
111, 2, bw, attraction, a-b-db, 5, 3, 5, 8, 120, 195, 117, 190, 195, 120, 3, 1.47546
111, 2, bw, attraction, a-b-db, 5, 3, 5, 8, 120, 195, 117, 190, 195, 120, 2, 0.302991
111, 2, bw, attraction, a-b-da, 9, 2, 5, 9, 157, 86, 90, 165, 165, 90, 3, 0.864932
111, 2, bw, attraction, a-b-da, 9, 2, 5, 9, 157, 86, 90, 165, 165, 90, 2, 0.405288
111, 2, bw, filler, NA, 999, 999, 5, 10, 127, 66, 76, 99, 86, 120, 3, 2.64302
111, 2, bw, filler, NA, 999, 999, 5, 10, 127, 66, 76, 99, 86, 120, 2, 0.335434
111, 2, bw, attraction, a-b-db, 2, 1, 5, 11, 60, 135, 59, 134, 135, 60, 2, 1.94399
111, 2, bw, attraction, a-b-db, 2, 1, 5, 11, 60, 135, 59, 134, 135, 60, 3, 0.632666
111, 2, bw, attraction, a-b-db, 14, 3, 5, 12, 120, 195, 111, 181, 195, 120, 3, 1.52512
111, 2, bw, attraction, a-b-db, 14, 3, 5, 12, 120, 195, 111, 181, 195, 120, 2, 0.406672
111, 2, bw, attraction, a-b-da, 9, 3, 5, 13, 186, 114, 195, 120, 120, 195, 2, 1.49167
111, 2, bw, attraction, a-b-da, 9, 3, 5, 13, 186, 114, 195, 120, 120, 195, 1, 0.374529
111, 2, bw, attraction, a-b-da, 14, 2, 5, 14, 90, 165, 153, 83, 165, 90, 3, 1.06106
111, 2, bw, attraction, a-b-da, 14, 2, 5, 14, 90, 165, 153, 83, 165, 90, 2, 0.337334
111, 2, bw, catch, NA, 999, 999, 5, 15, 97, 98, 135, 120, 172, 143, 3, 0.873873
111, 2, bw, catch, NA, 999, 999, 5, 15, 97, 98, 135, 120, 172, 143, 1, 0.381541
111, 2, bw, filler, NA, 999, 999, 5, 16, 153, 194, 94, 155, 101, 165, 1, 1.05998
111, 2, bw, filler, NA, 999, 999, 5, 16, 153, 194, 94, 155, 101, 165, 2, 0.432482
111, 2, bw, filler, NA, 999, 999, 5, 17, 97, 112, 172, 193, 75, 82, 2, 0.812772
111, 2, bw, filler, NA, 999, 999, 5, 17, 97, 112, 172, 193, 75, 82, 3, 0.443204
111, 2, bw, filler, NA, 999, 999, 5, 18, 192, 169, 60, 58, 191, 166, 3, 2.43903
111, 2, bw, filler, NA, 999, 999, 5, 18, 192, 169, 60, 58, 191, 166, 2, 0.403732
111, 2, bw, filler, NA, 999, 999, 5, 19, 164, 146, 85, 145, 62, 147, 1, 2.16148
111, 2, bw, filler, NA, 999, 999, 5, 19, 164, 146, 85, 145, 62, 147, 3, 0.393313
111, 2, bw, attraction, a-b-db, 2, 3, 5, 20, 120, 195, 195, 120, 119, 193, 2, 3.67117
111, 2, bw, attraction, a-b-db, 2, 3, 5, 20, 120, 195, 195, 120, 119, 193, 3, 0.442634
111, 2, bw, attraction, a-b-da, 2, 1, 5, 21, 60, 135, 134, 59, 135, 60, 2, 1.65453
111, 2, bw, attraction, a-b-da, 2, 1, 5, 21, 60, 135, 134, 59, 135, 60, 1, 0.610543
111, 2, bw, attraction, a-b-db, 9, 3, 5, 22, 195, 120, 120, 195, 114, 186, 1, 1.06374
111, 2, bw, attraction, a-b-db, 9, 3, 5, 22, 195, 120, 120, 195, 114, 186, 2, 0.316085
111, 2, bw, filler, NA, 999, 999, 5, 23, 134, 129, 146, 111, 161, 115, 3, 1.88513
111, 2, bw, filler, NA, 999, 999, 5, 23, 134, 129, 146, 111, 161, 115, 1, 0.464602
111, 2, bw, attraction, a-b-da, 2, 3, 5, 24, 120, 195, 193, 119, 195, 120, 2, 1.77969
111, 2, bw, attraction, a-b-da, 2, 3, 5, 24, 120, 195, 193, 119, 195, 120, 1, 0.34713
111, 2, bw, attraction, a-b-da, 2, 2, 5, 25, 90, 165, 165, 90, 163, 89, 2, 2.68297
111, 2, bw, attraction, a-b-da, 2, 2, 5, 25, 90, 165, 165, 90, 163, 89, 1, 1.02203
111, 2, bw, attraction, a-b-da, 5, 1, 5, 26, 132, 58, 60, 135, 135, 60, 1, 1.13893
111, 2, bw, attraction, a-b-da, 5, 1, 5, 26, 132, 58, 60, 135, 135, 60, 2, 0.579922
111, 2, bw, attraction, a-b-da, 5, 2, 5, 27, 161, 88, 165, 90, 90, 165, 3, 1.56233
111, 2, bw, attraction, a-b-da, 5, 2, 5, 27, 161, 88, 165, 90, 90, 165, 1, 0.906596
111, 2, bw, attraction, a-b-db, 14, 2, 5, 28, 83, 153, 165, 90, 90, 165, 3, 3.48362
111, 2, bw, attraction, a-b-db, 14, 2, 5, 28, 83, 153, 165, 90, 90, 165, 1, 0.574409
111, 2, bw, filler, NA, 999, 999, 5, 29, 75, 72, 97, 86, 163, 160, 3, 0.788872
111, 2, bw, filler, NA, 999, 999, 5, 29, 75, 72, 97, 86, 163, 160, 1, 0.451904
111, 2, bw, filler, NA, 999, 999, 5, 30, 164, 57, 175, 65, 116, 66, 2, 1.63167
111, 2, bw, filler, NA, 999, 999, 5, 30, 164, 57, 175, 65, 116, 66, 3, 1.2693
111, 2, bw, attraction, a-b-da, 14, 3, 5, 31, 120, 195, 181, 111, 195, 120, 3, 1.51223
111, 2, bw, attraction, a-b-da, 14, 3, 5, 31, 120, 195, 181, 111, 195, 120, 2, 0.458164
111, 2, bw, attraction, a-b-db, 9, 2, 5, 32, 86, 157, 90, 165, 165, 90, 3, 1.48532
111, 2, bw, attraction, a-b-db, 9, 2, 5, 32, 86, 157, 90, 165, 165, 90, 1, 0.432798
111, 2, bw, catch, NA, 999, 999, 5, 33, 63, 132, 140, 175, 107, 148, 2, 0.717302
111, 2, bw, catch, NA, 999, 999, 5, 33, 63, 132, 140, 175, 107, 148, 1, 0.695981
111, 2, bw, attraction, a-b-da, 5, 3, 5, 34, 190, 117, 120, 195, 195, 120, 2, 1.52151
111, 2, bw, attraction, a-b-da, 5, 3, 5, 34, 190, 117, 120, 195, 195, 120, 1, 0.474976
111, 2, bw, catch, NA, 999, 999, 5, 35, 121, 74, 136, 179, 133, 122, 2, 0.989493
111, 2, bw, catch, NA, 999, 999, 5, 35, 121, 74, 136, 179, 133, 122, 1, 0.436832
111, 2, bw, attraction, a-b-db, 14, 1, 5, 36, 56, 125, 60, 135, 135, 60, 3, 1.0409
111, 2, bw, attraction, a-b-db, 14, 1, 5, 36, 56, 125, 60, 135, 135, 60, 1, 0.438008
111, 2, bw, attraction, a-b-db, 5, 2, 5, 37, 165, 90, 90, 165, 88, 161, 1, 1.01864
111, 2, bw, attraction, a-b-db, 5, 2, 5, 37, 165, 90, 90, 165, 88, 161, 2, 0.376612
111, 2, bw, filler, NA, 999, 999, 6, 1, 57, 75, 178, 162, 154, 67, 2, 0.615084
111, 2, bw, filler, NA, 999, 999, 6, 1, 57, 75, 178, 162, 154, 67, 1, 0.341624
111, 2, bw, filler, NA, 999, 999, 6, 2, 152, 73, 153, 169, 192, 185, 3, 0.605389
111, 2, bw, filler, NA, 999, 999, 6, 2, 152, 73, 153, 169, 192, 185, 1, 1.27603
111, 2, bw, attraction, a-b-da, 14, 1, 6, 3, 125, 56, 60, 135, 135, 60, 2, 1.20604
111, 2, bw, attraction, a-b-da, 14, 1, 6, 3, 125, 56, 60, 135, 135, 60, 1, 0.300362
111, 2, bw, filler, NA, 999, 999, 6, 4, 93, 142, 184, 66, 87, 90, 1, 0.902166
111, 2, bw, filler, NA, 999, 999, 6, 4, 93, 142, 184, 66, 87, 90, 3, 1.51327
111, 2, bw, filler, NA, 999, 999, 6, 5, 141, 170, 159, 170, 182, 174, 2, 1.14598
111, 2, bw, filler, NA, 999, 999, 6, 5, 141, 170, 159, 170, 182, 174, 1, 0.499089
111, 2, bw, attraction, a-b-db, 9, 1, 6, 6, 135, 60, 60, 135, 57, 129, 1, 0.972719
111, 2, bw, attraction, a-b-db, 9, 1, 6, 6, 135, 60, 60, 135, 57, 129, 3, 1.13253
111, 2, bw, attraction, a-b-db, 2, 1, 6, 7, 60, 135, 59, 134, 135, 60, 2, 1.21263
111, 2, bw, attraction, a-b-db, 2, 1, 6, 7, 60, 135, 59, 134, 135, 60, 3, 0.442933
111, 2, bw, attraction, a-b-da, 2, 2, 6, 8, 90, 165, 165, 90, 163, 89, 3, 2.32694
111, 2, bw, attraction, a-b-da, 2, 2, 6, 8, 90, 165, 165, 90, 163, 89, 1, 0.335958
111, 2, bw, attraction, a-b-db, 5, 1, 6, 9, 135, 60, 60, 135, 58, 132, 1, 1.15249
111, 2, bw, attraction, a-b-db, 5, 1, 6, 9, 135, 60, 60, 135, 58, 132, 2, 0.55343
111, 2, bw, attraction, a-b-db, 5, 2, 6, 10, 90, 165, 88, 161, 165, 90, 3, 1.92122
111, 2, bw, attraction, a-b-db, 5, 2, 6, 10, 90, 165, 88, 161, 165, 90, 1, 0.562523
111, 2, bw, attraction, a-b-db, 2, 3, 6, 11, 195, 120, 119, 193, 120, 195, 2, 1.85779
111, 2, bw, attraction, a-b-db, 2, 3, 6, 11, 195, 120, 119, 193, 120, 195, 1, 0.445702
111, 2, bw, catch, NA, 999, 999, 6, 12, 131, 124, 95, 100, 151, 164, 3, 0.921618
111, 2, bw, catch, NA, 999, 999, 6, 12, 131, 124, 95, 100, 151, 164, 2, 0.3152
111, 2, bw, attraction, a-b-da, 9, 2, 6, 13, 90, 165, 165, 90, 157, 86, 2, 2.1804
111, 2, bw, attraction, a-b-da, 9, 2, 6, 13, 90, 165, 165, 90, 157, 86, 1, 0.507704
111, 2, bw, catch, NA, 999, 999, 6, 14, 114, 81, 183, 132, 160, 95, 2, 0.612922
111, 2, bw, catch, NA, 999, 999, 6, 14, 114, 81, 183, 132, 160, 95, 1, 0.547318
111, 2, bw, filler, NA, 999, 999, 6, 15, 102, 177, 72, 192, 142, 122, 3, 0.73921
111, 2, bw, filler, NA, 999, 999, 6, 15, 102, 177, 72, 192, 142, 122, 1, 0.524119
111, 2, bw, filler, NA, 999, 999, 6, 16, 194, 157, 165, 186, 175, 68, 2, 0.812597
111, 2, bw, filler, NA, 999, 999, 6, 16, 194, 157, 165, 186, 175, 68, 3, 0.47493
111, 2, bw, attraction, a-b-da, 5, 2, 6, 17, 90, 165, 161, 88, 165, 90, 3, 1.20546
111, 2, bw, attraction, a-b-da, 5, 2, 6, 17, 90, 165, 161, 88, 165, 90, 1, 0.971681
111, 2, bw, attraction, a-b-da, 5, 1, 6, 18, 132, 58, 135, 60, 60, 135, 3, 2.00255
111, 2, bw, attraction, a-b-da, 5, 1, 6, 18, 132, 58, 135, 60, 60, 135, 1, 0.50527
111, 2, bw, filler, NA, 999, 999, 6, 19, 112, 185, 185, 78, 120, 57, 1, 0.747088
111, 2, bw, filler, NA, 999, 999, 6, 19, 112, 185, 185, 78, 120, 57, 3, 0.484314
111, 2, bw, attraction, a-b-da, 9, 1, 6, 20, 60, 135, 135, 60, 129, 57, 3, 1.03067
111, 2, bw, attraction, a-b-da, 9, 1, 6, 20, 60, 135, 135, 60, 129, 57, 1, 0.50023
111, 2, bw, attraction, a-b-db, 2, 2, 6, 21, 90, 165, 89, 163, 165, 90, 3, 1.84611
111, 2, bw, attraction, a-b-db, 2, 2, 6, 21, 90, 165, 89, 163, 165, 90, 1, 0.594776
111, 2, bw, attraction, a-b-db, 14, 3, 6, 22, 195, 120, 111, 181, 120, 195, 1, 0.968628
111, 2, bw, attraction, a-b-db, 14, 3, 6, 22, 195, 120, 111, 181, 120, 195, 2, 0.448792
111, 2, bw, attraction, a-b-da, 2, 1, 6, 23, 135, 60, 60, 135, 134, 59, 2, 0.93282
111, 2, bw, attraction, a-b-da, 2, 1, 6, 23, 135, 60, 60, 135, 134, 59, 1, 0.758368
111, 2, bw, attraction, a-b-da, 2, 3, 6, 24, 195, 120, 120, 195, 193, 119, 2, 0.853341
111, 2, bw, attraction, a-b-da, 2, 3, 6, 24, 195, 120, 120, 195, 193, 119, 1, 0.329793
111, 2, bw, filler, NA, 999, 999, 6, 25, 106, 190, 150, 100, 72, 66, 1, 1.01039
111, 2, bw, filler, NA, 999, 999, 6, 25, 106, 190, 150, 100, 72, 66, 3, 0.680657
111, 2, bw, attraction, a-b-db, 5, 3, 6, 26, 120, 195, 117, 190, 195, 120, 3, 0.947068
111, 2, bw, attraction, a-b-db, 5, 3, 6, 26, 120, 195, 117, 190, 195, 120, 1, 0.380116
111, 2, bw, attraction, a-b-db, 14, 1, 6, 27, 135, 60, 56, 125, 60, 135, 2, 1.31445
111, 2, bw, attraction, a-b-db, 14, 1, 6, 27, 135, 60, 56, 125, 60, 135, 1, 1.48475
111, 2, bw, attraction, a-b-da, 9, 3, 6, 28, 186, 114, 195, 120, 120, 195, 3, 1.45484
111, 2, bw, attraction, a-b-da, 9, 3, 6, 28, 186, 114, 195, 120, 120, 195, 1, 0.419147
111, 2, bw, attraction, a-b-da, 5, 3, 6, 29, 120, 195, 195, 120, 190, 117, 3, 2.12828
111, 2, bw, attraction, a-b-da, 5, 3, 6, 29, 120, 195, 195, 120, 190, 117, 1, 0.52148
111, 2, bw, attraction, a-b-db, 9, 3, 6, 30, 120, 195, 195, 120, 114, 186, 2, 0.930562
111, 2, bw, attraction, a-b-db, 9, 3, 6, 30, 120, 195, 195, 120, 114, 186, 3, 0.364284
111, 2, bw, filler, NA, 999, 999, 6, 31, 139, 88, 158, 74, 142, 81, 2, 1.57152
111, 2, bw, filler, NA, 999, 999, 6, 31, 139, 88, 158, 74, 142, 81, 3, 1.08291
111, 2, bw, catch, NA, 999, 999, 6, 32, 133, 122, 180, 135, 64, 131, 2, 1.62934
111, 2, bw, catch, NA, 999, 999, 6, 32, 133, 122, 180, 135, 64, 131, 3, 0.842817
111, 2, bw, attraction, a-b-da, 14, 2, 6, 33, 165, 90, 90, 165, 153, 83, 2, 0.902348
111, 2, bw, attraction, a-b-da, 14, 2, 6, 33, 165, 90, 90, 165, 153, 83, 3, 0.52139
111, 2, bw, filler, NA, 999, 999, 6, 34, 99, 97, 111, 185, 169, 154, 3, 0.834611
111, 2, bw, filler, NA, 999, 999, 6, 34, 99, 97, 111, 185, 169, 154, 1, 0.648181
111, 2, bw, attraction, a-b-db, 14, 2, 6, 35, 165, 90, 90, 165, 83, 153, 2, 1.86
111, 2, bw, attraction, a-b-db, 14, 2, 6, 35, 165, 90, 90, 165, 83, 153, 3, 0.392038
111, 2, bw, attraction, a-b-db, 9, 2, 6, 36, 165, 90, 90, 165, 86, 157, 1, 1.0218
111, 2, bw, attraction, a-b-db, 9, 2, 6, 36, 165, 90, 90, 165, 86, 157, 3, 0.819453
111, 2, bw, attraction, a-b-da, 14, 3, 6, 37, 181, 111, 120, 195, 195, 120, 2, 1.65653
111, 2, bw, attraction, a-b-da, 14, 3, 6, 37, 181, 111, 120, 195, 195, 120, 1, 0.348625
111, 2, bw, attraction, a-b-db, 14, 3, 7, 1, 195, 120, 111, 181, 120, 195, 1, 1.73254
111, 2, bw, attraction, a-b-db, 14, 3, 7, 1, 195, 120, 111, 181, 120, 195, 2, 0.38186
111, 2, bw, filler, NA, 999, 999, 7, 2, 86, 180, 85, 150, 137, 134, 1, 1.51633
111, 2, bw, filler, NA, 999, 999, 7, 2, 86, 180, 85, 150, 137, 134, 2, 0.41455
111, 2, bw, filler, NA, 999, 999, 7, 3, 175, 86, 119, 59, 185, 192, 3, 0.723625
111, 2, bw, filler, NA, 999, 999, 7, 3, 175, 86, 119, 59, 185, 192, 2, 0.373401
111, 2, bw, attraction, a-b-db, 5, 1, 7, 4, 60, 135, 58, 132, 135, 60, 1, 1.21987
111, 2, bw, attraction, a-b-db, 5, 1, 7, 4, 60, 135, 58, 132, 135, 60, 3, 0.618186
111, 2, bw, attraction, a-b-db, 5, 3, 7, 5, 195, 120, 120, 195, 117, 190, 1, 0.927373
111, 2, bw, attraction, a-b-db, 5, 3, 7, 5, 195, 120, 120, 195, 117, 190, 2, 0.46501
111, 2, bw, filler, NA, 999, 999, 7, 6, 62, 192, 159, 102, 75, 125, 2, 0.804096
111, 2, bw, filler, NA, 999, 999, 7, 6, 62, 192, 159, 102, 75, 125, 3, 0.530476
111, 2, bw, filler, NA, 999, 999, 7, 7, 75, 94, 87, 83, 131, 186, 3, 1.10691
111, 2, bw, filler, NA, 999, 999, 7, 7, 75, 94, 87, 83, 131, 186, 1, 0.461155
111, 2, bw, catch, NA, 999, 999, 7, 8, 106, 149, 191, 124, 79, 116, 2, 1.56827
111, 2, bw, catch, NA, 999, 999, 7, 8, 106, 149, 191, 124, 79, 116, 3, 0.584505
111, 2, bw, attraction, a-b-db, 2, 1, 7, 9, 59, 134, 60, 135, 135, 60, 2, 2.68694
111, 2, bw, attraction, a-b-db, 2, 1, 7, 9, 59, 134, 60, 135, 135, 60, 1, 0.426111
111, 2, bw, catch, NA, 999, 999, 7, 10, 107, 148, 186, 129, 109, 86, 2, 0.622466
111, 2, bw, catch, NA, 999, 999, 7, 10, 107, 148, 186, 129, 109, 86, 3, 0.412359
111, 2, bw, attraction, a-b-db, 9, 3, 7, 11, 120, 195, 114, 186, 195, 120, 3, 2.56164
111, 2, bw, attraction, a-b-db, 9, 3, 7, 11, 120, 195, 114, 186, 195, 120, 2, 0.377264
111, 2, bw, attraction, a-b-da, 9, 2, 7, 12, 165, 90, 157, 86, 90, 165, 3, 1.47974
111, 2, bw, attraction, a-b-da, 9, 2, 7, 12, 165, 90, 157, 86, 90, 165, 2, 0.435367
111, 2, bw, attraction, a-b-da, 14, 2, 7, 13, 165, 90, 90, 165, 153, 83, 2, 1.45578
111, 2, bw, attraction, a-b-da, 14, 2, 7, 13, 165, 90, 90, 165, 153, 83, 3, 0.444042
111, 2, bw, filler, NA, 999, 999, 7, 14, 174, 62, 181, 144, 119, 168, 2, 0.927712
111, 2, bw, filler, NA, 999, 999, 7, 14, 174, 62, 181, 144, 119, 168, 1, 0.417561
111, 2, bw, attraction, a-b-da, 14, 3, 7, 15, 120, 195, 181, 111, 195, 120, 1, 1.44648
111, 2, bw, attraction, a-b-da, 14, 3, 7, 15, 120, 195, 181, 111, 195, 120, 2, 0.459481
111, 2, bw, filler, NA, 999, 999, 7, 16, 150, 191, 182, 88, 194, 182, 3, 0.950567
111, 2, bw, filler, NA, 999, 999, 7, 16, 150, 191, 182, 88, 194, 182, 2, 0.455616
111, 2, bw, attraction, a-b-da, 5, 2, 7, 17, 161, 88, 165, 90, 90, 165, 2, 1.82744
111, 2, bw, attraction, a-b-da, 5, 2, 7, 17, 161, 88, 165, 90, 90, 165, 1, 0.608791
111, 2, bw, attraction, a-b-db, 2, 3, 7, 18, 119, 193, 120, 195, 195, 120, 2, 1.838
111, 2, bw, attraction, a-b-db, 2, 3, 7, 18, 119, 193, 120, 195, 195, 120, 3, 0.410544
111, 2, bw, attraction, a-b-da, 9, 3, 7, 19, 195, 120, 186, 114, 120, 195, 3, 1.70374
111, 2, bw, attraction, a-b-da, 9, 3, 7, 19, 195, 120, 186, 114, 120, 195, 2, 0.498487
111, 2, bw, attraction, a-b-db, 14, 2, 7, 20, 165, 90, 90, 165, 83, 153, 2, 1.27632
111, 2, bw, attraction, a-b-db, 14, 2, 7, 20, 165, 90, 90, 165, 83, 153, 3, 0.375867
111, 2, bw, filler, NA, 999, 999, 7, 21, 72, 59, 88, 195, 122, 107, 2, 1.01441
111, 2, bw, filler, NA, 999, 999, 7, 21, 72, 59, 88, 195, 122, 107, 1, 0.364817
111, 2, bw, attraction, a-b-db, 9, 2, 7, 22, 90, 165, 165, 90, 86, 157, 3, 1.45185
111, 2, bw, attraction, a-b-db, 9, 2, 7, 22, 90, 165, 165, 90, 86, 157, 2, 0.368855
111, 2, bw, attraction, a-b-da, 2, 3, 7, 23, 195, 120, 193, 119, 120, 195, 1, 1.82383
111, 2, bw, attraction, a-b-da, 2, 3, 7, 23, 195, 120, 193, 119, 120, 195, 3, 0.429214
111, 2, bw, attraction, a-b-da, 9, 1, 7, 24, 135, 60, 129, 57, 60, 135, 3, 1.29768
111, 2, bw, attraction, a-b-da, 9, 1, 7, 24, 135, 60, 129, 57, 60, 135, 2, 0.532572
111, 2, bw, attraction, a-b-da, 14, 1, 7, 25, 60, 135, 135, 60, 125, 56, 1, 1.70101
111, 2, bw, attraction, a-b-da, 14, 1, 7, 25, 60, 135, 135, 60, 125, 56, 3, 0.71979
111, 2, bw, attraction, a-b-da, 5, 3, 7, 26, 120, 195, 190, 117, 195, 120, 1, 1.00087
111, 2, bw, attraction, a-b-da, 5, 3, 7, 26, 120, 195, 190, 117, 195, 120, 2, 0.455878
111, 2, bw, attraction, a-b-db, 9, 1, 7, 27, 57, 129, 135, 60, 60, 135, 2, 0.747698
111, 2, bw, attraction, a-b-db, 9, 1, 7, 27, 57, 129, 135, 60, 60, 135, 1, 0.796753
111, 2, bw, attraction, a-b-da, 2, 1, 7, 28, 135, 60, 134, 59, 60, 135, 3, 2.41853
111, 2, bw, attraction, a-b-da, 2, 1, 7, 28, 135, 60, 134, 59, 60, 135, 2, 0.328368
111, 2, bw, filler, NA, 999, 999, 7, 29, 182, 152, 138, 64, 130, 144, 1, 0.784811
111, 2, bw, filler, NA, 999, 999, 7, 29, 182, 152, 138, 64, 130, 144, 2, 0.832563
111, 2, bw, catch, NA, 999, 999, 7, 30, 121, 134, 114, 81, 157, 158, 3, 0.80495
111, 2, bw, catch, NA, 999, 999, 7, 30, 121, 134, 114, 81, 157, 158, 2, 0.915354
111, 2, bw, attraction, a-b-db, 14, 1, 7, 31, 60, 135, 135, 60, 56, 125, 1, 2.1403
111, 2, bw, attraction, a-b-db, 14, 1, 7, 31, 60, 135, 135, 60, 56, 125, 2, 0.396894
111, 2, bw, filler, NA, 999, 999, 7, 32, 159, 135, 116, 101, 89, 89, 1, 0.762724
111, 2, bw, filler, NA, 999, 999, 7, 32, 159, 135, 116, 101, 89, 89, 3, 0.467111
111, 2, bw, attraction, a-b-db, 5, 2, 7, 33, 165, 90, 88, 161, 90, 165, 3, 0.854261
111, 2, bw, attraction, a-b-db, 5, 2, 7, 33, 165, 90, 88, 161, 90, 165, 1, 0.546585
111, 2, bw, filler, NA, 999, 999, 7, 34, 82, 122, 171, 127, 177, 72, 2, 0.898409
111, 2, bw, filler, NA, 999, 999, 7, 34, 82, 122, 171, 127, 177, 72, 1, 0.413468
111, 2, bw, attraction, a-b-da, 2, 2, 7, 35, 165, 90, 90, 165, 163, 89, 1, 0.922683
111, 2, bw, attraction, a-b-da, 2, 2, 7, 35, 165, 90, 90, 165, 163, 89, 2, 0.396277
111, 2, bw, attraction, a-b-db, 2, 2, 7, 36, 89, 163, 90, 165, 165, 90, 3, 1.66612
111, 2, bw, attraction, a-b-db, 2, 2, 7, 36, 89, 163, 90, 165, 165, 90, 2, 0.478263
111, 2, bw, attraction, a-b-da, 5, 1, 7, 37, 60, 135, 135, 60, 132, 58, 2, 1.0167
111, 2, bw, attraction, a-b-da, 5, 1, 7, 37, 60, 135, 135, 60, 132, 58, 1, 0.455108
111, 2, bw, attraction, a-b-da, 14, 3, 8, 1, 181, 111, 195, 120, 120, 195, 2, 1.6508
111, 2, bw, attraction, a-b-da, 14, 3, 8, 1, 181, 111, 195, 120, 120, 195, 1, 0.823655
111, 2, bw, attraction, a-b-da, 2, 2, 8, 2, 163, 89, 165, 90, 90, 165, 2, 1.35591
111, 2, bw, attraction, a-b-da, 2, 2, 8, 2, 163, 89, 165, 90, 90, 165, 1, 0.460121
111, 2, bw, filler, NA, 999, 999, 8, 3, 194, 83, 180, 90, 111, 82, 2, 1.13538
111, 2, bw, filler, NA, 999, 999, 8, 3, 194, 83, 180, 90, 111, 82, 3, 0.416869
111, 2, bw, filler, NA, 999, 999, 8, 4, 72, 180, 112, 184, 114, 87, 2, 0.982283
111, 2, bw, filler, NA, 999, 999, 8, 4, 72, 180, 112, 184, 114, 87, 3, 1.1898
111, 2, bw, attraction, a-b-da, 2, 1, 8, 5, 60, 135, 134, 59, 135, 60, 3, 1.27524
111, 2, bw, attraction, a-b-da, 2, 1, 8, 5, 60, 135, 134, 59, 135, 60, 2, 0.350957
111, 2, bw, attraction, a-b-da, 5, 2, 8, 6, 165, 90, 90, 165, 161, 88, 2, 0.89467
111, 2, bw, attraction, a-b-da, 5, 2, 8, 6, 165, 90, 90, 165, 161, 88, 3, 0.409798
111, 2, bw, attraction, a-b-db, 5, 2, 8, 7, 90, 165, 165, 90, 88, 161, 3, 1.81507
111, 2, bw, attraction, a-b-db, 5, 2, 8, 7, 90, 165, 165, 90, 88, 161, 2, 1.2449
111, 2, bw, attraction, a-b-da, 14, 2, 8, 8, 165, 90, 153, 83, 90, 165, 3, 1.31258
111, 2, bw, attraction, a-b-da, 14, 2, 8, 8, 165, 90, 153, 83, 90, 165, 2, 0.290735
111, 2, bw, filler, NA, 999, 999, 8, 9, 103, 145, 175, 164, 57, 184, 2, 0.732617
111, 2, bw, filler, NA, 999, 999, 8, 9, 103, 145, 175, 164, 57, 184, 3, 0.894514
111, 2, bw, attraction, a-b-db, 2, 2, 8, 10, 89, 163, 90, 165, 165, 90, 3, 1.41591
111, 2, bw, attraction, a-b-db, 2, 2, 8, 10, 89, 163, 90, 165, 165, 90, 2, 0.310138
111, 2, bw, filler, NA, 999, 999, 8, 11, 106, 74, 69, 186, 136, 92, 3, 1.10336
111, 2, bw, filler, NA, 999, 999, 8, 11, 106, 74, 69, 186, 136, 92, 1, 0.63426
111, 2, bw, attraction, a-b-da, 14, 1, 8, 12, 135, 60, 60, 135, 125, 56, 2, 1.97472
111, 2, bw, attraction, a-b-da, 14, 1, 8, 12, 135, 60, 60, 135, 125, 56, 3, 0.374137
111, 2, bw, filler, NA, 999, 999, 8, 13, 100, 192, 190, 70, 190, 91, 1, 0.812508
111, 2, bw, filler, NA, 999, 999, 8, 13, 100, 192, 190, 70, 190, 91, 2, 0.875063
111, 2, bw, attraction, a-b-da, 9, 3, 8, 14, 120, 195, 195, 120, 186, 114, 2, 1.0852
111, 2, bw, attraction, a-b-da, 9, 3, 8, 14, 120, 195, 195, 120, 186, 114, 3, 0.368963
111, 2, bw, attraction, a-b-db, 2, 3, 8, 15, 120, 195, 195, 120, 119, 193, 1, 0.904037
111, 2, bw, attraction, a-b-db, 2, 3, 8, 15, 120, 195, 195, 120, 119, 193, 2, 0.45841
111, 2, bw, attraction, a-b-da, 9, 1, 8, 16, 135, 60, 129, 57, 60, 135, 2, 0.9335
111, 2, bw, attraction, a-b-da, 9, 1, 8, 16, 135, 60, 129, 57, 60, 135, 3, 0.591177
111, 2, bw, filler, NA, 999, 999, 8, 17, 155, 158, 86, 177, 56, 189, 1, 0.916909
111, 2, bw, filler, NA, 999, 999, 8, 17, 155, 158, 86, 177, 56, 189, 3, 0.919395
111, 2, bw, attraction, a-b-db, 9, 3, 8, 18, 195, 120, 114, 186, 120, 195, 1, 1.42437
111, 2, bw, attraction, a-b-db, 9, 3, 8, 18, 195, 120, 114, 186, 120, 195, 2, 0.405841
111, 2, bw, catch, NA, 999, 999, 8, 19, 172, 143, 108, 87, 163, 92, 1, 1.61969
111, 2, bw, catch, NA, 999, 999, 8, 19, 172, 143, 108, 87, 163, 92, 2, 0.529879
111, 2, bw, filler, NA, 999, 999, 8, 20, 105, 133, 84, 172, 155, 173, 3, 0.738295
111, 2, bw, filler, NA, 999, 999, 8, 20, 105, 133, 84, 172, 155, 173, 2, 2.13148
111, 2, bw, filler, NA, 999, 999, 8, 21, 66, 81, 185, 178, 69, 116, 2, 0.907269
111, 2, bw, filler, NA, 999, 999, 8, 21, 66, 81, 185, 178, 69, 116, 1, 0.589664
111, 2, bw, attraction, a-b-db, 14, 2, 8, 22, 90, 165, 165, 90, 83, 153, 2, 0.835446
111, 2, bw, attraction, a-b-db, 14, 2, 8, 22, 90, 165, 165, 90, 83, 153, 3, 0.441126
111, 2, bw, catch, NA, 999, 999, 8, 23, 108, 147, 84, 111, 165, 150, 3, 0.844897
111, 2, bw, catch, NA, 999, 999, 8, 23, 108, 147, 84, 111, 165, 150, 2, 0.433947
111, 2, bw, filler, NA, 999, 999, 8, 24, 132, 124, 176, 70, 113, 112, 2, 2.34244
111, 2, bw, filler, NA, 999, 999, 8, 24, 132, 124, 176, 70, 113, 112, 3, 0.447005
111, 2, bw, attraction, a-b-db, 5, 1, 8, 25, 58, 132, 60, 135, 135, 60, 2, 1.05877
111, 2, bw, attraction, a-b-db, 5, 1, 8, 25, 58, 132, 60, 135, 135, 60, 3, 0.66313
111, 2, bw, attraction, a-b-db, 9, 1, 8, 26, 135, 60, 57, 129, 60, 135, 1, 0.866148
111, 2, bw, attraction, a-b-db, 9, 1, 8, 26, 135, 60, 57, 129, 60, 135, 2, 0.758459
111, 2, bw, attraction, a-b-db, 9, 2, 8, 27, 165, 90, 86, 157, 90, 165, 3, 1.54969
111, 2, bw, attraction, a-b-db, 9, 2, 8, 27, 165, 90, 86, 157, 90, 165, 1, 0.734419
111, 2, bw, attraction, a-b-db, 14, 3, 8, 28, 120, 195, 111, 181, 195, 120, 3, 1.83875
111, 2, bw, attraction, a-b-db, 14, 3, 8, 28, 120, 195, 111, 181, 195, 120, 2, 0.315569
111, 2, bw, attraction, a-b-db, 14, 1, 8, 29, 135, 60, 56, 125, 60, 135, 1, 1.34866
111, 2, bw, attraction, a-b-db, 14, 1, 8, 29, 135, 60, 56, 125, 60, 135, 2, 0.357594
111, 2, bw, attraction, a-b-da, 2, 3, 8, 30, 195, 120, 193, 119, 120, 195, 2, 2.57273
111, 2, bw, attraction, a-b-da, 2, 3, 8, 30, 195, 120, 193, 119, 120, 195, 1, 0.371879
111, 2, bw, attraction, a-b-da, 9, 2, 8, 31, 157, 86, 165, 90, 90, 165, 2, 1.09909
111, 2, bw, attraction, a-b-da, 9, 2, 8, 31, 157, 86, 165, 90, 90, 165, 3, 0.510138
111, 2, bw, catch, NA, 999, 999, 8, 32, 161, 154, 100, 95, 107, 148, 1, 0.639167
111, 2, bw, catch, NA, 999, 999, 8, 32, 161, 154, 100, 95, 107, 148, 2, 0.388261
111, 2, bw, attraction, a-b-db, 5, 3, 8, 33, 120, 195, 195, 120, 117, 190, 2, 0.850799
111, 2, bw, attraction, a-b-db, 5, 3, 8, 33, 120, 195, 195, 120, 117, 190, 3, 0.407822
111, 2, bw, attraction, a-b-da, 5, 1, 8, 34, 60, 135, 135, 60, 132, 58, 2, 1.437
111, 2, bw, attraction, a-b-da, 5, 1, 8, 34, 60, 135, 135, 60, 132, 58, 1, 0.345777
111, 2, bw, attraction, a-b-da, 5, 3, 8, 35, 195, 120, 190, 117, 120, 195, 3, 2.29768
111, 2, bw, attraction, a-b-da, 5, 3, 8, 35, 195, 120, 190, 117, 120, 195, 2, 0.828207
111, 2, bw, attraction, a-b-db, 2, 1, 8, 36, 135, 60, 59, 134, 60, 135, 1, 1.34471
111, 2, bw, attraction, a-b-db, 2, 1, 8, 36, 135, 60, 59, 134, 60, 135, 2, 0.473397
111, 2, bw, filler, NA, 999, 999, 8, 37, 153, 92, 63, 185, 190, 103, 3, 1.11589
111, 2, bw, filler, NA, 999, 999, 8, 37, 153, 92, 63, 185, 190, 103, 1, 0.638235
