sub_n, computer_n, bw_cond, effect, set, distance, diag, block_n, trial_n, h1, w1, h2, w2, h3, w3, choice, rt 
105, 2, bw, practice, NA, 999, 999, 0, 1, 132, 60, 165, 138, 153, 111, 2, 2.4284
105, 2, bw, practice, NA, 999, 999, 0, 1, 132, 60, 165, 138, 153, 111, 1, 2.2763
105, 2, bw, practice, NA, 999, 999, 0, 2, 174, 71, 164, 125, 145, 152, 2, 3.09687
105, 2, bw, practice, NA, 999, 999, 0, 2, 174, 71, 164, 125, 145, 152, 1, 1.22168
105, 2, bw, practice, NA, 999, 999, 0, 3, 163, 137, 170, 65, 132, 156, 1, 4.10071
105, 2, bw, practice, NA, 999, 999, 0, 3, 163, 137, 170, 65, 132, 156, 2, 0.793207
105, 2, bw, filler, NA, 999, 999, 1, 1, 142, 75, 151, 109, 138, 97, 2, 2.50165
105, 2, bw, filler, NA, 999, 999, 1, 1, 142, 75, 151, 109, 138, 97, 1, 0.552089
105, 2, bw, filler, NA, 999, 999, 1, 2, 79, 137, 122, 100, 144, 144, 3, 1.63193
105, 2, bw, filler, NA, 999, 999, 1, 2, 79, 137, 122, 100, 144, 144, 1, 0.97342
105, 2, bw, filler, NA, 999, 999, 1, 3, 177, 142, 175, 82, 170, 153, 1, 1.38765
105, 2, bw, filler, NA, 999, 999, 1, 3, 177, 142, 175, 82, 170, 153, 2, 0.50654
105, 2, bw, attraction, a-b-da, 9, 3, 1, 4, 195, 120, 186, 114, 120, 195, 3, 2.52358
105, 2, bw, attraction, a-b-da, 9, 3, 1, 4, 195, 120, 186, 114, 120, 195, 2, 0.396731
105, 2, bw, attraction, a-b-db, 2, 3, 1, 5, 119, 193, 120, 195, 195, 120, 2, 2.93062
105, 2, bw, attraction, a-b-db, 2, 3, 1, 5, 119, 193, 120, 195, 195, 120, 3, 0.819647
105, 2, bw, attraction, a-b-db, 5, 1, 1, 6, 58, 132, 60, 135, 135, 60, 2, 3.82467
105, 2, bw, attraction, a-b-db, 5, 1, 1, 6, 58, 132, 60, 135, 135, 60, 3, 0.493528
105, 2, bw, attraction, a-b-db, 5, 3, 1, 7, 117, 190, 120, 195, 195, 120, 1, 2.99923
105, 2, bw, attraction, a-b-db, 5, 3, 1, 7, 117, 190, 120, 195, 195, 120, 3, 0.733648
105, 2, bw, attraction, a-b-db, 14, 2, 1, 8, 90, 165, 165, 90, 83, 153, 1, 2.86212
105, 2, bw, attraction, a-b-db, 14, 2, 1, 8, 90, 165, 165, 90, 83, 153, 2, 0.297726
105, 2, bw, attraction, a-b-db, 2, 1, 1, 9, 60, 135, 135, 60, 59, 134, 1, 2.40363
105, 2, bw, attraction, a-b-db, 2, 1, 1, 9, 60, 135, 135, 60, 59, 134, 2, 0.610121
105, 2, bw, attraction, a-b-da, 2, 3, 1, 10, 195, 120, 120, 195, 193, 119, 1, 2.83946
105, 2, bw, attraction, a-b-da, 2, 3, 1, 10, 195, 120, 120, 195, 193, 119, 2, 0.803607
105, 2, bw, catch, NA, 999, 999, 1, 11, 76, 119, 167, 148, 106, 149, 2, 1.25726
105, 2, bw, catch, NA, 999, 999, 1, 11, 76, 119, 167, 148, 106, 149, 1, 0.453578
105, 2, bw, attraction, a-b-db, 2, 2, 1, 12, 89, 163, 90, 165, 165, 90, 2, 1.5934
105, 2, bw, attraction, a-b-db, 2, 2, 1, 12, 89, 163, 90, 165, 165, 90, 3, 0.496188
105, 2, bw, attraction, a-b-da, 9, 1, 1, 13, 129, 57, 60, 135, 135, 60, 1, 1.29798
105, 2, bw, attraction, a-b-da, 9, 1, 1, 13, 129, 57, 60, 135, 135, 60, 2, 0.332852
105, 2, bw, filler, NA, 999, 999, 1, 14, 142, 194, 166, 74, 101, 87, 1, 1.0294
105, 2, bw, filler, NA, 999, 999, 1, 14, 142, 194, 166, 74, 101, 87, 3, 0.531043
105, 2, bw, attraction, a-b-da, 14, 1, 1, 15, 60, 135, 135, 60, 125, 56, 2, 2.69143
105, 2, bw, attraction, a-b-da, 14, 1, 1, 15, 60, 135, 135, 60, 125, 56, 3, 0.717992
105, 2, bw, catch, NA, 999, 999, 1, 16, 132, 123, 129, 66, 151, 164, 3, 1.71104
105, 2, bw, catch, NA, 999, 999, 1, 16, 132, 123, 129, 66, 151, 164, 2, 1.96104
105, 2, bw, attraction, a-b-db, 9, 3, 1, 17, 195, 120, 120, 195, 114, 186, 2, 1.48771
105, 2, bw, attraction, a-b-db, 9, 3, 1, 17, 195, 120, 120, 195, 114, 186, 1, 1.46664
105, 2, bw, attraction, a-b-da, 2, 2, 1, 18, 90, 165, 163, 89, 165, 90, 1, 2.46149
105, 2, bw, attraction, a-b-da, 2, 2, 1, 18, 90, 165, 163, 89, 165, 90, 2, 0.425259
105, 2, bw, filler, NA, 999, 999, 1, 19, 132, 113, 135, 132, 167, 130, 3, 1.06181
105, 2, bw, filler, NA, 999, 999, 1, 19, 132, 113, 135, 132, 167, 130, 1, 0.482002
105, 2, bw, filler, NA, 999, 999, 1, 20, 193, 185, 152, 87, 167, 171, 1, 1.01263
105, 2, bw, filler, NA, 999, 999, 1, 20, 193, 185, 152, 87, 167, 171, 2, 0.458778
105, 2, bw, attraction, a-b-db, 14, 3, 1, 21, 111, 181, 195, 120, 120, 195, 3, 2.10195
105, 2, bw, attraction, a-b-db, 14, 3, 1, 21, 111, 181, 195, 120, 120, 195, 2, 0.256599
105, 2, bw, attraction, a-b-da, 5, 2, 1, 22, 90, 165, 161, 88, 165, 90, 1, 1.11588
105, 2, bw, attraction, a-b-da, 5, 2, 1, 22, 90, 165, 161, 88, 165, 90, 2, 0.310194
105, 2, bw, filler, NA, 999, 999, 1, 23, 97, 159, 90, 100, 75, 194, 1, 3.59931
105, 2, bw, filler, NA, 999, 999, 1, 23, 97, 159, 90, 100, 75, 194, 2, 0.589522
105, 2, bw, attraction, a-b-da, 9, 2, 1, 24, 157, 86, 165, 90, 90, 165, 3, 1.02729
105, 2, bw, attraction, a-b-da, 9, 2, 1, 24, 157, 86, 165, 90, 90, 165, 2, 0.264993
105, 2, bw, attraction, a-b-da, 2, 1, 1, 25, 135, 60, 134, 59, 60, 135, 1, 3.66008
105, 2, bw, attraction, a-b-da, 2, 1, 1, 25, 135, 60, 134, 59, 60, 135, 2, 1.12761
105, 2, bw, attraction, a-b-db, 14, 1, 1, 26, 60, 135, 135, 60, 56, 125, 1, 1.54377
105, 2, bw, attraction, a-b-db, 14, 1, 1, 26, 60, 135, 135, 60, 56, 125, 3, 0.432707
105, 2, bw, filler, NA, 999, 999, 1, 27, 185, 56, 130, 92, 155, 161, 3, 2.76517
105, 2, bw, filler, NA, 999, 999, 1, 27, 185, 56, 130, 92, 155, 161, 2, 1.19696
105, 2, bw, attraction, a-b-da, 14, 3, 1, 28, 195, 120, 120, 195, 181, 111, 2, 1.69855
105, 2, bw, attraction, a-b-da, 14, 3, 1, 28, 195, 120, 120, 195, 181, 111, 3, 0.989267
105, 2, bw, attraction, a-b-da, 5, 3, 1, 29, 195, 120, 120, 195, 190, 117, 2, 0.83563
105, 2, bw, attraction, a-b-da, 5, 3, 1, 29, 195, 120, 120, 195, 190, 117, 3, 0.729315
105, 2, bw, attraction, a-b-db, 9, 2, 1, 30, 165, 90, 86, 157, 90, 165, 2, 2.21774
105, 2, bw, attraction, a-b-db, 9, 2, 1, 30, 165, 90, 86, 157, 90, 165, 1, 0.319646
105, 2, bw, attraction, a-b-da, 5, 1, 1, 31, 60, 135, 135, 60, 132, 58, 2, 1.03288
105, 2, bw, attraction, a-b-da, 5, 1, 1, 31, 60, 135, 135, 60, 132, 58, 3, 0.374425
105, 2, bw, catch, NA, 999, 999, 1, 32, 63, 132, 165, 150, 140, 115, 2, 1.14095
105, 2, bw, catch, NA, 999, 999, 1, 32, 63, 132, 165, 150, 140, 115, 1, 0.341895
105, 2, bw, attraction, a-b-da, 14, 2, 1, 33, 165, 90, 153, 83, 90, 165, 3, 1.45369
105, 2, bw, attraction, a-b-da, 14, 2, 1, 33, 165, 90, 153, 83, 90, 165, 2, 0.569814
105, 2, bw, filler, NA, 999, 999, 1, 34, 83, 177, 85, 114, 189, 90, 1, 2.27301
105, 2, bw, filler, NA, 999, 999, 1, 34, 83, 177, 85, 114, 189, 90, 2, 0.708255
105, 2, bw, attraction, a-b-db, 5, 2, 1, 35, 88, 161, 90, 165, 165, 90, 2, 1.02935
105, 2, bw, attraction, a-b-db, 5, 2, 1, 35, 88, 161, 90, 165, 165, 90, 3, 0.547004
105, 2, bw, attraction, a-b-db, 9, 1, 1, 36, 135, 60, 57, 129, 60, 135, 2, 1.05875
105, 2, bw, attraction, a-b-db, 9, 1, 1, 36, 135, 60, 57, 129, 60, 135, 1, 0.479053
105, 2, bw, filler, NA, 999, 999, 1, 37, 189, 73, 57, 152, 154, 147, 3, 1.04955
105, 2, bw, filler, NA, 999, 999, 1, 37, 189, 73, 57, 152, 154, 147, 2, 0.454507
105, 2, bw, attraction, a-b-db, 14, 3, 2, 1, 120, 195, 111, 181, 195, 120, 1, 1.47427
105, 2, bw, attraction, a-b-db, 14, 3, 2, 1, 120, 195, 111, 181, 195, 120, 2, 0.589692
105, 2, bw, attraction, a-b-db, 14, 1, 2, 2, 56, 125, 135, 60, 60, 135, 2, 1.73156
105, 2, bw, attraction, a-b-db, 14, 1, 2, 2, 56, 125, 135, 60, 60, 135, 3, 0.357023
105, 2, bw, attraction, a-b-db, 5, 1, 2, 3, 135, 60, 58, 132, 60, 135, 1, 1.11621
105, 2, bw, attraction, a-b-db, 5, 1, 2, 3, 135, 60, 58, 132, 60, 135, 3, 0.454342
105, 2, bw, filler, NA, 999, 999, 2, 4, 114, 139, 177, 87, 121, 151, 3, 1.66641
105, 2, bw, filler, NA, 999, 999, 2, 4, 114, 139, 177, 87, 121, 151, 2, 1.43037
105, 2, bw, filler, NA, 999, 999, 2, 5, 129, 124, 76, 133, 122, 166, 3, 1.02658
105, 2, bw, filler, NA, 999, 999, 2, 5, 129, 124, 76, 133, 122, 166, 2, 0.42415
105, 2, bw, attraction, a-b-da, 5, 1, 2, 6, 132, 58, 60, 135, 135, 60, 2, 1.31661
105, 2, bw, attraction, a-b-da, 5, 1, 2, 6, 132, 58, 60, 135, 135, 60, 3, 0.334846
105, 2, bw, attraction, a-b-da, 5, 3, 2, 7, 190, 117, 195, 120, 120, 195, 3, 3.39131
105, 2, bw, attraction, a-b-da, 5, 3, 2, 7, 190, 117, 195, 120, 120, 195, 2, 0.365674
105, 2, bw, attraction, a-b-da, 9, 1, 2, 8, 135, 60, 129, 57, 60, 135, 3, 1.67687
105, 2, bw, attraction, a-b-da, 9, 1, 2, 8, 135, 60, 129, 57, 60, 135, 2, 0.472255
105, 2, bw, filler, NA, 999, 999, 2, 9, 127, 162, 126, 68, 65, 103, 1, 1.02734
105, 2, bw, filler, NA, 999, 999, 2, 9, 127, 162, 126, 68, 65, 103, 3, 0.577147
105, 2, bw, attraction, a-b-da, 2, 1, 2, 10, 60, 135, 135, 60, 134, 59, 1, 0.919337
105, 2, bw, attraction, a-b-da, 2, 1, 2, 10, 60, 135, 135, 60, 134, 59, 3, 0.449751
105, 2, bw, attraction, a-b-db, 9, 3, 2, 11, 195, 120, 120, 195, 114, 186, 1, 1.09351
105, 2, bw, attraction, a-b-db, 9, 3, 2, 11, 195, 120, 120, 195, 114, 186, 2, 0.480474
105, 2, bw, filler, NA, 999, 999, 2, 12, 161, 132, 194, 141, 111, 91, 2, 1.72311
105, 2, bw, filler, NA, 999, 999, 2, 12, 161, 132, 194, 141, 111, 91, 3, 0.324424
105, 2, bw, catch, NA, 999, 999, 2, 13, 158, 157, 60, 135, 120, 135, 1, 0.748915
105, 2, bw, catch, NA, 999, 999, 2, 13, 158, 157, 60, 135, 120, 135, 2, 0.429955
105, 2, bw, filler, NA, 999, 999, 2, 14, 192, 83, 160, 132, 65, 87, 2, 0.898414
105, 2, bw, filler, NA, 999, 999, 2, 14, 192, 83, 160, 132, 65, 87, 3, 0.50949
105, 2, bw, attraction, a-b-da, 14, 3, 2, 15, 195, 120, 120, 195, 181, 111, 2, 1.56653
105, 2, bw, attraction, a-b-da, 14, 3, 2, 15, 195, 120, 120, 195, 181, 111, 1, 0.262694
105, 2, bw, attraction, a-b-db, 2, 1, 2, 16, 59, 134, 135, 60, 60, 135, 3, 1.16192
105, 2, bw, attraction, a-b-db, 2, 1, 2, 16, 59, 134, 135, 60, 60, 135, 2, 0.578335
105, 2, bw, attraction, a-b-da, 14, 1, 2, 17, 60, 135, 135, 60, 125, 56, 1, 0.752597
105, 2, bw, attraction, a-b-da, 14, 1, 2, 17, 60, 135, 135, 60, 125, 56, 2, 0.297704
105, 2, bw, filler, NA, 999, 999, 2, 18, 64, 193, 88, 141, 70, 145, 2, 4.41964
105, 2, bw, filler, NA, 999, 999, 2, 18, 64, 193, 88, 141, 70, 145, 3, 0.544846
105, 2, bw, attraction, a-b-da, 9, 2, 2, 19, 90, 165, 165, 90, 157, 86, 2, 1.36867
105, 2, bw, attraction, a-b-da, 9, 2, 2, 19, 90, 165, 165, 90, 157, 86, 3, 0.256809
105, 2, bw, attraction, a-b-db, 2, 2, 2, 20, 89, 163, 165, 90, 90, 165, 1, 0.884047
105, 2, bw, attraction, a-b-db, 2, 2, 2, 20, 89, 163, 165, 90, 90, 165, 2, 0.319729
105, 2, bw, filler, NA, 999, 999, 2, 21, 168, 101, 75, 178, 126, 180, 3, 1.06485
105, 2, bw, filler, NA, 999, 999, 2, 21, 168, 101, 75, 178, 126, 180, 2, 0.341202
105, 2, bw, attraction, a-b-da, 9, 3, 2, 22, 195, 120, 186, 114, 120, 195, 1, 1.14103
105, 2, bw, attraction, a-b-da, 9, 3, 2, 22, 195, 120, 186, 114, 120, 195, 2, 0.502056
105, 2, bw, attraction, a-b-da, 2, 3, 2, 23, 120, 195, 195, 120, 193, 119, 3, 1.2879
105, 2, bw, attraction, a-b-da, 2, 3, 2, 23, 120, 195, 195, 120, 193, 119, 2, 0.266612
105, 2, bw, catch, NA, 999, 999, 2, 24, 175, 140, 117, 78, 96, 159, 1, 0.869824
105, 2, bw, catch, NA, 999, 999, 2, 24, 175, 140, 117, 78, 96, 159, 2, 0.354234
105, 2, bw, filler, NA, 999, 999, 2, 25, 159, 195, 104, 186, 182, 193, 3, 2.13821
105, 2, bw, filler, NA, 999, 999, 2, 25, 159, 195, 104, 186, 182, 193, 2, 0.42674
105, 2, bw, attraction, a-b-db, 9, 2, 2, 26, 165, 90, 86, 157, 90, 165, 1, 1.27134
105, 2, bw, attraction, a-b-db, 9, 2, 2, 26, 165, 90, 86, 157, 90, 165, 2, 0.354751
105, 2, bw, attraction, a-b-da, 5, 2, 2, 27, 165, 90, 90, 165, 161, 88, 2, 0.954586
105, 2, bw, attraction, a-b-da, 5, 2, 2, 27, 165, 90, 90, 165, 161, 88, 3, 0.498947
105, 2, bw, attraction, a-b-db, 5, 3, 2, 28, 117, 190, 195, 120, 120, 195, 3, 0.692765
105, 2, bw, attraction, a-b-db, 5, 3, 2, 28, 117, 190, 195, 120, 120, 195, 2, 0.335766
105, 2, bw, attraction, a-b-db, 9, 1, 2, 29, 57, 129, 135, 60, 60, 135, 3, 0.960377
105, 2, bw, attraction, a-b-db, 9, 1, 2, 29, 57, 129, 135, 60, 60, 135, 2, 0.296547
105, 2, bw, catch, NA, 999, 999, 2, 30, 93, 102, 193, 122, 159, 96, 2, 1.48249
105, 2, bw, catch, NA, 999, 999, 2, 30, 93, 102, 193, 122, 159, 96, 1, 0.686157
105, 2, bw, attraction, a-b-da, 2, 2, 2, 31, 90, 165, 165, 90, 163, 89, 1, 2.20036
105, 2, bw, attraction, a-b-da, 2, 2, 2, 31, 90, 165, 165, 90, 163, 89, 2, 0.70296
105, 2, bw, filler, NA, 999, 999, 2, 32, 97, 163, 137, 150, 161, 66, 2, 2.2168
105, 2, bw, filler, NA, 999, 999, 2, 32, 97, 163, 137, 150, 161, 66, 3, 4.54273
105, 2, bw, attraction, a-b-da, 14, 2, 2, 33, 153, 83, 90, 165, 165, 90, 2, 1.25323
105, 2, bw, attraction, a-b-da, 14, 2, 2, 33, 153, 83, 90, 165, 165, 90, 3, 0.409445
105, 2, bw, attraction, a-b-db, 2, 3, 2, 34, 119, 193, 195, 120, 120, 195, 1, 0.854576
105, 2, bw, attraction, a-b-db, 2, 3, 2, 34, 119, 193, 195, 120, 120, 195, 2, 0.234938
105, 2, bw, filler, NA, 999, 999, 2, 35, 56, 68, 97, 127, 73, 96, 2, 0.967463
105, 2, bw, filler, NA, 999, 999, 2, 35, 56, 68, 97, 127, 73, 96, 1, 0.65581
105, 2, bw, attraction, a-b-db, 14, 2, 2, 36, 165, 90, 83, 153, 90, 165, 2, 1.42754
105, 2, bw, attraction, a-b-db, 14, 2, 2, 36, 165, 90, 83, 153, 90, 165, 3, 1.24932
105, 2, bw, attraction, a-b-db, 5, 2, 2, 37, 165, 90, 90, 165, 88, 161, 1, 1.76479
105, 2, bw, attraction, a-b-db, 5, 2, 2, 37, 165, 90, 90, 165, 88, 161, 2, 0.236757
105, 2, bw, attraction, a-b-db, 9, 2, 3, 1, 86, 157, 165, 90, 90, 165, 2, 0.74519
105, 2, bw, attraction, a-b-db, 9, 2, 3, 1, 86, 157, 165, 90, 90, 165, 3, 0.218481
105, 2, bw, filler, NA, 999, 999, 3, 2, 179, 105, 133, 56, 70, 122, 1, 1.3357
105, 2, bw, filler, NA, 999, 999, 3, 2, 179, 105, 133, 56, 70, 122, 3, 3.61715
105, 2, bw, attraction, a-b-da, 5, 3, 3, 3, 190, 117, 195, 120, 120, 195, 2, 0.805437
105, 2, bw, attraction, a-b-da, 5, 3, 3, 3, 190, 117, 195, 120, 120, 195, 3, 0.32993
105, 2, bw, filler, NA, 999, 999, 3, 4, 167, 128, 180, 138, 139, 131, 2, 0.604205
105, 2, bw, filler, NA, 999, 999, 3, 4, 167, 128, 180, 138, 139, 131, 3, 0.290641
105, 2, bw, attraction, a-b-db, 5, 3, 3, 5, 117, 190, 120, 195, 195, 120, 1, 2.0685
105, 2, bw, attraction, a-b-db, 5, 3, 3, 5, 117, 190, 120, 195, 195, 120, 3, 0.280482
105, 2, bw, attraction, a-b-db, 2, 2, 3, 6, 89, 163, 165, 90, 90, 165, 1, 0.794972
105, 2, bw, attraction, a-b-db, 2, 2, 3, 6, 89, 163, 165, 90, 90, 165, 2, 0.674026
105, 2, bw, attraction, a-b-db, 2, 3, 3, 7, 195, 120, 119, 193, 120, 195, 2, 1.02038
105, 2, bw, attraction, a-b-db, 2, 3, 3, 7, 195, 120, 119, 193, 120, 195, 3, 0.418688
105, 2, bw, attraction, a-b-da, 5, 2, 3, 8, 165, 90, 161, 88, 90, 165, 3, 1.47202
105, 2, bw, attraction, a-b-da, 5, 2, 3, 8, 165, 90, 161, 88, 90, 165, 2, 0.251396
105, 2, bw, filler, NA, 999, 999, 3, 9, 105, 134, 56, 169, 166, 165, 3, 0.99123
105, 2, bw, filler, NA, 999, 999, 3, 9, 105, 134, 56, 169, 166, 165, 2, 4.02226
105, 2, bw, filler, NA, 999, 999, 3, 10, 169, 79, 168, 83, 128, 61, 2, 2.18634
105, 2, bw, filler, NA, 999, 999, 3, 10, 169, 79, 168, 83, 128, 61, 3, 0.521514
105, 2, bw, attraction, a-b-db, 9, 3, 3, 11, 120, 195, 195, 120, 114, 186, 1, 1.76262
105, 2, bw, attraction, a-b-db, 9, 3, 3, 11, 120, 195, 195, 120, 114, 186, 3, 0.458857
105, 2, bw, attraction, a-b-da, 9, 3, 3, 12, 120, 195, 195, 120, 186, 114, 2, 1.7419
105, 2, bw, attraction, a-b-da, 9, 3, 3, 12, 120, 195, 195, 120, 186, 114, 1, 0.566642
105, 2, bw, attraction, a-b-db, 14, 2, 3, 13, 165, 90, 90, 165, 83, 153, 2, 1.37387
105, 2, bw, attraction, a-b-db, 14, 2, 3, 13, 165, 90, 90, 165, 83, 153, 3, 0.733403
105, 2, bw, attraction, a-b-db, 9, 1, 3, 14, 57, 129, 60, 135, 135, 60, 2, 1.82967
105, 2, bw, attraction, a-b-db, 9, 1, 3, 14, 57, 129, 60, 135, 135, 60, 1, 1.14711
105, 2, bw, attraction, a-b-db, 5, 2, 3, 15, 90, 165, 165, 90, 88, 161, 1, 3.79458
105, 2, bw, attraction, a-b-db, 5, 2, 3, 15, 90, 165, 165, 90, 88, 161, 2, 0.280894
105, 2, bw, attraction, a-b-da, 9, 1, 3, 16, 129, 57, 60, 135, 135, 60, 1, 1.49925
105, 2, bw, attraction, a-b-da, 9, 1, 3, 16, 129, 57, 60, 135, 135, 60, 2, 0.28615
105, 2, bw, filler, NA, 999, 999, 3, 17, 63, 56, 61, 91, 137, 74, 3, 1.16868
105, 2, bw, filler, NA, 999, 999, 3, 17, 63, 56, 61, 91, 137, 74, 1, 0.488928
105, 2, bw, attraction, a-b-db, 2, 1, 3, 18, 60, 135, 59, 134, 135, 60, 2, 2.0435
105, 2, bw, attraction, a-b-db, 2, 1, 3, 18, 60, 135, 59, 134, 135, 60, 3, 0.232028
105, 2, bw, attraction, a-b-da, 14, 1, 3, 19, 60, 135, 135, 60, 125, 56, 1, 1.07664
105, 2, bw, attraction, a-b-da, 14, 1, 3, 19, 60, 135, 135, 60, 125, 56, 2, 0.35234
105, 2, bw, attraction, a-b-da, 9, 2, 3, 20, 157, 86, 165, 90, 90, 165, 1, 1.2561
105, 2, bw, attraction, a-b-da, 9, 2, 3, 20, 157, 86, 165, 90, 90, 165, 2, 0.236332
105, 2, bw, attraction, a-b-da, 2, 2, 3, 21, 163, 89, 90, 165, 165, 90, 1, 0.816904
105, 2, bw, attraction, a-b-da, 2, 2, 3, 21, 163, 89, 90, 165, 165, 90, 2, 0.455307
105, 2, bw, attraction, a-b-da, 14, 3, 3, 22, 120, 195, 181, 111, 195, 120, 1, 1.12303
105, 2, bw, attraction, a-b-da, 14, 3, 3, 22, 120, 195, 181, 111, 195, 120, 2, 0.292764
105, 2, bw, attraction, a-b-da, 2, 1, 3, 23, 60, 135, 134, 59, 135, 60, 1, 0.966521
105, 2, bw, attraction, a-b-da, 2, 1, 3, 23, 60, 135, 134, 59, 135, 60, 2, 0.34282
105, 2, bw, filler, NA, 999, 999, 3, 24, 173, 159, 134, 125, 166, 94, 1, 1.32671
105, 2, bw, filler, NA, 999, 999, 3, 24, 173, 159, 134, 125, 166, 94, 2, 1.59222
105, 2, bw, filler, NA, 999, 999, 3, 25, 164, 139, 134, 187, 161, 99, 2, 3.35779
105, 2, bw, filler, NA, 999, 999, 3, 25, 164, 139, 134, 187, 161, 99, 3, 0.421351
105, 2, bw, catch, NA, 999, 999, 3, 26, 67, 128, 127, 188, 119, 136, 2, 1.13836
105, 2, bw, catch, NA, 999, 999, 3, 26, 67, 128, 127, 188, 119, 136, 1, 0.363444
105, 2, bw, attraction, a-b-db, 14, 1, 3, 27, 135, 60, 60, 135, 56, 125, 2, 1.59457
105, 2, bw, attraction, a-b-db, 14, 1, 3, 27, 135, 60, 60, 135, 56, 125, 1, 0.481448
105, 2, bw, filler, NA, 999, 999, 3, 28, 73, 63, 95, 105, 85, 173, 3, 1.53982
105, 2, bw, filler, NA, 999, 999, 3, 28, 73, 63, 95, 105, 85, 173, 1, 0.636648
105, 2, bw, catch, NA, 999, 999, 3, 29, 141, 114, 90, 105, 121, 194, 3, 1.28104
105, 2, bw, catch, NA, 999, 999, 3, 29, 141, 114, 90, 105, 121, 194, 2, 0.516577
105, 2, bw, filler, NA, 999, 999, 3, 30, 85, 158, 168, 160, 77, 122, 2, 1.18182
105, 2, bw, filler, NA, 999, 999, 3, 30, 85, 158, 168, 160, 77, 122, 3, 1.0454
105, 2, bw, attraction, a-b-da, 14, 2, 3, 31, 165, 90, 90, 165, 153, 83, 2, 0.863526
105, 2, bw, attraction, a-b-da, 14, 2, 3, 31, 165, 90, 90, 165, 153, 83, 3, 0.22943
105, 2, bw, attraction, a-b-db, 5, 1, 3, 32, 135, 60, 60, 135, 58, 132, 2, 1.12989
105, 2, bw, attraction, a-b-db, 5, 1, 3, 32, 135, 60, 60, 135, 58, 132, 1, 0.227491
105, 2, bw, attraction, a-b-db, 14, 3, 3, 33, 195, 120, 111, 181, 120, 195, 1, 1.47203
105, 2, bw, attraction, a-b-db, 14, 3, 3, 33, 195, 120, 111, 181, 120, 195, 2, 0.395586
105, 2, bw, catch, NA, 999, 999, 3, 34, 171, 144, 116, 79, 147, 108, 1, 1.09729
105, 2, bw, catch, NA, 999, 999, 3, 34, 171, 144, 116, 79, 147, 108, 2, 0.636303
105, 2, bw, attraction, a-b-da, 5, 1, 3, 35, 60, 135, 132, 58, 135, 60, 2, 1.86476
105, 2, bw, attraction, a-b-da, 5, 1, 3, 35, 60, 135, 132, 58, 135, 60, 3, 0.452692
105, 2, bw, filler, NA, 999, 999, 3, 36, 61, 128, 190, 184, 190, 128, 2, 0.728595
105, 2, bw, filler, NA, 999, 999, 3, 36, 61, 128, 190, 184, 190, 128, 1, 0.626365
105, 2, bw, attraction, a-b-da, 2, 3, 3, 37, 195, 120, 193, 119, 120, 195, 2, 1.44667
105, 2, bw, attraction, a-b-da, 2, 3, 3, 37, 195, 120, 193, 119, 120, 195, 1, 0.299548
105, 2, bw, attraction, a-b-da, 14, 2, 4, 1, 153, 83, 165, 90, 90, 165, 2, 1.58134
105, 2, bw, attraction, a-b-da, 14, 2, 4, 1, 153, 83, 165, 90, 90, 165, 3, 0.89291
105, 2, bw, attraction, a-b-da, 5, 1, 4, 2, 132, 58, 135, 60, 60, 135, 2, 0.85453
105, 2, bw, attraction, a-b-da, 5, 1, 4, 2, 132, 58, 135, 60, 60, 135, 3, 1.64309
105, 2, bw, catch, NA, 999, 999, 4, 3, 191, 124, 108, 147, 87, 108, 1, 1.2223
105, 2, bw, catch, NA, 999, 999, 4, 3, 191, 124, 108, 147, 87, 108, 3, 0.411953
105, 2, bw, attraction, a-b-da, 2, 3, 4, 4, 120, 195, 195, 120, 193, 119, 1, 1.14506
105, 2, bw, attraction, a-b-da, 2, 3, 4, 4, 120, 195, 195, 120, 193, 119, 3, 0.234057
105, 2, bw, attraction, a-b-da, 9, 1, 4, 5, 135, 60, 60, 135, 129, 57, 1, 0.702571
105, 2, bw, attraction, a-b-da, 9, 1, 4, 5, 135, 60, 60, 135, 129, 57, 2, 0.249645
105, 2, bw, catch, NA, 999, 999, 4, 6, 172, 143, 96, 99, 159, 96, 1, 1.61358
105, 2, bw, catch, NA, 999, 999, 4, 6, 172, 143, 96, 99, 159, 96, 2, 0.779718
105, 2, bw, attraction, a-b-db, 14, 2, 4, 7, 90, 165, 83, 153, 165, 90, 3, 1.24207
105, 2, bw, attraction, a-b-db, 14, 2, 4, 7, 90, 165, 83, 153, 165, 90, 2, 0.270942
105, 2, bw, attraction, a-b-da, 5, 2, 4, 8, 165, 90, 90, 165, 161, 88, 1, 1.11407
105, 2, bw, attraction, a-b-da, 5, 2, 4, 8, 165, 90, 90, 165, 161, 88, 2, 0.268469
105, 2, bw, attraction, a-b-db, 5, 3, 4, 9, 195, 120, 117, 190, 120, 195, 3, 2.11962
105, 2, bw, attraction, a-b-db, 5, 3, 4, 9, 195, 120, 117, 190, 120, 195, 2, 0.281685
105, 2, bw, attraction, a-b-da, 14, 1, 4, 10, 135, 60, 60, 135, 125, 56, 2, 1.84418
105, 2, bw, attraction, a-b-da, 14, 1, 4, 10, 135, 60, 60, 135, 125, 56, 3, 0.208927
105, 2, bw, filler, NA, 999, 999, 4, 11, 110, 59, 166, 191, 95, 188, 2, 1.38215
105, 2, bw, filler, NA, 999, 999, 4, 11, 110, 59, 166, 191, 95, 188, 1, 0.797669
105, 2, bw, attraction, a-b-db, 2, 1, 4, 12, 135, 60, 59, 134, 60, 135, 2, 2.1954
105, 2, bw, attraction, a-b-db, 2, 1, 4, 12, 135, 60, 59, 134, 60, 135, 1, 0.298026
105, 2, bw, filler, NA, 999, 999, 4, 13, 149, 83, 58, 151, 92, 65, 1, 1.28367
105, 2, bw, filler, NA, 999, 999, 4, 13, 149, 83, 58, 151, 92, 65, 3, 0.447336
105, 2, bw, filler, NA, 999, 999, 4, 14, 151, 176, 122, 140, 73, 81, 1, 0.835158
105, 2, bw, filler, NA, 999, 999, 4, 14, 151, 176, 122, 140, 73, 81, 3, 0.38485
105, 2, bw, attraction, a-b-db, 14, 1, 4, 15, 60, 135, 56, 125, 135, 60, 1, 1.01535
105, 2, bw, attraction, a-b-db, 14, 1, 4, 15, 60, 135, 56, 125, 135, 60, 3, 0.565644
105, 2, bw, attraction, a-b-da, 9, 2, 4, 16, 165, 90, 90, 165, 157, 86, 1, 0.684771
105, 2, bw, attraction, a-b-da, 9, 2, 4, 16, 165, 90, 90, 165, 157, 86, 2, 0.272577
105, 2, bw, attraction, a-b-db, 9, 1, 4, 17, 57, 129, 60, 135, 135, 60, 3, 1.40306
105, 2, bw, attraction, a-b-db, 9, 1, 4, 17, 57, 129, 60, 135, 135, 60, 2, 0.369879
105, 2, bw, attraction, a-b-da, 14, 3, 4, 18, 120, 195, 195, 120, 181, 111, 2, 3.23305
105, 2, bw, attraction, a-b-da, 14, 3, 4, 18, 120, 195, 195, 120, 181, 111, 3, 0.214176
105, 2, bw, filler, NA, 999, 999, 4, 19, 181, 162, 99, 99, 119, 101, 1, 0.835277
105, 2, bw, filler, NA, 999, 999, 4, 19, 181, 162, 99, 99, 119, 101, 2, 0.665046
105, 2, bw, catch, NA, 999, 999, 4, 20, 130, 185, 118, 77, 139, 116, 1, 1.58002
105, 2, bw, catch, NA, 999, 999, 4, 20, 130, 185, 118, 77, 139, 116, 2, 0.467476
105, 2, bw, attraction, a-b-db, 2, 2, 4, 21, 90, 165, 89, 163, 165, 90, 2, 1.0707
105, 2, bw, attraction, a-b-db, 2, 2, 4, 21, 90, 165, 89, 163, 165, 90, 1, 0.306239
105, 2, bw, filler, NA, 999, 999, 4, 22, 65, 158, 109, 194, 117, 150, 2, 3.10753
105, 2, bw, filler, NA, 999, 999, 4, 22, 65, 158, 109, 194, 117, 150, 1, 0.83726
105, 2, bw, attraction, a-b-da, 5, 3, 4, 23, 195, 120, 120, 195, 190, 117, 2, 0.92161
105, 2, bw, attraction, a-b-da, 5, 3, 4, 23, 195, 120, 120, 195, 190, 117, 3, 0.227152
105, 2, bw, attraction, a-b-db, 9, 2, 4, 24, 90, 165, 165, 90, 86, 157, 2, 0.871592
105, 2, bw, attraction, a-b-db, 9, 2, 4, 24, 90, 165, 165, 90, 86, 157, 3, 0.251394
105, 2, bw, attraction, a-b-db, 14, 3, 4, 25, 195, 120, 120, 195, 111, 181, 1, 0.895204
105, 2, bw, attraction, a-b-db, 14, 3, 4, 25, 195, 120, 120, 195, 111, 181, 2, 0.24245
105, 2, bw, attraction, a-b-db, 9, 3, 4, 26, 120, 195, 114, 186, 195, 120, 1, 1.59021
105, 2, bw, attraction, a-b-db, 9, 3, 4, 26, 120, 195, 114, 186, 195, 120, 3, 0.476987
105, 2, bw, filler, NA, 999, 999, 4, 27, 183, 189, 128, 102, 125, 81, 1, 1.11133
105, 2, bw, filler, NA, 999, 999, 4, 27, 183, 189, 128, 102, 125, 81, 3, 0.481766
105, 2, bw, filler, NA, 999, 999, 4, 28, 88, 159, 78, 195, 125, 188, 3, 0.932172
105, 2, bw, filler, NA, 999, 999, 4, 28, 88, 159, 78, 195, 125, 188, 1, 0.533792
105, 2, bw, filler, NA, 999, 999, 4, 29, 107, 67, 59, 82, 130, 182, 3, 1.0543
105, 2, bw, filler, NA, 999, 999, 4, 29, 107, 67, 59, 82, 130, 182, 2, 0.530616
105, 2, bw, attraction, a-b-db, 5, 2, 4, 30, 88, 161, 90, 165, 165, 90, 2, 1.39512
105, 2, bw, attraction, a-b-db, 5, 2, 4, 30, 88, 161, 90, 165, 165, 90, 3, 0.289895
105, 2, bw, filler, NA, 999, 999, 4, 31, 126, 184, 193, 64, 185, 144, 3, 3.69173
105, 2, bw, filler, NA, 999, 999, 4, 31, 126, 184, 193, 64, 185, 144, 2, 1.89397
105, 2, bw, attraction, a-b-da, 2, 1, 4, 32, 60, 135, 134, 59, 135, 60, 1, 1.80723
105, 2, bw, attraction, a-b-da, 2, 1, 4, 32, 60, 135, 134, 59, 135, 60, 2, 0.389445
105, 2, bw, filler, NA, 999, 999, 4, 33, 94, 186, 149, 66, 102, 98, 1, 1.84306
105, 2, bw, filler, NA, 999, 999, 4, 33, 94, 186, 149, 66, 102, 98, 3, 0.408013
105, 2, bw, attraction, a-b-db, 5, 1, 4, 34, 60, 135, 135, 60, 58, 132, 1, 1.42098
105, 2, bw, attraction, a-b-db, 5, 1, 4, 34, 60, 135, 135, 60, 58, 132, 2, 0.338493
105, 2, bw, attraction, a-b-da, 9, 3, 4, 35, 195, 120, 120, 195, 186, 114, 2, 1.46697
105, 2, bw, attraction, a-b-da, 9, 3, 4, 35, 195, 120, 120, 195, 186, 114, 1, 0.279211
105, 2, bw, attraction, a-b-da, 2, 2, 4, 36, 165, 90, 90, 165, 163, 89, 2, 0.745713
105, 2, bw, attraction, a-b-da, 2, 2, 4, 36, 165, 90, 90, 165, 163, 89, 3, 0.346893
105, 2, bw, attraction, a-b-db, 2, 3, 4, 37, 120, 195, 195, 120, 119, 193, 1, 1.24268
105, 2, bw, attraction, a-b-db, 2, 3, 4, 37, 120, 195, 195, 120, 119, 193, 2, 0.767728
105, 2, bw, attraction, a-b-db, 14, 1, 5, 1, 60, 135, 135, 60, 56, 125, 2, 3.55724
105, 2, bw, attraction, a-b-db, 14, 1, 5, 1, 60, 135, 135, 60, 56, 125, 3, 1.0928
105, 2, bw, attraction, a-b-db, 2, 2, 5, 2, 90, 165, 89, 163, 165, 90, 2, 1.55834
105, 2, bw, attraction, a-b-db, 2, 2, 5, 2, 90, 165, 89, 163, 165, 90, 1, 0.718472
105, 2, bw, attraction, a-b-da, 14, 3, 5, 3, 181, 111, 120, 195, 195, 120, 2, 1.01551
105, 2, bw, attraction, a-b-da, 14, 3, 5, 3, 181, 111, 120, 195, 195, 120, 3, 1.14192
105, 2, bw, filler, NA, 999, 999, 5, 4, 77, 147, 136, 134, 115, 85, 2, 2.42156
105, 2, bw, filler, NA, 999, 999, 5, 4, 77, 147, 136, 134, 115, 85, 3, 1.77077
105, 2, bw, filler, NA, 999, 999, 5, 5, 85, 70, 58, 151, 62, 122, 2, 2.37746
105, 2, bw, filler, NA, 999, 999, 5, 5, 85, 70, 58, 151, 62, 122, 1, 0.272718
105, 2, bw, attraction, a-b-da, 5, 2, 5, 6, 165, 90, 161, 88, 90, 165, 2, 1.34713
105, 2, bw, attraction, a-b-da, 5, 2, 5, 6, 165, 90, 161, 88, 90, 165, 1, 0.595981
105, 2, bw, attraction, a-b-db, 5, 2, 5, 7, 165, 90, 90, 165, 88, 161, 1, 3.00183
105, 2, bw, attraction, a-b-db, 5, 2, 5, 7, 165, 90, 90, 165, 88, 161, 2, 0.384253
105, 2, bw, filler, NA, 999, 999, 5, 8, 173, 124, 172, 110, 57, 185, 1, 2.88671
105, 2, bw, filler, NA, 999, 999, 5, 8, 173, 124, 172, 110, 57, 185, 3, 0.617722
105, 2, bw, attraction, a-b-db, 9, 2, 5, 9, 86, 157, 165, 90, 90, 165, 2, 1.79084
105, 2, bw, attraction, a-b-db, 9, 2, 5, 9, 86, 157, 165, 90, 90, 165, 1, 0.901608
105, 2, bw, attraction, a-b-da, 2, 1, 5, 10, 135, 60, 60, 135, 134, 59, 2, 1.51127
105, 2, bw, attraction, a-b-da, 2, 1, 5, 10, 135, 60, 60, 135, 134, 59, 3, 0.11444
105, 2, bw, attraction, a-b-da, 5, 1, 5, 11, 60, 135, 135, 60, 132, 58, 2, 2.08263
105, 2, bw, attraction, a-b-da, 5, 1, 5, 11, 60, 135, 135, 60, 132, 58, 3, 0.70195
105, 2, bw, attraction, a-b-da, 14, 1, 5, 12, 135, 60, 60, 135, 125, 56, 2, 1.41562
105, 2, bw, attraction, a-b-da, 14, 1, 5, 12, 135, 60, 60, 135, 125, 56, 3, 0.397859
105, 2, bw, filler, NA, 999, 999, 5, 13, 71, 137, 140, 132, 115, 158, 2, 4.69981
105, 2, bw, filler, NA, 999, 999, 5, 13, 71, 137, 140, 132, 115, 158, 1, 0.6055
105, 2, bw, filler, NA, 999, 999, 5, 14, 129, 123, 104, 122, 137, 139, 3, 1.33126
105, 2, bw, filler, NA, 999, 999, 5, 14, 129, 123, 104, 122, 137, 139, 2, 0.420799
105, 2, bw, attraction, a-b-db, 9, 3, 5, 15, 195, 120, 114, 186, 120, 195, 1, 1.17001
105, 2, bw, attraction, a-b-db, 9, 3, 5, 15, 195, 120, 114, 186, 120, 195, 2, 0.570258
105, 2, bw, attraction, a-b-da, 9, 3, 5, 16, 186, 114, 120, 195, 195, 120, 3, 0.953495
105, 2, bw, attraction, a-b-da, 9, 3, 5, 16, 186, 114, 120, 195, 195, 120, 2, 0.298371
105, 2, bw, filler, NA, 999, 999, 5, 17, 163, 111, 149, 89, 186, 138, 3, 0.716187
105, 2, bw, filler, NA, 999, 999, 5, 17, 163, 111, 149, 89, 186, 138, 2, 0.382713
105, 2, bw, attraction, a-b-db, 2, 1, 5, 18, 60, 135, 135, 60, 59, 134, 2, 1.06111
105, 2, bw, attraction, a-b-db, 2, 1, 5, 18, 60, 135, 135, 60, 59, 134, 3, 0.601557
105, 2, bw, attraction, a-b-db, 14, 2, 5, 19, 165, 90, 90, 165, 83, 153, 1, 0.967169
105, 2, bw, attraction, a-b-db, 14, 2, 5, 19, 165, 90, 90, 165, 83, 153, 2, 0.287452
105, 2, bw, filler, NA, 999, 999, 5, 20, 186, 178, 67, 85, 77, 87, 1, 1.57798
105, 2, bw, filler, NA, 999, 999, 5, 20, 186, 178, 67, 85, 77, 87, 2, 1.55355
105, 2, bw, attraction, a-b-da, 2, 3, 5, 21, 120, 195, 193, 119, 195, 120, 1, 1.20892
105, 2, bw, attraction, a-b-da, 2, 3, 5, 21, 120, 195, 193, 119, 195, 120, 2, 0.239277
105, 2, bw, attraction, a-b-db, 9, 1, 5, 22, 60, 135, 57, 129, 135, 60, 3, 1.84305
105, 2, bw, attraction, a-b-db, 9, 1, 5, 22, 60, 135, 57, 129, 135, 60, 2, 0.623778
105, 2, bw, attraction, a-b-db, 14, 3, 5, 23, 111, 181, 120, 195, 195, 120, 2, 1.94029
105, 2, bw, attraction, a-b-db, 14, 3, 5, 23, 111, 181, 120, 195, 195, 120, 1, 0.644988
105, 2, bw, attraction, a-b-db, 5, 1, 5, 24, 60, 135, 135, 60, 58, 132, 1, 1.68862
105, 2, bw, attraction, a-b-db, 5, 1, 5, 24, 60, 135, 135, 60, 58, 132, 2, 0.803625
105, 2, bw, attraction, a-b-db, 5, 3, 5, 25, 120, 195, 117, 190, 195, 120, 2, 2.74528
105, 2, bw, attraction, a-b-db, 5, 3, 5, 25, 120, 195, 117, 190, 195, 120, 1, 0.45757
105, 2, bw, attraction, a-b-da, 5, 3, 5, 26, 190, 117, 120, 195, 195, 120, 2, 0.756741
105, 2, bw, attraction, a-b-da, 5, 3, 5, 26, 190, 117, 120, 195, 195, 120, 1, 0.48519
105, 2, bw, attraction, a-b-da, 9, 1, 5, 27, 135, 60, 129, 57, 60, 135, 3, 2.23161
105, 2, bw, attraction, a-b-da, 9, 1, 5, 27, 135, 60, 129, 57, 60, 135, 2, 0.332856
105, 2, bw, attraction, a-b-da, 2, 2, 5, 28, 163, 89, 165, 90, 90, 165, 3, 0.709448
105, 2, bw, attraction, a-b-da, 2, 2, 5, 28, 163, 89, 165, 90, 90, 165, 2, 0.24775
105, 2, bw, filler, NA, 999, 999, 5, 29, 180, 69, 164, 187, 161, 108, 2, 0.883602
105, 2, bw, filler, NA, 999, 999, 5, 29, 180, 69, 164, 187, 161, 108, 1, 1.23135
105, 2, bw, attraction, a-b-db, 2, 3, 5, 30, 119, 193, 195, 120, 120, 195, 2, 0.859565
105, 2, bw, attraction, a-b-db, 2, 3, 5, 30, 119, 193, 195, 120, 120, 195, 1, 0.768061
105, 2, bw, attraction, a-b-da, 14, 2, 5, 31, 165, 90, 153, 83, 90, 165, 2, 0.775034
105, 2, bw, attraction, a-b-da, 14, 2, 5, 31, 165, 90, 153, 83, 90, 165, 3, 0.254731
105, 2, bw, catch, NA, 999, 999, 5, 32, 192, 123, 122, 133, 66, 129, 1, 2.41855
105, 2, bw, catch, NA, 999, 999, 5, 32, 192, 123, 122, 133, 66, 129, 3, 0.440454
105, 2, bw, catch, NA, 999, 999, 5, 33, 71, 124, 154, 101, 179, 136, 3, 1.60441
105, 2, bw, catch, NA, 999, 999, 5, 33, 71, 124, 154, 101, 179, 136, 1, 0.378392
105, 2, bw, catch, NA, 999, 999, 5, 34, 61, 134, 130, 185, 107, 148, 2, 1.19294
105, 2, bw, catch, NA, 999, 999, 5, 34, 61, 134, 130, 185, 107, 148, 1, 0.583795
105, 2, bw, filler, NA, 999, 999, 5, 35, 83, 90, 66, 138, 147, 182, 3, 0.910182
105, 2, bw, filler, NA, 999, 999, 5, 35, 83, 90, 66, 138, 147, 182, 1, 0.760739
105, 2, bw, filler, NA, 999, 999, 5, 36, 84, 172, 162, 95, 83, 159, 3, 1.15965
105, 2, bw, filler, NA, 999, 999, 5, 36, 84, 172, 162, 95, 83, 159, 2, 0.399924
105, 2, bw, attraction, a-b-da, 9, 2, 5, 37, 165, 90, 90, 165, 157, 86, 2, 0.813776
105, 2, bw, attraction, a-b-da, 9, 2, 5, 37, 165, 90, 90, 165, 157, 86, 3, 0.292085
105, 2, bw, attraction, a-b-db, 14, 1, 6, 1, 135, 60, 60, 135, 56, 125, 1, 0.629994
105, 2, bw, attraction, a-b-db, 14, 1, 6, 1, 135, 60, 60, 135, 56, 125, 2, 0.267751
105, 2, bw, attraction, a-b-db, 9, 2, 6, 2, 86, 157, 165, 90, 90, 165, 2, 0.847008
105, 2, bw, attraction, a-b-db, 9, 2, 6, 2, 86, 157, 165, 90, 90, 165, 1, 0.235969
105, 2, bw, filler, NA, 999, 999, 6, 3, 144, 188, 189, 182, 62, 117, 2, 1.21653
105, 2, bw, filler, NA, 999, 999, 6, 3, 144, 188, 189, 182, 62, 117, 3, 0.318794
105, 2, bw, attraction, a-b-da, 2, 2, 6, 4, 90, 165, 165, 90, 163, 89, 2, 0.743968
105, 2, bw, attraction, a-b-da, 2, 2, 6, 4, 90, 165, 165, 90, 163, 89, 3, 0.273059
105, 2, bw, attraction, a-b-da, 5, 1, 6, 5, 60, 135, 132, 58, 135, 60, 2, 0.771541
105, 2, bw, attraction, a-b-da, 5, 1, 6, 5, 60, 135, 132, 58, 135, 60, 1, 0.291258
105, 2, bw, filler, NA, 999, 999, 6, 6, 146, 96, 168, 112, 112, 56, 2, 0.469124
105, 2, bw, filler, NA, 999, 999, 6, 6, 146, 96, 168, 112, 112, 56, 3, 1.87369
105, 2, bw, catch, NA, 999, 999, 6, 7, 126, 189, 93, 102, 154, 101, 1, 0.883607
105, 2, bw, catch, NA, 999, 999, 6, 7, 126, 189, 93, 102, 154, 101, 2, 0.407497
105, 2, bw, filler, NA, 999, 999, 6, 8, 125, 111, 66, 181, 64, 165, 2, 3.70043
105, 2, bw, filler, NA, 999, 999, 6, 8, 125, 111, 66, 181, 64, 165, 3, 0.278731
105, 2, bw, attraction, a-b-da, 9, 2, 6, 9, 157, 86, 90, 165, 165, 90, 2, 1.03323
105, 2, bw, attraction, a-b-da, 9, 2, 6, 9, 157, 86, 90, 165, 165, 90, 3, 0.582862
105, 2, bw, attraction, a-b-db, 9, 3, 6, 10, 195, 120, 114, 186, 120, 195, 1, 1.78922
105, 2, bw, attraction, a-b-db, 9, 3, 6, 10, 195, 120, 114, 186, 120, 195, 2, 0.604071
105, 2, bw, filler, NA, 999, 999, 6, 11, 105, 60, 112, 134, 146, 147, 3, 1.59383
105, 2, bw, filler, NA, 999, 999, 6, 11, 105, 60, 112, 134, 146, 147, 1, 0.552466
105, 2, bw, attraction, a-b-da, 9, 1, 6, 12, 60, 135, 135, 60, 129, 57, 1, 1.2964
105, 2, bw, attraction, a-b-da, 9, 1, 6, 12, 60, 135, 135, 60, 129, 57, 3, 0.363176
105, 2, bw, filler, NA, 999, 999, 6, 13, 60, 115, 181, 171, 144, 60, 2, 0.906448
105, 2, bw, filler, NA, 999, 999, 6, 13, 60, 115, 181, 171, 144, 60, 1, 0.708754
105, 2, bw, attraction, a-b-db, 14, 2, 6, 14, 165, 90, 83, 153, 90, 165, 1, 0.837758
105, 2, bw, attraction, a-b-db, 14, 2, 6, 14, 165, 90, 83, 153, 90, 165, 2, 0.234826
105, 2, bw, attraction, a-b-da, 2, 3, 6, 15, 193, 119, 120, 195, 195, 120, 1, 1.05543
105, 2, bw, attraction, a-b-da, 2, 3, 6, 15, 193, 119, 120, 195, 195, 120, 2, 0.283646
105, 2, bw, attraction, a-b-da, 14, 3, 6, 16, 195, 120, 120, 195, 181, 111, 1, 1.0142
105, 2, bw, attraction, a-b-da, 14, 3, 6, 16, 195, 120, 120, 195, 181, 111, 3, 0.52457
105, 2, bw, attraction, a-b-db, 2, 2, 6, 17, 165, 90, 89, 163, 90, 165, 1, 0.621082
105, 2, bw, attraction, a-b-db, 2, 2, 6, 17, 165, 90, 89, 163, 90, 165, 3, 0.354762
105, 2, bw, filler, NA, 999, 999, 6, 18, 68, 102, 102, 106, 156, 90, 3, 3.41064
105, 2, bw, filler, NA, 999, 999, 6, 18, 68, 102, 102, 106, 156, 90, 1, 0.336056
105, 2, bw, attraction, a-b-db, 9, 1, 6, 19, 57, 129, 60, 135, 135, 60, 3, 1.13668
105, 2, bw, attraction, a-b-db, 9, 1, 6, 19, 57, 129, 60, 135, 135, 60, 2, 0.570365
105, 2, bw, attraction, a-b-da, 2, 1, 6, 20, 134, 59, 60, 135, 135, 60, 1, 0.831192
105, 2, bw, attraction, a-b-da, 2, 1, 6, 20, 134, 59, 60, 135, 135, 60, 2, 0.295125
105, 2, bw, filler, NA, 999, 999, 6, 21, 90, 58, 84, 88, 99, 106, 3, 1.60102
105, 2, bw, filler, NA, 999, 999, 6, 21, 90, 58, 84, 88, 99, 106, 1, 1.47975
105, 2, bw, attraction, a-b-db, 2, 3, 6, 22, 119, 193, 120, 195, 195, 120, 2, 1.33783
105, 2, bw, attraction, a-b-db, 2, 3, 6, 22, 119, 193, 120, 195, 195, 120, 3, 0.226927
105, 2, bw, attraction, a-b-db, 2, 1, 6, 23, 59, 134, 60, 135, 135, 60, 1, 0.975266
105, 2, bw, attraction, a-b-db, 2, 1, 6, 23, 59, 134, 60, 135, 135, 60, 2, 0.40693
105, 2, bw, attraction, a-b-da, 5, 2, 6, 24, 90, 165, 161, 88, 165, 90, 1, 0.884064
105, 2, bw, attraction, a-b-da, 5, 2, 6, 24, 90, 165, 161, 88, 165, 90, 2, 0.671866
105, 2, bw, attraction, a-b-da, 14, 2, 6, 25, 153, 83, 90, 165, 165, 90, 1, 0.762848
105, 2, bw, attraction, a-b-da, 14, 2, 6, 25, 153, 83, 90, 165, 165, 90, 2, 0.355275
105, 2, bw, catch, NA, 999, 999, 6, 26, 107, 148, 115, 80, 162, 153, 3, 1.96321
105, 2, bw, catch, NA, 999, 999, 6, 26, 107, 148, 115, 80, 162, 153, 2, 0.931162
105, 2, bw, attraction, a-b-db, 5, 2, 6, 27, 90, 165, 88, 161, 165, 90, 3, 1.53151
105, 2, bw, attraction, a-b-db, 5, 2, 6, 27, 90, 165, 88, 161, 165, 90, 2, 0.308975
105, 2, bw, attraction, a-b-da, 9, 3, 6, 28, 195, 120, 120, 195, 186, 114, 1, 0.774167
105, 2, bw, attraction, a-b-da, 9, 3, 6, 28, 195, 120, 120, 195, 186, 114, 2, 0.261869
105, 2, bw, attraction, a-b-db, 14, 3, 6, 29, 195, 120, 111, 181, 120, 195, 1, 0.761132
105, 2, bw, attraction, a-b-db, 14, 3, 6, 29, 195, 120, 111, 181, 120, 195, 2, 0.361451
105, 2, bw, filler, NA, 999, 999, 6, 30, 190, 168, 111, 66, 73, 114, 1, 0.824695
105, 2, bw, filler, NA, 999, 999, 6, 30, 190, 168, 111, 66, 73, 114, 2, 2.57436
105, 2, bw, attraction, a-b-da, 14, 1, 6, 31, 125, 56, 135, 60, 60, 135, 1, 0.964137
105, 2, bw, attraction, a-b-da, 14, 1, 6, 31, 125, 56, 135, 60, 60, 135, 2, 0.604415
105, 2, bw, filler, NA, 999, 999, 6, 32, 114, 150, 163, 192, 65, 146, 2, 1.02629
105, 2, bw, filler, NA, 999, 999, 6, 32, 114, 150, 163, 192, 65, 146, 3, 1.08794
105, 2, bw, catch, NA, 999, 999, 6, 33, 160, 155, 133, 62, 157, 98, 1, 1.3062
105, 2, bw, catch, NA, 999, 999, 6, 33, 160, 155, 133, 62, 157, 98, 2, 0.564375
105, 2, bw, filler, NA, 999, 999, 6, 34, 63, 137, 112, 158, 193, 152, 3, 1.10747
105, 2, bw, filler, NA, 999, 999, 6, 34, 63, 137, 112, 158, 193, 152, 1, 0.573781
105, 2, bw, attraction, a-b-db, 5, 3, 6, 35, 195, 120, 117, 190, 120, 195, 1, 1.10023
105, 2, bw, attraction, a-b-db, 5, 3, 6, 35, 195, 120, 117, 190, 120, 195, 3, 0.575209
105, 2, bw, attraction, a-b-db, 5, 1, 6, 36, 60, 135, 58, 132, 135, 60, 1, 1.10161
105, 2, bw, attraction, a-b-db, 5, 1, 6, 36, 60, 135, 58, 132, 135, 60, 2, 0.344554
105, 2, bw, attraction, a-b-da, 5, 3, 6, 37, 195, 120, 120, 195, 190, 117, 1, 0.984414
105, 2, bw, attraction, a-b-da, 5, 3, 6, 37, 195, 120, 120, 195, 190, 117, 2, 0.304044
105, 2, bw, attraction, a-b-db, 5, 3, 7, 1, 120, 195, 117, 190, 195, 120, 2, 0.625992
105, 2, bw, attraction, a-b-db, 5, 3, 7, 1, 120, 195, 117, 190, 195, 120, 1, 0.263635
105, 2, bw, attraction, a-b-db, 14, 2, 7, 2, 83, 153, 90, 165, 165, 90, 2, 1.46682
105, 2, bw, attraction, a-b-db, 14, 2, 7, 2, 83, 153, 90, 165, 165, 90, 3, 0.455114
105, 2, bw, filler, NA, 999, 999, 7, 3, 152, 100, 172, 178, 100, 67, 2, 0.682842
105, 2, bw, filler, NA, 999, 999, 7, 3, 152, 100, 172, 178, 100, 67, 3, 0.526721
105, 2, bw, attraction, a-b-da, 5, 2, 7, 4, 165, 90, 161, 88, 90, 165, 2, 0.574993
105, 2, bw, attraction, a-b-da, 5, 2, 7, 4, 165, 90, 161, 88, 90, 165, 3, 0.238933
105, 2, bw, attraction, a-b-da, 2, 2, 7, 5, 163, 89, 165, 90, 90, 165, 2, 0.931438
105, 2, bw, attraction, a-b-da, 2, 2, 7, 5, 163, 89, 165, 90, 90, 165, 3, 1.12512
105, 2, bw, attraction, a-b-da, 2, 3, 7, 6, 120, 195, 193, 119, 195, 120, 1, 1.38154
105, 2, bw, attraction, a-b-da, 2, 3, 7, 6, 120, 195, 193, 119, 195, 120, 2, 0.260855
105, 2, bw, attraction, a-b-db, 2, 3, 7, 7, 195, 120, 120, 195, 119, 193, 1, 0.808085
105, 2, bw, attraction, a-b-db, 2, 3, 7, 7, 195, 120, 120, 195, 119, 193, 2, 0.286441
105, 2, bw, attraction, a-b-da, 14, 3, 7, 8, 195, 120, 181, 111, 120, 195, 1, 0.76099
105, 2, bw, attraction, a-b-da, 14, 3, 7, 8, 195, 120, 181, 111, 120, 195, 2, 0.273373
105, 2, bw, attraction, a-b-db, 2, 2, 7, 9, 165, 90, 89, 163, 90, 165, 1, 1.57993
105, 2, bw, attraction, a-b-db, 2, 2, 7, 9, 165, 90, 89, 163, 90, 165, 2, 0.251394
105, 2, bw, filler, NA, 999, 999, 7, 10, 111, 147, 118, 87, 69, 150, 1, 2.2953
105, 2, bw, filler, NA, 999, 999, 7, 10, 111, 147, 118, 87, 69, 150, 2, 1.25777
105, 2, bw, filler, NA, 999, 999, 7, 11, 99, 93, 75, 119, 173, 163, 3, 1.6927
105, 2, bw, filler, NA, 999, 999, 7, 11, 99, 93, 75, 119, 173, 163, 1, 1.28761
105, 2, bw, attraction, a-b-da, 9, 3, 7, 12, 120, 195, 186, 114, 195, 120, 1, 0.945708
105, 2, bw, attraction, a-b-da, 9, 3, 7, 12, 120, 195, 186, 114, 195, 120, 2, 0.290696
105, 2, bw, filler, NA, 999, 999, 7, 13, 190, 89, 111, 59, 73, 164, 1, 2.43665
105, 2, bw, filler, NA, 999, 999, 7, 13, 190, 89, 111, 59, 73, 164, 2, 0.753945
105, 2, bw, catch, NA, 999, 999, 7, 14, 175, 140, 75, 120, 155, 100, 1, 1.54551
105, 2, bw, catch, NA, 999, 999, 7, 14, 175, 140, 75, 120, 155, 100, 2, 0.378307
105, 2, bw, attraction, a-b-da, 2, 1, 7, 15, 60, 135, 134, 59, 135, 60, 1, 0.784899
105, 2, bw, attraction, a-b-da, 2, 1, 7, 15, 60, 135, 134, 59, 135, 60, 2, 0.248559
105, 2, bw, attraction, a-b-db, 2, 1, 7, 16, 135, 60, 59, 134, 60, 135, 1, 0.924366
105, 2, bw, attraction, a-b-db, 2, 1, 7, 16, 135, 60, 59, 134, 60, 135, 2, 0.350167
105, 2, bw, attraction, a-b-db, 5, 2, 7, 17, 88, 161, 90, 165, 165, 90, 2, 2.64588
105, 2, bw, attraction, a-b-db, 5, 2, 7, 17, 88, 161, 90, 165, 165, 90, 3, 0.346371
105, 2, bw, catch, NA, 999, 999, 7, 18, 180, 135, 98, 157, 134, 61, 1, 0.866184
105, 2, bw, catch, NA, 999, 999, 7, 18, 180, 135, 98, 157, 134, 61, 3, 0.646741
105, 2, bw, filler, NA, 999, 999, 7, 19, 181, 96, 108, 91, 96, 194, 3, 2.5703
105, 2, bw, filler, NA, 999, 999, 7, 19, 181, 96, 108, 91, 96, 194, 2, 0.569428
105, 2, bw, filler, NA, 999, 999, 7, 20, 136, 159, 102, 96, 82, 94, 1, 1.11249
105, 2, bw, filler, NA, 999, 999, 7, 20, 136, 159, 102, 96, 82, 94, 3, 1.64295
105, 2, bw, attraction, a-b-db, 9, 3, 7, 21, 120, 195, 195, 120, 114, 186, 1, 1.07034
105, 2, bw, attraction, a-b-db, 9, 3, 7, 21, 120, 195, 195, 120, 114, 186, 2, 0.289877
105, 2, bw, attraction, a-b-db, 14, 1, 7, 22, 56, 125, 60, 135, 135, 60, 2, 1.24394
105, 2, bw, attraction, a-b-db, 14, 1, 7, 22, 56, 125, 60, 135, 135, 60, 1, 0.392689
105, 2, bw, filler, NA, 999, 999, 7, 23, 132, 82, 152, 152, 151, 57, 2, 0.58246
105, 2, bw, filler, NA, 999, 999, 7, 23, 132, 82, 152, 152, 151, 57, 1, 3.45426
105, 2, bw, filler, NA, 999, 999, 7, 24, 64, 155, 189, 120, 103, 158, 2, 1.34526
105, 2, bw, filler, NA, 999, 999, 7, 24, 64, 155, 189, 120, 103, 158, 1, 1.02611
105, 2, bw, filler, NA, 999, 999, 7, 25, 141, 168, 97, 101, 191, 161, 3, 0.99829
105, 2, bw, filler, NA, 999, 999, 7, 25, 141, 168, 97, 101, 191, 161, 2, 0.389249
105, 2, bw, catch, NA, 999, 999, 7, 26, 70, 125, 171, 144, 91, 164, 2, 1.05924
105, 2, bw, catch, NA, 999, 999, 7, 26, 70, 125, 171, 144, 91, 164, 1, 0.431476
105, 2, bw, attraction, a-b-da, 14, 2, 7, 27, 153, 83, 165, 90, 90, 165, 1, 0.835943
105, 2, bw, attraction, a-b-da, 14, 2, 7, 27, 153, 83, 165, 90, 90, 165, 2, 0.569586
105, 2, bw, attraction, a-b-da, 14, 1, 7, 28, 135, 60, 60, 135, 125, 56, 1, 0.848737
105, 2, bw, attraction, a-b-da, 14, 1, 7, 28, 135, 60, 60, 135, 125, 56, 2, 0.245846
105, 2, bw, attraction, a-b-da, 5, 1, 7, 29, 132, 58, 60, 135, 135, 60, 3, 0.60961
105, 2, bw, attraction, a-b-da, 5, 1, 7, 29, 132, 58, 60, 135, 135, 60, 2, 0.312209
105, 2, bw, attraction, a-b-db, 5, 1, 7, 30, 135, 60, 60, 135, 58, 132, 3, 1.03323
105, 2, bw, attraction, a-b-db, 5, 1, 7, 30, 135, 60, 60, 135, 58, 132, 2, 0.326892
105, 2, bw, filler, NA, 999, 999, 7, 31, 178, 61, 142, 180, 69, 86, 2, 1.60742
105, 2, bw, filler, NA, 999, 999, 7, 31, 178, 61, 142, 180, 69, 86, 3, 1.02172
105, 2, bw, attraction, a-b-db, 14, 3, 7, 32, 111, 181, 120, 195, 195, 120, 2, 0.938557
105, 2, bw, attraction, a-b-db, 14, 3, 7, 32, 111, 181, 120, 195, 195, 120, 1, 0.347483
105, 2, bw, attraction, a-b-da, 9, 2, 7, 33, 90, 165, 165, 90, 157, 86, 1, 0.787316
105, 2, bw, attraction, a-b-da, 9, 2, 7, 33, 90, 165, 165, 90, 157, 86, 2, 0.258443
105, 2, bw, attraction, a-b-da, 9, 1, 7, 34, 129, 57, 60, 135, 135, 60, 1, 0.597578
105, 2, bw, attraction, a-b-da, 9, 1, 7, 34, 129, 57, 60, 135, 135, 60, 2, 0.284679
105, 2, bw, attraction, a-b-da, 5, 3, 7, 35, 120, 195, 190, 117, 195, 120, 2, 0.551418
105, 2, bw, attraction, a-b-da, 5, 3, 7, 35, 120, 195, 190, 117, 195, 120, 3, 0.248413
105, 2, bw, attraction, a-b-db, 9, 2, 7, 36, 86, 157, 165, 90, 90, 165, 2, 0.572224
105, 2, bw, attraction, a-b-db, 9, 2, 7, 36, 86, 157, 165, 90, 90, 165, 3, 0.260054
105, 2, bw, attraction, a-b-db, 9, 1, 7, 37, 135, 60, 60, 135, 57, 129, 1, 0.767252
105, 2, bw, attraction, a-b-db, 9, 1, 7, 37, 135, 60, 60, 135, 57, 129, 2, 0.335652
105, 2, bw, attraction, a-b-da, 2, 2, 8, 1, 165, 90, 163, 89, 90, 165, 1, 1.52806
105, 2, bw, attraction, a-b-da, 2, 2, 8, 1, 165, 90, 163, 89, 90, 165, 2, 1.08167
105, 2, bw, attraction, a-b-da, 5, 1, 8, 2, 132, 58, 60, 135, 135, 60, 3, 1.45201
105, 2, bw, attraction, a-b-da, 5, 1, 8, 2, 132, 58, 60, 135, 135, 60, 2, 0.696844
105, 2, bw, attraction, a-b-db, 5, 2, 8, 3, 90, 165, 165, 90, 88, 161, 1, 0.94648
105, 2, bw, attraction, a-b-db, 5, 2, 8, 3, 90, 165, 165, 90, 88, 161, 2, 0.611536
105, 2, bw, attraction, a-b-db, 9, 3, 8, 4, 114, 186, 120, 195, 195, 120, 3, 1.68862
105, 2, bw, attraction, a-b-db, 9, 3, 8, 4, 114, 186, 120, 195, 195, 120, 2, 0.299419
105, 2, bw, attraction, a-b-da, 2, 3, 8, 5, 193, 119, 120, 195, 195, 120, 2, 0.733249
105, 2, bw, attraction, a-b-da, 2, 3, 8, 5, 193, 119, 120, 195, 195, 120, 3, 0.231077
105, 2, bw, filler, NA, 999, 999, 8, 6, 135, 73, 112, 173, 84, 134, 2, 1.41951
105, 2, bw, filler, NA, 999, 999, 8, 6, 135, 73, 112, 173, 84, 134, 1, 0.79371
105, 2, bw, attraction, a-b-db, 5, 1, 8, 7, 58, 132, 60, 135, 135, 60, 2, 0.975358
105, 2, bw, attraction, a-b-db, 5, 1, 8, 7, 58, 132, 60, 135, 135, 60, 3, 0.87909
105, 2, bw, attraction, a-b-da, 14, 3, 8, 8, 120, 195, 195, 120, 181, 111, 1, 2.10533
105, 2, bw, attraction, a-b-da, 14, 3, 8, 8, 120, 195, 195, 120, 181, 111, 3, 2.09945
105, 2, bw, catch, NA, 999, 999, 8, 9, 122, 73, 173, 142, 110, 145, 2, 1.50056
105, 2, bw, catch, NA, 999, 999, 8, 9, 122, 73, 173, 142, 110, 145, 1, 3.45559
105, 2, bw, attraction, a-b-da, 9, 3, 8, 10, 186, 114, 195, 120, 120, 195, 2, 0.882335
105, 2, bw, attraction, a-b-da, 9, 3, 8, 10, 186, 114, 195, 120, 120, 195, 1, 0.246086
105, 2, bw, attraction, a-b-db, 2, 3, 8, 11, 119, 193, 120, 195, 195, 120, 2, 0.666078
105, 2, bw, attraction, a-b-db, 2, 3, 8, 11, 119, 193, 120, 195, 195, 120, 3, 0.254362
105, 2, bw, filler, NA, 999, 999, 8, 12, 179, 110, 153, 66, 141, 56, 1, 1.40224
105, 2, bw, filler, NA, 999, 999, 8, 12, 179, 110, 153, 66, 141, 56, 3, 0.593112
105, 2, bw, filler, NA, 999, 999, 8, 13, 128, 65, 168, 189, 79, 176, 2, 0.934825
105, 2, bw, filler, NA, 999, 999, 8, 13, 128, 65, 168, 189, 79, 176, 1, 0.680579
105, 2, bw, attraction, a-b-db, 14, 2, 8, 14, 83, 153, 165, 90, 90, 165, 1, 0.81091
105, 2, bw, attraction, a-b-db, 14, 2, 8, 14, 83, 153, 165, 90, 90, 165, 2, 0.617512
105, 2, bw, attraction, a-b-da, 14, 1, 8, 15, 125, 56, 135, 60, 60, 135, 2, 1.13441
105, 2, bw, attraction, a-b-da, 14, 1, 8, 15, 125, 56, 135, 60, 60, 135, 1, 0.303975
105, 2, bw, attraction, a-b-da, 5, 3, 8, 16, 190, 117, 195, 120, 120, 195, 2, 1.17788
105, 2, bw, attraction, a-b-da, 5, 3, 8, 16, 190, 117, 195, 120, 120, 195, 1, 0.281532
105, 2, bw, filler, NA, 999, 999, 8, 17, 117, 121, 143, 63, 106, 171, 3, 4.33199
105, 2, bw, filler, NA, 999, 999, 8, 17, 117, 121, 143, 63, 106, 171, 2, 6.55676
105, 2, bw, attraction, a-b-da, 9, 2, 8, 18, 165, 90, 157, 86, 90, 165, 2, 1.1226
105, 2, bw, attraction, a-b-da, 9, 2, 8, 18, 165, 90, 157, 86, 90, 165, 3, 0.196103
105, 2, bw, attraction, a-b-db, 9, 2, 8, 19, 90, 165, 165, 90, 86, 157, 2, 0.86602
105, 2, bw, attraction, a-b-db, 9, 2, 8, 19, 90, 165, 165, 90, 86, 157, 3, 0.638412
105, 2, bw, attraction, a-b-da, 2, 1, 8, 20, 60, 135, 135, 60, 134, 59, 1, 0.954782
105, 2, bw, attraction, a-b-da, 2, 1, 8, 20, 60, 135, 135, 60, 134, 59, 2, 0.283107
105, 2, bw, attraction, a-b-da, 9, 1, 8, 21, 129, 57, 135, 60, 60, 135, 1, 0.653575
105, 2, bw, attraction, a-b-da, 9, 1, 8, 21, 129, 57, 135, 60, 60, 135, 2, 0.354214
105, 2, bw, filler, NA, 999, 999, 8, 22, 98, 143, 63, 96, 187, 114, 3, 1.01794
105, 2, bw, filler, NA, 999, 999, 8, 22, 98, 143, 63, 96, 187, 114, 2, 0.552225
105, 2, bw, catch, NA, 999, 999, 8, 23, 189, 126, 90, 105, 159, 96, 1, 0.752046
105, 2, bw, catch, NA, 999, 999, 8, 23, 189, 126, 90, 105, 159, 96, 2, 0.585155
105, 2, bw, catch, NA, 999, 999, 8, 24, 162, 153, 126, 69, 128, 127, 1, 0.927481
105, 2, bw, catch, NA, 999, 999, 8, 24, 162, 153, 126, 69, 128, 127, 2, 0.641186
105, 2, bw, attraction, a-b-db, 14, 3, 8, 25, 111, 181, 120, 195, 195, 120, 2, 1.01302
105, 2, bw, attraction, a-b-db, 14, 3, 8, 25, 111, 181, 120, 195, 195, 120, 3, 0.339222
105, 2, bw, attraction, a-b-da, 5, 2, 8, 26, 90, 165, 165, 90, 161, 88, 2, 0.563134
105, 2, bw, attraction, a-b-da, 5, 2, 8, 26, 90, 165, 165, 90, 161, 88, 1, 0.283596
105, 2, bw, attraction, a-b-db, 14, 1, 8, 27, 56, 125, 135, 60, 60, 135, 2, 0.510152
105, 2, bw, attraction, a-b-db, 14, 1, 8, 27, 56, 125, 135, 60, 60, 135, 3, 0.264629
105, 2, bw, filler, NA, 999, 999, 8, 28, 184, 150, 133, 169, 171, 85, 1, 4.83581
105, 2, bw, filler, NA, 999, 999, 8, 28, 184, 150, 133, 169, 171, 85, 3, 0.568182
105, 2, bw, filler, NA, 999, 999, 8, 29, 154, 70, 186, 88, 126, 111, 2, 3.6393
105, 2, bw, filler, NA, 999, 999, 8, 29, 154, 70, 186, 88, 126, 111, 1, 0.379388
105, 2, bw, filler, NA, 999, 999, 8, 30, 186, 161, 141, 123, 187, 121, 1, 4.83403
105, 2, bw, filler, NA, 999, 999, 8, 30, 186, 161, 141, 123, 187, 121, 2, 0.430394
105, 2, bw, attraction, a-b-da, 14, 2, 8, 31, 153, 83, 165, 90, 90, 165, 2, 4.94694
105, 2, bw, attraction, a-b-da, 14, 2, 8, 31, 153, 83, 165, 90, 90, 165, 1, 0.36266
105, 2, bw, attraction, a-b-db, 2, 1, 8, 32, 60, 135, 135, 60, 59, 134, 2, 4.41781
105, 2, bw, attraction, a-b-db, 2, 1, 8, 32, 60, 135, 135, 60, 59, 134, 1, 0.263076
105, 2, bw, attraction, a-b-db, 2, 2, 8, 33, 90, 165, 165, 90, 89, 163, 1, 1.77825
105, 2, bw, attraction, a-b-db, 2, 2, 8, 33, 90, 165, 165, 90, 89, 163, 2, 0.249673
105, 2, bw, attraction, a-b-db, 9, 1, 8, 34, 60, 135, 57, 129, 135, 60, 2, 1.52561
105, 2, bw, attraction, a-b-db, 9, 1, 8, 34, 60, 135, 57, 129, 135, 60, 3, 0.382954
105, 2, bw, filler, NA, 999, 999, 8, 35, 144, 128, 151, 128, 178, 66, 2, 1.99749
105, 2, bw, filler, NA, 999, 999, 8, 35, 144, 128, 151, 128, 178, 66, 3, 0.428289
105, 2, bw, filler, NA, 999, 999, 8, 36, 121, 149, 118, 146, 132, 100, 1, 2.59272
105, 2, bw, filler, NA, 999, 999, 8, 36, 121, 149, 118, 146, 132, 100, 3, 0.519192
105, 2, bw, attraction, a-b-db, 5, 3, 8, 37, 117, 190, 120, 195, 195, 120, 2, 1.89631
105, 2, bw, attraction, a-b-db, 5, 3, 8, 37, 117, 190, 120, 195, 195, 120, 3, 0.299096
