sub_n, computer_n, bw_cond, effect, set, distance, diag, block_n, trial_n, h1, w1, h2, w2, h3, w3, choice, rt 
187, 2, bw, practice, NA, 999, 999, 0, 1, 103, 139, 179, 184, 181, 92, 2, 3.5588
187, 2, bw, practice, NA, 999, 999, 0, 1, 103, 139, 179, 184, 181, 92, 1, 4.58634
187, 2, bw, practice, NA, 999, 999, 0, 2, 137, 114, 81, 68, 77, 77, 1, 3.08264
187, 2, bw, practice, NA, 999, 999, 0, 2, 137, 114, 81, 68, 77, 77, 2, 8.36645
187, 2, bw, practice, NA, 999, 999, 0, 3, 82, 163, 151, 79, 128, 156, 3, 2.43964
187, 2, bw, practice, NA, 999, 999, 0, 3, 82, 163, 151, 79, 128, 156, 2, 4.20342
187, 2, bw, attraction, a-b-da, 5, 3, 1, 1, 195, 120, 190, 117, 120, 195, 3, 16.3063
187, 2, bw, attraction, a-b-da, 5, 3, 1, 1, 195, 120, 190, 117, 120, 195, 1, 3.63241
187, 2, bw, filler, NA, 999, 999, 1, 2, 87, 140, 127, 190, 115, 102, 2, 1.56392
187, 2, bw, filler, NA, 999, 999, 1, 2, 87, 140, 127, 190, 115, 102, 1, 11.3321
187, 2, bw, attraction, a-b-db, 2, 1, 1, 3, 60, 135, 135, 60, 59, 134, 3, 2.56924
187, 2, bw, attraction, a-b-db, 2, 1, 1, 3, 60, 135, 135, 60, 59, 134, 2, 1.23313
187, 2, bw, filler, NA, 999, 999, 1, 4, 187, 94, 58, 64, 120, 106, 1, 1.66918
187, 2, bw, filler, NA, 999, 999, 1, 4, 187, 94, 58, 64, 120, 106, 2, 0.96938
187, 2, bw, catch, NA, 999, 999, 1, 5, 184, 131, 68, 127, 140, 115, 1, 1.72832
187, 2, bw, catch, NA, 999, 999, 1, 5, 184, 131, 68, 127, 140, 115, 2, 0.665748
187, 2, bw, attraction, a-b-db, 14, 2, 1, 6, 90, 165, 83, 153, 165, 90, 1, 10.7167
187, 2, bw, attraction, a-b-db, 14, 2, 1, 6, 90, 165, 83, 153, 165, 90, 3, 0.932293
187, 2, bw, catch, NA, 999, 999, 1, 7, 193, 122, 165, 90, 125, 70, 1, 1.59649
187, 2, bw, catch, NA, 999, 999, 1, 7, 193, 122, 165, 90, 125, 70, 3, 1.09134
187, 2, bw, attraction, a-b-da, 9, 3, 1, 8, 186, 114, 120, 195, 195, 120, 2, 3.25294
187, 2, bw, attraction, a-b-da, 9, 3, 1, 8, 186, 114, 120, 195, 195, 120, 1, 0.697108
187, 2, bw, attraction, a-b-db, 2, 2, 1, 9, 165, 90, 89, 163, 90, 165, 3, 4.56279
187, 2, bw, attraction, a-b-db, 2, 2, 1, 9, 165, 90, 89, 163, 90, 165, 1, 2.01801
187, 2, bw, filler, NA, 999, 999, 1, 10, 56, 117, 96, 63, 168, 190, 3, 0.958783
187, 2, bw, filler, NA, 999, 999, 1, 10, 56, 117, 96, 63, 168, 190, 2, 1.95103
187, 2, bw, filler, NA, 999, 999, 1, 11, 106, 144, 88, 77, 80, 56, 1, 1.06227
187, 2, bw, filler, NA, 999, 999, 1, 11, 106, 144, 88, 77, 80, 56, 3, 0.706741
187, 2, bw, attraction, a-b-db, 5, 1, 1, 12, 135, 60, 58, 132, 60, 135, 2, 4.1477
187, 2, bw, attraction, a-b-db, 5, 1, 1, 12, 135, 60, 58, 132, 60, 135, 1, 3.5079
187, 2, bw, filler, NA, 999, 999, 1, 13, 99, 72, 69, 148, 80, 146, 3, 4.17994
187, 2, bw, filler, NA, 999, 999, 1, 13, 99, 72, 69, 148, 80, 146, 1, 0.858629
187, 2, bw, attraction, a-b-db, 14, 3, 1, 14, 195, 120, 120, 195, 111, 181, 2, 2.30156
187, 2, bw, attraction, a-b-db, 14, 3, 1, 14, 195, 120, 120, 195, 111, 181, 3, 0.816304
187, 2, bw, filler, NA, 999, 999, 1, 15, 105, 156, 144, 172, 70, 135, 2, 1.28518
187, 2, bw, filler, NA, 999, 999, 1, 15, 105, 156, 144, 172, 70, 135, 3, 0.656765
187, 2, bw, attraction, a-b-da, 14, 3, 1, 16, 120, 195, 181, 111, 195, 120, 1, 3.29179
187, 2, bw, attraction, a-b-da, 14, 3, 1, 16, 120, 195, 181, 111, 195, 120, 2, 0.510112
187, 2, bw, attraction, a-b-db, 2, 3, 1, 17, 119, 193, 195, 120, 120, 195, 3, 2.78328
187, 2, bw, attraction, a-b-db, 2, 3, 1, 17, 119, 193, 195, 120, 120, 195, 2, 0.534269
187, 2, bw, attraction, a-b-da, 5, 1, 1, 18, 132, 58, 135, 60, 60, 135, 3, 3.83881
187, 2, bw, attraction, a-b-da, 5, 1, 1, 18, 132, 58, 135, 60, 60, 135, 1, 0.475072
187, 2, bw, attraction, a-b-db, 5, 2, 1, 19, 90, 165, 88, 161, 165, 90, 2, 4.5254
187, 2, bw, attraction, a-b-db, 5, 2, 1, 19, 90, 165, 88, 161, 165, 90, 3, 0.397888
187, 2, bw, attraction, a-b-da, 9, 1, 1, 20, 60, 135, 129, 57, 135, 60, 1, 4.45164
187, 2, bw, attraction, a-b-da, 9, 1, 1, 20, 60, 135, 129, 57, 135, 60, 3, 0.767592
187, 2, bw, filler, NA, 999, 999, 1, 21, 190, 74, 182, 142, 182, 147, 3, 3.33465
187, 2, bw, filler, NA, 999, 999, 1, 21, 190, 74, 182, 142, 182, 147, 1, 0.967728
187, 2, bw, attraction, a-b-db, 14, 1, 1, 22, 60, 135, 135, 60, 56, 125, 1, 2.66256
187, 2, bw, attraction, a-b-db, 14, 1, 1, 22, 60, 135, 135, 60, 56, 125, 2, 0.73056
187, 2, bw, attraction, a-b-da, 2, 1, 1, 23, 60, 135, 135, 60, 134, 59, 1, 1.43474
187, 2, bw, attraction, a-b-da, 2, 1, 1, 23, 60, 135, 135, 60, 134, 59, 3, 0.464262
187, 2, bw, attraction, a-b-da, 14, 1, 1, 24, 60, 135, 135, 60, 125, 56, 1, 3.3474
187, 2, bw, attraction, a-b-da, 14, 1, 1, 24, 60, 135, 135, 60, 125, 56, 3, 0.531616
187, 2, bw, filler, NA, 999, 999, 1, 25, 182, 116, 115, 190, 133, 160, 2, 2.89208
187, 2, bw, filler, NA, 999, 999, 1, 25, 182, 116, 115, 190, 133, 160, 1, 5.13461
187, 2, bw, attraction, a-b-db, 9, 3, 1, 26, 114, 186, 120, 195, 195, 120, 2, 2.84557
187, 2, bw, attraction, a-b-db, 9, 3, 1, 26, 114, 186, 120, 195, 195, 120, 3, 2.04997
187, 2, bw, attraction, a-b-da, 5, 2, 1, 27, 161, 88, 90, 165, 165, 90, 2, 4.14924
187, 2, bw, attraction, a-b-da, 5, 2, 1, 27, 161, 88, 90, 165, 165, 90, 3, 1.32523
187, 2, bw, filler, NA, 999, 999, 1, 28, 117, 121, 169, 60, 103, 102, 1, 4.22954
187, 2, bw, filler, NA, 999, 999, 1, 28, 117, 121, 169, 60, 103, 102, 3, 2.71436
187, 2, bw, filler, NA, 999, 999, 1, 29, 74, 68, 144, 119, 143, 133, 3, 1.9305
187, 2, bw, filler, NA, 999, 999, 1, 29, 74, 68, 144, 119, 143, 133, 1, 0.923887
187, 2, bw, attraction, a-b-db, 9, 1, 1, 30, 57, 129, 60, 135, 135, 60, 3, 4.37227
187, 2, bw, attraction, a-b-db, 9, 1, 1, 30, 57, 129, 60, 135, 135, 60, 1, 0.474799
187, 2, bw, attraction, a-b-da, 2, 3, 1, 31, 193, 119, 120, 195, 195, 120, 2, 2.62134
187, 2, bw, attraction, a-b-da, 2, 3, 1, 31, 193, 119, 120, 195, 195, 120, 1, 3.40247
187, 2, bw, attraction, a-b-da, 9, 2, 1, 32, 165, 90, 90, 165, 157, 86, 2, 2.71129
187, 2, bw, attraction, a-b-da, 9, 2, 1, 32, 165, 90, 90, 165, 157, 86, 3, 1.60114
187, 2, bw, attraction, a-b-da, 2, 2, 1, 33, 163, 89, 90, 165, 165, 90, 2, 6.3666
187, 2, bw, attraction, a-b-da, 2, 2, 1, 33, 163, 89, 90, 165, 165, 90, 3, 0.821204
187, 2, bw, catch, NA, 999, 999, 1, 34, 134, 61, 105, 150, 166, 149, 3, 1.13017
187, 2, bw, catch, NA, 999, 999, 1, 34, 134, 61, 105, 150, 166, 149, 1, 0.611813
187, 2, bw, attraction, a-b-db, 9, 2, 1, 35, 90, 165, 86, 157, 165, 90, 1, 3.52095
187, 2, bw, attraction, a-b-db, 9, 2, 1, 35, 90, 165, 86, 157, 165, 90, 3, 0.730495
187, 2, bw, attraction, a-b-da, 14, 2, 1, 36, 165, 90, 153, 83, 90, 165, 3, 3.53882
187, 2, bw, attraction, a-b-da, 14, 2, 1, 36, 165, 90, 153, 83, 90, 165, 2, 0.683032
187, 2, bw, attraction, a-b-db, 5, 3, 1, 37, 117, 190, 120, 195, 195, 120, 2, 3.73345
187, 2, bw, attraction, a-b-db, 5, 3, 1, 37, 117, 190, 120, 195, 195, 120, 1, 3.83038
187, 2, bw, attraction, a-b-db, 14, 3, 2, 1, 120, 195, 195, 120, 111, 181, 1, 3.28167
187, 2, bw, attraction, a-b-db, 14, 3, 2, 1, 120, 195, 195, 120, 111, 181, 3, 0.556564
187, 2, bw, attraction, a-b-da, 5, 2, 2, 2, 165, 90, 161, 88, 90, 165, 3, 2.69978
187, 2, bw, attraction, a-b-da, 5, 2, 2, 2, 165, 90, 161, 88, 90, 165, 2, 0.446155
187, 2, bw, attraction, a-b-da, 9, 2, 2, 3, 157, 86, 90, 165, 165, 90, 2, 8.49806
187, 2, bw, attraction, a-b-da, 9, 2, 2, 3, 157, 86, 90, 165, 165, 90, 3, 0.970649
187, 2, bw, attraction, a-b-db, 14, 2, 2, 4, 165, 90, 90, 165, 83, 153, 2, 3.83359
187, 2, bw, attraction, a-b-db, 14, 2, 2, 4, 165, 90, 90, 165, 83, 153, 3, 1.95846
187, 2, bw, filler, NA, 999, 999, 2, 5, 173, 67, 119, 164, 177, 161, 3, 1.501
187, 2, bw, filler, NA, 999, 999, 2, 5, 173, 67, 119, 164, 177, 161, 1, 0.59991
187, 2, bw, catch, NA, 999, 999, 2, 6, 110, 145, 128, 187, 78, 117, 2, 1.06156
187, 2, bw, catch, NA, 999, 999, 2, 6, 110, 145, 128, 187, 78, 117, 3, 0.433919
187, 2, bw, attraction, a-b-db, 5, 3, 2, 7, 195, 120, 120, 195, 117, 190, 1, 2.4624
187, 2, bw, attraction, a-b-db, 5, 3, 2, 7, 195, 120, 120, 195, 117, 190, 3, 0.514224
187, 2, bw, attraction, a-b-da, 5, 1, 2, 8, 60, 135, 135, 60, 132, 58, 1, 3.22746
187, 2, bw, attraction, a-b-da, 5, 1, 2, 8, 60, 135, 135, 60, 132, 58, 3, 0.928393
187, 2, bw, attraction, a-b-db, 2, 2, 2, 9, 90, 165, 165, 90, 89, 163, 3, 5.36073
187, 2, bw, attraction, a-b-db, 2, 2, 2, 9, 90, 165, 165, 90, 89, 163, 2, 0.543694
187, 2, bw, attraction, a-b-da, 14, 2, 2, 10, 90, 165, 165, 90, 153, 83, 1, 2.6394
187, 2, bw, attraction, a-b-da, 14, 2, 2, 10, 90, 165, 165, 90, 153, 83, 3, 0.580004
187, 2, bw, filler, NA, 999, 999, 2, 11, 178, 112, 153, 96, 151, 122, 3, 2.91449
187, 2, bw, filler, NA, 999, 999, 2, 11, 178, 112, 153, 96, 151, 122, 2, 0.555998
187, 2, bw, attraction, a-b-db, 5, 1, 2, 12, 60, 135, 58, 132, 135, 60, 1, 2.03581
187, 2, bw, attraction, a-b-db, 5, 1, 2, 12, 60, 135, 58, 132, 135, 60, 3, 0.617239
187, 2, bw, attraction, a-b-db, 9, 3, 2, 13, 120, 195, 114, 186, 195, 120, 1, 2.61422
187, 2, bw, attraction, a-b-db, 9, 3, 2, 13, 120, 195, 114, 186, 195, 120, 3, 0.764
187, 2, bw, catch, NA, 999, 999, 2, 14, 120, 195, 88, 107, 144, 111, 1, 1.31511
187, 2, bw, catch, NA, 999, 999, 2, 14, 120, 195, 88, 107, 144, 111, 2, 0.429376
187, 2, bw, attraction, a-b-da, 2, 3, 2, 15, 120, 195, 193, 119, 195, 120, 2, 4.0818
187, 2, bw, attraction, a-b-da, 2, 3, 2, 15, 120, 195, 193, 119, 195, 120, 1, 0.76449
187, 2, bw, filler, NA, 999, 999, 2, 16, 72, 81, 75, 63, 87, 137, 3, 1.13953
187, 2, bw, filler, NA, 999, 999, 2, 16, 72, 81, 75, 63, 87, 137, 2, 0.852498
187, 2, bw, attraction, a-b-da, 9, 3, 2, 17, 195, 120, 120, 195, 186, 114, 2, 3.87217
187, 2, bw, attraction, a-b-da, 9, 3, 2, 17, 195, 120, 120, 195, 186, 114, 3, 0.914891
187, 2, bw, attraction, a-b-db, 2, 1, 2, 18, 135, 60, 60, 135, 59, 134, 2, 2.51592
187, 2, bw, attraction, a-b-db, 2, 1, 2, 18, 135, 60, 60, 135, 59, 134, 1, 1.05376
187, 2, bw, attraction, a-b-db, 14, 1, 2, 19, 60, 135, 135, 60, 56, 125, 1, 3.32131
187, 2, bw, attraction, a-b-db, 14, 1, 2, 19, 60, 135, 135, 60, 56, 125, 3, 1.25029
187, 2, bw, filler, NA, 999, 999, 2, 20, 172, 105, 144, 76, 121, 73, 1, 2.08607
187, 2, bw, filler, NA, 999, 999, 2, 20, 172, 105, 144, 76, 121, 73, 3, 0.921327
187, 2, bw, attraction, a-b-da, 14, 3, 2, 21, 195, 120, 120, 195, 181, 111, 2, 2.64222
187, 2, bw, attraction, a-b-da, 14, 3, 2, 21, 195, 120, 120, 195, 181, 111, 3, 1.11069
187, 2, bw, attraction, a-b-da, 9, 1, 2, 22, 60, 135, 135, 60, 129, 57, 1, 2.41571
187, 2, bw, attraction, a-b-da, 9, 1, 2, 22, 60, 135, 135, 60, 129, 57, 3, 0.693501
187, 2, bw, attraction, a-b-da, 5, 3, 2, 23, 195, 120, 120, 195, 190, 117, 2, 2.5752
187, 2, bw, attraction, a-b-da, 5, 3, 2, 23, 195, 120, 120, 195, 190, 117, 3, 0.950339
187, 2, bw, attraction, a-b-da, 2, 1, 2, 24, 135, 60, 134, 59, 60, 135, 3, 2.69397
187, 2, bw, attraction, a-b-da, 2, 1, 2, 24, 135, 60, 134, 59, 60, 135, 1, 0.584453
187, 2, bw, filler, NA, 999, 999, 2, 25, 99, 68, 166, 131, 133, 132, 2, 1.51093
187, 2, bw, filler, NA, 999, 999, 2, 25, 99, 68, 166, 131, 133, 132, 1, 0.576998
187, 2, bw, filler, NA, 999, 999, 2, 26, 76, 156, 136, 88, 193, 57, 2, 4.87146
187, 2, bw, filler, NA, 999, 999, 2, 26, 76, 156, 136, 88, 193, 57, 3, 0.657873
187, 2, bw, attraction, a-b-db, 2, 3, 2, 27, 120, 195, 195, 120, 119, 193, 1, 2.14901
187, 2, bw, attraction, a-b-db, 2, 3, 2, 27, 120, 195, 195, 120, 119, 193, 2, 0.637664
187, 2, bw, attraction, a-b-db, 9, 2, 2, 28, 90, 165, 165, 90, 86, 157, 1, 4.17008
187, 2, bw, attraction, a-b-db, 9, 2, 2, 28, 90, 165, 165, 90, 86, 157, 2, 1.76941
187, 2, bw, attraction, a-b-da, 14, 1, 2, 29, 60, 135, 135, 60, 125, 56, 1, 2.39217
187, 2, bw, attraction, a-b-da, 14, 1, 2, 29, 60, 135, 135, 60, 125, 56, 3, 0.390795
187, 2, bw, filler, NA, 999, 999, 2, 30, 121, 128, 173, 131, 127, 61, 2, 1.33253
187, 2, bw, filler, NA, 999, 999, 2, 30, 121, 128, 173, 131, 127, 61, 3, 0.749958
187, 2, bw, attraction, a-b-da, 2, 2, 2, 31, 90, 165, 165, 90, 163, 89, 1, 2.73376
187, 2, bw, attraction, a-b-da, 2, 2, 2, 31, 90, 165, 165, 90, 163, 89, 2, 0.950862
187, 2, bw, filler, NA, 999, 999, 2, 32, 77, 188, 110, 138, 102, 194, 3, 1.26258
187, 2, bw, filler, NA, 999, 999, 2, 32, 77, 188, 110, 138, 102, 194, 1, 0.610795
187, 2, bw, attraction, a-b-db, 5, 2, 2, 33, 90, 165, 88, 161, 165, 90, 3, 9.04789
187, 2, bw, attraction, a-b-db, 5, 2, 2, 33, 90, 165, 88, 161, 165, 90, 2, 0.682287
187, 2, bw, attraction, a-b-db, 9, 1, 2, 34, 135, 60, 60, 135, 57, 129, 2, 1.3328
187, 2, bw, attraction, a-b-db, 9, 1, 2, 34, 135, 60, 60, 135, 57, 129, 3, 0.454394
187, 2, bw, filler, NA, 999, 999, 2, 35, 70, 167, 104, 192, 147, 195, 3, 0.873999
187, 2, bw, filler, NA, 999, 999, 2, 35, 70, 167, 104, 192, 147, 195, 1, 0.517837
187, 2, bw, catch, NA, 999, 999, 2, 36, 150, 165, 121, 74, 136, 119, 1, 1.11093
187, 2, bw, catch, NA, 999, 999, 2, 36, 150, 165, 121, 74, 136, 119, 2, 0.41716
187, 2, bw, filler, NA, 999, 999, 2, 37, 81, 108, 193, 64, 117, 123, 3, 3.62231
187, 2, bw, filler, NA, 999, 999, 2, 37, 81, 108, 193, 64, 117, 123, 1, 0.483223
187, 2, bw, attraction, a-b-da, 14, 1, 3, 1, 135, 60, 60, 135, 125, 56, 2, 2.71762
187, 2, bw, attraction, a-b-da, 14, 1, 3, 1, 135, 60, 60, 135, 125, 56, 3, 0.615422
187, 2, bw, catch, NA, 999, 999, 3, 2, 141, 174, 141, 114, 83, 112, 1, 0.836524
187, 2, bw, catch, NA, 999, 999, 3, 2, 141, 174, 141, 114, 83, 112, 3, 0.506228
187, 2, bw, attraction, a-b-db, 9, 2, 3, 3, 86, 157, 90, 165, 165, 90, 2, 4.37934
187, 2, bw, attraction, a-b-db, 9, 2, 3, 3, 86, 157, 90, 165, 165, 90, 3, 0.377982
187, 2, bw, attraction, a-b-da, 2, 2, 3, 4, 165, 90, 90, 165, 163, 89, 2, 2.56046
187, 2, bw, attraction, a-b-da, 2, 2, 3, 4, 165, 90, 90, 165, 163, 89, 3, 0.592376
187, 2, bw, filler, NA, 999, 999, 3, 5, 63, 104, 108, 111, 123, 192, 3, 1.22197
187, 2, bw, filler, NA, 999, 999, 3, 5, 63, 104, 108, 111, 123, 192, 1, 0.459521
187, 2, bw, attraction, a-b-db, 9, 1, 3, 6, 135, 60, 57, 129, 60, 135, 1, 3.79871
187, 2, bw, attraction, a-b-db, 9, 1, 3, 6, 135, 60, 57, 129, 60, 135, 2, 1.27682
187, 2, bw, attraction, a-b-db, 5, 3, 3, 7, 195, 120, 120, 195, 117, 190, 2, 3.10308
187, 2, bw, attraction, a-b-db, 5, 3, 3, 7, 195, 120, 120, 195, 117, 190, 1, 0.561438
187, 2, bw, filler, NA, 999, 999, 3, 8, 148, 188, 182, 59, 126, 124, 1, 1.36051
187, 2, bw, filler, NA, 999, 999, 3, 8, 148, 188, 182, 59, 126, 124, 2, 0.400712
187, 2, bw, catch, NA, 999, 999, 3, 9, 107, 88, 160, 95, 185, 130, 3, 1.93455
187, 2, bw, catch, NA, 999, 999, 3, 9, 107, 88, 160, 95, 185, 130, 1, 0.504025
187, 2, bw, filler, NA, 999, 999, 3, 10, 74, 159, 143, 103, 180, 73, 2, 5.42572
187, 2, bw, filler, NA, 999, 999, 3, 10, 74, 159, 143, 103, 180, 73, 3, 0.358135
187, 2, bw, filler, NA, 999, 999, 3, 11, 109, 137, 114, 180, 164, 57, 2, 1.34111
187, 2, bw, filler, NA, 999, 999, 3, 11, 109, 137, 114, 180, 164, 57, 3, 0.589953
187, 2, bw, attraction, a-b-da, 5, 2, 3, 12, 165, 90, 161, 88, 90, 165, 3, 7.17177
187, 2, bw, attraction, a-b-da, 5, 2, 3, 12, 165, 90, 161, 88, 90, 165, 2, 0.49021
187, 2, bw, attraction, a-b-da, 5, 3, 3, 13, 190, 117, 195, 120, 120, 195, 3, 1.67596
187, 2, bw, attraction, a-b-da, 5, 3, 3, 13, 190, 117, 195, 120, 120, 195, 2, 0.631436
187, 2, bw, attraction, a-b-da, 9, 2, 3, 14, 90, 165, 157, 86, 165, 90, 1, 2.39585
187, 2, bw, attraction, a-b-da, 9, 2, 3, 14, 90, 165, 157, 86, 165, 90, 2, 0.802405
187, 2, bw, attraction, a-b-db, 9, 3, 3, 15, 195, 120, 120, 195, 114, 186, 1, 6.08003
187, 2, bw, attraction, a-b-db, 9, 3, 3, 15, 195, 120, 120, 195, 114, 186, 3, 0.954074
187, 2, bw, attraction, a-b-db, 2, 1, 3, 16, 60, 135, 59, 134, 135, 60, 2, 7.49772
187, 2, bw, attraction, a-b-db, 2, 1, 3, 16, 60, 135, 59, 134, 135, 60, 3, 0.426804
187, 2, bw, attraction, a-b-db, 5, 2, 3, 17, 88, 161, 165, 90, 90, 165, 3, 3.78327
187, 2, bw, attraction, a-b-db, 5, 2, 3, 17, 88, 161, 165, 90, 90, 165, 2, 0.877995
187, 2, bw, filler, NA, 999, 999, 3, 18, 97, 168, 76, 95, 173, 91, 1, 1.54436
187, 2, bw, filler, NA, 999, 999, 3, 18, 97, 168, 76, 95, 173, 91, 2, 0.529288
187, 2, bw, attraction, a-b-db, 5, 1, 3, 19, 58, 132, 60, 135, 135, 60, 2, 2.41766
187, 2, bw, attraction, a-b-db, 5, 1, 3, 19, 58, 132, 60, 135, 135, 60, 3, 0.639499
187, 2, bw, attraction, a-b-db, 2, 2, 3, 20, 89, 163, 90, 165, 165, 90, 2, 3.7953
187, 2, bw, attraction, a-b-db, 2, 2, 3, 20, 89, 163, 90, 165, 165, 90, 3, 0.505462
187, 2, bw, attraction, a-b-da, 2, 3, 3, 21, 195, 120, 120, 195, 193, 119, 2, 2.45928
187, 2, bw, attraction, a-b-da, 2, 3, 3, 21, 195, 120, 120, 195, 193, 119, 3, 0.519121
187, 2, bw, attraction, a-b-da, 9, 1, 3, 22, 135, 60, 60, 135, 129, 57, 1, 5.43226
187, 2, bw, attraction, a-b-da, 9, 1, 3, 22, 135, 60, 60, 135, 129, 57, 3, 0.564356
187, 2, bw, attraction, a-b-db, 2, 3, 3, 23, 120, 195, 119, 193, 195, 120, 2, 6.22749
187, 2, bw, attraction, a-b-db, 2, 3, 3, 23, 120, 195, 119, 193, 195, 120, 3, 0.383444
187, 2, bw, filler, NA, 999, 999, 3, 24, 64, 174, 115, 134, 188, 62, 2, 3.58999
187, 2, bw, filler, NA, 999, 999, 3, 24, 64, 174, 115, 134, 188, 62, 1, 0.756203
187, 2, bw, filler, NA, 999, 999, 3, 25, 114, 147, 164, 117, 89, 130, 2, 5.0193
187, 2, bw, filler, NA, 999, 999, 3, 25, 114, 147, 164, 117, 89, 130, 3, 0.648286
187, 2, bw, attraction, a-b-db, 14, 2, 3, 26, 165, 90, 90, 165, 83, 153, 2, 4.72405
187, 2, bw, attraction, a-b-db, 14, 2, 3, 26, 165, 90, 90, 165, 83, 153, 3, 0.372545
187, 2, bw, attraction, a-b-da, 2, 1, 3, 27, 60, 135, 135, 60, 134, 59, 2, 2.81975
187, 2, bw, attraction, a-b-da, 2, 1, 3, 27, 60, 135, 135, 60, 134, 59, 1, 0.577655
187, 2, bw, attraction, a-b-da, 14, 2, 3, 28, 90, 165, 153, 83, 165, 90, 1, 4.64792
187, 2, bw, attraction, a-b-da, 14, 2, 3, 28, 90, 165, 153, 83, 165, 90, 2, 0.779869
187, 2, bw, attraction, a-b-db, 14, 1, 3, 29, 60, 135, 135, 60, 56, 125, 1, 3.9381
187, 2, bw, attraction, a-b-db, 14, 1, 3, 29, 60, 135, 135, 60, 56, 125, 3, 0.450153
187, 2, bw, filler, NA, 999, 999, 3, 30, 109, 159, 181, 129, 160, 172, 3, 0.94997
187, 2, bw, filler, NA, 999, 999, 3, 30, 109, 159, 181, 129, 160, 172, 1, 0.510988
187, 2, bw, attraction, a-b-db, 14, 3, 3, 31, 120, 195, 195, 120, 111, 181, 1, 1.05615
187, 2, bw, attraction, a-b-db, 14, 3, 3, 31, 120, 195, 195, 120, 111, 181, 3, 0.300355
187, 2, bw, filler, NA, 999, 999, 3, 32, 60, 106, 162, 168, 65, 67, 2, 0.862182
187, 2, bw, filler, NA, 999, 999, 3, 32, 60, 106, 162, 168, 65, 67, 3, 0.834625
187, 2, bw, attraction, a-b-da, 14, 3, 3, 33, 120, 195, 181, 111, 195, 120, 1, 1.22303
187, 2, bw, attraction, a-b-da, 14, 3, 3, 33, 120, 195, 181, 111, 195, 120, 2, 0.564656
187, 2, bw, catch, NA, 999, 999, 3, 34, 172, 143, 100, 155, 114, 81, 1, 1.06781
187, 2, bw, catch, NA, 999, 999, 3, 34, 172, 143, 100, 155, 114, 81, 3, 0.391996
187, 2, bw, attraction, a-b-da, 5, 1, 3, 35, 135, 60, 132, 58, 60, 135, 1, 2.46184
187, 2, bw, attraction, a-b-da, 5, 1, 3, 35, 135, 60, 132, 58, 60, 135, 3, 0.489672
187, 2, bw, attraction, a-b-da, 9, 3, 3, 36, 186, 114, 120, 195, 195, 120, 2, 2.84342
187, 2, bw, attraction, a-b-da, 9, 3, 3, 36, 186, 114, 120, 195, 195, 120, 1, 0.479815
187, 2, bw, filler, NA, 999, 999, 3, 37, 176, 126, 182, 140, 192, 167, 3, 1.81835
187, 2, bw, filler, NA, 999, 999, 3, 37, 176, 126, 182, 140, 192, 167, 1, 0.440331
187, 2, bw, attraction, a-b-da, 5, 1, 4, 1, 60, 135, 135, 60, 132, 58, 1, 1.5882
187, 2, bw, attraction, a-b-da, 5, 1, 4, 1, 60, 135, 135, 60, 132, 58, 3, 0.362946
187, 2, bw, attraction, a-b-db, 5, 1, 4, 2, 58, 132, 135, 60, 60, 135, 3, 2.37021
187, 2, bw, attraction, a-b-db, 5, 1, 4, 2, 58, 132, 135, 60, 60, 135, 2, 0.338162
187, 2, bw, filler, NA, 999, 999, 4, 3, 143, 68, 161, 91, 99, 81, 2, 1.19452
187, 2, bw, filler, NA, 999, 999, 4, 3, 143, 68, 161, 91, 99, 81, 3, 1.01747
187, 2, bw, filler, NA, 999, 999, 4, 4, 104, 94, 68, 94, 109, 170, 3, 0.822438
187, 2, bw, filler, NA, 999, 999, 4, 4, 104, 94, 68, 94, 109, 170, 2, 0.692244
187, 2, bw, attraction, a-b-da, 2, 1, 4, 5, 135, 60, 134, 59, 60, 135, 1, 3.42998
187, 2, bw, attraction, a-b-da, 2, 1, 4, 5, 135, 60, 134, 59, 60, 135, 3, 0.730866
187, 2, bw, attraction, a-b-db, 9, 1, 4, 6, 135, 60, 60, 135, 57, 129, 1, 1.73914
187, 2, bw, attraction, a-b-db, 9, 1, 4, 6, 135, 60, 60, 135, 57, 129, 3, 0.46009
187, 2, bw, attraction, a-b-da, 9, 2, 4, 7, 165, 90, 90, 165, 157, 86, 2, 4.02307
187, 2, bw, attraction, a-b-da, 9, 2, 4, 7, 165, 90, 90, 165, 157, 86, 3, 0.67584
187, 2, bw, attraction, a-b-db, 2, 2, 4, 8, 89, 163, 90, 165, 165, 90, 3, 2.44616
187, 2, bw, attraction, a-b-db, 2, 2, 4, 8, 89, 163, 90, 165, 165, 90, 1, 0.54671
187, 2, bw, catch, NA, 999, 999, 4, 9, 165, 90, 107, 88, 134, 181, 3, 2.28249
187, 2, bw, catch, NA, 999, 999, 4, 9, 165, 90, 107, 88, 134, 181, 2, 0.509784
187, 2, bw, attraction, a-b-da, 2, 3, 4, 10, 195, 120, 120, 195, 193, 119, 2, 5.9269
187, 2, bw, attraction, a-b-da, 2, 3, 4, 10, 195, 120, 120, 195, 193, 119, 1, 1.06295
187, 2, bw, attraction, a-b-db, 14, 2, 4, 11, 83, 153, 90, 165, 165, 90, 2, 6.43406
187, 2, bw, attraction, a-b-db, 14, 2, 4, 11, 83, 153, 90, 165, 165, 90, 3, 3.59786
187, 2, bw, attraction, a-b-da, 5, 3, 4, 12, 120, 195, 190, 117, 195, 120, 1, 3.68276
187, 2, bw, attraction, a-b-da, 5, 3, 4, 12, 120, 195, 190, 117, 195, 120, 2, 1.1815
187, 2, bw, filler, NA, 999, 999, 4, 13, 86, 176, 192, 134, 103, 122, 2, 1.03577
187, 2, bw, filler, NA, 999, 999, 4, 13, 86, 176, 192, 134, 103, 122, 3, 0.345483
187, 2, bw, attraction, a-b-db, 14, 3, 4, 14, 120, 195, 195, 120, 111, 181, 1, 1.50527
187, 2, bw, attraction, a-b-db, 14, 3, 4, 14, 120, 195, 195, 120, 111, 181, 2, 0.603418
187, 2, bw, attraction, a-b-da, 14, 2, 4, 15, 153, 83, 165, 90, 90, 165, 3, 1.78525
187, 2, bw, attraction, a-b-da, 14, 2, 4, 15, 153, 83, 165, 90, 90, 165, 1, 1.08865
187, 2, bw, filler, NA, 999, 999, 4, 16, 165, 83, 82, 65, 154, 140, 3, 1.10686
187, 2, bw, filler, NA, 999, 999, 4, 16, 165, 83, 82, 65, 154, 140, 2, 0.54916
187, 2, bw, filler, NA, 999, 999, 4, 17, 191, 136, 59, 190, 185, 140, 1, 2.6929
187, 2, bw, filler, NA, 999, 999, 4, 17, 191, 136, 59, 190, 185, 140, 2, 0.583461
187, 2, bw, attraction, a-b-da, 9, 3, 4, 18, 195, 120, 186, 114, 120, 195, 3, 2.74188
187, 2, bw, attraction, a-b-da, 9, 3, 4, 18, 195, 120, 186, 114, 120, 195, 2, 0.494248
187, 2, bw, attraction, a-b-da, 14, 1, 4, 19, 125, 56, 60, 135, 135, 60, 1, 2.98412
187, 2, bw, attraction, a-b-da, 14, 1, 4, 19, 125, 56, 60, 135, 135, 60, 3, 1.07909
187, 2, bw, attraction, a-b-db, 2, 1, 4, 20, 60, 135, 135, 60, 59, 134, 1, 4.96935
187, 2, bw, attraction, a-b-db, 2, 1, 4, 20, 60, 135, 135, 60, 59, 134, 2, 0.568458
187, 2, bw, filler, NA, 999, 999, 4, 21, 115, 113, 161, 137, 86, 86, 2, 1.0156
187, 2, bw, filler, NA, 999, 999, 4, 21, 115, 113, 161, 137, 86, 86, 3, 0.445917
187, 2, bw, filler, NA, 999, 999, 4, 22, 176, 164, 89, 163, 95, 119, 1, 1.05759
187, 2, bw, filler, NA, 999, 999, 4, 22, 176, 164, 89, 163, 95, 119, 3, 0.501942
187, 2, bw, attraction, a-b-da, 14, 3, 4, 23, 181, 111, 120, 195, 195, 120, 3, 5.10382
187, 2, bw, attraction, a-b-da, 14, 3, 4, 23, 181, 111, 120, 195, 195, 120, 1, 1.00147
187, 2, bw, attraction, a-b-da, 2, 2, 4, 24, 165, 90, 90, 165, 163, 89, 2, 12.8392
187, 2, bw, attraction, a-b-da, 2, 2, 4, 24, 165, 90, 90, 165, 163, 89, 3, 1.34515
187, 2, bw, catch, NA, 999, 999, 4, 25, 144, 171, 142, 113, 84, 111, 1, 1.05662
187, 2, bw, catch, NA, 999, 999, 4, 25, 144, 171, 142, 113, 84, 111, 3, 0.556941
187, 2, bw, attraction, a-b-db, 5, 2, 4, 26, 165, 90, 90, 165, 88, 161, 2, 1.85199
187, 2, bw, attraction, a-b-db, 5, 2, 4, 26, 165, 90, 90, 165, 88, 161, 1, 0.400853
187, 2, bw, attraction, a-b-db, 5, 3, 4, 27, 120, 195, 195, 120, 117, 190, 3, 4.06261
187, 2, bw, attraction, a-b-db, 5, 3, 4, 27, 120, 195, 195, 120, 117, 190, 2, 0.377927
187, 2, bw, attraction, a-b-db, 14, 1, 4, 28, 60, 135, 56, 125, 135, 60, 1, 1.72042
187, 2, bw, attraction, a-b-db, 14, 1, 4, 28, 60, 135, 56, 125, 135, 60, 3, 0.522472
187, 2, bw, attraction, a-b-db, 9, 3, 4, 29, 114, 186, 120, 195, 195, 120, 2, 3.07556
187, 2, bw, attraction, a-b-db, 9, 3, 4, 29, 114, 186, 120, 195, 195, 120, 1, 0.406609
187, 2, bw, catch, NA, 999, 999, 4, 30, 120, 135, 104, 91, 185, 130, 3, 1.15579
187, 2, bw, catch, NA, 999, 999, 4, 30, 120, 135, 104, 91, 185, 130, 2, 0.348103
187, 2, bw, attraction, a-b-da, 9, 1, 4, 31, 135, 60, 129, 57, 60, 135, 1, 2.1
187, 2, bw, attraction, a-b-da, 9, 1, 4, 31, 135, 60, 129, 57, 60, 135, 2, 0.406487
187, 2, bw, attraction, a-b-da, 5, 2, 4, 32, 165, 90, 161, 88, 90, 165, 3, 1.61169
187, 2, bw, attraction, a-b-da, 5, 2, 4, 32, 165, 90, 161, 88, 90, 165, 2, 0.793794
187, 2, bw, filler, NA, 999, 999, 4, 33, 187, 60, 136, 99, 57, 112, 2, 2.88763
187, 2, bw, filler, NA, 999, 999, 4, 33, 187, 60, 136, 99, 57, 112, 3, 0.498764
187, 2, bw, filler, NA, 999, 999, 4, 34, 75, 88, 151, 74, 88, 133, 3, 6.14843
187, 2, bw, filler, NA, 999, 999, 4, 34, 75, 88, 151, 74, 88, 133, 1, 0.801375
187, 2, bw, filler, NA, 999, 999, 4, 35, 68, 59, 63, 170, 75, 154, 3, 9.75341
187, 2, bw, filler, NA, 999, 999, 4, 35, 68, 59, 63, 170, 75, 154, 1, 0.703808
187, 2, bw, attraction, a-b-db, 2, 3, 4, 36, 120, 195, 119, 193, 195, 120, 2, 2.3774
187, 2, bw, attraction, a-b-db, 2, 3, 4, 36, 120, 195, 119, 193, 195, 120, 3, 0.400745
187, 2, bw, attraction, a-b-db, 9, 2, 4, 37, 90, 165, 86, 157, 165, 90, 2, 2.78247
187, 2, bw, attraction, a-b-db, 9, 2, 4, 37, 90, 165, 86, 157, 165, 90, 3, 0.501528
187, 2, bw, attraction, a-b-da, 5, 1, 5, 1, 132, 58, 135, 60, 60, 135, 3, 4.05399
187, 2, bw, attraction, a-b-da, 5, 1, 5, 1, 132, 58, 135, 60, 60, 135, 1, 1.61008
187, 2, bw, attraction, a-b-da, 9, 3, 5, 2, 195, 120, 186, 114, 120, 195, 3, 2.59078
187, 2, bw, attraction, a-b-da, 9, 3, 5, 2, 195, 120, 186, 114, 120, 195, 1, 0.829375
187, 2, bw, filler, NA, 999, 999, 5, 3, 95, 77, 94, 114, 182, 184, 3, 0.87374
187, 2, bw, filler, NA, 999, 999, 5, 3, 95, 77, 94, 114, 182, 184, 1, 0.413309
187, 2, bw, attraction, a-b-db, 5, 2, 5, 4, 90, 165, 88, 161, 165, 90, 1, 2.63461
187, 2, bw, attraction, a-b-db, 5, 2, 5, 4, 90, 165, 88, 161, 165, 90, 3, 0.711668
187, 2, bw, catch, NA, 999, 999, 5, 5, 89, 106, 154, 161, 95, 160, 2, 0.7607
187, 2, bw, catch, NA, 999, 999, 5, 5, 89, 106, 154, 161, 95, 160, 1, 0.393071
187, 2, bw, attraction, a-b-da, 9, 1, 5, 6, 129, 57, 60, 135, 135, 60, 2, 1.78284
187, 2, bw, attraction, a-b-da, 9, 1, 5, 6, 129, 57, 60, 135, 135, 60, 1, 1.00645
187, 2, bw, catch, NA, 999, 999, 5, 7, 107, 88, 119, 136, 165, 150, 3, 1.21133
187, 2, bw, catch, NA, 999, 999, 5, 7, 107, 88, 119, 136, 165, 150, 1, 0.417556
187, 2, bw, filler, NA, 999, 999, 5, 8, 113, 82, 105, 63, 86, 81, 1, 1.19076
187, 2, bw, filler, NA, 999, 999, 5, 8, 113, 82, 105, 63, 86, 81, 2, 4.80574
187, 2, bw, filler, NA, 999, 999, 5, 9, 119, 151, 69, 85, 119, 105, 1, 0.841993
187, 2, bw, filler, NA, 999, 999, 5, 9, 119, 151, 69, 85, 119, 105, 2, 0.423275
187, 2, bw, attraction, a-b-da, 14, 1, 5, 10, 60, 135, 135, 60, 125, 56, 2, 1.50756
187, 2, bw, attraction, a-b-da, 14, 1, 5, 10, 60, 135, 135, 60, 125, 56, 3, 0.701736
187, 2, bw, attraction, a-b-db, 14, 2, 5, 11, 83, 153, 165, 90, 90, 165, 3, 6.6796
187, 2, bw, attraction, a-b-db, 14, 2, 5, 11, 83, 153, 165, 90, 90, 165, 1, 0.441417
187, 2, bw, attraction, a-b-db, 2, 3, 5, 12, 120, 195, 195, 120, 119, 193, 1, 3.13318
187, 2, bw, attraction, a-b-db, 2, 3, 5, 12, 120, 195, 195, 120, 119, 193, 2, 1.55815
187, 2, bw, attraction, a-b-da, 5, 3, 5, 13, 190, 117, 195, 120, 120, 195, 3, 1.83692
187, 2, bw, attraction, a-b-da, 5, 3, 5, 13, 190, 117, 195, 120, 120, 195, 1, 0.409686
187, 2, bw, filler, NA, 999, 999, 5, 14, 158, 166, 180, 128, 78, 181, 1, 1.56685
187, 2, bw, filler, NA, 999, 999, 5, 14, 158, 166, 180, 128, 78, 181, 3, 0.422928
187, 2, bw, attraction, a-b-db, 9, 2, 5, 15, 90, 165, 86, 157, 165, 90, 2, 4.88343
187, 2, bw, attraction, a-b-db, 9, 2, 5, 15, 90, 165, 86, 157, 165, 90, 3, 0.693974
187, 2, bw, filler, NA, 999, 999, 5, 16, 64, 176, 123, 190, 130, 151, 2, 1.54361
187, 2, bw, filler, NA, 999, 999, 5, 16, 64, 176, 123, 190, 130, 151, 1, 0.45651
187, 2, bw, attraction, a-b-da, 5, 2, 5, 17, 90, 165, 161, 88, 165, 90, 1, 4.94755
187, 2, bw, attraction, a-b-da, 5, 2, 5, 17, 90, 165, 161, 88, 165, 90, 2, 2.24331
187, 2, bw, attraction, a-b-db, 9, 1, 5, 18, 57, 129, 135, 60, 60, 135, 1, 3.02249
187, 2, bw, attraction, a-b-db, 9, 1, 5, 18, 57, 129, 135, 60, 60, 135, 2, 0.419563
187, 2, bw, attraction, a-b-db, 14, 1, 5, 19, 56, 125, 135, 60, 60, 135, 1, 2.56073
187, 2, bw, attraction, a-b-db, 14, 1, 5, 19, 56, 125, 135, 60, 60, 135, 2, 0.392528
187, 2, bw, attraction, a-b-da, 2, 1, 5, 20, 60, 135, 135, 60, 134, 59, 1, 2.05445
187, 2, bw, attraction, a-b-da, 2, 1, 5, 20, 60, 135, 135, 60, 134, 59, 3, 0.674469
187, 2, bw, filler, NA, 999, 999, 5, 21, 97, 73, 130, 124, 134, 128, 3, 3.14082
187, 2, bw, filler, NA, 999, 999, 5, 21, 97, 73, 130, 124, 134, 128, 1, 0.557158
187, 2, bw, attraction, a-b-da, 2, 3, 5, 22, 195, 120, 120, 195, 193, 119, 1, 5.86827
187, 2, bw, attraction, a-b-da, 2, 3, 5, 22, 195, 120, 120, 195, 193, 119, 2, 1.95899
187, 2, bw, attraction, a-b-da, 14, 3, 5, 23, 120, 195, 181, 111, 195, 120, 1, 2.66971
187, 2, bw, attraction, a-b-da, 14, 3, 5, 23, 120, 195, 181, 111, 195, 120, 2, 0.409434
187, 2, bw, attraction, a-b-db, 5, 3, 5, 24, 120, 195, 195, 120, 117, 190, 3, 3.44677
187, 2, bw, attraction, a-b-db, 5, 3, 5, 24, 120, 195, 195, 120, 117, 190, 2, 0.379074
187, 2, bw, attraction, a-b-da, 14, 2, 5, 25, 90, 165, 153, 83, 165, 90, 1, 2.67342
187, 2, bw, attraction, a-b-da, 14, 2, 5, 25, 90, 165, 153, 83, 165, 90, 2, 0.492599
187, 2, bw, attraction, a-b-da, 9, 2, 5, 26, 165, 90, 90, 165, 157, 86, 2, 2.08637
187, 2, bw, attraction, a-b-da, 9, 2, 5, 26, 165, 90, 90, 165, 157, 86, 3, 0.513614
187, 2, bw, attraction, a-b-da, 2, 2, 5, 27, 163, 89, 165, 90, 90, 165, 3, 4.49888
187, 2, bw, attraction, a-b-da, 2, 2, 5, 27, 163, 89, 165, 90, 90, 165, 1, 2.02867
187, 2, bw, attraction, a-b-db, 9, 3, 5, 28, 120, 195, 195, 120, 114, 186, 1, 7.84065
187, 2, bw, attraction, a-b-db, 9, 3, 5, 28, 120, 195, 195, 120, 114, 186, 2, 1.88356
187, 2, bw, attraction, a-b-db, 2, 2, 5, 29, 89, 163, 90, 165, 165, 90, 2, 8.50152
187, 2, bw, attraction, a-b-db, 2, 2, 5, 29, 89, 163, 90, 165, 165, 90, 3, 0.558182
187, 2, bw, catch, NA, 999, 999, 5, 30, 124, 191, 64, 131, 114, 141, 1, 1.07724
187, 2, bw, catch, NA, 999, 999, 5, 30, 124, 191, 64, 131, 114, 141, 2, 0.592999
187, 2, bw, filler, NA, 999, 999, 5, 31, 135, 100, 149, 68, 150, 155, 3, 1.42261
187, 2, bw, filler, NA, 999, 999, 5, 31, 135, 100, 149, 68, 150, 155, 2, 0.588105
187, 2, bw, attraction, a-b-db, 5, 1, 5, 32, 60, 135, 58, 132, 135, 60, 1, 3.21864
187, 2, bw, attraction, a-b-db, 5, 1, 5, 32, 60, 135, 58, 132, 135, 60, 3, 0.59212
187, 2, bw, attraction, a-b-db, 2, 1, 5, 33, 59, 134, 60, 135, 135, 60, 2, 2.03791
187, 2, bw, attraction, a-b-db, 2, 1, 5, 33, 59, 134, 60, 135, 135, 60, 3, 0.50661
187, 2, bw, filler, NA, 999, 999, 5, 34, 96, 166, 84, 181, 139, 62, 1, 1.54777
187, 2, bw, filler, NA, 999, 999, 5, 34, 96, 166, 84, 181, 139, 62, 3, 0.580749
187, 2, bw, filler, NA, 999, 999, 5, 35, 84, 189, 81, 180, 77, 127, 1, 1.25094
187, 2, bw, filler, NA, 999, 999, 5, 35, 84, 189, 81, 180, 77, 127, 3, 0.607891
187, 2, bw, filler, NA, 999, 999, 5, 36, 116, 156, 152, 120, 140, 107, 1, 6.00509
187, 2, bw, filler, NA, 999, 999, 5, 36, 116, 156, 152, 120, 140, 107, 3, 0.850511
187, 2, bw, attraction, a-b-db, 14, 3, 5, 37, 111, 181, 120, 195, 195, 120, 2, 4.90208
187, 2, bw, attraction, a-b-db, 14, 3, 5, 37, 111, 181, 120, 195, 195, 120, 1, 0.599883
187, 2, bw, catch, NA, 999, 999, 6, 1, 159, 156, 91, 164, 114, 81, 1, 1.04554
187, 2, bw, catch, NA, 999, 999, 6, 1, 159, 156, 91, 164, 114, 81, 3, 0.522636
187, 2, bw, attraction, a-b-da, 5, 2, 6, 2, 90, 165, 165, 90, 161, 88, 1, 3.86769
187, 2, bw, attraction, a-b-da, 5, 2, 6, 2, 90, 165, 165, 90, 161, 88, 3, 0.679183
187, 2, bw, attraction, a-b-db, 9, 2, 6, 3, 86, 157, 90, 165, 165, 90, 2, 2.11359
187, 2, bw, attraction, a-b-db, 9, 2, 6, 3, 86, 157, 90, 165, 165, 90, 3, 0.611568
187, 2, bw, filler, NA, 999, 999, 6, 4, 70, 161, 160, 109, 142, 80, 2, 1.51271
187, 2, bw, filler, NA, 999, 999, 6, 4, 70, 161, 160, 109, 142, 80, 1, 1.73887
187, 2, bw, filler, NA, 999, 999, 6, 5, 162, 167, 103, 69, 70, 71, 1, 0.850857
187, 2, bw, filler, NA, 999, 999, 6, 5, 162, 167, 103, 69, 70, 71, 3, 0.495923
187, 2, bw, attraction, a-b-da, 2, 2, 6, 6, 163, 89, 165, 90, 90, 165, 3, 1.40185
187, 2, bw, attraction, a-b-da, 2, 2, 6, 6, 163, 89, 165, 90, 90, 165, 1, 0.800536
187, 2, bw, filler, NA, 999, 999, 6, 7, 176, 149, 58, 158, 162, 131, 1, 1.2382
187, 2, bw, filler, NA, 999, 999, 6, 7, 176, 149, 58, 158, 162, 131, 2, 0.36319
187, 2, bw, attraction, a-b-db, 9, 3, 6, 8, 120, 195, 195, 120, 114, 186, 1, 1.21034
187, 2, bw, attraction, a-b-db, 9, 3, 6, 8, 120, 195, 195, 120, 114, 186, 2, 0.336555
187, 2, bw, attraction, a-b-da, 14, 3, 6, 9, 120, 195, 195, 120, 181, 111, 1, 1.97706
187, 2, bw, attraction, a-b-da, 14, 3, 6, 9, 120, 195, 195, 120, 181, 111, 2, 0.328562
187, 2, bw, attraction, a-b-da, 2, 1, 6, 10, 60, 135, 135, 60, 134, 59, 1, 1.23295
187, 2, bw, attraction, a-b-da, 2, 1, 6, 10, 60, 135, 135, 60, 134, 59, 3, 0.398636
187, 2, bw, catch, NA, 999, 999, 6, 11, 158, 97, 136, 179, 131, 64, 2, 1.22837
187, 2, bw, catch, NA, 999, 999, 6, 11, 158, 97, 136, 179, 131, 64, 3, 0.658008
187, 2, bw, attraction, a-b-db, 5, 2, 6, 12, 90, 165, 88, 161, 165, 90, 1, 1.75692
187, 2, bw, attraction, a-b-db, 5, 2, 6, 12, 90, 165, 88, 161, 165, 90, 3, 0.389168
187, 2, bw, attraction, a-b-da, 14, 2, 6, 13, 90, 165, 165, 90, 153, 83, 1, 1.40356
187, 2, bw, attraction, a-b-da, 14, 2, 6, 13, 90, 165, 165, 90, 153, 83, 3, 0.610418
187, 2, bw, attraction, a-b-db, 5, 1, 6, 14, 58, 132, 60, 135, 135, 60, 1, 3.48752
187, 2, bw, attraction, a-b-db, 5, 1, 6, 14, 58, 132, 60, 135, 135, 60, 3, 0.553903
187, 2, bw, attraction, a-b-db, 2, 3, 6, 15, 120, 195, 195, 120, 119, 193, 1, 1.88153
187, 2, bw, attraction, a-b-db, 2, 3, 6, 15, 120, 195, 195, 120, 119, 193, 2, 0.74089
187, 2, bw, catch, NA, 999, 999, 6, 16, 188, 127, 129, 66, 124, 131, 1, 1.32465
187, 2, bw, catch, NA, 999, 999, 6, 16, 188, 127, 129, 66, 124, 131, 2, 0.478111
187, 2, bw, filler, NA, 999, 999, 6, 17, 164, 156, 79, 144, 126, 174, 1, 2.1206
187, 2, bw, filler, NA, 999, 999, 6, 17, 164, 156, 79, 144, 126, 174, 2, 0.57806
187, 2, bw, attraction, a-b-db, 14, 1, 6, 18, 56, 125, 60, 135, 135, 60, 2, 1.71238
187, 2, bw, attraction, a-b-db, 14, 1, 6, 18, 56, 125, 60, 135, 135, 60, 3, 0.858528
187, 2, bw, attraction, a-b-db, 2, 1, 6, 19, 59, 134, 135, 60, 60, 135, 1, 3.50959
187, 2, bw, attraction, a-b-db, 2, 1, 6, 19, 59, 134, 135, 60, 60, 135, 2, 0.343005
187, 2, bw, attraction, a-b-db, 14, 3, 6, 20, 195, 120, 111, 181, 120, 195, 3, 1.9268
187, 2, bw, attraction, a-b-db, 14, 3, 6, 20, 195, 120, 111, 181, 120, 195, 1, 1.93622
187, 2, bw, attraction, a-b-da, 9, 1, 6, 21, 60, 135, 135, 60, 129, 57, 1, 2.67217
187, 2, bw, attraction, a-b-da, 9, 1, 6, 21, 60, 135, 135, 60, 129, 57, 3, 0.411371
187, 2, bw, attraction, a-b-db, 9, 1, 6, 22, 135, 60, 57, 129, 60, 135, 2, 2.26447
187, 2, bw, attraction, a-b-db, 9, 1, 6, 22, 135, 60, 57, 129, 60, 135, 1, 0.516491
187, 2, bw, attraction, a-b-da, 9, 3, 6, 23, 195, 120, 120, 195, 186, 114, 2, 6.94157
187, 2, bw, attraction, a-b-da, 9, 3, 6, 23, 195, 120, 120, 195, 186, 114, 1, 0.372741
187, 2, bw, filler, NA, 999, 999, 6, 24, 83, 168, 133, 84, 102, 150, 3, 2.79528
187, 2, bw, filler, NA, 999, 999, 6, 24, 83, 168, 133, 84, 102, 150, 2, 0.529566
187, 2, bw, filler, NA, 999, 999, 6, 25, 186, 65, 133, 137, 151, 163, 3, 1.50602
187, 2, bw, filler, NA, 999, 999, 6, 25, 186, 65, 133, 137, 151, 163, 1, 1.33226
187, 2, bw, attraction, a-b-da, 5, 1, 6, 26, 60, 135, 132, 58, 135, 60, 1, 3.85253
187, 2, bw, attraction, a-b-da, 5, 1, 6, 26, 60, 135, 132, 58, 135, 60, 2, 0.576541
187, 2, bw, attraction, a-b-db, 5, 3, 6, 27, 117, 190, 120, 195, 195, 120, 2, 3.87102
187, 2, bw, attraction, a-b-db, 5, 3, 6, 27, 117, 190, 120, 195, 195, 120, 3, 0.458452
187, 2, bw, attraction, a-b-db, 2, 2, 6, 28, 90, 165, 165, 90, 89, 163, 3, 1.7415
187, 2, bw, attraction, a-b-db, 2, 2, 6, 28, 90, 165, 165, 90, 89, 163, 2, 0.718199
187, 2, bw, filler, NA, 999, 999, 6, 29, 118, 168, 114, 64, 188, 192, 3, 0.975273
187, 2, bw, filler, NA, 999, 999, 6, 29, 118, 168, 114, 64, 188, 192, 2, 0.582947
187, 2, bw, filler, NA, 999, 999, 6, 30, 180, 89, 114, 91, 78, 192, 1, 2.38133
187, 2, bw, filler, NA, 999, 999, 6, 30, 180, 89, 114, 91, 78, 192, 2, 0.428685
187, 2, bw, attraction, a-b-da, 2, 3, 6, 31, 195, 120, 193, 119, 120, 195, 2, 10.2972
187, 2, bw, attraction, a-b-da, 2, 3, 6, 31, 195, 120, 193, 119, 120, 195, 3, 0.545202
187, 2, bw, filler, NA, 999, 999, 6, 32, 102, 110, 141, 79, 96, 121, 3, 3.70497
187, 2, bw, filler, NA, 999, 999, 6, 32, 102, 110, 141, 79, 96, 121, 2, 0.82639
187, 2, bw, filler, NA, 999, 999, 6, 33, 149, 154, 111, 134, 131, 95, 1, 1.28684
187, 2, bw, filler, NA, 999, 999, 6, 33, 149, 154, 111, 134, 131, 95, 3, 0.513785
187, 2, bw, attraction, a-b-da, 5, 3, 6, 34, 195, 120, 190, 117, 120, 195, 3, 2.28292
187, 2, bw, attraction, a-b-da, 5, 3, 6, 34, 195, 120, 190, 117, 120, 195, 2, 0.446155
187, 2, bw, attraction, a-b-db, 14, 2, 6, 35, 165, 90, 83, 153, 90, 165, 3, 1.87383
187, 2, bw, attraction, a-b-db, 14, 2, 6, 35, 165, 90, 83, 153, 90, 165, 1, 0.669267
187, 2, bw, attraction, a-b-da, 9, 2, 6, 36, 157, 86, 165, 90, 90, 165, 3, 1.36836
187, 2, bw, attraction, a-b-da, 9, 2, 6, 36, 157, 86, 165, 90, 90, 165, 2, 0.600592
187, 2, bw, attraction, a-b-da, 14, 1, 6, 37, 60, 135, 135, 60, 125, 56, 1, 1.32632
187, 2, bw, attraction, a-b-da, 14, 1, 6, 37, 60, 135, 135, 60, 125, 56, 3, 0.511807
187, 2, bw, filler, NA, 999, 999, 7, 1, 67, 143, 136, 124, 194, 127, 3, 1.16093
187, 2, bw, filler, NA, 999, 999, 7, 1, 67, 143, 136, 124, 194, 127, 1, 0.473208
187, 2, bw, attraction, a-b-db, 5, 1, 7, 2, 60, 135, 58, 132, 135, 60, 2, 1.89169
187, 2, bw, attraction, a-b-db, 5, 1, 7, 2, 60, 135, 58, 132, 135, 60, 3, 0.398432
187, 2, bw, attraction, a-b-db, 5, 3, 7, 3, 120, 195, 195, 120, 117, 190, 1, 1.70836
187, 2, bw, attraction, a-b-db, 5, 3, 7, 3, 120, 195, 195, 120, 117, 190, 2, 0.71037
187, 2, bw, attraction, a-b-db, 2, 2, 7, 4, 89, 163, 165, 90, 90, 165, 3, 1.66346
187, 2, bw, attraction, a-b-db, 2, 2, 7, 4, 89, 163, 165, 90, 90, 165, 2, 0.499534
187, 2, bw, filler, NA, 999, 999, 7, 5, 164, 168, 63, 119, 177, 142, 1, 1.5173
187, 2, bw, filler, NA, 999, 999, 7, 5, 164, 168, 63, 119, 177, 142, 2, 0.511474
187, 2, bw, attraction, a-b-db, 14, 3, 7, 6, 111, 181, 120, 195, 195, 120, 2, 1.40874
187, 2, bw, attraction, a-b-db, 14, 3, 7, 6, 111, 181, 120, 195, 195, 120, 1, 0.446802
187, 2, bw, attraction, a-b-db, 14, 1, 7, 7, 56, 125, 60, 135, 135, 60, 2, 1.55463
187, 2, bw, attraction, a-b-db, 14, 1, 7, 7, 56, 125, 60, 135, 135, 60, 3, 1.0748
187, 2, bw, filler, NA, 999, 999, 7, 8, 62, 179, 137, 112, 161, 184, 3, 1.11693
187, 2, bw, filler, NA, 999, 999, 7, 8, 62, 179, 137, 112, 161, 184, 1, 0.831387
187, 2, bw, filler, NA, 999, 999, 7, 9, 172, 118, 143, 61, 108, 188, 1, 1.4757
187, 2, bw, filler, NA, 999, 999, 7, 9, 172, 118, 143, 61, 108, 188, 2, 0.919197
187, 2, bw, filler, NA, 999, 999, 7, 10, 178, 150, 68, 89, 96, 194, 1, 1.42411
187, 2, bw, filler, NA, 999, 999, 7, 10, 178, 150, 68, 89, 96, 194, 2, 0.461629
187, 2, bw, attraction, a-b-da, 2, 1, 7, 11, 60, 135, 134, 59, 135, 60, 1, 1.2088
187, 2, bw, attraction, a-b-da, 2, 1, 7, 11, 60, 135, 134, 59, 135, 60, 3, 0.655206
187, 2, bw, attraction, a-b-db, 2, 3, 7, 12, 195, 120, 120, 195, 119, 193, 2, 1.64281
187, 2, bw, attraction, a-b-db, 2, 3, 7, 12, 195, 120, 120, 195, 119, 193, 1, 0.64757
187, 2, bw, catch, NA, 999, 999, 7, 13, 113, 82, 137, 118, 179, 136, 3, 1.08339
187, 2, bw, catch, NA, 999, 999, 7, 13, 113, 82, 137, 118, 179, 136, 1, 1.23899
187, 2, bw, attraction, a-b-da, 2, 3, 7, 14, 193, 119, 120, 195, 195, 120, 2, 1.45135
187, 2, bw, attraction, a-b-da, 2, 3, 7, 14, 193, 119, 120, 195, 195, 120, 1, 0.775977
187, 2, bw, filler, NA, 999, 999, 7, 15, 152, 153, 91, 59, 184, 180, 3, 0.750471
187, 2, bw, filler, NA, 999, 999, 7, 15, 152, 153, 91, 59, 184, 180, 2, 0.631414
187, 2, bw, attraction, a-b-db, 5, 2, 7, 16, 90, 165, 165, 90, 88, 161, 1, 4.67595
187, 2, bw, attraction, a-b-db, 5, 2, 7, 16, 90, 165, 165, 90, 88, 161, 2, 1.02234
187, 2, bw, attraction, a-b-db, 9, 2, 7, 17, 165, 90, 86, 157, 90, 165, 2, 2.19534
187, 2, bw, attraction, a-b-db, 9, 2, 7, 17, 165, 90, 86, 157, 90, 165, 1, 0.45807
187, 2, bw, attraction, a-b-da, 5, 1, 7, 18, 60, 135, 132, 58, 135, 60, 1, 1.44509
187, 2, bw, attraction, a-b-da, 5, 1, 7, 18, 60, 135, 132, 58, 135, 60, 3, 0.601992
187, 2, bw, attraction, a-b-da, 2, 2, 7, 19, 165, 90, 163, 89, 90, 165, 3, 2.25584
187, 2, bw, attraction, a-b-da, 2, 2, 7, 19, 165, 90, 163, 89, 90, 165, 1, 1.61162
187, 2, bw, attraction, a-b-da, 9, 2, 7, 20, 157, 86, 165, 90, 90, 165, 3, 1.25638
187, 2, bw, attraction, a-b-da, 9, 2, 7, 20, 157, 86, 165, 90, 90, 165, 2, 0.356673
187, 2, bw, attraction, a-b-da, 5, 2, 7, 21, 161, 88, 90, 165, 165, 90, 2, 2.14779
187, 2, bw, attraction, a-b-da, 5, 2, 7, 21, 161, 88, 90, 165, 165, 90, 3, 1.3805
187, 2, bw, attraction, a-b-da, 14, 1, 7, 22, 135, 60, 60, 135, 125, 56, 2, 1.84256
187, 2, bw, attraction, a-b-da, 14, 1, 7, 22, 135, 60, 60, 135, 125, 56, 3, 0.415306
187, 2, bw, attraction, a-b-da, 14, 3, 7, 23, 120, 195, 195, 120, 181, 111, 1, 0.932497
187, 2, bw, attraction, a-b-da, 14, 3, 7, 23, 120, 195, 195, 120, 181, 111, 3, 0.454238
187, 2, bw, attraction, a-b-da, 5, 3, 7, 24, 190, 117, 195, 120, 120, 195, 3, 1.66603
187, 2, bw, attraction, a-b-da, 5, 3, 7, 24, 190, 117, 195, 120, 120, 195, 2, 0.958255
187, 2, bw, attraction, a-b-da, 9, 1, 7, 25, 135, 60, 129, 57, 60, 135, 3, 2.07705
187, 2, bw, attraction, a-b-da, 9, 1, 7, 25, 135, 60, 129, 57, 60, 135, 2, 0.400493
187, 2, bw, catch, NA, 999, 999, 7, 26, 112, 143, 74, 121, 158, 157, 3, 1.09427
187, 2, bw, catch, NA, 999, 999, 7, 26, 112, 143, 74, 121, 158, 157, 2, 0.361196
187, 2, bw, attraction, a-b-da, 9, 3, 7, 27, 186, 114, 195, 120, 120, 195, 2, 1.79236
187, 2, bw, attraction, a-b-da, 9, 3, 7, 27, 186, 114, 195, 120, 120, 195, 1, 0.767087
187, 2, bw, filler, NA, 999, 999, 7, 28, 193, 63, 96, 159, 132, 179, 3, 0.998195
187, 2, bw, filler, NA, 999, 999, 7, 28, 193, 63, 96, 159, 132, 179, 1, 0.685194
187, 2, bw, catch, NA, 999, 999, 7, 29, 62, 133, 125, 130, 145, 170, 3, 1.24764
187, 2, bw, catch, NA, 999, 999, 7, 29, 62, 133, 125, 130, 145, 170, 1, 1.3965
187, 2, bw, attraction, a-b-db, 9, 3, 7, 30, 120, 195, 114, 186, 195, 120, 2, 5.48196
187, 2, bw, attraction, a-b-db, 9, 3, 7, 30, 120, 195, 114, 186, 195, 120, 3, 0.484191
187, 2, bw, filler, NA, 999, 999, 7, 31, 64, 103, 177, 62, 71, 137, 2, 6.34273
187, 2, bw, filler, NA, 999, 999, 7, 31, 64, 103, 177, 62, 71, 137, 1, 1.022
187, 2, bw, filler, NA, 999, 999, 7, 32, 112, 113, 73, 180, 179, 177, 3, 1.54701
187, 2, bw, filler, NA, 999, 999, 7, 32, 112, 113, 73, 180, 179, 177, 1, 2.14782
187, 2, bw, attraction, a-b-db, 14, 2, 7, 33, 83, 153, 90, 165, 165, 90, 2, 2.75495
187, 2, bw, attraction, a-b-db, 14, 2, 7, 33, 83, 153, 90, 165, 165, 90, 1, 3.63491
187, 2, bw, filler, NA, 999, 999, 7, 34, 153, 142, 174, 101, 163, 161, 3, 3.07828
187, 2, bw, filler, NA, 999, 999, 7, 34, 153, 142, 174, 101, 163, 161, 2, 0.817286
187, 2, bw, attraction, a-b-da, 14, 2, 7, 35, 165, 90, 153, 83, 90, 165, 3, 1.3823
187, 2, bw, attraction, a-b-da, 14, 2, 7, 35, 165, 90, 153, 83, 90, 165, 2, 0.461903
187, 2, bw, attraction, a-b-db, 2, 1, 7, 36, 59, 134, 135, 60, 60, 135, 3, 1.56894
187, 2, bw, attraction, a-b-db, 2, 1, 7, 36, 59, 134, 135, 60, 60, 135, 2, 0.577154
187, 2, bw, attraction, a-b-db, 9, 1, 7, 37, 57, 129, 135, 60, 60, 135, 3, 1.33568
187, 2, bw, attraction, a-b-db, 9, 1, 7, 37, 57, 129, 135, 60, 60, 135, 2, 0.55322
187, 2, bw, attraction, a-b-db, 2, 2, 8, 1, 165, 90, 90, 165, 89, 163, 2, 2.00087
187, 2, bw, attraction, a-b-db, 2, 2, 8, 1, 165, 90, 90, 165, 89, 163, 1, 0.663633
187, 2, bw, filler, NA, 999, 999, 8, 2, 146, 103, 167, 62, 107, 120, 1, 2.29062
187, 2, bw, filler, NA, 999, 999, 8, 2, 146, 103, 167, 62, 107, 120, 2, 0.677311
187, 2, bw, attraction, a-b-da, 14, 3, 8, 3, 120, 195, 181, 111, 195, 120, 1, 1.46368
187, 2, bw, attraction, a-b-da, 14, 3, 8, 3, 120, 195, 181, 111, 195, 120, 3, 0.499777
187, 2, bw, attraction, a-b-da, 9, 3, 8, 4, 186, 114, 120, 195, 195, 120, 2, 0.989571
187, 2, bw, attraction, a-b-da, 9, 3, 8, 4, 186, 114, 120, 195, 195, 120, 1, 0.500759
187, 2, bw, attraction, a-b-db, 9, 2, 8, 5, 165, 90, 90, 165, 86, 157, 2, 2.50243
187, 2, bw, attraction, a-b-db, 9, 2, 8, 5, 165, 90, 90, 165, 86, 157, 3, 0.792976
187, 2, bw, attraction, a-b-db, 5, 1, 8, 6, 58, 132, 60, 135, 135, 60, 1, 5.73464
187, 2, bw, attraction, a-b-db, 5, 1, 8, 6, 58, 132, 60, 135, 135, 60, 3, 0.886937
187, 2, bw, attraction, a-b-db, 2, 3, 8, 7, 195, 120, 120, 195, 119, 193, 1, 6.13711
187, 2, bw, attraction, a-b-db, 2, 3, 8, 7, 195, 120, 120, 195, 119, 193, 3, 4.37717
187, 2, bw, filler, NA, 999, 999, 8, 8, 104, 78, 177, 192, 79, 182, 2, 0.822359
187, 2, bw, filler, NA, 999, 999, 8, 8, 104, 78, 177, 192, 79, 182, 1, 0.516155
187, 2, bw, filler, NA, 999, 999, 8, 9, 170, 144, 122, 104, 69, 98, 1, 1.08521
187, 2, bw, filler, NA, 999, 999, 8, 9, 170, 144, 122, 104, 69, 98, 3, 0.504908
187, 2, bw, attraction, a-b-da, 14, 1, 8, 10, 60, 135, 135, 60, 125, 56, 1, 1.02669
187, 2, bw, attraction, a-b-da, 14, 1, 8, 10, 60, 135, 135, 60, 125, 56, 3, 1.11247
187, 2, bw, attraction, a-b-db, 2, 1, 8, 11, 60, 135, 59, 134, 135, 60, 2, 0.993256
187, 2, bw, attraction, a-b-db, 2, 1, 8, 11, 60, 135, 59, 134, 135, 60, 3, 0.408266
187, 2, bw, catch, NA, 999, 999, 8, 12, 77, 118, 162, 153, 130, 125, 2, 0.79741
187, 2, bw, catch, NA, 999, 999, 8, 12, 77, 118, 162, 153, 130, 125, 1, 0.4285
187, 2, bw, attraction, a-b-db, 14, 3, 8, 13, 111, 181, 195, 120, 120, 195, 3, 1.36088
187, 2, bw, attraction, a-b-db, 14, 3, 8, 13, 111, 181, 195, 120, 120, 195, 2, 0.329234
187, 2, bw, attraction, a-b-db, 14, 2, 8, 14, 83, 153, 165, 90, 90, 165, 3, 1.25767
187, 2, bw, attraction, a-b-db, 14, 2, 8, 14, 83, 153, 165, 90, 90, 165, 2, 0.373916
187, 2, bw, filler, NA, 999, 999, 8, 15, 126, 90, 130, 99, 119, 186, 3, 0.820386
187, 2, bw, filler, NA, 999, 999, 8, 15, 126, 90, 130, 99, 119, 186, 1, 0.914078
187, 2, bw, filler, NA, 999, 999, 8, 16, 99, 58, 151, 130, 89, 141, 2, 0.80308
187, 2, bw, filler, NA, 999, 999, 8, 16, 99, 58, 151, 130, 89, 141, 1, 0.554118
187, 2, bw, attraction, a-b-da, 2, 3, 8, 17, 120, 195, 195, 120, 193, 119, 1, 1.07389
187, 2, bw, attraction, a-b-da, 2, 3, 8, 17, 120, 195, 195, 120, 193, 119, 2, 0.413524
187, 2, bw, attraction, a-b-db, 5, 3, 8, 18, 117, 190, 120, 195, 195, 120, 3, 3.19461
187, 2, bw, attraction, a-b-db, 5, 3, 8, 18, 117, 190, 120, 195, 195, 120, 2, 0.984991
187, 2, bw, catch, NA, 999, 999, 8, 19, 61, 134, 118, 137, 183, 132, 3, 0.695294
187, 2, bw, catch, NA, 999, 999, 8, 19, 61, 134, 118, 137, 183, 132, 1, 0.530344
187, 2, bw, attraction, a-b-db, 5, 2, 8, 20, 165, 90, 88, 161, 90, 165, 3, 2.58683
187, 2, bw, attraction, a-b-db, 5, 2, 8, 20, 165, 90, 88, 161, 90, 165, 1, 0.554016
187, 2, bw, attraction, a-b-db, 14, 1, 8, 21, 56, 125, 60, 135, 135, 60, 2, 3.28171
187, 2, bw, attraction, a-b-db, 14, 1, 8, 21, 56, 125, 60, 135, 135, 60, 3, 0.380718
187, 2, bw, filler, NA, 999, 999, 8, 22, 61, 135, 95, 72, 148, 65, 3, 3.4432
187, 2, bw, filler, NA, 999, 999, 8, 22, 61, 135, 95, 72, 148, 65, 2, 0.407409
187, 2, bw, attraction, a-b-da, 5, 1, 8, 23, 60, 135, 132, 58, 135, 60, 1, 1.54052
187, 2, bw, attraction, a-b-da, 5, 1, 8, 23, 60, 135, 132, 58, 135, 60, 3, 0.637409
187, 2, bw, attraction, a-b-da, 9, 1, 8, 24, 60, 135, 129, 57, 135, 60, 1, 1.47376
187, 2, bw, attraction, a-b-da, 9, 1, 8, 24, 60, 135, 129, 57, 135, 60, 2, 1.2133
187, 2, bw, filler, NA, 999, 999, 8, 25, 170, 176, 90, 186, 153, 69, 1, 0.850189
187, 2, bw, filler, NA, 999, 999, 8, 25, 170, 176, 90, 186, 153, 69, 3, 0.471239
187, 2, bw, filler, NA, 999, 999, 8, 26, 90, 142, 184, 135, 121, 162, 2, 0.970355
187, 2, bw, filler, NA, 999, 999, 8, 26, 90, 142, 184, 135, 121, 162, 1, 0.594874
187, 2, bw, attraction, a-b-da, 14, 2, 8, 27, 165, 90, 153, 83, 90, 165, 3, 2.08058
187, 2, bw, attraction, a-b-da, 14, 2, 8, 27, 165, 90, 153, 83, 90, 165, 2, 0.331874
187, 2, bw, attraction, a-b-db, 9, 1, 8, 28, 60, 135, 135, 60, 57, 129, 1, 1.37237
187, 2, bw, attraction, a-b-db, 9, 1, 8, 28, 60, 135, 135, 60, 57, 129, 3, 0.595941
187, 2, bw, attraction, a-b-da, 5, 3, 8, 29, 120, 195, 190, 117, 195, 120, 1, 1.28953
187, 2, bw, attraction, a-b-da, 5, 3, 8, 29, 120, 195, 190, 117, 195, 120, 3, 0.348501
187, 2, bw, filler, NA, 999, 999, 8, 30, 138, 191, 102, 139, 98, 187, 1, 0.828254
187, 2, bw, filler, NA, 999, 999, 8, 30, 138, 191, 102, 139, 98, 187, 2, 1.89799
187, 2, bw, attraction, a-b-db, 9, 3, 8, 31, 114, 186, 120, 195, 195, 120, 2, 1.86733
187, 2, bw, attraction, a-b-db, 9, 3, 8, 31, 114, 186, 120, 195, 195, 120, 3, 0.775513
187, 2, bw, attraction, a-b-da, 9, 2, 8, 32, 157, 86, 165, 90, 90, 165, 3, 2.69385
187, 2, bw, attraction, a-b-da, 9, 2, 8, 32, 157, 86, 165, 90, 90, 165, 1, 0.560275
187, 2, bw, attraction, a-b-da, 2, 2, 8, 33, 163, 89, 90, 165, 165, 90, 2, 0.871445
187, 2, bw, attraction, a-b-da, 2, 2, 8, 33, 163, 89, 90, 165, 165, 90, 3, 0.355064
187, 2, bw, filler, NA, 999, 999, 8, 34, 66, 120, 67, 83, 149, 185, 3, 2.63511
187, 2, bw, filler, NA, 999, 999, 8, 34, 66, 120, 67, 83, 149, 185, 2, 0.520066
187, 2, bw, attraction, a-b-da, 5, 2, 8, 35, 165, 90, 90, 165, 161, 88, 2, 1.23325
187, 2, bw, attraction, a-b-da, 5, 2, 8, 35, 165, 90, 90, 165, 161, 88, 3, 0.526763
187, 2, bw, catch, NA, 999, 999, 8, 36, 107, 148, 165, 150, 74, 121, 2, 0.775182
187, 2, bw, catch, NA, 999, 999, 8, 36, 107, 148, 165, 150, 74, 121, 3, 0.558978
187, 2, bw, attraction, a-b-da, 2, 1, 8, 37, 135, 60, 60, 135, 134, 59, 1, 1.61396
187, 2, bw, attraction, a-b-da, 2, 1, 8, 37, 135, 60, 60, 135, 134, 59, 2, 0.740209
