sub_n, computer_n, bw_cond, effect, set, distance, diag, block_n, trial_n, h1, w1, h2, w2, h3, w3, choice, rt 
15, 2, bw, practice, NA, 999, 999, 0, 1, 80, 114, 142, 82, 157, 185, 3, 3.16233
15, 2, bw, practice, NA, 999, 999, 0, 1, 80, 114, 142, 82, 157, 185, 1, 4.66443
15, 2, bw, practice, NA, 999, 999, 0, 2, 119, 71, 76, 76, 91, 88, 3, 13.5369
15, 2, bw, practice, NA, 999, 999, 0, 2, 119, 71, 76, 76, 91, 88, 2, 2.40515
15, 2, bw, practice, NA, 999, 999, 0, 3, 85, 110, 168, 89, 84, 94, 2, 2.63408
15, 2, bw, practice, NA, 999, 999, 0, 3, 85, 110, 168, 89, 84, 94, 3, 2.90895
15, 2, bw, filler, NA, 999, 999, 1, 1, 65, 141, 85, 132, 173, 178, 3, 2.83943
15, 2, bw, filler, NA, 999, 999, 1, 1, 65, 141, 85, 132, 173, 178, 1, 10.1255
15, 2, bw, attraction, a-b-db, 14, 2, 1, 2, 165, 90, 83, 153, 90, 165, 1, 4.73199
15, 2, bw, attraction, a-b-db, 14, 2, 1, 2, 165, 90, 83, 153, 90, 165, 2, 1.97262
15, 2, bw, attraction, a-b-da, 9, 2, 1, 3, 165, 90, 157, 86, 90, 165, 3, 4.12278
15, 2, bw, attraction, a-b-da, 9, 2, 1, 3, 165, 90, 157, 86, 90, 165, 2, 1.70254
15, 2, bw, attraction, a-b-db, 14, 3, 1, 4, 120, 195, 111, 181, 195, 120, 3, 5.21447
15, 2, bw, attraction, a-b-db, 14, 3, 1, 4, 120, 195, 111, 181, 195, 120, 2, 1.95475
15, 2, bw, filler, NA, 999, 999, 1, 5, 139, 179, 104, 64, 177, 170, 3, 3.4344
15, 2, bw, filler, NA, 999, 999, 1, 5, 139, 179, 104, 64, 177, 170, 2, 1.38227
15, 2, bw, attraction, a-b-db, 2, 2, 1, 6, 89, 163, 90, 165, 165, 90, 2, 3.83524
15, 2, bw, attraction, a-b-db, 2, 2, 1, 6, 89, 163, 90, 165, 165, 90, 3, 4.26649
15, 2, bw, attraction, a-b-db, 9, 1, 1, 7, 57, 129, 135, 60, 60, 135, 2, 3.68425
15, 2, bw, attraction, a-b-db, 9, 1, 1, 7, 57, 129, 135, 60, 60, 135, 1, 1.37542
15, 2, bw, attraction, a-b-db, 5, 3, 1, 8, 120, 195, 195, 120, 117, 190, 2, 3.95829
15, 2, bw, attraction, a-b-db, 5, 3, 1, 8, 120, 195, 195, 120, 117, 190, 1, 1.51954
15, 2, bw, filler, NA, 999, 999, 1, 9, 70, 163, 78, 128, 186, 186, 3, 2.32039
15, 2, bw, filler, NA, 999, 999, 1, 9, 70, 163, 78, 128, 186, 186, 1, 3.15445
15, 2, bw, filler, NA, 999, 999, 1, 10, 139, 187, 157, 91, 134, 191, 3, 4.03151
15, 2, bw, filler, NA, 999, 999, 1, 10, 139, 187, 157, 91, 134, 191, 2, 1.48257
15, 2, bw, attraction, a-b-da, 14, 1, 1, 11, 125, 56, 135, 60, 60, 135, 2, 2.54093
15, 2, bw, attraction, a-b-da, 14, 1, 1, 11, 125, 56, 135, 60, 60, 135, 1, 1.30221
15, 2, bw, filler, NA, 999, 999, 1, 12, 178, 169, 193, 84, 138, 119, 1, 2.31424
15, 2, bw, filler, NA, 999, 999, 1, 12, 178, 169, 193, 84, 138, 119, 2, 2.6268
15, 2, bw, attraction, a-b-da, 2, 1, 1, 13, 60, 135, 135, 60, 134, 59, 2, 5.93394
15, 2, bw, attraction, a-b-da, 2, 1, 1, 13, 60, 135, 135, 60, 134, 59, 3, 1.35302
15, 2, bw, attraction, a-b-db, 5, 1, 1, 14, 135, 60, 60, 135, 58, 132, 3, 3.63728
15, 2, bw, attraction, a-b-db, 5, 1, 1, 14, 135, 60, 60, 135, 58, 132, 1, 3.61102
15, 2, bw, attraction, a-b-da, 5, 2, 1, 15, 165, 90, 161, 88, 90, 165, 3, 4.3047
15, 2, bw, attraction, a-b-da, 5, 2, 1, 15, 165, 90, 161, 88, 90, 165, 2, 1.6499
15, 2, bw, attraction, a-b-da, 9, 1, 1, 16, 135, 60, 60, 135, 129, 57, 1, 3.59733
15, 2, bw, attraction, a-b-da, 9, 1, 1, 16, 135, 60, 60, 135, 129, 57, 2, 1.76341
15, 2, bw, attraction, a-b-da, 5, 3, 1, 17, 190, 117, 120, 195, 195, 120, 2, 3.80966
15, 2, bw, attraction, a-b-da, 5, 3, 1, 17, 190, 117, 120, 195, 195, 120, 1, 1.35292
15, 2, bw, attraction, a-b-da, 2, 2, 1, 18, 163, 89, 90, 165, 165, 90, 2, 4.29788
15, 2, bw, attraction, a-b-da, 2, 2, 1, 18, 163, 89, 90, 165, 165, 90, 3, 5.47544
15, 2, bw, filler, NA, 999, 999, 1, 19, 94, 112, 73, 145, 132, 173, 3, 2.29996
15, 2, bw, filler, NA, 999, 999, 1, 19, 94, 112, 73, 145, 132, 173, 1, 4.21352
15, 2, bw, filler, NA, 999, 999, 1, 20, 128, 158, 148, 72, 80, 73, 1, 2.09471
15, 2, bw, filler, NA, 999, 999, 1, 20, 128, 158, 148, 72, 80, 73, 3, 1.51227
15, 2, bw, attraction, a-b-db, 5, 2, 1, 21, 165, 90, 88, 161, 90, 165, 3, 3.22367
15, 2, bw, attraction, a-b-db, 5, 2, 1, 21, 165, 90, 88, 161, 90, 165, 2, 1.45418
15, 2, bw, filler, NA, 999, 999, 1, 22, 137, 88, 108, 118, 137, 164, 3, 1.8799
15, 2, bw, filler, NA, 999, 999, 1, 22, 137, 88, 108, 118, 137, 164, 1, 2.30754
15, 2, bw, attraction, a-b-da, 14, 3, 1, 23, 181, 111, 120, 195, 195, 120, 2, 3.0465
15, 2, bw, attraction, a-b-da, 14, 3, 1, 23, 181, 111, 120, 195, 195, 120, 1, 1.26549
15, 2, bw, catch, NA, 999, 999, 1, 24, 146, 169, 135, 60, 112, 143, 1, 2.13441
15, 2, bw, catch, NA, 999, 999, 1, 24, 146, 169, 135, 60, 112, 143, 2, 1.64665
15, 2, bw, attraction, a-b-da, 5, 1, 1, 25, 135, 60, 132, 58, 60, 135, 2, 2.95375
15, 2, bw, attraction, a-b-da, 5, 1, 1, 25, 135, 60, 132, 58, 60, 135, 1, 2.28182
15, 2, bw, attraction, a-b-da, 14, 2, 1, 26, 90, 165, 165, 90, 153, 83, 1, 4.09289
15, 2, bw, attraction, a-b-da, 14, 2, 1, 26, 90, 165, 165, 90, 153, 83, 3, 1.25285
15, 2, bw, attraction, a-b-db, 2, 1, 1, 27, 60, 135, 135, 60, 59, 134, 2, 4.55406
15, 2, bw, attraction, a-b-db, 2, 1, 1, 27, 60, 135, 135, 60, 59, 134, 3, 0.93771
15, 2, bw, catch, NA, 999, 999, 1, 28, 141, 174, 94, 161, 119, 76, 1, 3.23583
15, 2, bw, catch, NA, 999, 999, 1, 28, 141, 174, 94, 161, 119, 76, 3, 1.35895
15, 2, bw, attraction, a-b-db, 9, 2, 1, 29, 165, 90, 86, 157, 90, 165, 3, 2.43966
15, 2, bw, attraction, a-b-db, 9, 2, 1, 29, 165, 90, 86, 157, 90, 165, 2, 1.93067
15, 2, bw, attraction, a-b-da, 2, 3, 1, 30, 195, 120, 193, 119, 120, 195, 2, 2.54111
15, 2, bw, attraction, a-b-da, 2, 3, 1, 30, 195, 120, 193, 119, 120, 195, 3, 5.39682
15, 2, bw, attraction, a-b-da, 9, 3, 1, 31, 195, 120, 120, 195, 186, 114, 2, 2.20295
15, 2, bw, attraction, a-b-da, 9, 3, 1, 31, 195, 120, 120, 195, 186, 114, 3, 1.51382
15, 2, bw, filler, NA, 999, 999, 1, 32, 108, 194, 108, 91, 159, 156, 3, 2.41865
15, 2, bw, filler, NA, 999, 999, 1, 32, 108, 194, 108, 91, 159, 156, 2, 1.55198
15, 2, bw, filler, NA, 999, 999, 1, 33, 158, 142, 103, 56, 58, 167, 1, 2.01729
15, 2, bw, filler, NA, 999, 999, 1, 33, 158, 142, 103, 56, 58, 167, 2, 1.19034
15, 2, bw, attraction, a-b-db, 14, 1, 1, 34, 56, 125, 60, 135, 135, 60, 3, 3.17262
15, 2, bw, attraction, a-b-db, 14, 1, 1, 34, 56, 125, 60, 135, 135, 60, 1, 1.34021
15, 2, bw, attraction, a-b-db, 9, 3, 1, 35, 114, 186, 120, 195, 195, 120, 2, 3.02086
15, 2, bw, attraction, a-b-db, 9, 3, 1, 35, 114, 186, 120, 195, 195, 120, 1, 1.32862
15, 2, bw, catch, NA, 999, 999, 1, 36, 112, 83, 122, 193, 124, 131, 2, 2.50571
15, 2, bw, catch, NA, 999, 999, 1, 36, 112, 83, 122, 193, 124, 131, 1, 1.23755
15, 2, bw, attraction, a-b-db, 2, 3, 1, 37, 120, 195, 119, 193, 195, 120, 2, 2.68109
15, 2, bw, attraction, a-b-db, 2, 3, 1, 37, 120, 195, 119, 193, 195, 120, 3, 1.44393
15, 2, bw, attraction, a-b-db, 5, 2, 2, 1, 165, 90, 90, 165, 88, 161, 2, 6.71074
15, 2, bw, attraction, a-b-db, 5, 2, 2, 1, 165, 90, 90, 165, 88, 161, 3, 1.83255
15, 2, bw, attraction, a-b-db, 2, 2, 2, 2, 165, 90, 89, 163, 90, 165, 2, 2.60631
15, 2, bw, attraction, a-b-db, 2, 2, 2, 2, 165, 90, 89, 163, 90, 165, 1, 1.89942
15, 2, bw, attraction, a-b-da, 14, 3, 2, 3, 120, 195, 195, 120, 181, 111, 2, 2.26882
15, 2, bw, attraction, a-b-da, 14, 3, 2, 3, 120, 195, 195, 120, 181, 111, 3, 0.944059
15, 2, bw, attraction, a-b-da, 9, 3, 2, 4, 195, 120, 120, 195, 186, 114, 2, 1.89057
15, 2, bw, attraction, a-b-da, 9, 3, 2, 4, 195, 120, 120, 195, 186, 114, 3, 3.41209
15, 2, bw, filler, NA, 999, 999, 2, 5, 128, 89, 169, 157, 93, 121, 2, 1.6179
15, 2, bw, filler, NA, 999, 999, 2, 5, 128, 89, 169, 157, 93, 121, 3, 2.22388
15, 2, bw, attraction, a-b-da, 2, 3, 2, 6, 193, 119, 195, 120, 120, 195, 2, 2.43812
15, 2, bw, attraction, a-b-da, 2, 3, 2, 6, 193, 119, 195, 120, 120, 195, 3, 2.40167
15, 2, bw, attraction, a-b-da, 14, 1, 2, 7, 60, 135, 125, 56, 135, 60, 2, 3.04683
15, 2, bw, attraction, a-b-da, 14, 1, 2, 7, 60, 135, 125, 56, 135, 60, 3, 2.24469
15, 2, bw, catch, NA, 999, 999, 2, 8, 114, 81, 151, 104, 137, 178, 3, 2.48676
15, 2, bw, catch, NA, 999, 999, 2, 8, 114, 81, 151, 104, 137, 178, 1, 1.45066
15, 2, bw, catch, NA, 999, 999, 2, 9, 83, 112, 164, 151, 156, 99, 2, 2.18471
15, 2, bw, catch, NA, 999, 999, 2, 9, 83, 112, 164, 151, 156, 99, 1, 1.73296
15, 2, bw, filler, NA, 999, 999, 2, 10, 152, 144, 153, 133, 86, 187, 1, 3.63669
15, 2, bw, filler, NA, 999, 999, 2, 10, 152, 144, 153, 133, 86, 187, 2, 1.37915
15, 2, bw, attraction, a-b-db, 5, 3, 2, 11, 120, 195, 117, 190, 195, 120, 1, 3.61736
15, 2, bw, attraction, a-b-db, 5, 3, 2, 11, 120, 195, 117, 190, 195, 120, 2, 1.30167
15, 2, bw, attraction, a-b-da, 9, 2, 2, 12, 157, 86, 165, 90, 90, 165, 2, 2.49033
15, 2, bw, attraction, a-b-da, 9, 2, 2, 12, 157, 86, 165, 90, 90, 165, 1, 1.2844
15, 2, bw, filler, NA, 999, 999, 2, 13, 179, 67, 98, 105, 189, 100, 3, 1.93369
15, 2, bw, filler, NA, 999, 999, 2, 13, 179, 67, 98, 105, 189, 100, 2, 1.82292
15, 2, bw, attraction, a-b-db, 5, 1, 2, 14, 58, 132, 135, 60, 60, 135, 2, 2.66029
15, 2, bw, attraction, a-b-db, 5, 1, 2, 14, 58, 132, 135, 60, 60, 135, 1, 1.30313
15, 2, bw, attraction, a-b-da, 9, 1, 2, 15, 135, 60, 129, 57, 60, 135, 3, 4.06668
15, 2, bw, attraction, a-b-da, 9, 1, 2, 15, 135, 60, 129, 57, 60, 135, 2, 0.740883
15, 2, bw, catch, NA, 999, 999, 2, 16, 75, 120, 162, 93, 192, 123, 3, 1.72506
15, 2, bw, catch, NA, 999, 999, 2, 16, 75, 120, 162, 93, 192, 123, 1, 0.768037
15, 2, bw, attraction, a-b-db, 2, 3, 2, 17, 195, 120, 120, 195, 119, 193, 3, 7.27905
15, 2, bw, attraction, a-b-db, 2, 3, 2, 17, 195, 120, 120, 195, 119, 193, 2, 1.36954
15, 2, bw, attraction, a-b-db, 9, 2, 2, 18, 86, 157, 90, 165, 165, 90, 2, 3.00874
15, 2, bw, attraction, a-b-db, 9, 2, 2, 18, 86, 157, 90, 165, 165, 90, 1, 1.11104
15, 2, bw, filler, NA, 999, 999, 2, 19, 178, 116, 110, 56, 98, 73, 1, 1.91124
15, 2, bw, filler, NA, 999, 999, 2, 19, 178, 116, 110, 56, 98, 73, 2, 1.28244
15, 2, bw, filler, NA, 999, 999, 2, 20, 180, 160, 146, 194, 96, 92, 2, 3.86224
15, 2, bw, filler, NA, 999, 999, 2, 20, 180, 160, 146, 194, 96, 92, 3, 0.733908
15, 2, bw, attraction, a-b-da, 5, 3, 2, 21, 195, 120, 190, 117, 120, 195, 3, 2.35969
15, 2, bw, attraction, a-b-da, 5, 3, 2, 21, 195, 120, 190, 117, 120, 195, 2, 1.91169
15, 2, bw, attraction, a-b-db, 9, 1, 2, 22, 57, 129, 60, 135, 135, 60, 2, 5.32891
15, 2, bw, attraction, a-b-db, 9, 1, 2, 22, 57, 129, 60, 135, 135, 60, 1, 1.05851
15, 2, bw, attraction, a-b-db, 14, 1, 2, 23, 60, 135, 56, 125, 135, 60, 1, 2.55878
15, 2, bw, attraction, a-b-db, 14, 1, 2, 23, 60, 135, 56, 125, 135, 60, 3, 1.68546
15, 2, bw, filler, NA, 999, 999, 2, 24, 109, 157, 172, 173, 195, 131, 2, 1.67304
15, 2, bw, filler, NA, 999, 999, 2, 24, 109, 157, 172, 173, 195, 131, 1, 3.44414
15, 2, bw, attraction, a-b-da, 14, 2, 2, 25, 165, 90, 153, 83, 90, 165, 3, 1.99999
15, 2, bw, attraction, a-b-da, 14, 2, 2, 25, 165, 90, 153, 83, 90, 165, 2, 1.05442
15, 2, bw, filler, NA, 999, 999, 2, 26, 61, 104, 156, 181, 91, 158, 2, 1.37849
15, 2, bw, filler, NA, 999, 999, 2, 26, 61, 104, 156, 181, 91, 158, 1, 1.01174
15, 2, bw, attraction, a-b-da, 5, 2, 2, 27, 161, 88, 90, 165, 165, 90, 2, 2.57569
15, 2, bw, attraction, a-b-da, 5, 2, 2, 27, 161, 88, 90, 165, 165, 90, 3, 0.735984
15, 2, bw, attraction, a-b-da, 2, 1, 2, 28, 135, 60, 60, 135, 134, 59, 3, 2.75925
15, 2, bw, attraction, a-b-da, 2, 1, 2, 28, 135, 60, 60, 135, 134, 59, 2, 0.743916
15, 2, bw, attraction, a-b-db, 2, 1, 2, 29, 60, 135, 59, 134, 135, 60, 2, 2.27265
15, 2, bw, attraction, a-b-db, 2, 1, 2, 29, 60, 135, 59, 134, 135, 60, 1, 1.21873
15, 2, bw, attraction, a-b-db, 9, 3, 2, 30, 195, 120, 114, 186, 120, 195, 2, 7.60964
15, 2, bw, attraction, a-b-db, 9, 3, 2, 30, 195, 120, 114, 186, 120, 195, 3, 0.991333
15, 2, bw, attraction, a-b-db, 14, 3, 2, 31, 195, 120, 120, 195, 111, 181, 2, 1.82682
15, 2, bw, attraction, a-b-db, 14, 3, 2, 31, 195, 120, 120, 195, 111, 181, 3, 0.763003
15, 2, bw, filler, NA, 999, 999, 2, 32, 93, 141, 117, 62, 178, 95, 3, 5.45134
15, 2, bw, filler, NA, 999, 999, 2, 32, 93, 141, 117, 62, 178, 95, 2, 1.14219
15, 2, bw, attraction, a-b-da, 5, 1, 2, 33, 135, 60, 132, 58, 60, 135, 1, 3.58341
15, 2, bw, attraction, a-b-da, 5, 1, 2, 33, 135, 60, 132, 58, 60, 135, 3, 1.17218
15, 2, bw, attraction, a-b-da, 2, 2, 2, 34, 90, 165, 165, 90, 163, 89, 3, 4.14713
15, 2, bw, attraction, a-b-da, 2, 2, 2, 34, 90, 165, 165, 90, 163, 89, 1, 1.1473
15, 2, bw, attraction, a-b-db, 14, 2, 2, 35, 165, 90, 90, 165, 83, 153, 2, 4.46829
15, 2, bw, attraction, a-b-db, 14, 2, 2, 35, 165, 90, 90, 165, 83, 153, 3, 0.936217
15, 2, bw, filler, NA, 999, 999, 2, 36, 182, 74, 133, 102, 134, 69, 2, 2.26314
15, 2, bw, filler, NA, 999, 999, 2, 36, 182, 74, 133, 102, 134, 69, 3, 1.10776
15, 2, bw, filler, NA, 999, 999, 2, 37, 133, 146, 57, 166, 163, 77, 1, 4.70216
15, 2, bw, filler, NA, 999, 999, 2, 37, 133, 146, 57, 166, 163, 77, 2, 1.35108
15, 2, bw, filler, NA, 999, 999, 3, 1, 118, 163, 79, 150, 178, 146, 3, 2.01686
15, 2, bw, filler, NA, 999, 999, 3, 1, 118, 163, 79, 150, 178, 146, 2, 1.37939
15, 2, bw, attraction, a-b-db, 9, 2, 3, 2, 165, 90, 86, 157, 90, 165, 3, 3.01079
15, 2, bw, attraction, a-b-db, 9, 2, 3, 2, 165, 90, 86, 157, 90, 165, 2, 1.49774
15, 2, bw, attraction, a-b-db, 9, 1, 3, 3, 135, 60, 57, 129, 60, 135, 3, 2.42001
15, 2, bw, attraction, a-b-db, 9, 1, 3, 3, 135, 60, 57, 129, 60, 135, 2, 0.75312
15, 2, bw, attraction, a-b-da, 14, 2, 3, 4, 153, 83, 90, 165, 165, 90, 3, 2.21751
15, 2, bw, attraction, a-b-da, 14, 2, 3, 4, 153, 83, 90, 165, 165, 90, 1, 1.01562
15, 2, bw, filler, NA, 999, 999, 3, 5, 98, 138, 178, 137, 103, 175, 2, 2.80184
15, 2, bw, filler, NA, 999, 999, 3, 5, 98, 138, 178, 137, 103, 175, 1, 0.776454
15, 2, bw, attraction, a-b-db, 14, 1, 3, 6, 135, 60, 56, 125, 60, 135, 3, 3.88233
15, 2, bw, attraction, a-b-db, 14, 1, 3, 6, 135, 60, 56, 125, 60, 135, 2, 0.740513
15, 2, bw, attraction, a-b-da, 2, 2, 3, 7, 90, 165, 165, 90, 163, 89, 3, 4.26229
15, 2, bw, attraction, a-b-da, 2, 2, 3, 7, 90, 165, 165, 90, 163, 89, 2, 1.31869
15, 2, bw, attraction, a-b-da, 9, 2, 3, 8, 157, 86, 165, 90, 90, 165, 3, 4.66541
15, 2, bw, attraction, a-b-da, 9, 2, 3, 8, 157, 86, 165, 90, 90, 165, 2, 0.722503
15, 2, bw, attraction, a-b-db, 2, 3, 3, 9, 120, 195, 195, 120, 119, 193, 2, 2.58254
15, 2, bw, attraction, a-b-db, 2, 3, 3, 9, 120, 195, 195, 120, 119, 193, 1, 3.56538
15, 2, bw, filler, NA, 999, 999, 3, 10, 73, 140, 153, 69, 62, 81, 2, 2.18632
15, 2, bw, filler, NA, 999, 999, 3, 10, 73, 140, 153, 69, 62, 81, 3, 1.23457
15, 2, bw, attraction, a-b-da, 2, 1, 3, 11, 135, 60, 134, 59, 60, 135, 3, 6.36487
15, 2, bw, attraction, a-b-da, 2, 1, 3, 11, 135, 60, 134, 59, 60, 135, 2, 0.755555
15, 2, bw, catch, NA, 999, 999, 3, 12, 132, 123, 146, 169, 65, 130, 2, 1.94772
15, 2, bw, catch, NA, 999, 999, 3, 12, 132, 123, 146, 169, 65, 130, 3, 0.748654
15, 2, bw, attraction, a-b-db, 9, 3, 3, 13, 120, 195, 114, 186, 195, 120, 3, 2.356
15, 2, bw, attraction, a-b-db, 9, 3, 3, 13, 120, 195, 114, 186, 195, 120, 1, 1.71704
15, 2, bw, filler, NA, 999, 999, 3, 14, 174, 111, 183, 88, 191, 170, 3, 2.91817
15, 2, bw, filler, NA, 999, 999, 3, 14, 174, 111, 183, 88, 191, 170, 1, 5.12071
15, 2, bw, attraction, a-b-db, 5, 1, 3, 15, 58, 132, 135, 60, 60, 135, 3, 2.46356
15, 2, bw, attraction, a-b-db, 5, 1, 3, 15, 58, 132, 135, 60, 60, 135, 1, 0.817238
15, 2, bw, attraction, a-b-db, 5, 3, 3, 16, 195, 120, 117, 190, 120, 195, 3, 3.60047
15, 2, bw, attraction, a-b-db, 5, 3, 3, 16, 195, 120, 117, 190, 120, 195, 2, 0.726827
15, 2, bw, attraction, a-b-da, 2, 3, 3, 17, 193, 119, 120, 195, 195, 120, 3, 2.83095
15, 2, bw, attraction, a-b-da, 2, 3, 3, 17, 193, 119, 120, 195, 195, 120, 1, 1.90213
15, 2, bw, catch, NA, 999, 999, 3, 18, 97, 98, 145, 170, 110, 145, 2, 1.61516
15, 2, bw, catch, NA, 999, 999, 3, 18, 97, 98, 145, 170, 110, 145, 1, 0.836589
15, 2, bw, filler, NA, 999, 999, 3, 19, 128, 182, 94, 166, 103, 176, 1, 1.86447
15, 2, bw, filler, NA, 999, 999, 3, 19, 128, 182, 94, 166, 103, 176, 2, 0.927045
15, 2, bw, filler, NA, 999, 999, 3, 20, 169, 110, 182, 59, 95, 117, 1, 2.03766
15, 2, bw, filler, NA, 999, 999, 3, 20, 169, 110, 182, 59, 95, 117, 3, 1.0261
15, 2, bw, attraction, a-b-da, 5, 3, 3, 21, 195, 120, 120, 195, 190, 117, 2, 4.26322
15, 2, bw, attraction, a-b-da, 5, 3, 3, 21, 195, 120, 120, 195, 190, 117, 1, 1.32416
15, 2, bw, attraction, a-b-db, 5, 2, 3, 22, 165, 90, 88, 161, 90, 165, 3, 3.09937
15, 2, bw, attraction, a-b-db, 5, 2, 3, 22, 165, 90, 88, 161, 90, 165, 2, 0.758454
15, 2, bw, filler, NA, 999, 999, 3, 23, 82, 113, 107, 71, 143, 65, 1, 2.70868
15, 2, bw, filler, NA, 999, 999, 3, 23, 82, 113, 107, 71, 143, 65, 2, 0.808539
15, 2, bw, attraction, a-b-da, 5, 1, 3, 24, 135, 60, 60, 135, 132, 58, 3, 2.30313
15, 2, bw, attraction, a-b-da, 5, 1, 3, 24, 135, 60, 60, 135, 132, 58, 1, 0.865003
15, 2, bw, attraction, a-b-db, 2, 2, 3, 25, 165, 90, 89, 163, 90, 165, 2, 3.05234
15, 2, bw, attraction, a-b-db, 2, 2, 3, 25, 165, 90, 89, 163, 90, 165, 1, 1.22311
15, 2, bw, attraction, a-b-db, 14, 2, 3, 26, 90, 165, 165, 90, 83, 153, 2, 3.81314
15, 2, bw, attraction, a-b-db, 14, 2, 3, 26, 90, 165, 165, 90, 83, 153, 3, 1.68107
15, 2, bw, filler, NA, 999, 999, 3, 27, 98, 79, 97, 169, 67, 129, 2, 1.69192
15, 2, bw, filler, NA, 999, 999, 3, 27, 98, 79, 97, 169, 67, 129, 3, 0.816639
15, 2, bw, attraction, a-b-da, 9, 1, 3, 28, 60, 135, 129, 57, 135, 60, 3, 3.90929
15, 2, bw, attraction, a-b-da, 9, 1, 3, 28, 60, 135, 129, 57, 135, 60, 1, 2.23768
15, 2, bw, filler, NA, 999, 999, 3, 29, 122, 123, 133, 151, 146, 111, 2, 1.59528
15, 2, bw, filler, NA, 999, 999, 3, 29, 122, 123, 133, 151, 146, 111, 1, 6.47467
15, 2, bw, attraction, a-b-da, 14, 1, 3, 30, 125, 56, 135, 60, 60, 135, 3, 6.58061
15, 2, bw, attraction, a-b-da, 14, 1, 3, 30, 125, 56, 135, 60, 60, 135, 1, 1.40751
15, 2, bw, attraction, a-b-da, 5, 2, 3, 31, 165, 90, 90, 165, 161, 88, 2, 2.32745
15, 2, bw, attraction, a-b-da, 5, 2, 3, 31, 165, 90, 90, 165, 161, 88, 1, 3.61472
15, 2, bw, attraction, a-b-db, 14, 3, 3, 32, 111, 181, 120, 195, 195, 120, 2, 4.01213
15, 2, bw, attraction, a-b-db, 14, 3, 3, 32, 111, 181, 120, 195, 195, 120, 1, 0.809371
15, 2, bw, attraction, a-b-db, 2, 1, 3, 33, 59, 134, 135, 60, 60, 135, 3, 3.71828
15, 2, bw, attraction, a-b-db, 2, 1, 3, 33, 59, 134, 135, 60, 60, 135, 1, 0.713302
15, 2, bw, attraction, a-b-da, 14, 3, 3, 34, 195, 120, 120, 195, 181, 111, 2, 3.80198
15, 2, bw, attraction, a-b-da, 14, 3, 3, 34, 195, 120, 120, 195, 181, 111, 3, 0.777048
15, 2, bw, catch, NA, 999, 999, 3, 35, 158, 157, 103, 152, 91, 104, 1, 3.23181
15, 2, bw, catch, NA, 999, 999, 3, 35, 158, 157, 103, 152, 91, 104, 3, 0.835647
15, 2, bw, attraction, a-b-da, 9, 3, 3, 36, 186, 114, 195, 120, 120, 195, 3, 3.96884
15, 2, bw, attraction, a-b-da, 9, 3, 3, 36, 186, 114, 195, 120, 120, 195, 1, 0.761897
15, 2, bw, filler, NA, 999, 999, 3, 37, 166, 128, 162, 189, 179, 103, 2, 1.87984
15, 2, bw, filler, NA, 999, 999, 3, 37, 166, 128, 162, 189, 179, 103, 3, 0.660161
15, 2, bw, attraction, a-b-db, 2, 2, 4, 1, 90, 165, 89, 163, 165, 90, 2, 2.67969
15, 2, bw, attraction, a-b-db, 2, 2, 4, 1, 90, 165, 89, 163, 165, 90, 1, 0.756428
15, 2, bw, attraction, a-b-da, 9, 3, 4, 2, 120, 195, 195, 120, 186, 114, 2, 3.60993
15, 2, bw, attraction, a-b-da, 9, 3, 4, 2, 120, 195, 195, 120, 186, 114, 3, 0.750708
15, 2, bw, filler, NA, 999, 999, 4, 3, 188, 128, 106, 60, 98, 134, 1, 2.40048
15, 2, bw, filler, NA, 999, 999, 4, 3, 188, 128, 106, 60, 98, 134, 2, 0.950975
15, 2, bw, attraction, a-b-db, 5, 1, 4, 4, 60, 135, 135, 60, 58, 132, 1, 7.35823
15, 2, bw, attraction, a-b-db, 5, 1, 4, 4, 60, 135, 135, 60, 58, 132, 2, 0.725031
15, 2, bw, attraction, a-b-db, 9, 2, 4, 5, 90, 165, 86, 157, 165, 90, 1, 7.66199
15, 2, bw, attraction, a-b-db, 9, 2, 4, 5, 90, 165, 86, 157, 165, 90, 2, 0.850516
15, 2, bw, attraction, a-b-db, 2, 1, 4, 6, 60, 135, 59, 134, 135, 60, 2, 4.18059
15, 2, bw, attraction, a-b-db, 2, 1, 4, 6, 60, 135, 59, 134, 135, 60, 3, 0.746507
15, 2, bw, attraction, a-b-da, 14, 3, 4, 7, 181, 111, 120, 195, 195, 120, 2, 2.85056
15, 2, bw, attraction, a-b-da, 14, 3, 4, 7, 181, 111, 120, 195, 195, 120, 1, 0.769721
15, 2, bw, attraction, a-b-db, 9, 1, 4, 8, 57, 129, 135, 60, 60, 135, 3, 6.00604
15, 2, bw, attraction, a-b-db, 9, 1, 4, 8, 57, 129, 135, 60, 60, 135, 1, 0.766684
15, 2, bw, attraction, a-b-da, 5, 1, 4, 9, 135, 60, 132, 58, 60, 135, 2, 7.01259
15, 2, bw, attraction, a-b-da, 5, 1, 4, 9, 135, 60, 132, 58, 60, 135, 1, 2.5933
15, 2, bw, attraction, a-b-db, 14, 3, 4, 10, 120, 195, 195, 120, 111, 181, 2, 4.52609
15, 2, bw, attraction, a-b-db, 14, 3, 4, 10, 120, 195, 195, 120, 111, 181, 1, 0.718884
15, 2, bw, attraction, a-b-da, 14, 2, 4, 11, 153, 83, 90, 165, 165, 90, 2, 1.97655
15, 2, bw, attraction, a-b-da, 14, 2, 4, 11, 153, 83, 90, 165, 165, 90, 1, 0.744704
15, 2, bw, attraction, a-b-da, 14, 1, 4, 12, 135, 60, 60, 135, 125, 56, 2, 4.72046
15, 2, bw, attraction, a-b-da, 14, 1, 4, 12, 135, 60, 60, 135, 125, 56, 3, 1.36323
15, 2, bw, filler, NA, 999, 999, 4, 13, 119, 113, 68, 97, 123, 152, 3, 3.84918
15, 2, bw, filler, NA, 999, 999, 4, 13, 119, 113, 68, 97, 123, 152, 2, 0.741214
15, 2, bw, filler, NA, 999, 999, 4, 14, 60, 112, 133, 149, 163, 193, 3, 1.74388
15, 2, bw, filler, NA, 999, 999, 4, 14, 60, 112, 133, 149, 163, 193, 1, 0.726699
15, 2, bw, attraction, a-b-db, 14, 1, 4, 15, 56, 125, 135, 60, 60, 135, 3, 3.82324
15, 2, bw, attraction, a-b-db, 14, 1, 4, 15, 56, 125, 135, 60, 60, 135, 1, 0.895102
15, 2, bw, filler, NA, 999, 999, 4, 16, 169, 131, 59, 155, 89, 101, 1, 2.21646
15, 2, bw, filler, NA, 999, 999, 4, 16, 169, 131, 59, 155, 89, 101, 2, 7.63757
15, 2, bw, filler, NA, 999, 999, 4, 17, 178, 120, 63, 133, 83, 148, 1, 3.74479
15, 2, bw, filler, NA, 999, 999, 4, 17, 178, 120, 63, 133, 83, 148, 2, 0.80724
15, 2, bw, filler, NA, 999, 999, 4, 18, 115, 82, 123, 119, 178, 158, 3, 1.69398
15, 2, bw, filler, NA, 999, 999, 4, 18, 115, 82, 123, 119, 178, 158, 1, 0.753942
15, 2, bw, attraction, a-b-db, 5, 3, 4, 19, 195, 120, 120, 195, 117, 190, 2, 7.26482
15, 2, bw, attraction, a-b-db, 5, 3, 4, 19, 195, 120, 120, 195, 117, 190, 1, 1.19596
15, 2, bw, attraction, a-b-da, 2, 1, 4, 20, 60, 135, 134, 59, 135, 60, 1, 4.33929
15, 2, bw, attraction, a-b-da, 2, 1, 4, 20, 60, 135, 134, 59, 135, 60, 2, 1.04045
15, 2, bw, attraction, a-b-da, 2, 2, 4, 21, 165, 90, 90, 165, 163, 89, 2, 3.4381
15, 2, bw, attraction, a-b-da, 2, 2, 4, 21, 165, 90, 90, 165, 163, 89, 3, 0.786556
15, 2, bw, attraction, a-b-da, 5, 3, 4, 22, 195, 120, 190, 117, 120, 195, 2, 1.92146
15, 2, bw, attraction, a-b-da, 5, 3, 4, 22, 195, 120, 190, 117, 120, 195, 1, 0.741197
15, 2, bw, attraction, a-b-db, 14, 2, 4, 23, 83, 153, 165, 90, 90, 165, 3, 3.1169
15, 2, bw, attraction, a-b-db, 14, 2, 4, 23, 83, 153, 165, 90, 90, 165, 1, 1.09394
15, 2, bw, attraction, a-b-da, 5, 2, 4, 24, 165, 90, 90, 165, 161, 88, 2, 3.93506
15, 2, bw, attraction, a-b-da, 5, 2, 4, 24, 165, 90, 90, 165, 161, 88, 3, 0.986768
15, 2, bw, catch, NA, 999, 999, 4, 25, 65, 130, 161, 94, 138, 177, 3, 1.41299
15, 2, bw, catch, NA, 999, 999, 4, 25, 65, 130, 161, 94, 138, 177, 1, 1.32383
15, 2, bw, attraction, a-b-da, 9, 2, 4, 26, 165, 90, 157, 86, 90, 165, 3, 3.10161
15, 2, bw, attraction, a-b-da, 9, 2, 4, 26, 165, 90, 157, 86, 90, 165, 2, 1.14598
15, 2, bw, filler, NA, 999, 999, 4, 27, 78, 129, 70, 74, 79, 67, 1, 2.5282
15, 2, bw, filler, NA, 999, 999, 4, 27, 78, 129, 70, 74, 79, 67, 2, 0.954225
15, 2, bw, filler, NA, 999, 999, 4, 28, 181, 156, 83, 166, 156, 145, 1, 3.34632
15, 2, bw, filler, NA, 999, 999, 4, 28, 181, 156, 83, 166, 156, 145, 2, 0.874591
15, 2, bw, catch, NA, 999, 999, 4, 29, 95, 160, 178, 137, 104, 91, 2, 2.7
15, 2, bw, catch, NA, 999, 999, 4, 29, 95, 160, 178, 137, 104, 91, 3, 1.27278
15, 2, bw, attraction, a-b-db, 2, 3, 4, 30, 195, 120, 120, 195, 119, 193, 2, 3.75429
15, 2, bw, attraction, a-b-db, 2, 3, 4, 30, 195, 120, 120, 195, 119, 193, 3, 0.834243
15, 2, bw, attraction, a-b-db, 5, 2, 4, 31, 165, 90, 88, 161, 90, 165, 1, 5.84854
15, 2, bw, attraction, a-b-db, 5, 2, 4, 31, 165, 90, 88, 161, 90, 165, 2, 0.683106
15, 2, bw, filler, NA, 999, 999, 4, 32, 123, 89, 181, 191, 191, 191, 2, 1.67726
15, 2, bw, filler, NA, 999, 999, 4, 32, 123, 89, 181, 191, 191, 191, 1, 1.11913
15, 2, bw, attraction, a-b-db, 9, 3, 4, 33, 120, 195, 114, 186, 195, 120, 1, 7.43378
15, 2, bw, attraction, a-b-db, 9, 3, 4, 33, 120, 195, 114, 186, 195, 120, 2, 0.739989
15, 2, bw, catch, NA, 999, 999, 4, 34, 161, 154, 86, 109, 149, 106, 1, 1.79635
15, 2, bw, catch, NA, 999, 999, 4, 34, 161, 154, 86, 109, 149, 106, 2, 0.754241
15, 2, bw, filler, NA, 999, 999, 4, 35, 98, 134, 105, 153, 60, 85, 2, 11.1619
15, 2, bw, filler, NA, 999, 999, 4, 35, 98, 134, 105, 153, 60, 85, 3, 0.7527
15, 2, bw, attraction, a-b-da, 2, 3, 4, 36, 193, 119, 195, 120, 120, 195, 3, 3.89165
15, 2, bw, attraction, a-b-da, 2, 3, 4, 36, 193, 119, 195, 120, 120, 195, 2, 0.795409
15, 2, bw, attraction, a-b-da, 9, 1, 4, 37, 60, 135, 135, 60, 129, 57, 1, 2.13106
15, 2, bw, attraction, a-b-da, 9, 1, 4, 37, 60, 135, 135, 60, 129, 57, 3, 0.969847
15, 2, bw, attraction, a-b-da, 14, 1, 5, 1, 135, 60, 60, 135, 125, 56, 1, 9.03223
15, 2, bw, attraction, a-b-da, 14, 1, 5, 1, 135, 60, 60, 135, 125, 56, 3, 1.67526
15, 2, bw, attraction, a-b-db, 14, 3, 5, 2, 120, 195, 111, 181, 195, 120, 1, 5.34281
15, 2, bw, attraction, a-b-db, 14, 3, 5, 2, 120, 195, 111, 181, 195, 120, 2, 0.765888
15, 2, bw, attraction, a-b-db, 9, 2, 5, 3, 86, 157, 90, 165, 165, 90, 2, 9.11633
15, 2, bw, attraction, a-b-db, 9, 2, 5, 3, 86, 157, 90, 165, 165, 90, 1, 0.605997
15, 2, bw, attraction, a-b-db, 5, 2, 5, 4, 90, 165, 88, 161, 165, 90, 3, 8.01083
15, 2, bw, attraction, a-b-db, 5, 2, 5, 4, 90, 165, 88, 161, 165, 90, 2, 1.03243
15, 2, bw, filler, NA, 999, 999, 5, 5, 140, 150, 165, 99, 176, 110, 1, 6.76478
15, 2, bw, filler, NA, 999, 999, 5, 5, 140, 150, 165, 99, 176, 110, 2, 0.691657
15, 2, bw, attraction, a-b-db, 9, 3, 5, 6, 114, 186, 120, 195, 195, 120, 2, 8.86108
15, 2, bw, attraction, a-b-db, 9, 3, 5, 6, 114, 186, 120, 195, 195, 120, 1, 0.711416
15, 2, bw, filler, NA, 999, 999, 5, 7, 164, 110, 64, 176, 63, 62, 1, 5.17937
15, 2, bw, filler, NA, 999, 999, 5, 7, 164, 110, 64, 176, 63, 62, 3, 1.4897
15, 2, bw, filler, NA, 999, 999, 5, 8, 151, 175, 154, 122, 112, 108, 1, 2.88133
15, 2, bw, filler, NA, 999, 999, 5, 8, 151, 175, 154, 122, 112, 108, 3, 0.782376
15, 2, bw, attraction, a-b-db, 5, 1, 5, 9, 135, 60, 58, 132, 60, 135, 3, 5.37989
15, 2, bw, attraction, a-b-db, 5, 1, 5, 9, 135, 60, 58, 132, 60, 135, 2, 0.690252
15, 2, bw, attraction, a-b-da, 9, 1, 5, 10, 129, 57, 60, 135, 135, 60, 3, 8.97081
15, 2, bw, attraction, a-b-da, 9, 1, 5, 10, 129, 57, 60, 135, 135, 60, 2, 0.76948
15, 2, bw, filler, NA, 999, 999, 5, 11, 150, 163, 60, 95, 112, 124, 1, 2.06603
15, 2, bw, filler, NA, 999, 999, 5, 11, 150, 163, 60, 95, 112, 124, 2, 0.717941
15, 2, bw, attraction, a-b-db, 14, 2, 5, 12, 83, 153, 90, 165, 165, 90, 2, 3.24588
15, 2, bw, attraction, a-b-db, 14, 2, 5, 12, 83, 153, 90, 165, 165, 90, 1, 1.04366
15, 2, bw, attraction, a-b-da, 5, 2, 5, 13, 161, 88, 90, 165, 165, 90, 2, 11.7743
15, 2, bw, attraction, a-b-da, 5, 2, 5, 13, 161, 88, 90, 165, 165, 90, 1, 2.6849
15, 2, bw, attraction, a-b-da, 9, 3, 5, 14, 186, 114, 120, 195, 195, 120, 2, 2.44615
15, 2, bw, attraction, a-b-da, 9, 3, 5, 14, 186, 114, 120, 195, 195, 120, 1, 0.795141
15, 2, bw, attraction, a-b-da, 9, 2, 5, 15, 157, 86, 90, 165, 165, 90, 2, 3.52186
15, 2, bw, attraction, a-b-da, 9, 2, 5, 15, 157, 86, 90, 165, 165, 90, 1, 0.603507
15, 2, bw, attraction, a-b-db, 5, 3, 5, 16, 117, 190, 195, 120, 120, 195, 2, 2.76865
15, 2, bw, attraction, a-b-db, 5, 3, 5, 16, 117, 190, 195, 120, 120, 195, 1, 0.847226
15, 2, bw, attraction, a-b-da, 5, 3, 5, 17, 195, 120, 190, 117, 120, 195, 3, 3.28239
15, 2, bw, attraction, a-b-da, 5, 3, 5, 17, 195, 120, 190, 117, 120, 195, 1, 1.01435
15, 2, bw, attraction, a-b-da, 2, 3, 5, 18, 120, 195, 193, 119, 195, 120, 1, 5.61025
15, 2, bw, attraction, a-b-da, 2, 3, 5, 18, 120, 195, 193, 119, 195, 120, 3, 1.7619
15, 2, bw, attraction, a-b-da, 14, 3, 5, 19, 181, 111, 195, 120, 120, 195, 3, 5.8102
15, 2, bw, attraction, a-b-da, 14, 3, 5, 19, 181, 111, 195, 120, 120, 195, 1, 0.749694
15, 2, bw, attraction, a-b-da, 2, 2, 5, 20, 90, 165, 163, 89, 165, 90, 3, 6.14263
15, 2, bw, attraction, a-b-da, 2, 2, 5, 20, 90, 165, 163, 89, 165, 90, 2, 0.788672
15, 2, bw, filler, NA, 999, 999, 5, 21, 92, 148, 151, 101, 98, 134, 1, 6.06756
15, 2, bw, filler, NA, 999, 999, 5, 21, 92, 148, 151, 101, 98, 134, 3, 0.582617
15, 2, bw, catch, NA, 999, 999, 5, 22, 81, 114, 130, 125, 164, 151, 3, 1.8377
15, 2, bw, catch, NA, 999, 999, 5, 22, 81, 114, 130, 125, 164, 151, 1, 0.905536
15, 2, bw, attraction, a-b-da, 2, 1, 5, 23, 134, 59, 135, 60, 60, 135, 1, 6.4846
15, 2, bw, attraction, a-b-da, 2, 1, 5, 23, 134, 59, 135, 60, 60, 135, 2, 0.792235
15, 2, bw, attraction, a-b-db, 9, 1, 5, 24, 57, 129, 135, 60, 60, 135, 3, 5.42209
15, 2, bw, attraction, a-b-db, 9, 1, 5, 24, 57, 129, 135, 60, 60, 135, 1, 2.41125
15, 2, bw, attraction, a-b-da, 5, 1, 5, 25, 132, 58, 135, 60, 60, 135, 3, 4.47993
15, 2, bw, attraction, a-b-da, 5, 1, 5, 25, 132, 58, 135, 60, 60, 135, 1, 0.754696
15, 2, bw, catch, NA, 999, 999, 5, 26, 180, 135, 121, 74, 90, 165, 1, 2.75374
15, 2, bw, catch, NA, 999, 999, 5, 26, 180, 135, 121, 74, 90, 165, 2, 1.84093
15, 2, bw, attraction, a-b-da, 14, 2, 5, 27, 165, 90, 90, 165, 153, 83, 2, 5.1601
15, 2, bw, attraction, a-b-da, 14, 2, 5, 27, 165, 90, 90, 165, 153, 83, 3, 0.716192
15, 2, bw, attraction, a-b-db, 2, 3, 5, 28, 119, 193, 120, 195, 195, 120, 2, 3.33469
15, 2, bw, attraction, a-b-db, 2, 3, 5, 28, 119, 193, 120, 195, 195, 120, 3, 1.1269
15, 2, bw, attraction, a-b-db, 2, 1, 5, 29, 135, 60, 59, 134, 60, 135, 3, 8.07378
15, 2, bw, attraction, a-b-db, 2, 1, 5, 29, 135, 60, 59, 134, 60, 135, 2, 0.938668
15, 2, bw, filler, NA, 999, 999, 5, 30, 134, 173, 106, 86, 126, 121, 1, 1.93092
15, 2, bw, filler, NA, 999, 999, 5, 30, 134, 173, 106, 86, 126, 121, 2, 1.24495
15, 2, bw, filler, NA, 999, 999, 5, 31, 113, 191, 141, 112, 133, 78, 1, 2.27156
15, 2, bw, filler, NA, 999, 999, 5, 31, 113, 191, 141, 112, 133, 78, 3, 0.692272
15, 2, bw, filler, NA, 999, 999, 5, 32, 103, 75, 167, 115, 185, 169, 3, 1.41495
15, 2, bw, filler, NA, 999, 999, 5, 32, 103, 75, 167, 115, 185, 169, 1, 0.87771
15, 2, bw, filler, NA, 999, 999, 5, 33, 89, 174, 140, 62, 167, 178, 3, 1.49572
15, 2, bw, filler, NA, 999, 999, 5, 33, 89, 174, 140, 62, 167, 178, 2, 0.915608
15, 2, bw, attraction, a-b-db, 2, 2, 5, 34, 165, 90, 89, 163, 90, 165, 3, 6.53116
15, 2, bw, attraction, a-b-db, 2, 2, 5, 34, 165, 90, 89, 163, 90, 165, 2, 0.85991
15, 2, bw, filler, NA, 999, 999, 5, 35, 83, 134, 145, 110, 184, 58, 2, 5.87976
15, 2, bw, filler, NA, 999, 999, 5, 35, 83, 134, 145, 110, 184, 58, 1, 0.892086
15, 2, bw, attraction, a-b-db, 14, 1, 5, 36, 135, 60, 60, 135, 56, 125, 1, 12.1007
15, 2, bw, attraction, a-b-db, 14, 1, 5, 36, 135, 60, 60, 135, 56, 125, 2, 0.875177
15, 2, bw, catch, NA, 999, 999, 5, 37, 153, 162, 107, 148, 69, 126, 1, 1.74888
15, 2, bw, catch, NA, 999, 999, 5, 37, 153, 162, 107, 148, 69, 126, 3, 0.903472
15, 2, bw, attraction, a-b-da, 5, 3, 6, 1, 120, 195, 190, 117, 195, 120, 1, 5.8504
15, 2, bw, attraction, a-b-da, 5, 3, 6, 1, 120, 195, 190, 117, 195, 120, 2, 2.37875
15, 2, bw, filler, NA, 999, 999, 6, 2, 98, 87, 193, 176, 182, 90, 2, 1.82035
15, 2, bw, filler, NA, 999, 999, 6, 2, 98, 87, 193, 176, 182, 90, 1, 1.22503
15, 2, bw, attraction, a-b-db, 5, 2, 6, 3, 90, 165, 165, 90, 88, 161, 1, 3.43919
15, 2, bw, attraction, a-b-db, 5, 2, 6, 3, 90, 165, 165, 90, 88, 161, 3, 1.85154
15, 2, bw, filler, NA, 999, 999, 6, 4, 122, 161, 73, 91, 108, 156, 1, 3.09507
15, 2, bw, filler, NA, 999, 999, 6, 4, 122, 161, 73, 91, 108, 156, 2, 1.06519
15, 2, bw, attraction, a-b-da, 14, 1, 6, 5, 60, 135, 135, 60, 125, 56, 3, 11.5159
15, 2, bw, attraction, a-b-da, 14, 1, 6, 5, 60, 135, 135, 60, 125, 56, 1, 0.786624
15, 2, bw, attraction, a-b-db, 14, 1, 6, 6, 60, 135, 135, 60, 56, 125, 1, 4.23437
15, 2, bw, attraction, a-b-db, 14, 1, 6, 6, 60, 135, 135, 60, 56, 125, 3, 0.579696
15, 2, bw, attraction, a-b-db, 14, 2, 6, 7, 165, 90, 83, 153, 90, 165, 3, 2.65958
15, 2, bw, attraction, a-b-db, 14, 2, 6, 7, 165, 90, 83, 153, 90, 165, 2, 0.841033
15, 2, bw, attraction, a-b-da, 2, 2, 6, 8, 90, 165, 165, 90, 163, 89, 2, 4.89359
15, 2, bw, attraction, a-b-da, 2, 2, 6, 8, 90, 165, 165, 90, 163, 89, 3, 0.831878
15, 2, bw, catch, NA, 999, 999, 6, 9, 138, 177, 109, 86, 132, 123, 1, 1.67802
15, 2, bw, catch, NA, 999, 999, 6, 9, 138, 177, 109, 86, 132, 123, 2, 0.775385
15, 2, bw, attraction, a-b-db, 14, 3, 6, 10, 120, 195, 111, 181, 195, 120, 1, 3.5347
15, 2, bw, attraction, a-b-db, 14, 3, 6, 10, 120, 195, 111, 181, 195, 120, 2, 0.695243
15, 2, bw, filler, NA, 999, 999, 6, 11, 72, 115, 151, 105, 90, 74, 2, 2.01782
15, 2, bw, filler, NA, 999, 999, 6, 11, 72, 115, 151, 105, 90, 74, 3, 0.71331
15, 2, bw, filler, NA, 999, 999, 6, 12, 167, 96, 163, 71, 166, 95, 1, 6.46662
15, 2, bw, filler, NA, 999, 999, 6, 12, 167, 96, 163, 71, 166, 95, 2, 0.971847
15, 2, bw, filler, NA, 999, 999, 6, 13, 173, 93, 165, 168, 160, 174, 3, 4.27741
15, 2, bw, filler, NA, 999, 999, 6, 13, 173, 93, 165, 168, 160, 174, 1, 0.694117
15, 2, bw, attraction, a-b-da, 14, 2, 6, 14, 165, 90, 153, 83, 90, 165, 3, 3.62437
15, 2, bw, attraction, a-b-da, 14, 2, 6, 14, 165, 90, 153, 83, 90, 165, 2, 0.765633
15, 2, bw, attraction, a-b-da, 9, 3, 6, 15, 186, 114, 195, 120, 120, 195, 3, 5.28588
15, 2, bw, attraction, a-b-da, 9, 3, 6, 15, 186, 114, 195, 120, 120, 195, 1, 0.71119
15, 2, bw, attraction, a-b-da, 9, 1, 6, 16, 129, 57, 60, 135, 135, 60, 3, 4.2959
15, 2, bw, attraction, a-b-da, 9, 1, 6, 16, 129, 57, 60, 135, 135, 60, 1, 0.859211
15, 2, bw, attraction, a-b-db, 2, 2, 6, 17, 165, 90, 90, 165, 89, 163, 3, 4.23176
15, 2, bw, attraction, a-b-db, 2, 2, 6, 17, 165, 90, 90, 165, 89, 163, 2, 0.821324
15, 2, bw, attraction, a-b-da, 2, 1, 6, 18, 60, 135, 134, 59, 135, 60, 1, 5.47269
15, 2, bw, attraction, a-b-da, 2, 1, 6, 18, 60, 135, 134, 59, 135, 60, 2, 0.683664
15, 2, bw, attraction, a-b-db, 9, 3, 6, 19, 114, 186, 120, 195, 195, 120, 2, 2.54256
15, 2, bw, attraction, a-b-db, 9, 3, 6, 19, 114, 186, 120, 195, 195, 120, 1, 0.61609
15, 2, bw, filler, NA, 999, 999, 6, 20, 96, 163, 71, 156, 124, 96, 1, 4.78181
15, 2, bw, filler, NA, 999, 999, 6, 20, 96, 163, 71, 156, 124, 96, 2, 1.97886
15, 2, bw, filler, NA, 999, 999, 6, 21, 64, 137, 79, 144, 148, 175, 3, 1.45065
15, 2, bw, filler, NA, 999, 999, 6, 21, 64, 137, 79, 144, 148, 175, 1, 0.789374
15, 2, bw, attraction, a-b-db, 5, 1, 6, 22, 60, 135, 135, 60, 58, 132, 1, 5.30077
15, 2, bw, attraction, a-b-db, 5, 1, 6, 22, 60, 135, 135, 60, 58, 132, 3, 0.758407
15, 2, bw, attraction, a-b-db, 2, 3, 6, 23, 119, 193, 120, 195, 195, 120, 2, 6.53466
15, 2, bw, attraction, a-b-db, 2, 3, 6, 23, 119, 193, 120, 195, 195, 120, 3, 0.687
15, 2, bw, attraction, a-b-da, 5, 1, 6, 24, 132, 58, 60, 135, 135, 60, 2, 2.60044
15, 2, bw, attraction, a-b-da, 5, 1, 6, 24, 132, 58, 60, 135, 135, 60, 3, 0.774141
15, 2, bw, catch, NA, 999, 999, 6, 25, 84, 111, 156, 159, 114, 141, 2, 1.80598
15, 2, bw, catch, NA, 999, 999, 6, 25, 84, 111, 156, 159, 114, 141, 1, 0.718346
15, 2, bw, filler, NA, 999, 999, 6, 26, 88, 78, 176, 114, 130, 84, 2, 2.10112
15, 2, bw, filler, NA, 999, 999, 6, 26, 88, 78, 176, 114, 130, 84, 1, 0.600495
15, 2, bw, attraction, a-b-db, 9, 2, 6, 27, 90, 165, 165, 90, 86, 157, 2, 2.75955
15, 2, bw, attraction, a-b-db, 9, 2, 6, 27, 90, 165, 165, 90, 86, 157, 3, 0.560301
15, 2, bw, attraction, a-b-da, 9, 2, 6, 28, 165, 90, 157, 86, 90, 165, 1, 3.52631
15, 2, bw, attraction, a-b-da, 9, 2, 6, 28, 165, 90, 157, 86, 90, 165, 2, 0.680751
15, 2, bw, attraction, a-b-da, 14, 3, 6, 29, 195, 120, 181, 111, 120, 195, 1, 3.21047
15, 2, bw, attraction, a-b-da, 14, 3, 6, 29, 195, 120, 181, 111, 120, 195, 2, 0.664429
15, 2, bw, filler, NA, 999, 999, 6, 30, 171, 97, 149, 143, 94, 107, 2, 1.38831
15, 2, bw, filler, NA, 999, 999, 6, 30, 171, 97, 149, 143, 94, 107, 3, 0.668602
15, 2, bw, attraction, a-b-da, 2, 3, 6, 31, 193, 119, 120, 195, 195, 120, 3, 5.57276
15, 2, bw, attraction, a-b-da, 2, 3, 6, 31, 193, 119, 120, 195, 195, 120, 2, 0.876726
15, 2, bw, catch, NA, 999, 999, 6, 32, 148, 107, 173, 142, 76, 119, 2, 1.84987
15, 2, bw, catch, NA, 999, 999, 6, 32, 148, 107, 173, 142, 76, 119, 3, 0.724209
15, 2, bw, attraction, a-b-da, 5, 2, 6, 33, 165, 90, 161, 88, 90, 165, 3, 4.99213
15, 2, bw, attraction, a-b-da, 5, 2, 6, 33, 165, 90, 161, 88, 90, 165, 1, 1.31496
15, 2, bw, attraction, a-b-db, 2, 1, 6, 34, 59, 134, 135, 60, 60, 135, 2, 8.62281
15, 2, bw, attraction, a-b-db, 2, 1, 6, 34, 59, 134, 135, 60, 60, 135, 3, 0.856279
15, 2, bw, filler, NA, 999, 999, 6, 35, 100, 155, 93, 184, 102, 111, 1, 1.90883
15, 2, bw, filler, NA, 999, 999, 6, 35, 100, 155, 93, 184, 102, 111, 3, 2.96912
15, 2, bw, attraction, a-b-db, 9, 1, 6, 36, 57, 129, 60, 135, 135, 60, 2, 6.0398
15, 2, bw, attraction, a-b-db, 9, 1, 6, 36, 57, 129, 60, 135, 135, 60, 3, 1.4595
15, 2, bw, attraction, a-b-db, 5, 3, 6, 37, 117, 190, 120, 195, 195, 120, 2, 4.36538
15, 2, bw, attraction, a-b-db, 5, 3, 6, 37, 117, 190, 120, 195, 195, 120, 3, 0.764986
15, 2, bw, attraction, a-b-da, 5, 2, 7, 1, 161, 88, 165, 90, 90, 165, 2, 4.54785
15, 2, bw, attraction, a-b-da, 5, 2, 7, 1, 161, 88, 165, 90, 90, 165, 3, 1.07586
15, 2, bw, attraction, a-b-da, 2, 1, 7, 2, 135, 60, 60, 135, 134, 59, 2, 3.32583
15, 2, bw, attraction, a-b-da, 2, 1, 7, 2, 135, 60, 60, 135, 134, 59, 3, 1.24103
15, 2, bw, attraction, a-b-da, 5, 1, 7, 3, 60, 135, 132, 58, 135, 60, 1, 4.33346
15, 2, bw, attraction, a-b-da, 5, 1, 7, 3, 60, 135, 132, 58, 135, 60, 2, 0.789657
15, 2, bw, attraction, a-b-da, 9, 1, 7, 4, 60, 135, 129, 57, 135, 60, 1, 8.42919
15, 2, bw, attraction, a-b-da, 9, 1, 7, 4, 60, 135, 129, 57, 135, 60, 2, 0.743763
15, 2, bw, attraction, a-b-db, 5, 3, 7, 5, 120, 195, 117, 190, 195, 120, 2, 3.30312
15, 2, bw, attraction, a-b-db, 5, 3, 7, 5, 120, 195, 117, 190, 195, 120, 1, 0.817437
15, 2, bw, filler, NA, 999, 999, 7, 6, 72, 87, 152, 177, 172, 132, 2, 1.48078
15, 2, bw, filler, NA, 999, 999, 7, 6, 72, 87, 152, 177, 172, 132, 1, 0.969474
15, 2, bw, filler, NA, 999, 999, 7, 7, 65, 122, 153, 161, 108, 66, 2, 2.92259
15, 2, bw, filler, NA, 999, 999, 7, 7, 65, 122, 153, 161, 108, 66, 3, 0.730978
15, 2, bw, attraction, a-b-da, 2, 3, 7, 8, 195, 120, 193, 119, 120, 195, 2, 6.25037
15, 2, bw, attraction, a-b-da, 2, 3, 7, 8, 195, 120, 193, 119, 120, 195, 3, 0.863567
15, 2, bw, filler, NA, 999, 999, 7, 9, 140, 120, 147, 113, 139, 84, 2, 13.3158
15, 2, bw, filler, NA, 999, 999, 7, 9, 140, 120, 147, 113, 139, 84, 3, 1.13553
15, 2, bw, attraction, a-b-db, 9, 3, 7, 10, 114, 186, 195, 120, 120, 195, 1, 3.08202
15, 2, bw, attraction, a-b-db, 9, 3, 7, 10, 114, 186, 195, 120, 120, 195, 2, 5.94918
15, 2, bw, filler, NA, 999, 999, 7, 11, 126, 190, 124, 80, 64, 178, 1, 1.57703
15, 2, bw, filler, NA, 999, 999, 7, 11, 126, 190, 124, 80, 64, 178, 2, 1.66465
15, 2, bw, filler, NA, 999, 999, 7, 12, 103, 101, 104, 115, 122, 112, 3, 2.40521
15, 2, bw, filler, NA, 999, 999, 7, 12, 103, 101, 104, 115, 122, 112, 1, 2.18153
15, 2, bw, attraction, a-b-db, 14, 1, 7, 13, 60, 135, 135, 60, 56, 125, 2, 2.82677
15, 2, bw, attraction, a-b-db, 14, 1, 7, 13, 60, 135, 135, 60, 56, 125, 3, 0.822998
15, 2, bw, filler, NA, 999, 999, 7, 14, 103, 78, 166, 136, 80, 74, 2, 1.35601
15, 2, bw, filler, NA, 999, 999, 7, 14, 103, 78, 166, 136, 80, 74, 3, 0.579356
15, 2, bw, attraction, a-b-db, 14, 2, 7, 15, 90, 165, 165, 90, 83, 153, 1, 2.3984
15, 2, bw, attraction, a-b-db, 14, 2, 7, 15, 90, 165, 165, 90, 83, 153, 3, 0.721569
15, 2, bw, attraction, a-b-da, 14, 1, 7, 16, 135, 60, 125, 56, 60, 135, 3, 7.49904
15, 2, bw, attraction, a-b-da, 14, 1, 7, 16, 135, 60, 125, 56, 60, 135, 2, 0.548529
15, 2, bw, catch, NA, 999, 999, 7, 17, 154, 161, 94, 101, 132, 123, 1, 1.69303
15, 2, bw, catch, NA, 999, 999, 7, 17, 154, 161, 94, 101, 132, 123, 2, 0.864697
15, 2, bw, filler, NA, 999, 999, 7, 18, 182, 103, 95, 124, 136, 187, 3, 1.46652
15, 2, bw, filler, NA, 999, 999, 7, 18, 182, 103, 95, 124, 136, 187, 2, 1.01655
15, 2, bw, attraction, a-b-db, 5, 1, 7, 19, 60, 135, 135, 60, 58, 132, 2, 5.48607
15, 2, bw, attraction, a-b-db, 5, 1, 7, 19, 60, 135, 135, 60, 58, 132, 3, 0.679472
15, 2, bw, catch, NA, 999, 999, 7, 20, 157, 158, 61, 134, 149, 106, 1, 1.38403
15, 2, bw, catch, NA, 999, 999, 7, 20, 157, 158, 61, 134, 149, 106, 2, 0.736994
15, 2, bw, attraction, a-b-db, 14, 3, 7, 21, 111, 181, 195, 120, 120, 195, 2, 1.90609
15, 2, bw, attraction, a-b-db, 14, 3, 7, 21, 111, 181, 195, 120, 120, 195, 1, 0.875645
15, 2, bw, attraction, a-b-db, 2, 2, 7, 22, 89, 163, 165, 90, 90, 165, 3, 1.60016
15, 2, bw, attraction, a-b-db, 2, 2, 7, 22, 89, 163, 165, 90, 90, 165, 2, 0.695112
15, 2, bw, filler, NA, 999, 999, 7, 23, 123, 159, 195, 68, 149, 135, 3, 4.2074
15, 2, bw, filler, NA, 999, 999, 7, 23, 123, 159, 195, 68, 149, 135, 2, 0.934532
15, 2, bw, attraction, a-b-db, 5, 2, 7, 24, 90, 165, 165, 90, 88, 161, 2, 3.78366
15, 2, bw, attraction, a-b-db, 5, 2, 7, 24, 90, 165, 165, 90, 88, 161, 3, 1.00531
15, 2, bw, attraction, a-b-da, 5, 3, 7, 25, 190, 117, 120, 195, 195, 120, 2, 3.61773
15, 2, bw, attraction, a-b-da, 5, 3, 7, 25, 190, 117, 120, 195, 195, 120, 3, 1.9271
15, 2, bw, attraction, a-b-da, 9, 2, 7, 26, 165, 90, 90, 165, 157, 86, 1, 3.27291
15, 2, bw, attraction, a-b-da, 9, 2, 7, 26, 165, 90, 90, 165, 157, 86, 3, 0.733085
15, 2, bw, attraction, a-b-db, 2, 3, 7, 27, 195, 120, 120, 195, 119, 193, 1, 7.74251
15, 2, bw, attraction, a-b-db, 2, 3, 7, 27, 195, 120, 120, 195, 119, 193, 3, 0.710557
15, 2, bw, attraction, a-b-da, 2, 2, 7, 28, 90, 165, 165, 90, 163, 89, 1, 6.54161
15, 2, bw, attraction, a-b-da, 2, 2, 7, 28, 90, 165, 165, 90, 163, 89, 3, 0.862139
15, 2, bw, filler, NA, 999, 999, 7, 29, 185, 98, 63, 92, 153, 185, 3, 1.94809
15, 2, bw, filler, NA, 999, 999, 7, 29, 185, 98, 63, 92, 153, 185, 2, 0.770393
15, 2, bw, attraction, a-b-da, 14, 3, 7, 30, 120, 195, 181, 111, 195, 120, 2, 2.21914
15, 2, bw, attraction, a-b-da, 14, 3, 7, 30, 120, 195, 181, 111, 195, 120, 3, 1.04779
15, 2, bw, attraction, a-b-da, 9, 3, 7, 31, 195, 120, 186, 114, 120, 195, 2, 2.29906
15, 2, bw, attraction, a-b-da, 9, 3, 7, 31, 195, 120, 186, 114, 120, 195, 1, 1.13364
15, 2, bw, attraction, a-b-db, 9, 2, 7, 32, 165, 90, 86, 157, 90, 165, 3, 7.37406
15, 2, bw, attraction, a-b-db, 9, 2, 7, 32, 165, 90, 86, 157, 90, 165, 1, 0.679146
15, 2, bw, filler, NA, 999, 999, 7, 33, 188, 61, 65, 115, 108, 77, 1, 6.81422
15, 2, bw, filler, NA, 999, 999, 7, 33, 188, 61, 65, 115, 108, 77, 2, 0.972328
15, 2, bw, attraction, a-b-da, 14, 2, 7, 34, 153, 83, 165, 90, 90, 165, 2, 2.57089
15, 2, bw, attraction, a-b-da, 14, 2, 7, 34, 153, 83, 165, 90, 90, 165, 1, 1.32487
15, 2, bw, catch, NA, 999, 999, 7, 35, 147, 108, 69, 126, 170, 145, 3, 1.8033
15, 2, bw, catch, NA, 999, 999, 7, 35, 147, 108, 69, 126, 170, 145, 2, 0.697972
15, 2, bw, attraction, a-b-db, 9, 1, 7, 36, 60, 135, 135, 60, 57, 129, 1, 4.74646
15, 2, bw, attraction, a-b-db, 9, 1, 7, 36, 60, 135, 135, 60, 57, 129, 3, 0.973742
15, 2, bw, attraction, a-b-db, 2, 1, 7, 37, 59, 134, 60, 135, 135, 60, 2, 4.86826
15, 2, bw, attraction, a-b-db, 2, 1, 7, 37, 59, 134, 60, 135, 135, 60, 1, 0.543026
15, 2, bw, attraction, a-b-da, 5, 2, 8, 1, 161, 88, 165, 90, 90, 165, 2, 4.80623
15, 2, bw, attraction, a-b-da, 5, 2, 8, 1, 161, 88, 165, 90, 90, 165, 1, 0.571513
15, 2, bw, attraction, a-b-da, 2, 3, 8, 2, 195, 120, 193, 119, 120, 195, 1, 4.04313
15, 2, bw, attraction, a-b-da, 2, 3, 8, 2, 195, 120, 193, 119, 120, 195, 2, 0.888245
15, 2, bw, attraction, a-b-db, 9, 2, 8, 3, 165, 90, 90, 165, 86, 157, 2, 5.16105
15, 2, bw, attraction, a-b-db, 9, 2, 8, 3, 165, 90, 90, 165, 86, 157, 3, 0.746946
15, 2, bw, filler, NA, 999, 999, 8, 4, 84, 169, 151, 58, 170, 185, 3, 1.72906
15, 2, bw, filler, NA, 999, 999, 8, 4, 84, 169, 151, 58, 170, 185, 2, 0.626416
15, 2, bw, attraction, a-b-db, 14, 1, 8, 5, 56, 125, 135, 60, 60, 135, 3, 5.95257
15, 2, bw, attraction, a-b-db, 14, 1, 8, 5, 56, 125, 135, 60, 60, 135, 1, 0.745718
15, 2, bw, filler, NA, 999, 999, 8, 6, 132, 73, 103, 163, 167, 164, 3, 4.50502
15, 2, bw, filler, NA, 999, 999, 8, 6, 132, 73, 103, 163, 167, 164, 1, 0.660017
15, 2, bw, filler, NA, 999, 999, 8, 7, 189, 180, 81, 95, 124, 167, 1, 1.63108
15, 2, bw, filler, NA, 999, 999, 8, 7, 189, 180, 81, 95, 124, 167, 2, 0.732111
15, 2, bw, filler, NA, 999, 999, 8, 8, 64, 69, 121, 165, 142, 154, 2, 1.45283
15, 2, bw, filler, NA, 999, 999, 8, 8, 64, 69, 121, 165, 142, 154, 1, 0.90413
15, 2, bw, catch, NA, 999, 999, 8, 9, 92, 103, 150, 105, 133, 182, 3, 1.82862
15, 2, bw, catch, NA, 999, 999, 8, 9, 92, 103, 150, 105, 133, 182, 1, 1.15113
15, 2, bw, attraction, a-b-db, 5, 2, 8, 10, 165, 90, 88, 161, 90, 165, 3, 2.07992
15, 2, bw, attraction, a-b-db, 5, 2, 8, 10, 165, 90, 88, 161, 90, 165, 1, 2.38653
15, 2, bw, filler, NA, 999, 999, 8, 11, 183, 104, 184, 158, 60, 156, 2, 1.64291
15, 2, bw, filler, NA, 999, 999, 8, 11, 183, 104, 184, 158, 60, 156, 3, 4.07123
15, 2, bw, filler, NA, 999, 999, 8, 12, 155, 152, 59, 177, 151, 118, 1, 1.84031
15, 2, bw, filler, NA, 999, 999, 8, 12, 155, 152, 59, 177, 151, 118, 2, 1.13591
15, 2, bw, attraction, a-b-da, 14, 1, 8, 13, 60, 135, 135, 60, 125, 56, 2, 10.5027
15, 2, bw, attraction, a-b-da, 14, 1, 8, 13, 60, 135, 135, 60, 125, 56, 3, 0.717048
15, 2, bw, attraction, a-b-db, 2, 2, 8, 14, 89, 163, 165, 90, 90, 165, 3, 12.5843
15, 2, bw, attraction, a-b-db, 2, 2, 8, 14, 89, 163, 165, 90, 90, 165, 1, 0.51758
15, 2, bw, filler, NA, 999, 999, 8, 15, 152, 119, 91, 178, 57, 124, 1, 1.65874
15, 2, bw, filler, NA, 999, 999, 8, 15, 152, 119, 91, 178, 57, 124, 3, 0.544437
15, 2, bw, attraction, a-b-db, 9, 3, 8, 16, 120, 195, 114, 186, 195, 120, 3, 2.57153
15, 2, bw, attraction, a-b-db, 9, 3, 8, 16, 120, 195, 114, 186, 195, 120, 2, 3.03308
15, 2, bw, attraction, a-b-db, 14, 2, 8, 17, 83, 153, 165, 90, 90, 165, 3, 3.35894
15, 2, bw, attraction, a-b-db, 14, 2, 8, 17, 83, 153, 165, 90, 90, 165, 1, 0.782077
15, 2, bw, catch, NA, 999, 999, 8, 18, 105, 150, 152, 163, 126, 69, 2, 1.54907
15, 2, bw, catch, NA, 999, 999, 8, 18, 105, 150, 152, 163, 126, 69, 3, 0.803667
15, 2, bw, attraction, a-b-da, 14, 3, 8, 19, 195, 120, 120, 195, 181, 111, 2, 3.53175
15, 2, bw, attraction, a-b-da, 14, 3, 8, 19, 195, 120, 120, 195, 181, 111, 3, 0.860658
15, 2, bw, attraction, a-b-db, 2, 1, 8, 20, 60, 135, 59, 134, 135, 60, 1, 2.42216
15, 2, bw, attraction, a-b-db, 2, 1, 8, 20, 60, 135, 59, 134, 135, 60, 3, 0.964533
15, 2, bw, attraction, a-b-da, 9, 2, 8, 21, 165, 90, 157, 86, 90, 165, 3, 6.75675
15, 2, bw, attraction, a-b-da, 9, 2, 8, 21, 165, 90, 157, 86, 90, 165, 2, 0.754867
15, 2, bw, attraction, a-b-db, 2, 3, 8, 22, 195, 120, 120, 195, 119, 193, 2, 2.38808
15, 2, bw, attraction, a-b-db, 2, 3, 8, 22, 195, 120, 120, 195, 119, 193, 1, 0.841651
15, 2, bw, attraction, a-b-da, 5, 3, 8, 23, 190, 117, 195, 120, 120, 195, 3, 6.96521
15, 2, bw, attraction, a-b-da, 5, 3, 8, 23, 190, 117, 195, 120, 120, 195, 1, 0.908246
15, 2, bw, attraction, a-b-da, 9, 1, 8, 24, 60, 135, 129, 57, 135, 60, 1, 3.34187
15, 2, bw, attraction, a-b-da, 9, 1, 8, 24, 60, 135, 129, 57, 135, 60, 3, 0.54285
15, 2, bw, attraction, a-b-da, 2, 1, 8, 25, 135, 60, 60, 135, 134, 59, 2, 8.04143
15, 2, bw, attraction, a-b-da, 2, 1, 8, 25, 135, 60, 60, 135, 134, 59, 3, 1.39344
15, 2, bw, attraction, a-b-da, 9, 3, 8, 26, 195, 120, 120, 195, 186, 114, 2, 3.02477
15, 2, bw, attraction, a-b-da, 9, 3, 8, 26, 195, 120, 120, 195, 186, 114, 3, 0.703412
15, 2, bw, attraction, a-b-db, 14, 3, 8, 27, 111, 181, 195, 120, 120, 195, 3, 3.40101
15, 2, bw, attraction, a-b-db, 14, 3, 8, 27, 111, 181, 195, 120, 120, 195, 1, 0.872283
15, 2, bw, attraction, a-b-da, 5, 1, 8, 28, 60, 135, 135, 60, 132, 58, 2, 6.33699
15, 2, bw, attraction, a-b-da, 5, 1, 8, 28, 60, 135, 135, 60, 132, 58, 1, 0.545777
15, 2, bw, filler, NA, 999, 999, 8, 29, 88, 163, 102, 159, 104, 142, 2, 4.44917
15, 2, bw, filler, NA, 999, 999, 8, 29, 88, 163, 102, 159, 104, 142, 1, 0.664272
15, 2, bw, filler, NA, 999, 999, 8, 30, 157, 145, 92, 64, 141, 113, 1, 1.93723
15, 2, bw, filler, NA, 999, 999, 8, 30, 157, 145, 92, 64, 141, 113, 2, 0.54801
15, 2, bw, attraction, a-b-db, 9, 1, 8, 31, 60, 135, 135, 60, 57, 129, 1, 3.44336
15, 2, bw, attraction, a-b-db, 9, 1, 8, 31, 60, 135, 135, 60, 57, 129, 3, 1.9207
15, 2, bw, attraction, a-b-db, 5, 1, 8, 32, 135, 60, 60, 135, 58, 132, 3, 6.04824
15, 2, bw, attraction, a-b-db, 5, 1, 8, 32, 135, 60, 60, 135, 58, 132, 2, 0.795517
15, 2, bw, filler, NA, 999, 999, 8, 33, 120, 149, 100, 86, 73, 187, 1, 2.28211
15, 2, bw, filler, NA, 999, 999, 8, 33, 120, 149, 100, 86, 73, 187, 2, 0.676749
15, 2, bw, attraction, a-b-db, 5, 3, 8, 34, 195, 120, 117, 190, 120, 195, 3, 4.86244
15, 2, bw, attraction, a-b-db, 5, 3, 8, 34, 195, 120, 117, 190, 120, 195, 2, 0.610568
15, 2, bw, attraction, a-b-da, 14, 2, 8, 35, 153, 83, 90, 165, 165, 90, 2, 3.57721
15, 2, bw, attraction, a-b-da, 14, 2, 8, 35, 153, 83, 90, 165, 165, 90, 1, 0.536074
15, 2, bw, attraction, a-b-da, 2, 2, 8, 36, 90, 165, 165, 90, 163, 89, 2, 6.91279
15, 2, bw, attraction, a-b-da, 2, 2, 8, 36, 90, 165, 165, 90, 163, 89, 3, 0.554375
15, 2, bw, catch, NA, 999, 999, 8, 37, 92, 103, 132, 123, 162, 153, 3, 1.61059
15, 2, bw, catch, NA, 999, 999, 8, 37, 92, 103, 132, 123, 162, 153, 1, 0.722041
