sub_n, computer_n, bw_cond, effect, set, distance, diag, block_n, trial_n, h1, w1, h2, w2, h3, w3, choice, rt 
134, 2, wb, practice, NA, 999, 999, 0, 1, 189, 77, 176, 103, 86, 167, 1, 5.70523
134, 2, wb, practice, NA, 999, 999, 0, 1, 189, 77, 176, 103, 86, 167, 2, 4.21783
134, 2, wb, practice, NA, 999, 999, 0, 2, 108, 100, 173, 168, 114, 85, 3, 7.97703
134, 2, wb, practice, NA, 999, 999, 0, 2, 108, 100, 173, 168, 114, 85, 2, 1.33512
134, 2, wb, practice, NA, 999, 999, 0, 3, 140, 88, 85, 106, 109, 153, 2, 1.96336
134, 2, wb, practice, NA, 999, 999, 0, 3, 140, 88, 85, 106, 109, 153, 3, 1.56431
134, 2, wb, attraction, a-b-db, 14, 1, 1, 1, 60, 135, 56, 125, 135, 60, 2, 4.99603
134, 2, wb, attraction, a-b-db, 14, 1, 1, 1, 60, 135, 56, 125, 135, 60, 3, 1.40971
134, 2, wb, attraction, a-b-da, 5, 3, 1, 2, 195, 120, 120, 195, 190, 117, 1, 11.0305
134, 2, wb, attraction, a-b-da, 5, 3, 1, 2, 195, 120, 120, 195, 190, 117, 2, 2.64106
134, 2, wb, filler, NA, 999, 999, 1, 3, 87, 155, 87, 74, 64, 63, 3, 1.53225
134, 2, wb, filler, NA, 999, 999, 1, 3, 87, 155, 87, 74, 64, 63, 1, 0.845697
134, 2, wb, attraction, a-b-da, 5, 2, 1, 4, 161, 88, 90, 165, 165, 90, 3, 8.29737
134, 2, wb, attraction, a-b-da, 5, 2, 1, 4, 161, 88, 90, 165, 165, 90, 2, 0.810123
134, 2, wb, attraction, a-b-db, 5, 3, 1, 5, 117, 190, 195, 120, 120, 195, 2, 2.70307
134, 2, wb, attraction, a-b-db, 5, 3, 1, 5, 117, 190, 195, 120, 120, 195, 3, 0.441545
134, 2, wb, attraction, a-b-da, 9, 3, 1, 6, 195, 120, 186, 114, 120, 195, 2, 3.55744
134, 2, wb, attraction, a-b-da, 9, 3, 1, 6, 195, 120, 186, 114, 120, 195, 3, 1.11689
134, 2, wb, attraction, a-b-db, 5, 1, 1, 7, 58, 132, 60, 135, 135, 60, 3, 2.06981
134, 2, wb, attraction, a-b-db, 5, 1, 1, 7, 58, 132, 60, 135, 135, 60, 2, 3.36178
134, 2, wb, filler, NA, 999, 999, 1, 8, 147, 91, 106, 100, 114, 177, 2, 1.63997
134, 2, wb, filler, NA, 999, 999, 1, 8, 147, 91, 106, 100, 114, 177, 3, 0.724912
134, 2, wb, attraction, a-b-db, 2, 2, 1, 9, 165, 90, 90, 165, 89, 163, 3, 9.05319
134, 2, wb, attraction, a-b-db, 2, 2, 1, 9, 165, 90, 90, 165, 89, 163, 2, 0.807606
134, 2, wb, attraction, a-b-db, 9, 1, 1, 10, 57, 129, 135, 60, 60, 135, 2, 1.81266
134, 2, wb, attraction, a-b-db, 9, 1, 1, 10, 57, 129, 135, 60, 60, 135, 3, 1.51478
134, 2, wb, filler, NA, 999, 999, 1, 11, 91, 98, 74, 194, 58, 133, 3, 2.06752
134, 2, wb, filler, NA, 999, 999, 1, 11, 91, 98, 74, 194, 58, 133, 2, 0.431685
134, 2, wb, attraction, a-b-da, 14, 1, 1, 12, 125, 56, 135, 60, 60, 135, 1, 5.32413
134, 2, wb, attraction, a-b-da, 14, 1, 1, 12, 125, 56, 135, 60, 60, 135, 2, 0.9483
134, 2, wb, attraction, a-b-da, 14, 2, 1, 13, 153, 83, 90, 165, 165, 90, 1, 1.86803
134, 2, wb, attraction, a-b-da, 14, 2, 1, 13, 153, 83, 90, 165, 165, 90, 3, 2.20804
134, 2, wb, filler, NA, 999, 999, 1, 14, 195, 162, 150, 111, 83, 175, 2, 2.34858
134, 2, wb, filler, NA, 999, 999, 1, 14, 195, 162, 150, 111, 83, 175, 1, 0.445173
134, 2, wb, filler, NA, 999, 999, 1, 15, 107, 154, 62, 170, 102, 67, 3, 1.22511
134, 2, wb, filler, NA, 999, 999, 1, 15, 107, 154, 62, 170, 102, 67, 1, 0.614593
134, 2, wb, filler, NA, 999, 999, 1, 16, 93, 185, 176, 85, 64, 165, 3, 11.0517
134, 2, wb, filler, NA, 999, 999, 1, 16, 93, 185, 176, 85, 64, 165, 1, 0.46154
134, 2, wb, filler, NA, 999, 999, 1, 17, 95, 141, 65, 61, 74, 89, 2, 1.07271
134, 2, wb, filler, NA, 999, 999, 1, 17, 95, 141, 65, 61, 74, 89, 1, 0.324268
134, 2, wb, attraction, a-b-db, 9, 3, 1, 18, 114, 186, 120, 195, 195, 120, 1, 1.11692
134, 2, wb, attraction, a-b-db, 9, 3, 1, 18, 114, 186, 120, 195, 195, 120, 3, 0.935068
134, 2, wb, catch, NA, 999, 999, 1, 19, 138, 117, 153, 162, 128, 67, 3, 1.11938
134, 2, wb, catch, NA, 999, 999, 1, 19, 138, 117, 153, 162, 128, 67, 2, 0.441685
134, 2, wb, attraction, a-b-da, 2, 2, 1, 20, 165, 90, 163, 89, 90, 165, 1, 6.02155
134, 2, wb, attraction, a-b-da, 2, 2, 1, 20, 165, 90, 163, 89, 90, 165, 3, 0.346349
134, 2, wb, attraction, a-b-db, 5, 2, 1, 21, 165, 90, 88, 161, 90, 165, 3, 1.59421
134, 2, wb, attraction, a-b-db, 5, 2, 1, 21, 165, 90, 88, 161, 90, 165, 2, 0.3689
134, 2, wb, attraction, a-b-db, 2, 1, 1, 22, 59, 134, 60, 135, 135, 60, 3, 6.0881
134, 2, wb, attraction, a-b-db, 2, 1, 1, 22, 59, 134, 60, 135, 135, 60, 2, 1.07348
134, 2, wb, attraction, a-b-da, 14, 3, 1, 23, 120, 195, 181, 111, 195, 120, 2, 2.53972
134, 2, wb, attraction, a-b-da, 14, 3, 1, 23, 120, 195, 181, 111, 195, 120, 3, 0.612362
134, 2, wb, attraction, a-b-da, 2, 1, 1, 24, 135, 60, 134, 59, 60, 135, 1, 7.28141
134, 2, wb, attraction, a-b-da, 2, 1, 1, 24, 135, 60, 134, 59, 60, 135, 3, 0.411023
134, 2, wb, attraction, a-b-db, 14, 3, 1, 25, 120, 195, 195, 120, 111, 181, 2, 6.81616
134, 2, wb, attraction, a-b-db, 14, 3, 1, 25, 120, 195, 195, 120, 111, 181, 1, 1.44468
134, 2, wb, attraction, a-b-db, 2, 3, 1, 26, 120, 195, 119, 193, 195, 120, 1, 1.99214
134, 2, wb, attraction, a-b-db, 2, 3, 1, 26, 120, 195, 119, 193, 195, 120, 3, 0.982822
134, 2, wb, filler, NA, 999, 999, 1, 27, 58, 79, 157, 56, 119, 67, 1, 1.89325
134, 2, wb, filler, NA, 999, 999, 1, 27, 58, 79, 157, 56, 119, 67, 2, 2.09587
134, 2, wb, catch, NA, 999, 999, 1, 28, 176, 139, 64, 131, 100, 155, 2, 1.14509
134, 2, wb, catch, NA, 999, 999, 1, 28, 176, 139, 64, 131, 100, 155, 1, 0.730119
134, 2, wb, filler, NA, 999, 999, 1, 29, 63, 130, 116, 85, 158, 97, 1, 2.33854
134, 2, wb, filler, NA, 999, 999, 1, 29, 63, 130, 116, 85, 158, 97, 3, 0.499063
134, 2, wb, attraction, a-b-da, 2, 3, 1, 30, 193, 119, 195, 120, 120, 195, 1, 3.54088
134, 2, wb, attraction, a-b-da, 2, 3, 1, 30, 193, 119, 195, 120, 120, 195, 3, 0.389081
134, 2, wb, attraction, a-b-db, 14, 2, 1, 31, 90, 165, 165, 90, 83, 153, 3, 3.37157
134, 2, wb, attraction, a-b-db, 14, 2, 1, 31, 90, 165, 165, 90, 83, 153, 2, 0.474427
134, 2, wb, attraction, a-b-da, 9, 1, 1, 32, 135, 60, 129, 57, 60, 135, 2, 4.22091
134, 2, wb, attraction, a-b-da, 9, 1, 1, 32, 135, 60, 129, 57, 60, 135, 3, 0.746268
134, 2, wb, catch, NA, 999, 999, 1, 33, 156, 159, 130, 125, 117, 78, 3, 1.26596
134, 2, wb, catch, NA, 999, 999, 1, 33, 156, 159, 130, 125, 117, 78, 1, 0.622195
134, 2, wb, attraction, a-b-da, 9, 2, 1, 34, 90, 165, 157, 86, 165, 90, 1, 20.6433
134, 2, wb, attraction, a-b-da, 9, 2, 1, 34, 90, 165, 157, 86, 165, 90, 2, 0.602134
134, 2, wb, attraction, a-b-db, 9, 2, 1, 35, 90, 165, 86, 157, 165, 90, 2, 2.10389
134, 2, wb, attraction, a-b-db, 9, 2, 1, 35, 90, 165, 86, 157, 165, 90, 3, 0.737987
134, 2, wb, filler, NA, 999, 999, 1, 36, 131, 188, 169, 120, 150, 179, 1, 3.1783
134, 2, wb, filler, NA, 999, 999, 1, 36, 131, 188, 169, 120, 150, 179, 3, 0.521217
134, 2, wb, attraction, a-b-da, 5, 1, 1, 37, 60, 135, 132, 58, 135, 60, 1, 5.64241
134, 2, wb, attraction, a-b-da, 5, 1, 1, 37, 60, 135, 132, 58, 135, 60, 3, 1.78988
134, 2, wb, catch, NA, 999, 999, 2, 1, 103, 152, 128, 187, 91, 104, 3, 1.87797
134, 2, wb, catch, NA, 999, 999, 2, 1, 103, 152, 128, 187, 91, 104, 2, 0.806783
134, 2, wb, attraction, a-b-da, 9, 1, 2, 2, 129, 57, 135, 60, 60, 135, 1, 5.19559
134, 2, wb, attraction, a-b-da, 9, 1, 2, 2, 129, 57, 135, 60, 60, 135, 3, 0.745324
134, 2, wb, attraction, a-b-db, 9, 1, 2, 3, 57, 129, 135, 60, 60, 135, 2, 4.56121
134, 2, wb, attraction, a-b-db, 9, 1, 2, 3, 57, 129, 135, 60, 60, 135, 3, 0.936236
134, 2, wb, attraction, a-b-da, 9, 2, 2, 4, 165, 90, 157, 86, 90, 165, 2, 2.6327
134, 2, wb, attraction, a-b-da, 9, 2, 2, 4, 165, 90, 157, 86, 90, 165, 3, 0.613694
134, 2, wb, filler, NA, 999, 999, 2, 5, 92, 130, 73, 91, 135, 125, 2, 1.37082
134, 2, wb, filler, NA, 999, 999, 2, 5, 92, 130, 73, 91, 135, 125, 3, 0.610415
134, 2, wb, attraction, a-b-da, 5, 3, 2, 6, 120, 195, 195, 120, 190, 117, 3, 10.8634
134, 2, wb, attraction, a-b-da, 5, 3, 2, 6, 120, 195, 195, 120, 190, 117, 2, 1.35266
134, 2, wb, attraction, a-b-db, 2, 3, 2, 7, 120, 195, 119, 193, 195, 120, 1, 3.59229
134, 2, wb, attraction, a-b-db, 2, 3, 2, 7, 120, 195, 119, 193, 195, 120, 3, 0.614397
134, 2, wb, attraction, a-b-db, 14, 3, 2, 8, 195, 120, 111, 181, 120, 195, 2, 4.86743
134, 2, wb, attraction, a-b-db, 14, 3, 2, 8, 195, 120, 111, 181, 120, 195, 3, 0.430631
134, 2, wb, attraction, a-b-da, 5, 1, 2, 9, 132, 58, 135, 60, 60, 135, 1, 2.39309
134, 2, wb, attraction, a-b-da, 5, 1, 2, 9, 132, 58, 135, 60, 60, 135, 3, 0.609608
134, 2, wb, attraction, a-b-da, 14, 1, 2, 10, 135, 60, 60, 135, 125, 56, 3, 1.73466
134, 2, wb, attraction, a-b-da, 14, 1, 2, 10, 135, 60, 60, 135, 125, 56, 2, 0.768082
134, 2, wb, attraction, a-b-db, 9, 3, 2, 11, 195, 120, 114, 186, 120, 195, 2, 2.75918
134, 2, wb, attraction, a-b-db, 9, 3, 2, 11, 195, 120, 114, 186, 120, 195, 1, 1.15898
134, 2, wb, attraction, a-b-da, 14, 3, 2, 12, 120, 195, 181, 111, 195, 120, 2, 3.27788
134, 2, wb, attraction, a-b-da, 14, 3, 2, 12, 120, 195, 181, 111, 195, 120, 3, 0.424814
134, 2, wb, filler, NA, 999, 999, 2, 13, 184, 81, 66, 109, 122, 107, 2, 1.22126
134, 2, wb, filler, NA, 999, 999, 2, 13, 184, 81, 66, 109, 122, 107, 1, 0.450869
134, 2, wb, attraction, a-b-db, 14, 2, 2, 14, 90, 165, 83, 153, 165, 90, 2, 4.06274
134, 2, wb, attraction, a-b-db, 14, 2, 2, 14, 90, 165, 83, 153, 165, 90, 3, 0.922156
134, 2, wb, attraction, a-b-da, 9, 3, 2, 15, 186, 114, 120, 195, 195, 120, 1, 3.59505
134, 2, wb, attraction, a-b-da, 9, 3, 2, 15, 186, 114, 120, 195, 195, 120, 3, 0.833222
134, 2, wb, attraction, a-b-da, 14, 2, 2, 16, 165, 90, 153, 83, 90, 165, 2, 7.74175
134, 2, wb, attraction, a-b-da, 14, 2, 2, 16, 165, 90, 153, 83, 90, 165, 3, 0.596576
134, 2, wb, attraction, a-b-da, 2, 1, 2, 17, 134, 59, 60, 135, 135, 60, 3, 1.41026
134, 2, wb, attraction, a-b-da, 2, 1, 2, 17, 134, 59, 60, 135, 135, 60, 2, 0.864471
134, 2, wb, attraction, a-b-da, 2, 2, 2, 18, 165, 90, 90, 165, 163, 89, 3, 13.8354
134, 2, wb, attraction, a-b-da, 2, 2, 2, 18, 165, 90, 90, 165, 163, 89, 2, 0.501057
134, 2, wb, filler, NA, 999, 999, 2, 19, 139, 131, 100, 125, 88, 56, 3, 1.96683
134, 2, wb, filler, NA, 999, 999, 2, 19, 139, 131, 100, 125, 88, 56, 1, 0.859603
134, 2, wb, filler, NA, 999, 999, 2, 20, 56, 56, 155, 178, 146, 167, 1, 1.83385
134, 2, wb, filler, NA, 999, 999, 2, 20, 56, 56, 155, 178, 146, 167, 2, 0.471284
134, 2, wb, attraction, a-b-db, 5, 1, 2, 21, 60, 135, 135, 60, 58, 132, 3, 3.79441
134, 2, wb, attraction, a-b-db, 5, 1, 2, 21, 60, 135, 135, 60, 58, 132, 2, 0.864469
134, 2, wb, catch, NA, 999, 999, 2, 22, 101, 94, 142, 173, 138, 117, 1, 1.53149
134, 2, wb, catch, NA, 999, 999, 2, 22, 101, 94, 142, 173, 138, 117, 2, 0.388972
134, 2, wb, attraction, a-b-da, 5, 2, 2, 23, 161, 88, 90, 165, 165, 90, 1, 5.05145
134, 2, wb, attraction, a-b-da, 5, 2, 2, 23, 161, 88, 90, 165, 165, 90, 2, 0.303351
134, 2, wb, attraction, a-b-db, 2, 1, 2, 24, 135, 60, 59, 134, 60, 135, 2, 4.52906
134, 2, wb, attraction, a-b-db, 2, 1, 2, 24, 135, 60, 59, 134, 60, 135, 3, 1.34565
134, 2, wb, filler, NA, 999, 999, 2, 25, 127, 154, 187, 141, 56, 139, 3, 1.19317
134, 2, wb, filler, NA, 999, 999, 2, 25, 127, 154, 187, 141, 56, 139, 2, 0.440107
134, 2, wb, filler, NA, 999, 999, 2, 26, 162, 173, 186, 99, 84, 120, 3, 1.57187
134, 2, wb, filler, NA, 999, 999, 2, 26, 162, 173, 186, 99, 84, 120, 1, 0.451407
134, 2, wb, filler, NA, 999, 999, 2, 27, 66, 177, 164, 191, 85, 134, 3, 1.34321
134, 2, wb, filler, NA, 999, 999, 2, 27, 66, 177, 164, 191, 85, 134, 2, 0.320052
134, 2, wb, filler, NA, 999, 999, 2, 28, 178, 95, 161, 155, 137, 138, 3, 2.20922
134, 2, wb, filler, NA, 999, 999, 2, 28, 178, 95, 161, 155, 137, 138, 2, 0.591378
134, 2, wb, attraction, a-b-db, 14, 1, 2, 29, 135, 60, 60, 135, 56, 125, 3, 1.75695
134, 2, wb, attraction, a-b-db, 14, 1, 2, 29, 135, 60, 60, 135, 56, 125, 2, 0.501042
134, 2, wb, filler, NA, 999, 999, 2, 30, 101, 67, 162, 97, 77, 138, 1, 1.07081
134, 2, wb, filler, NA, 999, 999, 2, 30, 101, 67, 162, 97, 77, 138, 2, 0.562553
134, 2, wb, attraction, a-b-db, 9, 2, 2, 31, 90, 165, 165, 90, 86, 157, 3, 3.46555
134, 2, wb, attraction, a-b-db, 9, 2, 2, 31, 90, 165, 165, 90, 86, 157, 2, 0.821137
134, 2, wb, catch, NA, 999, 999, 2, 32, 116, 139, 104, 91, 186, 129, 2, 1.22616
134, 2, wb, catch, NA, 999, 999, 2, 32, 116, 139, 104, 91, 186, 129, 3, 0.439834
134, 2, wb, attraction, a-b-db, 5, 3, 2, 33, 195, 120, 117, 190, 120, 195, 2, 9.07555
134, 2, wb, attraction, a-b-db, 5, 3, 2, 33, 195, 120, 117, 190, 120, 195, 3, 1.02074
134, 2, wb, attraction, a-b-db, 2, 2, 2, 34, 89, 163, 90, 165, 165, 90, 3, 3.56976
134, 2, wb, attraction, a-b-db, 2, 2, 2, 34, 89, 163, 90, 165, 165, 90, 2, 1.67315
134, 2, wb, attraction, a-b-db, 5, 2, 2, 35, 90, 165, 165, 90, 88, 161, 3, 1.7153
134, 2, wb, attraction, a-b-db, 5, 2, 2, 35, 90, 165, 165, 90, 88, 161, 1, 0.589429
134, 2, wb, filler, NA, 999, 999, 2, 36, 56, 181, 177, 106, 190, 77, 1, 2.88305
134, 2, wb, filler, NA, 999, 999, 2, 36, 56, 181, 177, 106, 190, 77, 2, 0.86216
134, 2, wb, attraction, a-b-da, 2, 3, 2, 37, 193, 119, 120, 195, 195, 120, 1, 2.75311
134, 2, wb, attraction, a-b-da, 2, 3, 2, 37, 193, 119, 120, 195, 195, 120, 2, 0.505572
134, 2, wb, attraction, a-b-da, 2, 1, 3, 1, 135, 60, 60, 135, 134, 59, 1, 4.06748
134, 2, wb, attraction, a-b-da, 2, 1, 3, 1, 135, 60, 60, 135, 134, 59, 2, 0.566884
134, 2, wb, attraction, a-b-da, 9, 1, 3, 2, 135, 60, 129, 57, 60, 135, 1, 3.32585
134, 2, wb, attraction, a-b-da, 9, 1, 3, 2, 135, 60, 129, 57, 60, 135, 3, 0.398825
134, 2, wb, filler, NA, 999, 999, 3, 3, 104, 135, 110, 89, 143, 194, 2, 1.80961
134, 2, wb, filler, NA, 999, 999, 3, 3, 104, 135, 110, 89, 143, 194, 3, 0.562737
134, 2, wb, attraction, a-b-da, 5, 3, 3, 4, 190, 117, 120, 195, 195, 120, 1, 2.65784
134, 2, wb, attraction, a-b-da, 5, 3, 3, 4, 190, 117, 120, 195, 195, 120, 3, 1.87761
134, 2, wb, attraction, a-b-db, 9, 2, 3, 5, 90, 165, 86, 157, 165, 90, 2, 8.51957
134, 2, wb, attraction, a-b-db, 9, 2, 3, 5, 90, 165, 86, 157, 165, 90, 3, 1.03961
134, 2, wb, attraction, a-b-db, 5, 2, 3, 6, 88, 161, 165, 90, 90, 165, 1, 2.73917
134, 2, wb, attraction, a-b-db, 5, 2, 3, 6, 88, 161, 165, 90, 90, 165, 2, 1.15562
134, 2, wb, attraction, a-b-da, 14, 2, 3, 7, 153, 83, 90, 165, 165, 90, 1, 1.97919
134, 2, wb, attraction, a-b-da, 14, 2, 3, 7, 153, 83, 90, 165, 165, 90, 2, 2.78656
134, 2, wb, catch, NA, 999, 999, 3, 8, 145, 170, 126, 69, 129, 126, 2, 2.43239
134, 2, wb, catch, NA, 999, 999, 3, 8, 145, 170, 126, 69, 129, 126, 1, 0.421576
134, 2, wb, filler, NA, 999, 999, 3, 9, 134, 126, 84, 82, 124, 140, 2, 1.49867
134, 2, wb, filler, NA, 999, 999, 3, 9, 134, 126, 84, 82, 124, 140, 3, 0.469494
134, 2, wb, attraction, a-b-db, 9, 3, 3, 10, 114, 186, 120, 195, 195, 120, 1, 2.51268
134, 2, wb, attraction, a-b-db, 9, 3, 3, 10, 114, 186, 120, 195, 195, 120, 2, 0.522497
134, 2, wb, filler, NA, 999, 999, 3, 11, 162, 153, 167, 192, 62, 134, 3, 1.62773
134, 2, wb, filler, NA, 999, 999, 3, 11, 162, 153, 167, 192, 62, 134, 2, 0.44905
134, 2, wb, filler, NA, 999, 999, 3, 12, 184, 101, 72, 129, 148, 103, 2, 1.97283
134, 2, wb, filler, NA, 999, 999, 3, 12, 184, 101, 72, 129, 148, 103, 1, 0.54828
134, 2, wb, attraction, a-b-db, 9, 1, 3, 13, 57, 129, 135, 60, 60, 135, 1, 6.98001
134, 2, wb, attraction, a-b-db, 9, 1, 3, 13, 57, 129, 135, 60, 60, 135, 2, 0.577847
134, 2, wb, filler, NA, 999, 999, 3, 14, 71, 92, 99, 141, 75, 138, 1, 1.0003
134, 2, wb, filler, NA, 999, 999, 3, 14, 71, 92, 99, 141, 75, 138, 2, 0.727343
134, 2, wb, attraction, a-b-db, 2, 2, 3, 15, 89, 163, 165, 90, 90, 165, 1, 6.15956
134, 2, wb, attraction, a-b-db, 2, 2, 3, 15, 89, 163, 165, 90, 90, 165, 3, 0.846288
134, 2, wb, attraction, a-b-da, 9, 2, 3, 16, 90, 165, 165, 90, 157, 86, 3, 4.354
134, 2, wb, attraction, a-b-da, 9, 2, 3, 16, 90, 165, 165, 90, 157, 86, 2, 0.425973
134, 2, wb, attraction, a-b-da, 14, 3, 3, 17, 181, 111, 120, 195, 195, 120, 1, 2.14724
134, 2, wb, attraction, a-b-da, 14, 3, 3, 17, 181, 111, 120, 195, 195, 120, 2, 0.423062
134, 2, wb, attraction, a-b-db, 2, 1, 3, 18, 60, 135, 59, 134, 135, 60, 3, 2.12361
134, 2, wb, attraction, a-b-db, 2, 1, 3, 18, 60, 135, 59, 134, 135, 60, 2, 0.572833
134, 2, wb, catch, NA, 999, 999, 3, 19, 143, 112, 123, 72, 150, 165, 2, 1.6193
134, 2, wb, catch, NA, 999, 999, 3, 19, 143, 112, 123, 72, 150, 165, 3, 0.633348
134, 2, wb, filler, NA, 999, 999, 3, 20, 148, 98, 76, 97, 57, 126, 3, 1.13391
134, 2, wb, filler, NA, 999, 999, 3, 20, 148, 98, 76, 97, 57, 126, 1, 0.639441
134, 2, wb, attraction, a-b-da, 14, 1, 3, 21, 135, 60, 125, 56, 60, 135, 1, 1.58717
134, 2, wb, attraction, a-b-da, 14, 1, 3, 21, 135, 60, 125, 56, 60, 135, 2, 0.378644
134, 2, wb, attraction, a-b-db, 14, 3, 3, 22, 111, 181, 120, 195, 195, 120, 1, 1.25713
134, 2, wb, attraction, a-b-db, 14, 3, 3, 22, 111, 181, 120, 195, 195, 120, 2, 0.997517
134, 2, wb, attraction, a-b-da, 5, 1, 3, 23, 132, 58, 60, 135, 135, 60, 1, 2.11495
134, 2, wb, attraction, a-b-da, 5, 1, 3, 23, 132, 58, 60, 135, 135, 60, 2, 0.741023
134, 2, wb, attraction, a-b-db, 14, 2, 3, 24, 83, 153, 90, 165, 165, 90, 1, 7.97267
134, 2, wb, attraction, a-b-db, 14, 2, 3, 24, 83, 153, 90, 165, 165, 90, 3, 0.722889
134, 2, wb, filler, NA, 999, 999, 3, 25, 81, 137, 149, 97, 118, 158, 1, 1.17126
134, 2, wb, filler, NA, 999, 999, 3, 25, 81, 137, 149, 97, 118, 158, 3, 0.330871
134, 2, wb, attraction, a-b-da, 5, 2, 3, 26, 165, 90, 161, 88, 90, 165, 1, 6.37939
134, 2, wb, attraction, a-b-da, 5, 2, 3, 26, 165, 90, 161, 88, 90, 165, 3, 0.777303
134, 2, wb, attraction, a-b-db, 2, 3, 3, 27, 120, 195, 119, 193, 195, 120, 2, 3.01563
134, 2, wb, attraction, a-b-db, 2, 3, 3, 27, 120, 195, 119, 193, 195, 120, 3, 1.16538
134, 2, wb, filler, NA, 999, 999, 3, 28, 130, 138, 102, 184, 101, 191, 2, 3.03649
134, 2, wb, filler, NA, 999, 999, 3, 28, 130, 138, 102, 184, 101, 191, 3, 0.593356
134, 2, wb, attraction, a-b-db, 14, 1, 3, 29, 60, 135, 56, 125, 135, 60, 1, 2.26314
134, 2, wb, attraction, a-b-db, 14, 1, 3, 29, 60, 135, 56, 125, 135, 60, 3, 0.707003
134, 2, wb, catch, NA, 999, 999, 3, 30, 174, 141, 132, 123, 105, 90, 3, 1.16418
134, 2, wb, catch, NA, 999, 999, 3, 30, 174, 141, 132, 123, 105, 90, 1, 0.404349
134, 2, wb, filler, NA, 999, 999, 3, 31, 181, 82, 100, 90, 187, 126, 2, 1.91427
134, 2, wb, filler, NA, 999, 999, 3, 31, 181, 82, 100, 90, 187, 126, 3, 0.380216
134, 2, wb, attraction, a-b-da, 9, 3, 3, 32, 120, 195, 186, 114, 195, 120, 2, 4.68266
134, 2, wb, attraction, a-b-da, 9, 3, 3, 32, 120, 195, 186, 114, 195, 120, 3, 0.341209
134, 2, wb, attraction, a-b-da, 2, 2, 3, 33, 165, 90, 163, 89, 90, 165, 3, 2.31856
134, 2, wb, attraction, a-b-da, 2, 2, 3, 33, 165, 90, 163, 89, 90, 165, 2, 3.63825
134, 2, wb, attraction, a-b-da, 2, 3, 3, 34, 193, 119, 120, 195, 195, 120, 1, 1.69772
134, 2, wb, attraction, a-b-da, 2, 3, 3, 34, 193, 119, 120, 195, 195, 120, 3, 0.516486
134, 2, wb, attraction, a-b-db, 5, 3, 3, 35, 195, 120, 117, 190, 120, 195, 2, 6.3577
134, 2, wb, attraction, a-b-db, 5, 3, 3, 35, 195, 120, 117, 190, 120, 195, 3, 0.692264
134, 2, wb, attraction, a-b-db, 5, 1, 3, 36, 60, 135, 135, 60, 58, 132, 2, 2.526
134, 2, wb, attraction, a-b-db, 5, 1, 3, 36, 60, 135, 135, 60, 58, 132, 3, 1.71117
134, 2, wb, filler, NA, 999, 999, 3, 37, 146, 112, 148, 152, 107, 190, 1, 2.56796
134, 2, wb, filler, NA, 999, 999, 3, 37, 146, 112, 148, 152, 107, 190, 3, 2.37583
134, 2, wb, attraction, a-b-db, 5, 2, 4, 1, 88, 161, 165, 90, 90, 165, 1, 1.73364
134, 2, wb, attraction, a-b-db, 5, 2, 4, 1, 88, 161, 165, 90, 90, 165, 3, 0.647052
134, 2, wb, attraction, a-b-db, 5, 1, 4, 2, 60, 135, 135, 60, 58, 132, 1, 1.53079
134, 2, wb, attraction, a-b-db, 5, 1, 4, 2, 60, 135, 135, 60, 58, 132, 2, 0.324349
134, 2, wb, catch, NA, 999, 999, 4, 3, 68, 127, 139, 176, 163, 92, 1, 0.940776
134, 2, wb, catch, NA, 999, 999, 4, 3, 68, 127, 139, 176, 163, 92, 2, 0.405869
134, 2, wb, attraction, a-b-da, 14, 3, 4, 4, 120, 195, 195, 120, 181, 111, 3, 5.25165
134, 2, wb, attraction, a-b-da, 14, 3, 4, 4, 120, 195, 195, 120, 181, 111, 2, 0.879334
134, 2, wb, attraction, a-b-da, 2, 3, 4, 5, 193, 119, 120, 195, 195, 120, 1, 2.48164
134, 2, wb, attraction, a-b-da, 2, 3, 4, 5, 193, 119, 120, 195, 195, 120, 2, 0.292903
134, 2, wb, attraction, a-b-db, 9, 3, 4, 6, 114, 186, 195, 120, 120, 195, 1, 1.16668
134, 2, wb, attraction, a-b-db, 9, 3, 4, 6, 114, 186, 195, 120, 120, 195, 2, 0.391135
134, 2, wb, filler, NA, 999, 999, 4, 7, 111, 71, 112, 64, 57, 103, 3, 7.37284
134, 2, wb, filler, NA, 999, 999, 4, 7, 111, 71, 112, 64, 57, 103, 1, 0.866495
134, 2, wb, attraction, a-b-da, 5, 2, 4, 8, 90, 165, 161, 88, 165, 90, 3, 5.2775
134, 2, wb, attraction, a-b-da, 5, 2, 4, 8, 90, 165, 161, 88, 165, 90, 2, 0.759765
134, 2, wb, attraction, a-b-db, 9, 2, 4, 9, 165, 90, 86, 157, 90, 165, 1, 10.9828
134, 2, wb, attraction, a-b-db, 9, 2, 4, 9, 165, 90, 86, 157, 90, 165, 3, 1.92332
134, 2, wb, filler, NA, 999, 999, 4, 10, 94, 122, 86, 147, 98, 60, 3, 0.889553
134, 2, wb, filler, NA, 999, 999, 4, 10, 94, 122, 86, 147, 98, 60, 2, 1.03041
134, 2, wb, attraction, a-b-da, 14, 2, 4, 11, 153, 83, 90, 165, 165, 90, 2, 1.41068
134, 2, wb, attraction, a-b-da, 14, 2, 4, 11, 153, 83, 90, 165, 165, 90, 3, 0.384972
134, 2, wb, attraction, a-b-db, 9, 1, 4, 12, 135, 60, 57, 129, 60, 135, 3, 1.3834
134, 2, wb, attraction, a-b-db, 9, 1, 4, 12, 135, 60, 57, 129, 60, 135, 1, 0.446865
134, 2, wb, attraction, a-b-da, 2, 2, 4, 13, 163, 89, 90, 165, 165, 90, 3, 1.39468
134, 2, wb, attraction, a-b-da, 2, 2, 4, 13, 163, 89, 90, 165, 165, 90, 1, 0.881609
134, 2, wb, catch, NA, 999, 999, 4, 14, 97, 98, 152, 163, 141, 114, 1, 0.883913
134, 2, wb, catch, NA, 999, 999, 4, 14, 97, 98, 152, 163, 141, 114, 2, 0.279684
134, 2, wb, filler, NA, 999, 999, 4, 15, 136, 181, 101, 144, 142, 165, 2, 0.698141
134, 2, wb, filler, NA, 999, 999, 4, 15, 136, 181, 101, 144, 142, 165, 1, 0.277248
134, 2, wb, catch, NA, 999, 999, 4, 16, 100, 155, 112, 83, 152, 163, 2, 0.743769
134, 2, wb, catch, NA, 999, 999, 4, 16, 100, 155, 112, 83, 152, 163, 3, 0.216849
134, 2, wb, attraction, a-b-db, 2, 2, 4, 17, 89, 163, 90, 165, 165, 90, 1, 1.25415
134, 2, wb, attraction, a-b-db, 2, 2, 4, 17, 89, 163, 90, 165, 165, 90, 3, 0.482286
134, 2, wb, attraction, a-b-da, 9, 2, 4, 18, 157, 86, 165, 90, 90, 165, 1, 1.75671
134, 2, wb, attraction, a-b-da, 9, 2, 4, 18, 157, 86, 165, 90, 90, 165, 2, 0.260884
134, 2, wb, attraction, a-b-db, 14, 3, 4, 19, 120, 195, 111, 181, 195, 120, 2, 1.6001
134, 2, wb, attraction, a-b-db, 14, 3, 4, 19, 120, 195, 111, 181, 195, 120, 3, 0.328571
134, 2, wb, attraction, a-b-db, 14, 1, 4, 20, 60, 135, 135, 60, 56, 125, 1, 1.4394
134, 2, wb, attraction, a-b-db, 14, 1, 4, 20, 60, 135, 135, 60, 56, 125, 2, 0.244176
134, 2, wb, filler, NA, 999, 999, 4, 21, 129, 57, 122, 96, 105, 158, 2, 1.46402
134, 2, wb, filler, NA, 999, 999, 4, 21, 129, 57, 122, 96, 105, 158, 3, 0.364201
134, 2, wb, attraction, a-b-da, 9, 1, 4, 22, 129, 57, 135, 60, 60, 135, 2, 1.15548
134, 2, wb, attraction, a-b-da, 9, 1, 4, 22, 129, 57, 135, 60, 60, 135, 3, 0.259611
134, 2, wb, filler, NA, 999, 999, 4, 23, 153, 191, 120, 112, 174, 85, 2, 0.90294
134, 2, wb, filler, NA, 999, 999, 4, 23, 153, 191, 120, 112, 174, 85, 1, 0.265983
134, 2, wb, filler, NA, 999, 999, 4, 24, 133, 102, 134, 178, 100, 108, 3, 0.732997
134, 2, wb, filler, NA, 999, 999, 4, 24, 133, 102, 134, 178, 100, 108, 2, 0.262802
134, 2, wb, attraction, a-b-da, 9, 3, 4, 25, 186, 114, 195, 120, 120, 195, 2, 1.83393
134, 2, wb, attraction, a-b-da, 9, 3, 4, 25, 186, 114, 195, 120, 120, 195, 3, 0.319463
134, 2, wb, attraction, a-b-da, 14, 1, 4, 26, 135, 60, 60, 135, 125, 56, 3, 1.20064
134, 2, wb, attraction, a-b-da, 14, 1, 4, 26, 135, 60, 60, 135, 125, 56, 2, 0.375567
134, 2, wb, attraction, a-b-da, 2, 1, 4, 27, 60, 135, 135, 60, 134, 59, 1, 1.26193
134, 2, wb, attraction, a-b-da, 2, 1, 4, 27, 60, 135, 135, 60, 134, 59, 2, 0.338206
134, 2, wb, attraction, a-b-da, 5, 1, 4, 28, 135, 60, 60, 135, 132, 58, 2, 0.954767
134, 2, wb, attraction, a-b-da, 5, 1, 4, 28, 135, 60, 60, 135, 132, 58, 1, 0.371031
134, 2, wb, filler, NA, 999, 999, 4, 29, 148, 114, 88, 153, 153, 172, 2, 0.730261
134, 2, wb, filler, NA, 999, 999, 4, 29, 148, 114, 88, 153, 153, 172, 3, 0.355974
134, 2, wb, attraction, a-b-db, 14, 2, 4, 30, 83, 153, 90, 165, 165, 90, 1, 0.715211
134, 2, wb, attraction, a-b-db, 14, 2, 4, 30, 83, 153, 90, 165, 165, 90, 3, 0.397769
134, 2, wb, attraction, a-b-db, 2, 1, 4, 31, 60, 135, 59, 134, 135, 60, 2, 0.683449
134, 2, wb, attraction, a-b-db, 2, 1, 4, 31, 60, 135, 59, 134, 135, 60, 3, 0.327148
134, 2, wb, attraction, a-b-db, 5, 3, 4, 32, 195, 120, 120, 195, 117, 190, 2, 1.08759
134, 2, wb, attraction, a-b-db, 5, 3, 4, 32, 195, 120, 120, 195, 117, 190, 1, 0.410624
134, 2, wb, filler, NA, 999, 999, 4, 33, 81, 161, 137, 152, 85, 73, 3, 0.76775
134, 2, wb, filler, NA, 999, 999, 4, 33, 81, 161, 137, 152, 85, 73, 2, 0.272206
134, 2, wb, attraction, a-b-db, 2, 3, 4, 34, 195, 120, 119, 193, 120, 195, 2, 5.57941
134, 2, wb, attraction, a-b-db, 2, 3, 4, 34, 195, 120, 119, 193, 120, 195, 3, 0.657631
134, 2, wb, attraction, a-b-da, 5, 3, 4, 35, 195, 120, 190, 117, 120, 195, 2, 2.06859
134, 2, wb, attraction, a-b-da, 5, 3, 4, 35, 195, 120, 190, 117, 120, 195, 1, 0.352634
134, 2, wb, filler, NA, 999, 999, 4, 36, 143, 56, 77, 78, 74, 66, 3, 0.896487
134, 2, wb, filler, NA, 999, 999, 4, 36, 143, 56, 77, 78, 74, 66, 2, 0.443495
134, 2, wb, filler, NA, 999, 999, 4, 37, 163, 101, 139, 147, 97, 102, 3, 1.19129
134, 2, wb, filler, NA, 999, 999, 4, 37, 163, 101, 139, 147, 97, 102, 2, 0.310389
134, 2, wb, attraction, a-b-da, 2, 1, 5, 1, 60, 135, 134, 59, 135, 60, 2, 6.46202
134, 2, wb, attraction, a-b-da, 2, 1, 5, 1, 60, 135, 134, 59, 135, 60, 1, 0.60066
134, 2, wb, attraction, a-b-db, 5, 1, 5, 2, 58, 132, 60, 135, 135, 60, 1, 2.50239
134, 2, wb, attraction, a-b-db, 5, 1, 5, 2, 58, 132, 60, 135, 135, 60, 2, 0.857004
134, 2, wb, attraction, a-b-da, 14, 1, 5, 3, 125, 56, 60, 135, 135, 60, 1, 5.36393
134, 2, wb, attraction, a-b-da, 14, 1, 5, 3, 125, 56, 60, 135, 135, 60, 2, 0.794887
134, 2, wb, attraction, a-b-db, 9, 2, 5, 4, 90, 165, 86, 157, 165, 90, 1, 3.96068
134, 2, wb, attraction, a-b-db, 9, 2, 5, 4, 90, 165, 86, 157, 165, 90, 3, 0.735974
134, 2, wb, attraction, a-b-da, 5, 2, 5, 5, 165, 90, 90, 165, 161, 88, 2, 1.23239
134, 2, wb, attraction, a-b-da, 5, 2, 5, 5, 165, 90, 90, 165, 161, 88, 1, 0.502059
134, 2, wb, filler, NA, 999, 999, 5, 6, 134, 104, 164, 116, 156, 190, 1, 0.775881
134, 2, wb, filler, NA, 999, 999, 5, 6, 134, 104, 164, 116, 156, 190, 3, 0.343532
134, 2, wb, attraction, a-b-db, 5, 2, 5, 7, 165, 90, 90, 165, 88, 161, 3, 2.55134
134, 2, wb, attraction, a-b-db, 5, 2, 5, 7, 165, 90, 90, 165, 88, 161, 1, 0.815895
134, 2, wb, attraction, a-b-da, 14, 2, 5, 8, 90, 165, 165, 90, 153, 83, 3, 1.07702
134, 2, wb, attraction, a-b-da, 14, 2, 5, 8, 90, 165, 165, 90, 153, 83, 1, 0.384577
134, 2, wb, filler, NA, 999, 999, 5, 9, 69, 100, 152, 148, 147, 140, 1, 0.879003
134, 2, wb, filler, NA, 999, 999, 5, 9, 69, 100, 152, 148, 147, 140, 2, 1.21082
134, 2, wb, filler, NA, 999, 999, 5, 10, 145, 70, 99, 155, 59, 119, 3, 1.47161
134, 2, wb, filler, NA, 999, 999, 5, 10, 145, 70, 99, 155, 59, 119, 2, 0.539093
134, 2, wb, filler, NA, 999, 999, 5, 11, 163, 113, 107, 61, 193, 175, 2, 0.739506
134, 2, wb, filler, NA, 999, 999, 5, 11, 163, 113, 107, 61, 193, 175, 3, 0.27662
134, 2, wb, attraction, a-b-db, 2, 2, 5, 12, 165, 90, 89, 163, 90, 165, 2, 2.37512
134, 2, wb, attraction, a-b-db, 2, 2, 5, 12, 165, 90, 89, 163, 90, 165, 3, 0.694381
134, 2, wb, attraction, a-b-db, 9, 1, 5, 13, 135, 60, 60, 135, 57, 129, 3, 0.992191
134, 2, wb, attraction, a-b-db, 9, 1, 5, 13, 135, 60, 60, 135, 57, 129, 1, 0.631157
134, 2, wb, catch, NA, 999, 999, 5, 14, 148, 167, 109, 86, 107, 148, 2, 0.747462
134, 2, wb, catch, NA, 999, 999, 5, 14, 148, 167, 109, 86, 107, 148, 1, 0.364508
134, 2, wb, attraction, a-b-da, 2, 2, 5, 15, 163, 89, 165, 90, 90, 165, 3, 1.51581
134, 2, wb, attraction, a-b-da, 2, 2, 5, 15, 163, 89, 165, 90, 90, 165, 2, 0.269896
134, 2, wb, attraction, a-b-da, 5, 3, 5, 16, 190, 117, 120, 195, 195, 120, 1, 0.905053
134, 2, wb, attraction, a-b-da, 5, 3, 5, 16, 190, 117, 120, 195, 195, 120, 2, 0.363547
134, 2, wb, attraction, a-b-db, 14, 3, 5, 17, 195, 120, 111, 181, 120, 195, 2, 0.698676
134, 2, wb, attraction, a-b-db, 14, 3, 5, 17, 195, 120, 111, 181, 120, 195, 1, 0.301719
134, 2, wb, attraction, a-b-db, 5, 3, 5, 18, 195, 120, 120, 195, 117, 190, 3, 2.25557
134, 2, wb, attraction, a-b-db, 5, 3, 5, 18, 195, 120, 120, 195, 117, 190, 2, 0.46046
134, 2, wb, attraction, a-b-db, 14, 2, 5, 19, 83, 153, 90, 165, 165, 90, 1, 3.31062
134, 2, wb, attraction, a-b-db, 14, 2, 5, 19, 83, 153, 90, 165, 165, 90, 2, 1.17619
134, 2, wb, attraction, a-b-db, 14, 1, 5, 20, 56, 125, 135, 60, 60, 135, 1, 1.23046
134, 2, wb, attraction, a-b-db, 14, 1, 5, 20, 56, 125, 135, 60, 60, 135, 3, 1.27603
134, 2, wb, filler, NA, 999, 999, 5, 21, 176, 103, 171, 149, 96, 167, 3, 2.18233
134, 2, wb, filler, NA, 999, 999, 5, 21, 176, 103, 171, 149, 96, 167, 2, 0.654613
134, 2, wb, attraction, a-b-da, 2, 3, 5, 22, 120, 195, 195, 120, 193, 119, 2, 8.60921
134, 2, wb, attraction, a-b-da, 2, 3, 5, 22, 120, 195, 195, 120, 193, 119, 1, 0.461197
134, 2, wb, attraction, a-b-db, 9, 3, 5, 23, 195, 120, 120, 195, 114, 186, 1, 1.83232
134, 2, wb, attraction, a-b-db, 9, 3, 5, 23, 195, 120, 120, 195, 114, 186, 2, 0.333933
134, 2, wb, filler, NA, 999, 999, 5, 24, 192, 139, 176, 101, 65, 137, 3, 1.02227
134, 2, wb, filler, NA, 999, 999, 5, 24, 192, 139, 176, 101, 65, 137, 1, 0.47585
134, 2, wb, filler, NA, 999, 999, 5, 25, 156, 153, 104, 58, 112, 104, 2, 0.822345
134, 2, wb, filler, NA, 999, 999, 5, 25, 156, 153, 104, 58, 112, 104, 1, 0.308082
134, 2, wb, filler, NA, 999, 999, 5, 26, 145, 97, 105, 117, 135, 190, 2, 1.40529
134, 2, wb, filler, NA, 999, 999, 5, 26, 145, 97, 105, 117, 135, 190, 3, 0.371495
134, 2, wb, attraction, a-b-da, 9, 1, 5, 27, 60, 135, 135, 60, 129, 57, 3, 2.39467
134, 2, wb, attraction, a-b-da, 9, 1, 5, 27, 60, 135, 135, 60, 129, 57, 1, 0.47319
134, 2, wb, catch, NA, 999, 999, 5, 28, 100, 155, 159, 156, 72, 123, 3, 3.36929
134, 2, wb, catch, NA, 999, 999, 5, 28, 100, 155, 159, 156, 72, 123, 2, 0.914598
134, 2, wb, attraction, a-b-db, 2, 1, 5, 29, 59, 134, 135, 60, 60, 135, 2, 23.6755
134, 2, wb, attraction, a-b-db, 2, 1, 5, 29, 59, 134, 135, 60, 60, 135, 3, 1.68881
134, 2, wb, catch, NA, 999, 999, 5, 30, 121, 194, 98, 97, 118, 137, 2, 0.874852
134, 2, wb, catch, NA, 999, 999, 5, 30, 121, 194, 98, 97, 118, 137, 1, 0.566536
134, 2, wb, filler, NA, 999, 999, 5, 31, 113, 104, 81, 68, 138, 156, 2, 1.42169
134, 2, wb, filler, NA, 999, 999, 5, 31, 113, 104, 81, 68, 138, 156, 3, 0.3312
134, 2, wb, filler, NA, 999, 999, 5, 32, 183, 180, 104, 163, 91, 135, 3, 0.795724
134, 2, wb, filler, NA, 999, 999, 5, 32, 183, 180, 104, 163, 91, 135, 1, 0.642779
134, 2, wb, attraction, a-b-da, 14, 3, 5, 33, 181, 111, 195, 120, 120, 195, 1, 2.23864
134, 2, wb, attraction, a-b-da, 14, 3, 5, 33, 181, 111, 195, 120, 120, 195, 3, 0.64324
134, 2, wb, attraction, a-b-da, 9, 3, 5, 34, 120, 195, 186, 114, 195, 120, 2, 1.55881
134, 2, wb, attraction, a-b-da, 9, 3, 5, 34, 120, 195, 186, 114, 195, 120, 1, 0.318929
134, 2, wb, attraction, a-b-da, 9, 2, 5, 35, 157, 86, 165, 90, 90, 165, 1, 1.22414
134, 2, wb, attraction, a-b-da, 9, 2, 5, 35, 157, 86, 165, 90, 90, 165, 2, 1.00577
134, 2, wb, attraction, a-b-db, 2, 3, 5, 36, 120, 195, 119, 193, 195, 120, 2, 3.54737
134, 2, wb, attraction, a-b-db, 2, 3, 5, 36, 120, 195, 119, 193, 195, 120, 3, 0.491587
134, 2, wb, attraction, a-b-da, 5, 1, 5, 37, 60, 135, 132, 58, 135, 60, 2, 1.10132
134, 2, wb, attraction, a-b-da, 5, 1, 5, 37, 60, 135, 132, 58, 135, 60, 1, 0.400491
134, 2, wb, attraction, a-b-db, 9, 2, 6, 1, 165, 90, 86, 157, 90, 165, 1, 0.998175
134, 2, wb, attraction, a-b-db, 9, 2, 6, 1, 165, 90, 86, 157, 90, 165, 2, 0.629184
134, 2, wb, attraction, a-b-da, 9, 3, 6, 2, 120, 195, 195, 120, 186, 114, 3, 1.08161
134, 2, wb, attraction, a-b-da, 9, 3, 6, 2, 120, 195, 195, 120, 186, 114, 2, 0.48521
134, 2, wb, filler, NA, 999, 999, 6, 3, 136, 98, 193, 119, 90, 83, 3, 0.727622
134, 2, wb, filler, NA, 999, 999, 6, 3, 136, 98, 193, 119, 90, 83, 2, 0.841368
134, 2, wb, attraction, a-b-db, 14, 2, 6, 4, 165, 90, 83, 153, 90, 165, 2, 2.86114
134, 2, wb, attraction, a-b-db, 14, 2, 6, 4, 165, 90, 83, 153, 90, 165, 1, 0.624843
134, 2, wb, attraction, a-b-da, 5, 2, 6, 5, 165, 90, 90, 165, 161, 88, 3, 2.30923
134, 2, wb, attraction, a-b-da, 5, 2, 6, 5, 165, 90, 90, 165, 161, 88, 2, 0.32719
134, 2, wb, catch, NA, 999, 999, 6, 6, 155, 160, 74, 121, 94, 161, 2, 0.991571
134, 2, wb, catch, NA, 999, 999, 6, 6, 155, 160, 74, 121, 94, 161, 1, 0.374697
134, 2, wb, attraction, a-b-db, 9, 1, 6, 7, 60, 135, 57, 129, 135, 60, 2, 1.98911
134, 2, wb, attraction, a-b-db, 9, 1, 6, 7, 60, 135, 57, 129, 135, 60, 3, 0.395839
134, 2, wb, filler, NA, 999, 999, 6, 8, 94, 152, 113, 127, 60, 71, 3, 0.889746
134, 2, wb, filler, NA, 999, 999, 6, 8, 94, 152, 113, 127, 60, 71, 2, 0.276626
134, 2, wb, attraction, a-b-db, 14, 3, 6, 9, 111, 181, 120, 195, 195, 120, 1, 1.31124
134, 2, wb, attraction, a-b-db, 14, 3, 6, 9, 111, 181, 120, 195, 195, 120, 3, 1.28957
134, 2, wb, attraction, a-b-da, 14, 3, 6, 10, 195, 120, 120, 195, 181, 111, 3, 1.40298
134, 2, wb, attraction, a-b-da, 14, 3, 6, 10, 195, 120, 120, 195, 181, 111, 2, 0.513807
134, 2, wb, attraction, a-b-da, 2, 2, 6, 11, 163, 89, 165, 90, 90, 165, 1, 1.00287
134, 2, wb, attraction, a-b-da, 2, 2, 6, 11, 163, 89, 165, 90, 90, 165, 2, 1.32194
134, 2, wb, filler, NA, 999, 999, 6, 12, 124, 80, 113, 136, 92, 73, 3, 1.43471
134, 2, wb, filler, NA, 999, 999, 6, 12, 124, 80, 113, 136, 92, 73, 2, 0.384311
134, 2, wb, attraction, a-b-db, 5, 1, 6, 13, 135, 60, 60, 135, 58, 132, 3, 2.81485
134, 2, wb, attraction, a-b-db, 5, 1, 6, 13, 135, 60, 60, 135, 58, 132, 2, 1.48457
134, 2, wb, attraction, a-b-db, 2, 2, 6, 14, 165, 90, 90, 165, 89, 163, 3, 2.67073
134, 2, wb, attraction, a-b-db, 2, 2, 6, 14, 165, 90, 90, 165, 89, 163, 2, 0.465904
134, 2, wb, attraction, a-b-da, 14, 2, 6, 15, 153, 83, 165, 90, 90, 165, 1, 3.16511
134, 2, wb, attraction, a-b-da, 14, 2, 6, 15, 153, 83, 165, 90, 90, 165, 2, 0.612682
134, 2, wb, attraction, a-b-da, 9, 1, 6, 16, 129, 57, 135, 60, 60, 135, 1, 1.82571
134, 2, wb, attraction, a-b-da, 9, 1, 6, 16, 129, 57, 135, 60, 60, 135, 2, 1.38313
134, 2, wb, attraction, a-b-db, 5, 2, 6, 17, 88, 161, 90, 165, 165, 90, 3, 1.53328
134, 2, wb, attraction, a-b-db, 5, 2, 6, 17, 88, 161, 90, 165, 165, 90, 2, 0.446766
134, 2, wb, filler, NA, 999, 999, 6, 18, 67, 64, 77, 122, 126, 177, 1, 0.754614
134, 2, wb, filler, NA, 999, 999, 6, 18, 67, 64, 77, 122, 126, 177, 3, 0.402972
134, 2, wb, attraction, a-b-da, 5, 3, 6, 19, 190, 117, 195, 120, 120, 195, 1, 2.19281
134, 2, wb, attraction, a-b-da, 5, 3, 6, 19, 190, 117, 195, 120, 120, 195, 3, 0.607469
134, 2, wb, attraction, a-b-da, 14, 1, 6, 20, 135, 60, 60, 135, 125, 56, 2, 1.14852
134, 2, wb, attraction, a-b-da, 14, 1, 6, 20, 135, 60, 60, 135, 125, 56, 1, 0.917463
134, 2, wb, catch, NA, 999, 999, 6, 21, 67, 128, 101, 154, 185, 130, 1, 0.878382
134, 2, wb, catch, NA, 999, 999, 6, 21, 67, 128, 101, 154, 185, 130, 3, 0.474135
134, 2, wb, attraction, a-b-da, 5, 1, 6, 22, 135, 60, 60, 135, 132, 58, 2, 1.14088
134, 2, wb, attraction, a-b-da, 5, 1, 6, 22, 135, 60, 60, 135, 132, 58, 3, 0.829512
134, 2, wb, attraction, a-b-db, 5, 3, 6, 23, 117, 190, 195, 120, 120, 195, 2, 3.76986
134, 2, wb, attraction, a-b-db, 5, 3, 6, 23, 117, 190, 195, 120, 120, 195, 3, 0.60934
134, 2, wb, catch, NA, 999, 999, 6, 24, 95, 160, 87, 108, 159, 156, 2, 0.654604
134, 2, wb, catch, NA, 999, 999, 6, 24, 95, 160, 87, 108, 159, 156, 3, 0.386932
134, 2, wb, filler, NA, 999, 999, 6, 25, 82, 138, 59, 57, 88, 65, 2, 0.649335
134, 2, wb, filler, NA, 999, 999, 6, 25, 82, 138, 59, 57, 88, 65, 1, 0.31059
134, 2, wb, attraction, a-b-da, 2, 1, 6, 26, 134, 59, 135, 60, 60, 135, 2, 1.03171
134, 2, wb, attraction, a-b-da, 2, 1, 6, 26, 134, 59, 135, 60, 60, 135, 1, 0.437311
134, 2, wb, filler, NA, 999, 999, 6, 27, 86, 74, 98, 177, 187, 138, 1, 0.801864
134, 2, wb, filler, NA, 999, 999, 6, 27, 86, 74, 98, 177, 187, 138, 3, 0.640969
134, 2, wb, filler, NA, 999, 999, 6, 28, 138, 172, 185, 129, 72, 169, 3, 0.796552
134, 2, wb, filler, NA, 999, 999, 6, 28, 138, 172, 185, 129, 72, 169, 1, 0.475632
134, 2, wb, filler, NA, 999, 999, 6, 29, 160, 101, 69, 183, 110, 78, 3, 0.878098
134, 2, wb, filler, NA, 999, 999, 6, 29, 160, 101, 69, 183, 110, 78, 1, 0.825754
134, 2, wb, attraction, a-b-db, 9, 3, 6, 30, 195, 120, 114, 186, 120, 195, 2, 2.50209
134, 2, wb, attraction, a-b-db, 9, 3, 6, 30, 195, 120, 114, 186, 120, 195, 3, 0.4167
134, 2, wb, attraction, a-b-da, 2, 3, 6, 31, 120, 195, 193, 119, 195, 120, 1, 1.94991
134, 2, wb, attraction, a-b-da, 2, 3, 6, 31, 120, 195, 193, 119, 195, 120, 3, 0.566538
134, 2, wb, attraction, a-b-db, 2, 1, 6, 32, 135, 60, 59, 134, 60, 135, 1, 0.701602
134, 2, wb, attraction, a-b-db, 2, 1, 6, 32, 135, 60, 59, 134, 60, 135, 3, 0.616741
134, 2, wb, attraction, a-b-db, 2, 3, 6, 33, 120, 195, 119, 193, 195, 120, 2, 1.11779
134, 2, wb, attraction, a-b-db, 2, 3, 6, 33, 120, 195, 119, 193, 195, 120, 3, 0.440232
134, 2, wb, filler, NA, 999, 999, 6, 34, 177, 123, 121, 155, 163, 89, 3, 1.06788
134, 2, wb, filler, NA, 999, 999, 6, 34, 177, 123, 121, 155, 163, 89, 2, 0.304351
134, 2, wb, attraction, a-b-da, 9, 2, 6, 35, 157, 86, 165, 90, 90, 165, 1, 0.802037
134, 2, wb, attraction, a-b-da, 9, 2, 6, 35, 157, 86, 165, 90, 90, 165, 2, 0.369127
134, 2, wb, filler, NA, 999, 999, 6, 36, 116, 58, 72, 56, 145, 62, 2, 1.06424
134, 2, wb, filler, NA, 999, 999, 6, 36, 116, 58, 72, 56, 145, 62, 3, 0.924574
134, 2, wb, attraction, a-b-db, 14, 1, 6, 37, 60, 135, 56, 125, 135, 60, 1, 1.85291
134, 2, wb, attraction, a-b-db, 14, 1, 6, 37, 60, 135, 56, 125, 135, 60, 3, 0.561761
134, 2, wb, filler, NA, 999, 999, 7, 1, 130, 161, 115, 66, 75, 81, 2, 1.14462
134, 2, wb, filler, NA, 999, 999, 7, 1, 130, 161, 115, 66, 75, 81, 1, 0.329679
134, 2, wb, attraction, a-b-da, 2, 2, 7, 2, 163, 89, 90, 165, 165, 90, 1, 2.11414
134, 2, wb, attraction, a-b-da, 2, 2, 7, 2, 163, 89, 90, 165, 165, 90, 2, 0.372201
134, 2, wb, filler, NA, 999, 999, 7, 3, 191, 73, 102, 79, 77, 119, 2, 2.33142
134, 2, wb, filler, NA, 999, 999, 7, 3, 191, 73, 102, 79, 77, 119, 1, 0.364552
134, 2, wb, attraction, a-b-da, 5, 1, 7, 4, 135, 60, 132, 58, 60, 135, 3, 4.17969
134, 2, wb, attraction, a-b-da, 5, 1, 7, 4, 135, 60, 132, 58, 60, 135, 2, 1.21836
134, 2, wb, filler, NA, 999, 999, 7, 5, 169, 58, 94, 74, 95, 91, 2, 1.73525
134, 2, wb, filler, NA, 999, 999, 7, 5, 169, 58, 94, 74, 95, 91, 1, 1.24069
134, 2, wb, filler, NA, 999, 999, 7, 6, 134, 147, 88, 95, 189, 163, 2, 1.47621
134, 2, wb, filler, NA, 999, 999, 7, 6, 134, 147, 88, 95, 189, 163, 3, 0.3198
134, 2, wb, attraction, a-b-da, 2, 3, 7, 7, 195, 120, 193, 119, 120, 195, 1, 6.65698
134, 2, wb, attraction, a-b-da, 2, 3, 7, 7, 195, 120, 193, 119, 120, 195, 3, 0.531538
134, 2, wb, attraction, a-b-db, 14, 2, 7, 8, 83, 153, 90, 165, 165, 90, 1, 2.84405
134, 2, wb, attraction, a-b-db, 14, 2, 7, 8, 83, 153, 90, 165, 165, 90, 3, 1.32031
134, 2, wb, attraction, a-b-db, 14, 1, 7, 9, 135, 60, 56, 125, 60, 135, 2, 2.32139
134, 2, wb, attraction, a-b-db, 14, 1, 7, 9, 135, 60, 56, 125, 60, 135, 1, 0.850378
134, 2, wb, attraction, a-b-db, 5, 3, 7, 10, 120, 195, 195, 120, 117, 190, 1, 2.59812
134, 2, wb, attraction, a-b-db, 5, 3, 7, 10, 120, 195, 195, 120, 117, 190, 2, 0.668629
134, 2, wb, attraction, a-b-da, 2, 1, 7, 11, 134, 59, 135, 60, 60, 135, 1, 2.05568
134, 2, wb, attraction, a-b-da, 2, 1, 7, 11, 134, 59, 135, 60, 60, 135, 3, 0.715711
134, 2, wb, attraction, a-b-db, 5, 1, 7, 12, 135, 60, 58, 132, 60, 135, 2, 3.98073
134, 2, wb, attraction, a-b-db, 5, 1, 7, 12, 135, 60, 58, 132, 60, 135, 3, 0.827502
134, 2, wb, catch, NA, 999, 999, 7, 13, 72, 123, 103, 152, 149, 166, 1, 0.815808
134, 2, wb, catch, NA, 999, 999, 7, 13, 72, 123, 103, 152, 149, 166, 3, 0.486298
134, 2, wb, attraction, a-b-da, 5, 3, 7, 14, 195, 120, 120, 195, 190, 117, 1, 8.21675
134, 2, wb, attraction, a-b-da, 5, 3, 7, 14, 195, 120, 120, 195, 190, 117, 2, 0.508799
134, 2, wb, catch, NA, 999, 999, 7, 15, 188, 127, 118, 137, 99, 96, 3, 1.50998
134, 2, wb, catch, NA, 999, 999, 7, 15, 188, 127, 118, 137, 99, 96, 1, 1.31197
134, 2, wb, attraction, a-b-db, 2, 2, 7, 16, 165, 90, 90, 165, 89, 163, 1, 4.41297
134, 2, wb, attraction, a-b-db, 2, 2, 7, 16, 165, 90, 90, 165, 89, 163, 2, 1.04614
134, 2, wb, attraction, a-b-da, 5, 2, 7, 17, 165, 90, 161, 88, 90, 165, 1, 2.28175
134, 2, wb, attraction, a-b-da, 5, 2, 7, 17, 165, 90, 161, 88, 90, 165, 3, 0.405068
134, 2, wb, attraction, a-b-da, 9, 1, 7, 18, 129, 57, 60, 135, 135, 60, 1, 3.22681
134, 2, wb, attraction, a-b-da, 9, 1, 7, 18, 129, 57, 60, 135, 135, 60, 2, 0.655846
134, 2, wb, filler, NA, 999, 999, 7, 19, 70, 63, 127, 190, 99, 81, 1, 1.00347
134, 2, wb, filler, NA, 999, 999, 7, 19, 70, 63, 127, 190, 99, 81, 2, 0.506531
134, 2, wb, filler, NA, 999, 999, 7, 20, 86, 191, 147, 125, 71, 72, 3, 1.15706
134, 2, wb, filler, NA, 999, 999, 7, 20, 86, 191, 147, 125, 71, 72, 2, 0.964055
134, 2, wb, catch, NA, 999, 999, 7, 21, 148, 167, 140, 115, 132, 63, 3, 1.38694
134, 2, wb, catch, NA, 999, 999, 7, 21, 148, 167, 140, 115, 132, 63, 1, 0.481895
134, 2, wb, attraction, a-b-db, 2, 1, 7, 22, 59, 134, 60, 135, 135, 60, 1, 3.0682
134, 2, wb, attraction, a-b-db, 2, 1, 7, 22, 59, 134, 60, 135, 135, 60, 3, 0.776045
134, 2, wb, attraction, a-b-da, 9, 3, 7, 23, 120, 195, 195, 120, 186, 114, 3, 8.93426
134, 2, wb, attraction, a-b-da, 9, 3, 7, 23, 120, 195, 195, 120, 186, 114, 2, 0.453426
134, 2, wb, attraction, a-b-db, 2, 3, 7, 24, 119, 193, 195, 120, 120, 195, 2, 1.7772
134, 2, wb, attraction, a-b-db, 2, 3, 7, 24, 119, 193, 195, 120, 120, 195, 3, 0.432633
134, 2, wb, filler, NA, 999, 999, 7, 25, 103, 100, 103, 72, 164, 192, 2, 1.54912
134, 2, wb, filler, NA, 999, 999, 7, 25, 103, 100, 103, 72, 164, 192, 3, 0.750108
134, 2, wb, attraction, a-b-da, 14, 1, 7, 26, 125, 56, 135, 60, 60, 135, 1, 3.38963
134, 2, wb, attraction, a-b-da, 14, 1, 7, 26, 125, 56, 135, 60, 60, 135, 3, 0.972071
134, 2, wb, attraction, a-b-da, 14, 2, 7, 27, 90, 165, 165, 90, 153, 83, 2, 4.81887
134, 2, wb, attraction, a-b-da, 14, 2, 7, 27, 90, 165, 165, 90, 153, 83, 1, 0.519981
134, 2, wb, attraction, a-b-db, 5, 2, 7, 28, 90, 165, 165, 90, 88, 161, 1, 2.43323
134, 2, wb, attraction, a-b-db, 5, 2, 7, 28, 90, 165, 165, 90, 88, 161, 3, 0.758319
134, 2, wb, attraction, a-b-db, 9, 2, 7, 29, 90, 165, 165, 90, 86, 157, 3, 5.21341
134, 2, wb, attraction, a-b-db, 9, 2, 7, 29, 90, 165, 165, 90, 86, 157, 1, 0.514415
134, 2, wb, attraction, a-b-db, 9, 3, 7, 30, 195, 120, 114, 186, 120, 195, 2, 7.45947
134, 2, wb, attraction, a-b-db, 9, 3, 7, 30, 195, 120, 114, 186, 120, 195, 3, 0.421919
134, 2, wb, attraction, a-b-da, 14, 3, 7, 31, 195, 120, 181, 111, 120, 195, 2, 5.723
134, 2, wb, attraction, a-b-da, 14, 3, 7, 31, 195, 120, 181, 111, 120, 195, 3, 0.523106
134, 2, wb, filler, NA, 999, 999, 7, 32, 148, 61, 180, 159, 141, 63, 3, 1.73177
134, 2, wb, filler, NA, 999, 999, 7, 32, 148, 61, 180, 159, 141, 63, 2, 0.877148
134, 2, wb, filler, NA, 999, 999, 7, 33, 75, 92, 69, 98, 111, 86, 1, 1.47136
134, 2, wb, filler, NA, 999, 999, 7, 33, 75, 92, 69, 98, 111, 86, 3, 0.538869
134, 2, wb, attraction, a-b-db, 14, 3, 7, 34, 195, 120, 120, 195, 111, 181, 3, 2.92332
134, 2, wb, attraction, a-b-db, 14, 3, 7, 34, 195, 120, 120, 195, 111, 181, 1, 0.884507
134, 2, wb, attraction, a-b-db, 9, 1, 7, 35, 135, 60, 57, 129, 60, 135, 2, 2.71081
134, 2, wb, attraction, a-b-db, 9, 1, 7, 35, 135, 60, 57, 129, 60, 135, 3, 0.496496
134, 2, wb, filler, NA, 999, 999, 7, 36, 158, 163, 80, 112, 68, 184, 2, 1.36226
134, 2, wb, filler, NA, 999, 999, 7, 36, 158, 163, 80, 112, 68, 184, 1, 0.79921
134, 2, wb, attraction, a-b-da, 9, 2, 7, 37, 90, 165, 165, 90, 157, 86, 2, 5.26426
134, 2, wb, attraction, a-b-da, 9, 2, 7, 37, 90, 165, 165, 90, 157, 86, 1, 0.411198
134, 2, wb, filler, NA, 999, 999, 8, 1, 103, 63, 109, 72, 56, 119, 3, 6.07228
134, 2, wb, filler, NA, 999, 999, 8, 1, 103, 63, 109, 72, 56, 119, 2, 0.442419
134, 2, wb, attraction, a-b-da, 9, 2, 8, 2, 90, 165, 157, 86, 165, 90, 2, 5.27027
134, 2, wb, attraction, a-b-da, 9, 2, 8, 2, 90, 165, 157, 86, 165, 90, 3, 0.801233
134, 2, wb, attraction, a-b-db, 2, 2, 8, 3, 90, 165, 165, 90, 89, 163, 2, 9.33491
134, 2, wb, attraction, a-b-db, 2, 2, 8, 3, 90, 165, 165, 90, 89, 163, 3, 2.34201
134, 2, wb, filler, NA, 999, 999, 8, 4, 139, 58, 117, 79, 173, 106, 1, 1.53327
134, 2, wb, filler, NA, 999, 999, 8, 4, 139, 58, 117, 79, 173, 106, 3, 0.894771
134, 2, wb, catch, NA, 999, 999, 8, 5, 90, 105, 108, 147, 159, 156, 1, 0.864279
134, 2, wb, catch, NA, 999, 999, 8, 5, 90, 105, 108, 147, 159, 156, 3, 0.620695
134, 2, wb, filler, NA, 999, 999, 8, 6, 137, 118, 194, 166, 145, 119, 3, 1.80191
134, 2, wb, filler, NA, 999, 999, 8, 6, 137, 118, 194, 166, 145, 119, 2, 0.30455
134, 2, wb, attraction, a-b-db, 2, 1, 8, 7, 135, 60, 59, 134, 60, 135, 2, 2.42639
134, 2, wb, attraction, a-b-db, 2, 1, 8, 7, 135, 60, 59, 134, 60, 135, 1, 1.37563
134, 2, wb, attraction, a-b-db, 5, 1, 8, 8, 135, 60, 60, 135, 58, 132, 2, 1.43776
134, 2, wb, attraction, a-b-db, 5, 1, 8, 8, 135, 60, 60, 135, 58, 132, 1, 0.626637
134, 2, wb, attraction, a-b-db, 5, 3, 8, 9, 195, 120, 120, 195, 117, 190, 2, 1.7031
134, 2, wb, attraction, a-b-db, 5, 3, 8, 9, 195, 120, 120, 195, 117, 190, 1, 0.777793
134, 2, wb, attraction, a-b-da, 5, 1, 8, 10, 60, 135, 132, 58, 135, 60, 1, 2.07213
134, 2, wb, attraction, a-b-da, 5, 1, 8, 10, 60, 135, 132, 58, 135, 60, 3, 0.467513
134, 2, wb, attraction, a-b-da, 2, 2, 8, 11, 90, 165, 163, 89, 165, 90, 2, 2.62257
134, 2, wb, attraction, a-b-da, 2, 2, 8, 11, 90, 165, 163, 89, 165, 90, 1, 1.36374
134, 2, wb, attraction, a-b-da, 14, 2, 8, 12, 153, 83, 165, 90, 90, 165, 1, 1.44276
134, 2, wb, attraction, a-b-da, 14, 2, 8, 12, 153, 83, 165, 90, 90, 165, 2, 0.335516
134, 2, wb, filler, NA, 999, 999, 8, 13, 87, 137, 118, 175, 176, 70, 1, 13.688
134, 2, wb, filler, NA, 999, 999, 8, 13, 87, 137, 118, 175, 176, 70, 2, 0.383681
134, 2, wb, filler, NA, 999, 999, 8, 14, 112, 114, 160, 194, 188, 193, 1, 4.28611
134, 2, wb, filler, NA, 999, 999, 8, 14, 112, 114, 160, 194, 188, 193, 3, 0.291349
134, 2, wb, attraction, a-b-da, 5, 3, 8, 15, 120, 195, 190, 117, 195, 120, 3, 34.8986
134, 2, wb, attraction, a-b-da, 5, 3, 8, 15, 120, 195, 190, 117, 195, 120, 1, 0.475807
134, 2, wb, filler, NA, 999, 999, 8, 16, 84, 182, 190, 194, 186, 165, 1, 1.01417
134, 2, wb, filler, NA, 999, 999, 8, 16, 84, 182, 190, 194, 186, 165, 2, 0.892566
134, 2, wb, catch, NA, 999, 999, 8, 17, 141, 114, 80, 115, 158, 157, 2, 0.790185
134, 2, wb, catch, NA, 999, 999, 8, 17, 141, 114, 80, 115, 158, 157, 3, 0.669207
134, 2, wb, attraction, a-b-da, 14, 1, 8, 18, 135, 60, 125, 56, 60, 135, 2, 1.53636
134, 2, wb, attraction, a-b-da, 14, 1, 8, 18, 135, 60, 125, 56, 60, 135, 3, 1.10584
134, 2, wb, catch, NA, 999, 999, 8, 19, 181, 134, 92, 163, 82, 113, 3, 1.25937
134, 2, wb, catch, NA, 999, 999, 8, 19, 181, 134, 92, 163, 82, 113, 1, 0.6796
134, 2, wb, attraction, a-b-da, 2, 3, 8, 20, 195, 120, 120, 195, 193, 119, 1, 2.84997
134, 2, wb, attraction, a-b-da, 2, 3, 8, 20, 195, 120, 120, 195, 193, 119, 2, 0.422392
134, 2, wb, attraction, a-b-db, 5, 2, 8, 21, 90, 165, 88, 161, 165, 90, 1, 1.57167
134, 2, wb, attraction, a-b-db, 5, 2, 8, 21, 90, 165, 88, 161, 165, 90, 2, 0.403176
134, 2, wb, attraction, a-b-da, 5, 2, 8, 22, 161, 88, 165, 90, 90, 165, 2, 3.05704
134, 2, wb, attraction, a-b-da, 5, 2, 8, 22, 161, 88, 165, 90, 90, 165, 1, 0.716606
134, 2, wb, attraction, a-b-db, 14, 2, 8, 23, 83, 153, 165, 90, 90, 165, 1, 3.00554
134, 2, wb, attraction, a-b-db, 14, 2, 8, 23, 83, 153, 165, 90, 90, 165, 3, 0.395285
134, 2, wb, attraction, a-b-da, 2, 1, 8, 24, 134, 59, 60, 135, 135, 60, 2, 1.20114
134, 2, wb, attraction, a-b-da, 2, 1, 8, 24, 134, 59, 60, 135, 135, 60, 1, 0.472056
134, 2, wb, filler, NA, 999, 999, 8, 25, 188, 142, 146, 193, 131, 87, 3, 1.4432
134, 2, wb, filler, NA, 999, 999, 8, 25, 188, 142, 146, 193, 131, 87, 2, 1.36817
134, 2, wb, filler, NA, 999, 999, 8, 26, 100, 174, 83, 158, 71, 186, 2, 2.66298
134, 2, wb, filler, NA, 999, 999, 8, 26, 100, 174, 83, 158, 71, 186, 1, 0.818771
134, 2, wb, attraction, a-b-da, 14, 3, 8, 27, 181, 111, 120, 195, 195, 120, 1, 2.74379
134, 2, wb, attraction, a-b-da, 14, 3, 8, 27, 181, 111, 120, 195, 195, 120, 2, 1.00017
134, 2, wb, attraction, a-b-db, 14, 1, 8, 28, 135, 60, 56, 125, 60, 135, 2, 1.91782
134, 2, wb, attraction, a-b-db, 14, 1, 8, 28, 135, 60, 56, 125, 60, 135, 3, 0.495851
134, 2, wb, attraction, a-b-db, 9, 1, 8, 29, 135, 60, 57, 129, 60, 135, 3, 1.82565
134, 2, wb, attraction, a-b-db, 9, 1, 8, 29, 135, 60, 57, 129, 60, 135, 1, 0.759195
134, 2, wb, filler, NA, 999, 999, 8, 30, 140, 181, 76, 97, 145, 181, 2, 0.798039
134, 2, wb, filler, NA, 999, 999, 8, 30, 140, 181, 76, 97, 145, 181, 3, 0.477175
134, 2, wb, filler, NA, 999, 999, 8, 31, 80, 82, 159, 173, 62, 195, 1, 0.90361
134, 2, wb, filler, NA, 999, 999, 8, 31, 80, 82, 159, 173, 62, 195, 2, 0.353946
134, 2, wb, attraction, a-b-da, 9, 3, 8, 32, 195, 120, 120, 195, 186, 114, 3, 1.87379
134, 2, wb, attraction, a-b-da, 9, 3, 8, 32, 195, 120, 120, 195, 186, 114, 2, 0.669189
134, 2, wb, attraction, a-b-db, 9, 3, 8, 33, 120, 195, 114, 186, 195, 120, 2, 2.88045
134, 2, wb, attraction, a-b-db, 9, 3, 8, 33, 120, 195, 114, 186, 195, 120, 1, 0.571282
134, 2, wb, attraction, a-b-db, 9, 2, 8, 34, 90, 165, 165, 90, 86, 157, 3, 3.04244
134, 2, wb, attraction, a-b-db, 9, 2, 8, 34, 90, 165, 165, 90, 86, 157, 2, 0.734763
134, 2, wb, attraction, a-b-db, 2, 3, 8, 35, 195, 120, 119, 193, 120, 195, 3, 1.46315
134, 2, wb, attraction, a-b-db, 2, 3, 8, 35, 195, 120, 119, 193, 120, 195, 2, 0.651428
134, 2, wb, attraction, a-b-db, 14, 3, 8, 36, 111, 181, 120, 195, 195, 120, 1, 1.51914
134, 2, wb, attraction, a-b-db, 14, 3, 8, 36, 111, 181, 120, 195, 195, 120, 2, 0.769275
134, 2, wb, attraction, a-b-da, 9, 1, 8, 37, 60, 135, 135, 60, 129, 57, 1, 0.832404
134, 2, wb, attraction, a-b-da, 9, 1, 8, 37, 60, 135, 135, 60, 129, 57, 2, 0.558025
