sub_n, computer_n, bw_cond, effect, set, distance, diag, block_n, trial_n, h1, w1, h2, w2, h3, w3, choice, rt 
117, 2, bw, practice, NA, 999, 999, 0, 1, 148, 73, 172, 112, 161, 136, 3, 2.74375
117, 2, bw, practice, NA, 999, 999, 0, 1, 148, 73, 172, 112, 161, 136, 1, 6.00154
117, 2, bw, practice, NA, 999, 999, 0, 2, 180, 148, 173, 161, 187, 68, 2, 4.25625
117, 2, bw, practice, NA, 999, 999, 0, 2, 180, 148, 173, 161, 187, 68, 3, 1.17315
117, 2, bw, practice, NA, 999, 999, 0, 3, 92, 179, 91, 69, 157, 99, 3, 4.16941
117, 2, bw, practice, NA, 999, 999, 0, 3, 92, 179, 91, 69, 157, 99, 2, 1.47404
117, 2, bw, catch, NA, 999, 999, 1, 1, 93, 102, 99, 156, 175, 140, 3, 0.968115
117, 2, bw, catch, NA, 999, 999, 1, 1, 93, 102, 99, 156, 175, 140, 1, 0.880379
117, 2, bw, filler, NA, 999, 999, 1, 2, 185, 109, 70, 60, 133, 190, 3, 1.75473
117, 2, bw, filler, NA, 999, 999, 1, 2, 185, 109, 70, 60, 133, 190, 2, 0.674895
117, 2, bw, attraction, a-b-da, 9, 1, 1, 3, 129, 57, 135, 60, 60, 135, 3, 3.50939
117, 2, bw, attraction, a-b-da, 9, 1, 1, 3, 129, 57, 135, 60, 60, 135, 1, 1.70281
117, 2, bw, attraction, a-b-db, 5, 2, 1, 4, 90, 165, 88, 161, 165, 90, 1, 1.87222
117, 2, bw, attraction, a-b-db, 5, 2, 1, 4, 90, 165, 88, 161, 165, 90, 3, 0.57157
117, 2, bw, attraction, a-b-da, 9, 3, 1, 5, 195, 120, 120, 195, 186, 114, 2, 0.86669
117, 2, bw, attraction, a-b-da, 9, 3, 1, 5, 195, 120, 120, 195, 186, 114, 3, 0.759184
117, 2, bw, attraction, a-b-db, 5, 1, 1, 6, 135, 60, 58, 132, 60, 135, 1, 1.99011
117, 2, bw, attraction, a-b-db, 5, 1, 1, 6, 135, 60, 58, 132, 60, 135, 3, 1.10881
117, 2, bw, attraction, a-b-db, 2, 3, 1, 7, 120, 195, 119, 193, 195, 120, 1, 2.64568
117, 2, bw, attraction, a-b-db, 2, 3, 1, 7, 120, 195, 119, 193, 195, 120, 3, 2.85823
117, 2, bw, filler, NA, 999, 999, 1, 8, 80, 195, 187, 123, 126, 65, 2, 0.876636
117, 2, bw, filler, NA, 999, 999, 1, 8, 80, 195, 187, 123, 126, 65, 3, 0.544304
117, 2, bw, filler, NA, 999, 999, 1, 9, 181, 68, 123, 173, 67, 65, 2, 0.656038
117, 2, bw, filler, NA, 999, 999, 1, 9, 181, 68, 123, 173, 67, 65, 3, 0.820524
117, 2, bw, filler, NA, 999, 999, 1, 10, 121, 182, 154, 91, 94, 75, 1, 0.753475
117, 2, bw, filler, NA, 999, 999, 1, 10, 121, 182, 154, 91, 94, 75, 3, 0.473912
117, 2, bw, attraction, a-b-da, 2, 3, 1, 11, 120, 195, 195, 120, 193, 119, 1, 1.32451
117, 2, bw, attraction, a-b-da, 2, 3, 1, 11, 120, 195, 195, 120, 193, 119, 2, 0.621912
117, 2, bw, attraction, a-b-db, 5, 3, 1, 12, 117, 190, 195, 120, 120, 195, 1, 1.06703
117, 2, bw, attraction, a-b-db, 5, 3, 1, 12, 117, 190, 195, 120, 120, 195, 3, 0.823344
117, 2, bw, filler, NA, 999, 999, 1, 13, 148, 59, 194, 159, 190, 159, 3, 4.25964
117, 2, bw, filler, NA, 999, 999, 1, 13, 148, 59, 194, 159, 190, 159, 1, 0.455042
117, 2, bw, filler, NA, 999, 999, 1, 14, 68, 99, 168, 74, 76, 106, 2, 1.46679
117, 2, bw, filler, NA, 999, 999, 1, 14, 68, 99, 168, 74, 76, 106, 1, 0.582979
117, 2, bw, attraction, a-b-da, 5, 3, 1, 15, 195, 120, 190, 117, 120, 195, 1, 2.6694
117, 2, bw, attraction, a-b-da, 5, 3, 1, 15, 195, 120, 190, 117, 120, 195, 2, 1.1692
117, 2, bw, catch, NA, 999, 999, 1, 16, 79, 116, 134, 181, 150, 105, 2, 0.696113
117, 2, bw, catch, NA, 999, 999, 1, 16, 79, 116, 134, 181, 150, 105, 1, 0.635261
117, 2, bw, attraction, a-b-da, 14, 1, 1, 17, 135, 60, 60, 135, 125, 56, 1, 1.41565
117, 2, bw, attraction, a-b-da, 14, 1, 1, 17, 135, 60, 60, 135, 125, 56, 3, 0.653954
117, 2, bw, filler, NA, 999, 999, 1, 18, 86, 193, 183, 151, 161, 83, 2, 0.585491
117, 2, bw, filler, NA, 999, 999, 1, 18, 86, 193, 183, 151, 161, 83, 3, 0.55328
117, 2, bw, attraction, a-b-da, 14, 2, 1, 19, 90, 165, 153, 83, 165, 90, 1, 1.21715
117, 2, bw, attraction, a-b-da, 14, 2, 1, 19, 90, 165, 153, 83, 165, 90, 2, 0.903368
117, 2, bw, catch, NA, 999, 999, 1, 20, 113, 82, 162, 93, 158, 157, 3, 0.537049
117, 2, bw, catch, NA, 999, 999, 1, 20, 113, 82, 162, 93, 158, 157, 1, 0.466126
117, 2, bw, filler, NA, 999, 999, 1, 21, 90, 146, 168, 74, 79, 182, 1, 2.42928
117, 2, bw, filler, NA, 999, 999, 1, 21, 90, 146, 168, 74, 79, 182, 2, 1.06652
117, 2, bw, attraction, a-b-da, 5, 1, 1, 22, 60, 135, 135, 60, 132, 58, 1, 1.95745
117, 2, bw, attraction, a-b-da, 5, 1, 1, 22, 60, 135, 135, 60, 132, 58, 2, 0.469482
117, 2, bw, filler, NA, 999, 999, 1, 23, 142, 172, 152, 181, 91, 141, 2, 1.40858
117, 2, bw, filler, NA, 999, 999, 1, 23, 142, 172, 152, 181, 91, 141, 3, 0.326779
117, 2, bw, attraction, a-b-db, 2, 1, 1, 24, 135, 60, 60, 135, 59, 134, 2, 1.59133
117, 2, bw, attraction, a-b-db, 2, 1, 1, 24, 135, 60, 60, 135, 59, 134, 1, 0.502256
117, 2, bw, attraction, a-b-db, 14, 3, 1, 25, 120, 195, 195, 120, 111, 181, 1, 0.855871
117, 2, bw, attraction, a-b-db, 14, 3, 1, 25, 120, 195, 195, 120, 111, 181, 3, 0.748273
117, 2, bw, attraction, a-b-db, 9, 3, 1, 26, 114, 186, 195, 120, 120, 195, 3, 2.65999
117, 2, bw, attraction, a-b-db, 9, 3, 1, 26, 114, 186, 195, 120, 120, 195, 1, 0.83188
117, 2, bw, attraction, a-b-db, 14, 2, 1, 27, 165, 90, 83, 153, 90, 165, 1, 1.36426
117, 2, bw, attraction, a-b-db, 14, 2, 1, 27, 165, 90, 83, 153, 90, 165, 2, 1.02843
117, 2, bw, attraction, a-b-db, 2, 2, 1, 28, 165, 90, 90, 165, 89, 163, 2, 3.15269
117, 2, bw, attraction, a-b-db, 2, 2, 1, 28, 165, 90, 90, 165, 89, 163, 3, 0.37689
117, 2, bw, attraction, a-b-db, 9, 2, 1, 29, 165, 90, 86, 157, 90, 165, 1, 1.14335
117, 2, bw, attraction, a-b-db, 9, 2, 1, 29, 165, 90, 86, 157, 90, 165, 2, 0.464505
117, 2, bw, filler, NA, 999, 999, 1, 30, 139, 118, 78, 152, 137, 176, 3, 0.675463
117, 2, bw, filler, NA, 999, 999, 1, 30, 139, 118, 78, 152, 137, 176, 2, 0.471275
117, 2, bw, attraction, a-b-da, 2, 1, 1, 31, 60, 135, 134, 59, 135, 60, 1, 1.7384
117, 2, bw, attraction, a-b-da, 2, 1, 1, 31, 60, 135, 134, 59, 135, 60, 3, 0.347239
117, 2, bw, attraction, a-b-da, 2, 2, 1, 32, 165, 90, 90, 165, 163, 89, 2, 1.53107
117, 2, bw, attraction, a-b-da, 2, 2, 1, 32, 165, 90, 90, 165, 163, 89, 1, 1.18856
117, 2, bw, attraction, a-b-db, 14, 1, 1, 33, 135, 60, 60, 135, 56, 125, 2, 3.20268
117, 2, bw, attraction, a-b-db, 14, 1, 1, 33, 135, 60, 60, 135, 56, 125, 3, 0.433066
117, 2, bw, attraction, a-b-da, 9, 2, 1, 34, 165, 90, 90, 165, 157, 86, 2, 1.64557
117, 2, bw, attraction, a-b-da, 9, 2, 1, 34, 165, 90, 90, 165, 157, 86, 3, 0.666294
117, 2, bw, attraction, a-b-da, 5, 2, 1, 35, 161, 88, 90, 165, 165, 90, 2, 1.02133
117, 2, bw, attraction, a-b-da, 5, 2, 1, 35, 161, 88, 90, 165, 165, 90, 1, 0.314951
117, 2, bw, attraction, a-b-db, 9, 1, 1, 36, 135, 60, 57, 129, 60, 135, 1, 2.1882
117, 2, bw, attraction, a-b-db, 9, 1, 1, 36, 135, 60, 57, 129, 60, 135, 2, 0.330796
117, 2, bw, attraction, a-b-da, 14, 3, 1, 37, 181, 111, 120, 195, 195, 120, 2, 0.939518
117, 2, bw, attraction, a-b-da, 14, 3, 1, 37, 181, 111, 120, 195, 195, 120, 1, 0.292318
117, 2, bw, filler, NA, 999, 999, 2, 1, 102, 132, 138, 125, 149, 107, 2, 4.43818
117, 2, bw, filler, NA, 999, 999, 2, 1, 102, 132, 138, 125, 149, 107, 1, 0.31479
117, 2, bw, catch, NA, 999, 999, 2, 2, 141, 114, 185, 130, 65, 130, 2, 0.68397
117, 2, bw, catch, NA, 999, 999, 2, 2, 141, 114, 185, 130, 65, 130, 3, 0.695748
117, 2, bw, attraction, a-b-db, 9, 3, 2, 3, 120, 195, 114, 186, 195, 120, 2, 1.64941
117, 2, bw, attraction, a-b-db, 9, 3, 2, 3, 120, 195, 114, 186, 195, 120, 1, 0.366362
117, 2, bw, catch, NA, 999, 999, 2, 4, 149, 166, 113, 82, 157, 98, 1, 0.637452
117, 2, bw, catch, NA, 999, 999, 2, 4, 149, 166, 113, 82, 157, 98, 2, 0.338474
117, 2, bw, attraction, a-b-db, 5, 3, 2, 5, 120, 195, 195, 120, 117, 190, 1, 5.81899
117, 2, bw, attraction, a-b-db, 5, 3, 2, 5, 120, 195, 195, 120, 117, 190, 2, 0.48781
117, 2, bw, attraction, a-b-db, 14, 2, 2, 6, 83, 153, 165, 90, 90, 165, 3, 1.8183
117, 2, bw, attraction, a-b-db, 14, 2, 2, 6, 83, 153, 165, 90, 90, 165, 1, 0.392376
117, 2, bw, attraction, a-b-da, 5, 1, 2, 7, 132, 58, 135, 60, 60, 135, 3, 2.35029
117, 2, bw, attraction, a-b-da, 5, 1, 2, 7, 132, 58, 135, 60, 60, 135, 1, 0.758767
117, 2, bw, filler, NA, 999, 999, 2, 8, 61, 178, 92, 78, 187, 184, 3, 0.525885
117, 2, bw, filler, NA, 999, 999, 2, 8, 61, 178, 92, 78, 187, 184, 2, 0.543588
117, 2, bw, filler, NA, 999, 999, 2, 9, 180, 70, 59, 81, 72, 183, 1, 0.743382
117, 2, bw, filler, NA, 999, 999, 2, 9, 180, 70, 59, 81, 72, 183, 2, 0.496424
117, 2, bw, filler, NA, 999, 999, 2, 10, 58, 176, 184, 147, 87, 62, 2, 0.570189
117, 2, bw, filler, NA, 999, 999, 2, 10, 58, 176, 184, 147, 87, 62, 3, 0.610809
117, 2, bw, attraction, a-b-da, 9, 3, 2, 11, 186, 114, 195, 120, 120, 195, 3, 3.33584
117, 2, bw, attraction, a-b-da, 9, 3, 2, 11, 186, 114, 195, 120, 120, 195, 1, 0.448765
117, 2, bw, catch, NA, 999, 999, 2, 12, 126, 69, 127, 128, 141, 174, 3, 0.612507
117, 2, bw, catch, NA, 999, 999, 2, 12, 126, 69, 127, 128, 141, 174, 1, 0.411056
117, 2, bw, attraction, a-b-da, 14, 1, 2, 13, 125, 56, 135, 60, 60, 135, 1, 0.888118
117, 2, bw, attraction, a-b-da, 14, 1, 2, 13, 125, 56, 135, 60, 60, 135, 2, 0.667271
117, 2, bw, attraction, a-b-db, 14, 3, 2, 14, 195, 120, 111, 181, 120, 195, 1, 0.686212
117, 2, bw, attraction, a-b-db, 14, 3, 2, 14, 195, 120, 111, 181, 120, 195, 3, 0.578116
117, 2, bw, filler, NA, 999, 999, 2, 15, 164, 172, 107, 136, 116, 67, 1, 0.504367
117, 2, bw, filler, NA, 999, 999, 2, 15, 164, 172, 107, 136, 116, 67, 3, 0.418893
117, 2, bw, attraction, a-b-da, 5, 3, 2, 16, 195, 120, 190, 117, 120, 195, 1, 0.952038
117, 2, bw, attraction, a-b-da, 5, 3, 2, 16, 195, 120, 190, 117, 120, 195, 2, 0.313036
117, 2, bw, filler, NA, 999, 999, 2, 17, 155, 56, 177, 90, 146, 91, 2, 0.714225
117, 2, bw, filler, NA, 999, 999, 2, 17, 155, 56, 177, 90, 146, 91, 1, 0.604679
117, 2, bw, attraction, a-b-da, 2, 3, 2, 18, 120, 195, 195, 120, 193, 119, 1, 1.5144
117, 2, bw, attraction, a-b-da, 2, 3, 2, 18, 120, 195, 195, 120, 193, 119, 2, 0.580511
117, 2, bw, attraction, a-b-db, 2, 1, 2, 19, 60, 135, 59, 134, 135, 60, 2, 1.29905
117, 2, bw, attraction, a-b-db, 2, 1, 2, 19, 60, 135, 59, 134, 135, 60, 3, 0.365888
117, 2, bw, attraction, a-b-db, 14, 1, 2, 20, 135, 60, 56, 125, 60, 135, 1, 0.652993
117, 2, bw, attraction, a-b-db, 14, 1, 2, 20, 135, 60, 56, 125, 60, 135, 2, 0.378123
117, 2, bw, attraction, a-b-db, 9, 1, 2, 21, 60, 135, 57, 129, 135, 60, 1, 0.680594
117, 2, bw, attraction, a-b-db, 9, 1, 2, 21, 60, 135, 57, 129, 135, 60, 2, 0.860376
117, 2, bw, attraction, a-b-da, 2, 2, 2, 22, 163, 89, 90, 165, 165, 90, 1, 0.599385
117, 2, bw, attraction, a-b-da, 2, 2, 2, 22, 163, 89, 90, 165, 165, 90, 2, 1.50252
117, 2, bw, filler, NA, 999, 999, 2, 23, 96, 170, 141, 192, 175, 178, 3, 0.768069
117, 2, bw, filler, NA, 999, 999, 2, 23, 96, 170, 141, 192, 175, 178, 1, 0.640426
117, 2, bw, attraction, a-b-da, 14, 3, 2, 24, 181, 111, 120, 195, 195, 120, 2, 1.06807
117, 2, bw, attraction, a-b-da, 14, 3, 2, 24, 181, 111, 120, 195, 195, 120, 1, 0.600454
117, 2, bw, filler, NA, 999, 999, 2, 25, 134, 93, 138, 159, 76, 168, 2, 0.558088
117, 2, bw, filler, NA, 999, 999, 2, 25, 134, 93, 138, 159, 76, 168, 3, 1.42263
117, 2, bw, attraction, a-b-db, 9, 2, 2, 26, 86, 157, 165, 90, 90, 165, 1, 1.30753
117, 2, bw, attraction, a-b-db, 9, 2, 2, 26, 86, 157, 165, 90, 90, 165, 2, 0.333626
117, 2, bw, attraction, a-b-da, 9, 1, 2, 27, 135, 60, 60, 135, 129, 57, 2, 1.82235
117, 2, bw, attraction, a-b-da, 9, 1, 2, 27, 135, 60, 60, 135, 129, 57, 3, 0.603561
117, 2, bw, attraction, a-b-db, 2, 2, 2, 28, 89, 163, 165, 90, 90, 165, 3, 3.45745
117, 2, bw, attraction, a-b-db, 2, 2, 2, 28, 89, 163, 165, 90, 90, 165, 2, 0.420937
117, 2, bw, attraction, a-b-db, 5, 1, 2, 29, 135, 60, 60, 135, 58, 132, 2, 1.41805
117, 2, bw, attraction, a-b-db, 5, 1, 2, 29, 135, 60, 60, 135, 58, 132, 3, 0.408227
117, 2, bw, attraction, a-b-da, 2, 1, 2, 30, 134, 59, 135, 60, 60, 135, 3, 3.01349
117, 2, bw, attraction, a-b-da, 2, 1, 2, 30, 134, 59, 135, 60, 60, 135, 2, 0.523139
117, 2, bw, attraction, a-b-db, 2, 3, 2, 31, 120, 195, 119, 193, 195, 120, 2, 2.05157
117, 2, bw, attraction, a-b-db, 2, 3, 2, 31, 120, 195, 119, 193, 195, 120, 3, 0.824212
117, 2, bw, attraction, a-b-da, 5, 2, 2, 32, 161, 88, 165, 90, 90, 165, 3, 2.78863
117, 2, bw, attraction, a-b-da, 5, 2, 2, 32, 161, 88, 165, 90, 90, 165, 2, 0.64303
117, 2, bw, filler, NA, 999, 999, 2, 33, 194, 112, 119, 152, 150, 155, 3, 1.19075
117, 2, bw, filler, NA, 999, 999, 2, 33, 194, 112, 119, 152, 150, 155, 2, 0.557739
117, 2, bw, attraction, a-b-db, 5, 2, 2, 34, 90, 165, 165, 90, 88, 161, 1, 4.82875
117, 2, bw, attraction, a-b-db, 5, 2, 2, 34, 90, 165, 165, 90, 88, 161, 2, 0.513216
117, 2, bw, attraction, a-b-da, 9, 2, 2, 35, 90, 165, 165, 90, 157, 86, 1, 1.13839
117, 2, bw, attraction, a-b-da, 9, 2, 2, 35, 90, 165, 165, 90, 157, 86, 2, 0.739252
117, 2, bw, filler, NA, 999, 999, 2, 36, 151, 171, 102, 84, 106, 87, 1, 0.619051
117, 2, bw, filler, NA, 999, 999, 2, 36, 151, 171, 102, 84, 106, 87, 2, 1.68144
117, 2, bw, attraction, a-b-da, 14, 2, 2, 37, 165, 90, 153, 83, 90, 165, 3, 1.79548
117, 2, bw, attraction, a-b-da, 14, 2, 2, 37, 165, 90, 153, 83, 90, 165, 2, 0.490251
117, 2, bw, filler, NA, 999, 999, 3, 1, 89, 163, 78, 70, 165, 173, 3, 0.532039
117, 2, bw, filler, NA, 999, 999, 3, 1, 89, 163, 78, 70, 165, 173, 2, 0.725795
117, 2, bw, attraction, a-b-db, 9, 2, 3, 2, 90, 165, 86, 157, 165, 90, 1, 0.974215
117, 2, bw, attraction, a-b-db, 9, 2, 3, 2, 90, 165, 86, 157, 165, 90, 3, 0.52597
117, 2, bw, attraction, a-b-db, 5, 3, 3, 3, 117, 190, 195, 120, 120, 195, 3, 2.71033
117, 2, bw, attraction, a-b-db, 5, 3, 3, 3, 117, 190, 195, 120, 120, 195, 2, 0.440116
117, 2, bw, filler, NA, 999, 999, 3, 4, 89, 80, 172, 123, 158, 151, 3, 0.635909
117, 2, bw, filler, NA, 999, 999, 3, 4, 89, 80, 172, 123, 158, 151, 1, 0.521867
117, 2, bw, attraction, a-b-db, 2, 3, 3, 5, 120, 195, 119, 193, 195, 120, 1, 1.94689
117, 2, bw, attraction, a-b-db, 2, 3, 3, 5, 120, 195, 119, 193, 195, 120, 2, 1.00353
117, 2, bw, catch, NA, 999, 999, 3, 6, 106, 149, 93, 102, 151, 164, 3, 0.673203
117, 2, bw, catch, NA, 999, 999, 3, 6, 106, 149, 93, 102, 151, 164, 2, 0.412936
117, 2, bw, attraction, a-b-da, 14, 3, 3, 7, 181, 111, 120, 195, 195, 120, 2, 1.20205
117, 2, bw, attraction, a-b-da, 14, 3, 3, 7, 181, 111, 120, 195, 195, 120, 1, 0.665069
117, 2, bw, filler, NA, 999, 999, 3, 8, 158, 113, 83, 57, 110, 117, 1, 0.812046
117, 2, bw, filler, NA, 999, 999, 3, 8, 158, 113, 83, 57, 110, 117, 2, 0.602389
117, 2, bw, catch, NA, 999, 999, 3, 9, 72, 123, 135, 120, 183, 132, 3, 2.00028
117, 2, bw, catch, NA, 999, 999, 3, 9, 72, 123, 135, 120, 183, 132, 1, 0.518842
117, 2, bw, attraction, a-b-da, 5, 3, 3, 10, 190, 117, 120, 195, 195, 120, 2, 1.94402
117, 2, bw, attraction, a-b-da, 5, 3, 3, 10, 190, 117, 120, 195, 195, 120, 3, 0.384676
117, 2, bw, attraction, a-b-db, 14, 1, 3, 11, 60, 135, 56, 125, 135, 60, 1, 1.28712
117, 2, bw, attraction, a-b-db, 14, 1, 3, 11, 60, 135, 56, 125, 135, 60, 2, 1.21071
117, 2, bw, attraction, a-b-db, 14, 2, 3, 12, 90, 165, 83, 153, 165, 90, 1, 1.88764
117, 2, bw, attraction, a-b-db, 14, 2, 3, 12, 90, 165, 83, 153, 165, 90, 2, 0.482316
117, 2, bw, attraction, a-b-da, 2, 1, 3, 13, 135, 60, 60, 135, 134, 59, 1, 2.62881
117, 2, bw, attraction, a-b-da, 2, 1, 3, 13, 135, 60, 60, 135, 134, 59, 2, 0.417932
117, 2, bw, attraction, a-b-da, 9, 2, 3, 14, 90, 165, 165, 90, 157, 86, 1, 1.42308
117, 2, bw, attraction, a-b-da, 9, 2, 3, 14, 90, 165, 165, 90, 157, 86, 3, 0.476695
117, 2, bw, filler, NA, 999, 999, 3, 15, 163, 130, 127, 78, 77, 147, 1, 1.11112
117, 2, bw, filler, NA, 999, 999, 3, 15, 163, 130, 127, 78, 77, 147, 3, 0.497428
117, 2, bw, filler, NA, 999, 999, 3, 16, 77, 161, 186, 126, 143, 121, 2, 1.29119
117, 2, bw, filler, NA, 999, 999, 3, 16, 77, 161, 186, 126, 143, 121, 1, 0.406076
117, 2, bw, attraction, a-b-db, 2, 1, 3, 17, 60, 135, 135, 60, 59, 134, 1, 1.24388
117, 2, bw, attraction, a-b-db, 2, 1, 3, 17, 60, 135, 135, 60, 59, 134, 2, 0.352802
117, 2, bw, attraction, a-b-da, 9, 1, 3, 18, 129, 57, 135, 60, 60, 135, 3, 7.60069
117, 2, bw, attraction, a-b-da, 9, 1, 3, 18, 129, 57, 135, 60, 60, 135, 2, 0.549665
117, 2, bw, attraction, a-b-db, 9, 1, 3, 19, 60, 135, 135, 60, 57, 129, 1, 2.39729
117, 2, bw, attraction, a-b-db, 9, 1, 3, 19, 60, 135, 135, 60, 57, 129, 3, 0.452001
117, 2, bw, attraction, a-b-da, 2, 2, 3, 20, 90, 165, 165, 90, 163, 89, 3, 1.53571
117, 2, bw, attraction, a-b-da, 2, 2, 3, 20, 90, 165, 165, 90, 163, 89, 2, 0.561152
117, 2, bw, catch, NA, 999, 999, 3, 21, 162, 153, 94, 101, 135, 120, 1, 0.576327
117, 2, bw, catch, NA, 999, 999, 3, 21, 162, 153, 94, 101, 135, 120, 2, 0.352238
117, 2, bw, attraction, a-b-db, 2, 2, 3, 22, 165, 90, 90, 165, 89, 163, 2, 1.33589
117, 2, bw, attraction, a-b-db, 2, 2, 3, 22, 165, 90, 90, 165, 89, 163, 1, 0.441524
117, 2, bw, attraction, a-b-db, 5, 2, 3, 23, 165, 90, 88, 161, 90, 165, 2, 2.54939
117, 2, bw, attraction, a-b-db, 5, 2, 3, 23, 165, 90, 88, 161, 90, 165, 1, 0.421851
117, 2, bw, attraction, a-b-db, 14, 3, 3, 24, 195, 120, 111, 181, 120, 195, 1, 0.619074
117, 2, bw, attraction, a-b-db, 14, 3, 3, 24, 195, 120, 111, 181, 120, 195, 2, 0.457355
117, 2, bw, filler, NA, 999, 999, 3, 25, 144, 103, 133, 74, 73, 93, 1, 0.644544
117, 2, bw, filler, NA, 999, 999, 3, 25, 144, 103, 133, 74, 73, 93, 3, 0.417641
117, 2, bw, attraction, a-b-da, 9, 3, 3, 26, 120, 195, 186, 114, 195, 120, 1, 2.17514
117, 2, bw, attraction, a-b-da, 9, 3, 3, 26, 120, 195, 186, 114, 195, 120, 2, 0.374005
117, 2, bw, attraction, a-b-da, 14, 1, 3, 27, 60, 135, 135, 60, 125, 56, 1, 1.02065
117, 2, bw, attraction, a-b-da, 14, 1, 3, 27, 60, 135, 135, 60, 125, 56, 3, 0.426183
117, 2, bw, filler, NA, 999, 999, 3, 28, 74, 141, 153, 183, 191, 117, 2, 0.814715
117, 2, bw, filler, NA, 999, 999, 3, 28, 74, 141, 153, 183, 191, 117, 1, 0.389115
117, 2, bw, attraction, a-b-db, 9, 3, 3, 29, 195, 120, 120, 195, 114, 186, 2, 1.07568
117, 2, bw, attraction, a-b-db, 9, 3, 3, 29, 195, 120, 120, 195, 114, 186, 3, 0.903321
117, 2, bw, filler, NA, 999, 999, 3, 30, 195, 83, 97, 134, 160, 175, 3, 0.992979
117, 2, bw, filler, NA, 999, 999, 3, 30, 195, 83, 97, 134, 160, 175, 2, 0.431829
117, 2, bw, attraction, a-b-da, 14, 2, 3, 31, 165, 90, 90, 165, 153, 83, 2, 4.98035
117, 2, bw, attraction, a-b-da, 14, 2, 3, 31, 165, 90, 90, 165, 153, 83, 3, 0.898911
117, 2, bw, attraction, a-b-da, 5, 2, 3, 32, 90, 165, 161, 88, 165, 90, 1, 1.51258
117, 2, bw, attraction, a-b-da, 5, 2, 3, 32, 90, 165, 161, 88, 165, 90, 2, 0.502749
117, 2, bw, attraction, a-b-da, 2, 3, 3, 33, 195, 120, 120, 195, 193, 119, 2, 0.584438
117, 2, bw, attraction, a-b-da, 2, 3, 3, 33, 195, 120, 120, 195, 193, 119, 3, 0.440126
117, 2, bw, filler, NA, 999, 999, 3, 34, 172, 113, 74, 181, 187, 171, 3, 0.739947
117, 2, bw, filler, NA, 999, 999, 3, 34, 172, 113, 74, 181, 187, 171, 2, 0.669102
117, 2, bw, filler, NA, 999, 999, 3, 35, 63, 124, 177, 126, 73, 70, 2, 0.536094
117, 2, bw, filler, NA, 999, 999, 3, 35, 63, 124, 177, 126, 73, 70, 3, 0.433882
117, 2, bw, attraction, a-b-db, 5, 1, 3, 36, 135, 60, 60, 135, 58, 132, 1, 2.58237
117, 2, bw, attraction, a-b-db, 5, 1, 3, 36, 135, 60, 60, 135, 58, 132, 3, 2.95762
117, 2, bw, attraction, a-b-da, 5, 1, 3, 37, 132, 58, 60, 135, 135, 60, 2, 1.17995
117, 2, bw, attraction, a-b-da, 5, 1, 3, 37, 132, 58, 60, 135, 135, 60, 1, 0.747683
117, 2, bw, attraction, a-b-da, 9, 2, 4, 1, 165, 90, 90, 165, 157, 86, 2, 1.75524
117, 2, bw, attraction, a-b-da, 9, 2, 4, 1, 165, 90, 90, 165, 157, 86, 1, 1.71538
117, 2, bw, attraction, a-b-db, 5, 1, 4, 2, 60, 135, 58, 132, 135, 60, 1, 3.09997
117, 2, bw, attraction, a-b-db, 5, 1, 4, 2, 60, 135, 58, 132, 135, 60, 2, 0.790367
117, 2, bw, attraction, a-b-db, 2, 2, 4, 3, 90, 165, 165, 90, 89, 163, 1, 1.17228
117, 2, bw, attraction, a-b-db, 2, 2, 4, 3, 90, 165, 165, 90, 89, 163, 3, 0.411635
117, 2, bw, filler, NA, 999, 999, 4, 4, 127, 174, 68, 141, 136, 86, 1, 0.688858
117, 2, bw, filler, NA, 999, 999, 4, 4, 127, 174, 68, 141, 136, 86, 2, 0.547934
117, 2, bw, filler, NA, 999, 999, 4, 5, 116, 73, 91, 56, 177, 95, 3, 0.667745
117, 2, bw, filler, NA, 999, 999, 4, 5, 116, 73, 91, 56, 177, 95, 2, 0.616181
117, 2, bw, attraction, a-b-db, 9, 1, 4, 6, 135, 60, 57, 129, 60, 135, 1, 10.2852
117, 2, bw, attraction, a-b-db, 9, 1, 4, 6, 135, 60, 57, 129, 60, 135, 2, 0.485942
117, 2, bw, attraction, a-b-da, 14, 1, 4, 7, 125, 56, 60, 135, 135, 60, 2, 4.45657
117, 2, bw, attraction, a-b-da, 14, 1, 4, 7, 125, 56, 60, 135, 135, 60, 1, 0.459688
117, 2, bw, attraction, a-b-da, 2, 2, 4, 8, 163, 89, 165, 90, 90, 165, 3, 1.57481
117, 2, bw, attraction, a-b-da, 2, 2, 4, 8, 163, 89, 165, 90, 90, 165, 2, 0.342422
117, 2, bw, catch, NA, 999, 999, 4, 9, 105, 90, 135, 120, 152, 163, 3, 0.590078
117, 2, bw, catch, NA, 999, 999, 4, 9, 105, 90, 135, 120, 152, 163, 1, 0.653213
117, 2, bw, filler, NA, 999, 999, 4, 10, 98, 171, 178, 191, 143, 179, 2, 1.07295
117, 2, bw, filler, NA, 999, 999, 4, 10, 98, 171, 178, 191, 143, 179, 1, 0.556628
117, 2, bw, attraction, a-b-db, 9, 3, 4, 11, 195, 120, 114, 186, 120, 195, 1, 1.52368
117, 2, bw, attraction, a-b-db, 9, 3, 4, 11, 195, 120, 114, 186, 120, 195, 2, 0.341171
117, 2, bw, attraction, a-b-db, 5, 2, 4, 12, 165, 90, 88, 161, 90, 165, 2, 1.68507
117, 2, bw, attraction, a-b-db, 5, 2, 4, 12, 165, 90, 88, 161, 90, 165, 1, 0.53645
117, 2, bw, catch, NA, 999, 999, 4, 13, 111, 84, 131, 124, 139, 176, 3, 0.720977
117, 2, bw, catch, NA, 999, 999, 4, 13, 111, 84, 131, 124, 139, 176, 1, 0.506601
117, 2, bw, attraction, a-b-da, 5, 3, 4, 14, 190, 117, 120, 195, 195, 120, 2, 2.05984
117, 2, bw, attraction, a-b-da, 5, 3, 4, 14, 190, 117, 120, 195, 195, 120, 1, 1.7438
117, 2, bw, attraction, a-b-db, 14, 2, 4, 15, 90, 165, 83, 153, 165, 90, 1, 1.02309
117, 2, bw, attraction, a-b-db, 14, 2, 4, 15, 90, 165, 83, 153, 165, 90, 3, 0.668825
117, 2, bw, attraction, a-b-da, 5, 1, 4, 16, 60, 135, 135, 60, 132, 58, 1, 1.79986
117, 2, bw, attraction, a-b-da, 5, 1, 4, 16, 60, 135, 135, 60, 132, 58, 2, 0.358692
117, 2, bw, filler, NA, 999, 999, 4, 17, 147, 191, 61, 106, 72, 174, 1, 0.621747
117, 2, bw, filler, NA, 999, 999, 4, 17, 147, 191, 61, 106, 72, 174, 2, 0.41962
117, 2, bw, filler, NA, 999, 999, 4, 18, 74, 151, 105, 183, 84, 102, 2, 0.480638
117, 2, bw, filler, NA, 999, 999, 4, 18, 74, 151, 105, 183, 84, 102, 3, 0.572481
117, 2, bw, attraction, a-b-da, 5, 2, 4, 19, 161, 88, 165, 90, 90, 165, 3, 0.803604
117, 2, bw, attraction, a-b-da, 5, 2, 4, 19, 161, 88, 165, 90, 90, 165, 1, 0.698705
117, 2, bw, attraction, a-b-db, 5, 3, 4, 20, 195, 120, 120, 195, 117, 190, 1, 2.06033
117, 2, bw, attraction, a-b-db, 5, 3, 4, 20, 195, 120, 120, 195, 117, 190, 2, 0.320469
117, 2, bw, filler, NA, 999, 999, 4, 21, 158, 56, 178, 139, 186, 195, 3, 0.729605
117, 2, bw, filler, NA, 999, 999, 4, 21, 158, 56, 178, 139, 186, 195, 1, 0.443502
117, 2, bw, attraction, a-b-da, 9, 3, 4, 22, 186, 114, 120, 195, 195, 120, 2, 3.31115
117, 2, bw, attraction, a-b-da, 9, 3, 4, 22, 186, 114, 120, 195, 195, 120, 3, 0.752769
117, 2, bw, attraction, a-b-db, 9, 2, 4, 23, 90, 165, 165, 90, 86, 157, 2, 2.88049
117, 2, bw, attraction, a-b-db, 9, 2, 4, 23, 90, 165, 165, 90, 86, 157, 3, 0.643692
117, 2, bw, attraction, a-b-da, 2, 3, 4, 24, 120, 195, 195, 120, 193, 119, 1, 2.39929
117, 2, bw, attraction, a-b-da, 2, 3, 4, 24, 120, 195, 195, 120, 193, 119, 2, 0.349832
117, 2, bw, attraction, a-b-da, 14, 3, 4, 25, 181, 111, 120, 195, 195, 120, 2, 1.25378
117, 2, bw, attraction, a-b-da, 14, 3, 4, 25, 181, 111, 120, 195, 195, 120, 1, 0.354533
117, 2, bw, attraction, a-b-db, 2, 3, 4, 26, 119, 193, 195, 120, 120, 195, 3, 0.762557
117, 2, bw, attraction, a-b-db, 2, 3, 4, 26, 119, 193, 195, 120, 120, 195, 2, 0.32278
117, 2, bw, attraction, a-b-db, 14, 1, 4, 27, 60, 135, 135, 60, 56, 125, 2, 0.523381
117, 2, bw, attraction, a-b-db, 14, 1, 4, 27, 60, 135, 135, 60, 56, 125, 1, 0.501085
117, 2, bw, attraction, a-b-db, 14, 3, 4, 28, 195, 120, 111, 181, 120, 195, 1, 0.782926
117, 2, bw, attraction, a-b-db, 14, 3, 4, 28, 195, 120, 111, 181, 120, 195, 2, 0.326566
117, 2, bw, attraction, a-b-da, 9, 1, 4, 29, 129, 57, 135, 60, 60, 135, 1, 0.607099
117, 2, bw, attraction, a-b-da, 9, 1, 4, 29, 129, 57, 135, 60, 60, 135, 3, 0.837578
117, 2, bw, attraction, a-b-da, 2, 1, 4, 30, 60, 135, 134, 59, 135, 60, 2, 0.92989
117, 2, bw, attraction, a-b-da, 2, 1, 4, 30, 60, 135, 134, 59, 135, 60, 3, 0.419623
117, 2, bw, filler, NA, 999, 999, 4, 31, 124, 114, 112, 188, 172, 141, 3, 0.688778
117, 2, bw, filler, NA, 999, 999, 4, 31, 124, 114, 112, 188, 172, 141, 1, 0.42785
117, 2, bw, filler, NA, 999, 999, 4, 32, 165, 62, 193, 162, 163, 174, 2, 0.432375
117, 2, bw, filler, NA, 999, 999, 4, 32, 165, 62, 193, 162, 163, 174, 1, 0.526196
117, 2, bw, filler, NA, 999, 999, 4, 33, 158, 117, 111, 129, 58, 178, 1, 0.758629
117, 2, bw, filler, NA, 999, 999, 4, 33, 158, 117, 111, 129, 58, 178, 2, 0.495052
117, 2, bw, filler, NA, 999, 999, 4, 34, 184, 71, 107, 74, 191, 154, 3, 0.544798
117, 2, bw, filler, NA, 999, 999, 4, 34, 184, 71, 107, 74, 191, 154, 2, 0.673954
117, 2, bw, attraction, a-b-da, 14, 2, 4, 35, 153, 83, 165, 90, 90, 165, 3, 0.948369
117, 2, bw, attraction, a-b-da, 14, 2, 4, 35, 153, 83, 165, 90, 90, 165, 1, 0.885291
117, 2, bw, attraction, a-b-db, 2, 1, 4, 36, 60, 135, 135, 60, 59, 134, 3, 0.767785
117, 2, bw, attraction, a-b-db, 2, 1, 4, 36, 60, 135, 135, 60, 59, 134, 2, 0.29605
117, 2, bw, catch, NA, 999, 999, 4, 37, 125, 70, 149, 106, 187, 128, 3, 0.481892
117, 2, bw, catch, NA, 999, 999, 4, 37, 125, 70, 149, 106, 187, 128, 1, 0.517869
117, 2, bw, filler, NA, 999, 999, 5, 1, 151, 64, 99, 161, 92, 63, 2, 18.0855
117, 2, bw, filler, NA, 999, 999, 5, 1, 151, 64, 99, 161, 92, 63, 3, 0.915757
117, 2, bw, attraction, a-b-da, 2, 3, 5, 2, 195, 120, 120, 195, 193, 119, 2, 3.52486
117, 2, bw, attraction, a-b-da, 2, 3, 5, 2, 195, 120, 120, 195, 193, 119, 3, 0.509684
117, 2, bw, filler, NA, 999, 999, 5, 3, 107, 57, 75, 186, 154, 88, 3, 1.51084
117, 2, bw, filler, NA, 999, 999, 5, 3, 107, 57, 75, 186, 154, 88, 1, 0.761085
117, 2, bw, filler, NA, 999, 999, 5, 4, 154, 102, 152, 64, 132, 70, 1, 0.704121
117, 2, bw, filler, NA, 999, 999, 5, 4, 154, 102, 152, 64, 132, 70, 3, 0.61842
117, 2, bw, attraction, a-b-da, 2, 1, 5, 5, 135, 60, 60, 135, 134, 59, 1, 2.96747
117, 2, bw, attraction, a-b-da, 2, 1, 5, 5, 135, 60, 60, 135, 134, 59, 3, 0.975145
117, 2, bw, catch, NA, 999, 999, 5, 6, 169, 146, 65, 130, 125, 130, 1, 0.58154
117, 2, bw, catch, NA, 999, 999, 5, 6, 169, 146, 65, 130, 125, 130, 2, 0.637353
117, 2, bw, attraction, a-b-db, 14, 2, 5, 7, 83, 153, 165, 90, 90, 165, 3, 1.15366
117, 2, bw, attraction, a-b-db, 14, 2, 5, 7, 83, 153, 165, 90, 90, 165, 1, 0.498765
117, 2, bw, attraction, a-b-db, 14, 3, 5, 8, 195, 120, 111, 181, 120, 195, 1, 1.89245
117, 2, bw, attraction, a-b-db, 14, 3, 5, 8, 195, 120, 111, 181, 120, 195, 2, 0.663214
117, 2, bw, filler, NA, 999, 999, 5, 9, 124, 62, 156, 62, 148, 156, 3, 0.642157
117, 2, bw, filler, NA, 999, 999, 5, 9, 124, 62, 156, 62, 148, 156, 1, 0.751354
117, 2, bw, filler, NA, 999, 999, 5, 10, 94, 77, 72, 169, 118, 89, 3, 1.51108
117, 2, bw, filler, NA, 999, 999, 5, 10, 94, 77, 72, 169, 118, 89, 1, 0.609181
117, 2, bw, attraction, a-b-db, 14, 1, 5, 11, 135, 60, 56, 125, 60, 135, 1, 1.07832
117, 2, bw, attraction, a-b-db, 14, 1, 5, 11, 135, 60, 56, 125, 60, 135, 2, 0.51399
117, 2, bw, filler, NA, 999, 999, 5, 12, 150, 82, 69, 118, 155, 187, 3, 0.667017
117, 2, bw, filler, NA, 999, 999, 5, 12, 150, 82, 69, 118, 155, 187, 2, 0.695445
117, 2, bw, filler, NA, 999, 999, 5, 13, 63, 144, 111, 191, 129, 151, 2, 0.753221
117, 2, bw, filler, NA, 999, 999, 5, 13, 63, 144, 111, 191, 129, 151, 1, 0.61832
117, 2, bw, attraction, a-b-da, 5, 3, 5, 14, 120, 195, 190, 117, 195, 120, 1, 0.815349
117, 2, bw, attraction, a-b-da, 5, 3, 5, 14, 120, 195, 190, 117, 195, 120, 2, 0.717808
117, 2, bw, attraction, a-b-da, 2, 2, 5, 15, 163, 89, 90, 165, 165, 90, 1, 0.742978
117, 2, bw, attraction, a-b-da, 2, 2, 5, 15, 163, 89, 90, 165, 165, 90, 2, 2.06388
117, 2, bw, attraction, a-b-db, 9, 2, 5, 16, 90, 165, 165, 90, 86, 157, 1, 1.05061
117, 2, bw, attraction, a-b-db, 9, 2, 5, 16, 90, 165, 165, 90, 86, 157, 3, 0.615548
117, 2, bw, attraction, a-b-db, 2, 1, 5, 17, 60, 135, 135, 60, 59, 134, 1, 6.35666
117, 2, bw, attraction, a-b-db, 2, 1, 5, 17, 60, 135, 135, 60, 59, 134, 2, 0.371206
117, 2, bw, attraction, a-b-db, 2, 2, 5, 18, 90, 165, 165, 90, 89, 163, 1, 1.37049
117, 2, bw, attraction, a-b-db, 2, 2, 5, 18, 90, 165, 165, 90, 89, 163, 2, 0.314679
117, 2, bw, attraction, a-b-db, 5, 2, 5, 19, 88, 161, 90, 165, 165, 90, 2, 0.995689
117, 2, bw, attraction, a-b-db, 5, 2, 5, 19, 88, 161, 90, 165, 165, 90, 3, 0.578852
117, 2, bw, attraction, a-b-db, 9, 1, 5, 20, 135, 60, 60, 135, 57, 129, 1, 1.19321
117, 2, bw, attraction, a-b-db, 9, 1, 5, 20, 135, 60, 60, 135, 57, 129, 2, 0.336143
117, 2, bw, catch, NA, 999, 999, 5, 21, 132, 123, 60, 135, 135, 180, 3, 0.584648
117, 2, bw, catch, NA, 999, 999, 5, 21, 132, 123, 60, 135, 135, 180, 2, 0.424364
117, 2, bw, filler, NA, 999, 999, 5, 22, 150, 135, 115, 149, 148, 119, 1, 0.884858
117, 2, bw, filler, NA, 999, 999, 5, 22, 150, 135, 115, 149, 148, 119, 2, 0.400548
117, 2, bw, attraction, a-b-da, 14, 2, 5, 23, 165, 90, 153, 83, 90, 165, 1, 0.718311
117, 2, bw, attraction, a-b-da, 14, 2, 5, 23, 165, 90, 153, 83, 90, 165, 2, 0.808779
117, 2, bw, attraction, a-b-db, 2, 3, 5, 24, 195, 120, 119, 193, 120, 195, 1, 1.23777
117, 2, bw, attraction, a-b-db, 2, 3, 5, 24, 195, 120, 119, 193, 120, 195, 3, 0.362751
117, 2, bw, attraction, a-b-da, 5, 1, 5, 25, 135, 60, 60, 135, 132, 58, 2, 0.881959
117, 2, bw, attraction, a-b-da, 5, 1, 5, 25, 135, 60, 60, 135, 132, 58, 3, 0.437601
117, 2, bw, attraction, a-b-da, 5, 2, 5, 26, 90, 165, 161, 88, 165, 90, 1, 2.14609
117, 2, bw, attraction, a-b-da, 5, 2, 5, 26, 90, 165, 161, 88, 165, 90, 2, 0.970747
117, 2, bw, attraction, a-b-da, 14, 1, 5, 27, 125, 56, 60, 135, 135, 60, 2, 1.17767
117, 2, bw, attraction, a-b-da, 14, 1, 5, 27, 125, 56, 60, 135, 135, 60, 3, 0.601284
117, 2, bw, attraction, a-b-db, 5, 3, 5, 28, 120, 195, 195, 120, 117, 190, 1, 0.935186
117, 2, bw, attraction, a-b-db, 5, 3, 5, 28, 120, 195, 195, 120, 117, 190, 2, 0.856795
117, 2, bw, attraction, a-b-db, 9, 3, 5, 29, 114, 186, 195, 120, 120, 195, 2, 1.21173
117, 2, bw, attraction, a-b-db, 9, 3, 5, 29, 114, 186, 195, 120, 120, 195, 1, 0.546097
117, 2, bw, attraction, a-b-da, 9, 1, 5, 30, 129, 57, 60, 135, 135, 60, 2, 1.7379
117, 2, bw, attraction, a-b-da, 9, 1, 5, 30, 129, 57, 60, 135, 135, 60, 1, 0.490512
117, 2, bw, attraction, a-b-da, 14, 3, 5, 31, 195, 120, 120, 195, 181, 111, 2, 4.6363
117, 2, bw, attraction, a-b-da, 14, 3, 5, 31, 195, 120, 120, 195, 181, 111, 3, 0.584937
117, 2, bw, attraction, a-b-db, 5, 1, 5, 32, 135, 60, 60, 135, 58, 132, 1, 0.631252
117, 2, bw, attraction, a-b-db, 5, 1, 5, 32, 135, 60, 60, 135, 58, 132, 3, 0.453074
117, 2, bw, filler, NA, 999, 999, 5, 33, 109, 85, 173, 190, 178, 143, 2, 0.568892
117, 2, bw, filler, NA, 999, 999, 5, 33, 109, 85, 173, 190, 178, 143, 1, 0.441308
117, 2, bw, catch, NA, 999, 999, 5, 34, 76, 119, 126, 129, 162, 153, 3, 0.661123
117, 2, bw, catch, NA, 999, 999, 5, 34, 76, 119, 126, 129, 162, 153, 1, 0.497635
117, 2, bw, attraction, a-b-da, 9, 2, 5, 35, 157, 86, 90, 165, 165, 90, 3, 2.81133
117, 2, bw, attraction, a-b-da, 9, 2, 5, 35, 157, 86, 90, 165, 165, 90, 2, 0.321059
117, 2, bw, attraction, a-b-da, 9, 3, 5, 36, 195, 120, 186, 114, 120, 195, 1, 0.674325
117, 2, bw, attraction, a-b-da, 9, 3, 5, 36, 195, 120, 186, 114, 120, 195, 3, 0.325968
117, 2, bw, filler, NA, 999, 999, 5, 37, 139, 76, 171, 65, 126, 119, 3, 0.614477
117, 2, bw, filler, NA, 999, 999, 5, 37, 139, 76, 171, 65, 126, 119, 2, 0.317006
117, 2, bw, attraction, a-b-db, 14, 1, 6, 1, 56, 125, 135, 60, 60, 135, 3, 1.44622
117, 2, bw, attraction, a-b-db, 14, 1, 6, 1, 56, 125, 135, 60, 60, 135, 1, 0.779105
117, 2, bw, filler, NA, 999, 999, 6, 2, 111, 191, 104, 185, 143, 137, 1, 2.45734
117, 2, bw, filler, NA, 999, 999, 6, 2, 111, 191, 104, 185, 143, 137, 3, 0.453187
117, 2, bw, attraction, a-b-db, 14, 2, 6, 3, 165, 90, 83, 153, 90, 165, 1, 0.897128
117, 2, bw, attraction, a-b-db, 14, 2, 6, 3, 165, 90, 83, 153, 90, 165, 2, 0.340081
117, 2, bw, attraction, a-b-da, 5, 1, 6, 4, 135, 60, 60, 135, 132, 58, 2, 1.17987
117, 2, bw, attraction, a-b-da, 5, 1, 6, 4, 135, 60, 60, 135, 132, 58, 3, 0.443507
117, 2, bw, catch, NA, 999, 999, 6, 5, 168, 147, 129, 126, 125, 70, 1, 0.567469
117, 2, bw, catch, NA, 999, 999, 6, 5, 168, 147, 129, 126, 125, 70, 3, 0.77575
117, 2, bw, filler, NA, 999, 999, 6, 6, 110, 96, 106, 189, 164, 79, 2, 0.958084
117, 2, bw, filler, NA, 999, 999, 6, 6, 110, 96, 106, 189, 164, 79, 1, 0.262539
117, 2, bw, filler, NA, 999, 999, 6, 7, 80, 79, 93, 85, 62, 185, 2, 2.06562
117, 2, bw, filler, NA, 999, 999, 6, 7, 80, 79, 93, 85, 62, 185, 1, 0.581738
117, 2, bw, attraction, a-b-db, 14, 3, 6, 8, 120, 195, 111, 181, 195, 120, 1, 2.40413
117, 2, bw, attraction, a-b-db, 14, 3, 6, 8, 120, 195, 111, 181, 195, 120, 2, 0.362804
117, 2, bw, filler, NA, 999, 999, 6, 9, 138, 176, 173, 156, 124, 104, 2, 0.569913
117, 2, bw, filler, NA, 999, 999, 6, 9, 138, 176, 173, 156, 124, 104, 3, 0.314387
117, 2, bw, attraction, a-b-db, 9, 1, 6, 10, 60, 135, 135, 60, 57, 129, 1, 0.667476
117, 2, bw, attraction, a-b-db, 9, 1, 6, 10, 60, 135, 135, 60, 57, 129, 2, 0.279865
117, 2, bw, attraction, a-b-da, 5, 2, 6, 11, 161, 88, 90, 165, 165, 90, 2, 0.490431
117, 2, bw, attraction, a-b-da, 5, 2, 6, 11, 161, 88, 90, 165, 165, 90, 3, 0.781656
117, 2, bw, catch, NA, 999, 999, 6, 12, 129, 126, 183, 132, 122, 73, 2, 0.531904
117, 2, bw, catch, NA, 999, 999, 6, 12, 129, 126, 183, 132, 122, 73, 3, 0.373702
117, 2, bw, filler, NA, 999, 999, 6, 13, 189, 190, 109, 101, 108, 69, 1, 0.460311
117, 2, bw, filler, NA, 999, 999, 6, 13, 189, 190, 109, 101, 108, 69, 2, 0.672718
117, 2, bw, filler, NA, 999, 999, 6, 14, 66, 160, 104, 87, 143, 138, 3, 0.763107
117, 2, bw, filler, NA, 999, 999, 6, 14, 66, 160, 104, 87, 143, 138, 2, 1.01955
117, 2, bw, attraction, a-b-db, 9, 2, 6, 15, 86, 157, 165, 90, 90, 165, 1, 1.0806
117, 2, bw, attraction, a-b-db, 9, 2, 6, 15, 86, 157, 165, 90, 90, 165, 3, 2.60418
117, 2, bw, attraction, a-b-db, 9, 3, 6, 16, 114, 186, 120, 195, 195, 120, 2, 0.929267
117, 2, bw, attraction, a-b-db, 9, 3, 6, 16, 114, 186, 120, 195, 195, 120, 1, 1.28287
117, 2, bw, attraction, a-b-db, 2, 3, 6, 17, 120, 195, 119, 193, 195, 120, 2, 0.701115
117, 2, bw, attraction, a-b-db, 2, 3, 6, 17, 120, 195, 119, 193, 195, 120, 1, 0.568225
117, 2, bw, attraction, a-b-da, 14, 3, 6, 18, 120, 195, 195, 120, 181, 111, 2, 0.471268
117, 2, bw, attraction, a-b-da, 14, 3, 6, 18, 120, 195, 195, 120, 181, 111, 1, 0.515107
117, 2, bw, filler, NA, 999, 999, 6, 19, 145, 164, 102, 142, 118, 129, 1, 0.500174
117, 2, bw, filler, NA, 999, 999, 6, 19, 145, 164, 102, 142, 118, 129, 2, 0.439379
117, 2, bw, attraction, a-b-da, 9, 1, 6, 20, 135, 60, 129, 57, 60, 135, 3, 0.899282
117, 2, bw, attraction, a-b-da, 9, 1, 6, 20, 135, 60, 129, 57, 60, 135, 1, 0.566167
117, 2, bw, filler, NA, 999, 999, 6, 21, 137, 99, 109, 160, 85, 181, 2, 2.03735
117, 2, bw, filler, NA, 999, 999, 6, 21, 137, 99, 109, 160, 85, 181, 1, 0.330625
117, 2, bw, attraction, a-b-db, 5, 2, 6, 22, 88, 161, 165, 90, 90, 165, 2, 0.747223
117, 2, bw, attraction, a-b-db, 5, 2, 6, 22, 88, 161, 165, 90, 90, 165, 1, 0.556235
117, 2, bw, attraction, a-b-da, 9, 3, 6, 23, 195, 120, 186, 114, 120, 195, 1, 0.803325
117, 2, bw, attraction, a-b-da, 9, 3, 6, 23, 195, 120, 186, 114, 120, 195, 2, 0.513805
117, 2, bw, attraction, a-b-da, 2, 2, 6, 24, 163, 89, 90, 165, 165, 90, 2, 0.546781
117, 2, bw, attraction, a-b-da, 2, 2, 6, 24, 163, 89, 90, 165, 165, 90, 3, 0.515962
117, 2, bw, filler, NA, 999, 999, 6, 25, 109, 122, 185, 118, 108, 132, 2, 0.661041
117, 2, bw, filler, NA, 999, 999, 6, 25, 109, 122, 185, 118, 108, 132, 1, 0.313467
117, 2, bw, attraction, a-b-da, 14, 1, 6, 26, 60, 135, 125, 56, 135, 60, 1, 0.898667
117, 2, bw, attraction, a-b-da, 14, 1, 6, 26, 60, 135, 125, 56, 135, 60, 2, 0.357734
117, 2, bw, attraction, a-b-da, 5, 3, 6, 27, 195, 120, 120, 195, 190, 117, 1, 0.636911
117, 2, bw, attraction, a-b-da, 5, 3, 6, 27, 195, 120, 120, 195, 190, 117, 2, 0.298762
117, 2, bw, attraction, a-b-db, 2, 1, 6, 28, 135, 60, 60, 135, 59, 134, 2, 0.444463
117, 2, bw, attraction, a-b-db, 2, 1, 6, 28, 135, 60, 60, 135, 59, 134, 1, 0.521729
117, 2, bw, attraction, a-b-db, 5, 1, 6, 29, 60, 135, 58, 132, 135, 60, 1, 0.666908
117, 2, bw, attraction, a-b-db, 5, 1, 6, 29, 60, 135, 58, 132, 135, 60, 3, 0.567225
117, 2, bw, attraction, a-b-da, 2, 1, 6, 30, 135, 60, 60, 135, 134, 59, 1, 0.526329
117, 2, bw, attraction, a-b-da, 2, 1, 6, 30, 135, 60, 60, 135, 134, 59, 2, 0.376091
117, 2, bw, attraction, a-b-da, 2, 3, 6, 31, 120, 195, 193, 119, 195, 120, 3, 0.598576
117, 2, bw, attraction, a-b-da, 2, 3, 6, 31, 120, 195, 193, 119, 195, 120, 1, 0.301943
117, 2, bw, attraction, a-b-db, 2, 2, 6, 32, 90, 165, 165, 90, 89, 163, 2, 0.367507
117, 2, bw, attraction, a-b-db, 2, 2, 6, 32, 90, 165, 165, 90, 89, 163, 1, 0.264069
117, 2, bw, attraction, a-b-db, 5, 3, 6, 33, 195, 120, 117, 190, 120, 195, 2, 0.435318
117, 2, bw, attraction, a-b-db, 5, 3, 6, 33, 195, 120, 117, 190, 120, 195, 1, 0.395553
117, 2, bw, attraction, a-b-da, 14, 2, 6, 34, 153, 83, 165, 90, 90, 165, 3, 0.470957
117, 2, bw, attraction, a-b-da, 14, 2, 6, 34, 153, 83, 165, 90, 90, 165, 2, 0.274869
117, 2, bw, filler, NA, 999, 999, 6, 35, 59, 65, 173, 178, 69, 96, 2, 0.989433
117, 2, bw, filler, NA, 999, 999, 6, 35, 59, 65, 173, 178, 69, 96, 1, 0.356375
117, 2, bw, attraction, a-b-da, 9, 2, 6, 36, 90, 165, 157, 86, 165, 90, 1, 0.523461
117, 2, bw, attraction, a-b-da, 9, 2, 6, 36, 90, 165, 157, 86, 165, 90, 2, 0.253366
117, 2, bw, catch, NA, 999, 999, 6, 37, 150, 165, 70, 125, 163, 92, 1, 0.577097
117, 2, bw, catch, NA, 999, 999, 6, 37, 150, 165, 70, 125, 163, 92, 2, 0.712924
117, 2, bw, catch, NA, 999, 999, 7, 1, 117, 138, 155, 160, 67, 128, 2, 0.561962
117, 2, bw, catch, NA, 999, 999, 7, 1, 117, 138, 155, 160, 67, 128, 3, 0.402467
117, 2, bw, attraction, a-b-da, 14, 3, 7, 2, 181, 111, 195, 120, 120, 195, 3, 0.752306
117, 2, bw, attraction, a-b-da, 14, 3, 7, 2, 181, 111, 195, 120, 120, 195, 1, 0.393322
117, 2, bw, filler, NA, 999, 999, 7, 3, 135, 187, 67, 77, 127, 184, 1, 0.583101
117, 2, bw, filler, NA, 999, 999, 7, 3, 135, 187, 67, 77, 127, 184, 2, 0.319067
117, 2, bw, attraction, a-b-db, 5, 1, 7, 4, 58, 132, 135, 60, 60, 135, 2, 0.496275
117, 2, bw, attraction, a-b-db, 5, 1, 7, 4, 58, 132, 135, 60, 60, 135, 1, 0.387413
117, 2, bw, filler, NA, 999, 999, 7, 5, 190, 174, 97, 86, 160, 100, 1, 0.521836
117, 2, bw, filler, NA, 999, 999, 7, 5, 190, 174, 97, 86, 160, 100, 2, 0.283571
117, 2, bw, attraction, a-b-da, 5, 3, 7, 6, 190, 117, 120, 195, 195, 120, 2, 3.65415
117, 2, bw, attraction, a-b-da, 5, 3, 7, 6, 190, 117, 120, 195, 195, 120, 3, 0.257585
117, 2, bw, filler, NA, 999, 999, 7, 7, 99, 121, 159, 132, 79, 159, 2, 0.572772
117, 2, bw, filler, NA, 999, 999, 7, 7, 99, 121, 159, 132, 79, 159, 1, 0.268558
117, 2, bw, attraction, a-b-db, 5, 3, 7, 8, 120, 195, 117, 190, 195, 120, 1, 2.48776
117, 2, bw, attraction, a-b-db, 5, 3, 7, 8, 120, 195, 117, 190, 195, 120, 3, 0.458304
117, 2, bw, attraction, a-b-db, 14, 1, 7, 9, 135, 60, 60, 135, 56, 125, 2, 1.67741
117, 2, bw, attraction, a-b-db, 14, 1, 7, 9, 135, 60, 60, 135, 56, 125, 3, 0.33695
117, 2, bw, filler, NA, 999, 999, 7, 10, 72, 160, 168, 140, 131, 159, 2, 0.545507
117, 2, bw, filler, NA, 999, 999, 7, 10, 72, 160, 168, 140, 131, 159, 1, 0.298519
117, 2, bw, attraction, a-b-db, 5, 2, 7, 11, 90, 165, 165, 90, 88, 161, 1, 3.95642
117, 2, bw, attraction, a-b-db, 5, 2, 7, 11, 90, 165, 165, 90, 88, 161, 3, 0.563784
117, 2, bw, attraction, a-b-db, 2, 1, 7, 12, 59, 134, 135, 60, 60, 135, 3, 1.17091
117, 2, bw, attraction, a-b-db, 2, 1, 7, 12, 59, 134, 135, 60, 60, 135, 1, 1.06647
117, 2, bw, attraction, a-b-da, 14, 1, 7, 13, 60, 135, 125, 56, 135, 60, 1, 1.55734
117, 2, bw, attraction, a-b-da, 14, 1, 7, 13, 60, 135, 125, 56, 135, 60, 2, 0.75757
117, 2, bw, attraction, a-b-db, 2, 2, 7, 14, 165, 90, 89, 163, 90, 165, 2, 1.98069
117, 2, bw, attraction, a-b-db, 2, 2, 7, 14, 165, 90, 89, 163, 90, 165, 1, 0.579939
117, 2, bw, attraction, a-b-db, 9, 3, 7, 15, 120, 195, 114, 186, 195, 120, 1, 2.69034
117, 2, bw, attraction, a-b-db, 9, 3, 7, 15, 120, 195, 114, 186, 195, 120, 2, 0.676817
117, 2, bw, attraction, a-b-da, 9, 2, 7, 16, 157, 86, 90, 165, 165, 90, 2, 1.7432
117, 2, bw, attraction, a-b-da, 9, 2, 7, 16, 157, 86, 90, 165, 165, 90, 1, 0.839966
117, 2, bw, attraction, a-b-db, 14, 3, 7, 17, 195, 120, 111, 181, 120, 195, 3, 1.61965
117, 2, bw, attraction, a-b-db, 14, 3, 7, 17, 195, 120, 111, 181, 120, 195, 2, 0.497925
117, 2, bw, filler, NA, 999, 999, 7, 18, 179, 178, 161, 100, 137, 60, 1, 0.547649
117, 2, bw, filler, NA, 999, 999, 7, 18, 179, 178, 161, 100, 137, 60, 3, 0.444761
117, 2, bw, filler, NA, 999, 999, 7, 19, 177, 152, 161, 174, 59, 140, 2, 0.560448
117, 2, bw, filler, NA, 999, 999, 7, 19, 177, 152, 161, 174, 59, 140, 3, 0.336965
117, 2, bw, attraction, a-b-db, 9, 2, 7, 20, 90, 165, 86, 157, 165, 90, 1, 2.69756
117, 2, bw, attraction, a-b-db, 9, 2, 7, 20, 90, 165, 86, 157, 165, 90, 2, 0.516064
117, 2, bw, attraction, a-b-db, 2, 3, 7, 21, 120, 195, 119, 193, 195, 120, 2, 1.25306
117, 2, bw, attraction, a-b-db, 2, 3, 7, 21, 120, 195, 119, 193, 195, 120, 1, 0.354022
117, 2, bw, attraction, a-b-da, 2, 2, 7, 22, 165, 90, 90, 165, 163, 89, 2, 0.537829
117, 2, bw, attraction, a-b-da, 2, 2, 7, 22, 165, 90, 90, 165, 163, 89, 1, 0.458987
117, 2, bw, attraction, a-b-da, 5, 2, 7, 23, 165, 90, 161, 88, 90, 165, 2, 1.25404
117, 2, bw, attraction, a-b-da, 5, 2, 7, 23, 165, 90, 161, 88, 90, 165, 3, 0.242316
117, 2, bw, filler, NA, 999, 999, 7, 24, 57, 141, 159, 180, 194, 138, 2, 0.622202
117, 2, bw, filler, NA, 999, 999, 7, 24, 57, 141, 159, 180, 194, 138, 1, 0.323929
117, 2, bw, attraction, a-b-db, 9, 1, 7, 25, 135, 60, 60, 135, 57, 129, 1, 0.668543
117, 2, bw, attraction, a-b-db, 9, 1, 7, 25, 135, 60, 60, 135, 57, 129, 2, 0.352927
117, 2, bw, attraction, a-b-da, 9, 1, 7, 26, 135, 60, 129, 57, 60, 135, 1, 0.640749
117, 2, bw, attraction, a-b-da, 9, 1, 7, 26, 135, 60, 129, 57, 60, 135, 3, 0.301845
117, 2, bw, attraction, a-b-db, 14, 2, 7, 27, 83, 153, 90, 165, 165, 90, 2, 0.959723
117, 2, bw, attraction, a-b-db, 14, 2, 7, 27, 83, 153, 90, 165, 165, 90, 1, 0.439988
117, 2, bw, attraction, a-b-da, 5, 1, 7, 28, 132, 58, 135, 60, 60, 135, 2, 0.515855
117, 2, bw, attraction, a-b-da, 5, 1, 7, 28, 132, 58, 135, 60, 60, 135, 1, 0.310319
117, 2, bw, attraction, a-b-da, 9, 3, 7, 29, 186, 114, 195, 120, 120, 195, 2, 0.551564
117, 2, bw, attraction, a-b-da, 9, 3, 7, 29, 186, 114, 195, 120, 120, 195, 1, 0.336728
117, 2, bw, filler, NA, 999, 999, 7, 30, 144, 129, 102, 123, 152, 195, 3, 0.681159
117, 2, bw, filler, NA, 999, 999, 7, 30, 144, 129, 102, 123, 152, 195, 2, 0.284887
117, 2, bw, attraction, a-b-da, 2, 3, 7, 31, 120, 195, 193, 119, 195, 120, 2, 0.59939
117, 2, bw, attraction, a-b-da, 2, 3, 7, 31, 120, 195, 193, 119, 195, 120, 1, 0.270536
117, 2, bw, filler, NA, 999, 999, 7, 32, 169, 194, 186, 155, 165, 150, 2, 0.457716
117, 2, bw, filler, NA, 999, 999, 7, 32, 169, 194, 186, 155, 165, 150, 1, 0.550162
117, 2, bw, filler, NA, 999, 999, 7, 33, 174, 128, 138, 145, 145, 71, 2, 0.97397
117, 2, bw, filler, NA, 999, 999, 7, 33, 174, 128, 138, 145, 145, 71, 1, 0.365768
117, 2, bw, catch, NA, 999, 999, 7, 34, 157, 158, 85, 110, 112, 143, 1, 0.788747
117, 2, bw, catch, NA, 999, 999, 7, 34, 157, 158, 85, 110, 112, 143, 2, 0.363894
117, 2, bw, attraction, a-b-da, 2, 1, 7, 35, 135, 60, 60, 135, 134, 59, 2, 1.275
117, 2, bw, attraction, a-b-da, 2, 1, 7, 35, 135, 60, 60, 135, 134, 59, 1, 0.422732
117, 2, bw, catch, NA, 999, 999, 7, 36, 138, 117, 103, 92, 124, 191, 3, 1.37905
117, 2, bw, catch, NA, 999, 999, 7, 36, 138, 117, 103, 92, 124, 191, 2, 0.338643
117, 2, bw, attraction, a-b-da, 14, 2, 7, 37, 153, 83, 90, 165, 165, 90, 2, 1.92317
117, 2, bw, attraction, a-b-da, 14, 2, 7, 37, 153, 83, 90, 165, 165, 90, 1, 0.588522
117, 2, bw, attraction, a-b-db, 9, 1, 8, 1, 60, 135, 135, 60, 57, 129, 1, 1.19496
117, 2, bw, attraction, a-b-db, 9, 1, 8, 1, 60, 135, 135, 60, 57, 129, 3, 0.521975
117, 2, bw, attraction, a-b-da, 14, 3, 8, 2, 120, 195, 181, 111, 195, 120, 3, 1.80298
117, 2, bw, attraction, a-b-da, 14, 3, 8, 2, 120, 195, 181, 111, 195, 120, 2, 2.00181
117, 2, bw, attraction, a-b-db, 5, 2, 8, 3, 165, 90, 88, 161, 90, 165, 2, 1.36712
117, 2, bw, attraction, a-b-db, 5, 2, 8, 3, 165, 90, 88, 161, 90, 165, 3, 0.455293
117, 2, bw, attraction, a-b-da, 5, 2, 8, 4, 161, 88, 90, 165, 165, 90, 2, 1.803
117, 2, bw, attraction, a-b-da, 5, 2, 8, 4, 161, 88, 90, 165, 165, 90, 1, 0.425788
117, 2, bw, filler, NA, 999, 999, 8, 5, 189, 175, 76, 172, 68, 113, 1, 0.638288
117, 2, bw, filler, NA, 999, 999, 8, 5, 189, 175, 76, 172, 68, 113, 3, 0.515406
117, 2, bw, attraction, a-b-da, 9, 3, 8, 6, 195, 120, 186, 114, 120, 195, 3, 5.76452
117, 2, bw, attraction, a-b-da, 9, 3, 8, 6, 195, 120, 186, 114, 120, 195, 2, 0.603459
117, 2, bw, attraction, a-b-da, 2, 1, 8, 7, 135, 60, 60, 135, 134, 59, 1, 1.97709
117, 2, bw, attraction, a-b-da, 2, 1, 8, 7, 135, 60, 60, 135, 134, 59, 2, 0.640381
117, 2, bw, attraction, a-b-db, 14, 2, 8, 8, 83, 153, 165, 90, 90, 165, 2, 0.956193
117, 2, bw, attraction, a-b-db, 14, 2, 8, 8, 83, 153, 165, 90, 90, 165, 1, 0.340691
117, 2, bw, filler, NA, 999, 999, 8, 9, 94, 112, 62, 194, 194, 119, 3, 0.900392
117, 2, bw, filler, NA, 999, 999, 8, 9, 94, 112, 62, 194, 194, 119, 1, 0.735346
117, 2, bw, attraction, a-b-db, 5, 3, 8, 10, 120, 195, 117, 190, 195, 120, 1, 1.39975
117, 2, bw, attraction, a-b-db, 5, 3, 8, 10, 120, 195, 117, 190, 195, 120, 2, 0.430687
117, 2, bw, catch, NA, 999, 999, 8, 11, 164, 91, 96, 99, 134, 181, 3, 0.963083
117, 2, bw, catch, NA, 999, 999, 8, 11, 164, 91, 96, 99, 134, 181, 2, 0.955606
117, 2, bw, attraction, a-b-da, 9, 2, 8, 12, 165, 90, 90, 165, 157, 86, 2, 13.6752
117, 2, bw, attraction, a-b-da, 9, 2, 8, 12, 165, 90, 90, 165, 157, 86, 3, 0.602797
117, 2, bw, attraction, a-b-da, 5, 3, 8, 13, 120, 195, 190, 117, 195, 120, 1, 0.792633
117, 2, bw, attraction, a-b-da, 5, 3, 8, 13, 120, 195, 190, 117, 195, 120, 2, 0.759689
117, 2, bw, filler, NA, 999, 999, 8, 14, 153, 88, 138, 133, 150, 185, 3, 0.750566
117, 2, bw, filler, NA, 999, 999, 8, 14, 153, 88, 138, 133, 150, 185, 1, 0.68777
117, 2, bw, attraction, a-b-da, 2, 2, 8, 15, 163, 89, 165, 90, 90, 165, 1, 1.28215
117, 2, bw, attraction, a-b-da, 2, 2, 8, 15, 163, 89, 165, 90, 90, 165, 3, 0.501741
117, 2, bw, filler, NA, 999, 999, 8, 16, 170, 90, 171, 57, 156, 147, 3, 0.983487
117, 2, bw, filler, NA, 999, 999, 8, 16, 170, 90, 171, 57, 156, 147, 2, 0.471303
117, 2, bw, attraction, a-b-db, 2, 3, 8, 17, 119, 193, 120, 195, 195, 120, 1, 1.21828
117, 2, bw, attraction, a-b-db, 2, 3, 8, 17, 119, 193, 120, 195, 195, 120, 3, 0.640494
117, 2, bw, attraction, a-b-da, 2, 3, 8, 18, 193, 119, 120, 195, 195, 120, 2, 1.33227
117, 2, bw, attraction, a-b-da, 2, 3, 8, 18, 193, 119, 120, 195, 195, 120, 3, 0.501816
117, 2, bw, attraction, a-b-da, 9, 1, 8, 19, 60, 135, 135, 60, 129, 57, 1, 1.22377
117, 2, bw, attraction, a-b-da, 9, 1, 8, 19, 60, 135, 135, 60, 129, 57, 3, 0.453342
117, 2, bw, attraction, a-b-db, 2, 1, 8, 20, 135, 60, 59, 134, 60, 135, 1, 1.96897
117, 2, bw, attraction, a-b-db, 2, 1, 8, 20, 135, 60, 59, 134, 60, 135, 2, 1.80114
117, 2, bw, attraction, a-b-da, 14, 1, 8, 21, 125, 56, 135, 60, 60, 135, 3, 1.07037
117, 2, bw, attraction, a-b-da, 14, 1, 8, 21, 125, 56, 135, 60, 60, 135, 1, 0.786633
117, 2, bw, catch, NA, 999, 999, 8, 22, 99, 96, 155, 160, 145, 110, 2, 0.953223
117, 2, bw, catch, NA, 999, 999, 8, 22, 99, 96, 155, 160, 145, 110, 1, 0.482054
117, 2, bw, attraction, a-b-db, 14, 3, 8, 23, 120, 195, 195, 120, 111, 181, 1, 1.4445
117, 2, bw, attraction, a-b-db, 14, 3, 8, 23, 120, 195, 195, 120, 111, 181, 3, 0.393446
117, 2, bw, attraction, a-b-da, 5, 1, 8, 24, 60, 135, 132, 58, 135, 60, 1, 1.93529
117, 2, bw, attraction, a-b-da, 5, 1, 8, 24, 60, 135, 132, 58, 135, 60, 2, 0.752666
117, 2, bw, attraction, a-b-db, 2, 2, 8, 25, 165, 90, 89, 163, 90, 165, 2, 1.63226
117, 2, bw, attraction, a-b-db, 2, 2, 8, 25, 165, 90, 89, 163, 90, 165, 1, 0.637723
117, 2, bw, filler, NA, 999, 999, 8, 26, 105, 163, 193, 65, 85, 66, 1, 0.746291
117, 2, bw, filler, NA, 999, 999, 8, 26, 105, 163, 193, 65, 85, 66, 3, 0.595206
117, 2, bw, attraction, a-b-da, 14, 2, 8, 27, 90, 165, 165, 90, 153, 83, 2, 0.824938
117, 2, bw, attraction, a-b-da, 14, 2, 8, 27, 90, 165, 165, 90, 153, 83, 3, 0.662734
117, 2, bw, attraction, a-b-db, 5, 1, 8, 28, 58, 132, 60, 135, 135, 60, 1, 1.28176
117, 2, bw, attraction, a-b-db, 5, 1, 8, 28, 58, 132, 60, 135, 135, 60, 3, 0.493465
117, 2, bw, filler, NA, 999, 999, 8, 29, 122, 141, 153, 84, 185, 88, 1, 0.831073
117, 2, bw, filler, NA, 999, 999, 8, 29, 122, 141, 153, 84, 185, 88, 2, 0.668843
117, 2, bw, catch, NA, 999, 999, 8, 30, 105, 150, 120, 195, 103, 92, 2, 0.543837
117, 2, bw, catch, NA, 999, 999, 8, 30, 105, 150, 120, 195, 103, 92, 3, 0.545154
117, 2, bw, attraction, a-b-db, 14, 1, 8, 31, 56, 125, 60, 135, 135, 60, 2, 1.23276
117, 2, bw, attraction, a-b-db, 14, 1, 8, 31, 56, 125, 60, 135, 135, 60, 1, 0.39844
117, 2, bw, attraction, a-b-db, 9, 3, 8, 32, 120, 195, 195, 120, 114, 186, 1, 0.804269
117, 2, bw, attraction, a-b-db, 9, 3, 8, 32, 120, 195, 195, 120, 114, 186, 2, 0.570673
117, 2, bw, filler, NA, 999, 999, 8, 33, 96, 175, 65, 67, 64, 139, 1, 0.745753
117, 2, bw, filler, NA, 999, 999, 8, 33, 96, 175, 65, 67, 64, 139, 2, 0.498896
117, 2, bw, filler, NA, 999, 999, 8, 34, 112, 103, 88, 126, 71, 189, 1, 2.56466
117, 2, bw, filler, NA, 999, 999, 8, 34, 112, 103, 88, 126, 71, 189, 2, 0.42046
117, 2, bw, filler, NA, 999, 999, 8, 35, 182, 83, 164, 107, 65, 107, 2, 0.505626
117, 2, bw, filler, NA, 999, 999, 8, 35, 182, 83, 164, 107, 65, 107, 3, 0.444143
117, 2, bw, attraction, a-b-db, 9, 2, 8, 36, 165, 90, 86, 157, 90, 165, 3, 0.839884
117, 2, bw, attraction, a-b-db, 9, 2, 8, 36, 165, 90, 86, 157, 90, 165, 2, 0.396931
117, 2, bw, filler, NA, 999, 999, 8, 37, 91, 130, 192, 105, 134, 192, 3, 0.570785
117, 2, bw, filler, NA, 999, 999, 8, 37, 91, 130, 192, 105, 134, 192, 1, 0.378493
