sub_n, computer_n, bw_cond, effect, set, distance, diag, block_n, trial_n, h1, w1, h2, w2, h3, w3, choice, rt 
166, 2, wb, practice, NA, 999, 999, 0, 1, 162, 88, 121, 72, 117, 139, 2, 4.86319
166, 2, wb, practice, NA, 999, 999, 0, 1, 162, 88, 121, 72, 117, 139, 1, 10.8172
166, 2, wb, practice, NA, 999, 999, 0, 2, 85, 131, 193, 125, 85, 167, 1, 2.75898
166, 2, wb, practice, NA, 999, 999, 0, 2, 85, 131, 193, 125, 85, 167, 2, 1.63187
166, 2, wb, practice, NA, 999, 999, 0, 3, 144, 91, 119, 129, 153, 85, 1, 3.09716
166, 2, wb, practice, NA, 999, 999, 0, 3, 144, 91, 119, 129, 153, 85, 3, 12.4513
166, 2, wb, attraction, a-b-db, 2, 1, 1, 1, 135, 60, 60, 135, 59, 134, 3, 9.55227
166, 2, wb, attraction, a-b-db, 2, 1, 1, 1, 135, 60, 60, 135, 59, 134, 2, 2.47862
166, 2, wb, filler, NA, 999, 999, 1, 2, 60, 99, 105, 106, 105, 110, 1, 1.68046
166, 2, wb, filler, NA, 999, 999, 1, 2, 60, 99, 105, 106, 105, 110, 2, 4.26784
166, 2, wb, catch, NA, 999, 999, 1, 3, 117, 138, 113, 82, 126, 189, 2, 1.97382
166, 2, wb, catch, NA, 999, 999, 1, 3, 117, 138, 113, 82, 126, 189, 3, 0.885169
166, 2, wb, filler, NA, 999, 999, 1, 4, 153, 146, 167, 184, 81, 94, 3, 1.55152
166, 2, wb, filler, NA, 999, 999, 1, 4, 153, 146, 167, 184, 81, 94, 2, 0.680259
166, 2, wb, attraction, a-b-da, 5, 3, 1, 5, 190, 117, 195, 120, 120, 195, 1, 11.4507
166, 2, wb, attraction, a-b-da, 5, 3, 1, 5, 190, 117, 195, 120, 120, 195, 2, 1.21236
166, 2, wb, attraction, a-b-da, 2, 3, 1, 6, 195, 120, 193, 119, 120, 195, 1, 15.8415
166, 2, wb, attraction, a-b-da, 2, 3, 1, 6, 195, 120, 193, 119, 120, 195, 3, 1.17836
166, 2, wb, filler, NA, 999, 999, 1, 7, 65, 95, 185, 195, 85, 184, 1, 0.896553
166, 2, wb, filler, NA, 999, 999, 1, 7, 65, 95, 185, 195, 85, 184, 2, 0.595626
166, 2, wb, attraction, a-b-db, 9, 1, 1, 8, 60, 135, 57, 129, 135, 60, 3, 10.8173
166, 2, wb, attraction, a-b-db, 9, 1, 1, 8, 60, 135, 57, 129, 135, 60, 2, 3.98855
166, 2, wb, filler, NA, 999, 999, 1, 9, 120, 183, 97, 88, 112, 182, 2, 1.72198
166, 2, wb, filler, NA, 999, 999, 1, 9, 120, 183, 97, 88, 112, 182, 1, 0.499506
166, 2, wb, filler, NA, 999, 999, 1, 10, 135, 148, 128, 88, 111, 189, 2, 3.18934
166, 2, wb, filler, NA, 999, 999, 1, 10, 135, 148, 128, 88, 111, 189, 3, 8.01958
166, 2, wb, catch, NA, 999, 999, 1, 11, 98, 97, 178, 137, 150, 105, 1, 1.17437
166, 2, wb, catch, NA, 999, 999, 1, 11, 98, 97, 178, 137, 150, 105, 2, 0.90201
166, 2, wb, attraction, a-b-db, 5, 3, 1, 12, 195, 120, 120, 195, 117, 190, 3, 4.93564
166, 2, wb, attraction, a-b-db, 5, 3, 1, 12, 195, 120, 120, 195, 117, 190, 2, 6.82401
166, 2, wb, attraction, a-b-da, 2, 2, 1, 13, 90, 165, 165, 90, 163, 89, 1, 8.1791
166, 2, wb, attraction, a-b-da, 2, 2, 1, 13, 90, 165, 165, 90, 163, 89, 3, 4.0726
166, 2, wb, filler, NA, 999, 999, 1, 14, 156, 127, 165, 104, 140, 62, 3, 1.3227
166, 2, wb, filler, NA, 999, 999, 1, 14, 156, 127, 165, 104, 140, 62, 2, 2.97213
166, 2, wb, attraction, a-b-da, 9, 1, 1, 15, 129, 57, 60, 135, 135, 60, 2, 6.89846
166, 2, wb, attraction, a-b-da, 9, 1, 1, 15, 129, 57, 60, 135, 135, 60, 3, 0.6836
166, 2, wb, attraction, a-b-da, 14, 2, 1, 16, 165, 90, 90, 165, 153, 83, 3, 15.8299
166, 2, wb, attraction, a-b-da, 14, 2, 1, 16, 165, 90, 90, 165, 153, 83, 2, 0.527194
166, 2, wb, attraction, a-b-db, 9, 2, 1, 17, 90, 165, 86, 157, 165, 90, 2, 15.8875
166, 2, wb, attraction, a-b-db, 9, 2, 1, 17, 90, 165, 86, 157, 165, 90, 1, 4.97452
166, 2, wb, attraction, a-b-db, 5, 1, 1, 18, 58, 132, 135, 60, 60, 135, 1, 1.91565
166, 2, wb, attraction, a-b-db, 5, 1, 1, 18, 58, 132, 135, 60, 60, 135, 3, 7.18158
166, 2, wb, filler, NA, 999, 999, 1, 19, 89, 59, 175, 101, 177, 73, 1, 1.28994
166, 2, wb, filler, NA, 999, 999, 1, 19, 89, 59, 175, 101, 177, 73, 2, 0.956892
166, 2, wb, attraction, a-b-da, 5, 1, 1, 20, 60, 135, 135, 60, 132, 58, 3, 2.93985
166, 2, wb, attraction, a-b-da, 5, 1, 1, 20, 60, 135, 135, 60, 132, 58, 1, 2.07617
166, 2, wb, attraction, a-b-db, 2, 2, 1, 21, 89, 163, 165, 90, 90, 165, 3, 5.42222
166, 2, wb, attraction, a-b-db, 2, 2, 1, 21, 89, 163, 165, 90, 90, 165, 1, 1.25842
166, 2, wb, filler, NA, 999, 999, 1, 22, 107, 172, 91, 165, 96, 132, 3, 1.46141
166, 2, wb, filler, NA, 999, 999, 1, 22, 107, 172, 91, 165, 96, 132, 1, 0.945488
166, 2, wb, filler, NA, 999, 999, 1, 23, 91, 154, 128, 187, 93, 118, 3, 1.12107
166, 2, wb, filler, NA, 999, 999, 1, 23, 91, 154, 128, 187, 93, 118, 2, 0.746755
166, 2, wb, attraction, a-b-db, 14, 2, 1, 24, 165, 90, 83, 153, 90, 165, 1, 3.53585
166, 2, wb, attraction, a-b-db, 14, 2, 1, 24, 165, 90, 83, 153, 90, 165, 2, 5.56337
166, 2, wb, filler, NA, 999, 999, 1, 25, 123, 85, 185, 184, 113, 139, 1, 2.12902
166, 2, wb, filler, NA, 999, 999, 1, 25, 123, 85, 185, 184, 113, 139, 2, 1.86618
166, 2, wb, attraction, a-b-da, 5, 2, 1, 26, 161, 88, 90, 165, 165, 90, 2, 9.83694
166, 2, wb, attraction, a-b-da, 5, 2, 1, 26, 161, 88, 90, 165, 165, 90, 3, 3.43986
166, 2, wb, attraction, a-b-db, 2, 3, 1, 27, 195, 120, 119, 193, 120, 195, 3, 11.3394
166, 2, wb, attraction, a-b-db, 2, 3, 1, 27, 195, 120, 119, 193, 120, 195, 2, 3.80974
166, 2, wb, attraction, a-b-da, 14, 3, 1, 28, 181, 111, 120, 195, 195, 120, 1, 5.08594
166, 2, wb, attraction, a-b-da, 14, 3, 1, 28, 181, 111, 120, 195, 195, 120, 2, 1.2322
166, 2, wb, attraction, a-b-da, 9, 3, 1, 29, 195, 120, 186, 114, 120, 195, 1, 3.34841
166, 2, wb, attraction, a-b-da, 9, 3, 1, 29, 195, 120, 186, 114, 120, 195, 3, 2.36477
166, 2, wb, attraction, a-b-da, 14, 1, 1, 30, 125, 56, 60, 135, 135, 60, 3, 8.09926
166, 2, wb, attraction, a-b-da, 14, 1, 1, 30, 125, 56, 60, 135, 135, 60, 2, 4.97206
166, 2, wb, attraction, a-b-da, 9, 2, 1, 31, 90, 165, 157, 86, 165, 90, 3, 7.98573
166, 2, wb, attraction, a-b-da, 9, 2, 1, 31, 90, 165, 157, 86, 165, 90, 1, 1.12728
166, 2, wb, attraction, a-b-db, 5, 2, 1, 32, 165, 90, 88, 161, 90, 165, 2, 6.36746
166, 2, wb, attraction, a-b-db, 5, 2, 1, 32, 165, 90, 88, 161, 90, 165, 3, 5.26213
166, 2, wb, attraction, a-b-db, 14, 1, 1, 33, 60, 135, 135, 60, 56, 125, 3, 1.67177
166, 2, wb, attraction, a-b-db, 14, 1, 1, 33, 60, 135, 135, 60, 56, 125, 2, 2.71518
166, 2, wb, catch, NA, 999, 999, 1, 34, 181, 134, 108, 87, 113, 142, 2, 1.06763
166, 2, wb, catch, NA, 999, 999, 1, 34, 181, 134, 108, 87, 113, 142, 1, 1.30401
166, 2, wb, attraction, a-b-db, 14, 3, 1, 35, 111, 181, 120, 195, 195, 120, 1, 9.56156
166, 2, wb, attraction, a-b-db, 14, 3, 1, 35, 111, 181, 120, 195, 195, 120, 2, 20.9592
166, 2, wb, attraction, a-b-db, 9, 3, 1, 36, 120, 195, 195, 120, 114, 186, 3, 2.67268
166, 2, wb, attraction, a-b-db, 9, 3, 1, 36, 120, 195, 195, 120, 114, 186, 2, 4.41963
166, 2, wb, attraction, a-b-da, 2, 1, 1, 37, 60, 135, 135, 60, 134, 59, 1, 2.42354
166, 2, wb, attraction, a-b-da, 2, 1, 1, 37, 60, 135, 135, 60, 134, 59, 2, 1.5088
166, 2, wb, attraction, a-b-da, 9, 3, 2, 1, 120, 195, 186, 114, 195, 120, 2, 6.56561
166, 2, wb, attraction, a-b-da, 9, 3, 2, 1, 120, 195, 186, 114, 195, 120, 1, 2.80414
166, 2, wb, attraction, a-b-db, 2, 2, 2, 2, 165, 90, 90, 165, 89, 163, 3, 8.64124
166, 2, wb, attraction, a-b-db, 2, 2, 2, 2, 165, 90, 90, 165, 89, 163, 1, 1.09183
166, 2, wb, attraction, a-b-da, 2, 2, 2, 3, 165, 90, 90, 165, 163, 89, 1, 13.0135
166, 2, wb, attraction, a-b-da, 2, 2, 2, 3, 165, 90, 90, 165, 163, 89, 2, 3.32016
166, 2, wb, catch, NA, 999, 999, 2, 4, 120, 135, 149, 166, 106, 89, 3, 1.86424
166, 2, wb, catch, NA, 999, 999, 2, 4, 120, 135, 149, 166, 106, 89, 2, 0.692389
166, 2, wb, attraction, a-b-da, 2, 1, 2, 5, 60, 135, 135, 60, 134, 59, 1, 3.02209
166, 2, wb, attraction, a-b-da, 2, 1, 2, 5, 60, 135, 135, 60, 134, 59, 3, 2.30721
166, 2, wb, attraction, a-b-da, 9, 1, 2, 6, 135, 60, 129, 57, 60, 135, 2, 12.4357
166, 2, wb, attraction, a-b-da, 9, 1, 2, 6, 135, 60, 129, 57, 60, 135, 3, 3.8137
166, 2, wb, attraction, a-b-db, 14, 2, 2, 7, 90, 165, 83, 153, 165, 90, 2, 4.03382
166, 2, wb, attraction, a-b-db, 14, 2, 2, 7, 90, 165, 83, 153, 165, 90, 3, 2.05455
166, 2, wb, attraction, a-b-da, 2, 3, 2, 8, 193, 119, 195, 120, 120, 195, 3, 7.70574
166, 2, wb, attraction, a-b-da, 2, 3, 2, 8, 193, 119, 195, 120, 120, 195, 2, 3.7707
166, 2, wb, attraction, a-b-db, 2, 1, 2, 9, 59, 134, 135, 60, 60, 135, 1, 1.48881
166, 2, wb, attraction, a-b-db, 2, 1, 2, 9, 59, 134, 135, 60, 60, 135, 2, 1.31565
166, 2, wb, filler, NA, 999, 999, 2, 10, 81, 177, 135, 189, 101, 110, 3, 0.772489
166, 2, wb, filler, NA, 999, 999, 2, 10, 81, 177, 135, 189, 101, 110, 2, 0.524163
166, 2, wb, filler, NA, 999, 999, 2, 11, 56, 146, 142, 187, 176, 162, 1, 0.844662
166, 2, wb, filler, NA, 999, 999, 2, 11, 56, 146, 142, 187, 176, 162, 2, 1.31388
166, 2, wb, attraction, a-b-da, 14, 1, 2, 12, 125, 56, 60, 135, 135, 60, 2, 0.842564
166, 2, wb, attraction, a-b-da, 14, 1, 2, 12, 125, 56, 60, 135, 135, 60, 1, 2.41561
166, 2, wb, attraction, a-b-da, 5, 3, 2, 13, 195, 120, 190, 117, 120, 195, 3, 4.06812
166, 2, wb, attraction, a-b-da, 5, 3, 2, 13, 195, 120, 190, 117, 120, 195, 2, 2.46347
166, 2, wb, filler, NA, 999, 999, 2, 14, 159, 73, 73, 91, 168, 81, 2, 0.593959
166, 2, wb, filler, NA, 999, 999, 2, 14, 159, 73, 73, 91, 168, 81, 3, 1.00925
166, 2, wb, filler, NA, 999, 999, 2, 15, 58, 174, 126, 93, 96, 164, 1, 0.734133
166, 2, wb, filler, NA, 999, 999, 2, 15, 58, 174, 126, 93, 96, 164, 3, 2.10394
166, 2, wb, filler, NA, 999, 999, 2, 16, 109, 87, 175, 72, 57, 76, 3, 1.03324
166, 2, wb, filler, NA, 999, 999, 2, 16, 109, 87, 175, 72, 57, 76, 2, 1.19874
166, 2, wb, attraction, a-b-db, 5, 2, 2, 17, 88, 161, 90, 165, 165, 90, 1, 1.66033
166, 2, wb, attraction, a-b-db, 5, 2, 2, 17, 88, 161, 90, 165, 165, 90, 3, 4.01645
166, 2, wb, attraction, a-b-db, 9, 1, 2, 18, 135, 60, 60, 135, 57, 129, 3, 3.25247
166, 2, wb, attraction, a-b-db, 9, 1, 2, 18, 135, 60, 60, 135, 57, 129, 1, 1.04075
166, 2, wb, filler, NA, 999, 999, 2, 19, 177, 125, 134, 135, 171, 74, 3, 4.85248
166, 2, wb, filler, NA, 999, 999, 2, 19, 177, 125, 134, 135, 171, 74, 1, 4.00815
166, 2, wb, catch, NA, 999, 999, 2, 20, 122, 73, 93, 162, 140, 175, 1, 1.56424
166, 2, wb, catch, NA, 999, 999, 2, 20, 122, 73, 93, 162, 140, 175, 3, 0.372361
166, 2, wb, attraction, a-b-db, 14, 1, 2, 21, 135, 60, 56, 125, 60, 135, 1, 7.21953
166, 2, wb, attraction, a-b-db, 14, 1, 2, 21, 135, 60, 56, 125, 60, 135, 3, 2.64807
166, 2, wb, attraction, a-b-db, 2, 3, 2, 22, 119, 193, 120, 195, 195, 120, 1, 2.93101
166, 2, wb, attraction, a-b-db, 2, 3, 2, 22, 119, 193, 120, 195, 195, 120, 3, 0.6122
166, 2, wb, catch, NA, 999, 999, 2, 23, 186, 129, 121, 74, 137, 118, 2, 0.841125
166, 2, wb, catch, NA, 999, 999, 2, 23, 186, 129, 121, 74, 137, 118, 1, 0.678137
166, 2, wb, attraction, a-b-da, 14, 2, 2, 24, 90, 165, 165, 90, 153, 83, 3, 1.88071
166, 2, wb, attraction, a-b-da, 14, 2, 2, 24, 90, 165, 165, 90, 153, 83, 2, 1.02801
166, 2, wb, filler, NA, 999, 999, 2, 25, 139, 192, 176, 121, 98, 159, 3, 0.784225
166, 2, wb, filler, NA, 999, 999, 2, 25, 139, 192, 176, 121, 98, 159, 1, 0.567993
166, 2, wb, attraction, a-b-db, 5, 3, 2, 26, 195, 120, 120, 195, 117, 190, 1, 18.1831
166, 2, wb, attraction, a-b-db, 5, 3, 2, 26, 195, 120, 120, 195, 117, 190, 3, 0.649345
166, 2, wb, attraction, a-b-da, 5, 2, 2, 27, 161, 88, 90, 165, 165, 90, 1, 1.18103
166, 2, wb, attraction, a-b-da, 5, 2, 2, 27, 161, 88, 90, 165, 165, 90, 3, 1.95666
166, 2, wb, attraction, a-b-da, 14, 3, 2, 28, 195, 120, 120, 195, 181, 111, 3, 2.96343
166, 2, wb, attraction, a-b-da, 14, 3, 2, 28, 195, 120, 120, 195, 181, 111, 2, 1.29909
166, 2, wb, attraction, a-b-db, 9, 2, 2, 29, 165, 90, 86, 157, 90, 165, 1, 1.90064
166, 2, wb, attraction, a-b-db, 9, 2, 2, 29, 165, 90, 86, 157, 90, 165, 3, 0.855303
166, 2, wb, attraction, a-b-db, 9, 3, 2, 30, 114, 186, 195, 120, 120, 195, 1, 2.42701
166, 2, wb, attraction, a-b-db, 9, 3, 2, 30, 114, 186, 195, 120, 120, 195, 3, 0.824314
166, 2, wb, attraction, a-b-db, 14, 3, 2, 31, 120, 195, 195, 120, 111, 181, 3, 1.14864
166, 2, wb, attraction, a-b-db, 14, 3, 2, 31, 120, 195, 195, 120, 111, 181, 2, 1.07753
166, 2, wb, attraction, a-b-da, 9, 2, 2, 32, 165, 90, 157, 86, 90, 165, 1, 2.43982
166, 2, wb, attraction, a-b-da, 9, 2, 2, 32, 165, 90, 157, 86, 90, 165, 3, 0.324393
166, 2, wb, attraction, a-b-da, 5, 1, 2, 33, 60, 135, 135, 60, 132, 58, 1, 1.14885
166, 2, wb, attraction, a-b-da, 5, 1, 2, 33, 60, 135, 135, 60, 132, 58, 3, 1.60581
166, 2, wb, filler, NA, 999, 999, 2, 34, 126, 146, 63, 67, 114, 60, 2, 0.83523
166, 2, wb, filler, NA, 999, 999, 2, 34, 126, 146, 63, 67, 114, 60, 1, 0.416936
166, 2, wb, filler, NA, 999, 999, 2, 35, 148, 166, 149, 84, 137, 150, 2, 2.30211
166, 2, wb, filler, NA, 999, 999, 2, 35, 148, 166, 149, 84, 137, 150, 1, 0.520827
166, 2, wb, filler, NA, 999, 999, 2, 36, 152, 84, 168, 161, 57, 80, 3, 0.841869
166, 2, wb, filler, NA, 999, 999, 2, 36, 152, 84, 168, 161, 57, 80, 2, 0.334844
166, 2, wb, attraction, a-b-db, 5, 1, 2, 37, 135, 60, 60, 135, 58, 132, 1, 0.943306
166, 2, wb, attraction, a-b-db, 5, 1, 2, 37, 135, 60, 60, 135, 58, 132, 3, 0.960677
166, 2, wb, filler, NA, 999, 999, 3, 1, 104, 163, 113, 195, 191, 144, 1, 1.8073
166, 2, wb, filler, NA, 999, 999, 3, 1, 104, 163, 113, 195, 191, 144, 3, 0.861417
166, 2, wb, attraction, a-b-da, 5, 1, 3, 2, 132, 58, 135, 60, 60, 135, 1, 1.36844
166, 2, wb, attraction, a-b-da, 5, 1, 3, 2, 132, 58, 135, 60, 60, 135, 2, 5.22466
166, 2, wb, attraction, a-b-da, 14, 3, 3, 3, 120, 195, 195, 120, 181, 111, 3, 5.52427
166, 2, wb, attraction, a-b-da, 14, 3, 3, 3, 120, 195, 195, 120, 181, 111, 2, 3.06066
166, 2, wb, attraction, a-b-da, 14, 2, 3, 4, 153, 83, 90, 165, 165, 90, 1, 1.31876
166, 2, wb, attraction, a-b-da, 14, 2, 3, 4, 153, 83, 90, 165, 165, 90, 3, 2.40906
166, 2, wb, filler, NA, 999, 999, 3, 5, 128, 148, 78, 159, 84, 107, 3, 0.837603
166, 2, wb, filler, NA, 999, 999, 3, 5, 128, 148, 78, 159, 84, 107, 1, 1.23461
166, 2, wb, attraction, a-b-db, 5, 1, 3, 6, 135, 60, 60, 135, 58, 132, 2, 1.59883
166, 2, wb, attraction, a-b-db, 5, 1, 3, 6, 135, 60, 60, 135, 58, 132, 3, 0.869711
166, 2, wb, filler, NA, 999, 999, 3, 7, 69, 96, 90, 81, 161, 136, 1, 0.680586
166, 2, wb, filler, NA, 999, 999, 3, 7, 69, 96, 90, 81, 161, 136, 3, 0.628469
166, 2, wb, catch, NA, 999, 999, 3, 8, 106, 89, 151, 164, 129, 126, 1, 0.656836
166, 2, wb, catch, NA, 999, 999, 3, 8, 106, 89, 151, 164, 129, 126, 2, 0.541221
166, 2, wb, attraction, a-b-da, 5, 3, 3, 9, 120, 195, 190, 117, 195, 120, 1, 4.90895
166, 2, wb, attraction, a-b-da, 5, 3, 3, 9, 120, 195, 190, 117, 195, 120, 3, 3.38224
166, 2, wb, attraction, a-b-da, 14, 1, 3, 10, 60, 135, 125, 56, 135, 60, 2, 7.20373
166, 2, wb, attraction, a-b-da, 14, 1, 3, 10, 60, 135, 125, 56, 135, 60, 3, 2.8648
166, 2, wb, attraction, a-b-db, 2, 3, 3, 11, 120, 195, 119, 193, 195, 120, 1, 2.77113
166, 2, wb, attraction, a-b-db, 2, 3, 3, 11, 120, 195, 119, 193, 195, 120, 3, 0.570925
166, 2, wb, attraction, a-b-db, 5, 2, 3, 12, 165, 90, 90, 165, 88, 161, 1, 3.20995
166, 2, wb, attraction, a-b-db, 5, 2, 3, 12, 165, 90, 90, 165, 88, 161, 2, 2.04766
166, 2, wb, attraction, a-b-da, 5, 2, 3, 13, 90, 165, 161, 88, 165, 90, 1, 9.38692
166, 2, wb, attraction, a-b-da, 5, 2, 3, 13, 90, 165, 161, 88, 165, 90, 2, 0.847993
166, 2, wb, attraction, a-b-db, 14, 1, 3, 14, 56, 125, 135, 60, 60, 135, 1, 7.08368
166, 2, wb, attraction, a-b-db, 14, 1, 3, 14, 56, 125, 135, 60, 60, 135, 2, 4.75748
166, 2, wb, attraction, a-b-da, 9, 3, 3, 15, 120, 195, 195, 120, 186, 114, 1, 4.45985
166, 2, wb, attraction, a-b-da, 9, 3, 3, 15, 120, 195, 195, 120, 186, 114, 2, 3.11116
166, 2, wb, filler, NA, 999, 999, 3, 16, 123, 195, 157, 164, 61, 141, 3, 2.1914
166, 2, wb, filler, NA, 999, 999, 3, 16, 123, 195, 157, 164, 61, 141, 2, 1.31014
166, 2, wb, attraction, a-b-da, 2, 1, 3, 17, 60, 135, 134, 59, 135, 60, 1, 2.87093
166, 2, wb, attraction, a-b-da, 2, 1, 3, 17, 60, 135, 134, 59, 135, 60, 3, 4.87409
166, 2, wb, attraction, a-b-db, 2, 1, 3, 18, 135, 60, 59, 134, 60, 135, 2, 1.37103
166, 2, wb, attraction, a-b-db, 2, 1, 3, 18, 135, 60, 59, 134, 60, 135, 1, 2.02653
166, 2, wb, attraction, a-b-db, 5, 3, 3, 19, 195, 120, 117, 190, 120, 195, 2, 1.36661
166, 2, wb, attraction, a-b-db, 5, 3, 3, 19, 195, 120, 117, 190, 120, 195, 1, 3.54276
166, 2, wb, attraction, a-b-db, 9, 2, 3, 20, 165, 90, 86, 157, 90, 165, 2, 4.17366
166, 2, wb, attraction, a-b-db, 9, 2, 3, 20, 165, 90, 86, 157, 90, 165, 1, 1.15647
166, 2, wb, catch, NA, 999, 999, 3, 21, 106, 89, 133, 182, 118, 137, 1, 0.771129
166, 2, wb, catch, NA, 999, 999, 3, 21, 106, 89, 133, 182, 118, 137, 2, 0.274868
166, 2, wb, filler, NA, 999, 999, 3, 22, 91, 142, 195, 145, 164, 184, 1, 1.0135
166, 2, wb, filler, NA, 999, 999, 3, 22, 91, 142, 195, 145, 164, 184, 2, 2.63578
166, 2, wb, attraction, a-b-da, 9, 1, 3, 23, 135, 60, 60, 135, 129, 57, 2, 1.03961
166, 2, wb, attraction, a-b-da, 9, 1, 3, 23, 135, 60, 60, 135, 129, 57, 3, 0.572628
166, 2, wb, filler, NA, 999, 999, 3, 24, 131, 86, 60, 146, 87, 101, 3, 0.971646
166, 2, wb, filler, NA, 999, 999, 3, 24, 131, 86, 60, 146, 87, 101, 1, 1.28327
166, 2, wb, filler, NA, 999, 999, 3, 25, 83, 85, 112, 188, 183, 104, 1, 1.09355
166, 2, wb, filler, NA, 999, 999, 3, 25, 83, 85, 112, 188, 183, 104, 2, 0.528514
166, 2, wb, attraction, a-b-db, 9, 3, 3, 26, 120, 195, 195, 120, 114, 186, 3, 2.12894
166, 2, wb, attraction, a-b-db, 9, 3, 3, 26, 120, 195, 195, 120, 114, 186, 1, 0.69828
166, 2, wb, attraction, a-b-da, 2, 2, 3, 27, 90, 165, 163, 89, 165, 90, 1, 5.81199
166, 2, wb, attraction, a-b-da, 2, 2, 3, 27, 90, 165, 163, 89, 165, 90, 2, 1.2888
166, 2, wb, attraction, a-b-da, 2, 3, 3, 28, 193, 119, 195, 120, 120, 195, 3, 1.14701
166, 2, wb, attraction, a-b-da, 2, 3, 3, 28, 193, 119, 195, 120, 120, 195, 1, 1.35605
166, 2, wb, attraction, a-b-da, 9, 2, 3, 29, 157, 86, 90, 165, 165, 90, 1, 4.08344
166, 2, wb, attraction, a-b-da, 9, 2, 3, 29, 157, 86, 90, 165, 165, 90, 3, 1.19813
166, 2, wb, attraction, a-b-db, 14, 2, 3, 30, 90, 165, 83, 153, 165, 90, 2, 0.835885
166, 2, wb, attraction, a-b-db, 14, 2, 3, 30, 90, 165, 83, 153, 165, 90, 3, 2.89754
166, 2, wb, filler, NA, 999, 999, 3, 31, 93, 86, 181, 129, 157, 134, 1, 0.61059
166, 2, wb, filler, NA, 999, 999, 3, 31, 93, 86, 181, 129, 157, 134, 2, 0.825026
166, 2, wb, catch, NA, 999, 999, 3, 32, 102, 153, 78, 117, 178, 137, 2, 0.773306
166, 2, wb, catch, NA, 999, 999, 3, 32, 102, 153, 78, 117, 178, 137, 3, 0.692991
166, 2, wb, attraction, a-b-db, 2, 2, 3, 33, 89, 163, 165, 90, 90, 165, 1, 2.15075
166, 2, wb, attraction, a-b-db, 2, 2, 3, 33, 89, 163, 165, 90, 90, 165, 3, 1.42337
166, 2, wb, attraction, a-b-db, 9, 1, 3, 34, 135, 60, 57, 129, 60, 135, 3, 0.915493
166, 2, wb, attraction, a-b-db, 9, 1, 3, 34, 135, 60, 57, 129, 60, 135, 2, 1.67784
166, 2, wb, filler, NA, 999, 999, 3, 35, 180, 116, 77, 78, 80, 100, 2, 2.04792
166, 2, wb, filler, NA, 999, 999, 3, 35, 180, 116, 77, 78, 80, 100, 1, 0.476721
166, 2, wb, filler, NA, 999, 999, 3, 36, 177, 191, 191, 65, 175, 57, 3, 2.03113
166, 2, wb, filler, NA, 999, 999, 3, 36, 177, 191, 191, 65, 175, 57, 1, 0.324405
166, 2, wb, attraction, a-b-db, 14, 3, 3, 37, 120, 195, 111, 181, 195, 120, 2, 5.82088
166, 2, wb, attraction, a-b-db, 14, 3, 3, 37, 120, 195, 111, 181, 195, 120, 3, 0.92168
166, 2, wb, attraction, a-b-da, 5, 3, 4, 1, 120, 195, 190, 117, 195, 120, 1, 6.21072
166, 2, wb, attraction, a-b-da, 5, 3, 4, 1, 120, 195, 190, 117, 195, 120, 3, 1.29553
166, 2, wb, filler, NA, 999, 999, 4, 2, 155, 176, 190, 135, 182, 83, 3, 1.20917
166, 2, wb, filler, NA, 999, 999, 4, 2, 155, 176, 190, 135, 182, 83, 1, 11.9113
166, 2, wb, catch, NA, 999, 999, 4, 3, 153, 162, 69, 126, 109, 146, 2, 0.860738
166, 2, wb, catch, NA, 999, 999, 4, 3, 153, 162, 69, 126, 109, 146, 1, 0.865131
166, 2, wb, attraction, a-b-da, 5, 1, 4, 4, 135, 60, 60, 135, 132, 58, 1, 3.73215
166, 2, wb, attraction, a-b-da, 5, 1, 4, 4, 135, 60, 60, 135, 132, 58, 3, 4.07699
166, 2, wb, attraction, a-b-db, 2, 3, 4, 5, 195, 120, 119, 193, 120, 195, 2, 18.9263
166, 2, wb, attraction, a-b-db, 2, 3, 4, 5, 195, 120, 119, 193, 120, 195, 1, 3.85899
166, 2, wb, attraction, a-b-db, 14, 3, 4, 6, 120, 195, 195, 120, 111, 181, 3, 1.90104
166, 2, wb, attraction, a-b-db, 14, 3, 4, 6, 120, 195, 195, 120, 111, 181, 1, 0.647811
166, 2, wb, attraction, a-b-db, 2, 1, 4, 7, 60, 135, 59, 134, 135, 60, 1, 5.03562
166, 2, wb, attraction, a-b-db, 2, 1, 4, 7, 60, 135, 59, 134, 135, 60, 3, 12.288
166, 2, wb, filler, NA, 999, 999, 4, 8, 61, 130, 72, 158, 58, 155, 1, 1.10276
166, 2, wb, filler, NA, 999, 999, 4, 8, 61, 130, 72, 158, 58, 155, 2, 0.377709
166, 2, wb, attraction, a-b-db, 14, 1, 4, 9, 60, 135, 56, 125, 135, 60, 2, 2.49617
166, 2, wb, attraction, a-b-db, 14, 1, 4, 9, 60, 135, 56, 125, 135, 60, 3, 0.730689
166, 2, wb, attraction, a-b-da, 5, 2, 4, 10, 90, 165, 165, 90, 161, 88, 3, 2.23503
166, 2, wb, attraction, a-b-da, 5, 2, 4, 10, 90, 165, 165, 90, 161, 88, 2, 1.4484
166, 2, wb, filler, NA, 999, 999, 4, 11, 152, 70, 142, 178, 93, 174, 1, 0.691785
166, 2, wb, filler, NA, 999, 999, 4, 11, 152, 70, 142, 178, 93, 174, 2, 0.534933
166, 2, wb, filler, NA, 999, 999, 4, 12, 99, 141, 156, 66, 185, 147, 1, 0.951336
166, 2, wb, filler, NA, 999, 999, 4, 12, 99, 141, 156, 66, 185, 147, 3, 0.336405
166, 2, wb, attraction, a-b-da, 14, 2, 4, 13, 90, 165, 165, 90, 153, 83, 1, 0.832875
166, 2, wb, attraction, a-b-da, 14, 2, 4, 13, 90, 165, 165, 90, 153, 83, 2, 0.934596
166, 2, wb, catch, NA, 999, 999, 4, 14, 162, 153, 150, 105, 96, 99, 3, 0.607064
166, 2, wb, catch, NA, 999, 999, 4, 14, 162, 153, 150, 105, 96, 99, 1, 0.317337
166, 2, wb, attraction, a-b-da, 2, 2, 4, 15, 163, 89, 165, 90, 90, 165, 2, 3.69456
166, 2, wb, attraction, a-b-da, 2, 2, 4, 15, 163, 89, 165, 90, 90, 165, 3, 2.68074
166, 2, wb, attraction, a-b-db, 2, 2, 4, 16, 90, 165, 89, 163, 165, 90, 2, 1.08256
166, 2, wb, attraction, a-b-db, 2, 2, 4, 16, 90, 165, 89, 163, 165, 90, 3, 4.43007
166, 2, wb, filler, NA, 999, 999, 4, 17, 127, 113, 89, 164, 110, 128, 3, 1.36133
166, 2, wb, filler, NA, 999, 999, 4, 17, 127, 113, 89, 164, 110, 128, 2, 3.35351
166, 2, wb, attraction, a-b-da, 2, 1, 4, 18, 60, 135, 134, 59, 135, 60, 2, 2.2964
166, 2, wb, attraction, a-b-da, 2, 1, 4, 18, 60, 135, 134, 59, 135, 60, 1, 1.16303
166, 2, wb, attraction, a-b-da, 14, 3, 4, 19, 195, 120, 181, 111, 120, 195, 1, 3.33795
166, 2, wb, attraction, a-b-da, 14, 3, 4, 19, 195, 120, 181, 111, 120, 195, 3, 0.466222
166, 2, wb, attraction, a-b-db, 9, 2, 4, 20, 86, 157, 90, 165, 165, 90, 2, 1.94131
166, 2, wb, attraction, a-b-db, 9, 2, 4, 20, 86, 157, 90, 165, 165, 90, 1, 2.96604
166, 2, wb, attraction, a-b-da, 9, 1, 4, 21, 60, 135, 129, 57, 135, 60, 2, 2.02844
166, 2, wb, attraction, a-b-da, 9, 1, 4, 21, 60, 135, 129, 57, 135, 60, 1, 0.553666
166, 2, wb, filler, NA, 999, 999, 4, 22, 109, 59, 57, 111, 96, 64, 3, 1.20957
166, 2, wb, filler, NA, 999, 999, 4, 22, 109, 59, 57, 111, 96, 64, 1, 3.11987
166, 2, wb, attraction, a-b-db, 5, 1, 4, 23, 60, 135, 58, 132, 135, 60, 2, 1.776
166, 2, wb, attraction, a-b-db, 5, 1, 4, 23, 60, 135, 58, 132, 135, 60, 3, 2.87151
166, 2, wb, catch, NA, 999, 999, 4, 24, 156, 99, 151, 164, 95, 100, 3, 1.37783
166, 2, wb, catch, NA, 999, 999, 4, 24, 156, 99, 151, 164, 95, 100, 2, 0.273401
166, 2, wb, attraction, a-b-da, 2, 3, 4, 25, 193, 119, 195, 120, 120, 195, 1, 1.26782
166, 2, wb, attraction, a-b-da, 2, 3, 4, 25, 193, 119, 195, 120, 120, 195, 3, 0.74423
166, 2, wb, attraction, a-b-db, 5, 3, 4, 26, 195, 120, 120, 195, 117, 190, 1, 2.00797
166, 2, wb, attraction, a-b-db, 5, 3, 4, 26, 195, 120, 120, 195, 117, 190, 2, 1.36587
166, 2, wb, attraction, a-b-db, 9, 1, 4, 27, 57, 129, 135, 60, 60, 135, 1, 1.50065
166, 2, wb, attraction, a-b-db, 9, 1, 4, 27, 57, 129, 135, 60, 60, 135, 2, 0.90356
166, 2, wb, attraction, a-b-db, 9, 3, 4, 28, 120, 195, 195, 120, 114, 186, 3, 2.42519
166, 2, wb, attraction, a-b-db, 9, 3, 4, 28, 120, 195, 195, 120, 114, 186, 2, 1.35843
166, 2, wb, filler, NA, 999, 999, 4, 29, 98, 137, 94, 88, 129, 193, 2, 0.629292
166, 2, wb, filler, NA, 999, 999, 4, 29, 98, 137, 94, 88, 129, 193, 3, 0.331206
166, 2, wb, attraction, a-b-db, 5, 2, 4, 30, 90, 165, 165, 90, 88, 161, 3, 1.06769
166, 2, wb, attraction, a-b-db, 5, 2, 4, 30, 90, 165, 165, 90, 88, 161, 2, 0.335914
166, 2, wb, filler, NA, 999, 999, 4, 31, 173, 158, 144, 118, 145, 82, 3, 0.744369
166, 2, wb, filler, NA, 999, 999, 4, 31, 173, 158, 144, 118, 145, 82, 2, 0.481421
166, 2, wb, filler, NA, 999, 999, 4, 32, 174, 57, 127, 106, 103, 84, 3, 0.955857
166, 2, wb, filler, NA, 999, 999, 4, 32, 174, 57, 127, 106, 103, 84, 2, 0.644374
166, 2, wb, attraction, a-b-db, 14, 2, 4, 33, 165, 90, 90, 165, 83, 153, 3, 1.10396
166, 2, wb, attraction, a-b-db, 14, 2, 4, 33, 165, 90, 90, 165, 83, 153, 1, 0.658303
166, 2, wb, attraction, a-b-da, 14, 1, 4, 34, 125, 56, 135, 60, 60, 135, 1, 1.13331
166, 2, wb, attraction, a-b-da, 14, 1, 4, 34, 125, 56, 135, 60, 60, 135, 2, 1.26295
166, 2, wb, attraction, a-b-da, 9, 2, 4, 35, 165, 90, 90, 165, 157, 86, 2, 0.985934
166, 2, wb, attraction, a-b-da, 9, 2, 4, 35, 165, 90, 90, 165, 157, 86, 1, 1.23366
166, 2, wb, filler, NA, 999, 999, 4, 36, 126, 58, 139, 145, 61, 59, 3, 0.525711
166, 2, wb, filler, NA, 999, 999, 4, 36, 126, 58, 139, 145, 61, 59, 2, 0.327553
166, 2, wb, attraction, a-b-da, 9, 3, 4, 37, 195, 120, 186, 114, 120, 195, 1, 1.52795
166, 2, wb, attraction, a-b-da, 9, 3, 4, 37, 195, 120, 186, 114, 120, 195, 3, 0.569523
166, 2, wb, attraction, a-b-db, 2, 1, 5, 1, 135, 60, 59, 134, 60, 135, 2, 9.99127
166, 2, wb, attraction, a-b-db, 2, 1, 5, 1, 135, 60, 59, 134, 60, 135, 3, 0.627419
166, 2, wb, attraction, a-b-db, 2, 3, 5, 2, 120, 195, 195, 120, 119, 193, 1, 1.35986
166, 2, wb, attraction, a-b-db, 2, 3, 5, 2, 120, 195, 195, 120, 119, 193, 2, 0.840067
166, 2, wb, filler, NA, 999, 999, 5, 3, 107, 107, 178, 179, 172, 156, 1, 0.967345
166, 2, wb, filler, NA, 999, 999, 5, 3, 107, 107, 178, 179, 172, 156, 2, 0.284097
166, 2, wb, attraction, a-b-db, 14, 1, 5, 4, 56, 125, 135, 60, 60, 135, 1, 1.20663
166, 2, wb, attraction, a-b-db, 14, 1, 5, 4, 56, 125, 135, 60, 60, 135, 3, 0.733026
166, 2, wb, attraction, a-b-da, 5, 3, 5, 5, 120, 195, 190, 117, 195, 120, 2, 4.66126
166, 2, wb, attraction, a-b-da, 5, 3, 5, 5, 120, 195, 190, 117, 195, 120, 1, 0.9524
166, 2, wb, attraction, a-b-db, 2, 2, 5, 6, 89, 163, 90, 165, 165, 90, 1, 4.91211
166, 2, wb, attraction, a-b-db, 2, 2, 5, 6, 89, 163, 90, 165, 165, 90, 3, 0.369245
166, 2, wb, attraction, a-b-da, 9, 1, 5, 7, 129, 57, 60, 135, 135, 60, 2, 2.12036
166, 2, wb, attraction, a-b-da, 9, 1, 5, 7, 129, 57, 60, 135, 135, 60, 3, 2.09035
166, 2, wb, filler, NA, 999, 999, 5, 8, 183, 119, 162, 179, 166, 150, 3, 1.34765
166, 2, wb, filler, NA, 999, 999, 5, 8, 183, 119, 162, 179, 166, 150, 2, 2.00457
166, 2, wb, attraction, a-b-da, 9, 2, 5, 9, 157, 86, 90, 165, 165, 90, 2, 0.93783
166, 2, wb, attraction, a-b-da, 9, 2, 5, 9, 157, 86, 90, 165, 165, 90, 1, 2.443
166, 2, wb, attraction, a-b-db, 9, 1, 5, 10, 57, 129, 60, 135, 135, 60, 1, 1.28595
166, 2, wb, attraction, a-b-db, 9, 1, 5, 10, 57, 129, 60, 135, 135, 60, 3, 0.97758
166, 2, wb, filler, NA, 999, 999, 5, 11, 112, 69, 109, 150, 93, 100, 3, 0.807971
166, 2, wb, filler, NA, 999, 999, 5, 11, 112, 69, 109, 150, 93, 100, 2, 0.534229
166, 2, wb, attraction, a-b-db, 14, 3, 5, 12, 120, 195, 195, 120, 111, 181, 2, 1.43875
166, 2, wb, attraction, a-b-db, 14, 3, 5, 12, 120, 195, 195, 120, 111, 181, 1, 0.595597
166, 2, wb, catch, NA, 999, 999, 5, 13, 120, 135, 109, 86, 184, 131, 2, 0.681321
166, 2, wb, catch, NA, 999, 999, 5, 13, 120, 135, 109, 86, 184, 131, 3, 1.19703
166, 2, wb, attraction, a-b-db, 9, 3, 5, 14, 114, 186, 195, 120, 120, 195, 1, 2.92259
166, 2, wb, attraction, a-b-db, 9, 3, 5, 14, 114, 186, 195, 120, 120, 195, 2, 1.73167
166, 2, wb, catch, NA, 999, 999, 5, 15, 88, 107, 146, 109, 153, 162, 1, 0.547688
166, 2, wb, catch, NA, 999, 999, 5, 15, 88, 107, 146, 109, 153, 162, 3, 0.356929
166, 2, wb, filler, NA, 999, 999, 5, 16, 159, 113, 87, 159, 105, 67, 3, 0.772093
166, 2, wb, filler, NA, 999, 999, 5, 16, 159, 113, 87, 159, 105, 67, 1, 0.819816
166, 2, wb, attraction, a-b-db, 5, 3, 5, 17, 120, 195, 117, 190, 195, 120, 2, 1.84876
166, 2, wb, attraction, a-b-db, 5, 3, 5, 17, 120, 195, 117, 190, 195, 120, 1, 1.9256
166, 2, wb, attraction, a-b-da, 2, 1, 5, 18, 60, 135, 134, 59, 135, 60, 1, 2.78952
166, 2, wb, attraction, a-b-da, 2, 1, 5, 18, 60, 135, 134, 59, 135, 60, 2, 0.92398
166, 2, wb, filler, NA, 999, 999, 5, 19, 126, 187, 156, 189, 147, 188, 1, 4.05231
166, 2, wb, filler, NA, 999, 999, 5, 19, 126, 187, 156, 189, 147, 188, 3, 1.04042
166, 2, wb, attraction, a-b-da, 9, 3, 5, 20, 195, 120, 120, 195, 186, 114, 2, 5.83594
166, 2, wb, attraction, a-b-da, 9, 3, 5, 20, 195, 120, 120, 195, 186, 114, 3, 0.840029
166, 2, wb, attraction, a-b-da, 14, 2, 5, 21, 165, 90, 153, 83, 90, 165, 1, 1.33975
166, 2, wb, attraction, a-b-da, 14, 2, 5, 21, 165, 90, 153, 83, 90, 165, 3, 0.556659
166, 2, wb, attraction, a-b-da, 5, 2, 5, 22, 161, 88, 90, 165, 165, 90, 2, 0.715728
166, 2, wb, attraction, a-b-da, 5, 2, 5, 22, 161, 88, 90, 165, 165, 90, 1, 0.622157
166, 2, wb, attraction, a-b-da, 2, 2, 5, 23, 90, 165, 163, 89, 165, 90, 1, 5.56332
166, 2, wb, attraction, a-b-da, 2, 2, 5, 23, 90, 165, 163, 89, 165, 90, 3, 0.466107
166, 2, wb, attraction, a-b-db, 9, 2, 5, 24, 86, 157, 165, 90, 90, 165, 1, 0.66128
166, 2, wb, attraction, a-b-db, 9, 2, 5, 24, 86, 157, 165, 90, 90, 165, 2, 0.825784
166, 2, wb, attraction, a-b-da, 5, 1, 5, 25, 135, 60, 60, 135, 132, 58, 2, 0.934141
166, 2, wb, attraction, a-b-da, 5, 1, 5, 25, 135, 60, 60, 135, 132, 58, 1, 1.20776
166, 2, wb, filler, NA, 999, 999, 5, 26, 167, 98, 182, 163, 149, 188, 1, 0.796665
166, 2, wb, filler, NA, 999, 999, 5, 26, 167, 98, 182, 163, 149, 188, 2, 0.403764
166, 2, wb, filler, NA, 999, 999, 5, 27, 105, 189, 163, 110, 68, 61, 3, 0.665573
166, 2, wb, filler, NA, 999, 999, 5, 27, 105, 189, 163, 110, 68, 61, 1, 3.02202
166, 2, wb, filler, NA, 999, 999, 5, 28, 118, 130, 143, 82, 175, 78, 2, 2.90633
166, 2, wb, filler, NA, 999, 999, 5, 28, 118, 130, 143, 82, 175, 78, 1, 2.94002
166, 2, wb, attraction, a-b-db, 5, 2, 5, 29, 90, 165, 165, 90, 88, 161, 3, 1.59579
166, 2, wb, attraction, a-b-db, 5, 2, 5, 29, 90, 165, 165, 90, 88, 161, 1, 0.618509
166, 2, wb, catch, NA, 999, 999, 5, 30, 121, 194, 90, 105, 109, 146, 2, 0.799599
166, 2, wb, catch, NA, 999, 999, 5, 30, 121, 194, 90, 105, 109, 146, 1, 0.318636
166, 2, wb, attraction, a-b-da, 14, 1, 5, 31, 135, 60, 125, 56, 60, 135, 2, 6.71977
166, 2, wb, attraction, a-b-da, 14, 1, 5, 31, 135, 60, 125, 56, 60, 135, 3, 0.920425
166, 2, wb, attraction, a-b-db, 14, 2, 5, 32, 165, 90, 83, 153, 90, 165, 2, 1.49736
166, 2, wb, attraction, a-b-db, 14, 2, 5, 32, 165, 90, 83, 153, 90, 165, 3, 0.980334
166, 2, wb, attraction, a-b-da, 2, 3, 5, 33, 193, 119, 120, 195, 195, 120, 2, 1.29847
166, 2, wb, attraction, a-b-da, 2, 3, 5, 33, 193, 119, 120, 195, 195, 120, 3, 1.82153
166, 2, wb, filler, NA, 999, 999, 5, 34, 160, 85, 77, 112, 152, 172, 2, 0.634106
166, 2, wb, filler, NA, 999, 999, 5, 34, 160, 85, 77, 112, 152, 172, 3, 0.472039
166, 2, wb, filler, NA, 999, 999, 5, 35, 135, 156, 106, 99, 117, 136, 2, 1.267
166, 2, wb, filler, NA, 999, 999, 5, 35, 135, 156, 106, 99, 117, 136, 1, 0.423254
166, 2, wb, attraction, a-b-db, 5, 1, 5, 36, 58, 132, 60, 135, 135, 60, 1, 1.63582
166, 2, wb, attraction, a-b-db, 5, 1, 5, 36, 58, 132, 60, 135, 135, 60, 3, 2.07325
166, 2, wb, attraction, a-b-da, 14, 3, 5, 37, 181, 111, 120, 195, 195, 120, 1, 0.931777
166, 2, wb, attraction, a-b-da, 14, 3, 5, 37, 181, 111, 120, 195, 195, 120, 3, 0.685539
166, 2, wb, attraction, a-b-da, 9, 3, 6, 1, 195, 120, 186, 114, 120, 195, 2, 13.0879
166, 2, wb, attraction, a-b-da, 9, 3, 6, 1, 195, 120, 186, 114, 120, 195, 1, 0.591717
166, 2, wb, catch, NA, 999, 999, 6, 2, 108, 87, 144, 111, 164, 151, 1, 1.02963
166, 2, wb, catch, NA, 999, 999, 6, 2, 108, 87, 144, 111, 164, 151, 3, 0.283228
166, 2, wb, attraction, a-b-da, 2, 3, 6, 3, 120, 195, 195, 120, 193, 119, 2, 8.38973
166, 2, wb, attraction, a-b-da, 2, 3, 6, 3, 120, 195, 195, 120, 193, 119, 1, 0.346387
166, 2, wb, attraction, a-b-da, 9, 1, 6, 4, 60, 135, 135, 60, 129, 57, 1, 1.43423
166, 2, wb, attraction, a-b-da, 9, 1, 6, 4, 60, 135, 135, 60, 129, 57, 2, 0.711763
166, 2, wb, filler, NA, 999, 999, 6, 5, 158, 136, 101, 82, 67, 185, 2, 0.840873
166, 2, wb, filler, NA, 999, 999, 6, 5, 158, 136, 101, 82, 67, 185, 1, 0.349895
166, 2, wb, attraction, a-b-da, 14, 3, 6, 6, 195, 120, 181, 111, 120, 195, 2, 2.85365
166, 2, wb, attraction, a-b-da, 14, 3, 6, 6, 195, 120, 181, 111, 120, 195, 1, 0.610089
166, 2, wb, filler, NA, 999, 999, 6, 7, 66, 58, 95, 143, 63, 178, 1, 0.863184
166, 2, wb, filler, NA, 999, 999, 6, 7, 66, 58, 95, 143, 63, 178, 2, 0.683626
166, 2, wb, filler, NA, 999, 999, 6, 8, 130, 148, 192, 135, 104, 101, 3, 1.75801
166, 2, wb, filler, NA, 999, 999, 6, 8, 130, 148, 192, 135, 104, 101, 2, 0.862094
166, 2, wb, attraction, a-b-db, 5, 3, 6, 9, 117, 190, 120, 195, 195, 120, 2, 2.48106
166, 2, wb, attraction, a-b-db, 5, 3, 6, 9, 117, 190, 120, 195, 195, 120, 3, 1.39627
166, 2, wb, attraction, a-b-db, 5, 2, 6, 10, 165, 90, 88, 161, 90, 165, 3, 1.55378
166, 2, wb, attraction, a-b-db, 5, 2, 6, 10, 165, 90, 88, 161, 90, 165, 2, 1.07455
166, 2, wb, attraction, a-b-da, 5, 3, 6, 11, 195, 120, 190, 117, 120, 195, 1, 1.59691
166, 2, wb, attraction, a-b-da, 5, 3, 6, 11, 195, 120, 190, 117, 120, 195, 2, 0.73162
166, 2, wb, filler, NA, 999, 999, 6, 12, 167, 135, 130, 111, 62, 122, 3, 0.668058
166, 2, wb, filler, NA, 999, 999, 6, 12, 167, 135, 130, 111, 62, 122, 1, 0.360421
166, 2, wb, attraction, a-b-db, 9, 2, 6, 13, 86, 157, 90, 165, 165, 90, 2, 2.16761
166, 2, wb, attraction, a-b-db, 9, 2, 6, 13, 86, 157, 90, 165, 165, 90, 3, 1.44777
166, 2, wb, attraction, a-b-db, 5, 1, 6, 14, 135, 60, 58, 132, 60, 135, 1, 2.91513
166, 2, wb, attraction, a-b-db, 5, 1, 6, 14, 135, 60, 58, 132, 60, 135, 2, 0.956814
166, 2, wb, filler, NA, 999, 999, 6, 15, 99, 154, 179, 62, 110, 117, 3, 1.34782
166, 2, wb, filler, NA, 999, 999, 6, 15, 99, 154, 179, 62, 110, 117, 1, 0.74867
166, 2, wb, attraction, a-b-da, 9, 2, 6, 16, 157, 86, 165, 90, 90, 165, 1, 3.95634
166, 2, wb, attraction, a-b-da, 9, 2, 6, 16, 157, 86, 165, 90, 90, 165, 2, 0.819904
166, 2, wb, filler, NA, 999, 999, 6, 17, 115, 145, 64, 143, 96, 130, 2, 0.712944
166, 2, wb, filler, NA, 999, 999, 6, 17, 115, 145, 64, 143, 96, 130, 1, 0.475358
166, 2, wb, attraction, a-b-db, 14, 3, 6, 18, 195, 120, 120, 195, 111, 181, 3, 3.87764
166, 2, wb, attraction, a-b-db, 14, 3, 6, 18, 195, 120, 120, 195, 111, 181, 2, 1.47258
166, 2, wb, attraction, a-b-db, 2, 2, 6, 19, 90, 165, 165, 90, 89, 163, 3, 1.21931
166, 2, wb, attraction, a-b-db, 2, 2, 6, 19, 90, 165, 165, 90, 89, 163, 1, 2.45752
166, 2, wb, filler, NA, 999, 999, 6, 20, 160, 140, 192, 116, 64, 133, 3, 0.556048
166, 2, wb, filler, NA, 999, 999, 6, 20, 160, 140, 192, 116, 64, 133, 1, 0.356497
166, 2, wb, attraction, a-b-db, 2, 1, 6, 21, 60, 135, 59, 134, 135, 60, 2, 0.94775
166, 2, wb, attraction, a-b-db, 2, 1, 6, 21, 60, 135, 59, 134, 135, 60, 1, 0.516638
166, 2, wb, attraction, a-b-db, 2, 3, 6, 22, 119, 193, 195, 120, 120, 195, 2, 6.02972
166, 2, wb, attraction, a-b-db, 2, 3, 6, 22, 119, 193, 195, 120, 120, 195, 1, 1.53782
166, 2, wb, catch, NA, 999, 999, 6, 23, 172, 143, 117, 78, 139, 116, 2, 0.825121
166, 2, wb, catch, NA, 999, 999, 6, 23, 172, 143, 117, 78, 139, 116, 1, 0.431838
166, 2, wb, attraction, a-b-da, 5, 2, 6, 24, 165, 90, 90, 165, 161, 88, 2, 1.42013
166, 2, wb, attraction, a-b-da, 5, 2, 6, 24, 165, 90, 90, 165, 161, 88, 1, 0.602432
166, 2, wb, attraction, a-b-da, 14, 2, 6, 25, 153, 83, 165, 90, 90, 165, 1, 5.30418
166, 2, wb, attraction, a-b-da, 14, 2, 6, 25, 153, 83, 165, 90, 90, 165, 3, 0.609846
166, 2, wb, attraction, a-b-da, 2, 1, 6, 26, 134, 59, 60, 135, 135, 60, 2, 1.01493
166, 2, wb, attraction, a-b-da, 2, 1, 6, 26, 134, 59, 60, 135, 135, 60, 1, 0.693205
166, 2, wb, catch, NA, 999, 999, 6, 27, 141, 174, 85, 110, 135, 120, 2, 1.92686
166, 2, wb, catch, NA, 999, 999, 6, 27, 141, 174, 85, 110, 135, 120, 1, 0.912231
166, 2, wb, filler, NA, 999, 999, 6, 28, 141, 162, 80, 187, 124, 57, 3, 1.52933
166, 2, wb, filler, NA, 999, 999, 6, 28, 141, 162, 80, 187, 124, 57, 1, 0.554725
166, 2, wb, attraction, a-b-db, 9, 1, 6, 29, 57, 129, 135, 60, 60, 135, 1, 1.52251
166, 2, wb, attraction, a-b-db, 9, 1, 6, 29, 57, 129, 135, 60, 60, 135, 3, 0.588078
166, 2, wb, attraction, a-b-db, 14, 1, 6, 30, 60, 135, 135, 60, 56, 125, 3, 0.946489
166, 2, wb, attraction, a-b-db, 14, 1, 6, 30, 60, 135, 135, 60, 56, 125, 2, 1.25954
166, 2, wb, attraction, a-b-db, 14, 2, 6, 31, 83, 153, 165, 90, 90, 165, 1, 1.20651
166, 2, wb, attraction, a-b-db, 14, 2, 6, 31, 83, 153, 165, 90, 90, 165, 2, 2.00462
166, 2, wb, attraction, a-b-da, 14, 1, 6, 32, 60, 135, 125, 56, 135, 60, 2, 3.88187
166, 2, wb, attraction, a-b-da, 14, 1, 6, 32, 60, 135, 125, 56, 135, 60, 1, 2.19674
166, 2, wb, filler, NA, 999, 999, 6, 33, 179, 66, 111, 112, 81, 153, 2, 4.50597
166, 2, wb, filler, NA, 999, 999, 6, 33, 179, 66, 111, 112, 81, 153, 3, 1.41129
166, 2, wb, attraction, a-b-da, 5, 1, 6, 34, 60, 135, 132, 58, 135, 60, 1, 3.2001
166, 2, wb, attraction, a-b-da, 5, 1, 6, 34, 60, 135, 132, 58, 135, 60, 2, 0.8303
166, 2, wb, attraction, a-b-db, 9, 3, 6, 35, 120, 195, 195, 120, 114, 186, 3, 2.16264
166, 2, wb, attraction, a-b-db, 9, 3, 6, 35, 120, 195, 195, 120, 114, 186, 2, 0.874647
166, 2, wb, filler, NA, 999, 999, 6, 36, 191, 62, 174, 67, 140, 63, 3, 0.940965
166, 2, wb, filler, NA, 999, 999, 6, 36, 191, 62, 174, 67, 140, 63, 1, 0.725994
166, 2, wb, attraction, a-b-da, 2, 2, 6, 37, 165, 90, 163, 89, 90, 165, 1, 2.00634
166, 2, wb, attraction, a-b-da, 2, 2, 6, 37, 165, 90, 163, 89, 90, 165, 2, 12.6364
166, 2, wb, attraction, a-b-db, 2, 1, 7, 1, 60, 135, 135, 60, 59, 134, 2, 5.46111
166, 2, wb, attraction, a-b-db, 2, 1, 7, 1, 60, 135, 135, 60, 59, 134, 1, 0.439965
166, 2, wb, filler, NA, 999, 999, 7, 2, 97, 138, 75, 75, 185, 170, 2, 0.627879
166, 2, wb, filler, NA, 999, 999, 7, 2, 97, 138, 75, 75, 185, 170, 3, 0.289592
166, 2, wb, attraction, a-b-da, 9, 3, 7, 3, 186, 114, 195, 120, 120, 195, 3, 1.39544
166, 2, wb, attraction, a-b-da, 9, 3, 7, 3, 186, 114, 195, 120, 120, 195, 1, 0.650242
166, 2, wb, attraction, a-b-db, 14, 2, 7, 4, 90, 165, 83, 153, 165, 90, 2, 0.942008
166, 2, wb, attraction, a-b-db, 14, 2, 7, 4, 90, 165, 83, 153, 165, 90, 3, 0.383026
166, 2, wb, filler, NA, 999, 999, 7, 5, 157, 137, 127, 128, 164, 179, 2, 0.621543
166, 2, wb, filler, NA, 999, 999, 7, 5, 157, 137, 127, 128, 164, 179, 3, 0.659291
166, 2, wb, attraction, a-b-db, 14, 1, 7, 6, 60, 135, 135, 60, 56, 125, 2, 1.48633
166, 2, wb, attraction, a-b-db, 14, 1, 7, 6, 60, 135, 135, 60, 56, 125, 1, 0.441845
166, 2, wb, attraction, a-b-db, 9, 2, 7, 7, 86, 157, 90, 165, 165, 90, 1, 1.31761
166, 2, wb, attraction, a-b-db, 9, 2, 7, 7, 86, 157, 90, 165, 165, 90, 3, 0.463869
166, 2, wb, attraction, a-b-da, 5, 2, 7, 8, 90, 165, 161, 88, 165, 90, 2, 4.01097
166, 2, wb, attraction, a-b-da, 5, 2, 7, 8, 90, 165, 161, 88, 165, 90, 1, 0.488388
166, 2, wb, filler, NA, 999, 999, 7, 9, 125, 90, 171, 85, 153, 92, 1, 0.706886
166, 2, wb, filler, NA, 999, 999, 7, 9, 125, 90, 171, 85, 153, 92, 2, 0.357325
166, 2, wb, attraction, a-b-db, 9, 1, 7, 10, 60, 135, 135, 60, 57, 129, 2, 0.940469
166, 2, wb, attraction, a-b-db, 9, 1, 7, 10, 60, 135, 135, 60, 57, 129, 3, 0.773437
166, 2, wb, filler, NA, 999, 999, 7, 11, 174, 180, 73, 116, 100, 166, 2, 0.667773
166, 2, wb, filler, NA, 999, 999, 7, 11, 174, 180, 73, 116, 100, 166, 1, 0.400201
166, 2, wb, filler, NA, 999, 999, 7, 12, 177, 120, 113, 166, 90, 142, 3, 0.926044
166, 2, wb, filler, NA, 999, 999, 7, 12, 177, 120, 113, 166, 90, 142, 2, 3.07979
166, 2, wb, filler, NA, 999, 999, 7, 13, 177, 179, 171, 61, 143, 90, 2, 1.56145
166, 2, wb, filler, NA, 999, 999, 7, 13, 177, 179, 171, 61, 143, 90, 1, 0.905513
166, 2, wb, attraction, a-b-da, 2, 2, 7, 14, 165, 90, 90, 165, 163, 89, 2, 2.68329
166, 2, wb, attraction, a-b-da, 2, 2, 7, 14, 165, 90, 90, 165, 163, 89, 1, 0.934453
166, 2, wb, attraction, a-b-db, 5, 2, 7, 15, 88, 161, 165, 90, 90, 165, 1, 1.82275
166, 2, wb, attraction, a-b-db, 5, 2, 7, 15, 88, 161, 165, 90, 90, 165, 2, 1.18809
166, 2, wb, catch, NA, 999, 999, 7, 16, 114, 141, 124, 71, 125, 190, 2, 0.78634
166, 2, wb, catch, NA, 999, 999, 7, 16, 114, 141, 124, 71, 125, 190, 3, 0.474075
166, 2, wb, attraction, a-b-da, 14, 3, 7, 17, 181, 111, 120, 195, 195, 120, 1, 13.3085
166, 2, wb, attraction, a-b-da, 14, 3, 7, 17, 181, 111, 120, 195, 195, 120, 3, 1.06693
166, 2, wb, attraction, a-b-db, 9, 3, 7, 18, 195, 120, 114, 186, 120, 195, 2, 2.16592
166, 2, wb, attraction, a-b-db, 9, 3, 7, 18, 195, 120, 114, 186, 120, 195, 3, 0.97388
166, 2, wb, attraction, a-b-da, 9, 1, 7, 19, 129, 57, 60, 135, 135, 60, 2, 1.94821
166, 2, wb, attraction, a-b-da, 9, 1, 7, 19, 129, 57, 60, 135, 135, 60, 1, 1.04496
166, 2, wb, attraction, a-b-db, 2, 2, 7, 20, 165, 90, 90, 165, 89, 163, 2, 1.64052
166, 2, wb, attraction, a-b-db, 2, 2, 7, 20, 165, 90, 90, 165, 89, 163, 3, 0.83727
166, 2, wb, attraction, a-b-db, 14, 3, 7, 21, 195, 120, 111, 181, 120, 195, 2, 2.38555
166, 2, wb, attraction, a-b-db, 14, 3, 7, 21, 195, 120, 111, 181, 120, 195, 1, 2.27287
166, 2, wb, attraction, a-b-da, 14, 2, 7, 22, 90, 165, 153, 83, 165, 90, 2, 3.79552
166, 2, wb, attraction, a-b-da, 14, 2, 7, 22, 90, 165, 153, 83, 165, 90, 1, 0.729517
166, 2, wb, attraction, a-b-da, 2, 1, 7, 23, 134, 59, 135, 60, 60, 135, 1, 2.51403
166, 2, wb, attraction, a-b-da, 2, 1, 7, 23, 134, 59, 135, 60, 60, 135, 2, 7.5159
166, 2, wb, attraction, a-b-da, 5, 3, 7, 24, 120, 195, 190, 117, 195, 120, 1, 2.64268
166, 2, wb, attraction, a-b-da, 5, 3, 7, 24, 120, 195, 190, 117, 195, 120, 3, 1.99121
166, 2, wb, filler, NA, 999, 999, 7, 25, 181, 190, 61, 138, 149, 133, 2, 0.59644
166, 2, wb, filler, NA, 999, 999, 7, 25, 181, 190, 61, 138, 149, 133, 1, 0.355617
166, 2, wb, filler, NA, 999, 999, 7, 26, 77, 68, 119, 150, 73, 152, 1, 0.787495
166, 2, wb, filler, NA, 999, 999, 7, 26, 77, 68, 119, 150, 73, 152, 2, 0.330495
166, 2, wb, attraction, a-b-db, 2, 3, 7, 27, 195, 120, 119, 193, 120, 195, 2, 2.12306
166, 2, wb, attraction, a-b-db, 2, 3, 7, 27, 195, 120, 119, 193, 120, 195, 1, 0.652317
166, 2, wb, attraction, a-b-da, 14, 1, 7, 28, 125, 56, 135, 60, 60, 135, 3, 1.49601
166, 2, wb, attraction, a-b-da, 14, 1, 7, 28, 125, 56, 135, 60, 60, 135, 2, 1.01888
166, 2, wb, catch, NA, 999, 999, 7, 29, 136, 179, 110, 145, 96, 99, 3, 0.703837
166, 2, wb, catch, NA, 999, 999, 7, 29, 136, 179, 110, 145, 96, 99, 1, 0.378917
166, 2, wb, filler, NA, 999, 999, 7, 30, 92, 70, 87, 166, 157, 127, 1, 1.12937
166, 2, wb, filler, NA, 999, 999, 7, 30, 92, 70, 87, 166, 157, 127, 3, 0.827035
166, 2, wb, filler, NA, 999, 999, 7, 31, 62, 97, 158, 89, 87, 186, 1, 0.999442
166, 2, wb, filler, NA, 999, 999, 7, 31, 62, 97, 158, 89, 87, 186, 3, 0.47843
166, 2, wb, catch, NA, 999, 999, 7, 32, 123, 192, 105, 150, 98, 97, 3, 0.945004
166, 2, wb, catch, NA, 999, 999, 7, 32, 123, 192, 105, 150, 98, 97, 1, 0.38585
166, 2, wb, attraction, a-b-db, 5, 3, 7, 33, 117, 190, 195, 120, 120, 195, 1, 1.16035
166, 2, wb, attraction, a-b-db, 5, 3, 7, 33, 117, 190, 195, 120, 120, 195, 3, 0.744837
166, 2, wb, attraction, a-b-da, 9, 2, 7, 34, 157, 86, 165, 90, 90, 165, 3, 1.56836
166, 2, wb, attraction, a-b-da, 9, 2, 7, 34, 157, 86, 165, 90, 90, 165, 1, 0.928563
166, 2, wb, attraction, a-b-db, 5, 1, 7, 35, 60, 135, 58, 132, 135, 60, 1, 1.55276
166, 2, wb, attraction, a-b-db, 5, 1, 7, 35, 60, 135, 58, 132, 135, 60, 3, 0.577682
166, 2, wb, attraction, a-b-da, 2, 3, 7, 36, 120, 195, 195, 120, 193, 119, 1, 3.01611
166, 2, wb, attraction, a-b-da, 2, 3, 7, 36, 120, 195, 195, 120, 193, 119, 2, 0.90987
166, 2, wb, attraction, a-b-da, 5, 1, 7, 37, 132, 58, 60, 135, 135, 60, 1, 1.67878
166, 2, wb, attraction, a-b-da, 5, 1, 7, 37, 132, 58, 60, 135, 135, 60, 3, 2.07431
166, 2, wb, filler, NA, 999, 999, 8, 1, 118, 175, 185, 158, 80, 63, 3, 1.07604
166, 2, wb, filler, NA, 999, 999, 8, 1, 118, 175, 185, 158, 80, 63, 2, 0.295782
166, 2, wb, attraction, a-b-db, 2, 3, 8, 2, 120, 195, 195, 120, 119, 193, 1, 5.26569
166, 2, wb, attraction, a-b-db, 2, 3, 8, 2, 120, 195, 195, 120, 119, 193, 3, 0.452615
166, 2, wb, attraction, a-b-da, 2, 3, 8, 3, 195, 120, 120, 195, 193, 119, 2, 0.720383
166, 2, wb, attraction, a-b-da, 2, 3, 8, 3, 195, 120, 120, 195, 193, 119, 1, 0.370124
166, 2, wb, attraction, a-b-da, 9, 2, 8, 4, 157, 86, 90, 165, 165, 90, 2, 0.665297
166, 2, wb, attraction, a-b-da, 9, 2, 8, 4, 157, 86, 90, 165, 165, 90, 1, 0.82978
166, 2, wb, catch, NA, 999, 999, 8, 5, 156, 159, 153, 102, 76, 119, 3, 0.546188
166, 2, wb, catch, NA, 999, 999, 8, 5, 156, 159, 153, 102, 76, 119, 1, 0.427266
166, 2, wb, filler, NA, 999, 999, 8, 6, 111, 71, 143, 164, 157, 139, 1, 0.623716
166, 2, wb, filler, NA, 999, 999, 8, 6, 111, 71, 143, 164, 157, 139, 2, 0.413451
166, 2, wb, catch, NA, 999, 999, 8, 7, 194, 121, 150, 105, 117, 78, 3, 1.00259
166, 2, wb, catch, NA, 999, 999, 8, 7, 194, 121, 150, 105, 117, 78, 1, 0.401611
166, 2, wb, attraction, a-b-da, 14, 3, 8, 8, 120, 195, 181, 111, 195, 120, 2, 2.0874
166, 2, wb, attraction, a-b-da, 14, 3, 8, 8, 120, 195, 181, 111, 195, 120, 1, 0.402874
166, 2, wb, attraction, a-b-db, 2, 2, 8, 9, 90, 165, 165, 90, 89, 163, 3, 1.62478
166, 2, wb, attraction, a-b-db, 2, 2, 8, 9, 90, 165, 165, 90, 89, 163, 1, 0.574109
166, 2, wb, filler, NA, 999, 999, 8, 10, 111, 93, 165, 186, 63, 130, 3, 0.612516
166, 2, wb, filler, NA, 999, 999, 8, 10, 111, 93, 165, 186, 63, 130, 2, 0.546944
166, 2, wb, attraction, a-b-da, 14, 1, 8, 11, 60, 135, 125, 56, 135, 60, 1, 19.3867
166, 2, wb, attraction, a-b-da, 14, 1, 8, 11, 60, 135, 125, 56, 135, 60, 3, 0.612666
166, 2, wb, filler, NA, 999, 999, 8, 12, 176, 177, 174, 172, 170, 68, 2, 1.7217
166, 2, wb, filler, NA, 999, 999, 8, 12, 176, 177, 174, 172, 170, 68, 1, 0.291113
166, 2, wb, attraction, a-b-db, 5, 3, 8, 13, 195, 120, 117, 190, 120, 195, 3, 2.21295
166, 2, wb, attraction, a-b-db, 5, 3, 8, 13, 195, 120, 117, 190, 120, 195, 2, 0.738969
166, 2, wb, filler, NA, 999, 999, 8, 14, 101, 112, 189, 145, 172, 154, 1, 0.555369
166, 2, wb, filler, NA, 999, 999, 8, 14, 101, 112, 189, 145, 172, 154, 2, 1.08397
166, 2, wb, attraction, a-b-db, 9, 1, 8, 15, 60, 135, 135, 60, 57, 129, 2, 1.3981
166, 2, wb, attraction, a-b-db, 9, 1, 8, 15, 60, 135, 135, 60, 57, 129, 1, 0.661035
166, 2, wb, filler, NA, 999, 999, 8, 16, 154, 85, 112, 69, 175, 65, 2, 1.19995
166, 2, wb, filler, NA, 999, 999, 8, 16, 154, 85, 112, 69, 175, 65, 1, 0.326934
166, 2, wb, attraction, a-b-db, 5, 2, 8, 17, 88, 161, 165, 90, 90, 165, 1, 1.10339
166, 2, wb, attraction, a-b-db, 5, 2, 8, 17, 88, 161, 165, 90, 90, 165, 2, 0.569752
166, 2, wb, filler, NA, 999, 999, 8, 18, 160, 66, 183, 161, 72, 92, 3, 2.41679
166, 2, wb, filler, NA, 999, 999, 8, 18, 160, 66, 183, 161, 72, 92, 2, 0.4068
166, 2, wb, attraction, a-b-da, 2, 1, 8, 19, 134, 59, 60, 135, 135, 60, 2, 1.02779
166, 2, wb, attraction, a-b-da, 2, 1, 8, 19, 134, 59, 60, 135, 135, 60, 1, 1.31367
166, 2, wb, attraction, a-b-da, 2, 2, 8, 20, 90, 165, 165, 90, 163, 89, 1, 4.37046
166, 2, wb, attraction, a-b-da, 2, 2, 8, 20, 90, 165, 165, 90, 163, 89, 2, 0.529681
166, 2, wb, attraction, a-b-db, 14, 1, 8, 21, 60, 135, 56, 125, 135, 60, 2, 1.08213
166, 2, wb, attraction, a-b-db, 14, 1, 8, 21, 60, 135, 56, 125, 135, 60, 1, 0.525752
166, 2, wb, catch, NA, 999, 999, 8, 22, 60, 135, 124, 131, 150, 165, 1, 0.678178
166, 2, wb, catch, NA, 999, 999, 8, 22, 60, 135, 124, 131, 150, 165, 3, 1.34594
166, 2, wb, attraction, a-b-da, 5, 1, 8, 23, 60, 135, 135, 60, 132, 58, 2, 11.4095
166, 2, wb, attraction, a-b-da, 5, 1, 8, 23, 60, 135, 135, 60, 132, 58, 1, 0.500618
166, 2, wb, attraction, a-b-da, 5, 3, 8, 24, 120, 195, 190, 117, 195, 120, 1, 1.13427
166, 2, wb, attraction, a-b-da, 5, 3, 8, 24, 120, 195, 190, 117, 195, 120, 3, 0.863959
166, 2, wb, filler, NA, 999, 999, 8, 25, 150, 115, 156, 192, 106, 182, 1, 3.45898
166, 2, wb, filler, NA, 999, 999, 8, 25, 150, 115, 156, 192, 106, 182, 2, 1.11863
166, 2, wb, attraction, a-b-db, 2, 1, 8, 26, 59, 134, 135, 60, 60, 135, 1, 1.04735
166, 2, wb, attraction, a-b-db, 2, 1, 8, 26, 59, 134, 135, 60, 60, 135, 2, 1.9485
166, 2, wb, attraction, a-b-db, 14, 3, 8, 27, 120, 195, 111, 181, 195, 120, 2, 0.635739
166, 2, wb, attraction, a-b-db, 14, 3, 8, 27, 120, 195, 111, 181, 195, 120, 1, 0.441462
166, 2, wb, attraction, a-b-db, 9, 2, 8, 28, 86, 157, 90, 165, 165, 90, 1, 1.8613
166, 2, wb, attraction, a-b-db, 9, 2, 8, 28, 86, 157, 90, 165, 165, 90, 2, 0.761343
166, 2, wb, filler, NA, 999, 999, 8, 29, 148, 184, 88, 142, 165, 161, 2, 0.776405
166, 2, wb, filler, NA, 999, 999, 8, 29, 148, 184, 88, 142, 165, 161, 1, 0.408113
166, 2, wb, attraction, a-b-da, 9, 1, 8, 30, 60, 135, 129, 57, 135, 60, 1, 1.40536
166, 2, wb, attraction, a-b-da, 9, 1, 8, 30, 60, 135, 129, 57, 135, 60, 3, 0.635484
166, 2, wb, filler, NA, 999, 999, 8, 31, 177, 68, 107, 105, 93, 176, 2, 0.647847
166, 2, wb, filler, NA, 999, 999, 8, 31, 177, 68, 107, 105, 93, 176, 3, 0.421037
166, 2, wb, attraction, a-b-da, 5, 2, 8, 32, 165, 90, 90, 165, 161, 88, 2, 0.738167
166, 2, wb, attraction, a-b-da, 5, 2, 8, 32, 165, 90, 90, 165, 161, 88, 1, 0.627175
166, 2, wb, attraction, a-b-da, 9, 3, 8, 33, 120, 195, 186, 114, 195, 120, 2, 2.27963
166, 2, wb, attraction, a-b-da, 9, 3, 8, 33, 120, 195, 186, 114, 195, 120, 1, 0.786952
166, 2, wb, attraction, a-b-da, 14, 2, 8, 34, 165, 90, 90, 165, 153, 83, 3, 1.62529
166, 2, wb, attraction, a-b-da, 14, 2, 8, 34, 165, 90, 90, 165, 153, 83, 1, 1.01469
166, 2, wb, attraction, a-b-db, 14, 2, 8, 35, 165, 90, 90, 165, 83, 153, 3, 8.75233
166, 2, wb, attraction, a-b-db, 14, 2, 8, 35, 165, 90, 90, 165, 83, 153, 2, 1.46627
166, 2, wb, attraction, a-b-db, 9, 3, 8, 36, 195, 120, 114, 186, 120, 195, 2, 2.19703
166, 2, wb, attraction, a-b-db, 9, 3, 8, 36, 195, 120, 114, 186, 120, 195, 3, 0.515662
166, 2, wb, attraction, a-b-db, 5, 1, 8, 37, 58, 132, 135, 60, 60, 135, 1, 0.836756
166, 2, wb, attraction, a-b-db, 5, 1, 8, 37, 58, 132, 135, 60, 60, 135, 3, 1.44192
