sub_n, computer_n, bw_cond, effect, set, distance, diag, block_n, trial_n, h1, w1, h2, w2, h3, w3, choice, rt 
156, 2, wb, practice, NA, 999, 999, 0, 1, 188, 84, 150, 70, 118, 180, 2, 1.65314
156, 2, wb, practice, NA, 999, 999, 0, 1, 188, 84, 150, 70, 118, 180, 3, 1.88972
156, 2, wb, practice, NA, 999, 999, 0, 2, 161, 101, 129, 195, 176, 120, 1, 1.5995
156, 2, wb, practice, NA, 999, 999, 0, 2, 161, 101, 129, 195, 176, 120, 2, 0.895098
156, 2, wb, practice, NA, 999, 999, 0, 3, 121, 135, 59, 79, 177, 126, 2, 1.3966
156, 2, wb, practice, NA, 999, 999, 0, 3, 121, 135, 59, 79, 177, 126, 3, 2.15536
156, 2, wb, attraction, a-b-da, 2, 2, 1, 1, 90, 165, 163, 89, 165, 90, 1, 2.16476
156, 2, wb, attraction, a-b-da, 2, 2, 1, 1, 90, 165, 163, 89, 165, 90, 2, 1.45269
156, 2, wb, attraction, a-b-db, 14, 3, 1, 2, 111, 181, 195, 120, 120, 195, 1, 1.55213
156, 2, wb, attraction, a-b-db, 14, 3, 1, 2, 111, 181, 195, 120, 120, 195, 2, 1.09688
156, 2, wb, attraction, a-b-db, 2, 3, 1, 3, 119, 193, 195, 120, 120, 195, 2, 2.3465
156, 2, wb, attraction, a-b-db, 2, 3, 1, 3, 119, 193, 195, 120, 120, 195, 3, 0.77926
156, 2, wb, attraction, a-b-da, 5, 1, 1, 4, 132, 58, 60, 135, 135, 60, 1, 3.31345
156, 2, wb, attraction, a-b-da, 5, 1, 1, 4, 132, 58, 60, 135, 135, 60, 3, 2.43504
156, 2, wb, filler, NA, 999, 999, 1, 5, 114, 191, 195, 71, 137, 166, 2, 2.72687
156, 2, wb, filler, NA, 999, 999, 1, 5, 114, 191, 195, 71, 137, 166, 3, 0.920067
156, 2, wb, attraction, a-b-db, 14, 1, 1, 6, 135, 60, 56, 125, 60, 135, 2, 3.20908
156, 2, wb, attraction, a-b-db, 14, 1, 1, 6, 135, 60, 56, 125, 60, 135, 1, 0.814733
156, 2, wb, filler, NA, 999, 999, 1, 7, 58, 170, 98, 122, 103, 132, 2, 3.93964
156, 2, wb, filler, NA, 999, 999, 1, 7, 58, 170, 98, 122, 103, 132, 3, 1.89172
156, 2, wb, attraction, a-b-da, 2, 1, 1, 8, 134, 59, 60, 135, 135, 60, 2, 1.33306
156, 2, wb, attraction, a-b-da, 2, 1, 1, 8, 134, 59, 60, 135, 135, 60, 1, 1.26258
156, 2, wb, attraction, a-b-db, 5, 2, 1, 9, 165, 90, 90, 165, 88, 161, 3, 1.80956
156, 2, wb, attraction, a-b-db, 5, 2, 1, 9, 165, 90, 90, 165, 88, 161, 1, 1.07175
156, 2, wb, filler, NA, 999, 999, 1, 10, 60, 118, 100, 164, 107, 81, 1, 1.17058
156, 2, wb, filler, NA, 999, 999, 1, 10, 60, 118, 100, 164, 107, 81, 2, 1.16294
156, 2, wb, attraction, a-b-da, 14, 2, 1, 11, 165, 90, 153, 83, 90, 165, 2, 2.05781
156, 2, wb, attraction, a-b-da, 14, 2, 1, 11, 165, 90, 153, 83, 90, 165, 1, 0.965858
156, 2, wb, attraction, a-b-da, 5, 2, 1, 12, 161, 88, 90, 165, 165, 90, 1, 4.85271
156, 2, wb, attraction, a-b-da, 5, 2, 1, 12, 161, 88, 90, 165, 165, 90, 2, 0.888576
156, 2, wb, attraction, a-b-db, 5, 3, 1, 13, 120, 195, 117, 190, 195, 120, 2, 2.2909
156, 2, wb, attraction, a-b-db, 5, 3, 1, 13, 120, 195, 117, 190, 195, 120, 3, 0.941402
156, 2, wb, attraction, a-b-db, 5, 1, 1, 14, 58, 132, 135, 60, 60, 135, 2, 2.39712
156, 2, wb, attraction, a-b-db, 5, 1, 1, 14, 58, 132, 135, 60, 60, 135, 3, 1.61166
156, 2, wb, attraction, a-b-da, 9, 2, 1, 15, 90, 165, 165, 90, 157, 86, 3, 3.74444
156, 2, wb, attraction, a-b-da, 9, 2, 1, 15, 90, 165, 165, 90, 157, 86, 1, 0.552544
156, 2, wb, filler, NA, 999, 999, 1, 16, 104, 153, 78, 56, 142, 92, 2, 1.48026
156, 2, wb, filler, NA, 999, 999, 1, 16, 104, 153, 78, 56, 142, 92, 1, 0.81174
156, 2, wb, attraction, a-b-db, 2, 2, 1, 17, 89, 163, 90, 165, 165, 90, 1, 2.66487
156, 2, wb, attraction, a-b-db, 2, 2, 1, 17, 89, 163, 90, 165, 165, 90, 3, 1.00467
156, 2, wb, filler, NA, 999, 999, 1, 18, 179, 109, 130, 164, 124, 129, 3, 2.31438
156, 2, wb, filler, NA, 999, 999, 1, 18, 179, 109, 130, 164, 124, 129, 2, 1.39615
156, 2, wb, attraction, a-b-da, 9, 1, 1, 19, 135, 60, 129, 57, 60, 135, 2, 2.7457
156, 2, wb, attraction, a-b-da, 9, 1, 1, 19, 135, 60, 129, 57, 60, 135, 1, 0.698111
156, 2, wb, attraction, a-b-da, 5, 3, 1, 20, 190, 117, 120, 195, 195, 120, 2, 1.6679
156, 2, wb, attraction, a-b-da, 5, 3, 1, 20, 190, 117, 120, 195, 195, 120, 3, 1.59198
156, 2, wb, attraction, a-b-da, 2, 3, 1, 21, 193, 119, 195, 120, 120, 195, 1, 2.82148
156, 2, wb, attraction, a-b-da, 2, 3, 1, 21, 193, 119, 195, 120, 120, 195, 2, 0.602577
156, 2, wb, attraction, a-b-db, 9, 1, 1, 22, 135, 60, 57, 129, 60, 135, 2, 1.66424
156, 2, wb, attraction, a-b-db, 9, 1, 1, 22, 135, 60, 57, 129, 60, 135, 1, 1.37242
156, 2, wb, attraction, a-b-db, 9, 2, 1, 23, 90, 165, 86, 157, 165, 90, 2, 1.49136
156, 2, wb, attraction, a-b-db, 9, 2, 1, 23, 90, 165, 86, 157, 165, 90, 3, 1.00609
156, 2, wb, filler, NA, 999, 999, 1, 24, 129, 110, 178, 124, 158, 165, 1, 0.891007
156, 2, wb, filler, NA, 999, 999, 1, 24, 129, 110, 178, 124, 158, 165, 2, 0.670016
156, 2, wb, attraction, a-b-da, 14, 3, 1, 25, 195, 120, 181, 111, 120, 195, 2, 2.49721
156, 2, wb, attraction, a-b-da, 14, 3, 1, 25, 195, 120, 181, 111, 120, 195, 1, 1.10766
156, 2, wb, filler, NA, 999, 999, 1, 26, 70, 161, 174, 138, 188, 130, 1, 1.52457
156, 2, wb, filler, NA, 999, 999, 1, 26, 70, 161, 174, 138, 188, 130, 3, 1.56608
156, 2, wb, attraction, a-b-da, 14, 1, 1, 27, 135, 60, 125, 56, 60, 135, 2, 1.73285
156, 2, wb, attraction, a-b-da, 14, 1, 1, 27, 135, 60, 125, 56, 60, 135, 1, 0.902282
156, 2, wb, attraction, a-b-db, 14, 2, 1, 28, 83, 153, 165, 90, 90, 165, 1, 1.47997
156, 2, wb, attraction, a-b-db, 14, 2, 1, 28, 83, 153, 165, 90, 90, 165, 3, 0.9795
156, 2, wb, attraction, a-b-db, 2, 1, 1, 29, 60, 135, 135, 60, 59, 134, 1, 2.73779
156, 2, wb, attraction, a-b-db, 2, 1, 1, 29, 60, 135, 135, 60, 59, 134, 2, 0.650934
156, 2, wb, attraction, a-b-da, 9, 3, 1, 30, 120, 195, 195, 120, 186, 114, 1, 4.17456
156, 2, wb, attraction, a-b-da, 9, 3, 1, 30, 120, 195, 195, 120, 186, 114, 2, 0.701298
156, 2, wb, catch, NA, 999, 999, 1, 31, 195, 120, 133, 122, 113, 82, 3, 0.798998
156, 2, wb, catch, NA, 999, 999, 1, 31, 195, 120, 133, 122, 113, 82, 1, 0.894058
156, 2, wb, filler, NA, 999, 999, 1, 32, 95, 182, 155, 157, 113, 161, 1, 2.32769
156, 2, wb, filler, NA, 999, 999, 1, 32, 95, 182, 155, 157, 113, 161, 2, 0.481069
156, 2, wb, catch, NA, 999, 999, 1, 33, 129, 186, 118, 77, 148, 107, 2, 0.603425
156, 2, wb, catch, NA, 999, 999, 1, 33, 129, 186, 118, 77, 148, 107, 1, 0.689868
156, 2, wb, attraction, a-b-db, 9, 3, 1, 34, 120, 195, 114, 186, 195, 120, 2, 2.13166
156, 2, wb, attraction, a-b-db, 9, 3, 1, 34, 120, 195, 114, 186, 195, 120, 3, 0.684966
156, 2, wb, filler, NA, 999, 999, 1, 35, 160, 149, 103, 144, 106, 195, 2, 1.35931
156, 2, wb, filler, NA, 999, 999, 1, 35, 160, 149, 103, 144, 106, 195, 1, 0.487542
156, 2, wb, filler, NA, 999, 999, 1, 36, 73, 87, 60, 74, 166, 97, 2, 1.48202
156, 2, wb, filler, NA, 999, 999, 1, 36, 73, 87, 60, 74, 166, 97, 3, 0.197805
156, 2, wb, catch, NA, 999, 999, 1, 37, 106, 149, 193, 122, 84, 111, 3, 2.6674
156, 2, wb, catch, NA, 999, 999, 1, 37, 106, 149, 193, 122, 84, 111, 2, 0.415177
156, 2, wb, attraction, a-b-db, 9, 1, 2, 1, 135, 60, 57, 129, 60, 135, 2, 1.61233
156, 2, wb, attraction, a-b-db, 9, 1, 2, 1, 135, 60, 57, 129, 60, 135, 1, 0.610619
156, 2, wb, attraction, a-b-db, 5, 2, 2, 2, 90, 165, 165, 90, 88, 161, 2, 3.9516
156, 2, wb, attraction, a-b-db, 5, 2, 2, 2, 90, 165, 165, 90, 88, 161, 1, 1.36759
156, 2, wb, attraction, a-b-da, 5, 3, 2, 3, 195, 120, 120, 195, 190, 117, 3, 1.67042
156, 2, wb, attraction, a-b-da, 5, 3, 2, 3, 195, 120, 120, 195, 190, 117, 1, 0.697997
156, 2, wb, catch, NA, 999, 999, 2, 4, 127, 188, 145, 110, 105, 90, 3, 0.651719
156, 2, wb, catch, NA, 999, 999, 2, 4, 127, 188, 145, 110, 105, 90, 1, 0.712677
156, 2, wb, filler, NA, 999, 999, 2, 5, 156, 189, 107, 170, 63, 174, 3, 0.617784
156, 2, wb, filler, NA, 999, 999, 2, 5, 156, 189, 107, 170, 63, 174, 1, 0.696278
156, 2, wb, filler, NA, 999, 999, 2, 6, 171, 132, 189, 130, 129, 69, 3, 0.505988
156, 2, wb, filler, NA, 999, 999, 2, 6, 171, 132, 189, 130, 129, 69, 2, 0.908524
156, 2, wb, attraction, a-b-db, 2, 1, 2, 7, 60, 135, 135, 60, 59, 134, 2, 1.93345
156, 2, wb, attraction, a-b-db, 2, 1, 2, 7, 60, 135, 135, 60, 59, 134, 3, 0.518811
156, 2, wb, attraction, a-b-da, 9, 3, 2, 8, 195, 120, 186, 114, 120, 195, 2, 1.36789
156, 2, wb, attraction, a-b-da, 9, 3, 2, 8, 195, 120, 186, 114, 120, 195, 1, 0.520141
156, 2, wb, attraction, a-b-da, 5, 2, 2, 9, 165, 90, 90, 165, 161, 88, 1, 1.38531
156, 2, wb, attraction, a-b-da, 5, 2, 2, 9, 165, 90, 90, 165, 161, 88, 2, 0.456807
156, 2, wb, filler, NA, 999, 999, 2, 10, 161, 113, 142, 190, 190, 183, 1, 0.828066
156, 2, wb, filler, NA, 999, 999, 2, 10, 161, 113, 142, 190, 190, 183, 3, 0.601613
156, 2, wb, attraction, a-b-db, 9, 3, 2, 11, 120, 195, 114, 186, 195, 120, 2, 1.47141
156, 2, wb, attraction, a-b-db, 9, 3, 2, 11, 120, 195, 114, 186, 195, 120, 3, 0.762948
156, 2, wb, attraction, a-b-db, 2, 3, 2, 12, 195, 120, 120, 195, 119, 193, 3, 1.26596
156, 2, wb, attraction, a-b-db, 2, 3, 2, 12, 195, 120, 120, 195, 119, 193, 1, 0.486236
156, 2, wb, filler, NA, 999, 999, 2, 13, 137, 77, 75, 185, 84, 81, 3, 1.02465
156, 2, wb, filler, NA, 999, 999, 2, 13, 137, 77, 75, 185, 84, 81, 2, 0.766327
156, 2, wb, attraction, a-b-da, 14, 2, 2, 14, 153, 83, 165, 90, 90, 165, 1, 0.957261
156, 2, wb, attraction, a-b-da, 14, 2, 2, 14, 153, 83, 165, 90, 90, 165, 2, 0.55766
156, 2, wb, attraction, a-b-db, 5, 1, 2, 15, 60, 135, 135, 60, 58, 132, 2, 3.53276
156, 2, wb, attraction, a-b-db, 5, 1, 2, 15, 60, 135, 135, 60, 58, 132, 1, 0.549755
156, 2, wb, filler, NA, 999, 999, 2, 16, 122, 142, 119, 73, 86, 80, 3, 0.669327
156, 2, wb, filler, NA, 999, 999, 2, 16, 122, 142, 119, 73, 86, 80, 1, 0.537783
156, 2, wb, attraction, a-b-db, 5, 3, 2, 17, 120, 195, 117, 190, 195, 120, 2, 1.33026
156, 2, wb, attraction, a-b-db, 5, 3, 2, 17, 120, 195, 117, 190, 195, 120, 3, 0.667921
156, 2, wb, catch, NA, 999, 999, 2, 18, 193, 122, 104, 91, 108, 147, 2, 1.21488
156, 2, wb, catch, NA, 999, 999, 2, 18, 193, 122, 104, 91, 108, 147, 1, 0.645146
156, 2, wb, attraction, a-b-da, 5, 1, 2, 19, 135, 60, 60, 135, 132, 58, 3, 2.33695
156, 2, wb, attraction, a-b-da, 5, 1, 2, 19, 135, 60, 60, 135, 132, 58, 2, 0.842273
156, 2, wb, filler, NA, 999, 999, 2, 20, 190, 101, 121, 138, 76, 164, 3, 1.64587
156, 2, wb, filler, NA, 999, 999, 2, 20, 190, 101, 121, 138, 76, 164, 1, 0.482603
156, 2, wb, attraction, a-b-db, 14, 1, 2, 21, 135, 60, 60, 135, 56, 125, 3, 2.75715
156, 2, wb, attraction, a-b-db, 14, 1, 2, 21, 135, 60, 60, 135, 56, 125, 1, 1.15686
156, 2, wb, filler, NA, 999, 999, 2, 22, 93, 145, 61, 110, 159, 130, 2, 1.13977
156, 2, wb, filler, NA, 999, 999, 2, 22, 93, 145, 61, 110, 159, 130, 3, 0.40475
156, 2, wb, attraction, a-b-db, 14, 3, 2, 23, 195, 120, 120, 195, 111, 181, 3, 3.35458
156, 2, wb, attraction, a-b-db, 14, 3, 2, 23, 195, 120, 120, 195, 111, 181, 1, 0.650139
156, 2, wb, catch, NA, 999, 999, 2, 24, 124, 71, 192, 123, 153, 102, 1, 1.326
156, 2, wb, catch, NA, 999, 999, 2, 24, 124, 71, 192, 123, 153, 102, 2, 0.391435
156, 2, wb, filler, NA, 999, 999, 2, 25, 140, 193, 168, 120, 91, 82, 3, 1.04523
156, 2, wb, filler, NA, 999, 999, 2, 25, 140, 193, 168, 120, 91, 82, 1, 0.370324
156, 2, wb, attraction, a-b-db, 2, 2, 2, 26, 90, 165, 89, 163, 165, 90, 2, 1.25734
156, 2, wb, attraction, a-b-db, 2, 2, 2, 26, 90, 165, 89, 163, 165, 90, 3, 0.597657
156, 2, wb, attraction, a-b-db, 9, 2, 2, 27, 90, 165, 86, 157, 165, 90, 2, 1.22736
156, 2, wb, attraction, a-b-db, 9, 2, 2, 27, 90, 165, 86, 157, 165, 90, 1, 1.44909
156, 2, wb, attraction, a-b-da, 2, 2, 2, 28, 163, 89, 90, 165, 165, 90, 2, 4.04444
156, 2, wb, attraction, a-b-da, 2, 2, 2, 28, 163, 89, 90, 165, 165, 90, 1, 0.968478
156, 2, wb, attraction, a-b-da, 9, 2, 2, 29, 90, 165, 157, 86, 165, 90, 1, 0.831416
156, 2, wb, attraction, a-b-da, 9, 2, 2, 29, 90, 165, 157, 86, 165, 90, 3, 0.677174
156, 2, wb, filler, NA, 999, 999, 2, 30, 71, 144, 76, 68, 176, 71, 2, 0.839498
156, 2, wb, filler, NA, 999, 999, 2, 30, 71, 144, 76, 68, 176, 71, 3, 0.844664
156, 2, wb, attraction, a-b-da, 14, 1, 2, 31, 60, 135, 125, 56, 135, 60, 2, 1.31229
156, 2, wb, attraction, a-b-da, 14, 1, 2, 31, 60, 135, 125, 56, 135, 60, 3, 0.538559
156, 2, wb, attraction, a-b-da, 2, 3, 2, 32, 195, 120, 193, 119, 120, 195, 3, 2.65901
156, 2, wb, attraction, a-b-da, 2, 3, 2, 32, 195, 120, 193, 119, 120, 195, 2, 0.534753
156, 2, wb, attraction, a-b-db, 14, 2, 2, 33, 83, 153, 90, 165, 165, 90, 1, 1.7192
156, 2, wb, attraction, a-b-db, 14, 2, 2, 33, 83, 153, 90, 165, 165, 90, 3, 0.713451
156, 2, wb, attraction, a-b-da, 14, 3, 2, 34, 195, 120, 181, 111, 120, 195, 1, 1.67439
156, 2, wb, attraction, a-b-da, 14, 3, 2, 34, 195, 120, 181, 111, 120, 195, 3, 0.533807
156, 2, wb, attraction, a-b-da, 2, 1, 2, 35, 60, 135, 135, 60, 134, 59, 1, 0.958208
156, 2, wb, attraction, a-b-da, 2, 1, 2, 35, 60, 135, 135, 60, 134, 59, 3, 0.846685
156, 2, wb, attraction, a-b-da, 9, 1, 2, 36, 60, 135, 135, 60, 129, 57, 1, 0.794309
156, 2, wb, attraction, a-b-da, 9, 1, 2, 36, 60, 135, 135, 60, 129, 57, 2, 0.833337
156, 2, wb, filler, NA, 999, 999, 2, 37, 144, 152, 88, 93, 62, 90, 3, 1.58177
156, 2, wb, filler, NA, 999, 999, 2, 37, 144, 152, 88, 93, 62, 90, 1, 0.717184
156, 2, wb, filler, NA, 999, 999, 3, 1, 158, 73, 89, 145, 142, 194, 1, 1.2623
156, 2, wb, filler, NA, 999, 999, 3, 1, 158, 73, 89, 145, 142, 194, 3, 2.17048
156, 2, wb, attraction, a-b-db, 14, 1, 3, 2, 60, 135, 56, 125, 135, 60, 2, 1.32903
156, 2, wb, attraction, a-b-db, 14, 1, 3, 2, 60, 135, 56, 125, 135, 60, 3, 0.770748
156, 2, wb, attraction, a-b-db, 2, 3, 3, 3, 120, 195, 119, 193, 195, 120, 2, 1.92168
156, 2, wb, attraction, a-b-db, 2, 3, 3, 3, 120, 195, 119, 193, 195, 120, 3, 1.63506
156, 2, wb, attraction, a-b-db, 9, 3, 3, 4, 195, 120, 114, 186, 120, 195, 3, 2.39905
156, 2, wb, attraction, a-b-db, 9, 3, 3, 4, 195, 120, 114, 186, 120, 195, 1, 0.981741
156, 2, wb, attraction, a-b-da, 5, 3, 3, 5, 120, 195, 190, 117, 195, 120, 1, 1.33996
156, 2, wb, attraction, a-b-da, 5, 3, 3, 5, 120, 195, 190, 117, 195, 120, 3, 0.468954
156, 2, wb, attraction, a-b-da, 9, 1, 3, 6, 135, 60, 129, 57, 60, 135, 3, 1.65609
156, 2, wb, attraction, a-b-da, 9, 1, 3, 6, 135, 60, 129, 57, 60, 135, 1, 1.10011
156, 2, wb, attraction, a-b-da, 14, 2, 3, 7, 90, 165, 153, 83, 165, 90, 2, 1.73374
156, 2, wb, attraction, a-b-da, 14, 2, 3, 7, 90, 165, 153, 83, 165, 90, 3, 0.567166
156, 2, wb, attraction, a-b-db, 14, 2, 3, 8, 165, 90, 90, 165, 83, 153, 3, 1.89422
156, 2, wb, attraction, a-b-db, 14, 2, 3, 8, 165, 90, 90, 165, 83, 153, 2, 0.736919
156, 2, wb, filler, NA, 999, 999, 3, 9, 139, 136, 64, 120, 187, 76, 2, 1.02547
156, 2, wb, filler, NA, 999, 999, 3, 9, 139, 136, 64, 120, 187, 76, 1, 0.55093
156, 2, wb, filler, NA, 999, 999, 3, 10, 157, 78, 180, 116, 128, 176, 1, 0.942682
156, 2, wb, filler, NA, 999, 999, 3, 10, 157, 78, 180, 116, 128, 176, 2, 0.703864
156, 2, wb, filler, NA, 999, 999, 3, 11, 111, 158, 188, 102, 89, 174, 3, 4.8735
156, 2, wb, filler, NA, 999, 999, 3, 11, 111, 158, 188, 102, 89, 174, 2, 0.595987
156, 2, wb, attraction, a-b-da, 14, 1, 3, 12, 135, 60, 125, 56, 60, 135, 2, 1.85783
156, 2, wb, attraction, a-b-da, 14, 1, 3, 12, 135, 60, 125, 56, 60, 135, 1, 0.933755
156, 2, wb, filler, NA, 999, 999, 3, 13, 183, 138, 115, 173, 113, 60, 3, 0.670106
156, 2, wb, filler, NA, 999, 999, 3, 13, 183, 138, 115, 173, 113, 60, 1, 0.457823
156, 2, wb, attraction, a-b-da, 5, 2, 3, 14, 165, 90, 161, 88, 90, 165, 2, 4.65292
156, 2, wb, attraction, a-b-da, 5, 2, 3, 14, 165, 90, 161, 88, 90, 165, 3, 0.624838
156, 2, wb, filler, NA, 999, 999, 3, 15, 144, 100, 114, 175, 166, 184, 1, 1.10132
156, 2, wb, filler, NA, 999, 999, 3, 15, 144, 100, 114, 175, 166, 184, 3, 0.752311
156, 2, wb, attraction, a-b-db, 2, 1, 3, 16, 60, 135, 59, 134, 135, 60, 2, 2.2719
156, 2, wb, attraction, a-b-db, 2, 1, 3, 16, 60, 135, 59, 134, 135, 60, 3, 0.867127
156, 2, wb, attraction, a-b-da, 2, 2, 3, 17, 163, 89, 165, 90, 90, 165, 3, 1.72627
156, 2, wb, attraction, a-b-da, 2, 2, 3, 17, 163, 89, 165, 90, 90, 165, 2, 0.61565
156, 2, wb, attraction, a-b-db, 5, 2, 3, 18, 90, 165, 88, 161, 165, 90, 3, 2.12468
156, 2, wb, attraction, a-b-db, 5, 2, 3, 18, 90, 165, 88, 161, 165, 90, 2, 0.421968
156, 2, wb, attraction, a-b-db, 9, 1, 3, 19, 135, 60, 57, 129, 60, 135, 2, 1.54715
156, 2, wb, attraction, a-b-db, 9, 1, 3, 19, 135, 60, 57, 129, 60, 135, 1, 0.915975
156, 2, wb, filler, NA, 999, 999, 3, 20, 156, 82, 174, 188, 142, 114, 1, 1.62088
156, 2, wb, filler, NA, 999, 999, 3, 20, 156, 82, 174, 188, 142, 114, 2, 0.322527
156, 2, wb, attraction, a-b-da, 9, 2, 3, 21, 90, 165, 157, 86, 165, 90, 3, 1.02686
156, 2, wb, attraction, a-b-da, 9, 2, 3, 21, 90, 165, 157, 86, 165, 90, 2, 0.824591
156, 2, wb, attraction, a-b-db, 14, 3, 3, 22, 195, 120, 111, 181, 120, 195, 2, 1.51698
156, 2, wb, attraction, a-b-db, 14, 3, 3, 22, 195, 120, 111, 181, 120, 195, 1, 0.423092
156, 2, wb, attraction, a-b-db, 2, 2, 3, 23, 165, 90, 90, 165, 89, 163, 2, 0.899572
156, 2, wb, attraction, a-b-db, 2, 2, 3, 23, 165, 90, 90, 165, 89, 163, 3, 0.542681
156, 2, wb, catch, NA, 999, 999, 3, 24, 109, 86, 111, 144, 151, 164, 1, 0.630291
156, 2, wb, catch, NA, 999, 999, 3, 24, 109, 86, 111, 144, 151, 164, 3, 0.740245
156, 2, wb, attraction, a-b-da, 9, 3, 3, 25, 195, 120, 120, 195, 186, 114, 1, 0.907874
156, 2, wb, attraction, a-b-da, 9, 3, 3, 25, 195, 120, 120, 195, 186, 114, 2, 0.686221
156, 2, wb, filler, NA, 999, 999, 3, 26, 172, 187, 182, 145, 174, 189, 2, 1.59269
156, 2, wb, filler, NA, 999, 999, 3, 26, 172, 187, 182, 145, 174, 189, 3, 2.77546
156, 2, wb, catch, NA, 999, 999, 3, 27, 99, 96, 151, 164, 108, 147, 1, 1.26118
156, 2, wb, catch, NA, 999, 999, 3, 27, 99, 96, 151, 164, 108, 147, 2, 0.441371
156, 2, wb, attraction, a-b-da, 14, 3, 3, 28, 120, 195, 181, 111, 195, 120, 1, 2.87728
156, 2, wb, attraction, a-b-da, 14, 3, 3, 28, 120, 195, 181, 111, 195, 120, 3, 1.09634
156, 2, wb, attraction, a-b-da, 2, 1, 3, 29, 134, 59, 135, 60, 60, 135, 2, 1.70591
156, 2, wb, attraction, a-b-da, 2, 1, 3, 29, 134, 59, 135, 60, 60, 135, 1, 0.636021
156, 2, wb, attraction, a-b-db, 5, 1, 3, 30, 58, 132, 135, 60, 60, 135, 1, 1.10433
156, 2, wb, attraction, a-b-db, 5, 1, 3, 30, 58, 132, 135, 60, 60, 135, 2, 0.442727
156, 2, wb, attraction, a-b-db, 5, 3, 3, 31, 120, 195, 195, 120, 117, 190, 1, 2.78248
156, 2, wb, attraction, a-b-db, 5, 3, 3, 31, 120, 195, 195, 120, 117, 190, 2, 0.397604
156, 2, wb, attraction, a-b-db, 9, 2, 3, 32, 165, 90, 86, 157, 90, 165, 1, 3.44343
156, 2, wb, attraction, a-b-db, 9, 2, 3, 32, 165, 90, 86, 157, 90, 165, 3, 0.439633
156, 2, wb, attraction, a-b-da, 5, 1, 3, 33, 135, 60, 132, 58, 60, 135, 2, 0.995471
156, 2, wb, attraction, a-b-da, 5, 1, 3, 33, 135, 60, 132, 58, 60, 135, 1, 0.474435
156, 2, wb, filler, NA, 999, 999, 3, 34, 65, 132, 139, 188, 70, 84, 3, 1.02893
156, 2, wb, filler, NA, 999, 999, 3, 34, 65, 132, 139, 188, 70, 84, 2, 0.770569
156, 2, wb, filler, NA, 999, 999, 3, 35, 121, 108, 124, 172, 147, 158, 1, 1.32963
156, 2, wb, filler, NA, 999, 999, 3, 35, 121, 108, 124, 172, 147, 158, 3, 0.851197
156, 2, wb, attraction, a-b-da, 2, 3, 3, 36, 120, 195, 195, 120, 193, 119, 2, 1.20673
156, 2, wb, attraction, a-b-da, 2, 3, 3, 36, 120, 195, 195, 120, 193, 119, 3, 0.445102
156, 2, wb, catch, NA, 999, 999, 3, 37, 126, 69, 125, 190, 98, 157, 1, 0.576818
156, 2, wb, catch, NA, 999, 999, 3, 37, 126, 69, 125, 190, 98, 157, 2, 0.376612
156, 2, wb, attraction, a-b-da, 9, 3, 4, 1, 195, 120, 120, 195, 186, 114, 1, 0.903108
156, 2, wb, attraction, a-b-da, 9, 3, 4, 1, 195, 120, 120, 195, 186, 114, 2, 0.353472
156, 2, wb, attraction, a-b-da, 14, 2, 4, 2, 153, 83, 90, 165, 165, 90, 1, 1.27346
156, 2, wb, attraction, a-b-da, 14, 2, 4, 2, 153, 83, 90, 165, 165, 90, 2, 0.372896
156, 2, wb, attraction, a-b-da, 5, 1, 4, 3, 132, 58, 135, 60, 60, 135, 3, 4.58732
156, 2, wb, attraction, a-b-da, 5, 1, 4, 3, 132, 58, 135, 60, 60, 135, 2, 0.47394
156, 2, wb, attraction, a-b-db, 9, 1, 4, 4, 135, 60, 60, 135, 57, 129, 3, 0.940444
156, 2, wb, attraction, a-b-db, 9, 1, 4, 4, 135, 60, 60, 135, 57, 129, 1, 0.605353
156, 2, wb, filler, NA, 999, 999, 4, 5, 107, 56, 97, 189, 67, 118, 1, 1.95513
156, 2, wb, filler, NA, 999, 999, 4, 5, 107, 56, 97, 189, 67, 118, 2, 0.307161
156, 2, wb, filler, NA, 999, 999, 4, 6, 165, 172, 164, 194, 174, 69, 3, 1.04433
156, 2, wb, filler, NA, 999, 999, 4, 6, 165, 172, 164, 194, 174, 69, 2, 0.529499
156, 2, wb, filler, NA, 999, 999, 4, 7, 67, 75, 78, 152, 87, 63, 1, 1.13779
156, 2, wb, filler, NA, 999, 999, 4, 7, 67, 75, 78, 152, 87, 63, 2, 0.362755
156, 2, wb, attraction, a-b-da, 14, 3, 4, 8, 195, 120, 181, 111, 120, 195, 1, 1.49781
156, 2, wb, attraction, a-b-da, 14, 3, 4, 8, 195, 120, 181, 111, 120, 195, 3, 0.884784
156, 2, wb, attraction, a-b-db, 5, 2, 4, 9, 165, 90, 88, 161, 90, 165, 2, 1.11906
156, 2, wb, attraction, a-b-db, 5, 2, 4, 9, 165, 90, 88, 161, 90, 165, 1, 0.617386
156, 2, wb, filler, NA, 999, 999, 4, 10, 130, 176, 146, 64, 94, 120, 3, 1.52639
156, 2, wb, filler, NA, 999, 999, 4, 10, 130, 176, 146, 64, 94, 120, 1, 0.431899
156, 2, wb, attraction, a-b-da, 14, 1, 4, 11, 125, 56, 135, 60, 60, 135, 3, 1.10051
156, 2, wb, attraction, a-b-da, 14, 1, 4, 11, 125, 56, 135, 60, 60, 135, 1, 0.823343
156, 2, wb, attraction, a-b-da, 2, 1, 4, 12, 60, 135, 134, 59, 135, 60, 1, 0.923814
156, 2, wb, attraction, a-b-da, 2, 1, 4, 12, 60, 135, 134, 59, 135, 60, 2, 0.365337
156, 2, wb, filler, NA, 999, 999, 4, 13, 93, 74, 109, 88, 118, 81, 1, 1.22858
156, 2, wb, filler, NA, 999, 999, 4, 13, 93, 74, 109, 88, 118, 81, 3, 0.530168
156, 2, wb, attraction, a-b-db, 14, 2, 4, 14, 83, 153, 165, 90, 90, 165, 2, 0.962587
156, 2, wb, attraction, a-b-db, 14, 2, 4, 14, 83, 153, 165, 90, 90, 165, 3, 0.834869
156, 2, wb, attraction, a-b-da, 5, 3, 4, 15, 190, 117, 120, 195, 195, 120, 2, 0.983352
156, 2, wb, attraction, a-b-da, 5, 3, 4, 15, 190, 117, 120, 195, 195, 120, 1, 1.87891
156, 2, wb, attraction, a-b-da, 9, 2, 4, 16, 157, 86, 165, 90, 90, 165, 1, 1.80909
156, 2, wb, attraction, a-b-da, 9, 2, 4, 16, 157, 86, 165, 90, 90, 165, 2, 0.35909
156, 2, wb, filler, NA, 999, 999, 4, 17, 158, 165, 180, 188, 93, 174, 3, 0.894351
156, 2, wb, filler, NA, 999, 999, 4, 17, 158, 165, 180, 188, 93, 174, 2, 1.08124
156, 2, wb, catch, NA, 999, 999, 4, 18, 114, 81, 181, 134, 123, 132, 1, 1.15546
156, 2, wb, catch, NA, 999, 999, 4, 18, 114, 81, 181, 134, 123, 132, 2, 0.443809
156, 2, wb, attraction, a-b-db, 14, 3, 4, 19, 111, 181, 120, 195, 195, 120, 1, 1.08761
156, 2, wb, attraction, a-b-db, 14, 3, 4, 19, 111, 181, 120, 195, 195, 120, 2, 0.394512
156, 2, wb, filler, NA, 999, 999, 4, 20, 75, 172, 77, 113, 131, 156, 2, 0.84844
156, 2, wb, filler, NA, 999, 999, 4, 20, 75, 172, 77, 113, 131, 156, 3, 0.485546
156, 2, wb, attraction, a-b-db, 5, 3, 4, 21, 195, 120, 117, 190, 120, 195, 3, 0.855929
156, 2, wb, attraction, a-b-db, 5, 3, 4, 21, 195, 120, 117, 190, 120, 195, 2, 0.372262
156, 2, wb, attraction, a-b-da, 2, 3, 4, 22, 195, 120, 193, 119, 120, 195, 3, 1.53935
156, 2, wb, attraction, a-b-da, 2, 3, 4, 22, 195, 120, 193, 119, 120, 195, 2, 0.380299
156, 2, wb, attraction, a-b-db, 9, 3, 4, 23, 195, 120, 114, 186, 120, 195, 2, 2.43476
156, 2, wb, attraction, a-b-db, 9, 3, 4, 23, 195, 120, 114, 186, 120, 195, 1, 0.543953
156, 2, wb, attraction, a-b-da, 5, 2, 4, 24, 165, 90, 161, 88, 90, 165, 3, 1.80774
156, 2, wb, attraction, a-b-da, 5, 2, 4, 24, 165, 90, 161, 88, 90, 165, 2, 0.501759
156, 2, wb, filler, NA, 999, 999, 4, 25, 90, 104, 144, 89, 154, 131, 1, 2.14346
156, 2, wb, filler, NA, 999, 999, 4, 25, 90, 104, 144, 89, 154, 131, 3, 1.11222
156, 2, wb, attraction, a-b-db, 2, 3, 4, 26, 119, 193, 195, 120, 120, 195, 1, 8.24912
156, 2, wb, attraction, a-b-db, 2, 3, 4, 26, 119, 193, 195, 120, 120, 195, 3, 1.17999
156, 2, wb, attraction, a-b-db, 5, 1, 4, 27, 135, 60, 58, 132, 60, 135, 2, 3.39406
156, 2, wb, attraction, a-b-db, 5, 1, 4, 27, 135, 60, 58, 132, 60, 135, 1, 1.03237
156, 2, wb, attraction, a-b-db, 9, 2, 4, 28, 165, 90, 86, 157, 90, 165, 2, 6.86068
156, 2, wb, attraction, a-b-db, 9, 2, 4, 28, 165, 90, 86, 157, 90, 165, 3, 0.743099
156, 2, wb, attraction, a-b-db, 2, 2, 4, 29, 165, 90, 90, 165, 89, 163, 2, 0.646815
156, 2, wb, attraction, a-b-db, 2, 2, 4, 29, 165, 90, 90, 165, 89, 163, 1, 0.483956
156, 2, wb, filler, NA, 999, 999, 4, 30, 175, 65, 80, 153, 157, 113, 1, 1.55837
156, 2, wb, filler, NA, 999, 999, 4, 30, 175, 65, 80, 153, 157, 113, 3, 0.598549
156, 2, wb, catch, NA, 999, 999, 4, 31, 194, 121, 102, 93, 157, 98, 2, 0.748201
156, 2, wb, catch, NA, 999, 999, 4, 31, 194, 121, 102, 93, 157, 98, 1, 0.47737
156, 2, wb, attraction, a-b-db, 2, 1, 4, 32, 59, 134, 60, 135, 135, 60, 1, 0.967759
156, 2, wb, attraction, a-b-db, 2, 1, 4, 32, 59, 134, 60, 135, 135, 60, 3, 0.464146
156, 2, wb, filler, NA, 999, 999, 4, 33, 111, 71, 63, 125, 161, 126, 1, 1.05128
156, 2, wb, filler, NA, 999, 999, 4, 33, 111, 71, 63, 125, 161, 126, 3, 0.368281
156, 2, wb, attraction, a-b-db, 14, 1, 4, 34, 56, 125, 135, 60, 60, 135, 1, 1.48748
156, 2, wb, attraction, a-b-db, 14, 1, 4, 34, 56, 125, 135, 60, 60, 135, 2, 0.386863
156, 2, wb, attraction, a-b-da, 2, 2, 4, 35, 90, 165, 165, 90, 163, 89, 3, 0.937474
156, 2, wb, attraction, a-b-da, 2, 2, 4, 35, 90, 165, 165, 90, 163, 89, 2, 0.762421
156, 2, wb, catch, NA, 999, 999, 4, 36, 116, 139, 172, 143, 107, 88, 3, 1.04144
156, 2, wb, catch, NA, 999, 999, 4, 36, 116, 139, 172, 143, 107, 88, 2, 0.374634
156, 2, wb, attraction, a-b-da, 9, 1, 4, 37, 129, 57, 135, 60, 60, 135, 1, 0.597012
156, 2, wb, attraction, a-b-da, 9, 1, 4, 37, 129, 57, 135, 60, 60, 135, 3, 0.412098
156, 2, wb, filler, NA, 999, 999, 5, 1, 69, 181, 84, 86, 103, 163, 2, 2.1999
156, 2, wb, filler, NA, 999, 999, 5, 1, 69, 181, 84, 86, 103, 163, 3, 0.678487
156, 2, wb, attraction, a-b-db, 5, 2, 5, 2, 165, 90, 90, 165, 88, 161, 3, 2.04088
156, 2, wb, attraction, a-b-db, 5, 2, 5, 2, 165, 90, 90, 165, 88, 161, 1, 0.973503
156, 2, wb, attraction, a-b-db, 9, 2, 5, 3, 165, 90, 90, 165, 86, 157, 3, 2.50782
156, 2, wb, attraction, a-b-db, 9, 2, 5, 3, 165, 90, 90, 165, 86, 157, 1, 1.16572
156, 2, wb, attraction, a-b-da, 14, 3, 5, 4, 181, 111, 195, 120, 120, 195, 1, 1.84454
156, 2, wb, attraction, a-b-da, 14, 3, 5, 4, 181, 111, 195, 120, 120, 195, 2, 0.489266
156, 2, wb, filler, NA, 999, 999, 5, 5, 106, 128, 195, 117, 81, 58, 3, 0.979745
156, 2, wb, filler, NA, 999, 999, 5, 5, 106, 128, 195, 117, 81, 58, 2, 0.49941
156, 2, wb, attraction, a-b-db, 2, 2, 5, 6, 89, 163, 165, 90, 90, 165, 1, 2.73327
156, 2, wb, attraction, a-b-db, 2, 2, 5, 6, 89, 163, 165, 90, 90, 165, 2, 0.878341
156, 2, wb, filler, NA, 999, 999, 5, 7, 64, 186, 112, 157, 173, 140, 1, 1.46466
156, 2, wb, filler, NA, 999, 999, 5, 7, 64, 186, 112, 157, 173, 140, 3, 0.596932
156, 2, wb, attraction, a-b-da, 14, 2, 5, 8, 165, 90, 153, 83, 90, 165, 2, 2.97064
156, 2, wb, attraction, a-b-da, 14, 2, 5, 8, 165, 90, 153, 83, 90, 165, 3, 0.609665
156, 2, wb, attraction, a-b-da, 2, 2, 5, 9, 163, 89, 90, 165, 165, 90, 2, 2.43076
156, 2, wb, attraction, a-b-da, 2, 2, 5, 9, 163, 89, 90, 165, 165, 90, 3, 0.72402
156, 2, wb, attraction, a-b-db, 9, 1, 5, 10, 57, 129, 135, 60, 60, 135, 1, 1.26038
156, 2, wb, attraction, a-b-db, 9, 1, 5, 10, 57, 129, 135, 60, 60, 135, 2, 0.77673
156, 2, wb, filler, NA, 999, 999, 5, 11, 143, 95, 166, 117, 141, 123, 1, 0.990915
156, 2, wb, filler, NA, 999, 999, 5, 11, 143, 95, 166, 117, 141, 123, 2, 0.806065
156, 2, wb, attraction, a-b-db, 5, 1, 5, 12, 58, 132, 60, 135, 135, 60, 1, 3.31495
156, 2, wb, attraction, a-b-db, 5, 1, 5, 12, 58, 132, 60, 135, 135, 60, 3, 0.964633
156, 2, wb, filler, NA, 999, 999, 5, 13, 169, 177, 146, 145, 172, 100, 3, 1.49954
156, 2, wb, filler, NA, 999, 999, 5, 13, 169, 177, 146, 145, 172, 100, 1, 0.53442
156, 2, wb, attraction, a-b-db, 14, 3, 5, 14, 120, 195, 195, 120, 111, 181, 2, 1.23084
156, 2, wb, attraction, a-b-db, 14, 3, 5, 14, 120, 195, 195, 120, 111, 181, 3, 2.02045
156, 2, wb, attraction, a-b-da, 5, 2, 5, 15, 90, 165, 165, 90, 161, 88, 1, 0.801029
156, 2, wb, attraction, a-b-da, 5, 2, 5, 15, 90, 165, 165, 90, 161, 88, 3, 0.720102
156, 2, wb, attraction, a-b-db, 2, 3, 5, 16, 119, 193, 195, 120, 120, 195, 1, 1.41716
156, 2, wb, attraction, a-b-db, 2, 3, 5, 16, 119, 193, 195, 120, 120, 195, 2, 0.447377
156, 2, wb, filler, NA, 999, 999, 5, 17, 125, 169, 171, 104, 162, 162, 1, 1.85122
156, 2, wb, filler, NA, 999, 999, 5, 17, 125, 169, 171, 104, 162, 162, 3, 0.671987
156, 2, wb, catch, NA, 999, 999, 5, 18, 94, 101, 189, 126, 101, 154, 1, 0.682922
156, 2, wb, catch, NA, 999, 999, 5, 18, 94, 101, 189, 126, 101, 154, 2, 0.630682
156, 2, wb, attraction, a-b-db, 5, 3, 5, 19, 120, 195, 195, 120, 117, 190, 3, 1.93111
156, 2, wb, attraction, a-b-db, 5, 3, 5, 19, 120, 195, 195, 120, 117, 190, 2, 0.764501
156, 2, wb, attraction, a-b-da, 9, 2, 5, 20, 90, 165, 157, 86, 165, 90, 2, 1.5955
156, 2, wb, attraction, a-b-da, 9, 2, 5, 20, 90, 165, 157, 86, 165, 90, 3, 0.994325
156, 2, wb, filler, NA, 999, 999, 5, 21, 157, 72, 135, 66, 154, 192, 2, 1.216
156, 2, wb, filler, NA, 999, 999, 5, 21, 157, 72, 135, 66, 154, 192, 3, 0.51826
156, 2, wb, attraction, a-b-da, 2, 1, 5, 22, 134, 59, 135, 60, 60, 135, 1, 1.58336
156, 2, wb, attraction, a-b-da, 2, 1, 5, 22, 134, 59, 135, 60, 60, 135, 3, 0.51088
156, 2, wb, attraction, a-b-db, 14, 1, 5, 23, 60, 135, 135, 60, 56, 125, 3, 1.60792
156, 2, wb, attraction, a-b-db, 14, 1, 5, 23, 60, 135, 135, 60, 56, 125, 2, 0.478024
156, 2, wb, attraction, a-b-da, 2, 3, 5, 24, 195, 120, 193, 119, 120, 195, 3, 1.60854
156, 2, wb, attraction, a-b-da, 2, 3, 5, 24, 195, 120, 193, 119, 120, 195, 2, 0.718785
156, 2, wb, filler, NA, 999, 999, 5, 25, 95, 66, 166, 103, 145, 156, 1, 0.759728
156, 2, wb, filler, NA, 999, 999, 5, 25, 95, 66, 166, 103, 145, 156, 3, 0.736123
156, 2, wb, attraction, a-b-da, 14, 1, 5, 26, 60, 135, 125, 56, 135, 60, 1, 3.72848
156, 2, wb, attraction, a-b-da, 14, 1, 5, 26, 60, 135, 125, 56, 135, 60, 3, 0.601284
156, 2, wb, attraction, a-b-db, 9, 3, 5, 27, 195, 120, 120, 195, 114, 186, 3, 1.15926
156, 2, wb, attraction, a-b-db, 9, 3, 5, 27, 195, 120, 120, 195, 114, 186, 1, 0.543355
156, 2, wb, attraction, a-b-da, 9, 1, 5, 28, 135, 60, 129, 57, 60, 135, 2, 1.16716
156, 2, wb, attraction, a-b-da, 9, 1, 5, 28, 135, 60, 129, 57, 60, 135, 3, 0.543375
156, 2, wb, attraction, a-b-db, 14, 2, 5, 29, 165, 90, 83, 153, 90, 165, 2, 0.887097
156, 2, wb, attraction, a-b-db, 14, 2, 5, 29, 165, 90, 83, 153, 90, 165, 1, 0.546179
156, 2, wb, filler, NA, 999, 999, 5, 30, 126, 125, 148, 112, 129, 94, 3, 1.0501
156, 2, wb, filler, NA, 999, 999, 5, 30, 126, 125, 148, 112, 129, 94, 2, 0.862951
156, 2, wb, attraction, a-b-da, 5, 1, 5, 31, 60, 135, 132, 58, 135, 60, 2, 1.05799
156, 2, wb, attraction, a-b-da, 5, 1, 5, 31, 60, 135, 132, 58, 135, 60, 1, 0.638284
156, 2, wb, catch, NA, 999, 999, 5, 32, 130, 125, 173, 142, 131, 64, 3, 0.730705
156, 2, wb, catch, NA, 999, 999, 5, 32, 130, 125, 173, 142, 131, 64, 2, 0.492436
156, 2, wb, attraction, a-b-db, 2, 1, 5, 33, 59, 134, 135, 60, 60, 135, 2, 1.53426
156, 2, wb, attraction, a-b-db, 2, 1, 5, 33, 59, 134, 135, 60, 60, 135, 3, 0.543729
156, 2, wb, attraction, a-b-da, 9, 3, 5, 34, 186, 114, 120, 195, 195, 120, 2, 1.59955
156, 2, wb, attraction, a-b-da, 9, 3, 5, 34, 186, 114, 120, 195, 195, 120, 1, 0.542247
156, 2, wb, filler, NA, 999, 999, 5, 35, 151, 153, 121, 181, 100, 70, 3, 0.869981
156, 2, wb, filler, NA, 999, 999, 5, 35, 151, 153, 121, 181, 100, 70, 2, 0.4744
156, 2, wb, catch, NA, 999, 999, 5, 36, 122, 193, 130, 125, 63, 132, 3, 0.580801
156, 2, wb, catch, NA, 999, 999, 5, 36, 122, 193, 130, 125, 63, 132, 1, 0.58859
156, 2, wb, attraction, a-b-da, 5, 3, 5, 37, 195, 120, 120, 195, 190, 117, 2, 1.37103
156, 2, wb, attraction, a-b-da, 5, 3, 5, 37, 195, 120, 120, 195, 190, 117, 3, 0.530601
156, 2, wb, attraction, a-b-da, 14, 1, 6, 1, 60, 135, 125, 56, 135, 60, 2, 0.955088
156, 2, wb, attraction, a-b-da, 14, 1, 6, 1, 60, 135, 125, 56, 135, 60, 3, 1.0914
156, 2, wb, attraction, a-b-db, 2, 3, 6, 2, 120, 195, 195, 120, 119, 193, 1, 1.09295
156, 2, wb, attraction, a-b-db, 2, 3, 6, 2, 120, 195, 195, 120, 119, 193, 2, 0.375995
156, 2, wb, filler, NA, 999, 999, 6, 3, 111, 134, 58, 143, 151, 186, 2, 0.870473
156, 2, wb, filler, NA, 999, 999, 6, 3, 111, 134, 58, 143, 151, 186, 3, 0.994134
156, 2, wb, catch, NA, 999, 999, 6, 4, 131, 184, 131, 124, 134, 61, 3, 0.687797
156, 2, wb, catch, NA, 999, 999, 6, 4, 131, 184, 131, 124, 134, 61, 1, 0.538895
156, 2, wb, attraction, a-b-da, 9, 1, 6, 5, 135, 60, 129, 57, 60, 135, 3, 1.46733
156, 2, wb, attraction, a-b-da, 9, 1, 6, 5, 135, 60, 129, 57, 60, 135, 1, 0.695564
156, 2, wb, attraction, a-b-da, 9, 3, 6, 6, 186, 114, 195, 120, 120, 195, 2, 1.60919
156, 2, wb, attraction, a-b-da, 9, 3, 6, 6, 186, 114, 195, 120, 120, 195, 1, 0.831314
156, 2, wb, filler, NA, 999, 999, 6, 7, 136, 162, 73, 159, 88, 60, 3, 0.851686
156, 2, wb, filler, NA, 999, 999, 6, 7, 136, 162, 73, 159, 88, 60, 1, 0.440749
156, 2, wb, attraction, a-b-da, 14, 2, 6, 8, 153, 83, 165, 90, 90, 165, 2, 1.02856
156, 2, wb, attraction, a-b-da, 14, 2, 6, 8, 153, 83, 165, 90, 90, 165, 3, 0.562355
156, 2, wb, filler, NA, 999, 999, 6, 9, 58, 138, 84, 136, 128, 58, 1, 1.94535
156, 2, wb, filler, NA, 999, 999, 6, 9, 58, 138, 84, 136, 128, 58, 2, 0.842113
156, 2, wb, filler, NA, 999, 999, 6, 10, 121, 92, 124, 152, 141, 186, 1, 1.13357
156, 2, wb, filler, NA, 999, 999, 6, 10, 121, 92, 124, 152, 141, 186, 3, 0.519408
156, 2, wb, attraction, a-b-da, 5, 1, 6, 11, 135, 60, 132, 58, 60, 135, 3, 1.08841
156, 2, wb, attraction, a-b-da, 5, 1, 6, 11, 135, 60, 132, 58, 60, 135, 2, 0.555402
156, 2, wb, attraction, a-b-da, 14, 3, 6, 12, 195, 120, 181, 111, 120, 195, 2, 1.4111
156, 2, wb, attraction, a-b-da, 14, 3, 6, 12, 195, 120, 181, 111, 120, 195, 3, 0.737342
156, 2, wb, attraction, a-b-da, 2, 3, 6, 13, 195, 120, 193, 119, 120, 195, 2, 0.889651
156, 2, wb, attraction, a-b-da, 2, 3, 6, 13, 195, 120, 193, 119, 120, 195, 1, 0.540721
156, 2, wb, filler, NA, 999, 999, 6, 14, 141, 159, 145, 174, 140, 80, 3, 0.780586
156, 2, wb, filler, NA, 999, 999, 6, 14, 141, 159, 145, 174, 140, 80, 2, 0.532238
156, 2, wb, attraction, a-b-da, 2, 2, 6, 15, 165, 90, 163, 89, 90, 165, 2, 1.69269
156, 2, wb, attraction, a-b-da, 2, 2, 6, 15, 165, 90, 163, 89, 90, 165, 3, 0.447445
156, 2, wb, attraction, a-b-db, 5, 3, 6, 16, 195, 120, 120, 195, 117, 190, 2, 2.98727
156, 2, wb, attraction, a-b-db, 5, 3, 6, 16, 195, 120, 120, 195, 117, 190, 1, 0.770354
156, 2, wb, attraction, a-b-db, 2, 2, 6, 17, 90, 165, 165, 90, 89, 163, 2, 1.83343
156, 2, wb, attraction, a-b-db, 2, 2, 6, 17, 90, 165, 165, 90, 89, 163, 3, 0.42272
156, 2, wb, attraction, a-b-db, 14, 3, 6, 18, 195, 120, 120, 195, 111, 181, 2, 2.35534
156, 2, wb, attraction, a-b-db, 14, 3, 6, 18, 195, 120, 120, 195, 111, 181, 1, 0.427134
156, 2, wb, filler, NA, 999, 999, 6, 19, 115, 164, 69, 142, 109, 169, 2, 0.511609
156, 2, wb, filler, NA, 999, 999, 6, 19, 115, 164, 69, 142, 109, 169, 1, 1.00209
156, 2, wb, filler, NA, 999, 999, 6, 20, 146, 81, 166, 79, 116, 67, 3, 1.01571
156, 2, wb, filler, NA, 999, 999, 6, 20, 146, 81, 166, 79, 116, 67, 2, 0.93399
156, 2, wb, attraction, a-b-db, 9, 2, 6, 21, 165, 90, 86, 157, 90, 165, 2, 1.53431
156, 2, wb, attraction, a-b-db, 9, 2, 6, 21, 165, 90, 86, 157, 90, 165, 3, 0.535926
156, 2, wb, attraction, a-b-db, 5, 1, 6, 22, 135, 60, 58, 132, 60, 135, 1, 1.62433
156, 2, wb, attraction, a-b-db, 5, 1, 6, 22, 135, 60, 58, 132, 60, 135, 2, 0.765757
156, 2, wb, attraction, a-b-da, 9, 2, 6, 23, 165, 90, 157, 86, 90, 165, 2, 1.22074
156, 2, wb, attraction, a-b-da, 9, 2, 6, 23, 165, 90, 157, 86, 90, 165, 1, 0.634999
156, 2, wb, attraction, a-b-da, 2, 1, 6, 24, 134, 59, 60, 135, 135, 60, 3, 0.79143
156, 2, wb, attraction, a-b-da, 2, 1, 6, 24, 134, 59, 60, 135, 135, 60, 2, 0.574638
156, 2, wb, attraction, a-b-db, 2, 1, 6, 25, 59, 134, 60, 135, 135, 60, 1, 3.43694
156, 2, wb, attraction, a-b-db, 2, 1, 6, 25, 59, 134, 60, 135, 135, 60, 3, 0.537796
156, 2, wb, attraction, a-b-db, 9, 3, 6, 26, 114, 186, 120, 195, 195, 120, 1, 1.18625
156, 2, wb, attraction, a-b-db, 9, 3, 6, 26, 114, 186, 120, 195, 195, 120, 3, 0.946011
156, 2, wb, catch, NA, 999, 999, 6, 27, 164, 151, 115, 80, 132, 123, 2, 1.56953
156, 2, wb, catch, NA, 999, 999, 6, 27, 164, 151, 115, 80, 132, 123, 1, 0.473811
156, 2, wb, attraction, a-b-db, 9, 1, 6, 28, 135, 60, 57, 129, 60, 135, 3, 2.31619
156, 2, wb, attraction, a-b-db, 9, 1, 6, 28, 135, 60, 57, 129, 60, 135, 1, 1.11007
156, 2, wb, attraction, a-b-da, 5, 2, 6, 29, 165, 90, 161, 88, 90, 165, 2, 4.26298
156, 2, wb, attraction, a-b-da, 5, 2, 6, 29, 165, 90, 161, 88, 90, 165, 3, 0.626272
156, 2, wb, filler, NA, 999, 999, 6, 30, 74, 119, 163, 61, 167, 73, 1, 1.67068
156, 2, wb, filler, NA, 999, 999, 6, 30, 74, 119, 163, 61, 167, 73, 3, 0.978169
156, 2, wb, attraction, a-b-db, 14, 1, 6, 31, 60, 135, 135, 60, 56, 125, 1, 3.01648
156, 2, wb, attraction, a-b-db, 14, 1, 6, 31, 60, 135, 135, 60, 56, 125, 2, 0.670125
156, 2, wb, attraction, a-b-da, 5, 3, 6, 32, 120, 195, 195, 120, 190, 117, 1, 3.54522
156, 2, wb, attraction, a-b-da, 5, 3, 6, 32, 120, 195, 195, 120, 190, 117, 2, 0.521381
156, 2, wb, attraction, a-b-db, 5, 2, 6, 33, 90, 165, 88, 161, 165, 90, 2, 1.20254
156, 2, wb, attraction, a-b-db, 5, 2, 6, 33, 90, 165, 88, 161, 165, 90, 3, 0.809415
156, 2, wb, attraction, a-b-db, 14, 2, 6, 34, 90, 165, 165, 90, 83, 153, 3, 1.15052
156, 2, wb, attraction, a-b-db, 14, 2, 6, 34, 90, 165, 165, 90, 83, 153, 2, 0.775422
156, 2, wb, filler, NA, 999, 999, 6, 35, 66, 171, 160, 115, 136, 137, 1, 0.76578
156, 2, wb, filler, NA, 999, 999, 6, 35, 66, 171, 160, 115, 136, 137, 3, 0.462338
156, 2, wb, catch, NA, 999, 999, 6, 36, 116, 139, 140, 175, 91, 104, 3, 0.961408
156, 2, wb, catch, NA, 999, 999, 6, 36, 116, 139, 140, 175, 91, 104, 2, 0.44974
156, 2, wb, filler, NA, 999, 999, 6, 37, 138, 164, 111, 102, 105, 169, 2, 1.34149
156, 2, wb, filler, NA, 999, 999, 6, 37, 138, 164, 111, 102, 105, 169, 1, 0.406441
156, 2, wb, attraction, a-b-db, 9, 2, 7, 1, 86, 157, 90, 165, 165, 90, 2, 4.83554
156, 2, wb, attraction, a-b-db, 9, 2, 7, 1, 86, 157, 90, 165, 165, 90, 3, 0.519966
156, 2, wb, attraction, a-b-db, 2, 2, 7, 2, 90, 165, 165, 90, 89, 163, 1, 2.04903
156, 2, wb, attraction, a-b-db, 2, 2, 7, 2, 90, 165, 165, 90, 89, 163, 2, 0.645724
156, 2, wb, catch, NA, 999, 999, 7, 3, 121, 134, 108, 87, 168, 147, 2, 0.857552
156, 2, wb, catch, NA, 999, 999, 7, 3, 121, 134, 108, 87, 168, 147, 3, 0.565912
156, 2, wb, filler, NA, 999, 999, 7, 4, 72, 179, 57, 73, 60, 82, 2, 1.26891
156, 2, wb, filler, NA, 999, 999, 7, 4, 72, 179, 57, 73, 60, 82, 1, 0.553147
156, 2, wb, filler, NA, 999, 999, 7, 5, 122, 101, 155, 124, 74, 138, 3, 1.11303
156, 2, wb, filler, NA, 999, 999, 7, 5, 122, 101, 155, 124, 74, 138, 2, 0.507215
156, 2, wb, catch, NA, 999, 999, 7, 6, 99, 156, 168, 147, 94, 101, 3, 0.780306
156, 2, wb, catch, NA, 999, 999, 7, 6, 99, 156, 168, 147, 94, 101, 2, 0.468081
156, 2, wb, filler, NA, 999, 999, 7, 7, 140, 115, 123, 143, 82, 171, 1, 3.99925
156, 2, wb, filler, NA, 999, 999, 7, 7, 140, 115, 123, 143, 82, 171, 2, 0.677277
156, 2, wb, attraction, a-b-db, 9, 3, 7, 8, 114, 186, 195, 120, 120, 195, 1, 1.95975
156, 2, wb, attraction, a-b-db, 9, 3, 7, 8, 114, 186, 195, 120, 120, 195, 2, 0.455781
156, 2, wb, attraction, a-b-da, 2, 1, 7, 9, 60, 135, 134, 59, 135, 60, 1, 1.33958
156, 2, wb, attraction, a-b-da, 2, 1, 7, 9, 60, 135, 134, 59, 135, 60, 3, 0.996412
156, 2, wb, filler, NA, 999, 999, 7, 10, 165, 154, 56, 162, 94, 186, 2, 1.32998
156, 2, wb, filler, NA, 999, 999, 7, 10, 165, 154, 56, 162, 94, 186, 1, 0.379587
156, 2, wb, filler, NA, 999, 999, 7, 11, 162, 150, 68, 88, 95, 161, 2, 0.971571
156, 2, wb, filler, NA, 999, 999, 7, 11, 162, 150, 68, 88, 95, 161, 1, 0.489737
156, 2, wb, attraction, a-b-db, 2, 3, 7, 12, 119, 193, 120, 195, 195, 120, 1, 2.45174
156, 2, wb, attraction, a-b-db, 2, 3, 7, 12, 119, 193, 120, 195, 195, 120, 3, 0.4722
156, 2, wb, attraction, a-b-db, 14, 2, 7, 13, 83, 153, 165, 90, 90, 165, 1, 0.899235
156, 2, wb, attraction, a-b-db, 14, 2, 7, 13, 83, 153, 165, 90, 90, 165, 3, 1.15028
156, 2, wb, attraction, a-b-db, 14, 1, 7, 14, 135, 60, 60, 135, 56, 125, 3, 0.941844
156, 2, wb, attraction, a-b-db, 14, 1, 7, 14, 135, 60, 60, 135, 56, 125, 1, 0.478969
156, 2, wb, attraction, a-b-da, 9, 1, 7, 15, 60, 135, 135, 60, 129, 57, 2, 0.969305
156, 2, wb, attraction, a-b-da, 9, 1, 7, 15, 60, 135, 135, 60, 129, 57, 3, 0.473659
156, 2, wb, filler, NA, 999, 999, 7, 16, 134, 109, 87, 146, 190, 170, 2, 1.48411
156, 2, wb, filler, NA, 999, 999, 7, 16, 134, 109, 87, 146, 190, 170, 3, 0.559703
156, 2, wb, attraction, a-b-da, 2, 3, 7, 17, 120, 195, 195, 120, 193, 119, 2, 3.23067
156, 2, wb, attraction, a-b-da, 2, 3, 7, 17, 120, 195, 195, 120, 193, 119, 3, 0.635636
156, 2, wb, attraction, a-b-da, 14, 1, 7, 18, 125, 56, 60, 135, 135, 60, 1, 1.56805
156, 2, wb, attraction, a-b-da, 14, 1, 7, 18, 125, 56, 60, 135, 135, 60, 3, 1.08024
156, 2, wb, filler, NA, 999, 999, 7, 19, 58, 157, 167, 93, 57, 116, 3, 1.15457
156, 2, wb, filler, NA, 999, 999, 7, 19, 58, 157, 167, 93, 57, 116, 2, 0.442804
156, 2, wb, attraction, a-b-da, 2, 2, 7, 20, 90, 165, 163, 89, 165, 90, 1, 2.40652
156, 2, wb, attraction, a-b-da, 2, 2, 7, 20, 90, 165, 163, 89, 165, 90, 3, 0.740541
156, 2, wb, attraction, a-b-da, 14, 2, 7, 21, 90, 165, 153, 83, 165, 90, 2, 1.54017
156, 2, wb, attraction, a-b-da, 14, 2, 7, 21, 90, 165, 153, 83, 165, 90, 3, 0.685006
156, 2, wb, attraction, a-b-da, 5, 1, 7, 22, 60, 135, 135, 60, 132, 58, 2, 2.28733
156, 2, wb, attraction, a-b-da, 5, 1, 7, 22, 60, 135, 135, 60, 132, 58, 3, 0.786003
156, 2, wb, attraction, a-b-da, 5, 3, 7, 23, 120, 195, 195, 120, 190, 117, 1, 3.37634
156, 2, wb, attraction, a-b-da, 5, 3, 7, 23, 120, 195, 195, 120, 190, 117, 2, 0.695272
156, 2, wb, filler, NA, 999, 999, 7, 24, 145, 77, 136, 70, 134, 65, 3, 1.88903
156, 2, wb, filler, NA, 999, 999, 7, 24, 145, 77, 136, 70, 134, 65, 1, 0.51562
156, 2, wb, filler, NA, 999, 999, 7, 25, 164, 64, 89, 176, 66, 86, 3, 0.708851
156, 2, wb, filler, NA, 999, 999, 7, 25, 164, 64, 89, 176, 66, 86, 2, 0.63929
156, 2, wb, attraction, a-b-da, 14, 3, 7, 26, 120, 195, 195, 120, 181, 111, 3, 2.10771
156, 2, wb, attraction, a-b-da, 14, 3, 7, 26, 120, 195, 195, 120, 181, 111, 1, 0.645572
156, 2, wb, attraction, a-b-db, 9, 1, 7, 27, 57, 129, 135, 60, 60, 135, 2, 1.61731
156, 2, wb, attraction, a-b-db, 9, 1, 7, 27, 57, 129, 135, 60, 60, 135, 3, 0.935421
156, 2, wb, attraction, a-b-da, 9, 2, 7, 28, 90, 165, 157, 86, 165, 90, 2, 1.63176
156, 2, wb, attraction, a-b-da, 9, 2, 7, 28, 90, 165, 157, 86, 165, 90, 3, 0.637328
156, 2, wb, attraction, a-b-db, 14, 3, 7, 29, 111, 181, 120, 195, 195, 120, 1, 2.4017
156, 2, wb, attraction, a-b-db, 14, 3, 7, 29, 111, 181, 120, 195, 195, 120, 3, 0.848283
156, 2, wb, attraction, a-b-db, 5, 1, 7, 30, 58, 132, 60, 135, 135, 60, 1, 1.61996
156, 2, wb, attraction, a-b-db, 5, 1, 7, 30, 58, 132, 60, 135, 135, 60, 3, 0.578112
156, 2, wb, filler, NA, 999, 999, 7, 31, 116, 146, 87, 186, 118, 71, 3, 3.43251
156, 2, wb, filler, NA, 999, 999, 7, 31, 116, 146, 87, 186, 118, 71, 2, 0.541366
156, 2, wb, attraction, a-b-da, 5, 2, 7, 32, 165, 90, 161, 88, 90, 165, 2, 2.58917
156, 2, wb, attraction, a-b-da, 5, 2, 7, 32, 165, 90, 161, 88, 90, 165, 3, 0.627707
156, 2, wb, attraction, a-b-db, 5, 2, 7, 33, 88, 161, 165, 90, 90, 165, 2, 2.12836
156, 2, wb, attraction, a-b-db, 5, 2, 7, 33, 88, 161, 165, 90, 90, 165, 3, 0.769337
156, 2, wb, catch, NA, 999, 999, 7, 34, 115, 80, 119, 136, 187, 128, 1, 2.80837
156, 2, wb, catch, NA, 999, 999, 7, 34, 115, 80, 119, 136, 187, 128, 3, 0.606247
156, 2, wb, attraction, a-b-da, 9, 3, 7, 35, 120, 195, 195, 120, 186, 114, 1, 1.20323
156, 2, wb, attraction, a-b-da, 9, 3, 7, 35, 120, 195, 195, 120, 186, 114, 3, 0.761474
156, 2, wb, attraction, a-b-db, 5, 3, 7, 36, 120, 195, 195, 120, 117, 190, 3, 3.77662
156, 2, wb, attraction, a-b-db, 5, 3, 7, 36, 120, 195, 195, 120, 117, 190, 1, 0.519309
156, 2, wb, attraction, a-b-db, 2, 1, 7, 37, 135, 60, 60, 135, 59, 134, 2, 1.32053
156, 2, wb, attraction, a-b-db, 2, 1, 7, 37, 135, 60, 60, 135, 59, 134, 3, 0.890156
156, 2, wb, filler, NA, 999, 999, 8, 1, 152, 126, 65, 141, 102, 108, 2, 3.04381
156, 2, wb, filler, NA, 999, 999, 8, 1, 152, 126, 65, 141, 102, 108, 1, 0.408004
156, 2, wb, attraction, a-b-da, 14, 3, 8, 2, 181, 111, 120, 195, 195, 120, 1, 2.31725
156, 2, wb, attraction, a-b-da, 14, 3, 8, 2, 181, 111, 120, 195, 195, 120, 2, 0.815029
156, 2, wb, attraction, a-b-db, 5, 2, 8, 3, 88, 161, 165, 90, 90, 165, 1, 3.7161
156, 2, wb, attraction, a-b-db, 5, 2, 8, 3, 88, 161, 165, 90, 90, 165, 2, 0.589542
156, 2, wb, filler, NA, 999, 999, 8, 4, 165, 167, 189, 163, 190, 116, 3, 1.8993
156, 2, wb, filler, NA, 999, 999, 8, 4, 165, 167, 189, 163, 190, 116, 2, 3.43806
156, 2, wb, attraction, a-b-da, 14, 2, 8, 5, 90, 165, 153, 83, 165, 90, 2, 1.1136
156, 2, wb, attraction, a-b-da, 14, 2, 8, 5, 90, 165, 153, 83, 165, 90, 3, 0.908045
156, 2, wb, filler, NA, 999, 999, 8, 6, 119, 125, 125, 181, 121, 194, 1, 2.17288
156, 2, wb, filler, NA, 999, 999, 8, 6, 119, 125, 125, 181, 121, 194, 3, 0.780188
156, 2, wb, attraction, a-b-da, 9, 1, 8, 7, 135, 60, 60, 135, 129, 57, 2, 0.986458
156, 2, wb, attraction, a-b-da, 9, 1, 8, 7, 135, 60, 60, 135, 129, 57, 1, 0.634108
156, 2, wb, catch, NA, 999, 999, 8, 8, 113, 142, 158, 157, 75, 120, 3, 0.678563
156, 2, wb, catch, NA, 999, 999, 8, 8, 113, 142, 158, 157, 75, 120, 2, 0.834431
156, 2, wb, filler, NA, 999, 999, 8, 9, 139, 177, 149, 151, 139, 110, 3, 1.13465
156, 2, wb, filler, NA, 999, 999, 8, 9, 139, 177, 149, 151, 139, 110, 1, 0.616254
156, 2, wb, attraction, a-b-db, 2, 2, 8, 10, 90, 165, 89, 163, 165, 90, 2, 1.95746
156, 2, wb, attraction, a-b-db, 2, 2, 8, 10, 90, 165, 89, 163, 165, 90, 3, 0.549577
156, 2, wb, attraction, a-b-db, 14, 1, 8, 11, 60, 135, 135, 60, 56, 125, 3, 1.33322
156, 2, wb, attraction, a-b-db, 14, 1, 8, 11, 60, 135, 135, 60, 56, 125, 2, 0.486812
156, 2, wb, filler, NA, 999, 999, 8, 12, 124, 90, 72, 100, 106, 94, 2, 0.889192
156, 2, wb, filler, NA, 999, 999, 8, 12, 124, 90, 72, 100, 106, 94, 1, 0.676321
156, 2, wb, attraction, a-b-db, 9, 2, 8, 13, 90, 165, 165, 90, 86, 157, 2, 1.70258
156, 2, wb, attraction, a-b-db, 9, 2, 8, 13, 90, 165, 165, 90, 86, 157, 1, 0.457391
156, 2, wb, attraction, a-b-da, 9, 3, 8, 14, 195, 120, 120, 195, 186, 114, 2, 0.700521
156, 2, wb, attraction, a-b-da, 9, 3, 8, 14, 195, 120, 120, 195, 186, 114, 1, 0.99167
156, 2, wb, attraction, a-b-db, 5, 3, 8, 15, 117, 190, 120, 195, 195, 120, 2, 0.965254
156, 2, wb, attraction, a-b-db, 5, 3, 8, 15, 117, 190, 120, 195, 195, 120, 3, 0.469745
156, 2, wb, attraction, a-b-db, 14, 3, 8, 16, 111, 181, 120, 195, 195, 120, 1, 1.08074
156, 2, wb, attraction, a-b-db, 14, 3, 8, 16, 111, 181, 120, 195, 195, 120, 3, 0.548377
156, 2, wb, attraction, a-b-da, 5, 2, 8, 17, 161, 88, 165, 90, 90, 165, 3, 1.58028
156, 2, wb, attraction, a-b-da, 5, 2, 8, 17, 161, 88, 165, 90, 90, 165, 1, 0.619588
156, 2, wb, filler, NA, 999, 999, 8, 18, 191, 144, 173, 145, 153, 186, 2, 1.46473
156, 2, wb, filler, NA, 999, 999, 8, 18, 191, 144, 173, 145, 153, 186, 1, 0.700846
156, 2, wb, attraction, a-b-da, 5, 3, 8, 19, 195, 120, 190, 117, 120, 195, 3, 2.05459
156, 2, wb, attraction, a-b-da, 5, 3, 8, 19, 195, 120, 190, 117, 120, 195, 2, 0.410575
156, 2, wb, attraction, a-b-da, 5, 1, 8, 20, 135, 60, 132, 58, 60, 135, 2, 1.47167
156, 2, wb, attraction, a-b-da, 5, 1, 8, 20, 135, 60, 132, 58, 60, 135, 3, 0.443248
156, 2, wb, catch, NA, 999, 999, 8, 21, 110, 145, 104, 91, 153, 162, 2, 0.559056
156, 2, wb, catch, NA, 999, 999, 8, 21, 110, 145, 104, 91, 153, 162, 3, 0.367488
156, 2, wb, attraction, a-b-db, 2, 1, 8, 22, 135, 60, 60, 135, 59, 134, 2, 1.23069
156, 2, wb, attraction, a-b-db, 2, 1, 8, 22, 135, 60, 60, 135, 59, 134, 3, 0.692321
156, 2, wb, attraction, a-b-da, 2, 3, 8, 23, 193, 119, 195, 120, 120, 195, 2, 1.75803
156, 2, wb, attraction, a-b-da, 2, 3, 8, 23, 193, 119, 195, 120, 120, 195, 1, 0.59008
156, 2, wb, attraction, a-b-db, 5, 1, 8, 24, 135, 60, 60, 135, 58, 132, 2, 1.71595
156, 2, wb, attraction, a-b-db, 5, 1, 8, 24, 135, 60, 60, 135, 58, 132, 3, 0.46996
156, 2, wb, attraction, a-b-db, 9, 3, 8, 25, 120, 195, 114, 186, 195, 120, 2, 1.36907
156, 2, wb, attraction, a-b-db, 9, 3, 8, 25, 120, 195, 114, 186, 195, 120, 1, 0.521236
156, 2, wb, attraction, a-b-db, 14, 2, 8, 26, 83, 153, 165, 90, 90, 165, 3, 1.4024
156, 2, wb, attraction, a-b-db, 14, 2, 8, 26, 83, 153, 165, 90, 90, 165, 1, 0.945348
156, 2, wb, filler, NA, 999, 999, 8, 27, 88, 63, 156, 155, 155, 80, 1, 0.896875
156, 2, wb, filler, NA, 999, 999, 8, 27, 88, 63, 156, 155, 155, 80, 2, 0.332011
156, 2, wb, attraction, a-b-da, 2, 1, 8, 28, 134, 59, 60, 135, 135, 60, 1, 3.88439
156, 2, wb, attraction, a-b-da, 2, 1, 8, 28, 134, 59, 60, 135, 135, 60, 3, 0.903238
156, 2, wb, attraction, a-b-da, 9, 2, 8, 29, 90, 165, 157, 86, 165, 90, 2, 3.16089
156, 2, wb, attraction, a-b-da, 9, 2, 8, 29, 90, 165, 157, 86, 165, 90, 3, 0.480553
156, 2, wb, attraction, a-b-da, 2, 2, 8, 30, 163, 89, 90, 165, 165, 90, 2, 3.96293
156, 2, wb, attraction, a-b-da, 2, 2, 8, 30, 163, 89, 90, 165, 165, 90, 1, 0.626453
156, 2, wb, filler, NA, 999, 999, 8, 31, 190, 189, 172, 177, 114, 96, 3, 0.686816
156, 2, wb, filler, NA, 999, 999, 8, 31, 190, 189, 172, 177, 114, 96, 1, 0.561897
156, 2, wb, attraction, a-b-da, 14, 1, 8, 32, 125, 56, 60, 135, 135, 60, 2, 3.22496
156, 2, wb, attraction, a-b-da, 14, 1, 8, 32, 125, 56, 60, 135, 135, 60, 1, 0.533957
156, 2, wb, filler, NA, 999, 999, 8, 33, 183, 130, 165, 117, 108, 148, 3, 1.05435
156, 2, wb, filler, NA, 999, 999, 8, 33, 183, 130, 165, 117, 108, 148, 1, 0.562736
156, 2, wb, attraction, a-b-db, 2, 3, 8, 34, 120, 195, 119, 193, 195, 120, 2, 1.33785
156, 2, wb, attraction, a-b-db, 2, 3, 8, 34, 120, 195, 119, 193, 195, 120, 3, 0.458851
156, 2, wb, attraction, a-b-db, 9, 1, 8, 35, 135, 60, 60, 135, 57, 129, 3, 1.79792
156, 2, wb, attraction, a-b-db, 9, 1, 8, 35, 135, 60, 60, 135, 57, 129, 1, 0.604584
156, 2, wb, catch, NA, 999, 999, 8, 36, 79, 116, 156, 99, 134, 181, 1, 0.786257
156, 2, wb, catch, NA, 999, 999, 8, 36, 79, 116, 156, 99, 134, 181, 3, 0.322087
156, 2, wb, filler, NA, 999, 999, 8, 37, 65, 142, 64, 145, 151, 140, 2, 3.14738
156, 2, wb, filler, NA, 999, 999, 8, 37, 65, 142, 64, 145, 151, 140, 3, 0.371514
