sub_n, computer_n, bw_cond, effect, set, distance, diag, block_n, trial_n, h1, w1, h2, w2, h3, w3, choice, rt 
18, 2, wb, practice, NA, 999, 999, 0, 1, 181, 85, 146, 81, 65, 135, 3, 4.16632
18, 2, wb, practice, NA, 999, 999, 0, 1, 181, 85, 146, 81, 65, 135, 1, 2.0346
18, 2, wb, practice, NA, 999, 999, 0, 2, 187, 83, 59, 120, 72, 193, 2, 2.37257
18, 2, wb, practice, NA, 999, 999, 0, 2, 187, 83, 59, 120, 72, 193, 1, 11.1942
18, 2, wb, practice, NA, 999, 999, 0, 3, 117, 62, 111, 68, 132, 70, 1, 2.69142
18, 2, wb, practice, NA, 999, 999, 0, 3, 117, 62, 111, 68, 132, 70, 3, 1.48737
18, 2, wb, attraction, a-b-da, 2, 1, 1, 1, 60, 135, 134, 59, 135, 60, 2, 6.89319
18, 2, wb, attraction, a-b-da, 2, 1, 1, 1, 60, 135, 134, 59, 135, 60, 1, 1.91083
18, 2, wb, attraction, a-b-da, 2, 3, 1, 2, 195, 120, 193, 119, 120, 195, 2, 5.81035
18, 2, wb, attraction, a-b-da, 2, 3, 1, 2, 195, 120, 193, 119, 120, 195, 1, 1.92581
18, 2, wb, attraction, a-b-db, 2, 3, 1, 3, 119, 193, 120, 195, 195, 120, 1, 2.83044
18, 2, wb, attraction, a-b-db, 2, 3, 1, 3, 119, 193, 120, 195, 195, 120, 2, 5.11661
18, 2, wb, catch, NA, 999, 999, 1, 4, 115, 140, 81, 114, 191, 124, 2, 1.65984
18, 2, wb, catch, NA, 999, 999, 1, 4, 115, 140, 81, 114, 191, 124, 3, 1.09613
18, 2, wb, attraction, a-b-db, 5, 3, 1, 5, 120, 195, 117, 190, 195, 120, 2, 4.05067
18, 2, wb, attraction, a-b-db, 5, 3, 1, 5, 120, 195, 117, 190, 195, 120, 3, 2.93486
18, 2, wb, attraction, a-b-da, 14, 1, 1, 6, 135, 60, 60, 135, 125, 56, 3, 3.4761
18, 2, wb, attraction, a-b-da, 14, 1, 1, 6, 135, 60, 60, 135, 125, 56, 2, 3.5943
18, 2, wb, attraction, a-b-da, 2, 2, 1, 7, 163, 89, 90, 165, 165, 90, 1, 18.0601
18, 2, wb, attraction, a-b-da, 2, 2, 1, 7, 163, 89, 90, 165, 165, 90, 3, 0.871155
18, 2, wb, attraction, a-b-db, 2, 1, 1, 8, 135, 60, 60, 135, 59, 134, 3, 3.95321
18, 2, wb, attraction, a-b-db, 2, 1, 1, 8, 135, 60, 60, 135, 59, 134, 1, 1.03364
18, 2, wb, attraction, a-b-db, 14, 2, 1, 9, 90, 165, 165, 90, 83, 153, 3, 4.65088
18, 2, wb, attraction, a-b-db, 14, 2, 1, 9, 90, 165, 165, 90, 83, 153, 1, 0.809191
18, 2, wb, filler, NA, 999, 999, 1, 10, 114, 99, 164, 167, 146, 175, 1, 1.61399
18, 2, wb, filler, NA, 999, 999, 1, 10, 114, 99, 164, 167, 146, 175, 2, 0.957361
18, 2, wb, filler, NA, 999, 999, 1, 11, 66, 142, 128, 173, 170, 61, 1, 1.52391
18, 2, wb, filler, NA, 999, 999, 1, 11, 66, 142, 128, 173, 170, 61, 2, 3.19933
18, 2, wb, attraction, a-b-db, 9, 1, 1, 12, 135, 60, 60, 135, 57, 129, 3, 2.37
18, 2, wb, attraction, a-b-db, 9, 1, 1, 12, 135, 60, 60, 135, 57, 129, 1, 3.58837
18, 2, wb, attraction, a-b-da, 5, 3, 1, 13, 190, 117, 195, 120, 120, 195, 2, 16.5435
18, 2, wb, attraction, a-b-da, 5, 3, 1, 13, 190, 117, 195, 120, 120, 195, 1, 1.00371
18, 2, wb, attraction, a-b-da, 9, 3, 1, 14, 120, 195, 195, 120, 186, 114, 3, 11.6682
18, 2, wb, attraction, a-b-da, 9, 3, 1, 14, 120, 195, 195, 120, 186, 114, 1, 1.33984
18, 2, wb, attraction, a-b-db, 5, 1, 1, 15, 135, 60, 60, 135, 58, 132, 3, 3.80261
18, 2, wb, attraction, a-b-db, 5, 1, 1, 15, 135, 60, 60, 135, 58, 132, 1, 1.9312
18, 2, wb, filler, NA, 999, 999, 1, 16, 76, 162, 132, 147, 146, 168, 1, 2.06535
18, 2, wb, filler, NA, 999, 999, 1, 16, 76, 162, 132, 147, 146, 168, 3, 1.01554
18, 2, wb, catch, NA, 999, 999, 1, 17, 154, 161, 113, 142, 108, 87, 3, 1.34875
18, 2, wb, catch, NA, 999, 999, 1, 17, 154, 161, 113, 142, 108, 87, 1, 0.747674
18, 2, wb, attraction, a-b-db, 2, 2, 1, 18, 89, 163, 90, 165, 165, 90, 3, 4.48348
18, 2, wb, attraction, a-b-db, 2, 2, 1, 18, 89, 163, 90, 165, 165, 90, 1, 0.764881
18, 2, wb, attraction, a-b-da, 5, 2, 1, 19, 90, 165, 165, 90, 161, 88, 3, 3.25255
18, 2, wb, attraction, a-b-da, 5, 2, 1, 19, 90, 165, 165, 90, 161, 88, 1, 0.61598
18, 2, wb, attraction, a-b-da, 14, 3, 1, 20, 120, 195, 195, 120, 181, 111, 3, 2.44865
18, 2, wb, attraction, a-b-da, 14, 3, 1, 20, 120, 195, 195, 120, 181, 111, 2, 0.835249
18, 2, wb, filler, NA, 999, 999, 1, 21, 81, 140, 112, 190, 144, 195, 1, 1.31152
18, 2, wb, filler, NA, 999, 999, 1, 21, 81, 140, 112, 190, 144, 195, 3, 0.754987
18, 2, wb, attraction, a-b-da, 9, 2, 1, 22, 157, 86, 165, 90, 90, 165, 1, 2.8584
18, 2, wb, attraction, a-b-da, 9, 2, 1, 22, 157, 86, 165, 90, 90, 165, 3, 0.959621
18, 2, wb, filler, NA, 999, 999, 1, 23, 154, 79, 113, 161, 154, 188, 1, 1.21347
18, 2, wb, filler, NA, 999, 999, 1, 23, 154, 79, 113, 161, 154, 188, 3, 0.700498
18, 2, wb, attraction, a-b-db, 9, 3, 1, 24, 120, 195, 195, 120, 114, 186, 3, 4.51725
18, 2, wb, attraction, a-b-db, 9, 3, 1, 24, 120, 195, 195, 120, 114, 186, 1, 1.09428
18, 2, wb, attraction, a-b-da, 14, 2, 1, 25, 165, 90, 90, 165, 153, 83, 3, 2.89668
18, 2, wb, attraction, a-b-da, 14, 2, 1, 25, 165, 90, 90, 165, 153, 83, 1, 1.20375
18, 2, wb, filler, NA, 999, 999, 1, 26, 164, 137, 82, 186, 182, 79, 3, 4.23362
18, 2, wb, filler, NA, 999, 999, 1, 26, 164, 137, 82, 186, 182, 79, 1, 0.908802
18, 2, wb, attraction, a-b-db, 5, 2, 1, 27, 165, 90, 90, 165, 88, 161, 1, 3.42272
18, 2, wb, attraction, a-b-db, 5, 2, 1, 27, 165, 90, 90, 165, 88, 161, 2, 5.52439
18, 2, wb, attraction, a-b-db, 9, 2, 1, 28, 86, 157, 165, 90, 90, 165, 1, 2.75049
18, 2, wb, attraction, a-b-db, 9, 2, 1, 28, 86, 157, 165, 90, 90, 165, 2, 2.95104
18, 2, wb, attraction, a-b-da, 5, 1, 1, 29, 60, 135, 135, 60, 132, 58, 1, 11.4616
18, 2, wb, attraction, a-b-da, 5, 1, 1, 29, 60, 135, 135, 60, 132, 58, 2, 1.03795
18, 2, wb, attraction, a-b-da, 9, 1, 1, 30, 60, 135, 129, 57, 135, 60, 2, 1.76255
18, 2, wb, attraction, a-b-da, 9, 1, 1, 30, 60, 135, 129, 57, 135, 60, 1, 0.8496
18, 2, wb, filler, NA, 999, 999, 1, 31, 133, 81, 76, 156, 124, 120, 1, 1.90889
18, 2, wb, filler, NA, 999, 999, 1, 31, 133, 81, 76, 156, 124, 120, 3, 0.710555
18, 2, wb, attraction, a-b-db, 14, 3, 1, 32, 111, 181, 195, 120, 120, 195, 1, 2.37758
18, 2, wb, attraction, a-b-db, 14, 3, 1, 32, 111, 181, 195, 120, 120, 195, 3, 0.707662
18, 2, wb, catch, NA, 999, 999, 1, 33, 89, 106, 131, 184, 122, 133, 1, 1.22634
18, 2, wb, catch, NA, 999, 999, 1, 33, 89, 106, 131, 184, 122, 133, 2, 0.688868
18, 2, wb, filler, NA, 999, 999, 1, 34, 165, 58, 122, 140, 149, 192, 1, 1.54041
18, 2, wb, filler, NA, 999, 999, 1, 34, 165, 58, 122, 140, 149, 192, 3, 0.614231
18, 2, wb, attraction, a-b-db, 14, 1, 1, 35, 60, 135, 135, 60, 56, 125, 3, 1.6815
18, 2, wb, attraction, a-b-db, 14, 1, 1, 35, 60, 135, 135, 60, 56, 125, 1, 2.7499
18, 2, wb, filler, NA, 999, 999, 1, 36, 71, 91, 115, 128, 184, 88, 1, 1.17221
18, 2, wb, filler, NA, 999, 999, 1, 36, 71, 91, 115, 128, 184, 88, 3, 1.01161
18, 2, wb, filler, NA, 999, 999, 1, 37, 70, 161, 159, 150, 120, 59, 3, 1.6349
18, 2, wb, filler, NA, 999, 999, 1, 37, 70, 161, 159, 150, 120, 59, 2, 0.767804
18, 2, wb, filler, NA, 999, 999, 2, 1, 139, 189, 101, 186, 164, 136, 2, 3.55196
18, 2, wb, filler, NA, 999, 999, 2, 1, 139, 189, 101, 186, 164, 136, 1, 1.61562
18, 2, wb, attraction, a-b-da, 9, 3, 2, 2, 195, 120, 120, 195, 186, 114, 3, 2.36462
18, 2, wb, attraction, a-b-da, 9, 3, 2, 2, 195, 120, 120, 195, 186, 114, 1, 1.85223
18, 2, wb, catch, NA, 999, 999, 2, 3, 129, 126, 112, 83, 192, 123, 2, 1.48815
18, 2, wb, catch, NA, 999, 999, 2, 3, 129, 126, 112, 83, 192, 123, 3, 1.04194
18, 2, wb, attraction, a-b-db, 9, 1, 2, 4, 57, 129, 135, 60, 60, 135, 1, 8.34593
18, 2, wb, attraction, a-b-db, 9, 1, 2, 4, 57, 129, 135, 60, 60, 135, 3, 0.774779
18, 2, wb, catch, NA, 999, 999, 2, 5, 61, 134, 147, 108, 126, 189, 1, 1.57192
18, 2, wb, catch, NA, 999, 999, 2, 5, 61, 134, 147, 108, 126, 189, 3, 0.735213
18, 2, wb, attraction, a-b-da, 2, 1, 2, 6, 134, 59, 60, 135, 135, 60, 1, 8.57998
18, 2, wb, attraction, a-b-da, 2, 1, 2, 6, 134, 59, 60, 135, 135, 60, 2, 0.777772
18, 2, wb, attraction, a-b-da, 5, 2, 2, 7, 90, 165, 161, 88, 165, 90, 2, 5.75467
18, 2, wb, attraction, a-b-da, 5, 2, 2, 7, 90, 165, 161, 88, 165, 90, 1, 0.608405
18, 2, wb, attraction, a-b-db, 2, 2, 2, 8, 89, 163, 165, 90, 90, 165, 2, 2.95022
18, 2, wb, attraction, a-b-db, 2, 2, 2, 8, 89, 163, 165, 90, 90, 165, 1, 1.41366
18, 2, wb, attraction, a-b-da, 9, 2, 2, 9, 157, 86, 165, 90, 90, 165, 1, 7.2198
18, 2, wb, attraction, a-b-da, 9, 2, 2, 9, 157, 86, 165, 90, 90, 165, 3, 0.747162
18, 2, wb, filler, NA, 999, 999, 2, 10, 59, 119, 81, 186, 80, 194, 1, 1.70546
18, 2, wb, filler, NA, 999, 999, 2, 10, 59, 119, 81, 186, 80, 194, 2, 4.41148
18, 2, wb, attraction, a-b-db, 2, 1, 2, 11, 59, 134, 135, 60, 60, 135, 1, 1.77706
18, 2, wb, attraction, a-b-db, 2, 1, 2, 11, 59, 134, 135, 60, 60, 135, 3, 1.96078
18, 2, wb, attraction, a-b-db, 14, 3, 2, 12, 195, 120, 111, 181, 120, 195, 2, 2.7979
18, 2, wb, attraction, a-b-db, 14, 3, 2, 12, 195, 120, 111, 181, 120, 195, 1, 0.916967
18, 2, wb, filler, NA, 999, 999, 2, 13, 131, 141, 181, 76, 68, 78, 3, 1.75939
18, 2, wb, filler, NA, 999, 999, 2, 13, 131, 141, 181, 76, 68, 78, 1, 0.582343
18, 2, wb, filler, NA, 999, 999, 2, 14, 173, 133, 123, 70, 157, 73, 2, 1.77385
18, 2, wb, filler, NA, 999, 999, 2, 14, 173, 133, 123, 70, 157, 73, 1, 0.701387
18, 2, wb, attraction, a-b-da, 5, 3, 2, 15, 120, 195, 195, 120, 190, 117, 3, 18.9598
18, 2, wb, attraction, a-b-da, 5, 3, 2, 15, 120, 195, 195, 120, 190, 117, 1, 0.761549
18, 2, wb, attraction, a-b-da, 2, 3, 2, 16, 120, 195, 193, 119, 195, 120, 2, 13.2106
18, 2, wb, attraction, a-b-da, 2, 3, 2, 16, 120, 195, 193, 119, 195, 120, 1, 0.62025
18, 2, wb, attraction, a-b-da, 9, 1, 2, 17, 135, 60, 60, 135, 129, 57, 3, 3.20286
18, 2, wb, attraction, a-b-da, 9, 1, 2, 17, 135, 60, 60, 135, 129, 57, 2, 0.719537
18, 2, wb, filler, NA, 999, 999, 2, 18, 186, 154, 124, 117, 108, 61, 3, 1.2828
18, 2, wb, filler, NA, 999, 999, 2, 18, 186, 154, 124, 117, 108, 61, 1, 0.701556
18, 2, wb, attraction, a-b-db, 9, 2, 2, 19, 86, 157, 90, 165, 165, 90, 1, 2.01634
18, 2, wb, attraction, a-b-db, 9, 2, 2, 19, 86, 157, 90, 165, 165, 90, 3, 0.70998
18, 2, wb, attraction, a-b-db, 14, 1, 2, 20, 60, 135, 56, 125, 135, 60, 3, 1.97588
18, 2, wb, attraction, a-b-db, 14, 1, 2, 20, 60, 135, 56, 125, 135, 60, 1, 0.751161
18, 2, wb, attraction, a-b-db, 5, 3, 2, 21, 120, 195, 117, 190, 195, 120, 1, 2.72694
18, 2, wb, attraction, a-b-db, 5, 3, 2, 21, 120, 195, 117, 190, 195, 120, 3, 2.01767
18, 2, wb, attraction, a-b-db, 2, 3, 2, 22, 195, 120, 119, 193, 120, 195, 1, 31.7178
18, 2, wb, attraction, a-b-db, 2, 3, 2, 22, 195, 120, 119, 193, 120, 195, 3, 0.694061
18, 2, wb, attraction, a-b-db, 14, 2, 2, 23, 165, 90, 83, 153, 90, 165, 2, 1.40918
18, 2, wb, attraction, a-b-db, 14, 2, 2, 23, 165, 90, 83, 153, 90, 165, 1, 1.03942
18, 2, wb, attraction, a-b-da, 14, 2, 2, 24, 165, 90, 90, 165, 153, 83, 3, 1.86811
18, 2, wb, attraction, a-b-da, 14, 2, 2, 24, 165, 90, 90, 165, 153, 83, 1, 0.735749
18, 2, wb, filler, NA, 999, 999, 2, 25, 75, 109, 168, 174, 159, 76, 1, 1.22395
18, 2, wb, filler, NA, 999, 999, 2, 25, 75, 109, 168, 174, 159, 76, 2, 0.576788
18, 2, wb, attraction, a-b-db, 9, 3, 2, 26, 195, 120, 114, 186, 120, 195, 3, 4.00447
18, 2, wb, attraction, a-b-db, 9, 3, 2, 26, 195, 120, 114, 186, 120, 195, 1, 0.740999
18, 2, wb, filler, NA, 999, 999, 2, 27, 145, 88, 151, 112, 174, 164, 1, 3.16404
18, 2, wb, filler, NA, 999, 999, 2, 27, 145, 88, 151, 112, 174, 164, 3, 0.745921
18, 2, wb, attraction, a-b-db, 5, 2, 2, 28, 88, 161, 90, 165, 165, 90, 3, 6.0463
18, 2, wb, attraction, a-b-db, 5, 2, 2, 28, 88, 161, 90, 165, 165, 90, 2, 0.624511
18, 2, wb, attraction, a-b-da, 5, 1, 2, 29, 135, 60, 60, 135, 132, 58, 3, 6.76608
18, 2, wb, attraction, a-b-da, 5, 1, 2, 29, 135, 60, 60, 135, 132, 58, 2, 0.626095
18, 2, wb, attraction, a-b-da, 14, 1, 2, 30, 125, 56, 135, 60, 60, 135, 1, 5.77664
18, 2, wb, attraction, a-b-da, 14, 1, 2, 30, 125, 56, 135, 60, 60, 135, 2, 0.9752
18, 2, wb, filler, NA, 999, 999, 2, 31, 97, 61, 109, 101, 170, 139, 1, 1.24467
18, 2, wb, filler, NA, 999, 999, 2, 31, 97, 61, 109, 101, 170, 139, 3, 0.73224
18, 2, wb, attraction, a-b-da, 2, 2, 2, 32, 165, 90, 163, 89, 90, 165, 2, 10.5953
18, 2, wb, attraction, a-b-da, 2, 2, 2, 32, 165, 90, 163, 89, 90, 165, 3, 0.646494
18, 2, wb, attraction, a-b-db, 5, 1, 2, 33, 135, 60, 58, 132, 60, 135, 3, 2.29927
18, 2, wb, attraction, a-b-db, 5, 1, 2, 33, 135, 60, 58, 132, 60, 135, 1, 0.686851
18, 2, wb, catch, NA, 999, 999, 2, 34, 135, 180, 125, 70, 106, 149, 2, 1.24865
18, 2, wb, catch, NA, 999, 999, 2, 34, 135, 180, 125, 70, 106, 149, 1, 0.599779
18, 2, wb, filler, NA, 999, 999, 2, 35, 99, 96, 76, 78, 164, 133, 2, 1.3157
18, 2, wb, filler, NA, 999, 999, 2, 35, 99, 96, 76, 78, 164, 133, 3, 0.576479
18, 2, wb, attraction, a-b-da, 14, 3, 2, 36, 120, 195, 181, 111, 195, 120, 2, 6.02827
18, 2, wb, attraction, a-b-da, 14, 3, 2, 36, 120, 195, 181, 111, 195, 120, 3, 0.682844
18, 2, wb, filler, NA, 999, 999, 2, 37, 106, 83, 59, 171, 59, 104, 3, 1.37876
18, 2, wb, filler, NA, 999, 999, 2, 37, 106, 83, 59, 171, 59, 104, 1, 0.754885
18, 2, wb, filler, NA, 999, 999, 3, 1, 70, 144, 166, 85, 71, 109, 3, 1.3963
18, 2, wb, filler, NA, 999, 999, 3, 1, 70, 144, 166, 85, 71, 109, 1, 0.712895
18, 2, wb, attraction, a-b-da, 14, 1, 3, 2, 135, 60, 60, 135, 125, 56, 3, 1.98075
18, 2, wb, attraction, a-b-da, 14, 1, 3, 2, 135, 60, 60, 135, 125, 56, 1, 2.56338
18, 2, wb, attraction, a-b-da, 5, 1, 3, 3, 60, 135, 135, 60, 132, 58, 2, 5.9145
18, 2, wb, attraction, a-b-da, 5, 1, 3, 3, 60, 135, 135, 60, 132, 58, 1, 0.668091
18, 2, wb, attraction, a-b-db, 14, 1, 3, 4, 60, 135, 135, 60, 56, 125, 3, 2.21409
18, 2, wb, attraction, a-b-db, 14, 1, 3, 4, 60, 135, 135, 60, 56, 125, 1, 1.06688
18, 2, wb, attraction, a-b-da, 9, 3, 3, 5, 195, 120, 120, 195, 186, 114, 3, 2.0707
18, 2, wb, attraction, a-b-da, 9, 3, 3, 5, 195, 120, 120, 195, 186, 114, 1, 0.683157
18, 2, wb, catch, NA, 999, 999, 3, 6, 80, 115, 156, 99, 140, 175, 1, 1.1738
18, 2, wb, catch, NA, 999, 999, 3, 6, 80, 115, 156, 99, 140, 175, 3, 0.687696
18, 2, wb, attraction, a-b-db, 2, 3, 3, 7, 120, 195, 119, 193, 195, 120, 1, 1.51382
18, 2, wb, attraction, a-b-db, 2, 3, 3, 7, 120, 195, 119, 193, 195, 120, 3, 0.778055
18, 2, wb, filler, NA, 999, 999, 3, 8, 164, 164, 183, 157, 176, 105, 3, 1.41837
18, 2, wb, filler, NA, 999, 999, 3, 8, 164, 164, 183, 157, 176, 105, 2, 0.753361
18, 2, wb, attraction, a-b-db, 5, 1, 3, 9, 135, 60, 60, 135, 58, 132, 3, 1.76812
18, 2, wb, attraction, a-b-db, 5, 1, 3, 9, 135, 60, 60, 135, 58, 132, 1, 0.984173
18, 2, wb, attraction, a-b-da, 14, 3, 3, 10, 195, 120, 120, 195, 181, 111, 3, 2.43132
18, 2, wb, attraction, a-b-da, 14, 3, 3, 10, 195, 120, 120, 195, 181, 111, 2, 0.690603
18, 2, wb, filler, NA, 999, 999, 3, 11, 165, 171, 142, 184, 143, 131, 3, 1.39021
18, 2, wb, filler, NA, 999, 999, 3, 11, 165, 171, 142, 184, 143, 131, 2, 1.57206
18, 2, wb, filler, NA, 999, 999, 3, 12, 194, 88, 178, 192, 172, 178, 1, 1.39738
18, 2, wb, filler, NA, 999, 999, 3, 12, 194, 88, 178, 192, 172, 178, 2, 0.924374
18, 2, wb, attraction, a-b-db, 14, 2, 3, 13, 165, 90, 90, 165, 83, 153, 3, 1.2993
18, 2, wb, attraction, a-b-db, 14, 2, 3, 13, 165, 90, 90, 165, 83, 153, 1, 0.798449
18, 2, wb, attraction, a-b-db, 9, 2, 3, 14, 86, 157, 165, 90, 90, 165, 1, 19.0119
18, 2, wb, attraction, a-b-db, 9, 2, 3, 14, 86, 157, 165, 90, 90, 165, 2, 1.05199
18, 2, wb, attraction, a-b-da, 2, 1, 3, 15, 135, 60, 134, 59, 60, 135, 3, 2.27314
18, 2, wb, attraction, a-b-da, 2, 1, 3, 15, 135, 60, 134, 59, 60, 135, 2, 0.950068
18, 2, wb, attraction, a-b-db, 14, 3, 3, 16, 195, 120, 111, 181, 120, 195, 2, 2.99007
18, 2, wb, attraction, a-b-db, 14, 3, 3, 16, 195, 120, 111, 181, 120, 195, 1, 0.734173
18, 2, wb, attraction, a-b-da, 2, 2, 3, 17, 163, 89, 165, 90, 90, 165, 2, 8.60584
18, 2, wb, attraction, a-b-da, 2, 2, 3, 17, 163, 89, 165, 90, 90, 165, 3, 0.616107
18, 2, wb, attraction, a-b-da, 5, 3, 3, 18, 190, 117, 195, 120, 120, 195, 3, 20.6128
18, 2, wb, attraction, a-b-da, 5, 3, 3, 18, 190, 117, 195, 120, 120, 195, 2, 0.565904
18, 2, wb, filler, NA, 999, 999, 3, 19, 181, 137, 89, 120, 126, 56, 3, 1.28674
18, 2, wb, filler, NA, 999, 999, 3, 19, 181, 137, 89, 120, 126, 56, 1, 0.591893
18, 2, wb, attraction, a-b-da, 14, 2, 3, 20, 90, 165, 165, 90, 153, 83, 1, 2.92066
18, 2, wb, attraction, a-b-da, 14, 2, 3, 20, 90, 165, 165, 90, 153, 83, 3, 1.01108
18, 2, wb, attraction, a-b-da, 2, 3, 3, 21, 195, 120, 193, 119, 120, 195, 1, 2.99107
18, 2, wb, attraction, a-b-da, 2, 3, 3, 21, 195, 120, 193, 119, 120, 195, 3, 0.607702
18, 2, wb, filler, NA, 999, 999, 3, 22, 59, 138, 157, 171, 86, 116, 1, 3.46887
18, 2, wb, filler, NA, 999, 999, 3, 22, 59, 138, 157, 171, 86, 116, 2, 0.616303
18, 2, wb, catch, NA, 999, 999, 3, 23, 194, 121, 122, 73, 140, 115, 2, 1.11906
18, 2, wb, catch, NA, 999, 999, 3, 23, 194, 121, 122, 73, 140, 115, 1, 0.720951
18, 2, wb, attraction, a-b-db, 2, 2, 3, 24, 89, 163, 90, 165, 165, 90, 1, 3.40801
18, 2, wb, attraction, a-b-db, 2, 2, 3, 24, 89, 163, 90, 165, 165, 90, 3, 0.671796
18, 2, wb, attraction, a-b-db, 2, 1, 3, 25, 135, 60, 60, 135, 59, 134, 3, 2.41804
18, 2, wb, attraction, a-b-db, 2, 1, 3, 25, 135, 60, 60, 135, 59, 134, 1, 0.720177
18, 2, wb, attraction, a-b-db, 5, 2, 3, 26, 165, 90, 90, 165, 88, 161, 3, 4.1043
18, 2, wb, attraction, a-b-db, 5, 2, 3, 26, 165, 90, 90, 165, 88, 161, 1, 0.594376
18, 2, wb, attraction, a-b-db, 9, 1, 3, 27, 135, 60, 57, 129, 60, 135, 2, 8.24139
18, 2, wb, attraction, a-b-db, 9, 1, 3, 27, 135, 60, 57, 129, 60, 135, 1, 1.45176
18, 2, wb, filler, NA, 999, 999, 3, 28, 71, 141, 74, 167, 190, 97, 1, 2.4139
18, 2, wb, filler, NA, 999, 999, 3, 28, 71, 141, 74, 167, 190, 97, 3, 0.622989
18, 2, wb, attraction, a-b-da, 9, 1, 3, 29, 129, 57, 60, 135, 135, 60, 1, 2.85004
18, 2, wb, attraction, a-b-da, 9, 1, 3, 29, 129, 57, 60, 135, 135, 60, 2, 0.72757
18, 2, wb, attraction, a-b-db, 9, 3, 3, 30, 120, 195, 195, 120, 114, 186, 3, 3.4247
18, 2, wb, attraction, a-b-db, 9, 3, 3, 30, 120, 195, 195, 120, 114, 186, 2, 0.924314
18, 2, wb, catch, NA, 999, 999, 3, 31, 121, 194, 126, 69, 161, 94, 2, 1.06976
18, 2, wb, catch, NA, 999, 999, 3, 31, 121, 194, 126, 69, 161, 94, 1, 0.883061
18, 2, wb, attraction, a-b-da, 9, 2, 3, 32, 165, 90, 157, 86, 90, 165, 2, 2.05378
18, 2, wb, attraction, a-b-da, 9, 2, 3, 32, 165, 90, 157, 86, 90, 165, 3, 0.594749
18, 2, wb, filler, NA, 999, 999, 3, 33, 99, 99, 83, 62, 79, 70, 2, 1.96814
18, 2, wb, filler, NA, 999, 999, 3, 33, 99, 99, 83, 62, 79, 70, 1, 0.736183
18, 2, wb, attraction, a-b-db, 5, 3, 3, 34, 120, 195, 117, 190, 195, 120, 2, 4.81806
18, 2, wb, attraction, a-b-db, 5, 3, 3, 34, 120, 195, 117, 190, 195, 120, 3, 0.687974
18, 2, wb, filler, NA, 999, 999, 3, 35, 118, 67, 131, 159, 163, 147, 1, 1.10353
18, 2, wb, filler, NA, 999, 999, 3, 35, 118, 67, 131, 159, 163, 147, 2, 0.724015
18, 2, wb, attraction, a-b-da, 5, 2, 3, 36, 165, 90, 161, 88, 90, 165, 2, 2.43584
18, 2, wb, attraction, a-b-da, 5, 2, 3, 36, 165, 90, 161, 88, 90, 165, 3, 0.665874
18, 2, wb, filler, NA, 999, 999, 3, 37, 195, 103, 115, 84, 91, 79, 3, 1.1492
18, 2, wb, filler, NA, 999, 999, 3, 37, 195, 103, 115, 84, 91, 79, 1, 0.725331
18, 2, wb, filler, NA, 999, 999, 4, 1, 61, 84, 173, 180, 159, 174, 1, 1.01375
18, 2, wb, filler, NA, 999, 999, 4, 1, 61, 84, 173, 180, 159, 174, 2, 0.756695
18, 2, wb, attraction, a-b-db, 9, 2, 4, 2, 86, 157, 90, 165, 165, 90, 1, 5.02109
18, 2, wb, attraction, a-b-db, 9, 2, 4, 2, 86, 157, 90, 165, 165, 90, 3, 0.59252
18, 2, wb, filler, NA, 999, 999, 4, 3, 69, 131, 122, 91, 152, 144, 1, 1.60004
18, 2, wb, filler, NA, 999, 999, 4, 3, 69, 131, 122, 91, 152, 144, 3, 0.575644
18, 2, wb, filler, NA, 999, 999, 4, 4, 156, 186, 65, 88, 137, 164, 2, 1.05466
18, 2, wb, filler, NA, 999, 999, 4, 4, 156, 186, 65, 88, 137, 164, 1, 0.691844
18, 2, wb, attraction, a-b-da, 14, 3, 4, 5, 120, 195, 181, 111, 195, 120, 2, 2.27648
18, 2, wb, attraction, a-b-da, 14, 3, 4, 5, 120, 195, 181, 111, 195, 120, 3, 0.986516
18, 2, wb, filler, NA, 999, 999, 4, 6, 105, 75, 96, 168, 163, 187, 1, 1.1028
18, 2, wb, filler, NA, 999, 999, 4, 6, 105, 75, 96, 168, 163, 187, 3, 0.586312
18, 2, wb, attraction, a-b-da, 5, 2, 4, 7, 161, 88, 165, 90, 90, 165, 1, 1.72793
18, 2, wb, attraction, a-b-da, 5, 2, 4, 7, 161, 88, 165, 90, 90, 165, 3, 0.786928
18, 2, wb, attraction, a-b-da, 9, 2, 4, 8, 157, 86, 90, 165, 165, 90, 1, 1.8104
18, 2, wb, attraction, a-b-da, 9, 2, 4, 8, 157, 86, 90, 165, 165, 90, 2, 0.696644
18, 2, wb, attraction, a-b-db, 14, 1, 4, 9, 135, 60, 56, 125, 60, 135, 2, 2.64195
18, 2, wb, attraction, a-b-db, 14, 1, 4, 9, 135, 60, 56, 125, 60, 135, 1, 0.879632
18, 2, wb, catch, NA, 999, 999, 4, 10, 162, 93, 115, 80, 180, 135, 2, 1.2285
18, 2, wb, catch, NA, 999, 999, 4, 10, 162, 93, 115, 80, 180, 135, 3, 0.584326
18, 2, wb, attraction, a-b-da, 9, 1, 4, 11, 129, 57, 60, 135, 135, 60, 1, 3.43066
18, 2, wb, attraction, a-b-da, 9, 1, 4, 11, 129, 57, 60, 135, 135, 60, 2, 0.803592
18, 2, wb, attraction, a-b-da, 2, 1, 4, 12, 134, 59, 60, 135, 135, 60, 1, 1.34631
18, 2, wb, attraction, a-b-da, 2, 1, 4, 12, 134, 59, 60, 135, 135, 60, 2, 0.618222
18, 2, wb, attraction, a-b-da, 5, 1, 4, 13, 135, 60, 132, 58, 60, 135, 2, 2.30289
18, 2, wb, attraction, a-b-da, 5, 1, 4, 13, 135, 60, 132, 58, 60, 135, 3, 0.633618
18, 2, wb, attraction, a-b-da, 9, 3, 4, 14, 120, 195, 195, 120, 186, 114, 3, 3.42971
18, 2, wb, attraction, a-b-da, 9, 3, 4, 14, 120, 195, 195, 120, 186, 114, 1, 0.796966
18, 2, wb, attraction, a-b-da, 14, 2, 4, 15, 90, 165, 153, 83, 165, 90, 2, 4.47425
18, 2, wb, attraction, a-b-da, 14, 2, 4, 15, 90, 165, 153, 83, 165, 90, 1, 0.804893
18, 2, wb, attraction, a-b-da, 14, 1, 4, 16, 60, 135, 135, 60, 125, 56, 3, 2.42607
18, 2, wb, attraction, a-b-da, 14, 1, 4, 16, 60, 135, 135, 60, 125, 56, 1, 0.744302
18, 2, wb, attraction, a-b-db, 2, 1, 4, 17, 60, 135, 59, 134, 135, 60, 2, 2.03169
18, 2, wb, attraction, a-b-db, 2, 1, 4, 17, 60, 135, 59, 134, 135, 60, 3, 0.66979
18, 2, wb, filler, NA, 999, 999, 4, 18, 155, 179, 85, 108, 175, 130, 2, 1.51142
18, 2, wb, filler, NA, 999, 999, 4, 18, 155, 179, 85, 108, 175, 130, 1, 1.93007
18, 2, wb, attraction, a-b-db, 14, 3, 4, 19, 120, 195, 111, 181, 195, 120, 2, 1.6927
18, 2, wb, attraction, a-b-db, 14, 3, 4, 19, 120, 195, 111, 181, 195, 120, 3, 0.590875
18, 2, wb, filler, NA, 999, 999, 4, 20, 72, 97, 88, 141, 88, 141, 1, 1.08736
18, 2, wb, filler, NA, 999, 999, 4, 20, 72, 97, 88, 141, 88, 141, 3, 0.753761
18, 2, wb, attraction, a-b-db, 5, 3, 4, 21, 117, 190, 195, 120, 120, 195, 1, 4.29635
18, 2, wb, attraction, a-b-db, 5, 3, 4, 21, 117, 190, 195, 120, 120, 195, 2, 1.35574
18, 2, wb, catch, NA, 999, 999, 4, 22, 159, 96, 115, 80, 156, 159, 2, 1.21008
18, 2, wb, catch, NA, 999, 999, 4, 22, 159, 96, 115, 80, 156, 159, 3, 0.707015
18, 2, wb, attraction, a-b-db, 9, 3, 4, 23, 120, 195, 114, 186, 195, 120, 1, 6.37199
18, 2, wb, attraction, a-b-db, 9, 3, 4, 23, 120, 195, 114, 186, 195, 120, 3, 0.76108
18, 2, wb, filler, NA, 999, 999, 4, 24, 99, 99, 148, 171, 76, 136, 1, 1.17745
18, 2, wb, filler, NA, 999, 999, 4, 24, 99, 99, 148, 171, 76, 136, 2, 0.898003
18, 2, wb, attraction, a-b-db, 5, 2, 4, 25, 90, 165, 165, 90, 88, 161, 3, 6.79401
18, 2, wb, attraction, a-b-db, 5, 2, 4, 25, 90, 165, 165, 90, 88, 161, 2, 0.928898
18, 2, wb, attraction, a-b-db, 2, 3, 4, 26, 120, 195, 119, 193, 195, 120, 1, 2.03523
18, 2, wb, attraction, a-b-db, 2, 3, 4, 26, 120, 195, 119, 193, 195, 120, 3, 1.42315
18, 2, wb, attraction, a-b-db, 2, 2, 4, 27, 90, 165, 165, 90, 89, 163, 1, 2.83618
18, 2, wb, attraction, a-b-db, 2, 2, 4, 27, 90, 165, 165, 90, 89, 163, 2, 1.55482
18, 2, wb, filler, NA, 999, 999, 4, 28, 163, 187, 178, 190, 146, 157, 3, 1.3284
18, 2, wb, filler, NA, 999, 999, 4, 28, 163, 187, 178, 190, 146, 157, 2, 0.54754
18, 2, wb, attraction, a-b-da, 5, 3, 4, 29, 190, 117, 120, 195, 195, 120, 1, 2.99357
18, 2, wb, attraction, a-b-da, 5, 3, 4, 29, 190, 117, 120, 195, 195, 120, 2, 0.647982
18, 2, wb, filler, NA, 999, 999, 4, 30, 193, 133, 110, 165, 151, 56, 3, 1.40474
18, 2, wb, filler, NA, 999, 999, 4, 30, 193, 133, 110, 165, 151, 56, 1, 0.685027
18, 2, wb, filler, NA, 999, 999, 4, 31, 100, 59, 122, 82, 72, 135, 1, 1.26908
18, 2, wb, filler, NA, 999, 999, 4, 31, 100, 59, 122, 82, 72, 135, 3, 1.2909
18, 2, wb, attraction, a-b-db, 5, 1, 4, 32, 60, 135, 135, 60, 58, 132, 3, 1.86083
18, 2, wb, attraction, a-b-db, 5, 1, 4, 32, 60, 135, 135, 60, 58, 132, 2, 0.632864
18, 2, wb, catch, NA, 999, 999, 4, 33, 187, 128, 61, 134, 139, 116, 2, 1.39581
18, 2, wb, catch, NA, 999, 999, 4, 33, 187, 128, 61, 134, 139, 116, 1, 0.570831
18, 2, wb, attraction, a-b-db, 9, 1, 4, 34, 135, 60, 57, 129, 60, 135, 2, 8.07391
18, 2, wb, attraction, a-b-db, 9, 1, 4, 34, 135, 60, 57, 129, 60, 135, 1, 0.715238
18, 2, wb, attraction, a-b-da, 2, 3, 4, 35, 120, 195, 195, 120, 193, 119, 3, 7.18096
18, 2, wb, attraction, a-b-da, 2, 3, 4, 35, 120, 195, 195, 120, 193, 119, 1, 0.649981
18, 2, wb, attraction, a-b-db, 14, 2, 4, 36, 90, 165, 165, 90, 83, 153, 3, 6.42252
18, 2, wb, attraction, a-b-db, 14, 2, 4, 36, 90, 165, 165, 90, 83, 153, 2, 0.708707
18, 2, wb, attraction, a-b-da, 2, 2, 4, 37, 165, 90, 90, 165, 163, 89, 3, 1.2696
18, 2, wb, attraction, a-b-da, 2, 2, 4, 37, 165, 90, 90, 165, 163, 89, 2, 0.577131
18, 2, wb, attraction, a-b-db, 14, 2, 5, 1, 165, 90, 83, 153, 90, 165, 2, 3.19084
18, 2, wb, attraction, a-b-db, 14, 2, 5, 1, 165, 90, 83, 153, 90, 165, 1, 0.806719
18, 2, wb, attraction, a-b-db, 5, 1, 5, 2, 135, 60, 60, 135, 58, 132, 3, 3.21253
18, 2, wb, attraction, a-b-db, 5, 1, 5, 2, 135, 60, 60, 135, 58, 132, 1, 1.18422
18, 2, wb, attraction, a-b-da, 14, 1, 5, 3, 60, 135, 125, 56, 135, 60, 2, 4.02979
18, 2, wb, attraction, a-b-da, 14, 1, 5, 3, 60, 135, 125, 56, 135, 60, 1, 0.627458
18, 2, wb, filler, NA, 999, 999, 5, 4, 134, 168, 176, 192, 149, 186, 1, 3.49561
18, 2, wb, filler, NA, 999, 999, 5, 4, 134, 168, 176, 192, 149, 186, 2, 0.731448
18, 2, wb, attraction, a-b-db, 14, 1, 5, 5, 60, 135, 135, 60, 56, 125, 3, 2.07592
18, 2, wb, attraction, a-b-db, 14, 1, 5, 5, 60, 135, 135, 60, 56, 125, 2, 0.584659
18, 2, wb, filler, NA, 999, 999, 5, 6, 148, 193, 101, 121, 60, 80, 3, 1.54395
18, 2, wb, filler, NA, 999, 999, 5, 6, 148, 193, 101, 121, 60, 80, 1, 0.759265
18, 2, wb, attraction, a-b-da, 2, 1, 5, 7, 134, 59, 60, 135, 135, 60, 1, 2.73639
18, 2, wb, attraction, a-b-da, 2, 1, 5, 7, 134, 59, 60, 135, 135, 60, 2, 0.551046
18, 2, wb, attraction, a-b-da, 5, 3, 5, 8, 120, 195, 190, 117, 195, 120, 2, 2.256
18, 2, wb, attraction, a-b-da, 5, 3, 5, 8, 120, 195, 190, 117, 195, 120, 1, 0.539358
18, 2, wb, attraction, a-b-da, 5, 1, 5, 9, 132, 58, 60, 135, 135, 60, 3, 1.97419
18, 2, wb, attraction, a-b-da, 5, 1, 5, 9, 132, 58, 60, 135, 135, 60, 2, 0.627845
18, 2, wb, filler, NA, 999, 999, 5, 10, 159, 106, 82, 93, 111, 174, 2, 1.36184
18, 2, wb, filler, NA, 999, 999, 5, 10, 159, 106, 82, 93, 111, 174, 1, 2.43305
18, 2, wb, attraction, a-b-db, 2, 2, 5, 11, 165, 90, 89, 163, 90, 165, 3, 2.48502
18, 2, wb, attraction, a-b-db, 2, 2, 5, 11, 165, 90, 89, 163, 90, 165, 1, 0.753816
18, 2, wb, attraction, a-b-da, 14, 3, 5, 12, 181, 111, 195, 120, 120, 195, 1, 3.82678
18, 2, wb, attraction, a-b-da, 14, 3, 5, 12, 181, 111, 195, 120, 120, 195, 3, 0.72575
18, 2, wb, attraction, a-b-da, 2, 2, 5, 13, 163, 89, 165, 90, 90, 165, 1, 2.89478
18, 2, wb, attraction, a-b-da, 2, 2, 5, 13, 163, 89, 165, 90, 90, 165, 3, 0.569855
18, 2, wb, catch, NA, 999, 999, 5, 14, 93, 162, 186, 129, 71, 124, 3, 1.34711
18, 2, wb, catch, NA, 999, 999, 5, 14, 93, 162, 186, 129, 71, 124, 2, 0.538127
18, 2, wb, filler, NA, 999, 999, 5, 15, 115, 119, 149, 179, 192, 100, 1, 1.0095
18, 2, wb, filler, NA, 999, 999, 5, 15, 115, 119, 149, 179, 192, 100, 2, 1.00037
18, 2, wb, filler, NA, 999, 999, 5, 16, 96, 170, 124, 77, 174, 177, 2, 1.08649
18, 2, wb, filler, NA, 999, 999, 5, 16, 96, 170, 124, 77, 174, 177, 3, 0.691492
18, 2, wb, attraction, a-b-db, 9, 2, 5, 17, 90, 165, 86, 157, 165, 90, 2, 5.86756
18, 2, wb, attraction, a-b-db, 9, 2, 5, 17, 90, 165, 86, 157, 165, 90, 3, 0.656749
18, 2, wb, attraction, a-b-db, 5, 3, 5, 18, 195, 120, 120, 195, 117, 190, 3, 2.46901
18, 2, wb, attraction, a-b-db, 5, 3, 5, 18, 195, 120, 120, 195, 117, 190, 1, 0.584309
18, 2, wb, attraction, a-b-da, 5, 2, 5, 19, 161, 88, 165, 90, 90, 165, 1, 1.56741
18, 2, wb, attraction, a-b-da, 5, 2, 5, 19, 161, 88, 165, 90, 90, 165, 3, 2.4305
18, 2, wb, attraction, a-b-da, 2, 3, 5, 20, 195, 120, 193, 119, 120, 195, 1, 3.44139
18, 2, wb, attraction, a-b-da, 2, 3, 5, 20, 195, 120, 193, 119, 120, 195, 3, 0.583068
18, 2, wb, catch, NA, 999, 999, 5, 21, 139, 116, 131, 184, 122, 73, 3, 1.39907
18, 2, wb, catch, NA, 999, 999, 5, 21, 139, 116, 131, 184, 122, 73, 2, 0.653477
18, 2, wb, catch, NA, 999, 999, 5, 22, 71, 124, 180, 135, 152, 103, 1, 1.07389
18, 2, wb, catch, NA, 999, 999, 5, 22, 71, 124, 180, 135, 152, 103, 2, 0.65315
18, 2, wb, attraction, a-b-da, 9, 1, 5, 23, 129, 57, 135, 60, 60, 135, 2, 2.53639
18, 2, wb, attraction, a-b-da, 9, 1, 5, 23, 129, 57, 135, 60, 60, 135, 3, 1.10533
18, 2, wb, attraction, a-b-da, 9, 3, 5, 24, 195, 120, 186, 114, 120, 195, 2, 2.25219
18, 2, wb, attraction, a-b-da, 9, 3, 5, 24, 195, 120, 186, 114, 120, 195, 3, 0.782978
18, 2, wb, filler, NA, 999, 999, 5, 25, 186, 162, 61, 150, 143, 148, 2, 1.10327
18, 2, wb, filler, NA, 999, 999, 5, 25, 186, 162, 61, 150, 143, 148, 1, 0.608109
18, 2, wb, attraction, a-b-db, 2, 3, 5, 26, 120, 195, 119, 193, 195, 120, 1, 7.71132
18, 2, wb, attraction, a-b-db, 2, 3, 5, 26, 120, 195, 119, 193, 195, 120, 3, 0.608187
18, 2, wb, attraction, a-b-db, 9, 3, 5, 27, 114, 186, 195, 120, 120, 195, 1, 1.78952
18, 2, wb, attraction, a-b-db, 9, 3, 5, 27, 114, 186, 195, 120, 120, 195, 2, 1.96631
18, 2, wb, attraction, a-b-da, 9, 2, 5, 28, 90, 165, 157, 86, 165, 90, 2, 1.85898
18, 2, wb, attraction, a-b-da, 9, 2, 5, 28, 90, 165, 157, 86, 165, 90, 3, 0.785033
18, 2, wb, filler, NA, 999, 999, 5, 29, 74, 70, 121, 156, 141, 82, 1, 1.25466
18, 2, wb, filler, NA, 999, 999, 5, 29, 74, 70, 121, 156, 141, 82, 2, 0.523991
18, 2, wb, attraction, a-b-db, 14, 3, 5, 30, 195, 120, 120, 195, 111, 181, 3, 1.21406
18, 2, wb, attraction, a-b-db, 14, 3, 5, 30, 195, 120, 120, 195, 111, 181, 1, 0.956202
18, 2, wb, attraction, a-b-db, 5, 2, 5, 31, 165, 90, 88, 161, 90, 165, 3, 3.62711
18, 2, wb, attraction, a-b-db, 5, 2, 5, 31, 165, 90, 88, 161, 90, 165, 1, 0.64772
18, 2, wb, filler, NA, 999, 999, 5, 32, 77, 133, 147, 163, 117, 160, 1, 1.38755
18, 2, wb, filler, NA, 999, 999, 5, 32, 77, 133, 147, 163, 117, 160, 2, 0.716917
18, 2, wb, attraction, a-b-db, 9, 1, 5, 33, 57, 129, 135, 60, 60, 135, 1, 12.109
18, 2, wb, attraction, a-b-db, 9, 1, 5, 33, 57, 129, 135, 60, 60, 135, 2, 0.71654
18, 2, wb, filler, NA, 999, 999, 5, 34, 114, 132, 63, 105, 68, 191, 2, 1.01514
18, 2, wb, filler, NA, 999, 999, 5, 34, 114, 132, 63, 105, 68, 191, 1, 0.738443
18, 2, wb, filler, NA, 999, 999, 5, 35, 106, 88, 120, 185, 149, 176, 1, 1.09222
18, 2, wb, filler, NA, 999, 999, 5, 35, 106, 88, 120, 185, 149, 176, 3, 0.687087
18, 2, wb, attraction, a-b-da, 14, 2, 5, 36, 90, 165, 153, 83, 165, 90, 2, 1.81861
18, 2, wb, attraction, a-b-da, 14, 2, 5, 36, 90, 165, 153, 83, 165, 90, 1, 0.582918
18, 2, wb, attraction, a-b-db, 2, 1, 5, 37, 135, 60, 60, 135, 59, 134, 1, 1.43244
18, 2, wb, attraction, a-b-db, 2, 1, 5, 37, 135, 60, 60, 135, 59, 134, 3, 1.18896
18, 2, wb, attraction, a-b-da, 2, 1, 6, 1, 135, 60, 60, 135, 134, 59, 3, 1.35382
18, 2, wb, attraction, a-b-da, 2, 1, 6, 1, 135, 60, 60, 135, 134, 59, 2, 0.707503
18, 2, wb, attraction, a-b-da, 14, 1, 6, 2, 135, 60, 125, 56, 60, 135, 2, 2.74848
18, 2, wb, attraction, a-b-da, 14, 1, 6, 2, 135, 60, 125, 56, 60, 135, 1, 1.58816
18, 2, wb, attraction, a-b-da, 14, 3, 6, 3, 181, 111, 120, 195, 195, 120, 1, 1.81882
18, 2, wb, attraction, a-b-da, 14, 3, 6, 3, 181, 111, 120, 195, 195, 120, 2, 0.600418
18, 2, wb, filler, NA, 999, 999, 6, 4, 155, 187, 174, 144, 94, 86, 3, 1.20686
18, 2, wb, filler, NA, 999, 999, 6, 4, 155, 187, 174, 144, 94, 86, 1, 0.828921
18, 2, wb, filler, NA, 999, 999, 6, 5, 145, 192, 77, 61, 118, 79, 2, 1.21962
18, 2, wb, filler, NA, 999, 999, 6, 5, 145, 192, 77, 61, 118, 79, 1, 0.552876
18, 2, wb, attraction, a-b-da, 14, 2, 6, 6, 153, 83, 90, 165, 165, 90, 1, 3.12093
18, 2, wb, attraction, a-b-da, 14, 2, 6, 6, 153, 83, 90, 165, 165, 90, 2, 0.642349
18, 2, wb, attraction, a-b-db, 14, 1, 6, 7, 60, 135, 56, 125, 135, 60, 2, 3.91296
18, 2, wb, attraction, a-b-db, 14, 1, 6, 7, 60, 135, 56, 125, 135, 60, 3, 0.575396
18, 2, wb, filler, NA, 999, 999, 6, 8, 102, 164, 83, 158, 61, 194, 2, 4.51206
18, 2, wb, filler, NA, 999, 999, 6, 8, 102, 164, 83, 158, 61, 194, 1, 0.559882
18, 2, wb, attraction, a-b-db, 2, 1, 6, 9, 59, 134, 135, 60, 60, 135, 1, 2.31309
18, 2, wb, attraction, a-b-db, 2, 1, 6, 9, 59, 134, 135, 60, 60, 135, 2, 0.667795
18, 2, wb, attraction, a-b-da, 9, 3, 6, 10, 186, 114, 120, 195, 195, 120, 1, 1.72635
18, 2, wb, attraction, a-b-da, 9, 3, 6, 10, 186, 114, 120, 195, 195, 120, 2, 2.43385
18, 2, wb, attraction, a-b-db, 9, 1, 6, 11, 60, 135, 57, 129, 135, 60, 2, 2.78058
18, 2, wb, attraction, a-b-db, 9, 1, 6, 11, 60, 135, 57, 129, 135, 60, 1, 1.89941
18, 2, wb, attraction, a-b-db, 14, 3, 6, 12, 195, 120, 120, 195, 111, 181, 3, 3.92485
18, 2, wb, attraction, a-b-db, 14, 3, 6, 12, 195, 120, 120, 195, 111, 181, 1, 0.975078
18, 2, wb, attraction, a-b-db, 9, 2, 6, 13, 86, 157, 90, 165, 165, 90, 1, 4.50723
18, 2, wb, attraction, a-b-db, 9, 2, 6, 13, 86, 157, 90, 165, 165, 90, 2, 1.9342
18, 2, wb, attraction, a-b-da, 2, 2, 6, 14, 165, 90, 90, 165, 163, 89, 3, 2.15139
18, 2, wb, attraction, a-b-da, 2, 2, 6, 14, 165, 90, 90, 165, 163, 89, 2, 0.862861
18, 2, wb, catch, NA, 999, 999, 6, 15, 137, 178, 94, 101, 156, 99, 2, 1.24342
18, 2, wb, catch, NA, 999, 999, 6, 15, 137, 178, 94, 101, 156, 99, 1, 0.751099
18, 2, wb, filler, NA, 999, 999, 6, 16, 160, 174, 114, 107, 82, 79, 3, 1.07937
18, 2, wb, filler, NA, 999, 999, 6, 16, 160, 174, 114, 107, 82, 79, 1, 0.587059
18, 2, wb, attraction, a-b-da, 5, 2, 6, 17, 165, 90, 90, 165, 161, 88, 3, 3.84963
18, 2, wb, attraction, a-b-da, 5, 2, 6, 17, 165, 90, 90, 165, 161, 88, 2, 1.10074
18, 2, wb, attraction, a-b-db, 2, 3, 6, 18, 120, 195, 119, 193, 195, 120, 2, 2.40121
18, 2, wb, attraction, a-b-db, 2, 3, 6, 18, 120, 195, 119, 193, 195, 120, 3, 0.725305
18, 2, wb, attraction, a-b-db, 9, 3, 6, 19, 195, 120, 120, 195, 114, 186, 3, 2.49625
18, 2, wb, attraction, a-b-db, 9, 3, 6, 19, 195, 120, 120, 195, 114, 186, 1, 0.617249
18, 2, wb, catch, NA, 999, 999, 6, 20, 129, 66, 186, 129, 132, 123, 1, 1.32624
18, 2, wb, catch, NA, 999, 999, 6, 20, 129, 66, 186, 129, 132, 123, 2, 0.61114
18, 2, wb, filler, NA, 999, 999, 6, 21, 154, 146, 100, 89, 143, 125, 2, 1.08716
18, 2, wb, filler, NA, 999, 999, 6, 21, 154, 146, 100, 89, 143, 125, 1, 0.595314
18, 2, wb, attraction, a-b-da, 2, 3, 6, 22, 195, 120, 120, 195, 193, 119, 3, 12.6728
18, 2, wb, attraction, a-b-da, 2, 3, 6, 22, 195, 120, 120, 195, 193, 119, 2, 0.544608
18, 2, wb, attraction, a-b-da, 5, 3, 6, 23, 190, 117, 195, 120, 120, 195, 1, 3.33825
18, 2, wb, attraction, a-b-da, 5, 3, 6, 23, 190, 117, 195, 120, 120, 195, 3, 0.729403
18, 2, wb, filler, NA, 999, 999, 6, 24, 187, 151, 94, 188, 190, 174, 2, 1.4548
18, 2, wb, filler, NA, 999, 999, 6, 24, 187, 151, 94, 188, 190, 174, 3, 0.689718
18, 2, wb, filler, NA, 999, 999, 6, 25, 107, 194, 71, 148, 148, 168, 2, 1.20372
18, 2, wb, filler, NA, 999, 999, 6, 25, 107, 194, 71, 148, 148, 168, 3, 0.627499
18, 2, wb, attraction, a-b-db, 14, 2, 6, 26, 83, 153, 165, 90, 90, 165, 1, 3.58387
18, 2, wb, attraction, a-b-db, 14, 2, 6, 26, 83, 153, 165, 90, 90, 165, 2, 0.540783
18, 2, wb, attraction, a-b-da, 9, 2, 6, 27, 90, 165, 165, 90, 157, 86, 1, 4.05531
18, 2, wb, attraction, a-b-da, 9, 2, 6, 27, 90, 165, 165, 90, 157, 86, 2, 0.571469
18, 2, wb, attraction, a-b-db, 5, 1, 6, 28, 135, 60, 60, 135, 58, 132, 2, 2.38644
18, 2, wb, attraction, a-b-db, 5, 1, 6, 28, 135, 60, 60, 135, 58, 132, 1, 0.583534
18, 2, wb, filler, NA, 999, 999, 6, 29, 69, 59, 127, 124, 128, 161, 1, 1.23819
18, 2, wb, filler, NA, 999, 999, 6, 29, 69, 59, 127, 124, 128, 161, 3, 0.717981
18, 2, wb, attraction, a-b-da, 9, 1, 6, 30, 135, 60, 60, 135, 129, 57, 3, 1.72465
18, 2, wb, attraction, a-b-da, 9, 1, 6, 30, 135, 60, 60, 135, 129, 57, 1, 1.00723
18, 2, wb, attraction, a-b-da, 5, 1, 6, 31, 60, 135, 135, 60, 132, 58, 3, 1.42193
18, 2, wb, attraction, a-b-da, 5, 1, 6, 31, 60, 135, 135, 60, 132, 58, 2, 1.51454
18, 2, wb, catch, NA, 999, 999, 6, 32, 106, 89, 91, 164, 152, 163, 1, 1.15764
18, 2, wb, catch, NA, 999, 999, 6, 32, 106, 89, 91, 164, 152, 163, 3, 0.775031
18, 2, wb, attraction, a-b-db, 5, 3, 6, 33, 117, 190, 120, 195, 195, 120, 1, 14.8936
18, 2, wb, attraction, a-b-db, 5, 3, 6, 33, 117, 190, 120, 195, 195, 120, 3, 1.7261
18, 2, wb, filler, NA, 999, 999, 6, 34, 173, 73, 129, 76, 106, 67, 3, 1.27677
18, 2, wb, filler, NA, 999, 999, 6, 34, 173, 73, 129, 76, 106, 67, 1, 0.72199
18, 2, wb, attraction, a-b-db, 5, 2, 6, 35, 88, 161, 165, 90, 90, 165, 3, 7.61131
18, 2, wb, attraction, a-b-db, 5, 2, 6, 35, 88, 161, 165, 90, 90, 165, 2, 0.695848
18, 2, wb, filler, NA, 999, 999, 6, 36, 93, 158, 86, 67, 193, 71, 2, 1.39415
18, 2, wb, filler, NA, 999, 999, 6, 36, 93, 158, 86, 67, 193, 71, 3, 1.26381
18, 2, wb, attraction, a-b-db, 2, 2, 6, 37, 89, 163, 90, 165, 165, 90, 1, 2.78157
18, 2, wb, attraction, a-b-db, 2, 2, 6, 37, 89, 163, 90, 165, 165, 90, 3, 0.797521
18, 2, wb, attraction, a-b-db, 14, 3, 7, 1, 195, 120, 111, 181, 120, 195, 2, 4.04228
18, 2, wb, attraction, a-b-db, 14, 3, 7, 1, 195, 120, 111, 181, 120, 195, 1, 0.65486
18, 2, wb, attraction, a-b-db, 2, 2, 7, 2, 165, 90, 90, 165, 89, 163, 3, 1.45801
18, 2, wb, attraction, a-b-db, 2, 2, 7, 2, 165, 90, 90, 165, 89, 163, 2, 2.51953
18, 2, wb, filler, NA, 999, 999, 7, 3, 192, 171, 71, 161, 70, 67, 3, 1.10329
18, 2, wb, filler, NA, 999, 999, 7, 3, 192, 171, 71, 161, 70, 67, 1, 0.658542
18, 2, wb, attraction, a-b-db, 5, 2, 7, 4, 88, 161, 90, 165, 165, 90, 1, 3.44658
18, 2, wb, attraction, a-b-db, 5, 2, 7, 4, 88, 161, 90, 165, 165, 90, 3, 0.713037
18, 2, wb, filler, NA, 999, 999, 7, 5, 86, 131, 129, 148, 132, 72, 3, 2.54007
18, 2, wb, filler, NA, 999, 999, 7, 5, 86, 131, 129, 148, 132, 72, 2, 0.598107
18, 2, wb, attraction, a-b-da, 5, 3, 7, 6, 190, 117, 120, 195, 195, 120, 1, 7.55502
18, 2, wb, attraction, a-b-da, 5, 3, 7, 6, 190, 117, 120, 195, 195, 120, 2, 0.788133
18, 2, wb, attraction, a-b-da, 9, 2, 7, 7, 157, 86, 165, 90, 90, 165, 1, 2.61754
18, 2, wb, attraction, a-b-da, 9, 2, 7, 7, 157, 86, 165, 90, 90, 165, 3, 0.684746
18, 2, wb, attraction, a-b-da, 14, 2, 7, 8, 90, 165, 165, 90, 153, 83, 3, 2.38495
18, 2, wb, attraction, a-b-da, 14, 2, 7, 8, 90, 165, 165, 90, 153, 83, 1, 0.543521
18, 2, wb, attraction, a-b-da, 9, 1, 7, 9, 129, 57, 60, 135, 135, 60, 1, 4.03183
18, 2, wb, attraction, a-b-da, 9, 1, 7, 9, 129, 57, 60, 135, 135, 60, 2, 0.605929
18, 2, wb, attraction, a-b-db, 9, 3, 7, 10, 120, 195, 195, 120, 114, 186, 3, 2.38668
18, 2, wb, attraction, a-b-db, 9, 3, 7, 10, 120, 195, 195, 120, 114, 186, 2, 0.570853
18, 2, wb, catch, NA, 999, 999, 7, 11, 111, 84, 114, 141, 150, 165, 1, 1.33775
18, 2, wb, catch, NA, 999, 999, 7, 11, 111, 84, 114, 141, 150, 165, 3, 0.603257
18, 2, wb, attraction, a-b-da, 2, 1, 7, 12, 134, 59, 60, 135, 135, 60, 1, 1.69568
18, 2, wb, attraction, a-b-da, 2, 1, 7, 12, 134, 59, 60, 135, 135, 60, 2, 0.914634
18, 2, wb, attraction, a-b-db, 14, 1, 7, 13, 56, 125, 60, 135, 135, 60, 1, 2.71602
18, 2, wb, attraction, a-b-db, 14, 1, 7, 13, 56, 125, 60, 135, 135, 60, 3, 0.543583
18, 2, wb, attraction, a-b-da, 14, 3, 7, 14, 181, 111, 120, 195, 195, 120, 1, 1.51048
18, 2, wb, attraction, a-b-da, 14, 3, 7, 14, 181, 111, 120, 195, 195, 120, 2, 0.627513
18, 2, wb, attraction, a-b-da, 9, 3, 7, 15, 186, 114, 195, 120, 120, 195, 1, 3.68617
18, 2, wb, attraction, a-b-da, 9, 3, 7, 15, 186, 114, 195, 120, 120, 195, 3, 0.59372
18, 2, wb, filler, NA, 999, 999, 7, 16, 113, 87, 176, 149, 57, 160, 3, 5.75774
18, 2, wb, filler, NA, 999, 999, 7, 16, 113, 87, 176, 149, 57, 160, 2, 0.550221
18, 2, wb, catch, NA, 999, 999, 7, 17, 115, 140, 80, 115, 175, 140, 2, 1.79082
18, 2, wb, catch, NA, 999, 999, 7, 17, 115, 140, 80, 115, 175, 140, 3, 0.638619
18, 2, wb, catch, NA, 999, 999, 7, 18, 69, 126, 126, 189, 114, 141, 1, 1.37905
18, 2, wb, catch, NA, 999, 999, 7, 18, 69, 126, 126, 189, 114, 141, 2, 0.616298
18, 2, wb, attraction, a-b-db, 2, 1, 7, 19, 135, 60, 59, 134, 60, 135, 2, 3.72638
18, 2, wb, attraction, a-b-db, 2, 1, 7, 19, 135, 60, 59, 134, 60, 135, 1, 0.641117
18, 2, wb, attraction, a-b-da, 2, 3, 7, 20, 120, 195, 193, 119, 195, 120, 2, 7.22015
18, 2, wb, attraction, a-b-da, 2, 3, 7, 20, 120, 195, 193, 119, 195, 120, 1, 0.794263
18, 2, wb, attraction, a-b-db, 14, 2, 7, 21, 90, 165, 83, 153, 165, 90, 2, 2.26421
18, 2, wb, attraction, a-b-db, 14, 2, 7, 21, 90, 165, 83, 153, 165, 90, 3, 0.588741
18, 2, wb, attraction, a-b-db, 9, 1, 7, 22, 57, 129, 60, 135, 135, 60, 2, 5.33648
18, 2, wb, attraction, a-b-db, 9, 1, 7, 22, 57, 129, 60, 135, 135, 60, 3, 0.555714
18, 2, wb, attraction, a-b-da, 2, 2, 7, 23, 165, 90, 163, 89, 90, 165, 2, 5.20886
18, 2, wb, attraction, a-b-da, 2, 2, 7, 23, 165, 90, 163, 89, 90, 165, 3, 0.585586
18, 2, wb, attraction, a-b-db, 9, 2, 7, 24, 86, 157, 90, 165, 165, 90, 1, 2.95957
18, 2, wb, attraction, a-b-db, 9, 2, 7, 24, 86, 157, 90, 165, 165, 90, 3, 0.622401
18, 2, wb, attraction, a-b-da, 14, 1, 7, 25, 135, 60, 60, 135, 125, 56, 3, 2.18247
18, 2, wb, attraction, a-b-da, 14, 1, 7, 25, 135, 60, 60, 135, 125, 56, 2, 0.539006
18, 2, wb, filler, NA, 999, 999, 7, 26, 129, 111, 140, 172, 189, 113, 1, 1.5466
18, 2, wb, filler, NA, 999, 999, 7, 26, 129, 111, 140, 172, 189, 113, 2, 3.59469
18, 2, wb, attraction, a-b-da, 5, 1, 7, 27, 60, 135, 132, 58, 135, 60, 3, 2.44245
18, 2, wb, attraction, a-b-da, 5, 1, 7, 27, 60, 135, 132, 58, 135, 60, 1, 0.696301
18, 2, wb, filler, NA, 999, 999, 7, 28, 106, 86, 144, 117, 193, 140, 1, 1.43222
18, 2, wb, filler, NA, 999, 999, 7, 28, 106, 86, 144, 117, 193, 140, 3, 0.654023
18, 2, wb, filler, NA, 999, 999, 7, 29, 61, 103, 117, 142, 169, 124, 1, 1.23508
18, 2, wb, filler, NA, 999, 999, 7, 29, 61, 103, 117, 142, 169, 124, 3, 0.776269
18, 2, wb, filler, NA, 999, 999, 7, 30, 115, 61, 86, 58, 57, 128, 2, 1.36909
18, 2, wb, filler, NA, 999, 999, 7, 30, 115, 61, 86, 58, 57, 128, 1, 0.639622
18, 2, wb, attraction, a-b-db, 5, 1, 7, 31, 135, 60, 58, 132, 60, 135, 2, 3.97875
18, 2, wb, attraction, a-b-db, 5, 1, 7, 31, 135, 60, 58, 132, 60, 135, 1, 0.754719
18, 2, wb, filler, NA, 999, 999, 7, 32, 172, 85, 108, 136, 194, 184, 2, 1.56281
18, 2, wb, filler, NA, 999, 999, 7, 32, 172, 85, 108, 136, 194, 184, 3, 0.618467
18, 2, wb, filler, NA, 999, 999, 7, 33, 137, 92, 125, 87, 177, 115, 2, 1.23007
18, 2, wb, filler, NA, 999, 999, 7, 33, 137, 92, 125, 87, 177, 115, 3, 0.645762
18, 2, wb, filler, NA, 999, 999, 7, 34, 125, 174, 180, 188, 186, 125, 1, 5.37027
18, 2, wb, filler, NA, 999, 999, 7, 34, 125, 174, 180, 188, 186, 125, 2, 2.03255
18, 2, wb, attraction, a-b-da, 5, 2, 7, 35, 165, 90, 161, 88, 90, 165, 2, 6.38032
18, 2, wb, attraction, a-b-da, 5, 2, 7, 35, 165, 90, 161, 88, 90, 165, 3, 0.762873
18, 2, wb, attraction, a-b-db, 2, 3, 7, 36, 120, 195, 119, 193, 195, 120, 1, 2.09998
18, 2, wb, attraction, a-b-db, 2, 3, 7, 36, 120, 195, 119, 193, 195, 120, 3, 0.709238
18, 2, wb, attraction, a-b-db, 5, 3, 7, 37, 195, 120, 117, 190, 120, 195, 3, 4.07103
18, 2, wb, attraction, a-b-db, 5, 3, 7, 37, 195, 120, 117, 190, 120, 195, 1, 0.691102
18, 2, wb, attraction, a-b-da, 5, 1, 8, 1, 60, 135, 132, 58, 135, 60, 3, 2.30772
18, 2, wb, attraction, a-b-da, 5, 1, 8, 1, 60, 135, 132, 58, 135, 60, 1, 0.605515
18, 2, wb, attraction, a-b-db, 9, 2, 8, 2, 90, 165, 165, 90, 86, 157, 3, 2.0536
18, 2, wb, attraction, a-b-db, 9, 2, 8, 2, 90, 165, 165, 90, 86, 157, 2, 0.625914
18, 2, wb, attraction, a-b-db, 5, 2, 8, 3, 90, 165, 165, 90, 88, 161, 3, 3.02286
18, 2, wb, attraction, a-b-db, 5, 2, 8, 3, 90, 165, 165, 90, 88, 161, 2, 0.579279
18, 2, wb, attraction, a-b-da, 9, 1, 8, 4, 60, 135, 129, 57, 135, 60, 2, 2.4536
18, 2, wb, attraction, a-b-da, 9, 1, 8, 4, 60, 135, 129, 57, 135, 60, 1, 0.53608
18, 2, wb, filler, NA, 999, 999, 8, 5, 66, 176, 145, 66, 151, 131, 2, 1.96103
18, 2, wb, filler, NA, 999, 999, 8, 5, 66, 176, 145, 66, 151, 131, 3, 0.543651
18, 2, wb, filler, NA, 999, 999, 8, 6, 175, 186, 152, 189, 132, 68, 3, 3.95497
18, 2, wb, filler, NA, 999, 999, 8, 6, 175, 186, 152, 189, 132, 68, 1, 0.656008
18, 2, wb, attraction, a-b-db, 2, 1, 8, 7, 135, 60, 60, 135, 59, 134, 3, 2.55714
18, 2, wb, attraction, a-b-db, 2, 1, 8, 7, 135, 60, 60, 135, 59, 134, 1, 0.621049
18, 2, wb, attraction, a-b-da, 2, 3, 8, 8, 195, 120, 120, 195, 193, 119, 3, 9.88373
18, 2, wb, attraction, a-b-da, 2, 3, 8, 8, 195, 120, 120, 195, 193, 119, 2, 2.20588
18, 2, wb, attraction, a-b-da, 2, 2, 8, 9, 163, 89, 90, 165, 165, 90, 1, 1.87292
18, 2, wb, attraction, a-b-da, 2, 2, 8, 9, 163, 89, 90, 165, 165, 90, 2, 0.773653
18, 2, wb, filler, NA, 999, 999, 8, 10, 150, 60, 146, 79, 131, 166, 1, 1.25202
18, 2, wb, filler, NA, 999, 999, 8, 10, 150, 60, 146, 79, 131, 166, 3, 0.625158
18, 2, wb, filler, NA, 999, 999, 8, 11, 168, 150, 155, 182, 76, 59, 3, 1.25449
18, 2, wb, filler, NA, 999, 999, 8, 11, 168, 150, 155, 182, 76, 59, 2, 0.658985
18, 2, wb, filler, NA, 999, 999, 8, 12, 128, 57, 86, 86, 169, 179, 1, 1.29371
18, 2, wb, filler, NA, 999, 999, 8, 12, 128, 57, 86, 86, 169, 179, 3, 0.572876
18, 2, wb, attraction, a-b-db, 9, 3, 8, 13, 195, 120, 114, 186, 120, 195, 2, 2.84281
18, 2, wb, attraction, a-b-db, 9, 3, 8, 13, 195, 120, 114, 186, 120, 195, 1, 0.622054
18, 2, wb, attraction, a-b-db, 14, 3, 8, 14, 111, 181, 120, 195, 195, 120, 1, 1.75579
18, 2, wb, attraction, a-b-db, 14, 3, 8, 14, 111, 181, 120, 195, 195, 120, 2, 6.99478
18, 2, wb, filler, NA, 999, 999, 8, 15, 179, 173, 85, 169, 154, 69, 3, 1.35276
18, 2, wb, filler, NA, 999, 999, 8, 15, 179, 173, 85, 169, 154, 69, 1, 0.569601
18, 2, wb, attraction, a-b-da, 9, 2, 8, 16, 157, 86, 165, 90, 90, 165, 1, 1.42308
18, 2, wb, attraction, a-b-da, 9, 2, 8, 16, 157, 86, 165, 90, 90, 165, 3, 0.582261
18, 2, wb, attraction, a-b-da, 14, 1, 8, 17, 135, 60, 125, 56, 60, 135, 2, 2.14163
18, 2, wb, attraction, a-b-da, 14, 1, 8, 17, 135, 60, 125, 56, 60, 135, 3, 1.99289
18, 2, wb, attraction, a-b-db, 9, 1, 8, 18, 57, 129, 60, 135, 135, 60, 1, 1.41272
18, 2, wb, attraction, a-b-db, 9, 1, 8, 18, 57, 129, 60, 135, 135, 60, 3, 0.761359
18, 2, wb, attraction, a-b-db, 14, 1, 8, 19, 56, 125, 135, 60, 60, 135, 3, 1.69892
18, 2, wb, attraction, a-b-db, 14, 1, 8, 19, 56, 125, 135, 60, 60, 135, 2, 0.547384
18, 2, wb, filler, NA, 999, 999, 8, 20, 56, 79, 92, 179, 163, 136, 1, 1.23056
18, 2, wb, filler, NA, 999, 999, 8, 20, 56, 79, 92, 179, 163, 136, 3, 0.723231
18, 2, wb, attraction, a-b-da, 5, 3, 8, 21, 190, 117, 120, 195, 195, 120, 2, 4.02063
18, 2, wb, attraction, a-b-da, 5, 3, 8, 21, 190, 117, 120, 195, 195, 120, 1, 0.746673
18, 2, wb, filler, NA, 999, 999, 8, 22, 168, 87, 169, 147, 168, 57, 3, 2.64078
18, 2, wb, filler, NA, 999, 999, 8, 22, 168, 87, 169, 147, 168, 57, 2, 0.575556
18, 2, wb, attraction, a-b-db, 2, 2, 8, 23, 90, 165, 165, 90, 89, 163, 1, 3.9517
18, 2, wb, attraction, a-b-db, 2, 2, 8, 23, 90, 165, 165, 90, 89, 163, 2, 0.536281
18, 2, wb, catch, NA, 999, 999, 8, 24, 112, 83, 172, 143, 149, 106, 1, 1.20806
18, 2, wb, catch, NA, 999, 999, 8, 24, 112, 83, 172, 143, 149, 106, 2, 0.549188
18, 2, wb, filler, NA, 999, 999, 8, 25, 191, 160, 189, 70, 104, 114, 3, 3.74249
18, 2, wb, filler, NA, 999, 999, 8, 25, 191, 160, 189, 70, 104, 114, 1, 0.718788
18, 2, wb, attraction, a-b-db, 5, 1, 8, 26, 58, 132, 60, 135, 135, 60, 1, 2.28692
18, 2, wb, attraction, a-b-db, 5, 1, 8, 26, 58, 132, 60, 135, 135, 60, 3, 0.652156
18, 2, wb, attraction, a-b-db, 2, 3, 8, 27, 120, 195, 195, 120, 119, 193, 3, 10.1528
18, 2, wb, attraction, a-b-db, 2, 3, 8, 27, 120, 195, 195, 120, 119, 193, 2, 0.628495
18, 2, wb, attraction, a-b-da, 9, 3, 8, 28, 120, 195, 195, 120, 186, 114, 3, 20.9056
18, 2, wb, attraction, a-b-da, 9, 3, 8, 28, 120, 195, 195, 120, 186, 114, 1, 0.56858
18, 2, wb, catch, NA, 999, 999, 8, 29, 114, 81, 138, 117, 177, 138, 1, 1.06135
18, 2, wb, catch, NA, 999, 999, 8, 29, 114, 81, 138, 117, 177, 138, 3, 0.570406
18, 2, wb, attraction, a-b-db, 14, 2, 8, 30, 165, 90, 83, 153, 90, 165, 2, 1.84168
18, 2, wb, attraction, a-b-db, 14, 2, 8, 30, 165, 90, 83, 153, 90, 165, 1, 0.57504
18, 2, wb, attraction, a-b-da, 5, 2, 8, 31, 165, 90, 90, 165, 161, 88, 3, 4.37364
18, 2, wb, attraction, a-b-da, 5, 2, 8, 31, 165, 90, 90, 165, 161, 88, 2, 0.87522
18, 2, wb, attraction, a-b-db, 5, 3, 8, 32, 120, 195, 195, 120, 117, 190, 3, 3.89717
18, 2, wb, attraction, a-b-db, 5, 3, 8, 32, 120, 195, 195, 120, 117, 190, 1, 3.80798
18, 2, wb, attraction, a-b-da, 14, 2, 8, 33, 165, 90, 153, 83, 90, 165, 2, 1.4715
18, 2, wb, attraction, a-b-da, 14, 2, 8, 33, 165, 90, 153, 83, 90, 165, 3, 0.754792
18, 2, wb, catch, NA, 999, 999, 8, 34, 176, 139, 98, 157, 72, 123, 3, 1.21179
18, 2, wb, catch, NA, 999, 999, 8, 34, 176, 139, 98, 157, 72, 123, 1, 0.671333
18, 2, wb, attraction, a-b-da, 2, 1, 8, 35, 134, 59, 135, 60, 60, 135, 1, 4.53954
18, 2, wb, attraction, a-b-da, 2, 1, 8, 35, 134, 59, 135, 60, 60, 135, 3, 1.0613
18, 2, wb, filler, NA, 999, 999, 8, 36, 141, 82, 60, 68, 160, 162, 2, 1.09642
18, 2, wb, filler, NA, 999, 999, 8, 36, 141, 82, 60, 68, 160, 162, 3, 0.666985
18, 2, wb, attraction, a-b-da, 14, 3, 8, 37, 181, 111, 120, 195, 195, 120, 1, 2.198
18, 2, wb, attraction, a-b-da, 14, 3, 8, 37, 181, 111, 120, 195, 195, 120, 2, 0.621586
