sub_n, computer_n, bw_cond, effect, set, distance, diag, block_n, trial_n, h1, w1, h2, w2, h3, w3, choice, rt 
148, 2, wb, practice, NA, 999, 999, 0, 1, 143, 71, 75, 130, 126, 109, 1, 5.30036
148, 2, wb, practice, NA, 999, 999, 0, 1, 143, 71, 75, 130, 126, 109, 3, 2.05745
148, 2, wb, practice, NA, 999, 999, 0, 2, 170, 71, 115, 185, 58, 106, 3, 1.83902
148, 2, wb, practice, NA, 999, 999, 0, 2, 170, 71, 115, 185, 58, 106, 2, 1.02144
148, 2, wb, practice, NA, 999, 999, 0, 3, 167, 66, 160, 194, 167, 129, 1, 3.2702
148, 2, wb, practice, NA, 999, 999, 0, 3, 167, 66, 160, 194, 167, 129, 2, 2.94562
148, 2, wb, filler, NA, 999, 999, 1, 1, 160, 193, 92, 171, 141, 109, 3, 2.34985
148, 2, wb, filler, NA, 999, 999, 1, 1, 160, 193, 92, 171, 141, 109, 1, 2.78231
148, 2, wb, filler, NA, 999, 999, 1, 2, 126, 137, 187, 67, 59, 128, 3, 1.45199
148, 2, wb, filler, NA, 999, 999, 1, 2, 126, 137, 187, 67, 59, 128, 1, 3.4091
148, 2, wb, filler, NA, 999, 999, 1, 3, 111, 120, 71, 165, 85, 146, 1, 4.67721
148, 2, wb, filler, NA, 999, 999, 1, 3, 111, 120, 71, 165, 85, 146, 3, 1.29568
148, 2, wb, filler, NA, 999, 999, 1, 4, 65, 82, 168, 94, 120, 148, 1, 1.33711
148, 2, wb, filler, NA, 999, 999, 1, 4, 65, 82, 168, 94, 120, 148, 3, 0.890705
148, 2, wb, attraction, a-b-db, 5, 1, 1, 5, 58, 132, 135, 60, 60, 135, 2, 4.0364
148, 2, wb, attraction, a-b-db, 5, 1, 1, 5, 58, 132, 135, 60, 60, 135, 3, 1.62508
148, 2, wb, attraction, a-b-da, 2, 1, 1, 6, 60, 135, 135, 60, 134, 59, 1, 3.00527
148, 2, wb, attraction, a-b-da, 2, 1, 1, 6, 60, 135, 135, 60, 134, 59, 2, 1.13088
148, 2, wb, attraction, a-b-db, 9, 2, 1, 7, 90, 165, 86, 157, 165, 90, 3, 4.44325
148, 2, wb, attraction, a-b-db, 9, 2, 1, 7, 90, 165, 86, 157, 165, 90, 1, 0.639093
148, 2, wb, attraction, a-b-db, 2, 2, 1, 8, 165, 90, 90, 165, 89, 163, 1, 3.05149
148, 2, wb, attraction, a-b-db, 2, 2, 1, 8, 165, 90, 90, 165, 89, 163, 3, 0.943849
148, 2, wb, attraction, a-b-da, 5, 3, 1, 9, 190, 117, 195, 120, 120, 195, 2, 3.27954
148, 2, wb, attraction, a-b-da, 5, 3, 1, 9, 190, 117, 195, 120, 120, 195, 1, 0.570466
148, 2, wb, attraction, a-b-db, 5, 3, 1, 10, 195, 120, 117, 190, 120, 195, 1, 2.4016
148, 2, wb, attraction, a-b-db, 5, 3, 1, 10, 195, 120, 117, 190, 120, 195, 2, 0.80006
148, 2, wb, catch, NA, 999, 999, 1, 11, 183, 132, 93, 102, 127, 128, 2, 1.19773
148, 2, wb, catch, NA, 999, 999, 1, 11, 183, 132, 93, 102, 127, 128, 1, 0.532764
148, 2, wb, attraction, a-b-da, 14, 3, 1, 12, 120, 195, 181, 111, 195, 120, 2, 1.48529
148, 2, wb, attraction, a-b-da, 14, 3, 1, 12, 120, 195, 181, 111, 195, 120, 1, 0.672766
148, 2, wb, filler, NA, 999, 999, 1, 13, 179, 70, 76, 168, 133, 169, 1, 1.59516
148, 2, wb, filler, NA, 999, 999, 1, 13, 179, 70, 76, 168, 133, 169, 3, 0.449858
148, 2, wb, attraction, a-b-db, 9, 1, 1, 14, 60, 135, 135, 60, 57, 129, 3, 2.93369
148, 2, wb, attraction, a-b-db, 9, 1, 1, 14, 60, 135, 135, 60, 57, 129, 1, 0.526723
148, 2, wb, attraction, a-b-da, 9, 3, 1, 15, 120, 195, 195, 120, 186, 114, 1, 8.44722
148, 2, wb, attraction, a-b-da, 9, 3, 1, 15, 120, 195, 195, 120, 186, 114, 3, 0.961797
148, 2, wb, attraction, a-b-db, 14, 2, 1, 16, 165, 90, 90, 165, 83, 153, 1, 1.60079
148, 2, wb, attraction, a-b-db, 14, 2, 1, 16, 165, 90, 90, 165, 83, 153, 2, 0.351578
148, 2, wb, attraction, a-b-da, 5, 1, 1, 17, 60, 135, 135, 60, 132, 58, 1, 0.951378
148, 2, wb, attraction, a-b-da, 5, 1, 1, 17, 60, 135, 135, 60, 132, 58, 3, 0.512577
148, 2, wb, filler, NA, 999, 999, 1, 18, 71, 83, 189, 105, 129, 185, 1, 0.873508
148, 2, wb, filler, NA, 999, 999, 1, 18, 71, 83, 189, 105, 129, 185, 3, 0.493303
148, 2, wb, attraction, a-b-da, 14, 2, 1, 19, 153, 83, 165, 90, 90, 165, 1, 1.91103
148, 2, wb, attraction, a-b-da, 14, 2, 1, 19, 153, 83, 165, 90, 90, 165, 3, 2.85714
148, 2, wb, catch, NA, 999, 999, 1, 20, 128, 127, 75, 120, 122, 193, 2, 0.867528
148, 2, wb, catch, NA, 999, 999, 1, 20, 128, 127, 75, 120, 122, 193, 3, 1.39192
148, 2, wb, attraction, a-b-db, 2, 3, 1, 21, 120, 195, 119, 193, 195, 120, 3, 4.87744
148, 2, wb, attraction, a-b-db, 2, 3, 1, 21, 120, 195, 119, 193, 195, 120, 1, 0.687794
148, 2, wb, attraction, a-b-da, 14, 1, 1, 22, 60, 135, 125, 56, 135, 60, 2, 2.08221
148, 2, wb, attraction, a-b-da, 14, 1, 1, 22, 60, 135, 125, 56, 135, 60, 1, 0.861616
148, 2, wb, attraction, a-b-da, 9, 2, 1, 23, 90, 165, 157, 86, 165, 90, 2, 3.00848
148, 2, wb, attraction, a-b-da, 9, 2, 1, 23, 90, 165, 157, 86, 165, 90, 3, 0.974364
148, 2, wb, attraction, a-b-db, 14, 1, 1, 24, 135, 60, 56, 125, 60, 135, 1, 4.21252
148, 2, wb, attraction, a-b-db, 14, 1, 1, 24, 135, 60, 56, 125, 60, 135, 3, 0.473833
148, 2, wb, attraction, a-b-db, 14, 3, 1, 25, 120, 195, 195, 120, 111, 181, 3, 1.16433
148, 2, wb, attraction, a-b-db, 14, 3, 1, 25, 120, 195, 195, 120, 111, 181, 1, 0.380601
148, 2, wb, filler, NA, 999, 999, 1, 26, 81, 90, 90, 149, 80, 191, 1, 0.931075
148, 2, wb, filler, NA, 999, 999, 1, 26, 81, 90, 90, 149, 80, 191, 2, 0.596895
148, 2, wb, attraction, a-b-da, 5, 2, 1, 27, 165, 90, 161, 88, 90, 165, 1, 1.73847
148, 2, wb, attraction, a-b-da, 5, 2, 1, 27, 165, 90, 161, 88, 90, 165, 3, 0.723246
148, 2, wb, attraction, a-b-db, 9, 3, 1, 28, 195, 120, 114, 186, 120, 195, 1, 2.62128
148, 2, wb, attraction, a-b-db, 9, 3, 1, 28, 195, 120, 114, 186, 120, 195, 3, 0.488763
148, 2, wb, filler, NA, 999, 999, 1, 29, 126, 88, 93, 152, 180, 165, 1, 0.867175
148, 2, wb, filler, NA, 999, 999, 1, 29, 126, 88, 93, 152, 180, 165, 3, 0.431751
148, 2, wb, attraction, a-b-da, 9, 1, 1, 30, 60, 135, 135, 60, 129, 57, 1, 1.50018
148, 2, wb, attraction, a-b-da, 9, 1, 1, 30, 60, 135, 135, 60, 129, 57, 2, 0.367025
148, 2, wb, catch, NA, 999, 999, 1, 31, 80, 115, 108, 147, 140, 175, 1, 0.87816
148, 2, wb, catch, NA, 999, 999, 1, 31, 80, 115, 108, 147, 140, 175, 3, 0.489804
148, 2, wb, filler, NA, 999, 999, 1, 32, 178, 175, 68, 75, 150, 130, 2, 1.02766
148, 2, wb, filler, NA, 999, 999, 1, 32, 178, 175, 68, 75, 150, 130, 1, 0.377495
148, 2, wb, attraction, a-b-da, 2, 2, 1, 33, 165, 90, 163, 89, 90, 165, 1, 1.73573
148, 2, wb, attraction, a-b-da, 2, 2, 1, 33, 165, 90, 163, 89, 90, 165, 2, 0.65714
148, 2, wb, attraction, a-b-db, 5, 2, 1, 34, 88, 161, 165, 90, 90, 165, 1, 1.00424
148, 2, wb, attraction, a-b-db, 5, 2, 1, 34, 88, 161, 165, 90, 90, 165, 3, 0.698512
148, 2, wb, filler, NA, 999, 999, 1, 35, 128, 149, 66, 131, 113, 116, 2, 0.884224
148, 2, wb, filler, NA, 999, 999, 1, 35, 128, 149, 66, 131, 113, 116, 1, 0.527929
148, 2, wb, attraction, a-b-da, 2, 3, 1, 36, 120, 195, 195, 120, 193, 119, 3, 1.64045
148, 2, wb, attraction, a-b-da, 2, 3, 1, 36, 120, 195, 195, 120, 193, 119, 1, 0.33328
148, 2, wb, attraction, a-b-db, 2, 1, 1, 37, 60, 135, 59, 134, 135, 60, 3, 2.13368
148, 2, wb, attraction, a-b-db, 2, 1, 1, 37, 60, 135, 59, 134, 135, 60, 1, 0.7431
148, 2, wb, filler, NA, 999, 999, 2, 1, 122, 126, 56, 175, 124, 112, 2, 11.8467
148, 2, wb, filler, NA, 999, 999, 2, 1, 122, 126, 56, 175, 124, 112, 1, 2.82429
148, 2, wb, attraction, a-b-da, 5, 3, 2, 2, 120, 195, 195, 120, 190, 117, 1, 1.45206
148, 2, wb, attraction, a-b-da, 5, 3, 2, 2, 120, 195, 195, 120, 190, 117, 3, 0.760965
148, 2, wb, attraction, a-b-da, 2, 3, 2, 3, 195, 120, 193, 119, 120, 195, 3, 1.55992
148, 2, wb, attraction, a-b-da, 2, 3, 2, 3, 195, 120, 193, 119, 120, 195, 1, 0.416079
148, 2, wb, filler, NA, 999, 999, 2, 4, 66, 176, 138, 78, 154, 194, 1, 0.789232
148, 2, wb, filler, NA, 999, 999, 2, 4, 66, 176, 138, 78, 154, 194, 3, 0.428289
148, 2, wb, attraction, a-b-db, 14, 2, 2, 5, 165, 90, 90, 165, 83, 153, 3, 1.44072
148, 2, wb, attraction, a-b-db, 14, 2, 2, 5, 165, 90, 90, 165, 83, 153, 2, 1.07771
148, 2, wb, attraction, a-b-db, 2, 1, 2, 6, 60, 135, 135, 60, 59, 134, 2, 2.54389
148, 2, wb, attraction, a-b-db, 2, 1, 2, 6, 60, 135, 135, 60, 59, 134, 1, 0.608417
148, 2, wb, attraction, a-b-db, 5, 1, 2, 7, 60, 135, 135, 60, 58, 132, 1, 2.24557
148, 2, wb, attraction, a-b-db, 5, 1, 2, 7, 60, 135, 135, 60, 58, 132, 3, 1.66619
148, 2, wb, attraction, a-b-da, 5, 1, 2, 8, 135, 60, 60, 135, 132, 58, 3, 1.54089
148, 2, wb, attraction, a-b-da, 5, 1, 2, 8, 135, 60, 60, 135, 132, 58, 2, 0.765808
148, 2, wb, attraction, a-b-db, 14, 1, 2, 9, 56, 125, 135, 60, 60, 135, 1, 2.33277
148, 2, wb, attraction, a-b-db, 14, 1, 2, 9, 56, 125, 135, 60, 60, 135, 3, 0.64598
148, 2, wb, filler, NA, 999, 999, 2, 10, 193, 67, 78, 153, 133, 107, 1, 1.78565
148, 2, wb, filler, NA, 999, 999, 2, 10, 193, 67, 78, 153, 133, 107, 3, 1.47315
148, 2, wb, attraction, a-b-db, 2, 2, 2, 11, 89, 163, 90, 165, 165, 90, 1, 3.09936
148, 2, wb, attraction, a-b-db, 2, 2, 2, 11, 89, 163, 90, 165, 165, 90, 3, 0.405631
148, 2, wb, catch, NA, 999, 999, 2, 12, 122, 193, 119, 136, 104, 91, 3, 1.03542
148, 2, wb, catch, NA, 999, 999, 2, 12, 122, 193, 119, 136, 104, 91, 1, 0.417057
148, 2, wb, attraction, a-b-da, 14, 2, 2, 13, 165, 90, 153, 83, 90, 165, 2, 3.38235
148, 2, wb, attraction, a-b-da, 14, 2, 2, 13, 165, 90, 153, 83, 90, 165, 1, 0.885152
148, 2, wb, filler, NA, 999, 999, 2, 14, 76, 107, 153, 84, 67, 83, 3, 1.61544
148, 2, wb, filler, NA, 999, 999, 2, 14, 76, 107, 153, 84, 67, 83, 2, 0.421562
148, 2, wb, attraction, a-b-db, 5, 2, 2, 15, 90, 165, 88, 161, 165, 90, 3, 3.01883
148, 2, wb, attraction, a-b-db, 5, 2, 2, 15, 90, 165, 88, 161, 165, 90, 1, 0.520483
148, 2, wb, attraction, a-b-db, 5, 3, 2, 16, 195, 120, 120, 195, 117, 190, 1, 3.13753
148, 2, wb, attraction, a-b-db, 5, 3, 2, 16, 195, 120, 120, 195, 117, 190, 2, 0.481837
148, 2, wb, attraction, a-b-db, 2, 3, 2, 17, 195, 120, 120, 195, 119, 193, 1, 4.81234
148, 2, wb, attraction, a-b-db, 2, 3, 2, 17, 195, 120, 120, 195, 119, 193, 3, 0.673567
148, 2, wb, attraction, a-b-da, 9, 1, 2, 18, 60, 135, 129, 57, 135, 60, 1, 1.45192
148, 2, wb, attraction, a-b-da, 9, 1, 2, 18, 60, 135, 129, 57, 135, 60, 3, 1.72887
148, 2, wb, catch, NA, 999, 999, 2, 19, 133, 62, 118, 137, 168, 147, 1, 0.608849
148, 2, wb, catch, NA, 999, 999, 2, 19, 133, 62, 118, 137, 168, 147, 3, 0.551296
148, 2, wb, attraction, a-b-db, 9, 2, 2, 20, 86, 157, 90, 165, 165, 90, 1, 1.74297
148, 2, wb, attraction, a-b-db, 9, 2, 2, 20, 86, 157, 90, 165, 165, 90, 3, 0.591769
148, 2, wb, attraction, a-b-db, 14, 3, 2, 21, 195, 120, 120, 195, 111, 181, 3, 0.845528
148, 2, wb, attraction, a-b-db, 14, 3, 2, 21, 195, 120, 120, 195, 111, 181, 1, 0.530548
148, 2, wb, attraction, a-b-da, 14, 3, 2, 22, 181, 111, 120, 195, 195, 120, 1, 1.41899
148, 2, wb, attraction, a-b-da, 14, 3, 2, 22, 181, 111, 120, 195, 195, 120, 2, 0.465203
148, 2, wb, attraction, a-b-da, 5, 2, 2, 23, 161, 88, 165, 90, 90, 165, 1, 1.70827
148, 2, wb, attraction, a-b-da, 5, 2, 2, 23, 161, 88, 165, 90, 90, 165, 3, 0.414597
148, 2, wb, filler, NA, 999, 999, 2, 24, 95, 176, 140, 173, 60, 94, 3, 1.11558
148, 2, wb, filler, NA, 999, 999, 2, 24, 95, 176, 140, 173, 60, 94, 2, 0.805898
148, 2, wb, attraction, a-b-da, 9, 3, 2, 25, 195, 120, 186, 114, 120, 195, 3, 1.69888
148, 2, wb, attraction, a-b-da, 9, 3, 2, 25, 195, 120, 186, 114, 120, 195, 1, 0.941622
148, 2, wb, catch, NA, 999, 999, 2, 26, 164, 91, 130, 65, 194, 121, 2, 0.893313
148, 2, wb, catch, NA, 999, 999, 2, 26, 164, 91, 130, 65, 194, 121, 3, 0.344322
148, 2, wb, attraction, a-b-da, 14, 1, 2, 27, 60, 135, 135, 60, 125, 56, 1, 1.42417
148, 2, wb, attraction, a-b-da, 14, 1, 2, 27, 60, 135, 135, 60, 125, 56, 3, 1.53367
148, 2, wb, filler, NA, 999, 999, 2, 28, 67, 98, 133, 161, 128, 179, 1, 0.677763
148, 2, wb, filler, NA, 999, 999, 2, 28, 67, 98, 133, 161, 128, 179, 3, 1.5857
148, 2, wb, attraction, a-b-db, 9, 3, 2, 29, 114, 186, 120, 195, 195, 120, 1, 1.62369
148, 2, wb, attraction, a-b-db, 9, 3, 2, 29, 114, 186, 120, 195, 195, 120, 3, 0.901205
148, 2, wb, filler, NA, 999, 999, 2, 30, 145, 180, 148, 150, 141, 74, 3, 0.918861
148, 2, wb, filler, NA, 999, 999, 2, 30, 145, 180, 148, 150, 141, 74, 1, 0.465289
148, 2, wb, filler, NA, 999, 999, 2, 31, 195, 74, 74, 105, 188, 188, 2, 0.828433
148, 2, wb, filler, NA, 999, 999, 2, 31, 195, 74, 74, 105, 188, 188, 3, 0.418009
148, 2, wb, attraction, a-b-da, 9, 2, 2, 32, 165, 90, 157, 86, 90, 165, 3, 2.03131
148, 2, wb, attraction, a-b-da, 9, 2, 2, 32, 165, 90, 157, 86, 90, 165, 1, 1.52462
148, 2, wb, attraction, a-b-da, 2, 2, 2, 33, 90, 165, 163, 89, 165, 90, 3, 1.63664
148, 2, wb, attraction, a-b-da, 2, 2, 2, 33, 90, 165, 163, 89, 165, 90, 2, 0.498126
148, 2, wb, filler, NA, 999, 999, 2, 34, 119, 147, 76, 79, 109, 89, 2, 1.09185
148, 2, wb, filler, NA, 999, 999, 2, 34, 119, 147, 76, 79, 109, 89, 1, 0.358793
148, 2, wb, attraction, a-b-db, 9, 1, 2, 35, 135, 60, 57, 129, 60, 135, 1, 1.46997
148, 2, wb, attraction, a-b-db, 9, 1, 2, 35, 135, 60, 57, 129, 60, 135, 3, 0.402269
148, 2, wb, attraction, a-b-da, 2, 1, 2, 36, 134, 59, 60, 135, 135, 60, 3, 3.0002
148, 2, wb, attraction, a-b-da, 2, 1, 2, 36, 134, 59, 60, 135, 135, 60, 2, 0.678332
148, 2, wb, filler, NA, 999, 999, 2, 37, 56, 89, 168, 63, 106, 179, 1, 0.608743
148, 2, wb, filler, NA, 999, 999, 2, 37, 56, 89, 168, 63, 106, 179, 3, 0.368911
148, 2, wb, attraction, a-b-db, 5, 3, 3, 1, 117, 190, 195, 120, 120, 195, 1, 3.75035
148, 2, wb, attraction, a-b-db, 5, 3, 3, 1, 117, 190, 195, 120, 120, 195, 2, 0.39863
148, 2, wb, attraction, a-b-da, 14, 1, 3, 2, 135, 60, 60, 135, 125, 56, 2, 1.42033
148, 2, wb, attraction, a-b-da, 14, 1, 3, 2, 135, 60, 60, 135, 125, 56, 1, 0.369824
148, 2, wb, attraction, a-b-db, 14, 3, 3, 3, 120, 195, 111, 181, 195, 120, 2, 1.75305
148, 2, wb, attraction, a-b-db, 14, 3, 3, 3, 120, 195, 111, 181, 195, 120, 3, 0.497839
148, 2, wb, catch, NA, 999, 999, 3, 4, 66, 129, 157, 98, 173, 142, 1, 0.563579
148, 2, wb, catch, NA, 999, 999, 3, 4, 66, 129, 157, 98, 173, 142, 3, 0.436194
148, 2, wb, attraction, a-b-db, 2, 1, 3, 5, 135, 60, 60, 135, 59, 134, 2, 7.54454
148, 2, wb, attraction, a-b-db, 2, 1, 3, 5, 135, 60, 60, 135, 59, 134, 1, 0.719446
148, 2, wb, filler, NA, 999, 999, 3, 6, 143, 60, 138, 167, 64, 99, 3, 1.48052
148, 2, wb, filler, NA, 999, 999, 3, 6, 143, 60, 138, 167, 64, 99, 2, 0.356172
148, 2, wb, attraction, a-b-da, 14, 3, 3, 7, 181, 111, 120, 195, 195, 120, 3, 2.01932
148, 2, wb, attraction, a-b-da, 14, 3, 3, 7, 181, 111, 120, 195, 195, 120, 2, 0.505226
148, 2, wb, attraction, a-b-da, 2, 1, 3, 8, 135, 60, 60, 135, 134, 59, 2, 0.979061
148, 2, wb, attraction, a-b-da, 2, 1, 3, 8, 135, 60, 60, 135, 134, 59, 3, 0.850682
148, 2, wb, catch, NA, 999, 999, 3, 9, 124, 191, 162, 93, 67, 128, 3, 1.34231
148, 2, wb, catch, NA, 999, 999, 3, 9, 124, 191, 162, 93, 67, 128, 1, 0.527199
148, 2, wb, filler, NA, 999, 999, 3, 10, 94, 92, 148, 147, 174, 168, 1, 1.19165
148, 2, wb, filler, NA, 999, 999, 3, 10, 94, 92, 148, 147, 174, 168, 3, 0.574566
148, 2, wb, filler, NA, 999, 999, 3, 11, 80, 190, 162, 75, 62, 193, 3, 1.637
148, 2, wb, filler, NA, 999, 999, 3, 11, 80, 190, 162, 75, 62, 193, 1, 0.64992
148, 2, wb, attraction, a-b-da, 9, 1, 3, 12, 60, 135, 129, 57, 135, 60, 1, 1.19754
148, 2, wb, attraction, a-b-da, 9, 1, 3, 12, 60, 135, 129, 57, 135, 60, 3, 0.660501
148, 2, wb, attraction, a-b-db, 5, 1, 3, 13, 58, 132, 60, 135, 135, 60, 1, 1.51152
148, 2, wb, attraction, a-b-db, 5, 1, 3, 13, 58, 132, 60, 135, 135, 60, 3, 1.08274
148, 2, wb, filler, NA, 999, 999, 3, 14, 171, 97, 89, 108, 111, 135, 2, 0.651913
148, 2, wb, filler, NA, 999, 999, 3, 14, 171, 97, 89, 108, 111, 135, 1, 1.18509
148, 2, wb, attraction, a-b-db, 5, 2, 3, 15, 88, 161, 165, 90, 90, 165, 3, 3.33535
148, 2, wb, attraction, a-b-db, 5, 2, 3, 15, 88, 161, 165, 90, 90, 165, 1, 0.544263
148, 2, wb, filler, NA, 999, 999, 3, 16, 168, 62, 135, 74, 67, 175, 3, 1.15204
148, 2, wb, filler, NA, 999, 999, 3, 16, 168, 62, 135, 74, 67, 175, 2, 0.369004
148, 2, wb, catch, NA, 999, 999, 3, 17, 113, 142, 182, 133, 84, 111, 3, 0.760151
148, 2, wb, catch, NA, 999, 999, 3, 17, 113, 142, 182, 133, 84, 111, 2, 0.632526
148, 2, wb, attraction, a-b-da, 5, 3, 3, 18, 190, 117, 120, 195, 195, 120, 3, 3.78906
148, 2, wb, attraction, a-b-da, 5, 3, 3, 18, 190, 117, 120, 195, 195, 120, 2, 0.371098
148, 2, wb, filler, NA, 999, 999, 3, 19, 169, 77, 76, 85, 149, 182, 2, 0.666247
148, 2, wb, filler, NA, 999, 999, 3, 19, 169, 77, 76, 85, 149, 182, 3, 1.07867
148, 2, wb, filler, NA, 999, 999, 3, 20, 169, 112, 156, 88, 166, 153, 2, 1.93694
148, 2, wb, filler, NA, 999, 999, 3, 20, 169, 112, 156, 88, 166, 153, 3, 0.554414
148, 2, wb, attraction, a-b-da, 2, 3, 3, 21, 195, 120, 120, 195, 193, 119, 2, 0.954146
148, 2, wb, attraction, a-b-da, 2, 3, 3, 21, 195, 120, 120, 195, 193, 119, 1, 0.578449
148, 2, wb, attraction, a-b-db, 2, 2, 3, 22, 90, 165, 165, 90, 89, 163, 2, 1.08898
148, 2, wb, attraction, a-b-db, 2, 2, 3, 22, 90, 165, 165, 90, 89, 163, 1, 0.427895
148, 2, wb, attraction, a-b-da, 14, 2, 3, 23, 90, 165, 165, 90, 153, 83, 1, 1.24035
148, 2, wb, attraction, a-b-da, 14, 2, 3, 23, 90, 165, 165, 90, 153, 83, 3, 0.92533
148, 2, wb, attraction, a-b-db, 9, 2, 3, 24, 86, 157, 90, 165, 165, 90, 3, 1.66951
148, 2, wb, attraction, a-b-db, 9, 2, 3, 24, 86, 157, 90, 165, 165, 90, 2, 0.425667
148, 2, wb, attraction, a-b-da, 5, 1, 3, 25, 132, 58, 60, 135, 135, 60, 1, 2.57411
148, 2, wb, attraction, a-b-da, 5, 1, 3, 25, 132, 58, 60, 135, 135, 60, 2, 0.909401
148, 2, wb, filler, NA, 999, 999, 3, 26, 165, 131, 117, 170, 86, 167, 3, 1.06224
148, 2, wb, filler, NA, 999, 999, 3, 26, 165, 131, 117, 170, 86, 167, 1, 0.688774
148, 2, wb, attraction, a-b-db, 9, 1, 3, 27, 135, 60, 60, 135, 57, 129, 3, 1.62895
148, 2, wb, attraction, a-b-db, 9, 1, 3, 27, 135, 60, 60, 135, 57, 129, 1, 0.802449
148, 2, wb, attraction, a-b-db, 14, 2, 3, 28, 90, 165, 165, 90, 83, 153, 1, 5.39215
148, 2, wb, attraction, a-b-db, 14, 2, 3, 28, 90, 165, 165, 90, 83, 153, 2, 1.02172
148, 2, wb, attraction, a-b-db, 14, 1, 3, 29, 60, 135, 56, 125, 135, 60, 2, 2.58671
148, 2, wb, attraction, a-b-db, 14, 1, 3, 29, 60, 135, 56, 125, 135, 60, 3, 1.34588
148, 2, wb, attraction, a-b-da, 9, 2, 3, 30, 157, 86, 165, 90, 90, 165, 3, 4.54552
148, 2, wb, attraction, a-b-da, 9, 2, 3, 30, 157, 86, 165, 90, 90, 165, 2, 0.729376
148, 2, wb, filler, NA, 999, 999, 3, 31, 179, 69, 114, 142, 83, 136, 3, 2.72967
148, 2, wb, filler, NA, 999, 999, 3, 31, 179, 69, 114, 142, 83, 136, 2, 1.1068
148, 2, wb, attraction, a-b-da, 9, 3, 3, 32, 186, 114, 120, 195, 195, 120, 1, 3.32367
148, 2, wb, attraction, a-b-da, 9, 3, 3, 32, 186, 114, 120, 195, 195, 120, 2, 0.540616
148, 2, wb, attraction, a-b-db, 2, 3, 3, 33, 120, 195, 195, 120, 119, 193, 1, 3.3324
148, 2, wb, attraction, a-b-db, 2, 3, 3, 33, 120, 195, 195, 120, 119, 193, 2, 0.581439
148, 2, wb, attraction, a-b-da, 5, 2, 3, 34, 165, 90, 90, 165, 161, 88, 3, 1.34779
148, 2, wb, attraction, a-b-da, 5, 2, 3, 34, 165, 90, 90, 165, 161, 88, 2, 0.564677
148, 2, wb, attraction, a-b-db, 9, 3, 3, 35, 114, 186, 195, 120, 120, 195, 2, 2.83579
148, 2, wb, attraction, a-b-db, 9, 3, 3, 35, 114, 186, 195, 120, 120, 195, 3, 0.984967
148, 2, wb, attraction, a-b-da, 2, 2, 3, 36, 90, 165, 165, 90, 163, 89, 1, 5.45514
148, 2, wb, attraction, a-b-da, 2, 2, 3, 36, 90, 165, 165, 90, 163, 89, 2, 0.410784
148, 2, wb, filler, NA, 999, 999, 3, 37, 184, 63, 109, 57, 86, 177, 2, 1.07202
148, 2, wb, filler, NA, 999, 999, 3, 37, 184, 63, 109, 57, 86, 177, 3, 1.44351
148, 2, wb, filler, NA, 999, 999, 4, 1, 121, 141, 127, 98, 97, 88, 3, 1.51096
148, 2, wb, filler, NA, 999, 999, 4, 1, 121, 141, 127, 98, 97, 88, 1, 0.641295
148, 2, wb, catch, NA, 999, 999, 4, 2, 116, 139, 145, 170, 81, 114, 3, 1.0849
148, 2, wb, catch, NA, 999, 999, 4, 2, 116, 139, 145, 170, 81, 114, 2, 0.496594
148, 2, wb, attraction, a-b-da, 5, 3, 4, 3, 190, 117, 195, 120, 120, 195, 1, 4.57844
148, 2, wb, attraction, a-b-da, 5, 3, 4, 3, 190, 117, 195, 120, 120, 195, 3, 0.336938
148, 2, wb, filler, NA, 999, 999, 4, 4, 139, 106, 142, 56, 107, 76, 2, 1.85754
148, 2, wb, filler, NA, 999, 999, 4, 4, 139, 106, 142, 56, 107, 76, 1, 0.97347
148, 2, wb, attraction, a-b-da, 14, 2, 4, 5, 165, 90, 153, 83, 90, 165, 2, 1.94776
148, 2, wb, attraction, a-b-da, 14, 2, 4, 5, 165, 90, 153, 83, 90, 165, 1, 0.460565
148, 2, wb, attraction, a-b-db, 2, 3, 4, 6, 120, 195, 195, 120, 119, 193, 2, 4.71168
148, 2, wb, attraction, a-b-db, 2, 3, 4, 6, 120, 195, 195, 120, 119, 193, 1, 0.544737
148, 2, wb, attraction, a-b-da, 5, 2, 4, 7, 161, 88, 165, 90, 90, 165, 1, 2.92853
148, 2, wb, attraction, a-b-da, 5, 2, 4, 7, 161, 88, 165, 90, 90, 165, 3, 0.409565
148, 2, wb, attraction, a-b-db, 14, 3, 4, 8, 195, 120, 120, 195, 111, 181, 3, 3.10271
148, 2, wb, attraction, a-b-db, 14, 3, 4, 8, 195, 120, 120, 195, 111, 181, 2, 1.37719
148, 2, wb, attraction, a-b-da, 2, 3, 4, 9, 193, 119, 120, 195, 195, 120, 3, 12.5113
148, 2, wb, attraction, a-b-da, 2, 3, 4, 9, 193, 119, 120, 195, 195, 120, 1, 0.597965
148, 2, wb, attraction, a-b-db, 9, 2, 4, 10, 165, 90, 90, 165, 86, 157, 3, 1.15575
148, 2, wb, attraction, a-b-db, 9, 2, 4, 10, 165, 90, 90, 165, 86, 157, 2, 0.475921
148, 2, wb, filler, NA, 999, 999, 4, 11, 93, 115, 157, 163, 158, 181, 1, 0.670466
148, 2, wb, filler, NA, 999, 999, 4, 11, 93, 115, 157, 163, 158, 181, 3, 0.354913
148, 2, wb, attraction, a-b-da, 5, 1, 4, 12, 132, 58, 135, 60, 60, 135, 2, 1.15472
148, 2, wb, attraction, a-b-da, 5, 1, 4, 12, 132, 58, 135, 60, 60, 135, 1, 0.339041
148, 2, wb, filler, NA, 999, 999, 4, 13, 164, 63, 149, 138, 80, 61, 3, 0.979554
148, 2, wb, filler, NA, 999, 999, 4, 13, 164, 63, 149, 138, 80, 61, 2, 0.379282
148, 2, wb, attraction, a-b-da, 2, 2, 4, 14, 163, 89, 90, 165, 165, 90, 2, 0.833674
148, 2, wb, attraction, a-b-da, 2, 2, 4, 14, 163, 89, 90, 165, 165, 90, 1, 0.615508
148, 2, wb, attraction, a-b-db, 14, 1, 4, 15, 56, 125, 135, 60, 60, 135, 1, 0.908487
148, 2, wb, attraction, a-b-db, 14, 1, 4, 15, 56, 125, 135, 60, 60, 135, 3, 0.342808
148, 2, wb, filler, NA, 999, 999, 4, 16, 162, 83, 64, 112, 171, 145, 2, 0.590619
148, 2, wb, filler, NA, 999, 999, 4, 16, 162, 83, 64, 112, 171, 145, 3, 0.357775
148, 2, wb, catch, NA, 999, 999, 4, 17, 131, 124, 139, 176, 85, 110, 3, 0.9091
148, 2, wb, catch, NA, 999, 999, 4, 17, 131, 124, 139, 176, 85, 110, 2, 0.391244
148, 2, wb, attraction, a-b-db, 5, 3, 4, 18, 120, 195, 195, 120, 117, 190, 2, 0.789116
148, 2, wb, attraction, a-b-db, 5, 3, 4, 18, 120, 195, 195, 120, 117, 190, 1, 0.372189
148, 2, wb, attraction, a-b-da, 14, 3, 4, 19, 195, 120, 120, 195, 181, 111, 3, 0.963348
148, 2, wb, attraction, a-b-da, 14, 3, 4, 19, 195, 120, 120, 195, 181, 111, 1, 0.371676
148, 2, wb, attraction, a-b-db, 5, 2, 4, 20, 165, 90, 90, 165, 88, 161, 1, 1.20285
148, 2, wb, attraction, a-b-db, 5, 2, 4, 20, 165, 90, 90, 165, 88, 161, 3, 0.369733
148, 2, wb, filler, NA, 999, 999, 4, 21, 192, 189, 155, 95, 118, 104, 3, 0.944921
148, 2, wb, filler, NA, 999, 999, 4, 21, 192, 189, 155, 95, 118, 104, 1, 0.345934
148, 2, wb, attraction, a-b-db, 5, 1, 4, 22, 135, 60, 60, 135, 58, 132, 1, 0.889709
148, 2, wb, attraction, a-b-db, 5, 1, 4, 22, 135, 60, 60, 135, 58, 132, 3, 0.508828
148, 2, wb, attraction, a-b-da, 2, 1, 4, 23, 134, 59, 135, 60, 60, 135, 2, 1.02191
148, 2, wb, attraction, a-b-da, 2, 1, 4, 23, 134, 59, 135, 60, 60, 135, 1, 0.483649
148, 2, wb, filler, NA, 999, 999, 4, 24, 118, 160, 100, 101, 117, 163, 2, 0.877998
148, 2, wb, filler, NA, 999, 999, 4, 24, 118, 160, 100, 101, 117, 163, 1, 1.2898
148, 2, wb, filler, NA, 999, 999, 4, 25, 139, 195, 77, 93, 195, 70, 2, 0.803249
148, 2, wb, filler, NA, 999, 999, 4, 25, 139, 195, 77, 93, 195, 70, 1, 0.450445
148, 2, wb, attraction, a-b-da, 9, 2, 4, 26, 157, 86, 90, 165, 165, 90, 3, 0.750072
148, 2, wb, attraction, a-b-da, 9, 2, 4, 26, 157, 86, 90, 165, 165, 90, 2, 0.719199
148, 2, wb, attraction, a-b-db, 9, 3, 4, 27, 195, 120, 120, 195, 114, 186, 3, 0.800216
148, 2, wb, attraction, a-b-db, 9, 3, 4, 27, 195, 120, 120, 195, 114, 186, 1, 0.407254
148, 2, wb, attraction, a-b-db, 9, 1, 4, 28, 135, 60, 57, 129, 60, 135, 2, 1.36445
148, 2, wb, attraction, a-b-db, 9, 1, 4, 28, 135, 60, 57, 129, 60, 135, 1, 0.396579
148, 2, wb, attraction, a-b-db, 14, 2, 4, 29, 90, 165, 83, 153, 165, 90, 2, 1.51449
148, 2, wb, attraction, a-b-db, 14, 2, 4, 29, 90, 165, 83, 153, 165, 90, 1, 0.428605
148, 2, wb, attraction, a-b-da, 14, 1, 4, 30, 60, 135, 125, 56, 135, 60, 2, 0.865078
148, 2, wb, attraction, a-b-da, 14, 1, 4, 30, 60, 135, 125, 56, 135, 60, 1, 0.381565
148, 2, wb, filler, NA, 999, 999, 4, 31, 83, 192, 120, 169, 93, 68, 3, 0.715937
148, 2, wb, filler, NA, 999, 999, 4, 31, 83, 192, 120, 169, 93, 68, 2, 0.366325
148, 2, wb, attraction, a-b-db, 2, 1, 4, 32, 135, 60, 59, 134, 60, 135, 3, 1.00556
148, 2, wb, attraction, a-b-db, 2, 1, 4, 32, 135, 60, 59, 134, 60, 135, 2, 0.795895
148, 2, wb, attraction, a-b-da, 9, 3, 4, 33, 195, 120, 120, 195, 186, 114, 3, 0.60956
148, 2, wb, attraction, a-b-da, 9, 3, 4, 33, 195, 120, 120, 195, 186, 114, 1, 0.688038
148, 2, wb, filler, NA, 999, 999, 4, 34, 120, 140, 195, 129, 121, 170, 3, 1.01841
148, 2, wb, filler, NA, 999, 999, 4, 34, 120, 140, 195, 129, 121, 170, 2, 0.3367
148, 2, wb, attraction, a-b-db, 2, 2, 4, 35, 165, 90, 89, 163, 90, 165, 2, 0.865214
148, 2, wb, attraction, a-b-db, 2, 2, 4, 35, 165, 90, 89, 163, 90, 165, 1, 0.66155
148, 2, wb, attraction, a-b-da, 9, 1, 4, 36, 60, 135, 135, 60, 129, 57, 3, 0.800708
148, 2, wb, attraction, a-b-da, 9, 1, 4, 36, 60, 135, 135, 60, 129, 57, 1, 0.986844
148, 2, wb, catch, NA, 999, 999, 4, 37, 151, 164, 104, 151, 86, 109, 3, 0.79015
148, 2, wb, catch, NA, 999, 999, 4, 37, 151, 164, 104, 151, 86, 109, 1, 0.541155
148, 2, wb, filler, NA, 999, 999, 5, 1, 124, 72, 119, 165, 143, 115, 1, 2.16358
148, 2, wb, filler, NA, 999, 999, 5, 1, 124, 72, 119, 165, 143, 115, 2, 0.451438
148, 2, wb, attraction, a-b-da, 5, 2, 5, 2, 161, 88, 90, 165, 165, 90, 3, 2.3993
148, 2, wb, attraction, a-b-da, 5, 2, 5, 2, 161, 88, 90, 165, 165, 90, 2, 1.02183
148, 2, wb, catch, NA, 999, 999, 5, 3, 151, 104, 187, 128, 63, 132, 3, 1.08276
148, 2, wb, catch, NA, 999, 999, 5, 3, 151, 104, 187, 128, 63, 132, 2, 0.390404
148, 2, wb, attraction, a-b-db, 2, 1, 5, 4, 135, 60, 60, 135, 59, 134, 2, 0.988214
148, 2, wb, attraction, a-b-db, 2, 1, 5, 4, 135, 60, 60, 135, 59, 134, 1, 0.44318
148, 2, wb, filler, NA, 999, 999, 5, 5, 134, 171, 92, 96, 189, 149, 2, 0.639098
148, 2, wb, filler, NA, 999, 999, 5, 5, 134, 171, 92, 96, 189, 149, 3, 0.796109
148, 2, wb, filler, NA, 999, 999, 5, 6, 146, 97, 61, 144, 150, 77, 2, 1.61782
148, 2, wb, filler, NA, 999, 999, 5, 6, 146, 97, 61, 144, 150, 77, 1, 0.383926
148, 2, wb, filler, NA, 999, 999, 5, 7, 84, 193, 66, 59, 77, 192, 2, 0.854351
148, 2, wb, filler, NA, 999, 999, 5, 7, 84, 193, 66, 59, 77, 192, 1, 0.970829
148, 2, wb, attraction, a-b-db, 5, 2, 5, 8, 165, 90, 88, 161, 90, 165, 2, 2.77776
148, 2, wb, attraction, a-b-db, 5, 2, 5, 8, 165, 90, 88, 161, 90, 165, 1, 0.400922
148, 2, wb, attraction, a-b-da, 5, 3, 5, 9, 195, 120, 120, 195, 190, 117, 3, 1.37481
148, 2, wb, attraction, a-b-da, 5, 3, 5, 9, 195, 120, 120, 195, 190, 117, 2, 0.606331
148, 2, wb, attraction, a-b-db, 14, 2, 5, 10, 165, 90, 83, 153, 90, 165, 1, 2.48331
148, 2, wb, attraction, a-b-db, 14, 2, 5, 10, 165, 90, 83, 153, 90, 165, 3, 0.526486
148, 2, wb, attraction, a-b-db, 9, 3, 5, 11, 120, 195, 195, 120, 114, 186, 2, 3.1431
148, 2, wb, attraction, a-b-db, 9, 3, 5, 11, 120, 195, 195, 120, 114, 186, 1, 0.383276
148, 2, wb, attraction, a-b-db, 14, 1, 5, 12, 60, 135, 135, 60, 56, 125, 3, 2.09375
148, 2, wb, attraction, a-b-db, 14, 1, 5, 12, 60, 135, 135, 60, 56, 125, 1, 0.336519
148, 2, wb, filler, NA, 999, 999, 5, 13, 172, 118, 164, 84, 194, 73, 2, 4.36098
148, 2, wb, filler, NA, 999, 999, 5, 13, 172, 118, 164, 84, 194, 73, 1, 0.424225
148, 2, wb, filler, NA, 999, 999, 5, 14, 106, 63, 132, 96, 95, 180, 1, 0.892695
148, 2, wb, filler, NA, 999, 999, 5, 14, 106, 63, 132, 96, 95, 180, 3, 1.75975
148, 2, wb, attraction, a-b-da, 9, 3, 5, 15, 120, 195, 186, 114, 195, 120, 2, 2.21447
148, 2, wb, attraction, a-b-da, 9, 3, 5, 15, 120, 195, 186, 114, 195, 120, 1, 0.380389
148, 2, wb, filler, NA, 999, 999, 5, 16, 80, 166, 156, 116, 101, 111, 1, 1.71492
148, 2, wb, filler, NA, 999, 999, 5, 16, 80, 166, 156, 116, 101, 111, 2, 0.685032
148, 2, wb, filler, NA, 999, 999, 5, 17, 64, 143, 180, 168, 117, 154, 1, 0.631343
148, 2, wb, filler, NA, 999, 999, 5, 17, 64, 143, 180, 168, 117, 154, 2, 0.309145
148, 2, wb, filler, NA, 999, 999, 5, 18, 195, 165, 138, 140, 125, 96, 3, 0.798324
148, 2, wb, filler, NA, 999, 999, 5, 18, 195, 165, 138, 140, 125, 96, 1, 0.437358
148, 2, wb, attraction, a-b-da, 2, 3, 5, 19, 193, 119, 195, 120, 120, 195, 1, 2.44999
148, 2, wb, attraction, a-b-da, 2, 3, 5, 19, 193, 119, 195, 120, 120, 195, 3, 0.366548
148, 2, wb, attraction, a-b-da, 2, 1, 5, 20, 135, 60, 134, 59, 60, 135, 2, 1.46955
148, 2, wb, attraction, a-b-da, 2, 1, 5, 20, 135, 60, 134, 59, 60, 135, 3, 0.705732
148, 2, wb, attraction, a-b-db, 2, 2, 5, 21, 90, 165, 89, 163, 165, 90, 1, 1.57943
148, 2, wb, attraction, a-b-db, 2, 2, 5, 21, 90, 165, 89, 163, 165, 90, 3, 0.539072
148, 2, wb, attraction, a-b-db, 2, 3, 5, 22, 120, 195, 195, 120, 119, 193, 2, 1.89134
148, 2, wb, attraction, a-b-db, 2, 3, 5, 22, 120, 195, 195, 120, 119, 193, 3, 0.302065
148, 2, wb, attraction, a-b-da, 2, 2, 5, 23, 90, 165, 163, 89, 165, 90, 3, 1.528
148, 2, wb, attraction, a-b-da, 2, 2, 5, 23, 90, 165, 163, 89, 165, 90, 1, 0.449432
148, 2, wb, attraction, a-b-db, 5, 1, 5, 24, 58, 132, 135, 60, 60, 135, 2, 1.10919
148, 2, wb, attraction, a-b-db, 5, 1, 5, 24, 58, 132, 135, 60, 60, 135, 3, 0.671503
148, 2, wb, attraction, a-b-da, 14, 1, 5, 25, 60, 135, 135, 60, 125, 56, 3, 2.37058
148, 2, wb, attraction, a-b-da, 14, 1, 5, 25, 60, 135, 135, 60, 125, 56, 1, 0.4026
148, 2, wb, catch, NA, 999, 999, 5, 26, 66, 129, 175, 140, 130, 125, 1, 0.616324
148, 2, wb, catch, NA, 999, 999, 5, 26, 66, 129, 175, 140, 130, 125, 2, 0.48679
148, 2, wb, attraction, a-b-da, 9, 1, 5, 27, 129, 57, 135, 60, 60, 135, 3, 0.777213
148, 2, wb, attraction, a-b-da, 9, 1, 5, 27, 129, 57, 135, 60, 60, 135, 1, 0.640951
148, 2, wb, filler, NA, 999, 999, 5, 28, 115, 155, 110, 140, 91, 130, 3, 0.860722
148, 2, wb, filler, NA, 999, 999, 5, 28, 115, 155, 110, 140, 91, 130, 1, 0.529022
148, 2, wb, attraction, a-b-da, 5, 1, 5, 29, 132, 58, 135, 60, 60, 135, 3, 1.08147
148, 2, wb, attraction, a-b-da, 5, 1, 5, 29, 132, 58, 135, 60, 60, 135, 1, 0.717124
148, 2, wb, attraction, a-b-da, 14, 2, 5, 30, 165, 90, 153, 83, 90, 165, 2, 1.10229
148, 2, wb, attraction, a-b-da, 14, 2, 5, 30, 165, 90, 153, 83, 90, 165, 1, 0.6332
148, 2, wb, attraction, a-b-db, 5, 3, 5, 31, 120, 195, 195, 120, 117, 190, 2, 1.46963
148, 2, wb, attraction, a-b-db, 5, 3, 5, 31, 120, 195, 195, 120, 117, 190, 1, 0.144412
148, 2, wb, attraction, a-b-db, 9, 1, 5, 32, 57, 129, 60, 135, 135, 60, 1, 4.43366
148, 2, wb, attraction, a-b-db, 9, 1, 5, 32, 57, 129, 60, 135, 135, 60, 2, 0.910302
148, 2, wb, attraction, a-b-db, 9, 2, 5, 33, 86, 157, 165, 90, 90, 165, 2, 0.807171
148, 2, wb, attraction, a-b-db, 9, 2, 5, 33, 86, 157, 165, 90, 90, 165, 3, 1.54977
148, 2, wb, catch, NA, 999, 999, 5, 34, 139, 116, 64, 131, 169, 146, 2, 0.645077
148, 2, wb, catch, NA, 999, 999, 5, 34, 139, 116, 64, 131, 169, 146, 3, 0.394202
148, 2, wb, attraction, a-b-da, 9, 2, 5, 35, 165, 90, 90, 165, 157, 86, 3, 2.07195
148, 2, wb, attraction, a-b-da, 9, 2, 5, 35, 165, 90, 90, 165, 157, 86, 1, 1.1393
148, 2, wb, attraction, a-b-da, 14, 3, 5, 36, 120, 195, 181, 111, 195, 120, 2, 1.33149
148, 2, wb, attraction, a-b-da, 14, 3, 5, 36, 120, 195, 181, 111, 195, 120, 3, 0.389084
148, 2, wb, attraction, a-b-db, 14, 3, 5, 37, 111, 181, 120, 195, 195, 120, 1, 1.57113
148, 2, wb, attraction, a-b-db, 14, 3, 5, 37, 111, 181, 120, 195, 195, 120, 3, 0.786507
148, 2, wb, attraction, a-b-da, 9, 3, 6, 1, 186, 114, 120, 195, 195, 120, 1, 0.896746
148, 2, wb, attraction, a-b-da, 9, 3, 6, 1, 186, 114, 120, 195, 195, 120, 2, 0.339779
148, 2, wb, attraction, a-b-db, 2, 3, 6, 2, 120, 195, 195, 120, 119, 193, 2, 4.38761
148, 2, wb, attraction, a-b-db, 2, 3, 6, 2, 120, 195, 195, 120, 119, 193, 3, 0.330254
148, 2, wb, filler, NA, 999, 999, 6, 3, 103, 103, 64, 72, 140, 138, 2, 0.642757
148, 2, wb, filler, NA, 999, 999, 6, 3, 103, 103, 64, 72, 140, 138, 3, 0.455844
148, 2, wb, filler, NA, 999, 999, 6, 4, 99, 166, 176, 152, 155, 101, 1, 0.843647
148, 2, wb, filler, NA, 999, 999, 6, 4, 99, 166, 176, 152, 155, 101, 2, 0.472742
148, 2, wb, attraction, a-b-db, 5, 3, 6, 5, 120, 195, 195, 120, 117, 190, 3, 4.91526
148, 2, wb, attraction, a-b-db, 5, 3, 6, 5, 120, 195, 195, 120, 117, 190, 1, 0.716265
148, 2, wb, attraction, a-b-db, 14, 3, 6, 6, 120, 195, 195, 120, 111, 181, 3, 1.08536
148, 2, wb, attraction, a-b-db, 14, 3, 6, 6, 120, 195, 195, 120, 111, 181, 1, 0.649069
148, 2, wb, filler, NA, 999, 999, 6, 7, 67, 82, 57, 83, 69, 179, 2, 1.2447
148, 2, wb, filler, NA, 999, 999, 6, 7, 67, 82, 57, 83, 69, 179, 3, 2.42569
148, 2, wb, catch, NA, 999, 999, 6, 8, 129, 66, 105, 150, 150, 165, 1, 1.24544
148, 2, wb, catch, NA, 999, 999, 6, 8, 129, 66, 105, 150, 150, 165, 3, 0.466389
148, 2, wb, attraction, a-b-db, 9, 3, 6, 9, 195, 120, 114, 186, 120, 195, 2, 4.22155
148, 2, wb, attraction, a-b-db, 9, 3, 6, 9, 195, 120, 114, 186, 120, 195, 3, 0.330146
148, 2, wb, filler, NA, 999, 999, 6, 10, 111, 191, 160, 115, 73, 58, 3, 1.21871
148, 2, wb, filler, NA, 999, 999, 6, 10, 111, 191, 160, 115, 73, 58, 1, 0.344921
148, 2, wb, filler, NA, 999, 999, 6, 11, 165, 118, 111, 175, 75, 91, 3, 1.27278
148, 2, wb, filler, NA, 999, 999, 6, 11, 165, 118, 111, 175, 75, 91, 1, 2.17235
148, 2, wb, attraction, a-b-db, 9, 2, 6, 12, 90, 165, 165, 90, 86, 157, 1, 1.92285
148, 2, wb, attraction, a-b-db, 9, 2, 6, 12, 90, 165, 165, 90, 86, 157, 3, 0.340384
148, 2, wb, attraction, a-b-db, 2, 2, 6, 13, 90, 165, 89, 163, 165, 90, 1, 3.23608
148, 2, wb, attraction, a-b-db, 2, 2, 6, 13, 90, 165, 89, 163, 165, 90, 3, 0.505109
148, 2, wb, attraction, a-b-db, 2, 1, 6, 14, 135, 60, 60, 135, 59, 134, 1, 3.67878
148, 2, wb, attraction, a-b-db, 2, 1, 6, 14, 135, 60, 60, 135, 59, 134, 2, 0.525717
148, 2, wb, attraction, a-b-da, 2, 1, 6, 15, 135, 60, 60, 135, 134, 59, 2, 0.734129
148, 2, wb, attraction, a-b-da, 2, 1, 6, 15, 135, 60, 60, 135, 134, 59, 3, 0.55191
148, 2, wb, attraction, a-b-db, 9, 1, 6, 16, 60, 135, 57, 129, 135, 60, 1, 0.519685
148, 2, wb, attraction, a-b-db, 9, 1, 6, 16, 60, 135, 57, 129, 135, 60, 3, 0.522149
148, 2, wb, attraction, a-b-db, 14, 1, 6, 17, 60, 135, 56, 125, 135, 60, 1, 0.883321
148, 2, wb, attraction, a-b-db, 14, 1, 6, 17, 60, 135, 56, 125, 135, 60, 3, 0.494921
148, 2, wb, attraction, a-b-da, 14, 1, 6, 18, 135, 60, 60, 135, 125, 56, 3, 1.82471
148, 2, wb, attraction, a-b-da, 14, 1, 6, 18, 135, 60, 60, 135, 125, 56, 1, 0.86224
148, 2, wb, attraction, a-b-da, 2, 2, 6, 19, 90, 165, 163, 89, 165, 90, 2, 1.76108
148, 2, wb, attraction, a-b-da, 2, 2, 6, 19, 90, 165, 163, 89, 165, 90, 3, 0.649233
148, 2, wb, attraction, a-b-da, 14, 2, 6, 20, 165, 90, 153, 83, 90, 165, 2, 2.68497
148, 2, wb, attraction, a-b-da, 14, 2, 6, 20, 165, 90, 153, 83, 90, 165, 1, 0.528101
148, 2, wb, attraction, a-b-da, 14, 3, 6, 21, 195, 120, 181, 111, 120, 195, 2, 1.72051
148, 2, wb, attraction, a-b-da, 14, 3, 6, 21, 195, 120, 181, 111, 120, 195, 1, 0.994155
148, 2, wb, attraction, a-b-da, 9, 1, 6, 22, 135, 60, 60, 135, 129, 57, 2, 2.55965
148, 2, wb, attraction, a-b-da, 9, 1, 6, 22, 135, 60, 60, 135, 129, 57, 3, 0.559497
148, 2, wb, attraction, a-b-db, 14, 2, 6, 23, 83, 153, 90, 165, 165, 90, 1, 1.58254
148, 2, wb, attraction, a-b-db, 14, 2, 6, 23, 83, 153, 90, 165, 165, 90, 3, 0.470062
148, 2, wb, catch, NA, 999, 999, 6, 24, 159, 156, 89, 106, 109, 146, 2, 0.745189
148, 2, wb, catch, NA, 999, 999, 6, 24, 159, 156, 89, 106, 109, 146, 1, 0.394234
148, 2, wb, filler, NA, 999, 999, 6, 25, 65, 129, 149, 181, 107, 179, 1, 0.760031
148, 2, wb, filler, NA, 999, 999, 6, 25, 65, 129, 149, 181, 107, 179, 2, 0.368502
148, 2, wb, attraction, a-b-db, 5, 1, 6, 26, 60, 135, 135, 60, 58, 132, 1, 2.60758
148, 2, wb, attraction, a-b-db, 5, 1, 6, 26, 60, 135, 135, 60, 58, 132, 3, 0.517412
148, 2, wb, attraction, a-b-da, 5, 1, 6, 27, 60, 135, 132, 58, 135, 60, 2, 2.03054
148, 2, wb, attraction, a-b-da, 5, 1, 6, 27, 60, 135, 132, 58, 135, 60, 3, 0.651958
148, 2, wb, catch, NA, 999, 999, 6, 28, 129, 66, 160, 155, 90, 165, 1, 0.639626
148, 2, wb, catch, NA, 999, 999, 6, 28, 129, 66, 160, 155, 90, 165, 2, 0.348751
148, 2, wb, attraction, a-b-da, 5, 2, 6, 29, 165, 90, 90, 165, 161, 88, 3, 1.86859
148, 2, wb, attraction, a-b-da, 5, 2, 6, 29, 165, 90, 90, 165, 161, 88, 1, 0.616594
148, 2, wb, attraction, a-b-da, 2, 3, 6, 30, 120, 195, 195, 120, 193, 119, 3, 2.26973
148, 2, wb, attraction, a-b-da, 2, 3, 6, 30, 120, 195, 195, 120, 193, 119, 1, 0.441586
148, 2, wb, filler, NA, 999, 999, 6, 31, 67, 56, 110, 139, 193, 59, 1, 0.853549
148, 2, wb, filler, NA, 999, 999, 6, 31, 67, 56, 110, 139, 193, 59, 2, 0.402467
148, 2, wb, filler, NA, 999, 999, 6, 32, 88, 179, 193, 161, 103, 172, 1, 0.976311
148, 2, wb, filler, NA, 999, 999, 6, 32, 88, 179, 193, 161, 103, 172, 2, 0.360074
148, 2, wb, attraction, a-b-da, 9, 2, 6, 33, 90, 165, 157, 86, 165, 90, 1, 3.05514
148, 2, wb, attraction, a-b-da, 9, 2, 6, 33, 90, 165, 157, 86, 165, 90, 3, 0.330883
148, 2, wb, filler, NA, 999, 999, 6, 34, 184, 150, 134, 173, 141, 90, 3, 0.723294
148, 2, wb, filler, NA, 999, 999, 6, 34, 184, 150, 134, 173, 141, 90, 1, 0.421012
148, 2, wb, filler, NA, 999, 999, 6, 35, 138, 191, 190, 120, 59, 68, 3, 0.778224
148, 2, wb, filler, NA, 999, 999, 6, 35, 138, 191, 190, 120, 59, 68, 1, 0.458041
148, 2, wb, attraction, a-b-da, 5, 3, 6, 36, 120, 195, 190, 117, 195, 120, 2, 1.64503
148, 2, wb, attraction, a-b-da, 5, 3, 6, 36, 120, 195, 190, 117, 195, 120, 3, 0.329843
148, 2, wb, attraction, a-b-db, 5, 2, 6, 37, 90, 165, 165, 90, 88, 161, 1, 1.32235
148, 2, wb, attraction, a-b-db, 5, 2, 6, 37, 90, 165, 165, 90, 88, 161, 2, 0.49198
148, 2, wb, attraction, a-b-da, 5, 2, 7, 1, 90, 165, 165, 90, 161, 88, 1, 0.797647
148, 2, wb, attraction, a-b-da, 5, 2, 7, 1, 90, 165, 165, 90, 161, 88, 3, 0.51677
148, 2, wb, attraction, a-b-da, 2, 2, 7, 2, 90, 165, 163, 89, 165, 90, 1, 0.71788
148, 2, wb, attraction, a-b-da, 2, 2, 7, 2, 90, 165, 163, 89, 165, 90, 3, 0.928314
148, 2, wb, filler, NA, 999, 999, 7, 3, 116, 132, 117, 77, 177, 85, 2, 1.28063
148, 2, wb, filler, NA, 999, 999, 7, 3, 116, 132, 117, 77, 177, 85, 1, 0.33228
148, 2, wb, attraction, a-b-db, 14, 1, 7, 4, 60, 135, 135, 60, 56, 125, 1, 0.924808
148, 2, wb, attraction, a-b-db, 14, 1, 7, 4, 60, 135, 135, 60, 56, 125, 3, 0.926512
148, 2, wb, attraction, a-b-da, 9, 2, 7, 5, 165, 90, 90, 165, 157, 86, 3, 2.11871
148, 2, wb, attraction, a-b-da, 9, 2, 7, 5, 165, 90, 90, 165, 157, 86, 1, 0.904659
148, 2, wb, attraction, a-b-db, 9, 2, 7, 6, 86, 157, 165, 90, 90, 165, 1, 2.38649
148, 2, wb, attraction, a-b-db, 9, 2, 7, 6, 86, 157, 165, 90, 90, 165, 3, 0.505608
148, 2, wb, attraction, a-b-db, 5, 1, 7, 7, 135, 60, 60, 135, 58, 132, 3, 3.60337
148, 2, wb, attraction, a-b-db, 5, 1, 7, 7, 135, 60, 60, 135, 58, 132, 1, 0.529627
148, 2, wb, attraction, a-b-db, 9, 3, 7, 8, 114, 186, 120, 195, 195, 120, 1, 1.90595
148, 2, wb, attraction, a-b-db, 9, 3, 7, 8, 114, 186, 120, 195, 195, 120, 3, 0.716099
148, 2, wb, filler, NA, 999, 999, 7, 9, 67, 193, 123, 174, 72, 80, 3, 1.06909
148, 2, wb, filler, NA, 999, 999, 7, 9, 67, 193, 123, 174, 72, 80, 2, 0.689378
148, 2, wb, attraction, a-b-db, 2, 2, 7, 10, 90, 165, 89, 163, 165, 90, 1, 1.16304
148, 2, wb, attraction, a-b-db, 2, 2, 7, 10, 90, 165, 89, 163, 165, 90, 2, 0.411347
148, 2, wb, attraction, a-b-da, 14, 3, 7, 11, 195, 120, 181, 111, 120, 195, 2, 1.6485
148, 2, wb, attraction, a-b-da, 14, 3, 7, 11, 195, 120, 181, 111, 120, 195, 1, 0.845353
148, 2, wb, attraction, a-b-db, 5, 3, 7, 12, 195, 120, 120, 195, 117, 190, 3, 2.42498
148, 2, wb, attraction, a-b-db, 5, 3, 7, 12, 195, 120, 120, 195, 117, 190, 2, 0.390238
148, 2, wb, attraction, a-b-da, 5, 3, 7, 13, 195, 120, 120, 195, 190, 117, 3, 5.9161
148, 2, wb, attraction, a-b-da, 5, 3, 7, 13, 195, 120, 120, 195, 190, 117, 1, 0.356839
148, 2, wb, filler, NA, 999, 999, 7, 14, 194, 120, 68, 187, 94, 76, 3, 1.04398
148, 2, wb, filler, NA, 999, 999, 7, 14, 194, 120, 68, 187, 94, 76, 1, 0.376989
148, 2, wb, catch, NA, 999, 999, 7, 15, 152, 163, 93, 102, 147, 108, 2, 1.27155
148, 2, wb, catch, NA, 999, 999, 7, 15, 152, 163, 93, 102, 147, 108, 1, 0.41908
148, 2, wb, attraction, a-b-da, 14, 1, 7, 16, 125, 56, 60, 135, 135, 60, 1, 1.20027
148, 2, wb, attraction, a-b-da, 14, 1, 7, 16, 125, 56, 60, 135, 135, 60, 3, 0.5992
148, 2, wb, attraction, a-b-db, 9, 1, 7, 17, 60, 135, 135, 60, 57, 129, 3, 0.996847
148, 2, wb, attraction, a-b-db, 9, 1, 7, 17, 60, 135, 135, 60, 57, 129, 1, 0.483865
148, 2, wb, catch, NA, 999, 999, 7, 18, 194, 121, 92, 103, 99, 156, 3, 0.127812
148, 2, wb, catch, NA, 999, 999, 7, 18, 194, 121, 92, 103, 99, 156, 1, 1.60823
148, 2, wb, attraction, a-b-db, 14, 2, 7, 19, 83, 153, 90, 165, 165, 90, 1, 0.821075
148, 2, wb, attraction, a-b-db, 14, 2, 7, 19, 83, 153, 90, 165, 165, 90, 2, 0.491873
148, 2, wb, attraction, a-b-da, 2, 1, 7, 20, 60, 135, 135, 60, 134, 59, 2, 4.30844
148, 2, wb, attraction, a-b-da, 2, 1, 7, 20, 60, 135, 135, 60, 134, 59, 1, 0.381807
148, 2, wb, filler, NA, 999, 999, 7, 21, 132, 124, 114, 113, 155, 89, 2, 2.57246
148, 2, wb, filler, NA, 999, 999, 7, 21, 132, 124, 114, 113, 155, 89, 3, 0.403446
148, 2, wb, filler, NA, 999, 999, 7, 22, 141, 145, 56, 87, 94, 97, 2, 0.737277
148, 2, wb, filler, NA, 999, 999, 7, 22, 141, 145, 56, 87, 94, 97, 1, 0.346278
148, 2, wb, attraction, a-b-da, 2, 3, 7, 23, 195, 120, 193, 119, 120, 195, 2, 0.922196
148, 2, wb, attraction, a-b-da, 2, 3, 7, 23, 195, 120, 193, 119, 120, 195, 1, 0.499883
148, 2, wb, filler, NA, 999, 999, 7, 24, 179, 91, 71, 122, 149, 183, 2, 0.605586
148, 2, wb, filler, NA, 999, 999, 7, 24, 179, 91, 71, 122, 149, 183, 3, 0.18837
148, 2, wb, filler, NA, 999, 999, 7, 25, 92, 175, 161, 78, 137, 92, 2, 3.5066
148, 2, wb, filler, NA, 999, 999, 7, 25, 92, 175, 161, 78, 137, 92, 1, 0.796263
148, 2, wb, filler, NA, 999, 999, 7, 26, 64, 150, 129, 156, 133, 93, 1, 0.777861
148, 2, wb, filler, NA, 999, 999, 7, 26, 64, 150, 129, 156, 133, 93, 2, 0.353583
148, 2, wb, attraction, a-b-db, 2, 1, 7, 27, 59, 134, 60, 135, 135, 60, 1, 1.96143
148, 2, wb, attraction, a-b-db, 2, 1, 7, 27, 59, 134, 60, 135, 135, 60, 2, 0.369583
148, 2, wb, attraction, a-b-da, 5, 1, 7, 28, 60, 135, 132, 58, 135, 60, 1, 1.01669
148, 2, wb, attraction, a-b-da, 5, 1, 7, 28, 60, 135, 132, 58, 135, 60, 2, 0.390967
148, 2, wb, catch, NA, 999, 999, 7, 29, 80, 115, 120, 135, 176, 139, 1, 0.732798
148, 2, wb, catch, NA, 999, 999, 7, 29, 80, 115, 120, 135, 176, 139, 3, 1.01448
148, 2, wb, attraction, a-b-da, 14, 2, 7, 30, 153, 83, 165, 90, 90, 165, 2, 1.28343
148, 2, wb, attraction, a-b-da, 14, 2, 7, 30, 153, 83, 165, 90, 90, 165, 3, 0.855062
148, 2, wb, filler, NA, 999, 999, 7, 31, 76, 162, 88, 149, 68, 85, 3, 0.826679
148, 2, wb, filler, NA, 999, 999, 7, 31, 76, 162, 88, 149, 68, 85, 1, 0.88841
148, 2, wb, filler, NA, 999, 999, 7, 32, 140, 150, 95, 90, 109, 185, 2, 0.602697
148, 2, wb, filler, NA, 999, 999, 7, 32, 140, 150, 95, 90, 109, 185, 1, 0.449833
148, 2, wb, attraction, a-b-da, 9, 3, 7, 33, 120, 195, 186, 114, 195, 120, 2, 1.67775
148, 2, wb, attraction, a-b-da, 9, 3, 7, 33, 120, 195, 186, 114, 195, 120, 1, 0.369243
148, 2, wb, attraction, a-b-db, 2, 3, 7, 34, 119, 193, 195, 120, 120, 195, 2, 3.31229
148, 2, wb, attraction, a-b-db, 2, 3, 7, 34, 119, 193, 195, 120, 120, 195, 3, 0.489962
148, 2, wb, attraction, a-b-db, 14, 3, 7, 35, 120, 195, 195, 120, 111, 181, 2, 2.39573
148, 2, wb, attraction, a-b-db, 14, 3, 7, 35, 120, 195, 195, 120, 111, 181, 1, 0.490291
148, 2, wb, attraction, a-b-da, 9, 1, 7, 36, 129, 57, 60, 135, 135, 60, 1, 1.40398
148, 2, wb, attraction, a-b-da, 9, 1, 7, 36, 129, 57, 60, 135, 135, 60, 3, 0.73832
148, 2, wb, attraction, a-b-db, 5, 2, 7, 37, 90, 165, 165, 90, 88, 161, 2, 4.41066
148, 2, wb, attraction, a-b-db, 5, 2, 7, 37, 90, 165, 165, 90, 88, 161, 3, 2.03988
148, 2, wb, filler, NA, 999, 999, 8, 1, 95, 105, 59, 133, 104, 131, 2, 1.79525
148, 2, wb, filler, NA, 999, 999, 8, 1, 95, 105, 59, 133, 104, 131, 3, 0.52193
148, 2, wb, attraction, a-b-db, 9, 2, 8, 2, 165, 90, 90, 165, 86, 157, 2, 3.03516
148, 2, wb, attraction, a-b-db, 9, 2, 8, 2, 165, 90, 90, 165, 86, 157, 1, 0.688102
148, 2, wb, catch, NA, 999, 999, 8, 3, 71, 124, 122, 133, 137, 178, 1, 1.53051
148, 2, wb, catch, NA, 999, 999, 8, 3, 71, 124, 122, 133, 137, 178, 2, 0.436048
148, 2, wb, filler, NA, 999, 999, 8, 4, 156, 155, 87, 105, 96, 103, 2, 1.15259
148, 2, wb, filler, NA, 999, 999, 8, 4, 156, 155, 87, 105, 96, 103, 1, 0.481317
148, 2, wb, attraction, a-b-da, 14, 3, 8, 5, 195, 120, 181, 111, 120, 195, 3, 2.64396
148, 2, wb, attraction, a-b-da, 14, 3, 8, 5, 195, 120, 181, 111, 120, 195, 1, 0.66436
148, 2, wb, catch, NA, 999, 999, 8, 6, 121, 194, 60, 135, 112, 143, 2, 0.547356
148, 2, wb, catch, NA, 999, 999, 8, 6, 121, 194, 60, 135, 112, 143, 1, 0.412563
148, 2, wb, attraction, a-b-db, 2, 2, 8, 7, 90, 165, 89, 163, 165, 90, 1, 1.04166
148, 2, wb, attraction, a-b-db, 2, 2, 8, 7, 90, 165, 89, 163, 165, 90, 2, 0.462769
148, 2, wb, filler, NA, 999, 999, 8, 8, 97, 145, 175, 122, 179, 90, 1, 0.673743
148, 2, wb, filler, NA, 999, 999, 8, 8, 97, 145, 175, 122, 179, 90, 2, 0.509544
148, 2, wb, attraction, a-b-db, 2, 3, 8, 9, 120, 195, 119, 193, 195, 120, 3, 1.31869
148, 2, wb, attraction, a-b-db, 2, 3, 8, 9, 120, 195, 119, 193, 195, 120, 1, 0.496845
148, 2, wb, filler, NA, 999, 999, 8, 10, 100, 108, 172, 188, 137, 168, 1, 0.77859
148, 2, wb, filler, NA, 999, 999, 8, 10, 100, 108, 172, 188, 137, 168, 2, 0.34656
148, 2, wb, attraction, a-b-db, 9, 3, 8, 11, 120, 195, 195, 120, 114, 186, 1, 1.45034
148, 2, wb, attraction, a-b-db, 9, 3, 8, 11, 120, 195, 195, 120, 114, 186, 2, 1.08702
148, 2, wb, attraction, a-b-da, 5, 2, 8, 12, 161, 88, 90, 165, 165, 90, 1, 0.84131
148, 2, wb, attraction, a-b-da, 5, 2, 8, 12, 161, 88, 90, 165, 165, 90, 2, 0.774374
148, 2, wb, attraction, a-b-da, 9, 3, 8, 13, 195, 120, 186, 114, 120, 195, 3, 1.54081
148, 2, wb, attraction, a-b-da, 9, 3, 8, 13, 195, 120, 186, 114, 120, 195, 1, 0.733592
148, 2, wb, attraction, a-b-da, 9, 2, 8, 14, 165, 90, 157, 86, 90, 165, 3, 0.933968
148, 2, wb, attraction, a-b-da, 9, 2, 8, 14, 165, 90, 157, 86, 90, 165, 1, 0.663649
148, 2, wb, attraction, a-b-db, 9, 1, 8, 15, 135, 60, 60, 135, 57, 129, 2, 0.666692
148, 2, wb, attraction, a-b-db, 9, 1, 8, 15, 135, 60, 60, 135, 57, 129, 3, 0.607174
148, 2, wb, filler, NA, 999, 999, 8, 16, 153, 85, 145, 96, 90, 134, 3, 0.852199
148, 2, wb, filler, NA, 999, 999, 8, 16, 153, 85, 145, 96, 90, 134, 1, 0.561311
148, 2, wb, attraction, a-b-da, 5, 1, 8, 17, 135, 60, 132, 58, 60, 135, 3, 0.696398
148, 2, wb, attraction, a-b-da, 5, 1, 8, 17, 135, 60, 132, 58, 60, 135, 2, 0.507487
148, 2, wb, attraction, a-b-da, 14, 2, 8, 18, 165, 90, 153, 83, 90, 165, 3, 0.628547
148, 2, wb, attraction, a-b-da, 14, 2, 8, 18, 165, 90, 153, 83, 90, 165, 1, 1.10639
148, 2, wb, attraction, a-b-da, 9, 1, 8, 19, 135, 60, 129, 57, 60, 135, 3, 0.899245
148, 2, wb, attraction, a-b-da, 9, 1, 8, 19, 135, 60, 129, 57, 60, 135, 1, 0.622312
148, 2, wb, attraction, a-b-da, 2, 2, 8, 20, 90, 165, 163, 89, 165, 90, 1, 0.939523
148, 2, wb, attraction, a-b-da, 2, 2, 8, 20, 90, 165, 163, 89, 165, 90, 2, 1.65245
148, 2, wb, attraction, a-b-db, 5, 2, 8, 21, 90, 165, 165, 90, 88, 161, 2, 1.31178
148, 2, wb, attraction, a-b-db, 5, 2, 8, 21, 90, 165, 165, 90, 88, 161, 1, 0.498016
148, 2, wb, filler, NA, 999, 999, 8, 22, 171, 112, 173, 162, 110, 66, 3, 0.635957
148, 2, wb, filler, NA, 999, 999, 8, 22, 171, 112, 173, 162, 110, 66, 2, 0.205318
148, 2, wb, attraction, a-b-da, 2, 1, 8, 23, 134, 59, 135, 60, 60, 135, 3, 1.07081
148, 2, wb, attraction, a-b-da, 2, 1, 8, 23, 134, 59, 135, 60, 60, 135, 2, 0.530558
148, 2, wb, attraction, a-b-db, 2, 1, 8, 24, 59, 134, 60, 135, 135, 60, 1, 1.04292
148, 2, wb, attraction, a-b-db, 2, 1, 8, 24, 59, 134, 60, 135, 135, 60, 2, 0.823885
148, 2, wb, attraction, a-b-db, 14, 1, 8, 25, 56, 125, 135, 60, 60, 135, 1, 1.13217
148, 2, wb, attraction, a-b-db, 14, 1, 8, 25, 56, 125, 135, 60, 60, 135, 3, 0.709796
148, 2, wb, filler, NA, 999, 999, 8, 26, 72, 149, 148, 176, 81, 73, 3, 0.846862
148, 2, wb, filler, NA, 999, 999, 8, 26, 72, 149, 148, 176, 81, 73, 2, 0.364053
148, 2, wb, attraction, a-b-da, 2, 3, 8, 27, 193, 119, 195, 120, 120, 195, 3, 1.85103
148, 2, wb, attraction, a-b-da, 2, 3, 8, 27, 193, 119, 195, 120, 120, 195, 1, 0.527802
148, 2, wb, filler, NA, 999, 999, 8, 28, 155, 107, 73, 115, 147, 97, 2, 0.584381
148, 2, wb, filler, NA, 999, 999, 8, 28, 155, 107, 73, 115, 147, 97, 1, 0.512042
148, 2, wb, catch, NA, 999, 999, 8, 29, 122, 133, 182, 133, 79, 116, 3, 0.561246
148, 2, wb, catch, NA, 999, 999, 8, 29, 122, 133, 182, 133, 79, 116, 2, 0.441667
148, 2, wb, attraction, a-b-db, 14, 3, 8, 30, 111, 181, 120, 195, 195, 120, 1, 4.9894
148, 2, wb, attraction, a-b-db, 14, 3, 8, 30, 111, 181, 120, 195, 195, 120, 3, 0.931178
148, 2, wb, attraction, a-b-db, 5, 3, 8, 31, 120, 195, 195, 120, 117, 190, 1, 1.19547
148, 2, wb, attraction, a-b-db, 5, 3, 8, 31, 120, 195, 195, 120, 117, 190, 3, 0.314402
148, 2, wb, filler, NA, 999, 999, 8, 32, 76, 128, 161, 120, 177, 195, 1, 0.483647
148, 2, wb, filler, NA, 999, 999, 8, 32, 76, 128, 161, 120, 177, 195, 3, 0.351403
148, 2, wb, attraction, a-b-db, 14, 2, 8, 33, 90, 165, 165, 90, 83, 153, 3, 0.823245
148, 2, wb, attraction, a-b-db, 14, 2, 8, 33, 90, 165, 165, 90, 83, 153, 1, 0.492987
148, 2, wb, attraction, a-b-da, 14, 1, 8, 34, 125, 56, 60, 135, 135, 60, 1, 1.71073
148, 2, wb, attraction, a-b-da, 14, 1, 8, 34, 125, 56, 60, 135, 135, 60, 3, 0.409003
148, 2, wb, attraction, a-b-db, 5, 1, 8, 35, 135, 60, 60, 135, 58, 132, 3, 1.55799
148, 2, wb, attraction, a-b-db, 5, 1, 8, 35, 135, 60, 60, 135, 58, 132, 2, 0.350163
148, 2, wb, filler, NA, 999, 999, 8, 36, 72, 120, 189, 194, 140, 65, 1, 0.973956
148, 2, wb, filler, NA, 999, 999, 8, 36, 72, 120, 189, 194, 140, 65, 2, 0.59773
148, 2, wb, attraction, a-b-da, 5, 3, 8, 37, 120, 195, 190, 117, 195, 120, 1, 3.17151
148, 2, wb, attraction, a-b-da, 5, 3, 8, 37, 120, 195, 190, 117, 195, 120, 3, 0.562467
