sub_n, computer_n, bw_cond, effect, set, distance, diag, block_n, trial_n, h1, w1, h2, w2, h3, w3, choice, rt 
126, 2, wb, practice, NA, 999, 999, 0, 1, 162, 166, 170, 178, 195, 176, 1, 2.85132
126, 2, wb, practice, NA, 999, 999, 0, 1, 162, 166, 170, 178, 195, 176, 3, 2.90483
126, 2, wb, practice, NA, 999, 999, 0, 2, 127, 190, 145, 73, 105, 122, 3, 11.4058
126, 2, wb, practice, NA, 999, 999, 0, 2, 127, 190, 145, 73, 105, 122, 1, 1.44079
126, 2, wb, practice, NA, 999, 999, 0, 3, 159, 66, 98, 125, 124, 153, 1, 4.03294
126, 2, wb, practice, NA, 999, 999, 0, 3, 159, 66, 98, 125, 124, 153, 3, 0.782976
126, 2, wb, attraction, a-b-db, 2, 2, 1, 1, 165, 90, 90, 165, 89, 163, 1, 1.94184
126, 2, wb, attraction, a-b-db, 2, 2, 1, 1, 165, 90, 90, 165, 89, 163, 2, 1.4626
126, 2, wb, attraction, a-b-db, 14, 1, 1, 2, 60, 135, 56, 125, 135, 60, 2, 3.51346
126, 2, wb, attraction, a-b-db, 14, 1, 1, 2, 60, 135, 56, 125, 135, 60, 1, 1.51519
126, 2, wb, filler, NA, 999, 999, 1, 3, 93, 136, 164, 162, 101, 172, 1, 1.21174
126, 2, wb, filler, NA, 999, 999, 1, 3, 93, 136, 164, 162, 101, 172, 2, 0.394006
126, 2, wb, attraction, a-b-da, 14, 1, 1, 4, 135, 60, 60, 135, 125, 56, 3, 2.50381
126, 2, wb, attraction, a-b-da, 14, 1, 1, 4, 135, 60, 60, 135, 125, 56, 2, 0.770273
126, 2, wb, attraction, a-b-da, 5, 2, 1, 5, 161, 88, 165, 90, 90, 165, 1, 6.23337
126, 2, wb, attraction, a-b-da, 5, 2, 1, 5, 161, 88, 165, 90, 90, 165, 3, 0.525445
126, 2, wb, attraction, a-b-da, 5, 3, 1, 6, 120, 195, 190, 117, 195, 120, 3, 6.37387
126, 2, wb, attraction, a-b-da, 5, 3, 1, 6, 120, 195, 190, 117, 195, 120, 1, 0.79581
126, 2, wb, attraction, a-b-da, 9, 3, 1, 7, 120, 195, 195, 120, 186, 114, 3, 2.0095
126, 2, wb, attraction, a-b-da, 9, 3, 1, 7, 120, 195, 195, 120, 186, 114, 1, 0.471495
126, 2, wb, filler, NA, 999, 999, 1, 8, 127, 100, 103, 192, 150, 88, 3, 4.11479
126, 2, wb, filler, NA, 999, 999, 1, 8, 127, 100, 103, 192, 150, 88, 2, 0.428046
126, 2, wb, attraction, a-b-db, 2, 1, 1, 9, 135, 60, 60, 135, 59, 134, 1, 5.04846
126, 2, wb, attraction, a-b-db, 2, 1, 1, 9, 135, 60, 60, 135, 59, 134, 2, 0.644242
126, 2, wb, catch, NA, 999, 999, 1, 10, 120, 195, 157, 98, 89, 106, 3, 1.19207
126, 2, wb, catch, NA, 999, 999, 1, 10, 120, 195, 157, 98, 89, 106, 1, 0.519066
126, 2, wb, filler, NA, 999, 999, 1, 11, 93, 67, 119, 153, 170, 175, 1, 0.751959
126, 2, wb, filler, NA, 999, 999, 1, 11, 93, 67, 119, 153, 170, 175, 3, 0.409096
126, 2, wb, attraction, a-b-da, 2, 3, 1, 12, 195, 120, 193, 119, 120, 195, 2, 6.37419
126, 2, wb, attraction, a-b-da, 2, 3, 1, 12, 195, 120, 193, 119, 120, 195, 3, 0.604271
126, 2, wb, filler, NA, 999, 999, 1, 13, 76, 187, 77, 131, 145, 95, 2, 3.10614
126, 2, wb, filler, NA, 999, 999, 1, 13, 76, 187, 77, 131, 145, 95, 3, 2.45978
126, 2, wb, filler, NA, 999, 999, 1, 14, 145, 57, 109, 141, 157, 96, 1, 1.79022
126, 2, wb, filler, NA, 999, 999, 1, 14, 145, 57, 109, 141, 157, 96, 2, 2.82092
126, 2, wb, attraction, a-b-db, 5, 3, 1, 15, 120, 195, 195, 120, 117, 190, 3, 7.09738
126, 2, wb, attraction, a-b-db, 5, 3, 1, 15, 120, 195, 195, 120, 117, 190, 2, 1.14636
126, 2, wb, attraction, a-b-db, 2, 3, 1, 16, 120, 195, 119, 193, 195, 120, 3, 7.10595
126, 2, wb, attraction, a-b-db, 2, 3, 1, 16, 120, 195, 119, 193, 195, 120, 2, 1.01831
126, 2, wb, attraction, a-b-db, 9, 3, 1, 17, 120, 195, 114, 186, 195, 120, 3, 1.86349
126, 2, wb, attraction, a-b-db, 9, 3, 1, 17, 120, 195, 114, 186, 195, 120, 2, 0.451383
126, 2, wb, attraction, a-b-db, 14, 2, 1, 18, 165, 90, 83, 153, 90, 165, 1, 5.3752
126, 2, wb, attraction, a-b-db, 14, 2, 1, 18, 165, 90, 83, 153, 90, 165, 2, 0.341469
126, 2, wb, catch, NA, 999, 999, 1, 19, 148, 167, 100, 155, 124, 71, 3, 0.621316
126, 2, wb, catch, NA, 999, 999, 1, 19, 148, 167, 100, 155, 124, 71, 1, 0.403063
126, 2, wb, attraction, a-b-db, 9, 1, 1, 20, 57, 129, 135, 60, 60, 135, 1, 2.67285
126, 2, wb, attraction, a-b-db, 9, 1, 1, 20, 57, 129, 135, 60, 60, 135, 3, 2.852
126, 2, wb, attraction, a-b-da, 14, 3, 1, 21, 181, 111, 195, 120, 120, 195, 1, 0.911029
126, 2, wb, attraction, a-b-da, 14, 3, 1, 21, 181, 111, 195, 120, 120, 195, 2, 1.38553
126, 2, wb, filler, NA, 999, 999, 1, 22, 101, 75, 75, 133, 120, 137, 1, 0.895587
126, 2, wb, filler, NA, 999, 999, 1, 22, 101, 75, 75, 133, 120, 137, 3, 0.378613
126, 2, wb, attraction, a-b-db, 5, 2, 1, 23, 165, 90, 90, 165, 88, 161, 1, 2.48111
126, 2, wb, attraction, a-b-db, 5, 2, 1, 23, 165, 90, 90, 165, 88, 161, 2, 0.836362
126, 2, wb, attraction, a-b-db, 14, 3, 1, 24, 111, 181, 120, 195, 195, 120, 1, 2.48065
126, 2, wb, attraction, a-b-db, 14, 3, 1, 24, 111, 181, 120, 195, 195, 120, 2, 1.25996
126, 2, wb, filler, NA, 999, 999, 1, 25, 194, 183, 134, 163, 118, 167, 3, 1.6949
126, 2, wb, filler, NA, 999, 999, 1, 25, 194, 183, 134, 163, 118, 167, 1, 0.513505
126, 2, wb, attraction, a-b-db, 9, 2, 1, 26, 86, 157, 165, 90, 90, 165, 1, 1.60264
126, 2, wb, attraction, a-b-db, 9, 2, 1, 26, 86, 157, 165, 90, 90, 165, 3, 0.497525
126, 2, wb, catch, NA, 999, 999, 1, 27, 127, 68, 132, 123, 126, 189, 1, 1.25124
126, 2, wb, catch, NA, 999, 999, 1, 27, 127, 68, 132, 123, 126, 189, 3, 0.376149
126, 2, wb, attraction, a-b-da, 9, 2, 1, 28, 90, 165, 157, 86, 165, 90, 2, 4.4626
126, 2, wb, attraction, a-b-da, 9, 2, 1, 28, 90, 165, 157, 86, 165, 90, 1, 3.49804
126, 2, wb, filler, NA, 999, 999, 1, 29, 177, 149, 166, 117, 154, 95, 3, 0.674818
126, 2, wb, filler, NA, 999, 999, 1, 29, 177, 149, 166, 117, 154, 95, 1, 0.534518
126, 2, wb, attraction, a-b-da, 14, 2, 1, 30, 153, 83, 90, 165, 165, 90, 1, 1.72691
126, 2, wb, attraction, a-b-da, 14, 2, 1, 30, 153, 83, 90, 165, 165, 90, 2, 0.496395
126, 2, wb, attraction, a-b-da, 2, 1, 1, 31, 134, 59, 135, 60, 60, 135, 1, 2.98613
126, 2, wb, attraction, a-b-da, 2, 1, 1, 31, 134, 59, 135, 60, 60, 135, 2, 0.561157
126, 2, wb, filler, NA, 999, 999, 1, 32, 100, 109, 103, 97, 163, 86, 2, 2.69632
126, 2, wb, filler, NA, 999, 999, 1, 32, 100, 109, 103, 97, 163, 86, 3, 1.14687
126, 2, wb, attraction, a-b-da, 5, 1, 1, 33, 132, 58, 60, 135, 135, 60, 1, 4.01841
126, 2, wb, attraction, a-b-da, 5, 1, 1, 33, 132, 58, 60, 135, 135, 60, 2, 0.431798
126, 2, wb, attraction, a-b-db, 5, 1, 1, 34, 58, 132, 60, 135, 135, 60, 3, 2.24444
126, 2, wb, attraction, a-b-db, 5, 1, 1, 34, 58, 132, 60, 135, 135, 60, 2, 4.04881
126, 2, wb, filler, NA, 999, 999, 1, 35, 131, 131, 115, 137, 114, 167, 2, 4.86759
126, 2, wb, filler, NA, 999, 999, 1, 35, 131, 131, 115, 137, 114, 167, 3, 4.33471
126, 2, wb, attraction, a-b-da, 9, 1, 1, 36, 129, 57, 135, 60, 60, 135, 1, 1.96605
126, 2, wb, attraction, a-b-da, 9, 1, 1, 36, 129, 57, 135, 60, 60, 135, 2, 1.28597
126, 2, wb, attraction, a-b-da, 2, 2, 1, 37, 163, 89, 165, 90, 90, 165, 3, 2.9202
126, 2, wb, attraction, a-b-da, 2, 2, 1, 37, 163, 89, 165, 90, 90, 165, 2, 1.6573
126, 2, wb, attraction, a-b-db, 5, 3, 2, 1, 120, 195, 195, 120, 117, 190, 2, 4.06786
126, 2, wb, attraction, a-b-db, 5, 3, 2, 1, 120, 195, 195, 120, 117, 190, 1, 1.09527
126, 2, wb, attraction, a-b-db, 2, 2, 2, 2, 89, 163, 90, 165, 165, 90, 1, 1.44884
126, 2, wb, attraction, a-b-db, 2, 2, 2, 2, 89, 163, 90, 165, 165, 90, 2, 1.75775
126, 2, wb, filler, NA, 999, 999, 2, 3, 150, 57, 184, 123, 102, 97, 3, 4.80445
126, 2, wb, filler, NA, 999, 999, 2, 3, 150, 57, 184, 123, 102, 97, 2, 0.450281
126, 2, wb, attraction, a-b-db, 9, 1, 2, 4, 60, 135, 57, 129, 135, 60, 1, 4.87806
126, 2, wb, attraction, a-b-db, 9, 1, 2, 4, 60, 135, 57, 129, 135, 60, 3, 1.60854
126, 2, wb, attraction, a-b-db, 5, 1, 2, 5, 60, 135, 58, 132, 135, 60, 3, 2.64532
126, 2, wb, attraction, a-b-db, 5, 1, 2, 5, 60, 135, 58, 132, 135, 60, 2, 0.793797
126, 2, wb, filler, NA, 999, 999, 2, 6, 86, 66, 118, 85, 75, 59, 3, 1.51947
126, 2, wb, filler, NA, 999, 999, 2, 6, 86, 66, 118, 85, 75, 59, 2, 0.377666
126, 2, wb, attraction, a-b-da, 2, 1, 2, 7, 60, 135, 134, 59, 135, 60, 3, 2.43208
126, 2, wb, attraction, a-b-da, 2, 1, 2, 7, 60, 135, 134, 59, 135, 60, 1, 2.62129
126, 2, wb, attraction, a-b-db, 9, 2, 2, 8, 90, 165, 165, 90, 86, 157, 3, 3.59393
126, 2, wb, attraction, a-b-db, 9, 2, 2, 8, 90, 165, 165, 90, 86, 157, 2, 0.479962
126, 2, wb, attraction, a-b-da, 2, 3, 2, 9, 120, 195, 195, 120, 193, 119, 3, 2.6585
126, 2, wb, attraction, a-b-da, 2, 3, 2, 9, 120, 195, 195, 120, 193, 119, 1, 1.38236
126, 2, wb, attraction, a-b-da, 9, 2, 2, 10, 165, 90, 90, 165, 157, 86, 3, 3.14841
126, 2, wb, attraction, a-b-da, 9, 2, 2, 10, 165, 90, 90, 165, 157, 86, 2, 1.29281
126, 2, wb, attraction, a-b-da, 14, 2, 2, 11, 90, 165, 165, 90, 153, 83, 3, 2.02225
126, 2, wb, attraction, a-b-da, 14, 2, 2, 11, 90, 165, 165, 90, 153, 83, 1, 2.44364
126, 2, wb, attraction, a-b-da, 5, 3, 2, 12, 195, 120, 120, 195, 190, 117, 3, 7.26281
126, 2, wb, attraction, a-b-da, 5, 3, 2, 12, 195, 120, 120, 195, 190, 117, 2, 0.361149
126, 2, wb, attraction, a-b-da, 5, 2, 2, 13, 90, 165, 165, 90, 161, 88, 1, 1.56833
126, 2, wb, attraction, a-b-da, 5, 2, 2, 13, 90, 165, 165, 90, 161, 88, 2, 2.83252
126, 2, wb, filler, NA, 999, 999, 2, 14, 179, 140, 81, 72, 100, 99, 2, 0.740139
126, 2, wb, filler, NA, 999, 999, 2, 14, 179, 140, 81, 72, 100, 99, 1, 0.469276
126, 2, wb, attraction, a-b-da, 9, 3, 2, 15, 186, 114, 195, 120, 120, 195, 1, 2.87242
126, 2, wb, attraction, a-b-da, 9, 3, 2, 15, 186, 114, 195, 120, 120, 195, 3, 0.38748
126, 2, wb, attraction, a-b-db, 14, 1, 2, 16, 135, 60, 60, 135, 56, 125, 3, 3.41799
126, 2, wb, attraction, a-b-db, 14, 1, 2, 16, 135, 60, 60, 135, 56, 125, 1, 1.06352
126, 2, wb, attraction, a-b-db, 2, 1, 2, 17, 135, 60, 60, 135, 59, 134, 3, 2.35455
126, 2, wb, attraction, a-b-db, 2, 1, 2, 17, 135, 60, 60, 135, 59, 134, 1, 0.346443
126, 2, wb, filler, NA, 999, 999, 2, 18, 173, 123, 161, 102, 160, 150, 2, 1.04228
126, 2, wb, filler, NA, 999, 999, 2, 18, 173, 123, 161, 102, 160, 150, 3, 0.535148
126, 2, wb, attraction, a-b-db, 5, 2, 2, 19, 165, 90, 88, 161, 90, 165, 1, 2.31971
126, 2, wb, attraction, a-b-db, 5, 2, 2, 19, 165, 90, 88, 161, 90, 165, 2, 0.265541
126, 2, wb, filler, NA, 999, 999, 2, 20, 103, 135, 126, 172, 138, 134, 1, 0.636675
126, 2, wb, filler, NA, 999, 999, 2, 20, 103, 135, 126, 172, 138, 134, 2, 0.59446
126, 2, wb, catch, NA, 999, 999, 2, 21, 121, 194, 132, 63, 150, 105, 2, 1.0563
126, 2, wb, catch, NA, 999, 999, 2, 21, 121, 194, 132, 63, 150, 105, 1, 0.292578
126, 2, wb, attraction, a-b-db, 2, 3, 2, 22, 119, 193, 120, 195, 195, 120, 3, 5.83839
126, 2, wb, attraction, a-b-db, 2, 3, 2, 22, 119, 193, 120, 195, 195, 120, 1, 0.418552
126, 2, wb, attraction, a-b-da, 14, 1, 2, 23, 125, 56, 60, 135, 135, 60, 1, 3.21571
126, 2, wb, attraction, a-b-da, 14, 1, 2, 23, 125, 56, 60, 135, 135, 60, 2, 3.6295
126, 2, wb, attraction, a-b-da, 2, 2, 2, 24, 165, 90, 90, 165, 163, 89, 3, 8.28093
126, 2, wb, attraction, a-b-da, 2, 2, 2, 24, 165, 90, 90, 165, 163, 89, 2, 0.994207
126, 2, wb, filler, NA, 999, 999, 2, 25, 94, 81, 71, 61, 154, 93, 2, 0.687816
126, 2, wb, filler, NA, 999, 999, 2, 25, 94, 81, 71, 61, 154, 93, 3, 0.38706
126, 2, wb, attraction, a-b-db, 14, 3, 2, 26, 120, 195, 195, 120, 111, 181, 3, 1.97738
126, 2, wb, attraction, a-b-db, 14, 3, 2, 26, 120, 195, 195, 120, 111, 181, 1, 0.656829
126, 2, wb, filler, NA, 999, 999, 2, 27, 58, 160, 93, 80, 170, 143, 2, 5.63581
126, 2, wb, filler, NA, 999, 999, 2, 27, 58, 160, 93, 80, 170, 143, 3, 0.392029
126, 2, wb, attraction, a-b-da, 5, 1, 2, 28, 60, 135, 135, 60, 132, 58, 1, 2.98993
126, 2, wb, attraction, a-b-da, 5, 1, 2, 28, 60, 135, 135, 60, 132, 58, 2, 1.05227
126, 2, wb, filler, NA, 999, 999, 2, 29, 74, 118, 172, 117, 72, 111, 3, 2.55198
126, 2, wb, filler, NA, 999, 999, 2, 29, 74, 118, 172, 117, 72, 111, 2, 0.714575
126, 2, wb, attraction, a-b-db, 14, 2, 2, 30, 83, 153, 90, 165, 165, 90, 1, 3.28932
126, 2, wb, attraction, a-b-db, 14, 2, 2, 30, 83, 153, 90, 165, 165, 90, 2, 1.41174
126, 2, wb, filler, NA, 999, 999, 2, 31, 68, 106, 71, 131, 104, 150, 1, 0.68852
126, 2, wb, filler, NA, 999, 999, 2, 31, 68, 106, 71, 131, 104, 150, 3, 0.499638
126, 2, wb, attraction, a-b-da, 9, 1, 2, 32, 129, 57, 135, 60, 60, 135, 3, 3.25339
126, 2, wb, attraction, a-b-da, 9, 1, 2, 32, 129, 57, 135, 60, 60, 135, 2, 0.969663
126, 2, wb, attraction, a-b-da, 14, 3, 2, 33, 195, 120, 120, 195, 181, 111, 3, 3.42476
126, 2, wb, attraction, a-b-da, 14, 3, 2, 33, 195, 120, 120, 195, 181, 111, 2, 1.34958
126, 2, wb, filler, NA, 999, 999, 2, 34, 185, 132, 79, 113, 158, 184, 2, 1.10918
126, 2, wb, filler, NA, 999, 999, 2, 34, 185, 132, 79, 113, 158, 184, 3, 1.9115
126, 2, wb, catch, NA, 999, 999, 2, 35, 95, 100, 149, 166, 163, 92, 1, 0.896211
126, 2, wb, catch, NA, 999, 999, 2, 35, 95, 100, 149, 166, 163, 92, 2, 0.739137
126, 2, wb, attraction, a-b-db, 9, 3, 2, 36, 120, 195, 195, 120, 114, 186, 3, 1.76353
126, 2, wb, attraction, a-b-db, 9, 3, 2, 36, 120, 195, 195, 120, 114, 186, 1, 0.843601
126, 2, wb, catch, NA, 999, 999, 2, 37, 120, 195, 124, 131, 97, 98, 3, 0.607191
126, 2, wb, catch, NA, 999, 999, 2, 37, 120, 195, 124, 131, 97, 98, 1, 0.645695
126, 2, wb, attraction, a-b-db, 5, 3, 3, 1, 120, 195, 117, 190, 195, 120, 3, 4.19345
126, 2, wb, attraction, a-b-db, 5, 3, 3, 1, 120, 195, 117, 190, 195, 120, 1, 0.879422
126, 2, wb, filler, NA, 999, 999, 3, 2, 158, 67, 92, 181, 180, 111, 1, 1.46582
126, 2, wb, filler, NA, 999, 999, 3, 2, 158, 67, 92, 181, 180, 111, 3, 1.46196
126, 2, wb, filler, NA, 999, 999, 3, 3, 125, 84, 109, 179, 165, 121, 1, 0.736882
126, 2, wb, filler, NA, 999, 999, 3, 3, 125, 84, 109, 179, 165, 121, 2, 1.42666
126, 2, wb, attraction, a-b-db, 5, 2, 3, 4, 165, 90, 90, 165, 88, 161, 2, 2.42282
126, 2, wb, attraction, a-b-db, 5, 2, 3, 4, 165, 90, 90, 165, 88, 161, 1, 1.24392
126, 2, wb, filler, NA, 999, 999, 3, 5, 184, 156, 175, 145, 136, 162, 3, 2.19949
126, 2, wb, filler, NA, 999, 999, 3, 5, 184, 156, 175, 145, 136, 162, 1, 0.581999
126, 2, wb, attraction, a-b-db, 2, 3, 3, 6, 120, 195, 195, 120, 119, 193, 2, 6.88452
126, 2, wb, attraction, a-b-db, 2, 3, 3, 6, 120, 195, 195, 120, 119, 193, 1, 0.37437
126, 2, wb, catch, NA, 999, 999, 3, 7, 177, 138, 122, 73, 115, 140, 2, 0.996834
126, 2, wb, catch, NA, 999, 999, 3, 7, 177, 138, 122, 73, 115, 140, 1, 0.355791
126, 2, wb, filler, NA, 999, 999, 3, 8, 129, 180, 100, 156, 154, 135, 2, 1.8676
126, 2, wb, filler, NA, 999, 999, 3, 8, 129, 180, 100, 156, 154, 135, 1, 2.40772
126, 2, wb, catch, NA, 999, 999, 3, 9, 109, 146, 78, 117, 171, 144, 2, 1.01221
126, 2, wb, catch, NA, 999, 999, 3, 9, 109, 146, 78, 117, 171, 144, 3, 0.450556
126, 2, wb, attraction, a-b-db, 14, 2, 3, 10, 83, 153, 90, 165, 165, 90, 1, 3.32653
126, 2, wb, attraction, a-b-db, 14, 2, 3, 10, 83, 153, 90, 165, 165, 90, 2, 0.359201
126, 2, wb, attraction, a-b-da, 2, 3, 3, 11, 120, 195, 195, 120, 193, 119, 3, 5.53441
126, 2, wb, attraction, a-b-da, 2, 3, 3, 11, 120, 195, 195, 120, 193, 119, 1, 1.06269
126, 2, wb, filler, NA, 999, 999, 3, 12, 144, 99, 141, 56, 193, 171, 2, 1.12161
126, 2, wb, filler, NA, 999, 999, 3, 12, 144, 99, 141, 56, 193, 171, 3, 0.347214
126, 2, wb, attraction, a-b-da, 2, 2, 3, 13, 90, 165, 165, 90, 163, 89, 1, 1.80308
126, 2, wb, attraction, a-b-da, 2, 2, 3, 13, 90, 165, 165, 90, 163, 89, 2, 0.673911
126, 2, wb, attraction, a-b-db, 9, 1, 3, 14, 135, 60, 60, 135, 57, 129, 2, 3.58824
126, 2, wb, attraction, a-b-db, 9, 1, 3, 14, 135, 60, 60, 135, 57, 129, 1, 2.52244
126, 2, wb, filler, NA, 999, 999, 3, 15, 80, 143, 108, 66, 91, 71, 2, 1.09882
126, 2, wb, filler, NA, 999, 999, 3, 15, 80, 143, 108, 66, 91, 71, 1, 0.341743
126, 2, wb, attraction, a-b-da, 9, 2, 3, 16, 90, 165, 157, 86, 165, 90, 2, 4.8456
126, 2, wb, attraction, a-b-da, 9, 2, 3, 16, 90, 165, 157, 86, 165, 90, 1, 0.321401
126, 2, wb, attraction, a-b-da, 9, 1, 3, 17, 129, 57, 135, 60, 60, 135, 3, 1.36275
126, 2, wb, attraction, a-b-da, 9, 1, 3, 17, 129, 57, 135, 60, 60, 135, 2, 1.01876
126, 2, wb, attraction, a-b-da, 2, 1, 3, 18, 135, 60, 60, 135, 134, 59, 2, 4.8638
126, 2, wb, attraction, a-b-da, 2, 1, 3, 18, 135, 60, 60, 135, 134, 59, 1, 0.930969
126, 2, wb, attraction, a-b-db, 14, 3, 3, 19, 120, 195, 195, 120, 111, 181, 3, 2.43523
126, 2, wb, attraction, a-b-db, 14, 3, 3, 19, 120, 195, 195, 120, 111, 181, 1, 0.480385
126, 2, wb, filler, NA, 999, 999, 3, 20, 189, 78, 124, 58, 164, 135, 2, 0.634866
126, 2, wb, filler, NA, 999, 999, 3, 20, 189, 78, 124, 58, 164, 135, 3, 0.464755
126, 2, wb, attraction, a-b-da, 5, 2, 3, 21, 165, 90, 90, 165, 161, 88, 1, 5.86779
126, 2, wb, attraction, a-b-da, 5, 2, 3, 21, 165, 90, 90, 165, 161, 88, 2, 0.3506
126, 2, wb, attraction, a-b-da, 14, 3, 3, 22, 120, 195, 195, 120, 181, 111, 3, 1.79053
126, 2, wb, attraction, a-b-da, 14, 3, 3, 22, 120, 195, 195, 120, 181, 111, 1, 0.30115
126, 2, wb, catch, NA, 999, 999, 3, 23, 115, 80, 132, 123, 177, 138, 1, 0.814981
126, 2, wb, catch, NA, 999, 999, 3, 23, 115, 80, 132, 123, 177, 138, 3, 0.293365
126, 2, wb, attraction, a-b-db, 2, 1, 3, 24, 60, 135, 59, 134, 135, 60, 3, 7.32738
126, 2, wb, attraction, a-b-db, 2, 1, 3, 24, 60, 135, 59, 134, 135, 60, 2, 0.622985
126, 2, wb, filler, NA, 999, 999, 3, 25, 87, 76, 162, 145, 105, 180, 1, 0.803325
126, 2, wb, filler, NA, 999, 999, 3, 25, 87, 76, 162, 145, 105, 180, 2, 0.402464
126, 2, wb, attraction, a-b-da, 14, 1, 3, 26, 60, 135, 135, 60, 125, 56, 3, 3.24838
126, 2, wb, attraction, a-b-da, 14, 1, 3, 26, 60, 135, 135, 60, 125, 56, 2, 0.380593
126, 2, wb, attraction, a-b-da, 5, 3, 3, 27, 190, 117, 195, 120, 120, 195, 1, 4.35501
126, 2, wb, attraction, a-b-da, 5, 3, 3, 27, 190, 117, 195, 120, 120, 195, 3, 0.626432
126, 2, wb, attraction, a-b-db, 14, 1, 3, 28, 60, 135, 135, 60, 56, 125, 3, 1.47865
126, 2, wb, attraction, a-b-db, 14, 1, 3, 28, 60, 135, 135, 60, 56, 125, 2, 1.19422
126, 2, wb, filler, NA, 999, 999, 3, 29, 184, 68, 153, 70, 179, 163, 2, 2.57581
126, 2, wb, filler, NA, 999, 999, 3, 29, 184, 68, 153, 70, 179, 163, 3, 0.398965
126, 2, wb, attraction, a-b-db, 9, 2, 3, 30, 86, 157, 90, 165, 165, 90, 1, 2.0608
126, 2, wb, attraction, a-b-db, 9, 2, 3, 30, 86, 157, 90, 165, 165, 90, 2, 1.69685
126, 2, wb, attraction, a-b-db, 5, 1, 3, 31, 58, 132, 60, 135, 135, 60, 2, 4.05019
126, 2, wb, attraction, a-b-db, 5, 1, 3, 31, 58, 132, 60, 135, 135, 60, 3, 0.510413
126, 2, wb, attraction, a-b-da, 9, 3, 3, 32, 120, 195, 195, 120, 186, 114, 3, 1.91131
126, 2, wb, attraction, a-b-da, 9, 3, 3, 32, 120, 195, 195, 120, 186, 114, 1, 0.569372
126, 2, wb, attraction, a-b-da, 5, 1, 3, 33, 132, 58, 135, 60, 60, 135, 2, 4.03261
126, 2, wb, attraction, a-b-da, 5, 1, 3, 33, 132, 58, 135, 60, 60, 135, 3, 0.389322
126, 2, wb, attraction, a-b-da, 14, 2, 3, 34, 153, 83, 165, 90, 90, 165, 1, 2.37902
126, 2, wb, attraction, a-b-da, 14, 2, 3, 34, 153, 83, 165, 90, 90, 165, 3, 0.538303
126, 2, wb, filler, NA, 999, 999, 3, 35, 105, 161, 174, 103, 186, 100, 2, 3.81866
126, 2, wb, filler, NA, 999, 999, 3, 35, 105, 161, 174, 103, 186, 100, 3, 0.560158
126, 2, wb, attraction, a-b-db, 2, 2, 3, 36, 165, 90, 89, 163, 90, 165, 1, 3.43124
126, 2, wb, attraction, a-b-db, 2, 2, 3, 36, 165, 90, 89, 163, 90, 165, 3, 0.620233
126, 2, wb, attraction, a-b-db, 9, 3, 3, 37, 120, 195, 195, 120, 114, 186, 3, 5.16924
126, 2, wb, attraction, a-b-db, 9, 3, 3, 37, 120, 195, 195, 120, 114, 186, 2, 0.640271
126, 2, wb, filler, NA, 999, 999, 4, 1, 132, 121, 195, 194, 74, 131, 3, 1.22806
126, 2, wb, filler, NA, 999, 999, 4, 1, 132, 121, 195, 194, 74, 131, 2, 0.297563
126, 2, wb, attraction, a-b-da, 9, 2, 4, 2, 165, 90, 157, 86, 90, 165, 3, 1.85148
126, 2, wb, attraction, a-b-da, 9, 2, 4, 2, 165, 90, 157, 86, 90, 165, 2, 1.71216
126, 2, wb, attraction, a-b-da, 2, 1, 4, 3, 60, 135, 135, 60, 134, 59, 3, 3.2249
126, 2, wb, attraction, a-b-da, 2, 1, 4, 3, 60, 135, 135, 60, 134, 59, 2, 0.413804
126, 2, wb, filler, NA, 999, 999, 4, 4, 182, 116, 135, 142, 94, 68, 3, 0.970931
126, 2, wb, filler, NA, 999, 999, 4, 4, 182, 116, 135, 142, 94, 68, 2, 4.03478
126, 2, wb, attraction, a-b-db, 2, 2, 4, 5, 89, 163, 165, 90, 90, 165, 1, 1.63806
126, 2, wb, attraction, a-b-db, 2, 2, 4, 5, 89, 163, 165, 90, 90, 165, 2, 0.554776
126, 2, wb, attraction, a-b-db, 14, 2, 4, 6, 83, 153, 165, 90, 90, 165, 1, 0.970561
126, 2, wb, attraction, a-b-db, 14, 2, 4, 6, 83, 153, 165, 90, 90, 165, 3, 0.810976
126, 2, wb, catch, NA, 999, 999, 4, 7, 60, 135, 167, 148, 146, 109, 1, 0.623961
126, 2, wb, catch, NA, 999, 999, 4, 7, 60, 135, 167, 148, 146, 109, 2, 0.541699
126, 2, wb, filler, NA, 999, 999, 4, 8, 187, 67, 144, 84, 140, 110, 2, 6.58145
126, 2, wb, filler, NA, 999, 999, 4, 8, 187, 67, 144, 84, 140, 110, 1, 0.0523493
126, 2, wb, filler, NA, 999, 999, 4, 9, 109, 64, 95, 65, 136, 90, 2, 3.18327
126, 2, wb, filler, NA, 999, 999, 4, 9, 109, 64, 95, 65, 136, 90, 3, 0.510275
126, 2, wb, attraction, a-b-da, 2, 3, 4, 10, 193, 119, 120, 195, 195, 120, 1, 3.11145
126, 2, wb, attraction, a-b-da, 2, 3, 4, 10, 193, 119, 120, 195, 195, 120, 2, 0.417079
126, 2, wb, attraction, a-b-db, 2, 1, 4, 11, 135, 60, 59, 134, 60, 135, 2, 2.23027
126, 2, wb, attraction, a-b-db, 2, 1, 4, 11, 135, 60, 59, 134, 60, 135, 3, 1.13163
126, 2, wb, attraction, a-b-db, 14, 1, 4, 12, 56, 125, 60, 135, 135, 60, 1, 3.41173
126, 2, wb, attraction, a-b-db, 14, 1, 4, 12, 56, 125, 60, 135, 135, 60, 2, 0.409314
126, 2, wb, attraction, a-b-da, 5, 2, 4, 13, 165, 90, 90, 165, 161, 88, 3, 4.74249
126, 2, wb, attraction, a-b-da, 5, 2, 4, 13, 165, 90, 90, 165, 161, 88, 2, 0.326344
126, 2, wb, filler, NA, 999, 999, 4, 14, 154, 138, 144, 79, 162, 98, 2, 1.07898
126, 2, wb, filler, NA, 999, 999, 4, 14, 154, 138, 144, 79, 162, 98, 1, 0.34643
126, 2, wb, catch, NA, 999, 999, 4, 15, 61, 134, 187, 128, 144, 111, 1, 1.22628
126, 2, wb, catch, NA, 999, 999, 4, 15, 61, 134, 187, 128, 144, 111, 2, 0.263901
126, 2, wb, attraction, a-b-db, 14, 3, 4, 16, 120, 195, 111, 181, 195, 120, 2, 8.93116
126, 2, wb, attraction, a-b-db, 14, 3, 4, 16, 120, 195, 111, 181, 195, 120, 1, 0.938207
126, 2, wb, attraction, a-b-da, 2, 2, 4, 17, 163, 89, 90, 165, 165, 90, 3, 4.44261
126, 2, wb, attraction, a-b-da, 2, 2, 4, 17, 163, 89, 90, 165, 165, 90, 2, 1.28654
126, 2, wb, attraction, a-b-db, 2, 3, 4, 18, 119, 193, 120, 195, 195, 120, 1, 4.57677
126, 2, wb, attraction, a-b-db, 2, 3, 4, 18, 119, 193, 120, 195, 195, 120, 2, 0.415267
126, 2, wb, filler, NA, 999, 999, 4, 19, 71, 119, 190, 104, 67, 142, 1, 4.26034
126, 2, wb, filler, NA, 999, 999, 4, 19, 71, 119, 190, 104, 67, 142, 2, 0.31175
126, 2, wb, attraction, a-b-db, 9, 1, 4, 20, 60, 135, 57, 129, 135, 60, 2, 2.345
126, 2, wb, attraction, a-b-db, 9, 1, 4, 20, 60, 135, 57, 129, 135, 60, 3, 0.665458
126, 2, wb, attraction, a-b-db, 9, 3, 4, 21, 114, 186, 195, 120, 120, 195, 1, 1.64461
126, 2, wb, attraction, a-b-db, 9, 3, 4, 21, 114, 186, 195, 120, 120, 195, 3, 0.601296
126, 2, wb, attraction, a-b-da, 14, 1, 4, 22, 135, 60, 60, 135, 125, 56, 3, 1.1912
126, 2, wb, attraction, a-b-da, 14, 1, 4, 22, 135, 60, 60, 135, 125, 56, 2, 0.410246
126, 2, wb, attraction, a-b-da, 9, 1, 4, 23, 129, 57, 135, 60, 60, 135, 3, 1.41929
126, 2, wb, attraction, a-b-da, 9, 1, 4, 23, 129, 57, 135, 60, 60, 135, 2, 0.985285
126, 2, wb, attraction, a-b-da, 5, 1, 4, 24, 135, 60, 60, 135, 132, 58, 1, 2.53567
126, 2, wb, attraction, a-b-da, 5, 1, 4, 24, 135, 60, 60, 135, 132, 58, 2, 4.51281
126, 2, wb, filler, NA, 999, 999, 4, 25, 65, 150, 99, 112, 92, 178, 1, 2.68069
126, 2, wb, filler, NA, 999, 999, 4, 25, 65, 150, 99, 112, 92, 178, 3, 1.79577
126, 2, wb, attraction, a-b-db, 9, 2, 4, 26, 90, 165, 165, 90, 86, 157, 3, 1.59323
126, 2, wb, attraction, a-b-db, 9, 2, 4, 26, 90, 165, 165, 90, 86, 157, 1, 0.568149
126, 2, wb, attraction, a-b-da, 5, 3, 4, 27, 120, 195, 190, 117, 195, 120, 3, 4.0072
126, 2, wb, attraction, a-b-da, 5, 3, 4, 27, 120, 195, 190, 117, 195, 120, 1, 0.476477
126, 2, wb, attraction, a-b-da, 14, 2, 4, 28, 90, 165, 165, 90, 153, 83, 3, 1.17496
126, 2, wb, attraction, a-b-da, 14, 2, 4, 28, 90, 165, 165, 90, 153, 83, 1, 0.454633
126, 2, wb, attraction, a-b-da, 9, 3, 4, 29, 195, 120, 186, 114, 120, 195, 1, 3.21039
126, 2, wb, attraction, a-b-da, 9, 3, 4, 29, 195, 120, 186, 114, 120, 195, 3, 0.503966
126, 2, wb, attraction, a-b-db, 5, 3, 4, 30, 120, 195, 195, 120, 117, 190, 2, 2.42569
126, 2, wb, attraction, a-b-db, 5, 3, 4, 30, 120, 195, 195, 120, 117, 190, 3, 0.246999
126, 2, wb, filler, NA, 999, 999, 4, 31, 187, 175, 99, 159, 69, 88, 3, 0.8509
126, 2, wb, filler, NA, 999, 999, 4, 31, 187, 175, 99, 159, 69, 88, 1, 0.344024
126, 2, wb, attraction, a-b-db, 5, 1, 4, 32, 60, 135, 58, 132, 135, 60, 3, 2.98376
126, 2, wb, attraction, a-b-db, 5, 1, 4, 32, 60, 135, 58, 132, 135, 60, 1, 0.366736
126, 2, wb, attraction, a-b-da, 14, 3, 4, 33, 181, 111, 195, 120, 120, 195, 1, 1.23801
126, 2, wb, attraction, a-b-da, 14, 3, 4, 33, 181, 111, 195, 120, 120, 195, 3, 0.706846
126, 2, wb, catch, NA, 999, 999, 4, 34, 173, 142, 148, 107, 121, 74, 3, 0.875965
126, 2, wb, catch, NA, 999, 999, 4, 34, 173, 142, 148, 107, 121, 74, 1, 0.399529
126, 2, wb, filler, NA, 999, 999, 4, 35, 93, 180, 126, 119, 86, 127, 3, 2.32552
126, 2, wb, filler, NA, 999, 999, 4, 35, 93, 180, 126, 119, 86, 127, 2, 2.0707
126, 2, wb, attraction, a-b-db, 5, 2, 4, 36, 90, 165, 165, 90, 88, 161, 2, 5.77726
126, 2, wb, attraction, a-b-db, 5, 2, 4, 36, 90, 165, 165, 90, 88, 161, 1, 0.447472
126, 2, wb, filler, NA, 999, 999, 4, 37, 81, 65, 148, 141, 62, 88, 1, 1.17928
126, 2, wb, filler, NA, 999, 999, 4, 37, 81, 65, 148, 141, 62, 88, 2, 3.21099
126, 2, wb, filler, NA, 999, 999, 5, 1, 167, 123, 192, 181, 92, 100, 3, 2.72575
126, 2, wb, filler, NA, 999, 999, 5, 1, 167, 123, 192, 181, 92, 100, 2, 0.358838
126, 2, wb, catch, NA, 999, 999, 5, 2, 173, 142, 151, 104, 78, 117, 3, 1.4141
126, 2, wb, catch, NA, 999, 999, 5, 2, 173, 142, 151, 104, 78, 117, 1, 0.460226
126, 2, wb, attraction, a-b-db, 2, 2, 5, 3, 89, 163, 165, 90, 90, 165, 2, 3.90338
126, 2, wb, attraction, a-b-db, 2, 2, 5, 3, 89, 163, 165, 90, 90, 165, 3, 0.529478
126, 2, wb, attraction, a-b-da, 2, 2, 5, 4, 163, 89, 165, 90, 90, 165, 2, 1.89801
126, 2, wb, attraction, a-b-da, 2, 2, 5, 4, 163, 89, 165, 90, 90, 165, 3, 0.292613
126, 2, wb, attraction, a-b-db, 14, 2, 5, 5, 90, 165, 165, 90, 83, 153, 2, 2.85456
126, 2, wb, attraction, a-b-db, 14, 2, 5, 5, 90, 165, 165, 90, 83, 153, 1, 0.354144
126, 2, wb, attraction, a-b-db, 9, 2, 5, 6, 165, 90, 86, 157, 90, 165, 2, 5.05013
126, 2, wb, attraction, a-b-db, 9, 2, 5, 6, 165, 90, 86, 157, 90, 165, 3, 0.461814
126, 2, wb, attraction, a-b-da, 14, 3, 5, 7, 195, 120, 181, 111, 120, 195, 1, 2.15297
126, 2, wb, attraction, a-b-da, 14, 3, 5, 7, 195, 120, 181, 111, 120, 195, 3, 0.321554
126, 2, wb, attraction, a-b-db, 5, 2, 5, 8, 90, 165, 165, 90, 88, 161, 3, 3.95467
126, 2, wb, attraction, a-b-db, 5, 2, 5, 8, 90, 165, 165, 90, 88, 161, 1, 0.714827
126, 2, wb, filler, NA, 999, 999, 5, 9, 64, 57, 97, 113, 140, 90, 1, 0.819849
126, 2, wb, filler, NA, 999, 999, 5, 9, 64, 57, 97, 113, 140, 90, 2, 1.91422
126, 2, wb, attraction, a-b-db, 2, 1, 5, 10, 135, 60, 60, 135, 59, 134, 1, 3.90689
126, 2, wb, attraction, a-b-db, 2, 1, 5, 10, 135, 60, 60, 135, 59, 134, 2, 0.620254
126, 2, wb, filler, NA, 999, 999, 5, 11, 175, 160, 116, 182, 63, 70, 3, 1.30542
126, 2, wb, filler, NA, 999, 999, 5, 11, 175, 160, 116, 182, 63, 70, 1, 1.63561
126, 2, wb, filler, NA, 999, 999, 5, 12, 169, 109, 65, 129, 79, 74, 3, 4.88772
126, 2, wb, filler, NA, 999, 999, 5, 12, 169, 109, 65, 129, 79, 74, 1, 2.13025
126, 2, wb, attraction, a-b-da, 14, 1, 5, 13, 135, 60, 60, 135, 125, 56, 3, 2.51419
126, 2, wb, attraction, a-b-da, 14, 1, 5, 13, 135, 60, 60, 135, 125, 56, 2, 0.644045
126, 2, wb, filler, NA, 999, 999, 5, 14, 74, 94, 188, 83, 62, 58, 3, 1.35174
126, 2, wb, filler, NA, 999, 999, 5, 14, 74, 94, 188, 83, 62, 58, 2, 0.66468
126, 2, wb, filler, NA, 999, 999, 5, 15, 108, 93, 108, 93, 122, 79, 3, 5.4037
126, 2, wb, filler, NA, 999, 999, 5, 15, 108, 93, 108, 93, 122, 79, 2, 0.72931
126, 2, wb, attraction, a-b-da, 9, 1, 5, 16, 60, 135, 135, 60, 129, 57, 3, 1.91371
126, 2, wb, attraction, a-b-da, 9, 1, 5, 16, 60, 135, 135, 60, 129, 57, 2, 0.603698
126, 2, wb, attraction, a-b-db, 9, 1, 5, 17, 135, 60, 60, 135, 57, 129, 1, 3.61737
126, 2, wb, attraction, a-b-db, 9, 1, 5, 17, 135, 60, 60, 135, 57, 129, 2, 0.470922
126, 2, wb, attraction, a-b-db, 2, 3, 5, 18, 120, 195, 195, 120, 119, 193, 1, 3.75415
126, 2, wb, attraction, a-b-db, 2, 3, 5, 18, 120, 195, 195, 120, 119, 193, 3, 1.21824
126, 2, wb, attraction, a-b-da, 2, 1, 5, 19, 135, 60, 60, 135, 134, 59, 1, 4.94304
126, 2, wb, attraction, a-b-da, 2, 1, 5, 19, 135, 60, 60, 135, 134, 59, 2, 0.42291
126, 2, wb, attraction, a-b-da, 9, 3, 5, 20, 120, 195, 186, 114, 195, 120, 2, 1.66735
126, 2, wb, attraction, a-b-da, 9, 3, 5, 20, 120, 195, 186, 114, 195, 120, 1, 0.335421
126, 2, wb, attraction, a-b-da, 5, 1, 5, 21, 60, 135, 132, 58, 135, 60, 1, 1.63201
126, 2, wb, attraction, a-b-da, 5, 1, 5, 21, 60, 135, 132, 58, 135, 60, 3, 0.549484
126, 2, wb, attraction, a-b-db, 5, 3, 5, 22, 195, 120, 117, 190, 120, 195, 1, 3.58119
126, 2, wb, attraction, a-b-db, 5, 3, 5, 22, 195, 120, 117, 190, 120, 195, 2, 1.80412
126, 2, wb, catch, NA, 999, 999, 5, 23, 143, 112, 127, 188, 124, 71, 3, 1.04145
126, 2, wb, catch, NA, 999, 999, 5, 23, 143, 112, 127, 188, 124, 71, 2, 0.486488
126, 2, wb, filler, NA, 999, 999, 5, 24, 118, 88, 57, 145, 129, 174, 2, 2.41694
126, 2, wb, filler, NA, 999, 999, 5, 24, 118, 88, 57, 145, 129, 174, 3, 0.390817
126, 2, wb, attraction, a-b-db, 9, 3, 5, 25, 114, 186, 195, 120, 120, 195, 1, 2.05266
126, 2, wb, attraction, a-b-db, 9, 3, 5, 25, 114, 186, 195, 120, 120, 195, 2, 1.40942
126, 2, wb, attraction, a-b-da, 14, 2, 5, 26, 153, 83, 165, 90, 90, 165, 1, 1.12605
126, 2, wb, attraction, a-b-da, 14, 2, 5, 26, 153, 83, 165, 90, 90, 165, 3, 0.943659
126, 2, wb, attraction, a-b-da, 2, 3, 5, 27, 193, 119, 195, 120, 120, 195, 2, 1.03135
126, 2, wb, attraction, a-b-da, 2, 3, 5, 27, 193, 119, 195, 120, 120, 195, 3, 0.469049
126, 2, wb, attraction, a-b-db, 5, 1, 5, 28, 60, 135, 135, 60, 58, 132, 3, 1.7041
126, 2, wb, attraction, a-b-db, 5, 1, 5, 28, 60, 135, 135, 60, 58, 132, 1, 0.778874
126, 2, wb, filler, NA, 999, 999, 5, 29, 180, 94, 105, 159, 161, 112, 1, 6.08929
126, 2, wb, filler, NA, 999, 999, 5, 29, 180, 94, 105, 159, 161, 112, 3, 0.938709
126, 2, wb, filler, NA, 999, 999, 5, 30, 179, 107, 175, 112, 171, 69, 3, 1.28296
126, 2, wb, filler, NA, 999, 999, 5, 30, 179, 107, 175, 112, 171, 69, 2, 1.22265
126, 2, wb, attraction, a-b-db, 14, 3, 5, 31, 120, 195, 111, 181, 195, 120, 2, 1.89946
126, 2, wb, attraction, a-b-db, 14, 3, 5, 31, 120, 195, 111, 181, 195, 120, 1, 0.966304
126, 2, wb, attraction, a-b-da, 9, 2, 5, 32, 165, 90, 157, 86, 90, 165, 2, 2.93322
126, 2, wb, attraction, a-b-da, 9, 2, 5, 32, 165, 90, 157, 86, 90, 165, 3, 0.334242
126, 2, wb, filler, NA, 999, 999, 5, 33, 93, 106, 154, 81, 158, 74, 1, 3.59866
126, 2, wb, filler, NA, 999, 999, 5, 33, 93, 106, 154, 81, 158, 74, 2, 0.852954
126, 2, wb, attraction, a-b-da, 5, 3, 5, 34, 190, 117, 195, 120, 120, 195, 1, 2.16864
126, 2, wb, attraction, a-b-da, 5, 3, 5, 34, 190, 117, 195, 120, 120, 195, 3, 0.29658
126, 2, wb, attraction, a-b-da, 5, 2, 5, 35, 165, 90, 90, 165, 161, 88, 1, 3.04249
126, 2, wb, attraction, a-b-da, 5, 2, 5, 35, 165, 90, 90, 165, 161, 88, 2, 0.478879
126, 2, wb, catch, NA, 999, 999, 5, 36, 152, 163, 114, 141, 121, 74, 3, 0.665118
126, 2, wb, catch, NA, 999, 999, 5, 36, 152, 163, 114, 141, 121, 74, 1, 0.485731
126, 2, wb, attraction, a-b-db, 14, 1, 5, 37, 60, 135, 56, 125, 135, 60, 2, 1.46414
126, 2, wb, attraction, a-b-db, 14, 1, 5, 37, 60, 135, 56, 125, 135, 60, 3, 1.52436
126, 2, wb, attraction, a-b-da, 2, 3, 6, 1, 195, 120, 193, 119, 120, 195, 2, 3.40459
126, 2, wb, attraction, a-b-da, 2, 3, 6, 1, 195, 120, 193, 119, 120, 195, 3, 0.423848
126, 2, wb, attraction, a-b-db, 9, 2, 6, 2, 165, 90, 90, 165, 86, 157, 1, 2.44656
126, 2, wb, attraction, a-b-db, 9, 2, 6, 2, 165, 90, 90, 165, 86, 157, 2, 0.515007
126, 2, wb, attraction, a-b-db, 2, 2, 6, 3, 165, 90, 90, 165, 89, 163, 1, 4.2441
126, 2, wb, attraction, a-b-db, 2, 2, 6, 3, 165, 90, 90, 165, 89, 163, 2, 0.32809
126, 2, wb, catch, NA, 999, 999, 6, 4, 186, 129, 131, 64, 117, 138, 2, 1.4326
126, 2, wb, catch, NA, 999, 999, 6, 4, 186, 129, 131, 64, 117, 138, 1, 0.926136
126, 2, wb, attraction, a-b-db, 9, 3, 6, 5, 120, 195, 114, 186, 195, 120, 2, 1.60645
126, 2, wb, attraction, a-b-db, 9, 3, 6, 5, 120, 195, 114, 186, 195, 120, 1, 0.804588
126, 2, wb, attraction, a-b-db, 5, 2, 6, 6, 165, 90, 88, 161, 90, 165, 2, 3.67437
126, 2, wb, attraction, a-b-db, 5, 2, 6, 6, 165, 90, 88, 161, 90, 165, 3, 1.14914
126, 2, wb, attraction, a-b-db, 14, 2, 6, 7, 83, 153, 90, 165, 165, 90, 2, 1.48468
126, 2, wb, attraction, a-b-db, 14, 2, 6, 7, 83, 153, 90, 165, 165, 90, 3, 0.648292
126, 2, wb, attraction, a-b-db, 5, 3, 6, 8, 120, 195, 117, 190, 195, 120, 1, 1.12388
126, 2, wb, attraction, a-b-db, 5, 3, 6, 8, 120, 195, 117, 190, 195, 120, 2, 1.35755
126, 2, wb, filler, NA, 999, 999, 6, 9, 66, 100, 163, 148, 162, 131, 1, 0.588307
126, 2, wb, filler, NA, 999, 999, 6, 9, 66, 100, 163, 148, 162, 131, 2, 1.12364
126, 2, wb, attraction, a-b-da, 14, 1, 6, 10, 135, 60, 60, 135, 125, 56, 3, 1.29169
126, 2, wb, attraction, a-b-da, 14, 1, 6, 10, 135, 60, 60, 135, 125, 56, 2, 2.4627
126, 2, wb, filler, NA, 999, 999, 6, 11, 138, 171, 95, 81, 127, 148, 2, 1.25723
126, 2, wb, filler, NA, 999, 999, 6, 11, 138, 171, 95, 81, 127, 148, 1, 1.38942
126, 2, wb, attraction, a-b-db, 14, 1, 6, 12, 60, 135, 56, 125, 135, 60, 2, 1.71565
126, 2, wb, attraction, a-b-db, 14, 1, 6, 12, 60, 135, 56, 125, 135, 60, 3, 0.389721
126, 2, wb, attraction, a-b-db, 2, 3, 6, 13, 120, 195, 195, 120, 119, 193, 1, 7.37953
126, 2, wb, attraction, a-b-db, 2, 3, 6, 13, 120, 195, 195, 120, 119, 193, 3, 1.07319
126, 2, wb, attraction, a-b-da, 9, 1, 6, 14, 135, 60, 60, 135, 129, 57, 2, 3.98746
126, 2, wb, attraction, a-b-da, 9, 1, 6, 14, 135, 60, 60, 135, 129, 57, 3, 2.53841
126, 2, wb, filler, NA, 999, 999, 6, 15, 167, 97, 165, 134, 90, 80, 3, 0.898128
126, 2, wb, filler, NA, 999, 999, 6, 15, 167, 97, 165, 134, 90, 80, 2, 0.437041
126, 2, wb, filler, NA, 999, 999, 6, 16, 148, 139, 156, 94, 143, 57, 3, 2.1295
126, 2, wb, filler, NA, 999, 999, 6, 16, 148, 139, 156, 94, 143, 57, 1, 0.570823
126, 2, wb, attraction, a-b-da, 2, 2, 6, 17, 90, 165, 165, 90, 163, 89, 3, 4.00202
126, 2, wb, attraction, a-b-da, 2, 2, 6, 17, 90, 165, 165, 90, 163, 89, 1, 0.431949
126, 2, wb, attraction, a-b-da, 14, 3, 6, 18, 195, 120, 120, 195, 181, 111, 3, 1.8125
126, 2, wb, attraction, a-b-da, 14, 3, 6, 18, 195, 120, 120, 195, 181, 111, 2, 2.3865
126, 2, wb, catch, NA, 999, 999, 6, 19, 82, 113, 177, 138, 147, 108, 1, 0.896368
126, 2, wb, catch, NA, 999, 999, 6, 19, 82, 113, 177, 138, 147, 108, 2, 0.443543
126, 2, wb, attraction, a-b-db, 2, 1, 6, 20, 59, 134, 60, 135, 135, 60, 2, 4.1112
126, 2, wb, attraction, a-b-db, 2, 1, 6, 20, 59, 134, 60, 135, 135, 60, 1, 2.71259
126, 2, wb, attraction, a-b-db, 14, 3, 6, 21, 111, 181, 195, 120, 120, 195, 1, 2.21704
126, 2, wb, attraction, a-b-db, 14, 3, 6, 21, 111, 181, 195, 120, 120, 195, 3, 1.95893
126, 2, wb, filler, NA, 999, 999, 6, 22, 165, 105, 63, 141, 138, 157, 2, 1.66154
126, 2, wb, filler, NA, 999, 999, 6, 22, 165, 105, 63, 141, 138, 157, 3, 1.04174
126, 2, wb, attraction, a-b-da, 9, 3, 6, 23, 120, 195, 186, 114, 195, 120, 2, 3.77339
126, 2, wb, attraction, a-b-da, 9, 3, 6, 23, 120, 195, 186, 114, 195, 120, 1, 1.33215
126, 2, wb, attraction, a-b-da, 14, 2, 6, 24, 153, 83, 165, 90, 90, 165, 1, 1.98843
126, 2, wb, attraction, a-b-da, 14, 2, 6, 24, 153, 83, 165, 90, 90, 165, 3, 0.442993
126, 2, wb, filler, NA, 999, 999, 6, 25, 86, 103, 144, 112, 151, 76, 1, 1.23084
126, 2, wb, filler, NA, 999, 999, 6, 25, 86, 103, 144, 112, 151, 76, 2, 0.276397
126, 2, wb, attraction, a-b-da, 5, 1, 6, 26, 135, 60, 60, 135, 132, 58, 3, 3.32685
126, 2, wb, attraction, a-b-da, 5, 1, 6, 26, 135, 60, 60, 135, 132, 58, 2, 0.983851
126, 2, wb, filler, NA, 999, 999, 6, 27, 77, 119, 80, 72, 150, 154, 2, 0.886233
126, 2, wb, filler, NA, 999, 999, 6, 27, 77, 119, 80, 72, 150, 154, 3, 0.289802
126, 2, wb, filler, NA, 999, 999, 6, 28, 130, 138, 136, 81, 99, 139, 2, 1.90777
126, 2, wb, filler, NA, 999, 999, 6, 28, 130, 138, 136, 81, 99, 139, 1, 0.765728
126, 2, wb, attraction, a-b-db, 5, 1, 6, 29, 60, 135, 135, 60, 58, 132, 3, 7.52472
126, 2, wb, attraction, a-b-db, 5, 1, 6, 29, 60, 135, 135, 60, 58, 132, 1, 0.74834
126, 2, wb, attraction, a-b-da, 5, 2, 6, 30, 90, 165, 161, 88, 165, 90, 2, 1.62823
126, 2, wb, attraction, a-b-da, 5, 2, 6, 30, 90, 165, 161, 88, 165, 90, 1, 0.417464
126, 2, wb, attraction, a-b-db, 9, 1, 6, 31, 57, 129, 60, 135, 135, 60, 2, 3.59063
126, 2, wb, attraction, a-b-db, 9, 1, 6, 31, 57, 129, 60, 135, 135, 60, 1, 0.71686
126, 2, wb, attraction, a-b-da, 2, 1, 6, 32, 134, 59, 135, 60, 60, 135, 1, 4.95833
126, 2, wb, attraction, a-b-da, 2, 1, 6, 32, 134, 59, 135, 60, 60, 135, 3, 0.541028
126, 2, wb, filler, NA, 999, 999, 6, 33, 160, 178, 58, 145, 96, 74, 2, 6.34088
126, 2, wb, filler, NA, 999, 999, 6, 33, 160, 178, 58, 145, 96, 74, 1, 0.372186
126, 2, wb, catch, NA, 999, 999, 6, 34, 87, 108, 191, 124, 131, 124, 1, 1.33125
126, 2, wb, catch, NA, 999, 999, 6, 34, 87, 108, 191, 124, 131, 124, 2, 0.932814
126, 2, wb, attraction, a-b-da, 9, 2, 6, 35, 165, 90, 157, 86, 90, 165, 2, 1.59725
126, 2, wb, attraction, a-b-da, 9, 2, 6, 35, 165, 90, 157, 86, 90, 165, 3, 0.531953
126, 2, wb, attraction, a-b-da, 5, 3, 6, 36, 190, 117, 195, 120, 120, 195, 1, 2.92454
126, 2, wb, attraction, a-b-da, 5, 3, 6, 36, 190, 117, 195, 120, 120, 195, 3, 0.3815
126, 2, wb, filler, NA, 999, 999, 6, 37, 187, 98, 190, 195, 140, 184, 1, 1.08393
126, 2, wb, filler, NA, 999, 999, 6, 37, 187, 98, 190, 195, 140, 184, 2, 1.07959
126, 2, wb, attraction, a-b-da, 2, 3, 7, 1, 193, 119, 120, 195, 195, 120, 1, 2.46582
126, 2, wb, attraction, a-b-da, 2, 3, 7, 1, 193, 119, 120, 195, 195, 120, 3, 2.71789
126, 2, wb, filler, NA, 999, 999, 7, 2, 63, 128, 178, 69, 75, 132, 1, 2.07827
126, 2, wb, filler, NA, 999, 999, 7, 2, 63, 128, 178, 69, 75, 132, 2, 1.41748
126, 2, wb, attraction, a-b-da, 14, 3, 7, 3, 181, 111, 195, 120, 120, 195, 1, 3.25431
126, 2, wb, attraction, a-b-da, 14, 3, 7, 3, 181, 111, 195, 120, 120, 195, 3, 0.930708
126, 2, wb, attraction, a-b-db, 2, 3, 7, 4, 120, 195, 195, 120, 119, 193, 2, 7.17094
126, 2, wb, attraction, a-b-db, 2, 3, 7, 4, 120, 195, 195, 120, 119, 193, 3, 1.96933
126, 2, wb, attraction, a-b-db, 9, 3, 7, 5, 195, 120, 120, 195, 114, 186, 3, 1.38399
126, 2, wb, attraction, a-b-db, 9, 3, 7, 5, 195, 120, 120, 195, 114, 186, 2, 1.66344
126, 2, wb, attraction, a-b-db, 14, 1, 7, 6, 56, 125, 135, 60, 60, 135, 1, 1.03437
126, 2, wb, attraction, a-b-db, 14, 1, 7, 6, 56, 125, 135, 60, 60, 135, 3, 0.488016
126, 2, wb, filler, NA, 999, 999, 7, 7, 184, 194, 194, 122, 66, 61, 3, 0.818532
126, 2, wb, filler, NA, 999, 999, 7, 7, 184, 194, 194, 122, 66, 61, 1, 0.792798
126, 2, wb, attraction, a-b-da, 9, 1, 7, 8, 135, 60, 60, 135, 129, 57, 2, 1.99859
126, 2, wb, attraction, a-b-da, 9, 1, 7, 8, 135, 60, 60, 135, 129, 57, 3, 0.717215
126, 2, wb, attraction, a-b-db, 9, 2, 7, 9, 165, 90, 90, 165, 86, 157, 1, 5.51819
126, 2, wb, attraction, a-b-db, 9, 2, 7, 9, 165, 90, 90, 165, 86, 157, 2, 0.863104
126, 2, wb, attraction, a-b-db, 5, 3, 7, 10, 120, 195, 195, 120, 117, 190, 2, 1.8582
126, 2, wb, attraction, a-b-db, 5, 3, 7, 10, 120, 195, 195, 120, 117, 190, 1, 2.19817
126, 2, wb, filler, NA, 999, 999, 7, 11, 142, 111, 63, 109, 62, 97, 3, 1.64343
126, 2, wb, filler, NA, 999, 999, 7, 11, 142, 111, 63, 109, 62, 97, 1, 0.416238
126, 2, wb, catch, NA, 999, 999, 7, 12, 172, 143, 120, 135, 91, 104, 3, 1.12541
126, 2, wb, catch, NA, 999, 999, 7, 12, 172, 143, 120, 135, 91, 104, 1, 1.03101
126, 2, wb, attraction, a-b-db, 5, 2, 7, 13, 90, 165, 88, 161, 165, 90, 3, 1.9153
126, 2, wb, attraction, a-b-db, 5, 2, 7, 13, 90, 165, 88, 161, 165, 90, 1, 0.86144
126, 2, wb, filler, NA, 999, 999, 7, 14, 118, 73, 189, 135, 56, 178, 1, 1.01638
126, 2, wb, filler, NA, 999, 999, 7, 14, 118, 73, 189, 135, 56, 178, 2, 0.758713
126, 2, wb, attraction, a-b-da, 14, 2, 7, 15, 153, 83, 165, 90, 90, 165, 1, 3.10985
126, 2, wb, attraction, a-b-da, 14, 2, 7, 15, 153, 83, 165, 90, 90, 165, 3, 0.519363
126, 2, wb, attraction, a-b-db, 2, 2, 7, 16, 89, 163, 90, 165, 165, 90, 3, 4.80846
126, 2, wb, attraction, a-b-db, 2, 2, 7, 16, 89, 163, 90, 165, 165, 90, 1, 0.445627
126, 2, wb, attraction, a-b-da, 14, 1, 7, 17, 135, 60, 60, 135, 125, 56, 3, 4.6814
126, 2, wb, attraction, a-b-da, 14, 1, 7, 17, 135, 60, 60, 135, 125, 56, 2, 0.595909
126, 2, wb, attraction, a-b-da, 9, 3, 7, 18, 195, 120, 120, 195, 186, 114, 3, 6.45776
126, 2, wb, attraction, a-b-da, 9, 3, 7, 18, 195, 120, 120, 195, 186, 114, 2, 0.300286
126, 2, wb, attraction, a-b-db, 2, 1, 7, 19, 59, 134, 60, 135, 135, 60, 3, 3.12632
126, 2, wb, attraction, a-b-db, 2, 1, 7, 19, 59, 134, 60, 135, 135, 60, 2, 0.271064
126, 2, wb, attraction, a-b-db, 5, 1, 7, 20, 58, 132, 135, 60, 60, 135, 1, 1.99438
126, 2, wb, attraction, a-b-db, 5, 1, 7, 20, 58, 132, 135, 60, 60, 135, 3, 1.161
126, 2, wb, attraction, a-b-db, 14, 3, 7, 21, 111, 181, 195, 120, 120, 195, 1, 1.64006
126, 2, wb, attraction, a-b-db, 14, 3, 7, 21, 111, 181, 195, 120, 120, 195, 3, 0.660756
126, 2, wb, catch, NA, 999, 999, 7, 22, 111, 84, 180, 135, 102, 153, 1, 1.43185
126, 2, wb, catch, NA, 999, 999, 7, 22, 111, 84, 180, 135, 102, 153, 2, 0.333332
126, 2, wb, filler, NA, 999, 999, 7, 23, 80, 146, 107, 87, 194, 78, 2, 3.40585
126, 2, wb, filler, NA, 999, 999, 7, 23, 80, 146, 107, 87, 194, 78, 3, 0.699525
126, 2, wb, attraction, a-b-da, 9, 2, 7, 24, 165, 90, 90, 165, 157, 86, 3, 3.30116
126, 2, wb, attraction, a-b-da, 9, 2, 7, 24, 165, 90, 90, 165, 157, 86, 2, 1.55953
126, 2, wb, attraction, a-b-da, 2, 1, 7, 25, 134, 59, 60, 135, 135, 60, 3, 3.91816
126, 2, wb, attraction, a-b-da, 2, 1, 7, 25, 134, 59, 60, 135, 135, 60, 2, 0.423563
126, 2, wb, catch, NA, 999, 999, 7, 26, 156, 99, 69, 126, 140, 175, 2, 0.796008
126, 2, wb, catch, NA, 999, 999, 7, 26, 156, 99, 69, 126, 140, 175, 3, 0.331133
126, 2, wb, filler, NA, 999, 999, 7, 27, 172, 89, 113, 77, 99, 156, 2, 1.09966
126, 2, wb, filler, NA, 999, 999, 7, 27, 172, 89, 113, 77, 99, 156, 3, 0.462594
126, 2, wb, attraction, a-b-da, 5, 2, 7, 28, 165, 90, 90, 165, 161, 88, 1, 1.15366
126, 2, wb, attraction, a-b-da, 5, 2, 7, 28, 165, 90, 90, 165, 161, 88, 2, 0.313928
126, 2, wb, attraction, a-b-db, 14, 2, 7, 29, 83, 153, 165, 90, 90, 165, 1, 1.13911
126, 2, wb, attraction, a-b-db, 14, 2, 7, 29, 83, 153, 165, 90, 90, 165, 3, 0.556168
126, 2, wb, filler, NA, 999, 999, 7, 30, 187, 171, 99, 61, 169, 174, 2, 1.01123
126, 2, wb, filler, NA, 999, 999, 7, 30, 187, 171, 99, 61, 169, 174, 1, 1.45757
126, 2, wb, attraction, a-b-da, 2, 2, 7, 31, 90, 165, 163, 89, 165, 90, 2, 1.56448
126, 2, wb, attraction, a-b-da, 2, 2, 7, 31, 90, 165, 163, 89, 165, 90, 3, 0.383236
126, 2, wb, attraction, a-b-da, 5, 3, 7, 32, 120, 195, 195, 120, 190, 117, 2, 1.30698
126, 2, wb, attraction, a-b-da, 5, 3, 7, 32, 120, 195, 195, 120, 190, 117, 1, 0.341273
126, 2, wb, attraction, a-b-da, 5, 1, 7, 33, 135, 60, 60, 135, 132, 58, 3, 1.60514
126, 2, wb, attraction, a-b-da, 5, 1, 7, 33, 135, 60, 60, 135, 132, 58, 2, 0.339198
126, 2, wb, filler, NA, 999, 999, 7, 34, 131, 62, 151, 157, 124, 72, 1, 2.12373
126, 2, wb, filler, NA, 999, 999, 7, 34, 131, 62, 151, 157, 124, 72, 2, 0.365005
126, 2, wb, filler, NA, 999, 999, 7, 35, 94, 163, 163, 181, 153, 177, 1, 0.588189
126, 2, wb, filler, NA, 999, 999, 7, 35, 94, 163, 163, 181, 153, 177, 2, 1.11538
126, 2, wb, filler, NA, 999, 999, 7, 36, 56, 184, 194, 163, 69, 67, 3, 1.56434
126, 2, wb, filler, NA, 999, 999, 7, 36, 56, 184, 194, 163, 69, 67, 2, 0.372333
126, 2, wb, attraction, a-b-db, 9, 1, 7, 37, 60, 135, 135, 60, 57, 129, 3, 1.1875
126, 2, wb, attraction, a-b-db, 9, 1, 7, 37, 60, 135, 135, 60, 57, 129, 1, 0.354432
126, 2, wb, attraction, a-b-db, 9, 3, 8, 1, 114, 186, 195, 120, 120, 195, 2, 2.51423
126, 2, wb, attraction, a-b-db, 9, 3, 8, 1, 114, 186, 195, 120, 120, 195, 3, 0.252212
126, 2, wb, attraction, a-b-db, 2, 1, 8, 2, 59, 134, 135, 60, 60, 135, 3, 1.80007
126, 2, wb, attraction, a-b-db, 2, 1, 8, 2, 59, 134, 135, 60, 60, 135, 1, 0.310688
126, 2, wb, filler, NA, 999, 999, 8, 3, 121, 134, 138, 82, 112, 105, 2, 1.11984
126, 2, wb, filler, NA, 999, 999, 8, 3, 121, 134, 138, 82, 112, 105, 1, 0.314186
126, 2, wb, catch, NA, 999, 999, 8, 4, 120, 75, 129, 186, 138, 117, 1, 0.883418
126, 2, wb, catch, NA, 999, 999, 8, 4, 120, 75, 129, 186, 138, 117, 2, 0.319064
126, 2, wb, attraction, a-b-da, 14, 1, 8, 5, 60, 135, 125, 56, 135, 60, 1, 1.61631
126, 2, wb, attraction, a-b-da, 14, 1, 8, 5, 60, 135, 125, 56, 135, 60, 3, 0.542498
126, 2, wb, catch, NA, 999, 999, 8, 6, 106, 89, 132, 123, 193, 122, 1, 0.902169
126, 2, wb, catch, NA, 999, 999, 8, 6, 106, 89, 132, 123, 193, 122, 3, 0.337191
126, 2, wb, filler, NA, 999, 999, 8, 7, 91, 195, 103, 174, 193, 194, 1, 3.12969
126, 2, wb, filler, NA, 999, 999, 8, 7, 91, 195, 103, 174, 193, 194, 3, 0.26667
126, 2, wb, attraction, a-b-db, 9, 1, 8, 8, 135, 60, 57, 129, 60, 135, 2, 0.997928
126, 2, wb, attraction, a-b-db, 9, 1, 8, 8, 135, 60, 57, 129, 60, 135, 1, 1.09292
126, 2, wb, attraction, a-b-da, 2, 3, 8, 9, 195, 120, 193, 119, 120, 195, 1, 4.6945
126, 2, wb, attraction, a-b-da, 2, 3, 8, 9, 195, 120, 193, 119, 120, 195, 3, 0.512486
126, 2, wb, filler, NA, 999, 999, 8, 10, 85, 94, 116, 174, 132, 79, 1, 2.09753
126, 2, wb, filler, NA, 999, 999, 8, 10, 85, 94, 116, 174, 132, 79, 2, 0.332258
126, 2, wb, attraction, a-b-db, 14, 1, 8, 11, 135, 60, 56, 125, 60, 135, 2, 0.97258
126, 2, wb, attraction, a-b-db, 14, 1, 8, 11, 135, 60, 56, 125, 60, 135, 1, 0.892433
126, 2, wb, attraction, a-b-db, 9, 2, 8, 12, 165, 90, 90, 165, 86, 157, 3, 1.39797
126, 2, wb, attraction, a-b-db, 9, 2, 8, 12, 165, 90, 90, 165, 86, 157, 2, 0.660785
126, 2, wb, filler, NA, 999, 999, 8, 13, 112, 103, 122, 127, 140, 136, 1, 0.919819
126, 2, wb, filler, NA, 999, 999, 8, 13, 112, 103, 122, 127, 140, 136, 3, 0.498206
126, 2, wb, attraction, a-b-db, 14, 3, 8, 14, 195, 120, 120, 195, 111, 181, 3, 4.81207
126, 2, wb, attraction, a-b-db, 14, 3, 8, 14, 195, 120, 120, 195, 111, 181, 1, 1.1531
126, 2, wb, attraction, a-b-db, 5, 3, 8, 15, 117, 190, 195, 120, 120, 195, 3, 1.77677
126, 2, wb, attraction, a-b-db, 5, 3, 8, 15, 117, 190, 195, 120, 120, 195, 1, 0.920195
126, 2, wb, attraction, a-b-db, 5, 1, 8, 16, 60, 135, 135, 60, 58, 132, 3, 1.26532
126, 2, wb, attraction, a-b-db, 5, 1, 8, 16, 60, 135, 135, 60, 58, 132, 1, 1.3735
126, 2, wb, attraction, a-b-da, 5, 3, 8, 17, 195, 120, 190, 117, 120, 195, 3, 1.13155
126, 2, wb, attraction, a-b-da, 5, 3, 8, 17, 195, 120, 190, 117, 120, 195, 2, 0.389253
126, 2, wb, filler, NA, 999, 999, 8, 18, 195, 115, 158, 114, 109, 163, 3, 1.06767
126, 2, wb, filler, NA, 999, 999, 8, 18, 195, 115, 158, 114, 109, 163, 1, 1.00802
126, 2, wb, attraction, a-b-da, 14, 2, 8, 19, 153, 83, 90, 165, 165, 90, 1, 2.42899
126, 2, wb, attraction, a-b-da, 14, 2, 8, 19, 153, 83, 90, 165, 165, 90, 2, 1.26629
126, 2, wb, attraction, a-b-da, 2, 2, 8, 20, 163, 89, 90, 165, 165, 90, 1, 2.10905
126, 2, wb, attraction, a-b-da, 2, 2, 8, 20, 163, 89, 90, 165, 165, 90, 2, 1.13503
126, 2, wb, attraction, a-b-db, 2, 2, 8, 21, 90, 165, 89, 163, 165, 90, 2, 1.46321
126, 2, wb, attraction, a-b-db, 2, 2, 8, 21, 90, 165, 89, 163, 165, 90, 1, 1.05946
126, 2, wb, filler, NA, 999, 999, 8, 22, 109, 108, 123, 57, 84, 70, 2, 1.95847
126, 2, wb, filler, NA, 999, 999, 8, 22, 109, 108, 123, 57, 84, 70, 1, 0.558416
126, 2, wb, attraction, a-b-da, 2, 1, 8, 23, 134, 59, 135, 60, 60, 135, 3, 1.34961
126, 2, wb, attraction, a-b-da, 2, 1, 8, 23, 134, 59, 135, 60, 60, 135, 2, 0.534528
126, 2, wb, attraction, a-b-da, 14, 3, 8, 24, 120, 195, 181, 111, 195, 120, 2, 1.97496
126, 2, wb, attraction, a-b-da, 14, 3, 8, 24, 120, 195, 181, 111, 195, 120, 1, 0.254245
126, 2, wb, filler, NA, 999, 999, 8, 25, 90, 68, 129, 57, 102, 157, 1, 2.83411
126, 2, wb, filler, NA, 999, 999, 8, 25, 90, 68, 129, 57, 102, 157, 3, 0.527186
126, 2, wb, filler, NA, 999, 999, 8, 26, 73, 132, 129, 88, 81, 97, 3, 3.25562
126, 2, wb, filler, NA, 999, 999, 8, 26, 73, 132, 129, 88, 81, 97, 2, 0.395206
126, 2, wb, attraction, a-b-da, 9, 1, 8, 27, 60, 135, 129, 57, 135, 60, 1, 2.03307
126, 2, wb, attraction, a-b-da, 9, 1, 8, 27, 60, 135, 129, 57, 135, 60, 3, 1.44645
126, 2, wb, attraction, a-b-da, 5, 1, 8, 28, 132, 58, 135, 60, 60, 135, 3, 2.44987
126, 2, wb, attraction, a-b-da, 5, 1, 8, 28, 132, 58, 135, 60, 60, 135, 1, 0.334517
126, 2, wb, attraction, a-b-db, 2, 3, 8, 29, 195, 120, 119, 193, 120, 195, 2, 4.11885
126, 2, wb, attraction, a-b-db, 2, 3, 8, 29, 195, 120, 119, 193, 120, 195, 1, 1.47225
126, 2, wb, attraction, a-b-db, 5, 2, 8, 30, 165, 90, 90, 165, 88, 161, 2, 1.28315
126, 2, wb, attraction, a-b-db, 5, 2, 8, 30, 165, 90, 90, 165, 88, 161, 1, 0.870622
126, 2, wb, attraction, a-b-da, 9, 2, 8, 31, 157, 86, 90, 165, 165, 90, 1, 3.1297
126, 2, wb, attraction, a-b-da, 9, 2, 8, 31, 157, 86, 90, 165, 165, 90, 3, 1.50666
126, 2, wb, attraction, a-b-da, 9, 3, 8, 32, 120, 195, 195, 120, 186, 114, 3, 1.57144
126, 2, wb, attraction, a-b-da, 9, 3, 8, 32, 120, 195, 195, 120, 186, 114, 1, 0.754864
126, 2, wb, filler, NA, 999, 999, 8, 33, 70, 106, 140, 151, 61, 95, 3, 1.59479
126, 2, wb, filler, NA, 999, 999, 8, 33, 70, 106, 140, 151, 61, 95, 2, 0.281513
126, 2, wb, attraction, a-b-db, 14, 2, 8, 34, 165, 90, 90, 165, 83, 153, 3, 1.22
126, 2, wb, attraction, a-b-db, 14, 2, 8, 34, 165, 90, 90, 165, 83, 153, 1, 1.21845
126, 2, wb, filler, NA, 999, 999, 8, 35, 179, 129, 119, 182, 139, 151, 3, 4.63927
126, 2, wb, filler, NA, 999, 999, 8, 35, 179, 129, 119, 182, 139, 151, 1, 1.05916
126, 2, wb, catch, NA, 999, 999, 8, 36, 157, 158, 108, 87, 125, 130, 2, 1.58189
126, 2, wb, catch, NA, 999, 999, 8, 36, 157, 158, 108, 87, 125, 130, 1, 0.373376
126, 2, wb, attraction, a-b-da, 5, 2, 8, 37, 161, 88, 165, 90, 90, 165, 1, 2.50798
126, 2, wb, attraction, a-b-da, 5, 2, 8, 37, 161, 88, 165, 90, 90, 165, 2, 0.821782
