sub_n, computer_n, bw_cond, effect, set, distance, diag, block_n, trial_n, h1, w1, h2, w2, h3, w3, choice, rt 
151, 2, bw, practice, NA, 999, 999, 0, 1, 143, 104, 82, 169, 133, 66, 3, 2.71217
151, 2, bw, practice, NA, 999, 999, 0, 1, 143, 104, 82, 169, 133, 66, 2, 11.4204
151, 2, bw, practice, NA, 999, 999, 0, 2, 97, 104, 90, 175, 166, 179, 1, 2.28872
151, 2, bw, practice, NA, 999, 999, 0, 2, 97, 104, 90, 175, 166, 179, 2, 0.909993
151, 2, bw, practice, NA, 999, 999, 0, 3, 82, 195, 65, 69, 101, 141, 1, 6.09254
151, 2, bw, practice, NA, 999, 999, 0, 3, 82, 195, 65, 69, 101, 141, 3, 1.43953
151, 2, bw, attraction, a-b-db, 2, 3, 1, 1, 120, 195, 119, 193, 195, 120, 1, 3.98296
151, 2, bw, attraction, a-b-db, 2, 3, 1, 1, 120, 195, 119, 193, 195, 120, 3, 5.9259
151, 2, bw, attraction, a-b-db, 14, 3, 1, 2, 120, 195, 195, 120, 111, 181, 1, 4.96449
151, 2, bw, attraction, a-b-db, 14, 3, 1, 2, 120, 195, 195, 120, 111, 181, 3, 2.24355
151, 2, bw, filler, NA, 999, 999, 1, 3, 93, 89, 74, 87, 83, 122, 3, 3.58274
151, 2, bw, filler, NA, 999, 999, 1, 3, 93, 89, 74, 87, 83, 122, 2, 1.7816
151, 2, bw, attraction, a-b-da, 2, 1, 1, 4, 134, 59, 60, 135, 135, 60, 2, 4.61165
151, 2, bw, attraction, a-b-da, 2, 1, 1, 4, 134, 59, 60, 135, 135, 60, 3, 1.89703
151, 2, bw, filler, NA, 999, 999, 1, 5, 98, 177, 61, 191, 119, 133, 1, 4.33018
151, 2, bw, filler, NA, 999, 999, 1, 5, 98, 177, 61, 191, 119, 133, 2, 2.51501
151, 2, bw, attraction, a-b-db, 9, 3, 1, 6, 120, 195, 114, 186, 195, 120, 1, 3.79535
151, 2, bw, attraction, a-b-db, 9, 3, 1, 6, 120, 195, 114, 186, 195, 120, 3, 1.95347
151, 2, bw, attraction, a-b-da, 5, 1, 1, 7, 60, 135, 135, 60, 132, 58, 1, 3.09691
151, 2, bw, attraction, a-b-da, 5, 1, 1, 7, 60, 135, 135, 60, 132, 58, 3, 3.18714
151, 2, bw, attraction, a-b-db, 2, 1, 1, 8, 135, 60, 59, 134, 60, 135, 2, 4.4729
151, 2, bw, attraction, a-b-db, 2, 1, 1, 8, 135, 60, 59, 134, 60, 135, 1, 1.81935
151, 2, bw, filler, NA, 999, 999, 1, 9, 126, 179, 67, 169, 60, 156, 1, 3.48805
151, 2, bw, filler, NA, 999, 999, 1, 9, 126, 179, 67, 169, 60, 156, 3, 1.28235
151, 2, bw, attraction, a-b-db, 5, 1, 1, 10, 135, 60, 58, 132, 60, 135, 3, 2.68452
151, 2, bw, attraction, a-b-db, 5, 1, 1, 10, 135, 60, 58, 132, 60, 135, 1, 1.08763
151, 2, bw, filler, NA, 999, 999, 1, 11, 81, 133, 103, 137, 175, 173, 3, 1.32185
151, 2, bw, filler, NA, 999, 999, 1, 11, 81, 133, 103, 137, 175, 173, 1, 2.50741
151, 2, bw, attraction, a-b-da, 9, 3, 1, 12, 195, 120, 120, 195, 186, 114, 2, 2.79594
151, 2, bw, attraction, a-b-da, 9, 3, 1, 12, 195, 120, 120, 195, 186, 114, 3, 1.29833
151, 2, bw, attraction, a-b-db, 9, 1, 1, 13, 135, 60, 60, 135, 57, 129, 2, 1.76391
151, 2, bw, attraction, a-b-db, 9, 1, 1, 13, 135, 60, 60, 135, 57, 129, 1, 0.643949
151, 2, bw, attraction, a-b-da, 14, 1, 1, 14, 135, 60, 125, 56, 60, 135, 3, 2.59973
151, 2, bw, attraction, a-b-da, 14, 1, 1, 14, 135, 60, 125, 56, 60, 135, 1, 0.646166
151, 2, bw, attraction, a-b-db, 14, 2, 1, 15, 83, 153, 165, 90, 90, 165, 2, 1.20193
151, 2, bw, attraction, a-b-db, 14, 2, 1, 15, 83, 153, 165, 90, 90, 165, 1, 0.792834
151, 2, bw, filler, NA, 999, 999, 1, 16, 129, 147, 73, 165, 119, 96, 1, 0.878716
151, 2, bw, filler, NA, 999, 999, 1, 16, 129, 147, 73, 165, 119, 96, 3, 0.874214
151, 2, bw, filler, NA, 999, 999, 1, 17, 131, 118, 164, 98, 101, 179, 3, 1.85266
151, 2, bw, filler, NA, 999, 999, 1, 17, 131, 118, 164, 98, 101, 179, 1, 0.681294
151, 2, bw, attraction, a-b-db, 5, 3, 1, 18, 195, 120, 120, 195, 117, 190, 3, 2.95574
151, 2, bw, attraction, a-b-db, 5, 3, 1, 18, 195, 120, 120, 195, 117, 190, 1, 0.691463
151, 2, bw, filler, NA, 999, 999, 1, 19, 138, 120, 107, 168, 189, 62, 2, 3.74123
151, 2, bw, filler, NA, 999, 999, 1, 19, 138, 120, 107, 168, 189, 62, 3, 0.757324
151, 2, bw, attraction, a-b-da, 5, 2, 1, 20, 161, 88, 90, 165, 165, 90, 2, 1.63635
151, 2, bw, attraction, a-b-da, 5, 2, 1, 20, 161, 88, 90, 165, 165, 90, 1, 0.801144
151, 2, bw, filler, NA, 999, 999, 1, 21, 188, 137, 63, 195, 157, 90, 1, 1.12677
151, 2, bw, filler, NA, 999, 999, 1, 21, 188, 137, 63, 195, 157, 90, 2, 2.60046
151, 2, bw, attraction, a-b-da, 9, 1, 1, 22, 135, 60, 129, 57, 60, 135, 3, 3.62951
151, 2, bw, attraction, a-b-da, 9, 1, 1, 22, 135, 60, 129, 57, 60, 135, 2, 0.914412
151, 2, bw, attraction, a-b-da, 5, 3, 1, 23, 190, 117, 120, 195, 195, 120, 2, 3.78742
151, 2, bw, attraction, a-b-da, 5, 3, 1, 23, 190, 117, 120, 195, 195, 120, 3, 0.538196
151, 2, bw, attraction, a-b-db, 9, 2, 1, 24, 86, 157, 90, 165, 165, 90, 2, 4.03466
151, 2, bw, attraction, a-b-db, 9, 2, 1, 24, 86, 157, 90, 165, 165, 90, 1, 2.86338
151, 2, bw, attraction, a-b-db, 2, 2, 1, 25, 165, 90, 89, 163, 90, 165, 2, 2.20178
151, 2, bw, attraction, a-b-db, 2, 2, 1, 25, 165, 90, 89, 163, 90, 165, 1, 0.68045
151, 2, bw, catch, NA, 999, 999, 1, 26, 100, 155, 76, 119, 128, 187, 3, 1.46679
151, 2, bw, catch, NA, 999, 999, 1, 26, 100, 155, 76, 119, 128, 187, 2, 0.662845
151, 2, bw, filler, NA, 999, 999, 1, 27, 103, 140, 178, 145, 121, 192, 2, 1.02594
151, 2, bw, filler, NA, 999, 999, 1, 27, 103, 140, 178, 145, 121, 192, 1, 0.519807
151, 2, bw, attraction, a-b-da, 14, 3, 1, 28, 181, 111, 120, 195, 195, 120, 2, 1.52875
151, 2, bw, attraction, a-b-da, 14, 3, 1, 28, 181, 111, 120, 195, 195, 120, 1, 0.386267
151, 2, bw, filler, NA, 999, 999, 1, 29, 91, 71, 90, 88, 154, 109, 3, 0.824791
151, 2, bw, filler, NA, 999, 999, 1, 29, 91, 71, 90, 88, 154, 109, 1, 0.462469
151, 2, bw, attraction, a-b-da, 9, 2, 1, 30, 165, 90, 157, 86, 90, 165, 3, 2.15358
151, 2, bw, attraction, a-b-da, 9, 2, 1, 30, 165, 90, 157, 86, 90, 165, 2, 1.33023
151, 2, bw, attraction, a-b-da, 2, 2, 1, 31, 163, 89, 165, 90, 90, 165, 3, 2.56243
151, 2, bw, attraction, a-b-da, 2, 2, 1, 31, 163, 89, 165, 90, 90, 165, 2, 0.722331
151, 2, bw, attraction, a-b-da, 14, 2, 1, 32, 153, 83, 165, 90, 90, 165, 3, 1.62735
151, 2, bw, attraction, a-b-da, 14, 2, 1, 32, 153, 83, 165, 90, 90, 165, 1, 0.457893
151, 2, bw, attraction, a-b-da, 2, 3, 1, 33, 193, 119, 195, 120, 120, 195, 3, 2.37995
151, 2, bw, attraction, a-b-da, 2, 3, 1, 33, 193, 119, 195, 120, 120, 195, 1, 0.907136
151, 2, bw, attraction, a-b-db, 5, 2, 1, 34, 88, 161, 90, 165, 165, 90, 2, 2.78013
151, 2, bw, attraction, a-b-db, 5, 2, 1, 34, 88, 161, 90, 165, 165, 90, 3, 0.475226
151, 2, bw, attraction, a-b-db, 14, 1, 1, 35, 60, 135, 56, 125, 135, 60, 1, 2.58161
151, 2, bw, attraction, a-b-db, 14, 1, 1, 35, 60, 135, 56, 125, 135, 60, 3, 0.484893
151, 2, bw, catch, NA, 999, 999, 1, 36, 149, 106, 150, 165, 98, 97, 2, 1.14336
151, 2, bw, catch, NA, 999, 999, 1, 36, 149, 106, 150, 165, 98, 97, 1, 0.368209
151, 2, bw, catch, NA, 999, 999, 1, 37, 156, 99, 92, 103, 138, 177, 3, 4.57537
151, 2, bw, catch, NA, 999, 999, 1, 37, 156, 99, 92, 103, 138, 177, 2, 0.509936
151, 2, bw, attraction, a-b-db, 9, 1, 2, 1, 135, 60, 60, 135, 57, 129, 3, 1.96708
151, 2, bw, attraction, a-b-db, 9, 1, 2, 1, 135, 60, 60, 135, 57, 129, 1, 0.703121
151, 2, bw, attraction, a-b-da, 2, 1, 2, 2, 135, 60, 60, 135, 134, 59, 2, 1.82484
151, 2, bw, attraction, a-b-da, 2, 1, 2, 2, 135, 60, 60, 135, 134, 59, 3, 0.598247
151, 2, bw, attraction, a-b-db, 9, 3, 2, 3, 195, 120, 120, 195, 114, 186, 2, 1.69209
151, 2, bw, attraction, a-b-db, 9, 3, 2, 3, 195, 120, 120, 195, 114, 186, 3, 0.422948
151, 2, bw, attraction, a-b-da, 5, 2, 2, 4, 165, 90, 161, 88, 90, 165, 3, 3.0993
151, 2, bw, attraction, a-b-da, 5, 2, 2, 4, 165, 90, 161, 88, 90, 165, 1, 1.1096
151, 2, bw, attraction, a-b-da, 14, 1, 2, 5, 135, 60, 125, 56, 60, 135, 3, 2.75843
151, 2, bw, attraction, a-b-da, 14, 1, 2, 5, 135, 60, 125, 56, 60, 135, 1, 0.694295
151, 2, bw, attraction, a-b-db, 14, 2, 2, 6, 165, 90, 90, 165, 83, 153, 2, 2.08798
151, 2, bw, attraction, a-b-db, 14, 2, 2, 6, 165, 90, 90, 165, 83, 153, 1, 0.810744
151, 2, bw, attraction, a-b-da, 14, 2, 2, 7, 90, 165, 153, 83, 165, 90, 2, 1.40765
151, 2, bw, attraction, a-b-da, 14, 2, 2, 7, 90, 165, 153, 83, 165, 90, 3, 2.49392
151, 2, bw, filler, NA, 999, 999, 2, 8, 123, 151, 100, 121, 124, 93, 1, 2.79905
151, 2, bw, filler, NA, 999, 999, 2, 8, 123, 151, 100, 121, 124, 93, 3, 0.893484
151, 2, bw, attraction, a-b-da, 5, 3, 2, 9, 195, 120, 190, 117, 120, 195, 3, 2.60708
151, 2, bw, attraction, a-b-da, 5, 3, 2, 9, 195, 120, 190, 117, 120, 195, 2, 0.836902
151, 2, bw, attraction, a-b-da, 9, 1, 2, 10, 135, 60, 129, 57, 60, 135, 3, 1.95334
151, 2, bw, attraction, a-b-da, 9, 1, 2, 10, 135, 60, 129, 57, 60, 135, 2, 0.521923
151, 2, bw, filler, NA, 999, 999, 2, 11, 95, 71, 70, 107, 113, 75, 2, 2.19513
151, 2, bw, filler, NA, 999, 999, 2, 11, 95, 71, 70, 107, 113, 75, 1, 0.841871
151, 2, bw, attraction, a-b-da, 9, 2, 2, 12, 157, 86, 165, 90, 90, 165, 3, 1.77357
151, 2, bw, attraction, a-b-da, 9, 2, 2, 12, 157, 86, 165, 90, 90, 165, 1, 0.764828
151, 2, bw, filler, NA, 999, 999, 2, 13, 167, 102, 150, 112, 83, 121, 2, 1.68399
151, 2, bw, filler, NA, 999, 999, 2, 13, 167, 102, 150, 112, 83, 121, 3, 0.471423
151, 2, bw, attraction, a-b-da, 14, 3, 2, 14, 181, 111, 195, 120, 120, 195, 2, 1.32245
151, 2, bw, attraction, a-b-da, 14, 3, 2, 14, 181, 111, 195, 120, 120, 195, 1, 0.780151
151, 2, bw, attraction, a-b-da, 2, 2, 2, 15, 163, 89, 90, 165, 165, 90, 2, 1.04228
151, 2, bw, attraction, a-b-da, 2, 2, 2, 15, 163, 89, 90, 165, 165, 90, 1, 0.495332
151, 2, bw, attraction, a-b-db, 2, 3, 2, 16, 119, 193, 195, 120, 120, 195, 1, 1.72914
151, 2, bw, attraction, a-b-db, 2, 3, 2, 16, 119, 193, 195, 120, 120, 195, 2, 0.938556
151, 2, bw, attraction, a-b-da, 5, 1, 2, 17, 60, 135, 132, 58, 135, 60, 1, 2.92286
151, 2, bw, attraction, a-b-da, 5, 1, 2, 17, 60, 135, 132, 58, 135, 60, 2, 0.587928
151, 2, bw, filler, NA, 999, 999, 2, 18, 139, 86, 150, 99, 150, 148, 3, 1.41762
151, 2, bw, filler, NA, 999, 999, 2, 18, 139, 86, 150, 99, 150, 148, 1, 0.704552
151, 2, bw, catch, NA, 999, 999, 2, 19, 175, 140, 137, 118, 76, 119, 1, 0.818226
151, 2, bw, catch, NA, 999, 999, 2, 19, 175, 140, 137, 118, 76, 119, 3, 0.352665
151, 2, bw, attraction, a-b-db, 9, 2, 2, 20, 165, 90, 90, 165, 86, 157, 2, 0.856499
151, 2, bw, attraction, a-b-db, 9, 2, 2, 20, 165, 90, 90, 165, 86, 157, 3, 0.820881
151, 2, bw, filler, NA, 999, 999, 2, 21, 107, 94, 158, 127, 56, 114, 2, 0.729815
151, 2, bw, filler, NA, 999, 999, 2, 21, 107, 94, 158, 127, 56, 114, 3, 0.77173
151, 2, bw, filler, NA, 999, 999, 2, 22, 64, 101, 145, 148, 130, 158, 2, 0.802653
151, 2, bw, filler, NA, 999, 999, 2, 22, 64, 101, 145, 148, 130, 158, 1, 0.729772
151, 2, bw, catch, NA, 999, 999, 2, 23, 135, 120, 68, 127, 137, 178, 3, 0.986077
151, 2, bw, catch, NA, 999, 999, 2, 23, 135, 120, 68, 127, 137, 178, 2, 0.273761
151, 2, bw, filler, NA, 999, 999, 2, 24, 188, 136, 71, 132, 147, 83, 1, 0.660292
151, 2, bw, filler, NA, 999, 999, 2, 24, 188, 136, 71, 132, 147, 83, 2, 1.12875
151, 2, bw, attraction, a-b-db, 2, 1, 2, 25, 60, 135, 135, 60, 59, 134, 3, 1.353
151, 2, bw, attraction, a-b-db, 2, 1, 2, 25, 60, 135, 135, 60, 59, 134, 1, 0.505847
151, 2, bw, attraction, a-b-db, 2, 2, 2, 26, 90, 165, 165, 90, 89, 163, 3, 1.52367
151, 2, bw, attraction, a-b-db, 2, 2, 2, 26, 90, 165, 165, 90, 89, 163, 2, 0.453151
151, 2, bw, attraction, a-b-db, 5, 3, 2, 27, 195, 120, 117, 190, 120, 195, 2, 1.04089
151, 2, bw, attraction, a-b-db, 5, 3, 2, 27, 195, 120, 117, 190, 120, 195, 1, 0.501922
151, 2, bw, attraction, a-b-db, 14, 1, 2, 28, 135, 60, 60, 135, 56, 125, 1, 2.11163
151, 2, bw, attraction, a-b-db, 14, 1, 2, 28, 135, 60, 60, 135, 56, 125, 2, 0.538463
151, 2, bw, filler, NA, 999, 999, 2, 29, 88, 179, 152, 169, 146, 150, 2, 0.79421
151, 2, bw, filler, NA, 999, 999, 2, 29, 88, 179, 152, 169, 146, 150, 1, 0.361301
151, 2, bw, filler, NA, 999, 999, 2, 30, 127, 191, 63, 181, 182, 104, 1, 0.968448
151, 2, bw, filler, NA, 999, 999, 2, 30, 127, 191, 63, 181, 182, 104, 2, 0.464644
151, 2, bw, attraction, a-b-db, 5, 1, 2, 31, 135, 60, 60, 135, 58, 132, 2, 1.57987
151, 2, bw, attraction, a-b-db, 5, 1, 2, 31, 135, 60, 60, 135, 58, 132, 1, 0.699303
151, 2, bw, attraction, a-b-da, 2, 3, 2, 32, 120, 195, 195, 120, 193, 119, 2, 2.84511
151, 2, bw, attraction, a-b-da, 2, 3, 2, 32, 120, 195, 195, 120, 193, 119, 1, 0.433552
151, 2, bw, catch, NA, 999, 999, 2, 33, 91, 164, 128, 67, 157, 158, 3, 1.27793
151, 2, bw, catch, NA, 999, 999, 2, 33, 91, 164, 128, 67, 157, 158, 2, 0.353558
151, 2, bw, attraction, a-b-db, 14, 3, 2, 34, 120, 195, 195, 120, 111, 181, 1, 0.953341
151, 2, bw, attraction, a-b-db, 14, 3, 2, 34, 120, 195, 195, 120, 111, 181, 2, 0.282488
151, 2, bw, attraction, a-b-da, 9, 3, 2, 35, 195, 120, 186, 114, 120, 195, 3, 0.836839
151, 2, bw, attraction, a-b-da, 9, 3, 2, 35, 195, 120, 186, 114, 120, 195, 1, 0.585995
151, 2, bw, filler, NA, 999, 999, 2, 36, 93, 160, 194, 68, 80, 138, 1, 0.984399
151, 2, bw, filler, NA, 999, 999, 2, 36, 93, 160, 194, 68, 80, 138, 2, 0.45858
151, 2, bw, attraction, a-b-db, 5, 2, 2, 37, 88, 161, 165, 90, 90, 165, 3, 0.779115
151, 2, bw, attraction, a-b-db, 5, 2, 2, 37, 88, 161, 165, 90, 90, 165, 1, 0.650831
151, 2, bw, attraction, a-b-da, 14, 2, 3, 1, 90, 165, 153, 83, 165, 90, 1, 1.75057
151, 2, bw, attraction, a-b-da, 14, 2, 3, 1, 90, 165, 153, 83, 165, 90, 2, 0.885756
151, 2, bw, attraction, a-b-da, 14, 3, 3, 2, 181, 111, 120, 195, 195, 120, 2, 0.745807
151, 2, bw, attraction, a-b-da, 14, 3, 3, 2, 181, 111, 120, 195, 195, 120, 1, 0.48278
151, 2, bw, filler, NA, 999, 999, 3, 3, 186, 122, 151, 182, 192, 151, 2, 1.01324
151, 2, bw, filler, NA, 999, 999, 3, 3, 186, 122, 151, 182, 192, 151, 1, 0.491527
151, 2, bw, filler, NA, 999, 999, 3, 4, 155, 120, 178, 161, 186, 98, 2, 0.97333
151, 2, bw, filler, NA, 999, 999, 3, 4, 155, 120, 178, 161, 186, 98, 3, 0.160621
151, 2, bw, attraction, a-b-db, 2, 3, 3, 5, 120, 195, 119, 193, 195, 120, 1, 3.38019
151, 2, bw, attraction, a-b-db, 2, 3, 3, 5, 120, 195, 119, 193, 195, 120, 3, 1.15511
151, 2, bw, attraction, a-b-db, 5, 3, 3, 6, 117, 190, 120, 195, 195, 120, 2, 1.21867
151, 2, bw, attraction, a-b-db, 5, 3, 3, 6, 117, 190, 120, 195, 195, 120, 3, 0.384999
151, 2, bw, filler, NA, 999, 999, 3, 7, 138, 190, 77, 102, 75, 113, 1, 1.43944
151, 2, bw, filler, NA, 999, 999, 3, 7, 138, 190, 77, 102, 75, 113, 2, 0.340274
151, 2, bw, attraction, a-b-da, 2, 3, 3, 8, 120, 195, 195, 120, 193, 119, 1, 2.8441
151, 2, bw, attraction, a-b-da, 2, 3, 3, 8, 120, 195, 195, 120, 193, 119, 3, 0.608566
151, 2, bw, attraction, a-b-db, 9, 3, 3, 9, 120, 195, 114, 186, 195, 120, 1, 1.36566
151, 2, bw, attraction, a-b-db, 9, 3, 3, 9, 120, 195, 114, 186, 195, 120, 3, 0.613865
151, 2, bw, attraction, a-b-da, 5, 1, 3, 10, 135, 60, 60, 135, 132, 58, 2, 2.22697
151, 2, bw, attraction, a-b-da, 5, 1, 3, 10, 135, 60, 60, 135, 132, 58, 3, 0.862259
151, 2, bw, filler, NA, 999, 999, 3, 11, 119, 71, 89, 59, 194, 62, 3, 2.80327
151, 2, bw, filler, NA, 999, 999, 3, 11, 119, 71, 89, 59, 194, 62, 2, 0.737704
151, 2, bw, attraction, a-b-db, 5, 2, 3, 12, 90, 165, 165, 90, 88, 161, 1, 2.17798
151, 2, bw, attraction, a-b-db, 5, 2, 3, 12, 90, 165, 165, 90, 88, 161, 2, 0.665442
151, 2, bw, attraction, a-b-da, 5, 2, 3, 13, 161, 88, 165, 90, 90, 165, 3, 1.60453
151, 2, bw, attraction, a-b-da, 5, 2, 3, 13, 161, 88, 165, 90, 90, 165, 2, 0.362556
151, 2, bw, attraction, a-b-db, 9, 2, 3, 14, 90, 165, 165, 90, 86, 157, 1, 2.89779
151, 2, bw, attraction, a-b-db, 9, 2, 3, 14, 90, 165, 165, 90, 86, 157, 2, 0.636201
151, 2, bw, filler, NA, 999, 999, 3, 15, 71, 156, 128, 90, 185, 176, 3, 0.720509
151, 2, bw, filler, NA, 999, 999, 3, 15, 71, 156, 128, 90, 185, 176, 1, 1.20228
151, 2, bw, attraction, a-b-db, 14, 2, 3, 16, 165, 90, 83, 153, 90, 165, 3, 2.34381
151, 2, bw, attraction, a-b-db, 14, 2, 3, 16, 165, 90, 83, 153, 90, 165, 2, 0.600567
151, 2, bw, filler, NA, 999, 999, 3, 17, 74, 185, 97, 71, 156, 71, 1, 3.39019
151, 2, bw, filler, NA, 999, 999, 3, 17, 74, 185, 97, 71, 156, 71, 2, 0.372445
151, 2, bw, attraction, a-b-db, 9, 1, 3, 18, 60, 135, 57, 129, 135, 60, 1, 2.32352
151, 2, bw, attraction, a-b-db, 9, 1, 3, 18, 60, 135, 57, 129, 135, 60, 3, 0.711294
151, 2, bw, filler, NA, 999, 999, 3, 19, 186, 84, 132, 59, 174, 86, 3, 1.89388
151, 2, bw, filler, NA, 999, 999, 3, 19, 186, 84, 132, 59, 174, 86, 2, 0.456527
151, 2, bw, attraction, a-b-da, 5, 3, 3, 20, 195, 120, 190, 117, 120, 195, 1, 3.7237
151, 2, bw, attraction, a-b-da, 5, 3, 3, 20, 195, 120, 190, 117, 120, 195, 2, 0.292494
151, 2, bw, attraction, a-b-db, 2, 1, 3, 21, 60, 135, 59, 134, 135, 60, 1, 3.48633
151, 2, bw, attraction, a-b-db, 2, 1, 3, 21, 60, 135, 59, 134, 135, 60, 3, 0.905275
151, 2, bw, catch, NA, 999, 999, 3, 22, 129, 186, 114, 141, 96, 99, 1, 0.698996
151, 2, bw, catch, NA, 999, 999, 3, 22, 129, 186, 114, 141, 96, 99, 3, 0.294062
151, 2, bw, attraction, a-b-db, 5, 1, 3, 23, 135, 60, 60, 135, 58, 132, 1, 0.703963
151, 2, bw, attraction, a-b-db, 5, 1, 3, 23, 135, 60, 60, 135, 58, 132, 3, 0.338268
151, 2, bw, attraction, a-b-da, 2, 2, 3, 24, 165, 90, 163, 89, 90, 165, 3, 1.96275
151, 2, bw, attraction, a-b-da, 2, 2, 3, 24, 165, 90, 163, 89, 90, 165, 2, 0.482818
151, 2, bw, attraction, a-b-da, 9, 2, 3, 25, 90, 165, 165, 90, 157, 86, 1, 1.50125
151, 2, bw, attraction, a-b-da, 9, 2, 3, 25, 90, 165, 165, 90, 157, 86, 2, 0.304283
151, 2, bw, attraction, a-b-da, 9, 1, 3, 26, 129, 57, 135, 60, 60, 135, 3, 1.47392
151, 2, bw, attraction, a-b-da, 9, 1, 3, 26, 129, 57, 135, 60, 60, 135, 2, 0.397418
151, 2, bw, attraction, a-b-da, 14, 1, 3, 27, 60, 135, 125, 56, 135, 60, 1, 1.14724
151, 2, bw, attraction, a-b-da, 14, 1, 3, 27, 60, 135, 125, 56, 135, 60, 2, 0.364291
151, 2, bw, attraction, a-b-db, 14, 3, 3, 28, 111, 181, 195, 120, 120, 195, 3, 1.59542
151, 2, bw, attraction, a-b-db, 14, 3, 3, 28, 111, 181, 195, 120, 120, 195, 2, 0.338167
151, 2, bw, attraction, a-b-da, 2, 1, 3, 29, 135, 60, 60, 135, 134, 59, 3, 1.40264
151, 2, bw, attraction, a-b-da, 2, 1, 3, 29, 135, 60, 60, 135, 134, 59, 2, 0.42557
151, 2, bw, catch, NA, 999, 999, 3, 30, 141, 174, 90, 105, 158, 97, 1, 0.718053
151, 2, bw, catch, NA, 999, 999, 3, 30, 141, 174, 90, 105, 158, 97, 2, 0.528505
151, 2, bw, attraction, a-b-db, 2, 2, 3, 31, 165, 90, 89, 163, 90, 165, 3, 1.20088
151, 2, bw, attraction, a-b-db, 2, 2, 3, 31, 165, 90, 89, 163, 90, 165, 1, 0.887748
151, 2, bw, filler, NA, 999, 999, 3, 32, 90, 124, 65, 165, 147, 94, 3, 1.5142
151, 2, bw, filler, NA, 999, 999, 3, 32, 90, 124, 65, 165, 147, 94, 2, 0.588345
151, 2, bw, catch, NA, 999, 999, 3, 33, 120, 195, 146, 109, 130, 65, 1, 1.7548
151, 2, bw, catch, NA, 999, 999, 3, 33, 120, 195, 146, 109, 130, 65, 3, 0.578918
151, 2, bw, attraction, a-b-da, 9, 3, 3, 34, 186, 114, 120, 195, 195, 120, 2, 3.68929
151, 2, bw, attraction, a-b-da, 9, 3, 3, 34, 186, 114, 120, 195, 195, 120, 1, 0.339427
151, 2, bw, attraction, a-b-db, 14, 1, 3, 35, 135, 60, 60, 135, 56, 125, 2, 0.987221
151, 2, bw, attraction, a-b-db, 14, 1, 3, 35, 135, 60, 60, 135, 56, 125, 1, 0.282203
151, 2, bw, filler, NA, 999, 999, 3, 36, 146, 114, 62, 58, 161, 114, 3, 0.788812
151, 2, bw, filler, NA, 999, 999, 3, 36, 146, 114, 62, 58, 161, 114, 2, 0.451916
151, 2, bw, filler, NA, 999, 999, 3, 37, 139, 125, 119, 159, 149, 79, 2, 1.19158
151, 2, bw, filler, NA, 999, 999, 3, 37, 139, 125, 119, 159, 149, 79, 3, 0.663416
151, 2, bw, attraction, a-b-db, 9, 1, 4, 1, 135, 60, 60, 135, 57, 129, 2, 1.72154
151, 2, bw, attraction, a-b-db, 9, 1, 4, 1, 135, 60, 60, 135, 57, 129, 1, 0.403223
151, 2, bw, filler, NA, 999, 999, 4, 2, 118, 98, 115, 174, 135, 194, 3, 0.768815
151, 2, bw, filler, NA, 999, 999, 4, 2, 118, 98, 115, 174, 135, 194, 1, 0.48122
151, 2, bw, filler, NA, 999, 999, 4, 3, 107, 194, 127, 177, 68, 121, 2, 1.64383
151, 2, bw, filler, NA, 999, 999, 4, 3, 107, 194, 127, 177, 68, 121, 3, 0.49657
151, 2, bw, attraction, a-b-da, 2, 1, 4, 4, 134, 59, 135, 60, 60, 135, 3, 1.77832
151, 2, bw, attraction, a-b-da, 2, 1, 4, 4, 134, 59, 135, 60, 60, 135, 2, 0.913888
151, 2, bw, attraction, a-b-db, 9, 3, 4, 5, 114, 186, 120, 195, 195, 120, 3, 1.13079
151, 2, bw, attraction, a-b-db, 9, 3, 4, 5, 114, 186, 120, 195, 195, 120, 1, 0.676393
151, 2, bw, filler, NA, 999, 999, 4, 6, 57, 184, 170, 86, 173, 96, 2, 0.910729
151, 2, bw, filler, NA, 999, 999, 4, 6, 57, 184, 170, 86, 173, 96, 1, 0.345086
151, 2, bw, attraction, a-b-da, 2, 3, 4, 7, 193, 119, 120, 195, 195, 120, 2, 0.672851
151, 2, bw, attraction, a-b-da, 2, 3, 4, 7, 193, 119, 120, 195, 195, 120, 1, 0.292654
151, 2, bw, filler, NA, 999, 999, 4, 8, 112, 165, 156, 177, 182, 99, 2, 0.558558
151, 2, bw, filler, NA, 999, 999, 4, 8, 112, 165, 156, 177, 182, 99, 1, 0.230943
151, 2, bw, attraction, a-b-db, 14, 2, 4, 9, 90, 165, 83, 153, 165, 90, 1, 0.859489
151, 2, bw, attraction, a-b-db, 14, 2, 4, 9, 90, 165, 83, 153, 165, 90, 2, 0.271898
151, 2, bw, attraction, a-b-db, 14, 1, 4, 10, 56, 125, 60, 135, 135, 60, 2, 1.14709
151, 2, bw, attraction, a-b-db, 14, 1, 4, 10, 56, 125, 60, 135, 135, 60, 1, 0.284174
151, 2, bw, attraction, a-b-da, 14, 2, 4, 11, 153, 83, 165, 90, 90, 165, 3, 0.982508
151, 2, bw, attraction, a-b-da, 14, 2, 4, 11, 153, 83, 165, 90, 90, 165, 2, 0.254233
151, 2, bw, attraction, a-b-da, 5, 1, 4, 12, 132, 58, 135, 60, 60, 135, 3, 0.714168
151, 2, bw, attraction, a-b-da, 5, 1, 4, 12, 132, 58, 135, 60, 60, 135, 1, 0.732517
151, 2, bw, attraction, a-b-db, 5, 3, 4, 13, 120, 195, 117, 190, 195, 120, 3, 0.892803
151, 2, bw, attraction, a-b-db, 5, 3, 4, 13, 120, 195, 117, 190, 195, 120, 2, 0.383214
151, 2, bw, filler, NA, 999, 999, 4, 14, 122, 71, 195, 87, 148, 77, 2, 0.958401
151, 2, bw, filler, NA, 999, 999, 4, 14, 122, 71, 195, 87, 148, 77, 1, 0.65359
151, 2, bw, attraction, a-b-da, 14, 1, 4, 15, 135, 60, 60, 135, 125, 56, 1, 0.642536
151, 2, bw, attraction, a-b-da, 14, 1, 4, 15, 135, 60, 60, 135, 125, 56, 2, 0.28756
151, 2, bw, attraction, a-b-da, 2, 2, 4, 16, 163, 89, 165, 90, 90, 165, 2, 0.810142
151, 2, bw, attraction, a-b-da, 2, 2, 4, 16, 163, 89, 165, 90, 90, 165, 1, 0.608535
151, 2, bw, attraction, a-b-da, 14, 3, 4, 17, 120, 195, 195, 120, 181, 111, 3, 0.885488
151, 2, bw, attraction, a-b-da, 14, 3, 4, 17, 120, 195, 195, 120, 181, 111, 2, 0.377171
151, 2, bw, filler, NA, 999, 999, 4, 18, 88, 114, 174, 82, 60, 111, 2, 0.975806
151, 2, bw, filler, NA, 999, 999, 4, 18, 88, 114, 174, 82, 60, 111, 1, 0.271503
151, 2, bw, attraction, a-b-db, 14, 3, 4, 19, 111, 181, 195, 120, 120, 195, 3, 0.674589
151, 2, bw, attraction, a-b-db, 14, 3, 4, 19, 111, 181, 195, 120, 120, 195, 2, 0.409142
151, 2, bw, filler, NA, 999, 999, 4, 20, 66, 152, 78, 108, 76, 90, 2, 0.691475
151, 2, bw, filler, NA, 999, 999, 4, 20, 66, 152, 78, 108, 76, 90, 1, 0.270549
151, 2, bw, attraction, a-b-db, 2, 3, 4, 21, 120, 195, 119, 193, 195, 120, 3, 0.897872
151, 2, bw, attraction, a-b-db, 2, 3, 4, 21, 120, 195, 119, 193, 195, 120, 2, 0.356859
151, 2, bw, attraction, a-b-da, 9, 1, 4, 22, 135, 60, 60, 135, 129, 57, 2, 0.764085
151, 2, bw, attraction, a-b-da, 9, 1, 4, 22, 135, 60, 60, 135, 129, 57, 1, 0.308331
151, 2, bw, attraction, a-b-db, 9, 2, 4, 23, 90, 165, 86, 157, 165, 90, 3, 0.773562
151, 2, bw, attraction, a-b-db, 9, 2, 4, 23, 90, 165, 86, 157, 165, 90, 2, 0.285333
151, 2, bw, catch, NA, 999, 999, 4, 24, 180, 135, 95, 160, 73, 122, 1, 0.639801
151, 2, bw, catch, NA, 999, 999, 4, 24, 180, 135, 95, 160, 73, 122, 2, 0.348898
151, 2, bw, catch, NA, 999, 999, 4, 25, 144, 111, 88, 107, 184, 131, 3, 0.69271
151, 2, bw, catch, NA, 999, 999, 4, 25, 144, 111, 88, 107, 184, 131, 2, 0.639919
151, 2, bw, filler, NA, 999, 999, 4, 26, 149, 189, 140, 71, 120, 73, 1, 0.584654
151, 2, bw, filler, NA, 999, 999, 4, 26, 149, 189, 140, 71, 120, 73, 2, 0.363365
151, 2, bw, filler, NA, 999, 999, 4, 27, 103, 159, 118, 100, 175, 63, 2, 0.610512
151, 2, bw, filler, NA, 999, 999, 4, 27, 103, 159, 118, 100, 175, 63, 1, 0.464981
151, 2, bw, attraction, a-b-da, 5, 2, 4, 28, 161, 88, 90, 165, 165, 90, 3, 0.852133
151, 2, bw, attraction, a-b-da, 5, 2, 4, 28, 161, 88, 90, 165, 165, 90, 2, 0.41722
151, 2, bw, attraction, a-b-db, 2, 2, 4, 29, 90, 165, 165, 90, 89, 163, 2, 1.00631
151, 2, bw, attraction, a-b-db, 2, 2, 4, 29, 90, 165, 165, 90, 89, 163, 1, 0.284644
151, 2, bw, attraction, a-b-db, 5, 1, 4, 30, 58, 132, 135, 60, 60, 135, 2, 0.543174
151, 2, bw, attraction, a-b-db, 5, 1, 4, 30, 58, 132, 135, 60, 60, 135, 1, 0.304277
151, 2, bw, attraction, a-b-da, 9, 3, 4, 31, 195, 120, 120, 195, 186, 114, 2, 0.450065
151, 2, bw, attraction, a-b-da, 9, 3, 4, 31, 195, 120, 120, 195, 186, 114, 1, 0.370544
151, 2, bw, filler, NA, 999, 999, 4, 32, 155, 129, 63, 87, 125, 93, 1, 0.814486
151, 2, bw, filler, NA, 999, 999, 4, 32, 155, 129, 63, 87, 125, 93, 2, 0.380835
151, 2, bw, attraction, a-b-db, 5, 2, 4, 33, 165, 90, 90, 165, 88, 161, 2, 0.643352
151, 2, bw, attraction, a-b-db, 5, 2, 4, 33, 165, 90, 90, 165, 88, 161, 1, 0.832562
151, 2, bw, attraction, a-b-da, 9, 2, 4, 34, 157, 86, 165, 90, 90, 165, 2, 0.900791
151, 2, bw, attraction, a-b-da, 9, 2, 4, 34, 157, 86, 165, 90, 90, 165, 1, 0.59983
151, 2, bw, attraction, a-b-da, 5, 3, 4, 35, 190, 117, 120, 195, 195, 120, 2, 1.02961
151, 2, bw, attraction, a-b-da, 5, 3, 4, 35, 190, 117, 120, 195, 195, 120, 3, 0.307324
151, 2, bw, attraction, a-b-db, 2, 1, 4, 36, 60, 135, 135, 60, 59, 134, 1, 0.700459
151, 2, bw, attraction, a-b-db, 2, 1, 4, 36, 60, 135, 135, 60, 59, 134, 2, 0.375685
151, 2, bw, catch, NA, 999, 999, 4, 37, 129, 186, 148, 107, 79, 116, 2, 1.06213
151, 2, bw, catch, NA, 999, 999, 4, 37, 129, 186, 148, 107, 79, 116, 3, 0.290356
151, 2, bw, attraction, a-b-db, 2, 1, 5, 1, 59, 134, 60, 135, 135, 60, 2, 2.23476
151, 2, bw, attraction, a-b-db, 2, 1, 5, 1, 59, 134, 60, 135, 135, 60, 1, 0.976005
151, 2, bw, filler, NA, 999, 999, 5, 2, 143, 118, 63, 144, 154, 96, 1, 0.806328
151, 2, bw, filler, NA, 999, 999, 5, 2, 143, 118, 63, 144, 154, 96, 2, 0.370606
151, 2, bw, attraction, a-b-da, 2, 1, 5, 3, 134, 59, 60, 135, 135, 60, 2, 0.803939
151, 2, bw, attraction, a-b-da, 2, 1, 5, 3, 134, 59, 60, 135, 135, 60, 1, 0.378235
151, 2, bw, attraction, a-b-db, 9, 3, 5, 4, 114, 186, 120, 195, 195, 120, 2, 0.616773
151, 2, bw, attraction, a-b-db, 9, 3, 5, 4, 114, 186, 120, 195, 195, 120, 1, 0.263225
151, 2, bw, attraction, a-b-db, 5, 2, 5, 5, 90, 165, 88, 161, 165, 90, 2, 0.466418
151, 2, bw, attraction, a-b-db, 5, 2, 5, 5, 90, 165, 88, 161, 165, 90, 1, 0.302929
151, 2, bw, filler, NA, 999, 999, 5, 6, 66, 188, 188, 113, 84, 193, 2, 0.552852
151, 2, bw, filler, NA, 999, 999, 5, 6, 66, 188, 188, 113, 84, 193, 1, 0.140034
151, 2, bw, filler, NA, 999, 999, 5, 7, 152, 57, 65, 111, 99, 173, 3, 0.977818
151, 2, bw, filler, NA, 999, 999, 5, 7, 152, 57, 65, 111, 99, 173, 2, 0.281569
151, 2, bw, filler, NA, 999, 999, 5, 8, 68, 145, 126, 116, 186, 181, 3, 0.651917
151, 2, bw, filler, NA, 999, 999, 5, 8, 68, 145, 126, 116, 186, 181, 1, 0.553028
151, 2, bw, attraction, a-b-da, 2, 3, 5, 9, 195, 120, 193, 119, 120, 195, 1, 0.696815
151, 2, bw, attraction, a-b-da, 2, 3, 5, 9, 195, 120, 193, 119, 120, 195, 2, 0.571946
151, 2, bw, catch, NA, 999, 999, 5, 10, 145, 170, 158, 97, 74, 121, 1, 0.939
151, 2, bw, catch, NA, 999, 999, 5, 10, 145, 170, 158, 97, 74, 121, 3, 0.129559
151, 2, bw, attraction, a-b-da, 14, 2, 5, 11, 90, 165, 153, 83, 165, 90, 1, 1.64466
151, 2, bw, attraction, a-b-da, 14, 2, 5, 11, 90, 165, 153, 83, 165, 90, 2, 0.241395
151, 2, bw, filler, NA, 999, 999, 5, 12, 147, 74, 84, 174, 63, 187, 2, 0.669325
151, 2, bw, filler, NA, 999, 999, 5, 12, 147, 74, 84, 174, 63, 187, 1, 0.305726
151, 2, bw, attraction, a-b-da, 5, 2, 5, 13, 161, 88, 90, 165, 165, 90, 2, 0.547531
151, 2, bw, attraction, a-b-da, 5, 2, 5, 13, 161, 88, 90, 165, 165, 90, 1, 0.236655
151, 2, bw, attraction, a-b-db, 9, 2, 5, 14, 86, 157, 90, 165, 165, 90, 2, 0.673218
151, 2, bw, attraction, a-b-db, 9, 2, 5, 14, 86, 157, 90, 165, 165, 90, 1, 0.244961
151, 2, bw, attraction, a-b-da, 9, 3, 5, 15, 186, 114, 195, 120, 120, 195, 2, 1.10486
151, 2, bw, attraction, a-b-da, 9, 3, 5, 15, 186, 114, 195, 120, 120, 195, 1, 0.299326
151, 2, bw, attraction, a-b-db, 5, 3, 5, 16, 120, 195, 195, 120, 117, 190, 2, 2.05295
151, 2, bw, attraction, a-b-db, 5, 3, 5, 16, 120, 195, 195, 120, 117, 190, 1, 0.353805
151, 2, bw, attraction, a-b-db, 2, 3, 5, 17, 120, 195, 119, 193, 195, 120, 3, 0.809541
151, 2, bw, attraction, a-b-db, 2, 3, 5, 17, 120, 195, 119, 193, 195, 120, 2, 0.247934
151, 2, bw, attraction, a-b-da, 14, 1, 5, 18, 60, 135, 135, 60, 125, 56, 2, 1.1317
151, 2, bw, attraction, a-b-da, 14, 1, 5, 18, 60, 135, 135, 60, 125, 56, 1, 0.277361
151, 2, bw, filler, NA, 999, 999, 5, 19, 89, 90, 85, 127, 180, 61, 2, 0.983933
151, 2, bw, filler, NA, 999, 999, 5, 19, 89, 90, 85, 127, 180, 61, 1, 0.327549
151, 2, bw, attraction, a-b-da, 9, 1, 5, 20, 135, 60, 129, 57, 60, 135, 1, 0.759963
151, 2, bw, attraction, a-b-da, 9, 1, 5, 20, 135, 60, 129, 57, 60, 135, 2, 0.480392
151, 2, bw, attraction, a-b-da, 5, 1, 5, 21, 60, 135, 132, 58, 135, 60, 2, 0.810961
151, 2, bw, attraction, a-b-da, 5, 1, 5, 21, 60, 135, 132, 58, 135, 60, 1, 0.289357
151, 2, bw, catch, NA, 999, 999, 5, 22, 111, 84, 185, 130, 102, 153, 2, 0.531159
151, 2, bw, catch, NA, 999, 999, 5, 22, 111, 84, 185, 130, 102, 153, 1, 0.292925
151, 2, bw, attraction, a-b-db, 2, 2, 5, 23, 89, 163, 165, 90, 90, 165, 1, 1.07875
151, 2, bw, attraction, a-b-db, 2, 2, 5, 23, 89, 163, 165, 90, 90, 165, 2, 0.314379
151, 2, bw, attraction, a-b-db, 14, 2, 5, 24, 165, 90, 90, 165, 83, 153, 2, 0.739578
151, 2, bw, attraction, a-b-db, 14, 2, 5, 24, 165, 90, 90, 165, 83, 153, 1, 0.276715
151, 2, bw, attraction, a-b-da, 5, 3, 5, 25, 120, 195, 190, 117, 195, 120, 2, 1.18108
151, 2, bw, attraction, a-b-da, 5, 3, 5, 25, 120, 195, 190, 117, 195, 120, 1, 0.254783
151, 2, bw, attraction, a-b-db, 9, 1, 5, 26, 135, 60, 57, 129, 60, 135, 2, 0.95459
151, 2, bw, attraction, a-b-db, 9, 1, 5, 26, 135, 60, 57, 129, 60, 135, 1, 0.315068
151, 2, bw, attraction, a-b-da, 9, 2, 5, 27, 90, 165, 165, 90, 157, 86, 2, 0.532185
151, 2, bw, attraction, a-b-da, 9, 2, 5, 27, 90, 165, 165, 90, 157, 86, 1, 0.646019
151, 2, bw, attraction, a-b-db, 14, 3, 5, 28, 111, 181, 120, 195, 195, 120, 2, 0.601792
151, 2, bw, attraction, a-b-db, 14, 3, 5, 28, 111, 181, 120, 195, 195, 120, 1, 0.328772
151, 2, bw, attraction, a-b-db, 5, 1, 5, 29, 58, 132, 135, 60, 60, 135, 2, 0.6654
151, 2, bw, attraction, a-b-db, 5, 1, 5, 29, 58, 132, 135, 60, 60, 135, 1, 0.677738
151, 2, bw, attraction, a-b-db, 14, 1, 5, 30, 135, 60, 60, 135, 56, 125, 2, 1.53624
151, 2, bw, attraction, a-b-db, 14, 1, 5, 30, 135, 60, 60, 135, 56, 125, 1, 0.458569
151, 2, bw, filler, NA, 999, 999, 5, 31, 79, 194, 117, 108, 158, 121, 3, 0.676827
151, 2, bw, filler, NA, 999, 999, 5, 31, 79, 194, 117, 108, 158, 121, 1, 0.432555
151, 2, bw, attraction, a-b-da, 14, 3, 5, 32, 195, 120, 120, 195, 181, 111, 2, 0.46894
151, 2, bw, attraction, a-b-da, 14, 3, 5, 32, 195, 120, 120, 195, 181, 111, 1, 0.337469
151, 2, bw, filler, NA, 999, 999, 5, 33, 88, 93, 190, 77, 153, 63, 2, 1.154
151, 2, bw, filler, NA, 999, 999, 5, 33, 88, 93, 190, 77, 153, 63, 1, 0.514963
151, 2, bw, catch, NA, 999, 999, 5, 34, 141, 174, 72, 123, 131, 124, 1, 0.596071
151, 2, bw, catch, NA, 999, 999, 5, 34, 141, 174, 72, 123, 131, 124, 2, 0.627254
151, 2, bw, filler, NA, 999, 999, 5, 35, 143, 170, 66, 88, 110, 164, 1, 0.823604
151, 2, bw, filler, NA, 999, 999, 5, 35, 143, 170, 66, 88, 110, 164, 2, 0.613441
151, 2, bw, attraction, a-b-da, 2, 2, 5, 36, 163, 89, 165, 90, 90, 165, 2, 0.682368
151, 2, bw, attraction, a-b-da, 2, 2, 5, 36, 163, 89, 165, 90, 90, 165, 1, 0.270181
151, 2, bw, filler, NA, 999, 999, 5, 37, 157, 175, 114, 107, 169, 171, 3, 0.713367
151, 2, bw, filler, NA, 999, 999, 5, 37, 157, 175, 114, 107, 169, 171, 2, 0.299752
151, 2, bw, attraction, a-b-da, 9, 2, 6, 1, 165, 90, 90, 165, 157, 86, 2, 1.31765
151, 2, bw, attraction, a-b-da, 9, 2, 6, 1, 165, 90, 90, 165, 157, 86, 3, 0.343843
151, 2, bw, filler, NA, 999, 999, 6, 2, 70, 109, 128, 110, 148, 151, 3, 0.799672
151, 2, bw, filler, NA, 999, 999, 6, 2, 70, 109, 128, 110, 148, 151, 1, 0.46271
151, 2, bw, attraction, a-b-da, 14, 1, 6, 3, 125, 56, 60, 135, 135, 60, 2, 0.609831
151, 2, bw, attraction, a-b-da, 14, 1, 6, 3, 125, 56, 60, 135, 135, 60, 1, 0.240442
151, 2, bw, attraction, a-b-da, 2, 1, 6, 4, 135, 60, 134, 59, 60, 135, 3, 0.820218
151, 2, bw, attraction, a-b-da, 2, 1, 6, 4, 135, 60, 134, 59, 60, 135, 2, 0.546685
151, 2, bw, filler, NA, 999, 999, 6, 5, 193, 103, 56, 169, 179, 177, 3, 0.578373
151, 2, bw, filler, NA, 999, 999, 6, 5, 193, 103, 56, 169, 179, 177, 2, 0.470322
151, 2, bw, filler, NA, 999, 999, 6, 6, 172, 91, 157, 185, 108, 138, 2, 0.477296
151, 2, bw, filler, NA, 999, 999, 6, 6, 172, 91, 157, 185, 108, 138, 1, 0.281144
151, 2, bw, attraction, a-b-da, 14, 3, 6, 7, 195, 120, 181, 111, 120, 195, 3, 0.867768
151, 2, bw, attraction, a-b-da, 14, 3, 6, 7, 195, 120, 181, 111, 120, 195, 2, 0.360041
151, 2, bw, filler, NA, 999, 999, 6, 8, 119, 142, 165, 79, 167, 110, 2, 0.519147
151, 2, bw, filler, NA, 999, 999, 6, 8, 119, 142, 165, 79, 167, 110, 1, 0.31362
151, 2, bw, attraction, a-b-da, 2, 2, 6, 9, 90, 165, 165, 90, 163, 89, 2, 0.786856
151, 2, bw, attraction, a-b-da, 2, 2, 6, 9, 90, 165, 165, 90, 163, 89, 1, 0.306527
151, 2, bw, catch, NA, 999, 999, 6, 10, 112, 83, 159, 96, 139, 176, 3, 0.659747
151, 2, bw, catch, NA, 999, 999, 6, 10, 112, 83, 159, 96, 139, 176, 1, 0.456157
151, 2, bw, attraction, a-b-db, 14, 3, 6, 11, 120, 195, 111, 181, 195, 120, 3, 1.22743
151, 2, bw, attraction, a-b-db, 14, 3, 6, 11, 120, 195, 111, 181, 195, 120, 2, 0.32087
151, 2, bw, attraction, a-b-da, 5, 3, 6, 12, 190, 117, 120, 195, 195, 120, 2, 0.850053
151, 2, bw, attraction, a-b-da, 5, 3, 6, 12, 190, 117, 120, 195, 195, 120, 1, 0.519128
151, 2, bw, catch, NA, 999, 999, 6, 13, 152, 103, 192, 123, 81, 114, 3, 0.856219
151, 2, bw, catch, NA, 999, 999, 6, 13, 152, 103, 192, 123, 81, 114, 2, 2.04459
151, 2, bw, filler, NA, 999, 999, 6, 14, 88, 91, 166, 177, 76, 106, 2, 0.775827
151, 2, bw, filler, NA, 999, 999, 6, 14, 88, 91, 166, 177, 76, 106, 1, 0.375562
151, 2, bw, attraction, a-b-da, 9, 3, 6, 15, 195, 120, 120, 195, 186, 114, 2, 1.06219
151, 2, bw, attraction, a-b-da, 9, 3, 6, 15, 195, 120, 120, 195, 186, 114, 1, 0.338432
151, 2, bw, attraction, a-b-db, 5, 3, 6, 16, 120, 195, 195, 120, 117, 190, 3, 0.835092
151, 2, bw, attraction, a-b-db, 5, 3, 6, 16, 120, 195, 195, 120, 117, 190, 2, 0.280644
151, 2, bw, filler, NA, 999, 999, 6, 17, 66, 183, 122, 149, 70, 134, 2, 0.763147
151, 2, bw, filler, NA, 999, 999, 6, 17, 66, 183, 122, 149, 70, 134, 3, 0.62757
151, 2, bw, attraction, a-b-da, 5, 1, 6, 18, 135, 60, 60, 135, 132, 58, 2, 1.67194
151, 2, bw, attraction, a-b-da, 5, 1, 6, 18, 135, 60, 60, 135, 132, 58, 3, 0.371467
151, 2, bw, attraction, a-b-db, 9, 3, 6, 19, 195, 120, 120, 195, 114, 186, 2, 0.994514
151, 2, bw, attraction, a-b-db, 9, 3, 6, 19, 195, 120, 120, 195, 114, 186, 1, 0.481571
151, 2, bw, filler, NA, 999, 999, 6, 20, 157, 150, 114, 180, 142, 165, 3, 1.12396
151, 2, bw, filler, NA, 999, 999, 6, 20, 157, 150, 114, 180, 142, 165, 2, 0.293693
151, 2, bw, attraction, a-b-db, 9, 2, 6, 21, 90, 165, 165, 90, 86, 157, 2, 0.967481
151, 2, bw, attraction, a-b-db, 9, 2, 6, 21, 90, 165, 165, 90, 86, 157, 3, 0.439955
151, 2, bw, catch, NA, 999, 999, 6, 22, 145, 110, 133, 182, 107, 88, 2, 0.539576
151, 2, bw, catch, NA, 999, 999, 6, 22, 145, 110, 133, 182, 107, 88, 3, 0.372779
151, 2, bw, filler, NA, 999, 999, 6, 23, 126, 162, 151, 137, 81, 126, 2, 0.59522
151, 2, bw, filler, NA, 999, 999, 6, 23, 126, 162, 151, 137, 81, 126, 3, 0.338302
151, 2, bw, filler, NA, 999, 999, 6, 24, 109, 145, 108, 96, 168, 153, 3, 0.666867
151, 2, bw, filler, NA, 999, 999, 6, 24, 109, 145, 108, 96, 168, 153, 2, 0.255272
151, 2, bw, attraction, a-b-db, 14, 2, 6, 25, 90, 165, 165, 90, 83, 153, 3, 1.2112
151, 2, bw, attraction, a-b-db, 14, 2, 6, 25, 90, 165, 165, 90, 83, 153, 2, 0.265405
151, 2, bw, attraction, a-b-da, 2, 3, 6, 26, 193, 119, 195, 120, 120, 195, 2, 1.06868
151, 2, bw, attraction, a-b-da, 2, 3, 6, 26, 193, 119, 195, 120, 120, 195, 1, 0.29708
151, 2, bw, attraction, a-b-da, 5, 2, 6, 27, 161, 88, 90, 165, 165, 90, 2, 1.21877
151, 2, bw, attraction, a-b-da, 5, 2, 6, 27, 161, 88, 90, 165, 165, 90, 1, 0.825057
151, 2, bw, attraction, a-b-db, 2, 3, 6, 28, 195, 120, 119, 193, 120, 195, 2, 0.93339
151, 2, bw, attraction, a-b-db, 2, 3, 6, 28, 195, 120, 119, 193, 120, 195, 1, 0.319089
151, 2, bw, attraction, a-b-db, 14, 1, 6, 29, 135, 60, 60, 135, 56, 125, 2, 2.92831
151, 2, bw, attraction, a-b-db, 14, 1, 6, 29, 135, 60, 60, 135, 56, 125, 3, 0.585306
151, 2, bw, attraction, a-b-da, 14, 2, 6, 30, 153, 83, 90, 165, 165, 90, 2, 0.903787
151, 2, bw, attraction, a-b-da, 14, 2, 6, 30, 153, 83, 90, 165, 165, 90, 3, 0.562727
151, 2, bw, attraction, a-b-db, 5, 2, 6, 31, 165, 90, 88, 161, 90, 165, 2, 1.55385
151, 2, bw, attraction, a-b-db, 5, 2, 6, 31, 165, 90, 88, 161, 90, 165, 3, 0.258002
151, 2, bw, attraction, a-b-db, 2, 1, 6, 32, 60, 135, 59, 134, 135, 60, 2, 1.69329
151, 2, bw, attraction, a-b-db, 2, 1, 6, 32, 60, 135, 59, 134, 135, 60, 3, 0.544026
151, 2, bw, attraction, a-b-db, 2, 2, 6, 33, 89, 163, 90, 165, 165, 90, 2, 1.34369
151, 2, bw, attraction, a-b-db, 2, 2, 6, 33, 89, 163, 90, 165, 165, 90, 3, 0.560836
151, 2, bw, filler, NA, 999, 999, 6, 34, 89, 135, 66, 88, 193, 110, 3, 1.55982
151, 2, bw, filler, NA, 999, 999, 6, 34, 89, 135, 66, 88, 193, 110, 2, 0.671909
151, 2, bw, attraction, a-b-da, 9, 1, 6, 35, 60, 135, 135, 60, 129, 57, 2, 0.922928
151, 2, bw, attraction, a-b-da, 9, 1, 6, 35, 60, 135, 135, 60, 129, 57, 3, 0.484649
151, 2, bw, attraction, a-b-db, 9, 1, 6, 36, 60, 135, 135, 60, 57, 129, 2, 0.911096
151, 2, bw, attraction, a-b-db, 9, 1, 6, 36, 60, 135, 135, 60, 57, 129, 3, 0.625534
151, 2, bw, attraction, a-b-db, 5, 1, 6, 37, 135, 60, 60, 135, 58, 132, 2, 0.861831
151, 2, bw, attraction, a-b-db, 5, 1, 6, 37, 135, 60, 60, 135, 58, 132, 3, 0.522289
151, 2, bw, attraction, a-b-da, 9, 3, 7, 1, 186, 114, 120, 195, 195, 120, 2, 0.923295
151, 2, bw, attraction, a-b-da, 9, 3, 7, 1, 186, 114, 120, 195, 195, 120, 3, 0.308964
151, 2, bw, attraction, a-b-da, 5, 2, 7, 2, 165, 90, 90, 165, 161, 88, 2, 0.926148
151, 2, bw, attraction, a-b-da, 5, 2, 7, 2, 165, 90, 90, 165, 161, 88, 3, 0.335951
151, 2, bw, attraction, a-b-db, 9, 2, 7, 3, 165, 90, 86, 157, 90, 165, 3, 0.856368
151, 2, bw, attraction, a-b-db, 9, 2, 7, 3, 165, 90, 86, 157, 90, 165, 2, 0.292721
151, 2, bw, catch, NA, 999, 999, 7, 4, 114, 81, 108, 147, 180, 135, 3, 1.27875
151, 2, bw, catch, NA, 999, 999, 7, 4, 114, 81, 108, 147, 180, 135, 1, 0.442131
151, 2, bw, filler, NA, 999, 999, 7, 5, 68, 77, 190, 122, 119, 174, 3, 0.806126
151, 2, bw, filler, NA, 999, 999, 7, 5, 68, 77, 190, 122, 119, 174, 1, 0.364385
151, 2, bw, attraction, a-b-da, 9, 2, 7, 6, 157, 86, 90, 165, 165, 90, 1, 0.803574
151, 2, bw, attraction, a-b-da, 9, 2, 7, 6, 157, 86, 90, 165, 165, 90, 2, 0.273871
151, 2, bw, attraction, a-b-da, 14, 1, 7, 7, 135, 60, 125, 56, 60, 135, 3, 0.93243
151, 2, bw, attraction, a-b-da, 14, 1, 7, 7, 135, 60, 125, 56, 60, 135, 2, 0.574165
151, 2, bw, catch, NA, 999, 999, 7, 8, 148, 107, 169, 146, 66, 129, 2, 0.58058
151, 2, bw, catch, NA, 999, 999, 7, 8, 148, 107, 169, 146, 66, 129, 3, 0.452325
151, 2, bw, attraction, a-b-db, 9, 1, 7, 9, 135, 60, 57, 129, 60, 135, 2, 0.920101
151, 2, bw, attraction, a-b-db, 9, 1, 7, 9, 135, 60, 57, 129, 60, 135, 3, 0.258541
151, 2, bw, filler, NA, 999, 999, 7, 10, 97, 171, 68, 147, 164, 141, 3, 1.2217
151, 2, bw, filler, NA, 999, 999, 7, 10, 97, 171, 68, 147, 164, 141, 2, 0.339308
151, 2, bw, filler, NA, 999, 999, 7, 11, 78, 182, 166, 127, 114, 86, 2, 0.739759
151, 2, bw, filler, NA, 999, 999, 7, 11, 78, 182, 166, 127, 114, 86, 3, 0.396803
151, 2, bw, attraction, a-b-db, 9, 3, 7, 12, 114, 186, 120, 195, 195, 120, 3, 1.04265
151, 2, bw, attraction, a-b-db, 9, 3, 7, 12, 114, 186, 120, 195, 195, 120, 2, 1.27965
151, 2, bw, filler, NA, 999, 999, 7, 13, 85, 66, 127, 191, 180, 173, 3, 0.889874
151, 2, bw, filler, NA, 999, 999, 7, 13, 85, 66, 127, 191, 180, 173, 1, 0.548864
151, 2, bw, attraction, a-b-da, 2, 3, 7, 14, 120, 195, 193, 119, 195, 120, 1, 1.08466
151, 2, bw, attraction, a-b-da, 2, 3, 7, 14, 120, 195, 193, 119, 195, 120, 3, 0.408286
151, 2, bw, attraction, a-b-db, 14, 3, 7, 15, 195, 120, 111, 181, 120, 195, 2, 1.34145
151, 2, bw, attraction, a-b-db, 14, 3, 7, 15, 195, 120, 111, 181, 120, 195, 1, 0.510318
151, 2, bw, attraction, a-b-db, 2, 1, 7, 16, 60, 135, 59, 134, 135, 60, 2, 1.11945
151, 2, bw, attraction, a-b-db, 2, 1, 7, 16, 60, 135, 59, 134, 135, 60, 3, 0.313712
151, 2, bw, attraction, a-b-db, 5, 3, 7, 17, 117, 190, 120, 195, 195, 120, 2, 0.770959
151, 2, bw, attraction, a-b-db, 5, 3, 7, 17, 117, 190, 120, 195, 195, 120, 3, 0.346638
151, 2, bw, attraction, a-b-da, 5, 1, 7, 18, 132, 58, 60, 135, 135, 60, 2, 0.874599
151, 2, bw, attraction, a-b-da, 5, 1, 7, 18, 132, 58, 60, 135, 135, 60, 3, 0.390174
151, 2, bw, attraction, a-b-db, 14, 2, 7, 19, 90, 165, 83, 153, 165, 90, 2, 0.780094
151, 2, bw, attraction, a-b-db, 14, 2, 7, 19, 90, 165, 83, 153, 165, 90, 3, 0.331716
151, 2, bw, attraction, a-b-da, 5, 3, 7, 20, 190, 117, 195, 120, 120, 195, 2, 0.772344
151, 2, bw, attraction, a-b-da, 5, 3, 7, 20, 190, 117, 195, 120, 120, 195, 3, 0.275944
151, 2, bw, attraction, a-b-db, 5, 2, 7, 21, 165, 90, 90, 165, 88, 161, 2, 1.42243
151, 2, bw, attraction, a-b-db, 5, 2, 7, 21, 165, 90, 90, 165, 88, 161, 1, 0.811998
151, 2, bw, filler, NA, 999, 999, 7, 22, 147, 90, 145, 184, 155, 100, 2, 0.689004
151, 2, bw, filler, NA, 999, 999, 7, 22, 147, 90, 145, 184, 155, 100, 1, 0.392834
151, 2, bw, attraction, a-b-db, 2, 3, 7, 23, 195, 120, 120, 195, 119, 193, 2, 2.31393
151, 2, bw, attraction, a-b-db, 2, 3, 7, 23, 195, 120, 120, 195, 119, 193, 1, 0.595992
151, 2, bw, attraction, a-b-da, 14, 3, 7, 24, 181, 111, 120, 195, 195, 120, 2, 0.881542
151, 2, bw, attraction, a-b-da, 14, 3, 7, 24, 181, 111, 120, 195, 195, 120, 1, 0.349276
151, 2, bw, filler, NA, 999, 999, 7, 25, 193, 157, 60, 75, 134, 94, 1, 0.885072
151, 2, bw, filler, NA, 999, 999, 7, 25, 193, 157, 60, 75, 134, 94, 2, 0.536808
151, 2, bw, attraction, a-b-da, 9, 1, 7, 26, 60, 135, 135, 60, 129, 57, 2, 0.921267
151, 2, bw, attraction, a-b-da, 9, 1, 7, 26, 60, 135, 135, 60, 129, 57, 1, 0.466853
151, 2, bw, catch, NA, 999, 999, 7, 27, 153, 162, 81, 114, 126, 129, 1, 1.15004
151, 2, bw, catch, NA, 999, 999, 7, 27, 153, 162, 81, 114, 126, 129, 2, 0.343204
151, 2, bw, attraction, a-b-db, 14, 1, 7, 28, 56, 125, 60, 135, 135, 60, 2, 1.07877
151, 2, bw, attraction, a-b-db, 14, 1, 7, 28, 56, 125, 60, 135, 135, 60, 3, 0.914447
151, 2, bw, filler, NA, 999, 999, 7, 29, 140, 161, 125, 163, 60, 169, 2, 0.843474
151, 2, bw, filler, NA, 999, 999, 7, 29, 140, 161, 125, 163, 60, 169, 3, 0.336533
151, 2, bw, filler, NA, 999, 999, 7, 30, 195, 56, 65, 154, 96, 158, 3, 1.16103
151, 2, bw, filler, NA, 999, 999, 7, 30, 195, 56, 65, 154, 96, 158, 2, 0.457392
151, 2, bw, filler, NA, 999, 999, 7, 31, 120, 93, 109, 140, 149, 118, 2, 1.42838
151, 2, bw, filler, NA, 999, 999, 7, 31, 120, 93, 109, 140, 149, 118, 1, 0.458049
151, 2, bw, filler, NA, 999, 999, 7, 32, 104, 63, 152, 106, 84, 91, 2, 0.797178
151, 2, bw, filler, NA, 999, 999, 7, 32, 104, 63, 152, 106, 84, 91, 1, 1.66023
151, 2, bw, attraction, a-b-da, 2, 2, 7, 33, 165, 90, 90, 165, 163, 89, 2, 1.05498
151, 2, bw, attraction, a-b-da, 2, 2, 7, 33, 165, 90, 90, 165, 163, 89, 3, 0.475276
151, 2, bw, attraction, a-b-db, 5, 1, 7, 34, 58, 132, 60, 135, 135, 60, 2, 0.853598
151, 2, bw, attraction, a-b-db, 5, 1, 7, 34, 58, 132, 60, 135, 135, 60, 3, 1.09069
151, 2, bw, attraction, a-b-da, 14, 2, 7, 35, 153, 83, 165, 90, 90, 165, 2, 0.7083
151, 2, bw, attraction, a-b-da, 14, 2, 7, 35, 153, 83, 165, 90, 90, 165, 1, 1.09488
151, 2, bw, attraction, a-b-da, 2, 1, 7, 36, 134, 59, 60, 135, 135, 60, 2, 0.912303
151, 2, bw, attraction, a-b-da, 2, 1, 7, 36, 134, 59, 60, 135, 135, 60, 3, 0.738749
151, 2, bw, attraction, a-b-db, 2, 2, 7, 37, 165, 90, 89, 163, 90, 165, 2, 0.659033
151, 2, bw, attraction, a-b-db, 2, 2, 7, 37, 165, 90, 89, 163, 90, 165, 1, 0.511464
151, 2, bw, attraction, a-b-da, 14, 3, 8, 1, 181, 111, 120, 195, 195, 120, 2, 0.632582
151, 2, bw, attraction, a-b-da, 14, 3, 8, 1, 181, 111, 120, 195, 195, 120, 1, 0.686402
151, 2, bw, attraction, a-b-da, 9, 3, 8, 2, 195, 120, 120, 195, 186, 114, 2, 0.648794
151, 2, bw, attraction, a-b-da, 9, 3, 8, 2, 195, 120, 120, 195, 186, 114, 1, 0.5339
151, 2, bw, filler, NA, 999, 999, 8, 3, 134, 65, 67, 149, 118, 178, 3, 0.878326
151, 2, bw, filler, NA, 999, 999, 8, 3, 134, 65, 67, 149, 118, 178, 1, 0.746058
151, 2, bw, attraction, a-b-db, 9, 2, 8, 4, 165, 90, 86, 157, 90, 165, 2, 0.90576
151, 2, bw, attraction, a-b-db, 9, 2, 8, 4, 165, 90, 86, 157, 90, 165, 1, 0.700125
151, 2, bw, attraction, a-b-db, 5, 2, 8, 5, 165, 90, 90, 165, 88, 161, 2, 0.933839
151, 2, bw, attraction, a-b-db, 5, 2, 8, 5, 165, 90, 90, 165, 88, 161, 1, 0.495514
151, 2, bw, attraction, a-b-db, 14, 3, 8, 6, 195, 120, 120, 195, 111, 181, 2, 0.625409
151, 2, bw, attraction, a-b-db, 14, 3, 8, 6, 195, 120, 120, 195, 111, 181, 3, 0.815055
151, 2, bw, filler, NA, 999, 999, 8, 7, 183, 130, 156, 105, 100, 171, 1, 1.53216
151, 2, bw, filler, NA, 999, 999, 8, 7, 183, 130, 156, 105, 100, 171, 2, 0.317632
151, 2, bw, catch, NA, 999, 999, 8, 8, 133, 182, 101, 94, 105, 150, 1, 0.870797
151, 2, bw, catch, NA, 999, 999, 8, 8, 133, 182, 101, 94, 105, 150, 2, 0.299199
151, 2, bw, filler, NA, 999, 999, 8, 9, 65, 187, 110, 117, 62, 153, 2, 1.47697
151, 2, bw, filler, NA, 999, 999, 8, 9, 65, 187, 110, 117, 62, 153, 3, 0.888464
151, 2, bw, attraction, a-b-db, 9, 1, 8, 10, 57, 129, 60, 135, 135, 60, 2, 1.41088
151, 2, bw, attraction, a-b-db, 9, 1, 8, 10, 57, 129, 60, 135, 135, 60, 3, 0.60107
151, 2, bw, filler, NA, 999, 999, 8, 11, 109, 112, 138, 77, 81, 72, 2, 0.662813
151, 2, bw, filler, NA, 999, 999, 8, 11, 109, 112, 138, 77, 81, 72, 3, 0.587281
151, 2, bw, catch, NA, 999, 999, 8, 12, 138, 177, 128, 67, 101, 154, 1, 1.12959
151, 2, bw, catch, NA, 999, 999, 8, 12, 138, 177, 128, 67, 101, 154, 2, 0.331273
151, 2, bw, attraction, a-b-db, 14, 2, 8, 13, 83, 153, 90, 165, 165, 90, 2, 1.06781
151, 2, bw, attraction, a-b-db, 14, 2, 8, 13, 83, 153, 90, 165, 165, 90, 3, 0.56805
151, 2, bw, attraction, a-b-da, 5, 2, 8, 14, 165, 90, 161, 88, 90, 165, 3, 1.0231
151, 2, bw, attraction, a-b-da, 5, 2, 8, 14, 165, 90, 161, 88, 90, 165, 2, 0.260737
151, 2, bw, attraction, a-b-da, 2, 1, 8, 15, 135, 60, 134, 59, 60, 135, 3, 1.90392
151, 2, bw, attraction, a-b-da, 2, 1, 8, 15, 135, 60, 134, 59, 60, 135, 2, 0.354676
151, 2, bw, attraction, a-b-da, 14, 2, 8, 16, 153, 83, 165, 90, 90, 165, 2, 0.554534
151, 2, bw, attraction, a-b-da, 14, 2, 8, 16, 153, 83, 165, 90, 90, 165, 1, 0.363023
151, 2, bw, attraction, a-b-db, 9, 3, 8, 17, 114, 186, 120, 195, 195, 120, 3, 0.674195
151, 2, bw, attraction, a-b-db, 9, 3, 8, 17, 114, 186, 120, 195, 195, 120, 2, 0.341922
151, 2, bw, attraction, a-b-db, 5, 1, 8, 18, 60, 135, 58, 132, 135, 60, 2, 0.845775
151, 2, bw, attraction, a-b-db, 5, 1, 8, 18, 60, 135, 58, 132, 135, 60, 3, 0.666833
151, 2, bw, attraction, a-b-da, 2, 2, 8, 19, 163, 89, 165, 90, 90, 165, 2, 0.773837
151, 2, bw, attraction, a-b-da, 2, 2, 8, 19, 163, 89, 165, 90, 90, 165, 1, 0.741603
151, 2, bw, attraction, a-b-db, 2, 1, 8, 20, 135, 60, 60, 135, 59, 134, 2, 0.749357
151, 2, bw, attraction, a-b-db, 2, 1, 8, 20, 135, 60, 60, 135, 59, 134, 1, 0.454374
151, 2, bw, filler, NA, 999, 999, 8, 21, 111, 134, 117, 190, 149, 68, 2, 0.57816
151, 2, bw, filler, NA, 999, 999, 8, 21, 111, 134, 117, 190, 149, 68, 3, 0.553986
151, 2, bw, attraction, a-b-db, 2, 2, 8, 22, 89, 163, 90, 165, 165, 90, 2, 0.929668
151, 2, bw, attraction, a-b-db, 2, 2, 8, 22, 89, 163, 90, 165, 165, 90, 3, 0.515464
151, 2, bw, attraction, a-b-da, 9, 1, 8, 23, 135, 60, 60, 135, 129, 57, 2, 0.83655
151, 2, bw, attraction, a-b-da, 9, 1, 8, 23, 135, 60, 60, 135, 129, 57, 3, 0.385675
151, 2, bw, attraction, a-b-da, 9, 2, 8, 24, 90, 165, 165, 90, 157, 86, 1, 2.0321
151, 2, bw, attraction, a-b-da, 9, 2, 8, 24, 90, 165, 165, 90, 157, 86, 2, 0.541392
151, 2, bw, filler, NA, 999, 999, 8, 25, 130, 167, 177, 63, 195, 157, 3, 1.19712
151, 2, bw, filler, NA, 999, 999, 8, 25, 130, 167, 177, 63, 195, 157, 2, 0.62008
151, 2, bw, filler, NA, 999, 999, 8, 26, 152, 116, 93, 103, 61, 67, 1, 0.769153
151, 2, bw, filler, NA, 999, 999, 8, 26, 152, 116, 93, 103, 61, 67, 3, 0.681582
151, 2, bw, attraction, a-b-da, 14, 1, 8, 27, 135, 60, 60, 135, 125, 56, 1, 0.955405
151, 2, bw, attraction, a-b-da, 14, 1, 8, 27, 135, 60, 60, 135, 125, 56, 2, 0.612328
151, 2, bw, attraction, a-b-da, 2, 3, 8, 28, 195, 120, 193, 119, 120, 195, 3, 1.40941
151, 2, bw, attraction, a-b-da, 2, 3, 8, 28, 195, 120, 193, 119, 120, 195, 2, 0.310117
151, 2, bw, attraction, a-b-db, 14, 1, 8, 29, 60, 135, 135, 60, 56, 125, 1, 0.840797
151, 2, bw, attraction, a-b-db, 14, 1, 8, 29, 60, 135, 135, 60, 56, 125, 2, 0.573812
151, 2, bw, attraction, a-b-db, 5, 3, 8, 30, 117, 190, 195, 120, 120, 195, 3, 0.580271
151, 2, bw, attraction, a-b-db, 5, 3, 8, 30, 117, 190, 195, 120, 120, 195, 2, 0.228041
151, 2, bw, attraction, a-b-db, 2, 3, 8, 31, 120, 195, 195, 120, 119, 193, 3, 0.54458
151, 2, bw, attraction, a-b-db, 2, 3, 8, 31, 120, 195, 195, 120, 119, 193, 2, 0.257791
151, 2, bw, filler, NA, 999, 999, 8, 32, 172, 91, 132, 99, 165, 184, 3, 0.860966
151, 2, bw, filler, NA, 999, 999, 8, 32, 172, 91, 132, 99, 165, 184, 2, 0.225323
151, 2, bw, filler, NA, 999, 999, 8, 33, 57, 90, 137, 179, 136, 147, 2, 0.685895
151, 2, bw, filler, NA, 999, 999, 8, 33, 57, 90, 137, 179, 136, 147, 1, 0.344005
151, 2, bw, attraction, a-b-da, 5, 1, 8, 34, 60, 135, 132, 58, 135, 60, 1, 0.817361
151, 2, bw, attraction, a-b-da, 5, 1, 8, 34, 60, 135, 132, 58, 135, 60, 2, 0.223821
151, 2, bw, filler, NA, 999, 999, 8, 35, 187, 99, 192, 170, 142, 158, 2, 0.772348
151, 2, bw, filler, NA, 999, 999, 8, 35, 187, 99, 192, 170, 142, 158, 1, 0.22008
151, 2, bw, attraction, a-b-da, 5, 3, 8, 36, 195, 120, 120, 195, 190, 117, 2, 0.897263
151, 2, bw, attraction, a-b-da, 5, 3, 8, 36, 195, 120, 120, 195, 190, 117, 1, 0.380337
151, 2, bw, catch, NA, 999, 999, 8, 37, 107, 88, 137, 178, 112, 143, 2, 0.490781
151, 2, bw, catch, NA, 999, 999, 8, 37, 107, 88, 137, 178, 112, 143, 1, 0.830025
