sub_n, computer_n, bw_cond, effect, set, distance, diag, block_n, trial_n, h1, w1, h2, w2, h3, w3, choice, rt 
172, 2, wb, practice, NA, 999, 999, 0, 1, 133, 149, 103, 128, 125, 172, 2, 4.80054
172, 2, wb, practice, NA, 999, 999, 0, 1, 133, 149, 103, 128, 125, 172, 3, 6.50459
172, 2, wb, practice, NA, 999, 999, 0, 2, 82, 77, 181, 190, 166, 179, 1, 3.54799
172, 2, wb, practice, NA, 999, 999, 0, 2, 82, 77, 181, 190, 166, 179, 2, 2.24417
172, 2, wb, practice, NA, 999, 999, 0, 3, 125, 85, 73, 149, 194, 122, 1, 5.06668
172, 2, wb, practice, NA, 999, 999, 0, 3, 125, 85, 73, 149, 194, 122, 3, 1.92747
172, 2, wb, filler, NA, 999, 999, 1, 1, 189, 98, 116, 166, 136, 111, 3, 3.35984
172, 2, wb, filler, NA, 999, 999, 1, 1, 189, 98, 116, 166, 136, 111, 1, 10.4795
172, 2, wb, filler, NA, 999, 999, 1, 2, 159, 82, 168, 95, 68, 122, 3, 1.8067
172, 2, wb, filler, NA, 999, 999, 1, 2, 159, 82, 168, 95, 68, 122, 2, 1.12477
172, 2, wb, attraction, a-b-db, 14, 3, 1, 3, 195, 120, 120, 195, 111, 181, 3, 7.30118
172, 2, wb, attraction, a-b-db, 14, 3, 1, 3, 195, 120, 120, 195, 111, 181, 2, 3.9742
172, 2, wb, attraction, a-b-db, 5, 3, 1, 4, 120, 195, 195, 120, 117, 190, 2, 5.14012
172, 2, wb, attraction, a-b-db, 5, 3, 1, 4, 120, 195, 195, 120, 117, 190, 3, 1.37993
172, 2, wb, attraction, a-b-db, 2, 1, 1, 5, 60, 135, 59, 134, 135, 60, 3, 4.67401
172, 2, wb, attraction, a-b-db, 2, 1, 1, 5, 60, 135, 59, 134, 135, 60, 2, 1.70846
172, 2, wb, attraction, a-b-da, 14, 3, 1, 6, 120, 195, 195, 120, 181, 111, 3, 2.58132
172, 2, wb, attraction, a-b-da, 14, 3, 1, 6, 120, 195, 195, 120, 181, 111, 1, 1.33238
172, 2, wb, catch, NA, 999, 999, 1, 7, 161, 94, 102, 93, 195, 120, 2, 2.21258
172, 2, wb, catch, NA, 999, 999, 1, 7, 161, 94, 102, 93, 195, 120, 3, 1.02663
172, 2, wb, attraction, a-b-da, 2, 1, 1, 8, 135, 60, 134, 59, 60, 135, 1, 3.95075
172, 2, wb, attraction, a-b-da, 2, 1, 1, 8, 135, 60, 134, 59, 60, 135, 3, 0.894852
172, 2, wb, attraction, a-b-da, 5, 2, 1, 9, 90, 165, 165, 90, 161, 88, 2, 3.70464
172, 2, wb, attraction, a-b-da, 5, 2, 1, 9, 90, 165, 165, 90, 161, 88, 1, 0.85806
172, 2, wb, attraction, a-b-da, 2, 2, 1, 10, 90, 165, 165, 90, 163, 89, 2, 2.77326
172, 2, wb, attraction, a-b-da, 2, 2, 1, 10, 90, 165, 165, 90, 163, 89, 3, 0.74815
172, 2, wb, attraction, a-b-db, 5, 2, 1, 11, 165, 90, 88, 161, 90, 165, 2, 2.56391
172, 2, wb, attraction, a-b-db, 5, 2, 1, 11, 165, 90, 88, 161, 90, 165, 3, 1.65174
172, 2, wb, filler, NA, 999, 999, 1, 12, 90, 95, 191, 89, 154, 102, 1, 1.27113
172, 2, wb, filler, NA, 999, 999, 1, 12, 90, 95, 191, 89, 154, 102, 2, 1.41878
172, 2, wb, attraction, a-b-db, 2, 2, 1, 13, 89, 163, 165, 90, 90, 165, 1, 3.05557
172, 2, wb, attraction, a-b-db, 2, 2, 1, 13, 89, 163, 165, 90, 90, 165, 2, 0.923156
172, 2, wb, attraction, a-b-db, 9, 2, 1, 14, 86, 157, 165, 90, 90, 165, 1, 2.65164
172, 2, wb, attraction, a-b-db, 9, 2, 1, 14, 86, 157, 165, 90, 90, 165, 2, 0.880089
172, 2, wb, attraction, a-b-da, 14, 1, 1, 15, 125, 56, 60, 135, 135, 60, 1, 1.98637
172, 2, wb, attraction, a-b-da, 14, 1, 1, 15, 125, 56, 60, 135, 135, 60, 2, 3.8577
172, 2, wb, attraction, a-b-da, 9, 1, 1, 16, 135, 60, 129, 57, 60, 135, 3, 2.85974
172, 2, wb, attraction, a-b-da, 9, 1, 1, 16, 135, 60, 129, 57, 60, 135, 2, 0.975453
172, 2, wb, attraction, a-b-db, 5, 1, 1, 17, 60, 135, 135, 60, 58, 132, 1, 1.68577
172, 2, wb, attraction, a-b-db, 5, 1, 1, 17, 60, 135, 135, 60, 58, 132, 3, 1.0572
172, 2, wb, filler, NA, 999, 999, 1, 18, 59, 152, 159, 155, 90, 144, 1, 1.32424
172, 2, wb, filler, NA, 999, 999, 1, 18, 59, 152, 159, 155, 90, 144, 2, 0.901783
172, 2, wb, attraction, a-b-db, 2, 3, 1, 19, 119, 193, 120, 195, 195, 120, 1, 2.0554
172, 2, wb, attraction, a-b-db, 2, 3, 1, 19, 119, 193, 120, 195, 195, 120, 3, 3.54749
172, 2, wb, attraction, a-b-da, 5, 3, 1, 20, 120, 195, 190, 117, 195, 120, 1, 2.62618
172, 2, wb, attraction, a-b-da, 5, 3, 1, 20, 120, 195, 190, 117, 195, 120, 3, 1.69536
172, 2, wb, filler, NA, 999, 999, 1, 21, 71, 140, 147, 81, 157, 98, 1, 1.24884
172, 2, wb, filler, NA, 999, 999, 1, 21, 71, 140, 147, 81, 157, 98, 3, 0.813667
172, 2, wb, filler, NA, 999, 999, 1, 22, 118, 134, 184, 60, 188, 188, 2, 9.20268
172, 2, wb, filler, NA, 999, 999, 1, 22, 118, 134, 184, 60, 188, 188, 3, 1.07919
172, 2, wb, attraction, a-b-db, 9, 1, 1, 23, 57, 129, 135, 60, 60, 135, 2, 2.10549
172, 2, wb, attraction, a-b-db, 9, 1, 1, 23, 57, 129, 135, 60, 60, 135, 3, 0.963476
172, 2, wb, catch, NA, 999, 999, 1, 24, 193, 122, 74, 121, 133, 122, 2, 1.61046
172, 2, wb, catch, NA, 999, 999, 1, 24, 193, 122, 74, 121, 133, 122, 1, 0.776513
172, 2, wb, attraction, a-b-da, 9, 3, 1, 25, 186, 114, 195, 120, 120, 195, 2, 7.19088
172, 2, wb, attraction, a-b-da, 9, 3, 1, 25, 186, 114, 195, 120, 120, 195, 3, 1.37192
172, 2, wb, attraction, a-b-db, 14, 2, 1, 26, 90, 165, 83, 153, 165, 90, 2, 3.0908
172, 2, wb, attraction, a-b-db, 14, 2, 1, 26, 90, 165, 83, 153, 165, 90, 3, 1.38108
172, 2, wb, attraction, a-b-da, 9, 2, 1, 27, 157, 86, 165, 90, 90, 165, 1, 4.63537
172, 2, wb, attraction, a-b-da, 9, 2, 1, 27, 157, 86, 165, 90, 90, 165, 3, 0.767856
172, 2, wb, attraction, a-b-da, 2, 3, 1, 28, 195, 120, 193, 119, 120, 195, 2, 3.36697
172, 2, wb, attraction, a-b-da, 2, 3, 1, 28, 195, 120, 193, 119, 120, 195, 3, 0.47855
172, 2, wb, filler, NA, 999, 999, 1, 29, 102, 70, 76, 194, 148, 156, 1, 0.744903
172, 2, wb, filler, NA, 999, 999, 1, 29, 102, 70, 76, 194, 148, 156, 3, 0.818101
172, 2, wb, attraction, a-b-da, 5, 1, 1, 30, 132, 58, 135, 60, 60, 135, 1, 2.43103
172, 2, wb, attraction, a-b-da, 5, 1, 1, 30, 132, 58, 135, 60, 60, 135, 3, 1.08435
172, 2, wb, filler, NA, 999, 999, 1, 31, 67, 111, 115, 146, 92, 195, 1, 1.40654
172, 2, wb, filler, NA, 999, 999, 1, 31, 67, 111, 115, 146, 92, 195, 3, 0.812717
172, 2, wb, catch, NA, 999, 999, 1, 32, 177, 138, 64, 131, 161, 94, 2, 1.72168
172, 2, wb, catch, NA, 999, 999, 1, 32, 177, 138, 64, 131, 161, 94, 1, 0.491101
172, 2, wb, attraction, a-b-db, 9, 3, 1, 33, 114, 186, 120, 195, 195, 120, 1, 1.61302
172, 2, wb, attraction, a-b-db, 9, 3, 1, 33, 114, 186, 120, 195, 195, 120, 2, 5.41912
172, 2, wb, attraction, a-b-db, 14, 1, 1, 34, 60, 135, 56, 125, 135, 60, 2, 3.84663
172, 2, wb, attraction, a-b-db, 14, 1, 1, 34, 60, 135, 56, 125, 135, 60, 3, 3.37883
172, 2, wb, filler, NA, 999, 999, 1, 35, 56, 191, 178, 186, 132, 136, 1, 2.46436
172, 2, wb, filler, NA, 999, 999, 1, 35, 56, 191, 178, 186, 132, 136, 2, 1.17215
172, 2, wb, attraction, a-b-da, 14, 2, 1, 36, 153, 83, 90, 165, 165, 90, 1, 3.30701
172, 2, wb, attraction, a-b-da, 14, 2, 1, 36, 153, 83, 90, 165, 165, 90, 2, 0.748672
172, 2, wb, filler, NA, 999, 999, 1, 37, 145, 119, 138, 110, 63, 65, 3, 1.14042
172, 2, wb, filler, NA, 999, 999, 1, 37, 145, 119, 138, 110, 63, 65, 1, 1.94932
172, 2, wb, attraction, a-b-db, 2, 3, 2, 1, 120, 195, 195, 120, 119, 193, 1, 4.93264
172, 2, wb, attraction, a-b-db, 2, 3, 2, 1, 120, 195, 195, 120, 119, 193, 2, 0.533082
172, 2, wb, attraction, a-b-da, 2, 2, 2, 2, 165, 90, 163, 89, 90, 165, 3, 2.53364
172, 2, wb, attraction, a-b-da, 2, 2, 2, 2, 165, 90, 163, 89, 90, 165, 2, 1.25478
172, 2, wb, attraction, a-b-db, 5, 1, 2, 3, 58, 132, 60, 135, 135, 60, 1, 4.47432
172, 2, wb, attraction, a-b-db, 5, 1, 2, 3, 58, 132, 60, 135, 135, 60, 3, 1.52504
172, 2, wb, catch, NA, 999, 999, 2, 4, 142, 113, 96, 99, 156, 159, 2, 3.00497
172, 2, wb, catch, NA, 999, 999, 2, 4, 142, 113, 96, 99, 156, 159, 3, 0.522702
172, 2, wb, attraction, a-b-da, 5, 1, 2, 5, 135, 60, 132, 58, 60, 135, 1, 1.55515
172, 2, wb, attraction, a-b-da, 5, 1, 2, 5, 135, 60, 132, 58, 60, 135, 2, 0.723335
172, 2, wb, filler, NA, 999, 999, 2, 6, 94, 168, 172, 161, 119, 127, 1, 2.53162
172, 2, wb, filler, NA, 999, 999, 2, 6, 94, 168, 172, 161, 119, 127, 2, 0.876873
172, 2, wb, attraction, a-b-da, 5, 3, 2, 7, 195, 120, 190, 117, 120, 195, 1, 2.84717
172, 2, wb, attraction, a-b-da, 5, 3, 2, 7, 195, 120, 190, 117, 120, 195, 3, 0.539612
172, 2, wb, attraction, a-b-db, 14, 2, 2, 8, 165, 90, 90, 165, 83, 153, 1, 2.68332
172, 2, wb, attraction, a-b-db, 14, 2, 2, 8, 165, 90, 90, 165, 83, 153, 2, 0.510438
172, 2, wb, attraction, a-b-db, 9, 2, 2, 9, 86, 157, 90, 165, 165, 90, 1, 1.00757
172, 2, wb, attraction, a-b-db, 9, 2, 2, 9, 86, 157, 90, 165, 165, 90, 2, 2.87804
172, 2, wb, attraction, a-b-da, 9, 2, 2, 10, 157, 86, 90, 165, 165, 90, 1, 5.19183
172, 2, wb, attraction, a-b-da, 9, 2, 2, 10, 157, 86, 90, 165, 165, 90, 2, 3.22933
172, 2, wb, attraction, a-b-db, 2, 1, 2, 11, 135, 60, 60, 135, 59, 134, 1, 4.56095
172, 2, wb, attraction, a-b-db, 2, 1, 2, 11, 135, 60, 60, 135, 59, 134, 2, 1.1298
172, 2, wb, filler, NA, 999, 999, 2, 12, 186, 84, 141, 63, 81, 57, 3, 1.49644
172, 2, wb, filler, NA, 999, 999, 2, 12, 186, 84, 141, 63, 81, 57, 1, 2.09119
172, 2, wb, attraction, a-b-da, 5, 2, 2, 13, 161, 88, 90, 165, 165, 90, 1, 3.16444
172, 2, wb, attraction, a-b-da, 5, 2, 2, 13, 161, 88, 90, 165, 165, 90, 3, 1.39627
172, 2, wb, attraction, a-b-db, 5, 3, 2, 14, 120, 195, 195, 120, 117, 190, 1, 2.42576
172, 2, wb, attraction, a-b-db, 5, 3, 2, 14, 120, 195, 195, 120, 117, 190, 2, 1.00695
172, 2, wb, attraction, a-b-db, 14, 3, 2, 15, 120, 195, 195, 120, 111, 181, 1, 1.41189
172, 2, wb, attraction, a-b-db, 14, 3, 2, 15, 120, 195, 195, 120, 111, 181, 2, 1.04203
172, 2, wb, catch, NA, 999, 999, 2, 16, 136, 179, 78, 117, 90, 165, 2, 1.4616
172, 2, wb, catch, NA, 999, 999, 2, 16, 136, 179, 78, 117, 90, 165, 1, 1.16989
172, 2, wb, filler, NA, 999, 999, 2, 17, 123, 117, 97, 83, 91, 92, 3, 3.98471
172, 2, wb, filler, NA, 999, 999, 2, 17, 123, 117, 97, 83, 91, 92, 1, 0.791566
172, 2, wb, attraction, a-b-da, 2, 1, 2, 18, 60, 135, 134, 59, 135, 60, 1, 1.62913
172, 2, wb, attraction, a-b-da, 2, 1, 2, 18, 60, 135, 134, 59, 135, 60, 3, 0.738705
172, 2, wb, attraction, a-b-db, 9, 3, 2, 19, 114, 186, 195, 120, 120, 195, 2, 1.13905
172, 2, wb, attraction, a-b-db, 9, 3, 2, 19, 114, 186, 195, 120, 120, 195, 1, 0.756016
172, 2, wb, attraction, a-b-da, 14, 2, 2, 20, 90, 165, 153, 83, 165, 90, 2, 1.45976
172, 2, wb, attraction, a-b-da, 14, 2, 2, 20, 90, 165, 153, 83, 165, 90, 1, 0.319856
172, 2, wb, attraction, a-b-da, 14, 3, 2, 21, 181, 111, 120, 195, 195, 120, 1, 1.28103
172, 2, wb, attraction, a-b-da, 14, 3, 2, 21, 181, 111, 120, 195, 195, 120, 2, 0.388617
172, 2, wb, attraction, a-b-da, 14, 1, 2, 22, 60, 135, 125, 56, 135, 60, 1, 0.859161
172, 2, wb, attraction, a-b-da, 14, 1, 2, 22, 60, 135, 125, 56, 135, 60, 2, 0.471473
172, 2, wb, attraction, a-b-da, 9, 3, 2, 23, 195, 120, 186, 114, 120, 195, 3, 1.05059
172, 2, wb, attraction, a-b-da, 9, 3, 2, 23, 195, 120, 186, 114, 120, 195, 2, 0.679661
172, 2, wb, filler, NA, 999, 999, 2, 24, 119, 75, 120, 124, 194, 100, 1, 0.849984
172, 2, wb, filler, NA, 999, 999, 2, 24, 119, 75, 120, 124, 194, 100, 2, 0.551042
172, 2, wb, filler, NA, 999, 999, 2, 25, 63, 67, 149, 77, 122, 89, 1, 0.710779
172, 2, wb, filler, NA, 999, 999, 2, 25, 63, 67, 149, 77, 122, 89, 2, 1.0894
172, 2, wb, attraction, a-b-db, 2, 2, 2, 26, 89, 163, 90, 165, 165, 90, 1, 0.858915
172, 2, wb, attraction, a-b-db, 2, 2, 2, 26, 89, 163, 90, 165, 165, 90, 2, 0.447192
172, 2, wb, attraction, a-b-da, 9, 1, 2, 27, 135, 60, 60, 135, 129, 57, 1, 1.25896
172, 2, wb, attraction, a-b-da, 9, 1, 2, 27, 135, 60, 60, 135, 129, 57, 2, 0.543235
172, 2, wb, attraction, a-b-da, 2, 3, 2, 28, 195, 120, 193, 119, 120, 195, 3, 1.39913
172, 2, wb, attraction, a-b-da, 2, 3, 2, 28, 195, 120, 193, 119, 120, 195, 2, 1.01393
172, 2, wb, attraction, a-b-db, 14, 1, 2, 29, 135, 60, 60, 135, 56, 125, 1, 2.73083
172, 2, wb, attraction, a-b-db, 14, 1, 2, 29, 135, 60, 60, 135, 56, 125, 2, 0.574048
172, 2, wb, filler, NA, 999, 999, 2, 30, 115, 168, 123, 72, 165, 180, 1, 1.01838
172, 2, wb, filler, NA, 999, 999, 2, 30, 115, 168, 123, 72, 165, 180, 2, 0.624689
172, 2, wb, filler, NA, 999, 999, 2, 31, 176, 194, 92, 113, 75, 61, 3, 1.25429
172, 2, wb, filler, NA, 999, 999, 2, 31, 176, 194, 92, 113, 75, 61, 1, 0.84138
172, 2, wb, filler, NA, 999, 999, 2, 32, 176, 128, 124, 117, 136, 96, 3, 3.06914
172, 2, wb, filler, NA, 999, 999, 2, 32, 176, 128, 124, 117, 136, 96, 1, 0.78466
172, 2, wb, catch, NA, 999, 999, 2, 33, 119, 76, 171, 144, 104, 151, 1, 0.895112
172, 2, wb, catch, NA, 999, 999, 2, 33, 119, 76, 171, 144, 104, 151, 2, 0.754102
172, 2, wb, attraction, a-b-db, 5, 2, 2, 34, 90, 165, 88, 161, 165, 90, 1, 2.50581
172, 2, wb, attraction, a-b-db, 5, 2, 2, 34, 90, 165, 88, 161, 165, 90, 2, 0.723746
172, 2, wb, filler, NA, 999, 999, 2, 35, 185, 70, 165, 86, 64, 80, 3, 0.732058
172, 2, wb, filler, NA, 999, 999, 2, 35, 185, 70, 165, 86, 64, 80, 2, 1.14979
172, 2, wb, filler, NA, 999, 999, 2, 36, 104, 187, 181, 183, 148, 112, 1, 1.09337
172, 2, wb, filler, NA, 999, 999, 2, 36, 104, 187, 181, 183, 148, 112, 2, 0.568458
172, 2, wb, attraction, a-b-db, 9, 1, 2, 37, 135, 60, 60, 135, 57, 129, 1, 1.36737
172, 2, wb, attraction, a-b-db, 9, 1, 2, 37, 135, 60, 60, 135, 57, 129, 2, 0.559801
172, 2, wb, attraction, a-b-db, 14, 3, 3, 1, 120, 195, 195, 120, 111, 181, 3, 0.870741
172, 2, wb, attraction, a-b-db, 14, 3, 3, 1, 120, 195, 195, 120, 111, 181, 2, 0.570451
172, 2, wb, attraction, a-b-da, 5, 3, 3, 2, 195, 120, 190, 117, 120, 195, 1, 0.897483
172, 2, wb, attraction, a-b-da, 5, 3, 3, 2, 195, 120, 190, 117, 120, 195, 2, 0.564555
172, 2, wb, attraction, a-b-db, 5, 2, 3, 3, 165, 90, 90, 165, 88, 161, 1, 1.36361
172, 2, wb, attraction, a-b-db, 5, 2, 3, 3, 165, 90, 90, 165, 88, 161, 2, 0.555969
172, 2, wb, filler, NA, 999, 999, 3, 4, 176, 139, 149, 100, 158, 182, 2, 1.39499
172, 2, wb, filler, NA, 999, 999, 3, 4, 176, 139, 149, 100, 158, 182, 3, 1.24984
172, 2, wb, attraction, a-b-db, 5, 1, 3, 5, 58, 132, 135, 60, 60, 135, 2, 1.77338
172, 2, wb, attraction, a-b-db, 5, 1, 3, 5, 58, 132, 135, 60, 60, 135, 3, 0.716817
172, 2, wb, attraction, a-b-db, 5, 3, 3, 6, 117, 190, 195, 120, 120, 195, 2, 0.725901
172, 2, wb, attraction, a-b-db, 5, 3, 3, 6, 117, 190, 195, 120, 120, 195, 3, 1.41567
172, 2, wb, attraction, a-b-da, 14, 3, 3, 7, 195, 120, 181, 111, 120, 195, 2, 0.924471
172, 2, wb, attraction, a-b-da, 14, 3, 3, 7, 195, 120, 181, 111, 120, 195, 1, 0.60616
172, 2, wb, catch, NA, 999, 999, 3, 8, 184, 131, 133, 122, 68, 127, 3, 0.995235
172, 2, wb, catch, NA, 999, 999, 3, 8, 184, 131, 133, 122, 68, 127, 1, 0.794286
172, 2, wb, filler, NA, 999, 999, 3, 9, 68, 152, 185, 193, 100, 165, 1, 0.903945
172, 2, wb, filler, NA, 999, 999, 3, 9, 68, 152, 185, 193, 100, 165, 2, 0.498353
172, 2, wb, filler, NA, 999, 999, 3, 10, 132, 107, 144, 101, 130, 176, 1, 1.796
172, 2, wb, filler, NA, 999, 999, 3, 10, 132, 107, 144, 101, 130, 176, 2, 0.490908
172, 2, wb, attraction, a-b-da, 2, 2, 3, 11, 165, 90, 90, 165, 163, 89, 3, 1.71653
172, 2, wb, attraction, a-b-da, 2, 2, 3, 11, 165, 90, 90, 165, 163, 89, 2, 0.679108
172, 2, wb, attraction, a-b-db, 14, 2, 3, 12, 90, 165, 83, 153, 165, 90, 1, 1.16101
172, 2, wb, attraction, a-b-db, 14, 2, 3, 12, 90, 165, 83, 153, 165, 90, 3, 0.497379
172, 2, wb, attraction, a-b-da, 9, 3, 3, 13, 120, 195, 186, 114, 195, 120, 3, 1.67511
172, 2, wb, attraction, a-b-da, 9, 3, 3, 13, 120, 195, 186, 114, 195, 120, 1, 0.526649
172, 2, wb, attraction, a-b-da, 14, 1, 3, 14, 125, 56, 135, 60, 60, 135, 2, 1.09498
172, 2, wb, attraction, a-b-da, 14, 1, 3, 14, 125, 56, 135, 60, 60, 135, 1, 0.569936
172, 2, wb, catch, NA, 999, 999, 3, 15, 104, 151, 113, 82, 186, 129, 2, 0.74507
172, 2, wb, catch, NA, 999, 999, 3, 15, 104, 151, 113, 82, 186, 129, 3, 0.482122
172, 2, wb, attraction, a-b-db, 2, 1, 3, 16, 60, 135, 135, 60, 59, 134, 2, 0.628557
172, 2, wb, attraction, a-b-db, 2, 1, 3, 16, 60, 135, 135, 60, 59, 134, 3, 0.706371
172, 2, wb, attraction, a-b-da, 9, 2, 3, 17, 157, 86, 165, 90, 90, 165, 2, 0.483505
172, 2, wb, attraction, a-b-da, 9, 2, 3, 17, 157, 86, 165, 90, 90, 165, 1, 0.559214
172, 2, wb, attraction, a-b-da, 5, 2, 3, 18, 161, 88, 165, 90, 90, 165, 2, 0.646382
172, 2, wb, attraction, a-b-da, 5, 2, 3, 18, 161, 88, 165, 90, 90, 165, 3, 0.467442
172, 2, wb, filler, NA, 999, 999, 3, 19, 128, 84, 127, 152, 101, 120, 3, 1.18278
172, 2, wb, filler, NA, 999, 999, 3, 19, 128, 84, 127, 152, 101, 120, 1, 1.15019
172, 2, wb, filler, NA, 999, 999, 3, 20, 172, 190, 151, 122, 193, 134, 2, 0.829758
172, 2, wb, filler, NA, 999, 999, 3, 20, 172, 190, 151, 122, 193, 134, 3, 0.45957
172, 2, wb, filler, NA, 999, 999, 3, 21, 181, 122, 117, 109, 87, 145, 2, 0.766704
172, 2, wb, filler, NA, 999, 999, 3, 21, 181, 122, 117, 109, 87, 145, 1, 0.455
172, 2, wb, attraction, a-b-da, 9, 1, 3, 22, 129, 57, 60, 135, 135, 60, 2, 0.642766
172, 2, wb, attraction, a-b-da, 9, 1, 3, 22, 129, 57, 60, 135, 135, 60, 3, 0.440102
172, 2, wb, attraction, a-b-db, 9, 2, 3, 23, 86, 157, 165, 90, 90, 165, 2, 0.71571
172, 2, wb, attraction, a-b-db, 9, 2, 3, 23, 86, 157, 165, 90, 90, 165, 3, 0.603001
172, 2, wb, catch, NA, 999, 999, 3, 24, 177, 138, 140, 115, 78, 117, 3, 0.6999
172, 2, wb, catch, NA, 999, 999, 3, 24, 177, 138, 140, 115, 78, 117, 1, 0.750985
172, 2, wb, filler, NA, 999, 999, 3, 25, 186, 166, 119, 143, 149, 162, 2, 0.93467
172, 2, wb, filler, NA, 999, 999, 3, 25, 186, 166, 119, 143, 149, 162, 1, 1.6804
172, 2, wb, filler, NA, 999, 999, 3, 26, 115, 96, 111, 169, 148, 77, 1, 0.938421
172, 2, wb, filler, NA, 999, 999, 3, 26, 115, 96, 111, 169, 148, 77, 2, 0.683532
172, 2, wb, filler, NA, 999, 999, 3, 27, 98, 163, 176, 134, 81, 67, 3, 0.76597
172, 2, wb, filler, NA, 999, 999, 3, 27, 98, 163, 176, 134, 81, 67, 2, 0.534286
172, 2, wb, attraction, a-b-da, 5, 1, 3, 28, 132, 58, 135, 60, 60, 135, 3, 0.894761
172, 2, wb, attraction, a-b-da, 5, 1, 3, 28, 132, 58, 135, 60, 60, 135, 2, 1.20174
172, 2, wb, filler, NA, 999, 999, 3, 29, 167, 175, 102, 85, 150, 172, 2, 1.09525
172, 2, wb, filler, NA, 999, 999, 3, 29, 167, 175, 102, 85, 150, 172, 1, 1.83429
172, 2, wb, attraction, a-b-db, 9, 3, 3, 30, 114, 186, 195, 120, 120, 195, 2, 2.19031
172, 2, wb, attraction, a-b-db, 9, 3, 3, 30, 114, 186, 195, 120, 120, 195, 3, 0.837043
172, 2, wb, attraction, a-b-da, 2, 3, 3, 31, 120, 195, 193, 119, 195, 120, 3, 3.84928
172, 2, wb, attraction, a-b-da, 2, 3, 3, 31, 120, 195, 193, 119, 195, 120, 1, 0.717416
172, 2, wb, attraction, a-b-db, 14, 1, 3, 32, 60, 135, 135, 60, 56, 125, 2, 1.33445
172, 2, wb, attraction, a-b-db, 14, 1, 3, 32, 60, 135, 135, 60, 56, 125, 3, 0.960089
172, 2, wb, attraction, a-b-db, 2, 2, 3, 33, 89, 163, 90, 165, 165, 90, 3, 5.87103
172, 2, wb, attraction, a-b-db, 2, 2, 3, 33, 89, 163, 90, 165, 165, 90, 2, 0.833925
172, 2, wb, attraction, a-b-db, 2, 3, 3, 34, 119, 193, 120, 195, 195, 120, 3, 2.43014
172, 2, wb, attraction, a-b-db, 2, 3, 3, 34, 119, 193, 120, 195, 195, 120, 2, 0.475497
172, 2, wb, attraction, a-b-db, 9, 1, 3, 35, 57, 129, 135, 60, 60, 135, 3, 1.96586
172, 2, wb, attraction, a-b-db, 9, 1, 3, 35, 57, 129, 135, 60, 60, 135, 2, 0.685884
172, 2, wb, attraction, a-b-da, 14, 2, 3, 36, 90, 165, 165, 90, 153, 83, 3, 5.74435
172, 2, wb, attraction, a-b-da, 14, 2, 3, 36, 90, 165, 165, 90, 153, 83, 2, 0.487742
172, 2, wb, attraction, a-b-da, 2, 1, 3, 37, 135, 60, 60, 135, 134, 59, 2, 1.43989
172, 2, wb, attraction, a-b-da, 2, 1, 3, 37, 135, 60, 60, 135, 134, 59, 1, 1.29511
172, 2, wb, attraction, a-b-db, 9, 1, 4, 1, 57, 129, 60, 135, 135, 60, 2, 0.776609
172, 2, wb, attraction, a-b-db, 9, 1, 4, 1, 57, 129, 60, 135, 135, 60, 3, 1.76836
172, 2, wb, attraction, a-b-da, 2, 2, 4, 2, 165, 90, 90, 165, 163, 89, 2, 0.743071
172, 2, wb, attraction, a-b-da, 2, 2, 4, 2, 165, 90, 90, 165, 163, 89, 1, 0.744085
172, 2, wb, filler, NA, 999, 999, 4, 3, 158, 125, 67, 153, 105, 104, 2, 1.0238
172, 2, wb, filler, NA, 999, 999, 4, 3, 158, 125, 67, 153, 105, 104, 3, 0.733584
172, 2, wb, filler, NA, 999, 999, 4, 4, 96, 195, 174, 77, 74, 135, 2, 0.821894
172, 2, wb, filler, NA, 999, 999, 4, 4, 96, 195, 174, 77, 74, 135, 1, 0.803618
172, 2, wb, filler, NA, 999, 999, 4, 5, 195, 118, 59, 148, 102, 126, 2, 0.609389
172, 2, wb, filler, NA, 999, 999, 4, 5, 195, 118, 59, 148, 102, 126, 1, 0.535675
172, 2, wb, attraction, a-b-da, 2, 1, 4, 6, 60, 135, 134, 59, 135, 60, 1, 1.89611
172, 2, wb, attraction, a-b-da, 2, 1, 4, 6, 60, 135, 134, 59, 135, 60, 3, 0.83488
172, 2, wb, attraction, a-b-da, 5, 3, 4, 7, 190, 117, 195, 120, 120, 195, 2, 1.37519
172, 2, wb, attraction, a-b-da, 5, 3, 4, 7, 190, 117, 195, 120, 120, 195, 3, 0.686776
172, 2, wb, filler, NA, 999, 999, 4, 8, 116, 67, 71, 96, 183, 60, 2, 1.48121
172, 2, wb, filler, NA, 999, 999, 4, 8, 116, 67, 71, 96, 183, 60, 3, 1.26074
172, 2, wb, attraction, a-b-da, 2, 3, 4, 9, 193, 119, 120, 195, 195, 120, 2, 1.03954
172, 2, wb, attraction, a-b-da, 2, 3, 4, 9, 193, 119, 120, 195, 195, 120, 1, 1.42856
172, 2, wb, filler, NA, 999, 999, 4, 10, 180, 162, 60, 91, 114, 165, 2, 0.8967
172, 2, wb, filler, NA, 999, 999, 4, 10, 180, 162, 60, 91, 114, 165, 1, 0.507644
172, 2, wb, attraction, a-b-db, 5, 2, 4, 11, 90, 165, 88, 161, 165, 90, 1, 2.70075
172, 2, wb, attraction, a-b-db, 5, 2, 4, 11, 90, 165, 88, 161, 165, 90, 3, 0.719381
172, 2, wb, filler, NA, 999, 999, 4, 12, 144, 160, 103, 123, 174, 99, 2, 1.28027
172, 2, wb, filler, NA, 999, 999, 4, 12, 144, 160, 103, 123, 174, 99, 1, 0.404083
172, 2, wb, filler, NA, 999, 999, 4, 13, 80, 75, 171, 192, 72, 172, 1, 0.817676
172, 2, wb, filler, NA, 999, 999, 4, 13, 80, 75, 171, 192, 72, 172, 2, 0.368156
172, 2, wb, attraction, a-b-db, 14, 3, 4, 14, 120, 195, 195, 120, 111, 181, 2, 0.775302
172, 2, wb, attraction, a-b-db, 14, 3, 4, 14, 120, 195, 195, 120, 111, 181, 1, 0.69501
172, 2, wb, attraction, a-b-db, 9, 3, 4, 15, 114, 186, 195, 120, 120, 195, 2, 0.648654
172, 2, wb, attraction, a-b-db, 9, 3, 4, 15, 114, 186, 195, 120, 120, 195, 3, 0.421875
172, 2, wb, attraction, a-b-da, 14, 3, 4, 16, 181, 111, 120, 195, 195, 120, 2, 0.770977
172, 2, wb, attraction, a-b-da, 14, 3, 4, 16, 181, 111, 120, 195, 195, 120, 1, 0.722753
172, 2, wb, attraction, a-b-db, 14, 2, 4, 17, 165, 90, 83, 153, 90, 165, 2, 0.491088
172, 2, wb, attraction, a-b-db, 14, 2, 4, 17, 165, 90, 83, 153, 90, 165, 1, 0.838266
172, 2, wb, attraction, a-b-db, 14, 1, 4, 18, 135, 60, 56, 125, 60, 135, 2, 0.642646
172, 2, wb, attraction, a-b-db, 14, 1, 4, 18, 135, 60, 56, 125, 60, 135, 3, 1.75976
172, 2, wb, catch, NA, 999, 999, 4, 19, 100, 155, 77, 118, 178, 137, 2, 0.622431
172, 2, wb, catch, NA, 999, 999, 4, 19, 100, 155, 77, 118, 178, 137, 3, 0.420183
172, 2, wb, attraction, a-b-da, 14, 1, 4, 20, 125, 56, 60, 135, 135, 60, 2, 0.585282
172, 2, wb, attraction, a-b-da, 14, 1, 4, 20, 125, 56, 60, 135, 135, 60, 3, 0.633291
172, 2, wb, filler, NA, 999, 999, 4, 21, 143, 88, 174, 86, 182, 76, 2, 6.49357
172, 2, wb, filler, NA, 999, 999, 4, 21, 143, 88, 174, 86, 182, 76, 3, 0.510828
172, 2, wb, attraction, a-b-db, 9, 2, 4, 22, 86, 157, 90, 165, 165, 90, 2, 0.719914
172, 2, wb, attraction, a-b-db, 9, 2, 4, 22, 86, 157, 90, 165, 165, 90, 3, 0.593692
172, 2, wb, attraction, a-b-da, 5, 2, 4, 23, 90, 165, 161, 88, 165, 90, 2, 1.01544
172, 2, wb, attraction, a-b-da, 5, 2, 4, 23, 90, 165, 161, 88, 165, 90, 3, 0.613805
172, 2, wb, attraction, a-b-da, 9, 1, 4, 24, 129, 57, 60, 135, 135, 60, 2, 0.530789
172, 2, wb, attraction, a-b-da, 9, 1, 4, 24, 129, 57, 60, 135, 135, 60, 1, 0.420653
172, 2, wb, attraction, a-b-db, 2, 2, 4, 25, 165, 90, 90, 165, 89, 163, 2, 0.513762
172, 2, wb, attraction, a-b-db, 2, 2, 4, 25, 165, 90, 90, 165, 89, 163, 1, 0.716306
172, 2, wb, catch, NA, 999, 999, 4, 26, 143, 112, 89, 106, 130, 185, 2, 0.549281
172, 2, wb, catch, NA, 999, 999, 4, 26, 143, 112, 89, 106, 130, 185, 3, 0.478601
172, 2, wb, attraction, a-b-da, 14, 2, 4, 27, 153, 83, 165, 90, 90, 165, 2, 3.24892
172, 2, wb, attraction, a-b-da, 14, 2, 4, 27, 153, 83, 165, 90, 90, 165, 3, 0.8692
172, 2, wb, filler, NA, 999, 999, 4, 28, 174, 117, 69, 62, 136, 143, 2, 0.576228
172, 2, wb, filler, NA, 999, 999, 4, 28, 174, 117, 69, 62, 136, 143, 1, 1.49605
172, 2, wb, attraction, a-b-db, 2, 1, 4, 29, 59, 134, 60, 135, 135, 60, 3, 1.01758
172, 2, wb, attraction, a-b-db, 2, 1, 4, 29, 59, 134, 60, 135, 135, 60, 2, 0.775809
172, 2, wb, filler, NA, 999, 999, 4, 30, 72, 151, 79, 157, 141, 139, 2, 0.902163
172, 2, wb, filler, NA, 999, 999, 4, 30, 72, 151, 79, 157, 141, 139, 3, 0.505187
172, 2, wb, attraction, a-b-da, 9, 3, 4, 31, 195, 120, 120, 195, 186, 114, 2, 0.618961
172, 2, wb, attraction, a-b-da, 9, 3, 4, 31, 195, 120, 120, 195, 186, 114, 1, 0.697407
172, 2, wb, catch, NA, 999, 999, 4, 32, 77, 118, 181, 134, 120, 135, 1, 0.979245
172, 2, wb, catch, NA, 999, 999, 4, 32, 77, 118, 181, 134, 120, 135, 2, 0.378881
172, 2, wb, attraction, a-b-db, 2, 3, 4, 33, 120, 195, 195, 120, 119, 193, 1, 1.09736
172, 2, wb, attraction, a-b-db, 2, 3, 4, 33, 120, 195, 195, 120, 119, 193, 2, 0.348276
172, 2, wb, attraction, a-b-db, 5, 1, 4, 34, 60, 135, 58, 132, 135, 60, 1, 0.764094
172, 2, wb, attraction, a-b-db, 5, 1, 4, 34, 60, 135, 58, 132, 135, 60, 3, 0.444494
172, 2, wb, attraction, a-b-db, 5, 3, 4, 35, 117, 190, 195, 120, 120, 195, 2, 0.5923
172, 2, wb, attraction, a-b-db, 5, 3, 4, 35, 117, 190, 195, 120, 120, 195, 3, 0.679374
172, 2, wb, attraction, a-b-da, 9, 2, 4, 36, 157, 86, 165, 90, 90, 165, 1, 0.785769
172, 2, wb, attraction, a-b-da, 9, 2, 4, 36, 157, 86, 165, 90, 90, 165, 3, 0.945552
172, 2, wb, attraction, a-b-da, 5, 1, 4, 37, 60, 135, 132, 58, 135, 60, 1, 2.25728
172, 2, wb, attraction, a-b-da, 5, 1, 4, 37, 60, 135, 132, 58, 135, 60, 3, 0.749089
172, 2, wb, attraction, a-b-da, 2, 3, 5, 1, 195, 120, 193, 119, 120, 195, 1, 11.8514
172, 2, wb, attraction, a-b-da, 2, 3, 5, 1, 195, 120, 193, 119, 120, 195, 3, 0.461117
172, 2, wb, filler, NA, 999, 999, 5, 2, 164, 86, 89, 76, 185, 149, 2, 1.20818
172, 2, wb, filler, NA, 999, 999, 5, 2, 164, 86, 89, 76, 185, 149, 3, 0.854439
172, 2, wb, attraction, a-b-da, 2, 2, 5, 3, 90, 165, 165, 90, 163, 89, 1, 2.30614
172, 2, wb, attraction, a-b-da, 2, 2, 5, 3, 90, 165, 165, 90, 163, 89, 3, 0.724109
172, 2, wb, attraction, a-b-da, 9, 1, 5, 4, 60, 135, 129, 57, 135, 60, 1, 1.12444
172, 2, wb, attraction, a-b-da, 9, 1, 5, 4, 60, 135, 129, 57, 135, 60, 2, 0.494044
172, 2, wb, attraction, a-b-da, 5, 2, 5, 5, 165, 90, 161, 88, 90, 165, 1, 1.20784
172, 2, wb, attraction, a-b-da, 5, 2, 5, 5, 165, 90, 161, 88, 90, 165, 3, 0.470099
172, 2, wb, filler, NA, 999, 999, 5, 6, 85, 165, 86, 76, 68, 181, 2, 0.601181
172, 2, wb, filler, NA, 999, 999, 5, 6, 85, 165, 86, 76, 68, 181, 1, 0.504441
172, 2, wb, attraction, a-b-db, 14, 1, 5, 7, 60, 135, 135, 60, 56, 125, 1, 1.28213
172, 2, wb, attraction, a-b-db, 14, 1, 5, 7, 60, 135, 135, 60, 56, 125, 2, 0.70175
172, 2, wb, filler, NA, 999, 999, 5, 8, 88, 124, 90, 149, 90, 154, 1, 1.80749
172, 2, wb, filler, NA, 999, 999, 5, 8, 88, 124, 90, 149, 90, 154, 2, 0.317512
172, 2, wb, catch, NA, 999, 999, 5, 9, 115, 140, 78, 117, 190, 125, 2, 0.950764
172, 2, wb, catch, NA, 999, 999, 5, 9, 115, 140, 78, 117, 190, 125, 3, 0.383772
172, 2, wb, attraction, a-b-da, 5, 3, 5, 10, 120, 195, 190, 117, 195, 120, 1, 1.09427
172, 2, wb, attraction, a-b-da, 5, 3, 5, 10, 120, 195, 190, 117, 195, 120, 3, 0.393193
172, 2, wb, attraction, a-b-db, 2, 2, 5, 11, 90, 165, 165, 90, 89, 163, 2, 0.598908
172, 2, wb, attraction, a-b-db, 2, 2, 5, 11, 90, 165, 165, 90, 89, 163, 3, 0.454077
172, 2, wb, attraction, a-b-db, 5, 3, 5, 12, 120, 195, 117, 190, 195, 120, 2, 0.769937
172, 2, wb, attraction, a-b-db, 5, 3, 5, 12, 120, 195, 117, 190, 195, 120, 3, 0.47363
172, 2, wb, filler, NA, 999, 999, 5, 13, 79, 175, 130, 95, 179, 119, 1, 0.716156
172, 2, wb, filler, NA, 999, 999, 5, 13, 79, 175, 130, 95, 179, 119, 3, 0.430503
172, 2, wb, attraction, a-b-db, 5, 2, 5, 14, 165, 90, 90, 165, 88, 161, 1, 0.722963
172, 2, wb, attraction, a-b-db, 5, 2, 5, 14, 165, 90, 90, 165, 88, 161, 2, 0.444699
172, 2, wb, filler, NA, 999, 999, 5, 15, 95, 129, 127, 68, 179, 68, 2, 1.35248
172, 2, wb, filler, NA, 999, 999, 5, 15, 95, 129, 127, 68, 179, 68, 3, 0.513482
172, 2, wb, attraction, a-b-da, 14, 3, 5, 16, 120, 195, 195, 120, 181, 111, 2, 0.746506
172, 2, wb, attraction, a-b-da, 14, 3, 5, 16, 120, 195, 195, 120, 181, 111, 3, 0.50768
172, 2, wb, filler, NA, 999, 999, 5, 17, 98, 77, 192, 144, 122, 61, 1, 0.764779
172, 2, wb, filler, NA, 999, 999, 5, 17, 98, 77, 192, 144, 122, 61, 2, 0.493048
172, 2, wb, catch, NA, 999, 999, 5, 18, 135, 180, 130, 125, 78, 117, 3, 1.35895
172, 2, wb, catch, NA, 999, 999, 5, 18, 135, 180, 130, 125, 78, 117, 1, 0.40711
172, 2, wb, filler, NA, 999, 999, 5, 19, 106, 124, 162, 167, 135, 141, 1, 0.724226
172, 2, wb, filler, NA, 999, 999, 5, 19, 106, 124, 162, 167, 135, 141, 2, 1.43009
172, 2, wb, catch, NA, 999, 999, 5, 20, 160, 155, 103, 152, 130, 65, 3, 2.37814
172, 2, wb, catch, NA, 999, 999, 5, 20, 160, 155, 103, 152, 130, 65, 1, 0.993371
172, 2, wb, attraction, a-b-da, 9, 3, 5, 21, 120, 195, 195, 120, 186, 114, 3, 2.159
172, 2, wb, attraction, a-b-da, 9, 3, 5, 21, 120, 195, 195, 120, 186, 114, 2, 1.36691
172, 2, wb, attraction, a-b-db, 2, 3, 5, 22, 120, 195, 119, 193, 195, 120, 1, 0.901861
172, 2, wb, attraction, a-b-db, 2, 3, 5, 22, 120, 195, 119, 193, 195, 120, 3, 2.16886
172, 2, wb, filler, NA, 999, 999, 5, 23, 86, 140, 76, 102, 163, 160, 2, 2.27139
172, 2, wb, filler, NA, 999, 999, 5, 23, 86, 140, 76, 102, 163, 160, 3, 1.63492
172, 2, wb, attraction, a-b-da, 2, 1, 5, 24, 134, 59, 135, 60, 60, 135, 1, 1.47079
172, 2, wb, attraction, a-b-da, 2, 1, 5, 24, 134, 59, 135, 60, 60, 135, 2, 0.802289
172, 2, wb, attraction, a-b-db, 9, 1, 5, 25, 60, 135, 57, 129, 135, 60, 1, 2.00806
172, 2, wb, attraction, a-b-db, 9, 1, 5, 25, 60, 135, 57, 129, 135, 60, 3, 1.742
172, 2, wb, attraction, a-b-db, 9, 2, 5, 26, 90, 165, 86, 157, 165, 90, 1, 2.31738
172, 2, wb, attraction, a-b-db, 9, 2, 5, 26, 90, 165, 86, 157, 165, 90, 3, 1.00729
172, 2, wb, attraction, a-b-da, 14, 2, 5, 27, 165, 90, 153, 83, 90, 165, 2, 2.78833
172, 2, wb, attraction, a-b-da, 14, 2, 5, 27, 165, 90, 153, 83, 90, 165, 3, 0.690657
172, 2, wb, attraction, a-b-db, 5, 1, 5, 28, 60, 135, 135, 60, 58, 132, 2, 1.37258
172, 2, wb, attraction, a-b-db, 5, 1, 5, 28, 60, 135, 135, 60, 58, 132, 3, 0.80406
172, 2, wb, attraction, a-b-db, 14, 3, 5, 29, 111, 181, 120, 195, 195, 120, 1, 1.67365
172, 2, wb, attraction, a-b-db, 14, 3, 5, 29, 111, 181, 120, 195, 195, 120, 3, 0.933206
172, 2, wb, attraction, a-b-db, 9, 3, 5, 30, 195, 120, 114, 186, 120, 195, 2, 1.11745
172, 2, wb, attraction, a-b-db, 9, 3, 5, 30, 195, 120, 114, 186, 120, 195, 1, 0.527865
172, 2, wb, attraction, a-b-db, 2, 1, 5, 31, 59, 134, 135, 60, 60, 135, 2, 1.02422
172, 2, wb, attraction, a-b-db, 2, 1, 5, 31, 59, 134, 135, 60, 60, 135, 3, 0.68592
172, 2, wb, attraction, a-b-db, 14, 2, 5, 32, 83, 153, 165, 90, 90, 165, 2, 0.720258
172, 2, wb, attraction, a-b-db, 14, 2, 5, 32, 83, 153, 165, 90, 90, 165, 1, 0.610658
172, 2, wb, filler, NA, 999, 999, 5, 33, 120, 165, 111, 140, 121, 94, 2, 0.863676
172, 2, wb, filler, NA, 999, 999, 5, 33, 120, 165, 111, 140, 121, 94, 1, 1.30807
172, 2, wb, attraction, a-b-da, 9, 2, 5, 34, 157, 86, 90, 165, 165, 90, 2, 2.53293
172, 2, wb, attraction, a-b-da, 9, 2, 5, 34, 157, 86, 90, 165, 165, 90, 1, 0.974202
172, 2, wb, filler, NA, 999, 999, 5, 35, 62, 98, 136, 71, 66, 136, 1, 1.62835
172, 2, wb, filler, NA, 999, 999, 5, 35, 62, 98, 136, 71, 66, 136, 3, 1.04194
172, 2, wb, attraction, a-b-da, 5, 1, 5, 36, 135, 60, 60, 135, 132, 58, 1, 1.42954
172, 2, wb, attraction, a-b-da, 5, 1, 5, 36, 135, 60, 60, 135, 132, 58, 2, 0.539144
172, 2, wb, attraction, a-b-da, 14, 1, 5, 37, 60, 135, 125, 56, 135, 60, 1, 0.955477
172, 2, wb, attraction, a-b-da, 14, 1, 5, 37, 60, 135, 125, 56, 135, 60, 3, 1.06785
172, 2, wb, filler, NA, 999, 999, 6, 1, 108, 115, 93, 161, 74, 193, 1, 1.5107
172, 2, wb, filler, NA, 999, 999, 6, 1, 108, 115, 93, 161, 74, 193, 2, 0.800918
172, 2, wb, attraction, a-b-db, 2, 2, 6, 2, 90, 165, 165, 90, 89, 163, 1, 0.830601
172, 2, wb, attraction, a-b-db, 2, 2, 6, 2, 90, 165, 165, 90, 89, 163, 2, 0.756383
172, 2, wb, filler, NA, 999, 999, 6, 3, 178, 139, 56, 75, 192, 124, 2, 0.90732
172, 2, wb, filler, NA, 999, 999, 6, 3, 178, 139, 56, 75, 192, 124, 1, 3.39782
172, 2, wb, attraction, a-b-db, 5, 1, 6, 4, 58, 132, 60, 135, 135, 60, 2, 2.81065
172, 2, wb, attraction, a-b-db, 5, 1, 6, 4, 58, 132, 60, 135, 135, 60, 3, 0.720553
172, 2, wb, catch, NA, 999, 999, 6, 5, 130, 185, 92, 163, 62, 133, 3, 1.6735
172, 2, wb, catch, NA, 999, 999, 6, 5, 130, 185, 92, 163, 62, 133, 1, 0.868828
172, 2, wb, filler, NA, 999, 999, 6, 6, 178, 163, 117, 151, 157, 142, 2, 1.01594
172, 2, wb, filler, NA, 999, 999, 6, 6, 178, 163, 117, 151, 157, 142, 1, 0.558199
172, 2, wb, filler, NA, 999, 999, 6, 7, 146, 110, 131, 110, 108, 56, 3, 1.80537
172, 2, wb, filler, NA, 999, 999, 6, 7, 146, 110, 131, 110, 108, 56, 1, 0.69151
172, 2, wb, attraction, a-b-da, 14, 1, 6, 8, 125, 56, 135, 60, 60, 135, 2, 1.2931
172, 2, wb, attraction, a-b-da, 14, 1, 6, 8, 125, 56, 135, 60, 60, 135, 1, 0.559973
172, 2, wb, attraction, a-b-db, 9, 1, 6, 9, 135, 60, 57, 129, 60, 135, 2, 0.759105
172, 2, wb, attraction, a-b-db, 9, 1, 6, 9, 135, 60, 57, 129, 60, 135, 1, 1.25556
172, 2, wb, attraction, a-b-da, 2, 2, 6, 10, 163, 89, 90, 165, 165, 90, 2, 1.09107
172, 2, wb, attraction, a-b-da, 2, 2, 6, 10, 163, 89, 90, 165, 165, 90, 1, 0.86999
172, 2, wb, filler, NA, 999, 999, 6, 11, 158, 143, 144, 139, 108, 82, 3, 1.79311
172, 2, wb, filler, NA, 999, 999, 6, 11, 158, 143, 144, 139, 108, 82, 1, 0.951733
172, 2, wb, attraction, a-b-db, 9, 2, 6, 12, 86, 157, 165, 90, 90, 165, 1, 2.13542
172, 2, wb, attraction, a-b-db, 9, 2, 6, 12, 86, 157, 165, 90, 90, 165, 3, 0.792782
172, 2, wb, filler, NA, 999, 999, 6, 13, 96, 168, 188, 116, 173, 125, 1, 1.78237
172, 2, wb, filler, NA, 999, 999, 6, 13, 96, 168, 188, 116, 173, 125, 3, 0.621877
172, 2, wb, attraction, a-b-da, 2, 1, 6, 14, 60, 135, 135, 60, 134, 59, 1, 1.17093
172, 2, wb, attraction, a-b-da, 2, 1, 6, 14, 60, 135, 135, 60, 134, 59, 3, 1.87467
172, 2, wb, attraction, a-b-da, 2, 3, 6, 15, 193, 119, 120, 195, 195, 120, 2, 1.74054
172, 2, wb, attraction, a-b-da, 2, 3, 6, 15, 193, 119, 120, 195, 195, 120, 3, 0.869354
172, 2, wb, attraction, a-b-db, 5, 2, 6, 16, 90, 165, 88, 161, 165, 90, 2, 0.984234
172, 2, wb, attraction, a-b-db, 5, 2, 6, 16, 90, 165, 88, 161, 165, 90, 1, 1.03196
172, 2, wb, filler, NA, 999, 999, 6, 17, 87, 83, 169, 162, 137, 97, 1, 0.876193
172, 2, wb, filler, NA, 999, 999, 6, 17, 87, 83, 169, 162, 137, 97, 2, 0.783938
172, 2, wb, attraction, a-b-da, 9, 2, 6, 18, 157, 86, 90, 165, 165, 90, 1, 1.38226
172, 2, wb, attraction, a-b-da, 9, 2, 6, 18, 157, 86, 90, 165, 165, 90, 2, 0.581832
172, 2, wb, catch, NA, 999, 999, 6, 19, 141, 174, 123, 132, 120, 75, 3, 1.4363
172, 2, wb, catch, NA, 999, 999, 6, 19, 141, 174, 123, 132, 120, 75, 1, 0.58574
172, 2, wb, filler, NA, 999, 999, 6, 20, 87, 56, 128, 80, 83, 177, 1, 1.33624
172, 2, wb, filler, NA, 999, 999, 6, 20, 87, 56, 128, 80, 83, 177, 3, 0.873835
172, 2, wb, attraction, a-b-da, 14, 3, 6, 21, 181, 111, 195, 120, 120, 195, 1, 2.58035
172, 2, wb, attraction, a-b-da, 14, 3, 6, 21, 181, 111, 195, 120, 120, 195, 2, 0.571298
172, 2, wb, catch, NA, 999, 999, 6, 22, 154, 101, 87, 108, 138, 177, 2, 1.13034
172, 2, wb, catch, NA, 999, 999, 6, 22, 154, 101, 87, 108, 138, 177, 3, 0.428207
172, 2, wb, attraction, a-b-db, 14, 2, 6, 23, 165, 90, 90, 165, 83, 153, 3, 5.89655
172, 2, wb, attraction, a-b-db, 14, 2, 6, 23, 165, 90, 90, 165, 83, 153, 1, 1.02596
172, 2, wb, attraction, a-b-da, 9, 1, 6, 24, 60, 135, 129, 57, 135, 60, 2, 0.886239
172, 2, wb, attraction, a-b-da, 9, 1, 6, 24, 60, 135, 129, 57, 135, 60, 3, 1.26598
172, 2, wb, attraction, a-b-db, 9, 3, 6, 25, 120, 195, 195, 120, 114, 186, 2, 2.67681
172, 2, wb, attraction, a-b-db, 9, 3, 6, 25, 120, 195, 195, 120, 114, 186, 1, 0.551932
172, 2, wb, attraction, a-b-db, 14, 3, 6, 26, 111, 181, 195, 120, 120, 195, 2, 0.919739
172, 2, wb, attraction, a-b-db, 14, 3, 6, 26, 111, 181, 195, 120, 120, 195, 1, 0.498075
172, 2, wb, filler, NA, 999, 999, 6, 27, 189, 177, 161, 149, 180, 104, 2, 0.971844
172, 2, wb, filler, NA, 999, 999, 6, 27, 189, 177, 161, 149, 180, 104, 1, 0.395627
172, 2, wb, attraction, a-b-da, 5, 1, 6, 28, 132, 58, 135, 60, 60, 135, 3, 0.8895
172, 2, wb, attraction, a-b-da, 5, 1, 6, 28, 132, 58, 135, 60, 60, 135, 2, 0.668398
172, 2, wb, attraction, a-b-da, 5, 3, 6, 29, 190, 117, 120, 195, 195, 120, 2, 0.911418
172, 2, wb, attraction, a-b-da, 5, 3, 6, 29, 190, 117, 120, 195, 195, 120, 3, 1.13779
172, 2, wb, attraction, a-b-db, 2, 1, 6, 30, 59, 134, 135, 60, 60, 135, 2, 1.00998
172, 2, wb, attraction, a-b-db, 2, 1, 6, 30, 59, 134, 135, 60, 60, 135, 1, 0.504385
172, 2, wb, attraction, a-b-db, 14, 1, 6, 31, 60, 135, 56, 125, 135, 60, 2, 0.858144
172, 2, wb, attraction, a-b-db, 14, 1, 6, 31, 60, 135, 56, 125, 135, 60, 1, 0.550612
172, 2, wb, attraction, a-b-db, 2, 3, 6, 32, 119, 193, 120, 195, 195, 120, 2, 0.82237
172, 2, wb, attraction, a-b-db, 2, 3, 6, 32, 119, 193, 120, 195, 195, 120, 1, 0.444018
172, 2, wb, filler, NA, 999, 999, 6, 33, 117, 163, 136, 91, 92, 63, 3, 0.623786
172, 2, wb, filler, NA, 999, 999, 6, 33, 117, 163, 136, 91, 92, 63, 1, 1.22957
172, 2, wb, attraction, a-b-db, 5, 3, 6, 34, 120, 195, 195, 120, 117, 190, 1, 1.06584
172, 2, wb, attraction, a-b-db, 5, 3, 6, 34, 120, 195, 195, 120, 117, 190, 2, 0.406106
172, 2, wb, attraction, a-b-da, 9, 3, 6, 35, 120, 195, 195, 120, 186, 114, 3, 0.603256
172, 2, wb, attraction, a-b-da, 9, 3, 6, 35, 120, 195, 195, 120, 186, 114, 2, 0.834466
172, 2, wb, attraction, a-b-da, 14, 2, 6, 36, 90, 165, 153, 83, 165, 90, 1, 1.87881
172, 2, wb, attraction, a-b-da, 14, 2, 6, 36, 90, 165, 153, 83, 165, 90, 2, 0.642124
172, 2, wb, attraction, a-b-da, 5, 2, 6, 37, 161, 88, 90, 165, 165, 90, 3, 2.87005
172, 2, wb, attraction, a-b-da, 5, 2, 6, 37, 161, 88, 90, 165, 165, 90, 2, 0.841682
172, 2, wb, attraction, a-b-db, 2, 3, 7, 1, 195, 120, 119, 193, 120, 195, 1, 2.70135
172, 2, wb, attraction, a-b-db, 2, 3, 7, 1, 195, 120, 119, 193, 120, 195, 2, 1.04788
172, 2, wb, attraction, a-b-da, 5, 1, 7, 2, 60, 135, 135, 60, 132, 58, 1, 3.93136
172, 2, wb, attraction, a-b-da, 5, 1, 7, 2, 60, 135, 135, 60, 132, 58, 3, 1.0521
172, 2, wb, filler, NA, 999, 999, 7, 3, 153, 128, 69, 120, 168, 150, 2, 1.50369
172, 2, wb, filler, NA, 999, 999, 7, 3, 153, 128, 69, 120, 168, 150, 3, 0.433889
172, 2, wb, catch, NA, 999, 999, 7, 4, 163, 152, 113, 82, 142, 113, 2, 0.926521
172, 2, wb, catch, NA, 999, 999, 7, 4, 163, 152, 113, 82, 142, 113, 1, 0.336092
172, 2, wb, attraction, a-b-da, 5, 3, 7, 5, 190, 117, 120, 195, 195, 120, 2, 0.960552
172, 2, wb, attraction, a-b-da, 5, 3, 7, 5, 190, 117, 120, 195, 195, 120, 3, 0.44894
172, 2, wb, attraction, a-b-db, 2, 1, 7, 6, 60, 135, 59, 134, 135, 60, 2, 0.708789
172, 2, wb, attraction, a-b-db, 2, 1, 7, 6, 60, 135, 59, 134, 135, 60, 1, 0.503079
172, 2, wb, attraction, a-b-da, 14, 3, 7, 7, 120, 195, 195, 120, 181, 111, 2, 0.680877
172, 2, wb, attraction, a-b-da, 14, 3, 7, 7, 120, 195, 195, 120, 181, 111, 3, 0.836676
172, 2, wb, filler, NA, 999, 999, 7, 8, 80, 96, 81, 137, 190, 66, 1, 1.46499
172, 2, wb, filler, NA, 999, 999, 7, 8, 80, 96, 81, 137, 190, 66, 2, 1.5892
172, 2, wb, attraction, a-b-da, 2, 2, 7, 9, 163, 89, 165, 90, 90, 165, 1, 1.79529
172, 2, wb, attraction, a-b-da, 2, 2, 7, 9, 163, 89, 165, 90, 90, 165, 2, 0.858127
172, 2, wb, attraction, a-b-db, 14, 1, 7, 10, 56, 125, 60, 135, 135, 60, 1, 0.805037
172, 2, wb, attraction, a-b-db, 14, 1, 7, 10, 56, 125, 60, 135, 135, 60, 2, 0.363416
172, 2, wb, attraction, a-b-db, 2, 2, 7, 11, 90, 165, 89, 163, 165, 90, 1, 0.7787
172, 2, wb, attraction, a-b-db, 2, 2, 7, 11, 90, 165, 89, 163, 165, 90, 3, 0.834393
172, 2, wb, attraction, a-b-da, 9, 2, 7, 12, 90, 165, 165, 90, 157, 86, 1, 8.55074
172, 2, wb, attraction, a-b-da, 9, 2, 7, 12, 90, 165, 165, 90, 157, 86, 2, 0.549426
172, 2, wb, filler, NA, 999, 999, 7, 13, 62, 136, 98, 91, 102, 139, 1, 2.1891
172, 2, wb, filler, NA, 999, 999, 7, 13, 62, 136, 98, 91, 102, 139, 3, 0.563818
172, 2, wb, filler, NA, 999, 999, 7, 14, 174, 158, 134, 111, 120, 67, 3, 1.01091
172, 2, wb, filler, NA, 999, 999, 7, 14, 174, 158, 134, 111, 120, 67, 1, 0.353083
172, 2, wb, attraction, a-b-db, 5, 3, 7, 15, 117, 190, 195, 120, 120, 195, 1, 1.76903
172, 2, wb, attraction, a-b-db, 5, 3, 7, 15, 117, 190, 195, 120, 120, 195, 3, 0.529159
172, 2, wb, attraction, a-b-db, 9, 2, 7, 16, 90, 165, 86, 157, 165, 90, 1, 0.913443
172, 2, wb, attraction, a-b-db, 9, 2, 7, 16, 90, 165, 86, 157, 165, 90, 3, 0.692679
172, 2, wb, filler, NA, 999, 999, 7, 17, 106, 165, 59, 91, 121, 131, 2, 0.717647
172, 2, wb, filler, NA, 999, 999, 7, 17, 106, 165, 59, 91, 121, 131, 1, 0.896062
172, 2, wb, attraction, a-b-da, 2, 3, 7, 18, 120, 195, 195, 120, 193, 119, 1, 0.977656
172, 2, wb, attraction, a-b-da, 2, 3, 7, 18, 120, 195, 195, 120, 193, 119, 3, 1.19345
172, 2, wb, catch, NA, 999, 999, 7, 19, 136, 119, 89, 106, 169, 146, 2, 1.19094
172, 2, wb, catch, NA, 999, 999, 7, 19, 136, 119, 89, 106, 169, 146, 3, 1.90981
172, 2, wb, attraction, a-b-da, 2, 1, 7, 20, 135, 60, 134, 59, 60, 135, 3, 1.35852
172, 2, wb, attraction, a-b-da, 2, 1, 7, 20, 135, 60, 134, 59, 60, 135, 2, 0.662875
172, 2, wb, attraction, a-b-da, 14, 1, 7, 21, 60, 135, 135, 60, 125, 56, 1, 0.937858
172, 2, wb, attraction, a-b-da, 14, 1, 7, 21, 60, 135, 135, 60, 125, 56, 3, 0.674839
172, 2, wb, attraction, a-b-db, 14, 3, 7, 22, 195, 120, 111, 181, 120, 195, 2, 3.9173
172, 2, wb, attraction, a-b-db, 14, 3, 7, 22, 195, 120, 111, 181, 120, 195, 1, 0.742566
172, 2, wb, filler, NA, 999, 999, 7, 23, 182, 65, 92, 148, 82, 89, 3, 0.982425
172, 2, wb, filler, NA, 999, 999, 7, 23, 182, 65, 92, 148, 82, 89, 2, 0.582118
172, 2, wb, attraction, a-b-db, 5, 1, 7, 24, 58, 132, 60, 135, 135, 60, 1, 0.644492
172, 2, wb, attraction, a-b-db, 5, 1, 7, 24, 58, 132, 60, 135, 135, 60, 2, 0.537629
172, 2, wb, filler, NA, 999, 999, 7, 25, 141, 121, 179, 99, 72, 97, 3, 1.04997
172, 2, wb, filler, NA, 999, 999, 7, 25, 141, 121, 179, 99, 72, 97, 1, 0.422917
172, 2, wb, attraction, a-b-db, 14, 2, 7, 26, 83, 153, 165, 90, 90, 165, 3, 1.49942
172, 2, wb, attraction, a-b-db, 14, 2, 7, 26, 83, 153, 165, 90, 90, 165, 2, 0.526274
172, 2, wb, attraction, a-b-db, 9, 1, 7, 27, 135, 60, 60, 135, 57, 129, 1, 0.838647
172, 2, wb, attraction, a-b-db, 9, 1, 7, 27, 135, 60, 60, 135, 57, 129, 3, 0.691735
172, 2, wb, filler, NA, 999, 999, 7, 28, 147, 63, 58, 108, 192, 84, 2, 0.957547
172, 2, wb, filler, NA, 999, 999, 7, 28, 147, 63, 58, 108, 192, 84, 3, 0.549775
172, 2, wb, attraction, a-b-da, 14, 2, 7, 29, 165, 90, 90, 165, 153, 83, 2, 1.95756
172, 2, wb, attraction, a-b-da, 14, 2, 7, 29, 165, 90, 90, 165, 153, 83, 1, 0.453555
172, 2, wb, attraction, a-b-da, 9, 1, 7, 30, 129, 57, 60, 135, 135, 60, 3, 1.20939
172, 2, wb, attraction, a-b-da, 9, 1, 7, 30, 129, 57, 60, 135, 135, 60, 2, 1.0157
172, 2, wb, filler, NA, 999, 999, 7, 31, 177, 107, 193, 180, 76, 115, 3, 1.14055
172, 2, wb, filler, NA, 999, 999, 7, 31, 177, 107, 193, 180, 76, 115, 2, 0.437529
172, 2, wb, attraction, a-b-da, 9, 3, 7, 32, 120, 195, 195, 120, 186, 114, 1, 1.01013
172, 2, wb, attraction, a-b-da, 9, 3, 7, 32, 120, 195, 195, 120, 186, 114, 2, 0.432355
172, 2, wb, catch, NA, 999, 999, 7, 33, 86, 109, 125, 190, 149, 106, 1, 0.660818
172, 2, wb, catch, NA, 999, 999, 7, 33, 86, 109, 125, 190, 149, 106, 2, 0.625363
172, 2, wb, attraction, a-b-db, 9, 3, 7, 34, 195, 120, 114, 186, 120, 195, 1, 2.41373
172, 2, wb, attraction, a-b-db, 9, 3, 7, 34, 195, 120, 114, 186, 120, 195, 2, 0.763769
172, 2, wb, filler, NA, 999, 999, 7, 35, 178, 67, 67, 76, 152, 181, 2, 1.03465
172, 2, wb, filler, NA, 999, 999, 7, 35, 178, 67, 67, 76, 152, 181, 3, 0.560367
172, 2, wb, attraction, a-b-db, 5, 2, 7, 36, 90, 165, 165, 90, 88, 161, 3, 1.35936
172, 2, wb, attraction, a-b-db, 5, 2, 7, 36, 90, 165, 165, 90, 88, 161, 2, 0.479588
172, 2, wb, attraction, a-b-da, 5, 2, 7, 37, 165, 90, 90, 165, 161, 88, 3, 2.09009
172, 2, wb, attraction, a-b-da, 5, 2, 7, 37, 165, 90, 90, 165, 161, 88, 2, 0.612694
172, 2, wb, attraction, a-b-da, 14, 2, 8, 1, 165, 90, 90, 165, 153, 83, 3, 0.729757
172, 2, wb, attraction, a-b-da, 14, 2, 8, 1, 165, 90, 90, 165, 153, 83, 2, 0.500473
172, 2, wb, attraction, a-b-da, 9, 1, 8, 2, 135, 60, 129, 57, 60, 135, 1, 0.685234
172, 2, wb, attraction, a-b-da, 9, 1, 8, 2, 135, 60, 129, 57, 60, 135, 2, 0.449082
172, 2, wb, filler, NA, 999, 999, 8, 3, 161, 136, 90, 138, 66, 115, 3, 0.932962
172, 2, wb, filler, NA, 999, 999, 8, 3, 161, 136, 90, 138, 66, 115, 1, 0.718516
172, 2, wb, attraction, a-b-da, 14, 1, 8, 4, 135, 60, 125, 56, 60, 135, 3, 0.679587
172, 2, wb, attraction, a-b-da, 14, 1, 8, 4, 135, 60, 125, 56, 60, 135, 1, 0.867335
172, 2, wb, attraction, a-b-db, 2, 1, 8, 5, 59, 134, 60, 135, 135, 60, 2, 0.90238
172, 2, wb, attraction, a-b-db, 2, 1, 8, 5, 59, 134, 60, 135, 135, 60, 3, 0.617417
172, 2, wb, attraction, a-b-da, 14, 3, 8, 6, 120, 195, 195, 120, 181, 111, 1, 0.798454
172, 2, wb, attraction, a-b-da, 14, 3, 8, 6, 120, 195, 195, 120, 181, 111, 2, 0.437503
172, 2, wb, attraction, a-b-da, 2, 3, 8, 7, 193, 119, 120, 195, 195, 120, 2, 1.05796
172, 2, wb, attraction, a-b-da, 2, 3, 8, 7, 193, 119, 120, 195, 195, 120, 3, 0.83833
172, 2, wb, attraction, a-b-da, 5, 1, 8, 8, 135, 60, 60, 135, 132, 58, 2, 0.762663
172, 2, wb, attraction, a-b-da, 5, 1, 8, 8, 135, 60, 60, 135, 132, 58, 1, 0.395114
172, 2, wb, filler, NA, 999, 999, 8, 9, 60, 159, 189, 82, 116, 75, 3, 1.41679
172, 2, wb, filler, NA, 999, 999, 8, 9, 60, 159, 189, 82, 116, 75, 2, 0.455212
172, 2, wb, attraction, a-b-db, 2, 2, 8, 10, 165, 90, 90, 165, 89, 163, 2, 0.626886
172, 2, wb, attraction, a-b-db, 2, 2, 8, 10, 165, 90, 90, 165, 89, 163, 1, 0.816728
172, 2, wb, attraction, a-b-db, 5, 2, 8, 11, 90, 165, 88, 161, 165, 90, 2, 1.14177
172, 2, wb, attraction, a-b-db, 5, 2, 8, 11, 90, 165, 88, 161, 165, 90, 3, 1.2867
172, 2, wb, filler, NA, 999, 999, 8, 12, 161, 195, 118, 96, 58, 158, 2, 0.64879
172, 2, wb, filler, NA, 999, 999, 8, 12, 161, 195, 118, 96, 58, 158, 1, 0.365922
172, 2, wb, attraction, a-b-da, 5, 2, 8, 13, 90, 165, 165, 90, 161, 88, 2, 0.773105
172, 2, wb, attraction, a-b-da, 5, 2, 8, 13, 90, 165, 165, 90, 161, 88, 3, 0.452777
172, 2, wb, filler, NA, 999, 999, 8, 14, 182, 109, 75, 168, 122, 121, 2, 0.544726
172, 2, wb, filler, NA, 999, 999, 8, 14, 182, 109, 75, 168, 122, 121, 1, 0.441747
172, 2, wb, filler, NA, 999, 999, 8, 15, 148, 162, 160, 185, 162, 192, 2, 0.541651
172, 2, wb, filler, NA, 999, 999, 8, 15, 148, 162, 160, 185, 162, 192, 3, 0.926782
172, 2, wb, filler, NA, 999, 999, 8, 16, 57, 194, 66, 91, 159, 93, 2, 1.11106
172, 2, wb, filler, NA, 999, 999, 8, 16, 57, 194, 66, 91, 159, 93, 3, 0.562123
172, 2, wb, attraction, a-b-da, 5, 3, 8, 17, 190, 117, 120, 195, 195, 120, 2, 0.600385
172, 2, wb, attraction, a-b-da, 5, 3, 8, 17, 190, 117, 120, 195, 195, 120, 1, 0.511574
172, 2, wb, attraction, a-b-db, 9, 3, 8, 18, 195, 120, 120, 195, 114, 186, 2, 0.835577
172, 2, wb, attraction, a-b-db, 9, 3, 8, 18, 195, 120, 120, 195, 114, 186, 1, 0.573725
172, 2, wb, attraction, a-b-da, 2, 2, 8, 19, 90, 165, 163, 89, 165, 90, 2, 0.836056
172, 2, wb, attraction, a-b-da, 2, 2, 8, 19, 90, 165, 163, 89, 165, 90, 3, 0.473763
172, 2, wb, catch, NA, 999, 999, 8, 20, 141, 174, 131, 64, 98, 157, 2, 0.684235
172, 2, wb, catch, NA, 999, 999, 8, 20, 141, 174, 131, 64, 98, 157, 1, 0.65604
172, 2, wb, attraction, a-b-db, 5, 1, 8, 21, 135, 60, 58, 132, 60, 135, 2, 0.691064
172, 2, wb, attraction, a-b-db, 5, 1, 8, 21, 135, 60, 58, 132, 60, 135, 3, 0.550224
172, 2, wb, filler, NA, 999, 999, 8, 22, 189, 91, 165, 184, 159, 125, 1, 1.50996
172, 2, wb, filler, NA, 999, 999, 8, 22, 189, 91, 165, 184, 159, 125, 2, 0.456136
172, 2, wb, attraction, a-b-da, 2, 1, 8, 23, 134, 59, 60, 135, 135, 60, 3, 1.37922
172, 2, wb, attraction, a-b-da, 2, 1, 8, 23, 134, 59, 60, 135, 135, 60, 2, 0.658779
172, 2, wb, attraction, a-b-db, 2, 3, 8, 24, 195, 120, 119, 193, 120, 195, 1, 1.00588
172, 2, wb, attraction, a-b-db, 2, 3, 8, 24, 195, 120, 119, 193, 120, 195, 3, 0.540199
172, 2, wb, filler, NA, 999, 999, 8, 25, 162, 61, 138, 114, 85, 143, 1, 1.13992
172, 2, wb, filler, NA, 999, 999, 8, 25, 162, 61, 138, 114, 85, 143, 2, 0.556882
172, 2, wb, filler, NA, 999, 999, 8, 26, 178, 131, 88, 85, 178, 132, 2, 1.13207
172, 2, wb, filler, NA, 999, 999, 8, 26, 178, 131, 88, 85, 178, 132, 3, 0.445602
172, 2, wb, attraction, a-b-db, 14, 1, 8, 27, 60, 135, 135, 60, 56, 125, 2, 0.865433
172, 2, wb, attraction, a-b-db, 14, 1, 8, 27, 60, 135, 135, 60, 56, 125, 1, 0.733805
172, 2, wb, attraction, a-b-db, 14, 3, 8, 28, 195, 120, 111, 181, 120, 195, 2, 2.51025
172, 2, wb, attraction, a-b-db, 14, 3, 8, 28, 195, 120, 111, 181, 120, 195, 3, 0.568103
172, 2, wb, catch, NA, 999, 999, 8, 29, 146, 109, 113, 82, 125, 190, 2, 0.655129
172, 2, wb, catch, NA, 999, 999, 8, 29, 146, 109, 113, 82, 125, 190, 3, 0.619566
172, 2, wb, attraction, a-b-db, 9, 1, 8, 30, 60, 135, 57, 129, 135, 60, 2, 0.792717
172, 2, wb, attraction, a-b-db, 9, 1, 8, 30, 60, 135, 57, 129, 135, 60, 1, 0.631773
172, 2, wb, catch, NA, 999, 999, 8, 31, 83, 112, 139, 176, 99, 156, 1, 1.18811
172, 2, wb, catch, NA, 999, 999, 8, 31, 83, 112, 139, 176, 99, 156, 2, 0.467073
172, 2, wb, filler, NA, 999, 999, 8, 32, 74, 137, 193, 148, 85, 110, 1, 1.46219
172, 2, wb, filler, NA, 999, 999, 8, 32, 74, 137, 193, 148, 85, 110, 2, 0.466344
172, 2, wb, attraction, a-b-db, 9, 2, 8, 33, 86, 157, 90, 165, 165, 90, 1, 1.29352
172, 2, wb, attraction, a-b-db, 9, 2, 8, 33, 86, 157, 90, 165, 165, 90, 2, 0.888397
172, 2, wb, attraction, a-b-db, 14, 2, 8, 34, 83, 153, 165, 90, 90, 165, 1, 0.778702
172, 2, wb, attraction, a-b-db, 14, 2, 8, 34, 83, 153, 165, 90, 90, 165, 2, 0.866436
172, 2, wb, attraction, a-b-da, 9, 2, 8, 35, 165, 90, 90, 165, 157, 86, 1, 0.869371
172, 2, wb, attraction, a-b-da, 9, 2, 8, 35, 165, 90, 90, 165, 157, 86, 2, 0.8738
172, 2, wb, attraction, a-b-db, 5, 3, 8, 36, 117, 190, 120, 195, 195, 120, 2, 1.66815
172, 2, wb, attraction, a-b-db, 5, 3, 8, 36, 117, 190, 120, 195, 195, 120, 3, 0.608282
172, 2, wb, attraction, a-b-da, 9, 3, 8, 37, 120, 195, 195, 120, 186, 114, 3, 1.06135
172, 2, wb, attraction, a-b-da, 9, 3, 8, 37, 120, 195, 195, 120, 186, 114, 2, 0.513739
