sub_n, computer_n, bw_cond, effect, set, distance, diag, block_n, trial_n, h1, w1, h2, w2, h3, w3, choice, rt 
168, 2, wb, practice, NA, 999, 999, 0, 1, 187, 152, 185, 59, 83, 137, 3, 3.6209
168, 2, wb, practice, NA, 999, 999, 0, 1, 187, 152, 185, 59, 83, 137, 1, 2.67274
168, 2, wb, practice, NA, 999, 999, 0, 2, 181, 152, 156, 147, 177, 56, 3, 3.55326
168, 2, wb, practice, NA, 999, 999, 0, 2, 181, 152, 156, 147, 177, 56, 1, 5.52978
168, 2, wb, practice, NA, 999, 999, 0, 3, 121, 120, 134, 184, 159, 74, 3, 11.4927
168, 2, wb, practice, NA, 999, 999, 0, 3, 121, 120, 134, 184, 159, 74, 2, 1.40433
168, 2, wb, attraction, a-b-db, 9, 3, 1, 1, 114, 186, 195, 120, 120, 195, 1, 6.12812
168, 2, wb, attraction, a-b-db, 9, 3, 1, 1, 114, 186, 195, 120, 120, 195, 3, 1.48038
168, 2, wb, attraction, a-b-db, 9, 1, 1, 2, 135, 60, 57, 129, 60, 135, 2, 3.69035
168, 2, wb, attraction, a-b-db, 9, 1, 1, 2, 135, 60, 57, 129, 60, 135, 3, 3.58845
168, 2, wb, attraction, a-b-da, 2, 2, 1, 3, 163, 89, 165, 90, 90, 165, 2, 5.40189
168, 2, wb, attraction, a-b-da, 2, 2, 1, 3, 163, 89, 165, 90, 90, 165, 3, 1.2797
168, 2, wb, filler, NA, 999, 999, 1, 4, 181, 122, 193, 72, 97, 126, 3, 5.12976
168, 2, wb, filler, NA, 999, 999, 1, 4, 181, 122, 193, 72, 97, 126, 1, 2.11425
168, 2, wb, attraction, a-b-db, 9, 2, 1, 5, 165, 90, 90, 165, 86, 157, 3, 6.62681
168, 2, wb, attraction, a-b-db, 9, 2, 1, 5, 165, 90, 90, 165, 86, 157, 1, 1.69477
168, 2, wb, filler, NA, 999, 999, 1, 6, 67, 68, 74, 96, 178, 144, 1, 1.62407
168, 2, wb, filler, NA, 999, 999, 1, 6, 67, 68, 74, 96, 178, 144, 3, 0.677539
168, 2, wb, attraction, a-b-db, 5, 3, 1, 7, 117, 190, 195, 120, 120, 195, 1, 3.03999
168, 2, wb, attraction, a-b-db, 5, 3, 1, 7, 117, 190, 195, 120, 120, 195, 3, 0.868372
168, 2, wb, filler, NA, 999, 999, 1, 8, 141, 156, 96, 104, 56, 109, 3, 2.06327
168, 2, wb, filler, NA, 999, 999, 1, 8, 141, 156, 96, 104, 56, 109, 1, 0.819317
168, 2, wb, attraction, a-b-db, 5, 1, 1, 9, 60, 135, 135, 60, 58, 132, 2, 1.87231
168, 2, wb, attraction, a-b-db, 5, 1, 1, 9, 60, 135, 135, 60, 58, 132, 1, 1.91569
168, 2, wb, filler, NA, 999, 999, 1, 10, 120, 184, 176, 75, 156, 194, 2, 2.10842
168, 2, wb, filler, NA, 999, 999, 1, 10, 120, 184, 176, 75, 156, 194, 3, 0.79037
168, 2, wb, attraction, a-b-db, 2, 1, 1, 11, 60, 135, 59, 134, 135, 60, 1, 3.692
168, 2, wb, attraction, a-b-db, 2, 1, 1, 11, 60, 135, 59, 134, 135, 60, 2, 3.40621
168, 2, wb, filler, NA, 999, 999, 1, 12, 87, 131, 57, 58, 100, 154, 2, 1.34703
168, 2, wb, filler, NA, 999, 999, 1, 12, 87, 131, 57, 58, 100, 154, 3, 0.748008
168, 2, wb, attraction, a-b-da, 14, 2, 1, 13, 153, 83, 165, 90, 90, 165, 1, 4.17173
168, 2, wb, attraction, a-b-da, 14, 2, 1, 13, 153, 83, 165, 90, 90, 165, 3, 0.490404
168, 2, wb, attraction, a-b-da, 2, 3, 1, 14, 193, 119, 195, 120, 120, 195, 1, 5.38811
168, 2, wb, attraction, a-b-da, 2, 3, 1, 14, 193, 119, 195, 120, 120, 195, 3, 0.882368
168, 2, wb, filler, NA, 999, 999, 1, 15, 86, 115, 134, 183, 81, 194, 1, 2.55686
168, 2, wb, filler, NA, 999, 999, 1, 15, 86, 115, 134, 183, 81, 194, 2, 1.22068
168, 2, wb, attraction, a-b-db, 2, 2, 1, 16, 90, 165, 165, 90, 89, 163, 3, 2.28147
168, 2, wb, attraction, a-b-db, 2, 2, 1, 16, 90, 165, 165, 90, 89, 163, 1, 0.612848
168, 2, wb, catch, NA, 999, 999, 1, 17, 101, 94, 175, 140, 114, 141, 1, 1.16989
168, 2, wb, catch, NA, 999, 999, 1, 17, 101, 94, 175, 140, 114, 141, 2, 0.553481
168, 2, wb, attraction, a-b-da, 5, 3, 1, 18, 190, 117, 120, 195, 195, 120, 1, 2.0972
168, 2, wb, attraction, a-b-da, 5, 3, 1, 18, 190, 117, 120, 195, 195, 120, 2, 0.755864
168, 2, wb, attraction, a-b-da, 9, 1, 1, 19, 129, 57, 60, 135, 135, 60, 2, 8.68362
168, 2, wb, attraction, a-b-da, 9, 1, 1, 19, 129, 57, 60, 135, 135, 60, 3, 1.50094
168, 2, wb, filler, NA, 999, 999, 1, 20, 124, 164, 130, 176, 159, 108, 3, 2.81435
168, 2, wb, filler, NA, 999, 999, 1, 20, 124, 164, 130, 176, 159, 108, 2, 0.836073
168, 2, wb, attraction, a-b-da, 14, 3, 1, 21, 120, 195, 195, 120, 181, 111, 3, 4.2006
168, 2, wb, attraction, a-b-da, 14, 3, 1, 21, 120, 195, 195, 120, 181, 111, 1, 1.39043
168, 2, wb, catch, NA, 999, 999, 1, 22, 152, 163, 123, 72, 143, 112, 2, 2.02788
168, 2, wb, catch, NA, 999, 999, 1, 22, 152, 163, 123, 72, 143, 112, 1, 0.873291
168, 2, wb, attraction, a-b-db, 2, 3, 1, 23, 120, 195, 195, 120, 119, 193, 3, 3.47566
168, 2, wb, attraction, a-b-db, 2, 3, 1, 23, 120, 195, 195, 120, 119, 193, 1, 1.51842
168, 2, wb, catch, NA, 999, 999, 1, 24, 134, 121, 184, 131, 126, 69, 3, 1.23121
168, 2, wb, catch, NA, 999, 999, 1, 24, 134, 121, 184, 131, 126, 69, 2, 0.444807
168, 2, wb, filler, NA, 999, 999, 1, 25, 66, 191, 174, 104, 146, 57, 3, 0.968605
168, 2, wb, filler, NA, 999, 999, 1, 25, 66, 191, 174, 104, 146, 57, 2, 0.656927
168, 2, wb, attraction, a-b-db, 14, 1, 1, 26, 60, 135, 56, 125, 135, 60, 2, 1.82017
168, 2, wb, attraction, a-b-db, 14, 1, 1, 26, 60, 135, 56, 125, 135, 60, 1, 2.43356
168, 2, wb, filler, NA, 999, 999, 1, 27, 195, 64, 178, 105, 118, 180, 1, 5.45324
168, 2, wb, filler, NA, 999, 999, 1, 27, 195, 64, 178, 105, 118, 180, 3, 1.31307
168, 2, wb, attraction, a-b-db, 14, 2, 1, 28, 90, 165, 165, 90, 83, 153, 3, 5.26587
168, 2, wb, attraction, a-b-db, 14, 2, 1, 28, 90, 165, 165, 90, 83, 153, 1, 1.11689
168, 2, wb, attraction, a-b-da, 2, 1, 1, 29, 60, 135, 134, 59, 135, 60, 2, 3.54972
168, 2, wb, attraction, a-b-da, 2, 1, 1, 29, 60, 135, 134, 59, 135, 60, 1, 1.55786
168, 2, wb, attraction, a-b-da, 9, 3, 1, 30, 120, 195, 186, 114, 195, 120, 3, 1.77265
168, 2, wb, attraction, a-b-da, 9, 3, 1, 30, 120, 195, 186, 114, 195, 120, 1, 0.444248
168, 2, wb, filler, NA, 999, 999, 1, 31, 91, 122, 103, 74, 113, 103, 2, 1.8319
168, 2, wb, filler, NA, 999, 999, 1, 31, 91, 122, 103, 74, 113, 103, 3, 0.78147
168, 2, wb, attraction, a-b-da, 5, 2, 1, 32, 161, 88, 90, 165, 165, 90, 1, 2.31568
168, 2, wb, attraction, a-b-da, 5, 2, 1, 32, 161, 88, 90, 165, 165, 90, 2, 0.629526
168, 2, wb, attraction, a-b-db, 5, 2, 1, 33, 88, 161, 90, 165, 165, 90, 3, 2.658
168, 2, wb, attraction, a-b-db, 5, 2, 1, 33, 88, 161, 90, 165, 165, 90, 2, 0.80579
168, 2, wb, attraction, a-b-db, 14, 3, 1, 34, 111, 181, 120, 195, 195, 120, 3, 5.72357
168, 2, wb, attraction, a-b-db, 14, 3, 1, 34, 111, 181, 120, 195, 195, 120, 2, 0.859749
168, 2, wb, attraction, a-b-da, 14, 1, 1, 35, 135, 60, 125, 56, 60, 135, 2, 1.63875
168, 2, wb, attraction, a-b-da, 14, 1, 1, 35, 135, 60, 125, 56, 60, 135, 3, 0.79552
168, 2, wb, attraction, a-b-da, 5, 1, 1, 36, 60, 135, 132, 58, 135, 60, 2, 2.18515
168, 2, wb, attraction, a-b-da, 5, 1, 1, 36, 60, 135, 132, 58, 135, 60, 3, 0.704429
168, 2, wb, attraction, a-b-da, 9, 2, 1, 37, 90, 165, 157, 86, 165, 90, 2, 3.30617
168, 2, wb, attraction, a-b-da, 9, 2, 1, 37, 90, 165, 157, 86, 165, 90, 1, 0.76376
168, 2, wb, attraction, a-b-db, 14, 1, 2, 1, 56, 125, 60, 135, 135, 60, 1, 1.49085
168, 2, wb, attraction, a-b-db, 14, 1, 2, 1, 56, 125, 60, 135, 135, 60, 3, 3.41375
168, 2, wb, attraction, a-b-da, 9, 2, 2, 2, 90, 165, 165, 90, 157, 86, 3, 2.72981
168, 2, wb, attraction, a-b-da, 9, 2, 2, 2, 90, 165, 165, 90, 157, 86, 1, 1.09905
168, 2, wb, attraction, a-b-da, 5, 1, 2, 3, 135, 60, 132, 58, 60, 135, 3, 12.5807
168, 2, wb, attraction, a-b-da, 5, 1, 2, 3, 135, 60, 132, 58, 60, 135, 2, 2.25678
168, 2, wb, filler, NA, 999, 999, 2, 4, 157, 61, 110, 178, 138, 70, 1, 5.89187
168, 2, wb, filler, NA, 999, 999, 2, 4, 157, 61, 110, 178, 138, 70, 2, 1.0853
168, 2, wb, attraction, a-b-db, 5, 2, 2, 5, 88, 161, 165, 90, 90, 165, 1, 2.15163
168, 2, wb, attraction, a-b-db, 5, 2, 2, 5, 88, 161, 165, 90, 90, 165, 2, 0.760266
168, 2, wb, attraction, a-b-da, 5, 3, 2, 6, 190, 117, 195, 120, 120, 195, 1, 2.03931
168, 2, wb, attraction, a-b-da, 5, 3, 2, 6, 190, 117, 195, 120, 120, 195, 3, 0.916136
168, 2, wb, attraction, a-b-da, 2, 1, 2, 7, 135, 60, 134, 59, 60, 135, 3, 4.10906
168, 2, wb, attraction, a-b-da, 2, 1, 2, 7, 135, 60, 134, 59, 60, 135, 1, 0.590288
168, 2, wb, attraction, a-b-db, 14, 3, 2, 8, 120, 195, 195, 120, 111, 181, 1, 2.11607
168, 2, wb, attraction, a-b-db, 14, 3, 2, 8, 120, 195, 195, 120, 111, 181, 2, 1.10213
168, 2, wb, filler, NA, 999, 999, 2, 9, 69, 97, 146, 194, 76, 192, 1, 1.28757
168, 2, wb, filler, NA, 999, 999, 2, 9, 69, 97, 146, 194, 76, 192, 2, 0.55453
168, 2, wb, filler, NA, 999, 999, 2, 10, 174, 156, 110, 92, 179, 144, 2, 1.09027
168, 2, wb, filler, NA, 999, 999, 2, 10, 174, 156, 110, 92, 179, 144, 1, 0.349218
168, 2, wb, filler, NA, 999, 999, 2, 11, 146, 87, 129, 164, 153, 104, 1, 2.01318
168, 2, wb, filler, NA, 999, 999, 2, 11, 146, 87, 129, 164, 153, 104, 2, 0.483027
168, 2, wb, filler, NA, 999, 999, 2, 12, 98, 119, 66, 98, 167, 59, 2, 1.12551
168, 2, wb, filler, NA, 999, 999, 2, 12, 98, 119, 66, 98, 167, 59, 1, 0.863151
168, 2, wb, attraction, a-b-db, 14, 2, 2, 13, 90, 165, 165, 90, 83, 153, 3, 2.47413
168, 2, wb, attraction, a-b-db, 14, 2, 2, 13, 90, 165, 165, 90, 83, 153, 1, 0.997488
168, 2, wb, attraction, a-b-db, 5, 1, 2, 14, 60, 135, 135, 60, 58, 132, 3, 2.02714
168, 2, wb, attraction, a-b-db, 5, 1, 2, 14, 60, 135, 135, 60, 58, 132, 1, 0.920386
168, 2, wb, attraction, a-b-da, 2, 2, 2, 15, 90, 165, 163, 89, 165, 90, 3, 3.20936
168, 2, wb, attraction, a-b-da, 2, 2, 2, 15, 90, 165, 163, 89, 165, 90, 2, 2.97502
168, 2, wb, attraction, a-b-da, 14, 2, 2, 16, 153, 83, 90, 165, 165, 90, 3, 3.58868
168, 2, wb, attraction, a-b-da, 14, 2, 2, 16, 153, 83, 90, 165, 165, 90, 2, 0.53084
168, 2, wb, filler, NA, 999, 999, 2, 17, 93, 58, 158, 160, 163, 124, 1, 1.03534
168, 2, wb, filler, NA, 999, 999, 2, 17, 93, 58, 158, 160, 163, 124, 2, 0.440914
168, 2, wb, attraction, a-b-db, 2, 3, 2, 18, 120, 195, 195, 120, 119, 193, 3, 1.54882
168, 2, wb, attraction, a-b-db, 2, 3, 2, 18, 120, 195, 195, 120, 119, 193, 1, 1.2536
168, 2, wb, attraction, a-b-db, 2, 1, 2, 19, 135, 60, 60, 135, 59, 134, 1, 1.9211
168, 2, wb, attraction, a-b-db, 2, 1, 2, 19, 135, 60, 60, 135, 59, 134, 3, 1.11453
168, 2, wb, catch, NA, 999, 999, 2, 20, 105, 150, 157, 158, 66, 129, 3, 0.947451
168, 2, wb, catch, NA, 999, 999, 2, 20, 105, 150, 157, 158, 66, 129, 2, 0.82049
168, 2, wb, filler, NA, 999, 999, 2, 21, 110, 73, 193, 98, 184, 60, 1, 0.785429
168, 2, wb, filler, NA, 999, 999, 2, 21, 110, 73, 193, 98, 184, 60, 2, 0.497224
168, 2, wb, catch, NA, 999, 999, 2, 22, 105, 90, 112, 143, 190, 125, 1, 0.842926
168, 2, wb, catch, NA, 999, 999, 2, 22, 105, 90, 112, 143, 190, 125, 3, 0.728006
168, 2, wb, attraction, a-b-da, 9, 1, 2, 23, 60, 135, 135, 60, 129, 57, 3, 1.56037
168, 2, wb, attraction, a-b-da, 9, 1, 2, 23, 60, 135, 135, 60, 129, 57, 1, 1.04851
168, 2, wb, catch, NA, 999, 999, 2, 24, 100, 155, 65, 130, 129, 186, 2, 0.94016
168, 2, wb, catch, NA, 999, 999, 2, 24, 100, 155, 65, 130, 129, 186, 3, 0.39714
168, 2, wb, attraction, a-b-da, 14, 1, 2, 25, 125, 56, 135, 60, 60, 135, 3, 1.395
168, 2, wb, attraction, a-b-da, 14, 1, 2, 25, 125, 56, 135, 60, 60, 135, 2, 0.585954
168, 2, wb, filler, NA, 999, 999, 2, 26, 99, 156, 191, 120, 134, 128, 3, 0.92027
168, 2, wb, filler, NA, 999, 999, 2, 26, 99, 156, 191, 120, 134, 128, 2, 0.834002
168, 2, wb, attraction, a-b-db, 9, 3, 2, 27, 120, 195, 114, 186, 195, 120, 3, 1.2463
168, 2, wb, attraction, a-b-db, 9, 3, 2, 27, 120, 195, 114, 186, 195, 120, 1, 0.803232
168, 2, wb, attraction, a-b-db, 2, 2, 2, 28, 89, 163, 165, 90, 90, 165, 2, 5.68899
168, 2, wb, attraction, a-b-db, 2, 2, 2, 28, 89, 163, 165, 90, 90, 165, 3, 0.578583
168, 2, wb, attraction, a-b-da, 9, 3, 2, 29, 120, 195, 186, 114, 195, 120, 3, 3.88085
168, 2, wb, attraction, a-b-da, 9, 3, 2, 29, 120, 195, 186, 114, 195, 120, 1, 0.483577
168, 2, wb, filler, NA, 999, 999, 2, 30, 195, 164, 73, 140, 149, 151, 2, 1.07809
168, 2, wb, filler, NA, 999, 999, 2, 30, 195, 164, 73, 140, 149, 151, 1, 0.809791
168, 2, wb, attraction, a-b-da, 5, 2, 2, 31, 165, 90, 161, 88, 90, 165, 2, 4.59078
168, 2, wb, attraction, a-b-da, 5, 2, 2, 31, 165, 90, 161, 88, 90, 165, 3, 0.316806
168, 2, wb, attraction, a-b-db, 9, 1, 2, 32, 57, 129, 60, 135, 135, 60, 1, 2.22982
168, 2, wb, attraction, a-b-db, 9, 1, 2, 32, 57, 129, 60, 135, 135, 60, 2, 1.5951
168, 2, wb, attraction, a-b-da, 14, 3, 2, 33, 195, 120, 120, 195, 181, 111, 3, 1.22446
168, 2, wb, attraction, a-b-da, 14, 3, 2, 33, 195, 120, 120, 195, 181, 111, 2, 0.558121
168, 2, wb, attraction, a-b-db, 5, 3, 2, 34, 120, 195, 195, 120, 117, 190, 2, 9.47724
168, 2, wb, attraction, a-b-db, 5, 3, 2, 34, 120, 195, 195, 120, 117, 190, 3, 0.422198
168, 2, wb, attraction, a-b-da, 2, 3, 2, 35, 195, 120, 120, 195, 193, 119, 3, 6.33143
168, 2, wb, attraction, a-b-da, 2, 3, 2, 35, 195, 120, 120, 195, 193, 119, 2, 6.55538
168, 2, wb, filler, NA, 999, 999, 2, 36, 90, 139, 187, 151, 165, 180, 1, 1.08923
168, 2, wb, filler, NA, 999, 999, 2, 36, 90, 139, 187, 151, 165, 180, 3, 0.892236
168, 2, wb, attraction, a-b-db, 9, 2, 2, 37, 165, 90, 90, 165, 86, 157, 3, 2.14982
168, 2, wb, attraction, a-b-db, 9, 2, 2, 37, 165, 90, 90, 165, 86, 157, 1, 1.09449
168, 2, wb, attraction, a-b-db, 2, 2, 3, 1, 165, 90, 90, 165, 89, 163, 3, 3.56805
168, 2, wb, attraction, a-b-db, 2, 2, 3, 1, 165, 90, 90, 165, 89, 163, 1, 2.02381
168, 2, wb, filler, NA, 999, 999, 3, 2, 77, 65, 132, 182, 169, 126, 1, 1.80352
168, 2, wb, filler, NA, 999, 999, 3, 2, 77, 65, 132, 182, 169, 126, 2, 1.00971
168, 2, wb, filler, NA, 999, 999, 3, 3, 121, 162, 173, 134, 57, 78, 3, 1.03054
168, 2, wb, filler, NA, 999, 999, 3, 3, 121, 162, 173, 134, 57, 78, 1, 5.67625
168, 2, wb, attraction, a-b-db, 9, 3, 3, 4, 120, 195, 195, 120, 114, 186, 3, 2.10909
168, 2, wb, attraction, a-b-db, 9, 3, 3, 4, 120, 195, 195, 120, 114, 186, 1, 1.23909
168, 2, wb, filler, NA, 999, 999, 3, 5, 80, 187, 170, 169, 192, 66, 1, 1.4753
168, 2, wb, filler, NA, 999, 999, 3, 5, 80, 187, 170, 169, 192, 66, 2, 2.35883
168, 2, wb, attraction, a-b-db, 14, 3, 3, 6, 195, 120, 111, 181, 120, 195, 1, 9.7013
168, 2, wb, attraction, a-b-db, 14, 3, 3, 6, 195, 120, 111, 181, 120, 195, 3, 1.79763
168, 2, wb, attraction, a-b-da, 14, 1, 3, 7, 135, 60, 125, 56, 60, 135, 1, 0.890988
168, 2, wb, attraction, a-b-da, 14, 1, 3, 7, 135, 60, 125, 56, 60, 135, 3, 1.20606
168, 2, wb, filler, NA, 999, 999, 3, 8, 60, 138, 108, 103, 83, 128, 1, 2.9637
168, 2, wb, filler, NA, 999, 999, 3, 8, 60, 138, 108, 103, 83, 128, 2, 4.17937
168, 2, wb, filler, NA, 999, 999, 3, 9, 67, 174, 133, 170, 180, 166, 1, 6.50465
168, 2, wb, filler, NA, 999, 999, 3, 9, 67, 174, 133, 170, 180, 166, 3, 0.793915
168, 2, wb, attraction, a-b-da, 5, 1, 3, 10, 60, 135, 132, 58, 135, 60, 1, 3.10365
168, 2, wb, attraction, a-b-da, 5, 1, 3, 10, 60, 135, 132, 58, 135, 60, 3, 1.38606
168, 2, wb, attraction, a-b-db, 5, 3, 3, 11, 117, 190, 120, 195, 195, 120, 1, 2.38423
168, 2, wb, attraction, a-b-db, 5, 3, 3, 11, 117, 190, 120, 195, 195, 120, 3, 2.0393
168, 2, wb, attraction, a-b-da, 9, 3, 3, 12, 195, 120, 120, 195, 186, 114, 3, 2.2834
168, 2, wb, attraction, a-b-da, 9, 3, 3, 12, 195, 120, 120, 195, 186, 114, 2, 2.1426
168, 2, wb, attraction, a-b-da, 2, 1, 3, 13, 135, 60, 60, 135, 134, 59, 3, 3.85386
168, 2, wb, attraction, a-b-da, 2, 1, 3, 13, 135, 60, 60, 135, 134, 59, 2, 0.513982
168, 2, wb, attraction, a-b-db, 9, 1, 3, 14, 60, 135, 135, 60, 57, 129, 3, 3.99511
168, 2, wb, attraction, a-b-db, 9, 1, 3, 14, 60, 135, 135, 60, 57, 129, 2, 1.58518
168, 2, wb, attraction, a-b-da, 9, 1, 3, 15, 135, 60, 60, 135, 129, 57, 3, 7.71942
168, 2, wb, attraction, a-b-da, 9, 1, 3, 15, 135, 60, 60, 135, 129, 57, 1, 1.21542
168, 2, wb, attraction, a-b-da, 5, 2, 3, 16, 165, 90, 90, 165, 161, 88, 3, 3.34835
168, 2, wb, attraction, a-b-da, 5, 2, 3, 16, 165, 90, 90, 165, 161, 88, 2, 0.476649
168, 2, wb, attraction, a-b-da, 2, 2, 3, 17, 90, 165, 163, 89, 165, 90, 3, 0.823174
168, 2, wb, attraction, a-b-da, 2, 2, 3, 17, 90, 165, 163, 89, 165, 90, 1, 0.548874
168, 2, wb, catch, NA, 999, 999, 3, 18, 163, 152, 83, 112, 126, 129, 2, 1.0686
168, 2, wb, catch, NA, 999, 999, 3, 18, 163, 152, 83, 112, 126, 129, 1, 0.760968
168, 2, wb, attraction, a-b-db, 5, 1, 3, 19, 58, 132, 135, 60, 60, 135, 3, 0.863836
168, 2, wb, attraction, a-b-db, 5, 1, 3, 19, 58, 132, 135, 60, 60, 135, 2, 1.37247
168, 2, wb, attraction, a-b-da, 14, 2, 3, 20, 153, 83, 165, 90, 90, 165, 1, 1.10719
168, 2, wb, attraction, a-b-da, 14, 2, 3, 20, 153, 83, 165, 90, 90, 165, 3, 0.6214
168, 2, wb, attraction, a-b-da, 2, 3, 3, 21, 120, 195, 195, 120, 193, 119, 3, 1.00247
168, 2, wb, attraction, a-b-da, 2, 3, 3, 21, 120, 195, 195, 120, 193, 119, 1, 0.441467
168, 2, wb, attraction, a-b-db, 14, 2, 3, 22, 83, 153, 90, 165, 165, 90, 1, 3.16527
168, 2, wb, attraction, a-b-db, 14, 2, 3, 22, 83, 153, 90, 165, 165, 90, 3, 1.12495
168, 2, wb, filler, NA, 999, 999, 3, 23, 151, 152, 135, 126, 71, 162, 3, 1.14919
168, 2, wb, filler, NA, 999, 999, 3, 23, 151, 152, 135, 126, 71, 162, 1, 0.614145
168, 2, wb, attraction, a-b-db, 9, 2, 3, 24, 86, 157, 165, 90, 90, 165, 1, 1.33917
168, 2, wb, attraction, a-b-db, 9, 2, 3, 24, 86, 157, 165, 90, 90, 165, 3, 0.820165
168, 2, wb, attraction, a-b-db, 14, 1, 3, 25, 135, 60, 60, 135, 56, 125, 3, 3.79316
168, 2, wb, attraction, a-b-db, 14, 1, 3, 25, 135, 60, 60, 135, 56, 125, 2, 0.455261
168, 2, wb, filler, NA, 999, 999, 3, 26, 77, 120, 86, 186, 114, 143, 1, 5.6991
168, 2, wb, filler, NA, 999, 999, 3, 26, 77, 120, 86, 186, 114, 143, 3, 2.08467
168, 2, wb, filler, NA, 999, 999, 3, 27, 83, 168, 112, 174, 81, 162, 3, 1.60652
168, 2, wb, filler, NA, 999, 999, 3, 27, 83, 168, 112, 174, 81, 162, 2, 1.15677
168, 2, wb, filler, NA, 999, 999, 3, 28, 195, 161, 62, 190, 57, 92, 3, 0.843683
168, 2, wb, filler, NA, 999, 999, 3, 28, 195, 161, 62, 190, 57, 92, 1, 0.656686
168, 2, wb, catch, NA, 999, 999, 3, 29, 118, 137, 195, 120, 74, 121, 3, 3.45177
168, 2, wb, catch, NA, 999, 999, 3, 29, 118, 137, 195, 120, 74, 121, 2, 0.86394
168, 2, wb, attraction, a-b-db, 2, 1, 3, 30, 59, 134, 60, 135, 135, 60, 3, 2.59492
168, 2, wb, attraction, a-b-db, 2, 1, 3, 30, 59, 134, 60, 135, 135, 60, 1, 1.19347
168, 2, wb, catch, NA, 999, 999, 3, 31, 135, 120, 157, 158, 79, 116, 3, 0.799042
168, 2, wb, catch, NA, 999, 999, 3, 31, 135, 120, 157, 158, 79, 116, 2, 0.646151
168, 2, wb, attraction, a-b-db, 2, 3, 3, 32, 120, 195, 195, 120, 119, 193, 3, 3.48179
168, 2, wb, attraction, a-b-db, 2, 3, 3, 32, 120, 195, 195, 120, 119, 193, 1, 0.652645
168, 2, wb, attraction, a-b-da, 14, 3, 3, 33, 195, 120, 181, 111, 120, 195, 3, 2.90446
168, 2, wb, attraction, a-b-da, 14, 3, 3, 33, 195, 120, 181, 111, 120, 195, 1, 2.09814
168, 2, wb, attraction, a-b-da, 9, 2, 3, 34, 165, 90, 157, 86, 90, 165, 1, 5.23536
168, 2, wb, attraction, a-b-da, 9, 2, 3, 34, 165, 90, 157, 86, 90, 165, 3, 0.639763
168, 2, wb, filler, NA, 999, 999, 3, 35, 162, 130, 145, 142, 181, 166, 1, 0.939447
168, 2, wb, filler, NA, 999, 999, 3, 35, 162, 130, 145, 142, 181, 166, 3, 0.604543
168, 2, wb, attraction, a-b-da, 5, 3, 3, 36, 195, 120, 120, 195, 190, 117, 3, 2.17828
168, 2, wb, attraction, a-b-da, 5, 3, 3, 36, 195, 120, 120, 195, 190, 117, 1, 0.697594
168, 2, wb, attraction, a-b-db, 5, 2, 3, 37, 90, 165, 88, 161, 165, 90, 3, 4.21124
168, 2, wb, attraction, a-b-db, 5, 2, 3, 37, 90, 165, 88, 161, 165, 90, 2, 2.16865
168, 2, wb, filler, NA, 999, 999, 4, 1, 165, 68, 194, 158, 182, 191, 1, 0.895229
168, 2, wb, filler, NA, 999, 999, 4, 1, 165, 68, 194, 158, 182, 191, 3, 0.482258
168, 2, wb, attraction, a-b-db, 5, 3, 4, 2, 195, 120, 117, 190, 120, 195, 1, 4.01282
168, 2, wb, attraction, a-b-db, 5, 3, 4, 2, 195, 120, 117, 190, 120, 195, 2, 2.45816
168, 2, wb, attraction, a-b-da, 2, 1, 4, 3, 60, 135, 135, 60, 134, 59, 3, 1.94862
168, 2, wb, attraction, a-b-da, 2, 1, 4, 3, 60, 135, 135, 60, 134, 59, 1, 0.581292
168, 2, wb, attraction, a-b-da, 14, 1, 4, 4, 60, 135, 125, 56, 135, 60, 2, 1.73185
168, 2, wb, attraction, a-b-da, 14, 1, 4, 4, 60, 135, 125, 56, 135, 60, 3, 0.765136
168, 2, wb, attraction, a-b-da, 5, 2, 4, 5, 161, 88, 90, 165, 165, 90, 1, 13.8042
168, 2, wb, attraction, a-b-da, 5, 2, 4, 5, 161, 88, 90, 165, 165, 90, 2, 0.655181
168, 2, wb, filler, NA, 999, 999, 4, 6, 106, 143, 57, 190, 175, 107, 2, 1.74688
168, 2, wb, filler, NA, 999, 999, 4, 6, 106, 143, 57, 190, 175, 107, 3, 0.723682
168, 2, wb, attraction, a-b-db, 2, 1, 4, 7, 60, 135, 135, 60, 59, 134, 2, 8.44408
168, 2, wb, attraction, a-b-db, 2, 1, 4, 7, 60, 135, 135, 60, 59, 134, 3, 0.758865
168, 2, wb, attraction, a-b-db, 5, 2, 4, 8, 90, 165, 165, 90, 88, 161, 1, 1.78186
168, 2, wb, attraction, a-b-db, 5, 2, 4, 8, 90, 165, 165, 90, 88, 161, 3, 0.669173
168, 2, wb, attraction, a-b-da, 5, 3, 4, 9, 120, 195, 195, 120, 190, 117, 1, 0.80823
168, 2, wb, attraction, a-b-da, 5, 3, 4, 9, 120, 195, 195, 120, 190, 117, 3, 0.558608
168, 2, wb, catch, NA, 999, 999, 4, 10, 101, 94, 137, 178, 93, 162, 1, 0.749661
168, 2, wb, catch, NA, 999, 999, 4, 10, 101, 94, 137, 178, 93, 162, 2, 0.382841
168, 2, wb, attraction, a-b-db, 9, 2, 4, 11, 165, 90, 86, 157, 90, 165, 1, 0.869239
168, 2, wb, attraction, a-b-db, 9, 2, 4, 11, 165, 90, 86, 157, 90, 165, 3, 0.705776
168, 2, wb, filler, NA, 999, 999, 4, 12, 174, 144, 175, 151, 100, 87, 3, 0.707452
168, 2, wb, filler, NA, 999, 999, 4, 12, 174, 144, 175, 151, 100, 87, 2, 1.37381
168, 2, wb, attraction, a-b-db, 14, 2, 4, 13, 83, 153, 165, 90, 90, 165, 1, 1.65999
168, 2, wb, attraction, a-b-db, 14, 2, 4, 13, 83, 153, 165, 90, 90, 165, 3, 0.888124
168, 2, wb, attraction, a-b-da, 14, 3, 4, 14, 120, 195, 181, 111, 195, 120, 1, 1.81847
168, 2, wb, attraction, a-b-da, 14, 3, 4, 14, 120, 195, 181, 111, 195, 120, 3, 0.776517
168, 2, wb, filler, NA, 999, 999, 4, 15, 186, 71, 129, 116, 143, 83, 1, 1.00692
168, 2, wb, filler, NA, 999, 999, 4, 15, 186, 71, 129, 116, 143, 83, 2, 1.09337
168, 2, wb, filler, NA, 999, 999, 4, 16, 128, 167, 123, 172, 64, 179, 3, 0.974787
168, 2, wb, filler, NA, 999, 999, 4, 16, 128, 167, 123, 172, 64, 179, 1, 4.40651
168, 2, wb, filler, NA, 999, 999, 4, 17, 108, 93, 95, 179, 191, 91, 1, 0.763087
168, 2, wb, filler, NA, 999, 999, 4, 17, 108, 93, 95, 179, 191, 91, 3, 3.53947
168, 2, wb, filler, NA, 999, 999, 4, 18, 72, 64, 156, 124, 108, 140, 1, 0.850969
168, 2, wb, filler, NA, 999, 999, 4, 18, 72, 64, 156, 124, 108, 140, 2, 0.855956
168, 2, wb, attraction, a-b-db, 9, 1, 4, 19, 135, 60, 60, 135, 57, 129, 3, 0.979726
168, 2, wb, attraction, a-b-db, 9, 1, 4, 19, 135, 60, 60, 135, 57, 129, 1, 0.827323
168, 2, wb, attraction, a-b-da, 2, 2, 4, 20, 165, 90, 163, 89, 90, 165, 1, 5.18368
168, 2, wb, attraction, a-b-da, 2, 2, 4, 20, 165, 90, 163, 89, 90, 165, 3, 0.838108
168, 2, wb, attraction, a-b-db, 2, 3, 4, 21, 120, 195, 195, 120, 119, 193, 1, 3.08233
168, 2, wb, attraction, a-b-db, 2, 3, 4, 21, 120, 195, 195, 120, 119, 193, 3, 0.837311
168, 2, wb, catch, NA, 999, 999, 4, 22, 121, 134, 126, 69, 193, 122, 2, 0.817677
168, 2, wb, catch, NA, 999, 999, 4, 22, 121, 134, 126, 69, 193, 122, 3, 0.568111
168, 2, wb, attraction, a-b-da, 2, 3, 4, 23, 195, 120, 120, 195, 193, 119, 1, 1.15131
168, 2, wb, attraction, a-b-da, 2, 3, 4, 23, 195, 120, 120, 195, 193, 119, 3, 0.752265
168, 2, wb, attraction, a-b-db, 9, 3, 4, 24, 114, 186, 120, 195, 195, 120, 3, 1.28796
168, 2, wb, attraction, a-b-db, 9, 3, 4, 24, 114, 186, 120, 195, 195, 120, 1, 0.922721
168, 2, wb, attraction, a-b-da, 14, 2, 4, 25, 165, 90, 90, 165, 153, 83, 3, 1.13985
168, 2, wb, attraction, a-b-da, 14, 2, 4, 25, 165, 90, 90, 165, 153, 83, 1, 1.30876
168, 2, wb, attraction, a-b-da, 9, 3, 4, 26, 120, 195, 195, 120, 186, 114, 2, 3.95755
168, 2, wb, attraction, a-b-da, 9, 3, 4, 26, 120, 195, 195, 120, 186, 114, 1, 0.749025
168, 2, wb, attraction, a-b-db, 2, 2, 4, 27, 89, 163, 90, 165, 165, 90, 3, 1.11667
168, 2, wb, attraction, a-b-db, 2, 2, 4, 27, 89, 163, 90, 165, 165, 90, 2, 2.59909
168, 2, wb, filler, NA, 999, 999, 4, 28, 166, 193, 159, 151, 67, 174, 3, 0.740031
168, 2, wb, filler, NA, 999, 999, 4, 28, 166, 193, 159, 151, 67, 174, 1, 0.773161
168, 2, wb, attraction, a-b-da, 5, 1, 4, 29, 135, 60, 132, 58, 60, 135, 3, 0.755571
168, 2, wb, attraction, a-b-da, 5, 1, 4, 29, 135, 60, 132, 58, 60, 135, 2, 2.116
168, 2, wb, attraction, a-b-db, 14, 3, 4, 30, 195, 120, 120, 195, 111, 181, 3, 0.64455
168, 2, wb, attraction, a-b-db, 14, 3, 4, 30, 195, 120, 120, 195, 111, 181, 2, 2.94582
168, 2, wb, attraction, a-b-da, 9, 1, 4, 31, 60, 135, 135, 60, 129, 57, 2, 2.32065
168, 2, wb, attraction, a-b-da, 9, 1, 4, 31, 60, 135, 135, 60, 129, 57, 1, 0.594601
168, 2, wb, attraction, a-b-da, 9, 2, 4, 32, 165, 90, 90, 165, 157, 86, 3, 2.3524
168, 2, wb, attraction, a-b-da, 9, 2, 4, 32, 165, 90, 90, 165, 157, 86, 1, 0.904918
168, 2, wb, attraction, a-b-db, 5, 1, 4, 33, 135, 60, 60, 135, 58, 132, 3, 3.98652
168, 2, wb, attraction, a-b-db, 5, 1, 4, 33, 135, 60, 60, 135, 58, 132, 1, 3.6413
168, 2, wb, catch, NA, 999, 999, 4, 34, 151, 164, 90, 105, 145, 110, 2, 0.852098
168, 2, wb, catch, NA, 999, 999, 4, 34, 151, 164, 90, 105, 145, 110, 1, 0.521181
168, 2, wb, attraction, a-b-db, 14, 1, 4, 35, 60, 135, 135, 60, 56, 125, 1, 3.73821
168, 2, wb, attraction, a-b-db, 14, 1, 4, 35, 60, 135, 135, 60, 56, 125, 2, 0.89835
168, 2, wb, filler, NA, 999, 999, 4, 36, 105, 66, 171, 163, 124, 94, 1, 0.707992
168, 2, wb, filler, NA, 999, 999, 4, 36, 105, 66, 171, 163, 124, 94, 2, 0.342423
168, 2, wb, filler, NA, 999, 999, 4, 37, 191, 121, 120, 189, 123, 189, 3, 0.750337
168, 2, wb, filler, NA, 999, 999, 4, 37, 191, 121, 120, 189, 123, 189, 1, 0.503395
168, 2, wb, filler, NA, 999, 999, 5, 1, 111, 76, 108, 101, 188, 183, 1, 3.1032
168, 2, wb, filler, NA, 999, 999, 5, 1, 111, 76, 108, 101, 188, 183, 3, 1.24147
168, 2, wb, attraction, a-b-db, 5, 2, 5, 2, 88, 161, 90, 165, 165, 90, 3, 1.72506
168, 2, wb, attraction, a-b-db, 5, 2, 5, 2, 88, 161, 90, 165, 165, 90, 1, 4.18251
168, 2, wb, attraction, a-b-da, 2, 1, 5, 3, 60, 135, 134, 59, 135, 60, 2, 4.49186
168, 2, wb, attraction, a-b-da, 2, 1, 5, 3, 60, 135, 134, 59, 135, 60, 3, 5.94181
168, 2, wb, catch, NA, 999, 999, 5, 4, 138, 117, 141, 174, 105, 90, 3, 1.41171
168, 2, wb, catch, NA, 999, 999, 5, 4, 138, 117, 141, 174, 105, 90, 2, 0.473941
168, 2, wb, attraction, a-b-da, 5, 1, 5, 5, 60, 135, 135, 60, 132, 58, 3, 2.18047
168, 2, wb, attraction, a-b-da, 5, 1, 5, 5, 60, 135, 135, 60, 132, 58, 1, 3.20373
168, 2, wb, attraction, a-b-db, 2, 1, 5, 6, 60, 135, 59, 134, 135, 60, 3, 6.35267
168, 2, wb, attraction, a-b-db, 2, 1, 5, 6, 60, 135, 59, 134, 135, 60, 2, 1.40001
168, 2, wb, filler, NA, 999, 999, 5, 7, 65, 127, 150, 127, 117, 70, 3, 1.07742
168, 2, wb, filler, NA, 999, 999, 5, 7, 65, 127, 150, 127, 117, 70, 2, 0.633303
168, 2, wb, attraction, a-b-da, 5, 3, 5, 8, 190, 117, 195, 120, 120, 195, 1, 1.65365
168, 2, wb, attraction, a-b-da, 5, 3, 5, 8, 190, 117, 195, 120, 120, 195, 3, 3.9297
168, 2, wb, attraction, a-b-da, 14, 1, 5, 9, 135, 60, 125, 56, 60, 135, 1, 0.977072
168, 2, wb, attraction, a-b-da, 14, 1, 5, 9, 135, 60, 125, 56, 60, 135, 3, 1.1288
168, 2, wb, filler, NA, 999, 999, 5, 10, 154, 107, 155, 77, 88, 157, 2, 2.13709
168, 2, wb, filler, NA, 999, 999, 5, 10, 154, 107, 155, 77, 88, 157, 1, 0.426357
168, 2, wb, filler, NA, 999, 999, 5, 11, 179, 67, 82, 178, 147, 147, 1, 0.974734
168, 2, wb, filler, NA, 999, 999, 5, 11, 179, 67, 82, 178, 147, 147, 3, 1.07035
168, 2, wb, attraction, a-b-db, 14, 3, 5, 12, 195, 120, 111, 181, 120, 195, 2, 5.93732
168, 2, wb, attraction, a-b-db, 14, 3, 5, 12, 195, 120, 111, 181, 120, 195, 3, 1.53744
168, 2, wb, filler, NA, 999, 999, 5, 13, 99, 128, 119, 113, 132, 129, 1, 1.16161
168, 2, wb, filler, NA, 999, 999, 5, 13, 99, 128, 119, 113, 132, 129, 3, 1.11387
168, 2, wb, attraction, a-b-db, 2, 2, 5, 14, 165, 90, 89, 163, 90, 165, 1, 1.01081
168, 2, wb, attraction, a-b-db, 2, 2, 5, 14, 165, 90, 89, 163, 90, 165, 3, 0.897122
168, 2, wb, attraction, a-b-da, 14, 2, 5, 15, 90, 165, 165, 90, 153, 83, 3, 0.770802
168, 2, wb, attraction, a-b-da, 14, 2, 5, 15, 90, 165, 165, 90, 153, 83, 1, 0.826501
168, 2, wb, attraction, a-b-da, 9, 1, 5, 16, 135, 60, 60, 135, 129, 57, 1, 2.40687
168, 2, wb, attraction, a-b-da, 9, 1, 5, 16, 135, 60, 60, 135, 129, 57, 3, 0.900893
168, 2, wb, filler, NA, 999, 999, 5, 17, 66, 159, 108, 63, 81, 96, 2, 0.718386
168, 2, wb, filler, NA, 999, 999, 5, 17, 66, 159, 108, 63, 81, 96, 1, 1.47286
168, 2, wb, attraction, a-b-da, 9, 3, 5, 18, 186, 114, 195, 120, 120, 195, 1, 1.26765
168, 2, wb, attraction, a-b-da, 9, 3, 5, 18, 186, 114, 195, 120, 120, 195, 3, 0.623795
168, 2, wb, catch, NA, 999, 999, 5, 19, 101, 154, 108, 87, 126, 189, 2, 1.56428
168, 2, wb, catch, NA, 999, 999, 5, 19, 101, 154, 108, 87, 126, 189, 3, 0.396446
168, 2, wb, attraction, a-b-db, 5, 3, 5, 20, 117, 190, 120, 195, 195, 120, 2, 3.3862
168, 2, wb, attraction, a-b-db, 5, 3, 5, 20, 117, 190, 120, 195, 195, 120, 3, 0.905303
168, 2, wb, filler, NA, 999, 999, 5, 21, 80, 139, 56, 106, 135, 81, 2, 0.794797
168, 2, wb, filler, NA, 999, 999, 5, 21, 80, 139, 56, 106, 135, 81, 1, 7.20189
168, 2, wb, attraction, a-b-da, 9, 2, 5, 22, 90, 165, 157, 86, 165, 90, 2, 2.59758
168, 2, wb, attraction, a-b-da, 9, 2, 5, 22, 90, 165, 157, 86, 165, 90, 1, 0.66806
168, 2, wb, attraction, a-b-db, 9, 2, 5, 23, 165, 90, 90, 165, 86, 157, 1, 1.8071
168, 2, wb, attraction, a-b-db, 9, 2, 5, 23, 165, 90, 90, 165, 86, 157, 3, 1.14114
168, 2, wb, attraction, a-b-da, 14, 3, 5, 24, 195, 120, 120, 195, 181, 111, 3, 1.38882
168, 2, wb, attraction, a-b-da, 14, 3, 5, 24, 195, 120, 120, 195, 181, 111, 2, 1.40374
168, 2, wb, attraction, a-b-db, 2, 3, 5, 25, 120, 195, 195, 120, 119, 193, 3, 3.96134
168, 2, wb, attraction, a-b-db, 2, 3, 5, 25, 120, 195, 195, 120, 119, 193, 2, 1.35272
168, 2, wb, attraction, a-b-db, 5, 1, 5, 26, 135, 60, 58, 132, 60, 135, 1, 1.67216
168, 2, wb, attraction, a-b-db, 5, 1, 5, 26, 135, 60, 58, 132, 60, 135, 3, 0.931485
168, 2, wb, attraction, a-b-da, 2, 3, 5, 27, 195, 120, 193, 119, 120, 195, 1, 5.77188
168, 2, wb, attraction, a-b-da, 2, 3, 5, 27, 195, 120, 193, 119, 120, 195, 3, 0.642033
168, 2, wb, attraction, a-b-db, 14, 1, 5, 28, 56, 125, 135, 60, 60, 135, 1, 0.973784
168, 2, wb, attraction, a-b-db, 14, 1, 5, 28, 56, 125, 135, 60, 60, 135, 3, 1.02957
168, 2, wb, attraction, a-b-da, 5, 2, 5, 29, 165, 90, 90, 165, 161, 88, 3, 1.52174
168, 2, wb, attraction, a-b-da, 5, 2, 5, 29, 165, 90, 90, 165, 161, 88, 1, 2.81923
168, 2, wb, attraction, a-b-da, 2, 2, 5, 30, 165, 90, 90, 165, 163, 89, 1, 2.12765
168, 2, wb, attraction, a-b-da, 2, 2, 5, 30, 165, 90, 90, 165, 163, 89, 3, 0.728947
168, 2, wb, filler, NA, 999, 999, 5, 31, 71, 174, 138, 110, 147, 137, 1, 2.72926
168, 2, wb, filler, NA, 999, 999, 5, 31, 71, 174, 138, 110, 147, 137, 3, 0.490515
168, 2, wb, attraction, a-b-db, 9, 1, 5, 32, 135, 60, 60, 135, 57, 129, 3, 1.74018
168, 2, wb, attraction, a-b-db, 9, 1, 5, 32, 135, 60, 60, 135, 57, 129, 1, 1.02894
168, 2, wb, filler, NA, 999, 999, 5, 33, 193, 106, 94, 73, 191, 183, 2, 0.649316
168, 2, wb, filler, NA, 999, 999, 5, 33, 193, 106, 94, 73, 191, 183, 3, 0.350293
168, 2, wb, catch, NA, 999, 999, 5, 34, 187, 128, 131, 124, 77, 118, 3, 0.726315
168, 2, wb, catch, NA, 999, 999, 5, 34, 187, 128, 131, 124, 77, 118, 1, 0.504019
168, 2, wb, filler, NA, 999, 999, 5, 35, 70, 86, 96, 99, 89, 62, 3, 1.88189
168, 2, wb, filler, NA, 999, 999, 5, 35, 70, 86, 96, 99, 89, 62, 2, 0.333022
168, 2, wb, attraction, a-b-db, 14, 2, 5, 36, 83, 153, 165, 90, 90, 165, 1, 1.82166
168, 2, wb, attraction, a-b-db, 14, 2, 5, 36, 83, 153, 165, 90, 90, 165, 3, 0.707049
168, 2, wb, attraction, a-b-db, 9, 3, 5, 37, 114, 186, 195, 120, 120, 195, 1, 2.58806
168, 2, wb, attraction, a-b-db, 9, 3, 5, 37, 114, 186, 195, 120, 120, 195, 3, 0.938605
168, 2, wb, attraction, a-b-da, 5, 2, 6, 1, 161, 88, 165, 90, 90, 165, 2, 2.69883
168, 2, wb, attraction, a-b-da, 5, 2, 6, 1, 161, 88, 165, 90, 90, 165, 3, 0.581449
168, 2, wb, attraction, a-b-db, 9, 1, 6, 2, 60, 135, 57, 129, 135, 60, 2, 1.09978
168, 2, wb, attraction, a-b-db, 9, 1, 6, 2, 60, 135, 57, 129, 135, 60, 1, 2.83867
168, 2, wb, attraction, a-b-da, 9, 2, 6, 3, 165, 90, 90, 165, 157, 86, 3, 1.15452
168, 2, wb, attraction, a-b-da, 9, 2, 6, 3, 165, 90, 90, 165, 157, 86, 1, 1.53076
168, 2, wb, attraction, a-b-db, 5, 2, 6, 4, 165, 90, 90, 165, 88, 161, 1, 1.77891
168, 2, wb, attraction, a-b-db, 5, 2, 6, 4, 165, 90, 90, 165, 88, 161, 3, 1.05838
168, 2, wb, filler, NA, 999, 999, 6, 5, 61, 93, 183, 112, 134, 69, 1, 0.597315
168, 2, wb, filler, NA, 999, 999, 6, 5, 61, 93, 183, 112, 134, 69, 2, 0.492369
168, 2, wb, attraction, a-b-da, 2, 3, 6, 6, 120, 195, 195, 120, 193, 119, 3, 6.20617
168, 2, wb, attraction, a-b-da, 2, 3, 6, 6, 120, 195, 195, 120, 193, 119, 1, 1.25162
168, 2, wb, filler, NA, 999, 999, 6, 7, 140, 134, 160, 68, 101, 169, 2, 0.614996
168, 2, wb, filler, NA, 999, 999, 6, 7, 140, 134, 160, 68, 101, 169, 1, 0.589503
168, 2, wb, attraction, a-b-db, 9, 3, 6, 8, 195, 120, 120, 195, 114, 186, 3, 3.97133
168, 2, wb, attraction, a-b-db, 9, 3, 6, 8, 195, 120, 120, 195, 114, 186, 1, 3.13078
168, 2, wb, attraction, a-b-da, 2, 1, 6, 9, 134, 59, 135, 60, 60, 135, 1, 1.29028
168, 2, wb, attraction, a-b-da, 2, 1, 6, 9, 134, 59, 135, 60, 60, 135, 3, 1.48548
168, 2, wb, filler, NA, 999, 999, 6, 10, 99, 153, 149, 189, 74, 163, 3, 1.19131
168, 2, wb, filler, NA, 999, 999, 6, 10, 99, 153, 149, 189, 74, 163, 2, 0.422282
168, 2, wb, attraction, a-b-da, 5, 1, 6, 11, 132, 58, 135, 60, 60, 135, 1, 1.0595
168, 2, wb, attraction, a-b-da, 5, 1, 6, 11, 132, 58, 135, 60, 60, 135, 3, 1.10376
168, 2, wb, attraction, a-b-db, 5, 1, 6, 12, 58, 132, 135, 60, 60, 135, 2, 1.8974
168, 2, wb, attraction, a-b-db, 5, 1, 6, 12, 58, 132, 135, 60, 60, 135, 3, 0.476188
168, 2, wb, attraction, a-b-db, 5, 3, 6, 13, 120, 195, 117, 190, 195, 120, 2, 3.15854
168, 2, wb, attraction, a-b-db, 5, 3, 6, 13, 120, 195, 117, 190, 195, 120, 3, 0.870226
168, 2, wb, filler, NA, 999, 999, 6, 14, 144, 121, 175, 102, 115, 162, 1, 4.80914
168, 2, wb, filler, NA, 999, 999, 6, 14, 144, 121, 175, 102, 115, 162, 3, 0.798321
168, 2, wb, attraction, a-b-db, 2, 2, 6, 15, 165, 90, 89, 163, 90, 165, 1, 4.84395
168, 2, wb, attraction, a-b-db, 2, 2, 6, 15, 165, 90, 89, 163, 90, 165, 3, 0.927738
168, 2, wb, attraction, a-b-da, 14, 1, 6, 16, 125, 56, 135, 60, 60, 135, 1, 8.65603
168, 2, wb, attraction, a-b-da, 14, 1, 6, 16, 125, 56, 135, 60, 60, 135, 3, 1.51478
168, 2, wb, attraction, a-b-db, 2, 1, 6, 17, 59, 134, 135, 60, 60, 135, 2, 10.3875
168, 2, wb, attraction, a-b-db, 2, 1, 6, 17, 59, 134, 135, 60, 60, 135, 3, 5.73616
168, 2, wb, filler, NA, 999, 999, 6, 18, 57, 187, 142, 164, 101, 178, 1, 1.63111
168, 2, wb, filler, NA, 999, 999, 6, 18, 57, 187, 142, 164, 101, 178, 2, 2.10055
168, 2, wb, attraction, a-b-da, 14, 2, 6, 19, 153, 83, 90, 165, 165, 90, 1, 2.15771
168, 2, wb, attraction, a-b-da, 14, 2, 6, 19, 153, 83, 90, 165, 165, 90, 2, 0.981715
168, 2, wb, filler, NA, 999, 999, 6, 20, 176, 78, 127, 78, 79, 67, 3, 1.29197
168, 2, wb, filler, NA, 999, 999, 6, 20, 176, 78, 127, 78, 79, 67, 1, 0.934918
168, 2, wb, attraction, a-b-da, 9, 3, 6, 21, 195, 120, 186, 114, 120, 195, 2, 5.75127
168, 2, wb, attraction, a-b-da, 9, 3, 6, 21, 195, 120, 186, 114, 120, 195, 3, 2.29484
168, 2, wb, catch, NA, 999, 999, 6, 22, 140, 115, 110, 85, 164, 151, 2, 0.656032
168, 2, wb, catch, NA, 999, 999, 6, 22, 140, 115, 110, 85, 164, 151, 3, 0.356462
168, 2, wb, attraction, a-b-db, 2, 3, 6, 23, 119, 193, 195, 120, 120, 195, 3, 1.06759
168, 2, wb, attraction, a-b-db, 2, 3, 6, 23, 119, 193, 195, 120, 120, 195, 1, 0.927866
168, 2, wb, filler, NA, 999, 999, 6, 24, 182, 169, 138, 178, 162, 61, 3, 0.53621
168, 2, wb, filler, NA, 999, 999, 6, 24, 182, 169, 138, 178, 162, 61, 1, 0.442136
168, 2, wb, attraction, a-b-db, 14, 1, 6, 25, 60, 135, 56, 125, 135, 60, 2, 1.958
168, 2, wb, attraction, a-b-db, 14, 1, 6, 25, 60, 135, 56, 125, 135, 60, 1, 0.637811
168, 2, wb, catch, NA, 999, 999, 6, 26, 138, 117, 139, 176, 95, 100, 3, 0.946326
168, 2, wb, catch, NA, 999, 999, 6, 26, 138, 117, 139, 176, 95, 100, 2, 1.21934
168, 2, wb, attraction, a-b-da, 2, 2, 6, 27, 165, 90, 163, 89, 90, 165, 1, 1.48818
168, 2, wb, attraction, a-b-da, 2, 2, 6, 27, 165, 90, 163, 89, 90, 165, 3, 0.779008
168, 2, wb, attraction, a-b-da, 5, 3, 6, 28, 120, 195, 195, 120, 190, 117, 3, 1.1614
168, 2, wb, attraction, a-b-da, 5, 3, 6, 28, 120, 195, 195, 120, 190, 117, 1, 1.10569
168, 2, wb, attraction, a-b-db, 14, 2, 6, 29, 165, 90, 90, 165, 83, 153, 3, 0.61935
168, 2, wb, attraction, a-b-db, 14, 2, 6, 29, 165, 90, 90, 165, 83, 153, 2, 1.07371
168, 2, wb, attraction, a-b-db, 14, 3, 6, 30, 120, 195, 111, 181, 195, 120, 2, 8.19601
168, 2, wb, attraction, a-b-db, 14, 3, 6, 30, 120, 195, 111, 181, 195, 120, 1, 2.04874
168, 2, wb, attraction, a-b-da, 14, 3, 6, 31, 120, 195, 195, 120, 181, 111, 3, 1.13203
168, 2, wb, attraction, a-b-da, 14, 3, 6, 31, 120, 195, 195, 120, 181, 111, 1, 1.34971
168, 2, wb, attraction, a-b-db, 9, 2, 6, 32, 90, 165, 165, 90, 86, 157, 3, 3.99728
168, 2, wb, attraction, a-b-db, 9, 2, 6, 32, 90, 165, 165, 90, 86, 157, 1, 1.18722
168, 2, wb, filler, NA, 999, 999, 6, 33, 74, 148, 157, 118, 115, 81, 3, 1.34545
168, 2, wb, filler, NA, 999, 999, 6, 33, 74, 148, 157, 118, 115, 81, 2, 0.410287
168, 2, wb, filler, NA, 999, 999, 6, 34, 94, 62, 152, 128, 103, 135, 1, 0.799494
168, 2, wb, filler, NA, 999, 999, 6, 34, 94, 62, 152, 128, 103, 135, 2, 0.518558
168, 2, wb, attraction, a-b-da, 9, 1, 6, 35, 135, 60, 129, 57, 60, 135, 3, 2.2157
168, 2, wb, attraction, a-b-da, 9, 1, 6, 35, 135, 60, 129, 57, 60, 135, 1, 0.397619
168, 2, wb, catch, NA, 999, 999, 6, 36, 117, 78, 124, 191, 107, 148, 1, 0.907419
168, 2, wb, catch, NA, 999, 999, 6, 36, 117, 78, 124, 191, 107, 148, 2, 0.469969
168, 2, wb, filler, NA, 999, 999, 6, 37, 59, 177, 72, 93, 126, 131, 2, 6.8409
168, 2, wb, filler, NA, 999, 999, 6, 37, 59, 177, 72, 93, 126, 131, 3, 1.28409
168, 2, wb, attraction, a-b-da, 9, 2, 7, 1, 165, 90, 157, 86, 90, 165, 2, 5.07028
168, 2, wb, attraction, a-b-da, 9, 2, 7, 1, 165, 90, 157, 86, 90, 165, 1, 4.67333
168, 2, wb, filler, NA, 999, 999, 7, 2, 176, 167, 118, 109, 66, 102, 3, 1.49124
168, 2, wb, filler, NA, 999, 999, 7, 2, 176, 167, 118, 109, 66, 102, 1, 0.437932
168, 2, wb, attraction, a-b-db, 2, 1, 7, 3, 135, 60, 60, 135, 59, 134, 1, 2.81853
168, 2, wb, attraction, a-b-db, 2, 1, 7, 3, 135, 60, 60, 135, 59, 134, 3, 5.32027
168, 2, wb, attraction, a-b-da, 9, 1, 7, 4, 135, 60, 129, 57, 60, 135, 1, 14.392
168, 2, wb, attraction, a-b-da, 9, 1, 7, 4, 135, 60, 129, 57, 60, 135, 3, 0.722735
168, 2, wb, filler, NA, 999, 999, 7, 5, 92, 123, 178, 90, 152, 95, 1, 2.87579
168, 2, wb, filler, NA, 999, 999, 7, 5, 92, 123, 178, 90, 152, 95, 3, 2.96685
168, 2, wb, filler, NA, 999, 999, 7, 6, 132, 89, 137, 129, 109, 105, 1, 3.8851
168, 2, wb, filler, NA, 999, 999, 7, 6, 132, 89, 137, 129, 109, 105, 2, 0.680014
168, 2, wb, attraction, a-b-db, 9, 1, 7, 7, 60, 135, 57, 129, 135, 60, 3, 5.16233
168, 2, wb, attraction, a-b-db, 9, 1, 7, 7, 60, 135, 57, 129, 135, 60, 1, 0.913385
168, 2, wb, attraction, a-b-db, 9, 2, 7, 8, 86, 157, 165, 90, 90, 165, 3, 13.7865
168, 2, wb, attraction, a-b-db, 9, 2, 7, 8, 86, 157, 165, 90, 90, 165, 1, 1.92622
168, 2, wb, filler, NA, 999, 999, 7, 9, 79, 175, 129, 174, 121, 66, 3, 1.3101
168, 2, wb, filler, NA, 999, 999, 7, 9, 79, 175, 129, 174, 121, 66, 2, 0.424164
168, 2, wb, attraction, a-b-da, 9, 3, 7, 10, 195, 120, 186, 114, 120, 195, 2, 4.80468
168, 2, wb, attraction, a-b-da, 9, 3, 7, 10, 195, 120, 186, 114, 120, 195, 3, 1.33044
168, 2, wb, filler, NA, 999, 999, 7, 11, 76, 86, 150, 136, 176, 104, 1, 0.954697
168, 2, wb, filler, NA, 999, 999, 7, 11, 76, 86, 150, 136, 176, 104, 2, 0.603079
168, 2, wb, filler, NA, 999, 999, 7, 12, 92, 90, 147, 103, 108, 90, 1, 1.80075
168, 2, wb, filler, NA, 999, 999, 7, 12, 92, 90, 147, 103, 108, 90, 2, 1.1676
168, 2, wb, filler, NA, 999, 999, 7, 13, 79, 142, 102, 142, 148, 132, 1, 1.53452
168, 2, wb, filler, NA, 999, 999, 7, 13, 79, 142, 102, 142, 148, 132, 3, 1.12795
168, 2, wb, attraction, a-b-db, 5, 3, 7, 14, 117, 190, 195, 120, 120, 195, 2, 5.88035
168, 2, wb, attraction, a-b-db, 5, 3, 7, 14, 117, 190, 195, 120, 120, 195, 3, 2.00238
168, 2, wb, attraction, a-b-da, 2, 3, 7, 15, 120, 195, 193, 119, 195, 120, 2, 16.6397
168, 2, wb, attraction, a-b-da, 2, 3, 7, 15, 120, 195, 193, 119, 195, 120, 1, 0.432391
168, 2, wb, attraction, a-b-da, 5, 1, 7, 16, 132, 58, 135, 60, 60, 135, 1, 1.16485
168, 2, wb, attraction, a-b-da, 5, 1, 7, 16, 132, 58, 135, 60, 60, 135, 3, 0.717129
168, 2, wb, catch, NA, 999, 999, 7, 17, 64, 131, 161, 154, 106, 149, 1, 0.65418
168, 2, wb, catch, NA, 999, 999, 7, 17, 64, 131, 161, 154, 106, 149, 2, 0.394655
168, 2, wb, filler, NA, 999, 999, 7, 18, 194, 178, 116, 163, 72, 178, 3, 1.28058
168, 2, wb, filler, NA, 999, 999, 7, 18, 194, 178, 116, 163, 72, 178, 1, 0.300037
168, 2, wb, attraction, a-b-db, 14, 1, 7, 19, 135, 60, 56, 125, 60, 135, 1, 0.893901
168, 2, wb, attraction, a-b-db, 14, 1, 7, 19, 135, 60, 56, 125, 60, 135, 3, 0.921092
168, 2, wb, attraction, a-b-da, 2, 1, 7, 20, 134, 59, 135, 60, 60, 135, 1, 19.0179
168, 2, wb, attraction, a-b-da, 2, 1, 7, 20, 134, 59, 135, 60, 60, 135, 3, 0.954644
168, 2, wb, catch, NA, 999, 999, 7, 21, 157, 158, 111, 84, 156, 99, 2, 0.970233
168, 2, wb, catch, NA, 999, 999, 7, 21, 157, 158, 111, 84, 156, 99, 1, 0.418574
168, 2, wb, attraction, a-b-da, 2, 2, 7, 22, 165, 90, 163, 89, 90, 165, 1, 1.3437
168, 2, wb, attraction, a-b-da, 2, 2, 7, 22, 165, 90, 163, 89, 90, 165, 3, 0.632638
168, 2, wb, attraction, a-b-da, 5, 3, 7, 23, 120, 195, 190, 117, 195, 120, 1, 0.749059
168, 2, wb, attraction, a-b-da, 5, 3, 7, 23, 120, 195, 190, 117, 195, 120, 3, 1.04621
168, 2, wb, filler, NA, 999, 999, 7, 24, 93, 78, 98, 137, 58, 118, 3, 1.52172
168, 2, wb, filler, NA, 999, 999, 7, 24, 93, 78, 98, 137, 58, 118, 2, 0.859183
168, 2, wb, attraction, a-b-db, 9, 3, 7, 25, 120, 195, 195, 120, 114, 186, 2, 3.79034
168, 2, wb, attraction, a-b-db, 9, 3, 7, 25, 120, 195, 195, 120, 114, 186, 1, 0.556518
168, 2, wb, attraction, a-b-da, 14, 3, 7, 26, 181, 111, 120, 195, 195, 120, 1, 9.12355
168, 2, wb, attraction, a-b-da, 14, 3, 7, 26, 181, 111, 120, 195, 195, 120, 2, 0.858573
168, 2, wb, attraction, a-b-db, 2, 2, 7, 27, 90, 165, 165, 90, 89, 163, 3, 1.14169
168, 2, wb, attraction, a-b-db, 2, 2, 7, 27, 90, 165, 165, 90, 89, 163, 1, 1.11062
168, 2, wb, attraction, a-b-db, 5, 2, 7, 28, 90, 165, 165, 90, 88, 161, 3, 6.60751
168, 2, wb, attraction, a-b-db, 5, 2, 7, 28, 90, 165, 165, 90, 88, 161, 1, 9.62804
168, 2, wb, catch, NA, 999, 999, 7, 29, 139, 176, 157, 98, 134, 61, 3, 0.877627
168, 2, wb, catch, NA, 999, 999, 7, 29, 139, 176, 157, 98, 134, 61, 1, 0.625251
168, 2, wb, attraction, a-b-db, 14, 2, 7, 30, 165, 90, 90, 165, 83, 153, 3, 4.45374
168, 2, wb, attraction, a-b-db, 14, 2, 7, 30, 165, 90, 90, 165, 83, 153, 2, 3.00959
168, 2, wb, attraction, a-b-da, 5, 2, 7, 31, 161, 88, 165, 90, 90, 165, 3, 1.086
168, 2, wb, attraction, a-b-da, 5, 2, 7, 31, 161, 88, 165, 90, 90, 165, 2, 3.21762
168, 2, wb, attraction, a-b-da, 14, 1, 7, 32, 135, 60, 60, 135, 125, 56, 3, 2.17396
168, 2, wb, attraction, a-b-da, 14, 1, 7, 32, 135, 60, 60, 135, 125, 56, 2, 1.06115
168, 2, wb, attraction, a-b-db, 5, 1, 7, 33, 58, 132, 135, 60, 60, 135, 1, 1.79216
168, 2, wb, attraction, a-b-db, 5, 1, 7, 33, 58, 132, 135, 60, 60, 135, 3, 1.6389
168, 2, wb, attraction, a-b-da, 14, 2, 7, 34, 90, 165, 165, 90, 153, 83, 3, 1.75503
168, 2, wb, attraction, a-b-da, 14, 2, 7, 34, 90, 165, 165, 90, 153, 83, 1, 0.706964
168, 2, wb, attraction, a-b-db, 14, 3, 7, 35, 111, 181, 120, 195, 195, 120, 1, 5.22812
168, 2, wb, attraction, a-b-db, 14, 3, 7, 35, 111, 181, 120, 195, 195, 120, 3, 1.20044
168, 2, wb, filler, NA, 999, 999, 7, 36, 104, 101, 103, 156, 130, 87, 1, 1.99
168, 2, wb, filler, NA, 999, 999, 7, 36, 104, 101, 103, 156, 130, 87, 2, 0.420722
168, 2, wb, attraction, a-b-db, 2, 3, 7, 37, 119, 193, 195, 120, 120, 195, 3, 1.6418
168, 2, wb, attraction, a-b-db, 2, 3, 7, 37, 119, 193, 195, 120, 120, 195, 1, 1.38263
168, 2, wb, attraction, a-b-da, 9, 3, 8, 1, 195, 120, 120, 195, 186, 114, 3, 2.66884
168, 2, wb, attraction, a-b-da, 9, 3, 8, 1, 195, 120, 120, 195, 186, 114, 2, 1.16877
168, 2, wb, filler, NA, 999, 999, 8, 2, 108, 64, 127, 59, 104, 184, 1, 0.863512
168, 2, wb, filler, NA, 999, 999, 8, 2, 108, 64, 127, 59, 104, 184, 3, 0.803842
168, 2, wb, attraction, a-b-da, 2, 3, 8, 3, 193, 119, 120, 195, 195, 120, 3, 1.18579
168, 2, wb, attraction, a-b-da, 2, 3, 8, 3, 193, 119, 120, 195, 195, 120, 2, 4.43321
168, 2, wb, filler, NA, 999, 999, 8, 4, 187, 166, 134, 136, 92, 115, 3, 0.756397
168, 2, wb, filler, NA, 999, 999, 8, 4, 187, 166, 134, 136, 92, 115, 1, 0.532821
168, 2, wb, attraction, a-b-db, 5, 1, 8, 5, 58, 132, 60, 135, 135, 60, 3, 4.44524
168, 2, wb, attraction, a-b-db, 5, 1, 8, 5, 58, 132, 60, 135, 135, 60, 1, 1.48122
168, 2, wb, filler, NA, 999, 999, 8, 6, 97, 126, 60, 92, 133, 67, 2, 1.27533
168, 2, wb, filler, NA, 999, 999, 8, 6, 97, 126, 60, 92, 133, 67, 1, 1.27102
168, 2, wb, attraction, a-b-da, 2, 1, 8, 7, 60, 135, 134, 59, 135, 60, 1, 2.76179
168, 2, wb, attraction, a-b-da, 2, 1, 8, 7, 60, 135, 134, 59, 135, 60, 3, 1.74556
168, 2, wb, attraction, a-b-da, 5, 3, 8, 8, 190, 117, 120, 195, 195, 120, 1, 4.77694
168, 2, wb, attraction, a-b-da, 5, 3, 8, 8, 190, 117, 120, 195, 195, 120, 2, 2.26342
168, 2, wb, attraction, a-b-da, 5, 2, 8, 9, 90, 165, 165, 90, 161, 88, 3, 14.578
168, 2, wb, attraction, a-b-da, 5, 2, 8, 9, 90, 165, 165, 90, 161, 88, 1, 0.885388
168, 2, wb, attraction, a-b-db, 5, 2, 8, 10, 90, 165, 165, 90, 88, 161, 3, 12.1678
168, 2, wb, attraction, a-b-db, 5, 2, 8, 10, 90, 165, 165, 90, 88, 161, 1, 2.18068
168, 2, wb, attraction, a-b-da, 9, 1, 8, 11, 60, 135, 135, 60, 129, 57, 3, 1.22658
168, 2, wb, attraction, a-b-da, 9, 1, 8, 11, 60, 135, 135, 60, 129, 57, 1, 1.24803
168, 2, wb, attraction, a-b-db, 2, 1, 8, 12, 60, 135, 135, 60, 59, 134, 2, 14.6436
168, 2, wb, attraction, a-b-db, 2, 1, 8, 12, 60, 135, 135, 60, 59, 134, 3, 1.15637
168, 2, wb, catch, NA, 999, 999, 8, 13, 78, 117, 161, 154, 112, 143, 1, 1.04326
168, 2, wb, catch, NA, 999, 999, 8, 13, 78, 117, 161, 154, 112, 143, 2, 0.504254
168, 2, wb, catch, NA, 999, 999, 8, 14, 117, 138, 184, 131, 127, 68, 3, 1.42613
168, 2, wb, catch, NA, 999, 999, 8, 14, 117, 138, 184, 131, 127, 68, 2, 0.78365
168, 2, wb, attraction, a-b-da, 2, 2, 8, 15, 90, 165, 165, 90, 163, 89, 2, 6.8299
168, 2, wb, attraction, a-b-da, 2, 2, 8, 15, 90, 165, 165, 90, 163, 89, 1, 1.36985
168, 2, wb, filler, NA, 999, 999, 8, 16, 142, 156, 126, 108, 122, 136, 2, 1.66463
168, 2, wb, filler, NA, 999, 999, 8, 16, 142, 156, 126, 108, 122, 136, 1, 1.02871
168, 2, wb, attraction, a-b-db, 9, 3, 8, 17, 120, 195, 195, 120, 114, 186, 3, 12.633
168, 2, wb, attraction, a-b-db, 9, 3, 8, 17, 120, 195, 195, 120, 114, 186, 1, 0.434952
168, 2, wb, attraction, a-b-da, 14, 2, 8, 18, 165, 90, 90, 165, 153, 83, 3, 2.31947
168, 2, wb, attraction, a-b-da, 14, 2, 8, 18, 165, 90, 90, 165, 153, 83, 1, 1.17745
168, 2, wb, attraction, a-b-da, 14, 3, 8, 19, 120, 195, 181, 111, 195, 120, 2, 2.83161
168, 2, wb, attraction, a-b-da, 14, 3, 8, 19, 120, 195, 181, 111, 195, 120, 1, 2.02886
168, 2, wb, attraction, a-b-db, 9, 1, 8, 20, 60, 135, 57, 129, 135, 60, 3, 3.12871
168, 2, wb, attraction, a-b-db, 9, 1, 8, 20, 60, 135, 57, 129, 135, 60, 1, 1.16988
168, 2, wb, attraction, a-b-db, 5, 3, 8, 21, 120, 195, 117, 190, 195, 120, 3, 7.83263
168, 2, wb, attraction, a-b-db, 5, 3, 8, 21, 120, 195, 117, 190, 195, 120, 1, 0.876176
168, 2, wb, attraction, a-b-db, 14, 3, 8, 22, 120, 195, 195, 120, 111, 181, 3, 4.79052
168, 2, wb, attraction, a-b-db, 14, 3, 8, 22, 120, 195, 195, 120, 111, 181, 1, 0.892329
168, 2, wb, attraction, a-b-db, 14, 1, 8, 23, 56, 125, 60, 135, 135, 60, 3, 1.98992
168, 2, wb, attraction, a-b-db, 14, 1, 8, 23, 56, 125, 60, 135, 135, 60, 2, 0.98861
168, 2, wb, filler, NA, 999, 999, 8, 24, 76, 158, 179, 81, 122, 122, 1, 4.15494
168, 2, wb, filler, NA, 999, 999, 8, 24, 76, 158, 179, 81, 122, 122, 3, 4.85839
168, 2, wb, attraction, a-b-da, 9, 2, 8, 25, 165, 90, 90, 165, 157, 86, 3, 1.58012
168, 2, wb, attraction, a-b-da, 9, 2, 8, 25, 165, 90, 90, 165, 157, 86, 2, 0.571895
168, 2, wb, filler, NA, 999, 999, 8, 26, 162, 128, 94, 168, 64, 138, 3, 0.810647
168, 2, wb, filler, NA, 999, 999, 8, 26, 162, 128, 94, 168, 64, 138, 1, 0.808983
168, 2, wb, filler, NA, 999, 999, 8, 27, 172, 166, 58, 172, 185, 163, 2, 0.677969
168, 2, wb, filler, NA, 999, 999, 8, 27, 172, 166, 58, 172, 185, 163, 1, 0.569768
168, 2, wb, attraction, a-b-da, 5, 1, 8, 28, 132, 58, 60, 135, 135, 60, 3, 2.4809
168, 2, wb, attraction, a-b-da, 5, 1, 8, 28, 132, 58, 60, 135, 135, 60, 2, 0.604028
168, 2, wb, attraction, a-b-db, 14, 2, 8, 29, 83, 153, 90, 165, 165, 90, 3, 1.16978
168, 2, wb, attraction, a-b-db, 14, 2, 8, 29, 83, 153, 90, 165, 165, 90, 2, 0.634222
168, 2, wb, attraction, a-b-db, 2, 2, 8, 30, 89, 163, 165, 90, 90, 165, 3, 1.83054
168, 2, wb, attraction, a-b-db, 2, 2, 8, 30, 89, 163, 165, 90, 90, 165, 1, 0.580051
168, 2, wb, attraction, a-b-da, 14, 1, 8, 31, 125, 56, 60, 135, 135, 60, 1, 1.89032
168, 2, wb, attraction, a-b-da, 14, 1, 8, 31, 125, 56, 60, 135, 135, 60, 2, 1.16511
168, 2, wb, attraction, a-b-db, 2, 3, 8, 32, 195, 120, 119, 193, 120, 195, 1, 1.49193
168, 2, wb, attraction, a-b-db, 2, 3, 8, 32, 195, 120, 119, 193, 120, 195, 2, 0.438817
168, 2, wb, filler, NA, 999, 999, 8, 33, 134, 125, 84, 163, 88, 80, 3, 1.04322
168, 2, wb, filler, NA, 999, 999, 8, 33, 134, 125, 84, 163, 88, 80, 1, 0.336335
168, 2, wb, attraction, a-b-db, 9, 2, 8, 34, 90, 165, 86, 157, 165, 90, 2, 1.13687
168, 2, wb, attraction, a-b-db, 9, 2, 8, 34, 90, 165, 86, 157, 165, 90, 3, 0.169695
168, 2, wb, catch, NA, 999, 999, 8, 35, 130, 125, 120, 195, 107, 88, 2, 1.66557
168, 2, wb, catch, NA, 999, 999, 8, 35, 130, 125, 120, 195, 107, 88, 1, 4.71781
168, 2, wb, filler, NA, 999, 999, 8, 36, 155, 145, 152, 150, 58, 171, 3, 0.765616
168, 2, wb, filler, NA, 999, 999, 8, 36, 155, 145, 152, 150, 58, 171, 1, 2.08598
168, 2, wb, filler, NA, 999, 999, 8, 37, 81, 129, 84, 156, 127, 156, 1, 1.9839
168, 2, wb, filler, NA, 999, 999, 8, 37, 81, 129, 84, 156, 127, 156, 3, 0.463294
