sub_n, computer_n, bw_cond, effect, set, distance, diag, block_n, trial_n, h1, w1, h2, w2, h3, w3, choice, rt 
183, 2, bw, practice, NA, 999, 999, 0, 1, 152, 67, 87, 148, 82, 125, 2, 3.82336
183, 2, bw, practice, NA, 999, 999, 0, 1, 152, 67, 87, 148, 82, 125, 3, 2.53475
183, 2, bw, practice, NA, 999, 999, 0, 2, 126, 138, 142, 107, 121, 78, 1, 2.77774
183, 2, bw, practice, NA, 999, 999, 0, 2, 126, 138, 142, 107, 121, 78, 3, 1.29825
183, 2, bw, practice, NA, 999, 999, 0, 3, 195, 146, 98, 146, 106, 84, 1, 1.75036
183, 2, bw, practice, NA, 999, 999, 0, 3, 195, 146, 98, 146, 106, 84, 3, 1.42299
183, 2, bw, catch, NA, 999, 999, 1, 1, 187, 128, 147, 108, 74, 121, 1, 1.55253
183, 2, bw, catch, NA, 999, 999, 1, 1, 187, 128, 147, 108, 74, 121, 3, 1.02527
183, 2, bw, attraction, a-b-da, 14, 2, 1, 2, 165, 90, 153, 83, 90, 165, 3, 2.42161
183, 2, bw, attraction, a-b-da, 14, 2, 1, 2, 165, 90, 153, 83, 90, 165, 2, 1.25885
183, 2, bw, attraction, a-b-db, 2, 1, 1, 3, 60, 135, 59, 134, 135, 60, 2, 2.38168
183, 2, bw, attraction, a-b-db, 2, 1, 1, 3, 60, 135, 59, 134, 135, 60, 3, 1.46092
183, 2, bw, filler, NA, 999, 999, 1, 4, 192, 91, 66, 154, 121, 102, 1, 2.74375
183, 2, bw, filler, NA, 999, 999, 1, 4, 192, 91, 66, 154, 121, 102, 2, 1.80014
183, 2, bw, attraction, a-b-da, 14, 3, 1, 5, 195, 120, 181, 111, 120, 195, 3, 1.20556
183, 2, bw, attraction, a-b-da, 14, 3, 1, 5, 195, 120, 181, 111, 120, 195, 2, 0.659798
183, 2, bw, attraction, a-b-da, 5, 1, 1, 6, 60, 135, 135, 60, 132, 58, 1, 2.09493
183, 2, bw, attraction, a-b-da, 5, 1, 1, 6, 60, 135, 135, 60, 132, 58, 3, 0.977592
183, 2, bw, filler, NA, 999, 999, 1, 7, 138, 161, 122, 120, 85, 160, 1, 1.46382
183, 2, bw, filler, NA, 999, 999, 1, 7, 138, 161, 122, 120, 85, 160, 3, 1.98821
183, 2, bw, attraction, a-b-db, 14, 1, 1, 8, 60, 135, 56, 125, 135, 60, 1, 1.89805
183, 2, bw, attraction, a-b-db, 14, 1, 1, 8, 60, 135, 56, 125, 135, 60, 2, 1.26074
183, 2, bw, attraction, a-b-da, 9, 1, 1, 9, 129, 57, 135, 60, 60, 135, 3, 1.18352
183, 2, bw, attraction, a-b-da, 9, 1, 1, 9, 129, 57, 135, 60, 60, 135, 1, 0.935168
183, 2, bw, attraction, a-b-db, 5, 2, 1, 10, 165, 90, 90, 165, 88, 161, 3, 2.04764
183, 2, bw, attraction, a-b-db, 5, 2, 1, 10, 165, 90, 90, 165, 88, 161, 1, 0.940173
183, 2, bw, attraction, a-b-db, 9, 3, 1, 11, 195, 120, 120, 195, 114, 186, 2, 2.20396
183, 2, bw, attraction, a-b-db, 9, 3, 1, 11, 195, 120, 120, 195, 114, 186, 3, 3.91456
183, 2, bw, filler, NA, 999, 999, 1, 12, 113, 166, 172, 80, 140, 131, 3, 3.69856
183, 2, bw, filler, NA, 999, 999, 1, 12, 113, 166, 172, 80, 140, 131, 2, 0.956639
183, 2, bw, filler, NA, 999, 999, 1, 13, 118, 184, 187, 163, 154, 127, 2, 1.13167
183, 2, bw, filler, NA, 999, 999, 1, 13, 118, 184, 187, 163, 154, 127, 3, 1.06926
183, 2, bw, attraction, a-b-da, 2, 3, 1, 14, 120, 195, 193, 119, 195, 120, 3, 3.77623
183, 2, bw, attraction, a-b-da, 2, 3, 1, 14, 120, 195, 193, 119, 195, 120, 2, 1.80694
183, 2, bw, attraction, a-b-da, 9, 2, 1, 15, 157, 86, 90, 165, 165, 90, 3, 1.69967
183, 2, bw, attraction, a-b-da, 9, 2, 1, 15, 157, 86, 90, 165, 165, 90, 1, 1.03849
183, 2, bw, filler, NA, 999, 999, 1, 16, 136, 190, 189, 191, 63, 82, 2, 1.55468
183, 2, bw, filler, NA, 999, 999, 1, 16, 136, 190, 189, 191, 63, 82, 3, 1.16288
183, 2, bw, filler, NA, 999, 999, 1, 17, 169, 107, 103, 142, 123, 186, 3, 2.04178
183, 2, bw, filler, NA, 999, 999, 1, 17, 169, 107, 103, 142, 123, 186, 2, 1.03842
183, 2, bw, attraction, a-b-db, 5, 1, 1, 18, 135, 60, 58, 132, 60, 135, 3, 2.25069
183, 2, bw, attraction, a-b-db, 5, 1, 1, 18, 135, 60, 58, 132, 60, 135, 2, 0.719406
183, 2, bw, attraction, a-b-da, 14, 1, 1, 19, 135, 60, 125, 56, 60, 135, 3, 1.19244
183, 2, bw, attraction, a-b-da, 14, 1, 1, 19, 135, 60, 125, 56, 60, 135, 2, 0.639375
183, 2, bw, attraction, a-b-da, 2, 2, 1, 20, 163, 89, 90, 165, 165, 90, 2, 1.9639
183, 2, bw, attraction, a-b-da, 2, 2, 1, 20, 163, 89, 90, 165, 165, 90, 3, 0.835942
183, 2, bw, filler, NA, 999, 999, 1, 21, 155, 146, 182, 131, 60, 177, 2, 1.46415
183, 2, bw, filler, NA, 999, 999, 1, 21, 155, 146, 182, 131, 60, 177, 3, 1.23639
183, 2, bw, attraction, a-b-db, 14, 2, 1, 22, 83, 153, 165, 90, 90, 165, 3, 0.952525
183, 2, bw, attraction, a-b-db, 14, 2, 1, 22, 83, 153, 165, 90, 90, 165, 1, 0.625559
183, 2, bw, attraction, a-b-da, 5, 2, 1, 23, 161, 88, 90, 165, 165, 90, 3, 0.99791
183, 2, bw, attraction, a-b-da, 5, 2, 1, 23, 161, 88, 90, 165, 165, 90, 1, 1.005
183, 2, bw, attraction, a-b-db, 14, 3, 1, 24, 111, 181, 120, 195, 195, 120, 2, 1.65866
183, 2, bw, attraction, a-b-db, 14, 3, 1, 24, 111, 181, 120, 195, 195, 120, 1, 0.854805
183, 2, bw, filler, NA, 999, 999, 1, 25, 166, 124, 191, 73, 81, 183, 1, 1.17048
183, 2, bw, filler, NA, 999, 999, 1, 25, 166, 124, 191, 73, 81, 183, 2, 0.586631
183, 2, bw, attraction, a-b-db, 5, 3, 1, 26, 195, 120, 120, 195, 117, 190, 2, 4.6091
183, 2, bw, attraction, a-b-db, 5, 3, 1, 26, 195, 120, 120, 195, 117, 190, 3, 1.00635
183, 2, bw, attraction, a-b-da, 9, 3, 1, 27, 186, 114, 120, 195, 195, 120, 3, 1.5072
183, 2, bw, attraction, a-b-da, 9, 3, 1, 27, 186, 114, 120, 195, 195, 120, 1, 0.709328
183, 2, bw, attraction, a-b-db, 9, 2, 1, 28, 165, 90, 86, 157, 90, 165, 3, 2.90247
183, 2, bw, attraction, a-b-db, 9, 2, 1, 28, 165, 90, 86, 157, 90, 165, 2, 2.54495
183, 2, bw, attraction, a-b-db, 2, 3, 1, 29, 119, 193, 195, 120, 120, 195, 3, 1.87999
183, 2, bw, attraction, a-b-db, 2, 3, 1, 29, 119, 193, 195, 120, 120, 195, 1, 0.563473
183, 2, bw, attraction, a-b-da, 2, 1, 1, 30, 60, 135, 134, 59, 135, 60, 3, 1.98659
183, 2, bw, attraction, a-b-da, 2, 1, 1, 30, 60, 135, 134, 59, 135, 60, 2, 1.43395
183, 2, bw, attraction, a-b-da, 5, 3, 1, 31, 195, 120, 120, 195, 190, 117, 2, 5.70205
183, 2, bw, attraction, a-b-da, 5, 3, 1, 31, 195, 120, 120, 195, 190, 117, 3, 1.0317
183, 2, bw, attraction, a-b-db, 2, 2, 1, 32, 89, 163, 165, 90, 90, 165, 3, 4.75591
183, 2, bw, attraction, a-b-db, 2, 2, 1, 32, 89, 163, 165, 90, 90, 165, 1, 1.03505
183, 2, bw, attraction, a-b-db, 9, 1, 1, 33, 57, 129, 135, 60, 60, 135, 3, 1.4793
183, 2, bw, attraction, a-b-db, 9, 1, 1, 33, 57, 129, 135, 60, 60, 135, 1, 0.826759
183, 2, bw, filler, NA, 999, 999, 1, 34, 159, 113, 155, 141, 68, 149, 2, 1.07114
183, 2, bw, filler, NA, 999, 999, 1, 34, 159, 113, 155, 141, 68, 149, 3, 0.666789
183, 2, bw, catch, NA, 999, 999, 1, 35, 152, 163, 83, 112, 142, 113, 1, 0.733824
183, 2, bw, catch, NA, 999, 999, 1, 35, 152, 163, 83, 112, 142, 113, 2, 0.623608
183, 2, bw, filler, NA, 999, 999, 1, 36, 144, 66, 146, 172, 91, 194, 2, 0.924033
183, 2, bw, filler, NA, 999, 999, 1, 36, 144, 66, 146, 172, 91, 194, 1, 0.813721
183, 2, bw, catch, NA, 999, 999, 1, 37, 151, 164, 94, 101, 93, 162, 1, 0.890697
183, 2, bw, catch, NA, 999, 999, 1, 37, 151, 164, 94, 101, 93, 162, 2, 0.605744
183, 2, bw, attraction, a-b-db, 14, 3, 2, 1, 111, 181, 120, 195, 195, 120, 2, 1.47548
183, 2, bw, attraction, a-b-db, 14, 3, 2, 1, 111, 181, 120, 195, 195, 120, 1, 2.95092
183, 2, bw, attraction, a-b-db, 9, 3, 2, 2, 120, 195, 195, 120, 114, 186, 2, 1.54203
183, 2, bw, attraction, a-b-db, 9, 3, 2, 2, 120, 195, 195, 120, 114, 186, 1, 1.5268
183, 2, bw, attraction, a-b-da, 5, 1, 2, 3, 60, 135, 132, 58, 135, 60, 2, 2.19895
183, 2, bw, attraction, a-b-da, 5, 1, 2, 3, 60, 135, 132, 58, 135, 60, 3, 0.621503
183, 2, bw, attraction, a-b-da, 2, 3, 2, 4, 193, 119, 195, 120, 120, 195, 3, 5.04268
183, 2, bw, attraction, a-b-da, 2, 3, 2, 4, 193, 119, 195, 120, 120, 195, 2, 0.982448
183, 2, bw, attraction, a-b-db, 5, 2, 2, 5, 165, 90, 90, 165, 88, 161, 1, 1.1407
183, 2, bw, attraction, a-b-db, 5, 2, 2, 5, 165, 90, 90, 165, 88, 161, 3, 1.43769
183, 2, bw, catch, NA, 999, 999, 2, 6, 168, 147, 102, 93, 144, 111, 1, 0.873776
183, 2, bw, catch, NA, 999, 999, 2, 6, 168, 147, 102, 93, 144, 111, 2, 0.645488
183, 2, bw, catch, NA, 999, 999, 2, 7, 170, 145, 126, 129, 100, 95, 1, 0.713367
183, 2, bw, catch, NA, 999, 999, 2, 7, 170, 145, 126, 129, 100, 95, 3, 0.707654
183, 2, bw, filler, NA, 999, 999, 2, 8, 71, 137, 177, 173, 189, 96, 2, 0.620677
183, 2, bw, filler, NA, 999, 999, 2, 8, 71, 137, 177, 173, 189, 96, 1, 0.434472
183, 2, bw, attraction, a-b-db, 5, 3, 2, 9, 120, 195, 117, 190, 195, 120, 1, 1.74298
183, 2, bw, attraction, a-b-db, 5, 3, 2, 9, 120, 195, 117, 190, 195, 120, 3, 2.34379
183, 2, bw, filler, NA, 999, 999, 2, 10, 79, 98, 57, 71, 164, 139, 3, 0.950925
183, 2, bw, filler, NA, 999, 999, 2, 10, 79, 98, 57, 71, 164, 139, 2, 0.695924
183, 2, bw, attraction, a-b-db, 2, 2, 2, 11, 90, 165, 165, 90, 89, 163, 2, 2.19372
183, 2, bw, attraction, a-b-db, 2, 2, 2, 11, 90, 165, 165, 90, 89, 163, 3, 3.40837
183, 2, bw, attraction, a-b-da, 5, 2, 2, 12, 161, 88, 165, 90, 90, 165, 2, 5.72458
183, 2, bw, attraction, a-b-da, 5, 2, 2, 12, 161, 88, 165, 90, 90, 165, 1, 0.676728
183, 2, bw, attraction, a-b-db, 5, 1, 2, 13, 58, 132, 135, 60, 60, 135, 3, 1.1271
183, 2, bw, attraction, a-b-db, 5, 1, 2, 13, 58, 132, 135, 60, 60, 135, 2, 0.736819
183, 2, bw, attraction, a-b-db, 2, 3, 2, 14, 119, 193, 120, 195, 195, 120, 2, 1.2731
183, 2, bw, attraction, a-b-db, 2, 3, 2, 14, 119, 193, 120, 195, 195, 120, 3, 0.684713
183, 2, bw, attraction, a-b-da, 14, 1, 2, 15, 135, 60, 125, 56, 60, 135, 3, 0.862986
183, 2, bw, attraction, a-b-da, 14, 1, 2, 15, 135, 60, 125, 56, 60, 135, 2, 0.611405
183, 2, bw, filler, NA, 999, 999, 2, 16, 171, 179, 71, 82, 141, 181, 1, 0.960498
183, 2, bw, filler, NA, 999, 999, 2, 16, 171, 179, 71, 82, 141, 181, 2, 0.528918
183, 2, bw, filler, NA, 999, 999, 2, 17, 156, 181, 159, 142, 154, 65, 2, 0.649327
183, 2, bw, filler, NA, 999, 999, 2, 17, 156, 181, 159, 142, 154, 65, 3, 0.350507
183, 2, bw, attraction, a-b-da, 9, 2, 2, 18, 90, 165, 157, 86, 165, 90, 3, 1.79017
183, 2, bw, attraction, a-b-da, 9, 2, 2, 18, 90, 165, 157, 86, 165, 90, 2, 0.524932
183, 2, bw, attraction, a-b-db, 14, 2, 2, 19, 165, 90, 83, 153, 90, 165, 1, 1.22138
183, 2, bw, attraction, a-b-db, 14, 2, 2, 19, 165, 90, 83, 153, 90, 165, 2, 0.514916
183, 2, bw, attraction, a-b-da, 9, 3, 2, 20, 120, 195, 195, 120, 186, 114, 2, 1.71611
183, 2, bw, attraction, a-b-da, 9, 3, 2, 20, 120, 195, 195, 120, 186, 114, 3, 2.29432
183, 2, bw, filler, NA, 999, 999, 2, 21, 163, 143, 56, 185, 110, 153, 1, 0.847358
183, 2, bw, filler, NA, 999, 999, 2, 21, 163, 143, 56, 185, 110, 153, 2, 0.556465
183, 2, bw, filler, NA, 999, 999, 2, 22, 153, 190, 118, 90, 133, 136, 1, 0.619636
183, 2, bw, filler, NA, 999, 999, 2, 22, 153, 190, 118, 90, 133, 136, 2, 0.498049
183, 2, bw, attraction, a-b-db, 9, 1, 2, 23, 60, 135, 135, 60, 57, 129, 2, 0.715872
183, 2, bw, attraction, a-b-db, 9, 1, 2, 23, 60, 135, 135, 60, 57, 129, 1, 0.526251
183, 2, bw, filler, NA, 999, 999, 2, 24, 67, 171, 58, 138, 125, 100, 1, 6.59867
183, 2, bw, filler, NA, 999, 999, 2, 24, 67, 171, 58, 138, 125, 100, 2, 0.539866
183, 2, bw, filler, NA, 999, 999, 2, 25, 127, 149, 179, 95, 158, 65, 1, 0.779772
183, 2, bw, filler, NA, 999, 999, 2, 25, 127, 149, 179, 95, 158, 65, 3, 2.65946
183, 2, bw, attraction, a-b-da, 2, 1, 2, 26, 135, 60, 60, 135, 134, 59, 1, 2.42183
183, 2, bw, attraction, a-b-da, 2, 1, 2, 26, 135, 60, 60, 135, 134, 59, 2, 0.483051
183, 2, bw, filler, NA, 999, 999, 2, 27, 176, 159, 120, 117, 150, 177, 1, 0.749412
183, 2, bw, filler, NA, 999, 999, 2, 27, 176, 159, 120, 117, 150, 177, 2, 0.454612
183, 2, bw, catch, NA, 999, 999, 2, 28, 130, 125, 149, 166, 109, 86, 2, 0.674371
183, 2, bw, catch, NA, 999, 999, 2, 28, 130, 125, 149, 166, 109, 86, 3, 0.678165
183, 2, bw, attraction, a-b-da, 14, 3, 2, 29, 120, 195, 195, 120, 181, 111, 2, 1.06448
183, 2, bw, attraction, a-b-da, 14, 3, 2, 29, 120, 195, 195, 120, 181, 111, 3, 0.692868
183, 2, bw, attraction, a-b-db, 14, 1, 2, 30, 135, 60, 60, 135, 56, 125, 1, 2.29454
183, 2, bw, attraction, a-b-db, 14, 1, 2, 30, 135, 60, 60, 135, 56, 125, 3, 0.505139
183, 2, bw, attraction, a-b-da, 9, 1, 2, 31, 129, 57, 135, 60, 60, 135, 3, 1.20289
183, 2, bw, attraction, a-b-da, 9, 1, 2, 31, 129, 57, 135, 60, 60, 135, 2, 0.505817
183, 2, bw, attraction, a-b-da, 14, 2, 2, 32, 165, 90, 90, 165, 153, 83, 2, 0.867711
183, 2, bw, attraction, a-b-da, 14, 2, 2, 32, 165, 90, 90, 165, 153, 83, 3, 0.560076
183, 2, bw, attraction, a-b-da, 2, 2, 2, 33, 165, 90, 163, 89, 90, 165, 2, 2.00723
183, 2, bw, attraction, a-b-da, 2, 2, 2, 33, 165, 90, 163, 89, 90, 165, 3, 0.469172
183, 2, bw, attraction, a-b-db, 2, 1, 2, 34, 135, 60, 60, 135, 59, 134, 1, 1.34421
183, 2, bw, attraction, a-b-db, 2, 1, 2, 34, 135, 60, 60, 135, 59, 134, 2, 0.481176
183, 2, bw, attraction, a-b-da, 5, 3, 2, 35, 120, 195, 190, 117, 195, 120, 1, 1.1476
183, 2, bw, attraction, a-b-da, 5, 3, 2, 35, 120, 195, 190, 117, 195, 120, 3, 1.47672
183, 2, bw, filler, NA, 999, 999, 2, 36, 133, 146, 181, 173, 127, 112, 2, 1.26271
183, 2, bw, filler, NA, 999, 999, 2, 36, 133, 146, 181, 173, 127, 112, 3, 0.770983
183, 2, bw, attraction, a-b-db, 9, 2, 2, 37, 90, 165, 86, 157, 165, 90, 3, 2.09802
183, 2, bw, attraction, a-b-db, 9, 2, 2, 37, 90, 165, 86, 157, 165, 90, 1, 0.900743
183, 2, bw, attraction, a-b-db, 14, 1, 3, 1, 60, 135, 135, 60, 56, 125, 2, 1.59836
183, 2, bw, attraction, a-b-db, 14, 1, 3, 1, 60, 135, 135, 60, 56, 125, 3, 1.09311
183, 2, bw, attraction, a-b-db, 9, 1, 3, 2, 60, 135, 57, 129, 135, 60, 2, 1.48685
183, 2, bw, attraction, a-b-db, 9, 1, 3, 2, 60, 135, 57, 129, 135, 60, 3, 1.05035
183, 2, bw, attraction, a-b-db, 9, 3, 3, 3, 120, 195, 195, 120, 114, 186, 1, 1.03005
183, 2, bw, attraction, a-b-db, 9, 3, 3, 3, 120, 195, 195, 120, 114, 186, 2, 0.779599
183, 2, bw, attraction, a-b-da, 2, 3, 3, 4, 195, 120, 120, 195, 193, 119, 1, 1.76987
183, 2, bw, attraction, a-b-da, 2, 3, 3, 4, 195, 120, 120, 195, 193, 119, 2, 1.92197
183, 2, bw, catch, NA, 999, 999, 3, 5, 145, 110, 121, 194, 81, 114, 1, 1.05063
183, 2, bw, catch, NA, 999, 999, 3, 5, 145, 110, 121, 194, 81, 114, 2, 0.943567
183, 2, bw, filler, NA, 999, 999, 3, 6, 77, 156, 116, 77, 190, 88, 3, 2.59923
183, 2, bw, filler, NA, 999, 999, 3, 6, 77, 156, 116, 77, 190, 88, 2, 0.805696
183, 2, bw, attraction, a-b-da, 2, 1, 3, 7, 135, 60, 134, 59, 60, 135, 3, 3.4914
183, 2, bw, attraction, a-b-da, 2, 1, 3, 7, 135, 60, 134, 59, 60, 135, 2, 1.07763
183, 2, bw, attraction, a-b-da, 5, 3, 3, 8, 195, 120, 190, 117, 120, 195, 3, 4.44793
183, 2, bw, attraction, a-b-da, 5, 3, 3, 8, 195, 120, 190, 117, 120, 195, 2, 0.635845
183, 2, bw, attraction, a-b-da, 9, 2, 3, 9, 165, 90, 157, 86, 90, 165, 3, 1.32018
183, 2, bw, attraction, a-b-da, 9, 2, 3, 9, 165, 90, 157, 86, 90, 165, 2, 0.626535
183, 2, bw, attraction, a-b-db, 2, 1, 3, 10, 60, 135, 59, 134, 135, 60, 3, 1.95101
183, 2, bw, attraction, a-b-db, 2, 1, 3, 10, 60, 135, 59, 134, 135, 60, 1, 0.823658
183, 2, bw, attraction, a-b-db, 2, 2, 3, 11, 90, 165, 89, 163, 165, 90, 3, 3.46009
183, 2, bw, attraction, a-b-db, 2, 2, 3, 11, 90, 165, 89, 163, 165, 90, 1, 0.575518
183, 2, bw, attraction, a-b-db, 9, 2, 3, 12, 90, 165, 86, 157, 165, 90, 3, 0.974002
183, 2, bw, attraction, a-b-db, 9, 2, 3, 12, 90, 165, 86, 157, 165, 90, 2, 0.581685
183, 2, bw, attraction, a-b-da, 5, 1, 3, 13, 132, 58, 135, 60, 60, 135, 3, 2.28403
183, 2, bw, attraction, a-b-da, 5, 1, 3, 13, 132, 58, 135, 60, 60, 135, 2, 0.743306
183, 2, bw, attraction, a-b-db, 5, 2, 3, 14, 165, 90, 88, 161, 90, 165, 1, 0.998934
183, 2, bw, attraction, a-b-db, 5, 2, 3, 14, 165, 90, 88, 161, 90, 165, 2, 0.445937
183, 2, bw, attraction, a-b-db, 5, 3, 3, 15, 117, 190, 195, 120, 120, 195, 3, 0.809896
183, 2, bw, attraction, a-b-db, 5, 3, 3, 15, 117, 190, 195, 120, 120, 195, 1, 1.24828
183, 2, bw, catch, NA, 999, 999, 3, 16, 102, 153, 77, 118, 135, 180, 3, 0.643799
183, 2, bw, catch, NA, 999, 999, 3, 16, 102, 153, 77, 118, 135, 180, 2, 0.960921
183, 2, bw, attraction, a-b-db, 14, 3, 3, 17, 120, 195, 195, 120, 111, 181, 1, 1.6398
183, 2, bw, attraction, a-b-db, 14, 3, 3, 17, 120, 195, 195, 120, 111, 181, 3, 0.56463
183, 2, bw, attraction, a-b-da, 14, 3, 3, 18, 120, 195, 195, 120, 181, 111, 1, 2.8198
183, 2, bw, attraction, a-b-da, 14, 3, 3, 18, 120, 195, 195, 120, 181, 111, 3, 0.729594
183, 2, bw, attraction, a-b-da, 9, 3, 3, 19, 186, 114, 120, 195, 195, 120, 3, 1.14574
183, 2, bw, attraction, a-b-da, 9, 3, 3, 19, 186, 114, 120, 195, 195, 120, 2, 0.362756
183, 2, bw, filler, NA, 999, 999, 3, 20, 161, 151, 105, 133, 61, 90, 1, 0.777954
183, 2, bw, filler, NA, 999, 999, 3, 20, 161, 151, 105, 133, 61, 90, 3, 0.833686
183, 2, bw, attraction, a-b-da, 5, 2, 3, 21, 161, 88, 165, 90, 90, 165, 3, 1.75002
183, 2, bw, attraction, a-b-da, 5, 2, 3, 21, 161, 88, 165, 90, 90, 165, 2, 1.11875
183, 2, bw, filler, NA, 999, 999, 3, 22, 185, 85, 145, 145, 119, 159, 2, 5.64789
183, 2, bw, filler, NA, 999, 999, 3, 22, 185, 85, 145, 145, 119, 159, 1, 0.68322
183, 2, bw, attraction, a-b-da, 9, 1, 3, 23, 60, 135, 129, 57, 135, 60, 1, 1.82968
183, 2, bw, attraction, a-b-da, 9, 1, 3, 23, 60, 135, 129, 57, 135, 60, 2, 0.403035
183, 2, bw, catch, NA, 999, 999, 3, 24, 127, 188, 98, 157, 101, 94, 1, 0.904831
183, 2, bw, catch, NA, 999, 999, 3, 24, 127, 188, 98, 157, 101, 94, 3, 0.651237
183, 2, bw, attraction, a-b-db, 2, 3, 3, 25, 119, 193, 120, 195, 195, 120, 1, 1.27093
183, 2, bw, attraction, a-b-db, 2, 3, 3, 25, 119, 193, 120, 195, 195, 120, 3, 0.714585
183, 2, bw, filler, NA, 999, 999, 3, 26, 101, 191, 105, 127, 91, 100, 1, 0.45159
183, 2, bw, filler, NA, 999, 999, 3, 26, 101, 191, 105, 127, 91, 100, 3, 0.384851
183, 2, bw, attraction, a-b-da, 14, 2, 3, 27, 90, 165, 165, 90, 153, 83, 1, 0.543177
183, 2, bw, attraction, a-b-da, 14, 2, 3, 27, 90, 165, 165, 90, 153, 83, 3, 0.720361
183, 2, bw, attraction, a-b-da, 2, 2, 3, 28, 90, 165, 163, 89, 165, 90, 1, 0.601544
183, 2, bw, attraction, a-b-da, 2, 2, 3, 28, 90, 165, 163, 89, 165, 90, 3, 0.608496
183, 2, bw, filler, NA, 999, 999, 3, 29, 131, 113, 152, 110, 132, 84, 1, 0.741609
183, 2, bw, filler, NA, 999, 999, 3, 29, 131, 113, 152, 110, 132, 84, 3, 0.63081
183, 2, bw, filler, NA, 999, 999, 3, 30, 162, 156, 107, 138, 112, 119, 1, 0.851179
183, 2, bw, filler, NA, 999, 999, 3, 30, 162, 156, 107, 138, 112, 119, 3, 0.48827
183, 2, bw, filler, NA, 999, 999, 3, 31, 119, 116, 166, 151, 151, 91, 2, 1.38661
183, 2, bw, filler, NA, 999, 999, 3, 31, 119, 116, 166, 151, 151, 91, 1, 0.578117
183, 2, bw, filler, NA, 999, 999, 3, 32, 90, 141, 83, 125, 100, 139, 3, 1.31256
183, 2, bw, filler, NA, 999, 999, 3, 32, 90, 141, 83, 125, 100, 139, 2, 0.546919
183, 2, bw, filler, NA, 999, 999, 3, 33, 60, 103, 165, 57, 187, 135, 3, 0.674601
183, 2, bw, filler, NA, 999, 999, 3, 33, 60, 103, 165, 57, 187, 135, 1, 0.558364
183, 2, bw, attraction, a-b-db, 14, 2, 3, 34, 83, 153, 165, 90, 90, 165, 3, 2.64561
183, 2, bw, attraction, a-b-db, 14, 2, 3, 34, 83, 153, 165, 90, 90, 165, 1, 3.20189
183, 2, bw, attraction, a-b-db, 5, 1, 3, 35, 58, 132, 60, 135, 135, 60, 3, 0.647014
183, 2, bw, attraction, a-b-db, 5, 1, 3, 35, 58, 132, 60, 135, 135, 60, 1, 1.42004
183, 2, bw, attraction, a-b-da, 14, 1, 3, 36, 60, 135, 125, 56, 135, 60, 1, 2.95272
183, 2, bw, attraction, a-b-da, 14, 1, 3, 36, 60, 135, 125, 56, 135, 60, 2, 0.977163
183, 2, bw, filler, NA, 999, 999, 3, 37, 163, 174, 146, 134, 195, 90, 1, 0.831534
183, 2, bw, filler, NA, 999, 999, 3, 37, 163, 174, 146, 134, 195, 90, 2, 0.781318
183, 2, bw, catch, NA, 999, 999, 4, 1, 146, 169, 120, 135, 120, 75, 1, 0.651622
183, 2, bw, catch, NA, 999, 999, 4, 1, 146, 169, 120, 135, 120, 75, 3, 1.04871
183, 2, bw, attraction, a-b-da, 14, 1, 4, 2, 135, 60, 125, 56, 60, 135, 3, 1.01236
183, 2, bw, attraction, a-b-da, 14, 1, 4, 2, 135, 60, 125, 56, 60, 135, 2, 1.02673
183, 2, bw, filler, NA, 999, 999, 4, 3, 99, 105, 169, 104, 121, 187, 3, 0.862959
183, 2, bw, filler, NA, 999, 999, 4, 3, 99, 105, 169, 104, 121, 187, 1, 0.531217
183, 2, bw, attraction, a-b-da, 9, 3, 4, 4, 195, 120, 120, 195, 186, 114, 3, 0.603673
183, 2, bw, attraction, a-b-da, 9, 3, 4, 4, 195, 120, 120, 195, 186, 114, 2, 0.618176
183, 2, bw, attraction, a-b-db, 5, 2, 4, 5, 165, 90, 90, 165, 88, 161, 1, 1.60719
183, 2, bw, attraction, a-b-db, 5, 2, 4, 5, 165, 90, 90, 165, 88, 161, 2, 0.549408
183, 2, bw, filler, NA, 999, 999, 4, 6, 184, 86, 164, 63, 131, 111, 1, 3.82119
183, 2, bw, filler, NA, 999, 999, 4, 6, 184, 86, 164, 63, 131, 111, 2, 2.23471
183, 2, bw, filler, NA, 999, 999, 4, 7, 62, 127, 58, 100, 157, 157, 3, 0.830508
183, 2, bw, filler, NA, 999, 999, 4, 7, 62, 127, 58, 100, 157, 157, 2, 0.804229
183, 2, bw, filler, NA, 999, 999, 4, 8, 114, 78, 103, 157, 170, 65, 2, 1.45006
183, 2, bw, filler, NA, 999, 999, 4, 8, 114, 78, 103, 157, 170, 65, 1, 1.65477
183, 2, bw, attraction, a-b-da, 5, 3, 4, 9, 120, 195, 190, 117, 195, 120, 3, 0.698214
183, 2, bw, attraction, a-b-da, 5, 3, 4, 9, 120, 195, 190, 117, 195, 120, 2, 2.74126
183, 2, bw, attraction, a-b-da, 5, 2, 4, 10, 165, 90, 161, 88, 90, 165, 3, 1.18035
183, 2, bw, attraction, a-b-da, 5, 2, 4, 10, 165, 90, 161, 88, 90, 165, 2, 0.843991
183, 2, bw, filler, NA, 999, 999, 4, 11, 107, 100, 136, 169, 112, 169, 2, 1.12759
183, 2, bw, filler, NA, 999, 999, 4, 11, 107, 100, 136, 169, 112, 169, 1, 0.689278
183, 2, bw, attraction, a-b-db, 9, 2, 4, 12, 86, 157, 90, 165, 165, 90, 2, 1.11562
183, 2, bw, attraction, a-b-db, 9, 2, 4, 12, 86, 157, 90, 165, 165, 90, 1, 2.48605
183, 2, bw, attraction, a-b-da, 2, 1, 4, 13, 135, 60, 60, 135, 134, 59, 2, 1.57587
183, 2, bw, attraction, a-b-da, 2, 1, 4, 13, 135, 60, 60, 135, 134, 59, 1, 0.759426
183, 2, bw, attraction, a-b-db, 14, 2, 4, 14, 83, 153, 165, 90, 90, 165, 2, 0.886302
183, 2, bw, attraction, a-b-db, 14, 2, 4, 14, 83, 153, 165, 90, 90, 165, 1, 0.674051
183, 2, bw, attraction, a-b-da, 9, 2, 4, 15, 165, 90, 157, 86, 90, 165, 3, 0.708408
183, 2, bw, attraction, a-b-da, 9, 2, 4, 15, 165, 90, 157, 86, 90, 165, 2, 0.742835
183, 2, bw, attraction, a-b-db, 2, 3, 4, 16, 195, 120, 120, 195, 119, 193, 3, 4.85461
183, 2, bw, attraction, a-b-db, 2, 3, 4, 16, 195, 120, 120, 195, 119, 193, 2, 1.55433
183, 2, bw, attraction, a-b-db, 5, 1, 4, 17, 58, 132, 60, 135, 135, 60, 3, 3.70571
183, 2, bw, attraction, a-b-db, 5, 1, 4, 17, 58, 132, 60, 135, 135, 60, 1, 0.779231
183, 2, bw, filler, NA, 999, 999, 4, 18, 175, 154, 154, 145, 115, 96, 1, 0.849564
183, 2, bw, filler, NA, 999, 999, 4, 18, 175, 154, 154, 145, 115, 96, 3, 0.510607
183, 2, bw, filler, NA, 999, 999, 4, 19, 127, 119, 80, 112, 88, 137, 1, 0.775853
183, 2, bw, filler, NA, 999, 999, 4, 19, 127, 119, 80, 112, 88, 137, 2, 2.25554
183, 2, bw, attraction, a-b-db, 5, 3, 4, 20, 120, 195, 195, 120, 117, 190, 1, 3.45878
183, 2, bw, attraction, a-b-db, 5, 3, 4, 20, 120, 195, 195, 120, 117, 190, 3, 2.83025
183, 2, bw, attraction, a-b-da, 2, 3, 4, 21, 195, 120, 120, 195, 193, 119, 2, 9.29814
183, 2, bw, attraction, a-b-da, 2, 3, 4, 21, 195, 120, 120, 195, 193, 119, 1, 0.714448
183, 2, bw, filler, NA, 999, 999, 4, 22, 57, 181, 68, 69, 67, 67, 1, 3.4594
183, 2, bw, filler, NA, 999, 999, 4, 22, 57, 181, 68, 69, 67, 67, 2, 1.17503
183, 2, bw, attraction, a-b-db, 2, 2, 4, 23, 89, 163, 165, 90, 90, 165, 1, 3.98928
183, 2, bw, attraction, a-b-db, 2, 2, 4, 23, 89, 163, 165, 90, 90, 165, 2, 0.635304
183, 2, bw, attraction, a-b-da, 5, 1, 4, 24, 135, 60, 132, 58, 60, 135, 3, 3.58377
183, 2, bw, attraction, a-b-da, 5, 1, 4, 24, 135, 60, 132, 58, 60, 135, 1, 0.574525
183, 2, bw, catch, NA, 999, 999, 4, 25, 115, 140, 128, 187, 98, 97, 2, 1.30098
183, 2, bw, catch, NA, 999, 999, 4, 25, 115, 140, 128, 187, 98, 97, 3, 0.631849
183, 2, bw, catch, NA, 999, 999, 4, 26, 195, 120, 150, 105, 99, 96, 1, 0.596303
183, 2, bw, catch, NA, 999, 999, 4, 26, 195, 120, 150, 105, 99, 96, 3, 0.643492
183, 2, bw, attraction, a-b-da, 14, 3, 4, 27, 120, 195, 181, 111, 195, 120, 3, 1.02329
183, 2, bw, attraction, a-b-da, 14, 3, 4, 27, 120, 195, 181, 111, 195, 120, 2, 0.628861
183, 2, bw, attraction, a-b-da, 2, 2, 4, 28, 163, 89, 90, 165, 165, 90, 1, 2.78526
183, 2, bw, attraction, a-b-da, 2, 2, 4, 28, 163, 89, 90, 165, 165, 90, 2, 0.60837
183, 2, bw, attraction, a-b-da, 14, 2, 4, 29, 153, 83, 90, 165, 165, 90, 3, 1.08548
183, 2, bw, attraction, a-b-da, 14, 2, 4, 29, 153, 83, 90, 165, 165, 90, 1, 0.841103
183, 2, bw, attraction, a-b-da, 9, 1, 4, 30, 135, 60, 60, 135, 129, 57, 2, 2.55677
183, 2, bw, attraction, a-b-da, 9, 1, 4, 30, 135, 60, 60, 135, 129, 57, 3, 1.10863
183, 2, bw, filler, NA, 999, 999, 4, 31, 56, 176, 136, 145, 88, 99, 2, 0.933508
183, 2, bw, filler, NA, 999, 999, 4, 31, 56, 176, 136, 145, 88, 99, 3, 0.431162
183, 2, bw, filler, NA, 999, 999, 4, 32, 159, 155, 151, 77, 86, 194, 1, 0.547745
183, 2, bw, filler, NA, 999, 999, 4, 32, 159, 155, 151, 77, 86, 194, 2, 3.08482
183, 2, bw, attraction, a-b-db, 14, 3, 4, 33, 195, 120, 111, 181, 120, 195, 3, 1.02243
183, 2, bw, attraction, a-b-db, 14, 3, 4, 33, 195, 120, 111, 181, 120, 195, 1, 0.988135
183, 2, bw, attraction, a-b-db, 14, 1, 4, 34, 135, 60, 60, 135, 56, 125, 1, 1.48242
183, 2, bw, attraction, a-b-db, 14, 1, 4, 34, 135, 60, 60, 135, 56, 125, 3, 0.605917
183, 2, bw, attraction, a-b-db, 2, 1, 4, 35, 59, 134, 60, 135, 135, 60, 2, 7.00368
183, 2, bw, attraction, a-b-db, 2, 1, 4, 35, 59, 134, 60, 135, 135, 60, 3, 0.448802
183, 2, bw, attraction, a-b-db, 9, 1, 4, 36, 57, 129, 135, 60, 60, 135, 3, 2.06062
183, 2, bw, attraction, a-b-db, 9, 1, 4, 36, 57, 129, 135, 60, 60, 135, 1, 1.09661
183, 2, bw, attraction, a-b-db, 9, 3, 4, 37, 120, 195, 195, 120, 114, 186, 2, 3.80238
183, 2, bw, attraction, a-b-db, 9, 3, 4, 37, 120, 195, 195, 120, 114, 186, 3, 1.96828
183, 2, bw, attraction, a-b-da, 5, 2, 5, 1, 161, 88, 90, 165, 165, 90, 2, 2.38158
183, 2, bw, attraction, a-b-da, 5, 2, 5, 1, 161, 88, 90, 165, 165, 90, 1, 1.2048
183, 2, bw, filler, NA, 999, 999, 5, 2, 75, 59, 147, 140, 147, 78, 2, 1.16238
183, 2, bw, filler, NA, 999, 999, 5, 2, 75, 59, 147, 140, 147, 78, 1, 0.602638
183, 2, bw, filler, NA, 999, 999, 5, 3, 172, 166, 81, 93, 64, 153, 1, 0.693407
183, 2, bw, filler, NA, 999, 999, 5, 3, 172, 166, 81, 93, 64, 153, 2, 0.539552
183, 2, bw, filler, NA, 999, 999, 5, 4, 138, 58, 110, 96, 122, 160, 3, 1.49136
183, 2, bw, filler, NA, 999, 999, 5, 4, 138, 58, 110, 96, 122, 160, 1, 1.65406
183, 2, bw, attraction, a-b-db, 5, 3, 5, 5, 195, 120, 120, 195, 117, 190, 1, 4.04953
183, 2, bw, attraction, a-b-db, 5, 3, 5, 5, 195, 120, 120, 195, 117, 190, 3, 0.773677
183, 2, bw, attraction, a-b-db, 9, 3, 5, 6, 195, 120, 120, 195, 114, 186, 1, 2.14008
183, 2, bw, attraction, a-b-db, 9, 3, 5, 6, 195, 120, 120, 195, 114, 186, 3, 0.556602
183, 2, bw, attraction, a-b-da, 14, 3, 5, 7, 195, 120, 120, 195, 181, 111, 1, 6.7318
183, 2, bw, attraction, a-b-da, 14, 3, 5, 7, 195, 120, 120, 195, 181, 111, 3, 1.29157
183, 2, bw, filler, NA, 999, 999, 5, 8, 109, 95, 131, 136, 73, 178, 2, 0.725172
183, 2, bw, filler, NA, 999, 999, 5, 8, 109, 95, 131, 136, 73, 178, 1, 0.454788
183, 2, bw, attraction, a-b-da, 9, 1, 5, 9, 129, 57, 60, 135, 135, 60, 3, 2.47469
183, 2, bw, attraction, a-b-da, 9, 1, 5, 9, 129, 57, 60, 135, 135, 60, 2, 0.413818
183, 2, bw, attraction, a-b-db, 5, 2, 5, 10, 165, 90, 88, 161, 90, 165, 1, 2.31499
183, 2, bw, attraction, a-b-db, 5, 2, 5, 10, 165, 90, 88, 161, 90, 165, 2, 0.764934
183, 2, bw, catch, NA, 999, 999, 5, 11, 126, 129, 128, 187, 101, 94, 2, 0.835961
183, 2, bw, catch, NA, 999, 999, 5, 11, 126, 129, 128, 187, 101, 94, 3, 0.857682
183, 2, bw, catch, NA, 999, 999, 5, 12, 122, 73, 116, 139, 128, 187, 3, 0.812688
183, 2, bw, catch, NA, 999, 999, 5, 12, 122, 73, 116, 139, 128, 187, 1, 0.723143
183, 2, bw, attraction, a-b-db, 14, 2, 5, 13, 83, 153, 90, 165, 165, 90, 2, 1.18745
183, 2, bw, attraction, a-b-db, 14, 2, 5, 13, 83, 153, 90, 165, 165, 90, 1, 0.634318
183, 2, bw, catch, NA, 999, 999, 5, 14, 128, 187, 87, 108, 119, 136, 1, 1.01469
183, 2, bw, catch, NA, 999, 999, 5, 14, 128, 187, 87, 108, 119, 136, 2, 0.421127
183, 2, bw, filler, NA, 999, 999, 5, 15, 62, 84, 109, 147, 179, 60, 2, 1.0023
183, 2, bw, filler, NA, 999, 999, 5, 15, 62, 84, 109, 147, 179, 60, 1, 0.657222
183, 2, bw, filler, NA, 999, 999, 5, 16, 80, 105, 145, 142, 96, 155, 2, 1.78023
183, 2, bw, filler, NA, 999, 999, 5, 16, 80, 105, 145, 142, 96, 155, 1, 0.46772
183, 2, bw, attraction, a-b-da, 5, 3, 5, 17, 190, 117, 195, 120, 120, 195, 3, 4.05484
183, 2, bw, attraction, a-b-da, 5, 3, 5, 17, 190, 117, 195, 120, 120, 195, 2, 0.674934
183, 2, bw, attraction, a-b-da, 14, 2, 5, 18, 165, 90, 90, 165, 153, 83, 2, 9.83736
183, 2, bw, attraction, a-b-da, 14, 2, 5, 18, 165, 90, 90, 165, 153, 83, 3, 0.95221
183, 2, bw, attraction, a-b-da, 9, 2, 5, 19, 165, 90, 157, 86, 90, 165, 1, 2.31983
183, 2, bw, attraction, a-b-da, 9, 2, 5, 19, 165, 90, 157, 86, 90, 165, 2, 0.673759
183, 2, bw, attraction, a-b-da, 2, 2, 5, 20, 90, 165, 165, 90, 163, 89, 1, 1.40415
183, 2, bw, attraction, a-b-da, 2, 2, 5, 20, 90, 165, 165, 90, 163, 89, 2, 1.10649
183, 2, bw, attraction, a-b-da, 2, 3, 5, 21, 193, 119, 120, 195, 195, 120, 2, 1.05127
183, 2, bw, attraction, a-b-da, 2, 3, 5, 21, 193, 119, 120, 195, 195, 120, 3, 2.29634
183, 2, bw, attraction, a-b-db, 9, 1, 5, 22, 60, 135, 57, 129, 135, 60, 1, 5.21744
183, 2, bw, attraction, a-b-db, 9, 1, 5, 22, 60, 135, 57, 129, 135, 60, 2, 0.45446
183, 2, bw, attraction, a-b-da, 5, 1, 5, 23, 60, 135, 132, 58, 135, 60, 1, 1.40228
183, 2, bw, attraction, a-b-da, 5, 1, 5, 23, 60, 135, 132, 58, 135, 60, 2, 0.665177
183, 2, bw, attraction, a-b-db, 2, 1, 5, 24, 60, 135, 59, 134, 135, 60, 1, 3.44433
183, 2, bw, attraction, a-b-db, 2, 1, 5, 24, 60, 135, 59, 134, 135, 60, 3, 0.848486
183, 2, bw, attraction, a-b-db, 14, 1, 5, 25, 56, 125, 135, 60, 60, 135, 3, 1.11611
183, 2, bw, attraction, a-b-db, 14, 1, 5, 25, 56, 125, 135, 60, 60, 135, 2, 0.478427
183, 2, bw, attraction, a-b-da, 9, 3, 5, 26, 120, 195, 195, 120, 186, 114, 1, 1.27288
183, 2, bw, attraction, a-b-da, 9, 3, 5, 26, 120, 195, 195, 120, 186, 114, 3, 1.3486
183, 2, bw, filler, NA, 999, 999, 5, 27, 149, 63, 140, 87, 79, 65, 2, 0.651919
183, 2, bw, filler, NA, 999, 999, 5, 27, 149, 63, 140, 87, 79, 65, 3, 0.641176
183, 2, bw, filler, NA, 999, 999, 5, 28, 86, 59, 123, 168, 122, 128, 2, 0.620863
183, 2, bw, filler, NA, 999, 999, 5, 28, 86, 59, 123, 168, 122, 128, 1, 0.754666
183, 2, bw, attraction, a-b-da, 14, 1, 5, 29, 125, 56, 135, 60, 60, 135, 3, 1.08233
183, 2, bw, attraction, a-b-da, 14, 1, 5, 29, 125, 56, 135, 60, 60, 135, 1, 0.509893
183, 2, bw, attraction, a-b-db, 2, 3, 5, 30, 195, 120, 120, 195, 119, 193, 1, 2.32705
183, 2, bw, attraction, a-b-db, 2, 3, 5, 30, 195, 120, 120, 195, 119, 193, 3, 0.584269
183, 2, bw, attraction, a-b-db, 14, 3, 5, 31, 195, 120, 120, 195, 111, 181, 2, 3.31073
183, 2, bw, attraction, a-b-db, 14, 3, 5, 31, 195, 120, 120, 195, 111, 181, 3, 0.472424
183, 2, bw, attraction, a-b-db, 2, 2, 5, 32, 89, 163, 90, 165, 165, 90, 1, 4.43543
183, 2, bw, attraction, a-b-db, 2, 2, 5, 32, 89, 163, 90, 165, 165, 90, 3, 0.93599
183, 2, bw, attraction, a-b-da, 2, 1, 5, 33, 134, 59, 60, 135, 135, 60, 2, 0.720309
183, 2, bw, attraction, a-b-da, 2, 1, 5, 33, 134, 59, 60, 135, 135, 60, 1, 0.482076
183, 2, bw, filler, NA, 999, 999, 5, 34, 73, 183, 70, 187, 96, 146, 2, 1.93255
183, 2, bw, filler, NA, 999, 999, 5, 34, 73, 183, 70, 187, 96, 146, 3, 0.477875
183, 2, bw, filler, NA, 999, 999, 5, 35, 176, 73, 138, 194, 70, 93, 2, 1.15234
183, 2, bw, filler, NA, 999, 999, 5, 35, 176, 73, 138, 194, 70, 93, 3, 0.505304
183, 2, bw, attraction, a-b-db, 9, 2, 5, 36, 86, 157, 165, 90, 90, 165, 3, 1.55506
183, 2, bw, attraction, a-b-db, 9, 2, 5, 36, 86, 157, 165, 90, 90, 165, 1, 0.483237
183, 2, bw, attraction, a-b-db, 5, 1, 5, 37, 135, 60, 58, 132, 60, 135, 3, 1.24569
183, 2, bw, attraction, a-b-db, 5, 1, 5, 37, 135, 60, 58, 132, 60, 135, 1, 0.562634
183, 2, bw, attraction, a-b-da, 9, 3, 6, 1, 186, 114, 195, 120, 120, 195, 3, 0.857729
183, 2, bw, attraction, a-b-da, 9, 3, 6, 1, 186, 114, 195, 120, 120, 195, 1, 0.478102
183, 2, bw, attraction, a-b-db, 5, 1, 6, 2, 135, 60, 58, 132, 60, 135, 2, 0.776669
183, 2, bw, attraction, a-b-db, 5, 1, 6, 2, 135, 60, 58, 132, 60, 135, 1, 0.656293
183, 2, bw, attraction, a-b-db, 5, 3, 6, 3, 195, 120, 120, 195, 117, 190, 2, 0.515471
183, 2, bw, attraction, a-b-db, 5, 3, 6, 3, 195, 120, 120, 195, 117, 190, 1, 0.46986
183, 2, bw, catch, NA, 999, 999, 6, 4, 115, 80, 94, 161, 123, 192, 3, 1.12093
183, 2, bw, catch, NA, 999, 999, 6, 4, 115, 80, 94, 161, 123, 192, 1, 0.61056
183, 2, bw, attraction, a-b-db, 2, 3, 6, 5, 120, 195, 119, 193, 195, 120, 3, 1.69571
183, 2, bw, attraction, a-b-db, 2, 3, 6, 5, 120, 195, 119, 193, 195, 120, 1, 0.866394
183, 2, bw, filler, NA, 999, 999, 6, 6, 186, 142, 187, 121, 132, 116, 1, 2.03745
183, 2, bw, filler, NA, 999, 999, 6, 6, 186, 142, 187, 121, 132, 116, 3, 1.23481
183, 2, bw, attraction, a-b-da, 2, 1, 6, 7, 134, 59, 60, 135, 135, 60, 2, 3.871
183, 2, bw, attraction, a-b-da, 2, 1, 6, 7, 134, 59, 60, 135, 135, 60, 1, 1.03391
183, 2, bw, filler, NA, 999, 999, 6, 8, 126, 181, 182, 184, 162, 141, 2, 1.62211
183, 2, bw, filler, NA, 999, 999, 6, 8, 126, 181, 182, 184, 162, 141, 3, 1.78778
183, 2, bw, filler, NA, 999, 999, 6, 9, 193, 152, 65, 63, 90, 135, 1, 0.729529
183, 2, bw, filler, NA, 999, 999, 6, 9, 193, 152, 65, 63, 90, 135, 2, 0.819387
183, 2, bw, filler, NA, 999, 999, 6, 10, 64, 81, 138, 93, 95, 125, 2, 2.51235
183, 2, bw, filler, NA, 999, 999, 6, 10, 64, 81, 138, 93, 95, 125, 1, 0.530221
183, 2, bw, attraction, a-b-db, 9, 1, 6, 11, 135, 60, 57, 129, 60, 135, 3, 1.43464
183, 2, bw, attraction, a-b-db, 9, 1, 6, 11, 135, 60, 57, 129, 60, 135, 2, 0.920171
183, 2, bw, attraction, a-b-db, 14, 1, 6, 12, 60, 135, 135, 60, 56, 125, 3, 1.60925
183, 2, bw, attraction, a-b-db, 14, 1, 6, 12, 60, 135, 135, 60, 56, 125, 1, 2.1034
183, 2, bw, filler, NA, 999, 999, 6, 13, 118, 78, 67, 100, 117, 181, 3, 0.648708
183, 2, bw, filler, NA, 999, 999, 6, 13, 118, 78, 67, 100, 117, 181, 2, 1.52576
183, 2, bw, attraction, a-b-da, 5, 3, 6, 14, 190, 117, 120, 195, 195, 120, 3, 3.06998
183, 2, bw, attraction, a-b-da, 5, 3, 6, 14, 190, 117, 120, 195, 195, 120, 1, 0.953478
183, 2, bw, attraction, a-b-da, 14, 3, 6, 15, 181, 111, 120, 195, 195, 120, 2, 2.40113
183, 2, bw, attraction, a-b-da, 14, 3, 6, 15, 181, 111, 120, 195, 195, 120, 1, 0.567708
183, 2, bw, attraction, a-b-db, 14, 3, 6, 16, 195, 120, 111, 181, 120, 195, 3, 4.19884
183, 2, bw, attraction, a-b-db, 14, 3, 6, 16, 195, 120, 111, 181, 120, 195, 2, 1.26084
183, 2, bw, attraction, a-b-db, 14, 2, 6, 17, 165, 90, 90, 165, 83, 153, 1, 3.88768
183, 2, bw, attraction, a-b-db, 14, 2, 6, 17, 165, 90, 90, 165, 83, 153, 3, 0.858561
183, 2, bw, attraction, a-b-da, 9, 2, 6, 18, 157, 86, 90, 165, 165, 90, 3, 5.56547
183, 2, bw, attraction, a-b-da, 9, 2, 6, 18, 157, 86, 90, 165, 165, 90, 1, 1.31636
183, 2, bw, catch, NA, 999, 999, 6, 19, 186, 129, 125, 70, 135, 120, 1, 1.02131
183, 2, bw, catch, NA, 999, 999, 6, 19, 186, 129, 125, 70, 135, 120, 2, 1.36293
183, 2, bw, attraction, a-b-db, 2, 2, 6, 20, 90, 165, 165, 90, 89, 163, 3, 1.73782
183, 2, bw, attraction, a-b-db, 2, 2, 6, 20, 90, 165, 165, 90, 89, 163, 1, 0.8266
183, 2, bw, attraction, a-b-db, 2, 1, 6, 21, 135, 60, 60, 135, 59, 134, 2, 3.11882
183, 2, bw, attraction, a-b-db, 2, 1, 6, 21, 135, 60, 60, 135, 59, 134, 3, 0.824459
183, 2, bw, attraction, a-b-db, 5, 2, 6, 22, 165, 90, 90, 165, 88, 161, 1, 2.38084
183, 2, bw, attraction, a-b-db, 5, 2, 6, 22, 165, 90, 90, 165, 88, 161, 3, 0.804037
183, 2, bw, attraction, a-b-da, 14, 1, 6, 23, 60, 135, 125, 56, 135, 60, 3, 1.56177
183, 2, bw, attraction, a-b-da, 14, 1, 6, 23, 60, 135, 125, 56, 135, 60, 2, 0.43392
183, 2, bw, filler, NA, 999, 999, 6, 24, 80, 185, 119, 143, 84, 165, 3, 1.27839
183, 2, bw, filler, NA, 999, 999, 6, 24, 80, 185, 119, 143, 84, 165, 2, 3.24197
183, 2, bw, attraction, a-b-da, 5, 1, 6, 25, 60, 135, 132, 58, 135, 60, 3, 0.908865
183, 2, bw, attraction, a-b-da, 5, 1, 6, 25, 60, 135, 132, 58, 135, 60, 2, 0.559174
183, 2, bw, attraction, a-b-db, 9, 3, 6, 26, 114, 186, 195, 120, 120, 195, 3, 0.790422
183, 2, bw, attraction, a-b-db, 9, 3, 6, 26, 114, 186, 195, 120, 120, 195, 1, 1.32547
183, 2, bw, catch, NA, 999, 999, 6, 27, 183, 132, 109, 146, 67, 128, 1, 1.1256
183, 2, bw, catch, NA, 999, 999, 6, 27, 183, 132, 109, 146, 67, 128, 3, 0.679252
183, 2, bw, filler, NA, 999, 999, 6, 28, 84, 112, 87, 127, 72, 177, 3, 1.52963
183, 2, bw, filler, NA, 999, 999, 6, 28, 84, 112, 87, 127, 72, 177, 1, 1.41113
183, 2, bw, filler, NA, 999, 999, 6, 29, 103, 123, 153, 76, 86, 69, 2, 2.92006
183, 2, bw, filler, NA, 999, 999, 6, 29, 103, 123, 153, 76, 86, 69, 3, 0.937661
183, 2, bw, attraction, a-b-da, 5, 2, 6, 30, 90, 165, 165, 90, 161, 88, 2, 3.30615
183, 2, bw, attraction, a-b-da, 5, 2, 6, 30, 90, 165, 165, 90, 161, 88, 3, 1.17975
183, 2, bw, attraction, a-b-da, 2, 3, 6, 31, 120, 195, 193, 119, 195, 120, 3, 3.04994
183, 2, bw, attraction, a-b-da, 2, 3, 6, 31, 120, 195, 193, 119, 195, 120, 2, 0.942211
183, 2, bw, attraction, a-b-da, 14, 2, 6, 32, 165, 90, 90, 165, 153, 83, 2, 1.22979
183, 2, bw, attraction, a-b-da, 14, 2, 6, 32, 165, 90, 90, 165, 153, 83, 3, 1.07539
183, 2, bw, attraction, a-b-da, 9, 1, 6, 33, 135, 60, 60, 135, 129, 57, 3, 9.70979
183, 2, bw, attraction, a-b-da, 9, 1, 6, 33, 135, 60, 60, 135, 129, 57, 1, 0.653382
183, 2, bw, attraction, a-b-da, 2, 2, 6, 34, 165, 90, 90, 165, 163, 89, 3, 2.26506
183, 2, bw, attraction, a-b-da, 2, 2, 6, 34, 165, 90, 90, 165, 163, 89, 1, 0.549093
183, 2, bw, filler, NA, 999, 999, 6, 35, 110, 130, 139, 149, 148, 63, 2, 0.892787
183, 2, bw, filler, NA, 999, 999, 6, 35, 110, 130, 139, 149, 148, 63, 3, 1.4957
183, 2, bw, attraction, a-b-db, 9, 2, 6, 36, 90, 165, 165, 90, 86, 157, 1, 1.19322
183, 2, bw, attraction, a-b-db, 9, 2, 6, 36, 90, 165, 165, 90, 86, 157, 2, 0.624191
183, 2, bw, filler, NA, 999, 999, 6, 37, 97, 179, 175, 187, 82, 103, 2, 0.900563
183, 2, bw, filler, NA, 999, 999, 6, 37, 97, 179, 175, 187, 82, 103, 3, 0.511599
183, 2, bw, attraction, a-b-da, 5, 2, 7, 1, 90, 165, 165, 90, 161, 88, 1, 1.24871
183, 2, bw, attraction, a-b-da, 5, 2, 7, 1, 90, 165, 165, 90, 161, 88, 2, 0.477725
183, 2, bw, attraction, a-b-da, 9, 3, 7, 2, 120, 195, 186, 114, 195, 120, 1, 0.776085
183, 2, bw, attraction, a-b-da, 9, 3, 7, 2, 120, 195, 186, 114, 195, 120, 2, 0.655834
183, 2, bw, attraction, a-b-db, 2, 1, 7, 3, 59, 134, 135, 60, 60, 135, 3, 1.24355
183, 2, bw, attraction, a-b-db, 2, 1, 7, 3, 59, 134, 135, 60, 60, 135, 2, 0.736478
183, 2, bw, attraction, a-b-da, 2, 1, 7, 4, 135, 60, 60, 135, 134, 59, 2, 1.98499
183, 2, bw, attraction, a-b-da, 2, 1, 7, 4, 135, 60, 60, 135, 134, 59, 3, 0.520202
183, 2, bw, filler, NA, 999, 999, 7, 5, 80, 183, 102, 120, 98, 94, 1, 3.28124
183, 2, bw, filler, NA, 999, 999, 7, 5, 80, 183, 102, 120, 98, 94, 3, 0.652252
183, 2, bw, filler, NA, 999, 999, 7, 6, 72, 144, 176, 134, 103, 89, 2, 0.511946
183, 2, bw, filler, NA, 999, 999, 7, 6, 72, 144, 176, 134, 103, 89, 1, 1.46651
183, 2, bw, attraction, a-b-db, 5, 3, 7, 7, 120, 195, 195, 120, 117, 190, 1, 1.11727
183, 2, bw, attraction, a-b-db, 5, 3, 7, 7, 120, 195, 195, 120, 117, 190, 2, 0.527621
183, 2, bw, attraction, a-b-da, 2, 3, 7, 8, 193, 119, 195, 120, 120, 195, 2, 0.728168
183, 2, bw, attraction, a-b-da, 2, 3, 7, 8, 193, 119, 195, 120, 120, 195, 3, 0.48183
183, 2, bw, attraction, a-b-db, 9, 1, 7, 9, 57, 129, 135, 60, 60, 135, 3, 1.2603
183, 2, bw, attraction, a-b-db, 9, 1, 7, 9, 57, 129, 135, 60, 60, 135, 2, 0.408492
183, 2, bw, attraction, a-b-db, 2, 3, 7, 10, 119, 193, 120, 195, 195, 120, 2, 1.00559
183, 2, bw, attraction, a-b-db, 2, 3, 7, 10, 119, 193, 120, 195, 195, 120, 1, 0.419975
183, 2, bw, attraction, a-b-da, 9, 2, 7, 11, 90, 165, 157, 86, 165, 90, 1, 0.905164
183, 2, bw, attraction, a-b-da, 9, 2, 7, 11, 90, 165, 157, 86, 165, 90, 2, 0.603484
183, 2, bw, attraction, a-b-db, 5, 1, 7, 12, 60, 135, 58, 132, 135, 60, 2, 0.809226
183, 2, bw, attraction, a-b-db, 5, 1, 7, 12, 60, 135, 58, 132, 135, 60, 1, 0.559581
183, 2, bw, attraction, a-b-db, 14, 3, 7, 13, 195, 120, 111, 181, 120, 195, 2, 0.494696
183, 2, bw, attraction, a-b-db, 14, 3, 7, 13, 195, 120, 111, 181, 120, 195, 1, 0.473959
183, 2, bw, attraction, a-b-db, 14, 1, 7, 14, 56, 125, 60, 135, 135, 60, 2, 0.700316
183, 2, bw, attraction, a-b-db, 14, 1, 7, 14, 56, 125, 60, 135, 135, 60, 1, 0.407354
183, 2, bw, filler, NA, 999, 999, 7, 15, 120, 161, 89, 140, 174, 104, 1, 2.07653
183, 2, bw, filler, NA, 999, 999, 7, 15, 120, 161, 89, 140, 174, 104, 2, 0.471832
183, 2, bw, attraction, a-b-db, 2, 2, 7, 16, 89, 163, 165, 90, 90, 165, 3, 3.34693
183, 2, bw, attraction, a-b-db, 2, 2, 7, 16, 89, 163, 165, 90, 90, 165, 2, 0.5312
183, 2, bw, catch, NA, 999, 999, 7, 17, 161, 94, 175, 140, 91, 104, 2, 0.851657
183, 2, bw, catch, NA, 999, 999, 7, 17, 161, 94, 175, 140, 91, 104, 3, 0.664694
183, 2, bw, filler, NA, 999, 999, 7, 18, 112, 188, 193, 59, 183, 172, 3, 1.17185
183, 2, bw, filler, NA, 999, 999, 7, 18, 112, 188, 193, 59, 183, 172, 2, 0.771452
183, 2, bw, filler, NA, 999, 999, 7, 19, 60, 119, 194, 66, 155, 87, 3, 0.778567
183, 2, bw, filler, NA, 999, 999, 7, 19, 60, 119, 194, 66, 155, 87, 1, 2.62623
183, 2, bw, filler, NA, 999, 999, 7, 20, 166, 144, 76, 158, 116, 146, 1, 2.45397
183, 2, bw, filler, NA, 999, 999, 7, 20, 166, 144, 76, 158, 116, 146, 2, 1.29854
183, 2, bw, catch, NA, 999, 999, 7, 21, 165, 90, 113, 82, 126, 189, 3, 0.924021
183, 2, bw, catch, NA, 999, 999, 7, 21, 165, 90, 113, 82, 126, 189, 2, 0.709709
183, 2, bw, attraction, a-b-da, 14, 2, 7, 22, 153, 83, 165, 90, 90, 165, 3, 1.47079
183, 2, bw, attraction, a-b-da, 14, 2, 7, 22, 153, 83, 165, 90, 90, 165, 1, 0.610429
183, 2, bw, attraction, a-b-da, 9, 1, 7, 23, 60, 135, 135, 60, 129, 57, 2, 3.2873
183, 2, bw, attraction, a-b-da, 9, 1, 7, 23, 60, 135, 135, 60, 129, 57, 1, 0.61766
183, 2, bw, attraction, a-b-da, 5, 1, 7, 24, 60, 135, 135, 60, 132, 58, 2, 0.990815
183, 2, bw, attraction, a-b-da, 5, 1, 7, 24, 60, 135, 135, 60, 132, 58, 1, 0.46179
183, 2, bw, attraction, a-b-da, 5, 3, 7, 25, 190, 117, 120, 195, 195, 120, 2, 0.792877
183, 2, bw, attraction, a-b-da, 5, 3, 7, 25, 190, 117, 120, 195, 195, 120, 1, 0.943861
183, 2, bw, filler, NA, 999, 999, 7, 26, 111, 101, 153, 113, 137, 57, 2, 1.22353
183, 2, bw, filler, NA, 999, 999, 7, 26, 111, 101, 153, 113, 137, 57, 3, 6.82122
183, 2, bw, attraction, a-b-db, 5, 2, 7, 27, 90, 165, 88, 161, 165, 90, 2, 1.39231
183, 2, bw, attraction, a-b-db, 5, 2, 7, 27, 90, 165, 88, 161, 165, 90, 1, 0.903243
183, 2, bw, filler, NA, 999, 999, 7, 28, 184, 130, 153, 114, 132, 150, 1, 2.14489
183, 2, bw, filler, NA, 999, 999, 7, 28, 184, 130, 153, 114, 132, 150, 3, 2.6495
183, 2, bw, catch, NA, 999, 999, 7, 29, 141, 174, 93, 102, 90, 165, 1, 12.4926
183, 2, bw, catch, NA, 999, 999, 7, 29, 141, 174, 93, 102, 90, 165, 2, 2.64396
183, 2, bw, attraction, a-b-db, 9, 3, 7, 30, 195, 120, 120, 195, 114, 186, 2, 1.78304
183, 2, bw, attraction, a-b-db, 9, 3, 7, 30, 195, 120, 120, 195, 114, 186, 3, 0.518464
183, 2, bw, attraction, a-b-da, 2, 2, 7, 31, 163, 89, 165, 90, 90, 165, 3, 1.44771
183, 2, bw, attraction, a-b-da, 2, 2, 7, 31, 163, 89, 165, 90, 90, 165, 2, 0.548532
183, 2, bw, attraction, a-b-db, 9, 2, 7, 32, 165, 90, 90, 165, 86, 157, 2, 2.05233
183, 2, bw, attraction, a-b-db, 9, 2, 7, 32, 165, 90, 90, 165, 86, 157, 1, 1.05692
183, 2, bw, attraction, a-b-da, 14, 3, 7, 33, 195, 120, 181, 111, 120, 195, 1, 1.89986
183, 2, bw, attraction, a-b-da, 14, 3, 7, 33, 195, 120, 181, 111, 120, 195, 2, 0.47871
183, 2, bw, attraction, a-b-db, 14, 2, 7, 34, 83, 153, 165, 90, 90, 165, 2, 0.801007
183, 2, bw, attraction, a-b-db, 14, 2, 7, 34, 83, 153, 165, 90, 90, 165, 1, 1.04007
183, 2, bw, filler, NA, 999, 999, 7, 35, 152, 142, 151, 177, 78, 167, 2, 0.667736
183, 2, bw, filler, NA, 999, 999, 7, 35, 152, 142, 151, 177, 78, 167, 1, 1.16008
183, 2, bw, attraction, a-b-da, 14, 1, 7, 36, 125, 56, 135, 60, 60, 135, 2, 5.61504
183, 2, bw, attraction, a-b-da, 14, 1, 7, 36, 125, 56, 135, 60, 60, 135, 1, 1.34793
183, 2, bw, filler, NA, 999, 999, 7, 37, 67, 84, 90, 62, 147, 124, 3, 1.78744
183, 2, bw, filler, NA, 999, 999, 7, 37, 67, 84, 90, 62, 147, 124, 2, 1.75493
183, 2, bw, attraction, a-b-da, 14, 3, 8, 1, 195, 120, 120, 195, 181, 111, 2, 0.746255
183, 2, bw, attraction, a-b-da, 14, 3, 8, 1, 195, 120, 120, 195, 181, 111, 3, 1.54749
183, 2, bw, catch, NA, 999, 999, 8, 2, 164, 91, 179, 136, 124, 71, 2, 0.53881
183, 2, bw, catch, NA, 999, 999, 8, 2, 164, 91, 179, 136, 124, 71, 3, 0.269516
183, 2, bw, attraction, a-b-db, 2, 3, 8, 3, 120, 195, 119, 193, 195, 120, 3, 4.39132
183, 2, bw, attraction, a-b-db, 2, 3, 8, 3, 120, 195, 119, 193, 195, 120, 1, 0.997114
183, 2, bw, attraction, a-b-db, 2, 2, 8, 4, 90, 165, 165, 90, 89, 163, 3, 4.34684
183, 2, bw, attraction, a-b-db, 2, 2, 8, 4, 90, 165, 165, 90, 89, 163, 1, 1.15458
183, 2, bw, filler, NA, 999, 999, 8, 5, 118, 121, 95, 163, 188, 134, 3, 1.61021
183, 2, bw, filler, NA, 999, 999, 8, 5, 118, 121, 95, 163, 188, 134, 1, 0.71253
183, 2, bw, attraction, a-b-db, 14, 2, 8, 6, 90, 165, 165, 90, 83, 153, 1, 1.36141
183, 2, bw, attraction, a-b-db, 14, 2, 8, 6, 90, 165, 165, 90, 83, 153, 3, 0.465612
183, 2, bw, filler, NA, 999, 999, 8, 7, 82, 161, 168, 152, 112, 180, 2, 0.684713
183, 2, bw, filler, NA, 999, 999, 8, 7, 82, 161, 168, 152, 112, 180, 1, 0.560466
183, 2, bw, filler, NA, 999, 999, 8, 8, 189, 192, 94, 144, 194, 127, 1, 0.727732
183, 2, bw, filler, NA, 999, 999, 8, 8, 189, 192, 94, 144, 194, 127, 2, 0.553485
183, 2, bw, attraction, a-b-db, 9, 2, 8, 9, 165, 90, 90, 165, 86, 157, 2, 0.745142
183, 2, bw, attraction, a-b-db, 9, 2, 8, 9, 165, 90, 90, 165, 86, 157, 3, 0.514243
183, 2, bw, attraction, a-b-da, 14, 1, 8, 10, 135, 60, 125, 56, 60, 135, 3, 1.62732
183, 2, bw, attraction, a-b-da, 14, 1, 8, 10, 135, 60, 125, 56, 60, 135, 2, 0.544787
183, 2, bw, filler, NA, 999, 999, 8, 11, 187, 74, 122, 72, 121, 193, 3, 0.784522
183, 2, bw, filler, NA, 999, 999, 8, 11, 187, 74, 122, 72, 121, 193, 2, 0.544334
183, 2, bw, filler, NA, 999, 999, 8, 12, 111, 159, 104, 60, 160, 135, 3, 0.920169
183, 2, bw, filler, NA, 999, 999, 8, 12, 111, 159, 104, 60, 160, 135, 2, 0.425761
183, 2, bw, filler, NA, 999, 999, 8, 13, 61, 110, 71, 120, 72, 172, 3, 0.566331
183, 2, bw, filler, NA, 999, 999, 8, 13, 61, 110, 71, 120, 72, 172, 1, 0.414775
183, 2, bw, attraction, a-b-da, 2, 2, 8, 14, 90, 165, 163, 89, 165, 90, 3, 0.547816
183, 2, bw, attraction, a-b-da, 2, 2, 8, 14, 90, 165, 163, 89, 165, 90, 2, 1.02893
183, 2, bw, attraction, a-b-da, 5, 3, 8, 15, 190, 117, 195, 120, 120, 195, 3, 1.02529
183, 2, bw, attraction, a-b-da, 5, 3, 8, 15, 190, 117, 195, 120, 120, 195, 2, 0.878929
183, 2, bw, attraction, a-b-da, 9, 2, 8, 16, 165, 90, 90, 165, 157, 86, 2, 1.20117
183, 2, bw, attraction, a-b-da, 9, 2, 8, 16, 165, 90, 90, 165, 157, 86, 1, 0.536311
183, 2, bw, attraction, a-b-da, 14, 2, 8, 17, 165, 90, 153, 83, 90, 165, 3, 2.71261
183, 2, bw, attraction, a-b-da, 14, 2, 8, 17, 165, 90, 153, 83, 90, 165, 2, 0.506355
183, 2, bw, attraction, a-b-da, 2, 3, 8, 18, 120, 195, 195, 120, 193, 119, 3, 4.76343
183, 2, bw, attraction, a-b-da, 2, 3, 8, 18, 120, 195, 195, 120, 193, 119, 2, 0.490587
183, 2, bw, attraction, a-b-db, 9, 1, 8, 19, 60, 135, 57, 129, 135, 60, 3, 2.33248
183, 2, bw, attraction, a-b-db, 9, 1, 8, 19, 60, 135, 57, 129, 135, 60, 2, 0.389644
183, 2, bw, catch, NA, 999, 999, 8, 20, 104, 151, 71, 124, 179, 136, 3, 1.24349
183, 2, bw, catch, NA, 999, 999, 8, 20, 104, 151, 71, 124, 179, 136, 2, 0.59238
183, 2, bw, attraction, a-b-db, 5, 3, 8, 21, 195, 120, 120, 195, 117, 190, 2, 0.81418
183, 2, bw, attraction, a-b-db, 5, 3, 8, 21, 195, 120, 120, 195, 117, 190, 1, 0.404543
183, 2, bw, attraction, a-b-da, 5, 1, 8, 22, 60, 135, 132, 58, 135, 60, 3, 0.954492
183, 2, bw, attraction, a-b-da, 5, 1, 8, 22, 60, 135, 132, 58, 135, 60, 1, 0.394723
183, 2, bw, filler, NA, 999, 999, 8, 23, 183, 93, 152, 97, 63, 174, 2, 0.544515
183, 2, bw, filler, NA, 999, 999, 8, 23, 183, 93, 152, 97, 63, 174, 3, 0.577719
183, 2, bw, attraction, a-b-db, 9, 3, 8, 24, 120, 195, 195, 120, 114, 186, 1, 0.624066
183, 2, bw, attraction, a-b-db, 9, 3, 8, 24, 120, 195, 195, 120, 114, 186, 2, 0.317864
183, 2, bw, attraction, a-b-da, 2, 1, 8, 25, 135, 60, 134, 59, 60, 135, 1, 1.59907
183, 2, bw, attraction, a-b-da, 2, 1, 8, 25, 135, 60, 134, 59, 60, 135, 3, 0.437812
183, 2, bw, filler, NA, 999, 999, 8, 26, 134, 164, 130, 167, 135, 72, 2, 0.898339
183, 2, bw, filler, NA, 999, 999, 8, 26, 134, 164, 130, 167, 135, 72, 3, 0.541341
183, 2, bw, filler, NA, 999, 999, 8, 27, 114, 73, 184, 90, 172, 193, 3, 2.34118
183, 2, bw, filler, NA, 999, 999, 8, 27, 114, 73, 184, 90, 172, 193, 1, 0.74177
183, 2, bw, attraction, a-b-da, 5, 2, 8, 28, 90, 165, 161, 88, 165, 90, 2, 15.8134
183, 2, bw, attraction, a-b-da, 5, 2, 8, 28, 90, 165, 161, 88, 165, 90, 3, 0.735167
183, 2, bw, attraction, a-b-db, 5, 1, 8, 29, 135, 60, 58, 132, 60, 135, 3, 1.1194
183, 2, bw, attraction, a-b-db, 5, 1, 8, 29, 135, 60, 58, 132, 60, 135, 2, 0.985788
183, 2, bw, filler, NA, 999, 999, 8, 30, 108, 103, 162, 58, 186, 158, 3, 0.912113
183, 2, bw, filler, NA, 999, 999, 8, 30, 108, 103, 162, 58, 186, 158, 2, 1.17046
183, 2, bw, attraction, a-b-da, 9, 1, 8, 31, 60, 135, 129, 57, 135, 60, 3, 0.993451
183, 2, bw, attraction, a-b-da, 9, 1, 8, 31, 60, 135, 129, 57, 135, 60, 2, 0.784451
183, 2, bw, catch, NA, 999, 999, 8, 32, 156, 159, 153, 102, 66, 129, 1, 1.04674
183, 2, bw, catch, NA, 999, 999, 8, 32, 156, 159, 153, 102, 66, 129, 3, 0.499675
183, 2, bw, attraction, a-b-db, 5, 2, 8, 33, 88, 161, 90, 165, 165, 90, 2, 0.997438
183, 2, bw, attraction, a-b-db, 5, 2, 8, 33, 88, 161, 90, 165, 165, 90, 1, 0.388576
183, 2, bw, attraction, a-b-db, 14, 1, 8, 34, 56, 125, 135, 60, 60, 135, 3, 0.658915
183, 2, bw, attraction, a-b-db, 14, 1, 8, 34, 56, 125, 135, 60, 60, 135, 1, 0.53539
183, 2, bw, attraction, a-b-db, 14, 3, 8, 35, 195, 120, 111, 181, 120, 195, 3, 0.751838
183, 2, bw, attraction, a-b-db, 14, 3, 8, 35, 195, 120, 111, 181, 120, 195, 2, 0.488933
183, 2, bw, attraction, a-b-db, 2, 1, 8, 36, 135, 60, 59, 134, 60, 135, 2, 0.85948
183, 2, bw, attraction, a-b-db, 2, 1, 8, 36, 135, 60, 59, 134, 60, 135, 1, 0.423803
183, 2, bw, attraction, a-b-da, 9, 3, 8, 37, 186, 114, 195, 120, 120, 195, 2, 0.532194
183, 2, bw, attraction, a-b-da, 9, 3, 8, 37, 186, 114, 195, 120, 120, 195, 1, 1.29424
