sub_n, computer_n, bw_cond, effect, set, distance, diag, block_n, trial_n, h1, w1, h2, w2, h3, w3, choice, rt 
139, 2, bw, practice, NA, 999, 999, 0, 1, 126, 83, 67, 93, 56, 172, 1, 10.7959
139, 2, bw, practice, NA, 999, 999, 0, 1, 126, 83, 67, 93, 56, 172, 2, 34.1912
139, 2, bw, practice, NA, 999, 999, 0, 2, 105, 179, 174, 172, 96, 83, 2, 3.92183
139, 2, bw, practice, NA, 999, 999, 0, 2, 105, 179, 174, 172, 96, 83, 3, 2.03655
139, 2, bw, practice, NA, 999, 999, 0, 3, 189, 117, 56, 68, 184, 137, 3, 3.95693
139, 2, bw, practice, NA, 999, 999, 0, 3, 189, 117, 56, 68, 184, 137, 2, 1.93767
139, 2, bw, filler, NA, 999, 999, 1, 1, 64, 129, 192, 154, 115, 74, 2, 2.75334
139, 2, bw, filler, NA, 999, 999, 1, 1, 64, 129, 192, 154, 115, 74, 3, 6.75308
139, 2, bw, attraction, a-b-da, 5, 3, 1, 2, 120, 195, 190, 117, 195, 120, 1, 4.51082
139, 2, bw, attraction, a-b-da, 5, 3, 1, 2, 120, 195, 190, 117, 195, 120, 2, 15.3121
139, 2, bw, filler, NA, 999, 999, 1, 3, 123, 121, 145, 162, 171, 121, 2, 5.77261
139, 2, bw, filler, NA, 999, 999, 1, 3, 123, 121, 145, 162, 171, 121, 1, 1.70692
139, 2, bw, attraction, a-b-db, 9, 2, 1, 4, 86, 157, 90, 165, 165, 90, 2, 15.8835
139, 2, bw, attraction, a-b-db, 9, 2, 1, 4, 86, 157, 90, 165, 165, 90, 3, 1.25059
139, 2, bw, attraction, a-b-da, 5, 1, 1, 5, 132, 58, 135, 60, 60, 135, 3, 10.9661
139, 2, bw, attraction, a-b-da, 5, 1, 1, 5, 132, 58, 135, 60, 60, 135, 1, 2.0033
139, 2, bw, filler, NA, 999, 999, 1, 6, 113, 78, 100, 183, 179, 106, 2, 2.47275
139, 2, bw, filler, NA, 999, 999, 1, 6, 113, 78, 100, 183, 179, 106, 1, 1.13179
139, 2, bw, attraction, a-b-da, 9, 1, 1, 7, 135, 60, 60, 135, 129, 57, 1, 2.77214
139, 2, bw, attraction, a-b-da, 9, 1, 1, 7, 135, 60, 60, 135, 129, 57, 3, 1.21919
139, 2, bw, attraction, a-b-db, 2, 1, 1, 8, 60, 135, 59, 134, 135, 60, 1, 2.39209
139, 2, bw, attraction, a-b-db, 2, 1, 1, 8, 60, 135, 59, 134, 135, 60, 3, 0.694607
139, 2, bw, attraction, a-b-db, 14, 1, 1, 9, 56, 125, 60, 135, 135, 60, 2, 2.24836
139, 2, bw, attraction, a-b-db, 14, 1, 1, 9, 56, 125, 60, 135, 135, 60, 1, 0.74091
139, 2, bw, attraction, a-b-db, 14, 2, 1, 10, 83, 153, 90, 165, 165, 90, 2, 2.87667
139, 2, bw, attraction, a-b-db, 14, 2, 1, 10, 83, 153, 90, 165, 165, 90, 1, 1.74372
139, 2, bw, attraction, a-b-da, 2, 1, 1, 11, 134, 59, 135, 60, 60, 135, 1, 6.81524
139, 2, bw, attraction, a-b-da, 2, 1, 1, 11, 134, 59, 135, 60, 60, 135, 3, 1.14764
139, 2, bw, catch, NA, 999, 999, 1, 12, 101, 154, 127, 68, 183, 132, 3, 1.20328
139, 2, bw, catch, NA, 999, 999, 1, 12, 101, 154, 127, 68, 183, 132, 2, 0.650121
139, 2, bw, filler, NA, 999, 999, 1, 13, 161, 159, 76, 133, 166, 147, 1, 17.3339
139, 2, bw, filler, NA, 999, 999, 1, 13, 161, 159, 76, 133, 166, 147, 2, 0.722467
139, 2, bw, attraction, a-b-db, 5, 2, 1, 14, 88, 161, 90, 165, 165, 90, 2, 3.21146
139, 2, bw, attraction, a-b-db, 5, 2, 1, 14, 88, 161, 90, 165, 165, 90, 1, 0.889277
139, 2, bw, filler, NA, 999, 999, 1, 15, 88, 128, 149, 96, 61, 194, 3, 16.8195
139, 2, bw, filler, NA, 999, 999, 1, 15, 88, 128, 149, 96, 61, 194, 1, 11.1968
139, 2, bw, filler, NA, 999, 999, 1, 16, 153, 105, 142, 116, 153, 63, 2, 1.86332
139, 2, bw, filler, NA, 999, 999, 1, 16, 153, 105, 142, 116, 153, 63, 3, 0.515416
139, 2, bw, filler, NA, 999, 999, 1, 17, 131, 175, 117, 92, 73, 63, 1, 1.28456
139, 2, bw, filler, NA, 999, 999, 1, 17, 131, 175, 117, 92, 73, 63, 3, 1.10406
139, 2, bw, attraction, a-b-db, 5, 3, 1, 18, 195, 120, 120, 195, 117, 190, 2, 3.88168
139, 2, bw, attraction, a-b-db, 5, 3, 1, 18, 195, 120, 120, 195, 117, 190, 3, 3.55642
139, 2, bw, attraction, a-b-db, 9, 1, 1, 19, 60, 135, 135, 60, 57, 129, 1, 4.02729
139, 2, bw, attraction, a-b-db, 9, 1, 1, 19, 60, 135, 135, 60, 57, 129, 3, 1.88002
139, 2, bw, attraction, a-b-db, 5, 1, 1, 20, 135, 60, 60, 135, 58, 132, 1, 5.96203
139, 2, bw, attraction, a-b-db, 5, 1, 1, 20, 135, 60, 60, 135, 58, 132, 3, 0.680732
139, 2, bw, attraction, a-b-da, 14, 2, 1, 21, 90, 165, 165, 90, 153, 83, 1, 2.1231
139, 2, bw, attraction, a-b-da, 14, 2, 1, 21, 90, 165, 165, 90, 153, 83, 3, 0.788531
139, 2, bw, attraction, a-b-da, 2, 2, 1, 22, 165, 90, 163, 89, 90, 165, 1, 54.4989
139, 2, bw, attraction, a-b-da, 2, 2, 1, 22, 165, 90, 163, 89, 90, 165, 2, 0.501794
139, 2, bw, attraction, a-b-da, 9, 2, 1, 23, 157, 86, 165, 90, 90, 165, 3, 2.50351
139, 2, bw, attraction, a-b-da, 9, 2, 1, 23, 157, 86, 165, 90, 90, 165, 1, 3.71417
139, 2, bw, attraction, a-b-da, 2, 3, 1, 24, 193, 119, 195, 120, 120, 195, 3, 20.8662
139, 2, bw, attraction, a-b-da, 2, 3, 1, 24, 193, 119, 195, 120, 120, 195, 2, 1.79229
139, 2, bw, attraction, a-b-da, 14, 3, 1, 25, 195, 120, 181, 111, 120, 195, 3, 8.62974
139, 2, bw, attraction, a-b-da, 14, 3, 1, 25, 195, 120, 181, 111, 120, 195, 2, 0.512944
139, 2, bw, attraction, a-b-da, 14, 1, 1, 26, 125, 56, 135, 60, 60, 135, 3, 4.17017
139, 2, bw, attraction, a-b-da, 14, 1, 1, 26, 125, 56, 135, 60, 60, 135, 1, 1.04943
139, 2, bw, attraction, a-b-da, 5, 2, 1, 27, 90, 165, 165, 90, 161, 88, 1, 3.58902
139, 2, bw, attraction, a-b-da, 5, 2, 1, 27, 90, 165, 165, 90, 161, 88, 3, 0.867321
139, 2, bw, attraction, a-b-db, 9, 3, 1, 28, 114, 186, 120, 195, 195, 120, 2, 1.64631
139, 2, bw, attraction, a-b-db, 9, 3, 1, 28, 114, 186, 120, 195, 195, 120, 1, 1.25109
139, 2, bw, filler, NA, 999, 999, 1, 29, 64, 145, 112, 65, 57, 192, 3, 5.26261
139, 2, bw, filler, NA, 999, 999, 1, 29, 64, 145, 112, 65, 57, 192, 2, 3.49761
139, 2, bw, catch, NA, 999, 999, 1, 30, 171, 144, 99, 156, 73, 122, 1, 1.11442
139, 2, bw, catch, NA, 999, 999, 1, 30, 171, 144, 99, 156, 73, 122, 3, 0.540731
139, 2, bw, attraction, a-b-da, 9, 3, 1, 31, 120, 195, 186, 114, 195, 120, 1, 14.8445
139, 2, bw, attraction, a-b-da, 9, 3, 1, 31, 120, 195, 186, 114, 195, 120, 2, 1.26116
139, 2, bw, attraction, a-b-db, 14, 3, 1, 32, 120, 195, 111, 181, 195, 120, 1, 2.54416
139, 2, bw, attraction, a-b-db, 14, 3, 1, 32, 120, 195, 111, 181, 195, 120, 2, 1.26455
139, 2, bw, attraction, a-b-db, 2, 3, 1, 33, 119, 193, 195, 120, 120, 195, 3, 1.98741
139, 2, bw, attraction, a-b-db, 2, 3, 1, 33, 119, 193, 195, 120, 120, 195, 2, 0.810116
139, 2, bw, attraction, a-b-db, 2, 2, 1, 34, 89, 163, 90, 165, 165, 90, 2, 6.15111
139, 2, bw, attraction, a-b-db, 2, 2, 1, 34, 89, 163, 90, 165, 165, 90, 3, 1.59849
139, 2, bw, filler, NA, 999, 999, 1, 35, 191, 183, 56, 85, 182, 188, 1, 1.76402
139, 2, bw, filler, NA, 999, 999, 1, 35, 191, 183, 56, 85, 182, 188, 2, 0.780059
139, 2, bw, filler, NA, 999, 999, 1, 36, 60, 159, 63, 65, 126, 138, 3, 2.14655
139, 2, bw, filler, NA, 999, 999, 1, 36, 60, 159, 63, 65, 126, 138, 2, 0.739069
139, 2, bw, catch, NA, 999, 999, 1, 37, 159, 156, 101, 94, 120, 135, 1, 1.07542
139, 2, bw, catch, NA, 999, 999, 1, 37, 159, 156, 101, 94, 120, 135, 2, 0.783081
139, 2, bw, attraction, a-b-db, 9, 2, 2, 1, 90, 165, 165, 90, 86, 157, 1, 4.17349
139, 2, bw, attraction, a-b-db, 9, 2, 2, 1, 90, 165, 165, 90, 86, 157, 2, 3.07607
139, 2, bw, attraction, a-b-db, 2, 1, 2, 2, 60, 135, 135, 60, 59, 134, 1, 5.42181
139, 2, bw, attraction, a-b-db, 2, 1, 2, 2, 60, 135, 135, 60, 59, 134, 2, 1.25071
139, 2, bw, attraction, a-b-da, 14, 2, 2, 3, 90, 165, 165, 90, 153, 83, 1, 2.41427
139, 2, bw, attraction, a-b-da, 14, 2, 2, 3, 90, 165, 165, 90, 153, 83, 3, 1.22018
139, 2, bw, filler, NA, 999, 999, 2, 4, 189, 166, 186, 143, 152, 134, 1, 1.65697
139, 2, bw, filler, NA, 999, 999, 2, 4, 189, 166, 186, 143, 152, 134, 3, 0.957153
139, 2, bw, filler, NA, 999, 999, 2, 5, 85, 162, 118, 153, 165, 152, 3, 1.75615
139, 2, bw, filler, NA, 999, 999, 2, 5, 85, 162, 118, 153, 165, 152, 1, 1.82826
139, 2, bw, catch, NA, 999, 999, 2, 6, 83, 112, 126, 189, 108, 147, 2, 1.12815
139, 2, bw, catch, NA, 999, 999, 2, 6, 83, 112, 126, 189, 108, 147, 1, 0.72186
139, 2, bw, attraction, a-b-da, 5, 3, 2, 7, 120, 195, 195, 120, 190, 117, 1, 2.0269
139, 2, bw, attraction, a-b-da, 5, 3, 2, 7, 120, 195, 195, 120, 190, 117, 3, 1.0482
139, 2, bw, attraction, a-b-da, 5, 2, 2, 8, 161, 88, 90, 165, 165, 90, 3, 4.02798
139, 2, bw, attraction, a-b-da, 5, 2, 2, 8, 161, 88, 90, 165, 165, 90, 1, 2.09662
139, 2, bw, filler, NA, 999, 999, 2, 9, 67, 62, 140, 188, 170, 158, 2, 2.21792
139, 2, bw, filler, NA, 999, 999, 2, 9, 67, 62, 140, 188, 170, 158, 1, 1.16777
139, 2, bw, attraction, a-b-da, 9, 3, 2, 10, 195, 120, 186, 114, 120, 195, 3, 2.04667
139, 2, bw, attraction, a-b-da, 9, 3, 2, 10, 195, 120, 186, 114, 120, 195, 2, 0.467398
139, 2, bw, attraction, a-b-da, 14, 3, 2, 11, 195, 120, 120, 195, 181, 111, 1, 1.44652
139, 2, bw, attraction, a-b-da, 14, 3, 2, 11, 195, 120, 120, 195, 181, 111, 2, 0.643607
139, 2, bw, filler, NA, 999, 999, 2, 12, 107, 61, 193, 83, 112, 95, 2, 1.73514
139, 2, bw, filler, NA, 999, 999, 2, 12, 107, 61, 193, 83, 112, 95, 1, 0.592582
139, 2, bw, attraction, a-b-db, 14, 2, 2, 13, 90, 165, 83, 153, 165, 90, 3, 3.19824
139, 2, bw, attraction, a-b-db, 14, 2, 2, 13, 90, 165, 83, 153, 165, 90, 2, 0.772587
139, 2, bw, catch, NA, 999, 999, 2, 14, 148, 167, 102, 93, 140, 115, 1, 1.40371
139, 2, bw, catch, NA, 999, 999, 2, 14, 148, 167, 102, 93, 140, 115, 2, 0.778517
139, 2, bw, filler, NA, 999, 999, 2, 15, 160, 150, 145, 103, 134, 73, 1, 1.09699
139, 2, bw, filler, NA, 999, 999, 2, 15, 160, 150, 145, 103, 134, 73, 3, 0.931881
139, 2, bw, attraction, a-b-db, 5, 2, 2, 16, 90, 165, 165, 90, 88, 161, 1, 4.98019
139, 2, bw, attraction, a-b-db, 5, 2, 2, 16, 90, 165, 165, 90, 88, 161, 2, 0.818547
139, 2, bw, attraction, a-b-db, 2, 2, 2, 17, 165, 90, 90, 165, 89, 163, 3, 3.40766
139, 2, bw, attraction, a-b-db, 2, 2, 2, 17, 165, 90, 90, 165, 89, 163, 2, 0.877167
139, 2, bw, filler, NA, 999, 999, 2, 18, 153, 110, 194, 112, 176, 179, 1, 1.36747
139, 2, bw, filler, NA, 999, 999, 2, 18, 153, 110, 194, 112, 176, 179, 3, 0.63166
139, 2, bw, attraction, a-b-da, 9, 1, 2, 19, 129, 57, 60, 135, 135, 60, 2, 4.34013
139, 2, bw, attraction, a-b-da, 9, 1, 2, 19, 129, 57, 60, 135, 135, 60, 1, 1.21204
139, 2, bw, attraction, a-b-db, 5, 3, 2, 20, 117, 190, 195, 120, 120, 195, 2, 1.705
139, 2, bw, attraction, a-b-db, 5, 3, 2, 20, 117, 190, 195, 120, 120, 195, 3, 0.603208
139, 2, bw, filler, NA, 999, 999, 2, 21, 65, 69, 149, 163, 161, 154, 2, 1.93691
139, 2, bw, filler, NA, 999, 999, 2, 21, 65, 69, 149, 163, 161, 154, 1, 1.03424
139, 2, bw, attraction, a-b-db, 2, 3, 2, 22, 120, 195, 195, 120, 119, 193, 1, 1.67049
139, 2, bw, attraction, a-b-db, 2, 3, 2, 22, 120, 195, 195, 120, 119, 193, 2, 4.25861
139, 2, bw, attraction, a-b-da, 5, 1, 2, 23, 135, 60, 132, 58, 60, 135, 1, 10.1725
139, 2, bw, attraction, a-b-da, 5, 1, 2, 23, 135, 60, 132, 58, 60, 135, 2, 0.61752
139, 2, bw, attraction, a-b-da, 2, 3, 2, 24, 193, 119, 120, 195, 195, 120, 2, 7.99045
139, 2, bw, attraction, a-b-da, 2, 3, 2, 24, 193, 119, 120, 195, 195, 120, 1, 0.635308
139, 2, bw, filler, NA, 999, 999, 2, 25, 119, 124, 64, 90, 74, 161, 2, 0.975654
139, 2, bw, filler, NA, 999, 999, 2, 25, 119, 124, 64, 90, 74, 161, 1, 1.07143
139, 2, bw, filler, NA, 999, 999, 2, 26, 95, 64, 103, 193, 168, 89, 1, 1.59425
139, 2, bw, filler, NA, 999, 999, 2, 26, 95, 64, 103, 193, 168, 89, 2, 1.72914
139, 2, bw, attraction, a-b-da, 2, 1, 2, 27, 135, 60, 134, 59, 60, 135, 3, 18.0411
139, 2, bw, attraction, a-b-da, 2, 1, 2, 27, 135, 60, 134, 59, 60, 135, 1, 2.09758
139, 2, bw, attraction, a-b-da, 2, 2, 2, 28, 165, 90, 90, 165, 163, 89, 2, 4.19474
139, 2, bw, attraction, a-b-da, 2, 2, 2, 28, 165, 90, 90, 165, 163, 89, 1, 1.40074
139, 2, bw, catch, NA, 999, 999, 2, 29, 139, 176, 91, 164, 118, 77, 1, 1.23024
139, 2, bw, catch, NA, 999, 999, 2, 29, 139, 176, 91, 164, 118, 77, 3, 1.11583
139, 2, bw, filler, NA, 999, 999, 2, 30, 140, 56, 108, 84, 145, 66, 2, 1.5568
139, 2, bw, filler, NA, 999, 999, 2, 30, 140, 56, 108, 84, 145, 66, 1, 3.38895
139, 2, bw, attraction, a-b-db, 5, 1, 2, 31, 135, 60, 60, 135, 58, 132, 2, 2.86655
139, 2, bw, attraction, a-b-db, 5, 1, 2, 31, 135, 60, 60, 135, 58, 132, 1, 0.726194
139, 2, bw, attraction, a-b-da, 14, 1, 2, 32, 125, 56, 60, 135, 135, 60, 2, 1.00654
139, 2, bw, attraction, a-b-da, 14, 1, 2, 32, 125, 56, 60, 135, 135, 60, 1, 0.805028
139, 2, bw, attraction, a-b-db, 14, 3, 2, 33, 111, 181, 120, 195, 195, 120, 2, 3.49065
139, 2, bw, attraction, a-b-db, 14, 3, 2, 33, 111, 181, 120, 195, 195, 120, 1, 1.20496
139, 2, bw, attraction, a-b-db, 14, 1, 2, 34, 135, 60, 60, 135, 56, 125, 2, 4.35447
139, 2, bw, attraction, a-b-db, 14, 1, 2, 34, 135, 60, 60, 135, 56, 125, 1, 0.54635
139, 2, bw, attraction, a-b-da, 9, 2, 2, 35, 165, 90, 90, 165, 157, 86, 2, 6.24209
139, 2, bw, attraction, a-b-da, 9, 2, 2, 35, 165, 90, 90, 165, 157, 86, 3, 1.13347
139, 2, bw, attraction, a-b-db, 9, 3, 2, 36, 114, 186, 195, 120, 120, 195, 2, 3.94968
139, 2, bw, attraction, a-b-db, 9, 3, 2, 36, 114, 186, 195, 120, 120, 195, 1, 1.85393
139, 2, bw, attraction, a-b-db, 9, 1, 2, 37, 135, 60, 60, 135, 57, 129, 2, 5.63322
139, 2, bw, attraction, a-b-db, 9, 1, 2, 37, 135, 60, 60, 135, 57, 129, 3, 1.77347
139, 2, bw, attraction, a-b-da, 2, 1, 3, 1, 134, 59, 60, 135, 135, 60, 2, 3.63547
139, 2, bw, attraction, a-b-da, 2, 1, 3, 1, 134, 59, 60, 135, 135, 60, 3, 0.592291
139, 2, bw, attraction, a-b-db, 9, 2, 3, 2, 90, 165, 86, 157, 165, 90, 1, 1.81404
139, 2, bw, attraction, a-b-db, 9, 2, 3, 2, 90, 165, 86, 157, 165, 90, 3, 0.532138
139, 2, bw, catch, NA, 999, 999, 3, 3, 60, 135, 144, 171, 116, 139, 2, 0.844672
139, 2, bw, catch, NA, 999, 999, 3, 3, 60, 135, 144, 171, 116, 139, 1, 0.45767
139, 2, bw, attraction, a-b-db, 14, 3, 3, 4, 111, 181, 120, 195, 195, 120, 2, 2.57266
139, 2, bw, attraction, a-b-db, 14, 3, 3, 4, 111, 181, 120, 195, 195, 120, 1, 0.979811
139, 2, bw, attraction, a-b-da, 2, 3, 3, 5, 120, 195, 195, 120, 193, 119, 1, 1.31418
139, 2, bw, attraction, a-b-da, 2, 3, 3, 5, 120, 195, 195, 120, 193, 119, 2, 1.28442
139, 2, bw, filler, NA, 999, 999, 3, 6, 168, 120, 68, 87, 169, 133, 1, 2.08658
139, 2, bw, filler, NA, 999, 999, 3, 6, 168, 120, 68, 87, 169, 133, 2, 2.61793
139, 2, bw, attraction, a-b-da, 14, 2, 3, 7, 153, 83, 165, 90, 90, 165, 2, 1.31036
139, 2, bw, attraction, a-b-da, 14, 2, 3, 7, 153, 83, 165, 90, 90, 165, 1, 1.5526
139, 2, bw, filler, NA, 999, 999, 3, 8, 147, 180, 141, 176, 161, 85, 1, 1.48822
139, 2, bw, filler, NA, 999, 999, 3, 8, 147, 180, 141, 176, 161, 85, 3, 1.0029
139, 2, bw, filler, NA, 999, 999, 3, 9, 182, 87, 155, 192, 100, 97, 2, 1.47269
139, 2, bw, filler, NA, 999, 999, 3, 9, 182, 87, 155, 192, 100, 97, 3, 0.644051
139, 2, bw, attraction, a-b-db, 5, 1, 3, 10, 58, 132, 135, 60, 60, 135, 3, 4.41588
139, 2, bw, attraction, a-b-db, 5, 1, 3, 10, 58, 132, 135, 60, 60, 135, 2, 0.477107
139, 2, bw, attraction, a-b-da, 5, 2, 3, 11, 161, 88, 165, 90, 90, 165, 3, 1.67145
139, 2, bw, attraction, a-b-da, 5, 2, 3, 11, 161, 88, 165, 90, 90, 165, 2, 2.11497
139, 2, bw, attraction, a-b-da, 9, 1, 3, 12, 129, 57, 60, 135, 135, 60, 2, 2.44363
139, 2, bw, attraction, a-b-da, 9, 1, 3, 12, 129, 57, 60, 135, 135, 60, 1, 1.41626
139, 2, bw, attraction, a-b-da, 14, 1, 3, 13, 125, 56, 135, 60, 60, 135, 3, 1.82903
139, 2, bw, attraction, a-b-da, 14, 1, 3, 13, 125, 56, 135, 60, 60, 135, 1, 1.24233
139, 2, bw, attraction, a-b-da, 2, 2, 3, 14, 90, 165, 165, 90, 163, 89, 1, 4.68584
139, 2, bw, attraction, a-b-da, 2, 2, 3, 14, 90, 165, 165, 90, 163, 89, 3, 1.00851
139, 2, bw, attraction, a-b-db, 2, 1, 3, 15, 60, 135, 135, 60, 59, 134, 1, 1.53338
139, 2, bw, attraction, a-b-db, 2, 1, 3, 15, 60, 135, 135, 60, 59, 134, 2, 0.49482
139, 2, bw, attraction, a-b-db, 5, 2, 3, 16, 165, 90, 90, 165, 88, 161, 2, 2.26482
139, 2, bw, attraction, a-b-db, 5, 2, 3, 16, 165, 90, 90, 165, 88, 161, 3, 2.0926
139, 2, bw, attraction, a-b-db, 9, 1, 3, 17, 60, 135, 135, 60, 57, 129, 3, 10.0218
139, 2, bw, attraction, a-b-db, 9, 1, 3, 17, 60, 135, 135, 60, 57, 129, 1, 1.59339
139, 2, bw, attraction, a-b-db, 14, 1, 3, 18, 135, 60, 56, 125, 60, 135, 3, 4.27891
139, 2, bw, attraction, a-b-db, 14, 1, 3, 18, 135, 60, 56, 125, 60, 135, 2, 0.833446
139, 2, bw, filler, NA, 999, 999, 3, 19, 135, 143, 97, 123, 75, 134, 1, 0.957888
139, 2, bw, filler, NA, 999, 999, 3, 19, 135, 143, 97, 123, 75, 134, 3, 3.91833
139, 2, bw, attraction, a-b-da, 9, 2, 3, 20, 165, 90, 90, 165, 157, 86, 1, 3.94216
139, 2, bw, attraction, a-b-da, 9, 2, 3, 20, 165, 90, 90, 165, 157, 86, 3, 0.830252
139, 2, bw, attraction, a-b-da, 5, 1, 3, 21, 132, 58, 60, 135, 135, 60, 2, 2.49866
139, 2, bw, attraction, a-b-da, 5, 1, 3, 21, 132, 58, 60, 135, 135, 60, 1, 2.43713
139, 2, bw, attraction, a-b-db, 2, 3, 3, 22, 120, 195, 119, 193, 195, 120, 1, 2.91294
139, 2, bw, attraction, a-b-db, 2, 3, 3, 22, 120, 195, 119, 193, 195, 120, 2, 0.922774
139, 2, bw, catch, NA, 999, 999, 3, 23, 111, 144, 158, 157, 130, 65, 2, 1.18701
139, 2, bw, catch, NA, 999, 999, 3, 23, 111, 144, 158, 157, 130, 65, 3, 0.946671
139, 2, bw, attraction, a-b-da, 9, 3, 3, 24, 120, 195, 186, 114, 195, 120, 1, 2.65834
139, 2, bw, attraction, a-b-da, 9, 3, 3, 24, 120, 195, 186, 114, 195, 120, 2, 0.798143
139, 2, bw, filler, NA, 999, 999, 3, 25, 65, 60, 75, 117, 148, 121, 3, 1.31581
139, 2, bw, filler, NA, 999, 999, 3, 25, 65, 60, 75, 117, 148, 121, 1, 1.20597
139, 2, bw, filler, NA, 999, 999, 3, 26, 94, 160, 155, 83, 98, 179, 3, 1.70757
139, 2, bw, filler, NA, 999, 999, 3, 26, 94, 160, 155, 83, 98, 179, 2, 0.621667
139, 2, bw, attraction, a-b-da, 5, 3, 3, 27, 195, 120, 190, 117, 120, 195, 3, 2.02685
139, 2, bw, attraction, a-b-da, 5, 3, 3, 27, 195, 120, 190, 117, 120, 195, 2, 0.528108
139, 2, bw, attraction, a-b-db, 2, 2, 3, 28, 90, 165, 165, 90, 89, 163, 3, 2.57666
139, 2, bw, attraction, a-b-db, 2, 2, 3, 28, 90, 165, 165, 90, 89, 163, 2, 0.431791
139, 2, bw, filler, NA, 999, 999, 3, 29, 100, 107, 84, 172, 94, 76, 2, 2.0603
139, 2, bw, filler, NA, 999, 999, 3, 29, 100, 107, 84, 172, 94, 76, 3, 0.880233
139, 2, bw, attraction, a-b-da, 14, 3, 3, 30, 120, 195, 195, 120, 181, 111, 1, 2.21849
139, 2, bw, attraction, a-b-da, 14, 3, 3, 30, 120, 195, 195, 120, 181, 111, 3, 0.944446
139, 2, bw, attraction, a-b-db, 9, 3, 3, 31, 195, 120, 120, 195, 114, 186, 2, 1.76016
139, 2, bw, attraction, a-b-db, 9, 3, 3, 31, 195, 120, 120, 195, 114, 186, 3, 0.584286
139, 2, bw, filler, NA, 999, 999, 3, 32, 115, 80, 134, 113, 166, 87, 2, 1.4947
139, 2, bw, filler, NA, 999, 999, 3, 32, 115, 80, 134, 113, 166, 87, 1, 1.00151
139, 2, bw, catch, NA, 999, 999, 3, 33, 177, 138, 114, 141, 67, 128, 1, 1.2791
139, 2, bw, catch, NA, 999, 999, 3, 33, 177, 138, 114, 141, 67, 128, 3, 0.722818
139, 2, bw, attraction, a-b-db, 14, 2, 3, 34, 90, 165, 83, 153, 165, 90, 1, 3.48308
139, 2, bw, attraction, a-b-db, 14, 2, 3, 34, 90, 165, 83, 153, 165, 90, 2, 0.470012
139, 2, bw, filler, NA, 999, 999, 3, 35, 175, 82, 93, 126, 65, 119, 2, 3.36111
139, 2, bw, filler, NA, 999, 999, 3, 35, 175, 82, 93, 126, 65, 119, 3, 0.496639
139, 2, bw, attraction, a-b-db, 5, 3, 3, 36, 117, 190, 120, 195, 195, 120, 2, 4.49839
139, 2, bw, attraction, a-b-db, 5, 3, 3, 36, 117, 190, 120, 195, 195, 120, 1, 0.748483
139, 2, bw, filler, NA, 999, 999, 3, 37, 173, 185, 120, 124, 167, 73, 1, 1.26801
139, 2, bw, filler, NA, 999, 999, 3, 37, 173, 185, 120, 124, 167, 73, 2, 0.784332
139, 2, bw, attraction, a-b-da, 2, 1, 4, 1, 134, 59, 135, 60, 60, 135, 1, 16.0547
139, 2, bw, attraction, a-b-da, 2, 1, 4, 1, 134, 59, 135, 60, 60, 135, 3, 1.75892
139, 2, bw, attraction, a-b-db, 2, 1, 4, 2, 60, 135, 135, 60, 59, 134, 1, 5.54169
139, 2, bw, attraction, a-b-db, 2, 1, 4, 2, 60, 135, 135, 60, 59, 134, 2, 1.70924
139, 2, bw, attraction, a-b-da, 14, 2, 4, 3, 90, 165, 165, 90, 153, 83, 2, 1.39804
139, 2, bw, attraction, a-b-da, 14, 2, 4, 3, 90, 165, 165, 90, 153, 83, 3, 0.588952
139, 2, bw, filler, NA, 999, 999, 4, 4, 86, 69, 77, 180, 122, 101, 3, 1.19531
139, 2, bw, filler, NA, 999, 999, 4, 4, 86, 69, 77, 180, 122, 101, 1, 1.27437
139, 2, bw, catch, NA, 999, 999, 4, 5, 157, 98, 151, 164, 128, 67, 2, 1.28435
139, 2, bw, catch, NA, 999, 999, 4, 5, 157, 98, 151, 164, 128, 67, 3, 0.696021
139, 2, bw, attraction, a-b-da, 14, 1, 4, 6, 135, 60, 125, 56, 60, 135, 1, 5.9858
139, 2, bw, attraction, a-b-da, 14, 1, 4, 6, 135, 60, 125, 56, 60, 135, 2, 0.727818
139, 2, bw, attraction, a-b-da, 9, 3, 4, 7, 120, 195, 195, 120, 186, 114, 1, 5.46422
139, 2, bw, attraction, a-b-da, 9, 3, 4, 7, 120, 195, 195, 120, 186, 114, 3, 1.11524
139, 2, bw, attraction, a-b-da, 5, 1, 4, 8, 60, 135, 135, 60, 132, 58, 1, 1.52408
139, 2, bw, attraction, a-b-da, 5, 1, 4, 8, 60, 135, 135, 60, 132, 58, 3, 0.5896
139, 2, bw, attraction, a-b-da, 2, 3, 4, 9, 193, 119, 120, 195, 195, 120, 2, 1.58734
139, 2, bw, attraction, a-b-da, 2, 3, 4, 9, 193, 119, 120, 195, 195, 120, 3, 1.92216
139, 2, bw, attraction, a-b-db, 9, 3, 4, 10, 195, 120, 120, 195, 114, 186, 2, 1.79483
139, 2, bw, attraction, a-b-db, 9, 3, 4, 10, 195, 120, 120, 195, 114, 186, 1, 0.489547
139, 2, bw, attraction, a-b-db, 14, 2, 4, 11, 165, 90, 83, 153, 90, 165, 1, 2.89941
139, 2, bw, attraction, a-b-db, 14, 2, 4, 11, 165, 90, 83, 153, 90, 165, 2, 0.525718
139, 2, bw, filler, NA, 999, 999, 4, 12, 134, 109, 152, 191, 154, 184, 2, 2.04622
139, 2, bw, filler, NA, 999, 999, 4, 12, 134, 109, 152, 191, 154, 184, 1, 0.426786
139, 2, bw, filler, NA, 999, 999, 4, 13, 60, 180, 115, 123, 122, 159, 2, 2.08738
139, 2, bw, filler, NA, 999, 999, 4, 13, 60, 180, 115, 123, 122, 159, 1, 12.7141
139, 2, bw, filler, NA, 999, 999, 4, 14, 76, 183, 181, 112, 116, 178, 2, 6.53523
139, 2, bw, filler, NA, 999, 999, 4, 14, 76, 183, 181, 112, 116, 178, 1, 0.887205
139, 2, bw, attraction, a-b-da, 5, 2, 4, 15, 165, 90, 90, 165, 161, 88, 1, 3.08152
139, 2, bw, attraction, a-b-da, 5, 2, 4, 15, 165, 90, 90, 165, 161, 88, 3, 0.876534
139, 2, bw, attraction, a-b-db, 5, 1, 4, 16, 58, 132, 60, 135, 135, 60, 2, 5.82289
139, 2, bw, attraction, a-b-db, 5, 1, 4, 16, 58, 132, 60, 135, 135, 60, 3, 1.31499
139, 2, bw, attraction, a-b-da, 9, 1, 4, 17, 60, 135, 129, 57, 135, 60, 1, 2.83596
139, 2, bw, attraction, a-b-da, 9, 1, 4, 17, 60, 135, 129, 57, 135, 60, 2, 1.03297
139, 2, bw, filler, NA, 999, 999, 4, 18, 135, 93, 90, 103, 94, 180, 3, 1.66128
139, 2, bw, filler, NA, 999, 999, 4, 18, 135, 93, 90, 103, 94, 180, 2, 0.62534
139, 2, bw, filler, NA, 999, 999, 4, 19, 160, 124, 57, 75, 160, 181, 3, 1.30984
139, 2, bw, filler, NA, 999, 999, 4, 19, 160, 124, 57, 75, 160, 181, 2, 0.656158
139, 2, bw, attraction, a-b-db, 2, 3, 4, 20, 120, 195, 119, 193, 195, 120, 1, 2.8911
139, 2, bw, attraction, a-b-db, 2, 3, 4, 20, 120, 195, 119, 193, 195, 120, 2, 1.06154
139, 2, bw, catch, NA, 999, 999, 4, 21, 142, 113, 80, 115, 188, 127, 3, 0.936455
139, 2, bw, catch, NA, 999, 999, 4, 21, 142, 113, 80, 115, 188, 127, 2, 0.801454
139, 2, bw, attraction, a-b-da, 9, 2, 4, 22, 165, 90, 157, 86, 90, 165, 3, 4.21518
139, 2, bw, attraction, a-b-da, 9, 2, 4, 22, 165, 90, 157, 86, 90, 165, 2, 0.676451
139, 2, bw, catch, NA, 999, 999, 4, 23, 158, 97, 134, 181, 130, 65, 2, 8.84687
139, 2, bw, catch, NA, 999, 999, 4, 23, 158, 97, 134, 181, 130, 65, 3, 0.561438
139, 2, bw, attraction, a-b-db, 5, 3, 4, 24, 195, 120, 117, 190, 120, 195, 1, 2.65648
139, 2, bw, attraction, a-b-db, 5, 3, 4, 24, 195, 120, 117, 190, 120, 195, 3, 0.844344
139, 2, bw, attraction, a-b-da, 14, 3, 4, 25, 195, 120, 181, 111, 120, 195, 1, 3.07207
139, 2, bw, attraction, a-b-da, 14, 3, 4, 25, 195, 120, 181, 111, 120, 195, 2, 0.539065
139, 2, bw, filler, NA, 999, 999, 4, 26, 182, 114, 148, 75, 117, 91, 1, 1.12343
139, 2, bw, filler, NA, 999, 999, 4, 26, 182, 114, 148, 75, 117, 91, 2, 0.477106
139, 2, bw, filler, NA, 999, 999, 4, 27, 171, 177, 106, 155, 62, 190, 1, 1.13553
139, 2, bw, filler, NA, 999, 999, 4, 27, 171, 177, 106, 155, 62, 190, 3, 0.673123
139, 2, bw, attraction, a-b-db, 9, 2, 4, 28, 86, 157, 90, 165, 165, 90, 2, 3.00357
139, 2, bw, attraction, a-b-db, 9, 2, 4, 28, 86, 157, 90, 165, 165, 90, 1, 0.513887
139, 2, bw, attraction, a-b-db, 5, 2, 4, 29, 88, 161, 90, 165, 165, 90, 2, 3.66722
139, 2, bw, attraction, a-b-db, 5, 2, 4, 29, 88, 161, 90, 165, 165, 90, 3, 0.446592
139, 2, bw, attraction, a-b-da, 2, 2, 4, 30, 165, 90, 163, 89, 90, 165, 3, 2.95433
139, 2, bw, attraction, a-b-da, 2, 2, 4, 30, 165, 90, 163, 89, 90, 165, 2, 0.674712
139, 2, bw, attraction, a-b-db, 14, 3, 4, 31, 195, 120, 111, 181, 120, 195, 1, 3.77304
139, 2, bw, attraction, a-b-db, 14, 3, 4, 31, 195, 120, 111, 181, 120, 195, 3, 2.79602
139, 2, bw, attraction, a-b-db, 9, 1, 4, 32, 135, 60, 60, 135, 57, 129, 2, 2.87296
139, 2, bw, attraction, a-b-db, 9, 1, 4, 32, 135, 60, 60, 135, 57, 129, 3, 0.763979
139, 2, bw, attraction, a-b-db, 14, 1, 4, 33, 60, 135, 56, 125, 135, 60, 1, 1.86701
139, 2, bw, attraction, a-b-db, 14, 1, 4, 33, 60, 135, 56, 125, 135, 60, 2, 0.751097
139, 2, bw, filler, NA, 999, 999, 4, 34, 68, 158, 143, 63, 74, 123, 1, 6.26287
139, 2, bw, filler, NA, 999, 999, 4, 34, 68, 158, 143, 63, 74, 123, 2, 0.617514
139, 2, bw, attraction, a-b-db, 2, 2, 4, 35, 165, 90, 89, 163, 90, 165, 2, 2.64668
139, 2, bw, attraction, a-b-db, 2, 2, 4, 35, 165, 90, 89, 163, 90, 165, 1, 0.587098
139, 2, bw, attraction, a-b-da, 5, 3, 4, 36, 120, 195, 195, 120, 190, 117, 1, 1.91362
139, 2, bw, attraction, a-b-da, 5, 3, 4, 36, 120, 195, 195, 120, 190, 117, 3, 0.971543
139, 2, bw, filler, NA, 999, 999, 4, 37, 61, 90, 111, 66, 65, 182, 3, 1.01058
139, 2, bw, filler, NA, 999, 999, 4, 37, 61, 90, 111, 66, 65, 182, 1, 0.520814
139, 2, bw, attraction, a-b-da, 2, 3, 5, 1, 120, 195, 195, 120, 193, 119, 1, 62.4801
139, 2, bw, attraction, a-b-da, 2, 3, 5, 1, 120, 195, 195, 120, 193, 119, 2, 1.32114
139, 2, bw, attraction, a-b-db, 2, 2, 5, 2, 165, 90, 90, 165, 89, 163, 2, 3.26593
139, 2, bw, attraction, a-b-db, 2, 2, 5, 2, 165, 90, 90, 165, 89, 163, 1, 1.29356
139, 2, bw, attraction, a-b-da, 9, 2, 5, 3, 90, 165, 165, 90, 157, 86, 1, 1.28707
139, 2, bw, attraction, a-b-da, 9, 2, 5, 3, 90, 165, 165, 90, 157, 86, 3, 0.570649
139, 2, bw, filler, NA, 999, 999, 5, 4, 158, 168, 114, 126, 184, 174, 3, 1.16181
139, 2, bw, filler, NA, 999, 999, 5, 4, 158, 168, 114, 126, 184, 174, 2, 0.441989
139, 2, bw, filler, NA, 999, 999, 5, 5, 194, 102, 139, 143, 104, 157, 2, 3.15782
139, 2, bw, filler, NA, 999, 999, 5, 5, 194, 102, 139, 143, 104, 157, 3, 0.637477
139, 2, bw, attraction, a-b-db, 2, 3, 5, 6, 195, 120, 119, 193, 120, 195, 3, 1.45791
139, 2, bw, attraction, a-b-db, 2, 3, 5, 6, 195, 120, 119, 193, 120, 195, 2, 0.630157
139, 2, bw, catch, NA, 999, 999, 5, 7, 162, 153, 112, 143, 70, 125, 1, 0.890469
139, 2, bw, catch, NA, 999, 999, 5, 7, 162, 153, 112, 143, 70, 125, 3, 0.405518
139, 2, bw, attraction, a-b-da, 9, 1, 5, 8, 129, 57, 135, 60, 60, 135, 3, 1.44334
139, 2, bw, attraction, a-b-da, 9, 1, 5, 8, 129, 57, 135, 60, 60, 135, 2, 1.29622
139, 2, bw, attraction, a-b-da, 5, 3, 5, 9, 195, 120, 120, 195, 190, 117, 2, 1.59372
139, 2, bw, attraction, a-b-da, 5, 3, 5, 9, 195, 120, 120, 195, 190, 117, 3, 0.480563
139, 2, bw, attraction, a-b-db, 9, 3, 5, 10, 195, 120, 120, 195, 114, 186, 2, 1.75493
139, 2, bw, attraction, a-b-db, 9, 3, 5, 10, 195, 120, 120, 195, 114, 186, 3, 0.450989
139, 2, bw, attraction, a-b-da, 2, 1, 5, 11, 60, 135, 135, 60, 134, 59, 1, 1.37483
139, 2, bw, attraction, a-b-da, 2, 1, 5, 11, 60, 135, 135, 60, 134, 59, 3, 0.598342
139, 2, bw, attraction, a-b-da, 14, 2, 5, 12, 165, 90, 90, 165, 153, 83, 2, 2.06814
139, 2, bw, attraction, a-b-da, 14, 2, 5, 12, 165, 90, 90, 165, 153, 83, 3, 0.592285
139, 2, bw, attraction, a-b-db, 5, 1, 5, 13, 58, 132, 60, 135, 135, 60, 2, 3.22202
139, 2, bw, attraction, a-b-db, 5, 1, 5, 13, 58, 132, 60, 135, 135, 60, 1, 0.722862
139, 2, bw, attraction, a-b-db, 5, 2, 5, 14, 88, 161, 90, 165, 165, 90, 2, 3.90724
139, 2, bw, attraction, a-b-db, 5, 2, 5, 14, 88, 161, 90, 165, 165, 90, 3, 0.46067
139, 2, bw, attraction, a-b-db, 5, 3, 5, 15, 117, 190, 195, 120, 120, 195, 2, 3.49588
139, 2, bw, attraction, a-b-db, 5, 3, 5, 15, 117, 190, 195, 120, 120, 195, 3, 0.618035
139, 2, bw, catch, NA, 999, 999, 5, 16, 160, 95, 122, 193, 128, 67, 2, 0.855099
139, 2, bw, catch, NA, 999, 999, 5, 16, 160, 95, 122, 193, 128, 67, 3, 1.19084
139, 2, bw, attraction, a-b-db, 2, 1, 5, 17, 60, 135, 59, 134, 135, 60, 1, 2.72106
139, 2, bw, attraction, a-b-db, 2, 1, 5, 17, 60, 135, 59, 134, 135, 60, 2, 1.49015
139, 2, bw, attraction, a-b-db, 14, 1, 5, 18, 135, 60, 56, 125, 60, 135, 1, 1.93161
139, 2, bw, attraction, a-b-db, 14, 1, 5, 18, 135, 60, 56, 125, 60, 135, 2, 0.541098
139, 2, bw, attraction, a-b-da, 2, 2, 5, 19, 90, 165, 163, 89, 165, 90, 1, 11.3008
139, 2, bw, attraction, a-b-da, 2, 2, 5, 19, 90, 165, 163, 89, 165, 90, 2, 0.732548
139, 2, bw, attraction, a-b-db, 9, 1, 5, 20, 135, 60, 57, 129, 60, 135, 1, 2.18901
139, 2, bw, attraction, a-b-db, 9, 1, 5, 20, 135, 60, 57, 129, 60, 135, 2, 0.643555
139, 2, bw, catch, NA, 999, 999, 5, 21, 137, 118, 64, 131, 144, 171, 3, 1.82327
139, 2, bw, catch, NA, 999, 999, 5, 21, 137, 118, 64, 131, 144, 171, 2, 0.740682
139, 2, bw, filler, NA, 999, 999, 5, 22, 69, 164, 159, 177, 128, 100, 2, 1.23659
139, 2, bw, filler, NA, 999, 999, 5, 22, 69, 164, 159, 177, 128, 100, 3, 0.9461
139, 2, bw, attraction, a-b-da, 14, 3, 5, 23, 120, 195, 181, 111, 195, 120, 1, 1.57767
139, 2, bw, attraction, a-b-da, 14, 3, 5, 23, 120, 195, 181, 111, 195, 120, 2, 0.4251
139, 2, bw, filler, NA, 999, 999, 5, 24, 150, 172, 144, 58, 99, 88, 1, 0.79755
139, 2, bw, filler, NA, 999, 999, 5, 24, 150, 172, 144, 58, 99, 88, 2, 7.14081
139, 2, bw, filler, NA, 999, 999, 5, 25, 85, 174, 130, 134, 188, 151, 3, 1.70701
139, 2, bw, filler, NA, 999, 999, 5, 25, 85, 174, 130, 134, 188, 151, 2, 0.573139
139, 2, bw, filler, NA, 999, 999, 5, 26, 181, 184, 84, 133, 79, 185, 1, 1.27554
139, 2, bw, filler, NA, 999, 999, 5, 26, 181, 184, 84, 133, 79, 185, 2, 0.887099
139, 2, bw, filler, NA, 999, 999, 5, 27, 157, 155, 66, 67, 78, 86, 1, 1.72937
139, 2, bw, filler, NA, 999, 999, 5, 27, 157, 155, 66, 67, 78, 86, 2, 0.810857
139, 2, bw, attraction, a-b-db, 9, 2, 5, 28, 90, 165, 86, 157, 165, 90, 1, 3.05595
139, 2, bw, attraction, a-b-db, 9, 2, 5, 28, 90, 165, 86, 157, 165, 90, 2, 0.915611
139, 2, bw, attraction, a-b-db, 14, 3, 5, 29, 120, 195, 111, 181, 195, 120, 1, 6.23655
139, 2, bw, attraction, a-b-db, 14, 3, 5, 29, 120, 195, 111, 181, 195, 120, 2, 0.568547
139, 2, bw, attraction, a-b-db, 14, 2, 5, 30, 165, 90, 90, 165, 83, 153, 1, 4.51963
139, 2, bw, attraction, a-b-db, 14, 2, 5, 30, 165, 90, 90, 165, 83, 153, 3, 0.976888
139, 2, bw, attraction, a-b-da, 9, 3, 5, 31, 195, 120, 120, 195, 186, 114, 1, 1.75931
139, 2, bw, attraction, a-b-da, 9, 3, 5, 31, 195, 120, 120, 195, 186, 114, 3, 0.727357
139, 2, bw, attraction, a-b-da, 14, 1, 5, 32, 125, 56, 60, 135, 135, 60, 2, 3.07167
139, 2, bw, attraction, a-b-da, 14, 1, 5, 32, 125, 56, 60, 135, 135, 60, 1, 0.87474
139, 2, bw, filler, NA, 999, 999, 5, 33, 71, 145, 131, 94, 99, 137, 3, 2.81317
139, 2, bw, filler, NA, 999, 999, 5, 33, 71, 145, 131, 94, 99, 137, 1, 0.706818
139, 2, bw, attraction, a-b-da, 5, 2, 5, 34, 165, 90, 90, 165, 161, 88, 2, 1.5318
139, 2, bw, attraction, a-b-da, 5, 2, 5, 34, 165, 90, 90, 165, 161, 88, 3, 0.453362
139, 2, bw, filler, NA, 999, 999, 5, 35, 127, 68, 166, 175, 108, 94, 2, 0.633215
139, 2, bw, filler, NA, 999, 999, 5, 35, 127, 68, 166, 175, 108, 94, 1, 1.92691
139, 2, bw, attraction, a-b-da, 5, 1, 5, 36, 135, 60, 60, 135, 132, 58, 2, 1.41509
139, 2, bw, attraction, a-b-da, 5, 1, 5, 36, 135, 60, 60, 135, 132, 58, 3, 1.90122
139, 2, bw, filler, NA, 999, 999, 5, 37, 189, 103, 112, 97, 108, 77, 1, 3.04648
139, 2, bw, filler, NA, 999, 999, 5, 37, 189, 103, 112, 97, 108, 77, 3, 0.458816
139, 2, bw, attraction, a-b-da, 9, 3, 6, 1, 195, 120, 186, 114, 120, 195, 3, 3.35008
139, 2, bw, attraction, a-b-da, 9, 3, 6, 1, 195, 120, 186, 114, 120, 195, 2, 0.622252
139, 2, bw, filler, NA, 999, 999, 6, 2, 131, 191, 102, 161, 107, 59, 1, 1.4514
139, 2, bw, filler, NA, 999, 999, 6, 2, 131, 191, 102, 161, 107, 59, 3, 0.896216
139, 2, bw, attraction, a-b-db, 5, 3, 6, 3, 117, 190, 195, 120, 120, 195, 3, 1.39388
139, 2, bw, attraction, a-b-db, 5, 3, 6, 3, 117, 190, 195, 120, 120, 195, 2, 1.0728
139, 2, bw, catch, NA, 999, 999, 6, 4, 112, 83, 146, 169, 93, 162, 2, 1.25091
139, 2, bw, catch, NA, 999, 999, 6, 4, 112, 83, 146, 169, 93, 162, 1, 0.423895
139, 2, bw, filler, NA, 999, 999, 6, 5, 80, 121, 114, 163, 141, 114, 2, 1.82034
139, 2, bw, filler, NA, 999, 999, 6, 5, 80, 121, 114, 163, 141, 114, 1, 0.4257
139, 2, bw, attraction, a-b-db, 9, 1, 6, 6, 60, 135, 135, 60, 57, 129, 1, 1.31018
139, 2, bw, attraction, a-b-db, 9, 1, 6, 6, 60, 135, 135, 60, 57, 129, 2, 0.592556
139, 2, bw, attraction, a-b-da, 14, 2, 6, 7, 90, 165, 153, 83, 165, 90, 1, 1.19821
139, 2, bw, attraction, a-b-da, 14, 2, 6, 7, 90, 165, 153, 83, 165, 90, 2, 0.637158
139, 2, bw, attraction, a-b-da, 2, 1, 6, 8, 134, 59, 135, 60, 60, 135, 3, 2.64957
139, 2, bw, attraction, a-b-da, 2, 1, 6, 8, 134, 59, 135, 60, 60, 135, 2, 0.486041
139, 2, bw, filler, NA, 999, 999, 6, 9, 111, 67, 56, 85, 158, 135, 3, 0.99247
139, 2, bw, filler, NA, 999, 999, 6, 9, 111, 67, 56, 85, 158, 135, 2, 0.487508
139, 2, bw, attraction, a-b-db, 5, 1, 6, 10, 135, 60, 60, 135, 58, 132, 2, 4.17803
139, 2, bw, attraction, a-b-db, 5, 1, 6, 10, 135, 60, 60, 135, 58, 132, 1, 0.400609
139, 2, bw, attraction, a-b-db, 9, 3, 6, 11, 114, 186, 195, 120, 120, 195, 3, 2.66241
139, 2, bw, attraction, a-b-db, 9, 3, 6, 11, 114, 186, 195, 120, 120, 195, 1, 1.12222
139, 2, bw, attraction, a-b-da, 2, 2, 6, 12, 165, 90, 163, 89, 90, 165, 3, 2.85125
139, 2, bw, attraction, a-b-da, 2, 2, 6, 12, 165, 90, 163, 89, 90, 165, 2, 0.927701
139, 2, bw, filler, NA, 999, 999, 6, 13, 187, 186, 131, 170, 188, 120, 1, 1.18382
139, 2, bw, filler, NA, 999, 999, 6, 13, 187, 186, 131, 170, 188, 120, 2, 0.519469
139, 2, bw, attraction, a-b-da, 5, 1, 6, 14, 135, 60, 60, 135, 132, 58, 1, 1.71254
139, 2, bw, attraction, a-b-da, 5, 1, 6, 14, 135, 60, 60, 135, 132, 58, 3, 0.874693
139, 2, bw, catch, NA, 999, 999, 6, 15, 127, 68, 128, 127, 133, 182, 3, 1.14909
139, 2, bw, catch, NA, 999, 999, 6, 15, 127, 68, 128, 127, 133, 182, 1, 0.614033
139, 2, bw, filler, NA, 999, 999, 6, 16, 127, 68, 174, 179, 173, 155, 2, 1.04315
139, 2, bw, filler, NA, 999, 999, 6, 16, 127, 68, 174, 179, 173, 155, 1, 0.640028
139, 2, bw, attraction, a-b-db, 14, 3, 6, 17, 195, 120, 111, 181, 120, 195, 1, 1.25985
139, 2, bw, attraction, a-b-db, 14, 3, 6, 17, 195, 120, 111, 181, 120, 195, 2, 0.432033
139, 2, bw, attraction, a-b-db, 2, 2, 6, 18, 90, 165, 165, 90, 89, 163, 3, 1.68448
139, 2, bw, attraction, a-b-db, 2, 2, 6, 18, 90, 165, 165, 90, 89, 163, 2, 1.06393
139, 2, bw, catch, NA, 999, 999, 6, 19, 97, 158, 139, 176, 133, 62, 2, 1.01903
139, 2, bw, catch, NA, 999, 999, 6, 19, 97, 158, 139, 176, 133, 62, 3, 0.985257
139, 2, bw, filler, NA, 999, 999, 6, 20, 178, 91, 159, 167, 115, 186, 2, 2.23954
139, 2, bw, filler, NA, 999, 999, 6, 20, 178, 91, 159, 167, 115, 186, 1, 0.516352
139, 2, bw, attraction, a-b-db, 14, 1, 6, 21, 135, 60, 60, 135, 56, 125, 2, 2.14127
139, 2, bw, attraction, a-b-db, 14, 1, 6, 21, 135, 60, 60, 135, 56, 125, 3, 0.63797
139, 2, bw, filler, NA, 999, 999, 6, 22, 86, 76, 151, 150, 194, 97, 2, 0.994317
139, 2, bw, filler, NA, 999, 999, 6, 22, 86, 76, 151, 150, 194, 97, 1, 0.409276
139, 2, bw, attraction, a-b-da, 9, 2, 6, 23, 90, 165, 157, 86, 165, 90, 1, 10.5824
139, 2, bw, attraction, a-b-da, 9, 2, 6, 23, 90, 165, 157, 86, 165, 90, 2, 0.587097
139, 2, bw, attraction, a-b-db, 14, 2, 6, 24, 165, 90, 83, 153, 90, 165, 1, 2.23359
139, 2, bw, attraction, a-b-db, 14, 2, 6, 24, 165, 90, 83, 153, 90, 165, 2, 0.574851
139, 2, bw, attraction, a-b-db, 2, 1, 6, 25, 135, 60, 60, 135, 59, 134, 3, 1.84519
139, 2, bw, attraction, a-b-db, 2, 1, 6, 25, 135, 60, 60, 135, 59, 134, 2, 1.05796
139, 2, bw, attraction, a-b-da, 14, 3, 6, 26, 195, 120, 120, 195, 181, 111, 1, 3.42094
139, 2, bw, attraction, a-b-da, 14, 3, 6, 26, 195, 120, 120, 195, 181, 111, 3, 0.466546
139, 2, bw, filler, NA, 999, 999, 6, 27, 98, 130, 67, 58, 113, 141, 3, 1.0297
139, 2, bw, filler, NA, 999, 999, 6, 27, 98, 130, 67, 58, 113, 141, 2, 0.3873
139, 2, bw, filler, NA, 999, 999, 6, 28, 73, 133, 143, 77, 130, 170, 3, 0.793841
139, 2, bw, filler, NA, 999, 999, 6, 28, 73, 133, 143, 77, 130, 170, 1, 1.05697
139, 2, bw, filler, NA, 999, 999, 6, 29, 193, 141, 166, 104, 186, 58, 1, 0.763715
139, 2, bw, filler, NA, 999, 999, 6, 29, 193, 141, 166, 104, 186, 58, 3, 0.876184
139, 2, bw, attraction, a-b-db, 5, 2, 6, 30, 90, 165, 165, 90, 88, 161, 1, 3.23852
139, 2, bw, attraction, a-b-db, 5, 2, 6, 30, 90, 165, 165, 90, 88, 161, 2, 0.386833
139, 2, bw, attraction, a-b-da, 5, 2, 6, 31, 165, 90, 161, 88, 90, 165, 3, 2.5133
139, 2, bw, attraction, a-b-da, 5, 2, 6, 31, 165, 90, 161, 88, 90, 165, 2, 0.531135
139, 2, bw, attraction, a-b-da, 5, 3, 6, 32, 195, 120, 190, 117, 120, 195, 3, 2.33959
139, 2, bw, attraction, a-b-da, 5, 3, 6, 32, 195, 120, 190, 117, 120, 195, 2, 0.516167
139, 2, bw, attraction, a-b-da, 14, 1, 6, 33, 125, 56, 135, 60, 60, 135, 2, 2.7653
139, 2, bw, attraction, a-b-da, 14, 1, 6, 33, 125, 56, 135, 60, 60, 135, 1, 0.485059
139, 2, bw, attraction, a-b-db, 2, 3, 6, 34, 195, 120, 120, 195, 119, 193, 2, 5.87946
139, 2, bw, attraction, a-b-db, 2, 3, 6, 34, 195, 120, 120, 195, 119, 193, 1, 0.489614
139, 2, bw, attraction, a-b-da, 9, 1, 6, 35, 135, 60, 60, 135, 129, 57, 2, 1.91538
139, 2, bw, attraction, a-b-da, 9, 1, 6, 35, 135, 60, 60, 135, 129, 57, 3, 0.669535
139, 2, bw, attraction, a-b-da, 2, 3, 6, 36, 195, 120, 193, 119, 120, 195, 2, 3.36847
139, 2, bw, attraction, a-b-da, 2, 3, 6, 36, 195, 120, 193, 119, 120, 195, 3, 0.536171
139, 2, bw, attraction, a-b-db, 9, 2, 6, 37, 90, 165, 165, 90, 86, 157, 1, 1.58457
139, 2, bw, attraction, a-b-db, 9, 2, 6, 37, 90, 165, 165, 90, 86, 157, 2, 0.496055
139, 2, bw, attraction, a-b-da, 5, 3, 7, 1, 120, 195, 195, 120, 190, 117, 1, 1.69784
139, 2, bw, attraction, a-b-da, 5, 3, 7, 1, 120, 195, 195, 120, 190, 117, 3, 0.524738
139, 2, bw, filler, NA, 999, 999, 7, 2, 75, 139, 120, 189, 119, 122, 2, 0.949047
139, 2, bw, filler, NA, 999, 999, 7, 2, 75, 139, 120, 189, 119, 122, 1, 0.430021
139, 2, bw, filler, NA, 999, 999, 7, 3, 172, 146, 148, 178, 144, 68, 2, 2.0265
139, 2, bw, filler, NA, 999, 999, 7, 3, 172, 146, 148, 178, 144, 68, 3, 0.455912
139, 2, bw, attraction, a-b-db, 5, 3, 7, 4, 195, 120, 117, 190, 120, 195, 1, 2.29103
139, 2, bw, attraction, a-b-db, 5, 3, 7, 4, 195, 120, 117, 190, 120, 195, 2, 0.53361
139, 2, bw, attraction, a-b-da, 2, 3, 7, 5, 193, 119, 195, 120, 120, 195, 3, 2.79003
139, 2, bw, attraction, a-b-da, 2, 3, 7, 5, 193, 119, 195, 120, 120, 195, 2, 0.524446
139, 2, bw, attraction, a-b-da, 2, 2, 7, 6, 163, 89, 165, 90, 90, 165, 3, 1.25285
139, 2, bw, attraction, a-b-da, 2, 2, 7, 6, 163, 89, 165, 90, 90, 165, 2, 1.23383
139, 2, bw, filler, NA, 999, 999, 7, 7, 190, 192, 127, 160, 126, 172, 1, 1.41401
139, 2, bw, filler, NA, 999, 999, 7, 7, 190, 192, 127, 160, 126, 172, 2, 0.556221
139, 2, bw, attraction, a-b-da, 9, 2, 7, 8, 157, 86, 90, 165, 165, 90, 3, 1.30731
139, 2, bw, attraction, a-b-da, 9, 2, 7, 8, 157, 86, 90, 165, 165, 90, 1, 1.03756
139, 2, bw, attraction, a-b-da, 2, 1, 7, 9, 134, 59, 135, 60, 60, 135, 3, 1.05786
139, 2, bw, attraction, a-b-da, 2, 1, 7, 9, 134, 59, 135, 60, 60, 135, 2, 2.03817
139, 2, bw, attraction, a-b-db, 9, 2, 7, 10, 86, 157, 165, 90, 90, 165, 3, 4.71427
139, 2, bw, attraction, a-b-db, 9, 2, 7, 10, 86, 157, 165, 90, 90, 165, 2, 0.523327
139, 2, bw, catch, NA, 999, 999, 7, 11, 98, 157, 141, 174, 108, 87, 2, 2.37174
139, 2, bw, catch, NA, 999, 999, 7, 11, 98, 157, 141, 174, 108, 87, 3, 0.578954
139, 2, bw, filler, NA, 999, 999, 7, 12, 81, 116, 162, 140, 126, 93, 2, 0.665356
139, 2, bw, filler, NA, 999, 999, 7, 12, 81, 116, 162, 140, 126, 93, 1, 0.621916
139, 2, bw, filler, NA, 999, 999, 7, 13, 150, 163, 75, 88, 169, 105, 1, 1.05094
139, 2, bw, filler, NA, 999, 999, 7, 13, 150, 163, 75, 88, 169, 105, 2, 0.647903
139, 2, bw, filler, NA, 999, 999, 7, 14, 86, 118, 156, 98, 160, 97, 2, 3.75559
139, 2, bw, filler, NA, 999, 999, 7, 14, 86, 118, 156, 98, 160, 97, 1, 0.579074
139, 2, bw, filler, NA, 999, 999, 7, 15, 142, 89, 75, 71, 123, 177, 3, 0.921508
139, 2, bw, filler, NA, 999, 999, 7, 15, 142, 89, 75, 71, 123, 177, 2, 0.499186
139, 2, bw, attraction, a-b-db, 14, 2, 7, 16, 90, 165, 165, 90, 83, 153, 1, 1.34101
139, 2, bw, attraction, a-b-db, 14, 2, 7, 16, 90, 165, 165, 90, 83, 153, 3, 0.973863
139, 2, bw, filler, NA, 999, 999, 7, 17, 141, 148, 125, 67, 142, 78, 1, 1.16412
139, 2, bw, filler, NA, 999, 999, 7, 17, 141, 148, 125, 67, 142, 78, 2, 0.532503
139, 2, bw, attraction, a-b-da, 5, 2, 7, 18, 90, 165, 161, 88, 165, 90, 1, 2.90088
139, 2, bw, attraction, a-b-da, 5, 2, 7, 18, 90, 165, 161, 88, 165, 90, 2, 0.615301
139, 2, bw, attraction, a-b-db, 9, 3, 7, 19, 120, 195, 114, 186, 195, 120, 1, 3.98846
139, 2, bw, attraction, a-b-db, 9, 3, 7, 19, 120, 195, 114, 186, 195, 120, 2, 0.530392
139, 2, bw, attraction, a-b-db, 5, 1, 7, 20, 135, 60, 58, 132, 60, 135, 3, 2.1069
139, 2, bw, attraction, a-b-db, 5, 1, 7, 20, 135, 60, 58, 132, 60, 135, 1, 0.492798
139, 2, bw, filler, NA, 999, 999, 7, 21, 66, 89, 107, 95, 90, 76, 2, 1.13471
139, 2, bw, filler, NA, 999, 999, 7, 21, 66, 89, 107, 95, 90, 76, 1, 1.63233
139, 2, bw, attraction, a-b-da, 5, 1, 7, 22, 60, 135, 132, 58, 135, 60, 1, 3.05238
139, 2, bw, attraction, a-b-da, 5, 1, 7, 22, 60, 135, 132, 58, 135, 60, 2, 0.408708
139, 2, bw, attraction, a-b-db, 9, 1, 7, 23, 57, 129, 135, 60, 60, 135, 1, 2.10989
139, 2, bw, attraction, a-b-db, 9, 1, 7, 23, 57, 129, 135, 60, 60, 135, 3, 1.98384
139, 2, bw, attraction, a-b-db, 14, 1, 7, 24, 60, 135, 56, 125, 135, 60, 1, 2.95775
139, 2, bw, attraction, a-b-db, 14, 1, 7, 24, 60, 135, 56, 125, 135, 60, 2, 0.445536
139, 2, bw, attraction, a-b-db, 2, 1, 7, 25, 59, 134, 60, 135, 135, 60, 2, 2.60931
139, 2, bw, attraction, a-b-db, 2, 1, 7, 25, 59, 134, 60, 135, 135, 60, 3, 0.511349
139, 2, bw, attraction, a-b-da, 9, 3, 7, 26, 120, 195, 186, 114, 195, 120, 1, 1.35228
139, 2, bw, attraction, a-b-da, 9, 3, 7, 26, 120, 195, 186, 114, 195, 120, 2, 0.601113
139, 2, bw, attraction, a-b-db, 5, 2, 7, 27, 90, 165, 88, 161, 165, 90, 1, 2.67895
139, 2, bw, attraction, a-b-db, 5, 2, 7, 27, 90, 165, 88, 161, 165, 90, 2, 1.12204
139, 2, bw, attraction, a-b-da, 14, 3, 7, 28, 120, 195, 195, 120, 181, 111, 1, 1.49102
139, 2, bw, attraction, a-b-da, 14, 3, 7, 28, 120, 195, 195, 120, 181, 111, 3, 0.533858
139, 2, bw, catch, NA, 999, 999, 7, 29, 144, 111, 134, 181, 62, 133, 2, 0.662318
139, 2, bw, catch, NA, 999, 999, 7, 29, 144, 111, 134, 181, 62, 133, 3, 0.426806
139, 2, bw, catch, NA, 999, 999, 7, 30, 135, 120, 122, 73, 175, 140, 3, 0.871152
139, 2, bw, catch, NA, 999, 999, 7, 30, 135, 120, 122, 73, 175, 140, 2, 0.338885
139, 2, bw, attraction, a-b-da, 9, 1, 7, 31, 60, 135, 135, 60, 129, 57, 2, 1.05937
139, 2, bw, attraction, a-b-da, 9, 1, 7, 31, 60, 135, 135, 60, 129, 57, 3, 0.399714
139, 2, bw, attraction, a-b-db, 14, 3, 7, 32, 111, 181, 195, 120, 120, 195, 3, 1.20551
139, 2, bw, attraction, a-b-db, 14, 3, 7, 32, 111, 181, 195, 120, 120, 195, 1, 0.723771
139, 2, bw, filler, NA, 999, 999, 7, 33, 88, 127, 137, 133, 111, 89, 2, 1.02815
139, 2, bw, filler, NA, 999, 999, 7, 33, 88, 127, 137, 133, 111, 89, 3, 0.361871
139, 2, bw, attraction, a-b-db, 2, 3, 7, 34, 120, 195, 119, 193, 195, 120, 3, 1.62502
139, 2, bw, attraction, a-b-db, 2, 3, 7, 34, 120, 195, 119, 193, 195, 120, 1, 2.63045
139, 2, bw, attraction, a-b-db, 2, 2, 7, 35, 165, 90, 89, 163, 90, 165, 3, 1.9382
139, 2, bw, attraction, a-b-db, 2, 2, 7, 35, 165, 90, 89, 163, 90, 165, 1, 0.562906
139, 2, bw, attraction, a-b-da, 14, 2, 7, 36, 153, 83, 90, 165, 165, 90, 2, 4.74614
139, 2, bw, attraction, a-b-da, 14, 2, 7, 36, 153, 83, 90, 165, 165, 90, 1, 0.385846
139, 2, bw, attraction, a-b-da, 14, 1, 7, 37, 60, 135, 135, 60, 125, 56, 1, 3.88032
139, 2, bw, attraction, a-b-da, 14, 1, 7, 37, 60, 135, 135, 60, 125, 56, 3, 0.827116
139, 2, bw, attraction, a-b-da, 9, 1, 8, 1, 129, 57, 135, 60, 60, 135, 3, 1.87942
139, 2, bw, attraction, a-b-da, 9, 1, 8, 1, 129, 57, 135, 60, 60, 135, 1, 0.834773
139, 2, bw, filler, NA, 999, 999, 8, 2, 173, 138, 105, 119, 56, 67, 1, 1.87911
139, 2, bw, filler, NA, 999, 999, 8, 2, 173, 138, 105, 119, 56, 67, 3, 0.642634
139, 2, bw, attraction, a-b-db, 14, 3, 8, 3, 111, 181, 120, 195, 195, 120, 2, 1.36628
139, 2, bw, attraction, a-b-db, 14, 3, 8, 3, 111, 181, 120, 195, 195, 120, 1, 1.70251
139, 2, bw, filler, NA, 999, 999, 8, 4, 195, 133, 153, 115, 190, 133, 1, 3.66407
139, 2, bw, filler, NA, 999, 999, 8, 4, 195, 133, 153, 115, 190, 133, 2, 0.499496
139, 2, bw, attraction, a-b-da, 2, 2, 8, 5, 165, 90, 163, 89, 90, 165, 2, 8.58922
139, 2, bw, attraction, a-b-da, 2, 2, 8, 5, 165, 90, 163, 89, 90, 165, 1, 1.41048
139, 2, bw, filler, NA, 999, 999, 8, 6, 166, 144, 131, 122, 164, 69, 1, 0.799344
139, 2, bw, filler, NA, 999, 999, 8, 6, 166, 144, 131, 122, 164, 69, 2, 0.534376
139, 2, bw, attraction, a-b-db, 5, 3, 8, 7, 117, 190, 120, 195, 195, 120, 2, 5.41481
139, 2, bw, attraction, a-b-db, 5, 3, 8, 7, 117, 190, 120, 195, 195, 120, 3, 1.1478
139, 2, bw, attraction, a-b-da, 5, 1, 8, 8, 132, 58, 135, 60, 60, 135, 3, 7.93942
139, 2, bw, attraction, a-b-da, 5, 1, 8, 8, 132, 58, 135, 60, 60, 135, 1, 0.571011
139, 2, bw, attraction, a-b-da, 9, 3, 8, 9, 195, 120, 120, 195, 186, 114, 1, 2.02595
139, 2, bw, attraction, a-b-da, 9, 3, 8, 9, 195, 120, 120, 195, 186, 114, 3, 0.687293
139, 2, bw, attraction, a-b-da, 2, 3, 8, 10, 120, 195, 193, 119, 195, 120, 1, 1.74577
139, 2, bw, attraction, a-b-da, 2, 3, 8, 10, 120, 195, 193, 119, 195, 120, 3, 0.53852
139, 2, bw, attraction, a-b-da, 5, 3, 8, 11, 120, 195, 195, 120, 190, 117, 1, 3.19484
139, 2, bw, attraction, a-b-da, 5, 3, 8, 11, 120, 195, 195, 120, 190, 117, 3, 0.721342
139, 2, bw, filler, NA, 999, 999, 8, 12, 109, 148, 81, 186, 135, 170, 3, 1.94625
139, 2, bw, filler, NA, 999, 999, 8, 12, 109, 148, 81, 186, 135, 170, 1, 1.17093
139, 2, bw, attraction, a-b-db, 9, 1, 8, 13, 57, 129, 135, 60, 60, 135, 3, 4.49787
139, 2, bw, attraction, a-b-db, 9, 1, 8, 13, 57, 129, 135, 60, 60, 135, 2, 0.619738
139, 2, bw, attraction, a-b-db, 2, 1, 8, 14, 60, 135, 59, 134, 135, 60, 2, 1.51282
139, 2, bw, attraction, a-b-db, 2, 1, 8, 14, 60, 135, 59, 134, 135, 60, 3, 0.563045
139, 2, bw, attraction, a-b-db, 5, 2, 8, 15, 88, 161, 165, 90, 90, 165, 1, 8.18611
139, 2, bw, attraction, a-b-db, 5, 2, 8, 15, 88, 161, 165, 90, 90, 165, 2, 0.831607
139, 2, bw, attraction, a-b-da, 2, 1, 8, 16, 135, 60, 134, 59, 60, 135, 3, 3.06781
139, 2, bw, attraction, a-b-da, 2, 1, 8, 16, 135, 60, 134, 59, 60, 135, 2, 0.383553
139, 2, bw, attraction, a-b-da, 14, 1, 8, 17, 135, 60, 60, 135, 125, 56, 2, 1.83005
139, 2, bw, attraction, a-b-da, 14, 1, 8, 17, 135, 60, 60, 135, 125, 56, 3, 1.45142
139, 2, bw, catch, NA, 999, 999, 8, 18, 95, 100, 128, 127, 167, 148, 3, 0.97488
139, 2, bw, catch, NA, 999, 999, 8, 18, 95, 100, 128, 127, 167, 148, 1, 0.494612
139, 2, bw, filler, NA, 999, 999, 8, 19, 56, 95, 138, 138, 126, 101, 2, 0.688325
139, 2, bw, filler, NA, 999, 999, 8, 19, 56, 95, 138, 138, 126, 101, 1, 0.459534
139, 2, bw, attraction, a-b-db, 9, 3, 8, 20, 120, 195, 114, 186, 195, 120, 1, 1.3667
139, 2, bw, attraction, a-b-db, 9, 3, 8, 20, 120, 195, 114, 186, 195, 120, 3, 0.630823
139, 2, bw, attraction, a-b-db, 2, 2, 8, 21, 165, 90, 90, 165, 89, 163, 2, 1.79519
139, 2, bw, attraction, a-b-db, 2, 2, 8, 21, 165, 90, 90, 165, 89, 163, 3, 0.386028
139, 2, bw, catch, NA, 999, 999, 8, 22, 66, 129, 179, 136, 153, 102, 2, 0.848459
139, 2, bw, catch, NA, 999, 999, 8, 22, 66, 129, 179, 136, 153, 102, 1, 0.517511
139, 2, bw, attraction, a-b-db, 14, 1, 8, 23, 56, 125, 60, 135, 135, 60, 2, 1.35863
139, 2, bw, attraction, a-b-db, 14, 1, 8, 23, 56, 125, 60, 135, 135, 60, 1, 0.822807
139, 2, bw, attraction, a-b-db, 14, 2, 8, 24, 83, 153, 90, 165, 165, 90, 2, 1.87526
139, 2, bw, attraction, a-b-db, 14, 2, 8, 24, 83, 153, 90, 165, 165, 90, 1, 0.5666
139, 2, bw, catch, NA, 999, 999, 8, 25, 124, 71, 166, 149, 119, 136, 2, 0.765686
139, 2, bw, catch, NA, 999, 999, 8, 25, 124, 71, 166, 149, 119, 136, 1, 0.662143
139, 2, bw, attraction, a-b-db, 9, 2, 8, 26, 86, 157, 165, 90, 90, 165, 3, 3.15319
139, 2, bw, attraction, a-b-db, 9, 2, 8, 26, 86, 157, 165, 90, 90, 165, 2, 0.425586
139, 2, bw, filler, NA, 999, 999, 8, 27, 61, 117, 98, 63, 80, 66, 1, 1.71788
139, 2, bw, filler, NA, 999, 999, 8, 27, 61, 117, 98, 63, 80, 66, 3, 1.34411
139, 2, bw, attraction, a-b-da, 5, 2, 8, 28, 90, 165, 161, 88, 165, 90, 1, 2.82356
139, 2, bw, attraction, a-b-da, 5, 2, 8, 28, 90, 165, 161, 88, 165, 90, 2, 1.71664
139, 2, bw, filler, NA, 999, 999, 8, 29, 72, 108, 82, 159, 135, 103, 2, 1.13334
139, 2, bw, filler, NA, 999, 999, 8, 29, 72, 108, 82, 159, 135, 103, 1, 0.438979
139, 2, bw, attraction, a-b-da, 14, 2, 8, 30, 90, 165, 165, 90, 153, 83, 1, 1.3554
139, 2, bw, attraction, a-b-da, 14, 2, 8, 30, 90, 165, 165, 90, 153, 83, 3, 0.411684
139, 2, bw, filler, NA, 999, 999, 8, 31, 158, 88, 93, 112, 132, 170, 3, 0.920936
139, 2, bw, filler, NA, 999, 999, 8, 31, 158, 88, 93, 112, 132, 170, 2, 0.946518
139, 2, bw, attraction, a-b-db, 5, 1, 8, 32, 60, 135, 135, 60, 58, 132, 1, 2.00224
139, 2, bw, attraction, a-b-db, 5, 1, 8, 32, 60, 135, 135, 60, 58, 132, 2, 0.440928
139, 2, bw, filler, NA, 999, 999, 8, 33, 136, 144, 96, 168, 78, 141, 1, 1.01261
139, 2, bw, filler, NA, 999, 999, 8, 33, 136, 144, 96, 168, 78, 141, 3, 0.443103
139, 2, bw, attraction, a-b-da, 14, 3, 8, 34, 195, 120, 181, 111, 120, 195, 3, 2.03087
139, 2, bw, attraction, a-b-da, 14, 3, 8, 34, 195, 120, 181, 111, 120, 195, 2, 0.468065
139, 2, bw, attraction, a-b-da, 9, 2, 8, 35, 90, 165, 157, 86, 165, 90, 1, 1.75922
139, 2, bw, attraction, a-b-da, 9, 2, 8, 35, 90, 165, 157, 86, 165, 90, 2, 0.895371
139, 2, bw, attraction, a-b-db, 2, 3, 8, 36, 195, 120, 120, 195, 119, 193, 2, 1.43291
139, 2, bw, attraction, a-b-db, 2, 3, 8, 36, 195, 120, 120, 195, 119, 193, 1, 0.502471
139, 2, bw, filler, NA, 999, 999, 8, 37, 143, 98, 163, 143, 194, 68, 2, 0.744277
139, 2, bw, filler, NA, 999, 999, 8, 37, 143, 98, 163, 143, 194, 68, 1, 0.545354
