sub_n, computer_n, bw_cond, effect, set, distance, diag, block_n, trial_n, h1, w1, h2, w2, h3, w3, choice, rt 
195, 2, bw, practice, NA, 999, 999, 0, 1, 143, 70, 120, 76, 66, 112, 1, 5.20877
195, 2, bw, practice, NA, 999, 999, 0, 1, 143, 70, 120, 76, 66, 112, 3, 2.47122
195, 2, bw, practice, NA, 999, 999, 0, 2, 93, 122, 57, 76, 140, 149, 3, 2.27759
195, 2, bw, practice, NA, 999, 999, 0, 2, 93, 122, 57, 76, 140, 149, 2, 1.0971
195, 2, bw, practice, NA, 999, 999, 0, 3, 134, 168, 129, 123, 94, 126, 1, 1.28883
195, 2, bw, practice, NA, 999, 999, 0, 3, 134, 168, 129, 123, 94, 126, 3, 0.770597
195, 2, bw, catch, NA, 999, 999, 1, 1, 121, 194, 99, 156, 93, 102, 1, 1.08644
195, 2, bw, catch, NA, 999, 999, 1, 1, 121, 194, 99, 156, 93, 102, 3, 0.87422
195, 2, bw, attraction, a-b-da, 14, 1, 1, 2, 135, 60, 60, 135, 125, 56, 2, 1.93246
195, 2, bw, attraction, a-b-da, 14, 1, 1, 2, 135, 60, 60, 135, 125, 56, 3, 0.581913
195, 2, bw, filler, NA, 999, 999, 1, 3, 162, 112, 111, 186, 72, 78, 2, 1.18822
195, 2, bw, filler, NA, 999, 999, 1, 3, 162, 112, 111, 186, 72, 78, 3, 0.523164
195, 2, bw, attraction, a-b-db, 5, 1, 1, 4, 60, 135, 58, 132, 135, 60, 1, 3.15563
195, 2, bw, attraction, a-b-db, 5, 1, 1, 4, 60, 135, 58, 132, 135, 60, 2, 4.73133
195, 2, bw, attraction, a-b-db, 2, 1, 1, 5, 59, 134, 60, 135, 135, 60, 2, 1.73038
195, 2, bw, attraction, a-b-db, 2, 1, 1, 5, 59, 134, 60, 135, 135, 60, 1, 0.3798
195, 2, bw, filler, NA, 999, 999, 1, 6, 56, 129, 118, 179, 66, 92, 2, 1.59436
195, 2, bw, filler, NA, 999, 999, 1, 6, 56, 129, 118, 179, 66, 92, 3, 0.513236
195, 2, bw, attraction, a-b-db, 2, 2, 1, 7, 90, 165, 89, 163, 165, 90, 2, 3.29035
195, 2, bw, attraction, a-b-db, 2, 2, 1, 7, 90, 165, 89, 163, 165, 90, 3, 0.780582
195, 2, bw, filler, NA, 999, 999, 1, 8, 149, 139, 84, 148, 136, 121, 1, 1.11504
195, 2, bw, filler, NA, 999, 999, 1, 8, 149, 139, 84, 148, 136, 121, 2, 0.869202
195, 2, bw, attraction, a-b-da, 5, 3, 1, 9, 120, 195, 190, 117, 195, 120, 3, 3.52814
195, 2, bw, attraction, a-b-da, 5, 3, 1, 9, 120, 195, 190, 117, 195, 120, 2, 0.489131
195, 2, bw, filler, NA, 999, 999, 1, 10, 130, 193, 186, 80, 92, 114, 1, 1.09944
195, 2, bw, filler, NA, 999, 999, 1, 10, 130, 193, 186, 80, 92, 114, 3, 0.430665
195, 2, bw, catch, NA, 999, 999, 1, 11, 116, 79, 183, 132, 160, 95, 2, 0.779028
195, 2, bw, catch, NA, 999, 999, 1, 11, 116, 79, 183, 132, 160, 95, 1, 0.490785
195, 2, bw, attraction, a-b-da, 5, 1, 1, 12, 135, 60, 132, 58, 60, 135, 3, 1.14855
195, 2, bw, attraction, a-b-da, 5, 1, 1, 12, 135, 60, 132, 58, 60, 135, 2, 0.405413
195, 2, bw, filler, NA, 999, 999, 1, 13, 190, 71, 117, 96, 186, 162, 3, 0.811255
195, 2, bw, filler, NA, 999, 999, 1, 13, 190, 71, 117, 96, 186, 162, 2, 1.93764
195, 2, bw, attraction, a-b-db, 5, 2, 1, 14, 88, 161, 90, 165, 165, 90, 2, 1.4177
195, 2, bw, attraction, a-b-db, 5, 2, 1, 14, 88, 161, 90, 165, 165, 90, 3, 0.327851
195, 2, bw, attraction, a-b-da, 9, 2, 1, 15, 165, 90, 90, 165, 157, 86, 1, 1.43233
195, 2, bw, attraction, a-b-da, 9, 2, 1, 15, 165, 90, 90, 165, 157, 86, 3, 0.42189
195, 2, bw, filler, NA, 999, 999, 1, 16, 82, 164, 158, 104, 136, 118, 2, 1.51507
195, 2, bw, filler, NA, 999, 999, 1, 16, 82, 164, 158, 104, 136, 118, 1, 0.37321
195, 2, bw, filler, NA, 999, 999, 1, 17, 73, 107, 175, 184, 145, 104, 2, 0.707793
195, 2, bw, filler, NA, 999, 999, 1, 17, 73, 107, 175, 184, 145, 104, 1, 0.54206
195, 2, bw, attraction, a-b-db, 14, 2, 1, 18, 90, 165, 165, 90, 83, 153, 1, 0.821792
195, 2, bw, attraction, a-b-db, 14, 2, 1, 18, 90, 165, 165, 90, 83, 153, 2, 0.763762
195, 2, bw, catch, NA, 999, 999, 1, 19, 125, 190, 118, 137, 115, 80, 1, 0.826573
195, 2, bw, catch, NA, 999, 999, 1, 19, 125, 190, 118, 137, 115, 80, 3, 0.656471
195, 2, bw, attraction, a-b-da, 2, 1, 1, 20, 134, 59, 60, 135, 135, 60, 2, 1.53134
195, 2, bw, attraction, a-b-da, 2, 1, 1, 20, 134, 59, 60, 135, 135, 60, 3, 0.909024
195, 2, bw, attraction, a-b-da, 14, 2, 1, 21, 90, 165, 153, 83, 165, 90, 3, 2.64596
195, 2, bw, attraction, a-b-da, 14, 2, 1, 21, 90, 165, 153, 83, 165, 90, 2, 0.410365
195, 2, bw, attraction, a-b-db, 5, 3, 1, 22, 120, 195, 195, 120, 117, 190, 2, 3.27148
195, 2, bw, attraction, a-b-db, 5, 3, 1, 22, 120, 195, 195, 120, 117, 190, 3, 0.794374
195, 2, bw, attraction, a-b-db, 9, 3, 1, 23, 120, 195, 195, 120, 114, 186, 2, 2.11213
195, 2, bw, attraction, a-b-db, 9, 3, 1, 23, 120, 195, 195, 120, 114, 186, 3, 0.370248
195, 2, bw, attraction, a-b-db, 9, 1, 1, 24, 135, 60, 60, 135, 57, 129, 2, 1.64937
195, 2, bw, attraction, a-b-db, 9, 1, 1, 24, 135, 60, 60, 135, 57, 129, 1, 0.694072
195, 2, bw, attraction, a-b-da, 2, 2, 1, 25, 163, 89, 90, 165, 165, 90, 3, 2.23977
195, 2, bw, attraction, a-b-da, 2, 2, 1, 25, 163, 89, 90, 165, 165, 90, 2, 2.08442
195, 2, bw, attraction, a-b-da, 9, 1, 1, 26, 135, 60, 60, 135, 129, 57, 2, 1.38229
195, 2, bw, attraction, a-b-da, 9, 1, 1, 26, 135, 60, 60, 135, 129, 57, 1, 2.98989
195, 2, bw, attraction, a-b-da, 9, 3, 1, 27, 186, 114, 120, 195, 195, 120, 2, 1.8196
195, 2, bw, attraction, a-b-da, 9, 3, 1, 27, 186, 114, 120, 195, 195, 120, 1, 0.457708
195, 2, bw, filler, NA, 999, 999, 1, 28, 141, 87, 173, 166, 162, 87, 2, 1.23679
195, 2, bw, filler, NA, 999, 999, 1, 28, 141, 87, 173, 166, 162, 87, 1, 0.546412
195, 2, bw, filler, NA, 999, 999, 1, 29, 92, 159, 184, 172, 142, 168, 2, 1.61013
195, 2, bw, filler, NA, 999, 999, 1, 29, 92, 159, 184, 172, 142, 168, 1, 0.592231
195, 2, bw, attraction, a-b-da, 2, 3, 1, 30, 120, 195, 193, 119, 195, 120, 3, 4.12607
195, 2, bw, attraction, a-b-da, 2, 3, 1, 30, 120, 195, 193, 119, 195, 120, 2, 0.598717
195, 2, bw, attraction, a-b-db, 14, 3, 1, 31, 120, 195, 111, 181, 195, 120, 3, 2.62849
195, 2, bw, attraction, a-b-db, 14, 3, 1, 31, 120, 195, 111, 181, 195, 120, 2, 0.305647
195, 2, bw, attraction, a-b-db, 2, 3, 1, 32, 195, 120, 119, 193, 120, 195, 1, 2.43539
195, 2, bw, attraction, a-b-db, 2, 3, 1, 32, 195, 120, 119, 193, 120, 195, 3, 0.81669
195, 2, bw, filler, NA, 999, 999, 1, 33, 63, 97, 151, 92, 110, 167, 3, 1.28574
195, 2, bw, filler, NA, 999, 999, 1, 33, 63, 97, 151, 92, 110, 167, 1, 0.745259
195, 2, bw, attraction, a-b-da, 14, 3, 1, 34, 120, 195, 181, 111, 195, 120, 3, 2.449
195, 2, bw, attraction, a-b-da, 14, 3, 1, 34, 120, 195, 181, 111, 195, 120, 2, 0.309474
195, 2, bw, attraction, a-b-db, 9, 2, 1, 35, 165, 90, 86, 157, 90, 165, 3, 3.35869
195, 2, bw, attraction, a-b-db, 9, 2, 1, 35, 165, 90, 86, 157, 90, 165, 2, 0.646284
195, 2, bw, attraction, a-b-db, 14, 1, 1, 36, 56, 125, 60, 135, 135, 60, 2, 7.95406
195, 2, bw, attraction, a-b-db, 14, 1, 1, 36, 56, 125, 60, 135, 135, 60, 1, 0.696852
195, 2, bw, attraction, a-b-da, 5, 2, 1, 37, 90, 165, 165, 90, 161, 88, 1, 1.9306
195, 2, bw, attraction, a-b-da, 5, 2, 1, 37, 90, 165, 165, 90, 161, 88, 3, 0.419957
195, 2, bw, filler, NA, 999, 999, 2, 1, 183, 122, 109, 160, 133, 87, 1, 1.55298
195, 2, bw, filler, NA, 999, 999, 2, 1, 183, 122, 109, 160, 133, 87, 3, 0.410254
195, 2, bw, attraction, a-b-da, 9, 3, 2, 2, 195, 120, 186, 114, 120, 195, 3, 2.03113
195, 2, bw, attraction, a-b-da, 9, 3, 2, 2, 195, 120, 186, 114, 120, 195, 2, 0.476361
195, 2, bw, attraction, a-b-db, 2, 3, 2, 3, 120, 195, 195, 120, 119, 193, 1, 5.72702
195, 2, bw, attraction, a-b-db, 2, 3, 2, 3, 120, 195, 195, 120, 119, 193, 3, 0.607069
195, 2, bw, filler, NA, 999, 999, 2, 4, 116, 182, 171, 60, 181, 194, 3, 0.804117
195, 2, bw, filler, NA, 999, 999, 2, 4, 116, 182, 171, 60, 181, 194, 2, 0.970452
195, 2, bw, attraction, a-b-da, 5, 3, 2, 5, 120, 195, 195, 120, 190, 117, 2, 2.29758
195, 2, bw, attraction, a-b-da, 5, 3, 2, 5, 120, 195, 195, 120, 190, 117, 3, 0.604148
195, 2, bw, attraction, a-b-da, 5, 1, 2, 6, 60, 135, 135, 60, 132, 58, 1, 2.29777
195, 2, bw, attraction, a-b-da, 5, 1, 2, 6, 60, 135, 135, 60, 132, 58, 2, 0.748353
195, 2, bw, attraction, a-b-db, 9, 2, 2, 7, 86, 157, 90, 165, 165, 90, 3, 6.26809
195, 2, bw, attraction, a-b-db, 9, 2, 2, 7, 86, 157, 90, 165, 165, 90, 1, 0.318723
195, 2, bw, attraction, a-b-da, 9, 2, 2, 8, 165, 90, 90, 165, 157, 86, 1, 4.79207
195, 2, bw, attraction, a-b-da, 9, 2, 2, 8, 165, 90, 90, 165, 157, 86, 3, 0.534
195, 2, bw, catch, NA, 999, 999, 2, 9, 124, 191, 119, 76, 92, 163, 1, 0.76619
195, 2, bw, catch, NA, 999, 999, 2, 9, 124, 191, 119, 76, 92, 163, 2, 0.334636
195, 2, bw, attraction, a-b-db, 5, 1, 2, 10, 58, 132, 135, 60, 60, 135, 3, 2.8871
195, 2, bw, attraction, a-b-db, 5, 1, 2, 10, 58, 132, 135, 60, 60, 135, 1, 0.850304
195, 2, bw, attraction, a-b-da, 2, 2, 2, 11, 163, 89, 165, 90, 90, 165, 3, 1.99788
195, 2, bw, attraction, a-b-da, 2, 2, 2, 11, 163, 89, 165, 90, 90, 165, 1, 1.74859
195, 2, bw, attraction, a-b-da, 5, 2, 2, 12, 161, 88, 165, 90, 90, 165, 2, 4.18014
195, 2, bw, attraction, a-b-da, 5, 2, 2, 12, 161, 88, 165, 90, 90, 165, 1, 0.786586
195, 2, bw, filler, NA, 999, 999, 2, 13, 63, 178, 92, 169, 166, 65, 2, 7.78498
195, 2, bw, filler, NA, 999, 999, 2, 13, 63, 178, 92, 169, 166, 65, 1, 0.86247
195, 2, bw, catch, NA, 999, 999, 2, 14, 98, 157, 176, 139, 113, 82, 2, 1.59349
195, 2, bw, catch, NA, 999, 999, 2, 14, 98, 157, 176, 139, 113, 82, 3, 0.440402
195, 2, bw, filler, NA, 999, 999, 2, 15, 95, 88, 64, 112, 134, 145, 3, 1.14839
195, 2, bw, filler, NA, 999, 999, 2, 15, 95, 88, 64, 112, 134, 145, 2, 0.829093
195, 2, bw, attraction, a-b-db, 5, 2, 2, 16, 165, 90, 90, 165, 88, 161, 2, 1.82553
195, 2, bw, attraction, a-b-db, 5, 2, 2, 16, 165, 90, 90, 165, 88, 161, 3, 0.998872
195, 2, bw, catch, NA, 999, 999, 2, 17, 155, 100, 132, 63, 193, 122, 3, 1.14052
195, 2, bw, catch, NA, 999, 999, 2, 17, 155, 100, 132, 63, 193, 122, 2, 0.3174
195, 2, bw, attraction, a-b-da, 14, 3, 2, 18, 120, 195, 181, 111, 195, 120, 3, 4.01455
195, 2, bw, attraction, a-b-da, 14, 3, 2, 18, 120, 195, 181, 111, 195, 120, 2, 0.363986
195, 2, bw, attraction, a-b-da, 2, 1, 2, 19, 135, 60, 134, 59, 60, 135, 3, 2.0592
195, 2, bw, attraction, a-b-da, 2, 1, 2, 19, 135, 60, 134, 59, 60, 135, 2, 1.07119
195, 2, bw, attraction, a-b-da, 14, 1, 2, 20, 125, 56, 135, 60, 60, 135, 3, 2.11404
195, 2, bw, attraction, a-b-da, 14, 1, 2, 20, 125, 56, 135, 60, 60, 135, 1, 0.964021
195, 2, bw, filler, NA, 999, 999, 2, 21, 186, 140, 155, 118, 146, 146, 1, 1.14711
195, 2, bw, filler, NA, 999, 999, 2, 21, 186, 140, 155, 118, 146, 146, 2, 0.404
195, 2, bw, attraction, a-b-da, 9, 1, 2, 22, 135, 60, 129, 57, 60, 135, 3, 2.54577
195, 2, bw, attraction, a-b-da, 9, 1, 2, 22, 135, 60, 129, 57, 60, 135, 2, 0.818315
195, 2, bw, attraction, a-b-db, 14, 1, 2, 23, 135, 60, 56, 125, 60, 135, 1, 5.24731
195, 2, bw, attraction, a-b-db, 14, 1, 2, 23, 135, 60, 56, 125, 60, 135, 2, 0.306982
195, 2, bw, attraction, a-b-db, 9, 1, 2, 24, 57, 129, 60, 135, 135, 60, 2, 2.53226
195, 2, bw, attraction, a-b-db, 9, 1, 2, 24, 57, 129, 60, 135, 135, 60, 1, 0.389323
195, 2, bw, attraction, a-b-db, 2, 1, 2, 25, 59, 134, 135, 60, 60, 135, 2, 4.70786
195, 2, bw, attraction, a-b-db, 2, 1, 2, 25, 59, 134, 135, 60, 60, 135, 1, 1.35697
195, 2, bw, attraction, a-b-db, 2, 2, 2, 26, 90, 165, 165, 90, 89, 163, 2, 4.29985
195, 2, bw, attraction, a-b-db, 2, 2, 2, 26, 90, 165, 165, 90, 89, 163, 3, 0.797827
195, 2, bw, filler, NA, 999, 999, 2, 27, 73, 59, 163, 159, 100, 91, 2, 0.859458
195, 2, bw, filler, NA, 999, 999, 2, 27, 73, 59, 163, 159, 100, 91, 1, 0.559902
195, 2, bw, attraction, a-b-db, 5, 3, 2, 28, 120, 195, 195, 120, 117, 190, 2, 4.887
195, 2, bw, attraction, a-b-db, 5, 3, 2, 28, 120, 195, 195, 120, 117, 190, 3, 0.409424
195, 2, bw, filler, NA, 999, 999, 2, 29, 68, 185, 78, 79, 75, 125, 1, 1.8226
195, 2, bw, filler, NA, 999, 999, 2, 29, 68, 185, 78, 79, 75, 125, 2, 0.556131
195, 2, bw, attraction, a-b-db, 9, 3, 2, 30, 195, 120, 114, 186, 120, 195, 1, 2.30705
195, 2, bw, attraction, a-b-db, 9, 3, 2, 30, 195, 120, 114, 186, 120, 195, 2, 0.413037
195, 2, bw, filler, NA, 999, 999, 2, 31, 158, 157, 126, 110, 132, 66, 1, 1.29011
195, 2, bw, filler, NA, 999, 999, 2, 31, 158, 157, 126, 110, 132, 66, 3, 1.06118
195, 2, bw, attraction, a-b-da, 14, 2, 2, 32, 153, 83, 165, 90, 90, 165, 3, 2.80803
195, 2, bw, attraction, a-b-da, 14, 2, 2, 32, 153, 83, 165, 90, 90, 165, 1, 0.621822
195, 2, bw, attraction, a-b-db, 14, 3, 2, 33, 120, 195, 111, 181, 195, 120, 1, 2.74682
195, 2, bw, attraction, a-b-db, 14, 3, 2, 33, 120, 195, 111, 181, 195, 120, 2, 0.315306
195, 2, bw, attraction, a-b-db, 14, 2, 2, 34, 83, 153, 90, 165, 165, 90, 3, 2.48454
195, 2, bw, attraction, a-b-db, 14, 2, 2, 34, 83, 153, 90, 165, 165, 90, 1, 0.439672
195, 2, bw, filler, NA, 999, 999, 2, 35, 167, 102, 79, 99, 146, 169, 3, 2.33952
195, 2, bw, filler, NA, 999, 999, 2, 35, 167, 102, 79, 99, 146, 169, 2, 0.827987
195, 2, bw, attraction, a-b-da, 2, 3, 2, 36, 120, 195, 195, 120, 193, 119, 2, 2.08034
195, 2, bw, attraction, a-b-da, 2, 3, 2, 36, 120, 195, 195, 120, 193, 119, 3, 0.635818
195, 2, bw, filler, NA, 999, 999, 2, 37, 87, 89, 157, 185, 56, 79, 2, 0.784174
195, 2, bw, filler, NA, 999, 999, 2, 37, 87, 89, 157, 185, 56, 79, 3, 0.567774
195, 2, bw, filler, NA, 999, 999, 3, 1, 186, 172, 101, 170, 170, 181, 1, 1.67097
195, 2, bw, filler, NA, 999, 999, 3, 1, 186, 172, 101, 170, 170, 181, 2, 0.466368
195, 2, bw, attraction, a-b-db, 2, 1, 3, 2, 135, 60, 59, 134, 60, 135, 1, 2.1576
195, 2, bw, attraction, a-b-db, 2, 1, 3, 2, 135, 60, 59, 134, 60, 135, 2, 0.381527
195, 2, bw, attraction, a-b-db, 5, 3, 3, 3, 120, 195, 117, 190, 195, 120, 1, 2.53195
195, 2, bw, attraction, a-b-db, 5, 3, 3, 3, 120, 195, 117, 190, 195, 120, 2, 0.389146
195, 2, bw, attraction, a-b-db, 9, 3, 3, 4, 114, 186, 195, 120, 120, 195, 2, 1.73962
195, 2, bw, attraction, a-b-db, 9, 3, 3, 4, 114, 186, 195, 120, 120, 195, 1, 0.708351
195, 2, bw, attraction, a-b-db, 9, 1, 3, 5, 60, 135, 135, 60, 57, 129, 1, 2.8774
195, 2, bw, attraction, a-b-db, 9, 1, 3, 5, 60, 135, 135, 60, 57, 129, 3, 1.78451
195, 2, bw, catch, NA, 999, 999, 3, 6, 194, 121, 107, 148, 78, 117, 1, 1.05454
195, 2, bw, catch, NA, 999, 999, 3, 6, 194, 121, 107, 148, 78, 117, 3, 0.354985
195, 2, bw, filler, NA, 999, 999, 3, 7, 85, 160, 192, 195, 188, 145, 2, 1.00269
195, 2, bw, filler, NA, 999, 999, 3, 7, 85, 160, 192, 195, 188, 145, 1, 0.465683
195, 2, bw, attraction, a-b-da, 9, 1, 3, 8, 129, 57, 60, 135, 135, 60, 3, 2.20479
195, 2, bw, attraction, a-b-da, 9, 1, 3, 8, 129, 57, 60, 135, 135, 60, 2, 0.450962
195, 2, bw, attraction, a-b-db, 9, 2, 3, 9, 86, 157, 165, 90, 90, 165, 2, 3.70259
195, 2, bw, attraction, a-b-db, 9, 2, 3, 9, 86, 157, 165, 90, 90, 165, 1, 0.672714
195, 2, bw, attraction, a-b-da, 5, 2, 3, 10, 90, 165, 165, 90, 161, 88, 2, 3.85917
195, 2, bw, attraction, a-b-da, 5, 2, 3, 10, 90, 165, 165, 90, 161, 88, 3, 0.50261
195, 2, bw, filler, NA, 999, 999, 3, 11, 84, 56, 138, 178, 161, 186, 3, 0.824391
195, 2, bw, filler, NA, 999, 999, 3, 11, 84, 56, 138, 178, 161, 186, 1, 0.566087
195, 2, bw, attraction, a-b-da, 14, 3, 3, 12, 195, 120, 181, 111, 120, 195, 1, 1.89313
195, 2, bw, attraction, a-b-da, 14, 3, 3, 12, 195, 120, 181, 111, 120, 195, 2, 0.42384
195, 2, bw, filler, NA, 999, 999, 3, 13, 154, 92, 104, 174, 129, 93, 2, 2.02054
195, 2, bw, filler, NA, 999, 999, 3, 13, 154, 92, 104, 174, 129, 93, 3, 0.746455
195, 2, bw, attraction, a-b-db, 14, 1, 3, 14, 135, 60, 56, 125, 60, 135, 1, 4.22611
195, 2, bw, attraction, a-b-db, 14, 1, 3, 14, 135, 60, 56, 125, 60, 135, 2, 0.302757
195, 2, bw, attraction, a-b-da, 5, 3, 3, 15, 120, 195, 190, 117, 195, 120, 1, 1.25661
195, 2, bw, attraction, a-b-da, 5, 3, 3, 15, 120, 195, 190, 117, 195, 120, 2, 2.47692
195, 2, bw, attraction, a-b-da, 2, 1, 3, 16, 135, 60, 60, 135, 134, 59, 1, 2.90277
195, 2, bw, attraction, a-b-da, 2, 1, 3, 16, 135, 60, 60, 135, 134, 59, 3, 1.2332
195, 2, bw, attraction, a-b-da, 2, 2, 3, 17, 90, 165, 165, 90, 163, 89, 1, 1.66128
195, 2, bw, attraction, a-b-da, 2, 2, 3, 17, 90, 165, 165, 90, 163, 89, 3, 0.673397
195, 2, bw, filler, NA, 999, 999, 3, 18, 57, 167, 139, 112, 87, 69, 2, 7.67575
195, 2, bw, filler, NA, 999, 999, 3, 18, 57, 167, 139, 112, 87, 69, 3, 0.717375
195, 2, bw, filler, NA, 999, 999, 3, 19, 177, 149, 60, 143, 97, 162, 1, 1.07855
195, 2, bw, filler, NA, 999, 999, 3, 19, 177, 149, 60, 143, 97, 162, 2, 0.642059
195, 2, bw, catch, NA, 999, 999, 3, 20, 99, 156, 180, 135, 102, 93, 2, 0.805755
195, 2, bw, catch, NA, 999, 999, 3, 20, 99, 156, 180, 135, 102, 93, 3, 0.324202
195, 2, bw, filler, NA, 999, 999, 3, 21, 59, 194, 159, 120, 119, 186, 3, 1.66873
195, 2, bw, filler, NA, 999, 999, 3, 21, 59, 194, 159, 120, 119, 186, 1, 0.520747
195, 2, bw, filler, NA, 999, 999, 3, 22, 153, 115, 106, 78, 148, 143, 3, 0.841847
195, 2, bw, filler, NA, 999, 999, 3, 22, 153, 115, 106, 78, 148, 143, 2, 0.446952
195, 2, bw, attraction, a-b-da, 9, 3, 3, 23, 120, 195, 186, 114, 195, 120, 1, 2.6028
195, 2, bw, attraction, a-b-da, 9, 3, 3, 23, 120, 195, 186, 114, 195, 120, 2, 0.297265
195, 2, bw, attraction, a-b-da, 14, 2, 3, 24, 153, 83, 165, 90, 90, 165, 3, 1.39513
195, 2, bw, attraction, a-b-da, 14, 2, 3, 24, 153, 83, 165, 90, 90, 165, 1, 0.737984
195, 2, bw, attraction, a-b-db, 5, 2, 3, 25, 165, 90, 90, 165, 88, 161, 3, 2.3303
195, 2, bw, attraction, a-b-db, 5, 2, 3, 25, 165, 90, 90, 165, 88, 161, 1, 0.95561
195, 2, bw, attraction, a-b-db, 2, 2, 3, 26, 89, 163, 165, 90, 90, 165, 3, 1.50725
195, 2, bw, attraction, a-b-db, 2, 2, 3, 26, 89, 163, 165, 90, 90, 165, 2, 0.293437
195, 2, bw, attraction, a-b-da, 2, 3, 3, 27, 120, 195, 195, 120, 193, 119, 2, 1.60727
195, 2, bw, attraction, a-b-da, 2, 3, 3, 27, 120, 195, 195, 120, 193, 119, 1, 0.493366
195, 2, bw, attraction, a-b-da, 14, 1, 3, 28, 125, 56, 60, 135, 135, 60, 2, 1.73517
195, 2, bw, attraction, a-b-da, 14, 1, 3, 28, 125, 56, 60, 135, 135, 60, 1, 0.504589
195, 2, bw, attraction, a-b-da, 5, 1, 3, 29, 60, 135, 135, 60, 132, 58, 3, 4.11456
195, 2, bw, attraction, a-b-da, 5, 1, 3, 29, 60, 135, 135, 60, 132, 58, 2, 0.659757
195, 2, bw, attraction, a-b-db, 2, 3, 3, 30, 195, 120, 120, 195, 119, 193, 2, 1.58276
195, 2, bw, attraction, a-b-db, 2, 3, 3, 30, 195, 120, 120, 195, 119, 193, 3, 0.838316
195, 2, bw, attraction, a-b-da, 9, 2, 3, 31, 90, 165, 165, 90, 157, 86, 1, 5.66665
195, 2, bw, attraction, a-b-da, 9, 2, 3, 31, 90, 165, 165, 90, 157, 86, 3, 0.813679
195, 2, bw, attraction, a-b-db, 14, 2, 3, 32, 90, 165, 165, 90, 83, 153, 1, 3.21869
195, 2, bw, attraction, a-b-db, 14, 2, 3, 32, 90, 165, 165, 90, 83, 153, 3, 0.424216
195, 2, bw, catch, NA, 999, 999, 3, 33, 163, 92, 165, 150, 113, 82, 2, 0.788718
195, 2, bw, catch, NA, 999, 999, 3, 33, 163, 92, 165, 150, 113, 82, 3, 0.491729
195, 2, bw, attraction, a-b-db, 5, 1, 3, 34, 58, 132, 60, 135, 135, 60, 2, 1.7575
195, 2, bw, attraction, a-b-db, 5, 1, 3, 34, 58, 132, 60, 135, 135, 60, 1, 0.669627
195, 2, bw, filler, NA, 999, 999, 3, 35, 105, 56, 112, 156, 162, 131, 3, 0.760635
195, 2, bw, filler, NA, 999, 999, 3, 35, 105, 56, 112, 156, 162, 131, 1, 0.473026
195, 2, bw, filler, NA, 999, 999, 3, 36, 180, 155, 118, 149, 182, 81, 1, 0.715523
195, 2, bw, filler, NA, 999, 999, 3, 36, 180, 155, 118, 149, 182, 81, 3, 0.837949
195, 2, bw, attraction, a-b-db, 14, 3, 3, 37, 111, 181, 195, 120, 120, 195, 3, 1.39428
195, 2, bw, attraction, a-b-db, 14, 3, 3, 37, 111, 181, 195, 120, 120, 195, 1, 0.345255
195, 2, bw, filler, NA, 999, 999, 4, 1, 77, 71, 170, 63, 102, 142, 3, 1.80898
195, 2, bw, filler, NA, 999, 999, 4, 1, 77, 71, 170, 63, 102, 142, 1, 0.487123
195, 2, bw, attraction, a-b-da, 2, 2, 4, 2, 165, 90, 163, 89, 90, 165, 1, 5.80153
195, 2, bw, attraction, a-b-da, 2, 2, 4, 2, 165, 90, 163, 89, 90, 165, 2, 0.26304
195, 2, bw, attraction, a-b-db, 14, 1, 4, 3, 60, 135, 56, 125, 135, 60, 1, 2.18621
195, 2, bw, attraction, a-b-db, 14, 1, 4, 3, 60, 135, 56, 125, 135, 60, 2, 0.44144
195, 2, bw, attraction, a-b-da, 5, 2, 4, 4, 161, 88, 165, 90, 90, 165, 2, 7.03747
195, 2, bw, attraction, a-b-da, 5, 2, 4, 4, 161, 88, 165, 90, 90, 165, 1, 1.60111
195, 2, bw, attraction, a-b-da, 5, 3, 4, 5, 195, 120, 120, 195, 190, 117, 2, 2.48653
195, 2, bw, attraction, a-b-da, 5, 3, 4, 5, 195, 120, 120, 195, 190, 117, 3, 0.361795
195, 2, bw, attraction, a-b-db, 2, 1, 4, 6, 60, 135, 59, 134, 135, 60, 1, 1.56078
195, 2, bw, attraction, a-b-db, 2, 1, 4, 6, 60, 135, 59, 134, 135, 60, 2, 0.545053
195, 2, bw, filler, NA, 999, 999, 4, 7, 106, 104, 190, 63, 60, 192, 2, 5.00879
195, 2, bw, filler, NA, 999, 999, 4, 7, 106, 104, 190, 63, 60, 192, 3, 0.957911
195, 2, bw, attraction, a-b-db, 9, 1, 4, 8, 60, 135, 135, 60, 57, 129, 1, 1.79686
195, 2, bw, attraction, a-b-db, 9, 1, 4, 8, 60, 135, 135, 60, 57, 129, 3, 0.339629
195, 2, bw, attraction, a-b-db, 14, 2, 4, 9, 90, 165, 83, 153, 165, 90, 1, 1.05943
195, 2, bw, attraction, a-b-db, 14, 2, 4, 9, 90, 165, 83, 153, 165, 90, 2, 0.575712
195, 2, bw, filler, NA, 999, 999, 4, 10, 166, 67, 145, 135, 94, 148, 2, 1.69426
195, 2, bw, filler, NA, 999, 999, 4, 10, 166, 67, 145, 135, 94, 148, 1, 1.28105
195, 2, bw, filler, NA, 999, 999, 4, 11, 120, 183, 79, 155, 80, 69, 1, 0.675215
195, 2, bw, filler, NA, 999, 999, 4, 11, 120, 183, 79, 155, 80, 69, 3, 0.270849
195, 2, bw, attraction, a-b-db, 2, 3, 4, 12, 120, 195, 119, 193, 195, 120, 2, 1.8741
195, 2, bw, attraction, a-b-db, 2, 3, 4, 12, 120, 195, 119, 193, 195, 120, 1, 0.397486
195, 2, bw, attraction, a-b-da, 14, 2, 4, 13, 90, 165, 165, 90, 153, 83, 1, 1.2993
195, 2, bw, attraction, a-b-da, 14, 2, 4, 13, 90, 165, 165, 90, 153, 83, 3, 0.318197
195, 2, bw, attraction, a-b-da, 5, 1, 4, 14, 60, 135, 132, 58, 135, 60, 1, 1.15939
195, 2, bw, attraction, a-b-da, 5, 1, 4, 14, 60, 135, 132, 58, 135, 60, 2, 0.359581
195, 2, bw, catch, NA, 999, 999, 4, 15, 130, 125, 119, 76, 169, 146, 3, 0.734939
195, 2, bw, catch, NA, 999, 999, 4, 15, 130, 125, 119, 76, 169, 146, 2, 0.424506
195, 2, bw, attraction, a-b-db, 5, 2, 4, 16, 165, 90, 90, 165, 88, 161, 2, 3.461
195, 2, bw, attraction, a-b-db, 5, 2, 4, 16, 165, 90, 90, 165, 88, 161, 3, 0.384603
195, 2, bw, attraction, a-b-db, 14, 3, 4, 17, 195, 120, 120, 195, 111, 181, 2, 2.27911
195, 2, bw, attraction, a-b-db, 14, 3, 4, 17, 195, 120, 120, 195, 111, 181, 3, 0.442405
195, 2, bw, attraction, a-b-da, 14, 1, 4, 18, 135, 60, 60, 135, 125, 56, 2, 2.70212
195, 2, bw, attraction, a-b-da, 14, 1, 4, 18, 135, 60, 60, 135, 125, 56, 3, 0.568554
195, 2, bw, attraction, a-b-da, 2, 1, 4, 19, 60, 135, 135, 60, 134, 59, 1, 1.51966
195, 2, bw, attraction, a-b-da, 2, 1, 4, 19, 60, 135, 135, 60, 134, 59, 3, 0.881923
195, 2, bw, filler, NA, 999, 999, 4, 20, 143, 171, 161, 142, 163, 171, 3, 0.796184
195, 2, bw, filler, NA, 999, 999, 4, 20, 143, 171, 161, 142, 163, 171, 2, 0.595234
195, 2, bw, attraction, a-b-da, 2, 3, 4, 21, 120, 195, 193, 119, 195, 120, 2, 6.74507
195, 2, bw, attraction, a-b-da, 2, 3, 4, 21, 120, 195, 193, 119, 195, 120, 3, 0.760196
195, 2, bw, catch, NA, 999, 999, 4, 22, 102, 93, 154, 161, 126, 129, 2, 0.927194
195, 2, bw, catch, NA, 999, 999, 4, 22, 102, 93, 154, 161, 126, 129, 1, 0.672909
195, 2, bw, filler, NA, 999, 999, 4, 23, 160, 128, 123, 126, 108, 181, 1, 2.23535
195, 2, bw, filler, NA, 999, 999, 4, 23, 160, 128, 123, 126, 108, 181, 2, 0.568653
195, 2, bw, attraction, a-b-da, 9, 1, 4, 24, 60, 135, 129, 57, 135, 60, 3, 1.81585
195, 2, bw, attraction, a-b-da, 9, 1, 4, 24, 60, 135, 129, 57, 135, 60, 2, 0.341783
195, 2, bw, attraction, a-b-db, 9, 3, 4, 25, 120, 195, 195, 120, 114, 186, 1, 3.1336
195, 2, bw, attraction, a-b-db, 9, 3, 4, 25, 120, 195, 195, 120, 114, 186, 3, 0.206577
195, 2, bw, attraction, a-b-db, 5, 1, 4, 26, 60, 135, 58, 132, 135, 60, 3, 3.72381
195, 2, bw, attraction, a-b-db, 5, 1, 4, 26, 60, 135, 58, 132, 135, 60, 2, 1.16459
195, 2, bw, attraction, a-b-db, 9, 2, 4, 27, 86, 157, 165, 90, 90, 165, 3, 4.96347
195, 2, bw, attraction, a-b-db, 9, 2, 4, 27, 86, 157, 165, 90, 90, 165, 1, 0.578573
195, 2, bw, attraction, a-b-da, 9, 2, 4, 28, 90, 165, 157, 86, 165, 90, 3, 1.49711
195, 2, bw, attraction, a-b-da, 9, 2, 4, 28, 90, 165, 157, 86, 165, 90, 2, 0.451962
195, 2, bw, catch, NA, 999, 999, 4, 29, 142, 113, 180, 135, 124, 71, 2, 0.911723
195, 2, bw, catch, NA, 999, 999, 4, 29, 142, 113, 180, 135, 124, 71, 3, 0.378056
195, 2, bw, attraction, a-b-db, 5, 3, 4, 30, 195, 120, 117, 190, 120, 195, 2, 1.64858
195, 2, bw, attraction, a-b-db, 5, 3, 4, 30, 195, 120, 117, 190, 120, 195, 1, 0.557294
195, 2, bw, attraction, a-b-da, 14, 3, 4, 31, 195, 120, 120, 195, 181, 111, 2, 1.58048
195, 2, bw, attraction, a-b-da, 14, 3, 4, 31, 195, 120, 120, 195, 181, 111, 3, 0.483912
195, 2, bw, attraction, a-b-da, 9, 3, 4, 32, 120, 195, 186, 114, 195, 120, 1, 2.2784
195, 2, bw, attraction, a-b-da, 9, 3, 4, 32, 120, 195, 186, 114, 195, 120, 2, 0.297729
195, 2, bw, filler, NA, 999, 999, 4, 33, 75, 177, 137, 185, 176, 81, 2, 0.731463
195, 2, bw, filler, NA, 999, 999, 4, 33, 75, 177, 137, 185, 176, 81, 1, 0.637231
195, 2, bw, filler, NA, 999, 999, 4, 34, 157, 96, 169, 183, 161, 145, 2, 0.841574
195, 2, bw, filler, NA, 999, 999, 4, 34, 157, 96, 169, 183, 161, 145, 1, 0.390609
195, 2, bw, filler, NA, 999, 999, 4, 35, 71, 104, 89, 119, 145, 82, 3, 0.964436
195, 2, bw, filler, NA, 999, 999, 4, 35, 71, 104, 89, 119, 145, 82, 1, 0.540795
195, 2, bw, filler, NA, 999, 999, 4, 36, 57, 151, 99, 146, 107, 121, 2, 1.02858
195, 2, bw, filler, NA, 999, 999, 4, 36, 57, 151, 99, 146, 107, 121, 1, 0.738444
195, 2, bw, attraction, a-b-db, 2, 2, 4, 37, 90, 165, 165, 90, 89, 163, 1, 2.80271
195, 2, bw, attraction, a-b-db, 2, 2, 4, 37, 90, 165, 165, 90, 89, 163, 2, 0.545067
195, 2, bw, attraction, a-b-da, 2, 3, 5, 1, 193, 119, 120, 195, 195, 120, 2, 7.97547
195, 2, bw, attraction, a-b-da, 2, 3, 5, 1, 193, 119, 120, 195, 195, 120, 3, 0.972913
195, 2, bw, attraction, a-b-da, 5, 3, 5, 2, 120, 195, 190, 117, 195, 120, 3, 1.52321
195, 2, bw, attraction, a-b-da, 5, 3, 5, 2, 120, 195, 190, 117, 195, 120, 2, 0.46073
195, 2, bw, catch, NA, 999, 999, 5, 3, 88, 107, 137, 118, 176, 139, 3, 0.887843
195, 2, bw, catch, NA, 999, 999, 5, 3, 88, 107, 137, 118, 176, 139, 1, 0.570854
195, 2, bw, attraction, a-b-db, 5, 3, 5, 4, 117, 190, 120, 195, 195, 120, 3, 2.5219
195, 2, bw, attraction, a-b-db, 5, 3, 5, 4, 117, 190, 120, 195, 195, 120, 1, 0.819185
195, 2, bw, filler, NA, 999, 999, 5, 5, 151, 122, 121, 121, 72, 129, 1, 1.59214
195, 2, bw, filler, NA, 999, 999, 5, 5, 151, 122, 121, 121, 72, 129, 3, 0.454976
195, 2, bw, filler, NA, 999, 999, 5, 6, 124, 179, 117, 108, 126, 152, 1, 1.00277
195, 2, bw, filler, NA, 999, 999, 5, 6, 124, 179, 117, 108, 126, 152, 2, 0.329804
195, 2, bw, attraction, a-b-db, 14, 2, 5, 7, 90, 165, 165, 90, 83, 153, 1, 1.84222
195, 2, bw, attraction, a-b-db, 14, 2, 5, 7, 90, 165, 165, 90, 83, 153, 3, 0.391031
195, 2, bw, attraction, a-b-da, 2, 2, 5, 8, 90, 165, 165, 90, 163, 89, 1, 2.34884
195, 2, bw, attraction, a-b-da, 2, 2, 5, 8, 90, 165, 165, 90, 163, 89, 2, 0.325524
195, 2, bw, filler, NA, 999, 999, 5, 9, 62, 148, 122, 113, 134, 62, 2, 1.98191
195, 2, bw, filler, NA, 999, 999, 5, 9, 62, 148, 122, 113, 134, 62, 3, 0.381297
195, 2, bw, attraction, a-b-db, 14, 1, 5, 10, 56, 125, 135, 60, 60, 135, 3, 1.64375
195, 2, bw, attraction, a-b-db, 14, 1, 5, 10, 56, 125, 135, 60, 60, 135, 1, 0.376697
195, 2, bw, attraction, a-b-da, 5, 1, 5, 11, 132, 58, 60, 135, 135, 60, 3, 5.01508
195, 2, bw, attraction, a-b-da, 5, 1, 5, 11, 132, 58, 60, 135, 135, 60, 1, 0.596046
195, 2, bw, attraction, a-b-da, 14, 1, 5, 12, 125, 56, 135, 60, 60, 135, 3, 2.89
195, 2, bw, attraction, a-b-da, 14, 1, 5, 12, 125, 56, 135, 60, 60, 135, 2, 0.404227
195, 2, bw, attraction, a-b-da, 9, 3, 5, 13, 186, 114, 120, 195, 195, 120, 2, 1.98617
195, 2, bw, attraction, a-b-da, 9, 3, 5, 13, 186, 114, 120, 195, 195, 120, 1, 1.02543
195, 2, bw, attraction, a-b-da, 14, 3, 5, 14, 181, 111, 120, 195, 195, 120, 3, 1.68577
195, 2, bw, attraction, a-b-da, 14, 3, 5, 14, 181, 111, 120, 195, 195, 120, 1, 0.433307
195, 2, bw, catch, NA, 999, 999, 5, 15, 116, 79, 107, 148, 185, 130, 3, 0.885772
195, 2, bw, catch, NA, 999, 999, 5, 15, 116, 79, 107, 148, 185, 130, 1, 0.465426
195, 2, bw, filler, NA, 999, 999, 5, 16, 76, 135, 62, 127, 89, 105, 1, 2.88451
195, 2, bw, filler, NA, 999, 999, 5, 16, 76, 135, 62, 127, 89, 105, 2, 0.367571
195, 2, bw, attraction, a-b-da, 5, 2, 5, 17, 165, 90, 161, 88, 90, 165, 3, 3.03876
195, 2, bw, attraction, a-b-da, 5, 2, 5, 17, 165, 90, 161, 88, 90, 165, 2, 1.38704
195, 2, bw, attraction, a-b-db, 9, 3, 5, 18, 114, 186, 120, 195, 195, 120, 2, 3.7773
195, 2, bw, attraction, a-b-db, 9, 3, 5, 18, 114, 186, 120, 195, 195, 120, 1, 1.20799
195, 2, bw, filler, NA, 999, 999, 5, 19, 103, 71, 183, 182, 159, 171, 2, 0.924888
195, 2, bw, filler, NA, 999, 999, 5, 19, 103, 71, 183, 182, 159, 171, 1, 0.686664
195, 2, bw, filler, NA, 999, 999, 5, 20, 183, 135, 184, 94, 65, 58, 1, 0.776942
195, 2, bw, filler, NA, 999, 999, 5, 20, 183, 135, 184, 94, 65, 58, 3, 0.488734
195, 2, bw, filler, NA, 999, 999, 5, 21, 92, 113, 138, 132, 164, 141, 3, 1.47534
195, 2, bw, filler, NA, 999, 999, 5, 21, 92, 113, 138, 132, 164, 141, 1, 0.646715
195, 2, bw, attraction, a-b-da, 14, 2, 5, 22, 165, 90, 90, 165, 153, 83, 2, 2.77047
195, 2, bw, attraction, a-b-da, 14, 2, 5, 22, 165, 90, 90, 165, 153, 83, 3, 0.466404
195, 2, bw, attraction, a-b-db, 5, 2, 5, 23, 165, 90, 90, 165, 88, 161, 1, 5.34134
195, 2, bw, attraction, a-b-db, 5, 2, 5, 23, 165, 90, 90, 165, 88, 161, 3, 0.452957
195, 2, bw, attraction, a-b-da, 2, 1, 5, 24, 134, 59, 135, 60, 60, 135, 1, 2.27292
195, 2, bw, attraction, a-b-da, 2, 1, 5, 24, 134, 59, 135, 60, 60, 135, 3, 0.588119
195, 2, bw, attraction, a-b-db, 5, 1, 5, 25, 58, 132, 60, 135, 135, 60, 3, 5.21855
195, 2, bw, attraction, a-b-db, 5, 1, 5, 25, 58, 132, 60, 135, 135, 60, 1, 0.44753
195, 2, bw, attraction, a-b-da, 9, 2, 5, 26, 157, 86, 90, 165, 165, 90, 2, 3.29134
195, 2, bw, attraction, a-b-da, 9, 2, 5, 26, 157, 86, 90, 165, 165, 90, 1, 0.501644
195, 2, bw, attraction, a-b-da, 9, 1, 5, 27, 135, 60, 129, 57, 60, 135, 3, 4.81553
195, 2, bw, attraction, a-b-da, 9, 1, 5, 27, 135, 60, 129, 57, 60, 135, 2, 1.16451
195, 2, bw, filler, NA, 999, 999, 5, 28, 141, 149, 114, 96, 167, 138, 3, 2.01948
195, 2, bw, filler, NA, 999, 999, 5, 28, 141, 149, 114, 96, 167, 138, 2, 0.337445
195, 2, bw, attraction, a-b-db, 2, 2, 5, 29, 89, 163, 165, 90, 90, 165, 2, 5.22601
195, 2, bw, attraction, a-b-db, 2, 2, 5, 29, 89, 163, 165, 90, 90, 165, 3, 0.470276
195, 2, bw, attraction, a-b-db, 2, 3, 5, 30, 119, 193, 120, 195, 195, 120, 2, 2.28933
195, 2, bw, attraction, a-b-db, 2, 3, 5, 30, 119, 193, 120, 195, 195, 120, 1, 0.371928
195, 2, bw, attraction, a-b-db, 9, 1, 5, 31, 135, 60, 57, 129, 60, 135, 3, 1.93913
195, 2, bw, attraction, a-b-db, 9, 1, 5, 31, 135, 60, 57, 129, 60, 135, 2, 0.483813
195, 2, bw, catch, NA, 999, 999, 5, 32, 120, 75, 146, 109, 177, 138, 3, 1.20629
195, 2, bw, catch, NA, 999, 999, 5, 32, 120, 75, 146, 109, 177, 138, 1, 0.444512
195, 2, bw, attraction, a-b-db, 2, 1, 5, 33, 59, 134, 135, 60, 60, 135, 3, 3.36841
195, 2, bw, attraction, a-b-db, 2, 1, 5, 33, 59, 134, 135, 60, 60, 135, 1, 0.759871
195, 2, bw, attraction, a-b-db, 9, 2, 5, 34, 90, 165, 165, 90, 86, 157, 2, 3.50307
195, 2, bw, attraction, a-b-db, 9, 2, 5, 34, 90, 165, 165, 90, 86, 157, 3, 0.345244
195, 2, bw, filler, NA, 999, 999, 5, 35, 138, 173, 94, 158, 136, 195, 3, 1.48901
195, 2, bw, filler, NA, 999, 999, 5, 35, 138, 173, 94, 158, 136, 195, 2, 0.299843
195, 2, bw, attraction, a-b-db, 14, 3, 5, 36, 195, 120, 120, 195, 111, 181, 1, 6.31789
195, 2, bw, attraction, a-b-db, 14, 3, 5, 36, 195, 120, 120, 195, 111, 181, 3, 0.294376
195, 2, bw, filler, NA, 999, 999, 5, 37, 110, 156, 150, 64, 128, 142, 1, 9.86425
195, 2, bw, filler, NA, 999, 999, 5, 37, 110, 156, 150, 64, 128, 142, 2, 0.257785
195, 2, bw, filler, NA, 999, 999, 6, 1, 131, 165, 66, 166, 101, 161, 1, 0.972988
195, 2, bw, filler, NA, 999, 999, 6, 1, 131, 165, 66, 166, 101, 161, 2, 0.652604
195, 2, bw, filler, NA, 999, 999, 6, 2, 117, 80, 168, 141, 113, 118, 2, 1.00842
195, 2, bw, filler, NA, 999, 999, 6, 2, 117, 80, 168, 141, 113, 118, 1, 0.446707
195, 2, bw, attraction, a-b-da, 9, 2, 6, 3, 157, 86, 165, 90, 90, 165, 3, 4.26655
195, 2, bw, attraction, a-b-da, 9, 2, 6, 3, 157, 86, 165, 90, 90, 165, 1, 0.381925
195, 2, bw, attraction, a-b-db, 9, 3, 6, 4, 120, 195, 114, 186, 195, 120, 3, 5.48431
195, 2, bw, attraction, a-b-db, 9, 3, 6, 4, 120, 195, 114, 186, 195, 120, 2, 0.958512
195, 2, bw, attraction, a-b-da, 9, 3, 6, 5, 195, 120, 120, 195, 186, 114, 1, 2.10955
195, 2, bw, attraction, a-b-da, 9, 3, 6, 5, 195, 120, 120, 195, 186, 114, 3, 0.807519
195, 2, bw, attraction, a-b-db, 2, 2, 6, 6, 165, 90, 90, 165, 89, 163, 1, 7.18058
195, 2, bw, attraction, a-b-db, 2, 2, 6, 6, 165, 90, 90, 165, 89, 163, 3, 0.346424
195, 2, bw, attraction, a-b-da, 2, 1, 6, 7, 134, 59, 60, 135, 135, 60, 3, 3.98618
195, 2, bw, attraction, a-b-da, 2, 1, 6, 7, 134, 59, 60, 135, 135, 60, 1, 1.03296
195, 2, bw, filler, NA, 999, 999, 6, 8, 95, 119, 78, 183, 94, 138, 2, 2.28512
195, 2, bw, filler, NA, 999, 999, 6, 8, 95, 119, 78, 183, 94, 138, 1, 0.456399
195, 2, bw, attraction, a-b-da, 5, 3, 6, 9, 190, 117, 120, 195, 195, 120, 2, 3.65944
195, 2, bw, attraction, a-b-da, 5, 3, 6, 9, 190, 117, 120, 195, 195, 120, 1, 0.407073
195, 2, bw, attraction, a-b-db, 9, 1, 6, 10, 60, 135, 57, 129, 135, 60, 1, 5.93219
195, 2, bw, attraction, a-b-db, 9, 1, 6, 10, 60, 135, 57, 129, 135, 60, 2, 0.572282
195, 2, bw, attraction, a-b-db, 5, 3, 6, 11, 117, 190, 120, 195, 195, 120, 3, 3.02752
195, 2, bw, attraction, a-b-db, 5, 3, 6, 11, 117, 190, 120, 195, 195, 120, 1, 0.608386
195, 2, bw, attraction, a-b-db, 2, 3, 6, 12, 120, 195, 119, 193, 195, 120, 3, 3.28554
195, 2, bw, attraction, a-b-db, 2, 3, 6, 12, 120, 195, 119, 193, 195, 120, 2, 0.320469
195, 2, bw, filler, NA, 999, 999, 6, 13, 104, 112, 144, 90, 73, 148, 2, 6.97765
195, 2, bw, filler, NA, 999, 999, 6, 13, 104, 112, 144, 90, 73, 148, 3, 0.687337
195, 2, bw, filler, NA, 999, 999, 6, 14, 74, 125, 125, 86, 114, 59, 2, 2.00975
195, 2, bw, filler, NA, 999, 999, 6, 14, 74, 125, 125, 86, 114, 59, 3, 0.415866
195, 2, bw, attraction, a-b-da, 2, 2, 6, 15, 163, 89, 165, 90, 90, 165, 2, 5.72493
195, 2, bw, attraction, a-b-da, 2, 2, 6, 15, 163, 89, 165, 90, 90, 165, 3, 0.717257
195, 2, bw, attraction, a-b-da, 9, 1, 6, 16, 129, 57, 60, 135, 135, 60, 2, 1.91018
195, 2, bw, attraction, a-b-da, 9, 1, 6, 16, 129, 57, 60, 135, 135, 60, 1, 0.624242
195, 2, bw, attraction, a-b-da, 2, 3, 6, 17, 193, 119, 120, 195, 195, 120, 2, 3.39677
195, 2, bw, attraction, a-b-da, 2, 3, 6, 17, 193, 119, 120, 195, 195, 120, 3, 0.499025
195, 2, bw, filler, NA, 999, 999, 6, 18, 121, 141, 73, 192, 162, 79, 1, 2.03676
195, 2, bw, filler, NA, 999, 999, 6, 18, 121, 141, 73, 192, 162, 79, 3, 0.722031
195, 2, bw, attraction, a-b-da, 5, 1, 6, 19, 60, 135, 132, 58, 135, 60, 3, 6.97917
195, 2, bw, attraction, a-b-da, 5, 1, 6, 19, 60, 135, 132, 58, 135, 60, 2, 0.392876
195, 2, bw, attraction, a-b-db, 5, 2, 6, 20, 90, 165, 165, 90, 88, 161, 2, 3.01477
195, 2, bw, attraction, a-b-db, 5, 2, 6, 20, 90, 165, 165, 90, 88, 161, 3, 0.508357
195, 2, bw, filler, NA, 999, 999, 6, 21, 61, 68, 114, 166, 142, 142, 2, 3.48555
195, 2, bw, filler, NA, 999, 999, 6, 21, 61, 68, 114, 166, 142, 142, 1, 0.48841
195, 2, bw, catch, NA, 999, 999, 6, 22, 158, 97, 172, 143, 78, 117, 2, 1.40281
195, 2, bw, catch, NA, 999, 999, 6, 22, 158, 97, 172, 143, 78, 117, 3, 0.425746
195, 2, bw, attraction, a-b-da, 14, 2, 6, 23, 165, 90, 153, 83, 90, 165, 1, 1.50212
195, 2, bw, attraction, a-b-da, 14, 2, 6, 23, 165, 90, 153, 83, 90, 165, 2, 0.249132
195, 2, bw, attraction, a-b-db, 2, 1, 6, 24, 59, 134, 135, 60, 60, 135, 3, 6.69291
195, 2, bw, attraction, a-b-db, 2, 1, 6, 24, 59, 134, 135, 60, 60, 135, 2, 0.414038
195, 2, bw, catch, NA, 999, 999, 6, 25, 168, 147, 134, 121, 91, 104, 1, 0.899152
195, 2, bw, catch, NA, 999, 999, 6, 25, 168, 147, 134, 121, 91, 104, 3, 0.342255
195, 2, bw, filler, NA, 999, 999, 6, 26, 102, 186, 172, 148, 123, 170, 2, 1.78218
195, 2, bw, filler, NA, 999, 999, 6, 26, 102, 186, 172, 148, 123, 170, 1, 0.365531
195, 2, bw, catch, NA, 999, 999, 6, 27, 113, 142, 122, 73, 171, 144, 3, 0.716698
195, 2, bw, catch, NA, 999, 999, 6, 27, 113, 142, 122, 73, 171, 144, 2, 0.407117
195, 2, bw, attraction, a-b-da, 14, 1, 6, 28, 125, 56, 60, 135, 135, 60, 3, 4.4123
195, 2, bw, attraction, a-b-da, 14, 1, 6, 28, 125, 56, 60, 135, 135, 60, 2, 0.345497
195, 2, bw, attraction, a-b-db, 14, 3, 6, 29, 111, 181, 120, 195, 195, 120, 2, 4.92143
195, 2, bw, attraction, a-b-db, 14, 3, 6, 29, 111, 181, 120, 195, 195, 120, 1, 0.282427
195, 2, bw, attraction, a-b-da, 14, 3, 6, 30, 120, 195, 181, 111, 195, 120, 3, 2.42095
195, 2, bw, attraction, a-b-da, 14, 3, 6, 30, 120, 195, 181, 111, 195, 120, 2, 0.658199
195, 2, bw, attraction, a-b-db, 14, 1, 6, 31, 60, 135, 56, 125, 135, 60, 1, 1.3493
195, 2, bw, attraction, a-b-db, 14, 1, 6, 31, 60, 135, 56, 125, 135, 60, 2, 0.550163
195, 2, bw, attraction, a-b-da, 5, 2, 6, 32, 165, 90, 90, 165, 161, 88, 2, 1.39785
195, 2, bw, attraction, a-b-da, 5, 2, 6, 32, 165, 90, 90, 165, 161, 88, 3, 2.53283
195, 2, bw, attraction, a-b-db, 5, 1, 6, 33, 60, 135, 135, 60, 58, 132, 2, 2.82055
195, 2, bw, attraction, a-b-db, 5, 1, 6, 33, 60, 135, 135, 60, 58, 132, 3, 0.354327
195, 2, bw, attraction, a-b-db, 14, 2, 6, 34, 165, 90, 90, 165, 83, 153, 1, 7.80211
195, 2, bw, attraction, a-b-db, 14, 2, 6, 34, 165, 90, 90, 165, 83, 153, 3, 0.279118
195, 2, bw, attraction, a-b-db, 9, 2, 6, 35, 165, 90, 90, 165, 86, 157, 2, 6.57753
195, 2, bw, attraction, a-b-db, 9, 2, 6, 35, 165, 90, 90, 165, 86, 157, 3, 0.255491
195, 2, bw, filler, NA, 999, 999, 6, 36, 96, 69, 184, 71, 171, 68, 2, 2.97931
195, 2, bw, filler, NA, 999, 999, 6, 36, 96, 69, 184, 71, 171, 68, 1, 0.370418
195, 2, bw, filler, NA, 999, 999, 6, 37, 85, 105, 151, 72, 69, 189, 3, 3.41753
195, 2, bw, filler, NA, 999, 999, 6, 37, 85, 105, 151, 72, 69, 189, 2, 0.351251
195, 2, bw, attraction, a-b-db, 14, 3, 7, 1, 195, 120, 111, 181, 120, 195, 3, 2.183
195, 2, bw, attraction, a-b-db, 14, 3, 7, 1, 195, 120, 111, 181, 120, 195, 2, 0.582297
195, 2, bw, filler, NA, 999, 999, 7, 2, 148, 75, 190, 119, 191, 139, 3, 0.980832
195, 2, bw, filler, NA, 999, 999, 7, 2, 148, 75, 190, 119, 191, 139, 1, 0.364341
195, 2, bw, attraction, a-b-db, 2, 1, 7, 3, 135, 60, 60, 135, 59, 134, 2, 3.53156
195, 2, bw, attraction, a-b-db, 2, 1, 7, 3, 135, 60, 60, 135, 59, 134, 3, 0.308361
195, 2, bw, filler, NA, 999, 999, 7, 4, 119, 190, 142, 139, 60, 97, 1, 1.43758
195, 2, bw, filler, NA, 999, 999, 7, 4, 119, 190, 142, 139, 60, 97, 3, 0.930497
195, 2, bw, filler, NA, 999, 999, 7, 5, 79, 105, 88, 152, 143, 186, 3, 1.05064
195, 2, bw, filler, NA, 999, 999, 7, 5, 79, 105, 88, 152, 143, 186, 1, 0.359739
195, 2, bw, attraction, a-b-db, 9, 3, 7, 6, 195, 120, 120, 195, 114, 186, 2, 3.19077
195, 2, bw, attraction, a-b-db, 9, 3, 7, 6, 195, 120, 120, 195, 114, 186, 3, 1.50927
195, 2, bw, attraction, a-b-da, 14, 2, 7, 7, 90, 165, 153, 83, 165, 90, 1, 1.71801
195, 2, bw, attraction, a-b-da, 14, 2, 7, 7, 90, 165, 153, 83, 165, 90, 2, 0.264055
195, 2, bw, filler, NA, 999, 999, 7, 8, 67, 120, 103, 167, 116, 179, 3, 0.835216
195, 2, bw, filler, NA, 999, 999, 7, 8, 67, 120, 103, 167, 116, 179, 1, 0.416976
195, 2, bw, catch, NA, 999, 999, 7, 9, 132, 123, 97, 98, 143, 172, 3, 0.822134
195, 2, bw, catch, NA, 999, 999, 7, 9, 132, 123, 97, 98, 143, 172, 2, 0.435868
195, 2, bw, catch, NA, 999, 999, 7, 10, 96, 159, 135, 180, 61, 134, 2, 0.968499
195, 2, bw, catch, NA, 999, 999, 7, 10, 96, 159, 135, 180, 61, 134, 3, 0.448776
195, 2, bw, attraction, a-b-db, 5, 1, 7, 11, 135, 60, 60, 135, 58, 132, 1, 1.68458
195, 2, bw, attraction, a-b-db, 5, 1, 7, 11, 135, 60, 60, 135, 58, 132, 3, 0.295878
195, 2, bw, attraction, a-b-db, 5, 3, 7, 12, 117, 190, 120, 195, 195, 120, 3, 2.42584
195, 2, bw, attraction, a-b-db, 5, 3, 7, 12, 117, 190, 120, 195, 195, 120, 1, 0.750993
195, 2, bw, attraction, a-b-db, 14, 2, 7, 13, 83, 153, 165, 90, 90, 165, 3, 2.96673
195, 2, bw, attraction, a-b-db, 14, 2, 7, 13, 83, 153, 165, 90, 90, 165, 1, 0.326332
195, 2, bw, attraction, a-b-db, 9, 1, 7, 14, 60, 135, 135, 60, 57, 129, 1, 1.07897
195, 2, bw, attraction, a-b-db, 9, 1, 7, 14, 60, 135, 135, 60, 57, 129, 3, 0.570685
195, 2, bw, filler, NA, 999, 999, 7, 15, 174, 65, 165, 163, 73, 94, 2, 1.80176
195, 2, bw, filler, NA, 999, 999, 7, 15, 174, 65, 165, 163, 73, 94, 3, 0.520451
195, 2, bw, attraction, a-b-db, 9, 2, 7, 16, 90, 165, 165, 90, 86, 157, 2, 1.89747
195, 2, bw, attraction, a-b-db, 9, 2, 7, 16, 90, 165, 165, 90, 86, 157, 3, 0.356186
195, 2, bw, attraction, a-b-da, 9, 2, 7, 17, 165, 90, 157, 86, 90, 165, 1, 2.34737
195, 2, bw, attraction, a-b-da, 9, 2, 7, 17, 165, 90, 157, 86, 90, 165, 2, 0.419922
195, 2, bw, attraction, a-b-db, 5, 2, 7, 18, 90, 165, 165, 90, 88, 161, 1, 1.92907
195, 2, bw, attraction, a-b-db, 5, 2, 7, 18, 90, 165, 165, 90, 88, 161, 3, 0.306394
195, 2, bw, attraction, a-b-db, 2, 2, 7, 19, 90, 165, 165, 90, 89, 163, 1, 4.57967
195, 2, bw, attraction, a-b-db, 2, 2, 7, 19, 90, 165, 165, 90, 89, 163, 2, 0.258235
195, 2, bw, filler, NA, 999, 999, 7, 20, 187, 143, 160, 90, 66, 119, 1, 0.789375
195, 2, bw, filler, NA, 999, 999, 7, 20, 187, 143, 160, 90, 66, 119, 3, 0.284493
195, 2, bw, catch, NA, 999, 999, 7, 21, 151, 164, 143, 112, 78, 117, 1, 0.886883
195, 2, bw, catch, NA, 999, 999, 7, 21, 151, 164, 143, 112, 78, 117, 3, 0.306664
195, 2, bw, attraction, a-b-da, 5, 1, 7, 22, 135, 60, 132, 58, 60, 135, 3, 2.00375
195, 2, bw, attraction, a-b-da, 5, 1, 7, 22, 135, 60, 132, 58, 60, 135, 2, 0.266457
195, 2, bw, attraction, a-b-da, 14, 3, 7, 23, 120, 195, 195, 120, 181, 111, 1, 1.50173
195, 2, bw, attraction, a-b-da, 14, 3, 7, 23, 120, 195, 195, 120, 181, 111, 3, 0.336545
195, 2, bw, attraction, a-b-da, 5, 2, 7, 24, 165, 90, 90, 165, 161, 88, 2, 1.37704
195, 2, bw, attraction, a-b-da, 5, 2, 7, 24, 165, 90, 90, 165, 161, 88, 3, 0.400729
195, 2, bw, filler, NA, 999, 999, 7, 25, 119, 189, 62, 176, 104, 159, 1, 0.638335
195, 2, bw, filler, NA, 999, 999, 7, 25, 119, 189, 62, 176, 104, 159, 2, 0.195469
195, 2, bw, filler, NA, 999, 999, 7, 26, 163, 145, 135, 99, 102, 72, 1, 0.569302
195, 2, bw, filler, NA, 999, 999, 7, 26, 163, 145, 135, 99, 102, 72, 3, 0.265792
195, 2, bw, attraction, a-b-da, 9, 1, 7, 27, 60, 135, 129, 57, 135, 60, 1, 1.02104
195, 2, bw, attraction, a-b-da, 9, 1, 7, 27, 60, 135, 129, 57, 135, 60, 2, 0.26664
195, 2, bw, attraction, a-b-da, 5, 3, 7, 28, 120, 195, 195, 120, 190, 117, 1, 1.63003
195, 2, bw, attraction, a-b-da, 5, 3, 7, 28, 120, 195, 195, 120, 190, 117, 3, 0.259412
195, 2, bw, filler, NA, 999, 999, 7, 29, 186, 75, 153, 171, 141, 146, 2, 1.61456
195, 2, bw, filler, NA, 999, 999, 7, 29, 186, 75, 153, 171, 141, 146, 1, 0.380682
195, 2, bw, attraction, a-b-db, 14, 1, 7, 30, 135, 60, 60, 135, 56, 125, 2, 2.00316
195, 2, bw, attraction, a-b-db, 14, 1, 7, 30, 135, 60, 60, 135, 56, 125, 3, 0.433955
195, 2, bw, attraction, a-b-da, 2, 1, 7, 31, 60, 135, 135, 60, 134, 59, 1, 1.46237
195, 2, bw, attraction, a-b-da, 2, 1, 7, 31, 60, 135, 135, 60, 134, 59, 2, 0.418565
195, 2, bw, filler, NA, 999, 999, 7, 32, 115, 182, 104, 94, 57, 121, 1, 0.559728
195, 2, bw, filler, NA, 999, 999, 7, 32, 115, 182, 104, 94, 57, 121, 3, 1.12811
195, 2, bw, attraction, a-b-da, 2, 2, 7, 33, 165, 90, 90, 165, 163, 89, 2, 1.80838
195, 2, bw, attraction, a-b-da, 2, 2, 7, 33, 165, 90, 90, 165, 163, 89, 3, 0.422476
195, 2, bw, attraction, a-b-da, 2, 3, 7, 34, 195, 120, 120, 195, 193, 119, 2, 1.0836
195, 2, bw, attraction, a-b-da, 2, 3, 7, 34, 195, 120, 120, 195, 193, 119, 1, 0.279193
195, 2, bw, attraction, a-b-da, 9, 3, 7, 35, 195, 120, 186, 114, 120, 195, 3, 1.13783
195, 2, bw, attraction, a-b-da, 9, 3, 7, 35, 195, 120, 186, 114, 120, 195, 2, 0.27474
195, 2, bw, attraction, a-b-da, 14, 1, 7, 36, 135, 60, 60, 135, 125, 56, 2, 2.92529
195, 2, bw, attraction, a-b-da, 14, 1, 7, 36, 135, 60, 60, 135, 125, 56, 3, 0.294299
195, 2, bw, attraction, a-b-db, 2, 3, 7, 37, 120, 195, 195, 120, 119, 193, 2, 1.46413
195, 2, bw, attraction, a-b-db, 2, 3, 7, 37, 120, 195, 195, 120, 119, 193, 3, 0.276265
195, 2, bw, attraction, a-b-db, 14, 2, 8, 1, 83, 153, 90, 165, 165, 90, 2, 1.0949
195, 2, bw, attraction, a-b-db, 14, 2, 8, 1, 83, 153, 90, 165, 165, 90, 1, 0.29788
195, 2, bw, attraction, a-b-db, 5, 3, 8, 2, 117, 190, 195, 120, 120, 195, 2, 2.11566
195, 2, bw, attraction, a-b-db, 5, 3, 8, 2, 117, 190, 195, 120, 120, 195, 1, 0.381648
195, 2, bw, attraction, a-b-db, 2, 1, 8, 3, 59, 134, 60, 135, 135, 60, 3, 3.00417
195, 2, bw, attraction, a-b-db, 2, 1, 8, 3, 59, 134, 60, 135, 135, 60, 2, 0.321769
195, 2, bw, attraction, a-b-da, 5, 2, 8, 4, 90, 165, 165, 90, 161, 88, 3, 1.57094
195, 2, bw, attraction, a-b-da, 5, 2, 8, 4, 90, 165, 165, 90, 161, 88, 1, 0.32245
195, 2, bw, catch, NA, 999, 999, 8, 5, 69, 126, 151, 164, 151, 104, 2, 0.683693
195, 2, bw, catch, NA, 999, 999, 8, 5, 69, 126, 151, 164, 151, 104, 1, 0.343372
195, 2, bw, attraction, a-b-db, 14, 1, 8, 6, 60, 135, 135, 60, 56, 125, 1, 1.58323
195, 2, bw, attraction, a-b-db, 14, 1, 8, 6, 60, 135, 135, 60, 56, 125, 3, 0.326748
195, 2, bw, filler, NA, 999, 999, 8, 7, 73, 128, 97, 86, 62, 138, 1, 1.41516
195, 2, bw, filler, NA, 999, 999, 8, 7, 73, 128, 97, 86, 62, 138, 2, 0.381502
195, 2, bw, attraction, a-b-da, 9, 3, 8, 8, 120, 195, 195, 120, 186, 114, 1, 1.71585
195, 2, bw, attraction, a-b-da, 9, 3, 8, 8, 120, 195, 195, 120, 186, 114, 3, 0.301955
195, 2, bw, attraction, a-b-da, 14, 3, 8, 9, 195, 120, 181, 111, 120, 195, 3, 1.5039
195, 2, bw, attraction, a-b-da, 14, 3, 8, 9, 195, 120, 181, 111, 120, 195, 2, 0.281981
195, 2, bw, attraction, a-b-da, 14, 2, 8, 10, 90, 165, 165, 90, 153, 83, 1, 1.44476
195, 2, bw, attraction, a-b-da, 14, 2, 8, 10, 90, 165, 165, 90, 153, 83, 3, 0.633392
195, 2, bw, filler, NA, 999, 999, 8, 11, 150, 152, 176, 116, 164, 62, 1, 0.829911
195, 2, bw, filler, NA, 999, 999, 8, 11, 150, 152, 176, 116, 164, 62, 3, 0.363491
195, 2, bw, attraction, a-b-da, 14, 1, 8, 12, 125, 56, 60, 135, 135, 60, 3, 1.90667
195, 2, bw, attraction, a-b-da, 14, 1, 8, 12, 125, 56, 60, 135, 135, 60, 2, 0.924859
195, 2, bw, filler, NA, 999, 999, 8, 13, 60, 76, 105, 190, 113, 193, 3, 1.66109
195, 2, bw, filler, NA, 999, 999, 8, 13, 60, 76, 105, 190, 113, 193, 1, 0.529264
195, 2, bw, attraction, a-b-db, 9, 3, 8, 14, 120, 195, 195, 120, 114, 186, 1, 3.01756
195, 2, bw, attraction, a-b-db, 9, 3, 8, 14, 120, 195, 195, 120, 114, 186, 3, 0.255303
195, 2, bw, filler, NA, 999, 999, 8, 15, 104, 187, 59, 97, 174, 98, 1, 0.851156
195, 2, bw, filler, NA, 999, 999, 8, 15, 104, 187, 59, 97, 174, 98, 2, 0.240196
195, 2, bw, filler, NA, 999, 999, 8, 16, 167, 183, 111, 184, 188, 158, 1, 0.980024
195, 2, bw, filler, NA, 999, 999, 8, 16, 167, 183, 111, 184, 188, 158, 2, 0.283706
195, 2, bw, attraction, a-b-da, 2, 3, 8, 17, 120, 195, 193, 119, 195, 120, 3, 1.75027
195, 2, bw, attraction, a-b-da, 2, 3, 8, 17, 120, 195, 193, 119, 195, 120, 2, 0.287005
195, 2, bw, catch, NA, 999, 999, 8, 18, 119, 136, 70, 125, 155, 160, 3, 0.753547
195, 2, bw, catch, NA, 999, 999, 8, 18, 119, 136, 70, 125, 155, 160, 2, 0.273961
195, 2, bw, attraction, a-b-db, 2, 3, 8, 19, 119, 193, 120, 195, 195, 120, 3, 2.46043
195, 2, bw, attraction, a-b-db, 2, 3, 8, 19, 119, 193, 120, 195, 195, 120, 1, 0.240352
195, 2, bw, attraction, a-b-da, 5, 3, 8, 20, 190, 117, 195, 120, 120, 195, 2, 3.09224
195, 2, bw, attraction, a-b-da, 5, 3, 8, 20, 190, 117, 195, 120, 120, 195, 1, 0.230554
195, 2, bw, catch, NA, 999, 999, 8, 21, 94, 161, 122, 193, 110, 85, 2, 0.587097
195, 2, bw, catch, NA, 999, 999, 8, 21, 94, 161, 122, 193, 110, 85, 3, 0.258209
195, 2, bw, filler, NA, 999, 999, 8, 22, 194, 126, 95, 126, 159, 133, 1, 1.03751
195, 2, bw, filler, NA, 999, 999, 8, 22, 194, 126, 95, 126, 159, 133, 2, 0.506437
195, 2, bw, attraction, a-b-db, 5, 1, 8, 23, 58, 132, 135, 60, 60, 135, 3, 2.08341
195, 2, bw, attraction, a-b-db, 5, 1, 8, 23, 58, 132, 135, 60, 60, 135, 2, 0.214756
195, 2, bw, attraction, a-b-db, 2, 2, 8, 24, 89, 163, 165, 90, 90, 165, 3, 1.63594
195, 2, bw, attraction, a-b-db, 2, 2, 8, 24, 89, 163, 165, 90, 90, 165, 2, 0.29755
195, 2, bw, attraction, a-b-da, 5, 1, 8, 25, 135, 60, 132, 58, 60, 135, 1, 1.1474
195, 2, bw, attraction, a-b-da, 5, 1, 8, 25, 135, 60, 132, 58, 60, 135, 2, 0.396241
195, 2, bw, filler, NA, 999, 999, 8, 26, 175, 76, 168, 67, 187, 130, 3, 0.706097
195, 2, bw, filler, NA, 999, 999, 8, 26, 175, 76, 168, 67, 187, 130, 2, 0.372619
195, 2, bw, filler, NA, 999, 999, 8, 27, 103, 58, 142, 128, 156, 145, 3, 2.83498
195, 2, bw, filler, NA, 999, 999, 8, 27, 103, 58, 142, 128, 156, 145, 1, 0.280025
195, 2, bw, attraction, a-b-db, 9, 2, 8, 28, 86, 157, 90, 165, 165, 90, 2, 1.73869
195, 2, bw, attraction, a-b-db, 9, 2, 8, 28, 86, 157, 90, 165, 165, 90, 1, 0.243327
195, 2, bw, attraction, a-b-db, 5, 2, 8, 29, 90, 165, 165, 90, 88, 161, 1, 3.41518
195, 2, bw, attraction, a-b-db, 5, 2, 8, 29, 90, 165, 165, 90, 88, 161, 2, 0.212804
195, 2, bw, attraction, a-b-db, 9, 1, 8, 30, 135, 60, 57, 129, 60, 135, 1, 4.76213
195, 2, bw, attraction, a-b-db, 9, 1, 8, 30, 135, 60, 57, 129, 60, 135, 3, 0.577194
195, 2, bw, attraction, a-b-db, 14, 3, 8, 31, 111, 181, 120, 195, 195, 120, 2, 1.47956
195, 2, bw, attraction, a-b-db, 14, 3, 8, 31, 111, 181, 120, 195, 195, 120, 1, 0.235069
195, 2, bw, attraction, a-b-da, 9, 1, 8, 32, 135, 60, 60, 135, 129, 57, 1, 1.79164
195, 2, bw, attraction, a-b-da, 9, 1, 8, 32, 135, 60, 60, 135, 129, 57, 2, 0.822421
195, 2, bw, attraction, a-b-da, 2, 1, 8, 33, 135, 60, 60, 135, 134, 59, 1, 3.59538
195, 2, bw, attraction, a-b-da, 2, 1, 8, 33, 135, 60, 60, 135, 134, 59, 2, 0.28953
195, 2, bw, attraction, a-b-da, 9, 2, 8, 34, 165, 90, 90, 165, 157, 86, 2, 4.41145
195, 2, bw, attraction, a-b-da, 9, 2, 8, 34, 165, 90, 90, 165, 157, 86, 3, 0.384706
195, 2, bw, filler, NA, 999, 999, 8, 35, 121, 80, 165, 149, 68, 91, 2, 0.695159
195, 2, bw, filler, NA, 999, 999, 8, 35, 121, 80, 165, 149, 68, 91, 3, 0.450291
195, 2, bw, filler, NA, 999, 999, 8, 36, 92, 65, 183, 75, 175, 163, 3, 0.598138
195, 2, bw, filler, NA, 999, 999, 8, 36, 92, 65, 183, 75, 175, 163, 1, 0.365406
195, 2, bw, attraction, a-b-da, 2, 2, 8, 37, 165, 90, 90, 165, 163, 89, 1, 5.3483
195, 2, bw, attraction, a-b-da, 2, 2, 8, 37, 165, 90, 90, 165, 163, 89, 2, 0.180044
