sub_n, computer_n, bw_cond, effect, set, distance, diag, block_n, trial_n, h1, w1, h2, w2, h3, w3, choice, rt 
284, 2, wb, practice, NA, 999, 999, 0, 1, 183, 74, 191, 126, 131, 92, 3, 3.34152
284, 2, wb, practice, NA, 999, 999, 0, 1, 183, 74, 191, 126, 131, 92, 2, 4.63204
284, 2, wb, practice, NA, 999, 999, 0, 2, 185, 58, 129, 135, 165, 116, 1, 3.25441
284, 2, wb, practice, NA, 999, 999, 0, 2, 185, 58, 129, 135, 165, 116, 2, 6.35521
284, 2, wb, practice, NA, 999, 999, 0, 3, 101, 128, 79, 61, 159, 192, 2, 2.10302
284, 2, wb, practice, NA, 999, 999, 0, 3, 101, 128, 79, 61, 159, 192, 3, 1.46574
284, 2, wb, filler, NA, 999, 999, 1, 1, 153, 56, 150, 82, 156, 87, 1, 2.51073
284, 2, wb, filler, NA, 999, 999, 1, 1, 153, 56, 150, 82, 156, 87, 3, 1.40864
284, 2, wb, filler, NA, 999, 999, 1, 2, 77, 99, 98, 91, 76, 64, 3, 1.20543
284, 2, wb, filler, NA, 999, 999, 1, 2, 77, 99, 98, 91, 76, 64, 2, 0.931733
284, 2, wb, attraction, a-b-db, 14, 3, 1, 3, 120, 195, 195, 120, 111, 181, 3, 2.66004
284, 2, wb, attraction, a-b-db, 14, 3, 1, 3, 120, 195, 195, 120, 111, 181, 1, 2.41576
284, 2, wb, filler, NA, 999, 999, 1, 4, 172, 127, 154, 154, 148, 145, 3, 2.84442
284, 2, wb, filler, NA, 999, 999, 1, 4, 172, 127, 154, 154, 148, 145, 2, 3.02479
284, 2, wb, attraction, a-b-da, 5, 3, 1, 5, 190, 117, 195, 120, 120, 195, 1, 1.94847
284, 2, wb, attraction, a-b-da, 5, 3, 1, 5, 190, 117, 195, 120, 120, 195, 3, 2.13313
284, 2, wb, filler, NA, 999, 999, 1, 6, 58, 100, 113, 186, 131, 102, 1, 1.3411
284, 2, wb, filler, NA, 999, 999, 1, 6, 58, 100, 113, 186, 131, 102, 2, 1.12598
284, 2, wb, filler, NA, 999, 999, 1, 7, 139, 109, 165, 106, 191, 187, 1, 2.03013
284, 2, wb, filler, NA, 999, 999, 1, 7, 139, 109, 165, 106, 191, 187, 3, 0.763523
284, 2, wb, attraction, a-b-da, 2, 2, 1, 8, 163, 89, 165, 90, 90, 165, 2, 3.10671
284, 2, wb, attraction, a-b-da, 2, 2, 1, 8, 163, 89, 165, 90, 90, 165, 3, 1.65239
284, 2, wb, attraction, a-b-da, 9, 3, 1, 9, 195, 120, 186, 114, 120, 195, 2, 2.31166
284, 2, wb, attraction, a-b-da, 9, 3, 1, 9, 195, 120, 186, 114, 120, 195, 3, 1.04955
284, 2, wb, attraction, a-b-da, 14, 3, 1, 10, 120, 195, 195, 120, 181, 111, 3, 3.4452
284, 2, wb, attraction, a-b-da, 14, 3, 1, 10, 120, 195, 195, 120, 181, 111, 1, 0.905438
284, 2, wb, attraction, a-b-db, 5, 1, 1, 11, 135, 60, 60, 135, 58, 132, 1, 2.77107
284, 2, wb, attraction, a-b-db, 5, 1, 1, 11, 135, 60, 60, 135, 58, 132, 2, 0.994232
284, 2, wb, catch, NA, 999, 999, 1, 12, 191, 124, 81, 114, 93, 162, 2, 1.56783
284, 2, wb, catch, NA, 999, 999, 1, 12, 191, 124, 81, 114, 93, 162, 1, 1.61601
284, 2, wb, attraction, a-b-da, 2, 1, 1, 13, 135, 60, 134, 59, 60, 135, 2, 2.17275
284, 2, wb, attraction, a-b-da, 2, 1, 1, 13, 135, 60, 134, 59, 60, 135, 3, 1.62011
284, 2, wb, attraction, a-b-da, 5, 2, 1, 14, 161, 88, 90, 165, 165, 90, 1, 4.93673
284, 2, wb, attraction, a-b-da, 5, 2, 1, 14, 161, 88, 90, 165, 165, 90, 2, 0.969374
284, 2, wb, attraction, a-b-da, 2, 3, 1, 15, 120, 195, 193, 119, 195, 120, 2, 5.86428
284, 2, wb, attraction, a-b-da, 2, 3, 1, 15, 120, 195, 193, 119, 195, 120, 1, 0.978989
284, 2, wb, attraction, a-b-db, 9, 1, 1, 16, 60, 135, 57, 129, 135, 60, 3, 3.76131
284, 2, wb, attraction, a-b-db, 9, 1, 1, 16, 60, 135, 57, 129, 135, 60, 1, 0.880796
284, 2, wb, catch, NA, 999, 999, 1, 17, 64, 131, 157, 158, 102, 153, 1, 1.38717
284, 2, wb, catch, NA, 999, 999, 1, 17, 64, 131, 157, 158, 102, 153, 2, 0.753971
284, 2, wb, attraction, a-b-da, 14, 2, 1, 18, 90, 165, 153, 83, 165, 90, 2, 1.91371
284, 2, wb, attraction, a-b-da, 14, 2, 1, 18, 90, 165, 153, 83, 165, 90, 1, 2.51575
284, 2, wb, attraction, a-b-db, 14, 2, 1, 19, 90, 165, 83, 153, 165, 90, 2, 1.59629
284, 2, wb, attraction, a-b-db, 14, 2, 1, 19, 90, 165, 83, 153, 165, 90, 1, 0.667014
284, 2, wb, attraction, a-b-db, 2, 3, 1, 20, 119, 193, 120, 195, 195, 120, 1, 6.55816
284, 2, wb, attraction, a-b-db, 2, 3, 1, 20, 119, 193, 120, 195, 195, 120, 3, 1.61275
284, 2, wb, attraction, a-b-da, 9, 1, 1, 21, 135, 60, 129, 57, 60, 135, 2, 4.88946
284, 2, wb, attraction, a-b-da, 9, 1, 1, 21, 135, 60, 129, 57, 60, 135, 1, 1.21136
284, 2, wb, filler, NA, 999, 999, 1, 22, 100, 101, 95, 129, 147, 79, 1, 9.80817
284, 2, wb, filler, NA, 999, 999, 1, 22, 100, 101, 95, 129, 147, 79, 2, 1.41164
284, 2, wb, catch, NA, 999, 999, 1, 23, 172, 143, 161, 94, 92, 103, 3, 2.16052
284, 2, wb, catch, NA, 999, 999, 1, 23, 172, 143, 161, 94, 92, 103, 1, 1.12043
284, 2, wb, attraction, a-b-db, 2, 1, 1, 24, 60, 135, 135, 60, 59, 134, 2, 4.64144
284, 2, wb, attraction, a-b-db, 2, 1, 1, 24, 60, 135, 135, 60, 59, 134, 1, 0.68528
284, 2, wb, filler, NA, 999, 999, 1, 25, 185, 125, 81, 114, 127, 184, 2, 1.88762
284, 2, wb, filler, NA, 999, 999, 1, 25, 185, 125, 81, 114, 127, 184, 3, 1.65034
284, 2, wb, attraction, a-b-db, 5, 3, 1, 26, 120, 195, 117, 190, 195, 120, 3, 3.89383
284, 2, wb, attraction, a-b-db, 5, 3, 1, 26, 120, 195, 117, 190, 195, 120, 1, 1.49594
284, 2, wb, attraction, a-b-db, 5, 2, 1, 27, 90, 165, 88, 161, 165, 90, 2, 3.8094
284, 2, wb, attraction, a-b-db, 5, 2, 1, 27, 90, 165, 88, 161, 165, 90, 3, 3.10279
284, 2, wb, filler, NA, 999, 999, 1, 28, 107, 126, 83, 66, 176, 100, 2, 1.15177
284, 2, wb, filler, NA, 999, 999, 1, 28, 107, 126, 83, 66, 176, 100, 3, 2.99281
284, 2, wb, attraction, a-b-db, 2, 2, 1, 29, 89, 163, 165, 90, 90, 165, 2, 2.25381
284, 2, wb, attraction, a-b-db, 2, 2, 1, 29, 89, 163, 165, 90, 90, 165, 3, 1.60971
284, 2, wb, attraction, a-b-db, 14, 1, 1, 30, 60, 135, 56, 125, 135, 60, 2, 1.18237
284, 2, wb, attraction, a-b-db, 14, 1, 1, 30, 60, 135, 56, 125, 135, 60, 1, 1.40622
284, 2, wb, attraction, a-b-db, 9, 3, 1, 31, 114, 186, 195, 120, 120, 195, 2, 5.67552
284, 2, wb, attraction, a-b-db, 9, 3, 1, 31, 114, 186, 195, 120, 120, 195, 1, 0.741742
284, 2, wb, attraction, a-b-da, 9, 2, 1, 32, 90, 165, 157, 86, 165, 90, 2, 1.8454
284, 2, wb, attraction, a-b-da, 9, 2, 1, 32, 90, 165, 157, 86, 165, 90, 3, 0.826274
284, 2, wb, attraction, a-b-db, 9, 2, 1, 33, 90, 165, 86, 157, 165, 90, 2, 3.89469
284, 2, wb, attraction, a-b-db, 9, 2, 1, 33, 90, 165, 86, 157, 165, 90, 3, 0.736624
284, 2, wb, filler, NA, 999, 999, 1, 34, 135, 89, 80, 125, 165, 125, 2, 2.95302
284, 2, wb, filler, NA, 999, 999, 1, 34, 135, 89, 80, 125, 165, 125, 3, 1.76938
284, 2, wb, filler, NA, 999, 999, 1, 35, 60, 102, 144, 100, 163, 117, 1, 1.74437
284, 2, wb, filler, NA, 999, 999, 1, 35, 60, 102, 144, 100, 163, 117, 3, 1.26488
284, 2, wb, attraction, a-b-da, 14, 1, 1, 36, 60, 135, 125, 56, 135, 60, 2, 4.88377
284, 2, wb, attraction, a-b-da, 14, 1, 1, 36, 60, 135, 125, 56, 135, 60, 1, 1.2862
284, 2, wb, attraction, a-b-da, 5, 1, 1, 37, 60, 135, 132, 58, 135, 60, 2, 2.1204
284, 2, wb, attraction, a-b-da, 5, 1, 1, 37, 60, 135, 132, 58, 135, 60, 1, 0.89046
284, 2, wb, filler, NA, 999, 999, 2, 1, 89, 88, 72, 161, 135, 72, 1, 2.9081
284, 2, wb, filler, NA, 999, 999, 2, 1, 89, 88, 72, 161, 135, 72, 2, 0.805771
284, 2, wb, filler, NA, 999, 999, 2, 2, 90, 86, 147, 83, 84, 100, 1, 3.33151
284, 2, wb, filler, NA, 999, 999, 2, 2, 90, 86, 147, 83, 84, 100, 2, 1.51642
284, 2, wb, attraction, a-b-da, 2, 2, 2, 3, 163, 89, 165, 90, 90, 165, 1, 2.78922
284, 2, wb, attraction, a-b-da, 2, 2, 2, 3, 163, 89, 165, 90, 90, 165, 2, 0.771648
284, 2, wb, attraction, a-b-db, 5, 1, 2, 4, 60, 135, 58, 132, 135, 60, 3, 2.91473
284, 2, wb, attraction, a-b-db, 5, 1, 2, 4, 60, 135, 58, 132, 135, 60, 1, 1.8285
284, 2, wb, attraction, a-b-db, 14, 3, 2, 5, 195, 120, 111, 181, 120, 195, 2, 1.83256
284, 2, wb, attraction, a-b-db, 14, 3, 2, 5, 195, 120, 111, 181, 120, 195, 1, 1.70185
284, 2, wb, attraction, a-b-da, 9, 3, 2, 6, 120, 195, 195, 120, 186, 114, 3, 2.31927
284, 2, wb, attraction, a-b-da, 9, 3, 2, 6, 120, 195, 195, 120, 186, 114, 1, 0.89718
284, 2, wb, attraction, a-b-db, 5, 2, 2, 7, 88, 161, 165, 90, 90, 165, 1, 7.09079
284, 2, wb, attraction, a-b-db, 5, 2, 2, 7, 88, 161, 165, 90, 90, 165, 3, 1.52386
284, 2, wb, attraction, a-b-db, 9, 3, 2, 8, 120, 195, 114, 186, 195, 120, 2, 3.74811
284, 2, wb, attraction, a-b-db, 9, 3, 2, 8, 120, 195, 114, 186, 195, 120, 1, 0.700181
284, 2, wb, filler, NA, 999, 999, 2, 9, 132, 151, 191, 114, 120, 157, 3, 4.93392
284, 2, wb, filler, NA, 999, 999, 2, 9, 132, 151, 191, 114, 120, 157, 2, 1.67834
284, 2, wb, attraction, a-b-db, 5, 3, 2, 10, 120, 195, 195, 120, 117, 190, 1, 7.00841
284, 2, wb, attraction, a-b-db, 5, 3, 2, 10, 120, 195, 195, 120, 117, 190, 2, 0.924851
284, 2, wb, attraction, a-b-db, 2, 2, 2, 11, 89, 163, 165, 90, 90, 165, 1, 1.51725
284, 2, wb, attraction, a-b-db, 2, 2, 2, 11, 89, 163, 165, 90, 90, 165, 2, 0.671414
284, 2, wb, attraction, a-b-da, 9, 2, 2, 12, 157, 86, 90, 165, 165, 90, 1, 1.22656
284, 2, wb, attraction, a-b-da, 9, 2, 2, 12, 157, 86, 90, 165, 165, 90, 3, 1.12017
284, 2, wb, attraction, a-b-db, 14, 2, 2, 13, 90, 165, 165, 90, 83, 153, 3, 2.08106
284, 2, wb, attraction, a-b-db, 14, 2, 2, 13, 90, 165, 165, 90, 83, 153, 1, 0.780248
284, 2, wb, attraction, a-b-da, 5, 1, 2, 14, 132, 58, 135, 60, 60, 135, 1, 4.25884
284, 2, wb, attraction, a-b-da, 5, 1, 2, 14, 132, 58, 135, 60, 60, 135, 3, 2.1659
284, 2, wb, catch, NA, 999, 999, 2, 15, 119, 136, 125, 70, 163, 152, 2, 1.58054
284, 2, wb, catch, NA, 999, 999, 2, 15, 119, 136, 125, 70, 163, 152, 3, 0.772059
284, 2, wb, filler, NA, 999, 999, 2, 16, 140, 160, 110, 105, 155, 76, 3, 5.14728
284, 2, wb, filler, NA, 999, 999, 2, 16, 140, 160, 110, 105, 155, 76, 1, 0.514743
284, 2, wb, filler, NA, 999, 999, 2, 17, 78, 129, 89, 166, 96, 61, 3, 2.34807
284, 2, wb, filler, NA, 999, 999, 2, 17, 78, 129, 89, 166, 96, 61, 2, 0.788509
284, 2, wb, attraction, a-b-da, 2, 3, 2, 18, 193, 119, 195, 120, 120, 195, 1, 3.80282
284, 2, wb, attraction, a-b-da, 2, 3, 2, 18, 193, 119, 195, 120, 120, 195, 3, 1.24893
284, 2, wb, attraction, a-b-db, 2, 1, 2, 19, 60, 135, 59, 134, 135, 60, 3, 2.00443
284, 2, wb, attraction, a-b-db, 2, 1, 2, 19, 60, 135, 59, 134, 135, 60, 1, 0.882594
284, 2, wb, filler, NA, 999, 999, 2, 20, 183, 155, 128, 166, 189, 83, 3, 1.18883
284, 2, wb, filler, NA, 999, 999, 2, 20, 183, 155, 128, 166, 189, 83, 1, 0.579807
284, 2, wb, filler, NA, 999, 999, 2, 21, 169, 109, 88, 154, 162, 192, 2, 1.93029
284, 2, wb, filler, NA, 999, 999, 2, 21, 169, 109, 88, 154, 162, 192, 3, 0.427663
284, 2, wb, filler, NA, 999, 999, 2, 22, 116, 118, 95, 159, 57, 85, 3, 0.919978
284, 2, wb, filler, NA, 999, 999, 2, 22, 116, 118, 95, 159, 57, 85, 2, 1.17046
284, 2, wb, attraction, a-b-da, 5, 2, 2, 23, 161, 88, 90, 165, 165, 90, 1, 2.94529
284, 2, wb, attraction, a-b-da, 5, 2, 2, 23, 161, 88, 90, 165, 165, 90, 2, 0.633698
284, 2, wb, attraction, a-b-da, 14, 1, 2, 24, 135, 60, 125, 56, 60, 135, 2, 6.79008
284, 2, wb, attraction, a-b-da, 14, 1, 2, 24, 135, 60, 125, 56, 60, 135, 3, 1.20337
284, 2, wb, catch, NA, 999, 999, 2, 25, 136, 119, 131, 64, 183, 132, 2, 1.2008
284, 2, wb, catch, NA, 999, 999, 2, 25, 136, 119, 131, 64, 183, 132, 3, 0.631879
284, 2, wb, attraction, a-b-db, 9, 1, 2, 26, 60, 135, 135, 60, 57, 129, 2, 3.11623
284, 2, wb, attraction, a-b-db, 9, 1, 2, 26, 60, 135, 135, 60, 57, 129, 1, 1.26987
284, 2, wb, attraction, a-b-da, 14, 2, 2, 27, 90, 165, 165, 90, 153, 83, 3, 2.16072
284, 2, wb, attraction, a-b-da, 14, 2, 2, 27, 90, 165, 165, 90, 153, 83, 1, 0.928721
284, 2, wb, catch, NA, 999, 999, 2, 28, 124, 191, 109, 86, 161, 94, 2, 1.01709
284, 2, wb, catch, NA, 999, 999, 2, 28, 124, 191, 109, 86, 161, 94, 1, 0.85536
284, 2, wb, attraction, a-b-db, 14, 1, 2, 29, 60, 135, 56, 125, 135, 60, 3, 2.24302
284, 2, wb, attraction, a-b-db, 14, 1, 2, 29, 60, 135, 56, 125, 135, 60, 1, 1.71161
284, 2, wb, attraction, a-b-da, 14, 3, 2, 30, 195, 120, 181, 111, 120, 195, 2, 2.14431
284, 2, wb, attraction, a-b-da, 14, 3, 2, 30, 195, 120, 181, 111, 120, 195, 3, 1.841
284, 2, wb, attraction, a-b-db, 2, 3, 2, 31, 120, 195, 119, 193, 195, 120, 3, 5.05231
284, 2, wb, attraction, a-b-db, 2, 3, 2, 31, 120, 195, 119, 193, 195, 120, 1, 0.760179
284, 2, wb, attraction, a-b-db, 9, 2, 2, 32, 86, 157, 165, 90, 90, 165, 1, 1.6711
284, 2, wb, attraction, a-b-db, 9, 2, 2, 32, 86, 157, 165, 90, 90, 165, 2, 0.938535
284, 2, wb, attraction, a-b-da, 9, 1, 2, 33, 129, 57, 135, 60, 60, 135, 1, 4.86691
284, 2, wb, attraction, a-b-da, 9, 1, 2, 33, 129, 57, 135, 60, 60, 135, 3, 0.638132
284, 2, wb, attraction, a-b-da, 5, 3, 2, 34, 190, 117, 120, 195, 195, 120, 3, 3.85035
284, 2, wb, attraction, a-b-da, 5, 3, 2, 34, 190, 117, 120, 195, 195, 120, 2, 2.29468
284, 2, wb, filler, NA, 999, 999, 2, 35, 85, 62, 189, 174, 76, 160, 1, 1.28779
284, 2, wb, filler, NA, 999, 999, 2, 35, 85, 62, 189, 174, 76, 160, 2, 0.546694
284, 2, wb, filler, NA, 999, 999, 2, 36, 67, 67, 62, 87, 85, 178, 1, 1.50635
284, 2, wb, filler, NA, 999, 999, 2, 36, 67, 67, 62, 87, 85, 178, 3, 0.620581
284, 2, wb, attraction, a-b-da, 2, 1, 2, 37, 135, 60, 60, 135, 134, 59, 3, 8.41764
284, 2, wb, attraction, a-b-da, 2, 1, 2, 37, 135, 60, 60, 135, 134, 59, 2, 0.797704
284, 2, wb, attraction, a-b-db, 2, 3, 3, 1, 120, 195, 119, 193, 195, 120, 3, 2.29138
284, 2, wb, attraction, a-b-db, 2, 3, 3, 1, 120, 195, 119, 193, 195, 120, 1, 1.44594
284, 2, wb, attraction, a-b-da, 2, 2, 3, 2, 90, 165, 163, 89, 165, 90, 3, 3.61746
284, 2, wb, attraction, a-b-da, 2, 2, 3, 2, 90, 165, 163, 89, 165, 90, 1, 0.990983
284, 2, wb, filler, NA, 999, 999, 3, 3, 120, 113, 145, 69, 60, 58, 3, 0.948544
284, 2, wb, filler, NA, 999, 999, 3, 3, 120, 113, 145, 69, 60, 58, 1, 0.629621
284, 2, wb, catch, NA, 999, 999, 3, 4, 120, 75, 149, 166, 158, 97, 1, 3.01802
284, 2, wb, catch, NA, 999, 999, 3, 4, 120, 75, 149, 166, 158, 97, 2, 0.599657
284, 2, wb, attraction, a-b-da, 5, 3, 3, 5, 195, 120, 120, 195, 190, 117, 3, 3.61342
284, 2, wb, attraction, a-b-da, 5, 3, 3, 5, 195, 120, 120, 195, 190, 117, 2, 0.667014
284, 2, wb, attraction, a-b-da, 5, 2, 3, 6, 90, 165, 161, 88, 165, 90, 3, 1.38217
284, 2, wb, attraction, a-b-da, 5, 2, 3, 6, 90, 165, 161, 88, 165, 90, 1, 0.685548
284, 2, wb, attraction, a-b-da, 5, 1, 3, 7, 135, 60, 60, 135, 132, 58, 1, 2.43198
284, 2, wb, attraction, a-b-da, 5, 1, 3, 7, 135, 60, 60, 135, 132, 58, 2, 1.08521
284, 2, wb, filler, NA, 999, 999, 3, 8, 105, 120, 101, 70, 190, 140, 2, 2.47943
284, 2, wb, filler, NA, 999, 999, 3, 8, 105, 120, 101, 70, 190, 140, 3, 0.562652
284, 2, wb, attraction, a-b-db, 9, 1, 3, 9, 60, 135, 57, 129, 135, 60, 2, 3.24194
284, 2, wb, attraction, a-b-db, 9, 1, 3, 9, 60, 135, 57, 129, 135, 60, 1, 0.854018
284, 2, wb, attraction, a-b-da, 9, 1, 3, 10, 60, 135, 135, 60, 129, 57, 1, 3.32974
284, 2, wb, attraction, a-b-da, 9, 1, 3, 10, 60, 135, 135, 60, 129, 57, 2, 0.90664
284, 2, wb, attraction, a-b-db, 5, 1, 3, 11, 58, 132, 60, 135, 135, 60, 3, 1.29963
284, 2, wb, attraction, a-b-db, 5, 1, 3, 11, 58, 132, 60, 135, 135, 60, 2, 1.24657
284, 2, wb, attraction, a-b-da, 14, 2, 3, 12, 90, 165, 165, 90, 153, 83, 3, 3.82613
284, 2, wb, attraction, a-b-da, 14, 2, 3, 12, 90, 165, 165, 90, 153, 83, 1, 0.478937
284, 2, wb, attraction, a-b-db, 14, 3, 3, 13, 195, 120, 111, 181, 120, 195, 1, 3.32932
284, 2, wb, attraction, a-b-db, 14, 3, 3, 13, 195, 120, 111, 181, 120, 195, 3, 0.522277
284, 2, wb, attraction, a-b-da, 2, 1, 3, 14, 135, 60, 60, 135, 134, 59, 2, 2.53938
284, 2, wb, attraction, a-b-da, 2, 1, 3, 14, 135, 60, 60, 135, 134, 59, 3, 1.8119
284, 2, wb, filler, NA, 999, 999, 3, 15, 162, 149, 131, 82, 107, 100, 2, 4.65661
284, 2, wb, filler, NA, 999, 999, 3, 15, 162, 149, 131, 82, 107, 100, 1, 0.52384
284, 2, wb, attraction, a-b-db, 5, 2, 3, 16, 90, 165, 88, 161, 165, 90, 2, 5.02027
284, 2, wb, attraction, a-b-db, 5, 2, 3, 16, 90, 165, 88, 161, 165, 90, 1, 2.2815
284, 2, wb, attraction, a-b-da, 9, 2, 3, 17, 157, 86, 165, 90, 90, 165, 1, 0.931275
284, 2, wb, attraction, a-b-da, 9, 2, 3, 17, 157, 86, 165, 90, 90, 165, 3, 0.525009
284, 2, wb, attraction, a-b-da, 9, 3, 3, 18, 186, 114, 120, 195, 195, 120, 2, 2.16533
284, 2, wb, attraction, a-b-da, 9, 3, 3, 18, 186, 114, 120, 195, 195, 120, 1, 4.9973
284, 2, wb, filler, NA, 999, 999, 3, 19, 77, 61, 101, 119, 156, 154, 1, 1.09759
284, 2, wb, filler, NA, 999, 999, 3, 19, 77, 61, 101, 119, 156, 154, 3, 0.740747
284, 2, wb, filler, NA, 999, 999, 3, 20, 188, 163, 138, 195, 68, 187, 3, 1.18031
284, 2, wb, filler, NA, 999, 999, 3, 20, 188, 163, 138, 195, 68, 187, 1, 0.675902
284, 2, wb, attraction, a-b-db, 5, 3, 3, 21, 195, 120, 120, 195, 117, 190, 1, 4.07038
284, 2, wb, attraction, a-b-db, 5, 3, 3, 21, 195, 120, 120, 195, 117, 190, 2, 0.809859
284, 2, wb, attraction, a-b-db, 2, 2, 3, 22, 90, 165, 89, 163, 165, 90, 1, 1.51067
284, 2, wb, attraction, a-b-db, 2, 2, 3, 22, 90, 165, 89, 163, 165, 90, 2, 0.712949
284, 2, wb, catch, NA, 999, 999, 3, 23, 129, 186, 93, 102, 155, 100, 2, 0.977968
284, 2, wb, catch, NA, 999, 999, 3, 23, 129, 186, 93, 102, 155, 100, 1, 0.489585
284, 2, wb, attraction, a-b-db, 9, 2, 3, 24, 86, 157, 165, 90, 90, 165, 1, 3.3394
284, 2, wb, attraction, a-b-db, 9, 2, 3, 24, 86, 157, 165, 90, 90, 165, 2, 0.67566
284, 2, wb, filler, NA, 999, 999, 3, 25, 156, 69, 65, 95, 128, 126, 2, 1.25406
284, 2, wb, filler, NA, 999, 999, 3, 25, 156, 69, 65, 95, 128, 126, 3, 0.730338
284, 2, wb, attraction, a-b-db, 14, 1, 3, 26, 60, 135, 56, 125, 135, 60, 3, 3.8987
284, 2, wb, attraction, a-b-db, 14, 1, 3, 26, 60, 135, 56, 125, 135, 60, 1, 0.644733
284, 2, wb, attraction, a-b-da, 14, 1, 3, 27, 135, 60, 125, 56, 60, 135, 2, 1.3925
284, 2, wb, attraction, a-b-da, 14, 1, 3, 27, 135, 60, 125, 56, 60, 135, 1, 0.727369
284, 2, wb, attraction, a-b-db, 9, 3, 3, 28, 120, 195, 114, 186, 195, 120, 2, 9.08784
284, 2, wb, attraction, a-b-db, 9, 3, 3, 28, 120, 195, 114, 186, 195, 120, 1, 1.30503
284, 2, wb, filler, NA, 999, 999, 3, 29, 159, 78, 165, 136, 94, 194, 1, 0.890422
284, 2, wb, filler, NA, 999, 999, 3, 29, 159, 78, 165, 136, 94, 194, 2, 0.549439
284, 2, wb, attraction, a-b-da, 2, 3, 3, 30, 120, 195, 195, 120, 193, 119, 1, 2.06123
284, 2, wb, attraction, a-b-da, 2, 3, 3, 30, 120, 195, 195, 120, 193, 119, 2, 0.553151
284, 2, wb, filler, NA, 999, 999, 3, 31, 152, 194, 179, 65, 165, 195, 2, 1.04097
284, 2, wb, filler, NA, 999, 999, 3, 31, 152, 194, 179, 65, 165, 195, 3, 1.17398
284, 2, wb, catch, NA, 999, 999, 3, 32, 76, 119, 195, 120, 96, 159, 1, 0.740292
284, 2, wb, catch, NA, 999, 999, 3, 32, 76, 119, 195, 120, 96, 159, 2, 0.509299
284, 2, wb, filler, NA, 999, 999, 3, 33, 125, 166, 89, 119, 187, 138, 2, 0.918493
284, 2, wb, filler, NA, 999, 999, 3, 33, 125, 166, 89, 119, 187, 138, 3, 0.720752
284, 2, wb, attraction, a-b-db, 14, 2, 3, 34, 83, 153, 165, 90, 90, 165, 1, 1.81784
284, 2, wb, attraction, a-b-db, 14, 2, 3, 34, 83, 153, 165, 90, 90, 165, 2, 0.471906
284, 2, wb, attraction, a-b-da, 14, 3, 3, 35, 181, 111, 195, 120, 120, 195, 1, 1.83498
284, 2, wb, attraction, a-b-da, 14, 3, 3, 35, 181, 111, 195, 120, 120, 195, 3, 0.936535
284, 2, wb, filler, NA, 999, 999, 3, 36, 87, 178, 129, 59, 140, 153, 2, 1.29674
284, 2, wb, filler, NA, 999, 999, 3, 36, 87, 178, 129, 59, 140, 153, 3, 1.95566
284, 2, wb, attraction, a-b-db, 2, 1, 3, 37, 59, 134, 135, 60, 60, 135, 1, 3.05112
284, 2, wb, attraction, a-b-db, 2, 1, 3, 37, 59, 134, 135, 60, 60, 135, 2, 0.815341
284, 2, wb, attraction, a-b-da, 9, 2, 4, 1, 157, 86, 165, 90, 90, 165, 1, 2.17231
284, 2, wb, attraction, a-b-da, 9, 2, 4, 1, 157, 86, 165, 90, 90, 165, 3, 0.779621
284, 2, wb, attraction, a-b-da, 5, 2, 4, 2, 161, 88, 90, 165, 165, 90, 3, 3.54598
284, 2, wb, attraction, a-b-da, 5, 2, 4, 2, 161, 88, 90, 165, 165, 90, 2, 0.570144
284, 2, wb, attraction, a-b-da, 14, 2, 4, 3, 90, 165, 165, 90, 153, 83, 3, 2.33727
284, 2, wb, attraction, a-b-da, 14, 2, 4, 3, 90, 165, 165, 90, 153, 83, 1, 0.569878
284, 2, wb, attraction, a-b-da, 2, 2, 4, 4, 165, 90, 90, 165, 163, 89, 1, 2.52893
284, 2, wb, attraction, a-b-da, 2, 2, 4, 4, 165, 90, 90, 165, 163, 89, 2, 0.418213
284, 2, wb, attraction, a-b-db, 2, 1, 4, 5, 60, 135, 135, 60, 59, 134, 2, 1.90333
284, 2, wb, attraction, a-b-db, 2, 1, 4, 5, 60, 135, 135, 60, 59, 134, 1, 0.673953
284, 2, wb, filler, NA, 999, 999, 4, 6, 193, 117, 168, 137, 121, 174, 1, 3.24437
284, 2, wb, filler, NA, 999, 999, 4, 6, 193, 117, 168, 137, 121, 174, 2, 0.792685
284, 2, wb, attraction, a-b-da, 5, 1, 4, 7, 60, 135, 132, 58, 135, 60, 3, 2.18236
284, 2, wb, attraction, a-b-da, 5, 1, 4, 7, 60, 135, 132, 58, 135, 60, 2, 0.725672
284, 2, wb, filler, NA, 999, 999, 4, 8, 164, 142, 172, 149, 123, 135, 3, 1.74201
284, 2, wb, filler, NA, 999, 999, 4, 8, 164, 142, 172, 149, 123, 135, 2, 0.526782
284, 2, wb, attraction, a-b-da, 2, 1, 4, 9, 135, 60, 60, 135, 134, 59, 1, 2.25524
284, 2, wb, attraction, a-b-da, 2, 1, 4, 9, 135, 60, 60, 135, 134, 59, 2, 0.563304
284, 2, wb, attraction, a-b-da, 14, 3, 4, 10, 120, 195, 181, 111, 195, 120, 2, 1.67431
284, 2, wb, attraction, a-b-da, 14, 3, 4, 10, 120, 195, 181, 111, 195, 120, 1, 0.853732
284, 2, wb, filler, NA, 999, 999, 4, 11, 81, 56, 63, 65, 114, 107, 2, 2.07336
284, 2, wb, filler, NA, 999, 999, 4, 11, 81, 56, 63, 65, 114, 107, 3, 0.492767
284, 2, wb, attraction, a-b-db, 2, 3, 4, 12, 120, 195, 195, 120, 119, 193, 1, 1.79859
284, 2, wb, attraction, a-b-db, 2, 3, 4, 12, 120, 195, 195, 120, 119, 193, 2, 0.437424
284, 2, wb, attraction, a-b-db, 14, 1, 4, 13, 60, 135, 135, 60, 56, 125, 3, 2.3938
284, 2, wb, attraction, a-b-db, 14, 1, 4, 13, 60, 135, 135, 60, 56, 125, 1, 0.440296
284, 2, wb, catch, NA, 999, 999, 4, 14, 129, 186, 95, 100, 144, 111, 2, 1.44406
284, 2, wb, catch, NA, 999, 999, 4, 14, 129, 186, 95, 100, 144, 111, 1, 0.728974
284, 2, wb, catch, NA, 999, 999, 4, 15, 147, 168, 60, 135, 121, 134, 2, 1.40933
284, 2, wb, catch, NA, 999, 999, 4, 15, 147, 168, 60, 135, 121, 134, 1, 1.6237
284, 2, wb, filler, NA, 999, 999, 4, 16, 187, 109, 144, 173, 91, 148, 3, 1.15564
284, 2, wb, filler, NA, 999, 999, 4, 16, 187, 109, 144, 173, 91, 148, 1, 0.923908
284, 2, wb, attraction, a-b-db, 9, 2, 4, 17, 90, 165, 86, 157, 165, 90, 1, 5.06026
284, 2, wb, attraction, a-b-db, 9, 2, 4, 17, 90, 165, 86, 157, 165, 90, 3, 0.679326
284, 2, wb, filler, NA, 999, 999, 4, 18, 174, 195, 182, 132, 143, 139, 3, 2.01773
284, 2, wb, filler, NA, 999, 999, 4, 18, 174, 195, 182, 132, 143, 139, 1, 0.519656
284, 2, wb, filler, NA, 999, 999, 4, 19, 127, 140, 169, 138, 84, 150, 3, 5.13686
284, 2, wb, filler, NA, 999, 999, 4, 19, 127, 140, 169, 138, 84, 150, 2, 0.465145
284, 2, wb, attraction, a-b-da, 5, 3, 4, 20, 190, 117, 120, 195, 195, 120, 1, 2.94828
284, 2, wb, attraction, a-b-da, 5, 3, 4, 20, 190, 117, 120, 195, 195, 120, 2, 0.532659
284, 2, wb, attraction, a-b-da, 2, 3, 4, 21, 193, 119, 195, 120, 120, 195, 1, 3.14109
284, 2, wb, attraction, a-b-da, 2, 3, 4, 21, 193, 119, 195, 120, 120, 195, 3, 0.75744
284, 2, wb, attraction, a-b-db, 5, 2, 4, 22, 165, 90, 88, 161, 90, 165, 1, 0.748432
284, 2, wb, attraction, a-b-db, 5, 2, 4, 22, 165, 90, 88, 161, 90, 165, 2, 0.581494
284, 2, wb, filler, NA, 999, 999, 4, 23, 186, 132, 68, 73, 91, 114, 2, 0.931967
284, 2, wb, filler, NA, 999, 999, 4, 23, 186, 132, 68, 73, 91, 114, 1, 0.557639
284, 2, wb, attraction, a-b-db, 9, 3, 4, 24, 120, 195, 114, 186, 195, 120, 2, 1.46873
284, 2, wb, attraction, a-b-db, 9, 3, 4, 24, 120, 195, 114, 186, 195, 120, 3, 0.792967
284, 2, wb, filler, NA, 999, 999, 4, 25, 129, 74, 93, 180, 118, 137, 1, 0.598563
284, 2, wb, filler, NA, 999, 999, 4, 25, 129, 74, 93, 180, 118, 137, 2, 0.797688
284, 2, wb, attraction, a-b-da, 9, 1, 4, 26, 60, 135, 135, 60, 129, 57, 1, 1.37144
284, 2, wb, attraction, a-b-da, 9, 1, 4, 26, 60, 135, 135, 60, 129, 57, 2, 0.499116
284, 2, wb, attraction, a-b-da, 9, 3, 4, 27, 120, 195, 195, 120, 186, 114, 3, 1.78884
284, 2, wb, attraction, a-b-da, 9, 3, 4, 27, 120, 195, 195, 120, 186, 114, 1, 0.867552
284, 2, wb, attraction, a-b-db, 9, 1, 4, 28, 57, 129, 60, 135, 135, 60, 1, 1.11052
284, 2, wb, attraction, a-b-db, 9, 1, 4, 28, 57, 129, 60, 135, 135, 60, 2, 0.712951
284, 2, wb, attraction, a-b-db, 14, 3, 4, 29, 120, 195, 195, 120, 111, 181, 3, 2.12986
284, 2, wb, attraction, a-b-db, 14, 3, 4, 29, 120, 195, 195, 120, 111, 181, 1, 0.499149
284, 2, wb, filler, NA, 999, 999, 4, 30, 61, 56, 109, 161, 127, 163, 1, 0.949011
284, 2, wb, filler, NA, 999, 999, 4, 30, 61, 56, 109, 161, 127, 163, 3, 1.12595
284, 2, wb, filler, NA, 999, 999, 4, 31, 56, 186, 57, 124, 124, 113, 2, 2.7023
284, 2, wb, filler, NA, 999, 999, 4, 31, 56, 186, 57, 124, 124, 113, 1, 8.68078
284, 2, wb, attraction, a-b-db, 5, 3, 4, 32, 120, 195, 117, 190, 195, 120, 3, 2.44057
284, 2, wb, attraction, a-b-db, 5, 3, 4, 32, 120, 195, 117, 190, 195, 120, 2, 0.845286
284, 2, wb, catch, NA, 999, 999, 4, 33, 95, 100, 154, 161, 152, 103, 1, 0.688734
284, 2, wb, catch, NA, 999, 999, 4, 33, 95, 100, 154, 161, 152, 103, 2, 0.555887
284, 2, wb, attraction, a-b-db, 14, 2, 4, 34, 83, 153, 165, 90, 90, 165, 1, 0.962996
284, 2, wb, attraction, a-b-db, 14, 2, 4, 34, 83, 153, 165, 90, 90, 165, 3, 0.787508
284, 2, wb, attraction, a-b-da, 14, 1, 4, 35, 125, 56, 60, 135, 135, 60, 1, 1.63372
284, 2, wb, attraction, a-b-da, 14, 1, 4, 35, 125, 56, 60, 135, 135, 60, 2, 0.879247
284, 2, wb, attraction, a-b-db, 5, 1, 4, 36, 135, 60, 58, 132, 60, 135, 3, 1.59355
284, 2, wb, attraction, a-b-db, 5, 1, 4, 36, 135, 60, 58, 132, 60, 135, 2, 1.68034
284, 2, wb, attraction, a-b-db, 2, 2, 4, 37, 165, 90, 90, 165, 89, 163, 1, 1.26638
284, 2, wb, attraction, a-b-db, 2, 2, 4, 37, 165, 90, 90, 165, 89, 163, 2, 0.486643
284, 2, wb, attraction, a-b-da, 2, 1, 5, 1, 134, 59, 60, 135, 135, 60, 1, 2.56704
284, 2, wb, attraction, a-b-da, 2, 1, 5, 1, 134, 59, 60, 135, 135, 60, 2, 0.854841
284, 2, wb, attraction, a-b-da, 9, 2, 5, 2, 157, 86, 165, 90, 90, 165, 1, 1.39456
284, 2, wb, attraction, a-b-da, 9, 2, 5, 2, 157, 86, 165, 90, 90, 165, 2, 0.433418
284, 2, wb, filler, NA, 999, 999, 5, 3, 183, 138, 82, 195, 89, 126, 3, 0.917935
284, 2, wb, filler, NA, 999, 999, 5, 3, 183, 138, 82, 195, 89, 126, 1, 1.11224
284, 2, wb, catch, NA, 999, 999, 5, 4, 132, 183, 67, 128, 120, 135, 2, 1.56126
284, 2, wb, catch, NA, 999, 999, 5, 4, 132, 183, 67, 128, 120, 135, 1, 0.489314
284, 2, wb, attraction, a-b-db, 5, 1, 5, 5, 60, 135, 58, 132, 135, 60, 1, 1.33912
284, 2, wb, attraction, a-b-db, 5, 1, 5, 5, 60, 135, 58, 132, 135, 60, 2, 0.716116
284, 2, wb, attraction, a-b-db, 9, 1, 5, 6, 135, 60, 57, 129, 60, 135, 1, 0.973053
284, 2, wb, attraction, a-b-db, 9, 1, 5, 6, 135, 60, 57, 129, 60, 135, 3, 0.508738
284, 2, wb, attraction, a-b-db, 2, 2, 5, 7, 90, 165, 89, 163, 165, 90, 1, 1.30991
284, 2, wb, attraction, a-b-db, 2, 2, 5, 7, 90, 165, 89, 163, 165, 90, 2, 0.496081
284, 2, wb, attraction, a-b-da, 2, 3, 5, 8, 193, 119, 120, 195, 195, 120, 1, 1.32196
284, 2, wb, attraction, a-b-da, 2, 3, 5, 8, 193, 119, 120, 195, 195, 120, 2, 0.763411
284, 2, wb, filler, NA, 999, 999, 5, 9, 73, 132, 104, 80, 146, 88, 1, 1.71442
284, 2, wb, filler, NA, 999, 999, 5, 9, 73, 132, 104, 80, 146, 88, 3, 0.484591
284, 2, wb, attraction, a-b-da, 14, 3, 5, 10, 181, 111, 120, 195, 195, 120, 1, 3.22308
284, 2, wb, attraction, a-b-da, 14, 3, 5, 10, 181, 111, 120, 195, 195, 120, 2, 0.467998
284, 2, wb, attraction, a-b-da, 5, 3, 5, 11, 120, 195, 190, 117, 195, 120, 1, 2.75917
284, 2, wb, attraction, a-b-da, 5, 3, 5, 11, 120, 195, 190, 117, 195, 120, 3, 0.814965
284, 2, wb, catch, NA, 999, 999, 5, 12, 104, 91, 178, 137, 108, 147, 1, 0.923875
284, 2, wb, catch, NA, 999, 999, 5, 12, 104, 91, 178, 137, 108, 147, 2, 0.413671
284, 2, wb, attraction, a-b-db, 9, 3, 5, 13, 195, 120, 114, 186, 120, 195, 1, 1.06683
284, 2, wb, attraction, a-b-db, 9, 3, 5, 13, 195, 120, 114, 186, 120, 195, 3, 0.519015
284, 2, wb, filler, NA, 999, 999, 5, 14, 192, 194, 167, 114, 107, 169, 2, 0.856268
284, 2, wb, filler, NA, 999, 999, 5, 14, 192, 194, 167, 114, 107, 169, 1, 0.492454
284, 2, wb, attraction, a-b-db, 2, 1, 5, 15, 135, 60, 60, 135, 59, 134, 1, 1.4383
284, 2, wb, attraction, a-b-db, 2, 1, 5, 15, 135, 60, 60, 135, 59, 134, 2, 0.563148
284, 2, wb, filler, NA, 999, 999, 5, 16, 191, 103, 128, 89, 190, 108, 2, 0.81027
284, 2, wb, filler, NA, 999, 999, 5, 16, 191, 103, 128, 89, 190, 108, 1, 0.528611
284, 2, wb, attraction, a-b-da, 14, 1, 5, 17, 125, 56, 60, 135, 135, 60, 1, 1.64104
284, 2, wb, attraction, a-b-da, 14, 1, 5, 17, 125, 56, 60, 135, 135, 60, 3, 0.853951
284, 2, wb, attraction, a-b-db, 9, 2, 5, 18, 86, 157, 90, 165, 165, 90, 1, 1.7296
284, 2, wb, attraction, a-b-db, 9, 2, 5, 18, 86, 157, 90, 165, 165, 90, 3, 0.723095
284, 2, wb, attraction, a-b-db, 2, 3, 5, 19, 120, 195, 119, 193, 195, 120, 2, 3.36349
284, 2, wb, attraction, a-b-db, 2, 3, 5, 19, 120, 195, 119, 193, 195, 120, 3, 0.810917
284, 2, wb, filler, NA, 999, 999, 5, 20, 126, 181, 154, 189, 173, 68, 3, 1.10397
284, 2, wb, filler, NA, 999, 999, 5, 20, 126, 181, 154, 189, 173, 68, 2, 0.618233
284, 2, wb, attraction, a-b-da, 5, 2, 5, 21, 165, 90, 90, 165, 161, 88, 1, 1.24735
284, 2, wb, attraction, a-b-da, 5, 2, 5, 21, 165, 90, 90, 165, 161, 88, 2, 0.452243
284, 2, wb, attraction, a-b-da, 5, 1, 5, 22, 132, 58, 135, 60, 60, 135, 1, 1.96012
284, 2, wb, attraction, a-b-da, 5, 1, 5, 22, 132, 58, 135, 60, 60, 135, 3, 0.672167
284, 2, wb, attraction, a-b-db, 14, 1, 5, 23, 60, 135, 135, 60, 56, 125, 1, 2.26717
284, 2, wb, attraction, a-b-db, 14, 1, 5, 23, 60, 135, 135, 60, 56, 125, 3, 0.783226
284, 2, wb, attraction, a-b-db, 5, 3, 5, 24, 117, 190, 120, 195, 195, 120, 1, 5.14943
284, 2, wb, attraction, a-b-db, 5, 3, 5, 24, 117, 190, 120, 195, 195, 120, 3, 1.49331
284, 2, wb, attraction, a-b-db, 5, 2, 5, 25, 165, 90, 88, 161, 90, 165, 1, 1.03878
284, 2, wb, attraction, a-b-db, 5, 2, 5, 25, 165, 90, 88, 161, 90, 165, 2, 1.0916
284, 2, wb, filler, NA, 999, 999, 5, 26, 141, 132, 85, 64, 66, 60, 3, 0.821255
284, 2, wb, filler, NA, 999, 999, 5, 26, 141, 132, 85, 64, 66, 60, 1, 0.570916
284, 2, wb, filler, NA, 999, 999, 5, 27, 146, 82, 74, 58, 118, 93, 2, 0.762044
284, 2, wb, filler, NA, 999, 999, 5, 27, 146, 82, 74, 58, 118, 93, 1, 1.64239
284, 2, wb, attraction, a-b-da, 14, 2, 5, 28, 90, 165, 165, 90, 153, 83, 3, 2.04585
284, 2, wb, attraction, a-b-da, 14, 2, 5, 28, 90, 165, 165, 90, 153, 83, 1, 0.490452
284, 2, wb, filler, NA, 999, 999, 5, 29, 96, 130, 163, 195, 144, 181, 1, 0.860347
284, 2, wb, filler, NA, 999, 999, 5, 29, 96, 130, 163, 195, 144, 181, 2, 0.624728
284, 2, wb, attraction, a-b-db, 14, 2, 5, 30, 83, 153, 90, 165, 165, 90, 1, 1.37313
284, 2, wb, attraction, a-b-db, 14, 2, 5, 30, 83, 153, 90, 165, 165, 90, 2, 0.548666
284, 2, wb, attraction, a-b-da, 9, 1, 5, 31, 129, 57, 60, 135, 135, 60, 1, 2.0365
284, 2, wb, attraction, a-b-da, 9, 1, 5, 31, 129, 57, 60, 135, 135, 60, 2, 1.04183
284, 2, wb, attraction, a-b-db, 14, 3, 5, 32, 111, 181, 195, 120, 120, 195, 1, 2.37339
284, 2, wb, attraction, a-b-db, 14, 3, 5, 32, 111, 181, 195, 120, 120, 195, 3, 0.468523
284, 2, wb, filler, NA, 999, 999, 5, 33, 111, 123, 155, 162, 134, 96, 3, 2.59974
284, 2, wb, filler, NA, 999, 999, 5, 33, 111, 123, 155, 162, 134, 96, 2, 0.678225
284, 2, wb, attraction, a-b-da, 9, 3, 5, 34, 186, 114, 120, 195, 195, 120, 1, 1.31265
284, 2, wb, attraction, a-b-da, 9, 3, 5, 34, 186, 114, 120, 195, 195, 120, 2, 0.522871
284, 2, wb, filler, NA, 999, 999, 5, 35, 143, 191, 111, 153, 143, 80, 3, 0.723354
284, 2, wb, filler, NA, 999, 999, 5, 35, 143, 191, 111, 153, 143, 80, 1, 1.04514
284, 2, wb, catch, NA, 999, 999, 5, 36, 187, 128, 105, 90, 134, 121, 2, 1.48076
284, 2, wb, catch, NA, 999, 999, 5, 36, 187, 128, 105, 90, 134, 121, 1, 0.548122
284, 2, wb, attraction, a-b-da, 2, 2, 5, 37, 163, 89, 165, 90, 90, 165, 1, 5.46791
284, 2, wb, attraction, a-b-da, 2, 2, 5, 37, 163, 89, 165, 90, 90, 165, 3, 2.47094
284, 2, wb, filler, NA, 999, 999, 6, 1, 63, 147, 84, 185, 116, 159, 1, 0.841435
284, 2, wb, filler, NA, 999, 999, 6, 1, 63, 147, 84, 185, 116, 159, 3, 0.462422
284, 2, wb, filler, NA, 999, 999, 6, 2, 98, 126, 87, 120, 80, 179, 2, 1.21756
284, 2, wb, filler, NA, 999, 999, 6, 2, 98, 126, 87, 120, 80, 179, 3, 2.35181
284, 2, wb, attraction, a-b-db, 2, 3, 6, 3, 120, 195, 119, 193, 195, 120, 1, 4.34306
284, 2, wb, attraction, a-b-db, 2, 3, 6, 3, 120, 195, 119, 193, 195, 120, 2, 0.967002
284, 2, wb, attraction, a-b-da, 9, 3, 6, 4, 195, 120, 120, 195, 186, 114, 3, 2.9019
284, 2, wb, attraction, a-b-da, 9, 3, 6, 4, 195, 120, 120, 195, 186, 114, 2, 0.656312
284, 2, wb, attraction, a-b-da, 14, 1, 6, 5, 135, 60, 125, 56, 60, 135, 2, 1.34747
284, 2, wb, attraction, a-b-da, 14, 1, 6, 5, 135, 60, 125, 56, 60, 135, 3, 0.644369
284, 2, wb, catch, NA, 999, 999, 6, 6, 132, 123, 87, 108, 183, 132, 2, 1.2481
284, 2, wb, catch, NA, 999, 999, 6, 6, 132, 123, 87, 108, 183, 132, 3, 0.412971
284, 2, wb, attraction, a-b-da, 2, 3, 6, 7, 193, 119, 120, 195, 195, 120, 1, 6.67409
284, 2, wb, attraction, a-b-da, 2, 3, 6, 7, 193, 119, 120, 195, 195, 120, 2, 0.547952
284, 2, wb, attraction, a-b-da, 5, 3, 6, 8, 120, 195, 195, 120, 190, 117, 1, 5.49979
284, 2, wb, attraction, a-b-da, 5, 3, 6, 8, 120, 195, 195, 120, 190, 117, 2, 0.661337
284, 2, wb, attraction, a-b-db, 14, 1, 6, 9, 60, 135, 56, 125, 135, 60, 2, 1.93652
284, 2, wb, attraction, a-b-db, 14, 1, 6, 9, 60, 135, 56, 125, 135, 60, 1, 0.665794
284, 2, wb, filler, NA, 999, 999, 6, 10, 67, 65, 79, 132, 143, 154, 1, 0.884818
284, 2, wb, filler, NA, 999, 999, 6, 10, 67, 65, 79, 132, 143, 154, 3, 1.41652
284, 2, wb, filler, NA, 999, 999, 6, 11, 83, 94, 67, 135, 165, 91, 1, 1.46134
284, 2, wb, filler, NA, 999, 999, 6, 11, 83, 94, 67, 135, 165, 91, 3, 0.673685
284, 2, wb, attraction, a-b-da, 5, 2, 6, 12, 165, 90, 161, 88, 90, 165, 1, 1.75608
284, 2, wb, attraction, a-b-da, 5, 2, 6, 12, 165, 90, 161, 88, 90, 165, 3, 0.500025
284, 2, wb, attraction, a-b-db, 5, 3, 6, 13, 120, 195, 117, 190, 195, 120, 1, 1.76602
284, 2, wb, attraction, a-b-db, 5, 3, 6, 13, 120, 195, 117, 190, 195, 120, 3, 0.493942
284, 2, wb, catch, NA, 999, 999, 6, 14, 85, 110, 123, 192, 152, 103, 1, 1.18361
284, 2, wb, catch, NA, 999, 999, 6, 14, 85, 110, 123, 192, 152, 103, 2, 1.07133
284, 2, wb, filler, NA, 999, 999, 6, 15, 102, 189, 74, 89, 86, 56, 3, 1.01033
284, 2, wb, filler, NA, 999, 999, 6, 15, 102, 189, 74, 89, 86, 56, 1, 1.07253
284, 2, wb, attraction, a-b-db, 9, 3, 6, 16, 114, 186, 195, 120, 120, 195, 1, 1.4196
284, 2, wb, attraction, a-b-db, 9, 3, 6, 16, 114, 186, 195, 120, 120, 195, 2, 0.649716
284, 2, wb, filler, NA, 999, 999, 6, 17, 194, 171, 182, 194, 60, 123, 3, 1.25337
284, 2, wb, filler, NA, 999, 999, 6, 17, 194, 171, 182, 194, 60, 123, 1, 0.530361
284, 2, wb, attraction, a-b-db, 14, 3, 6, 18, 195, 120, 111, 181, 120, 195, 2, 2.45082
284, 2, wb, attraction, a-b-db, 14, 3, 6, 18, 195, 120, 111, 181, 120, 195, 1, 0.863379
284, 2, wb, attraction, a-b-db, 5, 2, 6, 19, 165, 90, 90, 165, 88, 161, 3, 3.94636
284, 2, wb, attraction, a-b-db, 5, 2, 6, 19, 165, 90, 90, 165, 88, 161, 1, 0.754432
284, 2, wb, filler, NA, 999, 999, 6, 20, 105, 97, 109, 68, 165, 164, 2, 1.05814
284, 2, wb, filler, NA, 999, 999, 6, 20, 105, 97, 109, 68, 165, 164, 3, 0.526441
284, 2, wb, filler, NA, 999, 999, 6, 21, 138, 184, 176, 114, 184, 74, 3, 2.22289
284, 2, wb, filler, NA, 999, 999, 6, 21, 138, 184, 176, 114, 184, 74, 1, 0.396158
284, 2, wb, attraction, a-b-da, 14, 2, 6, 22, 90, 165, 165, 90, 153, 83, 1, 0.921972
284, 2, wb, attraction, a-b-da, 14, 2, 6, 22, 90, 165, 165, 90, 153, 83, 3, 0.555676
284, 2, wb, attraction, a-b-db, 14, 2, 6, 23, 90, 165, 165, 90, 83, 153, 2, 1.16346
284, 2, wb, attraction, a-b-db, 14, 2, 6, 23, 90, 165, 165, 90, 83, 153, 1, 0.49182
284, 2, wb, attraction, a-b-da, 2, 2, 6, 24, 165, 90, 163, 89, 90, 165, 2, 1.8535
284, 2, wb, attraction, a-b-da, 2, 2, 6, 24, 165, 90, 163, 89, 90, 165, 1, 0.97027
284, 2, wb, filler, NA, 999, 999, 6, 25, 184, 178, 139, 183, 65, 102, 3, 1.08923
284, 2, wb, filler, NA, 999, 999, 6, 25, 184, 178, 139, 183, 65, 102, 1, 0.628138
284, 2, wb, attraction, a-b-da, 14, 3, 6, 26, 120, 195, 195, 120, 181, 111, 3, 2.56861
284, 2, wb, attraction, a-b-da, 14, 3, 6, 26, 120, 195, 195, 120, 181, 111, 1, 0.448362
284, 2, wb, catch, NA, 999, 999, 6, 27, 75, 120, 123, 132, 149, 166, 1, 0.756222
284, 2, wb, catch, NA, 999, 999, 6, 27, 75, 120, 123, 132, 149, 166, 3, 0.380697
284, 2, wb, filler, NA, 999, 999, 6, 28, 103, 177, 61, 96, 174, 195, 2, 0.643096
284, 2, wb, filler, NA, 999, 999, 6, 28, 103, 177, 61, 96, 174, 195, 3, 0.416232
284, 2, wb, attraction, a-b-db, 2, 1, 6, 29, 60, 135, 135, 60, 59, 134, 2, 2.56542
284, 2, wb, attraction, a-b-db, 2, 1, 6, 29, 60, 135, 135, 60, 59, 134, 1, 0.621206
284, 2, wb, attraction, a-b-db, 9, 1, 6, 30, 57, 129, 60, 135, 135, 60, 3, 1.65836
284, 2, wb, attraction, a-b-db, 9, 1, 6, 30, 57, 129, 60, 135, 135, 60, 1, 0.406402
284, 2, wb, attraction, a-b-da, 9, 2, 6, 31, 165, 90, 90, 165, 157, 86, 3, 1.34754
284, 2, wb, attraction, a-b-da, 9, 2, 6, 31, 165, 90, 90, 165, 157, 86, 2, 0.932413
284, 2, wb, attraction, a-b-da, 5, 1, 6, 32, 60, 135, 132, 58, 135, 60, 1, 3.12472
284, 2, wb, attraction, a-b-da, 5, 1, 6, 32, 60, 135, 132, 58, 135, 60, 2, 0.725715
284, 2, wb, attraction, a-b-db, 5, 1, 6, 33, 60, 135, 135, 60, 58, 132, 2, 2.31017
284, 2, wb, attraction, a-b-db, 5, 1, 6, 33, 60, 135, 135, 60, 58, 132, 3, 0.464073
284, 2, wb, attraction, a-b-db, 2, 2, 6, 34, 90, 165, 165, 90, 89, 163, 2, 1.76314
284, 2, wb, attraction, a-b-db, 2, 2, 6, 34, 90, 165, 165, 90, 89, 163, 3, 0.419203
284, 2, wb, attraction, a-b-db, 9, 2, 6, 35, 165, 90, 86, 157, 90, 165, 1, 1.9364
284, 2, wb, attraction, a-b-db, 9, 2, 6, 35, 165, 90, 86, 157, 90, 165, 3, 0.465812
284, 2, wb, attraction, a-b-da, 2, 1, 6, 36, 134, 59, 60, 135, 135, 60, 3, 1.18896
284, 2, wb, attraction, a-b-da, 2, 1, 6, 36, 134, 59, 60, 135, 135, 60, 2, 0.74783
284, 2, wb, attraction, a-b-da, 9, 1, 6, 37, 135, 60, 129, 57, 60, 135, 3, 4.29157
284, 2, wb, attraction, a-b-da, 9, 1, 6, 37, 135, 60, 129, 57, 60, 135, 1, 0.821527
284, 2, wb, catch, NA, 999, 999, 7, 1, 139, 116, 109, 86, 192, 123, 2, 0.914397
284, 2, wb, catch, NA, 999, 999, 7, 1, 139, 116, 109, 86, 192, 123, 3, 0.436861
284, 2, wb, attraction, a-b-da, 5, 3, 7, 2, 190, 117, 195, 120, 120, 195, 2, 4.11339
284, 2, wb, attraction, a-b-da, 5, 3, 7, 2, 190, 117, 195, 120, 120, 195, 3, 1.31487
284, 2, wb, attraction, a-b-da, 5, 2, 7, 3, 90, 165, 165, 90, 161, 88, 2, 1.17152
284, 2, wb, attraction, a-b-da, 5, 2, 7, 3, 90, 165, 165, 90, 161, 88, 1, 0.939223
284, 2, wb, attraction, a-b-da, 9, 3, 7, 4, 186, 114, 195, 120, 120, 195, 1, 1.93148
284, 2, wb, attraction, a-b-da, 9, 3, 7, 4, 186, 114, 195, 120, 120, 195, 2, 0.436818
284, 2, wb, attraction, a-b-da, 14, 3, 7, 5, 181, 111, 120, 195, 195, 120, 1, 2.08136
284, 2, wb, attraction, a-b-da, 14, 3, 7, 5, 181, 111, 120, 195, 195, 120, 2, 0.556783
284, 2, wb, attraction, a-b-db, 5, 2, 7, 6, 90, 165, 88, 161, 165, 90, 3, 0.955782
284, 2, wb, attraction, a-b-db, 5, 2, 7, 6, 90, 165, 88, 161, 165, 90, 2, 0.828127
284, 2, wb, filler, NA, 999, 999, 7, 7, 72, 190, 115, 133, 59, 146, 3, 0.904468
284, 2, wb, filler, NA, 999, 999, 7, 7, 72, 190, 115, 133, 59, 146, 2, 0.786822
284, 2, wb, filler, NA, 999, 999, 7, 8, 79, 189, 103, 163, 164, 80, 3, 2.12911
284, 2, wb, filler, NA, 999, 999, 7, 8, 79, 189, 103, 163, 164, 80, 2, 0.674642
284, 2, wb, catch, NA, 999, 999, 7, 9, 183, 132, 162, 93, 128, 67, 3, 0.644819
284, 2, wb, catch, NA, 999, 999, 7, 9, 183, 132, 162, 93, 128, 67, 1, 0.537927
284, 2, wb, attraction, a-b-da, 14, 2, 7, 10, 153, 83, 165, 90, 90, 165, 1, 1.20245
284, 2, wb, attraction, a-b-da, 14, 2, 7, 10, 153, 83, 165, 90, 90, 165, 2, 0.921494
284, 2, wb, attraction, a-b-db, 9, 3, 7, 11, 114, 186, 120, 195, 195, 120, 1, 2.27433
284, 2, wb, attraction, a-b-db, 9, 3, 7, 11, 114, 186, 120, 195, 195, 120, 3, 0.837621
284, 2, wb, catch, NA, 999, 999, 7, 12, 115, 80, 127, 188, 149, 106, 1, 0.841931
284, 2, wb, catch, NA, 999, 999, 7, 12, 115, 80, 127, 188, 149, 106, 2, 0.599005
284, 2, wb, attraction, a-b-da, 2, 3, 7, 13, 120, 195, 193, 119, 195, 120, 1, 1.58878
284, 2, wb, attraction, a-b-da, 2, 3, 7, 13, 120, 195, 193, 119, 195, 120, 2, 0.499482
284, 2, wb, attraction, a-b-da, 2, 2, 7, 14, 165, 90, 90, 165, 163, 89, 1, 1.38937
284, 2, wb, attraction, a-b-da, 2, 2, 7, 14, 165, 90, 90, 165, 163, 89, 2, 0.532298
284, 2, wb, filler, NA, 999, 999, 7, 15, 126, 187, 142, 152, 162, 76, 3, 0.660681
284, 2, wb, filler, NA, 999, 999, 7, 15, 126, 187, 142, 152, 162, 76, 1, 0.96121
284, 2, wb, attraction, a-b-da, 9, 1, 7, 16, 60, 135, 129, 57, 135, 60, 1, 0.744055
284, 2, wb, attraction, a-b-da, 9, 1, 7, 16, 60, 135, 129, 57, 135, 60, 3, 0.465121
284, 2, wb, filler, NA, 999, 999, 7, 17, 173, 123, 170, 72, 187, 122, 2, 0.716296
284, 2, wb, filler, NA, 999, 999, 7, 17, 173, 123, 170, 72, 187, 122, 1, 0.518683
284, 2, wb, attraction, a-b-da, 5, 1, 7, 18, 132, 58, 135, 60, 60, 135, 1, 2.01932
284, 2, wb, attraction, a-b-da, 5, 1, 7, 18, 132, 58, 135, 60, 60, 135, 3, 0.861202
284, 2, wb, attraction, a-b-db, 9, 2, 7, 19, 165, 90, 90, 165, 86, 157, 2, 0.568061
284, 2, wb, attraction, a-b-db, 9, 2, 7, 19, 165, 90, 90, 165, 86, 157, 1, 0.416596
284, 2, wb, attraction, a-b-db, 9, 1, 7, 20, 60, 135, 135, 60, 57, 129, 2, 1.08577
284, 2, wb, attraction, a-b-db, 9, 1, 7, 20, 60, 135, 135, 60, 57, 129, 3, 1.53738
284, 2, wb, filler, NA, 999, 999, 7, 21, 140, 179, 179, 119, 138, 99, 3, 0.969427
284, 2, wb, filler, NA, 999, 999, 7, 21, 140, 179, 179, 119, 138, 99, 1, 0.561944
284, 2, wb, filler, NA, 999, 999, 7, 22, 102, 173, 114, 84, 165, 63, 2, 1.87296
284, 2, wb, filler, NA, 999, 999, 7, 22, 102, 173, 114, 84, 165, 63, 1, 0.812433
284, 2, wb, filler, NA, 999, 999, 7, 23, 110, 173, 121, 114, 70, 72, 3, 0.8735
284, 2, wb, filler, NA, 999, 999, 7, 23, 110, 173, 121, 114, 70, 72, 1, 0.548999
284, 2, wb, attraction, a-b-db, 5, 1, 7, 24, 60, 135, 58, 132, 135, 60, 2, 2.3888
284, 2, wb, attraction, a-b-db, 5, 1, 7, 24, 60, 135, 58, 132, 135, 60, 1, 0.443403
284, 2, wb, filler, NA, 999, 999, 7, 25, 192, 173, 186, 80, 155, 146, 2, 0.783134
284, 2, wb, filler, NA, 999, 999, 7, 25, 192, 173, 186, 80, 155, 146, 1, 0.526873
284, 2, wb, attraction, a-b-db, 2, 1, 7, 26, 135, 60, 60, 135, 59, 134, 3, 2.7594
284, 2, wb, attraction, a-b-db, 2, 1, 7, 26, 135, 60, 60, 135, 59, 134, 1, 0.631136
284, 2, wb, attraction, a-b-db, 2, 2, 7, 27, 165, 90, 89, 163, 90, 165, 2, 1.4435
284, 2, wb, attraction, a-b-db, 2, 2, 7, 27, 165, 90, 89, 163, 90, 165, 1, 0.632406
284, 2, wb, attraction, a-b-da, 9, 2, 7, 28, 157, 86, 90, 165, 165, 90, 1, 1.0368
284, 2, wb, attraction, a-b-da, 9, 2, 7, 28, 157, 86, 90, 165, 165, 90, 2, 0.497794
284, 2, wb, attraction, a-b-db, 5, 3, 7, 29, 195, 120, 117, 190, 120, 195, 2, 2.24361
284, 2, wb, attraction, a-b-db, 5, 3, 7, 29, 195, 120, 117, 190, 120, 195, 1, 0.424188
284, 2, wb, attraction, a-b-db, 2, 3, 7, 30, 119, 193, 120, 195, 195, 120, 1, 2.02855
284, 2, wb, attraction, a-b-db, 2, 3, 7, 30, 119, 193, 120, 195, 195, 120, 2, 0.906194
284, 2, wb, attraction, a-b-da, 2, 1, 7, 31, 135, 60, 134, 59, 60, 135, 1, 2.667
284, 2, wb, attraction, a-b-da, 2, 1, 7, 31, 135, 60, 134, 59, 60, 135, 3, 0.606808
284, 2, wb, attraction, a-b-da, 14, 1, 7, 32, 125, 56, 60, 135, 135, 60, 1, 2.44392
284, 2, wb, attraction, a-b-da, 14, 1, 7, 32, 125, 56, 60, 135, 135, 60, 2, 0.416338
284, 2, wb, attraction, a-b-db, 14, 1, 7, 33, 56, 125, 60, 135, 135, 60, 1, 0.693567
284, 2, wb, attraction, a-b-db, 14, 1, 7, 33, 56, 125, 60, 135, 135, 60, 2, 0.640568
284, 2, wb, filler, NA, 999, 999, 7, 34, 184, 145, 145, 114, 70, 64, 3, 0.812475
284, 2, wb, filler, NA, 999, 999, 7, 34, 184, 145, 145, 114, 70, 64, 1, 0.498746
284, 2, wb, filler, NA, 999, 999, 7, 35, 130, 188, 86, 160, 120, 86, 3, 2.82069
284, 2, wb, filler, NA, 999, 999, 7, 35, 130, 188, 86, 160, 120, 86, 1, 0.442298
284, 2, wb, attraction, a-b-db, 14, 2, 7, 36, 90, 165, 83, 153, 165, 90, 2, 3.80614
284, 2, wb, attraction, a-b-db, 14, 2, 7, 36, 90, 165, 83, 153, 165, 90, 1, 0.483535
284, 2, wb, attraction, a-b-db, 14, 3, 7, 37, 111, 181, 195, 120, 120, 195, 1, 1.06214
284, 2, wb, attraction, a-b-db, 14, 3, 7, 37, 111, 181, 195, 120, 120, 195, 3, 1.27447
284, 2, wb, attraction, a-b-da, 14, 3, 8, 1, 195, 120, 120, 195, 181, 111, 3, 1.36453
284, 2, wb, attraction, a-b-da, 14, 3, 8, 1, 195, 120, 120, 195, 181, 111, 1, 0.596718
284, 2, wb, attraction, a-b-db, 5, 2, 8, 2, 88, 161, 165, 90, 90, 165, 1, 2.14644
284, 2, wb, attraction, a-b-db, 5, 2, 8, 2, 88, 161, 165, 90, 90, 165, 2, 0.811129
284, 2, wb, attraction, a-b-db, 14, 3, 8, 3, 195, 120, 120, 195, 111, 181, 3, 3.08816
284, 2, wb, attraction, a-b-db, 14, 3, 8, 3, 195, 120, 120, 195, 111, 181, 2, 0.994483
284, 2, wb, catch, NA, 999, 999, 8, 4, 152, 103, 195, 120, 120, 75, 3, 0.76024
284, 2, wb, catch, NA, 999, 999, 8, 4, 152, 103, 195, 120, 120, 75, 2, 0.688644
284, 2, wb, attraction, a-b-db, 9, 1, 8, 5, 57, 129, 60, 135, 135, 60, 1, 1.61899
284, 2, wb, attraction, a-b-db, 9, 1, 8, 5, 57, 129, 60, 135, 135, 60, 2, 1.52905
284, 2, wb, filler, NA, 999, 999, 8, 6, 175, 191, 193, 109, 75, 120, 3, 0.713171
284, 2, wb, filler, NA, 999, 999, 8, 6, 175, 191, 193, 109, 75, 120, 1, 0.435637
284, 2, wb, attraction, a-b-da, 9, 1, 8, 7, 60, 135, 129, 57, 135, 60, 1, 1.96006
284, 2, wb, attraction, a-b-da, 9, 1, 8, 7, 60, 135, 129, 57, 135, 60, 2, 0.41613
284, 2, wb, attraction, a-b-da, 9, 3, 8, 8, 120, 195, 195, 120, 186, 114, 3, 1.39728
284, 2, wb, attraction, a-b-da, 9, 3, 8, 8, 120, 195, 195, 120, 186, 114, 1, 0.404215
284, 2, wb, filler, NA, 999, 999, 8, 9, 195, 105, 68, 187, 96, 142, 2, 0.721848
284, 2, wb, filler, NA, 999, 999, 8, 9, 195, 105, 68, 187, 96, 142, 1, 0.515627
284, 2, wb, filler, NA, 999, 999, 8, 10, 110, 101, 154, 140, 188, 102, 1, 1.26875
284, 2, wb, filler, NA, 999, 999, 8, 10, 110, 101, 154, 140, 188, 102, 2, 0.465136
284, 2, wb, attraction, a-b-da, 2, 1, 8, 11, 134, 59, 135, 60, 60, 135, 2, 1.8762
284, 2, wb, attraction, a-b-da, 2, 1, 8, 11, 134, 59, 135, 60, 60, 135, 1, 0.631532
284, 2, wb, filler, NA, 999, 999, 8, 12, 82, 99, 149, 108, 102, 191, 1, 0.563899
284, 2, wb, filler, NA, 999, 999, 8, 12, 82, 99, 149, 108, 102, 191, 2, 0.644397
284, 2, wb, attraction, a-b-db, 5, 3, 8, 13, 117, 190, 120, 195, 195, 120, 1, 3.00023
284, 2, wb, attraction, a-b-db, 5, 3, 8, 13, 117, 190, 120, 195, 195, 120, 2, 0.910514
284, 2, wb, filler, NA, 999, 999, 8, 14, 110, 187, 177, 90, 162, 138, 2, 0.983527
284, 2, wb, filler, NA, 999, 999, 8, 14, 110, 187, 177, 90, 162, 138, 3, 0.719172
284, 2, wb, filler, NA, 999, 999, 8, 15, 158, 168, 148, 139, 122, 67, 3, 0.968357
284, 2, wb, filler, NA, 999, 999, 8, 15, 158, 168, 148, 139, 122, 67, 1, 0.536551
284, 2, wb, filler, NA, 999, 999, 8, 16, 140, 63, 181, 136, 131, 121, 1, 0.841033
284, 2, wb, filler, NA, 999, 999, 8, 16, 140, 63, 181, 136, 131, 121, 2, 0.558081
284, 2, wb, filler, NA, 999, 999, 8, 17, 154, 128, 187, 124, 182, 80, 3, 0.73314
284, 2, wb, filler, NA, 999, 999, 8, 17, 154, 128, 187, 124, 182, 80, 2, 0.558995
284, 2, wb, attraction, a-b-db, 14, 2, 8, 18, 83, 153, 165, 90, 90, 165, 1, 0.95803
284, 2, wb, attraction, a-b-db, 14, 2, 8, 18, 83, 153, 165, 90, 90, 165, 2, 0.462337
284, 2, wb, attraction, a-b-da, 5, 1, 8, 19, 135, 60, 132, 58, 60, 135, 2, 0.785529
284, 2, wb, attraction, a-b-da, 5, 1, 8, 19, 135, 60, 132, 58, 60, 135, 1, 0.433192
284, 2, wb, filler, NA, 999, 999, 8, 20, 61, 61, 114, 184, 80, 75, 1, 0.821697
284, 2, wb, filler, NA, 999, 999, 8, 20, 61, 61, 114, 184, 80, 75, 2, 0.331405
284, 2, wb, attraction, a-b-db, 9, 3, 8, 21, 195, 120, 120, 195, 114, 186, 3, 2.90789
284, 2, wb, attraction, a-b-db, 9, 3, 8, 21, 195, 120, 120, 195, 114, 186, 2, 1.64562
284, 2, wb, attraction, a-b-da, 5, 3, 8, 22, 195, 120, 120, 195, 190, 117, 1, 0.777025
284, 2, wb, attraction, a-b-da, 5, 3, 8, 22, 195, 120, 120, 195, 190, 117, 2, 0.432816
284, 2, wb, catch, NA, 999, 999, 8, 23, 150, 105, 60, 135, 152, 163, 2, 0.79735
284, 2, wb, catch, NA, 999, 999, 8, 23, 150, 105, 60, 135, 152, 163, 3, 0.580328
284, 2, wb, attraction, a-b-db, 2, 3, 8, 24, 195, 120, 119, 193, 120, 195, 1, 2.25874
284, 2, wb, attraction, a-b-db, 2, 3, 8, 24, 195, 120, 119, 193, 120, 195, 2, 0.422726
284, 2, wb, attraction, a-b-db, 2, 2, 8, 25, 165, 90, 90, 165, 89, 163, 1, 1.21911
284, 2, wb, attraction, a-b-db, 2, 2, 8, 25, 165, 90, 90, 165, 89, 163, 2, 0.609376
284, 2, wb, filler, NA, 999, 999, 8, 26, 92, 158, 146, 191, 123, 93, 3, 1.30251
284, 2, wb, filler, NA, 999, 999, 8, 26, 92, 158, 146, 191, 123, 93, 2, 0.545496
284, 2, wb, catch, NA, 999, 999, 8, 27, 124, 131, 178, 137, 98, 97, 3, 0.817103
284, 2, wb, catch, NA, 999, 999, 8, 27, 124, 131, 178, 137, 98, 97, 2, 0.351543
284, 2, wb, attraction, a-b-da, 9, 2, 8, 28, 157, 86, 165, 90, 90, 165, 1, 0.911419
284, 2, wb, attraction, a-b-da, 9, 2, 8, 28, 157, 86, 165, 90, 90, 165, 2, 0.48172
284, 2, wb, attraction, a-b-db, 2, 1, 8, 29, 59, 134, 135, 60, 60, 135, 1, 0.684143
284, 2, wb, attraction, a-b-db, 2, 1, 8, 29, 59, 134, 135, 60, 60, 135, 2, 0.671951
284, 2, wb, attraction, a-b-da, 14, 2, 8, 30, 153, 83, 165, 90, 90, 165, 3, 0.835063
284, 2, wb, attraction, a-b-da, 14, 2, 8, 30, 153, 83, 165, 90, 90, 165, 2, 0.432699
284, 2, wb, attraction, a-b-da, 5, 2, 8, 31, 161, 88, 165, 90, 90, 165, 1, 0.757296
284, 2, wb, attraction, a-b-da, 5, 2, 8, 31, 161, 88, 165, 90, 90, 165, 2, 0.373601
284, 2, wb, attraction, a-b-da, 14, 1, 8, 32, 60, 135, 125, 56, 135, 60, 1, 1.17209
284, 2, wb, attraction, a-b-da, 14, 1, 8, 32, 60, 135, 125, 56, 135, 60, 2, 1.02768
284, 2, wb, attraction, a-b-da, 2, 2, 8, 33, 163, 89, 90, 165, 165, 90, 1, 1.39999
284, 2, wb, attraction, a-b-da, 2, 2, 8, 33, 163, 89, 90, 165, 165, 90, 2, 0.454913
284, 2, wb, attraction, a-b-db, 14, 1, 8, 34, 135, 60, 60, 135, 56, 125, 1, 0.994607
284, 2, wb, attraction, a-b-db, 14, 1, 8, 34, 135, 60, 60, 135, 56, 125, 2, 1.01766
284, 2, wb, attraction, a-b-db, 5, 1, 8, 35, 60, 135, 58, 132, 135, 60, 1, 0.790731
284, 2, wb, attraction, a-b-db, 5, 1, 8, 35, 60, 135, 58, 132, 135, 60, 2, 0.549722
284, 2, wb, attraction, a-b-da, 2, 3, 8, 36, 195, 120, 120, 195, 193, 119, 1, 2.26169
284, 2, wb, attraction, a-b-da, 2, 3, 8, 36, 195, 120, 120, 195, 193, 119, 2, 0.721393
284, 2, wb, attraction, a-b-db, 9, 2, 8, 37, 165, 90, 86, 157, 90, 165, 1, 1.57042
284, 2, wb, attraction, a-b-db, 9, 2, 8, 37, 165, 90, 86, 157, 90, 165, 2, 0.377878
