sub_n, computer_n, bw_cond, effect, set, distance, diag, block_n, trial_n, h1, w1, h2, w2, h3, w3, choice, rt 
202, 2, wb, practice, NA, 999, 999, 0, 1, 189, 125, 97, 183, 106, 148, 3, 4.90753
202, 2, wb, practice, NA, 999, 999, 0, 1, 189, 125, 97, 183, 106, 148, 1, 2.90238
202, 2, wb, practice, NA, 999, 999, 0, 2, 188, 174, 126, 113, 125, 171, 2, 1.54763
202, 2, wb, practice, NA, 999, 999, 0, 2, 188, 174, 126, 113, 125, 171, 1, 0.987814
202, 2, wb, practice, NA, 999, 999, 0, 3, 188, 127, 65, 141, 176, 149, 2, 1.90372
202, 2, wb, practice, NA, 999, 999, 0, 3, 188, 127, 65, 141, 176, 149, 3, 1.65824
202, 2, wb, attraction, a-b-db, 14, 3, 1, 1, 195, 120, 120, 195, 111, 181, 3, 2.01727
202, 2, wb, attraction, a-b-db, 14, 3, 1, 1, 195, 120, 120, 195, 111, 181, 1, 1.61534
202, 2, wb, catch, NA, 999, 999, 1, 2, 121, 134, 133, 182, 85, 110, 3, 1.53201
202, 2, wb, catch, NA, 999, 999, 1, 2, 121, 134, 133, 182, 85, 110, 2, 0.477581
202, 2, wb, attraction, a-b-da, 9, 1, 1, 3, 129, 57, 60, 135, 135, 60, 2, 13.888
202, 2, wb, attraction, a-b-da, 9, 1, 1, 3, 129, 57, 60, 135, 135, 60, 3, 0.947723
202, 2, wb, filler, NA, 999, 999, 1, 4, 176, 169, 191, 104, 65, 152, 3, 0.983306
202, 2, wb, filler, NA, 999, 999, 1, 4, 176, 169, 191, 104, 65, 152, 1, 0.719031
202, 2, wb, attraction, a-b-da, 5, 3, 1, 5, 190, 117, 120, 195, 195, 120, 1, 2.49596
202, 2, wb, attraction, a-b-da, 5, 3, 1, 5, 190, 117, 120, 195, 195, 120, 2, 0.954667
202, 2, wb, attraction, a-b-da, 9, 2, 1, 6, 157, 86, 165, 90, 90, 165, 3, 1.17023
202, 2, wb, attraction, a-b-da, 9, 2, 1, 6, 157, 86, 165, 90, 90, 165, 2, 3.72252
202, 2, wb, attraction, a-b-db, 14, 1, 1, 7, 60, 135, 56, 125, 135, 60, 3, 0.858574
202, 2, wb, attraction, a-b-db, 14, 1, 1, 7, 60, 135, 56, 125, 135, 60, 1, 0.727
202, 2, wb, attraction, a-b-db, 9, 1, 1, 8, 135, 60, 57, 129, 60, 135, 3, 0.927343
202, 2, wb, attraction, a-b-db, 9, 1, 1, 8, 135, 60, 57, 129, 60, 135, 1, 3.28911
202, 2, wb, filler, NA, 999, 999, 1, 9, 89, 149, 178, 141, 168, 57, 3, 3.01876
202, 2, wb, filler, NA, 999, 999, 1, 9, 89, 149, 178, 141, 168, 57, 2, 0.768321
202, 2, wb, filler, NA, 999, 999, 1, 10, 167, 70, 142, 100, 122, 177, 1, 4.49529
202, 2, wb, filler, NA, 999, 999, 1, 10, 167, 70, 142, 100, 122, 177, 3, 2.77721
202, 2, wb, attraction, a-b-db, 2, 1, 1, 11, 135, 60, 60, 135, 59, 134, 3, 1.88693
202, 2, wb, attraction, a-b-db, 2, 1, 1, 11, 135, 60, 60, 135, 59, 134, 1, 0.594323
202, 2, wb, attraction, a-b-db, 9, 2, 1, 12, 86, 157, 90, 165, 165, 90, 3, 1.34411
202, 2, wb, attraction, a-b-db, 9, 2, 1, 12, 86, 157, 90, 165, 165, 90, 2, 1.64896
202, 2, wb, attraction, a-b-da, 2, 3, 1, 13, 195, 120, 193, 119, 120, 195, 2, 2.04434
202, 2, wb, attraction, a-b-da, 2, 3, 1, 13, 195, 120, 193, 119, 120, 195, 3, 0.369022
202, 2, wb, attraction, a-b-da, 14, 2, 1, 14, 90, 165, 165, 90, 153, 83, 3, 1.33623
202, 2, wb, attraction, a-b-da, 14, 2, 1, 14, 90, 165, 165, 90, 153, 83, 1, 0.897859
202, 2, wb, attraction, a-b-da, 14, 1, 1, 15, 135, 60, 60, 135, 125, 56, 3, 3.98754
202, 2, wb, attraction, a-b-da, 14, 1, 1, 15, 135, 60, 60, 135, 125, 56, 2, 0.426219
202, 2, wb, filler, NA, 999, 999, 1, 16, 109, 171, 124, 83, 97, 78, 3, 0.878681
202, 2, wb, filler, NA, 999, 999, 1, 16, 109, 171, 124, 83, 97, 78, 1, 0.3144
202, 2, wb, attraction, a-b-da, 2, 1, 1, 17, 60, 135, 134, 59, 135, 60, 2, 2.24358
202, 2, wb, attraction, a-b-da, 2, 1, 1, 17, 60, 135, 134, 59, 135, 60, 1, 3.05632
202, 2, wb, catch, NA, 999, 999, 1, 18, 167, 148, 157, 98, 61, 134, 3, 0.851109
202, 2, wb, catch, NA, 999, 999, 1, 18, 167, 148, 157, 98, 61, 134, 1, 0.256235
202, 2, wb, attraction, a-b-da, 5, 2, 1, 19, 161, 88, 90, 165, 165, 90, 3, 4.38735
202, 2, wb, attraction, a-b-da, 5, 2, 1, 19, 161, 88, 90, 165, 165, 90, 2, 0.354007
202, 2, wb, attraction, a-b-da, 14, 3, 1, 20, 120, 195, 181, 111, 195, 120, 2, 1.39388
202, 2, wb, attraction, a-b-da, 14, 3, 1, 20, 120, 195, 181, 111, 195, 120, 1, 1.57672
202, 2, wb, attraction, a-b-da, 9, 3, 1, 21, 186, 114, 120, 195, 195, 120, 1, 1.34285
202, 2, wb, attraction, a-b-da, 9, 3, 1, 21, 186, 114, 120, 195, 195, 120, 3, 0.959675
202, 2, wb, filler, NA, 999, 999, 1, 22, 186, 82, 193, 185, 68, 68, 3, 0.846604
202, 2, wb, filler, NA, 999, 999, 1, 22, 186, 82, 193, 185, 68, 68, 2, 0.779756
202, 2, wb, filler, NA, 999, 999, 1, 23, 177, 186, 188, 130, 113, 86, 3, 0.81003
202, 2, wb, filler, NA, 999, 999, 1, 23, 177, 186, 188, 130, 113, 86, 1, 0.376379
202, 2, wb, attraction, a-b-db, 5, 3, 1, 24, 120, 195, 195, 120, 117, 190, 2, 6.88692
202, 2, wb, attraction, a-b-db, 5, 3, 1, 24, 120, 195, 195, 120, 117, 190, 3, 0.808716
202, 2, wb, attraction, a-b-da, 5, 1, 1, 25, 132, 58, 135, 60, 60, 135, 3, 1.31771
202, 2, wb, attraction, a-b-da, 5, 1, 1, 25, 132, 58, 135, 60, 60, 135, 1, 1.01602
202, 2, wb, attraction, a-b-db, 5, 2, 1, 26, 90, 165, 88, 161, 165, 90, 3, 1.17297
202, 2, wb, attraction, a-b-db, 5, 2, 1, 26, 90, 165, 88, 161, 165, 90, 1, 1.34052
202, 2, wb, catch, NA, 999, 999, 1, 27, 164, 151, 73, 122, 140, 115, 2, 0.660068
202, 2, wb, catch, NA, 999, 999, 1, 27, 164, 151, 73, 122, 140, 115, 1, 0.288589
202, 2, wb, filler, NA, 999, 999, 1, 28, 78, 141, 111, 62, 86, 158, 2, 1.39503
202, 2, wb, filler, NA, 999, 999, 1, 28, 78, 141, 111, 62, 86, 158, 3, 0.289912
202, 2, wb, attraction, a-b-db, 14, 2, 1, 29, 90, 165, 83, 153, 165, 90, 2, 3.76378
202, 2, wb, attraction, a-b-db, 14, 2, 1, 29, 90, 165, 83, 153, 165, 90, 3, 0.475217
202, 2, wb, attraction, a-b-db, 5, 1, 1, 30, 58, 132, 60, 135, 135, 60, 3, 4.16574
202, 2, wb, attraction, a-b-db, 5, 1, 1, 30, 58, 132, 60, 135, 135, 60, 2, 0.40503
202, 2, wb, filler, NA, 999, 999, 1, 31, 141, 71, 153, 58, 115, 163, 2, 1.31484
202, 2, wb, filler, NA, 999, 999, 1, 31, 141, 71, 153, 58, 115, 163, 3, 0.821111
202, 2, wb, filler, NA, 999, 999, 1, 32, 143, 169, 195, 148, 57, 144, 3, 0.834051
202, 2, wb, filler, NA, 999, 999, 1, 32, 143, 169, 195, 148, 57, 144, 2, 0.319746
202, 2, wb, attraction, a-b-db, 2, 3, 1, 33, 119, 193, 120, 195, 195, 120, 1, 5.86495
202, 2, wb, attraction, a-b-db, 2, 3, 1, 33, 119, 193, 120, 195, 195, 120, 3, 0.659723
202, 2, wb, attraction, a-b-db, 2, 2, 1, 34, 165, 90, 90, 165, 89, 163, 2, 1.80689
202, 2, wb, attraction, a-b-db, 2, 2, 1, 34, 165, 90, 90, 165, 89, 163, 1, 0.58094
202, 2, wb, filler, NA, 999, 999, 1, 35, 57, 139, 74, 73, 131, 67, 2, 0.867371
202, 2, wb, filler, NA, 999, 999, 1, 35, 57, 139, 74, 73, 131, 67, 3, 3.32785
202, 2, wb, attraction, a-b-da, 2, 2, 1, 36, 163, 89, 90, 165, 165, 90, 2, 4.83928
202, 2, wb, attraction, a-b-da, 2, 2, 1, 36, 163, 89, 90, 165, 165, 90, 3, 0.44307
202, 2, wb, attraction, a-b-db, 9, 3, 1, 37, 195, 120, 120, 195, 114, 186, 1, 3.32689
202, 2, wb, attraction, a-b-db, 9, 3, 1, 37, 195, 120, 120, 195, 114, 186, 2, 0.295911
202, 2, wb, attraction, a-b-da, 9, 2, 2, 1, 157, 86, 90, 165, 165, 90, 1, 1.44167
202, 2, wb, attraction, a-b-da, 9, 2, 2, 1, 157, 86, 90, 165, 165, 90, 2, 0.526538
202, 2, wb, attraction, a-b-db, 9, 2, 2, 2, 86, 157, 165, 90, 90, 165, 1, 3.01497
202, 2, wb, attraction, a-b-db, 9, 2, 2, 2, 86, 157, 165, 90, 90, 165, 3, 1.07666
202, 2, wb, filler, NA, 999, 999, 2, 3, 188, 125, 99, 129, 102, 176, 2, 0.615005
202, 2, wb, filler, NA, 999, 999, 2, 3, 188, 125, 99, 129, 102, 176, 1, 0.373399
202, 2, wb, attraction, a-b-db, 5, 1, 2, 4, 58, 132, 135, 60, 60, 135, 1, 1.24386
202, 2, wb, attraction, a-b-db, 5, 1, 2, 4, 58, 132, 135, 60, 60, 135, 2, 0.712814
202, 2, wb, filler, NA, 999, 999, 2, 5, 166, 149, 75, 64, 81, 98, 2, 0.857928
202, 2, wb, filler, NA, 999, 999, 2, 5, 166, 149, 75, 64, 81, 98, 1, 0.238107
202, 2, wb, attraction, a-b-da, 2, 3, 2, 6, 193, 119, 120, 195, 195, 120, 3, 3.36273
202, 2, wb, attraction, a-b-da, 2, 3, 2, 6, 193, 119, 120, 195, 195, 120, 2, 0.266356
202, 2, wb, attraction, a-b-db, 14, 2, 2, 7, 83, 153, 165, 90, 90, 165, 1, 2.95754
202, 2, wb, attraction, a-b-db, 14, 2, 2, 7, 83, 153, 165, 90, 90, 165, 2, 0.517261
202, 2, wb, catch, NA, 999, 999, 2, 8, 156, 99, 136, 179, 64, 131, 3, 0.702429
202, 2, wb, catch, NA, 999, 999, 2, 8, 156, 99, 136, 179, 64, 131, 2, 0.297437
202, 2, wb, filler, NA, 999, 999, 2, 9, 177, 164, 140, 166, 179, 179, 2, 0.947276
202, 2, wb, filler, NA, 999, 999, 2, 9, 177, 164, 140, 166, 179, 179, 3, 0.308268
202, 2, wb, attraction, a-b-da, 2, 1, 2, 10, 135, 60, 134, 59, 60, 135, 3, 1.59755
202, 2, wb, attraction, a-b-da, 2, 1, 2, 10, 135, 60, 134, 59, 60, 135, 2, 0.91632
202, 2, wb, filler, NA, 999, 999, 2, 11, 57, 160, 86, 93, 116, 137, 2, 0.62139
202, 2, wb, filler, NA, 999, 999, 2, 11, 57, 160, 86, 93, 116, 137, 3, 1.40311
202, 2, wb, attraction, a-b-da, 14, 1, 2, 12, 135, 60, 125, 56, 60, 135, 1, 1.52851
202, 2, wb, attraction, a-b-da, 14, 1, 2, 12, 135, 60, 125, 56, 60, 135, 3, 0.738034
202, 2, wb, catch, NA, 999, 999, 2, 13, 125, 190, 94, 161, 74, 121, 3, 0.674456
202, 2, wb, catch, NA, 999, 999, 2, 13, 125, 190, 94, 161, 74, 121, 1, 0.302183
202, 2, wb, filler, NA, 999, 999, 2, 14, 167, 150, 160, 77, 69, 109, 3, 0.568067
202, 2, wb, filler, NA, 999, 999, 2, 14, 167, 150, 160, 77, 69, 109, 1, 0.312508
202, 2, wb, attraction, a-b-da, 9, 1, 2, 15, 60, 135, 129, 57, 135, 60, 1, 2.70581
202, 2, wb, attraction, a-b-da, 9, 1, 2, 15, 60, 135, 129, 57, 135, 60, 3, 0.619492
202, 2, wb, attraction, a-b-da, 5, 1, 2, 16, 132, 58, 60, 135, 135, 60, 3, 3.0725
202, 2, wb, attraction, a-b-da, 5, 1, 2, 16, 132, 58, 60, 135, 135, 60, 1, 1.49148
202, 2, wb, attraction, a-b-da, 9, 3, 2, 17, 195, 120, 120, 195, 186, 114, 3, 2.41297
202, 2, wb, attraction, a-b-da, 9, 3, 2, 17, 195, 120, 120, 195, 186, 114, 1, 1.0669
202, 2, wb, attraction, a-b-da, 2, 2, 2, 18, 165, 90, 163, 89, 90, 165, 2, 4.64587
202, 2, wb, attraction, a-b-da, 2, 2, 2, 18, 165, 90, 163, 89, 90, 165, 1, 0.377663
202, 2, wb, attraction, a-b-da, 5, 2, 2, 19, 90, 165, 161, 88, 165, 90, 2, 3.18421
202, 2, wb, attraction, a-b-da, 5, 2, 2, 19, 90, 165, 161, 88, 165, 90, 1, 0.207171
202, 2, wb, attraction, a-b-db, 2, 1, 2, 20, 60, 135, 59, 134, 135, 60, 3, 0.908365
202, 2, wb, attraction, a-b-db, 2, 1, 2, 20, 60, 135, 59, 134, 135, 60, 1, 1.50273
202, 2, wb, filler, NA, 999, 999, 2, 21, 145, 155, 62, 84, 101, 116, 2, 0.688219
202, 2, wb, filler, NA, 999, 999, 2, 21, 145, 155, 62, 84, 101, 116, 1, 0.251319
202, 2, wb, attraction, a-b-db, 5, 3, 2, 22, 117, 190, 120, 195, 195, 120, 1, 5.5592
202, 2, wb, attraction, a-b-db, 5, 3, 2, 22, 117, 190, 120, 195, 195, 120, 2, 0.262169
202, 2, wb, attraction, a-b-db, 2, 3, 2, 23, 195, 120, 119, 193, 120, 195, 2, 3.98524
202, 2, wb, attraction, a-b-db, 2, 3, 2, 23, 195, 120, 119, 193, 120, 195, 3, 0.207991
202, 2, wb, attraction, a-b-db, 5, 2, 2, 24, 90, 165, 88, 161, 165, 90, 2, 1.8933
202, 2, wb, attraction, a-b-db, 5, 2, 2, 24, 90, 165, 88, 161, 165, 90, 1, 0.239921
202, 2, wb, attraction, a-b-db, 14, 3, 2, 25, 195, 120, 111, 181, 120, 195, 2, 1.33176
202, 2, wb, attraction, a-b-db, 14, 3, 2, 25, 195, 120, 111, 181, 120, 195, 3, 0.221406
202, 2, wb, filler, NA, 999, 999, 2, 26, 166, 83, 66, 189, 168, 195, 1, 1.44261
202, 2, wb, filler, NA, 999, 999, 2, 26, 166, 83, 66, 189, 168, 195, 3, 0.535357
202, 2, wb, attraction, a-b-db, 2, 2, 2, 27, 90, 165, 89, 163, 165, 90, 1, 1.30383
202, 2, wb, attraction, a-b-db, 2, 2, 2, 27, 90, 165, 89, 163, 165, 90, 3, 0.698803
202, 2, wb, attraction, a-b-db, 9, 3, 2, 28, 114, 186, 195, 120, 120, 195, 1, 1.36443
202, 2, wb, attraction, a-b-db, 9, 3, 2, 28, 114, 186, 195, 120, 120, 195, 3, 0.812669
202, 2, wb, filler, NA, 999, 999, 2, 29, 92, 184, 171, 168, 137, 102, 3, 1.50577
202, 2, wb, filler, NA, 999, 999, 2, 29, 92, 184, 171, 168, 137, 102, 2, 0.339888
202, 2, wb, attraction, a-b-db, 14, 1, 2, 30, 135, 60, 60, 135, 56, 125, 3, 0.947711
202, 2, wb, attraction, a-b-db, 14, 1, 2, 30, 135, 60, 60, 135, 56, 125, 2, 0.548822
202, 2, wb, filler, NA, 999, 999, 2, 31, 129, 130, 180, 138, 192, 191, 1, 0.72454
202, 2, wb, filler, NA, 999, 999, 2, 31, 129, 130, 180, 138, 192, 191, 3, 0.262214
202, 2, wb, attraction, a-b-da, 5, 3, 2, 32, 195, 120, 190, 117, 120, 195, 3, 1.16957
202, 2, wb, attraction, a-b-da, 5, 3, 2, 32, 195, 120, 190, 117, 120, 195, 1, 0.297661
202, 2, wb, attraction, a-b-db, 9, 1, 2, 33, 60, 135, 57, 129, 135, 60, 2, 1.21949
202, 2, wb, attraction, a-b-db, 9, 1, 2, 33, 60, 135, 57, 129, 135, 60, 3, 0.529778
202, 2, wb, attraction, a-b-da, 14, 3, 2, 34, 120, 195, 195, 120, 181, 111, 3, 2.6423
202, 2, wb, attraction, a-b-da, 14, 3, 2, 34, 120, 195, 195, 120, 181, 111, 1, 0.310935
202, 2, wb, attraction, a-b-da, 14, 2, 2, 35, 90, 165, 165, 90, 153, 83, 3, 0.807978
202, 2, wb, attraction, a-b-da, 14, 2, 2, 35, 90, 165, 165, 90, 153, 83, 1, 0.462329
202, 2, wb, catch, NA, 999, 999, 2, 36, 150, 105, 98, 97, 146, 169, 2, 0.721384
202, 2, wb, catch, NA, 999, 999, 2, 36, 150, 105, 98, 97, 146, 169, 3, 0.227148
202, 2, wb, filler, NA, 999, 999, 2, 37, 61, 188, 96, 166, 171, 87, 1, 3.73588
202, 2, wb, filler, NA, 999, 999, 2, 37, 61, 188, 96, 166, 171, 87, 2, 0.344664
202, 2, wb, catch, NA, 999, 999, 3, 1, 129, 186, 159, 96, 97, 98, 3, 2.09641
202, 2, wb, catch, NA, 999, 999, 3, 1, 129, 186, 159, 96, 97, 98, 1, 0.179039
202, 2, wb, filler, NA, 999, 999, 3, 2, 172, 72, 163, 152, 102, 193, 1, 1.92966
202, 2, wb, filler, NA, 999, 999, 3, 2, 172, 72, 163, 152, 102, 193, 2, 0.19493
202, 2, wb, attraction, a-b-db, 5, 2, 3, 3, 88, 161, 90, 165, 165, 90, 1, 1.72086
202, 2, wb, attraction, a-b-db, 5, 2, 3, 3, 88, 161, 90, 165, 165, 90, 3, 1.5703
202, 2, wb, attraction, a-b-da, 2, 1, 3, 4, 135, 60, 60, 135, 134, 59, 3, 0.801018
202, 2, wb, attraction, a-b-da, 2, 1, 3, 4, 135, 60, 60, 135, 134, 59, 2, 0.760031
202, 2, wb, filler, NA, 999, 999, 3, 5, 194, 191, 174, 113, 136, 81, 3, 1.36721
202, 2, wb, filler, NA, 999, 999, 3, 5, 194, 191, 174, 113, 136, 81, 1, 0.231348
202, 2, wb, attraction, a-b-db, 14, 3, 3, 6, 111, 181, 195, 120, 120, 195, 1, 0.811868
202, 2, wb, attraction, a-b-db, 14, 3, 3, 6, 111, 181, 195, 120, 120, 195, 2, 0.674215
202, 2, wb, filler, NA, 999, 999, 3, 7, 65, 106, 87, 159, 111, 57, 1, 0.644652
202, 2, wb, filler, NA, 999, 999, 3, 7, 65, 106, 87, 159, 111, 57, 2, 0.673797
202, 2, wb, attraction, a-b-db, 2, 1, 3, 8, 60, 135, 59, 134, 135, 60, 1, 4.18015
202, 2, wb, attraction, a-b-db, 2, 1, 3, 8, 60, 135, 59, 134, 135, 60, 3, 0.826803
202, 2, wb, filler, NA, 999, 999, 3, 9, 103, 130, 142, 105, 57, 159, 3, 1.11113
202, 2, wb, filler, NA, 999, 999, 3, 9, 103, 130, 142, 105, 57, 159, 1, 0.449486
202, 2, wb, filler, NA, 999, 999, 3, 10, 71, 176, 109, 183, 150, 64, 3, 1.03729
202, 2, wb, filler, NA, 999, 999, 3, 10, 71, 176, 109, 183, 150, 64, 2, 0.506978
202, 2, wb, attraction, a-b-db, 9, 3, 3, 11, 120, 195, 114, 186, 195, 120, 2, 2.32402
202, 2, wb, attraction, a-b-db, 9, 3, 3, 11, 120, 195, 114, 186, 195, 120, 3, 0.269426
202, 2, wb, attraction, a-b-db, 14, 1, 3, 12, 60, 135, 135, 60, 56, 125, 3, 0.912415
202, 2, wb, attraction, a-b-db, 14, 1, 3, 12, 60, 135, 135, 60, 56, 125, 2, 0.842801
202, 2, wb, attraction, a-b-db, 9, 1, 3, 13, 60, 135, 57, 129, 135, 60, 2, 1.14249
202, 2, wb, attraction, a-b-db, 9, 1, 3, 13, 60, 135, 57, 129, 135, 60, 1, 1.01545
202, 2, wb, attraction, a-b-da, 2, 2, 3, 14, 163, 89, 90, 165, 165, 90, 2, 1.14031
202, 2, wb, attraction, a-b-da, 2, 2, 3, 14, 163, 89, 90, 165, 165, 90, 1, 0.901309
202, 2, wb, attraction, a-b-da, 14, 1, 3, 15, 135, 60, 60, 135, 125, 56, 3, 1.27102
202, 2, wb, attraction, a-b-da, 14, 1, 3, 15, 135, 60, 60, 135, 125, 56, 1, 0.498632
202, 2, wb, catch, NA, 999, 999, 3, 16, 152, 103, 184, 131, 71, 124, 3, 0.740381
202, 2, wb, catch, NA, 999, 999, 3, 16, 152, 103, 184, 131, 71, 124, 2, 0.365503
202, 2, wb, attraction, a-b-da, 14, 2, 3, 17, 165, 90, 90, 165, 153, 83, 3, 1.54052
202, 2, wb, attraction, a-b-da, 14, 2, 3, 17, 165, 90, 90, 165, 153, 83, 2, 0.533352
202, 2, wb, attraction, a-b-da, 5, 2, 3, 18, 165, 90, 90, 165, 161, 88, 3, 0.83783
202, 2, wb, attraction, a-b-da, 5, 2, 3, 18, 165, 90, 90, 165, 161, 88, 2, 1.06707
202, 2, wb, filler, NA, 999, 999, 3, 19, 93, 177, 77, 117, 62, 107, 3, 0.517961
202, 2, wb, filler, NA, 999, 999, 3, 19, 93, 177, 77, 117, 62, 107, 1, 0.256351
202, 2, wb, filler, NA, 999, 999, 3, 20, 116, 123, 83, 143, 83, 147, 3, 2.29963
202, 2, wb, filler, NA, 999, 999, 3, 20, 116, 123, 83, 143, 83, 147, 1, 2.98221
202, 2, wb, attraction, a-b-db, 14, 2, 3, 21, 90, 165, 165, 90, 83, 153, 3, 0.955862
202, 2, wb, attraction, a-b-db, 14, 2, 3, 21, 90, 165, 165, 90, 83, 153, 1, 1.27608
202, 2, wb, attraction, a-b-db, 2, 3, 3, 22, 195, 120, 119, 193, 120, 195, 2, 2.11839
202, 2, wb, attraction, a-b-db, 2, 3, 3, 22, 195, 120, 119, 193, 120, 195, 1, 0.424455
202, 2, wb, attraction, a-b-da, 5, 1, 3, 23, 132, 58, 135, 60, 60, 135, 3, 0.812798
202, 2, wb, attraction, a-b-da, 5, 1, 3, 23, 132, 58, 135, 60, 60, 135, 2, 0.715191
202, 2, wb, attraction, a-b-da, 9, 2, 3, 24, 165, 90, 157, 86, 90, 165, 2, 1.95624
202, 2, wb, attraction, a-b-da, 9, 2, 3, 24, 165, 90, 157, 86, 90, 165, 1, 0.452383
202, 2, wb, attraction, a-b-db, 9, 2, 3, 25, 165, 90, 86, 157, 90, 165, 1, 1.54403
202, 2, wb, attraction, a-b-db, 9, 2, 3, 25, 165, 90, 86, 157, 90, 165, 3, 0.712907
202, 2, wb, attraction, a-b-da, 5, 3, 3, 26, 120, 195, 190, 117, 195, 120, 2, 3.72992
202, 2, wb, attraction, a-b-da, 5, 3, 3, 26, 120, 195, 190, 117, 195, 120, 1, 0.266845
202, 2, wb, catch, NA, 999, 999, 3, 27, 96, 99, 126, 189, 96, 159, 1, 1.02989
202, 2, wb, catch, NA, 999, 999, 3, 27, 96, 99, 126, 189, 96, 159, 2, 0.179583
202, 2, wb, attraction, a-b-db, 5, 3, 3, 28, 117, 190, 195, 120, 120, 195, 3, 7.04227
202, 2, wb, attraction, a-b-db, 5, 3, 3, 28, 117, 190, 195, 120, 120, 195, 1, 0.757318
202, 2, wb, filler, NA, 999, 999, 3, 29, 119, 132, 90, 112, 91, 92, 3, 0.716263
202, 2, wb, filler, NA, 999, 999, 3, 29, 119, 132, 90, 112, 91, 92, 1, 0.318764
202, 2, wb, filler, NA, 999, 999, 3, 30, 98, 153, 149, 111, 181, 155, 1, 1.3439
202, 2, wb, filler, NA, 999, 999, 3, 30, 98, 153, 149, 111, 181, 155, 3, 0.248922
202, 2, wb, attraction, a-b-da, 2, 3, 3, 31, 120, 195, 193, 119, 195, 120, 2, 1.7807
202, 2, wb, attraction, a-b-da, 2, 3, 3, 31, 120, 195, 193, 119, 195, 120, 3, 0.244006
202, 2, wb, attraction, a-b-da, 9, 1, 3, 32, 60, 135, 129, 57, 135, 60, 2, 1.71182
202, 2, wb, attraction, a-b-da, 9, 1, 3, 32, 60, 135, 129, 57, 135, 60, 3, 1.09817
202, 2, wb, attraction, a-b-da, 14, 3, 3, 33, 195, 120, 181, 111, 120, 195, 2, 3.25157
202, 2, wb, attraction, a-b-da, 14, 3, 3, 33, 195, 120, 181, 111, 120, 195, 1, 0.383956
202, 2, wb, attraction, a-b-db, 2, 2, 3, 34, 90, 165, 89, 163, 165, 90, 3, 0.782411
202, 2, wb, attraction, a-b-db, 2, 2, 3, 34, 90, 165, 89, 163, 165, 90, 2, 0.47804
202, 2, wb, attraction, a-b-db, 5, 1, 3, 35, 135, 60, 60, 135, 58, 132, 3, 1.14465
202, 2, wb, attraction, a-b-db, 5, 1, 3, 35, 135, 60, 60, 135, 58, 132, 2, 0.489481
202, 2, wb, attraction, a-b-da, 9, 3, 3, 36, 186, 114, 195, 120, 120, 195, 1, 3.3714
202, 2, wb, attraction, a-b-da, 9, 3, 3, 36, 186, 114, 195, 120, 120, 195, 3, 0.258255
202, 2, wb, filler, NA, 999, 999, 3, 37, 104, 145, 82, 135, 184, 128, 2, 0.701359
202, 2, wb, filler, NA, 999, 999, 3, 37, 104, 145, 82, 135, 184, 128, 3, 0.240499
202, 2, wb, attraction, a-b-da, 14, 2, 4, 1, 90, 165, 153, 83, 165, 90, 2, 1.46839
202, 2, wb, attraction, a-b-da, 14, 2, 4, 1, 90, 165, 153, 83, 165, 90, 3, 3.24049
202, 2, wb, attraction, a-b-db, 2, 2, 4, 2, 90, 165, 89, 163, 165, 90, 1, 2.05151
202, 2, wb, attraction, a-b-db, 2, 2, 4, 2, 90, 165, 89, 163, 165, 90, 2, 0.504142
202, 2, wb, attraction, a-b-da, 9, 2, 4, 3, 165, 90, 157, 86, 90, 165, 1, 2.49796
202, 2, wb, attraction, a-b-da, 9, 2, 4, 3, 165, 90, 157, 86, 90, 165, 3, 0.556489
202, 2, wb, attraction, a-b-da, 9, 1, 4, 4, 60, 135, 129, 57, 135, 60, 2, 0.819501
202, 2, wb, attraction, a-b-da, 9, 1, 4, 4, 60, 135, 129, 57, 135, 60, 1, 0.785904
202, 2, wb, filler, NA, 999, 999, 4, 5, 105, 161, 59, 191, 128, 110, 3, 0.944232
202, 2, wb, filler, NA, 999, 999, 4, 5, 105, 161, 59, 191, 128, 110, 1, 0.481273
202, 2, wb, attraction, a-b-da, 9, 3, 4, 6, 186, 114, 195, 120, 120, 195, 1, 1.3558
202, 2, wb, attraction, a-b-da, 9, 3, 4, 6, 186, 114, 195, 120, 120, 195, 3, 0.55592
202, 2, wb, attraction, a-b-da, 2, 1, 4, 7, 135, 60, 134, 59, 60, 135, 3, 1.13907
202, 2, wb, attraction, a-b-da, 2, 1, 4, 7, 135, 60, 134, 59, 60, 135, 2, 0.484055
202, 2, wb, attraction, a-b-da, 2, 2, 4, 8, 90, 165, 163, 89, 165, 90, 2, 3.75854
202, 2, wb, attraction, a-b-da, 2, 2, 4, 8, 90, 165, 163, 89, 165, 90, 1, 0.389984
202, 2, wb, attraction, a-b-db, 2, 1, 4, 9, 59, 134, 60, 135, 135, 60, 1, 1.89979
202, 2, wb, attraction, a-b-db, 2, 1, 4, 9, 59, 134, 60, 135, 135, 60, 3, 0.334497
202, 2, wb, filler, NA, 999, 999, 4, 10, 152, 103, 151, 158, 181, 139, 1, 1.11099
202, 2, wb, filler, NA, 999, 999, 4, 10, 152, 103, 151, 158, 181, 139, 3, 0.185223
202, 2, wb, attraction, a-b-db, 5, 3, 4, 11, 195, 120, 117, 190, 120, 195, 2, 1.8959
202, 2, wb, attraction, a-b-db, 5, 3, 4, 11, 195, 120, 117, 190, 120, 195, 1, 2.07458
202, 2, wb, catch, NA, 999, 999, 4, 12, 169, 146, 111, 84, 123, 132, 1, 1.00446
202, 2, wb, catch, NA, 999, 999, 4, 12, 169, 146, 111, 84, 123, 132, 3, 1.65881
202, 2, wb, attraction, a-b-da, 5, 2, 4, 13, 90, 165, 165, 90, 161, 88, 2, 7.20557
202, 2, wb, attraction, a-b-da, 5, 2, 4, 13, 90, 165, 165, 90, 161, 88, 1, 0.498707
202, 2, wb, filler, NA, 999, 999, 4, 14, 164, 187, 185, 160, 110, 77, 3, 0.612412
202, 2, wb, filler, NA, 999, 999, 4, 14, 164, 187, 185, 160, 110, 77, 2, 0.426831
202, 2, wb, attraction, a-b-da, 14, 3, 4, 15, 120, 195, 195, 120, 181, 111, 3, 1.13543
202, 2, wb, attraction, a-b-da, 14, 3, 4, 15, 120, 195, 195, 120, 181, 111, 1, 0.705066
202, 2, wb, catch, NA, 999, 999, 4, 16, 63, 132, 116, 139, 158, 157, 1, 0.666763
202, 2, wb, catch, NA, 999, 999, 4, 16, 63, 132, 116, 139, 158, 157, 3, 0.303083
202, 2, wb, attraction, a-b-db, 9, 1, 4, 17, 57, 129, 60, 135, 135, 60, 1, 2.36905
202, 2, wb, attraction, a-b-db, 9, 1, 4, 17, 57, 129, 60, 135, 135, 60, 3, 0.448887
202, 2, wb, attraction, a-b-db, 14, 2, 4, 18, 83, 153, 90, 165, 165, 90, 1, 2.45271
202, 2, wb, attraction, a-b-db, 14, 2, 4, 18, 83, 153, 90, 165, 165, 90, 2, 0.737216
202, 2, wb, filler, NA, 999, 999, 4, 19, 76, 65, 141, 75, 135, 122, 1, 0.657521
202, 2, wb, filler, NA, 999, 999, 4, 19, 76, 65, 141, 75, 135, 122, 3, 0.861988
202, 2, wb, filler, NA, 999, 999, 4, 20, 186, 172, 140, 138, 68, 109, 3, 0.608989
202, 2, wb, filler, NA, 999, 999, 4, 20, 186, 172, 140, 138, 68, 109, 1, 0.247634
202, 2, wb, attraction, a-b-db, 2, 3, 4, 21, 119, 193, 195, 120, 120, 195, 3, 3.67538
202, 2, wb, attraction, a-b-db, 2, 3, 4, 21, 119, 193, 195, 120, 120, 195, 1, 0.246191
202, 2, wb, filler, NA, 999, 999, 4, 22, 161, 195, 68, 94, 101, 56, 3, 0.618038
202, 2, wb, filler, NA, 999, 999, 4, 22, 161, 195, 68, 94, 101, 56, 1, 0.28049
202, 2, wb, filler, NA, 999, 999, 4, 23, 149, 102, 159, 71, 177, 193, 2, 1.22702
202, 2, wb, filler, NA, 999, 999, 4, 23, 149, 102, 159, 71, 177, 193, 3, 0.216534
202, 2, wb, attraction, a-b-da, 5, 1, 4, 24, 132, 58, 135, 60, 60, 135, 3, 0.781755
202, 2, wb, attraction, a-b-da, 5, 1, 4, 24, 132, 58, 135, 60, 60, 135, 1, 0.837493
202, 2, wb, filler, NA, 999, 999, 4, 25, 56, 184, 155, 97, 88, 57, 3, 0.521801
202, 2, wb, filler, NA, 999, 999, 4, 25, 56, 184, 155, 97, 88, 57, 2, 0.299749
202, 2, wb, attraction, a-b-db, 14, 3, 4, 26, 111, 181, 120, 195, 195, 120, 1, 0.917497
202, 2, wb, attraction, a-b-db, 14, 3, 4, 26, 111, 181, 120, 195, 195, 120, 3, 0.647921
202, 2, wb, catch, NA, 999, 999, 4, 27, 129, 126, 152, 163, 65, 130, 3, 0.507755
202, 2, wb, catch, NA, 999, 999, 4, 27, 129, 126, 152, 163, 65, 130, 2, 0.286141
202, 2, wb, attraction, a-b-da, 14, 1, 4, 28, 125, 56, 60, 135, 135, 60, 2, 0.968579
202, 2, wb, attraction, a-b-da, 14, 1, 4, 28, 125, 56, 60, 135, 135, 60, 3, 0.969031
202, 2, wb, attraction, a-b-db, 14, 1, 4, 29, 60, 135, 56, 125, 135, 60, 2, 1.11993
202, 2, wb, attraction, a-b-db, 14, 1, 4, 29, 60, 135, 56, 125, 135, 60, 3, 0.442197
202, 2, wb, filler, NA, 999, 999, 4, 30, 109, 194, 194, 140, 113, 141, 3, 0.534131
202, 2, wb, filler, NA, 999, 999, 4, 30, 109, 194, 194, 140, 113, 141, 2, 0.319871
202, 2, wb, attraction, a-b-db, 9, 3, 4, 31, 114, 186, 120, 195, 195, 120, 1, 1.20107
202, 2, wb, attraction, a-b-db, 9, 3, 4, 31, 114, 186, 120, 195, 195, 120, 3, 0.687943
202, 2, wb, attraction, a-b-da, 5, 3, 4, 32, 120, 195, 195, 120, 190, 117, 1, 1.53831
202, 2, wb, attraction, a-b-da, 5, 3, 4, 32, 120, 195, 195, 120, 190, 117, 3, 0.707154
202, 2, wb, attraction, a-b-db, 5, 1, 4, 33, 58, 132, 135, 60, 60, 135, 1, 1.70021
202, 2, wb, attraction, a-b-db, 5, 1, 4, 33, 58, 132, 135, 60, 60, 135, 2, 0.975002
202, 2, wb, attraction, a-b-db, 5, 2, 4, 34, 165, 90, 90, 165, 88, 161, 3, 1.33325
202, 2, wb, attraction, a-b-db, 5, 2, 4, 34, 165, 90, 90, 165, 88, 161, 2, 0.470884
202, 2, wb, attraction, a-b-db, 9, 2, 4, 35, 165, 90, 86, 157, 90, 165, 3, 1.55398
202, 2, wb, attraction, a-b-db, 9, 2, 4, 35, 165, 90, 86, 157, 90, 165, 1, 0.386846
202, 2, wb, attraction, a-b-da, 2, 3, 4, 36, 193, 119, 120, 195, 195, 120, 3, 2.00931
202, 2, wb, attraction, a-b-da, 2, 3, 4, 36, 193, 119, 120, 195, 195, 120, 1, 2.0473
202, 2, wb, filler, NA, 999, 999, 4, 37, 190, 67, 167, 104, 72, 144, 3, 1.21058
202, 2, wb, filler, NA, 999, 999, 4, 37, 190, 67, 167, 104, 72, 144, 2, 0.512921
202, 2, wb, attraction, a-b-da, 14, 1, 5, 1, 125, 56, 60, 135, 135, 60, 1, 2.53652
202, 2, wb, attraction, a-b-da, 14, 1, 5, 1, 125, 56, 60, 135, 135, 60, 3, 0.513799
202, 2, wb, filler, NA, 999, 999, 5, 2, 136, 102, 83, 92, 176, 193, 2, 0.698856
202, 2, wb, filler, NA, 999, 999, 5, 2, 136, 102, 83, 92, 176, 193, 3, 0.26997
202, 2, wb, filler, NA, 999, 999, 5, 3, 177, 167, 156, 80, 185, 67, 3, 2.25727
202, 2, wb, filler, NA, 999, 999, 5, 3, 177, 167, 156, 80, 185, 67, 1, 0.325067
202, 2, wb, attraction, a-b-db, 14, 2, 5, 4, 165, 90, 90, 165, 83, 153, 1, 1.88567
202, 2, wb, attraction, a-b-db, 14, 2, 5, 4, 165, 90, 90, 165, 83, 153, 2, 0.449048
202, 2, wb, attraction, a-b-da, 9, 2, 5, 5, 165, 90, 157, 86, 90, 165, 2, 1.49296
202, 2, wb, attraction, a-b-da, 9, 2, 5, 5, 165, 90, 157, 86, 90, 165, 1, 0.783691
202, 2, wb, catch, NA, 999, 999, 5, 6, 124, 191, 148, 107, 105, 90, 3, 0.517952
202, 2, wb, catch, NA, 999, 999, 5, 6, 124, 191, 148, 107, 105, 90, 1, 0.360457
202, 2, wb, attraction, a-b-db, 5, 3, 5, 7, 195, 120, 117, 190, 120, 195, 3, 2.76766
202, 2, wb, attraction, a-b-db, 5, 3, 5, 7, 195, 120, 117, 190, 120, 195, 2, 0.239358
202, 2, wb, filler, NA, 999, 999, 5, 8, 157, 144, 99, 116, 91, 72, 3, 0.451268
202, 2, wb, filler, NA, 999, 999, 5, 8, 157, 144, 99, 116, 91, 72, 1, 0.232509
202, 2, wb, attraction, a-b-db, 5, 1, 5, 9, 60, 135, 58, 132, 135, 60, 2, 1.92508
202, 2, wb, attraction, a-b-db, 5, 1, 5, 9, 60, 135, 58, 132, 135, 60, 3, 1.1824
202, 2, wb, attraction, a-b-da, 5, 2, 5, 10, 161, 88, 90, 165, 165, 90, 3, 2.38862
202, 2, wb, attraction, a-b-da, 5, 2, 5, 10, 161, 88, 90, 165, 165, 90, 2, 1.27526
202, 2, wb, filler, NA, 999, 999, 5, 11, 128, 59, 192, 81, 111, 99, 1, 1.90937
202, 2, wb, filler, NA, 999, 999, 5, 11, 128, 59, 192, 81, 111, 99, 2, 0.623389
202, 2, wb, attraction, a-b-da, 9, 1, 5, 12, 135, 60, 129, 57, 60, 135, 3, 2.45998
202, 2, wb, attraction, a-b-da, 9, 1, 5, 12, 135, 60, 129, 57, 60, 135, 1, 0.495754
202, 2, wb, attraction, a-b-da, 5, 3, 5, 13, 120, 195, 195, 120, 190, 117, 3, 3.1215
202, 2, wb, attraction, a-b-da, 5, 3, 5, 13, 120, 195, 195, 120, 190, 117, 2, 0.714429
202, 2, wb, filler, NA, 999, 999, 5, 14, 166, 184, 70, 168, 113, 67, 3, 1.24353
202, 2, wb, filler, NA, 999, 999, 5, 14, 166, 184, 70, 168, 113, 67, 1, 0.280377
202, 2, wb, attraction, a-b-da, 5, 1, 5, 15, 132, 58, 135, 60, 60, 135, 3, 2.00309
202, 2, wb, attraction, a-b-da, 5, 1, 5, 15, 132, 58, 135, 60, 60, 135, 1, 1.79362
202, 2, wb, attraction, a-b-db, 9, 2, 5, 16, 165, 90, 90, 165, 86, 157, 3, 1.03898
202, 2, wb, attraction, a-b-db, 9, 2, 5, 16, 165, 90, 90, 165, 86, 157, 1, 0.70802
202, 2, wb, catch, NA, 999, 999, 5, 17, 119, 136, 149, 166, 67, 128, 3, 0.933063
202, 2, wb, catch, NA, 999, 999, 5, 17, 119, 136, 149, 166, 67, 128, 2, 0.214746
202, 2, wb, attraction, a-b-db, 5, 2, 5, 18, 90, 165, 165, 90, 88, 161, 1, 5.21998
202, 2, wb, attraction, a-b-db, 5, 2, 5, 18, 90, 165, 165, 90, 88, 161, 3, 1.25701
202, 2, wb, attraction, a-b-da, 14, 2, 5, 19, 90, 165, 153, 83, 165, 90, 2, 1.40391
202, 2, wb, attraction, a-b-da, 14, 2, 5, 19, 90, 165, 153, 83, 165, 90, 3, 0.450918
202, 2, wb, attraction, a-b-db, 14, 3, 5, 20, 195, 120, 111, 181, 120, 195, 2, 2.0066
202, 2, wb, attraction, a-b-db, 14, 3, 5, 20, 195, 120, 111, 181, 120, 195, 1, 1.13255
202, 2, wb, filler, NA, 999, 999, 5, 21, 114, 134, 157, 84, 194, 152, 2, 4.02085
202, 2, wb, filler, NA, 999, 999, 5, 21, 114, 134, 157, 84, 194, 152, 3, 0.345516
202, 2, wb, attraction, a-b-da, 2, 1, 5, 22, 60, 135, 134, 59, 135, 60, 3, 4.2574
202, 2, wb, attraction, a-b-da, 2, 1, 5, 22, 60, 135, 134, 59, 135, 60, 1, 0.66866
202, 2, wb, filler, NA, 999, 999, 5, 23, 121, 156, 188, 92, 189, 93, 2, 8.74376
202, 2, wb, filler, NA, 999, 999, 5, 23, 121, 156, 188, 92, 189, 93, 1, 0.470325
202, 2, wb, filler, NA, 999, 999, 5, 24, 162, 143, 104, 128, 133, 158, 2, 0.825396
202, 2, wb, filler, NA, 999, 999, 5, 24, 162, 143, 104, 128, 133, 158, 1, 0.415111
202, 2, wb, filler, NA, 999, 999, 5, 25, 64, 187, 107, 176, 121, 145, 1, 2.62033
202, 2, wb, filler, NA, 999, 999, 5, 25, 64, 187, 107, 176, 121, 145, 2, 1.32215
202, 2, wb, attraction, a-b-da, 14, 3, 5, 26, 181, 111, 195, 120, 120, 195, 1, 1.89892
202, 2, wb, attraction, a-b-da, 14, 3, 5, 26, 181, 111, 195, 120, 120, 195, 2, 1.10175
202, 2, wb, catch, NA, 999, 999, 5, 27, 133, 182, 149, 106, 81, 114, 3, 0.583249
202, 2, wb, catch, NA, 999, 999, 5, 27, 133, 182, 149, 106, 81, 114, 1, 0.279069
202, 2, wb, attraction, a-b-db, 2, 1, 5, 28, 135, 60, 59, 134, 60, 135, 3, 4.71363
202, 2, wb, attraction, a-b-db, 2, 1, 5, 28, 135, 60, 59, 134, 60, 135, 1, 0.370684
202, 2, wb, attraction, a-b-da, 2, 3, 5, 29, 120, 195, 195, 120, 193, 119, 3, 3.65798
202, 2, wb, attraction, a-b-da, 2, 3, 5, 29, 120, 195, 195, 120, 193, 119, 1, 0.805549
202, 2, wb, attraction, a-b-db, 14, 1, 5, 30, 135, 60, 60, 135, 56, 125, 3, 1.26708
202, 2, wb, attraction, a-b-db, 14, 1, 5, 30, 135, 60, 60, 135, 56, 125, 2, 2.25535
202, 2, wb, attraction, a-b-db, 2, 2, 5, 31, 89, 163, 165, 90, 90, 165, 1, 2.4506
202, 2, wb, attraction, a-b-db, 2, 2, 5, 31, 89, 163, 165, 90, 90, 165, 2, 0.791143
202, 2, wb, attraction, a-b-db, 9, 3, 5, 32, 120, 195, 114, 186, 195, 120, 3, 10.7437
202, 2, wb, attraction, a-b-db, 9, 3, 5, 32, 120, 195, 114, 186, 195, 120, 2, 1.30676
202, 2, wb, attraction, a-b-db, 2, 3, 5, 33, 195, 120, 120, 195, 119, 193, 3, 2.28364
202, 2, wb, attraction, a-b-db, 2, 3, 5, 33, 195, 120, 120, 195, 119, 193, 1, 0.270876
202, 2, wb, filler, NA, 999, 999, 5, 34, 162, 94, 96, 130, 96, 161, 2, 6.03408
202, 2, wb, filler, NA, 999, 999, 5, 34, 162, 94, 96, 130, 96, 161, 3, 0.550127
202, 2, wb, attraction, a-b-da, 2, 2, 5, 35, 165, 90, 163, 89, 90, 165, 1, 2.566
202, 2, wb, attraction, a-b-da, 2, 2, 5, 35, 165, 90, 163, 89, 90, 165, 2, 2.5739
202, 2, wb, attraction, a-b-da, 9, 3, 5, 36, 195, 120, 186, 114, 120, 195, 2, 2.25158
202, 2, wb, attraction, a-b-da, 9, 3, 5, 36, 195, 120, 186, 114, 120, 195, 1, 0.456214
202, 2, wb, attraction, a-b-db, 9, 1, 5, 37, 135, 60, 57, 129, 60, 135, 2, 2.73929
202, 2, wb, attraction, a-b-db, 9, 1, 5, 37, 135, 60, 57, 129, 60, 135, 1, 1.28377
202, 2, wb, attraction, a-b-db, 5, 2, 6, 1, 88, 161, 165, 90, 90, 165, 1, 2.80596
202, 2, wb, attraction, a-b-db, 5, 2, 6, 1, 88, 161, 165, 90, 90, 165, 2, 0.66774
202, 2, wb, attraction, a-b-db, 2, 3, 6, 2, 120, 195, 195, 120, 119, 193, 3, 1.51879
202, 2, wb, attraction, a-b-db, 2, 3, 6, 2, 120, 195, 195, 120, 119, 193, 2, 2.0811
202, 2, wb, attraction, a-b-da, 9, 2, 6, 3, 90, 165, 157, 86, 165, 90, 2, 1.63504
202, 2, wb, attraction, a-b-da, 9, 2, 6, 3, 90, 165, 157, 86, 165, 90, 3, 0.880394
202, 2, wb, attraction, a-b-da, 2, 2, 6, 4, 90, 165, 163, 89, 165, 90, 2, 1.11473
202, 2, wb, attraction, a-b-da, 2, 2, 6, 4, 90, 165, 163, 89, 165, 90, 3, 0.261089
202, 2, wb, catch, NA, 999, 999, 6, 5, 142, 173, 98, 97, 114, 141, 2, 0.552234
202, 2, wb, catch, NA, 999, 999, 6, 5, 142, 173, 98, 97, 114, 141, 1, 0.26536
202, 2, wb, catch, NA, 999, 999, 6, 6, 107, 88, 132, 183, 107, 148, 1, 0.804519
202, 2, wb, catch, NA, 999, 999, 6, 6, 107, 88, 132, 183, 107, 148, 2, 0.195129
202, 2, wb, attraction, a-b-db, 9, 2, 6, 7, 165, 90, 90, 165, 86, 157, 3, 1.18478
202, 2, wb, attraction, a-b-db, 9, 2, 6, 7, 165, 90, 90, 165, 86, 157, 1, 1.30459
202, 2, wb, attraction, a-b-db, 9, 3, 6, 8, 114, 186, 120, 195, 195, 120, 1, 1.93787
202, 2, wb, attraction, a-b-db, 9, 3, 6, 8, 114, 186, 120, 195, 195, 120, 3, 1.0907
202, 2, wb, filler, NA, 999, 999, 6, 9, 164, 171, 136, 120, 125, 89, 3, 1.39618
202, 2, wb, filler, NA, 999, 999, 6, 9, 164, 171, 136, 120, 125, 89, 1, 0.499103
202, 2, wb, attraction, a-b-da, 9, 1, 6, 10, 60, 135, 129, 57, 135, 60, 2, 3.43694
202, 2, wb, attraction, a-b-da, 9, 1, 6, 10, 60, 135, 129, 57, 135, 60, 1, 0.881751
202, 2, wb, attraction, a-b-da, 5, 2, 6, 11, 90, 165, 165, 90, 161, 88, 3, 0.988162
202, 2, wb, attraction, a-b-da, 5, 2, 6, 11, 90, 165, 165, 90, 161, 88, 1, 0.339161
202, 2, wb, attraction, a-b-db, 2, 1, 6, 12, 59, 134, 135, 60, 60, 135, 2, 3.70764
202, 2, wb, attraction, a-b-db, 2, 1, 6, 12, 59, 134, 135, 60, 60, 135, 3, 0.613084
202, 2, wb, filler, NA, 999, 999, 6, 13, 195, 70, 72, 77, 88, 184, 2, 0.570154
202, 2, wb, filler, NA, 999, 999, 6, 13, 195, 70, 72, 77, 88, 184, 3, 2.57795
202, 2, wb, attraction, a-b-da, 14, 2, 6, 14, 90, 165, 165, 90, 153, 83, 3, 2.06381
202, 2, wb, attraction, a-b-da, 14, 2, 6, 14, 90, 165, 165, 90, 153, 83, 2, 0.291766
202, 2, wb, attraction, a-b-db, 9, 1, 6, 15, 60, 135, 135, 60, 57, 129, 3, 1.32566
202, 2, wb, attraction, a-b-db, 9, 1, 6, 15, 60, 135, 135, 60, 57, 129, 2, 1.09522
202, 2, wb, attraction, a-b-da, 14, 3, 6, 16, 195, 120, 181, 111, 120, 195, 2, 3.68089
202, 2, wb, attraction, a-b-da, 14, 3, 6, 16, 195, 120, 181, 111, 120, 195, 1, 0.355766
202, 2, wb, catch, NA, 999, 999, 6, 17, 94, 101, 121, 194, 104, 151, 1, 0.635516
202, 2, wb, catch, NA, 999, 999, 6, 17, 94, 101, 121, 194, 104, 151, 2, 0.273252
202, 2, wb, attraction, a-b-db, 14, 1, 6, 18, 60, 135, 135, 60, 56, 125, 3, 3.22774
202, 2, wb, attraction, a-b-db, 14, 1, 6, 18, 60, 135, 135, 60, 56, 125, 1, 0.712809
202, 2, wb, filler, NA, 999, 999, 6, 19, 170, 110, 161, 170, 172, 102, 3, 1.68181
202, 2, wb, filler, NA, 999, 999, 6, 19, 170, 110, 161, 170, 172, 102, 2, 0.229315
202, 2, wb, filler, NA, 999, 999, 6, 20, 66, 124, 133, 100, 93, 151, 1, 1.35374
202, 2, wb, filler, NA, 999, 999, 6, 20, 66, 124, 133, 100, 93, 151, 3, 4.27466
202, 2, wb, attraction, a-b-da, 9, 3, 6, 21, 195, 120, 120, 195, 186, 114, 3, 0.996034
202, 2, wb, attraction, a-b-da, 9, 3, 6, 21, 195, 120, 120, 195, 186, 114, 2, 1.1309
202, 2, wb, filler, NA, 999, 999, 6, 22, 90, 82, 161, 100, 178, 127, 1, 0.507199
202, 2, wb, filler, NA, 999, 999, 6, 22, 90, 82, 161, 100, 178, 127, 3, 0.26159
202, 2, wb, filler, NA, 999, 999, 6, 23, 184, 71, 108, 174, 72, 177, 3, 2.4488
202, 2, wb, filler, NA, 999, 999, 6, 23, 184, 71, 108, 174, 72, 177, 2, 0.245367
202, 2, wb, attraction, a-b-db, 5, 1, 6, 24, 135, 60, 60, 135, 58, 132, 3, 1.28942
202, 2, wb, attraction, a-b-db, 5, 1, 6, 24, 135, 60, 60, 135, 58, 132, 1, 2.60418
202, 2, wb, attraction, a-b-db, 14, 2, 6, 25, 90, 165, 83, 153, 165, 90, 2, 1.81725
202, 2, wb, attraction, a-b-db, 14, 2, 6, 25, 90, 165, 83, 153, 165, 90, 3, 1.11132
202, 2, wb, filler, NA, 999, 999, 6, 26, 85, 142, 165, 62, 114, 62, 3, 1.4483
202, 2, wb, filler, NA, 999, 999, 6, 26, 85, 142, 165, 62, 114, 62, 1, 3.48518
202, 2, wb, attraction, a-b-db, 2, 2, 6, 27, 165, 90, 89, 163, 90, 165, 2, 1.89466
202, 2, wb, attraction, a-b-db, 2, 2, 6, 27, 165, 90, 89, 163, 90, 165, 1, 1.04951
202, 2, wb, attraction, a-b-db, 5, 3, 6, 28, 120, 195, 117, 190, 195, 120, 2, 6.30904
202, 2, wb, attraction, a-b-db, 5, 3, 6, 28, 120, 195, 117, 190, 195, 120, 3, 0.277596
202, 2, wb, attraction, a-b-da, 2, 1, 6, 29, 134, 59, 60, 135, 135, 60, 2, 1.36817
202, 2, wb, attraction, a-b-da, 2, 1, 6, 29, 134, 59, 60, 135, 135, 60, 1, 1.7684
202, 2, wb, attraction, a-b-da, 5, 3, 6, 30, 120, 195, 195, 120, 190, 117, 3, 8.17506
202, 2, wb, attraction, a-b-da, 5, 3, 6, 30, 120, 195, 195, 120, 190, 117, 2, 0.828524
202, 2, wb, filler, NA, 999, 999, 6, 31, 142, 61, 155, 151, 87, 159, 1, 0.80881
202, 2, wb, filler, NA, 999, 999, 6, 31, 142, 61, 155, 151, 87, 159, 2, 0.255183
202, 2, wb, filler, NA, 999, 999, 6, 32, 194, 65, 182, 75, 94, 71, 3, 0.683035
202, 2, wb, filler, NA, 999, 999, 6, 32, 194, 65, 182, 75, 94, 71, 2, 0.29484
202, 2, wb, filler, NA, 999, 999, 6, 33, 105, 119, 139, 100, 119, 78, 3, 1.32077
202, 2, wb, filler, NA, 999, 999, 6, 33, 105, 119, 139, 100, 119, 78, 1, 5.03445
202, 2, wb, attraction, a-b-db, 14, 3, 6, 34, 111, 181, 120, 195, 195, 120, 1, 1.34122
202, 2, wb, attraction, a-b-db, 14, 3, 6, 34, 111, 181, 120, 195, 195, 120, 2, 1.14224
202, 2, wb, attraction, a-b-da, 2, 3, 6, 35, 120, 195, 193, 119, 195, 120, 3, 3.67785
202, 2, wb, attraction, a-b-da, 2, 3, 6, 35, 120, 195, 193, 119, 195, 120, 1, 0.200538
202, 2, wb, attraction, a-b-da, 14, 1, 6, 36, 135, 60, 125, 56, 60, 135, 2, 1.39054
202, 2, wb, attraction, a-b-da, 14, 1, 6, 36, 135, 60, 125, 56, 60, 135, 1, 0.853401
202, 2, wb, attraction, a-b-da, 5, 1, 6, 37, 135, 60, 132, 58, 60, 135, 3, 1.54499
202, 2, wb, attraction, a-b-da, 5, 1, 6, 37, 135, 60, 132, 58, 60, 135, 1, 0.809808
202, 2, wb, catch, NA, 999, 999, 7, 1, 114, 141, 165, 150, 62, 133, 3, 0.630815
202, 2, wb, catch, NA, 999, 999, 7, 1, 114, 141, 165, 150, 62, 133, 2, 0.212567
202, 2, wb, filler, NA, 999, 999, 7, 2, 111, 135, 122, 106, 88, 83, 3, 0.465996
202, 2, wb, filler, NA, 999, 999, 7, 2, 111, 135, 122, 106, 88, 83, 1, 0.43032
202, 2, wb, attraction, a-b-da, 14, 2, 7, 3, 153, 83, 165, 90, 90, 165, 1, 4.78687
202, 2, wb, attraction, a-b-da, 14, 2, 7, 3, 153, 83, 165, 90, 90, 165, 3, 0.617446
202, 2, wb, attraction, a-b-da, 14, 1, 7, 4, 135, 60, 125, 56, 60, 135, 2, 1.03032
202, 2, wb, attraction, a-b-da, 14, 1, 7, 4, 135, 60, 125, 56, 60, 135, 1, 0.500021
202, 2, wb, filler, NA, 999, 999, 7, 5, 61, 97, 188, 174, 73, 110, 1, 1.35784
202, 2, wb, filler, NA, 999, 999, 7, 5, 61, 97, 188, 174, 73, 110, 2, 0.19806
202, 2, wb, attraction, a-b-db, 9, 1, 7, 6, 57, 129, 135, 60, 60, 135, 1, 2.79597
202, 2, wb, attraction, a-b-db, 9, 1, 7, 6, 57, 129, 135, 60, 60, 135, 2, 1.29035
202, 2, wb, attraction, a-b-da, 2, 2, 7, 7, 163, 89, 90, 165, 165, 90, 3, 4.98794
202, 2, wb, attraction, a-b-da, 2, 2, 7, 7, 163, 89, 90, 165, 165, 90, 2, 1.35442
202, 2, wb, attraction, a-b-da, 9, 2, 7, 8, 165, 90, 157, 86, 90, 165, 2, 6.81786
202, 2, wb, attraction, a-b-da, 9, 2, 7, 8, 165, 90, 157, 86, 90, 165, 3, 0.566355
202, 2, wb, filler, NA, 999, 999, 7, 9, 182, 124, 110, 96, 180, 181, 2, 0.517447
202, 2, wb, filler, NA, 999, 999, 7, 9, 182, 124, 110, 96, 180, 181, 3, 0.231908
202, 2, wb, attraction, a-b-db, 2, 3, 7, 10, 119, 193, 195, 120, 120, 195, 1, 6.58858
202, 2, wb, attraction, a-b-db, 2, 3, 7, 10, 119, 193, 195, 120, 120, 195, 3, 0.378503
202, 2, wb, attraction, a-b-da, 2, 1, 7, 11, 134, 59, 135, 60, 60, 135, 3, 1.47293
202, 2, wb, attraction, a-b-da, 2, 1, 7, 11, 134, 59, 135, 60, 60, 135, 1, 0.492488
202, 2, wb, attraction, a-b-db, 2, 1, 7, 12, 135, 60, 59, 134, 60, 135, 3, 2.21416
202, 2, wb, attraction, a-b-db, 2, 1, 7, 12, 135, 60, 59, 134, 60, 135, 1, 0.276168
202, 2, wb, attraction, a-b-db, 14, 1, 7, 13, 135, 60, 56, 125, 60, 135, 2, 0.75864
202, 2, wb, attraction, a-b-db, 14, 1, 7, 13, 135, 60, 56, 125, 60, 135, 1, 0.687077
202, 2, wb, attraction, a-b-da, 9, 3, 7, 14, 195, 120, 186, 114, 120, 195, 2, 1.15341
202, 2, wb, attraction, a-b-da, 9, 3, 7, 14, 195, 120, 186, 114, 120, 195, 3, 0.562465
202, 2, wb, attraction, a-b-db, 5, 1, 7, 15, 135, 60, 60, 135, 58, 132, 3, 0.785596
202, 2, wb, attraction, a-b-db, 5, 1, 7, 15, 135, 60, 60, 135, 58, 132, 1, 0.745303
202, 2, wb, filler, NA, 999, 999, 7, 16, 195, 73, 93, 182, 177, 121, 1, 1.33689
202, 2, wb, filler, NA, 999, 999, 7, 16, 195, 73, 93, 182, 177, 121, 3, 0.52175
202, 2, wb, attraction, a-b-da, 14, 3, 7, 17, 195, 120, 120, 195, 181, 111, 3, 1.01095
202, 2, wb, attraction, a-b-da, 14, 3, 7, 17, 195, 120, 120, 195, 181, 111, 1, 0.793243
202, 2, wb, attraction, a-b-db, 14, 2, 7, 18, 83, 153, 165, 90, 90, 165, 1, 1.5909
202, 2, wb, attraction, a-b-db, 14, 2, 7, 18, 83, 153, 165, 90, 90, 165, 3, 0.573708
202, 2, wb, attraction, a-b-db, 9, 2, 7, 19, 86, 157, 90, 165, 165, 90, 1, 1.87612
202, 2, wb, attraction, a-b-db, 9, 2, 7, 19, 86, 157, 90, 165, 165, 90, 2, 2.27165
202, 2, wb, filler, NA, 999, 999, 7, 20, 78, 123, 77, 110, 103, 94, 2, 0.706031
202, 2, wb, filler, NA, 999, 999, 7, 20, 78, 123, 77, 110, 103, 94, 3, 3.10852
202, 2, wb, attraction, a-b-db, 14, 3, 7, 21, 120, 195, 195, 120, 111, 181, 3, 3.23684
202, 2, wb, attraction, a-b-db, 14, 3, 7, 21, 120, 195, 195, 120, 111, 181, 1, 1.05788
202, 2, wb, attraction, a-b-db, 5, 3, 7, 22, 195, 120, 120, 195, 117, 190, 3, 2.92473
202, 2, wb, attraction, a-b-db, 5, 3, 7, 22, 195, 120, 120, 195, 117, 190, 2, 0.325921
202, 2, wb, filler, NA, 999, 999, 7, 23, 63, 124, 88, 104, 104, 164, 2, 0.806316
202, 2, wb, filler, NA, 999, 999, 7, 23, 63, 124, 88, 104, 104, 164, 3, 0.460683
202, 2, wb, catch, NA, 999, 999, 7, 24, 155, 100, 175, 140, 115, 80, 3, 0.783788
202, 2, wb, catch, NA, 999, 999, 7, 24, 155, 100, 175, 140, 115, 80, 2, 0.247537
202, 2, wb, attraction, a-b-db, 5, 2, 7, 25, 88, 161, 165, 90, 90, 165, 3, 2.09945
202, 2, wb, attraction, a-b-db, 5, 2, 7, 25, 88, 161, 165, 90, 90, 165, 2, 1.33406
202, 2, wb, filler, NA, 999, 999, 7, 26, 138, 114, 66, 98, 171, 131, 2, 0.582174
202, 2, wb, filler, NA, 999, 999, 7, 26, 138, 114, 66, 98, 171, 131, 3, 0.23797
202, 2, wb, attraction, a-b-db, 9, 3, 7, 27, 120, 195, 114, 186, 195, 120, 2, 1.81061
202, 2, wb, attraction, a-b-db, 9, 3, 7, 27, 120, 195, 114, 186, 195, 120, 1, 1.16063
202, 2, wb, attraction, a-b-da, 5, 2, 7, 28, 90, 165, 161, 88, 165, 90, 2, 3.04763
202, 2, wb, attraction, a-b-da, 5, 2, 7, 28, 90, 165, 161, 88, 165, 90, 1, 0.459902
202, 2, wb, catch, NA, 999, 999, 7, 29, 186, 129, 104, 151, 129, 66, 3, 0.534968
202, 2, wb, catch, NA, 999, 999, 7, 29, 186, 129, 104, 151, 129, 66, 1, 0.352906
202, 2, wb, attraction, a-b-db, 2, 2, 7, 30, 165, 90, 89, 163, 90, 165, 1, 3.36876
202, 2, wb, attraction, a-b-db, 2, 2, 7, 30, 165, 90, 89, 163, 90, 165, 3, 1.13633
202, 2, wb, attraction, a-b-da, 2, 3, 7, 31, 120, 195, 193, 119, 195, 120, 2, 2.68065
202, 2, wb, attraction, a-b-da, 2, 3, 7, 31, 120, 195, 193, 119, 195, 120, 1, 0.611636
202, 2, wb, filler, NA, 999, 999, 7, 32, 72, 178, 177, 187, 186, 128, 1, 0.680654
202, 2, wb, filler, NA, 999, 999, 7, 32, 72, 178, 177, 187, 186, 128, 2, 0.17242
202, 2, wb, filler, NA, 999, 999, 7, 33, 165, 87, 93, 157, 95, 82, 3, 0.739725
202, 2, wb, filler, NA, 999, 999, 7, 33, 165, 87, 93, 157, 95, 82, 1, 7.17284
202, 2, wb, filler, NA, 999, 999, 7, 34, 65, 175, 153, 62, 162, 191, 2, 0.913801
202, 2, wb, filler, NA, 999, 999, 7, 34, 65, 175, 153, 62, 162, 191, 3, 0.204237
202, 2, wb, attraction, a-b-da, 5, 1, 7, 35, 132, 58, 60, 135, 135, 60, 2, 1.30618
202, 2, wb, attraction, a-b-da, 5, 1, 7, 35, 132, 58, 60, 135, 135, 60, 3, 3.11638
202, 2, wb, attraction, a-b-da, 5, 3, 7, 36, 120, 195, 190, 117, 195, 120, 2, 2.83662
202, 2, wb, attraction, a-b-da, 5, 3, 7, 36, 120, 195, 190, 117, 195, 120, 1, 0.297698
202, 2, wb, attraction, a-b-da, 9, 1, 7, 37, 129, 57, 135, 60, 60, 135, 1, 3.74754
202, 2, wb, attraction, a-b-da, 9, 1, 7, 37, 129, 57, 135, 60, 60, 135, 3, 2.47563
202, 2, wb, filler, NA, 999, 999, 8, 1, 56, 99, 89, 88, 164, 182, 1, 1.78147
202, 2, wb, filler, NA, 999, 999, 8, 1, 56, 99, 89, 88, 164, 182, 3, 0.180942
202, 2, wb, attraction, a-b-db, 9, 3, 8, 2, 195, 120, 120, 195, 114, 186, 3, 2.07557
202, 2, wb, attraction, a-b-db, 9, 3, 8, 2, 195, 120, 120, 195, 114, 186, 2, 0.934839
202, 2, wb, attraction, a-b-db, 5, 3, 8, 3, 120, 195, 195, 120, 117, 190, 3, 2.8152
202, 2, wb, attraction, a-b-db, 5, 3, 8, 3, 120, 195, 195, 120, 117, 190, 2, 0.604891
202, 2, wb, attraction, a-b-db, 14, 3, 8, 4, 111, 181, 120, 195, 195, 120, 1, 2.25863
202, 2, wb, attraction, a-b-db, 14, 3, 8, 4, 111, 181, 120, 195, 195, 120, 3, 1.57467
202, 2, wb, attraction, a-b-da, 5, 2, 8, 5, 90, 165, 165, 90, 161, 88, 3, 3.21269
202, 2, wb, attraction, a-b-da, 5, 2, 8, 5, 90, 165, 165, 90, 161, 88, 1, 0.314291
202, 2, wb, attraction, a-b-da, 14, 1, 8, 6, 60, 135, 125, 56, 135, 60, 2, 1.49955
202, 2, wb, attraction, a-b-da, 14, 1, 8, 6, 60, 135, 125, 56, 135, 60, 3, 0.862276
202, 2, wb, attraction, a-b-db, 2, 2, 8, 7, 89, 163, 90, 165, 165, 90, 1, 1.60137
202, 2, wb, attraction, a-b-db, 2, 2, 8, 7, 89, 163, 90, 165, 165, 90, 3, 1.09619
202, 2, wb, attraction, a-b-db, 14, 2, 8, 8, 90, 165, 83, 153, 165, 90, 2, 1.02578
202, 2, wb, attraction, a-b-db, 14, 2, 8, 8, 90, 165, 83, 153, 165, 90, 1, 0.703439
202, 2, wb, attraction, a-b-db, 5, 2, 8, 9, 88, 161, 90, 165, 165, 90, 1, 1.41725
202, 2, wb, attraction, a-b-db, 5, 2, 8, 9, 88, 161, 90, 165, 165, 90, 3, 0.407289
202, 2, wb, filler, NA, 999, 999, 8, 10, 176, 178, 125, 146, 94, 145, 3, 0.692448
202, 2, wb, filler, NA, 999, 999, 8, 10, 176, 178, 125, 146, 94, 145, 1, 0.231494
202, 2, wb, catch, NA, 999, 999, 8, 11, 116, 139, 117, 78, 136, 179, 2, 0.71599
202, 2, wb, catch, NA, 999, 999, 8, 11, 116, 139, 117, 78, 136, 179, 3, 0.278441
202, 2, wb, filler, NA, 999, 999, 8, 12, 184, 182, 191, 106, 99, 136, 3, 0.521074
202, 2, wb, filler, NA, 999, 999, 8, 12, 184, 182, 191, 106, 99, 136, 1, 0.250862
202, 2, wb, attraction, a-b-da, 14, 3, 8, 13, 120, 195, 181, 111, 195, 120, 2, 1.51878
202, 2, wb, attraction, a-b-da, 14, 3, 8, 13, 120, 195, 181, 111, 195, 120, 1, 0.592999
202, 2, wb, attraction, a-b-da, 2, 3, 8, 14, 193, 119, 120, 195, 195, 120, 3, 1.95868
202, 2, wb, attraction, a-b-da, 2, 3, 8, 14, 193, 119, 120, 195, 195, 120, 2, 1.39064
202, 2, wb, attraction, a-b-da, 9, 3, 8, 15, 195, 120, 186, 114, 120, 195, 2, 1.42016
202, 2, wb, attraction, a-b-da, 9, 3, 8, 15, 195, 120, 186, 114, 120, 195, 3, 0.2017
202, 2, wb, attraction, a-b-da, 2, 2, 8, 16, 90, 165, 163, 89, 165, 90, 3, 2.46367
202, 2, wb, attraction, a-b-da, 2, 2, 8, 16, 90, 165, 163, 89, 165, 90, 1, 0.331407
202, 2, wb, attraction, a-b-da, 9, 2, 8, 17, 165, 90, 90, 165, 157, 86, 3, 3.32393
202, 2, wb, attraction, a-b-da, 9, 2, 8, 17, 165, 90, 90, 165, 157, 86, 1, 0.588907
202, 2, wb, filler, NA, 999, 999, 8, 18, 167, 63, 179, 91, 177, 187, 1, 0.779197
202, 2, wb, filler, NA, 999, 999, 8, 18, 167, 63, 179, 91, 177, 187, 3, 0.154991
202, 2, wb, attraction, a-b-db, 5, 1, 8, 19, 58, 132, 135, 60, 60, 135, 1, 6.26693
202, 2, wb, attraction, a-b-db, 5, 1, 8, 19, 58, 132, 135, 60, 60, 135, 2, 0.885672
202, 2, wb, filler, NA, 999, 999, 8, 20, 90, 147, 59, 113, 139, 101, 2, 0.695899
202, 2, wb, filler, NA, 999, 999, 8, 20, 90, 147, 59, 113, 139, 101, 3, 2.97905
202, 2, wb, attraction, a-b-db, 9, 2, 8, 21, 165, 90, 90, 165, 86, 157, 3, 3.52873
202, 2, wb, attraction, a-b-db, 9, 2, 8, 21, 165, 90, 90, 165, 86, 157, 1, 0.817538
202, 2, wb, attraction, a-b-da, 5, 1, 8, 22, 135, 60, 60, 135, 132, 58, 3, 10.8067
202, 2, wb, attraction, a-b-da, 5, 1, 8, 22, 135, 60, 60, 135, 132, 58, 1, 0.745763
202, 2, wb, attraction, a-b-db, 2, 1, 8, 23, 59, 134, 135, 60, 60, 135, 1, 3.03355
202, 2, wb, attraction, a-b-db, 2, 1, 8, 23, 59, 134, 135, 60, 60, 135, 2, 0.262573
202, 2, wb, attraction, a-b-db, 2, 3, 8, 24, 195, 120, 119, 193, 120, 195, 3, 1.44979
202, 2, wb, attraction, a-b-db, 2, 3, 8, 24, 195, 120, 119, 193, 120, 195, 1, 0.326634
202, 2, wb, filler, NA, 999, 999, 8, 25, 154, 124, 95, 138, 185, 170, 2, 0.831087
202, 2, wb, filler, NA, 999, 999, 8, 25, 154, 124, 95, 138, 185, 170, 3, 0.172897
202, 2, wb, filler, NA, 999, 999, 8, 26, 79, 132, 70, 178, 113, 161, 1, 1.04349
202, 2, wb, filler, NA, 999, 999, 8, 26, 79, 132, 70, 178, 113, 161, 3, 0.384385
202, 2, wb, attraction, a-b-da, 9, 1, 8, 27, 135, 60, 60, 135, 129, 57, 3, 0.798818
202, 2, wb, attraction, a-b-da, 9, 1, 8, 27, 135, 60, 60, 135, 129, 57, 1, 0.965866
202, 2, wb, catch, NA, 999, 999, 8, 28, 140, 175, 161, 94, 127, 68, 3, 0.684984
202, 2, wb, catch, NA, 999, 999, 8, 28, 140, 175, 161, 94, 127, 68, 1, 0.200625
202, 2, wb, attraction, a-b-da, 14, 2, 8, 29, 165, 90, 153, 83, 90, 165, 2, 2.35045
202, 2, wb, attraction, a-b-da, 14, 2, 8, 29, 165, 90, 153, 83, 90, 165, 1, 0.519077
202, 2, wb, filler, NA, 999, 999, 8, 30, 87, 70, 76, 104, 112, 94, 1, 0.512314
202, 2, wb, filler, NA, 999, 999, 8, 30, 87, 70, 76, 104, 112, 94, 3, 0.394752
202, 2, wb, attraction, a-b-db, 14, 1, 8, 31, 60, 135, 135, 60, 56, 125, 3, 0.752577
202, 2, wb, attraction, a-b-db, 14, 1, 8, 31, 60, 135, 135, 60, 56, 125, 2, 1.41767
202, 2, wb, catch, NA, 999, 999, 8, 32, 171, 144, 88, 107, 129, 126, 2, 0.518534
202, 2, wb, catch, NA, 999, 999, 8, 32, 171, 144, 88, 107, 129, 126, 1, 0.185
202, 2, wb, attraction, a-b-da, 2, 1, 8, 33, 135, 60, 134, 59, 60, 135, 3, 4.33542
202, 2, wb, attraction, a-b-da, 2, 1, 8, 33, 135, 60, 134, 59, 60, 135, 2, 0.88821
202, 2, wb, attraction, a-b-db, 9, 1, 8, 34, 135, 60, 60, 135, 57, 129, 3, 2.92242
202, 2, wb, attraction, a-b-db, 9, 1, 8, 34, 135, 60, 60, 135, 57, 129, 1, 0.555451
202, 2, wb, filler, NA, 999, 999, 8, 35, 181, 87, 102, 58, 65, 129, 2, 0.659221
202, 2, wb, filler, NA, 999, 999, 8, 35, 181, 87, 102, 58, 65, 129, 1, 0.159648
202, 2, wb, filler, NA, 999, 999, 8, 36, 166, 106, 75, 88, 153, 166, 2, 0.414918
202, 2, wb, filler, NA, 999, 999, 8, 36, 166, 106, 75, 88, 153, 166, 3, 0.14143
202, 2, wb, attraction, a-b-da, 5, 3, 8, 37, 190, 117, 120, 195, 195, 120, 3, 1.55736
202, 2, wb, attraction, a-b-da, 5, 3, 8, 37, 190, 117, 120, 195, 195, 120, 2, 1.14145
