sub_n, computer_n, bw_cond, effect, set, distance, diag, block_n, trial_n, h1, w1, h2, w2, h3, w3, choice, rt 
287, 2, bw, practice, NA, 999, 999, 0, 1, 181, 58, 133, 154, 103, 172, 2, 9.64242
287, 2, bw, practice, NA, 999, 999, 0, 1, 181, 58, 133, 154, 103, 172, 1, 1.90039
287, 2, bw, practice, NA, 999, 999, 0, 2, 181, 175, 112, 112, 110, 116, 1, 2.61778
287, 2, bw, practice, NA, 999, 999, 0, 2, 181, 175, 112, 112, 110, 116, 3, 1.827
287, 2, bw, practice, NA, 999, 999, 0, 3, 105, 90, 107, 171, 170, 148, 3, 2.71558
287, 2, bw, practice, NA, 999, 999, 0, 3, 105, 90, 107, 171, 170, 148, 1, 1.60376
287, 2, bw, filler, NA, 999, 999, 1, 1, 173, 132, 167, 82, 136, 124, 1, 1.23653
287, 2, bw, filler, NA, 999, 999, 1, 1, 173, 132, 167, 82, 136, 124, 2, 0.922215
287, 2, bw, attraction, a-b-db, 2, 2, 1, 2, 165, 90, 90, 165, 89, 163, 2, 5.44326
287, 2, bw, attraction, a-b-db, 2, 2, 1, 2, 165, 90, 90, 165, 89, 163, 1, 4.47073
287, 2, bw, attraction, a-b-db, 2, 3, 1, 3, 119, 193, 120, 195, 195, 120, 1, 5.16862
287, 2, bw, attraction, a-b-db, 2, 3, 1, 3, 119, 193, 120, 195, 195, 120, 2, 1.65562
287, 2, bw, attraction, a-b-db, 5, 2, 1, 4, 165, 90, 88, 161, 90, 165, 2, 4.01902
287, 2, bw, attraction, a-b-db, 5, 2, 1, 4, 165, 90, 88, 161, 90, 165, 1, 0.624372
287, 2, bw, filler, NA, 999, 999, 1, 5, 81, 80, 152, 91, 182, 100, 3, 2.58882
287, 2, bw, filler, NA, 999, 999, 1, 5, 81, 80, 152, 91, 182, 100, 1, 1.43533
287, 2, bw, attraction, a-b-da, 9, 1, 1, 6, 60, 135, 129, 57, 135, 60, 3, 3.65552
287, 2, bw, attraction, a-b-da, 9, 1, 1, 6, 60, 135, 129, 57, 135, 60, 1, 1.03496
287, 2, bw, filler, NA, 999, 999, 1, 7, 166, 151, 136, 189, 134, 171, 2, 1.4633
287, 2, bw, filler, NA, 999, 999, 1, 7, 166, 151, 136, 189, 134, 171, 3, 1.15555
287, 2, bw, filler, NA, 999, 999, 1, 8, 121, 143, 104, 133, 187, 88, 1, 0.891091
287, 2, bw, filler, NA, 999, 999, 1, 8, 121, 143, 104, 133, 187, 88, 3, 0.65412
287, 2, bw, catch, NA, 999, 999, 1, 9, 152, 163, 123, 132, 82, 113, 1, 0.768495
287, 2, bw, catch, NA, 999, 999, 1, 9, 152, 163, 123, 132, 82, 113, 3, 0.456812
287, 2, bw, filler, NA, 999, 999, 1, 10, 160, 69, 91, 141, 99, 145, 3, 1.83601
287, 2, bw, filler, NA, 999, 999, 1, 10, 160, 69, 91, 141, 99, 145, 1, 0.753378
287, 2, bw, attraction, a-b-db, 5, 1, 1, 11, 135, 60, 60, 135, 58, 132, 2, 2.65707
287, 2, bw, attraction, a-b-db, 5, 1, 1, 11, 135, 60, 60, 135, 58, 132, 3, 0.484957
287, 2, bw, attraction, a-b-da, 2, 1, 1, 12, 60, 135, 134, 59, 135, 60, 3, 4.34339
287, 2, bw, attraction, a-b-da, 2, 1, 1, 12, 60, 135, 134, 59, 135, 60, 1, 0.895332
287, 2, bw, attraction, a-b-db, 14, 2, 1, 13, 165, 90, 83, 153, 90, 165, 1, 1.56898
287, 2, bw, attraction, a-b-db, 14, 2, 1, 13, 165, 90, 83, 153, 90, 165, 2, 1.12123
287, 2, bw, attraction, a-b-da, 5, 3, 1, 14, 195, 120, 120, 195, 190, 117, 2, 5.33805
287, 2, bw, attraction, a-b-da, 5, 3, 1, 14, 195, 120, 120, 195, 190, 117, 3, 0.79367
287, 2, bw, filler, NA, 999, 999, 1, 15, 69, 138, 141, 186, 187, 98, 2, 1.21534
287, 2, bw, filler, NA, 999, 999, 1, 15, 69, 138, 141, 186, 187, 98, 1, 1.62962
287, 2, bw, attraction, a-b-db, 14, 1, 1, 16, 135, 60, 56, 125, 60, 135, 1, 2.20968
287, 2, bw, attraction, a-b-db, 14, 1, 1, 16, 135, 60, 56, 125, 60, 135, 2, 0.767672
287, 2, bw, filler, NA, 999, 999, 1, 17, 100, 104, 100, 86, 145, 186, 3, 1.41468
287, 2, bw, filler, NA, 999, 999, 1, 17, 100, 104, 100, 86, 145, 186, 2, 0.596882
287, 2, bw, attraction, a-b-da, 5, 1, 1, 18, 132, 58, 135, 60, 60, 135, 1, 6.2267
287, 2, bw, attraction, a-b-da, 5, 1, 1, 18, 132, 58, 135, 60, 60, 135, 3, 1.04665
287, 2, bw, attraction, a-b-da, 2, 2, 1, 19, 165, 90, 163, 89, 90, 165, 1, 1.40226
287, 2, bw, attraction, a-b-da, 2, 2, 1, 19, 165, 90, 163, 89, 90, 165, 3, 1.07324
287, 2, bw, filler, NA, 999, 999, 1, 20, 173, 189, 114, 191, 97, 104, 1, 2.41145
287, 2, bw, filler, NA, 999, 999, 1, 20, 173, 189, 114, 191, 97, 104, 3, 0.793399
287, 2, bw, attraction, a-b-da, 5, 2, 1, 21, 90, 165, 161, 88, 165, 90, 1, 0.862943
287, 2, bw, attraction, a-b-da, 5, 2, 1, 21, 90, 165, 161, 88, 165, 90, 2, 1.05134
287, 2, bw, attraction, a-b-db, 9, 3, 1, 22, 114, 186, 120, 195, 195, 120, 3, 2.14303
287, 2, bw, attraction, a-b-db, 9, 3, 1, 22, 114, 186, 120, 195, 195, 120, 1, 0.567646
287, 2, bw, attraction, a-b-db, 14, 3, 1, 23, 120, 195, 111, 181, 195, 120, 1, 1.8867
287, 2, bw, attraction, a-b-db, 14, 3, 1, 23, 120, 195, 111, 181, 195, 120, 3, 1.12218
287, 2, bw, catch, NA, 999, 999, 1, 24, 97, 158, 115, 80, 188, 127, 3, 1.37105
287, 2, bw, catch, NA, 999, 999, 1, 24, 97, 158, 115, 80, 188, 127, 2, 0.490741
287, 2, bw, attraction, a-b-db, 9, 1, 1, 25, 57, 129, 60, 135, 135, 60, 2, 2.88439
287, 2, bw, attraction, a-b-db, 9, 1, 1, 25, 57, 129, 60, 135, 135, 60, 1, 3.64749
287, 2, bw, attraction, a-b-da, 14, 2, 1, 26, 165, 90, 153, 83, 90, 165, 3, 1.9224
287, 2, bw, attraction, a-b-da, 14, 2, 1, 26, 165, 90, 153, 83, 90, 165, 2, 0.979645
287, 2, bw, attraction, a-b-da, 9, 2, 1, 27, 157, 86, 90, 165, 165, 90, 2, 3.98596
287, 2, bw, attraction, a-b-da, 9, 2, 1, 27, 157, 86, 90, 165, 165, 90, 1, 1.37675
287, 2, bw, attraction, a-b-da, 14, 3, 1, 28, 181, 111, 195, 120, 120, 195, 3, 4.09486
287, 2, bw, attraction, a-b-da, 14, 3, 1, 28, 181, 111, 195, 120, 120, 195, 1, 0.912894
287, 2, bw, catch, NA, 999, 999, 1, 29, 144, 111, 122, 193, 100, 95, 2, 1.52189
287, 2, bw, catch, NA, 999, 999, 1, 29, 144, 111, 122, 193, 100, 95, 3, 0.61963
287, 2, bw, attraction, a-b-da, 2, 3, 1, 30, 195, 120, 193, 119, 120, 195, 1, 1.6964
287, 2, bw, attraction, a-b-da, 2, 3, 1, 30, 195, 120, 193, 119, 120, 195, 2, 0.971177
287, 2, bw, filler, NA, 999, 999, 1, 31, 73, 175, 77, 94, 158, 169, 3, 1.06615
287, 2, bw, filler, NA, 999, 999, 1, 31, 73, 175, 77, 94, 158, 169, 2, 2.07871
287, 2, bw, attraction, a-b-db, 9, 2, 1, 32, 90, 165, 86, 157, 165, 90, 1, 1.03243
287, 2, bw, attraction, a-b-db, 9, 2, 1, 32, 90, 165, 86, 157, 165, 90, 3, 1.55812
287, 2, bw, attraction, a-b-da, 9, 3, 1, 33, 186, 114, 120, 195, 195, 120, 2, 4.19687
287, 2, bw, attraction, a-b-da, 9, 3, 1, 33, 186, 114, 120, 195, 195, 120, 1, 1.11488
287, 2, bw, filler, NA, 999, 999, 1, 34, 72, 93, 57, 134, 169, 181, 3, 0.667796
287, 2, bw, filler, NA, 999, 999, 1, 34, 72, 93, 57, 134, 169, 181, 2, 0.552185
287, 2, bw, attraction, a-b-db, 2, 1, 1, 35, 59, 134, 60, 135, 135, 60, 2, 2.66398
287, 2, bw, attraction, a-b-db, 2, 1, 1, 35, 59, 134, 60, 135, 135, 60, 3, 0.595806
287, 2, bw, attraction, a-b-db, 5, 3, 1, 36, 195, 120, 120, 195, 117, 190, 2, 5.65763
287, 2, bw, attraction, a-b-db, 5, 3, 1, 36, 195, 120, 120, 195, 117, 190, 3, 0.876451
287, 2, bw, attraction, a-b-da, 14, 1, 1, 37, 60, 135, 125, 56, 135, 60, 1, 1.59873
287, 2, bw, attraction, a-b-da, 14, 1, 1, 37, 60, 135, 125, 56, 135, 60, 2, 0.821639
287, 2, bw, attraction, a-b-da, 5, 2, 2, 1, 165, 90, 161, 88, 90, 165, 1, 1.42661
287, 2, bw, attraction, a-b-da, 5, 2, 2, 1, 165, 90, 161, 88, 90, 165, 2, 0.544126
287, 2, bw, catch, NA, 999, 999, 2, 2, 96, 99, 124, 131, 128, 187, 3, 1.07204
287, 2, bw, catch, NA, 999, 999, 2, 2, 96, 99, 124, 131, 128, 187, 2, 0.547542
287, 2, bw, attraction, a-b-db, 5, 2, 2, 3, 90, 165, 88, 161, 165, 90, 1, 1.77131
287, 2, bw, attraction, a-b-db, 5, 2, 2, 3, 90, 165, 88, 161, 165, 90, 2, 1.02694
287, 2, bw, attraction, a-b-da, 2, 3, 2, 4, 120, 195, 193, 119, 195, 120, 1, 1.07102
287, 2, bw, attraction, a-b-da, 2, 3, 2, 4, 120, 195, 193, 119, 195, 120, 2, 0.522692
287, 2, bw, attraction, a-b-db, 2, 3, 2, 5, 120, 195, 195, 120, 119, 193, 3, 1.2911
287, 2, bw, attraction, a-b-db, 2, 3, 2, 5, 120, 195, 195, 120, 119, 193, 2, 0.662031
287, 2, bw, attraction, a-b-da, 9, 1, 2, 6, 135, 60, 60, 135, 129, 57, 1, 1.14501
287, 2, bw, attraction, a-b-da, 9, 1, 2, 6, 135, 60, 60, 135, 129, 57, 2, 0.881963
287, 2, bw, filler, NA, 999, 999, 2, 7, 95, 166, 133, 170, 72, 127, 1, 0.964293
287, 2, bw, filler, NA, 999, 999, 2, 7, 95, 166, 133, 170, 72, 127, 2, 1.02866
287, 2, bw, attraction, a-b-da, 5, 3, 2, 8, 120, 195, 190, 117, 195, 120, 1, 0.881026
287, 2, bw, attraction, a-b-da, 5, 3, 2, 8, 120, 195, 190, 117, 195, 120, 2, 0.476755
287, 2, bw, attraction, a-b-db, 14, 1, 2, 9, 135, 60, 56, 125, 60, 135, 3, 1.84719
287, 2, bw, attraction, a-b-db, 14, 1, 2, 9, 135, 60, 56, 125, 60, 135, 1, 0.571868
287, 2, bw, attraction, a-b-db, 14, 3, 2, 10, 111, 181, 195, 120, 120, 195, 3, 1.25097
287, 2, bw, attraction, a-b-db, 14, 3, 2, 10, 111, 181, 195, 120, 120, 195, 2, 0.647819
287, 2, bw, filler, NA, 999, 999, 2, 11, 158, 86, 119, 127, 139, 123, 3, 1.19555
287, 2, bw, filler, NA, 999, 999, 2, 11, 158, 86, 119, 127, 139, 123, 1, 0.730511
287, 2, bw, attraction, a-b-da, 2, 1, 2, 12, 60, 135, 135, 60, 134, 59, 1, 1.45897
287, 2, bw, attraction, a-b-da, 2, 1, 2, 12, 60, 135, 135, 60, 134, 59, 2, 0.43918
287, 2, bw, attraction, a-b-da, 14, 1, 2, 13, 125, 56, 60, 135, 135, 60, 2, 2.4196
287, 2, bw, attraction, a-b-da, 14, 1, 2, 13, 125, 56, 60, 135, 135, 60, 3, 0.689503
287, 2, bw, filler, NA, 999, 999, 2, 14, 151, 166, 96, 111, 167, 193, 3, 1.86712
287, 2, bw, filler, NA, 999, 999, 2, 14, 151, 166, 96, 111, 167, 193, 2, 0.903411
287, 2, bw, attraction, a-b-da, 14, 3, 2, 15, 181, 111, 120, 195, 195, 120, 2, 1.34492
287, 2, bw, attraction, a-b-da, 14, 3, 2, 15, 181, 111, 120, 195, 195, 120, 1, 0.513775
287, 2, bw, filler, NA, 999, 999, 2, 16, 113, 135, 144, 158, 161, 83, 2, 3.23502
287, 2, bw, filler, NA, 999, 999, 2, 16, 113, 135, 144, 158, 161, 83, 3, 0.583896
287, 2, bw, attraction, a-b-da, 9, 3, 2, 17, 120, 195, 186, 114, 195, 120, 1, 1.60628
287, 2, bw, attraction, a-b-da, 9, 3, 2, 17, 120, 195, 186, 114, 195, 120, 2, 0.46041
287, 2, bw, filler, NA, 999, 999, 2, 18, 140, 88, 135, 64, 83, 80, 1, 1.19959
287, 2, bw, filler, NA, 999, 999, 2, 18, 140, 88, 135, 64, 83, 80, 3, 0.558528
287, 2, bw, filler, NA, 999, 999, 2, 19, 148, 132, 171, 175, 190, 175, 3, 1.41362
287, 2, bw, filler, NA, 999, 999, 2, 19, 148, 132, 171, 175, 190, 175, 1, 0.427757
287, 2, bw, attraction, a-b-db, 14, 2, 2, 20, 83, 153, 90, 165, 165, 90, 2, 1.64824
287, 2, bw, attraction, a-b-db, 14, 2, 2, 20, 83, 153, 90, 165, 165, 90, 1, 1.44506
287, 2, bw, attraction, a-b-da, 9, 2, 2, 21, 90, 165, 157, 86, 165, 90, 1, 1.09653
287, 2, bw, attraction, a-b-da, 9, 2, 2, 21, 90, 165, 157, 86, 165, 90, 2, 0.451453
287, 2, bw, attraction, a-b-da, 2, 2, 2, 22, 165, 90, 90, 165, 163, 89, 2, 2.5033
287, 2, bw, attraction, a-b-da, 2, 2, 2, 22, 165, 90, 90, 165, 163, 89, 1, 0.633832
287, 2, bw, attraction, a-b-db, 9, 1, 2, 23, 135, 60, 60, 135, 57, 129, 2, 1.33439
287, 2, bw, attraction, a-b-db, 9, 1, 2, 23, 135, 60, 60, 135, 57, 129, 1, 0.655796
287, 2, bw, attraction, a-b-db, 9, 3, 2, 24, 120, 195, 195, 120, 114, 186, 1, 1.61951
287, 2, bw, attraction, a-b-db, 9, 3, 2, 24, 120, 195, 195, 120, 114, 186, 3, 0.585676
287, 2, bw, filler, NA, 999, 999, 2, 25, 138, 59, 135, 169, 118, 65, 2, 1.52822
287, 2, bw, filler, NA, 999, 999, 2, 25, 138, 59, 135, 169, 118, 65, 3, 1.37775
287, 2, bw, attraction, a-b-db, 2, 2, 2, 26, 90, 165, 165, 90, 89, 163, 1, 5.76785
287, 2, bw, attraction, a-b-db, 2, 2, 2, 26, 90, 165, 165, 90, 89, 163, 3, 1.11058
287, 2, bw, attraction, a-b-db, 5, 3, 2, 27, 195, 120, 120, 195, 117, 190, 2, 1.58361
287, 2, bw, attraction, a-b-db, 5, 3, 2, 27, 195, 120, 120, 195, 117, 190, 3, 0.734987
287, 2, bw, attraction, a-b-da, 14, 2, 2, 28, 165, 90, 90, 165, 153, 83, 2, 1.56752
287, 2, bw, attraction, a-b-da, 14, 2, 2, 28, 165, 90, 90, 165, 153, 83, 3, 0.495539
287, 2, bw, attraction, a-b-db, 5, 1, 2, 29, 135, 60, 58, 132, 60, 135, 2, 1.5373
287, 2, bw, attraction, a-b-db, 5, 1, 2, 29, 135, 60, 58, 132, 60, 135, 1, 0.610156
287, 2, bw, catch, NA, 999, 999, 2, 30, 154, 161, 165, 90, 123, 72, 1, 0.99124
287, 2, bw, catch, NA, 999, 999, 2, 30, 154, 161, 165, 90, 123, 72, 3, 0.510235
287, 2, bw, catch, NA, 999, 999, 2, 31, 110, 145, 111, 84, 176, 139, 3, 1.61542
287, 2, bw, catch, NA, 999, 999, 2, 31, 110, 145, 111, 84, 176, 139, 2, 0.445456
287, 2, bw, filler, NA, 999, 999, 2, 32, 110, 141, 146, 133, 171, 170, 3, 1.6013
287, 2, bw, filler, NA, 999, 999, 2, 32, 110, 141, 146, 133, 171, 170, 1, 0.40008
287, 2, bw, filler, NA, 999, 999, 2, 33, 102, 92, 125, 175, 180, 136, 3, 1.90991
287, 2, bw, filler, NA, 999, 999, 2, 33, 102, 92, 125, 175, 180, 136, 1, 0.583956
287, 2, bw, attraction, a-b-db, 2, 1, 2, 34, 135, 60, 60, 135, 59, 134, 2, 1.45441
287, 2, bw, attraction, a-b-db, 2, 1, 2, 34, 135, 60, 60, 135, 59, 134, 1, 0.706593
287, 2, bw, attraction, a-b-da, 5, 1, 2, 35, 135, 60, 60, 135, 132, 58, 2, 1.90772
287, 2, bw, attraction, a-b-da, 5, 1, 2, 35, 135, 60, 60, 135, 132, 58, 1, 0.469681
287, 2, bw, filler, NA, 999, 999, 2, 36, 133, 131, 177, 133, 178, 162, 3, 1.26482
287, 2, bw, filler, NA, 999, 999, 2, 36, 133, 131, 177, 133, 178, 162, 1, 0.748979
287, 2, bw, attraction, a-b-db, 9, 2, 2, 37, 90, 165, 165, 90, 86, 157, 2, 2.05271
287, 2, bw, attraction, a-b-db, 9, 2, 2, 37, 90, 165, 165, 90, 86, 157, 3, 0.529493
287, 2, bw, attraction, a-b-da, 5, 1, 3, 1, 132, 58, 135, 60, 60, 135, 2, 1.34586
287, 2, bw, attraction, a-b-da, 5, 1, 3, 1, 132, 58, 135, 60, 60, 135, 3, 0.554878
287, 2, bw, attraction, a-b-db, 2, 2, 3, 2, 89, 163, 165, 90, 90, 165, 2, 0.930622
287, 2, bw, attraction, a-b-db, 2, 2, 3, 2, 89, 163, 165, 90, 90, 165, 1, 0.596192
287, 2, bw, catch, NA, 999, 999, 3, 3, 62, 133, 130, 185, 128, 127, 2, 0.674052
287, 2, bw, catch, NA, 999, 999, 3, 3, 62, 133, 130, 185, 128, 127, 1, 0.845699
287, 2, bw, attraction, a-b-da, 14, 1, 3, 4, 60, 135, 135, 60, 125, 56, 1, 1.36135
287, 2, bw, attraction, a-b-da, 14, 1, 3, 4, 60, 135, 135, 60, 125, 56, 2, 0.593709
287, 2, bw, filler, NA, 999, 999, 3, 5, 96, 174, 94, 60, 195, 140, 3, 1.42341
287, 2, bw, filler, NA, 999, 999, 3, 5, 96, 174, 94, 60, 195, 140, 2, 0.620934
287, 2, bw, catch, NA, 999, 999, 3, 6, 80, 115, 147, 108, 139, 176, 3, 1.19398
287, 2, bw, catch, NA, 999, 999, 3, 6, 80, 115, 147, 108, 139, 176, 1, 0.456911
287, 2, bw, attraction, a-b-da, 2, 3, 3, 7, 195, 120, 193, 119, 120, 195, 1, 5.07606
287, 2, bw, attraction, a-b-da, 2, 3, 3, 7, 195, 120, 193, 119, 120, 195, 3, 0.438401
287, 2, bw, attraction, a-b-da, 2, 2, 3, 8, 165, 90, 90, 165, 163, 89, 2, 1.49894
287, 2, bw, attraction, a-b-da, 2, 2, 3, 8, 165, 90, 90, 165, 163, 89, 1, 0.709835
287, 2, bw, attraction, a-b-db, 9, 1, 3, 9, 57, 129, 135, 60, 60, 135, 2, 1.52682
287, 2, bw, attraction, a-b-db, 9, 1, 3, 9, 57, 129, 135, 60, 60, 135, 3, 0.464233
287, 2, bw, attraction, a-b-da, 5, 2, 3, 10, 165, 90, 161, 88, 90, 165, 2, 1.5555
287, 2, bw, attraction, a-b-da, 5, 2, 3, 10, 165, 90, 161, 88, 90, 165, 3, 0.395727
287, 2, bw, attraction, a-b-db, 14, 3, 3, 11, 111, 181, 120, 195, 195, 120, 3, 1.04133
287, 2, bw, attraction, a-b-db, 14, 3, 3, 11, 111, 181, 120, 195, 195, 120, 2, 0.390359
287, 2, bw, filler, NA, 999, 999, 3, 12, 113, 173, 184, 169, 85, 137, 2, 0.780173
287, 2, bw, filler, NA, 999, 999, 3, 12, 113, 173, 184, 169, 85, 137, 1, 0.372014
287, 2, bw, filler, NA, 999, 999, 3, 13, 131, 73, 98, 155, 71, 106, 2, 1.01122
287, 2, bw, filler, NA, 999, 999, 3, 13, 131, 73, 98, 155, 71, 106, 3, 0.40141
287, 2, bw, attraction, a-b-db, 9, 3, 3, 14, 195, 120, 120, 195, 114, 186, 1, 6.07917
287, 2, bw, attraction, a-b-db, 9, 3, 3, 14, 195, 120, 120, 195, 114, 186, 3, 0.929229
287, 2, bw, attraction, a-b-da, 9, 1, 3, 15, 60, 135, 135, 60, 129, 57, 1, 2.72955
287, 2, bw, attraction, a-b-da, 9, 1, 3, 15, 60, 135, 135, 60, 129, 57, 3, 0.834932
287, 2, bw, attraction, a-b-db, 2, 3, 3, 16, 119, 193, 120, 195, 195, 120, 2, 3.96711
287, 2, bw, attraction, a-b-db, 2, 3, 3, 16, 119, 193, 120, 195, 195, 120, 3, 0.51057
287, 2, bw, attraction, a-b-da, 5, 3, 3, 17, 120, 195, 195, 120, 190, 117, 1, 1.3356
287, 2, bw, attraction, a-b-da, 5, 3, 3, 17, 120, 195, 195, 120, 190, 117, 3, 0.593176
287, 2, bw, attraction, a-b-db, 14, 1, 3, 18, 135, 60, 60, 135, 56, 125, 2, 1.35885
287, 2, bw, attraction, a-b-db, 14, 1, 3, 18, 135, 60, 60, 135, 56, 125, 3, 0.591141
287, 2, bw, filler, NA, 999, 999, 3, 19, 74, 179, 108, 143, 169, 68, 2, 1.17287
287, 2, bw, filler, NA, 999, 999, 3, 19, 74, 179, 108, 143, 169, 68, 3, 1.46857
287, 2, bw, attraction, a-b-da, 9, 3, 3, 20, 195, 120, 120, 195, 186, 114, 1, 1.2553
287, 2, bw, attraction, a-b-da, 9, 3, 3, 20, 195, 120, 120, 195, 186, 114, 3, 0.547583
287, 2, bw, attraction, a-b-db, 5, 1, 3, 21, 60, 135, 58, 132, 135, 60, 2, 3.07532
287, 2, bw, attraction, a-b-db, 5, 1, 3, 21, 60, 135, 58, 132, 135, 60, 3, 0.822343
287, 2, bw, attraction, a-b-db, 9, 2, 3, 22, 165, 90, 90, 165, 86, 157, 2, 1.76327
287, 2, bw, attraction, a-b-db, 9, 2, 3, 22, 165, 90, 90, 165, 86, 157, 1, 0.571448
287, 2, bw, attraction, a-b-da, 2, 1, 3, 23, 135, 60, 134, 59, 60, 135, 2, 0.882517
287, 2, bw, attraction, a-b-da, 2, 1, 3, 23, 135, 60, 134, 59, 60, 135, 1, 0.606243
287, 2, bw, attraction, a-b-db, 5, 3, 3, 24, 117, 190, 195, 120, 120, 195, 2, 7.15536
287, 2, bw, attraction, a-b-db, 5, 3, 3, 24, 117, 190, 195, 120, 120, 195, 1, 2.00169
287, 2, bw, attraction, a-b-da, 9, 2, 3, 25, 157, 86, 165, 90, 90, 165, 2, 1.00701
287, 2, bw, attraction, a-b-da, 9, 2, 3, 25, 157, 86, 165, 90, 90, 165, 3, 0.597362
287, 2, bw, attraction, a-b-db, 14, 2, 3, 26, 83, 153, 90, 165, 165, 90, 2, 1.16309
287, 2, bw, attraction, a-b-db, 14, 2, 3, 26, 83, 153, 90, 165, 165, 90, 3, 0.61941
287, 2, bw, attraction, a-b-da, 14, 3, 3, 27, 195, 120, 120, 195, 181, 111, 2, 2.04854
287, 2, bw, attraction, a-b-da, 14, 3, 3, 27, 195, 120, 120, 195, 181, 111, 3, 0.717165
287, 2, bw, filler, NA, 999, 999, 3, 28, 195, 190, 119, 184, 145, 75, 1, 0.75812
287, 2, bw, filler, NA, 999, 999, 3, 28, 195, 190, 119, 184, 145, 75, 3, 1.07055
287, 2, bw, filler, NA, 999, 999, 3, 29, 153, 190, 157, 85, 168, 135, 1, 0.961634
287, 2, bw, filler, NA, 999, 999, 3, 29, 153, 190, 157, 85, 168, 135, 2, 0.729837
287, 2, bw, attraction, a-b-db, 5, 2, 3, 30, 90, 165, 88, 161, 165, 90, 2, 1.3623
287, 2, bw, attraction, a-b-db, 5, 2, 3, 30, 90, 165, 88, 161, 165, 90, 1, 0.570484
287, 2, bw, attraction, a-b-db, 2, 1, 3, 31, 135, 60, 59, 134, 60, 135, 2, 1.16168
287, 2, bw, attraction, a-b-db, 2, 1, 3, 31, 135, 60, 59, 134, 60, 135, 1, 0.409837
287, 2, bw, filler, NA, 999, 999, 3, 32, 158, 120, 106, 99, 126, 91, 1, 0.982939
287, 2, bw, filler, NA, 999, 999, 3, 32, 158, 120, 106, 99, 126, 91, 2, 0.590588
287, 2, bw, filler, NA, 999, 999, 3, 33, 147, 171, 116, 78, 133, 164, 1, 1.81243
287, 2, bw, filler, NA, 999, 999, 3, 33, 147, 171, 116, 78, 133, 164, 2, 0.482517
287, 2, bw, attraction, a-b-da, 14, 2, 3, 34, 90, 165, 165, 90, 153, 83, 2, 1.10095
287, 2, bw, attraction, a-b-da, 14, 2, 3, 34, 90, 165, 165, 90, 153, 83, 3, 0.455935
287, 2, bw, catch, NA, 999, 999, 3, 35, 108, 87, 163, 152, 164, 91, 2, 0.763038
287, 2, bw, catch, NA, 999, 999, 3, 35, 108, 87, 163, 152, 164, 91, 1, 0.41148
287, 2, bw, filler, NA, 999, 999, 3, 36, 158, 140, 171, 190, 147, 93, 2, 1.21659
287, 2, bw, filler, NA, 999, 999, 3, 36, 158, 140, 171, 190, 147, 93, 3, 0.478869
287, 2, bw, filler, NA, 999, 999, 3, 37, 178, 163, 88, 92, 102, 136, 1, 0.769268
287, 2, bw, filler, NA, 999, 999, 3, 37, 178, 163, 88, 92, 102, 136, 2, 0.721822
287, 2, bw, attraction, a-b-da, 5, 3, 4, 1, 195, 120, 190, 117, 120, 195, 2, 1.54685
287, 2, bw, attraction, a-b-da, 5, 3, 4, 1, 195, 120, 190, 117, 120, 195, 3, 0.667664
287, 2, bw, attraction, a-b-db, 9, 1, 4, 2, 57, 129, 60, 135, 135, 60, 2, 1.23059
287, 2, bw, attraction, a-b-db, 9, 1, 4, 2, 57, 129, 60, 135, 135, 60, 1, 0.37217
287, 2, bw, catch, NA, 999, 999, 4, 3, 185, 130, 106, 149, 108, 87, 1, 2.03545
287, 2, bw, catch, NA, 999, 999, 4, 3, 185, 130, 106, 149, 108, 87, 3, 0.936697
287, 2, bw, attraction, a-b-db, 5, 1, 4, 4, 58, 132, 60, 135, 135, 60, 1, 1.72102
287, 2, bw, attraction, a-b-db, 5, 1, 4, 4, 58, 132, 60, 135, 135, 60, 3, 1.18651
287, 2, bw, attraction, a-b-db, 14, 1, 4, 5, 135, 60, 60, 135, 56, 125, 1, 1.32071
287, 2, bw, attraction, a-b-db, 14, 1, 4, 5, 135, 60, 60, 135, 56, 125, 3, 0.898264
287, 2, bw, attraction, a-b-da, 5, 1, 4, 6, 60, 135, 132, 58, 135, 60, 1, 0.819921
287, 2, bw, attraction, a-b-da, 5, 1, 4, 6, 60, 135, 132, 58, 135, 60, 3, 0.930287
287, 2, bw, filler, NA, 999, 999, 4, 7, 151, 69, 192, 78, 176, 128, 3, 2.66665
287, 2, bw, filler, NA, 999, 999, 4, 7, 151, 69, 192, 78, 176, 128, 1, 0.438471
287, 2, bw, attraction, a-b-da, 14, 1, 4, 8, 135, 60, 60, 135, 125, 56, 2, 1.74693
287, 2, bw, attraction, a-b-da, 14, 1, 4, 8, 135, 60, 60, 135, 125, 56, 3, 0.603696
287, 2, bw, filler, NA, 999, 999, 4, 9, 96, 169, 103, 146, 169, 119, 2, 2.7454
287, 2, bw, filler, NA, 999, 999, 4, 9, 96, 169, 103, 146, 169, 119, 3, 0.777857
287, 2, bw, catch, NA, 999, 999, 4, 10, 90, 105, 130, 185, 114, 141, 2, 9.23229
287, 2, bw, catch, NA, 999, 999, 4, 10, 90, 105, 130, 185, 114, 141, 1, 0.851291
287, 2, bw, attraction, a-b-db, 5, 3, 4, 11, 117, 190, 120, 195, 195, 120, 2, 0.718931
287, 2, bw, attraction, a-b-db, 5, 3, 4, 11, 117, 190, 120, 195, 195, 120, 3, 0.601377
287, 2, bw, attraction, a-b-da, 9, 2, 4, 12, 165, 90, 157, 86, 90, 165, 2, 0.727244
287, 2, bw, attraction, a-b-da, 9, 2, 4, 12, 165, 90, 157, 86, 90, 165, 1, 0.664886
287, 2, bw, attraction, a-b-da, 9, 3, 4, 13, 186, 114, 195, 120, 120, 195, 2, 0.483931
287, 2, bw, attraction, a-b-da, 9, 3, 4, 13, 186, 114, 195, 120, 120, 195, 3, 0.703863
287, 2, bw, filler, NA, 999, 999, 4, 14, 189, 185, 72, 195, 122, 175, 2, 0.465582
287, 2, bw, filler, NA, 999, 999, 4, 14, 189, 185, 72, 195, 122, 175, 1, 2.35005
287, 2, bw, attraction, a-b-da, 14, 3, 4, 15, 181, 111, 120, 195, 195, 120, 3, 3.01329
287, 2, bw, attraction, a-b-da, 14, 3, 4, 15, 181, 111, 120, 195, 195, 120, 1, 1.05091
287, 2, bw, attraction, a-b-db, 9, 3, 4, 16, 195, 120, 114, 186, 120, 195, 3, 2.23858
287, 2, bw, attraction, a-b-db, 9, 3, 4, 16, 195, 120, 114, 186, 120, 195, 2, 1.0512
287, 2, bw, catch, NA, 999, 999, 4, 17, 107, 88, 123, 192, 132, 123, 2, 1.43078
287, 2, bw, catch, NA, 999, 999, 4, 17, 107, 88, 123, 192, 132, 123, 1, 0.5163
287, 2, bw, attraction, a-b-da, 5, 2, 4, 18, 161, 88, 90, 165, 165, 90, 3, 2.50935
287, 2, bw, attraction, a-b-da, 5, 2, 4, 18, 161, 88, 90, 165, 165, 90, 1, 1.3752
287, 2, bw, attraction, a-b-da, 9, 1, 4, 19, 60, 135, 135, 60, 129, 57, 1, 2.8134
287, 2, bw, attraction, a-b-da, 9, 1, 4, 19, 60, 135, 135, 60, 129, 57, 3, 0.531172
287, 2, bw, filler, NA, 999, 999, 4, 20, 158, 148, 92, 139, 195, 104, 1, 1.29169
287, 2, bw, filler, NA, 999, 999, 4, 20, 158, 148, 92, 139, 195, 104, 2, 0.702483
287, 2, bw, filler, NA, 999, 999, 4, 21, 104, 79, 63, 133, 73, 120, 3, 1.3603
287, 2, bw, filler, NA, 999, 999, 4, 21, 104, 79, 63, 133, 73, 120, 2, 2.96051
287, 2, bw, attraction, a-b-da, 14, 2, 4, 22, 165, 90, 90, 165, 153, 83, 2, 1.49494
287, 2, bw, attraction, a-b-da, 14, 2, 4, 22, 165, 90, 90, 165, 153, 83, 1, 0.40977
287, 2, bw, filler, NA, 999, 999, 4, 23, 144, 183, 129, 67, 193, 95, 1, 1.40687
287, 2, bw, filler, NA, 999, 999, 4, 23, 144, 183, 129, 67, 193, 95, 2, 0.58038
287, 2, bw, attraction, a-b-da, 2, 2, 4, 24, 165, 90, 90, 165, 163, 89, 2, 1.09944
287, 2, bw, attraction, a-b-da, 2, 2, 4, 24, 165, 90, 90, 165, 163, 89, 1, 0.902553
287, 2, bw, attraction, a-b-db, 2, 3, 4, 25, 119, 193, 195, 120, 120, 195, 2, 0.776016
287, 2, bw, attraction, a-b-db, 2, 3, 4, 25, 119, 193, 195, 120, 120, 195, 1, 0.47976
287, 2, bw, attraction, a-b-db, 2, 1, 4, 26, 60, 135, 135, 60, 59, 134, 2, 1.17036
287, 2, bw, attraction, a-b-db, 2, 1, 4, 26, 60, 135, 135, 60, 59, 134, 3, 0.450544
287, 2, bw, attraction, a-b-db, 5, 2, 4, 27, 88, 161, 165, 90, 90, 165, 2, 0.974297
287, 2, bw, attraction, a-b-db, 5, 2, 4, 27, 88, 161, 165, 90, 90, 165, 1, 0.550034
287, 2, bw, attraction, a-b-da, 2, 3, 4, 28, 120, 195, 193, 119, 195, 120, 2, 2.74181
287, 2, bw, attraction, a-b-da, 2, 3, 4, 28, 120, 195, 193, 119, 195, 120, 1, 0.398173
287, 2, bw, filler, NA, 999, 999, 4, 29, 110, 152, 110, 63, 159, 118, 3, 1.74809
287, 2, bw, filler, NA, 999, 999, 4, 29, 110, 152, 110, 63, 159, 118, 2, 0.588762
287, 2, bw, attraction, a-b-db, 2, 2, 4, 30, 89, 163, 165, 90, 90, 165, 1, 5.69917
287, 2, bw, attraction, a-b-db, 2, 2, 4, 30, 89, 163, 165, 90, 90, 165, 2, 1.32481
287, 2, bw, attraction, a-b-db, 14, 2, 4, 31, 90, 165, 83, 153, 165, 90, 1, 1.83695
287, 2, bw, attraction, a-b-db, 14, 2, 4, 31, 90, 165, 83, 153, 165, 90, 2, 0.409646
287, 2, bw, filler, NA, 999, 999, 4, 32, 132, 159, 125, 85, 176, 74, 1, 0.934789
287, 2, bw, filler, NA, 999, 999, 4, 32, 132, 159, 125, 85, 176, 74, 3, 1.17659
287, 2, bw, attraction, a-b-db, 14, 3, 4, 33, 111, 181, 120, 195, 195, 120, 3, 2.7508
287, 2, bw, attraction, a-b-db, 14, 3, 4, 33, 111, 181, 120, 195, 195, 120, 2, 0.599228
287, 2, bw, filler, NA, 999, 999, 4, 34, 172, 69, 154, 115, 116, 74, 2, 3.54892
287, 2, bw, filler, NA, 999, 999, 4, 34, 172, 69, 154, 115, 116, 74, 3, 0.629201
287, 2, bw, attraction, a-b-da, 2, 1, 4, 35, 60, 135, 134, 59, 135, 60, 1, 2.4335
287, 2, bw, attraction, a-b-da, 2, 1, 4, 35, 60, 135, 134, 59, 135, 60, 2, 1.8548
287, 2, bw, attraction, a-b-db, 9, 2, 4, 36, 86, 157, 90, 165, 165, 90, 3, 2.06612
287, 2, bw, attraction, a-b-db, 9, 2, 4, 36, 86, 157, 90, 165, 165, 90, 2, 0.454176
287, 2, bw, filler, NA, 999, 999, 4, 37, 132, 174, 110, 117, 60, 171, 1, 2.42594
287, 2, bw, filler, NA, 999, 999, 4, 37, 132, 174, 110, 117, 60, 171, 2, 0.70316
287, 2, bw, attraction, a-b-da, 5, 2, 5, 1, 90, 165, 161, 88, 165, 90, 1, 4.5755
287, 2, bw, attraction, a-b-da, 5, 2, 5, 1, 90, 165, 161, 88, 165, 90, 2, 0.494055
287, 2, bw, attraction, a-b-db, 2, 1, 5, 2, 59, 134, 135, 60, 60, 135, 3, 1.40785
287, 2, bw, attraction, a-b-db, 2, 1, 5, 2, 59, 134, 135, 60, 60, 135, 2, 0.389984
287, 2, bw, catch, NA, 999, 999, 5, 3, 144, 171, 128, 127, 102, 93, 1, 0.979791
287, 2, bw, catch, NA, 999, 999, 5, 3, 144, 171, 128, 127, 102, 93, 3, 0.851618
287, 2, bw, attraction, a-b-da, 2, 3, 5, 4, 193, 119, 195, 120, 120, 195, 2, 1.34313
287, 2, bw, attraction, a-b-da, 2, 3, 5, 4, 193, 119, 195, 120, 120, 195, 1, 0.624053
287, 2, bw, attraction, a-b-db, 14, 1, 5, 5, 135, 60, 60, 135, 56, 125, 2, 0.924584
287, 2, bw, attraction, a-b-db, 14, 1, 5, 5, 135, 60, 60, 135, 56, 125, 3, 0.678179
287, 2, bw, attraction, a-b-db, 5, 3, 5, 6, 195, 120, 117, 190, 120, 195, 2, 2.62459
287, 2, bw, attraction, a-b-db, 5, 3, 5, 6, 195, 120, 117, 190, 120, 195, 1, 0.725659
287, 2, bw, attraction, a-b-db, 9, 2, 5, 7, 165, 90, 90, 165, 86, 157, 2, 1.42214
287, 2, bw, attraction, a-b-db, 9, 2, 5, 7, 165, 90, 90, 165, 86, 157, 3, 0.387582
287, 2, bw, catch, NA, 999, 999, 5, 8, 158, 97, 110, 85, 125, 190, 3, 1.51408
287, 2, bw, catch, NA, 999, 999, 5, 8, 158, 97, 110, 85, 125, 190, 2, 0.836379
287, 2, bw, filler, NA, 999, 999, 5, 9, 105, 157, 124, 83, 172, 163, 3, 0.928598
287, 2, bw, filler, NA, 999, 999, 5, 9, 105, 157, 124, 83, 172, 163, 2, 0.546341
287, 2, bw, attraction, a-b-db, 14, 3, 5, 10, 120, 195, 195, 120, 111, 181, 2, 2.57804
287, 2, bw, attraction, a-b-db, 14, 3, 5, 10, 120, 195, 195, 120, 111, 181, 3, 0.33721
287, 2, bw, filler, NA, 999, 999, 5, 11, 80, 170, 186, 146, 90, 66, 2, 2.1457
287, 2, bw, filler, NA, 999, 999, 5, 11, 80, 170, 186, 146, 90, 66, 3, 0.426362
287, 2, bw, attraction, a-b-da, 5, 3, 5, 12, 190, 117, 195, 120, 120, 195, 1, 2.82276
287, 2, bw, attraction, a-b-da, 5, 3, 5, 12, 190, 117, 195, 120, 120, 195, 2, 0.380018
287, 2, bw, attraction, a-b-db, 9, 3, 5, 13, 120, 195, 114, 186, 195, 120, 2, 1.57837
287, 2, bw, attraction, a-b-db, 9, 3, 5, 13, 120, 195, 114, 186, 195, 120, 3, 0.338
287, 2, bw, attraction, a-b-db, 9, 1, 5, 14, 135, 60, 60, 135, 57, 129, 2, 2.09042
287, 2, bw, attraction, a-b-db, 9, 1, 5, 14, 135, 60, 60, 135, 57, 129, 1, 0.469097
287, 2, bw, attraction, a-b-da, 14, 2, 5, 15, 165, 90, 153, 83, 90, 165, 2, 1.15221
287, 2, bw, attraction, a-b-da, 14, 2, 5, 15, 165, 90, 153, 83, 90, 165, 3, 0.489182
287, 2, bw, filler, NA, 999, 999, 5, 16, 112, 167, 158, 178, 130, 150, 2, 2.26764
287, 2, bw, filler, NA, 999, 999, 5, 16, 112, 167, 158, 178, 130, 150, 1, 0.919528
287, 2, bw, attraction, a-b-da, 2, 2, 5, 17, 90, 165, 165, 90, 163, 89, 2, 1.19253
287, 2, bw, attraction, a-b-da, 2, 2, 5, 17, 90, 165, 165, 90, 163, 89, 1, 0.551466
287, 2, bw, attraction, a-b-da, 14, 1, 5, 18, 135, 60, 125, 56, 60, 135, 2, 0.871337
287, 2, bw, attraction, a-b-da, 14, 1, 5, 18, 135, 60, 125, 56, 60, 135, 1, 0.642969
287, 2, bw, filler, NA, 999, 999, 5, 19, 145, 187, 175, 83, 84, 148, 1, 2.18265
287, 2, bw, filler, NA, 999, 999, 5, 19, 145, 187, 175, 83, 84, 148, 3, 1.54989
287, 2, bw, filler, NA, 999, 999, 5, 20, 193, 143, 149, 109, 187, 69, 1, 0.709359
287, 2, bw, filler, NA, 999, 999, 5, 20, 193, 143, 149, 109, 187, 69, 3, 0.887858
287, 2, bw, attraction, a-b-db, 5, 1, 5, 21, 135, 60, 60, 135, 58, 132, 2, 2.31415
287, 2, bw, attraction, a-b-db, 5, 1, 5, 21, 135, 60, 60, 135, 58, 132, 3, 0.524067
287, 2, bw, filler, NA, 999, 999, 5, 22, 169, 70, 96, 114, 127, 173, 3, 2.11649
287, 2, bw, filler, NA, 999, 999, 5, 22, 169, 70, 96, 114, 127, 173, 2, 0.550495
287, 2, bw, filler, NA, 999, 999, 5, 23, 189, 77, 69, 139, 81, 92, 1, 1.12622
287, 2, bw, filler, NA, 999, 999, 5, 23, 189, 77, 69, 139, 81, 92, 2, 0.71991
287, 2, bw, attraction, a-b-da, 5, 1, 5, 24, 132, 58, 60, 135, 135, 60, 1, 0.664946
287, 2, bw, attraction, a-b-da, 5, 1, 5, 24, 132, 58, 60, 135, 135, 60, 2, 0.461337
287, 2, bw, attraction, a-b-da, 9, 1, 5, 25, 129, 57, 60, 135, 135, 60, 3, 0.4886
287, 2, bw, attraction, a-b-da, 9, 1, 5, 25, 129, 57, 60, 135, 135, 60, 2, 0.507751
287, 2, bw, attraction, a-b-db, 2, 3, 5, 26, 120, 195, 195, 120, 119, 193, 3, 0.548772
287, 2, bw, attraction, a-b-db, 2, 3, 5, 26, 120, 195, 195, 120, 119, 193, 2, 0.405976
287, 2, bw, attraction, a-b-db, 5, 2, 5, 27, 90, 165, 165, 90, 88, 161, 3, 0.601725
287, 2, bw, attraction, a-b-db, 5, 2, 5, 27, 90, 165, 165, 90, 88, 161, 2, 0.721433
287, 2, bw, filler, NA, 999, 999, 5, 28, 192, 62, 106, 156, 136, 66, 2, 2.81053
287, 2, bw, filler, NA, 999, 999, 5, 28, 192, 62, 106, 156, 136, 66, 3, 0.912301
287, 2, bw, attraction, a-b-da, 9, 3, 5, 29, 195, 120, 186, 114, 120, 195, 2, 1.30527
287, 2, bw, attraction, a-b-da, 9, 3, 5, 29, 195, 120, 186, 114, 120, 195, 3, 0.987464
287, 2, bw, attraction, a-b-da, 14, 3, 5, 30, 120, 195, 181, 111, 195, 120, 2, 1.21778
287, 2, bw, attraction, a-b-da, 14, 3, 5, 30, 120, 195, 181, 111, 195, 120, 1, 0.872034
287, 2, bw, attraction, a-b-da, 9, 2, 5, 31, 157, 86, 165, 90, 90, 165, 3, 2.70718
287, 2, bw, attraction, a-b-da, 9, 2, 5, 31, 157, 86, 165, 90, 90, 165, 1, 0.821006
287, 2, bw, filler, NA, 999, 999, 5, 32, 65, 134, 147, 94, 148, 101, 3, 1.85788
287, 2, bw, filler, NA, 999, 999, 5, 32, 65, 134, 147, 94, 148, 101, 1, 0.597932
287, 2, bw, catch, NA, 999, 999, 5, 33, 144, 171, 136, 119, 98, 97, 1, 1.51564
287, 2, bw, catch, NA, 999, 999, 5, 33, 144, 171, 136, 119, 98, 97, 3, 0.637981
287, 2, bw, attraction, a-b-db, 14, 2, 5, 34, 90, 165, 165, 90, 83, 153, 1, 2.55434
287, 2, bw, attraction, a-b-db, 14, 2, 5, 34, 90, 165, 165, 90, 83, 153, 3, 0.65083
287, 2, bw, attraction, a-b-db, 2, 2, 5, 35, 165, 90, 90, 165, 89, 163, 2, 3.0706
287, 2, bw, attraction, a-b-db, 2, 2, 5, 35, 165, 90, 90, 165, 89, 163, 1, 0.546229
287, 2, bw, filler, NA, 999, 999, 5, 36, 73, 103, 97, 73, 108, 89, 3, 2.03398
287, 2, bw, filler, NA, 999, 999, 5, 36, 73, 103, 97, 73, 108, 89, 1, 1.20747
287, 2, bw, attraction, a-b-da, 2, 1, 5, 37, 60, 135, 135, 60, 134, 59, 1, 1.61225
287, 2, bw, attraction, a-b-da, 2, 1, 5, 37, 60, 135, 135, 60, 134, 59, 3, 0.538405
287, 2, bw, filler, NA, 999, 999, 6, 1, 175, 188, 174, 88, 153, 86, 1, 3.43481
287, 2, bw, filler, NA, 999, 999, 6, 1, 175, 188, 174, 88, 153, 86, 3, 1.15986
287, 2, bw, filler, NA, 999, 999, 6, 2, 140, 110, 82, 82, 83, 77, 1, 1.75861
287, 2, bw, filler, NA, 999, 999, 6, 2, 140, 110, 82, 82, 83, 77, 2, 1.67082
287, 2, bw, attraction, a-b-db, 5, 3, 6, 3, 195, 120, 117, 190, 120, 195, 2, 1.26549
287, 2, bw, attraction, a-b-db, 5, 3, 6, 3, 195, 120, 117, 190, 120, 195, 1, 0.685767
287, 2, bw, catch, NA, 999, 999, 6, 4, 131, 124, 135, 60, 156, 159, 3, 0.768089
287, 2, bw, catch, NA, 999, 999, 6, 4, 131, 124, 135, 60, 156, 159, 2, 0.648666
287, 2, bw, attraction, a-b-da, 9, 1, 6, 5, 135, 60, 129, 57, 60, 135, 1, 2.06838
287, 2, bw, attraction, a-b-da, 9, 1, 6, 5, 135, 60, 129, 57, 60, 135, 2, 0.848398
287, 2, bw, attraction, a-b-db, 14, 1, 6, 6, 135, 60, 56, 125, 60, 135, 1, 0.83596
287, 2, bw, attraction, a-b-db, 14, 1, 6, 6, 135, 60, 56, 125, 60, 135, 2, 0.481714
287, 2, bw, attraction, a-b-da, 9, 3, 6, 7, 195, 120, 186, 114, 120, 195, 1, 1.8601
287, 2, bw, attraction, a-b-da, 9, 3, 6, 7, 195, 120, 186, 114, 120, 195, 2, 0.568155
287, 2, bw, catch, NA, 999, 999, 6, 8, 189, 126, 100, 95, 126, 129, 1, 0.903341
287, 2, bw, catch, NA, 999, 999, 6, 8, 189, 126, 100, 95, 126, 129, 2, 0.88228
287, 2, bw, attraction, a-b-db, 5, 2, 6, 9, 165, 90, 90, 165, 88, 161, 1, 0.836638
287, 2, bw, attraction, a-b-db, 5, 2, 6, 9, 165, 90, 90, 165, 88, 161, 3, 0.546365
287, 2, bw, attraction, a-b-da, 14, 3, 6, 10, 181, 111, 195, 120, 120, 195, 2, 1.9701
287, 2, bw, attraction, a-b-da, 14, 3, 6, 10, 181, 111, 195, 120, 120, 195, 1, 0.442114
287, 2, bw, attraction, a-b-db, 9, 1, 6, 11, 60, 135, 57, 129, 135, 60, 2, 0.941898
287, 2, bw, attraction, a-b-db, 9, 1, 6, 11, 60, 135, 57, 129, 135, 60, 1, 0.382947
287, 2, bw, attraction, a-b-da, 5, 3, 6, 12, 195, 120, 190, 117, 120, 195, 1, 1.26945
287, 2, bw, attraction, a-b-da, 5, 3, 6, 12, 195, 120, 190, 117, 120, 195, 2, 0.45768
287, 2, bw, attraction, a-b-db, 2, 2, 6, 13, 90, 165, 165, 90, 89, 163, 1, 1.62874
287, 2, bw, attraction, a-b-db, 2, 2, 6, 13, 90, 165, 165, 90, 89, 163, 2, 0.538333
287, 2, bw, attraction, a-b-db, 2, 1, 6, 14, 59, 134, 60, 135, 135, 60, 2, 0.914693
287, 2, bw, attraction, a-b-db, 2, 1, 6, 14, 59, 134, 60, 135, 135, 60, 3, 0.605044
287, 2, bw, filler, NA, 999, 999, 6, 15, 116, 102, 76, 68, 138, 192, 3, 1.01085
287, 2, bw, filler, NA, 999, 999, 6, 15, 116, 102, 76, 68, 138, 192, 2, 0.521178
287, 2, bw, filler, NA, 999, 999, 6, 16, 101, 79, 73, 183, 109, 141, 3, 1.01036
287, 2, bw, filler, NA, 999, 999, 6, 16, 101, 79, 73, 183, 109, 141, 1, 0.944543
287, 2, bw, filler, NA, 999, 999, 6, 17, 190, 101, 177, 100, 180, 56, 1, 2.03226
287, 2, bw, filler, NA, 999, 999, 6, 17, 190, 101, 177, 100, 180, 56, 3, 0.525555
287, 2, bw, attraction, a-b-da, 2, 2, 6, 18, 165, 90, 163, 89, 90, 165, 2, 1.598
287, 2, bw, attraction, a-b-da, 2, 2, 6, 18, 165, 90, 163, 89, 90, 165, 3, 0.788821
287, 2, bw, attraction, a-b-da, 2, 3, 6, 19, 120, 195, 193, 119, 195, 120, 1, 2.11517
287, 2, bw, attraction, a-b-da, 2, 3, 6, 19, 120, 195, 193, 119, 195, 120, 2, 0.66115
287, 2, bw, filler, NA, 999, 999, 6, 20, 108, 57, 87, 75, 100, 181, 3, 1.55218
287, 2, bw, filler, NA, 999, 999, 6, 20, 108, 57, 87, 75, 100, 181, 1, 1.12116
287, 2, bw, attraction, a-b-db, 14, 2, 6, 21, 165, 90, 90, 165, 83, 153, 2, 1.27396
287, 2, bw, attraction, a-b-db, 14, 2, 6, 21, 165, 90, 90, 165, 83, 153, 3, 0.749536
287, 2, bw, attraction, a-b-da, 5, 2, 6, 22, 165, 90, 161, 88, 90, 165, 3, 0.949266
287, 2, bw, attraction, a-b-da, 5, 2, 6, 22, 165, 90, 161, 88, 90, 165, 1, 0.598201
287, 2, bw, attraction, a-b-da, 14, 2, 6, 23, 90, 165, 165, 90, 153, 83, 2, 0.763983
287, 2, bw, attraction, a-b-da, 14, 2, 6, 23, 90, 165, 165, 90, 153, 83, 3, 2.40442
287, 2, bw, attraction, a-b-db, 14, 3, 6, 24, 111, 181, 195, 120, 120, 195, 3, 1.61757
287, 2, bw, attraction, a-b-db, 14, 3, 6, 24, 111, 181, 195, 120, 120, 195, 1, 0.43172
287, 2, bw, filler, NA, 999, 999, 6, 25, 63, 192, 166, 88, 193, 174, 3, 0.916187
287, 2, bw, filler, NA, 999, 999, 6, 25, 63, 192, 166, 88, 193, 174, 1, 0.558573
287, 2, bw, attraction, a-b-da, 5, 1, 6, 26, 132, 58, 60, 135, 135, 60, 2, 2.66165
287, 2, bw, attraction, a-b-da, 5, 1, 6, 26, 132, 58, 60, 135, 135, 60, 3, 1.07352
287, 2, bw, attraction, a-b-da, 9, 2, 6, 27, 157, 86, 165, 90, 90, 165, 3, 4.13168
287, 2, bw, attraction, a-b-da, 9, 2, 6, 27, 157, 86, 165, 90, 90, 165, 1, 0.668436
287, 2, bw, filler, NA, 999, 999, 6, 28, 165, 78, 144, 188, 97, 67, 2, 1.31959
287, 2, bw, filler, NA, 999, 999, 6, 28, 165, 78, 144, 188, 97, 67, 3, 0.689764
287, 2, bw, attraction, a-b-da, 2, 1, 6, 29, 135, 60, 60, 135, 134, 59, 1, 1.48339
287, 2, bw, attraction, a-b-da, 2, 1, 6, 29, 135, 60, 60, 135, 134, 59, 3, 0.822968
287, 2, bw, attraction, a-b-db, 9, 3, 6, 30, 120, 195, 114, 186, 195, 120, 2, 1.3793
287, 2, bw, attraction, a-b-db, 9, 3, 6, 30, 120, 195, 114, 186, 195, 120, 1, 0.611005
287, 2, bw, attraction, a-b-db, 9, 2, 6, 31, 90, 165, 86, 157, 165, 90, 2, 0.991925
287, 2, bw, attraction, a-b-db, 9, 2, 6, 31, 90, 165, 86, 157, 165, 90, 3, 1.09488
287, 2, bw, attraction, a-b-db, 5, 1, 6, 32, 58, 132, 135, 60, 60, 135, 2, 1.27261
287, 2, bw, attraction, a-b-db, 5, 1, 6, 32, 58, 132, 135, 60, 60, 135, 1, 0.492094
287, 2, bw, filler, NA, 999, 999, 6, 33, 102, 120, 177, 67, 119, 61, 1, 1.42185
287, 2, bw, filler, NA, 999, 999, 6, 33, 102, 120, 177, 67, 119, 61, 3, 1.2914
287, 2, bw, attraction, a-b-db, 2, 3, 6, 34, 195, 120, 120, 195, 119, 193, 2, 0.876973
287, 2, bw, attraction, a-b-db, 2, 3, 6, 34, 195, 120, 120, 195, 119, 193, 1, 0.504646
287, 2, bw, attraction, a-b-da, 14, 1, 6, 35, 125, 56, 135, 60, 60, 135, 2, 0.970392
287, 2, bw, attraction, a-b-da, 14, 1, 6, 35, 125, 56, 135, 60, 60, 135, 1, 0.602735
287, 2, bw, catch, NA, 999, 999, 6, 36, 77, 118, 156, 159, 140, 115, 2, 0.648518
287, 2, bw, catch, NA, 999, 999, 6, 36, 77, 118, 156, 159, 140, 115, 1, 0.453615
287, 2, bw, filler, NA, 999, 999, 6, 37, 130, 77, 139, 165, 191, 128, 3, 1.29745
287, 2, bw, filler, NA, 999, 999, 6, 37, 130, 77, 139, 165, 191, 128, 1, 0.804355
287, 2, bw, filler, NA, 999, 999, 7, 1, 56, 88, 163, 183, 107, 165, 2, 1.46602
287, 2, bw, filler, NA, 999, 999, 7, 1, 56, 88, 163, 183, 107, 165, 1, 0.486172
287, 2, bw, attraction, a-b-da, 5, 3, 7, 2, 120, 195, 195, 120, 190, 117, 1, 1.00863
287, 2, bw, attraction, a-b-da, 5, 3, 7, 2, 120, 195, 195, 120, 190, 117, 2, 0.81508
287, 2, bw, filler, NA, 999, 999, 7, 3, 127, 74, 67, 132, 77, 101, 1, 1.58818
287, 2, bw, filler, NA, 999, 999, 7, 3, 127, 74, 67, 132, 77, 101, 3, 0.466865
287, 2, bw, attraction, a-b-db, 5, 1, 7, 4, 135, 60, 60, 135, 58, 132, 2, 1.18189
287, 2, bw, attraction, a-b-db, 5, 1, 7, 4, 135, 60, 60, 135, 58, 132, 1, 0.549664
287, 2, bw, attraction, a-b-da, 5, 2, 7, 5, 161, 88, 165, 90, 90, 165, 3, 1.31743
287, 2, bw, attraction, a-b-da, 5, 2, 7, 5, 161, 88, 165, 90, 90, 165, 1, 0.591537
287, 2, bw, catch, NA, 999, 999, 7, 6, 74, 121, 136, 179, 125, 130, 2, 0.925296
287, 2, bw, catch, NA, 999, 999, 7, 6, 74, 121, 136, 179, 125, 130, 1, 0.390963
287, 2, bw, attraction, a-b-db, 9, 2, 7, 7, 86, 157, 90, 165, 165, 90, 2, 0.924842
287, 2, bw, attraction, a-b-db, 9, 2, 7, 7, 86, 157, 90, 165, 165, 90, 3, 0.382612
287, 2, bw, filler, NA, 999, 999, 7, 8, 118, 60, 149, 120, 171, 109, 2, 0.756975
287, 2, bw, filler, NA, 999, 999, 7, 8, 118, 60, 149, 120, 171, 109, 1, 0.829398
287, 2, bw, attraction, a-b-db, 2, 2, 7, 9, 165, 90, 89, 163, 90, 165, 3, 1.18577
287, 2, bw, attraction, a-b-db, 2, 2, 7, 9, 165, 90, 89, 163, 90, 165, 2, 0.641324
287, 2, bw, attraction, a-b-da, 14, 2, 7, 10, 153, 83, 165, 90, 90, 165, 3, 4.25307
287, 2, bw, attraction, a-b-da, 14, 2, 7, 10, 153, 83, 165, 90, 90, 165, 1, 1.06503
287, 2, bw, attraction, a-b-da, 14, 1, 7, 11, 60, 135, 125, 56, 135, 60, 3, 2.62804
287, 2, bw, attraction, a-b-da, 14, 1, 7, 11, 60, 135, 125, 56, 135, 60, 2, 0.497096
287, 2, bw, filler, NA, 999, 999, 7, 12, 194, 173, 182, 63, 189, 117, 1, 1.10691
287, 2, bw, filler, NA, 999, 999, 7, 12, 194, 173, 182, 63, 189, 117, 2, 0.837181
287, 2, bw, attraction, a-b-db, 5, 3, 7, 13, 195, 120, 120, 195, 117, 190, 2, 1.45764
287, 2, bw, attraction, a-b-db, 5, 3, 7, 13, 195, 120, 120, 195, 117, 190, 1, 0.621769
287, 2, bw, attraction, a-b-db, 5, 2, 7, 14, 88, 161, 90, 165, 165, 90, 2, 1.73089
287, 2, bw, attraction, a-b-db, 5, 2, 7, 14, 88, 161, 90, 165, 165, 90, 3, 0.636214
287, 2, bw, attraction, a-b-db, 2, 3, 7, 15, 120, 195, 195, 120, 119, 193, 3, 2.19273
287, 2, bw, attraction, a-b-db, 2, 3, 7, 15, 120, 195, 195, 120, 119, 193, 2, 0.839452
287, 2, bw, filler, NA, 999, 999, 7, 16, 129, 66, 155, 161, 73, 119, 2, 1.37898
287, 2, bw, filler, NA, 999, 999, 7, 16, 129, 66, 155, 161, 73, 119, 1, 0.650485
287, 2, bw, attraction, a-b-db, 14, 2, 7, 17, 165, 90, 83, 153, 90, 165, 3, 8.55022
287, 2, bw, attraction, a-b-db, 14, 2, 7, 17, 165, 90, 83, 153, 90, 165, 2, 0.996952
287, 2, bw, filler, NA, 999, 999, 7, 18, 125, 195, 119, 63, 113, 195, 1, 1.00249
287, 2, bw, filler, NA, 999, 999, 7, 18, 125, 195, 119, 63, 113, 195, 2, 0.72949
287, 2, bw, filler, NA, 999, 999, 7, 19, 56, 99, 171, 84, 85, 181, 2, 2.72997
287, 2, bw, filler, NA, 999, 999, 7, 19, 56, 99, 171, 84, 85, 181, 1, 0.547085
287, 2, bw, attraction, a-b-da, 9, 2, 7, 20, 157, 86, 90, 165, 165, 90, 2, 0.722745
287, 2, bw, attraction, a-b-da, 9, 2, 7, 20, 157, 86, 90, 165, 165, 90, 1, 0.90055
287, 2, bw, filler, NA, 999, 999, 7, 21, 195, 98, 85, 97, 112, 96, 1, 1.49418
287, 2, bw, filler, NA, 999, 999, 7, 21, 195, 98, 85, 97, 112, 96, 2, 0.585009
287, 2, bw, attraction, a-b-db, 14, 1, 7, 22, 135, 60, 56, 125, 60, 135, 2, 1.26343
287, 2, bw, attraction, a-b-db, 14, 1, 7, 22, 135, 60, 56, 125, 60, 135, 3, 0.419721
287, 2, bw, catch, NA, 999, 999, 7, 23, 60, 135, 131, 124, 126, 189, 3, 0.936871
287, 2, bw, catch, NA, 999, 999, 7, 23, 60, 135, 131, 124, 126, 189, 2, 0.409839
287, 2, bw, attraction, a-b-da, 2, 3, 7, 24, 120, 195, 193, 119, 195, 120, 1, 1.095
287, 2, bw, attraction, a-b-da, 2, 3, 7, 24, 120, 195, 193, 119, 195, 120, 3, 0.586078
287, 2, bw, attraction, a-b-db, 9, 3, 7, 25, 120, 195, 195, 120, 114, 186, 1, 3.01634
287, 2, bw, attraction, a-b-db, 9, 3, 7, 25, 120, 195, 195, 120, 114, 186, 2, 0.51013
287, 2, bw, catch, NA, 999, 999, 7, 26, 146, 109, 88, 107, 179, 136, 3, 1.05524
287, 2, bw, catch, NA, 999, 999, 7, 26, 146, 109, 88, 107, 179, 136, 2, 0.507618
287, 2, bw, attraction, a-b-db, 9, 1, 7, 27, 60, 135, 135, 60, 57, 129, 2, 1.06071
287, 2, bw, attraction, a-b-db, 9, 1, 7, 27, 60, 135, 135, 60, 57, 129, 3, 0.568994
287, 2, bw, attraction, a-b-db, 14, 3, 7, 28, 111, 181, 120, 195, 195, 120, 2, 2.29613
287, 2, bw, attraction, a-b-db, 14, 3, 7, 28, 111, 181, 120, 195, 195, 120, 1, 0.602597
287, 2, bw, filler, NA, 999, 999, 7, 29, 138, 169, 64, 93, 158, 188, 3, 1.56848
287, 2, bw, filler, NA, 999, 999, 7, 29, 138, 169, 64, 93, 158, 188, 2, 0.504551
287, 2, bw, attraction, a-b-db, 2, 1, 7, 30, 60, 135, 59, 134, 135, 60, 2, 0.938401
287, 2, bw, attraction, a-b-db, 2, 1, 7, 30, 60, 135, 59, 134, 135, 60, 3, 0.595351
287, 2, bw, attraction, a-b-da, 2, 2, 7, 31, 165, 90, 90, 165, 163, 89, 2, 1.80911
287, 2, bw, attraction, a-b-da, 2, 2, 7, 31, 165, 90, 90, 165, 163, 89, 3, 0.567171
287, 2, bw, attraction, a-b-da, 5, 1, 7, 32, 60, 135, 132, 58, 135, 60, 1, 1.03025
287, 2, bw, attraction, a-b-da, 5, 1, 7, 32, 60, 135, 132, 58, 135, 60, 2, 0.403947
287, 2, bw, attraction, a-b-da, 9, 1, 7, 33, 135, 60, 60, 135, 129, 57, 2, 1.04183
287, 2, bw, attraction, a-b-da, 9, 1, 7, 33, 135, 60, 60, 135, 129, 57, 1, 0.566782
287, 2, bw, attraction, a-b-da, 2, 1, 7, 34, 134, 59, 60, 135, 135, 60, 2, 2.02981
287, 2, bw, attraction, a-b-da, 2, 1, 7, 34, 134, 59, 60, 135, 135, 60, 3, 0.395186
287, 2, bw, attraction, a-b-da, 14, 3, 7, 35, 120, 195, 181, 111, 195, 120, 3, 1.40094
287, 2, bw, attraction, a-b-da, 14, 3, 7, 35, 120, 195, 181, 111, 195, 120, 2, 0.391811
287, 2, bw, filler, NA, 999, 999, 7, 36, 150, 131, 153, 177, 81, 163, 2, 2.10165
287, 2, bw, filler, NA, 999, 999, 7, 36, 150, 131, 153, 177, 81, 163, 3, 0.552348
287, 2, bw, attraction, a-b-da, 9, 3, 7, 37, 195, 120, 186, 114, 120, 195, 2, 1.64004
287, 2, bw, attraction, a-b-da, 9, 3, 7, 37, 195, 120, 186, 114, 120, 195, 1, 0.476844
287, 2, bw, attraction, a-b-db, 14, 3, 8, 1, 195, 120, 120, 195, 111, 181, 1, 1.28729
287, 2, bw, attraction, a-b-db, 14, 3, 8, 1, 195, 120, 120, 195, 111, 181, 3, 0.506994
287, 2, bw, attraction, a-b-da, 5, 3, 8, 2, 190, 117, 120, 195, 195, 120, 2, 0.803981
287, 2, bw, attraction, a-b-da, 5, 3, 8, 2, 190, 117, 120, 195, 195, 120, 1, 0.394381
287, 2, bw, attraction, a-b-da, 2, 1, 8, 3, 60, 135, 135, 60, 134, 59, 2, 1.54429
287, 2, bw, attraction, a-b-da, 2, 1, 8, 3, 60, 135, 135, 60, 134, 59, 1, 0.761098
287, 2, bw, attraction, a-b-da, 14, 2, 8, 4, 165, 90, 153, 83, 90, 165, 3, 0.968126
287, 2, bw, attraction, a-b-da, 14, 2, 8, 4, 165, 90, 153, 83, 90, 165, 2, 0.528374
287, 2, bw, filler, NA, 999, 999, 8, 5, 169, 191, 76, 60, 180, 174, 3, 1.36887
287, 2, bw, filler, NA, 999, 999, 8, 5, 169, 191, 76, 60, 180, 174, 2, 0.449101
287, 2, bw, attraction, a-b-db, 5, 1, 8, 6, 60, 135, 58, 132, 135, 60, 2, 1.23696
287, 2, bw, attraction, a-b-db, 5, 1, 8, 6, 60, 135, 58, 132, 135, 60, 1, 0.866472
287, 2, bw, catch, NA, 999, 999, 8, 7, 184, 131, 120, 135, 118, 77, 1, 0.773486
287, 2, bw, catch, NA, 999, 999, 8, 7, 184, 131, 120, 135, 118, 77, 2, 0.509223
287, 2, bw, attraction, a-b-da, 2, 2, 8, 8, 90, 165, 165, 90, 163, 89, 2, 1.02234
287, 2, bw, attraction, a-b-da, 2, 2, 8, 8, 90, 165, 165, 90, 163, 89, 3, 0.403939
287, 2, bw, attraction, a-b-db, 2, 2, 8, 9, 89, 163, 165, 90, 90, 165, 2, 0.681692
287, 2, bw, attraction, a-b-db, 2, 2, 8, 9, 89, 163, 165, 90, 90, 165, 3, 0.405563
287, 2, bw, attraction, a-b-da, 14, 1, 8, 10, 135, 60, 125, 56, 60, 135, 3, 0.795369
287, 2, bw, attraction, a-b-da, 14, 1, 8, 10, 135, 60, 125, 56, 60, 135, 2, 0.394493
287, 2, bw, filler, NA, 999, 999, 8, 11, 100, 190, 157, 180, 149, 153, 2, 1.30416
287, 2, bw, filler, NA, 999, 999, 8, 11, 100, 190, 157, 180, 149, 153, 1, 2.16247
287, 2, bw, attraction, a-b-db, 5, 2, 8, 12, 88, 161, 90, 165, 165, 90, 3, 1.11303
287, 2, bw, attraction, a-b-db, 5, 2, 8, 12, 88, 161, 90, 165, 165, 90, 2, 0.971463
287, 2, bw, attraction, a-b-da, 9, 1, 8, 13, 135, 60, 129, 57, 60, 135, 2, 1.09829
287, 2, bw, attraction, a-b-da, 9, 1, 8, 13, 135, 60, 129, 57, 60, 135, 3, 0.429385
287, 2, bw, attraction, a-b-da, 14, 3, 8, 14, 181, 111, 195, 120, 120, 195, 2, 1.23372
287, 2, bw, attraction, a-b-da, 14, 3, 8, 14, 181, 111, 195, 120, 120, 195, 1, 0.551336
287, 2, bw, attraction, a-b-db, 5, 3, 8, 15, 195, 120, 117, 190, 120, 195, 2, 0.951086
287, 2, bw, attraction, a-b-db, 5, 3, 8, 15, 195, 120, 117, 190, 120, 195, 3, 0.544132
287, 2, bw, attraction, a-b-db, 2, 1, 8, 16, 60, 135, 59, 134, 135, 60, 2, 0.807922
287, 2, bw, attraction, a-b-db, 2, 1, 8, 16, 60, 135, 59, 134, 135, 60, 1, 0.790456
287, 2, bw, filler, NA, 999, 999, 8, 17, 59, 128, 106, 115, 162, 167, 3, 1.12408
287, 2, bw, filler, NA, 999, 999, 8, 17, 59, 128, 106, 115, 162, 167, 1, 0.565611
287, 2, bw, filler, NA, 999, 999, 8, 18, 69, 87, 194, 166, 153, 139, 2, 0.876802
287, 2, bw, filler, NA, 999, 999, 8, 18, 69, 87, 194, 166, 153, 139, 1, 0.64836
287, 2, bw, attraction, a-b-da, 5, 2, 8, 19, 90, 165, 161, 88, 165, 90, 2, 0.860115
287, 2, bw, attraction, a-b-da, 5, 2, 8, 19, 90, 165, 161, 88, 165, 90, 1, 0.496485
287, 2, bw, filler, NA, 999, 999, 8, 20, 125, 168, 130, 132, 82, 186, 2, 0.738283
287, 2, bw, filler, NA, 999, 999, 8, 20, 125, 168, 130, 132, 82, 186, 3, 0.491394
287, 2, bw, filler, NA, 999, 999, 8, 21, 108, 124, 115, 65, 144, 155, 3, 0.933228
287, 2, bw, filler, NA, 999, 999, 8, 21, 108, 124, 115, 65, 144, 155, 2, 0.454791
287, 2, bw, filler, NA, 999, 999, 8, 22, 152, 106, 91, 152, 93, 191, 2, 0.922601
287, 2, bw, filler, NA, 999, 999, 8, 22, 152, 106, 91, 152, 93, 191, 3, 0.44428
287, 2, bw, attraction, a-b-da, 9, 2, 8, 23, 165, 90, 90, 165, 157, 86, 2, 0.704095
287, 2, bw, attraction, a-b-da, 9, 2, 8, 23, 165, 90, 90, 165, 157, 86, 3, 0.474528
287, 2, bw, catch, NA, 999, 999, 8, 24, 87, 108, 182, 133, 158, 97, 2, 1.093
287, 2, bw, catch, NA, 999, 999, 8, 24, 87, 108, 182, 133, 158, 97, 1, 0.407988
287, 2, bw, attraction, a-b-db, 2, 3, 8, 25, 119, 193, 195, 120, 120, 195, 2, 0.717085
287, 2, bw, attraction, a-b-db, 2, 3, 8, 25, 119, 193, 195, 120, 120, 195, 1, 0.575506
287, 2, bw, filler, NA, 999, 999, 8, 26, 130, 188, 89, 91, 163, 126, 1, 1.88593
287, 2, bw, filler, NA, 999, 999, 8, 26, 130, 188, 89, 91, 163, 126, 2, 0.409433
287, 2, bw, attraction, a-b-db, 9, 2, 8, 27, 165, 90, 86, 157, 90, 165, 2, 0.822521
287, 2, bw, attraction, a-b-db, 9, 2, 8, 27, 165, 90, 86, 157, 90, 165, 3, 0.460232
287, 2, bw, attraction, a-b-da, 5, 1, 8, 28, 135, 60, 132, 58, 60, 135, 1, 0.703242
287, 2, bw, attraction, a-b-da, 5, 1, 8, 28, 135, 60, 132, 58, 60, 135, 2, 0.498455
287, 2, bw, attraction, a-b-db, 14, 1, 8, 29, 56, 125, 60, 135, 135, 60, 2, 0.732158
287, 2, bw, attraction, a-b-db, 14, 1, 8, 29, 56, 125, 60, 135, 135, 60, 1, 0.477998
287, 2, bw, catch, NA, 999, 999, 8, 30, 154, 101, 99, 96, 194, 121, 3, 1.68042
287, 2, bw, catch, NA, 999, 999, 8, 30, 154, 101, 99, 96, 194, 121, 2, 1.29984
287, 2, bw, attraction, a-b-da, 9, 3, 8, 31, 195, 120, 186, 114, 120, 195, 2, 0.933367
287, 2, bw, attraction, a-b-da, 9, 3, 8, 31, 195, 120, 186, 114, 120, 195, 1, 0.48708
287, 2, bw, attraction, a-b-da, 2, 3, 8, 32, 120, 195, 195, 120, 193, 119, 1, 2.39367
287, 2, bw, attraction, a-b-da, 2, 3, 8, 32, 120, 195, 195, 120, 193, 119, 3, 0.440114
287, 2, bw, attraction, a-b-db, 14, 2, 8, 33, 165, 90, 90, 165, 83, 153, 2, 0.731894
287, 2, bw, attraction, a-b-db, 14, 2, 8, 33, 165, 90, 90, 165, 83, 153, 3, 0.917679
287, 2, bw, filler, NA, 999, 999, 8, 34, 109, 124, 87, 141, 100, 87, 2, 1.8387
287, 2, bw, filler, NA, 999, 999, 8, 34, 109, 124, 87, 141, 100, 87, 3, 0.427401
287, 2, bw, attraction, a-b-db, 9, 1, 8, 35, 60, 135, 135, 60, 57, 129, 2, 1.24778
287, 2, bw, attraction, a-b-db, 9, 1, 8, 35, 60, 135, 135, 60, 57, 129, 1, 0.748788
287, 2, bw, attraction, a-b-db, 9, 3, 8, 36, 114, 186, 120, 195, 195, 120, 2, 1.38051
287, 2, bw, attraction, a-b-db, 9, 3, 8, 36, 114, 186, 120, 195, 195, 120, 3, 0.547981
287, 2, bw, filler, NA, 999, 999, 8, 37, 73, 173, 173, 164, 129, 138, 2, 0.979911
287, 2, bw, filler, NA, 999, 999, 8, 37, 73, 173, 173, 164, 129, 138, 1, 0.427399
