sub_n, computer_n, bw_cond, effect, set, distance, diag, block_n, trial_n, h1, w1, h2, w2, h3, w3, choice, rt 
251, 2, bw, practice, NA, 999, 999, 0, 1, 144, 58, 68, 79, 58, 166, 3, 3.66815
251, 2, bw, practice, NA, 999, 999, 0, 1, 144, 58, 68, 79, 58, 166, 2, 7.11031
251, 2, bw, practice, NA, 999, 999, 0, 2, 174, 191, 190, 147, 127, 92, 1, 5.02136
251, 2, bw, practice, NA, 999, 999, 0, 2, 174, 191, 190, 147, 127, 92, 3, 2.17945
251, 2, bw, practice, NA, 999, 999, 0, 3, 126, 109, 56, 60, 189, 104, 3, 3.73119
251, 2, bw, practice, NA, 999, 999, 0, 3, 126, 109, 56, 60, 189, 104, 2, 1.34654
251, 2, bw, catch, NA, 999, 999, 1, 1, 132, 183, 159, 96, 73, 122, 1, 2.73894
251, 2, bw, catch, NA, 999, 999, 1, 1, 132, 183, 159, 96, 73, 122, 3, 2.73934
251, 2, bw, attraction, a-b-db, 9, 1, 1, 2, 135, 60, 57, 129, 60, 135, 3, 9.53114
251, 2, bw, attraction, a-b-db, 9, 1, 1, 2, 135, 60, 57, 129, 60, 135, 2, 1.19403
251, 2, bw, attraction, a-b-da, 5, 3, 1, 3, 195, 120, 120, 195, 190, 117, 2, 9.2076
251, 2, bw, attraction, a-b-da, 5, 3, 1, 3, 195, 120, 120, 195, 190, 117, 3, 1.45148
251, 2, bw, catch, NA, 999, 999, 1, 4, 129, 186, 94, 101, 145, 110, 1, 1.88684
251, 2, bw, catch, NA, 999, 999, 1, 4, 129, 186, 94, 101, 145, 110, 2, 1.10627
251, 2, bw, filler, NA, 999, 999, 1, 5, 181, 77, 105, 139, 93, 64, 2, 4.37117
251, 2, bw, filler, NA, 999, 999, 1, 5, 181, 77, 105, 139, 93, 64, 3, 3.08246
251, 2, bw, filler, NA, 999, 999, 1, 6, 132, 133, 63, 130, 156, 116, 1, 11.4922
251, 2, bw, filler, NA, 999, 999, 1, 6, 132, 133, 63, 130, 156, 116, 2, 0.907713
251, 2, bw, filler, NA, 999, 999, 1, 7, 150, 79, 99, 137, 147, 139, 3, 1.37285
251, 2, bw, filler, NA, 999, 999, 1, 7, 150, 79, 99, 137, 147, 139, 1, 4.96435
251, 2, bw, attraction, a-b-da, 2, 1, 1, 8, 134, 59, 135, 60, 60, 135, 1, 9.85004
251, 2, bw, attraction, a-b-da, 2, 1, 1, 8, 134, 59, 135, 60, 60, 135, 2, 1.7723
251, 2, bw, attraction, a-b-db, 9, 2, 1, 9, 165, 90, 86, 157, 90, 165, 1, 13.291
251, 2, bw, attraction, a-b-db, 9, 2, 1, 9, 165, 90, 86, 157, 90, 165, 3, 1.7788
251, 2, bw, attraction, a-b-db, 2, 1, 1, 10, 135, 60, 59, 134, 60, 135, 2, 2.27292
251, 2, bw, attraction, a-b-db, 2, 1, 1, 10, 135, 60, 59, 134, 60, 135, 1, 1.12425
251, 2, bw, attraction, a-b-db, 2, 2, 1, 11, 89, 163, 165, 90, 90, 165, 3, 12.9725
251, 2, bw, attraction, a-b-db, 2, 2, 1, 11, 89, 163, 165, 90, 90, 165, 2, 2.07311
251, 2, bw, attraction, a-b-da, 14, 1, 1, 12, 135, 60, 60, 135, 125, 56, 2, 2.91507
251, 2, bw, attraction, a-b-da, 14, 1, 1, 12, 135, 60, 60, 135, 125, 56, 3, 1.16471
251, 2, bw, filler, NA, 999, 999, 1, 13, 92, 120, 169, 86, 109, 91, 2, 2.61952
251, 2, bw, filler, NA, 999, 999, 1, 13, 92, 120, 169, 86, 109, 91, 3, 1.36138
251, 2, bw, attraction, a-b-da, 2, 2, 1, 14, 90, 165, 163, 89, 165, 90, 1, 9.44018
251, 2, bw, attraction, a-b-da, 2, 2, 1, 14, 90, 165, 163, 89, 165, 90, 2, 1.90737
251, 2, bw, attraction, a-b-da, 9, 3, 1, 15, 186, 114, 120, 195, 195, 120, 2, 2.92399
251, 2, bw, attraction, a-b-da, 9, 3, 1, 15, 186, 114, 120, 195, 195, 120, 1, 0.812938
251, 2, bw, attraction, a-b-db, 14, 1, 1, 16, 56, 125, 135, 60, 60, 135, 3, 2.35398
251, 2, bw, attraction, a-b-db, 14, 1, 1, 16, 56, 125, 135, 60, 60, 135, 1, 1.82666
251, 2, bw, attraction, a-b-da, 5, 2, 1, 17, 165, 90, 161, 88, 90, 165, 3, 9.2387
251, 2, bw, attraction, a-b-da, 5, 2, 1, 17, 165, 90, 161, 88, 90, 165, 2, 3.87369
251, 2, bw, attraction, a-b-da, 14, 3, 1, 18, 120, 195, 195, 120, 181, 111, 1, 3.25183
251, 2, bw, attraction, a-b-da, 14, 3, 1, 18, 120, 195, 195, 120, 181, 111, 3, 1.21603
251, 2, bw, filler, NA, 999, 999, 1, 19, 156, 122, 169, 112, 155, 178, 3, 2.34102
251, 2, bw, filler, NA, 999, 999, 1, 19, 156, 122, 169, 112, 155, 178, 2, 8.28566
251, 2, bw, attraction, a-b-db, 5, 3, 1, 20, 195, 120, 120, 195, 117, 190, 2, 12.6856
251, 2, bw, attraction, a-b-db, 5, 3, 1, 20, 195, 120, 120, 195, 117, 190, 1, 1.78154
251, 2, bw, filler, NA, 999, 999, 1, 21, 85, 109, 194, 179, 176, 118, 2, 1.59568
251, 2, bw, filler, NA, 999, 999, 1, 21, 85, 109, 194, 179, 176, 118, 1, 1.2264
251, 2, bw, attraction, a-b-db, 14, 3, 1, 22, 195, 120, 120, 195, 111, 181, 2, 9.97471
251, 2, bw, attraction, a-b-db, 14, 3, 1, 22, 195, 120, 120, 195, 111, 181, 3, 0.939545
251, 2, bw, filler, NA, 999, 999, 1, 23, 85, 138, 183, 75, 82, 164, 3, 26.6519
251, 2, bw, filler, NA, 999, 999, 1, 23, 85, 138, 183, 75, 82, 164, 1, 1.04086
251, 2, bw, filler, NA, 999, 999, 1, 24, 154, 194, 69, 159, 122, 101, 1, 1.85243
251, 2, bw, filler, NA, 999, 999, 1, 24, 154, 194, 69, 159, 122, 101, 2, 1.03318
251, 2, bw, attraction, a-b-db, 9, 3, 1, 25, 195, 120, 120, 195, 114, 186, 1, 6.06946
251, 2, bw, attraction, a-b-db, 9, 3, 1, 25, 195, 120, 120, 195, 114, 186, 3, 0.944202
251, 2, bw, attraction, a-b-db, 2, 3, 1, 26, 119, 193, 195, 120, 120, 195, 1, 5.83982
251, 2, bw, attraction, a-b-db, 2, 3, 1, 26, 119, 193, 195, 120, 120, 195, 2, 1.00326
251, 2, bw, attraction, a-b-da, 14, 2, 1, 27, 90, 165, 153, 83, 165, 90, 3, 3.52893
251, 2, bw, attraction, a-b-da, 14, 2, 1, 27, 90, 165, 153, 83, 165, 90, 2, 0.601781
251, 2, bw, catch, NA, 999, 999, 1, 28, 79, 116, 124, 131, 189, 126, 3, 2.77566
251, 2, bw, catch, NA, 999, 999, 1, 28, 79, 116, 124, 131, 189, 126, 1, 0.774778
251, 2, bw, filler, NA, 999, 999, 1, 29, 69, 159, 183, 123, 162, 103, 2, 5.18106
251, 2, bw, filler, NA, 999, 999, 1, 29, 69, 159, 183, 123, 162, 103, 1, 1.45137
251, 2, bw, attraction, a-b-da, 9, 2, 1, 30, 157, 86, 165, 90, 90, 165, 3, 8.05487
251, 2, bw, attraction, a-b-da, 9, 2, 1, 30, 157, 86, 165, 90, 90, 165, 1, 5.55369
251, 2, bw, attraction, a-b-db, 14, 2, 1, 31, 83, 153, 90, 165, 165, 90, 2, 3.88001
251, 2, bw, attraction, a-b-db, 14, 2, 1, 31, 83, 153, 90, 165, 165, 90, 1, 1.41067
251, 2, bw, attraction, a-b-da, 5, 1, 1, 32, 60, 135, 132, 58, 135, 60, 1, 3.78346
251, 2, bw, attraction, a-b-da, 5, 1, 1, 32, 60, 135, 132, 58, 135, 60, 2, 0.750271
251, 2, bw, attraction, a-b-da, 2, 3, 1, 33, 120, 195, 195, 120, 193, 119, 1, 7.9259
251, 2, bw, attraction, a-b-da, 2, 3, 1, 33, 120, 195, 195, 120, 193, 119, 3, 1.99748
251, 2, bw, attraction, a-b-db, 5, 1, 1, 34, 58, 132, 135, 60, 60, 135, 1, 5.63477
251, 2, bw, attraction, a-b-db, 5, 1, 1, 34, 58, 132, 135, 60, 60, 135, 2, 1.079
251, 2, bw, attraction, a-b-db, 5, 2, 1, 35, 165, 90, 90, 165, 88, 161, 1, 5.72931
251, 2, bw, attraction, a-b-db, 5, 2, 1, 35, 165, 90, 90, 165, 88, 161, 3, 1.26543
251, 2, bw, attraction, a-b-da, 9, 1, 1, 36, 60, 135, 129, 57, 135, 60, 3, 4.28436
251, 2, bw, attraction, a-b-da, 9, 1, 1, 36, 60, 135, 129, 57, 135, 60, 2, 1.65495
251, 2, bw, filler, NA, 999, 999, 1, 37, 152, 138, 115, 85, 105, 88, 1, 1.7784
251, 2, bw, filler, NA, 999, 999, 1, 37, 152, 138, 115, 85, 105, 88, 3, 1.16988
251, 2, bw, attraction, a-b-da, 2, 2, 2, 1, 90, 165, 165, 90, 163, 89, 1, 8.56082
251, 2, bw, attraction, a-b-da, 2, 2, 2, 1, 90, 165, 165, 90, 163, 89, 3, 0.886764
251, 2, bw, attraction, a-b-db, 5, 1, 2, 2, 60, 135, 135, 60, 58, 132, 1, 11.7611
251, 2, bw, attraction, a-b-db, 5, 1, 2, 2, 60, 135, 135, 60, 58, 132, 2, 2.99803
251, 2, bw, attraction, a-b-db, 5, 3, 2, 3, 195, 120, 120, 195, 117, 190, 2, 3.49106
251, 2, bw, attraction, a-b-db, 5, 3, 2, 3, 195, 120, 120, 195, 117, 190, 3, 1.72517
251, 2, bw, attraction, a-b-db, 2, 3, 2, 4, 195, 120, 120, 195, 119, 193, 2, 2.42922
251, 2, bw, attraction, a-b-db, 2, 3, 2, 4, 195, 120, 120, 195, 119, 193, 3, 2.03445
251, 2, bw, filler, NA, 999, 999, 2, 5, 117, 162, 194, 134, 183, 184, 3, 2.80647
251, 2, bw, filler, NA, 999, 999, 2, 5, 117, 162, 194, 134, 183, 184, 1, 1.4923
251, 2, bw, catch, NA, 999, 999, 2, 6, 137, 118, 125, 70, 126, 189, 3, 2.26976
251, 2, bw, catch, NA, 999, 999, 2, 6, 137, 118, 125, 70, 126, 189, 2, 0.977602
251, 2, bw, filler, NA, 999, 999, 2, 7, 182, 57, 184, 121, 88, 118, 2, 1.52787
251, 2, bw, filler, NA, 999, 999, 2, 7, 182, 57, 184, 121, 88, 118, 1, 1.62537
251, 2, bw, attraction, a-b-da, 14, 3, 2, 8, 181, 111, 195, 120, 120, 195, 2, 7.13353
251, 2, bw, attraction, a-b-da, 14, 3, 2, 8, 181, 111, 195, 120, 120, 195, 1, 1.39728
251, 2, bw, filler, NA, 999, 999, 2, 9, 134, 94, 190, 63, 158, 91, 3, 9.1388
251, 2, bw, filler, NA, 999, 999, 2, 9, 134, 94, 190, 63, 158, 91, 2, 1.66592
251, 2, bw, attraction, a-b-da, 9, 3, 2, 10, 186, 114, 195, 120, 120, 195, 2, 3.1407
251, 2, bw, attraction, a-b-da, 9, 3, 2, 10, 186, 114, 195, 120, 120, 195, 3, 1.66109
251, 2, bw, attraction, a-b-da, 9, 1, 2, 11, 129, 57, 135, 60, 60, 135, 3, 5.99972
251, 2, bw, attraction, a-b-da, 9, 1, 2, 11, 129, 57, 135, 60, 60, 135, 1, 0.573118
251, 2, bw, attraction, a-b-db, 9, 1, 2, 12, 60, 135, 135, 60, 57, 129, 1, 3.4675
251, 2, bw, attraction, a-b-db, 9, 1, 2, 12, 60, 135, 135, 60, 57, 129, 2, 0.999063
251, 2, bw, catch, NA, 999, 999, 2, 13, 148, 167, 135, 120, 105, 90, 1, 1.22868
251, 2, bw, catch, NA, 999, 999, 2, 13, 148, 167, 135, 120, 105, 90, 3, 0.866323
251, 2, bw, filler, NA, 999, 999, 2, 14, 172, 135, 104, 82, 194, 86, 1, 2.03752
251, 2, bw, filler, NA, 999, 999, 2, 14, 172, 135, 104, 82, 194, 86, 2, 0.75408
251, 2, bw, attraction, a-b-da, 14, 1, 2, 15, 135, 60, 125, 56, 60, 135, 1, 11.1458
251, 2, bw, attraction, a-b-da, 14, 1, 2, 15, 135, 60, 125, 56, 60, 135, 2, 0.559635
251, 2, bw, attraction, a-b-db, 2, 1, 2, 16, 60, 135, 135, 60, 59, 134, 1, 6.67875
251, 2, bw, attraction, a-b-db, 2, 1, 2, 16, 60, 135, 135, 60, 59, 134, 2, 0.688565
251, 2, bw, attraction, a-b-db, 14, 2, 2, 17, 90, 165, 165, 90, 83, 153, 1, 1.51494
251, 2, bw, attraction, a-b-db, 14, 2, 2, 17, 90, 165, 165, 90, 83, 153, 3, 2.90908
251, 2, bw, attraction, a-b-db, 5, 2, 2, 18, 165, 90, 88, 161, 90, 165, 2, 12.7015
251, 2, bw, attraction, a-b-db, 5, 2, 2, 18, 165, 90, 88, 161, 90, 165, 1, 1.00494
251, 2, bw, catch, NA, 999, 999, 2, 19, 175, 140, 123, 72, 136, 119, 1, 1.03445
251, 2, bw, catch, NA, 999, 999, 2, 19, 175, 140, 123, 72, 136, 119, 2, 0.592063
251, 2, bw, attraction, a-b-db, 2, 2, 2, 20, 89, 163, 165, 90, 90, 165, 1, 21.75
251, 2, bw, attraction, a-b-db, 2, 2, 2, 20, 89, 163, 165, 90, 90, 165, 2, 1.70451
251, 2, bw, attraction, a-b-da, 2, 3, 2, 21, 193, 119, 195, 120, 120, 195, 3, 13.0018
251, 2, bw, attraction, a-b-da, 2, 3, 2, 21, 193, 119, 195, 120, 120, 195, 2, 0.924925
251, 2, bw, attraction, a-b-db, 9, 2, 2, 22, 86, 157, 165, 90, 90, 165, 3, 1.5333
251, 2, bw, attraction, a-b-db, 9, 2, 2, 22, 86, 157, 165, 90, 90, 165, 1, 2.71889
251, 2, bw, attraction, a-b-db, 9, 3, 2, 23, 195, 120, 120, 195, 114, 186, 2, 2.9593
251, 2, bw, attraction, a-b-db, 9, 3, 2, 23, 195, 120, 120, 195, 114, 186, 1, 4.89503
251, 2, bw, attraction, a-b-db, 14, 3, 2, 24, 120, 195, 111, 181, 195, 120, 1, 1.79133
251, 2, bw, attraction, a-b-db, 14, 3, 2, 24, 120, 195, 111, 181, 195, 120, 3, 5.43818
251, 2, bw, filler, NA, 999, 999, 2, 25, 91, 136, 107, 78, 108, 89, 1, 1.56902
251, 2, bw, filler, NA, 999, 999, 2, 25, 91, 136, 107, 78, 108, 89, 2, 2.40116
251, 2, bw, attraction, a-b-da, 2, 1, 2, 26, 134, 59, 60, 135, 135, 60, 2, 3.52637
251, 2, bw, attraction, a-b-da, 2, 1, 2, 26, 134, 59, 60, 135, 135, 60, 1, 0.751322
251, 2, bw, filler, NA, 999, 999, 2, 27, 183, 189, 76, 146, 100, 61, 1, 1.23893
251, 2, bw, filler, NA, 999, 999, 2, 27, 183, 189, 76, 146, 100, 61, 3, 1.32388
251, 2, bw, attraction, a-b-da, 14, 2, 2, 28, 90, 165, 153, 83, 165, 90, 1, 2.70803
251, 2, bw, attraction, a-b-da, 14, 2, 2, 28, 90, 165, 153, 83, 165, 90, 2, 0.83779
251, 2, bw, filler, NA, 999, 999, 2, 29, 63, 96, 168, 139, 175, 56, 2, 3.24223
251, 2, bw, filler, NA, 999, 999, 2, 29, 63, 96, 168, 139, 175, 56, 1, 0.854442
251, 2, bw, filler, NA, 999, 999, 2, 30, 169, 180, 103, 138, 143, 132, 1, 2.08226
251, 2, bw, filler, NA, 999, 999, 2, 30, 169, 180, 103, 138, 143, 132, 2, 1.21361
251, 2, bw, attraction, a-b-da, 5, 1, 2, 31, 132, 58, 135, 60, 60, 135, 2, 15.9864
251, 2, bw, attraction, a-b-da, 5, 1, 2, 31, 132, 58, 135, 60, 60, 135, 1, 0.829307
251, 2, bw, attraction, a-b-da, 5, 2, 2, 32, 90, 165, 161, 88, 165, 90, 1, 2.6657
251, 2, bw, attraction, a-b-da, 5, 2, 2, 32, 90, 165, 161, 88, 165, 90, 3, 0.813568
251, 2, bw, attraction, a-b-da, 5, 3, 2, 33, 195, 120, 120, 195, 190, 117, 2, 2.25864
251, 2, bw, attraction, a-b-da, 5, 3, 2, 33, 195, 120, 120, 195, 190, 117, 3, 0.790548
251, 2, bw, filler, NA, 999, 999, 2, 34, 119, 101, 116, 139, 165, 150, 3, 1.29218
251, 2, bw, filler, NA, 999, 999, 2, 34, 119, 101, 116, 139, 165, 150, 1, 0.81519
251, 2, bw, filler, NA, 999, 999, 2, 35, 91, 64, 82, 72, 146, 101, 3, 2.34804
251, 2, bw, filler, NA, 999, 999, 2, 35, 91, 64, 82, 72, 146, 101, 1, 1.00458
251, 2, bw, attraction, a-b-db, 14, 1, 2, 36, 60, 135, 56, 125, 135, 60, 3, 5.11435
251, 2, bw, attraction, a-b-db, 14, 1, 2, 36, 60, 135, 56, 125, 135, 60, 2, 0.547298
251, 2, bw, attraction, a-b-da, 9, 2, 2, 37, 157, 86, 165, 90, 90, 165, 3, 23.8672
251, 2, bw, attraction, a-b-da, 9, 2, 2, 37, 157, 86, 165, 90, 90, 165, 1, 0.784292
251, 2, bw, filler, NA, 999, 999, 3, 1, 116, 102, 110, 115, 129, 172, 3, 1.05474
251, 2, bw, filler, NA, 999, 999, 3, 1, 116, 102, 110, 115, 129, 172, 1, 0.994904
251, 2, bw, filler, NA, 999, 999, 3, 2, 170, 193, 118, 68, 194, 166, 1, 3.03257
251, 2, bw, filler, NA, 999, 999, 3, 2, 170, 193, 118, 68, 194, 166, 2, 1.19772
251, 2, bw, catch, NA, 999, 999, 3, 3, 156, 99, 174, 141, 94, 101, 2, 1.23521
251, 2, bw, catch, NA, 999, 999, 3, 3, 156, 99, 174, 141, 94, 101, 3, 0.632781
251, 2, bw, filler, NA, 999, 999, 3, 4, 80, 84, 117, 121, 148, 180, 3, 2.10925
251, 2, bw, filler, NA, 999, 999, 3, 4, 80, 84, 117, 121, 148, 180, 1, 0.535136
251, 2, bw, attraction, a-b-da, 2, 1, 3, 5, 60, 135, 135, 60, 134, 59, 2, 3.06364
251, 2, bw, attraction, a-b-da, 2, 1, 3, 5, 60, 135, 135, 60, 134, 59, 1, 0.619236
251, 2, bw, attraction, a-b-db, 2, 2, 3, 6, 90, 165, 89, 163, 165, 90, 3, 3.24833
251, 2, bw, attraction, a-b-db, 2, 2, 3, 6, 90, 165, 89, 163, 165, 90, 1, 1.61273
251, 2, bw, filler, NA, 999, 999, 3, 7, 128, 119, 116, 130, 128, 116, 1, 8.74546
251, 2, bw, filler, NA, 999, 999, 3, 7, 128, 119, 116, 130, 128, 116, 3, 1.26402
251, 2, bw, attraction, a-b-db, 5, 1, 3, 8, 135, 60, 58, 132, 60, 135, 2, 1.89091
251, 2, bw, attraction, a-b-db, 5, 1, 3, 8, 135, 60, 58, 132, 60, 135, 1, 0.541543
251, 2, bw, attraction, a-b-db, 9, 3, 3, 9, 114, 186, 195, 120, 120, 195, 2, 2.84539
251, 2, bw, attraction, a-b-db, 9, 3, 3, 9, 114, 186, 195, 120, 120, 195, 1, 0.617721
251, 2, bw, attraction, a-b-db, 14, 3, 3, 10, 120, 195, 195, 120, 111, 181, 1, 8.16691
251, 2, bw, attraction, a-b-db, 14, 3, 3, 10, 120, 195, 195, 120, 111, 181, 3, 0.884968
251, 2, bw, attraction, a-b-da, 9, 2, 3, 11, 165, 90, 90, 165, 157, 86, 2, 2.87943
251, 2, bw, attraction, a-b-da, 9, 2, 3, 11, 165, 90, 90, 165, 157, 86, 3, 0.570358
251, 2, bw, attraction, a-b-db, 14, 2, 3, 12, 165, 90, 90, 165, 83, 153, 1, 4.6415
251, 2, bw, attraction, a-b-db, 14, 2, 3, 12, 165, 90, 90, 165, 83, 153, 3, 0.581286
251, 2, bw, filler, NA, 999, 999, 3, 13, 133, 123, 89, 189, 195, 147, 3, 1.46775
251, 2, bw, filler, NA, 999, 999, 3, 13, 133, 123, 89, 189, 195, 147, 1, 1.99997
251, 2, bw, filler, NA, 999, 999, 3, 14, 195, 109, 147, 148, 158, 116, 1, 5.17321
251, 2, bw, filler, NA, 999, 999, 3, 14, 195, 109, 147, 148, 158, 116, 3, 0.659526
251, 2, bw, attraction, a-b-da, 9, 3, 3, 15, 186, 114, 120, 195, 195, 120, 2, 10.1107
251, 2, bw, attraction, a-b-da, 9, 3, 3, 15, 186, 114, 120, 195, 195, 120, 1, 2.27013
251, 2, bw, attraction, a-b-da, 14, 1, 3, 16, 135, 60, 60, 135, 125, 56, 2, 2.28873
251, 2, bw, attraction, a-b-da, 14, 1, 3, 16, 135, 60, 60, 135, 125, 56, 3, 0.667252
251, 2, bw, attraction, a-b-db, 9, 2, 3, 17, 90, 165, 86, 157, 165, 90, 1, 8.6383
251, 2, bw, attraction, a-b-db, 9, 2, 3, 17, 90, 165, 86, 157, 165, 90, 3, 1.16955
251, 2, bw, filler, NA, 999, 999, 3, 18, 99, 81, 126, 76, 84, 184, 3, 1.66456
251, 2, bw, filler, NA, 999, 999, 3, 18, 99, 81, 126, 76, 84, 184, 1, 0.524637
251, 2, bw, attraction, a-b-db, 9, 1, 3, 19, 135, 60, 60, 135, 57, 129, 2, 2.18127
251, 2, bw, attraction, a-b-db, 9, 1, 3, 19, 135, 60, 60, 135, 57, 129, 3, 2.01238
251, 2, bw, attraction, a-b-da, 2, 2, 3, 20, 165, 90, 90, 165, 163, 89, 2, 8.94507
251, 2, bw, attraction, a-b-da, 2, 2, 3, 20, 165, 90, 90, 165, 163, 89, 3, 0.855575
251, 2, bw, attraction, a-b-db, 5, 2, 3, 21, 165, 90, 88, 161, 90, 165, 2, 10.9632
251, 2, bw, attraction, a-b-db, 5, 2, 3, 21, 165, 90, 88, 161, 90, 165, 1, 0.688394
251, 2, bw, attraction, a-b-da, 9, 1, 3, 22, 129, 57, 60, 135, 135, 60, 2, 1.60278
251, 2, bw, attraction, a-b-da, 9, 1, 3, 22, 129, 57, 60, 135, 135, 60, 1, 1.68965
251, 2, bw, filler, NA, 999, 999, 3, 23, 151, 157, 157, 169, 139, 193, 2, 9.01108
251, 2, bw, filler, NA, 999, 999, 3, 23, 151, 157, 157, 169, 139, 193, 1, 0.630884
251, 2, bw, filler, NA, 999, 999, 3, 24, 104, 134, 91, 132, 72, 113, 1, 1.97128
251, 2, bw, filler, NA, 999, 999, 3, 24, 104, 134, 91, 132, 72, 113, 3, 0.530679
251, 2, bw, catch, NA, 999, 999, 3, 25, 166, 149, 98, 157, 61, 134, 1, 1.02712
251, 2, bw, catch, NA, 999, 999, 3, 25, 166, 149, 98, 157, 61, 134, 3, 0.880854
251, 2, bw, filler, NA, 999, 999, 3, 26, 136, 115, 76, 98, 183, 146, 3, 1.13107
251, 2, bw, filler, NA, 999, 999, 3, 26, 136, 115, 76, 98, 183, 146, 2, 0.780652
251, 2, bw, attraction, a-b-db, 2, 1, 3, 27, 59, 134, 60, 135, 135, 60, 2, 3.76302
251, 2, bw, attraction, a-b-db, 2, 1, 3, 27, 59, 134, 60, 135, 135, 60, 1, 1.78659
251, 2, bw, attraction, a-b-da, 5, 1, 3, 28, 60, 135, 135, 60, 132, 58, 1, 8.16052
251, 2, bw, attraction, a-b-da, 5, 1, 3, 28, 60, 135, 135, 60, 132, 58, 3, 0.710664
251, 2, bw, attraction, a-b-da, 5, 2, 3, 29, 165, 90, 161, 88, 90, 165, 3, 13.8159
251, 2, bw, attraction, a-b-da, 5, 2, 3, 29, 165, 90, 161, 88, 90, 165, 2, 0.826024
251, 2, bw, attraction, a-b-db, 14, 1, 3, 30, 135, 60, 56, 125, 60, 135, 3, 6.5025
251, 2, bw, attraction, a-b-db, 14, 1, 3, 30, 135, 60, 56, 125, 60, 135, 2, 0.663691
251, 2, bw, attraction, a-b-da, 14, 2, 3, 31, 153, 83, 90, 165, 165, 90, 2, 2.30677
251, 2, bw, attraction, a-b-da, 14, 2, 3, 31, 153, 83, 90, 165, 165, 90, 1, 0.908673
251, 2, bw, attraction, a-b-db, 5, 3, 3, 32, 117, 190, 195, 120, 120, 195, 2, 47.5177
251, 2, bw, attraction, a-b-db, 5, 3, 3, 32, 117, 190, 195, 120, 120, 195, 1, 3.06614
251, 2, bw, attraction, a-b-da, 5, 3, 3, 33, 120, 195, 195, 120, 190, 117, 1, 5.22847
251, 2, bw, attraction, a-b-da, 5, 3, 3, 33, 120, 195, 195, 120, 190, 117, 3, 0.464691
251, 2, bw, attraction, a-b-db, 2, 3, 3, 34, 119, 193, 195, 120, 120, 195, 1, 4.86803
251, 2, bw, attraction, a-b-db, 2, 3, 3, 34, 119, 193, 195, 120, 120, 195, 2, 3.25499
251, 2, bw, catch, NA, 999, 999, 3, 35, 154, 161, 93, 102, 110, 145, 1, 1.06586
251, 2, bw, catch, NA, 999, 999, 3, 35, 154, 161, 93, 102, 110, 145, 2, 0.782186
251, 2, bw, attraction, a-b-da, 2, 3, 3, 36, 195, 120, 120, 195, 193, 119, 2, 3.5486
251, 2, bw, attraction, a-b-da, 2, 3, 3, 36, 195, 120, 120, 195, 193, 119, 3, 0.564869
251, 2, bw, attraction, a-b-da, 14, 3, 3, 37, 181, 111, 120, 195, 195, 120, 2, 9.53206
251, 2, bw, attraction, a-b-da, 14, 3, 3, 37, 181, 111, 120, 195, 195, 120, 1, 0.690922
251, 2, bw, attraction, a-b-da, 14, 3, 4, 1, 120, 195, 181, 111, 195, 120, 1, 4.74069
251, 2, bw, attraction, a-b-da, 14, 3, 4, 1, 120, 195, 181, 111, 195, 120, 2, 0.676536
251, 2, bw, filler, NA, 999, 999, 4, 2, 137, 145, 161, 63, 123, 141, 1, 1.4068
251, 2, bw, filler, NA, 999, 999, 4, 2, 137, 145, 161, 63, 123, 141, 2, 0.989064
251, 2, bw, attraction, a-b-db, 5, 1, 4, 3, 60, 135, 58, 132, 135, 60, 1, 5.77144
251, 2, bw, attraction, a-b-db, 5, 1, 4, 3, 60, 135, 58, 132, 135, 60, 3, 1.32222
251, 2, bw, attraction, a-b-da, 2, 3, 4, 4, 193, 119, 195, 120, 120, 195, 1, 4.09115
251, 2, bw, attraction, a-b-da, 2, 3, 4, 4, 193, 119, 195, 120, 120, 195, 3, 0.501108
251, 2, bw, attraction, a-b-da, 9, 1, 4, 5, 135, 60, 129, 57, 60, 135, 1, 3.14286
251, 2, bw, attraction, a-b-da, 9, 1, 4, 5, 135, 60, 129, 57, 60, 135, 2, 3.21518
251, 2, bw, filler, NA, 999, 999, 4, 6, 184, 153, 106, 125, 190, 138, 1, 3.85957
251, 2, bw, filler, NA, 999, 999, 4, 6, 184, 153, 106, 125, 190, 138, 2, 0.84691
251, 2, bw, attraction, a-b-da, 14, 1, 4, 7, 135, 60, 125, 56, 60, 135, 1, 3.88274
251, 2, bw, attraction, a-b-da, 14, 1, 4, 7, 135, 60, 125, 56, 60, 135, 2, 0.597273
251, 2, bw, attraction, a-b-db, 5, 3, 4, 8, 117, 190, 120, 195, 195, 120, 1, 9.07516
251, 2, bw, attraction, a-b-db, 5, 3, 4, 8, 117, 190, 120, 195, 195, 120, 2, 1.5962
251, 2, bw, attraction, a-b-da, 2, 1, 4, 9, 135, 60, 60, 135, 134, 59, 3, 8.20963
251, 2, bw, attraction, a-b-da, 2, 1, 4, 9, 135, 60, 60, 135, 134, 59, 2, 0.525738
251, 2, bw, filler, NA, 999, 999, 4, 10, 111, 112, 146, 97, 81, 148, 2, 3.96622
251, 2, bw, filler, NA, 999, 999, 4, 10, 111, 112, 146, 97, 81, 148, 3, 0.677509
251, 2, bw, attraction, a-b-da, 9, 3, 4, 11, 120, 195, 186, 114, 195, 120, 1, 6.05594
251, 2, bw, attraction, a-b-da, 9, 3, 4, 11, 120, 195, 186, 114, 195, 120, 2, 0.954795
251, 2, bw, attraction, a-b-db, 2, 3, 4, 12, 119, 193, 195, 120, 120, 195, 1, 3.1303
251, 2, bw, attraction, a-b-db, 2, 3, 4, 12, 119, 193, 195, 120, 120, 195, 2, 0.435396
251, 2, bw, attraction, a-b-db, 14, 1, 4, 13, 56, 125, 60, 135, 135, 60, 3, 2.73597
251, 2, bw, attraction, a-b-db, 14, 1, 4, 13, 56, 125, 60, 135, 135, 60, 1, 0.552936
251, 2, bw, catch, NA, 999, 999, 4, 14, 171, 144, 93, 102, 160, 95, 1, 1.75284
251, 2, bw, catch, NA, 999, 999, 4, 14, 171, 144, 93, 102, 160, 95, 2, 0.521493
251, 2, bw, catch, NA, 999, 999, 4, 15, 145, 110, 96, 99, 171, 144, 3, 2.05055
251, 2, bw, catch, NA, 999, 999, 4, 15, 145, 110, 96, 99, 171, 144, 2, 0.663291
251, 2, bw, attraction, a-b-da, 5, 2, 4, 16, 165, 90, 90, 165, 161, 88, 1, 6.78646
251, 2, bw, attraction, a-b-da, 5, 2, 4, 16, 165, 90, 90, 165, 161, 88, 3, 0.696173
251, 2, bw, filler, NA, 999, 999, 4, 17, 142, 91, 124, 151, 95, 158, 2, 3.24989
251, 2, bw, filler, NA, 999, 999, 4, 17, 142, 91, 124, 151, 95, 158, 1, 0.718218
251, 2, bw, attraction, a-b-db, 9, 1, 4, 18, 57, 129, 135, 60, 60, 135, 2, 2.2713
251, 2, bw, attraction, a-b-db, 9, 1, 4, 18, 57, 129, 135, 60, 60, 135, 1, 0.442528
251, 2, bw, filler, NA, 999, 999, 4, 19, 163, 56, 145, 145, 79, 116, 2, 1.72635
251, 2, bw, filler, NA, 999, 999, 4, 19, 163, 56, 145, 145, 79, 116, 1, 0.615767
251, 2, bw, filler, NA, 999, 999, 4, 20, 105, 90, 108, 114, 113, 92, 2, 4.50881
251, 2, bw, filler, NA, 999, 999, 4, 20, 105, 90, 108, 114, 113, 92, 1, 1.64609
251, 2, bw, filler, NA, 999, 999, 4, 21, 85, 171, 100, 73, 194, 193, 3, 0.96959
251, 2, bw, filler, NA, 999, 999, 4, 21, 85, 171, 100, 73, 194, 193, 2, 0.569863
251, 2, bw, attraction, a-b-db, 9, 3, 4, 22, 120, 195, 195, 120, 114, 186, 1, 2.66495
251, 2, bw, attraction, a-b-db, 9, 3, 4, 22, 120, 195, 195, 120, 114, 186, 3, 0.724789
251, 2, bw, catch, NA, 999, 999, 4, 23, 149, 166, 93, 102, 121, 134, 1, 1.11719
251, 2, bw, catch, NA, 999, 999, 4, 23, 149, 166, 93, 102, 121, 134, 2, 0.695432
251, 2, bw, filler, NA, 999, 999, 4, 24, 148, 184, 98, 139, 97, 194, 1, 1.12117
251, 2, bw, filler, NA, 999, 999, 4, 24, 148, 184, 98, 139, 97, 194, 2, 0.594771
251, 2, bw, attraction, a-b-da, 14, 2, 4, 25, 153, 83, 165, 90, 90, 165, 2, 5.55252
251, 2, bw, attraction, a-b-da, 14, 2, 4, 25, 153, 83, 165, 90, 90, 165, 1, 2.25607
251, 2, bw, attraction, a-b-da, 5, 3, 4, 26, 190, 117, 120, 195, 195, 120, 1, 4.56337
251, 2, bw, attraction, a-b-da, 5, 3, 4, 26, 190, 117, 120, 195, 195, 120, 3, 0.826558
251, 2, bw, filler, NA, 999, 999, 4, 27, 181, 184, 101, 138, 128, 154, 1, 1.11079
251, 2, bw, filler, NA, 999, 999, 4, 27, 181, 184, 101, 138, 128, 154, 2, 0.761157
251, 2, bw, attraction, a-b-db, 2, 2, 4, 28, 165, 90, 89, 163, 90, 165, 2, 7.32819
251, 2, bw, attraction, a-b-db, 2, 2, 4, 28, 165, 90, 89, 163, 90, 165, 1, 1.20785
251, 2, bw, attraction, a-b-da, 5, 1, 4, 29, 60, 135, 135, 60, 132, 58, 2, 23.8368
251, 2, bw, attraction, a-b-da, 5, 1, 4, 29, 60, 135, 135, 60, 132, 58, 3, 0.931292
251, 2, bw, attraction, a-b-db, 14, 2, 4, 30, 165, 90, 90, 165, 83, 153, 2, 3.24378
251, 2, bw, attraction, a-b-db, 14, 2, 4, 30, 165, 90, 90, 165, 83, 153, 3, 0.495891
251, 2, bw, attraction, a-b-da, 2, 2, 4, 31, 163, 89, 165, 90, 90, 165, 2, 2.6498
251, 2, bw, attraction, a-b-da, 2, 2, 4, 31, 163, 89, 165, 90, 90, 165, 3, 0.494262
251, 2, bw, attraction, a-b-db, 5, 2, 4, 32, 88, 161, 165, 90, 90, 165, 2, 14.176
251, 2, bw, attraction, a-b-db, 5, 2, 4, 32, 88, 161, 165, 90, 90, 165, 1, 0.691539
251, 2, bw, filler, NA, 999, 999, 4, 33, 143, 112, 181, 125, 140, 79, 2, 1.16532
251, 2, bw, filler, NA, 999, 999, 4, 33, 143, 112, 181, 125, 140, 79, 3, 0.765526
251, 2, bw, attraction, a-b-db, 2, 1, 4, 34, 60, 135, 135, 60, 59, 134, 2, 3.30055
251, 2, bw, attraction, a-b-db, 2, 1, 4, 34, 60, 135, 135, 60, 59, 134, 3, 0.582852
251, 2, bw, attraction, a-b-db, 14, 3, 4, 35, 120, 195, 195, 120, 111, 181, 1, 1.4213
251, 2, bw, attraction, a-b-db, 14, 3, 4, 35, 120, 195, 195, 120, 111, 181, 3, 1.12293
251, 2, bw, attraction, a-b-db, 9, 2, 4, 36, 90, 165, 165, 90, 86, 157, 1, 4.00304
251, 2, bw, attraction, a-b-db, 9, 2, 4, 36, 90, 165, 165, 90, 86, 157, 3, 3.45712
251, 2, bw, attraction, a-b-da, 9, 2, 4, 37, 90, 165, 165, 90, 157, 86, 2, 2.996
251, 2, bw, attraction, a-b-da, 9, 2, 4, 37, 90, 165, 165, 90, 157, 86, 3, 0.626336
251, 2, bw, filler, NA, 999, 999, 5, 1, 147, 143, 99, 76, 146, 107, 1, 4.8775
251, 2, bw, filler, NA, 999, 999, 5, 1, 147, 143, 99, 76, 146, 107, 2, 1.86379
251, 2, bw, attraction, a-b-db, 5, 3, 5, 2, 120, 195, 117, 190, 195, 120, 1, 5.18652
251, 2, bw, attraction, a-b-db, 5, 3, 5, 2, 120, 195, 117, 190, 195, 120, 2, 1.74495
251, 2, bw, filler, NA, 999, 999, 5, 3, 148, 142, 185, 172, 143, 68, 2, 1.17626
251, 2, bw, filler, NA, 999, 999, 5, 3, 148, 142, 185, 172, 143, 68, 3, 1.1199
251, 2, bw, attraction, a-b-da, 14, 3, 5, 4, 181, 111, 195, 120, 120, 195, 2, 2.97684
251, 2, bw, attraction, a-b-da, 14, 3, 5, 4, 181, 111, 195, 120, 120, 195, 1, 0.743803
251, 2, bw, catch, NA, 999, 999, 5, 5, 151, 104, 169, 146, 117, 78, 2, 1.44755
251, 2, bw, catch, NA, 999, 999, 5, 5, 151, 104, 169, 146, 117, 78, 3, 0.628422
251, 2, bw, attraction, a-b-da, 14, 1, 5, 6, 60, 135, 135, 60, 125, 56, 2, 5.8728
251, 2, bw, attraction, a-b-da, 14, 1, 5, 6, 60, 135, 135, 60, 125, 56, 3, 4.57102
251, 2, bw, attraction, a-b-db, 14, 1, 5, 7, 56, 125, 60, 135, 135, 60, 2, 7.21673
251, 2, bw, attraction, a-b-db, 14, 1, 5, 7, 56, 125, 60, 135, 135, 60, 1, 0.853144
251, 2, bw, attraction, a-b-da, 2, 2, 5, 8, 163, 89, 90, 165, 165, 90, 2, 1.98487
251, 2, bw, attraction, a-b-da, 2, 2, 5, 8, 163, 89, 90, 165, 165, 90, 1, 1.12022
251, 2, bw, attraction, a-b-da, 5, 1, 5, 9, 132, 58, 60, 135, 135, 60, 2, 4.84915
251, 2, bw, attraction, a-b-da, 5, 1, 5, 9, 132, 58, 60, 135, 135, 60, 1, 0.916871
251, 2, bw, attraction, a-b-db, 9, 3, 5, 10, 120, 195, 195, 120, 114, 186, 1, 2.13389
251, 2, bw, attraction, a-b-db, 9, 3, 5, 10, 120, 195, 195, 120, 114, 186, 3, 0.51923
251, 2, bw, filler, NA, 999, 999, 5, 11, 118, 126, 103, 170, 72, 195, 2, 2.5764
251, 2, bw, filler, NA, 999, 999, 5, 11, 118, 126, 103, 170, 72, 195, 3, 1.97546
251, 2, bw, attraction, a-b-da, 14, 2, 5, 12, 90, 165, 153, 83, 165, 90, 1, 7.39746
251, 2, bw, attraction, a-b-da, 14, 2, 5, 12, 90, 165, 153, 83, 165, 90, 2, 0.754435
251, 2, bw, filler, NA, 999, 999, 5, 13, 58, 135, 84, 186, 192, 140, 3, 1.0502
251, 2, bw, filler, NA, 999, 999, 5, 13, 58, 135, 84, 186, 192, 140, 1, 0.559144
251, 2, bw, attraction, a-b-da, 5, 2, 5, 14, 90, 165, 161, 88, 165, 90, 2, 6.69436
251, 2, bw, attraction, a-b-da, 5, 2, 5, 14, 90, 165, 161, 88, 165, 90, 3, 0.815526
251, 2, bw, filler, NA, 999, 999, 5, 15, 115, 120, 96, 162, 158, 163, 3, 1.22043
251, 2, bw, filler, NA, 999, 999, 5, 15, 115, 120, 96, 162, 158, 163, 1, 0.826778
251, 2, bw, attraction, a-b-da, 9, 1, 5, 16, 60, 135, 135, 60, 129, 57, 2, 3.73511
251, 2, bw, attraction, a-b-da, 9, 1, 5, 16, 60, 135, 135, 60, 129, 57, 3, 0.62399
251, 2, bw, filler, NA, 999, 999, 5, 17, 166, 182, 138, 146, 186, 104, 1, 1.76444
251, 2, bw, filler, NA, 999, 999, 5, 17, 166, 182, 138, 146, 186, 104, 2, 0.988441
251, 2, bw, filler, NA, 999, 999, 5, 18, 81, 186, 169, 107, 184, 66, 2, 3.48283
251, 2, bw, filler, NA, 999, 999, 5, 18, 81, 186, 169, 107, 184, 66, 3, 0.725636
251, 2, bw, attraction, a-b-da, 9, 2, 5, 19, 165, 90, 157, 86, 90, 165, 1, 5.09399
251, 2, bw, attraction, a-b-da, 9, 2, 5, 19, 165, 90, 157, 86, 90, 165, 2, 2.92781
251, 2, bw, attraction, a-b-db, 2, 2, 5, 20, 89, 163, 165, 90, 90, 165, 2, 11.6554
251, 2, bw, attraction, a-b-db, 2, 2, 5, 20, 89, 163, 165, 90, 90, 165, 3, 0.593062
251, 2, bw, attraction, a-b-db, 14, 3, 5, 21, 111, 181, 195, 120, 120, 195, 3, 16.0068
251, 2, bw, attraction, a-b-db, 14, 3, 5, 21, 111, 181, 195, 120, 120, 195, 1, 0.537095
251, 2, bw, attraction, a-b-da, 5, 3, 5, 22, 195, 120, 190, 117, 120, 195, 1, 7.06553
251, 2, bw, attraction, a-b-da, 5, 3, 5, 22, 195, 120, 190, 117, 120, 195, 3, 0.539994
251, 2, bw, catch, NA, 999, 999, 5, 23, 149, 106, 159, 156, 127, 68, 2, 1.35589
251, 2, bw, catch, NA, 999, 999, 5, 23, 149, 106, 159, 156, 127, 68, 3, 0.748123
251, 2, bw, attraction, a-b-db, 5, 1, 5, 24, 60, 135, 135, 60, 58, 132, 3, 14.8117
251, 2, bw, attraction, a-b-db, 5, 1, 5, 24, 60, 135, 135, 60, 58, 132, 2, 0.725713
251, 2, bw, attraction, a-b-db, 9, 2, 5, 25, 90, 165, 86, 157, 165, 90, 1, 2.35802
251, 2, bw, attraction, a-b-db, 9, 2, 5, 25, 90, 165, 86, 157, 165, 90, 2, 0.893981
251, 2, bw, attraction, a-b-da, 2, 1, 5, 26, 134, 59, 60, 135, 135, 60, 2, 2.07173
251, 2, bw, attraction, a-b-da, 2, 1, 5, 26, 134, 59, 60, 135, 135, 60, 1, 0.866992
251, 2, bw, filler, NA, 999, 999, 5, 27, 192, 78, 169, 138, 97, 155, 2, 0.885919
251, 2, bw, filler, NA, 999, 999, 5, 27, 192, 78, 169, 138, 97, 155, 3, 1.08166
251, 2, bw, attraction, a-b-da, 9, 3, 5, 28, 186, 114, 120, 195, 195, 120, 2, 4.09994
251, 2, bw, attraction, a-b-da, 9, 3, 5, 28, 186, 114, 120, 195, 195, 120, 1, 0.477936
251, 2, bw, filler, NA, 999, 999, 5, 29, 97, 134, 112, 190, 94, 107, 2, 1.56039
251, 2, bw, filler, NA, 999, 999, 5, 29, 97, 134, 112, 190, 94, 107, 3, 0.752669
251, 2, bw, attraction, a-b-da, 2, 3, 5, 30, 120, 195, 195, 120, 193, 119, 2, 14.6164
251, 2, bw, attraction, a-b-da, 2, 3, 5, 30, 120, 195, 195, 120, 193, 119, 3, 0.474456
251, 2, bw, attraction, a-b-db, 2, 3, 5, 31, 119, 193, 195, 120, 120, 195, 1, 9.00487
251, 2, bw, attraction, a-b-db, 2, 3, 5, 31, 119, 193, 195, 120, 120, 195, 3, 0.801404
251, 2, bw, attraction, a-b-db, 9, 1, 5, 32, 135, 60, 60, 135, 57, 129, 2, 5.06296
251, 2, bw, attraction, a-b-db, 9, 1, 5, 32, 135, 60, 60, 135, 57, 129, 3, 1.25813
251, 2, bw, filler, NA, 999, 999, 5, 33, 82, 188, 195, 143, 155, 182, 2, 2.22887
251, 2, bw, filler, NA, 999, 999, 5, 33, 82, 188, 195, 143, 155, 182, 1, 0.72237
251, 2, bw, attraction, a-b-db, 5, 2, 5, 34, 90, 165, 165, 90, 88, 161, 1, 2.70733
251, 2, bw, attraction, a-b-db, 5, 2, 5, 34, 90, 165, 165, 90, 88, 161, 3, 0.605077
251, 2, bw, attraction, a-b-db, 14, 2, 5, 35, 90, 165, 165, 90, 83, 153, 1, 5.59486
251, 2, bw, attraction, a-b-db, 14, 2, 5, 35, 90, 165, 165, 90, 83, 153, 3, 0.656321
251, 2, bw, attraction, a-b-db, 2, 1, 5, 36, 135, 60, 59, 134, 60, 135, 2, 11.0435
251, 2, bw, attraction, a-b-db, 2, 1, 5, 36, 135, 60, 59, 134, 60, 135, 3, 0.613445
251, 2, bw, catch, NA, 999, 999, 5, 37, 113, 142, 91, 104, 163, 152, 3, 1.28237
251, 2, bw, catch, NA, 999, 999, 5, 37, 113, 142, 91, 104, 163, 152, 2, 0.76591
251, 2, bw, filler, NA, 999, 999, 6, 1, 99, 94, 185, 141, 94, 187, 2, 2.22898
251, 2, bw, filler, NA, 999, 999, 6, 1, 99, 94, 185, 141, 94, 187, 1, 0.578274
251, 2, bw, filler, NA, 999, 999, 6, 2, 130, 172, 159, 157, 130, 130, 2, 4.29676
251, 2, bw, filler, NA, 999, 999, 6, 2, 130, 172, 159, 157, 130, 130, 3, 1.21067
251, 2, bw, attraction, a-b-da, 14, 1, 6, 3, 125, 56, 135, 60, 60, 135, 2, 24.0475
251, 2, bw, attraction, a-b-da, 14, 1, 6, 3, 125, 56, 135, 60, 60, 135, 1, 0.877345
251, 2, bw, attraction, a-b-da, 14, 2, 6, 4, 90, 165, 165, 90, 153, 83, 1, 6.12763
251, 2, bw, attraction, a-b-da, 14, 2, 6, 4, 90, 165, 165, 90, 153, 83, 3, 3.78375
251, 2, bw, filler, NA, 999, 999, 6, 5, 84, 85, 147, 151, 167, 127, 2, 2.01319
251, 2, bw, filler, NA, 999, 999, 6, 5, 84, 85, 147, 151, 167, 127, 1, 0.995163
251, 2, bw, attraction, a-b-db, 9, 3, 6, 6, 195, 120, 120, 195, 114, 186, 2, 8.76086
251, 2, bw, attraction, a-b-db, 9, 3, 6, 6, 195, 120, 120, 195, 114, 186, 3, 0.774727
251, 2, bw, attraction, a-b-da, 5, 3, 6, 7, 195, 120, 120, 195, 190, 117, 1, 4.35703
251, 2, bw, attraction, a-b-da, 5, 3, 6, 7, 195, 120, 120, 195, 190, 117, 3, 0.516316
251, 2, bw, attraction, a-b-db, 5, 2, 6, 8, 90, 165, 88, 161, 165, 90, 3, 3.09349
251, 2, bw, attraction, a-b-db, 5, 2, 6, 8, 90, 165, 88, 161, 165, 90, 1, 0.631836
251, 2, bw, filler, NA, 999, 999, 6, 9, 133, 110, 89, 111, 142, 161, 3, 1.14029
251, 2, bw, filler, NA, 999, 999, 6, 9, 133, 110, 89, 111, 142, 161, 2, 0.637188
251, 2, bw, catch, NA, 999, 999, 6, 10, 132, 183, 144, 111, 67, 128, 1, 1.05767
251, 2, bw, catch, NA, 999, 999, 6, 10, 132, 183, 144, 111, 67, 128, 3, 0.493886
251, 2, bw, attraction, a-b-da, 2, 1, 6, 11, 60, 135, 135, 60, 134, 59, 3, 20.3117
251, 2, bw, attraction, a-b-da, 2, 1, 6, 11, 60, 135, 135, 60, 134, 59, 2, 1.17196
251, 2, bw, attraction, a-b-da, 5, 2, 6, 12, 161, 88, 90, 165, 165, 90, 2, 2.39486
251, 2, bw, attraction, a-b-da, 5, 2, 6, 12, 161, 88, 90, 165, 165, 90, 1, 0.569454
251, 2, bw, filler, NA, 999, 999, 6, 13, 169, 108, 153, 126, 140, 124, 1, 4.84855
251, 2, bw, filler, NA, 999, 999, 6, 13, 169, 108, 153, 126, 140, 124, 3, 0.692472
251, 2, bw, filler, NA, 999, 999, 6, 14, 151, 189, 115, 152, 95, 117, 1, 1.26212
251, 2, bw, filler, NA, 999, 999, 6, 14, 151, 189, 115, 152, 95, 117, 3, 0.538317
251, 2, bw, attraction, a-b-da, 2, 3, 6, 15, 195, 120, 193, 119, 120, 195, 1, 18.9388
251, 2, bw, attraction, a-b-da, 2, 3, 6, 15, 195, 120, 193, 119, 120, 195, 2, 2.87073
251, 2, bw, attraction, a-b-db, 5, 1, 6, 16, 60, 135, 135, 60, 58, 132, 2, 4.26516
251, 2, bw, attraction, a-b-db, 5, 1, 6, 16, 60, 135, 135, 60, 58, 132, 3, 1.36451
251, 2, bw, attraction, a-b-da, 14, 3, 6, 17, 120, 195, 181, 111, 195, 120, 1, 1.73929
251, 2, bw, attraction, a-b-da, 14, 3, 6, 17, 120, 195, 181, 111, 195, 120, 2, 0.596026
251, 2, bw, attraction, a-b-db, 5, 3, 6, 18, 120, 195, 195, 120, 117, 190, 1, 2.56981
251, 2, bw, attraction, a-b-db, 5, 3, 6, 18, 120, 195, 195, 120, 117, 190, 2, 0.689723
251, 2, bw, attraction, a-b-db, 2, 2, 6, 19, 165, 90, 90, 165, 89, 163, 2, 1.96344
251, 2, bw, attraction, a-b-db, 2, 2, 6, 19, 165, 90, 90, 165, 89, 163, 1, 1.02744
251, 2, bw, attraction, a-b-db, 9, 2, 6, 20, 165, 90, 86, 157, 90, 165, 1, 4.07162
251, 2, bw, attraction, a-b-db, 9, 2, 6, 20, 165, 90, 86, 157, 90, 165, 2, 0.674377
251, 2, bw, attraction, a-b-da, 9, 2, 6, 21, 157, 86, 90, 165, 165, 90, 2, 11.5248
251, 2, bw, attraction, a-b-da, 9, 2, 6, 21, 157, 86, 90, 165, 165, 90, 1, 0.651183
251, 2, bw, filler, NA, 999, 999, 6, 22, 171, 68, 93, 84, 106, 127, 3, 4.80694
251, 2, bw, filler, NA, 999, 999, 6, 22, 171, 68, 93, 84, 106, 127, 2, 0.916087
251, 2, bw, attraction, a-b-db, 14, 2, 6, 23, 90, 165, 165, 90, 83, 153, 1, 10.5972
251, 2, bw, attraction, a-b-db, 14, 2, 6, 23, 90, 165, 165, 90, 83, 153, 3, 0.993067
251, 2, bw, catch, NA, 999, 999, 6, 24, 110, 145, 76, 119, 142, 173, 3, 0.926678
251, 2, bw, catch, NA, 999, 999, 6, 24, 110, 145, 76, 119, 142, 173, 2, 0.432432
251, 2, bw, filler, NA, 999, 999, 6, 25, 63, 92, 195, 89, 88, 74, 2, 1.34101
251, 2, bw, filler, NA, 999, 999, 6, 25, 63, 92, 195, 89, 88, 74, 1, 3.49387
251, 2, bw, filler, NA, 999, 999, 6, 26, 185, 184, 83, 148, 194, 174, 1, 5.84667
251, 2, bw, filler, NA, 999, 999, 6, 26, 185, 184, 83, 148, 194, 174, 2, 0.842071
251, 2, bw, catch, NA, 999, 999, 6, 27, 95, 100, 96, 159, 133, 182, 3, 1.41371
251, 2, bw, catch, NA, 999, 999, 6, 27, 95, 100, 96, 159, 133, 182, 1, 0.491877
251, 2, bw, attraction, a-b-db, 14, 3, 6, 28, 111, 181, 120, 195, 195, 120, 2, 8.92567
251, 2, bw, attraction, a-b-db, 14, 3, 6, 28, 111, 181, 120, 195, 195, 120, 1, 0.540878
251, 2, bw, attraction, a-b-db, 9, 1, 6, 29, 60, 135, 135, 60, 57, 129, 1, 16.7646
251, 2, bw, attraction, a-b-db, 9, 1, 6, 29, 60, 135, 135, 60, 57, 129, 3, 0.480129
251, 2, bw, attraction, a-b-da, 2, 2, 6, 30, 163, 89, 90, 165, 165, 90, 2, 2.69847
251, 2, bw, attraction, a-b-da, 2, 2, 6, 30, 163, 89, 90, 165, 165, 90, 1, 0.740921
251, 2, bw, attraction, a-b-da, 9, 1, 6, 31, 135, 60, 129, 57, 60, 135, 1, 8.44463
251, 2, bw, attraction, a-b-da, 9, 1, 6, 31, 135, 60, 129, 57, 60, 135, 2, 0.799365
251, 2, bw, attraction, a-b-db, 2, 3, 6, 32, 119, 193, 195, 120, 120, 195, 1, 10.661
251, 2, bw, attraction, a-b-db, 2, 3, 6, 32, 119, 193, 195, 120, 120, 195, 2, 0.854342
251, 2, bw, attraction, a-b-da, 5, 1, 6, 33, 132, 58, 60, 135, 135, 60, 2, 6.162
251, 2, bw, attraction, a-b-da, 5, 1, 6, 33, 132, 58, 60, 135, 135, 60, 1, 0.8567
251, 2, bw, attraction, a-b-da, 9, 3, 6, 34, 195, 120, 186, 114, 120, 195, 1, 9.69974
251, 2, bw, attraction, a-b-da, 9, 3, 6, 34, 195, 120, 186, 114, 120, 195, 2, 0.756036
251, 2, bw, attraction, a-b-db, 2, 1, 6, 35, 59, 134, 135, 60, 60, 135, 1, 31.8277
251, 2, bw, attraction, a-b-db, 2, 1, 6, 35, 59, 134, 135, 60, 60, 135, 2, 0.856419
251, 2, bw, attraction, a-b-db, 14, 1, 6, 36, 60, 135, 56, 125, 135, 60, 3, 3.35558
251, 2, bw, attraction, a-b-db, 14, 1, 6, 36, 60, 135, 56, 125, 135, 60, 2, 0.699017
251, 2, bw, filler, NA, 999, 999, 6, 37, 68, 95, 164, 127, 147, 117, 2, 1.03684
251, 2, bw, filler, NA, 999, 999, 6, 37, 68, 95, 164, 127, 147, 117, 1, 0.529754
251, 2, bw, attraction, a-b-db, 14, 1, 7, 1, 56, 125, 135, 60, 60, 135, 2, 5.30618
251, 2, bw, attraction, a-b-db, 14, 1, 7, 1, 56, 125, 135, 60, 60, 135, 1, 0.579272
251, 2, bw, attraction, a-b-db, 2, 3, 7, 2, 119, 193, 195, 120, 120, 195, 1, 2.64972
251, 2, bw, attraction, a-b-db, 2, 3, 7, 2, 119, 193, 195, 120, 120, 195, 3, 1.566
251, 2, bw, attraction, a-b-db, 5, 2, 7, 3, 88, 161, 165, 90, 90, 165, 2, 3.06083
251, 2, bw, attraction, a-b-db, 5, 2, 7, 3, 88, 161, 165, 90, 90, 165, 1, 0.728521
251, 2, bw, attraction, a-b-da, 5, 2, 7, 4, 165, 90, 161, 88, 90, 165, 1, 9.52086
251, 2, bw, attraction, a-b-da, 5, 2, 7, 4, 165, 90, 161, 88, 90, 165, 3, 0.632538
251, 2, bw, attraction, a-b-db, 5, 3, 7, 5, 195, 120, 117, 190, 120, 195, 2, 2.10897
251, 2, bw, attraction, a-b-db, 5, 3, 7, 5, 195, 120, 117, 190, 120, 195, 3, 3.47893
251, 2, bw, attraction, a-b-da, 14, 3, 7, 6, 181, 111, 120, 195, 195, 120, 2, 2.6165
251, 2, bw, attraction, a-b-da, 14, 3, 7, 6, 181, 111, 120, 195, 195, 120, 1, 0.550286
251, 2, bw, attraction, a-b-db, 9, 2, 7, 7, 90, 165, 86, 157, 165, 90, 1, 7.86204
251, 2, bw, attraction, a-b-db, 9, 2, 7, 7, 90, 165, 86, 157, 165, 90, 2, 0.512245
251, 2, bw, catch, NA, 999, 999, 7, 8, 60, 135, 191, 124, 164, 91, 2, 1.37751
251, 2, bw, catch, NA, 999, 999, 7, 8, 60, 135, 191, 124, 164, 91, 1, 0.976868
251, 2, bw, attraction, a-b-da, 9, 3, 7, 9, 186, 114, 195, 120, 120, 195, 2, 9.3593
251, 2, bw, attraction, a-b-da, 9, 3, 7, 9, 186, 114, 195, 120, 120, 195, 1, 0.588908
251, 2, bw, attraction, a-b-da, 2, 3, 7, 10, 193, 119, 195, 120, 120, 195, 2, 4.29937
251, 2, bw, attraction, a-b-da, 2, 3, 7, 10, 193, 119, 195, 120, 120, 195, 3, 1.43732
251, 2, bw, filler, NA, 999, 999, 7, 11, 144, 84, 136, 145, 172, 172, 3, 1.33761
251, 2, bw, filler, NA, 999, 999, 7, 11, 144, 84, 136, 145, 172, 172, 1, 0.634475
251, 2, bw, filler, NA, 999, 999, 7, 12, 138, 149, 110, 189, 166, 104, 2, 15.1989
251, 2, bw, filler, NA, 999, 999, 7, 12, 138, 149, 110, 189, 166, 104, 3, 0.633315
251, 2, bw, attraction, a-b-db, 5, 1, 7, 13, 135, 60, 58, 132, 60, 135, 1, 7.35778
251, 2, bw, attraction, a-b-db, 5, 1, 7, 13, 135, 60, 58, 132, 60, 135, 2, 1.05211
251, 2, bw, attraction, a-b-da, 5, 1, 7, 14, 132, 58, 60, 135, 135, 60, 3, 5.87967
251, 2, bw, attraction, a-b-da, 5, 1, 7, 14, 132, 58, 60, 135, 135, 60, 2, 0.569937
251, 2, bw, attraction, a-b-db, 2, 2, 7, 15, 89, 163, 90, 165, 165, 90, 2, 24.185
251, 2, bw, attraction, a-b-db, 2, 2, 7, 15, 89, 163, 90, 165, 165, 90, 1, 0.537315
251, 2, bw, attraction, a-b-da, 9, 1, 7, 16, 135, 60, 60, 135, 129, 57, 1, 10.5458
251, 2, bw, attraction, a-b-da, 9, 1, 7, 16, 135, 60, 60, 135, 129, 57, 3, 1.33579
251, 2, bw, filler, NA, 999, 999, 7, 17, 153, 75, 121, 77, 87, 87, 1, 2.00798
251, 2, bw, filler, NA, 999, 999, 7, 17, 153, 75, 121, 77, 87, 87, 3, 0.990036
251, 2, bw, attraction, a-b-da, 14, 2, 7, 18, 153, 83, 90, 165, 165, 90, 2, 4.11565
251, 2, bw, attraction, a-b-da, 14, 2, 7, 18, 153, 83, 90, 165, 165, 90, 1, 0.965106
251, 2, bw, catch, NA, 999, 999, 7, 19, 150, 105, 74, 121, 130, 185, 3, 1.308
251, 2, bw, catch, NA, 999, 999, 7, 19, 150, 105, 74, 121, 130, 185, 2, 0.670336
251, 2, bw, attraction, a-b-db, 14, 3, 7, 20, 120, 195, 111, 181, 195, 120, 1, 5.44129
251, 2, bw, attraction, a-b-db, 14, 3, 7, 20, 120, 195, 111, 181, 195, 120, 2, 1.05287
251, 2, bw, filler, NA, 999, 999, 7, 21, 103, 126, 106, 107, 75, 102, 1, 1.34447
251, 2, bw, filler, NA, 999, 999, 7, 21, 103, 126, 106, 107, 75, 102, 3, 0.753414
251, 2, bw, filler, NA, 999, 999, 7, 22, 189, 64, 188, 85, 158, 56, 2, 1.3691
251, 2, bw, filler, NA, 999, 999, 7, 22, 189, 64, 188, 85, 158, 56, 3, 1.01735
251, 2, bw, filler, NA, 999, 999, 7, 23, 176, 125, 164, 183, 63, 85, 2, 1.83022
251, 2, bw, filler, NA, 999, 999, 7, 23, 176, 125, 164, 183, 63, 85, 3, 0.619764
251, 2, bw, filler, NA, 999, 999, 7, 24, 142, 162, 90, 151, 98, 129, 1, 1.14481
251, 2, bw, filler, NA, 999, 999, 7, 24, 142, 162, 90, 151, 98, 129, 3, 0.953746
251, 2, bw, filler, NA, 999, 999, 7, 25, 80, 61, 104, 156, 98, 120, 2, 2.35335
251, 2, bw, filler, NA, 999, 999, 7, 25, 80, 61, 104, 156, 98, 120, 1, 0.649938
251, 2, bw, filler, NA, 999, 999, 7, 26, 115, 188, 152, 101, 176, 97, 1, 1.9977
251, 2, bw, filler, NA, 999, 999, 7, 26, 115, 188, 152, 101, 176, 97, 2, 0.732291
251, 2, bw, catch, NA, 999, 999, 7, 27, 159, 156, 144, 111, 65, 130, 1, 0.844878
251, 2, bw, catch, NA, 999, 999, 7, 27, 159, 156, 144, 111, 65, 130, 3, 0.753762
251, 2, bw, attraction, a-b-db, 9, 3, 7, 28, 114, 186, 120, 195, 195, 120, 2, 1.66544
251, 2, bw, attraction, a-b-db, 9, 3, 7, 28, 114, 186, 120, 195, 195, 120, 1, 0.589606
251, 2, bw, attraction, a-b-da, 9, 2, 7, 29, 157, 86, 165, 90, 90, 165, 2, 2.21138
251, 2, bw, attraction, a-b-da, 9, 2, 7, 29, 157, 86, 165, 90, 90, 165, 1, 0.577319
251, 2, bw, attraction, a-b-db, 9, 1, 7, 30, 57, 129, 135, 60, 60, 135, 3, 2.82386
251, 2, bw, attraction, a-b-db, 9, 1, 7, 30, 57, 129, 135, 60, 60, 135, 1, 2.26075
251, 2, bw, attraction, a-b-da, 2, 2, 7, 31, 163, 89, 165, 90, 90, 165, 1, 8.31935
251, 2, bw, attraction, a-b-da, 2, 2, 7, 31, 163, 89, 165, 90, 90, 165, 2, 2.21544
251, 2, bw, attraction, a-b-da, 2, 1, 7, 32, 135, 60, 60, 135, 134, 59, 1, 2.55598
251, 2, bw, attraction, a-b-da, 2, 1, 7, 32, 135, 60, 60, 135, 134, 59, 3, 0.659863
251, 2, bw, attraction, a-b-da, 5, 3, 7, 33, 120, 195, 190, 117, 195, 120, 1, 4.23089
251, 2, bw, attraction, a-b-da, 5, 3, 7, 33, 120, 195, 190, 117, 195, 120, 3, 0.587573
251, 2, bw, attraction, a-b-db, 14, 2, 7, 34, 90, 165, 83, 153, 165, 90, 3, 4.72199
251, 2, bw, attraction, a-b-db, 14, 2, 7, 34, 90, 165, 83, 153, 165, 90, 2, 0.490475
251, 2, bw, attraction, a-b-da, 14, 1, 7, 35, 60, 135, 135, 60, 125, 56, 2, 6.86839
251, 2, bw, attraction, a-b-da, 14, 1, 7, 35, 60, 135, 135, 60, 125, 56, 3, 0.990861
251, 2, bw, attraction, a-b-db, 2, 1, 7, 36, 60, 135, 135, 60, 59, 134, 2, 6.09242
251, 2, bw, attraction, a-b-db, 2, 1, 7, 36, 60, 135, 135, 60, 59, 134, 3, 0.621913
251, 2, bw, filler, NA, 999, 999, 7, 37, 178, 112, 119, 87, 193, 66, 1, 2.06696
251, 2, bw, filler, NA, 999, 999, 7, 37, 178, 112, 119, 87, 193, 66, 2, 0.790893
251, 2, bw, filler, NA, 999, 999, 8, 1, 96, 125, 143, 84, 71, 94, 1, 6.56451
251, 2, bw, filler, NA, 999, 999, 8, 1, 96, 125, 143, 84, 71, 94, 3, 0.827121
251, 2, bw, catch, NA, 999, 999, 8, 2, 179, 136, 71, 124, 158, 97, 1, 0.927439
251, 2, bw, catch, NA, 999, 999, 8, 2, 179, 136, 71, 124, 158, 97, 2, 0.577138
251, 2, bw, attraction, a-b-db, 9, 1, 8, 3, 57, 129, 135, 60, 60, 135, 2, 7.27971
251, 2, bw, attraction, a-b-db, 9, 1, 8, 3, 57, 129, 135, 60, 60, 135, 3, 0.777293
251, 2, bw, attraction, a-b-da, 9, 1, 8, 4, 135, 60, 60, 135, 129, 57, 2, 2.44783
251, 2, bw, attraction, a-b-da, 9, 1, 8, 4, 135, 60, 60, 135, 129, 57, 3, 0.804138
251, 2, bw, attraction, a-b-db, 2, 2, 8, 5, 90, 165, 89, 163, 165, 90, 1, 20.9378
251, 2, bw, attraction, a-b-db, 2, 2, 8, 5, 90, 165, 89, 163, 165, 90, 3, 1.56532
251, 2, bw, attraction, a-b-db, 5, 3, 8, 6, 117, 190, 195, 120, 120, 195, 1, 4.03614
251, 2, bw, attraction, a-b-db, 5, 3, 8, 6, 117, 190, 195, 120, 120, 195, 2, 0.52899
251, 2, bw, filler, NA, 999, 999, 8, 7, 140, 178, 105, 79, 130, 157, 1, 1.76123
251, 2, bw, filler, NA, 999, 999, 8, 7, 140, 178, 105, 79, 130, 157, 2, 0.497293
251, 2, bw, attraction, a-b-db, 14, 2, 8, 8, 90, 165, 165, 90, 83, 153, 1, 4.05112
251, 2, bw, attraction, a-b-db, 14, 2, 8, 8, 90, 165, 165, 90, 83, 153, 3, 0.879131
251, 2, bw, filler, NA, 999, 999, 8, 9, 80, 95, 114, 72, 168, 91, 3, 1.97748
251, 2, bw, filler, NA, 999, 999, 8, 9, 80, 95, 114, 72, 168, 91, 1, 1.57689
251, 2, bw, attraction, a-b-da, 14, 3, 8, 10, 120, 195, 195, 120, 181, 111, 1, 3.17503
251, 2, bw, attraction, a-b-da, 14, 3, 8, 10, 120, 195, 195, 120, 181, 111, 3, 0.661983
251, 2, bw, attraction, a-b-da, 5, 1, 8, 11, 60, 135, 135, 60, 132, 58, 2, 8.80115
251, 2, bw, attraction, a-b-da, 5, 1, 8, 11, 60, 135, 135, 60, 132, 58, 3, 0.605564
251, 2, bw, attraction, a-b-db, 14, 1, 8, 12, 56, 125, 60, 135, 135, 60, 2, 7.12344
251, 2, bw, attraction, a-b-db, 14, 1, 8, 12, 56, 125, 60, 135, 135, 60, 1, 0.683101
251, 2, bw, attraction, a-b-db, 14, 3, 8, 13, 120, 195, 195, 120, 111, 181, 1, 3.00544
251, 2, bw, attraction, a-b-db, 14, 3, 8, 13, 120, 195, 195, 120, 111, 181, 3, 0.787174
251, 2, bw, attraction, a-b-db, 5, 1, 8, 14, 58, 132, 60, 135, 135, 60, 2, 8.56155
251, 2, bw, attraction, a-b-db, 5, 1, 8, 14, 58, 132, 60, 135, 135, 60, 1, 0.487505
251, 2, bw, attraction, a-b-db, 9, 3, 8, 15, 195, 120, 120, 195, 114, 186, 1, 6.70597
251, 2, bw, attraction, a-b-db, 9, 3, 8, 15, 195, 120, 120, 195, 114, 186, 3, 0.619216
251, 2, bw, attraction, a-b-da, 2, 1, 8, 16, 60, 135, 135, 60, 134, 59, 2, 22.9602
251, 2, bw, attraction, a-b-da, 2, 1, 8, 16, 60, 135, 135, 60, 134, 59, 1, 0.738375
251, 2, bw, attraction, a-b-da, 2, 2, 8, 17, 163, 89, 90, 165, 165, 90, 2, 17.9388
251, 2, bw, attraction, a-b-da, 2, 2, 8, 17, 163, 89, 90, 165, 165, 90, 1, 0.743079
251, 2, bw, filler, NA, 999, 999, 8, 18, 105, 189, 165, 174, 160, 195, 2, 1.30278
251, 2, bw, filler, NA, 999, 999, 8, 18, 105, 189, 165, 174, 160, 195, 1, 0.705705
251, 2, bw, attraction, a-b-da, 14, 1, 8, 19, 125, 56, 135, 60, 60, 135, 2, 1.69947
251, 2, bw, attraction, a-b-da, 14, 1, 8, 19, 125, 56, 135, 60, 60, 135, 1, 0.614277
251, 2, bw, attraction, a-b-db, 2, 3, 8, 20, 119, 193, 120, 195, 195, 120, 1, 6.52333
251, 2, bw, attraction, a-b-db, 2, 3, 8, 20, 119, 193, 120, 195, 195, 120, 2, 0.53119
251, 2, bw, filler, NA, 999, 999, 8, 21, 96, 121, 64, 146, 150, 76, 1, 3.57184
251, 2, bw, filler, NA, 999, 999, 8, 21, 96, 121, 64, 146, 150, 76, 2, 0.95538
251, 2, bw, attraction, a-b-da, 9, 3, 8, 22, 186, 114, 120, 195, 195, 120, 2, 9.91498
251, 2, bw, attraction, a-b-da, 9, 3, 8, 22, 186, 114, 120, 195, 195, 120, 1, 0.538442
251, 2, bw, catch, NA, 999, 999, 8, 23, 84, 111, 134, 121, 184, 131, 3, 1.2508
251, 2, bw, catch, NA, 999, 999, 8, 23, 84, 111, 134, 121, 184, 131, 1, 0.671794
251, 2, bw, attraction, a-b-db, 5, 2, 8, 24, 165, 90, 88, 161, 90, 165, 2, 3.17091
251, 2, bw, attraction, a-b-db, 5, 2, 8, 24, 165, 90, 88, 161, 90, 165, 3, 5.80263
251, 2, bw, attraction, a-b-da, 9, 2, 8, 25, 165, 90, 90, 165, 157, 86, 2, 3.47061
251, 2, bw, attraction, a-b-da, 9, 2, 8, 25, 165, 90, 90, 165, 157, 86, 3, 1.20963
251, 2, bw, filler, NA, 999, 999, 8, 26, 190, 61, 150, 168, 141, 104, 2, 2.53439
251, 2, bw, filler, NA, 999, 999, 8, 26, 190, 61, 150, 168, 141, 104, 1, 0.831593
251, 2, bw, attraction, a-b-da, 14, 2, 8, 27, 90, 165, 165, 90, 153, 83, 1, 4.684
251, 2, bw, attraction, a-b-da, 14, 2, 8, 27, 90, 165, 165, 90, 153, 83, 3, 0.72643
251, 2, bw, attraction, a-b-db, 2, 1, 8, 28, 60, 135, 59, 134, 135, 60, 1, 3.32681
251, 2, bw, attraction, a-b-db, 2, 1, 8, 28, 60, 135, 59, 134, 135, 60, 3, 0.639798
251, 2, bw, filler, NA, 999, 999, 8, 29, 82, 104, 175, 172, 168, 76, 2, 1.17152
251, 2, bw, filler, NA, 999, 999, 8, 29, 82, 104, 175, 172, 168, 76, 1, 0.603064
251, 2, bw, catch, NA, 999, 999, 8, 30, 149, 166, 109, 86, 146, 109, 1, 1.3048
251, 2, bw, catch, NA, 999, 999, 8, 30, 149, 166, 109, 86, 146, 109, 2, 0.491167
251, 2, bw, filler, NA, 999, 999, 8, 31, 130, 65, 167, 171, 76, 185, 2, 1.47682
251, 2, bw, filler, NA, 999, 999, 8, 31, 130, 65, 167, 171, 76, 185, 1, 0.624326
251, 2, bw, attraction, a-b-da, 2, 3, 8, 32, 195, 120, 193, 119, 120, 195, 1, 10.3009
251, 2, bw, attraction, a-b-da, 2, 3, 8, 32, 195, 120, 193, 119, 120, 195, 3, 0.636878
251, 2, bw, attraction, a-b-da, 5, 3, 8, 33, 190, 117, 120, 195, 195, 120, 2, 3.76135
251, 2, bw, attraction, a-b-da, 5, 3, 8, 33, 190, 117, 120, 195, 195, 120, 1, 1.68879
251, 2, bw, filler, NA, 999, 999, 8, 34, 82, 97, 62, 93, 82, 133, 3, 1.39485
251, 2, bw, filler, NA, 999, 999, 8, 34, 82, 97, 62, 93, 82, 133, 2, 0.865691
251, 2, bw, attraction, a-b-db, 9, 2, 8, 35, 90, 165, 165, 90, 86, 157, 1, 2.40477
251, 2, bw, attraction, a-b-db, 9, 2, 8, 35, 90, 165, 165, 90, 86, 157, 3, 0.47463
251, 2, bw, filler, NA, 999, 999, 8, 36, 98, 189, 174, 141, 85, 82, 2, 0.901001
251, 2, bw, filler, NA, 999, 999, 8, 36, 98, 189, 174, 141, 85, 82, 3, 0.512058
251, 2, bw, attraction, a-b-da, 5, 2, 8, 37, 90, 165, 161, 88, 165, 90, 1, 24.6812
251, 2, bw, attraction, a-b-da, 5, 2, 8, 37, 90, 165, 161, 88, 165, 90, 2, 0.741399
